IPosition2,IPosition3,IPosition1,IPosition6,IPosition4,IPosition5,TrialsF1.thisRepN,TrialsF1.thisTrialN,TrialsF1.thisN,TrialsF1.thisIndex,TrialsM1.thisRepN,TrialsM1.thisTrialN,TrialsM1.thisN,TrialsM1.thisIndex,TrialsF2.thisRepN,TrialsF2.thisTrialN,TrialsF2.thisN,TrialsF2.thisIndex,TrialsM2.thisRepN,TrialsM2.thisTrialN,TrialsM2.thisN,TrialsM2.thisIndex,TrialsF3.thisRepN,TrialsF3.thisTrialN,TrialsF3.thisN,TrialsF3.thisIndex,TrialsM3.thisRepN,TrialsM3.thisTrialN,TrialsM3.thisN,TrialsM3.thisIndex,InstrKey_resp.keys,InstrKey_resp.rt,Image0 _Position,Image1 _Position,Image2 _Position,Image3 _Position,Center_image,condition,code,correct_answer,accuracy,Key_Resp.keys,Key_Resp.rt,BreakKey_resp.keys,BreakKey_resp.rt,date,frameRate,expName,session,participant,
,,,,,,,,,,,,,,,,,,,,,,,,,,,,,,space,3.23324112073,,,,,,,,,,,,,,2017_Aug_25_1256,60.0154187015,FEMA4ImagesEEG,001,201201,
AMSA21.JPG,AMNE22.JPG,AMNE21.JPG,AMSA23.JPG,AMSA22.JPG,AMNE23.JPG,0,0,0,1,,,,,,,,,,,,,,,,,,,,,,,AFSA01.jpg,AFNE14.jpg,AFNE05.jpg,AFSA19.jpg,AFSA01.jpg,FS,4,num_8,32,num_4,2.23337743501,,,2017_Aug_25_1256,60.0154187015,FEMA4ImagesEEG,001,201201,
AFNE23.JPG,AFNE24.JPG,AFNE22.JPG,AFSA24.JPG,AFSA22.JPG,AFSA23.JPG,0,1,1,8,,,,,,,,,,,,,,,,,,,,,,,AFNE19.jpg,AFSA19.jpg,AFSA16.jpg,AFNE09.jpg,AFNE19.jpg,FN,3,num_8,16,num_8,1.21674805431,,,2017_Aug_25_1256,60.0154187015,FEMA4ImagesEEG,001,201201,
AFNE22.JPG,AFSA24.JPG,AFSA22.JPG,AFNE25.JPG,AFNE24.JPG,AFSA25.JPG,0,2,2,6,,,,,,,,,,,,,,,,,,,,,,,AFNE03.jpg,AFSA07.jpg,AFSA19.jpg,AFNE07.jpg,AFSA19.jpg,FS,4,num_2,32,num_6,1.68339323143,,,2017_Aug_25_1256,60.0154187015,FEMA4ImagesEEG,001,201201,
AFSA25.JPG,AFNE24.JPG,AFSA24.JPG,AFNE21.JPG,AFSA21.JPG,AFNE25.JPG,0,3,3,2,,,,,,,,,,,,,,,,,,,,,,,AFNE12.jpg,AFSA07.jpg,AFSA19.jpg,AFNE17.jpg,AFSA07.jpg,FS,4,num_6,32,num_2,0.699991500403,,,2017_Aug_25_1256,60.0154187015,FEMA4ImagesEEG,001,201201,
AFSA21.JPG,AFNE22.JPG,AFNE21.JPG,AFSA23.JPG,AFSA22.JPG,AFNE23.JPG,0,4,4,0,,,,,,,,,,,,,,,,,,,,,,,AFSA20.jpg,AFNE04.jpg,AFSA16.jpg,AFNE06.jpg,AFNE06.jpg,FN,3,num_4,16,num_4,2.38336163859,,,2017_Aug_25_1256,60.0154187015,FEMA4ImagesEEG,001,201201,
AMNE22.JPG,AMSA24.JPG,AMSA22.JPG,AMNE25.JPG,AMNE24.JPG,AMSA25.JPG,0,5,5,7,,,,,,,,,,,,,,,,,,,,,,,AFSA09.jpg,AFNE10.jpg,AFNE20.jpg,AFSA17.jpg,AFNE10.jpg,FN,3,num_6,32,num_8,0.93344366772,,,2017_Aug_25_1256,60.0154187015,FEMA4ImagesEEG,001,201201,
AFSA21.JPG,AFNE23.JPG,AFNE21.JPG,AFSA25.JPG,AFNE25.JPG,AFSA23.JPG,0,6,6,4,,,,,,,,,,,,,,,,,,,,,,,AFNE13.jpg,AFSA13.jpg,AFNE15.jpg,AFSA18.jpg,AFNE13.jpg,FN,3,num_8,32,num_2,0.700179133009,,,2017_Aug_25_1256,60.0154187015,FEMA4ImagesEEG,001,201201,
AMSA21.JPG,AMNE23.JPG,AMNE21.JPG,AMSA25.JPG,AMNE25.JPG,AMSA23.JPG,0,7,7,5,,,,,,,,,,,,,,,,,,,,,,,AFSA06.jpg,AFNE15.jpg,AFSA19.jpg,AFNE13.jpg,AFSA19.jpg,FS,4,num_2,32,num_4,1.18344727604,,,2017_Aug_25_1256,60.0154187015,FEMA4ImagesEEG,001,201201,
AMNE23.JPG,AMNE24.JPG,AMNE22.JPG,AMSA24.JPG,AMSA22.JPG,AMSA23.JPG,0,8,8,9,,,,,,,,,,,,,,,,,,,,,,,AFNE04.jpg,AFNE13.jpg,AFSA15.jpg,AFSA17.jpg,AFSA15.jpg,FS,4,num_2,32,num_8,0.816505575254,,,2017_Aug_25_1256,60.0154187015,FEMA4ImagesEEG,001,201201,
AMSA25.JPG,AMNE24.JPG,AMSA24.JPG,AMNE26.JPG,AMSA21.JPG,AMNE25.JPG,0,9,9,3,,,,,,,,,,,,,,,,,,,,,,,AFNE04.jpg,AFSA08.jpg,AFNE16.jpg,AFSA07.jpg,AFNE04.jpg,FN,3,num_8,32,num_2,0.616777562347,,,2017_Aug_25_1256,60.0154187015,FEMA4ImagesEEG,001,201201,
AMNE23.JPG,AMNE24.JPG,AMNE22.JPG,AMSA24.JPG,AMSA22.JPG,AMSA23.JPG,,,,,0,0,0,9,,,,,,,,,,,,,,,,,,,AMSA13.jpg,AMSA04.jpg,AMNE10.jpg,AMNE03.jpg,AMSA13.jpg,MS,2,num_8,16,num_8,0.966738351945,,,2017_Aug_25_1256,60.0154187015,FEMA4ImagesEEG,001,201201,
AFSA25.JPG,AFNE24.JPG,AFSA24.JPG,AFNE21.JPG,AFSA21.JPG,AFNE25.JPG,,,,,0,1,1,2,,,,,,,,,,,,,,,,,,,AMNE17.jpg,AMNE18.jpg,AMSA11.jpg,AMSA19.jpg,AMSA19.jpg,MS,2,num_4,32,num_8,0.766772029592,,,2017_Aug_25_1256,60.0154187015,FEMA4ImagesEEG,001,201201,
AMSA21.JPG,AMNE22.JPG,AMNE21.JPG,AMSA23.JPG,AMSA22.JPG,AMNE23.JPG,,,,,0,2,2,1,,,,,,,,,,,,,,,,,,,AMNE14.jpg,AMSA15.jpg,AMNE03.jpg,AMSA19.jpg,AMSA15.jpg,MS,2,num_6,32,num_2,1.36676016223,,,2017_Aug_25_1256,60.0154187015,FEMA4ImagesEEG,001,201201,
AMSA21.JPG,AMNE23.JPG,AMNE21.JPG,AMSA25.JPG,AMNE25.JPG,AMSA23.JPG,,,,,0,3,3,5,,,,,,,,,,,,,,,,,,,AMNE11.jpg,AMNE08.jpg,AMSA09.jpg,AMSA13.jpg,AMSA09.jpg,MS,2,num_2,32,num_6,1.21660692894,,,2017_Aug_25_1256,60.0154187015,FEMA4ImagesEEG,001,201201,
AFNE23.JPG,AFNE24.JPG,AFNE22.JPG,AFSA24.JPG,AFSA22.JPG,AFSA23.JPG,,,,,0,4,4,8,,,,,,,,,,,,,,,,,,,AMNE09.jpg,AMNE02.jpg,AMSA18.jpg,AMSA16.jpg,AMNE09.jpg,MN,1,num_8,32,num_4,1.03342073485,,,2017_Aug_25_1256,60.0154187015,FEMA4ImagesEEG,001,201201,
AFNE22.JPG,AFSA24.JPG,AFSA22.JPG,AFNE25.JPG,AFNE24.JPG,AFSA25.JPG,,,,,0,5,5,6,,,,,,,,,,,,,,,,,,,AMNE20.jpg,AMSA13.jpg,AMSA01.jpg,AMNE07.jpg,AMNE07.jpg,MN,1,num_4,32,num_8,0.600138238723,,,2017_Aug_25_1256,60.0154187015,FEMA4ImagesEEG,001,201201,
AFSA21.JPG,AFNE23.JPG,AFNE21.JPG,AFSA25.JPG,AFNE25.JPG,AFSA23.JPG,,,,,0,6,6,4,,,,,,,,,,,,,,,,,,,AMSA15.jpg,AMSA03.jpg,AMNE16.jpg,AMNE15.jpg,AMNE16.jpg,MN,1,num_2,32,num_4,1.15012821561,,,2017_Aug_25_1256,60.0154187015,FEMA4ImagesEEG,001,201201,
AFSA21.JPG,AFNE22.JPG,AFNE21.JPG,AFSA23.JPG,AFSA22.JPG,AFNE23.JPG,,,,,0,7,7,0,,,,,,,,,,,,,,,,,,,AMNE13.jpg,AMNE16.jpg,AMSA10.jpg,AMSA16.jpg,AMSA10.jpg,MS,2,num_2,16,num_2,0.516631465507,,,2017_Aug_25_1256,60.0154187015,FEMA4ImagesEEG,001,201201,
AMNE22.JPG,AMSA24.JPG,AMSA22.JPG,AMNE25.JPG,AMNE24.JPG,AMSA25.JPG,,,,,0,8,8,7,,,,,,,,,,,,,,,,,,,AMNE04.jpg,AMSA07.jpg,AMSA05.jpg,AMNE06.jpg,AMSA07.jpg,MS,2,num_6,32,num_8,1.00010103294,,,2017_Aug_25_1256,60.0154187015,FEMA4ImagesEEG,001,201201,
AMSA25.JPG,AMNE24.JPG,AMSA24.JPG,AMNE26.JPG,AMSA21.JPG,AMNE25.JPG,,,,,0,9,9,3,,,,,,,,,,,,,,,,,,,AMNE09.jpg,AMNE12.jpg,AMSA01.jpg,AMSA05.jpg,AMNE09.jpg,MN,1,num_8,16,num_8,0.883461228208,,,2017_Aug_25_1256,60.0154187015,FEMA4ImagesEEG,001,201201,
AMSA25.JPG,AMNE24.JPG,AMSA24.JPG,AMNE26.JPG,AMSA21.JPG,AMNE25.JPG,,,,,,,,,0,0,0,3,,,,,,,,,,,,,,,AFSA13.jpg,AFNE04.jpg,AFNE12.jpg,AFSA09.jpg,AFSA13.jpg,FS,4,num_8,32,num_4,0.733521607418,,,2017_Aug_25_1256,60.0154187015,FEMA4ImagesEEG,001,201201,
AMSA21.JPG,AMNE23.JPG,AMNE21.JPG,AMSA25.JPG,AMNE25.JPG,AMSA23.JPG,,,,,,,,,0,1,1,5,,,,,,,,,,,,,,,AFNE09.jpg,AFSA14.jpg,AFNE18.jpg,AFSA12.jpg,AFSA12.jpg,FS,4,num_4,32,num_8,0.933412235249,,,2017_Aug_25_1256,60.0154187015,FEMA4ImagesEEG,001,201201,
AFNE22.JPG,AFSA24.JPG,AFSA22.JPG,AFNE25.JPG,AFNE24.JPG,AFSA25.JPG,,,,,,,,,0,2,2,6,,,,,,,,,,,,,,,AFSA18.jpg,AFNE14.jpg,AFSA12.jpg,AFNE06.jpg,AFNE06.jpg,FN,3,num_4,32,num_8,1.05040036308,,,2017_Aug_25_1256,60.0154187015,FEMA4ImagesEEG,001,201201,
AFSA21.JPG,AFNE22.JPG,AFNE21.JPG,AFSA23.JPG,AFSA22.JPG,AFNE23.JPG,,,,,,,,,0,3,3,0,,,,,,,,,,,,,,,AFSA11.jpg,AFSA03.jpg,AFNE06.jpg,AFNE05.jpg,AFNE05.jpg,FN,3,num_4,32,num_2,1.7501362341,,,2017_Aug_25_1256,60.0154187015,FEMA4ImagesEEG,001,201201,
AMSA21.JPG,AMNE22.JPG,AMNE21.JPG,AMSA23.JPG,AMSA22.JPG,AMNE23.JPG,,,,,,,,,0,4,4,1,,,,,,,,,,,,,,,AFSA04.jpg,AFNE13.jpg,AFSA02.jpg,AFNE12.jpg,AFSA02.jpg,FS,4,num_2,32,num_6,0.350056690706,,,2017_Aug_25_1256,60.0154187015,FEMA4ImagesEEG,001,201201,
AFSA25.JPG,AFNE24.JPG,AFSA24.JPG,AFNE21.JPG,AFSA21.JPG,AFNE25.JPG,,,,,,,,,0,5,5,2,,,,,,,,,,,,,,,AFSA13.jpg,AFNE13.jpg,AFNE16.jpg,AFSA02.jpg,AFSA02.jpg,FS,4,num_4,16,num_4,0.666795283205,,,2017_Aug_25_1256,60.0154187015,FEMA4ImagesEEG,001,201201,
AMNE22.JPG,AMSA24.JPG,AMSA22.JPG,AMNE25.JPG,AMNE24.JPG,AMSA25.JPG,,,,,,,,,0,6,6,7,,,,,,,,,,,,,,,AFSA02.jpg,AFSA12.jpg,AFNE05.jpg,AFNE02.jpg,AFSA02.jpg,FS,4,num_8,16,num_8,0.583513669116,,,2017_Aug_25_1256,60.0154187015,FEMA4ImagesEEG,001,201201,
AFNE23.JPG,AFNE24.JPG,AFNE22.JPG,AFSA24.JPG,AFSA22.JPG,AFSA23.JPG,,,,,,,,,0,7,7,8,,,,,,,,,,,,,,,AFSA19.jpg,AFNE15.jpg,AFSA04.jpg,AFNE02.jpg,AFSA04.jpg,FS,4,num_2,16,num_2,0.900122362118,,,2017_Aug_25_1256,60.0154187015,FEMA4ImagesEEG,001,201201,
AFSA21.JPG,AFNE23.JPG,AFNE21.JPG,AFSA25.JPG,AFNE25.JPG,AFSA23.JPG,,,,,,,,,0,8,8,4,,,,,,,,,,,,,,,AFNE06.jpg,AFSA13.jpg,AFSA06.jpg,AFNE05.jpg,AFNE05.jpg,FN,3,num_4,32,num_2,0.766398368077,,,2017_Aug_25_1256,60.0154187015,FEMA4ImagesEEG,001,201201,
AMNE23.JPG,AMNE24.JPG,AMNE22.JPG,AMSA24.JPG,AMSA22.JPG,AMSA23.JPG,,,,,,,,,0,9,9,9,,,,,,,,,,,,,,,AFSA15.jpg,AFSA07.jpg,AFNE12.jpg,AFNE17.jpg,AFSA15.jpg,FS,4,num_8,32,num_4,1.35009517944,,,2017_Aug_25_1256,60.0154187015,FEMA4ImagesEEG,001,201201,
AMNE22.JPG,AMSA24.JPG,AMSA22.JPG,AMNE25.JPG,AMNE24.JPG,AMSA25.JPG,,,,,,,,,,,,,0,0,0,7,,,,,,,,,,,AMSA11.jpg,AMSA18.jpg,AMNE08.jpg,AMNE09.jpg,AMNE09.jpg,MN,1,num_4,32,num_2,0.933557530242,,,2017_Aug_25_1256,60.0154187015,FEMA4ImagesEEG,001,201201,
AMSA25.JPG,AMNE24.JPG,AMSA24.JPG,AMNE26.JPG,AMSA21.JPG,AMNE25.JPG,,,,,,,,,,,,,0,1,1,3,,,,,,,,,,,AMNE02.jpg,AMSA17.jpg,AMNE12.jpg,AMSA04.jpg,AMNE12.jpg,MN,1,num_2,16,num_2,1.01675318615,,,2017_Aug_25_1256,60.0154187015,FEMA4ImagesEEG,001,201201,
AFNE22.JPG,AFSA24.JPG,AFSA22.JPG,AFNE25.JPG,AFNE24.JPG,AFSA25.JPG,,,,,,,,,,,,,0,2,2,6,,,,,,,,,,,AMSA10.jpg,AMNE16.jpg,AMNE14.jpg,AMSA16.jpg,AMSA16.jpg,MS,2,num_4,32,num_6,1.31678253381,,,2017_Aug_25_1256,60.0154187015,FEMA4ImagesEEG,001,201201,
AMSA21.JPG,AMNE22.JPG,AMNE21.JPG,AMSA23.JPG,AMSA22.JPG,AMNE23.JPG,,,,,,,,,,,,,0,3,3,1,,,,,,,,,,,AMNE13.jpg,AMNE07.jpg,AMSA19.jpg,AMSA13.jpg,AMSA13.jpg,MS,2,num_4,32,num_8,1.93339619827,,,2017_Aug_25_1256,60.0154187015,FEMA4ImagesEEG,001,201201,
AFNE23.JPG,AFNE24.JPG,AFNE22.JPG,AFSA24.JPG,AFSA22.JPG,AFSA23.JPG,,,,,,,,,,,,,0,4,4,8,,,,,,,,,,,AMNE06.jpg,AMSA17.jpg,AMSA10.jpg,AMNE12.jpg,AMSA10.jpg,MS,2,num_2,32,num_4,1.25013286634,,,2017_Aug_25_1256,60.0154187015,FEMA4ImagesEEG,001,201201,
AFSA21.JPG,AFNE22.JPG,AFNE21.JPG,AFSA23.JPG,AFSA22.JPG,AFNE23.JPG,,,,,,,,,,,,,0,5,5,0,,,,,,,,,,,AMNE06.jpg,AMSA05.jpg,AMNE03.jpg,AMSA08.jpg,AMNE06.jpg,MN,1,num_8,16,num_8,2.00004169613,,,2017_Aug_25_1256,60.0154187015,FEMA4ImagesEEG,001,201201,
AFSA21.JPG,AFNE23.JPG,AFNE21.JPG,AFSA25.JPG,AFNE25.JPG,AFSA23.JPG,,,,,,,,,,,,,0,6,6,4,,,,,,,,,,,AMNE01.jpg,AMSA06.jpg,AMSA08.jpg,AMNE08.jpg,AMSA08.jpg,MS,2,num_2,16,num_2,0.800134069109,,,2017_Aug_25_1256,60.0154187015,FEMA4ImagesEEG,001,201201,
AMNE23.JPG,AMNE24.JPG,AMNE22.JPG,AMSA24.JPG,AMSA22.JPG,AMSA23.JPG,,,,,,,,,,,,,0,7,7,9,,,,,,,,,,,AMSA05.jpg,AMNE05.jpg,AMNE16.jpg,AMSA17.jpg,AMNE05.jpg,MN,1,num_6,32,num_2,0.733425385569,,,2017_Aug_25_1256,60.0154187015,FEMA4ImagesEEG,001,201201,
AMSA21.JPG,AMNE23.JPG,AMNE21.JPG,AMSA25.JPG,AMNE25.JPG,AMSA23.JPG,,,,,,,,,,,,,0,8,8,5,,,,,,,,,,,AMNE04.jpg,AMSA14.jpg,AMNE11.jpg,AMSA18.jpg,AMNE11.jpg,MN,1,num_2,16,num_2,0.583496669922,,,2017_Aug_25_1256,60.0154187015,FEMA4ImagesEEG,001,201201,
AFSA25.JPG,AFNE24.JPG,AFSA24.JPG,AFNE21.JPG,AFSA21.JPG,AFNE25.JPG,,,,,,,,,,,,,0,9,9,2,,,,,,,,,,,AMNE17.jpg,AMSA07.jpg,AMNE05.jpg,AMSA18.jpg,AMSA07.jpg,MS,2,num_6,32,num_2,0.466850450399,,,2017_Aug_25_1256,60.0154187015,FEMA4ImagesEEG,001,201201,
AMSA21.JPG,AMNE22.JPG,AMNE21.JPG,AMSA23.JPG,AMSA22.JPG,AMNE23.JPG,,,,,,,,,,,,,,,,,0,0,0,1,,,,,,,AFNE12.jpg,AFSA16.jpg,AFSA11.jpg,AFNE13.jpg,AFSA11.jpg,FS,4,num_2,16,num_2,0.433479109434,,,2017_Aug_25_1256,60.0154187015,FEMA4ImagesEEG,001,201201,
AFNE22.JPG,AFSA24.JPG,AFSA22.JPG,AFNE25.JPG,AFNE24.JPG,AFSA25.JPG,,,,,,,,,,,,,,,,,0,1,1,6,,,,,,,AFSA06.jpg,AFNE12.jpg,AFSA14.jpg,AFNE10.jpg,AFNE12.jpg,FN,3,num_6,16,num_6,0.833473656863,,,2017_Aug_25_1256,60.0154187015,FEMA4ImagesEEG,001,201201,
AFNE23.JPG,AFNE24.JPG,AFNE22.JPG,AFSA24.JPG,AFSA22.JPG,AFSA23.JPG,,,,,,,,,,,,,,,,,0,2,2,8,,,,,,,AFSA14.jpg,AFNE05.jpg,AFNE02.jpg,AFSA01.jpg,AFNE02.jpg,FN,3,num_2,16,num_2,0.766818536818,,,2017_Aug_25_1256,60.0154187015,FEMA4ImagesEEG,001,201201,
AMSA25.JPG,AMNE24.JPG,AMSA24.JPG,AMNE26.JPG,AMSA21.JPG,AMNE25.JPG,,,,,,,,,,,,,,,,,0,3,3,3,,,,,,,AFNE16.jpg,AFSA15.jpg,AFNE02.jpg,AFSA17.jpg,AFNE02.jpg,FN,3,num_2,16,num_2,0.583484481822,,,2017_Aug_25_1256,60.0154187015,FEMA4ImagesEEG,001,201201,
AFSA25.JPG,AFNE24.JPG,AFSA24.JPG,AFNE21.JPG,AFSA21.JPG,AFNE25.JPG,,,,,,,,,,,,,,,,,0,4,4,2,,,,,,,AFNE02.jpg,AFSA06.jpg,AFSA03.jpg,AFNE16.jpg,AFNE16.jpg,FN,3,num_4,16,num_4,0.933434045535,,,2017_Aug_25_1256,60.0154187015,FEMA4ImagesEEG,001,201201,
AFSA21.JPG,AFNE23.JPG,AFNE21.JPG,AFSA25.JPG,AFNE25.JPG,AFSA23.JPG,,,,,,,,,,,,,,,,,0,5,5,4,,,,,,,AFNE04.jpg,AFSA13.jpg,AFNE02.jpg,AFSA06.jpg,AFSA13.jpg,FS,4,num_6,16,num_6,1.36671012687,,,2017_Aug_25_1256,60.0154187015,FEMA4ImagesEEG,001,201201,
AMNE23.JPG,AMNE24.JPG,AMNE22.JPG,AMSA24.JPG,AMSA22.JPG,AMSA23.JPG,,,,,,,,,,,,,,,,,0,6,6,9,,,,,,,AFNE12.jpg,AFNE10.jpg,AFSA07.jpg,AFSA05.jpg,AFNE10.jpg,FN,3,num_6,32,num_2,1.01679135415,,,2017_Aug_25_1256,60.0154187015,FEMA4ImagesEEG,001,201201,
AFSA21.JPG,AFNE22.JPG,AFNE21.JPG,AFSA23.JPG,AFSA22.JPG,AFNE23.JPG,,,,,,,,,,,,,,,,,0,7,7,0,,,,,,,AFSA06.jpg,AFNE06.jpg,AFNE18.jpg,AFSA13.jpg,AFSA06.jpg,FS,4,num_8,32,num_4,3.41664221028,,,2017_Aug_25_1256,60.0154187015,FEMA4ImagesEEG,001,201201,
AMSA21.JPG,AMNE23.JPG,AMNE21.JPG,AMSA25.JPG,AMNE25.JPG,AMSA23.JPG,,,,,,,,,,,,,,,,,0,8,8,5,,,,,,,AFNE11.jpg,AFSA20.jpg,AFNE02.jpg,AFSA02.jpg,AFSA20.jpg,FS,4,num_6,16,num_6,0.666784698801,,,2017_Aug_25_1256,60.0154187015,FEMA4ImagesEEG,001,201201,
AMNE22.JPG,AMSA24.JPG,AMSA22.JPG,AMNE25.JPG,AMNE24.JPG,AMSA25.JPG,,,,,,,,,,,,,,,,,0,9,9,7,,,,,,,AFSA14.jpg,AFNE14.jpg,AFNE16.jpg,AFSA08.jpg,AFSA08.jpg,FS,4,num_4,32,num_2,0.866775076617,,,2017_Aug_25_1256,60.0154187015,FEMA4ImagesEEG,001,201201,
AFNE22.JPG,AFSA24.JPG,AFSA22.JPG,AFNE25.JPG,AFNE24.JPG,AFSA25.JPG,,,,,,,,,,,,,,,,,,,,,0,0,0,6,,,AMSA06.jpg,AMNE20.jpg,AMNE06.jpg,AMSA02.jpg,AMSA02.jpg,MS,2,num_4,32,num_6,0.816906499625,,,2017_Aug_25_1256,60.0154187015,FEMA4ImagesEEG,001,201201,
AMSA21.JPG,AMNE22.JPG,AMNE21.JPG,AMSA23.JPG,AMSA22.JPG,AMNE23.JPG,,,,,,,,,,,,,,,,,,,,,0,1,1,1,,,AMNE06.jpg,AMSA19.jpg,AMSA06.jpg,AMNE14.jpg,AMSA19.jpg,MS,2,num_6,32,num_8,0.716740837675,,,2017_Aug_25_1256,60.0154187015,FEMA4ImagesEEG,001,201201,
AFSA21.JPG,AFNE22.JPG,AFNE21.JPG,AFSA23.JPG,AFSA22.JPG,AFNE23.JPG,,,,,,,,,,,,,,,,,,,,,0,2,2,0,,,AMNE17.jpg,AMSA15.jpg,AMSA20.jpg,AMNE08.jpg,AMSA15.jpg,MS,2,num_6,16,num_6,0.650121640454,,,2017_Aug_25_1256,60.0154187015,FEMA4ImagesEEG,001,201201,
AFNE23.JPG,AFNE24.JPG,AFNE22.JPG,AFSA24.JPG,AFSA22.JPG,AFSA23.JPG,,,,,,,,,,,,,,,,,,,,,0,3,3,8,,,AMSA08.jpg,AMSA04.jpg,AMNE14.jpg,AMNE19.jpg,AMNE14.jpg,MN,1,num_2,16,num_2,1.33342410261,,,2017_Aug_25_1256,60.0154187015,FEMA4ImagesEEG,001,201201,
AMNE23.JPG,AMNE24.JPG,AMNE22.JPG,AMSA24.JPG,AMSA22.JPG,AMSA23.JPG,,,,,,,,,,,,,,,,,,,,,0,4,4,9,,,AMSA09.jpg,AMSA06.jpg,AMNE20.jpg,AMNE04.jpg,AMSA06.jpg,MS,2,num_6,32,num_8,2.2000153955,,,2017_Aug_25_1256,60.0154187015,FEMA4ImagesEEG,001,201201,
AMSA21.JPG,AMNE23.JPG,AMNE21.JPG,AMSA25.JPG,AMNE25.JPG,AMSA23.JPG,,,,,,,,,,,,,,,,,,,,,0,5,5,5,,,AMSA09.jpg,AMNE09.jpg,AMSA02.jpg,AMNE17.jpg,AMSA02.jpg,MS,2,num_2,16,num_2,0.550124687479,,,2017_Aug_25_1256,60.0154187015,FEMA4ImagesEEG,001,201201,
AFSA25.JPG,AFNE24.JPG,AFSA24.JPG,AFNE21.JPG,AFSA21.JPG,AFNE25.JPG,,,,,,,,,,,,,,,,,,,,,0,6,6,2,,,AMSA03.jpg,AMSA17.jpg,AMNE05.jpg,AMNE03.jpg,AMSA03.jpg,MS,2,num_8,32,num_2,3.33327078913,,,2017_Aug_25_1256,60.0154187015,FEMA4ImagesEEG,001,201201,
AFSA21.JPG,AFNE23.JPG,AFNE21.JPG,AFSA25.JPG,AFNE25.JPG,AFSA23.JPG,,,,,,,,,,,,,,,,,,,,,0,7,7,4,,,AMNE14.jpg,AMNE01.jpg,AMSA15.jpg,AMSA16.jpg,AMSA16.jpg,MS,2,num_4,32,num_2,2.03339058533,,,2017_Aug_25_1256,60.0154187015,FEMA4ImagesEEG,001,201201,
AMNE22.JPG,AMSA24.JPG,AMSA22.JPG,AMNE25.JPG,AMNE24.JPG,AMSA25.JPG,,,,,,,,,,,,,,,,,,,,,0,8,8,7,,,AMSA09.jpg,AMNE19.jpg,AMNE11.jpg,AMSA17.jpg,AMNE19.jpg,MN,1,num_6,32,num_4,1.8333870572,,,2017_Aug_25_1256,60.0154187015,FEMA4ImagesEEG,001,201201,
AMSA25.JPG,AMNE24.JPG,AMSA24.JPG,AMNE26.JPG,AMSA21.JPG,AMNE25.JPG,,,,,,,,,,,,,,,,,,,,,0,9,9,3,,,AMNE17.jpg,AMNE01.jpg,AMSA08.jpg,AMSA17.jpg,AMSA08.jpg,MS,2,num_2,32,num_8,3.11665969058,,,2017_Aug_25_1256,60.0154187015,FEMA4ImagesEEG,001,201201,
,,,,,,,,,,,,,,,,,,,,,,,,,,,,,,,,,,,,,,,,,,,space,2.83335883212,2017_Aug_25_1256,60.0154187015,FEMA4ImagesEEG,001,201201,
AFNE01.JPG,AFNE01.JPG,AFNE01.JPG,AFNE01.JPG,AFNE01.JPG,AFNE01.JPG,0,0,0,8,,,,,,,,,,,,,,,,,,,,,,,AFNE13.jpg,AFNE05.jpg,AFSA20.jpg,AFSA02.jpg,AFSA20.jpg,FS,4,num_2,32,num_4,1.58337927927,,,2017_Aug_25_1256,60.0154187015,FEMA4ImagesEEG,001,201201,
AFNE01.JPG,AFNE01.JPG,AFNE01.JPG,AFNE01.JPG,AFNE01.JPG,AFNE01.JPG,0,1,1,6,,,,,,,,,,,,,,,,,,,,,,,AFSA01.jpg,AFNE04.jpg,AFNE03.jpg,AFSA14.jpg,AFSA01.jpg,FS,4,num_8,32,num_4,1.06655184193,,,2017_Aug_25_1256,60.0154187015,FEMA4ImagesEEG,001,201201,
AFNE01.JPG,AFNE01.JPG,AFNE01.JPG,AFNE01.JPG,AFNE01.JPG,AFNE01.JPG,0,2,2,4,,,,,,,,,,,,,,,,,,,,,,,AFSA09.jpg,AFNE01.jpg,AFSA01.jpg,AFNE20.jpg,AFNE20.jpg,FN,3,num_4,32,num_8,0.646340121785,,,2017_Aug_25_1256,60.0154187015,FEMA4ImagesEEG,001,201201,
AFNE01.JPG,AFNE01.JPG,AFNE01.JPG,AFNE01.JPG,AFNE01.JPG,AFNE01.JPG,0,3,3,9,,,,,,,,,,,,,,,,,,,,,,,AFSA17.jpg,AFSA11.jpg,AFNE13.jpg,AFNE10.jpg,AFNE13.jpg,FN,3,num_2,16,num_2,3.61676569499,,,2017_Aug_25_1256,60.0154187015,FEMA4ImagesEEG,001,201201,
AFNE01.JPG,AFNE01.JPG,AFNE01.JPG,AFNE01.JPG,AFNE01.JPG,AFNE01.JPG,0,4,4,5,,,,,,,,,,,,,,,,,,,,,,,AFNE17.jpg,AFNE06.jpg,AFSA01.jpg,AFSA11.jpg,AFNE06.jpg,FN,3,num_6,32,num_4,1.91668567048,,,2017_Aug_25_1256,60.0154187015,FEMA4ImagesEEG,001,201201,
AFNE01.JPG,AFNE01.JPG,AFNE01.JPG,AFNE01.JPG,AFNE01.JPG,AFNE01.JPG,0,5,5,1,,,,,,,,,,,,,,,,,,,,,,,AFNE02.jpg,AFSA14.jpg,AFSA16.jpg,AFNE07.jpg,AFNE07.jpg,FN,3,num_4,32,num_6,0.783522008343,,,2017_Aug_25_1256,60.0154187015,FEMA4ImagesEEG,001,201201,
AFNE01.JPG,AFNE01.JPG,AFNE01.JPG,AFNE01.JPG,AFNE01.JPG,AFNE01.JPG,0,6,6,2,,,,,,,,,,,,,,,,,,,,,,,AFSA20.jpg,AFSA08.jpg,AFNE15.jpg,AFNE17.jpg,AFNE15.jpg,FN,3,num_2,16,num_2,0.733536682174,,,2017_Aug_25_1256,60.0154187015,FEMA4ImagesEEG,001,201201,
AFNE01.JPG,AFNE01.JPG,AFNE01.JPG,AFNE01.JPG,AFNE01.JPG,AFNE01.JPG,0,7,7,0,,,,,,,,,,,,,,,,,,,,,,,AFSA14.jpg,AFNE19.jpg,AFSA17.jpg,AFNE20.jpg,AFSA17.jpg,FS,4,num_2,32,num_6,1.16673867268,,,2017_Aug_25_1256,60.0154187015,FEMA4ImagesEEG,001,201201,
AFNE01.JPG,AFNE01.JPG,AFNE01.JPG,AFNE01.JPG,AFNE01.JPG,AFNE01.JPG,0,8,8,3,,,,,,,,,,,,,,,,,,,,,,,AFNE13.jpg,AFNE02.jpg,AFSA09.jpg,AFSA06.jpg,AFSA06.jpg,FS,4,num_4,32,num_2,0.483487528847,,,2017_Aug_25_1256,60.0154187015,FEMA4ImagesEEG,001,201201,
AFNE01.JPG,AFNE01.JPG,AFNE01.JPG,AFNE01.JPG,AFNE01.JPG,AFNE01.JPG,0,9,9,7,,,,,,,,,,,,,,,,,,,,,,,AFSA17.jpg,AFNE13.jpg,AFNE14.jpg,AFSA14.jpg,AFNE13.jpg,FN,3,num_6,32,num_8,0.950148101463,,,2017_Aug_25_1256,60.0154187015,FEMA4ImagesEEG,001,201201,
AFNE01.JPG,AFNE01.JPG,AFNE01.JPG,AFNE01.JPG,AFNE01.JPG,AFNE01.JPG,1,0,10,3,,,,,,,,,,,,,,,,,,,,,,,AFNE10.jpg,AFNE07.jpg,AFSA11.jpg,AFSA14.jpg,AFNE10.jpg,FN,3,num_8,32,num_6,0.66682382902,,,2017_Aug_25_1256,60.0154187015,FEMA4ImagesEEG,001,201201,
AFNE01.JPG,AFNE01.JPG,AFNE01.JPG,AFNE01.JPG,AFNE01.JPG,AFNE01.JPG,1,1,11,7,,,,,,,,,,,,,,,,,,,,,,,AFSA07.jpg,AFNE18.jpg,AFNE01.jpg,AFSA12.jpg,AFNE18.jpg,FN,3,num_6,32,num_2,0.766751181523,,,2017_Aug_25_1256,60.0154187015,FEMA4ImagesEEG,001,201201,
AFNE01.JPG,AFNE01.JPG,AFNE01.JPG,AFNE01.JPG,AFNE01.JPG,AFNE01.JPG,1,2,12,5,,,,,,,,,,,,,,,,,,,,,,,AFNE17.jpg,AFSA16.jpg,AFNE16.jpg,AFSA09.jpg,AFSA16.jpg,FS,4,num_6,16,num_6,1.33341512191,,,2017_Aug_25_1256,60.0154187015,FEMA4ImagesEEG,001,201201,
AFNE01.JPG,AFNE01.JPG,AFNE01.JPG,AFNE01.JPG,AFNE01.JPG,AFNE01.JPG,1,3,13,4,,,,,,,,,,,,,,,,,,,,,,,AFNE09.jpg,AFSA04.jpg,AFSA13.jpg,AFNE11.jpg,AFNE09.jpg,FN,3,num_8,16,num_8,0.950099669798,,,2017_Aug_25_1256,60.0154187015,FEMA4ImagesEEG,001,201201,
AFNE01.JPG,AFNE01.JPG,AFNE01.JPG,AFNE01.JPG,AFNE01.JPG,AFNE01.JPG,1,4,14,1,,,,,,,,,,,,,,,,,,,,,,,AFSA10.jpg,AFNE03.jpg,AFNE16.jpg,AFSA20.jpg,AFSA20.jpg,FS,4,num_4,16,num_4,0.883439738662,,,2017_Aug_25_1256,60.0154187015,FEMA4ImagesEEG,001,201201,
AFNE01.JPG,AFNE01.JPG,AFNE01.JPG,AFNE01.JPG,AFNE01.JPG,AFNE01.JPG,1,5,15,6,,,,,,,,,,,,,,,,,,,,,,,AFNE10.jpg,AFSA11.jpg,AFSA14.jpg,AFNE17.jpg,AFNE17.jpg,FN,3,num_4,32,num_8,0.966805707239,,,2017_Aug_25_1256,60.0154187015,FEMA4ImagesEEG,001,201201,
AFNE01.JPG,AFNE01.JPG,AFNE01.JPG,AFNE01.JPG,AFNE01.JPG,AFNE01.JPG,1,6,16,8,,,,,,,,,,,,,,,,,,,,,,,AFSA01.jpg,AFNE14.jpg,AFNE12.jpg,AFSA19.jpg,AFSA01.jpg,FS,4,num_8,32,num_4,2.11661639075,,,2017_Aug_25_1256,60.0154187015,FEMA4ImagesEEG,001,201201,
AFNE01.JPG,AFNE01.JPG,AFNE01.JPG,AFNE01.JPG,AFNE01.JPG,AFNE01.JPG,1,7,17,0,,,,,,,,,,,,,,,,,,,,,,,AFNE10.jpg,AFNE09.jpg,AFSA11.jpg,AFSA05.jpg,AFNE10.jpg,FN,3,num_8,32,num_6,1.86668206216,,,2017_Aug_25_1256,60.0154187015,FEMA4ImagesEEG,001,201201,
AFNE01.JPG,AFNE01.JPG,AFNE01.JPG,AFNE01.JPG,AFNE01.JPG,AFNE01.JPG,1,8,18,9,,,,,,,,,,,,,,,,,,,,,,,AFNE04.jpg,AFNE18.jpg,AFSA18.jpg,AFSA15.jpg,AFSA18.jpg,FS,4,num_2,32,num_4,0.916814928499,,,2017_Aug_25_1256,60.0154187015,FEMA4ImagesEEG,001,201201,
AFNE01.JPG,AFNE01.JPG,AFNE01.JPG,AFNE01.JPG,AFNE01.JPG,AFNE01.JPG,1,9,19,2,,,,,,,,,,,,,,,,,,,,,,,AFNE07.jpg,AFSA06.jpg,AFSA01.jpg,AFNE03.jpg,AFNE03.jpg,FN,3,num_4,32,num_8,1.06671638129,,,2017_Aug_25_1256,60.0154187015,FEMA4ImagesEEG,001,201201,
AFNE01.JPG,AFNE01.JPG,AFNE01.JPG,AFNE01.JPG,AFNE01.JPG,AFNE01.JPG,2,0,20,3,,,,,,,,,,,,,,,,,,,,,,,AFNE18.jpg,AFNE11.jpg,AFSA01.jpg,AFSA05.jpg,AFSA05.jpg,FS,4,num_4,32,num_2,1.0667221546,,,2017_Aug_25_1256,60.0154187015,FEMA4ImagesEEG,001,201201,
AFNE01.JPG,AFNE01.JPG,AFNE01.JPG,AFNE01.JPG,AFNE01.JPG,AFNE01.JPG,2,1,21,2,,,,,,,,,,,,,,,,,,,,,,,AFNE20.jpg,AFNE12.jpg,AFSA18.jpg,AFSA08.jpg,AFNE12.jpg,FN,3,num_6,32,num_4,1.10008226968,,,2017_Aug_25_1256,60.0154187015,FEMA4ImagesEEG,001,201201,
AFNE01.JPG,AFNE01.JPG,AFNE01.JPG,AFNE01.JPG,AFNE01.JPG,AFNE01.JPG,2,2,22,7,,,,,,,,,,,,,,,,,,,,,,,AFSA04.jpg,AFSA05.jpg,AFNE12.jpg,AFNE05.jpg,AFSA04.jpg,FS,4,num_8,32,num_2,1.0001023159,,,2017_Aug_25_1256,60.0154187015,FEMA4ImagesEEG,001,201201,
AFNE01.JPG,AFNE01.JPG,AFNE01.JPG,AFNE01.JPG,AFNE01.JPG,AFNE01.JPG,2,3,23,6,,,,,,,,,,,,,,,,,,,,,,,AFSA17.jpg,AFNE19.jpg,AFNE18.jpg,AFSA18.jpg,AFNE19.jpg,FN,3,num_6,32,num_4,0.716779647155,,,2017_Aug_25_1256,60.0154187015,FEMA4ImagesEEG,001,201201,
AFNE01.JPG,AFNE01.JPG,AFNE01.JPG,AFNE01.JPG,AFNE01.JPG,AFNE01.JPG,2,4,24,0,,,,,,,,,,,,,,,,,,,,,,,AFNE16.jpg,AFSA07.jpg,AFSA14.jpg,AFNE17.jpg,AFSA14.jpg,FS,4,num_2,32,num_8,0.616791033407,,,2017_Aug_25_1256,60.0154187015,FEMA4ImagesEEG,001,201201,
AFNE01.JPG,AFNE01.JPG,AFNE01.JPG,AFNE01.JPG,AFNE01.JPG,AFNE01.JPG,2,5,25,5,,,,,,,,,,,,,,,,,,,,,,,AFSA07.jpg,AFNE19.jpg,AFNE12.jpg,AFSA08.jpg,AFNE12.jpg,FN,3,num_2,16,num_2,0.750469482439,,,2017_Aug_25_1256,60.0154187015,FEMA4ImagesEEG,001,201201,
AFNE01.JPG,AFNE01.JPG,AFNE01.JPG,AFNE01.JPG,AFNE01.JPG,AFNE01.JPG,2,6,26,9,,,,,,,,,,,,,,,,,,,,,,,AFNE17.jpg,AFSA17.jpg,AFSA02.jpg,AFNE02.jpg,AFSA17.jpg,FS,4,num_6,16,num_6,0.850119716017,,,2017_Aug_25_1256,60.0154187015,FEMA4ImagesEEG,001,201201,
AFNE01.JPG,AFNE01.JPG,AFNE01.JPG,AFNE01.JPG,AFNE01.JPG,AFNE01.JPG,2,7,27,8,,,,,,,,,,,,,,,,,,,,,,,AFSA14.jpg,AFNE06.jpg,AFNE14.jpg,AFSA08.jpg,AFSA14.jpg,FS,4,num_8,32,num_6,1.11676072352,,,2017_Aug_25_1256,60.0154187015,FEMA4ImagesEEG,001,201201,
AFNE01.JPG,AFNE01.JPG,AFNE01.JPG,AFNE01.JPG,AFNE01.JPG,AFNE01.JPG,2,8,28,4,,,,,,,,,,,,,,,,,,,,,,,AFSA04.jpg,AFSA06.jpg,AFNE13.jpg,AFNE04.jpg,AFSA06.jpg,FS,4,num_6,16,num_6,1.13341640486,,,2017_Aug_25_1256,60.0154187015,FEMA4ImagesEEG,001,201201,
AFNE01.JPG,AFNE01.JPG,AFNE01.JPG,AFNE01.JPG,AFNE01.JPG,AFNE01.JPG,2,9,29,1,,,,,,,,,,,,,,,,,,,,,,,AFSA07.jpg,AFNE15.jpg,AFNE12.jpg,AFSA04.jpg,AFSA07.jpg,FS,4,num_8,16,num_8,1.1334029338,,,2017_Aug_25_1256,60.0154187015,FEMA4ImagesEEG,001,201201,
AFNE01.JPG,AFNE01.JPG,AFNE01.JPG,AFNE01.JPG,AFNE01.JPG,AFNE01.JPG,3,0,30,4,,,,,,,,,,,,,,,,,,,,,,,AFNE12.jpg,AFNE08.jpg,AFSA13.jpg,AFSA15.jpg,AFNE12.jpg,FN,3,num_8,16,num_8,0.550144252588,,,2017_Aug_25_1256,60.0154187015,FEMA4ImagesEEG,001,201201,
AFNE01.JPG,AFNE01.JPG,AFNE01.JPG,AFNE01.JPG,AFNE01.JPG,AFNE01.JPG,3,1,31,0,,,,,,,,,,,,,,,,,,,,,,,AFSA08.jpg,AFNE08.jpg,AFSA20.jpg,AFNE07.jpg,AFSA20.jpg,FS,4,num_2,16,num_2,1.23339250977,,,2017_Aug_25_1256,60.0154187015,FEMA4ImagesEEG,001,201201,
AFNE01.JPG,AFNE01.JPG,AFNE01.JPG,AFNE01.JPG,AFNE01.JPG,AFNE01.JPG,3,2,32,2,,,,,,,,,,,,,,,,,,,,,,,AFSA11.jpg,AFSA16.jpg,AFNE04.jpg,AFNE08.jpg,AFSA16.jpg,FS,4,num_6,16,num_6,0.900100551832,,,2017_Aug_25_1256,60.0154187015,FEMA4ImagesEEG,001,201201,
AFNE01.JPG,AFNE01.JPG,AFNE01.JPG,AFNE01.JPG,AFNE01.JPG,AFNE01.JPG,3,3,33,8,,,,,,,,,,,,,,,,,,,,,,,AFSA06.jpg,AFNE09.jpg,AFSA01.jpg,AFNE02.jpg,AFNE02.jpg,FN,3,num_4,32,num_8,1.36678389695,,,2017_Aug_25_1256,60.0154187015,FEMA4ImagesEEG,001,201201,
AFNE01.JPG,AFNE01.JPG,AFNE01.JPG,AFNE01.JPG,AFNE01.JPG,AFNE01.JPG,3,4,34,9,,,,,,,,,,,,,,,,,,,,,,,AFSA08.jpg,AFSA06.jpg,AFNE01.jpg,AFNE10.jpg,AFSA08.jpg,FS,4,num_8,32,num_6,1.28342081503,,,2017_Aug_25_1256,60.0154187015,FEMA4ImagesEEG,001,201201,
AFNE01.JPG,AFNE01.JPG,AFNE01.JPG,AFNE01.JPG,AFNE01.JPG,AFNE01.JPG,3,5,35,3,,,,,,,,,,,,,,,,,,,,,,,AFSA02.jpg,AFNE10.jpg,AFNE12.jpg,AFSA06.jpg,AFSA06.jpg,FS,4,num_4,16,num_4,1.16674572895,,,2017_Aug_25_1256,60.0154187015,FEMA4ImagesEEG,001,201201,
AFNE01.JPG,AFNE01.JPG,AFNE01.JPG,AFNE01.JPG,AFNE01.JPG,AFNE01.JPG,3,6,36,1,,,,,,,,,,,,,,,,,,,,,,,AFSA16.jpg,AFSA01.jpg,AFNE01.jpg,AFNE14.jpg,AFSA16.jpg,FS,4,num_8,32,num_6,1.43334536106,,,2017_Aug_25_1256,60.0154187015,FEMA4ImagesEEG,001,201201,
AFNE01.JPG,AFNE01.JPG,AFNE01.JPG,AFNE01.JPG,AFNE01.JPG,AFNE01.JPG,3,7,37,6,,,,,,,,,,,,,,,,,,,,,,,AFSA11.jpg,AFNE11.jpg,AFSA14.jpg,AFNE16.jpg,AFNE16.jpg,FN,3,num_4,32,num_8,0.383507254326,,,2017_Aug_25_1256,60.0154187015,FEMA4ImagesEEG,001,201201,
AFNE01.JPG,AFNE01.JPG,AFNE01.JPG,AFNE01.JPG,AFNE01.JPG,AFNE01.JPG,3,8,38,5,,,,,,,,,,,,,,,,,,,,,,,AFSA20.jpg,AFSA16.jpg,AFNE16.jpg,AFNE03.jpg,AFNE16.jpg,FN,3,num_2,32,num_8,1.00006863825,,,2017_Aug_25_1256,60.0154187015,FEMA4ImagesEEG,001,201201,
AFNE01.JPG,AFNE01.JPG,AFNE01.JPG,AFNE01.JPG,AFNE01.JPG,AFNE01.JPG,3,9,39,7,,,,,,,,,,,,,,,,,,,,,,,AFSA16.jpg,AFSA06.jpg,AFNE14.jpg,AFNE06.jpg,AFSA16.jpg,FS,4,num_8,32,num_6,0.783538045317,,,2017_Aug_25_1256,60.0154187015,FEMA4ImagesEEG,001,201201,
AFNE01.JPG,AFNE01.JPG,AFNE01.JPG,AFNE01.JPG,AFNE01.JPG,AFNE01.JPG,4,0,40,8,,,,,,,,,,,,,,,,,,,,,,,AFNE07.jpg,AFSA01.jpg,AFSA07.jpg,AFNE04.jpg,AFSA07.jpg,FS,4,num_2,32,num_6,2.6166399651,,,2017_Aug_25_1256,60.0154187015,FEMA4ImagesEEG,001,201201,
AFNE01.JPG,AFNE01.JPG,AFNE01.JPG,AFNE01.JPG,AFNE01.JPG,AFNE01.JPG,4,1,41,5,,,,,,,,,,,,,,,,,,,,,,,AFSA12.jpg,AFNE19.jpg,AFSA04.jpg,AFNE16.jpg,AFNE16.jpg,FN,3,num_4,32,num_2,0.949954695547,,,2017_Aug_25_1256,60.0154187015,FEMA4ImagesEEG,001,201201,
AFNE01.JPG,AFNE01.JPG,AFNE01.JPG,AFNE01.JPG,AFNE01.JPG,AFNE01.JPG,4,2,42,1,,,,,,,,,,,,,,,,,,,,,,,AFSA20.jpg,AFNE04.jpg,AFNE15.jpg,AFSA19.jpg,AFSA20.jpg,FS,4,num_8,16,num_8,0.566771067373,,,2017_Aug_25_1256,60.0154187015,FEMA4ImagesEEG,001,201201,
AFNE01.JPG,AFNE01.JPG,AFNE01.JPG,AFNE01.JPG,AFNE01.JPG,AFNE01.JPG,4,3,43,2,,,,,,,,,,,,,,,,,,,,,,,AFNE12.jpg,AFNE10.jpg,AFSA02.jpg,AFSA13.jpg,AFNE10.jpg,FN,3,num_6,32,num_4,1.25011330123,,,2017_Aug_25_1256,60.0154187015,FEMA4ImagesEEG,001,201201,
AFNE01.JPG,AFNE01.JPG,AFNE01.JPG,AFNE01.JPG,AFNE01.JPG,AFNE01.JPG,4,4,44,4,,,,,,,,,,,,,,,,,,,,,,,AFSA02.jpg,AFNE15.jpg,AFNE03.jpg,AFSA06.jpg,AFNE15.jpg,FN,3,num_6,16,num_6,0.749889264689,,,2017_Aug_25_1256,60.0154187015,FEMA4ImagesEEG,001,201201,
AFNE01.JPG,AFNE01.JPG,AFNE01.JPG,AFNE01.JPG,AFNE01.JPG,AFNE01.JPG,4,5,45,3,,,,,,,,,,,,,,,,,,,,,,,AFNE14.jpg,AFNE12.jpg,AFSA11.jpg,AFSA10.jpg,AFSA11.jpg,FS,4,num_2,16,num_2,0.516820060331,,,2017_Aug_25_1256,60.0154187015,FEMA4ImagesEEG,001,201201,
AFNE01.JPG,AFNE01.JPG,AFNE01.JPG,AFNE01.JPG,AFNE01.JPG,AFNE01.JPG,4,6,46,7,,,,,,,,,,,,,,,,,,,,,,,AFSA07.jpg,AFNE08.jpg,AFNE13.jpg,AFSA02.jpg,AFSA02.jpg,FS,4,num_4,32,num_8,0.850116187883,,,2017_Aug_25_1256,60.0154187015,FEMA4ImagesEEG,001,201201,
AFNE01.JPG,AFNE01.JPG,AFNE01.JPG,AFNE01.JPG,AFNE01.JPG,AFNE01.JPG,4,7,47,9,,,,,,,,,,,,,,,,,,,,,,,AFNE01.jpg,AFNE07.jpg,AFSA14.jpg,AFSA10.jpg,AFSA10.jpg,FS,4,num_4,48,None,,,,2017_Aug_25_1256,60.0154187015,FEMA4ImagesEEG,001,201201,
AFNE01.JPG,AFNE01.JPG,AFNE01.JPG,AFNE01.JPG,AFNE01.JPG,AFNE01.JPG,4,8,48,6,,,,,,,,,,,,,,,,,,,,,,,AFNE05.jpg,AFSA19.jpg,AFNE10.jpg,AFSA14.jpg,AFNE05.jpg,FN,3,num_8,16,num_8,0.799983321546,,,2017_Aug_25_1256,60.0154187015,FEMA4ImagesEEG,001,201201,
AFNE01.JPG,AFNE01.JPG,AFNE01.JPG,AFNE01.JPG,AFNE01.JPG,AFNE01.JPG,4,9,49,0,,,,,,,,,,,,,,,,,,,,,,,AFNE11.jpg,AFNE14.jpg,AFSA14.jpg,AFSA03.jpg,AFNE14.jpg,FN,3,num_6,16,num_6,0.783428673149,,,2017_Aug_25_1256,60.0154187015,FEMA4ImagesEEG,001,201201,
AFNE01.JPG,AFNE01.JPG,AFNE01.JPG,AFNE01.JPG,AFNE01.JPG,AFNE01.JPG,5,0,50,7,,,,,,,,,,,,,,,,,,,,,,,AFNE05.jpg,AFSA03.jpg,AFSA15.jpg,AFNE13.jpg,AFSA03.jpg,FS,4,num_6,16,num_6,0.983438295334,,,2017_Aug_25_1256,60.0154187015,FEMA4ImagesEEG,001,201201,
AFNE01.JPG,AFNE01.JPG,AFNE01.JPG,AFNE01.JPG,AFNE01.JPG,AFNE01.JPG,5,1,51,1,,,,,,,,,,,,,,,,,,,,,,,AFNE09.jpg,AFSA17.jpg,AFSA16.jpg,AFNE18.jpg,AFSA16.jpg,FS,4,num_2,32,num_4,1.31672512144,,,2017_Aug_25_1256,60.0154187015,FEMA4ImagesEEG,001,201201,
AFNE01.JPG,AFNE01.JPG,AFNE01.JPG,AFNE01.JPG,AFNE01.JPG,AFNE01.JPG,5,2,52,3,,,,,,,,,,,,,,,,,,,,,,,AFNE19.jpg,AFNE07.jpg,AFSA14.jpg,AFSA11.jpg,AFNE07.jpg,FN,3,num_6,16,num_6,0.733438856629,,,2017_Aug_25_1256,60.0154187015,FEMA4ImagesEEG,001,201201,
AFNE01.JPG,AFNE01.JPG,AFNE01.JPG,AFNE01.JPG,AFNE01.JPG,AFNE01.JPG,5,3,53,8,,,,,,,,,,,,,,,,,,,,,,,AFNE11.jpg,AFNE14.jpg,AFSA02.jpg,AFSA19.jpg,AFNE14.jpg,FN,3,num_6,16,num_6,1.73338785905,,,2017_Aug_25_1256,60.0154187015,FEMA4ImagesEEG,001,201201,
AFNE01.JPG,AFNE01.JPG,AFNE01.JPG,AFNE01.JPG,AFNE01.JPG,AFNE01.JPG,5,4,54,2,,,,,,,,,,,,,,,,,,,,,,,AFNE01.jpg,AFNE09.jpg,AFSA16.jpg,AFSA07.jpg,AFNE01.jpg,FN,3,num_8,32,num_4,0.716632106985,,,2017_Aug_25_1256,60.0154187015,FEMA4ImagesEEG,001,201201,
AFNE01.JPG,AFNE01.JPG,AFNE01.JPG,AFNE01.JPG,AFNE01.JPG,AFNE01.JPG,5,5,55,5,,,,,,,,,,,,,,,,,,,,,,,AFNE04.jpg,AFNE09.jpg,AFSA03.jpg,AFSA08.jpg,AFNE09.jpg,FN,3,num_6,32,num_8,0.666764812952,,,2017_Aug_25_1256,60.0154187015,FEMA4ImagesEEG,001,201201,
AFNE01.JPG,AFNE01.JPG,AFNE01.JPG,AFNE01.JPG,AFNE01.JPG,AFNE01.JPG,5,6,56,6,,,,,,,,,,,,,,,,,,,,,,,AFNE06.jpg,AFSA06.jpg,AFNE14.jpg,AFSA19.jpg,AFSA06.jpg,FS,4,num_6,16,num_6,0.533483760158,,,2017_Aug_25_1256,60.0154187015,FEMA4ImagesEEG,001,201201,
AFNE01.JPG,AFNE01.JPG,AFNE01.JPG,AFNE01.JPG,AFNE01.JPG,AFNE01.JPG,5,7,57,9,,,,,,,,,,,,,,,,,,,,,,,AFSA13.jpg,AFNE08.jpg,AFNE06.jpg,AFSA14.jpg,AFNE08.jpg,FN,3,num_6,32,num_4,0.566769142936,,,2017_Aug_25_1256,60.0154187015,FEMA4ImagesEEG,001,201201,
AFNE01.JPG,AFNE01.JPG,AFNE01.JPG,AFNE01.JPG,AFNE01.JPG,AFNE01.JPG,5,8,58,4,,,,,,,,,,,,,,,,,,,,,,,AFSA12.jpg,AFNE06.jpg,AFSA07.jpg,AFNE03.jpg,AFSA12.jpg,FS,4,num_8,32,num_4,1.11654486584,,,2017_Aug_25_1256,60.0154187015,FEMA4ImagesEEG,001,201201,
AFNE01.JPG,AFNE01.JPG,AFNE01.JPG,AFNE01.JPG,AFNE01.JPG,AFNE01.JPG,5,9,59,0,,,,,,,,,,,,,,,,,,,,,,,AFSA18.jpg,AFNE13.jpg,AFSA08.jpg,AFNE06.jpg,AFSA08.jpg,FS,4,num_2,32,num_4,1.35010640533,,,2017_Aug_25_1256,60.0154187015,FEMA4ImagesEEG,001,201201,
,,,,,,,,,,,,,,,,,,,,,,,,,,,,,,,,,,,,,,,,,,,space,4.73304402631,2017_Aug_25_1256,60.0154187015,FEMA4ImagesEEG,001,201201,
AFNE01.JPG,AFNE01.JPG,AFNE01.JPG,AFNE01.JPG,AFNE01.JPG,AFNE01.JPG,,,,,0,0,0,4,,,,,,,,,,,,,,,,,,,AMSA17.jpg,AMNE08.jpg,AMNE04.jpg,AMSA12.jpg,AMNE04.jpg,MN,1,num_2,16,num_2,1.65006454882,,,2017_Aug_25_1256,60.0154187015,FEMA4ImagesEEG,001,201201,
AFNE01.JPG,AFNE01.JPG,AFNE01.JPG,AFNE01.JPG,AFNE01.JPG,AFNE01.JPG,,,,,0,1,1,8,,,,,,,,,,,,,,,,,,,AMSA20.jpg,AMSA03.jpg,AMNE01.jpg,AMNE05.jpg,AMNE01.jpg,MN,1,num_2,16,num_2,0.433521447048,,,2017_Aug_25_1256,60.0154187015,FEMA4ImagesEEG,001,201201,
AFNE01.JPG,AFNE01.JPG,AFNE01.JPG,AFNE01.JPG,AFNE01.JPG,AFNE01.JPG,,,,,0,2,2,7,,,,,,,,,,,,,,,,,,,AMSA20.jpg,AMNE02.jpg,AMSA16.jpg,AMNE19.jpg,AMNE02.jpg,MN,1,num_6,16,num_6,0.650100150908,,,2017_Aug_25_1256,60.0154187015,FEMA4ImagesEEG,001,201201,
AFNE01.JPG,AFNE01.JPG,AFNE01.JPG,AFNE01.JPG,AFNE01.JPG,AFNE01.JPG,,,,,0,3,3,3,,,,,,,,,,,,,,,,,,,AMSA05.jpg,AMSA12.jpg,AMNE03.jpg,AMNE05.jpg,AMNE03.jpg,MN,1,num_2,16,num_2,0.766609093926,,,2017_Aug_25_1256,60.0154187015,FEMA4ImagesEEG,001,201201,
AFNE01.JPG,AFNE01.JPG,AFNE01.JPG,AFNE01.JPG,AFNE01.JPG,AFNE01.JPG,,,,,0,4,4,1,,,,,,,,,,,,,,,,,,,AMSA19.jpg,AMSA18.jpg,AMNE03.jpg,AMNE05.jpg,AMNE03.jpg,MN,1,num_2,16,num_2,1.28342241873,,,2017_Aug_25_1256,60.0154187015,FEMA4ImagesEEG,001,201201,
AFNE01.JPG,AFNE01.JPG,AFNE01.JPG,AFNE01.JPG,AFNE01.JPG,AFNE01.JPG,,,,,0,5,5,5,,,,,,,,,,,,,,,,,,,AMNE14.jpg,AMNE13.jpg,AMSA01.jpg,AMSA10.jpg,AMNE13.jpg,MN,1,num_6,16,num_6,4.39988517526,,,2017_Aug_25_1256,60.0154187015,FEMA4ImagesEEG,001,201201,
AFNE01.JPG,AFNE01.JPG,AFNE01.JPG,AFNE01.JPG,AFNE01.JPG,AFNE01.JPG,,,,,0,6,6,0,,,,,,,,,,,,,,,,,,,AMNE12.jpg,AMNE04.jpg,AMSA19.jpg,AMSA15.jpg,AMSA19.jpg,MS,2,num_2,32,num_8,1.53338721757,,,2017_Aug_25_1256,60.0154187015,FEMA4ImagesEEG,001,201201,
AFNE01.JPG,AFNE01.JPG,AFNE01.JPG,AFNE01.JPG,AFNE01.JPG,AFNE01.JPG,,,,,0,7,7,6,,,,,,,,,,,,,,,,,,,AMNE13.jpg,AMSA11.jpg,AMNE02.jpg,AMSA18.jpg,AMSA11.jpg,MS,2,num_6,32,num_4,0.866757756684,,,2017_Aug_25_1256,60.0154187015,FEMA4ImagesEEG,001,201201,
AFNE01.JPG,AFNE01.JPG,AFNE01.JPG,AFNE01.JPG,AFNE01.JPG,AFNE01.JPG,,,,,0,8,8,2,,,,,,,,,,,,,,,,,,,AMNE15.jpg,AMNE11.jpg,AMSA02.jpg,AMSA19.jpg,AMNE11.jpg,MN,1,num_6,32,num_4,1.1167661761,,,2017_Aug_25_1256,60.0154187015,FEMA4ImagesEEG,001,201201,
AFNE01.JPG,AFNE01.JPG,AFNE01.JPG,AFNE01.JPG,AFNE01.JPG,AFNE01.JPG,,,,,0,9,9,9,,,,,,,,,,,,,,,,,,,AMSA05.jpg,AMSA18.jpg,AMNE07.jpg,AMNE12.jpg,AMSA18.jpg,MS,2,num_6,32,num_8,0.983437974594,,,2017_Aug_25_1256,60.0154187015,FEMA4ImagesEEG,001,201201,
AFNE01.JPG,AFNE01.JPG,AFNE01.JPG,AFNE01.JPG,AFNE01.JPG,AFNE01.JPG,,,,,1,0,10,4,,,,,,,,,,,,,,,,,,,AMSA12.jpg,AMNE02.jpg,AMNE11.jpg,AMSA18.jpg,AMNE11.jpg,MN,1,num_2,32,num_6,1.65010592422,,,2017_Aug_25_1256,60.0154187015,FEMA4ImagesEEG,001,201201,
AFNE01.JPG,AFNE01.JPG,AFNE01.JPG,AFNE01.JPG,AFNE01.JPG,AFNE01.JPG,,,,,1,1,11,1,,,,,,,,,,,,,,,,,,,AMNE07.jpg,AMSA17.jpg,AMSA05.jpg,AMNE06.jpg,AMSA17.jpg,MS,2,num_6,32,num_8,1.33345072399,,,2017_Aug_25_1256,60.0154187015,FEMA4ImagesEEG,001,201201,
AFNE01.JPG,AFNE01.JPG,AFNE01.JPG,AFNE01.JPG,AFNE01.JPG,AFNE01.JPG,,,,,1,2,12,5,,,,,,,,,,,,,,,,,,,AMSA18.jpg,AMSA15.jpg,AMNE08.jpg,AMNE12.jpg,AMSA15.jpg,MS,2,num_6,32,num_4,4.93311170234,,,2017_Aug_25_1256,60.0154187015,FEMA4ImagesEEG,001,201201,
AFNE01.JPG,AFNE01.JPG,AFNE01.JPG,AFNE01.JPG,AFNE01.JPG,AFNE01.JPG,,,,,1,3,13,7,,,,,,,,,,,,,,,,,,,AMNE01.jpg,AMSA02.jpg,AMSA17.jpg,AMNE08.jpg,AMNE08.jpg,MN,1,num_4,16,num_4,2.63332996557,,,2017_Aug_25_1256,60.0154187015,FEMA4ImagesEEG,001,201201,
AFNE01.JPG,AFNE01.JPG,AFNE01.JPG,AFNE01.JPG,AFNE01.JPG,AFNE01.JPG,,,,,1,4,14,6,,,,,,,,,,,,,,,,,,,AMSA19.jpg,AMNE13.jpg,AMSA04.jpg,AMNE08.jpg,AMNE13.jpg,MN,1,num_6,32,num_4,0.666814206836,,,2017_Aug_25_1256,60.0154187015,FEMA4ImagesEEG,001,201201,
AFNE01.JPG,AFNE01.JPG,AFNE01.JPG,AFNE01.JPG,AFNE01.JPG,AFNE01.JPG,,,,,1,5,15,3,,,,,,,,,,,,,,,,,,,AMSA04.jpg,AMNE04.jpg,AMNE03.jpg,AMSA05.jpg,AMNE04.jpg,MN,1,num_6,32,num_4,1.41675254467,,,2017_Aug_25_1256,60.0154187015,FEMA4ImagesEEG,001,201201,
AFNE01.JPG,AFNE01.JPG,AFNE01.JPG,AFNE01.JPG,AFNE01.JPG,AFNE01.JPG,,,,,1,6,16,9,,,,,,,,,,,,,,,,,,,AMSA07.jpg,AMNE20.jpg,AMSA17.jpg,AMNE04.jpg,AMNE04.jpg,MN,1,num_4,32,num_8,0.700110174018,,,2017_Aug_25_1256,60.0154187015,FEMA4ImagesEEG,001,201201,
AFNE01.JPG,AFNE01.JPG,AFNE01.JPG,AFNE01.JPG,AFNE01.JPG,AFNE01.JPG,,,,,1,7,17,0,,,,,,,,,,,,,,,,,,,AMNE19.jpg,AMSA19.jpg,AMSA06.jpg,AMNE12.jpg,AMNE12.jpg,MN,1,num_4,32,num_6,0.666791755071,,,2017_Aug_25_1256,60.0154187015,FEMA4ImagesEEG,001,201201,
AFNE01.JPG,AFNE01.JPG,AFNE01.JPG,AFNE01.JPG,AFNE01.JPG,AFNE01.JPG,,,,,1,8,18,8,,,,,,,,,,,,,,,,,,,AMSA04.jpg,AMNE09.jpg,AMNE12.jpg,AMSA12.jpg,AMNE12.jpg,MN,1,num_2,32,num_4,1.58336837412,,,2017_Aug_25_1256,60.0154187015,FEMA4ImagesEEG,001,201201,
AFNE01.JPG,AFNE01.JPG,AFNE01.JPG,AFNE01.JPG,AFNE01.JPG,AFNE01.JPG,,,,,1,9,19,2,,,,,,,,,,,,,,,,,,,AMNE11.jpg,AMSA12.jpg,AMNE09.jpg,AMSA14.jpg,AMNE11.jpg,MN,1,num_8,32,num_4,1.45008379319,,,2017_Aug_25_1256,60.0154187015,FEMA4ImagesEEG,001,201201,
AFNE01.JPG,AFNE01.JPG,AFNE01.JPG,AFNE01.JPG,AFNE01.JPG,AFNE01.JPG,,,,,2,0,20,1,,,,,,,,,,,,,,,,,,,AMNE02.jpg,AMSA19.jpg,AMSA14.jpg,AMNE15.jpg,AMNE15.jpg,MN,1,num_4,16,num_4,0.366805386499,,,2017_Aug_25_1256,60.0154187015,FEMA4ImagesEEG,001,201201,
AFNE01.JPG,AFNE01.JPG,AFNE01.JPG,AFNE01.JPG,AFNE01.JPG,AFNE01.JPG,,,,,2,1,21,7,,,,,,,,,,,,,,,,,,,AMSA09.jpg,AMSA20.jpg,AMNE16.jpg,AMNE20.jpg,AMNE16.jpg,MN,1,num_2,32,num_4,4.38304827611,,,2017_Aug_25_1256,60.0154187015,FEMA4ImagesEEG,001,201201,
AFNE01.JPG,AFNE01.JPG,AFNE01.JPG,AFNE01.JPG,AFNE01.JPG,AFNE01.JPG,,,,,2,2,22,2,,,,,,,,,,,,,,,,,,,AMSA08.jpg,AMSA07.jpg,AMNE04.jpg,AMNE05.jpg,AMSA07.jpg,MS,2,num_6,16,num_6,2.00003175321,,,2017_Aug_25_1256,60.0154187015,FEMA4ImagesEEG,001,201201,
AFNE01.JPG,AFNE01.JPG,AFNE01.JPG,AFNE01.JPG,AFNE01.JPG,AFNE01.JPG,,,,,2,3,23,4,,,,,,,,,,,,,,,,,,,AMSA03.jpg,AMSA06.jpg,AMNE07.jpg,AMNE05.jpg,AMNE05.jpg,MN,1,num_4,32,num_6,2.15002461676,,,2017_Aug_25_1256,60.0154187015,FEMA4ImagesEEG,001,201201,
AFNE01.JPG,AFNE01.JPG,AFNE01.JPG,AFNE01.JPG,AFNE01.JPG,AFNE01.JPG,,,,,2,4,24,3,,,,,,,,,,,,,,,,,,,AMNE19.jpg,AMSA10.jpg,AMNE03.jpg,AMSA03.jpg,AMSA10.jpg,MS,2,num_6,32,num_8,2.79993392766,,,2017_Aug_25_1256,60.0154187015,FEMA4ImagesEEG,001,201201,
AFNE01.JPG,AFNE01.JPG,AFNE01.JPG,AFNE01.JPG,AFNE01.JPG,AFNE01.JPG,,,,,2,5,25,9,,,,,,,,,,,,,,,,,,,AMNE18.jpg,AMSA06.jpg,AMSA02.jpg,AMNE20.jpg,AMNE20.jpg,MN,1,num_4,32,num_8,1.70006110087,,,2017_Aug_25_1256,60.0154187015,FEMA4ImagesEEG,001,201201,
AFNE01.JPG,AFNE01.JPG,AFNE01.JPG,AFNE01.JPG,AFNE01.JPG,AFNE01.JPG,,,,,2,6,26,5,,,,,,,,,,,,,,,,,,,AMNE07.jpg,AMSA12.jpg,AMSA09.jpg,AMNE20.jpg,AMNE07.jpg,MN,1,num_8,32,num_4,1.46676705813,,,2017_Aug_25_1256,60.0154187015,FEMA4ImagesEEG,001,201201,
AFNE01.JPG,AFNE01.JPG,AFNE01.JPG,AFNE01.JPG,AFNE01.JPG,AFNE01.JPG,,,,,2,7,27,8,,,,,,,,,,,,,,,,,,,AMNE19.jpg,AMNE18.jpg,AMSA02.jpg,AMSA09.jpg,AMSA02.jpg,MS,2,num_2,32,num_8,0.816772430516,,,2017_Aug_25_1256,60.0154187015,FEMA4ImagesEEG,001,201201,
AFNE01.JPG,AFNE01.JPG,AFNE01.JPG,AFNE01.JPG,AFNE01.JPG,AFNE01.JPG,,,,,2,8,28,6,,,,,,,,,,,,,,,,,,,AMSA04.jpg,AMNE20.jpg,AMNE14.jpg,AMSA15.jpg,AMNE14.jpg,MN,1,num_2,32,num_8,0.600216819899,,,2017_Aug_25_1256,60.0154187015,FEMA4ImagesEEG,001,201201,
AFNE01.JPG,AFNE01.JPG,AFNE01.JPG,AFNE01.JPG,AFNE01.JPG,AFNE01.JPG,,,,,2,9,29,0,,,,,,,,,,,,,,,,,,,AMNE01.jpg,AMSA12.jpg,AMNE11.jpg,AMSA16.jpg,AMSA16.jpg,MS,2,num_4,32,num_8,0.550208400488,,,2017_Aug_25_1256,60.0154187015,FEMA4ImagesEEG,001,201201,
AFNE01.JPG,AFNE01.JPG,AFNE01.JPG,AFNE01.JPG,AFNE01.JPG,AFNE01.JPG,,,,,3,0,30,3,,,,,,,,,,,,,,,,,,,AMNE10.jpg,AMSA14.jpg,AMNE16.jpg,AMSA20.jpg,AMSA14.jpg,MS,2,num_6,16,num_6,0.716764893138,,,2017_Aug_25_1256,60.0154187015,FEMA4ImagesEEG,001,201201,
AFNE01.JPG,AFNE01.JPG,AFNE01.JPG,AFNE01.JPG,AFNE01.JPG,AFNE01.JPG,,,,,3,1,31,5,,,,,,,,,,,,,,,,,,,AMNE01.jpg,AMSA20.jpg,AMNE05.jpg,AMSA15.jpg,AMSA20.jpg,MS,2,num_6,16,num_6,0.900090288168,,,2017_Aug_25_1256,60.0154187015,FEMA4ImagesEEG,001,201201,
AFNE01.JPG,AFNE01.JPG,AFNE01.JPG,AFNE01.JPG,AFNE01.JPG,AFNE01.JPG,,,,,3,2,32,1,,,,,,,,,,,,,,,,,,,AMSA05.jpg,AMNE07.jpg,AMSA16.jpg,AMNE16.jpg,AMNE07.jpg,MN,1,num_6,32,num_4,0.866764171474,,,2017_Aug_25_1256,60.0154187015,FEMA4ImagesEEG,001,201201,
AFNE01.JPG,AFNE01.JPG,AFNE01.JPG,AFNE01.JPG,AFNE01.JPG,AFNE01.JPG,,,,,3,3,33,4,,,,,,,,,,,,,,,,,,,AMSA04.jpg,AMNE03.jpg,AMSA08.jpg,AMNE15.jpg,AMNE15.jpg,MN,1,num_4,32,num_6,0.766771708852,,,2017_Aug_25_1256,60.0154187015,FEMA4ImagesEEG,001,201201,
AFNE01.JPG,AFNE01.JPG,AFNE01.JPG,AFNE01.JPG,AFNE01.JPG,AFNE01.JPG,,,,,3,4,34,0,,,,,,,,,,,,,,,,,,,AMNE11.jpg,AMNE12.jpg,AMSA18.jpg,AMSA10.jpg,AMNE11.jpg,MN,1,num_8,32,num_6,0.716503811187,,,2017_Aug_25_1256,60.0154187015,FEMA4ImagesEEG,001,201201,
AFNE01.JPG,AFNE01.JPG,AFNE01.JPG,AFNE01.JPG,AFNE01.JPG,AFNE01.JPG,,,,,3,5,35,2,,,,,,,,,,,,,,,,,,,AMNE19.jpg,AMNE07.jpg,AMSA01.jpg,AMSA14.jpg,AMSA14.jpg,MS,2,num_4,32,num_2,1.4833759115,,,2017_Aug_25_1256,60.0154187015,FEMA4ImagesEEG,001,201201,
AFNE01.JPG,AFNE01.JPG,AFNE01.JPG,AFNE01.JPG,AFNE01.JPG,AFNE01.JPG,,,,,3,6,36,9,,,,,,,,,,,,,,,,,,,AMSA13.jpg,AMNE16.jpg,AMSA18.jpg,AMNE12.jpg,AMSA18.jpg,MS,2,num_2,16,num_2,0.483474057787,,,2017_Aug_25_1256,60.0154187015,FEMA4ImagesEEG,001,201201,
AFNE01.JPG,AFNE01.JPG,AFNE01.JPG,AFNE01.JPG,AFNE01.JPG,AFNE01.JPG,,,,,3,7,37,7,,,,,,,,,,,,,,,,,,,AMSA15.jpg,AMNE18.jpg,AMNE04.jpg,AMSA10.jpg,AMNE18.jpg,MN,1,num_6,16,num_6,0.883441983838,,,2017_Aug_25_1256,60.0154187015,FEMA4ImagesEEG,001,201201,
AFNE01.JPG,AFNE01.JPG,AFNE01.JPG,AFNE01.JPG,AFNE01.JPG,AFNE01.JPG,,,,,3,8,38,6,,,,,,,,,,,,,,,,,,,AMSA18.jpg,AMNE13.jpg,AMNE06.jpg,AMSA19.jpg,AMNE06.jpg,MN,1,num_2,32,num_4,3.09992286215,,,2017_Aug_25_1256,60.0154187015,FEMA4ImagesEEG,001,201201,
AFNE01.JPG,AFNE01.JPG,AFNE01.JPG,AFNE01.JPG,AFNE01.JPG,AFNE01.JPG,,,,,3,9,39,8,,,,,,,,,,,,,,,,,,,AMSA13.jpg,AMNE09.jpg,AMNE02.jpg,AMSA15.jpg,AMNE02.jpg,MN,1,num_2,16,num_2,0.850134149295,,,2017_Aug_25_1256,60.0154187015,FEMA4ImagesEEG,001,201201,
AFNE01.JPG,AFNE01.JPG,AFNE01.JPG,AFNE01.JPG,AFNE01.JPG,AFNE01.JPG,,,,,4,0,40,4,,,,,,,,,,,,,,,,,,,AMNE05.jpg,AMSA01.jpg,AMSA17.jpg,AMNE02.jpg,AMNE05.jpg,MN,1,num_8,32,num_6,2.58334431866,,,2017_Aug_25_1256,60.0154187015,FEMA4ImagesEEG,001,201201,
AFNE01.JPG,AFNE01.JPG,AFNE01.JPG,AFNE01.JPG,AFNE01.JPG,AFNE01.JPG,,,,,4,1,41,0,,,,,,,,,,,,,,,,,,,AMNE08.jpg,AMNE03.jpg,AMSA18.jpg,AMSA20.jpg,AMNE08.jpg,MN,1,num_8,16,num_8,0.80008916558,,,2017_Aug_25_1256,60.0154187015,FEMA4ImagesEEG,001,201201,
AFNE01.JPG,AFNE01.JPG,AFNE01.JPG,AFNE01.JPG,AFNE01.JPG,AFNE01.JPG,,,,,4,2,42,1,,,,,,,,,,,,,,,,,,,AMSA09.jpg,AMSA01.jpg,AMNE17.jpg,AMNE06.jpg,AMSA09.jpg,MS,2,num_8,16,num_8,0.83346307246,,,2017_Aug_25_1256,60.0154187015,FEMA4ImagesEEG,001,201201,
AFNE01.JPG,AFNE01.JPG,AFNE01.JPG,AFNE01.JPG,AFNE01.JPG,AFNE01.JPG,,,,,4,3,43,2,,,,,,,,,,,,,,,,,,,AMSA02.jpg,AMNE17.jpg,AMNE10.jpg,AMSA12.jpg,AMSA12.jpg,MS,2,num_4,32,num_2,2.03337839723,,,2017_Aug_25_1256,60.0154187015,FEMA4ImagesEEG,001,201201,
AFNE01.JPG,AFNE01.JPG,AFNE01.JPG,AFNE01.JPG,AFNE01.JPG,AFNE01.JPG,,,,,4,4,44,6,,,,,,,,,,,,,,,,,,,AMSA16.jpg,AMNE20.jpg,AMNE04.jpg,AMSA01.jpg,AMSA01.jpg,MS,2,num_4,16,num_4,1.11648969865,,,2017_Aug_25_1256,60.0154187015,FEMA4ImagesEEG,001,201201,
AFNE01.JPG,AFNE01.JPG,AFNE01.JPG,AFNE01.JPG,AFNE01.JPG,AFNE01.JPG,,,,,4,5,45,8,,,,,,,,,,,,,,,,,,,AMSA02.jpg,AMNE03.jpg,AMNE05.jpg,AMSA01.jpg,AMSA02.jpg,MS,2,num_8,16,num_8,0.816816051087,,,2017_Aug_25_1256,60.0154187015,FEMA4ImagesEEG,001,201201,
AFNE01.JPG,AFNE01.JPG,AFNE01.JPG,AFNE01.JPG,AFNE01.JPG,AFNE01.JPG,,,,,4,6,46,5,,,,,,,,,,,,,,,,,,,AMNE13.jpg,AMNE04.jpg,AMSA10.jpg,AMSA08.jpg,AMSA08.jpg,MS,2,num_4,32,num_8,0.450290028691,,,2017_Aug_25_1256,60.0154187015,FEMA4ImagesEEG,001,201201,
AFNE01.JPG,AFNE01.JPG,AFNE01.JPG,AFNE01.JPG,AFNE01.JPG,AFNE01.JPG,,,,,4,7,47,7,,,,,,,,,,,,,,,,,,,AMSA08.jpg,AMNE05.jpg,AMSA05.jpg,AMNE15.jpg,AMSA05.jpg,MS,2,num_2,32,num_8,0.833473015384,,,2017_Aug_25_1256,60.0154187015,FEMA4ImagesEEG,001,201201,
AFNE01.JPG,AFNE01.JPG,AFNE01.JPG,AFNE01.JPG,AFNE01.JPG,AFNE01.JPG,,,,,4,8,48,3,,,,,,,,,,,,,,,,,,,AMNE11.jpg,AMSA20.jpg,AMSA06.jpg,AMNE05.jpg,AMNE05.jpg,MN,1,num_4,32,num_8,0.78348544404,,,2017_Aug_25_1256,60.0154187015,FEMA4ImagesEEG,001,201201,
AFNE01.JPG,AFNE01.JPG,AFNE01.JPG,AFNE01.JPG,AFNE01.JPG,AFNE01.JPG,,,,,4,9,49,9,,,,,,,,,,,,,,,,,,,AMNE14.jpg,AMSA15.jpg,AMNE01.jpg,AMSA07.jpg,AMSA15.jpg,MS,2,num_6,48,None,,,,2017_Aug_25_1256,60.0154187015,FEMA4ImagesEEG,001,201201,
AFNE01.JPG,AFNE01.JPG,AFNE01.JPG,AFNE01.JPG,AFNE01.JPG,AFNE01.JPG,,,,,5,0,50,4,,,,,,,,,,,,,,,,,,,AMNE18.jpg,AMSA18.jpg,AMSA15.jpg,AMNE03.jpg,AMSA18.jpg,MS,2,num_6,16,num_6,0.333576774611,,,2017_Aug_25_1256,60.0154187015,FEMA4ImagesEEG,001,201201,
AFNE01.JPG,AFNE01.JPG,AFNE01.JPG,AFNE01.JPG,AFNE01.JPG,AFNE01.JPG,,,,,5,1,51,3,,,,,,,,,,,,,,,,,,,AMNE11.jpg,AMNE10.jpg,AMSA19.jpg,AMSA10.jpg,AMSA10.jpg,MS,2,num_4,32,num_8,0.683560336713,,,2017_Aug_25_1256,60.0154187015,FEMA4ImagesEEG,001,201201,
AFNE01.JPG,AFNE01.JPG,AFNE01.JPG,AFNE01.JPG,AFNE01.JPG,AFNE01.JPG,,,,,5,2,52,7,,,,,,,,,,,,,,,,,,,AMNE18.jpg,AMSA19.jpg,AMSA13.jpg,AMNE20.jpg,AMSA13.jpg,MS,2,num_2,32,num_6,0.816770185339,,,2017_Aug_25_1256,60.0154187015,FEMA4ImagesEEG,001,201201,
AFNE01.JPG,AFNE01.JPG,AFNE01.JPG,AFNE01.JPG,AFNE01.JPG,AFNE01.JPG,,,,,5,3,53,2,,,,,,,,,,,,,,,,,,,AMNE15.jpg,AMSA16.jpg,AMNE09.jpg,AMSA09.jpg,AMNE15.jpg,MN,1,num_8,32,num_6,1.21676633647,,,2017_Aug_25_1256,60.0154187015,FEMA4ImagesEEG,001,201201,
AFNE01.JPG,AFNE01.JPG,AFNE01.JPG,AFNE01.JPG,AFNE01.JPG,AFNE01.JPG,,,,,5,4,54,9,,,,,,,,,,,,,,,,,,,AMSA11.jpg,AMNE07.jpg,AMSA18.jpg,AMNE15.jpg,AMSA11.jpg,MS,2,num_8,32,num_2,0.750084915781,,,2017_Aug_25_1256,60.0154187015,FEMA4ImagesEEG,001,201201,
AFNE01.JPG,AFNE01.JPG,AFNE01.JPG,AFNE01.JPG,AFNE01.JPG,AFNE01.JPG,,,,,5,5,55,6,,,,,,,,,,,,,,,,,,,AMNE03.jpg,AMSA01.jpg,AMNE20.jpg,AMSA08.jpg,AMSA01.jpg,MS,2,num_6,32,num_8,1.20009590111,,,2017_Aug_25_1256,60.0154187015,FEMA4ImagesEEG,001,201201,
AFNE01.JPG,AFNE01.JPG,AFNE01.JPG,AFNE01.JPG,AFNE01.JPG,AFNE01.JPG,,,,,5,6,56,5,,,,,,,,,,,,,,,,,,,AMSA02.jpg,AMSA10.jpg,AMNE08.jpg,AMNE17.jpg,AMNE17.jpg,MN,1,num_4,16,num_4,2.1001092118,,,2017_Aug_25_1256,60.0154187015,FEMA4ImagesEEG,001,201201,
AFNE01.JPG,AFNE01.JPG,AFNE01.JPG,AFNE01.JPG,AFNE01.JPG,AFNE01.JPG,,,,,5,7,57,1,,,,,,,,,,,,,,,,,,,AMNE10.jpg,AMSA07.jpg,AMNE05.jpg,AMSA09.jpg,AMSA09.jpg,MS,2,num_4,32,num_8,0.700090929648,,,2017_Aug_25_1256,60.0154187015,FEMA4ImagesEEG,001,201201,
AFNE01.JPG,AFNE01.JPG,AFNE01.JPG,AFNE01.JPG,AFNE01.JPG,AFNE01.JPG,,,,,5,8,58,8,,,,,,,,,,,,,,,,,,,AMSA10.jpg,AMNE06.jpg,AMNE11.jpg,AMSA12.jpg,AMSA10.jpg,MS,2,num_8,32,num_4,0.616775317171,,,2017_Aug_25_1256,60.0154187015,FEMA4ImagesEEG,001,201201,
AFNE01.JPG,AFNE01.JPG,AFNE01.JPG,AFNE01.JPG,AFNE01.JPG,AFNE01.JPG,,,,,5,9,59,0,,,,,,,,,,,,,,,,,,,AMSA01.jpg,AMSA02.jpg,AMNE17.jpg,AMNE19.jpg,AMSA02.jpg,MS,2,num_6,32,num_2,0.633453129535,,,2017_Aug_25_1256,60.0154187015,FEMA4ImagesEEG,001,201201,
,,,,,,,,,,,,,,,,,,,,,,,,,,,,,,,,,,,,,,,,,,,space,3.83321995192,2017_Aug_25_1256,60.0154187015,FEMA4ImagesEEG,001,201201,
AFNE01.JPG,AFNE01.JPG,AFNE01.JPG,AFNE01.JPG,AFNE01.JPG,AFNE01.JPG,,,,,,,,,0,0,0,5,,,,,,,,,,,,,,,AFSA08.jpg,AFNE14.jpg,AFSA20.jpg,AFNE05.jpg,AFSA20.jpg,FS,4,num_2,32,num_8,0.583464916712,,,2017_Aug_25_1256,60.0154187015,FEMA4ImagesEEG,001,201201,
AFNE01.JPG,AFNE01.JPG,AFNE01.JPG,AFNE01.JPG,AFNE01.JPG,AFNE01.JPG,,,,,,,,,0,1,1,4,,,,,,,,,,,,,,,AFNE17.jpg,AFNE06.jpg,AFSA16.jpg,AFSA14.jpg,AFNE17.jpg,FN,3,num_8,16,num_8,0.716732819188,,,2017_Aug_25_1256,60.0154187015,FEMA4ImagesEEG,001,201201,
AFNE01.JPG,AFNE01.JPG,AFNE01.JPG,AFNE01.JPG,AFNE01.JPG,AFNE01.JPG,,,,,,,,,0,2,2,1,,,,,,,,,,,,,,,AFSA18.jpg,AFNE06.jpg,AFNE02.jpg,AFSA12.jpg,AFSA18.jpg,FS,4,num_8,16,num_8,0.800219385816,,,2017_Aug_25_1256,60.0154187015,FEMA4ImagesEEG,001,201201,
AFNE01.JPG,AFNE01.JPG,AFNE01.JPG,AFNE01.JPG,AFNE01.JPG,AFNE01.JPG,,,,,,,,,0,3,3,9,,,,,,,,,,,,,,,AFNE18.jpg,AFSA13.jpg,AFSA12.jpg,AFNE17.jpg,AFNE17.jpg,FN,3,num_4,32,num_8,0.800113541782,,,2017_Aug_25_1256,60.0154187015,FEMA4ImagesEEG,001,201201,
AFNE01.JPG,AFNE01.JPG,AFNE01.JPG,AFNE01.JPG,AFNE01.JPG,AFNE01.JPG,,,,,,,,,0,4,4,8,,,,,,,,,,,,,,,AFNE06.jpg,AFSA08.jpg,AFSA03.jpg,AFNE04.jpg,AFSA08.jpg,FS,4,num_6,32,num_2,2.20009333519,,,2017_Aug_25_1256,60.0154187015,FEMA4ImagesEEG,001,201201,
AFNE01.JPG,AFNE01.JPG,AFNE01.JPG,AFNE01.JPG,AFNE01.JPG,AFNE01.JPG,,,,,,,,,0,5,5,0,,,,,,,,,,,,,,,AFNE16.jpg,AFNE10.jpg,AFSA11.jpg,AFSA09.jpg,AFNE10.jpg,FN,3,num_6,32,num_4,0.600199499967,,,2017_Aug_25_1256,60.0154187015,FEMA4ImagesEEG,001,201201,
AFNE01.JPG,AFNE01.JPG,AFNE01.JPG,AFNE01.JPG,AFNE01.JPG,AFNE01.JPG,,,,,,,,,0,6,6,3,,,,,,,,,,,,,,,AFSA05.jpg,AFNE10.jpg,AFNE12.jpg,AFSA04.jpg,AFNE10.jpg,FN,3,num_6,16,num_6,0.83346916651,,,2017_Aug_25_1256,60.0154187015,FEMA4ImagesEEG,001,201201,
AFNE01.JPG,AFNE01.JPG,AFNE01.JPG,AFNE01.JPG,AFNE01.JPG,AFNE01.JPG,,,,,,,,,0,7,7,6,,,,,,,,,,,,,,,AFNE16.jpg,AFSA17.jpg,AFNE02.jpg,AFSA06.jpg,AFNE02.jpg,FN,3,num_2,32,num_8,1.21671501815,,,2017_Aug_25_1256,60.0154187015,FEMA4ImagesEEG,001,201201,
AFNE01.JPG,AFNE01.JPG,AFNE01.JPG,AFNE01.JPG,AFNE01.JPG,AFNE01.JPG,,,,,,,,,0,8,8,2,,,,,,,,,,,,,,,AFSA02.jpg,AFNE09.jpg,AFSA14.jpg,AFNE01.jpg,AFSA14.jpg,FS,4,num_2,16,num_2,0.483526979805,,,2017_Aug_25_1256,60.0154187015,FEMA4ImagesEEG,001,201201,
AFNE01.JPG,AFNE01.JPG,AFNE01.JPG,AFNE01.JPG,AFNE01.JPG,AFNE01.JPG,,,,,,,,,0,9,9,7,,,,,,,,,,,,,,,AFSA18.jpg,AFNE10.jpg,AFSA06.jpg,AFNE07.jpg,AFSA18.jpg,FS,4,num_8,32,num_4,2.15003327672,,,2017_Aug_25_1256,60.0154187015,FEMA4ImagesEEG,001,201201,
AFNE01.JPG,AFNE01.JPG,AFNE01.JPG,AFNE01.JPG,AFNE01.JPG,AFNE01.JPG,,,,,,,,,1,0,10,2,,,,,,,,,,,,,,,AFSA06.jpg,AFNE18.jpg,AFNE16.jpg,AFSA12.jpg,AFNE16.jpg,FN,3,num_2,32,num_8,1.5667030706,,,2017_Aug_25_1256,60.0154187015,FEMA4ImagesEEG,001,201201,
AFNE01.JPG,AFNE01.JPG,AFNE01.JPG,AFNE01.JPG,AFNE01.JPG,AFNE01.JPG,,,,,,,,,1,1,11,9,,,,,,,,,,,,,,,AFNE19.jpg,AFSA10.jpg,AFSA06.jpg,AFNE17.jpg,AFNE17.jpg,FN,3,num_4,32,num_6,0.7501118579,,,2017_Aug_25_1256,60.0154187015,FEMA4ImagesEEG,001,201201,
AFNE01.JPG,AFNE01.JPG,AFNE01.JPG,AFNE01.JPG,AFNE01.JPG,AFNE01.JPG,,,,,,,,,1,2,12,5,,,,,,,,,,,,,,,AFNE11.jpg,AFSA12.jpg,AFSA20.jpg,AFNE04.jpg,AFSA12.jpg,FS,4,num_6,16,num_6,0.866794641726,,,2017_Aug_25_1256,60.0154187015,FEMA4ImagesEEG,001,201201,
AFNE01.JPG,AFNE01.JPG,AFNE01.JPG,AFNE01.JPG,AFNE01.JPG,AFNE01.JPG,,,,,,,,,1,3,13,7,,,,,,,,,,,,,,,AFSA19.jpg,AFNE14.jpg,AFNE03.jpg,AFSA07.jpg,AFNE03.jpg,FN,3,num_2,16,num_2,1.59991115516,,,2017_Aug_25_1256,60.0154187015,FEMA4ImagesEEG,001,201201,
AFNE01.JPG,AFNE01.JPG,AFNE01.JPG,AFNE01.JPG,AFNE01.JPG,AFNE01.JPG,,,,,,,,,1,4,14,0,,,,,,,,,,,,,,,AFSA16.jpg,AFNE12.jpg,AFSA02.jpg,AFNE14.jpg,AFNE12.jpg,FN,3,num_6,32,num_8,1.23345024288,,,2017_Aug_25_1256,60.0154187015,FEMA4ImagesEEG,001,201201,
AFNE01.JPG,AFNE01.JPG,AFNE01.JPG,AFNE01.JPG,AFNE01.JPG,AFNE01.JPG,,,,,,,,,1,5,15,4,,,,,,,,,,,,,,,AFSA07.jpg,AFNE19.jpg,AFNE18.jpg,AFSA12.jpg,AFSA07.jpg,FS,4,num_8,16,num_8,1.03347173243,,,2017_Aug_25_1256,60.0154187015,FEMA4ImagesEEG,001,201201,
AFNE01.JPG,AFNE01.JPG,AFNE01.JPG,AFNE01.JPG,AFNE01.JPG,AFNE01.JPG,,,,,,,,,1,6,16,1,,,,,,,,,,,,,,,AFNE13.jpg,AFSA20.jpg,AFNE18.jpg,AFSA03.jpg,AFSA03.jpg,FS,4,num_4,16,num_4,0.56680474502,,,2017_Aug_25_1256,60.0154187015,FEMA4ImagesEEG,001,201201,
AFNE01.JPG,AFNE01.JPG,AFNE01.JPG,AFNE01.JPG,AFNE01.JPG,AFNE01.JPG,,,,,,,,,1,7,17,6,,,,,,,,,,,,,,,AFSA04.jpg,AFNE02.jpg,AFSA14.jpg,AFNE01.jpg,AFNE02.jpg,FN,3,num_6,32,num_8,0.700117551026,,,2017_Aug_25_1256,60.0154187015,FEMA4ImagesEEG,001,201201,
AFNE01.JPG,AFNE01.JPG,AFNE01.JPG,AFNE01.JPG,AFNE01.JPG,AFNE01.JPG,,,,,,,,,1,8,18,8,,,,,,,,,,,,,,,AFNE06.jpg,AFNE07.jpg,AFSA08.jpg,AFSA10.jpg,AFSA10.jpg,FS,4,num_4,16,num_4,1.51690249038,,,2017_Aug_25_1256,60.0154187015,FEMA4ImagesEEG,001,201201,
AFNE01.JPG,AFNE01.JPG,AFNE01.JPG,AFNE01.JPG,AFNE01.JPG,AFNE01.JPG,,,,,,,,,1,9,19,3,,,,,,,,,,,,,,,AFNE16.jpg,AFSA11.jpg,AFSA09.jpg,AFNE10.jpg,AFNE10.jpg,FN,3,num_4,16,num_4,0.900119154723,,,2017_Aug_25_1256,60.0154187015,FEMA4ImagesEEG,001,201201,
AFNE01.JPG,AFNE01.JPG,AFNE01.JPG,AFNE01.JPG,AFNE01.JPG,AFNE01.JPG,,,,,,,,,2,0,20,8,,,,,,,,,,,,,,,AFSA05.jpg,AFNE20.jpg,AFNE17.jpg,AFSA06.jpg,AFNE17.jpg,FN,3,num_2,16,num_2,1.33339908493,,,2017_Aug_25_1256,60.0154187015,FEMA4ImagesEEG,001,201201,
AFNE01.JPG,AFNE01.JPG,AFNE01.JPG,AFNE01.JPG,AFNE01.JPG,AFNE01.JPG,,,,,,,,,2,1,21,1,,,,,,,,,,,,,,,AFSA17.jpg,AFNE09.jpg,AFSA10.jpg,AFNE19.jpg,AFNE09.jpg,FN,3,num_6,32,num_4,0.816819899961,,,2017_Aug_25_1256,60.0154187015,FEMA4ImagesEEG,001,201201,
AFNE01.JPG,AFNE01.JPG,AFNE01.JPG,AFNE01.JPG,AFNE01.JPG,AFNE01.JPG,,,,,,,,,2,2,22,6,,,,,,,,,,,,,,,AFSA03.jpg,AFNE09.jpg,AFNE10.jpg,AFSA18.jpg,AFSA03.jpg,FS,4,num_8,16,num_8,0.483553280444,,,2017_Aug_25_1256,60.0154187015,FEMA4ImagesEEG,001,201201,
AFNE01.JPG,AFNE01.JPG,AFNE01.JPG,AFNE01.JPG,AFNE01.JPG,AFNE01.JPG,,,,,,,,,2,3,23,2,,,,,,,,,,,,,,,AFNE17.jpg,AFSA20.jpg,AFNE05.jpg,AFSA08.jpg,AFNE05.jpg,FN,3,num_2,32,num_8,0.80013406911,,,2017_Aug_25_1256,60.0154187015,FEMA4ImagesEEG,001,201201,
AFNE01.JPG,AFNE01.JPG,AFNE01.JPG,AFNE01.JPG,AFNE01.JPG,AFNE01.JPG,,,,,,,,,2,4,24,4,,,,,,,,,,,,,,,AFNE11.jpg,AFSA17.jpg,AFSA16.jpg,AFNE05.jpg,AFNE05.jpg,FN,3,num_4,32,num_6,0.683468284476,,,2017_Aug_25_1256,60.0154187015,FEMA4ImagesEEG,001,201201,
AFNE01.JPG,AFNE01.JPG,AFNE01.JPG,AFNE01.JPG,AFNE01.JPG,AFNE01.JPG,,,,,,,,,2,5,25,0,,,,,,,,,,,,,,,AFSA19.jpg,AFNE19.jpg,AFNE03.jpg,AFSA14.jpg,AFNE19.jpg,FN,3,num_6,16,num_6,0.950178892454,,,2017_Aug_25_1256,60.0154187015,FEMA4ImagesEEG,001,201201,
AFNE01.JPG,AFNE01.JPG,AFNE01.JPG,AFNE01.JPG,AFNE01.JPG,AFNE01.JPG,,,,,,,,,2,6,26,7,,,,,,,,,,,,,,,AFSA18.jpg,AFSA07.jpg,AFNE19.jpg,AFNE14.jpg,AFNE14.jpg,FN,3,num_4,32,num_8,0.816813164432,,,2017_Aug_25_1256,60.0154187015,FEMA4ImagesEEG,001,201201,
AFNE01.JPG,AFNE01.JPG,AFNE01.JPG,AFNE01.JPG,AFNE01.JPG,AFNE01.JPG,,,,,,,,,2,7,27,5,,,,,,,,,,,,,,,AFNE03.jpg,AFSA07.jpg,AFNE10.jpg,AFSA04.jpg,AFNE03.jpg,FN,3,num_8,32,num_2,0.999796651159,,,2017_Aug_25_1256,60.0154187015,FEMA4ImagesEEG,001,201201,
AFNE01.JPG,AFNE01.JPG,AFNE01.JPG,AFNE01.JPG,AFNE01.JPG,AFNE01.JPG,,,,,,,,,2,8,28,9,,,,,,,,,,,,,,,AFSA07.jpg,AFSA16.jpg,AFNE15.jpg,AFNE07.jpg,AFNE07.jpg,FN,3,num_4,16,num_4,1.43342009337,,,2017_Aug_25_1256,60.0154187015,FEMA4ImagesEEG,001,201201,
AFNE01.JPG,AFNE01.JPG,AFNE01.JPG,AFNE01.JPG,AFNE01.JPG,AFNE01.JPG,,,,,,,,,2,9,29,3,,,,,,,,,,,,,,,AFNE19.jpg,AFSA11.jpg,AFNE09.jpg,AFSA10.jpg,AFNE19.jpg,FN,3,num_8,16,num_8,1.30009221261,,,2017_Aug_25_1256,60.0154187015,FEMA4ImagesEEG,001,201201,
AFNE01.JPG,AFNE01.JPG,AFNE01.JPG,AFNE01.JPG,AFNE01.JPG,AFNE01.JPG,,,,,,,,,3,0,30,5,,,,,,,,,,,,,,,AFNE04.jpg,AFSA18.jpg,AFSA05.jpg,AFNE18.jpg,AFNE04.jpg,FN,3,num_8,16,num_8,0.666975859542,,,2017_Aug_25_1256,60.0154187015,FEMA4ImagesEEG,001,201201,
AFNE01.JPG,AFNE01.JPG,AFNE01.JPG,AFNE01.JPG,AFNE01.JPG,AFNE01.JPG,,,,,,,,,3,1,31,4,,,,,,,,,,,,,,,AFSA16.jpg,AFNE15.jpg,AFNE03.jpg,AFSA11.jpg,AFNE15.jpg,FN,3,num_6,16,num_6,0.866769624045,,,2017_Aug_25_1256,60.0154187015,FEMA4ImagesEEG,001,201201,
AFNE01.JPG,AFNE01.JPG,AFNE01.JPG,AFNE01.JPG,AFNE01.JPG,AFNE01.JPG,,,,,,,,,3,2,32,9,,,,,,,,,,,,,,,AFNE15.jpg,AFSA04.jpg,AFNE20.jpg,AFSA13.jpg,AFSA04.jpg,FS,4,num_6,32,num_8,0.916815890718,,,2017_Aug_25_1256,60.0154187015,FEMA4ImagesEEG,001,201201,
AFNE01.JPG,AFNE01.JPG,AFNE01.JPG,AFNE01.JPG,AFNE01.JPG,AFNE01.JPG,,,,,,,,,3,3,33,7,,,,,,,,,,,,,,,AFSA12.jpg,AFNE09.jpg,AFSA09.jpg,AFNE18.jpg,AFNE18.jpg,FN,3,num_4,32,num_8,0.933460987653,,,2017_Aug_25_1256,60.0154187015,FEMA4ImagesEEG,001,201201,
AFNE01.JPG,AFNE01.JPG,AFNE01.JPG,AFNE01.JPG,AFNE01.JPG,AFNE01.JPG,,,,,,,,,3,4,34,2,,,,,,,,,,,,,,,AFNE04.jpg,AFSA13.jpg,AFNE06.jpg,AFSA18.jpg,AFSA18.jpg,FS,4,num_4,32,num_8,1.33341095229,,,2017_Aug_25_1256,60.0154187015,FEMA4ImagesEEG,001,201201,
AFNE01.JPG,AFNE01.JPG,AFNE01.JPG,AFNE01.JPG,AFNE01.JPG,AFNE01.JPG,,,,,,,,,3,5,35,8,,,,,,,,,,,,,,,AFSA04.jpg,AFSA12.jpg,AFNE14.jpg,AFNE15.jpg,AFSA04.jpg,FS,4,num_8,32,num_6,0.850107848655,,,2017_Aug_25_1256,60.0154187015,FEMA4ImagesEEG,001,201201,
AFNE01.JPG,AFNE01.JPG,AFNE01.JPG,AFNE01.JPG,AFNE01.JPG,AFNE01.JPG,,,,,,,,,3,6,36,6,,,,,,,,,,,,,,,AFSA07.jpg,AFNE01.jpg,AFSA08.jpg,AFNE15.jpg,AFNE01.jpg,FN,3,num_6,32,num_2,1.16677459551,,,2017_Aug_25_1256,60.0154187015,FEMA4ImagesEEG,001,201201,
AFNE01.JPG,AFNE01.JPG,AFNE01.JPG,AFNE01.JPG,AFNE01.JPG,AFNE01.JPG,,,,,,,,,3,7,37,0,,,,,,,,,,,,,,,AFSA05.jpg,AFNE15.jpg,AFSA02.jpg,AFNE13.jpg,AFNE13.jpg,FN,3,num_4,32,num_8,1.05010143387,,,2017_Aug_25_1256,60.0154187015,FEMA4ImagesEEG,001,201201,
AFNE01.JPG,AFNE01.JPG,AFNE01.JPG,AFNE01.JPG,AFNE01.JPG,AFNE01.JPG,,,,,,,,,3,8,38,1,,,,,,,,,,,,,,,AFNE09.jpg,AFSA02.jpg,AFSA05.jpg,AFNE19.jpg,AFNE09.jpg,FN,3,num_8,32,num_6,0.68343492757,,,2017_Aug_25_1256,60.0154187015,FEMA4ImagesEEG,001,201201,
AFNE01.JPG,AFNE01.JPG,AFNE01.JPG,AFNE01.JPG,AFNE01.JPG,AFNE01.JPG,,,,,,,,,3,9,39,3,,,,,,,,,,,,,,,AFNE11.jpg,AFSA06.jpg,AFSA09.jpg,AFNE01.jpg,AFSA06.jpg,FS,4,num_6,16,num_6,0.950102235714,,,2017_Aug_25_1256,60.0154187015,FEMA4ImagesEEG,001,201201,
AFNE01.JPG,AFNE01.JPG,AFNE01.JPG,AFNE01.JPG,AFNE01.JPG,AFNE01.JPG,,,,,,,,,4,0,40,9,,,,,,,,,,,,,,,AFSA08.jpg,AFNE06.jpg,AFSA02.jpg,AFNE10.jpg,AFNE06.jpg,FN,3,num_6,32,num_4,0.883447436409,,,2017_Aug_25_1256,60.0154187015,FEMA4ImagesEEG,001,201201,
AFNE01.JPG,AFNE01.JPG,AFNE01.JPG,AFNE01.JPG,AFNE01.JPG,AFNE01.JPG,,,,,,,,,4,1,41,6,,,,,,,,,,,,,,,AFSA15.jpg,AFNE02.jpg,AFSA20.jpg,AFNE19.jpg,AFSA15.jpg,FS,4,num_8,16,num_8,1.03341720671,,,2017_Aug_25_1256,60.0154187015,FEMA4ImagesEEG,001,201201,
AFNE01.JPG,AFNE01.JPG,AFNE01.JPG,AFNE01.JPG,AFNE01.JPG,AFNE01.JPG,,,,,,,,,4,2,42,0,,,,,,,,,,,,,,,AFSA13.jpg,AFNE04.jpg,AFSA19.jpg,AFNE03.jpg,AFSA19.jpg,FS,4,num_2,16,num_2,0.750131743748,,,2017_Aug_25_1256,60.0154187015,FEMA4ImagesEEG,001,201201,
AFNE01.JPG,AFNE01.JPG,AFNE01.JPG,AFNE01.JPG,AFNE01.JPG,AFNE01.JPG,,,,,,,,,4,3,43,1,,,,,,,,,,,,,,,AFNE06.jpg,AFSA13.jpg,AFNE05.jpg,AFSA02.jpg,AFSA02.jpg,FS,4,num_4,32,num_2,1.63337968019,,,2017_Aug_25_1256,60.0154187015,FEMA4ImagesEEG,001,201201,
AFNE01.JPG,AFNE01.JPG,AFNE01.JPG,AFNE01.JPG,AFNE01.JPG,AFNE01.JPG,,,,,,,,,4,4,44,4,,,,,,,,,,,,,,,AFSA19.jpg,AFNE11.jpg,AFSA16.jpg,AFNE12.jpg,AFNE12.jpg,FN,3,num_4,32,num_8,0.91679472191,,,2017_Aug_25_1256,60.0154187015,FEMA4ImagesEEG,001,201201,
AFNE01.JPG,AFNE01.JPG,AFNE01.JPG,AFNE01.JPG,AFNE01.JPG,AFNE01.JPG,,,,,,,,,4,5,45,8,,,,,,,,,,,,,,,AFSA07.jpg,AFNE04.jpg,AFNE11.jpg,AFSA18.jpg,AFNE11.jpg,FN,3,num_2,16,num_2,0.866763209256,,,2017_Aug_25_1256,60.0154187015,FEMA4ImagesEEG,001,201201,
AFNE01.JPG,AFNE01.JPG,AFNE01.JPG,AFNE01.JPG,AFNE01.JPG,AFNE01.JPG,,,,,,,,,4,6,46,5,,,,,,,,,,,,,,,AFSA17.jpg,AFNE09.jpg,AFSA05.jpg,AFNE13.jpg,AFNE13.jpg,FN,3,num_4,32,num_8,0.900133267261,,,2017_Aug_25_1256,60.0154187015,FEMA4ImagesEEG,001,201201,
AFNE01.JPG,AFNE01.JPG,AFNE01.JPG,AFNE01.JPG,AFNE01.JPG,AFNE01.JPG,,,,,,,,,4,7,47,7,,,,,,,,,,,,,,,AFSA05.jpg,AFNE13.jpg,AFSA07.jpg,AFNE19.jpg,AFSA07.jpg,FS,4,num_2,32,num_6,0.766793198398,,,2017_Aug_25_1256,60.0154187015,FEMA4ImagesEEG,001,201201,
AFNE01.JPG,AFNE01.JPG,AFNE01.JPG,AFNE01.JPG,AFNE01.JPG,AFNE01.JPG,,,,,,,,,4,8,48,2,,,,,,,,,,,,,,,AFSA05.jpg,AFNE03.jpg,AFSA15.jpg,AFNE06.jpg,AFNE03.jpg,FN,3,num_6,16,num_6,0.566802820583,,,2017_Aug_25_1256,60.0154187015,FEMA4ImagesEEG,001,201201,
AFNE01.JPG,AFNE01.JPG,AFNE01.JPG,AFNE01.JPG,AFNE01.JPG,AFNE01.JPG,,,,,,,,,4,9,49,3,,,,,,,,,,,,,,,AFNE17.jpg,AFNE03.jpg,AFSA12.jpg,AFSA18.jpg,AFNE03.jpg,FN,3,num_6,16,num_6,0.816724319591,,,2017_Aug_25_1256,60.0154187015,FEMA4ImagesEEG,001,201201,
AFNE01.JPG,AFNE01.JPG,AFNE01.JPG,AFNE01.JPG,AFNE01.JPG,AFNE01.JPG,,,,,,,,,5,0,50,2,,,,,,,,,,,,,,,AFNE17.jpg,AFSA01.jpg,AFSA16.jpg,AFNE08.jpg,AFSA01.jpg,FS,4,num_6,32,num_8,0.983480312208,,,2017_Aug_25_1256,60.0154187015,FEMA4ImagesEEG,001,201201,
AFNE01.JPG,AFNE01.JPG,AFNE01.JPG,AFNE01.JPG,AFNE01.JPG,AFNE01.JPG,,,,,,,,,5,1,51,3,,,,,,,,,,,,,,,AFNE06.jpg,AFNE04.jpg,AFSA03.jpg,AFSA19.jpg,AFSA19.jpg,FS,4,num_4,16,num_4,1.03346114802,,,2017_Aug_25_1256,60.0154187015,FEMA4ImagesEEG,001,201201,
AFNE01.JPG,AFNE01.JPG,AFNE01.JPG,AFNE01.JPG,AFNE01.JPG,AFNE01.JPG,,,,,,,,,5,2,52,6,,,,,,,,,,,,,,,AFNE17.jpg,AFSA02.jpg,AFSA10.jpg,AFNE13.jpg,AFSA02.jpg,FS,4,num_6,16,num_6,0.750096462404,,,2017_Aug_25_1256,60.0154187015,FEMA4ImagesEEG,001,201201,
AFNE01.JPG,AFNE01.JPG,AFNE01.JPG,AFNE01.JPG,AFNE01.JPG,AFNE01.JPG,,,,,,,,,5,3,53,5,,,,,,,,,,,,,,,AFSA08.jpg,AFNE17.jpg,AFNE02.jpg,AFSA19.jpg,AFSA19.jpg,FS,4,num_4,16,num_4,0.866760964079,,,2017_Aug_25_1256,60.0154187015,FEMA4ImagesEEG,001,201201,
AFNE01.JPG,AFNE01.JPG,AFNE01.JPG,AFNE01.JPG,AFNE01.JPG,AFNE01.JPG,,,,,,,,,5,4,54,1,,,,,,,,,,,,,,,AFNE02.jpg,AFNE06.jpg,AFSA17.jpg,AFSA03.jpg,AFSA03.jpg,FS,4,num_4,32,num_8,1.08344198384,,,2017_Aug_25_1256,60.0154187015,FEMA4ImagesEEG,001,201201,
AFNE01.JPG,AFNE01.JPG,AFNE01.JPG,AFNE01.JPG,AFNE01.JPG,AFNE01.JPG,,,,,,,,,5,5,55,7,,,,,,,,,,,,,,,AFSA20.jpg,AFNE09.jpg,AFSA16.jpg,AFNE17.jpg,AFNE09.jpg,FN,3,num_6,16,num_6,0.733452327687,,,2017_Aug_25_1256,60.0154187015,FEMA4ImagesEEG,001,201201,
AFNE01.JPG,AFNE01.JPG,AFNE01.JPG,AFNE01.JPG,AFNE01.JPG,AFNE01.JPG,,,,,,,,,5,6,56,4,,,,,,,,,,,,,,,AFSA09.jpg,AFNE10.jpg,AFNE14.jpg,AFSA01.jpg,AFNE14.jpg,FN,3,num_2,32,num_6,0.783501801755,,,2017_Aug_25_1256,60.0154187015,FEMA4ImagesEEG,001,201201,
AFNE01.JPG,AFNE01.JPG,AFNE01.JPG,AFNE01.JPG,AFNE01.JPG,AFNE01.JPG,,,,,,,,,5,7,57,0,,,,,,,,,,,,,,,AFSA13.jpg,AFNE12.jpg,AFNE02.jpg,AFSA07.jpg,AFSA13.jpg,FS,4,num_8,32,num_4,1.34992069716,,,2017_Aug_25_1256,60.0154187015,FEMA4ImagesEEG,001,201201,
AFNE01.JPG,AFNE01.JPG,AFNE01.JPG,AFNE01.JPG,AFNE01.JPG,AFNE01.JPG,,,,,,,,,5,8,58,8,,,,,,,,,,,,,,,AFNE14.jpg,AFSA12.jpg,AFSA03.jpg,AFNE06.jpg,AFNE14.jpg,FN,3,num_8,16,num_8,0.783467161888,,,2017_Aug_25_1256,60.0154187015,FEMA4ImagesEEG,001,201201,
AFNE01.JPG,AFNE01.JPG,AFNE01.JPG,AFNE01.JPG,AFNE01.JPG,AFNE01.JPG,,,,,,,,,5,9,59,9,,,,,,,,,,,,,,,AFSA09.jpg,AFNE14.jpg,AFNE10.jpg,AFSA05.jpg,AFNE10.jpg,FN,3,num_2,32,num_8,0.766739314163,,,2017_Aug_25_1256,60.0154187015,FEMA4ImagesEEG,001,201201,
,,,,,,,,,,,,,,,,,,,,,,,,,,,,,,,,,,,,,,,,,,,space,2.83327383616,2017_Aug_25_1256,60.0154187015,FEMA4ImagesEEG,001,201201,
AFNE01.JPG,AFNE01.JPG,AFNE01.JPG,AFNE01.JPG,AFNE01.JPG,AFNE01.JPG,,,,,,,,,,,,,0,0,0,1,,,,,,,,,,,AMSA06.jpg,AMNE03.jpg,AMSA01.jpg,AMNE08.jpg,AMNE08.jpg,MN,1,num_4,32,num_8,1.01672977216,,,2017_Aug_25_1256,60.0154187015,FEMA4ImagesEEG,001,201201,
AFNE01.JPG,AFNE01.JPG,AFNE01.JPG,AFNE01.JPG,AFNE01.JPG,AFNE01.JPG,,,,,,,,,,,,,0,1,1,9,,,,,,,,,,,AMSA16.jpg,AMNE07.jpg,AMNE16.jpg,AMSA17.jpg,AMSA17.jpg,MS,2,num_4,32,num_8,0.666804263911,,,2017_Aug_25_1256,60.0154187015,FEMA4ImagesEEG,001,201201,
AFNE01.JPG,AFNE01.JPG,AFNE01.JPG,AFNE01.JPG,AFNE01.JPG,AFNE01.JPG,,,,,,,,,,,,,0,2,2,2,,,,,,,,,,,AMNE17.jpg,AMSA04.jpg,AMNE10.jpg,AMSA08.jpg,AMNE10.jpg,MN,1,num_2,32,num_8,1.13344302624,,,2017_Aug_25_1256,60.0154187015,FEMA4ImagesEEG,001,201201,
AFNE01.JPG,AFNE01.JPG,AFNE01.JPG,AFNE01.JPG,AFNE01.JPG,AFNE01.JPG,,,,,,,,,,,,,0,3,3,8,,,,,,,,,,,AMSA16.jpg,AMSA19.jpg,AMNE08.jpg,AMNE10.jpg,AMNE10.jpg,MN,1,num_4,16,num_4,0.850124527109,,,2017_Aug_25_1256,60.0154187015,FEMA4ImagesEEG,001,201201,
AFNE01.JPG,AFNE01.JPG,AFNE01.JPG,AFNE01.JPG,AFNE01.JPG,AFNE01.JPG,,,,,,,,,,,,,0,4,4,0,,,,,,,,,,,AMNE09.jpg,AMNE08.jpg,AMSA16.jpg,AMSA11.jpg,AMSA16.jpg,MS,2,num_2,32,num_8,1.60005548793,,,2017_Aug_25_1256,60.0154187015,FEMA4ImagesEEG,001,201201,
AFNE01.JPG,AFNE01.JPG,AFNE01.JPG,AFNE01.JPG,AFNE01.JPG,AFNE01.JPG,,,,,,,,,,,,,0,5,5,6,,,,,,,,,,,AMSA09.jpg,AMSA03.jpg,AMNE12.jpg,AMNE01.jpg,AMSA03.jpg,MS,2,num_6,32,num_8,1.03343516812,,,2017_Aug_25_1256,60.0154187015,FEMA4ImagesEEG,001,201201,
AFNE01.JPG,AFNE01.JPG,AFNE01.JPG,AFNE01.JPG,AFNE01.JPG,AFNE01.JPG,,,,,,,,,,,,,0,6,6,7,,,,,,,,,,,AMNE01.jpg,AMSA02.jpg,AMSA13.jpg,AMNE07.jpg,AMNE07.jpg,MN,1,num_4,32,num_8,0.90016630343,,,2017_Aug_25_1256,60.0154187015,FEMA4ImagesEEG,001,201201,
AFNE01.JPG,AFNE01.JPG,AFNE01.JPG,AFNE01.JPG,AFNE01.JPG,AFNE01.JPG,,,,,,,,,,,,,0,7,7,4,,,,,,,,,,,AMSA09.jpg,AMNE17.jpg,AMNE11.jpg,AMSA18.jpg,AMSA09.jpg,MS,2,num_8,16,num_8,0.650104962,,,2017_Aug_25_1256,60.0154187015,FEMA4ImagesEEG,001,201201,
AFNE01.JPG,AFNE01.JPG,AFNE01.JPG,AFNE01.JPG,AFNE01.JPG,AFNE01.JPG,,,,,,,,,,,,,0,8,8,3,,,,,,,,,,,AMNE15.jpg,AMNE17.jpg,AMSA12.jpg,AMSA16.jpg,AMNE15.jpg,MN,1,num_8,16,num_8,0.500119154724,,,2017_Aug_25_1256,60.0154187015,FEMA4ImagesEEG,001,201201,
AFNE01.JPG,AFNE01.JPG,AFNE01.JPG,AFNE01.JPG,AFNE01.JPG,AFNE01.JPG,,,,,,,,,,,,,0,9,9,5,,,,,,,,,,,AMSA07.jpg,AMNE05.jpg,AMSA18.jpg,AMNE11.jpg,AMSA07.jpg,MS,2,num_8,16,num_8,0.566794802096,,,2017_Aug_25_1256,60.0154187015,FEMA4ImagesEEG,001,201201,
AFNE01.JPG,AFNE01.JPG,AFNE01.JPG,AFNE01.JPG,AFNE01.JPG,AFNE01.JPG,,,,,,,,,,,,,1,0,10,7,,,,,,,,,,,AMNE16.jpg,AMSA02.jpg,AMNE07.jpg,AMSA06.jpg,AMNE07.jpg,MN,1,num_2,32,num_8,0.616796165239,,,2017_Aug_25_1256,60.0154187015,FEMA4ImagesEEG,001,201201,
AFNE01.JPG,AFNE01.JPG,AFNE01.JPG,AFNE01.JPG,AFNE01.JPG,AFNE01.JPG,,,,,,,,,,,,,1,1,11,6,,,,,,,,,,,AMSA15.jpg,AMSA18.jpg,AMNE16.jpg,AMNE11.jpg,AMSA15.jpg,MS,2,num_8,16,num_8,0.600147219428,,,2017_Aug_25_1256,60.0154187015,FEMA4ImagesEEG,001,201201,
AFNE01.JPG,AFNE01.JPG,AFNE01.JPG,AFNE01.JPG,AFNE01.JPG,AFNE01.JPG,,,,,,,,,,,,,1,2,12,8,,,,,,,,,,,AMNE18.jpg,AMSA18.jpg,AMNE09.jpg,AMSA10.jpg,AMSA10.jpg,MS,2,num_4,16,num_4,0.916863360164,,,2017_Aug_25_1256,60.0154187015,FEMA4ImagesEEG,001,201201,
AFNE01.JPG,AFNE01.JPG,AFNE01.JPG,AFNE01.JPG,AFNE01.JPG,AFNE01.JPG,,,,,,,,,,,,,1,3,13,4,,,,,,,,,,,AMNE14.jpg,AMSA20.jpg,AMSA01.jpg,AMNE17.jpg,AMNE17.jpg,MN,1,num_4,32,num_8,1.1167385925,,,2017_Aug_25_1256,60.0154187015,FEMA4ImagesEEG,001,201201,
AFNE01.JPG,AFNE01.JPG,AFNE01.JPG,AFNE01.JPG,AFNE01.JPG,AFNE01.JPG,,,,,,,,,,,,,1,4,14,5,,,,,,,,,,,AMSA09.jpg,AMSA14.jpg,AMNE18.jpg,AMNE19.jpg,AMSA09.jpg,MS,2,num_8,32,num_4,1.06674428562,,,2017_Aug_25_1256,60.0154187015,FEMA4ImagesEEG,001,201201,
AFNE01.JPG,AFNE01.JPG,AFNE01.JPG,AFNE01.JPG,AFNE01.JPG,AFNE01.JPG,,,,,,,,,,,,,1,5,15,9,,,,,,,,,,,AMSA19.jpg,AMNE13.jpg,AMSA08.jpg,AMNE11.jpg,AMNE11.jpg,MN,1,num_4,32,num_8,1.13342666853,,,2017_Aug_25_1256,60.0154187015,FEMA4ImagesEEG,001,201201,
AFNE01.JPG,AFNE01.JPG,AFNE01.JPG,AFNE01.JPG,AFNE01.JPG,AFNE01.JPG,,,,,,,,,,,,,1,6,16,3,,,,,,,,,,,AMNE18.jpg,AMSA20.jpg,AMNE08.jpg,AMSA09.jpg,AMNE18.jpg,MN,1,num_8,32,num_4,1.76669890099,,,2017_Aug_25_1256,60.0154187015,FEMA4ImagesEEG,001,201201,
AFNE01.JPG,AFNE01.JPG,AFNE01.JPG,AFNE01.JPG,AFNE01.JPG,AFNE01.JPG,,,,,,,,,,,,,1,7,17,1,,,,,,,,,,,AMSA03.jpg,AMNE06.jpg,AMNE14.jpg,AMSA11.jpg,AMSA03.jpg,MS,2,num_8,16,num_8,0.86646043117,,,2017_Aug_25_1256,60.0154187015,FEMA4ImagesEEG,001,201201,
AFNE01.JPG,AFNE01.JPG,AFNE01.JPG,AFNE01.JPG,AFNE01.JPG,AFNE01.JPG,,,,,,,,,,,,,1,8,18,2,,,,,,,,,,,AMNE01.jpg,AMNE05.jpg,AMSA05.jpg,AMSA02.jpg,AMNE01.jpg,MN,1,num_8,16,num_8,1.3166484647,,,2017_Aug_25_1256,60.0154187015,FEMA4ImagesEEG,001,201201,
AFNE01.JPG,AFNE01.JPG,AFNE01.JPG,AFNE01.JPG,AFNE01.JPG,AFNE01.JPG,,,,,,,,,,,,,1,9,19,0,,,,,,,,,,,AMNE08.jpg,AMNE10.jpg,AMSA03.jpg,AMSA08.jpg,AMSA08.jpg,MS,2,num_4,32,num_8,0.800119635832,,,2017_Aug_25_1256,60.0154187015,FEMA4ImagesEEG,001,201201,
AFNE01.JPG,AFNE01.JPG,AFNE01.JPG,AFNE01.JPG,AFNE01.JPG,AFNE01.JPG,,,,,,,,,,,,,2,0,20,3,,,,,,,,,,,AMNE03.jpg,AMSA05.jpg,AMNE07.jpg,AMSA11.jpg,AMSA05.jpg,MS,2,num_6,16,num_6,0.650153714404,,,2017_Aug_25_1256,60.0154187015,FEMA4ImagesEEG,001,201201,
AFNE01.JPG,AFNE01.JPG,AFNE01.JPG,AFNE01.JPG,AFNE01.JPG,AFNE01.JPG,,,,,,,,,,,,,2,1,21,1,,,,,,,,,,,AMSA08.jpg,AMNE16.jpg,AMSA18.jpg,AMNE08.jpg,AMNE16.jpg,MN,1,num_6,16,num_6,0.633442224393,,,2017_Aug_25_1256,60.0154187015,FEMA4ImagesEEG,001,201201,
AFNE01.JPG,AFNE01.JPG,AFNE01.JPG,AFNE01.JPG,AFNE01.JPG,AFNE01.JPG,,,,,,,,,,,,,2,2,22,4,,,,,,,,,,,AMNE05.jpg,AMSA04.jpg,AMNE01.jpg,AMSA06.jpg,AMSA06.jpg,MS,2,num_4,32,num_6,1.06672568273,,,2017_Aug_25_1256,60.0154187015,FEMA4ImagesEEG,001,201201,
AFNE01.JPG,AFNE01.JPG,AFNE01.JPG,AFNE01.JPG,AFNE01.JPG,AFNE01.JPG,,,,,,,,,,,,,2,3,23,7,,,,,,,,,,,AMSA08.jpg,AMNE07.jpg,AMNE15.jpg,AMSA18.jpg,AMSA08.jpg,MS,2,num_8,32,num_2,0.68343396535,,,2017_Aug_25_1256,60.0154187015,FEMA4ImagesEEG,001,201201,
AFNE01.JPG,AFNE01.JPG,AFNE01.JPG,AFNE01.JPG,AFNE01.JPG,AFNE01.JPG,,,,,,,,,,,,,2,4,24,2,,,,,,,,,,,AMNE06.jpg,AMSA02.jpg,AMNE07.jpg,AMSA13.jpg,AMNE07.jpg,MN,1,num_2,16,num_2,0.516813324802,,,2017_Aug_25_1256,60.0154187015,FEMA4ImagesEEG,001,201201,
AFNE01.JPG,AFNE01.JPG,AFNE01.JPG,AFNE01.JPG,AFNE01.JPG,AFNE01.JPG,,,,,,,,,,,,,2,5,25,0,,,,,,,,,,,AMNE16.jpg,AMSA12.jpg,AMNE14.jpg,AMSA02.jpg,AMSA12.jpg,MS,2,num_6,16,num_6,0.700397556607,,,2017_Aug_25_1256,60.0154187015,FEMA4ImagesEEG,001,201201,
AFNE01.JPG,AFNE01.JPG,AFNE01.JPG,AFNE01.JPG,AFNE01.JPG,AFNE01.JPG,,,,,,,,,,,,,2,6,26,6,,,,,,,,,,,AMSA03.jpg,AMNE17.jpg,AMNE01.jpg,AMSA14.jpg,AMSA03.jpg,MS,2,num_8,16,num_8,0.683427229821,,,2017_Aug_25_1256,60.0154187015,FEMA4ImagesEEG,001,201201,
AFNE01.JPG,AFNE01.JPG,AFNE01.JPG,AFNE01.JPG,AFNE01.JPG,AFNE01.JPG,,,,,,,,,,,,,2,7,27,9,,,,,,,,,,,AMNE03.jpg,AMNE17.jpg,AMSA02.jpg,AMSA05.jpg,AMNE03.jpg,MN,1,num_8,16,num_8,0.733501721569,,,2017_Aug_25_1256,60.0154187015,FEMA4ImagesEEG,001,201201,
AFNE01.JPG,AFNE01.JPG,AFNE01.JPG,AFNE01.JPG,AFNE01.JPG,AFNE01.JPG,,,,,,,,,,,,,2,8,28,8,,,,,,,,,,,AMSA05.jpg,AMSA14.jpg,AMNE08.jpg,AMNE14.jpg,AMSA05.jpg,MS,2,num_8,16,num_8,0.68349137772,,,2017_Aug_25_1256,60.0154187015,FEMA4ImagesEEG,001,201201,
AFNE01.JPG,AFNE01.JPG,AFNE01.JPG,AFNE01.JPG,AFNE01.JPG,AFNE01.JPG,,,,,,,,,,,,,2,9,29,5,,,,,,,,,,,AMSA14.jpg,AMSA17.jpg,AMNE14.jpg,AMNE10.jpg,AMSA17.jpg,MS,2,num_6,32,num_2,1.2001161077,,,2017_Aug_25_1256,60.0154187015,FEMA4ImagesEEG,001,201201,
AFNE01.JPG,AFNE01.JPG,AFNE01.JPG,AFNE01.JPG,AFNE01.JPG,AFNE01.JPG,,,,,,,,,,,,,3,0,30,8,,,,,,,,,,,AMNE04.jpg,AMNE19.jpg,AMSA18.jpg,AMSA04.jpg,AMNE04.jpg,MN,1,num_8,16,num_8,1.13347093058,,,2017_Aug_25_1256,60.0154187015,FEMA4ImagesEEG,001,201201,
AFNE01.JPG,AFNE01.JPG,AFNE01.JPG,AFNE01.JPG,AFNE01.JPG,AFNE01.JPG,,,,,,,,,,,,,3,1,31,0,,,,,,,,,,,AMNE16.jpg,AMSA12.jpg,AMNE14.jpg,AMSA18.jpg,AMSA18.jpg,MS,2,num_4,16,num_4,1.11671646147,,,2017_Aug_25_1256,60.0154187015,FEMA4ImagesEEG,001,201201,
AFNE01.JPG,AFNE01.JPG,AFNE01.JPG,AFNE01.JPG,AFNE01.JPG,AFNE01.JPG,,,,,,,,,,,,,3,2,32,7,,,,,,,,,,,AMNE09.jpg,AMSA03.jpg,AMNE16.jpg,AMSA14.jpg,AMSA03.jpg,MS,2,num_6,32,num_2,0.90012749395,,,2017_Aug_25_1256,60.0154187015,FEMA4ImagesEEG,001,201201,
AFNE01.JPG,AFNE01.JPG,AFNE01.JPG,AFNE01.JPG,AFNE01.JPG,AFNE01.JPG,,,,,,,,,,,,,3,3,33,6,,,,,,,,,,,AMNE08.jpg,AMSA08.jpg,AMSA04.jpg,AMNE20.jpg,AMSA04.jpg,MS,2,num_2,16,num_2,0.450170713598,,,2017_Aug_25_1256,60.0154187015,FEMA4ImagesEEG,001,201201,
AFNE01.JPG,AFNE01.JPG,AFNE01.JPG,AFNE01.JPG,AFNE01.JPG,AFNE01.JPG,,,,,,,,,,,,,3,4,34,5,,,,,,,,,,,AMNE19.jpg,AMSA01.jpg,AMSA15.jpg,AMNE04.jpg,AMNE19.jpg,MN,1,num_8,16,num_8,1.01680610816,,,2017_Aug_25_1256,60.0154187015,FEMA4ImagesEEG,001,201201,
AFNE01.JPG,AFNE01.JPG,AFNE01.JPG,AFNE01.JPG,AFNE01.JPG,AFNE01.JPG,,,,,,,,,,,,,3,5,35,2,,,,,,,,,,,AMSA04.jpg,AMNE01.jpg,AMSA03.jpg,AMNE17.jpg,AMSA03.jpg,MS,2,num_2,16,num_2,0.866785019542,,,2017_Aug_25_1256,60.0154187015,FEMA4ImagesEEG,001,201201,
AFNE01.JPG,AFNE01.JPG,AFNE01.JPG,AFNE01.JPG,AFNE01.JPG,AFNE01.JPG,,,,,,,,,,,,,3,6,36,4,,,,,,,,,,,AMNE04.jpg,AMSA10.jpg,AMNE13.jpg,AMSA03.jpg,AMSA03.jpg,MS,2,num_4,16,num_4,1.10011049476,,,2017_Aug_25_1256,60.0154187015,FEMA4ImagesEEG,001,201201,
AFNE01.JPG,AFNE01.JPG,AFNE01.JPG,AFNE01.JPG,AFNE01.JPG,AFNE01.JPG,,,,,,,,,,,,,3,7,37,3,,,,,,,,,,,AMSA05.jpg,AMNE19.jpg,AMNE02.jpg,AMSA14.jpg,AMNE02.jpg,MN,1,num_2,32,num_8,0.650173920992,,,2017_Aug_25_1256,60.0154187015,FEMA4ImagesEEG,001,201201,
AFNE01.JPG,AFNE01.JPG,AFNE01.JPG,AFNE01.JPG,AFNE01.JPG,AFNE01.JPG,,,,,,,,,,,,,3,8,38,1,,,,,,,,,,,AMNE03.jpg,AMNE17.jpg,AMSA10.jpg,AMSA08.jpg,AMNE17.jpg,MN,1,num_6,16,num_6,0.666822225323,,,2017_Aug_25_1256,60.0154187015,FEMA4ImagesEEG,001,201201,
AFNE01.JPG,AFNE01.JPG,AFNE01.JPG,AFNE01.JPG,AFNE01.JPG,AFNE01.JPG,,,,,,,,,,,,,3,9,39,9,,,,,,,,,,,AMSA01.jpg,AMNE15.jpg,AMNE19.jpg,AMSA15.jpg,AMNE15.jpg,MN,1,num_6,16,num_6,0.533475420931,,,2017_Aug_25_1256,60.0154187015,FEMA4ImagesEEG,001,201201,
AFNE01.JPG,AFNE01.JPG,AFNE01.JPG,AFNE01.JPG,AFNE01.JPG,AFNE01.JPG,,,,,,,,,,,,,4,0,40,5,,,,,,,,,,,AMSA13.jpg,AMNE20.jpg,AMSA12.jpg,AMNE07.jpg,AMSA13.jpg,MS,2,num_8,32,num_2,0.516826154381,,,2017_Aug_25_1256,60.0154187015,FEMA4ImagesEEG,001,201201,
AFNE01.JPG,AFNE01.JPG,AFNE01.JPG,AFNE01.JPG,AFNE01.JPG,AFNE01.JPG,,,,,,,,,,,,,4,1,41,4,,,,,,,,,,,AMSA14.jpg,AMNE06.jpg,AMSA17.jpg,AMNE14.jpg,AMSA14.jpg,MS,2,num_8,16,num_8,0.533477345368,,,2017_Aug_25_1256,60.0154187015,FEMA4ImagesEEG,001,201201,
AFNE01.JPG,AFNE01.JPG,AFNE01.JPG,AFNE01.JPG,AFNE01.JPG,AFNE01.JPG,,,,,,,,,,,,,4,2,42,0,,,,,,,,,,,AMSA15.jpg,AMNE14.jpg,AMSA19.jpg,AMNE07.jpg,AMNE07.jpg,MN,1,num_4,32,num_8,0.750141686673,,,2017_Aug_25_1256,60.0154187015,FEMA4ImagesEEG,001,201201,
AFNE01.JPG,AFNE01.JPG,AFNE01.JPG,AFNE01.JPG,AFNE01.JPG,AFNE01.JPG,,,,,,,,,,,,,4,3,43,1,,,,,,,,,,,AMNE09.jpg,AMSA17.jpg,AMNE19.jpg,AMSA08.jpg,AMNE09.jpg,MN,1,num_8,16,num_8,0.800096542589,,,2017_Aug_25_1256,60.0154187015,FEMA4ImagesEEG,001,201201,
AFNE01.JPG,AFNE01.JPG,AFNE01.JPG,AFNE01.JPG,AFNE01.JPG,AFNE01.JPG,,,,,,,,,,,,,4,4,44,7,,,,,,,,,,,AMNE13.jpg,AMSA16.jpg,AMSA03.jpg,AMNE18.jpg,AMNE18.jpg,MN,1,num_4,16,num_4,0.816860313138,,,2017_Aug_25_1256,60.0154187015,FEMA4ImagesEEG,001,201201,
AFNE01.JPG,AFNE01.JPG,AFNE01.JPG,AFNE01.JPG,AFNE01.JPG,AFNE01.JPG,,,,,,,,,,,,,4,5,45,6,,,,,,,,,,,AMSA15.jpg,AMSA06.jpg,AMNE16.jpg,AMNE09.jpg,AMSA06.jpg,MS,2,num_6,32,num_8,2.08334576199,,,2017_Aug_25_1256,60.0154187015,FEMA4ImagesEEG,001,201201,
AFNE01.JPG,AFNE01.JPG,AFNE01.JPG,AFNE01.JPG,AFNE01.JPG,AFNE01.JPG,,,,,,,,,,,,,4,6,46,8,,,,,,,,,,,AMNE06.jpg,AMSA10.jpg,AMNE10.jpg,AMSA19.jpg,AMNE10.jpg,MN,1,num_2,32,num_8,0.76676048297,,,2017_Aug_25_1256,60.0154187015,FEMA4ImagesEEG,001,201201,
AFNE01.JPG,AFNE01.JPG,AFNE01.JPG,AFNE01.JPG,AFNE01.JPG,AFNE01.JPG,,,,,,,,,,,,,4,7,47,9,,,,,,,,,,,AMSA17.jpg,AMNE11.jpg,AMSA16.jpg,AMNE06.jpg,AMNE11.jpg,MN,1,num_6,32,num_8,0.533447195855,,,2017_Aug_25_1256,60.0154187015,FEMA4ImagesEEG,001,201201,
AFNE01.JPG,AFNE01.JPG,AFNE01.JPG,AFNE01.JPG,AFNE01.JPG,AFNE01.JPG,,,,,,,,,,,,,4,8,48,2,,,,,,,,,,,AMSA06.jpg,AMNE12.jpg,AMSA02.jpg,AMNE10.jpg,AMSA06.jpg,MS,2,num_8,32,num_6,1.28341760764,,,2017_Aug_25_1256,60.0154187015,FEMA4ImagesEEG,001,201201,
AFNE01.JPG,AFNE01.JPG,AFNE01.JPG,AFNE01.JPG,AFNE01.JPG,AFNE01.JPG,,,,,,,,,,,,,4,9,49,3,,,,,,,,,,,AMSA01.jpg,AMNE14.jpg,AMSA03.jpg,AMNE09.jpg,AMNE14.jpg,MN,1,num_6,32,num_8,0.716770345709,,,2017_Aug_25_1256,60.0154187015,FEMA4ImagesEEG,001,201201,
AFNE01.JPG,AFNE01.JPG,AFNE01.JPG,AFNE01.JPG,AFNE01.JPG,AFNE01.JPG,,,,,,,,,,,,,5,0,50,4,,,,,,,,,,,AMSA09.jpg,AMNE13.jpg,AMNE04.jpg,AMSA02.jpg,AMSA09.jpg,MS,2,num_8,16,num_8,0.616758638717,,,2017_Aug_25_1256,60.0154187015,FEMA4ImagesEEG,001,201201,
AFNE01.JPG,AFNE01.JPG,AFNE01.JPG,AFNE01.JPG,AFNE01.JPG,AFNE01.JPG,,,,,,,,,,,,,5,1,51,1,,,,,,,,,,,AMSA13.jpg,AMNE07.jpg,AMSA08.jpg,AMNE06.jpg,AMSA08.jpg,MS,2,num_2,32,num_4,0.533340389603,,,2017_Aug_25_1256,60.0154187015,FEMA4ImagesEEG,001,201201,
AFNE01.JPG,AFNE01.JPG,AFNE01.JPG,AFNE01.JPG,AFNE01.JPG,AFNE01.JPG,,,,,,,,,,,,,5,2,52,3,,,,,,,,,,,AMNE12.jpg,AMNE15.jpg,AMSA13.jpg,AMSA19.jpg,AMNE15.jpg,MN,1,num_6,32,num_4,1.25011458419,,,2017_Aug_25_1256,60.0154187015,FEMA4ImagesEEG,001,201201,
AFNE01.JPG,AFNE01.JPG,AFNE01.JPG,AFNE01.JPG,AFNE01.JPG,AFNE01.JPG,,,,,,,,,,,,,5,3,53,5,,,,,,,,,,,AMNE14.jpg,AMSA05.jpg,AMNE17.jpg,AMSA20.jpg,AMNE14.jpg,MN,1,num_8,32,num_4,1.51672031035,,,2017_Aug_25_1256,60.0154187015,FEMA4ImagesEEG,001,201201,
AFNE01.JPG,AFNE01.JPG,AFNE01.JPG,AFNE01.JPG,AFNE01.JPG,AFNE01.JPG,,,,,,,,,,,,,5,4,54,8,,,,,,,,,,,AMSA14.jpg,AMNE09.jpg,AMSA02.jpg,AMNE06.jpg,AMNE06.jpg,MN,1,num_4,16,num_4,1.16673706899,,,2017_Aug_25_1256,60.0154187015,FEMA4ImagesEEG,001,201201,
AFNE01.JPG,AFNE01.JPG,AFNE01.JPG,AFNE01.JPG,AFNE01.JPG,AFNE01.JPG,,,,,,,,,,,,,5,5,55,0,,,,,,,,,,,AMSA07.jpg,AMNE04.jpg,AMSA15.jpg,AMNE06.jpg,AMNE04.jpg,MN,1,num_6,16,num_6,0.850129338202,,,2017_Aug_25_1256,60.0154187015,FEMA4ImagesEEG,001,201201,
AFNE01.JPG,AFNE01.JPG,AFNE01.JPG,AFNE01.JPG,AFNE01.JPG,AFNE01.JPG,,,,,,,,,,,,,5,6,56,6,,,,,,,,,,,AMSA08.jpg,AMSA13.jpg,AMNE03.jpg,AMNE18.jpg,AMSA08.jpg,MS,2,num_8,32,num_6,1.30011787176,,,2017_Aug_25_1256,60.0154187015,FEMA4ImagesEEG,001,201201,
AFNE01.JPG,AFNE01.JPG,AFNE01.JPG,AFNE01.JPG,AFNE01.JPG,AFNE01.JPG,,,,,,,,,,,,,5,7,57,9,,,,,,,,,,,AMSA08.jpg,AMSA04.jpg,AMNE08.jpg,AMNE17.jpg,AMNE08.jpg,MN,1,num_2,32,num_8,1.28348400071,,,2017_Aug_25_1256,60.0154187015,FEMA4ImagesEEG,001,201201,
AFNE01.JPG,AFNE01.JPG,AFNE01.JPG,AFNE01.JPG,AFNE01.JPG,AFNE01.JPG,,,,,,,,,,,,,5,8,58,2,,,,,,,,,,,AMSA01.jpg,AMSA10.jpg,AMNE13.jpg,AMNE17.jpg,AMSA01.jpg,MS,2,num_8,32,num_6,0.950136554841,,,2017_Aug_25_1256,60.0154187015,FEMA4ImagesEEG,001,201201,
AFNE01.JPG,AFNE01.JPG,AFNE01.JPG,AFNE01.JPG,AFNE01.JPG,AFNE01.JPG,,,,,,,,,,,,,5,9,59,7,,,,,,,,,,,AMSA13.jpg,AMNE19.jpg,AMNE02.jpg,AMSA18.jpg,AMSA18.jpg,MS,2,num_4,32,num_2,1.89999182114,,,2017_Aug_25_1256,60.0154187015,FEMA4ImagesEEG,001,201201,
,,,,,,,,,,,,,,,,,,,,,,,,,,,,,,,,,,,,,,,,,,,space,2.73371918295,2017_Aug_25_1256,60.0154187015,FEMA4ImagesEEG,001,201201,
AFNE01.JPG,AFNE01.JPG,AFNE01.JPG,AFNE01.JPG,AFNE01.JPG,AFNE01.JPG,,,,,,,,,,,,,,,,,0,0,0,4,,,,,,,AFSA07.jpg,AFNE01.jpg,AFNE17.jpg,AFSA18.jpg,AFNE01.jpg,FN,3,num_6,32,num_8,0.683472133351,,,2017_Aug_25_1256,60.0154187015,FEMA4ImagesEEG,001,201201,
AFNE01.JPG,AFNE01.JPG,AFNE01.JPG,AFNE01.JPG,AFNE01.JPG,AFNE01.JPG,,,,,,,,,,,,,,,,,0,1,1,5,,,,,,,AFNE14.jpg,AFSA02.jpg,AFNE10.jpg,AFSA14.jpg,AFNE14.jpg,FN,3,num_8,32,num_6,0.350174722841,,,2017_Aug_25_1256,60.0154187015,FEMA4ImagesEEG,001,201201,
AFNE01.JPG,AFNE01.JPG,AFNE01.JPG,AFNE01.JPG,AFNE01.JPG,AFNE01.JPG,,,,,,,,,,,,,,,,,0,2,2,7,,,,,,,AFNE10.jpg,AFSA10.jpg,AFSA08.jpg,AFNE11.jpg,AFNE10.jpg,FN,3,num_8,16,num_8,0.53348857125,,,2017_Aug_25_1256,60.0154187015,FEMA4ImagesEEG,001,201201,
AFNE01.JPG,AFNE01.JPG,AFNE01.JPG,AFNE01.JPG,AFNE01.JPG,AFNE01.JPG,,,,,,,,,,,,,,,,,0,3,3,8,,,,,,,AFSA01.jpg,AFNE03.jpg,AFSA11.jpg,AFNE02.jpg,AFSA11.jpg,FS,4,num_2,16,num_2,1.11674693173,,,2017_Aug_25_1256,60.0154187015,FEMA4ImagesEEG,001,201201,
AFNE01.JPG,AFNE01.JPG,AFNE01.JPG,AFNE01.JPG,AFNE01.JPG,AFNE01.JPG,,,,,,,,,,,,,,,,,0,4,4,6,,,,,,,AFNE10.jpg,AFNE09.jpg,AFSA11.jpg,AFSA09.jpg,AFSA11.jpg,FS,4,num_2,32,num_4,0.616766977944,,,2017_Aug_25_1256,60.0154187015,FEMA4ImagesEEG,001,201201,
AFNE01.JPG,AFNE01.JPG,AFNE01.JPG,AFNE01.JPG,AFNE01.JPG,AFNE01.JPG,,,,,,,,,,,,,,,,,0,5,5,0,,,,,,,AFNE12.jpg,AFSA17.jpg,AFNE17.jpg,AFSA01.jpg,AFNE17.jpg,FN,3,num_2,32,num_8,0.70010215553,,,2017_Aug_25_1256,60.0154187015,FEMA4ImagesEEG,001,201201,
AFNE01.JPG,AFNE01.JPG,AFNE01.JPG,AFNE01.JPG,AFNE01.JPG,AFNE01.JPG,,,,,,,,,,,,,,,,,0,6,6,2,,,,,,,AFSA02.jpg,AFSA16.jpg,AFNE12.jpg,AFNE04.jpg,AFNE12.jpg,FN,3,num_2,16,num_2,0.466815489793,,,2017_Aug_25_1256,60.0154187015,FEMA4ImagesEEG,001,201201,
AFNE01.JPG,AFNE01.JPG,AFNE01.JPG,AFNE01.JPG,AFNE01.JPG,AFNE01.JPG,,,,,,,,,,,,,,,,,0,7,7,9,,,,,,,AFSA04.jpg,AFSA05.jpg,AFNE08.jpg,AFNE16.jpg,AFSA04.jpg,FS,4,num_8,16,num_8,0.882951252407,,,2017_Aug_25_1256,60.0154187015,FEMA4ImagesEEG,001,201201,
AFNE01.JPG,AFNE01.JPG,AFNE01.JPG,AFNE01.JPG,AFNE01.JPG,AFNE01.JPG,,,,,,,,,,,,,,,,,0,8,8,1,,,,,,,AFNE06.jpg,AFSA06.jpg,AFNE11.jpg,AFSA08.jpg,AFNE06.jpg,FN,3,num_8,16,num_8,0.566678694398,,,2017_Aug_25_1256,60.0154187015,FEMA4ImagesEEG,001,201201,
AFNE01.JPG,AFNE01.JPG,AFNE01.JPG,AFNE01.JPG,AFNE01.JPG,AFNE01.JPG,,,,,,,,,,,,,,,,,0,9,9,3,,,,,,,AFNE04.jpg,AFNE12.jpg,AFSA13.jpg,AFSA07.jpg,AFNE12.jpg,FN,3,num_6,32,num_8,0.650128375984,,,2017_Aug_25_1256,60.0154187015,FEMA4ImagesEEG,001,201201,
AFNE01.JPG,AFNE01.JPG,AFNE01.JPG,AFNE01.JPG,AFNE01.JPG,AFNE01.JPG,,,,,,,,,,,,,,,,,1,0,10,4,,,,,,,AFNE03.jpg,AFSA10.jpg,AFNE17.jpg,AFSA04.jpg,AFSA04.jpg,FS,4,num_4,32,num_8,0.766766897759,,,2017_Aug_25_1256,60.0154187015,FEMA4ImagesEEG,001,201201,
AFNE01.JPG,AFNE01.JPG,AFNE01.JPG,AFNE01.JPG,AFNE01.JPG,AFNE01.JPG,,,,,,,,,,,,,,,,,1,1,11,9,,,,,,,AFNE07.jpg,AFSA03.jpg,AFNE18.jpg,AFSA09.jpg,AFSA03.jpg,FS,4,num_6,32,num_4,0.900093174823,,,2017_Aug_25_1256,60.0154187015,FEMA4ImagesEEG,001,201201,
AFNE01.JPG,AFNE01.JPG,AFNE01.JPG,AFNE01.JPG,AFNE01.JPG,AFNE01.JPG,,,,,,,,,,,,,,,,,1,2,12,7,,,,,,,AFSA04.jpg,AFSA12.jpg,AFNE09.jpg,AFNE16.jpg,AFSA12.jpg,FS,4,num_6,16,num_6,0.700085797816,,,2017_Aug_25_1256,60.0154187015,FEMA4ImagesEEG,001,201201,
AFNE01.JPG,AFNE01.JPG,AFNE01.JPG,AFNE01.JPG,AFNE01.JPG,AFNE01.JPG,,,,,,,,,,,,,,,,,1,3,13,2,,,,,,,AFNE15.jpg,AFSA19.jpg,AFNE01.jpg,AFSA07.jpg,AFSA19.jpg,FS,4,num_6,32,num_8,0.916774515323,,,2017_Aug_25_1256,60.0154187015,FEMA4ImagesEEG,001,201201,
AFNE01.JPG,AFNE01.JPG,AFNE01.JPG,AFNE01.JPG,AFNE01.JPG,AFNE01.JPG,,,,,,,,,,,,,,,,,1,4,14,1,,,,,,,AFSA14.jpg,AFSA10.jpg,AFNE02.jpg,AFNE19.jpg,AFSA10.jpg,FS,4,num_6,32,num_8,0.916606127087,,,2017_Aug_25_1256,60.0154187015,FEMA4ImagesEEG,001,201201,
AFNE01.JPG,AFNE01.JPG,AFNE01.JPG,AFNE01.JPG,AFNE01.JPG,AFNE01.JPG,,,,,,,,,,,,,,,,,1,5,15,0,,,,,,,AFNE08.jpg,AFSA02.jpg,AFNE03.jpg,AFSA14.jpg,AFSA14.jpg,FS,4,num_4,32,num_6,0.750117310471,,,2017_Aug_25_1256,60.0154187015,FEMA4ImagesEEG,001,201201,
AFNE01.JPG,AFNE01.JPG,AFNE01.JPG,AFNE01.JPG,AFNE01.JPG,AFNE01.JPG,,,,,,,,,,,,,,,,,1,6,16,3,,,,,,,AFNE08.jpg,AFNE17.jpg,AFSA17.jpg,AFSA18.jpg,AFNE08.jpg,FN,3,num_8,16,num_8,0.83341175414,,,2017_Aug_25_1256,60.0154187015,FEMA4ImagesEEG,001,201201,
AFNE01.JPG,AFNE01.JPG,AFNE01.JPG,AFNE01.JPG,AFNE01.JPG,AFNE01.JPG,,,,,,,,,,,,,,,,,1,7,17,8,,,,,,,AFSA03.jpg,AFSA18.jpg,AFNE19.jpg,AFNE09.jpg,AFNE09.jpg,FN,3,num_4,32,num_8,1.25007192583,,,2017_Aug_25_1256,60.0154187015,FEMA4ImagesEEG,001,201201,
AFNE01.JPG,AFNE01.JPG,AFNE01.JPG,AFNE01.JPG,AFNE01.JPG,AFNE01.JPG,,,,,,,,,,,,,,,,,1,8,18,6,,,,,,,AFSA02.jpg,AFNE13.jpg,AFNE03.jpg,AFSA07.jpg,AFSA07.jpg,FS,4,num_4,32,num_8,0.733421536695,,,2017_Aug_25_1256,60.0154187015,FEMA4ImagesEEG,001,201201,
AFNE01.JPG,AFNE01.JPG,AFNE01.JPG,AFNE01.JPG,AFNE01.JPG,AFNE01.JPG,,,,,,,,,,,,,,,,,1,9,19,5,,,,,,,AFSA08.jpg,AFNE09.jpg,AFSA06.jpg,AFNE06.jpg,AFNE06.jpg,FN,3,num_4,32,num_8,0.816797448197,,,2017_Aug_25_1256,60.0154187015,FEMA4ImagesEEG,001,201201,
AFNE01.JPG,AFNE01.JPG,AFNE01.JPG,AFNE01.JPG,AFNE01.JPG,AFNE01.JPG,,,,,,,,,,,,,,,,,2,0,20,8,,,,,,,AFNE03.jpg,AFSA05.jpg,AFSA18.jpg,AFNE06.jpg,AFNE06.jpg,FN,3,num_4,32,num_6,1.016818617,,,2017_Aug_25_1256,60.0154187015,FEMA4ImagesEEG,001,201201,
AFNE01.JPG,AFNE01.JPG,AFNE01.JPG,AFNE01.JPG,AFNE01.JPG,AFNE01.JPG,,,,,,,,,,,,,,,,,2,1,21,9,,,,,,,AFNE11.jpg,AFNE09.jpg,AFSA05.jpg,AFSA20.jpg,AFSA20.jpg,FS,4,num_4,32,num_6,1.10015539829,,,2017_Aug_25_1256,60.0154187015,FEMA4ImagesEEG,001,201201,
AFNE01.JPG,AFNE01.JPG,AFNE01.JPG,AFNE01.JPG,AFNE01.JPG,AFNE01.JPG,,,,,,,,,,,,,,,,,2,2,22,5,,,,,,,AFSA11.jpg,AFSA17.jpg,AFNE19.jpg,AFNE10.jpg,AFNE10.jpg,FN,3,num_4,32,num_8,0.83343709256,,,2017_Aug_25_1256,60.0154187015,FEMA4ImagesEEG,001,201201,
AFNE01.JPG,AFNE01.JPG,AFNE01.JPG,AFNE01.JPG,AFNE01.JPG,AFNE01.JPG,,,,,,,,,,,,,,,,,2,3,23,4,,,,,,,AFSA13.jpg,AFNE11.jpg,AFSA16.jpg,AFNE16.jpg,AFNE16.jpg,FN,3,num_4,16,num_4,0.61676890238,,,2017_Aug_25_1256,60.0154187015,FEMA4ImagesEEG,001,201201,
AFNE01.JPG,AFNE01.JPG,AFNE01.JPG,AFNE01.JPG,AFNE01.JPG,AFNE01.JPG,,,,,,,,,,,,,,,,,2,4,24,1,,,,,,,AFNE06.jpg,AFNE07.jpg,AFSA04.jpg,AFSA19.jpg,AFNE06.jpg,FN,3,num_8,32,num_4,1.0667587189,,,2017_Aug_25_1256,60.0154187015,FEMA4ImagesEEG,001,201201,
AFNE01.JPG,AFNE01.JPG,AFNE01.JPG,AFNE01.JPG,AFNE01.JPG,AFNE01.JPG,,,,,,,,,,,,,,,,,2,5,25,0,,,,,,,AFSA07.jpg,AFNE05.jpg,AFNE18.jpg,AFSA11.jpg,AFSA11.jpg,FS,4,num_4,32,num_2,2.0167714683,,,2017_Aug_25_1256,60.0154187015,FEMA4ImagesEEG,001,201201,
AFNE01.JPG,AFNE01.JPG,AFNE01.JPG,AFNE01.JPG,AFNE01.JPG,AFNE01.JPG,,,,,,,,,,,,,,,,,2,6,26,7,,,,,,,AFNE05.jpg,AFNE15.jpg,AFSA12.jpg,AFSA08.jpg,AFNE15.jpg,FN,3,num_6,32,num_4,0.800122201748,,,2017_Aug_25_1256,60.0154187015,FEMA4ImagesEEG,001,201201,
AFNE01.JPG,AFNE01.JPG,AFNE01.JPG,AFNE01.JPG,AFNE01.JPG,AFNE01.JPG,,,,,,,,,,,,,,,,,2,7,27,6,,,,,,,AFSA18.jpg,AFNE06.jpg,AFNE13.jpg,AFSA06.jpg,AFSA18.jpg,FS,4,num_8,16,num_8,0.466786943977,,,2017_Aug_25_1256,60.0154187015,FEMA4ImagesEEG,001,201201,
AFNE01.JPG,AFNE01.JPG,AFNE01.JPG,AFNE01.JPG,AFNE01.JPG,AFNE01.JPG,,,,,,,,,,,,,,,,,2,8,28,2,,,,,,,AFSA14.jpg,AFNE17.jpg,AFNE16.jpg,AFSA15.jpg,AFSA15.jpg,FS,4,num_4,32,num_2,1.06676705813,,,2017_Aug_25_1256,60.0154187015,FEMA4ImagesEEG,001,201201,
AFNE01.JPG,AFNE01.JPG,AFNE01.JPG,AFNE01.JPG,AFNE01.JPG,AFNE01.JPG,,,,,,,,,,,,,,,,,2,9,29,3,,,,,,,AFSA10.jpg,AFNE06.jpg,AFSA09.jpg,AFNE07.jpg,AFSA10.jpg,FS,4,num_8,16,num_8,0.850127413765,,,2017_Aug_25_1256,60.0154187015,FEMA4ImagesEEG,001,201201,
AFNE01.JPG,AFNE01.JPG,AFNE01.JPG,AFNE01.JPG,AFNE01.JPG,AFNE01.JPG,,,,,,,,,,,,,,,,,3,0,30,0,,,,,,,AFSA16.jpg,AFSA03.jpg,AFNE01.jpg,AFNE06.jpg,AFSA03.jpg,FS,4,num_6,32,num_8,1.0667725107,,,2017_Aug_25_1256,60.0154187015,FEMA4ImagesEEG,001,201201,
AFNE01.JPG,AFNE01.JPG,AFNE01.JPG,AFNE01.JPG,AFNE01.JPG,AFNE01.JPG,,,,,,,,,,,,,,,,,3,1,31,3,,,,,,,AFSA07.jpg,AFSA08.jpg,AFNE17.jpg,AFNE19.jpg,AFNE19.jpg,FN,3,num_4,32,num_6,0.733473817233,,,2017_Aug_25_1256,60.0154187015,FEMA4ImagesEEG,001,201201,
AFNE01.JPG,AFNE01.JPG,AFNE01.JPG,AFNE01.JPG,AFNE01.JPG,AFNE01.JPG,,,,,,,,,,,,,,,,,3,2,32,2,,,,,,,AFSA02.jpg,AFSA09.jpg,AFNE15.jpg,AFNE10.jpg,AFNE15.jpg,FN,3,num_2,32,num_4,0.983418730225,,,2017_Aug_25_1256,60.0154187015,FEMA4ImagesEEG,001,201201,
AFNE01.JPG,AFNE01.JPG,AFNE01.JPG,AFNE01.JPG,AFNE01.JPG,AFNE01.JPG,,,,,,,,,,,,,,,,,3,3,33,9,,,,,,,AFSA05.jpg,AFSA08.jpg,AFNE20.jpg,AFNE07.jpg,AFNE20.jpg,FN,3,num_2,32,num_8,0.683412155065,,,2017_Aug_25_1256,60.0154187015,FEMA4ImagesEEG,001,201201,
AFNE01.JPG,AFNE01.JPG,AFNE01.JPG,AFNE01.JPG,AFNE01.JPG,AFNE01.JPG,,,,,,,,,,,,,,,,,3,4,34,4,,,,,,,AFSA01.jpg,AFSA18.jpg,AFNE05.jpg,AFNE19.jpg,AFNE19.jpg,FN,3,num_4,16,num_4,0.666769624045,,,2017_Aug_25_1256,60.0154187015,FEMA4ImagesEEG,001,201201,
AFNE01.JPG,AFNE01.JPG,AFNE01.JPG,AFNE01.JPG,AFNE01.JPG,AFNE01.JPG,,,,,,,,,,,,,,,,,3,5,35,5,,,,,,,AFNE20.jpg,AFNE13.jpg,AFSA10.jpg,AFSA11.jpg,AFNE20.jpg,FN,3,num_8,16,num_8,1.00003784726,,,2017_Aug_25_1256,60.0154187015,FEMA4ImagesEEG,001,201201,
AFNE01.JPG,AFNE01.JPG,AFNE01.JPG,AFNE01.JPG,AFNE01.JPG,AFNE01.JPG,,,,,,,,,,,,,,,,,3,6,36,6,,,,,,,AFSA09.jpg,AFSA17.jpg,AFNE08.jpg,AFNE16.jpg,AFSA09.jpg,FS,4,num_8,16,num_8,1.15011442382,,,2017_Aug_25_1256,60.0154187015,FEMA4ImagesEEG,001,201201,
AFNE01.JPG,AFNE01.JPG,AFNE01.JPG,AFNE01.JPG,AFNE01.JPG,AFNE01.JPG,,,,,,,,,,,,,,,,,3,7,37,7,,,,,,,AFNE15.jpg,AFNE14.jpg,AFSA01.jpg,AFSA15.jpg,AFNE14.jpg,FN,3,num_6,32,num_4,1.16672969198,,,2017_Aug_25_1256,60.0154187015,FEMA4ImagesEEG,001,201201,
AFNE01.JPG,AFNE01.JPG,AFNE01.JPG,AFNE01.JPG,AFNE01.JPG,AFNE01.JPG,,,,,,,,,,,,,,,,,3,8,38,1,,,,,,,AFSA18.jpg,AFSA02.jpg,AFNE04.jpg,AFNE19.jpg,AFNE04.jpg,FN,3,num_2,16,num_2,1.15009774536,,,2017_Aug_25_1256,60.0154187015,FEMA4ImagesEEG,001,201201,
AFNE01.JPG,AFNE01.JPG,AFNE01.JPG,AFNE01.JPG,AFNE01.JPG,AFNE01.JPG,,,,,,,,,,,,,,,,,3,9,39,8,,,,,,,AFSA12.jpg,AFNE16.jpg,AFSA01.jpg,AFNE07.jpg,AFSA01.jpg,FS,4,num_2,32,num_8,0.783416805787,,,2017_Aug_25_1256,60.0154187015,FEMA4ImagesEEG,001,201201,
AFNE01.JPG,AFNE01.JPG,AFNE01.JPG,AFNE01.JPG,AFNE01.JPG,AFNE01.JPG,,,,,,,,,,,,,,,,,4,0,40,9,,,,,,,AFSA09.jpg,AFNE19.jpg,AFNE01.jpg,AFSA14.jpg,AFSA09.jpg,FS,4,num_8,16,num_8,1.3333923494,,,2017_Aug_25_1256,60.0154187015,FEMA4ImagesEEG,001,201201,
AFNE01.JPG,AFNE01.JPG,AFNE01.JPG,AFNE01.JPG,AFNE01.JPG,AFNE01.JPG,,,,,,,,,,,,,,,,,4,1,41,7,,,,,,,AFSA04.jpg,AFNE03.jpg,AFSA01.jpg,AFNE19.jpg,AFSA04.jpg,FS,4,num_8,16,num_8,0.816772109777,,,2017_Aug_25_1256,60.0154187015,FEMA4ImagesEEG,001,201201,
AFNE01.JPG,AFNE01.JPG,AFNE01.JPG,AFNE01.JPG,AFNE01.JPG,AFNE01.JPG,,,,,,,,,,,,,,,,,4,2,42,3,,,,,,,AFNE01.jpg,AFSA03.jpg,AFNE07.jpg,AFSA05.jpg,AFNE01.jpg,FN,3,num_8,16,num_8,0.733467723182,,,2017_Aug_25_1256,60.0154187015,FEMA4ImagesEEG,001,201201,
AFNE01.JPG,AFNE01.JPG,AFNE01.JPG,AFNE01.JPG,AFNE01.JPG,AFNE01.JPG,,,,,,,,,,,,,,,,,4,3,43,0,,,,,,,AFSA04.jpg,AFNE01.jpg,AFSA01.jpg,AFNE13.jpg,AFSA01.jpg,FS,4,num_2,32,num_8,1.30010824958,,,2017_Aug_25_1256,60.0154187015,FEMA4ImagesEEG,001,201201,
AFNE01.JPG,AFNE01.JPG,AFNE01.JPG,AFNE01.JPG,AFNE01.JPG,AFNE01.JPG,,,,,,,,,,,,,,,,,4,4,44,6,,,,,,,AFSA07.jpg,AFSA14.jpg,AFNE11.jpg,AFNE14.jpg,AFNE11.jpg,FN,3,num_2,16,num_2,0.783508537284,,,2017_Aug_25_1256,60.0154187015,FEMA4ImagesEEG,001,201201,
AFNE01.JPG,AFNE01.JPG,AFNE01.JPG,AFNE01.JPG,AFNE01.JPG,AFNE01.JPG,,,,,,,,,,,,,,,,,4,5,45,5,,,,,,,AFSA08.jpg,AFNE17.jpg,AFNE03.jpg,AFSA17.jpg,AFSA08.jpg,FS,4,num_8,32,num_4,1.00008756188,,,2017_Aug_25_1256,60.0154187015,FEMA4ImagesEEG,001,201201,
AFNE01.JPG,AFNE01.JPG,AFNE01.JPG,AFNE01.JPG,AFNE01.JPG,AFNE01.JPG,,,,,,,,,,,,,,,,,4,6,46,1,,,,,,,AFNE10.jpg,AFSA08.jpg,AFNE02.jpg,AFSA05.jpg,AFNE02.jpg,FN,3,num_2,32,num_8,0.733455535082,,,2017_Aug_25_1256,60.0154187015,FEMA4ImagesEEG,001,201201,
AFNE01.JPG,AFNE01.JPG,AFNE01.JPG,AFNE01.JPG,AFNE01.JPG,AFNE01.JPG,,,,,,,,,,,,,,,,,4,7,47,2,,,,,,,AFSA14.jpg,AFSA16.jpg,AFNE07.jpg,AFNE17.jpg,AFSA16.jpg,FS,4,num_6,32,num_4,1.40009686333,,,2017_Aug_25_1256,60.0154187015,FEMA4ImagesEEG,001,201201,
AFNE01.JPG,AFNE01.JPG,AFNE01.JPG,AFNE01.JPG,AFNE01.JPG,AFNE01.JPG,,,,,,,,,,,,,,,,,4,8,48,8,,,,,,,AFNE07.jpg,AFNE01.jpg,AFSA16.jpg,AFSA06.jpg,AFNE01.jpg,FN,3,num_6,32,num_4,0.916760723524,,,2017_Aug_25_1256,60.0154187015,FEMA4ImagesEEG,001,201201,
AFNE01.JPG,AFNE01.JPG,AFNE01.JPG,AFNE01.JPG,AFNE01.JPG,AFNE01.JPG,,,,,,,,,,,,,,,,,4,9,49,4,,,,,,,AFSA20.jpg,AFNE20.jpg,AFNE08.jpg,AFSA12.jpg,AFSA20.jpg,FS,4,num_8,32,num_6,1.6166935286,,,2017_Aug_25_1256,60.0154187015,FEMA4ImagesEEG,001,201201,
AFNE01.JPG,AFNE01.JPG,AFNE01.JPG,AFNE01.JPG,AFNE01.JPG,AFNE01.JPG,,,,,,,,,,,,,,,,,5,0,50,7,,,,,,,AFSA01.jpg,AFNE06.jpg,AFNE04.jpg,AFSA03.jpg,AFNE06.jpg,FN,3,num_6,32,num_2,4.41649370789,,,2017_Aug_25_1256,60.0154187015,FEMA4ImagesEEG,001,201201,
AFNE01.JPG,AFNE01.JPG,AFNE01.JPG,AFNE01.JPG,AFNE01.JPG,AFNE01.JPG,,,,,,,,,,,,,,,,,5,1,51,3,,,,,,,AFSA09.jpg,AFNE17.jpg,AFNE19.jpg,AFSA05.jpg,AFSA09.jpg,FS,4,num_8,32,num_4,1.23309582574,,,2017_Aug_25_1256,60.0154187015,FEMA4ImagesEEG,001,201201,
AFNE01.JPG,AFNE01.JPG,AFNE01.JPG,AFNE01.JPG,AFNE01.JPG,AFNE01.JPG,,,,,,,,,,,,,,,,,5,2,52,6,,,,,,,AFSA11.jpg,AFNE15.jpg,AFNE20.jpg,AFSA14.jpg,AFSA11.jpg,FS,4,num_8,16,num_8,0.916809155188,,,2017_Aug_25_1256,60.0154187015,FEMA4ImagesEEG,001,201201,
AFNE01.JPG,AFNE01.JPG,AFNE01.JPG,AFNE01.JPG,AFNE01.JPG,AFNE01.JPG,,,,,,,,,,,,,,,,,5,3,53,4,,,,,,,AFNE18.jpg,AFSA01.jpg,AFSA05.jpg,AFNE16.jpg,AFSA05.jpg,FS,4,num_2,16,num_2,0.616822465877,,,2017_Aug_25_1256,60.0154187015,FEMA4ImagesEEG,001,201201,
AFNE01.JPG,AFNE01.JPG,AFNE01.JPG,AFNE01.JPG,AFNE01.JPG,AFNE01.JPG,,,,,,,,,,,,,,,,,5,4,54,8,,,,,,,AFSA16.jpg,AFNE03.jpg,AFSA19.jpg,AFNE05.jpg,AFSA16.jpg,FS,4,num_8,32,num_4,0.867022366769,,,2017_Aug_25_1256,60.0154187015,FEMA4ImagesEEG,001,201201,
AFNE01.JPG,AFNE01.JPG,AFNE01.JPG,AFNE01.JPG,AFNE01.JPG,AFNE01.JPG,,,,,,,,,,,,,,,,,5,5,55,1,,,,,,,AFNE04.jpg,AFSA02.jpg,AFNE18.jpg,AFSA01.jpg,AFNE18.jpg,FN,3,num_2,32,num_4,1.41677467569,,,2017_Aug_25_1256,60.0154187015,FEMA4ImagesEEG,001,201201,
AFNE01.JPG,AFNE01.JPG,AFNE01.JPG,AFNE01.JPG,AFNE01.JPG,AFNE01.JPG,,,,,,,,,,,,,,,,,5,6,56,9,,,,,,,AFSA13.jpg,AFNE02.jpg,AFNE05.jpg,AFSA04.jpg,AFSA04.jpg,FS,4,num_4,16,num_4,1.4500805858,,,2017_Aug_25_1256,60.0154187015,FEMA4ImagesEEG,001,201201,
AFNE01.JPG,AFNE01.JPG,AFNE01.JPG,AFNE01.JPG,AFNE01.JPG,AFNE01.JPG,,,,,,,,,,,,,,,,,5,7,57,0,,,,,,,AFSA15.jpg,AFSA19.jpg,AFNE13.jpg,AFNE06.jpg,AFSA15.jpg,FS,4,num_8,16,num_8,0.750114744556,,,2017_Aug_25_1256,60.0154187015,FEMA4ImagesEEG,001,201201,
AFNE01.JPG,AFNE01.JPG,AFNE01.JPG,AFNE01.JPG,AFNE01.JPG,AFNE01.JPG,,,,,,,,,,,,,,,,,5,8,58,2,,,,,,,AFSA01.jpg,AFNE08.jpg,AFSA06.jpg,AFNE11.jpg,AFNE08.jpg,FN,3,num_6,32,num_8,0.633404377131,,,2017_Aug_25_1256,60.0154187015,FEMA4ImagesEEG,001,201201,
AFNE01.JPG,AFNE01.JPG,AFNE01.JPG,AFNE01.JPG,AFNE01.JPG,AFNE01.JPG,,,,,,,,,,,,,,,,,5,9,59,5,,,,,,,AFSA06.jpg,AFSA15.jpg,AFNE07.jpg,AFNE15.jpg,AFSA15.jpg,FS,4,num_6,16,num_6,0.816763129071,,,2017_Aug_25_1256,60.0154187015,FEMA4ImagesEEG,001,201201,
,,,,,,,,,,,,,,,,,,,,,,,,,,,,,,,,,,,,,,,,,,,space,2.11669914154,2017_Aug_25_1256,60.0154187015,FEMA4ImagesEEG,001,201201,
AFNE01.JPG,AFNE01.JPG,AFNE01.JPG,AFNE01.JPG,AFNE01.JPG,AFNE01.JPG,,,,,,,,,,,,,,,,,,,,,0,0,0,3,,,AMSA08.jpg,AMNE05.jpg,AMNE20.jpg,AMSA07.jpg,AMNE05.jpg,MN,1,num_6,32,num_8,0.750151950337,,,2017_Aug_25_1256,60.0154187015,FEMA4ImagesEEG,001,201201,
AFNE01.JPG,AFNE01.JPG,AFNE01.JPG,AFNE01.JPG,AFNE01.JPG,AFNE01.JPG,,,,,,,,,,,,,,,,,,,,,0,1,1,7,,,AMSA17.jpg,AMNE02.jpg,AMNE03.jpg,AMSA09.jpg,AMNE02.jpg,MN,1,num_6,16,num_6,0.766761765927,,,2017_Aug_25_1256,60.0154187015,FEMA4ImagesEEG,001,201201,
AFNE01.JPG,AFNE01.JPG,AFNE01.JPG,AFNE01.JPG,AFNE01.JPG,AFNE01.JPG,,,,,,,,,,,,,,,,,,,,,0,2,2,0,,,AMNE03.jpg,AMSA06.jpg,AMSA16.jpg,AMNE01.jpg,AMSA06.jpg,MS,2,num_6,32,num_8,1.01673875287,,,2017_Aug_25_1256,60.0154187015,FEMA4ImagesEEG,001,201201,
AFNE01.JPG,AFNE01.JPG,AFNE01.JPG,AFNE01.JPG,AFNE01.JPG,AFNE01.JPG,,,,,,,,,,,,,,,,,,,,,0,3,3,4,,,AMNE04.jpg,AMSA02.jpg,AMSA12.jpg,AMNE03.jpg,AMNE03.jpg,MN,1,num_4,32,num_2,0.733298693468,,,2017_Aug_25_1256,60.0154187015,FEMA4ImagesEEG,001,201201,
AFNE01.JPG,AFNE01.JPG,AFNE01.JPG,AFNE01.JPG,AFNE01.JPG,AFNE01.JPG,,,,,,,,,,,,,,,,,,,,,0,4,4,5,,,AMNE02.jpg,AMSA15.jpg,AMNE14.jpg,AMSA19.jpg,AMSA19.jpg,MS,2,num_4,32,num_6,0.683446474191,,,2017_Aug_25_1256,60.0154187015,FEMA4ImagesEEG,001,201201,
AFNE01.JPG,AFNE01.JPG,AFNE01.JPG,AFNE01.JPG,AFNE01.JPG,AFNE01.JPG,,,,,,,,,,,,,,,,,,,,,0,5,5,2,,,AMSA08.jpg,AMNE08.jpg,AMSA13.jpg,AMNE17.jpg,AMSA08.jpg,MS,2,num_8,32,num_2,0.783497632141,,,2017_Aug_25_1256,60.0154187015,FEMA4ImagesEEG,001,201201,
AFNE01.JPG,AFNE01.JPG,AFNE01.JPG,AFNE01.JPG,AFNE01.JPG,AFNE01.JPG,,,,,,,,,,,,,,,,,,,,,0,6,6,6,,,AMSA20.jpg,AMSA19.jpg,AMNE05.jpg,AMNE14.jpg,AMNE14.jpg,MN,1,num_4,32,num_2,0.68348496293,,,2017_Aug_25_1256,60.0154187015,FEMA4ImagesEEG,001,201201,
AFNE01.JPG,AFNE01.JPG,AFNE01.JPG,AFNE01.JPG,AFNE01.JPG,AFNE01.JPG,,,,,,,,,,,,,,,,,,,,,0,7,7,9,,,AMSA08.jpg,AMSA19.jpg,AMNE18.jpg,AMNE15.jpg,AMNE15.jpg,MN,1,num_4,32,num_2,0.750173119144,,,2017_Aug_25_1256,60.0154187015,FEMA4ImagesEEG,001,201201,
AFNE01.JPG,AFNE01.JPG,AFNE01.JPG,AFNE01.JPG,AFNE01.JPG,AFNE01.JPG,,,,,,,,,,,,,,,,,,,,,0,8,8,8,,,AMNE13.jpg,AMNE08.jpg,AMSA12.jpg,AMSA04.jpg,AMSA12.jpg,MS,2,num_2,32,num_8,0.816799693373,,,2017_Aug_25_1256,60.0154187015,FEMA4ImagesEEG,001,201201,
AFNE01.JPG,AFNE01.JPG,AFNE01.JPG,AFNE01.JPG,AFNE01.JPG,AFNE01.JPG,,,,,,,,,,,,,,,,,,,,,0,9,9,1,,,AMSA19.jpg,AMSA12.jpg,AMNE20.jpg,AMNE18.jpg,AMNE18.jpg,MN,1,num_4,32,num_8,0.783493783267,,,2017_Aug_25_1256,60.0154187015,FEMA4ImagesEEG,001,201201,
AFNE01.JPG,AFNE01.JPG,AFNE01.JPG,AFNE01.JPG,AFNE01.JPG,AFNE01.JPG,,,,,,,,,,,,,,,,,,,,,1,0,10,5,,,AMSA14.jpg,AMNE13.jpg,AMNE19.jpg,AMSA04.jpg,AMSA04.jpg,MS,2,num_4,32,num_8,1.16673225789,,,2017_Aug_25_1256,60.0154187015,FEMA4ImagesEEG,001,201201,
AFNE01.JPG,AFNE01.JPG,AFNE01.JPG,AFNE01.JPG,AFNE01.JPG,AFNE01.JPG,,,,,,,,,,,,,,,,,,,,,1,1,11,0,,,AMNE12.jpg,AMNE15.jpg,AMSA14.jpg,AMSA15.jpg,AMNE15.jpg,MN,1,num_6,16,num_6,0.900107928841,,,2017_Aug_25_1256,60.0154187015,FEMA4ImagesEEG,001,201201,
AFNE01.JPG,AFNE01.JPG,AFNE01.JPG,AFNE01.JPG,AFNE01.JPG,AFNE01.JPG,,,,,,,,,,,,,,,,,,,,,1,2,12,8,,,AMSA01.jpg,AMNE20.jpg,AMNE07.jpg,AMSA20.jpg,AMNE07.jpg,MN,1,num_2,32,num_6,0.733484080897,,,2017_Aug_25_1256,60.0154187015,FEMA4ImagesEEG,001,201201,
AFNE01.JPG,AFNE01.JPG,AFNE01.JPG,AFNE01.JPG,AFNE01.JPG,AFNE01.JPG,,,,,,,,,,,,,,,,,,,,,1,3,13,2,,,AMSA16.jpg,AMNE03.jpg,AMSA01.jpg,AMNE07.jpg,AMSA16.jpg,MS,2,num_8,32,num_6,0.783317055804,,,2017_Aug_25_1256,60.0154187015,FEMA4ImagesEEG,001,201201,
AFNE01.JPG,AFNE01.JPG,AFNE01.JPG,AFNE01.JPG,AFNE01.JPG,AFNE01.JPG,,,,,,,,,,,,,,,,,,,,,1,4,14,1,,,AMSA17.jpg,AMNE05.jpg,AMSA08.jpg,AMNE09.jpg,AMSA08.jpg,MS,2,num_2,16,num_2,0.950090047614,,,2017_Aug_25_1256,60.0154187015,FEMA4ImagesEEG,001,201201,
AFNE01.JPG,AFNE01.JPG,AFNE01.JPG,AFNE01.JPG,AFNE01.JPG,AFNE01.JPG,,,,,,,,,,,,,,,,,,,,,1,5,15,6,,,AMNE16.jpg,AMSA01.jpg,AMSA12.jpg,AMNE09.jpg,AMSA12.jpg,MS,2,num_2,16,num_2,0.883494905856,,,2017_Aug_25_1256,60.0154187015,FEMA4ImagesEEG,001,201201,
AFNE01.JPG,AFNE01.JPG,AFNE01.JPG,AFNE01.JPG,AFNE01.JPG,AFNE01.JPG,,,,,,,,,,,,,,,,,,,,,1,6,16,7,,,AMSA18.jpg,AMNE04.jpg,AMNE16.jpg,AMSA07.jpg,AMSA07.jpg,MS,2,num_4,32,num_6,3.01687538789,,,2017_Aug_25_1256,60.0154187015,FEMA4ImagesEEG,001,201201,
AFNE01.JPG,AFNE01.JPG,AFNE01.JPG,AFNE01.JPG,AFNE01.JPG,AFNE01.JPG,,,,,,,,,,,,,,,,,,,,,1,7,17,9,,,AMNE03.jpg,AMNE08.jpg,AMSA16.jpg,AMSA10.jpg,AMSA10.jpg,MS,2,num_4,32,num_2,1.00008499597,,,2017_Aug_25_1256,60.0154187015,FEMA4ImagesEEG,001,201201,
AFNE01.JPG,AFNE01.JPG,AFNE01.JPG,AFNE01.JPG,AFNE01.JPG,AFNE01.JPG,,,,,,,,,,,,,,,,,,,,,1,8,18,4,,,AMNE18.jpg,AMSA17.jpg,AMNE19.jpg,AMSA04.jpg,AMSA17.jpg,MS,2,num_6,32,num_8,1.35011442382,,,2017_Aug_25_1256,60.0154187015,FEMA4ImagesEEG,001,201201,
AFNE01.JPG,AFNE01.JPG,AFNE01.JPG,AFNE01.JPG,AFNE01.JPG,AFNE01.JPG,,,,,,,,,,,,,,,,,,,,,1,9,19,3,,,AMSA16.jpg,AMSA02.jpg,AMNE03.jpg,AMNE13.jpg,AMNE03.jpg,MN,1,num_2,16,num_2,0.666788868415,,,2017_Aug_25_1256,60.0154187015,FEMA4ImagesEEG,001,201201,
AFNE01.JPG,AFNE01.JPG,AFNE01.JPG,AFNE01.JPG,AFNE01.JPG,AFNE01.JPG,,,,,,,,,,,,,,,,,,,,,2,0,20,0,,,AMSA12.jpg,AMNE03.jpg,AMNE02.jpg,AMSA08.jpg,AMNE03.jpg,MN,1,num_6,32,num_2,0.800461544137,,,2017_Aug_25_1256,60.0154187015,FEMA4ImagesEEG,001,201201,
AFNE01.JPG,AFNE01.JPG,AFNE01.JPG,AFNE01.JPG,AFNE01.JPG,AFNE01.JPG,,,,,,,,,,,,,,,,,,,,,2,1,21,1,,,AMNE18.jpg,AMNE16.jpg,AMSA17.jpg,AMSA07.jpg,AMNE18.jpg,MN,1,num_8,16,num_8,1.00016069049,,,2017_Aug_25_1256,60.0154187015,FEMA4ImagesEEG,001,201201,
AFNE01.JPG,AFNE01.JPG,AFNE01.JPG,AFNE01.JPG,AFNE01.JPG,AFNE01.JPG,,,,,,,,,,,,,,,,,,,,,2,2,22,8,,,AMNE07.jpg,AMSA18.jpg,AMNE08.jpg,AMSA05.jpg,AMSA18.jpg,MS,2,num_6,32,num_8,1.05015339366,,,2017_Aug_25_1256,60.0154187015,FEMA4ImagesEEG,001,201201,
AFNE01.JPG,AFNE01.JPG,AFNE01.JPG,AFNE01.JPG,AFNE01.JPG,AFNE01.JPG,,,,,,,,,,,,,,,,,,,,,2,3,23,4,,,AMNE13.jpg,AMSA04.jpg,AMNE15.jpg,AMSA20.jpg,AMNE15.jpg,MN,1,num_2,16,num_2,0.483487849586,,,2017_Aug_25_1256,60.0154187015,FEMA4ImagesEEG,001,201201,
AFNE01.JPG,AFNE01.JPG,AFNE01.JPG,AFNE01.JPG,AFNE01.JPG,AFNE01.JPG,,,,,,,,,,,,,,,,,,,,,2,4,24,6,,,AMNE03.jpg,AMSA04.jpg,AMNE05.jpg,AMSA08.jpg,AMSA04.jpg,MS,2,num_6,16,num_6,0.733174567283,,,2017_Aug_25_1256,60.0154187015,FEMA4ImagesEEG,001,201201,
AFNE01.JPG,AFNE01.JPG,AFNE01.JPG,AFNE01.JPG,AFNE01.JPG,AFNE01.JPG,,,,,,,,,,,,,,,,,,,,,2,5,25,7,,,AMNE12.jpg,AMSA16.jpg,AMNE15.jpg,AMSA14.jpg,AMSA14.jpg,MS,2,num_4,16,num_4,1.53341095229,,,2017_Aug_25_1256,60.0154187015,FEMA4ImagesEEG,001,201201,
AFNE01.JPG,AFNE01.JPG,AFNE01.JPG,AFNE01.JPG,AFNE01.JPG,AFNE01.JPG,,,,,,,,,,,,,,,,,,,,,2,6,26,2,,,AMSA19.jpg,AMSA04.jpg,AMNE14.jpg,AMNE12.jpg,AMNE12.jpg,MN,1,num_4,32,num_8,1.48342819204,,,2017_Aug_25_1256,60.0154187015,FEMA4ImagesEEG,001,201201,
AFNE01.JPG,AFNE01.JPG,AFNE01.JPG,AFNE01.JPG,AFNE01.JPG,AFNE01.JPG,,,,,,,,,,,,,,,,,,,,,2,7,27,5,,,AMNE20.jpg,AMNE04.jpg,AMSA14.jpg,AMSA08.jpg,AMSA14.jpg,MS,2,num_2,16,num_2,2.68330599029,,,2017_Aug_25_1256,60.0154187015,FEMA4ImagesEEG,001,201201,
AFNE01.JPG,AFNE01.JPG,AFNE01.JPG,AFNE01.JPG,AFNE01.JPG,AFNE01.JPG,,,,,,,,,,,,,,,,,,,,,2,8,28,9,,,AMSA02.jpg,AMNE09.jpg,AMNE12.jpg,AMSA08.jpg,AMSA08.jpg,MS,2,num_4,16,num_4,1.56670178764,,,2017_Aug_25_1256,60.0154187015,FEMA4ImagesEEG,001,201201,
AFNE01.JPG,AFNE01.JPG,AFNE01.JPG,AFNE01.JPG,AFNE01.JPG,AFNE01.JPG,,,,,,,,,,,,,,,,,,,,,2,9,29,3,,,AMSA01.jpg,AMSA17.jpg,AMNE08.jpg,AMNE14.jpg,AMNE14.jpg,MN,1,num_4,32,num_6,0.700104079967,,,2017_Aug_25_1256,60.0154187015,FEMA4ImagesEEG,001,201201,
AFNE01.JPG,AFNE01.JPG,AFNE01.JPG,AFNE01.JPG,AFNE01.JPG,AFNE01.JPG,,,,,,,,,,,,,,,,,,,,,3,0,30,3,,,AMNE17.jpg,AMSA12.jpg,AMSA01.jpg,AMNE05.jpg,AMSA12.jpg,MS,2,num_6,16,num_6,0.783458501923,,,2017_Aug_25_1256,60.0154187015,FEMA4ImagesEEG,001,201201,
AFNE01.JPG,AFNE01.JPG,AFNE01.JPG,AFNE01.JPG,AFNE01.JPG,AFNE01.JPG,,,,,,,,,,,,,,,,,,,,,3,1,31,5,,,AMSA10.jpg,AMNE13.jpg,AMSA06.jpg,AMNE18.jpg,AMSA10.jpg,MS,2,num_8,32,num_6,0.80011482474,,,2017_Aug_25_1256,60.0154187015,FEMA4ImagesEEG,001,201201,
AFNE01.JPG,AFNE01.JPG,AFNE01.JPG,AFNE01.JPG,AFNE01.JPG,AFNE01.JPG,,,,,,,,,,,,,,,,,,,,,3,2,32,2,,,AMNE10.jpg,AMNE02.jpg,AMSA06.jpg,AMSA04.jpg,AMSA06.jpg,MS,2,num_2,16,num_2,0.550145214806,,,2017_Aug_25_1256,60.0154187015,FEMA4ImagesEEG,001,201201,
AFNE01.JPG,AFNE01.JPG,AFNE01.JPG,AFNE01.JPG,AFNE01.JPG,AFNE01.JPG,,,,,,,,,,,,,,,,,,,,,3,3,33,6,,,AMNE08.jpg,AMSA02.jpg,AMNE12.jpg,AMSA17.jpg,AMSA17.jpg,MS,2,num_4,32,num_8,0.683309839165,,,2017_Aug_25_1256,60.0154187015,FEMA4ImagesEEG,001,201201,
AFNE01.JPG,AFNE01.JPG,AFNE01.JPG,AFNE01.JPG,AFNE01.JPG,AFNE01.JPG,,,,,,,,,,,,,,,,,,,,,3,4,34,8,,,AMNE09.jpg,AMSA06.jpg,AMSA02.jpg,AMNE03.jpg,AMSA06.jpg,MS,2,num_6,32,num_4,0.816734262516,,,2017_Aug_25_1256,60.0154187015,FEMA4ImagesEEG,001,201201,
AFNE01.JPG,AFNE01.JPG,AFNE01.JPG,AFNE01.JPG,AFNE01.JPG,AFNE01.JPG,,,,,,,,,,,,,,,,,,,,,3,5,35,1,,,AMNE16.jpg,AMSA17.jpg,AMNE07.jpg,AMSA12.jpg,AMNE16.jpg,MN,1,num_8,16,num_8,0.700230130589,,,2017_Aug_25_1256,60.0154187015,FEMA4ImagesEEG,001,201201,
AFNE01.JPG,AFNE01.JPG,AFNE01.JPG,AFNE01.JPG,AFNE01.JPG,AFNE01.JPG,,,,,,,,,,,,,,,,,,,,,3,6,36,0,,,AMNE20.jpg,AMSA06.jpg,AMSA05.jpg,AMNE03.jpg,AMSA05.jpg,MS,2,num_2,32,num_8,0.883443587535,,,2017_Aug_25_1256,60.0154187015,FEMA4ImagesEEG,001,201201,
AFNE01.JPG,AFNE01.JPG,AFNE01.JPG,AFNE01.JPG,AFNE01.JPG,AFNE01.JPG,,,,,,,,,,,,,,,,,,,,,3,7,37,4,,,AMSA14.jpg,AMNE01.jpg,AMSA03.jpg,AMNE10.jpg,AMNE10.jpg,MN,1,num_4,32,num_2,0.766786783608,,,2017_Aug_25_1256,60.0154187015,FEMA4ImagesEEG,001,201201,
AFNE01.JPG,AFNE01.JPG,AFNE01.JPG,AFNE01.JPG,AFNE01.JPG,AFNE01.JPG,,,,,,,,,,,,,,,,,,,,,3,8,38,7,,,AMSA04.jpg,AMSA11.jpg,AMNE12.jpg,AMNE04.jpg,AMSA04.jpg,MS,2,num_8,16,num_8,0.666983878029,,,2017_Aug_25_1256,60.0154187015,FEMA4ImagesEEG,001,201201,
