IPosition2,IPosition3,IPosition1,IPosition6,IPosition4,IPosition5,TrialsM1.thisRepN,TrialsM1.thisTrialN,TrialsM1.thisN,TrialsM1.thisIndex,TrialsF1.thisRepN,TrialsF1.thisTrialN,TrialsF1.thisN,TrialsF1.thisIndex,TrialsM2.thisRepN,TrialsM2.thisTrialN,TrialsM2.thisN,TrialsM2.thisIndex,TrialsF2.thisRepN,TrialsF2.thisTrialN,TrialsF2.thisN,TrialsF2.thisIndex,TrialsM3.thisRepN,TrialsM3.thisTrialN,TrialsM3.thisN,TrialsM3.thisIndex,TrialsF3.thisRepN,TrialsF3.thisTrialN,TrialsF3.thisN,TrialsF3.thisIndex,InstrKey_resp.keys,InstrKey_resp.rt,Image0 _Position,Image1 _Position,Image2 _Position,Image3 _Position,Center_image,condition,code,correct_answer,accuracy,Key_Resp.keys,Key_Resp.rt,BreakKey_resp.keys,BreakKey_resp.rt,date,frameRate,expName,session,participant,
,,,,,,,,,,,,,,,,,,,,,,,,,,,,,,space,21.1657717494,,,,,,,,,,,,,,2017_Aug_30_1717,60.0092579761,MAFE4ImagesEEG,001,201255,
AFSA21.JPG,AFNE23.JPG,AFNE21.JPG,AFSA25.JPG,AFNE25.JPG,AFSA23.JPG,0,0,0,4,,,,,,,,,,,,,,,,,,,,,,,AMSA20.jpg,AMSA06.jpg,AMNE01.jpg,AMNE05.jpg,AMSA06.jpg,MS,2,num_6,32,num_8,0.750333970216,,,2017_Aug_30_1717,60.0092579761,MAFE4ImagesEEG,001,201255,
AMSA21.JPG,AMNE22.JPG,AMNE21.JPG,AMSA23.JPG,AMSA22.JPG,AMNE23.JPG,0,1,1,1,,,,,,,,,,,,,,,,,,,,,,,AMSA06.jpg,AMNE09.jpg,AMNE15.jpg,AMSA18.jpg,AMNE09.jpg,MN,1,num_6,16,num_6,0.883431645398,,,2017_Aug_30_1717,60.0092579761,MAFE4ImagesEEG,001,201255,
AFSA21.JPG,AFNE22.JPG,AFNE21.JPG,AFSA23.JPG,AFSA22.JPG,AFNE23.JPG,0,2,2,0,,,,,,,,,,,,,,,,,,,,,,,AMNE07.jpg,AMNE08.jpg,AMSA10.jpg,AMSA18.jpg,AMSA10.jpg,MS,2,num_2,32,num_8,1.26683586755,,,2017_Aug_30_1717,60.0092579761,MAFE4ImagesEEG,001,201255,
AMSA25.JPG,AMNE24.JPG,AMSA24.JPG,AMNE26.JPG,AMSA21.JPG,AMNE25.JPG,0,3,3,3,,,,,,,,,,,,,,,,,,,,,,,AMNE19.jpg,AMSA20.jpg,AMSA07.jpg,AMNE06.jpg,AMSA07.jpg,MS,2,num_2,16,num_2,2.28336999923,,,2017_Aug_30_1717,60.0092579761,MAFE4ImagesEEG,001,201255,
AMNE22.JPG,AMSA24.JPG,AMSA22.JPG,AMNE25.JPG,AMNE24.JPG,AMSA25.JPG,0,4,4,7,,,,,,,,,,,,,,,,,,,,,,,AMNE15.jpg,AMNE13.jpg,AMSA13.jpg,AMSA03.jpg,AMSA13.jpg,MS,2,num_2,32,num_4,0.550129530728,,,2017_Aug_30_1717,60.0092579761,MAFE4ImagesEEG,001,201255,
AFNE22.JPG,AFSA24.JPG,AFSA22.JPG,AFNE25.JPG,AFNE24.JPG,AFSA25.JPG,0,5,5,6,,,,,,,,,,,,,,,,,,,,,,,AMNE17.jpg,AMNE12.jpg,AMSA11.jpg,AMSA05.jpg,AMSA05.jpg,MS,2,num_4,16,num_4,1.03343967993,,,2017_Aug_30_1717,60.0092579761,MAFE4ImagesEEG,001,201255,
AFSA25.JPG,AFNE24.JPG,AFSA24.JPG,AFNE21.JPG,AFSA21.JPG,AFNE25.JPG,0,6,6,2,,,,,,,,,,,,,,,,,,,,,,,AMSA15.jpg,AMNE17.jpg,AMNE06.jpg,AMSA06.jpg,AMNE06.jpg,MN,1,num_2,16,num_2,1.7833685559,,,2017_Aug_30_1717,60.0092579761,MAFE4ImagesEEG,001,201255,
AMSA21.JPG,AMNE23.JPG,AMNE21.JPG,AMSA25.JPG,AMNE25.JPG,AMSA23.JPG,0,7,7,5,,,,,,,,,,,,,,,,,,,,,,,AMSA05.jpg,AMSA19.jpg,AMNE16.jpg,AMNE18.jpg,AMNE18.jpg,MN,1,num_4,32,num_8,0.900102412188,,,2017_Aug_30_1717,60.0092579761,MAFE4ImagesEEG,001,201255,
AMNE23.JPG,AMNE24.JPG,AMNE22.JPG,AMSA24.JPG,AMSA22.JPG,AMSA23.JPG,0,8,8,9,,,,,,,,,,,,,,,,,,,,,,,AMSA09.jpg,AMNE08.jpg,AMSA10.jpg,AMNE16.jpg,AMNE08.jpg,MN,1,num_6,32,num_4,0.600137020001,,,2017_Aug_30_1717,60.0092579761,MAFE4ImagesEEG,001,201255,
AFNE23.JPG,AFNE24.JPG,AFNE22.JPG,AFSA24.JPG,AFSA22.JPG,AFSA23.JPG,0,9,9,8,,,,,,,,,,,,,,,,,,,,,,,AMSA09.jpg,AMNE09.jpg,AMNE14.jpg,AMSA06.jpg,AMNE09.jpg,MN,1,num_6,32,num_4,0.800115337997,,,2017_Aug_30_1717,60.0092579761,MAFE4ImagesEEG,001,201255,
AMSA25.JPG,AMNE24.JPG,AMSA24.JPG,AMNE26.JPG,AMSA21.JPG,AMNE25.JPG,,,,,0,0,0,3,,,,,,,,,,,,,,,,,,,AFSA06.jpg,AFNE18.jpg,AFNE06.jpg,AFSA17.jpg,AFNE18.jpg,FN,3,num_6,32,num_8,0.766753918557,,,2017_Aug_30_1717,60.0092579761,MAFE4ImagesEEG,001,201255,
AMSA21.JPG,AMNE23.JPG,AMNE21.JPG,AMSA25.JPG,AMNE25.JPG,AMSA23.JPG,,,,,0,1,1,5,,,,,,,,,,,,,,,,,,,AFSA04.jpg,AFNE18.jpg,AFNE20.jpg,AFSA03.jpg,AFNE20.jpg,FN,3,num_2,32,num_8,0.683443384471,,,2017_Aug_30_1717,60.0092579761,MAFE4ImagesEEG,001,201255,
AMNE22.JPG,AMSA24.JPG,AMSA22.JPG,AMNE25.JPG,AMNE24.JPG,AMSA25.JPG,,,,,0,2,2,7,,,,,,,,,,,,,,,,,,,AFSA06.jpg,AFSA18.jpg,AFNE18.jpg,AFNE13.jpg,AFSA18.jpg,FS,4,num_6,32,num_8,1.15010104904,,,2017_Aug_30_1717,60.0092579761,MAFE4ImagesEEG,001,201255,
AFNE23.JPG,AFNE24.JPG,AFNE22.JPG,AFSA24.JPG,AFSA22.JPG,AFSA23.JPG,,,,,0,3,3,8,,,,,,,,,,,,,,,,,,,AFSA08.jpg,AFNE03.jpg,AFSA07.jpg,AFNE10.jpg,AFNE03.jpg,FN,3,num_6,32,num_4,1.63345193218,,,2017_Aug_30_1717,60.0092579761,MAFE4ImagesEEG,001,201255,
AFSA21.JPG,AFNE23.JPG,AFNE21.JPG,AFSA25.JPG,AFNE25.JPG,AFSA23.JPG,,,,,0,4,4,4,,,,,,,,,,,,,,,,,,,AFSA19.jpg,AFNE16.jpg,AFSA14.jpg,AFNE15.jpg,AFNE15.jpg,FN,3,num_4,32,num_2,1.13341745267,,,2017_Aug_30_1717,60.0092579761,MAFE4ImagesEEG,001,201255,
AMSA21.JPG,AMNE22.JPG,AMNE21.JPG,AMSA23.JPG,AMSA22.JPG,AMNE23.JPG,,,,,0,5,5,1,,,,,,,,,,,,,,,,,,,AFSA01.jpg,AFNE06.jpg,AFNE05.jpg,AFSA17.jpg,AFNE05.jpg,FN,3,num_2,16,num_2,1.11671461191,,,2017_Aug_30_1717,60.0092579761,MAFE4ImagesEEG,001,201255,
AMNE23.JPG,AMNE24.JPG,AMNE22.JPG,AMSA24.JPG,AMSA22.JPG,AMSA23.JPG,,,,,0,6,6,9,,,,,,,,,,,,,,,,,,,AFNE20.jpg,AFSA12.jpg,AFNE06.jpg,AFSA17.jpg,AFSA12.jpg,FS,4,num_6,16,num_6,0.883422985426,,,2017_Aug_30_1717,60.0092579761,MAFE4ImagesEEG,001,201255,
AFNE22.JPG,AFSA24.JPG,AFSA22.JPG,AFNE25.JPG,AFNE24.JPG,AFSA25.JPG,,,,,0,7,7,6,,,,,,,,,,,,,,,,,,,AFSA15.jpg,AFNE20.jpg,AFNE02.jpg,AFSA01.jpg,AFSA01.jpg,FS,4,num_4,32,num_8,2.46661179879,,,2017_Aug_30_1717,60.0092579761,MAFE4ImagesEEG,001,201255,
AFSA25.JPG,AFNE24.JPG,AFSA24.JPG,AFNE21.JPG,AFSA21.JPG,AFNE25.JPG,,,,,0,8,8,2,,,,,,,,,,,,,,,,,,,AFSA16.jpg,AFSA11.jpg,AFNE14.jpg,AFNE04.jpg,AFSA16.jpg,FS,4,num_8,32,num_2,0.7834307794,,,2017_Aug_30_1717,60.0092579761,MAFE4ImagesEEG,001,201255,
AFSA21.JPG,AFNE22.JPG,AFNE21.JPG,AFSA23.JPG,AFSA22.JPG,AFNE23.JPG,,,,,0,9,9,0,,,,,,,,,,,,,,,,,,,AFSA05.jpg,AFNE13.jpg,AFNE17.jpg,AFSA08.jpg,AFNE13.jpg,FN,3,num_6,16,num_6,0.966733519512,,,2017_Aug_30_1717,60.0092579761,MAFE4ImagesEEG,001,201255,
AFNE23.JPG,AFNE24.JPG,AFNE22.JPG,AFSA24.JPG,AFSA22.JPG,AFSA23.JPG,,,,,,,,,0,0,0,8,,,,,,,,,,,,,,,AMNE06.jpg,AMNE14.jpg,AMSA20.jpg,AMSA17.jpg,AMSA20.jpg,MS,2,num_2,32,num_4,1.05010371118,,,2017_Aug_30_1717,60.0092579761,MAFE4ImagesEEG,001,201255,
AMSA21.JPG,AMNE23.JPG,AMNE21.JPG,AMSA25.JPG,AMNE25.JPG,AMSA23.JPG,,,,,,,,,0,1,1,5,,,,,,,,,,,,,,,AMNE03.jpg,AMNE17.jpg,AMSA10.jpg,AMSA06.jpg,AMSA10.jpg,MS,2,num_2,32,num_8,1.31672083426,,,2017_Aug_30_1717,60.0092579761,MAFE4ImagesEEG,001,201255,
AFSA21.JPG,AFNE23.JPG,AFNE21.JPG,AFSA25.JPG,AFNE25.JPG,AFSA23.JPG,,,,,,,,,0,2,2,4,,,,,,,,,,,,,,,AMNE02.jpg,AMSA14.jpg,AMSA13.jpg,AMNE13.jpg,AMSA14.jpg,MS,2,num_6,32,num_8,2.45000838734,,,2017_Aug_30_1717,60.0092579761,MAFE4ImagesEEG,001,201255,
AFSA25.JPG,AFNE24.JPG,AFSA24.JPG,AFNE21.JPG,AFSA21.JPG,AFNE25.JPG,,,,,,,,,0,3,3,2,,,,,,,,,,,,,,,AMSA04.jpg,AMSA12.jpg,AMNE11.jpg,AMNE06.jpg,AMSA04.jpg,MS,2,num_8,16,num_8,0.683178774216,,,2017_Aug_30_1717,60.0092579761,MAFE4ImagesEEG,001,201255,
AMNE22.JPG,AMSA24.JPG,AMSA22.JPG,AMNE25.JPG,AMNE24.JPG,AMSA25.JPG,,,,,,,,,0,4,4,7,,,,,,,,,,,,,,,AMNE09.jpg,AMSA12.jpg,AMSA06.jpg,AMNE12.jpg,AMNE09.jpg,MN,1,num_8,32,num_6,0.700142697093,,,2017_Aug_30_1717,60.0092579761,MAFE4ImagesEEG,001,201255,
AFSA21.JPG,AFNE22.JPG,AFNE21.JPG,AFSA23.JPG,AFSA22.JPG,AFNE23.JPG,,,,,,,,,0,5,5,0,,,,,,,,,,,,,,,AMNE01.jpg,AMNE20.jpg,AMSA06.jpg,AMSA01.jpg,AMSA01.jpg,MS,2,num_4,16,num_4,0.900096638872,,,2017_Aug_30_1717,60.0092579761,MAFE4ImagesEEG,001,201255,
AMNE23.JPG,AMNE24.JPG,AMNE22.JPG,AMSA24.JPG,AMSA22.JPG,AMSA23.JPG,,,,,,,,,0,6,6,9,,,,,,,,,,,,,,,AMNE14.jpg,AMSA04.jpg,AMNE17.jpg,AMSA12.jpg,AMNE14.jpg,MN,1,num_8,16,num_8,0.666778070257,,,2017_Aug_30_1717,60.0092579761,MAFE4ImagesEEG,001,201255,
AMSA25.JPG,AMNE24.JPG,AMSA24.JPG,AMNE26.JPG,AMSA21.JPG,AMNE25.JPG,,,,,,,,,0,7,7,3,,,,,,,,,,,,,,,AMSA14.jpg,AMSA02.jpg,AMNE10.jpg,AMNE11.jpg,AMNE11.jpg,MN,1,num_4,16,num_4,0.950102524446,,,2017_Aug_30_1717,60.0092579761,MAFE4ImagesEEG,001,201255,
AMSA21.JPG,AMNE22.JPG,AMNE21.JPG,AMSA23.JPG,AMSA22.JPG,AMNE23.JPG,,,,,,,,,0,8,8,1,,,,,,,,,,,,,,,AMNE04.jpg,AMSA04.jpg,AMNE07.jpg,AMSA05.jpg,AMSA05.jpg,MS,2,num_4,16,num_4,1.15009880387,,,2017_Aug_30_1717,60.0092579761,MAFE4ImagesEEG,001,201255,
AFNE22.JPG,AFSA24.JPG,AFSA22.JPG,AFNE25.JPG,AFNE24.JPG,AFSA25.JPG,,,,,,,,,0,9,9,6,,,,,,,,,,,,,,,AMNE17.jpg,AMNE16.jpg,AMSA17.jpg,AMSA18.jpg,AMSA18.jpg,MS,2,num_4,16,num_4,0.683448195567,,,2017_Aug_30_1717,60.0092579761,MAFE4ImagesEEG,001,201255,
AFSA25.JPG,AFNE24.JPG,AFSA24.JPG,AFNE21.JPG,AFSA21.JPG,AFNE25.JPG,,,,,,,,,,,,,0,0,0,2,,,,,,,,,,,AFNE07.jpg,AFSA12.jpg,AFSA10.jpg,AFNE05.jpg,AFNE05.jpg,FN,3,num_4,32,num_8,0.583421349653,,,2017_Aug_30_1717,60.0092579761,MAFE4ImagesEEG,001,201255,
AFSA21.JPG,AFNE23.JPG,AFNE21.JPG,AFSA25.JPG,AFNE25.JPG,AFSA23.JPG,,,,,,,,,,,,,0,1,1,4,,,,,,,,,,,AFNE11.jpg,AFSA08.jpg,AFSA18.jpg,AFNE09.jpg,AFSA18.jpg,FS,4,num_2,32,num_4,0.650000176407,,,2017_Aug_30_1717,60.0092579761,MAFE4ImagesEEG,001,201255,
AMNE22.JPG,AMSA24.JPG,AMSA22.JPG,AMNE25.JPG,AMNE24.JPG,AMSA25.JPG,,,,,,,,,,,,,0,2,2,7,,,,,,,,,,,AFSA16.jpg,AFNE07.jpg,AFSA17.jpg,AFNE20.jpg,AFNE20.jpg,FN,3,num_4,32,num_8,1.00012059813,,,2017_Aug_30_1717,60.0092579761,MAFE4ImagesEEG,001,201255,
AMNE23.JPG,AMNE24.JPG,AMNE22.JPG,AMSA24.JPG,AMSA22.JPG,AMSA23.JPG,,,,,,,,,,,,,0,3,3,9,,,,,,,,,,,AFNE08.jpg,AFSA18.jpg,AFSA10.jpg,AFNE01.jpg,AFNE01.jpg,FN,3,num_4,32,num_2,0.766763220008,,,2017_Aug_30_1717,60.0092579761,MAFE4ImagesEEG,001,201255,
AMSA21.JPG,AMNE23.JPG,AMNE21.JPG,AMSA25.JPG,AMNE25.JPG,AMSA23.JPG,,,,,,,,,,,,,0,4,4,5,,,,,,,,,,,AFSA11.jpg,AFNE11.jpg,AFNE17.jpg,AFSA02.jpg,AFSA02.jpg,FS,4,num_4,16,num_4,0.500167265756,,,2017_Aug_30_1717,60.0092579761,MAFE4ImagesEEG,001,201255,
AFNE23.JPG,AFNE24.JPG,AFNE22.JPG,AFSA24.JPG,AFSA22.JPG,AFSA23.JPG,,,,,,,,,,,,,0,5,5,8,,,,,,,,,,,AFSA06.jpg,AFNE16.jpg,AFSA19.jpg,AFNE01.jpg,AFSA06.jpg,FS,4,num_8,32,num_4,0.983407814438,,,2017_Aug_30_1717,60.0092579761,MAFE4ImagesEEG,001,201255,
AMSA25.JPG,AMNE24.JPG,AMSA24.JPG,AMNE26.JPG,AMSA21.JPG,AMNE25.JPG,,,,,,,,,,,,,0,6,6,3,,,,,,,,,,,AFSA10.jpg,AFNE05.jpg,AFSA09.jpg,AFNE01.jpg,AFNE05.jpg,FN,3,num_6,32,num_4,0.833455588618,,,2017_Aug_30_1717,60.0092579761,MAFE4ImagesEEG,001,201255,
AFNE22.JPG,AFSA24.JPG,AFSA22.JPG,AFNE25.JPG,AFNE24.JPG,AFSA25.JPG,,,,,,,,,,,,,0,7,7,6,,,,,,,,,,,AFSA06.jpg,AFNE07.jpg,AFSA08.jpg,AFNE13.jpg,AFSA06.jpg,FS,4,num_8,32,num_2,0.883643654341,,,2017_Aug_30_1717,60.0092579761,MAFE4ImagesEEG,001,201255,
AMSA21.JPG,AMNE22.JPG,AMNE21.JPG,AMSA23.JPG,AMSA22.JPG,AMNE23.JPG,,,,,,,,,,,,,0,8,8,1,,,,,,,,,,,AFSA10.jpg,AFNE13.jpg,AFSA08.jpg,AFNE04.jpg,AFSA10.jpg,FS,4,num_8,32,num_4,1.01683626848,,,2017_Aug_30_1717,60.0092579761,MAFE4ImagesEEG,001,201255,
AFSA21.JPG,AFNE22.JPG,AFNE21.JPG,AFSA23.JPG,AFSA22.JPG,AFNE23.JPG,,,,,,,,,,,,,0,9,9,0,,,,,,,,,,,AFNE07.jpg,AFNE12.jpg,AFSA13.jpg,AFSA06.jpg,AFSA13.jpg,FS,4,num_2,32,num_4,0.933458699792,,,2017_Aug_30_1717,60.0092579761,MAFE4ImagesEEG,001,201255,
AMNE23.JPG,AMNE24.JPG,AMNE22.JPG,AMSA24.JPG,AMSA22.JPG,AMSA23.JPG,,,,,,,,,,,,,,,,,0,0,0,9,,,,,,,AMSA08.jpg,AMNE10.jpg,AMNE07.jpg,AMSA15.jpg,AMNE07.jpg,MN,1,num_2,32,num_6,1.15037303631,,,2017_Aug_30_1717,60.0092579761,MAFE4ImagesEEG,001,201255,
AMSA21.JPG,AMNE22.JPG,AMNE21.JPG,AMSA23.JPG,AMSA22.JPG,AMNE23.JPG,,,,,,,,,,,,,,,,,0,1,1,1,,,,,,,AMNE01.jpg,AMSA08.jpg,AMNE08.jpg,AMSA06.jpg,AMNE01.jpg,MN,1,num_8,16,num_8,1.13344663998,,,2017_Aug_30_1717,60.0092579761,MAFE4ImagesEEG,001,201255,
AFSA25.JPG,AFNE24.JPG,AFSA24.JPG,AFNE21.JPG,AFSA21.JPG,AFNE25.JPG,,,,,,,,,,,,,,,,,0,2,2,2,,,,,,,AMSA05.jpg,AMNE15.jpg,AMSA13.jpg,AMNE10.jpg,AMSA05.jpg,MS,2,num_8,32,num_2,1.36672383317,,,2017_Aug_30_1717,60.0092579761,MAFE4ImagesEEG,001,201255,
AMNE22.JPG,AMSA24.JPG,AMSA22.JPG,AMNE25.JPG,AMNE24.JPG,AMSA25.JPG,,,,,,,,,,,,,,,,,0,3,3,7,,,,,,,AMNE03.jpg,AMNE17.jpg,AMSA03.jpg,AMSA19.jpg,AMSA03.jpg,MS,2,num_2,32,num_4,1.1667586655,,,2017_Aug_30_1717,60.0092579761,MAFE4ImagesEEG,001,201255,
AFSA21.JPG,AFNE23.JPG,AFNE21.JPG,AFSA25.JPG,AFNE25.JPG,AFSA23.JPG,,,,,,,,,,,,,,,,,0,4,4,4,,,,,,,AMSA15.jpg,AMNE13.jpg,AMSA17.jpg,AMNE14.jpg,AMNE13.jpg,MN,1,num_6,32,num_4,0.783517058382,,,2017_Aug_30_1717,60.0092579761,MAFE4ImagesEEG,001,201255,
AMSA21.JPG,AMNE23.JPG,AMNE21.JPG,AMSA25.JPG,AMNE25.JPG,AMSA23.JPG,,,,,,,,,,,,,,,,,0,5,5,5,,,,,,,AMNE03.jpg,AMSA02.jpg,AMNE01.jpg,AMSA07.jpg,AMSA02.jpg,MS,2,num_6,16,num_6,0.800106036546,,,2017_Aug_30_1717,60.0092579761,MAFE4ImagesEEG,001,201255,
AFNE22.JPG,AFSA24.JPG,AFSA22.JPG,AFNE25.JPG,AFNE24.JPG,AFSA25.JPG,,,,,,,,,,,,,,,,,0,6,6,6,,,,,,,AMSA18.jpg,AMSA03.jpg,AMNE05.jpg,AMNE03.jpg,AMNE03.jpg,MN,1,num_4,16,num_4,0.766875158166,,,2017_Aug_30_1717,60.0092579761,MAFE4ImagesEEG,001,201255,
AFNE23.JPG,AFNE24.JPG,AFNE22.JPG,AFSA24.JPG,AFSA22.JPG,AFSA23.JPG,,,,,,,,,,,,,,,,,0,7,7,8,,,,,,,AMSA08.jpg,AMSA18.jpg,AMNE03.jpg,AMNE17.jpg,AMSA08.jpg,MS,2,num_8,16,num_8,0.833524547652,,,2017_Aug_30_1717,60.0092579761,MAFE4ImagesEEG,001,201255,
AMSA25.JPG,AMNE24.JPG,AMSA24.JPG,AMNE26.JPG,AMSA21.JPG,AMNE25.JPG,,,,,,,,,,,,,,,,,0,8,8,3,,,,,,,AMNE04.jpg,AMSA11.jpg,AMNE08.jpg,AMSA20.jpg,AMSA11.jpg,MS,2,num_6,32,num_2,1.8000499071,,,2017_Aug_30_1717,60.0092579761,MAFE4ImagesEEG,001,201255,
AFSA21.JPG,AFNE22.JPG,AFNE21.JPG,AFSA23.JPG,AFSA22.JPG,AFNE23.JPG,,,,,,,,,,,,,,,,,0,9,9,0,,,,,,,AMSA04.jpg,AMSA07.jpg,AMNE01.jpg,AMNE17.jpg,AMNE01.jpg,MN,1,num_2,32,num_4,0.633648545623,,,2017_Aug_30_1717,60.0092579761,MAFE4ImagesEEG,001,201255,
AMNE22.JPG,AMSA24.JPG,AMSA22.JPG,AMNE25.JPG,AMNE24.JPG,AMSA25.JPG,,,,,,,,,,,,,,,,,,,,,0,0,0,7,,,AFNE10.jpg,AFSA19.jpg,AFSA01.jpg,AFNE15.jpg,AFSA19.jpg,FS,4,num_6,16,num_6,1.43339407074,,,2017_Aug_30_1717,60.0092579761,MAFE4ImagesEEG,001,201255,
AFNE22.JPG,AFSA24.JPG,AFSA22.JPG,AFNE25.JPG,AFNE24.JPG,AFSA25.JPG,,,,,,,,,,,,,,,,,,,,,0,1,1,6,,,AFSA20.jpg,AFSA12.jpg,AFNE08.jpg,AFNE17.jpg,AFSA20.jpg,FS,4,num_8,32,num_6,1.15010586014,,,2017_Aug_30_1717,60.0092579761,MAFE4ImagesEEG,001,201255,
AFSA21.JPG,AFNE22.JPG,AFNE21.JPG,AFSA23.JPG,AFSA22.JPG,AFNE23.JPG,,,,,,,,,,,,,,,,,,,,,0,2,2,0,,,AFNE06.jpg,AFSA13.jpg,AFNE16.jpg,AFSA14.jpg,AFSA13.jpg,FS,4,num_6,32,num_2,1.5501179841,,,2017_Aug_30_1717,60.0092579761,MAFE4ImagesEEG,001,201255,
AMSA21.JPG,AMNE22.JPG,AMNE21.JPG,AMSA23.JPG,AMSA22.JPG,AMNE23.JPG,,,,,,,,,,,,,,,,,,,,,0,3,3,1,,,AFSA15.jpg,AFSA19.jpg,AFNE14.jpg,AFNE08.jpg,AFNE08.jpg,FN,3,num_4,16,num_4,0.600320803851,,,2017_Aug_30_1717,60.0092579761,MAFE4ImagesEEG,001,201255,
AFNE23.JPG,AFNE24.JPG,AFNE22.JPG,AFSA24.JPG,AFSA22.JPG,AFSA23.JPG,,,,,,,,,,,,,,,,,,,,,0,4,4,8,,,AFNE09.jpg,AFSA06.jpg,AFNE07.jpg,AFSA07.jpg,AFNE07.jpg,FN,3,num_2,32,num_8,1.73337678287,,,2017_Aug_30_1717,60.0092579761,MAFE4ImagesEEG,001,201255,
AFSA21.JPG,AFNE23.JPG,AFNE21.JPG,AFSA25.JPG,AFNE25.JPG,AFSA23.JPG,,,,,,,,,,,,,,,,,,,,,0,5,5,4,,,AFSA11.jpg,AFNE19.jpg,AFSA12.jpg,AFNE07.jpg,AFSA12.jpg,FS,4,num_2,16,num_2,1.28342260054,,,2017_Aug_30_1717,60.0092579761,MAFE4ImagesEEG,001,201255,
AMSA21.JPG,AMNE23.JPG,AMNE21.JPG,AMSA25.JPG,AMNE25.JPG,AMSA23.JPG,,,,,,,,,,,,,,,,,,,,,0,6,6,5,,,AFNE06.jpg,AFSA18.jpg,AFNE08.jpg,AFSA04.jpg,AFNE08.jpg,FN,3,num_2,32,num_6,1.65005309846,,,2017_Aug_30_1717,60.0092579761,MAFE4ImagesEEG,001,201255,
AFSA25.JPG,AFNE24.JPG,AFSA24.JPG,AFNE21.JPG,AFSA21.JPG,AFNE25.JPG,,,,,,,,,,,,,,,,,,,,,0,7,7,2,,,AFNE16.jpg,AFSA20.jpg,AFSA11.jpg,AFNE13.jpg,AFSA11.jpg,FS,4,num_2,16,num_2,0.966793177096,,,2017_Aug_30_1717,60.0092579761,MAFE4ImagesEEG,001,201255,
AMNE23.JPG,AMNE24.JPG,AMNE22.JPG,AMSA24.JPG,AMSA22.JPG,AMSA23.JPG,,,,,,,,,,,,,,,,,,,,,0,8,8,9,,,AFNE17.jpg,AFSA14.jpg,AFSA08.jpg,AFNE13.jpg,AFSA08.jpg,FS,4,num_2,32,num_6,0.733362349585,,,2017_Aug_30_1717,60.0092579761,MAFE4ImagesEEG,001,201255,
AMSA25.JPG,AMNE24.JPG,AMSA24.JPG,AMNE26.JPG,AMSA21.JPG,AMNE25.JPG,,,,,,,,,,,,,,,,,,,,,0,9,9,3,,,AFNE11.jpg,AFSA11.jpg,AFSA07.jpg,AFNE05.jpg,AFSA11.jpg,FS,4,num_6,16,num_6,1.0331429957,,,2017_Aug_30_1717,60.0092579761,MAFE4ImagesEEG,001,201255,
,,,,,,,,,,,,,,,,,,,,,,,,,,,,,,,,,,,,,,,,,,,space,55.262491769,2017_Aug_30_1717,60.0092579761,MAFE4ImagesEEG,001,201255,
AFNE01.JPG,AFNE01.JPG,AFNE01.JPG,AFNE01.JPG,AFNE01.JPG,AFNE01.JPG,0,0,0,4,,,,,,,,,,,,,,,,,,,,,,,AMSA20.jpg,AMSA08.jpg,AMNE09.jpg,AMNE07.jpg,AMSA20.jpg,MS,2,num_8,16,num_8,1.00007120421,,,2017_Aug_30_1717,60.0092579761,MAFE4ImagesEEG,001,201255,
AFNE01.JPG,AFNE01.JPG,AFNE01.JPG,AFNE01.JPG,AFNE01.JPG,AFNE01.JPG,0,1,1,3,,,,,,,,,,,,,,,,,,,,,,,AMSA20.jpg,AMNE14.jpg,AMSA02.jpg,AMNE12.jpg,AMSA20.jpg,MS,2,num_8,32,num_6,1.16676764622,,,2017_Aug_30_1717,60.0092579761,MAFE4ImagesEEG,001,201255,
AFNE01.JPG,AFNE01.JPG,AFNE01.JPG,AFNE01.JPG,AFNE01.JPG,AFNE01.JPG,0,2,2,8,,,,,,,,,,,,,,,,,,,,,,,AMNE07.jpg,AMSA09.jpg,AMNE15.jpg,AMSA12.jpg,AMSA12.jpg,MS,2,num_4,16,num_4,1.35039625787,,,2017_Aug_30_1717,60.0092579761,MAFE4ImagesEEG,001,201255,
AFNE01.JPG,AFNE01.JPG,AFNE01.JPG,AFNE01.JPG,AFNE01.JPG,AFNE01.JPG,0,3,3,5,,,,,,,,,,,,,,,,,,,,,,,AMSA01.jpg,AMNE18.jpg,AMSA02.jpg,AMNE11.jpg,AMNE18.jpg,MN,1,num_6,32,num_8,0.766916212848,,,2017_Aug_30_1717,60.0092579761,MAFE4ImagesEEG,001,201255,
AFNE01.JPG,AFNE01.JPG,AFNE01.JPG,AFNE01.JPG,AFNE01.JPG,AFNE01.JPG,0,4,4,1,,,,,,,,,,,,,,,,,,,,,,,AMSA05.jpg,AMNE07.jpg,AMNE17.jpg,AMSA20.jpg,AMSA05.jpg,MS,2,num_8,32,num_4,0.916735331692,,,2017_Aug_30_1717,60.0092579761,MAFE4ImagesEEG,001,201255,
AFNE01.JPG,AFNE01.JPG,AFNE01.JPG,AFNE01.JPG,AFNE01.JPG,AFNE01.JPG,0,5,5,6,,,,,,,,,,,,,,,,,,,,,,,AMSA16.jpg,AMNE15.jpg,AMNE10.jpg,AMSA07.jpg,AMNE10.jpg,MN,1,num_2,32,num_6,0.666762674751,,,2017_Aug_30_1717,60.0092579761,MAFE4ImagesEEG,001,201255,
AFNE01.JPG,AFNE01.JPG,AFNE01.JPG,AFNE01.JPG,AFNE01.JPG,AFNE01.JPG,0,6,6,9,,,,,,,,,,,,,,,,,,,,,,,AMNE14.jpg,AMNE08.jpg,AMSA19.jpg,AMSA02.jpg,AMSA19.jpg,MS,2,num_2,32,num_8,0.783494927342,,,2017_Aug_30_1717,60.0092579761,MAFE4ImagesEEG,001,201255,
AFNE01.JPG,AFNE01.JPG,AFNE01.JPG,AFNE01.JPG,AFNE01.JPG,AFNE01.JPG,0,7,7,0,,,,,,,,,,,,,,,,,,,,,,,AMNE11.jpg,AMSA10.jpg,AMNE20.jpg,AMSA14.jpg,AMSA10.jpg,MS,2,num_6,32,num_2,0.700140772657,,,2017_Aug_30_1717,60.0092579761,MAFE4ImagesEEG,001,201255,
AFNE01.JPG,AFNE01.JPG,AFNE01.JPG,AFNE01.JPG,AFNE01.JPG,AFNE01.JPG,0,8,8,7,,,,,,,,,,,,,,,,,,,,,,,AMSA08.jpg,AMNE10.jpg,AMSA18.jpg,AMNE11.jpg,AMSA18.jpg,MS,2,num_2,16,num_2,0.450145663935,,,2017_Aug_30_1717,60.0092579761,MAFE4ImagesEEG,001,201255,
AFNE01.JPG,AFNE01.JPG,AFNE01.JPG,AFNE01.JPG,AFNE01.JPG,AFNE01.JPG,0,9,9,2,,,,,,,,,,,,,,,,,,,,,,,AMNE08.jpg,AMSA14.jpg,AMNE03.jpg,AMSA16.jpg,AMNE03.jpg,MN,1,num_2,16,num_2,0.866765048224,,,2017_Aug_30_1717,60.0092579761,MAFE4ImagesEEG,001,201255,
AFNE01.JPG,AFNE01.JPG,AFNE01.JPG,AFNE01.JPG,AFNE01.JPG,AFNE01.JPG,1,0,10,4,,,,,,,,,,,,,,,,,,,,,,,AMSA16.jpg,AMSA07.jpg,AMNE18.jpg,AMNE15.jpg,AMNE15.jpg,MN,1,num_4,32,num_6,1.23344622302,,,2017_Aug_30_1717,60.0092579761,MAFE4ImagesEEG,001,201255,
AFNE01.JPG,AFNE01.JPG,AFNE01.JPG,AFNE01.JPG,AFNE01.JPG,AFNE01.JPG,1,1,11,2,,,,,,,,,,,,,,,,,,,,,,,AMSA20.jpg,AMNE03.jpg,AMNE01.jpg,AMSA02.jpg,AMNE01.jpg,MN,1,num_2,32,num_6,0.900105619583,,,2017_Aug_30_1717,60.0092579761,MAFE4ImagesEEG,001,201255,
AFNE01.JPG,AFNE01.JPG,AFNE01.JPG,AFNE01.JPG,AFNE01.JPG,AFNE01.JPG,1,2,12,1,,,,,,,,,,,,,,,,,,,,,,,AMNE17.jpg,AMNE18.jpg,AMSA10.jpg,AMSA16.jpg,AMSA10.jpg,MS,2,num_2,32,num_4,0.783446495645,,,2017_Aug_30_1717,60.0092579761,MAFE4ImagesEEG,001,201255,
AFNE01.JPG,AFNE01.JPG,AFNE01.JPG,AFNE01.JPG,AFNE01.JPG,AFNE01.JPG,1,3,13,7,,,,,,,,,,,,,,,,,,,,,,,AMSA20.jpg,AMNE20.jpg,AMSA03.jpg,AMNE09.jpg,AMSA20.jpg,MS,2,num_8,32,num_2,0.950147428004,,,2017_Aug_30_1717,60.0092579761,MAFE4ImagesEEG,001,201255,
AFNE01.JPG,AFNE01.JPG,AFNE01.JPG,AFNE01.JPG,AFNE01.JPG,AFNE01.JPG,1,4,14,0,,,,,,,,,,,,,,,,,,,,,,,AMSA20.jpg,AMSA19.jpg,AMNE08.jpg,AMNE16.jpg,AMSA19.jpg,MS,2,num_6,16,num_6,0.816779048513,,,2017_Aug_30_1717,60.0092579761,MAFE4ImagesEEG,001,201255,
AFNE01.JPG,AFNE01.JPG,AFNE01.JPG,AFNE01.JPG,AFNE01.JPG,AFNE01.JPG,1,5,15,8,,,,,,,,,,,,,,,,,,,,,,,AMNE13.jpg,AMSA02.jpg,AMNE04.jpg,AMSA08.jpg,AMSA08.jpg,MS,2,num_4,16,num_4,1.00010969298,,,2017_Aug_30_1717,60.0092579761,MAFE4ImagesEEG,001,201255,
AFNE01.JPG,AFNE01.JPG,AFNE01.JPG,AFNE01.JPG,AFNE01.JPG,AFNE01.JPG,1,6,16,3,,,,,,,,,,,,,,,,,,,,,,,AMNE03.jpg,AMNE18.jpg,AMSA16.jpg,AMSA11.jpg,AMSA16.jpg,MS,2,num_2,32,num_6,2.33344516458,,,2017_Aug_30_1717,60.0092579761,MAFE4ImagesEEG,001,201255,
AFNE01.JPG,AFNE01.JPG,AFNE01.JPG,AFNE01.JPG,AFNE01.JPG,AFNE01.JPG,1,7,17,9,,,,,,,,,,,,,,,,,,,,,,,AMNE10.jpg,AMSA11.jpg,AMNE06.jpg,AMSA02.jpg,AMNE10.jpg,MN,1,num_8,16,num_8,1.55004870432,,,2017_Aug_30_1717,60.0092579761,MAFE4ImagesEEG,001,201255,
AFNE01.JPG,AFNE01.JPG,AFNE01.JPG,AFNE01.JPG,AFNE01.JPG,AFNE01.JPG,1,8,18,6,,,,,,,,,,,,,,,,,,,,,,,AMSA19.jpg,AMNE11.jpg,AMSA01.jpg,AMNE02.jpg,AMSA01.jpg,MS,2,num_2,32,num_4,0.800123997968,,,2017_Aug_30_1717,60.0092579761,MAFE4ImagesEEG,001,201255,
AFNE01.JPG,AFNE01.JPG,AFNE01.JPG,AFNE01.JPG,AFNE01.JPG,AFNE01.JPG,1,9,19,5,,,,,,,,,,,,,,,,,,,,,,,AMNE20.jpg,AMSA02.jpg,AMSA09.jpg,AMNE13.jpg,AMSA09.jpg,MS,2,num_2,32,num_8,1.166673028,,,2017_Aug_30_1717,60.0092579761,MAFE4ImagesEEG,001,201255,
AFNE01.JPG,AFNE01.JPG,AFNE01.JPG,AFNE01.JPG,AFNE01.JPG,AFNE01.JPG,2,0,20,6,,,,,,,,,,,,,,,,,,,,,,,AMSA16.jpg,AMNE17.jpg,AMNE20.jpg,AMSA10.jpg,AMSA10.jpg,MS,2,num_4,16,num_4,1.23316236838,,,2017_Aug_30_1717,60.0092579761,MAFE4ImagesEEG,001,201255,
AFNE01.JPG,AFNE01.JPG,AFNE01.JPG,AFNE01.JPG,AFNE01.JPG,AFNE01.JPG,2,1,21,3,,,,,,,,,,,,,,,,,,,,,,,AMSA10.jpg,AMNE03.jpg,AMNE11.jpg,AMSA08.jpg,AMSA10.jpg,MS,2,num_8,32,num_2,1.38340422215,,,2017_Aug_30_1717,60.0092579761,MAFE4ImagesEEG,001,201255,
AFNE01.JPG,AFNE01.JPG,AFNE01.JPG,AFNE01.JPG,AFNE01.JPG,AFNE01.JPG,2,2,22,8,,,,,,,,,,,,,,,,,,,,,,,AMNE05.jpg,AMNE01.jpg,AMSA02.jpg,AMSA10.jpg,AMSA10.jpg,MS,2,num_4,32,num_2,0.91675746273,,,2017_Aug_30_1717,60.0092579761,MAFE4ImagesEEG,001,201255,
AFNE01.JPG,AFNE01.JPG,AFNE01.JPG,AFNE01.JPG,AFNE01.JPG,AFNE01.JPG,2,3,23,0,,,,,,,,,,,,,,,,,,,,,,,AMNE01.jpg,AMSA13.jpg,AMNE07.jpg,AMSA16.jpg,AMNE01.jpg,MN,1,num_8,16,num_8,1.03343615179,,,2017_Aug_30_1717,60.0092579761,MAFE4ImagesEEG,001,201255,
AFNE01.JPG,AFNE01.JPG,AFNE01.JPG,AFNE01.JPG,AFNE01.JPG,AFNE01.JPG,2,4,24,1,,,,,,,,,,,,,,,,,,,,,,,AMSA16.jpg,AMNE19.jpg,AMSA18.jpg,AMNE07.jpg,AMNE07.jpg,MN,1,num_4,32,num_6,0.916743991662,,,2017_Aug_30_1717,60.0092579761,MAFE4ImagesEEG,001,201255,
AFNE01.JPG,AFNE01.JPG,AFNE01.JPG,AFNE01.JPG,AFNE01.JPG,AFNE01.JPG,2,5,25,7,,,,,,,,,,,,,,,,,,,,,,,AMSA18.jpg,AMNE02.jpg,AMNE01.jpg,AMSA06.jpg,AMSA18.jpg,MS,2,num_8,32,num_4,2.34997640959,,,2017_Aug_30_1717,60.0092579761,MAFE4ImagesEEG,001,201255,
AFNE01.JPG,AFNE01.JPG,AFNE01.JPG,AFNE01.JPG,AFNE01.JPG,AFNE01.JPG,2,6,26,5,,,,,,,,,,,,,,,,,,,,,,,AMNE02.jpg,AMNE08.jpg,AMSA11.jpg,AMSA05.jpg,AMSA11.jpg,MS,2,num_2,32,num_4,0.933460303491,,,2017_Aug_30_1717,60.0092579761,MAFE4ImagesEEG,001,201255,
AFNE01.JPG,AFNE01.JPG,AFNE01.JPG,AFNE01.JPG,AFNE01.JPG,AFNE01.JPG,2,7,27,2,,,,,,,,,,,,,,,,,,,,,,,AMSA12.jpg,AMNE19.jpg,AMSA08.jpg,AMNE03.jpg,AMSA08.jpg,MS,2,num_2,32,num_6,1.20007037029,,,2017_Aug_30_1717,60.0092579761,MAFE4ImagesEEG,001,201255,
AFNE01.JPG,AFNE01.JPG,AFNE01.JPG,AFNE01.JPG,AFNE01.JPG,AFNE01.JPG,2,8,28,4,,,,,,,,,,,,,,,,,,,,,,,AMSA05.jpg,AMNE10.jpg,AMSA16.jpg,AMNE01.jpg,AMNE10.jpg,MN,1,num_6,32,num_8,0.700135320079,,,2017_Aug_30_1717,60.0092579761,MAFE4ImagesEEG,001,201255,
AFNE01.JPG,AFNE01.JPG,AFNE01.JPG,AFNE01.JPG,AFNE01.JPG,AFNE01.JPG,2,9,29,9,,,,,,,,,,,,,,,,,,,,,,,AMNE13.jpg,AMSA07.jpg,AMNE12.jpg,AMSA08.jpg,AMNE12.jpg,MN,1,num_2,16,num_2,0.816728371639,,,2017_Aug_30_1717,60.0092579761,MAFE4ImagesEEG,001,201255,
AFNE01.JPG,AFNE01.JPG,AFNE01.JPG,AFNE01.JPG,AFNE01.JPG,AFNE01.JPG,3,0,30,5,,,,,,,,,,,,,,,,,,,,,,,AMSA04.jpg,AMNE17.jpg,AMSA13.jpg,AMNE14.jpg,AMNE14.jpg,MN,1,num_4,16,num_4,0.899987266635,,,2017_Aug_30_1717,60.0092579761,MAFE4ImagesEEG,001,201255,
AFNE01.JPG,AFNE01.JPG,AFNE01.JPG,AFNE01.JPG,AFNE01.JPG,AFNE01.JPG,3,1,31,2,,,,,,,,,,,,,,,,,,,,,,,AMNE03.jpg,AMNE05.jpg,AMSA19.jpg,AMSA05.jpg,AMNE05.jpg,MN,1,num_6,16,num_6,1.60006613653,,,2017_Aug_30_1717,60.0092579761,MAFE4ImagesEEG,001,201255,
AFNE01.JPG,AFNE01.JPG,AFNE01.JPG,AFNE01.JPG,AFNE01.JPG,AFNE01.JPG,3,2,32,8,,,,,,,,,,,,,,,,,,,,,,,AMNE05.jpg,AMSA15.jpg,AMNE17.jpg,AMSA07.jpg,AMSA15.jpg,MS,2,num_6,16,num_6,0.733439006373,,,2017_Aug_30_1717,60.0092579761,MAFE4ImagesEEG,001,201255,
AFNE01.JPG,AFNE01.JPG,AFNE01.JPG,AFNE01.JPG,AFNE01.JPG,AFNE01.JPG,3,3,33,0,,,,,,,,,,,,,,,,,,,,,,,AMNE02.jpg,AMSA09.jpg,AMNE15.jpg,AMSA12.jpg,AMSA09.jpg,MS,2,num_6,16,num_6,1.10013333149,,,2017_Aug_30_1717,60.0092579761,MAFE4ImagesEEG,001,201255,
AFNE01.JPG,AFNE01.JPG,AFNE01.JPG,AFNE01.JPG,AFNE01.JPG,AFNE01.JPG,3,4,34,4,,,,,,,,,,,,,,,,,,,,,,,AMNE14.jpg,AMSA09.jpg,AMNE05.jpg,AMSA02.jpg,AMSA09.jpg,MS,2,num_6,32,num_8,0.883441909069,,,2017_Aug_30_1717,60.0092579761,MAFE4ImagesEEG,001,201255,
AFNE01.JPG,AFNE01.JPG,AFNE01.JPG,AFNE01.JPG,AFNE01.JPG,AFNE01.JPG,3,5,35,3,,,,,,,,,,,,,,,,,,,,,,,AMNE19.jpg,AMSA17.jpg,AMNE13.jpg,AMSA14.jpg,AMSA17.jpg,MS,2,num_6,32,num_8,2.48332778988,,,2017_Aug_30_1717,60.0092579761,MAFE4ImagesEEG,001,201255,
AFNE01.JPG,AFNE01.JPG,AFNE01.JPG,AFNE01.JPG,AFNE01.JPG,AFNE01.JPG,3,6,36,1,,,,,,,,,,,,,,,,,,,,,,,AMNE12.jpg,AMNE20.jpg,AMSA09.jpg,AMSA06.jpg,AMNE12.jpg,MN,1,num_8,32,num_2,0.950094185215,,,2017_Aug_30_1717,60.0092579761,MAFE4ImagesEEG,001,201255,
AFNE01.JPG,AFNE01.JPG,AFNE01.JPG,AFNE01.JPG,AFNE01.JPG,AFNE01.JPG,3,7,37,7,,,,,,,,,,,,,,,,,,,,,,,AMSA05.jpg,AMSA13.jpg,AMNE01.jpg,AMNE14.jpg,AMSA13.jpg,MS,2,num_6,32,num_2,0.733418799771,,,2017_Aug_30_1717,60.0092579761,MAFE4ImagesEEG,001,201255,
AFNE01.JPG,AFNE01.JPG,AFNE01.JPG,AFNE01.JPG,AFNE01.JPG,AFNE01.JPG,3,8,38,6,,,,,,,,,,,,,,,,,,,,,,,AMSA17.jpg,AMNE12.jpg,AMSA13.jpg,AMNE09.jpg,AMSA13.jpg,MS,2,num_2,16,num_2,0.533536382949,,,2017_Aug_30_1717,60.0092579761,MAFE4ImagesEEG,001,201255,
AFNE01.JPG,AFNE01.JPG,AFNE01.JPG,AFNE01.JPG,AFNE01.JPG,AFNE01.JPG,3,9,39,9,,,,,,,,,,,,,,,,,,,,,,,AMSA05.jpg,AMNE17.jpg,AMNE01.jpg,AMSA14.jpg,AMSA05.jpg,MS,2,num_8,32,num_6,1.03345315099,,,2017_Aug_30_1717,60.0092579761,MAFE4ImagesEEG,001,201255,
AFNE01.JPG,AFNE01.JPG,AFNE01.JPG,AFNE01.JPG,AFNE01.JPG,AFNE01.JPG,4,0,40,9,,,,,,,,,,,,,,,,,,,,,,,AMNE06.jpg,AMNE10.jpg,AMSA12.jpg,AMSA03.jpg,AMNE06.jpg,MN,1,num_8,16,num_8,0.883563790156,,,2017_Aug_30_1717,60.0092579761,MAFE4ImagesEEG,001,201255,
AFNE01.JPG,AFNE01.JPG,AFNE01.JPG,AFNE01.JPG,AFNE01.JPG,AFNE01.JPG,4,1,41,0,,,,,,,,,,,,,,,,,,,,,,,AMNE10.jpg,AMSA09.jpg,AMSA01.jpg,AMNE01.jpg,AMNE10.jpg,MN,1,num_8,16,num_8,0.983435077313,,,2017_Aug_30_1717,60.0092579761,MAFE4ImagesEEG,001,201255,
AFNE01.JPG,AFNE01.JPG,AFNE01.JPG,AFNE01.JPG,AFNE01.JPG,AFNE01.JPG,4,2,42,1,,,,,,,,,,,,,,,,,,,,,,,AMNE03.jpg,AMNE18.jpg,AMSA05.jpg,AMSA19.jpg,AMNE18.jpg,MN,1,num_6,16,num_6,0.783595318868,,,2017_Aug_30_1717,60.0092579761,MAFE4ImagesEEG,001,201255,
AFNE01.JPG,AFNE01.JPG,AFNE01.JPG,AFNE01.JPG,AFNE01.JPG,AFNE01.JPG,4,3,43,2,,,,,,,,,,,,,,,,,,,,,,,AMNE10.jpg,AMNE12.jpg,AMSA04.jpg,AMSA01.jpg,AMSA04.jpg,MS,2,num_2,16,num_2,0.833442759029,,,2017_Aug_30_1717,60.0092579761,MAFE4ImagesEEG,001,201255,
AFNE01.JPG,AFNE01.JPG,AFNE01.JPG,AFNE01.JPG,AFNE01.JPG,AFNE01.JPG,4,4,44,4,,,,,,,,,,,,,,,,,,,,,,,AMSA17.jpg,AMNE12.jpg,AMSA07.jpg,AMNE16.jpg,AMNE16.jpg,MN,1,num_4,32,num_6,0.883764893948,,,2017_Aug_30_1717,60.0092579761,MAFE4ImagesEEG,001,201255,
AFNE01.JPG,AFNE01.JPG,AFNE01.JPG,AFNE01.JPG,AFNE01.JPG,AFNE01.JPG,4,5,45,6,,,,,,,,,,,,,,,,,,,,,,,AMNE07.jpg,AMSA05.jpg,AMSA18.jpg,AMNE04.jpg,AMSA18.jpg,MS,2,num_2,32,num_4,0.950090015598,,,2017_Aug_30_1717,60.0092579761,MAFE4ImagesEEG,001,201255,
AFNE01.JPG,AFNE01.JPG,AFNE01.JPG,AFNE01.JPG,AFNE01.JPG,AFNE01.JPG,4,6,46,8,,,,,,,,,,,,,,,,,,,,,,,AMNE04.jpg,AMSA14.jpg,AMNE19.jpg,AMSA07.jpg,AMSA14.jpg,MS,2,num_6,16,num_6,0.450285185707,,,2017_Aug_30_1717,60.0092579761,MAFE4ImagesEEG,001,201255,
AFNE01.JPG,AFNE01.JPG,AFNE01.JPG,AFNE01.JPG,AFNE01.JPG,AFNE01.JPG,4,7,47,7,,,,,,,,,,,,,,,,,,,,,,,AMNE10.jpg,AMNE06.jpg,AMSA07.jpg,AMSA16.jpg,AMSA07.jpg,MS,2,num_2,32,num_6,0.933590203071,,,2017_Aug_30_1717,60.0092579761,MAFE4ImagesEEG,001,201255,
AFNE01.JPG,AFNE01.JPG,AFNE01.JPG,AFNE01.JPG,AFNE01.JPG,AFNE01.JPG,4,8,48,5,,,,,,,,,,,,,,,,,,,,,,,AMNE02.jpg,AMSA09.jpg,AMNE11.jpg,AMSA05.jpg,AMSA05.jpg,MS,2,num_4,16,num_4,1.13347005398,,,2017_Aug_30_1717,60.0092579761,MAFE4ImagesEEG,001,201255,
AFNE01.JPG,AFNE01.JPG,AFNE01.JPG,AFNE01.JPG,AFNE01.JPG,AFNE01.JPG,4,9,49,3,,,,,,,,,,,,,,,,,,,,,,,AMSA11.jpg,AMNE19.jpg,AMSA17.jpg,AMNE20.jpg,AMSA11.jpg,MS,2,num_8,32,num_2,3.18325976099,,,2017_Aug_30_1717,60.0092579761,MAFE4ImagesEEG,001,201255,
AFNE01.JPG,AFNE01.JPG,AFNE01.JPG,AFNE01.JPG,AFNE01.JPG,AFNE01.JPG,5,0,50,2,,,,,,,,,,,,,,,,,,,,,,,AMNE09.jpg,AMNE16.jpg,AMSA20.jpg,AMSA13.jpg,AMSA20.jpg,MS,2,num_2,32,num_6,0.983442454326,,,2017_Aug_30_1717,60.0092579761,MAFE4ImagesEEG,001,201255,
AFNE01.JPG,AFNE01.JPG,AFNE01.JPG,AFNE01.JPG,AFNE01.JPG,AFNE01.JPG,5,1,51,3,,,,,,,,,,,,,,,,,,,,,,,AMNE11.jpg,AMSA18.jpg,AMSA03.jpg,AMNE01.jpg,AMSA18.jpg,MS,2,num_6,32,num_2,1.16669451756,,,2017_Aug_30_1717,60.0092579761,MAFE4ImagesEEG,001,201255,
AFNE01.JPG,AFNE01.JPG,AFNE01.JPG,AFNE01.JPG,AFNE01.JPG,AFNE01.JPG,5,2,52,1,,,,,,,,,,,,,,,,,,,,,,,AMSA06.jpg,AMSA09.jpg,AMNE02.jpg,AMNE11.jpg,AMNE02.jpg,MN,1,num_2,32,num_6,0.700111585342,,,2017_Aug_30_1717,60.0092579761,MAFE4ImagesEEG,001,201255,
AFNE01.JPG,AFNE01.JPG,AFNE01.JPG,AFNE01.JPG,AFNE01.JPG,AFNE01.JPG,5,3,53,0,,,,,,,,,,,,,,,,,,,,,,,AMSA12.jpg,AMNE11.jpg,AMNE06.jpg,AMSA15.jpg,AMNE06.jpg,MN,1,num_2,32,num_8,1.13346011105,,,2017_Aug_30_1717,60.0092579761,MAFE4ImagesEEG,001,201255,
AFNE01.JPG,AFNE01.JPG,AFNE01.JPG,AFNE01.JPG,AFNE01.JPG,AFNE01.JPG,5,4,54,9,,,,,,,,,,,,,,,,,,,,,,,AMNE03.jpg,AMSA12.jpg,AMSA05.jpg,AMNE09.jpg,AMSA05.jpg,MS,2,num_2,32,num_6,0.500216338929,,,2017_Aug_30_1717,60.0092579761,MAFE4ImagesEEG,001,201255,
AFNE01.JPG,AFNE01.JPG,AFNE01.JPG,AFNE01.JPG,AFNE01.JPG,AFNE01.JPG,5,5,55,5,,,,,,,,,,,,,,,,,,,,,,,AMSA14.jpg,AMNE16.jpg,AMSA17.jpg,AMNE20.jpg,AMNE20.jpg,MN,1,num_4,16,num_4,0.800299121845,,,2017_Aug_30_1717,60.0092579761,MAFE4ImagesEEG,001,201255,
AFNE01.JPG,AFNE01.JPG,AFNE01.JPG,AFNE01.JPG,AFNE01.JPG,AFNE01.JPG,5,6,56,4,,,,,,,,,,,,,,,,,,,,,,,AMSA20.jpg,AMNE20.jpg,AMSA03.jpg,AMNE16.jpg,AMNE16.jpg,MN,1,num_4,32,num_8,1.11674732736,,,2017_Aug_30_1717,60.0092579761,MAFE4ImagesEEG,001,201255,
AFNE01.JPG,AFNE01.JPG,AFNE01.JPG,AFNE01.JPG,AFNE01.JPG,AFNE01.JPG,5,7,57,6,,,,,,,,,,,,,,,,,,,,,,,AMSA15.jpg,AMNE19.jpg,AMSA05.jpg,AMNE03.jpg,AMSA05.jpg,MS,2,num_2,32,num_6,2.1000210726,,,2017_Aug_30_1717,60.0092579761,MAFE4ImagesEEG,001,201255,
AFNE01.JPG,AFNE01.JPG,AFNE01.JPG,AFNE01.JPG,AFNE01.JPG,AFNE01.JPG,5,8,58,8,,,,,,,,,,,,,,,,,,,,,,,AMSA04.jpg,AMNE04.jpg,AMNE11.jpg,AMSA13.jpg,AMNE11.jpg,MN,1,num_2,32,num_6,0.73360675324,,,2017_Aug_30_1717,60.0092579761,MAFE4ImagesEEG,001,201255,
AFNE01.JPG,AFNE01.JPG,AFNE01.JPG,AFNE01.JPG,AFNE01.JPG,AFNE01.JPG,5,9,59,7,,,,,,,,,,,,,,,,,,,,,,,AMNE13.jpg,AMNE18.jpg,AMSA05.jpg,AMSA03.jpg,AMSA05.jpg,MS,2,num_2,32,num_4,0.966768800879,,,2017_Aug_30_1717,60.0092579761,MAFE4ImagesEEG,001,201255,
,,,,,,,,,,,,,,,,,,,,,,,,,,,,,,,,,,,,,,,,,,,space,92.3262612367,2017_Aug_30_1717,60.0092579761,MAFE4ImagesEEG,001,201255,
AFNE01.JPG,AFNE01.JPG,AFNE01.JPG,AFNE01.JPG,AFNE01.JPG,AFNE01.JPG,,,,,0,0,0,8,,,,,,,,,,,,,,,,,,,AFSA10.jpg,AFNE03.jpg,AFSA18.jpg,AFNE01.jpg,AFSA18.jpg,FS,4,num_2,32,num_4,0.800115658736,,,2017_Aug_30_1717,60.0092579761,MAFE4ImagesEEG,001,201255,
AFNE01.JPG,AFNE01.JPG,AFNE01.JPG,AFNE01.JPG,AFNE01.JPG,AFNE01.JPG,,,,,0,1,1,2,,,,,,,,,,,,,,,,,,,AFNE08.jpg,AFSA15.jpg,AFNE15.jpg,AFSA03.jpg,AFSA15.jpg,FS,4,num_6,16,num_6,2.20000782605,,,2017_Aug_30_1717,60.0092579761,MAFE4ImagesEEG,001,201255,
AFNE01.JPG,AFNE01.JPG,AFNE01.JPG,AFNE01.JPG,AFNE01.JPG,AFNE01.JPG,,,,,0,2,2,5,,,,,,,,,,,,,,,,,,,AFSA12.jpg,AFNE06.jpg,AFNE01.jpg,AFSA15.jpg,AFNE01.jpg,FN,3,num_2,32,num_8,0.93342983322,,,2017_Aug_30_1717,60.0092579761,MAFE4ImagesEEG,001,201255,
AFNE01.JPG,AFNE01.JPG,AFNE01.JPG,AFNE01.JPG,AFNE01.JPG,AFNE01.JPG,,,,,0,3,3,6,,,,,,,,,,,,,,,,,,,AFNE02.jpg,AFNE14.jpg,AFSA18.jpg,AFSA11.jpg,AFSA18.jpg,FS,4,num_2,32,num_4,1.58339376604,,,2017_Aug_30_1717,60.0092579761,MAFE4ImagesEEG,001,201255,
AFNE01.JPG,AFNE01.JPG,AFNE01.JPG,AFNE01.JPG,AFNE01.JPG,AFNE01.JPG,,,,,0,4,4,3,,,,,,,,,,,,,,,,,,,AFNE16.jpg,AFNE03.jpg,AFSA09.jpg,AFSA13.jpg,AFSA09.jpg,FS,4,num_2,32,num_8,0.999975623783,,,2017_Aug_30_1717,60.0092579761,MAFE4ImagesEEG,001,201255,
AFNE01.JPG,AFNE01.JPG,AFNE01.JPG,AFNE01.JPG,AFNE01.JPG,AFNE01.JPG,,,,,0,5,5,0,,,,,,,,,,,,,,,,,,,AFNE07.jpg,AFNE13.jpg,AFSA11.jpg,AFSA04.jpg,AFSA04.jpg,FS,4,num_4,16,num_4,0.816786425525,,,2017_Aug_30_1717,60.0092579761,MAFE4ImagesEEG,001,201255,
AFNE01.JPG,AFNE01.JPG,AFNE01.JPG,AFNE01.JPG,AFNE01.JPG,AFNE01.JPG,,,,,0,6,6,1,,,,,,,,,,,,,,,,,,,AFSA20.jpg,AFSA13.jpg,AFNE17.jpg,AFNE12.jpg,AFNE12.jpg,FN,3,num_4,16,num_4,0.600118737839,,,2017_Aug_30_1717,60.0092579761,MAFE4ImagesEEG,001,201255,
AFNE01.JPG,AFNE01.JPG,AFNE01.JPG,AFNE01.JPG,AFNE01.JPG,AFNE01.JPG,,,,,0,7,7,4,,,,,,,,,,,,,,,,,,,AFNE04.jpg,AFSA03.jpg,AFSA13.jpg,AFNE01.jpg,AFSA03.jpg,FS,4,num_6,32,num_4,0.733473325523,,,2017_Aug_30_1717,60.0092579761,MAFE4ImagesEEG,001,201255,
AFNE01.JPG,AFNE01.JPG,AFNE01.JPG,AFNE01.JPG,AFNE01.JPG,AFNE01.JPG,,,,,0,8,8,9,,,,,,,,,,,,,,,,,,,AFSA06.jpg,AFNE03.jpg,AFSA19.jpg,AFNE17.jpg,AFNE17.jpg,FN,3,num_4,16,num_4,0.783445212688,,,2017_Aug_30_1717,60.0092579761,MAFE4ImagesEEG,001,201255,
AFNE01.JPG,AFNE01.JPG,AFNE01.JPG,AFNE01.JPG,AFNE01.JPG,AFNE01.JPG,,,,,0,9,9,7,,,,,,,,,,,,,,,,,,,AFNE18.jpg,AFSA08.jpg,AFNE08.jpg,AFSA15.jpg,AFNE18.jpg,FN,3,num_8,16,num_8,1.26670596797,,,2017_Aug_30_1717,60.0092579761,MAFE4ImagesEEG,001,201255,
AFNE01.JPG,AFNE01.JPG,AFNE01.JPG,AFNE01.JPG,AFNE01.JPG,AFNE01.JPG,,,,,1,0,10,8,,,,,,,,,,,,,,,,,,,AFSA15.jpg,AFNE07.jpg,AFNE15.jpg,AFSA08.jpg,AFSA08.jpg,FS,4,num_4,32,num_6,0.950092260777,,,2017_Aug_30_1717,60.0092579761,MAFE4ImagesEEG,001,201255,
AFNE01.JPG,AFNE01.JPG,AFNE01.JPG,AFNE01.JPG,AFNE01.JPG,AFNE01.JPG,,,,,1,1,11,9,,,,,,,,,,,,,,,,,,,AFSA20.jpg,AFNE16.jpg,AFNE04.jpg,AFSA05.jpg,AFNE16.jpg,FN,3,num_6,32,num_8,0.783466702247,,,2017_Aug_30_1717,60.0092579761,MAFE4ImagesEEG,001,201255,
AFNE01.JPG,AFNE01.JPG,AFNE01.JPG,AFNE01.JPG,AFNE01.JPG,AFNE01.JPG,,,,,1,2,12,7,,,,,,,,,,,,,,,,,,,AFSA06.jpg,AFNE13.jpg,AFSA04.jpg,AFNE18.jpg,AFSA06.jpg,FS,4,num_8,32,num_4,1.43340850403,,,2017_Aug_30_1717,60.0092579761,MAFE4ImagesEEG,001,201255,
AFNE01.JPG,AFNE01.JPG,AFNE01.JPG,AFNE01.JPG,AFNE01.JPG,AFNE01.JPG,,,,,1,3,13,6,,,,,,,,,,,,,,,,,,,AFNE13.jpg,AFSA15.jpg,AFNE08.jpg,AFSA18.jpg,AFSA18.jpg,FS,4,num_4,16,num_4,0.400324845172,,,2017_Aug_30_1717,60.0092579761,MAFE4ImagesEEG,001,201255,
AFNE01.JPG,AFNE01.JPG,AFNE01.JPG,AFNE01.JPG,AFNE01.JPG,AFNE01.JPG,,,,,1,4,14,5,,,,,,,,,,,,,,,,,,,AFSA02.jpg,AFNE13.jpg,AFNE18.jpg,AFSA19.jpg,AFSA02.jpg,FS,4,num_8,16,num_8,0.98328657483,,,2017_Aug_30_1717,60.0092579761,MAFE4ImagesEEG,001,201255,
AFNE01.JPG,AFNE01.JPG,AFNE01.JPG,AFNE01.JPG,AFNE01.JPG,AFNE01.JPG,,,,,1,5,15,3,,,,,,,,,,,,,,,,,,,AFNE05.jpg,AFSA13.jpg,AFNE04.jpg,AFSA18.jpg,AFSA18.jpg,FS,4,num_4,16,num_4,0.733470118126,,,2017_Aug_30_1717,60.0092579761,MAFE4ImagesEEG,001,201255,
AFNE01.JPG,AFNE01.JPG,AFNE01.JPG,AFNE01.JPG,AFNE01.JPG,AFNE01.JPG,,,,,1,6,16,4,,,,,,,,,,,,,,,,,,,AFSA05.jpg,AFSA10.jpg,AFNE11.jpg,AFNE19.jpg,AFNE11.jpg,FN,3,num_2,32,num_4,0.666497102276,,,2017_Aug_30_1717,60.0092579761,MAFE4ImagesEEG,001,201255,
AFNE01.JPG,AFNE01.JPG,AFNE01.JPG,AFNE01.JPG,AFNE01.JPG,AFNE01.JPG,,,,,1,7,17,2,,,,,,,,,,,,,,,,,,,AFSA10.jpg,AFSA07.jpg,AFNE06.jpg,AFNE14.jpg,AFNE06.jpg,FN,3,num_2,32,num_6,0.850137260555,,,2017_Aug_30_1717,60.0092579761,MAFE4ImagesEEG,001,201255,
AFNE01.JPG,AFNE01.JPG,AFNE01.JPG,AFNE01.JPG,AFNE01.JPG,AFNE01.JPG,,,,,1,8,18,1,,,,,,,,,,,,,,,,,,,AFNE08.jpg,AFSA19.jpg,AFSA10.jpg,AFNE14.jpg,AFNE14.jpg,FN,3,num_4,48,None,,,,2017_Aug_30_1717,60.0092579761,MAFE4ImagesEEG,001,201255,
AFNE01.JPG,AFNE01.JPG,AFNE01.JPG,AFNE01.JPG,AFNE01.JPG,AFNE01.JPG,,,,,1,9,19,0,,,,,,,,,,,,,,,,,,,AFSA10.jpg,AFNE14.jpg,AFSA18.jpg,AFNE18.jpg,AFSA10.jpg,FS,4,num_8,32,num_6,3.1999702995,,,2017_Aug_30_1717,60.0092579761,MAFE4ImagesEEG,001,201255,
AFNE01.JPG,AFNE01.JPG,AFNE01.JPG,AFNE01.JPG,AFNE01.JPG,AFNE01.JPG,,,,,2,0,20,2,,,,,,,,,,,,,,,,,,,AFNE20.jpg,AFSA01.jpg,AFNE07.jpg,AFSA11.jpg,AFSA01.jpg,FS,4,num_6,32,num_4,0.416820488083,,,2017_Aug_30_1717,60.0092579761,MAFE4ImagesEEG,001,201255,
AFNE01.JPG,AFNE01.JPG,AFNE01.JPG,AFNE01.JPG,AFNE01.JPG,AFNE01.JPG,,,,,2,1,21,9,,,,,,,,,,,,,,,,,,,AFNE10.jpg,AFSA17.jpg,AFSA11.jpg,AFNE18.jpg,AFSA17.jpg,FS,4,num_6,16,num_6,0.750111697602,,,2017_Aug_30_1717,60.0092579761,MAFE4ImagesEEG,001,201255,
AFNE01.JPG,AFNE01.JPG,AFNE01.JPG,AFNE01.JPG,AFNE01.JPG,AFNE01.JPG,,,,,2,2,22,5,,,,,,,,,,,,,,,,,,,AFNE11.jpg,AFNE15.jpg,AFSA16.jpg,AFSA15.jpg,AFNE15.jpg,FN,3,num_6,16,num_6,0.68348732581,,,2017_Aug_30_1717,60.0092579761,MAFE4ImagesEEG,001,201255,
AFNE01.JPG,AFNE01.JPG,AFNE01.JPG,AFNE01.JPG,AFNE01.JPG,AFNE01.JPG,,,,,2,3,23,6,,,,,,,,,,,,,,,,,,,AFNE18.jpg,AFSA08.jpg,AFSA02.jpg,AFNE09.jpg,AFNE09.jpg,FN,3,num_4,16,num_4,0.916769650839,,,2017_Aug_30_1717,60.0092579761,MAFE4ImagesEEG,001,201255,
AFNE01.JPG,AFNE01.JPG,AFNE01.JPG,AFNE01.JPG,AFNE01.JPG,AFNE01.JPG,,,,,2,4,24,8,,,,,,,,,,,,,,,,,,,AFSA15.jpg,AFNE02.jpg,AFSA11.jpg,AFNE07.jpg,AFSA15.jpg,FS,4,num_8,16,num_8,0.816764935966,,,2017_Aug_30_1717,60.0092579761,MAFE4ImagesEEG,001,201255,
AFNE01.JPG,AFNE01.JPG,AFNE01.JPG,AFNE01.JPG,AFNE01.JPG,AFNE01.JPG,,,,,2,5,25,3,,,,,,,,,,,,,,,,,,,AFSA10.jpg,AFSA18.jpg,AFNE17.jpg,AFNE07.jpg,AFNE17.jpg,FN,3,num_2,16,num_2,0.666761712533,,,2017_Aug_30_1717,60.0092579761,MAFE4ImagesEEG,001,201255,
AFNE01.JPG,AFNE01.JPG,AFNE01.JPG,AFNE01.JPG,AFNE01.JPG,AFNE01.JPG,,,,,2,6,26,1,,,,,,,,,,,,,,,,,,,AFSA03.jpg,AFNE01.jpg,AFNE09.jpg,AFSA06.jpg,AFNE01.jpg,FN,3,num_6,16,num_6,0.916768688619,,,2017_Aug_30_1717,60.0092579761,MAFE4ImagesEEG,001,201255,
AFNE01.JPG,AFNE01.JPG,AFNE01.JPG,AFNE01.JPG,AFNE01.JPG,AFNE01.JPG,,,,,2,7,27,7,,,,,,,,,,,,,,,,,,,AFNE11.jpg,AFSA01.jpg,AFNE17.jpg,AFSA14.jpg,AFSA01.jpg,FS,4,num_6,16,num_6,0.666803729433,,,2017_Aug_30_1717,60.0092579761,MAFE4ImagesEEG,001,201255,
AFNE01.JPG,AFNE01.JPG,AFNE01.JPG,AFNE01.JPG,AFNE01.JPG,AFNE01.JPG,,,,,2,8,28,4,,,,,,,,,,,,,,,,,,,AFSA17.jpg,AFNE01.jpg,AFNE03.jpg,AFSA14.jpg,AFSA17.jpg,FS,4,num_8,32,num_4,0.8000046828,,,2017_Aug_30_1717,60.0092579761,MAFE4ImagesEEG,001,201255,
AFNE01.JPG,AFNE01.JPG,AFNE01.JPG,AFNE01.JPG,AFNE01.JPG,AFNE01.JPG,,,,,2,9,29,0,,,,,,,,,,,,,,,,,,,AFSA17.jpg,AFNE03.jpg,AFSA05.jpg,AFNE07.jpg,AFNE07.jpg,FN,3,num_4,16,num_4,0.900403586769,,,2017_Aug_30_1717,60.0092579761,MAFE4ImagesEEG,001,201255,
AFNE01.JPG,AFNE01.JPG,AFNE01.JPG,AFNE01.JPG,AFNE01.JPG,AFNE01.JPG,,,,,3,0,30,7,,,,,,,,,,,,,,,,,,,AFSA19.jpg,AFNE13.jpg,AFNE15.jpg,AFSA18.jpg,AFNE15.jpg,FN,3,num_2,16,num_2,1.5500339503,,,2017_Aug_30_1717,60.0092579761,MAFE4ImagesEEG,001,201255,
AFNE01.JPG,AFNE01.JPG,AFNE01.JPG,AFNE01.JPG,AFNE01.JPG,AFNE01.JPG,,,,,3,1,31,5,,,,,,,,,,,,,,,,,,,AFSA07.jpg,AFNE17.jpg,AFSA03.jpg,AFNE14.jpg,AFNE14.jpg,FN,3,num_4,32,num_6,2.18335983178,,,2017_Aug_30_1717,60.0092579761,MAFE4ImagesEEG,001,201255,
AFNE01.JPG,AFNE01.JPG,AFNE01.JPG,AFNE01.JPG,AFNE01.JPG,AFNE01.JPG,,,,,3,2,32,2,,,,,,,,,,,,,,,,,,,AFSA13.jpg,AFNE10.jpg,AFNE17.jpg,AFSA20.jpg,AFNE17.jpg,FN,3,num_2,32,num_4,2.933257596,,,2017_Aug_30_1717,60.0092579761,MAFE4ImagesEEG,001,201255,
AFNE01.JPG,AFNE01.JPG,AFNE01.JPG,AFNE01.JPG,AFNE01.JPG,AFNE01.JPG,,,,,3,3,33,8,,,,,,,,,,,,,,,,,,,AFSA06.jpg,AFNE09.jpg,AFNE17.jpg,AFSA15.jpg,AFSA15.jpg,FS,4,num_4,16,num_4,0.816748578241,,,2017_Aug_30_1717,60.0092579761,MAFE4ImagesEEG,001,201255,
AFNE01.JPG,AFNE01.JPG,AFNE01.JPG,AFNE01.JPG,AFNE01.JPG,AFNE01.JPG,,,,,3,4,34,3,,,,,,,,,,,,,,,,,,,AFSA08.jpg,AFNE18.jpg,AFSA15.jpg,AFNE13.jpg,AFSA15.jpg,FS,4,num_2,16,num_2,0.433490292653,,,2017_Aug_30_1717,60.0092579761,MAFE4ImagesEEG,001,201255,
AFNE01.JPG,AFNE01.JPG,AFNE01.JPG,AFNE01.JPG,AFNE01.JPG,AFNE01.JPG,,,,,3,5,35,0,,,,,,,,,,,,,,,,,,,AFSA03.jpg,AFNE06.jpg,AFNE07.jpg,AFSA05.jpg,AFNE06.jpg,FN,3,num_6,16,num_6,0.650133924863,,,2017_Aug_30_1717,60.0092579761,MAFE4ImagesEEG,001,201255,
AFNE01.JPG,AFNE01.JPG,AFNE01.JPG,AFNE01.JPG,AFNE01.JPG,AFNE01.JPG,,,,,3,6,36,4,,,,,,,,,,,,,,,,,,,AFNE12.jpg,AFNE11.jpg,AFSA12.jpg,AFSA18.jpg,AFNE12.jpg,FN,3,num_8,16,num_8,0.733404366487,,,2017_Aug_30_1717,60.0092579761,MAFE4ImagesEEG,001,201255,
AFNE01.JPG,AFNE01.JPG,AFNE01.JPG,AFNE01.JPG,AFNE01.JPG,AFNE01.JPG,,,,,3,7,37,9,,,,,,,,,,,,,,,,,,,AFNE12.jpg,AFNE14.jpg,AFSA10.jpg,AFSA09.jpg,AFSA10.jpg,FS,4,num_2,16,num_2,1.25004771003,,,2017_Aug_30_1717,60.0092579761,MAFE4ImagesEEG,001,201255,
AFNE01.JPG,AFNE01.JPG,AFNE01.JPG,AFNE01.JPG,AFNE01.JPG,AFNE01.JPG,,,,,3,8,38,1,,,,,,,,,,,,,,,,,,,AFSA05.jpg,AFNE07.jpg,AFSA11.jpg,AFNE08.jpg,AFNE08.jpg,FN,3,num_4,32,num_6,2.58336169207,,,2017_Aug_30_1717,60.0092579761,MAFE4ImagesEEG,001,201255,
AFNE01.JPG,AFNE01.JPG,AFNE01.JPG,AFNE01.JPG,AFNE01.JPG,AFNE01.JPG,,,,,3,9,39,6,,,,,,,,,,,,,,,,,,,AFNE05.jpg,AFNE03.jpg,AFSA16.jpg,AFSA17.jpg,AFSA17.jpg,FS,4,num_4,16,num_4,0.833468418205,,,2017_Aug_30_1717,60.0092579761,MAFE4ImagesEEG,001,201255,
AFNE01.JPG,AFNE01.JPG,AFNE01.JPG,AFNE01.JPG,AFNE01.JPG,AFNE01.JPG,,,,,4,0,40,6,,,,,,,,,,,,,,,,,,,AFNE14.jpg,AFSA03.jpg,AFSA08.jpg,AFNE06.jpg,AFNE06.jpg,FN,3,num_4,16,num_4,0.550074684239,,,2017_Aug_30_1717,60.0092579761,MAFE4ImagesEEG,001,201255,
AFNE01.JPG,AFNE01.JPG,AFNE01.JPG,AFNE01.JPG,AFNE01.JPG,AFNE01.JPG,,,,,4,1,41,9,,,,,,,,,,,,,,,,,,,AFNE08.jpg,AFNE06.jpg,AFSA07.jpg,AFSA11.jpg,AFNE08.jpg,FN,3,num_8,16,num_8,0.733470759606,,,2017_Aug_30_1717,60.0092579761,MAFE4ImagesEEG,001,201255,
AFNE01.JPG,AFNE01.JPG,AFNE01.JPG,AFNE01.JPG,AFNE01.JPG,AFNE01.JPG,,,,,4,2,42,8,,,,,,,,,,,,,,,,,,,AFNE12.jpg,AFNE13.jpg,AFSA13.jpg,AFSA02.jpg,AFNE13.jpg,FN,3,num_6,32,num_4,0.916834760999,,,2017_Aug_30_1717,60.0092579761,MAFE4ImagesEEG,001,201255,
AFNE01.JPG,AFNE01.JPG,AFNE01.JPG,AFNE01.JPG,AFNE01.JPG,AFNE01.JPG,,,,,4,3,43,0,,,,,,,,,,,,,,,,,,,AFSA16.jpg,AFNE04.jpg,AFSA19.jpg,AFNE12.jpg,AFNE04.jpg,FN,3,num_6,32,num_4,0.666632775172,,,2017_Aug_30_1717,60.0092579761,MAFE4ImagesEEG,001,201255,
AFNE01.JPG,AFNE01.JPG,AFNE01.JPG,AFNE01.JPG,AFNE01.JPG,AFNE01.JPG,,,,,4,4,44,7,,,,,,,,,,,,,,,,,,,AFNE10.jpg,AFSA16.jpg,AFNE14.jpg,AFSA07.jpg,AFNE14.jpg,FN,3,num_2,32,num_4,0.71746456548,,,2017_Aug_30_1717,60.0092579761,MAFE4ImagesEEG,001,201255,
AFNE01.JPG,AFNE01.JPG,AFNE01.JPG,AFNE01.JPG,AFNE01.JPG,AFNE01.JPG,,,,,4,5,45,3,,,,,,,,,,,,,,,,,,,AFSA06.jpg,AFNE11.jpg,AFNE10.jpg,AFSA12.jpg,AFNE10.jpg,FN,3,num_2,32,num_4,0.650114039001,,,2017_Aug_30_1717,60.0092579761,MAFE4ImagesEEG,001,201255,
AFNE01.JPG,AFNE01.JPG,AFNE01.JPG,AFNE01.JPG,AFNE01.JPG,AFNE01.JPG,,,,,4,6,46,4,,,,,,,,,,,,,,,,,,,AFSA05.jpg,AFSA02.jpg,AFNE07.jpg,AFNE18.jpg,AFNE07.jpg,FN,3,num_2,32,num_4,0.900204728152,,,2017_Aug_30_1717,60.0092579761,MAFE4ImagesEEG,001,201255,
AFNE01.JPG,AFNE01.JPG,AFNE01.JPG,AFNE01.JPG,AFNE01.JPG,AFNE01.JPG,,,,,4,7,47,5,,,,,,,,,,,,,,,,,,,AFSA03.jpg,AFSA14.jpg,AFNE12.jpg,AFNE19.jpg,AFSA03.jpg,FS,4,num_8,32,num_6,1.43327058596,,,2017_Aug_30_1717,60.0092579761,MAFE4ImagesEEG,001,201255,
AFNE01.JPG,AFNE01.JPG,AFNE01.JPG,AFNE01.JPG,AFNE01.JPG,AFNE01.JPG,,,,,4,8,48,2,,,,,,,,,,,,,,,,,,,AFSA10.jpg,AFNE10.jpg,AFSA14.jpg,AFNE11.jpg,AFNE11.jpg,FN,3,num_4,16,num_4,1.70005128628,,,2017_Aug_30_1717,60.0092579761,MAFE4ImagesEEG,001,201255,
AFNE01.JPG,AFNE01.JPG,AFNE01.JPG,AFNE01.JPG,AFNE01.JPG,AFNE01.JPG,,,,,4,9,49,1,,,,,,,,,,,,,,,,,,,AFNE19.jpg,AFNE08.jpg,AFSA19.jpg,AFSA09.jpg,AFSA19.jpg,FS,4,num_2,32,num_4,0.950097071873,,,2017_Aug_30_1717,60.0092579761,MAFE4ImagesEEG,001,201255,
AFNE01.JPG,AFNE01.JPG,AFNE01.JPG,AFNE01.JPG,AFNE01.JPG,AFNE01.JPG,,,,,5,0,50,3,,,,,,,,,,,,,,,,,,,AFSA08.jpg,AFNE20.jpg,AFNE09.jpg,AFSA13.jpg,AFSA13.jpg,FS,4,num_4,16,num_4,0.533486347555,,,2017_Aug_30_1717,60.0092579761,MAFE4ImagesEEG,001,201255,
AFNE01.JPG,AFNE01.JPG,AFNE01.JPG,AFNE01.JPG,AFNE01.JPG,AFNE01.JPG,,,,,5,1,51,4,,,,,,,,,,,,,,,,,,,AFSA06.jpg,AFSA11.jpg,AFNE04.jpg,AFNE08.jpg,AFNE08.jpg,FN,3,num_4,32,num_2,0.833466173028,,,2017_Aug_30_1717,60.0092579761,MAFE4ImagesEEG,001,201255,
AFNE01.JPG,AFNE01.JPG,AFNE01.JPG,AFNE01.JPG,AFNE01.JPG,AFNE01.JPG,,,,,5,2,52,2,,,,,,,,,,,,,,,,,,,AFSA12.jpg,AFNE10.jpg,AFSA14.jpg,AFNE16.jpg,AFSA12.jpg,FS,4,num_8,16,num_8,0.616790787586,,,2017_Aug_30_1717,60.0092579761,MAFE4ImagesEEG,001,201255,
AFNE01.JPG,AFNE01.JPG,AFNE01.JPG,AFNE01.JPG,AFNE01.JPG,AFNE01.JPG,,,,,5,3,53,9,,,,,,,,,,,,,,,,,,,AFSA05.jpg,AFNE06.jpg,AFSA12.jpg,AFNE16.jpg,AFSA05.jpg,FS,4,num_8,32,num_4,0.783461249674,,,2017_Aug_30_1717,60.0092579761,MAFE4ImagesEEG,001,201255,
AFNE01.JPG,AFNE01.JPG,AFNE01.JPG,AFNE01.JPG,AFNE01.JPG,AFNE01.JPG,,,,,5,4,54,1,,,,,,,,,,,,,,,,,,,AFSA17.jpg,AFSA02.jpg,AFNE02.jpg,AFNE18.jpg,AFSA02.jpg,FS,4,num_6,32,num_4,1.25007080329,,,2017_Aug_30_1717,60.0092579761,MAFE4ImagesEEG,001,201255,
AFNE01.JPG,AFNE01.JPG,AFNE01.JPG,AFNE01.JPG,AFNE01.JPG,AFNE01.JPG,,,,,5,5,55,6,,,,,,,,,,,,,,,,,,,AFSA20.jpg,AFNE20.jpg,AFSA13.jpg,AFNE19.jpg,AFSA13.jpg,FS,4,num_2,16,num_2,0.433495103749,,,2017_Aug_30_1717,60.0092579761,MAFE4ImagesEEG,001,201255,
AFNE01.JPG,AFNE01.JPG,AFNE01.JPG,AFNE01.JPG,AFNE01.JPG,AFNE01.JPG,,,,,5,6,56,0,,,,,,,,,,,,,,,,,,,AFSA08.jpg,AFNE18.jpg,AFSA10.jpg,AFNE12.jpg,AFSA10.jpg,FS,4,num_2,32,num_8,0.733510210588,,,2017_Aug_30_1717,60.0092579761,MAFE4ImagesEEG,001,201255,
AFNE01.JPG,AFNE01.JPG,AFNE01.JPG,AFNE01.JPG,AFNE01.JPG,AFNE01.JPG,,,,,5,7,57,7,,,,,,,,,,,,,,,,,,,AFSA01.jpg,AFNE18.jpg,AFSA20.jpg,AFNE16.jpg,AFSA20.jpg,FS,4,num_2,32,num_6,2.01663997578,,,2017_Aug_30_1717,60.0092579761,MAFE4ImagesEEG,001,201255,
AFNE01.JPG,AFNE01.JPG,AFNE01.JPG,AFNE01.JPG,AFNE01.JPG,AFNE01.JPG,,,,,5,8,58,8,,,,,,,,,,,,,,,,,,,AFNE14.jpg,AFSA10.jpg,AFSA18.jpg,AFNE10.jpg,AFSA10.jpg,FS,4,num_6,32,num_8,0.633514476427,,,2017_Aug_30_1717,60.0092579761,MAFE4ImagesEEG,001,201255,
AFNE01.JPG,AFNE01.JPG,AFNE01.JPG,AFNE01.JPG,AFNE01.JPG,AFNE01.JPG,,,,,5,9,59,5,,,,,,,,,,,,,,,,,,,AFSA09.jpg,AFNE02.jpg,AFSA02.jpg,AFNE17.jpg,AFNE17.jpg,FN,3,num_4,16,num_4,0.733188829407,,,2017_Aug_30_1717,60.0092579761,MAFE4ImagesEEG,001,201255,
,,,,,,,,,,,,,,,,,,,,,,,,,,,,,,,,,,,,,,,,,,,space,69.02836654,2017_Aug_30_1717,60.0092579761,MAFE4ImagesEEG,001,201255,
AFNE01.JPG,AFNE01.JPG,AFNE01.JPG,AFNE01.JPG,AFNE01.JPG,AFNE01.JPG,,,,,,,,,0,0,0,8,,,,,,,,,,,,,,,AMNE12.jpg,AMNE03.jpg,AMSA18.jpg,AMSA04.jpg,AMSA04.jpg,MS,2,num_4,16,num_4,0.366771623389,,,2017_Aug_30_1717,60.0092579761,MAFE4ImagesEEG,001,201255,
AFNE01.JPG,AFNE01.JPG,AFNE01.JPG,AFNE01.JPG,AFNE01.JPG,AFNE01.JPG,,,,,,,,,0,1,1,4,,,,,,,,,,,,,,,AMSA15.jpg,AMNE17.jpg,AMSA08.jpg,AMNE11.jpg,AMNE17.jpg,MN,1,num_6,16,num_6,0.750110414643,,,2017_Aug_30_1717,60.0092579761,MAFE4ImagesEEG,001,201255,
AFNE01.JPG,AFNE01.JPG,AFNE01.JPG,AFNE01.JPG,AFNE01.JPG,AFNE01.JPG,,,,,,,,,0,2,2,5,,,,,,,,,,,,,,,AMNE13.jpg,AMNE19.jpg,AMSA05.jpg,AMSA12.jpg,AMNE19.jpg,MN,1,num_6,16,num_6,0.733449270045,,,2017_Aug_30_1717,60.0092579761,MAFE4ImagesEEG,001,201255,
AFNE01.JPG,AFNE01.JPG,AFNE01.JPG,AFNE01.JPG,AFNE01.JPG,AFNE01.JPG,,,,,,,,,0,3,3,6,,,,,,,,,,,,,,,AMNE03.jpg,AMSA01.jpg,AMSA16.jpg,AMNE13.jpg,AMNE03.jpg,MN,1,num_8,32,num_6,0.700147508191,,,2017_Aug_30_1717,60.0092579761,MAFE4ImagesEEG,001,201255,
AFNE01.JPG,AFNE01.JPG,AFNE01.JPG,AFNE01.JPG,AFNE01.JPG,AFNE01.JPG,,,,,,,,,0,4,4,0,,,,,,,,,,,,,,,AMSA18.jpg,AMSA13.jpg,AMNE17.jpg,AMNE09.jpg,AMNE09.jpg,MN,1,num_4,32,num_6,0.85016356121,,,2017_Aug_30_1717,60.0092579761,MAFE4ImagesEEG,001,201255,
AFNE01.JPG,AFNE01.JPG,AFNE01.JPG,AFNE01.JPG,AFNE01.JPG,AFNE01.JPG,,,,,,,,,0,5,5,3,,,,,,,,,,,,,,,AMNE11.jpg,AMNE05.jpg,AMSA11.jpg,AMSA02.jpg,AMNE11.jpg,MN,1,num_8,16,num_8,0.833428005002,,,2017_Aug_30_1717,60.0092579761,MAFE4ImagesEEG,001,201255,
AFNE01.JPG,AFNE01.JPG,AFNE01.JPG,AFNE01.JPG,AFNE01.JPG,AFNE01.JPG,,,,,,,,,0,6,6,7,,,,,,,,,,,,,,,AMNE03.jpg,AMSA10.jpg,AMSA09.jpg,AMNE09.jpg,AMSA10.jpg,MS,2,num_6,32,num_4,0.616822540816,,,2017_Aug_30_1717,60.0092579761,MAFE4ImagesEEG,001,201255,
AFNE01.JPG,AFNE01.JPG,AFNE01.JPG,AFNE01.JPG,AFNE01.JPG,AFNE01.JPG,,,,,,,,,0,7,7,2,,,,,,,,,,,,,,,AMSA04.jpg,AMSA08.jpg,AMNE20.jpg,AMNE10.jpg,AMSA08.jpg,MS,2,num_6,32,num_8,1.29995224186,,,2017_Aug_30_1717,60.0092579761,MAFE4ImagesEEG,001,201255,
AFNE01.JPG,AFNE01.JPG,AFNE01.JPG,AFNE01.JPG,AFNE01.JPG,AFNE01.JPG,,,,,,,,,0,8,8,9,,,,,,,,,,,,,,,AMSA09.jpg,AMNE06.jpg,AMSA01.jpg,AMNE09.jpg,AMSA01.jpg,MS,2,num_2,32,num_8,1.20010821758,,,2017_Aug_30_1717,60.0092579761,MAFE4ImagesEEG,001,201255,
AFNE01.JPG,AFNE01.JPG,AFNE01.JPG,AFNE01.JPG,AFNE01.JPG,AFNE01.JPG,,,,,,,,,0,9,9,1,,,,,,,,,,,,,,,AMNE18.jpg,AMSA20.jpg,AMNE19.jpg,AMSA15.jpg,AMNE19.jpg,MN,1,num_2,32,num_6,0.683471288825,,,2017_Aug_30_1717,60.0092579761,MAFE4ImagesEEG,001,201255,
AFNE01.JPG,AFNE01.JPG,AFNE01.JPG,AFNE01.JPG,AFNE01.JPG,AFNE01.JPG,,,,,,,,,1,0,10,6,,,,,,,,,,,,,,,AMNE07.jpg,AMSA18.jpg,AMSA10.jpg,AMNE03.jpg,AMNE03.jpg,MN,1,num_4,16,num_4,0.78342019499,,,2017_Aug_30_1717,60.0092579761,MAFE4ImagesEEG,001,201255,
AFNE01.JPG,AFNE01.JPG,AFNE01.JPG,AFNE01.JPG,AFNE01.JPG,AFNE01.JPG,,,,,,,,,1,1,11,3,,,,,,,,,,,,,,,AMNE07.jpg,AMNE03.jpg,AMSA12.jpg,AMSA02.jpg,AMNE07.jpg,MN,1,num_8,16,num_8,0.833470342644,,,2017_Aug_30_1717,60.0092579761,MAFE4ImagesEEG,001,201255,
AFNE01.JPG,AFNE01.JPG,AFNE01.JPG,AFNE01.JPG,AFNE01.JPG,AFNE01.JPG,,,,,,,,,1,2,12,5,,,,,,,,,,,,,,,AMNE14.jpg,AMNE07.jpg,AMSA10.jpg,AMSA20.jpg,AMSA20.jpg,MS,2,num_4,16,num_4,0.483466028694,,,2017_Aug_30_1717,60.0092579761,MAFE4ImagesEEG,001,201255,
AFNE01.JPG,AFNE01.JPG,AFNE01.JPG,AFNE01.JPG,AFNE01.JPG,AFNE01.JPG,,,,,,,,,1,3,13,9,,,,,,,,,,,,,,,AMSA08.jpg,AMNE13.jpg,AMSA15.jpg,AMNE04.jpg,AMSA08.jpg,MS,2,num_8,16,num_8,0.766768672584,,,2017_Aug_30_1717,60.0092579761,MAFE4ImagesEEG,001,201255,
AFNE01.JPG,AFNE01.JPG,AFNE01.JPG,AFNE01.JPG,AFNE01.JPG,AFNE01.JPG,,,,,,,,,1,4,14,4,,,,,,,,,,,,,,,AMSA10.jpg,AMSA03.jpg,AMNE16.jpg,AMNE15.jpg,AMNE15.jpg,MN,1,num_4,32,num_8,0.716738410792,,,2017_Aug_30_1717,60.0092579761,MAFE4ImagesEEG,001,201255,
AFNE01.JPG,AFNE01.JPG,AFNE01.JPG,AFNE01.JPG,AFNE01.JPG,AFNE01.JPG,,,,,,,,,1,5,15,1,,,,,,,,,,,,,,,AMSA14.jpg,AMNE12.jpg,AMNE13.jpg,AMSA15.jpg,AMNE13.jpg,MN,1,num_2,32,num_8,1.11682655006,,,2017_Aug_30_1717,60.0092579761,MAFE4ImagesEEG,001,201255,
AFNE01.JPG,AFNE01.JPG,AFNE01.JPG,AFNE01.JPG,AFNE01.JPG,AFNE01.JPG,,,,,,,,,1,6,16,2,,,,,,,,,,,,,,,AMSA04.jpg,AMSA09.jpg,AMNE13.jpg,AMNE19.jpg,AMSA09.jpg,MS,2,num_6,16,num_6,1.48343876582,,,2017_Aug_30_1717,60.0092579761,MAFE4ImagesEEG,001,201255,
AFNE01.JPG,AFNE01.JPG,AFNE01.JPG,AFNE01.JPG,AFNE01.JPG,AFNE01.JPG,,,,,,,,,1,7,17,0,,,,,,,,,,,,,,,AMSA14.jpg,AMSA09.jpg,AMNE12.jpg,AMNE07.jpg,AMSA09.jpg,MS,2,num_6,32,num_4,0.966759178687,,,2017_Aug_30_1717,60.0092579761,MAFE4ImagesEEG,001,201255,
AFNE01.JPG,AFNE01.JPG,AFNE01.JPG,AFNE01.JPG,AFNE01.JPG,AFNE01.JPG,,,,,,,,,1,8,18,8,,,,,,,,,,,,,,,AMNE08.jpg,AMSA05.jpg,AMSA15.jpg,AMNE09.jpg,AMSA15.jpg,MS,2,num_2,32,num_4,2.53328780968,,,2017_Aug_30_1717,60.0092579761,MAFE4ImagesEEG,001,201255,
AFNE01.JPG,AFNE01.JPG,AFNE01.JPG,AFNE01.JPG,AFNE01.JPG,AFNE01.JPG,,,,,,,,,1,9,19,7,,,,,,,,,,,,,,,AMSA15.jpg,AMSA02.jpg,AMNE08.jpg,AMNE17.jpg,AMNE17.jpg,MN,1,num_4,16,num_4,0.5335222704,,,2017_Aug_30_1717,60.0092579761,MAFE4ImagesEEG,001,201255,
AFNE01.JPG,AFNE01.JPG,AFNE01.JPG,AFNE01.JPG,AFNE01.JPG,AFNE01.JPG,,,,,,,,,2,0,20,8,,,,,,,,,,,,,,,AMSA02.jpg,AMNE07.jpg,AMSA08.jpg,AMNE12.jpg,AMSA02.jpg,MS,2,num_8,32,num_6,0.683467760689,,,2017_Aug_30_1717,60.0092579761,MAFE4ImagesEEG,001,201255,
AFNE01.JPG,AFNE01.JPG,AFNE01.JPG,AFNE01.JPG,AFNE01.JPG,AFNE01.JPG,,,,,,,,,2,1,21,7,,,,,,,,,,,,,,,AMSA12.jpg,AMNE02.jpg,AMNE04.jpg,AMSA17.jpg,AMSA12.jpg,MS,2,num_8,16,num_8,0.98343764323,,,2017_Aug_30_1717,60.0092579761,MAFE4ImagesEEG,001,201255,
AFNE01.JPG,AFNE01.JPG,AFNE01.JPG,AFNE01.JPG,AFNE01.JPG,AFNE01.JPG,,,,,,,,,2,2,22,1,,,,,,,,,,,,,,,AMNE05.jpg,AMSA04.jpg,AMNE15.jpg,AMSA07.jpg,AMSA04.jpg,MS,2,num_6,16,num_6,0.900106581805,,,2017_Aug_30_1717,60.0092579761,MAFE4ImagesEEG,001,201255,
AFNE01.JPG,AFNE01.JPG,AFNE01.JPG,AFNE01.JPG,AFNE01.JPG,AFNE01.JPG,,,,,,,,,2,3,23,4,,,,,,,,,,,,,,,AMNE07.jpg,AMSA05.jpg,AMNE03.jpg,AMSA02.jpg,AMSA05.jpg,MS,2,num_6,32,num_8,0.816752747858,,,2017_Aug_30_1717,60.0092579761,MAFE4ImagesEEG,001,201255,
AFNE01.JPG,AFNE01.JPG,AFNE01.JPG,AFNE01.JPG,AFNE01.JPG,AFNE01.JPG,,,,,,,,,2,4,24,5,,,,,,,,,,,,,,,AMNE14.jpg,AMSA01.jpg,AMSA19.jpg,AMNE20.jpg,AMSA19.jpg,MS,2,num_2,32,num_6,1.71666848954,,,2017_Aug_30_1717,60.0092579761,MAFE4ImagesEEG,001,201255,
AFNE01.JPG,AFNE01.JPG,AFNE01.JPG,AFNE01.JPG,AFNE01.JPG,AFNE01.JPG,,,,,,,,,2,5,25,6,,,,,,,,,,,,,,,AMSA05.jpg,AMSA11.jpg,AMNE08.jpg,AMNE15.jpg,AMNE08.jpg,MN,1,num_2,32,num_4,0.650113076781,,,2017_Aug_30_1717,60.0092579761,MAFE4ImagesEEG,001,201255,
AFNE01.JPG,AFNE01.JPG,AFNE01.JPG,AFNE01.JPG,AFNE01.JPG,AFNE01.JPG,,,,,,,,,2,6,26,9,,,,,,,,,,,,,,,AMNE20.jpg,AMSA18.jpg,AMSA17.jpg,AMNE10.jpg,AMNE20.jpg,MN,1,num_8,16,num_8,1.48342304957,,,2017_Aug_30_1717,60.0092579761,MAFE4ImagesEEG,001,201255,
AFNE01.JPG,AFNE01.JPG,AFNE01.JPG,AFNE01.JPG,AFNE01.JPG,AFNE01.JPG,,,,,,,,,2,7,27,0,,,,,,,,,,,,,,,AMNE01.jpg,AMNE03.jpg,AMSA15.jpg,AMSA09.jpg,AMSA09.jpg,MS,2,num_4,32,num_2,1.65009254944,,,2017_Aug_30_1717,60.0092579761,MAFE4ImagesEEG,001,201255,
AFNE01.JPG,AFNE01.JPG,AFNE01.JPG,AFNE01.JPG,AFNE01.JPG,AFNE01.JPG,,,,,,,,,2,8,28,3,,,,,,,,,,,,,,,AMNE03.jpg,AMSA03.jpg,AMNE19.jpg,AMSA14.jpg,AMNE03.jpg,MN,1,num_8,32,num_4,0.81674954046,,,2017_Aug_30_1717,60.0092579761,MAFE4ImagesEEG,001,201255,
AFNE01.JPG,AFNE01.JPG,AFNE01.JPG,AFNE01.JPG,AFNE01.JPG,AFNE01.JPG,,,,,,,,,2,9,29,2,,,,,,,,,,,,,,,AMSA04.jpg,AMNE14.jpg,AMNE13.jpg,AMSA01.jpg,AMNE14.jpg,MN,1,num_6,16,num_6,0.850126996886,,,2017_Aug_30_1717,60.0092579761,MAFE4ImagesEEG,001,201255,
AFNE01.JPG,AFNE01.JPG,AFNE01.JPG,AFNE01.JPG,AFNE01.JPG,AFNE01.JPG,,,,,,,,,3,0,30,4,,,,,,,,,,,,,,,AMNE12.jpg,AMSA19.jpg,AMSA01.jpg,AMNE07.jpg,AMSA01.jpg,MS,2,num_2,32,num_4,0.58344668809,,,2017_Aug_30_1717,60.0092579761,MAFE4ImagesEEG,001,201255,
AFNE01.JPG,AFNE01.JPG,AFNE01.JPG,AFNE01.JPG,AFNE01.JPG,AFNE01.JPG,,,,,,,,,3,1,31,9,,,,,,,,,,,,,,,AMSA18.jpg,AMNE06.jpg,AMSA09.jpg,AMNE11.jpg,AMSA09.jpg,MS,2,num_2,32,num_4,0.933740629991,,,2017_Aug_30_1717,60.0092579761,MAFE4ImagesEEG,001,201255,
AFNE01.JPG,AFNE01.JPG,AFNE01.JPG,AFNE01.JPG,AFNE01.JPG,AFNE01.JPG,,,,,,,,,3,2,32,0,,,,,,,,,,,,,,,AMSA20.jpg,AMSA03.jpg,AMNE07.jpg,AMNE04.jpg,AMSA03.jpg,MS,2,num_6,32,num_4,1.25005284187,,,2017_Aug_30_1717,60.0092579761,MAFE4ImagesEEG,001,201255,
AFNE01.JPG,AFNE01.JPG,AFNE01.JPG,AFNE01.JPG,AFNE01.JPG,AFNE01.JPG,,,,,,,,,3,3,33,3,,,,,,,,,,,,,,,AMSA14.jpg,AMNE10.jpg,AMNE07.jpg,AMSA16.jpg,AMNE10.jpg,MN,1,num_6,16,num_6,0.800160241555,,,2017_Aug_30_1717,60.0092579761,MAFE4ImagesEEG,001,201255,
AFNE01.JPG,AFNE01.JPG,AFNE01.JPG,AFNE01.JPG,AFNE01.JPG,AFNE01.JPG,,,,,,,,,3,4,34,8,,,,,,,,,,,,,,,AMSA17.jpg,AMNE01.jpg,AMSA13.jpg,AMNE19.jpg,AMSA17.jpg,MS,2,num_8,16,num_8,0.600143114056,,,2017_Aug_30_1717,60.0092579761,MAFE4ImagesEEG,001,201255,
AFNE01.JPG,AFNE01.JPG,AFNE01.JPG,AFNE01.JPG,AFNE01.JPG,AFNE01.JPG,,,,,,,,,3,5,35,1,,,,,,,,,,,,,,,AMSA01.jpg,AMNE19.jpg,AMNE11.jpg,AMSA07.jpg,AMNE19.jpg,MN,1,num_6,16,num_6,0.666748562204,,,2017_Aug_30_1717,60.0092579761,MAFE4ImagesEEG,001,201255,
AFNE01.JPG,AFNE01.JPG,AFNE01.JPG,AFNE01.JPG,AFNE01.JPG,AFNE01.JPG,,,,,,,,,3,6,36,6,,,,,,,,,,,,,,,AMNE03.jpg,AMSA07.jpg,AMSA16.jpg,AMNE09.jpg,AMSA16.jpg,MS,2,num_2,32,num_6,0.55014909585,,,2017_Aug_30_1717,60.0092579761,MAFE4ImagesEEG,001,201255,
AFNE01.JPG,AFNE01.JPG,AFNE01.JPG,AFNE01.JPG,AFNE01.JPG,AFNE01.JPG,,,,,,,,,3,7,37,2,,,,,,,,,,,,,,,AMNE08.jpg,AMSA01.jpg,AMNE09.jpg,AMSA02.jpg,AMNE09.jpg,MN,1,num_2,32,num_8,0.750036323772,,,2017_Aug_30_1717,60.0092579761,MAFE4ImagesEEG,001,201255,
AFNE01.JPG,AFNE01.JPG,AFNE01.JPG,AFNE01.JPG,AFNE01.JPG,AFNE01.JPG,,,,,,,,,3,8,38,7,,,,,,,,,,,,,,,AMSA07.jpg,AMNE20.jpg,AMNE13.jpg,AMSA02.jpg,AMNE20.jpg,MN,1,num_6,32,num_8,0.583468498389,,,2017_Aug_30_1717,60.0092579761,MAFE4ImagesEEG,001,201255,
AFNE01.JPG,AFNE01.JPG,AFNE01.JPG,AFNE01.JPG,AFNE01.JPG,AFNE01.JPG,,,,,,,,,3,9,39,5,,,,,,,,,,,,,,,AMSA05.jpg,AMNE14.jpg,AMSA03.jpg,AMNE09.jpg,AMSA03.jpg,MS,2,num_2,32,num_8,0.683450761484,,,2017_Aug_30_1717,60.0092579761,MAFE4ImagesEEG,001,201255,
AFNE01.JPG,AFNE01.JPG,AFNE01.JPG,AFNE01.JPG,AFNE01.JPG,AFNE01.JPG,,,,,,,,,4,0,40,6,,,,,,,,,,,,,,,AMSA05.jpg,AMNE04.jpg,AMSA09.jpg,AMNE14.jpg,AMSA09.jpg,MS,2,num_2,32,num_4,0.816736390134,,,2017_Aug_30_1717,60.0092579761,MAFE4ImagesEEG,001,201255,
AFNE01.JPG,AFNE01.JPG,AFNE01.JPG,AFNE01.JPG,AFNE01.JPG,AFNE01.JPG,,,,,,,,,4,1,41,2,,,,,,,,,,,,,,,AMNE15.jpg,AMSA03.jpg,AMSA12.jpg,AMNE04.jpg,AMNE04.jpg,MN,1,num_4,16,num_4,0.666790899846,,,2017_Aug_30_1717,60.0092579761,MAFE4ImagesEEG,001,201255,
AFNE01.JPG,AFNE01.JPG,AFNE01.JPG,AFNE01.JPG,AFNE01.JPG,AFNE01.JPG,,,,,,,,,4,2,42,3,,,,,,,,,,,,,,,AMSA06.jpg,AMNE06.jpg,AMSA02.jpg,AMNE05.jpg,AMNE06.jpg,MN,1,num_6,32,num_2,0.916700050322,,,2017_Aug_30_1717,60.0092579761,MAFE4ImagesEEG,001,201255,
AFNE01.JPG,AFNE01.JPG,AFNE01.JPG,AFNE01.JPG,AFNE01.JPG,AFNE01.JPG,,,,,,,,,4,3,43,0,,,,,,,,,,,,,,,AMSA10.jpg,AMNE08.jpg,AMNE05.jpg,AMSA04.jpg,AMNE05.jpg,MN,1,num_2,32,num_6,2.15027072035,,,2017_Aug_30_1717,60.0092579761,MAFE4ImagesEEG,001,201255,
AFNE01.JPG,AFNE01.JPG,AFNE01.JPG,AFNE01.JPG,AFNE01.JPG,AFNE01.JPG,,,,,,,,,4,4,44,4,,,,,,,,,,,,,,,AMSA17.jpg,AMSA08.jpg,AMNE12.jpg,AMNE15.jpg,AMNE15.jpg,MN,1,num_4,32,num_2,0.800169863749,,,2017_Aug_30_1717,60.0092579761,MAFE4ImagesEEG,001,201255,
AFNE01.JPG,AFNE01.JPG,AFNE01.JPG,AFNE01.JPG,AFNE01.JPG,AFNE01.JPG,,,,,,,,,4,5,45,9,,,,,,,,,,,,,,,AMNE02.jpg,AMSA13.jpg,AMNE09.jpg,AMSA04.jpg,AMSA04.jpg,MS,2,num_4,16,num_4,0.83342992944,,,2017_Aug_30_1717,60.0092579761,MAFE4ImagesEEG,001,201255,
AFNE01.JPG,AFNE01.JPG,AFNE01.JPG,AFNE01.JPG,AFNE01.JPG,AFNE01.JPG,,,,,,,,,4,6,46,7,,,,,,,,,,,,,,,AMNE20.jpg,AMSA05.jpg,AMSA19.jpg,AMNE07.jpg,AMNE20.jpg,MN,1,num_8,16,num_8,0.699988742035,,,2017_Aug_30_1717,60.0092579761,MAFE4ImagesEEG,001,201255,
AFNE01.JPG,AFNE01.JPG,AFNE01.JPG,AFNE01.JPG,AFNE01.JPG,AFNE01.JPG,,,,,,,,,4,7,47,8,,,,,,,,,,,,,,,AMSA13.jpg,AMSA14.jpg,AMNE09.jpg,AMNE17.jpg,AMSA14.jpg,MS,2,num_6,32,num_2,0.716753806297,,,2017_Aug_30_1717,60.0092579761,MAFE4ImagesEEG,001,201255,
AFNE01.JPG,AFNE01.JPG,AFNE01.JPG,AFNE01.JPG,AFNE01.JPG,AFNE01.JPG,,,,,,,,,4,8,48,1,,,,,,,,,,,,,,,AMNE02.jpg,AMNE08.jpg,AMSA15.jpg,AMSA08.jpg,AMSA15.jpg,MS,2,num_2,32,num_4,1.90013256172,,,2017_Aug_30_1717,60.0092579761,MAFE4ImagesEEG,001,201255,
AFNE01.JPG,AFNE01.JPG,AFNE01.JPG,AFNE01.JPG,AFNE01.JPG,AFNE01.JPG,,,,,,,,,4,9,49,5,,,,,,,,,,,,,,,AMSA13.jpg,AMNE14.jpg,AMSA03.jpg,AMNE13.jpg,AMSA03.jpg,MS,2,num_2,16,num_2,2.3998443771,,,2017_Aug_30_1717,60.0092579761,MAFE4ImagesEEG,001,201255,
AFNE01.JPG,AFNE01.JPG,AFNE01.JPG,AFNE01.JPG,AFNE01.JPG,AFNE01.JPG,,,,,,,,,5,0,50,4,,,,,,,,,,,,,,,AMNE13.jpg,AMSA06.jpg,AMSA12.jpg,AMNE03.jpg,AMNE13.jpg,MN,1,num_8,16,num_8,0.833475474476,,,2017_Aug_30_1717,60.0092579761,MAFE4ImagesEEG,001,201255,
AFNE01.JPG,AFNE01.JPG,AFNE01.JPG,AFNE01.JPG,AFNE01.JPG,AFNE01.JPG,,,,,,,,,5,1,51,0,,,,,,,,,,,,,,,AMNE17.jpg,AMSA18.jpg,AMNE14.jpg,AMSA15.jpg,AMNE14.jpg,MN,1,num_2,32,num_8,0.650128151545,,,2017_Aug_30_1717,60.0092579761,MAFE4ImagesEEG,001,201255,
AFNE01.JPG,AFNE01.JPG,AFNE01.JPG,AFNE01.JPG,AFNE01.JPG,AFNE01.JPG,,,,,,,,,5,2,52,3,,,,,,,,,,,,,,,AMNE18.jpg,AMSA20.jpg,AMNE19.jpg,AMSA12.jpg,AMNE19.jpg,MN,1,num_2,32,num_8,0.600144397013,,,2017_Aug_30_1717,60.0092579761,MAFE4ImagesEEG,001,201255,
AFNE01.JPG,AFNE01.JPG,AFNE01.JPG,AFNE01.JPG,AFNE01.JPG,AFNE01.JPG,,,,,,,,,5,3,53,1,,,,,,,,,,,,,,,AMNE18.jpg,AMNE02.jpg,AMSA12.jpg,AMSA06.jpg,AMSA06.jpg,MS,2,num_4,32,num_2,1.38351263217,,,2017_Aug_30_1717,60.0092579761,MAFE4ImagesEEG,001,201255,
AFNE01.JPG,AFNE01.JPG,AFNE01.JPG,AFNE01.JPG,AFNE01.JPG,AFNE01.JPG,,,,,,,,,5,4,54,6,,,,,,,,,,,,,,,AMNE07.jpg,AMSA12.jpg,AMNE03.jpg,AMSA14.jpg,AMNE07.jpg,MN,1,num_8,16,num_8,2.28331451126,,,2017_Aug_30_1717,60.0092579761,MAFE4ImagesEEG,001,201255,
AFNE01.JPG,AFNE01.JPG,AFNE01.JPG,AFNE01.JPG,AFNE01.JPG,AFNE01.JPG,,,,,,,,,5,5,55,5,,,,,,,,,,,,,,,AMNE11.jpg,AMSA10.jpg,AMNE01.jpg,AMSA16.jpg,AMNE11.jpg,MN,1,num_8,16,num_8,1.31675322897,,,2017_Aug_30_1717,60.0092579761,MAFE4ImagesEEG,001,201255,
AFNE01.JPG,AFNE01.JPG,AFNE01.JPG,AFNE01.JPG,AFNE01.JPG,AFNE01.JPG,,,,,,,,,5,6,56,9,,,,,,,,,,,,,,,AMNE05.jpg,AMNE06.jpg,AMSA07.jpg,AMSA09.jpg,AMNE06.jpg,MN,1,num_6,16,num_6,0.300185740361,,,2017_Aug_30_1717,60.0092579761,MAFE4ImagesEEG,001,201255,
AFNE01.JPG,AFNE01.JPG,AFNE01.JPG,AFNE01.JPG,AFNE01.JPG,AFNE01.JPG,,,,,,,,,5,7,57,7,,,,,,,,,,,,,,,AMNE05.jpg,AMSA07.jpg,AMSA17.jpg,AMNE17.jpg,AMSA17.jpg,MS,2,num_2,32,num_8,1.93336440232,,,2017_Aug_30_1717,60.0092579761,MAFE4ImagesEEG,001,201255,
AFNE01.JPG,AFNE01.JPG,AFNE01.JPG,AFNE01.JPG,AFNE01.JPG,AFNE01.JPG,,,,,,,,,5,8,58,8,,,,,,,,,,,,,,,AMSA11.jpg,AMNE15.jpg,AMNE18.jpg,AMSA10.jpg,AMNE18.jpg,MN,1,num_2,32,num_8,1.16672787449,,,2017_Aug_30_1717,60.0092579761,MAFE4ImagesEEG,001,201255,
AFNE01.JPG,AFNE01.JPG,AFNE01.JPG,AFNE01.JPG,AFNE01.JPG,AFNE01.JPG,,,,,,,,,5,9,59,2,,,,,,,,,,,,,,,AMSA16.jpg,AMNE12.jpg,AMNE14.jpg,AMSA15.jpg,AMSA16.jpg,MS,2,num_8,32,num_6,0.733474287739,,,2017_Aug_30_1717,60.0092579761,MAFE4ImagesEEG,001,201255,
,,,,,,,,,,,,,,,,,,,,,,,,,,,,,,,,,,,,,,,,,,,space,98.7924618472,2017_Aug_30_1717,60.0092579761,MAFE4ImagesEEG,001,201255,
AFNE01.JPG,AFNE01.JPG,AFNE01.JPG,AFNE01.JPG,AFNE01.JPG,AFNE01.JPG,,,,,,,,,,,,,0,0,0,9,,,,,,,,,,,AFNE17.jpg,AFSA04.jpg,AFNE10.jpg,AFSA06.jpg,AFSA06.jpg,FS,4,num_4,32,num_2,1.46671411476,,,2017_Aug_30_1717,60.0092579761,MAFE4ImagesEEG,001,201255,
AFNE01.JPG,AFNE01.JPG,AFNE01.JPG,AFNE01.JPG,AFNE01.JPG,AFNE01.JPG,,,,,,,,,,,,,0,1,1,5,,,,,,,,,,,AFSA13.jpg,AFNE11.jpg,AFNE09.jpg,AFSA10.jpg,AFSA13.jpg,FS,4,num_8,32,num_4,0.700132433423,,,2017_Aug_30_1717,60.0092579761,MAFE4ImagesEEG,001,201255,
AFNE01.JPG,AFNE01.JPG,AFNE01.JPG,AFNE01.JPG,AFNE01.JPG,AFNE01.JPG,,,,,,,,,,,,,0,2,2,2,,,,,,,,,,,AFSA18.jpg,AFNE01.jpg,AFSA16.jpg,AFNE20.jpg,AFNE20.jpg,FN,3,num_4,32,num_8,0.933430795438,,,2017_Aug_30_1717,60.0092579761,MAFE4ImagesEEG,001,201255,
AFNE01.JPG,AFNE01.JPG,AFNE01.JPG,AFNE01.JPG,AFNE01.JPG,AFNE01.JPG,,,,,,,,,,,,,0,3,3,0,,,,,,,,,,,AFNE05.jpg,AFSA08.jpg,AFNE04.jpg,AFSA04.jpg,AFSA08.jpg,FS,4,num_6,32,num_4,0.80010411211,,,2017_Aug_30_1717,60.0092579761,MAFE4ImagesEEG,001,201255,
AFNE01.JPG,AFNE01.JPG,AFNE01.JPG,AFNE01.JPG,AFNE01.JPG,AFNE01.JPG,,,,,,,,,,,,,0,4,4,8,,,,,,,,,,,AFSA10.jpg,AFSA11.jpg,AFNE11.jpg,AFNE14.jpg,AFSA10.jpg,FS,4,num_8,32,num_2,0.733465307028,,,2017_Aug_30_1717,60.0092579761,MAFE4ImagesEEG,001,201255,
AFNE01.JPG,AFNE01.JPG,AFNE01.JPG,AFNE01.JPG,AFNE01.JPG,AFNE01.JPG,,,,,,,,,,,,,0,5,5,3,,,,,,,,,,,AFSA14.jpg,AFSA06.jpg,AFNE11.jpg,AFNE10.jpg,AFNE10.jpg,FN,3,num_4,16,num_4,0.883429720958,,,2017_Aug_30_1717,60.0092579761,MAFE4ImagesEEG,001,201255,
AFNE01.JPG,AFNE01.JPG,AFNE01.JPG,AFNE01.JPG,AFNE01.JPG,AFNE01.JPG,,,,,,,,,,,,,0,6,6,1,,,,,,,,,,,AFNE11.jpg,AFSA14.jpg,AFNE01.jpg,AFSA10.jpg,AFSA14.jpg,FS,4,num_6,32,num_8,1.06673181959,,,2017_Aug_30_1717,60.0092579761,MAFE4ImagesEEG,001,201255,
AFNE01.JPG,AFNE01.JPG,AFNE01.JPG,AFNE01.JPG,AFNE01.JPG,AFNE01.JPG,,,,,,,,,,,,,0,7,7,7,,,,,,,,,,,AFNE19.jpg,AFSA19.jpg,AFNE10.jpg,AFSA13.jpg,AFSA19.jpg,FS,4,num_6,32,num_2,0.783426289046,,,2017_Aug_30_1717,60.0092579761,MAFE4ImagesEEG,001,201255,
AFNE01.JPG,AFNE01.JPG,AFNE01.JPG,AFNE01.JPG,AFNE01.JPG,AFNE01.JPG,,,,,,,,,,,,,0,8,8,4,,,,,,,,,,,AFNE17.jpg,AFSA03.jpg,AFNE20.jpg,AFSA09.jpg,AFNE17.jpg,FN,3,num_8,16,num_8,0.65003898591,,,2017_Aug_30_1717,60.0092579761,MAFE4ImagesEEG,001,201255,
AFNE01.JPG,AFNE01.JPG,AFNE01.JPG,AFNE01.JPG,AFNE01.JPG,AFNE01.JPG,,,,,,,,,,,,,0,9,9,6,,,,,,,,,,,AFNE01.jpg,AFSA09.jpg,AFSA14.jpg,AFNE20.jpg,AFSA09.jpg,FS,4,num_6,32,num_8,0.916765481223,,,2017_Aug_30_1717,60.0092579761,MAFE4ImagesEEG,001,201255,
AFNE01.JPG,AFNE01.JPG,AFNE01.JPG,AFNE01.JPG,AFNE01.JPG,AFNE01.JPG,,,,,,,,,,,,,1,0,10,8,,,,,,,,,,,AFSA05.jpg,AFSA17.jpg,AFNE13.jpg,AFNE14.jpg,AFNE13.jpg,FN,3,num_2,32,num_8,2.51663660801,,,2017_Aug_30_1717,60.0092579761,MAFE4ImagesEEG,001,201255,
AFNE01.JPG,AFNE01.JPG,AFNE01.JPG,AFNE01.JPG,AFNE01.JPG,AFNE01.JPG,,,,,,,,,,,,,1,1,11,7,,,,,,,,,,,AFNE05.jpg,AFNE15.jpg,AFSA14.jpg,AFSA12.jpg,AFNE05.jpg,FN,3,num_8,32,num_6,1.55000861186,,,2017_Aug_30_1717,60.0092579761,MAFE4ImagesEEG,001,201255,
AFNE01.JPG,AFNE01.JPG,AFNE01.JPG,AFNE01.JPG,AFNE01.JPG,AFNE01.JPG,,,,,,,,,,,,,1,2,12,1,,,,,,,,,,,AFNE19.jpg,AFNE06.jpg,AFSA14.jpg,AFSA13.jpg,AFSA13.jpg,FS,4,num_4,16,num_4,0.90014378761,,,2017_Aug_30_1717,60.0092579761,MAFE4ImagesEEG,001,201255,
AFNE01.JPG,AFNE01.JPG,AFNE01.JPG,AFNE01.JPG,AFNE01.JPG,AFNE01.JPG,,,,,,,,,,,,,1,3,13,4,,,,,,,,,,,AFSA04.jpg,AFNE05.jpg,AFNE11.jpg,AFSA02.jpg,AFSA02.jpg,FS,4,num_4,32,num_6,1.73345151522,,,2017_Aug_30_1717,60.0092579761,MAFE4ImagesEEG,001,201255,
AFNE01.JPG,AFNE01.JPG,AFNE01.JPG,AFNE01.JPG,AFNE01.JPG,AFNE01.JPG,,,,,,,,,,,,,1,4,14,0,,,,,,,,,,,AFSA08.jpg,AFSA16.jpg,AFNE02.jpg,AFNE03.jpg,AFSA08.jpg,FS,4,num_8,16,num_8,1.24996335549,,,2017_Aug_30_1717,60.0092579761,MAFE4ImagesEEG,001,201255,
AFNE01.JPG,AFNE01.JPG,AFNE01.JPG,AFNE01.JPG,AFNE01.JPG,AFNE01.JPG,,,,,,,,,,,,,1,5,15,3,,,,,,,,,,,AFSA09.jpg,AFNE02.jpg,AFNE10.jpg,AFSA15.jpg,AFNE02.jpg,FN,3,num_6,32,num_4,0.783436552716,,,2017_Aug_30_1717,60.0092579761,MAFE4ImagesEEG,001,201255,
AFNE01.JPG,AFNE01.JPG,AFNE01.JPG,AFNE01.JPG,AFNE01.JPG,AFNE01.JPG,,,,,,,,,,,,,1,6,16,5,,,,,,,,,,,AFNE10.jpg,AFSA10.jpg,AFSA19.jpg,AFNE17.jpg,AFSA19.jpg,FS,4,num_2,32,num_4,0.700122490493,,,2017_Aug_30_1717,60.0092579761,MAFE4ImagesEEG,001,201255,
AFNE01.JPG,AFNE01.JPG,AFNE01.JPG,AFNE01.JPG,AFNE01.JPG,AFNE01.JPG,,,,,,,,,,,,,1,7,17,9,,,,,,,,,,,AFSA14.jpg,AFNE06.jpg,AFSA05.jpg,AFNE20.jpg,AFNE06.jpg,FN,3,num_6,32,num_8,0.816834215744,,,2017_Aug_30_1717,60.0092579761,MAFE4ImagesEEG,001,201255,
AFNE01.JPG,AFNE01.JPG,AFNE01.JPG,AFNE01.JPG,AFNE01.JPG,AFNE01.JPG,,,,,,,,,,,,,1,8,18,6,,,,,,,,,,,AFNE07.jpg,AFNE11.jpg,AFSA19.jpg,AFSA17.jpg,AFSA19.jpg,FS,4,num_2,16,num_2,1.03343294439,,,2017_Aug_30_1717,60.0092579761,MAFE4ImagesEEG,001,201255,
AFNE01.JPG,AFNE01.JPG,AFNE01.JPG,AFNE01.JPG,AFNE01.JPG,AFNE01.JPG,,,,,,,,,,,,,1,9,19,2,,,,,,,,,,,AFSA11.jpg,AFNE06.jpg,AFNE08.jpg,AFSA17.jpg,AFNE06.jpg,FN,3,num_6,16,num_6,0.850070225959,,,2017_Aug_30_1717,60.0092579761,MAFE4ImagesEEG,001,201255,
AFNE01.JPG,AFNE01.JPG,AFNE01.JPG,AFNE01.JPG,AFNE01.JPG,AFNE01.JPG,,,,,,,,,,,,,2,0,20,3,,,,,,,,,,,AFNE13.jpg,AFSA19.jpg,AFNE15.jpg,AFSA05.jpg,AFNE13.jpg,FN,3,num_8,16,num_8,0.566786505711,,,2017_Aug_30_1717,60.0092579761,MAFE4ImagesEEG,001,201255,
AFNE01.JPG,AFNE01.JPG,AFNE01.JPG,AFNE01.JPG,AFNE01.JPG,AFNE01.JPG,,,,,,,,,,,,,2,1,21,9,,,,,,,,,,,AFSA01.jpg,AFSA03.jpg,AFNE09.jpg,AFNE19.jpg,AFSA01.jpg,FS,4,num_8,32,num_6,0.750098226534,,,2017_Aug_30_1717,60.0092579761,MAFE4ImagesEEG,001,201255,
AFNE01.JPG,AFNE01.JPG,AFNE01.JPG,AFNE01.JPG,AFNE01.JPG,AFNE01.JPG,,,,,,,,,,,,,2,2,22,2,,,,,,,,,,,AFNE11.jpg,AFNE04.jpg,AFSA06.jpg,AFSA18.jpg,AFSA06.jpg,FS,4,num_2,32,num_4,0.650109869384,,,2017_Aug_30_1717,60.0092579761,MAFE4ImagesEEG,001,201255,
AFNE01.JPG,AFNE01.JPG,AFNE01.JPG,AFNE01.JPG,AFNE01.JPG,AFNE01.JPG,,,,,,,,,,,,,2,3,23,0,,,,,,,,,,,AFNE12.jpg,AFNE18.jpg,AFSA04.jpg,AFSA08.jpg,AFSA04.jpg,FS,4,num_2,16,num_2,0.983423851423,,,2017_Aug_30_1717,60.0092579761,MAFE4ImagesEEG,001,201255,
AFNE01.JPG,AFNE01.JPG,AFNE01.JPG,AFNE01.JPG,AFNE01.JPG,AFNE01.JPG,,,,,,,,,,,,,2,4,24,7,,,,,,,,,,,AFNE01.jpg,AFSA07.jpg,AFNE04.jpg,AFSA18.jpg,AFNE04.jpg,FN,3,num_2,16,num_2,0.833468418208,,,2017_Aug_30_1717,60.0092579761,MAFE4ImagesEEG,001,201255,
AFNE01.JPG,AFNE01.JPG,AFNE01.JPG,AFNE01.JPG,AFNE01.JPG,AFNE01.JPG,,,,,,,,,,,,,2,5,25,1,,,,,,,,,,,AFNE03.jpg,AFSA13.jpg,AFNE17.jpg,AFSA17.jpg,AFSA13.jpg,FS,4,num_6,16,num_6,1.11675598733,,,2017_Aug_30_1717,60.0092579761,MAFE4ImagesEEG,001,201255,
AFNE01.JPG,AFNE01.JPG,AFNE01.JPG,AFNE01.JPG,AFNE01.JPG,AFNE01.JPG,,,,,,,,,,,,,2,6,26,4,,,,,,,,,,,AFSA02.jpg,AFNE15.jpg,AFNE08.jpg,AFSA01.jpg,AFNE15.jpg,FN,3,num_6,16,num_6,2.78333006714,,,2017_Aug_30_1717,60.0092579761,MAFE4ImagesEEG,001,201255,
AFNE01.JPG,AFNE01.JPG,AFNE01.JPG,AFNE01.JPG,AFNE01.JPG,AFNE01.JPG,,,,,,,,,,,,,2,7,27,5,,,,,,,,,,,AFSA07.jpg,AFSA17.jpg,AFNE10.jpg,AFNE13.jpg,AFNE10.jpg,FN,3,num_2,16,num_2,0.700221599061,,,2017_Aug_30_1717,60.0092579761,MAFE4ImagesEEG,001,201255,
AFNE01.JPG,AFNE01.JPG,AFNE01.JPG,AFNE01.JPG,AFNE01.JPG,AFNE01.JPG,,,,,,,,,,,,,2,8,28,8,,,,,,,,,,,AFSA09.jpg,AFNE01.jpg,AFSA03.jpg,AFNE14.jpg,AFSA09.jpg,FS,4,num_8,16,num_8,0.583486780553,,,2017_Aug_30_1717,60.0092579761,MAFE4ImagesEEG,001,201255,
AFNE01.JPG,AFNE01.JPG,AFNE01.JPG,AFNE01.JPG,AFNE01.JPG,AFNE01.JPG,,,,,,,,,,,,,2,9,29,6,,,,,,,,,,,AFSA06.jpg,AFNE19.jpg,AFNE10.jpg,AFSA16.jpg,AFNE19.jpg,FN,3,num_6,16,num_6,1.30005038821,,,2017_Aug_30_1717,60.0092579761,MAFE4ImagesEEG,001,201255,
AFNE01.JPG,AFNE01.JPG,AFNE01.JPG,AFNE01.JPG,AFNE01.JPG,AFNE01.JPG,,,,,,,,,,,,,3,0,30,4,,,,,,,,,,,AFSA14.jpg,AFSA08.jpg,AFNE08.jpg,AFNE17.jpg,AFSA08.jpg,FS,4,num_6,16,num_6,0.866756067513,,,2017_Aug_30_1717,60.0092579761,MAFE4ImagesEEG,001,201255,
AFNE01.JPG,AFNE01.JPG,AFNE01.JPG,AFNE01.JPG,AFNE01.JPG,AFNE01.JPG,,,,,,,,,,,,,3,1,31,7,,,,,,,,,,,AFNE12.jpg,AFSA18.jpg,AFNE01.jpg,AFSA06.jpg,AFSA18.jpg,FS,4,num_6,16,num_6,1.7666823936,,,2017_Aug_30_1717,60.0092579761,MAFE4ImagesEEG,001,201255,
AFNE01.JPG,AFNE01.JPG,AFNE01.JPG,AFNE01.JPG,AFNE01.JPG,AFNE01.JPG,,,,,,,,,,,,,3,2,32,1,,,,,,,,,,,AFSA11.jpg,AFNE18.jpg,AFNE15.jpg,AFSA06.jpg,AFSA11.jpg,FS,4,num_8,16,num_8,0.966701445541,,,2017_Aug_30_1717,60.0092579761,MAFE4ImagesEEG,001,201255,
AFNE01.JPG,AFNE01.JPG,AFNE01.JPG,AFNE01.JPG,AFNE01.JPG,AFNE01.JPG,,,,,,,,,,,,,3,3,33,6,,,,,,,,,,,AFNE12.jpg,AFSA07.jpg,AFNE11.jpg,AFSA15.jpg,AFSA07.jpg,FS,4,num_6,16,num_6,0.716771767722,,,2017_Aug_30_1717,60.0092579761,MAFE4ImagesEEG,001,201255,
AFNE01.JPG,AFNE01.JPG,AFNE01.JPG,AFNE01.JPG,AFNE01.JPG,AFNE01.JPG,,,,,,,,,,,,,3,4,34,9,,,,,,,,,,,AFNE16.jpg,AFSA12.jpg,AFSA10.jpg,AFNE03.jpg,AFSA10.jpg,FS,4,num_2,32,num_6,1.18341628197,,,2017_Aug_30_1717,60.0092579761,MAFE4ImagesEEG,001,201255,
AFNE01.JPG,AFNE01.JPG,AFNE01.JPG,AFNE01.JPG,AFNE01.JPG,AFNE01.JPG,,,,,,,,,,,,,3,5,35,0,,,,,,,,,,,AFSA01.jpg,AFSA08.jpg,AFNE03.jpg,AFNE02.jpg,AFNE03.jpg,FN,3,num_2,32,num_6,0.716750598902,,,2017_Aug_30_1717,60.0092579761,MAFE4ImagesEEG,001,201255,
AFNE01.JPG,AFNE01.JPG,AFNE01.JPG,AFNE01.JPG,AFNE01.JPG,AFNE01.JPG,,,,,,,,,,,,,3,6,36,8,,,,,,,,,,,AFNE01.jpg,AFSA06.jpg,AFNE11.jpg,AFSA02.jpg,AFNE01.jpg,FN,3,num_8,16,num_8,0.950236593642,,,2017_Aug_30_1717,60.0092579761,MAFE4ImagesEEG,001,201255,
AFNE01.JPG,AFNE01.JPG,AFNE01.JPG,AFNE01.JPG,AFNE01.JPG,AFNE01.JPG,,,,,,,,,,,,,3,7,37,2,,,,,,,,,,,AFNE18.jpg,AFSA09.jpg,AFNE01.jpg,AFSA06.jpg,AFSA06.jpg,FS,4,num_4,16,num_4,1.10010478566,,,2017_Aug_30_1717,60.0092579761,MAFE4ImagesEEG,001,201255,
AFNE01.JPG,AFNE01.JPG,AFNE01.JPG,AFNE01.JPG,AFNE01.JPG,AFNE01.JPG,,,,,,,,,,,,,3,8,38,5,,,,,,,,,,,AFSA19.jpg,AFNE12.jpg,AFSA20.jpg,AFNE04.jpg,AFNE12.jpg,FN,3,num_6,16,num_6,1.03341081335,,,2017_Aug_30_1717,60.0092579761,MAFE4ImagesEEG,001,201255,
AFNE01.JPG,AFNE01.JPG,AFNE01.JPG,AFNE01.JPG,AFNE01.JPG,AFNE01.JPG,,,,,,,,,,,,,3,9,39,3,,,,,,,,,,,AFSA14.jpg,AFNE19.jpg,AFSA15.jpg,AFNE17.jpg,AFSA15.jpg,FS,4,num_2,32,num_8,0.816777124077,,,2017_Aug_30_1717,60.0092579761,MAFE4ImagesEEG,001,201255,
AFNE01.JPG,AFNE01.JPG,AFNE01.JPG,AFNE01.JPG,AFNE01.JPG,AFNE01.JPG,,,,,,,,,,,,,4,0,40,1,,,,,,,,,,,AFSA10.jpg,AFNE03.jpg,AFNE01.jpg,AFSA11.jpg,AFNE01.jpg,FN,3,num_2,32,num_6,1.0668732658,,,2017_Aug_30_1717,60.0092579761,MAFE4ImagesEEG,001,201255,
AFNE01.JPG,AFNE01.JPG,AFNE01.JPG,AFNE01.JPG,AFNE01.JPG,AFNE01.JPG,,,,,,,,,,,,,4,1,41,5,,,,,,,,,,,AFSA18.jpg,AFNE01.jpg,AFSA12.jpg,AFNE14.jpg,AFNE01.jpg,FN,3,num_6,32,num_2,1.26683105645,,,2017_Aug_30_1717,60.0092579761,MAFE4ImagesEEG,001,201255,
AFNE01.JPG,AFNE01.JPG,AFNE01.JPG,AFNE01.JPG,AFNE01.JPG,AFNE01.JPG,,,,,,,,,,,,,4,2,42,4,,,,,,,,,,,AFNE07.jpg,AFNE20.jpg,AFSA05.jpg,AFSA16.jpg,AFNE20.jpg,FN,3,num_6,32,num_4,1.20012842418,,,2017_Aug_30_1717,60.0092579761,MAFE4ImagesEEG,001,201255,
AFNE01.JPG,AFNE01.JPG,AFNE01.JPG,AFNE01.JPG,AFNE01.JPG,AFNE01.JPG,,,,,,,,,,,,,4,3,43,7,,,,,,,,,,,AFSA13.jpg,AFNE12.jpg,AFNE16.jpg,AFSA06.jpg,AFSA13.jpg,FS,4,num_8,16,num_8,1.08345582917,,,2017_Aug_30_1717,60.0092579761,MAFE4ImagesEEG,001,201255,
AFNE01.JPG,AFNE01.JPG,AFNE01.JPG,AFNE01.JPG,AFNE01.JPG,AFNE01.JPG,,,,,,,,,,,,,4,4,44,2,,,,,,,,,,,AFNE20.jpg,AFNE15.jpg,AFSA07.jpg,AFSA04.jpg,AFSA07.jpg,FS,4,num_2,32,num_8,1.38344559758,,,2017_Aug_30_1717,60.0092579761,MAFE4ImagesEEG,001,201255,
AFNE01.JPG,AFNE01.JPG,AFNE01.JPG,AFNE01.JPG,AFNE01.JPG,AFNE01.JPG,,,,,,,,,,,,,4,5,45,6,,,,,,,,,,,AFSA04.jpg,AFNE04.jpg,AFNE16.jpg,AFSA18.jpg,AFSA18.jpg,FS,4,num_4,32,num_8,1.39978151211,,,2017_Aug_30_1717,60.0092579761,MAFE4ImagesEEG,001,201255,
AFNE01.JPG,AFNE01.JPG,AFNE01.JPG,AFNE01.JPG,AFNE01.JPG,AFNE01.JPG,,,,,,,,,,,,,4,6,46,8,,,,,,,,,,,AFSA18.jpg,AFSA12.jpg,AFNE05.jpg,AFNE06.jpg,AFNE06.jpg,FN,3,num_4,32,num_6,0.966772329015,,,2017_Aug_30_1717,60.0092579761,MAFE4ImagesEEG,001,201255,
AFNE01.JPG,AFNE01.JPG,AFNE01.JPG,AFNE01.JPG,AFNE01.JPG,AFNE01.JPG,,,,,,,,,,,,,4,7,47,3,,,,,,,,,,,AFSA14.jpg,AFSA12.jpg,AFNE06.jpg,AFNE11.jpg,AFSA14.jpg,FS,4,num_8,32,num_2,1.95003420689,,,2017_Aug_30_1717,60.0092579761,MAFE4ImagesEEG,001,201255,
AFNE01.JPG,AFNE01.JPG,AFNE01.JPG,AFNE01.JPG,AFNE01.JPG,AFNE01.JPG,,,,,,,,,,,,,4,8,48,0,,,,,,,,,,,AFNE09.jpg,AFSA02.jpg,AFSA07.jpg,AFNE19.jpg,AFNE09.jpg,FN,3,num_8,32,num_2,0.833696143392,,,2017_Aug_30_1717,60.0092579761,MAFE4ImagesEEG,001,201255,
AFNE01.JPG,AFNE01.JPG,AFNE01.JPG,AFNE01.JPG,AFNE01.JPG,AFNE01.JPG,,,,,,,,,,,,,4,9,49,9,,,,,,,,,,,AFNE01.jpg,AFNE04.jpg,AFSA05.jpg,AFSA06.jpg,AFNE01.jpg,FN,3,num_8,16,num_8,0.683556284846,,,2017_Aug_30_1717,60.0092579761,MAFE4ImagesEEG,001,201255,
AFNE01.JPG,AFNE01.JPG,AFNE01.JPG,AFNE01.JPG,AFNE01.JPG,AFNE01.JPG,,,,,,,,,,,,,5,0,50,9,,,,,,,,,,,AFSA14.jpg,AFNE11.jpg,AFNE09.jpg,AFSA09.jpg,AFSA14.jpg,FS,4,num_8,16,num_8,1.050101466,,,2017_Aug_30_1717,60.0092579761,MAFE4ImagesEEG,001,201255,
AFNE01.JPG,AFNE01.JPG,AFNE01.JPG,AFNE01.JPG,AFNE01.JPG,AFNE01.JPG,,,,,,,,,,,,,5,1,51,4,,,,,,,,,,,AFSA12.jpg,AFNE01.jpg,AFNE20.jpg,AFSA07.jpg,AFNE01.jpg,FN,3,num_6,32,num_8,0.633505495713,,,2017_Aug_30_1717,60.0092579761,MAFE4ImagesEEG,001,201255,
AFNE01.JPG,AFNE01.JPG,AFNE01.JPG,AFNE01.JPG,AFNE01.JPG,AFNE01.JPG,,,,,,,,,,,,,5,2,52,3,,,,,,,,,,,AFSA19.jpg,AFSA02.jpg,AFNE10.jpg,AFNE17.jpg,AFNE17.jpg,FN,3,num_4,16,num_4,0.600178395423,,,2017_Aug_30_1717,60.0092579761,MAFE4ImagesEEG,001,201255,
AFNE01.JPG,AFNE01.JPG,AFNE01.JPG,AFNE01.JPG,AFNE01.JPG,AFNE01.JPG,,,,,,,,,,,,,5,3,53,6,,,,,,,,,,,AFSA03.jpg,AFSA10.jpg,AFNE16.jpg,AFNE17.jpg,AFNE17.jpg,FN,3,num_4,32,num_8,0.650111152343,,,2017_Aug_30_1717,60.0092579761,MAFE4ImagesEEG,001,201255,
AFNE01.JPG,AFNE01.JPG,AFNE01.JPG,AFNE01.JPG,AFNE01.JPG,AFNE01.JPG,,,,,,,,,,,,,5,4,54,5,,,,,,,,,,,AFNE20.jpg,AFSA13.jpg,AFNE08.jpg,AFSA07.jpg,AFSA13.jpg,FS,4,num_6,16,num_6,0.700137244519,,,2017_Aug_30_1717,60.0092579761,MAFE4ImagesEEG,001,201255,
AFNE01.JPG,AFNE01.JPG,AFNE01.JPG,AFNE01.JPG,AFNE01.JPG,AFNE01.JPG,,,,,,,,,,,,,5,5,55,8,,,,,,,,,,,AFSA12.jpg,AFSA14.jpg,AFNE15.jpg,AFNE19.jpg,AFSA12.jpg,FS,4,num_8,16,num_8,0.700144621533,,,2017_Aug_30_1717,60.0092579761,MAFE4ImagesEEG,001,201255,
AFNE01.JPG,AFNE01.JPG,AFNE01.JPG,AFNE01.JPG,AFNE01.JPG,AFNE01.JPG,,,,,,,,,,,,,5,6,56,7,,,,,,,,,,,AFSA15.jpg,AFSA17.jpg,AFNE04.jpg,AFNE03.jpg,AFSA15.jpg,FS,4,num_8,32,num_2,1.4333783545,,,2017_Aug_30_1717,60.0092579761,MAFE4ImagesEEG,001,201255,
AFNE01.JPG,AFNE01.JPG,AFNE01.JPG,AFNE01.JPG,AFNE01.JPG,AFNE01.JPG,,,,,,,,,,,,,5,7,57,0,,,,,,,,,,,AFNE03.jpg,AFSA10.jpg,AFNE14.jpg,AFSA02.jpg,AFSA10.jpg,FS,4,num_6,16,num_6,0.550089759006,,,2017_Aug_30_1717,60.0092579761,MAFE4ImagesEEG,001,201255,
AFNE01.JPG,AFNE01.JPG,AFNE01.JPG,AFNE01.JPG,AFNE01.JPG,AFNE01.JPG,,,,,,,,,,,,,5,8,58,2,,,,,,,,,,,AFSA02.jpg,AFSA08.jpg,AFNE12.jpg,AFNE01.jpg,AFSA02.jpg,FS,4,num_8,32,num_6,0.916861382397,,,2017_Aug_30_1717,60.0092579761,MAFE4ImagesEEG,001,201255,
AFNE01.JPG,AFNE01.JPG,AFNE01.JPG,AFNE01.JPG,AFNE01.JPG,AFNE01.JPG,,,,,,,,,,,,,5,9,59,1,,,,,,,,,,,AFNE10.jpg,AFNE07.jpg,AFSA11.jpg,AFSA18.jpg,AFSA11.jpg,FS,4,num_2,32,num_4,0.683778236722,,,2017_Aug_30_1717,60.0092579761,MAFE4ImagesEEG,001,201255,
,,,,,,,,,,,,,,,,,,,,,,,,,,,,,,,,,,,,,,,,,,,space,95.9924363163,2017_Aug_30_1717,60.0092579761,MAFE4ImagesEEG,001,201255,
AFNE01.JPG,AFNE01.JPG,AFNE01.JPG,AFNE01.JPG,AFNE01.JPG,AFNE01.JPG,,,,,,,,,,,,,,,,,0,0,0,8,,,,,,,AMSA18.jpg,AMNE08.jpg,AMNE16.jpg,AMSA02.jpg,AMNE08.jpg,MN,1,num_6,32,num_2,0.883477511175,,,2017_Aug_30_1717,60.0092579761,MAFE4ImagesEEG,001,201255,
AFNE01.JPG,AFNE01.JPG,AFNE01.JPG,AFNE01.JPG,AFNE01.JPG,AFNE01.JPG,,,,,,,,,,,,,,,,,0,1,1,7,,,,,,,AMSA08.jpg,AMSA20.jpg,AMNE15.jpg,AMNE19.jpg,AMNE15.jpg,MN,1,num_2,16,num_2,0.683397197954,,,2017_Aug_30_1717,60.0092579761,MAFE4ImagesEEG,001,201255,
AFNE01.JPG,AFNE01.JPG,AFNE01.JPG,AFNE01.JPG,AFNE01.JPG,AFNE01.JPG,,,,,,,,,,,,,,,,,0,2,2,0,,,,,,,AMNE02.jpg,AMNE09.jpg,AMSA05.jpg,AMSA08.jpg,AMSA08.jpg,MS,2,num_4,16,num_4,0.683461345892,,,2017_Aug_30_1717,60.0092579761,MAFE4ImagesEEG,001,201255,
AFNE01.JPG,AFNE01.JPG,AFNE01.JPG,AFNE01.JPG,AFNE01.JPG,AFNE01.JPG,,,,,,,,,,,,,,,,,0,3,3,2,,,,,,,AMNE04.jpg,AMSA06.jpg,AMSA20.jpg,AMNE07.jpg,AMSA20.jpg,MS,2,num_2,32,num_4,0.683559492245,,,2017_Aug_30_1717,60.0092579761,MAFE4ImagesEEG,001,201255,
AFNE01.JPG,AFNE01.JPG,AFNE01.JPG,AFNE01.JPG,AFNE01.JPG,AFNE01.JPG,,,,,,,,,,,,,,,,,0,4,4,3,,,,,,,AMNE10.jpg,AMSA13.jpg,AMSA01.jpg,AMNE16.jpg,AMNE10.jpg,MN,1,num_8,16,num_8,0.866764086004,,,2017_Aug_30_1717,60.0092579761,MAFE4ImagesEEG,001,201255,
AFNE01.JPG,AFNE01.JPG,AFNE01.JPG,AFNE01.JPG,AFNE01.JPG,AFNE01.JPG,,,,,,,,,,,,,,,,,0,5,5,1,,,,,,,AMNE19.jpg,AMNE17.jpg,AMSA01.jpg,AMSA13.jpg,AMNE19.jpg,MN,1,num_8,32,num_4,1.00018859495,,,2017_Aug_30_1717,60.0092579761,MAFE4ImagesEEG,001,201255,
AFNE01.JPG,AFNE01.JPG,AFNE01.JPG,AFNE01.JPG,AFNE01.JPG,AFNE01.JPG,,,,,,,,,,,,,,,,,0,6,6,5,,,,,,,AMNE09.jpg,AMSA20.jpg,AMSA13.jpg,AMNE17.jpg,AMSA20.jpg,MS,2,num_6,16,num_6,0.566776242042,,,2017_Aug_30_1717,60.0092579761,MAFE4ImagesEEG,001,201255,
AFNE01.JPG,AFNE01.JPG,AFNE01.JPG,AFNE01.JPG,AFNE01.JPG,AFNE01.JPG,,,,,,,,,,,,,,,,,0,7,7,9,,,,,,,AMSA09.jpg,AMNE14.jpg,AMNE20.jpg,AMSA11.jpg,AMSA09.jpg,MS,2,num_8,32,num_2,1.03341530371,,,2017_Aug_30_1717,60.0092579761,MAFE4ImagesEEG,001,201255,
AFNE01.JPG,AFNE01.JPG,AFNE01.JPG,AFNE01.JPG,AFNE01.JPG,AFNE01.JPG,,,,,,,,,,,,,,,,,0,8,8,6,,,,,,,AMNE02.jpg,AMSA19.jpg,AMNE18.jpg,AMSA03.jpg,AMNE02.jpg,MN,1,num_8,16,num_8,0.750120678313,,,2017_Aug_30_1717,60.0092579761,MAFE4ImagesEEG,001,201255,
AFNE01.JPG,AFNE01.JPG,AFNE01.JPG,AFNE01.JPG,AFNE01.JPG,AFNE01.JPG,,,,,,,,,,,,,,,,,0,9,9,4,,,,,,,AMNE05.jpg,AMNE10.jpg,AMSA15.jpg,AMSA20.jpg,AMSA20.jpg,MS,2,num_4,16,num_4,1.00012989958,,,2017_Aug_30_1717,60.0092579761,MAFE4ImagesEEG,001,201255,
AFNE01.JPG,AFNE01.JPG,AFNE01.JPG,AFNE01.JPG,AFNE01.JPG,AFNE01.JPG,,,,,,,,,,,,,,,,,1,0,10,9,,,,,,,AMNE02.jpg,AMNE13.jpg,AMSA19.jpg,AMSA09.jpg,AMNE13.jpg,MN,1,num_6,16,num_6,3.88329148215,,,2017_Aug_30_1717,60.0092579761,MAFE4ImagesEEG,001,201255,
AFNE01.JPG,AFNE01.JPG,AFNE01.JPG,AFNE01.JPG,AFNE01.JPG,AFNE01.JPG,,,,,,,,,,,,,,,,,1,1,11,4,,,,,,,AMNE02.jpg,AMSA11.jpg,AMSA18.jpg,AMNE14.jpg,AMNE02.jpg,MN,1,num_8,32,num_4,0.699970459875,,,2017_Aug_30_1717,60.0092579761,MAFE4ImagesEEG,001,201255,
AFNE01.JPG,AFNE01.JPG,AFNE01.JPG,AFNE01.JPG,AFNE01.JPG,AFNE01.JPG,,,,,,,,,,,,,,,,,1,2,12,5,,,,,,,AMNE09.jpg,AMSA02.jpg,AMSA10.jpg,AMNE04.jpg,AMNE04.jpg,MN,1,num_4,32,num_6,1.33346408822,,,2017_Aug_30_1717,60.0092579761,MAFE4ImagesEEG,001,201255,
AFNE01.JPG,AFNE01.JPG,AFNE01.JPG,AFNE01.JPG,AFNE01.JPG,AFNE01.JPG,,,,,,,,,,,,,,,,,1,3,13,8,,,,,,,AMSA15.jpg,AMNE14.jpg,AMNE05.jpg,AMSA12.jpg,AMNE05.jpg,MN,1,num_2,32,num_6,0.683477382878,,,2017_Aug_30_1717,60.0092579761,MAFE4ImagesEEG,001,201255,
AFNE01.JPG,AFNE01.JPG,AFNE01.JPG,AFNE01.JPG,AFNE01.JPG,AFNE01.JPG,,,,,,,,,,,,,,,,,1,4,14,0,,,,,,,AMNE02.jpg,AMSA06.jpg,AMSA18.jpg,AMNE14.jpg,AMNE14.jpg,MN,1,num_4,16,num_4,0.733455043359,,,2017_Aug_30_1717,60.0092579761,MAFE4ImagesEEG,001,201255,
AFNE01.JPG,AFNE01.JPG,AFNE01.JPG,AFNE01.JPG,AFNE01.JPG,AFNE01.JPG,,,,,,,,,,,,,,,,,1,5,15,3,,,,,,,AMSA07.jpg,AMNE09.jpg,AMSA03.jpg,AMNE03.jpg,AMNE03.jpg,MN,1,num_4,16,num_4,1.0334637354,,,2017_Aug_30_1717,60.0092579761,MAFE4ImagesEEG,001,201255,
AFNE01.JPG,AFNE01.JPG,AFNE01.JPG,AFNE01.JPG,AFNE01.JPG,AFNE01.JPG,,,,,,,,,,,,,,,,,1,6,16,2,,,,,,,AMSA16.jpg,AMNE11.jpg,AMSA05.jpg,AMNE01.jpg,AMNE01.jpg,MN,1,num_4,16,num_4,0.716746750026,,,2017_Aug_30_1717,60.0092579761,MAFE4ImagesEEG,001,201255,
AFNE01.JPG,AFNE01.JPG,AFNE01.JPG,AFNE01.JPG,AFNE01.JPG,AFNE01.JPG,,,,,,,,,,,,,,,,,1,7,17,7,,,,,,,AMNE20.jpg,AMSA08.jpg,AMNE03.jpg,AMSA15.jpg,AMNE20.jpg,MN,1,num_8,32,num_2,1.23343050677,,,2017_Aug_30_1717,60.0092579761,MAFE4ImagesEEG,001,201255,
AFNE01.JPG,AFNE01.JPG,AFNE01.JPG,AFNE01.JPG,AFNE01.JPG,AFNE01.JPG,,,,,,,,,,,,,,,,,1,8,18,1,,,,,,,AMNE01.jpg,AMNE10.jpg,AMSA03.jpg,AMSA16.jpg,AMSA03.jpg,MS,2,num_2,32,num_8,1.01674421618,,,2017_Aug_30_1717,60.0092579761,MAFE4ImagesEEG,001,201255,
AFNE01.JPG,AFNE01.JPG,AFNE01.JPG,AFNE01.JPG,AFNE01.JPG,AFNE01.JPG,,,,,,,,,,,,,,,,,1,9,19,6,,,,,,,AMNE04.jpg,AMNE03.jpg,AMSA16.jpg,AMSA06.jpg,AMSA16.jpg,MS,2,num_2,16,num_2,1.03328925301,,,2017_Aug_30_1717,60.0092579761,MAFE4ImagesEEG,001,201255,
AFNE01.JPG,AFNE01.JPG,AFNE01.JPG,AFNE01.JPG,AFNE01.JPG,AFNE01.JPG,,,,,,,,,,,,,,,,,2,0,20,3,,,,,,,AMNE19.jpg,AMNE05.jpg,AMSA04.jpg,AMSA10.jpg,AMNE19.jpg,MN,1,num_8,32,num_2,0.966759820167,,,2017_Aug_30_1717,60.0092579761,MAFE4ImagesEEG,001,201255,
AFNE01.JPG,AFNE01.JPG,AFNE01.JPG,AFNE01.JPG,AFNE01.JPG,AFNE01.JPG,,,,,,,,,,,,,,,,,2,1,21,6,,,,,,,AMNE13.jpg,AMNE18.jpg,AMSA05.jpg,AMSA07.jpg,AMSA05.jpg,MS,2,num_2,32,num_8,0.783520907258,,,2017_Aug_30_1717,60.0092579761,MAFE4ImagesEEG,001,201255,
AFNE01.JPG,AFNE01.JPG,AFNE01.JPG,AFNE01.JPG,AFNE01.JPG,AFNE01.JPG,,,,,,,,,,,,,,,,,2,2,22,4,,,,,,,AMSA10.jpg,AMSA12.jpg,AMNE09.jpg,AMNE04.jpg,AMNE04.jpg,MN,1,num_4,32,num_2,0.683341389245,,,2017_Aug_30_1717,60.0092579761,MAFE4ImagesEEG,001,201255,
AFNE01.JPG,AFNE01.JPG,AFNE01.JPG,AFNE01.JPG,AFNE01.JPG,AFNE01.JPG,,,,,,,,,,,,,,,,,2,3,23,8,,,,,,,AMSA09.jpg,AMNE04.jpg,AMNE07.jpg,AMSA06.jpg,AMNE04.jpg,MN,1,num_6,32,num_4,0.566817617462,,,2017_Aug_30_1717,60.0092579761,MAFE4ImagesEEG,001,201255,
AFNE01.JPG,AFNE01.JPG,AFNE01.JPG,AFNE01.JPG,AFNE01.JPG,AFNE01.JPG,,,,,,,,,,,,,,,,,2,4,24,1,,,,,,,AMSA16.jpg,AMNE05.jpg,AMSA18.jpg,AMNE10.jpg,AMSA18.jpg,MS,2,num_2,16,num_2,1.38330383063,,,2017_Aug_30_1717,60.0092579761,MAFE4ImagesEEG,001,201255,
AFNE01.JPG,AFNE01.JPG,AFNE01.JPG,AFNE01.JPG,AFNE01.JPG,AFNE01.JPG,,,,,,,,,,,,,,,,,2,5,25,2,,,,,,,AMNE17.jpg,AMSA06.jpg,AMNE16.jpg,AMSA10.jpg,AMSA06.jpg,MS,2,num_6,16,num_6,0.616774750601,,,2017_Aug_30_1717,60.0092579761,MAFE4ImagesEEG,001,201255,
AFNE01.JPG,AFNE01.JPG,AFNE01.JPG,AFNE01.JPG,AFNE01.JPG,AFNE01.JPG,,,,,,,,,,,,,,,,,2,6,26,7,,,,,,,AMSA03.jpg,AMNE14.jpg,AMNE10.jpg,AMSA14.jpg,AMNE10.jpg,MN,1,num_2,32,num_8,0.73348326845,,,2017_Aug_30_1717,60.0092579761,MAFE4ImagesEEG,001,201255,
AFNE01.JPG,AFNE01.JPG,AFNE01.JPG,AFNE01.JPG,AFNE01.JPG,AFNE01.JPG,,,,,,,,,,,,,,,,,2,7,27,5,,,,,,,AMNE07.jpg,AMNE19.jpg,AMSA14.jpg,AMSA20.jpg,AMSA14.jpg,MS,2,num_2,16,num_2,0.883597467826,,,2017_Aug_30_1717,60.0092579761,MAFE4ImagesEEG,001,201255,
AFNE01.JPG,AFNE01.JPG,AFNE01.JPG,AFNE01.JPG,AFNE01.JPG,AFNE01.JPG,,,,,,,,,,,,,,,,,2,8,28,9,,,,,,,AMNE15.jpg,AMSA13.jpg,AMNE02.jpg,AMSA17.jpg,AMNE02.jpg,MN,1,num_2,16,num_2,0.66662443594,,,2017_Aug_30_1717,60.0092579761,MAFE4ImagesEEG,001,201255,
AFNE01.JPG,AFNE01.JPG,AFNE01.JPG,AFNE01.JPG,AFNE01.JPG,AFNE01.JPG,,,,,,,,,,,,,,,,,2,9,29,0,,,,,,,AMSA12.jpg,AMNE03.jpg,AMNE11.jpg,AMSA07.jpg,AMNE11.jpg,MN,1,num_2,32,num_6,0.833517170639,,,2017_Aug_30_1717,60.0092579761,MAFE4ImagesEEG,001,201255,
AFNE01.JPG,AFNE01.JPG,AFNE01.JPG,AFNE01.JPG,AFNE01.JPG,AFNE01.JPG,,,,,,,,,,,,,,,,,3,0,30,0,,,,,,,AMNE19.jpg,AMSA17.jpg,AMSA10.jpg,AMNE01.jpg,AMSA10.jpg,MS,2,num_2,32,num_8,0.850041359383,,,2017_Aug_30_1717,60.0092579761,MAFE4ImagesEEG,001,201255,
AFNE01.JPG,AFNE01.JPG,AFNE01.JPG,AFNE01.JPG,AFNE01.JPG,AFNE01.JPG,,,,,,,,,,,,,,,,,3,1,31,9,,,,,,,AMNE09.jpg,AMNE20.jpg,AMSA09.jpg,AMSA18.jpg,AMSA09.jpg,MS,2,num_2,32,num_4,1.26677396479,,,2017_Aug_30_1717,60.0092579761,MAFE4ImagesEEG,001,201255,
AFNE01.JPG,AFNE01.JPG,AFNE01.JPG,AFNE01.JPG,AFNE01.JPG,AFNE01.JPG,,,,,,,,,,,,,,,,,3,2,32,8,,,,,,,AMNE09.jpg,AMNE05.jpg,AMSA20.jpg,AMSA19.jpg,AMNE09.jpg,MN,1,num_8,16,num_8,0.650102171632,,,2017_Aug_30_1717,60.0092579761,MAFE4ImagesEEG,001,201255,
AFNE01.JPG,AFNE01.JPG,AFNE01.JPG,AFNE01.JPG,AFNE01.JPG,AFNE01.JPG,,,,,,,,,,,,,,,,,3,3,33,3,,,,,,,AMNE16.jpg,AMNE07.jpg,AMSA20.jpg,AMSA07.jpg,AMNE07.jpg,MN,1,num_6,32,num_8,0.700115113479,,,2017_Aug_30_1717,60.0092579761,MAFE4ImagesEEG,001,201255,
AFNE01.JPG,AFNE01.JPG,AFNE01.JPG,AFNE01.JPG,AFNE01.JPG,AFNE01.JPG,,,,,,,,,,,,,,,,,3,4,34,4,,,,,,,AMNE07.jpg,AMSA15.jpg,AMSA09.jpg,AMNE08.jpg,AMSA09.jpg,MS,2,num_2,16,num_2,0.883694331213,,,2017_Aug_30_1717,60.0092579761,MAFE4ImagesEEG,001,201255,
AFNE01.JPG,AFNE01.JPG,AFNE01.JPG,AFNE01.JPG,AFNE01.JPG,AFNE01.JPG,,,,,,,,,,,,,,,,,3,5,35,6,,,,,,,AMSA04.jpg,AMSA01.jpg,AMNE02.jpg,AMNE06.jpg,AMNE06.jpg,MN,1,num_4,32,num_2,0.850118657654,,,2017_Aug_30_1717,60.0092579761,MAFE4ImagesEEG,001,201255,
AFNE01.JPG,AFNE01.JPG,AFNE01.JPG,AFNE01.JPG,AFNE01.JPG,AFNE01.JPG,,,,,,,,,,,,,,,,,3,6,36,5,,,,,,,AMNE12.jpg,AMNE13.jpg,AMSA07.jpg,AMSA01.jpg,AMSA01.jpg,MS,2,num_4,16,num_4,1.83338213923,,,2017_Aug_30_1717,60.0092579761,MAFE4ImagesEEG,001,201255,
AFNE01.JPG,AFNE01.JPG,AFNE01.JPG,AFNE01.JPG,AFNE01.JPG,AFNE01.JPG,,,,,,,,,,,,,,,,,3,7,37,7,,,,,,,AMNE07.jpg,AMSA11.jpg,AMNE05.jpg,AMSA15.jpg,AMNE05.jpg,MN,1,num_2,32,num_8,0.683460383672,,,2017_Aug_30_1717,60.0092579761,MAFE4ImagesEEG,001,201255,
AFNE01.JPG,AFNE01.JPG,AFNE01.JPG,AFNE01.JPG,AFNE01.JPG,AFNE01.JPG,,,,,,,,,,,,,,,,,3,8,38,2,,,,,,,AMNE14.jpg,AMSA20.jpg,AMSA09.jpg,AMNE08.jpg,AMNE14.jpg,MN,1,num_8,32,num_4,0.76677252146,,,2017_Aug_30_1717,60.0092579761,MAFE4ImagesEEG,001,201255,
AFNE01.JPG,AFNE01.JPG,AFNE01.JPG,AFNE01.JPG,AFNE01.JPG,AFNE01.JPG,,,,,,,,,,,,,,,,,3,9,39,1,,,,,,,AMNE11.jpg,AMSA17.jpg,AMSA03.jpg,AMNE13.jpg,AMNE11.jpg,MN,1,num_8,16,num_8,0.866774670416,,,2017_Aug_30_1717,60.0092579761,MAFE4ImagesEEG,001,201255,
AFNE01.JPG,AFNE01.JPG,AFNE01.JPG,AFNE01.JPG,AFNE01.JPG,AFNE01.JPG,,,,,,,,,,,,,,,,,4,0,40,5,,,,,,,AMSA04.jpg,AMNE18.jpg,AMSA12.jpg,AMNE02.jpg,AMNE18.jpg,MN,1,num_6,32,num_8,0.733446383387,,,2017_Aug_30_1717,60.0092579761,MAFE4ImagesEEG,001,201255,
AFNE01.JPG,AFNE01.JPG,AFNE01.JPG,AFNE01.JPG,AFNE01.JPG,AFNE01.JPG,,,,,,,,,,,,,,,,,4,1,41,8,,,,,,,AMNE06.jpg,AMSA11.jpg,AMSA17.jpg,AMNE09.jpg,AMNE09.jpg,MN,1,num_4,32,num_8,0.950087449681,,,2017_Aug_30_1717,60.0092579761,MAFE4ImagesEEG,001,201255,
AFNE01.JPG,AFNE01.JPG,AFNE01.JPG,AFNE01.JPG,AFNE01.JPG,AFNE01.JPG,,,,,,,,,,,,,,,,,4,2,42,4,,,,,,,AMSA20.jpg,AMNE02.jpg,AMNE09.jpg,AMSA07.jpg,AMSA07.jpg,MS,2,num_4,32,num_6,4.18291624877,,,2017_Aug_30_1717,60.0092579761,MAFE4ImagesEEG,001,201255,
AFNE01.JPG,AFNE01.JPG,AFNE01.JPG,AFNE01.JPG,AFNE01.JPG,AFNE01.JPG,,,,,,,,,,,,,,,,,4,3,43,3,,,,,,,AMNE20.jpg,AMSA10.jpg,AMNE02.jpg,AMSA03.jpg,AMSA10.jpg,MS,2,num_6,16,num_6,3.94986998816,,,2017_Aug_30_1717,60.0092579761,MAFE4ImagesEEG,001,201255,
AFNE01.JPG,AFNE01.JPG,AFNE01.JPG,AFNE01.JPG,AFNE01.JPG,AFNE01.JPG,,,,,,,,,,,,,,,,,4,4,44,7,,,,,,,AMNE17.jpg,AMSA07.jpg,AMSA17.jpg,AMNE03.jpg,AMNE17.jpg,MN,1,num_8,32,num_4,3.38323839973,,,2017_Aug_30_1717,60.0092579761,MAFE4ImagesEEG,001,201255,
AFNE01.JPG,AFNE01.JPG,AFNE01.JPG,AFNE01.JPG,AFNE01.JPG,AFNE01.JPG,,,,,,,,,,,,,,,,,4,5,45,2,,,,,,,AMSA15.jpg,AMSA07.jpg,AMNE01.jpg,AMNE02.jpg,AMSA07.jpg,MS,2,num_6,32,num_8,0.766822236114,,,2017_Aug_30_1717,60.0092579761,MAFE4ImagesEEG,001,201255,
AFNE01.JPG,AFNE01.JPG,AFNE01.JPG,AFNE01.JPG,AFNE01.JPG,AFNE01.JPG,,,,,,,,,,,,,,,,,4,6,46,1,,,,,,,AMNE20.jpg,AMNE09.jpg,AMSA17.jpg,AMSA19.jpg,AMNE20.jpg,MN,1,num_8,32,num_6,0.750146978968,,,2017_Aug_30_1717,60.0092579761,MAFE4ImagesEEG,001,201255,
AFNE01.JPG,AFNE01.JPG,AFNE01.JPG,AFNE01.JPG,AFNE01.JPG,AFNE01.JPG,,,,,,,,,,,,,,,,,4,7,47,9,,,,,,,AMNE13.jpg,AMSA20.jpg,AMSA05.jpg,AMNE14.jpg,AMSA05.jpg,MS,2,num_2,32,num_4,1.0334483399,,,2017_Aug_30_1717,60.0092579761,MAFE4ImagesEEG,001,201255,
AFNE01.JPG,AFNE01.JPG,AFNE01.JPG,AFNE01.JPG,AFNE01.JPG,AFNE01.JPG,,,,,,,,,,,,,,,,,4,8,48,6,,,,,,,AMNE19.jpg,AMSA20.jpg,AMNE16.jpg,AMSA02.jpg,AMNE19.jpg,MN,1,num_8,32,num_4,0.766796897675,,,2017_Aug_30_1717,60.0092579761,MAFE4ImagesEEG,001,201255,
AFNE01.JPG,AFNE01.JPG,AFNE01.JPG,AFNE01.JPG,AFNE01.JPG,AFNE01.JPG,,,,,,,,,,,,,,,,,4,9,49,0,,,,,,,AMNE17.jpg,AMSA04.jpg,AMNE10.jpg,AMSA17.jpg,AMNE10.jpg,MN,1,num_2,32,num_4,0.81676974706,,,2017_Aug_30_1717,60.0092579761,MAFE4ImagesEEG,001,201255,
AFNE01.JPG,AFNE01.JPG,AFNE01.JPG,AFNE01.JPG,AFNE01.JPG,AFNE01.JPG,,,,,,,,,,,,,,,,,5,0,50,2,,,,,,,AMNE05.jpg,AMNE19.jpg,AMSA12.jpg,AMSA07.jpg,AMSA12.jpg,MS,2,num_2,32,num_4,0.850102620669,,,2017_Aug_30_1717,60.0092579761,MAFE4ImagesEEG,001,201255,
AFNE01.JPG,AFNE01.JPG,AFNE01.JPG,AFNE01.JPG,AFNE01.JPG,AFNE01.JPG,,,,,,,,,,,,,,,,,5,1,51,0,,,,,,,AMSA04.jpg,AMSA08.jpg,AMNE01.jpg,AMNE16.jpg,AMSA08.jpg,MS,2,num_6,16,num_6,0.783424364607,,,2017_Aug_30_1717,60.0092579761,MAFE4ImagesEEG,001,201255,
AFNE01.JPG,AFNE01.JPG,AFNE01.JPG,AFNE01.JPG,AFNE01.JPG,AFNE01.JPG,,,,,,,,,,,,,,,,,5,2,52,8,,,,,,,AMSA09.jpg,AMSA19.jpg,AMNE04.jpg,AMNE09.jpg,AMSA19.jpg,MS,2,num_6,32,num_8,0.983490886021,,,2017_Aug_30_1717,60.0092579761,MAFE4ImagesEEG,001,201255,
AFNE01.JPG,AFNE01.JPG,AFNE01.JPG,AFNE01.JPG,AFNE01.JPG,AFNE01.JPG,,,,,,,,,,,,,,,,,5,3,53,5,,,,,,,AMSA07.jpg,AMNE20.jpg,AMSA16.jpg,AMNE15.jpg,AMNE15.jpg,MN,1,num_4,32,num_8,4.91650792724,,,2017_Aug_30_1717,60.0092579761,MAFE4ImagesEEG,001,201255,
AFNE01.JPG,AFNE01.JPG,AFNE01.JPG,AFNE01.JPG,AFNE01.JPG,AFNE01.JPG,,,,,,,,,,,,,,,,,5,4,54,9,,,,,,,AMSA17.jpg,AMNE03.jpg,AMNE04.jpg,AMSA08.jpg,AMNE03.jpg,MN,1,num_6,32,num_2,0.516647833902,,,2017_Aug_30_1717,60.0092579761,MAFE4ImagesEEG,001,201255,
AFNE01.JPG,AFNE01.JPG,AFNE01.JPG,AFNE01.JPG,AFNE01.JPG,AFNE01.JPG,,,,,,,,,,,,,,,,,5,5,55,7,,,,,,,AMSA04.jpg,AMNE02.jpg,AMSA14.jpg,AMNE08.jpg,AMNE08.jpg,MN,1,num_4,32,num_6,0.683440177076,,,2017_Aug_30_1717,60.0092579761,MAFE4ImagesEEG,001,201255,
AFNE01.JPG,AFNE01.JPG,AFNE01.JPG,AFNE01.JPG,AFNE01.JPG,AFNE01.JPG,,,,,,,,,,,,,,,,,5,6,56,3,,,,,,,AMNE12.jpg,AMNE05.jpg,AMSA12.jpg,AMSA13.jpg,AMSA13.jpg,MS,2,num_4,16,num_4,0.616800730517,,,2017_Aug_30_1717,60.0092579761,MAFE4ImagesEEG,001,201255,
AFNE01.JPG,AFNE01.JPG,AFNE01.JPG,AFNE01.JPG,AFNE01.JPG,AFNE01.JPG,,,,,,,,,,,,,,,,,5,7,57,6,,,,,,,AMNE02.jpg,AMSA03.jpg,AMSA01.jpg,AMNE06.jpg,AMSA01.jpg,MS,2,num_2,32,num_6,1.03341305853,,,2017_Aug_30_1717,60.0092579761,MAFE4ImagesEEG,001,201255,
AFNE01.JPG,AFNE01.JPG,AFNE01.JPG,AFNE01.JPG,AFNE01.JPG,AFNE01.JPG,,,,,,,,,,,,,,,,,5,8,58,4,,,,,,,AMSA13.jpg,AMNE14.jpg,AMSA19.jpg,AMNE04.jpg,AMSA13.jpg,MS,2,num_8,16,num_8,2.70009971797,,,2017_Aug_30_1717,60.0092579761,MAFE4ImagesEEG,001,201255,
AFNE01.JPG,AFNE01.JPG,AFNE01.JPG,AFNE01.JPG,AFNE01.JPG,AFNE01.JPG,,,,,,,,,,,,,,,,,5,9,59,1,,,,,,,AMNE01.jpg,AMSA19.jpg,AMSA20.jpg,AMNE03.jpg,AMNE03.jpg,MN,1,num_4,16,num_4,0.466809374451,,,2017_Aug_30_1717,60.0092579761,MAFE4ImagesEEG,001,201255,
,,,,,,,,,,,,,,,,,,,,,,,,,,,,,,,,,,,,,,,,,,,space,54.6125618346,2017_Aug_30_1717,60.0092579761,MAFE4ImagesEEG,001,201255,
AFNE01.JPG,AFNE01.JPG,AFNE01.JPG,AFNE01.JPG,AFNE01.JPG,AFNE01.JPG,,,,,,,,,,,,,,,,,,,,,0,0,0,3,,,AFSA07.jpg,AFNE06.jpg,AFSA14.jpg,AFNE17.jpg,AFSA14.jpg,FS,4,num_2,32,num_8,0.683436007461,,,2017_Aug_30_1717,60.0092579761,MAFE4ImagesEEG,001,201255,
AFNE01.JPG,AFNE01.JPG,AFNE01.JPG,AFNE01.JPG,AFNE01.JPG,AFNE01.JPG,,,,,,,,,,,,,,,,,,,,,0,1,1,1,,,AFSA14.jpg,AFSA18.jpg,AFNE12.jpg,AFNE06.jpg,AFNE06.jpg,FN,3,num_4,32,num_6,1.68339334908,,,2017_Aug_30_1717,60.0092579761,MAFE4ImagesEEG,001,201255,
AFNE01.JPG,AFNE01.JPG,AFNE01.JPG,AFNE01.JPG,AFNE01.JPG,AFNE01.JPG,,,,,,,,,,,,,,,,,,,,,0,2,2,9,,,AFNE17.jpg,AFSA05.jpg,AFSA03.jpg,AFNE18.jpg,AFNE18.jpg,FN,3,num_4,16,num_4,0.800103149886,,,2017_Aug_30_1717,60.0092579761,MAFE4ImagesEEG,001,201255,
AFNE01.JPG,AFNE01.JPG,AFNE01.JPG,AFNE01.JPG,AFNE01.JPG,AFNE01.JPG,,,,,,,,,,,,,,,,,,,,,0,3,3,2,,,AFSA09.jpg,AFNE06.jpg,AFSA17.jpg,AFNE19.jpg,AFSA09.jpg,FS,4,num_8,32,num_2,0.850427529986,,,2017_Aug_30_1717,60.0092579761,MAFE4ImagesEEG,001,201255,
AFNE01.JPG,AFNE01.JPG,AFNE01.JPG,AFNE01.JPG,AFNE01.JPG,AFNE01.JPG,,,,,,,,,,,,,,,,,,,,,0,4,4,7,,,AFNE02.jpg,AFSA11.jpg,AFSA10.jpg,AFNE16.jpg,AFNE16.jpg,FN,3,num_4,16,num_4,0.783454193399,,,2017_Aug_30_1717,60.0092579761,MAFE4ImagesEEG,001,201255,
AFNE01.JPG,AFNE01.JPG,AFNE01.JPG,AFNE01.JPG,AFNE01.JPG,AFNE01.JPG,,,,,,,,,,,,,,,,,,,,,0,5,5,6,,,AFNE10.jpg,AFNE13.jpg,AFSA09.jpg,AFSA13.jpg,AFSA13.jpg,FS,4,num_4,16,num_4,1.13338473722,,,2017_Aug_30_1717,60.0092579761,MAFE4ImagesEEG,001,201255,
AFNE01.JPG,AFNE01.JPG,AFNE01.JPG,AFNE01.JPG,AFNE01.JPG,AFNE01.JPG,,,,,,,,,,,,,,,,,,,,,0,6,6,8,,,AFSA07.jpg,AFNE03.jpg,AFNE04.jpg,AFSA15.jpg,AFSA15.jpg,FS,4,num_4,16,num_4,0.433494783007,,,2017_Aug_30_1717,60.0092579761,MAFE4ImagesEEG,001,201255,
AFNE01.JPG,AFNE01.JPG,AFNE01.JPG,AFNE01.JPG,AFNE01.JPG,AFNE01.JPG,,,,,,,,,,,,,,,,,,,,,0,7,7,0,,,AFSA11.jpg,AFSA18.jpg,AFNE19.jpg,AFNE01.jpg,AFNE19.jpg,FN,3,num_2,32,num_8,1.33339192179,,,2017_Aug_30_1717,60.0092579761,MAFE4ImagesEEG,001,201255,
AFNE01.JPG,AFNE01.JPG,AFNE01.JPG,AFNE01.JPG,AFNE01.JPG,AFNE01.JPG,,,,,,,,,,,,,,,,,,,,,0,8,8,5,,,AFNE10.jpg,AFSA16.jpg,AFSA10.jpg,AFNE09.jpg,AFSA16.jpg,FS,4,num_6,16,num_6,0.583450216225,,,2017_Aug_30_1717,60.0092579761,MAFE4ImagesEEG,001,201255,
AFNE01.JPG,AFNE01.JPG,AFNE01.JPG,AFNE01.JPG,AFNE01.JPG,AFNE01.JPG,,,,,,,,,,,,,,,,,,,,,0,9,9,4,,,AFSA18.jpg,AFSA09.jpg,AFNE11.jpg,AFNE06.jpg,AFSA09.jpg,FS,4,num_6,16,num_6,1.15009078537,,,2017_Aug_30_1717,60.0092579761,MAFE4ImagesEEG,001,201255,
AFNE01.JPG,AFNE01.JPG,AFNE01.JPG,AFNE01.JPG,AFNE01.JPG,AFNE01.JPG,,,,,,,,,,,,,,,,,,,,,1,0,10,0,,,AFSA10.jpg,AFSA07.jpg,AFNE13.jpg,AFNE03.jpg,AFNE03.jpg,FN,3,num_4,16,num_4,1.08340900118,,,2017_Aug_30_1717,60.0092579761,MAFE4ImagesEEG,001,201255,
AFNE01.JPG,AFNE01.JPG,AFNE01.JPG,AFNE01.JPG,AFNE01.JPG,AFNE01.JPG,,,,,,,,,,,,,,,,,,,,,1,1,11,2,,,AFSA13.jpg,AFNE12.jpg,AFNE09.jpg,AFSA08.jpg,AFNE12.jpg,FN,3,num_6,16,num_6,0.766763861488,,,2017_Aug_30_1717,60.0092579761,MAFE4ImagesEEG,001,201255,
AFNE01.JPG,AFNE01.JPG,AFNE01.JPG,AFNE01.JPG,AFNE01.JPG,AFNE01.JPG,,,,,,,,,,,,,,,,,,,,,1,2,12,3,,,AFNE13.jpg,AFSA02.jpg,AFSA09.jpg,AFNE07.jpg,AFSA02.jpg,FS,4,num_6,16,num_6,0.850237010603,,,2017_Aug_30_1717,60.0092579761,MAFE4ImagesEEG,001,201255,
AFNE01.JPG,AFNE01.JPG,AFNE01.JPG,AFNE01.JPG,AFNE01.JPG,AFNE01.JPG,,,,,,,,,,,,,,,,,,,,,1,3,13,9,,,AFSA04.jpg,AFSA12.jpg,AFNE10.jpg,AFNE15.jpg,AFSA04.jpg,FS,4,num_8,16,num_8,0.600142793315,,,2017_Aug_30_1717,60.0092579761,MAFE4ImagesEEG,001,201255,
AFNE01.JPG,AFNE01.JPG,AFNE01.JPG,AFNE01.JPG,AFNE01.JPG,AFNE01.JPG,,,,,,,,,,,,,,,,,,,,,1,4,14,7,,,AFSA02.jpg,AFNE05.jpg,AFNE12.jpg,AFSA05.jpg,AFNE12.jpg,FN,3,num_2,16,num_2,0.933495264118,,,2017_Aug_30_1717,60.0092579761,MAFE4ImagesEEG,001,201255,
AFNE01.JPG,AFNE01.JPG,AFNE01.JPG,AFNE01.JPG,AFNE01.JPG,AFNE01.JPG,,,,,,,,,,,,,,,,,,,,,1,5,15,1,,,AFSA07.jpg,AFNE13.jpg,AFSA18.jpg,AFNE12.jpg,AFSA07.jpg,FS,4,num_8,32,num_4,0.717009435841,,,2017_Aug_30_1717,60.0092579761,MAFE4ImagesEEG,001,201255,
AFNE01.JPG,AFNE01.JPG,AFNE01.JPG,AFNE01.JPG,AFNE01.JPG,AFNE01.JPG,,,,,,,,,,,,,,,,,,,,,1,6,16,6,,,AFNE09.jpg,AFSA01.jpg,AFNE01.jpg,AFSA14.jpg,AFNE01.jpg,FN,3,num_2,32,num_8,0.600123869674,,,2017_Aug_30_1717,60.0092579761,MAFE4ImagesEEG,001,201255,
AFNE01.JPG,AFNE01.JPG,AFNE01.JPG,AFNE01.JPG,AFNE01.JPG,AFNE01.JPG,,,,,,,,,,,,,,,,,,,,,1,7,17,5,,,AFSA20.jpg,AFSA06.jpg,AFNE06.jpg,AFNE05.jpg,AFNE06.jpg,FN,3,num_2,32,num_8,0.716791332841,,,2017_Aug_30_1717,60.0092579761,MAFE4ImagesEEG,001,201255,
AFNE01.JPG,AFNE01.JPG,AFNE01.JPG,AFNE01.JPG,AFNE01.JPG,AFNE01.JPG,,,,,,,,,,,,,,,,,,,,,1,8,18,8,,,AFNE06.jpg,AFSA13.jpg,AFSA08.jpg,AFNE09.jpg,AFNE09.jpg,FN,3,num_4,32,num_8,0.700092020219,,,2017_Aug_30_1717,60.0092579761,MAFE4ImagesEEG,001,201255,
AFNE01.JPG,AFNE01.JPG,AFNE01.JPG,AFNE01.JPG,AFNE01.JPG,AFNE01.JPG,,,,,,,,,,,,,,,,,,,,,1,9,19,4,,,AFSA12.jpg,AFNE16.jpg,AFSA08.jpg,AFNE11.jpg,AFNE11.jpg,FN,3,num_4,16,num_4,0.616808107527,,,2017_Aug_30_1717,60.0092579761,MAFE4ImagesEEG,001,201255,
AFNE01.JPG,AFNE01.JPG,AFNE01.JPG,AFNE01.JPG,AFNE01.JPG,AFNE01.JPG,,,,,,,,,,,,,,,,,,,,,2,0,20,0,,,AFSA16.jpg,AFNE15.jpg,AFSA19.jpg,AFNE10.jpg,AFNE10.jpg,FN,3,num_4,32,num_6,2.71661396379,,,2017_Aug_30_1717,60.0092579761,MAFE4ImagesEEG,001,201255,
AFNE01.JPG,AFNE01.JPG,AFNE01.JPG,AFNE01.JPG,AFNE01.JPG,AFNE01.JPG,,,,,,,,,,,,,,,,,,,,,2,1,21,4,,,AFNE08.jpg,AFNE16.jpg,AFSA20.jpg,AFSA04.jpg,AFNE16.jpg,FN,3,num_6,32,num_4,0.783469909646,,,2017_Aug_30_1717,60.0092579761,MAFE4ImagesEEG,001,201255,
AFNE01.JPG,AFNE01.JPG,AFNE01.JPG,AFNE01.JPG,AFNE01.JPG,AFNE01.JPG,,,,,,,,,,,,,,,,,,,,,2,2,22,3,,,AFSA03.jpg,AFNE07.jpg,AFSA16.jpg,AFNE13.jpg,AFNE13.jpg,FN,3,num_4,16,num_4,1.05012744592,,,2017_Aug_30_1717,60.0092579761,MAFE4ImagesEEG,001,201255,
AFNE01.JPG,AFNE01.JPG,AFNE01.JPG,AFNE01.JPG,AFNE01.JPG,AFNE01.JPG,,,,,,,,,,,,,,,,,,,,,2,3,23,1,,,AFNE14.jpg,AFSA16.jpg,AFNE07.jpg,AFSA03.jpg,AFSA03.jpg,FS,4,num_4,16,num_4,0.533479932757,,,2017_Aug_30_1717,60.0092579761,MAFE4ImagesEEG,001,201255,
AFNE01.JPG,AFNE01.JPG,AFNE01.JPG,AFNE01.JPG,AFNE01.JPG,AFNE01.JPG,,,,,,,,,,,,,,,,,,,,,2,4,24,7,,,AFSA06.jpg,AFNE08.jpg,AFNE03.jpg,AFSA09.jpg,AFSA06.jpg,FS,4,num_8,16,num_8,0.550138511444,,,2017_Aug_30_1717,60.0092579761,MAFE4ImagesEEG,001,201255,
AFNE01.JPG,AFNE01.JPG,AFNE01.JPG,AFNE01.JPG,AFNE01.JPG,AFNE01.JPG,,,,,,,,,,,,,,,,,,,,,2,5,25,2,,,AFNE18.jpg,AFNE09.jpg,AFSA14.jpg,AFSA19.jpg,AFSA19.jpg,FS,4,num_4,16,num_4,0.666814313841,,,2017_Aug_30_1717,60.0092579761,MAFE4ImagesEEG,001,201255,
AFNE01.JPG,AFNE01.JPG,AFNE01.JPG,AFNE01.JPG,AFNE01.JPG,AFNE01.JPG,,,,,,,,,,,,,,,,,,,,,2,6,26,8,,,AFSA20.jpg,AFNE18.jpg,AFSA04.jpg,AFNE02.jpg,AFSA20.jpg,FS,4,num_8,32,num_4,1.61671156488,,,2017_Aug_30_1717,60.0092579761,MAFE4ImagesEEG,001,201255,
AFNE01.JPG,AFNE01.JPG,AFNE01.JPG,AFNE01.JPG,AFNE01.JPG,AFNE01.JPG,,,,,,,,,,,,,,,,,,,,,2,7,27,6,,,AFNE08.jpg,AFNE01.jpg,AFSA10.jpg,AFSA12.jpg,AFSA12.jpg,FS,4,num_4,32,num_2,3.0832742905,,,2017_Aug_30_1717,60.0092579761,MAFE4ImagesEEG,001,201255,
AFNE01.JPG,AFNE01.JPG,AFNE01.JPG,AFNE01.JPG,AFNE01.JPG,AFNE01.JPG,,,,,,,,,,,,,,,,,,,,,2,8,28,5,,,AFSA02.jpg,AFSA08.jpg,AFNE03.jpg,AFNE02.jpg,AFSA02.jpg,FS,4,num_8,16,num_8,0.716793898759,,,2017_Aug_30_1717,60.0092579761,MAFE4ImagesEEG,001,201255,
AFNE01.JPG,AFNE01.JPG,AFNE01.JPG,AFNE01.JPG,AFNE01.JPG,AFNE01.JPG,,,,,,,,,,,,,,,,,,,,,2,9,29,9,,,AFSA15.jpg,AFNE05.jpg,AFNE19.jpg,AFSA07.jpg,AFNE05.jpg,FN,3,num_6,32,num_8,0.900117486955,,,2017_Aug_30_1717,60.0092579761,MAFE4ImagesEEG,001,201255,
AFNE01.JPG,AFNE01.JPG,AFNE01.JPG,AFNE01.JPG,AFNE01.JPG,AFNE01.JPG,,,,,,,,,,,,,,,,,,,,,3,0,30,0,,,AFNE14.jpg,AFSA20.jpg,AFNE10.jpg,AFSA04.jpg,AFNE10.jpg,FN,3,num_2,16,num_2,1.30018189149,,,2017_Aug_30_1717,60.0092579761,MAFE4ImagesEEG,001,201255,
AFNE01.JPG,AFNE01.JPG,AFNE01.JPG,AFNE01.JPG,AFNE01.JPG,AFNE01.JPG,,,,,,,,,,,,,,,,,,,,,3,1,31,8,,,AFNE20.jpg,AFSA03.jpg,AFNE03.jpg,AFSA11.jpg,AFNE20.jpg,FN,3,num_8,16,num_8,0.566780090914,,,2017_Aug_30_1717,60.0092579761,MAFE4ImagesEEG,001,201255,
AFNE01.JPG,AFNE01.JPG,AFNE01.JPG,AFNE01.JPG,AFNE01.JPG,AFNE01.JPG,,,,,,,,,,,,,,,,,,,,,3,2,32,7,,,AFNE05.jpg,AFSA10.jpg,AFNE04.jpg,AFSA03.jpg,AFSA10.jpg,FS,4,num_6,32,num_4,0.733482947715,,,2017_Aug_30_1717,60.0092579761,MAFE4ImagesEEG,001,201255,
AFNE01.JPG,AFNE01.JPG,AFNE01.JPG,AFNE01.JPG,AFNE01.JPG,AFNE01.JPG,,,,,,,,,,,,,,,,,,,,,3,3,33,9,,,AFNE16.jpg,AFNE15.jpg,AFSA07.jpg,AFSA10.jpg,AFNE15.jpg,FN,3,num_6,16,num_6,0.450149192075,,,2017_Aug_30_1717,60.0092579761,MAFE4ImagesEEG,001,201255,
AFNE01.JPG,AFNE01.JPG,AFNE01.JPG,AFNE01.JPG,AFNE01.JPG,AFNE01.JPG,,,,,,,,,,,,,,,,,,,,,3,4,34,3,,,AFNE11.jpg,AFSA16.jpg,AFNE17.jpg,AFSA06.jpg,AFNE11.jpg,FN,3,num_8,16,num_8,0.783483701452,,,2017_Aug_30_1717,60.0092579761,MAFE4ImagesEEG,001,201255,
AFNE01.JPG,AFNE01.JPG,AFNE01.JPG,AFNE01.JPG,AFNE01.JPG,AFNE01.JPG,,,,,,,,,,,,,,,,,,,,,3,5,35,1,,,AFNE12.jpg,AFSA10.jpg,AFSA14.jpg,AFNE15.jpg,AFSA14.jpg,FS,4,num_2,16,num_2,2.73331231419,,,2017_Aug_30_1717,60.0092579761,MAFE4ImagesEEG,001,201255,
AFNE01.JPG,AFNE01.JPG,AFNE01.JPG,AFNE01.JPG,AFNE01.JPG,AFNE01.JPG,,,,,,,,,,,,,,,,,,,,,3,6,36,5,,,AFSA01.jpg,AFSA18.jpg,AFNE16.jpg,AFNE13.jpg,AFNE16.jpg,FN,3,num_2,32,num_8,2.8333391601,,,2017_Aug_30_1717,60.0092579761,MAFE4ImagesEEG,001,201255,
AFNE01.JPG,AFNE01.JPG,AFNE01.JPG,AFNE01.JPG,AFNE01.JPG,AFNE01.JPG,,,,,,,,,,,,,,,,,,,,,3,7,37,2,,,AFSA15.jpg,AFSA01.jpg,AFNE11.jpg,AFNE17.jpg,AFSA01.jpg,FS,4,num_6,16,num_6,0.916752010158,,,2017_Aug_30_1717,60.0092579761,MAFE4ImagesEEG,001,201255,
AFNE01.JPG,AFNE01.JPG,AFNE01.JPG,AFNE01.JPG,AFNE01.JPG,AFNE01.JPG,,,,,,,,,,,,,,,,,,,,,3,8,38,6,,,AFNE16.jpg,AFSA03.jpg,AFSA07.jpg,AFNE06.jpg,AFSA03.jpg,FS,4,num_6,32,num_4,1.21677449401,,,2017_Aug_30_1717,60.0092579761,MAFE4ImagesEEG,001,201255,
