IPosition2,IPosition3,IPosition1,IPosition6,IPosition4,IPosition5,TrialsM1.thisRepN,TrialsM1.thisTrialN,TrialsM1.thisN,TrialsM1.thisIndex,TrialsF1.thisRepN,TrialsF1.thisTrialN,TrialsF1.thisN,TrialsF1.thisIndex,TrialsM2.thisRepN,TrialsM2.thisTrialN,TrialsM2.thisN,TrialsM2.thisIndex,TrialsF2.thisRepN,TrialsF2.thisTrialN,TrialsF2.thisN,TrialsF2.thisIndex,TrialsM3.thisRepN,TrialsM3.thisTrialN,TrialsM3.thisN,TrialsM3.thisIndex,TrialsF3.thisRepN,TrialsF3.thisTrialN,TrialsF3.thisN,TrialsF3.thisIndex,InstrKey_resp.keys,InstrKey_resp.rt,Image0 _Position,Image1 _Position,Image2 _Position,Image3 _Position,Center_image,condition,code,correct_answer,accuracy,Key_Resp.keys,Key_Resp.rt,BreakKey_resp.keys,BreakKey_resp.rt,date,frameRate,expName,session,participant,
,,,,,,,,,,,,,,,,,,,,,,,,,,,,,,space,5.6665173088,,,,,,,,,,,,,,2017_Aug_22_1548,60.0037143909,MAFE4ImagesEEG,001,201274,
AMSA25.JPG,AMNE24.JPG,AMSA24.JPG,AMNE26.JPG,AMSA21.JPG,AMNE25.JPG,0,0,0,3,,,,,,,,,,,,,,,,,,,,,,,AMNE14.jpg,AMSA07.jpg,AMSA18.jpg,AMNE02.jpg,AMNE02.jpg,MN,1,num_4,32,num_8,0.983477735659,,,2017_Aug_22_1548,60.0037143909,MAFE4ImagesEEG,001,201274,
AFSA21.JPG,AFNE22.JPG,AFNE21.JPG,AFSA23.JPG,AFSA22.JPG,AFNE23.JPG,0,1,1,0,,,,,,,,,,,,,,,,,,,,,,,AMNE07.jpg,AMSA16.jpg,AMSA05.jpg,AMNE03.jpg,AMNE03.jpg,MN,1,num_4,32,num_6,0.900168484659,,,2017_Aug_22_1548,60.0037143909,MAFE4ImagesEEG,001,201274,
AMNE22.JPG,AMSA24.JPG,AMSA22.JPG,AMNE25.JPG,AMNE24.JPG,AMSA25.JPG,0,2,2,7,,,,,,,,,,,,,,,,,,,,,,,AMSA11.jpg,AMSA16.jpg,AMNE11.jpg,AMNE13.jpg,AMSA11.jpg,MS,2,num_8,16,num_8,1.1667528922,,,2017_Aug_22_1548,60.0037143909,MAFE4ImagesEEG,001,201274,
AFSA25.JPG,AFNE24.JPG,AFSA24.JPG,AFNE21.JPG,AFSA21.JPG,AFNE25.JPG,0,3,3,2,,,,,,,,,,,,,,,,,,,,,,,AMNE15.jpg,AMNE11.jpg,AMSA08.jpg,AMSA04.jpg,AMNE11.jpg,MN,1,num_6,32,num_2,0.850266839378,,,2017_Aug_22_1548,60.0037143909,MAFE4ImagesEEG,001,201274,
AFNE22.JPG,AFSA24.JPG,AFSA22.JPG,AFNE25.JPG,AFNE24.JPG,AFSA25.JPG,0,4,4,6,,,,,,,,,,,,,,,,,,,,,,,AMNE06.jpg,AMNE13.jpg,AMSA15.jpg,AMSA04.jpg,AMSA15.jpg,MS,2,num_2,32,num_6,0.90012710914,,,2017_Aug_22_1548,60.0037143909,MAFE4ImagesEEG,001,201274,
AFNE23.JPG,AFNE24.JPG,AFNE22.JPG,AFSA24.JPG,AFSA22.JPG,AFSA23.JPG,0,5,5,8,,,,,,,,,,,,,,,,,,,,,,,AMNE02.jpg,AMNE19.jpg,AMSA15.jpg,AMSA20.jpg,AMNE02.jpg,MN,1,num_8,32,num_2,1.15012382157,,,2017_Aug_22_1548,60.0037143909,MAFE4ImagesEEG,001,201274,
AMSA21.JPG,AMNE23.JPG,AMNE21.JPG,AMSA25.JPG,AMNE25.JPG,AMSA23.JPG,0,6,6,5,,,,,,,,,,,,,,,,,,,,,,,AMNE10.jpg,AMNE09.jpg,AMSA03.jpg,AMSA07.jpg,AMSA07.jpg,MS,2,num_4,32,num_8,1.08329962892,,,2017_Aug_22_1548,60.0037143909,MAFE4ImagesEEG,001,201274,
AMSA21.JPG,AMNE22.JPG,AMNE21.JPG,AMSA23.JPG,AMSA22.JPG,AMNE23.JPG,0,7,7,1,,,,,,,,,,,,,,,,,,,,,,,AMSA18.jpg,AMSA13.jpg,AMNE17.jpg,AMNE11.jpg,AMSA13.jpg,MS,2,num_6,32,num_4,1.08350522316,,,2017_Aug_22_1548,60.0037143909,MAFE4ImagesEEG,001,201274,
AMNE23.JPG,AMNE24.JPG,AMNE22.JPG,AMSA24.JPG,AMSA22.JPG,AMSA23.JPG,0,8,8,9,,,,,,,,,,,,,,,,,,,,,,,AMNE16.jpg,AMSA12.jpg,AMSA02.jpg,AMNE07.jpg,AMNE07.jpg,MN,1,num_4,32,num_6,0.733550303034,,,2017_Aug_22_1548,60.0037143909,MAFE4ImagesEEG,001,201274,
AFSA21.JPG,AFNE23.JPG,AFNE21.JPG,AFSA25.JPG,AFNE25.JPG,AFSA23.JPG,0,9,9,4,,,,,,,,,,,,,,,,,,,,,,,AMNE17.jpg,AMNE11.jpg,AMSA03.jpg,AMSA19.jpg,AMNE17.jpg,MN,1,num_8,16,num_8,0.733554151841,,,2017_Aug_22_1548,60.0037143909,MAFE4ImagesEEG,001,201274,
AFSA25.JPG,AFNE24.JPG,AFSA24.JPG,AFNE21.JPG,AFSA21.JPG,AFNE25.JPG,,,,,0,0,0,2,,,,,,,,,,,,,,,,,,,AFNE02.jpg,AFSA06.jpg,AFSA18.jpg,AFNE03.jpg,AFSA06.jpg,FS,4,num_6,16,num_6,0.466798790032,,,2017_Aug_22_1548,60.0037143909,MAFE4ImagesEEG,001,201274,
AMNE23.JPG,AMNE24.JPG,AMNE22.JPG,AMSA24.JPG,AMSA22.JPG,AMSA23.JPG,,,,,0,1,1,9,,,,,,,,,,,,,,,,,,,AFSA16.jpg,AFSA18.jpg,AFNE11.jpg,AFNE19.jpg,AFNE11.jpg,FN,3,num_2,32,num_8,0.466816430795,,,2017_Aug_22_1548,60.0037143909,MAFE4ImagesEEG,001,201274,
AFSA21.JPG,AFNE22.JPG,AFNE21.JPG,AFSA23.JPG,AFSA22.JPG,AFNE23.JPG,,,,,0,2,2,0,,,,,,,,,,,,,,,,,,,AFSA12.jpg,AFNE04.jpg,AFSA13.jpg,AFNE06.jpg,AFSA12.jpg,FS,4,num_8,32,num_6,1.01707201218,,,2017_Aug_22_1548,60.0037143909,MAFE4ImagesEEG,001,201274,
AMSA25.JPG,AMNE24.JPG,AMSA24.JPG,AMNE26.JPG,AMSA21.JPG,AMNE25.JPG,,,,,0,3,3,3,,,,,,,,,,,,,,,,,,,AFNE19.jpg,AFSA15.jpg,AFNE13.jpg,AFSA18.jpg,AFNE19.jpg,FN,3,num_8,32,num_2,0.533499177196,,,2017_Aug_22_1548,60.0037143909,MAFE4ImagesEEG,001,201274,
AFNE22.JPG,AFSA24.JPG,AFSA22.JPG,AFNE25.JPG,AFNE24.JPG,AFSA25.JPG,,,,,0,4,4,6,,,,,,,,,,,,,,,,,,,AFSA12.jpg,AFNE08.jpg,AFNE14.jpg,AFSA14.jpg,AFNE08.jpg,FN,3,num_6,32,num_8,0.866759595694,,,2017_Aug_22_1548,60.0037143909,MAFE4ImagesEEG,001,201274,
AMSA21.JPG,AMNE23.JPG,AMNE21.JPG,AMSA25.JPG,AMNE25.JPG,AMSA23.JPG,,,,,0,5,5,5,,,,,,,,,,,,,,,,,,,AFNE06.jpg,AFSA15.jpg,AFSA13.jpg,AFNE02.jpg,AFSA15.jpg,FS,4,num_6,16,num_6,0.616820616415,,,2017_Aug_22_1548,60.0037143909,MAFE4ImagesEEG,001,201274,
AMNE22.JPG,AMSA24.JPG,AMSA22.JPG,AMNE25.JPG,AMNE24.JPG,AMSA25.JPG,,,,,0,6,6,7,,,,,,,,,,,,,,,,,,,AFNE11.jpg,AFSA09.jpg,AFSA08.jpg,AFNE20.jpg,AFSA09.jpg,FS,4,num_6,32,num_8,0.883496114053,,,2017_Aug_22_1548,60.0037143909,MAFE4ImagesEEG,001,201274,
AMSA21.JPG,AMNE22.JPG,AMNE21.JPG,AMSA23.JPG,AMSA22.JPG,AMNE23.JPG,,,,,0,7,7,1,,,,,,,,,,,,,,,,,,,AFNE13.jpg,AFSA16.jpg,AFSA01.jpg,AFNE17.jpg,AFSA16.jpg,FS,4,num_6,16,num_6,1.60012451117,,,2017_Aug_22_1548,60.0037143909,MAFE4ImagesEEG,001,201274,
AFSA21.JPG,AFNE23.JPG,AFNE21.JPG,AFSA25.JPG,AFNE25.JPG,AFSA23.JPG,,,,,0,8,8,4,,,,,,,,,,,,,,,,,,,AFSA15.jpg,AFSA11.jpg,AFNE11.jpg,AFNE04.jpg,AFNE04.jpg,FN,3,num_4,32,num_8,0.500078100129,,,2017_Aug_22_1548,60.0037143909,MAFE4ImagesEEG,001,201274,
AFNE23.JPG,AFNE24.JPG,AFNE22.JPG,AFSA24.JPG,AFSA22.JPG,AFSA23.JPG,,,,,0,9,9,8,,,,,,,,,,,,,,,,,,,AFNE03.jpg,AFSA04.jpg,AFSA09.jpg,AFNE06.jpg,AFNE03.jpg,FN,3,num_8,32,num_2,0.650175300194,,,2017_Aug_22_1548,60.0037143909,MAFE4ImagesEEG,001,201274,
AFNE23.JPG,AFNE24.JPG,AFNE22.JPG,AFSA24.JPG,AFSA22.JPG,AFSA23.JPG,,,,,,,,,0,0,0,8,,,,,,,,,,,,,,,AMNE16.jpg,AMNE09.jpg,AMSA01.jpg,AMSA05.jpg,AMNE16.jpg,MN,1,num_8,16,num_8,1.20010950055,,,2017_Aug_22_1548,60.0037143909,MAFE4ImagesEEG,001,201274,
AMSA21.JPG,AMNE22.JPG,AMNE21.JPG,AMSA23.JPG,AMSA22.JPG,AMNE23.JPG,,,,,,,,,0,1,1,1,,,,,,,,,,,,,,,AMSA05.jpg,AMNE02.jpg,AMSA13.jpg,AMNE12.jpg,AMSA13.jpg,MS,2,num_2,32,num_6,1.08353120298,,,2017_Aug_22_1548,60.0037143909,MAFE4ImagesEEG,001,201274,
AFSA21.JPG,AFNE23.JPG,AFNE21.JPG,AFSA25.JPG,AFNE25.JPG,AFSA23.JPG,,,,,,,,,0,2,2,4,,,,,,,,,,,,,,,AMNE04.jpg,AMSA13.jpg,AMSA07.jpg,AMNE14.jpg,AMNE04.jpg,MN,1,num_8,32,num_2,0.766746541485,,,2017_Aug_22_1548,60.0037143909,MAFE4ImagesEEG,001,201274,
AMSA21.JPG,AMNE23.JPG,AMNE21.JPG,AMSA25.JPG,AMNE25.JPG,AMSA23.JPG,,,,,,,,,0,3,3,5,,,,,,,,,,,,,,,AMNE16.jpg,AMSA19.jpg,AMNE13.jpg,AMSA04.jpg,AMNE16.jpg,MN,1,num_8,16,num_8,0.866770821507,,,2017_Aug_22_1548,60.0037143909,MAFE4ImagesEEG,001,201274,
AMSA25.JPG,AMNE24.JPG,AMSA24.JPG,AMNE26.JPG,AMSA21.JPG,AMNE25.JPG,,,,,,,,,0,4,4,3,,,,,,,,,,,,,,,AMNE03.jpg,AMSA01.jpg,AMNE14.jpg,AMSA19.jpg,AMSA01.jpg,MS,2,num_6,16,num_6,0.916764839785,,,2017_Aug_22_1548,60.0037143909,MAFE4ImagesEEG,001,201274,
AMNE22.JPG,AMSA24.JPG,AMSA22.JPG,AMNE25.JPG,AMNE24.JPG,AMSA25.JPG,,,,,,,,,0,5,5,7,,,,,,,,,,,,,,,AMNE14.jpg,AMSA09.jpg,AMNE03.jpg,AMSA16.jpg,AMSA16.jpg,MS,2,num_4,32,num_8,0.566753790248,,,2017_Aug_22_1548,60.0037143909,MAFE4ImagesEEG,001,201274,
AFSA21.JPG,AFNE22.JPG,AFNE21.JPG,AFSA23.JPG,AFSA22.JPG,AFNE23.JPG,,,,,,,,,0,6,6,0,,,,,,,,,,,,,,,AMNE19.jpg,AMSA06.jpg,AMSA19.jpg,AMNE03.jpg,AMSA19.jpg,MS,2,num_2,16,num_2,0.483587268274,,,2017_Aug_22_1548,60.0037143909,MAFE4ImagesEEG,001,201274,
AFNE22.JPG,AFSA24.JPG,AFSA22.JPG,AFNE25.JPG,AFNE24.JPG,AFSA25.JPG,,,,,,,,,0,7,7,6,,,,,,,,,,,,,,,AMNE03.jpg,AMNE10.jpg,AMSA01.jpg,AMSA09.jpg,AMSA01.jpg,MS,2,num_2,32,num_4,0.366820375901,,,2017_Aug_22_1548,60.0037143909,MAFE4ImagesEEG,001,201274,
AFSA25.JPG,AFNE24.JPG,AFSA24.JPG,AFNE21.JPG,AFSA21.JPG,AFNE25.JPG,,,,,,,,,0,8,8,2,,,,,,,,,,,,,,,AMNE14.jpg,AMNE05.jpg,AMSA07.jpg,AMSA19.jpg,AMNE14.jpg,MN,1,num_8,32,num_2,1.31689852406,,,2017_Aug_22_1548,60.0037143909,MAFE4ImagesEEG,001,201274,
AMNE23.JPG,AMNE24.JPG,AMNE22.JPG,AMSA24.JPG,AMSA22.JPG,AMSA23.JPG,,,,,,,,,0,9,9,9,,,,,,,,,,,,,,,AMNE02.jpg,AMSA10.jpg,AMSA14.jpg,AMNE11.jpg,AMNE11.jpg,MN,1,num_4,32,num_6,0.866789103602,,,2017_Aug_22_1548,60.0037143909,MAFE4ImagesEEG,001,201274,
AFSA21.JPG,AFNE22.JPG,AFNE21.JPG,AFSA23.JPG,AFSA22.JPG,AFNE23.JPG,,,,,,,,,,,,,0,0,0,0,,,,,,,,,,,AFSA05.jpg,AFNE16.jpg,AFNE05.jpg,AFSA07.jpg,AFNE05.jpg,FN,3,num_2,32,num_8,0.65016503667,,,2017_Aug_22_1548,60.0037143909,MAFE4ImagesEEG,001,201274,
AMSA21.JPG,AMNE22.JPG,AMNE21.JPG,AMSA23.JPG,AMSA22.JPG,AMNE23.JPG,,,,,,,,,,,,,0,1,1,1,,,,,,,,,,,AFSA09.jpg,AFNE20.jpg,AFSA19.jpg,AFNE12.jpg,AFSA09.jpg,FS,4,num_8,32,num_2,1.3000843866,,,2017_Aug_22_1548,60.0037143909,MAFE4ImagesEEG,001,201274,
AMNE22.JPG,AMSA24.JPG,AMSA22.JPG,AMNE25.JPG,AMNE24.JPG,AMSA25.JPG,,,,,,,,,,,,,0,2,2,7,,,,,,,,,,,AFSA15.jpg,AFSA06.jpg,AFNE20.jpg,AFNE15.jpg,AFSA06.jpg,FS,4,num_6,16,num_6,0.533469989896,,,2017_Aug_22_1548,60.0037143909,MAFE4ImagesEEG,001,201274,
AFSA25.JPG,AFNE24.JPG,AFSA24.JPG,AFNE21.JPG,AFSA21.JPG,AFNE25.JPG,,,,,,,,,,,,,0,3,3,2,,,,,,,,,,,AFNE17.jpg,AFSA09.jpg,AFSA15.jpg,AFNE16.jpg,AFSA15.jpg,FS,4,num_2,32,num_8,0.683549549314,,,2017_Aug_22_1548,60.0037143909,MAFE4ImagesEEG,001,201274,
AFNE23.JPG,AFNE24.JPG,AFNE22.JPG,AFSA24.JPG,AFSA22.JPG,AFSA23.JPG,,,,,,,,,,,,,0,4,4,8,,,,,,,,,,,AFNE07.jpg,AFSA03.jpg,AFSA04.jpg,AFNE03.jpg,AFNE07.jpg,FN,3,num_8,32,num_6,0.633488496533,,,2017_Aug_22_1548,60.0037143909,MAFE4ImagesEEG,001,201274,
AFSA21.JPG,AFNE23.JPG,AFNE21.JPG,AFSA25.JPG,AFNE25.JPG,AFSA23.JPG,,,,,,,,,,,,,0,5,5,4,,,,,,,,,,,AFSA02.jpg,AFNE12.jpg,AFSA15.jpg,AFNE20.jpg,AFNE12.jpg,FN,3,num_6,32,num_8,0.950363285723,,,2017_Aug_22_1548,60.0037143909,MAFE4ImagesEEG,001,201274,
AMNE23.JPG,AMNE24.JPG,AMNE22.JPG,AMSA24.JPG,AMSA22.JPG,AMSA23.JPG,,,,,,,,,,,,,0,6,6,9,,,,,,,,,,,AFSA07.jpg,AFNE05.jpg,AFSA20.jpg,AFNE14.jpg,AFNE05.jpg,FN,3,num_6,32,num_2,1.41675601935,,,2017_Aug_22_1548,60.0037143909,MAFE4ImagesEEG,001,201274,
AMSA25.JPG,AMNE24.JPG,AMSA24.JPG,AMNE26.JPG,AMSA21.JPG,AMNE25.JPG,,,,,,,,,,,,,0,7,7,3,,,,,,,,,,,AFSA04.jpg,AFNE06.jpg,AFSA01.jpg,AFNE05.jpg,AFSA01.jpg,FS,4,num_2,32,num_8,0.600152415573,,,2017_Aug_22_1548,60.0037143909,MAFE4ImagesEEG,001,201274,
AFNE22.JPG,AFSA24.JPG,AFSA22.JPG,AFNE25.JPG,AFNE24.JPG,AFSA25.JPG,,,,,,,,,,,,,0,8,8,6,,,,,,,,,,,AFSA15.jpg,AFSA12.jpg,AFNE11.jpg,AFNE19.jpg,AFNE19.jpg,FN,3,num_4,32,num_6,0.466775696725,,,2017_Aug_22_1548,60.0037143909,MAFE4ImagesEEG,001,201274,
AMSA21.JPG,AMNE23.JPG,AMNE21.JPG,AMSA25.JPG,AMNE25.JPG,AMSA23.JPG,,,,,,,,,,,,,0,9,9,5,,,,,,,,,,,AFNE03.jpg,AFSA15.jpg,AFNE15.jpg,AFSA19.jpg,AFNE15.jpg,FN,3,num_2,32,num_8,0.750167827122,,,2017_Aug_22_1548,60.0037143909,MAFE4ImagesEEG,001,201274,
AFSA21.JPG,AFNE23.JPG,AFNE21.JPG,AFSA25.JPG,AFNE25.JPG,AFSA23.JPG,,,,,,,,,,,,,,,,,0,0,0,4,,,,,,,AMSA03.jpg,AMNE18.jpg,AMSA06.jpg,AMNE09.jpg,AMSA06.jpg,MS,2,num_2,32,num_4,1.03343134071,,,2017_Aug_22_1548,60.0037143909,MAFE4ImagesEEG,001,201274,
AMSA21.JPG,AMNE22.JPG,AMNE21.JPG,AMSA23.JPG,AMSA22.JPG,AMNE23.JPG,,,,,,,,,,,,,,,,,0,1,1,1,,,,,,,AMSA18.jpg,AMSA12.jpg,AMNE20.jpg,AMNE01.jpg,AMNE01.jpg,MN,1,num_4,32,num_2,1.516756244,,,2017_Aug_22_1548,60.0037143909,MAFE4ImagesEEG,001,201274,
AFSA21.JPG,AFNE22.JPG,AFNE21.JPG,AFSA23.JPG,AFSA22.JPG,AFNE23.JPG,,,,,,,,,,,,,,,,,0,2,2,0,,,,,,,AMSA20.jpg,AMNE13.jpg,AMSA08.jpg,AMNE16.jpg,AMNE16.jpg,MN,1,num_4,32,num_6,0.883423947613,,,2017_Aug_22_1548,60.0037143909,MAFE4ImagesEEG,001,201274,
AMNE23.JPG,AMNE24.JPG,AMNE22.JPG,AMSA24.JPG,AMSA22.JPG,AMSA23.JPG,,,,,,,,,,,,,,,,,0,3,3,9,,,,,,,AMSA18.jpg,AMNE09.jpg,AMSA16.jpg,AMNE10.jpg,AMSA18.jpg,MS,2,num_8,16,num_8,0.64993987733,,,2017_Aug_22_1548,60.0037143909,MAFE4ImagesEEG,001,201274,
AMNE22.JPG,AMSA24.JPG,AMSA22.JPG,AMNE25.JPG,AMNE24.JPG,AMSA25.JPG,,,,,,,,,,,,,,,,,0,4,4,7,,,,,,,AMNE03.jpg,AMNE19.jpg,AMSA11.jpg,AMSA06.jpg,AMNE19.jpg,MN,1,num_6,32,num_4,0.549957935,,,2017_Aug_22_1548,60.0037143909,MAFE4ImagesEEG,001,201274,
AFSA25.JPG,AFNE24.JPG,AFSA24.JPG,AFNE21.JPG,AFSA21.JPG,AFNE25.JPG,,,,,,,,,,,,,,,,,0,5,5,2,,,,,,,AMSA09.jpg,AMNE13.jpg,AMSA05.jpg,AMNE08.jpg,AMSA09.jpg,MS,2,num_8,32,num_6,0.633519929019,,,2017_Aug_22_1548,60.0037143909,MAFE4ImagesEEG,001,201274,
AFNE22.JPG,AFSA24.JPG,AFSA22.JPG,AFNE25.JPG,AFNE24.JPG,AFSA25.JPG,,,,,,,,,,,,,,,,,0,6,6,6,,,,,,,AMSA07.jpg,AMNE08.jpg,AMNE02.jpg,AMSA05.jpg,AMNE02.jpg,MN,1,num_2,16,num_2,1.00015267206,,,2017_Aug_22_1548,60.0037143909,MAFE4ImagesEEG,001,201274,
AMSA25.JPG,AMNE24.JPG,AMSA24.JPG,AMNE26.JPG,AMSA21.JPG,AMNE25.JPG,,,,,,,,,,,,,,,,,0,7,7,3,,,,,,,AMNE15.jpg,AMSA01.jpg,AMNE08.jpg,AMSA08.jpg,AMNE15.jpg,MN,1,num_8,16,num_8,0.916794989258,,,2017_Aug_22_1548,60.0037143909,MAFE4ImagesEEG,001,201274,
AFNE23.JPG,AFNE24.JPG,AFNE22.JPG,AFSA24.JPG,AFSA22.JPG,AFSA23.JPG,,,,,,,,,,,,,,,,,0,8,8,8,,,,,,,AMNE17.jpg,AMSA07.jpg,AMNE20.jpg,AMSA01.jpg,AMSA01.jpg,MS,2,num_4,16,num_4,0.583472026512,,,2017_Aug_22_1548,60.0037143909,MAFE4ImagesEEG,001,201274,
AMSA21.JPG,AMNE23.JPG,AMNE21.JPG,AMSA25.JPG,AMNE25.JPG,AMSA23.JPG,,,,,,,,,,,,,,,,,0,9,9,5,,,,,,,AMSA13.jpg,AMNE04.jpg,AMSA17.jpg,AMNE16.jpg,AMNE04.jpg,MN,1,num_6,16,num_6,1.1667650803,,,2017_Aug_22_1548,60.0037143909,MAFE4ImagesEEG,001,201274,
AMSA21.JPG,AMNE22.JPG,AMNE21.JPG,AMSA23.JPG,AMSA22.JPG,AMNE23.JPG,,,,,,,,,,,,,,,,,,,,,0,0,0,1,,,AFNE20.jpg,AFSA04.jpg,AFNE02.jpg,AFSA03.jpg,AFSA04.jpg,FS,4,num_6,32,num_8,0.583448291873,,,2017_Aug_22_1548,60.0037143909,MAFE4ImagesEEG,001,201274,
AFSA21.JPG,AFNE23.JPG,AFNE21.JPG,AFSA25.JPG,AFNE25.JPG,AFSA23.JPG,,,,,,,,,,,,,,,,,,,,,0,1,1,4,,,AFSA02.jpg,AFNE01.jpg,AFNE02.jpg,AFSA06.jpg,AFSA02.jpg,FS,4,num_8,16,num_8,0.750116187963,,,2017_Aug_22_1548,60.0037143909,MAFE4ImagesEEG,001,201274,
AFSA21.JPG,AFNE22.JPG,AFNE21.JPG,AFSA23.JPG,AFSA22.JPG,AFNE23.JPG,,,,,,,,,,,,,,,,,,,,,0,2,2,0,,,AFSA18.jpg,AFNE02.jpg,AFSA05.jpg,AFNE04.jpg,AFNE04.jpg,FN,3,num_4,32,num_2,0.650106982794,,,2017_Aug_22_1548,60.0037143909,MAFE4ImagesEEG,001,201274,
AMNE22.JPG,AMSA24.JPG,AMSA22.JPG,AMNE25.JPG,AMNE24.JPG,AMSA25.JPG,,,,,,,,,,,,,,,,,,,,,0,3,3,7,,,AFSA02.jpg,AFNE02.jpg,AFNE17.jpg,AFSA05.jpg,AFNE17.jpg,FN,3,num_2,32,num_4,1.68340425426,,,2017_Aug_22_1548,60.0037143909,MAFE4ImagesEEG,001,201274,
AMNE23.JPG,AMNE24.JPG,AMNE22.JPG,AMSA24.JPG,AMSA22.JPG,AMSA23.JPG,,,,,,,,,,,,,,,,,,,,,0,4,4,9,,,AFNE12.jpg,AFNE07.jpg,AFSA05.jpg,AFSA03.jpg,AFSA05.jpg,FS,4,num_2,32,num_6,0.700180544402,,,2017_Aug_22_1548,60.0037143909,MAFE4ImagesEEG,001,201274,
AMSA21.JPG,AMNE23.JPG,AMNE21.JPG,AMSA25.JPG,AMNE25.JPG,AMSA23.JPG,,,,,,,,,,,,,,,,,,,,,0,5,5,5,,,AFNE14.jpg,AFSA01.jpg,AFSA04.jpg,AFNE19.jpg,AFSA01.jpg,FS,4,num_6,32,num_8,1.13343701779,,,2017_Aug_22_1548,60.0037143909,MAFE4ImagesEEG,001,201274,
AMSA25.JPG,AMNE24.JPG,AMSA24.JPG,AMNE26.JPG,AMSA21.JPG,AMNE25.JPG,,,,,,,,,,,,,,,,,,,,,0,6,6,3,,,AFNE02.jpg,AFSA02.jpg,AFNE09.jpg,AFSA06.jpg,AFNE09.jpg,FN,3,num_2,32,num_6,0.833480927162,,,2017_Aug_22_1548,60.0037143909,MAFE4ImagesEEG,001,201274,
AFNE23.JPG,AFNE24.JPG,AFNE22.JPG,AFSA24.JPG,AFSA22.JPG,AFSA23.JPG,,,,,,,,,,,,,,,,,,,,,0,7,7,8,,,AFNE12.jpg,AFNE06.jpg,AFSA18.jpg,AFSA11.jpg,AFSA11.jpg,FS,4,num_4,32,num_6,0.966841929476,,,2017_Aug_22_1548,60.0037143909,MAFE4ImagesEEG,001,201274,
AFNE22.JPG,AFSA24.JPG,AFSA22.JPG,AFNE25.JPG,AFNE24.JPG,AFSA25.JPG,,,,,,,,,,,,,,,,,,,,,0,8,8,6,,,AFSA20.jpg,AFNE18.jpg,AFSA14.jpg,AFNE13.jpg,AFSA14.jpg,FS,4,num_2,16,num_2,0.816782897455,,,2017_Aug_22_1548,60.0037143909,MAFE4ImagesEEG,001,201274,
AFSA25.JPG,AFNE24.JPG,AFSA24.JPG,AFNE21.JPG,AFSA21.JPG,AFNE25.JPG,,,,,,,,,,,,,,,,,,,,,0,9,9,2,,,AFNE03.jpg,AFNE17.jpg,AFSA03.jpg,AFSA01.jpg,AFNE03.jpg,FN,3,num_8,32,num_4,0.700136282248,,,2017_Aug_22_1548,60.0037143909,MAFE4ImagesEEG,001,201274,
,,,,,,,,,,,,,,,,,,,,,,,,,,,,,,,,,,,,,,,,,,,space,3.59988074901,2017_Aug_22_1548,60.0037143909,MAFE4ImagesEEG,001,201274,
AFNE01.JPG,AFNE01.JPG,AFNE01.JPG,AFNE01.JPG,AFNE01.JPG,AFNE01.JPG,0,0,0,8,,,,,,,,,,,,,,,,,,,,,,,AMNE09.jpg,AMSA06.jpg,AMSA07.jpg,AMNE08.jpg,AMSA07.jpg,MS,2,num_2,16,num_2,1.05011429556,,,2017_Aug_22_1548,60.0037143909,MAFE4ImagesEEG,001,201274,
AFNE01.JPG,AFNE01.JPG,AFNE01.JPG,AFNE01.JPG,AFNE01.JPG,AFNE01.JPG,0,1,1,4,,,,,,,,,,,,,,,,,,,,,,,AMSA11.jpg,AMNE16.jpg,AMSA20.jpg,AMNE20.jpg,AMNE20.jpg,MN,1,num_4,32,num_6,0.63350260898,,,2017_Aug_22_1548,60.0037143909,MAFE4ImagesEEG,001,201274,
AFNE01.JPG,AFNE01.JPG,AFNE01.JPG,AFNE01.JPG,AFNE01.JPG,AFNE01.JPG,0,2,2,3,,,,,,,,,,,,,,,,,,,,,,,AMSA18.jpg,AMSA01.jpg,AMNE18.jpg,AMNE09.jpg,AMNE18.jpg,MN,1,num_2,32,num_6,0.800124960137,,,2017_Aug_22_1548,60.0037143909,MAFE4ImagesEEG,001,201274,
AFNE01.JPG,AFNE01.JPG,AFNE01.JPG,AFNE01.JPG,AFNE01.JPG,AFNE01.JPG,0,3,3,5,,,,,,,,,,,,,,,,,,,,,,,AMNE04.jpg,AMSA05.jpg,AMNE05.jpg,AMSA04.jpg,AMSA04.jpg,MS,2,num_4,32,num_8,0.500241677277,,,2017_Aug_22_1548,60.0037143909,MAFE4ImagesEEG,001,201274,
AFNE01.JPG,AFNE01.JPG,AFNE01.JPG,AFNE01.JPG,AFNE01.JPG,AFNE01.JPG,0,4,4,7,,,,,,,,,,,,,,,,,,,,,,,AMNE08.jpg,AMSA08.jpg,AMSA05.jpg,AMNE19.jpg,AMSA08.jpg,MS,2,num_6,32,num_4,0.550156793674,,,2017_Aug_22_1548,60.0037143909,MAFE4ImagesEEG,001,201274,
AFNE01.JPG,AFNE01.JPG,AFNE01.JPG,AFNE01.JPG,AFNE01.JPG,AFNE01.JPG,0,5,5,6,,,,,,,,,,,,,,,,,,,,,,,AMNE19.jpg,AMSA17.jpg,AMSA10.jpg,AMNE07.jpg,AMSA10.jpg,MS,2,num_2,16,num_2,0.866753180861,,,2017_Aug_22_1548,60.0037143909,MAFE4ImagesEEG,001,201274,
AFNE01.JPG,AFNE01.JPG,AFNE01.JPG,AFNE01.JPG,AFNE01.JPG,AFNE01.JPG,0,6,6,0,,,,,,,,,,,,,,,,,,,,,,,AMNE07.jpg,AMSA17.jpg,AMNE08.jpg,AMSA13.jpg,AMNE08.jpg,MN,1,num_2,32,num_8,0.950094505912,,,2017_Aug_22_1548,60.0037143909,MAFE4ImagesEEG,001,201274,
AFNE01.JPG,AFNE01.JPG,AFNE01.JPG,AFNE01.JPG,AFNE01.JPG,AFNE01.JPG,0,7,7,1,,,,,,,,,,,,,,,,,,,,,,,AMSA10.jpg,AMNE02.jpg,AMNE15.jpg,AMSA18.jpg,AMSA18.jpg,MS,2,num_4,32,num_8,0.866807065089,,,2017_Aug_22_1548,60.0037143909,MAFE4ImagesEEG,001,201274,
AFNE01.JPG,AFNE01.JPG,AFNE01.JPG,AFNE01.JPG,AFNE01.JPG,AFNE01.JPG,0,8,8,2,,,,,,,,,,,,,,,,,,,,,,,AMSA17.jpg,AMNE20.jpg,AMSA03.jpg,AMNE14.jpg,AMSA03.jpg,MS,2,num_2,32,num_6,0.766815821291,,,2017_Aug_22_1548,60.0037143909,MAFE4ImagesEEG,001,201274,
AFNE01.JPG,AFNE01.JPG,AFNE01.JPG,AFNE01.JPG,AFNE01.JPG,AFNE01.JPG,0,9,9,9,,,,,,,,,,,,,,,,,,,,,,,AMSA18.jpg,AMSA04.jpg,AMNE08.jpg,AMNE02.jpg,AMNE02.jpg,MN,1,num_4,16,num_4,0.616860388196,,,2017_Aug_22_1548,60.0037143909,MAFE4ImagesEEG,001,201274,
AFNE01.JPG,AFNE01.JPG,AFNE01.JPG,AFNE01.JPG,AFNE01.JPG,AFNE01.JPG,1,0,10,6,,,,,,,,,,,,,,,,,,,,,,,AMSA05.jpg,AMNE16.jpg,AMSA03.jpg,AMNE02.jpg,AMSA03.jpg,MS,2,num_2,32,num_8,0.750090528745,,,2017_Aug_22_1548,60.0037143909,MAFE4ImagesEEG,001,201274,
AFNE01.JPG,AFNE01.JPG,AFNE01.JPG,AFNE01.JPG,AFNE01.JPG,AFNE01.JPG,1,1,11,2,,,,,,,,,,,,,,,,,,,,,,,AMNE19.jpg,AMNE03.jpg,AMSA14.jpg,AMSA08.jpg,AMNE03.jpg,MN,1,num_6,16,num_6,0.650158300996,,,2017_Aug_22_1548,60.0037143909,MAFE4ImagesEEG,001,201274,
AFNE01.JPG,AFNE01.JPG,AFNE01.JPG,AFNE01.JPG,AFNE01.JPG,AFNE01.JPG,1,2,12,8,,,,,,,,,,,,,,,,,,,,,,,AMSA01.jpg,AMNE08.jpg,AMSA20.jpg,AMNE10.jpg,AMSA01.jpg,MS,2,num_8,32,num_2,0.866740351194,,,2017_Aug_22_1548,60.0037143909,MAFE4ImagesEEG,001,201274,
AFNE01.JPG,AFNE01.JPG,AFNE01.JPG,AFNE01.JPG,AFNE01.JPG,AFNE01.JPG,1,3,13,3,,,,,,,,,,,,,,,,,,,,,,,AMSA17.jpg,AMSA14.jpg,AMNE18.jpg,AMNE10.jpg,AMSA14.jpg,MS,2,num_6,16,num_6,0.666835803422,,,2017_Aug_22_1548,60.0037143909,MAFE4ImagesEEG,001,201274,
AFNE01.JPG,AFNE01.JPG,AFNE01.JPG,AFNE01.JPG,AFNE01.JPG,AFNE01.JPG,1,4,14,0,,,,,,,,,,,,,,,,,,,,,,,AMSA16.jpg,AMSA13.jpg,AMNE17.jpg,AMNE16.jpg,AMNE17.jpg,MN,1,num_2,32,num_8,0.633442951483,,,2017_Aug_22_1548,60.0037143909,MAFE4ImagesEEG,001,201274,
AFNE01.JPG,AFNE01.JPG,AFNE01.JPG,AFNE01.JPG,AFNE01.JPG,AFNE01.JPG,1,5,15,4,,,,,,,,,,,,,,,,,,,,,,,AMNE04.jpg,AMSA16.jpg,AMSA09.jpg,AMNE16.jpg,AMNE04.jpg,MN,1,num_8,32,num_4,1.10008201317,,,2017_Aug_22_1548,60.0037143909,MAFE4ImagesEEG,001,201274,
AFNE01.JPG,AFNE01.JPG,AFNE01.JPG,AFNE01.JPG,AFNE01.JPG,AFNE01.JPG,1,6,16,9,,,,,,,,,,,,,,,,,,,,,,,AMNE17.jpg,AMSA18.jpg,AMSA09.jpg,AMNE06.jpg,AMSA18.jpg,MS,2,num_6,32,num_8,1.25005155895,,,2017_Aug_22_1548,60.0037143909,MAFE4ImagesEEG,001,201274,
AFNE01.JPG,AFNE01.JPG,AFNE01.JPG,AFNE01.JPG,AFNE01.JPG,AFNE01.JPG,1,7,17,1,,,,,,,,,,,,,,,,,,,,,,,AMNE06.jpg,AMNE08.jpg,AMSA19.jpg,AMSA16.jpg,AMSA19.jpg,MS,2,num_2,32,num_6,0.800109564676,,,2017_Aug_22_1548,60.0037143909,MAFE4ImagesEEG,001,201274,
AFNE01.JPG,AFNE01.JPG,AFNE01.JPG,AFNE01.JPG,AFNE01.JPG,AFNE01.JPG,1,8,18,5,,,,,,,,,,,,,,,,,,,,,,,AMSA03.jpg,AMNE06.jpg,AMNE03.jpg,AMSA04.jpg,AMNE03.jpg,MN,1,num_2,16,num_2,0.76686713961,,,2017_Aug_22_1548,60.0037143909,MAFE4ImagesEEG,001,201274,
AFNE01.JPG,AFNE01.JPG,AFNE01.JPG,AFNE01.JPG,AFNE01.JPG,AFNE01.JPG,1,9,19,7,,,,,,,,,,,,,,,,,,,,,,,AMSA01.jpg,AMNE10.jpg,AMNE02.jpg,AMSA04.jpg,AMNE02.jpg,MN,1,num_2,32,num_4,2.06668499159,,,2017_Aug_22_1548,60.0037143909,MAFE4ImagesEEG,001,201274,
AFNE01.JPG,AFNE01.JPG,AFNE01.JPG,AFNE01.JPG,AFNE01.JPG,AFNE01.JPG,2,0,20,8,,,,,,,,,,,,,,,,,,,,,,,AMNE17.jpg,AMNE11.jpg,AMSA15.jpg,AMSA02.jpg,AMSA02.jpg,MS,2,num_4,32,num_6,0.58352687303,,,2017_Aug_22_1548,60.0037143909,MAFE4ImagesEEG,001,201274,
AFNE01.JPG,AFNE01.JPG,AFNE01.JPG,AFNE01.JPG,AFNE01.JPG,AFNE01.JPG,2,1,21,6,,,,,,,,,,,,,,,,,,,,,,,AMNE04.jpg,AMSA13.jpg,AMNE08.jpg,AMSA03.jpg,AMNE04.jpg,MN,1,num_8,16,num_8,1.13345562073,,,2017_Aug_22_1548,60.0037143909,MAFE4ImagesEEG,001,201274,
AFNE01.JPG,AFNE01.JPG,AFNE01.JPG,AFNE01.JPG,AFNE01.JPG,AFNE01.JPG,2,2,22,0,,,,,,,,,,,,,,,,,,,,,,,AMNE03.jpg,AMNE08.jpg,AMSA02.jpg,AMSA15.jpg,AMNE03.jpg,MN,1,num_8,32,num_2,0.533470952068,,,2017_Aug_22_1548,60.0037143909,MAFE4ImagesEEG,001,201274,
AFNE01.JPG,AFNE01.JPG,AFNE01.JPG,AFNE01.JPG,AFNE01.JPG,AFNE01.JPG,2,3,23,3,,,,,,,,,,,,,,,,,,,,,,,AMNE10.jpg,AMSA06.jpg,AMNE18.jpg,AMSA01.jpg,AMSA01.jpg,MS,2,num_4,32,num_8,1.04995039757,,,2017_Aug_22_1548,60.0037143909,MAFE4ImagesEEG,001,201274,
AFNE01.JPG,AFNE01.JPG,AFNE01.JPG,AFNE01.JPG,AFNE01.JPG,AFNE01.JPG,2,4,24,9,,,,,,,,,,,,,,,,,,,,,,,AMSA03.jpg,AMNE01.jpg,AMSA09.jpg,AMNE18.jpg,AMNE18.jpg,MN,1,num_4,32,num_6,0.550159038743,,,2017_Aug_22_1548,60.0037143909,MAFE4ImagesEEG,001,201274,
AFNE01.JPG,AFNE01.JPG,AFNE01.JPG,AFNE01.JPG,AFNE01.JPG,AFNE01.JPG,2,5,25,7,,,,,,,,,,,,,,,,,,,,,,,AMSA20.jpg,AMNE08.jpg,AMSA17.jpg,AMNE12.jpg,AMNE12.jpg,MN,1,num_4,32,num_8,0.850098771858,,,2017_Aug_22_1548,60.0037143909,MAFE4ImagesEEG,001,201274,
AFNE01.JPG,AFNE01.JPG,AFNE01.JPG,AFNE01.JPG,AFNE01.JPG,AFNE01.JPG,2,6,26,5,,,,,,,,,,,,,,,,,,,,,,,AMSA11.jpg,AMNE07.jpg,AMSA15.jpg,AMNE14.jpg,AMSA11.jpg,MS,2,num_8,32,num_2,0.850159391528,,,2017_Aug_22_1548,60.0037143909,MAFE4ImagesEEG,001,201274,
AFNE01.JPG,AFNE01.JPG,AFNE01.JPG,AFNE01.JPG,AFNE01.JPG,AFNE01.JPG,2,7,27,4,,,,,,,,,,,,,,,,,,,,,,,AMSA06.jpg,AMNE07.jpg,AMNE06.jpg,AMSA15.jpg,AMSA06.jpg,MS,2,num_8,32,num_6,0.750133187161,,,2017_Aug_22_1548,60.0037143909,MAFE4ImagesEEG,001,201274,
AFNE01.JPG,AFNE01.JPG,AFNE01.JPG,AFNE01.JPG,AFNE01.JPG,AFNE01.JPG,2,8,28,1,,,,,,,,,,,,,,,,,,,,,,,AMNE18.jpg,AMSA11.jpg,AMNE20.jpg,AMSA16.jpg,AMNE18.jpg,MN,1,num_8,16,num_8,0.600132529624,,,2017_Aug_22_1548,60.0037143909,MAFE4ImagesEEG,001,201274,
AFNE01.JPG,AFNE01.JPG,AFNE01.JPG,AFNE01.JPG,AFNE01.JPG,AFNE01.JPG,2,9,29,2,,,,,,,,,,,,,,,,,,,,,,,AMSA08.jpg,AMNE18.jpg,AMNE07.jpg,AMSA03.jpg,AMNE07.jpg,MN,1,num_2,32,num_6,0.916750727221,,,2017_Aug_22_1548,60.0037143909,MAFE4ImagesEEG,001,201274,
AFNE01.JPG,AFNE01.JPG,AFNE01.JPG,AFNE01.JPG,AFNE01.JPG,AFNE01.JPG,3,0,30,8,,,,,,,,,,,,,,,,,,,,,,,AMNE19.jpg,AMNE08.jpg,AMSA03.jpg,AMSA09.jpg,AMNE19.jpg,MN,1,num_8,16,num_8,0.666826501954,,,2017_Aug_22_1548,60.0037143909,MAFE4ImagesEEG,001,201274,
AFNE01.JPG,AFNE01.JPG,AFNE01.JPG,AFNE01.JPG,AFNE01.JPG,AFNE01.JPG,3,1,31,1,,,,,,,,,,,,,,,,,,,,,,,AMNE02.jpg,AMSA04.jpg,AMNE06.jpg,AMSA17.jpg,AMNE06.jpg,MN,1,num_2,32,num_4,0.983477735659,,,2017_Aug_22_1548,60.0037143909,MAFE4ImagesEEG,001,201274,
AFNE01.JPG,AFNE01.JPG,AFNE01.JPG,AFNE01.JPG,AFNE01.JPG,AFNE01.JPG,3,2,32,6,,,,,,,,,,,,,,,,,,,,,,,AMNE15.jpg,AMSA20.jpg,AMSA08.jpg,AMNE13.jpg,AMNE13.jpg,MN,1,num_4,32,num_6,0.700150394929,,,2017_Aug_22_1548,60.0037143909,MAFE4ImagesEEG,001,201274,
AFNE01.JPG,AFNE01.JPG,AFNE01.JPG,AFNE01.JPG,AFNE01.JPG,AFNE01.JPG,3,3,33,9,,,,,,,,,,,,,,,,,,,,,,,AMNE12.jpg,AMNE14.jpg,AMSA06.jpg,AMSA15.jpg,AMNE12.jpg,MN,1,num_8,16,num_8,1.20010501018,,,2017_Aug_22_1548,60.0037143909,MAFE4ImagesEEG,001,201274,
AFNE01.JPG,AFNE01.JPG,AFNE01.JPG,AFNE01.JPG,AFNE01.JPG,AFNE01.JPG,3,4,34,3,,,,,,,,,,,,,,,,,,,,,,,AMSA13.jpg,AMSA09.jpg,AMNE04.jpg,AMNE14.jpg,AMNE14.jpg,MN,1,num_4,32,num_6,0.733481664793,,,2017_Aug_22_1548,60.0037143909,MAFE4ImagesEEG,001,201274,
AFNE01.JPG,AFNE01.JPG,AFNE01.JPG,AFNE01.JPG,AFNE01.JPG,AFNE01.JPG,3,5,35,4,,,,,,,,,,,,,,,,,,,,,,,AMSA09.jpg,AMSA18.jpg,AMNE06.jpg,AMNE14.jpg,AMSA09.jpg,MS,2,num_8,32,num_4,0.75018739223,,,2017_Aug_22_1548,60.0037143909,MAFE4ImagesEEG,001,201274,
AFNE01.JPG,AFNE01.JPG,AFNE01.JPG,AFNE01.JPG,AFNE01.JPG,AFNE01.JPG,3,6,36,7,,,,,,,,,,,,,,,,,,,,,,,AMNE06.jpg,AMSA12.jpg,AMNE13.jpg,AMSA17.jpg,AMSA17.jpg,MS,2,num_4,16,num_4,0.916748161311,,,2017_Aug_22_1548,60.0037143909,MAFE4ImagesEEG,001,201274,
AFNE01.JPG,AFNE01.JPG,AFNE01.JPG,AFNE01.JPG,AFNE01.JPG,AFNE01.JPG,3,7,37,5,,,,,,,,,,,,,,,,,,,,,,,AMNE08.jpg,AMSA09.jpg,AMNE18.jpg,AMSA11.jpg,AMNE08.jpg,MN,1,num_8,32,num_6,4.58315449418,,,2017_Aug_22_1548,60.0037143909,MAFE4ImagesEEG,001,201274,
AFNE01.JPG,AFNE01.JPG,AFNE01.JPG,AFNE01.JPG,AFNE01.JPG,AFNE01.JPG,3,8,38,2,,,,,,,,,,,,,,,,,,,,,,,AMSA13.jpg,AMSA03.jpg,AMNE07.jpg,AMNE16.jpg,AMNE07.jpg,MN,1,num_2,16,num_2,0.96725985338,,,2017_Aug_22_1548,60.0037143909,MAFE4ImagesEEG,001,201274,
AFNE01.JPG,AFNE01.JPG,AFNE01.JPG,AFNE01.JPG,AFNE01.JPG,AFNE01.JPG,3,9,39,0,,,,,,,,,,,,,,,,,,,,,,,AMNE13.jpg,AMSA10.jpg,AMNE02.jpg,AMSA15.jpg,AMSA15.jpg,MS,2,num_4,32,num_8,0.616864878451,,,2017_Aug_22_1548,60.0037143909,MAFE4ImagesEEG,001,201274,
AFNE01.JPG,AFNE01.JPG,AFNE01.JPG,AFNE01.JPG,AFNE01.JPG,AFNE01.JPG,4,0,40,5,,,,,,,,,,,,,,,,,,,,,,,AMNE13.jpg,AMSA08.jpg,AMNE10.jpg,AMSA14.jpg,AMNE10.jpg,MN,1,num_2,32,num_6,1.53338788042,,,2017_Aug_22_1548,60.0037143909,MAFE4ImagesEEG,001,201274,
AFNE01.JPG,AFNE01.JPG,AFNE01.JPG,AFNE01.JPG,AFNE01.JPG,AFNE01.JPG,4,1,41,6,,,,,,,,,,,,,,,,,,,,,,,AMNE15.jpg,AMSA15.jpg,AMSA07.jpg,AMNE02.jpg,AMNE15.jpg,MN,1,num_8,16,num_8,0.933552676463,,,2017_Aug_22_1548,60.0037143909,MAFE4ImagesEEG,001,201274,
AFNE01.JPG,AFNE01.JPG,AFNE01.JPG,AFNE01.JPG,AFNE01.JPG,AFNE01.JPG,4,2,42,8,,,,,,,,,,,,,,,,,,,,,,,AMNE17.jpg,AMSA08.jpg,AMSA20.jpg,AMNE09.jpg,AMNE17.jpg,MN,1,num_8,32,num_6,0.916640072013,,,2017_Aug_22_1548,60.0037143909,MAFE4ImagesEEG,001,201274,
AFNE01.JPG,AFNE01.JPG,AFNE01.JPG,AFNE01.JPG,AFNE01.JPG,AFNE01.JPG,4,3,43,9,,,,,,,,,,,,,,,,,,,,,,,AMNE07.jpg,AMNE17.jpg,AMSA11.jpg,AMSA05.jpg,AMSA11.jpg,MS,2,num_2,32,num_8,0.833455267944,,,2017_Aug_22_1548,60.0037143909,MAFE4ImagesEEG,001,201274,
AFNE01.JPG,AFNE01.JPG,AFNE01.JPG,AFNE01.JPG,AFNE01.JPG,AFNE01.JPG,4,4,44,2,,,,,,,,,,,,,,,,,,,,,,,AMNE13.jpg,AMSA08.jpg,AMNE02.jpg,AMSA02.jpg,AMNE13.jpg,MN,1,num_8,16,num_8,0.983436360257,,,2017_Aug_22_1548,60.0037143909,MAFE4ImagesEEG,001,201274,
AFNE01.JPG,AFNE01.JPG,AFNE01.JPG,AFNE01.JPG,AFNE01.JPG,AFNE01.JPG,4,5,45,3,,,,,,,,,,,,,,,,,,,,,,,AMSA11.jpg,AMSA20.jpg,AMNE12.jpg,AMNE01.jpg,AMNE01.jpg,MN,1,num_4,32,num_8,1.6165665905,,,2017_Aug_22_1548,60.0037143909,MAFE4ImagesEEG,001,201274,
AFNE01.JPG,AFNE01.JPG,AFNE01.JPG,AFNE01.JPG,AFNE01.JPG,AFNE01.JPG,4,6,46,7,,,,,,,,,,,,,,,,,,,,,,,AMNE06.jpg,AMSA14.jpg,AMSA07.jpg,AMNE13.jpg,AMNE06.jpg,MN,1,num_8,32,num_2,0.933491735952,,,2017_Aug_22_1548,60.0037143909,MAFE4ImagesEEG,001,201274,
AFNE01.JPG,AFNE01.JPG,AFNE01.JPG,AFNE01.JPG,AFNE01.JPG,AFNE01.JPG,4,7,47,4,,,,,,,,,,,,,,,,,,,,,,,AMNE05.jpg,AMSA13.jpg,AMNE06.jpg,AMSA01.jpg,AMSA01.jpg,MS,2,num_4,16,num_4,0.566783298273,,,2017_Aug_22_1548,60.0037143909,MAFE4ImagesEEG,001,201274,
AFNE01.JPG,AFNE01.JPG,AFNE01.JPG,AFNE01.JPG,AFNE01.JPG,AFNE01.JPG,4,8,48,0,,,,,,,,,,,,,,,,,,,,,,,AMNE09.jpg,AMSA03.jpg,AMNE04.jpg,AMSA16.jpg,AMSA03.jpg,MS,2,num_6,32,num_8,0.850109997671,,,2017_Aug_22_1548,60.0037143909,MAFE4ImagesEEG,001,201274,
AFNE01.JPG,AFNE01.JPG,AFNE01.JPG,AFNE01.JPG,AFNE01.JPG,AFNE01.JPG,4,9,49,1,,,,,,,,,,,,,,,,,,,,,,,AMSA13.jpg,AMNE01.jpg,AMSA12.jpg,AMNE05.jpg,AMSA12.jpg,MS,2,num_2,32,num_4,1.26673034416,,,2017_Aug_22_1548,60.0037143909,MAFE4ImagesEEG,001,201274,
AFNE01.JPG,AFNE01.JPG,AFNE01.JPG,AFNE01.JPG,AFNE01.JPG,AFNE01.JPG,5,0,50,9,,,,,,,,,,,,,,,,,,,,,,,AMNE08.jpg,AMSA03.jpg,AMNE06.jpg,AMSA02.jpg,AMSA03.jpg,MS,2,num_6,16,num_6,0.683455251856,,,2017_Aug_22_1548,60.0037143909,MAFE4ImagesEEG,001,201274,
AFNE01.JPG,AFNE01.JPG,AFNE01.JPG,AFNE01.JPG,AFNE01.JPG,AFNE01.JPG,5,1,51,5,,,,,,,,,,,,,,,,,,,,,,,AMNE05.jpg,AMSA20.jpg,AMSA17.jpg,AMNE09.jpg,AMSA17.jpg,MS,2,num_2,32,num_8,0.866773708141,,,2017_Aug_22_1548,60.0037143909,MAFE4ImagesEEG,001,201274,
AFNE01.JPG,AFNE01.JPG,AFNE01.JPG,AFNE01.JPG,AFNE01.JPG,AFNE01.JPG,5,2,52,0,,,,,,,,,,,,,,,,,,,,,,,AMNE08.jpg,AMSA16.jpg,AMNE15.jpg,AMSA10.jpg,AMSA10.jpg,MS,2,num_4,32,num_2,0.850120582152,,,2017_Aug_22_1548,60.0037143909,MAFE4ImagesEEG,001,201274,
AFNE01.JPG,AFNE01.JPG,AFNE01.JPG,AFNE01.JPG,AFNE01.JPG,AFNE01.JPG,5,3,53,2,,,,,,,,,,,,,,,,,,,,,,,AMNE01.jpg,AMSA08.jpg,AMNE19.jpg,AMSA20.jpg,AMSA08.jpg,MS,2,num_6,16,num_6,1.70013756526,,,2017_Aug_22_1548,60.0037143909,MAFE4ImagesEEG,001,201274,
AFNE01.JPG,AFNE01.JPG,AFNE01.JPG,AFNE01.JPG,AFNE01.JPG,AFNE01.JPG,5,4,54,8,,,,,,,,,,,,,,,,,,,,,,,AMNE14.jpg,AMSA02.jpg,AMSA18.jpg,AMNE17.jpg,AMSA18.jpg,MS,2,num_2,32,num_8,0.683485401445,,,2017_Aug_22_1548,60.0037143909,MAFE4ImagesEEG,001,201274,
AFNE01.JPG,AFNE01.JPG,AFNE01.JPG,AFNE01.JPG,AFNE01.JPG,AFNE01.JPG,5,5,55,3,,,,,,,,,,,,,,,,,,,,,,,AMNE13.jpg,AMSA11.jpg,AMNE16.jpg,AMSA14.jpg,AMSA11.jpg,MS,2,num_6,32,num_2,1.00025659171,,,2017_Aug_22_1548,60.0037143909,MAFE4ImagesEEG,001,201274,
AFNE01.JPG,AFNE01.JPG,AFNE01.JPG,AFNE01.JPG,AFNE01.JPG,AFNE01.JPG,5,6,56,4,,,,,,,,,,,,,,,,,,,,,,,AMSA19.jpg,AMNE02.jpg,AMSA17.jpg,AMNE11.jpg,AMNE11.jpg,MN,1,num_4,32,num_8,0.683476741309,,,2017_Aug_22_1548,60.0037143909,MAFE4ImagesEEG,001,201274,
AFNE01.JPG,AFNE01.JPG,AFNE01.JPG,AFNE01.JPG,AFNE01.JPG,AFNE01.JPG,5,7,57,1,,,,,,,,,,,,,,,,,,,,,,,AMSA05.jpg,AMNE12.jpg,AMNE08.jpg,AMSA09.jpg,AMSA05.jpg,MS,2,num_8,32,num_6,1.88346628519,,,2017_Aug_22_1548,60.0037143909,MAFE4ImagesEEG,001,201274,
AFNE01.JPG,AFNE01.JPG,AFNE01.JPG,AFNE01.JPG,AFNE01.JPG,AFNE01.JPG,5,8,58,6,,,,,,,,,,,,,,,,,,,,,,,AMNE15.jpg,AMSA06.jpg,AMSA14.jpg,AMNE18.jpg,AMSA14.jpg,MS,2,num_2,32,num_8,0.983063660795,,,2017_Aug_22_1548,60.0037143909,MAFE4ImagesEEG,001,201274,
AFNE01.JPG,AFNE01.JPG,AFNE01.JPG,AFNE01.JPG,AFNE01.JPG,AFNE01.JPG,5,9,59,7,,,,,,,,,,,,,,,,,,,,,,,AMSA07.jpg,AMNE02.jpg,AMSA09.jpg,AMNE15.jpg,AMSA07.jpg,MS,2,num_8,32,num_6,1.16676475958,,,2017_Aug_22_1548,60.0037143909,MAFE4ImagesEEG,001,201274,
,,,,,,,,,,,,,,,,,,,,,,,,,,,,,,,,,,,,,,,,,,,space,1.56672267849,2017_Aug_22_1548,60.0037143909,MAFE4ImagesEEG,001,201274,
AFNE01.JPG,AFNE01.JPG,AFNE01.JPG,AFNE01.JPG,AFNE01.JPG,AFNE01.JPG,,,,,0,0,0,0,,,,,,,,,,,,,,,,,,,AFSA08.jpg,AFNE10.jpg,AFNE01.jpg,AFSA16.jpg,AFSA08.jpg,FS,4,num_8,32,num_6,0.600123228156,,,2017_Aug_22_1548,60.0037143909,MAFE4ImagesEEG,001,201274,
AFNE01.JPG,AFNE01.JPG,AFNE01.JPG,AFNE01.JPG,AFNE01.JPG,AFNE01.JPG,,,,,0,1,1,4,,,,,,,,,,,,,,,,,,,AFSA20.jpg,AFNE13.jpg,AFNE05.jpg,AFSA13.jpg,AFNE05.jpg,FN,3,num_2,32,num_8,0.416805734043,,,2017_Aug_22_1548,60.0037143909,MAFE4ImagesEEG,001,201274,
AFNE01.JPG,AFNE01.JPG,AFNE01.JPG,AFNE01.JPG,AFNE01.JPG,AFNE01.JPG,,,,,0,2,2,6,,,,,,,,,,,,,,,,,,,AFSA18.jpg,AFSA12.jpg,AFNE07.jpg,AFNE06.jpg,AFSA12.jpg,FS,4,num_6,32,num_2,1.03344160435,,,2017_Aug_22_1548,60.0037143909,MAFE4ImagesEEG,001,201274,
AFNE01.JPG,AFNE01.JPG,AFNE01.JPG,AFNE01.JPG,AFNE01.JPG,AFNE01.JPG,,,,,0,3,3,5,,,,,,,,,,,,,,,,,,,AFNE11.jpg,AFNE13.jpg,AFSA16.jpg,AFSA18.jpg,AFSA18.jpg,FS,4,num_4,32,num_6,0.516833542148,,,2017_Aug_22_1548,60.0037143909,MAFE4ImagesEEG,001,201274,
AFNE01.JPG,AFNE01.JPG,AFNE01.JPG,AFNE01.JPG,AFNE01.JPG,AFNE01.JPG,,,,,0,4,4,7,,,,,,,,,,,,,,,,,,,AFSA14.jpg,AFNE04.jpg,AFNE19.jpg,AFSA12.jpg,AFNE19.jpg,FN,3,num_2,32,num_8,0.483536912128,,,2017_Aug_22_1548,60.0037143909,MAFE4ImagesEEG,001,201274,
AFNE01.JPG,AFNE01.JPG,AFNE01.JPG,AFNE01.JPG,AFNE01.JPG,AFNE01.JPG,,,,,0,5,5,3,,,,,,,,,,,,,,,,,,,AFNE14.jpg,AFSA15.jpg,AFNE08.jpg,AFSA12.jpg,AFNE14.jpg,FN,3,num_8,32,num_4,0.566771751735,,,2017_Aug_22_1548,60.0037143909,MAFE4ImagesEEG,001,201274,
AFNE01.JPG,AFNE01.JPG,AFNE01.JPG,AFNE01.JPG,AFNE01.JPG,AFNE01.JPG,,,,,0,6,6,9,,,,,,,,,,,,,,,,,,,AFSA18.jpg,AFNE05.jpg,AFSA04.jpg,AFNE18.jpg,AFNE05.jpg,FN,3,num_6,16,num_6,0.866773066809,,,2017_Aug_22_1548,60.0037143909,MAFE4ImagesEEG,001,201274,
AFNE01.JPG,AFNE01.JPG,AFNE01.JPG,AFNE01.JPG,AFNE01.JPG,AFNE01.JPG,,,,,0,7,7,8,,,,,,,,,,,,,,,,,,,AFNE06.jpg,AFSA10.jpg,AFSA16.jpg,AFNE04.jpg,AFSA10.jpg,FS,4,num_6,32,num_8,0.483513177373,,,2017_Aug_22_1548,60.0037143909,MAFE4ImagesEEG,001,201274,
AFNE01.JPG,AFNE01.JPG,AFNE01.JPG,AFNE01.JPG,AFNE01.JPG,AFNE01.JPG,,,,,0,8,8,1,,,,,,,,,,,,,,,,,,,AFNE01.jpg,AFSA08.jpg,AFSA06.jpg,AFNE06.jpg,AFNE06.jpg,FN,3,num_4,32,num_6,1.26672296715,,,2017_Aug_22_1548,60.0037143909,MAFE4ImagesEEG,001,201274,
AFNE01.JPG,AFNE01.JPG,AFNE01.JPG,AFNE01.JPG,AFNE01.JPG,AFNE01.JPG,,,,,0,9,9,2,,,,,,,,,,,,,,,,,,,AFNE09.jpg,AFNE05.jpg,AFSA08.jpg,AFSA02.jpg,AFSA08.jpg,FS,4,num_2,32,num_8,0.766727297101,,,2017_Aug_22_1548,60.0037143909,MAFE4ImagesEEG,001,201274,
AFNE01.JPG,AFNE01.JPG,AFNE01.JPG,AFNE01.JPG,AFNE01.JPG,AFNE01.JPG,,,,,1,0,10,1,,,,,,,,,,,,,,,,,,,AFNE07.jpg,AFSA10.jpg,AFSA09.jpg,AFNE18.jpg,AFNE07.jpg,FN,3,num_8,32,num_6,0.483466028702,,,2017_Aug_22_1548,60.0037143909,MAFE4ImagesEEG,001,201274,
AFNE01.JPG,AFNE01.JPG,AFNE01.JPG,AFNE01.JPG,AFNE01.JPG,AFNE01.JPG,,,,,1,1,11,0,,,,,,,,,,,,,,,,,,,AFNE17.jpg,AFNE04.jpg,AFSA01.jpg,AFSA15.jpg,AFSA01.jpg,FS,4,num_2,16,num_2,1.00006767607,,,2017_Aug_22_1548,60.0037143909,MAFE4ImagesEEG,001,201274,
AFNE01.JPG,AFNE01.JPG,AFNE01.JPG,AFNE01.JPG,AFNE01.JPG,AFNE01.JPG,,,,,1,2,12,2,,,,,,,,,,,,,,,,,,,AFSA06.jpg,AFNE18.jpg,AFSA01.jpg,AFNE11.jpg,AFSA06.jpg,FS,4,num_8,16,num_8,0.750121319783,,,2017_Aug_22_1548,60.0037143909,MAFE4ImagesEEG,001,201274,
AFNE01.JPG,AFNE01.JPG,AFNE01.JPG,AFNE01.JPG,AFNE01.JPG,AFNE01.JPG,,,,,1,3,13,7,,,,,,,,,,,,,,,,,,,AFSA15.jpg,AFSA13.jpg,AFNE10.jpg,AFNE11.jpg,AFNE11.jpg,FN,3,num_4,32,num_6,0.75018995814,,,2017_Aug_22_1548,60.0037143909,MAFE4ImagesEEG,001,201274,
AFNE01.JPG,AFNE01.JPG,AFNE01.JPG,AFNE01.JPG,AFNE01.JPG,AFNE01.JPG,,,,,1,4,14,3,,,,,,,,,,,,,,,,,,,AFNE02.jpg,AFSA10.jpg,AFSA15.jpg,AFNE04.jpg,AFNE02.jpg,FN,3,num_8,32,num_2,0.816745691583,,,2017_Aug_22_1548,60.0037143909,MAFE4ImagesEEG,001,201274,
AFNE01.JPG,AFNE01.JPG,AFNE01.JPG,AFNE01.JPG,AFNE01.JPG,AFNE01.JPG,,,,,1,5,15,5,,,,,,,,,,,,,,,,,,,AFNE20.jpg,AFNE18.jpg,AFSA09.jpg,AFSA17.jpg,AFNE18.jpg,FN,3,num_6,32,num_8,0.749998155748,,,2017_Aug_22_1548,60.0037143909,MAFE4ImagesEEG,001,201274,
AFNE01.JPG,AFNE01.JPG,AFNE01.JPG,AFNE01.JPG,AFNE01.JPG,AFNE01.JPG,,,,,1,6,16,9,,,,,,,,,,,,,,,,,,,AFSA05.jpg,AFNE08.jpg,AFSA13.jpg,AFNE13.jpg,AFSA05.jpg,FS,4,num_8,32,num_6,0.900128712878,,,2017_Aug_22_1548,60.0037143909,MAFE4ImagesEEG,001,201274,
AFNE01.JPG,AFNE01.JPG,AFNE01.JPG,AFNE01.JPG,AFNE01.JPG,AFNE01.JPG,,,,,1,7,17,8,,,,,,,,,,,,,,,,,,,AFSA03.jpg,AFNE09.jpg,AFSA14.jpg,AFNE04.jpg,AFSA03.jpg,FS,4,num_8,16,num_8,0.650041872635,,,2017_Aug_22_1548,60.0037143909,MAFE4ImagesEEG,001,201274,
AFNE01.JPG,AFNE01.JPG,AFNE01.JPG,AFNE01.JPG,AFNE01.JPG,AFNE01.JPG,,,,,1,8,18,4,,,,,,,,,,,,,,,,,,,AFSA13.jpg,AFNE13.jpg,AFSA12.jpg,AFNE08.jpg,AFNE13.jpg,FN,3,num_6,16,num_6,0.733506361721,,,2017_Aug_22_1548,60.0037143909,MAFE4ImagesEEG,001,201274,
AFNE01.JPG,AFNE01.JPG,AFNE01.JPG,AFNE01.JPG,AFNE01.JPG,AFNE01.JPG,,,,,1,9,19,6,,,,,,,,,,,,,,,,,,,AFNE07.jpg,AFNE04.jpg,AFSA20.jpg,AFSA04.jpg,AFSA04.jpg,FS,4,num_4,16,num_4,0.816621886101,,,2017_Aug_22_1548,60.0037143909,MAFE4ImagesEEG,001,201274,
AFNE01.JPG,AFNE01.JPG,AFNE01.JPG,AFNE01.JPG,AFNE01.JPG,AFNE01.JPG,,,,,2,0,20,7,,,,,,,,,,,,,,,,,,,AFSA05.jpg,AFNE03.jpg,AFSA07.jpg,AFNE02.jpg,AFSA05.jpg,FS,4,num_8,16,num_8,0.716787163168,,,2017_Aug_22_1548,60.0037143909,MAFE4ImagesEEG,001,201274,
AFNE01.JPG,AFNE01.JPG,AFNE01.JPG,AFNE01.JPG,AFNE01.JPG,AFNE01.JPG,,,,,2,1,21,9,,,,,,,,,,,,,,,,,,,AFNE14.jpg,AFSA08.jpg,AFSA02.jpg,AFNE11.jpg,AFSA02.jpg,FS,4,num_2,16,num_2,0.683558530058,,,2017_Aug_22_1548,60.0037143909,MAFE4ImagesEEG,001,201274,
AFNE01.JPG,AFNE01.JPG,AFNE01.JPG,AFNE01.JPG,AFNE01.JPG,AFNE01.JPG,,,,,2,2,22,6,,,,,,,,,,,,,,,,,,,AFNE16.jpg,AFSA17.jpg,AFNE02.jpg,AFSA20.jpg,AFSA20.jpg,FS,4,num_4,32,num_8,0.850129242055,,,2017_Aug_22_1548,60.0037143909,MAFE4ImagesEEG,001,201274,
AFNE01.JPG,AFNE01.JPG,AFNE01.JPG,AFNE01.JPG,AFNE01.JPG,AFNE01.JPG,,,,,2,3,23,0,,,,,,,,,,,,,,,,,,,AFNE13.jpg,AFSA14.jpg,AFNE02.jpg,AFSA06.jpg,AFSA14.jpg,FS,4,num_6,16,num_6,0.85011352587,,,2017_Aug_22_1548,60.0037143909,MAFE4ImagesEEG,001,201274,
AFNE01.JPG,AFNE01.JPG,AFNE01.JPG,AFNE01.JPG,AFNE01.JPG,AFNE01.JPG,,,,,2,4,24,5,,,,,,,,,,,,,,,,,,,AFSA16.jpg,AFNE06.jpg,AFSA15.jpg,AFNE17.jpg,AFSA16.jpg,FS,4,num_8,16,num_8,0.950122089474,,,2017_Aug_22_1548,60.0037143909,MAFE4ImagesEEG,001,201274,
AFNE01.JPG,AFNE01.JPG,AFNE01.JPG,AFNE01.JPG,AFNE01.JPG,AFNE01.JPG,,,,,2,5,25,1,,,,,,,,,,,,,,,,,,,AFNE20.jpg,AFNE05.jpg,AFSA15.jpg,AFSA08.jpg,AFSA08.jpg,FS,4,num_4,32,num_6,0.933500395971,,,2017_Aug_22_1548,60.0037143909,MAFE4ImagesEEG,001,201274,
AFNE01.JPG,AFNE01.JPG,AFNE01.JPG,AFNE01.JPG,AFNE01.JPG,AFNE01.JPG,,,,,2,6,26,3,,,,,,,,,,,,,,,,,,,AFNE02.jpg,AFNE03.jpg,AFSA10.jpg,AFSA13.jpg,AFNE03.jpg,FN,3,num_6,16,num_6,1.00019116083,,,2017_Aug_22_1548,60.0037143909,MAFE4ImagesEEG,001,201274,
AFNE01.JPG,AFNE01.JPG,AFNE01.JPG,AFNE01.JPG,AFNE01.JPG,AFNE01.JPG,,,,,2,7,27,2,,,,,,,,,,,,,,,,,,,AFNE16.jpg,AFSA01.jpg,AFNE05.jpg,AFSA20.jpg,AFSA01.jpg,FS,4,num_6,16,num_6,1.00012412621,,,2017_Aug_22_1548,60.0037143909,MAFE4ImagesEEG,001,201274,
AFNE01.JPG,AFNE01.JPG,AFNE01.JPG,AFNE01.JPG,AFNE01.JPG,AFNE01.JPG,,,,,2,8,28,8,,,,,,,,,,,,,,,,,,,AFSA13.jpg,AFNE08.jpg,AFSA15.jpg,AFNE12.jpg,AFSA15.jpg,FS,4,num_2,32,num_8,0.416853203438,,,2017_Aug_22_1548,60.0037143909,MAFE4ImagesEEG,001,201274,
AFNE01.JPG,AFNE01.JPG,AFNE01.JPG,AFNE01.JPG,AFNE01.JPG,AFNE01.JPG,,,,,2,9,29,4,,,,,,,,,,,,,,,,,,,AFNE08.jpg,AFSA02.jpg,AFNE03.jpg,AFSA14.jpg,AFSA14.jpg,FS,4,num_4,32,num_6,1.01676346059,,,2017_Aug_22_1548,60.0037143909,MAFE4ImagesEEG,001,201274,
AFNE01.JPG,AFNE01.JPG,AFNE01.JPG,AFNE01.JPG,AFNE01.JPG,AFNE01.JPG,,,,,3,0,30,5,,,,,,,,,,,,,,,,,,,AFNE09.jpg,AFSA04.jpg,AFNE13.jpg,AFSA11.jpg,AFNE09.jpg,FN,3,num_8,16,num_8,0.533472555806,,,2017_Aug_22_1548,60.0037143909,MAFE4ImagesEEG,001,201274,
AFNE01.JPG,AFNE01.JPG,AFNE01.JPG,AFNE01.JPG,AFNE01.JPG,AFNE01.JPG,,,,,3,1,31,0,,,,,,,,,,,,,,,,,,,AFSA01.jpg,AFNE04.jpg,AFNE14.jpg,AFSA03.jpg,AFSA03.jpg,FS,4,num_4,16,num_4,0.683474175516,,,2017_Aug_22_1548,60.0037143909,MAFE4ImagesEEG,001,201274,
AFNE01.JPG,AFNE01.JPG,AFNE01.JPG,AFNE01.JPG,AFNE01.JPG,AFNE01.JPG,,,,,3,2,32,4,,,,,,,,,,,,,,,,,,,AFNE17.jpg,AFSA06.jpg,AFSA08.jpg,AFNE04.jpg,AFSA08.jpg,FS,4,num_2,32,num_6,0.666757863597,,,2017_Aug_22_1548,60.0037143909,MAFE4ImagesEEG,001,201274,
AFNE01.JPG,AFNE01.JPG,AFNE01.JPG,AFNE01.JPG,AFNE01.JPG,AFNE01.JPG,,,,,3,3,33,2,,,,,,,,,,,,,,,,,,,AFNE05.jpg,AFSA06.jpg,AFSA03.jpg,AFNE14.jpg,AFNE14.jpg,FN,3,num_4,32,num_8,1.01676634722,,,2017_Aug_22_1548,60.0037143909,MAFE4ImagesEEG,001,201274,
AFNE01.JPG,AFNE01.JPG,AFNE01.JPG,AFNE01.JPG,AFNE01.JPG,AFNE01.JPG,,,,,3,4,34,9,,,,,,,,,,,,,,,,,,,AFNE07.jpg,AFSA18.jpg,AFSA01.jpg,AFNE03.jpg,AFSA01.jpg,FS,4,num_2,32,num_6,1.15009431355,,,2017_Aug_22_1548,60.0037143909,MAFE4ImagesEEG,001,201274,
AFNE01.JPG,AFNE01.JPG,AFNE01.JPG,AFNE01.JPG,AFNE01.JPG,AFNE01.JPG,,,,,3,5,35,6,,,,,,,,,,,,,,,,,,,AFSA06.jpg,AFNE15.jpg,AFNE01.jpg,AFSA09.jpg,AFSA09.jpg,FS,4,num_4,16,num_4,0.849852443673,,,2017_Aug_22_1548,60.0037143909,MAFE4ImagesEEG,001,201274,
AFNE01.JPG,AFNE01.JPG,AFNE01.JPG,AFNE01.JPG,AFNE01.JPG,AFNE01.JPG,,,,,3,6,36,7,,,,,,,,,,,,,,,,,,,AFSA10.jpg,AFNE18.jpg,AFNE08.jpg,AFSA15.jpg,AFSA10.jpg,FS,4,num_8,16,num_8,1.03342043562,,,2017_Aug_22_1548,60.0037143909,MAFE4ImagesEEG,001,201274,
AFNE01.JPG,AFNE01.JPG,AFNE01.JPG,AFNE01.JPG,AFNE01.JPG,AFNE01.JPG,,,,,3,7,37,3,,,,,,,,,,,,,,,,,,,AFNE12.jpg,AFSA01.jpg,AFNE15.jpg,AFSA14.jpg,AFSA14.jpg,FS,4,num_4,32,num_2,1.2500801048,,,2017_Aug_22_1548,60.0037143909,MAFE4ImagesEEG,001,201274,
AFNE01.JPG,AFNE01.JPG,AFNE01.JPG,AFNE01.JPG,AFNE01.JPG,AFNE01.JPG,,,,,3,8,38,1,,,,,,,,,,,,,,,,,,,AFSA03.jpg,AFSA11.jpg,AFNE18.jpg,AFNE09.jpg,AFNE09.jpg,FN,3,num_4,32,num_8,0.683487646515,,,2017_Aug_22_1548,60.0037143909,MAFE4ImagesEEG,001,201274,
AFNE01.JPG,AFNE01.JPG,AFNE01.JPG,AFNE01.JPG,AFNE01.JPG,AFNE01.JPG,,,,,3,9,39,8,,,,,,,,,,,,,,,,,,,AFSA20.jpg,AFSA17.jpg,AFNE02.jpg,AFNE10.jpg,AFNE02.jpg,FN,3,num_2,32,num_6,0.583595511387,,,2017_Aug_22_1548,60.0037143909,MAFE4ImagesEEG,001,201274,
AFNE01.JPG,AFNE01.JPG,AFNE01.JPG,AFNE01.JPG,AFNE01.JPG,AFNE01.JPG,,,,,4,0,40,0,,,,,,,,,,,,,,,,,,,AFNE10.jpg,AFNE02.jpg,AFSA11.jpg,AFSA12.jpg,AFNE10.jpg,FN,3,num_8,16,num_8,1.21687969659,,,2017_Aug_22_1548,60.0037143909,MAFE4ImagesEEG,001,201274,
AFNE01.JPG,AFNE01.JPG,AFNE01.JPG,AFNE01.JPG,AFNE01.JPG,AFNE01.JPG,,,,,4,1,41,2,,,,,,,,,,,,,,,,,,,AFSA08.jpg,AFSA03.jpg,AFNE12.jpg,AFNE07.jpg,AFNE07.jpg,FN,3,num_4,32,num_8,0.816911834758,,,2017_Aug_22_1548,60.0037143909,MAFE4ImagesEEG,001,201274,
AFNE01.JPG,AFNE01.JPG,AFNE01.JPG,AFNE01.JPG,AFNE01.JPG,AFNE01.JPG,,,,,4,2,42,6,,,,,,,,,,,,,,,,,,,AFSA09.jpg,AFSA07.jpg,AFNE20.jpg,AFNE06.jpg,AFNE06.jpg,FN,3,num_4,32,num_6,0.583446688135,,,2017_Aug_22_1548,60.0037143909,MAFE4ImagesEEG,001,201274,
AFNE01.JPG,AFNE01.JPG,AFNE01.JPG,AFNE01.JPG,AFNE01.JPG,AFNE01.JPG,,,,,4,3,43,9,,,,,,,,,,,,,,,,,,,AFSA05.jpg,AFNE01.jpg,AFNE15.jpg,AFSA15.jpg,AFSA05.jpg,FS,4,num_8,16,num_8,0.98345913284,,,2017_Aug_22_1548,60.0037143909,MAFE4ImagesEEG,001,201274,
AFNE01.JPG,AFNE01.JPG,AFNE01.JPG,AFNE01.JPG,AFNE01.JPG,AFNE01.JPG,,,,,4,4,44,4,,,,,,,,,,,,,,,,,,,AFSA17.jpg,AFSA01.jpg,AFNE02.jpg,AFNE18.jpg,AFSA01.jpg,FS,4,num_6,32,num_2,0.750158204813,,,2017_Aug_22_1548,60.0037143909,MAFE4ImagesEEG,001,201274,
AFNE01.JPG,AFNE01.JPG,AFNE01.JPG,AFNE01.JPG,AFNE01.JPG,AFNE01.JPG,,,,,4,5,45,8,,,,,,,,,,,,,,,,,,,AFNE02.jpg,AFSA06.jpg,AFSA19.jpg,AFNE06.jpg,AFSA06.jpg,FS,4,num_6,16,num_6,0.416825619992,,,2017_Aug_22_1548,60.0037143909,MAFE4ImagesEEG,001,201274,
AFNE01.JPG,AFNE01.JPG,AFNE01.JPG,AFNE01.JPG,AFNE01.JPG,AFNE01.JPG,,,,,4,6,46,3,,,,,,,,,,,,,,,,,,,AFSA12.jpg,AFSA01.jpg,AFNE16.jpg,AFNE10.jpg,AFNE10.jpg,FN,3,num_4,32,num_8,0.9834161537,,,2017_Aug_22_1548,60.0037143909,MAFE4ImagesEEG,001,201274,
AFNE01.JPG,AFNE01.JPG,AFNE01.JPG,AFNE01.JPG,AFNE01.JPG,AFNE01.JPG,,,,,4,7,47,5,,,,,,,,,,,,,,,,,,,AFSA04.jpg,AFNE04.jpg,AFSA20.jpg,AFNE16.jpg,AFNE16.jpg,FN,3,num_4,32,num_2,1.11667259492,,,2017_Aug_22_1548,60.0037143909,MAFE4ImagesEEG,001,201274,
AFNE01.JPG,AFNE01.JPG,AFNE01.JPG,AFNE01.JPG,AFNE01.JPG,AFNE01.JPG,,,,,4,8,48,1,,,,,,,,,,,,,,,,,,,AFSA05.jpg,AFSA06.jpg,AFNE14.jpg,AFNE08.jpg,AFNE14.jpg,FN,3,num_2,32,num_6,0.583482931601,,,2017_Aug_22_1548,60.0037143909,MAFE4ImagesEEG,001,201274,
AFNE01.JPG,AFNE01.JPG,AFNE01.JPG,AFNE01.JPG,AFNE01.JPG,AFNE01.JPG,,,,,4,9,49,7,,,,,,,,,,,,,,,,,,,AFSA12.jpg,AFSA04.jpg,AFNE15.jpg,AFNE20.jpg,AFNE15.jpg,FN,3,num_2,32,num_8,0.766841480508,,,2017_Aug_22_1548,60.0037143909,MAFE4ImagesEEG,001,201274,
AFNE01.JPG,AFNE01.JPG,AFNE01.JPG,AFNE01.JPG,AFNE01.JPG,AFNE01.JPG,,,,,5,0,50,5,,,,,,,,,,,,,,,,,,,AFSA02.jpg,AFNE09.jpg,AFSA19.jpg,AFNE16.jpg,AFNE09.jpg,FN,3,num_6,32,num_8,0.850162919727,,,2017_Aug_22_1548,60.0037143909,MAFE4ImagesEEG,001,201274,
AFNE01.JPG,AFNE01.JPG,AFNE01.JPG,AFNE01.JPG,AFNE01.JPG,AFNE01.JPG,,,,,5,1,51,8,,,,,,,,,,,,,,,,,,,AFNE11.jpg,AFSA19.jpg,AFNE04.jpg,AFSA03.jpg,AFSA03.jpg,FS,4,num_4,32,num_6,0.683552756673,,,2017_Aug_22_1548,60.0037143909,MAFE4ImagesEEG,001,201274,
AFNE01.JPG,AFNE01.JPG,AFNE01.JPG,AFNE01.JPG,AFNE01.JPG,AFNE01.JPG,,,,,5,2,52,3,,,,,,,,,,,,,,,,,,,AFNE01.jpg,AFSA10.jpg,AFNE09.jpg,AFSA14.jpg,AFNE01.jpg,FN,3,num_8,16,num_8,0.716826934949,,,2017_Aug_22_1548,60.0037143909,MAFE4ImagesEEG,001,201274,
AFNE01.JPG,AFNE01.JPG,AFNE01.JPG,AFNE01.JPG,AFNE01.JPG,AFNE01.JPG,,,,,5,3,53,2,,,,,,,,,,,,,,,,,,,AFSA08.jpg,AFNE09.jpg,AFSA06.jpg,AFNE11.jpg,AFSA06.jpg,FS,4,num_2,32,num_8,0.966744103935,,,2017_Aug_22_1548,60.0037143909,MAFE4ImagesEEG,001,201274,
AFNE01.JPG,AFNE01.JPG,AFNE01.JPG,AFNE01.JPG,AFNE01.JPG,AFNE01.JPG,,,,,5,4,54,4,,,,,,,,,,,,,,,,,,,AFNE12.jpg,AFNE07.jpg,AFSA13.jpg,AFSA06.jpg,AFSA13.jpg,FS,4,num_2,16,num_2,0.533309940714,,,2017_Aug_22_1548,60.0037143909,MAFE4ImagesEEG,001,201274,
AFNE01.JPG,AFNE01.JPG,AFNE01.JPG,AFNE01.JPG,AFNE01.JPG,AFNE01.JPG,,,,,5,5,55,6,,,,,,,,,,,,,,,,,,,AFSA19.jpg,AFSA08.jpg,AFNE10.jpg,AFNE08.jpg,AFNE10.jpg,FN,3,num_2,32,num_6,0.433512103045,,,2017_Aug_22_1548,60.0037143909,MAFE4ImagesEEG,001,201274,
AFNE01.JPG,AFNE01.JPG,AFNE01.JPG,AFNE01.JPG,AFNE01.JPG,AFNE01.JPG,,,,,5,6,56,9,,,,,,,,,,,,,,,,,,,AFNE13.jpg,AFNE16.jpg,AFSA06.jpg,AFSA01.jpg,AFNE13.jpg,FN,3,num_8,16,num_8,0.483518629917,,,2017_Aug_22_1548,60.0037143909,MAFE4ImagesEEG,001,201274,
AFNE01.JPG,AFNE01.JPG,AFNE01.JPG,AFNE01.JPG,AFNE01.JPG,AFNE01.JPG,,,,,5,7,57,1,,,,,,,,,,,,,,,,,,,AFSA06.jpg,AFSA07.jpg,AFNE14.jpg,AFNE16.jpg,AFSA06.jpg,FS,4,num_8,32,num_6,0.50018458569,,,2017_Aug_22_1548,60.0037143909,MAFE4ImagesEEG,001,201274,
AFNE01.JPG,AFNE01.JPG,AFNE01.JPG,AFNE01.JPG,AFNE01.JPG,AFNE01.JPG,,,,,5,8,58,0,,,,,,,,,,,,,,,,,,,AFSA06.jpg,AFSA16.jpg,AFNE03.jpg,AFNE18.jpg,AFSA06.jpg,FS,4,num_8,32,num_6,2.04972395534,,,2017_Aug_22_1548,60.0037143909,MAFE4ImagesEEG,001,201274,
AFNE01.JPG,AFNE01.JPG,AFNE01.JPG,AFNE01.JPG,AFNE01.JPG,AFNE01.JPG,,,,,5,9,59,7,,,,,,,,,,,,,,,,,,,AFNE16.jpg,AFNE19.jpg,AFSA10.jpg,AFSA07.jpg,AFSA10.jpg,FS,4,num_2,32,num_8,0.783454193384,,,2017_Aug_22_1548,60.0037143909,MAFE4ImagesEEG,001,201274,
,,,,,,,,,,,,,,,,,,,,,,,,,,,,,,,,,,,,,,,,,,,space,2.51664109831,2017_Aug_22_1548,60.0037143909,MAFE4ImagesEEG,001,201274,
AFNE01.JPG,AFNE01.JPG,AFNE01.JPG,AFNE01.JPG,AFNE01.JPG,AFNE01.JPG,,,,,,,,,0,0,0,4,,,,,,,,,,,,,,,AMSA12.jpg,AMNE01.jpg,AMSA07.jpg,AMNE04.jpg,AMNE04.jpg,MN,1,num_4,32,num_2,1.0171146706,,,2017_Aug_22_1548,60.0037143909,MAFE4ImagesEEG,001,201274,
AFNE01.JPG,AFNE01.JPG,AFNE01.JPG,AFNE01.JPG,AFNE01.JPG,AFNE01.JPG,,,,,,,,,0,1,1,1,,,,,,,,,,,,,,,AMNE17.jpg,AMSA04.jpg,AMNE01.jpg,AMSA20.jpg,AMSA20.jpg,MS,2,num_4,32,num_6,0.516780940932,,,2017_Aug_22_1548,60.0037143909,MAFE4ImagesEEG,001,201274,
AFNE01.JPG,AFNE01.JPG,AFNE01.JPG,AFNE01.JPG,AFNE01.JPG,AFNE01.JPG,,,,,,,,,0,2,2,8,,,,,,,,,,,,,,,AMNE14.jpg,AMSA02.jpg,AMSA01.jpg,AMNE07.jpg,AMNE07.jpg,MN,1,num_4,32,num_8,0.55014781293,,,2017_Aug_22_1548,60.0037143909,MAFE4ImagesEEG,001,201274,
AFNE01.JPG,AFNE01.JPG,AFNE01.JPG,AFNE01.JPG,AFNE01.JPG,AFNE01.JPG,,,,,,,,,0,3,3,2,,,,,,,,,,,,,,,AMNE02.jpg,AMSA01.jpg,AMNE03.jpg,AMSA10.jpg,AMSA01.jpg,MS,2,num_6,32,num_2,0.550310428021,,,2017_Aug_22_1548,60.0037143909,MAFE4ImagesEEG,001,201274,
AFNE01.JPG,AFNE01.JPG,AFNE01.JPG,AFNE01.JPG,AFNE01.JPG,AFNE01.JPG,,,,,,,,,0,4,4,9,,,,,,,,,,,,,,,AMSA11.jpg,AMSA13.jpg,AMNE01.jpg,AMNE17.jpg,AMNE01.jpg,MN,1,num_2,32,num_6,0.73347685358,,,2017_Aug_22_1548,60.0037143909,MAFE4ImagesEEG,001,201274,
AFNE01.JPG,AFNE01.JPG,AFNE01.JPG,AFNE01.JPG,AFNE01.JPG,AFNE01.JPG,,,,,,,,,0,5,5,6,,,,,,,,,,,,,,,AMSA17.jpg,AMSA09.jpg,AMNE15.jpg,AMNE20.jpg,AMNE20.jpg,MN,1,num_4,32,num_8,0.433489009738,,,2017_Aug_22_1548,60.0037143909,MAFE4ImagesEEG,001,201274,
AFNE01.JPG,AFNE01.JPG,AFNE01.JPG,AFNE01.JPG,AFNE01.JPG,AFNE01.JPG,,,,,,,,,0,6,6,3,,,,,,,,,,,,,,,AMSA10.jpg,AMNE13.jpg,AMNE10.jpg,AMSA14.jpg,AMSA10.jpg,MS,2,num_8,32,num_4,0.566771110171,,,2017_Aug_22_1548,60.0037143909,MAFE4ImagesEEG,001,201274,
AFNE01.JPG,AFNE01.JPG,AFNE01.JPG,AFNE01.JPG,AFNE01.JPG,AFNE01.JPG,,,,,,,,,0,7,7,5,,,,,,,,,,,,,,,AMNE06.jpg,AMNE11.jpg,AMSA16.jpg,AMSA02.jpg,AMNE11.jpg,MN,1,num_6,32,num_8,0.95012786286,,,2017_Aug_22_1548,60.0037143909,MAFE4ImagesEEG,001,201274,
AFNE01.JPG,AFNE01.JPG,AFNE01.JPG,AFNE01.JPG,AFNE01.JPG,AFNE01.JPG,,,,,,,,,0,8,8,0,,,,,,,,,,,,,,,AMNE14.jpg,AMSA10.jpg,AMSA17.jpg,AMNE12.jpg,AMNE14.jpg,MN,1,num_8,32,num_6,0.966756612761,,,2017_Aug_22_1548,60.0037143909,MAFE4ImagesEEG,001,201274,
AFNE01.JPG,AFNE01.JPG,AFNE01.JPG,AFNE01.JPG,AFNE01.JPG,AFNE01.JPG,,,,,,,,,0,9,9,7,,,,,,,,,,,,,,,AMNE15.jpg,AMNE14.jpg,AMSA20.jpg,AMSA08.jpg,AMSA20.jpg,MS,2,num_2,16,num_2,0.766515288153,,,2017_Aug_22_1548,60.0037143909,MAFE4ImagesEEG,001,201274,
AFNE01.JPG,AFNE01.JPG,AFNE01.JPG,AFNE01.JPG,AFNE01.JPG,AFNE01.JPG,,,,,,,,,1,0,10,5,,,,,,,,,,,,,,,AMNE15.jpg,AMSA15.jpg,AMNE20.jpg,AMSA11.jpg,AMNE20.jpg,MN,1,num_2,32,num_8,0.600164282951,,,2017_Aug_22_1548,60.0037143909,MAFE4ImagesEEG,001,201274,
AFNE01.JPG,AFNE01.JPG,AFNE01.JPG,AFNE01.JPG,AFNE01.JPG,AFNE01.JPG,,,,,,,,,1,1,11,3,,,,,,,,,,,,,,,AMNE16.jpg,AMSA09.jpg,AMNE02.jpg,AMSA12.jpg,AMNE02.jpg,MN,1,num_2,16,num_2,1.31681160361,,,2017_Aug_22_1548,60.0037143909,MAFE4ImagesEEG,001,201274,
AFNE01.JPG,AFNE01.JPG,AFNE01.JPG,AFNE01.JPG,AFNE01.JPG,AFNE01.JPG,,,,,,,,,1,2,12,7,,,,,,,,,,,,,,,AMNE17.jpg,AMSA11.jpg,AMSA18.jpg,AMNE01.jpg,AMSA18.jpg,MS,2,num_2,32,num_8,0.900105619687,,,2017_Aug_22_1548,60.0037143909,MAFE4ImagesEEG,001,201274,
AFNE01.JPG,AFNE01.JPG,AFNE01.JPG,AFNE01.JPG,AFNE01.JPG,AFNE01.JPG,,,,,,,,,1,3,13,8,,,,,,,,,,,,,,,AMSA06.jpg,AMNE14.jpg,AMSA12.jpg,AMNE06.jpg,AMSA12.jpg,MS,2,num_2,32,num_6,0.716755730682,,,2017_Aug_22_1548,60.0037143909,MAFE4ImagesEEG,001,201274,
AFNE01.JPG,AFNE01.JPG,AFNE01.JPG,AFNE01.JPG,AFNE01.JPG,AFNE01.JPG,,,,,,,,,1,4,14,9,,,,,,,,,,,,,,,AMNE13.jpg,AMSA04.jpg,AMSA16.jpg,AMNE11.jpg,AMNE11.jpg,MN,1,num_4,32,num_8,0.933311159606,,,2017_Aug_22_1548,60.0037143909,MAFE4ImagesEEG,001,201274,
AFNE01.JPG,AFNE01.JPG,AFNE01.JPG,AFNE01.JPG,AFNE01.JPG,AFNE01.JPG,,,,,,,,,1,5,15,2,,,,,,,,,,,,,,,AMNE03.jpg,AMSA16.jpg,AMSA07.jpg,AMNE05.jpg,AMSA07.jpg,MS,2,num_2,16,num_2,0.950072695618,,,2017_Aug_22_1548,60.0037143909,MAFE4ImagesEEG,001,201274,
AFNE01.JPG,AFNE01.JPG,AFNE01.JPG,AFNE01.JPG,AFNE01.JPG,AFNE01.JPG,,,,,,,,,1,6,16,4,,,,,,,,,,,,,,,AMNE11.jpg,AMNE14.jpg,AMSA04.jpg,AMSA15.jpg,AMNE14.jpg,MN,1,num_6,16,num_6,1.0001080893,,,2017_Aug_22_1548,60.0037143909,MAFE4ImagesEEG,001,201274,
AFNE01.JPG,AFNE01.JPG,AFNE01.JPG,AFNE01.JPG,AFNE01.JPG,AFNE01.JPG,,,,,,,,,1,7,17,1,,,,,,,,,,,,,,,AMSA13.jpg,AMSA07.jpg,AMNE07.jpg,AMNE17.jpg,AMNE17.jpg,MN,1,num_4,32,num_8,1.15013248159,,,2017_Aug_22_1548,60.0037143909,MAFE4ImagesEEG,001,201274,
AFNE01.JPG,AFNE01.JPG,AFNE01.JPG,AFNE01.JPG,AFNE01.JPG,AFNE01.JPG,,,,,,,,,1,8,18,6,,,,,,,,,,,,,,,AMNE02.jpg,AMSA11.jpg,AMSA17.jpg,AMNE01.jpg,AMNE01.jpg,MN,1,num_4,16,num_4,1.63338361471,,,2017_Aug_22_1548,60.0037143909,MAFE4ImagesEEG,001,201274,
AFNE01.JPG,AFNE01.JPG,AFNE01.JPG,AFNE01.JPG,AFNE01.JPG,AFNE01.JPG,,,,,,,,,1,9,19,0,,,,,,,,,,,,,,,AMNE07.jpg,AMNE13.jpg,AMSA18.jpg,AMSA05.jpg,AMSA18.jpg,MS,2,num_2,32,num_6,1.01676923386,,,2017_Aug_22_1548,60.0037143909,MAFE4ImagesEEG,001,201274,
AFNE01.JPG,AFNE01.JPG,AFNE01.JPG,AFNE01.JPG,AFNE01.JPG,AFNE01.JPG,,,,,,,,,2,0,20,4,,,,,,,,,,,,,,,AMSA02.jpg,AMNE01.jpg,AMSA08.jpg,AMNE15.jpg,AMNE15.jpg,MN,1,num_4,32,num_8,1.59977747069,,,2017_Aug_22_1548,60.0037143909,MAFE4ImagesEEG,001,201274,
AFNE01.JPG,AFNE01.JPG,AFNE01.JPG,AFNE01.JPG,AFNE01.JPG,AFNE01.JPG,,,,,,,,,2,1,21,9,,,,,,,,,,,,,,,AMNE14.jpg,AMNE15.jpg,AMSA15.jpg,AMSA19.jpg,AMSA15.jpg,MS,2,num_2,32,num_6,1.9333634401,,,2017_Aug_22_1548,60.0037143909,MAFE4ImagesEEG,001,201274,
AFNE01.JPG,AFNE01.JPG,AFNE01.JPG,AFNE01.JPG,AFNE01.JPG,AFNE01.JPG,,,,,,,,,2,2,22,2,,,,,,,,,,,,,,,AMSA01.jpg,AMNE09.jpg,AMNE14.jpg,AMSA10.jpg,AMNE09.jpg,MN,1,num_6,16,num_6,3.94988955336,,,2017_Aug_22_1548,60.0037143909,MAFE4ImagesEEG,001,201274,
AFNE01.JPG,AFNE01.JPG,AFNE01.JPG,AFNE01.JPG,AFNE01.JPG,AFNE01.JPG,,,,,,,,,2,3,23,7,,,,,,,,,,,,,,,AMNE07.jpg,AMSA17.jpg,AMSA11.jpg,AMNE04.jpg,AMNE04.jpg,MN,1,num_4,32,num_8,0.733540039393,,,2017_Aug_22_1548,60.0037143909,MAFE4ImagesEEG,001,201274,
AFNE01.JPG,AFNE01.JPG,AFNE01.JPG,AFNE01.JPG,AFNE01.JPG,AFNE01.JPG,,,,,,,,,2,4,24,0,,,,,,,,,,,,,,,AMSA06.jpg,AMNE15.jpg,AMSA02.jpg,AMNE11.jpg,AMSA02.jpg,MS,2,num_2,16,num_2,0.800801721052,,,2017_Aug_22_1548,60.0037143909,MAFE4ImagesEEG,001,201274,
AFNE01.JPG,AFNE01.JPG,AFNE01.JPG,AFNE01.JPG,AFNE01.JPG,AFNE01.JPG,,,,,,,,,2,5,25,6,,,,,,,,,,,,,,,AMSA17.jpg,AMNE20.jpg,AMNE14.jpg,AMSA16.jpg,AMNE20.jpg,MN,1,num_6,32,num_8,0.883516962174,,,2017_Aug_22_1548,60.0037143909,MAFE4ImagesEEG,001,201274,
AFNE01.JPG,AFNE01.JPG,AFNE01.JPG,AFNE01.JPG,AFNE01.JPG,AFNE01.JPG,,,,,,,,,2,6,26,3,,,,,,,,,,,,,,,AMNE02.jpg,AMSA13.jpg,AMNE14.jpg,AMSA18.jpg,AMSA13.jpg,MS,2,num_6,16,num_6,0.883464040118,,,2017_Aug_22_1548,60.0037143909,MAFE4ImagesEEG,001,201274,
AFNE01.JPG,AFNE01.JPG,AFNE01.JPG,AFNE01.JPG,AFNE01.JPG,AFNE01.JPG,,,,,,,,,2,7,27,1,,,,,,,,,,,,,,,AMSA20.jpg,AMSA17.jpg,AMNE08.jpg,AMNE06.jpg,AMSA20.jpg,MS,2,num_8,32,num_4,0.70016739401,,,2017_Aug_22_1548,60.0037143909,MAFE4ImagesEEG,001,201274,
AFNE01.JPG,AFNE01.JPG,AFNE01.JPG,AFNE01.JPG,AFNE01.JPG,AFNE01.JPG,,,,,,,,,2,8,28,5,,,,,,,,,,,,,,,AMNE10.jpg,AMSA07.jpg,AMNE01.jpg,AMSA06.jpg,AMSA06.jpg,MS,2,num_4,32,num_2,0.566800939036,,,2017_Aug_22_1548,60.0037143909,MAFE4ImagesEEG,001,201274,
AFNE01.JPG,AFNE01.JPG,AFNE01.JPG,AFNE01.JPG,AFNE01.JPG,AFNE01.JPG,,,,,,,,,2,9,29,8,,,,,,,,,,,,,,,AMSA20.jpg,AMNE19.jpg,AMSA07.jpg,AMNE11.jpg,AMNE11.jpg,MN,1,num_4,32,num_6,0.500168869505,,,2017_Aug_22_1548,60.0037143909,MAFE4ImagesEEG,001,201274,
AFNE01.JPG,AFNE01.JPG,AFNE01.JPG,AFNE01.JPG,AFNE01.JPG,AFNE01.JPG,,,,,,,,,3,0,30,6,,,,,,,,,,,,,,,AMNE07.jpg,AMSA06.jpg,AMSA18.jpg,AMNE02.jpg,AMNE07.jpg,MN,1,num_8,32,num_6,0.766766427434,,,2017_Aug_22_1548,60.0037143909,MAFE4ImagesEEG,001,201274,
AFNE01.JPG,AFNE01.JPG,AFNE01.JPG,AFNE01.JPG,AFNE01.JPG,AFNE01.JPG,,,,,,,,,3,1,31,4,,,,,,,,,,,,,,,AMSA01.jpg,AMNE18.jpg,AMNE08.jpg,AMSA09.jpg,AMSA09.jpg,MS,2,num_4,16,num_4,1.03341851116,,,2017_Aug_22_1548,60.0037143909,MAFE4ImagesEEG,001,201274,
AFNE01.JPG,AFNE01.JPG,AFNE01.JPG,AFNE01.JPG,AFNE01.JPG,AFNE01.JPG,,,,,,,,,3,2,32,1,,,,,,,,,,,,,,,AMSA03.jpg,AMNE05.jpg,AMSA20.jpg,AMNE03.jpg,AMSA20.jpg,MS,2,num_2,32,num_8,0.533461329876,,,2017_Aug_22_1548,60.0037143909,MAFE4ImagesEEG,001,201274,
AFNE01.JPG,AFNE01.JPG,AFNE01.JPG,AFNE01.JPG,AFNE01.JPG,AFNE01.JPG,,,,,,,,,3,3,33,3,,,,,,,,,,,,,,,AMSA12.jpg,AMNE09.jpg,AMSA18.jpg,AMNE07.jpg,AMNE09.jpg,MN,1,num_6,16,num_6,0.833412609529,,,2017_Aug_22_1548,60.0037143909,MAFE4ImagesEEG,001,201274,
AFNE01.JPG,AFNE01.JPG,AFNE01.JPG,AFNE01.JPG,AFNE01.JPG,AFNE01.JPG,,,,,,,,,3,4,34,9,,,,,,,,,,,,,,,AMSA19.jpg,AMSA11.jpg,AMNE15.jpg,AMNE04.jpg,AMSA19.jpg,MS,2,num_8,32,num_6,1.38345169171,,,2017_Aug_22_1548,60.0037143909,MAFE4ImagesEEG,001,201274,
AFNE01.JPG,AFNE01.JPG,AFNE01.JPG,AFNE01.JPG,AFNE01.JPG,AFNE01.JPG,,,,,,,,,3,5,35,7,,,,,,,,,,,,,,,AMSA08.jpg,AMNE16.jpg,AMSA10.jpg,AMNE04.jpg,AMNE16.jpg,MN,1,num_6,32,num_2,1.01670829335,,,2017_Aug_22_1548,60.0037143909,MAFE4ImagesEEG,001,201274,
AFNE01.JPG,AFNE01.JPG,AFNE01.JPG,AFNE01.JPG,AFNE01.JPG,AFNE01.JPG,,,,,,,,,3,6,36,2,,,,,,,,,,,,,,,AMSA08.jpg,AMNE17.jpg,AMNE18.jpg,AMSA04.jpg,AMSA08.jpg,MS,2,num_8,16,num_8,0.700111906044,,,2017_Aug_22_1548,60.0037143909,MAFE4ImagesEEG,001,201274,
AFNE01.JPG,AFNE01.JPG,AFNE01.JPG,AFNE01.JPG,AFNE01.JPG,AFNE01.JPG,,,,,,,,,3,7,37,8,,,,,,,,,,,,,,,AMNE01.jpg,AMNE10.jpg,AMSA04.jpg,AMSA02.jpg,AMNE10.jpg,MN,1,num_6,16,num_6,0.400130797643,,,2017_Aug_22_1548,60.0037143909,MAFE4ImagesEEG,001,201274,
AFNE01.JPG,AFNE01.JPG,AFNE01.JPG,AFNE01.JPG,AFNE01.JPG,AFNE01.JPG,,,,,,,,,3,8,38,0,,,,,,,,,,,,,,,AMNE01.jpg,AMNE17.jpg,AMSA13.jpg,AMSA05.jpg,AMNE17.jpg,MN,1,num_6,32,num_8,0.500148021383,,,2017_Aug_22_1548,60.0037143909,MAFE4ImagesEEG,001,201274,
AFNE01.JPG,AFNE01.JPG,AFNE01.JPG,AFNE01.JPG,AFNE01.JPG,AFNE01.JPG,,,,,,,,,3,9,39,5,,,,,,,,,,,,,,,AMNE16.jpg,AMNE04.jpg,AMSA13.jpg,AMSA20.jpg,AMSA13.jpg,MS,2,num_2,32,num_6,1.01675961167,,,2017_Aug_22_1548,60.0037143909,MAFE4ImagesEEG,001,201274,
AFNE01.JPG,AFNE01.JPG,AFNE01.JPG,AFNE01.JPG,AFNE01.JPG,AFNE01.JPG,,,,,,,,,4,0,40,9,,,,,,,,,,,,,,,AMSA15.jpg,AMSA18.jpg,AMNE10.jpg,AMNE11.jpg,AMNE10.jpg,MN,1,num_2,32,num_8,0.666649774415,,,2017_Aug_22_1548,60.0037143909,MAFE4ImagesEEG,001,201274,
AFNE01.JPG,AFNE01.JPG,AFNE01.JPG,AFNE01.JPG,AFNE01.JPG,AFNE01.JPG,,,,,,,,,4,1,41,4,,,,,,,,,,,,,,,AMSA02.jpg,AMNE15.jpg,AMSA12.jpg,AMNE14.jpg,AMNE15.jpg,MN,1,num_6,16,num_6,0.650126227061,,,2017_Aug_22_1548,60.0037143909,MAFE4ImagesEEG,001,201274,
AFNE01.JPG,AFNE01.JPG,AFNE01.JPG,AFNE01.JPG,AFNE01.JPG,AFNE01.JPG,,,,,,,,,4,2,42,2,,,,,,,,,,,,,,,AMNE11.jpg,AMNE04.jpg,AMSA19.jpg,AMSA10.jpg,AMNE04.jpg,MN,1,num_6,32,num_2,1.98304890667,,,2017_Aug_22_1548,60.0037143909,MAFE4ImagesEEG,001,201274,
AFNE01.JPG,AFNE01.JPG,AFNE01.JPG,AFNE01.JPG,AFNE01.JPG,AFNE01.JPG,,,,,,,,,4,3,43,3,,,,,,,,,,,,,,,AMSA14.jpg,AMNE14.jpg,AMNE04.jpg,AMSA10.jpg,AMNE04.jpg,MN,1,num_2,32,num_4,0.700156809646,,,2017_Aug_22_1548,60.0037143909,MAFE4ImagesEEG,001,201274,
AFNE01.JPG,AFNE01.JPG,AFNE01.JPG,AFNE01.JPG,AFNE01.JPG,AFNE01.JPG,,,,,,,,,4,4,44,6,,,,,,,,,,,,,,,AMNE08.jpg,AMSA18.jpg,AMSA10.jpg,AMNE13.jpg,AMSA18.jpg,MS,2,num_6,16,num_6,0.666817200487,,,2017_Aug_22_1548,60.0037143909,MAFE4ImagesEEG,001,201274,
AFNE01.JPG,AFNE01.JPG,AFNE01.JPG,AFNE01.JPG,AFNE01.JPG,AFNE01.JPG,,,,,,,,,4,5,45,0,,,,,,,,,,,,,,,AMSA10.jpg,AMNE18.jpg,AMNE17.jpg,AMSA16.jpg,AMSA16.jpg,MS,2,num_4,32,num_8,0.800106036593,,,2017_Aug_22_1548,60.0037143909,MAFE4ImagesEEG,001,201274,
AFNE01.JPG,AFNE01.JPG,AFNE01.JPG,AFNE01.JPG,AFNE01.JPG,AFNE01.JPG,,,,,,,,,4,6,46,7,,,,,,,,,,,,,,,AMNE17.jpg,AMSA01.jpg,AMNE18.jpg,AMSA18.jpg,AMNE17.jpg,MN,1,num_8,32,num_6,0.649984139367,,,2017_Aug_22_1548,60.0037143909,MAFE4ImagesEEG,001,201274,
AFNE01.JPG,AFNE01.JPG,AFNE01.JPG,AFNE01.JPG,AFNE01.JPG,AFNE01.JPG,,,,,,,,,4,7,47,1,,,,,,,,,,,,,,,AMNE10.jpg,AMNE20.jpg,AMSA19.jpg,AMSA18.jpg,AMNE10.jpg,MN,1,num_8,16,num_8,0.683532229275,,,2017_Aug_22_1548,60.0037143909,MAFE4ImagesEEG,001,201274,
AFNE01.JPG,AFNE01.JPG,AFNE01.JPG,AFNE01.JPG,AFNE01.JPG,AFNE01.JPG,,,,,,,,,4,8,48,8,,,,,,,,,,,,,,,AMNE16.jpg,AMSA03.jpg,AMSA07.jpg,AMNE02.jpg,AMNE02.jpg,MN,1,num_4,32,num_6,1.13355697447,,,2017_Aug_22_1548,60.0037143909,MAFE4ImagesEEG,001,201274,
AFNE01.JPG,AFNE01.JPG,AFNE01.JPG,AFNE01.JPG,AFNE01.JPG,AFNE01.JPG,,,,,,,,,4,9,49,5,,,,,,,,,,,,,,,AMNE07.jpg,AMSA07.jpg,AMSA04.jpg,AMNE12.jpg,AMNE07.jpg,MN,1,num_8,16,num_8,0.500159888761,,,2017_Aug_22_1548,60.0037143909,MAFE4ImagesEEG,001,201274,
AFNE01.JPG,AFNE01.JPG,AFNE01.JPG,AFNE01.JPG,AFNE01.JPG,AFNE01.JPG,,,,,,,,,5,0,50,8,,,,,,,,,,,,,,,AMSA15.jpg,AMSA10.jpg,AMNE02.jpg,AMNE13.jpg,AMNE02.jpg,MN,1,num_2,32,num_8,1.65009030432,,,2017_Aug_22_1548,60.0037143909,MAFE4ImagesEEG,001,201274,
AFNE01.JPG,AFNE01.JPG,AFNE01.JPG,AFNE01.JPG,AFNE01.JPG,AFNE01.JPG,,,,,,,,,5,1,51,1,,,,,,,,,,,,,,,AMNE19.jpg,AMSA15.jpg,AMSA20.jpg,AMNE04.jpg,AMNE04.jpg,MN,1,num_4,32,num_6,1.36669945694,,,2017_Aug_22_1548,60.0037143909,MAFE4ImagesEEG,001,201274,
AFNE01.JPG,AFNE01.JPG,AFNE01.JPG,AFNE01.JPG,AFNE01.JPG,AFNE01.JPG,,,,,,,,,5,2,52,6,,,,,,,,,,,,,,,AMNE14.jpg,AMSA18.jpg,AMSA20.jpg,AMNE19.jpg,AMSA18.jpg,MS,2,num_6,32,num_8,0.383462917525,,,2017_Aug_22_1548,60.0037143909,MAFE4ImagesEEG,001,201274,
AFNE01.JPG,AFNE01.JPG,AFNE01.JPG,AFNE01.JPG,AFNE01.JPG,AFNE01.JPG,,,,,,,,,5,3,53,5,,,,,,,,,,,,,,,AMNE18.jpg,AMSA04.jpg,AMNE11.jpg,AMSA20.jpg,AMSA20.jpg,MS,2,num_4,32,num_6,0.350190022145,,,2017_Aug_22_1548,60.0037143909,MAFE4ImagesEEG,001,201274,
AFNE01.JPG,AFNE01.JPG,AFNE01.JPG,AFNE01.JPG,AFNE01.JPG,AFNE01.JPG,,,,,,,,,5,4,54,9,,,,,,,,,,,,,,,AMSA19.jpg,AMNE19.jpg,AMSA14.jpg,AMNE03.jpg,AMSA19.jpg,MS,2,num_8,16,num_8,0.450213339995,,,2017_Aug_22_1548,60.0037143909,MAFE4ImagesEEG,001,201274,
AFNE01.JPG,AFNE01.JPG,AFNE01.JPG,AFNE01.JPG,AFNE01.JPG,AFNE01.JPG,,,,,,,,,5,5,55,0,,,,,,,,,,,,,,,AMSA03.jpg,AMNE07.jpg,AMNE12.jpg,AMSA15.jpg,AMNE12.jpg,MN,1,num_2,16,num_2,0.450142777176,,,2017_Aug_22_1548,60.0037143909,MAFE4ImagesEEG,001,201274,
AFNE01.JPG,AFNE01.JPG,AFNE01.JPG,AFNE01.JPG,AFNE01.JPG,AFNE01.JPG,,,,,,,,,5,6,56,7,,,,,,,,,,,,,,,AMSA04.jpg,AMNE16.jpg,AMNE02.jpg,AMSA13.jpg,AMNE02.jpg,MN,1,num_2,32,num_8,0.733525606105,,,2017_Aug_22_1548,60.0037143909,MAFE4ImagesEEG,001,201274,
AFNE01.JPG,AFNE01.JPG,AFNE01.JPG,AFNE01.JPG,AFNE01.JPG,AFNE01.JPG,,,,,,,,,5,7,57,4,,,,,,,,,,,,,,,AMSA04.jpg,AMNE16.jpg,AMSA13.jpg,AMNE02.jpg,AMSA13.jpg,MS,2,num_2,32,num_4,0.416809582966,,,2017_Aug_22_1548,60.0037143909,MAFE4ImagesEEG,001,201274,
AFNE01.JPG,AFNE01.JPG,AFNE01.JPG,AFNE01.JPG,AFNE01.JPG,AFNE01.JPG,,,,,,,,,5,8,58,2,,,,,,,,,,,,,,,AMNE09.jpg,AMSA20.jpg,AMNE04.jpg,AMSA04.jpg,AMNE04.jpg,MN,1,num_2,32,num_6,0.533454273595,,,2017_Aug_22_1548,60.0037143909,MAFE4ImagesEEG,001,201274,
AFNE01.JPG,AFNE01.JPG,AFNE01.JPG,AFNE01.JPG,AFNE01.JPG,AFNE01.JPG,,,,,,,,,5,9,59,3,,,,,,,,,,,,,,,AMSA09.jpg,AMNE12.jpg,AMNE10.jpg,AMSA02.jpg,AMNE12.jpg,MN,1,num_6,32,num_8,0.550145246903,,,2017_Aug_22_1548,60.0037143909,MAFE4ImagesEEG,001,201274,
,,,,,,,,,,,,,,,,,,,,,,,,,,,,,,,,,,,,,,,,,,,space,3.26656035217,2017_Aug_22_1548,60.0037143909,MAFE4ImagesEEG,001,201274,
AFNE01.JPG,AFNE01.JPG,AFNE01.JPG,AFNE01.JPG,AFNE01.JPG,AFNE01.JPG,,,,,,,,,,,,,0,0,0,7,,,,,,,,,,,AFNE19.jpg,AFNE02.jpg,AFSA05.jpg,AFSA16.jpg,AFSA05.jpg,FS,4,num_2,32,num_8,0.666765561327,,,2017_Aug_22_1548,60.0037143909,MAFE4ImagesEEG,001,201274,
AFNE01.JPG,AFNE01.JPG,AFNE01.JPG,AFNE01.JPG,AFNE01.JPG,AFNE01.JPG,,,,,,,,,,,,,0,1,1,5,,,,,,,,,,,AFSA09.jpg,AFNE14.jpg,AFNE12.jpg,AFSA06.jpg,AFSA06.jpg,FS,4,num_4,32,num_8,0.933473774581,,,2017_Aug_22_1548,60.0037143909,MAFE4ImagesEEG,001,201274,
AFNE01.JPG,AFNE01.JPG,AFNE01.JPG,AFNE01.JPG,AFNE01.JPG,AFNE01.JPG,,,,,,,,,,,,,0,2,2,2,,,,,,,,,,,AFSA10.jpg,AFNE12.jpg,AFSA02.jpg,AFNE14.jpg,AFNE14.jpg,FN,3,num_4,32,num_6,0.433576571522,,,2017_Aug_22_1548,60.0037143909,MAFE4ImagesEEG,001,201274,
AFNE01.JPG,AFNE01.JPG,AFNE01.JPG,AFNE01.JPG,AFNE01.JPG,AFNE01.JPG,,,,,,,,,,,,,0,3,3,0,,,,,,,,,,,AFSA20.jpg,AFSA18.jpg,AFNE20.jpg,AFNE12.jpg,AFSA20.jpg,FS,4,num_8,32,num_2,0.650134245632,,,2017_Aug_22_1548,60.0037143909,MAFE4ImagesEEG,001,201274,
AFNE01.JPG,AFNE01.JPG,AFNE01.JPG,AFNE01.JPG,AFNE01.JPG,AFNE01.JPG,,,,,,,,,,,,,0,4,4,6,,,,,,,,,,,AFSA06.jpg,AFSA12.jpg,AFNE15.jpg,AFNE10.jpg,AFSA12.jpg,FS,4,num_6,32,num_8,0.333543631714,,,2017_Aug_22_1548,60.0037143909,MAFE4ImagesEEG,001,201274,
AFNE01.JPG,AFNE01.JPG,AFNE01.JPG,AFNE01.JPG,AFNE01.JPG,AFNE01.JPG,,,,,,,,,,,,,0,5,5,4,,,,,,,,,,,AFNE11.jpg,AFSA08.jpg,AFNE02.jpg,AFSA12.jpg,AFNE11.jpg,FN,3,num_8,32,num_6,0.61676705291,,,2017_Aug_22_1548,60.0037143909,MAFE4ImagesEEG,001,201274,
AFNE01.JPG,AFNE01.JPG,AFNE01.JPG,AFNE01.JPG,AFNE01.JPG,AFNE01.JPG,,,,,,,,,,,,,0,6,6,3,,,,,,,,,,,AFNE20.jpg,AFNE18.jpg,AFSA04.jpg,AFSA17.jpg,AFNE20.jpg,FN,3,num_8,16,num_8,0.833431853913,,,2017_Aug_22_1548,60.0037143909,MAFE4ImagesEEG,001,201274,
AFNE01.JPG,AFNE01.JPG,AFNE01.JPG,AFNE01.JPG,AFNE01.JPG,AFNE01.JPG,,,,,,,,,,,,,0,7,7,8,,,,,,,,,,,AFNE18.jpg,AFSA17.jpg,AFNE03.jpg,AFSA15.jpg,AFSA17.jpg,FS,4,num_6,32,num_8,0.716779465438,,,2017_Aug_22_1548,60.0037143909,MAFE4ImagesEEG,001,201274,
AFNE01.JPG,AFNE01.JPG,AFNE01.JPG,AFNE01.JPG,AFNE01.JPG,AFNE01.JPG,,,,,,,,,,,,,0,8,8,9,,,,,,,,,,,AFNE16.jpg,AFSA20.jpg,AFNE01.jpg,AFSA14.jpg,AFSA20.jpg,FS,4,num_6,32,num_2,0.633482081699,,,2017_Aug_22_1548,60.0037143909,MAFE4ImagesEEG,001,201274,
AFNE01.JPG,AFNE01.JPG,AFNE01.JPG,AFNE01.JPG,AFNE01.JPG,AFNE01.JPG,,,,,,,,,,,,,0,9,9,1,,,,,,,,,,,AFSA15.jpg,AFSA17.jpg,AFNE18.jpg,AFNE10.jpg,AFSA17.jpg,FS,4,num_6,32,num_8,0.566909349058,,,2017_Aug_22_1548,60.0037143909,MAFE4ImagesEEG,001,201274,
AFNE01.JPG,AFNE01.JPG,AFNE01.JPG,AFNE01.JPG,AFNE01.JPG,AFNE01.JPG,,,,,,,,,,,,,1,0,10,2,,,,,,,,,,,AFSA01.jpg,AFSA12.jpg,AFNE02.jpg,AFNE13.jpg,AFSA01.jpg,FS,4,num_8,16,num_8,0.666769089526,,,2017_Aug_22_1548,60.0037143909,MAFE4ImagesEEG,001,201274,
AFNE01.JPG,AFNE01.JPG,AFNE01.JPG,AFNE01.JPG,AFNE01.JPG,AFNE01.JPG,,,,,,,,,,,,,1,1,11,0,,,,,,,,,,,AFSA17.jpg,AFSA05.jpg,AFNE16.jpg,AFNE20.jpg,AFNE16.jpg,FN,3,num_2,32,num_6,0.733486796613,,,2017_Aug_22_1548,60.0037143909,MAFE4ImagesEEG,001,201274,
AFNE01.JPG,AFNE01.JPG,AFNE01.JPG,AFNE01.JPG,AFNE01.JPG,AFNE01.JPG,,,,,,,,,,,,,1,2,12,7,,,,,,,,,,,AFSA19.jpg,AFNE06.jpg,AFSA14.jpg,AFNE15.jpg,AFNE06.jpg,FN,3,num_6,32,num_2,0.566775921267,,,2017_Aug_22_1548,60.0037143909,MAFE4ImagesEEG,001,201274,
AFNE01.JPG,AFNE01.JPG,AFNE01.JPG,AFNE01.JPG,AFNE01.JPG,AFNE01.JPG,,,,,,,,,,,,,1,3,13,9,,,,,,,,,,,AFNE05.jpg,AFNE08.jpg,AFSA02.jpg,AFSA03.jpg,AFSA02.jpg,FS,4,num_2,32,num_8,0.683480269625,,,2017_Aug_22_1548,60.0037143909,MAFE4ImagesEEG,001,201274,
AFNE01.JPG,AFNE01.JPG,AFNE01.JPG,AFNE01.JPG,AFNE01.JPG,AFNE01.JPG,,,,,,,,,,,,,1,4,14,8,,,,,,,,,,,AFNE06.jpg,AFSA08.jpg,AFNE01.jpg,AFSA09.jpg,AFSA09.jpg,FS,4,num_4,32,num_8,0.983413908514,,,2017_Aug_22_1548,60.0037143909,MAFE4ImagesEEG,001,201274,
AFNE01.JPG,AFNE01.JPG,AFNE01.JPG,AFNE01.JPG,AFNE01.JPG,AFNE01.JPG,,,,,,,,,,,,,1,5,15,1,,,,,,,,,,,AFSA11.jpg,AFSA08.jpg,AFNE06.jpg,AFNE09.jpg,AFSA08.jpg,FS,4,num_6,16,num_6,0.850115129491,,,2017_Aug_22_1548,60.0037143909,MAFE4ImagesEEG,001,201274,
AFNE01.JPG,AFNE01.JPG,AFNE01.JPG,AFNE01.JPG,AFNE01.JPG,AFNE01.JPG,,,,,,,,,,,,,1,6,16,4,,,,,,,,,,,AFNE17.jpg,AFSA14.jpg,AFNE20.jpg,AFSA11.jpg,AFNE17.jpg,FN,3,num_8,32,num_2,1.49994627608,,,2017_Aug_22_1548,60.0037143909,MAFE4ImagesEEG,001,201274,
AFNE01.JPG,AFNE01.JPG,AFNE01.JPG,AFNE01.JPG,AFNE01.JPG,AFNE01.JPG,,,,,,,,,,,,,1,7,17,5,,,,,,,,,,,AFSA04.jpg,AFNE05.jpg,AFSA17.jpg,AFNE17.jpg,AFSA04.jpg,FS,4,num_8,16,num_8,0.533451707684,,,2017_Aug_22_1548,60.0037143909,MAFE4ImagesEEG,001,201274,
AFNE01.JPG,AFNE01.JPG,AFNE01.JPG,AFNE01.JPG,AFNE01.JPG,AFNE01.JPG,,,,,,,,,,,,,1,8,18,6,,,,,,,,,,,AFNE15.jpg,AFSA12.jpg,AFSA15.jpg,AFNE18.jpg,AFNE18.jpg,FN,3,num_4,16,num_4,0.750127093052,,,2017_Aug_22_1548,60.0037143909,MAFE4ImagesEEG,001,201274,
AFNE01.JPG,AFNE01.JPG,AFNE01.JPG,AFNE01.JPG,AFNE01.JPG,AFNE01.JPG,,,,,,,,,,,,,1,9,19,3,,,,,,,,,,,AFSA11.jpg,AFSA18.jpg,AFNE08.jpg,AFNE06.jpg,AFSA11.jpg,FS,4,num_8,32,num_6,0.583442839212,,,2017_Aug_22_1548,60.0037143909,MAFE4ImagesEEG,001,201274,
AFNE01.JPG,AFNE01.JPG,AFNE01.JPG,AFNE01.JPG,AFNE01.JPG,AFNE01.JPG,,,,,,,,,,,,,2,0,20,4,,,,,,,,,,,AFSA09.jpg,AFNE09.jpg,AFNE06.jpg,AFSA05.jpg,AFSA09.jpg,FS,4,num_8,16,num_8,0.583511477453,,,2017_Aug_22_1548,60.0037143909,MAFE4ImagesEEG,001,201274,
AFNE01.JPG,AFNE01.JPG,AFNE01.JPG,AFNE01.JPG,AFNE01.JPG,AFNE01.JPG,,,,,,,,,,,,,2,1,21,5,,,,,,,,,,,AFNE07.jpg,AFSA17.jpg,AFNE18.jpg,AFSA04.jpg,AFSA17.jpg,FS,4,num_6,16,num_6,0.633468610584,,,2017_Aug_22_1548,60.0037143909,MAFE4ImagesEEG,001,201274,
AFNE01.JPG,AFNE01.JPG,AFNE01.JPG,AFNE01.JPG,AFNE01.JPG,AFNE01.JPG,,,,,,,,,,,,,2,2,22,1,,,,,,,,,,,AFSA01.jpg,AFNE20.jpg,AFNE15.jpg,AFSA16.jpg,AFNE20.jpg,FN,3,num_6,32,num_8,0.883458908182,,,2017_Aug_22_1548,60.0037143909,MAFE4ImagesEEG,001,201274,
AFNE01.JPG,AFNE01.JPG,AFNE01.JPG,AFNE01.JPG,AFNE01.JPG,AFNE01.JPG,,,,,,,,,,,,,2,3,23,9,,,,,,,,,,,AFNE05.jpg,AFNE12.jpg,AFSA04.jpg,AFSA16.jpg,AFNE12.jpg,FN,3,num_6,32,num_8,0.950110542937,,,2017_Aug_22_1548,60.0037143909,MAFE4ImagesEEG,001,201274,
AFNE01.JPG,AFNE01.JPG,AFNE01.JPG,AFNE01.JPG,AFNE01.JPG,AFNE01.JPG,,,,,,,,,,,,,2,4,24,3,,,,,,,,,,,AFSA20.jpg,AFNE18.jpg,AFSA14.jpg,AFNE09.jpg,AFSA14.jpg,FS,4,num_2,32,num_6,0.716772409156,,,2017_Aug_22_1548,60.0037143909,MAFE4ImagesEEG,001,201274,
AFNE01.JPG,AFNE01.JPG,AFNE01.JPG,AFNE01.JPG,AFNE01.JPG,AFNE01.JPG,,,,,,,,,,,,,2,5,25,2,,,,,,,,,,,AFSA16.jpg,AFNE16.jpg,AFNE15.jpg,AFSA03.jpg,AFSA16.jpg,FS,4,num_8,16,num_8,0.816774878884,,,2017_Aug_22_1548,60.0037143909,MAFE4ImagesEEG,001,201274,
AFNE01.JPG,AFNE01.JPG,AFNE01.JPG,AFNE01.JPG,AFNE01.JPG,AFNE01.JPG,,,,,,,,,,,,,2,6,26,0,,,,,,,,,,,AFSA05.jpg,AFNE10.jpg,AFNE07.jpg,AFSA06.jpg,AFNE07.jpg,FN,3,num_2,32,num_6,0.683443384478,,,2017_Aug_22_1548,60.0037143909,MAFE4ImagesEEG,001,201274,
AFNE01.JPG,AFNE01.JPG,AFNE01.JPG,AFNE01.JPG,AFNE01.JPG,AFNE01.JPG,,,,,,,,,,,,,2,7,27,8,,,,,,,,,,,AFSA01.jpg,AFNE11.jpg,AFNE06.jpg,AFSA07.jpg,AFSA01.jpg,FS,4,num_8,32,num_2,0.8168140091,,,2017_Aug_22_1548,60.0037143909,MAFE4ImagesEEG,001,201274,
AFNE01.JPG,AFNE01.JPG,AFNE01.JPG,AFNE01.JPG,AFNE01.JPG,AFNE01.JPG,,,,,,,,,,,,,2,8,28,6,,,,,,,,,,,AFSA10.jpg,AFNE07.jpg,AFSA03.jpg,AFNE15.jpg,AFSA10.jpg,FS,4,num_8,16,num_8,0.600150491111,,,2017_Aug_22_1548,60.0037143909,MAFE4ImagesEEG,001,201274,
AFNE01.JPG,AFNE01.JPG,AFNE01.JPG,AFNE01.JPG,AFNE01.JPG,AFNE01.JPG,,,,,,,,,,,,,2,9,29,7,,,,,,,,,,,AFSA01.jpg,AFNE18.jpg,AFSA16.jpg,AFNE04.jpg,AFNE18.jpg,FN,3,num_6,16,num_6,0.650146433734,,,2017_Aug_22_1548,60.0037143909,MAFE4ImagesEEG,001,201274,
AFNE01.JPG,AFNE01.JPG,AFNE01.JPG,AFNE01.JPG,AFNE01.JPG,AFNE01.JPG,,,,,,,,,,,,,3,0,30,5,,,,,,,,,,,AFSA19.jpg,AFSA18.jpg,AFNE02.jpg,AFNE14.jpg,AFNE02.jpg,FN,3,num_2,16,num_2,1.2667271368,,,2017_Aug_22_1548,60.0037143909,MAFE4ImagesEEG,001,201274,
AFNE01.JPG,AFNE01.JPG,AFNE01.JPG,AFNE01.JPG,AFNE01.JPG,AFNE01.JPG,,,,,,,,,,,,,3,1,31,4,,,,,,,,,,,AFNE08.jpg,AFSA06.jpg,AFSA19.jpg,AFNE07.jpg,AFNE08.jpg,FN,3,num_8,16,num_8,0.533470631344,,,2017_Aug_22_1548,60.0037143909,MAFE4ImagesEEG,001,201274,
AFNE01.JPG,AFNE01.JPG,AFNE01.JPG,AFNE01.JPG,AFNE01.JPG,AFNE01.JPG,,,,,,,,,,,,,3,2,32,7,,,,,,,,,,,AFSA18.jpg,AFSA01.jpg,AFNE17.jpg,AFNE04.jpg,AFSA18.jpg,FS,4,num_8,32,num_6,0.500207678881,,,2017_Aug_22_1548,60.0037143909,MAFE4ImagesEEG,001,201274,
AFNE01.JPG,AFNE01.JPG,AFNE01.JPG,AFNE01.JPG,AFNE01.JPG,AFNE01.JPG,,,,,,,,,,,,,3,3,33,0,,,,,,,,,,,AFNE11.jpg,AFSA05.jpg,AFNE18.jpg,AFSA04.jpg,AFSA04.jpg,FS,4,num_4,32,num_8,0.500150587293,,,2017_Aug_22_1548,60.0037143909,MAFE4ImagesEEG,001,201274,
AFNE01.JPG,AFNE01.JPG,AFNE01.JPG,AFNE01.JPG,AFNE01.JPG,AFNE01.JPG,,,,,,,,,,,,,3,4,34,3,,,,,,,,,,,AFNE05.jpg,AFSA05.jpg,AFSA17.jpg,AFNE15.jpg,AFNE05.jpg,FN,3,num_8,32,num_6,0.766727297218,,,2017_Aug_22_1548,60.0037143909,MAFE4ImagesEEG,001,201274,
AFNE01.JPG,AFNE01.JPG,AFNE01.JPG,AFNE01.JPG,AFNE01.JPG,AFNE01.JPG,,,,,,,,,,,,,3,5,35,6,,,,,,,,,,,AFNE20.jpg,AFNE01.jpg,AFSA06.jpg,AFSA20.jpg,AFNE20.jpg,FN,3,num_8,32,num_4,0.650003063143,,,2017_Aug_22_1548,60.0037143909,MAFE4ImagesEEG,001,201274,
AFNE01.JPG,AFNE01.JPG,AFNE01.JPG,AFNE01.JPG,AFNE01.JPG,AFNE01.JPG,,,,,,,,,,,,,3,6,36,1,,,,,,,,,,,AFSA10.jpg,AFNE20.jpg,AFSA16.jpg,AFNE07.jpg,AFNE20.jpg,FN,3,num_6,32,num_8,0.68345300667,,,2017_Aug_22_1548,60.0037143909,MAFE4ImagesEEG,001,201274,
AFNE01.JPG,AFNE01.JPG,AFNE01.JPG,AFNE01.JPG,AFNE01.JPG,AFNE01.JPG,,,,,,,,,,,,,3,7,37,2,,,,,,,,,,,AFSA15.jpg,AFNE12.jpg,AFNE19.jpg,AFSA16.jpg,AFSA15.jpg,FS,4,num_8,16,num_8,1.11677202431,,,2017_Aug_22_1548,60.0037143909,MAFE4ImagesEEG,001,201274,
AFNE01.JPG,AFNE01.JPG,AFNE01.JPG,AFNE01.JPG,AFNE01.JPG,AFNE01.JPG,,,,,,,,,,,,,3,8,38,8,,,,,,,,,,,AFSA16.jpg,AFNE19.jpg,AFSA20.jpg,AFNE10.jpg,AFSA16.jpg,FS,4,num_8,32,num_6,0.800097376574,,,2017_Aug_22_1548,60.0037143909,MAFE4ImagesEEG,001,201274,
AFNE01.JPG,AFNE01.JPG,AFNE01.JPG,AFNE01.JPG,AFNE01.JPG,AFNE01.JPG,,,,,,,,,,,,,3,9,39,9,,,,,,,,,,,AFNE03.jpg,AFNE09.jpg,AFSA12.jpg,AFSA13.jpg,AFNE09.jpg,FN,3,num_6,32,num_8,0.783458683756,,,2017_Aug_22_1548,60.0037143909,MAFE4ImagesEEG,001,201274,
AFNE01.JPG,AFNE01.JPG,AFNE01.JPG,AFNE01.JPG,AFNE01.JPG,AFNE01.JPG,,,,,,,,,,,,,4,0,40,7,,,,,,,,,,,AFSA14.jpg,AFNE09.jpg,AFNE17.jpg,AFSA08.jpg,AFSA08.jpg,FS,4,num_4,32,num_2,0.850138864247,,,2017_Aug_22_1548,60.0037143909,MAFE4ImagesEEG,001,201274,
AFNE01.JPG,AFNE01.JPG,AFNE01.JPG,AFNE01.JPG,AFNE01.JPG,AFNE01.JPG,,,,,,,,,,,,,4,1,41,4,,,,,,,,,,,AFSA14.jpg,AFSA02.jpg,AFNE16.jpg,AFNE10.jpg,AFNE16.jpg,FN,3,num_2,32,num_6,1.93354754464,,,2017_Aug_22_1548,60.0037143909,MAFE4ImagesEEG,001,201274,
AFNE01.JPG,AFNE01.JPG,AFNE01.JPG,AFNE01.JPG,AFNE01.JPG,AFNE01.JPG,,,,,,,,,,,,,4,2,42,3,,,,,,,,,,,AFNE15.jpg,AFNE06.jpg,AFSA15.jpg,AFSA04.jpg,AFNE06.jpg,FN,3,num_6,32,num_8,0.28363589244,,,2017_Aug_22_1548,60.0037143909,MAFE4ImagesEEG,001,201274,
AFNE01.JPG,AFNE01.JPG,AFNE01.JPG,AFNE01.JPG,AFNE01.JPG,AFNE01.JPG,,,,,,,,,,,,,4,3,43,0,,,,,,,,,,,AFNE08.jpg,AFSA16.jpg,AFSA15.jpg,AFNE11.jpg,AFNE08.jpg,FN,3,num_8,32,num_6,0.550182452775,,,2017_Aug_22_1548,60.0037143909,MAFE4ImagesEEG,001,201274,
AFNE01.JPG,AFNE01.JPG,AFNE01.JPG,AFNE01.JPG,AFNE01.JPG,AFNE01.JPG,,,,,,,,,,,,,4,4,44,5,,,,,,,,,,,AFNE13.jpg,AFSA17.jpg,AFNE12.jpg,AFSA07.jpg,AFSA07.jpg,FS,4,num_4,32,num_8,0.850095885107,,,2017_Aug_22_1548,60.0037143909,MAFE4ImagesEEG,001,201274,
AFNE01.JPG,AFNE01.JPG,AFNE01.JPG,AFNE01.JPG,AFNE01.JPG,AFNE01.JPG,,,,,,,,,,,,,4,5,45,6,,,,,,,,,,,AFSA16.jpg,AFNE19.jpg,AFNE06.jpg,AFSA02.jpg,AFSA02.jpg,FS,4,num_4,32,num_2,1.73335593485,,,2017_Aug_22_1548,60.0037143909,MAFE4ImagesEEG,001,201274,
AFNE01.JPG,AFNE01.JPG,AFNE01.JPG,AFNE01.JPG,AFNE01.JPG,AFNE01.JPG,,,,,,,,,,,,,4,6,46,8,,,,,,,,,,,AFSA14.jpg,AFSA12.jpg,AFNE18.jpg,AFNE03.jpg,AFSA14.jpg,FS,4,num_8,16,num_8,1.01674870646,,,2017_Aug_22_1548,60.0037143909,MAFE4ImagesEEG,001,201274,
AFNE01.JPG,AFNE01.JPG,AFNE01.JPG,AFNE01.JPG,AFNE01.JPG,AFNE01.JPG,,,,,,,,,,,,,4,7,47,9,,,,,,,,,,,AFSA06.jpg,AFNE12.jpg,AFNE03.jpg,AFSA07.jpg,AFSA06.jpg,FS,4,num_8,32,num_6,0.783484984422,,,2017_Aug_22_1548,60.0037143909,MAFE4ImagesEEG,001,201274,
AFNE01.JPG,AFNE01.JPG,AFNE01.JPG,AFNE01.JPG,AFNE01.JPG,AFNE01.JPG,,,,,,,,,,,,,4,8,48,2,,,,,,,,,,,AFSA19.jpg,AFSA17.jpg,AFNE11.jpg,AFNE19.jpg,AFSA17.jpg,FS,4,num_6,32,num_8,0.466842731461,,,2017_Aug_22_1548,60.0037143909,MAFE4ImagesEEG,001,201274,
AFNE01.JPG,AFNE01.JPG,AFNE01.JPG,AFNE01.JPG,AFNE01.JPG,AFNE01.JPG,,,,,,,,,,,,,4,9,49,1,,,,,,,,,,,AFNE09.jpg,AFSA15.jpg,AFSA05.jpg,AFNE20.jpg,AFSA05.jpg,FS,4,num_2,32,num_6,0.516745338799,,,2017_Aug_22_1548,60.0037143909,MAFE4ImagesEEG,001,201274,
AFNE01.JPG,AFNE01.JPG,AFNE01.JPG,AFNE01.JPG,AFNE01.JPG,AFNE01.JPG,,,,,,,,,,,,,5,0,50,3,,,,,,,,,,,AFNE11.jpg,AFNE18.jpg,AFSA06.jpg,AFSA18.jpg,AFNE18.jpg,FN,3,num_6,32,num_2,1.21671708161,,,2017_Aug_22_1548,60.0037143909,MAFE4ImagesEEG,001,201274,
AFNE01.JPG,AFNE01.JPG,AFNE01.JPG,AFNE01.JPG,AFNE01.JPG,AFNE01.JPG,,,,,,,,,,,,,5,1,51,9,,,,,,,,,,,AFNE13.jpg,AFSA06.jpg,AFNE12.jpg,AFSA04.jpg,AFNE13.jpg,FN,3,num_8,16,num_8,0.533490517177,,,2017_Aug_22_1548,60.0037143909,MAFE4ImagesEEG,001,201274,
AFNE01.JPG,AFNE01.JPG,AFNE01.JPG,AFNE01.JPG,AFNE01.JPG,AFNE01.JPG,,,,,,,,,,,,,5,2,52,8,,,,,,,,,,,AFNE09.jpg,AFSA15.jpg,AFNE06.jpg,AFSA17.jpg,AFNE06.jpg,FN,3,num_2,32,num_6,0.416786168935,,,2017_Aug_22_1548,60.0037143909,MAFE4ImagesEEG,001,201274,
AFNE01.JPG,AFNE01.JPG,AFNE01.JPG,AFNE01.JPG,AFNE01.JPG,AFNE01.JPG,,,,,,,,,,,,,5,3,53,1,,,,,,,,,,,AFNE08.jpg,AFSA07.jpg,AFSA06.jpg,AFNE02.jpg,AFSA07.jpg,FS,4,num_6,32,num_8,0.533466782421,,,2017_Aug_22_1548,60.0037143909,MAFE4ImagesEEG,001,201274,
AFNE01.JPG,AFNE01.JPG,AFNE01.JPG,AFNE01.JPG,AFNE01.JPG,AFNE01.JPG,,,,,,,,,,,,,5,4,54,4,,,,,,,,,,,AFSA15.jpg,AFNE02.jpg,AFNE09.jpg,AFSA01.jpg,AFNE02.jpg,FN,3,num_6,16,num_6,1.16666757548,,,2017_Aug_22_1548,60.0037143909,MAFE4ImagesEEG,001,201274,
AFNE01.JPG,AFNE01.JPG,AFNE01.JPG,AFNE01.JPG,AFNE01.JPG,AFNE01.JPG,,,,,,,,,,,,,5,5,55,5,,,,,,,,,,,AFNE14.jpg,AFSA19.jpg,AFNE01.jpg,AFSA15.jpg,AFNE14.jpg,FN,3,num_8,16,num_8,0.600179678411,,,2017_Aug_22_1548,60.0037143909,MAFE4ImagesEEG,001,201274,
AFNE01.JPG,AFNE01.JPG,AFNE01.JPG,AFNE01.JPG,AFNE01.JPG,AFNE01.JPG,,,,,,,,,,,,,5,6,56,7,,,,,,,,,,,AFSA09.jpg,AFNE19.jpg,AFNE07.jpg,AFSA08.jpg,AFSA08.jpg,FS,4,num_4,16,num_4,0.733310710406,,,2017_Aug_22_1548,60.0037143909,MAFE4ImagesEEG,001,201274,
AFNE01.JPG,AFNE01.JPG,AFNE01.JPG,AFNE01.JPG,AFNE01.JPG,AFNE01.JPG,,,,,,,,,,,,,5,7,57,6,,,,,,,,,,,AFSA09.jpg,AFNE02.jpg,AFSA08.jpg,AFNE12.jpg,AFSA09.jpg,FS,4,num_8,32,num_2,1.11674636509,,,2017_Aug_22_1548,60.0037143909,MAFE4ImagesEEG,001,201274,
AFNE01.JPG,AFNE01.JPG,AFNE01.JPG,AFNE01.JPG,AFNE01.JPG,AFNE01.JPG,,,,,,,,,,,,,5,8,58,0,,,,,,,,,,,AFNE06.jpg,AFSA09.jpg,AFNE20.jpg,AFSA14.jpg,AFNE06.jpg,FN,3,num_8,16,num_8,1.25009870762,,,2017_Aug_22_1548,60.0037143909,MAFE4ImagesEEG,001,201274,
AFNE01.JPG,AFNE01.JPG,AFNE01.JPG,AFNE01.JPG,AFNE01.JPG,AFNE01.JPG,,,,,,,,,,,,,5,9,59,2,,,,,,,,,,,AFNE13.jpg,AFSA02.jpg,AFNE09.jpg,AFSA07.jpg,AFNE13.jpg,FN,3,num_8,32,num_2,0.66675914661,,,2017_Aug_22_1548,60.0037143909,MAFE4ImagesEEG,001,201274,
,,,,,,,,,,,,,,,,,,,,,,,,,,,,,,,,,,,,,,,,,,,space,5.01642989123,2017_Aug_22_1548,60.0037143909,MAFE4ImagesEEG,001,201274,
AFNE01.JPG,AFNE01.JPG,AFNE01.JPG,AFNE01.JPG,AFNE01.JPG,AFNE01.JPG,,,,,,,,,,,,,,,,,0,0,0,4,,,,,,,AMNE09.jpg,AMNE03.jpg,AMSA15.jpg,AMSA20.jpg,AMSA15.jpg,MS,2,num_2,32,num_8,0.450016085058,,,2017_Aug_22_1548,60.0037143909,MAFE4ImagesEEG,001,201274,
AFNE01.JPG,AFNE01.JPG,AFNE01.JPG,AFNE01.JPG,AFNE01.JPG,AFNE01.JPG,,,,,,,,,,,,,,,,,0,1,1,6,,,,,,,AMNE09.jpg,AMSA02.jpg,AMNE12.jpg,AMSA19.jpg,AMSA02.jpg,MS,2,num_6,32,num_4,0.300278434181,,,2017_Aug_22_1548,60.0037143909,MAFE4ImagesEEG,001,201274,
AFNE01.JPG,AFNE01.JPG,AFNE01.JPG,AFNE01.JPG,AFNE01.JPG,AFNE01.JPG,,,,,,,,,,,,,,,,,0,2,2,3,,,,,,,AMSA12.jpg,AMSA20.jpg,AMNE13.jpg,AMNE20.jpg,AMSA20.jpg,MS,2,num_6,16,num_6,0.800097376574,,,2017_Aug_22_1548,60.0037143909,MAFE4ImagesEEG,001,201274,
AFNE01.JPG,AFNE01.JPG,AFNE01.JPG,AFNE01.JPG,AFNE01.JPG,AFNE01.JPG,,,,,,,,,,,,,,,,,0,3,3,7,,,,,,,AMSA05.jpg,AMNE03.jpg,AMSA10.jpg,AMNE01.jpg,AMNE03.jpg,MN,1,num_6,32,num_8,0.400142344297,,,2017_Aug_22_1548,60.0037143909,MAFE4ImagesEEG,001,201274,
AFNE01.JPG,AFNE01.JPG,AFNE01.JPG,AFNE01.JPG,AFNE01.JPG,AFNE01.JPG,,,,,,,,,,,,,,,,,0,4,4,9,,,,,,,AMSA18.jpg,AMSA02.jpg,AMNE09.jpg,AMNE13.jpg,AMNE09.jpg,MN,1,num_2,16,num_2,0.533461009036,,,2017_Aug_22_1548,60.0037143909,MAFE4ImagesEEG,001,201274,
AFNE01.JPG,AFNE01.JPG,AFNE01.JPG,AFNE01.JPG,AFNE01.JPG,AFNE01.JPG,,,,,,,,,,,,,,,,,0,5,5,5,,,,,,,AMSA13.jpg,AMNE17.jpg,AMSA03.jpg,AMNE12.jpg,AMSA13.jpg,MS,2,num_8,16,num_8,0.600134454085,,,2017_Aug_22_1548,60.0037143909,MAFE4ImagesEEG,001,201274,
AFNE01.JPG,AFNE01.JPG,AFNE01.JPG,AFNE01.JPG,AFNE01.JPG,AFNE01.JPG,,,,,,,,,,,,,,,,,0,6,6,2,,,,,,,AMNE19.jpg,AMSA16.jpg,AMNE03.jpg,AMSA20.jpg,AMSA20.jpg,MS,2,num_4,16,num_4,0.316846564179,,,2017_Aug_22_1548,60.0037143909,MAFE4ImagesEEG,001,201274,
AFNE01.JPG,AFNE01.JPG,AFNE01.JPG,AFNE01.JPG,AFNE01.JPG,AFNE01.JPG,,,,,,,,,,,,,,,,,0,7,7,8,,,,,,,AMNE13.jpg,AMNE01.jpg,AMSA19.jpg,AMSA07.jpg,AMNE13.jpg,MN,1,num_8,32,num_6,0.583483252442,,,2017_Aug_22_1548,60.0037143909,MAFE4ImagesEEG,001,201274,
AFNE01.JPG,AFNE01.JPG,AFNE01.JPG,AFNE01.JPG,AFNE01.JPG,AFNE01.JPG,,,,,,,,,,,,,,,,,0,8,8,1,,,,,,,AMSA05.jpg,AMNE12.jpg,AMSA03.jpg,AMNE10.jpg,AMNE10.jpg,MN,1,num_4,32,num_8,0.700169639196,,,2017_Aug_22_1548,60.0037143909,MAFE4ImagesEEG,001,201274,
AFNE01.JPG,AFNE01.JPG,AFNE01.JPG,AFNE01.JPG,AFNE01.JPG,AFNE01.JPG,,,,,,,,,,,,,,,,,0,9,9,0,,,,,,,AMSA11.jpg,AMSA17.jpg,AMNE13.jpg,AMNE11.jpg,AMNE13.jpg,MN,1,num_2,32,num_8,0.983481584582,,,2017_Aug_22_1548,60.0037143909,MAFE4ImagesEEG,001,201274,
AFNE01.JPG,AFNE01.JPG,AFNE01.JPG,AFNE01.JPG,AFNE01.JPG,AFNE01.JPG,,,,,,,,,,,,,,,,,1,0,10,6,,,,,,,AMNE01.jpg,AMNE08.jpg,AMSA16.jpg,AMSA15.jpg,AMSA16.jpg,MS,2,num_2,32,num_6,0.800089037395,,,2017_Aug_22_1548,60.0037143909,MAFE4ImagesEEG,001,201274,
AFNE01.JPG,AFNE01.JPG,AFNE01.JPG,AFNE01.JPG,AFNE01.JPG,AFNE01.JPG,,,,,,,,,,,,,,,,,1,1,11,7,,,,,,,AMNE17.jpg,AMSA10.jpg,AMSA11.jpg,AMNE07.jpg,AMNE07.jpg,MN,1,num_4,32,num_8,0.650178186945,,,2017_Aug_22_1548,60.0037143909,MAFE4ImagesEEG,001,201274,
AFNE01.JPG,AFNE01.JPG,AFNE01.JPG,AFNE01.JPG,AFNE01.JPG,AFNE01.JPG,,,,,,,,,,,,,,,,,1,2,12,0,,,,,,,AMNE08.jpg,AMSA03.jpg,AMNE14.jpg,AMSA17.jpg,AMNE08.jpg,MN,1,num_8,32,num_6,0.700141414069,,,2017_Aug_22_1548,60.0037143909,MAFE4ImagesEEG,001,201274,
AFNE01.JPG,AFNE01.JPG,AFNE01.JPG,AFNE01.JPG,AFNE01.JPG,AFNE01.JPG,,,,,,,,,,,,,,,,,1,3,13,4,,,,,,,AMNE20.jpg,AMNE12.jpg,AMSA18.jpg,AMSA04.jpg,AMSA04.jpg,MS,2,num_4,32,num_8,0.850169655285,,,2017_Aug_22_1548,60.0037143909,MAFE4ImagesEEG,001,201274,
AFNE01.JPG,AFNE01.JPG,AFNE01.JPG,AFNE01.JPG,AFNE01.JPG,AFNE01.JPG,,,,,,,,,,,,,,,,,1,4,14,2,,,,,,,AMNE10.jpg,AMNE16.jpg,AMSA03.jpg,AMSA11.jpg,AMSA11.jpg,MS,2,num_4,32,num_6,0.500180416042,,,2017_Aug_22_1548,60.0037143909,MAFE4ImagesEEG,001,201274,
AFNE01.JPG,AFNE01.JPG,AFNE01.JPG,AFNE01.JPG,AFNE01.JPG,AFNE01.JPG,,,,,,,,,,,,,,,,,1,5,15,9,,,,,,,AMSA06.jpg,AMNE14.jpg,AMSA11.jpg,AMNE13.jpg,AMSA06.jpg,MS,2,num_8,32,num_2,0.833469380392,,,2017_Aug_22_1548,60.0037143909,MAFE4ImagesEEG,001,201274,
AFNE01.JPG,AFNE01.JPG,AFNE01.JPG,AFNE01.JPG,AFNE01.JPG,AFNE01.JPG,,,,,,,,,,,,,,,,,1,6,16,5,,,,,,,AMNE02.jpg,AMNE09.jpg,AMSA16.jpg,AMSA20.jpg,AMNE09.jpg,MN,1,num_6,32,num_8,4.14996248949,,,2017_Aug_22_1548,60.0037143909,MAFE4ImagesEEG,001,201274,
AFNE01.JPG,AFNE01.JPG,AFNE01.JPG,AFNE01.JPG,AFNE01.JPG,AFNE01.JPG,,,,,,,,,,,,,,,,,1,7,17,8,,,,,,,AMNE18.jpg,AMNE17.jpg,AMSA10.jpg,AMSA05.jpg,AMNE18.jpg,MN,1,num_8,32,num_6,0.666851198883,,,2017_Aug_22_1548,60.0037143909,MAFE4ImagesEEG,001,201274,
AFNE01.JPG,AFNE01.JPG,AFNE01.JPG,AFNE01.JPG,AFNE01.JPG,AFNE01.JPG,,,,,,,,,,,,,,,,,1,8,18,1,,,,,,,AMSA19.jpg,AMNE05.jpg,AMNE06.jpg,AMSA03.jpg,AMSA03.jpg,MS,2,num_4,32,num_2,0.96672838775,,,2017_Aug_22_1548,60.0037143909,MAFE4ImagesEEG,001,201274,
AFNE01.JPG,AFNE01.JPG,AFNE01.JPG,AFNE01.JPG,AFNE01.JPG,AFNE01.JPG,,,,,,,,,,,,,,,,,1,9,19,3,,,,,,,AMNE12.jpg,AMNE07.jpg,AMSA13.jpg,AMSA08.jpg,AMSA08.jpg,MS,2,num_4,32,num_8,0.566777204163,,,2017_Aug_22_1548,60.0037143909,MAFE4ImagesEEG,001,201274,
AFNE01.JPG,AFNE01.JPG,AFNE01.JPG,AFNE01.JPG,AFNE01.JPG,AFNE01.JPG,,,,,,,,,,,,,,,,,2,0,20,0,,,,,,,AMNE06.jpg,AMSA19.jpg,AMSA13.jpg,AMNE11.jpg,AMNE11.jpg,MN,1,num_4,32,num_8,1.75000649504,,,2017_Aug_22_1548,60.0037143909,MAFE4ImagesEEG,001,201274,
AFNE01.JPG,AFNE01.JPG,AFNE01.JPG,AFNE01.JPG,AFNE01.JPG,AFNE01.JPG,,,,,,,,,,,,,,,,,2,1,21,7,,,,,,,AMNE09.jpg,AMSA16.jpg,AMSA19.jpg,AMNE05.jpg,AMNE05.jpg,MN,1,num_4,32,num_2,0.700106774224,,,2017_Aug_22_1548,60.0037143909,MAFE4ImagesEEG,001,201274,
AFNE01.JPG,AFNE01.JPG,AFNE01.JPG,AFNE01.JPG,AFNE01.JPG,AFNE01.JPG,,,,,,,,,,,,,,,,,2,2,22,2,,,,,,,AMSA02.jpg,AMNE05.jpg,AMNE07.jpg,AMSA01.jpg,AMNE07.jpg,MN,1,num_2,32,num_8,0.700147187454,,,2017_Aug_22_1548,60.0037143909,MAFE4ImagesEEG,001,201274,
AFNE01.JPG,AFNE01.JPG,AFNE01.JPG,AFNE01.JPG,AFNE01.JPG,AFNE01.JPG,,,,,,,,,,,,,,,,,2,3,23,6,,,,,,,AMSA19.jpg,AMSA11.jpg,AMNE20.jpg,AMNE13.jpg,AMSA11.jpg,MS,2,num_6,32,num_2,0.966787403799,,,2017_Aug_22_1548,60.0037143909,MAFE4ImagesEEG,001,201274,
AFNE01.JPG,AFNE01.JPG,AFNE01.JPG,AFNE01.JPG,AFNE01.JPG,AFNE01.JPG,,,,,,,,,,,,,,,,,2,4,24,9,,,,,,,AMNE05.jpg,AMSA14.jpg,AMSA18.jpg,AMNE11.jpg,AMNE11.jpg,MN,1,num_4,32,num_8,0.733417516807,,,2017_Aug_22_1548,60.0037143909,MAFE4ImagesEEG,001,201274,
AFNE01.JPG,AFNE01.JPG,AFNE01.JPG,AFNE01.JPG,AFNE01.JPG,AFNE01.JPG,,,,,,,,,,,,,,,,,2,5,25,3,,,,,,,AMNE08.jpg,AMSA09.jpg,AMNE18.jpg,AMSA20.jpg,AMNE18.jpg,MN,1,num_2,32,num_6,0.500146096922,,,2017_Aug_22_1548,60.0037143909,MAFE4ImagesEEG,001,201274,
AFNE01.JPG,AFNE01.JPG,AFNE01.JPG,AFNE01.JPG,AFNE01.JPG,AFNE01.JPG,,,,,,,,,,,,,,,,,2,6,26,5,,,,,,,AMNE03.jpg,AMNE14.jpg,AMSA11.jpg,AMSA15.jpg,AMNE03.jpg,MN,1,num_8,32,num_6,0.716811860213,,,2017_Aug_22_1548,60.0037143909,MAFE4ImagesEEG,001,201274,
AFNE01.JPG,AFNE01.JPG,AFNE01.JPG,AFNE01.JPG,AFNE01.JPG,AFNE01.JPG,,,,,,,,,,,,,,,,,2,7,27,1,,,,,,,AMNE07.jpg,AMNE16.jpg,AMSA04.jpg,AMSA01.jpg,AMNE07.jpg,MN,1,num_8,16,num_8,1.13382543356,,,2017_Aug_22_1548,60.0037143909,MAFE4ImagesEEG,001,201274,
AFNE01.JPG,AFNE01.JPG,AFNE01.JPG,AFNE01.JPG,AFNE01.JPG,AFNE01.JPG,,,,,,,,,,,,,,,,,2,8,28,4,,,,,,,AMSA14.jpg,AMSA20.jpg,AMNE08.jpg,AMNE03.jpg,AMNE03.jpg,MN,1,num_4,32,num_2,0.950122089591,,,2017_Aug_22_1548,60.0037143909,MAFE4ImagesEEG,001,201274,
AFNE01.JPG,AFNE01.JPG,AFNE01.JPG,AFNE01.JPG,AFNE01.JPG,AFNE01.JPG,,,,,,,,,,,,,,,,,2,9,29,8,,,,,,,AMNE20.jpg,AMSA10.jpg,AMNE12.jpg,AMSA01.jpg,AMSA01.jpg,MS,2,num_4,16,num_4,0.750089887297,,,2017_Aug_22_1548,60.0037143909,MAFE4ImagesEEG,001,201274,
AFNE01.JPG,AFNE01.JPG,AFNE01.JPG,AFNE01.JPG,AFNE01.JPG,AFNE01.JPG,,,,,,,,,,,,,,,,,3,0,30,5,,,,,,,AMNE14.jpg,AMNE03.jpg,AMSA04.jpg,AMSA06.jpg,AMSA04.jpg,MS,2,num_2,32,num_8,1.20011078345,,,2017_Aug_22_1548,60.0037143909,MAFE4ImagesEEG,001,201274,
AFNE01.JPG,AFNE01.JPG,AFNE01.JPG,AFNE01.JPG,AFNE01.JPG,AFNE01.JPG,,,,,,,,,,,,,,,,,3,1,31,6,,,,,,,AMSA04.jpg,AMNE16.jpg,AMSA15.jpg,AMNE17.jpg,AMNE16.jpg,MN,1,num_6,32,num_2,0.583506345749,,,2017_Aug_22_1548,60.0037143909,MAFE4ImagesEEG,001,201274,
AFNE01.JPG,AFNE01.JPG,AFNE01.JPG,AFNE01.JPG,AFNE01.JPG,AFNE01.JPG,,,,,,,,,,,,,,,,,3,2,32,7,,,,,,,AMNE01.jpg,AMNE11.jpg,AMSA09.jpg,AMSA16.jpg,AMSA09.jpg,MS,2,num_2,32,num_6,0.633505175007,,,2017_Aug_22_1548,60.0037143909,MAFE4ImagesEEG,001,201274,
AFNE01.JPG,AFNE01.JPG,AFNE01.JPG,AFNE01.JPG,AFNE01.JPG,AFNE01.JPG,,,,,,,,,,,,,,,,,3,3,33,8,,,,,,,AMNE19.jpg,AMSA07.jpg,AMNE14.jpg,AMSA01.jpg,AMNE14.jpg,MN,1,num_2,32,num_8,1.05012263486,,,2017_Aug_22_1548,60.0037143909,MAFE4ImagesEEG,001,201274,
AFNE01.JPG,AFNE01.JPG,AFNE01.JPG,AFNE01.JPG,AFNE01.JPG,AFNE01.JPG,,,,,,,,,,,,,,,,,3,4,34,2,,,,,,,AMSA05.jpg,AMNE03.jpg,AMSA06.jpg,AMNE09.jpg,AMNE09.jpg,MN,1,num_4,32,num_8,2.6500489288,,,2017_Aug_22_1548,60.0037143909,MAFE4ImagesEEG,001,201274,
AFNE01.JPG,AFNE01.JPG,AFNE01.JPG,AFNE01.JPG,AFNE01.JPG,AFNE01.JPG,,,,,,,,,,,,,,,,,3,5,35,1,,,,,,,AMNE02.jpg,AMNE17.jpg,AMSA09.jpg,AMSA12.jpg,AMSA09.jpg,MS,2,num_2,16,num_2,0.966820119298,,,2017_Aug_22_1548,60.0037143909,MAFE4ImagesEEG,001,201274,
AFNE01.JPG,AFNE01.JPG,AFNE01.JPG,AFNE01.JPG,AFNE01.JPG,AFNE01.JPG,,,,,,,,,,,,,,,,,3,6,36,3,,,,,,,AMSA04.jpg,AMNE06.jpg,AMNE15.jpg,AMSA17.jpg,AMNE06.jpg,MN,1,num_6,32,num_8,0.850105186575,,,2017_Aug_22_1548,60.0037143909,MAFE4ImagesEEG,001,201274,
AFNE01.JPG,AFNE01.JPG,AFNE01.JPG,AFNE01.JPG,AFNE01.JPG,AFNE01.JPG,,,,,,,,,,,,,,,,,3,7,37,9,,,,,,,AMNE02.jpg,AMSA02.jpg,AMNE20.jpg,AMSA20.jpg,AMNE02.jpg,MN,1,num_8,32,num_6,0.450159455766,,,2017_Aug_22_1548,60.0037143909,MAFE4ImagesEEG,001,201274,
AFNE01.JPG,AFNE01.JPG,AFNE01.JPG,AFNE01.JPG,AFNE01.JPG,AFNE01.JPG,,,,,,,,,,,,,,,,,3,8,38,4,,,,,,,AMNE13.jpg,AMSA11.jpg,AMSA04.jpg,AMNE08.jpg,AMNE08.jpg,MN,1,num_4,32,num_8,0.816813688376,,,2017_Aug_22_1548,60.0037143909,MAFE4ImagesEEG,001,201274,
AFNE01.JPG,AFNE01.JPG,AFNE01.JPG,AFNE01.JPG,AFNE01.JPG,AFNE01.JPG,,,,,,,,,,,,,,,,,3,9,39,0,,,,,,,AMSA04.jpg,AMSA02.jpg,AMNE05.jpg,AMNE10.jpg,AMSA04.jpg,MS,2,num_8,32,num_2,0.866748690489,,,2017_Aug_22_1548,60.0037143909,MAFE4ImagesEEG,001,201274,
AFNE01.JPG,AFNE01.JPG,AFNE01.JPG,AFNE01.JPG,AFNE01.JPG,AFNE01.JPG,,,,,,,,,,,,,,,,,4,0,40,2,,,,,,,AMNE10.jpg,AMSA16.jpg,AMSA10.jpg,AMNE20.jpg,AMSA16.jpg,MS,2,num_6,32,num_8,1.38350044412,,,2017_Aug_22_1548,60.0037143909,MAFE4ImagesEEG,001,201274,
AFNE01.JPG,AFNE01.JPG,AFNE01.JPG,AFNE01.JPG,AFNE01.JPG,AFNE01.JPG,,,,,,,,,,,,,,,,,4,1,41,8,,,,,,,AMSA08.jpg,AMNE15.jpg,AMNE06.jpg,AMSA01.jpg,AMSA08.jpg,MS,2,num_8,32,num_6,0.633501646807,,,2017_Aug_22_1548,60.0037143909,MAFE4ImagesEEG,001,201274,
AFNE01.JPG,AFNE01.JPG,AFNE01.JPG,AFNE01.JPG,AFNE01.JPG,AFNE01.JPG,,,,,,,,,,,,,,,,,4,2,42,5,,,,,,,AMSA19.jpg,AMNE17.jpg,AMSA10.jpg,AMNE04.jpg,AMSA10.jpg,MS,2,num_2,32,num_8,1.21678315406,,,2017_Aug_22_1548,60.0037143909,MAFE4ImagesEEG,001,201274,
AFNE01.JPG,AFNE01.JPG,AFNE01.JPG,AFNE01.JPG,AFNE01.JPG,AFNE01.JPG,,,,,,,,,,,,,,,,,4,3,43,0,,,,,,,AMNE02.jpg,AMNE08.jpg,AMSA19.jpg,AMSA10.jpg,AMSA19.jpg,MS,2,num_2,16,num_2,1.13345786592,,,2017_Aug_22_1548,60.0037143909,MAFE4ImagesEEG,001,201274,
AFNE01.JPG,AFNE01.JPG,AFNE01.JPG,AFNE01.JPG,AFNE01.JPG,AFNE01.JPG,,,,,,,,,,,,,,,,,4,4,44,1,,,,,,,AMNE04.jpg,AMNE08.jpg,AMSA12.jpg,AMSA20.jpg,AMNE08.jpg,MN,1,num_6,32,num_8,0.899753447389,,,2017_Aug_22_1548,60.0037143909,MAFE4ImagesEEG,001,201274,
AFNE01.JPG,AFNE01.JPG,AFNE01.JPG,AFNE01.JPG,AFNE01.JPG,AFNE01.JPG,,,,,,,,,,,,,,,,,4,5,45,9,,,,,,,AMNE17.jpg,AMNE06.jpg,AMSA01.jpg,AMSA14.jpg,AMSA01.jpg,MS,2,num_2,32,num_8,0.88344704092,,,2017_Aug_22_1548,60.0037143909,MAFE4ImagesEEG,001,201274,
AFNE01.JPG,AFNE01.JPG,AFNE01.JPG,AFNE01.JPG,AFNE01.JPG,AFNE01.JPG,,,,,,,,,,,,,,,,,4,6,46,3,,,,,,,AMNE11.jpg,AMSA12.jpg,AMSA16.jpg,AMNE05.jpg,AMSA16.jpg,MS,2,num_2,32,num_6,0.550135303987,,,2017_Aug_22_1548,60.0037143909,MAFE4ImagesEEG,001,201274,
AFNE01.JPG,AFNE01.JPG,AFNE01.JPG,AFNE01.JPG,AFNE01.JPG,AFNE01.JPG,,,,,,,,,,,,,,,,,4,7,47,6,,,,,,,AMSA08.jpg,AMNE02.jpg,AMNE15.jpg,AMSA20.jpg,AMSA20.jpg,MS,2,num_4,32,num_8,0.733596810373,,,2017_Aug_22_1548,60.0037143909,MAFE4ImagesEEG,001,201274,
AFNE01.JPG,AFNE01.JPG,AFNE01.JPG,AFNE01.JPG,AFNE01.JPG,AFNE01.JPG,,,,,,,,,,,,,,,,,4,8,48,7,,,,,,,AMSA03.jpg,AMNE20.jpg,AMSA05.jpg,AMNE09.jpg,AMSA05.jpg,MS,2,num_2,32,num_6,0.950100600021,,,2017_Aug_22_1548,60.0037143909,MAFE4ImagesEEG,001,201274,
AFNE01.JPG,AFNE01.JPG,AFNE01.JPG,AFNE01.JPG,AFNE01.JPG,AFNE01.JPG,,,,,,,,,,,,,,,,,4,9,49,4,,,,,,,AMSA01.jpg,AMSA10.jpg,AMNE01.jpg,AMNE12.jpg,AMSA10.jpg,MS,2,num_6,32,num_8,0.633488175692,,,2017_Aug_22_1548,60.0037143909,MAFE4ImagesEEG,001,201274,
AFNE01.JPG,AFNE01.JPG,AFNE01.JPG,AFNE01.JPG,AFNE01.JPG,AFNE01.JPG,,,,,,,,,,,,,,,,,5,0,50,5,,,,,,,AMSA05.jpg,AMSA01.jpg,AMNE07.jpg,AMNE08.jpg,AMSA01.jpg,MS,2,num_6,16,num_6,0.600121624419,,,2017_Aug_22_1548,60.0037143909,MAFE4ImagesEEG,001,201274,
AFNE01.JPG,AFNE01.JPG,AFNE01.JPG,AFNE01.JPG,AFNE01.JPG,AFNE01.JPG,,,,,,,,,,,,,,,,,5,1,51,2,,,,,,,AMNE02.jpg,AMNE09.jpg,AMSA05.jpg,AMSA17.jpg,AMNE02.jpg,MN,1,num_8,32,num_6,0.600138944457,,,2017_Aug_22_1548,60.0037143909,MAFE4ImagesEEG,001,201274,
AFNE01.JPG,AFNE01.JPG,AFNE01.JPG,AFNE01.JPG,AFNE01.JPG,AFNE01.JPG,,,,,,,,,,,,,,,,,5,2,52,7,,,,,,,AMSA15.jpg,AMSA14.jpg,AMNE15.jpg,AMNE10.jpg,AMNE10.jpg,MN,1,num_4,32,num_8,1.13348320429,,,2017_Aug_22_1548,60.0037143909,MAFE4ImagesEEG,001,201274,
AFNE01.JPG,AFNE01.JPG,AFNE01.JPG,AFNE01.JPG,AFNE01.JPG,AFNE01.JPG,,,,,,,,,,,,,,,,,5,3,53,6,,,,,,,AMSA09.jpg,AMSA03.jpg,AMNE20.jpg,AMNE10.jpg,AMSA03.jpg,MS,2,num_6,32,num_8,0.700128263794,,,2017_Aug_22_1548,60.0037143909,MAFE4ImagesEEG,001,201274,
AFNE01.JPG,AFNE01.JPG,AFNE01.JPG,AFNE01.JPG,AFNE01.JPG,AFNE01.JPG,,,,,,,,,,,,,,,,,5,4,54,3,,,,,,,AMNE04.jpg,AMNE17.jpg,AMSA17.jpg,AMSA05.jpg,AMSA05.jpg,MS,2,num_4,32,num_6,0.666777107981,,,2017_Aug_22_1548,60.0037143909,MAFE4ImagesEEG,001,201274,
AFNE01.JPG,AFNE01.JPG,AFNE01.JPG,AFNE01.JPG,AFNE01.JPG,AFNE01.JPG,,,,,,,,,,,,,,,,,5,5,55,0,,,,,,,AMSA14.jpg,AMNE07.jpg,AMNE10.jpg,AMSA03.jpg,AMNE10.jpg,MN,1,num_2,32,num_8,0.566799335298,,,2017_Aug_22_1548,60.0037143909,MAFE4ImagesEEG,001,201274,
AFNE01.JPG,AFNE01.JPG,AFNE01.JPG,AFNE01.JPG,AFNE01.JPG,AFNE01.JPG,,,,,,,,,,,,,,,,,5,6,56,1,,,,,,,AMNE10.jpg,AMNE14.jpg,AMSA14.jpg,AMSA06.jpg,AMNE14.jpg,MN,1,num_6,16,num_6,0.733475249959,,,2017_Aug_22_1548,60.0037143909,MAFE4ImagesEEG,001,201274,
AFNE01.JPG,AFNE01.JPG,AFNE01.JPG,AFNE01.JPG,AFNE01.JPG,AFNE01.JPG,,,,,,,,,,,,,,,,,5,7,57,9,,,,,,,AMSA12.jpg,AMNE13.jpg,AMSA20.jpg,AMNE17.jpg,AMNE17.jpg,MN,1,num_4,32,num_8,0.700125697884,,,2017_Aug_22_1548,60.0037143909,MAFE4ImagesEEG,001,201274,
AFNE01.JPG,AFNE01.JPG,AFNE01.JPG,AFNE01.JPG,AFNE01.JPG,AFNE01.JPG,,,,,,,,,,,,,,,,,5,8,58,4,,,,,,,AMNE11.jpg,AMNE17.jpg,AMSA05.jpg,AMSA09.jpg,AMSA09.jpg,MS,2,num_4,32,num_6,0.683519720566,,,2017_Aug_22_1548,60.0037143909,MAFE4ImagesEEG,001,201274,
AFNE01.JPG,AFNE01.JPG,AFNE01.JPG,AFNE01.JPG,AFNE01.JPG,AFNE01.JPG,,,,,,,,,,,,,,,,,5,9,59,8,,,,,,,AMNE18.jpg,AMSA01.jpg,AMSA19.jpg,AMNE20.jpg,AMNE18.jpg,MN,1,num_8,32,num_6,1.03345764137,,,2017_Aug_22_1548,60.0037143909,MAFE4ImagesEEG,001,201274,
,,,,,,,,,,,,,,,,,,,,,,,,,,,,,,,,,,,,,,,,,,,space,2.26663315995,2017_Aug_22_1548,60.0037143909,MAFE4ImagesEEG,001,201274,
AFNE01.JPG,AFNE01.JPG,AFNE01.JPG,AFNE01.JPG,AFNE01.JPG,AFNE01.JPG,,,,,,,,,,,,,,,,,,,,,0,0,0,2,,,AFSA04.jpg,AFNE06.jpg,AFSA11.jpg,AFNE02.jpg,AFSA11.jpg,FS,4,num_2,16,num_2,1.05008991936,,,2017_Aug_22_1548,60.0037143909,MAFE4ImagesEEG,001,201274,
AFNE01.JPG,AFNE01.JPG,AFNE01.JPG,AFNE01.JPG,AFNE01.JPG,AFNE01.JPG,,,,,,,,,,,,,,,,,,,,,0,1,1,6,,,AFNE09.jpg,AFSA06.jpg,AFNE05.jpg,AFSA07.jpg,AFSA07.jpg,FS,4,num_4,32,num_8,0.550401197281,,,2017_Aug_22_1548,60.0037143909,MAFE4ImagesEEG,001,201274,
AFNE01.JPG,AFNE01.JPG,AFNE01.JPG,AFNE01.JPG,AFNE01.JPG,AFNE01.JPG,,,,,,,,,,,,,,,,,,,,,0,2,2,8,,,AFSA13.jpg,AFSA16.jpg,AFNE07.jpg,AFNE01.jpg,AFSA16.jpg,FS,4,num_6,32,num_8,0.650118850055,,,2017_Aug_22_1548,60.0037143909,MAFE4ImagesEEG,001,201274,
AFNE01.JPG,AFNE01.JPG,AFNE01.JPG,AFNE01.JPG,AFNE01.JPG,AFNE01.JPG,,,,,,,,,,,,,,,,,,,,,0,3,3,9,,,AFNE11.jpg,AFNE08.jpg,AFSA10.jpg,AFSA02.jpg,AFNE11.jpg,FN,3,num_8,32,num_6,0.866852610139,,,2017_Aug_22_1548,60.0037143909,MAFE4ImagesEEG,001,201274,
AFNE01.JPG,AFNE01.JPG,AFNE01.JPG,AFNE01.JPG,AFNE01.JPG,AFNE01.JPG,,,,,,,,,,,,,,,,,,,,,0,4,4,5,,,AFSA17.jpg,AFSA05.jpg,AFNE19.jpg,AFNE16.jpg,AFNE16.jpg,FN,3,num_4,32,num_8,0.616774750641,,,2017_Aug_22_1548,60.0037143909,MAFE4ImagesEEG,001,201274,
AFNE01.JPG,AFNE01.JPG,AFNE01.JPG,AFNE01.JPG,AFNE01.JPG,AFNE01.JPG,,,,,,,,,,,,,,,,,,,,,0,5,5,3,,,AFNE17.jpg,AFSA09.jpg,AFSA16.jpg,AFNE14.jpg,AFSA09.jpg,FS,4,num_6,32,num_2,0.716806086828,,,2017_Aug_22_1548,60.0037143909,MAFE4ImagesEEG,001,201274,
AFNE01.JPG,AFNE01.JPG,AFNE01.JPG,AFNE01.JPG,AFNE01.JPG,AFNE01.JPG,,,,,,,,,,,,,,,,,,,,,0,6,6,7,,,AFSA03.jpg,AFSA19.jpg,AFNE16.jpg,AFNE03.jpg,AFNE03.jpg,FN,3,num_4,32,num_8,0.650115321972,,,2017_Aug_22_1548,60.0037143909,MAFE4ImagesEEG,001,201274,
AFNE01.JPG,AFNE01.JPG,AFNE01.JPG,AFNE01.JPG,AFNE01.JPG,AFNE01.JPG,,,,,,,,,,,,,,,,,,,,,0,7,7,4,,,AFNE07.jpg,AFSA19.jpg,AFNE01.jpg,AFSA15.jpg,AFSA19.jpg,FS,4,num_6,16,num_6,0.36678830185,,,2017_Aug_22_1548,60.0037143909,MAFE4ImagesEEG,001,201274,
AFNE01.JPG,AFNE01.JPG,AFNE01.JPG,AFNE01.JPG,AFNE01.JPG,AFNE01.JPG,,,,,,,,,,,,,,,,,,,,,0,8,8,1,,,AFSA17.jpg,AFSA13.jpg,AFNE20.jpg,AFNE09.jpg,AFSA13.jpg,FS,4,num_6,16,num_6,1.29975530773,,,2017_Aug_22_1548,60.0037143909,MAFE4ImagesEEG,001,201274,
AFNE01.JPG,AFNE01.JPG,AFNE01.JPG,AFNE01.JPG,AFNE01.JPG,AFNE01.JPG,,,,,,,,,,,,,,,,,,,,,0,9,9,0,,,AFNE18.jpg,AFSA05.jpg,AFSA01.jpg,AFNE16.jpg,AFNE18.jpg,FN,3,num_8,16,num_8,0.433495424455,,,2017_Aug_22_1548,60.0037143909,MAFE4ImagesEEG,001,201274,
AFNE01.JPG,AFNE01.JPG,AFNE01.JPG,AFNE01.JPG,AFNE01.JPG,AFNE01.JPG,,,,,,,,,,,,,,,,,,,,,1,0,10,3,,,AFNE11.jpg,AFSA13.jpg,AFSA14.jpg,AFNE12.jpg,AFSA14.jpg,FS,4,num_2,16,num_2,0.750112018315,,,2017_Aug_22_1548,60.0037143909,MAFE4ImagesEEG,001,201274,
AFNE01.JPG,AFNE01.JPG,AFNE01.JPG,AFNE01.JPG,AFNE01.JPG,AFNE01.JPG,,,,,,,,,,,,,,,,,,,,,1,1,11,8,,,AFNE17.jpg,AFSA10.jpg,AFSA15.jpg,AFNE06.jpg,AFSA15.jpg,FS,4,num_2,32,num_6,0.766750711133,,,2017_Aug_22_1548,60.0037143909,MAFE4ImagesEEG,001,201274,
AFNE01.JPG,AFNE01.JPG,AFNE01.JPG,AFNE01.JPG,AFNE01.JPG,AFNE01.JPG,,,,,,,,,,,,,,,,,,,,,1,2,12,6,,,AFSA02.jpg,AFNE16.jpg,AFNE20.jpg,AFSA13.jpg,AFNE20.jpg,FN,3,num_2,32,num_8,0.433471689699,,,2017_Aug_22_1548,60.0037143909,MAFE4ImagesEEG,001,201274,
AFNE01.JPG,AFNE01.JPG,AFNE01.JPG,AFNE01.JPG,AFNE01.JPG,AFNE01.JPG,,,,,,,,,,,,,,,,,,,,,1,3,13,9,,,AFNE12.jpg,AFNE05.jpg,AFSA01.jpg,AFSA09.jpg,AFSA09.jpg,FS,4,num_4,16,num_4,0.583443801501,,,2017_Aug_22_1548,60.0037143909,MAFE4ImagesEEG,001,201274,
AFNE01.JPG,AFNE01.JPG,AFNE01.JPG,AFNE01.JPG,AFNE01.JPG,AFNE01.JPG,,,,,,,,,,,,,,,,,,,,,1,4,14,0,,,AFNE09.jpg,AFSA10.jpg,AFSA03.jpg,AFNE05.jpg,AFNE09.jpg,FN,3,num_8,32,num_6,0.533445934416,,,2017_Aug_22_1548,60.0037143909,MAFE4ImagesEEG,001,201274,
AFNE01.JPG,AFNE01.JPG,AFNE01.JPG,AFNE01.JPG,AFNE01.JPG,AFNE01.JPG,,,,,,,,,,,,,,,,,,,,,1,5,15,5,,,AFNE01.jpg,AFSA06.jpg,AFSA04.jpg,AFNE20.jpg,AFSA06.jpg,FS,4,num_6,32,num_8,0.583460800699,,,2017_Aug_22_1548,60.0037143909,MAFE4ImagesEEG,001,201274,
AFNE01.JPG,AFNE01.JPG,AFNE01.JPG,AFNE01.JPG,AFNE01.JPG,AFNE01.JPG,,,,,,,,,,,,,,,,,,,,,1,6,16,4,,,AFNE01.jpg,AFNE06.jpg,AFSA04.jpg,AFSA07.jpg,AFNE06.jpg,FN,3,num_6,16,num_6,0.783438156475,,,2017_Aug_22_1548,60.0037143909,MAFE4ImagesEEG,001,201274,
AFNE01.JPG,AFNE01.JPG,AFNE01.JPG,AFNE01.JPG,AFNE01.JPG,AFNE01.JPG,,,,,,,,,,,,,,,,,,,,,1,7,17,2,,,AFNE04.jpg,AFSA05.jpg,AFNE08.jpg,AFSA03.jpg,AFSA05.jpg,FS,4,num_6,32,num_8,0.983422247693,,,2017_Aug_22_1548,60.0037143909,MAFE4ImagesEEG,001,201274,
AFNE01.JPG,AFNE01.JPG,AFNE01.JPG,AFNE01.JPG,AFNE01.JPG,AFNE01.JPG,,,,,,,,,,,,,,,,,,,,,1,8,18,1,,,AFSA08.jpg,AFNE02.jpg,AFSA20.jpg,AFNE05.jpg,AFNE02.jpg,FN,3,num_6,16,num_6,0.666779994615,,,2017_Aug_22_1548,60.0037143909,MAFE4ImagesEEG,001,201274,
AFNE01.JPG,AFNE01.JPG,AFNE01.JPG,AFNE01.JPG,AFNE01.JPG,AFNE01.JPG,,,,,,,,,,,,,,,,,,,,,1,9,19,7,,,AFNE15.jpg,AFSA02.jpg,AFNE02.jpg,AFSA11.jpg,AFSA11.jpg,FS,4,num_4,16,num_4,0.80009352765,,,2017_Aug_22_1548,60.0037143909,MAFE4ImagesEEG,001,201274,
AFNE01.JPG,AFNE01.JPG,AFNE01.JPG,AFNE01.JPG,AFNE01.JPG,AFNE01.JPG,,,,,,,,,,,,,,,,,,,,,2,0,20,7,,,AFNE20.jpg,AFNE19.jpg,AFSA08.jpg,AFSA02.jpg,AFSA08.jpg,FS,4,num_2,32,num_8,0.616832483793,,,2017_Aug_22_1548,60.0037143909,MAFE4ImagesEEG,001,201274,
AFNE01.JPG,AFNE01.JPG,AFNE01.JPG,AFNE01.JPG,AFNE01.JPG,AFNE01.JPG,,,,,,,,,,,,,,,,,,,,,2,1,21,5,,,AFSA15.jpg,AFNE07.jpg,AFNE15.jpg,AFSA06.jpg,AFSA06.jpg,FS,4,num_4,32,num_6,0.61691363086,,,2017_Aug_22_1548,60.0037143909,MAFE4ImagesEEG,001,201274,
AFNE01.JPG,AFNE01.JPG,AFNE01.JPG,AFNE01.JPG,AFNE01.JPG,AFNE01.JPG,,,,,,,,,,,,,,,,,,,,,2,2,22,6,,,AFSA20.jpg,AFNE10.jpg,AFSA17.jpg,AFNE04.jpg,AFSA20.jpg,FS,4,num_8,16,num_8,0.716804162483,,,2017_Aug_22_1548,60.0037143909,MAFE4ImagesEEG,001,201274,
AFNE01.JPG,AFNE01.JPG,AFNE01.JPG,AFNE01.JPG,AFNE01.JPG,AFNE01.JPG,,,,,,,,,,,,,,,,,,,,,2,3,23,1,,,AFSA16.jpg,AFNE04.jpg,AFNE13.jpg,AFSA15.jpg,AFNE13.jpg,FN,3,num_2,32,num_8,0.616826068959,,,2017_Aug_22_1548,60.0037143909,MAFE4ImagesEEG,001,201274,
AFNE01.JPG,AFNE01.JPG,AFNE01.JPG,AFNE01.JPG,AFNE01.JPG,AFNE01.JPG,,,,,,,,,,,,,,,,,,,,,2,4,24,4,,,AFSA09.jpg,AFNE11.jpg,AFNE15.jpg,AFSA02.jpg,AFNE15.jpg,FN,3,num_2,32,num_6,1.16682858672,,,2017_Aug_22_1548,60.0037143909,MAFE4ImagesEEG,001,201274,
AFNE01.JPG,AFNE01.JPG,AFNE01.JPG,AFNE01.JPG,AFNE01.JPG,AFNE01.JPG,,,,,,,,,,,,,,,,,,,,,2,5,25,2,,,AFNE15.jpg,AFSA12.jpg,AFSA06.jpg,AFNE09.jpg,AFSA06.jpg,FS,4,num_2,32,num_4,0.899809576804,,,2017_Aug_22_1548,60.0037143909,MAFE4ImagesEEG,001,201274,
AFNE01.JPG,AFNE01.JPG,AFNE01.JPG,AFNE01.JPG,AFNE01.JPG,AFNE01.JPG,,,,,,,,,,,,,,,,,,,,,2,6,26,8,,,AFNE04.jpg,AFSA13.jpg,AFSA07.jpg,AFNE07.jpg,AFNE07.jpg,FN,3,num_4,32,num_6,0.500151870307,,,2017_Aug_22_1548,60.0037143909,MAFE4ImagesEEG,001,201274,
AFNE01.JPG,AFNE01.JPG,AFNE01.JPG,AFNE01.JPG,AFNE01.JPG,AFNE01.JPG,,,,,,,,,,,,,,,,,,,,,2,7,27,3,,,AFSA16.jpg,AFNE17.jpg,AFNE08.jpg,AFSA02.jpg,AFSA16.jpg,FS,4,num_8,16,num_8,0.933442983544,,,2017_Aug_22_1548,60.0037143909,MAFE4ImagesEEG,001,201274,
AFNE01.JPG,AFNE01.JPG,AFNE01.JPG,AFNE01.JPG,AFNE01.JPG,AFNE01.JPG,,,,,,,,,,,,,,,,,,,,,2,8,28,9,,,AFNE01.jpg,AFSA20.jpg,AFSA02.jpg,AFNE17.jpg,AFNE01.jpg,FN,3,num_8,32,num_6,0.550143001718,,,2017_Aug_22_1548,60.0037143909,MAFE4ImagesEEG,001,201274,
AFNE01.JPG,AFNE01.JPG,AFNE01.JPG,AFNE01.JPG,AFNE01.JPG,AFNE01.JPG,,,,,,,,,,,,,,,,,,,,,2,9,29,0,,,AFSA15.jpg,AFSA16.jpg,AFNE10.jpg,AFNE11.jpg,AFNE11.jpg,FN,3,num_4,32,num_2,1.21672894899,,,2017_Aug_22_1548,60.0037143909,MAFE4ImagesEEG,001,201274,
AFNE01.JPG,AFNE01.JPG,AFNE01.JPG,AFNE01.JPG,AFNE01.JPG,AFNE01.JPG,,,,,,,,,,,,,,,,,,,,,3,0,30,1,,,AFSA13.jpg,AFNE01.jpg,AFNE18.jpg,AFSA09.jpg,AFSA13.jpg,FS,4,num_8,16,num_8,0.750171355205,,,2017_Aug_22_1548,60.0037143909,MAFE4ImagesEEG,001,201274,
AFNE01.JPG,AFNE01.JPG,AFNE01.JPG,AFNE01.JPG,AFNE01.JPG,AFNE01.JPG,,,,,,,,,,,,,,,,,,,,,3,1,31,5,,,AFNE08.jpg,AFSA06.jpg,AFSA09.jpg,AFNE03.jpg,AFNE08.jpg,FN,3,num_8,32,num_6,0.483446463593,,,2017_Aug_22_1548,60.0037143909,MAFE4ImagesEEG,001,201274,
AFNE01.JPG,AFNE01.JPG,AFNE01.JPG,AFNE01.JPG,AFNE01.JPG,AFNE01.JPG,,,,,,,,,,,,,,,,,,,,,3,2,32,0,,,AFNE18.jpg,AFSA07.jpg,AFNE06.jpg,AFSA13.jpg,AFNE06.jpg,FN,3,num_2,32,num_8,1.20010501018,,,2017_Aug_22_1548,60.0037143909,MAFE4ImagesEEG,001,201274,
AFNE01.JPG,AFNE01.JPG,AFNE01.JPG,AFNE01.JPG,AFNE01.JPG,AFNE01.JPG,,,,,,,,,,,,,,,,,,,,,3,3,33,6,,,AFSA03.jpg,AFNE09.jpg,AFNE03.jpg,AFSA13.jpg,AFNE09.jpg,FN,3,num_6,16,num_6,0.616781165358,,,2017_Aug_22_1548,60.0037143909,MAFE4ImagesEEG,001,201274,
AFNE01.JPG,AFNE01.JPG,AFNE01.JPG,AFNE01.JPG,AFNE01.JPG,AFNE01.JPG,,,,,,,,,,,,,,,,,,,,,3,4,34,3,,,AFNE05.jpg,AFSA11.jpg,AFNE16.jpg,AFSA16.jpg,AFSA16.jpg,FS,4,num_4,32,num_8,0.733471401036,,,2017_Aug_22_1548,60.0037143909,MAFE4ImagesEEG,001,201274,
AFNE01.JPG,AFNE01.JPG,AFNE01.JPG,AFNE01.JPG,AFNE01.JPG,AFNE01.JPG,,,,,,,,,,,,,,,,,,,,,3,5,35,8,,,AFNE12.jpg,AFNE20.jpg,AFSA10.jpg,AFSA16.jpg,AFSA10.jpg,FS,4,num_2,32,num_6,0.61681484303,,,2017_Aug_22_1548,60.0037143909,MAFE4ImagesEEG,001,201274,
AFNE01.JPG,AFNE01.JPG,AFNE01.JPG,AFNE01.JPG,AFNE01.JPG,AFNE01.JPG,,,,,,,,,,,,,,,,,,,,,3,6,36,7,,,AFNE08.jpg,AFSA01.jpg,AFNE12.jpg,AFSA03.jpg,AFNE08.jpg,FN,3,num_8,16,num_8,0.833525830531,,,2017_Aug_22_1548,60.0037143909,MAFE4ImagesEEG,001,201274,
AFNE01.JPG,AFNE01.JPG,AFNE01.JPG,AFNE01.JPG,AFNE01.JPG,AFNE01.JPG,,,,,,,,,,,,,,,,,,,,,3,7,37,4,,,AFNE03.jpg,AFSA02.jpg,AFSA11.jpg,AFNE04.jpg,AFSA02.jpg,FS,4,num_6,16,num_6,0.700152639998,,,2017_Aug_22_1548,60.0037143909,MAFE4ImagesEEG,001,201274,
AFNE01.JPG,AFNE01.JPG,AFNE01.JPG,AFNE01.JPG,AFNE01.JPG,AFNE01.JPG,,,,,,,,,,,,,,,,,,,,,3,8,38,2,,,AFSA13.jpg,AFSA01.jpg,AFNE11.jpg,AFNE05.jpg,AFSA13.jpg,FS,4,num_8,32,num_4,0.616746846237,,,2017_Aug_22_1548,60.0037143909,MAFE4ImagesEEG,001,201274,
