IPosition2,IPosition3,IPosition1,IPosition6,IPosition4,IPosition5,TrialsF1.thisRepN,TrialsF1.thisTrialN,TrialsF1.thisN,TrialsF1.thisIndex,TrialsM1.thisRepN,TrialsM1.thisTrialN,TrialsM1.thisN,TrialsM1.thisIndex,TrialsF2.thisRepN,TrialsF2.thisTrialN,TrialsF2.thisN,TrialsF2.thisIndex,TrialsM2.thisRepN,TrialsM2.thisTrialN,TrialsM2.thisN,TrialsM2.thisIndex,TrialsF3.thisRepN,TrialsF3.thisTrialN,TrialsF3.thisN,TrialsF3.thisIndex,TrialsM3.thisRepN,TrialsM3.thisTrialN,TrialsM3.thisN,TrialsM3.thisIndex,InstrKey_resp.keys,InstrKey_resp.rt,Image0 _Position,Image1 _Position,Image2 _Position,Image3 _Position,Center_image,condition,code,correct_answer,accuracy,Key_Resp.keys,Key_Resp.rt,BreakKey_resp.keys,BreakKey_resp.rt,date,frameRate,expName,session,participant,
,,,,,,,,,,,,,,,,,,,,,,,,,,,,,,space,2.48333613982,,,,,,,,,,,,,,2017_Aug_29_1046,60.0058316193,FEMA4ImagesEEG,001,201338,
AMNE22.JPG,AMSA24.JPG,AMSA22.JPG,AMNE25.JPG,AMNE24.JPG,AMSA25.JPG,0,0,0,7,,,,,,,,,,,,,,,,,,,,,,,AFNE08.jpg,AFNE15.jpg,AFSA17.jpg,AFSA05.jpg,AFSA17.jpg,FS,4,num_2,32,num_8,0.883429795736,,,2017_Aug_29_1046,60.0058316193,FEMA4ImagesEEG,001,201338,
AFSA25.JPG,AFNE24.JPG,AFSA24.JPG,AFNE21.JPG,AFSA21.JPG,AFNE25.JPG,0,1,1,2,,,,,,,,,,,,,,,,,,,,,,,AFSA20.jpg,AFNE04.jpg,AFNE15.jpg,AFSA11.jpg,AFNE04.jpg,FN,3,num_6,16,num_6,1.30034623831,,,2017_Aug_29_1046,60.0058316193,FEMA4ImagesEEG,001,201338,
AMSA21.JPG,AMNE23.JPG,AMNE21.JPG,AMSA25.JPG,AMNE25.JPG,AMSA23.JPG,0,2,2,5,,,,,,,,,,,,,,,,,,,,,,,AFNE20.jpg,AFNE12.jpg,AFSA14.jpg,AFSA16.jpg,AFSA14.jpg,FS,4,num_2,16,num_2,0.983469727798,,,2017_Aug_29_1046,60.0058316193,FEMA4ImagesEEG,001,201338,
AMSA21.JPG,AMNE22.JPG,AMNE21.JPG,AMSA23.JPG,AMSA22.JPG,AMNE23.JPG,0,3,3,1,,,,,,,,,,,,,,,,,,,,,,,AFNE06.jpg,AFSA20.jpg,AFSA09.jpg,AFNE04.jpg,AFNE04.jpg,FN,3,num_4,32,num_2,1.01678814675,,,2017_Aug_29_1046,60.0058316193,FEMA4ImagesEEG,001,201338,
AMNE23.JPG,AMNE24.JPG,AMNE22.JPG,AMSA24.JPG,AMSA22.JPG,AMSA23.JPG,0,4,4,9,,,,,,,,,,,,,,,,,,,,,,,AFNE10.jpg,AFSA14.jpg,AFNE05.jpg,AFSA04.jpg,AFNE10.jpg,FN,3,num_8,16,num_8,0.700124607305,,,2017_Aug_29_1046,60.0058316193,FEMA4ImagesEEG,001,201338,
AMSA25.JPG,AMNE24.JPG,AMSA24.JPG,AMNE26.JPG,AMSA21.JPG,AMNE25.JPG,0,5,5,3,,,,,,,,,,,,,,,,,,,,,,,AFNE07.jpg,AFSA09.jpg,AFSA04.jpg,AFNE06.jpg,AFNE06.jpg,FN,3,num_4,16,num_4,0.65014280926,,,2017_Aug_29_1046,60.0058316193,FEMA4ImagesEEG,001,201338,
AFSA21.JPG,AFNE23.JPG,AFNE21.JPG,AFSA25.JPG,AFNE25.JPG,AFSA23.JPG,0,6,6,4,,,,,,,,,,,,,,,,,,,,,,,AFNE09.jpg,AFSA11.jpg,AFSA13.jpg,AFNE20.jpg,AFNE20.jpg,FN,3,num_4,32,num_8,0.783427069488,,,2017_Aug_29_1046,60.0058316193,FEMA4ImagesEEG,001,201338,
AFNE23.JPG,AFNE24.JPG,AFNE22.JPG,AFSA24.JPG,AFSA22.JPG,AFSA23.JPG,0,7,7,8,,,,,,,,,,,,,,,,,,,,,,,AFNE09.jpg,AFNE06.jpg,AFSA06.jpg,AFSA20.jpg,AFNE09.jpg,FN,3,num_8,16,num_8,0.733464195044,,,2017_Aug_29_1046,60.0058316193,FEMA4ImagesEEG,001,201338,
AFNE22.JPG,AFSA24.JPG,AFSA22.JPG,AFNE25.JPG,AFNE24.JPG,AFSA25.JPG,0,8,8,6,,,,,,,,,,,,,,,,,,,,,,,AFNE19.jpg,AFSA05.jpg,AFNE15.jpg,AFSA18.jpg,AFNE15.jpg,FN,3,num_2,32,num_8,0.783485123306,,,2017_Aug_29_1046,60.0058316193,FEMA4ImagesEEG,001,201338,
AFSA21.JPG,AFNE22.JPG,AFNE21.JPG,AFSA23.JPG,AFSA22.JPG,AFNE23.JPG,0,9,9,0,,,,,,,,,,,,,,,,,,,,,,,AFSA03.jpg,AFNE07.jpg,AFSA01.jpg,AFNE17.jpg,AFSA03.jpg,FS,4,num_8,32,num_4,0.950184345071,,,2017_Aug_29_1046,60.0058316193,FEMA4ImagesEEG,001,201338,
AFNE23.JPG,AFNE24.JPG,AFNE22.JPG,AFSA24.JPG,AFSA22.JPG,AFSA23.JPG,,,,,0,0,0,8,,,,,,,,,,,,,,,,,,,AMSA02.jpg,AMNE01.jpg,AMNE13.jpg,AMSA03.jpg,AMNE01.jpg,MN,1,num_6,32,num_8,1.15008716099,,,2017_Aug_29_1046,60.0058316193,FEMA4ImagesEEG,001,201338,
AMSA21.JPG,AMNE23.JPG,AMNE21.JPG,AMSA25.JPG,AMNE25.JPG,AMSA23.JPG,,,,,0,1,1,5,,,,,,,,,,,,,,,,,,,AMSA19.jpg,AMSA14.jpg,AMNE19.jpg,AMNE10.jpg,AMNE10.jpg,MN,1,num_4,32,num_8,0.850124847842,,,2017_Aug_29_1046,60.0058316193,FEMA4ImagesEEG,001,201338,
AFSA21.JPG,AFNE22.JPG,AFNE21.JPG,AFSA23.JPG,AFSA22.JPG,AFNE23.JPG,,,,,0,2,2,0,,,,,,,,,,,,,,,,,,,AMSA01.jpg,AMNE04.jpg,AMNE07.jpg,AMSA03.jpg,AMNE07.jpg,MN,1,num_2,16,num_2,1.35005861515,,,2017_Aug_29_1046,60.0058316193,FEMA4ImagesEEG,001,201338,
AMNE22.JPG,AMSA24.JPG,AMSA22.JPG,AMNE25.JPG,AMNE24.JPG,AMSA25.JPG,,,,,0,3,3,7,,,,,,,,,,,,,,,,,,,AMNE15.jpg,AMSA09.jpg,AMNE18.jpg,AMSA11.jpg,AMNE18.jpg,MN,1,num_2,32,num_8,0.700166624156,,,2017_Aug_29_1046,60.0058316193,FEMA4ImagesEEG,001,201338,
AFNE22.JPG,AFSA24.JPG,AFSA22.JPG,AFNE25.JPG,AFNE24.JPG,AFSA25.JPG,,,,,0,4,4,6,,,,,,,,,,,,,,,,,,,AMSA05.jpg,AMSA13.jpg,AMNE09.jpg,AMNE02.jpg,AMNE02.jpg,MN,1,num_4,16,num_4,0.700159567874,,,2017_Aug_29_1046,60.0058316193,FEMA4ImagesEEG,001,201338,
AMSA25.JPG,AMNE24.JPG,AMSA24.JPG,AMNE26.JPG,AMSA21.JPG,AMNE25.JPG,,,,,0,5,5,3,,,,,,,,,,,,,,,,,,,AMNE14.jpg,AMNE11.jpg,AMSA18.jpg,AMSA20.jpg,AMNE14.jpg,MN,1,num_8,16,num_8,0.700138399145,,,2017_Aug_29_1046,60.0058316193,FEMA4ImagesEEG,001,201338,
AMSA21.JPG,AMNE22.JPG,AMNE21.JPG,AMSA23.JPG,AMSA22.JPG,AMNE23.JPG,,,,,0,6,6,1,,,,,,,,,,,,,,,,,,,AMNE05.jpg,AMSA13.jpg,AMSA05.jpg,AMNE16.jpg,AMNE05.jpg,MN,1,num_8,16,num_8,0.766668430704,,,2017_Aug_29_1046,60.0058316193,FEMA4ImagesEEG,001,201338,
AFSA25.JPG,AFNE24.JPG,AFSA24.JPG,AFNE21.JPG,AFSA21.JPG,AFNE25.JPG,,,,,0,7,7,2,,,,,,,,,,,,,,,,,,,AMSA04.jpg,AMSA08.jpg,AMNE04.jpg,AMNE03.jpg,AMNE04.jpg,MN,1,num_2,32,num_8,0.800153313496,,,2017_Aug_29_1046,60.0058316193,FEMA4ImagesEEG,001,201338,
AMNE23.JPG,AMNE24.JPG,AMNE22.JPG,AMSA24.JPG,AMSA22.JPG,AMSA23.JPG,,,,,0,8,8,9,,,,,,,,,,,,,,,,,,,AMNE05.jpg,AMSA06.jpg,AMSA16.jpg,AMNE08.jpg,AMSA06.jpg,MS,2,num_6,32,num_4,0.666779246239,,,2017_Aug_29_1046,60.0058316193,FEMA4ImagesEEG,001,201338,
AFSA21.JPG,AFNE23.JPG,AFNE21.JPG,AFSA25.JPG,AFNE25.JPG,AFSA23.JPG,,,,,0,9,9,4,,,,,,,,,,,,,,,,,,,AMSA03.jpg,AMSA19.jpg,AMNE19.jpg,AMNE08.jpg,AMNE19.jpg,MN,1,num_2,16,num_2,0.700133267266,,,2017_Aug_29_1046,60.0058316193,FEMA4ImagesEEG,001,201338,
AMSA21.JPG,AMNE23.JPG,AMNE21.JPG,AMSA25.JPG,AMNE25.JPG,AMSA23.JPG,,,,,,,,,0,0,0,5,,,,,,,,,,,,,,,AFSA17.jpg,AFNE20.jpg,AFNE09.jpg,AFSA14.jpg,AFNE09.jpg,FN,3,num_2,32,num_8,0.78342546575,,,2017_Aug_29_1046,60.0058316193,FEMA4ImagesEEG,001,201338,
AMSA25.JPG,AMNE24.JPG,AMSA24.JPG,AMNE26.JPG,AMSA21.JPG,AMNE25.JPG,,,,,,,,,0,1,1,3,,,,,,,,,,,,,,,AFNE14.jpg,AFSA17.jpg,AFNE19.jpg,AFSA18.jpg,AFNE19.jpg,FN,3,num_2,16,num_2,1.0001180321,,,2017_Aug_29_1046,60.0058316193,FEMA4ImagesEEG,001,201338,
AFSA25.JPG,AFNE24.JPG,AFSA24.JPG,AFNE21.JPG,AFSA21.JPG,AFNE25.JPG,,,,,,,,,0,2,2,2,,,,,,,,,,,,,,,AFNE18.jpg,AFSA19.jpg,AFSA10.jpg,AFNE07.jpg,AFSA19.jpg,FS,4,num_6,16,num_6,0.850146978919,,,2017_Aug_29_1046,60.0058316193,FEMA4ImagesEEG,001,201338,
AMNE23.JPG,AMNE24.JPG,AMNE22.JPG,AMSA24.JPG,AMSA22.JPG,AMSA23.JPG,,,,,,,,,0,3,3,9,,,,,,,,,,,,,,,AFNE02.jpg,AFNE01.jpg,AFSA13.jpg,AFSA09.jpg,AFSA09.jpg,FS,4,num_4,32,num_2,0.833484561997,,,2017_Aug_29_1046,60.0058316193,FEMA4ImagesEEG,001,201338,
AFNE23.JPG,AFNE24.JPG,AFNE22.JPG,AFSA24.JPG,AFSA22.JPG,AFSA23.JPG,,,,,,,,,0,4,4,8,,,,,,,,,,,,,,,AFNE20.jpg,AFSA10.jpg,AFSA11.jpg,AFNE12.jpg,AFNE20.jpg,FN,3,num_8,16,num_8,0.68354429974,,,2017_Aug_29_1046,60.0058316193,FEMA4ImagesEEG,001,201338,
AMSA21.JPG,AMNE22.JPG,AMNE21.JPG,AMSA23.JPG,AMSA22.JPG,AMNE23.JPG,,,,,,,,,0,5,5,1,,,,,,,,,,,,,,,AFSA02.jpg,AFSA08.jpg,AFNE14.jpg,AFNE19.jpg,AFNE19.jpg,FN,3,num_4,32,num_8,0.783453049371,,,2017_Aug_29_1046,60.0058316193,FEMA4ImagesEEG,001,201338,
AFSA21.JPG,AFNE23.JPG,AFNE21.JPG,AFSA25.JPG,AFNE25.JPG,AFSA23.JPG,,,,,,,,,0,6,6,4,,,,,,,,,,,,,,,AFNE18.jpg,AFNE13.jpg,AFSA11.jpg,AFSA08.jpg,AFNE18.jpg,FN,3,num_8,16,num_8,0.600111617357,,,2017_Aug_29_1046,60.0058316193,FEMA4ImagesEEG,001,201338,
AFNE22.JPG,AFSA24.JPG,AFSA22.JPG,AFNE25.JPG,AFNE24.JPG,AFSA25.JPG,,,,,,,,,0,7,7,6,,,,,,,,,,,,,,,AFSA09.jpg,AFNE10.jpg,AFNE02.jpg,AFSA02.jpg,AFNE02.jpg,FN,3,num_2,32,num_4,0.683468605217,,,2017_Aug_29_1046,60.0058316193,FEMA4ImagesEEG,001,201338,
AMNE22.JPG,AMSA24.JPG,AMSA22.JPG,AMNE25.JPG,AMNE24.JPG,AMSA25.JPG,,,,,,,,,0,8,8,7,,,,,,,,,,,,,,,AFSA08.jpg,AFNE11.jpg,AFSA15.jpg,AFNE08.jpg,AFSA15.jpg,FS,4,num_2,32,num_8,0.866765775194,,,2017_Aug_29_1046,60.0058316193,FEMA4ImagesEEG,001,201338,
AFSA21.JPG,AFNE22.JPG,AFNE21.JPG,AFSA23.JPG,AFSA22.JPG,AFNE23.JPG,,,,,,,,,0,9,9,0,,,,,,,,,,,,,,,AFSA17.jpg,AFNE04.jpg,AFSA02.jpg,AFNE08.jpg,AFNE08.jpg,FN,3,num_4,32,num_2,0.700152190926,,,2017_Aug_29_1046,60.0058316193,FEMA4ImagesEEG,001,201338,
AMNE22.JPG,AMSA24.JPG,AMSA22.JPG,AMNE25.JPG,AMNE24.JPG,AMSA25.JPG,,,,,,,,,,,,,0,0,0,7,,,,,,,,,,,AMSA18.jpg,AMNE12.jpg,AMSA14.jpg,AMNE18.jpg,AMSA18.jpg,MS,2,num_8,32,num_4,0.416752865363,,,2017_Aug_29_1046,60.0058316193,FEMA4ImagesEEG,001,201338,
AMNE23.JPG,AMNE24.JPG,AMNE22.JPG,AMSA24.JPG,AMSA22.JPG,AMSA23.JPG,,,,,,,,,,,,,0,1,1,9,,,,,,,,,,,AMSA20.jpg,AMSA11.jpg,AMNE06.jpg,AMNE08.jpg,AMNE06.jpg,MN,1,num_2,32,num_8,0.466795283195,,,2017_Aug_29_1046,60.0058316193,FEMA4ImagesEEG,001,201338,
AMSA25.JPG,AMNE24.JPG,AMSA24.JPG,AMNE26.JPG,AMSA21.JPG,AMNE25.JPG,,,,,,,,,,,,,0,2,2,3,,,,,,,,,,,AMNE05.jpg,AMSA08.jpg,AMNE07.jpg,AMSA05.jpg,AMSA08.jpg,MS,2,num_6,16,num_6,0.833455053973,,,2017_Aug_29_1046,60.0058316193,FEMA4ImagesEEG,001,201338,
AFNE23.JPG,AFNE24.JPG,AFNE22.JPG,AFSA24.JPG,AFSA22.JPG,AFSA23.JPG,,,,,,,,,,,,,0,3,3,8,,,,,,,,,,,AMNE19.jpg,AMNE18.jpg,AMSA06.jpg,AMSA15.jpg,AMSA15.jpg,MS,2,num_4,16,num_4,0.683596259507,,,2017_Aug_29_1046,60.0058316193,FEMA4ImagesEEG,001,201338,
AFSA25.JPG,AFNE24.JPG,AFSA24.JPG,AFNE21.JPG,AFSA21.JPG,AFNE25.JPG,,,,,,,,,,,,,0,4,4,2,,,,,,,,,,,AMSA11.jpg,AMSA06.jpg,AMNE11.jpg,AMNE17.jpg,AMSA11.jpg,MS,2,num_8,32,num_6,0.866820621595,,,2017_Aug_29_1046,60.0058316193,FEMA4ImagesEEG,001,201338,
AFSA21.JPG,AFNE22.JPG,AFNE21.JPG,AFSA23.JPG,AFSA22.JPG,AFNE23.JPG,,,,,,,,,,,,,0,5,5,0,,,,,,,,,,,AMSA15.jpg,AMSA02.jpg,AMNE09.jpg,AMNE15.jpg,AMNE15.jpg,MN,1,num_4,32,num_8,0.816823428089,,,2017_Aug_29_1046,60.0058316193,FEMA4ImagesEEG,001,201338,
AFSA21.JPG,AFNE23.JPG,AFNE21.JPG,AFSA25.JPG,AFNE25.JPG,AFSA23.JPG,,,,,,,,,,,,,0,6,6,4,,,,,,,,,,,AMSA12.jpg,AMSA16.jpg,AMNE20.jpg,AMNE14.jpg,AMSA16.jpg,MS,2,num_6,32,num_2,1.73343372485,,,2017_Aug_29_1046,60.0058316193,FEMA4ImagesEEG,001,201338,
AMSA21.JPG,AMNE22.JPG,AMNE21.JPG,AMSA23.JPG,AMSA22.JPG,AMNE23.JPG,,,,,,,,,,,,,0,7,7,1,,,,,,,,,,,AMNE02.jpg,AMNE09.jpg,AMSA02.jpg,AMSA11.jpg,AMNE02.jpg,MN,1,num_8,32,num_4,0.550210324931,,,2017_Aug_29_1046,60.0058316193,FEMA4ImagesEEG,001,201338,
AMSA21.JPG,AMNE23.JPG,AMNE21.JPG,AMSA25.JPG,AMNE25.JPG,AMSA23.JPG,,,,,,,,,,,,,0,8,8,5,,,,,,,,,,,AMSA02.jpg,AMSA07.jpg,AMNE17.jpg,AMNE03.jpg,AMSA07.jpg,MS,2,num_6,32,num_4,0.733467081678,,,2017_Aug_29_1046,60.0058316193,FEMA4ImagesEEG,001,201338,
AFNE22.JPG,AFSA24.JPG,AFSA22.JPG,AFNE25.JPG,AFNE24.JPG,AFSA25.JPG,,,,,,,,,,,,,0,9,9,6,,,,,,,,,,,AMNE04.jpg,AMNE15.jpg,AMSA13.jpg,AMSA07.jpg,AMSA07.jpg,MS,2,num_4,16,num_4,0.500140323536,,,2017_Aug_29_1046,60.0058316193,FEMA4ImagesEEG,001,201338,
AMSA21.JPG,AMNE22.JPG,AMNE21.JPG,AMSA23.JPG,AMSA22.JPG,AMNE23.JPG,,,,,,,,,,,,,,,,,0,0,0,1,,,,,,,AFNE01.jpg,AFSA08.jpg,AFNE19.jpg,AFSA16.jpg,AFNE01.jpg,FN,3,num_8,32,num_4,0.716798570764,,,2017_Aug_29_1046,60.0058316193,FEMA4ImagesEEG,001,201338,
AMSA25.JPG,AMNE24.JPG,AMSA24.JPG,AMNE26.JPG,AMSA21.JPG,AMNE25.JPG,,,,,,,,,,,,,,,,,0,1,1,3,,,,,,,AFSA12.jpg,AFNE09.jpg,AFSA15.jpg,AFNE06.jpg,AFNE09.jpg,FN,3,num_6,32,num_2,0.750178571674,,,2017_Aug_29_1046,60.0058316193,FEMA4ImagesEEG,001,201338,
AMNE22.JPG,AMSA24.JPG,AMSA22.JPG,AMNE25.JPG,AMNE24.JPG,AMSA25.JPG,,,,,,,,,,,,,,,,,0,2,2,7,,,,,,,AFSA02.jpg,AFNE04.jpg,AFSA11.jpg,AFNE19.jpg,AFNE19.jpg,FN,3,num_4,16,num_4,0.50014737976,,,2017_Aug_29_1046,60.0058316193,FEMA4ImagesEEG,001,201338,
AFNE23.JPG,AFNE24.JPG,AFNE22.JPG,AFSA24.JPG,AFSA22.JPG,AFSA23.JPG,,,,,,,,,,,,,,,,,0,3,3,8,,,,,,,AFNE13.jpg,AFSA02.jpg,AFSA10.jpg,AFNE12.jpg,AFNE13.jpg,FN,3,num_8,16,num_8,0.766749257105,,,2017_Aug_29_1046,60.0058316193,FEMA4ImagesEEG,001,201338,
AMNE23.JPG,AMNE24.JPG,AMNE22.JPG,AMSA24.JPG,AMSA22.JPG,AMSA23.JPG,,,,,,,,,,,,,,,,,0,4,4,9,,,,,,,AFNE17.jpg,AFSA14.jpg,AFNE19.jpg,AFSA17.jpg,AFNE19.jpg,FN,3,num_2,16,num_2,0.816631946596,,,2017_Aug_29_1046,60.0058316193,FEMA4ImagesEEG,001,201338,
AFSA21.JPG,AFNE22.JPG,AFNE21.JPG,AFSA23.JPG,AFSA22.JPG,AFNE23.JPG,,,,,,,,,,,,,,,,,0,5,5,0,,,,,,,AFSA10.jpg,AFNE02.jpg,AFSA20.jpg,AFNE12.jpg,AFNE02.jpg,FN,3,num_6,16,num_6,0.833474298357,,,2017_Aug_29_1046,60.0058316193,FEMA4ImagesEEG,001,201338,
AFSA21.JPG,AFNE23.JPG,AFNE21.JPG,AFSA25.JPG,AFNE25.JPG,AFSA23.JPG,,,,,,,,,,,,,,,,,0,6,6,4,,,,,,,AFSA12.jpg,AFNE04.jpg,AFNE09.jpg,AFSA05.jpg,AFNE04.jpg,FN,3,num_6,16,num_6,0.766792877694,,,2017_Aug_29_1046,60.0058316193,FEMA4ImagesEEG,001,201338,
AFSA25.JPG,AFNE24.JPG,AFSA24.JPG,AFNE21.JPG,AFSA21.JPG,AFNE25.JPG,,,,,,,,,,,,,,,,,0,7,7,2,,,,,,,AFSA20.jpg,AFSA17.jpg,AFNE07.jpg,AFNE11.jpg,AFNE11.jpg,FN,3,num_4,32,num_2,0.900145134656,,,2017_Aug_29_1046,60.0058316193,FEMA4ImagesEEG,001,201338,
AFNE22.JPG,AFSA24.JPG,AFSA22.JPG,AFNE25.JPG,AFNE24.JPG,AFSA25.JPG,,,,,,,,,,,,,,,,,0,8,8,6,,,,,,,AFSA04.jpg,AFNE13.jpg,AFSA09.jpg,AFNE01.jpg,AFSA04.jpg,FS,4,num_8,16,num_8,0.633481996076,,,2017_Aug_29_1046,60.0058316193,FEMA4ImagesEEG,001,201338,
AMSA21.JPG,AMNE23.JPG,AMNE21.JPG,AMSA25.JPG,AMNE25.JPG,AMSA23.JPG,,,,,,,,,,,,,,,,,0,9,9,5,,,,,,,AFSA12.jpg,AFNE19.jpg,AFNE09.jpg,AFSA10.jpg,AFSA12.jpg,FS,4,num_8,16,num_8,0.716765213874,,,2017_Aug_29_1046,60.0058316193,FEMA4ImagesEEG,001,201338,
AFNE22.JPG,AFSA24.JPG,AFSA22.JPG,AFNE25.JPG,AFNE24.JPG,AFSA25.JPG,,,,,,,,,,,,,,,,,,,,,0,0,0,6,,,AMSA07.jpg,AMNE05.jpg,AMNE03.jpg,AMSA03.jpg,AMSA03.jpg,MS,2,num_4,32,num_6,0.800444865657,,,2017_Aug_29_1046,60.0058316193,FEMA4ImagesEEG,001,201338,
AFSA25.JPG,AFNE24.JPG,AFSA24.JPG,AFNE21.JPG,AFSA21.JPG,AFNE25.JPG,,,,,,,,,,,,,,,,,,,,,0,1,1,2,,,AMNE19.jpg,AMSA06.jpg,AMSA05.jpg,AMNE09.jpg,AMSA05.jpg,MS,2,num_2,32,num_4,0.900152190879,,,2017_Aug_29_1046,60.0058316193,FEMA4ImagesEEG,001,201338,
AFSA21.JPG,AFNE22.JPG,AFNE21.JPG,AFSA23.JPG,AFSA22.JPG,AFNE23.JPG,,,,,,,,,,,,,,,,,,,,,0,2,2,0,,,AMNE08.jpg,AMNE18.jpg,AMSA03.jpg,AMSA18.jpg,AMNE08.jpg,MN,1,num_8,32,num_2,1.06676737888,,,2017_Aug_29_1046,60.0058316193,FEMA4ImagesEEG,001,201338,
AMNE23.JPG,AMNE24.JPG,AMNE22.JPG,AMSA24.JPG,AMSA22.JPG,AMSA23.JPG,,,,,,,,,,,,,,,,,,,,,0,3,3,9,,,AMSA01.jpg,AMNE04.jpg,AMSA12.jpg,AMNE01.jpg,AMNE04.jpg,MN,1,num_6,16,num_6,0.366787104402,,,2017_Aug_29_1046,60.0058316193,FEMA4ImagesEEG,001,201338,
AFSA21.JPG,AFNE23.JPG,AFNE21.JPG,AFSA25.JPG,AFNE25.JPG,AFSA23.JPG,,,,,,,,,,,,,,,,,,,,,0,4,4,4,,,AMSA12.jpg,AMSA10.jpg,AMNE05.jpg,AMNE15.jpg,AMNE05.jpg,MN,1,num_2,32,num_8,0.500160530151,,,2017_Aug_29_1046,60.0058316193,FEMA4ImagesEEG,001,201338,
AFNE23.JPG,AFNE24.JPG,AFNE22.JPG,AFSA24.JPG,AFSA22.JPG,AFSA23.JPG,,,,,,,,,,,,,,,,,,,,,0,5,5,8,,,AMNE13.jpg,AMNE17.jpg,AMSA17.jpg,AMSA14.jpg,AMSA14.jpg,MS,2,num_4,16,num_4,0.633516315254,,,2017_Aug_29_1046,60.0058316193,FEMA4ImagesEEG,001,201338,
AMSA25.JPG,AMNE24.JPG,AMSA24.JPG,AMNE26.JPG,AMSA21.JPG,AMNE25.JPG,,,,,,,,,,,,,,,,,,,,,0,6,6,3,,,AMSA07.jpg,AMNE08.jpg,AMSA05.jpg,AMNE03.jpg,AMNE08.jpg,MN,1,num_6,32,num_4,0.716822947026,,,2017_Aug_29_1046,60.0058316193,FEMA4ImagesEEG,001,201338,
AMSA21.JPG,AMNE22.JPG,AMNE21.JPG,AMSA23.JPG,AMSA22.JPG,AMNE23.JPG,,,,,,,,,,,,,,,,,,,,,0,7,7,1,,,AMNE10.jpg,AMSA06.jpg,AMNE01.jpg,AMSA13.jpg,AMSA06.jpg,MS,2,num_6,32,num_8,0.966829441953,,,2017_Aug_29_1046,60.0058316193,FEMA4ImagesEEG,001,201338,
AMNE22.JPG,AMSA24.JPG,AMSA22.JPG,AMNE25.JPG,AMNE24.JPG,AMSA25.JPG,,,,,,,,,,,,,,,,,,,,,0,8,8,7,,,AMNE07.jpg,AMNE12.jpg,AMSA03.jpg,AMSA04.jpg,AMSA03.jpg,MS,2,num_2,32,num_4,0.849948120362,,,2017_Aug_29_1046,60.0058316193,FEMA4ImagesEEG,001,201338,
AMSA21.JPG,AMNE23.JPG,AMNE21.JPG,AMSA25.JPG,AMNE25.JPG,AMSA23.JPG,,,,,,,,,,,,,,,,,,,,,0,9,9,5,,,AMNE10.jpg,AMSA13.jpg,AMSA08.jpg,AMNE09.jpg,AMNE10.jpg,MN,1,num_8,32,num_4,0.766767539259,,,2017_Aug_29_1046,60.0058316193,FEMA4ImagesEEG,001,201338,
,,,,,,,,,,,,,,,,,,,,,,,,,,,,,,,,,,,,,,,,,,,space,3.38327311451,2017_Aug_29_1046,60.0058316193,FEMA4ImagesEEG,001,201338,
AFNE01.JPG,AFNE01.JPG,AFNE01.JPG,AFNE01.JPG,AFNE01.JPG,AFNE01.JPG,0,0,0,3,,,,,,,,,,,,,,,,,,,,,,,AFSA07.jpg,AFNE16.jpg,AFNE10.jpg,AFSA08.jpg,AFNE16.jpg,FN,3,num_6,32,num_4,0.783443427179,,,2017_Aug_29_1046,60.0058316193,FEMA4ImagesEEG,001,201338,
AFNE01.JPG,AFNE01.JPG,AFNE01.JPG,AFNE01.JPG,AFNE01.JPG,AFNE01.JPG,0,1,1,7,,,,,,,,,,,,,,,,,,,,,,,AFSA15.jpg,AFNE02.jpg,AFSA14.jpg,AFNE01.jpg,AFSA15.jpg,FS,4,num_8,16,num_8,0.85014088481,,,2017_Aug_29_1046,60.0058316193,FEMA4ImagesEEG,001,201338,
AFNE01.JPG,AFNE01.JPG,AFNE01.JPG,AFNE01.JPG,AFNE01.JPG,AFNE01.JPG,0,2,2,8,,,,,,,,,,,,,,,,,,,,,,,AFNE09.jpg,AFSA06.jpg,AFSA02.jpg,AFNE10.jpg,AFSA06.jpg,FS,4,num_6,32,num_2,1.03345569543,,,2017_Aug_29_1046,60.0058316193,FEMA4ImagesEEG,001,201338,
AFNE01.JPG,AFNE01.JPG,AFNE01.JPG,AFNE01.JPG,AFNE01.JPG,AFNE01.JPG,0,3,3,2,,,,,,,,,,,,,,,,,,,,,,,AFNE05.jpg,AFSA09.jpg,AFNE10.jpg,AFSA03.jpg,AFNE05.jpg,FN,3,num_8,32,num_4,0.716667067551,,,2017_Aug_29_1046,60.0058316193,FEMA4ImagesEEG,001,201338,
AFNE01.JPG,AFNE01.JPG,AFNE01.JPG,AFNE01.JPG,AFNE01.JPG,AFNE01.JPG,0,4,4,4,,,,,,,,,,,,,,,,,,,,,,,AFSA05.jpg,AFSA03.jpg,AFNE20.jpg,AFNE01.jpg,AFNE01.jpg,FN,3,num_4,32,num_8,0.916744365823,,,2017_Aug_29_1046,60.0058316193,FEMA4ImagesEEG,001,201338,
AFNE01.JPG,AFNE01.JPG,AFNE01.JPG,AFNE01.JPG,AFNE01.JPG,AFNE01.JPG,0,5,5,5,,,,,,,,,,,,,,,,,,,,,,,AFSA20.jpg,AFNE06.jpg,AFNE05.jpg,AFSA09.jpg,AFNE05.jpg,FN,3,num_2,32,num_8,0.800107126997,,,2017_Aug_29_1046,60.0058316193,FEMA4ImagesEEG,001,201338,
AFNE01.JPG,AFNE01.JPG,AFNE01.JPG,AFNE01.JPG,AFNE01.JPG,AFNE01.JPG,0,6,6,6,,,,,,,,,,,,,,,,,,,,,,,AFNE16.jpg,AFNE04.jpg,AFSA04.jpg,AFSA06.jpg,AFNE04.jpg,FN,3,num_6,16,num_6,0.699994066323,,,2017_Aug_29_1046,60.0058316193,FEMA4ImagesEEG,001,201338,
AFNE01.JPG,AFNE01.JPG,AFNE01.JPG,AFNE01.JPG,AFNE01.JPG,AFNE01.JPG,0,7,7,1,,,,,,,,,,,,,,,,,,,,,,,AFSA15.jpg,AFNE14.jpg,AFSA02.jpg,AFNE10.jpg,AFSA02.jpg,FS,4,num_2,32,num_6,1.2832893118,,,2017_Aug_29_1046,60.0058316193,FEMA4ImagesEEG,001,201338,
AFNE01.JPG,AFNE01.JPG,AFNE01.JPG,AFNE01.JPG,AFNE01.JPG,AFNE01.JPG,0,8,8,0,,,,,,,,,,,,,,,,,,,,,,,AFNE04.jpg,AFSA16.jpg,AFNE01.jpg,AFSA11.jpg,AFNE01.jpg,FN,3,num_2,32,num_6,1.0833143295,,,2017_Aug_29_1046,60.0058316193,FEMA4ImagesEEG,001,201338,
AFNE01.JPG,AFNE01.JPG,AFNE01.JPG,AFNE01.JPG,AFNE01.JPG,AFNE01.JPG,0,9,9,9,,,,,,,,,,,,,,,,,,,,,,,AFNE17.jpg,AFSA05.jpg,AFSA10.jpg,AFNE06.jpg,AFSA10.jpg,FS,4,num_2,32,num_6,0.583500518755,,,2017_Aug_29_1046,60.0058316193,FEMA4ImagesEEG,001,201338,
AFNE01.JPG,AFNE01.JPG,AFNE01.JPG,AFNE01.JPG,AFNE01.JPG,AFNE01.JPG,1,0,10,1,,,,,,,,,,,,,,,,,,,,,,,AFSA10.jpg,AFSA02.jpg,AFNE13.jpg,AFNE16.jpg,AFNE13.jpg,FN,3,num_2,32,num_8,0.883473737049,,,2017_Aug_29_1046,60.0058316193,FEMA4ImagesEEG,001,201338,
AFNE01.JPG,AFNE01.JPG,AFNE01.JPG,AFNE01.JPG,AFNE01.JPG,AFNE01.JPG,1,1,11,9,,,,,,,,,,,,,,,,,,,,,,,AFNE13.jpg,AFSA20.jpg,AFNE06.jpg,AFSA15.jpg,AFNE06.jpg,FN,3,num_2,16,num_2,1.26677218999,,,2017_Aug_29_1046,60.0058316193,FEMA4ImagesEEG,001,201338,
AFNE01.JPG,AFNE01.JPG,AFNE01.JPG,AFNE01.JPG,AFNE01.JPG,AFNE01.JPG,1,2,12,8,,,,,,,,,,,,,,,,,,,,,,,AFSA15.jpg,AFSA19.jpg,AFNE07.jpg,AFNE14.jpg,AFSA19.jpg,FS,4,num_6,32,num_4,1.01672720624,,,2017_Aug_29_1046,60.0058316193,FEMA4ImagesEEG,001,201338,
AFNE01.JPG,AFNE01.JPG,AFNE01.JPG,AFNE01.JPG,AFNE01.JPG,AFNE01.JPG,1,3,13,6,,,,,,,,,,,,,,,,,,,,,,,AFNE14.jpg,AFSA02.jpg,AFNE10.jpg,AFSA10.jpg,AFSA10.jpg,FS,4,num_4,16,num_4,0.750100632024,,,2017_Aug_29_1046,60.0058316193,FEMA4ImagesEEG,001,201338,
AFNE01.JPG,AFNE01.JPG,AFNE01.JPG,AFNE01.JPG,AFNE01.JPG,AFNE01.JPG,1,4,14,5,,,,,,,,,,,,,,,,,,,,,,,AFNE12.jpg,AFSA11.jpg,AFSA01.jpg,AFNE03.jpg,AFNE12.jpg,FN,3,num_8,16,num_8,0.866760964098,,,2017_Aug_29_1046,60.0058316193,FEMA4ImagesEEG,001,201338,
AFNE01.JPG,AFNE01.JPG,AFNE01.JPG,AFNE01.JPG,AFNE01.JPG,AFNE01.JPG,1,5,15,2,,,,,,,,,,,,,,,,,,,,,,,AFSA16.jpg,AFSA03.jpg,AFNE16.jpg,AFNE03.jpg,AFSA16.jpg,FS,4,num_8,32,num_4,0.700143210241,,,2017_Aug_29_1046,60.0058316193,FEMA4ImagesEEG,001,201338,
AFNE01.JPG,AFNE01.JPG,AFNE01.JPG,AFNE01.JPG,AFNE01.JPG,AFNE01.JPG,1,6,16,0,,,,,,,,,,,,,,,,,,,,,,,AFNE07.jpg,AFSA15.jpg,AFSA09.jpg,AFNE06.jpg,AFNE07.jpg,FN,3,num_8,16,num_8,0.833452488063,,,2017_Aug_29_1046,60.0058316193,FEMA4ImagesEEG,001,201338,
AFNE01.JPG,AFNE01.JPG,AFNE01.JPG,AFNE01.JPG,AFNE01.JPG,AFNE01.JPG,1,7,17,7,,,,,,,,,,,,,,,,,,,,,,,AFSA01.jpg,AFNE02.jpg,AFNE11.jpg,AFSA17.jpg,AFSA01.jpg,FS,4,num_8,32,num_4,0.833405339392,,,2017_Aug_29_1046,60.0058316193,FEMA4ImagesEEG,001,201338,
AFNE01.JPG,AFNE01.JPG,AFNE01.JPG,AFNE01.JPG,AFNE01.JPG,AFNE01.JPG,1,8,18,4,,,,,,,,,,,,,,,,,,,,,,,AFNE08.jpg,AFSA09.jpg,AFSA15.jpg,AFNE09.jpg,AFNE08.jpg,FN,3,num_8,16,num_8,1.13341095235,,,2017_Aug_29_1046,60.0058316193,FEMA4ImagesEEG,001,201338,
AFNE01.JPG,AFNE01.JPG,AFNE01.JPG,AFNE01.JPG,AFNE01.JPG,AFNE01.JPG,1,9,19,3,,,,,,,,,,,,,,,,,,,,,,,AFSA15.jpg,AFNE07.jpg,AFSA20.jpg,AFNE17.jpg,AFNE07.jpg,FN,3,num_6,32,num_8,0.816754789848,,,2017_Aug_29_1046,60.0058316193,FEMA4ImagesEEG,001,201338,
AFNE01.JPG,AFNE01.JPG,AFNE01.JPG,AFNE01.JPG,AFNE01.JPG,AFNE01.JPG,2,0,20,1,,,,,,,,,,,,,,,,,,,,,,,AFNE03.jpg,AFNE19.jpg,AFSA17.jpg,AFSA03.jpg,AFSA17.jpg,FS,4,num_2,32,num_4,0.683563864848,,,2017_Aug_29_1046,60.0058316193,FEMA4ImagesEEG,001,201338,
AFNE01.JPG,AFNE01.JPG,AFNE01.JPG,AFNE01.JPG,AFNE01.JPG,AFNE01.JPG,2,1,21,6,,,,,,,,,,,,,,,,,,,,,,,AFNE06.jpg,AFSA04.jpg,AFNE03.jpg,AFSA07.jpg,AFNE03.jpg,FN,3,num_2,32,num_8,0.766764973348,,,2017_Aug_29_1046,60.0058316193,FEMA4ImagesEEG,001,201338,
AFNE01.JPG,AFNE01.JPG,AFNE01.JPG,AFNE01.JPG,AFNE01.JPG,AFNE01.JPG,2,2,22,7,,,,,,,,,,,,,,,,,,,,,,,AFNE05.jpg,AFSA02.jpg,AFNE20.jpg,AFSA04.jpg,AFNE05.jpg,FN,3,num_8,32,num_6,1.38349602849,,,2017_Aug_29_1046,60.0058316193,FEMA4ImagesEEG,001,201338,
AFNE01.JPG,AFNE01.JPG,AFNE01.JPG,AFNE01.JPG,AFNE01.JPG,AFNE01.JPG,2,3,23,8,,,,,,,,,,,,,,,,,,,,,,,AFNE01.jpg,AFNE07.jpg,AFSA15.jpg,AFSA17.jpg,AFNE07.jpg,FN,3,num_6,16,num_6,0.800116107683,,,2017_Aug_29_1046,60.0058316193,FEMA4ImagesEEG,001,201338,
AFNE01.JPG,AFNE01.JPG,AFNE01.JPG,AFNE01.JPG,AFNE01.JPG,AFNE01.JPG,2,4,24,4,,,,,,,,,,,,,,,,,,,,,,,AFNE08.jpg,AFSA20.jpg,AFNE12.jpg,AFSA17.jpg,AFSA17.jpg,FS,4,num_4,16,num_4,1.06675551151,,,2017_Aug_29_1046,60.0058316193,FEMA4ImagesEEG,001,201338,
AFNE01.JPG,AFNE01.JPG,AFNE01.JPG,AFNE01.JPG,AFNE01.JPG,AFNE01.JPG,2,5,25,0,,,,,,,,,,,,,,,,,,,,,,,AFSA16.jpg,AFSA09.jpg,AFNE01.jpg,AFNE08.jpg,AFSA16.jpg,FS,4,num_8,32,num_6,1.28334223386,,,2017_Aug_29_1046,60.0058316193,FEMA4ImagesEEG,001,201338,
AFNE01.JPG,AFNE01.JPG,AFNE01.JPG,AFNE01.JPG,AFNE01.JPG,AFNE01.JPG,2,6,26,2,,,,,,,,,,,,,,,,,,,,,,,AFSA10.jpg,AFSA03.jpg,AFNE17.jpg,AFNE04.jpg,AFNE17.jpg,FN,3,num_2,32,num_6,1.18347165227,,,2017_Aug_29_1046,60.0058316193,FEMA4ImagesEEG,001,201338,
AFNE01.JPG,AFNE01.JPG,AFNE01.JPG,AFNE01.JPG,AFNE01.JPG,AFNE01.JPG,2,7,27,3,,,,,,,,,,,,,,,,,,,,,,,AFSA17.jpg,AFNE12.jpg,AFSA01.jpg,AFNE04.jpg,AFNE04.jpg,FN,3,num_4,16,num_4,0.483529545774,,,2017_Aug_29_1046,60.0058316193,FEMA4ImagesEEG,001,201338,
AFNE01.JPG,AFNE01.JPG,AFNE01.JPG,AFNE01.JPG,AFNE01.JPG,AFNE01.JPG,2,8,28,5,,,,,,,,,,,,,,,,,,,,,,,AFSA13.jpg,AFNE07.jpg,AFSA01.jpg,AFNE10.jpg,AFNE10.jpg,FN,3,num_4,16,num_4,0.633470128698,,,2017_Aug_29_1046,60.0058316193,FEMA4ImagesEEG,001,201338,
AFNE01.JPG,AFNE01.JPG,AFNE01.JPG,AFNE01.JPG,AFNE01.JPG,AFNE01.JPG,2,9,29,9,,,,,,,,,,,,,,,,,,,,,,,AFSA02.jpg,AFNE08.jpg,AFSA12.jpg,AFNE19.jpg,AFNE08.jpg,FN,3,num_6,32,num_4,1.10005725198,,,2017_Aug_29_1046,60.0058316193,FEMA4ImagesEEG,001,201338,
AFNE01.JPG,AFNE01.JPG,AFNE01.JPG,AFNE01.JPG,AFNE01.JPG,AFNE01.JPG,3,0,30,2,,,,,,,,,,,,,,,,,,,,,,,AFSA07.jpg,AFNE18.jpg,AFNE15.jpg,AFSA05.jpg,AFNE15.jpg,FN,3,num_2,16,num_2,1.21674709208,,,2017_Aug_29_1046,60.0058316193,FEMA4ImagesEEG,001,201338,
AFNE01.JPG,AFNE01.JPG,AFNE01.JPG,AFNE01.JPG,AFNE01.JPG,AFNE01.JPG,3,1,31,7,,,,,,,,,,,,,,,,,,,,,,,AFSA08.jpg,AFSA05.jpg,AFNE12.jpg,AFNE06.jpg,AFSA05.jpg,FS,4,num_6,16,num_6,0.7834742181,,,2017_Aug_29_1046,60.0058316193,FEMA4ImagesEEG,001,201338,
AFNE01.JPG,AFNE01.JPG,AFNE01.JPG,AFNE01.JPG,AFNE01.JPG,AFNE01.JPG,3,2,32,5,,,,,,,,,,,,,,,,,,,,,,,AFSA17.jpg,AFSA11.jpg,AFNE20.jpg,AFNE10.jpg,AFSA11.jpg,FS,4,num_6,16,num_6,0.667035196384,,,2017_Aug_29_1046,60.0058316193,FEMA4ImagesEEG,001,201338,
AFNE01.JPG,AFNE01.JPG,AFNE01.JPG,AFNE01.JPG,AFNE01.JPG,AFNE01.JPG,3,3,33,6,,,,,,,,,,,,,,,,,,,,,,,AFNE08.jpg,AFSA05.jpg,AFSA17.jpg,AFNE14.jpg,AFSA05.jpg,FS,4,num_6,16,num_6,0.866768661828,,,2017_Aug_29_1046,60.0058316193,FEMA4ImagesEEG,001,201338,
AFNE01.JPG,AFNE01.JPG,AFNE01.JPG,AFNE01.JPG,AFNE01.JPG,AFNE01.JPG,3,4,34,3,,,,,,,,,,,,,,,,,,,,,,,AFNE07.jpg,AFSA03.jpg,AFNE03.jpg,AFSA02.jpg,AFNE03.jpg,FN,3,num_2,32,num_4,0.833376152092,,,2017_Aug_29_1046,60.0058316193,FEMA4ImagesEEG,001,201338,
AFNE01.JPG,AFNE01.JPG,AFNE01.JPG,AFNE01.JPG,AFNE01.JPG,AFNE01.JPG,3,5,35,8,,,,,,,,,,,,,,,,,,,,,,,AFNE12.jpg,AFNE13.jpg,AFSA15.jpg,AFSA03.jpg,AFSA03.jpg,FS,4,num_4,16,num_4,1.06674717233,,,2017_Aug_29_1046,60.0058316193,FEMA4ImagesEEG,001,201338,
AFNE01.JPG,AFNE01.JPG,AFNE01.JPG,AFNE01.JPG,AFNE01.JPG,AFNE01.JPG,3,6,36,1,,,,,,,,,,,,,,,,,,,,,,,AFNE14.jpg,AFNE17.jpg,AFSA03.jpg,AFSA08.jpg,AFNE14.jpg,FN,3,num_8,16,num_8,0.96677170886,,,2017_Aug_29_1046,60.0058316193,FEMA4ImagesEEG,001,201338,
AFNE01.JPG,AFNE01.JPG,AFNE01.JPG,AFNE01.JPG,AFNE01.JPG,AFNE01.JPG,3,7,37,4,,,,,,,,,,,,,,,,,,,,,,,AFSA15.jpg,AFNE03.jpg,AFSA01.jpg,AFNE09.jpg,AFNE03.jpg,FN,3,num_6,32,num_2,1.96666778927,,,2017_Aug_29_1046,60.0058316193,FEMA4ImagesEEG,001,201338,
AFNE01.JPG,AFNE01.JPG,AFNE01.JPG,AFNE01.JPG,AFNE01.JPG,AFNE01.JPG,3,8,38,9,,,,,,,,,,,,,,,,,,,,,,,AFNE01.jpg,AFSA05.jpg,AFNE14.jpg,AFSA12.jpg,AFNE14.jpg,FN,3,num_2,16,num_2,0.750136234099,,,2017_Aug_29_1046,60.0058316193,FEMA4ImagesEEG,001,201338,
AFNE01.JPG,AFNE01.JPG,AFNE01.JPG,AFNE01.JPG,AFNE01.JPG,AFNE01.JPG,3,9,39,0,,,,,,,,,,,,,,,,,,,,,,,AFSA01.jpg,AFNE17.jpg,AFNE12.jpg,AFSA11.jpg,AFNE12.jpg,FN,3,num_2,16,num_2,0.7501946087,,,2017_Aug_29_1046,60.0058316193,FEMA4ImagesEEG,001,201338,
AFNE01.JPG,AFNE01.JPG,AFNE01.JPG,AFNE01.JPG,AFNE01.JPG,AFNE01.JPG,4,0,40,9,,,,,,,,,,,,,,,,,,,,,,,AFSA05.jpg,AFNE17.jpg,AFNE08.jpg,AFSA07.jpg,AFSA05.jpg,FS,4,num_8,32,num_6,0.700189396681,,,2017_Aug_29_1046,60.0058316193,FEMA4ImagesEEG,001,201338,
AFNE01.JPG,AFNE01.JPG,AFNE01.JPG,AFNE01.JPG,AFNE01.JPG,AFNE01.JPG,4,1,41,8,,,,,,,,,,,,,,,,,,,,,,,AFNE14.jpg,AFNE19.jpg,AFSA10.jpg,AFSA16.jpg,AFSA16.jpg,FS,4,num_4,16,num_4,1.15022956929,,,2017_Aug_29_1046,60.0058316193,FEMA4ImagesEEG,001,201338,
AFNE01.JPG,AFNE01.JPG,AFNE01.JPG,AFNE01.JPG,AFNE01.JPG,AFNE01.JPG,4,2,42,3,,,,,,,,,,,,,,,,,,,,,,,AFSA17.jpg,AFNE06.jpg,AFNE08.jpg,AFSA02.jpg,AFNE06.jpg,FN,3,num_6,32,num_4,1.98343829537,,,2017_Aug_29_1046,60.0058316193,FEMA4ImagesEEG,001,201338,
AFNE01.JPG,AFNE01.JPG,AFNE01.JPG,AFNE01.JPG,AFNE01.JPG,AFNE01.JPG,4,3,43,0,,,,,,,,,,,,,,,,,,,,,,,AFSA04.jpg,AFNE14.jpg,AFNE17.jpg,AFSA15.jpg,AFSA15.jpg,FS,4,num_4,16,num_4,0.583465558186,,,2017_Aug_29_1046,60.0058316193,FEMA4ImagesEEG,001,201338,
AFNE01.JPG,AFNE01.JPG,AFNE01.JPG,AFNE01.JPG,AFNE01.JPG,AFNE01.JPG,4,4,44,5,,,,,,,,,,,,,,,,,,,,,,,AFNE14.jpg,AFSA01.jpg,AFSA10.jpg,AFNE16.jpg,AFSA10.jpg,FS,4,num_2,32,num_8,1.01671918778,,,2017_Aug_29_1046,60.0058316193,FEMA4ImagesEEG,001,201338,
AFNE01.JPG,AFNE01.JPG,AFNE01.JPG,AFNE01.JPG,AFNE01.JPG,AFNE01.JPG,4,5,45,7,,,,,,,,,,,,,,,,,,,,,,,AFSA14.jpg,AFNE19.jpg,AFNE01.jpg,AFSA03.jpg,AFNE19.jpg,FN,3,num_6,32,num_4,1.25007801986,,,2017_Aug_29_1046,60.0058316193,FEMA4ImagesEEG,001,201338,
AFNE01.JPG,AFNE01.JPG,AFNE01.JPG,AFNE01.JPG,AFNE01.JPG,AFNE01.JPG,4,6,46,1,,,,,,,,,,,,,,,,,,,,,,,AFNE07.jpg,AFSA19.jpg,AFNE15.jpg,AFSA20.jpg,AFSA20.jpg,FS,4,num_4,16,num_4,1.08342883352,,,2017_Aug_29_1046,60.0058316193,FEMA4ImagesEEG,001,201338,
AFNE01.JPG,AFNE01.JPG,AFNE01.JPG,AFNE01.JPG,AFNE01.JPG,AFNE01.JPG,4,7,47,6,,,,,,,,,,,,,,,,,,,,,,,AFSA02.jpg,AFNE07.jpg,AFSA03.jpg,AFNE09.jpg,AFNE09.jpg,FN,3,num_4,16,num_4,1.78336003493,,,2017_Aug_29_1046,60.0058316193,FEMA4ImagesEEG,001,201338,
AFNE01.JPG,AFNE01.JPG,AFNE01.JPG,AFNE01.JPG,AFNE01.JPG,AFNE01.JPG,4,8,48,2,,,,,,,,,,,,,,,,,,,,,,,AFNE16.jpg,AFSA20.jpg,AFNE01.jpg,AFSA19.jpg,AFNE16.jpg,FN,3,num_8,32,num_4,0.916740516957,,,2017_Aug_29_1046,60.0058316193,FEMA4ImagesEEG,001,201338,
AFNE01.JPG,AFNE01.JPG,AFNE01.JPG,AFNE01.JPG,AFNE01.JPG,AFNE01.JPG,4,9,49,4,,,,,,,,,,,,,,,,,,,,,,,AFSA07.jpg,AFNE17.jpg,AFNE01.jpg,AFSA06.jpg,AFSA07.jpg,FS,4,num_8,16,num_8,0.63348680723,,,2017_Aug_29_1046,60.0058316193,FEMA4ImagesEEG,001,201338,
AFNE01.JPG,AFNE01.JPG,AFNE01.JPG,AFNE01.JPG,AFNE01.JPG,AFNE01.JPG,5,0,50,7,,,,,,,,,,,,,,,,,,,,,,,AFNE07.jpg,AFSA08.jpg,AFNE10.jpg,AFSA18.jpg,AFNE10.jpg,FN,3,num_2,16,num_2,1.23342650814,,,2017_Aug_29_1046,60.0058316193,FEMA4ImagesEEG,001,201338,
AFNE01.JPG,AFNE01.JPG,AFNE01.JPG,AFNE01.JPG,AFNE01.JPG,AFNE01.JPG,5,1,51,0,,,,,,,,,,,,,,,,,,,,,,,AFSA15.jpg,AFSA18.jpg,AFNE15.jpg,AFNE18.jpg,AFNE15.jpg,FN,3,num_2,32,num_8,0.63349610864,,,2017_Aug_29_1046,60.0058316193,FEMA4ImagesEEG,001,201338,
AFNE01.JPG,AFNE01.JPG,AFNE01.JPG,AFNE01.JPG,AFNE01.JPG,AFNE01.JPG,5,2,52,5,,,,,,,,,,,,,,,,,,,,,,,AFSA16.jpg,AFNE05.jpg,AFNE10.jpg,AFSA15.jpg,AFNE10.jpg,FN,3,num_2,32,num_4,0.616796165239,,,2017_Aug_29_1046,60.0058316193,FEMA4ImagesEEG,001,201338,
AFNE01.JPG,AFNE01.JPG,AFNE01.JPG,AFNE01.JPG,AFNE01.JPG,AFNE01.JPG,5,3,53,2,,,,,,,,,,,,,,,,,,,,,,,AFNE07.jpg,AFNE19.jpg,AFSA03.jpg,AFSA17.jpg,AFSA03.jpg,FS,4,num_2,32,num_4,0.633479430166,,,2017_Aug_29_1046,60.0058316193,FEMA4ImagesEEG,001,201338,
AFNE01.JPG,AFNE01.JPG,AFNE01.JPG,AFNE01.JPG,AFNE01.JPG,AFNE01.JPG,5,4,54,3,,,,,,,,,,,,,,,,,,,,,,,AFSA19.jpg,AFSA07.jpg,AFNE02.jpg,AFNE15.jpg,AFSA19.jpg,FS,4,num_8,32,num_4,1.10014641762,,,2017_Aug_29_1046,60.0058316193,FEMA4ImagesEEG,001,201338,
AFNE01.JPG,AFNE01.JPG,AFNE01.JPG,AFNE01.JPG,AFNE01.JPG,AFNE01.JPG,5,5,55,9,,,,,,,,,,,,,,,,,,,,,,,AFNE20.jpg,AFNE09.jpg,AFSA14.jpg,AFSA12.jpg,AFSA14.jpg,FS,4,num_2,16,num_2,0.883454813389,,,2017_Aug_29_1046,60.0058316193,FEMA4ImagesEEG,001,201338,
AFNE01.JPG,AFNE01.JPG,AFNE01.JPG,AFNE01.JPG,AFNE01.JPG,AFNE01.JPG,5,6,56,6,,,,,,,,,,,,,,,,,,,,,,,AFNE01.jpg,AFSA05.jpg,AFNE07.jpg,AFSA20.jpg,AFSA05.jpg,FS,4,num_6,16,num_6,0.716786703444,,,2017_Aug_29_1046,60.0058316193,FEMA4ImagesEEG,001,201338,
AFNE01.JPG,AFNE01.JPG,AFNE01.JPG,AFNE01.JPG,AFNE01.JPG,AFNE01.JPG,5,7,57,4,,,,,,,,,,,,,,,,,,,,,,,AFNE11.jpg,AFSA04.jpg,AFSA19.jpg,AFNE16.jpg,AFSA04.jpg,FS,4,num_6,32,num_2,4.01634328108,,,2017_Aug_29_1046,60.0058316193,FEMA4ImagesEEG,001,201338,
AFNE01.JPG,AFNE01.JPG,AFNE01.JPG,AFNE01.JPG,AFNE01.JPG,AFNE01.JPG,5,8,58,1,,,,,,,,,,,,,,,,,,,,,,,AFNE18.jpg,AFSA06.jpg,AFSA11.jpg,AFNE19.jpg,AFNE18.jpg,FN,3,num_8,16,num_8,0.816741960298,,,2017_Aug_29_1046,60.0058316193,FEMA4ImagesEEG,001,201338,
AFNE01.JPG,AFNE01.JPG,AFNE01.JPG,AFNE01.JPG,AFNE01.JPG,AFNE01.JPG,5,9,59,8,,,,,,,,,,,,,,,,,,,,,,,AFSA06.jpg,AFNE02.jpg,AFSA04.jpg,AFNE04.jpg,AFSA06.jpg,FS,4,num_8,32,num_6,1.8000609405,,,2017_Aug_29_1046,60.0058316193,FEMA4ImagesEEG,001,201338,
,,,,,,,,,,,,,,,,,,,,,,,,,,,,,,,,,,,,,,,,,,,space,2.23331007973,2017_Aug_29_1046,60.0058316193,FEMA4ImagesEEG,001,201338,
AFNE01.JPG,AFNE01.JPG,AFNE01.JPG,AFNE01.JPG,AFNE01.JPG,AFNE01.JPG,,,,,0,0,0,7,,,,,,,,,,,,,,,,,,,AMSA01.jpg,AMNE18.jpg,AMSA14.jpg,AMNE04.jpg,AMSA14.jpg,MS,2,num_2,16,num_2,0.916782533808,,,2017_Aug_29_1046,60.0058316193,FEMA4ImagesEEG,001,201338,
AFNE01.JPG,AFNE01.JPG,AFNE01.JPG,AFNE01.JPG,AFNE01.JPG,AFNE01.JPG,,,,,0,1,1,3,,,,,,,,,,,,,,,,,,,AMNE20.jpg,AMSA09.jpg,AMSA07.jpg,AMNE10.jpg,AMNE10.jpg,MN,1,num_4,32,num_8,1.1335132682,,,2017_Aug_29_1046,60.0058316193,FEMA4ImagesEEG,001,201338,
AFNE01.JPG,AFNE01.JPG,AFNE01.JPG,AFNE01.JPG,AFNE01.JPG,AFNE01.JPG,,,,,0,2,2,2,,,,,,,,,,,,,,,,,,,AMNE07.jpg,AMNE20.jpg,AMSA02.jpg,AMSA04.jpg,AMNE20.jpg,MN,1,num_6,16,num_6,1.00010391959,,,2017_Aug_29_1046,60.0058316193,FEMA4ImagesEEG,001,201338,
AFNE01.JPG,AFNE01.JPG,AFNE01.JPG,AFNE01.JPG,AFNE01.JPG,AFNE01.JPG,,,,,0,3,3,0,,,,,,,,,,,,,,,,,,,AMNE09.jpg,AMSA13.jpg,AMSA17.jpg,AMNE02.jpg,AMSA13.jpg,MS,2,num_6,32,num_2,1.16680442425,,,2017_Aug_29_1046,60.0058316193,FEMA4ImagesEEG,001,201338,
AFNE01.JPG,AFNE01.JPG,AFNE01.JPG,AFNE01.JPG,AFNE01.JPG,AFNE01.JPG,,,,,0,4,4,1,,,,,,,,,,,,,,,,,,,AMSA02.jpg,AMNE08.jpg,AMSA09.jpg,AMNE10.jpg,AMSA02.jpg,MS,2,num_8,32,num_6,1.13345072401,,,2017_Aug_29_1046,60.0058316193,FEMA4ImagesEEG,001,201338,
AFNE01.JPG,AFNE01.JPG,AFNE01.JPG,AFNE01.JPG,AFNE01.JPG,AFNE01.JPG,,,,,0,5,5,4,,,,,,,,,,,,,,,,,,,AMNE07.jpg,AMSA05.jpg,AMSA04.jpg,AMNE16.jpg,AMSA04.jpg,MS,2,num_2,16,num_2,0.747434645309,,,2017_Aug_29_1046,60.0058316193,FEMA4ImagesEEG,001,201338,
AFNE01.JPG,AFNE01.JPG,AFNE01.JPG,AFNE01.JPG,AFNE01.JPG,AFNE01.JPG,,,,,0,6,6,9,,,,,,,,,,,,,,,,,,,AMSA04.jpg,AMSA09.jpg,AMNE11.jpg,AMNE02.jpg,AMNE11.jpg,MN,1,num_2,32,num_6,1.58342418278,,,2017_Aug_29_1046,60.0058316193,FEMA4ImagesEEG,001,201338,
AFNE01.JPG,AFNE01.JPG,AFNE01.JPG,AFNE01.JPG,AFNE01.JPG,AFNE01.JPG,,,,,0,7,7,8,,,,,,,,,,,,,,,,,,,AMSA13.jpg,AMNE19.jpg,AMNE14.jpg,AMSA11.jpg,AMNE19.jpg,MN,1,num_6,16,num_6,0.933398122725,,,2017_Aug_29_1046,60.0058316193,FEMA4ImagesEEG,001,201338,
AFNE01.JPG,AFNE01.JPG,AFNE01.JPG,AFNE01.JPG,AFNE01.JPG,AFNE01.JPG,,,,,0,8,8,6,,,,,,,,,,,,,,,,,,,AMSA10.jpg,AMNE12.jpg,AMSA15.jpg,AMNE11.jpg,AMSA15.jpg,MS,2,num_2,32,num_4,0.400148823159,,,2017_Aug_29_1046,60.0058316193,FEMA4ImagesEEG,001,201338,
AFNE01.JPG,AFNE01.JPG,AFNE01.JPG,AFNE01.JPG,AFNE01.JPG,AFNE01.JPG,,,,,0,9,9,5,,,,,,,,,,,,,,,,,,,AMSA10.jpg,AMNE09.jpg,AMNE14.jpg,AMSA09.jpg,AMNE09.jpg,MN,1,num_6,16,num_6,1.0167631291,,,2017_Aug_29_1046,60.0058316193,FEMA4ImagesEEG,001,201338,
AFNE01.JPG,AFNE01.JPG,AFNE01.JPG,AFNE01.JPG,AFNE01.JPG,AFNE01.JPG,,,,,1,0,10,0,,,,,,,,,,,,,,,,,,,AMSA15.jpg,AMNE17.jpg,AMSA11.jpg,AMNE13.jpg,AMSA15.jpg,MS,2,num_8,32,num_2,1.66673722939,,,2017_Aug_29_1046,60.0058316193,FEMA4ImagesEEG,001,201338,
AFNE01.JPG,AFNE01.JPG,AFNE01.JPG,AFNE01.JPG,AFNE01.JPG,AFNE01.JPG,,,,,1,1,11,2,,,,,,,,,,,,,,,,,,,AMNE20.jpg,AMNE07.jpg,AMSA11.jpg,AMSA12.jpg,AMNE20.jpg,MN,1,num_8,16,num_8,0.516768742062,,,2017_Aug_29_1046,60.0058316193,FEMA4ImagesEEG,001,201338,
AFNE01.JPG,AFNE01.JPG,AFNE01.JPG,AFNE01.JPG,AFNE01.JPG,AFNE01.JPG,,,,,1,2,12,8,,,,,,,,,,,,,,,,,,,AMNE04.jpg,AMSA02.jpg,AMNE09.jpg,AMSA01.jpg,AMSA02.jpg,MS,2,num_6,16,num_6,0.80013471056,,,2017_Aug_29_1046,60.0058316193,FEMA4ImagesEEG,001,201338,
AFNE01.JPG,AFNE01.JPG,AFNE01.JPG,AFNE01.JPG,AFNE01.JPG,AFNE01.JPG,,,,,1,3,13,5,,,,,,,,,,,,,,,,,,,AMSA04.jpg,AMSA01.jpg,AMNE20.jpg,AMNE19.jpg,AMSA01.jpg,MS,2,num_6,16,num_6,0.800099429267,,,2017_Aug_29_1046,60.0058316193,FEMA4ImagesEEG,001,201338,
AFNE01.JPG,AFNE01.JPG,AFNE01.JPG,AFNE01.JPG,AFNE01.JPG,AFNE01.JPG,,,,,1,4,14,3,,,,,,,,,,,,,,,,,,,AMSA05.jpg,AMNE18.jpg,AMSA15.jpg,AMNE12.jpg,AMSA05.jpg,MS,2,num_8,16,num_8,0.366885571391,,,2017_Aug_29_1046,60.0058316193,FEMA4ImagesEEG,001,201338,
AFNE01.JPG,AFNE01.JPG,AFNE01.JPG,AFNE01.JPG,AFNE01.JPG,AFNE01.JPG,,,,,1,5,15,4,,,,,,,,,,,,,,,,,,,AMNE04.jpg,AMNE10.jpg,AMSA15.jpg,AMSA08.jpg,AMSA08.jpg,MS,2,num_4,32,num_2,1.00013278617,,,2017_Aug_29_1046,60.0058316193,FEMA4ImagesEEG,001,201338,
AFNE01.JPG,AFNE01.JPG,AFNE01.JPG,AFNE01.JPG,AFNE01.JPG,AFNE01.JPG,,,,,1,6,16,6,,,,,,,,,,,,,,,,,,,AMNE03.jpg,AMSA07.jpg,AMNE02.jpg,AMSA11.jpg,AMNE02.jpg,MN,1,num_2,32,num_8,0.750094217248,,,2017_Aug_29_1046,60.0058316193,FEMA4ImagesEEG,001,201338,
AFNE01.JPG,AFNE01.JPG,AFNE01.JPG,AFNE01.JPG,AFNE01.JPG,AFNE01.JPG,,,,,1,7,17,1,,,,,,,,,,,,,,,,,,,AMNE05.jpg,AMSA06.jpg,AMSA17.jpg,AMNE02.jpg,AMSA17.jpg,MS,2,num_2,16,num_2,1.93333654077,,,2017_Aug_29_1046,60.0058316193,FEMA4ImagesEEG,001,201338,
AFNE01.JPG,AFNE01.JPG,AFNE01.JPG,AFNE01.JPG,AFNE01.JPG,AFNE01.JPG,,,,,1,8,18,7,,,,,,,,,,,,,,,,,,,AMNE15.jpg,AMNE07.jpg,AMSA02.jpg,AMSA05.jpg,AMNE15.jpg,MN,1,num_8,16,num_8,1.00010391959,,,2017_Aug_29_1046,60.0058316193,FEMA4ImagesEEG,001,201338,
AFNE01.JPG,AFNE01.JPG,AFNE01.JPG,AFNE01.JPG,AFNE01.JPG,AFNE01.JPG,,,,,1,9,19,9,,,,,,,,,,,,,,,,,,,AMNE03.jpg,AMNE01.jpg,AMSA04.jpg,AMSA14.jpg,AMSA04.jpg,MS,2,num_2,32,num_8,0.750100952806,,,2017_Aug_29_1046,60.0058316193,FEMA4ImagesEEG,001,201338,
AFNE01.JPG,AFNE01.JPG,AFNE01.JPG,AFNE01.JPG,AFNE01.JPG,AFNE01.JPG,,,,,2,0,20,8,,,,,,,,,,,,,,,,,,,AMSA17.jpg,AMSA07.jpg,AMNE09.jpg,AMNE07.jpg,AMNE07.jpg,MN,1,num_4,16,num_4,0.483535318985,,,2017_Aug_29_1046,60.0058316193,FEMA4ImagesEEG,001,201338,
AFNE01.JPG,AFNE01.JPG,AFNE01.JPG,AFNE01.JPG,AFNE01.JPG,AFNE01.JPG,,,,,2,1,21,6,,,,,,,,,,,,,,,,,,,AMNE16.jpg,AMNE01.jpg,AMSA03.jpg,AMSA06.jpg,AMSA06.jpg,MS,2,num_4,16,num_4,1.2000644686,,,2017_Aug_29_1046,60.0058316193,FEMA4ImagesEEG,001,201338,
AFNE01.JPG,AFNE01.JPG,AFNE01.JPG,AFNE01.JPG,AFNE01.JPG,AFNE01.JPG,,,,,2,2,22,2,,,,,,,,,,,,,,,,,,,AMSA13.jpg,AMNE06.jpg,AMNE09.jpg,AMSA04.jpg,AMSA13.jpg,MS,2,num_8,32,num_6,1.21676633647,,,2017_Aug_29_1046,60.0058316193,FEMA4ImagesEEG,001,201338,
AFNE01.JPG,AFNE01.JPG,AFNE01.JPG,AFNE01.JPG,AFNE01.JPG,AFNE01.JPG,,,,,2,3,23,0,,,,,,,,,,,,,,,,,,,AMNE20.jpg,AMSA11.jpg,AMSA05.jpg,AMNE11.jpg,AMNE11.jpg,MN,1,num_4,32,num_6,0.783499235869,,,2017_Aug_29_1046,60.0058316193,FEMA4ImagesEEG,001,201338,
AFNE01.JPG,AFNE01.JPG,AFNE01.JPG,AFNE01.JPG,AFNE01.JPG,AFNE01.JPG,,,,,2,4,24,5,,,,,,,,,,,,,,,,,,,AMNE06.jpg,AMSA20.jpg,AMSA15.jpg,AMNE14.jpg,AMSA20.jpg,MS,2,num_6,32,num_8,2.60001026368,,,2017_Aug_29_1046,60.0058316193,FEMA4ImagesEEG,001,201338,
AFNE01.JPG,AFNE01.JPG,AFNE01.JPG,AFNE01.JPG,AFNE01.JPG,AFNE01.JPG,,,,,2,5,25,4,,,,,,,,,,,,,,,,,,,AMSA04.jpg,AMNE08.jpg,AMNE16.jpg,AMSA17.jpg,AMSA04.jpg,MS,2,num_8,32,num_6,1.06683601713,,,2017_Aug_29_1046,60.0058316193,FEMA4ImagesEEG,001,201338,
AFNE01.JPG,AFNE01.JPG,AFNE01.JPG,AFNE01.JPG,AFNE01.JPG,AFNE01.JPG,,,,,2,6,26,9,,,,,,,,,,,,,,,,,,,AMNE14.jpg,AMSA04.jpg,AMNE18.jpg,AMSA19.jpg,AMSA04.jpg,MS,2,num_6,32,num_2,1.26674621005,,,2017_Aug_29_1046,60.0058316193,FEMA4ImagesEEG,001,201338,
AFNE01.JPG,AFNE01.JPG,AFNE01.JPG,AFNE01.JPG,AFNE01.JPG,AFNE01.JPG,,,,,2,7,27,1,,,,,,,,,,,,,,,,,,,AMNE12.jpg,AMSA03.jpg,AMNE02.jpg,AMSA15.jpg,AMSA03.jpg,MS,2,num_6,16,num_6,2.41663996514,,,2017_Aug_29_1046,60.0058316193,FEMA4ImagesEEG,001,201338,
AFNE01.JPG,AFNE01.JPG,AFNE01.JPG,AFNE01.JPG,AFNE01.JPG,AFNE01.JPG,,,,,2,8,28,7,,,,,,,,,,,,,,,,,,,AMNE15.jpg,AMSA10.jpg,AMSA07.jpg,AMNE07.jpg,AMSA10.jpg,MS,2,num_6,32,num_4,1.23340918822,,,2017_Aug_29_1046,60.0058316193,FEMA4ImagesEEG,001,201338,
AFNE01.JPG,AFNE01.JPG,AFNE01.JPG,AFNE01.JPG,AFNE01.JPG,AFNE01.JPG,,,,,2,9,29,3,,,,,,,,,,,,,,,,,,,AMSA15.jpg,AMNE09.jpg,AMSA08.jpg,AMNE01.jpg,AMSA15.jpg,MS,2,num_8,32,num_6,1.13345457288,,,2017_Aug_29_1046,60.0058316193,FEMA4ImagesEEG,001,201338,
AFNE01.JPG,AFNE01.JPG,AFNE01.JPG,AFNE01.JPG,AFNE01.JPG,AFNE01.JPG,,,,,3,0,30,7,,,,,,,,,,,,,,,,,,,AMNE10.jpg,AMSA01.jpg,AMNE17.jpg,AMSA02.jpg,AMSA01.jpg,MS,2,num_6,16,num_6,1.23348103382,,,2017_Aug_29_1046,60.0058316193,FEMA4ImagesEEG,001,201338,
AFNE01.JPG,AFNE01.JPG,AFNE01.JPG,AFNE01.JPG,AFNE01.JPG,AFNE01.JPG,,,,,3,1,31,8,,,,,,,,,,,,,,,,,,,AMNE11.jpg,AMNE18.jpg,AMSA03.jpg,AMSA08.jpg,AMNE11.jpg,MN,1,num_8,16,num_8,1.11676264793,,,2017_Aug_29_1046,60.0058316193,FEMA4ImagesEEG,001,201338,
AFNE01.JPG,AFNE01.JPG,AFNE01.JPG,AFNE01.JPG,AFNE01.JPG,AFNE01.JPG,,,,,3,2,32,0,,,,,,,,,,,,,,,,,,,AMSA20.jpg,AMSA17.jpg,AMNE02.jpg,AMNE16.jpg,AMNE02.jpg,MN,1,num_2,32,num_6,0.716846040217,,,2017_Aug_29_1046,60.0058316193,FEMA4ImagesEEG,001,201338,
AFNE01.JPG,AFNE01.JPG,AFNE01.JPG,AFNE01.JPG,AFNE01.JPG,AFNE01.JPG,,,,,3,3,33,1,,,,,,,,,,,,,,,,,,,AMNE05.jpg,AMNE08.jpg,AMSA17.jpg,AMSA01.jpg,AMSA17.jpg,MS,2,num_2,32,num_8,0.86649282591,,,2017_Aug_29_1046,60.0058316193,FEMA4ImagesEEG,001,201338,
AFNE01.JPG,AFNE01.JPG,AFNE01.JPG,AFNE01.JPG,AFNE01.JPG,AFNE01.JPG,,,,,3,4,34,3,,,,,,,,,,,,,,,,,,,AMNE09.jpg,AMSA10.jpg,AMNE02.jpg,AMSA14.jpg,AMNE02.jpg,MN,1,num_2,32,num_8,0.733530588157,,,2017_Aug_29_1046,60.0058316193,FEMA4ImagesEEG,001,201338,
AFNE01.JPG,AFNE01.JPG,AFNE01.JPG,AFNE01.JPG,AFNE01.JPG,AFNE01.JPG,,,,,3,5,35,5,,,,,,,,,,,,,,,,,,,AMNE05.jpg,AMSA16.jpg,AMNE07.jpg,AMSA05.jpg,AMNE05.jpg,MN,1,num_8,32,num_4,0.450142488524,,,2017_Aug_29_1046,60.0058316193,FEMA4ImagesEEG,001,201338,
AFNE01.JPG,AFNE01.JPG,AFNE01.JPG,AFNE01.JPG,AFNE01.JPG,AFNE01.JPG,,,,,3,6,36,2,,,,,,,,,,,,,,,,,,,AMNE07.jpg,AMSA13.jpg,AMSA03.jpg,AMNE11.jpg,AMNE11.jpg,MN,1,num_4,32,num_2,0.350125649711,,,2017_Aug_29_1046,60.0058316193,FEMA4ImagesEEG,001,201338,
AFNE01.JPG,AFNE01.JPG,AFNE01.JPG,AFNE01.JPG,AFNE01.JPG,AFNE01.JPG,,,,,3,7,37,6,,,,,,,,,,,,,,,,,,,AMNE06.jpg,AMSA14.jpg,AMNE02.jpg,AMSA09.jpg,AMSA14.jpg,MS,2,num_6,16,num_6,0.883505490259,,,2017_Aug_29_1046,60.0058316193,FEMA4ImagesEEG,001,201338,
AFNE01.JPG,AFNE01.JPG,AFNE01.JPG,AFNE01.JPG,AFNE01.JPG,AFNE01.JPG,,,,,3,8,38,9,,,,,,,,,,,,,,,,,,,AMNE18.jpg,AMSA10.jpg,AMSA17.jpg,AMNE05.jpg,AMNE18.jpg,MN,1,num_8,32,num_6,0.700185227033,,,2017_Aug_29_1046,60.0058316193,FEMA4ImagesEEG,001,201338,
AFNE01.JPG,AFNE01.JPG,AFNE01.JPG,AFNE01.JPG,AFNE01.JPG,AFNE01.JPG,,,,,3,9,39,4,,,,,,,,,,,,,,,,,,,AMSA11.jpg,AMSA13.jpg,AMNE07.jpg,AMNE14.jpg,AMNE07.jpg,MN,1,num_2,16,num_2,0.700108570338,,,2017_Aug_29_1046,60.0058316193,FEMA4ImagesEEG,001,201338,
AFNE01.JPG,AFNE01.JPG,AFNE01.JPG,AFNE01.JPG,AFNE01.JPG,AFNE01.JPG,,,,,4,0,40,6,,,,,,,,,,,,,,,,,,,AMNE15.jpg,AMNE02.jpg,AMSA12.jpg,AMSA14.jpg,AMSA14.jpg,MS,2,num_4,16,num_4,0.483461548924,,,2017_Aug_29_1046,60.0058316193,FEMA4ImagesEEG,001,201338,
AFNE01.JPG,AFNE01.JPG,AFNE01.JPG,AFNE01.JPG,AFNE01.JPG,AFNE01.JPG,,,,,4,1,41,8,,,,,,,,,,,,,,,,,,,AMSA05.jpg,AMSA07.jpg,AMNE07.jpg,AMNE14.jpg,AMNE14.jpg,MN,1,num_4,16,num_4,0.583420333918,,,2017_Aug_29_1046,60.0058316193,FEMA4ImagesEEG,001,201338,
AFNE01.JPG,AFNE01.JPG,AFNE01.JPG,AFNE01.JPG,AFNE01.JPG,AFNE01.JPG,,,,,4,2,42,2,,,,,,,,,,,,,,,,,,,AMSA07.jpg,AMNE10.jpg,AMNE16.jpg,AMSA11.jpg,AMNE10.jpg,MN,1,num_6,32,num_8,0.950133668201,,,2017_Aug_29_1046,60.0058316193,FEMA4ImagesEEG,001,201338,
AFNE01.JPG,AFNE01.JPG,AFNE01.JPG,AFNE01.JPG,AFNE01.JPG,AFNE01.JPG,,,,,4,3,43,3,,,,,,,,,,,,,,,,,,,AMNE03.jpg,AMSA09.jpg,AMNE04.jpg,AMSA01.jpg,AMNE04.jpg,MN,1,num_2,32,num_8,1.1001303806,,,2017_Aug_29_1046,60.0058316193,FEMA4ImagesEEG,001,201338,
AFNE01.JPG,AFNE01.JPG,AFNE01.JPG,AFNE01.JPG,AFNE01.JPG,AFNE01.JPG,,,,,4,4,44,1,,,,,,,,,,,,,,,,,,,AMNE07.jpg,AMNE20.jpg,AMSA13.jpg,AMSA19.jpg,AMSA13.jpg,MS,2,num_2,32,num_8,0.816778845328,,,2017_Aug_29_1046,60.0058316193,FEMA4ImagesEEG,001,201338,
AFNE01.JPG,AFNE01.JPG,AFNE01.JPG,AFNE01.JPG,AFNE01.JPG,AFNE01.JPG,,,,,4,5,45,9,,,,,,,,,,,,,,,,,,,AMNE07.jpg,AMSA08.jpg,AMNE19.jpg,AMSA06.jpg,AMNE19.jpg,MN,1,num_2,32,num_4,1.38345080422,,,2017_Aug_29_1046,60.0058316193,FEMA4ImagesEEG,001,201338,
AFNE01.JPG,AFNE01.JPG,AFNE01.JPG,AFNE01.JPG,AFNE01.JPG,AFNE01.JPG,,,,,4,6,46,7,,,,,,,,,,,,,,,,,,,AMSA16.jpg,AMNE07.jpg,AMSA06.jpg,AMNE05.jpg,AMNE05.jpg,MN,1,num_4,32,num_8,1.00011931505,,,2017_Aug_29_1046,60.0058316193,FEMA4ImagesEEG,001,201338,
AFNE01.JPG,AFNE01.JPG,AFNE01.JPG,AFNE01.JPG,AFNE01.JPG,AFNE01.JPG,,,,,4,7,47,0,,,,,,,,,,,,,,,,,,,AMNE17.jpg,AMNE19.jpg,AMSA09.jpg,AMSA02.jpg,AMNE17.jpg,MN,1,num_8,16,num_8,1.00011931505,,,2017_Aug_29_1046,60.0058316193,FEMA4ImagesEEG,001,201338,
AFNE01.JPG,AFNE01.JPG,AFNE01.JPG,AFNE01.JPG,AFNE01.JPG,AFNE01.JPG,,,,,4,8,48,5,,,,,,,,,,,,,,,,,,,AMSA17.jpg,AMNE12.jpg,AMNE18.jpg,AMSA14.jpg,AMSA17.jpg,MS,2,num_8,16,num_8,0.800125729875,,,2017_Aug_29_1046,60.0058316193,FEMA4ImagesEEG,001,201338,
AFNE01.JPG,AFNE01.JPG,AFNE01.JPG,AFNE01.JPG,AFNE01.JPG,AFNE01.JPG,,,,,4,9,49,4,,,,,,,,,,,,,,,,,,,AMSA10.jpg,AMSA14.jpg,AMNE02.jpg,AMNE18.jpg,AMNE18.jpg,MN,1,num_4,32,num_2,2.50001812179,,,2017_Aug_29_1046,60.0058316193,FEMA4ImagesEEG,001,201338,
AFNE01.JPG,AFNE01.JPG,AFNE01.JPG,AFNE01.JPG,AFNE01.JPG,AFNE01.JPG,,,,,5,0,50,0,,,,,,,,,,,,,,,,,,,AMSA13.jpg,AMNE11.jpg,AMNE06.jpg,AMSA01.jpg,AMNE06.jpg,MN,1,num_2,32,num_6,0.81643084297,,,2017_Aug_29_1046,60.0058316193,FEMA4ImagesEEG,001,201338,
AFNE01.JPG,AFNE01.JPG,AFNE01.JPG,AFNE01.JPG,AFNE01.JPG,AFNE01.JPG,,,,,5,1,51,9,,,,,,,,,,,,,,,,,,,AMNE10.jpg,AMSA06.jpg,AMSA14.jpg,AMNE15.jpg,AMSA14.jpg,MS,2,num_2,16,num_2,1.21673073439,,,2017_Aug_29_1046,60.0058316193,FEMA4ImagesEEG,001,201338,
AFNE01.JPG,AFNE01.JPG,AFNE01.JPG,AFNE01.JPG,AFNE01.JPG,AFNE01.JPG,,,,,5,2,52,1,,,,,,,,,,,,,,,,,,,AMSA07.jpg,AMNE14.jpg,AMSA18.jpg,AMNE16.jpg,AMSA18.jpg,MS,2,num_2,32,num_8,0.73350332526,,,2017_Aug_29_1046,60.0058316193,FEMA4ImagesEEG,001,201338,
AFNE01.JPG,AFNE01.JPG,AFNE01.JPG,AFNE01.JPG,AFNE01.JPG,AFNE01.JPG,,,,,5,3,53,5,,,,,,,,,,,,,,,,,,,AMSA01.jpg,AMSA20.jpg,AMNE01.jpg,AMNE16.jpg,AMSA20.jpg,MS,2,num_6,32,num_4,0.96673835197,,,2017_Aug_29_1046,60.0058316193,FEMA4ImagesEEG,001,201338,
AFNE01.JPG,AFNE01.JPG,AFNE01.JPG,AFNE01.JPG,AFNE01.JPG,AFNE01.JPG,,,,,5,4,54,7,,,,,,,,,,,,,,,,,,,AMSA07.jpg,AMNE04.jpg,AMSA09.jpg,AMNE13.jpg,AMSA07.jpg,MS,2,num_8,32,num_2,1.50007521344,,,2017_Aug_29_1046,60.0058316193,FEMA4ImagesEEG,001,201338,
AFNE01.JPG,AFNE01.JPG,AFNE01.JPG,AFNE01.JPG,AFNE01.JPG,AFNE01.JPG,,,,,5,5,55,3,,,,,,,,,,,,,,,,,,,AMSA12.jpg,AMNE12.jpg,AMSA07.jpg,AMNE20.jpg,AMSA12.jpg,MS,2,num_8,32,num_4,1.01674645062,,,2017_Aug_29_1046,60.0058316193,FEMA4ImagesEEG,001,201338,
AFNE01.JPG,AFNE01.JPG,AFNE01.JPG,AFNE01.JPG,AFNE01.JPG,AFNE01.JPG,,,,,5,6,56,8,,,,,,,,,,,,,,,,,,,AMNE15.jpg,AMSA19.jpg,AMSA12.jpg,AMNE17.jpg,AMSA12.jpg,MS,2,num_2,32,num_4,1.53342698928,,,2017_Aug_29_1046,60.0058316193,FEMA4ImagesEEG,001,201338,
AFNE01.JPG,AFNE01.JPG,AFNE01.JPG,AFNE01.JPG,AFNE01.JPG,AFNE01.JPG,,,,,5,7,57,6,,,,,,,,,,,,,,,,,,,AMSA11.jpg,AMSA08.jpg,AMNE01.jpg,AMNE09.jpg,AMSA08.jpg,MS,2,num_6,32,num_2,1.31672480068,,,2017_Aug_29_1046,60.0058316193,FEMA4ImagesEEG,001,201338,
AFNE01.JPG,AFNE01.JPG,AFNE01.JPG,AFNE01.JPG,AFNE01.JPG,AFNE01.JPG,,,,,5,8,58,2,,,,,,,,,,,,,,,,,,,AMNE18.jpg,AMNE06.jpg,AMSA10.jpg,AMSA11.jpg,AMNE06.jpg,MN,1,num_6,16,num_6,1.83343228151,,,2017_Aug_29_1046,60.0058316193,FEMA4ImagesEEG,001,201338,
AFNE01.JPG,AFNE01.JPG,AFNE01.JPG,AFNE01.JPG,AFNE01.JPG,AFNE01.JPG,,,,,5,9,59,4,,,,,,,,,,,,,,,,,,,AMSA02.jpg,AMNE05.jpg,AMSA03.jpg,AMNE15.jpg,AMSA02.jpg,MS,2,num_8,32,num_2,1.30006494978,,,2017_Aug_29_1046,60.0058316193,FEMA4ImagesEEG,001,201338,
,,,,,,,,,,,,,,,,,,,,,,,,,,,,,,,,,,,,,,,,,,,space,1.75003969151,2017_Aug_29_1046,60.0058316193,FEMA4ImagesEEG,001,201338,
AFNE01.JPG,AFNE01.JPG,AFNE01.JPG,AFNE01.JPG,AFNE01.JPG,AFNE01.JPG,,,,,,,,,0,0,0,4,,,,,,,,,,,,,,,AFSA01.jpg,AFNE13.jpg,AFSA08.jpg,AFNE16.jpg,AFSA01.jpg,FS,4,num_8,32,num_2,0.916775156802,,,2017_Aug_29_1046,60.0058316193,FEMA4ImagesEEG,001,201338,
AFNE01.JPG,AFNE01.JPG,AFNE01.JPG,AFNE01.JPG,AFNE01.JPG,AFNE01.JPG,,,,,,,,,0,1,1,3,,,,,,,,,,,,,,,AFNE13.jpg,AFSA02.jpg,AFNE05.jpg,AFSA01.jpg,AFNE05.jpg,FN,3,num_2,32,num_4,1.18342514505,,,2017_Aug_29_1046,60.0058316193,FEMA4ImagesEEG,001,201338,
AFNE01.JPG,AFNE01.JPG,AFNE01.JPG,AFNE01.JPG,AFNE01.JPG,AFNE01.JPG,,,,,,,,,0,2,2,9,,,,,,,,,,,,,,,AFSA07.jpg,AFNE17.jpg,AFNE01.jpg,AFSA18.jpg,AFNE01.jpg,FN,3,num_2,32,num_4,0.566799613182,,,2017_Aug_29_1046,60.0058316193,FEMA4ImagesEEG,001,201338,
AFNE01.JPG,AFNE01.JPG,AFNE01.JPG,AFNE01.JPG,AFNE01.JPG,AFNE01.JPG,,,,,,,,,0,3,3,7,,,,,,,,,,,,,,,AFNE06.jpg,AFSA19.jpg,AFNE08.jpg,AFSA20.jpg,AFSA19.jpg,FS,4,num_6,32,num_4,0.300193245581,,,2017_Aug_29_1046,60.0058316193,FEMA4ImagesEEG,001,201338,
AFNE01.JPG,AFNE01.JPG,AFNE01.JPG,AFNE01.JPG,AFNE01.JPG,AFNE01.JPG,,,,,,,,,0,4,4,2,,,,,,,,,,,,,,,AFNE15.jpg,AFSA07.jpg,AFNE05.jpg,AFSA04.jpg,AFNE05.jpg,FN,3,num_2,16,num_2,0.983485123317,,,2017_Aug_29_1046,60.0058316193,FEMA4ImagesEEG,001,201338,
AFNE01.JPG,AFNE01.JPG,AFNE01.JPG,AFNE01.JPG,AFNE01.JPG,AFNE01.JPG,,,,,,,,,0,5,5,8,,,,,,,,,,,,,,,AFSA05.jpg,AFSA16.jpg,AFNE16.jpg,AFNE07.jpg,AFNE07.jpg,FN,3,num_4,32,num_2,1.05013767746,,,2017_Aug_29_1046,60.0058316193,FEMA4ImagesEEG,001,201338,
AFNE01.JPG,AFNE01.JPG,AFNE01.JPG,AFNE01.JPG,AFNE01.JPG,AFNE01.JPG,,,,,,,,,0,6,6,6,,,,,,,,,,,,,,,AFSA11.jpg,AFSA08.jpg,AFNE18.jpg,AFNE04.jpg,AFNE04.jpg,FN,3,num_4,16,num_4,0.66681099945,,,2017_Aug_29_1046,60.0058316193,FEMA4ImagesEEG,001,201338,
AFNE01.JPG,AFNE01.JPG,AFNE01.JPG,AFNE01.JPG,AFNE01.JPG,AFNE01.JPG,,,,,,,,,0,7,7,5,,,,,,,,,,,,,,,AFSA18.jpg,AFNE19.jpg,AFSA05.jpg,AFNE09.jpg,AFNE09.jpg,FN,3,num_4,32,num_8,1.01676569501,,,2017_Aug_29_1046,60.0058316193,FEMA4ImagesEEG,001,201338,
AFNE01.JPG,AFNE01.JPG,AFNE01.JPG,AFNE01.JPG,AFNE01.JPG,AFNE01.JPG,,,,,,,,,0,8,8,1,,,,,,,,,,,,,,,AFSA16.jpg,AFNE15.jpg,AFSA14.jpg,AFNE08.jpg,AFSA16.jpg,FS,4,num_8,32,num_2,1.28339772177,,,2017_Aug_29_1046,60.0058316193,FEMA4ImagesEEG,001,201338,
AFNE01.JPG,AFNE01.JPG,AFNE01.JPG,AFNE01.JPG,AFNE01.JPG,AFNE01.JPG,,,,,,,,,0,9,9,0,,,,,,,,,,,,,,,AFSA11.jpg,AFSA12.jpg,AFNE17.jpg,AFNE01.jpg,AFSA11.jpg,FS,4,num_8,16,num_8,0.550406296737,,,2017_Aug_29_1046,60.0058316193,FEMA4ImagesEEG,001,201338,
AFNE01.JPG,AFNE01.JPG,AFNE01.JPG,AFNE01.JPG,AFNE01.JPG,AFNE01.JPG,,,,,,,,,1,0,10,6,,,,,,,,,,,,,,,AFNE14.jpg,AFSA15.jpg,AFSA08.jpg,AFNE18.jpg,AFNE18.jpg,FN,3,num_4,32,num_6,0.649844842264,,,2017_Aug_29_1046,60.0058316193,FEMA4ImagesEEG,001,201338,
AFNE01.JPG,AFNE01.JPG,AFNE01.JPG,AFNE01.JPG,AFNE01.JPG,AFNE01.JPG,,,,,,,,,1,1,11,5,,,,,,,,,,,,,,,AFNE01.jpg,AFNE15.jpg,AFSA20.jpg,AFSA08.jpg,AFSA08.jpg,FS,4,num_4,32,num_8,0.900143530918,,,2017_Aug_29_1046,60.0058316193,FEMA4ImagesEEG,001,201338,
AFNE01.JPG,AFNE01.JPG,AFNE01.JPG,AFNE01.JPG,AFNE01.JPG,AFNE01.JPG,,,,,,,,,1,2,12,8,,,,,,,,,,,,,,,AFNE20.jpg,AFNE17.jpg,AFSA16.jpg,AFSA03.jpg,AFSA03.jpg,FS,4,num_4,32,num_2,1.5000723268,,,2017_Aug_29_1046,60.0058316193,FEMA4ImagesEEG,001,201338,
AFNE01.JPG,AFNE01.JPG,AFNE01.JPG,AFNE01.JPG,AFNE01.JPG,AFNE01.JPG,,,,,,,,,1,3,13,3,,,,,,,,,,,,,,,AFSA05.jpg,AFNE04.jpg,AFNE08.jpg,AFSA04.jpg,AFNE04.jpg,FN,3,num_6,16,num_6,0.483790306957,,,2017_Aug_29_1046,60.0058316193,FEMA4ImagesEEG,001,201338,
AFNE01.JPG,AFNE01.JPG,AFNE01.JPG,AFNE01.JPG,AFNE01.JPG,AFNE01.JPG,,,,,,,,,1,4,14,7,,,,,,,,,,,,,,,AFSA04.jpg,AFNE09.jpg,AFNE03.jpg,AFSA02.jpg,AFNE09.jpg,FN,3,num_6,32,num_8,0.816787505231,,,2017_Aug_29_1046,60.0058316193,FEMA4ImagesEEG,001,201338,
AFNE01.JPG,AFNE01.JPG,AFNE01.JPG,AFNE01.JPG,AFNE01.JPG,AFNE01.JPG,,,,,,,,,1,5,15,0,,,,,,,,,,,,,,,AFNE02.jpg,AFSA18.jpg,AFNE19.jpg,AFSA04.jpg,AFSA18.jpg,FS,4,num_6,32,num_8,1.5001008726,,,2017_Aug_29_1046,60.0058316193,FEMA4ImagesEEG,001,201338,
AFNE01.JPG,AFNE01.JPG,AFNE01.JPG,AFNE01.JPG,AFNE01.JPG,AFNE01.JPG,,,,,,,,,1,6,16,4,,,,,,,,,,,,,,,AFSA16.jpg,AFSA19.jpg,AFNE15.jpg,AFNE14.jpg,AFSA19.jpg,FS,4,num_6,16,num_6,0.683530187234,,,2017_Aug_29_1046,60.0058316193,FEMA4ImagesEEG,001,201338,
AFNE01.JPG,AFNE01.JPG,AFNE01.JPG,AFNE01.JPG,AFNE01.JPG,AFNE01.JPG,,,,,,,,,1,7,17,9,,,,,,,,,,,,,,,AFSA13.jpg,AFSA06.jpg,AFNE17.jpg,AFNE02.jpg,AFNE17.jpg,FN,3,num_2,32,num_8,0.866508862819,,,2017_Aug_29_1046,60.0058316193,FEMA4ImagesEEG,001,201338,
AFNE01.JPG,AFNE01.JPG,AFNE01.JPG,AFNE01.JPG,AFNE01.JPG,AFNE01.JPG,,,,,,,,,1,8,18,1,,,,,,,,,,,,,,,AFNE08.jpg,AFSA02.jpg,AFNE06.jpg,AFSA20.jpg,AFNE06.jpg,FN,3,num_2,32,num_4,1.06677090703,,,2017_Aug_29_1046,60.0058316193,FEMA4ImagesEEG,001,201338,
AFNE01.JPG,AFNE01.JPG,AFNE01.JPG,AFNE01.JPG,AFNE01.JPG,AFNE01.JPG,,,,,,,,,1,9,19,2,,,,,,,,,,,,,,,AFSA17.jpg,AFSA12.jpg,AFNE04.jpg,AFNE14.jpg,AFSA12.jpg,FS,4,num_6,16,num_6,1.78335811046,,,2017_Aug_29_1046,60.0058316193,FEMA4ImagesEEG,001,201338,
AFNE01.JPG,AFNE01.JPG,AFNE01.JPG,AFNE01.JPG,AFNE01.JPG,AFNE01.JPG,,,,,,,,,2,0,20,0,,,,,,,,,,,,,,,AFSA01.jpg,AFNE10.jpg,AFSA19.jpg,AFNE18.jpg,AFSA01.jpg,FS,4,num_8,16,num_8,2.31665359653,,,2017_Aug_29_1046,60.0058316193,FEMA4ImagesEEG,001,201338,
AFNE01.JPG,AFNE01.JPG,AFNE01.JPG,AFNE01.JPG,AFNE01.JPG,AFNE01.JPG,,,,,,,,,2,1,21,4,,,,,,,,,,,,,,,AFSA15.jpg,AFNE06.jpg,AFSA05.jpg,AFNE08.jpg,AFSA15.jpg,FS,4,num_8,16,num_8,1.16674604965,,,2017_Aug_29_1046,60.0058316193,FEMA4ImagesEEG,001,201338,
AFNE01.JPG,AFNE01.JPG,AFNE01.JPG,AFNE01.JPG,AFNE01.JPG,AFNE01.JPG,,,,,,,,,2,2,22,7,,,,,,,,,,,,,,,AFNE02.jpg,AFSA15.jpg,AFNE12.jpg,AFSA14.jpg,AFNE12.jpg,FN,3,num_2,32,num_4,1.01682246587,,,2017_Aug_29_1046,60.0058316193,FEMA4ImagesEEG,001,201338,
AFNE01.JPG,AFNE01.JPG,AFNE01.JPG,AFNE01.JPG,AFNE01.JPG,AFNE01.JPG,,,,,,,,,2,3,23,8,,,,,,,,,,,,,,,AFNE13.jpg,AFSA13.jpg,AFNE10.jpg,AFSA12.jpg,AFNE13.jpg,FN,3,num_8,32,num_4,0.733487288293,,,2017_Aug_29_1046,60.0058316193,FEMA4ImagesEEG,001,201338,
AFNE01.JPG,AFNE01.JPG,AFNE01.JPG,AFNE01.JPG,AFNE01.JPG,AFNE01.JPG,,,,,,,,,2,4,24,3,,,,,,,,,,,,,,,AFNE18.jpg,AFSA14.jpg,AFSA01.jpg,AFNE06.jpg,AFSA14.jpg,FS,4,num_6,32,num_4,0.650137998164,,,2017_Aug_29_1046,60.0058316193,FEMA4ImagesEEG,001,201338,
AFNE01.JPG,AFNE01.JPG,AFNE01.JPG,AFNE01.JPG,AFNE01.JPG,AFNE01.JPG,,,,,,,,,2,5,25,9,,,,,,,,,,,,,,,AFNE05.jpg,AFSA07.jpg,AFSA08.jpg,AFNE03.jpg,AFSA08.jpg,FS,4,num_2,16,num_2,0.683440700872,,,2017_Aug_29_1046,60.0058316193,FEMA4ImagesEEG,001,201338,
AFNE01.JPG,AFNE01.JPG,AFNE01.JPG,AFNE01.JPG,AFNE01.JPG,AFNE01.JPG,,,,,,,,,2,6,26,6,,,,,,,,,,,,,,,AFSA16.jpg,AFNE18.jpg,AFNE04.jpg,AFSA02.jpg,AFSA02.jpg,FS,4,num_4,16,num_4,1.25007449172,,,2017_Aug_29_1046,60.0058316193,FEMA4ImagesEEG,001,201338,
AFNE01.JPG,AFNE01.JPG,AFNE01.JPG,AFNE01.JPG,AFNE01.JPG,AFNE01.JPG,,,,,,,,,2,7,27,2,,,,,,,,,,,,,,,AFSA05.jpg,AFNE13.jpg,AFSA09.jpg,AFNE09.jpg,AFSA09.jpg,FS,4,num_2,32,num_4,1.38341937168,,,2017_Aug_29_1046,60.0058316193,FEMA4ImagesEEG,001,201338,
AFNE01.JPG,AFNE01.JPG,AFNE01.JPG,AFNE01.JPG,AFNE01.JPG,AFNE01.JPG,,,,,,,,,2,8,28,5,,,,,,,,,,,,,,,AFNE08.jpg,AFNE19.jpg,AFSA18.jpg,AFSA16.jpg,AFNE19.jpg,FN,3,num_6,32,num_2,1.13343821513,,,2017_Aug_29_1046,60.0058316193,FEMA4ImagesEEG,001,201338,
AFNE01.JPG,AFNE01.JPG,AFNE01.JPG,AFNE01.JPG,AFNE01.JPG,AFNE01.JPG,,,,,,,,,2,9,29,1,,,,,,,,,,,,,,,AFSA07.jpg,AFNE07.jpg,AFNE10.jpg,AFSA17.jpg,AFSA07.jpg,FS,4,num_8,32,num_6,0.966751823027,,,2017_Aug_29_1046,60.0058316193,FEMA4ImagesEEG,001,201338,
AFNE01.JPG,AFNE01.JPG,AFNE01.JPG,AFNE01.JPG,AFNE01.JPG,AFNE01.JPG,,,,,,,,,3,0,30,3,,,,,,,,,,,,,,,AFNE13.jpg,AFSA19.jpg,AFSA15.jpg,AFNE04.jpg,AFNE04.jpg,FN,3,num_4,16,num_4,0.733458742499,,,2017_Aug_29_1046,60.0058316193,FEMA4ImagesEEG,001,201338,
AFNE01.JPG,AFNE01.JPG,AFNE01.JPG,AFNE01.JPG,AFNE01.JPG,AFNE01.JPG,,,,,,,,,3,1,31,2,,,,,,,,,,,,,,,AFNE12.jpg,AFSA07.jpg,AFSA18.jpg,AFNE09.jpg,AFNE12.jpg,FN,3,num_8,16,num_8,0.983486085548,,,2017_Aug_29_1046,60.0058316193,FEMA4ImagesEEG,001,201338,
AFNE01.JPG,AFNE01.JPG,AFNE01.JPG,AFNE01.JPG,AFNE01.JPG,AFNE01.JPG,,,,,,,,,3,2,32,6,,,,,,,,,,,,,,,AFNE03.jpg,AFNE10.jpg,AFSA02.jpg,AFSA08.jpg,AFSA02.jpg,FS,4,num_2,32,num_4,1.00010327809,,,2017_Aug_29_1046,60.0058316193,FEMA4ImagesEEG,001,201338,
AFNE01.JPG,AFNE01.JPG,AFNE01.JPG,AFNE01.JPG,AFNE01.JPG,AFNE01.JPG,,,,,,,,,3,3,33,1,,,,,,,,,,,,,,,AFSA02.jpg,AFSA03.jpg,AFNE17.jpg,AFNE08.jpg,AFNE17.jpg,FN,3,num_2,32,num_8,1.18345272861,,,2017_Aug_29_1046,60.0058316193,FEMA4ImagesEEG,001,201338,
AFNE01.JPG,AFNE01.JPG,AFNE01.JPG,AFNE01.JPG,AFNE01.JPG,AFNE01.JPG,,,,,,,,,3,4,34,7,,,,,,,,,,,,,,,AFNE09.jpg,AFSA16.jpg,AFNE05.jpg,AFSA19.jpg,AFNE05.jpg,FN,3,num_2,32,num_6,0.933521607367,,,2017_Aug_29_1046,60.0058316193,FEMA4ImagesEEG,001,201338,
AFNE01.JPG,AFNE01.JPG,AFNE01.JPG,AFNE01.JPG,AFNE01.JPG,AFNE01.JPG,,,,,,,,,3,5,35,5,,,,,,,,,,,,,,,AFSA15.jpg,AFSA01.jpg,AFNE05.jpg,AFNE12.jpg,AFSA15.jpg,FS,4,num_8,16,num_8,1.10009060893,,,2017_Aug_29_1046,60.0058316193,FEMA4ImagesEEG,001,201338,
AFNE01.JPG,AFNE01.JPG,AFNE01.JPG,AFNE01.JPG,AFNE01.JPG,AFNE01.JPG,,,,,,,,,3,6,36,8,,,,,,,,,,,,,,,AFSA19.jpg,AFNE06.jpg,AFSA06.jpg,AFNE03.jpg,AFSA06.jpg,FS,4,num_2,16,num_2,1.41656747798,,,2017_Aug_29_1046,60.0058316193,FEMA4ImagesEEG,001,201338,
AFNE01.JPG,AFNE01.JPG,AFNE01.JPG,AFNE01.JPG,AFNE01.JPG,AFNE01.JPG,,,,,,,,,3,7,37,4,,,,,,,,,,,,,,,AFSA15.jpg,AFNE15.jpg,AFSA07.jpg,AFNE12.jpg,AFSA15.jpg,FS,4,num_8,32,num_6,0.650161091413,,,2017_Aug_29_1046,60.0058316193,FEMA4ImagesEEG,001,201338,
AFNE01.JPG,AFNE01.JPG,AFNE01.JPG,AFNE01.JPG,AFNE01.JPG,AFNE01.JPG,,,,,,,,,3,8,38,0,,,,,,,,,,,,,,,AFNE19.jpg,AFNE09.jpg,AFSA18.jpg,AFSA06.jpg,AFSA18.jpg,FS,4,num_2,32,num_8,0.883415683173,,,2017_Aug_29_1046,60.0058316193,FEMA4ImagesEEG,001,201338,
AFNE01.JPG,AFNE01.JPG,AFNE01.JPG,AFNE01.JPG,AFNE01.JPG,AFNE01.JPG,,,,,,,,,3,9,39,9,,,,,,,,,,,,,,,AFSA18.jpg,AFSA02.jpg,AFNE20.jpg,AFNE03.jpg,AFSA18.jpg,FS,4,num_8,32,num_4,1.06683313049,,,2017_Aug_29_1046,60.0058316193,FEMA4ImagesEEG,001,201338,
AFNE01.JPG,AFNE01.JPG,AFNE01.JPG,AFNE01.JPG,AFNE01.JPG,AFNE01.JPG,,,,,,,,,4,0,40,8,,,,,,,,,,,,,,,AFNE04.jpg,AFSA05.jpg,AFNE19.jpg,AFSA06.jpg,AFNE19.jpg,FN,3,num_2,16,num_2,1.61681188142,,,2017_Aug_29_1046,60.0058316193,FEMA4ImagesEEG,001,201338,
AFNE01.JPG,AFNE01.JPG,AFNE01.JPG,AFNE01.JPG,AFNE01.JPG,AFNE01.JPG,,,,,,,,,4,1,41,1,,,,,,,,,,,,,,,AFSA09.jpg,AFNE07.jpg,AFNE17.jpg,AFSA03.jpg,AFSA03.jpg,FS,4,num_4,16,num_4,0.683486566646,,,2017_Aug_29_1046,60.0058316193,FEMA4ImagesEEG,001,201338,
AFNE01.JPG,AFNE01.JPG,AFNE01.JPG,AFNE01.JPG,AFNE01.JPG,AFNE01.JPG,,,,,,,,,4,2,42,5,,,,,,,,,,,,,,,AFNE08.jpg,AFNE12.jpg,AFSA08.jpg,AFSA01.jpg,AFSA08.jpg,FS,4,num_2,32,num_8,0.600169029727,,,2017_Aug_29_1046,60.0058316193,FEMA4ImagesEEG,001,201338,
AFNE01.JPG,AFNE01.JPG,AFNE01.JPG,AFNE01.JPG,AFNE01.JPG,AFNE01.JPG,,,,,,,,,4,3,43,3,,,,,,,,,,,,,,,AFNE14.jpg,AFSA12.jpg,AFNE20.jpg,AFSA20.jpg,AFSA20.jpg,FS,4,num_4,16,num_4,0.933419291512,,,2017_Aug_29_1046,60.0058316193,FEMA4ImagesEEG,001,201338,
AFNE01.JPG,AFNE01.JPG,AFNE01.JPG,AFNE01.JPG,AFNE01.JPG,AFNE01.JPG,,,,,,,,,4,4,44,4,,,,,,,,,,,,,,,AFSA11.jpg,AFSA14.jpg,AFNE05.jpg,AFNE15.jpg,AFNE15.jpg,FN,3,num_4,16,num_4,0.833454091742,,,2017_Aug_29_1046,60.0058316193,FEMA4ImagesEEG,001,201338,
AFNE01.JPG,AFNE01.JPG,AFNE01.JPG,AFNE01.JPG,AFNE01.JPG,AFNE01.JPG,,,,,,,,,4,5,45,7,,,,,,,,,,,,,,,AFSA12.jpg,AFNE01.jpg,AFNE04.jpg,AFSA09.jpg,AFNE04.jpg,FN,3,num_2,16,num_2,0.733532191778,,,2017_Aug_29_1046,60.0058316193,FEMA4ImagesEEG,001,201338,
AFNE01.JPG,AFNE01.JPG,AFNE01.JPG,AFNE01.JPG,AFNE01.JPG,AFNE01.JPG,,,,,,,,,4,6,46,6,,,,,,,,,,,,,,,AFNE01.jpg,AFSA09.jpg,AFNE09.jpg,AFSA15.jpg,AFNE01.jpg,FN,3,num_8,32,num_6,0.74998805247,,,2017_Aug_29_1046,60.0058316193,FEMA4ImagesEEG,001,201338,
AFNE01.JPG,AFNE01.JPG,AFNE01.JPG,AFNE01.JPG,AFNE01.JPG,AFNE01.JPG,,,,,,,,,4,7,47,9,,,,,,,,,,,,,,,AFNE06.jpg,AFSA19.jpg,AFNE18.jpg,AFSA10.jpg,AFSA10.jpg,FS,4,num_4,32,num_8,1.30009991035,,,2017_Aug_29_1046,60.0058316193,FEMA4ImagesEEG,001,201338,
AFNE01.JPG,AFNE01.JPG,AFNE01.JPG,AFNE01.JPG,AFNE01.JPG,AFNE01.JPG,,,,,,,,,4,8,48,2,,,,,,,,,,,,,,,AFSA03.jpg,AFNE17.jpg,AFNE04.jpg,AFSA02.jpg,AFSA03.jpg,FS,4,num_8,32,num_6,0.750096783158,,,2017_Aug_29_1046,60.0058316193,FEMA4ImagesEEG,001,201338,
AFNE01.JPG,AFNE01.JPG,AFNE01.JPG,AFNE01.JPG,AFNE01.JPG,AFNE01.JPG,,,,,,,,,4,9,49,0,,,,,,,,,,,,,,,AFNE01.jpg,AFNE03.jpg,AFSA16.jpg,AFSA06.jpg,AFNE01.jpg,FN,3,num_8,16,num_8,0.766859591473,,,2017_Aug_29_1046,60.0058316193,FEMA4ImagesEEG,001,201338,
AFNE01.JPG,AFNE01.JPG,AFNE01.JPG,AFNE01.JPG,AFNE01.JPG,AFNE01.JPG,,,,,,,,,5,0,50,3,,,,,,,,,,,,,,,AFSA09.jpg,AFNE13.jpg,AFNE20.jpg,AFSA20.jpg,AFSA20.jpg,FS,4,num_4,32,num_2,0.616536045505,,,2017_Aug_29_1046,60.0058316193,FEMA4ImagesEEG,001,201338,
AFNE01.JPG,AFNE01.JPG,AFNE01.JPG,AFNE01.JPG,AFNE01.JPG,AFNE01.JPG,,,,,,,,,5,1,51,4,,,,,,,,,,,,,,,AFNE02.jpg,AFSA01.jpg,AFSA02.jpg,AFNE19.jpg,AFNE02.jpg,FN,3,num_8,16,num_8,0.783448879723,,,2017_Aug_29_1046,60.0058316193,FEMA4ImagesEEG,001,201338,
AFNE01.JPG,AFNE01.JPG,AFNE01.JPG,AFNE01.JPG,AFNE01.JPG,AFNE01.JPG,,,,,,,,,5,2,52,8,,,,,,,,,,,,,,,AFNE07.jpg,AFNE12.jpg,AFSA06.jpg,AFSA12.jpg,AFNE12.jpg,FN,3,num_6,32,num_4,0.900112419215,,,2017_Aug_29_1046,60.0058316193,FEMA4ImagesEEG,001,201338,
AFNE01.JPG,AFNE01.JPG,AFNE01.JPG,AFNE01.JPG,AFNE01.JPG,AFNE01.JPG,,,,,,,,,5,3,53,5,,,,,,,,,,,,,,,AFNE19.jpg,AFNE07.jpg,AFSA20.jpg,AFSA05.jpg,AFSA05.jpg,FS,4,num_4,16,num_4,0.600145615696,,,2017_Aug_29_1046,60.0058316193,FEMA4ImagesEEG,001,201338,
AFNE01.JPG,AFNE01.JPG,AFNE01.JPG,AFNE01.JPG,AFNE01.JPG,AFNE01.JPG,,,,,,,,,5,4,54,9,,,,,,,,,,,,,,,AFNE04.jpg,AFNE19.jpg,AFSA12.jpg,AFSA08.jpg,AFSA12.jpg,FS,4,num_2,16,num_2,2.78334816755,,,2017_Aug_29_1046,60.0058316193,FEMA4ImagesEEG,001,201338,
AFNE01.JPG,AFNE01.JPG,AFNE01.JPG,AFNE01.JPG,AFNE01.JPG,AFNE01.JPG,,,,,,,,,5,5,55,7,,,,,,,,,,,,,,,AFNE15.jpg,AFSA13.jpg,AFSA06.jpg,AFNE06.jpg,AFSA13.jpg,FS,4,num_6,16,num_6,1.48342851276,,,2017_Aug_29_1046,60.0058316193,FEMA4ImagesEEG,001,201338,
AFNE01.JPG,AFNE01.JPG,AFNE01.JPG,AFNE01.JPG,AFNE01.JPG,AFNE01.JPG,,,,,,,,,5,6,56,6,,,,,,,,,,,,,,,AFNE13.jpg,AFSA20.jpg,AFSA04.jpg,AFNE08.jpg,AFSA20.jpg,FS,4,num_6,16,num_6,0.933505249734,,,2017_Aug_29_1046,60.0058316193,FEMA4ImagesEEG,001,201338,
AFNE01.JPG,AFNE01.JPG,AFNE01.JPG,AFNE01.JPG,AFNE01.JPG,AFNE01.JPG,,,,,,,,,5,7,57,0,,,,,,,,,,,,,,,AFNE07.jpg,AFSA16.jpg,AFNE19.jpg,AFSA13.jpg,AFSA13.jpg,FS,4,num_4,32,num_6,1.16681661241,,,2017_Aug_29_1046,60.0058316193,FEMA4ImagesEEG,001,201338,
AFNE01.JPG,AFNE01.JPG,AFNE01.JPG,AFNE01.JPG,AFNE01.JPG,AFNE01.JPG,,,,,,,,,5,8,58,2,,,,,,,,,,,,,,,AFNE13.jpg,AFNE19.jpg,AFSA09.jpg,AFSA07.jpg,AFNE19.jpg,FN,3,num_6,32,num_2,1.75004995515,,,2017_Aug_29_1046,60.0058316193,FEMA4ImagesEEG,001,201338,
AFNE01.JPG,AFNE01.JPG,AFNE01.JPG,AFNE01.JPG,AFNE01.JPG,AFNE01.JPG,,,,,,,,,5,9,59,1,,,,,,,,,,,,,,,AFNE09.jpg,AFSA04.jpg,AFNE13.jpg,AFSA19.jpg,AFSA19.jpg,FS,4,num_4,16,num_4,0.666765133676,,,2017_Aug_29_1046,60.0058316193,FEMA4ImagesEEG,001,201338,
,,,,,,,,,,,,,,,,,,,,,,,,,,,,,,,,,,,,,,,,,,,space,1.58339210885,2017_Aug_29_1046,60.0058316193,FEMA4ImagesEEG,001,201338,
AFNE01.JPG,AFNE01.JPG,AFNE01.JPG,AFNE01.JPG,AFNE01.JPG,AFNE01.JPG,,,,,,,,,,,,,0,0,0,5,,,,,,,,,,,AMNE16.jpg,AMSA12.jpg,AMNE17.jpg,AMSA13.jpg,AMNE17.jpg,MN,1,num_2,16,num_2,0.966675166273,,,2017_Aug_29_1046,60.0058316193,FEMA4ImagesEEG,001,201338,
AFNE01.JPG,AFNE01.JPG,AFNE01.JPG,AFNE01.JPG,AFNE01.JPG,AFNE01.JPG,,,,,,,,,,,,,0,1,1,9,,,,,,,,,,,AMNE08.jpg,AMNE06.jpg,AMSA10.jpg,AMSA15.jpg,AMNE08.jpg,MN,1,num_8,32,num_4,1.00008339225,,,2017_Aug_29_1046,60.0058316193,FEMA4ImagesEEG,001,201338,
AFNE01.JPG,AFNE01.JPG,AFNE01.JPG,AFNE01.JPG,AFNE01.JPG,AFNE01.JPG,,,,,,,,,,,,,0,2,2,6,,,,,,,,,,,AMNE03.jpg,AMSA14.jpg,AMNE12.jpg,AMSA18.jpg,AMNE12.jpg,MN,1,num_2,32,num_4,2.76663860196,,,2017_Aug_29_1046,60.0058316193,FEMA4ImagesEEG,001,201338,
AFNE01.JPG,AFNE01.JPG,AFNE01.JPG,AFNE01.JPG,AFNE01.JPG,AFNE01.JPG,,,,,,,,,,,,,0,3,3,1,,,,,,,,,,,AMNE08.jpg,AMSA06.jpg,AMSA16.jpg,AMNE07.jpg,AMNE08.jpg,MN,1,num_8,16,num_8,0.833479430177,,,2017_Aug_29_1046,60.0058316193,FEMA4ImagesEEG,001,201338,
AFNE01.JPG,AFNE01.JPG,AFNE01.JPG,AFNE01.JPG,AFNE01.JPG,AFNE01.JPG,,,,,,,,,,,,,0,4,4,3,,,,,,,,,,,AMNE09.jpg,AMNE03.jpg,AMSA12.jpg,AMSA13.jpg,AMNE03.jpg,MN,1,num_6,32,num_2,1.58340365544,,,2017_Aug_29_1046,60.0058316193,FEMA4ImagesEEG,001,201338,
AFNE01.JPG,AFNE01.JPG,AFNE01.JPG,AFNE01.JPG,AFNE01.JPG,AFNE01.JPG,,,,,,,,,,,,,0,5,5,7,,,,,,,,,,,AMSA08.jpg,AMNE15.jpg,AMNE05.jpg,AMSA15.jpg,AMNE15.jpg,MN,1,num_6,32,num_8,1.11685502093,,,2017_Aug_29_1046,60.0058316193,FEMA4ImagesEEG,001,201338,
AFNE01.JPG,AFNE01.JPG,AFNE01.JPG,AFNE01.JPG,AFNE01.JPG,AFNE01.JPG,,,,,,,,,,,,,0,6,6,4,,,,,,,,,,,AMSA01.jpg,AMSA12.jpg,AMNE10.jpg,AMNE15.jpg,AMNE15.jpg,MN,1,num_4,16,num_4,0.63344895991,,,2017_Aug_29_1046,60.0058316193,FEMA4ImagesEEG,001,201338,
AFNE01.JPG,AFNE01.JPG,AFNE01.JPG,AFNE01.JPG,AFNE01.JPG,AFNE01.JPG,,,,,,,,,,,,,0,7,7,2,,,,,,,,,,,AMNE12.jpg,AMSA03.jpg,AMNE03.jpg,AMSA02.jpg,AMSA02.jpg,MS,2,num_4,32,num_2,1.16671173053,,,2017_Aug_29_1046,60.0058316193,FEMA4ImagesEEG,001,201338,
AFNE01.JPG,AFNE01.JPG,AFNE01.JPG,AFNE01.JPG,AFNE01.JPG,AFNE01.JPG,,,,,,,,,,,,,0,8,8,8,,,,,,,,,,,AMSA04.jpg,AMNE13.jpg,AMSA18.jpg,AMNE17.jpg,AMSA04.jpg,MS,2,num_8,32,num_2,1.06673915382,,,2017_Aug_29_1046,60.0058316193,FEMA4ImagesEEG,001,201338,
AFNE01.JPG,AFNE01.JPG,AFNE01.JPG,AFNE01.JPG,AFNE01.JPG,AFNE01.JPG,,,,,,,,,,,,,0,9,9,0,,,,,,,,,,,AMNE07.jpg,AMNE13.jpg,AMSA03.jpg,AMSA14.jpg,AMSA14.jpg,MS,2,num_4,16,num_4,0.916747893963,,,2017_Aug_29_1046,60.0058316193,FEMA4ImagesEEG,001,201338,
AFNE01.JPG,AFNE01.JPG,AFNE01.JPG,AFNE01.JPG,AFNE01.JPG,AFNE01.JPG,,,,,,,,,,,,,1,0,10,6,,,,,,,,,,,AMNE14.jpg,AMSA15.jpg,AMNE13.jpg,AMSA10.jpg,AMSA15.jpg,MS,2,num_6,16,num_6,1.00009076926,,,2017_Aug_29_1046,60.0058316193,FEMA4ImagesEEG,001,201338,
AFNE01.JPG,AFNE01.JPG,AFNE01.JPG,AFNE01.JPG,AFNE01.JPG,AFNE01.JPG,,,,,,,,,,,,,1,1,11,7,,,,,,,,,,,AMNE11.jpg,AMSA03.jpg,AMSA14.jpg,AMNE03.jpg,AMNE11.jpg,MN,1,num_8,32,num_4,0.983445993043,,,2017_Aug_29_1046,60.0058316193,FEMA4ImagesEEG,001,201338,
AFNE01.JPG,AFNE01.JPG,AFNE01.JPG,AFNE01.JPG,AFNE01.JPG,AFNE01.JPG,,,,,,,,,,,,,1,2,12,5,,,,,,,,,,,AMSA04.jpg,AMNE14.jpg,AMNE20.jpg,AMSA20.jpg,AMNE14.jpg,MN,1,num_6,16,num_6,0.900133588002,,,2017_Aug_29_1046,60.0058316193,FEMA4ImagesEEG,001,201338,
AFNE01.JPG,AFNE01.JPG,AFNE01.JPG,AFNE01.JPG,AFNE01.JPG,AFNE01.JPG,,,,,,,,,,,,,1,3,13,3,,,,,,,,,,,AMSA15.jpg,AMSA17.jpg,AMNE02.jpg,AMNE03.jpg,AMNE03.jpg,MN,1,num_4,16,num_4,0.816776920867,,,2017_Aug_29_1046,60.0058316193,FEMA4ImagesEEG,001,201338,
AFNE01.JPG,AFNE01.JPG,AFNE01.JPG,AFNE01.JPG,AFNE01.JPG,AFNE01.JPG,,,,,,,,,,,,,1,4,14,2,,,,,,,,,,,AMNE05.jpg,AMNE08.jpg,AMSA04.jpg,AMSA06.jpg,AMNE08.jpg,MN,1,num_6,32,num_4,0.866837300069,,,2017_Aug_29_1046,60.0058316193,FEMA4ImagesEEG,001,201338,
AFNE01.JPG,AFNE01.JPG,AFNE01.JPG,AFNE01.JPG,AFNE01.JPG,AFNE01.JPG,,,,,,,,,,,,,1,5,15,8,,,,,,,,,,,AMNE20.jpg,AMSA20.jpg,AMNE11.jpg,AMSA14.jpg,AMSA14.jpg,MS,2,num_4,16,num_4,0.866784378071,,,2017_Aug_29_1046,60.0058316193,FEMA4ImagesEEG,001,201338,
AFNE01.JPG,AFNE01.JPG,AFNE01.JPG,AFNE01.JPG,AFNE01.JPG,AFNE01.JPG,,,,,,,,,,,,,1,6,16,0,,,,,,,,,,,AMSA11.jpg,AMNE10.jpg,AMNE11.jpg,AMSA12.jpg,AMSA12.jpg,MS,2,num_4,32,num_8,0.81677371345,,,2017_Aug_29_1046,60.0058316193,FEMA4ImagesEEG,001,201338,
AFNE01.JPG,AFNE01.JPG,AFNE01.JPG,AFNE01.JPG,AFNE01.JPG,AFNE01.JPG,,,,,,,,,,,,,1,7,17,9,,,,,,,,,,,AMSA07.jpg,AMSA14.jpg,AMNE14.jpg,AMNE20.jpg,AMSA07.jpg,MS,2,num_8,32,num_2,1.61668262345,,,2017_Aug_29_1046,60.0058316193,FEMA4ImagesEEG,001,201338,
AFNE01.JPG,AFNE01.JPG,AFNE01.JPG,AFNE01.JPG,AFNE01.JPG,AFNE01.JPG,,,,,,,,,,,,,1,8,18,1,,,,,,,,,,,AMSA05.jpg,AMNE17.jpg,AMNE09.jpg,AMSA09.jpg,AMSA09.jpg,MS,2,num_4,16,num_4,1.10009317484,,,2017_Aug_29_1046,60.0058316193,FEMA4ImagesEEG,001,201338,
AFNE01.JPG,AFNE01.JPG,AFNE01.JPG,AFNE01.JPG,AFNE01.JPG,AFNE01.JPG,,,,,,,,,,,,,1,9,19,4,,,,,,,,,,,AMSA15.jpg,AMSA03.jpg,AMNE02.jpg,AMNE19.jpg,AMNE19.jpg,MN,1,num_4,32,num_8,1.15013751708,,,2017_Aug_29_1046,60.0058316193,FEMA4ImagesEEG,001,201338,
AFNE01.JPG,AFNE01.JPG,AFNE01.JPG,AFNE01.JPG,AFNE01.JPG,AFNE01.JPG,,,,,,,,,,,,,2,0,20,8,,,,,,,,,,,AMNE01.jpg,AMSA01.jpg,AMNE08.jpg,AMSA08.jpg,AMSA01.jpg,MS,2,num_6,16,num_6,0.900115626573,,,2017_Aug_29_1046,60.0058316193,FEMA4ImagesEEG,001,201338,
AFNE01.JPG,AFNE01.JPG,AFNE01.JPG,AFNE01.JPG,AFNE01.JPG,AFNE01.JPG,,,,,,,,,,,,,2,1,21,5,,,,,,,,,,,AMNE04.jpg,AMNE01.jpg,AMSA05.jpg,AMSA10.jpg,AMSA10.jpg,MS,2,num_4,16,num_4,0.966777161404,,,2017_Aug_29_1046,60.0058316193,FEMA4ImagesEEG,001,201338,
AFNE01.JPG,AFNE01.JPG,AFNE01.JPG,AFNE01.JPG,AFNE01.JPG,AFNE01.JPG,,,,,,,,,,,,,2,2,22,2,,,,,,,,,,,AMNE11.jpg,AMSA13.jpg,AMNE18.jpg,AMSA18.jpg,AMSA13.jpg,MS,2,num_6,16,num_6,1.1001133814,,,2017_Aug_29_1046,60.0058316193,FEMA4ImagesEEG,001,201338,
AFNE01.JPG,AFNE01.JPG,AFNE01.JPG,AFNE01.JPG,AFNE01.JPG,AFNE01.JPG,,,,,,,,,,,,,2,3,23,1,,,,,,,,,,,AMSA09.jpg,AMSA20.jpg,AMNE08.jpg,AMNE18.jpg,AMNE08.jpg,MN,1,num_2,32,num_8,0.500141606492,,,2017_Aug_29_1046,60.0058316193,FEMA4ImagesEEG,001,201338,
AFNE01.JPG,AFNE01.JPG,AFNE01.JPG,AFNE01.JPG,AFNE01.JPG,AFNE01.JPG,,,,,,,,,,,,,2,4,24,6,,,,,,,,,,,AMNE10.jpg,AMNE19.jpg,AMSA02.jpg,AMSA19.jpg,AMSA19.jpg,MS,2,num_4,16,num_4,0.6501822602,,,2017_Aug_29_1046,60.0058316193,FEMA4ImagesEEG,001,201338,
AFNE01.JPG,AFNE01.JPG,AFNE01.JPG,AFNE01.JPG,AFNE01.JPG,AFNE01.JPG,,,,,,,,,,,,,2,5,25,9,,,,,,,,,,,AMNE17.jpg,AMSA11.jpg,AMNE13.jpg,AMSA14.jpg,AMNE17.jpg,MN,1,num_8,32,num_6,1.03345248807,,,2017_Aug_29_1046,60.0058316193,FEMA4ImagesEEG,001,201338,
AFNE01.JPG,AFNE01.JPG,AFNE01.JPG,AFNE01.JPG,AFNE01.JPG,AFNE01.JPG,,,,,,,,,,,,,2,6,26,4,,,,,,,,,,,AMNE09.jpg,AMSA06.jpg,AMNE12.jpg,AMSA13.jpg,AMNE12.jpg,MN,1,num_2,32,num_6,0.916874586081,,,2017_Aug_29_1046,60.0058316193,FEMA4ImagesEEG,001,201338,
AFNE01.JPG,AFNE01.JPG,AFNE01.JPG,AFNE01.JPG,AFNE01.JPG,AFNE01.JPG,,,,,,,,,,,,,2,7,27,3,,,,,,,,,,,AMSA11.jpg,AMSA14.jpg,AMNE20.jpg,AMNE10.jpg,AMSA11.jpg,MS,2,num_8,32,num_2,1.35013912077,,,2017_Aug_29_1046,60.0058316193,FEMA4ImagesEEG,001,201338,
AFNE01.JPG,AFNE01.JPG,AFNE01.JPG,AFNE01.JPG,AFNE01.JPG,AFNE01.JPG,,,,,,,,,,,,,2,8,28,7,,,,,,,,,,,AMSA02.jpg,AMSA07.jpg,AMNE09.jpg,AMNE13.jpg,AMNE09.jpg,MN,1,num_2,32,num_8,1.5667255224,,,2017_Aug_29_1046,60.0058316193,FEMA4ImagesEEG,001,201338,
AFNE01.JPG,AFNE01.JPG,AFNE01.JPG,AFNE01.JPG,AFNE01.JPG,AFNE01.JPG,,,,,,,,,,,,,2,9,29,0,,,,,,,,,,,AMNE16.jpg,AMSA05.jpg,AMSA13.jpg,AMNE12.jpg,AMNE16.jpg,MN,1,num_8,16,num_8,1.01676184614,,,2017_Aug_29_1046,60.0058316193,FEMA4ImagesEEG,001,201338,
AFNE01.JPG,AFNE01.JPG,AFNE01.JPG,AFNE01.JPG,AFNE01.JPG,AFNE01.JPG,,,,,,,,,,,,,3,0,30,1,,,,,,,,,,,AMNE12.jpg,AMSA03.jpg,AMSA06.jpg,AMNE02.jpg,AMNE12.jpg,MN,1,num_8,16,num_8,0.750129819324,,,2017_Aug_29_1046,60.0058316193,FEMA4ImagesEEG,001,201338,
AFNE01.JPG,AFNE01.JPG,AFNE01.JPG,AFNE01.JPG,AFNE01.JPG,AFNE01.JPG,,,,,,,,,,,,,3,1,31,8,,,,,,,,,,,AMNE19.jpg,AMSA07.jpg,AMSA17.jpg,AMNE20.jpg,AMSA07.jpg,MS,2,num_6,16,num_6,0.58352329128,,,2017_Aug_29_1046,60.0058316193,FEMA4ImagesEEG,001,201338,
AFNE01.JPG,AFNE01.JPG,AFNE01.JPG,AFNE01.JPG,AFNE01.JPG,AFNE01.JPG,,,,,,,,,,,,,3,2,32,5,,,,,,,,,,,AMNE15.jpg,AMSA03.jpg,AMNE11.jpg,AMSA13.jpg,AMSA03.jpg,MS,2,num_6,16,num_6,0.800126050657,,,2017_Aug_29_1046,60.0058316193,FEMA4ImagesEEG,001,201338,
AFNE01.JPG,AFNE01.JPG,AFNE01.JPG,AFNE01.JPG,AFNE01.JPG,AFNE01.JPG,,,,,,,,,,,,,3,3,33,6,,,,,,,,,,,AMNE12.jpg,AMSA19.jpg,AMNE19.jpg,AMSA14.jpg,AMNE12.jpg,MN,1,num_8,16,num_8,0.783197099227,,,2017_Aug_29_1046,60.0058316193,FEMA4ImagesEEG,001,201338,
AFNE01.JPG,AFNE01.JPG,AFNE01.JPG,AFNE01.JPG,AFNE01.JPG,AFNE01.JPG,,,,,,,,,,,,,3,4,34,9,,,,,,,,,,,AMNE16.jpg,AMSA14.jpg,AMSA10.jpg,AMNE19.jpg,AMSA14.jpg,MS,2,num_6,16,num_6,0.833461789472,,,2017_Aug_29_1046,60.0058316193,FEMA4ImagesEEG,001,201338,
AFNE01.JPG,AFNE01.JPG,AFNE01.JPG,AFNE01.JPG,AFNE01.JPG,AFNE01.JPG,,,,,,,,,,,,,3,5,35,0,,,,,,,,,,,AMNE04.jpg,AMSA05.jpg,AMNE03.jpg,AMSA13.jpg,AMNE04.jpg,MN,1,num_8,32,num_2,1.26682030089,,,2017_Aug_29_1046,60.0058316193,FEMA4ImagesEEG,001,201338,
AFNE01.JPG,AFNE01.JPG,AFNE01.JPG,AFNE01.JPG,AFNE01.JPG,AFNE01.JPG,,,,,,,,,,,,,3,6,36,4,,,,,,,,,,,AMNE01.jpg,AMNE13.jpg,AMSA10.jpg,AMSA12.jpg,AMNE13.jpg,MN,1,num_6,16,num_6,1.26673530496,,,2017_Aug_29_1046,60.0058316193,FEMA4ImagesEEG,001,201338,
AFNE01.JPG,AFNE01.JPG,AFNE01.JPG,AFNE01.JPG,AFNE01.JPG,AFNE01.JPG,,,,,,,,,,,,,3,7,37,3,,,,,,,,,,,AMSA06.jpg,AMNE06.jpg,AMSA12.jpg,AMNE20.jpg,AMSA12.jpg,MS,2,num_2,16,num_2,0.950261643273,,,2017_Aug_29_1046,60.0058316193,FEMA4ImagesEEG,001,201338,
AFNE01.JPG,AFNE01.JPG,AFNE01.JPG,AFNE01.JPG,AFNE01.JPG,AFNE01.JPG,,,,,,,,,,,,,3,8,38,2,,,,,,,,,,,AMNE09.jpg,AMSA14.jpg,AMNE04.jpg,AMSA01.jpg,AMSA14.jpg,MS,2,num_6,16,num_6,0.666772189958,,,2017_Aug_29_1046,60.0058316193,FEMA4ImagesEEG,001,201338,
AFNE01.JPG,AFNE01.JPG,AFNE01.JPG,AFNE01.JPG,AFNE01.JPG,AFNE01.JPG,,,,,,,,,,,,,3,9,39,7,,,,,,,,,,,AMSA20.jpg,AMNE02.jpg,AMNE15.jpg,AMSA07.jpg,AMSA07.jpg,MS,2,num_4,16,num_4,0.583457860455,,,2017_Aug_29_1046,60.0058316193,FEMA4ImagesEEG,001,201338,
AFNE01.JPG,AFNE01.JPG,AFNE01.JPG,AFNE01.JPG,AFNE01.JPG,AFNE01.JPG,,,,,,,,,,,,,4,0,40,9,,,,,,,,,,,AMSA10.jpg,AMNE09.jpg,AMSA13.jpg,AMNE11.jpg,AMNE11.jpg,MN,1,num_4,32,num_2,1.16672744678,,,2017_Aug_29_1046,60.0058316193,FEMA4ImagesEEG,001,201338,
AFNE01.JPG,AFNE01.JPG,AFNE01.JPG,AFNE01.JPG,AFNE01.JPG,AFNE01.JPG,,,,,,,,,,,,,4,1,41,2,,,,,,,,,,,AMNE12.jpg,AMSA07.jpg,AMNE11.jpg,AMSA04.jpg,AMSA04.jpg,MS,2,num_4,16,num_4,0.816663379082,,,2017_Aug_29_1046,60.0058316193,FEMA4ImagesEEG,001,201338,
AFNE01.JPG,AFNE01.JPG,AFNE01.JPG,AFNE01.JPG,AFNE01.JPG,AFNE01.JPG,,,,,,,,,,,,,4,2,42,1,,,,,,,,,,,AMNE17.jpg,AMNE18.jpg,AMSA10.jpg,AMSA02.jpg,AMSA02.jpg,MS,2,num_4,16,num_4,1.48349811323,,,2017_Aug_29_1046,60.0058316193,FEMA4ImagesEEG,001,201338,
AFNE01.JPG,AFNE01.JPG,AFNE01.JPG,AFNE01.JPG,AFNE01.JPG,AFNE01.JPG,,,,,,,,,,,,,4,3,43,0,,,,,,,,,,,AMNE06.jpg,AMNE18.jpg,AMSA10.jpg,AMSA09.jpg,AMSA10.jpg,MS,2,num_2,16,num_2,1.0334839205,,,2017_Aug_29_1046,60.0058316193,FEMA4ImagesEEG,001,201338,
AFNE01.JPG,AFNE01.JPG,AFNE01.JPG,AFNE01.JPG,AFNE01.JPG,AFNE01.JPG,,,,,,,,,,,,,4,4,44,7,,,,,,,,,,,AMNE13.jpg,AMSA14.jpg,AMSA17.jpg,AMNE18.jpg,AMSA14.jpg,MS,2,num_6,16,num_6,0.483475982212,,,2017_Aug_29_1046,60.0058316193,FEMA4ImagesEEG,001,201338,
AFNE01.JPG,AFNE01.JPG,AFNE01.JPG,AFNE01.JPG,AFNE01.JPG,AFNE01.JPG,,,,,,,,,,,,,4,5,45,5,,,,,,,,,,,AMSA17.jpg,AMSA15.jpg,AMNE04.jpg,AMNE08.jpg,AMNE08.jpg,MN,1,num_4,32,num_8,0.733434366237,,,2017_Aug_29_1046,60.0058316193,FEMA4ImagesEEG,001,201338,
AFNE01.JPG,AFNE01.JPG,AFNE01.JPG,AFNE01.JPG,AFNE01.JPG,AFNE01.JPG,,,,,,,,,,,,,4,6,46,4,,,,,,,,,,,AMNE02.jpg,AMSA20.jpg,AMSA12.jpg,AMNE05.jpg,AMSA12.jpg,MS,2,num_2,32,num_6,0.566857987782,,,2017_Aug_29_1046,60.0058316193,FEMA4ImagesEEG,001,201338,
AFNE01.JPG,AFNE01.JPG,AFNE01.JPG,AFNE01.JPG,AFNE01.JPG,AFNE01.JPG,,,,,,,,,,,,,4,7,47,3,,,,,,,,,,,AMSA17.jpg,AMNE12.jpg,AMSA01.jpg,AMNE02.jpg,AMSA17.jpg,MS,2,num_8,16,num_8,0.917061897926,,,2017_Aug_29_1046,60.0058316193,FEMA4ImagesEEG,001,201338,
AFNE01.JPG,AFNE01.JPG,AFNE01.JPG,AFNE01.JPG,AFNE01.JPG,AFNE01.JPG,,,,,,,,,,,,,4,8,48,8,,,,,,,,,,,AMNE10.jpg,AMSA05.jpg,AMSA20.jpg,AMNE05.jpg,AMNE10.jpg,MN,1,num_8,16,num_8,0.783478387748,,,2017_Aug_29_1046,60.0058316193,FEMA4ImagesEEG,001,201338,
AFNE01.JPG,AFNE01.JPG,AFNE01.JPG,AFNE01.JPG,AFNE01.JPG,AFNE01.JPG,,,,,,,,,,,,,4,9,49,6,,,,,,,,,,,AMSA15.jpg,AMNE14.jpg,AMNE04.jpg,AMSA10.jpg,AMSA10.jpg,MS,2,num_4,16,num_4,1.01677692088,,,2017_Aug_29_1046,60.0058316193,FEMA4ImagesEEG,001,201338,
AFNE01.JPG,AFNE01.JPG,AFNE01.JPG,AFNE01.JPG,AFNE01.JPG,AFNE01.JPG,,,,,,,,,,,,,5,0,50,6,,,,,,,,,,,AMNE06.jpg,AMSA11.jpg,AMSA02.jpg,AMNE17.jpg,AMNE06.jpg,MN,1,num_8,32,num_2,1.3167251214,,,2017_Aug_29_1046,60.0058316193,FEMA4ImagesEEG,001,201338,
AFNE01.JPG,AFNE01.JPG,AFNE01.JPG,AFNE01.JPG,AFNE01.JPG,AFNE01.JPG,,,,,,,,,,,,,5,1,51,9,,,,,,,,,,,AMNE06.jpg,AMNE15.jpg,AMSA04.jpg,AMSA05.jpg,AMNE15.jpg,MN,1,num_6,32,num_8,0.650146658125,,,2017_Aug_29_1046,60.0058316193,FEMA4ImagesEEG,001,201338,
AFNE01.JPG,AFNE01.JPG,AFNE01.JPG,AFNE01.JPG,AFNE01.JPG,AFNE01.JPG,,,,,,,,,,,,,5,2,52,5,,,,,,,,,,,AMSA10.jpg,AMNE16.jpg,AMNE17.jpg,AMSA04.jpg,AMSA04.jpg,MS,2,num_4,16,num_4,0.516800815996,,,2017_Aug_29_1046,60.0058316193,FEMA4ImagesEEG,001,201338,
AFNE01.JPG,AFNE01.JPG,AFNE01.JPG,AFNE01.JPG,AFNE01.JPG,AFNE01.JPG,,,,,,,,,,,,,5,3,53,1,,,,,,,,,,,AMNE02.jpg,AMSA08.jpg,AMNE05.jpg,AMSA11.jpg,AMNE05.jpg,MN,1,num_2,32,num_8,1.91667187872,,,2017_Aug_29_1046,60.0058316193,FEMA4ImagesEEG,001,201338,
AFNE01.JPG,AFNE01.JPG,AFNE01.JPG,AFNE01.JPG,AFNE01.JPG,AFNE01.JPG,,,,,,,,,,,,,5,4,54,8,,,,,,,,,,,AMNE10.jpg,AMNE13.jpg,AMSA08.jpg,AMSA11.jpg,AMNE10.jpg,MN,1,num_8,16,num_8,0.866952766315,,,2017_Aug_29_1046,60.0058316193,FEMA4ImagesEEG,001,201338,
AFNE01.JPG,AFNE01.JPG,AFNE01.JPG,AFNE01.JPG,AFNE01.JPG,AFNE01.JPG,,,,,,,,,,,,,5,5,55,3,,,,,,,,,,,AMSA03.jpg,AMNE06.jpg,AMSA06.jpg,AMNE05.jpg,AMSA06.jpg,MS,2,num_2,32,num_8,0.983580703672,,,2017_Aug_29_1046,60.0058316193,FEMA4ImagesEEG,001,201338,
AFNE01.JPG,AFNE01.JPG,AFNE01.JPG,AFNE01.JPG,AFNE01.JPG,AFNE01.JPG,,,,,,,,,,,,,5,6,56,0,,,,,,,,,,,AMNE14.jpg,AMSA13.jpg,AMNE04.jpg,AMSA12.jpg,AMNE14.jpg,MN,1,num_8,16,num_8,0.71680081595,,,2017_Aug_29_1046,60.0058316193,FEMA4ImagesEEG,001,201338,
AFNE01.JPG,AFNE01.JPG,AFNE01.JPG,AFNE01.JPG,AFNE01.JPG,AFNE01.JPG,,,,,,,,,,,,,5,7,57,2,,,,,,,,,,,AMNE15.jpg,AMSA10.jpg,AMNE01.jpg,AMSA20.jpg,AMNE01.jpg,MN,1,num_2,16,num_2,1.03343484737,,,2017_Aug_29_1046,60.0058316193,FEMA4ImagesEEG,001,201338,
AFNE01.JPG,AFNE01.JPG,AFNE01.JPG,AFNE01.JPG,AFNE01.JPG,AFNE01.JPG,,,,,,,,,,,,,5,8,58,4,,,,,,,,,,,AMNE18.jpg,AMSA02.jpg,AMNE16.jpg,AMSA08.jpg,AMSA08.jpg,MS,2,num_4,16,num_4,1.13370891928,,,2017_Aug_29_1046,60.0058316193,FEMA4ImagesEEG,001,201338,
AFNE01.JPG,AFNE01.JPG,AFNE01.JPG,AFNE01.JPG,AFNE01.JPG,AFNE01.JPG,,,,,,,,,,,,,5,9,59,7,,,,,,,,,,,AMSA01.jpg,AMNE03.jpg,AMSA12.jpg,AMNE05.jpg,AMSA01.jpg,MS,2,num_8,16,num_8,0.43351086264,,,2017_Aug_29_1046,60.0058316193,FEMA4ImagesEEG,001,201338,
,,,,,,,,,,,,,,,,,,,,,,,,,,,,,,,,,,,,,,,,,,,space,1.51672608365,2017_Aug_29_1046,60.0058316193,FEMA4ImagesEEG,001,201338,
AFNE01.JPG,AFNE01.JPG,AFNE01.JPG,AFNE01.JPG,AFNE01.JPG,AFNE01.JPG,,,,,,,,,,,,,,,,,0,0,0,6,,,,,,,AFNE19.jpg,AFNE07.jpg,AFSA10.jpg,AFSA16.jpg,AFNE07.jpg,FN,3,num_6,16,num_6,0.833492901234,,,2017_Aug_29_1046,60.0058316193,FEMA4ImagesEEG,001,201338,
AFNE01.JPG,AFNE01.JPG,AFNE01.JPG,AFNE01.JPG,AFNE01.JPG,AFNE01.JPG,,,,,,,,,,,,,,,,,0,1,1,4,,,,,,,AFNE19.jpg,AFSA18.jpg,AFNE20.jpg,AFSA14.jpg,AFSA18.jpg,FS,4,num_6,16,num_6,0.716809475969,,,2017_Aug_29_1046,60.0058316193,FEMA4ImagesEEG,001,201338,
AFNE01.JPG,AFNE01.JPG,AFNE01.JPG,AFNE01.JPG,AFNE01.JPG,AFNE01.JPG,,,,,,,,,,,,,,,,,0,2,2,2,,,,,,,AFNE03.jpg,AFNE06.jpg,AFSA08.jpg,AFSA07.jpg,AFSA08.jpg,FS,4,num_2,32,num_8,0.86675166263,,,2017_Aug_29_1046,60.0058316193,FEMA4ImagesEEG,001,201338,
AFNE01.JPG,AFNE01.JPG,AFNE01.JPG,AFNE01.JPG,AFNE01.JPG,AFNE01.JPG,,,,,,,,,,,,,,,,,0,3,3,3,,,,,,,AFNE01.jpg,AFSA04.jpg,AFNE03.jpg,AFSA12.jpg,AFNE01.jpg,FN,3,num_8,32,num_4,1.05008828355,,,2017_Aug_29_1046,60.0058316193,FEMA4ImagesEEG,001,201338,
AFNE01.JPG,AFNE01.JPG,AFNE01.JPG,AFNE01.JPG,AFNE01.JPG,AFNE01.JPG,,,,,,,,,,,,,,,,,0,4,4,5,,,,,,,AFSA07.jpg,AFNE01.jpg,AFNE19.jpg,AFSA20.jpg,AFNE01.jpg,FN,3,num_6,16,num_6,1.10008002451,,,2017_Aug_29_1046,60.0058316193,FEMA4ImagesEEG,001,201338,
AFNE01.JPG,AFNE01.JPG,AFNE01.JPG,AFNE01.JPG,AFNE01.JPG,AFNE01.JPG,,,,,,,,,,,,,,,,,0,5,5,7,,,,,,,AFNE07.jpg,AFNE19.jpg,AFSA16.jpg,AFSA14.jpg,AFNE07.jpg,FN,3,num_8,32,num_2,1.06674781378,,,2017_Aug_29_1046,60.0058316193,FEMA4ImagesEEG,001,201338,
AFNE01.JPG,AFNE01.JPG,AFNE01.JPG,AFNE01.JPG,AFNE01.JPG,AFNE01.JPG,,,,,,,,,,,,,,,,,0,6,6,0,,,,,,,AFNE15.jpg,AFSA16.jpg,AFNE05.jpg,AFSA20.jpg,AFNE15.jpg,FN,3,num_8,16,num_8,0.600130540959,,,2017_Aug_29_1046,60.0058316193,FEMA4ImagesEEG,001,201338,
AFNE01.JPG,AFNE01.JPG,AFNE01.JPG,AFNE01.JPG,AFNE01.JPG,AFNE01.JPG,,,,,,,,,,,,,,,,,0,7,7,1,,,,,,,AFSA14.jpg,AFNE16.jpg,AFSA15.jpg,AFNE12.jpg,AFNE12.jpg,FN,3,num_4,16,num_4,0.81694530911,,,2017_Aug_29_1046,60.0058316193,FEMA4ImagesEEG,001,201338,
AFNE01.JPG,AFNE01.JPG,AFNE01.JPG,AFNE01.JPG,AFNE01.JPG,AFNE01.JPG,,,,,,,,,,,,,,,,,0,8,8,9,,,,,,,AFSA02.jpg,AFNE03.jpg,AFNE12.jpg,AFSA11.jpg,AFNE12.jpg,FN,3,num_2,16,num_2,0.950116348278,,,2017_Aug_29_1046,60.0058316193,FEMA4ImagesEEG,001,201338,
AFNE01.JPG,AFNE01.JPG,AFNE01.JPG,AFNE01.JPG,AFNE01.JPG,AFNE01.JPG,,,,,,,,,,,,,,,,,0,9,9,8,,,,,,,AFNE18.jpg,AFNE05.jpg,AFSA02.jpg,AFSA11.jpg,AFSA11.jpg,FS,4,num_4,16,num_4,0.633492901223,,,2017_Aug_29_1046,60.0058316193,FEMA4ImagesEEG,001,201338,
AFNE01.JPG,AFNE01.JPG,AFNE01.JPG,AFNE01.JPG,AFNE01.JPG,AFNE01.JPG,,,,,,,,,,,,,,,,,1,0,10,9,,,,,,,AFSA15.jpg,AFNE15.jpg,AFNE11.jpg,AFSA12.jpg,AFNE15.jpg,FN,3,num_6,16,num_6,0.700143530965,,,2017_Aug_29_1046,60.0058316193,FEMA4ImagesEEG,001,201338,
AFNE01.JPG,AFNE01.JPG,AFNE01.JPG,AFNE01.JPG,AFNE01.JPG,AFNE01.JPG,,,,,,,,,,,,,,,,,1,1,11,1,,,,,,,AFNE15.jpg,AFSA04.jpg,AFNE03.jpg,AFSA19.jpg,AFSA19.jpg,FS,4,num_4,16,num_4,1.30013615394,,,2017_Aug_29_1046,60.0058316193,FEMA4ImagesEEG,001,201338,
AFNE01.JPG,AFNE01.JPG,AFNE01.JPG,AFNE01.JPG,AFNE01.JPG,AFNE01.JPG,,,,,,,,,,,,,,,,,1,2,12,3,,,,,,,AFSA09.jpg,AFNE10.jpg,AFSA06.jpg,AFNE05.jpg,AFNE05.jpg,FN,3,num_4,16,num_4,1.483436852,,,2017_Aug_29_1046,60.0058316193,FEMA4ImagesEEG,001,201338,
AFNE01.JPG,AFNE01.JPG,AFNE01.JPG,AFNE01.JPG,AFNE01.JPG,AFNE01.JPG,,,,,,,,,,,,,,,,,1,3,13,6,,,,,,,AFSA18.jpg,AFSA11.jpg,AFNE08.jpg,AFNE03.jpg,AFNE03.jpg,FN,3,num_4,16,num_4,1.18343091832,,,2017_Aug_29_1046,60.0058316193,FEMA4ImagesEEG,001,201338,
AFNE01.JPG,AFNE01.JPG,AFNE01.JPG,AFNE01.JPG,AFNE01.JPG,AFNE01.JPG,,,,,,,,,,,,,,,,,1,4,14,7,,,,,,,AFSA11.jpg,AFNE08.jpg,AFNE02.jpg,AFSA15.jpg,AFNE08.jpg,FN,3,num_6,32,num_4,0.866774114373,,,2017_Aug_29_1046,60.0058316193,FEMA4ImagesEEG,001,201338,
AFNE01.JPG,AFNE01.JPG,AFNE01.JPG,AFNE01.JPG,AFNE01.JPG,AFNE01.JPG,,,,,,,,,,,,,,,,,1,5,15,2,,,,,,,AFSA08.jpg,AFSA06.jpg,AFNE15.jpg,AFNE10.jpg,AFSA08.jpg,FS,4,num_8,16,num_8,1.23342073488,,,2017_Aug_29_1046,60.0058316193,FEMA4ImagesEEG,001,201338,
AFNE01.JPG,AFNE01.JPG,AFNE01.JPG,AFNE01.JPG,AFNE01.JPG,AFNE01.JPG,,,,,,,,,,,,,,,,,1,6,16,8,,,,,,,AFNE16.jpg,AFSA15.jpg,AFSA09.jpg,AFNE18.jpg,AFNE16.jpg,FN,3,num_8,16,num_8,1.2334454318,,,2017_Aug_29_1046,60.0058316193,FEMA4ImagesEEG,001,201338,
AFNE01.JPG,AFNE01.JPG,AFNE01.JPG,AFNE01.JPG,AFNE01.JPG,AFNE01.JPG,,,,,,,,,,,,,,,,,1,7,17,4,,,,,,,AFNE05.jpg,AFSA16.jpg,AFNE15.jpg,AFSA18.jpg,AFSA16.jpg,FS,4,num_6,32,num_8,0.916764893162,,,2017_Aug_29_1046,60.0058316193,FEMA4ImagesEEG,001,201338,
AFNE01.JPG,AFNE01.JPG,AFNE01.JPG,AFNE01.JPG,AFNE01.JPG,AFNE01.JPG,,,,,,,,,,,,,,,,,1,8,18,5,,,,,,,AFSA17.jpg,AFSA05.jpg,AFNE20.jpg,AFNE16.jpg,AFSA05.jpg,FS,4,num_6,16,num_6,0.6501238856,,,2017_Aug_29_1046,60.0058316193,FEMA4ImagesEEG,001,201338,
AFNE01.JPG,AFNE01.JPG,AFNE01.JPG,AFNE01.JPG,AFNE01.JPG,AFNE01.JPG,,,,,,,,,,,,,,,,,1,9,19,0,,,,,,,AFSA06.jpg,AFSA14.jpg,AFNE10.jpg,AFNE04.jpg,AFSA14.jpg,FS,4,num_6,32,num_2,0.983446955273,,,2017_Aug_29_1046,60.0058316193,FEMA4ImagesEEG,001,201338,
AFNE01.JPG,AFNE01.JPG,AFNE01.JPG,AFNE01.JPG,AFNE01.JPG,AFNE01.JPG,,,,,,,,,,,,,,,,,2,0,20,1,,,,,,,AFNE10.jpg,AFNE18.jpg,AFSA04.jpg,AFSA11.jpg,AFNE18.jpg,FN,3,num_6,32,num_8,0.867040007433,,,2017_Aug_29_1046,60.0058316193,FEMA4ImagesEEG,001,201338,
AFNE01.JPG,AFNE01.JPG,AFNE01.JPG,AFNE01.JPG,AFNE01.JPG,AFNE01.JPG,,,,,,,,,,,,,,,,,2,1,21,3,,,,,,,AFSA01.jpg,AFNE02.jpg,AFNE13.jpg,AFSA02.jpg,AFSA01.jpg,FS,4,num_8,16,num_8,0.766768180707,,,2017_Aug_29_1046,60.0058316193,FEMA4ImagesEEG,001,201338,
AFNE01.JPG,AFNE01.JPG,AFNE01.JPG,AFNE01.JPG,AFNE01.JPG,AFNE01.JPG,,,,,,,,,,,,,,,,,2,2,22,5,,,,,,,AFNE02.jpg,AFNE14.jpg,AFSA16.jpg,AFSA03.jpg,AFSA03.jpg,FS,4,num_4,32,num_8,0.900161171623,,,2017_Aug_29_1046,60.0058316193,FEMA4ImagesEEG,001,201338,
AFNE01.JPG,AFNE01.JPG,AFNE01.JPG,AFNE01.JPG,AFNE01.JPG,AFNE01.JPG,,,,,,,,,,,,,,,,,2,3,23,6,,,,,,,AFNE01.jpg,AFNE16.jpg,AFSA07.jpg,AFSA11.jpg,AFSA11.jpg,FS,4,num_4,16,num_4,0.583463633782,,,2017_Aug_29_1046,60.0058316193,FEMA4ImagesEEG,001,201338,
AFNE01.JPG,AFNE01.JPG,AFNE01.JPG,AFNE01.JPG,AFNE01.JPG,AFNE01.JPG,,,,,,,,,,,,,,,,,2,4,24,9,,,,,,,AFNE19.jpg,AFNE10.jpg,AFSA04.jpg,AFSA06.jpg,AFNE19.jpg,FN,3,num_8,16,num_8,1.11678991083,,,2017_Aug_29_1046,60.0058316193,FEMA4ImagesEEG,001,201338,
AFNE01.JPG,AFNE01.JPG,AFNE01.JPG,AFNE01.JPG,AFNE01.JPG,AFNE01.JPG,,,,,,,,,,,,,,,,,2,5,25,7,,,,,,,AFSA05.jpg,AFNE05.jpg,AFSA10.jpg,AFNE01.jpg,AFNE05.jpg,FN,3,num_6,16,num_6,0.883463152684,,,2017_Aug_29_1046,60.0058316193,FEMA4ImagesEEG,001,201338,
AFNE01.JPG,AFNE01.JPG,AFNE01.JPG,AFNE01.JPG,AFNE01.JPG,AFNE01.JPG,,,,,,,,,,,,,,,,,2,6,26,0,,,,,,,AFNE02.jpg,AFNE08.jpg,AFSA16.jpg,AFSA07.jpg,AFSA07.jpg,FS,4,num_4,32,num_2,0.933481514978,,,2017_Aug_29_1046,60.0058316193,FEMA4ImagesEEG,001,201338,
AFNE01.JPG,AFNE01.JPG,AFNE01.JPG,AFNE01.JPG,AFNE01.JPG,AFNE01.JPG,,,,,,,,,,,,,,,,,2,7,27,4,,,,,,,AFSA07.jpg,AFSA19.jpg,AFNE14.jpg,AFNE08.jpg,AFSA19.jpg,FS,4,num_6,16,num_6,0.666776680329,,,2017_Aug_29_1046,60.0058316193,FEMA4ImagesEEG,001,201338,
AFNE01.JPG,AFNE01.JPG,AFNE01.JPG,AFNE01.JPG,AFNE01.JPG,AFNE01.JPG,,,,,,,,,,,,,,,,,2,8,28,8,,,,,,,AFSA19.jpg,AFNE04.jpg,AFNE02.jpg,AFSA18.jpg,AFSA19.jpg,FS,4,num_8,32,num_2,0.933348408144,,,2017_Aug_29_1046,60.0058316193,FEMA4ImagesEEG,001,201338,
AFNE01.JPG,AFNE01.JPG,AFNE01.JPG,AFNE01.JPG,AFNE01.JPG,AFNE01.JPG,,,,,,,,,,,,,,,,,2,9,29,2,,,,,,,AFNE11.jpg,AFNE07.jpg,AFSA19.jpg,AFSA02.jpg,AFSA19.jpg,FS,4,num_2,16,num_2,0.700116268068,,,2017_Aug_29_1046,60.0058316193,FEMA4ImagesEEG,001,201338,
AFNE01.JPG,AFNE01.JPG,AFNE01.JPG,AFNE01.JPG,AFNE01.JPG,AFNE01.JPG,,,,,,,,,,,,,,,,,3,0,30,1,,,,,,,AFSA04.jpg,AFNE09.jpg,AFSA05.jpg,AFNE08.jpg,AFNE09.jpg,FN,3,num_6,32,num_4,0.683509339171,,,2017_Aug_29_1046,60.0058316193,FEMA4ImagesEEG,001,201338,
AFNE01.JPG,AFNE01.JPG,AFNE01.JPG,AFNE01.JPG,AFNE01.JPG,AFNE01.JPG,,,,,,,,,,,,,,,,,3,1,31,4,,,,,,,AFSA05.jpg,AFNE12.jpg,AFSA18.jpg,AFNE15.jpg,AFSA05.jpg,FS,4,num_8,32,num_2,1.15006278479,,,2017_Aug_29_1046,60.0058316193,FEMA4ImagesEEG,001,201338,
AFNE01.JPG,AFNE01.JPG,AFNE01.JPG,AFNE01.JPG,AFNE01.JPG,AFNE01.JPG,,,,,,,,,,,,,,,,,3,2,32,2,,,,,,,AFNE09.jpg,AFSA07.jpg,AFSA17.jpg,AFNE14.jpg,AFNE14.jpg,FN,3,num_4,16,num_4,1.16699879238,,,2017_Aug_29_1046,60.0058316193,FEMA4ImagesEEG,001,201338,
AFNE01.JPG,AFNE01.JPG,AFNE01.JPG,AFNE01.JPG,AFNE01.JPG,AFNE01.JPG,,,,,,,,,,,,,,,,,3,3,33,0,,,,,,,AFNE05.jpg,AFSA13.jpg,AFNE14.jpg,AFSA12.jpg,AFNE05.jpg,FN,3,num_8,16,num_8,0.91671229183,,,2017_Aug_29_1046,60.0058316193,FEMA4ImagesEEG,001,201338,
AFNE01.JPG,AFNE01.JPG,AFNE01.JPG,AFNE01.JPG,AFNE01.JPG,AFNE01.JPG,,,,,,,,,,,,,,,,,3,4,34,7,,,,,,,AFNE08.jpg,AFSA04.jpg,AFNE02.jpg,AFSA02.jpg,AFSA04.jpg,FS,4,num_6,32,num_8,0.983475821849,,,2017_Aug_29_1046,60.0058316193,FEMA4ImagesEEG,001,201338,
AFNE01.JPG,AFNE01.JPG,AFNE01.JPG,AFNE01.JPG,AFNE01.JPG,AFNE01.JPG,,,,,,,,,,,,,,,,,3,5,35,8,,,,,,,AFSA12.jpg,AFSA04.jpg,AFNE05.jpg,AFNE06.jpg,AFNE05.jpg,FN,3,num_2,32,num_6,0.766803141276,,,2017_Aug_29_1046,60.0058316193,FEMA4ImagesEEG,001,201338,
AFNE01.JPG,AFNE01.JPG,AFNE01.JPG,AFNE01.JPG,AFNE01.JPG,AFNE01.JPG,,,,,,,,,,,,,,,,,3,6,36,3,,,,,,,AFSA08.jpg,AFSA11.jpg,AFNE09.jpg,AFNE06.jpg,AFNE09.jpg,FN,3,num_2,16,num_2,1.21659057122,,,2017_Aug_29_1046,60.0058316193,FEMA4ImagesEEG,001,201338,
AFNE01.JPG,AFNE01.JPG,AFNE01.JPG,AFNE01.JPG,AFNE01.JPG,AFNE01.JPG,,,,,,,,,,,,,,,,,3,7,37,9,,,,,,,AFSA10.jpg,AFNE02.jpg,AFSA04.jpg,AFNE01.jpg,AFSA10.jpg,FS,4,num_8,16,num_8,0.783562421508,,,2017_Aug_29_1046,60.0058316193,FEMA4ImagesEEG,001,201338,
AFNE01.JPG,AFNE01.JPG,AFNE01.JPG,AFNE01.JPG,AFNE01.JPG,AFNE01.JPG,,,,,,,,,,,,,,,,,3,8,38,6,,,,,,,AFSA20.jpg,AFNE13.jpg,AFNE04.jpg,AFSA14.jpg,AFSA20.jpg,FS,4,num_8,32,num_2,1.10017271817,,,2017_Aug_29_1046,60.0058316193,FEMA4ImagesEEG,001,201338,
AFNE01.JPG,AFNE01.JPG,AFNE01.JPG,AFNE01.JPG,AFNE01.JPG,AFNE01.JPG,,,,,,,,,,,,,,,,,3,9,39,5,,,,,,,AFNE14.jpg,AFSA03.jpg,AFSA11.jpg,AFNE15.jpg,AFSA11.jpg,FS,4,num_2,16,num_2,0.750217381166,,,2017_Aug_29_1046,60.0058316193,FEMA4ImagesEEG,001,201338,
AFNE01.JPG,AFNE01.JPG,AFNE01.JPG,AFNE01.JPG,AFNE01.JPG,AFNE01.JPG,,,,,,,,,,,,,,,,,4,0,40,5,,,,,,,AFNE01.jpg,AFNE12.jpg,AFSA07.jpg,AFSA18.jpg,AFSA07.jpg,FS,4,num_2,32,num_4,0.816487293108,,,2017_Aug_29_1046,60.0058316193,FEMA4ImagesEEG,001,201338,
AFNE01.JPG,AFNE01.JPG,AFNE01.JPG,AFNE01.JPG,AFNE01.JPG,AFNE01.JPG,,,,,,,,,,,,,,,,,4,1,41,2,,,,,,,AFNE04.jpg,AFSA17.jpg,AFNE03.jpg,AFSA09.jpg,AFSA09.jpg,FS,4,num_4,32,num_6,0.933480873529,,,2017_Aug_29_1046,60.0058316193,FEMA4ImagesEEG,001,201338,
AFNE01.JPG,AFNE01.JPG,AFNE01.JPG,AFNE01.JPG,AFNE01.JPG,AFNE01.JPG,,,,,,,,,,,,,,,,,4,2,42,0,,,,,,,AFSA08.jpg,AFNE16.jpg,AFNE14.jpg,AFSA03.jpg,AFNE16.jpg,FN,3,num_6,32,num_2,0.950113140862,,,2017_Aug_29_1046,60.0058316193,FEMA4ImagesEEG,001,201338,
AFNE01.JPG,AFNE01.JPG,AFNE01.JPG,AFNE01.JPG,AFNE01.JPG,AFNE01.JPG,,,,,,,,,,,,,,,,,4,3,43,6,,,,,,,AFSA12.jpg,AFNE02.jpg,AFNE18.jpg,AFSA17.jpg,AFSA12.jpg,FS,4,num_8,32,num_4,1.03343324369,,,2017_Aug_29_1046,60.0058316193,FEMA4ImagesEEG,001,201338,
AFNE01.JPG,AFNE01.JPG,AFNE01.JPG,AFNE01.JPG,AFNE01.JPG,AFNE01.JPG,,,,,,,,,,,,,,,,,4,4,44,4,,,,,,,AFNE15.jpg,AFSA01.jpg,AFNE08.jpg,AFSA17.jpg,AFNE15.jpg,FN,3,num_8,32,num_2,1.03347558132,,,2017_Aug_29_1046,60.0058316193,FEMA4ImagesEEG,001,201338,
AFNE01.JPG,AFNE01.JPG,AFNE01.JPG,AFNE01.JPG,AFNE01.JPG,AFNE01.JPG,,,,,,,,,,,,,,,,,4,5,45,3,,,,,,,AFNE10.jpg,AFSA03.jpg,AFNE14.jpg,AFSA05.jpg,AFNE10.jpg,FN,3,num_8,32,num_2,0.983436050185,,,2017_Aug_29_1046,60.0058316193,FEMA4ImagesEEG,001,201338,
AFNE01.JPG,AFNE01.JPG,AFNE01.JPG,AFNE01.JPG,AFNE01.JPG,AFNE01.JPG,,,,,,,,,,,,,,,,,4,6,46,1,,,,,,,AFNE04.jpg,AFNE15.jpg,AFSA07.jpg,AFSA12.jpg,AFSA07.jpg,FS,4,num_2,32,num_4,1.26672953164,,,2017_Aug_29_1046,60.0058316193,FEMA4ImagesEEG,001,201338,
AFNE01.JPG,AFNE01.JPG,AFNE01.JPG,AFNE01.JPG,AFNE01.JPG,AFNE01.JPG,,,,,,,,,,,,,,,,,4,7,47,8,,,,,,,AFNE20.jpg,AFNE10.jpg,AFSA11.jpg,AFSA20.jpg,AFNE10.jpg,FN,3,num_6,16,num_6,1.00008146785,,,2017_Aug_29_1046,60.0058316193,FEMA4ImagesEEG,001,201338,
AFNE01.JPG,AFNE01.JPG,AFNE01.JPG,AFNE01.JPG,AFNE01.JPG,AFNE01.JPG,,,,,,,,,,,,,,,,,4,8,48,7,,,,,,,AFSA01.jpg,AFSA06.jpg,AFNE04.jpg,AFNE05.jpg,AFSA06.jpg,FS,4,num_6,32,num_4,1.26673658792,,,2017_Aug_29_1046,60.0058316193,FEMA4ImagesEEG,001,201338,
AFNE01.JPG,AFNE01.JPG,AFNE01.JPG,AFNE01.JPG,AFNE01.JPG,AFNE01.JPG,,,,,,,,,,,,,,,,,4,9,49,9,,,,,,,AFSA03.jpg,AFNE01.jpg,AFNE05.jpg,AFSA04.jpg,AFNE05.jpg,FN,3,num_2,32,num_6,1.15011731046,,,2017_Aug_29_1046,60.0058316193,FEMA4ImagesEEG,001,201338,
AFNE01.JPG,AFNE01.JPG,AFNE01.JPG,AFNE01.JPG,AFNE01.JPG,AFNE01.JPG,,,,,,,,,,,,,,,,,5,0,50,4,,,,,,,AFNE18.jpg,AFSA15.jpg,AFSA04.jpg,AFNE20.jpg,AFSA04.jpg,FS,4,num_2,16,num_2,0.800004811084,,,2017_Aug_29_1046,60.0058316193,FEMA4ImagesEEG,001,201338,
AFNE01.JPG,AFNE01.JPG,AFNE01.JPG,AFNE01.JPG,AFNE01.JPG,AFNE01.JPG,,,,,,,,,,,,,,,,,5,1,51,1,,,,,,,AFSA19.jpg,AFNE05.jpg,AFNE12.jpg,AFSA04.jpg,AFSA04.jpg,FS,4,num_4,16,num_4,0.766531474947,,,2017_Aug_29_1046,60.0058316193,FEMA4ImagesEEG,001,201338,
AFNE01.JPG,AFNE01.JPG,AFNE01.JPG,AFNE01.JPG,AFNE01.JPG,AFNE01.JPG,,,,,,,,,,,,,,,,,5,2,52,6,,,,,,,AFSA07.jpg,AFSA11.jpg,AFNE05.jpg,AFNE13.jpg,AFNE05.jpg,FN,3,num_2,16,num_2,1.53343340405,,,2017_Aug_29_1046,60.0058316193,FEMA4ImagesEEG,001,201338,
AFNE01.JPG,AFNE01.JPG,AFNE01.JPG,AFNE01.JPG,AFNE01.JPG,AFNE01.JPG,,,,,,,,,,,,,,,,,5,3,53,3,,,,,,,AFSA03.jpg,AFNE20.jpg,AFSA10.jpg,AFNE06.jpg,AFSA03.jpg,FS,4,num_8,32,num_6,0.533332050371,,,2017_Aug_29_1046,60.0058316193,FEMA4ImagesEEG,001,201338,
AFNE01.JPG,AFNE01.JPG,AFNE01.JPG,AFNE01.JPG,AFNE01.JPG,AFNE01.JPG,,,,,,,,,,,,,,,,,5,4,54,9,,,,,,,AFSA12.jpg,AFNE08.jpg,AFNE15.jpg,AFSA19.jpg,AFSA19.jpg,FS,4,num_4,16,num_4,0.650123885658,,,2017_Aug_29_1046,60.0058316193,FEMA4ImagesEEG,001,201338,
AFNE01.JPG,AFNE01.JPG,AFNE01.JPG,AFNE01.JPG,AFNE01.JPG,AFNE01.JPG,,,,,,,,,,,,,,,,,5,5,55,2,,,,,,,AFSA12.jpg,AFSA06.jpg,AFNE03.jpg,AFNE15.jpg,AFNE15.jpg,FN,3,num_4,16,num_4,0.633486807172,,,2017_Aug_29_1046,60.0058316193,FEMA4ImagesEEG,001,201338,
AFNE01.JPG,AFNE01.JPG,AFNE01.JPG,AFNE01.JPG,AFNE01.JPG,AFNE01.JPG,,,,,,,,,,,,,,,,,5,6,56,0,,,,,,,AFSA08.jpg,AFSA17.jpg,AFNE11.jpg,AFNE16.jpg,AFSA08.jpg,FS,4,num_8,32,num_6,0.75010897126,,,2017_Aug_29_1046,60.0058316193,FEMA4ImagesEEG,001,201338,
AFNE01.JPG,AFNE01.JPG,AFNE01.JPG,AFNE01.JPG,AFNE01.JPG,AFNE01.JPG,,,,,,,,,,,,,,,,,5,7,57,7,,,,,,,AFSA13.jpg,AFNE19.jpg,AFSA09.jpg,AFNE13.jpg,AFSA13.jpg,FS,4,num_8,16,num_8,0.883486887382,,,2017_Aug_29_1046,60.0058316193,FEMA4ImagesEEG,001,201338,
AFNE01.JPG,AFNE01.JPG,AFNE01.JPG,AFNE01.JPG,AFNE01.JPG,AFNE01.JPG,,,,,,,,,,,,,,,,,5,8,58,5,,,,,,,AFSA02.jpg,AFSA05.jpg,AFNE14.jpg,AFNE08.jpg,AFNE14.jpg,FN,3,num_2,16,num_2,0.633495787857,,,2017_Aug_29_1046,60.0058316193,FEMA4ImagesEEG,001,201338,
AFNE01.JPG,AFNE01.JPG,AFNE01.JPG,AFNE01.JPG,AFNE01.JPG,AFNE01.JPG,,,,,,,,,,,,,,,,,5,9,59,8,,,,,,,AFNE10.jpg,AFSA07.jpg,AFSA01.jpg,AFNE05.jpg,AFSA07.jpg,FS,4,num_6,32,num_8,1.51674629026,,,2017_Aug_29_1046,60.0058316193,FEMA4ImagesEEG,001,201338,
,,,,,,,,,,,,,,,,,,,,,,,,,,,,,,,,,,,,,,,,,,,space,2.05004530441,2017_Aug_29_1046,60.0058316193,FEMA4ImagesEEG,001,201338,
AFNE01.JPG,AFNE01.JPG,AFNE01.JPG,AFNE01.JPG,AFNE01.JPG,AFNE01.JPG,,,,,,,,,,,,,,,,,,,,,0,0,0,8,,,AMSA02.jpg,AMSA12.jpg,AMNE20.jpg,AMNE04.jpg,AMNE20.jpg,MN,1,num_2,16,num_2,1.01672624407,,,2017_Aug_29_1046,60.0058316193,FEMA4ImagesEEG,001,201338,
AFNE01.JPG,AFNE01.JPG,AFNE01.JPG,AFNE01.JPG,AFNE01.JPG,AFNE01.JPG,,,,,,,,,,,,,,,,,,,,,0,1,1,6,,,AMSA05.jpg,AMNE15.jpg,AMNE17.jpg,AMSA10.jpg,AMNE15.jpg,MN,1,num_6,16,num_6,1.03347012872,,,2017_Aug_29_1046,60.0058316193,FEMA4ImagesEEG,001,201338,
AFNE01.JPG,AFNE01.JPG,AFNE01.JPG,AFNE01.JPG,AFNE01.JPG,AFNE01.JPG,,,,,,,,,,,,,,,,,,,,,0,2,2,2,,,AMSA13.jpg,AMNE02.jpg,AMSA06.jpg,AMNE17.jpg,AMSA06.jpg,MS,2,num_2,16,num_2,0.633500919736,,,2017_Aug_29_1046,60.0058316193,FEMA4ImagesEEG,001,201338,
AFNE01.JPG,AFNE01.JPG,AFNE01.JPG,AFNE01.JPG,AFNE01.JPG,AFNE01.JPG,,,,,,,,,,,,,,,,,,,,,0,3,3,9,,,AMNE05.jpg,AMSA10.jpg,AMSA02.jpg,AMNE20.jpg,AMNE05.jpg,MN,1,num_8,32,num_4,0.766786142078,,,2017_Aug_29_1046,60.0058316193,FEMA4ImagesEEG,001,201338,
AFNE01.JPG,AFNE01.JPG,AFNE01.JPG,AFNE01.JPG,AFNE01.JPG,AFNE01.JPG,,,,,,,,,,,,,,,,,,,,,0,4,4,3,,,AMSA07.jpg,AMNE05.jpg,AMSA19.jpg,AMNE20.jpg,AMSA19.jpg,MS,2,num_2,16,num_2,1.03358463268,,,2017_Aug_29_1046,60.0058316193,FEMA4ImagesEEG,001,201338,
AFNE01.JPG,AFNE01.JPG,AFNE01.JPG,AFNE01.JPG,AFNE01.JPG,AFNE01.JPG,,,,,,,,,,,,,,,,,,,,,0,5,5,0,,,AMSA05.jpg,AMNE18.jpg,AMNE04.jpg,AMSA06.jpg,AMSA06.jpg,MS,2,num_4,16,num_4,0.633455374744,,,2017_Aug_29_1046,60.0058316193,FEMA4ImagesEEG,001,201338,
AFNE01.JPG,AFNE01.JPG,AFNE01.JPG,AFNE01.JPG,AFNE01.JPG,AFNE01.JPG,,,,,,,,,,,,,,,,,,,,,0,6,6,7,,,AMSA13.jpg,AMSA04.jpg,AMNE07.jpg,AMNE05.jpg,AMNE05.jpg,MN,1,num_4,32,num_2,0.916806910012,,,2017_Aug_29_1046,60.0058316193,FEMA4ImagesEEG,001,201338,
AFNE01.JPG,AFNE01.JPG,AFNE01.JPG,AFNE01.JPG,AFNE01.JPG,AFNE01.JPG,,,,,,,,,,,,,,,,,,,,,0,7,7,5,,,AMNE07.jpg,AMSA01.jpg,AMNE09.jpg,AMSA08.jpg,AMNE09.jpg,MN,1,num_2,16,num_2,1.21674580913,,,2017_Aug_29_1046,60.0058316193,FEMA4ImagesEEG,001,201338,
AFNE01.JPG,AFNE01.JPG,AFNE01.JPG,AFNE01.JPG,AFNE01.JPG,AFNE01.JPG,,,,,,,,,,,,,,,,,,,,,0,8,8,1,,,AMNE20.jpg,AMSA13.jpg,AMNE08.jpg,AMSA17.jpg,AMNE08.jpg,MN,1,num_2,32,num_4,0.883447115659,,,2017_Aug_29_1046,60.0058316193,FEMA4ImagesEEG,001,201338,
AFNE01.JPG,AFNE01.JPG,AFNE01.JPG,AFNE01.JPG,AFNE01.JPG,AFNE01.JPG,,,,,,,,,,,,,,,,,,,,,0,9,9,4,,,AMNE10.jpg,AMSA14.jpg,AMSA05.jpg,AMNE05.jpg,AMNE05.jpg,MN,1,num_4,32,num_2,0.900135833188,,,2017_Aug_29_1046,60.0058316193,FEMA4ImagesEEG,001,201338,
AFNE01.JPG,AFNE01.JPG,AFNE01.JPG,AFNE01.JPG,AFNE01.JPG,AFNE01.JPG,,,,,,,,,,,,,,,,,,,,,1,0,10,2,,,AMNE02.jpg,AMSA04.jpg,AMNE14.jpg,AMSA10.jpg,AMSA04.jpg,MS,2,num_6,16,num_6,0.966757596296,,,2017_Aug_29_1046,60.0058316193,FEMA4ImagesEEG,001,201338,
AFNE01.JPG,AFNE01.JPG,AFNE01.JPG,AFNE01.JPG,AFNE01.JPG,AFNE01.JPG,,,,,,,,,,,,,,,,,,,,,1,1,11,7,,,AMSA10.jpg,AMSA16.jpg,AMNE14.jpg,AMNE19.jpg,AMSA16.jpg,MS,2,num_6,16,num_6,0.816778845328,,,2017_Aug_29_1046,60.0058316193,FEMA4ImagesEEG,001,201338,
AFNE01.JPG,AFNE01.JPG,AFNE01.JPG,AFNE01.JPG,AFNE01.JPG,AFNE01.JPG,,,,,,,,,,,,,,,,,,,,,1,2,12,8,,,AMNE20.jpg,AMSA16.jpg,AMSA15.jpg,AMNE02.jpg,AMNE20.jpg,MN,1,num_8,16,num_8,1.33351134381,,,2017_Aug_29_1046,60.0058316193,FEMA4ImagesEEG,001,201338,
AFNE01.JPG,AFNE01.JPG,AFNE01.JPG,AFNE01.JPG,AFNE01.JPG,AFNE01.JPG,,,,,,,,,,,,,,,,,,,,,1,3,13,4,,,AMNE17.jpg,AMSA07.jpg,AMNE10.jpg,AMSA13.jpg,AMSA07.jpg,MS,2,num_6,16,num_6,0.849795769085,,,2017_Aug_29_1046,60.0058316193,FEMA4ImagesEEG,001,201338,
AFNE01.JPG,AFNE01.JPG,AFNE01.JPG,AFNE01.JPG,AFNE01.JPG,AFNE01.JPG,,,,,,,,,,,,,,,,,,,,,1,4,14,0,,,AMSA02.jpg,AMNE14.jpg,AMSA15.jpg,AMNE05.jpg,AMSA15.jpg,MS,2,num_2,16,num_2,0.916776119033,,,2017_Aug_29_1046,60.0058316193,FEMA4ImagesEEG,001,201338,
AFNE01.JPG,AFNE01.JPG,AFNE01.JPG,AFNE01.JPG,AFNE01.JPG,AFNE01.JPG,,,,,,,,,,,,,,,,,,,,,1,5,15,1,,,AMNE20.jpg,AMSA06.jpg,AMNE04.jpg,AMSA17.jpg,AMSA17.jpg,MS,2,num_4,32,num_8,0.950168628769,,,2017_Aug_29_1046,60.0058316193,FEMA4ImagesEEG,001,201338,
AFNE01.JPG,AFNE01.JPG,AFNE01.JPG,AFNE01.JPG,AFNE01.JPG,AFNE01.JPG,,,,,,,,,,,,,,,,,,,,,1,6,16,6,,,AMNE20.jpg,AMSA08.jpg,AMNE07.jpg,AMSA16.jpg,AMSA08.jpg,MS,2,num_6,32,num_4,1.45006871846,,,2017_Aug_29_1046,60.0058316193,FEMA4ImagesEEG,001,201338,
AFNE01.JPG,AFNE01.JPG,AFNE01.JPG,AFNE01.JPG,AFNE01.JPG,AFNE01.JPG,,,,,,,,,,,,,,,,,,,,,1,7,17,3,,,AMNE06.jpg,AMSA02.jpg,AMSA10.jpg,AMNE09.jpg,AMSA02.jpg,MS,2,num_6,16,num_6,0.733524494048,,,2017_Aug_29_1046,60.0058316193,FEMA4ImagesEEG,001,201338,
AFNE01.JPG,AFNE01.JPG,AFNE01.JPG,AFNE01.JPG,AFNE01.JPG,AFNE01.JPG,,,,,,,,,,,,,,,,,,,,,1,8,18,9,,,AMNE20.jpg,AMNE17.jpg,AMSA11.jpg,AMSA15.jpg,AMSA11.jpg,MS,2,num_2,16,num_2,0.683524734632,,,2017_Aug_29_1046,60.0058316193,FEMA4ImagesEEG,001,201338,
AFNE01.JPG,AFNE01.JPG,AFNE01.JPG,AFNE01.JPG,AFNE01.JPG,AFNE01.JPG,,,,,,,,,,,,,,,,,,,,,1,9,19,5,,,AMNE15.jpg,AMSA14.jpg,AMNE02.jpg,AMSA18.jpg,AMSA14.jpg,MS,2,num_6,16,num_6,0.666818376456,,,2017_Aug_29_1046,60.0058316193,FEMA4ImagesEEG,001,201338,
AFNE01.JPG,AFNE01.JPG,AFNE01.JPG,AFNE01.JPG,AFNE01.JPG,AFNE01.JPG,,,,,,,,,,,,,,,,,,,,,2,0,20,2,,,AMSA09.jpg,AMNE07.jpg,AMSA01.jpg,AMNE01.jpg,AMNE07.jpg,MN,1,num_6,32,num_4,2.53328875051,,,2017_Aug_29_1046,60.0058316193,FEMA4ImagesEEG,001,201338,
AFNE01.JPG,AFNE01.JPG,AFNE01.JPG,AFNE01.JPG,AFNE01.JPG,AFNE01.JPG,,,,,,,,,,,,,,,,,,,,,2,1,21,5,,,AMNE02.jpg,AMSA12.jpg,AMNE14.jpg,AMSA18.jpg,AMSA18.jpg,MS,2,num_4,16,num_4,1.03343356447,,,2017_Aug_29_1046,60.0058316193,FEMA4ImagesEEG,001,201338,
AFNE01.JPG,AFNE01.JPG,AFNE01.JPG,AFNE01.JPG,AFNE01.JPG,AFNE01.JPG,,,,,,,,,,,,,,,,,,,,,2,2,22,6,,,AMNE11.jpg,AMSA09.jpg,AMSA08.jpg,AMNE12.jpg,AMNE12.jpg,MN,1,num_4,16,num_4,0.533519362274,,,2017_Aug_29_1046,60.0058316193,FEMA4ImagesEEG,001,201338,
AFNE01.JPG,AFNE01.JPG,AFNE01.JPG,AFNE01.JPG,AFNE01.JPG,AFNE01.JPG,,,,,,,,,,,,,,,,,,,,,2,3,23,3,,,AMNE20.jpg,AMNE18.jpg,AMSA01.jpg,AMSA13.jpg,AMNE20.jpg,MN,1,num_8,16,num_8,0.733480232011,,,2017_Aug_29_1046,60.0058316193,FEMA4ImagesEEG,001,201338,
AFNE01.JPG,AFNE01.JPG,AFNE01.JPG,AFNE01.JPG,AFNE01.JPG,AFNE01.JPG,,,,,,,,,,,,,,,,,,,,,2,4,24,0,,,AMSA19.jpg,AMSA06.jpg,AMNE19.jpg,AMNE09.jpg,AMNE09.jpg,MN,1,num_4,32,num_8,0.749712857942,,,2017_Aug_29_1046,60.0058316193,FEMA4ImagesEEG,001,201338,
AFNE01.JPG,AFNE01.JPG,AFNE01.JPG,AFNE01.JPG,AFNE01.JPG,AFNE01.JPG,,,,,,,,,,,,,,,,,,,,,2,5,25,8,,,AMSA02.jpg,AMNE17.jpg,AMNE09.jpg,AMSA15.jpg,AMNE09.jpg,MN,1,num_2,16,num_2,1.58342161687,,,2017_Aug_29_1046,60.0058316193,FEMA4ImagesEEG,001,201338,
AFNE01.JPG,AFNE01.JPG,AFNE01.JPG,AFNE01.JPG,AFNE01.JPG,AFNE01.JPG,,,,,,,,,,,,,,,,,,,,,2,6,26,7,,,AMNE16.jpg,AMSA12.jpg,AMNE01.jpg,AMSA14.jpg,AMNE16.jpg,MN,1,num_8,16,num_8,1.25015499734,,,2017_Aug_29_1046,60.0058316193,FEMA4ImagesEEG,001,201338,
AFNE01.JPG,AFNE01.JPG,AFNE01.JPG,AFNE01.JPG,AFNE01.JPG,AFNE01.JPG,,,,,,,,,,,,,,,,,,,,,2,7,27,4,,,AMNE11.jpg,AMNE07.jpg,AMSA06.jpg,AMSA18.jpg,AMSA18.jpg,MS,2,num_4,32,num_6,0.933458421729,,,2017_Aug_29_1046,60.0058316193,FEMA4ImagesEEG,001,201338,
AFNE01.JPG,AFNE01.JPG,AFNE01.JPG,AFNE01.JPG,AFNE01.JPG,AFNE01.JPG,,,,,,,,,,,,,,,,,,,,,2,8,28,9,,,AMSA08.jpg,AMSA05.jpg,AMNE15.jpg,AMNE20.jpg,AMNE15.jpg,MN,1,num_2,16,num_2,0.733461629134,,,2017_Aug_29_1046,60.0058316193,FEMA4ImagesEEG,001,201338,
AFNE01.JPG,AFNE01.JPG,AFNE01.JPG,AFNE01.JPG,AFNE01.JPG,AFNE01.JPG,,,,,,,,,,,,,,,,,,,,,2,9,29,1,,,AMNE19.jpg,AMNE13.jpg,AMSA12.jpg,AMSA13.jpg,AMSA13.jpg,MS,2,num_4,32,num_6,1.01670635823,,,2017_Aug_29_1046,60.0058316193,FEMA4ImagesEEG,001,201338,
AFNE01.JPG,AFNE01.JPG,AFNE01.JPG,AFNE01.JPG,AFNE01.JPG,AFNE01.JPG,,,,,,,,,,,,,,,,,,,,,3,0,30,9,,,AMNE18.jpg,AMNE03.jpg,AMSA06.jpg,AMSA12.jpg,AMNE03.jpg,MN,1,num_6,16,num_6,1.13342506479,,,2017_Aug_29_1046,60.0058316193,FEMA4ImagesEEG,001,201338,
AFNE01.JPG,AFNE01.JPG,AFNE01.JPG,AFNE01.JPG,AFNE01.JPG,AFNE01.JPG,,,,,,,,,,,,,,,,,,,,,3,1,31,5,,,AMNE04.jpg,AMSA11.jpg,AMSA07.jpg,AMNE16.jpg,AMNE04.jpg,MN,1,num_8,16,num_8,0.783466841152,,,2017_Aug_29_1046,60.0058316193,FEMA4ImagesEEG,001,201338,
AFNE01.JPG,AFNE01.JPG,AFNE01.JPG,AFNE01.JPG,AFNE01.JPG,AFNE01.JPG,,,,,,,,,,,,,,,,,,,,,3,2,32,0,,,AMNE04.jpg,AMSA15.jpg,AMNE10.jpg,AMSA05.jpg,AMNE10.jpg,MN,1,num_2,32,num_4,1.33342089521,,,2017_Aug_29_1046,60.0058316193,FEMA4ImagesEEG,001,201338,
AFNE01.JPG,AFNE01.JPG,AFNE01.JPG,AFNE01.JPG,AFNE01.JPG,AFNE01.JPG,,,,,,,,,,,,,,,,,,,,,3,3,33,4,,,AMSA18.jpg,AMSA13.jpg,AMNE14.jpg,AMNE04.jpg,AMNE14.jpg,MN,1,num_2,16,num_2,0.90010440076,,,2017_Aug_29_1046,60.0058316193,FEMA4ImagesEEG,001,201338,
AFNE01.JPG,AFNE01.JPG,AFNE01.JPG,AFNE01.JPG,AFNE01.JPG,AFNE01.JPG,,,,,,,,,,,,,,,,,,,,,3,4,34,6,,,AMNE16.jpg,AMSA06.jpg,AMSA13.jpg,AMNE08.jpg,AMNE08.jpg,MN,1,num_4,16,num_4,0.850090528722,,,2017_Aug_29_1046,60.0058316193,FEMA4ImagesEEG,001,201338,
AFNE01.JPG,AFNE01.JPG,AFNE01.JPG,AFNE01.JPG,AFNE01.JPG,AFNE01.JPG,,,,,,,,,,,,,,,,,,,,,3,5,35,1,,,AMSA09.jpg,AMNE05.jpg,AMSA01.jpg,AMNE18.jpg,AMNE05.jpg,MN,1,num_6,32,num_4,0.766506136511,,,2017_Aug_29_1046,60.0058316193,FEMA4ImagesEEG,001,201338,
AFNE01.JPG,AFNE01.JPG,AFNE01.JPG,AFNE01.JPG,AFNE01.JPG,AFNE01.JPG,,,,,,,,,,,,,,,,,,,,,3,6,36,2,,,AMSA14.jpg,AMSA19.jpg,AMNE10.jpg,AMNE07.jpg,AMSA14.jpg,MS,2,num_8,16,num_8,2.45005909627,,,2017_Aug_29_1046,60.0058316193,FEMA4ImagesEEG,001,201338,
AFNE01.JPG,AFNE01.JPG,AFNE01.JPG,AFNE01.JPG,AFNE01.JPG,AFNE01.JPG,,,,,,,,,,,,,,,,,,,,,3,7,37,3,,,AMNE14.jpg,AMNE08.jpg,AMSA01.jpg,AMSA02.jpg,AMNE14.jpg,MN,1,num_8,16,num_8,1.23345056362,,,2017_Aug_29_1046,60.0058316193,FEMA4ImagesEEG,001,201338,
AFNE01.JPG,AFNE01.JPG,AFNE01.JPG,AFNE01.JPG,AFNE01.JPG,AFNE01.JPG,,,,,,,,,,,,,,,,,,,,,3,8,38,8,,,AMNE07.jpg,AMNE09.jpg,AMSA05.jpg,AMSA11.jpg,AMSA11.jpg,MS,2,num_4,16,num_4,0.566821102751,,,2017_Aug_29_1046,60.0058316193,FEMA4ImagesEEG,001,201338,
