IPosition2,IPosition3,IPosition1,IPosition6,IPosition4,IPosition5,TrialsF1.thisRepN,TrialsF1.thisTrialN,TrialsF1.thisN,TrialsF1.thisIndex,TrialsM1.thisRepN,TrialsM1.thisTrialN,TrialsM1.thisN,TrialsM1.thisIndex,TrialsF2.thisRepN,TrialsF2.thisTrialN,TrialsF2.thisN,TrialsF2.thisIndex,TrialsM2.thisRepN,TrialsM2.thisTrialN,TrialsM2.thisN,TrialsM2.thisIndex,TrialsF3.thisRepN,TrialsF3.thisTrialN,TrialsF3.thisN,TrialsF3.thisIndex,TrialsM3.thisRepN,TrialsM3.thisTrialN,TrialsM3.thisN,TrialsM3.thisIndex,InstrKey_resp.keys,InstrKey_resp.rt,Image0 _Position,Image1 _Position,Image2 _Position,Image3 _Position,Center_image,condition,code,correct_answer,accuracy,Key_Resp.keys,Key_Resp.rt,BreakKey_resp.keys,BreakKey_resp.rt,date,frameRate,expName,session,participant,
,,,,,,,,,,,,,,,,,,,,,,,,,,,,,,space,3.59998081977,,,,,,,,,,,,,,2017_Aug_31_1130,60.0045227741,FEMA4ImagesEEG,001,201458,
AMNE23.JPG,AMNE24.JPG,AMNE22.JPG,AMSA24.JPG,AMSA22.JPG,AMSA23.JPG,0,0,0,9,,,,,,,,,,,,,,,,,,,,,,,AFSA05.jpg,AFNE08.jpg,AFSA04.jpg,AFNE10.jpg,AFNE08.jpg,FN,3,num_6,16,num_6,0.800133620156,,,2017_Aug_31_1130,60.0045227741,FEMA4ImagesEEG,001,201458,
AFSA25.JPG,AFNE24.JPG,AFSA24.JPG,AFNE21.JPG,AFSA21.JPG,AFNE25.JPG,0,1,1,2,,,,,,,,,,,,,,,,,,,,,,,AFNE11.jpg,AFNE20.jpg,AFSA04.jpg,AFSA14.jpg,AFNE11.jpg,FN,3,num_8,16,num_8,0.533516176336,,,2017_Aug_31_1130,60.0045227741,FEMA4ImagesEEG,001,201458,
AMSA25.JPG,AMNE24.JPG,AMSA24.JPG,AMNE26.JPG,AMSA21.JPG,AMNE25.JPG,0,2,2,3,,,,,,,,,,,,,,,,,,,,,,,AFNE13.jpg,AFNE06.jpg,AFSA05.jpg,AFSA10.jpg,AFNE06.jpg,FN,3,num_6,16,num_6,0.3168359798,,,2017_Aug_31_1130,60.0045227741,FEMA4ImagesEEG,001,201458,
AFNE23.JPG,AFNE24.JPG,AFNE22.JPG,AFSA24.JPG,AFSA22.JPG,AFSA23.JPG,0,3,3,8,,,,,,,,,,,,,,,,,,,,,,,AFSA02.jpg,AFNE12.jpg,AFNE15.jpg,AFSA17.jpg,AFSA02.jpg,FS,4,num_8,32,num_2,0.433502480766,,,2017_Aug_31_1130,60.0045227741,FEMA4ImagesEEG,001,201458,
AMSA21.JPG,AMNE22.JPG,AMNE21.JPG,AMSA23.JPG,AMSA22.JPG,AMNE23.JPG,0,4,4,1,,,,,,,,,,,,,,,,,,,,,,,AFSA05.jpg,AFNE03.jpg,AFSA17.jpg,AFNE18.jpg,AFSA05.jpg,FS,4,num_8,32,num_6,0.566764053932,,,2017_Aug_31_1130,60.0045227741,FEMA4ImagesEEG,001,201458,
AFSA21.JPG,AFNE22.JPG,AFNE21.JPG,AFSA23.JPG,AFSA22.JPG,AFNE23.JPG,0,5,5,0,,,,,,,,,,,,,,,,,,,,,,,AFNE17.jpg,AFNE05.jpg,AFSA12.jpg,AFSA18.jpg,AFNE05.jpg,FN,3,num_6,32,num_8,0.56678875089,,,2017_Aug_31_1130,60.0045227741,FEMA4ImagesEEG,001,201458,
AMSA21.JPG,AMNE23.JPG,AMNE21.JPG,AMSA25.JPG,AMNE25.JPG,AMSA23.JPG,0,6,6,5,,,,,,,,,,,,,,,,,,,,,,,AFNE13.jpg,AFNE04.jpg,AFSA13.jpg,AFSA02.jpg,AFNE04.jpg,FN,3,num_6,16,num_6,0.616742676633,,,2017_Aug_31_1130,60.0045227741,FEMA4ImagesEEG,001,201458,
AMNE22.JPG,AMSA24.JPG,AMSA22.JPG,AMNE25.JPG,AMNE24.JPG,AMSA25.JPG,0,7,7,7,,,,,,,,,,,,,,,,,,,,,,,AFNE13.jpg,AFSA10.jpg,AFNE11.jpg,AFSA11.jpg,AFNE13.jpg,FN,3,num_8,16,num_8,0.550156472862,,,2017_Aug_31_1130,60.0045227741,FEMA4ImagesEEG,001,201458,
AFNE22.JPG,AFSA24.JPG,AFSA22.JPG,AFNE25.JPG,AFNE24.JPG,AFSA25.JPG,0,8,8,6,,,,,,,,,,,,,,,,,,,,,,,AFNE17.jpg,AFSA03.jpg,AFNE15.jpg,AFSA17.jpg,AFNE17.jpg,FN,3,num_8,32,num_6,0.33337524331,,,2017_Aug_31_1130,60.0045227741,FEMA4ImagesEEG,001,201458,
AFSA21.JPG,AFNE23.JPG,AFNE21.JPG,AFSA25.JPG,AFNE25.JPG,AFSA23.JPG,0,9,9,4,,,,,,,,,,,,,,,,,,,,,,,AFNE13.jpg,AFNE12.jpg,AFSA16.jpg,AFSA02.jpg,AFNE12.jpg,FN,3,num_6,32,num_8,0.283494446237,,,2017_Aug_31_1130,60.0045227741,FEMA4ImagesEEG,001,201458,
AMSA21.JPG,AMNE23.JPG,AMNE21.JPG,AMSA25.JPG,AMNE25.JPG,AMSA23.JPG,,,,,0,0,0,5,,,,,,,,,,,,,,,,,,,AMSA09.jpg,AMSA12.jpg,AMNE17.jpg,AMNE10.jpg,AMSA12.jpg,MS,2,num_6,32,num_4,0.350140307579,,,2017_Aug_31_1130,60.0045227741,FEMA4ImagesEEG,001,201458,
AFSA21.JPG,AFNE22.JPG,AFNE21.JPG,AFSA23.JPG,AFSA22.JPG,AFNE23.JPG,,,,,0,1,1,0,,,,,,,,,,,,,,,,,,,AMNE17.jpg,AMSA19.jpg,AMSA13.jpg,AMNE03.jpg,AMSA19.jpg,MS,2,num_6,16,num_6,0.250173119246,,,2017_Aug_31_1130,60.0045227741,FEMA4ImagesEEG,001,201458,
AMSA21.JPG,AMNE22.JPG,AMNE21.JPG,AMSA23.JPG,AMSA22.JPG,AMNE23.JPG,,,,,0,2,2,1,,,,,,,,,,,,,,,,,,,AMSA04.jpg,AMNE18.jpg,AMSA11.jpg,AMNE09.jpg,AMNE09.jpg,MN,1,num_4,32,num_8,0.31679396292,,,2017_Aug_31_1130,60.0045227741,FEMA4ImagesEEG,001,201458,
AFNE22.JPG,AFSA24.JPG,AFSA22.JPG,AFNE25.JPG,AFNE24.JPG,AFSA25.JPG,,,,,0,3,3,6,,,,,,,,,,,,,,,,,,,AMNE06.jpg,AMSA07.jpg,AMSA04.jpg,AMNE03.jpg,AMNE06.jpg,MN,1,num_8,32,num_2,0.466778904185,,,2017_Aug_31_1130,60.0045227741,FEMA4ImagesEEG,001,201458,
AFSA21.JPG,AFNE23.JPG,AFNE21.JPG,AFSA25.JPG,AFNE25.JPG,AFSA23.JPG,,,,,0,4,4,4,,,,,,,,,,,,,,,,,,,AMNE16.jpg,AMNE08.jpg,AMSA05.jpg,AMSA04.jpg,AMNE16.jpg,MN,1,num_8,32,num_6,0.383346809744,,,2017_Aug_31_1130,60.0045227741,FEMA4ImagesEEG,001,201458,
AFNE23.JPG,AFNE24.JPG,AFNE22.JPG,AFSA24.JPG,AFSA22.JPG,AFSA23.JPG,,,,,0,5,5,8,,,,,,,,,,,,,,,,,,,AMNE05.jpg,AMSA10.jpg,AMSA15.jpg,AMNE14.jpg,AMSA10.jpg,MS,2,num_6,32,num_4,0.916741425739,,,2017_Aug_31_1130,60.0045227741,FEMA4ImagesEEG,001,201458,
AMNE22.JPG,AMSA24.JPG,AMSA22.JPG,AMNE25.JPG,AMNE24.JPG,AMSA25.JPG,,,,,0,6,6,7,,,,,,,,,,,,,,,,,,,AMNE06.jpg,AMSA17.jpg,AMSA04.jpg,AMNE17.jpg,AMNE17.jpg,MN,1,num_4,32,num_6,0.250161893375,,,2017_Aug_31_1130,60.0045227741,FEMA4ImagesEEG,001,201458,
AMNE23.JPG,AMNE24.JPG,AMNE22.JPG,AMSA24.JPG,AMSA22.JPG,AMSA23.JPG,,,,,0,7,7,9,,,,,,,,,,,,,,,,,,,AMNE19.jpg,AMSA11.jpg,AMSA04.jpg,AMNE03.jpg,AMNE03.jpg,MN,1,num_4,32,num_8,0.46676735756,,,2017_Aug_31_1130,60.0045227741,FEMA4ImagesEEG,001,201458,
AMSA25.JPG,AMNE24.JPG,AMSA24.JPG,AMNE26.JPG,AMSA21.JPG,AMNE25.JPG,,,,,0,8,8,3,,,,,,,,,,,,,,,,,,,AMSA02.jpg,AMSA12.jpg,AMNE19.jpg,AMNE06.jpg,AMNE06.jpg,MN,1,num_4,32,num_2,0.550151020288,,,2017_Aug_31_1130,60.0045227741,FEMA4ImagesEEG,001,201458,
AFSA25.JPG,AFNE24.JPG,AFSA24.JPG,AFNE21.JPG,AFSA21.JPG,AFNE25.JPG,,,,,0,9,9,2,,,,,,,,,,,,,,,,,,,AMNE04.jpg,AMSA20.jpg,AMNE15.jpg,AMSA14.jpg,AMSA14.jpg,MS,2,num_4,16,num_4,0.666783843568,,,2017_Aug_31_1130,60.0045227741,FEMA4ImagesEEG,001,201458,
AFSA21.JPG,AFNE22.JPG,AFNE21.JPG,AFSA23.JPG,AFSA22.JPG,AFNE23.JPG,,,,,,,,,0,0,0,0,,,,,,,,,,,,,,,AFSA03.jpg,AFNE12.jpg,AFNE01.jpg,AFSA01.jpg,AFNE01.jpg,FN,3,num_2,32,num_6,0.300230643916,,,2017_Aug_31_1130,60.0045227741,FEMA4ImagesEEG,001,201458,
AMSA21.JPG,AMNE23.JPG,AMNE21.JPG,AMSA25.JPG,AMNE25.JPG,AMSA23.JPG,,,,,,,,,0,1,1,5,,,,,,,,,,,,,,,AFSA10.jpg,AFSA07.jpg,AFNE04.jpg,AFNE03.jpg,AFSA10.jpg,FS,4,num_8,16,num_8,0.333553253848,,,2017_Aug_31_1130,60.0045227741,FEMA4ImagesEEG,001,201458,
AMNE23.JPG,AMNE24.JPG,AMNE22.JPG,AMSA24.JPG,AMSA22.JPG,AMSA23.JPG,,,,,,,,,0,2,2,9,,,,,,,,,,,,,,,AFNE13.jpg,AFSA15.jpg,AFSA20.jpg,AFNE10.jpg,AFSA20.jpg,FS,4,num_2,16,num_2,0.49999438705,,,2017_Aug_31_1130,60.0045227741,FEMA4ImagesEEG,001,201458,
AFSA21.JPG,AFNE23.JPG,AFNE21.JPG,AFSA25.JPG,AFNE25.JPG,AFSA23.JPG,,,,,,,,,0,3,3,4,,,,,,,,,,,,,,,AFSA19.jpg,AFSA09.jpg,AFNE18.jpg,AFNE15.jpg,AFNE15.jpg,FN,3,num_4,16,num_4,0.316787227377,,,2017_Aug_31_1130,60.0045227741,FEMA4ImagesEEG,001,201458,
AMSA25.JPG,AMNE24.JPG,AMSA24.JPG,AMNE26.JPG,AMSA21.JPG,AMNE25.JPG,,,,,,,,,0,4,4,3,,,,,,,,,,,,,,,AFSA18.jpg,AFNE10.jpg,AFSA01.jpg,AFNE03.jpg,AFNE10.jpg,FN,3,num_6,16,num_6,0.483499706359,,,2017_Aug_31_1130,60.0045227741,FEMA4ImagesEEG,001,201458,
AMNE22.JPG,AMSA24.JPG,AMSA22.JPG,AMNE25.JPG,AMNE24.JPG,AMSA25.JPG,,,,,,,,,0,5,5,7,,,,,,,,,,,,,,,AFNE08.jpg,AFSA01.jpg,AFNE06.jpg,AFSA19.jpg,AFSA19.jpg,FS,4,num_4,32,num_2,0.500157002083,,,2017_Aug_31_1130,60.0045227741,FEMA4ImagesEEG,001,201458,
AFSA25.JPG,AFNE24.JPG,AFSA24.JPG,AFNE21.JPG,AFSA21.JPG,AFNE25.JPG,,,,,,,,,0,6,6,2,,,,,,,,,,,,,,,AFNE04.jpg,AFSA14.jpg,AFNE09.jpg,AFSA18.jpg,AFSA14.jpg,FS,4,num_6,32,num_8,0.367046497311,,,2017_Aug_31_1130,60.0045227741,FEMA4ImagesEEG,001,201458,
AFNE22.JPG,AFSA24.JPG,AFSA22.JPG,AFNE25.JPG,AFNE24.JPG,AFSA25.JPG,,,,,,,,,0,7,7,6,,,,,,,,,,,,,,,AFSA16.jpg,AFNE09.jpg,AFSA05.jpg,AFNE13.jpg,AFNE13.jpg,FN,3,num_4,32,num_6,0.250169911858,,,2017_Aug_31_1130,60.0045227741,FEMA4ImagesEEG,001,201458,
AMSA21.JPG,AMNE22.JPG,AMNE21.JPG,AMSA23.JPG,AMSA22.JPG,AMNE23.JPG,,,,,,,,,0,8,8,1,,,,,,,,,,,,,,,AFNE07.jpg,AFSA13.jpg,AFNE03.jpg,AFSA07.jpg,AFNE07.jpg,FN,3,num_8,32,num_4,0.416878862699,,,2017_Aug_31_1130,60.0045227741,FEMA4ImagesEEG,001,201458,
AFNE23.JPG,AFNE24.JPG,AFNE22.JPG,AFSA24.JPG,AFSA22.JPG,AFSA23.JPG,,,,,,,,,0,9,9,8,,,,,,,,,,,,,,,AFNE17.jpg,AFSA16.jpg,AFNE01.jpg,AFSA17.jpg,AFNE17.jpg,FN,3,num_8,32,num_6,0.38335162084,,,2017_Aug_31_1130,60.0045227741,FEMA4ImagesEEG,001,201458,
AMNE23.JPG,AMNE24.JPG,AMNE22.JPG,AMSA24.JPG,AMSA22.JPG,AMSA23.JPG,,,,,,,,,,,,,0,0,0,9,,,,,,,,,,,AMSA05.jpg,AMNE10.jpg,AMNE15.jpg,AMSA19.jpg,AMNE15.jpg,MN,1,num_2,32,num_8,0.516866578371,,,2017_Aug_31_1130,60.0045227741,FEMA4ImagesEEG,001,201458,
AFSA25.JPG,AFNE24.JPG,AFSA24.JPG,AFNE21.JPG,AFSA21.JPG,AFNE25.JPG,,,,,,,,,,,,,0,1,1,2,,,,,,,,,,,AMNE11.jpg,AMSA19.jpg,AMSA08.jpg,AMNE16.jpg,AMNE16.jpg,MN,1,num_4,32,num_6,0.466746509483,,,2017_Aug_31_1130,60.0045227741,FEMA4ImagesEEG,001,201458,
AMSA21.JPG,AMNE22.JPG,AMNE21.JPG,AMSA23.JPG,AMSA22.JPG,AMNE23.JPG,,,,,,,,,,,,,0,2,2,1,,,,,,,,,,,AMNE16.jpg,AMSA03.jpg,AMNE07.jpg,AMSA16.jpg,AMSA16.jpg,MS,2,num_4,32,num_2,0.400159022742,,,2017_Aug_31_1130,60.0045227741,FEMA4ImagesEEG,001,201458,
AMSA25.JPG,AMNE24.JPG,AMSA24.JPG,AMNE26.JPG,AMSA21.JPG,AMNE25.JPG,,,,,,,,,,,,,0,3,3,3,,,,,,,,,,,AMSA01.jpg,AMNE13.jpg,AMSA18.jpg,AMNE12.jpg,AMSA18.jpg,MS,2,num_2,32,num_4,0.300155270088,,,2017_Aug_31_1130,60.0045227741,FEMA4ImagesEEG,001,201458,
AMSA21.JPG,AMNE23.JPG,AMNE21.JPG,AMSA25.JPG,AMNE25.JPG,AMSA23.JPG,,,,,,,,,,,,,0,4,4,5,,,,,,,,,,,AMSA07.jpg,AMSA19.jpg,AMNE03.jpg,AMNE06.jpg,AMSA07.jpg,MS,2,num_8,16,num_8,0.366906975556,,,2017_Aug_31_1130,60.0045227741,FEMA4ImagesEEG,001,201458,
AFSA21.JPG,AFNE22.JPG,AFNE21.JPG,AFSA23.JPG,AFSA22.JPG,AFNE23.JPG,,,,,,,,,,,,,0,5,5,0,,,,,,,,,,,AMSA01.jpg,AMSA19.jpg,AMNE05.jpg,AMNE19.jpg,AMNE19.jpg,MN,1,num_4,32,num_6,0.999664827017,,,2017_Aug_31_1130,60.0045227741,FEMA4ImagesEEG,001,201458,
AFSA21.JPG,AFNE23.JPG,AFNE21.JPG,AFSA25.JPG,AFNE25.JPG,AFSA23.JPG,,,,,,,,,,,,,0,6,6,4,,,,,,,,,,,AMNE08.jpg,AMSA09.jpg,AMNE20.jpg,AMSA19.jpg,AMNE08.jpg,MN,1,num_8,32,num_4,0.866695447708,,,2017_Aug_31_1130,60.0045227741,FEMA4ImagesEEG,001,201458,
AFNE23.JPG,AFNE24.JPG,AFNE22.JPG,AFSA24.JPG,AFSA22.JPG,AFSA23.JPG,,,,,,,,,,,,,0,7,7,8,,,,,,,,,,,AMNE04.jpg,AMNE16.jpg,AMSA05.jpg,AMSA19.jpg,AMNE04.jpg,MN,1,num_8,16,num_8,0.966783234166,,,2017_Aug_31_1130,60.0045227741,FEMA4ImagesEEG,001,201458,
AFNE22.JPG,AFSA24.JPG,AFSA22.JPG,AFNE25.JPG,AFNE24.JPG,AFSA25.JPG,,,,,,,,,,,,,0,8,8,6,,,,,,,,,,,AMSA12.jpg,AMNE10.jpg,AMSA08.jpg,AMNE07.jpg,AMSA08.jpg,MS,2,num_2,16,num_2,0.83353160393,,,2017_Aug_31_1130,60.0045227741,FEMA4ImagesEEG,001,201458,
AMNE22.JPG,AMSA24.JPG,AMSA22.JPG,AMNE25.JPG,AMNE24.JPG,AMSA25.JPG,,,,,,,,,,,,,0,9,9,7,,,,,,,,,,,AMNE01.jpg,AMNE16.jpg,AMSA14.jpg,AMSA19.jpg,AMNE01.jpg,MN,1,num_8,32,num_6,0.46692965184,,,2017_Aug_31_1130,60.0045227741,FEMA4ImagesEEG,001,201458,
AFNE23.JPG,AFNE24.JPG,AFNE22.JPG,AFSA24.JPG,AFSA22.JPG,AFSA23.JPG,,,,,,,,,,,,,,,,,0,0,0,8,,,,,,,AFSA08.jpg,AFNE10.jpg,AFNE03.jpg,AFSA05.jpg,AFSA05.jpg,FS,4,num_4,16,num_4,0.383520009185,,,2017_Aug_31_1130,60.0045227741,FEMA4ImagesEEG,001,201458,
AFSA21.JPG,AFNE22.JPG,AFNE21.JPG,AFSA23.JPG,AFSA22.JPG,AFNE23.JPG,,,,,,,,,,,,,,,,,0,1,1,0,,,,,,,AFSA04.jpg,AFSA13.jpg,AFNE15.jpg,AFNE01.jpg,AFSA13.jpg,FS,4,num_6,32,num_2,0.966928208509,,,2017_Aug_31_1130,60.0045227741,FEMA4ImagesEEG,001,201458,
AMSA25.JPG,AMNE24.JPG,AMSA24.JPG,AMNE26.JPG,AMSA21.JPG,AMNE25.JPG,,,,,,,,,,,,,,,,,0,2,2,3,,,,,,,AFNE13.jpg,AFSA17.jpg,AFSA09.jpg,AFNE07.jpg,AFNE07.jpg,FN,3,num_4,32,num_8,0.316836942031,,,2017_Aug_31_1130,60.0045227741,FEMA4ImagesEEG,001,201458,
AMNE23.JPG,AMNE24.JPG,AMNE22.JPG,AMSA24.JPG,AMSA22.JPG,AMSA23.JPG,,,,,,,,,,,,,,,,,0,3,3,9,,,,,,,AFNE07.jpg,AFNE16.jpg,AFSA14.jpg,AFSA17.jpg,AFNE07.jpg,FN,3,num_8,32,num_6,0.266833301634,,,2017_Aug_31_1130,60.0045227741,FEMA4ImagesEEG,001,201458,
AFNE22.JPG,AFSA24.JPG,AFSA22.JPG,AFNE25.JPG,AFNE24.JPG,AFSA25.JPG,,,,,,,,,,,,,,,,,0,4,4,6,,,,,,,AFNE11.jpg,AFSA04.jpg,AFSA17.jpg,AFNE20.jpg,AFNE20.jpg,FN,3,num_4,16,num_4,0.33358436561,,,2017_Aug_31_1130,60.0045227741,FEMA4ImagesEEG,001,201458,
AFSA21.JPG,AFNE23.JPG,AFNE21.JPG,AFSA25.JPG,AFNE25.JPG,AFSA23.JPG,,,,,,,,,,,,,,,,,0,5,5,4,,,,,,,AFNE17.jpg,AFSA05.jpg,AFNE09.jpg,AFSA11.jpg,AFSA11.jpg,FS,4,num_4,32,num_6,0.316766379299,,,2017_Aug_31_1130,60.0045227741,FEMA4ImagesEEG,001,201458,
AMSA21.JPG,AMNE23.JPG,AMNE21.JPG,AMSA25.JPG,AMNE25.JPG,AMSA23.JPG,,,,,,,,,,,,,,,,,0,6,6,5,,,,,,,AFSA06.jpg,AFNE08.jpg,AFNE18.jpg,AFSA07.jpg,AFSA07.jpg,FS,4,num_4,32,num_2,0.900061036766,,,2017_Aug_31_1130,60.0045227741,FEMA4ImagesEEG,001,201458,
AFSA25.JPG,AFNE24.JPG,AFSA24.JPG,AFNE21.JPG,AFSA21.JPG,AFNE25.JPG,,,,,,,,,,,,,,,,,0,7,7,2,,,,,,,AFNE12.jpg,AFNE10.jpg,AFSA04.jpg,AFSA13.jpg,AFNE12.jpg,FN,3,num_8,16,num_8,0.566765978365,,,2017_Aug_31_1130,60.0045227741,FEMA4ImagesEEG,001,201458,
AMNE22.JPG,AMSA24.JPG,AMSA22.JPG,AMNE25.JPG,AMNE24.JPG,AMSA25.JPG,,,,,,,,,,,,,,,,,0,8,8,7,,,,,,,AFSA16.jpg,AFNE19.jpg,AFNE05.jpg,AFSA17.jpg,AFNE19.jpg,FN,3,num_6,16,num_6,0.200236513454,,,2017_Aug_31_1130,60.0045227741,FEMA4ImagesEEG,001,201458,
AMSA21.JPG,AMNE22.JPG,AMNE21.JPG,AMSA23.JPG,AMSA22.JPG,AMNE23.JPG,,,,,,,,,,,,,,,,,0,9,9,1,,,,,,,AFSA11.jpg,AFSA03.jpg,AFNE05.jpg,AFNE16.jpg,AFNE16.jpg,FN,3,num_4,32,num_6,0.249960148096,,,2017_Aug_31_1130,60.0045227741,FEMA4ImagesEEG,001,201458,
AFNE23.JPG,AFNE24.JPG,AFNE22.JPG,AFSA24.JPG,AFSA22.JPG,AFSA23.JPG,,,,,,,,,,,,,,,,,,,,,0,0,0,8,,,AMSA05.jpg,AMSA06.jpg,AMNE05.jpg,AMNE08.jpg,AMSA06.jpg,MS,2,num_6,16,num_6,0.53344785879,,,2017_Aug_31_1130,60.0045227741,FEMA4ImagesEEG,001,201458,
AFSA21.JPG,AFNE22.JPG,AFNE21.JPG,AFSA23.JPG,AFSA22.JPG,AFNE23.JPG,,,,,,,,,,,,,,,,,,,,,0,1,1,0,,,AMSA02.jpg,AMNE04.jpg,AMSA13.jpg,AMNE03.jpg,AMSA02.jpg,MS,2,num_8,16,num_8,0.516941631475,,,2017_Aug_31_1130,60.0045227741,FEMA4ImagesEEG,001,201458,
AFNE22.JPG,AFSA24.JPG,AFSA22.JPG,AFNE25.JPG,AFNE24.JPG,AFSA25.JPG,,,,,,,,,,,,,,,,,,,,,0,2,2,6,,,AMSA16.jpg,AMNE20.jpg,AMNE04.jpg,AMSA09.jpg,AMSA16.jpg,MS,2,num_8,16,num_8,1.08353601409,,,2017_Aug_31_1130,60.0045227741,FEMA4ImagesEEG,001,201458,
AFSA25.JPG,AFNE24.JPG,AFSA24.JPG,AFNE21.JPG,AFSA21.JPG,AFNE25.JPG,,,,,,,,,,,,,,,,,,,,,0,3,3,2,,,AMSA07.jpg,AMNE19.jpg,AMNE20.jpg,AMSA02.jpg,AMNE20.jpg,MN,1,num_2,16,num_2,0.783566773025,,,2017_Aug_31_1130,60.0045227741,FEMA4ImagesEEG,001,201458,
AMSA21.JPG,AMNE23.JPG,AMNE21.JPG,AMSA25.JPG,AMNE25.JPG,AMSA23.JPG,,,,,,,,,,,,,,,,,,,,,0,4,4,5,,,AMSA08.jpg,AMSA09.jpg,AMNE10.jpg,AMNE09.jpg,AMNE09.jpg,MN,1,num_4,32,num_6,0.266806038751,,,2017_Aug_31_1130,60.0045227741,FEMA4ImagesEEG,001,201458,
AMSA25.JPG,AMNE24.JPG,AMSA24.JPG,AMNE26.JPG,AMSA21.JPG,AMNE25.JPG,,,,,,,,,,,,,,,,,,,,,0,5,5,3,,,AMSA15.jpg,AMNE10.jpg,AMSA01.jpg,AMNE08.jpg,AMSA15.jpg,MS,2,num_8,32,num_4,0.90014218392,,,2017_Aug_31_1130,60.0045227741,FEMA4ImagesEEG,001,201458,
AMNE23.JPG,AMNE24.JPG,AMNE22.JPG,AMSA24.JPG,AMSA22.JPG,AMSA23.JPG,,,,,,,,,,,,,,,,,,,,,0,6,6,9,,,AMSA13.jpg,AMNE05.jpg,AMSA12.jpg,AMNE13.jpg,AMNE05.jpg,MN,1,num_6,32,num_8,0.583478120592,,,2017_Aug_31_1130,60.0045227741,FEMA4ImagesEEG,001,201458,
AFSA21.JPG,AFNE23.JPG,AFNE21.JPG,AFSA25.JPG,AFNE25.JPG,AFSA23.JPG,,,,,,,,,,,,,,,,,,,,,0,7,7,4,,,AMSA19.jpg,AMNE17.jpg,AMSA14.jpg,AMNE06.jpg,AMNE17.jpg,MN,1,num_6,16,num_6,0.700057059599,,,2017_Aug_31_1130,60.0045227741,FEMA4ImagesEEG,001,201458,
AMSA21.JPG,AMNE22.JPG,AMNE21.JPG,AMSA23.JPG,AMSA22.JPG,AMNE23.JPG,,,,,,,,,,,,,,,,,,,,,0,8,8,1,,,AMSA05.jpg,AMNE11.jpg,AMNE08.jpg,AMSA01.jpg,AMSA01.jpg,MS,2,num_4,16,num_4,0.450146626157,,,2017_Aug_31_1130,60.0045227741,FEMA4ImagesEEG,001,201458,
AMNE22.JPG,AMSA24.JPG,AMSA22.JPG,AMNE25.JPG,AMNE24.JPG,AMSA25.JPG,,,,,,,,,,,,,,,,,,,,,0,9,9,7,,,AMSA09.jpg,AMNE15.jpg,AMNE02.jpg,AMSA12.jpg,AMNE15.jpg,MN,1,num_6,32,num_2,0.566770789461,,,2017_Aug_31_1130,60.0045227741,FEMA4ImagesEEG,001,201458,
,,,,,,,,,,,,,,,,,,,,,,,,,,,,,,,,,,,,,,,,,,,space,13.0655328946,2017_Aug_31_1130,60.0045227741,FEMA4ImagesEEG,001,201458,
AFNE01.JPG,AFNE01.JPG,AFNE01.JPG,AFNE01.JPG,AFNE01.JPG,AFNE01.JPG,0,0,0,7,,,,,,,,,,,,,,,,,,,,,,,AFNE14.jpg,AFSA18.jpg,AFNE08.jpg,AFSA08.jpg,AFNE08.jpg,FN,3,num_2,32,num_8,0.283560197873,,,2017_Aug_31_1130,60.0045227741,FEMA4ImagesEEG,001,201458,
AFNE01.JPG,AFNE01.JPG,AFNE01.JPG,AFNE01.JPG,AFNE01.JPG,AFNE01.JPG,0,1,1,5,,,,,,,,,,,,,,,,,,,,,,,AFNE20.jpg,AFSA04.jpg,AFSA20.jpg,AFNE06.jpg,AFSA20.jpg,FS,4,num_2,16,num_2,0.850088828869,,,2017_Aug_31_1130,60.0045227741,FEMA4ImagesEEG,001,201458,
AFNE01.JPG,AFNE01.JPG,AFNE01.JPG,AFNE01.JPG,AFNE01.JPG,AFNE01.JPG,0,2,2,1,,,,,,,,,,,,,,,,,,,,,,,AFSA10.jpg,AFNE04.jpg,AFNE12.jpg,AFSA08.jpg,AFSA10.jpg,FS,4,num_8,32,num_6,0.466797827816,,,2017_Aug_31_1130,60.0045227741,FEMA4ImagesEEG,001,201458,
AFNE01.JPG,AFNE01.JPG,AFNE01.JPG,AFNE01.JPG,AFNE01.JPG,AFNE01.JPG,0,3,3,3,,,,,,,,,,,,,,,,,,,,,,,AFNE12.jpg,AFSA01.jpg,AFSA03.jpg,AFNE19.jpg,AFSA03.jpg,FS,4,num_2,32,num_6,0.883481680779,,,2017_Aug_31_1130,60.0045227741,FEMA4ImagesEEG,001,201458,
AFNE01.JPG,AFNE01.JPG,AFNE01.JPG,AFNE01.JPG,AFNE01.JPG,AFNE01.JPG,0,4,4,6,,,,,,,,,,,,,,,,,,,,,,,AFSA11.jpg,AFNE07.jpg,AFNE05.jpg,AFSA12.jpg,AFNE07.jpg,FN,3,num_6,32,num_2,1.18340826347,,,2017_Aug_31_1130,60.0045227741,FEMA4ImagesEEG,001,201458,
AFNE01.JPG,AFNE01.JPG,AFNE01.JPG,AFNE01.JPG,AFNE01.JPG,AFNE01.JPG,0,5,5,2,,,,,,,,,,,,,,,,,,,,,,,AFNE18.jpg,AFSA04.jpg,AFNE19.jpg,AFSA09.jpg,AFNE19.jpg,FN,3,num_2,32,num_4,0.600135095563,,,2017_Aug_31_1130,60.0045227741,FEMA4ImagesEEG,001,201458,
AFNE01.JPG,AFNE01.JPG,AFNE01.JPG,AFNE01.JPG,AFNE01.JPG,AFNE01.JPG,0,6,6,9,,,,,,,,,,,,,,,,,,,,,,,AFSA17.jpg,AFNE06.jpg,AFSA20.jpg,AFNE16.jpg,AFNE06.jpg,FN,3,num_6,32,num_2,1.25009646246,,,2017_Aug_31_1130,60.0045227741,FEMA4ImagesEEG,001,201458,
AFNE01.JPG,AFNE01.JPG,AFNE01.JPG,AFNE01.JPG,AFNE01.JPG,AFNE01.JPG,0,7,7,8,,,,,,,,,,,,,,,,,,,,,,,AFNE13.jpg,AFSA09.jpg,AFSA13.jpg,AFNE14.jpg,AFSA09.jpg,FS,4,num_6,32,num_8,0.650108586415,,,2017_Aug_31_1130,60.0045227741,FEMA4ImagesEEG,001,201458,
AFNE01.JPG,AFNE01.JPG,AFNE01.JPG,AFNE01.JPG,AFNE01.JPG,AFNE01.JPG,0,8,8,0,,,,,,,,,,,,,,,,,,,,,,,AFSA05.jpg,AFNE17.jpg,AFSA03.jpg,AFNE18.jpg,AFNE17.jpg,FN,3,num_6,32,num_4,0.633172888643,,,2017_Aug_31_1130,60.0045227741,FEMA4ImagesEEG,001,201458,
AFNE01.JPG,AFNE01.JPG,AFNE01.JPG,AFNE01.JPG,AFNE01.JPG,AFNE01.JPG,0,9,9,4,,,,,,,,,,,,,,,,,,,,,,,AFNE20.jpg,AFNE05.jpg,AFSA10.jpg,AFSA20.jpg,AFSA10.jpg,FS,4,num_2,16,num_2,0.550149737333,,,2017_Aug_31_1130,60.0045227741,FEMA4ImagesEEG,001,201458,
AFNE01.JPG,AFNE01.JPG,AFNE01.JPG,AFNE01.JPG,AFNE01.JPG,AFNE01.JPG,1,0,10,8,,,,,,,,,,,,,,,,,,,,,,,AFNE10.jpg,AFSA01.jpg,AFNE19.jpg,AFSA04.jpg,AFSA04.jpg,FS,4,num_4,32,num_6,1.35008064999,,,2017_Aug_31_1130,60.0045227741,FEMA4ImagesEEG,001,201458,
AFNE01.JPG,AFNE01.JPG,AFNE01.JPG,AFNE01.JPG,AFNE01.JPG,AFNE01.JPG,1,1,11,3,,,,,,,,,,,,,,,,,,,,,,,AFSA07.jpg,AFSA15.jpg,AFNE14.jpg,AFNE10.jpg,AFNE10.jpg,FN,3,num_4,16,num_4,0.650158301083,,,2017_Aug_31_1130,60.0045227741,FEMA4ImagesEEG,001,201458,
AFNE01.JPG,AFNE01.JPG,AFNE01.JPG,AFNE01.JPG,AFNE01.JPG,AFNE01.JPG,1,2,12,2,,,,,,,,,,,,,,,,,,,,,,,AFNE09.jpg,AFSA01.jpg,AFNE05.jpg,AFSA18.jpg,AFNE09.jpg,FN,3,num_8,16,num_8,0.600126435587,,,2017_Aug_31_1130,60.0045227741,FEMA4ImagesEEG,001,201458,
AFNE01.JPG,AFNE01.JPG,AFNE01.JPG,AFNE01.JPG,AFNE01.JPG,AFNE01.JPG,1,3,13,7,,,,,,,,,,,,,,,,,,,,,,,AFNE17.jpg,AFNE04.jpg,AFSA04.jpg,AFSA02.jpg,AFNE17.jpg,FN,3,num_8,32,num_6,0.80001975756,,,2017_Aug_31_1130,60.0045227741,FEMA4ImagesEEG,001,201458,
AFNE01.JPG,AFNE01.JPG,AFNE01.JPG,AFNE01.JPG,AFNE01.JPG,AFNE01.JPG,1,4,14,6,,,,,,,,,,,,,,,,,,,,,,,AFNE15.jpg,AFNE04.jpg,AFSA09.jpg,AFSA14.jpg,AFNE04.jpg,FN,3,num_6,32,num_2,0.466766716083,,,2017_Aug_31_1130,60.0045227741,FEMA4ImagesEEG,001,201458,
AFNE01.JPG,AFNE01.JPG,AFNE01.JPG,AFNE01.JPG,AFNE01.JPG,AFNE01.JPG,1,5,15,9,,,,,,,,,,,,,,,,,,,,,,,AFSA07.jpg,AFNE06.jpg,AFSA11.jpg,AFNE07.jpg,AFSA11.jpg,FS,4,num_2,16,num_2,0.483562892085,,,2017_Aug_31_1130,60.0045227741,FEMA4ImagesEEG,001,201458,
AFNE01.JPG,AFNE01.JPG,AFNE01.JPG,AFNE01.JPG,AFNE01.JPG,AFNE01.JPG,1,6,16,5,,,,,,,,,,,,,,,,,,,,,,,AFSA04.jpg,AFNE03.jpg,AFSA14.jpg,AFNE20.jpg,AFSA14.jpg,FS,4,num_2,32,num_8,0.483471160536,,,2017_Aug_31_1130,60.0045227741,FEMA4ImagesEEG,001,201458,
AFNE01.JPG,AFNE01.JPG,AFNE01.JPG,AFNE01.JPG,AFNE01.JPG,AFNE01.JPG,1,7,17,1,,,,,,,,,,,,,,,,,,,,,,,AFSA17.jpg,AFNE19.jpg,AFNE16.jpg,AFSA01.jpg,AFNE19.jpg,FN,3,num_6,16,num_6,0.383622966619,,,2017_Aug_31_1130,60.0045227741,FEMA4ImagesEEG,001,201458,
AFNE01.JPG,AFNE01.JPG,AFNE01.JPG,AFNE01.JPG,AFNE01.JPG,AFNE01.JPG,1,8,18,4,,,,,,,,,,,,,,,,,,,,,,,AFNE10.jpg,AFNE01.jpg,AFSA20.jpg,AFSA10.jpg,AFSA10.jpg,FS,4,num_4,32,num_8,0.866699617312,,,2017_Aug_31_1130,60.0045227741,FEMA4ImagesEEG,001,201458,
AFNE01.JPG,AFNE01.JPG,AFNE01.JPG,AFNE01.JPG,AFNE01.JPG,AFNE01.JPG,1,9,19,0,,,,,,,,,,,,,,,,,,,,,,,AFSA11.jpg,AFNE13.jpg,AFNE16.jpg,AFSA10.jpg,AFNE13.jpg,FN,3,num_6,32,num_2,0.400153570183,,,2017_Aug_31_1130,60.0045227741,FEMA4ImagesEEG,001,201458,
AFNE01.JPG,AFNE01.JPG,AFNE01.JPG,AFNE01.JPG,AFNE01.JPG,AFNE01.JPG,2,0,20,1,,,,,,,,,,,,,,,,,,,,,,,AFSA01.jpg,AFNE07.jpg,AFSA12.jpg,AFNE04.jpg,AFNE04.jpg,FN,3,num_4,32,num_6,0.483560005421,,,2017_Aug_31_1130,60.0045227741,FEMA4ImagesEEG,001,201458,
AFNE01.JPG,AFNE01.JPG,AFNE01.JPG,AFNE01.JPG,AFNE01.JPG,AFNE01.JPG,2,1,21,8,,,,,,,,,,,,,,,,,,,,,,,AFNE18.jpg,AFNE10.jpg,AFSA08.jpg,AFSA12.jpg,AFSA08.jpg,FS,4,num_2,32,num_4,0.416813431817,,,2017_Aug_31_1130,60.0045227741,FEMA4ImagesEEG,001,201458,
AFNE01.JPG,AFNE01.JPG,AFNE01.JPG,AFNE01.JPG,AFNE01.JPG,AFNE01.JPG,2,2,22,7,,,,,,,,,,,,,,,,,,,,,,,AFNE18.jpg,AFSA04.jpg,AFNE12.jpg,AFSA05.jpg,AFSA05.jpg,FS,4,num_4,32,num_6,0.41682529918,,,2017_Aug_31_1130,60.0045227741,FEMA4ImagesEEG,001,201458,
AFNE01.JPG,AFNE01.JPG,AFNE01.JPG,AFNE01.JPG,AFNE01.JPG,AFNE01.JPG,2,3,23,9,,,,,,,,,,,,,,,,,,,,,,,AFSA08.jpg,AFSA13.jpg,AFNE05.jpg,AFNE09.jpg,AFSA13.jpg,FS,4,num_6,32,num_4,0.38349467075,,,2017_Aug_31_1130,60.0045227741,FEMA4ImagesEEG,001,201458,
AFNE01.JPG,AFNE01.JPG,AFNE01.JPG,AFNE01.JPG,AFNE01.JPG,AFNE01.JPG,2,4,24,5,,,,,,,,,,,,,,,,,,,,,,,AFNE15.jpg,AFNE10.jpg,AFSA09.jpg,AFSA14.jpg,AFSA14.jpg,FS,4,num_4,32,num_2,0.783459325234,,,2017_Aug_31_1130,60.0045227741,FEMA4ImagesEEG,001,201458,
AFNE01.JPG,AFNE01.JPG,AFNE01.JPG,AFNE01.JPG,AFNE01.JPG,AFNE01.JPG,2,5,25,6,,,,,,,,,,,,,,,,,,,,,,,AFNE18.jpg,AFNE16.jpg,AFSA11.jpg,AFSA08.jpg,AFNE18.jpg,FN,3,num_8,32,num_6,0.233483749558,,,2017_Aug_31_1130,60.0045227741,FEMA4ImagesEEG,001,201458,
AFNE01.JPG,AFNE01.JPG,AFNE01.JPG,AFNE01.JPG,AFNE01.JPG,AFNE01.JPG,2,6,26,2,,,,,,,,,,,,,,,,,,,,,,,AFNE15.jpg,AFNE16.jpg,AFSA09.jpg,AFSA13.jpg,AFNE15.jpg,FN,3,num_8,32,num_4,0.316819942833,,,2017_Aug_31_1130,60.0045227741,FEMA4ImagesEEG,001,201458,
AFNE01.JPG,AFNE01.JPG,AFNE01.JPG,AFNE01.JPG,AFNE01.JPG,AFNE01.JPG,2,7,27,0,,,,,,,,,,,,,,,,,,,,,,,AFSA01.jpg,AFSA18.jpg,AFNE10.jpg,AFNE20.jpg,AFSA01.jpg,FS,4,num_8,32,num_2,0.316793000689,,,2017_Aug_31_1130,60.0045227741,FEMA4ImagesEEG,001,201458,
AFNE01.JPG,AFNE01.JPG,AFNE01.JPG,AFNE01.JPG,AFNE01.JPG,AFNE01.JPG,2,8,28,4,,,,,,,,,,,,,,,,,,,,,,,AFNE20.jpg,AFNE03.jpg,AFSA01.jpg,AFSA12.jpg,AFSA01.jpg,FS,4,num_2,32,num_8,0.383534442473,,,2017_Aug_31_1130,60.0045227741,FEMA4ImagesEEG,001,201458,
AFNE01.JPG,AFNE01.JPG,AFNE01.JPG,AFNE01.JPG,AFNE01.JPG,AFNE01.JPG,2,9,29,3,,,,,,,,,,,,,,,,,,,,,,,AFNE09.jpg,AFNE20.jpg,AFSA08.jpg,AFSA07.jpg,AFNE09.jpg,FN,3,num_8,32,num_6,0.500155077636,,,2017_Aug_31_1130,60.0045227741,FEMA4ImagesEEG,001,201458,
AFNE01.JPG,AFNE01.JPG,AFNE01.JPG,AFNE01.JPG,AFNE01.JPG,AFNE01.JPG,3,0,30,0,,,,,,,,,,,,,,,,,,,,,,,AFNE11.jpg,AFNE17.jpg,AFSA12.jpg,AFSA09.jpg,AFSA09.jpg,FS,4,num_4,32,num_2,0.533520345954,,,2017_Aug_31_1130,60.0045227741,FEMA4ImagesEEG,001,201458,
AFNE01.JPG,AFNE01.JPG,AFNE01.JPG,AFNE01.JPG,AFNE01.JPG,AFNE01.JPG,3,1,31,7,,,,,,,,,,,,,,,,,,,,,,,AFSA17.jpg,AFSA03.jpg,AFNE03.jpg,AFNE14.jpg,AFSA03.jpg,FS,4,num_6,32,num_4,0.366833205408,,,2017_Aug_31_1130,60.0045227741,FEMA4ImagesEEG,001,201458,
AFNE01.JPG,AFNE01.JPG,AFNE01.JPG,AFNE01.JPG,AFNE01.JPG,AFNE01.JPG,3,2,32,8,,,,,,,,,,,,,,,,,,,,,,,AFSA02.jpg,AFNE16.jpg,AFNE14.jpg,AFSA16.jpg,AFNE14.jpg,FN,3,num_2,32,num_6,0.600160113259,,,2017_Aug_31_1130,60.0045227741,FEMA4ImagesEEG,001,201458,
AFNE01.JPG,AFNE01.JPG,AFNE01.JPG,AFNE01.JPG,AFNE01.JPG,AFNE01.JPG,3,3,33,1,,,,,,,,,,,,,,,,,,,,,,,AFSA20.jpg,AFSA06.jpg,AFNE07.jpg,AFNE17.jpg,AFSA06.jpg,FS,4,num_6,32,num_2,0.600096606795,,,2017_Aug_31_1130,60.0045227741,FEMA4ImagesEEG,001,201458,
AFNE01.JPG,AFNE01.JPG,AFNE01.JPG,AFNE01.JPG,AFNE01.JPG,AFNE01.JPG,3,4,34,3,,,,,,,,,,,,,,,,,,,,,,,AFSA01.jpg,AFNE12.jpg,AFNE18.jpg,AFSA05.jpg,AFSA01.jpg,FS,4,num_8,16,num_8,0.38352257511,,,2017_Aug_31_1130,60.0045227741,FEMA4ImagesEEG,001,201458,
AFNE01.JPG,AFNE01.JPG,AFNE01.JPG,AFNE01.JPG,AFNE01.JPG,AFNE01.JPG,3,5,35,9,,,,,,,,,,,,,,,,,,,,,,,AFSA09.jpg,AFSA01.jpg,AFNE01.jpg,AFNE16.jpg,AFSA01.jpg,FS,4,num_6,32,num_2,0.400142344282,,,2017_Aug_31_1130,60.0045227741,FEMA4ImagesEEG,001,201458,
AFNE01.JPG,AFNE01.JPG,AFNE01.JPG,AFNE01.JPG,AFNE01.JPG,AFNE01.JPG,3,6,36,5,,,,,,,,,,,,,,,,,,,,,,,AFSA09.jpg,AFNE11.jpg,AFNE01.jpg,AFSA08.jpg,AFSA08.jpg,FS,4,num_4,32,num_6,0.0168567958171,,,2017_Aug_31_1130,60.0045227741,FEMA4ImagesEEG,001,201458,
AFNE01.JPG,AFNE01.JPG,AFNE01.JPG,AFNE01.JPG,AFNE01.JPG,AFNE01.JPG,3,7,37,6,,,,,,,,,,,,,,,,,,,,,,,AFNE06.jpg,AFSA04.jpg,AFSA20.jpg,AFNE14.jpg,AFSA20.jpg,FS,4,num_2,32,num_8,0.58356247512,,,2017_Aug_31_1130,60.0045227741,FEMA4ImagesEEG,001,201458,
AFNE01.JPG,AFNE01.JPG,AFNE01.JPG,AFNE01.JPG,AFNE01.JPG,AFNE01.JPG,3,8,38,4,,,,,,,,,,,,,,,,,,,,,,,AFNE01.jpg,AFSA18.jpg,AFSA12.jpg,AFNE10.jpg,AFSA18.jpg,FS,4,num_6,16,num_6,0.466820279602,,,2017_Aug_31_1130,60.0045227741,FEMA4ImagesEEG,001,201458,
AFNE01.JPG,AFNE01.JPG,AFNE01.JPG,AFNE01.JPG,AFNE01.JPG,AFNE01.JPG,3,9,39,2,,,,,,,,,,,,,,,,,,,,,,,AFSA09.jpg,AFNE11.jpg,AFNE15.jpg,AFSA08.jpg,AFSA09.jpg,FS,4,num_8,32,num_6,0.616759355093,,,2017_Aug_31_1130,60.0045227741,FEMA4ImagesEEG,001,201458,
AFNE01.JPG,AFNE01.JPG,AFNE01.JPG,AFNE01.JPG,AFNE01.JPG,AFNE01.JPG,4,0,40,6,,,,,,,,,,,,,,,,,,,,,,,AFNE10.jpg,AFSA14.jpg,AFNE19.jpg,AFSA12.jpg,AFNE19.jpg,FN,3,num_2,32,num_4,0.7501649404,,,2017_Aug_31_1130,60.0045227741,FEMA4ImagesEEG,001,201458,
AFNE01.JPG,AFNE01.JPG,AFNE01.JPG,AFNE01.JPG,AFNE01.JPG,AFNE01.JPG,4,1,41,3,,,,,,,,,,,,,,,,,,,,,,,AFNE06.jpg,AFNE10.jpg,AFSA07.jpg,AFSA04.jpg,AFNE10.jpg,FN,3,num_6,16,num_6,0.550121512235,,,2017_Aug_31_1130,60.0045227741,FEMA4ImagesEEG,001,201458,
AFNE01.JPG,AFNE01.JPG,AFNE01.JPG,AFNE01.JPG,AFNE01.JPG,AFNE01.JPG,4,2,42,0,,,,,,,,,,,,,,,,,,,,,,,AFNE17.jpg,AFSA04.jpg,AFSA01.jpg,AFNE18.jpg,AFSA04.jpg,FS,4,num_6,32,num_2,0.316764454852,,,2017_Aug_31_1130,60.0045227741,FEMA4ImagesEEG,001,201458,
AFNE01.JPG,AFNE01.JPG,AFNE01.JPG,AFNE01.JPG,AFNE01.JPG,AFNE01.JPG,4,3,43,7,,,,,,,,,,,,,,,,,,,,,,,AFNE04.jpg,AFSA14.jpg,AFNE14.jpg,AFSA12.jpg,AFSA14.jpg,FS,4,num_6,32,num_8,0.533332071762,,,2017_Aug_31_1130,60.0045227741,FEMA4ImagesEEG,001,201458,
AFNE01.JPG,AFNE01.JPG,AFNE01.JPG,AFNE01.JPG,AFNE01.JPG,AFNE01.JPG,4,4,44,2,,,,,,,,,,,,,,,,,,,,,,,AFNE04.jpg,AFSA12.jpg,AFSA19.jpg,AFNE12.jpg,AFNE04.jpg,FN,3,num_8,32,num_4,1.0666131459,,,2017_Aug_31_1130,60.0045227741,FEMA4ImagesEEG,001,201458,
AFNE01.JPG,AFNE01.JPG,AFNE01.JPG,AFNE01.JPG,AFNE01.JPG,AFNE01.JPG,4,5,45,9,,,,,,,,,,,,,,,,,,,,,,,AFNE12.jpg,AFSA14.jpg,AFNE02.jpg,AFSA08.jpg,AFSA08.jpg,FS,4,num_4,16,num_4,0.816786425523,,,2017_Aug_31_1130,60.0045227741,FEMA4ImagesEEG,001,201458,
AFNE01.JPG,AFNE01.JPG,AFNE01.JPG,AFNE01.JPG,AFNE01.JPG,AFNE01.JPG,4,6,46,4,,,,,,,,,,,,,,,,,,,,,,,AFNE20.jpg,AFSA17.jpg,AFNE11.jpg,AFSA13.jpg,AFSA13.jpg,FS,4,num_4,32,num_6,0.600144397002,,,2017_Aug_31_1130,60.0045227741,FEMA4ImagesEEG,001,201458,
AFNE01.JPG,AFNE01.JPG,AFNE01.JPG,AFNE01.JPG,AFNE01.JPG,AFNE01.JPG,4,7,47,5,,,,,,,,,,,,,,,,,,,,,,,AFNE20.jpg,AFSA01.jpg,AFSA10.jpg,AFNE04.jpg,AFSA10.jpg,FS,4,num_2,32,num_8,0.583514684899,,,2017_Aug_31_1130,60.0045227741,FEMA4ImagesEEG,001,201458,
AFNE01.JPG,AFNE01.JPG,AFNE01.JPG,AFNE01.JPG,AFNE01.JPG,AFNE01.JPG,4,8,48,1,,,,,,,,,,,,,,,,,,,,,,,AFNE14.jpg,AFSA03.jpg,AFNE11.jpg,AFSA10.jpg,AFNE14.jpg,FN,3,num_8,32,num_2,0.500162775395,,,2017_Aug_31_1130,60.0045227741,FEMA4ImagesEEG,001,201458,
AFNE01.JPG,AFNE01.JPG,AFNE01.JPG,AFNE01.JPG,AFNE01.JPG,AFNE01.JPG,4,9,49,8,,,,,,,,,,,,,,,,,,,,,,,AFSA11.jpg,AFNE01.jpg,AFNE04.jpg,AFSA14.jpg,AFSA11.jpg,FS,4,num_8,32,num_6,0.533501422324,,,2017_Aug_31_1130,60.0045227741,FEMA4ImagesEEG,001,201458,
AFNE01.JPG,AFNE01.JPG,AFNE01.JPG,AFNE01.JPG,AFNE01.JPG,AFNE01.JPG,5,0,50,5,,,,,,,,,,,,,,,,,,,,,,,AFNE01.jpg,AFSA13.jpg,AFSA14.jpg,AFNE04.jpg,AFNE04.jpg,FN,3,num_4,16,num_4,0.500104080042,,,2017_Aug_31_1130,60.0045227741,FEMA4ImagesEEG,001,201458,
AFNE01.JPG,AFNE01.JPG,AFNE01.JPG,AFNE01.JPG,AFNE01.JPG,AFNE01.JPG,5,1,51,8,,,,,,,,,,,,,,,,,,,,,,,AFNE12.jpg,AFNE01.jpg,AFSA16.jpg,AFSA17.jpg,AFNE01.jpg,FN,3,num_6,32,num_8,1.23344782671,,,2017_Aug_31_1130,60.0045227741,FEMA4ImagesEEG,001,201458,
AFNE01.JPG,AFNE01.JPG,AFNE01.JPG,AFNE01.JPG,AFNE01.JPG,AFNE01.JPG,5,2,52,6,,,,,,,,,,,,,,,,,,,,,,,AFSA15.jpg,AFNE01.jpg,AFNE15.jpg,AFSA11.jpg,AFSA15.jpg,FS,4,num_8,32,num_2,0.4668080915,,,2017_Aug_31_1130,60.0045227741,FEMA4ImagesEEG,001,201458,
AFNE01.JPG,AFNE01.JPG,AFNE01.JPG,AFNE01.JPG,AFNE01.JPG,AFNE01.JPG,5,3,53,3,,,,,,,,,,,,,,,,,,,,,,,AFNE08.jpg,AFSA09.jpg,AFNE14.jpg,AFSA05.jpg,AFSA05.jpg,FS,4,num_4,32,num_6,0.366806263279,,,2017_Aug_31_1130,60.0045227741,FEMA4ImagesEEG,001,201458,
AFNE01.JPG,AFNE01.JPG,AFNE01.JPG,AFNE01.JPG,AFNE01.JPG,AFNE01.JPG,5,4,54,0,,,,,,,,,,,,,,,,,,,,,,,AFSA08.jpg,AFNE12.jpg,AFSA04.jpg,AFNE09.jpg,AFSA04.jpg,FS,4,num_2,32,num_4,1.11672070596,,,2017_Aug_31_1130,60.0045227741,FEMA4ImagesEEG,001,201458,
AFNE01.JPG,AFNE01.JPG,AFNE01.JPG,AFNE01.JPG,AFNE01.JPG,AFNE01.JPG,5,5,55,9,,,,,,,,,,,,,,,,,,,,,,,AFSA13.jpg,AFSA01.jpg,AFNE10.jpg,AFNE07.jpg,AFSA13.jpg,FS,4,num_8,32,num_6,0.250138800111,,,2017_Aug_31_1130,60.0045227741,FEMA4ImagesEEG,001,201458,
AFNE01.JPG,AFNE01.JPG,AFNE01.JPG,AFNE01.JPG,AFNE01.JPG,AFNE01.JPG,5,6,56,1,,,,,,,,,,,,,,,,,,,,,,,AFSA16.jpg,AFNE19.jpg,AFSA19.jpg,AFNE14.jpg,AFNE19.jpg,FN,3,num_6,32,num_2,0.916776065627,,,2017_Aug_31_1130,60.0045227741,FEMA4ImagesEEG,001,201458,
AFNE01.JPG,AFNE01.JPG,AFNE01.JPG,AFNE01.JPG,AFNE01.JPG,AFNE01.JPG,5,7,57,2,,,,,,,,,,,,,,,,,,,,,,,AFSA08.jpg,AFSA07.jpg,AFNE06.jpg,AFNE08.jpg,AFNE08.jpg,FN,3,num_4,32,num_6,0.283501502505,,,2017_Aug_31_1130,60.0045227741,FEMA4ImagesEEG,001,201458,
AFNE01.JPG,AFNE01.JPG,AFNE01.JPG,AFNE01.JPG,AFNE01.JPG,AFNE01.JPG,5,8,58,7,,,,,,,,,,,,,,,,,,,,,,,AFNE06.jpg,AFSA01.jpg,AFSA06.jpg,AFNE07.jpg,AFNE06.jpg,FN,3,num_8,32,num_4,0.466854598752,,,2017_Aug_31_1130,60.0045227741,FEMA4ImagesEEG,001,201458,
AFNE01.JPG,AFNE01.JPG,AFNE01.JPG,AFNE01.JPG,AFNE01.JPG,AFNE01.JPG,5,9,59,4,,,,,,,,,,,,,,,,,,,,,,,AFNE03.jpg,AFSA07.jpg,AFSA12.jpg,AFNE16.jpg,AFNE03.jpg,FN,3,num_8,16,num_8,0.600154019208,,,2017_Aug_31_1130,60.0045227741,FEMA4ImagesEEG,001,201458,
,,,,,,,,,,,,,,,,,,,,,,,,,,,,,,,,,,,,,,,,,,,space,31.8980878461,2017_Aug_31_1130,60.0045227741,FEMA4ImagesEEG,001,201458,
AFNE01.JPG,AFNE01.JPG,AFNE01.JPG,AFNE01.JPG,AFNE01.JPG,AFNE01.JPG,,,,,0,0,0,5,,,,,,,,,,,,,,,,,,,AMSA02.jpg,AMNE09.jpg,AMNE06.jpg,AMSA07.jpg,AMSA07.jpg,MS,2,num_4,32,num_6,0.61675999657,,,2017_Aug_31_1130,60.0045227741,FEMA4ImagesEEG,001,201458,
AFNE01.JPG,AFNE01.JPG,AFNE01.JPG,AFNE01.JPG,AFNE01.JPG,AFNE01.JPG,,,,,0,1,1,3,,,,,,,,,,,,,,,,,,,AMNE07.jpg,AMSA05.jpg,AMNE15.jpg,AMSA11.jpg,AMNE15.jpg,MN,1,num_2,32,num_8,0.383499802585,,,2017_Aug_31_1130,60.0045227741,FEMA4ImagesEEG,001,201458,
AFNE01.JPG,AFNE01.JPG,AFNE01.JPG,AFNE01.JPG,AFNE01.JPG,AFNE01.JPG,,,,,0,2,2,6,,,,,,,,,,,,,,,,,,,AMSA16.jpg,AMSA12.jpg,AMNE17.jpg,AMNE16.jpg,AMSA12.jpg,MS,2,num_6,32,num_2,0.300150138253,,,2017_Aug_31_1130,60.0045227741,FEMA4ImagesEEG,001,201458,
AFNE01.JPG,AFNE01.JPG,AFNE01.JPG,AFNE01.JPG,AFNE01.JPG,AFNE01.JPG,,,,,0,3,3,1,,,,,,,,,,,,,,,,,,,AMNE19.jpg,AMSA11.jpg,AMNE07.jpg,AMSA08.jpg,AMNE07.jpg,MN,1,num_2,32,num_4,0.333491030353,,,2017_Aug_31_1130,60.0045227741,FEMA4ImagesEEG,001,201458,
AFNE01.JPG,AFNE01.JPG,AFNE01.JPG,AFNE01.JPG,AFNE01.JPG,AFNE01.JPG,,,,,0,4,4,0,,,,,,,,,,,,,,,,,,,AMNE06.jpg,AMNE03.jpg,AMSA19.jpg,AMSA03.jpg,AMSA03.jpg,MS,2,num_4,32,num_8,0.266794492141,,,2017_Aug_31_1130,60.0045227741,FEMA4ImagesEEG,001,201458,
AFNE01.JPG,AFNE01.JPG,AFNE01.JPG,AFNE01.JPG,AFNE01.JPG,AFNE01.JPG,,,,,0,5,5,2,,,,,,,,,,,,,,,,,,,AMNE17.jpg,AMSA19.jpg,AMNE01.jpg,AMSA11.jpg,AMNE01.jpg,MN,1,num_2,32,num_6,0.250194288077,,,2017_Aug_31_1130,60.0045227741,FEMA4ImagesEEG,001,201458,
AFNE01.JPG,AFNE01.JPG,AFNE01.JPG,AFNE01.JPG,AFNE01.JPG,AFNE01.JPG,,,,,0,6,6,7,,,,,,,,,,,,,,,,,,,AMSA04.jpg,AMSA01.jpg,AMNE08.jpg,AMNE02.jpg,AMNE02.jpg,MN,1,num_4,16,num_4,0.250153233399,,,2017_Aug_31_1130,60.0045227741,FEMA4ImagesEEG,001,201458,
AFNE01.JPG,AFNE01.JPG,AFNE01.JPG,AFNE01.JPG,AFNE01.JPG,AFNE01.JPG,,,,,0,7,7,4,,,,,,,,,,,,,,,,,,,AMNE17.jpg,AMSA04.jpg,AMSA14.jpg,AMNE20.jpg,AMNE17.jpg,MN,1,num_8,16,num_8,0.783442326036,,,2017_Aug_31_1130,60.0045227741,FEMA4ImagesEEG,001,201458,
AFNE01.JPG,AFNE01.JPG,AFNE01.JPG,AFNE01.JPG,AFNE01.JPG,AFNE01.JPG,,,,,0,8,8,8,,,,,,,,,,,,,,,,,,,AMSA19.jpg,AMNE17.jpg,AMSA18.jpg,AMNE16.jpg,AMNE16.jpg,MN,1,num_4,32,num_6,0.41680509258,,,2017_Aug_31_1130,60.0045227741,FEMA4ImagesEEG,001,201458,
AFNE01.JPG,AFNE01.JPG,AFNE01.JPG,AFNE01.JPG,AFNE01.JPG,AFNE01.JPG,,,,,0,9,9,9,,,,,,,,,,,,,,,,,,,AMSA08.jpg,AMNE19.jpg,AMSA18.jpg,AMNE04.jpg,AMSA08.jpg,MS,2,num_8,32,num_2,0.700108057208,,,2017_Aug_31_1130,60.0045227741,FEMA4ImagesEEG,001,201458,
AFNE01.JPG,AFNE01.JPG,AFNE01.JPG,AFNE01.JPG,AFNE01.JPG,AFNE01.JPG,,,,,1,0,10,8,,,,,,,,,,,,,,,,,,,AMSA11.jpg,AMNE01.jpg,AMNE08.jpg,AMSA01.jpg,AMNE08.jpg,MN,1,num_2,32,num_6,0.300141478278,,,2017_Aug_31_1130,60.0045227741,FEMA4ImagesEEG,001,201458,
AFNE01.JPG,AFNE01.JPG,AFNE01.JPG,AFNE01.JPG,AFNE01.JPG,AFNE01.JPG,,,,,1,1,11,2,,,,,,,,,,,,,,,,,,,AMSA10.jpg,AMNE04.jpg,AMNE03.jpg,AMSA14.jpg,AMNE03.jpg,MN,1,num_2,32,num_8,0.35013998684,,,2017_Aug_31_1130,60.0045227741,FEMA4ImagesEEG,001,201458,
AFNE01.JPG,AFNE01.JPG,AFNE01.JPG,AFNE01.JPG,AFNE01.JPG,AFNE01.JPG,,,,,1,2,12,4,,,,,,,,,,,,,,,,,,,AMSA01.jpg,AMNE02.jpg,AMNE09.jpg,AMSA16.jpg,AMSA01.jpg,MS,2,num_8,32,num_4,0.266816302421,,,2017_Aug_31_1130,60.0045227741,FEMA4ImagesEEG,001,201458,
AFNE01.JPG,AFNE01.JPG,AFNE01.JPG,AFNE01.JPG,AFNE01.JPG,AFNE01.JPG,,,,,1,3,13,0,,,,,,,,,,,,,,,,,,,AMNE16.jpg,AMSA15.jpg,AMNE12.jpg,AMSA06.jpg,AMSA15.jpg,MS,2,num_6,32,num_2,0.28352042615,,,2017_Aug_31_1130,60.0045227741,FEMA4ImagesEEG,001,201458,
AFNE01.JPG,AFNE01.JPG,AFNE01.JPG,AFNE01.JPG,AFNE01.JPG,AFNE01.JPG,,,,,1,4,14,3,,,,,,,,,,,,,,,,,,,AMNE14.jpg,AMSA10.jpg,AMSA14.jpg,AMNE01.jpg,AMSA10.jpg,MS,2,num_6,16,num_6,0.283465258908,,,2017_Aug_31_1130,60.0045227741,FEMA4ImagesEEG,001,201458,
AFNE01.JPG,AFNE01.JPG,AFNE01.JPG,AFNE01.JPG,AFNE01.JPG,AFNE01.JPG,,,,,1,5,15,6,,,,,,,,,,,,,,,,,,,AMSA08.jpg,AMNE17.jpg,AMSA10.jpg,AMNE12.jpg,AMNE12.jpg,MN,1,num_4,16,num_4,0.250271907076,,,2017_Aug_31_1130,60.0045227741,FEMA4ImagesEEG,001,201458,
AFNE01.JPG,AFNE01.JPG,AFNE01.JPG,AFNE01.JPG,AFNE01.JPG,AFNE01.JPG,,,,,1,6,16,7,,,,,,,,,,,,,,,,,,,AMSA14.jpg,AMNE03.jpg,AMSA16.jpg,AMNE02.jpg,AMSA14.jpg,MS,2,num_8,32,num_6,0.266798341007,,,2017_Aug_31_1130,60.0045227741,FEMA4ImagesEEG,001,201458,
AFNE01.JPG,AFNE01.JPG,AFNE01.JPG,AFNE01.JPG,AFNE01.JPG,AFNE01.JPG,,,,,1,7,17,9,,,,,,,,,,,,,,,,,,,AMSA11.jpg,AMNE18.jpg,AMNE09.jpg,AMSA18.jpg,AMNE18.jpg,MN,1,num_6,32,num_4,0.283353962237,,,2017_Aug_31_1130,60.0045227741,FEMA4ImagesEEG,001,201458,
AFNE01.JPG,AFNE01.JPG,AFNE01.JPG,AFNE01.JPG,AFNE01.JPG,AFNE01.JPG,,,,,1,8,18,1,,,,,,,,,,,,,,,,,,,AMSA17.jpg,AMNE05.jpg,AMNE18.jpg,AMSA18.jpg,AMNE18.jpg,MN,1,num_2,32,num_6,0.383503009973,,,2017_Aug_31_1130,60.0045227741,FEMA4ImagesEEG,001,201458,
AFNE01.JPG,AFNE01.JPG,AFNE01.JPG,AFNE01.JPG,AFNE01.JPG,AFNE01.JPG,,,,,1,9,19,5,,,,,,,,,,,,,,,,,,,AMNE07.jpg,AMSA07.jpg,AMNE11.jpg,AMSA03.jpg,AMNE07.jpg,MN,1,num_8,32,num_2,1.05013642662,,,2017_Aug_31_1130,60.0045227741,FEMA4ImagesEEG,001,201458,
AFNE01.JPG,AFNE01.JPG,AFNE01.JPG,AFNE01.JPG,AFNE01.JPG,AFNE01.JPG,,,,,2,0,20,0,,,,,,,,,,,,,,,,,,,AMNE16.jpg,AMNE12.jpg,AMSA07.jpg,AMSA05.jpg,AMNE16.jpg,MN,1,num_8,32,num_6,0.300155270088,,,2017_Aug_31_1130,60.0045227741,FEMA4ImagesEEG,001,201458,
AFNE01.JPG,AFNE01.JPG,AFNE01.JPG,AFNE01.JPG,AFNE01.JPG,AFNE01.JPG,,,,,2,1,21,1,,,,,,,,,,,,,,,,,,,AMSA10.jpg,AMSA05.jpg,AMNE02.jpg,AMNE05.jpg,AMSA05.jpg,MS,2,num_6,32,num_8,0.749980835797,,,2017_Aug_31_1130,60.0045227741,FEMA4ImagesEEG,001,201458,
AFNE01.JPG,AFNE01.JPG,AFNE01.JPG,AFNE01.JPG,AFNE01.JPG,AFNE01.JPG,,,,,2,2,22,9,,,,,,,,,,,,,,,,,,,AMSA13.jpg,AMNE06.jpg,AMNE14.jpg,AMSA18.jpg,AMSA13.jpg,MS,2,num_8,32,num_2,0.350176871914,,,2017_Aug_31_1130,60.0045227741,FEMA4ImagesEEG,001,201458,
AFNE01.JPG,AFNE01.JPG,AFNE01.JPG,AFNE01.JPG,AFNE01.JPG,AFNE01.JPG,,,,,2,3,23,2,,,,,,,,,,,,,,,,,,,AMSA13.jpg,AMNE03.jpg,AMSA06.jpg,AMNE05.jpg,AMNE05.jpg,MN,1,num_4,16,num_4,0.300151741962,,,2017_Aug_31_1130,60.0045227741,FEMA4ImagesEEG,001,201458,
AFNE01.JPG,AFNE01.JPG,AFNE01.JPG,AFNE01.JPG,AFNE01.JPG,AFNE01.JPG,,,,,2,4,24,5,,,,,,,,,,,,,,,,,,,AMNE18.jpg,AMSA05.jpg,AMSA02.jpg,AMNE08.jpg,AMNE08.jpg,MN,1,num_4,32,num_6,0.26687114891,,,2017_Aug_31_1130,60.0045227741,FEMA4ImagesEEG,001,201458,
AFNE01.JPG,AFNE01.JPG,AFNE01.JPG,AFNE01.JPG,AFNE01.JPG,AFNE01.JPG,,,,,2,5,25,8,,,,,,,,,,,,,,,,,,,AMNE16.jpg,AMSA08.jpg,AMSA01.jpg,AMNE08.jpg,AMNE16.jpg,MN,1,num_8,32,num_2,0.283484824045,,,2017_Aug_31_1130,60.0045227741,FEMA4ImagesEEG,001,201458,
AFNE01.JPG,AFNE01.JPG,AFNE01.JPG,AFNE01.JPG,AFNE01.JPG,AFNE01.JPG,,,,,2,6,26,7,,,,,,,,,,,,,,,,,,,AMNE01.jpg,AMNE03.jpg,AMSA05.jpg,AMSA06.jpg,AMNE03.jpg,MN,1,num_6,16,num_6,1.16680228611,,,2017_Aug_31_1130,60.0045227741,FEMA4ImagesEEG,001,201458,
AFNE01.JPG,AFNE01.JPG,AFNE01.JPG,AFNE01.JPG,AFNE01.JPG,AFNE01.JPG,,,,,2,7,27,4,,,,,,,,,,,,,,,,,,,AMNE07.jpg,AMNE02.jpg,AMSA19.jpg,AMSA01.jpg,AMNE02.jpg,MN,1,num_6,32,num_8,0.333534330202,,,2017_Aug_31_1130,60.0045227741,FEMA4ImagesEEG,001,201458,
AFNE01.JPG,AFNE01.JPG,AFNE01.JPG,AFNE01.JPG,AFNE01.JPG,AFNE01.JPG,,,,,2,8,28,6,,,,,,,,,,,,,,,,,,,AMNE14.jpg,AMNE09.jpg,AMSA03.jpg,AMSA10.jpg,AMSA10.jpg,MS,2,num_4,16,num_4,0.283480975166,,,2017_Aug_31_1130,60.0045227741,FEMA4ImagesEEG,001,201458,
AFNE01.JPG,AFNE01.JPG,AFNE01.JPG,AFNE01.JPG,AFNE01.JPG,AFNE01.JPG,,,,,2,9,29,3,,,,,,,,,,,,,,,,,,,AMNE14.jpg,AMNE11.jpg,AMSA19.jpg,AMSA20.jpg,AMNE14.jpg,MN,1,num_8,32,num_2,0.833531924669,,,2017_Aug_31_1130,60.0045227741,FEMA4ImagesEEG,001,201458,
AFNE01.JPG,AFNE01.JPG,AFNE01.JPG,AFNE01.JPG,AFNE01.JPG,AFNE01.JPG,,,,,3,0,30,0,,,,,,,,,,,,,,,,,,,AMNE18.jpg,AMSA08.jpg,AMSA05.jpg,AMNE01.jpg,AMNE18.jpg,MN,1,num_8,16,num_8,0.48345640651,,,2017_Aug_31_1130,60.0045227741,FEMA4ImagesEEG,001,201458,
AFNE01.JPG,AFNE01.JPG,AFNE01.JPG,AFNE01.JPG,AFNE01.JPG,AFNE01.JPG,,,,,3,1,31,8,,,,,,,,,,,,,,,,,,,AMSA15.jpg,AMSA18.jpg,AMNE08.jpg,AMNE13.jpg,AMSA15.jpg,MS,2,num_8,32,num_6,0.316800056971,,,2017_Aug_31_1130,60.0045227741,FEMA4ImagesEEG,001,201458,
AFNE01.JPG,AFNE01.JPG,AFNE01.JPG,AFNE01.JPG,AFNE01.JPG,AFNE01.JPG,,,,,3,2,32,4,,,,,,,,,,,,,,,,,,,AMSA09.jpg,AMNE06.jpg,AMSA01.jpg,AMNE03.jpg,AMNE06.jpg,MN,1,num_6,16,num_6,0.333525349502,,,2017_Aug_31_1130,60.0045227741,FEMA4ImagesEEG,001,201458,
AFNE01.JPG,AFNE01.JPG,AFNE01.JPG,AFNE01.JPG,AFNE01.JPG,AFNE01.JPG,,,,,3,3,33,7,,,,,,,,,,,,,,,,,,,AMNE20.jpg,AMSA07.jpg,AMSA01.jpg,AMNE17.jpg,AMSA07.jpg,MS,2,num_6,32,num_4,0.266806680243,,,2017_Aug_31_1130,60.0045227741,FEMA4ImagesEEG,001,201458,
AFNE01.JPG,AFNE01.JPG,AFNE01.JPG,AFNE01.JPG,AFNE01.JPG,AFNE01.JPG,,,,,3,4,34,6,,,,,,,,,,,,,,,,,,,AMNE06.jpg,AMSA01.jpg,AMNE12.jpg,AMSA08.jpg,AMNE06.jpg,MN,1,num_8,32,num_2,0.683437290412,,,2017_Aug_31_1130,60.0045227741,FEMA4ImagesEEG,001,201458,
AFNE01.JPG,AFNE01.JPG,AFNE01.JPG,AFNE01.JPG,AFNE01.JPG,AFNE01.JPG,,,,,3,5,35,1,,,,,,,,,,,,,,,,,,,AMNE06.jpg,AMSA08.jpg,AMSA02.jpg,AMNE14.jpg,AMNE14.jpg,MN,1,num_4,16,num_4,0.466777941954,,,2017_Aug_31_1130,60.0045227741,FEMA4ImagesEEG,001,201458,
AFNE01.JPG,AFNE01.JPG,AFNE01.JPG,AFNE01.JPG,AFNE01.JPG,AFNE01.JPG,,,,,3,6,36,9,,,,,,,,,,,,,,,,,,,AMNE11.jpg,AMNE07.jpg,AMSA05.jpg,AMSA09.jpg,AMNE07.jpg,MN,1,num_6,32,num_8,0.316795887353,,,2017_Aug_31_1130,60.0045227741,FEMA4ImagesEEG,001,201458,
AFNE01.JPG,AFNE01.JPG,AFNE01.JPG,AFNE01.JPG,AFNE01.JPG,AFNE01.JPG,,,,,3,7,37,2,,,,,,,,,,,,,,,,,,,AMNE19.jpg,AMNE02.jpg,AMSA04.jpg,AMSA14.jpg,AMSA14.jpg,MS,2,num_4,32,num_6,0.316756115615,,,2017_Aug_31_1130,60.0045227741,FEMA4ImagesEEG,001,201458,
AFNE01.JPG,AFNE01.JPG,AFNE01.JPG,AFNE01.JPG,AFNE01.JPG,AFNE01.JPG,,,,,3,8,38,3,,,,,,,,,,,,,,,,,,,AMSA14.jpg,AMSA10.jpg,AMNE19.jpg,AMNE12.jpg,AMSA10.jpg,MS,2,num_6,32,num_8,0.266740928593,,,2017_Aug_31_1130,60.0045227741,FEMA4ImagesEEG,001,201458,
AFNE01.JPG,AFNE01.JPG,AFNE01.JPG,AFNE01.JPG,AFNE01.JPG,AFNE01.JPG,,,,,3,9,39,5,,,,,,,,,,,,,,,,,,,AMSA05.jpg,AMNE02.jpg,AMNE14.jpg,AMSA06.jpg,AMNE14.jpg,MN,1,num_2,16,num_2,0.833452381223,,,2017_Aug_31_1130,60.0045227741,FEMA4ImagesEEG,001,201458,
AFNE01.JPG,AFNE01.JPG,AFNE01.JPG,AFNE01.JPG,AFNE01.JPG,AFNE01.JPG,,,,,4,0,40,9,,,,,,,,,,,,,,,,,,,AMSA02.jpg,AMSA06.jpg,AMNE05.jpg,AMNE11.jpg,AMNE05.jpg,MN,1,num_2,32,num_6,0.366821017305,,,2017_Aug_31_1130,60.0045227741,FEMA4ImagesEEG,001,201458,
AFNE01.JPG,AFNE01.JPG,AFNE01.JPG,AFNE01.JPG,AFNE01.JPG,AFNE01.JPG,,,,,4,1,41,4,,,,,,,,,,,,,,,,,,,AMSA06.jpg,AMSA11.jpg,AMNE17.jpg,AMNE01.jpg,AMSA11.jpg,MS,2,num_6,32,num_4,0.383495953705,,,2017_Aug_31_1130,60.0045227741,FEMA4ImagesEEG,001,201458,
AFNE01.JPG,AFNE01.JPG,AFNE01.JPG,AFNE01.JPG,AFNE01.JPG,AFNE01.JPG,,,,,4,2,42,2,,,,,,,,,,,,,,,,,,,AMNE09.jpg,AMNE16.jpg,AMSA14.jpg,AMSA19.jpg,AMNE16.jpg,MN,1,num_6,32,num_8,0.350146080906,,,2017_Aug_31_1130,60.0045227741,FEMA4ImagesEEG,001,201458,
AFNE01.JPG,AFNE01.JPG,AFNE01.JPG,AFNE01.JPG,AFNE01.JPG,AFNE01.JPG,,,,,4,3,43,8,,,,,,,,,,,,,,,,,,,AMSA05.jpg,AMNE14.jpg,AMNE05.jpg,AMSA13.jpg,AMSA13.jpg,MS,2,num_4,16,num_4,0.683410989761,,,2017_Aug_31_1130,60.0045227741,FEMA4ImagesEEG,001,201458,
AFNE01.JPG,AFNE01.JPG,AFNE01.JPG,AFNE01.JPG,AFNE01.JPG,AFNE01.JPG,,,,,4,4,44,7,,,,,,,,,,,,,,,,,,,AMNE02.jpg,AMNE18.jpg,AMSA18.jpg,AMSA19.jpg,AMNE02.jpg,MN,1,num_8,32,num_6,0.533492120871,,,2017_Aug_31_1130,60.0045227741,FEMA4ImagesEEG,001,201458,
AFNE01.JPG,AFNE01.JPG,AFNE01.JPG,AFNE01.JPG,AFNE01.JPG,AFNE01.JPG,,,,,4,5,45,0,,,,,,,,,,,,,,,,,,,AMNE19.jpg,AMNE11.jpg,AMSA01.jpg,AMSA14.jpg,AMNE11.jpg,MN,1,num_6,32,num_4,0.316902693667,,,2017_Aug_31_1130,60.0045227741,FEMA4ImagesEEG,001,201458,
AFNE01.JPG,AFNE01.JPG,AFNE01.JPG,AFNE01.JPG,AFNE01.JPG,AFNE01.JPG,,,,,4,6,46,3,,,,,,,,,,,,,,,,,,,AMNE07.jpg,AMSA07.jpg,AMNE13.jpg,AMSA03.jpg,AMNE07.jpg,MN,1,num_8,32,num_2,0.400180512297,,,2017_Aug_31_1130,60.0045227741,FEMA4ImagesEEG,001,201458,
AFNE01.JPG,AFNE01.JPG,AFNE01.JPG,AFNE01.JPG,AFNE01.JPG,AFNE01.JPG,,,,,4,7,47,1,,,,,,,,,,,,,,,,,,,AMSA13.jpg,AMNE10.jpg,AMSA05.jpg,AMNE07.jpg,AMNE07.jpg,MN,1,num_4,32,num_6,0.266730344185,,,2017_Aug_31_1130,60.0045227741,FEMA4ImagesEEG,001,201458,
AFNE01.JPG,AFNE01.JPG,AFNE01.JPG,AFNE01.JPG,AFNE01.JPG,AFNE01.JPG,,,,,4,8,48,6,,,,,,,,,,,,,,,,,,,AMNE08.jpg,AMNE01.jpg,AMSA09.jpg,AMSA04.jpg,AMNE08.jpg,MN,1,num_8,16,num_8,0.250127253472,,,2017_Aug_31_1130,60.0045227741,FEMA4ImagesEEG,001,201458,
AFNE01.JPG,AFNE01.JPG,AFNE01.JPG,AFNE01.JPG,AFNE01.JPG,AFNE01.JPG,,,,,4,9,49,5,,,,,,,,,,,,,,,,,,,AMSA12.jpg,AMNE16.jpg,AMSA11.jpg,AMNE08.jpg,AMNE16.jpg,MN,1,num_6,32,num_2,0.366791829976,,,2017_Aug_31_1130,60.0045227741,FEMA4ImagesEEG,001,201458,
AFNE01.JPG,AFNE01.JPG,AFNE01.JPG,AFNE01.JPG,AFNE01.JPG,AFNE01.JPG,,,,,5,0,50,3,,,,,,,,,,,,,,,,,,,AMSA16.jpg,AMSA01.jpg,AMNE07.jpg,AMNE20.jpg,AMSA16.jpg,MS,2,num_8,32,num_4,0.216815227948,,,2017_Aug_31_1130,60.0045227741,FEMA4ImagesEEG,001,201458,
AFNE01.JPG,AFNE01.JPG,AFNE01.JPG,AFNE01.JPG,AFNE01.JPG,AFNE01.JPG,,,,,5,1,51,5,,,,,,,,,,,,,,,,,,,AMNE11.jpg,AMSA02.jpg,AMNE12.jpg,AMSA05.jpg,AMNE11.jpg,MN,1,num_8,32,num_6,0.300148534559,,,2017_Aug_31_1130,60.0045227741,FEMA4ImagesEEG,001,201458,
AFNE01.JPG,AFNE01.JPG,AFNE01.JPG,AFNE01.JPG,AFNE01.JPG,AFNE01.JPG,,,,,5,2,52,2,,,,,,,,,,,,,,,,,,,AMSA18.jpg,AMNE15.jpg,AMNE04.jpg,AMSA19.jpg,AMSA19.jpg,MS,2,num_4,16,num_4,0.63313311692,,,2017_Aug_31_1130,60.0045227741,FEMA4ImagesEEG,001,201458,
AFNE01.JPG,AFNE01.JPG,AFNE01.JPG,AFNE01.JPG,AFNE01.JPG,AFNE01.JPG,,,,,5,3,53,4,,,,,,,,,,,,,,,,,,,AMSA19.jpg,AMSA14.jpg,AMNE14.jpg,AMNE05.jpg,AMSA19.jpg,MS,2,num_8,32,num_2,0.716772729938,,,2017_Aug_31_1130,60.0045227741,FEMA4ImagesEEG,001,201458,
AFNE01.JPG,AFNE01.JPG,AFNE01.JPG,AFNE01.JPG,AFNE01.JPG,AFNE01.JPG,,,,,5,4,54,8,,,,,,,,,,,,,,,,,,,AMNE13.jpg,AMNE14.jpg,AMSA07.jpg,AMSA05.jpg,AMSA05.jpg,MS,2,num_4,32,num_8,0.38351231144,,,2017_Aug_31_1130,60.0045227741,FEMA4ImagesEEG,001,201458,
AFNE01.JPG,AFNE01.JPG,AFNE01.JPG,AFNE01.JPG,AFNE01.JPG,AFNE01.JPG,,,,,5,5,55,7,,,,,,,,,,,,,,,,,,,AMSA09.jpg,AMNE16.jpg,AMNE07.jpg,AMSA08.jpg,AMSA08.jpg,MS,2,num_4,16,num_4,0.233510050224,,,2017_Aug_31_1130,60.0045227741,FEMA4ImagesEEG,001,201458,
AFNE01.JPG,AFNE01.JPG,AFNE01.JPG,AFNE01.JPG,AFNE01.JPG,AFNE01.JPG,,,,,5,6,56,6,,,,,,,,,,,,,,,,,,,AMSA03.jpg,AMNE01.jpg,AMSA17.jpg,AMNE08.jpg,AMSA17.jpg,MS,2,num_2,32,num_6,0.283422921275,,,2017_Aug_31_1130,60.0045227741,FEMA4ImagesEEG,001,201458,
AFNE01.JPG,AFNE01.JPG,AFNE01.JPG,AFNE01.JPG,AFNE01.JPG,AFNE01.JPG,,,,,5,7,57,0,,,,,,,,,,,,,,,,,,,AMSA05.jpg,AMNE04.jpg,AMSA13.jpg,AMNE06.jpg,AMNE04.jpg,MN,1,num_6,32,num_2,0.266806038766,,,2017_Aug_31_1130,60.0045227741,FEMA4ImagesEEG,001,201458,
AFNE01.JPG,AFNE01.JPG,AFNE01.JPG,AFNE01.JPG,AFNE01.JPG,AFNE01.JPG,,,,,5,8,58,1,,,,,,,,,,,,,,,,,,,AMSA16.jpg,AMNE12.jpg,AMNE03.jpg,AMSA04.jpg,AMSA16.jpg,MS,2,num_8,32,num_6,0.616762562495,,,2017_Aug_31_1130,60.0045227741,FEMA4ImagesEEG,001,201458,
AFNE01.JPG,AFNE01.JPG,AFNE01.JPG,AFNE01.JPG,AFNE01.JPG,AFNE01.JPG,,,,,5,9,59,9,,,,,,,,,,,,,,,,,,,AMSA17.jpg,AMSA13.jpg,AMNE15.jpg,AMNE01.jpg,AMNE15.jpg,MN,1,num_2,16,num_2,0.483505479686,,,2017_Aug_31_1130,60.0045227741,FEMA4ImagesEEG,001,201458,
,,,,,,,,,,,,,,,,,,,,,,,,,,,,,,,,,,,,,,,,,,,space,7.032970117,2017_Aug_31_1130,60.0045227741,FEMA4ImagesEEG,001,201458,
AFNE01.JPG,AFNE01.JPG,AFNE01.JPG,AFNE01.JPG,AFNE01.JPG,AFNE01.JPG,,,,,,,,,0,0,0,1,,,,,,,,,,,,,,,AFSA18.jpg,AFSA02.jpg,AFNE18.jpg,AFNE03.jpg,AFNE18.jpg,FN,3,num_2,32,num_6,0.566789713106,,,2017_Aug_31_1130,60.0045227741,FEMA4ImagesEEG,001,201458,
AFNE01.JPG,AFNE01.JPG,AFNE01.JPG,AFNE01.JPG,AFNE01.JPG,AFNE01.JPG,,,,,,,,,0,1,1,2,,,,,,,,,,,,,,,AFSA15.jpg,AFNE19.jpg,AFNE15.jpg,AFSA05.jpg,AFNE19.jpg,FN,3,num_6,32,num_8,0.46678403602,,,2017_Aug_31_1130,60.0045227741,FEMA4ImagesEEG,001,201458,
AFNE01.JPG,AFNE01.JPG,AFNE01.JPG,AFNE01.JPG,AFNE01.JPG,AFNE01.JPG,,,,,,,,,0,2,2,8,,,,,,,,,,,,,,,AFSA02.jpg,AFSA12.jpg,AFNE04.jpg,AFNE12.jpg,AFNE04.jpg,FN,3,num_2,16,num_2,0.28341394056,,,2017_Aug_31_1130,60.0045227741,FEMA4ImagesEEG,001,201458,
AFNE01.JPG,AFNE01.JPG,AFNE01.JPG,AFNE01.JPG,AFNE01.JPG,AFNE01.JPG,,,,,,,,,0,3,3,5,,,,,,,,,,,,,,,AFNE01.jpg,AFSA15.jpg,AFNE03.jpg,AFSA09.jpg,AFSA09.jpg,FS,4,num_4,32,num_6,0.266762738902,,,2017_Aug_31_1130,60.0045227741,FEMA4ImagesEEG,001,201458,
AFNE01.JPG,AFNE01.JPG,AFNE01.JPG,AFNE01.JPG,AFNE01.JPG,AFNE01.JPG,,,,,,,,,0,4,4,4,,,,,,,,,,,,,,,AFSA19.jpg,AFSA16.jpg,AFNE04.jpg,AFNE18.jpg,AFSA16.jpg,FS,4,num_6,32,num_4,0.25015676154,,,2017_Aug_31_1130,60.0045227741,FEMA4ImagesEEG,001,201458,
AFNE01.JPG,AFNE01.JPG,AFNE01.JPG,AFNE01.JPG,AFNE01.JPG,AFNE01.JPG,,,,,,,,,0,5,5,6,,,,,,,,,,,,,,,AFNE13.jpg,AFSA05.jpg,AFSA06.jpg,AFNE15.jpg,AFNE15.jpg,FN,3,num_4,32,num_6,0.26678358698,,,2017_Aug_31_1130,60.0045227741,FEMA4ImagesEEG,001,201458,
AFNE01.JPG,AFNE01.JPG,AFNE01.JPG,AFNE01.JPG,AFNE01.JPG,AFNE01.JPG,,,,,,,,,0,6,6,3,,,,,,,,,,,,,,,AFNE08.jpg,AFNE13.jpg,AFSA17.jpg,AFSA07.jpg,AFNE08.jpg,FN,3,num_8,32,num_2,0.316789472548,,,2017_Aug_31_1130,60.0045227741,FEMA4ImagesEEG,001,201458,
AFNE01.JPG,AFNE01.JPG,AFNE01.JPG,AFNE01.JPG,AFNE01.JPG,AFNE01.JPG,,,,,,,,,0,7,7,7,,,,,,,,,,,,,,,AFNE01.jpg,AFSA07.jpg,AFSA20.jpg,AFNE12.jpg,AFSA07.jpg,FS,4,num_6,32,num_8,0.417006196367,,,2017_Aug_31_1130,60.0045227741,FEMA4ImagesEEG,001,201458,
AFNE01.JPG,AFNE01.JPG,AFNE01.JPG,AFNE01.JPG,AFNE01.JPG,AFNE01.JPG,,,,,,,,,0,8,8,9,,,,,,,,,,,,,,,AFSA08.jpg,AFNE02.jpg,AFNE19.jpg,AFSA12.jpg,AFNE02.jpg,FN,3,num_6,16,num_6,0.250162855591,,,2017_Aug_31_1130,60.0045227741,FEMA4ImagesEEG,001,201458,
AFNE01.JPG,AFNE01.JPG,AFNE01.JPG,AFNE01.JPG,AFNE01.JPG,AFNE01.JPG,,,,,,,,,0,9,9,0,,,,,,,,,,,,,,,AFSA05.jpg,AFNE04.jpg,AFNE01.jpg,AFSA15.jpg,AFSA15.jpg,FS,4,num_4,16,num_4,0.333499048837,,,2017_Aug_31_1130,60.0045227741,FEMA4ImagesEEG,001,201458,
AFNE01.JPG,AFNE01.JPG,AFNE01.JPG,AFNE01.JPG,AFNE01.JPG,AFNE01.JPG,,,,,,,,,1,0,10,0,,,,,,,,,,,,,,,AFSA10.jpg,AFNE08.jpg,AFNE20.jpg,AFSA17.jpg,AFSA10.jpg,FS,4,num_8,32,num_6,1.06676870467,,,2017_Aug_31_1130,60.0045227741,FEMA4ImagesEEG,001,201458,
AFNE01.JPG,AFNE01.JPG,AFNE01.JPG,AFNE01.JPG,AFNE01.JPG,AFNE01.JPG,,,,,,,,,1,1,11,5,,,,,,,,,,,,,,,AFNE01.jpg,AFSA10.jpg,AFNE02.jpg,AFSA18.jpg,AFNE01.jpg,FN,3,num_8,32,num_2,0.316852979013,,,2017_Aug_31_1130,60.0045227741,FEMA4ImagesEEG,001,201458,
AFNE01.JPG,AFNE01.JPG,AFNE01.JPG,AFNE01.JPG,AFNE01.JPG,AFNE01.JPG,,,,,,,,,1,2,12,2,,,,,,,,,,,,,,,AFNE12.jpg,AFSA16.jpg,AFNE14.jpg,AFSA14.jpg,AFSA16.jpg,FS,4,num_6,16,num_6,0.35013357205,,,2017_Aug_31_1130,60.0045227741,FEMA4ImagesEEG,001,201458,
AFNE01.JPG,AFNE01.JPG,AFNE01.JPG,AFNE01.JPG,AFNE01.JPG,AFNE01.JPG,,,,,,,,,1,3,13,6,,,,,,,,,,,,,,,AFSA17.jpg,AFNE18.jpg,AFNE19.jpg,AFSA18.jpg,AFSA18.jpg,FS,4,num_4,32,num_8,0.316689722502,,,2017_Aug_31_1130,60.0045227741,FEMA4ImagesEEG,001,201458,
AFNE01.JPG,AFNE01.JPG,AFNE01.JPG,AFNE01.JPG,AFNE01.JPG,AFNE01.JPG,,,,,,,,,1,4,14,4,,,,,,,,,,,,,,,AFNE17.jpg,AFSA05.jpg,AFNE10.jpg,AFSA08.jpg,AFNE10.jpg,FN,3,num_2,16,num_2,0.35019579556,,,2017_Aug_31_1130,60.0045227741,FEMA4ImagesEEG,001,201458,
AFNE01.JPG,AFNE01.JPG,AFNE01.JPG,AFNE01.JPG,AFNE01.JPG,AFNE01.JPG,,,,,,,,,1,5,15,7,,,,,,,,,,,,,,,AFNE20.jpg,AFSA05.jpg,AFNE14.jpg,AFSA17.jpg,AFSA17.jpg,FS,4,num_4,32,num_8,0.266796416559,,,2017_Aug_31_1130,60.0045227741,FEMA4ImagesEEG,001,201458,
AFNE01.JPG,AFNE01.JPG,AFNE01.JPG,AFNE01.JPG,AFNE01.JPG,AFNE01.JPG,,,,,,,,,1,6,16,9,,,,,,,,,,,,,,,AFNE12.jpg,AFSA04.jpg,AFSA10.jpg,AFNE05.jpg,AFSA04.jpg,FS,4,num_6,16,num_6,0.283476805547,,,2017_Aug_31_1130,60.0045227741,FEMA4ImagesEEG,001,201458,
AFNE01.JPG,AFNE01.JPG,AFNE01.JPG,AFNE01.JPG,AFNE01.JPG,AFNE01.JPG,,,,,,,,,1,7,17,1,,,,,,,,,,,,,,,AFSA18.jpg,AFNE02.jpg,AFNE07.jpg,AFSA05.jpg,AFSA18.jpg,FS,4,num_8,32,num_4,0.283477767764,,,2017_Aug_31_1130,60.0045227741,FEMA4ImagesEEG,001,201458,
AFNE01.JPG,AFNE01.JPG,AFNE01.JPG,AFNE01.JPG,AFNE01.JPG,AFNE01.JPG,,,,,,,,,1,8,18,3,,,,,,,,,,,,,,,AFNE12.jpg,AFSA03.jpg,AFSA07.jpg,AFNE15.jpg,AFNE12.jpg,FN,3,num_8,32,num_6,0.400010841011,,,2017_Aug_31_1130,60.0045227741,FEMA4ImagesEEG,001,201458,
AFNE01.JPG,AFNE01.JPG,AFNE01.JPG,AFNE01.JPG,AFNE01.JPG,AFNE01.JPG,,,,,,,,,1,9,19,8,,,,,,,,,,,,,,,AFSA19.jpg,AFNE12.jpg,AFSA20.jpg,AFNE07.jpg,AFNE07.jpg,FN,3,num_4,32,num_2,0.850143675343,,,2017_Aug_31_1130,60.0045227741,FEMA4ImagesEEG,001,201458,
AFNE01.JPG,AFNE01.JPG,AFNE01.JPG,AFNE01.JPG,AFNE01.JPG,AFNE01.JPG,,,,,,,,,2,0,20,1,,,,,,,,,,,,,,,AFSA07.jpg,AFNE19.jpg,AFSA17.jpg,AFNE03.jpg,AFNE19.jpg,FN,3,num_6,32,num_8,0.283461730782,,,2017_Aug_31_1130,60.0045227741,FEMA4ImagesEEG,001,201458,
AFNE01.JPG,AFNE01.JPG,AFNE01.JPG,AFNE01.JPG,AFNE01.JPG,AFNE01.JPG,,,,,,,,,2,1,21,9,,,,,,,,,,,,,,,AFNE19.jpg,AFSA13.jpg,AFNE11.jpg,AFSA03.jpg,AFNE19.jpg,FN,3,num_8,32,num_6,0.350148326077,,,2017_Aug_31_1130,60.0045227741,FEMA4ImagesEEG,001,201458,
AFNE01.JPG,AFNE01.JPG,AFNE01.JPG,AFNE01.JPG,AFNE01.JPG,AFNE01.JPG,,,,,,,,,2,2,22,7,,,,,,,,,,,,,,,AFNE08.jpg,AFSA02.jpg,AFSA15.jpg,AFNE03.jpg,AFSA15.jpg,FS,4,num_2,32,num_4,0.366836092071,,,2017_Aug_31_1130,60.0045227741,FEMA4ImagesEEG,001,201458,
AFNE01.JPG,AFNE01.JPG,AFNE01.JPG,AFNE01.JPG,AFNE01.JPG,AFNE01.JPG,,,,,,,,,2,3,23,2,,,,,,,,,,,,,,,AFNE03.jpg,AFSA18.jpg,AFSA10.jpg,AFNE19.jpg,AFSA18.jpg,FS,4,num_6,16,num_6,0.533465820205,,,2017_Aug_31_1130,60.0045227741,FEMA4ImagesEEG,001,201458,
AFNE01.JPG,AFNE01.JPG,AFNE01.JPG,AFNE01.JPG,AFNE01.JPG,AFNE01.JPG,,,,,,,,,2,4,24,0,,,,,,,,,,,,,,,AFNE05.jpg,AFSA18.jpg,AFNE16.jpg,AFSA19.jpg,AFNE16.jpg,FN,3,num_2,32,num_8,0.266773644049,,,2017_Aug_31_1130,60.0045227741,FEMA4ImagesEEG,001,201458,
AFNE01.JPG,AFNE01.JPG,AFNE01.JPG,AFNE01.JPG,AFNE01.JPG,AFNE01.JPG,,,,,,,,,2,5,25,3,,,,,,,,,,,,,,,AFNE07.jpg,AFNE12.jpg,AFSA11.jpg,AFSA15.jpg,AFNE12.jpg,FN,3,num_6,32,num_2,0.450017047318,,,2017_Aug_31_1130,60.0045227741,FEMA4ImagesEEG,001,201458,
AFNE01.JPG,AFNE01.JPG,AFNE01.JPG,AFNE01.JPG,AFNE01.JPG,AFNE01.JPG,,,,,,,,,2,6,26,6,,,,,,,,,,,,,,,AFNE20.jpg,AFNE06.jpg,AFSA01.jpg,AFSA07.jpg,AFSA01.jpg,FS,4,num_2,32,num_6,0.350152816434,,,2017_Aug_31_1130,60.0045227741,FEMA4ImagesEEG,001,201458,
AFNE01.JPG,AFNE01.JPG,AFNE01.JPG,AFNE01.JPG,AFNE01.JPG,AFNE01.JPG,,,,,,,,,2,7,27,5,,,,,,,,,,,,,,,AFNE05.jpg,AFNE18.jpg,AFSA12.jpg,AFSA08.jpg,AFNE05.jpg,FN,3,num_8,32,num_4,0.25014168676,,,2017_Aug_31_1130,60.0045227741,FEMA4ImagesEEG,001,201458,
AFNE01.JPG,AFNE01.JPG,AFNE01.JPG,AFNE01.JPG,AFNE01.JPG,AFNE01.JPG,,,,,,,,,2,8,28,4,,,,,,,,,,,,,,,AFSA20.jpg,AFSA09.jpg,AFNE05.jpg,AFNE01.jpg,AFNE05.jpg,FN,3,num_2,16,num_2,0.316785302944,,,2017_Aug_31_1130,60.0045227741,FEMA4ImagesEEG,001,201458,
AFNE01.JPG,AFNE01.JPG,AFNE01.JPG,AFNE01.JPG,AFNE01.JPG,AFNE01.JPG,,,,,,,,,2,9,29,8,,,,,,,,,,,,,,,AFNE15.jpg,AFSA19.jpg,AFSA17.jpg,AFNE13.jpg,AFNE15.jpg,FN,3,num_8,32,num_6,0.233521596849,,,2017_Aug_31_1130,60.0045227741,FEMA4ImagesEEG,001,201458,
AFNE01.JPG,AFNE01.JPG,AFNE01.JPG,AFNE01.JPG,AFNE01.JPG,AFNE01.JPG,,,,,,,,,3,0,30,1,,,,,,,,,,,,,,,AFSA15.jpg,AFNE04.jpg,AFNE13.jpg,AFSA08.jpg,AFNE04.jpg,FN,3,num_6,16,num_6,0.583443801428,,,2017_Aug_31_1130,60.0045227741,FEMA4ImagesEEG,001,201458,
AFNE01.JPG,AFNE01.JPG,AFNE01.JPG,AFNE01.JPG,AFNE01.JPG,AFNE01.JPG,,,,,,,,,3,1,31,3,,,,,,,,,,,,,,,AFSA01.jpg,AFSA17.jpg,AFNE19.jpg,AFNE12.jpg,AFSA17.jpg,FS,4,num_6,16,num_6,0.600122265969,,,2017_Aug_31_1130,60.0045227741,FEMA4ImagesEEG,001,201458,
AFNE01.JPG,AFNE01.JPG,AFNE01.JPG,AFNE01.JPG,AFNE01.JPG,AFNE01.JPG,,,,,,,,,3,2,32,6,,,,,,,,,,,,,,,AFNE12.jpg,AFSA07.jpg,AFNE02.jpg,AFSA02.jpg,AFNE02.jpg,FN,3,num_2,16,num_2,0.366824866171,,,2017_Aug_31_1130,60.0045227741,FEMA4ImagesEEG,001,201458,
AFNE01.JPG,AFNE01.JPG,AFNE01.JPG,AFNE01.JPG,AFNE01.JPG,AFNE01.JPG,,,,,,,,,3,3,33,4,,,,,,,,,,,,,,,AFNE11.jpg,AFSA14.jpg,AFNE19.jpg,AFSA10.jpg,AFNE19.jpg,FN,3,num_2,32,num_4,0.283502464721,,,2017_Aug_31_1130,60.0045227741,FEMA4ImagesEEG,001,201458,
AFNE01.JPG,AFNE01.JPG,AFNE01.JPG,AFNE01.JPG,AFNE01.JPG,AFNE01.JPG,,,,,,,,,3,4,34,0,,,,,,,,,,,,,,,AFSA17.jpg,AFNE13.jpg,AFNE01.jpg,AFSA15.jpg,AFSA15.jpg,FS,4,num_4,32,num_2,0.566743526593,,,2017_Aug_31_1130,60.0045227741,FEMA4ImagesEEG,001,201458,
AFNE01.JPG,AFNE01.JPG,AFNE01.JPG,AFNE01.JPG,AFNE01.JPG,AFNE01.JPG,,,,,,,,,3,5,35,5,,,,,,,,,,,,,,,AFNE07.jpg,AFSA07.jpg,AFSA16.jpg,AFNE03.jpg,AFNE07.jpg,FN,3,num_8,16,num_8,1.18343263969,,,2017_Aug_31_1130,60.0045227741,FEMA4ImagesEEG,001,201458,
AFNE01.JPG,AFNE01.JPG,AFNE01.JPG,AFNE01.JPG,AFNE01.JPG,AFNE01.JPG,,,,,,,,,3,6,36,8,,,,,,,,,,,,,,,AFNE02.jpg,AFNE06.jpg,AFSA13.jpg,AFSA07.jpg,AFNE02.jpg,FN,3,num_8,16,num_8,0.533479291276,,,2017_Aug_31_1130,60.0045227741,FEMA4ImagesEEG,001,201458,
AFNE01.JPG,AFNE01.JPG,AFNE01.JPG,AFNE01.JPG,AFNE01.JPG,AFNE01.JPG,,,,,,,,,3,7,37,7,,,,,,,,,,,,,,,AFSA19.jpg,AFSA15.jpg,AFNE20.jpg,AFNE02.jpg,AFSA19.jpg,FS,4,num_8,32,num_6,0.400173776783,,,2017_Aug_31_1130,60.0045227741,FEMA4ImagesEEG,001,201458,
AFNE01.JPG,AFNE01.JPG,AFNE01.JPG,AFNE01.JPG,AFNE01.JPG,AFNE01.JPG,,,,,,,,,3,8,38,9,,,,,,,,,,,,,,,AFNE14.jpg,AFSA20.jpg,AFNE15.jpg,AFSA03.jpg,AFSA03.jpg,FS,4,num_4,16,num_4,0.00020783932996,,,2017_Aug_31_1130,60.0045227741,FEMA4ImagesEEG,001,201458,
AFNE01.JPG,AFNE01.JPG,AFNE01.JPG,AFNE01.JPG,AFNE01.JPG,AFNE01.JPG,,,,,,,,,3,9,39,2,,,,,,,,,,,,,,,AFNE14.jpg,AFSA14.jpg,AFNE17.jpg,AFSA16.jpg,AFSA16.jpg,FS,4,num_4,32,num_2,0.433573684975,,,2017_Aug_31_1130,60.0045227741,FEMA4ImagesEEG,001,201458,
AFNE01.JPG,AFNE01.JPG,AFNE01.JPG,AFNE01.JPG,AFNE01.JPG,AFNE01.JPG,,,,,,,,,4,0,40,7,,,,,,,,,,,,,,,AFNE11.jpg,AFNE02.jpg,AFSA14.jpg,AFSA13.jpg,AFSA13.jpg,FS,4,num_4,16,num_4,0.516794091207,,,2017_Aug_31_1130,60.0045227741,FEMA4ImagesEEG,001,201458,
AFNE01.JPG,AFNE01.JPG,AFNE01.JPG,AFNE01.JPG,AFNE01.JPG,AFNE01.JPG,,,,,,,,,4,1,41,8,,,,,,,,,,,,,,,AFSA14.jpg,AFNE01.jpg,AFNE18.jpg,AFSA06.jpg,AFNE01.jpg,FN,3,num_6,32,num_8,0.466793658212,,,2017_Aug_31_1130,60.0045227741,FEMA4ImagesEEG,001,201458,
AFNE01.JPG,AFNE01.JPG,AFNE01.JPG,AFNE01.JPG,AFNE01.JPG,AFNE01.JPG,,,,,,,,,4,2,42,5,,,,,,,,,,,,,,,AFNE19.jpg,AFSA17.jpg,AFNE14.jpg,AFSA11.jpg,AFNE19.jpg,FN,3,num_8,32,num_6,0.266820472039,,,2017_Aug_31_1130,60.0045227741,FEMA4ImagesEEG,001,201458,
AFNE01.JPG,AFNE01.JPG,AFNE01.JPG,AFNE01.JPG,AFNE01.JPG,AFNE01.JPG,,,,,,,,,4,3,43,0,,,,,,,,,,,,,,,AFSA20.jpg,AFSA06.jpg,AFNE14.jpg,AFNE11.jpg,AFSA06.jpg,FS,4,num_6,32,num_2,0.283507596556,,,2017_Aug_31_1130,60.0045227741,FEMA4ImagesEEG,001,201458,
AFNE01.JPG,AFNE01.JPG,AFNE01.JPG,AFNE01.JPG,AFNE01.JPG,AFNE01.JPG,,,,,,,,,4,4,44,1,,,,,,,,,,,,,,,AFSA18.jpg,AFNE10.jpg,AFSA19.jpg,AFNE20.jpg,AFSA18.jpg,FS,4,num_8,32,num_6,0.350104063997,,,2017_Aug_31_1130,60.0045227741,FEMA4ImagesEEG,001,201458,
AFNE01.JPG,AFNE01.JPG,AFNE01.JPG,AFNE01.JPG,AFNE01.JPG,AFNE01.JPG,,,,,,,,,4,5,45,6,,,,,,,,,,,,,,,AFNE03.jpg,AFNE05.jpg,AFSA11.jpg,AFSA06.jpg,AFNE05.jpg,FN,3,num_6,16,num_6,0.300005805388,,,2017_Aug_31_1130,60.0045227741,FEMA4ImagesEEG,001,201458,
AFNE01.JPG,AFNE01.JPG,AFNE01.JPG,AFNE01.JPG,AFNE01.JPG,AFNE01.JPG,,,,,,,,,4,6,46,9,,,,,,,,,,,,,,,AFNE13.jpg,AFSA08.jpg,AFNE05.jpg,AFSA07.jpg,AFNE13.jpg,FN,3,num_8,32,num_4,0.26688622369,,,2017_Aug_31_1130,60.0045227741,FEMA4ImagesEEG,001,201458,
AFNE01.JPG,AFNE01.JPG,AFNE01.JPG,AFNE01.JPG,AFNE01.JPG,AFNE01.JPG,,,,,,,,,4,7,47,3,,,,,,,,,,,,,,,AFNE09.jpg,AFSA13.jpg,AFSA02.jpg,AFNE06.jpg,AFNE09.jpg,FN,3,num_8,32,num_6,0.316776642954,,,2017_Aug_31_1130,60.0045227741,FEMA4ImagesEEG,001,201458,
AFNE01.JPG,AFNE01.JPG,AFNE01.JPG,AFNE01.JPG,AFNE01.JPG,AFNE01.JPG,,,,,,,,,4,8,48,2,,,,,,,,,,,,,,,AFNE09.jpg,AFNE10.jpg,AFSA09.jpg,AFSA06.jpg,AFNE10.jpg,FN,3,num_6,32,num_2,0.333451579383,,,2017_Aug_31_1130,60.0045227741,FEMA4ImagesEEG,001,201458,
AFNE01.JPG,AFNE01.JPG,AFNE01.JPG,AFNE01.JPG,AFNE01.JPG,AFNE01.JPG,,,,,,,,,4,9,49,4,,,,,,,,,,,,,,,AFSA10.jpg,AFNE06.jpg,AFNE14.jpg,AFSA13.jpg,AFNE06.jpg,FN,3,num_6,16,num_6,0.383348092713,,,2017_Aug_31_1130,60.0045227741,FEMA4ImagesEEG,001,201458,
AFNE01.JPG,AFNE01.JPG,AFNE01.JPG,AFNE01.JPG,AFNE01.JPG,AFNE01.JPG,,,,,,,,,5,0,50,1,,,,,,,,,,,,,,,AFSA10.jpg,AFSA04.jpg,AFNE08.jpg,AFNE15.jpg,AFNE08.jpg,FN,3,num_2,32,num_8,0.283502143982,,,2017_Aug_31_1130,60.0045227741,FEMA4ImagesEEG,001,201458,
AFNE01.JPG,AFNE01.JPG,AFNE01.JPG,AFNE01.JPG,AFNE01.JPG,AFNE01.JPG,,,,,,,,,5,1,51,3,,,,,,,,,,,,,,,AFSA11.jpg,AFSA14.jpg,AFNE11.jpg,AFNE05.jpg,AFNE11.jpg,FN,3,num_2,16,num_2,0.400119571772,,,2017_Aug_31_1130,60.0045227741,FEMA4ImagesEEG,001,201458,
AFNE01.JPG,AFNE01.JPG,AFNE01.JPG,AFNE01.JPG,AFNE01.JPG,AFNE01.JPG,,,,,,,,,5,2,52,2,,,,,,,,,,,,,,,AFNE19.jpg,AFSA13.jpg,AFSA02.jpg,AFNE03.jpg,AFNE19.jpg,FN,3,num_8,16,num_8,0.283444090092,,,2017_Aug_31_1130,60.0045227741,FEMA4ImagesEEG,001,201458,
AFNE01.JPG,AFNE01.JPG,AFNE01.JPG,AFNE01.JPG,AFNE01.JPG,AFNE01.JPG,,,,,,,,,5,3,53,5,,,,,,,,,,,,,,,AFNE05.jpg,AFNE13.jpg,AFSA11.jpg,AFSA18.jpg,AFNE05.jpg,FN,3,num_8,32,num_6,0.250139762327,,,2017_Aug_31_1130,60.0045227741,FEMA4ImagesEEG,001,201458,
AFNE01.JPG,AFNE01.JPG,AFNE01.JPG,AFNE01.JPG,AFNE01.JPG,AFNE01.JPG,,,,,,,,,5,4,54,8,,,,,,,,,,,,,,,AFNE11.jpg,AFSA19.jpg,AFSA08.jpg,AFNE03.jpg,AFNE11.jpg,FN,3,num_8,32,num_4,0.266794812866,,,2017_Aug_31_1130,60.0045227741,FEMA4ImagesEEG,001,201458,
AFNE01.JPG,AFNE01.JPG,AFNE01.JPG,AFNE01.JPG,AFNE01.JPG,AFNE01.JPG,,,,,,,,,5,5,55,0,,,,,,,,,,,,,,,AFNE09.jpg,AFSA09.jpg,AFSA03.jpg,AFNE15.jpg,AFSA03.jpg,FS,4,num_2,32,num_8,0.833437306457,,,2017_Aug_31_1130,60.0045227741,FEMA4ImagesEEG,001,201458,
AFNE01.JPG,AFNE01.JPG,AFNE01.JPG,AFNE01.JPG,AFNE01.JPG,AFNE01.JPG,,,,,,,,,5,6,56,9,,,,,,,,,,,,,,,AFSA19.jpg,AFSA05.jpg,AFNE15.jpg,AFNE08.jpg,AFSA05.jpg,FS,4,num_6,16,num_6,0.633469252134,,,2017_Aug_31_1130,60.0045227741,FEMA4ImagesEEG,001,201458,
AFNE01.JPG,AFNE01.JPG,AFNE01.JPG,AFNE01.JPG,AFNE01.JPG,AFNE01.JPG,,,,,,,,,5,7,57,4,,,,,,,,,,,,,,,AFSA06.jpg,AFNE06.jpg,AFNE09.jpg,AFSA11.jpg,AFSA06.jpg,FS,4,num_8,16,num_8,0.316787548116,,,2017_Aug_31_1130,60.0045227741,FEMA4ImagesEEG,001,201458,
AFNE01.JPG,AFNE01.JPG,AFNE01.JPG,AFNE01.JPG,AFNE01.JPG,AFNE01.JPG,,,,,,,,,5,8,58,6,,,,,,,,,,,,,,,AFNE15.jpg,AFSA14.jpg,AFNE04.jpg,AFSA05.jpg,AFNE04.jpg,FN,3,num_2,32,num_6,0.233486315483,,,2017_Aug_31_1130,60.0045227741,FEMA4ImagesEEG,001,201458,
AFNE01.JPG,AFNE01.JPG,AFNE01.JPG,AFNE01.JPG,AFNE01.JPG,AFNE01.JPG,,,,,,,,,5,9,59,7,,,,,,,,,,,,,,,AFSA04.jpg,AFNE12.jpg,AFSA14.jpg,AFNE07.jpg,AFSA14.jpg,FS,4,num_2,32,num_4,0.416785527443,,,2017_Aug_31_1130,60.0045227741,FEMA4ImagesEEG,001,201458,
,,,,,,,,,,,,,,,,,,,,,,,,,,,,,,,,,,,,,,,,,,,space,5.49972592793,2017_Aug_31_1130,60.0045227741,FEMA4ImagesEEG,001,201458,
AFNE01.JPG,AFNE01.JPG,AFNE01.JPG,AFNE01.JPG,AFNE01.JPG,AFNE01.JPG,,,,,,,,,,,,,0,0,0,5,,,,,,,,,,,AMSA01.jpg,AMNE02.jpg,AMNE07.jpg,AMSA03.jpg,AMNE02.jpg,MN,1,num_6,32,num_8,0.76677797403,,,2017_Aug_31_1130,60.0045227741,FEMA4ImagesEEG,001,201458,
AFNE01.JPG,AFNE01.JPG,AFNE01.JPG,AFNE01.JPG,AFNE01.JPG,AFNE01.JPG,,,,,,,,,,,,,0,1,1,1,,,,,,,,,,,AMSA11.jpg,AMSA18.jpg,AMNE08.jpg,AMNE13.jpg,AMNE13.jpg,MN,1,num_4,16,num_4,0.300151100484,,,2017_Aug_31_1130,60.0045227741,FEMA4ImagesEEG,001,201458,
AFNE01.JPG,AFNE01.JPG,AFNE01.JPG,AFNE01.JPG,AFNE01.JPG,AFNE01.JPG,,,,,,,,,,,,,0,2,2,0,,,,,,,,,,,AMSA10.jpg,AMNE08.jpg,AMNE02.jpg,AMSA20.jpg,AMSA10.jpg,MS,2,num_8,16,num_8,0.300176118166,,,2017_Aug_31_1130,60.0045227741,FEMA4ImagesEEG,001,201458,
AFNE01.JPG,AFNE01.JPG,AFNE01.JPG,AFNE01.JPG,AFNE01.JPG,AFNE01.JPG,,,,,,,,,,,,,0,3,3,3,,,,,,,,,,,AMSA15.jpg,AMNE08.jpg,AMNE12.jpg,AMSA05.jpg,AMNE08.jpg,MN,1,num_6,16,num_6,0.400129514688,,,2017_Aug_31_1130,60.0045227741,FEMA4ImagesEEG,001,201458,
AFNE01.JPG,AFNE01.JPG,AFNE01.JPG,AFNE01.JPG,AFNE01.JPG,AFNE01.JPG,,,,,,,,,,,,,0,4,4,9,,,,,,,,,,,AMNE03.jpg,AMNE04.jpg,AMSA07.jpg,AMSA05.jpg,AMSA05.jpg,MS,2,num_4,32,num_2,0.316785623669,,,2017_Aug_31_1130,60.0045227741,FEMA4ImagesEEG,001,201458,
AFNE01.JPG,AFNE01.JPG,AFNE01.JPG,AFNE01.JPG,AFNE01.JPG,AFNE01.JPG,,,,,,,,,,,,,0,5,5,7,,,,,,,,,,,AMNE14.jpg,AMSA11.jpg,AMNE05.jpg,AMSA08.jpg,AMNE14.jpg,MN,1,num_8,16,num_8,0.333534009478,,,2017_Aug_31_1130,60.0045227741,FEMA4ImagesEEG,001,201458,
AFNE01.JPG,AFNE01.JPG,AFNE01.JPG,AFNE01.JPG,AFNE01.JPG,AFNE01.JPG,,,,,,,,,,,,,0,6,6,6,,,,,,,,,,,AMSA07.jpg,AMNE07.jpg,AMSA11.jpg,AMNE04.jpg,AMSA11.jpg,MS,2,num_2,32,num_6,0.316838545725,,,2017_Aug_31_1130,60.0045227741,FEMA4ImagesEEG,001,201458,
AFNE01.JPG,AFNE01.JPG,AFNE01.JPG,AFNE01.JPG,AFNE01.JPG,AFNE01.JPG,,,,,,,,,,,,,0,7,7,2,,,,,,,,,,,AMSA14.jpg,AMNE16.jpg,AMNE08.jpg,AMSA02.jpg,AMNE08.jpg,MN,1,num_2,32,num_4,0.300139553845,,,2017_Aug_31_1130,60.0045227741,FEMA4ImagesEEG,001,201458,
AFNE01.JPG,AFNE01.JPG,AFNE01.JPG,AFNE01.JPG,AFNE01.JPG,AFNE01.JPG,,,,,,,,,,,,,0,8,8,8,,,,,,,,,,,AMNE18.jpg,AMSA01.jpg,AMSA08.jpg,AMNE10.jpg,AMNE10.jpg,MN,1,num_4,32,num_8,0.350194833329,,,2017_Aug_31_1130,60.0045227741,FEMA4ImagesEEG,001,201458,
AFNE01.JPG,AFNE01.JPG,AFNE01.JPG,AFNE01.JPG,AFNE01.JPG,AFNE01.JPG,,,,,,,,,,,,,0,9,9,4,,,,,,,,,,,AMNE13.jpg,AMSA10.jpg,AMSA07.jpg,AMNE03.jpg,AMNE03.jpg,MN,1,num_4,32,num_2,0.533459726168,,,2017_Aug_31_1130,60.0045227741,FEMA4ImagesEEG,001,201458,
AFNE01.JPG,AFNE01.JPG,AFNE01.JPG,AFNE01.JPG,AFNE01.JPG,AFNE01.JPG,,,,,,,,,,,,,1,0,10,7,,,,,,,,,,,AMNE10.jpg,AMSA15.jpg,AMSA18.jpg,AMNE09.jpg,AMSA15.jpg,MS,2,num_6,16,num_6,0.466774734567,,,2017_Aug_31_1130,60.0045227741,FEMA4ImagesEEG,001,201458,
AFNE01.JPG,AFNE01.JPG,AFNE01.JPG,AFNE01.JPG,AFNE01.JPG,AFNE01.JPG,,,,,,,,,,,,,1,1,11,5,,,,,,,,,,,AMSA06.jpg,AMNE14.jpg,AMSA09.jpg,AMNE17.jpg,AMSA06.jpg,MS,2,num_8,32,num_4,0.416792583725,,,2017_Aug_31_1130,60.0045227741,FEMA4ImagesEEG,001,201458,
AFNE01.JPG,AFNE01.JPG,AFNE01.JPG,AFNE01.JPG,AFNE01.JPG,AFNE01.JPG,,,,,,,,,,,,,1,2,12,4,,,,,,,,,,,AMNE04.jpg,AMSA17.jpg,AMSA09.jpg,AMNE14.jpg,AMSA09.jpg,MS,2,num_2,16,num_2,0.466674663767,,,2017_Aug_31_1130,60.0045227741,FEMA4ImagesEEG,001,201458,
AFNE01.JPG,AFNE01.JPG,AFNE01.JPG,AFNE01.JPG,AFNE01.JPG,AFNE01.JPG,,,,,,,,,,,,,1,3,13,2,,,,,,,,,,,AMSA05.jpg,AMNE14.jpg,AMSA04.jpg,AMNE03.jpg,AMSA05.jpg,MS,2,num_8,32,num_6,0.333508671043,,,2017_Aug_31_1130,60.0045227741,FEMA4ImagesEEG,001,201458,
AFNE01.JPG,AFNE01.JPG,AFNE01.JPG,AFNE01.JPG,AFNE01.JPG,AFNE01.JPG,,,,,,,,,,,,,1,4,14,6,,,,,,,,,,,AMSA05.jpg,AMNE11.jpg,AMSA03.jpg,AMNE08.jpg,AMNE08.jpg,MN,1,num_4,32,num_8,0.566794203463,,,2017_Aug_31_1130,60.0045227741,FEMA4ImagesEEG,001,201458,
AFNE01.JPG,AFNE01.JPG,AFNE01.JPG,AFNE01.JPG,AFNE01.JPG,AFNE01.JPG,,,,,,,,,,,,,1,5,15,8,,,,,,,,,,,AMNE10.jpg,AMSA08.jpg,AMNE20.jpg,AMSA02.jpg,AMNE10.jpg,MN,1,num_8,32,num_4,0.283501823244,,,2017_Aug_31_1130,60.0045227741,FEMA4ImagesEEG,001,201458,
AFNE01.JPG,AFNE01.JPG,AFNE01.JPG,AFNE01.JPG,AFNE01.JPG,AFNE01.JPG,,,,,,,,,,,,,1,6,16,1,,,,,,,,,,,AMNE12.jpg,AMSA06.jpg,AMSA12.jpg,AMNE16.jpg,AMNE16.jpg,MN,1,num_4,32,num_2,0.333347338965,,,2017_Aug_31_1130,60.0045227741,FEMA4ImagesEEG,001,201458,
AFNE01.JPG,AFNE01.JPG,AFNE01.JPG,AFNE01.JPG,AFNE01.JPG,AFNE01.JPG,,,,,,,,,,,,,1,7,17,9,,,,,,,,,,,AMSA09.jpg,AMNE17.jpg,AMSA06.jpg,AMNE20.jpg,AMNE17.jpg,MN,1,num_6,16,num_6,0.283530369081,,,2017_Aug_31_1130,60.0045227741,FEMA4ImagesEEG,001,201458,
AFNE01.JPG,AFNE01.JPG,AFNE01.JPG,AFNE01.JPG,AFNE01.JPG,AFNE01.JPG,,,,,,,,,,,,,1,8,18,0,,,,,,,,,,,AMSA11.jpg,AMSA09.jpg,AMNE13.jpg,AMNE08.jpg,AMSA11.jpg,MS,2,num_8,16,num_8,0.333488143689,,,2017_Aug_31_1130,60.0045227741,FEMA4ImagesEEG,001,201458,
AFNE01.JPG,AFNE01.JPG,AFNE01.JPG,AFNE01.JPG,AFNE01.JPG,AFNE01.JPG,,,,,,,,,,,,,1,9,19,3,,,,,,,,,,,AMNE16.jpg,AMSA07.jpg,AMNE11.jpg,AMSA15.jpg,AMSA15.jpg,MS,2,num_4,32,num_2,0.266813415772,,,2017_Aug_31_1130,60.0045227741,FEMA4ImagesEEG,001,201458,
AFNE01.JPG,AFNE01.JPG,AFNE01.JPG,AFNE01.JPG,AFNE01.JPG,AFNE01.JPG,,,,,,,,,,,,,2,0,20,3,,,,,,,,,,,AMNE11.jpg,AMSA03.jpg,AMNE09.jpg,AMSA06.jpg,AMSA06.jpg,MS,2,num_4,32,num_6,0.300181570739,,,2017_Aug_31_1130,60.0045227741,FEMA4ImagesEEG,001,201458,
AFNE01.JPG,AFNE01.JPG,AFNE01.JPG,AFNE01.JPG,AFNE01.JPG,AFNE01.JPG,,,,,,,,,,,,,2,1,21,7,,,,,,,,,,,AMSA10.jpg,AMNE03.jpg,AMNE08.jpg,AMSA20.jpg,AMNE08.jpg,MN,1,num_2,16,num_2,0.33353240577,,,2017_Aug_31_1130,60.0045227741,FEMA4ImagesEEG,001,201458,
AFNE01.JPG,AFNE01.JPG,AFNE01.JPG,AFNE01.JPG,AFNE01.JPG,AFNE01.JPG,,,,,,,,,,,,,2,2,22,8,,,,,,,,,,,AMSA07.jpg,AMSA11.jpg,AMNE16.jpg,AMNE17.jpg,AMNE16.jpg,MN,1,num_2,32,num_4,0.216839283428,,,2017_Aug_31_1130,60.0045227741,FEMA4ImagesEEG,001,201458,
AFNE01.JPG,AFNE01.JPG,AFNE01.JPG,AFNE01.JPG,AFNE01.JPG,AFNE01.JPG,,,,,,,,,,,,,2,3,23,1,,,,,,,,,,,AMSA20.jpg,AMNE20.jpg,AMNE14.jpg,AMSA11.jpg,AMSA20.jpg,MS,2,num_8,32,num_2,0.300175476688,,,2017_Aug_31_1130,60.0045227741,FEMA4ImagesEEG,001,201458,
AFNE01.JPG,AFNE01.JPG,AFNE01.JPG,AFNE01.JPG,AFNE01.JPG,AFNE01.JPG,,,,,,,,,,,,,2,4,24,9,,,,,,,,,,,AMSA19.jpg,AMSA01.jpg,AMNE11.jpg,AMNE10.jpg,AMNE11.jpg,MN,1,num_2,32,num_6,0.283590347404,,,2017_Aug_31_1130,60.0045227741,FEMA4ImagesEEG,001,201458,
AFNE01.JPG,AFNE01.JPG,AFNE01.JPG,AFNE01.JPG,AFNE01.JPG,AFNE01.JPG,,,,,,,,,,,,,2,5,25,5,,,,,,,,,,,AMNE02.jpg,AMSA11.jpg,AMSA18.jpg,AMNE03.jpg,AMNE02.jpg,MN,1,num_8,16,num_8,0.266805718013,,,2017_Aug_31_1130,60.0045227741,FEMA4ImagesEEG,001,201458,
AFNE01.JPG,AFNE01.JPG,AFNE01.JPG,AFNE01.JPG,AFNE01.JPG,AFNE01.JPG,,,,,,,,,,,,,2,6,26,0,,,,,,,,,,,AMNE16.jpg,AMSA03.jpg,AMSA11.jpg,AMNE14.jpg,AMNE14.jpg,MN,1,num_4,32,num_2,0.466977442047,,,2017_Aug_31_1130,60.0045227741,FEMA4ImagesEEG,001,201458,
AFNE01.JPG,AFNE01.JPG,AFNE01.JPG,AFNE01.JPG,AFNE01.JPG,AFNE01.JPG,,,,,,,,,,,,,2,7,27,2,,,,,,,,,,,AMSA19.jpg,AMNE17.jpg,AMSA08.jpg,AMNE15.jpg,AMNE15.jpg,MN,1,num_4,16,num_4,0.350002710256,,,2017_Aug_31_1130,60.0045227741,FEMA4ImagesEEG,001,201458,
AFNE01.JPG,AFNE01.JPG,AFNE01.JPG,AFNE01.JPG,AFNE01.JPG,AFNE01.JPG,,,,,,,,,,,,,2,8,28,4,,,,,,,,,,,AMNE16.jpg,AMSA02.jpg,AMNE14.jpg,AMSA16.jpg,AMNE14.jpg,MN,1,num_2,16,num_2,0.283551217159,,,2017_Aug_31_1130,60.0045227741,FEMA4ImagesEEG,001,201458,
AFNE01.JPG,AFNE01.JPG,AFNE01.JPG,AFNE01.JPG,AFNE01.JPG,AFNE01.JPG,,,,,,,,,,,,,2,9,29,6,,,,,,,,,,,AMNE01.jpg,AMNE17.jpg,AMSA02.jpg,AMSA20.jpg,AMSA02.jpg,MS,2,num_2,32,num_6,0.266783907718,,,2017_Aug_31_1130,60.0045227741,FEMA4ImagesEEG,001,201458,
AFNE01.JPG,AFNE01.JPG,AFNE01.JPG,AFNE01.JPG,AFNE01.JPG,AFNE01.JPG,,,,,,,,,,,,,3,0,30,5,,,,,,,,,,,AMNE10.jpg,AMSA05.jpg,AMSA20.jpg,AMNE06.jpg,AMNE10.jpg,MN,1,num_8,16,num_8,0.283433184944,,,2017_Aug_31_1130,60.0045227741,FEMA4ImagesEEG,001,201458,
AFNE01.JPG,AFNE01.JPG,AFNE01.JPG,AFNE01.JPG,AFNE01.JPG,AFNE01.JPG,,,,,,,,,,,,,3,1,31,6,,,,,,,,,,,AMNE13.jpg,AMSA15.jpg,AMNE11.jpg,AMSA20.jpg,AMSA15.jpg,MS,2,num_6,16,num_6,0.366837375026,,,2017_Aug_31_1130,60.0045227741,FEMA4ImagesEEG,001,201458,
AFNE01.JPG,AFNE01.JPG,AFNE01.JPG,AFNE01.JPG,AFNE01.JPG,AFNE01.JPG,,,,,,,,,,,,,3,2,32,9,,,,,,,,,,,AMSA11.jpg,AMNE19.jpg,AMNE07.jpg,AMSA09.jpg,AMNE19.jpg,MN,1,num_6,32,num_4,0.250153233399,,,2017_Aug_31_1130,60.0045227741,FEMA4ImagesEEG,001,201458,
AFNE01.JPG,AFNE01.JPG,AFNE01.JPG,AFNE01.JPG,AFNE01.JPG,AFNE01.JPG,,,,,,,,,,,,,3,3,33,1,,,,,,,,,,,AMNE13.jpg,AMNE03.jpg,AMSA01.jpg,AMSA06.jpg,AMNE13.jpg,MN,1,num_8,32,num_2,0.300229040222,,,2017_Aug_31_1130,60.0045227741,FEMA4ImagesEEG,001,201458,
AFNE01.JPG,AFNE01.JPG,AFNE01.JPG,AFNE01.JPG,AFNE01.JPG,AFNE01.JPG,,,,,,,,,,,,,3,4,34,4,,,,,,,,,,,AMNE14.jpg,AMSA19.jpg,AMSA11.jpg,AMNE16.jpg,AMNE16.jpg,MN,1,num_4,32,num_6,0.183343474055,,,2017_Aug_31_1130,60.0045227741,FEMA4ImagesEEG,001,201458,
AFNE01.JPG,AFNE01.JPG,AFNE01.JPG,AFNE01.JPG,AFNE01.JPG,AFNE01.JPG,,,,,,,,,,,,,3,5,35,0,,,,,,,,,,,AMNE05.jpg,AMSA05.jpg,AMSA02.jpg,AMNE14.jpg,AMNE05.jpg,MN,1,num_8,32,num_4,0.250018201972,,,2017_Aug_31_1130,60.0045227741,FEMA4ImagesEEG,001,201458,
AFNE01.JPG,AFNE01.JPG,AFNE01.JPG,AFNE01.JPG,AFNE01.JPG,AFNE01.JPG,,,,,,,,,,,,,3,6,36,2,,,,,,,,,,,AMNE03.jpg,AMSA19.jpg,AMSA18.jpg,AMNE19.jpg,AMSA19.jpg,MS,2,num_6,32,num_8,0.466785318975,,,2017_Aug_31_1130,60.0045227741,FEMA4ImagesEEG,001,201458,
AFNE01.JPG,AFNE01.JPG,AFNE01.JPG,AFNE01.JPG,AFNE01.JPG,AFNE01.JPG,,,,,,,,,,,,,3,7,37,8,,,,,,,,,,,AMNE01.jpg,AMSA04.jpg,AMSA09.jpg,AMNE03.jpg,AMSA04.jpg,MS,2,num_6,32,num_4,0.2834748811,,,2017_Aug_31_1130,60.0045227741,FEMA4ImagesEEG,001,201458,
AFNE01.JPG,AFNE01.JPG,AFNE01.JPG,AFNE01.JPG,AFNE01.JPG,AFNE01.JPG,,,,,,,,,,,,,3,8,38,7,,,,,,,,,,,AMNE17.jpg,AMSA18.jpg,AMNE18.jpg,AMSA09.jpg,AMNE17.jpg,MN,1,num_8,32,num_2,0.483462500561,,,2017_Aug_31_1130,60.0045227741,FEMA4ImagesEEG,001,201458,
AFNE01.JPG,AFNE01.JPG,AFNE01.JPG,AFNE01.JPG,AFNE01.JPG,AFNE01.JPG,,,,,,,,,,,,,3,9,39,3,,,,,,,,,,,AMSA02.jpg,AMNE08.jpg,AMNE07.jpg,AMSA04.jpg,AMSA02.jpg,MS,2,num_8,32,num_6,0.966724218059,,,2017_Aug_31_1130,60.0045227741,FEMA4ImagesEEG,001,201458,
AFNE01.JPG,AFNE01.JPG,AFNE01.JPG,AFNE01.JPG,AFNE01.JPG,AFNE01.JPG,,,,,,,,,,,,,4,0,40,3,,,,,,,,,,,AMSA10.jpg,AMNE03.jpg,AMNE09.jpg,AMSA19.jpg,AMSA10.jpg,MS,2,num_8,16,num_8,0.316762209681,,,2017_Aug_31_1130,60.0045227741,FEMA4ImagesEEG,001,201458,
AFNE01.JPG,AFNE01.JPG,AFNE01.JPG,AFNE01.JPG,AFNE01.JPG,AFNE01.JPG,,,,,,,,,,,,,4,1,41,8,,,,,,,,,,,AMNE04.jpg,AMSA13.jpg,AMSA07.jpg,AMNE13.jpg,AMNE13.jpg,MN,1,num_4,32,num_6,0.383469011576,,,2017_Aug_31_1130,60.0045227741,FEMA4ImagesEEG,001,201458,
AFNE01.JPG,AFNE01.JPG,AFNE01.JPG,AFNE01.JPG,AFNE01.JPG,AFNE01.JPG,,,,,,,,,,,,,4,2,42,2,,,,,,,,,,,AMSA15.jpg,AMSA01.jpg,AMNE04.jpg,AMNE05.jpg,AMSA01.jpg,MS,2,num_6,32,num_4,0.250131102352,,,2017_Aug_31_1130,60.0045227741,FEMA4ImagesEEG,001,201458,
AFNE01.JPG,AFNE01.JPG,AFNE01.JPG,AFNE01.JPG,AFNE01.JPG,AFNE01.JPG,,,,,,,,,,,,,4,3,43,9,,,,,,,,,,,AMNE09.jpg,AMSA06.jpg,AMNE08.jpg,AMSA19.jpg,AMSA06.jpg,MS,2,num_6,32,num_2,0.43347361419,,,2017_Aug_31_1130,60.0045227741,FEMA4ImagesEEG,001,201458,
AFNE01.JPG,AFNE01.JPG,AFNE01.JPG,AFNE01.JPG,AFNE01.JPG,AFNE01.JPG,,,,,,,,,,,,,4,4,44,6,,,,,,,,,,,AMNE11.jpg,AMNE05.jpg,AMSA09.jpg,AMSA02.jpg,AMSA02.jpg,MS,2,num_4,32,num_6,0.266824962397,,,2017_Aug_31_1130,60.0045227741,FEMA4ImagesEEG,001,201458,
AFNE01.JPG,AFNE01.JPG,AFNE01.JPG,AFNE01.JPG,AFNE01.JPG,AFNE01.JPG,,,,,,,,,,,,,4,5,45,7,,,,,,,,,,,AMSA17.jpg,AMNE01.jpg,AMSA11.jpg,AMNE17.jpg,AMSA11.jpg,MS,2,num_2,16,num_2,0.383527706945,,,2017_Aug_31_1130,60.0045227741,FEMA4ImagesEEG,001,201458,
AFNE01.JPG,AFNE01.JPG,AFNE01.JPG,AFNE01.JPG,AFNE01.JPG,AFNE01.JPG,,,,,,,,,,,,,4,6,46,4,,,,,,,,,,,AMNE06.jpg,AMSA18.jpg,AMSA09.jpg,AMNE08.jpg,AMSA18.jpg,MS,2,num_6,16,num_6,0.30017130707,,,2017_Aug_31_1130,60.0045227741,FEMA4ImagesEEG,001,201458,
AFNE01.JPG,AFNE01.JPG,AFNE01.JPG,AFNE01.JPG,AFNE01.JPG,AFNE01.JPG,,,,,,,,,,,,,4,7,47,5,,,,,,,,,,,AMSA17.jpg,AMSA19.jpg,AMNE04.jpg,AMNE11.jpg,AMNE04.jpg,MN,1,num_2,16,num_2,0.566801259745,,,2017_Aug_31_1130,60.0045227741,FEMA4ImagesEEG,001,201458,
AFNE01.JPG,AFNE01.JPG,AFNE01.JPG,AFNE01.JPG,AFNE01.JPG,AFNE01.JPG,,,,,,,,,,,,,4,8,48,1,,,,,,,,,,,AMNE20.jpg,AMNE06.jpg,AMSA03.jpg,AMSA12.jpg,AMSA12.jpg,MS,2,num_4,32,num_8,0.533446896574,,,2017_Aug_31_1130,60.0045227741,FEMA4ImagesEEG,001,201458,
AFNE01.JPG,AFNE01.JPG,AFNE01.JPG,AFNE01.JPG,AFNE01.JPG,AFNE01.JPG,,,,,,,,,,,,,4,9,49,0,,,,,,,,,,,AMSA02.jpg,AMSA06.jpg,AMNE05.jpg,AMNE17.jpg,AMSA02.jpg,MS,2,num_8,32,num_6,0.166818323079,,,2017_Aug_31_1130,60.0045227741,FEMA4ImagesEEG,001,201458,
AFNE01.JPG,AFNE01.JPG,AFNE01.JPG,AFNE01.JPG,AFNE01.JPG,AFNE01.JPG,,,,,,,,,,,,,5,0,50,8,,,,,,,,,,,AMNE03.jpg,AMNE19.jpg,AMSA10.jpg,AMSA14.jpg,AMSA14.jpg,MS,2,num_4,16,num_4,0.516756564655,,,2017_Aug_31_1130,60.0045227741,FEMA4ImagesEEG,001,201458,
AFNE01.JPG,AFNE01.JPG,AFNE01.JPG,AFNE01.JPG,AFNE01.JPG,AFNE01.JPG,,,,,,,,,,,,,5,1,51,4,,,,,,,,,,,AMNE07.jpg,AMNE03.jpg,AMSA05.jpg,AMSA14.jpg,AMNE03.jpg,MN,1,num_6,32,num_8,0.81677712407,,,2017_Aug_31_1130,60.0045227741,FEMA4ImagesEEG,001,201458,
AFNE01.JPG,AFNE01.JPG,AFNE01.JPG,AFNE01.JPG,AFNE01.JPG,AFNE01.JPG,,,,,,,,,,,,,5,2,52,5,,,,,,,,,,,AMSA13.jpg,AMNE11.jpg,AMNE18.jpg,AMSA11.jpg,AMSA13.jpg,MS,2,num_8,16,num_8,0.616768656546,,,2017_Aug_31_1130,60.0045227741,FEMA4ImagesEEG,001,201458,
AFNE01.JPG,AFNE01.JPG,AFNE01.JPG,AFNE01.JPG,AFNE01.JPG,AFNE01.JPG,,,,,,,,,,,,,5,3,53,3,,,,,,,,,,,AMNE17.jpg,AMSA20.jpg,AMNE10.jpg,AMSA13.jpg,AMNE17.jpg,MN,1,num_8,32,num_6,0.333508991782,,,2017_Aug_31_1130,60.0045227741,FEMA4ImagesEEG,001,201458,
AFNE01.JPG,AFNE01.JPG,AFNE01.JPG,AFNE01.JPG,AFNE01.JPG,AFNE01.JPG,,,,,,,,,,,,,5,4,54,1,,,,,,,,,,,AMSA18.jpg,AMSA15.jpg,AMNE14.jpg,AMNE01.jpg,AMNE01.jpg,MN,1,num_4,16,num_4,0.583494799052,,,2017_Aug_31_1130,60.0045227741,FEMA4ImagesEEG,001,201458,
AFNE01.JPG,AFNE01.JPG,AFNE01.JPG,AFNE01.JPG,AFNE01.JPG,AFNE01.JPG,,,,,,,,,,,,,5,5,55,6,,,,,,,,,,,AMNE14.jpg,AMSA09.jpg,AMNE09.jpg,AMSA19.jpg,AMSA09.jpg,MS,2,num_6,32,num_2,0.583481648719,,,2017_Aug_31_1130,60.0045227741,FEMA4ImagesEEG,001,201458,
AFNE01.JPG,AFNE01.JPG,AFNE01.JPG,AFNE01.JPG,AFNE01.JPG,AFNE01.JPG,,,,,,,,,,,,,5,6,56,0,,,,,,,,,,,AMNE08.jpg,AMSA04.jpg,AMSA09.jpg,AMNE05.jpg,AMNE08.jpg,MN,1,num_8,16,num_8,0.500141927318,,,2017_Aug_31_1130,60.0045227741,FEMA4ImagesEEG,001,201458,
AFNE01.JPG,AFNE01.JPG,AFNE01.JPG,AFNE01.JPG,AFNE01.JPG,AFNE01.JPG,,,,,,,,,,,,,5,7,57,9,,,,,,,,,,,AMNE05.jpg,AMNE12.jpg,AMSA05.jpg,AMSA12.jpg,AMSA12.jpg,MS,2,num_4,32,num_2,0.63347791211,,,2017_Aug_31_1130,60.0045227741,FEMA4ImagesEEG,001,201458,
AFNE01.JPG,AFNE01.JPG,AFNE01.JPG,AFNE01.JPG,AFNE01.JPG,AFNE01.JPG,,,,,,,,,,,,,5,8,58,7,,,,,,,,,,,AMSA16.jpg,AMNE16.jpg,AMNE06.jpg,AMSA04.jpg,AMSA04.jpg,MS,2,num_4,32,num_6,0.350210870311,,,2017_Aug_31_1130,60.0045227741,FEMA4ImagesEEG,001,201458,
AFNE01.JPG,AFNE01.JPG,AFNE01.JPG,AFNE01.JPG,AFNE01.JPG,AFNE01.JPG,,,,,,,,,,,,,5,9,59,2,,,,,,,,,,,AMSA17.jpg,AMNE02.jpg,AMNE10.jpg,AMSA01.jpg,AMNE02.jpg,MN,1,num_6,32,num_4,0.250172157044,,,2017_Aug_31_1130,60.0045227741,FEMA4ImagesEEG,001,201458,
,,,,,,,,,,,,,,,,,,,,,,,,,,,,,,,,,,,,,,,,,,,space,8.11644519055,2017_Aug_31_1130,60.0045227741,FEMA4ImagesEEG,001,201458,
AFNE01.JPG,AFNE01.JPG,AFNE01.JPG,AFNE01.JPG,AFNE01.JPG,AFNE01.JPG,,,,,,,,,,,,,,,,,0,0,0,0,,,,,,,AFNE12.jpg,AFSA08.jpg,AFSA04.jpg,AFNE04.jpg,AFSA04.jpg,FS,4,num_2,32,num_6,0.250161572636,,,2017_Aug_31_1130,60.0045227741,FEMA4ImagesEEG,001,201458,
AFNE01.JPG,AFNE01.JPG,AFNE01.JPG,AFNE01.JPG,AFNE01.JPG,AFNE01.JPG,,,,,,,,,,,,,,,,,0,1,1,3,,,,,,,AFSA16.jpg,AFNE08.jpg,AFNE11.jpg,AFSA09.jpg,AFSA09.jpg,FS,4,num_4,16,num_4,0.450096270026,,,2017_Aug_31_1130,60.0045227741,FEMA4ImagesEEG,001,201458,
AFNE01.JPG,AFNE01.JPG,AFNE01.JPG,AFNE01.JPG,AFNE01.JPG,AFNE01.JPG,,,,,,,,,,,,,,,,,0,2,2,8,,,,,,,AFSA06.jpg,AFNE19.jpg,AFNE15.jpg,AFSA13.jpg,AFNE15.jpg,FN,3,num_2,16,num_2,1.00011546629,,,2017_Aug_31_1130,60.0045227741,FEMA4ImagesEEG,001,201458,
AFNE01.JPG,AFNE01.JPG,AFNE01.JPG,AFNE01.JPG,AFNE01.JPG,AFNE01.JPG,,,,,,,,,,,,,,,,,0,3,3,9,,,,,,,AFSA08.jpg,AFNE04.jpg,AFSA06.jpg,AFNE17.jpg,AFNE17.jpg,FN,3,num_4,32,num_6,0.283319643087,,,2017_Aug_31_1130,60.0045227741,FEMA4ImagesEEG,001,201458,
AFNE01.JPG,AFNE01.JPG,AFNE01.JPG,AFNE01.JPG,AFNE01.JPG,AFNE01.JPG,,,,,,,,,,,,,,,,,0,4,4,5,,,,,,,AFSA18.jpg,AFNE07.jpg,AFSA08.jpg,AFNE10.jpg,AFSA18.jpg,FS,4,num_8,16,num_8,0.366876505272,,,2017_Aug_31_1130,60.0045227741,FEMA4ImagesEEG,001,201458,
AFNE01.JPG,AFNE01.JPG,AFNE01.JPG,AFNE01.JPG,AFNE01.JPG,AFNE01.JPG,,,,,,,,,,,,,,,,,0,5,5,2,,,,,,,AFSA08.jpg,AFNE20.jpg,AFNE01.jpg,AFSA14.jpg,AFSA14.jpg,FS,4,num_4,32,num_2,0.350109195831,,,2017_Aug_31_1130,60.0045227741,FEMA4ImagesEEG,001,201458,
AFNE01.JPG,AFNE01.JPG,AFNE01.JPG,AFNE01.JPG,AFNE01.JPG,AFNE01.JPG,,,,,,,,,,,,,,,,,0,6,6,7,,,,,,,AFSA15.jpg,AFNE06.jpg,AFNE05.jpg,AFSA09.jpg,AFSA15.jpg,FS,4,num_8,32,num_4,0.433470727527,,,2017_Aug_31_1130,60.0045227741,FEMA4ImagesEEG,001,201458,
AFNE01.JPG,AFNE01.JPG,AFNE01.JPG,AFNE01.JPG,AFNE01.JPG,AFNE01.JPG,,,,,,,,,,,,,,,,,0,7,7,1,,,,,,,AFNE06.jpg,AFSA13.jpg,AFSA08.jpg,AFNE08.jpg,AFNE06.jpg,FN,3,num_8,16,num_8,0.366808508465,,,2017_Aug_31_1130,60.0045227741,FEMA4ImagesEEG,001,201458,
AFNE01.JPG,AFNE01.JPG,AFNE01.JPG,AFNE01.JPG,AFNE01.JPG,AFNE01.JPG,,,,,,,,,,,,,,,,,0,8,8,6,,,,,,,AFSA09.jpg,AFNE18.jpg,AFNE17.jpg,AFSA06.jpg,AFSA06.jpg,FS,4,num_4,32,num_2,0.400162230129,,,2017_Aug_31_1130,60.0045227741,FEMA4ImagesEEG,001,201458,
AFNE01.JPG,AFNE01.JPG,AFNE01.JPG,AFNE01.JPG,AFNE01.JPG,AFNE01.JPG,,,,,,,,,,,,,,,,,0,9,9,4,,,,,,,AFSA09.jpg,AFNE20.jpg,AFSA07.jpg,AFNE09.jpg,AFSA09.jpg,FS,4,num_8,32,num_6,0.333573139724,,,2017_Aug_31_1130,60.0045227741,FEMA4ImagesEEG,001,201458,
AFNE01.JPG,AFNE01.JPG,AFNE01.JPG,AFNE01.JPG,AFNE01.JPG,AFNE01.JPG,,,,,,,,,,,,,,,,,1,0,10,3,,,,,,,AFSA07.jpg,AFNE14.jpg,AFSA20.jpg,AFNE12.jpg,AFSA20.jpg,FS,4,num_2,32,num_4,0.400129193949,,,2017_Aug_31_1130,60.0045227741,FEMA4ImagesEEG,001,201458,
AFNE01.JPG,AFNE01.JPG,AFNE01.JPG,AFNE01.JPG,AFNE01.JPG,AFNE01.JPG,,,,,,,,,,,,,,,,,1,1,11,5,,,,,,,AFSA12.jpg,AFNE18.jpg,AFNE11.jpg,AFSA05.jpg,AFSA05.jpg,FS,4,num_4,32,num_8,0.300153666394,,,2017_Aug_31_1130,60.0045227741,FEMA4ImagesEEG,001,201458,
AFNE01.JPG,AFNE01.JPG,AFNE01.JPG,AFNE01.JPG,AFNE01.JPG,AFNE01.JPG,,,,,,,,,,,,,,,,,1,2,12,1,,,,,,,AFSA10.jpg,AFNE12.jpg,AFSA02.jpg,AFNE03.jpg,AFNE12.jpg,FN,3,num_6,32,num_2,0.766768672591,,,2017_Aug_31_1130,60.0045227741,FEMA4ImagesEEG,001,201458,
AFNE01.JPG,AFNE01.JPG,AFNE01.JPG,AFNE01.JPG,AFNE01.JPG,AFNE01.JPG,,,,,,,,,,,,,,,,,1,3,13,9,,,,,,,AFNE09.jpg,AFSA14.jpg,AFNE01.jpg,AFSA03.jpg,AFNE01.jpg,FN,3,num_2,32,num_6,0.266864092642,,,2017_Aug_31_1130,60.0045227741,FEMA4ImagesEEG,001,201458,
AFNE01.JPG,AFNE01.JPG,AFNE01.JPG,AFNE01.JPG,AFNE01.JPG,AFNE01.JPG,,,,,,,,,,,,,,,,,1,4,14,6,,,,,,,AFSA07.jpg,AFNE16.jpg,AFNE20.jpg,AFSA01.jpg,AFSA07.jpg,FS,4,num_8,32,num_2,0.366820375828,,,2017_Aug_31_1130,60.0045227741,FEMA4ImagesEEG,001,201458,
AFNE01.JPG,AFNE01.JPG,AFNE01.JPG,AFNE01.JPG,AFNE01.JPG,AFNE01.JPG,,,,,,,,,,,,,,,,,1,5,15,8,,,,,,,AFNE01.jpg,AFSA19.jpg,AFSA09.jpg,AFNE02.jpg,AFNE02.jpg,FN,3,num_4,32,num_6,0.283464617431,,,2017_Aug_31_1130,60.0045227741,FEMA4ImagesEEG,001,201458,
AFNE01.JPG,AFNE01.JPG,AFNE01.JPG,AFNE01.JPG,AFNE01.JPG,AFNE01.JPG,,,,,,,,,,,,,,,,,1,6,16,7,,,,,,,AFNE14.jpg,AFNE07.jpg,AFSA08.jpg,AFSA10.jpg,AFNE14.jpg,FN,3,num_8,32,num_4,0.950124014009,,,2017_Aug_31_1130,60.0045227741,FEMA4ImagesEEG,001,201458,
AFNE01.JPG,AFNE01.JPG,AFNE01.JPG,AFNE01.JPG,AFNE01.JPG,AFNE01.JPG,,,,,,,,,,,,,,,,,1,7,17,2,,,,,,,AFNE10.jpg,AFSA13.jpg,AFNE07.jpg,AFSA05.jpg,AFSA05.jpg,FS,4,num_4,32,num_2,0.300148855284,,,2017_Aug_31_1130,60.0045227741,FEMA4ImagesEEG,001,201458,
AFNE01.JPG,AFNE01.JPG,AFNE01.JPG,AFNE01.JPG,AFNE01.JPG,AFNE01.JPG,,,,,,,,,,,,,,,,,1,8,18,0,,,,,,,AFSA10.jpg,AFNE05.jpg,AFNE10.jpg,AFSA05.jpg,AFNE10.jpg,FN,3,num_2,32,num_6,0.300148855298,,,2017_Aug_31_1130,60.0045227741,FEMA4ImagesEEG,001,201458,
AFNE01.JPG,AFNE01.JPG,AFNE01.JPG,AFNE01.JPG,AFNE01.JPG,AFNE01.JPG,,,,,,,,,,,,,,,,,1,9,19,4,,,,,,,AFNE09.jpg,AFSA08.jpg,AFSA19.jpg,AFNE04.jpg,AFNE04.jpg,FN,3,num_4,16,num_4,0.233522559065,,,2017_Aug_31_1130,60.0045227741,FEMA4ImagesEEG,001,201458,
AFNE01.JPG,AFNE01.JPG,AFNE01.JPG,AFNE01.JPG,AFNE01.JPG,AFNE01.JPG,,,,,,,,,,,,,,,,,2,0,20,4,,,,,,,AFNE19.jpg,AFSA08.jpg,AFNE08.jpg,AFSA12.jpg,AFSA08.jpg,FS,4,num_6,32,num_2,0.333463767485,,,2017_Aug_31_1130,60.0045227741,FEMA4ImagesEEG,001,201458,
AFNE01.JPG,AFNE01.JPG,AFNE01.JPG,AFNE01.JPG,AFNE01.JPG,AFNE01.JPG,,,,,,,,,,,,,,,,,2,1,21,9,,,,,,,AFSA01.jpg,AFNE18.jpg,AFNE08.jpg,AFSA10.jpg,AFSA10.jpg,FS,4,num_4,32,num_8,0.283526840954,,,2017_Aug_31_1130,60.0045227741,FEMA4ImagesEEG,001,201458,
AFNE01.JPG,AFNE01.JPG,AFNE01.JPG,AFNE01.JPG,AFNE01.JPG,AFNE01.JPG,,,,,,,,,,,,,,,,,2,2,22,8,,,,,,,AFSA20.jpg,AFNE06.jpg,AFSA10.jpg,AFNE11.jpg,AFSA20.jpg,FS,4,num_8,32,num_6,0.350239095409,,,2017_Aug_31_1130,60.0045227741,FEMA4ImagesEEG,001,201458,
AFNE01.JPG,AFNE01.JPG,AFNE01.JPG,AFNE01.JPG,AFNE01.JPG,AFNE01.JPG,,,,,,,,,,,,,,,,,2,3,23,1,,,,,,,AFSA11.jpg,AFNE04.jpg,AFNE09.jpg,AFSA16.jpg,AFNE04.jpg,FN,3,num_6,32,num_4,0.33375531988,,,2017_Aug_31_1130,60.0045227741,FEMA4ImagesEEG,001,201458,
AFNE01.JPG,AFNE01.JPG,AFNE01.JPG,AFNE01.JPG,AFNE01.JPG,AFNE01.JPG,,,,,,,,,,,,,,,,,2,4,24,0,,,,,,,AFNE14.jpg,AFSA07.jpg,AFSA03.jpg,AFNE07.jpg,AFSA07.jpg,FS,4,num_6,32,num_2,0.333460239344,,,2017_Aug_31_1130,60.0045227741,FEMA4ImagesEEG,001,201458,
AFNE01.JPG,AFNE01.JPG,AFNE01.JPG,AFNE01.JPG,AFNE01.JPG,AFNE01.JPG,,,,,,,,,,,,,,,,,2,5,25,7,,,,,,,AFNE03.jpg,AFNE11.jpg,AFSA02.jpg,AFSA11.jpg,AFNE11.jpg,FN,3,num_6,16,num_6,0.266817264637,,,2017_Aug_31_1130,60.0045227741,FEMA4ImagesEEG,001,201458,
AFNE01.JPG,AFNE01.JPG,AFNE01.JPG,AFNE01.JPG,AFNE01.JPG,AFNE01.JPG,,,,,,,,,,,,,,,,,2,6,26,2,,,,,,,AFNE07.jpg,AFNE03.jpg,AFSA02.jpg,AFSA12.jpg,AFSA12.jpg,FS,4,num_4,32,num_2,0.316795887338,,,2017_Aug_31_1130,60.0045227741,FEMA4ImagesEEG,001,201458,
AFNE01.JPG,AFNE01.JPG,AFNE01.JPG,AFNE01.JPG,AFNE01.JPG,AFNE01.JPG,,,,,,,,,,,,,,,,,2,7,27,6,,,,,,,AFNE12.jpg,AFSA07.jpg,AFSA17.jpg,AFNE13.jpg,AFSA07.jpg,FS,4,num_6,32,num_4,0.35000046507,,,2017_Aug_31_1130,60.0045227741,FEMA4ImagesEEG,001,201458,
AFNE01.JPG,AFNE01.JPG,AFNE01.JPG,AFNE01.JPG,AFNE01.JPG,AFNE01.JPG,,,,,,,,,,,,,,,,,2,8,28,5,,,,,,,AFSA17.jpg,AFNE14.jpg,AFNE09.jpg,AFSA20.jpg,AFSA17.jpg,FS,4,num_8,32,num_2,0.250181458483,,,2017_Aug_31_1130,60.0045227741,FEMA4ImagesEEG,001,201458,
AFNE01.JPG,AFNE01.JPG,AFNE01.JPG,AFNE01.JPG,AFNE01.JPG,AFNE01.JPG,,,,,,,,,,,,,,,,,2,9,29,3,,,,,,,AFNE04.jpg,AFSA10.jpg,AFSA06.jpg,AFNE16.jpg,AFSA06.jpg,FS,4,num_2,32,num_6,0.233524804236,,,2017_Aug_31_1130,60.0045227741,FEMA4ImagesEEG,001,201458,
AFNE01.JPG,AFNE01.JPG,AFNE01.JPG,AFNE01.JPG,AFNE01.JPG,AFNE01.JPG,,,,,,,,,,,,,,,,,3,0,30,8,,,,,,,AFNE19.jpg,AFSA14.jpg,AFNE13.jpg,AFSA20.jpg,AFSA14.jpg,FS,4,num_6,32,num_4,0.400180191573,,,2017_Aug_31_1130,60.0045227741,FEMA4ImagesEEG,001,201458,
AFNE01.JPG,AFNE01.JPG,AFNE01.JPG,AFNE01.JPG,AFNE01.JPG,AFNE01.JPG,,,,,,,,,,,,,,,,,3,1,31,1,,,,,,,AFSA06.jpg,AFSA16.jpg,AFNE06.jpg,AFNE05.jpg,AFNE05.jpg,FN,3,num_4,32,num_2,0.450125457326,,,2017_Aug_31_1130,60.0045227741,FEMA4ImagesEEG,001,201458,
AFNE01.JPG,AFNE01.JPG,AFNE01.JPG,AFNE01.JPG,AFNE01.JPG,AFNE01.JPG,,,,,,,,,,,,,,,,,3,2,32,3,,,,,,,AFSA06.jpg,AFNE01.jpg,AFNE17.jpg,AFSA01.jpg,AFSA01.jpg,FS,4,num_4,32,num_6,0.300191192946,,,2017_Aug_31_1130,60.0045227741,FEMA4ImagesEEG,001,201458,
AFNE01.JPG,AFNE01.JPG,AFNE01.JPG,AFNE01.JPG,AFNE01.JPG,AFNE01.JPG,,,,,,,,,,,,,,,,,3,3,33,9,,,,,,,AFSA03.jpg,AFNE06.jpg,AFSA05.jpg,AFNE12.jpg,AFNE06.jpg,FN,3,num_6,32,num_8,0.333469220044,,,2017_Aug_31_1130,60.0045227741,FEMA4ImagesEEG,001,201458,
AFNE01.JPG,AFNE01.JPG,AFNE01.JPG,AFNE01.JPG,AFNE01.JPG,AFNE01.JPG,,,,,,,,,,,,,,,,,3,4,34,6,,,,,,,AFSA14.jpg,AFNE11.jpg,AFNE09.jpg,AFSA08.jpg,AFNE11.jpg,FN,3,num_6,32,num_4,0.31680935841,,,2017_Aug_31_1130,60.0045227741,FEMA4ImagesEEG,001,201458,
AFNE01.JPG,AFNE01.JPG,AFNE01.JPG,AFNE01.JPG,AFNE01.JPG,AFNE01.JPG,,,,,,,,,,,,,,,,,3,5,35,0,,,,,,,AFSA12.jpg,AFNE10.jpg,AFNE12.jpg,AFSA19.jpg,AFSA19.jpg,FS,4,num_4,32,num_2,0.433551874667,,,2017_Aug_31_1130,60.0045227741,FEMA4ImagesEEG,001,201458,
AFNE01.JPG,AFNE01.JPG,AFNE01.JPG,AFNE01.JPG,AFNE01.JPG,AFNE01.JPG,,,,,,,,,,,,,,,,,3,6,36,4,,,,,,,AFNE20.jpg,AFSA03.jpg,AFSA04.jpg,AFNE17.jpg,AFNE20.jpg,FN,3,num_8,16,num_8,0.350193871112,,,2017_Aug_31_1130,60.0045227741,FEMA4ImagesEEG,001,201458,
AFNE01.JPG,AFNE01.JPG,AFNE01.JPG,AFNE01.JPG,AFNE01.JPG,AFNE01.JPG,,,,,,,,,,,,,,,,,3,7,37,5,,,,,,,AFSA14.jpg,AFSA03.jpg,AFNE10.jpg,AFNE01.jpg,AFSA14.jpg,FS,4,num_8,32,num_6,0.316771831873,,,2017_Aug_31_1130,60.0045227741,FEMA4ImagesEEG,001,201458,
AFNE01.JPG,AFNE01.JPG,AFNE01.JPG,AFNE01.JPG,AFNE01.JPG,AFNE01.JPG,,,,,,,,,,,,,,,,,3,8,38,7,,,,,,,AFNE12.jpg,AFNE10.jpg,AFSA12.jpg,AFSA06.jpg,AFNE10.jpg,FN,3,num_6,32,num_4,0.283470070019,,,2017_Aug_31_1130,60.0045227741,FEMA4ImagesEEG,001,201458,
AFNE01.JPG,AFNE01.JPG,AFNE01.JPG,AFNE01.JPG,AFNE01.JPG,AFNE01.JPG,,,,,,,,,,,,,,,,,3,9,39,2,,,,,,,AFSA18.jpg,AFNE17.jpg,AFNE01.jpg,AFSA20.jpg,AFNE01.jpg,FN,3,num_2,32,num_6,0.250201344359,,,2017_Aug_31_1130,60.0045227741,FEMA4ImagesEEG,001,201458,
AFNE01.JPG,AFNE01.JPG,AFNE01.JPG,AFNE01.JPG,AFNE01.JPG,AFNE01.JPG,,,,,,,,,,,,,,,,,4,0,40,3,,,,,,,AFNE08.jpg,AFNE02.jpg,AFSA03.jpg,AFSA16.jpg,AFSA03.jpg,FS,4,num_2,16,num_2,0.850109997686,,,2017_Aug_31_1130,60.0045227741,FEMA4ImagesEEG,001,201458,
AFNE01.JPG,AFNE01.JPG,AFNE01.JPG,AFNE01.JPG,AFNE01.JPG,AFNE01.JPG,,,,,,,,,,,,,,,,,4,1,41,1,,,,,,,AFNE09.jpg,AFSA18.jpg,AFNE02.jpg,AFSA02.jpg,AFSA02.jpg,FS,4,num_4,32,num_8,0.383480558201,,,2017_Aug_31_1130,60.0045227741,FEMA4ImagesEEG,001,201458,
AFNE01.JPG,AFNE01.JPG,AFNE01.JPG,AFNE01.JPG,AFNE01.JPG,AFNE01.JPG,,,,,,,,,,,,,,,,,4,2,42,6,,,,,,,AFNE10.jpg,AFSA05.jpg,AFNE05.jpg,AFSA20.jpg,AFNE05.jpg,FN,3,num_2,32,num_4,0.283510162481,,,2017_Aug_31_1130,60.0045227741,FEMA4ImagesEEG,001,201458,
AFNE01.JPG,AFNE01.JPG,AFNE01.JPG,AFNE01.JPG,AFNE01.JPG,AFNE01.JPG,,,,,,,,,,,,,,,,,4,3,43,9,,,,,,,AFNE12.jpg,AFSA10.jpg,AFSA15.jpg,AFNE01.jpg,AFNE01.jpg,FN,3,num_4,32,num_8,0.383534442473,,,2017_Aug_31_1130,60.0045227741,FEMA4ImagesEEG,001,201458,
AFNE01.JPG,AFNE01.JPG,AFNE01.JPG,AFNE01.JPG,AFNE01.JPG,AFNE01.JPG,,,,,,,,,,,,,,,,,4,4,44,0,,,,,,,AFNE01.jpg,AFSA05.jpg,AFNE03.jpg,AFSA16.jpg,AFSA16.jpg,FS,4,num_4,32,num_2,0.950248140274,,,2017_Aug_31_1130,60.0045227741,FEMA4ImagesEEG,001,201458,
AFNE01.JPG,AFNE01.JPG,AFNE01.JPG,AFNE01.JPG,AFNE01.JPG,AFNE01.JPG,,,,,,,,,,,,,,,,,4,5,45,4,,,,,,,AFNE12.jpg,AFNE06.jpg,AFSA05.jpg,AFSA07.jpg,AFNE06.jpg,FN,3,num_6,32,num_8,0.783141792926,,,2017_Aug_31_1130,60.0045227741,FEMA4ImagesEEG,001,201458,
AFNE01.JPG,AFNE01.JPG,AFNE01.JPG,AFNE01.JPG,AFNE01.JPG,AFNE01.JPG,,,,,,,,,,,,,,,,,4,6,46,5,,,,,,,AFSA08.jpg,AFSA02.jpg,AFNE05.jpg,AFNE20.jpg,AFSA08.jpg,FS,4,num_8,32,num_4,0.300154307872,,,2017_Aug_31_1130,60.0045227741,FEMA4ImagesEEG,001,201458,
AFNE01.JPG,AFNE01.JPG,AFNE01.JPG,AFNE01.JPG,AFNE01.JPG,AFNE01.JPG,,,,,,,,,,,,,,,,,4,7,47,7,,,,,,,AFSA12.jpg,AFNE18.jpg,AFNE01.jpg,AFSA16.jpg,AFSA16.jpg,FS,4,num_4,32,num_6,0.433375147099,,,2017_Aug_31_1130,60.0045227741,FEMA4ImagesEEG,001,201458,
AFNE01.JPG,AFNE01.JPG,AFNE01.JPG,AFNE01.JPG,AFNE01.JPG,AFNE01.JPG,,,,,,,,,,,,,,,,,4,8,48,2,,,,,,,AFSA17.jpg,AFNE01.jpg,AFNE08.jpg,AFSA01.jpg,AFSA01.jpg,FS,4,num_4,32,num_2,0.416820167346,,,2017_Aug_31_1130,60.0045227741,FEMA4ImagesEEG,001,201458,
AFNE01.JPG,AFNE01.JPG,AFNE01.JPG,AFNE01.JPG,AFNE01.JPG,AFNE01.JPG,,,,,,,,,,,,,,,,,4,9,49,8,,,,,,,AFNE08.jpg,AFSA02.jpg,AFSA14.jpg,AFNE12.jpg,AFNE12.jpg,FN,3,num_4,32,num_6,0.516753357268,,,2017_Aug_31_1130,60.0045227741,FEMA4ImagesEEG,001,201458,
AFNE01.JPG,AFNE01.JPG,AFNE01.JPG,AFNE01.JPG,AFNE01.JPG,AFNE01.JPG,,,,,,,,,,,,,,,,,5,0,50,6,,,,,,,AFNE20.jpg,AFNE07.jpg,AFSA12.jpg,AFSA11.jpg,AFSA12.jpg,FS,4,num_2,32,num_4,0.483459934636,,,2017_Aug_31_1130,60.0045227741,FEMA4ImagesEEG,001,201458,
AFNE01.JPG,AFNE01.JPG,AFNE01.JPG,AFNE01.JPG,AFNE01.JPG,AFNE01.JPG,,,,,,,,,,,,,,,,,5,1,51,3,,,,,,,AFNE08.jpg,AFSA18.jpg,AFSA14.jpg,AFNE01.jpg,AFSA18.jpg,FS,4,num_6,32,num_8,0.766820632416,,,2017_Aug_31_1130,60.0045227741,FEMA4ImagesEEG,001,201458,
AFNE01.JPG,AFNE01.JPG,AFNE01.JPG,AFNE01.JPG,AFNE01.JPG,AFNE01.JPG,,,,,,,,,,,,,,,,,5,2,52,0,,,,,,,AFSA05.jpg,AFNE16.jpg,AFNE02.jpg,AFSA08.jpg,AFSA08.jpg,FS,4,num_4,32,num_2,0.38342378728,,,2017_Aug_31_1130,60.0045227741,FEMA4ImagesEEG,001,201458,
AFNE01.JPG,AFNE01.JPG,AFNE01.JPG,AFNE01.JPG,AFNE01.JPG,AFNE01.JPG,,,,,,,,,,,,,,,,,5,3,53,1,,,,,,,AFNE08.jpg,AFSA12.jpg,AFNE06.jpg,AFSA14.jpg,AFSA12.jpg,FS,4,num_6,16,num_6,0.350220813241,,,2017_Aug_31_1130,60.0045227741,FEMA4ImagesEEG,001,201458,
AFNE01.JPG,AFNE01.JPG,AFNE01.JPG,AFNE01.JPG,AFNE01.JPG,AFNE01.JPG,,,,,,,,,,,,,,,,,5,4,54,5,,,,,,,AFSA07.jpg,AFNE03.jpg,AFSA17.jpg,AFNE16.jpg,AFNE16.jpg,FN,3,num_4,16,num_4,0.316786585885,,,2017_Aug_31_1130,60.0045227741,FEMA4ImagesEEG,001,201458,
AFNE01.JPG,AFNE01.JPG,AFNE01.JPG,AFNE01.JPG,AFNE01.JPG,AFNE01.JPG,,,,,,,,,,,,,,,,,5,5,55,2,,,,,,,AFNE12.jpg,AFNE17.jpg,AFSA14.jpg,AFSA16.jpg,AFSA16.jpg,FS,4,num_4,32,num_2,0.40015677757,,,2017_Aug_31_1130,60.0045227741,FEMA4ImagesEEG,001,201458,
AFNE01.JPG,AFNE01.JPG,AFNE01.JPG,AFNE01.JPG,AFNE01.JPG,AFNE01.JPG,,,,,,,,,,,,,,,,,5,6,56,7,,,,,,,AFNE11.jpg,AFNE19.jpg,AFSA18.jpg,AFSA14.jpg,AFSA18.jpg,FS,4,num_2,32,num_4,0.38347061527,,,2017_Aug_31_1130,60.0045227741,FEMA4ImagesEEG,001,201458,
AFNE01.JPG,AFNE01.JPG,AFNE01.JPG,AFNE01.JPG,AFNE01.JPG,AFNE01.JPG,,,,,,,,,,,,,,,,,5,7,57,8,,,,,,,AFNE17.jpg,AFSA06.jpg,AFSA16.jpg,AFNE02.jpg,AFSA06.jpg,FS,4,num_6,16,num_6,0.400222849945,,,2017_Aug_31_1130,60.0045227741,FEMA4ImagesEEG,001,201458,
AFNE01.JPG,AFNE01.JPG,AFNE01.JPG,AFNE01.JPG,AFNE01.JPG,AFNE01.JPG,,,,,,,,,,,,,,,,,5,8,58,4,,,,,,,AFNE13.jpg,AFSA19.jpg,AFNE05.jpg,AFSA01.jpg,AFNE13.jpg,FN,3,num_8,32,num_2,0.3668338469,,,2017_Aug_31_1130,60.0045227741,FEMA4ImagesEEG,001,201458,
AFNE01.JPG,AFNE01.JPG,AFNE01.JPG,AFNE01.JPG,AFNE01.JPG,AFNE01.JPG,,,,,,,,,,,,,,,,,5,9,59,9,,,,,,,AFSA01.jpg,AFNE17.jpg,AFSA10.jpg,AFNE11.jpg,AFSA01.jpg,FS,4,num_8,16,num_8,0.283524916507,,,2017_Aug_31_1130,60.0045227741,FEMA4ImagesEEG,001,201458,
,,,,,,,,,,,,,,,,,,,,,,,,,,,,,,,,,,,,,,,,,,,space,3.36656923663,2017_Aug_31_1130,60.0045227741,FEMA4ImagesEEG,001,201458,
AFNE01.JPG,AFNE01.JPG,AFNE01.JPG,AFNE01.JPG,AFNE01.JPG,AFNE01.JPG,,,,,,,,,,,,,,,,,,,,,0,0,0,4,,,AMNE06.jpg,AMSA12.jpg,AMSA04.jpg,AMNE19.jpg,AMNE06.jpg,MN,1,num_8,16,num_8,0.55014685067,,,2017_Aug_31_1130,60.0045227741,FEMA4ImagesEEG,001,201458,
AFNE01.JPG,AFNE01.JPG,AFNE01.JPG,AFNE01.JPG,AFNE01.JPG,AFNE01.JPG,,,,,,,,,,,,,,,,,,,,,0,1,1,0,,,AMSA04.jpg,AMSA20.jpg,AMNE02.jpg,AMNE20.jpg,AMSA04.jpg,MS,2,num_8,16,num_8,0.516787676403,,,2017_Aug_31_1130,60.0045227741,FEMA4ImagesEEG,001,201458,
AFNE01.JPG,AFNE01.JPG,AFNE01.JPG,AFNE01.JPG,AFNE01.JPG,AFNE01.JPG,,,,,,,,,,,,,,,,,,,,,0,2,2,1,,,AMSA07.jpg,AMNE03.jpg,AMNE18.jpg,AMSA16.jpg,AMNE03.jpg,MN,1,num_6,32,num_8,0.333500331806,,,2017_Aug_31_1130,60.0045227741,FEMA4ImagesEEG,001,201458,
AFNE01.JPG,AFNE01.JPG,AFNE01.JPG,AFNE01.JPG,AFNE01.JPG,AFNE01.JPG,,,,,,,,,,,,,,,,,,,,,0,3,3,3,,,AMNE17.jpg,AMNE16.jpg,AMSA20.jpg,AMSA01.jpg,AMSA01.jpg,MS,2,num_4,16,num_4,0.26689616662,,,2017_Aug_31_1130,60.0045227741,FEMA4ImagesEEG,001,201458,
AFNE01.JPG,AFNE01.JPG,AFNE01.JPG,AFNE01.JPG,AFNE01.JPG,AFNE01.JPG,,,,,,,,,,,,,,,,,,,,,0,4,4,2,,,AMSA10.jpg,AMNE14.jpg,AMSA13.jpg,AMNE11.jpg,AMSA13.jpg,MS,2,num_2,16,num_2,0.516791204544,,,2017_Aug_31_1130,60.0045227741,FEMA4ImagesEEG,001,201458,
AFNE01.JPG,AFNE01.JPG,AFNE01.JPG,AFNE01.JPG,AFNE01.JPG,AFNE01.JPG,,,,,,,,,,,,,,,,,,,,,0,5,5,7,,,AMSA02.jpg,AMNE14.jpg,AMNE13.jpg,AMSA06.jpg,AMNE14.jpg,MN,1,num_6,32,num_4,0.25013527197,,,2017_Aug_31_1130,60.0045227741,FEMA4ImagesEEG,001,201458,
AFNE01.JPG,AFNE01.JPG,AFNE01.JPG,AFNE01.JPG,AFNE01.JPG,AFNE01.JPG,,,,,,,,,,,,,,,,,,,,,0,6,6,5,,,AMNE04.jpg,AMSA07.jpg,AMSA09.jpg,AMNE13.jpg,AMNE13.jpg,MN,1,num_4,32,num_8,0.916685937773,,,2017_Aug_31_1130,60.0045227741,FEMA4ImagesEEG,001,201458,
AFNE01.JPG,AFNE01.JPG,AFNE01.JPG,AFNE01.JPG,AFNE01.JPG,AFNE01.JPG,,,,,,,,,,,,,,,,,,,,,0,7,7,8,,,AMNE04.jpg,AMSA09.jpg,AMSA02.jpg,AMNE05.jpg,AMNE05.jpg,MN,1,num_4,32,num_6,0.366798886258,,,2017_Aug_31_1130,60.0045227741,FEMA4ImagesEEG,001,201458,
AFNE01.JPG,AFNE01.JPG,AFNE01.JPG,AFNE01.JPG,AFNE01.JPG,AFNE01.JPG,,,,,,,,,,,,,,,,,,,,,0,8,8,9,,,AMSA13.jpg,AMNE20.jpg,AMSA06.jpg,AMNE17.jpg,AMSA13.jpg,MS,2,num_8,32,num_2,0.716745787809,,,2017_Aug_31_1130,60.0045227741,FEMA4ImagesEEG,001,201458,
AFNE01.JPG,AFNE01.JPG,AFNE01.JPG,AFNE01.JPG,AFNE01.JPG,AFNE01.JPG,,,,,,,,,,,,,,,,,,,,,0,9,9,6,,,AMSA16.jpg,AMNE15.jpg,AMSA07.jpg,AMNE05.jpg,AMNE05.jpg,MN,1,num_4,32,num_8,0.8334417968,,,2017_Aug_31_1130,60.0045227741,FEMA4ImagesEEG,001,201458,
AFNE01.JPG,AFNE01.JPG,AFNE01.JPG,AFNE01.JPG,AFNE01.JPG,AFNE01.JPG,,,,,,,,,,,,,,,,,,,,,1,0,10,3,,,AMSA13.jpg,AMNE06.jpg,AMSA14.jpg,AMNE08.jpg,AMNE08.jpg,MN,1,num_4,32,num_8,0.533459084676,,,2017_Aug_31_1130,60.0045227741,FEMA4ImagesEEG,001,201458,
AFNE01.JPG,AFNE01.JPG,AFNE01.JPG,AFNE01.JPG,AFNE01.JPG,AFNE01.JPG,,,,,,,,,,,,,,,,,,,,,1,1,11,8,,,AMSA19.jpg,AMNE12.jpg,AMSA09.jpg,AMNE09.jpg,AMSA19.jpg,MS,2,num_8,32,num_6,0.400161588666,,,2017_Aug_31_1130,60.0045227741,FEMA4ImagesEEG,001,201458,
AFNE01.JPG,AFNE01.JPG,AFNE01.JPG,AFNE01.JPG,AFNE01.JPG,AFNE01.JPG,,,,,,,,,,,,,,,,,,,,,1,2,12,6,,,AMNE17.jpg,AMNE03.jpg,AMSA10.jpg,AMSA13.jpg,AMSA10.jpg,MS,2,num_2,32,num_4,0.250129177919,,,2017_Aug_31_1130,60.0045227741,FEMA4ImagesEEG,001,201458,
AFNE01.JPG,AFNE01.JPG,AFNE01.JPG,AFNE01.JPG,AFNE01.JPG,AFNE01.JPG,,,,,,,,,,,,,,,,,,,,,1,3,13,5,,,AMNE05.jpg,AMNE16.jpg,AMSA06.jpg,AMSA12.jpg,AMSA06.jpg,MS,2,num_2,32,num_8,0.300214927687,,,2017_Aug_31_1130,60.0045227741,FEMA4ImagesEEG,001,201458,
AFNE01.JPG,AFNE01.JPG,AFNE01.JPG,AFNE01.JPG,AFNE01.JPG,AFNE01.JPG,,,,,,,,,,,,,,,,,,,,,1,4,14,2,,,AMNE06.jpg,AMNE14.jpg,AMSA09.jpg,AMSA18.jpg,AMNE14.jpg,MN,1,num_6,16,num_6,0.316811282857,,,2017_Aug_31_1130,60.0045227741,FEMA4ImagesEEG,001,201458,
AFNE01.JPG,AFNE01.JPG,AFNE01.JPG,AFNE01.JPG,AFNE01.JPG,AFNE01.JPG,,,,,,,,,,,,,,,,,,,,,1,5,15,1,,,AMSA19.jpg,AMNE02.jpg,AMNE14.jpg,AMSA09.jpg,AMNE02.jpg,MN,1,num_6,32,num_4,0.250174722954,,,2017_Aug_31_1130,60.0045227741,FEMA4ImagesEEG,001,201458,
AFNE01.JPG,AFNE01.JPG,AFNE01.JPG,AFNE01.JPG,AFNE01.JPG,AFNE01.JPG,,,,,,,,,,,,,,,,,,,,,1,6,16,7,,,AMSA13.jpg,AMSA08.jpg,AMNE18.jpg,AMNE15.jpg,AMNE18.jpg,MN,1,num_2,32,num_6,0.266893921449,,,2017_Aug_31_1130,60.0045227741,FEMA4ImagesEEG,001,201458,
AFNE01.JPG,AFNE01.JPG,AFNE01.JPG,AFNE01.JPG,AFNE01.JPG,AFNE01.JPG,,,,,,,,,,,,,,,,,,,,,1,7,17,4,,,AMNE16.jpg,AMNE04.jpg,AMSA10.jpg,AMSA18.jpg,AMSA18.jpg,MS,2,num_4,32,num_2,0.300144044188,,,2017_Aug_31_1130,60.0045227741,FEMA4ImagesEEG,001,201458,
AFNE01.JPG,AFNE01.JPG,AFNE01.JPG,AFNE01.JPG,AFNE01.JPG,AFNE01.JPG,,,,,,,,,,,,,,,,,,,,,1,8,18,0,,,AMNE19.jpg,AMSA12.jpg,AMNE13.jpg,AMSA14.jpg,AMSA12.jpg,MS,2,num_6,32,num_8,0.333558064944,,,2017_Aug_31_1130,60.0045227741,FEMA4ImagesEEG,001,201458,
AFNE01.JPG,AFNE01.JPG,AFNE01.JPG,AFNE01.JPG,AFNE01.JPG,AFNE01.JPG,,,,,,,,,,,,,,,,,,,,,1,9,19,9,,,AMSA03.jpg,AMNE16.jpg,AMNE02.jpg,AMSA12.jpg,AMNE16.jpg,MN,1,num_6,16,num_6,0.316838225001,,,2017_Aug_31_1130,60.0045227741,FEMA4ImagesEEG,001,201458,
AFNE01.JPG,AFNE01.JPG,AFNE01.JPG,AFNE01.JPG,AFNE01.JPG,AFNE01.JPG,,,,,,,,,,,,,,,,,,,,,2,0,20,5,,,AMSA08.jpg,AMNE13.jpg,AMNE02.jpg,AMSA13.jpg,AMSA08.jpg,MS,2,num_8,32,num_4,0.300133780533,,,2017_Aug_31_1130,60.0045227741,FEMA4ImagesEEG,001,201458,
AFNE01.JPG,AFNE01.JPG,AFNE01.JPG,AFNE01.JPG,AFNE01.JPG,AFNE01.JPG,,,,,,,,,,,,,,,,,,,,,2,1,21,9,,,AMNE12.jpg,AMNE09.jpg,AMSA16.jpg,AMSA13.jpg,AMNE09.jpg,MN,1,num_6,32,num_2,0.366802735152,,,2017_Aug_31_1130,60.0045227741,FEMA4ImagesEEG,001,201458,
AFNE01.JPG,AFNE01.JPG,AFNE01.JPG,AFNE01.JPG,AFNE01.JPG,AFNE01.JPG,,,,,,,,,,,,,,,,,,,,,2,2,22,3,,,AMSA01.jpg,AMSA16.jpg,AMNE14.jpg,AMNE06.jpg,AMNE14.jpg,MN,1,num_2,32,num_6,0.233505880606,,,2017_Aug_31_1130,60.0045227741,FEMA4ImagesEEG,001,201458,
AFNE01.JPG,AFNE01.JPG,AFNE01.JPG,AFNE01.JPG,AFNE01.JPG,AFNE01.JPG,,,,,,,,,,,,,,,,,,,,,2,3,23,7,,,AMSA07.jpg,AMNE02.jpg,AMNE16.jpg,AMSA17.jpg,AMSA07.jpg,MS,2,num_8,32,num_4,0.233575481121,,,2017_Aug_31_1130,60.0045227741,FEMA4ImagesEEG,001,201458,
AFNE01.JPG,AFNE01.JPG,AFNE01.JPG,AFNE01.JPG,AFNE01.JPG,AFNE01.JPG,,,,,,,,,,,,,,,,,,,,,2,4,24,4,,,AMNE18.jpg,AMSA10.jpg,AMSA01.jpg,AMNE19.jpg,AMNE18.jpg,MN,1,num_8,32,num_6,0.266816623174,,,2017_Aug_31_1130,60.0045227741,FEMA4ImagesEEG,001,201458,
AFNE01.JPG,AFNE01.JPG,AFNE01.JPG,AFNE01.JPG,AFNE01.JPG,AFNE01.JPG,,,,,,,,,,,,,,,,,,,,,2,5,25,0,,,AMNE03.jpg,AMSA09.jpg,AMSA10.jpg,AMNE13.jpg,AMNE13.jpg,MN,1,num_4,32,num_2,0.333491992569,,,2017_Aug_31_1130,60.0045227741,FEMA4ImagesEEG,001,201458,
AFNE01.JPG,AFNE01.JPG,AFNE01.JPG,AFNE01.JPG,AFNE01.JPG,AFNE01.JPG,,,,,,,,,,,,,,,,,,,,,2,6,26,2,,,AMSA19.jpg,AMSA08.jpg,AMNE05.jpg,AMNE06.jpg,AMSA19.jpg,MS,2,num_8,32,num_6,0.450202434862,,,2017_Aug_31_1130,60.0045227741,FEMA4ImagesEEG,001,201458,
AFNE01.JPG,AFNE01.JPG,AFNE01.JPG,AFNE01.JPG,AFNE01.JPG,AFNE01.JPG,,,,,,,,,,,,,,,,,,,,,2,7,27,8,,,AMSA08.jpg,AMSA19.jpg,AMNE01.jpg,AMNE19.jpg,AMSA19.jpg,MS,2,num_6,32,num_8,0.250269020413,,,2017_Aug_31_1130,60.0045227741,FEMA4ImagesEEG,001,201458,
AFNE01.JPG,AFNE01.JPG,AFNE01.JPG,AFNE01.JPG,AFNE01.JPG,AFNE01.JPG,,,,,,,,,,,,,,,,,,,,,2,8,28,1,,,AMSA11.jpg,AMNE20.jpg,AMSA16.jpg,AMNE19.jpg,AMNE20.jpg,MN,1,num_6,32,num_8,0.266789681031,,,2017_Aug_31_1130,60.0045227741,FEMA4ImagesEEG,001,201458,
AFNE01.JPG,AFNE01.JPG,AFNE01.JPG,AFNE01.JPG,AFNE01.JPG,AFNE01.JPG,,,,,,,,,,,,,,,,,,,,,2,9,29,6,,,AMNE03.jpg,AMSA04.jpg,AMNE12.jpg,AMSA10.jpg,AMNE03.jpg,MN,1,num_8,32,num_2,0.333558385682,,,2017_Aug_31_1130,60.0045227741,FEMA4ImagesEEG,001,201458,
AFNE01.JPG,AFNE01.JPG,AFNE01.JPG,AFNE01.JPG,AFNE01.JPG,AFNE01.JPG,,,,,,,,,,,,,,,,,,,,,3,0,30,0,,,AMNE16.jpg,AMSA13.jpg,AMNE20.jpg,AMSA09.jpg,AMSA09.jpg,MS,2,num_4,16,num_4,0.250116669064,,,2017_Aug_31_1130,60.0045227741,FEMA4ImagesEEG,001,201458,
AFNE01.JPG,AFNE01.JPG,AFNE01.JPG,AFNE01.JPG,AFNE01.JPG,AFNE01.JPG,,,,,,,,,,,,,,,,,,,,,3,1,31,8,,,AMNE04.jpg,AMSA12.jpg,AMNE20.jpg,AMSA02.jpg,AMNE04.jpg,MN,1,num_8,32,num_6,0.300255982351,,,2017_Aug_31_1130,60.0045227741,FEMA4ImagesEEG,001,201458,
AFNE01.JPG,AFNE01.JPG,AFNE01.JPG,AFNE01.JPG,AFNE01.JPG,AFNE01.JPG,,,,,,,,,,,,,,,,,,,,,3,2,32,6,,,AMNE14.jpg,AMNE17.jpg,AMSA12.jpg,AMSA17.jpg,AMNE14.jpg,MN,1,num_8,32,num_2,0.316791717734,,,2017_Aug_31_1130,60.0045227741,FEMA4ImagesEEG,001,201458,
AFNE01.JPG,AFNE01.JPG,AFNE01.JPG,AFNE01.JPG,AFNE01.JPG,AFNE01.JPG,,,,,,,,,,,,,,,,,,,,,3,3,33,5,,,AMNE08.jpg,AMNE05.jpg,AMSA07.jpg,AMSA16.jpg,AMNE05.jpg,MN,1,num_6,32,num_8,0.366849242389,,,2017_Aug_31_1130,60.0045227741,FEMA4ImagesEEG,001,201458,
AFNE01.JPG,AFNE01.JPG,AFNE01.JPG,AFNE01.JPG,AFNE01.JPG,AFNE01.JPG,,,,,,,,,,,,,,,,,,,,,3,4,34,4,,,AMSA20.jpg,AMNE14.jpg,AMSA07.jpg,AMNE10.jpg,AMNE14.jpg,MN,1,num_6,16,num_6,0.333514123602,,,2017_Aug_31_1130,60.0045227741,FEMA4ImagesEEG,001,201458,
AFNE01.JPG,AFNE01.JPG,AFNE01.JPG,AFNE01.JPG,AFNE01.JPG,AFNE01.JPG,,,,,,,,,,,,,,,,,,,,,3,5,35,1,,,AMSA10.jpg,AMSA11.jpg,AMNE06.jpg,AMNE07.jpg,AMSA11.jpg,MS,2,num_6,32,num_4,0.233525445728,,,2017_Aug_31_1130,60.0045227741,FEMA4ImagesEEG,001,201458,
AFNE01.JPG,AFNE01.JPG,AFNE01.JPG,AFNE01.JPG,AFNE01.JPG,AFNE01.JPG,,,,,,,,,,,,,,,,,,,,,3,6,36,9,,,AMNE04.jpg,AMNE09.jpg,AMSA02.jpg,AMSA11.jpg,AMSA11.jpg,MS,2,num_4,16,num_4,0.766775087381,,,2017_Aug_31_1130,60.0045227741,FEMA4ImagesEEG,001,201458,
AFNE01.JPG,AFNE01.JPG,AFNE01.JPG,AFNE01.JPG,AFNE01.JPG,AFNE01.JPG,,,,,,,,,,,,,,,,,,,,,3,7,37,3,,,AMNE11.jpg,AMSA12.jpg,AMSA06.jpg,AMNE09.jpg,AMSA06.jpg,MS,2,num_2,32,num_8,0.216849547098,,,2017_Aug_31_1130,60.0045227741,FEMA4ImagesEEG,001,201458,
AFNE01.JPG,AFNE01.JPG,AFNE01.JPG,AFNE01.JPG,AFNE01.JPG,AFNE01.JPG,,,,,,,,,,,,,,,,,,,,,3,8,38,2,,,AMSA17.jpg,AMNE07.jpg,AMSA15.jpg,AMNE16.jpg,AMNE07.jpg,MN,1,num_6,32,num_2,0.416790338553,,,2017_Aug_31_1130,60.0045227741,FEMA4ImagesEEG,001,201458,
