IPosition2,IPosition3,IPosition1,IPosition6,IPosition4,IPosition5,TrialsM1.thisRepN,TrialsM1.thisTrialN,TrialsM1.thisN,TrialsM1.thisIndex,TrialsF1.thisRepN,TrialsF1.thisTrialN,TrialsF1.thisN,TrialsF1.thisIndex,TrialsM2.thisRepN,TrialsM2.thisTrialN,TrialsM2.thisN,TrialsM2.thisIndex,TrialsF2.thisRepN,TrialsF2.thisTrialN,TrialsF2.thisN,TrialsF2.thisIndex,TrialsM3.thisRepN,TrialsM3.thisTrialN,TrialsM3.thisN,TrialsM3.thisIndex,TrialsF3.thisRepN,TrialsF3.thisTrialN,TrialsF3.thisN,TrialsF3.thisIndex,InstrKey_resp.keys,InstrKey_resp.rt,Image0 _Position,Image1 _Position,Image2 _Position,Image3 _Position,Center_image,condition,code,correct_answer,accuracy,Key_Resp.keys,Key_Resp.rt,BreakKey_resp.keys,BreakKey_resp.rt,date,frameRate,expName,session,participant,
,,,,,,,,,,,,,,,,,,,,,,,,,,,,,,space,11.3327863652,,,,,,,,,,,,,,2017_Sep_05_1208,59.9971327229,MAFE4ImagesEEG,001,201459,
AFNE22.JPG,AFSA24.JPG,AFSA22.JPG,AFNE25.JPG,AFNE24.JPG,AFSA25.JPG,0,0,0,6,,,,,,,,,,,,,,,,,,,,,,,AMNE17.jpg,AMSA18.jpg,AMNE03.jpg,AMSA19.jpg,AMNE17.jpg,MN,1,num_8,16,num_8,0.950103486713,,,2017_Sep_05_1208,59.9971327229,MAFE4ImagesEEG,001,201459,
AMSA21.JPG,AMNE23.JPG,AMNE21.JPG,AMSA25.JPG,AMNE25.JPG,AMSA23.JPG,0,1,1,5,,,,,,,,,,,,,,,,,,,,,,,AMNE12.jpg,AMSA15.jpg,AMSA02.jpg,AMNE08.jpg,AMNE12.jpg,MN,1,num_8,16,num_8,0.849661924294,,,2017_Sep_05_1208,59.9971327229,MAFE4ImagesEEG,001,201459,
AFSA25.JPG,AFNE24.JPG,AFSA24.JPG,AFNE21.JPG,AFSA21.JPG,AFNE25.JPG,0,2,2,2,,,,,,,,,,,,,,,,,,,,,,,AMNE05.jpg,AMSA05.jpg,AMSA06.jpg,AMNE01.jpg,AMSA05.jpg,MS,2,num_6,16,num_6,0.650378970022,,,2017_Sep_05_1208,59.9971327229,MAFE4ImagesEEG,001,201459,
AMSA21.JPG,AMNE22.JPG,AMNE21.JPG,AMSA23.JPG,AMSA22.JPG,AMNE23.JPG,0,3,3,1,,,,,,,,,,,,,,,,,,,,,,,AMNE02.jpg,AMNE15.jpg,AMSA02.jpg,AMSA06.jpg,AMNE02.jpg,MN,1,num_8,16,num_8,0.666791541327,,,2017_Sep_05_1208,59.9971327229,MAFE4ImagesEEG,001,201459,
AMSA25.JPG,AMNE24.JPG,AMSA24.JPG,AMNE26.JPG,AMSA21.JPG,AMNE25.JPG,0,4,4,3,,,,,,,,,,,,,,,,,,,,,,,AMNE13.jpg,AMNE17.jpg,AMSA17.jpg,AMSA15.jpg,AMSA15.jpg,MS,2,num_4,32,num_8,0.9501089392,,,2017_Sep_05_1208,59.9971327229,MAFE4ImagesEEG,001,201459,
AFSA21.JPG,AFNE23.JPG,AFNE21.JPG,AFSA25.JPG,AFNE25.JPG,AFSA23.JPG,0,5,5,4,,,,,,,,,,,,,,,,,,,,,,,AMNE17.jpg,AMSA12.jpg,AMSA08.jpg,AMNE14.jpg,AMNE14.jpg,MN,1,num_4,32,num_8,0.866807065089,,,2017_Sep_05_1208,59.9971327229,MAFE4ImagesEEG,001,201459,
AMNE22.JPG,AMSA24.JPG,AMSA22.JPG,AMNE25.JPG,AMNE24.JPG,AMSA25.JPG,0,6,6,7,,,,,,,,,,,,,,,,,,,,,,,AMSA05.jpg,AMNE20.jpg,AMNE15.jpg,AMSA07.jpg,AMSA07.jpg,MS,2,num_4,16,num_4,1.3834850486,,,2017_Sep_05_1208,59.9971327229,MAFE4ImagesEEG,001,201459,
AFSA21.JPG,AFNE22.JPG,AFNE21.JPG,AFSA23.JPG,AFSA22.JPG,AFNE23.JPG,0,7,7,0,,,,,,,,,,,,,,,,,,,,,,,AMSA15.jpg,AMNE16.jpg,AMNE17.jpg,AMSA06.jpg,AMNE17.jpg,MN,1,num_2,32,num_6,1.2497709117,,,2017_Sep_05_1208,59.9971327229,MAFE4ImagesEEG,001,201459,
AMNE23.JPG,AMNE24.JPG,AMNE22.JPG,AMSA24.JPG,AMSA22.JPG,AMSA23.JPG,0,8,8,9,,,,,,,,,,,,,,,,,,,,,,,AMNE06.jpg,AMNE02.jpg,AMSA19.jpg,AMSA03.jpg,AMSA03.jpg,MS,2,num_4,16,num_4,0.650099284947,,,2017_Sep_05_1208,59.9971327229,MAFE4ImagesEEG,001,201459,
AFNE23.JPG,AFNE24.JPG,AFNE22.JPG,AFSA24.JPG,AFSA22.JPG,AFSA23.JPG,0,9,9,8,,,,,,,,,,,,,,,,,,,,,,,AMSA09.jpg,AMNE20.jpg,AMNE17.jpg,AMSA14.jpg,AMSA09.jpg,MS,2,num_8,16,num_8,0.750145695987,,,2017_Sep_05_1208,59.9971327229,MAFE4ImagesEEG,001,201459,
AMSA21.JPG,AMNE23.JPG,AMNE21.JPG,AMSA25.JPG,AMNE25.JPG,AMSA23.JPG,,,,,0,0,0,5,,,,,,,,,,,,,,,,,,,AFNE06.jpg,AFSA17.jpg,AFNE05.jpg,AFSA20.jpg,AFNE05.jpg,FN,3,num_2,32,num_6,0.933457096107,,,2017_Sep_05_1208,59.9971327229,MAFE4ImagesEEG,001,201459,
AMNE22.JPG,AMSA24.JPG,AMSA22.JPG,AMNE25.JPG,AMNE24.JPG,AMSA25.JPG,,,,,0,1,1,7,,,,,,,,,,,,,,,,,,,AFSA05.jpg,AFNE10.jpg,AFSA02.jpg,AFNE14.jpg,AFSA05.jpg,FS,4,num_8,16,num_8,0.900117166224,,,2017_Sep_05_1208,59.9971327229,MAFE4ImagesEEG,001,201459,
AFNE22.JPG,AFSA24.JPG,AFSA22.JPG,AFNE25.JPG,AFNE24.JPG,AFSA25.JPG,,,,,0,2,2,6,,,,,,,,,,,,,,,,,,,AFSA14.jpg,AFNE12.jpg,AFSA12.jpg,AFNE11.jpg,AFNE11.jpg,FN,3,num_4,32,num_6,1.1834502804,,,2017_Sep_05_1208,59.9971327229,MAFE4ImagesEEG,001,201459,
AFSA21.JPG,AFNE23.JPG,AFNE21.JPG,AFSA25.JPG,AFNE25.JPG,AFSA23.JPG,,,,,0,3,3,4,,,,,,,,,,,,,,,,,,,AFSA15.jpg,AFSA13.jpg,AFNE06.jpg,AFNE17.jpg,AFSA13.jpg,FS,4,num_6,32,num_4,1.21674723114,,,2017_Sep_05_1208,59.9971327229,MAFE4ImagesEEG,001,201459,
AMSA21.JPG,AMNE22.JPG,AMNE21.JPG,AMSA23.JPG,AMSA22.JPG,AMNE23.JPG,,,,,0,4,4,1,,,,,,,,,,,,,,,,,,,AFNE09.jpg,AFSA20.jpg,AFSA19.jpg,AFNE18.jpg,AFSA20.jpg,FS,4,num_6,32,num_4,1.7001892043,,,2017_Sep_05_1208,59.9971327229,MAFE4ImagesEEG,001,201459,
AFNE23.JPG,AFNE24.JPG,AFNE22.JPG,AFSA24.JPG,AFSA22.JPG,AFSA23.JPG,,,,,0,5,5,8,,,,,,,,,,,,,,,,,,,AFNE07.jpg,AFNE05.jpg,AFSA20.jpg,AFSA09.jpg,AFSA09.jpg,FS,4,num_4,32,num_2,3.04995039763,,,2017_Sep_05_1208,59.9971327229,MAFE4ImagesEEG,001,201459,
AFSA21.JPG,AFNE22.JPG,AFNE21.JPG,AFSA23.JPG,AFSA22.JPG,AFNE23.JPG,,,,,0,6,6,0,,,,,,,,,,,,,,,,,,,AFNE11.jpg,AFSA14.jpg,AFSA12.jpg,AFNE19.jpg,AFNE11.jpg,FN,3,num_8,16,num_8,1.23356810416,,,2017_Sep_05_1208,59.9971327229,MAFE4ImagesEEG,001,201459,
AFSA25.JPG,AFNE24.JPG,AFSA24.JPG,AFNE21.JPG,AFSA21.JPG,AFNE25.JPG,,,,,0,7,7,2,,,,,,,,,,,,,,,,,,,AFNE15.jpg,AFSA15.jpg,AFNE19.jpg,AFSA19.jpg,AFNE15.jpg,FN,3,num_8,16,num_8,1.45012385363,,,2017_Sep_05_1208,59.9971327229,MAFE4ImagesEEG,001,201459,
AMSA25.JPG,AMNE24.JPG,AMSA24.JPG,AMNE26.JPG,AMSA21.JPG,AMNE25.JPG,,,,,0,8,8,3,,,,,,,,,,,,,,,,,,,AFNE14.jpg,AFSA12.jpg,AFSA05.jpg,AFNE19.jpg,AFSA12.jpg,FS,4,num_6,16,num_6,1.11679158948,,,2017_Sep_05_1208,59.9971327229,MAFE4ImagesEEG,001,201459,
AMNE23.JPG,AMNE24.JPG,AMNE22.JPG,AMSA24.JPG,AMSA22.JPG,AMSA23.JPG,,,,,0,9,9,9,,,,,,,,,,,,,,,,,,,AFNE10.jpg,AFSA14.jpg,AFSA02.jpg,AFNE11.jpg,AFNE11.jpg,FN,3,num_4,16,num_4,1.01689624676,,,2017_Sep_05_1208,59.9971327229,MAFE4ImagesEEG,001,201459,
AMNE22.JPG,AMSA24.JPG,AMSA22.JPG,AMNE25.JPG,AMNE24.JPG,AMSA25.JPG,,,,,,,,,0,0,0,7,,,,,,,,,,,,,,,AMSA01.jpg,AMNE02.jpg,AMSA15.jpg,AMNE11.jpg,AMSA15.jpg,MS,2,num_2,32,num_8,1.06676613871,,,2017_Sep_05_1208,59.9971327229,MAFE4ImagesEEG,001,201459,
AFNE22.JPG,AFSA24.JPG,AFSA22.JPG,AFNE25.JPG,AFNE24.JPG,AFSA25.JPG,,,,,,,,,0,1,1,6,,,,,,,,,,,,,,,AMNE19.jpg,AMSA17.jpg,AMSA01.jpg,AMNE01.jpg,AMNE01.jpg,MN,1,num_4,16,num_4,0.683487967297,,,2017_Sep_05_1208,59.9971327229,MAFE4ImagesEEG,001,201459,
AMNE23.JPG,AMNE24.JPG,AMNE22.JPG,AMSA24.JPG,AMSA22.JPG,AMSA23.JPG,,,,,,,,,0,2,2,9,,,,,,,,,,,,,,,AMSA09.jpg,AMNE16.jpg,AMNE19.jpg,AMSA01.jpg,AMNE19.jpg,MN,1,num_2,32,num_6,1.16678464541,,,2017_Sep_05_1208,59.9971327229,MAFE4ImagesEEG,001,201459,
AMSA21.JPG,AMNE23.JPG,AMNE21.JPG,AMSA25.JPG,AMNE25.JPG,AMSA23.JPG,,,,,,,,,0,3,3,5,,,,,,,,,,,,,,,AMSA15.jpg,AMNE16.jpg,AMSA04.jpg,AMNE01.jpg,AMSA15.jpg,MS,2,num_8,16,num_8,1.13345401699,,,2017_Sep_05_1208,59.9971327229,MAFE4ImagesEEG,001,201459,
AFNE23.JPG,AFNE24.JPG,AFNE22.JPG,AFSA24.JPG,AFSA22.JPG,AFSA23.JPG,,,,,,,,,0,4,4,8,,,,,,,,,,,,,,,AMSA09.jpg,AMNE02.jpg,AMNE07.jpg,AMSA04.jpg,AMNE07.jpg,MN,1,num_2,16,num_2,1.23346899555,,,2017_Sep_05_1208,59.9971327229,MAFE4ImagesEEG,001,201459,
AFSA21.JPG,AFNE23.JPG,AFNE21.JPG,AFSA25.JPG,AFNE25.JPG,AFSA23.JPG,,,,,,,,,0,5,5,4,,,,,,,,,,,,,,,AMNE09.jpg,AMNE17.jpg,AMSA11.jpg,AMSA07.jpg,AMSA07.jpg,MS,2,num_4,32,num_6,0.850153297535,,,2017_Sep_05_1208,59.9971327229,MAFE4ImagesEEG,001,201459,
AMSA21.JPG,AMNE22.JPG,AMNE21.JPG,AMSA23.JPG,AMSA22.JPG,AMNE23.JPG,,,,,,,,,0,6,6,1,,,,,,,,,,,,,,,AMSA11.jpg,AMNE11.jpg,AMNE12.jpg,AMSA14.jpg,AMNE12.jpg,MN,1,num_2,16,num_2,0.933446511684,,,2017_Sep_05_1208,59.9971327229,MAFE4ImagesEEG,001,201459,
AMSA25.JPG,AMNE24.JPG,AMSA24.JPG,AMNE26.JPG,AMSA21.JPG,AMNE25.JPG,,,,,,,,,0,7,7,3,,,,,,,,,,,,,,,AMSA18.jpg,AMNE13.jpg,AMSA10.jpg,AMNE14.jpg,AMSA18.jpg,MS,2,num_8,16,num_8,0.816837743856,,,2017_Sep_05_1208,59.9971327229,MAFE4ImagesEEG,001,201459,
AFSA25.JPG,AFNE24.JPG,AFSA24.JPG,AFNE21.JPG,AFSA21.JPG,AFNE25.JPG,,,,,,,,,0,8,8,2,,,,,,,,,,,,,,,AMSA10.jpg,AMSA19.jpg,AMNE12.jpg,AMNE16.jpg,AMNE16.jpg,MN,1,num_4,32,num_8,0.733459533716,,,2017_Sep_05_1208,59.9971327229,MAFE4ImagesEEG,001,201459,
AFSA21.JPG,AFNE22.JPG,AFNE21.JPG,AFSA23.JPG,AFSA22.JPG,AFNE23.JPG,,,,,,,,,0,9,9,0,,,,,,,,,,,,,,,AMSA14.jpg,AMNE07.jpg,AMSA04.jpg,AMNE13.jpg,AMNE07.jpg,MN,1,num_6,32,num_8,0.683522286476,,,2017_Sep_05_1208,59.9971327229,MAFE4ImagesEEG,001,201459,
AFSA25.JPG,AFNE24.JPG,AFSA24.JPG,AFNE21.JPG,AFSA21.JPG,AFNE25.JPG,,,,,,,,,,,,,0,0,0,2,,,,,,,,,,,AFNE06.jpg,AFSA17.jpg,AFNE14.jpg,AFSA18.jpg,AFNE06.jpg,FN,3,num_8,32,num_2,0.933441379806,,,2017_Sep_05_1208,59.9971327229,MAFE4ImagesEEG,001,201459,
AFNE22.JPG,AFSA24.JPG,AFSA22.JPG,AFNE25.JPG,AFNE24.JPG,AFSA25.JPG,,,,,,,,,,,,,0,1,1,6,,,,,,,,,,,AFSA08.jpg,AFNE06.jpg,AFSA13.jpg,AFNE13.jpg,AFSA13.jpg,FS,4,num_2,16,num_2,1.01670252002,,,2017_Sep_05_1208,59.9971327229,MAFE4ImagesEEG,001,201459,
AMSA21.JPG,AMNE22.JPG,AMNE21.JPG,AMSA23.JPG,AMSA22.JPG,AMNE23.JPG,,,,,,,,,,,,,0,2,2,1,,,,,,,,,,,AFSA12.jpg,AFNE19.jpg,AFSA03.jpg,AFNE03.jpg,AFSA03.jpg,FS,4,num_2,16,num_2,0.766771238472,,,2017_Sep_05_1208,59.9971327229,MAFE4ImagesEEG,001,201459,
AMNE22.JPG,AMSA24.JPG,AMSA22.JPG,AMNE25.JPG,AMNE24.JPG,AMSA25.JPG,,,,,,,,,,,,,0,3,3,7,,,,,,,,,,,AFNE18.jpg,AFSA04.jpg,AFSA12.jpg,AFNE10.jpg,AFSA04.jpg,FS,4,num_6,32,num_8,1.23343948752,,,2017_Sep_05_1208,59.9971327229,MAFE4ImagesEEG,001,201459,
AFNE23.JPG,AFNE24.JPG,AFNE22.JPG,AFSA24.JPG,AFSA22.JPG,AFSA23.JPG,,,,,,,,,,,,,0,4,4,8,,,,,,,,,,,AFSA08.jpg,AFNE16.jpg,AFNE19.jpg,AFSA17.jpg,AFNE16.jpg,FN,3,num_6,32,num_4,0.750181298121,,,2017_Sep_05_1208,59.9971327229,MAFE4ImagesEEG,001,201459,
AFSA21.JPG,AFNE22.JPG,AFNE21.JPG,AFSA23.JPG,AFSA22.JPG,AFNE23.JPG,,,,,,,,,,,,,0,5,5,0,,,,,,,,,,,AFNE02.jpg,AFNE06.jpg,AFSA15.jpg,AFSA10.jpg,AFSA15.jpg,FS,4,num_2,16,num_2,0.666743751091,,,2017_Sep_05_1208,59.9971327229,MAFE4ImagesEEG,001,201459,
AFSA21.JPG,AFNE23.JPG,AFNE21.JPG,AFSA25.JPG,AFNE25.JPG,AFSA23.JPG,,,,,,,,,,,,,0,6,6,4,,,,,,,,,,,AFNE10.jpg,AFSA13.jpg,AFNE07.jpg,AFSA12.jpg,AFSA12.jpg,FS,4,num_4,32,num_8,1.00014176697,,,2017_Sep_05_1208,59.9971327229,MAFE4ImagesEEG,001,201459,
AMSA25.JPG,AMNE24.JPG,AMSA24.JPG,AMNE26.JPG,AMSA21.JPG,AMNE25.JPG,,,,,,,,,,,,,0,7,7,3,,,,,,,,,,,AFNE12.jpg,AFSA11.jpg,AFSA03.jpg,AFNE11.jpg,AFSA11.jpg,FS,4,num_6,16,num_6,0.833451418963,,,2017_Sep_05_1208,59.9971327229,MAFE4ImagesEEG,001,201459,
AMNE23.JPG,AMNE24.JPG,AMNE22.JPG,AMSA24.JPG,AMSA22.JPG,AMSA23.JPG,,,,,,,,,,,,,0,8,8,9,,,,,,,,,,,AFSA09.jpg,AFSA03.jpg,AFNE16.jpg,AFNE05.jpg,AFSA09.jpg,FS,4,num_8,16,num_8,0.783451948198,,,2017_Sep_05_1208,59.9971327229,MAFE4ImagesEEG,001,201459,
AMSA21.JPG,AMNE23.JPG,AMNE21.JPG,AMSA25.JPG,AMNE25.JPG,AMSA23.JPG,,,,,,,,,,,,,0,9,9,5,,,,,,,,,,,AFNE03.jpg,AFNE20.jpg,AFSA17.jpg,AFSA04.jpg,AFSA17.jpg,FS,4,num_2,16,num_2,1.20013131085,,,2017_Sep_05_1208,59.9971327229,MAFE4ImagesEEG,001,201459,
AMSA21.JPG,AMNE22.JPG,AMNE21.JPG,AMSA23.JPG,AMSA22.JPG,AMNE23.JPG,,,,,,,,,,,,,,,,,0,0,0,1,,,,,,,AMNE10.jpg,AMNE08.jpg,AMSA13.jpg,AMSA08.jpg,AMSA08.jpg,MS,2,num_4,16,num_4,1.43341010774,,,2017_Sep_05_1208,59.9971327229,MAFE4ImagesEEG,001,201459,
AFNE23.JPG,AFNE24.JPG,AFNE22.JPG,AFSA24.JPG,AFSA22.JPG,AFSA23.JPG,,,,,,,,,,,,,,,,,0,1,1,8,,,,,,,AMNE06.jpg,AMNE19.jpg,AMSA09.jpg,AMSA14.jpg,AMNE19.jpg,MN,1,num_6,16,num_6,0.800189749629,,,2017_Sep_05_1208,59.9971327229,MAFE4ImagesEEG,001,201459,
AMNE23.JPG,AMNE24.JPG,AMNE22.JPG,AMSA24.JPG,AMSA22.JPG,AMSA23.JPG,,,,,,,,,,,,,,,,,0,2,2,9,,,,,,,AMSA05.jpg,AMNE01.jpg,AMNE09.jpg,AMSA17.jpg,AMNE09.jpg,MN,1,num_2,16,num_2,1.36689222156,,,2017_Sep_05_1208,59.9971327229,MAFE4ImagesEEG,001,201459,
AFNE22.JPG,AFSA24.JPG,AFSA22.JPG,AFNE25.JPG,AFNE24.JPG,AFSA25.JPG,,,,,,,,,,,,,,,,,0,3,3,6,,,,,,,AMSA02.jpg,AMNE10.jpg,AMNE08.jpg,AMSA15.jpg,AMSA02.jpg,MS,2,num_8,32,num_4,1.01680547744,,,2017_Sep_05_1208,59.9971327229,MAFE4ImagesEEG,001,201459,
AMSA21.JPG,AMNE23.JPG,AMNE21.JPG,AMSA25.JPG,AMNE25.JPG,AMSA23.JPG,,,,,,,,,,,,,,,,,0,4,4,5,,,,,,,AMSA17.jpg,AMNE06.jpg,AMNE07.jpg,AMSA18.jpg,AMSA18.jpg,MS,2,num_4,32,num_2,0.83350113366,,,2017_Sep_05_1208,59.9971327229,MAFE4ImagesEEG,001,201459,
AFSA21.JPG,AFNE22.JPG,AFNE21.JPG,AFSA23.JPG,AFSA22.JPG,AFNE23.JPG,,,,,,,,,,,,,,,,,0,5,5,0,,,,,,,AMNE11.jpg,AMSA03.jpg,AMSA06.jpg,AMNE14.jpg,AMNE11.jpg,MN,1,num_8,32,num_4,1.15010874684,,,2017_Sep_05_1208,59.9971327229,MAFE4ImagesEEG,001,201459,
AMNE22.JPG,AMSA24.JPG,AMSA22.JPG,AMNE25.JPG,AMNE24.JPG,AMSA25.JPG,,,,,,,,,,,,,,,,,0,6,6,7,,,,,,,AMNE18.jpg,AMSA03.jpg,AMNE12.jpg,AMSA14.jpg,AMNE18.jpg,MN,1,num_8,32,num_6,0.616764807666,,,2017_Sep_05_1208,59.9971327229,MAFE4ImagesEEG,001,201459,
AMSA25.JPG,AMNE24.JPG,AMSA24.JPG,AMNE26.JPG,AMSA21.JPG,AMNE25.JPG,,,,,,,,,,,,,,,,,0,7,7,3,,,,,,,AMNE04.jpg,AMNE09.jpg,AMSA04.jpg,AMSA15.jpg,AMSA15.jpg,MS,2,num_4,32,num_2,0.750181298063,,,2017_Sep_05_1208,59.9971327229,MAFE4ImagesEEG,001,201459,
AFSA21.JPG,AFNE23.JPG,AFNE21.JPG,AFSA25.JPG,AFNE25.JPG,AFSA23.JPG,,,,,,,,,,,,,,,,,0,8,8,4,,,,,,,AMNE05.jpg,AMSA16.jpg,AMSA15.jpg,AMNE09.jpg,AMSA15.jpg,MS,2,num_2,16,num_2,0.800110526849,,,2017_Sep_05_1208,59.9971327229,MAFE4ImagesEEG,001,201459,
AFSA25.JPG,AFNE24.JPG,AFSA24.JPG,AFNE21.JPG,AFSA21.JPG,AFNE25.JPG,,,,,,,,,,,,,,,,,0,9,9,2,,,,,,,AMSA13.jpg,AMNE07.jpg,AMSA05.jpg,AMNE16.jpg,AMNE07.jpg,MN,1,num_6,32,num_4,0.95016923832,,,2017_Sep_05_1208,59.9971327229,MAFE4ImagesEEG,001,201459,
AMNE23.JPG,AMNE24.JPG,AMNE22.JPG,AMSA24.JPG,AMSA22.JPG,AMSA23.JPG,,,,,,,,,,,,,,,,,,,,,0,0,0,9,,,AFNE10.jpg,AFSA01.jpg,AFNE04.jpg,AFSA10.jpg,AFNE10.jpg,FN,3,num_8,16,num_8,0.800109243952,,,2017_Sep_05_1208,59.9971327229,MAFE4ImagesEEG,001,201459,
AFSA21.JPG,AFNE22.JPG,AFNE21.JPG,AFSA23.JPG,AFSA22.JPG,AFNE23.JPG,,,,,,,,,,,,,,,,,,,,,0,1,1,0,,,AFNE17.jpg,AFSA13.jpg,AFSA17.jpg,AFNE09.jpg,AFNE17.jpg,FN,3,num_8,32,num_4,1.2167417786,,,2017_Sep_05_1208,59.9971327229,MAFE4ImagesEEG,001,201459,
AMNE22.JPG,AMSA24.JPG,AMSA22.JPG,AMNE25.JPG,AMNE24.JPG,AMSA25.JPG,,,,,,,,,,,,,,,,,,,,,0,2,2,7,,,AFSA02.jpg,AFNE15.jpg,AFSA03.jpg,AFNE10.jpg,AFNE10.jpg,FN,3,num_4,32,num_8,0.666819124948,,,2017_Sep_05_1208,59.9971327229,MAFE4ImagesEEG,001,201459,
AFSA21.JPG,AFNE23.JPG,AFNE21.JPG,AFSA25.JPG,AFNE25.JPG,AFSA23.JPG,,,,,,,,,,,,,,,,,,,,,0,3,3,4,,,AFSA01.jpg,AFNE02.jpg,AFNE15.jpg,AFSA17.jpg,AFNE15.jpg,FN,3,num_2,16,num_2,0.766775408119,,,2017_Sep_05_1208,59.9971327229,MAFE4ImagesEEG,001,201459,
AFNE23.JPG,AFNE24.JPG,AFNE22.JPG,AFSA24.JPG,AFSA22.JPG,AFSA23.JPG,,,,,,,,,,,,,,,,,,,,,0,4,4,8,,,AFSA15.jpg,AFNE02.jpg,AFNE11.jpg,AFSA13.jpg,AFSA15.jpg,FS,4,num_8,16,num_8,0.55045091192,,,2017_Sep_05_1208,59.9971327229,MAFE4ImagesEEG,001,201459,
AMSA21.JPG,AMNE23.JPG,AMNE21.JPG,AMSA25.JPG,AMNE25.JPG,AMSA23.JPG,,,,,,,,,,,,,,,,,,,,,0,5,5,5,,,AFSA16.jpg,AFSA14.jpg,AFNE16.jpg,AFNE06.jpg,AFSA14.jpg,FS,4,num_6,32,num_4,1.28343029832,,,2017_Sep_05_1208,59.9971327229,MAFE4ImagesEEG,001,201459,
AFNE22.JPG,AFSA24.JPG,AFSA22.JPG,AFNE25.JPG,AFNE24.JPG,AFSA25.JPG,,,,,,,,,,,,,,,,,,,,,0,6,6,6,,,AFSA05.jpg,AFNE13.jpg,AFNE09.jpg,AFSA01.jpg,AFSA01.jpg,FS,4,num_4,32,num_6,0.766774766671,,,2017_Sep_05_1208,59.9971327229,MAFE4ImagesEEG,001,201459,
AFSA25.JPG,AFNE24.JPG,AFSA24.JPG,AFNE21.JPG,AFSA21.JPG,AFNE25.JPG,,,,,,,,,,,,,,,,,,,,,0,7,7,2,,,AFSA19.jpg,AFNE13.jpg,AFNE20.jpg,AFSA15.jpg,AFNE20.jpg,FN,3,num_2,16,num_2,0.700191449549,,,2017_Sep_05_1208,59.9971327229,MAFE4ImagesEEG,001,201459,
AMSA25.JPG,AMNE24.JPG,AMSA24.JPG,AMNE26.JPG,AMSA21.JPG,AMNE25.JPG,,,,,,,,,,,,,,,,,,,,,0,8,8,3,,,AFSA16.jpg,AFNE20.jpg,AFNE12.jpg,AFSA20.jpg,AFSA20.jpg,FS,4,num_4,32,num_6,0.533526760759,,,2017_Sep_05_1208,59.9971327229,MAFE4ImagesEEG,001,201459,
AMSA21.JPG,AMNE22.JPG,AMNE21.JPG,AMSA23.JPG,AMSA22.JPG,AMNE23.JPG,,,,,,,,,,,,,,,,,,,,,0,9,9,1,,,AFSA10.jpg,AFNE14.jpg,AFNE07.jpg,AFSA19.jpg,AFNE07.jpg,FN,3,num_2,32,num_8,0.95015705016,,,2017_Sep_05_1208,59.9971327229,MAFE4ImagesEEG,001,201459,
,,,,,,,,,,,,,,,,,,,,,,,,,,,,,,,,,,,,,,,,,,,space,29.7312268646,2017_Sep_05_1208,59.9971327229,MAFE4ImagesEEG,001,201459,
AFNE01.JPG,AFNE01.JPG,AFNE01.JPG,AFNE01.JPG,AFNE01.JPG,AFNE01.JPG,0,0,0,7,,,,,,,,,,,,,,,,,,,,,,,AMNE11.jpg,AMNE15.jpg,AMSA13.jpg,AMSA04.jpg,AMSA13.jpg,MS,2,num_2,32,num_8,1.24998099613,,,2017_Sep_05_1208,59.9971327229,MAFE4ImagesEEG,001,201459,
AFNE01.JPG,AFNE01.JPG,AFNE01.JPG,AFNE01.JPG,AFNE01.JPG,AFNE01.JPG,0,1,1,9,,,,,,,,,,,,,,,,,,,,,,,AMNE05.jpg,AMNE15.jpg,AMSA06.jpg,AMSA09.jpg,AMSA09.jpg,MS,2,num_4,32,num_6,1.15008821944,,,2017_Sep_05_1208,59.9971327229,MAFE4ImagesEEG,001,201459,
AFNE01.JPG,AFNE01.JPG,AFNE01.JPG,AFNE01.JPG,AFNE01.JPG,AFNE01.JPG,0,2,2,1,,,,,,,,,,,,,,,,,,,,,,,AMSA19.jpg,AMNE08.jpg,AMSA02.jpg,AMNE18.jpg,AMNE08.jpg,MN,1,num_6,16,num_6,0.900141863152,,,2017_Sep_05_1208,59.9971327229,MAFE4ImagesEEG,001,201459,
AFNE01.JPG,AFNE01.JPG,AFNE01.JPG,AFNE01.JPG,AFNE01.JPG,AFNE01.JPG,0,3,3,3,,,,,,,,,,,,,,,,,,,,,,,AMSA20.jpg,AMNE07.jpg,AMNE02.jpg,AMSA07.jpg,AMSA07.jpg,MS,2,num_4,32,num_8,0.816748898942,,,2017_Sep_05_1208,59.9971327229,MAFE4ImagesEEG,001,201459,
AFNE01.JPG,AFNE01.JPG,AFNE01.JPG,AFNE01.JPG,AFNE01.JPG,AFNE01.JPG,0,4,4,0,,,,,,,,,,,,,,,,,,,,,,,AMNE07.jpg,AMNE08.jpg,AMSA19.jpg,AMSA05.jpg,AMSA05.jpg,MS,2,num_4,16,num_4,0.900112996635,,,2017_Sep_05_1208,59.9971327229,MAFE4ImagesEEG,001,201459,
AFNE01.JPG,AFNE01.JPG,AFNE01.JPG,AFNE01.JPG,AFNE01.JPG,AFNE01.JPG,0,5,5,5,,,,,,,,,,,,,,,,,,,,,,,AMSA19.jpg,AMSA05.jpg,AMNE13.jpg,AMNE19.jpg,AMNE19.jpg,MN,1,num_4,32,num_8,0.783445854206,,,2017_Sep_05_1208,59.9971327229,MAFE4ImagesEEG,001,201459,
AFNE01.JPG,AFNE01.JPG,AFNE01.JPG,AFNE01.JPG,AFNE01.JPG,AFNE01.JPG,0,6,6,8,,,,,,,,,,,,,,,,,,,,,,,AMSA12.jpg,AMSA04.jpg,AMNE06.jpg,AMNE04.jpg,AMSA04.jpg,MS,2,num_6,16,num_6,0.716748995183,,,2017_Sep_05_1208,59.9971327229,MAFE4ImagesEEG,001,201459,
AFNE01.JPG,AFNE01.JPG,AFNE01.JPG,AFNE01.JPG,AFNE01.JPG,AFNE01.JPG,0,7,7,6,,,,,,,,,,,,,,,,,,,,,,,AMSA16.jpg,AMNE08.jpg,AMSA11.jpg,AMNE18.jpg,AMNE18.jpg,MN,1,num_4,32,num_8,0.666638227762,,,2017_Sep_05_1208,59.9971327229,MAFE4ImagesEEG,001,201459,
AFNE01.JPG,AFNE01.JPG,AFNE01.JPG,AFNE01.JPG,AFNE01.JPG,AFNE01.JPG,0,8,8,2,,,,,,,,,,,,,,,,,,,,,,,AMNE14.jpg,AMSA19.jpg,AMNE01.jpg,AMSA05.jpg,AMNE01.jpg,MN,1,num_2,16,num_2,0.916786008573,,,2017_Sep_05_1208,59.9971327229,MAFE4ImagesEEG,001,201459,
AFNE01.JPG,AFNE01.JPG,AFNE01.JPG,AFNE01.JPG,AFNE01.JPG,AFNE01.JPG,0,9,9,4,,,,,,,,,,,,,,,,,,,,,,,AMSA06.jpg,AMNE15.jpg,AMSA10.jpg,AMNE08.jpg,AMSA10.jpg,MS,2,num_2,16,num_2,0.816791236575,,,2017_Sep_05_1208,59.9971327229,MAFE4ImagesEEG,001,201459,
AFNE01.JPG,AFNE01.JPG,AFNE01.JPG,AFNE01.JPG,AFNE01.JPG,AFNE01.JPG,1,0,10,5,,,,,,,,,,,,,,,,,,,,,,,AMSA15.jpg,AMNE14.jpg,AMNE02.jpg,AMSA05.jpg,AMNE02.jpg,MN,1,num_2,32,num_8,0.916792102624,,,2017_Sep_05_1208,59.9971327229,MAFE4ImagesEEG,001,201459,
AFNE01.JPG,AFNE01.JPG,AFNE01.JPG,AFNE01.JPG,AFNE01.JPG,AFNE01.JPG,1,1,11,7,,,,,,,,,,,,,,,,,,,,,,,AMSA06.jpg,AMNE04.jpg,AMSA02.jpg,AMNE16.jpg,AMNE04.jpg,MN,1,num_6,32,num_2,0.900146994973,,,2017_Sep_05_1208,59.9971327229,MAFE4ImagesEEG,001,201459,
AFNE01.JPG,AFNE01.JPG,AFNE01.JPG,AFNE01.JPG,AFNE01.JPG,AFNE01.JPG,1,2,12,8,,,,,,,,,,,,,,,,,,,,,,,AMSA11.jpg,AMSA12.jpg,AMNE15.jpg,AMNE19.jpg,AMNE15.jpg,MN,1,num_2,16,num_2,1.26674285304,,,2017_Sep_05_1208,59.9971327229,MAFE4ImagesEEG,001,201459,
AFNE01.JPG,AFNE01.JPG,AFNE01.JPG,AFNE01.JPG,AFNE01.JPG,AFNE01.JPG,1,3,13,0,,,,,,,,,,,,,,,,,,,,,,,AMNE16.jpg,AMSA02.jpg,AMNE15.jpg,AMSA08.jpg,AMNE16.jpg,MN,1,num_8,32,num_6,1.30010844208,,,2017_Sep_05_1208,59.9971327229,MAFE4ImagesEEG,001,201459,
AFNE01.JPG,AFNE01.JPG,AFNE01.JPG,AFNE01.JPG,AFNE01.JPG,AFNE01.JPG,1,4,14,3,,,,,,,,,,,,,,,,,,,,,,,AMNE07.jpg,AMNE12.jpg,AMSA05.jpg,AMSA03.jpg,AMSA05.jpg,MS,2,num_2,32,num_8,0.933419890294,,,2017_Sep_05_1208,59.9971327229,MAFE4ImagesEEG,001,201459,
AFNE01.JPG,AFNE01.JPG,AFNE01.JPG,AFNE01.JPG,AFNE01.JPG,AFNE01.JPG,1,5,15,9,,,,,,,,,,,,,,,,,,,,,,,AMSA16.jpg,AMNE18.jpg,AMNE06.jpg,AMSA09.jpg,AMSA16.jpg,MS,2,num_8,32,num_2,0.766759371152,,,2017_Sep_05_1208,59.9971327229,MAFE4ImagesEEG,001,201459,
AFNE01.JPG,AFNE01.JPG,AFNE01.JPG,AFNE01.JPG,AFNE01.JPG,AFNE01.JPG,1,6,16,4,,,,,,,,,,,,,,,,,,,,,,,AMSA02.jpg,AMNE13.jpg,AMNE08.jpg,AMSA12.jpg,AMNE13.jpg,MN,1,num_6,32,num_8,0.683481873188,,,2017_Sep_05_1208,59.9971327229,MAFE4ImagesEEG,001,201459,
AFNE01.JPG,AFNE01.JPG,AFNE01.JPG,AFNE01.JPG,AFNE01.JPG,AFNE01.JPG,1,7,17,1,,,,,,,,,,,,,,,,,,,,,,,AMSA06.jpg,AMNE01.jpg,AMNE18.jpg,AMSA08.jpg,AMNE01.jpg,MN,1,num_6,32,num_8,0.933443304268,,,2017_Sep_05_1208,59.9971327229,MAFE4ImagesEEG,001,201459,
AFNE01.JPG,AFNE01.JPG,AFNE01.JPG,AFNE01.JPG,AFNE01.JPG,AFNE01.JPG,1,8,18,2,,,,,,,,,,,,,,,,,,,,,,,AMNE02.jpg,AMSA08.jpg,AMSA03.jpg,AMNE15.jpg,AMNE15.jpg,MN,1,num_4,16,num_4,0.716499780479,,,2017_Sep_05_1208,59.9971327229,MAFE4ImagesEEG,001,201459,
AFNE01.JPG,AFNE01.JPG,AFNE01.JPG,AFNE01.JPG,AFNE01.JPG,AFNE01.JPG,1,9,19,6,,,,,,,,,,,,,,,,,,,,,,,AMSA17.jpg,AMNE04.jpg,AMSA20.jpg,AMNE05.jpg,AMSA20.jpg,MS,2,num_2,32,num_6,0.800143883796,,,2017_Sep_05_1208,59.9971327229,MAFE4ImagesEEG,001,201459,
AFNE01.JPG,AFNE01.JPG,AFNE01.JPG,AFNE01.JPG,AFNE01.JPG,AFNE01.JPG,2,0,20,9,,,,,,,,,,,,,,,,,,,,,,,AMNE05.jpg,AMSA06.jpg,AMNE07.jpg,AMSA17.jpg,AMNE07.jpg,MN,1,num_2,16,num_2,1.38340807101,,,2017_Sep_05_1208,59.9971327229,MAFE4ImagesEEG,001,201459,
AFNE01.JPG,AFNE01.JPG,AFNE01.JPG,AFNE01.JPG,AFNE01.JPG,AFNE01.JPG,2,1,21,4,,,,,,,,,,,,,,,,,,,,,,,AMNE04.jpg,AMSA16.jpg,AMSA13.jpg,AMNE03.jpg,AMNE04.jpg,MN,1,num_8,16,num_8,0.666831954499,,,2017_Sep_05_1208,59.9971327229,MAFE4ImagesEEG,001,201459,
AFNE01.JPG,AFNE01.JPG,AFNE01.JPG,AFNE01.JPG,AFNE01.JPG,AFNE01.JPG,2,2,22,1,,,,,,,,,,,,,,,,,,,,,,,AMNE18.jpg,AMNE15.jpg,AMSA10.jpg,AMSA02.jpg,AMNE15.jpg,MN,1,num_6,16,num_6,0.850141109433,,,2017_Sep_05_1208,59.9971327229,MAFE4ImagesEEG,001,201459,
AFNE01.JPG,AFNE01.JPG,AFNE01.JPG,AFNE01.JPG,AFNE01.JPG,AFNE01.JPG,2,3,23,5,,,,,,,,,,,,,,,,,,,,,,,AMNE14.jpg,AMSA15.jpg,AMNE16.jpg,AMSA20.jpg,AMSA20.jpg,MS,2,num_4,16,num_4,0.58350538346,,,2017_Sep_05_1208,59.9971327229,MAFE4ImagesEEG,001,201459,
AFNE01.JPG,AFNE01.JPG,AFNE01.JPG,AFNE01.JPG,AFNE01.JPG,AFNE01.JPG,2,4,24,7,,,,,,,,,,,,,,,,,,,,,,,AMSA20.jpg,AMNE07.jpg,AMSA08.jpg,AMNE08.jpg,AMSA08.jpg,MS,2,num_2,32,num_6,1.00015106838,,,2017_Sep_05_1208,59.9971327229,MAFE4ImagesEEG,001,201459,
AFNE01.JPG,AFNE01.JPG,AFNE01.JPG,AFNE01.JPG,AFNE01.JPG,AFNE01.JPG,2,5,25,2,,,,,,,,,,,,,,,,,,,,,,,AMNE13.jpg,AMSA15.jpg,AMNE19.jpg,AMSA13.jpg,AMNE13.jpg,MN,1,num_8,32,num_4,1.45010557148,,,2017_Sep_05_1208,59.9971327229,MAFE4ImagesEEG,001,201459,
AFNE01.JPG,AFNE01.JPG,AFNE01.JPG,AFNE01.JPG,AFNE01.JPG,AFNE01.JPG,2,6,26,6,,,,,,,,,,,,,,,,,,,,,,,AMSA11.jpg,AMNE09.jpg,AMSA08.jpg,AMNE11.jpg,AMNE11.jpg,MN,1,num_4,16,num_4,0.866763444559,,,2017_Sep_05_1208,59.9971327229,MAFE4ImagesEEG,001,201459,
AFNE01.JPG,AFNE01.JPG,AFNE01.JPG,AFNE01.JPG,AFNE01.JPG,AFNE01.JPG,2,7,27,0,,,,,,,,,,,,,,,,,,,,,,,AMNE08.jpg,AMSA19.jpg,AMNE12.jpg,AMSA02.jpg,AMNE08.jpg,MN,1,num_8,32,num_2,1.30009593326,,,2017_Sep_05_1208,59.9971327229,MAFE4ImagesEEG,001,201459,
AFNE01.JPG,AFNE01.JPG,AFNE01.JPG,AFNE01.JPG,AFNE01.JPG,AFNE01.JPG,2,8,28,8,,,,,,,,,,,,,,,,,,,,,,,AMSA17.jpg,AMNE14.jpg,AMSA06.jpg,AMNE08.jpg,AMSA06.jpg,MS,2,num_2,32,num_8,0.933490132273,,,2017_Sep_05_1208,59.9971327229,MAFE4ImagesEEG,001,201459,
AFNE01.JPG,AFNE01.JPG,AFNE01.JPG,AFNE01.JPG,AFNE01.JPG,AFNE01.JPG,2,9,29,3,,,,,,,,,,,,,,,,,,,,,,,AMSA06.jpg,AMNE14.jpg,AMNE03.jpg,AMSA09.jpg,AMNE03.jpg,MN,1,num_2,16,num_2,1.31650401425,,,2017_Sep_05_1208,59.9971327229,MAFE4ImagesEEG,001,201459,
AFNE01.JPG,AFNE01.JPG,AFNE01.JPG,AFNE01.JPG,AFNE01.JPG,AFNE01.JPG,3,0,30,7,,,,,,,,,,,,,,,,,,,,,,,AMSA08.jpg,AMNE10.jpg,AMSA07.jpg,AMNE19.jpg,AMSA08.jpg,MS,2,num_8,16,num_8,0.500115305884,,,2017_Sep_05_1208,59.9971327229,MAFE4ImagesEEG,001,201459,
AFNE01.JPG,AFNE01.JPG,AFNE01.JPG,AFNE01.JPG,AFNE01.JPG,AFNE01.JPG,3,1,31,5,,,,,,,,,,,,,,,,,,,,,,,AMNE05.jpg,AMSA02.jpg,AMNE12.jpg,AMSA01.jpg,AMNE12.jpg,MN,1,num_2,16,num_2,0.733477174363,,,2017_Sep_05_1208,59.9971327229,MAFE4ImagesEEG,001,201459,
AFNE01.JPG,AFNE01.JPG,AFNE01.JPG,AFNE01.JPG,AFNE01.JPG,AFNE01.JPG,3,2,32,2,,,,,,,,,,,,,,,,,,,,,,,AMNE10.jpg,AMNE08.jpg,AMSA18.jpg,AMSA15.jpg,AMNE08.jpg,MN,1,num_6,32,num_4,0.850117374677,,,2017_Sep_05_1208,59.9971327229,MAFE4ImagesEEG,001,201459,
AFNE01.JPG,AFNE01.JPG,AFNE01.JPG,AFNE01.JPG,AFNE01.JPG,AFNE01.JPG,3,3,33,9,,,,,,,,,,,,,,,,,,,,,,,AMSA17.jpg,AMSA10.jpg,AMNE12.jpg,AMNE18.jpg,AMNE18.jpg,MN,1,num_4,32,num_8,1.70009618986,,,2017_Sep_05_1208,59.9971327229,MAFE4ImagesEEG,001,201459,
AFNE01.JPG,AFNE01.JPG,AFNE01.JPG,AFNE01.JPG,AFNE01.JPG,AFNE01.JPG,3,4,34,3,,,,,,,,,,,,,,,,,,,,,,,AMNE16.jpg,AMSA17.jpg,AMNE02.jpg,AMSA08.jpg,AMNE02.jpg,MN,1,num_2,16,num_2,1.01670508593,,,2017_Sep_05_1208,59.9971327229,MAFE4ImagesEEG,001,201459,
AFNE01.JPG,AFNE01.JPG,AFNE01.JPG,AFNE01.JPG,AFNE01.JPG,AFNE01.JPG,3,5,35,8,,,,,,,,,,,,,,,,,,,,,,,AMSA20.jpg,AMSA07.jpg,AMNE03.jpg,AMNE07.jpg,AMNE03.jpg,MN,1,num_2,32,num_6,0.916777669336,,,2017_Sep_05_1208,59.9971327229,MAFE4ImagesEEG,001,201459,
AFNE01.JPG,AFNE01.JPG,AFNE01.JPG,AFNE01.JPG,AFNE01.JPG,AFNE01.JPG,3,6,36,0,,,,,,,,,,,,,,,,,,,,,,,AMSA01.jpg,AMSA13.jpg,AMNE09.jpg,AMNE15.jpg,AMSA01.jpg,MS,2,num_8,32,num_2,1.1834278286,,,2017_Sep_05_1208,59.9971327229,MAFE4ImagesEEG,001,201459,
AFNE01.JPG,AFNE01.JPG,AFNE01.JPG,AFNE01.JPG,AFNE01.JPG,AFNE01.JPG,3,7,37,1,,,,,,,,,,,,,,,,,,,,,,,AMNE15.jpg,AMSA12.jpg,AMNE17.jpg,AMSA08.jpg,AMNE17.jpg,MN,1,num_2,16,num_2,0.833444042015,,,2017_Sep_05_1208,59.9971327229,MAFE4ImagesEEG,001,201459,
AFNE01.JPG,AFNE01.JPG,AFNE01.JPG,AFNE01.JPG,AFNE01.JPG,AFNE01.JPG,3,8,38,6,,,,,,,,,,,,,,,,,,,,,,,AMNE03.jpg,AMNE12.jpg,AMSA10.jpg,AMSA18.jpg,AMSA18.jpg,MS,2,num_4,32,num_8,0.91677799006,,,2017_Sep_05_1208,59.9971327229,MAFE4ImagesEEG,001,201459,
AFNE01.JPG,AFNE01.JPG,AFNE01.JPG,AFNE01.JPG,AFNE01.JPG,AFNE01.JPG,3,9,39,4,,,,,,,,,,,,,,,,,,,,,,,AMNE04.jpg,AMSA01.jpg,AMNE09.jpg,AMSA14.jpg,AMNE04.jpg,MN,1,num_8,16,num_8,1.03340856812,,,2017_Sep_05_1208,59.9971327229,MAFE4ImagesEEG,001,201459,
AFNE01.JPG,AFNE01.JPG,AFNE01.JPG,AFNE01.JPG,AFNE01.JPG,AFNE01.JPG,4,0,40,8,,,,,,,,,,,,,,,,,,,,,,,AMNE05.jpg,AMSA07.jpg,AMSA02.jpg,AMNE16.jpg,AMSA02.jpg,MS,2,num_2,32,num_6,0.816733824206,,,2017_Sep_05_1208,59.9971327229,MAFE4ImagesEEG,001,201459,
AFNE01.JPG,AFNE01.JPG,AFNE01.JPG,AFNE01.JPG,AFNE01.JPG,AFNE01.JPG,4,1,41,9,,,,,,,,,,,,,,,,,,,,,,,AMSA05.jpg,AMSA09.jpg,AMNE12.jpg,AMNE05.jpg,AMNE05.jpg,MN,1,num_4,32,num_6,0.883484567457,,,2017_Sep_05_1208,59.9971327229,MAFE4ImagesEEG,001,201459,
AFNE01.JPG,AFNE01.JPG,AFNE01.JPG,AFNE01.JPG,AFNE01.JPG,AFNE01.JPG,4,2,42,5,,,,,,,,,,,,,,,,,,,,,,,AMNE15.jpg,AMSA09.jpg,AMSA19.jpg,AMNE06.jpg,AMNE15.jpg,MN,1,num_8,32,num_4,1.18349454243,,,2017_Sep_05_1208,59.9971327229,MAFE4ImagesEEG,001,201459,
AFNE01.JPG,AFNE01.JPG,AFNE01.JPG,AFNE01.JPG,AFNE01.JPG,AFNE01.JPG,4,3,43,0,,,,,,,,,,,,,,,,,,,,,,,AMSA12.jpg,AMNE07.jpg,AMNE08.jpg,AMSA16.jpg,AMSA16.jpg,MS,2,num_4,32,num_6,0.966778423055,,,2017_Sep_05_1208,59.9971327229,MAFE4ImagesEEG,001,201459,
AFNE01.JPG,AFNE01.JPG,AFNE01.JPG,AFNE01.JPG,AFNE01.JPG,AFNE01.JPG,4,4,44,1,,,,,,,,,,,,,,,,,,,,,,,AMNE04.jpg,AMNE12.jpg,AMSA14.jpg,AMSA07.jpg,AMNE12.jpg,MN,1,num_6,32,num_4,0.533489554946,,,2017_Sep_05_1208,59.9971327229,MAFE4ImagesEEG,001,201459,
AFNE01.JPG,AFNE01.JPG,AFNE01.JPG,AFNE01.JPG,AFNE01.JPG,AFNE01.JPG,4,5,45,7,,,,,,,,,,,,,,,,,,,,,,,AMSA09.jpg,AMSA19.jpg,AMNE18.jpg,AMNE01.jpg,AMNE01.jpg,MN,1,num_4,32,num_2,1.35013293056,,,2017_Sep_05_1208,59.9971327229,MAFE4ImagesEEG,001,201459,
AFNE01.JPG,AFNE01.JPG,AFNE01.JPG,AFNE01.JPG,AFNE01.JPG,AFNE01.JPG,4,6,46,2,,,,,,,,,,,,,,,,,,,,,,,AMNE04.jpg,AMNE18.jpg,AMSA01.jpg,AMSA07.jpg,AMNE18.jpg,MN,1,num_6,16,num_6,0.966828137694,,,2017_Sep_05_1208,59.9971327229,MAFE4ImagesEEG,001,201459,
AFNE01.JPG,AFNE01.JPG,AFNE01.JPG,AFNE01.JPG,AFNE01.JPG,AFNE01.JPG,4,7,47,4,,,,,,,,,,,,,,,,,,,,,,,AMNE02.jpg,AMSA16.jpg,AMSA19.jpg,AMNE12.jpg,AMSA16.jpg,MS,2,num_6,16,num_6,1.30012736574,,,2017_Sep_05_1208,59.9971327229,MAFE4ImagesEEG,001,201459,
AFNE01.JPG,AFNE01.JPG,AFNE01.JPG,AFNE01.JPG,AFNE01.JPG,AFNE01.JPG,4,8,48,6,,,,,,,,,,,,,,,,,,,,,,,AMSA17.jpg,AMNE05.jpg,AMSA19.jpg,AMNE02.jpg,AMSA17.jpg,MS,2,num_8,16,num_8,1.0001250885,,,2017_Sep_05_1208,59.9971327229,MAFE4ImagesEEG,001,201459,
AFNE01.JPG,AFNE01.JPG,AFNE01.JPG,AFNE01.JPG,AFNE01.JPG,AFNE01.JPG,4,9,49,3,,,,,,,,,,,,,,,,,,,,,,,AMSA13.jpg,AMNE03.jpg,AMNE14.jpg,AMSA14.jpg,AMSA14.jpg,MS,2,num_4,16,num_4,0.50019677385,,,2017_Sep_05_1208,59.9971327229,MAFE4ImagesEEG,001,201459,
AFNE01.JPG,AFNE01.JPG,AFNE01.JPG,AFNE01.JPG,AFNE01.JPG,AFNE01.JPG,5,0,50,3,,,,,,,,,,,,,,,,,,,,,,,AMSA10.jpg,AMNE14.jpg,AMNE04.jpg,AMSA18.jpg,AMNE14.jpg,MN,1,num_6,16,num_6,0.81680214178,,,2017_Sep_05_1208,59.9971327229,MAFE4ImagesEEG,001,201459,
AFNE01.JPG,AFNE01.JPG,AFNE01.JPG,AFNE01.JPG,AFNE01.JPG,AFNE01.JPG,5,1,51,1,,,,,,,,,,,,,,,,,,,,,,,AMSA05.jpg,AMSA16.jpg,AMNE18.jpg,AMNE09.jpg,AMNE09.jpg,MN,1,num_4,32,num_2,1.11676079838,,,2017_Sep_05_1208,59.9971327229,MAFE4ImagesEEG,001,201459,
AFNE01.JPG,AFNE01.JPG,AFNE01.JPG,AFNE01.JPG,AFNE01.JPG,AFNE01.JPG,5,2,52,2,,,,,,,,,,,,,,,,,,,,,,,AMSA14.jpg,AMSA02.jpg,AMNE02.jpg,AMNE14.jpg,AMSA14.jpg,MS,2,num_8,16,num_8,0.733541001566,,,2017_Sep_05_1208,59.9971327229,MAFE4ImagesEEG,001,201459,
AFNE01.JPG,AFNE01.JPG,AFNE01.JPG,AFNE01.JPG,AFNE01.JPG,AFNE01.JPG,5,3,53,7,,,,,,,,,,,,,,,,,,,,,,,AMSA16.jpg,AMSA02.jpg,AMNE01.jpg,AMNE16.jpg,AMNE01.jpg,MN,1,num_2,32,num_6,1.00014337065,,,2017_Sep_05_1208,59.9971327229,MAFE4ImagesEEG,001,201459,
AFNE01.JPG,AFNE01.JPG,AFNE01.JPG,AFNE01.JPG,AFNE01.JPG,AFNE01.JPG,5,4,54,6,,,,,,,,,,,,,,,,,,,,,,,AMNE13.jpg,AMSA05.jpg,AMNE16.jpg,AMSA13.jpg,AMSA13.jpg,MS,2,num_4,16,num_4,0.766794652503,,,2017_Sep_05_1208,59.9971327229,MAFE4ImagesEEG,001,201459,
AFNE01.JPG,AFNE01.JPG,AFNE01.JPG,AFNE01.JPG,AFNE01.JPG,AFNE01.JPG,5,5,55,5,,,,,,,,,,,,,,,,,,,,,,,AMNE06.jpg,AMSA02.jpg,AMSA09.jpg,AMNE20.jpg,AMNE20.jpg,MN,1,num_4,32,num_8,0.80017692002,,,2017_Sep_05_1208,59.9971327229,MAFE4ImagesEEG,001,201459,
AFNE01.JPG,AFNE01.JPG,AFNE01.JPG,AFNE01.JPG,AFNE01.JPG,AFNE01.JPG,5,6,56,4,,,,,,,,,,,,,,,,,,,,,,,AMSA06.jpg,AMNE15.jpg,AMSA08.jpg,AMNE16.jpg,AMNE15.jpg,MN,1,num_6,16,num_6,0.766840197495,,,2017_Sep_05_1208,59.9971327229,MAFE4ImagesEEG,001,201459,
AFNE01.JPG,AFNE01.JPG,AFNE01.JPG,AFNE01.JPG,AFNE01.JPG,AFNE01.JPG,5,7,57,8,,,,,,,,,,,,,,,,,,,,,,,AMNE16.jpg,AMNE19.jpg,AMSA03.jpg,AMSA07.jpg,AMNE19.jpg,MN,1,num_6,16,num_6,0.666724506766,,,2017_Sep_05_1208,59.9971327229,MAFE4ImagesEEG,001,201459,
AFNE01.JPG,AFNE01.JPG,AFNE01.JPG,AFNE01.JPG,AFNE01.JPG,AFNE01.JPG,5,8,58,9,,,,,,,,,,,,,,,,,,,,,,,AMNE13.jpg,AMSA11.jpg,AMSA13.jpg,AMNE11.jpg,AMSA11.jpg,MS,2,num_6,16,num_6,1.26678775658,,,2017_Sep_05_1208,59.9971327229,MAFE4ImagesEEG,001,201459,
AFNE01.JPG,AFNE01.JPG,AFNE01.JPG,AFNE01.JPG,AFNE01.JPG,AFNE01.JPG,5,9,59,0,,,,,,,,,,,,,,,,,,,,,,,AMNE04.jpg,AMSA08.jpg,AMSA07.jpg,AMNE14.jpg,AMSA08.jpg,MS,2,num_6,16,num_6,0.900022548041,,,2017_Sep_05_1208,59.9971327229,MAFE4ImagesEEG,001,201459,
,,,,,,,,,,,,,,,,,,,,,,,,,,,,,,,,,,,,,,,,,,,space,7.49960404687,2017_Sep_05_1208,59.9971327229,MAFE4ImagesEEG,001,201459,
AFNE01.JPG,AFNE01.JPG,AFNE01.JPG,AFNE01.JPG,AFNE01.JPG,AFNE01.JPG,,,,,0,0,0,4,,,,,,,,,,,,,,,,,,,AFNE03.jpg,AFNE19.jpg,AFSA03.jpg,AFSA15.jpg,AFSA03.jpg,FS,4,num_2,16,num_2,0.833505944756,,,2017_Sep_05_1208,59.9971327229,MAFE4ImagesEEG,001,201459,
AFNE01.JPG,AFNE01.JPG,AFNE01.JPG,AFNE01.JPG,AFNE01.JPG,AFNE01.JPG,,,,,0,1,1,3,,,,,,,,,,,,,,,,,,,AFNE04.jpg,AFNE15.jpg,AFSA01.jpg,AFSA12.jpg,AFNE15.jpg,FN,3,num_6,32,num_8,0.749825597799,,,2017_Sep_05_1208,59.9971327229,MAFE4ImagesEEG,001,201459,
AFNE01.JPG,AFNE01.JPG,AFNE01.JPG,AFNE01.JPG,AFNE01.JPG,AFNE01.JPG,,,,,0,2,2,1,,,,,,,,,,,,,,,,,,,AFNE19.jpg,AFSA01.jpg,AFNE17.jpg,AFSA15.jpg,AFNE17.jpg,FN,3,num_2,32,num_8,0.900101770705,,,2017_Sep_05_1208,59.9971327229,MAFE4ImagesEEG,001,201459,
AFNE01.JPG,AFNE01.JPG,AFNE01.JPG,AFNE01.JPG,AFNE01.JPG,AFNE01.JPG,,,,,0,3,3,6,,,,,,,,,,,,,,,,,,,AFSA17.jpg,AFSA02.jpg,AFNE20.jpg,AFNE14.jpg,AFNE20.jpg,FN,3,num_2,16,num_2,0.800132978708,,,2017_Sep_05_1208,59.9971327229,MAFE4ImagesEEG,001,201459,
AFNE01.JPG,AFNE01.JPG,AFNE01.JPG,AFNE01.JPG,AFNE01.JPG,AFNE01.JPG,,,,,0,4,4,9,,,,,,,,,,,,,,,,,,,AFSA02.jpg,AFSA13.jpg,AFNE17.jpg,AFNE19.jpg,AFSA13.jpg,FS,4,num_6,16,num_6,0.733459533716,,,2017_Sep_05_1208,59.9971327229,MAFE4ImagesEEG,001,201459,
AFNE01.JPG,AFNE01.JPG,AFNE01.JPG,AFNE01.JPG,AFNE01.JPG,AFNE01.JPG,,,,,0,5,5,8,,,,,,,,,,,,,,,,,,,AFSA01.jpg,AFNE14.jpg,AFNE05.jpg,AFSA18.jpg,AFNE05.jpg,FN,3,num_2,16,num_2,0.866823422839,,,2017_Sep_05_1208,59.9971327229,MAFE4ImagesEEG,001,201459,
AFNE01.JPG,AFNE01.JPG,AFNE01.JPG,AFNE01.JPG,AFNE01.JPG,AFNE01.JPG,,,,,0,6,6,2,,,,,,,,,,,,,,,,,,,AFNE17.jpg,AFNE12.jpg,AFSA15.jpg,AFSA09.jpg,AFNE12.jpg,FN,3,num_6,32,num_8,0.933287104068,,,2017_Sep_05_1208,59.9971327229,MAFE4ImagesEEG,001,201459,
AFNE01.JPG,AFNE01.JPG,AFNE01.JPG,AFNE01.JPG,AFNE01.JPG,AFNE01.JPG,,,,,0,7,7,5,,,,,,,,,,,,,,,,,,,AFNE14.jpg,AFNE13.jpg,AFSA09.jpg,AFSA03.jpg,AFSA03.jpg,FS,4,num_4,32,num_8,0.900079960411,,,2017_Sep_05_1208,59.9971327229,MAFE4ImagesEEG,001,201459,
AFNE01.JPG,AFNE01.JPG,AFNE01.JPG,AFNE01.JPG,AFNE01.JPG,AFNE01.JPG,,,,,0,8,8,0,,,,,,,,,,,,,,,,,,,AFNE08.jpg,AFNE20.jpg,AFSA04.jpg,AFSA01.jpg,AFSA04.jpg,FS,4,num_2,16,num_2,0.84995187301,,,2017_Sep_05_1208,59.9971327229,MAFE4ImagesEEG,001,201459,
AFNE01.JPG,AFNE01.JPG,AFNE01.JPG,AFNE01.JPG,AFNE01.JPG,AFNE01.JPG,,,,,0,9,9,7,,,,,,,,,,,,,,,,,,,AFNE08.jpg,AFSA05.jpg,AFNE13.jpg,AFSA18.jpg,AFSA18.jpg,FS,4,num_4,32,num_8,0.766790482856,,,2017_Sep_05_1208,59.9971327229,MAFE4ImagesEEG,001,201459,
AFNE01.JPG,AFNE01.JPG,AFNE01.JPG,AFNE01.JPG,AFNE01.JPG,AFNE01.JPG,,,,,1,0,10,8,,,,,,,,,,,,,,,,,,,AFNE08.jpg,AFSA01.jpg,AFNE20.jpg,AFSA17.jpg,AFNE20.jpg,FN,3,num_2,16,num_2,0.816815612838,,,2017_Sep_05_1208,59.9971327229,MAFE4ImagesEEG,001,201459,
AFNE01.JPG,AFNE01.JPG,AFNE01.JPG,AFNE01.JPG,AFNE01.JPG,AFNE01.JPG,,,,,1,1,11,9,,,,,,,,,,,,,,,,,,,AFNE08.jpg,AFSA05.jpg,AFSA18.jpg,AFNE11.jpg,AFSA05.jpg,FS,4,num_6,16,num_6,0.631678241596,,,2017_Sep_05_1208,59.9971327229,MAFE4ImagesEEG,001,201459,
AFNE01.JPG,AFNE01.JPG,AFNE01.JPG,AFNE01.JPG,AFNE01.JPG,AFNE01.JPG,,,,,1,2,12,2,,,,,,,,,,,,,,,,,,,AFNE14.jpg,AFSA06.jpg,AFSA16.jpg,AFNE09.jpg,AFNE09.jpg,FN,3,num_4,32,num_6,0.966698879609,,,2017_Sep_05_1208,59.9971327229,MAFE4ImagesEEG,001,201459,
AFNE01.JPG,AFNE01.JPG,AFNE01.JPG,AFNE01.JPG,AFNE01.JPG,AFNE01.JPG,,,,,1,3,13,1,,,,,,,,,,,,,,,,,,,AFSA16.jpg,AFSA18.jpg,AFNE06.jpg,AFNE01.jpg,AFNE06.jpg,FN,3,num_2,32,num_4,0.866859987145,,,2017_Sep_05_1208,59.9971327229,MAFE4ImagesEEG,001,201459,
AFNE01.JPG,AFNE01.JPG,AFNE01.JPG,AFNE01.JPG,AFNE01.JPG,AFNE01.JPG,,,,,1,4,14,3,,,,,,,,,,,,,,,,,,,AFSA07.jpg,AFSA03.jpg,AFNE08.jpg,AFNE04.jpg,AFSA07.jpg,FS,4,num_8,16,num_8,0.616748449975,,,2017_Sep_05_1208,59.9971327229,MAFE4ImagesEEG,001,201459,
AFNE01.JPG,AFNE01.JPG,AFNE01.JPG,AFNE01.JPG,AFNE01.JPG,AFNE01.JPG,,,,,1,5,15,6,,,,,,,,,,,,,,,,,,,AFSA02.jpg,AFNE08.jpg,AFSA16.jpg,AFNE15.jpg,AFSA16.jpg,FS,4,num_2,16,num_2,1.11679672124,,,2017_Sep_05_1208,59.9971327229,MAFE4ImagesEEG,001,201459,
AFNE01.JPG,AFNE01.JPG,AFNE01.JPG,AFNE01.JPG,AFNE01.JPG,AFNE01.JPG,,,,,1,6,16,7,,,,,,,,,,,,,,,,,,,AFNE15.jpg,AFSA07.jpg,AFSA03.jpg,AFNE13.jpg,AFSA03.jpg,FS,4,num_2,16,num_2,0.766753277043,,,2017_Sep_05_1208,59.9971327229,MAFE4ImagesEEG,001,201459,
AFNE01.JPG,AFNE01.JPG,AFNE01.JPG,AFNE01.JPG,AFNE01.JPG,AFNE01.JPG,,,,,1,7,17,5,,,,,,,,,,,,,,,,,,,AFSA12.jpg,AFSA11.jpg,AFNE01.jpg,AFNE09.jpg,AFSA11.jpg,FS,4,num_6,32,num_2,1.33340026101,,,2017_Sep_05_1208,59.9971327229,MAFE4ImagesEEG,001,201459,
AFNE01.JPG,AFNE01.JPG,AFNE01.JPG,AFNE01.JPG,AFNE01.JPG,AFNE01.JPG,,,,,1,8,18,4,,,,,,,,,,,,,,,,,,,AFSA20.jpg,AFNE08.jpg,AFNE15.jpg,AFSA01.jpg,AFNE08.jpg,FN,3,num_6,32,num_8,1.66656125023,,,2017_Sep_05_1208,59.9971327229,MAFE4ImagesEEG,001,201459,
AFNE01.JPG,AFNE01.JPG,AFNE01.JPG,AFNE01.JPG,AFNE01.JPG,AFNE01.JPG,,,,,1,9,19,0,,,,,,,,,,,,,,,,,,,AFSA11.jpg,AFNE16.jpg,AFNE19.jpg,AFSA15.jpg,AFSA15.jpg,FS,4,num_4,32,num_8,0.816826517985,,,2017_Sep_05_1208,59.9971327229,MAFE4ImagesEEG,001,201459,
AFNE01.JPG,AFNE01.JPG,AFNE01.JPG,AFNE01.JPG,AFNE01.JPG,AFNE01.JPG,,,,,2,0,20,9,,,,,,,,,,,,,,,,,,,AFNE12.jpg,AFNE16.jpg,AFSA06.jpg,AFSA12.jpg,AFSA06.jpg,FS,4,num_2,16,num_2,0.850092356966,,,2017_Sep_05_1208,59.9971327229,MAFE4ImagesEEG,001,201459,
AFNE01.JPG,AFNE01.JPG,AFNE01.JPG,AFNE01.JPG,AFNE01.JPG,AFNE01.JPG,,,,,2,1,21,1,,,,,,,,,,,,,,,,,,,AFNE19.jpg,AFSA19.jpg,AFSA12.jpg,AFNE01.jpg,AFNE19.jpg,FN,3,num_8,16,num_8,0.55015711434,,,2017_Sep_05_1208,59.9971327229,MAFE4ImagesEEG,001,201459,
AFNE01.JPG,AFNE01.JPG,AFNE01.JPG,AFNE01.JPG,AFNE01.JPG,AFNE01.JPG,,,,,2,2,22,5,,,,,,,,,,,,,,,,,,,AFNE20.jpg,AFSA12.jpg,AFSA01.jpg,AFNE12.jpg,AFSA01.jpg,FS,4,num_2,16,num_2,0.783474079275,,,2017_Sep_05_1208,59.9971327229,MAFE4ImagesEEG,001,201459,
AFNE01.JPG,AFNE01.JPG,AFNE01.JPG,AFNE01.JPG,AFNE01.JPG,AFNE01.JPG,,,,,2,3,23,0,,,,,,,,,,,,,,,,,,,AFSA05.jpg,AFSA20.jpg,AFNE09.jpg,AFNE06.jpg,AFSA20.jpg,FS,4,num_6,32,num_2,1.03341530374,,,2017_Sep_05_1208,59.9971327229,MAFE4ImagesEEG,001,201459,
AFNE01.JPG,AFNE01.JPG,AFNE01.JPG,AFNE01.JPG,AFNE01.JPG,AFNE01.JPG,,,,,2,4,24,2,,,,,,,,,,,,,,,,,,,AFNE04.jpg,AFNE03.jpg,AFSA18.jpg,AFSA06.jpg,AFSA06.jpg,FS,4,num_4,32,num_6,1.45006034715,,,2017_Sep_05_1208,59.9971327229,MAFE4ImagesEEG,001,201459,
AFNE01.JPG,AFNE01.JPG,AFNE01.JPG,AFNE01.JPG,AFNE01.JPG,AFNE01.JPG,,,,,2,5,25,8,,,,,,,,,,,,,,,,,,,AFSA05.jpg,AFNE05.jpg,AFNE08.jpg,AFSA01.jpg,AFNE08.jpg,FN,3,num_2,16,num_2,0.950124014053,,,2017_Sep_05_1208,59.9971327229,MAFE4ImagesEEG,001,201459,
AFNE01.JPG,AFNE01.JPG,AFNE01.JPG,AFNE01.JPG,AFNE01.JPG,AFNE01.JPG,,,,,2,6,26,7,,,,,,,,,,,,,,,,,,,AFNE05.jpg,AFSA15.jpg,AFNE20.jpg,AFSA01.jpg,AFSA01.jpg,FS,4,num_4,16,num_4,0.816822989844,,,2017_Sep_05_1208,59.9971327229,MAFE4ImagesEEG,001,201459,
AFNE01.JPG,AFNE01.JPG,AFNE01.JPG,AFNE01.JPG,AFNE01.JPG,AFNE01.JPG,,,,,2,7,27,3,,,,,,,,,,,,,,,,,,,AFSA15.jpg,AFNE10.jpg,AFSA09.jpg,AFNE13.jpg,AFSA09.jpg,FS,4,num_2,16,num_2,0.93347537826,,,2017_Sep_05_1208,59.9971327229,MAFE4ImagesEEG,001,201459,
AFNE01.JPG,AFNE01.JPG,AFNE01.JPG,AFNE01.JPG,AFNE01.JPG,AFNE01.JPG,,,,,2,8,28,6,,,,,,,,,,,,,,,,,,,AFSA08.jpg,AFSA03.jpg,AFNE17.jpg,AFNE07.jpg,AFSA08.jpg,FS,4,num_8,32,num_2,1.46671603917,,,2017_Sep_05_1208,59.9971327229,MAFE4ImagesEEG,001,201459,
AFNE01.JPG,AFNE01.JPG,AFNE01.JPG,AFNE01.JPG,AFNE01.JPG,AFNE01.JPG,,,,,2,9,29,4,,,,,,,,,,,,,,,,,,,AFSA05.jpg,AFSA10.jpg,AFNE01.jpg,AFNE14.jpg,AFSA05.jpg,FS,4,num_8,16,num_8,0.766790162132,,,2017_Sep_05_1208,59.9971327229,MAFE4ImagesEEG,001,201459,
AFNE01.JPG,AFNE01.JPG,AFNE01.JPG,AFNE01.JPG,AFNE01.JPG,AFNE01.JPG,,,,,3,0,30,5,,,,,,,,,,,,,,,,,,,AFSA04.jpg,AFNE15.jpg,AFSA03.jpg,AFNE17.jpg,AFNE15.jpg,FN,3,num_6,16,num_6,1.00014786102,,,2017_Sep_05_1208,59.9971327229,MAFE4ImagesEEG,001,201459,
AFNE01.JPG,AFNE01.JPG,AFNE01.JPG,AFNE01.JPG,AFNE01.JPG,AFNE01.JPG,,,,,3,1,31,0,,,,,,,,,,,,,,,,,,,AFNE12.jpg,AFSA05.jpg,AFNE09.jpg,AFSA18.jpg,AFNE12.jpg,FN,3,num_8,16,num_8,0.783421798726,,,2017_Sep_05_1208,59.9971327229,MAFE4ImagesEEG,001,201459,
AFNE01.JPG,AFNE01.JPG,AFNE01.JPG,AFNE01.JPG,AFNE01.JPG,AFNE01.JPG,,,,,3,2,32,4,,,,,,,,,,,,,,,,,,,AFNE06.jpg,AFSA02.jpg,AFNE07.jpg,AFSA19.jpg,AFSA19.jpg,FS,4,num_4,32,num_6,0.816776161839,,,2017_Sep_05_1208,59.9971327229,MAFE4ImagesEEG,001,201459,
AFNE01.JPG,AFNE01.JPG,AFNE01.JPG,AFNE01.JPG,AFNE01.JPG,AFNE01.JPG,,,,,3,3,33,1,,,,,,,,,,,,,,,,,,,AFNE18.jpg,AFSA15.jpg,AFSA12.jpg,AFNE02.jpg,AFSA12.jpg,FS,4,num_2,16,num_2,0.58354226849,,,2017_Sep_05_1208,59.9971327229,MAFE4ImagesEEG,001,201459,
AFNE01.JPG,AFNE01.JPG,AFNE01.JPG,AFNE01.JPG,AFNE01.JPG,AFNE01.JPG,,,,,3,4,34,2,,,,,,,,,,,,,,,,,,,AFNE19.jpg,AFNE05.jpg,AFSA06.jpg,AFSA18.jpg,AFSA18.jpg,FS,4,num_4,32,num_6,0.783442326065,,,2017_Sep_05_1208,59.9971327229,MAFE4ImagesEEG,001,201459,
AFNE01.JPG,AFNE01.JPG,AFNE01.JPG,AFNE01.JPG,AFNE01.JPG,AFNE01.JPG,,,,,3,5,35,3,,,,,,,,,,,,,,,,,,,AFSA05.jpg,AFSA20.jpg,AFNE09.jpg,AFNE07.jpg,AFSA20.jpg,FS,4,num_6,16,num_6,0.850086583698,,,2017_Sep_05_1208,59.9971327229,MAFE4ImagesEEG,001,201459,
AFNE01.JPG,AFNE01.JPG,AFNE01.JPG,AFNE01.JPG,AFNE01.JPG,AFNE01.JPG,,,,,3,6,36,9,,,,,,,,,,,,,,,,,,,AFNE14.jpg,AFNE06.jpg,AFSA13.jpg,AFSA10.jpg,AFSA13.jpg,FS,4,num_2,16,num_2,1.46673817025,,,2017_Sep_05_1208,59.9971327229,MAFE4ImagesEEG,001,201459,
AFNE01.JPG,AFNE01.JPG,AFNE01.JPG,AFNE01.JPG,AFNE01.JPG,AFNE01.JPG,,,,,3,7,37,6,,,,,,,,,,,,,,,,,,,AFSA20.jpg,AFNE12.jpg,AFSA19.jpg,AFNE08.jpg,AFSA20.jpg,FS,4,num_8,16,num_8,0.516812052636,,,2017_Sep_05_1208,59.9971327229,MAFE4ImagesEEG,001,201459,
AFNE01.JPG,AFNE01.JPG,AFNE01.JPG,AFNE01.JPG,AFNE01.JPG,AFNE01.JPG,,,,,3,8,38,7,,,,,,,,,,,,,,,,,,,AFSA01.jpg,AFSA02.jpg,AFNE16.jpg,AFNE06.jpg,AFNE06.jpg,FN,3,num_4,32,num_6,0.883478473406,,,2017_Sep_05_1208,59.9971327229,MAFE4ImagesEEG,001,201459,
AFNE01.JPG,AFNE01.JPG,AFNE01.JPG,AFNE01.JPG,AFNE01.JPG,AFNE01.JPG,,,,,3,9,39,8,,,,,,,,,,,,,,,,,,,AFNE01.jpg,AFSA14.jpg,AFNE16.jpg,AFSA18.jpg,AFSA18.jpg,FS,4,num_4,32,num_8,0.900095676654,,,2017_Sep_05_1208,59.9971327229,MAFE4ImagesEEG,001,201459,
AFNE01.JPG,AFNE01.JPG,AFNE01.JPG,AFNE01.JPG,AFNE01.JPG,AFNE01.JPG,,,,,4,0,40,9,,,,,,,,,,,,,,,,,,,AFNE03.jpg,AFNE19.jpg,AFSA12.jpg,AFSA03.jpg,AFSA03.jpg,FS,4,num_4,32,num_8,0.866842346499,,,2017_Sep_05_1208,59.9971327229,MAFE4ImagesEEG,001,201459,
AFNE01.JPG,AFNE01.JPG,AFNE01.JPG,AFNE01.JPG,AFNE01.JPG,AFNE01.JPG,,,,,4,1,41,4,,,,,,,,,,,,,,,,,,,AFSA10.jpg,AFNE12.jpg,AFNE10.jpg,AFSA08.jpg,AFNE10.jpg,FN,3,num_2,16,num_2,0.66675144888,,,2017_Sep_05_1208,59.9971327229,MAFE4ImagesEEG,001,201459,
AFNE01.JPG,AFNE01.JPG,AFNE01.JPG,AFNE01.JPG,AFNE01.JPG,AFNE01.JPG,,,,,4,2,42,2,,,,,,,,,,,,,,,,,,,AFNE04.jpg,AFNE01.jpg,AFSA13.jpg,AFSA05.jpg,AFSA13.jpg,FS,4,num_2,32,num_6,0.800163448963,,,2017_Sep_05_1208,59.9971327229,MAFE4ImagesEEG,001,201459,
AFNE01.JPG,AFNE01.JPG,AFNE01.JPG,AFNE01.JPG,AFNE01.JPG,AFNE01.JPG,,,,,4,3,43,5,,,,,,,,,,,,,,,,,,,AFSA05.jpg,AFNE15.jpg,AFSA06.jpg,AFNE05.jpg,AFNE15.jpg,FN,3,num_6,16,num_6,0.850103582838,,,2017_Sep_05_1208,59.9971327229,MAFE4ImagesEEG,001,201459,
AFNE01.JPG,AFNE01.JPG,AFNE01.JPG,AFNE01.JPG,AFNE01.JPG,AFNE01.JPG,,,,,4,4,44,0,,,,,,,,,,,,,,,,,,,AFSA04.jpg,AFNE10.jpg,AFSA13.jpg,AFNE05.jpg,AFSA04.jpg,FS,4,num_8,16,num_8,0.733497381036,,,2017_Sep_05_1208,59.9971327229,MAFE4ImagesEEG,001,201459,
AFNE01.JPG,AFNE01.JPG,AFNE01.JPG,AFNE01.JPG,AFNE01.JPG,AFNE01.JPG,,,,,4,5,45,3,,,,,,,,,,,,,,,,,,,AFSA01.jpg,AFNE01.jpg,AFSA14.jpg,AFNE16.jpg,AFSA14.jpg,FS,4,num_2,16,num_2,0.983519752626,,,2017_Sep_05_1208,59.9971327229,MAFE4ImagesEEG,001,201459,
AFNE01.JPG,AFNE01.JPG,AFNE01.JPG,AFNE01.JPG,AFNE01.JPG,AFNE01.JPG,,,,,4,6,46,6,,,,,,,,,,,,,,,,,,,AFNE04.jpg,AFNE07.jpg,AFSA15.jpg,AFSA12.jpg,AFNE04.jpg,FN,3,num_8,16,num_8,0.833457513072,,,2017_Sep_05_1208,59.9971327229,MAFE4ImagesEEG,001,201459,
AFNE01.JPG,AFNE01.JPG,AFNE01.JPG,AFNE01.JPG,AFNE01.JPG,AFNE01.JPG,,,,,4,7,47,8,,,,,,,,,,,,,,,,,,,AFSA15.jpg,AFNE11.jpg,AFNE01.jpg,AFSA04.jpg,AFNE11.jpg,FN,3,num_6,16,num_6,1.15015814069,,,2017_Sep_05_1208,59.9971327229,MAFE4ImagesEEG,001,201459,
AFNE01.JPG,AFNE01.JPG,AFNE01.JPG,AFNE01.JPG,AFNE01.JPG,AFNE01.JPG,,,,,4,8,48,1,,,,,,,,,,,,,,,,,,,AFSA06.jpg,AFNE17.jpg,AFNE19.jpg,AFSA17.jpg,AFNE17.jpg,FN,3,num_6,16,num_6,1.26675055077,,,2017_Sep_05_1208,59.9971327229,MAFE4ImagesEEG,001,201459,
AFNE01.JPG,AFNE01.JPG,AFNE01.JPG,AFNE01.JPG,AFNE01.JPG,AFNE01.JPG,,,,,4,9,49,7,,,,,,,,,,,,,,,,,,,AFNE16.jpg,AFSA15.jpg,AFNE09.jpg,AFSA08.jpg,AFNE09.jpg,FN,3,num_2,16,num_2,1.93327684037,,,2017_Sep_05_1208,59.9971327229,MAFE4ImagesEEG,001,201459,
AFNE01.JPG,AFNE01.JPG,AFNE01.JPG,AFNE01.JPG,AFNE01.JPG,AFNE01.JPG,,,,,5,0,50,3,,,,,,,,,,,,,,,,,,,AFSA20.jpg,AFNE09.jpg,AFNE01.jpg,AFSA07.jpg,AFSA07.jpg,FS,4,num_4,32,num_8,1.10008457908,,,2017_Sep_05_1208,59.9971327229,MAFE4ImagesEEG,001,201459,
AFNE01.JPG,AFNE01.JPG,AFNE01.JPG,AFNE01.JPG,AFNE01.JPG,AFNE01.JPG,,,,,5,1,51,9,,,,,,,,,,,,,,,,,,,AFSA12.jpg,AFNE02.jpg,AFSA02.jpg,AFNE01.jpg,AFNE02.jpg,FN,3,num_6,16,num_6,0.950153522077,,,2017_Sep_05_1208,59.9971327229,MAFE4ImagesEEG,001,201459,
AFNE01.JPG,AFNE01.JPG,AFNE01.JPG,AFNE01.JPG,AFNE01.JPG,AFNE01.JPG,,,,,5,2,52,2,,,,,,,,,,,,,,,,,,,AFSA07.jpg,AFNE12.jpg,AFSA14.jpg,AFNE07.jpg,AFSA07.jpg,FS,4,num_8,16,num_8,0.583514043421,,,2017_Sep_05_1208,59.9971327229,MAFE4ImagesEEG,001,201459,
AFNE01.JPG,AFNE01.JPG,AFNE01.JPG,AFNE01.JPG,AFNE01.JPG,AFNE01.JPG,,,,,5,3,53,8,,,,,,,,,,,,,,,,,,,AFSA18.jpg,AFSA19.jpg,AFNE03.jpg,AFNE20.jpg,AFNE20.jpg,FN,3,num_4,32,num_8,0.816789953678,,,2017_Sep_05_1208,59.9971327229,MAFE4ImagesEEG,001,201459,
AFNE01.JPG,AFNE01.JPG,AFNE01.JPG,AFNE01.JPG,AFNE01.JPG,AFNE01.JPG,,,,,5,4,54,1,,,,,,,,,,,,,,,,,,,AFSA11.jpg,AFSA17.jpg,AFNE20.jpg,AFNE08.jpg,AFNE20.jpg,FN,3,num_2,16,num_2,0.78366331564,,,2017_Sep_05_1208,59.9971327229,MAFE4ImagesEEG,001,201459,
AFNE01.JPG,AFNE01.JPG,AFNE01.JPG,AFNE01.JPG,AFNE01.JPG,AFNE01.JPG,,,,,5,5,55,4,,,,,,,,,,,,,,,,,,,AFSA07.jpg,AFNE13.jpg,AFSA03.jpg,AFNE14.jpg,AFSA03.jpg,FS,4,num_2,16,num_2,1.35003702936,,,2017_Sep_05_1208,59.9971327229,MAFE4ImagesEEG,001,201459,
AFNE01.JPG,AFNE01.JPG,AFNE01.JPG,AFNE01.JPG,AFNE01.JPG,AFNE01.JPG,,,,,5,6,56,5,,,,,,,,,,,,,,,,,,,AFSA11.jpg,AFSA19.jpg,AFNE11.jpg,AFNE05.jpg,AFSA11.jpg,FS,4,num_8,16,num_8,0.750123564969,,,2017_Sep_05_1208,59.9971327229,MAFE4ImagesEEG,001,201459,
AFNE01.JPG,AFNE01.JPG,AFNE01.JPG,AFNE01.JPG,AFNE01.JPG,AFNE01.JPG,,,,,5,7,57,7,,,,,,,,,,,,,,,,,,,AFNE11.jpg,AFSA10.jpg,AFNE19.jpg,AFSA03.jpg,AFNE19.jpg,FN,3,num_2,32,num_8,1.21664331149,,,2017_Sep_05_1208,59.9971327229,MAFE4ImagesEEG,001,201459,
AFNE01.JPG,AFNE01.JPG,AFNE01.JPG,AFNE01.JPG,AFNE01.JPG,AFNE01.JPG,,,,,5,8,58,0,,,,,,,,,,,,,,,,,,,AFNE11.jpg,AFSA20.jpg,AFNE17.jpg,AFSA12.jpg,AFSA20.jpg,FS,4,num_6,16,num_6,0.98349762155,,,2017_Sep_05_1208,59.9971327229,MAFE4ImagesEEG,001,201459,
AFNE01.JPG,AFNE01.JPG,AFNE01.JPG,AFNE01.JPG,AFNE01.JPG,AFNE01.JPG,,,,,5,9,59,6,,,,,,,,,,,,,,,,,,,AFNE13.jpg,AFSA06.jpg,AFSA04.jpg,AFNE03.jpg,AFNE13.jpg,FN,3,num_8,16,num_8,1.60004208109,,,2017_Sep_05_1208,59.9971327229,MAFE4ImagesEEG,001,201459,
,,,,,,,,,,,,,,,,,,,,,,,,,,,,,,,,,,,,,,,,,,,space,16.9824821597,2017_Sep_05_1208,59.9971327229,MAFE4ImagesEEG,001,201459,
AFNE01.JPG,AFNE01.JPG,AFNE01.JPG,AFNE01.JPG,AFNE01.JPG,AFNE01.JPG,,,,,,,,,0,0,0,4,,,,,,,,,,,,,,,AMSA19.jpg,AMSA02.jpg,AMNE08.jpg,AMNE06.jpg,AMSA02.jpg,MS,2,num_6,16,num_6,0.766651923361,,,2017_Sep_05_1208,59.9971327229,MAFE4ImagesEEG,001,201459,
AFNE01.JPG,AFNE01.JPG,AFNE01.JPG,AFNE01.JPG,AFNE01.JPG,AFNE01.JPG,,,,,,,,,0,1,1,9,,,,,,,,,,,,,,,AMSA07.jpg,AMSA06.jpg,AMNE15.jpg,AMNE19.jpg,AMSA07.jpg,MS,2,num_8,16,num_8,0.716818595713,,,2017_Sep_05_1208,59.9971327229,MAFE4ImagesEEG,001,201459,
AFNE01.JPG,AFNE01.JPG,AFNE01.JPG,AFNE01.JPG,AFNE01.JPG,AFNE01.JPG,,,,,,,,,0,2,2,7,,,,,,,,,,,,,,,AMSA06.jpg,AMNE06.jpg,AMSA12.jpg,AMNE10.jpg,AMSA06.jpg,MS,2,num_8,16,num_8,0.550166095025,,,2017_Sep_05_1208,59.9971327229,MAFE4ImagesEEG,001,201459,
AFNE01.JPG,AFNE01.JPG,AFNE01.JPG,AFNE01.JPG,AFNE01.JPG,AFNE01.JPG,,,,,,,,,0,3,3,0,,,,,,,,,,,,,,,AMSA03.jpg,AMNE02.jpg,AMNE15.jpg,AMSA16.jpg,AMNE15.jpg,MN,1,num_2,32,num_6,0.90012967505,,,2017_Sep_05_1208,59.9971327229,MAFE4ImagesEEG,001,201459,
AFNE01.JPG,AFNE01.JPG,AFNE01.JPG,AFNE01.JPG,AFNE01.JPG,AFNE01.JPG,,,,,,,,,0,4,4,2,,,,,,,,,,,,,,,AMSA03.jpg,AMNE09.jpg,AMNE05.jpg,AMSA14.jpg,AMSA03.jpg,MS,2,num_8,16,num_8,1.0001135419,,,2017_Sep_05_1208,59.9971327229,MAFE4ImagesEEG,001,201459,
AFNE01.JPG,AFNE01.JPG,AFNE01.JPG,AFNE01.JPG,AFNE01.JPG,AFNE01.JPG,,,,,,,,,0,5,5,6,,,,,,,,,,,,,,,AMNE05.jpg,AMNE09.jpg,AMSA17.jpg,AMSA05.jpg,AMNE05.jpg,MN,1,num_8,32,num_6,0.850123789511,,,2017_Sep_05_1208,59.9971327229,MAFE4ImagesEEG,001,201459,
AFNE01.JPG,AFNE01.JPG,AFNE01.JPG,AFNE01.JPG,AFNE01.JPG,AFNE01.JPG,,,,,,,,,0,6,6,3,,,,,,,,,,,,,,,AMSA09.jpg,AMNE02.jpg,AMNE10.jpg,AMSA16.jpg,AMNE10.jpg,MN,1,num_2,32,num_8,0.900104978064,,,2017_Sep_05_1208,59.9971327229,MAFE4ImagesEEG,001,201459,
AFNE01.JPG,AFNE01.JPG,AFNE01.JPG,AFNE01.JPG,AFNE01.JPG,AFNE01.JPG,,,,,,,,,0,7,7,8,,,,,,,,,,,,,,,AMNE04.jpg,AMSA17.jpg,AMNE07.jpg,AMSA16.jpg,AMSA17.jpg,MS,2,num_6,32,num_4,0.983461377968,,,2017_Sep_05_1208,59.9971327229,MAFE4ImagesEEG,001,201459,
AFNE01.JPG,AFNE01.JPG,AFNE01.JPG,AFNE01.JPG,AFNE01.JPG,AFNE01.JPG,,,,,,,,,0,8,8,1,,,,,,,,,,,,,,,AMNE09.jpg,AMNE03.jpg,AMSA01.jpg,AMSA19.jpg,AMNE09.jpg,MN,1,num_8,16,num_8,1.13343926292,,,2017_Sep_05_1208,59.9971327229,MAFE4ImagesEEG,001,201459,
AFNE01.JPG,AFNE01.JPG,AFNE01.JPG,AFNE01.JPG,AFNE01.JPG,AFNE01.JPG,,,,,,,,,0,9,9,5,,,,,,,,,,,,,,,AMSA02.jpg,AMSA15.jpg,AMNE14.jpg,AMNE10.jpg,AMNE10.jpg,MN,1,num_4,16,num_4,1.13346556365,,,2017_Sep_05_1208,59.9971327229,MAFE4ImagesEEG,001,201459,
AFNE01.JPG,AFNE01.JPG,AFNE01.JPG,AFNE01.JPG,AFNE01.JPG,AFNE01.JPG,,,,,,,,,1,0,10,0,,,,,,,,,,,,,,,AMNE14.jpg,AMSA07.jpg,AMNE11.jpg,AMSA06.jpg,AMNE11.jpg,MN,1,num_2,16,num_2,1.21670168609,,,2017_Sep_05_1208,59.9971327229,MAFE4ImagesEEG,001,201459,
AFNE01.JPG,AFNE01.JPG,AFNE01.JPG,AFNE01.JPG,AFNE01.JPG,AFNE01.JPG,,,,,,,,,1,1,11,4,,,,,,,,,,,,,,,AMNE08.jpg,AMNE13.jpg,AMSA20.jpg,AMSA02.jpg,AMSA20.jpg,MS,2,num_2,32,num_8,1.06671802775,,,2017_Sep_05_1208,59.9971327229,MAFE4ImagesEEG,001,201459,
AFNE01.JPG,AFNE01.JPG,AFNE01.JPG,AFNE01.JPG,AFNE01.JPG,AFNE01.JPG,,,,,,,,,1,2,12,8,,,,,,,,,,,,,,,AMSA08.jpg,AMNE03.jpg,AMSA15.jpg,AMNE14.jpg,AMSA15.jpg,MS,2,num_2,32,num_4,0.866737464617,,,2017_Sep_05_1208,59.9971327229,MAFE4ImagesEEG,001,201459,
AFNE01.JPG,AFNE01.JPG,AFNE01.JPG,AFNE01.JPG,AFNE01.JPG,AFNE01.JPG,,,,,,,,,1,3,13,1,,,,,,,,,,,,,,,AMNE15.jpg,AMNE17.jpg,AMSA18.jpg,AMSA17.jpg,AMNE15.jpg,MN,1,num_8,16,num_8,0.866802574717,,,2017_Sep_05_1208,59.9971327229,MAFE4ImagesEEG,001,201459,
AFNE01.JPG,AFNE01.JPG,AFNE01.JPG,AFNE01.JPG,AFNE01.JPG,AFNE01.JPG,,,,,,,,,1,4,14,2,,,,,,,,,,,,,,,AMSA09.jpg,AMNE13.jpg,AMNE10.jpg,AMSA10.jpg,AMNE10.jpg,MN,1,num_2,32,num_4,2.40000859584,,,2017_Sep_05_1208,59.9971327229,MAFE4ImagesEEG,001,201459,
AFNE01.JPG,AFNE01.JPG,AFNE01.JPG,AFNE01.JPG,AFNE01.JPG,AFNE01.JPG,,,,,,,,,1,5,15,6,,,,,,,,,,,,,,,AMSA10.jpg,AMSA15.jpg,AMNE02.jpg,AMNE04.jpg,AMSA10.jpg,MS,2,num_8,16,num_8,0.600167490251,,,2017_Sep_05_1208,59.9971327229,MAFE4ImagesEEG,001,201459,
AFNE01.JPG,AFNE01.JPG,AFNE01.JPG,AFNE01.JPG,AFNE01.JPG,AFNE01.JPG,,,,,,,,,1,6,16,3,,,,,,,,,,,,,,,AMSA08.jpg,AMNE19.jpg,AMNE17.jpg,AMSA10.jpg,AMSA08.jpg,MS,2,num_8,16,num_8,0.883487133367,,,2017_Sep_05_1208,59.9971327229,MAFE4ImagesEEG,001,201459,
AFNE01.JPG,AFNE01.JPG,AFNE01.JPG,AFNE01.JPG,AFNE01.JPG,AFNE01.JPG,,,,,,,,,1,7,17,9,,,,,,,,,,,,,,,AMSA08.jpg,AMNE07.jpg,AMSA15.jpg,AMNE20.jpg,AMSA15.jpg,MS,2,num_2,16,num_2,0.96673159505,,,2017_Sep_05_1208,59.9971327229,MAFE4ImagesEEG,001,201459,
AFNE01.JPG,AFNE01.JPG,AFNE01.JPG,AFNE01.JPG,AFNE01.JPG,AFNE01.JPG,,,,,,,,,1,8,18,5,,,,,,,,,,,,,,,AMSA12.jpg,AMSA03.jpg,AMNE02.jpg,AMNE17.jpg,AMNE02.jpg,MN,1,num_2,16,num_2,1.0001475403,,,2017_Sep_05_1208,59.9971327229,MAFE4ImagesEEG,001,201459,
AFNE01.JPG,AFNE01.JPG,AFNE01.JPG,AFNE01.JPG,AFNE01.JPG,AFNE01.JPG,,,,,,,,,1,9,19,7,,,,,,,,,,,,,,,AMSA13.jpg,AMNE07.jpg,AMNE15.jpg,AMSA04.jpg,AMSA04.jpg,MS,2,num_4,16,num_4,0.633469893597,,,2017_Sep_05_1208,59.9971327229,MAFE4ImagesEEG,001,201459,
AFNE01.JPG,AFNE01.JPG,AFNE01.JPG,AFNE01.JPG,AFNE01.JPG,AFNE01.JPG,,,,,,,,,2,0,20,9,,,,,,,,,,,,,,,AMSA14.jpg,AMNE04.jpg,AMNE10.jpg,AMSA12.jpg,AMNE10.jpg,MN,1,num_2,32,num_6,0.833298746904,,,2017_Sep_05_1208,59.9971327229,MAFE4ImagesEEG,001,201459,
AFNE01.JPG,AFNE01.JPG,AFNE01.JPG,AFNE01.JPG,AFNE01.JPG,AFNE01.JPG,,,,,,,,,2,1,21,1,,,,,,,,,,,,,,,AMSA10.jpg,AMSA01.jpg,AMNE09.jpg,AMNE07.jpg,AMSA01.jpg,MS,2,num_6,32,num_8,0.883467568259,,,2017_Sep_05_1208,59.9971327229,MAFE4ImagesEEG,001,201459,
AFNE01.JPG,AFNE01.JPG,AFNE01.JPG,AFNE01.JPG,AFNE01.JPG,AFNE01.JPG,,,,,,,,,2,2,22,7,,,,,,,,,,,,,,,AMNE15.jpg,AMSA20.jpg,AMNE14.jpg,AMSA11.jpg,AMSA20.jpg,MS,2,num_6,16,num_6,0.900101449981,,,2017_Sep_05_1208,59.9971327229,MAFE4ImagesEEG,001,201459,
AFNE01.JPG,AFNE01.JPG,AFNE01.JPG,AFNE01.JPG,AFNE01.JPG,AFNE01.JPG,,,,,,,,,2,3,23,8,,,,,,,,,,,,,,,AMNE12.jpg,AMNE05.jpg,AMSA13.jpg,AMSA01.jpg,AMSA01.jpg,MS,2,num_4,16,num_4,0.833467135206,,,2017_Sep_05_1208,59.9971327229,MAFE4ImagesEEG,001,201459,
AFNE01.JPG,AFNE01.JPG,AFNE01.JPG,AFNE01.JPG,AFNE01.JPG,AFNE01.JPG,,,,,,,,,2,4,24,4,,,,,,,,,,,,,,,AMSA15.jpg,AMSA02.jpg,AMNE17.jpg,AMNE19.jpg,AMNE19.jpg,MN,1,num_4,32,num_8,1.86668999511,,,2017_Sep_05_1208,59.9971327229,MAFE4ImagesEEG,001,201459,
AFNE01.JPG,AFNE01.JPG,AFNE01.JPG,AFNE01.JPG,AFNE01.JPG,AFNE01.JPG,,,,,,,,,2,5,25,5,,,,,,,,,,,,,,,AMSA04.jpg,AMNE01.jpg,AMNE11.jpg,AMSA12.jpg,AMSA12.jpg,MS,2,num_4,16,num_4,1.08343145298,,,2017_Sep_05_1208,59.9971327229,MAFE4ImagesEEG,001,201459,
AFNE01.JPG,AFNE01.JPG,AFNE01.JPG,AFNE01.JPG,AFNE01.JPG,AFNE01.JPG,,,,,,,,,2,6,26,3,,,,,,,,,,,,,,,AMNE06.jpg,AMSA12.jpg,AMNE12.jpg,AMSA03.jpg,AMNE12.jpg,MN,1,num_2,16,num_2,0.683502079803,,,2017_Sep_05_1208,59.9971327229,MAFE4ImagesEEG,001,201459,
AFNE01.JPG,AFNE01.JPG,AFNE01.JPG,AFNE01.JPG,AFNE01.JPG,AFNE01.JPG,,,,,,,,,2,7,27,0,,,,,,,,,,,,,,,AMSA17.jpg,AMSA13.jpg,AMNE12.jpg,AMNE03.jpg,AMNE03.jpg,MN,1,num_4,32,num_8,0.800190391077,,,2017_Sep_05_1208,59.9971327229,MAFE4ImagesEEG,001,201459,
AFNE01.JPG,AFNE01.JPG,AFNE01.JPG,AFNE01.JPG,AFNE01.JPG,AFNE01.JPG,,,,,,,,,2,8,28,2,,,,,,,,,,,,,,,AMSA05.jpg,AMSA15.jpg,AMNE15.jpg,AMNE03.jpg,AMNE15.jpg,MN,1,num_2,16,num_2,1.16665282141,,,2017_Sep_05_1208,59.9971327229,MAFE4ImagesEEG,001,201459,
AFNE01.JPG,AFNE01.JPG,AFNE01.JPG,AFNE01.JPG,AFNE01.JPG,AFNE01.JPG,,,,,,,,,2,9,29,6,,,,,,,,,,,,,,,AMSA02.jpg,AMSA01.jpg,AMNE16.jpg,AMNE08.jpg,AMSA01.jpg,MS,2,num_6,32,num_4,1.03346373537,,,2017_Sep_05_1208,59.9971327229,MAFE4ImagesEEG,001,201459,
AFNE01.JPG,AFNE01.JPG,AFNE01.JPG,AFNE01.JPG,AFNE01.JPG,AFNE01.JPG,,,,,,,,,3,0,30,2,,,,,,,,,,,,,,,AMNE10.jpg,AMSA20.jpg,AMSA05.jpg,AMNE16.jpg,AMNE10.jpg,MN,1,num_8,16,num_8,0.683429271914,,,2017_Sep_05_1208,59.9971327229,MAFE4ImagesEEG,001,201459,
AFNE01.JPG,AFNE01.JPG,AFNE01.JPG,AFNE01.JPG,AFNE01.JPG,AFNE01.JPG,,,,,,,,,3,1,31,1,,,,,,,,,,,,,,,AMNE05.jpg,AMNE17.jpg,AMSA17.jpg,AMSA15.jpg,AMSA15.jpg,MS,2,num_4,32,num_8,0.899988870311,,,2017_Sep_05_1208,59.9971327229,MAFE4ImagesEEG,001,201459,
AFNE01.JPG,AFNE01.JPG,AFNE01.JPG,AFNE01.JPG,AFNE01.JPG,AFNE01.JPG,,,,,,,,,3,2,32,8,,,,,,,,,,,,,,,AMSA20.jpg,AMNE14.jpg,AMNE18.jpg,AMSA11.jpg,AMSA11.jpg,MS,2,num_4,32,num_8,1.58345566882,,,2017_Sep_05_1208,59.9971327229,MAFE4ImagesEEG,001,201459,
AFNE01.JPG,AFNE01.JPG,AFNE01.JPG,AFNE01.JPG,AFNE01.JPG,AFNE01.JPG,,,,,,,,,3,3,33,6,,,,,,,,,,,,,,,AMNE13.jpg,AMSA18.jpg,AMSA01.jpg,AMNE06.jpg,AMSA01.jpg,MS,2,num_2,16,num_2,0.916719615459,,,2017_Sep_05_1208,59.9971327229,MAFE4ImagesEEG,001,201459,
AFNE01.JPG,AFNE01.JPG,AFNE01.JPG,AFNE01.JPG,AFNE01.JPG,AFNE01.JPG,,,,,,,,,3,4,34,7,,,,,,,,,,,,,,,AMSA18.jpg,AMSA09.jpg,AMNE07.jpg,AMNE03.jpg,AMSA09.jpg,MS,2,num_6,16,num_6,1.11666265212,,,2017_Sep_05_1208,59.9971327229,MAFE4ImagesEEG,001,201459,
AFNE01.JPG,AFNE01.JPG,AFNE01.JPG,AFNE01.JPG,AFNE01.JPG,AFNE01.JPG,,,,,,,,,3,5,35,0,,,,,,,,,,,,,,,AMSA05.jpg,AMNE04.jpg,AMSA12.jpg,AMNE05.jpg,AMSA12.jpg,MS,2,num_2,16,num_2,1.38338690222,,,2017_Sep_05_1208,59.9971327229,MAFE4ImagesEEG,001,201459,
AFNE01.JPG,AFNE01.JPG,AFNE01.JPG,AFNE01.JPG,AFNE01.JPG,AFNE01.JPG,,,,,,,,,3,6,36,4,,,,,,,,,,,,,,,AMNE08.jpg,AMSA12.jpg,AMSA02.jpg,AMNE09.jpg,AMNE09.jpg,MN,1,num_4,16,num_4,0.716799992835,,,2017_Sep_05_1208,59.9971327229,MAFE4ImagesEEG,001,201459,
AFNE01.JPG,AFNE01.JPG,AFNE01.JPG,AFNE01.JPG,AFNE01.JPG,AFNE01.JPG,,,,,,,,,3,7,37,5,,,,,,,,,,,,,,,AMSA05.jpg,AMNE14.jpg,AMSA06.jpg,AMNE20.jpg,AMSA06.jpg,MS,2,num_2,32,num_8,0.88381460862,,,2017_Sep_05_1208,59.9971327229,MAFE4ImagesEEG,001,201459,
AFNE01.JPG,AFNE01.JPG,AFNE01.JPG,AFNE01.JPG,AFNE01.JPG,AFNE01.JPG,,,,,,,,,3,8,38,3,,,,,,,,,,,,,,,AMNE09.jpg,AMNE02.jpg,AMSA04.jpg,AMSA18.jpg,AMSA18.jpg,MS,2,num_4,32,num_8,1.00015876617,,,2017_Sep_05_1208,59.9971327229,MAFE4ImagesEEG,001,201459,
AFNE01.JPG,AFNE01.JPG,AFNE01.JPG,AFNE01.JPG,AFNE01.JPG,AFNE01.JPG,,,,,,,,,3,9,39,9,,,,,,,,,,,,,,,AMSA12.jpg,AMNE16.jpg,AMNE14.jpg,AMSA20.jpg,AMSA20.jpg,MS,2,num_4,32,num_6,1.1334498474,,,2017_Sep_05_1208,59.9971327229,MAFE4ImagesEEG,001,201459,
AFNE01.JPG,AFNE01.JPG,AFNE01.JPG,AFNE01.JPG,AFNE01.JPG,AFNE01.JPG,,,,,,,,,4,0,40,6,,,,,,,,,,,,,,,AMNE07.jpg,AMSA14.jpg,AMSA12.jpg,AMNE06.jpg,AMSA14.jpg,MS,2,num_6,16,num_6,0.500180736824,,,2017_Sep_05_1208,59.9971327229,MAFE4ImagesEEG,001,201459,
AFNE01.JPG,AFNE01.JPG,AFNE01.JPG,AFNE01.JPG,AFNE01.JPG,AFNE01.JPG,,,,,,,,,4,1,41,3,,,,,,,,,,,,,,,AMNE10.jpg,AMSA13.jpg,AMSA05.jpg,AMNE08.jpg,AMNE08.jpg,MN,1,num_4,32,num_8,0.716621340835,,,2017_Sep_05_1208,59.9971327229,MAFE4ImagesEEG,001,201459,
AFNE01.JPG,AFNE01.JPG,AFNE01.JPG,AFNE01.JPG,AFNE01.JPG,AFNE01.JPG,,,,,,,,,4,2,42,4,,,,,,,,,,,,,,,AMSA10.jpg,AMSA15.jpg,AMNE05.jpg,AMNE17.jpg,AMSA15.jpg,MS,2,num_6,16,num_6,0.666635661793,,,2017_Sep_05_1208,59.9971327229,MAFE4ImagesEEG,001,201459,
AFNE01.JPG,AFNE01.JPG,AFNE01.JPG,AFNE01.JPG,AFNE01.JPG,AFNE01.JPG,,,,,,,,,4,3,43,8,,,,,,,,,,,,,,,AMSA11.jpg,AMNE13.jpg,AMSA01.jpg,AMNE07.jpg,AMSA11.jpg,MS,2,num_8,16,num_8,0.583548041817,,,2017_Sep_05_1208,59.9971327229,MAFE4ImagesEEG,001,201459,
AFNE01.JPG,AFNE01.JPG,AFNE01.JPG,AFNE01.JPG,AFNE01.JPG,AFNE01.JPG,,,,,,,,,4,4,44,5,,,,,,,,,,,,,,,AMNE04.jpg,AMNE11.jpg,AMSA03.jpg,AMSA06.jpg,AMNE11.jpg,MN,1,num_6,16,num_6,1.21677481476,,,2017_Sep_05_1208,59.9971327229,MAFE4ImagesEEG,001,201459,
AFNE01.JPG,AFNE01.JPG,AFNE01.JPG,AFNE01.JPG,AFNE01.JPG,AFNE01.JPG,,,,,,,,,4,5,45,9,,,,,,,,,,,,,,,AMSA13.jpg,AMNE19.jpg,AMSA20.jpg,AMNE03.jpg,AMNE03.jpg,MN,1,num_4,32,num_8,0.816733503423,,,2017_Sep_05_1208,59.9971327229,MAFE4ImagesEEG,001,201459,
AFNE01.JPG,AFNE01.JPG,AFNE01.JPG,AFNE01.JPG,AFNE01.JPG,AFNE01.JPG,,,,,,,,,4,6,46,1,,,,,,,,,,,,,,,AMSA16.jpg,AMNE15.jpg,AMSA01.jpg,AMNE13.jpg,AMSA16.jpg,MS,2,num_8,32,num_4,0.833469059726,,,2017_Sep_05_1208,59.9971327229,MAFE4ImagesEEG,001,201459,
AFNE01.JPG,AFNE01.JPG,AFNE01.JPG,AFNE01.JPG,AFNE01.JPG,AFNE01.JPG,,,,,,,,,4,7,47,0,,,,,,,,,,,,,,,AMNE11.jpg,AMSA03.jpg,AMSA08.jpg,AMNE10.jpg,AMSA08.jpg,MS,2,num_2,16,num_2,1.3168484887,,,2017_Sep_05_1208,59.9971327229,MAFE4ImagesEEG,001,201459,
AFNE01.JPG,AFNE01.JPG,AFNE01.JPG,AFNE01.JPG,AFNE01.JPG,AFNE01.JPG,,,,,,,,,4,8,48,2,,,,,,,,,,,,,,,AMNE16.jpg,AMSA10.jpg,AMNE15.jpg,AMSA06.jpg,AMNE16.jpg,MN,1,num_8,32,num_2,1.06671834853,,,2017_Sep_05_1208,59.9971327229,MAFE4ImagesEEG,001,201459,
AFNE01.JPG,AFNE01.JPG,AFNE01.JPG,AFNE01.JPG,AFNE01.JPG,AFNE01.JPG,,,,,,,,,4,9,49,7,,,,,,,,,,,,,,,AMSA11.jpg,AMSA01.jpg,AMNE04.jpg,AMNE12.jpg,AMSA01.jpg,MS,2,num_6,16,num_6,0.900099204795,,,2017_Sep_05_1208,59.9971327229,MAFE4ImagesEEG,001,201459,
AFNE01.JPG,AFNE01.JPG,AFNE01.JPG,AFNE01.JPG,AFNE01.JPG,AFNE01.JPG,,,,,,,,,5,0,50,3,,,,,,,,,,,,,,,AMNE04.jpg,AMSA12.jpg,AMSA03.jpg,AMNE11.jpg,AMNE11.jpg,MN,1,num_4,32,num_2,1.00012476777,,,2017_Sep_05_1208,59.9971327229,MAFE4ImagesEEG,001,201459,
AFNE01.JPG,AFNE01.JPG,AFNE01.JPG,AFNE01.JPG,AFNE01.JPG,AFNE01.JPG,,,,,,,,,5,1,51,8,,,,,,,,,,,,,,,AMSA16.jpg,AMNE03.jpg,AMNE15.jpg,AMSA09.jpg,AMNE03.jpg,MN,1,num_6,32,num_4,0.616830880055,,,2017_Sep_05_1208,59.9971327229,MAFE4ImagesEEG,001,201459,
AFNE01.JPG,AFNE01.JPG,AFNE01.JPG,AFNE01.JPG,AFNE01.JPG,AFNE01.JPG,,,,,,,,,5,2,52,1,,,,,,,,,,,,,,,AMSA02.jpg,AMNE04.jpg,AMSA11.jpg,AMNE06.jpg,AMNE06.jpg,MN,1,num_4,32,num_6,0.633756314171,,,2017_Sep_05_1208,59.9971327229,MAFE4ImagesEEG,001,201459,
AFNE01.JPG,AFNE01.JPG,AFNE01.JPG,AFNE01.JPG,AFNE01.JPG,AFNE01.JPG,,,,,,,,,5,3,53,2,,,,,,,,,,,,,,,AMNE07.jpg,AMNE19.jpg,AMSA17.jpg,AMSA15.jpg,AMSA15.jpg,MS,2,num_4,32,num_2,0.833433136868,,,2017_Sep_05_1208,59.9971327229,MAFE4ImagesEEG,001,201459,
AFNE01.JPG,AFNE01.JPG,AFNE01.JPG,AFNE01.JPG,AFNE01.JPG,AFNE01.JPG,,,,,,,,,5,4,54,9,,,,,,,,,,,,,,,AMNE19.jpg,AMSA10.jpg,AMNE01.jpg,AMSA15.jpg,AMSA10.jpg,MS,2,num_6,32,num_8,0.950177577499,,,2017_Sep_05_1208,59.9971327229,MAFE4ImagesEEG,001,201459,
AFNE01.JPG,AFNE01.JPG,AFNE01.JPG,AFNE01.JPG,AFNE01.JPG,AFNE01.JPG,,,,,,,,,5,5,55,5,,,,,,,,,,,,,,,AMNE08.jpg,AMSA19.jpg,AMNE07.jpg,AMSA04.jpg,AMSA04.jpg,MS,2,num_4,16,num_4,1.33348718146,,,2017_Sep_05_1208,59.9971327229,MAFE4ImagesEEG,001,201459,
AFNE01.JPG,AFNE01.JPG,AFNE01.JPG,AFNE01.JPG,AFNE01.JPG,AFNE01.JPG,,,,,,,,,5,6,56,6,,,,,,,,,,,,,,,AMNE16.jpg,AMNE01.jpg,AMSA20.jpg,AMSA17.jpg,AMSA20.jpg,MS,2,num_2,16,num_2,1.26673226862,,,2017_Sep_05_1208,59.9971327229,MAFE4ImagesEEG,001,201459,
AFNE01.JPG,AFNE01.JPG,AFNE01.JPG,AFNE01.JPG,AFNE01.JPG,AFNE01.JPG,,,,,,,,,5,7,57,7,,,,,,,,,,,,,,,AMNE11.jpg,AMSA20.jpg,AMSA13.jpg,AMNE01.jpg,AMSA13.jpg,MS,2,num_2,32,num_8,2.11662897439,,,2017_Sep_05_1208,59.9971327229,MAFE4ImagesEEG,001,201459,
AFNE01.JPG,AFNE01.JPG,AFNE01.JPG,AFNE01.JPG,AFNE01.JPG,AFNE01.JPG,,,,,,,,,5,8,58,0,,,,,,,,,,,,,,,AMNE02.jpg,AMSA01.jpg,AMNE12.jpg,AMSA13.jpg,AMSA01.jpg,MS,2,num_6,16,num_6,0.750168468512,,,2017_Sep_05_1208,59.9971327229,MAFE4ImagesEEG,001,201459,
AFNE01.JPG,AFNE01.JPG,AFNE01.JPG,AFNE01.JPG,AFNE01.JPG,AFNE01.JPG,,,,,,,,,5,9,59,4,,,,,,,,,,,,,,,AMNE18.jpg,AMSA10.jpg,AMSA05.jpg,AMNE02.jpg,AMNE18.jpg,MN,1,num_8,32,num_2,1.05013770959,,,2017_Sep_05_1208,59.9971327229,MAFE4ImagesEEG,001,201459,
,,,,,,,,,,,,,,,,,,,,,,,,,,,,,,,,,,,,,,,,,,,space,14.6820985229,2017_Sep_05_1208,59.9971327229,MAFE4ImagesEEG,001,201459,
AFNE01.JPG,AFNE01.JPG,AFNE01.JPG,AFNE01.JPG,AFNE01.JPG,AFNE01.JPG,,,,,,,,,,,,,0,0,0,3,,,,,,,,,,,AFSA09.jpg,AFNE04.jpg,AFSA20.jpg,AFNE06.jpg,AFNE06.jpg,FN,3,num_4,32,num_8,1.00010391971,,,2017_Sep_05_1208,59.9971327229,MAFE4ImagesEEG,001,201459,
AFNE01.JPG,AFNE01.JPG,AFNE01.JPG,AFNE01.JPG,AFNE01.JPG,AFNE01.JPG,,,,,,,,,,,,,0,1,1,0,,,,,,,,,,,AFSA07.jpg,AFSA10.jpg,AFNE03.jpg,AFNE14.jpg,AFNE03.jpg,FN,3,num_2,16,num_2,0.933449077595,,,2017_Sep_05_1208,59.9971327229,MAFE4ImagesEEG,001,201459,
AFNE01.JPG,AFNE01.JPG,AFNE01.JPG,AFNE01.JPG,AFNE01.JPG,AFNE01.JPG,,,,,,,,,,,,,0,2,2,5,,,,,,,,,,,AFSA16.jpg,AFSA01.jpg,AFNE03.jpg,AFNE19.jpg,AFSA01.jpg,FS,4,num_6,32,num_8,0.900178748241,,,2017_Sep_05_1208,59.9971327229,MAFE4ImagesEEG,001,201459,
AFNE01.JPG,AFNE01.JPG,AFNE01.JPG,AFNE01.JPG,AFNE01.JPG,AFNE01.JPG,,,,,,,,,,,,,0,3,3,9,,,,,,,,,,,AFNE07.jpg,AFSA05.jpg,AFNE12.jpg,AFSA19.jpg,AFSA19.jpg,FS,4,num_4,32,num_8,1.01677629014,,,2017_Sep_05_1208,59.9971327229,MAFE4ImagesEEG,001,201459,
AFNE01.JPG,AFNE01.JPG,AFNE01.JPG,AFNE01.JPG,AFNE01.JPG,AFNE01.JPG,,,,,,,,,,,,,0,4,4,4,,,,,,,,,,,AFNE10.jpg,AFNE16.jpg,AFSA07.jpg,AFSA01.jpg,AFNE10.jpg,FN,3,num_8,16,num_8,0.966791894112,,,2017_Sep_05_1208,59.9971327229,MAFE4ImagesEEG,001,201459,
AFNE01.JPG,AFNE01.JPG,AFNE01.JPG,AFNE01.JPG,AFNE01.JPG,AFNE01.JPG,,,,,,,,,,,,,0,5,5,7,,,,,,,,,,,AFNE01.jpg,AFSA10.jpg,AFSA19.jpg,AFNE15.jpg,AFNE15.jpg,FN,3,num_4,16,num_4,1.41678937635,,,2017_Sep_05_1208,59.9971327229,MAFE4ImagesEEG,001,201459,
AFNE01.JPG,AFNE01.JPG,AFNE01.JPG,AFNE01.JPG,AFNE01.JPG,AFNE01.JPG,,,,,,,,,,,,,0,6,6,1,,,,,,,,,,,AFNE08.jpg,AFSA10.jpg,AFNE14.jpg,AFSA18.jpg,AFSA18.jpg,FS,4,num_4,32,num_8,1.16678721132,,,2017_Sep_05_1208,59.9971327229,MAFE4ImagesEEG,001,201459,
AFNE01.JPG,AFNE01.JPG,AFNE01.JPG,AFNE01.JPG,AFNE01.JPG,AFNE01.JPG,,,,,,,,,,,,,0,7,7,8,,,,,,,,,,,AFSA11.jpg,AFNE19.jpg,AFSA15.jpg,AFNE03.jpg,AFNE19.jpg,FN,3,num_6,16,num_6,1.1667650803,,,2017_Sep_05_1208,59.9971327229,MAFE4ImagesEEG,001,201459,
AFNE01.JPG,AFNE01.JPG,AFNE01.JPG,AFNE01.JPG,AFNE01.JPG,AFNE01.JPG,,,,,,,,,,,,,0,8,8,2,,,,,,,,,,,AFSA08.jpg,AFNE08.jpg,AFSA07.jpg,AFNE06.jpg,AFNE08.jpg,FN,3,num_6,32,num_4,0.90010305366,,,2017_Sep_05_1208,59.9971327229,MAFE4ImagesEEG,001,201459,
AFNE01.JPG,AFNE01.JPG,AFNE01.JPG,AFNE01.JPG,AFNE01.JPG,AFNE01.JPG,,,,,,,,,,,,,0,9,9,6,,,,,,,,,,,AFNE03.jpg,AFSA01.jpg,AFSA14.jpg,AFNE15.jpg,AFSA01.jpg,FS,4,num_6,16,num_6,0.816671279958,,,2017_Sep_05_1208,59.9971327229,MAFE4ImagesEEG,001,201459,
AFNE01.JPG,AFNE01.JPG,AFNE01.JPG,AFNE01.JPG,AFNE01.JPG,AFNE01.JPG,,,,,,,,,,,,,1,0,10,8,,,,,,,,,,,AFNE19.jpg,AFNE18.jpg,AFSA13.jpg,AFSA03.jpg,AFSA13.jpg,FS,4,num_2,32,num_4,0.983469075698,,,2017_Sep_05_1208,59.9971327229,MAFE4ImagesEEG,001,201459,
AFNE01.JPG,AFNE01.JPG,AFNE01.JPG,AFNE01.JPG,AFNE01.JPG,AFNE01.JPG,,,,,,,,,,,,,1,1,11,9,,,,,,,,,,,AFSA03.jpg,AFSA17.jpg,AFNE03.jpg,AFNE09.jpg,AFNE03.jpg,FN,3,num_2,16,num_2,1.05008703272,,,2017_Sep_05_1208,59.9971327229,MAFE4ImagesEEG,001,201459,
AFNE01.JPG,AFNE01.JPG,AFNE01.JPG,AFNE01.JPG,AFNE01.JPG,AFNE01.JPG,,,,,,,,,,,,,1,2,12,0,,,,,,,,,,,AFNE19.jpg,AFNE20.jpg,AFSA13.jpg,AFSA02.jpg,AFSA02.jpg,FS,4,num_4,32,num_6,0.950128825149,,,2017_Sep_05_1208,59.9971327229,MAFE4ImagesEEG,001,201459,
AFNE01.JPG,AFNE01.JPG,AFNE01.JPG,AFNE01.JPG,AFNE01.JPG,AFNE01.JPG,,,,,,,,,,,,,1,3,13,2,,,,,,,,,,,AFSA08.jpg,AFSA20.jpg,AFNE06.jpg,AFNE01.jpg,AFNE06.jpg,FN,3,num_2,16,num_2,1.11659690045,,,2017_Sep_05_1208,59.9971327229,MAFE4ImagesEEG,001,201459,
AFNE01.JPG,AFNE01.JPG,AFNE01.JPG,AFNE01.JPG,AFNE01.JPG,AFNE01.JPG,,,,,,,,,,,,,1,4,14,4,,,,,,,,,,,AFSA07.jpg,AFNE04.jpg,AFSA11.jpg,AFNE17.jpg,AFNE04.jpg,FN,3,num_6,32,num_2,0.916784725618,,,2017_Sep_05_1208,59.9971327229,MAFE4ImagesEEG,001,201459,
AFNE01.JPG,AFNE01.JPG,AFNE01.JPG,AFNE01.JPG,AFNE01.JPG,AFNE01.JPG,,,,,,,,,,,,,1,5,15,7,,,,,,,,,,,AFSA14.jpg,AFNE02.jpg,AFNE05.jpg,AFSA17.jpg,AFSA14.jpg,FS,4,num_8,16,num_8,0.766771879978,,,2017_Sep_05_1208,59.9971327229,MAFE4ImagesEEG,001,201459,
AFNE01.JPG,AFNE01.JPG,AFNE01.JPG,AFNE01.JPG,AFNE01.JPG,AFNE01.JPG,,,,,,,,,,,,,1,6,16,1,,,,,,,,,,,AFSA17.jpg,AFSA19.jpg,AFNE08.jpg,AFNE19.jpg,AFSA17.jpg,FS,4,num_8,16,num_8,1.31674841786,,,2017_Sep_05_1208,59.9971327229,MAFE4ImagesEEG,001,201459,
AFNE01.JPG,AFNE01.JPG,AFNE01.JPG,AFNE01.JPG,AFNE01.JPG,AFNE01.JPG,,,,,,,,,,,,,1,7,17,3,,,,,,,,,,,AFSA08.jpg,AFNE19.jpg,AFNE07.jpg,AFSA20.jpg,AFSA20.jpg,FS,4,num_4,32,num_8,2.06666157761,,,2017_Sep_05_1208,59.9971327229,MAFE4ImagesEEG,001,201459,
AFNE01.JPG,AFNE01.JPG,AFNE01.JPG,AFNE01.JPG,AFNE01.JPG,AFNE01.JPG,,,,,,,,,,,,,1,8,18,5,,,,,,,,,,,AFSA15.jpg,AFNE15.jpg,AFSA12.jpg,AFNE19.jpg,AFNE15.jpg,FN,3,num_6,16,num_6,0.833499209199,,,2017_Sep_05_1208,59.9971327229,MAFE4ImagesEEG,001,201459,
AFNE01.JPG,AFNE01.JPG,AFNE01.JPG,AFNE01.JPG,AFNE01.JPG,AFNE01.JPG,,,,,,,,,,,,,1,9,19,6,,,,,,,,,,,AFSA12.jpg,AFNE19.jpg,AFNE16.jpg,AFSA06.jpg,AFNE19.jpg,FN,3,num_6,16,num_6,1.06675266766,,,2017_Sep_05_1208,59.9971327229,MAFE4ImagesEEG,001,201459,
AFNE01.JPG,AFNE01.JPG,AFNE01.JPG,AFNE01.JPG,AFNE01.JPG,AFNE01.JPG,,,,,,,,,,,,,2,0,20,1,,,,,,,,,,,AFSA19.jpg,AFSA08.jpg,AFNE01.jpg,AFNE14.jpg,AFSA19.jpg,FS,4,num_8,16,num_8,0.633475987648,,,2017_Sep_05_1208,59.9971327229,MAFE4ImagesEEG,001,201459,
AFNE01.JPG,AFNE01.JPG,AFNE01.JPG,AFNE01.JPG,AFNE01.JPG,AFNE01.JPG,,,,,,,,,,,,,2,1,21,8,,,,,,,,,,,AFSA17.jpg,AFNE08.jpg,AFNE03.jpg,AFSA11.jpg,AFNE08.jpg,FN,3,num_6,16,num_6,0.816780331486,,,2017_Sep_05_1208,59.9971327229,MAFE4ImagesEEG,001,201459,
AFNE01.JPG,AFNE01.JPG,AFNE01.JPG,AFNE01.JPG,AFNE01.JPG,AFNE01.JPG,,,,,,,,,,,,,2,2,22,2,,,,,,,,,,,AFNE06.jpg,AFNE09.jpg,AFSA03.jpg,AFSA20.jpg,AFSA03.jpg,FS,4,num_2,16,num_2,0.75008154806,,,2017_Sep_05_1208,59.9971327229,MAFE4ImagesEEG,001,201459,
AFNE01.JPG,AFNE01.JPG,AFNE01.JPG,AFNE01.JPG,AFNE01.JPG,AFNE01.JPG,,,,,,,,,,,,,2,3,23,3,,,,,,,,,,,AFSA15.jpg,AFSA09.jpg,AFNE17.jpg,AFNE05.jpg,AFNE17.jpg,FN,3,num_2,32,num_6,0.916718332504,,,2017_Sep_05_1208,59.9971327229,MAFE4ImagesEEG,001,201459,
AFNE01.JPG,AFNE01.JPG,AFNE01.JPG,AFNE01.JPG,AFNE01.JPG,AFNE01.JPG,,,,,,,,,,,,,2,4,24,6,,,,,,,,,,,AFNE05.jpg,AFSA04.jpg,AFSA05.jpg,AFNE12.jpg,AFNE12.jpg,FN,3,num_4,32,num_2,1.30014308193,,,2017_Sep_05_1208,59.9971327229,MAFE4ImagesEEG,001,201459,
AFNE01.JPG,AFNE01.JPG,AFNE01.JPG,AFNE01.JPG,AFNE01.JPG,AFNE01.JPG,,,,,,,,,,,,,2,5,25,0,,,,,,,,,,,AFSA15.jpg,AFNE08.jpg,AFSA14.jpg,AFNE12.jpg,AFSA14.jpg,FS,4,num_2,16,num_2,0.883453134971,,,2017_Sep_05_1208,59.9971327229,MAFE4ImagesEEG,001,201459,
AFNE01.JPG,AFNE01.JPG,AFNE01.JPG,AFNE01.JPG,AFNE01.JPG,AFNE01.JPG,,,,,,,,,,,,,2,6,26,9,,,,,,,,,,,AFSA02.jpg,AFNE18.jpg,AFSA11.jpg,AFNE03.jpg,AFSA02.jpg,FS,4,num_8,16,num_8,0.683538323385,,,2017_Sep_05_1208,59.9971327229,MAFE4ImagesEEG,001,201459,
AFNE01.JPG,AFNE01.JPG,AFNE01.JPG,AFNE01.JPG,AFNE01.JPG,AFNE01.JPG,,,,,,,,,,,,,2,7,27,5,,,,,,,,,,,AFSA08.jpg,AFNE04.jpg,AFSA14.jpg,AFNE20.jpg,AFNE04.jpg,FN,3,num_6,32,num_8,0.866730408336,,,2017_Sep_05_1208,59.9971327229,MAFE4ImagesEEG,001,201459,
AFNE01.JPG,AFNE01.JPG,AFNE01.JPG,AFNE01.JPG,AFNE01.JPG,AFNE01.JPG,,,,,,,,,,,,,2,8,28,4,,,,,,,,,,,AFNE17.jpg,AFSA07.jpg,AFSA17.jpg,AFNE19.jpg,AFNE17.jpg,FN,3,num_8,32,num_2,1.03350543155,,,2017_Sep_05_1208,59.9971327229,MAFE4ImagesEEG,001,201459,
AFNE01.JPG,AFNE01.JPG,AFNE01.JPG,AFNE01.JPG,AFNE01.JPG,AFNE01.JPG,,,,,,,,,,,,,2,9,29,7,,,,,,,,,,,AFSA18.jpg,AFNE07.jpg,AFNE11.jpg,AFSA10.jpg,AFSA18.jpg,FS,4,num_8,32,num_4,1.11658535386,,,2017_Sep_05_1208,59.9971327229,MAFE4ImagesEEG,001,201459,
AFNE01.JPG,AFNE01.JPG,AFNE01.JPG,AFNE01.JPG,AFNE01.JPG,AFNE01.JPG,,,,,,,,,,,,,3,0,30,7,,,,,,,,,,,AFNE06.jpg,AFSA15.jpg,AFNE17.jpg,AFSA08.jpg,AFSA15.jpg,FS,4,num_6,16,num_6,0.583507307922,,,2017_Sep_05_1208,59.9971327229,MAFE4ImagesEEG,001,201459,
AFNE01.JPG,AFNE01.JPG,AFNE01.JPG,AFNE01.JPG,AFNE01.JPG,AFNE01.JPG,,,,,,,,,,,,,3,1,31,3,,,,,,,,,,,AFNE07.jpg,AFNE10.jpg,AFSA08.jpg,AFSA12.jpg,AFSA08.jpg,FS,4,num_2,16,num_2,0.900127429923,,,2017_Sep_05_1208,59.9971327229,MAFE4ImagesEEG,001,201459,
AFNE01.JPG,AFNE01.JPG,AFNE01.JPG,AFNE01.JPG,AFNE01.JPG,AFNE01.JPG,,,,,,,,,,,,,3,2,32,5,,,,,,,,,,,AFSA17.jpg,AFSA07.jpg,AFNE08.jpg,AFNE15.jpg,AFSA07.jpg,FS,4,num_6,16,num_6,0.56683718256,,,2017_Sep_05_1208,59.9971327229,MAFE4ImagesEEG,001,201459,
AFNE01.JPG,AFNE01.JPG,AFNE01.JPG,AFNE01.JPG,AFNE01.JPG,AFNE01.JPG,,,,,,,,,,,,,3,3,33,1,,,,,,,,,,,AFSA07.jpg,AFNE02.jpg,AFNE07.jpg,AFSA06.jpg,AFNE02.jpg,FN,3,num_6,16,num_6,0.883441588318,,,2017_Sep_05_1208,59.9971327229,MAFE4ImagesEEG,001,201459,
AFNE01.JPG,AFNE01.JPG,AFNE01.JPG,AFNE01.JPG,AFNE01.JPG,AFNE01.JPG,,,,,,,,,,,,,3,4,34,4,,,,,,,,,,,AFSA02.jpg,AFNE06.jpg,AFNE04.jpg,AFSA07.jpg,AFNE04.jpg,FN,3,num_2,16,num_2,1.06676678022,,,2017_Sep_05_1208,59.9971327229,MAFE4ImagesEEG,001,201459,
AFNE01.JPG,AFNE01.JPG,AFNE01.JPG,AFNE01.JPG,AFNE01.JPG,AFNE01.JPG,,,,,,,,,,,,,3,5,35,8,,,,,,,,,,,AFSA11.jpg,AFNE04.jpg,AFSA18.jpg,AFNE02.jpg,AFNE02.jpg,FN,3,num_4,16,num_4,0.683471609547,,,2017_Sep_05_1208,59.9971327229,MAFE4ImagesEEG,001,201459,
AFNE01.JPG,AFNE01.JPG,AFNE01.JPG,AFNE01.JPG,AFNE01.JPG,AFNE01.JPG,,,,,,,,,,,,,3,6,36,6,,,,,,,,,,,AFNE09.jpg,AFNE18.jpg,AFSA07.jpg,AFSA08.jpg,AFSA08.jpg,FS,4,num_4,32,num_8,1.26674060785,,,2017_Sep_05_1208,59.9971327229,MAFE4ImagesEEG,001,201459,
AFNE01.JPG,AFNE01.JPG,AFNE01.JPG,AFNE01.JPG,AFNE01.JPG,AFNE01.JPG,,,,,,,,,,,,,3,7,37,0,,,,,,,,,,,AFNE13.jpg,AFNE08.jpg,AFSA15.jpg,AFSA17.jpg,AFNE08.jpg,FN,3,num_6,16,num_6,1.00012316409,,,2017_Sep_05_1208,59.9971327229,MAFE4ImagesEEG,001,201459,
AFNE01.JPG,AFNE01.JPG,AFNE01.JPG,AFNE01.JPG,AFNE01.JPG,AFNE01.JPG,,,,,,,,,,,,,3,8,38,2,,,,,,,,,,,AFNE09.jpg,AFNE17.jpg,AFSA02.jpg,AFSA14.jpg,AFSA02.jpg,FS,4,num_2,32,num_4,1.16675160924,,,2017_Sep_05_1208,59.9971327229,MAFE4ImagesEEG,001,201459,
AFNE01.JPG,AFNE01.JPG,AFNE01.JPG,AFNE01.JPG,AFNE01.JPG,AFNE01.JPG,,,,,,,,,,,,,3,9,39,9,,,,,,,,,,,AFSA08.jpg,AFNE18.jpg,AFNE11.jpg,AFSA02.jpg,AFSA02.jpg,FS,4,num_4,16,num_4,0.633504854282,,,2017_Sep_05_1208,59.9971327229,MAFE4ImagesEEG,001,201459,
AFNE01.JPG,AFNE01.JPG,AFNE01.JPG,AFNE01.JPG,AFNE01.JPG,AFNE01.JPG,,,,,,,,,,,,,4,0,40,6,,,,,,,,,,,AFSA15.jpg,AFSA18.jpg,AFNE06.jpg,AFNE16.jpg,AFNE06.jpg,FN,3,num_2,16,num_2,1.08341285004,,,2017_Sep_05_1208,59.9971327229,MAFE4ImagesEEG,001,201459,
AFNE01.JPG,AFNE01.JPG,AFNE01.JPG,AFNE01.JPG,AFNE01.JPG,AFNE01.JPG,,,,,,,,,,,,,4,1,41,4,,,,,,,,,,,AFSA12.jpg,AFNE13.jpg,AFSA19.jpg,AFNE08.jpg,AFSA12.jpg,FS,4,num_8,16,num_8,0.750149224128,,,2017_Sep_05_1208,59.9971327229,MAFE4ImagesEEG,001,201459,
AFNE01.JPG,AFNE01.JPG,AFNE01.JPG,AFNE01.JPG,AFNE01.JPG,AFNE01.JPG,,,,,,,,,,,,,4,2,42,2,,,,,,,,,,,AFNE06.jpg,AFSA13.jpg,AFNE09.jpg,AFSA15.jpg,AFSA13.jpg,FS,4,num_6,16,num_6,0.866774670372,,,2017_Sep_05_1208,59.9971327229,MAFE4ImagesEEG,001,201459,
AFNE01.JPG,AFNE01.JPG,AFNE01.JPG,AFNE01.JPG,AFNE01.JPG,AFNE01.JPG,,,,,,,,,,,,,4,3,43,7,,,,,,,,,,,AFNE19.jpg,AFSA01.jpg,AFNE09.jpg,AFSA05.jpg,AFNE19.jpg,FN,3,num_8,32,num_6,0.633483685378,,,2017_Sep_05_1208,59.9971327229,MAFE4ImagesEEG,001,201459,
AFNE01.JPG,AFNE01.JPG,AFNE01.JPG,AFNE01.JPG,AFNE01.JPG,AFNE01.JPG,,,,,,,,,,,,,4,4,44,3,,,,,,,,,,,AFNE19.jpg,AFSA11.jpg,AFSA02.jpg,AFNE11.jpg,AFSA02.jpg,FS,4,num_2,16,num_2,1.20032888651,,,2017_Sep_05_1208,59.9971327229,MAFE4ImagesEEG,001,201459,
AFNE01.JPG,AFNE01.JPG,AFNE01.JPG,AFNE01.JPG,AFNE01.JPG,AFNE01.JPG,,,,,,,,,,,,,4,5,45,9,,,,,,,,,,,AFNE20.jpg,AFSA18.jpg,AFSA20.jpg,AFNE07.jpg,AFNE20.jpg,FN,3,num_8,32,num_6,0.766815500567,,,2017_Sep_05_1208,59.9971327229,MAFE4ImagesEEG,001,201459,
AFNE01.JPG,AFNE01.JPG,AFNE01.JPG,AFNE01.JPG,AFNE01.JPG,AFNE01.JPG,,,,,,,,,,,,,4,6,46,0,,,,,,,,,,,AFNE14.jpg,AFSA07.jpg,AFNE07.jpg,AFSA19.jpg,AFNE14.jpg,FN,3,num_8,32,num_2,1.01659827959,,,2017_Sep_05_1208,59.9971327229,MAFE4ImagesEEG,001,201459,
AFNE01.JPG,AFNE01.JPG,AFNE01.JPG,AFNE01.JPG,AFNE01.JPG,AFNE01.JPG,,,,,,,,,,,,,4,7,47,5,,,,,,,,,,,AFSA18.jpg,AFSA08.jpg,AFNE02.jpg,AFNE18.jpg,AFNE02.jpg,FN,3,num_2,16,num_2,2.56663479586,,,2017_Sep_05_1208,59.9971327229,MAFE4ImagesEEG,001,201459,
AFNE01.JPG,AFNE01.JPG,AFNE01.JPG,AFNE01.JPG,AFNE01.JPG,AFNE01.JPG,,,,,,,,,,,,,4,8,48,8,,,,,,,,,,,AFSA05.jpg,AFNE05.jpg,AFNE04.jpg,AFSA11.jpg,AFNE05.jpg,FN,3,num_6,32,num_8,0.900144429062,,,2017_Sep_05_1208,59.9971327229,MAFE4ImagesEEG,001,201459,
AFNE01.JPG,AFNE01.JPG,AFNE01.JPG,AFNE01.JPG,AFNE01.JPG,AFNE01.JPG,,,,,,,,,,,,,4,9,49,1,,,,,,,,,,,AFSA10.jpg,AFNE12.jpg,AFNE13.jpg,AFSA20.jpg,AFNE12.jpg,FN,3,num_6,16,num_6,1.0501328985,,,2017_Sep_05_1208,59.9971327229,MAFE4ImagesEEG,001,201459,
AFNE01.JPG,AFNE01.JPG,AFNE01.JPG,AFNE01.JPG,AFNE01.JPG,AFNE01.JPG,,,,,,,,,,,,,5,0,50,7,,,,,,,,,,,AFNE06.jpg,AFSA18.jpg,AFSA10.jpg,AFNE19.jpg,AFSA10.jpg,FS,4,num_2,16,num_2,1.05010242824,,,2017_Sep_05_1208,59.9971327229,MAFE4ImagesEEG,001,201459,
AFNE01.JPG,AFNE01.JPG,AFNE01.JPG,AFNE01.JPG,AFNE01.JPG,AFNE01.JPG,,,,,,,,,,,,,5,1,51,8,,,,,,,,,,,AFNE03.jpg,AFSA01.jpg,AFNE17.jpg,AFSA09.jpg,AFNE03.jpg,FN,3,num_8,16,num_8,1.15011323715,,,2017_Sep_05_1208,59.9971327229,MAFE4ImagesEEG,001,201459,
AFNE01.JPG,AFNE01.JPG,AFNE01.JPG,AFNE01.JPG,AFNE01.JPG,AFNE01.JPG,,,,,,,,,,,,,5,2,52,6,,,,,,,,,,,AFNE09.jpg,AFSA09.jpg,AFNE12.jpg,AFSA01.jpg,AFSA09.jpg,FS,4,num_6,32,num_8,0.60030572908,,,2017_Sep_05_1208,59.9971327229,MAFE4ImagesEEG,001,201459,
AFNE01.JPG,AFNE01.JPG,AFNE01.JPG,AFNE01.JPG,AFNE01.JPG,AFNE01.JPG,,,,,,,,,,,,,5,3,53,0,,,,,,,,,,,AFNE19.jpg,AFNE14.jpg,AFSA06.jpg,AFSA14.jpg,AFSA14.jpg,FS,4,num_4,16,num_4,1.03352788335,,,2017_Sep_05_1208,59.9971327229,MAFE4ImagesEEG,001,201459,
AFNE01.JPG,AFNE01.JPG,AFNE01.JPG,AFNE01.JPG,AFNE01.JPG,AFNE01.JPG,,,,,,,,,,,,,5,4,54,9,,,,,,,,,,,AFNE02.jpg,AFNE15.jpg,AFSA15.jpg,AFSA01.jpg,AFNE15.jpg,FN,3,num_6,16,num_6,0.783445854147,,,2017_Sep_05_1208,59.9971327229,MAFE4ImagesEEG,001,201459,
AFNE01.JPG,AFNE01.JPG,AFNE01.JPG,AFNE01.JPG,AFNE01.JPG,AFNE01.JPG,,,,,,,,,,,,,5,5,55,4,,,,,,,,,,,AFNE03.jpg,AFSA18.jpg,AFSA17.jpg,AFNE01.jpg,AFSA18.jpg,FS,4,num_6,16,num_6,0.733447345614,,,2017_Sep_05_1208,59.9971327229,MAFE4ImagesEEG,001,201459,
AFNE01.JPG,AFNE01.JPG,AFNE01.JPG,AFNE01.JPG,AFNE01.JPG,AFNE01.JPG,,,,,,,,,,,,,5,6,56,1,,,,,,,,,,,AFSA08.jpg,AFNE13.jpg,AFSA16.jpg,AFNE11.jpg,AFNE13.jpg,FN,3,num_6,32,num_8,0.800112130586,,,2017_Sep_05_1208,59.9971327229,MAFE4ImagesEEG,001,201459,
AFNE01.JPG,AFNE01.JPG,AFNE01.JPG,AFNE01.JPG,AFNE01.JPG,AFNE01.JPG,,,,,,,,,,,,,5,7,57,3,,,,,,,,,,,AFNE09.jpg,AFNE14.jpg,AFSA12.jpg,AFSA16.jpg,AFSA16.jpg,FS,4,num_4,32,num_6,0.866830479121,,,2017_Sep_05_1208,59.9971327229,MAFE4ImagesEEG,001,201459,
AFNE01.JPG,AFNE01.JPG,AFNE01.JPG,AFNE01.JPG,AFNE01.JPG,AFNE01.JPG,,,,,,,,,,,,,5,8,58,5,,,,,,,,,,,AFSA06.jpg,AFSA01.jpg,AFNE10.jpg,AFNE06.jpg,AFNE10.jpg,FN,3,num_2,16,num_2,1.03341690736,,,2017_Sep_05_1208,59.9971327229,MAFE4ImagesEEG,001,201459,
AFNE01.JPG,AFNE01.JPG,AFNE01.JPG,AFNE01.JPG,AFNE01.JPG,AFNE01.JPG,,,,,,,,,,,,,5,9,59,2,,,,,,,,,,,AFNE06.jpg,AFNE20.jpg,AFSA12.jpg,AFSA04.jpg,AFNE06.jpg,FN,3,num_8,16,num_8,0.616874500643,,,2017_Sep_05_1208,59.9971327229,MAFE4ImagesEEG,001,201459,
,,,,,,,,,,,,,,,,,,,,,,,,,,,,,,,,,,,,,,,,,,,space,4.7998523314,2017_Sep_05_1208,59.9971327229,MAFE4ImagesEEG,001,201459,
AFNE01.JPG,AFNE01.JPG,AFNE01.JPG,AFNE01.JPG,AFNE01.JPG,AFNE01.JPG,,,,,,,,,,,,,,,,,0,0,0,0,,,,,,,AMNE15.jpg,AMNE13.jpg,AMSA04.jpg,AMSA18.jpg,AMNE13.jpg,MN,1,num_6,32,num_8,0.7668511027,,,2017_Sep_05_1208,59.9971327229,MAFE4ImagesEEG,001,201459,
AFNE01.JPG,AFNE01.JPG,AFNE01.JPG,AFNE01.JPG,AFNE01.JPG,AFNE01.JPG,,,,,,,,,,,,,,,,,0,1,1,2,,,,,,,AMNE01.jpg,AMSA08.jpg,AMNE12.jpg,AMSA14.jpg,AMNE01.jpg,MN,1,num_8,16,num_8,0.550211960799,,,2017_Sep_05_1208,59.9971327229,MAFE4ImagesEEG,001,201459,
AFNE01.JPG,AFNE01.JPG,AFNE01.JPG,AFNE01.JPG,AFNE01.JPG,AFNE01.JPG,,,,,,,,,,,,,,,,,0,2,2,1,,,,,,,AMSA09.jpg,AMNE04.jpg,AMSA08.jpg,AMNE03.jpg,AMSA08.jpg,MS,2,num_2,16,num_2,0.866441742575,,,2017_Sep_05_1208,59.9971327229,MAFE4ImagesEEG,001,201459,
AFNE01.JPG,AFNE01.JPG,AFNE01.JPG,AFNE01.JPG,AFNE01.JPG,AFNE01.JPG,,,,,,,,,,,,,,,,,0,3,3,8,,,,,,,AMNE09.jpg,AMSA08.jpg,AMSA03.jpg,AMNE06.jpg,AMSA08.jpg,MS,2,num_6,16,num_6,0.516884860524,,,2017_Sep_05_1208,59.9971327229,MAFE4ImagesEEG,001,201459,
AFNE01.JPG,AFNE01.JPG,AFNE01.JPG,AFNE01.JPG,AFNE01.JPG,AFNE01.JPG,,,,,,,,,,,,,,,,,0,4,4,3,,,,,,,AMNE13.jpg,AMSA06.jpg,AMNE03.jpg,AMSA02.jpg,AMSA02.jpg,MS,2,num_4,16,num_4,1.25013366831,,,2017_Sep_05_1208,59.9971327229,MAFE4ImagesEEG,001,201459,
AFNE01.JPG,AFNE01.JPG,AFNE01.JPG,AFNE01.JPG,AFNE01.JPG,AFNE01.JPG,,,,,,,,,,,,,,,,,0,5,5,4,,,,,,,AMNE05.jpg,AMSA18.jpg,AMNE17.jpg,AMSA11.jpg,AMNE17.jpg,MN,1,num_2,16,num_2,0.783476645185,,,2017_Sep_05_1208,59.9971327229,MAFE4ImagesEEG,001,201459,
AFNE01.JPG,AFNE01.JPG,AFNE01.JPG,AFNE01.JPG,AFNE01.JPG,AFNE01.JPG,,,,,,,,,,,,,,,,,0,6,6,6,,,,,,,AMNE16.jpg,AMNE06.jpg,AMSA18.jpg,AMSA12.jpg,AMSA12.jpg,MS,2,num_4,32,num_2,0.900159824581,,,2017_Sep_05_1208,59.9971327229,MAFE4ImagesEEG,001,201459,
AFNE01.JPG,AFNE01.JPG,AFNE01.JPG,AFNE01.JPG,AFNE01.JPG,AFNE01.JPG,,,,,,,,,,,,,,,,,0,7,7,9,,,,,,,AMSA04.jpg,AMSA08.jpg,AMNE02.jpg,AMNE04.jpg,AMSA04.jpg,MS,2,num_8,16,num_8,0.666805653891,,,2017_Sep_05_1208,59.9971327229,MAFE4ImagesEEG,001,201459,
AFNE01.JPG,AFNE01.JPG,AFNE01.JPG,AFNE01.JPG,AFNE01.JPG,AFNE01.JPG,,,,,,,,,,,,,,,,,0,8,8,5,,,,,,,AMNE06.jpg,AMSA13.jpg,AMSA19.jpg,AMNE18.jpg,AMSA19.jpg,MS,2,num_2,32,num_6,1.06674176251,,,2017_Sep_05_1208,59.9971327229,MAFE4ImagesEEG,001,201459,
AFNE01.JPG,AFNE01.JPG,AFNE01.JPG,AFNE01.JPG,AFNE01.JPG,AFNE01.JPG,,,,,,,,,,,,,,,,,0,9,9,7,,,,,,,AMNE05.jpg,AMNE11.jpg,AMSA04.jpg,AMSA14.jpg,AMSA14.jpg,MS,2,num_4,32,num_2,0.883423947671,,,2017_Sep_05_1208,59.9971327229,MAFE4ImagesEEG,001,201459,
AFNE01.JPG,AFNE01.JPG,AFNE01.JPG,AFNE01.JPG,AFNE01.JPG,AFNE01.JPG,,,,,,,,,,,,,,,,,1,0,10,4,,,,,,,AMSA12.jpg,AMSA20.jpg,AMNE07.jpg,AMNE06.jpg,AMSA20.jpg,MS,2,num_6,16,num_6,0.950131391,,,2017_Sep_05_1208,59.9971327229,MAFE4ImagesEEG,001,201459,
AFNE01.JPG,AFNE01.JPG,AFNE01.JPG,AFNE01.JPG,AFNE01.JPG,AFNE01.JPG,,,,,,,,,,,,,,,,,1,1,11,9,,,,,,,AMSA19.jpg,AMNE07.jpg,AMSA10.jpg,AMNE16.jpg,AMNE07.jpg,MN,1,num_6,32,num_2,1.39982481196,,,2017_Sep_05_1208,59.9971327229,MAFE4ImagesEEG,001,201459,
AFNE01.JPG,AFNE01.JPG,AFNE01.JPG,AFNE01.JPG,AFNE01.JPG,AFNE01.JPG,,,,,,,,,,,,,,,,,1,2,12,0,,,,,,,AMSA17.jpg,AMNE07.jpg,AMNE18.jpg,AMSA06.jpg,AMSA17.jpg,MS,2,num_8,16,num_8,0.883448965382,,,2017_Sep_05_1208,59.9971327229,MAFE4ImagesEEG,001,201459,
AFNE01.JPG,AFNE01.JPG,AFNE01.JPG,AFNE01.JPG,AFNE01.JPG,AFNE01.JPG,,,,,,,,,,,,,,,,,1,3,13,5,,,,,,,AMNE03.jpg,AMSA18.jpg,AMNE14.jpg,AMSA10.jpg,AMNE14.jpg,MN,1,num_2,32,num_6,1.10012755817,,,2017_Sep_05_1208,59.9971327229,MAFE4ImagesEEG,001,201459,
AFNE01.JPG,AFNE01.JPG,AFNE01.JPG,AFNE01.JPG,AFNE01.JPG,AFNE01.JPG,,,,,,,,,,,,,,,,,1,4,14,8,,,,,,,AMNE06.jpg,AMNE09.jpg,AMSA13.jpg,AMSA17.jpg,AMSA13.jpg,MS,2,num_2,16,num_2,1.11674636509,,,2017_Sep_05_1208,59.9971327229,MAFE4ImagesEEG,001,201459,
AFNE01.JPG,AFNE01.JPG,AFNE01.JPG,AFNE01.JPG,AFNE01.JPG,AFNE01.JPG,,,,,,,,,,,,,,,,,1,5,15,3,,,,,,,AMSA03.jpg,AMSA04.jpg,AMNE07.jpg,AMNE12.jpg,AMSA03.jpg,MS,2,num_8,32,num_6,0.666822973813,,,2017_Sep_05_1208,59.9971327229,MAFE4ImagesEEG,001,201459,
AFNE01.JPG,AFNE01.JPG,AFNE01.JPG,AFNE01.JPG,AFNE01.JPG,AFNE01.JPG,,,,,,,,,,,,,,,,,1,6,16,6,,,,,,,AMSA01.jpg,AMSA06.jpg,AMNE11.jpg,AMNE12.jpg,AMSA06.jpg,MS,2,num_6,16,num_6,0.816821065382,,,2017_Sep_05_1208,59.9971327229,MAFE4ImagesEEG,001,201459,
AFNE01.JPG,AFNE01.JPG,AFNE01.JPG,AFNE01.JPG,AFNE01.JPG,AFNE01.JPG,,,,,,,,,,,,,,,,,1,7,17,7,,,,,,,AMNE18.jpg,AMSA04.jpg,AMNE15.jpg,AMSA03.jpg,AMSA04.jpg,MS,2,num_6,32,num_4,0.70013307489,,,2017_Sep_05_1208,59.9971327229,MAFE4ImagesEEG,001,201459,
AFNE01.JPG,AFNE01.JPG,AFNE01.JPG,AFNE01.JPG,AFNE01.JPG,AFNE01.JPG,,,,,,,,,,,,,,,,,1,8,18,2,,,,,,,AMNE17.jpg,AMSA16.jpg,AMSA04.jpg,AMNE07.jpg,AMSA04.jpg,MS,2,num_2,16,num_2,0.783428213501,,,2017_Sep_05_1208,59.9971327229,MAFE4ImagesEEG,001,201459,
AFNE01.JPG,AFNE01.JPG,AFNE01.JPG,AFNE01.JPG,AFNE01.JPG,AFNE01.JPG,,,,,,,,,,,,,,,,,1,9,19,1,,,,,,,AMSA14.jpg,AMNE03.jpg,AMSA11.jpg,AMNE04.jpg,AMNE04.jpg,MN,1,num_4,32,num_2,0.883501245931,,,2017_Sep_05_1208,59.9971327229,MAFE4ImagesEEG,001,201459,
AFNE01.JPG,AFNE01.JPG,AFNE01.JPG,AFNE01.JPG,AFNE01.JPG,AFNE01.JPG,,,,,,,,,,,,,,,,,2,0,20,9,,,,,,,AMSA07.jpg,AMSA04.jpg,AMNE19.jpg,AMNE12.jpg,AMSA07.jpg,MS,2,num_8,32,num_2,0.866789745167,,,2017_Sep_05_1208,59.9971327229,MAFE4ImagesEEG,001,201459,
AFNE01.JPG,AFNE01.JPG,AFNE01.JPG,AFNE01.JPG,AFNE01.JPG,AFNE01.JPG,,,,,,,,,,,,,,,,,2,1,21,7,,,,,,,AMSA16.jpg,AMSA06.jpg,AMNE17.jpg,AMNE18.jpg,AMNE17.jpg,MN,1,num_2,32,num_4,0.900138335011,,,2017_Sep_05_1208,59.9971327229,MAFE4ImagesEEG,001,201459,
AFNE01.JPG,AFNE01.JPG,AFNE01.JPG,AFNE01.JPG,AFNE01.JPG,AFNE01.JPG,,,,,,,,,,,,,,,,,2,2,22,1,,,,,,,AMNE15.jpg,AMSA14.jpg,AMNE10.jpg,AMSA18.jpg,AMSA18.jpg,MS,2,num_4,32,num_8,0.650152527785,,,2017_Sep_05_1208,59.9971327229,MAFE4ImagesEEG,001,201459,
AFNE01.JPG,AFNE01.JPG,AFNE01.JPG,AFNE01.JPG,AFNE01.JPG,AFNE01.JPG,,,,,,,,,,,,,,,,,2,3,23,8,,,,,,,AMNE03.jpg,AMSA15.jpg,AMSA06.jpg,AMNE20.jpg,AMNE20.jpg,MN,1,num_4,16,num_4,0.766828009451,,,2017_Sep_05_1208,59.9971327229,MAFE4ImagesEEG,001,201459,
AFNE01.JPG,AFNE01.JPG,AFNE01.JPG,AFNE01.JPG,AFNE01.JPG,AFNE01.JPG,,,,,,,,,,,,,,,,,2,4,24,0,,,,,,,AMNE20.jpg,AMSA10.jpg,AMSA02.jpg,AMNE04.jpg,AMNE04.jpg,MN,1,num_4,16,num_4,0.833442117553,,,2017_Sep_05_1208,59.9971327229,MAFE4ImagesEEG,001,201459,
AFNE01.JPG,AFNE01.JPG,AFNE01.JPG,AFNE01.JPG,AFNE01.JPG,AFNE01.JPG,,,,,,,,,,,,,,,,,2,5,25,3,,,,,,,AMSA03.jpg,AMNE16.jpg,AMNE03.jpg,AMSA02.jpg,AMNE03.jpg,MN,1,num_2,16,num_2,0.983334365068,,,2017_Sep_05_1208,59.9971327229,MAFE4ImagesEEG,001,201459,
AFNE01.JPG,AFNE01.JPG,AFNE01.JPG,AFNE01.JPG,AFNE01.JPG,AFNE01.JPG,,,,,,,,,,,,,,,,,2,6,26,4,,,,,,,AMNE18.jpg,AMSA09.jpg,AMSA02.jpg,AMNE16.jpg,AMSA02.jpg,MS,2,num_2,16,num_2,0.783488833287,,,2017_Sep_05_1208,59.9971327229,MAFE4ImagesEEG,001,201459,
AFNE01.JPG,AFNE01.JPG,AFNE01.JPG,AFNE01.JPG,AFNE01.JPG,AFNE01.JPG,,,,,,,,,,,,,,,,,2,7,27,5,,,,,,,AMSA08.jpg,AMNE04.jpg,AMSA05.jpg,AMNE15.jpg,AMNE15.jpg,MN,1,num_4,32,num_2,0.883443192055,,,2017_Sep_05_1208,59.9971327229,MAFE4ImagesEEG,001,201459,
AFNE01.JPG,AFNE01.JPG,AFNE01.JPG,AFNE01.JPG,AFNE01.JPG,AFNE01.JPG,,,,,,,,,,,,,,,,,2,8,28,6,,,,,,,AMSA16.jpg,AMSA12.jpg,AMNE18.jpg,AMNE04.jpg,AMNE04.jpg,MN,1,num_4,16,num_4,0.7670692057,,,2017_Sep_05_1208,59.9971327229,MAFE4ImagesEEG,001,201459,
AFNE01.JPG,AFNE01.JPG,AFNE01.JPG,AFNE01.JPG,AFNE01.JPG,AFNE01.JPG,,,,,,,,,,,,,,,,,2,9,29,2,,,,,,,AMSA03.jpg,AMSA13.jpg,AMNE03.jpg,AMNE11.jpg,AMSA03.jpg,MS,2,num_8,32,num_4,1.10012146411,,,2017_Sep_05_1208,59.9971327229,MAFE4ImagesEEG,001,201459,
AFNE01.JPG,AFNE01.JPG,AFNE01.JPG,AFNE01.JPG,AFNE01.JPG,AFNE01.JPG,,,,,,,,,,,,,,,,,3,0,30,0,,,,,,,AMNE18.jpg,AMSA03.jpg,AMNE17.jpg,AMSA06.jpg,AMSA03.jpg,MS,2,num_6,16,num_6,0.650266711134,,,2017_Sep_05_1208,59.9971327229,MAFE4ImagesEEG,001,201459,
AFNE01.JPG,AFNE01.JPG,AFNE01.JPG,AFNE01.JPG,AFNE01.JPG,AFNE01.JPG,,,,,,,,,,,,,,,,,3,1,31,8,,,,,,,AMNE17.jpg,AMNE19.jpg,AMSA04.jpg,AMSA10.jpg,AMNE19.jpg,MN,1,num_6,32,num_2,1.10011216265,,,2017_Sep_05_1208,59.9971327229,MAFE4ImagesEEG,001,201459,
AFNE01.JPG,AFNE01.JPG,AFNE01.JPG,AFNE01.JPG,AFNE01.JPG,AFNE01.JPG,,,,,,,,,,,,,,,,,3,2,32,3,,,,,,,AMNE18.jpg,AMSA18.jpg,AMSA05.jpg,AMNE09.jpg,AMSA05.jpg,MS,2,num_2,16,num_2,1.23348439106,,,2017_Sep_05_1208,59.9971327229,MAFE4ImagesEEG,001,201459,
AFNE01.JPG,AFNE01.JPG,AFNE01.JPG,AFNE01.JPG,AFNE01.JPG,AFNE01.JPG,,,,,,,,,,,,,,,,,3,3,33,1,,,,,,,AMNE11.jpg,AMSA09.jpg,AMNE01.jpg,AMSA16.jpg,AMSA16.jpg,MS,2,num_4,32,num_6,0.783488512563,,,2017_Sep_05_1208,59.9971327229,MAFE4ImagesEEG,001,201459,
AFNE01.JPG,AFNE01.JPG,AFNE01.JPG,AFNE01.JPG,AFNE01.JPG,AFNE01.JPG,,,,,,,,,,,,,,,,,3,4,34,6,,,,,,,AMNE15.jpg,AMSA11.jpg,AMSA19.jpg,AMNE04.jpg,AMSA11.jpg,MS,2,num_6,16,num_6,1.71669350722,,,2017_Sep_05_1208,59.9971327229,MAFE4ImagesEEG,001,201459,
AFNE01.JPG,AFNE01.JPG,AFNE01.JPG,AFNE01.JPG,AFNE01.JPG,AFNE01.JPG,,,,,,,,,,,,,,,,,3,5,35,2,,,,,,,AMNE09.jpg,AMSA19.jpg,AMSA08.jpg,AMNE19.jpg,AMNE19.jpg,MN,1,num_4,32,num_2,1.36675879383,,,2017_Sep_05_1208,59.9971327229,MAFE4ImagesEEG,001,201459,
AFNE01.JPG,AFNE01.JPG,AFNE01.JPG,AFNE01.JPG,AFNE01.JPG,AFNE01.JPG,,,,,,,,,,,,,,,,,3,6,36,5,,,,,,,AMNE11.jpg,AMSA20.jpg,AMSA15.jpg,AMNE02.jpg,AMNE02.jpg,MN,1,num_4,16,num_4,1.15015653701,,,2017_Sep_05_1208,59.9971327229,MAFE4ImagesEEG,001,201459,
AFNE01.JPG,AFNE01.JPG,AFNE01.JPG,AFNE01.JPG,AFNE01.JPG,AFNE01.JPG,,,,,,,,,,,,,,,,,3,7,37,9,,,,,,,AMNE13.jpg,AMSA02.jpg,AMNE12.jpg,AMSA05.jpg,AMSA05.jpg,MS,2,num_4,32,num_8,1.0334871494,,,2017_Sep_05_1208,59.9971327229,MAFE4ImagesEEG,001,201459,
AFNE01.JPG,AFNE01.JPG,AFNE01.JPG,AFNE01.JPG,AFNE01.JPG,AFNE01.JPG,,,,,,,,,,,,,,,,,3,8,38,4,,,,,,,AMSA20.jpg,AMNE08.jpg,AMSA01.jpg,AMNE18.jpg,AMNE18.jpg,MN,1,num_4,32,num_8,0.616850445163,,,2017_Sep_05_1208,59.9971327229,MAFE4ImagesEEG,001,201459,
AFNE01.JPG,AFNE01.JPG,AFNE01.JPG,AFNE01.JPG,AFNE01.JPG,AFNE01.JPG,,,,,,,,,,,,,,,,,3,9,39,7,,,,,,,AMNE17.jpg,AMSA16.jpg,AMNE06.jpg,AMSA03.jpg,AMSA16.jpg,MS,2,num_6,32,num_2,1.04997060425,,,2017_Sep_05_1208,59.9971327229,MAFE4ImagesEEG,001,201459,
AFNE01.JPG,AFNE01.JPG,AFNE01.JPG,AFNE01.JPG,AFNE01.JPG,AFNE01.JPG,,,,,,,,,,,,,,,,,4,0,40,4,,,,,,,AMSA14.jpg,AMNE20.jpg,AMSA17.jpg,AMNE16.jpg,AMSA17.jpg,MS,2,num_2,16,num_2,0.866755746771,,,2017_Sep_05_1208,59.9971327229,MAFE4ImagesEEG,001,201459,
AFNE01.JPG,AFNE01.JPG,AFNE01.JPG,AFNE01.JPG,AFNE01.JPG,AFNE01.JPG,,,,,,,,,,,,,,,,,4,1,41,3,,,,,,,AMSA17.jpg,AMNE08.jpg,AMSA16.jpg,AMNE07.jpg,AMSA16.jpg,MS,2,num_2,16,num_2,0.800151581585,,,2017_Sep_05_1208,59.9971327229,MAFE4ImagesEEG,001,201459,
AFNE01.JPG,AFNE01.JPG,AFNE01.JPG,AFNE01.JPG,AFNE01.JPG,AFNE01.JPG,,,,,,,,,,,,,,,,,4,2,42,7,,,,,,,AMSA05.jpg,AMSA12.jpg,AMNE08.jpg,AMNE19.jpg,AMSA12.jpg,MS,2,num_6,32,num_8,0.783323652344,,,2017_Sep_05_1208,59.9971327229,MAFE4ImagesEEG,001,201459,
AFNE01.JPG,AFNE01.JPG,AFNE01.JPG,AFNE01.JPG,AFNE01.JPG,AFNE01.JPG,,,,,,,,,,,,,,,,,4,3,43,5,,,,,,,AMSA04.jpg,AMNE06.jpg,AMNE11.jpg,AMSA14.jpg,AMNE06.jpg,MN,1,num_6,32,num_2,1.03343358584,,,2017_Sep_05_1208,59.9971327229,MAFE4ImagesEEG,001,201459,
AFNE01.JPG,AFNE01.JPG,AFNE01.JPG,AFNE01.JPG,AFNE01.JPG,AFNE01.JPG,,,,,,,,,,,,,,,,,4,4,44,1,,,,,,,AMNE08.jpg,AMNE03.jpg,AMSA11.jpg,AMSA05.jpg,AMSA11.jpg,MS,2,num_2,32,num_8,0.89997764444,,,2017_Sep_05_1208,59.9971327229,MAFE4ImagesEEG,001,201459,
AFNE01.JPG,AFNE01.JPG,AFNE01.JPG,AFNE01.JPG,AFNE01.JPG,AFNE01.JPG,,,,,,,,,,,,,,,,,4,5,45,2,,,,,,,AMSA20.jpg,AMNE12.jpg,AMNE20.jpg,AMSA10.jpg,AMSA10.jpg,MS,2,num_4,16,num_4,0.916801404033,,,2017_Sep_05_1208,59.9971327229,MAFE4ImagesEEG,001,201459,
AFNE01.JPG,AFNE01.JPG,AFNE01.JPG,AFNE01.JPG,AFNE01.JPG,AFNE01.JPG,,,,,,,,,,,,,,,,,4,6,46,0,,,,,,,AMSA07.jpg,AMNE20.jpg,AMNE18.jpg,AMSA10.jpg,AMNE18.jpg,MN,1,num_2,32,num_4,0.650089021306,,,2017_Sep_05_1208,59.9971327229,MAFE4ImagesEEG,001,201459,
AFNE01.JPG,AFNE01.JPG,AFNE01.JPG,AFNE01.JPG,AFNE01.JPG,AFNE01.JPG,,,,,,,,,,,,,,,,,4,7,47,9,,,,,,,AMSA03.jpg,AMNE20.jpg,AMSA01.jpg,AMNE10.jpg,AMSA03.jpg,MS,2,num_8,16,num_8,0.650152527727,,,2017_Sep_05_1208,59.9971327229,MAFE4ImagesEEG,001,201459,
AFNE01.JPG,AFNE01.JPG,AFNE01.JPG,AFNE01.JPG,AFNE01.JPG,AFNE01.JPG,,,,,,,,,,,,,,,,,4,8,48,6,,,,,,,AMNE07.jpg,AMSA15.jpg,AMNE11.jpg,AMSA01.jpg,AMSA15.jpg,MS,2,num_6,16,num_6,0.883509905892,,,2017_Sep_05_1208,59.9971327229,MAFE4ImagesEEG,001,201459,
AFNE01.JPG,AFNE01.JPG,AFNE01.JPG,AFNE01.JPG,AFNE01.JPG,AFNE01.JPG,,,,,,,,,,,,,,,,,4,9,49,8,,,,,,,AMNE15.jpg,AMSA19.jpg,AMNE13.jpg,AMSA06.jpg,AMNE15.jpg,MN,1,num_8,32,num_6,0.783475041506,,,2017_Sep_05_1208,59.9971327229,MAFE4ImagesEEG,001,201459,
AFNE01.JPG,AFNE01.JPG,AFNE01.JPG,AFNE01.JPG,AFNE01.JPG,AFNE01.JPG,,,,,,,,,,,,,,,,,5,0,50,6,,,,,,,AMNE11.jpg,AMNE18.jpg,AMSA19.jpg,AMSA17.jpg,AMNE11.jpg,MN,1,num_8,32,num_4,1.03344384953,,,2017_Sep_05_1208,59.9971327229,MAFE4ImagesEEG,001,201459,
AFNE01.JPG,AFNE01.JPG,AFNE01.JPG,AFNE01.JPG,AFNE01.JPG,AFNE01.JPG,,,,,,,,,,,,,,,,,5,1,51,0,,,,,,,AMNE02.jpg,AMSA03.jpg,AMSA09.jpg,AMNE01.jpg,AMSA03.jpg,MS,2,num_6,32,num_4,0.900105940294,,,2017_Sep_05_1208,59.9971327229,MAFE4ImagesEEG,001,201459,
AFNE01.JPG,AFNE01.JPG,AFNE01.JPG,AFNE01.JPG,AFNE01.JPG,AFNE01.JPG,,,,,,,,,,,,,,,,,5,2,52,8,,,,,,,AMSA08.jpg,AMSA11.jpg,AMNE08.jpg,AMNE18.jpg,AMNE18.jpg,MN,1,num_4,32,num_8,0.783177715784,,,2017_Sep_05_1208,59.9971327229,MAFE4ImagesEEG,001,201459,
AFNE01.JPG,AFNE01.JPG,AFNE01.JPG,AFNE01.JPG,AFNE01.JPG,AFNE01.JPG,,,,,,,,,,,,,,,,,5,3,53,3,,,,,,,AMSA20.jpg,AMNE02.jpg,AMSA18.jpg,AMNE11.jpg,AMNE11.jpg,MN,1,num_4,16,num_4,1.00010680628,,,2017_Sep_05_1208,59.9971327229,MAFE4ImagesEEG,001,201459,
AFNE01.JPG,AFNE01.JPG,AFNE01.JPG,AFNE01.JPG,AFNE01.JPG,AFNE01.JPG,,,,,,,,,,,,,,,,,5,4,54,7,,,,,,,AMSA11.jpg,AMNE02.jpg,AMSA01.jpg,AMNE20.jpg,AMSA01.jpg,MS,2,num_2,16,num_2,0.800140997162,,,2017_Sep_05_1208,59.9971327229,MAFE4ImagesEEG,001,201459,
AFNE01.JPG,AFNE01.JPG,AFNE01.JPG,AFNE01.JPG,AFNE01.JPG,AFNE01.JPG,,,,,,,,,,,,,,,,,5,5,55,9,,,,,,,AMNE14.jpg,AMSA08.jpg,AMSA14.jpg,AMNE18.jpg,AMNE18.jpg,MN,1,num_4,32,num_8,1.91666508972,,,2017_Sep_05_1208,59.9971327229,MAFE4ImagesEEG,001,201459,
AFNE01.JPG,AFNE01.JPG,AFNE01.JPG,AFNE01.JPG,AFNE01.JPG,AFNE01.JPG,,,,,,,,,,,,,,,,,5,6,56,2,,,,,,,AMNE12.jpg,AMSA08.jpg,AMNE03.jpg,AMSA03.jpg,AMNE12.jpg,MN,1,num_8,16,num_8,0.850227388437,,,2017_Sep_05_1208,59.9971327229,MAFE4ImagesEEG,001,201459,
AFNE01.JPG,AFNE01.JPG,AFNE01.JPG,AFNE01.JPG,AFNE01.JPG,AFNE01.JPG,,,,,,,,,,,,,,,,,5,7,57,5,,,,,,,AMSA15.jpg,AMNE09.jpg,AMNE03.jpg,AMSA19.jpg,AMNE03.jpg,MN,1,num_2,16,num_2,1.53340391745,,,2017_Sep_05_1208,59.9971327229,MAFE4ImagesEEG,001,201459,
AFNE01.JPG,AFNE01.JPG,AFNE01.JPG,AFNE01.JPG,AFNE01.JPG,AFNE01.JPG,,,,,,,,,,,,,,,,,5,8,58,1,,,,,,,AMNE13.jpg,AMSA07.jpg,AMNE18.jpg,AMSA17.jpg,AMSA07.jpg,MS,2,num_6,16,num_6,1.06677800609,,,2017_Sep_05_1208,59.9971327229,MAFE4ImagesEEG,001,201459,
AFNE01.JPG,AFNE01.JPG,AFNE01.JPG,AFNE01.JPG,AFNE01.JPG,AFNE01.JPG,,,,,,,,,,,,,,,,,5,9,59,4,,,,,,,AMNE17.jpg,AMSA09.jpg,AMSA06.jpg,AMNE10.jpg,AMNE10.jpg,MN,1,num_4,16,num_4,0.933461907203,,,2017_Sep_05_1208,59.9971327229,MAFE4ImagesEEG,001,201459,
,,,,,,,,,,,,,,,,,,,,,,,,,,,,,,,,,,,,,,,,,,,space,16.7491193289,2017_Sep_05_1208,59.9971327229,MAFE4ImagesEEG,001,201459,
AFNE01.JPG,AFNE01.JPG,AFNE01.JPG,AFNE01.JPG,AFNE01.JPG,AFNE01.JPG,,,,,,,,,,,,,,,,,,,,,0,0,0,1,,,AFNE10.jpg,AFSA12.jpg,AFNE08.jpg,AFSA13.jpg,AFNE10.jpg,FN,3,num_8,32,num_4,1.01675704576,,,2017_Sep_05_1208,59.9971327229,MAFE4ImagesEEG,001,201459,
AFNE01.JPG,AFNE01.JPG,AFNE01.JPG,AFNE01.JPG,AFNE01.JPG,AFNE01.JPG,,,,,,,,,,,,,,,,,,,,,0,1,1,7,,,AFNE07.jpg,AFSA17.jpg,AFNE09.jpg,AFSA08.jpg,AFSA17.jpg,FS,4,num_6,16,num_6,0.633503891993,,,2017_Sep_05_1208,59.9971327229,MAFE4ImagesEEG,001,201459,
AFNE01.JPG,AFNE01.JPG,AFNE01.JPG,AFNE01.JPG,AFNE01.JPG,AFNE01.JPG,,,,,,,,,,,,,,,,,,,,,0,2,2,9,,,AFNE02.jpg,AFSA19.jpg,AFSA18.jpg,AFNE19.jpg,AFNE02.jpg,FN,3,num_8,16,num_8,0.700124094205,,,2017_Sep_05_1208,59.9971327229,MAFE4ImagesEEG,001,201459,
AFNE01.JPG,AFNE01.JPG,AFNE01.JPG,AFNE01.JPG,AFNE01.JPG,AFNE01.JPG,,,,,,,,,,,,,,,,,,,,,0,3,3,2,,,AFSA06.jpg,AFNE20.jpg,AFNE12.jpg,AFSA11.jpg,AFSA11.jpg,FS,4,num_4,32,num_6,0.85001986986,,,2017_Sep_05_1208,59.9971327229,MAFE4ImagesEEG,001,201459,
AFNE01.JPG,AFNE01.JPG,AFNE01.JPG,AFNE01.JPG,AFNE01.JPG,AFNE01.JPG,,,,,,,,,,,,,,,,,,,,,0,4,4,0,,,AFNE17.jpg,AFSA03.jpg,AFSA17.jpg,AFNE20.jpg,AFSA17.jpg,FS,4,num_2,16,num_2,0.90012710914,,,2017_Sep_05_1208,59.9971327229,MAFE4ImagesEEG,001,201459,
AFNE01.JPG,AFNE01.JPG,AFNE01.JPG,AFNE01.JPG,AFNE01.JPG,AFNE01.JPG,,,,,,,,,,,,,,,,,,,,,0,5,5,8,,,AFNE13.jpg,AFSA11.jpg,AFSA16.jpg,AFNE09.jpg,AFSA11.jpg,FS,4,num_6,32,num_8,0.733465307043,,,2017_Sep_05_1208,59.9971327229,MAFE4ImagesEEG,001,201459,
AFNE01.JPG,AFNE01.JPG,AFNE01.JPG,AFNE01.JPG,AFNE01.JPG,AFNE01.JPG,,,,,,,,,,,,,,,,,,,,,0,6,6,6,,,AFSA17.jpg,AFNE02.jpg,AFSA03.jpg,AFNE18.jpg,AFNE18.jpg,FN,3,num_4,32,num_8,0.766798180586,,,2017_Sep_05_1208,59.9971327229,MAFE4ImagesEEG,001,201459,
AFNE01.JPG,AFNE01.JPG,AFNE01.JPG,AFNE01.JPG,AFNE01.JPG,AFNE01.JPG,,,,,,,,,,,,,,,,,,,,,0,7,7,3,,,AFSA15.jpg,AFSA07.jpg,AFNE02.jpg,AFNE01.jpg,AFSA15.jpg,FS,4,num_8,16,num_8,0.733498663933,,,2017_Sep_05_1208,59.9971327229,MAFE4ImagesEEG,001,201459,
AFNE01.JPG,AFNE01.JPG,AFNE01.JPG,AFNE01.JPG,AFNE01.JPG,AFNE01.JPG,,,,,,,,,,,,,,,,,,,,,0,8,8,5,,,AFNE02.jpg,AFSA10.jpg,AFSA16.jpg,AFNE20.jpg,AFSA10.jpg,FS,4,num_6,32,num_4,0.983444378769,,,2017_Sep_05_1208,59.9971327229,MAFE4ImagesEEG,001,201459,
AFNE01.JPG,AFNE01.JPG,AFNE01.JPG,AFNE01.JPG,AFNE01.JPG,AFNE01.JPG,,,,,,,,,,,,,,,,,,,,,0,9,9,4,,,AFNE08.jpg,AFSA15.jpg,AFNE15.jpg,AFSA06.jpg,AFNE08.jpg,FN,3,num_8,16,num_8,1.11679062725,,,2017_Sep_05_1208,59.9971327229,MAFE4ImagesEEG,001,201459,
AFNE01.JPG,AFNE01.JPG,AFNE01.JPG,AFNE01.JPG,AFNE01.JPG,AFNE01.JPG,,,,,,,,,,,,,,,,,,,,,1,0,10,8,,,AFSA07.jpg,AFNE10.jpg,AFSA01.jpg,AFNE05.jpg,AFNE05.jpg,FN,3,num_4,16,num_4,0.966767517908,,,2017_Sep_05_1208,59.9971327229,MAFE4ImagesEEG,001,201459,
AFNE01.JPG,AFNE01.JPG,AFNE01.JPG,AFNE01.JPG,AFNE01.JPG,AFNE01.JPG,,,,,,,,,,,,,,,,,,,,,1,1,11,2,,,AFNE17.jpg,AFNE11.jpg,AFSA06.jpg,AFSA01.jpg,AFSA06.jpg,FS,4,num_2,32,num_4,1.01675608353,,,2017_Sep_05_1208,59.9971327229,MAFE4ImagesEEG,001,201459,
AFNE01.JPG,AFNE01.JPG,AFNE01.JPG,AFNE01.JPG,AFNE01.JPG,AFNE01.JPG,,,,,,,,,,,,,,,,,,,,,1,2,12,4,,,AFSA10.jpg,AFNE01.jpg,AFSA07.jpg,AFNE03.jpg,AFSA10.jpg,FS,4,num_8,16,num_8,1.00012091891,,,2017_Sep_05_1208,59.9971327229,MAFE4ImagesEEG,001,201459,
AFNE01.JPG,AFNE01.JPG,AFNE01.JPG,AFNE01.JPG,AFNE01.JPG,AFNE01.JPG,,,,,,,,,,,,,,,,,,,,,1,3,13,6,,,AFSA07.jpg,AFSA13.jpg,AFNE06.jpg,AFNE09.jpg,AFNE09.jpg,FN,3,num_4,16,num_4,0.850105507358,,,2017_Sep_05_1208,59.9971327229,MAFE4ImagesEEG,001,201459,
AFNE01.JPG,AFNE01.JPG,AFNE01.JPG,AFNE01.JPG,AFNE01.JPG,AFNE01.JPG,,,,,,,,,,,,,,,,,,,,,1,4,14,7,,,AFNE18.jpg,AFNE19.jpg,AFSA13.jpg,AFSA12.jpg,AFSA13.jpg,FS,4,num_2,16,num_2,0.983468113525,,,2017_Sep_05_1208,59.9971327229,MAFE4ImagesEEG,001,201459,
AFNE01.JPG,AFNE01.JPG,AFNE01.JPG,AFNE01.JPG,AFNE01.JPG,AFNE01.JPG,,,,,,,,,,,,,,,,,,,,,1,5,15,3,,,AFNE03.jpg,AFSA01.jpg,AFSA02.jpg,AFNE16.jpg,AFNE03.jpg,FN,3,num_8,16,num_8,0.666750165925,,,2017_Sep_05_1208,59.9971327229,MAFE4ImagesEEG,001,201459,
AFNE01.JPG,AFNE01.JPG,AFNE01.JPG,AFNE01.JPG,AFNE01.JPG,AFNE01.JPG,,,,,,,,,,,,,,,,,,,,,1,6,16,5,,,AFNE09.jpg,AFNE16.jpg,AFSA06.jpg,AFSA05.jpg,AFNE16.jpg,FN,3,num_6,16,num_6,0.883465323073,,,2017_Sep_05_1208,59.9971327229,MAFE4ImagesEEG,001,201459,
AFNE01.JPG,AFNE01.JPG,AFNE01.JPG,AFNE01.JPG,AFNE01.JPG,AFNE01.JPG,,,,,,,,,,,,,,,,,,,,,1,7,17,1,,,AFSA15.jpg,AFNE04.jpg,AFSA05.jpg,AFNE15.jpg,AFSA05.jpg,FS,4,num_2,16,num_2,0.600162037706,,,2017_Sep_05_1208,59.9971327229,MAFE4ImagesEEG,001,201459,
AFNE01.JPG,AFNE01.JPG,AFNE01.JPG,AFNE01.JPG,AFNE01.JPG,AFNE01.JPG,,,,,,,,,,,,,,,,,,,,,1,8,18,9,,,AFSA06.jpg,AFSA16.jpg,AFNE11.jpg,AFNE01.jpg,AFSA16.jpg,FS,4,num_6,16,num_6,0.983448227635,,,2017_Sep_05_1208,59.9971327229,MAFE4ImagesEEG,001,201459,
AFNE01.JPG,AFNE01.JPG,AFNE01.JPG,AFNE01.JPG,AFNE01.JPG,AFNE01.JPG,,,,,,,,,,,,,,,,,,,,,1,9,19,0,,,AFSA19.jpg,AFNE05.jpg,AFSA02.jpg,AFNE20.jpg,AFSA02.jpg,FS,4,num_2,16,num_2,0.883439343132,,,2017_Sep_05_1208,59.9971327229,MAFE4ImagesEEG,001,201459,
AFNE01.JPG,AFNE01.JPG,AFNE01.JPG,AFNE01.JPG,AFNE01.JPG,AFNE01.JPG,,,,,,,,,,,,,,,,,,,,,2,0,20,9,,,AFNE18.jpg,AFNE02.jpg,AFSA20.jpg,AFSA08.jpg,AFSA08.jpg,FS,4,num_4,16,num_4,0.933466397575,,,2017_Sep_05_1208,59.9971327229,MAFE4ImagesEEG,001,201459,
AFNE01.JPG,AFNE01.JPG,AFNE01.JPG,AFNE01.JPG,AFNE01.JPG,AFNE01.JPG,,,,,,,,,,,,,,,,,,,,,2,1,21,7,,,AFNE04.jpg,AFSA09.jpg,AFSA17.jpg,AFNE09.jpg,AFNE09.jpg,FN,3,num_4,16,num_4,0.750195410685,,,2017_Sep_05_1208,59.9971327229,MAFE4ImagesEEG,001,201459,
AFNE01.JPG,AFNE01.JPG,AFNE01.JPG,AFNE01.JPG,AFNE01.JPG,AFNE01.JPG,,,,,,,,,,,,,,,,,,,,,2,2,22,6,,,AFSA20.jpg,AFSA01.jpg,AFNE01.jpg,AFNE08.jpg,AFNE01.jpg,FN,3,num_2,32,num_8,1.10009291832,,,2017_Sep_05_1208,59.9971327229,MAFE4ImagesEEG,001,201459,
AFNE01.JPG,AFNE01.JPG,AFNE01.JPG,AFNE01.JPG,AFNE01.JPG,AFNE01.JPG,,,,,,,,,,,,,,,,,,,,,2,3,23,3,,,AFNE08.jpg,AFSA09.jpg,AFSA07.jpg,AFNE05.jpg,AFNE08.jpg,FN,3,num_8,16,num_8,0.816840309766,,,2017_Sep_05_1208,59.9971327229,MAFE4ImagesEEG,001,201459,
AFNE01.JPG,AFNE01.JPG,AFNE01.JPG,AFNE01.JPG,AFNE01.JPG,AFNE01.JPG,,,,,,,,,,,,,,,,,,,,,2,4,24,5,,,AFNE02.jpg,AFSA02.jpg,AFSA03.jpg,AFNE04.jpg,AFNE04.jpg,FN,3,num_4,16,num_4,0.800158317143,,,2017_Sep_05_1208,59.9971327229,MAFE4ImagesEEG,001,201459,
AFNE01.JPG,AFNE01.JPG,AFNE01.JPG,AFNE01.JPG,AFNE01.JPG,AFNE01.JPG,,,,,,,,,,,,,,,,,,,,,2,5,25,0,,,AFNE07.jpg,AFNE20.jpg,AFSA04.jpg,AFSA09.jpg,AFNE07.jpg,FN,3,num_8,32,num_2,0.950104448886,,,2017_Sep_05_1208,59.9971327229,MAFE4ImagesEEG,001,201459,
AFNE01.JPG,AFNE01.JPG,AFNE01.JPG,AFNE01.JPG,AFNE01.JPG,AFNE01.JPG,,,,,,,,,,,,,,,,,,,,,2,6,26,2,,,AFNE09.jpg,AFSA04.jpg,AFNE07.jpg,AFSA09.jpg,AFSA04.jpg,FS,4,num_6,32,num_8,0.650158621778,,,2017_Sep_05_1208,59.9971327229,MAFE4ImagesEEG,001,201459,
AFNE01.JPG,AFNE01.JPG,AFNE01.JPG,AFNE01.JPG,AFNE01.JPG,AFNE01.JPG,,,,,,,,,,,,,,,,,,,,,2,7,27,4,,,AFSA03.jpg,AFNE08.jpg,AFNE17.jpg,AFSA02.jpg,AFNE08.jpg,FN,3,num_6,16,num_6,0.766773483658,,,2017_Sep_05_1208,59.9971327229,MAFE4ImagesEEG,001,201459,
AFNE01.JPG,AFNE01.JPG,AFNE01.JPG,AFNE01.JPG,AFNE01.JPG,AFNE01.JPG,,,,,,,,,,,,,,,,,,,,,2,8,28,8,,,AFNE03.jpg,AFNE04.jpg,AFSA07.jpg,AFSA11.jpg,AFSA11.jpg,FS,4,num_4,32,num_8,0.716808332072,,,2017_Sep_05_1208,59.9971327229,MAFE4ImagesEEG,001,201459,
AFNE01.JPG,AFNE01.JPG,AFNE01.JPG,AFNE01.JPG,AFNE01.JPG,AFNE01.JPG,,,,,,,,,,,,,,,,,,,,,2,9,29,1,,,AFNE20.jpg,AFSA20.jpg,AFNE18.jpg,AFSA11.jpg,AFNE18.jpg,FN,3,num_2,32,num_6,0.933522847772,,,2017_Sep_05_1208,59.9971327229,MAFE4ImagesEEG,001,201459,
AFNE01.JPG,AFNE01.JPG,AFNE01.JPG,AFNE01.JPG,AFNE01.JPG,AFNE01.JPG,,,,,,,,,,,,,,,,,,,,,3,0,30,8,,,AFNE07.jpg,AFSA03.jpg,AFSA15.jpg,AFNE04.jpg,AFSA03.jpg,FS,4,num_6,32,num_8,1.25006823736,,,2017_Sep_05_1208,59.9971327229,MAFE4ImagesEEG,001,201459,
AFNE01.JPG,AFNE01.JPG,AFNE01.JPG,AFNE01.JPG,AFNE01.JPG,AFNE01.JPG,,,,,,,,,,,,,,,,,,,,,3,1,31,4,,,AFSA01.jpg,AFSA20.jpg,AFNE10.jpg,AFNE03.jpg,AFNE10.jpg,FN,3,num_2,16,num_2,0.766812293208,,,2017_Sep_05_1208,59.9971327229,MAFE4ImagesEEG,001,201459,
AFNE01.JPG,AFNE01.JPG,AFNE01.JPG,AFNE01.JPG,AFNE01.JPG,AFNE01.JPG,,,,,,,,,,,,,,,,,,,,,3,2,32,1,,,AFSA03.jpg,AFNE08.jpg,AFSA11.jpg,AFNE02.jpg,AFNE08.jpg,FN,3,num_6,32,num_8,1.60005523136,,,2017_Sep_05_1208,59.9971327229,MAFE4ImagesEEG,001,201459,
AFNE01.JPG,AFNE01.JPG,AFNE01.JPG,AFNE01.JPG,AFNE01.JPG,AFNE01.JPG,,,,,,,,,,,,,,,,,,,,,3,3,33,7,,,AFNE17.jpg,AFSA16.jpg,AFSA13.jpg,AFNE15.jpg,AFSA16.jpg,FS,4,num_6,16,num_6,0.70018631767,,,2017_Sep_05_1208,59.9971327229,MAFE4ImagesEEG,001,201459,
AFNE01.JPG,AFNE01.JPG,AFNE01.JPG,AFNE01.JPG,AFNE01.JPG,AFNE01.JPG,,,,,,,,,,,,,,,,,,,,,3,4,34,6,,,AFSA07.jpg,AFNE20.jpg,AFNE01.jpg,AFSA17.jpg,AFSA17.jpg,FS,4,num_4,32,num_6,0.96681338374,,,2017_Sep_05_1208,59.9971327229,MAFE4ImagesEEG,001,201459,
AFNE01.JPG,AFNE01.JPG,AFNE01.JPG,AFNE01.JPG,AFNE01.JPG,AFNE01.JPG,,,,,,,,,,,,,,,,,,,,,3,5,35,3,,,AFNE07.jpg,AFSA07.jpg,AFSA14.jpg,AFNE15.jpg,AFNE07.jpg,FN,3,num_8,16,num_8,0.866848761274,,,2017_Sep_05_1208,59.9971327229,MAFE4ImagesEEG,001,201459,
AFNE01.JPG,AFNE01.JPG,AFNE01.JPG,AFNE01.JPG,AFNE01.JPG,AFNE01.JPG,,,,,,,,,,,,,,,,,,,,,3,6,36,0,,,AFSA15.jpg,AFNE04.jpg,AFSA09.jpg,AFNE08.jpg,AFNE04.jpg,FN,3,num_6,16,num_6,1.049960982,,,2017_Sep_05_1208,59.9971327229,MAFE4ImagesEEG,001,201459,
AFNE01.JPG,AFNE01.JPG,AFNE01.JPG,AFNE01.JPG,AFNE01.JPG,AFNE01.JPG,,,,,,,,,,,,,,,,,,,,,3,7,37,5,,,AFNE15.jpg,AFNE12.jpg,AFSA15.jpg,AFSA13.jpg,AFNE12.jpg,FN,3,num_6,16,num_6,0.816827159491,,,2017_Sep_05_1208,59.9971327229,MAFE4ImagesEEG,001,201459,
AFNE01.JPG,AFNE01.JPG,AFNE01.JPG,AFNE01.JPG,AFNE01.JPG,AFNE01.JPG,,,,,,,,,,,,,,,,,,,,,3,8,38,9,,,AFSA06.jpg,AFNE04.jpg,AFNE06.jpg,AFSA08.jpg,AFNE04.jpg,FN,3,num_6,16,num_6,0.983482546755,,,2017_Sep_05_1208,59.9971327229,MAFE4ImagesEEG,001,201459,
