IPosition2,IPosition3,IPosition1,IPosition6,IPosition4,IPosition5,TrialsM1.thisRepN,TrialsM1.thisTrialN,TrialsM1.thisN,TrialsM1.thisIndex,TrialsF1.thisRepN,TrialsF1.thisTrialN,TrialsF1.thisN,TrialsF1.thisIndex,TrialsM2.thisRepN,TrialsM2.thisTrialN,TrialsM2.thisN,TrialsM2.thisIndex,TrialsF2.thisRepN,TrialsF2.thisTrialN,TrialsF2.thisN,TrialsF2.thisIndex,TrialsM3.thisRepN,TrialsM3.thisTrialN,TrialsM3.thisN,TrialsM3.thisIndex,TrialsF3.thisRepN,TrialsF3.thisTrialN,TrialsF3.thisN,TrialsF3.thisIndex,InstrKey_resp.keys,InstrKey_resp.rt,Image0 _Position,Image1 _Position,Image2 _Position,Image3 _Position,Center_image,condition,code,correct_answer,accuracy,Key_Resp.keys,Key_Resp.rt,BreakKey_resp.keys,BreakKey_resp.rt,date,frameRate,expName,session,participant,
,,,,,,,,,,,,,,,,,,,,,,,,,,,,,,space,18.3991245092,,,,,,,,,,,,,,2017_Sep_20_1340,60.0086997191,MAFE4ImagesEEG,001,201498,
AMNE23.JPG,AMNE24.JPG,AMNE22.JPG,AMSA24.JPG,AMSA22.JPG,AMSA23.JPG,0,0,0,9,,,,,,,,,,,,,,,,,,,,,,,AMSA16.jpg,AMNE10.jpg,AMSA05.jpg,AMNE04.jpg,AMSA16.jpg,MS,2,num_8,32,num_2,1.63343825795,,,2017_Sep_20_1340,60.0086997191,MAFE4ImagesEEG,001,201498,
AMNE22.JPG,AMSA24.JPG,AMSA22.JPG,AMNE25.JPG,AMNE24.JPG,AMSA25.JPG,0,1,1,7,,,,,,,,,,,,,,,,,,,,,,,AMNE18.jpg,AMSA17.jpg,AMNE12.jpg,AMSA04.jpg,AMNE12.jpg,MN,1,num_2,32,num_6,0.883526942447,,,2017_Sep_20_1340,60.0086997191,MAFE4ImagesEEG,001,201498,
AMSA21.JPG,AMNE23.JPG,AMNE21.JPG,AMSA25.JPG,AMNE25.JPG,AMSA23.JPG,0,2,2,5,,,,,,,,,,,,,,,,,,,,,,,AMNE07.jpg,AMSA03.jpg,AMNE12.jpg,AMSA13.jpg,AMNE12.jpg,MN,1,num_2,16,num_2,0.683455674108,,,2017_Sep_20_1340,60.0086997191,MAFE4ImagesEEG,001,201498,
AFSA25.JPG,AFNE24.JPG,AFSA24.JPG,AFNE21.JPG,AFSA21.JPG,AFNE25.JPG,0,3,3,2,,,,,,,,,,,,,,,,,,,,,,,AMNE01.jpg,AMSA07.jpg,AMSA14.jpg,AMNE06.jpg,AMSA14.jpg,MS,2,num_2,32,num_6,1.55012037357,,,2017_Sep_20_1340,60.0086997191,MAFE4ImagesEEG,001,201498,
AFSA21.JPG,AFNE23.JPG,AFNE21.JPG,AFSA25.JPG,AFNE25.JPG,AFSA23.JPG,0,4,4,4,,,,,,,,,,,,,,,,,,,,,,,AMNE11.jpg,AMNE09.jpg,AMSA10.jpg,AMSA04.jpg,AMSA10.jpg,MS,2,num_2,32,num_8,1.28342892443,,,2017_Sep_20_1340,60.0086997191,MAFE4ImagesEEG,001,201498,
AFNE22.JPG,AFSA24.JPG,AFSA22.JPG,AFNE25.JPG,AFNE24.JPG,AFSA25.JPG,0,5,5,6,,,,,,,,,,,,,,,,,,,,,,,AMSA05.jpg,AMNE20.jpg,AMSA15.jpg,AMNE12.jpg,AMSA15.jpg,MS,2,num_2,16,num_2,0.733309513073,,,2017_Sep_20_1340,60.0086997191,MAFE4ImagesEEG,001,201498,
AFNE23.JPG,AFNE24.JPG,AFNE22.JPG,AFSA24.JPG,AFSA22.JPG,AFSA23.JPG,0,6,6,8,,,,,,,,,,,,,,,,,,,,,,,AMSA09.jpg,AMNE06.jpg,AMSA16.jpg,AMNE05.jpg,AMNE06.jpg,MN,1,num_6,16,num_6,1.03343549959,,,2017_Sep_20_1340,60.0086997191,MAFE4ImagesEEG,001,201498,
AMSA25.JPG,AMNE24.JPG,AMSA24.JPG,AMNE26.JPG,AMSA21.JPG,AMNE25.JPG,0,7,7,3,,,,,,,,,,,,,,,,,,,,,,,AMNE16.jpg,AMSA07.jpg,AMSA03.jpg,AMNE04.jpg,AMSA03.jpg,MS,2,num_2,32,num_4,1.23342786598,,,2017_Sep_20_1340,60.0086997191,MAFE4ImagesEEG,001,201498,
AMSA21.JPG,AMNE22.JPG,AMNE21.JPG,AMSA23.JPG,AMSA22.JPG,AMNE23.JPG,0,8,8,1,,,,,,,,,,,,,,,,,,,,,,,AMSA16.jpg,AMNE17.jpg,AMNE20.jpg,AMSA17.jpg,AMNE20.jpg,MN,1,num_2,32,num_8,1.78336926686,,,2017_Sep_20_1340,60.0086997191,MAFE4ImagesEEG,001,201498,
AFSA21.JPG,AFNE22.JPG,AFNE21.JPG,AFSA23.JPG,AFSA22.JPG,AFNE23.JPG,0,9,9,0,,,,,,,,,,,,,,,,,,,,,,,AMNE14.jpg,AMSA14.jpg,AMSA04.jpg,AMNE16.jpg,AMNE14.jpg,MN,1,num_8,32,num_2,1.90010404793,,,2017_Sep_20_1340,60.0086997191,MAFE4ImagesEEG,001,201498,
AFNE22.JPG,AFSA24.JPG,AFSA22.JPG,AFNE25.JPG,AFNE24.JPG,AFSA25.JPG,,,,,0,0,0,6,,,,,,,,,,,,,,,,,,,AFNE10.jpg,AFNE12.jpg,AFSA03.jpg,AFSA02.jpg,AFNE12.jpg,FN,3,num_6,32,num_4,1.96675085012,,,2017_Sep_20_1340,60.0086997191,MAFE4ImagesEEG,001,201498,
AFSA21.JPG,AFNE23.JPG,AFNE21.JPG,AFSA25.JPG,AFNE25.JPG,AFSA23.JPG,,,,,0,1,1,4,,,,,,,,,,,,,,,,,,,AFSA15.jpg,AFNE07.jpg,AFSA01.jpg,AFNE09.jpg,AFSA01.jpg,FS,4,num_2,16,num_2,1.40014125372,,,2017_Sep_20_1340,60.0086997191,MAFE4ImagesEEG,001,201498,
AFNE23.JPG,AFNE24.JPG,AFNE22.JPG,AFSA24.JPG,AFSA22.JPG,AFSA23.JPG,,,,,0,2,2,8,,,,,,,,,,,,,,,,,,,AFSA03.jpg,AFNE17.jpg,AFNE20.jpg,AFSA15.jpg,AFSA03.jpg,FS,4,num_8,32,num_4,1.81654753329,,,2017_Sep_20_1340,60.0086997191,MAFE4ImagesEEG,001,201498,
AMNE23.JPG,AMNE24.JPG,AMNE22.JPG,AMSA24.JPG,AMSA22.JPG,AMSA23.JPG,,,,,0,3,3,9,,,,,,,,,,,,,,,,,,,AFNE12.jpg,AFNE13.jpg,AFSA15.jpg,AFSA16.jpg,AFSA15.jpg,FS,4,num_2,16,num_2,1.98336997249,,,2017_Sep_20_1340,60.0086997191,MAFE4ImagesEEG,001,201498,
AFSA21.JPG,AFNE22.JPG,AFNE21.JPG,AFSA23.JPG,AFSA22.JPG,AFNE23.JPG,,,,,0,4,4,0,,,,,,,,,,,,,,,,,,,AFNE03.jpg,AFSA17.jpg,AFNE17.jpg,AFSA07.jpg,AFNE17.jpg,FN,3,num_2,32,num_6,1.31672939264,,,2017_Sep_20_1340,60.0086997191,MAFE4ImagesEEG,001,201498,
AMSA25.JPG,AMNE24.JPG,AMSA24.JPG,AMNE26.JPG,AMSA21.JPG,AMNE25.JPG,,,,,0,5,5,3,,,,,,,,,,,,,,,,,,,AFSA19.jpg,AFNE18.jpg,AFSA09.jpg,AFNE06.jpg,AFNE18.jpg,FN,3,num_6,32,num_4,2.01638883133,,,2017_Sep_20_1340,60.0086997191,MAFE4ImagesEEG,001,201498,
AFSA25.JPG,AFNE24.JPG,AFSA24.JPG,AFNE21.JPG,AFSA21.JPG,AFNE25.JPG,,,,,0,6,6,2,,,,,,,,,,,,,,,,,,,AFNE10.jpg,AFSA08.jpg,AFSA14.jpg,AFNE20.jpg,AFNE10.jpg,FN,3,num_8,16,num_8,1.38340281622,,,2017_Sep_20_1340,60.0086997191,MAFE4ImagesEEG,001,201498,
AMSA21.JPG,AMNE22.JPG,AMNE21.JPG,AMSA23.JPG,AMSA22.JPG,AMNE23.JPG,,,,,0,7,7,1,,,,,,,,,,,,,,,,,,,AFNE13.jpg,AFNE02.jpg,AFSA15.jpg,AFSA16.jpg,AFSA15.jpg,FS,4,num_2,32,num_4,1.75009670299,,,2017_Sep_20_1340,60.0086997191,MAFE4ImagesEEG,001,201498,
AMNE22.JPG,AMSA24.JPG,AMSA22.JPG,AMNE25.JPG,AMNE24.JPG,AMSA25.JPG,,,,,0,8,8,7,,,,,,,,,,,,,,,,,,,AFNE14.jpg,AFSA19.jpg,AFNE20.jpg,AFSA11.jpg,AFSA19.jpg,FS,4,num_6,16,num_6,1.28349114791,,,2017_Sep_20_1340,60.0086997191,MAFE4ImagesEEG,001,201498,
AMSA21.JPG,AMNE23.JPG,AMNE21.JPG,AMSA25.JPG,AMNE25.JPG,AMSA23.JPG,,,,,0,9,9,5,,,,,,,,,,,,,,,,,,,AFNE17.jpg,AFSA15.jpg,AFSA05.jpg,AFNE14.jpg,AFNE14.jpg,FN,3,num_4,32,num_8,1.30009711995,,,2017_Sep_20_1340,60.0086997191,MAFE4ImagesEEG,001,201498,
AFNE22.JPG,AFSA24.JPG,AFSA22.JPG,AFNE25.JPG,AFNE24.JPG,AFSA25.JPG,,,,,,,,,0,0,0,6,,,,,,,,,,,,,,,AMSA13.jpg,AMNE04.jpg,AMSA12.jpg,AMNE14.jpg,AMSA13.jpg,MS,2,num_8,32,num_2,0.916769677535,,,2017_Sep_20_1340,60.0086997191,MAFE4ImagesEEG,001,201498,
AMSA25.JPG,AMNE24.JPG,AMSA24.JPG,AMNE26.JPG,AMSA21.JPG,AMNE25.JPG,,,,,,,,,0,1,1,3,,,,,,,,,,,,,,,AMNE04.jpg,AMNE10.jpg,AMSA10.jpg,AMSA19.jpg,AMSA19.jpg,MS,2,num_4,16,num_4,1.50007056271,,,2017_Sep_20_1340,60.0086997191,MAFE4ImagesEEG,001,201498,
AMSA21.JPG,AMNE22.JPG,AMNE21.JPG,AMSA23.JPG,AMSA22.JPG,AMNE23.JPG,,,,,,,,,0,2,2,1,,,,,,,,,,,,,,,AMNE16.jpg,AMNE02.jpg,AMSA18.jpg,AMSA03.jpg,AMNE16.jpg,MN,1,num_8,32,num_2,1.58341603069,,,2017_Sep_20_1340,60.0086997191,MAFE4ImagesEEG,001,201498,
AFSA21.JPG,AFNE23.JPG,AFNE21.JPG,AFSA25.JPG,AFNE25.JPG,AFSA23.JPG,,,,,,,,,0,3,3,4,,,,,,,,,,,,,,,AMNE01.jpg,AMSA04.jpg,AMNE16.jpg,AMSA01.jpg,AMSA01.jpg,MS,2,num_4,32,num_6,1.28347446945,,,2017_Sep_20_1340,60.0086997191,MAFE4ImagesEEG,001,201498,
AFSA25.JPG,AFNE24.JPG,AFSA24.JPG,AFNE21.JPG,AFSA21.JPG,AFNE25.JPG,,,,,,,,,0,4,4,2,,,,,,,,,,,,,,,AMSA10.jpg,AMNE03.jpg,AMNE04.jpg,AMSA17.jpg,AMSA10.jpg,MS,2,num_8,32,num_4,2.10000596576,,,2017_Sep_20_1340,60.0086997191,MAFE4ImagesEEG,001,201498,
AMNE23.JPG,AMNE24.JPG,AMNE22.JPG,AMSA24.JPG,AMSA22.JPG,AMSA23.JPG,,,,,,,,,0,5,5,9,,,,,,,,,,,,,,,AMSA07.jpg,AMNE11.jpg,AMSA19.jpg,AMNE15.jpg,AMNE11.jpg,MN,1,num_6,32,num_2,1.23324857255,,,2017_Sep_20_1340,60.0086997191,MAFE4ImagesEEG,001,201498,
AFNE23.JPG,AFNE24.JPG,AFNE22.JPG,AFSA24.JPG,AFSA22.JPG,AFSA23.JPG,,,,,,,,,0,6,6,8,,,,,,,,,,,,,,,AMNE12.jpg,AMSA13.jpg,AMSA10.jpg,AMNE13.jpg,AMNE13.jpg,MN,1,num_4,32,num_8,1.38340441992,,,2017_Sep_20_1340,60.0086997191,MAFE4ImagesEEG,001,201498,
AMSA21.JPG,AMNE23.JPG,AMNE21.JPG,AMSA25.JPG,AMNE25.JPG,AMSA23.JPG,,,,,,,,,0,7,7,5,,,,,,,,,,,,,,,AMNE17.jpg,AMNE08.jpg,AMSA01.jpg,AMSA07.jpg,AMNE08.jpg,MN,1,num_6,16,num_6,0.950125633702,,,2017_Sep_20_1340,60.0086997191,MAFE4ImagesEEG,001,201498,
AMNE22.JPG,AMSA24.JPG,AMSA22.JPG,AMNE25.JPG,AMNE24.JPG,AMSA25.JPG,,,,,,,,,0,8,8,7,,,,,,,,,,,,,,,AMNE06.jpg,AMSA03.jpg,AMNE04.jpg,AMSA15.jpg,AMNE06.jpg,MN,1,num_8,16,num_8,1.28341481188,,,2017_Sep_20_1340,60.0086997191,MAFE4ImagesEEG,001,201498,
AFSA21.JPG,AFNE22.JPG,AFNE21.JPG,AFSA23.JPG,AFSA22.JPG,AFNE23.JPG,,,,,,,,,0,9,9,0,,,,,,,,,,,,,,,AMSA08.jpg,AMNE03.jpg,AMNE09.jpg,AMSA05.jpg,AMSA05.jpg,MS,2,num_4,16,num_4,1.43327237143,,,2017_Sep_20_1340,60.0086997191,MAFE4ImagesEEG,001,201498,
AMSA21.JPG,AMNE22.JPG,AMNE21.JPG,AMSA23.JPG,AMSA22.JPG,AMNE23.JPG,,,,,,,,,,,,,0,0,0,1,,,,,,,,,,,AFSA10.jpg,AFNE03.jpg,AFNE16.jpg,AFSA13.jpg,AFNE03.jpg,FN,3,num_6,32,num_8,1.86654249768,,,2017_Sep_20_1340,60.0086997191,MAFE4ImagesEEG,001,201498,
AFSA21.JPG,AFNE22.JPG,AFNE21.JPG,AFSA23.JPG,AFSA22.JPG,AFNE23.JPG,,,,,,,,,,,,,0,1,1,0,,,,,,,,,,,AFNE15.jpg,AFSA12.jpg,AFSA01.jpg,AFNE03.jpg,AFNE03.jpg,FN,3,num_4,16,num_4,1.03351600523,,,2017_Sep_20_1340,60.0086997191,MAFE4ImagesEEG,001,201498,
AFNE22.JPG,AFSA24.JPG,AFSA22.JPG,AFNE25.JPG,AFNE24.JPG,AFSA25.JPG,,,,,,,,,,,,,0,2,2,6,,,,,,,,,,,AFNE02.jpg,AFSA08.jpg,AFSA15.jpg,AFNE17.jpg,AFSA08.jpg,FS,4,num_6,16,num_6,0.950104144148,,,2017_Sep_20_1340,60.0086997191,MAFE4ImagesEEG,001,201498,
AMNE22.JPG,AMSA24.JPG,AMSA22.JPG,AMNE25.JPG,AMNE24.JPG,AMSA25.JPG,,,,,,,,,,,,,0,3,3,7,,,,,,,,,,,AFNE10.jpg,AFSA12.jpg,AFSA04.jpg,AFNE04.jpg,AFNE10.jpg,FN,3,num_8,32,num_2,1.86677182649,,,2017_Sep_20_1340,60.0086997191,MAFE4ImagesEEG,001,201498,
AMNE23.JPG,AMNE24.JPG,AMNE22.JPG,AMSA24.JPG,AMSA22.JPG,AMSA23.JPG,,,,,,,,,,,,,0,4,4,9,,,,,,,,,,,AFNE01.jpg,AFSA03.jpg,AFNE16.jpg,AFSA04.jpg,AFNE16.jpg,FN,3,num_2,32,num_8,1.83336936308,,,2017_Sep_20_1340,60.0086997191,MAFE4ImagesEEG,001,201498,
AMSA25.JPG,AMNE24.JPG,AMSA24.JPG,AMNE26.JPG,AMSA21.JPG,AMNE25.JPG,,,,,,,,,,,,,0,5,5,3,,,,,,,,,,,AFSA02.jpg,AFNE01.jpg,AFSA08.jpg,AFNE12.jpg,AFNE01.jpg,FN,3,num_6,32,num_2,2.38307277517,,,2017_Sep_20_1340,60.0086997191,MAFE4ImagesEEG,001,201498,
AFSA21.JPG,AFNE23.JPG,AFNE21.JPG,AFSA25.JPG,AFNE25.JPG,AFSA23.JPG,,,,,,,,,,,,,0,6,6,4,,,,,,,,,,,AFSA11.jpg,AFNE15.jpg,AFNE14.jpg,AFSA10.jpg,AFNE14.jpg,FN,3,num_2,16,num_2,2.56671576121,,,2017_Sep_20_1340,60.0086997191,MAFE4ImagesEEG,001,201498,
AFSA25.JPG,AFNE24.JPG,AFSA24.JPG,AFNE21.JPG,AFSA21.JPG,AFNE25.JPG,,,,,,,,,,,,,0,7,7,2,,,,,,,,,,,AFNE19.jpg,AFNE15.jpg,AFSA11.jpg,AFSA08.jpg,AFSA11.jpg,FS,4,num_2,32,num_8,2.15005673884,,,2017_Sep_20_1340,60.0086997191,MAFE4ImagesEEG,001,201498,
AFNE23.JPG,AFNE24.JPG,AFNE22.JPG,AFSA24.JPG,AFSA22.JPG,AFSA23.JPG,,,,,,,,,,,,,0,8,8,8,,,,,,,,,,,AFSA07.jpg,AFNE02.jpg,AFNE16.jpg,AFSA15.jpg,AFSA15.jpg,FS,4,num_4,16,num_4,1.7000895505,,,2017_Sep_20_1340,60.0086997191,MAFE4ImagesEEG,001,201498,
AMSA21.JPG,AMNE23.JPG,AMNE21.JPG,AMSA25.JPG,AMNE25.JPG,AMSA23.JPG,,,,,,,,,,,,,0,9,9,5,,,,,,,,,,,AFSA16.jpg,AFNE13.jpg,AFSA17.jpg,AFNE06.jpg,AFNE06.jpg,FN,3,num_4,16,num_4,1.21661854504,,,2017_Sep_20_1340,60.0086997191,MAFE4ImagesEEG,001,201498,
AMNE23.JPG,AMNE24.JPG,AMNE22.JPG,AMSA24.JPG,AMSA22.JPG,AMSA23.JPG,,,,,,,,,,,,,,,,,0,0,0,9,,,,,,,AMNE10.jpg,AMSA19.jpg,AMSA05.jpg,AMNE06.jpg,AMNE10.jpg,MN,1,num_8,32,num_2,0.983427705615,,,2017_Sep_20_1340,60.0086997191,MAFE4ImagesEEG,001,201498,
AFSA25.JPG,AFNE24.JPG,AFSA24.JPG,AFNE21.JPG,AFSA21.JPG,AFNE25.JPG,,,,,,,,,,,,,,,,,0,1,1,2,,,,,,,AMNE16.jpg,AMSA09.jpg,AMSA16.jpg,AMNE15.jpg,AMSA09.jpg,MS,2,num_6,32,num_8,2.40004278666,,,2017_Sep_20_1340,60.0086997191,MAFE4ImagesEEG,001,201498,
AMSA21.JPG,AMNE22.JPG,AMNE21.JPG,AMSA23.JPG,AMSA22.JPG,AMNE23.JPG,,,,,,,,,,,,,,,,,0,2,2,1,,,,,,,AMSA08.jpg,AMNE03.jpg,AMNE10.jpg,AMSA10.jpg,AMSA08.jpg,MS,2,num_8,16,num_8,2.06668080059,,,2017_Sep_20_1340,60.0086997191,MAFE4ImagesEEG,001,201498,
AMSA21.JPG,AMNE23.JPG,AMNE21.JPG,AMSA25.JPG,AMNE25.JPG,AMSA23.JPG,,,,,,,,,,,,,,,,,0,3,3,5,,,,,,,AMSA06.jpg,AMNE13.jpg,AMSA15.jpg,AMNE18.jpg,AMNE18.jpg,MN,1,num_4,32,num_6,1.28342090594,,,2017_Sep_20_1340,60.0086997191,MAFE4ImagesEEG,001,201498,
AFNE23.JPG,AFNE24.JPG,AFNE22.JPG,AFSA24.JPG,AFSA22.JPG,AFSA23.JPG,,,,,,,,,,,,,,,,,0,4,4,8,,,,,,,AMNE15.jpg,AMSA06.jpg,AMNE03.jpg,AMSA15.jpg,AMSA15.jpg,MS,2,num_4,16,num_4,1.01679264249,,,2017_Sep_20_1340,60.0086997191,MAFE4ImagesEEG,001,201498,
AMSA25.JPG,AMNE24.JPG,AMSA24.JPG,AMNE26.JPG,AMSA21.JPG,AMNE25.JPG,,,,,,,,,,,,,,,,,0,5,5,3,,,,,,,AMNE02.jpg,AMNE03.jpg,AMSA09.jpg,AMSA05.jpg,AMSA09.jpg,MS,2,num_2,16,num_2,1.26673378677,,,2017_Sep_20_1340,60.0086997191,MAFE4ImagesEEG,001,201498,
AMNE22.JPG,AMSA24.JPG,AMSA22.JPG,AMNE25.JPG,AMNE24.JPG,AMSA25.JPG,,,,,,,,,,,,,,,,,0,6,6,7,,,,,,,AMSA18.jpg,AMNE17.jpg,AMNE11.jpg,AMSA06.jpg,AMSA06.jpg,MS,2,num_4,16,num_4,1.45010991746,,,2017_Sep_20_1340,60.0086997191,MAFE4ImagesEEG,001,201498,
AFNE22.JPG,AFSA24.JPG,AFSA22.JPG,AFNE25.JPG,AFNE24.JPG,AFSA25.JPG,,,,,,,,,,,,,,,,,0,7,7,6,,,,,,,AMSA04.jpg,AMNE05.jpg,AMSA20.jpg,AMNE15.jpg,AMSA20.jpg,MS,2,num_2,16,num_2,1.80010834584,,,2017_Sep_20_1340,60.0086997191,MAFE4ImagesEEG,001,201498,
AFSA21.JPG,AFNE23.JPG,AFNE21.JPG,AFSA25.JPG,AFNE25.JPG,AFSA23.JPG,,,,,,,,,,,,,,,,,0,8,8,4,,,,,,,AMSA20.jpg,AMNE15.jpg,AMSA05.jpg,AMNE05.jpg,AMNE05.jpg,MN,1,num_4,16,num_4,1.66669061522,,,2017_Sep_20_1340,60.0086997191,MAFE4ImagesEEG,001,201498,
AFSA21.JPG,AFNE22.JPG,AFNE21.JPG,AFSA23.JPG,AFSA22.JPG,AFNE23.JPG,,,,,,,,,,,,,,,,,0,9,9,0,,,,,,,AMSA17.jpg,AMNE10.jpg,AMNE05.jpg,AMSA03.jpg,AMSA03.jpg,MS,2,num_4,16,num_4,1.20039200794,,,2017_Sep_20_1340,60.0086997191,MAFE4ImagesEEG,001,201498,
AFNE23.JPG,AFNE24.JPG,AFNE22.JPG,AFSA24.JPG,AFSA22.JPG,AFSA23.JPG,,,,,,,,,,,,,,,,,,,,,0,0,0,8,,,AFSA14.jpg,AFNE01.jpg,AFSA04.jpg,AFNE11.jpg,AFSA14.jpg,FS,4,num_8,32,num_6,3.11659942896,,,2017_Sep_20_1340,60.0086997191,MAFE4ImagesEEG,001,201498,
AMSA25.JPG,AMNE24.JPG,AMSA24.JPG,AMNE26.JPG,AMSA21.JPG,AMNE25.JPG,,,,,,,,,,,,,,,,,,,,,0,1,1,3,,,AFNE09.jpg,AFSA19.jpg,AFNE03.jpg,AFSA14.jpg,AFNE03.jpg,FN,3,num_2,32,num_4,1.91668211562,,,2017_Sep_20_1340,60.0086997191,MAFE4ImagesEEG,001,201498,
AMNE23.JPG,AMNE24.JPG,AMNE22.JPG,AMSA24.JPG,AMSA22.JPG,AMSA23.JPG,,,,,,,,,,,,,,,,,,,,,0,2,2,9,,,AFNE13.jpg,AFNE06.jpg,AFSA20.jpg,AFSA17.jpg,AFSA17.jpg,FS,4,num_4,32,num_2,1.26674340896,,,2017_Sep_20_1340,60.0086997191,MAFE4ImagesEEG,001,201498,
AFNE22.JPG,AFSA24.JPG,AFSA22.JPG,AFNE25.JPG,AFNE24.JPG,AFSA25.JPG,,,,,,,,,,,,,,,,,,,,,0,3,3,6,,,AFSA01.jpg,AFNE04.jpg,AFSA15.jpg,AFNE17.jpg,AFSA01.jpg,FS,4,num_8,16,num_8,1.56669972423,,,2017_Sep_20_1340,60.0086997191,MAFE4ImagesEEG,001,201498,
AFSA25.JPG,AFNE24.JPG,AFSA24.JPG,AFNE21.JPG,AFSA21.JPG,AFNE25.JPG,,,,,,,,,,,,,,,,,,,,,0,4,4,2,,,AFSA03.jpg,AFNE03.jpg,AFSA07.jpg,AFNE07.jpg,AFSA07.jpg,FS,4,num_2,16,num_2,2.34956350548,,,2017_Sep_20_1340,60.0086997191,MAFE4ImagesEEG,001,201498,
AFSA21.JPG,AFNE22.JPG,AFNE21.JPG,AFSA23.JPG,AFSA22.JPG,AFNE23.JPG,,,,,,,,,,,,,,,,,,,,,0,5,5,0,,,AFNE08.jpg,AFNE05.jpg,AFSA15.jpg,AFSA16.jpg,AFSA15.jpg,FS,4,num_2,32,num_8,2.15003845668,,,2017_Sep_20_1340,60.0086997191,MAFE4ImagesEEG,001,201498,
AMSA21.JPG,AMNE23.JPG,AMNE21.JPG,AMSA25.JPG,AMNE25.JPG,AMSA23.JPG,,,,,,,,,,,,,,,,,,,,,0,6,6,5,,,AFSA06.jpg,AFSA10.jpg,AFNE07.jpg,AFNE20.jpg,AFSA06.jpg,FS,4,num_8,16,num_8,2.51670957093,,,2017_Sep_20_1340,60.0086997191,MAFE4ImagesEEG,001,201498,
AMSA21.JPG,AMNE22.JPG,AMNE21.JPG,AMSA23.JPG,AMSA22.JPG,AMNE23.JPG,,,,,,,,,,,,,,,,,,,,,0,7,7,1,,,AFNE06.jpg,AFNE15.jpg,AFSA14.jpg,AFSA07.jpg,AFSA07.jpg,FS,4,num_4,32,num_2,2.16669638854,,,2017_Sep_20_1340,60.0086997191,MAFE4ImagesEEG,001,201498,
AFSA21.JPG,AFNE23.JPG,AFNE21.JPG,AFSA25.JPG,AFNE25.JPG,AFSA23.JPG,,,,,,,,,,,,,,,,,,,,,0,8,8,4,,,AFNE19.jpg,AFSA11.jpg,AFSA07.jpg,AFNE13.jpg,AFNE13.jpg,FN,3,num_4,32,num_6,1.16681281701,,,2017_Sep_20_1340,60.0086997191,MAFE4ImagesEEG,001,201498,
AMNE22.JPG,AMSA24.JPG,AMSA22.JPG,AMNE25.JPG,AMNE24.JPG,AMSA25.JPG,,,,,,,,,,,,,,,,,,,,,0,9,9,7,,,AFSA16.jpg,AFSA20.jpg,AFNE18.jpg,AFNE01.jpg,AFNE01.jpg,FN,3,num_4,16,num_4,1.70007030612,,,2017_Sep_20_1340,60.0086997191,MAFE4ImagesEEG,001,201498,
,,,,,,,,,,,,,,,,,,,,,,,,,,,,,,,,,,,,,,,,,,,space,7.78296673866,2017_Sep_20_1340,60.0086997191,MAFE4ImagesEEG,001,201498,
AFNE01.JPG,AFNE01.JPG,AFNE01.JPG,AFNE01.JPG,AFNE01.JPG,AFNE01.JPG,0,0,0,4,,,,,,,,,,,,,,,,,,,,,,,AMNE11.jpg,AMSA11.jpg,AMNE17.jpg,AMSA09.jpg,AMNE17.jpg,MN,1,num_2,16,num_2,0.950163801714,,,2017_Sep_20_1340,60.0086997191,MAFE4ImagesEEG,001,201498,
AFNE01.JPG,AFNE01.JPG,AFNE01.JPG,AFNE01.JPG,AFNE01.JPG,AFNE01.JPG,0,1,1,1,,,,,,,,,,,,,,,,,,,,,,,AMNE06.jpg,AMNE07.jpg,AMSA01.jpg,AMSA11.jpg,AMSA01.jpg,MS,2,num_2,32,num_6,1.23341792306,,,2017_Sep_20_1340,60.0086997191,MAFE4ImagesEEG,001,201498,
AFNE01.JPG,AFNE01.JPG,AFNE01.JPG,AFNE01.JPG,AFNE01.JPG,AFNE01.JPG,0,2,2,0,,,,,,,,,,,,,,,,,,,,,,,AMSA11.jpg,AMSA17.jpg,AMNE18.jpg,AMNE06.jpg,AMSA17.jpg,MS,2,num_6,32,num_4,0.750209603329,,,2017_Sep_20_1340,60.0086997191,MAFE4ImagesEEG,001,201498,
AFNE01.JPG,AFNE01.JPG,AFNE01.JPG,AFNE01.JPG,AFNE01.JPG,AFNE01.JPG,0,3,3,3,,,,,,,,,,,,,,,,,,,,,,,AMSA18.jpg,AMNE02.jpg,AMSA14.jpg,AMNE14.jpg,AMSA18.jpg,MS,2,num_8,32,num_6,1.94997937644,,,2017_Sep_20_1340,60.0086997191,MAFE4ImagesEEG,001,201498,
AFNE01.JPG,AFNE01.JPG,AFNE01.JPG,AFNE01.JPG,AFNE01.JPG,AFNE01.JPG,0,4,4,7,,,,,,,,,,,,,,,,,,,,,,,AMSA19.jpg,AMNE19.jpg,AMNE11.jpg,AMSA03.jpg,AMSA03.jpg,MS,2,num_4,16,num_4,0.933504907637,,,2017_Sep_20_1340,60.0086997191,MAFE4ImagesEEG,001,201498,
AFNE01.JPG,AFNE01.JPG,AFNE01.JPG,AFNE01.JPG,AFNE01.JPG,AFNE01.JPG,0,5,5,9,,,,,,,,,,,,,,,,,,,,,,,AMSA20.jpg,AMSA11.jpg,AMNE16.jpg,AMNE02.jpg,AMNE16.jpg,MN,1,num_2,32,num_8,1.0835189881,,,2017_Sep_20_1340,60.0086997191,MAFE4ImagesEEG,001,201498,
AFNE01.JPG,AFNE01.JPG,AFNE01.JPG,AFNE01.JPG,AFNE01.JPG,AFNE01.JPG,0,6,6,5,,,,,,,,,,,,,,,,,,,,,,,AMNE04.jpg,AMSA14.jpg,AMNE02.jpg,AMSA19.jpg,AMNE02.jpg,MN,1,num_2,16,num_2,1.06676355141,,,2017_Sep_20_1340,60.0086997191,MAFE4ImagesEEG,001,201498,
AFNE01.JPG,AFNE01.JPG,AFNE01.JPG,AFNE01.JPG,AFNE01.JPG,AFNE01.JPG,0,7,7,2,,,,,,,,,,,,,,,,,,,,,,,AMSA16.jpg,AMSA05.jpg,AMNE11.jpg,AMNE14.jpg,AMNE11.jpg,MN,1,num_2,16,num_2,0.900183591347,,,2017_Sep_20_1340,60.0086997191,MAFE4ImagesEEG,001,201498,
AFNE01.JPG,AFNE01.JPG,AFNE01.JPG,AFNE01.JPG,AFNE01.JPG,AFNE01.JPG,0,8,8,6,,,,,,,,,,,,,,,,,,,,,,,AMSA07.jpg,AMSA13.jpg,AMNE15.jpg,AMNE14.jpg,AMNE15.jpg,MN,1,num_2,16,num_2,1.31679289908,,,2017_Sep_20_1340,60.0086997191,MAFE4ImagesEEG,001,201498,
AFNE01.JPG,AFNE01.JPG,AFNE01.JPG,AFNE01.JPG,AFNE01.JPG,AFNE01.JPG,0,9,9,8,,,,,,,,,,,,,,,,,,,,,,,AMNE02.jpg,AMSA13.jpg,AMSA17.jpg,AMNE06.jpg,AMSA13.jpg,MS,2,num_6,32,num_4,1.38341821172,,,2017_Sep_20_1340,60.0086997191,MAFE4ImagesEEG,001,201498,
AFNE01.JPG,AFNE01.JPG,AFNE01.JPG,AFNE01.JPG,AFNE01.JPG,AFNE01.JPG,1,0,10,7,,,,,,,,,,,,,,,,,,,,,,,AMNE19.jpg,AMNE03.jpg,AMSA04.jpg,AMSA10.jpg,AMSA04.jpg,MS,2,num_2,32,num_8,1.05011299656,,,2017_Sep_20_1340,60.0086997191,MAFE4ImagesEEG,001,201498,
AFNE01.JPG,AFNE01.JPG,AFNE01.JPG,AFNE01.JPG,AFNE01.JPG,AFNE01.JPG,1,1,11,4,,,,,,,,,,,,,,,,,,,,,,,AMNE06.jpg,AMSA20.jpg,AMNE10.jpg,AMSA17.jpg,AMSA17.jpg,MS,2,num_4,16,num_4,1.68338575288,,,2017_Sep_20_1340,60.0086997191,MAFE4ImagesEEG,001,201498,
AFNE01.JPG,AFNE01.JPG,AFNE01.JPG,AFNE01.JPG,AFNE01.JPG,AFNE01.JPG,1,2,12,8,,,,,,,,,,,,,,,,,,,,,,,AMSA18.jpg,AMNE16.jpg,AMNE04.jpg,AMSA17.jpg,AMNE04.jpg,MN,1,num_2,32,num_8,1.91667826675,,,2017_Sep_20_1340,60.0086997191,MAFE4ImagesEEG,001,201498,
AFNE01.JPG,AFNE01.JPG,AFNE01.JPG,AFNE01.JPG,AFNE01.JPG,AFNE01.JPG,1,3,13,2,,,,,,,,,,,,,,,,,,,,,,,AMNE11.jpg,AMNE04.jpg,AMSA12.jpg,AMSA16.jpg,AMNE04.jpg,MN,1,num_6,16,num_6,0.883439059797,,,2017_Sep_20_1340,60.0086997191,MAFE4ImagesEEG,001,201498,
AFNE01.JPG,AFNE01.JPG,AFNE01.JPG,AFNE01.JPG,AFNE01.JPG,AFNE01.JPG,1,4,14,6,,,,,,,,,,,,,,,,,,,,,,,AMNE02.jpg,AMSA06.jpg,AMSA14.jpg,AMNE17.jpg,AMNE02.jpg,MN,1,num_8,16,num_8,1.11675819506,,,2017_Sep_20_1340,60.0086997191,MAFE4ImagesEEG,001,201498,
AFNE01.JPG,AFNE01.JPG,AFNE01.JPG,AFNE01.JPG,AFNE01.JPG,AFNE01.JPG,1,5,15,5,,,,,,,,,,,,,,,,,,,,,,,AMNE11.jpg,AMSA11.jpg,AMSA20.jpg,AMNE06.jpg,AMSA11.jpg,MS,2,num_6,16,num_6,0.816764673997,,,2017_Sep_20_1340,60.0086997191,MAFE4ImagesEEG,001,201498,
AFNE01.JPG,AFNE01.JPG,AFNE01.JPG,AFNE01.JPG,AFNE01.JPG,AFNE01.JPG,1,6,16,3,,,,,,,,,,,,,,,,,,,,,,,AMNE09.jpg,AMSA03.jpg,AMSA01.jpg,AMNE04.jpg,AMSA03.jpg,MS,2,num_6,16,num_6,0.816868272888,,,2017_Sep_20_1340,60.0086997191,MAFE4ImagesEEG,001,201498,
AFNE01.JPG,AFNE01.JPG,AFNE01.JPG,AFNE01.JPG,AFNE01.JPG,AFNE01.JPG,1,7,17,1,,,,,,,,,,,,,,,,,,,,,,,AMSA01.jpg,AMSA16.jpg,AMNE20.jpg,AMNE10.jpg,AMNE10.jpg,MN,1,num_4,16,num_4,1.53344031068,,,2017_Sep_20_1340,60.0086997191,MAFE4ImagesEEG,001,201498,
AFNE01.JPG,AFNE01.JPG,AFNE01.JPG,AFNE01.JPG,AFNE01.JPG,AFNE01.JPG,1,8,18,0,,,,,,,,,,,,,,,,,,,,,,,AMNE05.jpg,AMNE16.jpg,AMSA03.jpg,AMSA11.jpg,AMSA11.jpg,MS,2,num_4,16,num_4,0.949947623223,,,2017_Sep_20_1340,60.0086997191,MAFE4ImagesEEG,001,201498,
AFNE01.JPG,AFNE01.JPG,AFNE01.JPG,AFNE01.JPG,AFNE01.JPG,AFNE01.JPG,1,9,19,9,,,,,,,,,,,,,,,,,,,,,,,AMSA15.jpg,AMNE07.jpg,AMSA08.jpg,AMNE18.jpg,AMNE07.jpg,MN,1,num_6,32,num_2,0.866742639187,,,2017_Sep_20_1340,60.0086997191,MAFE4ImagesEEG,001,201498,
AFNE01.JPG,AFNE01.JPG,AFNE01.JPG,AFNE01.JPG,AFNE01.JPG,AFNE01.JPG,2,0,20,4,,,,,,,,,,,,,,,,,,,,,,,AMSA09.jpg,AMSA01.jpg,AMNE19.jpg,AMNE20.jpg,AMSA01.jpg,MS,2,num_6,32,num_8,1.48328273132,,,2017_Sep_20_1340,60.0086997191,MAFE4ImagesEEG,001,201498,
AFNE01.JPG,AFNE01.JPG,AFNE01.JPG,AFNE01.JPG,AFNE01.JPG,AFNE01.JPG,2,1,21,1,,,,,,,,,,,,,,,,,,,,,,,AMNE07.jpg,AMSA09.jpg,AMSA07.jpg,AMNE08.jpg,AMNE08.jpg,MN,1,num_4,16,num_4,0.833453076117,,,2017_Sep_20_1340,60.0086997191,MAFE4ImagesEEG,001,201498,
AFNE01.JPG,AFNE01.JPG,AFNE01.JPG,AFNE01.JPG,AFNE01.JPG,AFNE01.JPG,2,2,22,2,,,,,,,,,,,,,,,,,,,,,,,AMSA04.jpg,AMNE08.jpg,AMNE07.jpg,AMSA05.jpg,AMSA04.jpg,MS,2,num_8,16,num_8,1.96669343773,,,2017_Sep_20_1340,60.0086997191,MAFE4ImagesEEG,001,201498,
AFNE01.JPG,AFNE01.JPG,AFNE01.JPG,AFNE01.JPG,AFNE01.JPG,AFNE01.JPG,2,3,23,9,,,,,,,,,,,,,,,,,,,,,,,AMNE11.jpg,AMNE01.jpg,AMSA09.jpg,AMSA08.jpg,AMSA08.jpg,MS,2,num_4,32,num_2,1.05012390171,,,2017_Sep_20_1340,60.0086997191,MAFE4ImagesEEG,001,201498,
AFNE01.JPG,AFNE01.JPG,AFNE01.JPG,AFNE01.JPG,AFNE01.JPG,AFNE01.JPG,2,4,24,7,,,,,,,,,,,,,,,,,,,,,,,AMNE19.jpg,AMSA05.jpg,AMNE05.jpg,AMSA13.jpg,AMNE19.jpg,MN,1,num_8,32,num_4,1.41675652721,,,2017_Sep_20_1340,60.0086997191,MAFE4ImagesEEG,001,201498,
AFNE01.JPG,AFNE01.JPG,AFNE01.JPG,AFNE01.JPG,AFNE01.JPG,AFNE01.JPG,2,5,25,3,,,,,,,,,,,,,,,,,,,,,,,AMNE17.jpg,AMSA14.jpg,AMSA13.jpg,AMNE03.jpg,AMNE03.jpg,MN,1,num_4,32,num_8,1.43339874283,,,2017_Sep_20_1340,60.0086997191,MAFE4ImagesEEG,001,201498,
AFNE01.JPG,AFNE01.JPG,AFNE01.JPG,AFNE01.JPG,AFNE01.JPG,AFNE01.JPG,2,6,26,6,,,,,,,,,,,,,,,,,,,,,,,AMNE14.jpg,AMNE19.jpg,AMSA10.jpg,AMSA12.jpg,AMNE19.jpg,MN,1,num_6,16,num_6,0.916766149399,,,2017_Sep_20_1340,60.0086997191,MAFE4ImagesEEG,001,201498,
AFNE01.JPG,AFNE01.JPG,AFNE01.JPG,AFNE01.JPG,AFNE01.JPG,AFNE01.JPG,2,7,27,8,,,,,,,,,,,,,,,,,,,,,,,AMSA07.jpg,AMSA08.jpg,AMNE10.jpg,AMNE07.jpg,AMNE10.jpg,MN,1,num_2,16,num_2,0.966780678903,,,2017_Sep_20_1340,60.0086997191,MAFE4ImagesEEG,001,201498,
AFNE01.JPG,AFNE01.JPG,AFNE01.JPG,AFNE01.JPG,AFNE01.JPG,AFNE01.JPG,2,8,28,0,,,,,,,,,,,,,,,,,,,,,,,AMNE15.jpg,AMNE16.jpg,AMSA13.jpg,AMSA17.jpg,AMNE16.jpg,MN,1,num_6,32,num_8,1.10011822462,,,2017_Sep_20_1340,60.0086997191,MAFE4ImagesEEG,001,201498,
AFNE01.JPG,AFNE01.JPG,AFNE01.JPG,AFNE01.JPG,AFNE01.JPG,AFNE01.JPG,2,9,29,5,,,,,,,,,,,,,,,,,,,,,,,AMNE02.jpg,AMNE03.jpg,AMSA13.jpg,AMSA06.jpg,AMSA06.jpg,MS,2,num_4,32,num_6,1.58339389966,,,2017_Sep_20_1340,60.0086997191,MAFE4ImagesEEG,001,201498,
AFNE01.JPG,AFNE01.JPG,AFNE01.JPG,AFNE01.JPG,AFNE01.JPG,AFNE01.JPG,3,0,30,1,,,,,,,,,,,,,,,,,,,,,,,AMSA06.jpg,AMNE19.jpg,AMNE13.jpg,AMSA12.jpg,AMNE19.jpg,MN,1,num_6,16,num_6,1.25009445781,,,2017_Sep_20_1340,60.0086997191,MAFE4ImagesEEG,001,201498,
AFNE01.JPG,AFNE01.JPG,AFNE01.JPG,AFNE01.JPG,AFNE01.JPG,AFNE01.JPG,3,1,31,3,,,,,,,,,,,,,,,,,,,,,,,AMSA02.jpg,AMNE07.jpg,AMSA14.jpg,AMNE14.jpg,AMNE07.jpg,MN,1,num_6,16,num_6,1.05011812839,,,2017_Sep_20_1340,60.0086997191,MAFE4ImagesEEG,001,201498,
AFNE01.JPG,AFNE01.JPG,AFNE01.JPG,AFNE01.JPG,AFNE01.JPG,AFNE01.JPG,3,2,32,6,,,,,,,,,,,,,,,,,,,,,,,AMNE07.jpg,AMNE19.jpg,AMSA15.jpg,AMSA20.jpg,AMNE07.jpg,MN,1,num_8,16,num_8,0.733304701978,,,2017_Sep_20_1340,60.0086997191,MAFE4ImagesEEG,001,201498,
AFNE01.JPG,AFNE01.JPG,AFNE01.JPG,AFNE01.JPG,AFNE01.JPG,AFNE01.JPG,3,3,33,8,,,,,,,,,,,,,,,,,,,,,,,AMSA20.jpg,AMSA04.jpg,AMNE15.jpg,AMNE07.jpg,AMSA20.jpg,MS,2,num_8,32,num_4,1.26659105765,,,2017_Sep_20_1340,60.0086997191,MAFE4ImagesEEG,001,201498,
AFNE01.JPG,AFNE01.JPG,AFNE01.JPG,AFNE01.JPG,AFNE01.JPG,AFNE01.JPG,3,4,34,2,,,,,,,,,,,,,,,,,,,,,,,AMSA19.jpg,AMSA12.jpg,AMNE20.jpg,AMNE03.jpg,AMNE20.jpg,MN,1,num_2,32,num_6,1.23343171486,,,2017_Sep_20_1340,60.0086997191,MAFE4ImagesEEG,001,201498,
AFNE01.JPG,AFNE01.JPG,AFNE01.JPG,AFNE01.JPG,AFNE01.JPG,AFNE01.JPG,3,5,35,0,,,,,,,,,,,,,,,,,,,,,,,AMSA19.jpg,AMNE01.jpg,AMNE10.jpg,AMSA05.jpg,AMNE01.jpg,MN,1,num_6,16,num_6,0.966763358965,,,2017_Sep_20_1340,60.0086997191,MAFE4ImagesEEG,001,201498,
AFNE01.JPG,AFNE01.JPG,AFNE01.JPG,AFNE01.JPG,AFNE01.JPG,AFNE01.JPG,3,6,36,7,,,,,,,,,,,,,,,,,,,,,,,AMNE03.jpg,AMSA14.jpg,AMSA01.jpg,AMNE01.jpg,AMSA01.jpg,MS,2,num_2,32,num_4,1.46671556876,,,2017_Sep_20_1340,60.0086997191,MAFE4ImagesEEG,001,201498,
AFNE01.JPG,AFNE01.JPG,AFNE01.JPG,AFNE01.JPG,AFNE01.JPG,AFNE01.JPG,3,7,37,9,,,,,,,,,,,,,,,,,,,,,,,AMNE02.jpg,AMSA08.jpg,AMSA14.jpg,AMNE10.jpg,AMNE10.jpg,MN,1,num_4,16,num_4,1.46697087749,,,2017_Sep_20_1340,60.0086997191,MAFE4ImagesEEG,001,201498,
AFNE01.JPG,AFNE01.JPG,AFNE01.JPG,AFNE01.JPG,AFNE01.JPG,AFNE01.JPG,3,8,38,4,,,,,,,,,,,,,,,,,,,,,,,AMNE15.jpg,AMSA19.jpg,AMSA03.jpg,AMNE03.jpg,AMNE15.jpg,MN,1,num_8,16,num_8,0.90008480355,,,2017_Sep_20_1340,60.0086997191,MAFE4ImagesEEG,001,201498,
AFNE01.JPG,AFNE01.JPG,AFNE01.JPG,AFNE01.JPG,AFNE01.JPG,AFNE01.JPG,3,9,39,5,,,,,,,,,,,,,,,,,,,,,,,AMSA08.jpg,AMNE10.jpg,AMSA13.jpg,AMNE11.jpg,AMNE11.jpg,MN,1,num_4,16,num_4,1.03328828011,,,2017_Sep_20_1340,60.0086997191,MAFE4ImagesEEG,001,201498,
AFNE01.JPG,AFNE01.JPG,AFNE01.JPG,AFNE01.JPG,AFNE01.JPG,AFNE01.JPG,4,0,40,0,,,,,,,,,,,,,,,,,,,,,,,AMNE09.jpg,AMSA08.jpg,AMSA02.jpg,AMNE10.jpg,AMSA02.jpg,MS,2,num_2,16,num_2,1.40007678506,,,2017_Sep_20_1340,60.0086997191,MAFE4ImagesEEG,001,201498,
AFNE01.JPG,AFNE01.JPG,AFNE01.JPG,AFNE01.JPG,AFNE01.JPG,AFNE01.JPG,4,1,41,5,,,,,,,,,,,,,,,,,,,,,,,AMSA04.jpg,AMNE20.jpg,AMSA05.jpg,AMNE10.jpg,AMNE10.jpg,MN,1,num_4,32,num_2,1.03345442322,,,2017_Sep_20_1340,60.0086997191,MAFE4ImagesEEG,001,201498,
AFNE01.JPG,AFNE01.JPG,AFNE01.JPG,AFNE01.JPG,AFNE01.JPG,AFNE01.JPG,4,2,42,6,,,,,,,,,,,,,,,,,,,,,,,AMSA14.jpg,AMSA13.jpg,AMNE10.jpg,AMNE15.jpg,AMNE15.jpg,MN,1,num_4,16,num_4,0.833439925794,,,2017_Sep_20_1340,60.0086997191,MAFE4ImagesEEG,001,201498,
AFNE01.JPG,AFNE01.JPG,AFNE01.JPG,AFNE01.JPG,AFNE01.JPG,AFNE01.JPG,4,3,43,9,,,,,,,,,,,,,,,,,,,,,,,AMSA13.jpg,AMNE08.jpg,AMNE10.jpg,AMSA08.jpg,AMSA08.jpg,MS,2,num_4,32,num_6,0.966751812339,,,2017_Sep_20_1340,60.0086997191,MAFE4ImagesEEG,001,201498,
AFNE01.JPG,AFNE01.JPG,AFNE01.JPG,AFNE01.JPG,AFNE01.JPG,AFNE01.JPG,4,4,44,3,,,,,,,,,,,,,,,,,,,,,,,AMSA12.jpg,AMNE20.jpg,AMSA17.jpg,AMNE02.jpg,AMNE20.jpg,MN,1,num_6,16,num_6,0.883402816222,,,2017_Sep_20_1340,60.0086997191,MAFE4ImagesEEG,001,201498,
AFNE01.JPG,AFNE01.JPG,AFNE01.JPG,AFNE01.JPG,AFNE01.JPG,AFNE01.JPG,4,5,45,8,,,,,,,,,,,,,,,,,,,,,,,AMSA17.jpg,AMNE07.jpg,AMSA08.jpg,AMNE02.jpg,AMNE07.jpg,MN,1,num_6,32,num_2,2.58331114884,,,2017_Sep_20_1340,60.0086997191,MAFE4ImagesEEG,001,201498,
AFNE01.JPG,AFNE01.JPG,AFNE01.JPG,AFNE01.JPG,AFNE01.JPG,AFNE01.JPG,4,6,46,1,,,,,,,,,,,,,,,,,,,,,,,AMNE10.jpg,AMSA03.jpg,AMSA17.jpg,AMNE13.jpg,AMSA03.jpg,MS,2,num_6,32,num_8,1.71674972753,,,2017_Sep_20_1340,60.0086997191,MAFE4ImagesEEG,001,201498,
AFNE01.JPG,AFNE01.JPG,AFNE01.JPG,AFNE01.JPG,AFNE01.JPG,AFNE01.JPG,4,7,47,4,,,,,,,,,,,,,,,,,,,,,,,AMSA10.jpg,AMNE06.jpg,AMNE08.jpg,AMSA12.jpg,AMSA10.jpg,MS,2,num_8,16,num_8,2.18316732921,,,2017_Sep_20_1340,60.0086997191,MAFE4ImagesEEG,001,201498,
AFNE01.JPG,AFNE01.JPG,AFNE01.JPG,AFNE01.JPG,AFNE01.JPG,AFNE01.JPG,4,8,48,7,,,,,,,,,,,,,,,,,,,,,,,AMSA04.jpg,AMSA16.jpg,AMNE07.jpg,AMNE17.jpg,AMSA04.jpg,MS,2,num_8,32,num_4,1.73342594155,,,2017_Sep_20_1340,60.0086997191,MAFE4ImagesEEG,001,201498,
AFNE01.JPG,AFNE01.JPG,AFNE01.JPG,AFNE01.JPG,AFNE01.JPG,AFNE01.JPG,4,9,49,2,,,,,,,,,,,,,,,,,,,,,,,AMSA18.jpg,AMSA04.jpg,AMNE04.jpg,AMNE05.jpg,AMNE05.jpg,MN,1,num_4,16,num_4,1.56668849834,,,2017_Sep_20_1340,60.0086997191,MAFE4ImagesEEG,001,201498,
AFNE01.JPG,AFNE01.JPG,AFNE01.JPG,AFNE01.JPG,AFNE01.JPG,AFNE01.JPG,5,0,50,7,,,,,,,,,,,,,,,,,,,,,,,AMNE18.jpg,AMSA12.jpg,AMSA18.jpg,AMNE15.jpg,AMSA18.jpg,MS,2,num_2,16,num_2,1.16675957424,,,2017_Sep_20_1340,60.0086997191,MAFE4ImagesEEG,001,201498,
AFNE01.JPG,AFNE01.JPG,AFNE01.JPG,AFNE01.JPG,AFNE01.JPG,AFNE01.JPG,5,1,51,4,,,,,,,,,,,,,,,,,,,,,,,AMNE16.jpg,AMSA01.jpg,AMSA03.jpg,AMNE01.jpg,AMSA01.jpg,MS,2,num_6,16,num_6,1.11675338396,,,2017_Sep_20_1340,60.0086997191,MAFE4ImagesEEG,001,201498,
AFNE01.JPG,AFNE01.JPG,AFNE01.JPG,AFNE01.JPG,AFNE01.JPG,AFNE01.JPG,5,2,52,2,,,,,,,,,,,,,,,,,,,,,,,AMSA12.jpg,AMNE02.jpg,AMNE11.jpg,AMSA03.jpg,AMSA12.jpg,MS,2,num_8,16,num_8,0.900120084906,,,2017_Sep_20_1340,60.0086997191,MAFE4ImagesEEG,001,201498,
AFNE01.JPG,AFNE01.JPG,AFNE01.JPG,AFNE01.JPG,AFNE01.JPG,AFNE01.JPG,5,3,53,1,,,,,,,,,,,,,,,,,,,,,,,AMSA20.jpg,AMNE06.jpg,AMSA16.jpg,AMNE13.jpg,AMNE13.jpg,MN,1,num_4,32,num_6,1.61676172319,,,2017_Sep_20_1340,60.0086997191,MAFE4ImagesEEG,001,201498,
AFNE01.JPG,AFNE01.JPG,AFNE01.JPG,AFNE01.JPG,AFNE01.JPG,AFNE01.JPG,5,4,54,3,,,,,,,,,,,,,,,,,,,,,,,AMSA16.jpg,AMNE16.jpg,AMNE09.jpg,AMSA14.jpg,AMNE16.jpg,MN,1,num_6,32,num_8,1.63341644766,,,2017_Sep_20_1340,60.0086997191,MAFE4ImagesEEG,001,201498,
AFNE01.JPG,AFNE01.JPG,AFNE01.JPG,AFNE01.JPG,AFNE01.JPG,AFNE01.JPG,5,5,55,5,,,,,,,,,,,,,,,,,,,,,,,AMNE10.jpg,AMNE14.jpg,AMSA14.jpg,AMSA13.jpg,AMNE14.jpg,MN,1,num_6,32,num_2,0.883330649812,,,2017_Sep_20_1340,60.0086997191,MAFE4ImagesEEG,001,201498,
AFNE01.JPG,AFNE01.JPG,AFNE01.JPG,AFNE01.JPG,AFNE01.JPG,AFNE01.JPG,5,6,56,9,,,,,,,,,,,,,,,,,,,,,,,AMSA14.jpg,AMNE18.jpg,AMNE20.jpg,AMSA16.jpg,AMNE18.jpg,MN,1,num_6,16,num_6,0.800123420598,,,2017_Sep_20_1340,60.0086997191,MAFE4ImagesEEG,001,201498,
AFNE01.JPG,AFNE01.JPG,AFNE01.JPG,AFNE01.JPG,AFNE01.JPG,AFNE01.JPG,5,7,57,8,,,,,,,,,,,,,,,,,,,,,,,AMNE10.jpg,AMNE17.jpg,AMSA19.jpg,AMSA06.jpg,AMSA19.jpg,MS,2,num_2,32,num_8,1.86670575413,,,2017_Sep_20_1340,60.0086997191,MAFE4ImagesEEG,001,201498,
AFNE01.JPG,AFNE01.JPG,AFNE01.JPG,AFNE01.JPG,AFNE01.JPG,AFNE01.JPG,5,8,58,6,,,,,,,,,,,,,,,,,,,,,,,AMSA16.jpg,AMNE01.jpg,AMNE15.jpg,AMSA07.jpg,AMNE01.jpg,MN,1,num_6,32,num_8,1.06681968084,,,2017_Sep_20_1340,60.0086997191,MAFE4ImagesEEG,001,201498,
AFNE01.JPG,AFNE01.JPG,AFNE01.JPG,AFNE01.JPG,AFNE01.JPG,AFNE01.JPG,5,9,59,0,,,,,,,,,,,,,,,,,,,,,,,AMSA07.jpg,AMSA20.jpg,AMNE18.jpg,AMNE14.jpg,AMNE18.jpg,MN,1,num_2,32,num_8,1.68336714998,,,2017_Sep_20_1340,60.0086997191,MAFE4ImagesEEG,001,201498,
,,,,,,,,,,,,,,,,,,,,,,,,,,,,,,,,,,,,,,,,,,,space,3.39992764115,2017_Sep_20_1340,60.0086997191,MAFE4ImagesEEG,001,201498,
AFNE01.JPG,AFNE01.JPG,AFNE01.JPG,AFNE01.JPG,AFNE01.JPG,AFNE01.JPG,,,,,0,0,0,9,,,,,,,,,,,,,,,,,,,AFSA19.jpg,AFSA15.jpg,AFNE08.jpg,AFNE06.jpg,AFSA15.jpg,FS,4,num_6,16,num_6,1.63341420248,,,2017_Sep_20_1340,60.0086997191,MAFE4ImagesEEG,001,201498,
AFNE01.JPG,AFNE01.JPG,AFNE01.JPG,AFNE01.JPG,AFNE01.JPG,AFNE01.JPG,,,,,0,1,1,7,,,,,,,,,,,,,,,,,,,AFNE08.jpg,AFSA14.jpg,AFSA16.jpg,AFNE04.jpg,AFSA14.jpg,FS,4,num_6,16,num_6,1.1501163964,,,2017_Sep_20_1340,60.0086997191,MAFE4ImagesEEG,001,201498,
AFNE01.JPG,AFNE01.JPG,AFNE01.JPG,AFNE01.JPG,AFNE01.JPG,AFNE01.JPG,,,,,0,2,2,2,,,,,,,,,,,,,,,,,,,AFNE09.jpg,AFSA10.jpg,AFSA06.jpg,AFNE11.jpg,AFSA06.jpg,FS,4,num_2,16,num_2,0.916634966903,,,2017_Sep_20_1340,60.0086997191,MAFE4ImagesEEG,001,201498,
AFNE01.JPG,AFNE01.JPG,AFNE01.JPG,AFNE01.JPG,AFNE01.JPG,AFNE01.JPG,,,,,0,3,3,4,,,,,,,,,,,,,,,,,,,AFNE14.jpg,AFSA05.jpg,AFNE20.jpg,AFSA02.jpg,AFNE20.jpg,FN,3,num_2,16,num_2,1.56673019449,,,2017_Sep_20_1340,60.0086997191,MAFE4ImagesEEG,001,201498,
AFNE01.JPG,AFNE01.JPG,AFNE01.JPG,AFNE01.JPG,AFNE01.JPG,AFNE01.JPG,,,,,0,4,4,8,,,,,,,,,,,,,,,,,,,AFNE17.jpg,AFSA07.jpg,AFSA19.jpg,AFNE11.jpg,AFNE11.jpg,FN,3,num_4,16,num_4,1.26644736631,,,2017_Sep_20_1340,60.0086997191,MAFE4ImagesEEG,001,201498,
AFNE01.JPG,AFNE01.JPG,AFNE01.JPG,AFNE01.JPG,AFNE01.JPG,AFNE01.JPG,,,,,0,5,5,0,,,,,,,,,,,,,,,,,,,AFSA11.jpg,AFNE03.jpg,AFNE01.jpg,AFSA05.jpg,AFSA05.jpg,FS,4,num_4,32,num_8,2.76661094351,,,2017_Sep_20_1340,60.0086997191,MAFE4ImagesEEG,001,201498,
AFNE01.JPG,AFNE01.JPG,AFNE01.JPG,AFNE01.JPG,AFNE01.JPG,AFNE01.JPG,,,,,0,6,6,3,,,,,,,,,,,,,,,,,,,AFNE01.jpg,AFSA08.jpg,AFSA15.jpg,AFNE04.jpg,AFNE01.jpg,FN,3,num_8,32,num_4,1.16675059353,,,2017_Sep_20_1340,60.0086997191,MAFE4ImagesEEG,001,201498,
AFNE01.JPG,AFNE01.JPG,AFNE01.JPG,AFNE01.JPG,AFNE01.JPG,AFNE01.JPG,,,,,0,7,7,5,,,,,,,,,,,,,,,,,,,AFNE17.jpg,AFNE13.jpg,AFSA02.jpg,AFSA03.jpg,AFNE13.jpg,FN,3,num_6,32,num_4,1.4834113479,,,2017_Sep_20_1340,60.0086997191,MAFE4ImagesEEG,001,201498,
AFNE01.JPG,AFNE01.JPG,AFNE01.JPG,AFNE01.JPG,AFNE01.JPG,AFNE01.JPG,,,,,0,8,8,1,,,,,,,,,,,,,,,,,,,AFNE04.jpg,AFSA08.jpg,AFSA18.jpg,AFNE10.jpg,AFNE10.jpg,FN,3,num_4,16,num_4,1.18338062104,,,2017_Sep_20_1340,60.0086997191,MAFE4ImagesEEG,001,201498,
AFNE01.JPG,AFNE01.JPG,AFNE01.JPG,AFNE01.JPG,AFNE01.JPG,AFNE01.JPG,,,,,0,9,9,6,,,,,,,,,,,,,,,,,,,AFNE03.jpg,AFSA09.jpg,AFSA18.jpg,AFNE01.jpg,AFNE01.jpg,FN,3,num_4,32,num_6,1.20013028443,,,2017_Sep_20_1340,60.0086997191,MAFE4ImagesEEG,001,201498,
AFNE01.JPG,AFNE01.JPG,AFNE01.JPG,AFNE01.JPG,AFNE01.JPG,AFNE01.JPG,,,,,1,0,10,2,,,,,,,,,,,,,,,,,,,AFSA20.jpg,AFNE07.jpg,AFSA18.jpg,AFNE14.jpg,AFNE14.jpg,FN,3,num_4,32,num_8,1.63345140827,,,2017_Sep_20_1340,60.0086997191,MAFE4ImagesEEG,001,201498,
AFNE01.JPG,AFNE01.JPG,AFNE01.JPG,AFNE01.JPG,AFNE01.JPG,AFNE01.JPG,,,,,1,1,11,5,,,,,,,,,,,,,,,,,,,AFSA01.jpg,AFSA10.jpg,AFNE03.jpg,AFNE18.jpg,AFSA10.jpg,FS,4,num_6,32,num_2,2.10001430499,,,2017_Sep_20_1340,60.0086997191,MAFE4ImagesEEG,001,201498,
AFNE01.JPG,AFNE01.JPG,AFNE01.JPG,AFNE01.JPG,AFNE01.JPG,AFNE01.JPG,,,,,1,2,12,8,,,,,,,,,,,,,,,,,,,AFNE07.jpg,AFSA07.jpg,AFSA13.jpg,AFNE06.jpg,AFSA07.jpg,FS,4,num_6,32,num_8,1.61671040486,,,2017_Sep_20_1340,60.0086997191,MAFE4ImagesEEG,001,201498,
AFNE01.JPG,AFNE01.JPG,AFNE01.JPG,AFNE01.JPG,AFNE01.JPG,AFNE01.JPG,,,,,1,3,13,7,,,,,,,,,,,,,,,,,,,AFNE02.jpg,AFNE09.jpg,AFSA11.jpg,AFSA10.jpg,AFNE09.jpg,FN,3,num_6,16,num_6,0.933441080457,,,2017_Sep_20_1340,60.0086997191,MAFE4ImagesEEG,001,201498,
AFNE01.JPG,AFNE01.JPG,AFNE01.JPG,AFNE01.JPG,AFNE01.JPG,AFNE01.JPG,,,,,1,4,14,1,,,,,,,,,,,,,,,,,,,AFNE09.jpg,AFSA17.jpg,AFSA09.jpg,AFNE19.jpg,AFNE19.jpg,FN,3,num_4,32,num_2,0.9167815449,,,2017_Sep_20_1340,60.0086997191,MAFE4ImagesEEG,001,201498,
AFNE01.JPG,AFNE01.JPG,AFNE01.JPG,AFNE01.JPG,AFNE01.JPG,AFNE01.JPG,,,,,1,5,15,9,,,,,,,,,,,,,,,,,,,AFNE20.jpg,AFSA20.jpg,AFNE16.jpg,AFSA11.jpg,AFNE16.jpg,FN,3,num_2,32,num_4,1.31683587819,,,2017_Sep_20_1340,60.0086997191,MAFE4ImagesEEG,001,201498,
AFNE01.JPG,AFNE01.JPG,AFNE01.JPG,AFNE01.JPG,AFNE01.JPG,AFNE01.JPG,,,,,1,6,16,4,,,,,,,,,,,,,,,,,,,AFSA18.jpg,AFNE04.jpg,AFSA10.jpg,AFNE18.jpg,AFNE04.jpg,FN,3,num_6,16,num_6,0.800167682663,,,2017_Sep_20_1340,60.0086997191,MAFE4ImagesEEG,001,201498,
AFNE01.JPG,AFNE01.JPG,AFNE01.JPG,AFNE01.JPG,AFNE01.JPG,AFNE01.JPG,,,,,1,7,17,0,,,,,,,,,,,,,,,,,,,AFNE04.jpg,AFNE13.jpg,AFSA15.jpg,AFSA11.jpg,AFSA15.jpg,FS,4,num_2,32,num_4,1.78337696461,,,2017_Sep_20_1340,60.0086997191,MAFE4ImagesEEG,001,201498,
AFNE01.JPG,AFNE01.JPG,AFNE01.JPG,AFNE01.JPG,AFNE01.JPG,AFNE01.JPG,,,,,1,8,18,6,,,,,,,,,,,,,,,,,,,AFNE19.jpg,AFSA17.jpg,AFNE17.jpg,AFSA02.jpg,AFSA17.jpg,FS,4,num_6,16,num_6,1.25008355267,,,2017_Sep_20_1340,60.0086997191,MAFE4ImagesEEG,001,201498,
AFNE01.JPG,AFNE01.JPG,AFNE01.JPG,AFNE01.JPG,AFNE01.JPG,AFNE01.JPG,,,,,1,9,19,3,,,,,,,,,,,,,,,,,,,AFNE01.jpg,AFSA02.jpg,AFSA06.jpg,AFNE08.jpg,AFNE08.jpg,FN,3,num_4,32,num_8,2.21669584328,,,2017_Sep_20_1340,60.0086997191,MAFE4ImagesEEG,001,201498,
AFNE01.JPG,AFNE01.JPG,AFNE01.JPG,AFNE01.JPG,AFNE01.JPG,AFNE01.JPG,,,,,2,0,20,7,,,,,,,,,,,,,,,,,,,AFSA09.jpg,AFNE20.jpg,AFNE10.jpg,AFSA05.jpg,AFSA09.jpg,FS,4,num_8,16,num_8,1.31676082512,,,2017_Sep_20_1340,60.0086997191,MAFE4ImagesEEG,001,201498,
AFNE01.JPG,AFNE01.JPG,AFNE01.JPG,AFNE01.JPG,AFNE01.JPG,AFNE01.JPG,,,,,2,1,21,6,,,,,,,,,,,,,,,,,,,AFSA19.jpg,AFNE02.jpg,AFNE11.jpg,AFSA04.jpg,AFNE11.jpg,FN,3,num_2,32,num_4,1.2167413883,,,2017_Sep_20_1340,60.0086997191,MAFE4ImagesEEG,001,201498,
AFNE01.JPG,AFNE01.JPG,AFNE01.JPG,AFNE01.JPG,AFNE01.JPG,AFNE01.JPG,,,,,2,2,22,9,,,,,,,,,,,,,,,,,,,AFSA13.jpg,AFSA02.jpg,AFNE20.jpg,AFNE13.jpg,AFSA02.jpg,FS,4,num_6,16,num_6,1.25006462903,,,2017_Sep_20_1340,60.0086997191,MAFE4ImagesEEG,001,201498,
AFNE01.JPG,AFNE01.JPG,AFNE01.JPG,AFNE01.JPG,AFNE01.JPG,AFNE01.JPG,,,,,2,3,23,3,,,,,,,,,,,,,,,,,,,AFSA15.jpg,AFSA09.jpg,AFNE16.jpg,AFNE19.jpg,AFSA09.jpg,FS,4,num_6,32,num_8,2.31668897945,,,2017_Sep_20_1340,60.0086997191,MAFE4ImagesEEG,001,201498,
AFNE01.JPG,AFNE01.JPG,AFNE01.JPG,AFNE01.JPG,AFNE01.JPG,AFNE01.JPG,,,,,2,4,24,5,,,,,,,,,,,,,,,,,,,AFNE15.jpg,AFNE09.jpg,AFSA01.jpg,AFSA02.jpg,AFNE09.jpg,FN,3,num_6,32,num_4,1.46652569092,,,2017_Sep_20_1340,60.0086997191,MAFE4ImagesEEG,001,201498,
AFNE01.JPG,AFNE01.JPG,AFNE01.JPG,AFNE01.JPG,AFNE01.JPG,AFNE01.JPG,,,,,2,5,25,1,,,,,,,,,,,,,,,,,,,AFSA11.jpg,AFNE06.jpg,AFNE16.jpg,AFSA18.jpg,AFNE06.jpg,FN,3,num_6,32,num_2,1.03342876406,,,2017_Sep_20_1340,60.0086997191,MAFE4ImagesEEG,001,201498,
AFNE01.JPG,AFNE01.JPG,AFNE01.JPG,AFNE01.JPG,AFNE01.JPG,AFNE01.JPG,,,,,2,6,26,8,,,,,,,,,,,,,,,,,,,AFSA08.jpg,AFNE09.jpg,AFNE16.jpg,AFSA04.jpg,AFSA08.jpg,FS,4,num_8,32,num_4,1.51679168027,,,2017_Sep_20_1340,60.0086997191,MAFE4ImagesEEG,001,201498,
AFNE01.JPG,AFNE01.JPG,AFNE01.JPG,AFNE01.JPG,AFNE01.JPG,AFNE01.JPG,,,,,2,7,27,0,,,,,,,,,,,,,,,,,,,AFNE17.jpg,AFSA07.jpg,AFNE08.jpg,AFSA09.jpg,AFSA07.jpg,FS,4,num_6,16,num_6,0.750455610601,,,2017_Sep_20_1340,60.0086997191,MAFE4ImagesEEG,001,201498,
AFNE01.JPG,AFNE01.JPG,AFNE01.JPG,AFNE01.JPG,AFNE01.JPG,AFNE01.JPG,,,,,2,8,28,4,,,,,,,,,,,,,,,,,,,AFNE06.jpg,AFNE07.jpg,AFSA12.jpg,AFSA03.jpg,AFNE06.jpg,FN,3,num_8,32,num_6,1.96674443533,,,2017_Sep_20_1340,60.0086997191,MAFE4ImagesEEG,001,201498,
AFNE01.JPG,AFNE01.JPG,AFNE01.JPG,AFNE01.JPG,AFNE01.JPG,AFNE01.JPG,,,,,2,9,29,2,,,,,,,,,,,,,,,,,,,AFNE13.jpg,AFNE18.jpg,AFSA09.jpg,AFSA04.jpg,AFSA04.jpg,FS,4,num_4,32,num_2,1.00011739069,,,2017_Sep_20_1340,60.0086997191,MAFE4ImagesEEG,001,201498,
AFNE01.JPG,AFNE01.JPG,AFNE01.JPG,AFNE01.JPG,AFNE01.JPG,AFNE01.JPG,,,,,3,0,30,3,,,,,,,,,,,,,,,,,,,AFSA13.jpg,AFSA20.jpg,AFNE17.jpg,AFNE02.jpg,AFSA20.jpg,FS,4,num_6,32,num_8,1.25015122872,,,2017_Sep_20_1340,60.0086997191,MAFE4ImagesEEG,001,201498,
AFNE01.JPG,AFNE01.JPG,AFNE01.JPG,AFNE01.JPG,AFNE01.JPG,AFNE01.JPG,,,,,3,1,31,9,,,,,,,,,,,,,,,,,,,AFSA20.jpg,AFNE14.jpg,AFSA10.jpg,AFNE15.jpg,AFNE14.jpg,FN,3,num_6,32,num_4,2.60001045611,,,2017_Sep_20_1340,60.0086997191,MAFE4ImagesEEG,001,201498,
AFNE01.JPG,AFNE01.JPG,AFNE01.JPG,AFNE01.JPG,AFNE01.JPG,AFNE01.JPG,,,,,3,2,32,2,,,,,,,,,,,,,,,,,,,AFNE20.jpg,AFNE03.jpg,AFSA13.jpg,AFSA05.jpg,AFSA05.jpg,FS,4,num_4,32,num_2,0.983452723304,,,2017_Sep_20_1340,60.0086997191,MAFE4ImagesEEG,001,201498,
AFNE01.JPG,AFNE01.JPG,AFNE01.JPG,AFNE01.JPG,AFNE01.JPG,AFNE01.JPG,,,,,3,3,33,8,,,,,,,,,,,,,,,,,,,AFSA08.jpg,AFSA15.jpg,AFNE02.jpg,AFNE09.jpg,AFSA08.jpg,FS,4,num_8,32,num_4,1.80006087638,,,2017_Sep_20_1340,60.0086997191,MAFE4ImagesEEG,001,201498,
AFNE01.JPG,AFNE01.JPG,AFNE01.JPG,AFNE01.JPG,AFNE01.JPG,AFNE01.JPG,,,,,3,4,34,7,,,,,,,,,,,,,,,,,,,AFNE10.jpg,AFSA08.jpg,AFSA03.jpg,AFNE19.jpg,AFNE10.jpg,FN,3,num_8,16,num_8,0.933140547451,,,2017_Sep_20_1340,60.0086997191,MAFE4ImagesEEG,001,201498,
AFNE01.JPG,AFNE01.JPG,AFNE01.JPG,AFNE01.JPG,AFNE01.JPG,AFNE01.JPG,,,,,3,5,35,5,,,,,,,,,,,,,,,,,,,AFSA20.jpg,AFNE09.jpg,AFSA09.jpg,AFNE19.jpg,AFSA09.jpg,FS,4,num_2,32,num_6,1.36671473484,,,2017_Sep_20_1340,60.0086997191,MAFE4ImagesEEG,001,201498,
AFNE01.JPG,AFNE01.JPG,AFNE01.JPG,AFNE01.JPG,AFNE01.JPG,AFNE01.JPG,,,,,3,6,36,6,,,,,,,,,,,,,,,,,,,AFNE02.jpg,AFSA02.jpg,AFSA10.jpg,AFNE04.jpg,AFNE02.jpg,FN,3,num_8,32,num_6,1.3001202132,,,2017_Sep_20_1340,60.0086997191,MAFE4ImagesEEG,001,201498,
AFNE01.JPG,AFNE01.JPG,AFNE01.JPG,AFNE01.JPG,AFNE01.JPG,AFNE01.JPG,,,,,3,7,37,0,,,,,,,,,,,,,,,,,,,AFSA15.jpg,AFSA06.jpg,AFNE14.jpg,AFNE04.jpg,AFNE04.jpg,FN,3,num_4,32,num_8,1.13340522177,,,2017_Sep_20_1340,60.0086997191,MAFE4ImagesEEG,001,201498,
AFNE01.JPG,AFNE01.JPG,AFNE01.JPG,AFNE01.JPG,AFNE01.JPG,AFNE01.JPG,,,,,3,8,38,1,,,,,,,,,,,,,,,,,,,AFNE14.jpg,AFSA08.jpg,AFNE10.jpg,AFSA14.jpg,AFSA08.jpg,FS,4,num_6,32,num_4,1.55008894109,,,2017_Sep_20_1340,60.0086997191,MAFE4ImagesEEG,001,201498,
AFNE01.JPG,AFNE01.JPG,AFNE01.JPG,AFNE01.JPG,AFNE01.JPG,AFNE01.JPG,,,,,3,9,39,4,,,,,,,,,,,,,,,,,,,AFNE12.jpg,AFNE05.jpg,AFSA20.jpg,AFSA07.jpg,AFNE05.jpg,FN,3,num_6,32,num_2,1.38342077764,,,2017_Sep_20_1340,60.0086997191,MAFE4ImagesEEG,001,201498,
AFNE01.JPG,AFNE01.JPG,AFNE01.JPG,AFNE01.JPG,AFNE01.JPG,AFNE01.JPG,,,,,4,0,40,9,,,,,,,,,,,,,,,,,,,AFSA13.jpg,AFNE06.jpg,AFSA18.jpg,AFNE07.jpg,AFNE06.jpg,FN,3,num_6,16,num_6,0.866855539526,,,2017_Sep_20_1340,60.0086997191,MAFE4ImagesEEG,001,201498,
AFNE01.JPG,AFNE01.JPG,AFNE01.JPG,AFNE01.JPG,AFNE01.JPG,AFNE01.JPG,,,,,4,1,41,7,,,,,,,,,,,,,,,,,,,AFNE10.jpg,AFSA18.jpg,AFNE06.jpg,AFSA02.jpg,AFNE06.jpg,FN,3,num_2,16,num_2,0.766774199963,,,2017_Sep_20_1340,60.0086997191,MAFE4ImagesEEG,001,201498,
AFNE01.JPG,AFNE01.JPG,AFNE01.JPG,AFNE01.JPG,AFNE01.JPG,AFNE01.JPG,,,,,4,2,42,5,,,,,,,,,,,,,,,,,,,AFNE12.jpg,AFSA08.jpg,AFSA04.jpg,AFNE03.jpg,AFNE03.jpg,FN,3,num_4,32,num_2,1.21672470984,,,2017_Sep_20_1340,60.0086997191,MAFE4ImagesEEG,001,201498,
AFNE01.JPG,AFNE01.JPG,AFNE01.JPG,AFNE01.JPG,AFNE01.JPG,AFNE01.JPG,,,,,4,3,43,0,,,,,,,,,,,,,,,,,,,AFSA11.jpg,AFNE12.jpg,AFNE10.jpg,AFSA02.jpg,AFNE10.jpg,FN,3,num_2,32,num_4,1.4167985441,,,2017_Sep_20_1340,60.0086997191,MAFE4ImagesEEG,001,201498,
AFNE01.JPG,AFNE01.JPG,AFNE01.JPG,AFNE01.JPG,AFNE01.JPG,AFNE01.JPG,,,,,4,4,44,8,,,,,,,,,,,,,,,,,,,AFNE10.jpg,AFSA02.jpg,AFNE04.jpg,AFSA13.jpg,AFNE04.jpg,FN,3,num_2,32,num_8,1.15010452904,,,2017_Sep_20_1340,60.0086997191,MAFE4ImagesEEG,001,201498,
AFNE01.JPG,AFNE01.JPG,AFNE01.JPG,AFNE01.JPG,AFNE01.JPG,AFNE01.JPG,,,,,4,5,45,3,,,,,,,,,,,,,,,,,,,AFNE15.jpg,AFSA19.jpg,AFNE11.jpg,AFSA07.jpg,AFNE11.jpg,FN,3,num_2,16,num_2,2.11680341934,,,2017_Sep_20_1340,60.0086997191,MAFE4ImagesEEG,001,201498,
AFNE01.JPG,AFNE01.JPG,AFNE01.JPG,AFNE01.JPG,AFNE01.JPG,AFNE01.JPG,,,,,4,6,46,4,,,,,,,,,,,,,,,,,,,AFSA18.jpg,AFNE04.jpg,AFSA12.jpg,AFNE02.jpg,AFNE02.jpg,FN,3,num_4,16,num_4,1.08343655803,,,2017_Sep_20_1340,60.0086997191,MAFE4ImagesEEG,001,201498,
AFNE01.JPG,AFNE01.JPG,AFNE01.JPG,AFNE01.JPG,AFNE01.JPG,AFNE01.JPG,,,,,4,7,47,2,,,,,,,,,,,,,,,,,,,AFNE14.jpg,AFSA03.jpg,AFNE06.jpg,AFSA06.jpg,AFSA03.jpg,FS,4,num_6,16,num_6,1.2833711913,,,2017_Sep_20_1340,60.0086997191,MAFE4ImagesEEG,001,201498,
AFNE01.JPG,AFNE01.JPG,AFNE01.JPG,AFNE01.JPG,AFNE01.JPG,AFNE01.JPG,,,,,4,8,48,1,,,,,,,,,,,,,,,,,,,AFSA19.jpg,AFSA18.jpg,AFNE05.jpg,AFNE18.jpg,AFSA19.jpg,FS,4,num_8,32,num_2,1.21679815921,,,2017_Sep_20_1340,60.0086997191,MAFE4ImagesEEG,001,201498,
AFNE01.JPG,AFNE01.JPG,AFNE01.JPG,AFNE01.JPG,AFNE01.JPG,AFNE01.JPG,,,,,4,9,49,6,,,,,,,,,,,,,,,,,,,AFNE08.jpg,AFNE17.jpg,AFSA03.jpg,AFSA09.jpg,AFSA03.jpg,FS,4,num_2,32,num_4,1.60023369087,,,2017_Sep_20_1340,60.0086997191,MAFE4ImagesEEG,001,201498,
AFNE01.JPG,AFNE01.JPG,AFNE01.JPG,AFNE01.JPG,AFNE01.JPG,AFNE01.JPG,,,,,5,0,50,8,,,,,,,,,,,,,,,,,,,AFNE19.jpg,AFNE11.jpg,AFSA05.jpg,AFSA14.jpg,AFNE11.jpg,FN,3,num_6,16,num_6,1.40017204472,,,2017_Sep_20_1340,60.0086997191,MAFE4ImagesEEG,001,201498,
AFNE01.JPG,AFNE01.JPG,AFNE01.JPG,AFNE01.JPG,AFNE01.JPG,AFNE01.JPG,,,,,5,1,51,5,,,,,,,,,,,,,,,,,,,AFNE12.jpg,AFNE16.jpg,AFSA09.jpg,AFSA10.jpg,AFSA09.jpg,FS,4,num_2,16,num_2,0.820280621491,,,2017_Sep_20_1340,60.0086997191,MAFE4ImagesEEG,001,201498,
AFNE01.JPG,AFNE01.JPG,AFNE01.JPG,AFNE01.JPG,AFNE01.JPG,AFNE01.JPG,,,,,5,2,52,7,,,,,,,,,,,,,,,,,,,AFNE07.jpg,AFSA05.jpg,AFNE20.jpg,AFSA14.jpg,AFNE07.jpg,FN,3,num_8,32,num_2,0.933451985602,,,2017_Sep_20_1340,60.0086997191,MAFE4ImagesEEG,001,201498,
AFNE01.JPG,AFNE01.JPG,AFNE01.JPG,AFNE01.JPG,AFNE01.JPG,AFNE01.JPG,,,,,5,3,53,3,,,,,,,,,,,,,,,,,,,AFNE20.jpg,AFNE14.jpg,AFSA18.jpg,AFSA02.jpg,AFNE14.jpg,FN,3,num_6,32,num_2,1.58336888197,,,2017_Sep_20_1340,60.0086997191,MAFE4ImagesEEG,001,201498,
AFNE01.JPG,AFNE01.JPG,AFNE01.JPG,AFNE01.JPG,AFNE01.JPG,AFNE01.JPG,,,,,5,4,54,4,,,,,,,,,,,,,,,,,,,AFNE13.jpg,AFSA13.jpg,AFSA06.jpg,AFNE17.jpg,AFSA06.jpg,FS,4,num_2,32,num_8,1.13344371052,,,2017_Sep_20_1340,60.0086997191,MAFE4ImagesEEG,001,201498,
AFNE01.JPG,AFNE01.JPG,AFNE01.JPG,AFNE01.JPG,AFNE01.JPG,AFNE01.JPG,,,,,5,5,55,9,,,,,,,,,,,,,,,,,,,AFNE03.jpg,AFSA03.jpg,AFSA14.jpg,AFNE08.jpg,AFSA14.jpg,FS,4,num_2,32,num_6,0.816478253534,,,2017_Sep_20_1340,60.0086997191,MAFE4ImagesEEG,001,201498,
AFNE01.JPG,AFNE01.JPG,AFNE01.JPG,AFNE01.JPG,AFNE01.JPG,AFNE01.JPG,,,,,5,6,56,6,,,,,,,,,,,,,,,,,,,AFSA10.jpg,AFNE02.jpg,AFNE10.jpg,AFSA20.jpg,AFSA10.jpg,FS,4,num_8,16,num_8,1.65000125088,,,2017_Sep_20_1340,60.0086997191,MAFE4ImagesEEG,001,201498,
AFNE01.JPG,AFNE01.JPG,AFNE01.JPG,AFNE01.JPG,AFNE01.JPG,AFNE01.JPG,,,,,5,7,57,0,,,,,,,,,,,,,,,,,,,AFNE08.jpg,AFSA14.jpg,AFNE03.jpg,AFSA11.jpg,AFNE08.jpg,FN,3,num_8,32,num_6,1.83336134459,,,2017_Sep_20_1340,60.0086997191,MAFE4ImagesEEG,001,201498,
AFNE01.JPG,AFNE01.JPG,AFNE01.JPG,AFNE01.JPG,AFNE01.JPG,AFNE01.JPG,,,,,5,8,58,1,,,,,,,,,,,,,,,,,,,AFSA09.jpg,AFNE14.jpg,AFNE05.jpg,AFSA10.jpg,AFSA10.jpg,FS,4,num_4,32,num_2,1.11674953509,,,2017_Sep_20_1340,60.0086997191,MAFE4ImagesEEG,001,201498,
AFNE01.JPG,AFNE01.JPG,AFNE01.JPG,AFNE01.JPG,AFNE01.JPG,AFNE01.JPG,,,,,5,9,59,2,,,,,,,,,,,,,,,,,,,AFSA07.jpg,AFNE01.jpg,AFNE06.jpg,AFSA10.jpg,AFNE01.jpg,FN,3,num_6,16,num_6,1.9832137723,,,2017_Sep_20_1340,60.0086997191,MAFE4ImagesEEG,001,201498,
,,,,,,,,,,,,,,,,,,,,,,,,,,,,,,,,,,,,,,,,,,,space,2.90001456158,2017_Sep_20_1340,60.0086997191,MAFE4ImagesEEG,001,201498,
AFNE01.JPG,AFNE01.JPG,AFNE01.JPG,AFNE01.JPG,AFNE01.JPG,AFNE01.JPG,,,,,,,,,0,0,0,5,,,,,,,,,,,,,,,AMNE04.jpg,AMSA07.jpg,AMSA20.jpg,AMNE10.jpg,AMNE04.jpg,MN,1,num_8,32,num_2,1.3000538201,,,2017_Sep_20_1340,60.0086997191,MAFE4ImagesEEG,001,201498,
AFNE01.JPG,AFNE01.JPG,AFNE01.JPG,AFNE01.JPG,AFNE01.JPG,AFNE01.JPG,,,,,,,,,0,1,1,2,,,,,,,,,,,,,,,AMNE01.jpg,AMNE16.jpg,AMSA01.jpg,AMSA03.jpg,AMNE16.jpg,MN,1,num_6,16,num_6,0.65012441489,,,2017_Sep_20_1340,60.0086997191,MAFE4ImagesEEG,001,201498,
AFNE01.JPG,AFNE01.JPG,AFNE01.JPG,AFNE01.JPG,AFNE01.JPG,AFNE01.JPG,,,,,,,,,0,2,2,1,,,,,,,,,,,,,,,AMNE18.jpg,AMSA09.jpg,AMNE16.jpg,AMSA06.jpg,AMSA06.jpg,MS,2,num_4,32,num_2,1.63345012531,,,2017_Sep_20_1340,60.0086997191,MAFE4ImagesEEG,001,201498,
AFNE01.JPG,AFNE01.JPG,AFNE01.JPG,AFNE01.JPG,AFNE01.JPG,AFNE01.JPG,,,,,,,,,0,3,3,4,,,,,,,,,,,,,,,AMNE15.jpg,AMNE19.jpg,AMSA04.jpg,AMSA17.jpg,AMSA04.jpg,MS,2,num_2,16,num_2,2.08336214644,,,2017_Sep_20_1340,60.0086997191,MAFE4ImagesEEG,001,201498,
AFNE01.JPG,AFNE01.JPG,AFNE01.JPG,AFNE01.JPG,AFNE01.JPG,AFNE01.JPG,,,,,,,,,0,4,4,0,,,,,,,,,,,,,,,AMNE19.jpg,AMNE04.jpg,AMSA06.jpg,AMSA18.jpg,AMNE04.jpg,MN,1,num_6,16,num_6,1.05010048772,,,2017_Sep_20_1340,60.0086997191,MAFE4ImagesEEG,001,201498,
AFNE01.JPG,AFNE01.JPG,AFNE01.JPG,AFNE01.JPG,AFNE01.JPG,AFNE01.JPG,,,,,,,,,0,5,5,9,,,,,,,,,,,,,,,AMSA12.jpg,AMNE18.jpg,AMNE19.jpg,AMSA09.jpg,AMNE18.jpg,MN,1,num_6,32,num_2,1.16678202601,,,2017_Sep_20_1340,60.0086997191,MAFE4ImagesEEG,001,201498,
AFNE01.JPG,AFNE01.JPG,AFNE01.JPG,AFNE01.JPG,AFNE01.JPG,AFNE01.JPG,,,,,,,,,0,6,6,6,,,,,,,,,,,,,,,AMSA11.jpg,AMNE13.jpg,AMSA04.jpg,AMNE04.jpg,AMSA04.jpg,MS,2,num_2,32,num_8,0.833498300401,,,2017_Sep_20_1340,60.0086997191,MAFE4ImagesEEG,001,201498,
AFNE01.JPG,AFNE01.JPG,AFNE01.JPG,AFNE01.JPG,AFNE01.JPG,AFNE01.JPG,,,,,,,,,0,7,7,7,,,,,,,,,,,,,,,AMNE17.jpg,AMSA18.jpg,AMNE01.jpg,AMSA09.jpg,AMNE01.jpg,MN,1,num_2,16,num_2,1.83348996117,,,2017_Sep_20_1340,60.0086997191,MAFE4ImagesEEG,001,201498,
AFNE01.JPG,AFNE01.JPG,AFNE01.JPG,AFNE01.JPG,AFNE01.JPG,AFNE01.JPG,,,,,,,,,0,8,8,3,,,,,,,,,,,,,,,AMNE13.jpg,AMNE06.jpg,AMSA05.jpg,AMSA08.jpg,AMSA05.jpg,MS,2,num_2,32,num_6,1.31673324152,,,2017_Sep_20_1340,60.0086997191,MAFE4ImagesEEG,001,201498,
AFNE01.JPG,AFNE01.JPG,AFNE01.JPG,AFNE01.JPG,AFNE01.JPG,AFNE01.JPG,,,,,,,,,0,9,9,8,,,,,,,,,,,,,,,AMSA03.jpg,AMNE20.jpg,AMSA15.jpg,AMNE15.jpg,AMNE15.jpg,MN,1,num_4,16,num_4,1.20005491062,,,2017_Sep_20_1340,60.0086997191,MAFE4ImagesEEG,001,201498,
AFNE01.JPG,AFNE01.JPG,AFNE01.JPG,AFNE01.JPG,AFNE01.JPG,AFNE01.JPG,,,,,,,,,1,0,10,8,,,,,,,,,,,,,,,AMNE13.jpg,AMSA15.jpg,AMSA04.jpg,AMNE08.jpg,AMSA15.jpg,MS,2,num_6,16,num_6,0.933470588499,,,2017_Sep_20_1340,60.0086997191,MAFE4ImagesEEG,001,201498,
AFNE01.JPG,AFNE01.JPG,AFNE01.JPG,AFNE01.JPG,AFNE01.JPG,AFNE01.JPG,,,,,,,,,1,1,11,9,,,,,,,,,,,,,,,AMSA13.jpg,AMNE14.jpg,AMSA06.jpg,AMNE10.jpg,AMSA06.jpg,MS,2,num_2,32,num_4,1.95008810717,,,2017_Sep_20_1340,60.0086997191,MAFE4ImagesEEG,001,201498,
AFNE01.JPG,AFNE01.JPG,AFNE01.JPG,AFNE01.JPG,AFNE01.JPG,AFNE01.JPG,,,,,,,,,1,2,12,1,,,,,,,,,,,,,,,AMNE17.jpg,AMSA15.jpg,AMSA20.jpg,AMNE14.jpg,AMNE17.jpg,MN,1,num_8,32,num_4,1.08344489726,,,2017_Sep_20_1340,60.0086997191,MAFE4ImagesEEG,001,201498,
AFNE01.JPG,AFNE01.JPG,AFNE01.JPG,AFNE01.JPG,AFNE01.JPG,AFNE01.JPG,,,,,,,,,1,3,13,0,,,,,,,,,,,,,,,AMNE09.jpg,AMSA08.jpg,AMSA01.jpg,AMNE02.jpg,AMNE09.jpg,MN,1,num_8,16,num_8,2.64996532805,,,2017_Sep_20_1340,60.0086997191,MAFE4ImagesEEG,001,201498,
AFNE01.JPG,AFNE01.JPG,AFNE01.JPG,AFNE01.JPG,AFNE01.JPG,AFNE01.JPG,,,,,,,,,1,4,14,6,,,,,,,,,,,,,,,AMSA14.jpg,AMNE09.jpg,AMNE01.jpg,AMSA10.jpg,AMNE09.jpg,MN,1,num_6,32,num_4,0.850153024863,,,2017_Sep_20_1340,60.0086997191,MAFE4ImagesEEG,001,201498,
AFNE01.JPG,AFNE01.JPG,AFNE01.JPG,AFNE01.JPG,AFNE01.JPG,AFNE01.JPG,,,,,,,,,1,5,15,4,,,,,,,,,,,,,,,AMSA06.jpg,AMNE17.jpg,AMSA13.jpg,AMNE13.jpg,AMSA06.jpg,MS,2,num_8,16,num_8,1.06675521218,,,2017_Sep_20_1340,60.0086997191,MAFE4ImagesEEG,001,201498,
AFNE01.JPG,AFNE01.JPG,AFNE01.JPG,AFNE01.JPG,AFNE01.JPG,AFNE01.JPG,,,,,,,,,1,6,16,3,,,,,,,,,,,,,,,AMSA11.jpg,AMNE01.jpg,AMSA14.jpg,AMNE05.jpg,AMSA11.jpg,MS,2,num_8,16,num_8,0.816761145861,,,2017_Sep_20_1340,60.0086997191,MAFE4ImagesEEG,001,201498,
AFNE01.JPG,AFNE01.JPG,AFNE01.JPG,AFNE01.JPG,AFNE01.JPG,AFNE01.JPG,,,,,,,,,1,7,17,5,,,,,,,,,,,,,,,AMSA03.jpg,AMSA05.jpg,AMNE05.jpg,AMNE14.jpg,AMNE05.jpg,MN,1,num_2,32,num_6,1.33342388881,,,2017_Sep_20_1340,60.0086997191,MAFE4ImagesEEG,001,201498,
AFNE01.JPG,AFNE01.JPG,AFNE01.JPG,AFNE01.JPG,AFNE01.JPG,AFNE01.JPG,,,,,,,,,1,8,18,2,,,,,,,,,,,,,,,AMNE01.jpg,AMNE03.jpg,AMSA08.jpg,AMSA03.jpg,AMSA08.jpg,MS,2,num_2,16,num_2,1.55005045234,,,2017_Sep_20_1340,60.0086997191,MAFE4ImagesEEG,001,201498,
AFNE01.JPG,AFNE01.JPG,AFNE01.JPG,AFNE01.JPG,AFNE01.JPG,AFNE01.JPG,,,,,,,,,1,9,19,7,,,,,,,,,,,,,,,AMSA06.jpg,AMNE16.jpg,AMNE07.jpg,AMSA03.jpg,AMSA03.jpg,MS,2,num_4,16,num_4,1.05010626103,,,2017_Sep_20_1340,60.0086997191,MAFE4ImagesEEG,001,201498,
AFNE01.JPG,AFNE01.JPG,AFNE01.JPG,AFNE01.JPG,AFNE01.JPG,AFNE01.JPG,,,,,,,,,2,0,20,2,,,,,,,,,,,,,,,AMNE17.jpg,AMSA05.jpg,AMNE20.jpg,AMSA14.jpg,AMNE17.jpg,MN,1,num_8,16,num_8,1.48337093471,,,2017_Sep_20_1340,60.0086997191,MAFE4ImagesEEG,001,201498,
AFNE01.JPG,AFNE01.JPG,AFNE01.JPG,AFNE01.JPG,AFNE01.JPG,AFNE01.JPG,,,,,,,,,2,1,21,7,,,,,,,,,,,,,,,AMSA10.jpg,AMNE10.jpg,AMSA08.jpg,AMNE19.jpg,AMSA08.jpg,MS,2,num_2,16,num_2,1.25013455026,,,2017_Sep_20_1340,60.0086997191,MAFE4ImagesEEG,001,201498,
AFNE01.JPG,AFNE01.JPG,AFNE01.JPG,AFNE01.JPG,AFNE01.JPG,AFNE01.JPG,,,,,,,,,2,2,22,9,,,,,,,,,,,,,,,AMSA12.jpg,AMSA02.jpg,AMNE10.jpg,AMNE07.jpg,AMNE07.jpg,MN,1,num_4,16,num_4,2.5666249919,,,2017_Sep_20_1340,60.0086997191,MAFE4ImagesEEG,001,201498,
AFNE01.JPG,AFNE01.JPG,AFNE01.JPG,AFNE01.JPG,AFNE01.JPG,AFNE01.JPG,,,,,,,,,2,3,23,6,,,,,,,,,,,,,,,AMNE02.jpg,AMNE18.jpg,AMSA18.jpg,AMSA19.jpg,AMSA19.jpg,MS,2,num_4,16,num_4,1.4167507539,,,2017_Sep_20_1340,60.0086997191,MAFE4ImagesEEG,001,201498,
AFNE01.JPG,AFNE01.JPG,AFNE01.JPG,AFNE01.JPG,AFNE01.JPG,AFNE01.JPG,,,,,,,,,2,4,24,5,,,,,,,,,,,,,,,AMSA01.jpg,AMNE10.jpg,AMNE12.jpg,AMSA08.jpg,AMSA01.jpg,MS,2,num_8,16,num_8,0.966769773757,,,2017_Sep_20_1340,60.0086997191,MAFE4ImagesEEG,001,201498,
AFNE01.JPG,AFNE01.JPG,AFNE01.JPG,AFNE01.JPG,AFNE01.JPG,AFNE01.JPG,,,,,,,,,2,5,25,4,,,,,,,,,,,,,,,AMSA13.jpg,AMSA03.jpg,AMNE20.jpg,AMNE05.jpg,AMSA03.jpg,MS,2,num_6,16,num_6,0.850143723414,,,2017_Sep_20_1340,60.0086997191,MAFE4ImagesEEG,001,201498,
AFNE01.JPG,AFNE01.JPG,AFNE01.JPG,AFNE01.JPG,AFNE01.JPG,AFNE01.JPG,,,,,,,,,2,6,26,1,,,,,,,,,,,,,,,AMNE18.jpg,AMSA02.jpg,AMNE12.jpg,AMSA14.jpg,AMNE12.jpg,MN,1,num_2,32,num_8,1.21672952094,,,2017_Sep_20_1340,60.0086997191,MAFE4ImagesEEG,001,201498,
AFNE01.JPG,AFNE01.JPG,AFNE01.JPG,AFNE01.JPG,AFNE01.JPG,AFNE01.JPG,,,,,,,,,2,7,27,8,,,,,,,,,,,,,,,AMNE01.jpg,AMSA17.jpg,AMNE03.jpg,AMSA09.jpg,AMNE03.jpg,MN,1,num_2,16,num_2,1.03348553496,,,2017_Sep_20_1340,60.0086997191,MAFE4ImagesEEG,001,201498,
AFNE01.JPG,AFNE01.JPG,AFNE01.JPG,AFNE01.JPG,AFNE01.JPG,AFNE01.JPG,,,,,,,,,2,8,28,3,,,,,,,,,,,,,,,AMSA07.jpg,AMNE03.jpg,AMSA18.jpg,AMNE11.jpg,AMSA07.jpg,MS,2,num_8,16,num_8,1.20032882224,,,2017_Sep_20_1340,60.0086997191,MAFE4ImagesEEG,001,201498,
AFNE01.JPG,AFNE01.JPG,AFNE01.JPG,AFNE01.JPG,AFNE01.JPG,AFNE01.JPG,,,,,,,,,2,9,29,0,,,,,,,,,,,,,,,AMSA13.jpg,AMNE09.jpg,AMSA11.jpg,AMNE19.jpg,AMSA11.jpg,MS,2,num_2,16,num_2,0.833453717596,,,2017_Sep_20_1340,60.0086997191,MAFE4ImagesEEG,001,201498,
AFNE01.JPG,AFNE01.JPG,AFNE01.JPG,AFNE01.JPG,AFNE01.JPG,AFNE01.JPG,,,,,,,,,3,0,30,9,,,,,,,,,,,,,,,AMSA19.jpg,AMNE05.jpg,AMSA04.jpg,AMNE16.jpg,AMNE16.jpg,MN,1,num_4,16,num_4,1.08342886028,,,2017_Sep_20_1340,60.0086997191,MAFE4ImagesEEG,001,201498,
AFNE01.JPG,AFNE01.JPG,AFNE01.JPG,AFNE01.JPG,AFNE01.JPG,AFNE01.JPG,,,,,,,,,3,1,31,1,,,,,,,,,,,,,,,AMSA06.jpg,AMNE11.jpg,AMSA16.jpg,AMNE10.jpg,AMNE10.jpg,MN,1,num_4,32,num_6,1.78336092763,,,2017_Sep_20_1340,60.0086997191,MAFE4ImagesEEG,001,201498,
AFNE01.JPG,AFNE01.JPG,AFNE01.JPG,AFNE01.JPG,AFNE01.JPG,AFNE01.JPG,,,,,,,,,3,2,32,2,,,,,,,,,,,,,,,AMSA13.jpg,AMNE02.jpg,AMNE16.jpg,AMSA11.jpg,AMSA11.jpg,MS,2,num_4,32,num_6,1.10013009198,,,2017_Sep_20_1340,60.0086997191,MAFE4ImagesEEG,001,201498,
AFNE01.JPG,AFNE01.JPG,AFNE01.JPG,AFNE01.JPG,AFNE01.JPG,AFNE01.JPG,,,,,,,,,3,3,33,8,,,,,,,,,,,,,,,AMSA04.jpg,AMNE03.jpg,AMNE13.jpg,AMSA11.jpg,AMSA04.jpg,MS,2,num_8,16,num_8,0.700121945196,,,2017_Sep_20_1340,60.0086997191,MAFE4ImagesEEG,001,201498,
AFNE01.JPG,AFNE01.JPG,AFNE01.JPG,AFNE01.JPG,AFNE01.JPG,AFNE01.JPG,,,,,,,,,3,4,34,6,,,,,,,,,,,,,,,AMSA04.jpg,AMNE18.jpg,AMSA20.jpg,AMNE07.jpg,AMSA20.jpg,MS,2,num_2,16,num_2,1.33339983334,,,2017_Sep_20_1340,60.0086997191,MAFE4ImagesEEG,001,201498,
AFNE01.JPG,AFNE01.JPG,AFNE01.JPG,AFNE01.JPG,AFNE01.JPG,AFNE01.JPG,,,,,,,,,3,5,35,3,,,,,,,,,,,,,,,AMSA20.jpg,AMSA10.jpg,AMNE10.jpg,AMNE08.jpg,AMNE10.jpg,MN,1,num_2,32,num_4,1.04997636149,,,2017_Sep_20_1340,60.0086997191,MAFE4ImagesEEG,001,201498,
AFNE01.JPG,AFNE01.JPG,AFNE01.JPG,AFNE01.JPG,AFNE01.JPG,AFNE01.JPG,,,,,,,,,3,6,36,5,,,,,,,,,,,,,,,AMSA15.jpg,AMSA17.jpg,AMNE19.jpg,AMNE15.jpg,AMSA17.jpg,MS,2,num_6,16,num_6,0.983409744197,,,2017_Sep_20_1340,60.0086997191,MAFE4ImagesEEG,001,201498,
AFNE01.JPG,AFNE01.JPG,AFNE01.JPG,AFNE01.JPG,AFNE01.JPG,AFNE01.JPG,,,,,,,,,3,7,37,0,,,,,,,,,,,,,,,AMSA11.jpg,AMSA17.jpg,AMNE20.jpg,AMNE09.jpg,AMSA17.jpg,MS,2,num_6,16,num_6,1.46673256796,,,2017_Sep_20_1340,60.0086997191,MAFE4ImagesEEG,001,201498,
AFNE01.JPG,AFNE01.JPG,AFNE01.JPG,AFNE01.JPG,AFNE01.JPG,AFNE01.JPG,,,,,,,,,3,8,38,7,,,,,,,,,,,,,,,AMSA10.jpg,AMSA09.jpg,AMNE10.jpg,AMNE13.jpg,AMSA10.jpg,MS,2,num_8,32,num_2,1.4003670544,,,2017_Sep_20_1340,60.0086997191,MAFE4ImagesEEG,001,201498,
AFNE01.JPG,AFNE01.JPG,AFNE01.JPG,AFNE01.JPG,AFNE01.JPG,AFNE01.JPG,,,,,,,,,3,9,39,4,,,,,,,,,,,,,,,AMNE12.jpg,AMSA06.jpg,AMNE02.jpg,AMSA02.jpg,AMSA06.jpg,MS,2,num_6,16,num_6,0.933427288654,,,2017_Sep_20_1340,60.0086997191,MAFE4ImagesEEG,001,201498,
AFNE01.JPG,AFNE01.JPG,AFNE01.JPG,AFNE01.JPG,AFNE01.JPG,AFNE01.JPG,,,,,,,,,4,0,40,9,,,,,,,,,,,,,,,AMSA18.jpg,AMNE17.jpg,AMNE15.jpg,AMSA01.jpg,AMSA18.jpg,MS,2,num_8,32,num_4,1.16677849787,,,2017_Sep_20_1340,60.0086997191,MAFE4ImagesEEG,001,201498,
AFNE01.JPG,AFNE01.JPG,AFNE01.JPG,AFNE01.JPG,AFNE01.JPG,AFNE01.JPG,,,,,,,,,4,1,41,4,,,,,,,,,,,,,,,AMNE14.jpg,AMSA10.jpg,AMNE12.jpg,AMSA14.jpg,AMSA10.jpg,MS,2,num_6,16,num_6,1.18343065642,,,2017_Sep_20_1340,60.0086997191,MAFE4ImagesEEG,001,201498,
AFNE01.JPG,AFNE01.JPG,AFNE01.JPG,AFNE01.JPG,AFNE01.JPG,AFNE01.JPG,,,,,,,,,4,2,42,6,,,,,,,,,,,,,,,AMSA02.jpg,AMNE20.jpg,AMNE03.jpg,AMSA13.jpg,AMSA13.jpg,MS,2,num_4,16,num_4,0.833446019847,,,2017_Sep_20_1340,60.0086997191,MAFE4ImagesEEG,001,201498,
AFNE01.JPG,AFNE01.JPG,AFNE01.JPG,AFNE01.JPG,AFNE01.JPG,AFNE01.JPG,,,,,,,,,4,3,43,8,,,,,,,,,,,,,,,AMNE11.jpg,AMSA02.jpg,AMSA14.jpg,AMNE14.jpg,AMNE11.jpg,MN,1,num_8,16,num_8,1.26672352311,,,2017_Sep_20_1340,60.0086997191,MAFE4ImagesEEG,001,201498,
AFNE01.JPG,AFNE01.JPG,AFNE01.JPG,AFNE01.JPG,AFNE01.JPG,AFNE01.JPG,,,,,,,,,4,4,44,7,,,,,,,,,,,,,,,AMSA09.jpg,AMSA16.jpg,AMNE05.jpg,AMNE01.jpg,AMSA16.jpg,MS,2,num_6,32,num_4,2.41662758989,,,2017_Sep_20_1340,60.0086997191,MAFE4ImagesEEG,001,201498,
AFNE01.JPG,AFNE01.JPG,AFNE01.JPG,AFNE01.JPG,AFNE01.JPG,AFNE01.JPG,,,,,,,,,4,5,45,3,,,,,,,,,,,,,,,AMNE15.jpg,AMSA20.jpg,AMNE05.jpg,AMSA16.jpg,AMSA16.jpg,MS,2,num_4,16,num_4,0.733441978527,,,2017_Sep_20_1340,60.0086997191,MAFE4ImagesEEG,001,201498,
AFNE01.JPG,AFNE01.JPG,AFNE01.JPG,AFNE01.JPG,AFNE01.JPG,AFNE01.JPG,,,,,,,,,4,6,46,0,,,,,,,,,,,,,,,AMSA18.jpg,AMSA12.jpg,AMNE06.jpg,AMNE12.jpg,AMNE06.jpg,MN,1,num_2,32,num_6,0.850137950101,,,2017_Sep_20_1340,60.0086997191,MAFE4ImagesEEG,001,201498,
AFNE01.JPG,AFNE01.JPG,AFNE01.JPG,AFNE01.JPG,AFNE01.JPG,AFNE01.JPG,,,,,,,,,4,7,47,5,,,,,,,,,,,,,,,AMNE08.jpg,AMNE16.jpg,AMSA20.jpg,AMSA16.jpg,AMNE16.jpg,MN,1,num_6,16,num_6,1.30016126787,,,2017_Sep_20_1340,60.0086997191,MAFE4ImagesEEG,001,201498,
AFNE01.JPG,AFNE01.JPG,AFNE01.JPG,AFNE01.JPG,AFNE01.JPG,AFNE01.JPG,,,,,,,,,4,8,48,1,,,,,,,,,,,,,,,AMSA12.jpg,AMNE13.jpg,AMSA16.jpg,AMNE03.jpg,AMSA16.jpg,MS,2,num_2,16,num_2,0.950099653794,,,2017_Sep_20_1340,60.0086997191,MAFE4ImagesEEG,001,201498,
AFNE01.JPG,AFNE01.JPG,AFNE01.JPG,AFNE01.JPG,AFNE01.JPG,AFNE01.JPG,,,,,,,,,4,9,49,2,,,,,,,,,,,,,,,AMNE06.jpg,AMSA16.jpg,AMNE02.jpg,AMSA13.jpg,AMSA13.jpg,MS,2,num_4,16,num_4,1.80004034904,,,2017_Sep_20_1340,60.0086997191,MAFE4ImagesEEG,001,201498,
AFNE01.JPG,AFNE01.JPG,AFNE01.JPG,AFNE01.JPG,AFNE01.JPG,AFNE01.JPG,,,,,,,,,5,0,50,8,,,,,,,,,,,,,,,AMNE19.jpg,AMNE02.jpg,AMSA07.jpg,AMSA19.jpg,AMNE02.jpg,MN,1,num_6,16,num_6,1.20007607943,,,2017_Sep_20_1340,60.0086997191,MAFE4ImagesEEG,001,201498,
AFNE01.JPG,AFNE01.JPG,AFNE01.JPG,AFNE01.JPG,AFNE01.JPG,AFNE01.JPG,,,,,,,,,5,1,51,6,,,,,,,,,,,,,,,AMSA14.jpg,AMNE09.jpg,AMSA08.jpg,AMNE15.jpg,AMSA08.jpg,MS,2,num_2,32,num_6,1.73323862962,,,2017_Sep_20_1340,60.0086997191,MAFE4ImagesEEG,001,201498,
AFNE01.JPG,AFNE01.JPG,AFNE01.JPG,AFNE01.JPG,AFNE01.JPG,AFNE01.JPG,,,,,,,,,5,2,52,3,,,,,,,,,,,,,,,AMSA13.jpg,AMSA17.jpg,AMNE09.jpg,AMNE18.jpg,AMSA13.jpg,MS,2,num_8,16,num_8,1.28342090594,,,2017_Sep_20_1340,60.0086997191,MAFE4ImagesEEG,001,201498,
AFNE01.JPG,AFNE01.JPG,AFNE01.JPG,AFNE01.JPG,AFNE01.JPG,AFNE01.JPG,,,,,,,,,5,3,53,4,,,,,,,,,,,,,,,AMSA14.jpg,AMNE02.jpg,AMSA08.jpg,AMNE08.jpg,AMNE08.jpg,MN,1,num_4,16,num_4,1.05006937597,,,2017_Sep_20_1340,60.0086997191,MAFE4ImagesEEG,001,201498,
AFNE01.JPG,AFNE01.JPG,AFNE01.JPG,AFNE01.JPG,AFNE01.JPG,AFNE01.JPG,,,,,,,,,5,4,54,9,,,,,,,,,,,,,,,AMSA20.jpg,AMSA02.jpg,AMNE07.jpg,AMNE17.jpg,AMSA20.jpg,MS,2,num_8,16,num_8,1.50011706995,,,2017_Sep_20_1340,60.0086997191,MAFE4ImagesEEG,001,201498,
AFNE01.JPG,AFNE01.JPG,AFNE01.JPG,AFNE01.JPG,AFNE01.JPG,AFNE01.JPG,,,,,,,,,5,5,55,1,,,,,,,,,,,,,,,AMNE15.jpg,AMNE16.jpg,AMSA14.jpg,AMSA15.jpg,AMSA14.jpg,MS,2,num_2,16,num_2,1.45008425829,,,2017_Sep_20_1340,60.0086997191,MAFE4ImagesEEG,001,201498,
AFNE01.JPG,AFNE01.JPG,AFNE01.JPG,AFNE01.JPG,AFNE01.JPG,AFNE01.JPG,,,,,,,,,5,6,56,0,,,,,,,,,,,,,,,AMSA18.jpg,AMNE15.jpg,AMSA01.jpg,AMNE02.jpg,AMNE02.jpg,MN,1,num_4,16,num_4,0.633561101215,,,2017_Sep_20_1340,60.0086997191,MAFE4ImagesEEG,001,201498,
AFNE01.JPG,AFNE01.JPG,AFNE01.JPG,AFNE01.JPG,AFNE01.JPG,AFNE01.JPG,,,,,,,,,5,7,57,7,,,,,,,,,,,,,,,AMNE07.jpg,AMSA14.jpg,AMNE19.jpg,AMSA04.jpg,AMSA14.jpg,MS,2,num_6,16,num_6,1.01679777432,,,2017_Sep_20_1340,60.0086997191,MAFE4ImagesEEG,001,201498,
AFNE01.JPG,AFNE01.JPG,AFNE01.JPG,AFNE01.JPG,AFNE01.JPG,AFNE01.JPG,,,,,,,,,5,8,58,5,,,,,,,,,,,,,,,AMSA08.jpg,AMNE12.jpg,AMNE16.jpg,AMSA17.jpg,AMSA08.jpg,MS,2,num_8,32,num_6,0.866745205103,,,2017_Sep_20_1340,60.0086997191,MAFE4ImagesEEG,001,201498,
AFNE01.JPG,AFNE01.JPG,AFNE01.JPG,AFNE01.JPG,AFNE01.JPG,AFNE01.JPG,,,,,,,,,5,9,59,2,,,,,,,,,,,,,,,AMSA08.jpg,AMNE03.jpg,AMNE10.jpg,AMSA20.jpg,AMNE10.jpg,MN,1,num_2,16,num_2,1.01675255004,,,2017_Sep_20_1340,60.0086997191,MAFE4ImagesEEG,001,201498,
,,,,,,,,,,,,,,,,,,,,,,,,,,,,,,,,,,,,,,,,,,,space,13.1327999861,2017_Sep_20_1340,60.0086997191,MAFE4ImagesEEG,001,201498,
AFNE01.JPG,AFNE01.JPG,AFNE01.JPG,AFNE01.JPG,AFNE01.JPG,AFNE01.JPG,,,,,,,,,,,,,0,0,0,6,,,,,,,,,,,AFNE05.jpg,AFSA17.jpg,AFSA15.jpg,AFNE16.jpg,AFNE05.jpg,FN,3,num_8,32,num_4,0.816776220622,,,2017_Sep_20_1340,60.0086997191,MAFE4ImagesEEG,001,201498,
AFNE01.JPG,AFNE01.JPG,AFNE01.JPG,AFNE01.JPG,AFNE01.JPG,AFNE01.JPG,,,,,,,,,,,,,0,1,1,0,,,,,,,,,,,AFSA03.jpg,AFNE09.jpg,AFSA02.jpg,AFNE03.jpg,AFNE09.jpg,FN,3,num_6,32,num_4,1.93334966967,,,2017_Sep_20_1340,60.0086997191,MAFE4ImagesEEG,001,201498,
AFNE01.JPG,AFNE01.JPG,AFNE01.JPG,AFNE01.JPG,AFNE01.JPG,AFNE01.JPG,,,,,,,,,,,,,0,2,2,2,,,,,,,,,,,AFSA18.jpg,AFNE12.jpg,AFNE13.jpg,AFSA20.jpg,AFSA18.jpg,FS,4,num_8,32,num_2,0.783420585196,,,2017_Sep_20_1340,60.0086997191,MAFE4ImagesEEG,001,201498,
AFNE01.JPG,AFNE01.JPG,AFNE01.JPG,AFNE01.JPG,AFNE01.JPG,AFNE01.JPG,,,,,,,,,,,,,0,3,3,8,,,,,,,,,,,AFSA15.jpg,AFNE08.jpg,AFSA02.jpg,AFNE02.jpg,AFNE02.jpg,FN,3,num_4,16,num_4,1.08344938761,,,2017_Sep_20_1340,60.0086997191,MAFE4ImagesEEG,001,201498,
AFNE01.JPG,AFNE01.JPG,AFNE01.JPG,AFNE01.JPG,AFNE01.JPG,AFNE01.JPG,,,,,,,,,,,,,0,4,4,4,,,,,,,,,,,AFNE05.jpg,AFNE04.jpg,AFSA20.jpg,AFSA02.jpg,AFNE05.jpg,FN,3,num_8,16,num_8,1.86666886908,,,2017_Sep_20_1340,60.0086997191,MAFE4ImagesEEG,001,201498,
AFNE01.JPG,AFNE01.JPG,AFNE01.JPG,AFNE01.JPG,AFNE01.JPG,AFNE01.JPG,,,,,,,,,,,,,0,5,5,5,,,,,,,,,,,AFNE02.jpg,AFSA05.jpg,AFSA08.jpg,AFNE09.jpg,AFNE02.jpg,FN,3,num_8,16,num_8,1.60015318523,,,2017_Sep_20_1340,60.0086997191,MAFE4ImagesEEG,001,201498,
AFNE01.JPG,AFNE01.JPG,AFNE01.JPG,AFNE01.JPG,AFNE01.JPG,AFNE01.JPG,,,,,,,,,,,,,0,6,6,9,,,,,,,,,,,AFSA09.jpg,AFNE08.jpg,AFSA19.jpg,AFNE14.jpg,AFSA19.jpg,FS,4,num_2,32,num_6,1.16673359433,,,2017_Sep_20_1340,60.0086997191,MAFE4ImagesEEG,001,201498,
AFNE01.JPG,AFNE01.JPG,AFNE01.JPG,AFNE01.JPG,AFNE01.JPG,AFNE01.JPG,,,,,,,,,,,,,0,7,7,7,,,,,,,,,,,AFNE12.jpg,AFNE14.jpg,AFSA11.jpg,AFSA20.jpg,AFSA11.jpg,FS,4,num_2,32,num_4,1.28340935931,,,2017_Sep_20_1340,60.0086997191,MAFE4ImagesEEG,001,201498,
AFNE01.JPG,AFNE01.JPG,AFNE01.JPG,AFNE01.JPG,AFNE01.JPG,AFNE01.JPG,,,,,,,,,,,,,0,8,8,3,,,,,,,,,,,AFNE03.jpg,AFNE20.jpg,AFSA04.jpg,AFSA18.jpg,AFSA04.jpg,FS,4,num_2,32,num_8,1.81656004213,,,2017_Sep_20_1340,60.0086997191,MAFE4ImagesEEG,001,201498,
AFNE01.JPG,AFNE01.JPG,AFNE01.JPG,AFNE01.JPG,AFNE01.JPG,AFNE01.JPG,,,,,,,,,,,,,0,9,9,1,,,,,,,,,,,AFNE12.jpg,AFSA08.jpg,AFSA03.jpg,AFNE05.jpg,AFSA08.jpg,FS,4,num_6,16,num_6,1.23339771646,,,2017_Sep_20_1340,60.0086997191,MAFE4ImagesEEG,001,201498,
AFNE01.JPG,AFNE01.JPG,AFNE01.JPG,AFNE01.JPG,AFNE01.JPG,AFNE01.JPG,,,,,,,,,,,,,1,0,10,5,,,,,,,,,,,AFSA08.jpg,AFSA09.jpg,AFNE18.jpg,AFNE10.jpg,AFNE10.jpg,FN,3,num_4,16,num_4,1.15014814962,,,2017_Sep_20_1340,60.0086997191,MAFE4ImagesEEG,001,201498,
AFNE01.JPG,AFNE01.JPG,AFNE01.JPG,AFNE01.JPG,AFNE01.JPG,AFNE01.JPG,,,,,,,,,,,,,1,1,11,9,,,,,,,,,,,AFSA10.jpg,AFNE12.jpg,AFSA02.jpg,AFNE05.jpg,AFNE12.jpg,FN,3,num_6,16,num_6,0.66676534755,,,2017_Sep_20_1340,60.0086997191,MAFE4ImagesEEG,001,201498,
AFNE01.JPG,AFNE01.JPG,AFNE01.JPG,AFNE01.JPG,AFNE01.JPG,AFNE01.JPG,,,,,,,,,,,,,1,2,12,8,,,,,,,,,,,AFNE18.jpg,AFSA01.jpg,AFNE07.jpg,AFSA12.jpg,AFSA12.jpg,FS,4,num_4,16,num_4,0.633519405066,,,2017_Sep_20_1340,60.0086997191,MAFE4ImagesEEG,001,201498,
AFNE01.JPG,AFNE01.JPG,AFNE01.JPG,AFNE01.JPG,AFNE01.JPG,AFNE01.JPG,,,,,,,,,,,,,1,3,13,1,,,,,,,,,,,AFSA05.jpg,AFNE01.jpg,AFNE14.jpg,AFSA18.jpg,AFSA18.jpg,FS,4,num_4,16,num_4,0.750119796241,,,2017_Sep_20_1340,60.0086997191,MAFE4ImagesEEG,001,201498,
AFNE01.JPG,AFNE01.JPG,AFNE01.JPG,AFNE01.JPG,AFNE01.JPG,AFNE01.JPG,,,,,,,,,,,,,1,4,14,4,,,,,,,,,,,AFSA06.jpg,AFSA19.jpg,AFNE16.jpg,AFNE12.jpg,AFNE16.jpg,FN,3,num_2,16,num_2,1.01674260711,,,2017_Sep_20_1340,60.0086997191,MAFE4ImagesEEG,001,201498,
AFNE01.JPG,AFNE01.JPG,AFNE01.JPG,AFNE01.JPG,AFNE01.JPG,AFNE01.JPG,,,,,,,,,,,,,1,5,15,0,,,,,,,,,,,AFNE08.jpg,AFSA08.jpg,AFSA19.jpg,AFNE01.jpg,AFNE01.jpg,FN,3,num_4,32,num_8,1.14978378944,,,2017_Sep_20_1340,60.0086997191,MAFE4ImagesEEG,001,201498,
AFNE01.JPG,AFNE01.JPG,AFNE01.JPG,AFNE01.JPG,AFNE01.JPG,AFNE01.JPG,,,,,,,,,,,,,1,6,16,2,,,,,,,,,,,AFSA13.jpg,AFNE16.jpg,AFSA16.jpg,AFNE07.jpg,AFNE07.jpg,FN,3,num_4,16,num_4,0.866852652869,,,2017_Sep_20_1340,60.0086997191,MAFE4ImagesEEG,001,201498,
AFNE01.JPG,AFNE01.JPG,AFNE01.JPG,AFNE01.JPG,AFNE01.JPG,AFNE01.JPG,,,,,,,,,,,,,1,7,17,7,,,,,,,,,,,AFNE16.jpg,AFNE06.jpg,AFSA05.jpg,AFSA03.jpg,AFNE16.jpg,FN,3,num_8,16,num_8,1.11686724652,,,2017_Sep_20_1340,60.0086997191,MAFE4ImagesEEG,001,201498,
AFNE01.JPG,AFNE01.JPG,AFNE01.JPG,AFNE01.JPG,AFNE01.JPG,AFNE01.JPG,,,,,,,,,,,,,1,8,18,3,,,,,,,,,,,AFSA02.jpg,AFNE13.jpg,AFNE06.jpg,AFSA20.jpg,AFNE06.jpg,FN,3,num_2,32,num_8,1.5000631857,,,2017_Sep_20_1340,60.0086997191,MAFE4ImagesEEG,001,201498,
AFNE01.JPG,AFNE01.JPG,AFNE01.JPG,AFNE01.JPG,AFNE01.JPG,AFNE01.JPG,,,,,,,,,,,,,1,9,19,6,,,,,,,,,,,AFNE03.jpg,AFNE14.jpg,AFSA09.jpg,AFSA07.jpg,AFSA09.jpg,FS,4,num_2,16,num_2,1.50002726287,,,2017_Sep_20_1340,60.0086997191,MAFE4ImagesEEG,001,201498,
AFNE01.JPG,AFNE01.JPG,AFNE01.JPG,AFNE01.JPG,AFNE01.JPG,AFNE01.JPG,,,,,,,,,,,,,2,0,20,6,,,,,,,,,,,AFSA15.jpg,AFSA09.jpg,AFNE19.jpg,AFNE07.jpg,AFSA09.jpg,FS,4,num_6,16,num_6,0.750129418429,,,2017_Sep_20_1340,60.0086997191,MAFE4ImagesEEG,001,201498,
AFNE01.JPG,AFNE01.JPG,AFNE01.JPG,AFNE01.JPG,AFNE01.JPG,AFNE01.JPG,,,,,,,,,,,,,2,1,21,4,,,,,,,,,,,AFSA15.jpg,AFNE12.jpg,AFSA01.jpg,AFNE18.jpg,AFSA01.jpg,FS,4,num_2,32,num_8,1.11687430279,,,2017_Sep_20_1340,60.0086997191,MAFE4ImagesEEG,001,201498,
AFNE01.JPG,AFNE01.JPG,AFNE01.JPG,AFNE01.JPG,AFNE01.JPG,AFNE01.JPG,,,,,,,,,,,,,2,2,22,3,,,,,,,,,,,AFNE05.jpg,AFNE06.jpg,AFSA02.jpg,AFSA10.jpg,AFNE05.jpg,FN,3,num_8,32,num_2,1.50014048394,,,2017_Sep_20_1340,60.0086997191,MAFE4ImagesEEG,001,201498,
AFNE01.JPG,AFNE01.JPG,AFNE01.JPG,AFNE01.JPG,AFNE01.JPG,AFNE01.JPG,,,,,,,,,,,,,2,3,23,8,,,,,,,,,,,AFSA07.jpg,AFNE08.jpg,AFSA06.jpg,AFNE03.jpg,AFNE03.jpg,FN,3,num_4,16,num_4,1.03343614107,,,2017_Sep_20_1340,60.0086997191,MAFE4ImagesEEG,001,201498,
AFNE01.JPG,AFNE01.JPG,AFNE01.JPG,AFNE01.JPG,AFNE01.JPG,AFNE01.JPG,,,,,,,,,,,,,2,4,24,5,,,,,,,,,,,AFSA12.jpg,AFNE18.jpg,AFSA13.jpg,AFNE19.jpg,AFSA12.jpg,FS,4,num_8,16,num_8,0.683562801135,,,2017_Sep_20_1340,60.0086997191,MAFE4ImagesEEG,001,201498,
AFNE01.JPG,AFNE01.JPG,AFNE01.JPG,AFNE01.JPG,AFNE01.JPG,AFNE01.JPG,,,,,,,,,,,,,2,5,25,0,,,,,,,,,,,AFNE09.jpg,AFSA19.jpg,AFSA04.jpg,AFNE17.jpg,AFNE09.jpg,FN,3,num_8,32,num_4,1.50008210934,,,2017_Sep_20_1340,60.0086997191,MAFE4ImagesEEG,001,201498,
AFNE01.JPG,AFNE01.JPG,AFNE01.JPG,AFNE01.JPG,AFNE01.JPG,AFNE01.JPG,,,,,,,,,,,,,2,6,26,1,,,,,,,,,,,AFNE13.jpg,AFSA11.jpg,AFSA14.jpg,AFNE07.jpg,AFSA14.jpg,FS,4,num_2,16,num_2,1.13345429493,,,2017_Sep_20_1340,60.0086997191,MAFE4ImagesEEG,001,201498,
AFNE01.JPG,AFNE01.JPG,AFNE01.JPG,AFNE01.JPG,AFNE01.JPG,AFNE01.JPG,,,,,,,,,,,,,2,7,27,9,,,,,,,,,,,AFSA05.jpg,AFNE06.jpg,AFNE14.jpg,AFSA04.jpg,AFSA04.jpg,FS,4,num_4,32,num_2,1.66671018034,,,2017_Sep_20_1340,60.0086997191,MAFE4ImagesEEG,001,201498,
AFNE01.JPG,AFNE01.JPG,AFNE01.JPG,AFNE01.JPG,AFNE01.JPG,AFNE01.JPG,,,,,,,,,,,,,2,8,28,2,,,,,,,,,,,AFSA04.jpg,AFSA02.jpg,AFNE19.jpg,AFNE15.jpg,AFSA02.jpg,FS,4,num_6,32,num_2,1.4334090065,,,2017_Sep_20_1340,60.0086997191,MAFE4ImagesEEG,001,201498,
AFNE01.JPG,AFNE01.JPG,AFNE01.JPG,AFNE01.JPG,AFNE01.JPG,AFNE01.JPG,,,,,,,,,,,,,2,9,29,7,,,,,,,,,,,AFNE03.jpg,AFNE16.jpg,AFSA08.jpg,AFSA12.jpg,AFSA08.jpg,FS,4,num_2,32,num_6,0.816832670792,,,2017_Sep_20_1340,60.0086997191,MAFE4ImagesEEG,001,201498,
AFNE01.JPG,AFNE01.JPG,AFNE01.JPG,AFNE01.JPG,AFNE01.JPG,AFNE01.JPG,,,,,,,,,,,,,3,0,30,2,,,,,,,,,,,AFNE13.jpg,AFNE16.jpg,AFSA13.jpg,AFSA08.jpg,AFNE13.jpg,FN,3,num_8,32,num_6,1.05014186312,,,2017_Sep_20_1340,60.0086997191,MAFE4ImagesEEG,001,201498,
AFNE01.JPG,AFNE01.JPG,AFNE01.JPG,AFNE01.JPG,AFNE01.JPG,AFNE01.JPG,,,,,,,,,,,,,3,1,31,4,,,,,,,,,,,AFSA01.jpg,AFNE17.jpg,AFSA05.jpg,AFNE01.jpg,AFNE01.jpg,FN,3,num_4,32,num_8,1.75005051649,,,2017_Sep_20_1340,60.0086997191,MAFE4ImagesEEG,001,201498,
AFNE01.JPG,AFNE01.JPG,AFNE01.JPG,AFNE01.JPG,AFNE01.JPG,AFNE01.JPG,,,,,,,,,,,,,3,2,32,3,,,,,,,,,,,AFSA09.jpg,AFSA10.jpg,AFNE08.jpg,AFNE01.jpg,AFSA09.jpg,FS,4,num_8,32,num_2,3.56653742999,,,2017_Sep_20_1340,60.0086997191,MAFE4ImagesEEG,001,201498,
AFNE01.JPG,AFNE01.JPG,AFNE01.JPG,AFNE01.JPG,AFNE01.JPG,AFNE01.JPG,,,,,,,,,,,,,3,3,33,8,,,,,,,,,,,AFSA03.jpg,AFNE14.jpg,AFNE19.jpg,AFSA08.jpg,AFNE19.jpg,FN,3,num_2,16,num_2,0.71679944217,,,2017_Sep_20_1340,60.0086997191,MAFE4ImagesEEG,001,201498,
AFNE01.JPG,AFNE01.JPG,AFNE01.JPG,AFNE01.JPG,AFNE01.JPG,AFNE01.JPG,,,,,,,,,,,,,3,4,34,7,,,,,,,,,,,AFSA03.jpg,AFSA15.jpg,AFNE03.jpg,AFNE20.jpg,AFSA15.jpg,FS,4,num_6,32,num_4,1.16673808468,,,2017_Sep_20_1340,60.0086997191,MAFE4ImagesEEG,001,201498,
AFNE01.JPG,AFNE01.JPG,AFNE01.JPG,AFNE01.JPG,AFNE01.JPG,AFNE01.JPG,,,,,,,,,,,,,3,5,35,5,,,,,,,,,,,AFNE16.jpg,AFNE13.jpg,AFSA03.jpg,AFSA06.jpg,AFNE13.jpg,FN,3,num_6,16,num_6,1.35007733032,,,2017_Sep_20_1340,60.0086997191,MAFE4ImagesEEG,001,201498,
AFNE01.JPG,AFNE01.JPG,AFNE01.JPG,AFNE01.JPG,AFNE01.JPG,AFNE01.JPG,,,,,,,,,,,,,3,6,36,9,,,,,,,,,,,AFSA19.jpg,AFNE06.jpg,AFNE11.jpg,AFSA02.jpg,AFSA19.jpg,FS,4,num_8,32,num_4,1.66673616025,,,2017_Sep_20_1340,60.0086997191,MAFE4ImagesEEG,001,201498,
AFNE01.JPG,AFNE01.JPG,AFNE01.JPG,AFNE01.JPG,AFNE01.JPG,AFNE01.JPG,,,,,,,,,,,,,3,7,37,1,,,,,,,,,,,AFSA02.jpg,AFNE01.jpg,AFSA11.jpg,AFNE19.jpg,AFSA11.jpg,FS,4,num_2,16,num_2,0.666824684376,,,2017_Sep_20_1340,60.0086997191,MAFE4ImagesEEG,001,201498,
AFNE01.JPG,AFNE01.JPG,AFNE01.JPG,AFNE01.JPG,AFNE01.JPG,AFNE01.JPG,,,,,,,,,,,,,3,8,38,6,,,,,,,,,,,AFNE09.jpg,AFSA05.jpg,AFNE19.jpg,AFSA15.jpg,AFSA15.jpg,FS,4,num_4,16,num_4,1.08345131205,,,2017_Sep_20_1340,60.0086997191,MAFE4ImagesEEG,001,201498,
AFNE01.JPG,AFNE01.JPG,AFNE01.JPG,AFNE01.JPG,AFNE01.JPG,AFNE01.JPG,,,,,,,,,,,,,3,9,39,0,,,,,,,,,,,AFSA18.jpg,AFSA02.jpg,AFNE06.jpg,AFNE13.jpg,AFSA18.jpg,FS,4,num_8,32,num_6,1.26675174819,,,2017_Sep_20_1340,60.0086997191,MAFE4ImagesEEG,001,201498,
AFNE01.JPG,AFNE01.JPG,AFNE01.JPG,AFNE01.JPG,AFNE01.JPG,AFNE01.JPG,,,,,,,,,,,,,4,0,40,1,,,,,,,,,,,AFSA03.jpg,AFSA08.jpg,AFNE03.jpg,AFNE15.jpg,AFSA03.jpg,FS,4,num_8,32,num_2,1.49995509646,,,2017_Sep_20_1340,60.0086997191,MAFE4ImagesEEG,001,201498,
AFNE01.JPG,AFNE01.JPG,AFNE01.JPG,AFNE01.JPG,AFNE01.JPG,AFNE01.JPG,,,,,,,,,,,,,4,1,41,4,,,,,,,,,,,AFSA02.jpg,AFNE04.jpg,AFSA10.jpg,AFNE17.jpg,AFSA10.jpg,FS,4,num_2,32,num_6,2.5833002437,,,2017_Sep_20_1340,60.0086997191,MAFE4ImagesEEG,001,201498,
AFNE01.JPG,AFNE01.JPG,AFNE01.JPG,AFNE01.JPG,AFNE01.JPG,AFNE01.JPG,,,,,,,,,,,,,4,2,42,5,,,,,,,,,,,AFSA04.jpg,AFNE12.jpg,AFSA15.jpg,AFNE16.jpg,AFNE16.jpg,FN,3,num_4,32,num_8,1.25007585492,,,2017_Sep_20_1340,60.0086997191,MAFE4ImagesEEG,001,201498,
AFNE01.JPG,AFNE01.JPG,AFNE01.JPG,AFNE01.JPG,AFNE01.JPG,AFNE01.JPG,,,,,,,,,,,,,4,3,43,7,,,,,,,,,,,AFSA17.jpg,AFNE18.jpg,AFNE08.jpg,AFSA04.jpg,AFNE08.jpg,FN,3,num_2,32,num_4,0.9667822826,,,2017_Sep_20_1340,60.0086997191,MAFE4ImagesEEG,001,201498,
AFNE01.JPG,AFNE01.JPG,AFNE01.JPG,AFNE01.JPG,AFNE01.JPG,AFNE01.JPG,,,,,,,,,,,,,4,4,44,0,,,,,,,,,,,AFNE04.jpg,AFSA13.jpg,AFSA06.jpg,AFNE09.jpg,AFNE04.jpg,FN,3,num_8,32,num_4,1.36680165527,,,2017_Sep_20_1340,60.0086997191,MAFE4ImagesEEG,001,201498,
AFNE01.JPG,AFNE01.JPG,AFNE01.JPG,AFNE01.JPG,AFNE01.JPG,AFNE01.JPG,,,,,,,,,,,,,4,5,45,9,,,,,,,,,,,AFSA06.jpg,AFNE07.jpg,AFSA09.jpg,AFNE04.jpg,AFSA06.jpg,FS,4,num_8,16,num_8,1.26670620317,,,2017_Sep_20_1340,60.0086997191,MAFE4ImagesEEG,001,201498,
AFNE01.JPG,AFNE01.JPG,AFNE01.JPG,AFNE01.JPG,AFNE01.JPG,AFNE01.JPG,,,,,,,,,,,,,4,6,46,2,,,,,,,,,,,AFSA07.jpg,AFNE03.jpg,AFNE05.jpg,AFSA06.jpg,AFSA07.jpg,FS,4,num_8,32,num_2,1.06646879172,,,2017_Sep_20_1340,60.0086997191,MAFE4ImagesEEG,001,201498,
AFNE01.JPG,AFNE01.JPG,AFNE01.JPG,AFNE01.JPG,AFNE01.JPG,AFNE01.JPG,,,,,,,,,,,,,4,7,47,6,,,,,,,,,,,AFNE17.jpg,AFNE12.jpg,AFSA19.jpg,AFSA09.jpg,AFSA09.jpg,FS,4,num_4,16,num_4,0.6500054205,,,2017_Sep_20_1340,60.0086997191,MAFE4ImagesEEG,001,201498,
AFNE01.JPG,AFNE01.JPG,AFNE01.JPG,AFNE01.JPG,AFNE01.JPG,AFNE01.JPG,,,,,,,,,,,,,4,8,48,8,,,,,,,,,,,AFNE08.jpg,AFSA02.jpg,AFNE04.jpg,AFSA01.jpg,AFSA02.jpg,FS,4,num_6,16,num_6,1.28342892443,,,2017_Sep_20_1340,60.0086997191,MAFE4ImagesEEG,001,201498,
AFNE01.JPG,AFNE01.JPG,AFNE01.JPG,AFNE01.JPG,AFNE01.JPG,AFNE01.JPG,,,,,,,,,,,,,4,9,49,3,,,,,,,,,,,AFNE20.jpg,AFNE02.jpg,AFSA11.jpg,AFSA16.jpg,AFSA11.jpg,FS,4,num_2,16,num_2,0.700167490219,,,2017_Sep_20_1340,60.0086997191,MAFE4ImagesEEG,001,201498,
AFNE01.JPG,AFNE01.JPG,AFNE01.JPG,AFNE01.JPG,AFNE01.JPG,AFNE01.JPG,,,,,,,,,,,,,5,0,50,1,,,,,,,,,,,AFNE02.jpg,AFSA10.jpg,AFNE06.jpg,AFSA14.jpg,AFNE02.jpg,FN,3,num_8,32,num_4,1.05021467101,,,2017_Sep_20_1340,60.0086997191,MAFE4ImagesEEG,001,201498,
AFNE01.JPG,AFNE01.JPG,AFNE01.JPG,AFNE01.JPG,AFNE01.JPG,AFNE01.JPG,,,,,,,,,,,,,5,1,51,6,,,,,,,,,,,AFSA05.jpg,AFNE10.jpg,AFNE13.jpg,AFSA01.jpg,AFSA01.jpg,FS,4,num_4,16,num_4,1.71674170904,,,2017_Sep_20_1340,60.0086997191,MAFE4ImagesEEG,001,201498,
AFNE01.JPG,AFNE01.JPG,AFNE01.JPG,AFNE01.JPG,AFNE01.JPG,AFNE01.JPG,,,,,,,,,,,,,5,2,52,0,,,,,,,,,,,AFNE05.jpg,AFSA16.jpg,AFSA08.jpg,AFNE04.jpg,AFNE05.jpg,FN,3,num_8,32,num_6,1.13344018239,,,2017_Sep_20_1340,60.0086997191,MAFE4ImagesEEG,001,201498,
AFNE01.JPG,AFNE01.JPG,AFNE01.JPG,AFNE01.JPG,AFNE01.JPG,AFNE01.JPG,,,,,,,,,,,,,5,3,53,4,,,,,,,,,,,AFSA14.jpg,AFNE11.jpg,AFSA04.jpg,AFNE15.jpg,AFSA14.jpg,FS,4,num_8,32,num_2,0.933467701843,,,2017_Sep_20_1340,60.0086997191,MAFE4ImagesEEG,001,201498,
AFNE01.JPG,AFNE01.JPG,AFNE01.JPG,AFNE01.JPG,AFNE01.JPG,AFNE01.JPG,,,,,,,,,,,,,5,4,54,9,,,,,,,,,,,AFNE13.jpg,AFSA17.jpg,AFSA11.jpg,AFNE10.jpg,AFNE13.jpg,FN,3,num_8,32,num_4,1.15011350974,,,2017_Sep_20_1340,60.0086997191,MAFE4ImagesEEG,001,201498,
AFNE01.JPG,AFNE01.JPG,AFNE01.JPG,AFNE01.JPG,AFNE01.JPG,AFNE01.JPG,,,,,,,,,,,,,5,5,55,2,,,,,,,,,,,AFNE05.jpg,AFSA12.jpg,AFSA09.jpg,AFNE18.jpg,AFNE18.jpg,FN,3,num_4,32,num_2,1.05009439366,,,2017_Sep_20_1340,60.0086997191,MAFE4ImagesEEG,001,201498,
AFNE01.JPG,AFNE01.JPG,AFNE01.JPG,AFNE01.JPG,AFNE01.JPG,AFNE01.JPG,,,,,,,,,,,,,5,6,56,8,,,,,,,,,,,AFNE19.jpg,AFSA13.jpg,AFSA07.jpg,AFNE14.jpg,AFSA07.jpg,FS,4,num_2,32,num_4,0.700175829449,,,2017_Sep_20_1340,60.0086997191,MAFE4ImagesEEG,001,201498,
AFNE01.JPG,AFNE01.JPG,AFNE01.JPG,AFNE01.JPG,AFNE01.JPG,AFNE01.JPG,,,,,,,,,,,,,5,7,57,5,,,,,,,,,,,AFSA15.jpg,AFNE14.jpg,AFSA14.jpg,AFNE06.jpg,AFSA14.jpg,FS,4,num_2,32,num_4,1.0664476229,,,2017_Sep_20_1340,60.0086997191,MAFE4ImagesEEG,001,201498,
AFNE01.JPG,AFNE01.JPG,AFNE01.JPG,AFNE01.JPG,AFNE01.JPG,AFNE01.JPG,,,,,,,,,,,,,5,8,58,3,,,,,,,,,,,AFNE01.jpg,AFNE06.jpg,AFSA10.jpg,AFSA07.jpg,AFNE06.jpg,FN,3,num_6,16,num_6,0.950076881282,,,2017_Sep_20_1340,60.0086997191,MAFE4ImagesEEG,001,201498,
AFNE01.JPG,AFNE01.JPG,AFNE01.JPG,AFNE01.JPG,AFNE01.JPG,AFNE01.JPG,,,,,,,,,,,,,5,9,59,7,,,,,,,,,,,AFSA13.jpg,AFNE15.jpg,AFNE01.jpg,AFSA19.jpg,AFSA19.jpg,FS,4,num_4,32,num_2,0.983464590669,,,2017_Sep_20_1340,60.0086997191,MAFE4ImagesEEG,001,201498,
,,,,,,,,,,,,,,,,,,,,,,,,,,,,,,,,,,,,,,,,,,,space,5.70002379888,2017_Sep_20_1340,60.0086997191,MAFE4ImagesEEG,001,201498,
AFNE01.JPG,AFNE01.JPG,AFNE01.JPG,AFNE01.JPG,AFNE01.JPG,AFNE01.JPG,,,,,,,,,,,,,,,,,0,0,0,3,,,,,,,AMNE10.jpg,AMNE03.jpg,AMSA07.jpg,AMSA18.jpg,AMNE10.jpg,MN,1,num_8,32,num_2,0.716765443772,,,2017_Sep_20_1340,60.0086997191,MAFE4ImagesEEG,001,201498,
AFNE01.JPG,AFNE01.JPG,AFNE01.JPG,AFNE01.JPG,AFNE01.JPG,AFNE01.JPG,,,,,,,,,,,,,,,,,0,1,1,7,,,,,,,AMSA09.jpg,AMNE04.jpg,AMSA18.jpg,AMNE10.jpg,AMSA09.jpg,MS,2,num_8,16,num_8,1.36675450655,,,2017_Sep_20_1340,60.0086997191,MAFE4ImagesEEG,001,201498,
AFNE01.JPG,AFNE01.JPG,AFNE01.JPG,AFNE01.JPG,AFNE01.JPG,AFNE01.JPG,,,,,,,,,,,,,,,,,0,2,2,5,,,,,,,AMNE10.jpg,AMNE07.jpg,AMSA04.jpg,AMSA10.jpg,AMSA04.jpg,MS,2,num_2,16,num_2,0.783494996783,,,2017_Sep_20_1340,60.0086997191,MAFE4ImagesEEG,001,201498,
AFNE01.JPG,AFNE01.JPG,AFNE01.JPG,AFNE01.JPG,AFNE01.JPG,AFNE01.JPG,,,,,,,,,,,,,,,,,0,3,3,9,,,,,,,AMNE15.jpg,AMNE10.jpg,AMSA09.jpg,AMSA18.jpg,AMSA09.jpg,MS,2,num_2,32,num_4,1.40007453988,,,2017_Sep_20_1340,60.0086997191,MAFE4ImagesEEG,001,201498,
AFNE01.JPG,AFNE01.JPG,AFNE01.JPG,AFNE01.JPG,AFNE01.JPG,AFNE01.JPG,,,,,,,,,,,,,,,,,0,4,4,2,,,,,,,AMSA17.jpg,AMNE18.jpg,AMSA13.jpg,AMNE16.jpg,AMSA13.jpg,MS,2,num_2,32,num_6,0.883438097579,,,2017_Sep_20_1340,60.0086997191,MAFE4ImagesEEG,001,201498,
AFNE01.JPG,AFNE01.JPG,AFNE01.JPG,AFNE01.JPG,AFNE01.JPG,AFNE01.JPG,,,,,,,,,,,,,,,,,0,5,5,1,,,,,,,AMSA07.jpg,AMSA12.jpg,AMNE12.jpg,AMNE09.jpg,AMNE12.jpg,MN,1,num_2,32,num_4,0.900105972364,,,2017_Sep_20_1340,60.0086997191,MAFE4ImagesEEG,001,201498,
AFNE01.JPG,AFNE01.JPG,AFNE01.JPG,AFNE01.JPG,AFNE01.JPG,AFNE01.JPG,,,,,,,,,,,,,,,,,0,6,6,8,,,,,,,AMSA13.jpg,AMNE02.jpg,AMNE18.jpg,AMSA14.jpg,AMNE18.jpg,MN,1,num_2,32,num_6,1.26674854079,,,2017_Sep_20_1340,60.0086997191,MAFE4ImagesEEG,001,201498,
AFNE01.JPG,AFNE01.JPG,AFNE01.JPG,AFNE01.JPG,AFNE01.JPG,AFNE01.JPG,,,,,,,,,,,,,,,,,0,7,7,4,,,,,,,AMNE08.jpg,AMSA14.jpg,AMNE03.jpg,AMSA18.jpg,AMSA14.jpg,MS,2,num_6,16,num_6,0.666791648197,,,2017_Sep_20_1340,60.0086997191,MAFE4ImagesEEG,001,201498,
AFNE01.JPG,AFNE01.JPG,AFNE01.JPG,AFNE01.JPG,AFNE01.JPG,AFNE01.JPG,,,,,,,,,,,,,,,,,0,8,8,0,,,,,,,AMSA10.jpg,AMNE06.jpg,AMSA03.jpg,AMNE05.jpg,AMNE05.jpg,MN,1,num_4,16,num_4,0.983441497418,,,2017_Sep_20_1340,60.0086997191,MAFE4ImagesEEG,001,201498,
AFNE01.JPG,AFNE01.JPG,AFNE01.JPG,AFNE01.JPG,AFNE01.JPG,AFNE01.JPG,,,,,,,,,,,,,,,,,0,9,9,6,,,,,,,AMSA20.jpg,AMSA01.jpg,AMNE11.jpg,AMNE08.jpg,AMNE11.jpg,MN,1,num_2,32,num_4,1.13370254738,,,2017_Sep_20_1340,60.0086997191,MAFE4ImagesEEG,001,201498,
AFNE01.JPG,AFNE01.JPG,AFNE01.JPG,AFNE01.JPG,AFNE01.JPG,AFNE01.JPG,,,,,,,,,,,,,,,,,1,0,10,5,,,,,,,AMNE11.jpg,AMSA11.jpg,AMSA17.jpg,AMNE03.jpg,AMNE03.jpg,MN,1,num_4,32,num_6,1.00007473233,,,2017_Sep_20_1340,60.0086997191,MAFE4ImagesEEG,001,201498,
AFNE01.JPG,AFNE01.JPG,AFNE01.JPG,AFNE01.JPG,AFNE01.JPG,AFNE01.JPG,,,,,,,,,,,,,,,,,1,1,11,8,,,,,,,AMNE10.jpg,AMNE12.jpg,AMSA17.jpg,AMSA01.jpg,AMNE12.jpg,MN,1,num_6,16,num_6,0.783459715427,,,2017_Sep_20_1340,60.0086997191,MAFE4ImagesEEG,001,201498,
AFNE01.JPG,AFNE01.JPG,AFNE01.JPG,AFNE01.JPG,AFNE01.JPG,AFNE01.JPG,,,,,,,,,,,,,,,,,1,2,12,4,,,,,,,AMSA11.jpg,AMSA15.jpg,AMNE03.jpg,AMNE15.jpg,AMSA11.jpg,MS,2,num_8,32,num_2,0.933528642367,,,2017_Sep_20_1340,60.0086997191,MAFE4ImagesEEG,001,201498,
AFNE01.JPG,AFNE01.JPG,AFNE01.JPG,AFNE01.JPG,AFNE01.JPG,AFNE01.JPG,,,,,,,,,,,,,,,,,1,3,13,9,,,,,,,AMSA10.jpg,AMSA05.jpg,AMNE07.jpg,AMNE17.jpg,AMNE17.jpg,MN,1,num_4,16,num_4,1.15010164238,,,2017_Sep_20_1340,60.0086997191,MAFE4ImagesEEG,001,201498,
AFNE01.JPG,AFNE01.JPG,AFNE01.JPG,AFNE01.JPG,AFNE01.JPG,AFNE01.JPG,,,,,,,,,,,,,,,,,1,4,14,3,,,,,,,AMNE02.jpg,AMSA15.jpg,AMNE20.jpg,AMSA06.jpg,AMNE20.jpg,MN,1,num_2,16,num_2,0.983445346293,,,2017_Sep_20_1340,60.0086997191,MAFE4ImagesEEG,001,201498,
AFNE01.JPG,AFNE01.JPG,AFNE01.JPG,AFNE01.JPG,AFNE01.JPG,AFNE01.JPG,,,,,,,,,,,,,,,,,1,5,15,0,,,,,,,AMNE20.jpg,AMNE16.jpg,AMSA18.jpg,AMSA06.jpg,AMSA06.jpg,MS,2,num_4,32,num_6,1.01676056853,,,2017_Sep_20_1340,60.0086997191,MAFE4ImagesEEG,001,201498,
AFNE01.JPG,AFNE01.JPG,AFNE01.JPG,AFNE01.JPG,AFNE01.JPG,AFNE01.JPG,,,,,,,,,,,,,,,,,1,6,16,1,,,,,,,AMSA06.jpg,AMSA07.jpg,AMNE16.jpg,AMNE09.jpg,AMSA07.jpg,MS,2,num_6,16,num_6,0.833441529492,,,2017_Sep_20_1340,60.0086997191,MAFE4ImagesEEG,001,201498,
AFNE01.JPG,AFNE01.JPG,AFNE01.JPG,AFNE01.JPG,AFNE01.JPG,AFNE01.JPG,,,,,,,,,,,,,,,,,1,7,17,7,,,,,,,AMNE05.jpg,AMSA01.jpg,AMSA12.jpg,AMNE13.jpg,AMSA01.jpg,MS,2,num_6,32,num_2,1.28344015031,,,2017_Sep_20_1340,60.0086997191,MAFE4ImagesEEG,001,201498,
AFNE01.JPG,AFNE01.JPG,AFNE01.JPG,AFNE01.JPG,AFNE01.JPG,AFNE01.JPG,,,,,,,,,,,,,,,,,1,8,18,6,,,,,,,AMSA17.jpg,AMNE05.jpg,AMNE08.jpg,AMSA07.jpg,AMNE05.jpg,MN,1,num_6,32,num_4,0.966748284203,,,2017_Sep_20_1340,60.0086997191,MAFE4ImagesEEG,001,201498,
AFNE01.JPG,AFNE01.JPG,AFNE01.JPG,AFNE01.JPG,AFNE01.JPG,AFNE01.JPG,,,,,,,,,,,,,,,,,1,9,19,2,,,,,,,AMSA20.jpg,AMSA06.jpg,AMNE19.jpg,AMNE20.jpg,AMNE19.jpg,MN,1,num_2,16,num_2,0.883442267193,,,2017_Sep_20_1340,60.0086997191,MAFE4ImagesEEG,001,201498,
AFNE01.JPG,AFNE01.JPG,AFNE01.JPG,AFNE01.JPG,AFNE01.JPG,AFNE01.JPG,,,,,,,,,,,,,,,,,2,0,20,8,,,,,,,AMSA03.jpg,AMNE02.jpg,AMNE10.jpg,AMSA12.jpg,AMNE10.jpg,MN,1,num_2,32,num_8,2.00003816801,,,2017_Sep_20_1340,60.0086997191,MAFE4ImagesEEG,001,201498,
AFNE01.JPG,AFNE01.JPG,AFNE01.JPG,AFNE01.JPG,AFNE01.JPG,AFNE01.JPG,,,,,,,,,,,,,,,,,2,1,21,4,,,,,,,AMSA02.jpg,AMSA12.jpg,AMNE15.jpg,AMNE08.jpg,AMNE08.jpg,MN,1,num_4,32,num_6,0.900125858218,,,2017_Sep_20_1340,60.0086997191,MAFE4ImagesEEG,001,201498,
AFNE01.JPG,AFNE01.JPG,AFNE01.JPG,AFNE01.JPG,AFNE01.JPG,AFNE01.JPG,,,,,,,,,,,,,,,,,2,2,22,5,,,,,,,AMNE13.jpg,AMSA20.jpg,AMNE19.jpg,AMSA14.jpg,AMSA14.jpg,MS,2,num_4,16,num_4,0.58347536752,,,2017_Sep_20_1340,60.0086997191,MAFE4ImagesEEG,001,201498,
AFNE01.JPG,AFNE01.JPG,AFNE01.JPG,AFNE01.JPG,AFNE01.JPG,AFNE01.JPG,,,,,,,,,,,,,,,,,2,3,23,7,,,,,,,AMNE15.jpg,AMNE10.jpg,AMSA03.jpg,AMSA05.jpg,AMSA05.jpg,MS,2,num_4,32,num_6,1.18345342893,,,2017_Sep_20_1340,60.0086997191,MAFE4ImagesEEG,001,201498,
AFNE01.JPG,AFNE01.JPG,AFNE01.JPG,AFNE01.JPG,AFNE01.JPG,AFNE01.JPG,,,,,,,,,,,,,,,,,2,4,24,0,,,,,,,AMSA16.jpg,AMSA01.jpg,AMNE19.jpg,AMNE20.jpg,AMSA16.jpg,MS,2,num_8,16,num_8,0.949963660203,,,2017_Sep_20_1340,60.0086997191,MAFE4ImagesEEG,001,201498,
AFNE01.JPG,AFNE01.JPG,AFNE01.JPG,AFNE01.JPG,AFNE01.JPG,AFNE01.JPG,,,,,,,,,,,,,,,,,2,5,25,2,,,,,,,AMSA05.jpg,AMSA02.jpg,AMNE12.jpg,AMNE09.jpg,AMSA05.jpg,MS,2,num_8,32,num_4,0.833471358274,,,2017_Sep_20_1340,60.0086997191,MAFE4ImagesEEG,001,201498,
AFNE01.JPG,AFNE01.JPG,AFNE01.JPG,AFNE01.JPG,AFNE01.JPG,AFNE01.JPG,,,,,,,,,,,,,,,,,2,6,26,1,,,,,,,AMSA18.jpg,AMNE19.jpg,AMNE10.jpg,AMSA17.jpg,AMSA18.jpg,MS,2,num_8,16,num_8,1.11662765404,,,2017_Sep_20_1340,60.0086997191,MAFE4ImagesEEG,001,201498,
AFNE01.JPG,AFNE01.JPG,AFNE01.JPG,AFNE01.JPG,AFNE01.JPG,AFNE01.JPG,,,,,,,,,,,,,,,,,2,7,27,3,,,,,,,AMSA18.jpg,AMNE09.jpg,AMSA12.jpg,AMNE10.jpg,AMSA12.jpg,MS,2,num_2,32,num_6,1.05008862035,,,2017_Sep_20_1340,60.0086997191,MAFE4ImagesEEG,001,201498,
AFNE01.JPG,AFNE01.JPG,AFNE01.JPG,AFNE01.JPG,AFNE01.JPG,AFNE01.JPG,,,,,,,,,,,,,,,,,2,8,28,9,,,,,,,AMSA03.jpg,AMNE03.jpg,AMSA20.jpg,AMNE10.jpg,AMSA20.jpg,MS,2,num_2,32,num_4,1.35006001038,,,2017_Sep_20_1340,60.0086997191,MAFE4ImagesEEG,001,201498,
AFNE01.JPG,AFNE01.JPG,AFNE01.JPG,AFNE01.JPG,AFNE01.JPG,AFNE01.JPG,,,,,,,,,,,,,,,,,2,9,29,6,,,,,,,AMNE09.jpg,AMSA12.jpg,AMSA17.jpg,AMNE01.jpg,AMSA12.jpg,MS,2,num_6,16,num_6,0.816815671594,,,2017_Sep_20_1340,60.0086997191,MAFE4ImagesEEG,001,201498,
AFNE01.JPG,AFNE01.JPG,AFNE01.JPG,AFNE01.JPG,AFNE01.JPG,AFNE01.JPG,,,,,,,,,,,,,,,,,3,0,30,3,,,,,,,AMNE18.jpg,AMSA10.jpg,AMNE04.jpg,AMSA13.jpg,AMSA10.jpg,MS,2,num_6,32,num_4,1.25006591199,,,2017_Sep_20_1340,60.0086997191,MAFE4ImagesEEG,001,201498,
AFNE01.JPG,AFNE01.JPG,AFNE01.JPG,AFNE01.JPG,AFNE01.JPG,AFNE01.JPG,,,,,,,,,,,,,,,,,3,1,31,9,,,,,,,AMSA02.jpg,AMSA07.jpg,AMNE10.jpg,AMNE08.jpg,AMSA02.jpg,MS,2,num_8,32,num_2,1.10010539503,,,2017_Sep_20_1340,60.0086997191,MAFE4ImagesEEG,001,201498,
AFNE01.JPG,AFNE01.JPG,AFNE01.JPG,AFNE01.JPG,AFNE01.JPG,AFNE01.JPG,,,,,,,,,,,,,,,,,3,2,32,4,,,,,,,AMNE17.jpg,AMSA19.jpg,AMSA14.jpg,AMNE05.jpg,AMNE05.jpg,MN,1,num_4,32,num_2,1.00018346305,,,2017_Sep_20_1340,60.0086997191,MAFE4ImagesEEG,001,201498,
AFNE01.JPG,AFNE01.JPG,AFNE01.JPG,AFNE01.JPG,AFNE01.JPG,AFNE01.JPG,,,,,,,,,,,,,,,,,3,3,33,8,,,,,,,AMNE13.jpg,AMSA16.jpg,AMNE09.jpg,AMSA12.jpg,AMSA12.jpg,MS,2,num_4,32,num_6,1.46670979545,,,2017_Sep_20_1340,60.0086997191,MAFE4ImagesEEG,001,201498,
AFNE01.JPG,AFNE01.JPG,AFNE01.JPG,AFNE01.JPG,AFNE01.JPG,AFNE01.JPG,,,,,,,,,,,,,,,,,3,4,34,0,,,,,,,AMNE10.jpg,AMSA03.jpg,AMSA17.jpg,AMNE04.jpg,AMNE04.jpg,MN,1,num_4,32,num_8,1.28342892443,,,2017_Sep_20_1340,60.0086997191,MAFE4ImagesEEG,001,201498,
AFNE01.JPG,AFNE01.JPG,AFNE01.JPG,AFNE01.JPG,AFNE01.JPG,AFNE01.JPG,,,,,,,,,,,,,,,,,3,5,35,1,,,,,,,AMNE08.jpg,AMSA05.jpg,AMNE18.jpg,AMSA07.jpg,AMSA07.jpg,MS,2,num_4,16,num_4,0.76675206893,,,2017_Sep_20_1340,60.0086997191,MAFE4ImagesEEG,001,201498,
AFNE01.JPG,AFNE01.JPG,AFNE01.JPG,AFNE01.JPG,AFNE01.JPG,AFNE01.JPG,,,,,,,,,,,,,,,,,3,6,36,6,,,,,,,AMSA18.jpg,AMNE08.jpg,AMSA11.jpg,AMNE01.jpg,AMNE08.jpg,MN,1,num_6,16,num_6,0.967068703063,,,2017_Sep_20_1340,60.0086997191,MAFE4ImagesEEG,001,201498,
AFNE01.JPG,AFNE01.JPG,AFNE01.JPG,AFNE01.JPG,AFNE01.JPG,AFNE01.JPG,,,,,,,,,,,,,,,,,3,7,37,2,,,,,,,AMNE06.jpg,AMSA18.jpg,AMNE20.jpg,AMSA13.jpg,AMNE20.jpg,MN,1,num_2,32,num_8,1.58342597362,,,2017_Sep_20_1340,60.0086997191,MAFE4ImagesEEG,001,201498,
AFNE01.JPG,AFNE01.JPG,AFNE01.JPG,AFNE01.JPG,AFNE01.JPG,AFNE01.JPG,,,,,,,,,,,,,,,,,3,8,38,5,,,,,,,AMNE15.jpg,AMSA02.jpg,AMSA04.jpg,AMNE12.jpg,AMNE12.jpg,MN,1,num_4,32,num_8,2.54996353191,,,2017_Sep_20_1340,60.0086997191,MAFE4ImagesEEG,001,201498,
AFNE01.JPG,AFNE01.JPG,AFNE01.JPG,AFNE01.JPG,AFNE01.JPG,AFNE01.JPG,,,,,,,,,,,,,,,,,3,9,39,7,,,,,,,AMSA16.jpg,AMNE13.jpg,AMNE14.jpg,AMSA01.jpg,AMNE14.jpg,MN,1,num_2,16,num_2,0.933148565941,,,2017_Sep_20_1340,60.0086997191,MAFE4ImagesEEG,001,201498,
AFNE01.JPG,AFNE01.JPG,AFNE01.JPG,AFNE01.JPG,AFNE01.JPG,AFNE01.JPG,,,,,,,,,,,,,,,,,4,0,40,0,,,,,,,AMNE17.jpg,AMSA11.jpg,AMSA05.jpg,AMNE12.jpg,AMNE17.jpg,MN,1,num_8,16,num_8,1.25010151408,,,2017_Sep_20_1340,60.0086997191,MAFE4ImagesEEG,001,201498,
AFNE01.JPG,AFNE01.JPG,AFNE01.JPG,AFNE01.JPG,AFNE01.JPG,AFNE01.JPG,,,,,,,,,,,,,,,,,4,1,41,6,,,,,,,AMNE04.jpg,AMNE19.jpg,AMSA02.jpg,AMSA18.jpg,AMNE04.jpg,MN,1,num_8,32,num_6,1.28345201768,,,2017_Sep_20_1340,60.0086997191,MAFE4ImagesEEG,001,201498,
AFNE01.JPG,AFNE01.JPG,AFNE01.JPG,AFNE01.JPG,AFNE01.JPG,AFNE01.JPG,,,,,,,,,,,,,,,,,4,2,42,7,,,,,,,AMSA04.jpg,AMNE02.jpg,AMNE20.jpg,AMSA17.jpg,AMSA17.jpg,MS,2,num_4,32,num_2,0.883468567839,,,2017_Sep_20_1340,60.0086997191,MAFE4ImagesEEG,001,201498,
AFNE01.JPG,AFNE01.JPG,AFNE01.JPG,AFNE01.JPG,AFNE01.JPG,AFNE01.JPG,,,,,,,,,,,,,,,,,4,3,43,8,,,,,,,AMNE14.jpg,AMSA16.jpg,AMSA11.jpg,AMNE19.jpg,AMSA11.jpg,MS,2,num_2,32,num_6,0.916743056147,,,2017_Sep_20_1340,60.0086997191,MAFE4ImagesEEG,001,201498,
AFNE01.JPG,AFNE01.JPG,AFNE01.JPG,AFNE01.JPG,AFNE01.JPG,AFNE01.JPG,,,,,,,,,,,,,,,,,4,4,44,9,,,,,,,AMNE16.jpg,AMSA18.jpg,AMNE10.jpg,AMSA02.jpg,AMSA18.jpg,MS,2,num_6,16,num_6,0.833445378367,,,2017_Sep_20_1340,60.0086997191,MAFE4ImagesEEG,001,201498,
AFNE01.JPG,AFNE01.JPG,AFNE01.JPG,AFNE01.JPG,AFNE01.JPG,AFNE01.JPG,,,,,,,,,,,,,,,,,4,5,45,2,,,,,,,AMSA04.jpg,AMNE19.jpg,AMSA17.jpg,AMNE11.jpg,AMSA04.jpg,MS,2,num_8,32,num_4,1.16683655174,,,2017_Sep_20_1340,60.0086997191,MAFE4ImagesEEG,001,201498,
AFNE01.JPG,AFNE01.JPG,AFNE01.JPG,AFNE01.JPG,AFNE01.JPG,AFNE01.JPG,,,,,,,,,,,,,,,,,4,6,46,1,,,,,,,AMNE17.jpg,AMSA07.jpg,AMNE05.jpg,AMSA11.jpg,AMSA11.jpg,MS,2,num_4,16,num_4,0.866644172129,,,2017_Sep_20_1340,60.0086997191,MAFE4ImagesEEG,001,201498,
AFNE01.JPG,AFNE01.JPG,AFNE01.JPG,AFNE01.JPG,AFNE01.JPG,AFNE01.JPG,,,,,,,,,,,,,,,,,4,7,47,3,,,,,,,AMNE15.jpg,AMNE10.jpg,AMSA08.jpg,AMSA16.jpg,AMNE15.jpg,MN,1,num_8,32,num_6,0.800106742139,,,2017_Sep_20_1340,60.0086997191,MAFE4ImagesEEG,001,201498,
AFNE01.JPG,AFNE01.JPG,AFNE01.JPG,AFNE01.JPG,AFNE01.JPG,AFNE01.JPG,,,,,,,,,,,,,,,,,4,8,48,4,,,,,,,AMNE02.jpg,AMNE16.jpg,AMSA05.jpg,AMSA04.jpg,AMNE16.jpg,MN,1,num_6,32,num_2,1.63344788014,,,2017_Sep_20_1340,60.0086997191,MAFE4ImagesEEG,001,201498,
AFNE01.JPG,AFNE01.JPG,AFNE01.JPG,AFNE01.JPG,AFNE01.JPG,AFNE01.JPG,,,,,,,,,,,,,,,,,4,9,49,5,,,,,,,AMNE12.jpg,AMSA15.jpg,AMNE05.jpg,AMSA16.jpg,AMNE05.jpg,MN,1,num_2,16,num_2,1.40008255837,,,2017_Sep_20_1340,60.0086997191,MAFE4ImagesEEG,001,201498,
AFNE01.JPG,AFNE01.JPG,AFNE01.JPG,AFNE01.JPG,AFNE01.JPG,AFNE01.JPG,,,,,,,,,,,,,,,,,5,0,50,5,,,,,,,AMNE16.jpg,AMSA11.jpg,AMSA02.jpg,AMNE12.jpg,AMSA11.jpg,MS,2,num_6,16,num_6,1.63341580618,,,2017_Sep_20_1340,60.0086997191,MAFE4ImagesEEG,001,201498,
AFNE01.JPG,AFNE01.JPG,AFNE01.JPG,AFNE01.JPG,AFNE01.JPG,AFNE01.JPG,,,,,,,,,,,,,,,,,5,1,51,0,,,,,,,AMSA08.jpg,AMNE04.jpg,AMSA18.jpg,AMNE19.jpg,AMSA18.jpg,MS,2,num_2,16,num_2,0.966774905591,,,2017_Sep_20_1340,60.0086997191,MAFE4ImagesEEG,001,201498,
AFNE01.JPG,AFNE01.JPG,AFNE01.JPG,AFNE01.JPG,AFNE01.JPG,AFNE01.JPG,,,,,,,,,,,,,,,,,5,2,52,8,,,,,,,AMNE03.jpg,AMNE10.jpg,AMSA15.jpg,AMSA08.jpg,AMSA15.jpg,MS,2,num_2,16,num_2,1.23339130167,,,2017_Sep_20_1340,60.0086997191,MAFE4ImagesEEG,001,201498,
AFNE01.JPG,AFNE01.JPG,AFNE01.JPG,AFNE01.JPG,AFNE01.JPG,AFNE01.JPG,,,,,,,,,,,,,,,,,5,3,53,2,,,,,,,AMNE12.jpg,AMSA02.jpg,AMNE15.jpg,AMSA07.jpg,AMSA02.jpg,MS,2,num_6,16,num_6,0.783463243562,,,2017_Sep_20_1340,60.0086997191,MAFE4ImagesEEG,001,201498,
AFNE01.JPG,AFNE01.JPG,AFNE01.JPG,AFNE01.JPG,AFNE01.JPG,AFNE01.JPG,,,,,,,,,,,,,,,,,5,4,54,1,,,,,,,AMNE04.jpg,AMSA09.jpg,AMSA18.jpg,AMNE02.jpg,AMSA09.jpg,MS,2,num_6,32,num_8,1.23341599862,,,2017_Sep_20_1340,60.0086997191,MAFE4ImagesEEG,001,201498,
AFNE01.JPG,AFNE01.JPG,AFNE01.JPG,AFNE01.JPG,AFNE01.JPG,AFNE01.JPG,,,,,,,,,,,,,,,,,5,5,55,9,,,,,,,AMSA03.jpg,AMSA15.jpg,AMNE12.jpg,AMNE01.jpg,AMSA15.jpg,MS,2,num_6,16,num_6,0.766754314109,,,2017_Sep_20_1340,60.0086997191,MAFE4ImagesEEG,001,201498,
AFNE01.JPG,AFNE01.JPG,AFNE01.JPG,AFNE01.JPG,AFNE01.JPG,AFNE01.JPG,,,,,,,,,,,,,,,,,5,6,56,7,,,,,,,AMNE01.jpg,AMNE18.jpg,AMSA10.jpg,AMSA11.jpg,AMSA11.jpg,MS,2,num_4,32,num_8,1.75010023112,,,2017_Sep_20_1340,60.0086997191,MAFE4ImagesEEG,001,201498,
AFNE01.JPG,AFNE01.JPG,AFNE01.JPG,AFNE01.JPG,AFNE01.JPG,AFNE01.JPG,,,,,,,,,,,,,,,,,5,7,57,3,,,,,,,AMNE02.jpg,AMNE20.jpg,AMSA08.jpg,AMSA17.jpg,AMSA17.jpg,MS,2,num_4,32,num_6,0.733465713258,,,2017_Sep_20_1340,60.0086997191,MAFE4ImagesEEG,001,201498,
AFNE01.JPG,AFNE01.JPG,AFNE01.JPG,AFNE01.JPG,AFNE01.JPG,AFNE01.JPG,,,,,,,,,,,,,,,,,5,8,58,6,,,,,,,AMNE04.jpg,AMSA07.jpg,AMNE08.jpg,AMSA17.jpg,AMNE08.jpg,MN,1,num_2,16,num_2,1.05011460026,,,2017_Sep_20_1340,60.0086997191,MAFE4ImagesEEG,001,201498,
AFNE01.JPG,AFNE01.JPG,AFNE01.JPG,AFNE01.JPG,AFNE01.JPG,AFNE01.JPG,,,,,,,,,,,,,,,,,5,9,59,4,,,,,,,AMNE04.jpg,AMSA07.jpg,AMSA04.jpg,AMNE12.jpg,AMSA07.jpg,MS,2,num_6,16,num_6,0.78348184646,,,2017_Sep_20_1340,60.0086997191,MAFE4ImagesEEG,001,201498,
,,,,,,,,,,,,,,,,,,,,,,,,,,,,,,,,,,,,,,,,,,,space,3.26658592582,2017_Sep_20_1340,60.0086997191,MAFE4ImagesEEG,001,201498,
AFNE01.JPG,AFNE01.JPG,AFNE01.JPG,AFNE01.JPG,AFNE01.JPG,AFNE01.JPG,,,,,,,,,,,,,,,,,,,,,0,0,0,1,,,AFNE13.jpg,AFSA17.jpg,AFNE15.jpg,AFSA18.jpg,AFNE13.jpg,FN,3,num_8,32,num_4,0.833208351803,,,2017_Sep_20_1340,60.0086997191,MAFE4ImagesEEG,001,201498,
AFNE01.JPG,AFNE01.JPG,AFNE01.JPG,AFNE01.JPG,AFNE01.JPG,AFNE01.JPG,,,,,,,,,,,,,,,,,,,,,0,1,1,9,,,AFNE19.jpg,AFSA19.jpg,AFNE13.jpg,AFSA02.jpg,AFSA02.jpg,FS,4,num_4,32,num_6,2.39997767652,,,2017_Sep_20_1340,60.0086997191,MAFE4ImagesEEG,001,201498,
AFNE01.JPG,AFNE01.JPG,AFNE01.JPG,AFNE01.JPG,AFNE01.JPG,AFNE01.JPG,,,,,,,,,,,,,,,,,,,,,0,2,2,8,,,AFNE17.jpg,AFNE09.jpg,AFSA13.jpg,AFSA02.jpg,AFSA02.jpg,FS,4,num_4,32,num_6,0.866800051575,,,2017_Sep_20_1340,60.0086997191,MAFE4ImagesEEG,001,201498,
AFNE01.JPG,AFNE01.JPG,AFNE01.JPG,AFNE01.JPG,AFNE01.JPG,AFNE01.JPG,,,,,,,,,,,,,,,,,,,,,0,3,3,0,,,AFNE14.jpg,AFNE05.jpg,AFSA14.jpg,AFSA08.jpg,AFSA08.jpg,FS,4,num_4,16,num_4,1.68341622314,,,2017_Sep_20_1340,60.0086997191,MAFE4ImagesEEG,001,201498,
AFNE01.JPG,AFNE01.JPG,AFNE01.JPG,AFNE01.JPG,AFNE01.JPG,AFNE01.JPG,,,,,,,,,,,,,,,,,,,,,0,4,4,3,,,AFNE15.jpg,AFNE14.jpg,AFSA20.jpg,AFSA08.jpg,AFSA20.jpg,FS,4,num_2,32,num_6,1.35009432952,,,2017_Sep_20_1340,60.0086997191,MAFE4ImagesEEG,001,201498,
AFNE01.JPG,AFNE01.JPG,AFNE01.JPG,AFNE01.JPG,AFNE01.JPG,AFNE01.JPG,,,,,,,,,,,,,,,,,,,,,0,5,5,4,,,AFNE06.jpg,AFSA12.jpg,AFSA17.jpg,AFNE20.jpg,AFNE06.jpg,FN,3,num_8,16,num_8,0.916840240247,,,2017_Sep_20_1340,60.0086997191,MAFE4ImagesEEG,001,201498,
AFNE01.JPG,AFNE01.JPG,AFNE01.JPG,AFNE01.JPG,AFNE01.JPG,AFNE01.JPG,,,,,,,,,,,,,,,,,,,,,0,6,6,2,,,AFSA19.jpg,AFSA16.jpg,AFNE11.jpg,AFNE10.jpg,AFSA16.jpg,FS,4,num_6,32,num_2,0.900138687803,,,2017_Sep_20_1340,60.0086997191,MAFE4ImagesEEG,001,201498,
AFNE01.JPG,AFNE01.JPG,AFNE01.JPG,AFNE01.JPG,AFNE01.JPG,AFNE01.JPG,,,,,,,,,,,,,,,,,,,,,0,7,7,7,,,AFNE14.jpg,AFSA14.jpg,AFSA17.jpg,AFNE16.jpg,AFSA14.jpg,FS,4,num_6,16,num_6,0.866750978415,,,2017_Sep_20_1340,60.0086997191,MAFE4ImagesEEG,001,201498,
AFNE01.JPG,AFNE01.JPG,AFNE01.JPG,AFNE01.JPG,AFNE01.JPG,AFNE01.JPG,,,,,,,,,,,,,,,,,,,,,0,8,8,6,,,AFSA12.jpg,AFSA03.jpg,AFNE16.jpg,AFNE12.jpg,AFSA03.jpg,FS,4,num_6,16,num_6,1.01678173734,,,2017_Sep_20_1340,60.0086997191,MAFE4ImagesEEG,001,201498,
AFNE01.JPG,AFNE01.JPG,AFNE01.JPG,AFNE01.JPG,AFNE01.JPG,AFNE01.JPG,,,,,,,,,,,,,,,,,,,,,0,9,9,5,,,AFSA17.jpg,AFNE13.jpg,AFSA14.jpg,AFNE07.jpg,AFSA14.jpg,FS,4,num_2,16,num_2,0.700196677522,,,2017_Sep_20_1340,60.0086997191,MAFE4ImagesEEG,001,201498,
AFNE01.JPG,AFNE01.JPG,AFNE01.JPG,AFNE01.JPG,AFNE01.JPG,AFNE01.JPG,,,,,,,,,,,,,,,,,,,,,1,0,10,1,,,AFSA18.jpg,AFNE02.jpg,AFSA20.jpg,AFNE01.jpg,AFNE02.jpg,FN,3,num_6,32,num_4,1.4666680993,,,2017_Sep_20_1340,60.0086997191,MAFE4ImagesEEG,001,201498,
AFNE01.JPG,AFNE01.JPG,AFNE01.JPG,AFNE01.JPG,AFNE01.JPG,AFNE01.JPG,,,,,,,,,,,,,,,,,,,,,1,1,11,4,,,AFSA07.jpg,AFNE11.jpg,AFSA10.jpg,AFNE19.jpg,AFSA07.jpg,FS,4,num_8,16,num_8,1.40004342814,,,2017_Sep_20_1340,60.0086997191,MAFE4ImagesEEG,001,201498,
AFNE01.JPG,AFNE01.JPG,AFNE01.JPG,AFNE01.JPG,AFNE01.JPG,AFNE01.JPG,,,,,,,,,,,,,,,,,,,,,1,2,12,7,,,AFNE08.jpg,AFSA02.jpg,AFSA07.jpg,AFNE10.jpg,AFNE10.jpg,FN,3,num_4,16,num_4,1.05007707373,,,2017_Sep_20_1340,60.0086997191,MAFE4ImagesEEG,001,201498,
AFNE01.JPG,AFNE01.JPG,AFNE01.JPG,AFNE01.JPG,AFNE01.JPG,AFNE01.JPG,,,,,,,,,,,,,,,,,,,,,1,3,13,0,,,AFNE10.jpg,AFNE11.jpg,AFSA20.jpg,AFSA19.jpg,AFNE11.jpg,FN,3,num_6,32,num_2,0.983719899391,,,2017_Sep_20_1340,60.0086997191,MAFE4ImagesEEG,001,201498,
AFNE01.JPG,AFNE01.JPG,AFNE01.JPG,AFNE01.JPG,AFNE01.JPG,AFNE01.JPG,,,,,,,,,,,,,,,,,,,,,1,4,14,2,,,AFNE05.jpg,AFSA06.jpg,AFSA14.jpg,AFNE20.jpg,AFNE05.jpg,FN,3,num_8,32,num_4,2.03348008239,,,2017_Sep_20_1340,60.0086997191,MAFE4ImagesEEG,001,201498,
AFNE01.JPG,AFNE01.JPG,AFNE01.JPG,AFNE01.JPG,AFNE01.JPG,AFNE01.JPG,,,,,,,,,,,,,,,,,,,,,1,5,15,8,,,AFSA10.jpg,AFNE04.jpg,AFSA20.jpg,AFNE08.jpg,AFSA10.jpg,FS,4,num_8,32,num_4,1.00009429744,,,2017_Sep_20_1340,60.0086997191,MAFE4ImagesEEG,001,201498,
AFNE01.JPG,AFNE01.JPG,AFNE01.JPG,AFNE01.JPG,AFNE01.JPG,AFNE01.JPG,,,,,,,,,,,,,,,,,,,,,1,6,16,5,,,AFSA08.jpg,AFSA09.jpg,AFNE04.jpg,AFNE07.jpg,AFSA08.jpg,FS,4,num_8,32,num_2,1.15019241169,,,2017_Sep_20_1340,60.0086997191,MAFE4ImagesEEG,001,201498,
AFNE01.JPG,AFNE01.JPG,AFNE01.JPG,AFNE01.JPG,AFNE01.JPG,AFNE01.JPG,,,,,,,,,,,,,,,,,,,,,1,7,17,9,,,AFNE09.jpg,AFSA16.jpg,AFSA18.jpg,AFNE12.jpg,AFNE12.jpg,FN,3,num_4,16,num_4,0.600146770441,,,2017_Sep_20_1340,60.0086997191,MAFE4ImagesEEG,001,201498,
AFNE01.JPG,AFNE01.JPG,AFNE01.JPG,AFNE01.JPG,AFNE01.JPG,AFNE01.JPG,,,,,,,,,,,,,,,,,,,,,1,8,18,6,,,AFNE20.jpg,AFSA10.jpg,AFNE09.jpg,AFSA04.jpg,AFNE20.jpg,FN,3,num_8,32,num_6,0.883430399827,,,2017_Sep_20_1340,60.0086997191,MAFE4ImagesEEG,001,201498,
AFNE01.JPG,AFNE01.JPG,AFNE01.JPG,AFNE01.JPG,AFNE01.JPG,AFNE01.JPG,,,,,,,,,,,,,,,,,,,,,1,9,19,3,,,AFNE16.jpg,AFNE08.jpg,AFSA04.jpg,AFSA16.jpg,AFNE16.jpg,FN,3,num_8,32,num_2,0.966860543063,,,2017_Sep_20_1340,60.0086997191,MAFE4ImagesEEG,001,201498,
AFNE01.JPG,AFNE01.JPG,AFNE01.JPG,AFNE01.JPG,AFNE01.JPG,AFNE01.JPG,,,,,,,,,,,,,,,,,,,,,2,0,20,3,,,AFSA14.jpg,AFNE16.jpg,AFSA04.jpg,AFNE02.jpg,AFSA04.jpg,FS,4,num_2,16,num_2,1.48339338648,,,2017_Sep_20_1340,60.0086997191,MAFE4ImagesEEG,001,201498,
AFNE01.JPG,AFNE01.JPG,AFNE01.JPG,AFNE01.JPG,AFNE01.JPG,AFNE01.JPG,,,,,,,,,,,,,,,,,,,,,2,1,21,0,,,AFNE17.jpg,AFNE07.jpg,AFSA02.jpg,AFSA14.jpg,AFNE17.jpg,FN,3,num_8,32,num_6,1.0334104819,,,2017_Sep_20_1340,60.0086997191,MAFE4ImagesEEG,001,201498,
AFNE01.JPG,AFNE01.JPG,AFNE01.JPG,AFNE01.JPG,AFNE01.JPG,AFNE01.JPG,,,,,,,,,,,,,,,,,,,,,2,2,22,5,,,AFSA19.jpg,AFNE13.jpg,AFSA09.jpg,AFNE20.jpg,AFNE13.jpg,FN,3,num_6,32,num_4,0.850162005572,,,2017_Sep_20_1340,60.0086997191,MAFE4ImagesEEG,001,201498,
AFNE01.JPG,AFNE01.JPG,AFNE01.JPG,AFNE01.JPG,AFNE01.JPG,AFNE01.JPG,,,,,,,,,,,,,,,,,,,,,2,3,23,4,,,AFSA04.jpg,AFSA08.jpg,AFNE10.jpg,AFNE11.jpg,AFSA08.jpg,FS,4,num_6,32,num_8,1.51664317784,,,2017_Sep_20_1340,60.0086997191,MAFE4ImagesEEG,001,201498,
AFNE01.JPG,AFNE01.JPG,AFNE01.JPG,AFNE01.JPG,AFNE01.JPG,AFNE01.JPG,,,,,,,,,,,,,,,,,,,,,2,4,24,2,,,AFNE03.jpg,AFSA08.jpg,AFSA11.jpg,AFNE16.jpg,AFNE16.jpg,FN,3,num_4,16,num_4,2.23366489255,,,2017_Sep_20_1340,60.0086997191,MAFE4ImagesEEG,001,201498,
AFNE01.JPG,AFNE01.JPG,AFNE01.JPG,AFNE01.JPG,AFNE01.JPG,AFNE01.JPG,,,,,,,,,,,,,,,,,,,,,2,5,25,6,,,AFSA12.jpg,AFSA17.jpg,AFNE19.jpg,AFNE08.jpg,AFSA17.jpg,FS,4,num_6,16,num_6,1.05013159946,,,2017_Sep_20_1340,60.0086997191,MAFE4ImagesEEG,001,201498,
AFNE01.JPG,AFNE01.JPG,AFNE01.JPG,AFNE01.JPG,AFNE01.JPG,AFNE01.JPG,,,,,,,,,,,,,,,,,,,,,2,6,26,7,,,AFNE14.jpg,AFNE12.jpg,AFSA07.jpg,AFSA12.jpg,AFNE12.jpg,FN,3,num_6,32,num_2,1.01690650505,,,2017_Sep_20_1340,60.0086997191,MAFE4ImagesEEG,001,201498,
AFNE01.JPG,AFNE01.JPG,AFNE01.JPG,AFNE01.JPG,AFNE01.JPG,AFNE01.JPG,,,,,,,,,,,,,,,,,,,,,2,7,27,9,,,AFSA01.jpg,AFNE17.jpg,AFSA06.jpg,AFNE03.jpg,AFNE17.jpg,FN,3,num_6,32,num_4,1.68347331479,,,2017_Sep_20_1340,60.0086997191,MAFE4ImagesEEG,001,201498,
AFNE01.JPG,AFNE01.JPG,AFNE01.JPG,AFNE01.JPG,AFNE01.JPG,AFNE01.JPG,,,,,,,,,,,,,,,,,,,,,2,8,28,8,,,AFNE20.jpg,AFNE05.jpg,AFSA16.jpg,AFSA14.jpg,AFNE05.jpg,FN,3,num_6,16,num_6,0.783436942916,,,2017_Sep_20_1340,60.0086997191,MAFE4ImagesEEG,001,201498,
AFNE01.JPG,AFNE01.JPG,AFNE01.JPG,AFNE01.JPG,AFNE01.JPG,AFNE01.JPG,,,,,,,,,,,,,,,,,,,,,2,9,29,1,,,AFSA05.jpg,AFNE17.jpg,AFSA18.jpg,AFNE16.jpg,AFSA05.jpg,FS,4,num_8,16,num_8,0.866730451082,,,2017_Sep_20_1340,60.0086997191,MAFE4ImagesEEG,001,201498,
AFNE01.JPG,AFNE01.JPG,AFNE01.JPG,AFNE01.JPG,AFNE01.JPG,AFNE01.JPG,,,,,,,,,,,,,,,,,,,,,3,0,30,9,,,AFSA12.jpg,AFNE09.jpg,AFNE16.jpg,AFSA19.jpg,AFSA19.jpg,FS,4,num_4,16,num_4,0.900121367865,,,2017_Sep_20_1340,60.0086997191,MAFE4ImagesEEG,001,201498,
AFNE01.JPG,AFNE01.JPG,AFNE01.JPG,AFNE01.JPG,AFNE01.JPG,AFNE01.JPG,,,,,,,,,,,,,,,,,,,,,3,1,31,3,,,AFSA13.jpg,AFNE05.jpg,AFSA20.jpg,AFNE20.jpg,AFSA20.jpg,FS,4,num_2,16,num_2,0.900098916092,,,2017_Sep_20_1340,60.0086997191,MAFE4ImagesEEG,001,201498,
AFNE01.JPG,AFNE01.JPG,AFNE01.JPG,AFNE01.JPG,AFNE01.JPG,AFNE01.JPG,,,,,,,,,,,,,,,,,,,,,3,2,32,0,,,AFSA05.jpg,AFSA17.jpg,AFNE12.jpg,AFNE06.jpg,AFSA17.jpg,FS,4,num_6,32,num_8,0.933449098946,,,2017_Sep_20_1340,60.0086997191,MAFE4ImagesEEG,001,201498,
AFNE01.JPG,AFNE01.JPG,AFNE01.JPG,AFNE01.JPG,AFNE01.JPG,AFNE01.JPG,,,,,,,,,,,,,,,,,,,,,3,3,33,7,,,AFSA12.jpg,AFNE12.jpg,AFSA01.jpg,AFNE17.jpg,AFNE12.jpg,FN,3,num_6,16,num_6,0.700178395365,,,2017_Sep_20_1340,60.0086997191,MAFE4ImagesEEG,001,201498,
AFNE01.JPG,AFNE01.JPG,AFNE01.JPG,AFNE01.JPG,AFNE01.JPG,AFNE01.JPG,,,,,,,,,,,,,,,,,,,,,3,4,34,5,,,AFNE05.jpg,AFSA01.jpg,AFSA10.jpg,AFNE19.jpg,AFNE05.jpg,FN,3,num_8,16,num_8,1.55009118627,,,2017_Sep_20_1340,60.0086997191,MAFE4ImagesEEG,001,201498,
AFNE01.JPG,AFNE01.JPG,AFNE01.JPG,AFNE01.JPG,AFNE01.JPG,AFNE01.JPG,,,,,,,,,,,,,,,,,,,,,3,5,35,8,,,AFNE09.jpg,AFSA13.jpg,AFNE15.jpg,AFSA09.jpg,AFSA09.jpg,FS,4,num_4,16,num_4,1.03347110168,,,2017_Sep_20_1340,60.0086997191,MAFE4ImagesEEG,001,201498,
AFNE01.JPG,AFNE01.JPG,AFNE01.JPG,AFNE01.JPG,AFNE01.JPG,AFNE01.JPG,,,,,,,,,,,,,,,,,,,,,3,6,36,1,,,AFNE12.jpg,AFSA06.jpg,AFNE15.jpg,AFSA02.jpg,AFSA06.jpg,FS,4,num_6,16,num_6,1.33343319026,,,2017_Sep_20_1340,60.0086997191,MAFE4ImagesEEG,001,201498,
AFNE01.JPG,AFNE01.JPG,AFNE01.JPG,AFNE01.JPG,AFNE01.JPG,AFNE01.JPG,,,,,,,,,,,,,,,,,,,,,3,7,37,6,,,AFSA12.jpg,AFSA03.jpg,AFNE09.jpg,AFNE06.jpg,AFSA03.jpg,FS,4,num_6,16,num_6,1.15009811424,,,2017_Sep_20_1340,60.0086997191,MAFE4ImagesEEG,001,201498,
AFNE01.JPG,AFNE01.JPG,AFNE01.JPG,AFNE01.JPG,AFNE01.JPG,AFNE01.JPG,,,,,,,,,,,,,,,,,,,,,3,8,38,2,,,AFNE15.jpg,AFSA11.jpg,AFNE10.jpg,AFSA18.jpg,AFNE10.jpg,FN,3,num_2,16,num_2,0.700082173485,,,2017_Sep_20_1340,60.0086997191,MAFE4ImagesEEG,001,201498,
AFNE01.JPG,AFNE01.JPG,AFNE01.JPG,AFNE01.JPG,AFNE01.JPG,AFNE01.JPG,,,,,,,,,,,,,,,,,,,,,3,9,39,4,,,AFNE09.jpg,AFSA16.jpg,AFSA15.jpg,AFNE13.jpg,AFNE13.jpg,FN,3,num_4,16,num_4,1.23345929847,,,2017_Sep_20_1340,60.0086997191,MAFE4ImagesEEG,001,201498,
