IPosition2,IPosition3,IPosition1,IPosition6,IPosition4,IPosition5,TrialsM1.thisRepN,TrialsM1.thisTrialN,TrialsM1.thisN,TrialsM1.thisIndex,TrialsF1.thisRepN,TrialsF1.thisTrialN,TrialsF1.thisN,TrialsF1.thisIndex,TrialsM2.thisRepN,TrialsM2.thisTrialN,TrialsM2.thisN,TrialsM2.thisIndex,TrialsF2.thisRepN,TrialsF2.thisTrialN,TrialsF2.thisN,TrialsF2.thisIndex,TrialsM3.thisRepN,TrialsM3.thisTrialN,TrialsM3.thisN,TrialsM3.thisIndex,TrialsF3.thisRepN,TrialsF3.thisTrialN,TrialsF3.thisN,TrialsF3.thisIndex,InstrKey_resp.keys,InstrKey_resp.rt,Image0 _Position,Image1 _Position,Image2 _Position,Image3 _Position,Center_image,condition,code,correct_answer,accuracy,Key_Resp.keys,Key_Resp.rt,BreakKey_resp.keys,BreakKey_resp.rt,date,frameRate,expName,session,participant,
,,,,,,,,,,,,,,,,,,,,,,,,,,,,,,space,17.8991575129,,,,,,,,,,,,,,2017_Sep_05_1537,60.0009429929,MAFE4ImagesEEG,001,201474,
AMSA21.JPG,AMNE22.JPG,AMNE21.JPG,AMSA23.JPG,AMSA22.JPG,AMNE23.JPG,0,0,0,1,,,,,,,,,,,,,,,,,,,,,,,AMNE02.jpg,AMSA01.jpg,AMNE16.jpg,AMSA18.jpg,AMSA18.jpg,MS,2,num_4,32,num_8,1.73338448058,,,2017_Sep_05_1537,60.0009429929,MAFE4ImagesEEG,001,201474,
AMNE23.JPG,AMNE24.JPG,AMNE22.JPG,AMSA24.JPG,AMSA22.JPG,AMSA23.JPG,0,1,1,9,,,,,,,,,,,,,,,,,,,,,,,AMNE01.jpg,AMNE09.jpg,AMSA10.jpg,AMSA07.jpg,AMSA10.jpg,MS,2,num_2,32,num_4,1.0667568373,,,2017_Sep_05_1537,60.0009429929,MAFE4ImagesEEG,001,201474,
AMSA21.JPG,AMNE23.JPG,AMNE21.JPG,AMSA25.JPG,AMNE25.JPG,AMSA23.JPG,0,2,2,5,,,,,,,,,,,,,,,,,,,,,,,AMNE15.jpg,AMSA05.jpg,AMSA01.jpg,AMNE14.jpg,AMSA01.jpg,MS,2,num_2,16,num_2,1.03347175394,,,2017_Sep_05_1537,60.0009429929,MAFE4ImagesEEG,001,201474,
AFNE22.JPG,AFSA24.JPG,AFSA22.JPG,AFNE25.JPG,AFNE24.JPG,AFSA25.JPG,0,3,3,6,,,,,,,,,,,,,,,,,,,,,,,AMNE01.jpg,AMSA07.jpg,AMSA15.jpg,AMNE12.jpg,AMNE12.jpg,MN,1,num_4,32,num_6,1.06683477701,,,2017_Sep_05_1537,60.0009429929,MAFE4ImagesEEG,001,201474,
AFSA21.JPG,AFNE23.JPG,AFNE21.JPG,AFSA25.JPG,AFNE25.JPG,AFSA23.JPG,0,4,4,4,,,,,,,,,,,,,,,,,,,,,,,AMNE18.jpg,AMNE07.jpg,AMSA15.jpg,AMSA20.jpg,AMNE07.jpg,MN,1,num_6,32,num_8,1.15009335126,,,2017_Sep_05_1537,60.0009429929,MAFE4ImagesEEG,001,201474,
AFSA25.JPG,AFNE24.JPG,AFSA24.JPG,AFNE21.JPG,AFSA21.JPG,AFNE25.JPG,0,5,5,2,,,,,,,,,,,,,,,,,,,,,,,AMNE07.jpg,AMSA18.jpg,AMSA15.jpg,AMNE03.jpg,AMNE07.jpg,MN,1,num_8,32,num_4,1.53344497213,,,2017_Sep_05_1537,60.0009429929,MAFE4ImagesEEG,001,201474,
AFNE23.JPG,AFNE24.JPG,AFNE22.JPG,AFSA24.JPG,AFSA22.JPG,AFSA23.JPG,0,6,6,8,,,,,,,,,,,,,,,,,,,,,,,AMNE11.jpg,AMNE10.jpg,AMSA02.jpg,AMSA10.jpg,AMNE10.jpg,MN,1,num_6,32,num_4,1.1834679211,,,2017_Sep_05_1537,60.0009429929,MAFE4ImagesEEG,001,201474,
AFSA21.JPG,AFNE22.JPG,AFNE21.JPG,AFSA23.JPG,AFSA22.JPG,AFNE23.JPG,0,7,7,0,,,,,,,,,,,,,,,,,,,,,,,AMSA18.jpg,AMNE15.jpg,AMSA14.jpg,AMNE09.jpg,AMSA14.jpg,MS,2,num_2,32,num_8,1.30017034488,,,2017_Sep_05_1537,60.0009429929,MAFE4ImagesEEG,001,201474,
AMNE22.JPG,AMSA24.JPG,AMSA22.JPG,AMNE25.JPG,AMNE24.JPG,AMSA25.JPG,0,8,8,7,,,,,,,,,,,,,,,,,,,,,,,AMNE02.jpg,AMNE09.jpg,AMSA15.jpg,AMSA08.jpg,AMNE09.jpg,MN,1,num_6,16,num_6,1.20017942169,,,2017_Sep_05_1537,60.0009429929,MAFE4ImagesEEG,001,201474,
AMSA25.JPG,AMNE24.JPG,AMSA24.JPG,AMNE26.JPG,AMSA21.JPG,AMNE25.JPG,0,9,9,3,,,,,,,,,,,,,,,,,,,,,,,AMSA20.jpg,AMNE09.jpg,AMNE14.jpg,AMSA08.jpg,AMNE09.jpg,MN,1,num_6,32,num_4,1.3834128821,,,2017_Sep_05_1537,60.0009429929,MAFE4ImagesEEG,001,201474,
AFSA21.JPG,AFNE23.JPG,AFNE21.JPG,AFSA25.JPG,AFNE25.JPG,AFSA23.JPG,,,,,0,0,0,4,,,,,,,,,,,,,,,,,,,AFNE06.jpg,AFNE15.jpg,AFSA05.jpg,AFSA14.jpg,AFNE06.jpg,FN,3,num_8,32,num_2,2.01655369683,,,2017_Sep_05_1537,60.0009429929,MAFE4ImagesEEG,001,201474,
AFNE23.JPG,AFNE24.JPG,AFNE22.JPG,AFSA24.JPG,AFSA22.JPG,AFSA23.JPG,,,,,0,1,1,8,,,,,,,,,,,,,,,,,,,AFSA01.jpg,AFNE08.jpg,AFNE13.jpg,AFSA08.jpg,AFSA01.jpg,FS,4,num_8,16,num_8,1.316759323,,,2017_Sep_05_1537,60.0009429929,MAFE4ImagesEEG,001,201474,
AFNE22.JPG,AFSA24.JPG,AFSA22.JPG,AFNE25.JPG,AFNE24.JPG,AFSA25.JPG,,,,,0,2,2,6,,,,,,,,,,,,,,,,,,,AFNE16.jpg,AFSA11.jpg,AFSA14.jpg,AFNE12.jpg,AFSA14.jpg,FS,4,num_2,16,num_2,1.48344004888,,,2017_Sep_05_1537,60.0009429929,MAFE4ImagesEEG,001,201474,
AMSA25.JPG,AMNE24.JPG,AMSA24.JPG,AMNE26.JPG,AMSA21.JPG,AMNE25.JPG,,,,,0,3,3,3,,,,,,,,,,,,,,,,,,,AFSA06.jpg,AFNE14.jpg,AFSA14.jpg,AFNE20.jpg,AFNE20.jpg,FN,3,num_4,32,num_2,1.48342529475,,,2017_Sep_05_1537,60.0009429929,MAFE4ImagesEEG,001,201474,
AFSA21.JPG,AFNE22.JPG,AFNE21.JPG,AFSA23.JPG,AFSA22.JPG,AFNE23.JPG,,,,,0,4,4,0,,,,,,,,,,,,,,,,,,,AFNE04.jpg,AFSA08.jpg,AFSA01.jpg,AFNE07.jpg,AFNE04.jpg,FN,3,num_8,16,num_8,1.03345122654,,,2017_Sep_05_1537,60.0009429929,MAFE4ImagesEEG,001,201474,
AMSA21.JPG,AMNE23.JPG,AMNE21.JPG,AMSA25.JPG,AMNE25.JPG,AMSA23.JPG,,,,,0,5,5,5,,,,,,,,,,,,,,,,,,,AFNE17.jpg,AFSA19.jpg,AFSA03.jpg,AFNE20.jpg,AFNE17.jpg,FN,3,num_8,32,num_4,1.36668951402,,,2017_Sep_05_1537,60.0009429929,MAFE4ImagesEEG,001,201474,
AMNE22.JPG,AMSA24.JPG,AMSA22.JPG,AMNE25.JPG,AMNE24.JPG,AMSA25.JPG,,,,,0,6,6,7,,,,,,,,,,,,,,,,,,,AFSA16.jpg,AFNE15.jpg,AFSA20.jpg,AFNE13.jpg,AFNE13.jpg,FN,3,num_4,32,num_2,1.33345254161,,,2017_Sep_05_1537,60.0009429929,MAFE4ImagesEEG,001,201474,
AMNE23.JPG,AMNE24.JPG,AMNE22.JPG,AMSA24.JPG,AMSA22.JPG,AMSA23.JPG,,,,,0,7,7,9,,,,,,,,,,,,,,,,,,,AFNE12.jpg,AFSA17.jpg,AFNE02.jpg,AFSA15.jpg,AFNE12.jpg,FN,3,num_8,16,num_8,1.0834622439,,,2017_Sep_05_1537,60.0009429929,MAFE4ImagesEEG,001,201474,
AMSA21.JPG,AMNE22.JPG,AMNE21.JPG,AMSA23.JPG,AMSA22.JPG,AMNE23.JPG,,,,,0,8,8,1,,,,,,,,,,,,,,,,,,,AFNE02.jpg,AFSA07.jpg,AFSA15.jpg,AFNE19.jpg,AFNE02.jpg,FN,3,num_8,32,num_2,2.01712942449,,,2017_Sep_05_1537,60.0009429929,MAFE4ImagesEEG,001,201474,
AFSA25.JPG,AFNE24.JPG,AFSA24.JPG,AFNE21.JPG,AFSA21.JPG,AFNE25.JPG,,,,,0,9,9,2,,,,,,,,,,,,,,,,,,,AFNE10.jpg,AFSA06.jpg,AFNE16.jpg,AFSA13.jpg,AFSA13.jpg,FS,4,num_4,32,num_2,1.58353072195,,,2017_Sep_05_1537,60.0009429929,MAFE4ImagesEEG,001,201474,
AMSA25.JPG,AMNE24.JPG,AMSA24.JPG,AMNE26.JPG,AMSA21.JPG,AMNE25.JPG,,,,,,,,,0,0,0,3,,,,,,,,,,,,,,,AMSA10.jpg,AMNE11.jpg,AMSA12.jpg,AMNE13.jpg,AMSA12.jpg,MS,2,num_2,32,num_8,1.4334412195,,,2017_Sep_05_1537,60.0009429929,MAFE4ImagesEEG,001,201474,
AFNE22.JPG,AFSA24.JPG,AFSA22.JPG,AFNE25.JPG,AFNE24.JPG,AFSA25.JPG,,,,,,,,,0,1,1,6,,,,,,,,,,,,,,,AMSA17.jpg,AMSA19.jpg,AMNE19.jpg,AMNE01.jpg,AMSA17.jpg,MS,2,num_8,32,num_6,1.90002030286,,,2017_Sep_05_1537,60.0009429929,MAFE4ImagesEEG,001,201474,
AMSA21.JPG,AMNE23.JPG,AMNE21.JPG,AMSA25.JPG,AMNE25.JPG,AMSA23.JPG,,,,,,,,,0,2,2,5,,,,,,,,,,,,,,,AMSA06.jpg,AMSA18.jpg,AMNE06.jpg,AMNE13.jpg,AMNE13.jpg,MN,1,num_4,16,num_4,1.21673760889,,,2017_Sep_05_1537,60.0009429929,MAFE4ImagesEEG,001,201474,
AFNE23.JPG,AFNE24.JPG,AFNE22.JPG,AFSA24.JPG,AFSA22.JPG,AFSA23.JPG,,,,,,,,,0,3,3,8,,,,,,,,,,,,,,,AMSA05.jpg,AMSA11.jpg,AMNE12.jpg,AMNE19.jpg,AMSA11.jpg,MS,2,num_6,32,num_2,1.26675568265,,,2017_Sep_05_1537,60.0009429929,MAFE4ImagesEEG,001,201474,
AFSA21.JPG,AFNE22.JPG,AFNE21.JPG,AFSA23.JPG,AFSA22.JPG,AFNE23.JPG,,,,,,,,,0,4,4,0,,,,,,,,,,,,,,,AMSA08.jpg,AMSA05.jpg,AMNE02.jpg,AMNE12.jpg,AMSA05.jpg,MS,2,num_6,32,num_8,1.10012755822,,,2017_Sep_05_1537,60.0009429929,MAFE4ImagesEEG,001,201474,
AMNE22.JPG,AMSA24.JPG,AMSA22.JPG,AMNE25.JPG,AMNE24.JPG,AMSA25.JPG,,,,,,,,,0,5,5,7,,,,,,,,,,,,,,,AMNE16.jpg,AMSA02.jpg,AMSA11.jpg,AMNE01.jpg,AMSA02.jpg,MS,2,num_6,32,num_4,1.31672756979,,,2017_Sep_05_1537,60.0009429929,MAFE4ImagesEEG,001,201474,
AFSA25.JPG,AFNE24.JPG,AFSA24.JPG,AFNE21.JPG,AFSA21.JPG,AFNE25.JPG,,,,,,,,,0,6,6,2,,,,,,,,,,,,,,,AMSA07.jpg,AMNE12.jpg,AMSA19.jpg,AMNE15.jpg,AMSA07.jpg,MS,2,num_8,16,num_8,1.10015802842,,,2017_Sep_05_1537,60.0009429929,MAFE4ImagesEEG,001,201474,
AFSA21.JPG,AFNE23.JPG,AFNE21.JPG,AFSA25.JPG,AFNE25.JPG,AFSA23.JPG,,,,,,,,,0,7,7,4,,,,,,,,,,,,,,,AMNE15.jpg,AMSA16.jpg,AMSA09.jpg,AMNE12.jpg,AMSA16.jpg,MS,2,num_6,32,num_2,1.26662899042,,,2017_Sep_05_1537,60.0009429929,MAFE4ImagesEEG,001,201474,
AMNE23.JPG,AMNE24.JPG,AMNE22.JPG,AMSA24.JPG,AMSA22.JPG,AMSA23.JPG,,,,,,,,,0,8,8,9,,,,,,,,,,,,,,,AMSA05.jpg,AMSA14.jpg,AMNE11.jpg,AMNE14.jpg,AMSA14.jpg,MS,2,num_6,32,num_4,1.61670098046,,,2017_Sep_05_1537,60.0009429929,MAFE4ImagesEEG,001,201474,
AMSA21.JPG,AMNE22.JPG,AMNE21.JPG,AMSA23.JPG,AMSA22.JPG,AMNE23.JPG,,,,,,,,,0,9,9,1,,,,,,,,,,,,,,,AMNE04.jpg,AMSA20.jpg,AMSA01.jpg,AMNE07.jpg,AMNE07.jpg,MN,1,num_4,16,num_4,1.46675581089,,,2017_Sep_05_1537,60.0009429929,MAFE4ImagesEEG,001,201474,
AFSA21.JPG,AFNE22.JPG,AFNE21.JPG,AFSA23.JPG,AFSA22.JPG,AFNE23.JPG,,,,,,,,,,,,,0,0,0,0,,,,,,,,,,,AFNE20.jpg,AFSA06.jpg,AFSA08.jpg,AFNE04.jpg,AFSA06.jpg,FS,4,num_6,32,num_2,1.50008291123,,,2017_Sep_05_1537,60.0009429929,MAFE4ImagesEEG,001,201474,
AFNE23.JPG,AFNE24.JPG,AFNE22.JPG,AFSA24.JPG,AFSA22.JPG,AFSA23.JPG,,,,,,,,,,,,,0,1,1,8,,,,,,,,,,,AFSA02.jpg,AFNE20.jpg,AFSA15.jpg,AFNE18.jpg,AFSA15.jpg,FS,4,num_2,32,num_6,1.18345028046,,,2017_Sep_05_1537,60.0009429929,MAFE4ImagesEEG,001,201474,
AFSA21.JPG,AFNE23.JPG,AFNE21.JPG,AFSA25.JPG,AFNE25.JPG,AFSA23.JPG,,,,,,,,,,,,,0,2,2,4,,,,,,,,,,,AFSA06.jpg,AFNE17.jpg,AFNE08.jpg,AFSA12.jpg,AFSA12.jpg,FS,4,num_4,16,num_4,1.23342088459,,,2017_Sep_05_1537,60.0009429929,MAFE4ImagesEEG,001,201474,
AMNE22.JPG,AMSA24.JPG,AMSA22.JPG,AMNE25.JPG,AMNE24.JPG,AMSA25.JPG,,,,,,,,,,,,,0,3,3,7,,,,,,,,,,,AFNE08.jpg,AFSA17.jpg,AFSA12.jpg,AFNE11.jpg,AFNE08.jpg,FN,3,num_8,16,num_8,1.15008982318,,,2017_Sep_05_1537,60.0009429929,MAFE4ImagesEEG,001,201474,
AMNE23.JPG,AMNE24.JPG,AMNE22.JPG,AMSA24.JPG,AMSA22.JPG,AMSA23.JPG,,,,,,,,,,,,,0,4,4,9,,,,,,,,,,,AFNE06.jpg,AFSA14.jpg,AFNE05.jpg,AFSA20.jpg,AFNE06.jpg,FN,3,num_8,32,num_6,1.26673291018,,,2017_Sep_05_1537,60.0009429929,MAFE4ImagesEEG,001,201474,
AMSA21.JPG,AMNE22.JPG,AMNE21.JPG,AMSA23.JPG,AMSA22.JPG,AMNE23.JPG,,,,,,,,,,,,,0,5,5,1,,,,,,,,,,,AFSA08.jpg,AFNE05.jpg,AFNE13.jpg,AFSA12.jpg,AFNE05.jpg,FN,3,num_6,32,num_8,1.5833870304,,,2017_Sep_05_1537,60.0009429929,MAFE4ImagesEEG,001,201474,
AFSA25.JPG,AFNE24.JPG,AFSA24.JPG,AFNE21.JPG,AFSA21.JPG,AFNE25.JPG,,,,,,,,,,,,,0,6,6,2,,,,,,,,,,,AFNE03.jpg,AFSA09.jpg,AFSA17.jpg,AFNE19.jpg,AFSA09.jpg,FS,4,num_6,32,num_4,1.38313480082,,,2017_Sep_05_1537,60.0009429929,MAFE4ImagesEEG,001,201474,
AMSA25.JPG,AMNE24.JPG,AMSA24.JPG,AMNE26.JPG,AMSA21.JPG,AMNE25.JPG,,,,,,,,,,,,,0,7,7,3,,,,,,,,,,,AFNE04.jpg,AFSA12.jpg,AFSA03.jpg,AFNE01.jpg,AFNE04.jpg,FN,3,num_8,16,num_8,1.2000639555,,,2017_Sep_05_1537,60.0009429929,MAFE4ImagesEEG,001,201474,
AFNE22.JPG,AFSA24.JPG,AFSA22.JPG,AFNE25.JPG,AFNE24.JPG,AFSA25.JPG,,,,,,,,,,,,,0,8,8,6,,,,,,,,,,,AFNE08.jpg,AFSA13.jpg,AFSA11.jpg,AFNE17.jpg,AFSA13.jpg,FS,4,num_6,32,num_2,1.4334303143,,,2017_Sep_05_1537,60.0009429929,MAFE4ImagesEEG,001,201474,
AMSA21.JPG,AMNE23.JPG,AMNE21.JPG,AMSA25.JPG,AMNE25.JPG,AMSA23.JPG,,,,,,,,,,,,,0,9,9,5,,,,,,,,,,,AFNE15.jpg,AFSA10.jpg,AFSA13.jpg,AFNE19.jpg,AFNE15.jpg,FN,3,num_8,32,num_6,1.21684313228,,,2017_Sep_05_1537,60.0009429929,MAFE4ImagesEEG,001,201474,
AMNE22.JPG,AMSA24.JPG,AMSA22.JPG,AMNE25.JPG,AMNE24.JPG,AMSA25.JPG,,,,,,,,,,,,,,,,,0,0,0,7,,,,,,,AMSA17.jpg,AMSA05.jpg,AMNE18.jpg,AMNE13.jpg,AMSA05.jpg,MS,2,num_6,32,num_4,0.966782913427,,,2017_Sep_05_1537,60.0009429929,MAFE4ImagesEEG,001,201474,
AMNE23.JPG,AMNE24.JPG,AMNE22.JPG,AMSA24.JPG,AMSA22.JPG,AMSA23.JPG,,,,,,,,,,,,,,,,,0,1,1,9,,,,,,,AMSA03.jpg,AMNE20.jpg,AMSA06.jpg,AMNE01.jpg,AMSA03.jpg,MS,2,num_8,32,num_4,1.15009463427,,,2017_Sep_05_1537,60.0009429929,MAFE4ImagesEEG,001,201474,
AFNE23.JPG,AFNE24.JPG,AFNE22.JPG,AFSA24.JPG,AFSA22.JPG,AFSA23.JPG,,,,,,,,,,,,,,,,,0,2,2,8,,,,,,,AMSA19.jpg,AMNE04.jpg,AMSA18.jpg,AMNE11.jpg,AMNE11.jpg,MN,1,num_4,32,num_6,1.20008159615,,,2017_Sep_05_1537,60.0009429929,MAFE4ImagesEEG,001,201474,
AFSA25.JPG,AFNE24.JPG,AFSA24.JPG,AFNE21.JPG,AFSA21.JPG,AFNE25.JPG,,,,,,,,,,,,,,,,,0,3,3,2,,,,,,,AMSA19.jpg,AMSA01.jpg,AMNE11.jpg,AMNE01.jpg,AMSA01.jpg,MS,2,num_6,16,num_6,1.18347465666,,,2017_Sep_05_1537,60.0009429929,MAFE4ImagesEEG,001,201474,
AFSA21.JPG,AFNE23.JPG,AFNE21.JPG,AFSA25.JPG,AFNE25.JPG,AFSA23.JPG,,,,,,,,,,,,,,,,,0,4,4,4,,,,,,,AMNE17.jpg,AMNE11.jpg,AMSA14.jpg,AMSA10.jpg,AMSA14.jpg,MS,2,num_2,16,num_2,1.75008539692,,,2017_Sep_05_1537,60.0009429929,MAFE4ImagesEEG,001,201474,
AMSA21.JPG,AMNE23.JPG,AMNE21.JPG,AMSA25.JPG,AMNE25.JPG,AMSA23.JPG,,,,,,,,,,,,,,,,,0,5,5,5,,,,,,,AMSA10.jpg,AMNE04.jpg,AMNE10.jpg,AMSA03.jpg,AMSA10.jpg,MS,2,num_8,16,num_8,1.21676262666,,,2017_Sep_05_1537,60.0009429929,MAFE4ImagesEEG,001,201474,
AMSA21.JPG,AMNE22.JPG,AMNE21.JPG,AMSA23.JPG,AMSA22.JPG,AMNE23.JPG,,,,,,,,,,,,,,,,,0,6,6,1,,,,,,,AMSA17.jpg,AMSA02.jpg,AMNE13.jpg,AMNE11.jpg,AMSA02.jpg,MS,2,num_6,32,num_2,1.61668430199,,,2017_Sep_05_1537,60.0009429929,MAFE4ImagesEEG,001,201474,
AMSA25.JPG,AMNE24.JPG,AMSA24.JPG,AMNE26.JPG,AMSA21.JPG,AMNE25.JPG,,,,,,,,,,,,,,,,,0,7,7,3,,,,,,,AMNE03.jpg,AMSA17.jpg,AMSA07.jpg,AMNE07.jpg,AMNE07.jpg,MN,1,num_4,32,num_8,1.16671953525,,,2017_Sep_05_1537,60.0009429929,MAFE4ImagesEEG,001,201474,
AFNE22.JPG,AFSA24.JPG,AFSA22.JPG,AFNE25.JPG,AFNE24.JPG,AFSA25.JPG,,,,,,,,,,,,,,,,,0,8,8,6,,,,,,,AMNE16.jpg,AMSA20.jpg,AMSA07.jpg,AMNE07.jpg,AMNE07.jpg,MN,1,num_4,32,num_8,1.23343403486,,,2017_Sep_05_1537,60.0009429929,MAFE4ImagesEEG,001,201474,
AFSA21.JPG,AFNE22.JPG,AFNE21.JPG,AFSA23.JPG,AFSA22.JPG,AFNE23.JPG,,,,,,,,,,,,,,,,,0,9,9,0,,,,,,,AMSA17.jpg,AMNE08.jpg,AMSA16.jpg,AMNE02.jpg,AMNE08.jpg,MN,1,num_6,32,num_4,1.25011282018,,,2017_Sep_05_1537,60.0009429929,MAFE4ImagesEEG,001,201474,
AFNE22.JPG,AFSA24.JPG,AFSA22.JPG,AFNE25.JPG,AFNE24.JPG,AFSA25.JPG,,,,,,,,,,,,,,,,,,,,,0,0,0,6,,,AFSA06.jpg,AFNE16.jpg,AFNE05.jpg,AFSA10.jpg,AFSA10.jpg,FS,4,num_4,32,num_2,1.03350895969,,,2017_Sep_05_1537,60.0009429929,MAFE4ImagesEEG,001,201474,
AMSA21.JPG,AMNE22.JPG,AMNE21.JPG,AMSA23.JPG,AMSA22.JPG,AMNE23.JPG,,,,,,,,,,,,,,,,,,,,,0,1,1,1,,,AFSA08.jpg,AFNE11.jpg,AFNE18.jpg,AFSA16.jpg,AFSA16.jpg,FS,4,num_4,32,num_6,1.00012669223,,,2017_Sep_05_1537,60.0009429929,MAFE4ImagesEEG,001,201474,
AFSA21.JPG,AFNE23.JPG,AFNE21.JPG,AFSA25.JPG,AFNE25.JPG,AFSA23.JPG,,,,,,,,,,,,,,,,,,,,,0,2,2,4,,,AFNE06.jpg,AFNE10.jpg,AFSA18.jpg,AFSA15.jpg,AFNE06.jpg,FN,3,num_8,32,num_4,1.06675844092,,,2017_Sep_05_1537,60.0009429929,MAFE4ImagesEEG,001,201474,
AMNE22.JPG,AMSA24.JPG,AMSA22.JPG,AMNE25.JPG,AMNE24.JPG,AMSA25.JPG,,,,,,,,,,,,,,,,,,,,,0,3,3,7,,,AFNE13.jpg,AFSA05.jpg,AFNE09.jpg,AFSA14.jpg,AFNE13.jpg,FN,3,num_8,16,num_8,1.05011397484,,,2017_Sep_05_1537,60.0009429929,MAFE4ImagesEEG,001,201474,
AMSA25.JPG,AMNE24.JPG,AMSA24.JPG,AMNE26.JPG,AMSA21.JPG,AMNE25.JPG,,,,,,,,,,,,,,,,,,,,,0,4,4,3,,,AFSA20.jpg,AFNE06.jpg,AFSA09.jpg,AFNE05.jpg,AFSA09.jpg,FS,4,num_2,16,num_2,1.23348952283,,,2017_Sep_05_1537,60.0009429929,MAFE4ImagesEEG,001,201474,
AMNE23.JPG,AMNE24.JPG,AMNE22.JPG,AMSA24.JPG,AMSA22.JPG,AMSA23.JPG,,,,,,,,,,,,,,,,,,,,,0,5,5,9,,,AFSA19.jpg,AFNE01.jpg,AFNE08.jpg,AFSA11.jpg,AFSA11.jpg,FS,4,num_4,16,num_4,1.08347731875,,,2017_Sep_05_1537,60.0009429929,MAFE4ImagesEEG,001,201474,
AMSA21.JPG,AMNE23.JPG,AMNE21.JPG,AMSA25.JPG,AMNE25.JPG,AMSA23.JPG,,,,,,,,,,,,,,,,,,,,,0,6,6,5,,,AFNE12.jpg,AFNE08.jpg,AFSA07.jpg,AFSA19.jpg,AFSA07.jpg,FS,4,num_2,16,num_2,1.35003414273,,,2017_Sep_05_1537,60.0009429929,MAFE4ImagesEEG,001,201474,
AFNE23.JPG,AFNE24.JPG,AFNE22.JPG,AFSA24.JPG,AFSA22.JPG,AFSA23.JPG,,,,,,,,,,,,,,,,,,,,,0,7,7,8,,,AFNE02.jpg,AFNE06.jpg,AFSA16.jpg,AFSA11.jpg,AFSA11.jpg,FS,4,num_4,16,num_4,1.3498150775,,,2017_Sep_05_1537,60.0009429929,MAFE4ImagesEEG,001,201474,
AFSA25.JPG,AFNE24.JPG,AFSA24.JPG,AFNE21.JPG,AFSA21.JPG,AFNE25.JPG,,,,,,,,,,,,,,,,,,,,,0,8,8,2,,,AFSA10.jpg,AFSA20.jpg,AFNE10.jpg,AFNE04.jpg,AFSA20.jpg,FS,4,num_6,16,num_6,0.983414549963,,,2017_Sep_05_1537,60.0009429929,MAFE4ImagesEEG,001,201474,
AFSA21.JPG,AFNE22.JPG,AFNE21.JPG,AFSA23.JPG,AFSA22.JPG,AFNE23.JPG,,,,,,,,,,,,,,,,,,,,,0,9,9,0,,,AFNE04.jpg,AFSA15.jpg,AFNE03.jpg,AFSA20.jpg,AFSA20.jpg,FS,4,num_4,16,num_4,2.00012412621,,,2017_Sep_05_1537,60.0009429929,MAFE4ImagesEEG,001,201474,
,,,,,,,,,,,,,,,,,,,,,,,,,,,,,,,,,,,,,,,,,,,space,32.547932143,2017_Sep_05_1537,60.0009429929,MAFE4ImagesEEG,001,201474,
AFNE01.JPG,AFNE01.JPG,AFNE01.JPG,AFNE01.JPG,AFNE01.JPG,AFNE01.JPG,0,0,0,5,,,,,,,,,,,,,,,,,,,,,,,AMNE20.jpg,AMSA03.jpg,AMSA11.jpg,AMNE17.jpg,AMNE17.jpg,MN,1,num_4,32,num_2,1.21672477934,,,2017_Sep_05_1537,60.0009429929,MAFE4ImagesEEG,001,201474,
AFNE01.JPG,AFNE01.JPG,AFNE01.JPG,AFNE01.JPG,AFNE01.JPG,AFNE01.JPG,0,1,1,9,,,,,,,,,,,,,,,,,,,,,,,AMSA13.jpg,AMSA06.jpg,AMNE06.jpg,AMNE16.jpg,AMSA06.jpg,MS,2,num_6,16,num_6,1.01680643973,,,2017_Sep_05_1537,60.0009429929,MAFE4ImagesEEG,001,201474,
AFNE01.JPG,AFNE01.JPG,AFNE01.JPG,AFNE01.JPG,AFNE01.JPG,AFNE01.JPG,0,2,2,0,,,,,,,,,,,,,,,,,,,,,,,AMNE06.jpg,AMSA11.jpg,AMSA01.jpg,AMNE02.jpg,AMSA01.jpg,MS,2,num_2,32,num_6,1.08347731875,,,2017_Sep_05_1537,60.0009429929,MAFE4ImagesEEG,001,201474,
AFNE01.JPG,AFNE01.JPG,AFNE01.JPG,AFNE01.JPG,AFNE01.JPG,AFNE01.JPG,0,3,3,6,,,,,,,,,,,,,,,,,,,,,,,AMSA03.jpg,AMNE01.jpg,AMNE04.jpg,AMSA09.jpg,AMNE01.jpg,MN,1,num_6,32,num_2,1.05008607055,,,2017_Sep_05_1537,60.0009429929,MAFE4ImagesEEG,001,201474,
AFNE01.JPG,AFNE01.JPG,AFNE01.JPG,AFNE01.JPG,AFNE01.JPG,AFNE01.JPG,0,4,4,2,,,,,,,,,,,,,,,,,,,,,,,AMSA05.jpg,AMNE16.jpg,AMSA08.jpg,AMNE06.jpg,AMSA05.jpg,MS,2,num_8,16,num_8,1.25007433142,,,2017_Sep_05_1537,60.0009429929,MAFE4ImagesEEG,001,201474,
AFNE01.JPG,AFNE01.JPG,AFNE01.JPG,AFNE01.JPG,AFNE01.JPG,AFNE01.JPG,0,5,5,8,,,,,,,,,,,,,,,,,,,,,,,AMSA11.jpg,AMSA14.jpg,AMNE09.jpg,AMNE17.jpg,AMNE17.jpg,MN,1,num_4,16,num_4,1.45008408185,,,2017_Sep_05_1537,60.0009429929,MAFE4ImagesEEG,001,201474,
AFNE01.JPG,AFNE01.JPG,AFNE01.JPG,AFNE01.JPG,AFNE01.JPG,AFNE01.JPG,0,6,6,4,,,,,,,,,,,,,,,,,,,,,,,AMSA13.jpg,AMNE18.jpg,AMSA16.jpg,AMNE20.jpg,AMNE20.jpg,MN,1,num_4,32,num_2,1.46670802077,,,2017_Sep_05_1537,60.0009429929,MAFE4ImagesEEG,001,201474,
AFNE01.JPG,AFNE01.JPG,AFNE01.JPG,AFNE01.JPG,AFNE01.JPG,AFNE01.JPG,0,7,7,1,,,,,,,,,,,,,,,,,,,,,,,AMNE09.jpg,AMSA13.jpg,AMSA14.jpg,AMNE07.jpg,AMSA14.jpg,MS,2,num_2,32,num_8,1.01677661086,,,2017_Sep_05_1537,60.0009429929,MAFE4ImagesEEG,001,201474,
AFNE01.JPG,AFNE01.JPG,AFNE01.JPG,AFNE01.JPG,AFNE01.JPG,AFNE01.JPG,0,8,8,7,,,,,,,,,,,,,,,,,,,,,,,AMSA06.jpg,AMNE05.jpg,AMNE08.jpg,AMSA12.jpg,AMNE05.jpg,MN,1,num_6,32,num_4,1.11675759102,,,2017_Sep_05_1537,60.0009429929,MAFE4ImagesEEG,001,201474,
AFNE01.JPG,AFNE01.JPG,AFNE01.JPG,AFNE01.JPG,AFNE01.JPG,AFNE01.JPG,0,9,9,3,,,,,,,,,,,,,,,,,,,,,,,AMSA07.jpg,AMNE12.jpg,AMSA12.jpg,AMNE18.jpg,AMSA12.jpg,MS,2,num_2,16,num_2,1.23342537496,,,2017_Sep_05_1537,60.0009429929,MAFE4ImagesEEG,001,201474,
AFNE01.JPG,AFNE01.JPG,AFNE01.JPG,AFNE01.JPG,AFNE01.JPG,AFNE01.JPG,1,0,10,9,,,,,,,,,,,,,,,,,,,,,,,AMNE09.jpg,AMNE13.jpg,AMSA01.jpg,AMSA17.jpg,AMNE13.jpg,MN,1,num_6,32,num_8,1.16676187294,,,2017_Sep_05_1537,60.0009429929,MAFE4ImagesEEG,001,201474,
AFNE01.JPG,AFNE01.JPG,AFNE01.JPG,AFNE01.JPG,AFNE01.JPG,AFNE01.JPG,1,1,11,7,,,,,,,,,,,,,,,,,,,,,,,AMSA20.jpg,AMSA08.jpg,AMNE03.jpg,AMNE17.jpg,AMSA08.jpg,MS,2,num_6,16,num_6,1.18347978848,,,2017_Sep_05_1537,60.0009429929,MAFE4ImagesEEG,001,201474,
AFNE01.JPG,AFNE01.JPG,AFNE01.JPG,AFNE01.JPG,AFNE01.JPG,AFNE01.JPG,1,2,12,5,,,,,,,,,,,,,,,,,,,,,,,AMNE12.jpg,AMNE04.jpg,AMSA17.jpg,AMSA10.jpg,AMNE12.jpg,MN,1,num_8,32,num_4,1.36674211535,,,2017_Sep_05_1537,60.0009429929,MAFE4ImagesEEG,001,201474,
AFNE01.JPG,AFNE01.JPG,AFNE01.JPG,AFNE01.JPG,AFNE01.JPG,AFNE01.JPG,1,3,13,4,,,,,,,,,,,,,,,,,,,,,,,AMSA10.jpg,AMNE11.jpg,AMSA05.jpg,AMNE03.jpg,AMSA10.jpg,MS,2,num_8,32,num_2,1.38344720134,,,2017_Sep_05_1537,60.0009429929,MAFE4ImagesEEG,001,201474,
AFNE01.JPG,AFNE01.JPG,AFNE01.JPG,AFNE01.JPG,AFNE01.JPG,AFNE01.JPG,1,4,14,0,,,,,,,,,,,,,,,,,,,,,,,AMNE07.jpg,AMNE08.jpg,AMSA06.jpg,AMSA18.jpg,AMNE08.jpg,MN,1,num_6,32,num_8,1.4500590642,,,2017_Sep_05_1537,60.0009429929,MAFE4ImagesEEG,001,201474,
AFNE01.JPG,AFNE01.JPG,AFNE01.JPG,AFNE01.JPG,AFNE01.JPG,AFNE01.JPG,1,5,15,2,,,,,,,,,,,,,,,,,,,,,,,AMNE10.jpg,AMNE11.jpg,AMSA08.jpg,AMSA13.jpg,AMNE10.jpg,MN,1,num_8,16,num_8,1.28343703377,,,2017_Sep_05_1537,60.0009429929,MAFE4ImagesEEG,001,201474,
AFNE01.JPG,AFNE01.JPG,AFNE01.JPG,AFNE01.JPG,AFNE01.JPG,AFNE01.JPG,1,6,16,8,,,,,,,,,,,,,,,,,,,,,,,AMSA02.jpg,AMNE17.jpg,AMNE20.jpg,AMSA19.jpg,AMSA19.jpg,MS,2,num_4,32,num_2,1.45005874347,,,2017_Sep_05_1537,60.0009429929,MAFE4ImagesEEG,001,201474,
AFNE01.JPG,AFNE01.JPG,AFNE01.JPG,AFNE01.JPG,AFNE01.JPG,AFNE01.JPG,1,7,17,3,,,,,,,,,,,,,,,,,,,,,,,AMNE19.jpg,AMSA18.jpg,AMSA04.jpg,AMNE13.jpg,AMSA18.jpg,MS,2,num_6,16,num_6,1.21678828588,,,2017_Sep_05_1537,60.0009429929,MAFE4ImagesEEG,001,201474,
AFNE01.JPG,AFNE01.JPG,AFNE01.JPG,AFNE01.JPG,AFNE01.JPG,AFNE01.JPG,1,8,18,1,,,,,,,,,,,,,,,,,,,,,,,AMNE01.jpg,AMSA15.jpg,AMSA14.jpg,AMNE07.jpg,AMNE01.jpg,MN,1,num_8,16,num_8,1.53344272706,,,2017_Sep_05_1537,60.0009429929,MAFE4ImagesEEG,001,201474,
AFNE01.JPG,AFNE01.JPG,AFNE01.JPG,AFNE01.JPG,AFNE01.JPG,AFNE01.JPG,1,9,19,6,,,,,,,,,,,,,,,,,,,,,,,AMSA12.jpg,AMNE19.jpg,AMSA01.jpg,AMNE04.jpg,AMSA01.jpg,MS,2,num_2,32,num_8,3.0832993082,,,2017_Sep_05_1537,60.0009429929,MAFE4ImagesEEG,001,201474,
AFNE01.JPG,AFNE01.JPG,AFNE01.JPG,AFNE01.JPG,AFNE01.JPG,AFNE01.JPG,2,0,20,9,,,,,,,,,,,,,,,,,,,,,,,AMNE11.jpg,AMNE12.jpg,AMSA19.jpg,AMSA01.jpg,AMSA19.jpg,MS,2,num_2,16,num_2,1.70005866326,,,2017_Sep_05_1537,60.0009429929,MAFE4ImagesEEG,001,201474,
AFNE01.JPG,AFNE01.JPG,AFNE01.JPG,AFNE01.JPG,AFNE01.JPG,AFNE01.JPG,2,1,21,3,,,,,,,,,,,,,,,,,,,,,,,AMNE16.jpg,AMSA15.jpg,AMNE03.jpg,AMSA05.jpg,AMSA15.jpg,MS,2,num_6,16,num_6,1.46644276893,,,2017_Sep_05_1537,60.0009429929,MAFE4ImagesEEG,001,201474,
AFNE01.JPG,AFNE01.JPG,AFNE01.JPG,AFNE01.JPG,AFNE01.JPG,AFNE01.JPG,2,2,22,1,,,,,,,,,,,,,,,,,,,,,,,AMNE09.jpg,AMSA01.jpg,AMSA05.jpg,AMNE04.jpg,AMSA05.jpg,MS,2,num_2,32,num_8,2.45004142355,,,2017_Sep_05_1537,60.0009429929,MAFE4ImagesEEG,001,201474,
AFNE01.JPG,AFNE01.JPG,AFNE01.JPG,AFNE01.JPG,AFNE01.JPG,AFNE01.JPG,2,3,23,8,,,,,,,,,,,,,,,,,,,,,,,AMSA02.jpg,AMNE16.jpg,AMNE15.jpg,AMSA12.jpg,AMSA12.jpg,MS,2,num_4,16,num_4,1.58340306755,,,2017_Sep_05_1537,60.0009429929,MAFE4ImagesEEG,001,201474,
AFNE01.JPG,AFNE01.JPG,AFNE01.JPG,AFNE01.JPG,AFNE01.JPG,AFNE01.JPG,2,4,24,5,,,,,,,,,,,,,,,,,,,,,,,AMSA13.jpg,AMSA20.jpg,AMNE09.jpg,AMNE12.jpg,AMNE12.jpg,MN,1,num_4,32,num_2,1.35008193296,,,2017_Sep_05_1537,60.0009429929,MAFE4ImagesEEG,001,201474,
AFNE01.JPG,AFNE01.JPG,AFNE01.JPG,AFNE01.JPG,AFNE01.JPG,AFNE01.JPG,2,5,25,7,,,,,,,,,,,,,,,,,,,,,,,AMNE11.jpg,AMNE10.jpg,AMSA02.jpg,AMSA13.jpg,AMSA13.jpg,MS,2,num_4,32,num_8,1.30011613981,,,2017_Sep_05_1537,60.0009429929,MAFE4ImagesEEG,001,201474,
AFNE01.JPG,AFNE01.JPG,AFNE01.JPG,AFNE01.JPG,AFNE01.JPG,AFNE01.JPG,2,6,26,4,,,,,,,,,,,,,,,,,,,,,,,AMNE15.jpg,AMSA11.jpg,AMNE03.jpg,AMSA16.jpg,AMNE15.jpg,MN,1,num_8,32,num_4,1.30007027416,,,2017_Sep_05_1537,60.0009429929,MAFE4ImagesEEG,001,201474,
AFNE01.JPG,AFNE01.JPG,AFNE01.JPG,AFNE01.JPG,AFNE01.JPG,AFNE01.JPG,2,7,27,2,,,,,,,,,,,,,,,,,,,,,,,AMSA06.jpg,AMSA20.jpg,AMNE11.jpg,AMNE02.jpg,AMSA20.jpg,MS,2,num_6,32,num_2,1.50010824972,,,2017_Sep_05_1537,60.0009429929,MAFE4ImagesEEG,001,201474,
AFNE01.JPG,AFNE01.JPG,AFNE01.JPG,AFNE01.JPG,AFNE01.JPG,AFNE01.JPG,2,8,28,0,,,,,,,,,,,,,,,,,,,,,,,AMSA07.jpg,AMNE11.jpg,AMNE08.jpg,AMSA02.jpg,AMSA07.jpg,MS,2,num_8,16,num_8,1.80004253006,,,2017_Sep_05_1537,60.0009429929,MAFE4ImagesEEG,001,201474,
AFNE01.JPG,AFNE01.JPG,AFNE01.JPG,AFNE01.JPG,AFNE01.JPG,AFNE01.JPG,2,9,29,6,,,,,,,,,,,,,,,,,,,,,,,AMSA20.jpg,AMSA04.jpg,AMNE10.jpg,AMNE09.jpg,AMSA04.jpg,MS,2,num_6,32,num_4,2.41663061024,,,2017_Sep_05_1537,60.0009429929,MAFE4ImagesEEG,001,201474,
AFNE01.JPG,AFNE01.JPG,AFNE01.JPG,AFNE01.JPG,AFNE01.JPG,AFNE01.JPG,3,0,30,8,,,,,,,,,,,,,,,,,,,,,,,AMNE13.jpg,AMSA19.jpg,AMNE03.jpg,AMSA07.jpg,AMNE03.jpg,MN,1,num_2,16,num_2,1.61670835747,,,2017_Sep_05_1537,60.0009429929,MAFE4ImagesEEG,001,201474,
AFNE01.JPG,AFNE01.JPG,AFNE01.JPG,AFNE01.JPG,AFNE01.JPG,AFNE01.JPG,3,1,31,6,,,,,,,,,,,,,,,,,,,,,,,AMNE16.jpg,AMSA13.jpg,AMSA14.jpg,AMNE12.jpg,AMSA14.jpg,MS,2,num_2,32,num_8,1.51671037811,,,2017_Sep_05_1537,60.0009429929,MAFE4ImagesEEG,001,201474,
AFNE01.JPG,AFNE01.JPG,AFNE01.JPG,AFNE01.JPG,AFNE01.JPG,AFNE01.JPG,3,2,32,9,,,,,,,,,,,,,,,,,,,,,,,AMNE18.jpg,AMSA03.jpg,AMNE03.jpg,AMSA05.jpg,AMSA03.jpg,MS,2,num_6,16,num_6,1.7333992346,,,2017_Sep_05_1537,60.0009429929,MAFE4ImagesEEG,001,201474,
AFNE01.JPG,AFNE01.JPG,AFNE01.JPG,AFNE01.JPG,AFNE01.JPG,AFNE01.JPG,3,3,33,3,,,,,,,,,,,,,,,,,,,,,,,AMNE03.jpg,AMSA02.jpg,AMNE09.jpg,AMSA08.jpg,AMSA08.jpg,MS,2,num_4,32,num_8,2.21668436611,,,2017_Sep_05_1537,60.0009429929,MAFE4ImagesEEG,001,201474,
AFNE01.JPG,AFNE01.JPG,AFNE01.JPG,AFNE01.JPG,AFNE01.JPG,AFNE01.JPG,3,4,34,2,,,,,,,,,,,,,,,,,,,,,,,AMSA03.jpg,AMNE19.jpg,AMNE09.jpg,AMSA14.jpg,AMSA14.jpg,MS,2,num_4,32,num_2,1.28342773241,,,2017_Sep_05_1537,60.0009429929,MAFE4ImagesEEG,001,201474,
AFNE01.JPG,AFNE01.JPG,AFNE01.JPG,AFNE01.JPG,AFNE01.JPG,AFNE01.JPG,3,5,35,5,,,,,,,,,,,,,,,,,,,,,,,AMNE12.jpg,AMNE14.jpg,AMSA14.jpg,AMSA17.jpg,AMSA14.jpg,MS,2,num_2,16,num_2,1.00012476777,,,2017_Sep_05_1537,60.0009429929,MAFE4ImagesEEG,001,201474,
AFNE01.JPG,AFNE01.JPG,AFNE01.JPG,AFNE01.JPG,AFNE01.JPG,AFNE01.JPG,3,6,36,7,,,,,,,,,,,,,,,,,,,,,,,AMNE05.jpg,AMSA15.jpg,AMNE07.jpg,AMSA18.jpg,AMSA18.jpg,MS,2,num_4,16,num_4,1.20010372729,,,2017_Sep_05_1537,60.0009429929,MAFE4ImagesEEG,001,201474,
AFNE01.JPG,AFNE01.JPG,AFNE01.JPG,AFNE01.JPG,AFNE01.JPG,AFNE01.JPG,3,7,37,4,,,,,,,,,,,,,,,,,,,,,,,AMSA13.jpg,AMSA03.jpg,AMNE09.jpg,AMNE16.jpg,AMSA03.jpg,MS,2,num_6,16,num_6,1.26676466328,,,2017_Sep_05_1537,60.0009429929,MAFE4ImagesEEG,001,201474,
AFNE01.JPG,AFNE01.JPG,AFNE01.JPG,AFNE01.JPG,AFNE01.JPG,AFNE01.JPG,3,8,38,0,,,,,,,,,,,,,,,,,,,,,,,AMSA05.jpg,AMNE10.jpg,AMSA13.jpg,AMNE15.jpg,AMSA13.jpg,MS,2,num_2,16,num_2,1.25007946335,,,2017_Sep_05_1537,60.0009429929,MAFE4ImagesEEG,001,201474,
AFNE01.JPG,AFNE01.JPG,AFNE01.JPG,AFNE01.JPG,AFNE01.JPG,AFNE01.JPG,3,9,39,1,,,,,,,,,,,,,,,,,,,,,,,AMNE06.jpg,AMSA06.jpg,AMSA10.jpg,AMNE13.jpg,AMNE06.jpg,MN,1,num_8,32,num_4,1.23347637255,,,2017_Sep_05_1537,60.0009429929,MAFE4ImagesEEG,001,201474,
AFNE01.JPG,AFNE01.JPG,AFNE01.JPG,AFNE01.JPG,AFNE01.JPG,AFNE01.JPG,4,0,40,9,,,,,,,,,,,,,,,,,,,,,,,AMNE14.jpg,AMSA10.jpg,AMSA07.jpg,AMNE12.jpg,AMSA10.jpg,MS,2,num_6,32,num_8,1.36676681228,,,2017_Sep_05_1537,60.0009429929,MAFE4ImagesEEG,001,201474,
AFNE01.JPG,AFNE01.JPG,AFNE01.JPG,AFNE01.JPG,AFNE01.JPG,AFNE01.JPG,4,1,41,7,,,,,,,,,,,,,,,,,,,,,,,AMNE19.jpg,AMSA04.jpg,AMNE12.jpg,AMSA09.jpg,AMNE19.jpg,MN,1,num_8,32,num_2,1.41671175731,,,2017_Sep_05_1537,60.0009429929,MAFE4ImagesEEG,001,201474,
AFNE01.JPG,AFNE01.JPG,AFNE01.JPG,AFNE01.JPG,AFNE01.JPG,AFNE01.JPG,4,2,42,6,,,,,,,,,,,,,,,,,,,,,,,AMNE01.jpg,AMNE02.jpg,AMSA03.jpg,AMSA02.jpg,AMSA03.jpg,MS,2,num_2,16,num_2,1.33340924175,,,2017_Sep_05_1537,60.0009429929,MAFE4ImagesEEG,001,201474,
AFNE01.JPG,AFNE01.JPG,AFNE01.JPG,AFNE01.JPG,AFNE01.JPG,AFNE01.JPG,4,3,43,8,,,,,,,,,,,,,,,,,,,,,,,AMSA13.jpg,AMNE19.jpg,AMSA11.jpg,AMNE12.jpg,AMNE19.jpg,MN,1,num_6,32,num_4,1.63345257367,,,2017_Sep_05_1537,60.0009429929,MAFE4ImagesEEG,001,201474,
AFNE01.JPG,AFNE01.JPG,AFNE01.JPG,AFNE01.JPG,AFNE01.JPG,AFNE01.JPG,4,4,44,2,,,,,,,,,,,,,,,,,,,,,,,AMSA14.jpg,AMNE14.jpg,AMSA13.jpg,AMNE20.jpg,AMSA13.jpg,MS,2,num_2,32,num_6,1.3000757267,,,2017_Sep_05_1537,60.0009429929,MAFE4ImagesEEG,001,201474,
AFNE01.JPG,AFNE01.JPG,AFNE01.JPG,AFNE01.JPG,AFNE01.JPG,AFNE01.JPG,4,5,45,1,,,,,,,,,,,,,,,,,,,,,,,AMSA07.jpg,AMNE06.jpg,AMNE17.jpg,AMSA04.jpg,AMNE17.jpg,MN,1,num_2,32,num_8,1.38343757915,,,2017_Sep_05_1537,60.0009429929,MAFE4ImagesEEG,001,201474,
AFNE01.JPG,AFNE01.JPG,AFNE01.JPG,AFNE01.JPG,AFNE01.JPG,AFNE01.JPG,4,6,46,5,,,,,,,,,,,,,,,,,,,,,,,AMNE05.jpg,AMSA12.jpg,AMSA08.jpg,AMNE03.jpg,AMSA08.jpg,MS,2,num_2,32,num_4,1.28341811011,,,2017_Sep_05_1537,60.0009429929,MAFE4ImagesEEG,001,201474,
AFNE01.JPG,AFNE01.JPG,AFNE01.JPG,AFNE01.JPG,AFNE01.JPG,AFNE01.JPG,4,7,47,4,,,,,,,,,,,,,,,,,,,,,,,AMNE13.jpg,AMSA08.jpg,AMSA19.jpg,AMNE15.jpg,AMNE13.jpg,MN,1,num_8,16,num_8,1.20011848118,,,2017_Sep_05_1537,60.0009429929,MAFE4ImagesEEG,001,201474,
AFNE01.JPG,AFNE01.JPG,AFNE01.JPG,AFNE01.JPG,AFNE01.JPG,AFNE01.JPG,4,8,48,0,,,,,,,,,,,,,,,,,,,,,,,AMNE10.jpg,AMSA06.jpg,AMSA05.jpg,AMNE20.jpg,AMSA06.jpg,MS,2,num_6,32,num_2,1.66672418592,,,2017_Sep_05_1537,60.0009429929,MAFE4ImagesEEG,001,201474,
AFNE01.JPG,AFNE01.JPG,AFNE01.JPG,AFNE01.JPG,AFNE01.JPG,AFNE01.JPG,4,9,49,3,,,,,,,,,,,,,,,,,,,,,,,AMNE09.jpg,AMNE12.jpg,AMSA17.jpg,AMSA08.jpg,AMNE12.jpg,MN,1,num_6,16,num_6,1.5500246489,,,2017_Sep_05_1537,60.0009429929,MAFE4ImagesEEG,001,201474,
AFNE01.JPG,AFNE01.JPG,AFNE01.JPG,AFNE01.JPG,AFNE01.JPG,AFNE01.JPG,5,0,50,8,,,,,,,,,,,,,,,,,,,,,,,AMSA19.jpg,AMNE18.jpg,AMSA08.jpg,AMNE03.jpg,AMNE18.jpg,MN,1,num_6,32,num_4,1.40004580165,,,2017_Sep_05_1537,60.0009429929,MAFE4ImagesEEG,001,201474,
AFNE01.JPG,AFNE01.JPG,AFNE01.JPG,AFNE01.JPG,AFNE01.JPG,AFNE01.JPG,5,1,51,7,,,,,,,,,,,,,,,,,,,,,,,AMSA16.jpg,AMNE11.jpg,AMNE01.jpg,AMSA17.jpg,AMNE11.jpg,MN,1,num_6,32,num_8,2.66672707268,,,2017_Sep_05_1537,60.0009429929,MAFE4ImagesEEG,001,201474,
AFNE01.JPG,AFNE01.JPG,AFNE01.JPG,AFNE01.JPG,AFNE01.JPG,AFNE01.JPG,5,2,52,6,,,,,,,,,,,,,,,,,,,,,,,AMNE20.jpg,AMSA10.jpg,AMSA13.jpg,AMNE17.jpg,AMSA10.jpg,MS,2,num_6,32,num_2,2.13342194306,,,2017_Sep_05_1537,60.0009429929,MAFE4ImagesEEG,001,201474,
AFNE01.JPG,AFNE01.JPG,AFNE01.JPG,AFNE01.JPG,AFNE01.JPG,AFNE01.JPG,5,3,53,1,,,,,,,,,,,,,,,,,,,,,,,AMNE04.jpg,AMSA14.jpg,AMNE14.jpg,AMSA10.jpg,AMSA10.jpg,MS,2,num_4,32,num_8,1.15013889642,,,2017_Sep_05_1537,60.0009429929,MAFE4ImagesEEG,001,201474,
AFNE01.JPG,AFNE01.JPG,AFNE01.JPG,AFNE01.JPG,AFNE01.JPG,AFNE01.JPG,5,4,54,9,,,,,,,,,,,,,,,,,,,,,,,AMSA12.jpg,AMSA10.jpg,AMNE17.jpg,AMNE20.jpg,AMSA12.jpg,MS,2,num_8,32,num_6,1.13348256284,,,2017_Sep_05_1537,60.0009429929,MAFE4ImagesEEG,001,201474,
AFNE01.JPG,AFNE01.JPG,AFNE01.JPG,AFNE01.JPG,AFNE01.JPG,AFNE01.JPG,5,5,55,2,,,,,,,,,,,,,,,,,,,,,,,AMNE04.jpg,AMSA10.jpg,AMSA02.jpg,AMNE01.jpg,AMSA10.jpg,MS,2,num_6,16,num_6,1.46670192666,,,2017_Sep_05_1537,60.0009429929,MAFE4ImagesEEG,001,201474,
AFNE01.JPG,AFNE01.JPG,AFNE01.JPG,AFNE01.JPG,AFNE01.JPG,AFNE01.JPG,5,6,56,3,,,,,,,,,,,,,,,,,,,,,,,AMNE05.jpg,AMSA02.jpg,AMNE04.jpg,AMSA14.jpg,AMSA14.jpg,MS,2,num_4,32,num_2,3.19991032116,,,2017_Sep_05_1537,60.0009429929,MAFE4ImagesEEG,001,201474,
AFNE01.JPG,AFNE01.JPG,AFNE01.JPG,AFNE01.JPG,AFNE01.JPG,AFNE01.JPG,5,7,57,5,,,,,,,,,,,,,,,,,,,,,,,AMNE19.jpg,AMSA17.jpg,AMSA12.jpg,AMNE08.jpg,AMSA17.jpg,MS,2,num_6,32,num_8,1.1332792138,,,2017_Sep_05_1537,60.0009429929,MAFE4ImagesEEG,001,201474,
AFNE01.JPG,AFNE01.JPG,AFNE01.JPG,AFNE01.JPG,AFNE01.JPG,AFNE01.JPG,5,8,58,4,,,,,,,,,,,,,,,,,,,,,,,AMSA03.jpg,AMNE05.jpg,AMSA14.jpg,AMNE01.jpg,AMNE01.jpg,MN,1,num_4,16,num_4,1.56670728303,,,2017_Sep_05_1537,60.0009429929,MAFE4ImagesEEG,001,201474,
AFNE01.JPG,AFNE01.JPG,AFNE01.JPG,AFNE01.JPG,AFNE01.JPG,AFNE01.JPG,5,9,59,0,,,,,,,,,,,,,,,,,,,,,,,AMNE16.jpg,AMNE04.jpg,AMSA13.jpg,AMSA10.jpg,AMSA13.jpg,MS,2,num_2,32,num_8,1.80009673513,,,2017_Sep_05_1537,60.0009429929,MAFE4ImagesEEG,001,201474,
,,,,,,,,,,,,,,,,,,,,,,,,,,,,,,,,,,,,,,,,,,,space,28.5813516163,2017_Sep_05_1537,60.0009429929,MAFE4ImagesEEG,001,201474,
AFNE01.JPG,AFNE01.JPG,AFNE01.JPG,AFNE01.JPG,AFNE01.JPG,AFNE01.JPG,,,,,0,0,0,6,,,,,,,,,,,,,,,,,,,AFNE14.jpg,AFNE17.jpg,AFSA06.jpg,AFSA10.jpg,AFNE14.jpg,FN,3,num_8,16,num_8,0.950067563797,,,2017_Sep_05_1537,60.0009429929,MAFE4ImagesEEG,001,201474,
AFNE01.JPG,AFNE01.JPG,AFNE01.JPG,AFNE01.JPG,AFNE01.JPG,AFNE01.JPG,,,,,0,1,1,3,,,,,,,,,,,,,,,,,,,AFSA11.jpg,AFNE20.jpg,AFNE12.jpg,AFSA08.jpg,AFSA08.jpg,FS,4,num_4,32,num_2,1.28337833844,,,2017_Sep_05_1537,60.0009429929,MAFE4ImagesEEG,001,201474,
AFNE01.JPG,AFNE01.JPG,AFNE01.JPG,AFNE01.JPG,AFNE01.JPG,AFNE01.JPG,,,,,0,2,2,1,,,,,,,,,,,,,,,,,,,AFSA07.jpg,AFNE12.jpg,AFSA12.jpg,AFNE08.jpg,AFSA07.jpg,FS,4,num_8,32,num_6,1.03340439859,,,2017_Sep_05_1537,60.0009429929,MAFE4ImagesEEG,001,201474,
AFNE01.JPG,AFNE01.JPG,AFNE01.JPG,AFNE01.JPG,AFNE01.JPG,AFNE01.JPG,,,,,0,3,3,7,,,,,,,,,,,,,,,,,,,AFSA04.jpg,AFNE17.jpg,AFSA20.jpg,AFNE01.jpg,AFNE17.jpg,FN,3,num_6,32,num_4,1.08348020539,,,2017_Sep_05_1537,60.0009429929,MAFE4ImagesEEG,001,201474,
AFNE01.JPG,AFNE01.JPG,AFNE01.JPG,AFNE01.JPG,AFNE01.JPG,AFNE01.JPG,,,,,0,4,4,0,,,,,,,,,,,,,,,,,,,AFNE12.jpg,AFNE11.jpg,AFSA11.jpg,AFSA09.jpg,AFSA09.jpg,FS,4,num_4,32,num_2,1.25016638369,,,2017_Sep_05_1537,60.0009429929,MAFE4ImagesEEG,001,201474,
AFNE01.JPG,AFNE01.JPG,AFNE01.JPG,AFNE01.JPG,AFNE01.JPG,AFNE01.JPG,,,,,0,5,5,5,,,,,,,,,,,,,,,,,,,AFNE07.jpg,AFNE01.jpg,AFSA06.jpg,AFSA02.jpg,AFSA02.jpg,FS,4,num_4,16,num_4,1.20008352061,,,2017_Sep_05_1537,60.0009429929,MAFE4ImagesEEG,001,201474,
AFNE01.JPG,AFNE01.JPG,AFNE01.JPG,AFNE01.JPG,AFNE01.JPG,AFNE01.JPG,,,,,0,6,6,9,,,,,,,,,,,,,,,,,,,AFNE03.jpg,AFSA13.jpg,AFNE10.jpg,AFSA19.jpg,AFNE10.jpg,FN,3,num_2,32,num_8,1.30011261173,,,2017_Sep_05_1537,60.0009429929,MAFE4ImagesEEG,001,201474,
AFNE01.JPG,AFNE01.JPG,AFNE01.JPG,AFNE01.JPG,AFNE01.JPG,AFNE01.JPG,,,,,0,7,7,2,,,,,,,,,,,,,,,,,,,AFSA13.jpg,AFNE19.jpg,AFSA05.jpg,AFNE15.jpg,AFSA13.jpg,FS,4,num_8,32,num_2,1.28342933604,,,2017_Sep_05_1537,60.0009429929,MAFE4ImagesEEG,001,201474,
AFNE01.JPG,AFNE01.JPG,AFNE01.JPG,AFNE01.JPG,AFNE01.JPG,AFNE01.JPG,,,,,0,8,8,8,,,,,,,,,,,,,,,,,,,AFSA20.jpg,AFNE17.jpg,AFSA06.jpg,AFNE15.jpg,AFNE17.jpg,FN,3,num_6,32,num_2,1.31671153288,,,2017_Sep_05_1537,60.0009429929,MAFE4ImagesEEG,001,201474,
AFNE01.JPG,AFNE01.JPG,AFNE01.JPG,AFNE01.JPG,AFNE01.JPG,AFNE01.JPG,,,,,0,9,9,4,,,,,,,,,,,,,,,,,,,AFSA14.jpg,AFNE17.jpg,AFNE13.jpg,AFSA05.jpg,AFSA05.jpg,FS,4,num_4,32,num_8,1.53341963363,,,2017_Sep_05_1537,60.0009429929,MAFE4ImagesEEG,001,201474,
AFNE01.JPG,AFNE01.JPG,AFNE01.JPG,AFNE01.JPG,AFNE01.JPG,AFNE01.JPG,,,,,1,0,10,9,,,,,,,,,,,,,,,,,,,AFNE12.jpg,AFNE10.jpg,AFSA17.jpg,AFSA09.jpg,AFNE10.jpg,FN,3,num_6,32,num_2,1.98341743671,,,2017_Sep_05_1537,60.0009429929,MAFE4ImagesEEG,001,201474,
AFNE01.JPG,AFNE01.JPG,AFNE01.JPG,AFNE01.JPG,AFNE01.JPG,AFNE01.JPG,,,,,1,1,11,2,,,,,,,,,,,,,,,,,,,AFSA03.jpg,AFNE11.jpg,AFSA01.jpg,AFNE04.jpg,AFNE11.jpg,FN,3,num_6,16,num_6,1.20007710578,,,2017_Sep_05_1537,60.0009429929,MAFE4ImagesEEG,001,201474,
AFNE01.JPG,AFNE01.JPG,AFNE01.JPG,AFNE01.JPG,AFNE01.JPG,AFNE01.JPG,,,,,1,2,12,7,,,,,,,,,,,,,,,,,,,AFNE08.jpg,AFSA15.jpg,AFSA20.jpg,AFNE13.jpg,AFSA20.jpg,FS,4,num_2,32,num_4,1.20010468946,,,2017_Sep_05_1537,60.0009429929,MAFE4ImagesEEG,001,201474,
AFNE01.JPG,AFNE01.JPG,AFNE01.JPG,AFNE01.JPG,AFNE01.JPG,AFNE01.JPG,,,,,1,3,13,8,,,,,,,,,,,,,,,,,,,AFNE14.jpg,AFSA12.jpg,AFNE15.jpg,AFSA05.jpg,AFSA05.jpg,FS,4,num_4,16,num_4,1.28340143175,,,2017_Sep_05_1537,60.0009429929,MAFE4ImagesEEG,001,201474,
AFNE01.JPG,AFNE01.JPG,AFNE01.JPG,AFNE01.JPG,AFNE01.JPG,AFNE01.JPG,,,,,1,4,14,5,,,,,,,,,,,,,,,,,,,AFSA14.jpg,AFNE07.jpg,AFSA04.jpg,AFNE20.jpg,AFSA14.jpg,FS,4,num_8,32,num_2,1.66654104355,,,2017_Sep_05_1537,60.0009429929,MAFE4ImagesEEG,001,201474,
AFNE01.JPG,AFNE01.JPG,AFNE01.JPG,AFNE01.JPG,AFNE01.JPG,AFNE01.JPG,,,,,1,5,15,6,,,,,,,,,,,,,,,,,,,AFNE14.jpg,AFNE01.jpg,AFSA20.jpg,AFSA08.jpg,AFNE01.jpg,FN,3,num_6,32,num_8,1.26649620419,,,2017_Sep_05_1537,60.0009429929,MAFE4ImagesEEG,001,201474,
AFNE01.JPG,AFNE01.JPG,AFNE01.JPG,AFNE01.JPG,AFNE01.JPG,AFNE01.JPG,,,,,1,6,16,3,,,,,,,,,,,,,,,,,,,AFNE17.jpg,AFSA18.jpg,AFSA01.jpg,AFNE19.jpg,AFSA18.jpg,FS,4,num_6,16,num_6,1.10027189099,,,2017_Sep_05_1537,60.0009429929,MAFE4ImagesEEG,001,201474,
AFNE01.JPG,AFNE01.JPG,AFNE01.JPG,AFNE01.JPG,AFNE01.JPG,AFNE01.JPG,,,,,1,7,17,4,,,,,,,,,,,,,,,,,,,AFSA09.jpg,AFNE17.jpg,AFSA17.jpg,AFNE16.jpg,AFNE17.jpg,FN,3,num_6,32,num_8,1.90002511383,,,2017_Sep_05_1537,60.0009429929,MAFE4ImagesEEG,001,201474,
AFNE01.JPG,AFNE01.JPG,AFNE01.JPG,AFNE01.JPG,AFNE01.JPG,AFNE01.JPG,,,,,1,8,18,1,,,,,,,,,,,,,,,,,,,AFNE14.jpg,AFSA06.jpg,AFNE01.jpg,AFSA17.jpg,AFNE14.jpg,FN,3,num_8,32,num_2,1.50006110093,,,2017_Sep_05_1537,60.0009429929,MAFE4ImagesEEG,001,201474,
AFNE01.JPG,AFNE01.JPG,AFNE01.JPG,AFNE01.JPG,AFNE01.JPG,AFNE01.JPG,,,,,1,9,19,0,,,,,,,,,,,,,,,,,,,AFNE13.jpg,AFSA18.jpg,AFSA10.jpg,AFNE08.jpg,AFNE08.jpg,FN,3,num_4,32,num_8,1.68342414009,,,2017_Sep_05_1537,60.0009429929,MAFE4ImagesEEG,001,201474,
AFNE01.JPG,AFNE01.JPG,AFNE01.JPG,AFNE01.JPG,AFNE01.JPG,AFNE01.JPG,,,,,2,0,20,5,,,,,,,,,,,,,,,,,,,AFNE16.jpg,AFSA10.jpg,AFNE15.jpg,AFSA20.jpg,AFSA10.jpg,FS,4,num_6,16,num_6,1.08349688386,,,2017_Sep_05_1537,60.0009429929,MAFE4ImagesEEG,001,201474,
AFNE01.JPG,AFNE01.JPG,AFNE01.JPG,AFNE01.JPG,AFNE01.JPG,AFNE01.JPG,,,,,2,1,21,6,,,,,,,,,,,,,,,,,,,AFSA12.jpg,AFNE17.jpg,AFSA07.jpg,AFNE20.jpg,AFSA07.jpg,FS,4,num_2,32,num_8,1.38344110723,,,2017_Sep_05_1537,60.0009429929,MAFE4ImagesEEG,001,201474,
AFNE01.JPG,AFNE01.JPG,AFNE01.JPG,AFNE01.JPG,AFNE01.JPG,AFNE01.JPG,,,,,2,2,22,7,,,,,,,,,,,,,,,,,,,AFSA16.jpg,AFSA01.jpg,AFNE11.jpg,AFNE18.jpg,AFSA16.jpg,FS,4,num_8,32,num_2,2.00005324278,,,2017_Sep_05_1537,60.0009429929,MAFE4ImagesEEG,001,201474,
AFNE01.JPG,AFNE01.JPG,AFNE01.JPG,AFNE01.JPG,AFNE01.JPG,AFNE01.JPG,,,,,2,3,23,8,,,,,,,,,,,,,,,,,,,AFNE03.jpg,AFNE15.jpg,AFSA02.jpg,AFSA03.jpg,AFNE15.jpg,FN,3,num_6,32,num_4,1.40007338522,,,2017_Sep_05_1537,60.0009429929,MAFE4ImagesEEG,001,201474,
AFNE01.JPG,AFNE01.JPG,AFNE01.JPG,AFNE01.JPG,AFNE01.JPG,AFNE01.JPG,,,,,2,4,24,9,,,,,,,,,,,,,,,,,,,AFSA17.jpg,AFSA06.jpg,AFNE16.jpg,AFNE17.jpg,AFSA17.jpg,FS,4,num_8,16,num_8,2.11666393513,,,2017_Sep_05_1537,60.0009429929,MAFE4ImagesEEG,001,201474,
AFNE01.JPG,AFNE01.JPG,AFNE01.JPG,AFNE01.JPG,AFNE01.JPG,AFNE01.JPG,,,,,2,5,25,4,,,,,,,,,,,,,,,,,,,AFNE03.jpg,AFSA03.jpg,AFNE08.jpg,AFSA19.jpg,AFSA19.jpg,FS,4,num_4,32,num_6,1.86668839143,,,2017_Sep_05_1537,60.0009429929,MAFE4ImagesEEG,001,201474,
AFNE01.JPG,AFNE01.JPG,AFNE01.JPG,AFNE01.JPG,AFNE01.JPG,AFNE01.JPG,,,,,2,6,26,0,,,,,,,,,,,,,,,,,,,AFSA03.jpg,AFNE12.jpg,AFNE08.jpg,AFSA20.jpg,AFSA20.jpg,FS,4,num_4,32,num_2,1.60009019205,,,2017_Sep_05_1537,60.0009429929,MAFE4ImagesEEG,001,201474,
AFNE01.JPG,AFNE01.JPG,AFNE01.JPG,AFNE01.JPG,AFNE01.JPG,AFNE01.JPG,,,,,2,7,27,3,,,,,,,,,,,,,,,,,,,AFSA14.jpg,AFNE19.jpg,AFNE02.jpg,AFSA08.jpg,AFNE19.jpg,FN,3,num_6,32,num_8,1.90008348855,,,2017_Sep_05_1537,60.0009429929,MAFE4ImagesEEG,001,201474,
AFNE01.JPG,AFNE01.JPG,AFNE01.JPG,AFNE01.JPG,AFNE01.JPG,AFNE01.JPG,,,,,2,8,28,2,,,,,,,,,,,,,,,,,,,AFSA08.jpg,AFNE03.jpg,AFNE16.jpg,AFSA05.jpg,AFNE16.jpg,FN,3,num_2,16,num_2,1.58343000966,,,2017_Sep_05_1537,60.0009429929,MAFE4ImagesEEG,001,201474,
AFNE01.JPG,AFNE01.JPG,AFNE01.JPG,AFNE01.JPG,AFNE01.JPG,AFNE01.JPG,,,,,2,9,29,1,,,,,,,,,,,,,,,,,,,AFNE07.jpg,AFNE16.jpg,AFSA10.jpg,AFSA05.jpg,AFSA10.jpg,FS,4,num_2,32,num_4,1.05015984061,,,2017_Sep_05_1537,60.0009429929,MAFE4ImagesEEG,001,201474,
AFNE01.JPG,AFNE01.JPG,AFNE01.JPG,AFNE01.JPG,AFNE01.JPG,AFNE01.JPG,,,,,3,0,30,3,,,,,,,,,,,,,,,,,,,AFNE12.jpg,AFNE03.jpg,AFSA18.jpg,AFSA15.jpg,AFSA18.jpg,FS,4,num_2,32,num_6,0.999998396379,,,2017_Sep_05_1537,60.0009429929,MAFE4ImagesEEG,001,201474,
AFNE01.JPG,AFNE01.JPG,AFNE01.JPG,AFNE01.JPG,AFNE01.JPG,AFNE01.JPG,,,,,3,1,31,7,,,,,,,,,,,,,,,,,,,AFSA11.jpg,AFNE03.jpg,AFNE19.jpg,AFSA01.jpg,AFSA11.jpg,FS,4,num_8,16,num_8,1.13343316887,,,2017_Sep_05_1537,60.0009429929,MAFE4ImagesEEG,001,201474,
AFNE01.JPG,AFNE01.JPG,AFNE01.JPG,AFNE01.JPG,AFNE01.JPG,AFNE01.JPG,,,,,3,2,32,9,,,,,,,,,,,,,,,,,,,AFNE10.jpg,AFNE09.jpg,AFSA05.jpg,AFSA16.jpg,AFSA05.jpg,FS,4,num_2,16,num_2,1.250124046,,,2017_Sep_05_1537,60.0009429929,MAFE4ImagesEEG,001,201474,
AFNE01.JPG,AFNE01.JPG,AFNE01.JPG,AFNE01.JPG,AFNE01.JPG,AFNE01.JPG,,,,,3,3,33,6,,,,,,,,,,,,,,,,,,,AFSA15.jpg,AFNE03.jpg,AFNE01.jpg,AFSA07.jpg,AFSA15.jpg,FS,4,num_8,16,num_8,1.08350939269,,,2017_Sep_05_1537,60.0009429929,MAFE4ImagesEEG,001,201474,
AFNE01.JPG,AFNE01.JPG,AFNE01.JPG,AFNE01.JPG,AFNE01.JPG,AFNE01.JPG,,,,,3,4,34,4,,,,,,,,,,,,,,,,,,,AFSA13.jpg,AFSA09.jpg,AFNE17.jpg,AFNE10.jpg,AFSA13.jpg,FS,4,num_8,32,num_2,1.61658679717,,,2017_Sep_05_1537,60.0009429929,MAFE4ImagesEEG,001,201474,
AFNE01.JPG,AFNE01.JPG,AFNE01.JPG,AFNE01.JPG,AFNE01.JPG,AFNE01.JPG,,,,,3,5,35,0,,,,,,,,,,,,,,,,,,,AFNE08.jpg,AFSA03.jpg,AFSA13.jpg,AFNE13.jpg,AFSA13.jpg,FS,4,num_2,32,num_8,1.56647442607,,,2017_Sep_05_1537,60.0009429929,MAFE4ImagesEEG,001,201474,
AFNE01.JPG,AFNE01.JPG,AFNE01.JPG,AFNE01.JPG,AFNE01.JPG,AFNE01.JPG,,,,,3,6,36,1,,,,,,,,,,,,,,,,,,,AFSA17.jpg,AFNE07.jpg,AFSA14.jpg,AFNE02.jpg,AFSA14.jpg,FS,4,num_2,32,num_4,1.35011336545,,,2017_Sep_05_1537,60.0009429929,MAFE4ImagesEEG,001,201474,
AFNE01.JPG,AFNE01.JPG,AFNE01.JPG,AFNE01.JPG,AFNE01.JPG,AFNE01.JPG,,,,,3,7,37,5,,,,,,,,,,,,,,,,,,,AFSA17.jpg,AFNE05.jpg,AFSA04.jpg,AFNE09.jpg,AFSA04.jpg,FS,4,num_2,16,num_2,1.53338339005,,,2017_Sep_05_1537,60.0009429929,MAFE4ImagesEEG,001,201474,
AFNE01.JPG,AFNE01.JPG,AFNE01.JPG,AFNE01.JPG,AFNE01.JPG,AFNE01.JPG,,,,,3,8,38,8,,,,,,,,,,,,,,,,,,,AFNE20.jpg,AFSA03.jpg,AFNE04.jpg,AFSA16.jpg,AFNE04.jpg,FN,3,num_2,32,num_8,1.30012768647,,,2017_Sep_05_1537,60.0009429929,MAFE4ImagesEEG,001,201474,
AFNE01.JPG,AFNE01.JPG,AFNE01.JPG,AFNE01.JPG,AFNE01.JPG,AFNE01.JPG,,,,,3,9,39,2,,,,,,,,,,,,,,,,,,,AFNE11.jpg,AFSA06.jpg,AFNE04.jpg,AFSA08.jpg,AFSA08.jpg,FS,4,num_4,32,num_6,1.11675053486,,,2017_Sep_05_1537,60.0009429929,MAFE4ImagesEEG,001,201474,
AFNE01.JPG,AFNE01.JPG,AFNE01.JPG,AFNE01.JPG,AFNE01.JPG,AFNE01.JPG,,,,,4,0,40,2,,,,,,,,,,,,,,,,,,,AFNE07.jpg,AFSA19.jpg,AFNE02.jpg,AFSA04.jpg,AFNE02.jpg,FN,3,num_2,16,num_2,1.65008773841,,,2017_Sep_05_1537,60.0009429929,MAFE4ImagesEEG,001,201474,
AFNE01.JPG,AFNE01.JPG,AFNE01.JPG,AFNE01.JPG,AFNE01.JPG,AFNE01.JPG,,,,,4,1,41,8,,,,,,,,,,,,,,,,,,,AFSA20.jpg,AFNE01.jpg,AFNE03.jpg,AFSA08.jpg,AFNE01.jpg,FN,3,num_6,32,num_8,1.58341557637,,,2017_Sep_05_1537,60.0009429929,MAFE4ImagesEEG,001,201474,
AFNE01.JPG,AFNE01.JPG,AFNE01.JPG,AFNE01.JPG,AFNE01.JPG,AFNE01.JPG,,,,,4,2,42,4,,,,,,,,,,,,,,,,,,,AFSA03.jpg,AFSA18.jpg,AFNE01.jpg,AFNE06.jpg,AFSA18.jpg,FS,4,num_6,16,num_6,1.78339998832,,,2017_Sep_05_1537,60.0009429929,MAFE4ImagesEEG,001,201474,
AFNE01.JPG,AFNE01.JPG,AFNE01.JPG,AFNE01.JPG,AFNE01.JPG,AFNE01.JPG,,,,,4,3,43,5,,,,,,,,,,,,,,,,,,,AFSA13.jpg,AFSA11.jpg,AFNE09.jpg,AFNE12.jpg,AFNE12.jpg,FN,3,num_4,32,num_2,1.2166099546,,,2017_Sep_05_1537,60.0009429929,MAFE4ImagesEEG,001,201474,
AFNE01.JPG,AFNE01.JPG,AFNE01.JPG,AFNE01.JPG,AFNE01.JPG,AFNE01.JPG,,,,,4,4,44,9,,,,,,,,,,,,,,,,,,,AFSA15.jpg,AFNE09.jpg,AFNE01.jpg,AFSA04.jpg,AFNE01.jpg,FN,3,num_2,32,num_8,1.58345791395,,,2017_Sep_05_1537,60.0009429929,MAFE4ImagesEEG,001,201474,
AFNE01.JPG,AFNE01.JPG,AFNE01.JPG,AFNE01.JPG,AFNE01.JPG,AFNE01.JPG,,,,,4,5,45,7,,,,,,,,,,,,,,,,,,,AFSA18.jpg,AFNE15.jpg,AFSA17.jpg,AFNE13.jpg,AFSA18.jpg,FS,4,num_8,16,num_8,1.63310040149,,,2017_Sep_05_1537,60.0009429929,MAFE4ImagesEEG,001,201474,
AFNE01.JPG,AFNE01.JPG,AFNE01.JPG,AFNE01.JPG,AFNE01.JPG,AFNE01.JPG,,,,,4,6,46,1,,,,,,,,,,,,,,,,,,,AFSA17.jpg,AFSA18.jpg,AFNE16.jpg,AFNE10.jpg,AFSA17.jpg,FS,4,num_8,32,num_4,1.60006485356,,,2017_Sep_05_1537,60.0009429929,MAFE4ImagesEEG,001,201474,
AFNE01.JPG,AFNE01.JPG,AFNE01.JPG,AFNE01.JPG,AFNE01.JPG,AFNE01.JPG,,,,,4,7,47,6,,,,,,,,,,,,,,,,,,,AFNE16.jpg,AFSA09.jpg,AFNE15.jpg,AFSA13.jpg,AFNE15.jpg,FN,3,num_2,16,num_2,1.20009057689,,,2017_Sep_05_1537,60.0009429929,MAFE4ImagesEEG,001,201474,
AFNE01.JPG,AFNE01.JPG,AFNE01.JPG,AFNE01.JPG,AFNE01.JPG,AFNE01.JPG,,,,,4,8,48,0,,,,,,,,,,,,,,,,,,,AFSA07.jpg,AFNE03.jpg,AFSA20.jpg,AFNE08.jpg,AFSA07.jpg,FS,4,num_8,16,num_8,1.65005213616,,,2017_Sep_05_1537,60.0009429929,MAFE4ImagesEEG,001,201474,
AFNE01.JPG,AFNE01.JPG,AFNE01.JPG,AFNE01.JPG,AFNE01.JPG,AFNE01.JPG,,,,,4,9,49,3,,,,,,,,,,,,,,,,,,,AFNE15.jpg,AFNE17.jpg,AFSA09.jpg,AFSA13.jpg,AFNE15.jpg,FN,3,num_8,32,num_6,1.25012436684,,,2017_Sep_05_1537,60.0009429929,MAFE4ImagesEEG,001,201474,
AFNE01.JPG,AFNE01.JPG,AFNE01.JPG,AFNE01.JPG,AFNE01.JPG,AFNE01.JPG,,,,,5,0,50,7,,,,,,,,,,,,,,,,,,,AFNE06.jpg,AFNE08.jpg,AFSA13.jpg,AFSA20.jpg,AFNE06.jpg,FN,3,num_8,32,num_2,2.83332440606,,,2017_Sep_05_1537,60.0009429929,MAFE4ImagesEEG,001,201474,
AFNE01.JPG,AFNE01.JPG,AFNE01.JPG,AFNE01.JPG,AFNE01.JPG,AFNE01.JPG,,,,,5,1,51,5,,,,,,,,,,,,,,,,,,,AFNE18.jpg,AFNE04.jpg,AFSA15.jpg,AFSA19.jpg,AFNE18.jpg,FN,3,num_8,16,num_8,1.11672936601,,,2017_Sep_05_1537,60.0009429929,MAFE4ImagesEEG,001,201474,
AFNE01.JPG,AFNE01.JPG,AFNE01.JPG,AFNE01.JPG,AFNE01.JPG,AFNE01.JPG,,,,,5,2,52,3,,,,,,,,,,,,,,,,,,,AFNE12.jpg,AFNE01.jpg,AFSA07.jpg,AFSA02.jpg,AFSA07.jpg,FS,4,num_2,32,num_8,1.16673268564,,,2017_Sep_05_1537,60.0009429929,MAFE4ImagesEEG,001,201474,
AFNE01.JPG,AFNE01.JPG,AFNE01.JPG,AFNE01.JPG,AFNE01.JPG,AFNE01.JPG,,,,,5,3,53,2,,,,,,,,,,,,,,,,,,,AFSA12.jpg,AFSA05.jpg,AFNE08.jpg,AFNE03.jpg,AFNE08.jpg,FN,3,num_2,16,num_2,1.26679128467,,,2017_Sep_05_1537,60.0009429929,MAFE4ImagesEEG,001,201474,
AFNE01.JPG,AFNE01.JPG,AFNE01.JPG,AFNE01.JPG,AFNE01.JPG,AFNE01.JPG,,,,,5,4,54,1,,,,,,,,,,,,,,,,,,,AFNE08.jpg,AFNE04.jpg,AFSA19.jpg,AFSA03.jpg,AFNE08.jpg,FN,3,num_8,16,num_8,1.10015866999,,,2017_Sep_05_1537,60.0009429929,MAFE4ImagesEEG,001,201474,
AFNE01.JPG,AFNE01.JPG,AFNE01.JPG,AFNE01.JPG,AFNE01.JPG,AFNE01.JPG,,,,,5,5,55,9,,,,,,,,,,,,,,,,,,,AFSA12.jpg,AFNE01.jpg,AFSA13.jpg,AFNE19.jpg,AFSA12.jpg,FS,4,num_8,32,num_6,1.78310426639,,,2017_Sep_05_1537,60.0009429929,MAFE4ImagesEEG,001,201474,
AFNE01.JPG,AFNE01.JPG,AFNE01.JPG,AFNE01.JPG,AFNE01.JPG,AFNE01.JPG,,,,,5,6,56,8,,,,,,,,,,,,,,,,,,,AFNE16.jpg,AFNE02.jpg,AFSA19.jpg,AFSA16.jpg,AFSA16.jpg,FS,4,num_4,32,num_8,1.36673185171,,,2017_Sep_05_1537,60.0009429929,MAFE4ImagesEEG,001,201474,
AFNE01.JPG,AFNE01.JPG,AFNE01.JPG,AFNE01.JPG,AFNE01.JPG,AFNE01.JPG,,,,,5,7,57,0,,,,,,,,,,,,,,,,,,,AFSA12.jpg,AFNE19.jpg,AFSA14.jpg,AFNE06.jpg,AFSA12.jpg,FS,4,num_8,32,num_4,1.08342920779,,,2017_Sep_05_1537,60.0009429929,MAFE4ImagesEEG,001,201474,
AFNE01.JPG,AFNE01.JPG,AFNE01.JPG,AFNE01.JPG,AFNE01.JPG,AFNE01.JPG,,,,,5,8,58,6,,,,,,,,,,,,,,,,,,,AFSA13.jpg,AFNE04.jpg,AFNE18.jpg,AFSA10.jpg,AFNE04.jpg,FN,3,num_6,32,num_2,1.03343551036,,,2017_Sep_05_1537,60.0009429929,MAFE4ImagesEEG,001,201474,
AFNE01.JPG,AFNE01.JPG,AFNE01.JPG,AFNE01.JPG,AFNE01.JPG,AFNE01.JPG,,,,,5,9,59,4,,,,,,,,,,,,,,,,,,,AFSA19.jpg,AFSA07.jpg,AFNE11.jpg,AFNE01.jpg,AFNE11.jpg,FN,3,num_2,16,num_2,1.21684120782,,,2017_Sep_05_1537,60.0009429929,MAFE4ImagesEEG,001,201474,
,,,,,,,,,,,,,,,,,,,,,,,,,,,,,,,,,,,,,,,,,,,space,20.7652406687,2017_Sep_05_1537,60.0009429929,MAFE4ImagesEEG,001,201474,
AFNE01.JPG,AFNE01.JPG,AFNE01.JPG,AFNE01.JPG,AFNE01.JPG,AFNE01.JPG,,,,,,,,,0,0,0,3,,,,,,,,,,,,,,,AMSA06.jpg,AMNE10.jpg,AMNE01.jpg,AMSA16.jpg,AMNE10.jpg,MN,1,num_6,32,num_8,1.04995296348,,,2017_Sep_05_1537,60.0009429929,MAFE4ImagesEEG,001,201474,
AFNE01.JPG,AFNE01.JPG,AFNE01.JPG,AFNE01.JPG,AFNE01.JPG,AFNE01.JPG,,,,,,,,,0,1,1,7,,,,,,,,,,,,,,,AMNE20.jpg,AMNE18.jpg,AMSA05.jpg,AMSA02.jpg,AMSA02.jpg,MS,2,num_4,32,num_2,0.983148336061,,,2017_Sep_05_1537,60.0009429929,MAFE4ImagesEEG,001,201474,
AFNE01.JPG,AFNE01.JPG,AFNE01.JPG,AFNE01.JPG,AFNE01.JPG,AFNE01.JPG,,,,,,,,,0,2,2,9,,,,,,,,,,,,,,,AMNE11.jpg,AMNE20.jpg,AMSA02.jpg,AMSA10.jpg,AMSA02.jpg,MS,2,num_2,16,num_2,0.966763348319,,,2017_Sep_05_1537,60.0009429929,MAFE4ImagesEEG,001,201474,
AFNE01.JPG,AFNE01.JPG,AFNE01.JPG,AFNE01.JPG,AFNE01.JPG,AFNE01.JPG,,,,,,,,,0,3,3,0,,,,,,,,,,,,,,,AMNE06.jpg,AMSA13.jpg,AMSA20.jpg,AMNE02.jpg,AMSA20.jpg,MS,2,num_2,32,num_8,1.25009999063,,,2017_Sep_05_1537,60.0009429929,MAFE4ImagesEEG,001,201474,
AFNE01.JPG,AFNE01.JPG,AFNE01.JPG,AFNE01.JPG,AFNE01.JPG,AFNE01.JPG,,,,,,,,,0,4,4,5,,,,,,,,,,,,,,,AMSA04.jpg,AMNE15.jpg,AMSA19.jpg,AMNE04.jpg,AMSA04.jpg,MS,2,num_8,16,num_8,1.00010680628,,,2017_Sep_05_1537,60.0009429929,MAFE4ImagesEEG,001,201474,
AFNE01.JPG,AFNE01.JPG,AFNE01.JPG,AFNE01.JPG,AFNE01.JPG,AFNE01.JPG,,,,,,,,,0,5,5,8,,,,,,,,,,,,,,,AMSA08.jpg,AMSA10.jpg,AMNE18.jpg,AMNE09.jpg,AMSA10.jpg,MS,2,num_6,32,num_2,1.16675738257,,,2017_Sep_05_1537,60.0009429929,MAFE4ImagesEEG,001,201474,
AFNE01.JPG,AFNE01.JPG,AFNE01.JPG,AFNE01.JPG,AFNE01.JPG,AFNE01.JPG,,,,,,,,,0,6,6,1,,,,,,,,,,,,,,,AMNE19.jpg,AMNE01.jpg,AMSA13.jpg,AMSA05.jpg,AMNE19.jpg,MN,1,num_8,32,num_2,1.36671100359,,,2017_Sep_05_1537,60.0009429929,MAFE4ImagesEEG,001,201474,
AFNE01.JPG,AFNE01.JPG,AFNE01.JPG,AFNE01.JPG,AFNE01.JPG,AFNE01.JPG,,,,,,,,,0,7,7,4,,,,,,,,,,,,,,,AMNE04.jpg,AMSA09.jpg,AMSA01.jpg,AMNE07.jpg,AMSA09.jpg,MS,2,num_6,32,num_4,1.18341403687,,,2017_Sep_05_1537,60.0009429929,MAFE4ImagesEEG,001,201474,
AFNE01.JPG,AFNE01.JPG,AFNE01.JPG,AFNE01.JPG,AFNE01.JPG,AFNE01.JPG,,,,,,,,,0,8,8,2,,,,,,,,,,,,,,,AMSA08.jpg,AMNE07.jpg,AMNE18.jpg,AMSA11.jpg,AMSA11.jpg,MS,2,num_4,16,num_4,1.25008363288,,,2017_Sep_05_1537,60.0009429929,MAFE4ImagesEEG,001,201474,
AFNE01.JPG,AFNE01.JPG,AFNE01.JPG,AFNE01.JPG,AFNE01.JPG,AFNE01.JPG,,,,,,,,,0,9,9,6,,,,,,,,,,,,,,,AMSA01.jpg,AMSA04.jpg,AMNE02.jpg,AMNE01.jpg,AMNE02.jpg,MN,1,num_2,16,num_2,1.05016529316,,,2017_Sep_05_1537,60.0009429929,MAFE4ImagesEEG,001,201474,
AFNE01.JPG,AFNE01.JPG,AFNE01.JPG,AFNE01.JPG,AFNE01.JPG,AFNE01.JPG,,,,,,,,,1,0,10,7,,,,,,,,,,,,,,,AMSA11.jpg,AMNE02.jpg,AMNE17.jpg,AMSA16.jpg,AMNE02.jpg,MN,1,num_6,32,num_2,1.13345209265,,,2017_Sep_05_1537,60.0009429929,MAFE4ImagesEEG,001,201474,
AFNE01.JPG,AFNE01.JPG,AFNE01.JPG,AFNE01.JPG,AFNE01.JPG,AFNE01.JPG,,,,,,,,,1,1,11,8,,,,,,,,,,,,,,,AMSA05.jpg,AMNE16.jpg,AMSA18.jpg,AMNE05.jpg,AMNE16.jpg,MN,1,num_6,32,num_8,1.26668993093,,,2017_Sep_05_1537,60.0009429929,MAFE4ImagesEEG,001,201474,
AFNE01.JPG,AFNE01.JPG,AFNE01.JPG,AFNE01.JPG,AFNE01.JPG,AFNE01.JPG,,,,,,,,,1,2,12,0,,,,,,,,,,,,,,,AMSA20.jpg,AMNE05.jpg,AMNE08.jpg,AMSA02.jpg,AMNE05.jpg,MN,1,num_6,16,num_6,1.01679489308,,,2017_Sep_05_1537,60.0009429929,MAFE4ImagesEEG,001,201474,
AFNE01.JPG,AFNE01.JPG,AFNE01.JPG,AFNE01.JPG,AFNE01.JPG,AFNE01.JPG,,,,,,,,,1,3,13,6,,,,,,,,,,,,,,,AMSA07.jpg,AMNE07.jpg,AMSA10.jpg,AMNE20.jpg,AMNE20.jpg,MN,1,num_4,16,num_4,1.13343381044,,,2017_Sep_05_1537,60.0009429929,MAFE4ImagesEEG,001,201474,
AFNE01.JPG,AFNE01.JPG,AFNE01.JPG,AFNE01.JPG,AFNE01.JPG,AFNE01.JPG,,,,,,,,,1,4,14,4,,,,,,,,,,,,,,,AMSA15.jpg,AMNE08.jpg,AMNE10.jpg,AMSA12.jpg,AMSA15.jpg,MS,2,num_8,16,num_8,1.11682238046,,,2017_Sep_05_1537,60.0009429929,MAFE4ImagesEEG,001,201474,
AFNE01.JPG,AFNE01.JPG,AFNE01.JPG,AFNE01.JPG,AFNE01.JPG,AFNE01.JPG,,,,,,,,,1,5,15,2,,,,,,,,,,,,,,,AMSA19.jpg,AMSA11.jpg,AMNE04.jpg,AMNE13.jpg,AMSA11.jpg,MS,2,num_6,16,num_6,1.15014050005,,,2017_Sep_05_1537,60.0009429929,MAFE4ImagesEEG,001,201474,
AFNE01.JPG,AFNE01.JPG,AFNE01.JPG,AFNE01.JPG,AFNE01.JPG,AFNE01.JPG,,,,,,,,,1,6,16,3,,,,,,,,,,,,,,,AMNE17.jpg,AMNE10.jpg,AMSA08.jpg,AMSA20.jpg,AMSA20.jpg,MS,2,num_4,16,num_4,1.08344332036,,,2017_Sep_05_1537,60.0009429929,MAFE4ImagesEEG,001,201474,
AFNE01.JPG,AFNE01.JPG,AFNE01.JPG,AFNE01.JPG,AFNE01.JPG,AFNE01.JPG,,,,,,,,,1,7,17,9,,,,,,,,,,,,,,,AMNE20.jpg,AMNE06.jpg,AMSA07.jpg,AMSA13.jpg,AMNE20.jpg,MN,1,num_8,16,num_8,1.36685629864,,,2017_Sep_05_1537,60.0009429929,MAFE4ImagesEEG,001,201474,
AFNE01.JPG,AFNE01.JPG,AFNE01.JPG,AFNE01.JPG,AFNE01.JPG,AFNE01.JPG,,,,,,,,,1,8,18,5,,,,,,,,,,,,,,,AMSA12.jpg,AMNE13.jpg,AMNE20.jpg,AMSA16.jpg,AMSA16.jpg,MS,2,num_4,32,num_6,1.08329610084,,,2017_Sep_05_1537,60.0009429929,MAFE4ImagesEEG,001,201474,
AFNE01.JPG,AFNE01.JPG,AFNE01.JPG,AFNE01.JPG,AFNE01.JPG,AFNE01.JPG,,,,,,,,,1,9,19,1,,,,,,,,,,,,,,,AMNE02.jpg,AMSA08.jpg,AMSA14.jpg,AMNE06.jpg,AMNE06.jpg,MN,1,num_4,32,num_2,1.28329077654,,,2017_Sep_05_1537,60.0009429929,MAFE4ImagesEEG,001,201474,
AFNE01.JPG,AFNE01.JPG,AFNE01.JPG,AFNE01.JPG,AFNE01.JPG,AFNE01.JPG,,,,,,,,,2,0,20,1,,,,,,,,,,,,,,,AMSA10.jpg,AMSA12.jpg,AMNE06.jpg,AMNE05.jpg,AMNE05.jpg,MN,1,num_4,16,num_4,1.15007955942,,,2017_Sep_05_1537,60.0009429929,MAFE4ImagesEEG,001,201474,
AFNE01.JPG,AFNE01.JPG,AFNE01.JPG,AFNE01.JPG,AFNE01.JPG,AFNE01.JPG,,,,,,,,,2,1,21,9,,,,,,,,,,,,,,,AMSA17.jpg,AMSA10.jpg,AMNE11.jpg,AMNE16.jpg,AMNE16.jpg,MN,1,num_4,32,num_6,1.10012178484,,,2017_Sep_05_1537,60.0009429929,MAFE4ImagesEEG,001,201474,
AFNE01.JPG,AFNE01.JPG,AFNE01.JPG,AFNE01.JPG,AFNE01.JPG,AFNE01.JPG,,,,,,,,,2,2,22,3,,,,,,,,,,,,,,,AMSA12.jpg,AMSA11.jpg,AMNE08.jpg,AMNE18.jpg,AMSA11.jpg,MS,2,num_6,32,num_8,1.25009421725,,,2017_Sep_05_1537,60.0009429929,MAFE4ImagesEEG,001,201474,
AFNE01.JPG,AFNE01.JPG,AFNE01.JPG,AFNE01.JPG,AFNE01.JPG,AFNE01.JPG,,,,,,,,,2,3,23,5,,,,,,,,,,,,,,,AMSA05.jpg,AMSA18.jpg,AMNE01.jpg,AMNE18.jpg,AMNE18.jpg,MN,1,num_4,16,num_4,1.20014253666,,,2017_Sep_05_1537,60.0009429929,MAFE4ImagesEEG,001,201474,
AFNE01.JPG,AFNE01.JPG,AFNE01.JPG,AFNE01.JPG,AFNE01.JPG,AFNE01.JPG,,,,,,,,,2,4,24,2,,,,,,,,,,,,,,,AMNE07.jpg,AMSA04.jpg,AMSA05.jpg,AMNE05.jpg,AMNE05.jpg,MN,1,num_4,32,num_8,1.23353923752,,,2017_Sep_05_1537,60.0009429929,MAFE4ImagesEEG,001,201474,
AFNE01.JPG,AFNE01.JPG,AFNE01.JPG,AFNE01.JPG,AFNE01.JPG,AFNE01.JPG,,,,,,,,,2,5,25,0,,,,,,,,,,,,,,,AMNE13.jpg,AMSA20.jpg,AMNE09.jpg,AMSA10.jpg,AMSA10.jpg,MS,2,num_4,32,num_6,1.41679771559,,,2017_Sep_05_1537,60.0009429929,MAFE4ImagesEEG,001,201474,
AFNE01.JPG,AFNE01.JPG,AFNE01.JPG,AFNE01.JPG,AFNE01.JPG,AFNE01.JPG,,,,,,,,,2,6,26,7,,,,,,,,,,,,,,,AMNE16.jpg,AMNE11.jpg,AMSA18.jpg,AMSA14.jpg,AMNE11.jpg,MN,1,num_6,32,num_4,1.30007861333,,,2017_Sep_05_1537,60.0009429929,MAFE4ImagesEEG,001,201474,
AFNE01.JPG,AFNE01.JPG,AFNE01.JPG,AFNE01.JPG,AFNE01.JPG,AFNE01.JPG,,,,,,,,,2,7,27,8,,,,,,,,,,,,,,,AMNE11.jpg,AMSA06.jpg,AMSA16.jpg,AMNE04.jpg,AMSA06.jpg,MS,2,num_6,16,num_6,1.08347058319,,,2017_Sep_05_1537,60.0009429929,MAFE4ImagesEEG,001,201474,
AFNE01.JPG,AFNE01.JPG,AFNE01.JPG,AFNE01.JPG,AFNE01.JPG,AFNE01.JPG,,,,,,,,,2,8,28,6,,,,,,,,,,,,,,,AMNE12.jpg,AMSA07.jpg,AMNE02.jpg,AMSA01.jpg,AMSA07.jpg,MS,2,num_6,32,num_8,1.20027211553,,,2017_Sep_05_1537,60.0009429929,MAFE4ImagesEEG,001,201474,
AFNE01.JPG,AFNE01.JPG,AFNE01.JPG,AFNE01.JPG,AFNE01.JPG,AFNE01.JPG,,,,,,,,,2,9,29,4,,,,,,,,,,,,,,,AMSA04.jpg,AMNE17.jpg,AMNE01.jpg,AMSA20.jpg,AMSA04.jpg,MS,2,num_8,16,num_8,1.31673622981,,,2017_Sep_05_1537,60.0009429929,MAFE4ImagesEEG,001,201474,
AFNE01.JPG,AFNE01.JPG,AFNE01.JPG,AFNE01.JPG,AFNE01.JPG,AFNE01.JPG,,,,,,,,,3,0,30,9,,,,,,,,,,,,,,,AMNE10.jpg,AMSA11.jpg,AMSA12.jpg,AMNE18.jpg,AMNE10.jpg,MN,1,num_8,16,num_8,1.18352276762,,,2017_Sep_05_1537,60.0009429929,MAFE4ImagesEEG,001,201474,
AFNE01.JPG,AFNE01.JPG,AFNE01.JPG,AFNE01.JPG,AFNE01.JPG,AFNE01.JPG,,,,,,,,,3,1,31,4,,,,,,,,,,,,,,,AMSA12.jpg,AMNE05.jpg,AMNE12.jpg,AMSA19.jpg,AMSA12.jpg,MS,2,num_8,32,num_2,1.20008704881,,,2017_Sep_05_1537,60.0009429929,MAFE4ImagesEEG,001,201474,
AFNE01.JPG,AFNE01.JPG,AFNE01.JPG,AFNE01.JPG,AFNE01.JPG,AFNE01.JPG,,,,,,,,,3,2,32,2,,,,,,,,,,,,,,,AMSA12.jpg,AMNE09.jpg,AMNE05.jpg,AMSA07.jpg,AMSA07.jpg,MS,2,num_4,32,num_6,1.50006494974,,,2017_Sep_05_1537,60.0009429929,MAFE4ImagesEEG,001,201474,
AFNE01.JPG,AFNE01.JPG,AFNE01.JPG,AFNE01.JPG,AFNE01.JPG,AFNE01.JPG,,,,,,,,,3,3,33,8,,,,,,,,,,,,,,,AMNE17.jpg,AMNE05.jpg,AMSA14.jpg,AMSA17.jpg,AMNE05.jpg,MN,1,num_6,32,num_2,1.20016178105,,,2017_Sep_05_1537,60.0009429929,MAFE4ImagesEEG,001,201474,
AFNE01.JPG,AFNE01.JPG,AFNE01.JPG,AFNE01.JPG,AFNE01.JPG,AFNE01.JPG,,,,,,,,,3,4,34,6,,,,,,,,,,,,,,,AMSA15.jpg,AMNE08.jpg,AMSA20.jpg,AMNE14.jpg,AMNE08.jpg,MN,1,num_6,32,num_8,1.33347018226,,,2017_Sep_05_1537,60.0009429929,MAFE4ImagesEEG,001,201474,
AFNE01.JPG,AFNE01.JPG,AFNE01.JPG,AFNE01.JPG,AFNE01.JPG,AFNE01.JPG,,,,,,,,,3,5,35,7,,,,,,,,,,,,,,,AMNE11.jpg,AMSA16.jpg,AMSA10.jpg,AMNE13.jpg,AMNE11.jpg,MN,1,num_8,32,num_2,1.31676990737,,,2017_Sep_05_1537,60.0009429929,MAFE4ImagesEEG,001,201474,
AFNE01.JPG,AFNE01.JPG,AFNE01.JPG,AFNE01.JPG,AFNE01.JPG,AFNE01.JPG,,,,,,,,,3,6,36,3,,,,,,,,,,,,,,,AMNE14.jpg,AMSA04.jpg,AMSA05.jpg,AMNE05.jpg,AMNE05.jpg,MN,1,num_4,16,num_4,1.4501161559,,,2017_Sep_05_1537,60.0009429929,MAFE4ImagesEEG,001,201474,
AFNE01.JPG,AFNE01.JPG,AFNE01.JPG,AFNE01.JPG,AFNE01.JPG,AFNE01.JPG,,,,,,,,,3,7,37,0,,,,,,,,,,,,,,,AMSA10.jpg,AMNE02.jpg,AMNE19.jpg,AMSA04.jpg,AMNE02.jpg,MN,1,num_6,16,num_6,1.23346771253,,,2017_Sep_05_1537,60.0009429929,MAFE4ImagesEEG,001,201474,
AFNE01.JPG,AFNE01.JPG,AFNE01.JPG,AFNE01.JPG,AFNE01.JPG,AFNE01.JPG,,,,,,,,,3,8,38,1,,,,,,,,,,,,,,,AMSA11.jpg,AMNE19.jpg,AMSA14.jpg,AMNE04.jpg,AMSA14.jpg,MS,2,num_2,16,num_2,1.0501328985,,,2017_Sep_05_1537,60.0009429929,MAFE4ImagesEEG,001,201474,
AFNE01.JPG,AFNE01.JPG,AFNE01.JPG,AFNE01.JPG,AFNE01.JPG,AFNE01.JPG,,,,,,,,,3,9,39,5,,,,,,,,,,,,,,,AMSA04.jpg,AMSA06.jpg,AMNE08.jpg,AMNE18.jpg,AMSA04.jpg,MS,2,num_8,16,num_8,1.00012348476,,,2017_Sep_05_1537,60.0009429929,MAFE4ImagesEEG,001,201474,
AFNE01.JPG,AFNE01.JPG,AFNE01.JPG,AFNE01.JPG,AFNE01.JPG,AFNE01.JPG,,,,,,,,,4,0,40,1,,,,,,,,,,,,,,,AMNE15.jpg,AMNE20.jpg,AMSA12.jpg,AMSA16.jpg,AMSA12.jpg,MS,2,num_2,16,num_2,1.23339362175,,,2017_Sep_05_1537,60.0009429929,MAFE4ImagesEEG,001,201474,
AFNE01.JPG,AFNE01.JPG,AFNE01.JPG,AFNE01.JPG,AFNE01.JPG,AFNE01.JPG,,,,,,,,,4,1,41,8,,,,,,,,,,,,,,,AMSA13.jpg,AMNE18.jpg,AMSA15.jpg,AMNE05.jpg,AMNE18.jpg,MN,1,num_6,32,num_4,1.4833749386,,,2017_Sep_05_1537,60.0009429929,MAFE4ImagesEEG,001,201474,
AFNE01.JPG,AFNE01.JPG,AFNE01.JPG,AFNE01.JPG,AFNE01.JPG,AFNE01.JPG,,,,,,,,,4,2,42,4,,,,,,,,,,,,,,,AMSA03.jpg,AMNE15.jpg,AMNE16.jpg,AMSA15.jpg,AMSA03.jpg,MS,2,num_8,32,num_4,0.983520073351,,,2017_Sep_05_1537,60.0009429929,MAFE4ImagesEEG,001,201474,
AFNE01.JPG,AFNE01.JPG,AFNE01.JPG,AFNE01.JPG,AFNE01.JPG,AFNE01.JPG,,,,,,,,,4,3,43,0,,,,,,,,,,,,,,,AMNE01.jpg,AMSA14.jpg,AMSA17.jpg,AMNE06.jpg,AMNE06.jpg,MN,1,num_4,16,num_4,1.3835549698,,,2017_Sep_05_1537,60.0009429929,MAFE4ImagesEEG,001,201474,
AFNE01.JPG,AFNE01.JPG,AFNE01.JPG,AFNE01.JPG,AFNE01.JPG,AFNE01.JPG,,,,,,,,,4,4,44,2,,,,,,,,,,,,,,,AMSA20.jpg,AMSA12.jpg,AMNE13.jpg,AMNE03.jpg,AMSA12.jpg,MS,2,num_6,32,num_8,1.08344524482,,,2017_Sep_05_1537,60.0009429929,MAFE4ImagesEEG,001,201474,
AFNE01.JPG,AFNE01.JPG,AFNE01.JPG,AFNE01.JPG,AFNE01.JPG,AFNE01.JPG,,,,,,,,,4,5,45,9,,,,,,,,,,,,,,,AMNE16.jpg,AMNE03.jpg,AMSA03.jpg,AMSA18.jpg,AMNE16.jpg,MN,1,num_8,32,num_6,0.966779385228,,,2017_Sep_05_1537,60.0009429929,MAFE4ImagesEEG,001,201474,
AFNE01.JPG,AFNE01.JPG,AFNE01.JPG,AFNE01.JPG,AFNE01.JPG,AFNE01.JPG,,,,,,,,,4,6,46,5,,,,,,,,,,,,,,,AMNE16.jpg,AMNE07.jpg,AMSA18.jpg,AMSA08.jpg,AMSA08.jpg,MS,2,num_4,32,num_8,1.11680506053,,,2017_Sep_05_1537,60.0009429929,MAFE4ImagesEEG,001,201474,
AFNE01.JPG,AFNE01.JPG,AFNE01.JPG,AFNE01.JPG,AFNE01.JPG,AFNE01.JPG,,,,,,,,,4,7,47,7,,,,,,,,,,,,,,,AMSA02.jpg,AMSA03.jpg,AMNE11.jpg,AMNE19.jpg,AMNE19.jpg,MN,1,num_4,32,num_2,1.35006910341,,,2017_Sep_05_1537,60.0009429929,MAFE4ImagesEEG,001,201474,
AFNE01.JPG,AFNE01.JPG,AFNE01.JPG,AFNE01.JPG,AFNE01.JPG,AFNE01.JPG,,,,,,,,,4,8,48,3,,,,,,,,,,,,,,,AMNE12.jpg,AMSA08.jpg,AMSA16.jpg,AMNE19.jpg,AMSA08.jpg,MS,2,num_6,32,num_4,1.20017428999,,,2017_Sep_05_1537,60.0009429929,MAFE4ImagesEEG,001,201474,
AFNE01.JPG,AFNE01.JPG,AFNE01.JPG,AFNE01.JPG,AFNE01.JPG,AFNE01.JPG,,,,,,,,,4,9,49,6,,,,,,,,,,,,,,,AMNE11.jpg,AMSA01.jpg,AMNE12.jpg,AMSA12.jpg,AMSA01.jpg,MS,2,num_6,32,num_8,1.43344923796,,,2017_Sep_05_1537,60.0009429929,MAFE4ImagesEEG,001,201474,
AFNE01.JPG,AFNE01.JPG,AFNE01.JPG,AFNE01.JPG,AFNE01.JPG,AFNE01.JPG,,,,,,,,,5,0,50,1,,,,,,,,,,,,,,,AMNE10.jpg,AMSA19.jpg,AMSA08.jpg,AMNE01.jpg,AMNE10.jpg,MN,1,num_8,32,num_6,1.1167829294,,,2017_Sep_05_1537,60.0009429929,MAFE4ImagesEEG,001,201474,
AFNE01.JPG,AFNE01.JPG,AFNE01.JPG,AFNE01.JPG,AFNE01.JPG,AFNE01.JPG,,,,,,,,,5,1,51,3,,,,,,,,,,,,,,,AMNE15.jpg,AMSA06.jpg,AMSA08.jpg,AMNE08.jpg,AMSA08.jpg,MS,2,num_2,32,num_8,1.35010566772,,,2017_Sep_05_1537,60.0009429929,MAFE4ImagesEEG,001,201474,
AFNE01.JPG,AFNE01.JPG,AFNE01.JPG,AFNE01.JPG,AFNE01.JPG,AFNE01.JPG,,,,,,,,,5,2,52,2,,,,,,,,,,,,,,,AMNE20.jpg,AMSA20.jpg,AMSA06.jpg,AMNE14.jpg,AMNE14.jpg,MN,1,num_4,32,num_2,1.2334272993,,,2017_Sep_05_1537,60.0009429929,MAFE4ImagesEEG,001,201474,
AFNE01.JPG,AFNE01.JPG,AFNE01.JPG,AFNE01.JPG,AFNE01.JPG,AFNE01.JPG,,,,,,,,,5,3,53,0,,,,,,,,,,,,,,,AMNE05.jpg,AMSA19.jpg,AMSA08.jpg,AMNE15.jpg,AMSA19.jpg,MS,2,num_6,16,num_6,1.13342899922,,,2017_Sep_05_1537,60.0009429929,MAFE4ImagesEEG,001,201474,
AFNE01.JPG,AFNE01.JPG,AFNE01.JPG,AFNE01.JPG,AFNE01.JPG,AFNE01.JPG,,,,,,,,,5,4,54,4,,,,,,,,,,,,,,,AMNE16.jpg,AMNE05.jpg,AMSA08.jpg,AMSA06.jpg,AMNE16.jpg,MN,1,num_8,32,num_4,1.36673088942,,,2017_Sep_05_1537,60.0009429929,MAFE4ImagesEEG,001,201474,
AFNE01.JPG,AFNE01.JPG,AFNE01.JPG,AFNE01.JPG,AFNE01.JPG,AFNE01.JPG,,,,,,,,,5,5,55,8,,,,,,,,,,,,,,,AMSA01.jpg,AMSA18.jpg,AMNE12.jpg,AMNE11.jpg,AMNE11.jpg,MN,1,num_4,32,num_8,3.51656508306,,,2017_Sep_05_1537,60.0009429929,MAFE4ImagesEEG,001,201474,
AFNE01.JPG,AFNE01.JPG,AFNE01.JPG,AFNE01.JPG,AFNE01.JPG,AFNE01.JPG,,,,,,,,,5,6,56,9,,,,,,,,,,,,,,,AMSA04.jpg,AMSA17.jpg,AMNE03.jpg,AMNE09.jpg,AMSA17.jpg,MS,2,num_6,32,num_2,1.58340114309,,,2017_Sep_05_1537,60.0009429929,MAFE4ImagesEEG,001,201474,
AFNE01.JPG,AFNE01.JPG,AFNE01.JPG,AFNE01.JPG,AFNE01.JPG,AFNE01.JPG,,,,,,,,,5,7,57,5,,,,,,,,,,,,,,,AMNE01.jpg,AMNE11.jpg,AMSA10.jpg,AMSA12.jpg,AMSA12.jpg,MS,2,num_4,16,num_4,2.91662660101,,,2017_Sep_05_1537,60.0009429929,MAFE4ImagesEEG,001,201474,
AFNE01.JPG,AFNE01.JPG,AFNE01.JPG,AFNE01.JPG,AFNE01.JPG,AFNE01.JPG,,,,,,,,,5,8,58,7,,,,,,,,,,,,,,,AMSA11.jpg,AMNE08.jpg,AMSA13.jpg,AMNE09.jpg,AMSA13.jpg,MS,2,num_2,32,num_8,1.11683168192,,,2017_Sep_05_1537,60.0009429929,MAFE4ImagesEEG,001,201474,
AFNE01.JPG,AFNE01.JPG,AFNE01.JPG,AFNE01.JPG,AFNE01.JPG,AFNE01.JPG,,,,,,,,,5,9,59,6,,,,,,,,,,,,,,,AMNE01.jpg,AMSA01.jpg,AMNE10.jpg,AMSA12.jpg,AMSA12.jpg,MS,2,num_4,32,num_6,1.76670837344,,,2017_Sep_05_1537,60.0009429929,MAFE4ImagesEEG,001,201474,
,,,,,,,,,,,,,,,,,,,,,,,,,,,,,,,,,,,,,,,,,,,space,65.6283993196,2017_Sep_05_1537,60.0009429929,MAFE4ImagesEEG,001,201474,
AFNE01.JPG,AFNE01.JPG,AFNE01.JPG,AFNE01.JPG,AFNE01.JPG,AFNE01.JPG,,,,,,,,,,,,,0,0,0,1,,,,,,,,,,,AFSA19.jpg,AFSA17.jpg,AFNE09.jpg,AFNE18.jpg,AFSA19.jpg,FS,4,num_8,32,num_2,1.03320746438,,,2017_Sep_05_1537,60.0009429929,MAFE4ImagesEEG,001,201474,
AFNE01.JPG,AFNE01.JPG,AFNE01.JPG,AFNE01.JPG,AFNE01.JPG,AFNE01.JPG,,,,,,,,,,,,,0,1,1,0,,,,,,,,,,,AFNE10.jpg,AFSA09.jpg,AFNE01.jpg,AFSA16.jpg,AFSA09.jpg,FS,4,num_6,32,num_8,1.10014680261,,,2017_Sep_05_1537,60.0009429929,MAFE4ImagesEEG,001,201474,
AFNE01.JPG,AFNE01.JPG,AFNE01.JPG,AFNE01.JPG,AFNE01.JPG,AFNE01.JPG,,,,,,,,,,,,,0,2,2,2,,,,,,,,,,,AFNE06.jpg,AFSA03.jpg,AFSA13.jpg,AFNE16.jpg,AFSA13.jpg,FS,4,num_2,16,num_2,1.1500901439,,,2017_Sep_05_1537,60.0009429929,MAFE4ImagesEEG,001,201474,
AFNE01.JPG,AFNE01.JPG,AFNE01.JPG,AFNE01.JPG,AFNE01.JPG,AFNE01.JPG,,,,,,,,,,,,,0,3,3,9,,,,,,,,,,,AFNE04.jpg,AFSA04.jpg,AFSA09.jpg,AFNE10.jpg,AFNE04.jpg,FN,3,num_8,16,num_8,1.11675213848,,,2017_Sep_05_1537,60.0009429929,MAFE4ImagesEEG,001,201474,
AFNE01.JPG,AFNE01.JPG,AFNE01.JPG,AFNE01.JPG,AFNE01.JPG,AFNE01.JPG,,,,,,,,,,,,,0,4,4,4,,,,,,,,,,,AFNE10.jpg,AFSA09.jpg,AFSA17.jpg,AFNE08.jpg,AFSA17.jpg,FS,4,num_2,16,num_2,1.03342845396,,,2017_Sep_05_1537,60.0009429929,MAFE4ImagesEEG,001,201474,
AFNE01.JPG,AFNE01.JPG,AFNE01.JPG,AFNE01.JPG,AFNE01.JPG,AFNE01.JPG,,,,,,,,,,,,,0,5,5,8,,,,,,,,,,,AFNE16.jpg,AFNE10.jpg,AFSA13.jpg,AFSA14.jpg,AFNE16.jpg,FN,3,num_8,32,num_6,1.78338170634,,,2017_Sep_05_1537,60.0009429929,MAFE4ImagesEEG,001,201474,
AFNE01.JPG,AFNE01.JPG,AFNE01.JPG,AFNE01.JPG,AFNE01.JPG,AFNE01.JPG,,,,,,,,,,,,,0,6,6,7,,,,,,,,,,,AFNE12.jpg,AFSA12.jpg,AFSA07.jpg,AFNE16.jpg,AFSA07.jpg,FS,4,num_2,16,num_2,1.11674572364,,,2017_Sep_05_1537,60.0009429929,MAFE4ImagesEEG,001,201474,
AFNE01.JPG,AFNE01.JPG,AFNE01.JPG,AFNE01.JPG,AFNE01.JPG,AFNE01.JPG,,,,,,,,,,,,,0,7,7,5,,,,,,,,,,,AFNE14.jpg,AFNE19.jpg,AFSA15.jpg,AFSA20.jpg,AFSA20.jpg,FS,4,num_4,32,num_6,1.75012869679,,,2017_Sep_05_1537,60.0009429929,MAFE4ImagesEEG,001,201474,
AFNE01.JPG,AFNE01.JPG,AFNE01.JPG,AFNE01.JPG,AFNE01.JPG,AFNE01.JPG,,,,,,,,,,,,,0,8,8,3,,,,,,,,,,,AFNE09.jpg,AFSA18.jpg,AFNE10.jpg,AFSA04.jpg,AFNE10.jpg,FN,3,num_2,32,num_8,1.24997297768,,,2017_Sep_05_1537,60.0009429929,MAFE4ImagesEEG,001,201474,
AFNE01.JPG,AFNE01.JPG,AFNE01.JPG,AFNE01.JPG,AFNE01.JPG,AFNE01.JPG,,,,,,,,,,,,,0,9,9,6,,,,,,,,,,,AFSA07.jpg,AFNE04.jpg,AFNE10.jpg,AFSA19.jpg,AFNE10.jpg,FN,3,num_2,16,num_2,1.23339650838,,,2017_Sep_05_1537,60.0009429929,MAFE4ImagesEEG,001,201474,
AFNE01.JPG,AFNE01.JPG,AFNE01.JPG,AFNE01.JPG,AFNE01.JPG,AFNE01.JPG,,,,,,,,,,,,,1,0,10,0,,,,,,,,,,,AFNE02.jpg,AFNE20.jpg,AFSA14.jpg,AFSA01.jpg,AFNE02.jpg,FN,3,num_8,16,num_8,2.00005901605,,,2017_Sep_05_1537,60.0009429929,MAFE4ImagesEEG,001,201474,
AFNE01.JPG,AFNE01.JPG,AFNE01.JPG,AFNE01.JPG,AFNE01.JPG,AFNE01.JPG,,,,,,,,,,,,,1,1,11,9,,,,,,,,,,,AFNE18.jpg,AFNE13.jpg,AFSA19.jpg,AFSA20.jpg,AFSA19.jpg,FS,4,num_2,16,num_2,2.16668200877,,,2017_Sep_05_1537,60.0009429929,MAFE4ImagesEEG,001,201474,
AFNE01.JPG,AFNE01.JPG,AFNE01.JPG,AFNE01.JPG,AFNE01.JPG,AFNE01.JPG,,,,,,,,,,,,,1,2,12,3,,,,,,,,,,,AFNE04.jpg,AFSA07.jpg,AFNE09.jpg,AFSA14.jpg,AFNE04.jpg,FN,3,num_8,32,num_4,1.58340467117,,,2017_Sep_05_1537,60.0009429929,MAFE4ImagesEEG,001,201474,
AFNE01.JPG,AFNE01.JPG,AFNE01.JPG,AFNE01.JPG,AFNE01.JPG,AFNE01.JPG,,,,,,,,,,,,,1,3,13,1,,,,,,,,,,,AFNE14.jpg,AFSA16.jpg,AFSA09.jpg,AFNE03.jpg,AFNE14.jpg,FN,3,num_8,16,num_8,1.21697784297,,,2017_Sep_05_1537,60.0009429929,MAFE4ImagesEEG,001,201474,
AFNE01.JPG,AFNE01.JPG,AFNE01.JPG,AFNE01.JPG,AFNE01.JPG,AFNE01.JPG,,,,,,,,,,,,,1,4,14,6,,,,,,,,,,,AFSA15.jpg,AFSA02.jpg,AFNE17.jpg,AFNE06.jpg,AFSA15.jpg,FS,4,num_8,32,num_4,1.61669616937,,,2017_Sep_05_1537,60.0009429929,MAFE4ImagesEEG,001,201474,
AFNE01.JPG,AFNE01.JPG,AFNE01.JPG,AFNE01.JPG,AFNE01.JPG,AFNE01.JPG,,,,,,,,,,,,,1,5,15,7,,,,,,,,,,,AFSA19.jpg,AFNE02.jpg,AFSA06.jpg,AFNE10.jpg,AFNE10.jpg,FN,3,num_4,32,num_2,1.46679365821,,,2017_Sep_05_1537,60.0009429929,MAFE4ImagesEEG,001,201474,
AFNE01.JPG,AFNE01.JPG,AFNE01.JPG,AFNE01.JPG,AFNE01.JPG,AFNE01.JPG,,,,,,,,,,,,,1,6,16,4,,,,,,,,,,,AFSA20.jpg,AFNE03.jpg,AFNE11.jpg,AFSA06.jpg,AFSA06.jpg,FS,4,num_4,32,num_8,1.41675056692,,,2017_Sep_05_1537,60.0009429929,MAFE4ImagesEEG,001,201474,
AFNE01.JPG,AFNE01.JPG,AFNE01.JPG,AFNE01.JPG,AFNE01.JPG,AFNE01.JPG,,,,,,,,,,,,,1,7,17,2,,,,,,,,,,,AFNE01.jpg,AFSA10.jpg,AFNE06.jpg,AFSA13.jpg,AFSA13.jpg,FS,4,num_4,16,num_4,1.18343360187,,,2017_Sep_05_1537,60.0009429929,MAFE4ImagesEEG,001,201474,
AFNE01.JPG,AFNE01.JPG,AFNE01.JPG,AFNE01.JPG,AFNE01.JPG,AFNE01.JPG,,,,,,,,,,,,,1,8,18,5,,,,,,,,,,,AFNE18.jpg,AFSA01.jpg,AFSA13.jpg,AFNE09.jpg,AFSA01.jpg,FS,4,num_6,32,num_2,1.61670515011,,,2017_Sep_05_1537,60.0009429929,MAFE4ImagesEEG,001,201474,
AFNE01.JPG,AFNE01.JPG,AFNE01.JPG,AFNE01.JPG,AFNE01.JPG,AFNE01.JPG,,,,,,,,,,,,,1,9,19,8,,,,,,,,,,,AFNE08.jpg,AFNE01.jpg,AFSA02.jpg,AFSA10.jpg,AFNE01.jpg,FN,3,num_6,32,num_8,1.18345958181,,,2017_Sep_05_1537,60.0009429929,MAFE4ImagesEEG,001,201474,
AFNE01.JPG,AFNE01.JPG,AFNE01.JPG,AFNE01.JPG,AFNE01.JPG,AFNE01.JPG,,,,,,,,,,,,,2,0,20,7,,,,,,,,,,,AFSA10.jpg,AFSA20.jpg,AFNE09.jpg,AFNE05.jpg,AFNE05.jpg,FN,3,num_4,32,num_2,1.16677245731,,,2017_Sep_05_1537,60.0009429929,MAFE4ImagesEEG,001,201474,
AFNE01.JPG,AFNE01.JPG,AFNE01.JPG,AFNE01.JPG,AFNE01.JPG,AFNE01.JPG,,,,,,,,,,,,,2,1,21,8,,,,,,,,,,,AFNE10.jpg,AFSA06.jpg,AFSA18.jpg,AFNE20.jpg,AFNE20.jpg,FN,3,num_4,32,num_8,1.1500866157,,,2017_Sep_05_1537,60.0009429929,MAFE4ImagesEEG,001,201474,
AFNE01.JPG,AFNE01.JPG,AFNE01.JPG,AFNE01.JPG,AFNE01.JPG,AFNE01.JPG,,,,,,,,,,,,,2,2,22,0,,,,,,,,,,,AFSA09.jpg,AFNE18.jpg,AFNE17.jpg,AFSA12.jpg,AFNE17.jpg,FN,3,num_2,32,num_4,1.21652046812,,,2017_Sep_05_1537,60.0009429929,MAFE4ImagesEEG,001,201474,
AFNE01.JPG,AFNE01.JPG,AFNE01.JPG,AFNE01.JPG,AFNE01.JPG,AFNE01.JPG,,,,,,,,,,,,,2,3,23,4,,,,,,,,,,,AFNE10.jpg,AFNE09.jpg,AFSA14.jpg,AFSA09.jpg,AFNE10.jpg,FN,3,num_8,32,num_6,1.10014295368,,,2017_Sep_05_1537,60.0009429929,MAFE4ImagesEEG,001,201474,
AFNE01.JPG,AFNE01.JPG,AFNE01.JPG,AFNE01.JPG,AFNE01.JPG,AFNE01.JPG,,,,,,,,,,,,,2,4,24,3,,,,,,,,,,,AFNE06.jpg,AFSA13.jpg,AFNE17.jpg,AFSA18.jpg,AFSA13.jpg,FS,4,num_6,32,num_2,1.08345775364,,,2017_Sep_05_1537,60.0009429929,MAFE4ImagesEEG,001,201474,
AFNE01.JPG,AFNE01.JPG,AFNE01.JPG,AFNE01.JPG,AFNE01.JPG,AFNE01.JPG,,,,,,,,,,,,,2,5,25,5,,,,,,,,,,,AFNE05.jpg,AFSA12.jpg,AFNE13.jpg,AFSA16.jpg,AFSA16.jpg,FS,4,num_4,32,num_8,2.41667615518,,,2017_Sep_05_1537,60.0009429929,MAFE4ImagesEEG,001,201474,
AFNE01.JPG,AFNE01.JPG,AFNE01.JPG,AFNE01.JPG,AFNE01.JPG,AFNE01.JPG,,,,,,,,,,,,,2,6,26,6,,,,,,,,,,,AFSA17.jpg,AFNE07.jpg,AFSA12.jpg,AFNE16.jpg,AFNE07.jpg,FN,3,num_6,16,num_6,1.43338188261,,,2017_Sep_05_1537,60.0009429929,MAFE4ImagesEEG,001,201474,
AFNE01.JPG,AFNE01.JPG,AFNE01.JPG,AFNE01.JPG,AFNE01.JPG,AFNE01.JPG,,,,,,,,,,,,,2,7,27,1,,,,,,,,,,,AFNE04.jpg,AFSA02.jpg,AFSA08.jpg,AFNE05.jpg,AFSA02.jpg,FS,4,num_6,32,num_2,1.76673339121,,,2017_Sep_05_1537,60.0009429929,MAFE4ImagesEEG,001,201474,
AFNE01.JPG,AFNE01.JPG,AFNE01.JPG,AFNE01.JPG,AFNE01.JPG,AFNE01.JPG,,,,,,,,,,,,,2,8,28,2,,,,,,,,,,,AFNE12.jpg,AFSA17.jpg,AFSA18.jpg,AFNE08.jpg,AFSA17.jpg,FS,4,num_6,16,num_6,1.38374196109,,,2017_Sep_05_1537,60.0009429929,MAFE4ImagesEEG,001,201474,
AFNE01.JPG,AFNE01.JPG,AFNE01.JPG,AFNE01.JPG,AFNE01.JPG,AFNE01.JPG,,,,,,,,,,,,,2,9,29,9,,,,,,,,,,,AFNE10.jpg,AFNE18.jpg,AFSA01.jpg,AFSA16.jpg,AFSA01.jpg,FS,4,num_2,16,num_2,1.81676108716,,,2017_Sep_05_1537,60.0009429929,MAFE4ImagesEEG,001,201474,
AFNE01.JPG,AFNE01.JPG,AFNE01.JPG,AFNE01.JPG,AFNE01.JPG,AFNE01.JPG,,,,,,,,,,,,,3,0,30,7,,,,,,,,,,,AFSA11.jpg,AFNE03.jpg,AFSA16.jpg,AFNE14.jpg,AFNE03.jpg,FN,3,num_6,32,num_4,1.64999023348,,,2017_Sep_05_1537,60.0009429929,MAFE4ImagesEEG,001,201474,
AFNE01.JPG,AFNE01.JPG,AFNE01.JPG,AFNE01.JPG,AFNE01.JPG,AFNE01.JPG,,,,,,,,,,,,,3,1,31,8,,,,,,,,,,,AFNE15.jpg,AFNE07.jpg,AFSA12.jpg,AFSA16.jpg,AFNE07.jpg,FN,3,num_6,32,num_8,1.80002456869,,,2017_Sep_05_1537,60.0009429929,MAFE4ImagesEEG,001,201474,
AFNE01.JPG,AFNE01.JPG,AFNE01.JPG,AFNE01.JPG,AFNE01.JPG,AFNE01.JPG,,,,,,,,,,,,,3,2,32,6,,,,,,,,,,,AFSA07.jpg,AFNE04.jpg,AFNE13.jpg,AFSA04.jpg,AFNE13.jpg,FN,3,num_2,16,num_2,1.30013955384,,,2017_Sep_05_1537,60.0009429929,MAFE4ImagesEEG,001,201474,
AFNE01.JPG,AFNE01.JPG,AFNE01.JPG,AFNE01.JPG,AFNE01.JPG,AFNE01.JPG,,,,,,,,,,,,,3,3,33,5,,,,,,,,,,,AFNE08.jpg,AFSA07.jpg,AFSA18.jpg,AFNE02.jpg,AFNE02.jpg,FN,3,num_4,32,num_8,1.60031855863,,,2017_Sep_05_1537,60.0009429929,MAFE4ImagesEEG,001,201474,
AFNE01.JPG,AFNE01.JPG,AFNE01.JPG,AFNE01.JPG,AFNE01.JPG,AFNE01.JPG,,,,,,,,,,,,,3,4,34,3,,,,,,,,,,,AFNE06.jpg,AFSA08.jpg,AFNE12.jpg,AFSA15.jpg,AFSA15.jpg,FS,4,num_4,16,num_4,1.41671143658,,,2017_Sep_05_1537,60.0009429929,MAFE4ImagesEEG,001,201474,
AFNE01.JPG,AFNE01.JPG,AFNE01.JPG,AFNE01.JPG,AFNE01.JPG,AFNE01.JPG,,,,,,,,,,,,,3,5,35,0,,,,,,,,,,,AFSA18.jpg,AFNE08.jpg,AFNE18.jpg,AFSA12.jpg,AFNE18.jpg,FN,3,num_2,16,num_2,2.30001606909,,,2017_Sep_05_1537,60.0009429929,MAFE4ImagesEEG,001,201474,
AFNE01.JPG,AFNE01.JPG,AFNE01.JPG,AFNE01.JPG,AFNE01.JPG,AFNE01.JPG,,,,,,,,,,,,,3,6,36,2,,,,,,,,,,,AFNE20.jpg,AFNE14.jpg,AFSA16.jpg,AFSA03.jpg,AFSA16.jpg,FS,4,num_2,16,num_2,1.16673685517,,,2017_Sep_05_1537,60.0009429929,MAFE4ImagesEEG,001,201474,
AFNE01.JPG,AFNE01.JPG,AFNE01.JPG,AFNE01.JPG,AFNE01.JPG,AFNE01.JPG,,,,,,,,,,,,,3,7,37,1,,,,,,,,,,,AFSA18.jpg,AFNE07.jpg,AFNE08.jpg,AFSA13.jpg,AFSA13.jpg,FS,4,num_4,16,num_4,1.18349903286,,,2017_Sep_05_1537,60.0009429929,MAFE4ImagesEEG,001,201474,
AFNE01.JPG,AFNE01.JPG,AFNE01.JPG,AFNE01.JPG,AFNE01.JPG,AFNE01.JPG,,,,,,,,,,,,,3,8,38,9,,,,,,,,,,,AFSA19.jpg,AFNE15.jpg,AFNE14.jpg,AFSA04.jpg,AFSA19.jpg,FS,4,num_8,16,num_8,2.0666705583,,,2017_Sep_05_1537,60.0009429929,MAFE4ImagesEEG,001,201474,
AFNE01.JPG,AFNE01.JPG,AFNE01.JPG,AFNE01.JPG,AFNE01.JPG,AFNE01.JPG,,,,,,,,,,,,,3,9,39,4,,,,,,,,,,,AFSA17.jpg,AFNE15.jpg,AFSA06.jpg,AFNE03.jpg,AFSA17.jpg,FS,4,num_8,32,num_4,1.46670994523,,,2017_Sep_05_1537,60.0009429929,MAFE4ImagesEEG,001,201474,
AFNE01.JPG,AFNE01.JPG,AFNE01.JPG,AFNE01.JPG,AFNE01.JPG,AFNE01.JPG,,,,,,,,,,,,,4,0,40,6,,,,,,,,,,,AFNE11.jpg,AFSA15.jpg,AFNE07.jpg,AFSA02.jpg,AFNE07.jpg,FN,3,num_2,32,num_8,1.11644839798,,,2017_Sep_05_1537,60.0009429929,MAFE4ImagesEEG,001,201474,
AFNE01.JPG,AFNE01.JPG,AFNE01.JPG,AFNE01.JPG,AFNE01.JPG,AFNE01.JPG,,,,,,,,,,,,,4,1,41,0,,,,,,,,,,,AFNE18.jpg,AFSA09.jpg,AFSA06.jpg,AFNE13.jpg,AFNE18.jpg,FN,3,num_8,16,num_8,1.10010510636,,,2017_Sep_05_1537,60.0009429929,MAFE4ImagesEEG,001,201474,
AFNE01.JPG,AFNE01.JPG,AFNE01.JPG,AFNE01.JPG,AFNE01.JPG,AFNE01.JPG,,,,,,,,,,,,,4,2,42,1,,,,,,,,,,,AFSA17.jpg,AFNE10.jpg,AFSA07.jpg,AFNE03.jpg,AFNE03.jpg,FN,3,num_4,32,num_2,0.950157371,,,2017_Sep_05_1537,60.0009429929,MAFE4ImagesEEG,001,201474,
AFNE01.JPG,AFNE01.JPG,AFNE01.JPG,AFNE01.JPG,AFNE01.JPG,AFNE01.JPG,,,,,,,,,,,,,4,3,43,9,,,,,,,,,,,AFSA11.jpg,AFNE12.jpg,AFNE20.jpg,AFSA09.jpg,AFSA09.jpg,FS,4,num_4,32,num_8,1.51670300111,,,2017_Sep_05_1537,60.0009429929,MAFE4ImagesEEG,001,201474,
AFNE01.JPG,AFNE01.JPG,AFNE01.JPG,AFNE01.JPG,AFNE01.JPG,AFNE01.JPG,,,,,,,,,,,,,4,4,44,8,,,,,,,,,,,AFNE05.jpg,AFSA13.jpg,AFSA01.jpg,AFNE19.jpg,AFNE19.jpg,FN,3,num_4,16,num_4,1.80016505264,,,2017_Sep_05_1537,60.0009429929,MAFE4ImagesEEG,001,201474,
AFNE01.JPG,AFNE01.JPG,AFNE01.JPG,AFNE01.JPG,AFNE01.JPG,AFNE01.JPG,,,,,,,,,,,,,4,5,45,3,,,,,,,,,,,AFSA15.jpg,AFNE19.jpg,AFNE07.jpg,AFSA01.jpg,AFSA01.jpg,FS,4,num_4,16,num_4,1.26671302435,,,2017_Sep_05_1537,60.0009429929,MAFE4ImagesEEG,001,201474,
AFNE01.JPG,AFNE01.JPG,AFNE01.JPG,AFNE01.JPG,AFNE01.JPG,AFNE01.JPG,,,,,,,,,,,,,4,6,46,5,,,,,,,,,,,AFNE17.jpg,AFNE01.jpg,AFSA17.jpg,AFSA11.jpg,AFSA11.jpg,FS,4,num_4,16,num_4,1.7832598252,,,2017_Sep_05_1537,60.0009429929,MAFE4ImagesEEG,001,201474,
AFNE01.JPG,AFNE01.JPG,AFNE01.JPG,AFNE01.JPG,AFNE01.JPG,AFNE01.JPG,,,,,,,,,,,,,4,7,47,2,,,,,,,,,,,AFNE02.jpg,AFSA10.jpg,AFSA15.jpg,AFNE20.jpg,AFNE20.jpg,FN,3,num_4,32,num_2,0.916730841389,,,2017_Sep_05_1537,60.0009429929,MAFE4ImagesEEG,001,201474,
AFNE01.JPG,AFNE01.JPG,AFNE01.JPG,AFNE01.JPG,AFNE01.JPG,AFNE01.JPG,,,,,,,,,,,,,4,8,48,4,,,,,,,,,,,AFSA05.jpg,AFNE01.jpg,AFSA01.jpg,AFNE10.jpg,AFNE10.jpg,FN,3,num_4,16,num_4,1.03342428443,,,2017_Sep_05_1537,60.0009429929,MAFE4ImagesEEG,001,201474,
AFNE01.JPG,AFNE01.JPG,AFNE01.JPG,AFNE01.JPG,AFNE01.JPG,AFNE01.JPG,,,,,,,,,,,,,4,9,49,7,,,,,,,,,,,AFNE01.jpg,AFSA08.jpg,AFNE20.jpg,AFSA09.jpg,AFSA08.jpg,FS,4,num_6,32,num_2,1.10008361691,,,2017_Sep_05_1537,60.0009429929,MAFE4ImagesEEG,001,201474,
AFNE01.JPG,AFNE01.JPG,AFNE01.JPG,AFNE01.JPG,AFNE01.JPG,AFNE01.JPG,,,,,,,,,,,,,5,0,50,6,,,,,,,,,,,AFNE20.jpg,AFNE06.jpg,AFSA01.jpg,AFSA10.jpg,AFSA01.jpg,FS,4,num_2,32,num_8,1.66673380823,,,2017_Sep_05_1537,60.0009429929,MAFE4ImagesEEG,001,201474,
AFNE01.JPG,AFNE01.JPG,AFNE01.JPG,AFNE01.JPG,AFNE01.JPG,AFNE01.JPG,,,,,,,,,,,,,5,1,51,4,,,,,,,,,,,AFSA01.jpg,AFNE09.jpg,AFSA15.jpg,AFNE04.jpg,AFNE09.jpg,FN,3,num_6,32,num_4,1.06678506243,,,2017_Sep_05_1537,60.0009429929,MAFE4ImagesEEG,001,201474,
AFNE01.JPG,AFNE01.JPG,AFNE01.JPG,AFNE01.JPG,AFNE01.JPG,AFNE01.JPG,,,,,,,,,,,,,5,2,52,5,,,,,,,,,,,AFNE18.jpg,AFSA04.jpg,AFNE07.jpg,AFSA07.jpg,AFSA07.jpg,FS,4,num_4,16,num_4,1.21675685328,,,2017_Sep_05_1537,60.0009429929,MAFE4ImagesEEG,001,201474,
AFNE01.JPG,AFNE01.JPG,AFNE01.JPG,AFNE01.JPG,AFNE01.JPG,AFNE01.JPG,,,,,,,,,,,,,5,3,53,3,,,,,,,,,,,AFSA10.jpg,AFNE12.jpg,AFNE07.jpg,AFSA20.jpg,AFSA20.jpg,FS,4,num_4,32,num_6,1.65031899163,,,2017_Sep_05_1537,60.0009429929,MAFE4ImagesEEG,001,201474,
AFNE01.JPG,AFNE01.JPG,AFNE01.JPG,AFNE01.JPG,AFNE01.JPG,AFNE01.JPG,,,,,,,,,,,,,5,4,54,7,,,,,,,,,,,AFNE01.jpg,AFNE07.jpg,AFSA11.jpg,AFSA01.jpg,AFNE01.jpg,FN,3,num_8,32,num_4,1.21671259124,,,2017_Sep_05_1537,60.0009429929,MAFE4ImagesEEG,001,201474,
AFNE01.JPG,AFNE01.JPG,AFNE01.JPG,AFNE01.JPG,AFNE01.JPG,AFNE01.JPG,,,,,,,,,,,,,5,5,55,2,,,,,,,,,,,AFNE06.jpg,AFNE03.jpg,AFSA11.jpg,AFSA15.jpg,AFSA15.jpg,FS,4,num_4,32,num_8,1.23342377122,,,2017_Sep_05_1537,60.0009429929,MAFE4ImagesEEG,001,201474,
AFNE01.JPG,AFNE01.JPG,AFNE01.JPG,AFNE01.JPG,AFNE01.JPG,AFNE01.JPG,,,,,,,,,,,,,5,6,56,8,,,,,,,,,,,AFNE02.jpg,AFSA20.jpg,AFSA11.jpg,AFNE05.jpg,AFSA20.jpg,FS,4,num_6,32,num_4,0.983464585384,,,2017_Sep_05_1537,60.0009429929,MAFE4ImagesEEG,001,201474,
AFNE01.JPG,AFNE01.JPG,AFNE01.JPG,AFNE01.JPG,AFNE01.JPG,AFNE01.JPG,,,,,,,,,,,,,5,7,57,0,,,,,,,,,,,AFSA09.jpg,AFNE20.jpg,AFSA18.jpg,AFNE15.jpg,AFSA09.jpg,FS,4,num_8,32,num_6,0.833455909393,,,2017_Sep_05_1537,60.0009429929,MAFE4ImagesEEG,001,201474,
AFNE01.JPG,AFNE01.JPG,AFNE01.JPG,AFNE01.JPG,AFNE01.JPG,AFNE01.JPG,,,,,,,,,,,,,5,8,58,1,,,,,,,,,,,AFNE01.jpg,AFSA01.jpg,AFNE04.jpg,AFSA02.jpg,AFNE01.jpg,FN,3,num_8,32,num_2,0.800205786596,,,2017_Sep_05_1537,60.0009429929,MAFE4ImagesEEG,001,201474,
AFNE01.JPG,AFNE01.JPG,AFNE01.JPG,AFNE01.JPG,AFNE01.JPG,AFNE01.JPG,,,,,,,,,,,,,5,9,59,9,,,,,,,,,,,AFSA14.jpg,AFSA19.jpg,AFNE13.jpg,AFNE08.jpg,AFNE13.jpg,FN,3,num_2,32,num_8,0.866845874698,,,2017_Sep_05_1537,60.0009429929,MAFE4ImagesEEG,001,201474,
,,,,,,,,,,,,,,,,,,,,,,,,,,,,,,,,,,,,,,,,,,,space,29.6645777959,2017_Sep_05_1537,60.0009429929,MAFE4ImagesEEG,001,201474,
AFNE01.JPG,AFNE01.JPG,AFNE01.JPG,AFNE01.JPG,AFNE01.JPG,AFNE01.JPG,,,,,,,,,,,,,,,,,0,0,0,4,,,,,,,AMNE11.jpg,AMSA09.jpg,AMSA20.jpg,AMNE01.jpg,AMSA09.jpg,MS,2,num_6,32,num_8,0.933475378202,,,2017_Sep_05_1537,60.0009429929,MAFE4ImagesEEG,001,201474,
AFNE01.JPG,AFNE01.JPG,AFNE01.JPG,AFNE01.JPG,AFNE01.JPG,AFNE01.JPG,,,,,,,,,,,,,,,,,0,1,1,0,,,,,,,AMSA13.jpg,AMSA04.jpg,AMNE10.jpg,AMNE12.jpg,AMSA13.jpg,MS,2,num_8,32,num_2,0.850146882702,,,2017_Sep_05_1537,60.0009429929,MAFE4ImagesEEG,001,201474,
AFNE01.JPG,AFNE01.JPG,AFNE01.JPG,AFNE01.JPG,AFNE01.JPG,AFNE01.JPG,,,,,,,,,,,,,,,,,0,2,2,8,,,,,,,AMNE04.jpg,AMNE13.jpg,AMSA07.jpg,AMSA13.jpg,AMSA13.jpg,MS,2,num_4,16,num_4,0.916798838181,,,2017_Sep_05_1537,60.0009429929,MAFE4ImagesEEG,001,201474,
AFNE01.JPG,AFNE01.JPG,AFNE01.JPG,AFNE01.JPG,AFNE01.JPG,AFNE01.JPG,,,,,,,,,,,,,,,,,0,3,3,3,,,,,,,AMNE14.jpg,AMSA20.jpg,AMNE06.jpg,AMSA04.jpg,AMSA20.jpg,MS,2,num_6,16,num_6,1.06679211871,,,2017_Sep_05_1537,60.0009429929,MAFE4ImagesEEG,001,201474,
AFNE01.JPG,AFNE01.JPG,AFNE01.JPG,AFNE01.JPG,AFNE01.JPG,AFNE01.JPG,,,,,,,,,,,,,,,,,0,4,4,7,,,,,,,AMSA02.jpg,AMNE13.jpg,AMNE05.jpg,AMSA01.jpg,AMSA02.jpg,MS,2,num_8,16,num_8,1.13344856445,,,2017_Sep_05_1537,60.0009429929,MAFE4ImagesEEG,001,201474,
AFNE01.JPG,AFNE01.JPG,AFNE01.JPG,AFNE01.JPG,AFNE01.JPG,AFNE01.JPG,,,,,,,,,,,,,,,,,0,5,5,6,,,,,,,AMSA17.jpg,AMSA15.jpg,AMNE08.jpg,AMNE11.jpg,AMNE11.jpg,MN,1,num_4,32,num_2,0.850116412505,,,2017_Sep_05_1537,60.0009429929,MAFE4ImagesEEG,001,201474,
AFNE01.JPG,AFNE01.JPG,AFNE01.JPG,AFNE01.JPG,AFNE01.JPG,AFNE01.JPG,,,,,,,,,,,,,,,,,0,6,6,1,,,,,,,AMSA07.jpg,AMNE05.jpg,AMSA01.jpg,AMNE01.jpg,AMNE05.jpg,MN,1,num_6,32,num_8,0.983472924563,,,2017_Sep_05_1537,60.0009429929,MAFE4ImagesEEG,001,201474,
AFNE01.JPG,AFNE01.JPG,AFNE01.JPG,AFNE01.JPG,AFNE01.JPG,AFNE01.JPG,,,,,,,,,,,,,,,,,0,7,7,2,,,,,,,AMSA14.jpg,AMNE11.jpg,AMSA10.jpg,AMNE12.jpg,AMSA14.jpg,MS,2,num_8,32,num_4,1.13346748811,,,2017_Sep_05_1537,60.0009429929,MAFE4ImagesEEG,001,201474,
AFNE01.JPG,AFNE01.JPG,AFNE01.JPG,AFNE01.JPG,AFNE01.JPG,AFNE01.JPG,,,,,,,,,,,,,,,,,0,8,8,9,,,,,,,AMNE15.jpg,AMSA18.jpg,AMNE07.jpg,AMSA20.jpg,AMNE07.jpg,MN,1,num_2,32,num_8,0.950133636245,,,2017_Sep_05_1537,60.0009429929,MAFE4ImagesEEG,001,201474,
AFNE01.JPG,AFNE01.JPG,AFNE01.JPG,AFNE01.JPG,AFNE01.JPG,AFNE01.JPG,,,,,,,,,,,,,,,,,0,9,9,5,,,,,,,AMSA18.jpg,AMSA06.jpg,AMNE16.jpg,AMNE06.jpg,AMNE06.jpg,MN,1,num_4,16,num_4,1.43344154023,,,2017_Sep_05_1537,60.0009429929,MAFE4ImagesEEG,001,201474,
AFNE01.JPG,AFNE01.JPG,AFNE01.JPG,AFNE01.JPG,AFNE01.JPG,AFNE01.JPG,,,,,,,,,,,,,,,,,1,0,10,0,,,,,,,AMSA15.jpg,AMNE19.jpg,AMNE11.jpg,AMSA06.jpg,AMSA06.jpg,MS,2,num_4,32,num_2,1.40009295044,,,2017_Sep_05_1537,60.0009429929,MAFE4ImagesEEG,001,201474,
AFNE01.JPG,AFNE01.JPG,AFNE01.JPG,AFNE01.JPG,AFNE01.JPG,AFNE01.JPG,,,,,,,,,,,,,,,,,1,1,11,4,,,,,,,AMNE06.jpg,AMNE11.jpg,AMSA08.jpg,AMSA20.jpg,AMNE06.jpg,MN,1,num_8,32,num_2,1.20021662768,,,2017_Sep_05_1537,60.0009429929,MAFE4ImagesEEG,001,201474,
AFNE01.JPG,AFNE01.JPG,AFNE01.JPG,AFNE01.JPG,AFNE01.JPG,AFNE01.JPG,,,,,,,,,,,,,,,,,1,2,12,1,,,,,,,AMNE15.jpg,AMSA05.jpg,AMNE07.jpg,AMSA11.jpg,AMNE07.jpg,MN,1,num_2,32,num_6,1.06672700855,,,2017_Sep_05_1537,60.0009429929,MAFE4ImagesEEG,001,201474,
AFNE01.JPG,AFNE01.JPG,AFNE01.JPG,AFNE01.JPG,AFNE01.JPG,AFNE01.JPG,,,,,,,,,,,,,,,,,1,3,13,2,,,,,,,AMSA18.jpg,AMNE18.jpg,AMNE10.jpg,AMSA15.jpg,AMNE10.jpg,MN,1,num_2,16,num_2,1.20021438238,,,2017_Sep_05_1537,60.0009429929,MAFE4ImagesEEG,001,201474,
AFNE01.JPG,AFNE01.JPG,AFNE01.JPG,AFNE01.JPG,AFNE01.JPG,AFNE01.JPG,,,,,,,,,,,,,,,,,1,4,14,5,,,,,,,AMSA16.jpg,AMSA05.jpg,AMNE07.jpg,AMNE13.jpg,AMSA05.jpg,MS,2,num_6,32,num_8,2.66664913285,,,2017_Sep_05_1537,60.0009429929,MAFE4ImagesEEG,001,201474,
AFNE01.JPG,AFNE01.JPG,AFNE01.JPG,AFNE01.JPG,AFNE01.JPG,AFNE01.JPG,,,,,,,,,,,,,,,,,1,5,15,3,,,,,,,AMNE04.jpg,AMNE18.jpg,AMSA11.jpg,AMSA13.jpg,AMSA11.jpg,MS,2,num_2,16,num_2,1.70013082982,,,2017_Sep_05_1537,60.0009429929,MAFE4ImagesEEG,001,201474,
AFNE01.JPG,AFNE01.JPG,AFNE01.JPG,AFNE01.JPG,AFNE01.JPG,AFNE01.JPG,,,,,,,,,,,,,,,,,1,6,16,9,,,,,,,AMSA03.jpg,AMNE12.jpg,AMNE14.jpg,AMSA16.jpg,AMNE14.jpg,MN,1,num_2,32,num_4,1.183297929,,,2017_Sep_05_1537,60.0009429929,MAFE4ImagesEEG,001,201474,
AFNE01.JPG,AFNE01.JPG,AFNE01.JPG,AFNE01.JPG,AFNE01.JPG,AFNE01.JPG,,,,,,,,,,,,,,,,,1,7,17,7,,,,,,,AMNE17.jpg,AMSA04.jpg,AMNE15.jpg,AMSA12.jpg,AMNE17.jpg,MN,1,num_8,16,num_8,1.11673321482,,,2017_Sep_05_1537,60.0009429929,MAFE4ImagesEEG,001,201474,
AFNE01.JPG,AFNE01.JPG,AFNE01.JPG,AFNE01.JPG,AFNE01.JPG,AFNE01.JPG,,,,,,,,,,,,,,,,,1,8,18,8,,,,,,,AMNE07.jpg,AMNE04.jpg,AMSA19.jpg,AMSA16.jpg,AMNE04.jpg,MN,1,num_6,32,num_2,0.200131310849,,,2017_Sep_05_1537,60.0009429929,MAFE4ImagesEEG,001,201474,
AFNE01.JPG,AFNE01.JPG,AFNE01.JPG,AFNE01.JPG,AFNE01.JPG,AFNE01.JPG,,,,,,,,,,,,,,,,,1,9,19,6,,,,,,,AMNE07.jpg,AMNE11.jpg,AMSA08.jpg,AMSA04.jpg,AMNE07.jpg,MN,1,num_8,32,num_6,1.80028436787,,,2017_Sep_05_1537,60.0009429929,MAFE4ImagesEEG,001,201474,
AFNE01.JPG,AFNE01.JPG,AFNE01.JPG,AFNE01.JPG,AFNE01.JPG,AFNE01.JPG,,,,,,,,,,,,,,,,,2,0,20,7,,,,,,,AMNE06.jpg,AMSA09.jpg,AMSA06.jpg,AMNE11.jpg,AMNE06.jpg,MN,1,num_8,32,num_2,1.20016530924,,,2017_Sep_05_1537,60.0009429929,MAFE4ImagesEEG,001,201474,
AFNE01.JPG,AFNE01.JPG,AFNE01.JPG,AFNE01.JPG,AFNE01.JPG,AFNE01.JPG,,,,,,,,,,,,,,,,,2,1,21,3,,,,,,,AMSA02.jpg,AMNE04.jpg,AMNE11.jpg,AMSA16.jpg,AMSA02.jpg,MS,2,num_8,32,num_4,1.51674277277,,,2017_Sep_05_1537,60.0009429929,MAFE4ImagesEEG,001,201474,
AFNE01.JPG,AFNE01.JPG,AFNE01.JPG,AFNE01.JPG,AFNE01.JPG,AFNE01.JPG,,,,,,,,,,,,,,,,,2,2,22,9,,,,,,,AMNE19.jpg,AMSA04.jpg,AMSA08.jpg,AMNE03.jpg,AMNE03.jpg,MN,1,num_4,32,num_8,1.08347411128,,,2017_Sep_05_1537,60.0009429929,MAFE4ImagesEEG,001,201474,
AFNE01.JPG,AFNE01.JPG,AFNE01.JPG,AFNE01.JPG,AFNE01.JPG,AFNE01.JPG,,,,,,,,,,,,,,,,,2,3,23,2,,,,,,,AMSA09.jpg,AMNE13.jpg,AMSA17.jpg,AMNE09.jpg,AMNE13.jpg,MN,1,num_6,32,num_8,1.50009670295,,,2017_Sep_05_1537,60.0009429929,MAFE4ImagesEEG,001,201474,
AFNE01.JPG,AFNE01.JPG,AFNE01.JPG,AFNE01.JPG,AFNE01.JPG,AFNE01.JPG,,,,,,,,,,,,,,,,,2,4,24,8,,,,,,,AMNE12.jpg,AMSA18.jpg,AMNE19.jpg,AMSA14.jpg,AMSA14.jpg,MS,2,num_4,32,num_2,1.16662010597,,,2017_Sep_05_1537,60.0009429929,MAFE4ImagesEEG,001,201474,
AFNE01.JPG,AFNE01.JPG,AFNE01.JPG,AFNE01.JPG,AFNE01.JPG,AFNE01.JPG,,,,,,,,,,,,,,,,,2,5,25,5,,,,,,,AMSA04.jpg,AMSA07.jpg,AMNE06.jpg,AMNE05.jpg,AMSA07.jpg,MS,2,num_6,32,num_4,0.883336706436,,,2017_Sep_05_1537,60.0009429929,MAFE4ImagesEEG,001,201474,
AFNE01.JPG,AFNE01.JPG,AFNE01.JPG,AFNE01.JPG,AFNE01.JPG,AFNE01.JPG,,,,,,,,,,,,,,,,,2,6,26,0,,,,,,,AMSA20.jpg,AMNE08.jpg,AMNE16.jpg,AMSA03.jpg,AMSA03.jpg,MS,2,num_4,16,num_4,1.05006265652,,,2017_Sep_05_1537,60.0009429929,MAFE4ImagesEEG,001,201474,
AFNE01.JPG,AFNE01.JPG,AFNE01.JPG,AFNE01.JPG,AFNE01.JPG,AFNE01.JPG,,,,,,,,,,,,,,,,,2,7,27,6,,,,,,,AMNE10.jpg,AMSA19.jpg,AMNE19.jpg,AMSA13.jpg,AMNE19.jpg,MN,1,num_2,32,num_8,1.56675379025,,,2017_Sep_05_1537,60.0009429929,MAFE4ImagesEEG,001,201474,
AFNE01.JPG,AFNE01.JPG,AFNE01.JPG,AFNE01.JPG,AFNE01.JPG,AFNE01.JPG,,,,,,,,,,,,,,,,,2,8,28,4,,,,,,,AMSA09.jpg,AMNE09.jpg,AMNE07.jpg,AMSA17.jpg,AMNE07.jpg,MN,1,num_2,16,num_2,1.08341252932,,,2017_Sep_05_1537,60.0009429929,MAFE4ImagesEEG,001,201474,
AFNE01.JPG,AFNE01.JPG,AFNE01.JPG,AFNE01.JPG,AFNE01.JPG,AFNE01.JPG,,,,,,,,,,,,,,,,,2,9,29,1,,,,,,,AMSA05.jpg,AMNE07.jpg,AMNE08.jpg,AMSA15.jpg,AMSA05.jpg,MS,2,num_8,32,num_4,1.60023709084,,,2017_Sep_05_1537,60.0009429929,MAFE4ImagesEEG,001,201474,
AFNE01.JPG,AFNE01.JPG,AFNE01.JPG,AFNE01.JPG,AFNE01.JPG,AFNE01.JPG,,,,,,,,,,,,,,,,,3,0,30,3,,,,,,,AMNE01.jpg,AMNE02.jpg,AMSA02.jpg,AMSA11.jpg,AMNE02.jpg,MN,1,num_6,32,num_4,1.91673501092,,,2017_Sep_05_1537,60.0009429929,MAFE4ImagesEEG,001,201474,
AFNE01.JPG,AFNE01.JPG,AFNE01.JPG,AFNE01.JPG,AFNE01.JPG,AFNE01.JPG,,,,,,,,,,,,,,,,,3,1,31,2,,,,,,,AMSA12.jpg,AMNE04.jpg,AMSA02.jpg,AMNE20.jpg,AMNE04.jpg,MN,1,num_6,32,num_2,0.983465226833,,,2017_Sep_05_1537,60.0009429929,MAFE4ImagesEEG,001,201474,
AFNE01.JPG,AFNE01.JPG,AFNE01.JPG,AFNE01.JPG,AFNE01.JPG,AFNE01.JPG,,,,,,,,,,,,,,,,,3,2,32,0,,,,,,,AMNE20.jpg,AMSA09.jpg,AMSA11.jpg,AMNE08.jpg,AMSA09.jpg,MS,2,num_6,32,num_8,1.21676230582,,,2017_Sep_05_1537,60.0009429929,MAFE4ImagesEEG,001,201474,
AFNE01.JPG,AFNE01.JPG,AFNE01.JPG,AFNE01.JPG,AFNE01.JPG,AFNE01.JPG,,,,,,,,,,,,,,,,,3,3,33,4,,,,,,,AMNE16.jpg,AMSA02.jpg,AMSA14.jpg,AMNE12.jpg,AMSA02.jpg,MS,2,num_6,16,num_6,0.916828346206,,,2017_Sep_05_1537,60.0009429929,MAFE4ImagesEEG,001,201474,
AFNE01.JPG,AFNE01.JPG,AFNE01.JPG,AFNE01.JPG,AFNE01.JPG,AFNE01.JPG,,,,,,,,,,,,,,,,,3,4,34,1,,,,,,,AMNE07.jpg,AMSA02.jpg,AMSA18.jpg,AMNE08.jpg,AMNE08.jpg,MN,1,num_4,16,num_4,1.05007901427,,,2017_Sep_05_1537,60.0009429929,MAFE4ImagesEEG,001,201474,
AFNE01.JPG,AFNE01.JPG,AFNE01.JPG,AFNE01.JPG,AFNE01.JPG,AFNE01.JPG,,,,,,,,,,,,,,,,,3,5,35,7,,,,,,,AMNE10.jpg,AMNE05.jpg,AMSA09.jpg,AMSA14.jpg,AMSA14.jpg,MS,2,num_4,16,num_4,1.03349548858,,,2017_Sep_05_1537,60.0009429929,MAFE4ImagesEEG,001,201474,
AFNE01.JPG,AFNE01.JPG,AFNE01.JPG,AFNE01.JPG,AFNE01.JPG,AFNE01.JPG,,,,,,,,,,,,,,,,,3,6,36,5,,,,,,,AMSA04.jpg,AMSA20.jpg,AMNE01.jpg,AMNE16.jpg,AMNE01.jpg,MN,1,num_2,16,num_2,1.00011610775,,,2017_Sep_05_1537,60.0009429929,MAFE4ImagesEEG,001,201474,
AFNE01.JPG,AFNE01.JPG,AFNE01.JPG,AFNE01.JPG,AFNE01.JPG,AFNE01.JPG,,,,,,,,,,,,,,,,,3,7,37,6,,,,,,,AMNE06.jpg,AMNE15.jpg,AMSA13.jpg,AMSA16.jpg,AMSA16.jpg,MS,2,num_4,32,num_8,1.44978066219,,,2017_Sep_05_1537,60.0009429929,MAFE4ImagesEEG,001,201474,
AFNE01.JPG,AFNE01.JPG,AFNE01.JPG,AFNE01.JPG,AFNE01.JPG,AFNE01.JPG,,,,,,,,,,,,,,,,,3,8,38,8,,,,,,,AMNE11.jpg,AMSA20.jpg,AMNE20.jpg,AMSA16.jpg,AMSA16.jpg,MS,2,num_4,32,num_6,1.08349207276,,,2017_Sep_05_1537,60.0009429929,MAFE4ImagesEEG,001,201474,
AFNE01.JPG,AFNE01.JPG,AFNE01.JPG,AFNE01.JPG,AFNE01.JPG,AFNE01.JPG,,,,,,,,,,,,,,,,,3,9,39,9,,,,,,,AMNE16.jpg,AMNE04.jpg,AMSA10.jpg,AMSA11.jpg,AMSA10.jpg,MS,2,num_2,32,num_4,1.51678639348,,,2017_Sep_05_1537,60.0009429929,MAFE4ImagesEEG,001,201474,
AFNE01.JPG,AFNE01.JPG,AFNE01.JPG,AFNE01.JPG,AFNE01.JPG,AFNE01.JPG,,,,,,,,,,,,,,,,,4,0,40,1,,,,,,,AMSA16.jpg,AMNE10.jpg,AMNE18.jpg,AMSA20.jpg,AMNE10.jpg,MN,1,num_6,32,num_8,1.15035186743,,,2017_Sep_05_1537,60.0009429929,MAFE4ImagesEEG,001,201474,
AFNE01.JPG,AFNE01.JPG,AFNE01.JPG,AFNE01.JPG,AFNE01.JPG,AFNE01.JPG,,,,,,,,,,,,,,,,,4,1,41,7,,,,,,,AMSA17.jpg,AMSA20.jpg,AMNE15.jpg,AMNE03.jpg,AMSA17.jpg,MS,2,num_8,16,num_8,1.11675021402,,,2017_Sep_05_1537,60.0009429929,MAFE4ImagesEEG,001,201474,
AFNE01.JPG,AFNE01.JPG,AFNE01.JPG,AFNE01.JPG,AFNE01.JPG,AFNE01.JPG,,,,,,,,,,,,,,,,,4,2,42,6,,,,,,,AMNE18.jpg,AMSA02.jpg,AMNE06.jpg,AMSA16.jpg,AMNE06.jpg,MN,1,num_2,16,num_2,0.950120806578,,,2017_Sep_05_1537,60.0009429929,MAFE4ImagesEEG,001,201474,
AFNE01.JPG,AFNE01.JPG,AFNE01.JPG,AFNE01.JPG,AFNE01.JPG,AFNE01.JPG,,,,,,,,,,,,,,,,,4,3,43,9,,,,,,,AMSA09.jpg,AMSA03.jpg,AMNE01.jpg,AMNE20.jpg,AMSA09.jpg,MS,2,num_8,32,num_6,1.00014304998,,,2017_Sep_05_1537,60.0009429929,MAFE4ImagesEEG,001,201474,
AFNE01.JPG,AFNE01.JPG,AFNE01.JPG,AFNE01.JPG,AFNE01.JPG,AFNE01.JPG,,,,,,,,,,,,,,,,,4,4,44,3,,,,,,,AMSA02.jpg,AMNE18.jpg,AMSA04.jpg,AMNE19.jpg,AMSA04.jpg,MS,2,num_2,16,num_2,0.733419120545,,,2017_Sep_05_1537,60.0009429929,MAFE4ImagesEEG,001,201474,
AFNE01.JPG,AFNE01.JPG,AFNE01.JPG,AFNE01.JPG,AFNE01.JPG,AFNE01.JPG,,,,,,,,,,,,,,,,,4,5,45,2,,,,,,,AMNE15.jpg,AMNE19.jpg,AMSA05.jpg,AMSA19.jpg,AMNE19.jpg,MN,1,num_6,32,num_8,0.966744424659,,,2017_Sep_05_1537,60.0009429929,MAFE4ImagesEEG,001,201474,
AFNE01.JPG,AFNE01.JPG,AFNE01.JPG,AFNE01.JPG,AFNE01.JPG,AFNE01.JPG,,,,,,,,,,,,,,,,,4,6,46,0,,,,,,,AMNE01.jpg,AMNE13.jpg,AMSA02.jpg,AMSA16.jpg,AMNE01.jpg,MN,1,num_8,32,num_2,0.816740559763,,,2017_Sep_05_1537,60.0009429929,MAFE4ImagesEEG,001,201474,
AFNE01.JPG,AFNE01.JPG,AFNE01.JPG,AFNE01.JPG,AFNE01.JPG,AFNE01.JPG,,,,,,,,,,,,,,,,,4,7,47,5,,,,,,,AMNE03.jpg,AMNE11.jpg,AMSA19.jpg,AMSA14.jpg,AMNE11.jpg,MN,1,num_6,32,num_2,1.00019372674,,,2017_Sep_05_1537,60.0009429929,MAFE4ImagesEEG,001,201474,
AFNE01.JPG,AFNE01.JPG,AFNE01.JPG,AFNE01.JPG,AFNE01.JPG,AFNE01.JPG,,,,,,,,,,,,,,,,,4,8,48,8,,,,,,,AMSA15.jpg,AMSA01.jpg,AMNE13.jpg,AMNE12.jpg,AMSA15.jpg,MS,2,num_8,32,num_6,1.13325323397,,,2017_Sep_05_1537,60.0009429929,MAFE4ImagesEEG,001,201474,
AFNE01.JPG,AFNE01.JPG,AFNE01.JPG,AFNE01.JPG,AFNE01.JPG,AFNE01.JPG,,,,,,,,,,,,,,,,,4,9,49,4,,,,,,,AMNE18.jpg,AMNE04.jpg,AMSA01.jpg,AMSA14.jpg,AMNE04.jpg,MN,1,num_6,32,num_2,0.933478264837,,,2017_Sep_05_1537,60.0009429929,MAFE4ImagesEEG,001,201474,
AFNE01.JPG,AFNE01.JPG,AFNE01.JPG,AFNE01.JPG,AFNE01.JPG,AFNE01.JPG,,,,,,,,,,,,,,,,,5,0,50,0,,,,,,,AMSA02.jpg,AMNE07.jpg,AMSA08.jpg,AMNE17.jpg,AMSA08.jpg,MS,2,num_2,32,num_8,1.03345475474,,,2017_Sep_05_1537,60.0009429929,MAFE4ImagesEEG,001,201474,
AFNE01.JPG,AFNE01.JPG,AFNE01.JPG,AFNE01.JPG,AFNE01.JPG,AFNE01.JPG,,,,,,,,,,,,,,,,,5,1,51,8,,,,,,,AMNE18.jpg,AMNE09.jpg,AMSA20.jpg,AMSA13.jpg,AMSA20.jpg,MS,2,num_2,32,num_8,1.28344441077,,,2017_Sep_05_1537,60.0009429929,MAFE4ImagesEEG,001,201474,
AFNE01.JPG,AFNE01.JPG,AFNE01.JPG,AFNE01.JPG,AFNE01.JPG,AFNE01.JPG,,,,,,,,,,,,,,,,,5,2,52,4,,,,,,,AMNE09.jpg,AMSA03.jpg,AMSA05.jpg,AMNE13.jpg,AMNE13.jpg,MN,1,num_4,32,num_2,1.75006037916,,,2017_Sep_05_1537,60.0009429929,MAFE4ImagesEEG,001,201474,
AFNE01.JPG,AFNE01.JPG,AFNE01.JPG,AFNE01.JPG,AFNE01.JPG,AFNE01.JPG,,,,,,,,,,,,,,,,,5,3,53,9,,,,,,,AMSA04.jpg,AMNE11.jpg,AMNE05.jpg,AMSA17.jpg,AMNE05.jpg,MN,1,num_2,32,num_6,2.19998473278,,,2017_Sep_05_1537,60.0009429929,MAFE4ImagesEEG,001,201474,
AFNE01.JPG,AFNE01.JPG,AFNE01.JPG,AFNE01.JPG,AFNE01.JPG,AFNE01.JPG,,,,,,,,,,,,,,,,,5,4,54,5,,,,,,,AMSA10.jpg,AMNE15.jpg,AMNE17.jpg,AMSA04.jpg,AMSA10.jpg,MS,2,num_8,32,num_4,1.43342967285,,,2017_Sep_05_1537,60.0009429929,MAFE4ImagesEEG,001,201474,
AFNE01.JPG,AFNE01.JPG,AFNE01.JPG,AFNE01.JPG,AFNE01.JPG,AFNE01.JPG,,,,,,,,,,,,,,,,,5,5,55,3,,,,,,,AMSA09.jpg,AMSA04.jpg,AMNE20.jpg,AMNE06.jpg,AMSA04.jpg,MS,2,num_6,32,num_2,1.08346962102,,,2017_Sep_05_1537,60.0009429929,MAFE4ImagesEEG,001,201474,
AFNE01.JPG,AFNE01.JPG,AFNE01.JPG,AFNE01.JPG,AFNE01.JPG,AFNE01.JPG,,,,,,,,,,,,,,,,,5,6,56,2,,,,,,,AMSA12.jpg,AMNE01.jpg,AMNE13.jpg,AMSA18.jpg,AMSA12.jpg,MS,2,num_8,16,num_8,0.883834494511,,,2017_Sep_05_1537,60.0009429929,MAFE4ImagesEEG,001,201474,
AFNE01.JPG,AFNE01.JPG,AFNE01.JPG,AFNE01.JPG,AFNE01.JPG,AFNE01.JPG,,,,,,,,,,,,,,,,,5,7,57,6,,,,,,,AMNE13.jpg,AMSA06.jpg,AMNE04.jpg,AMSA07.jpg,AMNE04.jpg,MN,1,num_2,16,num_2,0.866729125381,,,2017_Sep_05_1537,60.0009429929,MAFE4ImagesEEG,001,201474,
AFNE01.JPG,AFNE01.JPG,AFNE01.JPG,AFNE01.JPG,AFNE01.JPG,AFNE01.JPG,,,,,,,,,,,,,,,,,5,8,58,1,,,,,,,AMNE17.jpg,AMSA08.jpg,AMNE04.jpg,AMSA11.jpg,AMSA08.jpg,MS,2,num_6,32,num_2,1.68321758381,,,2017_Sep_05_1537,60.0009429929,MAFE4ImagesEEG,001,201474,
AFNE01.JPG,AFNE01.JPG,AFNE01.JPG,AFNE01.JPG,AFNE01.JPG,AFNE01.JPG,,,,,,,,,,,,,,,,,5,9,59,7,,,,,,,AMSA16.jpg,AMNE20.jpg,AMNE13.jpg,AMSA03.jpg,AMNE13.jpg,MN,1,num_2,32,num_6,1.06669814186,,,2017_Sep_05_1537,60.0009429929,MAFE4ImagesEEG,001,201474,
,,,,,,,,,,,,,,,,,,,,,,,,,,,,,,,,,,,,,,,,,,,space,30.6646576601,2017_Sep_05_1537,60.0009429929,MAFE4ImagesEEG,001,201474,
AFNE01.JPG,AFNE01.JPG,AFNE01.JPG,AFNE01.JPG,AFNE01.JPG,AFNE01.JPG,,,,,,,,,,,,,,,,,,,,,0,0,0,7,,,AFNE09.jpg,AFNE11.jpg,AFSA09.jpg,AFSA13.jpg,AFSA09.jpg,FS,4,num_2,16,num_2,1.56673454586,,,2017_Sep_05_1537,60.0009429929,MAFE4ImagesEEG,001,201474,
AFNE01.JPG,AFNE01.JPG,AFNE01.JPG,AFNE01.JPG,AFNE01.JPG,AFNE01.JPG,,,,,,,,,,,,,,,,,,,,,0,1,1,2,,,AFNE06.jpg,AFSA07.jpg,AFSA12.jpg,AFNE13.jpg,AFSA12.jpg,FS,4,num_2,32,num_8,1.01675287611,,,2017_Sep_05_1537,60.0009429929,MAFE4ImagesEEG,001,201474,
AFNE01.JPG,AFNE01.JPG,AFNE01.JPG,AFNE01.JPG,AFNE01.JPG,AFNE01.JPG,,,,,,,,,,,,,,,,,,,,,0,2,2,0,,,AFSA16.jpg,AFSA02.jpg,AFNE09.jpg,AFNE07.jpg,AFNE09.jpg,FN,3,num_2,32,num_4,0.86677210452,,,2017_Sep_05_1537,60.0009429929,MAFE4ImagesEEG,001,201474,
AFNE01.JPG,AFNE01.JPG,AFNE01.JPG,AFNE01.JPG,AFNE01.JPG,AFNE01.JPG,,,,,,,,,,,,,,,,,,,,,0,3,3,6,,,AFNE16.jpg,AFSA11.jpg,AFSA08.jpg,AFNE11.jpg,AFNE11.jpg,FN,3,num_4,32,num_2,0.850488791242,,,2017_Sep_05_1537,60.0009429929,MAFE4ImagesEEG,001,201474,
AFNE01.JPG,AFNE01.JPG,AFNE01.JPG,AFNE01.JPG,AFNE01.JPG,AFNE01.JPG,,,,,,,,,,,,,,,,,,,,,0,4,4,8,,,AFNE17.jpg,AFSA17.jpg,AFSA14.jpg,AFNE09.jpg,AFSA14.jpg,FS,4,num_2,16,num_2,1.00018410455,,,2017_Sep_05_1537,60.0009429929,MAFE4ImagesEEG,001,201474,
AFNE01.JPG,AFNE01.JPG,AFNE01.JPG,AFNE01.JPG,AFNE01.JPG,AFNE01.JPG,,,,,,,,,,,,,,,,,,,,,0,5,5,1,,,AFNE18.jpg,AFSA12.jpg,AFSA08.jpg,AFNE16.jpg,AFSA12.jpg,FS,4,num_6,32,num_4,1.15044424054,,,2017_Sep_05_1537,60.0009429929,MAFE4ImagesEEG,001,201474,
AFNE01.JPG,AFNE01.JPG,AFNE01.JPG,AFNE01.JPG,AFNE01.JPG,AFNE01.JPG,,,,,,,,,,,,,,,,,,,,,0,6,6,5,,,AFNE15.jpg,AFNE07.jpg,AFSA20.jpg,AFSA14.jpg,AFNE07.jpg,FN,3,num_6,32,num_8,1.03346662212,,,2017_Sep_05_1537,60.0009429929,MAFE4ImagesEEG,001,201474,
AFNE01.JPG,AFNE01.JPG,AFNE01.JPG,AFNE01.JPG,AFNE01.JPG,AFNE01.JPG,,,,,,,,,,,,,,,,,,,,,0,7,7,9,,,AFSA06.jpg,AFSA05.jpg,AFNE01.jpg,AFNE17.jpg,AFSA06.jpg,FS,4,num_8,32,num_2,1.0334836212,,,2017_Sep_05_1537,60.0009429929,MAFE4ImagesEEG,001,201474,
AFNE01.JPG,AFNE01.JPG,AFNE01.JPG,AFNE01.JPG,AFNE01.JPG,AFNE01.JPG,,,,,,,,,,,,,,,,,,,,,0,8,8,3,,,AFSA02.jpg,AFNE10.jpg,AFSA06.jpg,AFNE01.jpg,AFSA02.jpg,FS,4,num_8,16,num_8,1.11677940132,,,2017_Sep_05_1537,60.0009429929,MAFE4ImagesEEG,001,201474,
AFNE01.JPG,AFNE01.JPG,AFNE01.JPG,AFNE01.JPG,AFNE01.JPG,AFNE01.JPG,,,,,,,,,,,,,,,,,,,,,0,9,9,4,,,AFNE18.jpg,AFNE10.jpg,AFSA12.jpg,AFSA07.jpg,AFSA12.jpg,FS,4,num_2,16,num_2,0.983499225345,,,2017_Sep_05_1537,60.0009429929,MAFE4ImagesEEG,001,201474,
AFNE01.JPG,AFNE01.JPG,AFNE01.JPG,AFNE01.JPG,AFNE01.JPG,AFNE01.JPG,,,,,,,,,,,,,,,,,,,,,1,0,10,7,,,AFSA11.jpg,AFNE11.jpg,AFSA17.jpg,AFNE19.jpg,AFNE19.jpg,FN,3,num_4,16,num_4,1.0667751194,,,2017_Sep_05_1537,60.0009429929,MAFE4ImagesEEG,001,201474,
AFNE01.JPG,AFNE01.JPG,AFNE01.JPG,AFNE01.JPG,AFNE01.JPG,AFNE01.JPG,,,,,,,,,,,,,,,,,,,,,1,1,11,9,,,AFSA04.jpg,AFNE10.jpg,AFSA19.jpg,AFNE16.jpg,AFSA04.jpg,FS,4,num_8,32,num_2,1.21656473016,,,2017_Sep_05_1537,60.0009429929,MAFE4ImagesEEG,001,201474,
AFNE01.JPG,AFNE01.JPG,AFNE01.JPG,AFNE01.JPG,AFNE01.JPG,AFNE01.JPG,,,,,,,,,,,,,,,,,,,,,1,2,12,0,,,AFNE20.jpg,AFNE15.jpg,AFSA18.jpg,AFSA20.jpg,AFNE20.jpg,FN,3,num_8,32,num_4,0.966817232547,,,2017_Sep_05_1537,60.0009429929,MAFE4ImagesEEG,001,201474,
AFNE01.JPG,AFNE01.JPG,AFNE01.JPG,AFNE01.JPG,AFNE01.JPG,AFNE01.JPG,,,,,,,,,,,,,,,,,,,,,1,3,13,1,,,AFSA17.jpg,AFNE14.jpg,AFSA14.jpg,AFNE01.jpg,AFSA17.jpg,FS,4,num_8,32,num_4,1.16665763257,,,2017_Sep_05_1537,60.0009429929,MAFE4ImagesEEG,001,201474,
AFNE01.JPG,AFNE01.JPG,AFNE01.JPG,AFNE01.JPG,AFNE01.JPG,AFNE01.JPG,,,,,,,,,,,,,,,,,,,,,1,4,14,8,,,AFSA20.jpg,AFNE08.jpg,AFSA14.jpg,AFNE07.jpg,AFNE07.jpg,FN,3,num_4,32,num_8,1.31676702085,,,2017_Sep_05_1537,60.0009429929,MAFE4ImagesEEG,001,201474,
AFNE01.JPG,AFNE01.JPG,AFNE01.JPG,AFNE01.JPG,AFNE01.JPG,AFNE01.JPG,,,,,,,,,,,,,,,,,,,,,1,5,15,3,,,AFNE18.jpg,AFSA19.jpg,AFSA14.jpg,AFNE16.jpg,AFSA14.jpg,FS,4,num_2,16,num_2,1.26684388611,,,2017_Sep_05_1537,60.0009429929,MAFE4ImagesEEG,001,201474,
AFNE01.JPG,AFNE01.JPG,AFNE01.JPG,AFNE01.JPG,AFNE01.JPG,AFNE01.JPG,,,,,,,,,,,,,,,,,,,,,1,6,16,5,,,AFSA16.jpg,AFNE06.jpg,AFSA11.jpg,AFNE04.jpg,AFNE04.jpg,FN,3,num_4,16,num_4,1.05010435276,,,2017_Sep_05_1537,60.0009429929,MAFE4ImagesEEG,001,201474,
AFNE01.JPG,AFNE01.JPG,AFNE01.JPG,AFNE01.JPG,AFNE01.JPG,AFNE01.JPG,,,,,,,,,,,,,,,,,,,,,1,7,17,4,,,AFSA05.jpg,AFNE17.jpg,AFNE04.jpg,AFSA08.jpg,AFSA08.jpg,FS,4,num_4,16,num_4,0.966784196324,,,2017_Sep_05_1537,60.0009429929,MAFE4ImagesEEG,001,201474,
AFNE01.JPG,AFNE01.JPG,AFNE01.JPG,AFNE01.JPG,AFNE01.JPG,AFNE01.JPG,,,,,,,,,,,,,,,,,,,,,1,8,18,2,,,AFSA02.jpg,AFNE09.jpg,AFNE08.jpg,AFSA12.jpg,AFSA12.jpg,FS,4,num_4,32,num_8,2.73333925637,,,2017_Sep_05_1537,60.0009429929,MAFE4ImagesEEG,001,201474,
AFNE01.JPG,AFNE01.JPG,AFNE01.JPG,AFNE01.JPG,AFNE01.JPG,AFNE01.JPG,,,,,,,,,,,,,,,,,,,,,1,9,19,6,,,AFNE02.jpg,AFNE01.jpg,AFSA07.jpg,AFSA17.jpg,AFSA07.jpg,FS,4,num_2,32,num_6,0.850171258906,,,2017_Sep_05_1537,60.0009429929,MAFE4ImagesEEG,001,201474,
AFNE01.JPG,AFNE01.JPG,AFNE01.JPG,AFNE01.JPG,AFNE01.JPG,AFNE01.JPG,,,,,,,,,,,,,,,,,,,,,2,0,20,4,,,AFNE04.jpg,AFSA17.jpg,AFSA20.jpg,AFNE18.jpg,AFSA17.jpg,FS,4,num_6,16,num_6,0.783512247261,,,2017_Sep_05_1537,60.0009429929,MAFE4ImagesEEG,001,201474,
AFNE01.JPG,AFNE01.JPG,AFNE01.JPG,AFNE01.JPG,AFNE01.JPG,AFNE01.JPG,,,,,,,,,,,,,,,,,,,,,2,1,21,2,,,AFNE19.jpg,AFNE14.jpg,AFSA09.jpg,AFSA16.jpg,AFSA09.jpg,FS,4,num_2,32,num_8,0.849985871464,,,2017_Sep_05_1537,60.0009429929,MAFE4ImagesEEG,001,201474,
AFNE01.JPG,AFNE01.JPG,AFNE01.JPG,AFNE01.JPG,AFNE01.JPG,AFNE01.JPG,,,,,,,,,,,,,,,,,,,,,2,2,22,6,,,AFNE18.jpg,AFNE03.jpg,AFSA17.jpg,AFSA11.jpg,AFSA17.jpg,FS,4,num_2,32,num_4,0.916770613054,,,2017_Sep_05_1537,60.0009429929,MAFE4ImagesEEG,001,201474,
AFNE01.JPG,AFNE01.JPG,AFNE01.JPG,AFNE01.JPG,AFNE01.JPG,AFNE01.JPG,,,,,,,,,,,,,,,,,,,,,2,3,23,9,,,AFSA18.jpg,AFSA09.jpg,AFNE02.jpg,AFNE05.jpg,AFSA18.jpg,FS,4,num_8,32,num_2,0.900119732134,,,2017_Sep_05_1537,60.0009429929,MAFE4ImagesEEG,001,201474,
AFNE01.JPG,AFNE01.JPG,AFNE01.JPG,AFNE01.JPG,AFNE01.JPG,AFNE01.JPG,,,,,,,,,,,,,,,,,,,,,2,4,24,3,,,AFSA12.jpg,AFSA01.jpg,AFNE10.jpg,AFNE20.jpg,AFSA12.jpg,FS,4,num_8,32,num_6,0.949841442285,,,2017_Sep_05_1537,60.0009429929,MAFE4ImagesEEG,001,201474,
AFNE01.JPG,AFNE01.JPG,AFNE01.JPG,AFNE01.JPG,AFNE01.JPG,AFNE01.JPG,,,,,,,,,,,,,,,,,,,,,2,5,25,5,,,AFSA15.jpg,AFSA18.jpg,AFNE10.jpg,AFNE18.jpg,AFSA18.jpg,FS,4,num_6,16,num_6,0.950126259238,,,2017_Sep_05_1537,60.0009429929,MAFE4ImagesEEG,001,201474,
AFNE01.JPG,AFNE01.JPG,AFNE01.JPG,AFNE01.JPG,AFNE01.JPG,AFNE01.JPG,,,,,,,,,,,,,,,,,,,,,2,6,26,8,,,AFNE14.jpg,AFNE10.jpg,AFSA11.jpg,AFSA03.jpg,AFNE10.jpg,FN,3,num_6,32,num_8,1.03350318642,,,2017_Sep_05_1537,60.0009429929,MAFE4ImagesEEG,001,201474,
AFNE01.JPG,AFNE01.JPG,AFNE01.JPG,AFNE01.JPG,AFNE01.JPG,AFNE01.JPG,,,,,,,,,,,,,,,,,,,,,2,7,27,1,,,AFNE01.jpg,AFSA07.jpg,AFSA16.jpg,AFNE19.jpg,AFNE01.jpg,FN,3,num_8,32,num_4,0.866726238746,,,2017_Sep_05_1537,60.0009429929,MAFE4ImagesEEG,001,201474,
AFNE01.JPG,AFNE01.JPG,AFNE01.JPG,AFNE01.JPG,AFNE01.JPG,AFNE01.JPG,,,,,,,,,,,,,,,,,,,,,2,8,28,7,,,AFSA06.jpg,AFSA17.jpg,AFNE04.jpg,AFNE06.jpg,AFSA06.jpg,FS,4,num_8,16,num_8,0.933407060686,,,2017_Sep_05_1537,60.0009429929,MAFE4ImagesEEG,001,201474,
AFNE01.JPG,AFNE01.JPG,AFNE01.JPG,AFNE01.JPG,AFNE01.JPG,AFNE01.JPG,,,,,,,,,,,,,,,,,,,,,2,9,29,0,,,AFNE20.jpg,AFSA16.jpg,AFSA11.jpg,AFNE03.jpg,AFNE20.jpg,FN,3,num_8,16,num_8,1.81669982581,,,2017_Sep_05_1537,60.0009429929,MAFE4ImagesEEG,001,201474,
AFNE01.JPG,AFNE01.JPG,AFNE01.JPG,AFNE01.JPG,AFNE01.JPG,AFNE01.JPG,,,,,,,,,,,,,,,,,,,,,3,0,30,7,,,AFNE05.jpg,AFSA14.jpg,AFNE14.jpg,AFSA12.jpg,AFSA14.jpg,FS,4,num_6,32,num_4,1.33341148694,,,2017_Sep_05_1537,60.0009429929,MAFE4ImagesEEG,001,201474,
AFNE01.JPG,AFNE01.JPG,AFNE01.JPG,AFNE01.JPG,AFNE01.JPG,AFNE01.JPG,,,,,,,,,,,,,,,,,,,,,3,1,31,1,,,AFSA07.jpg,AFSA06.jpg,AFNE09.jpg,AFNE02.jpg,AFSA06.jpg,FS,4,num_6,32,num_8,1.40009904443,,,2017_Sep_05_1537,60.0009429929,MAFE4ImagesEEG,001,201474,
AFNE01.JPG,AFNE01.JPG,AFNE01.JPG,AFNE01.JPG,AFNE01.JPG,AFNE01.JPG,,,,,,,,,,,,,,,,,,,,,3,2,32,5,,,AFNE14.jpg,AFSA02.jpg,AFSA10.jpg,AFNE19.jpg,AFNE19.jpg,FN,3,num_4,16,num_4,1.40015068348,,,2017_Sep_05_1537,60.0009429929,MAFE4ImagesEEG,001,201474,
AFNE01.JPG,AFNE01.JPG,AFNE01.JPG,AFNE01.JPG,AFNE01.JPG,AFNE01.JPG,,,,,,,,,,,,,,,,,,,,,3,3,33,0,,,AFNE04.jpg,AFSA07.jpg,AFNE06.jpg,AFSA19.jpg,AFNE06.jpg,FN,3,num_2,16,num_2,1.20010885899,,,2017_Sep_05_1537,60.0009429929,MAFE4ImagesEEG,001,201474,
AFNE01.JPG,AFNE01.JPG,AFNE01.JPG,AFNE01.JPG,AFNE01.JPG,AFNE01.JPG,,,,,,,,,,,,,,,,,,,,,3,4,34,8,,,AFNE16.jpg,AFNE01.jpg,AFSA01.jpg,AFSA05.jpg,AFSA01.jpg,FS,4,num_2,32,num_8,0.950155767263,,,2017_Sep_05_1537,60.0009429929,MAFE4ImagesEEG,001,201474,
AFNE01.JPG,AFNE01.JPG,AFNE01.JPG,AFNE01.JPG,AFNE01.JPG,AFNE01.JPG,,,,,,,,,,,,,,,,,,,,,3,5,35,6,,,AFSA03.jpg,AFSA10.jpg,AFNE10.jpg,AFNE08.jpg,AFNE10.jpg,FN,3,num_2,16,num_2,0.916815516655,,,2017_Sep_05_1537,60.0009429929,MAFE4ImagesEEG,001,201474,
AFNE01.JPG,AFNE01.JPG,AFNE01.JPG,AFNE01.JPG,AFNE01.JPG,AFNE01.JPG,,,,,,,,,,,,,,,,,,,,,3,6,36,4,,,AFSA12.jpg,AFSA03.jpg,AFNE16.jpg,AFNE06.jpg,AFNE16.jpg,FN,3,num_2,32,num_8,0.816750502679,,,2017_Sep_05_1537,60.0009429929,MAFE4ImagesEEG,001,201474,
AFNE01.JPG,AFNE01.JPG,AFNE01.JPG,AFNE01.JPG,AFNE01.JPG,AFNE01.JPG,,,,,,,,,,,,,,,,,,,,,3,7,37,9,,,AFNE06.jpg,AFNE01.jpg,AFSA13.jpg,AFSA14.jpg,AFSA14.jpg,FS,4,num_4,32,num_6,0.683473213227,,,2017_Sep_05_1537,60.0009429929,MAFE4ImagesEEG,001,201474,
AFNE01.JPG,AFNE01.JPG,AFNE01.JPG,AFNE01.JPG,AFNE01.JPG,AFNE01.JPG,,,,,,,,,,,,,,,,,,,,,3,8,38,2,,,AFNE08.jpg,AFSA15.jpg,AFSA06.jpg,AFNE07.jpg,AFNE08.jpg,FN,3,num_8,32,num_2,0.683742313879,,,2017_Sep_05_1537,60.0009429929,MAFE4ImagesEEG,001,201474,
AFNE01.JPG,AFNE01.JPG,AFNE01.JPG,AFNE01.JPG,AFNE01.JPG,AFNE01.JPG,,,,,,,,,,,,,,,,,,,,,3,9,39,3,,,AFNE17.jpg,AFSA12.jpg,AFSA07.jpg,AFNE07.jpg,AFSA12.jpg,FS,4,num_6,32,num_4,0.716755730798,,,2017_Sep_05_1537,60.0009429929,MAFE4ImagesEEG,001,201474,
