IPosition2,IPosition3,IPosition1,IPosition6,IPosition4,IPosition5,TrialsF1.thisRepN,TrialsF1.thisTrialN,TrialsF1.thisN,TrialsF1.thisIndex,TrialsM1.thisRepN,TrialsM1.thisTrialN,TrialsM1.thisN,TrialsM1.thisIndex,TrialsF2.thisRepN,TrialsF2.thisTrialN,TrialsF2.thisN,TrialsF2.thisIndex,TrialsM2.thisRepN,TrialsM2.thisTrialN,TrialsM2.thisN,TrialsM2.thisIndex,TrialsF3.thisRepN,TrialsF3.thisTrialN,TrialsF3.thisN,TrialsF3.thisIndex,TrialsM3.thisRepN,TrialsM3.thisTrialN,TrialsM3.thisN,TrialsM3.thisIndex,InstrKey_resp.keys,InstrKey_resp.rt,Image0 _Position,Image1 _Position,Image2 _Position,Image3 _Position,Center_image,condition,code,correct_answer,accuracy,Key_Resp.keys,Key_Resp.rt,BreakKey_resp.keys,BreakKey_resp.rt,date,frameRate,expName,session,participant,
,,,,,,,,,,,,,,,,,,,,,,,,,,,,,,space,5.44985364652,,,,,,,,,,,,,,2017_Sep_20_1640,59.9976137922,FEMA4ImagesEEG,001,201446,
AMNE22.JPG,AMSA24.JPG,AMSA22.JPG,AMNE25.JPG,AMNE24.JPG,AMSA25.JPG,0,0,0,7,,,,,,,,,,,,,,,,,,,,,,,AFNE08.jpg,AFSA20.jpg,AFSA13.jpg,AFNE13.jpg,AFNE08.jpg,FN,3,num_8,16,num_8,0.81678680503,,,2017_Sep_20_1640,59.9976137922,FEMA4ImagesEEG,001,201446,
AMSA21.JPG,AMNE22.JPG,AMNE21.JPG,AMSA23.JPG,AMSA22.JPG,AMNE23.JPG,0,1,1,1,,,,,,,,,,,,,,,,,,,,,,,AFNE02.jpg,AFSA17.jpg,AFSA14.jpg,AFNE14.jpg,AFSA14.jpg,FS,4,num_2,16,num_2,0.666779780833,,,2017_Sep_20_1640,59.9976137922,FEMA4ImagesEEG,001,201446,
AFSA21.JPG,AFNE22.JPG,AFNE21.JPG,AFSA23.JPG,AFSA22.JPG,AFNE23.JPG,0,2,2,0,,,,,,,,,,,,,,,,,,,,,,,AFNE02.jpg,AFSA19.jpg,AFSA09.jpg,AFNE16.jpg,AFSA19.jpg,FS,4,num_6,32,num_4,0.8501703448,,,2017_Sep_20_1640,59.9976137922,FEMA4ImagesEEG,001,201446,
AMNE23.JPG,AMNE24.JPG,AMNE22.JPG,AMSA24.JPG,AMSA22.JPG,AMSA23.JPG,0,3,3,9,,,,,,,,,,,,,,,,,,,,,,,AFNE01.jpg,AFSA15.jpg,AFNE18.jpg,AFSA10.jpg,AFSA10.jpg,FS,4,num_4,32,num_6,0.883445474588,,,2017_Sep_20_1640,59.9976137922,FEMA4ImagesEEG,001,201446,
AFSA21.JPG,AFNE23.JPG,AFNE21.JPG,AFSA25.JPG,AFNE25.JPG,AFSA23.JPG,0,4,4,4,,,,,,,,,,,,,,,,,,,,,,,AFSA08.jpg,AFNE15.jpg,AFNE12.jpg,AFSA14.jpg,AFNE15.jpg,FN,3,num_6,16,num_6,0.650267464753,,,2017_Sep_20_1640,59.9976137922,FEMA4ImagesEEG,001,201446,
AFSA25.JPG,AFNE24.JPG,AFSA24.JPG,AFNE21.JPG,AFSA21.JPG,AFNE25.JPG,0,5,5,2,,,,,,,,,,,,,,,,,,,,,,,AFSA09.jpg,AFSA15.jpg,AFNE08.jpg,AFNE06.jpg,AFNE08.jpg,FN,3,num_2,16,num_2,1.08351995033,,,2017_Sep_20_1640,59.9976137922,FEMA4ImagesEEG,001,201446,
AFNE23.JPG,AFNE24.JPG,AFNE22.JPG,AFSA24.JPG,AFSA22.JPG,AFSA23.JPG,0,6,6,8,,,,,,,,,,,,,,,,,,,,,,,AFNE19.jpg,AFNE05.jpg,AFSA03.jpg,AFSA20.jpg,AFSA20.jpg,FS,4,num_4,16,num_4,0.533466932067,,,2017_Sep_20_1640,59.9976137922,FEMA4ImagesEEG,001,201446,
AMSA21.JPG,AMNE23.JPG,AMNE21.JPG,AMSA25.JPG,AMNE25.JPG,AMSA23.JPG,0,7,7,5,,,,,,,,,,,,,,,,,,,,,,,AFNE16.jpg,AFSA08.jpg,AFSA04.jpg,AFNE02.jpg,AFSA08.jpg,FS,4,num_6,16,num_6,0.733432356339,,,2017_Sep_20_1640,59.9976137922,FEMA4ImagesEEG,001,201446,
AMSA25.JPG,AMNE24.JPG,AMSA24.JPG,AMNE26.JPG,AMSA21.JPG,AMNE25.JPG,0,8,8,3,,,,,,,,,,,,,,,,,,,,,,,AFSA07.jpg,AFSA19.jpg,AFNE20.jpg,AFNE11.jpg,AFSA19.jpg,FS,4,num_6,32,num_8,0.633493745898,,,2017_Sep_20_1640,59.9976137922,FEMA4ImagesEEG,001,201446,
AFNE22.JPG,AFSA24.JPG,AFSA22.JPG,AFNE25.JPG,AFNE24.JPG,AFSA25.JPG,0,9,9,6,,,,,,,,,,,,,,,,,,,,,,,AFSA15.jpg,AFSA04.jpg,AFNE05.jpg,AFNE18.jpg,AFSA04.jpg,FS,4,num_6,32,num_2,0.883092340289,,,2017_Sep_20_1640,59.9976137922,FEMA4ImagesEEG,001,201446,
AMSA25.JPG,AMNE24.JPG,AMSA24.JPG,AMNE26.JPG,AMSA21.JPG,AMNE25.JPG,,,,,0,0,0,3,,,,,,,,,,,,,,,,,,,AMNE03.jpg,AMSA15.jpg,AMSA01.jpg,AMNE16.jpg,AMNE03.jpg,MN,1,num_8,32,num_2,0.533524665196,,,2017_Sep_20_1640,59.9976137922,FEMA4ImagesEEG,001,201446,
AFSA25.JPG,AFNE24.JPG,AFSA24.JPG,AFNE21.JPG,AFSA21.JPG,AFNE25.JPG,,,,,0,1,1,2,,,,,,,,,,,,,,,,,,,AMNE11.jpg,AMSA19.jpg,AMSA10.jpg,AMNE20.jpg,AMNE11.jpg,MN,1,num_8,32,num_4,0.566790814273,,,2017_Sep_20_1640,59.9976137922,FEMA4ImagesEEG,001,201446,
AFNE22.JPG,AFSA24.JPG,AFSA22.JPG,AFNE25.JPG,AFNE24.JPG,AFSA25.JPG,,,,,0,2,2,6,,,,,,,,,,,,,,,,,,,AMSA17.jpg,AMNE08.jpg,AMSA07.jpg,AMNE17.jpg,AMSA07.jpg,MS,2,num_2,16,num_2,0.933507794294,,,2017_Sep_20_1640,59.9976137922,FEMA4ImagesEEG,001,201446,
AMSA21.JPG,AMNE22.JPG,AMNE21.JPG,AMSA23.JPG,AMSA22.JPG,AMNE23.JPG,,,,,0,3,3,1,,,,,,,,,,,,,,,,,,,AMNE11.jpg,AMSA18.jpg,AMNE10.jpg,AMSA08.jpg,AMSA18.jpg,MS,2,num_6,16,num_6,0.433472512937,,,2017_Sep_20_1640,59.9976137922,FEMA4ImagesEEG,001,201446,
AMNE22.JPG,AMSA24.JPG,AMSA22.JPG,AMNE25.JPG,AMNE24.JPG,AMSA25.JPG,,,,,0,4,4,7,,,,,,,,,,,,,,,,,,,AMSA09.jpg,AMNE11.jpg,AMSA08.jpg,AMNE13.jpg,AMNE13.jpg,MN,1,num_4,16,num_4,0.6834466934,,,2017_Sep_20_1640,59.9976137922,FEMA4ImagesEEG,001,201446,
AFNE23.JPG,AFNE24.JPG,AFNE22.JPG,AFSA24.JPG,AFSA22.JPG,AFSA23.JPG,,,,,0,5,5,8,,,,,,,,,,,,,,,,,,,AMSA10.jpg,AMSA02.jpg,AMNE11.jpg,AMNE09.jpg,AMSA02.jpg,MS,2,num_6,16,num_6,0.300156456777,,,2017_Sep_20_1640,59.9976137922,FEMA4ImagesEEG,001,201446,
AFSA21.JPG,AFNE22.JPG,AFNE21.JPG,AFSA23.JPG,AFSA22.JPG,AFNE23.JPG,,,,,0,6,6,0,,,,,,,,,,,,,,,,,,,AMSA15.jpg,AMSA01.jpg,AMNE06.jpg,AMNE10.jpg,AMSA15.jpg,MS,2,num_8,16,num_8,0.366831804795,,,2017_Sep_20_1640,59.9976137922,FEMA4ImagesEEG,001,201446,
AMNE23.JPG,AMNE24.JPG,AMNE22.JPG,AMSA24.JPG,AMSA22.JPG,AMSA23.JPG,,,,,0,7,7,9,,,,,,,,,,,,,,,,,,,AMSA06.jpg,AMSA03.jpg,AMNE11.jpg,AMNE08.jpg,AMNE08.jpg,MN,1,num_4,16,num_4,0.683463051118,,,2017_Sep_20_1640,59.9976137922,FEMA4ImagesEEG,001,201446,
AMSA21.JPG,AMNE23.JPG,AMNE21.JPG,AMSA25.JPG,AMNE25.JPG,AMSA23.JPG,,,,,0,8,8,5,,,,,,,,,,,,,,,,,,,AMNE03.jpg,AMSA05.jpg,AMNE05.jpg,AMSA18.jpg,AMSA18.jpg,MS,2,num_4,16,num_4,1.00014240838,,,2017_Sep_20_1640,59.9976137922,FEMA4ImagesEEG,001,201446,
AFSA21.JPG,AFNE23.JPG,AFNE21.JPG,AFSA25.JPG,AFNE25.JPG,AFSA23.JPG,,,,,0,9,9,4,,,,,,,,,,,,,,,,,,,AMSA11.jpg,AMNE14.jpg,AMSA18.jpg,AMNE15.jpg,AMNE15.jpg,MN,1,num_4,16,num_4,0.950136859587,,,2017_Sep_20_1640,59.9976137922,FEMA4ImagesEEG,001,201446,
AFNE23.JPG,AFNE24.JPG,AFNE22.JPG,AFSA24.JPG,AFSA22.JPG,AFSA23.JPG,,,,,,,,,0,0,0,8,,,,,,,,,,,,,,,AFSA20.jpg,AFNE05.jpg,AFNE16.jpg,AFSA11.jpg,AFSA20.jpg,FS,4,num_8,32,num_6,1.25006687421,,,2017_Sep_20_1640,59.9976137922,FEMA4ImagesEEG,001,201446,
AFSA25.JPG,AFNE24.JPG,AFSA24.JPG,AFNE21.JPG,AFSA21.JPG,AFNE25.JPG,,,,,,,,,0,1,1,2,,,,,,,,,,,,,,,AFSA12.jpg,AFNE07.jpg,AFNE15.jpg,AFSA15.jpg,AFSA15.jpg,FS,4,num_4,32,num_2,0.649938706663,,,2017_Sep_20_1640,59.9976137922,FEMA4ImagesEEG,001,201446,
AMSA21.JPG,AMNE22.JPG,AMNE21.JPG,AMSA23.JPG,AMSA22.JPG,AMNE23.JPG,,,,,,,,,0,2,2,1,,,,,,,,,,,,,,,AFSA20.jpg,AFSA11.jpg,AFNE19.jpg,AFNE01.jpg,AFSA20.jpg,FS,4,num_8,32,num_6,1.08349397042,,,2017_Sep_20_1640,59.9976137922,FEMA4ImagesEEG,001,201446,
AMNE22.JPG,AMSA24.JPG,AMSA22.JPG,AMNE25.JPG,AMNE24.JPG,AMSA25.JPG,,,,,,,,,0,3,3,7,,,,,,,,,,,,,,,AFNE09.jpg,AFSA07.jpg,AFNE03.jpg,AFSA01.jpg,AFNE03.jpg,FN,3,num_2,32,num_8,0.833455321294,,,2017_Sep_20_1640,59.9976137922,FEMA4ImagesEEG,001,201446,
AFSA21.JPG,AFNE22.JPG,AFNE21.JPG,AFSA23.JPG,AFSA22.JPG,AFNE23.JPG,,,,,,,,,0,4,4,0,,,,,,,,,,,,,,,AFSA04.jpg,AFNE09.jpg,AFNE20.jpg,AFSA18.jpg,AFNE20.jpg,FN,3,num_2,32,num_6,0.683503785049,,,2017_Sep_20_1640,59.9976137922,FEMA4ImagesEEG,001,201446,
AFSA21.JPG,AFNE23.JPG,AFNE21.JPG,AFSA25.JPG,AFNE25.JPG,AFSA23.JPG,,,,,,,,,0,5,5,4,,,,,,,,,,,,,,,AFSA16.jpg,AFSA07.jpg,AFNE11.jpg,AFNE01.jpg,AFSA07.jpg,FS,4,num_6,32,num_8,0.666803836302,,,2017_Sep_20_1640,59.9976137922,FEMA4ImagesEEG,001,201446,
AFNE22.JPG,AFSA24.JPG,AFSA22.JPG,AFNE25.JPG,AFNE24.JPG,AFSA25.JPG,,,,,,,,,0,6,6,6,,,,,,,,,,,,,,,AFNE18.jpg,AFNE04.jpg,AFSA16.jpg,AFSA15.jpg,AFNE18.jpg,FN,3,num_8,32,num_4,1.23339899942,,,2017_Sep_20_1640,59.9976137922,FEMA4ImagesEEG,001,201446,
AMSA21.JPG,AMNE23.JPG,AMNE21.JPG,AMSA25.JPG,AMNE25.JPG,AMSA23.JPG,,,,,,,,,0,7,7,5,,,,,,,,,,,,,,,AFNE08.jpg,AFNE01.jpg,AFSA11.jpg,AFSA16.jpg,AFNE08.jpg,FN,3,num_8,32,num_6,0.60013201642,,,2017_Sep_20_1640,59.9976137922,FEMA4ImagesEEG,001,201446,
AMNE23.JPG,AMNE24.JPG,AMNE22.JPG,AMSA24.JPG,AMSA22.JPG,AMSA23.JPG,,,,,,,,,0,8,8,9,,,,,,,,,,,,,,,AFNE15.jpg,AFSA09.jpg,AFSA07.jpg,AFNE14.jpg,AFNE15.jpg,FN,3,num_8,16,num_8,0.633495991075,,,2017_Sep_20_1640,59.9976137922,FEMA4ImagesEEG,001,201446,
AMSA25.JPG,AMNE24.JPG,AMSA24.JPG,AMNE26.JPG,AMSA21.JPG,AMNE25.JPG,,,,,,,,,0,9,9,3,,,,,,,,,,,,,,,AFNE09.jpg,AFSA18.jpg,AFNE14.jpg,AFSA15.jpg,AFNE09.jpg,FN,3,num_8,32,num_2,0.517076497037,,,2017_Sep_20_1640,59.9976137922,FEMA4ImagesEEG,001,201446,
AFNE23.JPG,AFNE24.JPG,AFNE22.JPG,AFSA24.JPG,AFSA22.JPG,AFSA23.JPG,,,,,,,,,,,,,0,0,0,8,,,,,,,,,,,AMNE20.jpg,AMSA11.jpg,AMNE01.jpg,AMSA10.jpg,AMSA11.jpg,MS,2,num_6,16,num_6,0.833501828538,,,2017_Sep_20_1640,59.9976137922,FEMA4ImagesEEG,001,201446,
AMSA25.JPG,AMNE24.JPG,AMSA24.JPG,AMNE26.JPG,AMSA21.JPG,AMNE25.JPG,,,,,,,,,,,,,0,1,1,3,,,,,,,,,,,AMNE17.jpg,AMSA10.jpg,AMSA19.jpg,AMNE03.jpg,AMSA10.jpg,MS,2,num_6,32,num_2,0.68347876736,,,2017_Sep_20_1640,59.9976137922,FEMA4ImagesEEG,001,201446,
AFSA21.JPG,AFNE22.JPG,AFNE21.JPG,AFSA23.JPG,AFSA22.JPG,AFNE23.JPG,,,,,,,,,,,,,0,2,2,0,,,,,,,,,,,AMSA10.jpg,AMSA04.jpg,AMNE05.jpg,AMNE06.jpg,AMNE05.jpg,MN,1,num_2,32,num_8,0.866596381928,,,2017_Sep_20_1640,59.9976137922,FEMA4ImagesEEG,001,201446,
AFSA21.JPG,AFNE23.JPG,AFNE21.JPG,AFSA25.JPG,AFNE25.JPG,AFSA23.JPG,,,,,,,,,,,,,0,3,3,4,,,,,,,,,,,AMSA08.jpg,AMNE19.jpg,AMSA12.jpg,AMNE16.jpg,AMNE16.jpg,MN,1,num_4,16,num_4,0.733442620005,,,2017_Sep_20_1640,59.9976137922,FEMA4ImagesEEG,001,201446,
AFNE22.JPG,AFSA24.JPG,AFSA22.JPG,AFNE25.JPG,AFNE24.JPG,AFSA25.JPG,,,,,,,,,,,,,0,4,4,6,,,,,,,,,,,AMSA14.jpg,AMNE13.jpg,AMSA17.jpg,AMNE06.jpg,AMSA17.jpg,MS,2,num_2,16,num_2,0.633347167901,,,2017_Sep_20_1640,59.9976137922,FEMA4ImagesEEG,001,201446,
AMNE22.JPG,AMSA24.JPG,AMSA22.JPG,AMNE25.JPG,AMNE24.JPG,AMSA25.JPG,,,,,,,,,,,,,0,5,5,7,,,,,,,,,,,AMSA07.jpg,AMNE08.jpg,AMSA12.jpg,AMNE07.jpg,AMNE08.jpg,MN,1,num_6,16,num_6,0.650145262965,,,2017_Sep_20_1640,59.9976137922,FEMA4ImagesEEG,001,201446,
AMNE23.JPG,AMNE24.JPG,AMNE22.JPG,AMSA24.JPG,AMSA22.JPG,AMSA23.JPG,,,,,,,,,,,,,0,6,6,9,,,,,,,,,,,AMNE13.jpg,AMSA09.jpg,AMNE12.jpg,AMSA06.jpg,AMSA09.jpg,MS,2,num_6,32,num_8,0.866769260572,,,2017_Sep_20_1640,59.9976137922,FEMA4ImagesEEG,001,201446,
AFSA25.JPG,AFNE24.JPG,AFSA24.JPG,AFNE21.JPG,AFSA21.JPG,AFNE25.JPG,,,,,,,,,,,,,0,7,7,2,,,,,,,,,,,AMNE08.jpg,AMSA12.jpg,AMSA10.jpg,AMNE10.jpg,AMNE10.jpg,MN,1,num_4,32,num_2,1.31675793846,,,2017_Sep_20_1640,59.9976137922,FEMA4ImagesEEG,001,201446,
AMSA21.JPG,AMNE23.JPG,AMNE21.JPG,AMSA25.JPG,AMNE25.JPG,AMSA23.JPG,,,,,,,,,,,,,0,8,8,5,,,,,,,,,,,AMSA10.jpg,AMNE16.jpg,AMSA17.jpg,AMNE02.jpg,AMSA17.jpg,MS,2,num_2,32,num_8,0.76674437118,,,2017_Sep_20_1640,59.9976137922,FEMA4ImagesEEG,001,201446,
AMSA21.JPG,AMNE22.JPG,AMNE21.JPG,AMSA23.JPG,AMSA22.JPG,AMNE23.JPG,,,,,,,,,,,,,0,9,9,1,,,,,,,,,,,AMSA09.jpg,AMSA20.jpg,AMNE08.jpg,AMNE20.jpg,AMSA20.jpg,MS,2,num_6,32,num_8,0.850098499131,,,2017_Sep_20_1640,59.9976137922,FEMA4ImagesEEG,001,201446,
AFSA21.JPG,AFNE23.JPG,AFNE21.JPG,AFSA25.JPG,AFNE25.JPG,AFSA23.JPG,,,,,,,,,,,,,,,,,0,0,0,4,,,,,,,AFSA16.jpg,AFNE05.jpg,AFNE19.jpg,AFSA01.jpg,AFNE05.jpg,FN,3,num_6,16,num_6,0.433500096542,,,2017_Sep_20_1640,59.9976137922,FEMA4ImagesEEG,001,201446,
AMNE23.JPG,AMNE24.JPG,AMNE22.JPG,AMSA24.JPG,AMSA22.JPG,AMSA23.JPG,,,,,,,,,,,,,,,,,0,1,1,9,,,,,,,AFNE13.jpg,AFSA03.jpg,AFNE07.jpg,AFSA17.jpg,AFNE13.jpg,FN,3,num_8,16,num_8,1.73334447369,,,2017_Sep_20_1640,59.9976137922,FEMA4ImagesEEG,001,201446,
AMNE22.JPG,AMSA24.JPG,AMSA22.JPG,AMNE25.JPG,AMNE24.JPG,AMSA25.JPG,,,,,,,,,,,,,,,,,0,2,2,7,,,,,,,AFSA08.jpg,AFNE12.jpg,AFSA03.jpg,AFNE08.jpg,AFSA03.jpg,FS,4,num_2,16,num_2,0.816773333965,,,2017_Sep_20_1640,59.9976137922,FEMA4ImagesEEG,001,201446,
AFSA25.JPG,AFNE24.JPG,AFSA24.JPG,AFNE21.JPG,AFSA21.JPG,AFNE25.JPG,,,,,,,,,,,,,,,,,0,3,3,2,,,,,,,AFNE13.jpg,AFSA13.jpg,AFNE10.jpg,AFSA15.jpg,AFSA15.jpg,FS,4,num_4,32,num_8,0.550204407346,,,2017_Sep_20_1640,59.9976137922,FEMA4ImagesEEG,001,201446,
AFNE23.JPG,AFNE24.JPG,AFNE22.JPG,AFSA24.JPG,AFSA22.JPG,AFSA23.JPG,,,,,,,,,,,,,,,,,0,4,4,8,,,,,,,AFSA02.jpg,AFNE11.jpg,AFSA12.jpg,AFNE04.jpg,AFSA12.jpg,FS,4,num_2,16,num_2,0.40016595067,,,2017_Sep_20_1640,59.9976137922,FEMA4ImagesEEG,001,201446,
AMSA21.JPG,AMNE23.JPG,AMNE21.JPG,AMSA25.JPG,AMNE25.JPG,AMSA23.JPG,,,,,,,,,,,,,,,,,0,5,5,5,,,,,,,AFSA03.jpg,AFNE09.jpg,AFSA07.jpg,AFNE11.jpg,AFNE09.jpg,FN,3,num_6,32,num_8,0.633468086729,,,2017_Sep_20_1640,59.9976137922,FEMA4ImagesEEG,001,201446,
AMSA21.JPG,AMNE22.JPG,AMNE21.JPG,AMSA23.JPG,AMSA22.JPG,AMNE23.JPG,,,,,,,,,,,,,,,,,0,6,6,1,,,,,,,AFNE15.jpg,AFSA17.jpg,AFSA20.jpg,AFNE06.jpg,AFNE15.jpg,FN,3,num_8,32,num_6,0.566807492733,,,2017_Sep_20_1640,59.9976137922,FEMA4ImagesEEG,001,201446,
AFSA21.JPG,AFNE22.JPG,AFNE21.JPG,AFSA23.JPG,AFSA22.JPG,AFNE23.JPG,,,,,,,,,,,,,,,,,0,7,7,0,,,,,,,AFNE19.jpg,AFSA13.jpg,AFSA02.jpg,AFNE04.jpg,AFSA13.jpg,FS,4,num_6,16,num_6,0.516784624,,,2017_Sep_20_1640,59.9976137922,FEMA4ImagesEEG,001,201446,
AFNE22.JPG,AFSA24.JPG,AFSA22.JPG,AFNE25.JPG,AFNE24.JPG,AFSA25.JPG,,,,,,,,,,,,,,,,,0,8,8,6,,,,,,,AFSA18.jpg,AFSA11.jpg,AFNE15.jpg,AFNE09.jpg,AFSA18.jpg,FS,4,num_8,32,num_4,1.55007001745,,,2017_Sep_20_1640,59.9976137922,FEMA4ImagesEEG,001,201446,
AMSA25.JPG,AMNE24.JPG,AMSA24.JPG,AMNE26.JPG,AMSA21.JPG,AMNE25.JPG,,,,,,,,,,,,,,,,,0,9,9,3,,,,,,,AFSA09.jpg,AFSA03.jpg,AFNE11.jpg,AFNE18.jpg,AFNE18.jpg,FN,3,num_4,16,num_4,0.766893835833,,,2017_Sep_20_1640,59.9976137922,FEMA4ImagesEEG,001,201446,
AFSA25.JPG,AFNE24.JPG,AFSA24.JPG,AFNE21.JPG,AFSA21.JPG,AFNE25.JPG,,,,,,,,,,,,,,,,,,,,,0,0,0,2,,,AMSA20.jpg,AMNE06.jpg,AMNE14.jpg,AMSA13.jpg,AMSA20.jpg,MS,2,num_8,16,num_8,0.983427705614,,,2017_Sep_20_1640,59.9976137922,FEMA4ImagesEEG,001,201446,
AFNE22.JPG,AFSA24.JPG,AFSA22.JPG,AFNE25.JPG,AFNE24.JPG,AFSA25.JPG,,,,,,,,,,,,,,,,,,,,,0,1,1,6,,,AMNE04.jpg,AMNE11.jpg,AMSA05.jpg,AMSA07.jpg,AMSA05.jpg,MS,2,num_2,32,num_6,1.13334171533,,,2017_Sep_20_1640,59.9976137922,FEMA4ImagesEEG,001,201446,
AFSA21.JPG,AFNE23.JPG,AFNE21.JPG,AFSA25.JPG,AFNE25.JPG,AFSA23.JPG,,,,,,,,,,,,,,,,,,,,,0,2,2,4,,,AMNE18.jpg,AMSA03.jpg,AMSA20.jpg,AMNE07.jpg,AMSA03.jpg,MS,2,num_6,16,num_6,0.783494355303,,,2017_Sep_20_1640,59.9976137922,FEMA4ImagesEEG,001,201446,
AFSA21.JPG,AFNE22.JPG,AFNE21.JPG,AFSA23.JPG,AFSA22.JPG,AFNE23.JPG,,,,,,,,,,,,,,,,,,,,,0,3,3,0,,,AMSA16.jpg,AMNE15.jpg,AMNE01.jpg,AMSA14.jpg,AMSA14.jpg,MS,2,num_4,16,num_4,0.333462056828,,,2017_Sep_20_1640,59.9976137922,FEMA4ImagesEEG,001,201446,
AFNE23.JPG,AFNE24.JPG,AFNE22.JPG,AFSA24.JPG,AFSA22.JPG,AFSA23.JPG,,,,,,,,,,,,,,,,,,,,,0,4,4,8,,,AMNE04.jpg,AMSA17.jpg,AMNE12.jpg,AMSA07.jpg,AMNE12.jpg,MN,1,num_2,32,num_8,0.116823305196,,,2017_Sep_20_1640,59.9976137922,FEMA4ImagesEEG,001,201446,
AMSA25.JPG,AMNE24.JPG,AMSA24.JPG,AMNE26.JPG,AMSA21.JPG,AMNE25.JPG,,,,,,,,,,,,,,,,,,,,,0,5,5,3,,,AMNE06.jpg,AMSA19.jpg,AMNE12.jpg,AMSA11.jpg,AMSA11.jpg,MS,2,num_4,16,num_4,0.666813779229,,,2017_Sep_20_1640,59.9976137922,FEMA4ImagesEEG,001,201446,
AMSA21.JPG,AMNE23.JPG,AMNE21.JPG,AMSA25.JPG,AMNE25.JPG,AMSA23.JPG,,,,,,,,,,,,,,,,,,,,,0,6,6,5,,,AMSA15.jpg,AMSA06.jpg,AMNE14.jpg,AMNE07.jpg,AMNE07.jpg,MN,1,num_4,32,num_6,0.716853326423,,,2017_Sep_20_1640,59.9976137922,FEMA4ImagesEEG,001,201446,
AMNE22.JPG,AMSA24.JPG,AMSA22.JPG,AMNE25.JPG,AMNE24.JPG,AMSA25.JPG,,,,,,,,,,,,,,,,,,,,,0,7,7,7,,,AMNE11.jpg,AMNE06.jpg,AMSA11.jpg,AMSA03.jpg,AMSA03.jpg,MS,2,num_4,32,num_2,0.500179293436,,,2017_Sep_20_1640,59.9976137922,FEMA4ImagesEEG,001,201446,
AMNE23.JPG,AMNE24.JPG,AMNE22.JPG,AMSA24.JPG,AMSA22.JPG,AMSA23.JPG,,,,,,,,,,,,,,,,,,,,,0,8,8,9,,,AMNE10.jpg,AMNE09.jpg,AMSA08.jpg,AMSA13.jpg,AMNE10.jpg,MN,1,num_8,32,num_4,1.15013756522,,,2017_Sep_20_1640,59.9976137922,FEMA4ImagesEEG,001,201446,
AMSA21.JPG,AMNE22.JPG,AMNE21.JPG,AMSA23.JPG,AMSA22.JPG,AMNE23.JPG,,,,,,,,,,,,,,,,,,,,,0,9,9,1,,,AMSA20.jpg,AMSA16.jpg,AMNE01.jpg,AMNE04.jpg,AMSA20.jpg,MS,2,num_8,32,num_6,0.266822631644,,,2017_Sep_20_1640,59.9976137922,FEMA4ImagesEEG,001,201446,
,,,,,,,,,,,,,,,,,,,,,,,,,,,,,,,,,,,,,,,,,,,space,20.4985454459,2017_Sep_20_1640,59.9976137922,FEMA4ImagesEEG,001,201446,
AFNE01.JPG,AFNE01.JPG,AFNE01.JPG,AFNE01.JPG,AFNE01.JPG,AFNE01.JPG,0,0,0,1,,,,,,,,,,,,,,,,,,,,,,,AFNE01.jpg,AFSA08.jpg,AFNE10.jpg,AFSA12.jpg,AFNE01.jpg,FN,3,num_8,16,num_8,0.716703541029,,,2017_Sep_20_1640,59.9976137922,FEMA4ImagesEEG,001,201446,
AFNE01.JPG,AFNE01.JPG,AFNE01.JPG,AFNE01.JPG,AFNE01.JPG,AFNE01.JPG,0,1,1,4,,,,,,,,,,,,,,,,,,,,,,,AFNE02.jpg,AFSA20.jpg,AFSA07.jpg,AFNE01.jpg,AFNE02.jpg,FN,3,num_8,32,num_2,0.766812367976,,,2017_Sep_20_1640,59.9976137922,FEMA4ImagesEEG,001,201446,
AFNE01.JPG,AFNE01.JPG,AFNE01.JPG,AFNE01.JPG,AFNE01.JPG,AFNE01.JPG,0,2,2,2,,,,,,,,,,,,,,,,,,,,,,,AFNE13.jpg,AFSA12.jpg,AFSA01.jpg,AFNE12.jpg,AFNE13.jpg,FN,3,num_8,32,num_6,1.20021335598,,,2017_Sep_20_1640,59.9976137922,FEMA4ImagesEEG,001,201446,
AFNE01.JPG,AFNE01.JPG,AFNE01.JPG,AFNE01.JPG,AFNE01.JPG,AFNE01.JPG,0,3,3,9,,,,,,,,,,,,,,,,,,,,,,,AFNE10.jpg,AFNE02.jpg,AFSA10.jpg,AFSA02.jpg,AFSA10.jpg,FS,4,num_2,32,num_8,1.76667444995,,,2017_Sep_20_1640,59.9976137922,FEMA4ImagesEEG,001,201446,
AFNE01.JPG,AFNE01.JPG,AFNE01.JPG,AFNE01.JPG,AFNE01.JPG,AFNE01.JPG,0,4,4,3,,,,,,,,,,,,,,,,,,,,,,,AFSA13.jpg,AFNE05.jpg,AFNE03.jpg,AFSA14.jpg,AFNE03.jpg,FN,3,num_2,32,num_4,0.650125056371,,,2017_Sep_20_1640,59.9976137922,FEMA4ImagesEEG,001,201446,
AFNE01.JPG,AFNE01.JPG,AFNE01.JPG,AFNE01.JPG,AFNE01.JPG,AFNE01.JPG,0,5,5,5,,,,,,,,,,,,,,,,,,,,,,,AFSA17.jpg,AFSA18.jpg,AFNE09.jpg,AFNE05.jpg,AFSA18.jpg,FS,4,num_6,32,num_2,0.566828340807,,,2017_Sep_20_1640,59.9976137922,FEMA4ImagesEEG,001,201446,
AFNE01.JPG,AFNE01.JPG,AFNE01.JPG,AFNE01.JPG,AFNE01.JPG,AFNE01.JPG,0,6,6,7,,,,,,,,,,,,,,,,,,,,,,,AFNE03.jpg,AFSA08.jpg,AFNE13.jpg,AFSA17.jpg,AFNE13.jpg,FN,3,num_2,32,num_6,0.650213580499,,,2017_Sep_20_1640,59.9976137922,FEMA4ImagesEEG,001,201446,
AFNE01.JPG,AFNE01.JPG,AFNE01.JPG,AFNE01.JPG,AFNE01.JPG,AFNE01.JPG,0,7,7,6,,,,,,,,,,,,,,,,,,,,,,,AFSA08.jpg,AFSA18.jpg,AFNE13.jpg,AFNE20.jpg,AFNE20.jpg,FN,3,num_4,16,num_4,0.466772339674,,,2017_Sep_20_1640,59.9976137922,FEMA4ImagesEEG,001,201446,
AFNE01.JPG,AFNE01.JPG,AFNE01.JPG,AFNE01.JPG,AFNE01.JPG,AFNE01.JPG,0,8,8,8,,,,,,,,,,,,,,,,,,,,,,,AFNE07.jpg,AFSA19.jpg,AFNE08.jpg,AFSA04.jpg,AFNE08.jpg,FN,3,num_2,32,num_6,0.566796266849,,,2017_Sep_20_1640,59.9976137922,FEMA4ImagesEEG,001,201446,
AFNE01.JPG,AFNE01.JPG,AFNE01.JPG,AFNE01.JPG,AFNE01.JPG,AFNE01.JPG,0,9,9,0,,,,,,,,,,,,,,,,,,,,,,,AFNE02.jpg,AFNE03.jpg,AFSA01.jpg,AFSA15.jpg,AFNE03.jpg,FN,3,num_6,32,num_4,1.26675655929,,,2017_Sep_20_1640,59.9976137922,FEMA4ImagesEEG,001,201446,
AFNE01.JPG,AFNE01.JPG,AFNE01.JPG,AFNE01.JPG,AFNE01.JPG,AFNE01.JPG,1,0,10,9,,,,,,,,,,,,,,,,,,,,,,,AFSA12.jpg,AFNE03.jpg,AFSA14.jpg,AFNE04.jpg,AFNE03.jpg,FN,3,num_6,32,num_8,1.03341914187,,,2017_Sep_20_1640,59.9976137922,FEMA4ImagesEEG,001,201446,
AFNE01.JPG,AFNE01.JPG,AFNE01.JPG,AFNE01.JPG,AFNE01.JPG,AFNE01.JPG,1,1,11,4,,,,,,,,,,,,,,,,,,,,,,,AFSA07.jpg,AFNE02.jpg,AFNE03.jpg,AFSA13.jpg,AFSA13.jpg,FS,4,num_4,16,num_4,0.783437263653,,,2017_Sep_20_1640,59.9976137922,FEMA4ImagesEEG,001,201446,
AFNE01.JPG,AFNE01.JPG,AFNE01.JPG,AFNE01.JPG,AFNE01.JPG,AFNE01.JPG,1,2,12,2,,,,,,,,,,,,,,,,,,,,,,,AFNE19.jpg,AFSA16.jpg,AFSA10.jpg,AFNE14.jpg,AFNE14.jpg,FN,3,num_4,32,num_6,0.316815992333,,,2017_Sep_20_1640,59.9976137922,FEMA4ImagesEEG,001,201446,
AFNE01.JPG,AFNE01.JPG,AFNE01.JPG,AFNE01.JPG,AFNE01.JPG,AFNE01.JPG,1,3,13,3,,,,,,,,,,,,,,,,,,,,,,,AFNE05.jpg,AFSA18.jpg,AFSA10.jpg,AFNE01.jpg,AFNE01.jpg,FN,3,num_4,16,num_4,0.666791968937,,,2017_Sep_20_1640,59.9976137922,FEMA4ImagesEEG,001,201446,
AFNE01.JPG,AFNE01.JPG,AFNE01.JPG,AFNE01.JPG,AFNE01.JPG,AFNE01.JPG,1,4,14,7,,,,,,,,,,,,,,,,,,,,,,,AFSA15.jpg,AFNE07.jpg,AFNE13.jpg,AFSA06.jpg,AFNE07.jpg,FN,3,num_6,32,num_8,0.350161364093,,,2017_Sep_20_1640,59.9976137922,FEMA4ImagesEEG,001,201446,
AFNE01.JPG,AFNE01.JPG,AFNE01.JPG,AFNE01.JPG,AFNE01.JPG,AFNE01.JPG,1,5,15,0,,,,,,,,,,,,,,,,,,,,,,,AFNE17.jpg,AFNE10.jpg,AFSA17.jpg,AFSA06.jpg,AFNE10.jpg,FN,3,num_6,32,num_2,0.58349172524,,,2017_Sep_20_1640,59.9976137922,FEMA4ImagesEEG,001,201446,
AFNE01.JPG,AFNE01.JPG,AFNE01.JPG,AFNE01.JPG,AFNE01.JPG,AFNE01.JPG,1,6,16,6,,,,,,,,,,,,,,,,,,,,,,,AFSA06.jpg,AFNE18.jpg,AFNE13.jpg,AFSA10.jpg,AFNE13.jpg,FN,3,num_2,32,num_4,1.26671518388,,,2017_Sep_20_1640,59.9976137922,FEMA4ImagesEEG,001,201446,
AFNE01.JPG,AFNE01.JPG,AFNE01.JPG,AFNE01.JPG,AFNE01.JPG,AFNE01.JPG,1,7,17,5,,,,,,,,,,,,,,,,,,,,,,,AFNE17.jpg,AFSA08.jpg,AFNE10.jpg,AFSA14.jpg,AFSA14.jpg,FS,4,num_4,32,num_6,0.917082719385,,,2017_Sep_20_1640,59.9976137922,FEMA4ImagesEEG,001,201446,
AFNE01.JPG,AFNE01.JPG,AFNE01.JPG,AFNE01.JPG,AFNE01.JPG,AFNE01.JPG,1,8,18,1,,,,,,,,,,,,,,,,,,,,,,,AFSA17.jpg,AFNE12.jpg,AFSA19.jpg,AFNE02.jpg,AFNE12.jpg,FN,3,num_6,16,num_6,0.766780614755,,,2017_Sep_20_1640,59.9976137922,FEMA4ImagesEEG,001,201446,
AFNE01.JPG,AFNE01.JPG,AFNE01.JPG,AFNE01.JPG,AFNE01.JPG,AFNE01.JPG,1,9,19,8,,,,,,,,,,,,,,,,,,,,,,,AFNE13.jpg,AFSA09.jpg,AFNE17.jpg,AFSA17.jpg,AFSA17.jpg,FS,4,num_4,32,num_6,0.850101385788,,,2017_Sep_20_1640,59.9976137922,FEMA4ImagesEEG,001,201446,
AFNE01.JPG,AFNE01.JPG,AFNE01.JPG,AFNE01.JPG,AFNE01.JPG,AFNE01.JPG,2,0,20,9,,,,,,,,,,,,,,,,,,,,,,,AFNE08.jpg,AFSA11.jpg,AFSA08.jpg,AFNE19.jpg,AFSA11.jpg,FS,4,num_6,16,num_6,0.583488517843,,,2017_Sep_20_1640,59.9976137922,FEMA4ImagesEEG,001,201446,
AFNE01.JPG,AFNE01.JPG,AFNE01.JPG,AFNE01.JPG,AFNE01.JPG,AFNE01.JPG,2,1,21,7,,,,,,,,,,,,,,,,,,,,,,,AFSA03.jpg,AFNE11.jpg,AFSA12.jpg,AFNE20.jpg,AFSA12.jpg,FS,4,num_2,16,num_2,0.933451664863,,,2017_Sep_20_1640,59.9976137922,FEMA4ImagesEEG,001,201446,
AFNE01.JPG,AFNE01.JPG,AFNE01.JPG,AFNE01.JPG,AFNE01.JPG,AFNE01.JPG,2,2,22,8,,,,,,,,,,,,,,,,,,,,,,,AFNE04.jpg,AFNE20.jpg,AFSA12.jpg,AFSA13.jpg,AFNE04.jpg,FN,3,num_8,16,num_8,1.00010135371,,,2017_Sep_20_1640,59.9976137922,FEMA4ImagesEEG,001,201446,
AFNE01.JPG,AFNE01.JPG,AFNE01.JPG,AFNE01.JPG,AFNE01.JPG,AFNE01.JPG,2,3,23,4,,,,,,,,,,,,,,,,,,,,,,,AFNE03.jpg,AFNE18.jpg,AFSA16.jpg,AFSA13.jpg,AFNE18.jpg,FN,3,num_6,32,num_4,1.45005539173,,,2017_Sep_20_1640,59.9976137922,FEMA4ImagesEEG,001,201446,
AFNE01.JPG,AFNE01.JPG,AFNE01.JPG,AFNE01.JPG,AFNE01.JPG,AFNE01.JPG,2,4,24,1,,,,,,,,,,,,,,,,,,,,,,,AFSA08.jpg,AFNE09.jpg,AFNE03.jpg,AFSA06.jpg,AFNE09.jpg,FN,3,num_6,16,num_6,0.516791359531,,,2017_Sep_20_1640,59.9976137922,FEMA4ImagesEEG,001,201446,
AFNE01.JPG,AFNE01.JPG,AFNE01.JPG,AFNE01.JPG,AFNE01.JPG,AFNE01.JPG,2,5,25,5,,,,,,,,,,,,,,,,,,,,,,,AFNE04.jpg,AFNE03.jpg,AFSA20.jpg,AFSA06.jpg,AFSA06.jpg,FS,4,num_4,16,num_4,0.550166239334,,,2017_Sep_20_1640,59.9976137922,FEMA4ImagesEEG,001,201446,
AFNE01.JPG,AFNE01.JPG,AFNE01.JPG,AFNE01.JPG,AFNE01.JPG,AFNE01.JPG,2,6,26,3,,,,,,,,,,,,,,,,,,,,,,,AFNE19.jpg,AFSA06.jpg,AFNE20.jpg,AFSA18.jpg,AFSA18.jpg,FS,4,num_4,32,num_2,0.750055006842,,,2017_Sep_20_1640,59.9976137922,FEMA4ImagesEEG,001,201446,
AFNE01.JPG,AFNE01.JPG,AFNE01.JPG,AFNE01.JPG,AFNE01.JPG,AFNE01.JPG,2,7,27,2,,,,,,,,,,,,,,,,,,,,,,,AFNE17.jpg,AFNE12.jpg,AFSA05.jpg,AFSA15.jpg,AFSA05.jpg,FS,4,num_2,32,num_8,0.400146706292,,,2017_Sep_20_1640,59.9976137922,FEMA4ImagesEEG,001,201446,
AFNE01.JPG,AFNE01.JPG,AFNE01.JPG,AFNE01.JPG,AFNE01.JPG,AFNE01.JPG,2,8,28,6,,,,,,,,,,,,,,,,,,,,,,,AFSA02.jpg,AFNE15.jpg,AFSA11.jpg,AFNE19.jpg,AFNE15.jpg,FN,3,num_6,32,num_4,0.450125633701,,,2017_Sep_20_1640,59.9976137922,FEMA4ImagesEEG,001,201446,
AFNE01.JPG,AFNE01.JPG,AFNE01.JPG,AFNE01.JPG,AFNE01.JPG,AFNE01.JPG,2,9,29,0,,,,,,,,,,,,,,,,,,,,,,,AFNE17.jpg,AFSA19.jpg,AFNE04.jpg,AFSA16.jpg,AFNE04.jpg,FN,3,num_2,16,num_2,0.300157739735,,,2017_Sep_20_1640,59.9976137922,FEMA4ImagesEEG,001,201446,
AFNE01.JPG,AFNE01.JPG,AFNE01.JPG,AFNE01.JPG,AFNE01.JPG,AFNE01.JPG,3,0,30,5,,,,,,,,,,,,,,,,,,,,,,,AFSA08.jpg,AFNE17.jpg,AFSA19.jpg,AFNE09.jpg,AFSA19.jpg,FS,4,num_2,32,num_6,0.666825325856,,,2017_Sep_20_1640,59.9976137922,FEMA4ImagesEEG,001,201446,
AFNE01.JPG,AFNE01.JPG,AFNE01.JPG,AFNE01.JPG,AFNE01.JPG,AFNE01.JPG,3,1,31,3,,,,,,,,,,,,,,,,,,,,,,,AFNE03.jpg,AFSA11.jpg,AFNE09.jpg,AFSA19.jpg,AFSA11.jpg,FS,4,num_6,32,num_2,0.733432997818,,,2017_Sep_20_1640,59.9976137922,FEMA4ImagesEEG,001,201446,
AFNE01.JPG,AFNE01.JPG,AFNE01.JPG,AFNE01.JPG,AFNE01.JPG,AFNE01.JPG,3,2,32,9,,,,,,,,,,,,,,,,,,,,,,,AFNE11.jpg,AFNE07.jpg,AFSA08.jpg,AFSA01.jpg,AFSA08.jpg,FS,4,num_2,32,num_4,0.33352363883,,,2017_Sep_20_1640,59.9976137922,FEMA4ImagesEEG,001,201446,
AFNE01.JPG,AFNE01.JPG,AFNE01.JPG,AFNE01.JPG,AFNE01.JPG,AFNE01.JPG,3,3,33,4,,,,,,,,,,,,,,,,,,,,,,,AFSA05.jpg,AFNE01.jpg,AFSA19.jpg,AFNE09.jpg,AFSA19.jpg,FS,4,num_2,32,num_6,0.0168429986079,,,2017_Sep_20_1640,59.9976137922,FEMA4ImagesEEG,001,201446,
AFNE01.JPG,AFNE01.JPG,AFNE01.JPG,AFNE01.JPG,AFNE01.JPG,AFNE01.JPG,3,4,34,8,,,,,,,,,,,,,,,,,,,,,,,AFNE02.jpg,AFNE14.jpg,AFSA16.jpg,AFSA01.jpg,AFSA01.jpg,FS,4,num_4,16,num_4,0.333463660525,,,2017_Sep_20_1640,59.9976137922,FEMA4ImagesEEG,001,201446,
AFNE01.JPG,AFNE01.JPG,AFNE01.JPG,AFNE01.JPG,AFNE01.JPG,AFNE01.JPG,3,5,35,2,,,,,,,,,,,,,,,,,,,,,,,AFNE14.jpg,AFNE18.jpg,AFSA06.jpg,AFSA20.jpg,AFNE18.jpg,FN,3,num_6,32,num_8,0.383512509165,,,2017_Sep_20_1640,59.9976137922,FEMA4ImagesEEG,001,201446,
AFNE01.JPG,AFNE01.JPG,AFNE01.JPG,AFNE01.JPG,AFNE01.JPG,AFNE01.JPG,3,6,36,1,,,,,,,,,,,,,,,,,,,,,,,AFSA01.jpg,AFNE01.jpg,AFSA09.jpg,AFNE16.jpg,AFSA01.jpg,FS,4,num_8,32,num_6,0.750122362158,,,2017_Sep_20_1640,59.9976137922,FEMA4ImagesEEG,001,201446,
AFNE01.JPG,AFNE01.JPG,AFNE01.JPG,AFNE01.JPG,AFNE01.JPG,AFNE01.JPG,3,7,37,7,,,,,,,,,,,,,,,,,,,,,,,AFNE11.jpg,AFNE17.jpg,AFSA02.jpg,AFSA06.jpg,AFNE11.jpg,FN,3,num_8,32,num_2,0.65014847036,,,2017_Sep_20_1640,59.9976137922,FEMA4ImagesEEG,001,201446,
AFNE01.JPG,AFNE01.JPG,AFNE01.JPG,AFNE01.JPG,AFNE01.JPG,AFNE01.JPG,3,8,38,0,,,,,,,,,,,,,,,,,,,,,,,AFSA09.jpg,AFNE06.jpg,AFSA16.jpg,AFNE19.jpg,AFSA09.jpg,FS,4,num_8,16,num_8,0.383504169935,,,2017_Sep_20_1640,59.9976137922,FEMA4ImagesEEG,001,201446,
AFNE01.JPG,AFNE01.JPG,AFNE01.JPG,AFNE01.JPG,AFNE01.JPG,AFNE01.JPG,3,9,39,6,,,,,,,,,,,,,,,,,,,,,,,AFSA16.jpg,AFNE07.jpg,AFSA14.jpg,AFNE20.jpg,AFNE07.jpg,FN,3,num_6,32,num_4,0.350153987081,,,2017_Sep_20_1640,59.9976137922,FEMA4ImagesEEG,001,201446,
AFNE01.JPG,AFNE01.JPG,AFNE01.JPG,AFNE01.JPG,AFNE01.JPG,AFNE01.JPG,4,0,40,6,,,,,,,,,,,,,,,,,,,,,,,AFNE08.jpg,AFNE13.jpg,AFSA08.jpg,AFSA05.jpg,AFSA08.jpg,FS,4,num_2,32,num_6,0.566927770084,,,2017_Sep_20_1640,59.9976137922,FEMA4ImagesEEG,001,201446,
AFNE01.JPG,AFNE01.JPG,AFNE01.JPG,AFNE01.JPG,AFNE01.JPG,AFNE01.JPG,4,1,41,1,,,,,,,,,,,,,,,,,,,,,,,AFNE15.jpg,AFSA15.jpg,AFNE09.jpg,AFSA16.jpg,AFSA16.jpg,FS,4,num_4,16,num_4,0.0502076147441,,,2017_Sep_20_1640,59.9976137922,FEMA4ImagesEEG,001,201446,
AFNE01.JPG,AFNE01.JPG,AFNE01.JPG,AFNE01.JPG,AFNE01.JPG,AFNE01.JPG,4,2,42,7,,,,,,,,,,,,,,,,,,,,,,,AFNE02.jpg,AFNE01.jpg,AFSA02.jpg,AFSA16.jpg,AFNE01.jpg,FN,3,num_6,16,num_6,0.450160915057,,,2017_Sep_20_1640,59.9976137922,FEMA4ImagesEEG,001,201446,
AFNE01.JPG,AFNE01.JPG,AFNE01.JPG,AFNE01.JPG,AFNE01.JPG,AFNE01.JPG,4,3,43,5,,,,,,,,,,,,,,,,,,,,,,,AFSA17.jpg,AFSA06.jpg,AFNE04.jpg,AFNE15.jpg,AFSA06.jpg,FS,4,num_6,32,num_2,0.333463019044,,,2017_Sep_20_1640,59.9976137922,FEMA4ImagesEEG,001,201446,
AFNE01.JPG,AFNE01.JPG,AFNE01.JPG,AFNE01.JPG,AFNE01.JPG,AFNE01.JPG,4,4,44,8,,,,,,,,,,,,,,,,,,,,,,,AFNE04.jpg,AFNE10.jpg,AFSA09.jpg,AFSA02.jpg,AFSA09.jpg,FS,4,num_2,32,num_8,0.683487748069,,,2017_Sep_20_1640,59.9976137922,FEMA4ImagesEEG,001,201446,
AFNE01.JPG,AFNE01.JPG,AFNE01.JPG,AFNE01.JPG,AFNE01.JPG,AFNE01.JPG,4,5,45,9,,,,,,,,,,,,,,,,,,,,,,,AFNE10.jpg,AFSA08.jpg,AFNE04.jpg,AFSA18.jpg,AFSA18.jpg,FS,4,num_4,16,num_4,0.516812207605,,,2017_Sep_20_1640,59.9976137922,FEMA4ImagesEEG,001,201446,
AFNE01.JPG,AFNE01.JPG,AFNE01.JPG,AFNE01.JPG,AFNE01.JPG,AFNE01.JPG,4,6,46,2,,,,,,,,,,,,,,,,,,,,,,,AFSA04.jpg,AFNE12.jpg,AFNE10.jpg,AFSA01.jpg,AFSA01.jpg,FS,4,num_4,32,num_6,0.366790108648,,,2017_Sep_20_1640,59.9976137922,FEMA4ImagesEEG,001,201446,
AFNE01.JPG,AFNE01.JPG,AFNE01.JPG,AFNE01.JPG,AFNE01.JPG,AFNE01.JPG,4,7,47,0,,,,,,,,,,,,,,,,,,,,,,,AFSA05.jpg,AFSA06.jpg,AFNE20.jpg,AFNE05.jpg,AFNE20.jpg,FN,3,num_2,16,num_2,0.366787542731,,,2017_Sep_20_1640,59.9976137922,FEMA4ImagesEEG,001,201446,
AFNE01.JPG,AFNE01.JPG,AFNE01.JPG,AFNE01.JPG,AFNE01.JPG,AFNE01.JPG,4,8,48,4,,,,,,,,,,,,,,,,,,,,,,,AFNE04.jpg,AFNE11.jpg,AFSA09.jpg,AFSA11.jpg,AFNE04.jpg,FN,3,num_8,32,num_4,0.466813394343,,,2017_Sep_20_1640,59.9976137922,FEMA4ImagesEEG,001,201446,
AFNE01.JPG,AFNE01.JPG,AFNE01.JPG,AFNE01.JPG,AFNE01.JPG,AFNE01.JPG,4,9,49,3,,,,,,,,,,,,,,,,,,,,,,,AFSA02.jpg,AFNE11.jpg,AFSA07.jpg,AFNE06.jpg,AFNE11.jpg,FN,3,num_6,16,num_6,0.633472256346,,,2017_Sep_20_1640,59.9976137922,FEMA4ImagesEEG,001,201446,
AFNE01.JPG,AFNE01.JPG,AFNE01.JPG,AFNE01.JPG,AFNE01.JPG,AFNE01.JPG,5,0,50,9,,,,,,,,,,,,,,,,,,,,,,,AFNE13.jpg,AFSA13.jpg,AFSA02.jpg,AFNE17.jpg,AFSA02.jpg,FS,4,num_2,32,num_8,0.483521682318,,,2017_Sep_20_1640,59.9976137922,FEMA4ImagesEEG,001,201446,
AFNE01.JPG,AFNE01.JPG,AFNE01.JPG,AFNE01.JPG,AFNE01.JPG,AFNE01.JPG,5,1,51,6,,,,,,,,,,,,,,,,,,,,,,,AFNE17.jpg,AFSA09.jpg,AFSA02.jpg,AFNE15.jpg,AFNE17.jpg,FN,3,num_8,32,num_2,0.383462794527,,,2017_Sep_20_1640,59.9976137922,FEMA4ImagesEEG,001,201446,
AFNE01.JPG,AFNE01.JPG,AFNE01.JPG,AFNE01.JPG,AFNE01.JPG,AFNE01.JPG,5,2,52,2,,,,,,,,,,,,,,,,,,,,,,,AFNE06.jpg,AFSA10.jpg,AFNE02.jpg,AFSA16.jpg,AFSA10.jpg,FS,4,num_6,32,num_4,0.566781192087,,,2017_Sep_20_1640,59.9976137922,FEMA4ImagesEEG,001,201446,
AFNE01.JPG,AFNE01.JPG,AFNE01.JPG,AFNE01.JPG,AFNE01.JPG,AFNE01.JPG,5,3,53,3,,,,,,,,,,,,,,,,,,,,,,,AFSA02.jpg,AFSA07.jpg,AFNE18.jpg,AFNE06.jpg,AFNE06.jpg,FN,3,num_4,32,num_6,0.650127301547,,,2017_Sep_20_1640,59.9976137922,FEMA4ImagesEEG,001,201446,
AFNE01.JPG,AFNE01.JPG,AFNE01.JPG,AFNE01.JPG,AFNE01.JPG,AFNE01.JPG,5,4,54,4,,,,,,,,,,,,,,,,,,,,,,,AFNE11.jpg,AFNE18.jpg,AFSA15.jpg,AFSA10.jpg,AFSA10.jpg,FS,4,num_4,16,num_4,0.683511482797,,,2017_Sep_20_1640,59.9976137922,FEMA4ImagesEEG,001,201446,
AFNE01.JPG,AFNE01.JPG,AFNE01.JPG,AFNE01.JPG,AFNE01.JPG,AFNE01.JPG,5,5,55,7,,,,,,,,,,,,,,,,,,,,,,,AFNE06.jpg,AFSA18.jpg,AFSA17.jpg,AFNE16.jpg,AFSA18.jpg,FS,4,num_6,16,num_6,1.08344650096,,,2017_Sep_20_1640,59.9976137922,FEMA4ImagesEEG,001,201446,
AFNE01.JPG,AFNE01.JPG,AFNE01.JPG,AFNE01.JPG,AFNE01.JPG,AFNE01.JPG,5,6,56,5,,,,,,,,,,,,,,,,,,,,,,,AFSA19.jpg,AFNE12.jpg,AFSA12.jpg,AFNE07.jpg,AFNE12.jpg,FN,3,num_6,32,num_2,0.633484444452,,,2017_Sep_20_1640,59.9976137922,FEMA4ImagesEEG,001,201446,
AFNE01.JPG,AFNE01.JPG,AFNE01.JPG,AFNE01.JPG,AFNE01.JPG,AFNE01.JPG,5,7,57,8,,,,,,,,,,,,,,,,,,,,,,,AFNE19.jpg,AFNE18.jpg,AFSA08.jpg,AFSA02.jpg,AFNE18.jpg,FN,3,num_6,32,num_8,0.833288215963,,,2017_Sep_20_1640,59.9976137922,FEMA4ImagesEEG,001,201446,
AFNE01.JPG,AFNE01.JPG,AFNE01.JPG,AFNE01.JPG,AFNE01.JPG,AFNE01.JPG,5,8,58,0,,,,,,,,,,,,,,,,,,,,,,,AFSA07.jpg,AFNE07.jpg,AFNE04.jpg,AFSA09.jpg,AFNE07.jpg,FN,3,num_6,16,num_6,0.350136025665,,,2017_Sep_20_1640,59.9976137922,FEMA4ImagesEEG,001,201446,
AFNE01.JPG,AFNE01.JPG,AFNE01.JPG,AFNE01.JPG,AFNE01.JPG,AFNE01.JPG,5,9,59,1,,,,,,,,,,,,,,,,,,,,,,,AFNE14.jpg,AFNE02.jpg,AFSA13.jpg,AFSA07.jpg,AFSA07.jpg,FS,4,num_4,16,num_4,0.733453525152,,,2017_Sep_20_1640,59.9976137922,FEMA4ImagesEEG,001,201446,
,,,,,,,,,,,,,,,,,,,,,,,,,,,,,,,,,,,,,,,,,,,space,35.8804138439,2017_Sep_20_1640,59.9976137922,FEMA4ImagesEEG,001,201446,
AFNE01.JPG,AFNE01.JPG,AFNE01.JPG,AFNE01.JPG,AFNE01.JPG,AFNE01.JPG,,,,,0,0,0,7,,,,,,,,,,,,,,,,,,,AMNE02.jpg,AMSA13.jpg,AMSA09.jpg,AMNE09.jpg,AMSA13.jpg,MS,2,num_6,32,num_8,0.516821188314,,,2017_Sep_20_1640,59.9976137922,FEMA4ImagesEEG,001,201446,
AFNE01.JPG,AFNE01.JPG,AFNE01.JPG,AFNE01.JPG,AFNE01.JPG,AFNE01.JPG,,,,,0,1,1,5,,,,,,,,,,,,,,,,,,,AMSA06.jpg,AMSA18.jpg,AMNE05.jpg,AMNE07.jpg,AMSA18.jpg,MS,2,num_6,16,num_6,0.350095612475,,,2017_Sep_20_1640,59.9976137922,FEMA4ImagesEEG,001,201446,
AFNE01.JPG,AFNE01.JPG,AFNE01.JPG,AFNE01.JPG,AFNE01.JPG,AFNE01.JPG,,,,,0,2,2,6,,,,,,,,,,,,,,,,,,,AMSA16.jpg,AMNE01.jpg,AMNE14.jpg,AMSA09.jpg,AMNE01.jpg,MN,1,num_6,32,num_2,0.200186734595,,,2017_Sep_20_1640,59.9976137922,FEMA4ImagesEEG,001,201446,
AFNE01.JPG,AFNE01.JPG,AFNE01.JPG,AFNE01.JPG,AFNE01.JPG,AFNE01.JPG,,,,,0,3,3,0,,,,,,,,,,,,,,,,,,,AMSA18.jpg,AMNE14.jpg,AMNE20.jpg,AMSA19.jpg,AMSA19.jpg,MS,2,num_4,16,num_4,0.433462890749,,,2017_Sep_20_1640,59.9976137922,FEMA4ImagesEEG,001,201446,
AFNE01.JPG,AFNE01.JPG,AFNE01.JPG,AFNE01.JPG,AFNE01.JPG,AFNE01.JPG,,,,,0,4,4,2,,,,,,,,,,,,,,,,,,,AMSA14.jpg,AMNE13.jpg,AMSA17.jpg,AMNE11.jpg,AMNE11.jpg,MN,1,num_4,32,num_6,0.733505805707,,,2017_Sep_20_1640,59.9976137922,FEMA4ImagesEEG,001,201446,
AFNE01.JPG,AFNE01.JPG,AFNE01.JPG,AFNE01.JPG,AFNE01.JPG,AFNE01.JPG,,,,,0,5,5,1,,,,,,,,,,,,,,,,,,,AMSA19.jpg,AMNE15.jpg,AMSA05.jpg,AMNE06.jpg,AMNE06.jpg,MN,1,num_4,32,num_8,0.550164635637,,,2017_Sep_20_1640,59.9976137922,FEMA4ImagesEEG,001,201446,
AFNE01.JPG,AFNE01.JPG,AFNE01.JPG,AFNE01.JPG,AFNE01.JPG,AFNE01.JPG,,,,,0,6,6,8,,,,,,,,,,,,,,,,,,,AMSA19.jpg,AMNE03.jpg,AMSA02.jpg,AMNE12.jpg,AMSA19.jpg,MS,2,num_8,32,num_2,0.316844538158,,,2017_Sep_20_1640,59.9976137922,FEMA4ImagesEEG,001,201446,
AFNE01.JPG,AFNE01.JPG,AFNE01.JPG,AFNE01.JPG,AFNE01.JPG,AFNE01.JPG,,,,,0,7,7,3,,,,,,,,,,,,,,,,,,,AMSA07.jpg,AMSA17.jpg,AMNE15.jpg,AMNE01.jpg,AMSA17.jpg,MS,2,num_6,32,num_4,0.566815190483,,,2017_Sep_20_1640,59.9976137922,FEMA4ImagesEEG,001,201446,
AFNE01.JPG,AFNE01.JPG,AFNE01.JPG,AFNE01.JPG,AFNE01.JPG,AFNE01.JPG,,,,,0,8,8,9,,,,,,,,,,,,,,,,,,,AMSA18.jpg,AMNE01.jpg,AMNE20.jpg,AMSA01.jpg,AMSA18.jpg,MS,2,num_8,32,num_6,0.483475175077,,,2017_Sep_20_1640,59.9976137922,FEMA4ImagesEEG,001,201446,
AFNE01.JPG,AFNE01.JPG,AFNE01.JPG,AFNE01.JPG,AFNE01.JPG,AFNE01.JPG,,,,,0,9,9,4,,,,,,,,,,,,,,,,,,,AMNE02.jpg,AMNE15.jpg,AMSA20.jpg,AMSA14.jpg,AMNE02.jpg,MN,1,num_8,16,num_8,0.316758900684,,,2017_Sep_20_1640,59.9976137922,FEMA4ImagesEEG,001,201446,
AFNE01.JPG,AFNE01.JPG,AFNE01.JPG,AFNE01.JPG,AFNE01.JPG,AFNE01.JPG,,,,,1,0,10,3,,,,,,,,,,,,,,,,,,,AMSA11.jpg,AMNE12.jpg,AMSA16.jpg,AMNE07.jpg,AMSA16.jpg,MS,2,num_2,16,num_2,0.28377788911,,,2017_Sep_20_1640,59.9976137922,FEMA4ImagesEEG,001,201446,
AFNE01.JPG,AFNE01.JPG,AFNE01.JPG,AFNE01.JPG,AFNE01.JPG,AFNE01.JPG,,,,,1,1,11,1,,,,,,,,,,,,,,,,,,,AMNE12.jpg,AMSA20.jpg,AMSA15.jpg,AMNE14.jpg,AMNE14.jpg,MN,1,num_4,16,num_4,0.233516069375,,,2017_Sep_20_1640,59.9976137922,FEMA4ImagesEEG,001,201446,
AFNE01.JPG,AFNE01.JPG,AFNE01.JPG,AFNE01.JPG,AFNE01.JPG,AFNE01.JPG,,,,,1,2,12,0,,,,,,,,,,,,,,,,,,,AMNE01.jpg,AMNE09.jpg,AMSA01.jpg,AMSA16.jpg,AMNE01.jpg,MN,1,num_8,32,num_6,0.316812784937,,,2017_Sep_20_1640,59.9976137922,FEMA4ImagesEEG,001,201446,
AFNE01.JPG,AFNE01.JPG,AFNE01.JPG,AFNE01.JPG,AFNE01.JPG,AFNE01.JPG,,,,,1,3,13,6,,,,,,,,,,,,,,,,,,,AMSA13.jpg,AMNE15.jpg,AMNE13.jpg,AMSA02.jpg,AMNE15.jpg,MN,1,num_6,32,num_8,0.100168580733,,,2017_Sep_20_1640,59.9976137922,FEMA4ImagesEEG,001,201446,
AFNE01.JPG,AFNE01.JPG,AFNE01.JPG,AFNE01.JPG,AFNE01.JPG,AFNE01.JPG,,,,,1,4,14,8,,,,,,,,,,,,,,,,,,,AMSA04.jpg,AMNE08.jpg,AMNE02.jpg,AMSA13.jpg,AMNE02.jpg,MN,1,num_2,32,num_8,0.200161075427,,,2017_Sep_20_1640,59.9976137922,FEMA4ImagesEEG,001,201446,
AFNE01.JPG,AFNE01.JPG,AFNE01.JPG,AFNE01.JPG,AFNE01.JPG,AFNE01.JPG,,,,,1,5,15,2,,,,,,,,,,,,,,,,,,,AMNE06.jpg,AMNE10.jpg,AMSA05.jpg,AMSA11.jpg,AMNE06.jpg,MN,1,num_8,16,num_8,0.266772596266,,,2017_Sep_20_1640,59.9976137922,FEMA4ImagesEEG,001,201446,
AFNE01.JPG,AFNE01.JPG,AFNE01.JPG,AFNE01.JPG,AFNE01.JPG,AFNE01.JPG,,,,,1,6,16,4,,,,,,,,,,,,,,,,,,,AMSA17.jpg,AMNE12.jpg,AMSA11.jpg,AMNE16.jpg,AMSA17.jpg,MS,2,num_8,16,num_8,0.250159247211,,,2017_Sep_20_1640,59.9976137922,FEMA4ImagesEEG,001,201446,
AFNE01.JPG,AFNE01.JPG,AFNE01.JPG,AFNE01.JPG,AFNE01.JPG,AFNE01.JPG,,,,,1,7,17,5,,,,,,,,,,,,,,,,,,,AMNE11.jpg,AMSA19.jpg,AMSA04.jpg,AMNE12.jpg,AMSA19.jpg,MS,2,num_6,32,num_4,0.483462024751,,,2017_Sep_20_1640,59.9976137922,FEMA4ImagesEEG,001,201446,
AFNE01.JPG,AFNE01.JPG,AFNE01.JPG,AFNE01.JPG,AFNE01.JPG,AFNE01.JPG,,,,,1,8,18,7,,,,,,,,,,,,,,,,,,,AMNE03.jpg,AMNE14.jpg,AMSA19.jpg,AMSA05.jpg,AMSA19.jpg,MS,2,num_2,32,num_6,1.16674642391,,,2017_Sep_20_1640,59.9976137922,FEMA4ImagesEEG,001,201446,
AFNE01.JPG,AFNE01.JPG,AFNE01.JPG,AFNE01.JPG,AFNE01.JPG,AFNE01.JPG,,,,,1,9,19,9,,,,,,,,,,,,,,,,,,,AMSA12.jpg,AMSA17.jpg,AMNE03.jpg,AMNE08.jpg,AMNE08.jpg,MN,1,num_4,16,num_4,0.350215248345,,,2017_Sep_20_1640,59.9976137922,FEMA4ImagesEEG,001,201446,
AFNE01.JPG,AFNE01.JPG,AFNE01.JPG,AFNE01.JPG,AFNE01.JPG,AFNE01.JPG,,,,,2,0,20,1,,,,,,,,,,,,,,,,,,,AMSA03.jpg,AMNE03.jpg,AMSA09.jpg,AMNE02.jpg,AMSA03.jpg,MS,2,num_8,16,num_8,0.700145359186,,,2017_Sep_20_1640,59.9976137922,FEMA4ImagesEEG,001,201446,
AFNE01.JPG,AFNE01.JPG,AFNE01.JPG,AFNE01.JPG,AFNE01.JPG,AFNE01.JPG,,,,,2,1,21,7,,,,,,,,,,,,,,,,,,,AMNE12.jpg,AMNE18.jpg,AMSA14.jpg,AMSA18.jpg,AMSA14.jpg,MS,2,num_2,32,num_8,0.600191032505,,,2017_Sep_20_1640,59.9976137922,FEMA4ImagesEEG,001,201446,
AFNE01.JPG,AFNE01.JPG,AFNE01.JPG,AFNE01.JPG,AFNE01.JPG,AFNE01.JPG,,,,,2,2,22,5,,,,,,,,,,,,,,,,,,,AMSA03.jpg,AMNE09.jpg,AMSA20.jpg,AMNE15.jpg,AMNE09.jpg,MN,1,num_6,16,num_6,0.233810187588,,,2017_Sep_20_1640,59.9976137922,FEMA4ImagesEEG,001,201446,
AFNE01.JPG,AFNE01.JPG,AFNE01.JPG,AFNE01.JPG,AFNE01.JPG,AFNE01.JPG,,,,,2,3,23,8,,,,,,,,,,,,,,,,,,,AMNE14.jpg,AMSA17.jpg,AMSA05.jpg,AMNE04.jpg,AMNE14.jpg,MN,1,num_8,32,num_2,0.333490923391,,,2017_Sep_20_1640,59.9976137922,FEMA4ImagesEEG,001,201446,
AFNE01.JPG,AFNE01.JPG,AFNE01.JPG,AFNE01.JPG,AFNE01.JPG,AFNE01.JPG,,,,,2,4,24,6,,,,,,,,,,,,,,,,,,,AMSA17.jpg,AMNE04.jpg,AMNE19.jpg,AMSA16.jpg,AMNE04.jpg,MN,1,num_6,32,num_8,0.483472288419,,,2017_Sep_20_1640,59.9976137922,FEMA4ImagesEEG,001,201446,
AFNE01.JPG,AFNE01.JPG,AFNE01.JPG,AFNE01.JPG,AFNE01.JPG,AFNE01.JPG,,,,,2,5,25,2,,,,,,,,,,,,,,,,,,,AMSA18.jpg,AMNE05.jpg,AMSA01.jpg,AMNE04.jpg,AMNE04.jpg,MN,1,num_4,16,num_4,0.333474886409,,,2017_Sep_20_1640,59.9976137922,FEMA4ImagesEEG,001,201446,
AFNE01.JPG,AFNE01.JPG,AFNE01.JPG,AFNE01.JPG,AFNE01.JPG,AFNE01.JPG,,,,,2,6,26,3,,,,,,,,,,,,,,,,,,,AMNE08.jpg,AMSA01.jpg,AMSA05.jpg,AMNE19.jpg,AMSA01.jpg,MS,2,num_6,16,num_6,0.266786388069,,,2017_Sep_20_1640,59.9976137922,FEMA4ImagesEEG,001,201446,
AFNE01.JPG,AFNE01.JPG,AFNE01.JPG,AFNE01.JPG,AFNE01.JPG,AFNE01.JPG,,,,,2,7,27,9,,,,,,,,,,,,,,,,,,,AMNE08.jpg,AMSA18.jpg,AMNE11.jpg,AMSA09.jpg,AMSA09.jpg,MS,2,num_4,32,num_6,3.08329190447,,,2017_Sep_20_1640,59.9976137922,FEMA4ImagesEEG,001,201446,
AFNE01.JPG,AFNE01.JPG,AFNE01.JPG,AFNE01.JPG,AFNE01.JPG,AFNE01.JPG,,,,,2,8,28,0,,,,,,,,,,,,,,,,,,,AMSA19.jpg,AMSA09.jpg,AMNE03.jpg,AMNE02.jpg,AMSA19.jpg,MS,2,num_8,16,num_8,0.683511803538,,,2017_Sep_20_1640,59.9976137922,FEMA4ImagesEEG,001,201446,
AFNE01.JPG,AFNE01.JPG,AFNE01.JPG,AFNE01.JPG,AFNE01.JPG,AFNE01.JPG,,,,,2,9,29,4,,,,,,,,,,,,,,,,,,,AMSA02.jpg,AMSA01.jpg,AMNE07.jpg,AMNE09.jpg,AMNE09.jpg,MN,1,num_4,32,num_2,0.333512412943,,,2017_Sep_20_1640,59.9976137922,FEMA4ImagesEEG,001,201446,
AFNE01.JPG,AFNE01.JPG,AFNE01.JPG,AFNE01.JPG,AFNE01.JPG,AFNE01.JPG,,,,,3,0,30,2,,,,,,,,,,,,,,,,,,,AMNE08.jpg,AMSA03.jpg,AMNE05.jpg,AMSA10.jpg,AMSA03.jpg,MS,2,num_6,32,num_4,0.25016822792,,,2017_Sep_20_1640,59.9976137922,FEMA4ImagesEEG,001,201446,
AFNE01.JPG,AFNE01.JPG,AFNE01.JPG,AFNE01.JPG,AFNE01.JPG,AFNE01.JPG,,,,,3,1,31,7,,,,,,,,,,,,,,,,,,,AMSA12.jpg,AMSA18.jpg,AMNE07.jpg,AMNE06.jpg,AMSA12.jpg,MS,2,num_8,32,num_6,0.316802521269,,,2017_Sep_20_1640,59.9976137922,FEMA4ImagesEEG,001,201446,
AFNE01.JPG,AFNE01.JPG,AFNE01.JPG,AFNE01.JPG,AFNE01.JPG,AFNE01.JPG,,,,,3,2,32,4,,,,,,,,,,,,,,,,,,,AMNE07.jpg,AMNE08.jpg,AMSA01.jpg,AMSA17.jpg,AMSA17.jpg,MS,2,num_4,32,num_2,0.566902752396,,,2017_Sep_20_1640,59.9976137922,FEMA4ImagesEEG,001,201446,
AFNE01.JPG,AFNE01.JPG,AFNE01.JPG,AFNE01.JPG,AFNE01.JPG,AFNE01.JPG,,,,,3,3,33,5,,,,,,,,,,,,,,,,,,,AMNE05.jpg,AMSA01.jpg,AMSA13.jpg,AMNE15.jpg,AMNE15.jpg,MN,1,num_4,32,num_8,0.533533966645,,,2017_Sep_20_1640,59.9976137922,FEMA4ImagesEEG,001,201446,
AFNE01.JPG,AFNE01.JPG,AFNE01.JPG,AFNE01.JPG,AFNE01.JPG,AFNE01.JPG,,,,,3,4,34,6,,,,,,,,,,,,,,,,,,,AMNE16.jpg,AMSA19.jpg,AMSA15.jpg,AMNE04.jpg,AMNE16.jpg,MN,1,num_8,32,num_4,0.51681766018,,,2017_Sep_20_1640,59.9976137922,FEMA4ImagesEEG,001,201446,
AFNE01.JPG,AFNE01.JPG,AFNE01.JPG,AFNE01.JPG,AFNE01.JPG,AFNE01.JPG,,,,,3,5,35,8,,,,,,,,,,,,,,,,,,,AMSA11.jpg,AMSA12.jpg,AMNE16.jpg,AMNE19.jpg,AMSA12.jpg,MS,2,num_6,16,num_6,0.61680374008,,,2017_Sep_20_1640,59.9976137922,FEMA4ImagesEEG,001,201446,
AFNE01.JPG,AFNE01.JPG,AFNE01.JPG,AFNE01.JPG,AFNE01.JPG,AFNE01.JPG,,,,,3,6,36,0,,,,,,,,,,,,,,,,,,,AMNE20.jpg,AMNE17.jpg,AMSA09.jpg,AMSA05.jpg,AMNE20.jpg,MN,1,num_8,32,num_2,0.350133459748,,,2017_Sep_20_1640,59.9976137922,FEMA4ImagesEEG,001,201446,
AFNE01.JPG,AFNE01.JPG,AFNE01.JPG,AFNE01.JPG,AFNE01.JPG,AFNE01.JPG,,,,,3,7,37,3,,,,,,,,,,,,,,,,,,,AMSA12.jpg,AMSA07.jpg,AMNE14.jpg,AMNE02.jpg,AMNE02.jpg,MN,1,num_4,32,num_8,0.283512316721,,,2017_Sep_20_1640,59.9976137922,FEMA4ImagesEEG,001,201446,
AFNE01.JPG,AFNE01.JPG,AFNE01.JPG,AFNE01.JPG,AFNE01.JPG,AFNE01.JPG,,,,,3,8,38,9,,,,,,,,,,,,,,,,,,,AMSA06.jpg,AMNE03.jpg,AMSA09.jpg,AMNE19.jpg,AMNE19.jpg,MN,1,num_4,16,num_4,0.750221470693,,,2017_Sep_20_1640,59.9976137922,FEMA4ImagesEEG,001,201446,
AFNE01.JPG,AFNE01.JPG,AFNE01.JPG,AFNE01.JPG,AFNE01.JPG,AFNE01.JPG,,,,,3,9,39,1,,,,,,,,,,,,,,,,,,,AMNE10.jpg,AMSA02.jpg,AMNE13.jpg,AMSA01.jpg,AMNE13.jpg,MN,1,num_2,32,num_6,0.283479280544,,,2017_Sep_20_1640,59.9976137922,FEMA4ImagesEEG,001,201446,
AFNE01.JPG,AFNE01.JPG,AFNE01.JPG,AFNE01.JPG,AFNE01.JPG,AFNE01.JPG,,,,,4,0,40,2,,,,,,,,,,,,,,,,,,,AMNE05.jpg,AMSA02.jpg,AMSA06.jpg,AMNE07.jpg,AMNE07.jpg,MN,1,num_4,32,num_8,0.0166874399001,,,2017_Sep_20_1640,59.9976137922,FEMA4ImagesEEG,001,201446,
AFNE01.JPG,AFNE01.JPG,AFNE01.JPG,AFNE01.JPG,AFNE01.JPG,AFNE01.JPG,,,,,4,1,41,1,,,,,,,,,,,,,,,,,,,AMNE13.jpg,AMNE08.jpg,AMSA07.jpg,AMSA02.jpg,AMSA02.jpg,MS,2,num_4,32,num_2,0.650139489651,,,2017_Sep_20_1640,59.9976137922,FEMA4ImagesEEG,001,201446,
AFNE01.JPG,AFNE01.JPG,AFNE01.JPG,AFNE01.JPG,AFNE01.JPG,AFNE01.JPG,,,,,4,2,42,7,,,,,,,,,,,,,,,,,,,AMSA17.jpg,AMSA19.jpg,AMNE17.jpg,AMNE10.jpg,AMNE17.jpg,MN,1,num_2,16,num_2,0.333488998953,,,2017_Sep_20_1640,59.9976137922,FEMA4ImagesEEG,001,201446,
AFNE01.JPG,AFNE01.JPG,AFNE01.JPG,AFNE01.JPG,AFNE01.JPG,AFNE01.JPG,,,,,4,3,43,0,,,,,,,,,,,,,,,,,,,AMNE13.jpg,AMSA06.jpg,AMSA02.jpg,AMNE14.jpg,AMSA06.jpg,MS,2,num_6,32,num_4,1.16670697294,,,2017_Sep_20_1640,59.9976137922,FEMA4ImagesEEG,001,201446,
AFNE01.JPG,AFNE01.JPG,AFNE01.JPG,AFNE01.JPG,AFNE01.JPG,AFNE01.JPG,,,,,4,4,44,3,,,,,,,,,,,,,,,,,,,AMSA07.jpg,AMSA06.jpg,AMNE08.jpg,AMNE02.jpg,AMNE02.jpg,MN,1,num_4,32,num_6,0.150143980007,,,2017_Sep_20_1640,59.9976137922,FEMA4ImagesEEG,001,201446,
AFNE01.JPG,AFNE01.JPG,AFNE01.JPG,AFNE01.JPG,AFNE01.JPG,AFNE01.JPG,,,,,4,5,45,4,,,,,,,,,,,,,,,,,,,AMSA13.jpg,AMSA18.jpg,AMNE11.jpg,AMNE07.jpg,AMNE11.jpg,MN,1,num_2,32,num_4,1.30018596482,,,2017_Sep_20_1640,59.9976137922,FEMA4ImagesEEG,001,201446,
AFNE01.JPG,AFNE01.JPG,AFNE01.JPG,AFNE01.JPG,AFNE01.JPG,AFNE01.JPG,,,,,4,6,46,9,,,,,,,,,,,,,,,,,,,AMSA18.jpg,AMSA13.jpg,AMNE02.jpg,AMNE06.jpg,AMSA13.jpg,MS,2,num_6,16,num_6,0.416803996672,,,2017_Sep_20_1640,59.9976137922,FEMA4ImagesEEG,001,201446,
AFNE01.JPG,AFNE01.JPG,AFNE01.JPG,AFNE01.JPG,AFNE01.JPG,AFNE01.JPG,,,,,4,7,47,5,,,,,,,,,,,,,,,,,,,AMNE03.jpg,AMNE17.jpg,AMSA02.jpg,AMSA08.jpg,AMSA02.jpg,MS,2,num_2,32,num_8,0.333529412143,,,2017_Sep_20_1640,59.9976137922,FEMA4ImagesEEG,001,201446,
AFNE01.JPG,AFNE01.JPG,AFNE01.JPG,AFNE01.JPG,AFNE01.JPG,AFNE01.JPG,,,,,4,8,48,6,,,,,,,,,,,,,,,,,,,AMSA02.jpg,AMNE17.jpg,AMNE01.jpg,AMSA16.jpg,AMSA16.jpg,MS,2,num_4,16,num_4,0.300200718842,,,2017_Sep_20_1640,59.9976137922,FEMA4ImagesEEG,001,201446,
AFNE01.JPG,AFNE01.JPG,AFNE01.JPG,AFNE01.JPG,AFNE01.JPG,AFNE01.JPG,,,,,4,9,49,8,,,,,,,,,,,,,,,,,,,AMSA09.jpg,AMNE08.jpg,AMNE11.jpg,AMSA17.jpg,AMSA17.jpg,MS,2,num_4,32,num_2,0.500258836857,,,2017_Sep_20_1640,59.9976137922,FEMA4ImagesEEG,001,201446,
AFNE01.JPG,AFNE01.JPG,AFNE01.JPG,AFNE01.JPG,AFNE01.JPG,AFNE01.JPG,,,,,5,0,50,1,,,,,,,,,,,,,,,,,,,AMNE01.jpg,AMSA19.jpg,AMSA06.jpg,AMNE07.jpg,AMNE01.jpg,MN,1,num_8,32,num_6,0.300147796806,,,2017_Sep_20_1640,59.9976137922,FEMA4ImagesEEG,001,201446,
AFNE01.JPG,AFNE01.JPG,AFNE01.JPG,AFNE01.JPG,AFNE01.JPG,AFNE01.JPG,,,,,5,1,51,5,,,,,,,,,,,,,,,,,,,AMSA07.jpg,AMNE03.jpg,AMNE14.jpg,AMSA14.jpg,AMNE14.jpg,MN,1,num_2,16,num_2,0.316784559853,,,2017_Sep_20_1640,59.9976137922,FEMA4ImagesEEG,001,201446,
AFNE01.JPG,AFNE01.JPG,AFNE01.JPG,AFNE01.JPG,AFNE01.JPG,AFNE01.JPG,,,,,5,2,52,0,,,,,,,,,,,,,,,,,,,AMNE05.jpg,AMSA01.jpg,AMSA12.jpg,AMNE18.jpg,AMSA12.jpg,MS,2,num_2,32,num_4,0.316859933659,,,2017_Sep_20_1640,59.9976137922,FEMA4ImagesEEG,001,201446,
AFNE01.JPG,AFNE01.JPG,AFNE01.JPG,AFNE01.JPG,AFNE01.JPG,AFNE01.JPG,,,,,5,3,53,6,,,,,,,,,,,,,,,,,,,AMSA05.jpg,AMNE13.jpg,AMSA02.jpg,AMNE07.jpg,AMNE13.jpg,MN,1,num_6,16,num_6,0.466830393541,,,2017_Sep_20_1640,59.9976137922,FEMA4ImagesEEG,001,201446,
AFNE01.JPG,AFNE01.JPG,AFNE01.JPG,AFNE01.JPG,AFNE01.JPG,AFNE01.JPG,,,,,5,4,54,2,,,,,,,,,,,,,,,,,,,AMNE04.jpg,AMSA13.jpg,AMNE07.jpg,AMSA16.jpg,AMSA13.jpg,MS,2,num_6,32,num_8,0.250175284191,,,2017_Sep_20_1640,59.9976137922,FEMA4ImagesEEG,001,201446,
AFNE01.JPG,AFNE01.JPG,AFNE01.JPG,AFNE01.JPG,AFNE01.JPG,AFNE01.JPG,,,,,5,5,55,7,,,,,,,,,,,,,,,,,,,AMSA10.jpg,AMNE06.jpg,AMNE03.jpg,AMSA09.jpg,AMSA10.jpg,MS,2,num_8,32,num_2,0.483455609959,,,2017_Sep_20_1640,59.9976137922,FEMA4ImagesEEG,001,201446,
AFNE01.JPG,AFNE01.JPG,AFNE01.JPG,AFNE01.JPG,AFNE01.JPG,AFNE01.JPG,,,,,5,6,56,3,,,,,,,,,,,,,,,,,,,AMSA10.jpg,AMSA14.jpg,AMNE09.jpg,AMNE10.jpg,AMNE09.jpg,MN,1,num_2,32,num_6,0.816782956155,,,2017_Sep_20_1640,59.9976137922,FEMA4ImagesEEG,001,201446,
AFNE01.JPG,AFNE01.JPG,AFNE01.JPG,AFNE01.JPG,AFNE01.JPG,AFNE01.JPG,,,,,5,7,57,8,,,,,,,,,,,,,,,,,,,AMNE04.jpg,AMSA11.jpg,AMSA13.jpg,AMNE10.jpg,AMNE10.jpg,MN,1,num_4,16,num_4,1.13342863576,,,2017_Sep_20_1640,59.9976137922,FEMA4ImagesEEG,001,201446,
AFNE01.JPG,AFNE01.JPG,AFNE01.JPG,AFNE01.JPG,AFNE01.JPG,AFNE01.JPG,,,,,5,8,58,4,,,,,,,,,,,,,,,,,,,AMNE01.jpg,AMSA04.jpg,AMNE09.jpg,AMSA01.jpg,AMNE09.jpg,MN,1,num_2,16,num_2,0.750178812328,,,2017_Sep_20_1640,59.9976137922,FEMA4ImagesEEG,001,201446,
AFNE01.JPG,AFNE01.JPG,AFNE01.JPG,AFNE01.JPG,AFNE01.JPG,AFNE01.JPG,,,,,5,9,59,9,,,,,,,,,,,,,,,,,,,AMNE02.jpg,AMSA14.jpg,AMSA01.jpg,AMNE19.jpg,AMNE02.jpg,MN,1,num_8,32,num_2,0.700134774779,,,2017_Sep_20_1640,59.9976137922,FEMA4ImagesEEG,001,201446,
,,,,,,,,,,,,,,,,,,,,,,,,,,,,,,,,,,,,,,,,,,,space,5.3166642825,2017_Sep_20_1640,59.9976137922,FEMA4ImagesEEG,001,201446,
AFNE01.JPG,AFNE01.JPG,AFNE01.JPG,AFNE01.JPG,AFNE01.JPG,AFNE01.JPG,,,,,,,,,0,0,0,7,,,,,,,,,,,,,,,AFNE10.jpg,AFNE14.jpg,AFSA16.jpg,AFSA11.jpg,AFNE10.jpg,FN,3,num_8,32,num_2,0.666768234207,,,2017_Sep_20_1640,59.9976137922,FEMA4ImagesEEG,001,201446,
AFNE01.JPG,AFNE01.JPG,AFNE01.JPG,AFNE01.JPG,AFNE01.JPG,AFNE01.JPG,,,,,,,,,0,1,1,2,,,,,,,,,,,,,,,AFSA15.jpg,AFSA09.jpg,AFNE07.jpg,AFNE06.jpg,AFNE07.jpg,FN,3,num_2,32,num_4,0.750128456209,,,2017_Sep_20_1640,59.9976137922,FEMA4ImagesEEG,001,201446,
AFNE01.JPG,AFNE01.JPG,AFNE01.JPG,AFNE01.JPG,AFNE01.JPG,AFNE01.JPG,,,,,,,,,0,2,2,5,,,,,,,,,,,,,,,AFSA20.jpg,AFNE03.jpg,AFNE06.jpg,AFSA14.jpg,AFNE06.jpg,FN,3,num_2,32,num_6,0.250140965054,,,2017_Sep_20_1640,59.9976137922,FEMA4ImagesEEG,001,201446,
AFNE01.JPG,AFNE01.JPG,AFNE01.JPG,AFNE01.JPG,AFNE01.JPG,AFNE01.JPG,,,,,,,,,0,3,3,0,,,,,,,,,,,,,,,AFNE19.jpg,AFSA01.jpg,AFNE13.jpg,AFSA08.jpg,AFSA08.jpg,FS,4,num_4,16,num_4,0.283471262053,,,2017_Sep_20_1640,59.9976137922,FEMA4ImagesEEG,001,201446,
AFNE01.JPG,AFNE01.JPG,AFNE01.JPG,AFNE01.JPG,AFNE01.JPG,AFNE01.JPG,,,,,,,,,0,4,4,6,,,,,,,,,,,,,,,AFNE01.jpg,AFSA19.jpg,AFSA18.jpg,AFNE15.jpg,AFSA19.jpg,FS,4,num_6,32,num_2,0.700133171082,,,2017_Sep_20_1640,59.9976137922,FEMA4ImagesEEG,001,201446,
AFNE01.JPG,AFNE01.JPG,AFNE01.JPG,AFNE01.JPG,AFNE01.JPG,AFNE01.JPG,,,,,,,,,0,5,5,9,,,,,,,,,,,,,,,AFNE12.jpg,AFNE18.jpg,AFSA01.jpg,AFSA08.jpg,AFSA01.jpg,FS,4,num_2,32,num_8,0.55026695157,,,2017_Sep_20_1640,59.9976137922,FEMA4ImagesEEG,001,201446,
AFNE01.JPG,AFNE01.JPG,AFNE01.JPG,AFNE01.JPG,AFNE01.JPG,AFNE01.JPG,,,,,,,,,0,6,6,4,,,,,,,,,,,,,,,AFNE09.jpg,AFNE18.jpg,AFSA02.jpg,AFSA20.jpg,AFNE09.jpg,FN,3,num_8,32,num_6,0.283528032962,,,2017_Sep_20_1640,59.9976137922,FEMA4ImagesEEG,001,201446,
AFNE01.JPG,AFNE01.JPG,AFNE01.JPG,AFNE01.JPG,AFNE01.JPG,AFNE01.JPG,,,,,,,,,0,7,7,1,,,,,,,,,,,,,,,AFNE20.jpg,AFSA12.jpg,AFNE11.jpg,AFSA20.jpg,AFSA12.jpg,FS,4,num_6,16,num_6,0.466874014128,,,2017_Sep_20_1640,59.9976137922,FEMA4ImagesEEG,001,201446,
AFNE01.JPG,AFNE01.JPG,AFNE01.JPG,AFNE01.JPG,AFNE01.JPG,AFNE01.JPG,,,,,,,,,0,8,8,3,,,,,,,,,,,,,,,AFNE01.jpg,AFSA09.jpg,AFNE03.jpg,AFSA02.jpg,AFNE03.jpg,FN,3,num_2,32,num_8,0.900167554366,,,2017_Sep_20_1640,59.9976137922,FEMA4ImagesEEG,001,201446,
AFNE01.JPG,AFNE01.JPG,AFNE01.JPG,AFNE01.JPG,AFNE01.JPG,AFNE01.JPG,,,,,,,,,0,9,9,8,,,,,,,,,,,,,,,AFSA13.jpg,AFSA14.jpg,AFNE11.jpg,AFNE02.jpg,AFNE02.jpg,FN,3,num_4,16,num_4,0.683443165262,,,2017_Sep_20_1640,59.9976137922,FEMA4ImagesEEG,001,201446,
AFNE01.JPG,AFNE01.JPG,AFNE01.JPG,AFNE01.JPG,AFNE01.JPG,AFNE01.JPG,,,,,,,,,1,0,10,8,,,,,,,,,,,,,,,AFNE14.jpg,AFSA06.jpg,AFNE10.jpg,AFSA04.jpg,AFNE14.jpg,FN,3,num_8,32,num_2,0.916758130908,,,2017_Sep_20_1640,59.9976137922,FEMA4ImagesEEG,001,201446,
AFNE01.JPG,AFNE01.JPG,AFNE01.JPG,AFNE01.JPG,AFNE01.JPG,AFNE01.JPG,,,,,,,,,1,1,11,1,,,,,,,,,,,,,,,AFNE08.jpg,AFSA10.jpg,AFNE14.jpg,AFSA07.jpg,AFSA07.jpg,FS,4,num_4,32,num_8,0.566764834368,,,2017_Sep_20_1640,59.9976137922,FEMA4ImagesEEG,001,201446,
AFNE01.JPG,AFNE01.JPG,AFNE01.JPG,AFNE01.JPG,AFNE01.JPG,AFNE01.JPG,,,,,,,,,1,2,12,7,,,,,,,,,,,,,,,AFSA16.jpg,AFNE13.jpg,AFSA03.jpg,AFNE07.jpg,AFNE07.jpg,FN,3,num_4,16,num_4,0.566812945306,,,2017_Sep_20_1640,59.9976137922,FEMA4ImagesEEG,001,201446,
AFNE01.JPG,AFNE01.JPG,AFNE01.JPG,AFNE01.JPG,AFNE01.JPG,AFNE01.JPG,,,,,,,,,1,3,13,2,,,,,,,,,,,,,,,AFSA20.jpg,AFNE06.jpg,AFNE02.jpg,AFSA18.jpg,AFSA20.jpg,FS,4,num_8,32,num_4,0.633530630952,,,2017_Sep_20_1640,59.9976137922,FEMA4ImagesEEG,001,201446,
AFNE01.JPG,AFNE01.JPG,AFNE01.JPG,AFNE01.JPG,AFNE01.JPG,AFNE01.JPG,,,,,,,,,1,4,14,3,,,,,,,,,,,,,,,AFNE06.jpg,AFNE20.jpg,AFSA11.jpg,AFSA01.jpg,AFNE06.jpg,FN,3,num_8,32,num_6,0.716802970304,,,2017_Sep_20_1640,59.9976137922,FEMA4ImagesEEG,001,201446,
AFNE01.JPG,AFNE01.JPG,AFNE01.JPG,AFNE01.JPG,AFNE01.JPG,AFNE01.JPG,,,,,,,,,1,5,15,0,,,,,,,,,,,,,,,AFNE07.jpg,AFSA17.jpg,AFNE13.jpg,AFSA07.jpg,AFSA07.jpg,FS,4,num_4,32,num_8,0.300152928641,,,2017_Sep_20_1640,59.9976137922,FEMA4ImagesEEG,001,201446,
AFNE01.JPG,AFNE01.JPG,AFNE01.JPG,AFNE01.JPG,AFNE01.JPG,AFNE01.JPG,,,,,,,,,1,6,16,5,,,,,,,,,,,,,,,AFSA04.jpg,AFNE02.jpg,AFNE19.jpg,AFSA14.jpg,AFSA14.jpg,FS,4,num_4,32,num_2,1.4665619345,,,2017_Sep_20_1640,59.9976137922,FEMA4ImagesEEG,001,201446,
AFNE01.JPG,AFNE01.JPG,AFNE01.JPG,AFNE01.JPG,AFNE01.JPG,AFNE01.JPG,,,,,,,,,1,7,17,4,,,,,,,,,,,,,,,AFSA05.jpg,AFNE16.jpg,AFSA20.jpg,AFNE14.jpg,AFSA05.jpg,FS,4,num_8,32,num_4,0.266695618762,,,2017_Sep_20_1640,59.9976137922,FEMA4ImagesEEG,001,201446,
AFNE01.JPG,AFNE01.JPG,AFNE01.JPG,AFNE01.JPG,AFNE01.JPG,AFNE01.JPG,,,,,,,,,1,8,18,6,,,,,,,,,,,,,,,AFSA12.jpg,AFSA20.jpg,AFNE20.jpg,AFNE09.jpg,AFSA12.jpg,FS,4,num_8,32,num_6,0.283541504024,,,2017_Sep_20_1640,59.9976137922,FEMA4ImagesEEG,001,201446,
AFNE01.JPG,AFNE01.JPG,AFNE01.JPG,AFNE01.JPG,AFNE01.JPG,AFNE01.JPG,,,,,,,,,1,9,19,9,,,,,,,,,,,,,,,AFSA14.jpg,AFNE13.jpg,AFSA15.jpg,AFNE06.jpg,AFSA14.jpg,FS,4,num_8,16,num_8,1.10009128249,,,2017_Sep_20_1640,59.9976137922,FEMA4ImagesEEG,001,201446,
AFNE01.JPG,AFNE01.JPG,AFNE01.JPG,AFNE01.JPG,AFNE01.JPG,AFNE01.JPG,,,,,,,,,2,0,20,3,,,,,,,,,,,,,,,AFSA19.jpg,AFSA13.jpg,AFNE05.jpg,AFNE20.jpg,AFSA19.jpg,FS,4,num_8,32,num_4,0.283475431666,,,2017_Sep_20_1640,59.9976137922,FEMA4ImagesEEG,001,201446,
AFNE01.JPG,AFNE01.JPG,AFNE01.JPG,AFNE01.JPG,AFNE01.JPG,AFNE01.JPG,,,,,,,,,2,1,21,6,,,,,,,,,,,,,,,AFNE17.jpg,AFSA09.jpg,AFNE05.jpg,AFSA11.jpg,AFSA09.jpg,FS,4,num_6,16,num_6,0.550139617948,,,2017_Sep_20_1640,59.9976137922,FEMA4ImagesEEG,001,201446,
AFNE01.JPG,AFNE01.JPG,AFNE01.JPG,AFNE01.JPG,AFNE01.JPG,AFNE01.JPG,,,,,,,,,2,2,22,5,,,,,,,,,,,,,,,AFSA04.jpg,AFSA11.jpg,AFNE07.jpg,AFNE03.jpg,AFSA04.jpg,FS,4,num_8,16,num_8,0.450252325843,,,2017_Sep_20_1640,59.9976137922,FEMA4ImagesEEG,001,201446,
AFNE01.JPG,AFNE01.JPG,AFNE01.JPG,AFNE01.JPG,AFNE01.JPG,AFNE01.JPG,,,,,,,,,2,3,23,2,,,,,,,,,,,,,,,AFSA11.jpg,AFSA12.jpg,AFNE15.jpg,AFNE08.jpg,AFNE15.jpg,FN,3,num_2,32,num_8,0.383524055791,,,2017_Sep_20_1640,59.9976137922,FEMA4ImagesEEG,001,201446,
AFNE01.JPG,AFNE01.JPG,AFNE01.JPG,AFNE01.JPG,AFNE01.JPG,AFNE01.JPG,,,,,,,,,2,4,24,1,,,,,,,,,,,,,,,AFSA16.jpg,AFNE03.jpg,AFNE11.jpg,AFSA18.jpg,AFNE03.jpg,FN,3,num_6,32,num_4,0.350131214571,,,2017_Sep_20_1640,59.9976137922,FEMA4ImagesEEG,001,201446,
AFNE01.JPG,AFNE01.JPG,AFNE01.JPG,AFNE01.JPG,AFNE01.JPG,AFNE01.JPG,,,,,,,,,2,5,25,0,,,,,,,,,,,,,,,AFSA02.jpg,AFNE03.jpg,AFNE09.jpg,AFSA01.jpg,AFSA01.jpg,FS,4,num_4,32,num_6,0.400043107402,,,2017_Sep_20_1640,59.9976137922,FEMA4ImagesEEG,001,201446,
AFNE01.JPG,AFNE01.JPG,AFNE01.JPG,AFNE01.JPG,AFNE01.JPG,AFNE01.JPG,,,,,,,,,2,6,26,7,,,,,,,,,,,,,,,AFNE14.jpg,AFNE17.jpg,AFSA07.jpg,AFSA19.jpg,AFSA07.jpg,FS,4,num_2,16,num_2,0.783476073146,,,2017_Sep_20_1640,59.9976137922,FEMA4ImagesEEG,001,201446,
AFNE01.JPG,AFNE01.JPG,AFNE01.JPG,AFNE01.JPG,AFNE01.JPG,AFNE01.JPG,,,,,,,,,2,7,27,4,,,,,,,,,,,,,,,AFNE18.jpg,AFNE13.jpg,AFSA08.jpg,AFSA16.jpg,AFSA08.jpg,FS,4,num_2,32,num_4,1.21671701209,,,2017_Sep_20_1640,59.9976137922,FEMA4ImagesEEG,001,201446,
AFNE01.JPG,AFNE01.JPG,AFNE01.JPG,AFNE01.JPG,AFNE01.JPG,AFNE01.JPG,,,,,,,,,2,8,28,8,,,,,,,,,,,,,,,AFSA19.jpg,AFNE07.jpg,AFNE06.jpg,AFSA16.jpg,AFSA16.jpg,FS,4,num_4,32,num_6,0.450125954441,,,2017_Sep_20_1640,59.9976137922,FEMA4ImagesEEG,001,201446,
AFNE01.JPG,AFNE01.JPG,AFNE01.JPG,AFNE01.JPG,AFNE01.JPG,AFNE01.JPG,,,,,,,,,2,9,29,9,,,,,,,,,,,,,,,AFNE18.jpg,AFSA17.jpg,AFNE04.jpg,AFSA15.jpg,AFSA15.jpg,FS,4,num_4,16,num_4,0.383499038102,,,2017_Sep_20_1640,59.9976137922,FEMA4ImagesEEG,001,201446,
AFNE01.JPG,AFNE01.JPG,AFNE01.JPG,AFNE01.JPG,AFNE01.JPG,AFNE01.JPG,,,,,,,,,3,0,30,9,,,,,,,,,,,,,,,AFSA04.jpg,AFNE10.jpg,AFNE11.jpg,AFSA15.jpg,AFSA15.jpg,FS,4,num_4,32,num_8,0.350153024863,,,2017_Sep_20_1640,59.9976137922,FEMA4ImagesEEG,001,201446,
AFNE01.JPG,AFNE01.JPG,AFNE01.JPG,AFNE01.JPG,AFNE01.JPG,AFNE01.JPG,,,,,,,,,3,1,31,5,,,,,,,,,,,,,,,AFNE12.jpg,AFSA11.jpg,AFSA10.jpg,AFNE11.jpg,AFNE11.jpg,FN,3,num_4,32,num_2,0.883157450427,,,2017_Sep_20_1640,59.9976137922,FEMA4ImagesEEG,001,201446,
AFNE01.JPG,AFNE01.JPG,AFNE01.JPG,AFNE01.JPG,AFNE01.JPG,AFNE01.JPG,,,,,,,,,3,2,32,6,,,,,,,,,,,,,,,AFNE15.jpg,AFSA01.jpg,AFSA20.jpg,AFNE11.jpg,AFSA20.jpg,FS,4,num_2,32,num_8,0.733453525152,,,2017_Sep_20_1640,59.9976137922,FEMA4ImagesEEG,001,201446,
AFNE01.JPG,AFNE01.JPG,AFNE01.JPG,AFNE01.JPG,AFNE01.JPG,AFNE01.JPG,,,,,,,,,3,3,33,1,,,,,,,,,,,,,,,AFNE08.jpg,AFSA15.jpg,AFNE05.jpg,AFSA11.jpg,AFNE08.jpg,FN,3,num_8,16,num_8,0.800166078965,,,2017_Sep_20_1640,59.9976137922,FEMA4ImagesEEG,001,201446,
AFNE01.JPG,AFNE01.JPG,AFNE01.JPG,AFNE01.JPG,AFNE01.JPG,AFNE01.JPG,,,,,,,,,3,4,34,8,,,,,,,,,,,,,,,AFSA06.jpg,AFNE02.jpg,AFSA09.jpg,AFNE06.jpg,AFSA06.jpg,FS,4,num_8,32,num_6,0.78354503216,,,2017_Sep_20_1640,59.9976137922,FEMA4ImagesEEG,001,201446,
AFNE01.JPG,AFNE01.JPG,AFNE01.JPG,AFNE01.JPG,AFNE01.JPG,AFNE01.JPG,,,,,,,,,3,5,35,4,,,,,,,,,,,,,,,AFSA15.jpg,AFNE03.jpg,AFNE14.jpg,AFSA09.jpg,AFNE14.jpg,FN,3,num_2,32,num_4,0.316801238312,,,2017_Sep_20_1640,59.9976137922,FEMA4ImagesEEG,001,201446,
AFNE01.JPG,AFNE01.JPG,AFNE01.JPG,AFNE01.JPG,AFNE01.JPG,AFNE01.JPG,,,,,,,,,3,6,36,3,,,,,,,,,,,,,,,AFSA07.jpg,AFSA10.jpg,AFNE08.jpg,AFNE03.jpg,AFNE03.jpg,FN,3,num_4,16,num_4,0.783795209049,,,2017_Sep_20_1640,59.9976137922,FEMA4ImagesEEG,001,201446,
AFNE01.JPG,AFNE01.JPG,AFNE01.JPG,AFNE01.JPG,AFNE01.JPG,AFNE01.JPG,,,,,,,,,3,7,37,0,,,,,,,,,,,,,,,AFSA20.jpg,AFNE20.jpg,AFSA17.jpg,AFNE15.jpg,AFNE20.jpg,FN,3,num_6,32,num_2,0.450153538048,,,2017_Sep_20_1640,59.9976137922,FEMA4ImagesEEG,001,201446,
AFNE01.JPG,AFNE01.JPG,AFNE01.JPG,AFNE01.JPG,AFNE01.JPG,AFNE01.JPG,,,,,,,,,3,8,38,7,,,,,,,,,,,,,,,AFNE04.jpg,AFSA18.jpg,AFSA08.jpg,AFNE09.jpg,AFSA08.jpg,FS,4,num_2,32,num_8,0.483488966878,,,2017_Sep_20_1640,59.9976137922,FEMA4ImagesEEG,001,201446,
AFNE01.JPG,AFNE01.JPG,AFNE01.JPG,AFNE01.JPG,AFNE01.JPG,AFNE01.JPG,,,,,,,,,3,9,39,2,,,,,,,,,,,,,,,AFSA01.jpg,AFNE03.jpg,AFSA08.jpg,AFNE09.jpg,AFSA01.jpg,FS,4,num_8,32,num_2,0.366845917339,,,2017_Sep_20_1640,59.9976137922,FEMA4ImagesEEG,001,201446,
AFNE01.JPG,AFNE01.JPG,AFNE01.JPG,AFNE01.JPG,AFNE01.JPG,AFNE01.JPG,,,,,,,,,4,0,40,0,,,,,,,,,,,,,,,AFNE16.jpg,AFSA11.jpg,AFNE04.jpg,AFSA16.jpg,AFSA16.jpg,FS,4,num_4,16,num_4,0.600141317867,,,2017_Sep_20_1640,59.9976137922,FEMA4ImagesEEG,001,201446,
AFNE01.JPG,AFNE01.JPG,AFNE01.JPG,AFNE01.JPG,AFNE01.JPG,AFNE01.JPG,,,,,,,,,4,1,41,7,,,,,,,,,,,,,,,AFNE15.jpg,AFSA05.jpg,AFNE12.jpg,AFSA04.jpg,AFSA04.jpg,FS,4,num_4,32,num_6,0.750139040616,,,2017_Sep_20_1640,59.9976137922,FEMA4ImagesEEG,001,201446,
AFNE01.JPG,AFNE01.JPG,AFNE01.JPG,AFNE01.JPG,AFNE01.JPG,AFNE01.JPG,,,,,,,,,4,2,42,3,,,,,,,,,,,,,,,AFNE16.jpg,AFSA12.jpg,AFNE06.jpg,AFSA03.jpg,AFNE16.jpg,FN,3,num_8,16,num_8,0.350162326311,,,2017_Sep_20_1640,59.9976137922,FEMA4ImagesEEG,001,201446,
AFNE01.JPG,AFNE01.JPG,AFNE01.JPG,AFNE01.JPG,AFNE01.JPG,AFNE01.JPG,,,,,,,,,4,3,43,8,,,,,,,,,,,,,,,AFSA10.jpg,AFNE07.jpg,AFSA18.jpg,AFNE17.jpg,AFNE07.jpg,FN,3,num_6,32,num_2,0.583452595009,,,2017_Sep_20_1640,59.9976137922,FEMA4ImagesEEG,001,201446,
AFNE01.JPG,AFNE01.JPG,AFNE01.JPG,AFNE01.JPG,AFNE01.JPG,AFNE01.JPG,,,,,,,,,4,4,44,5,,,,,,,,,,,,,,,AFSA03.jpg,AFNE04.jpg,AFNE13.jpg,AFSA06.jpg,AFSA03.jpg,FS,4,num_8,32,num_4,0.550230066516,,,2017_Sep_20_1640,59.9976137922,FEMA4ImagesEEG,001,201446,
AFNE01.JPG,AFNE01.JPG,AFNE01.JPG,AFNE01.JPG,AFNE01.JPG,AFNE01.JPG,,,,,,,,,4,5,45,1,,,,,,,,,,,,,,,AFNE14.jpg,AFSA13.jpg,AFNE11.jpg,AFSA19.jpg,AFSA19.jpg,FS,4,num_4,32,num_8,1.48331640897,,,2017_Sep_20_1640,59.9976137922,FEMA4ImagesEEG,001,201446,
AFNE01.JPG,AFNE01.JPG,AFNE01.JPG,AFNE01.JPG,AFNE01.JPG,AFNE01.JPG,,,,,,,,,4,6,46,2,,,,,,,,,,,,,,,AFSA06.jpg,AFNE02.jpg,AFNE12.jpg,AFSA08.jpg,AFSA06.jpg,FS,4,num_8,32,num_4,0.383463436006,,,2017_Sep_20_1640,59.9976137922,FEMA4ImagesEEG,001,201446,
AFNE01.JPG,AFNE01.JPG,AFNE01.JPG,AFNE01.JPG,AFNE01.JPG,AFNE01.JPG,,,,,,,,,4,7,47,6,,,,,,,,,,,,,,,AFNE16.jpg,AFSA09.jpg,AFSA10.jpg,AFNE05.jpg,AFNE16.jpg,FN,3,num_8,16,num_8,1.31673837335,,,2017_Sep_20_1640,59.9976137922,FEMA4ImagesEEG,001,201446,
AFNE01.JPG,AFNE01.JPG,AFNE01.JPG,AFNE01.JPG,AFNE01.JPG,AFNE01.JPG,,,,,,,,,4,8,48,9,,,,,,,,,,,,,,,AFSA11.jpg,AFNE04.jpg,AFSA09.jpg,AFNE10.jpg,AFNE04.jpg,FN,3,num_6,16,num_6,0.366808390805,,,2017_Sep_20_1640,59.9976137922,FEMA4ImagesEEG,001,201446,
AFNE01.JPG,AFNE01.JPG,AFNE01.JPG,AFNE01.JPG,AFNE01.JPG,AFNE01.JPG,,,,,,,,,4,9,49,4,,,,,,,,,,,,,,,AFNE04.jpg,AFSA14.jpg,AFNE10.jpg,AFSA11.jpg,AFNE10.jpg,FN,3,num_2,32,num_4,1.28346709244,,,2017_Sep_20_1640,59.9976137922,FEMA4ImagesEEG,001,201446,
AFNE01.JPG,AFNE01.JPG,AFNE01.JPG,AFNE01.JPG,AFNE01.JPG,AFNE01.JPG,,,,,,,,,5,0,50,0,,,,,,,,,,,,,,,AFNE16.jpg,AFSA08.jpg,AFNE18.jpg,AFSA16.jpg,AFNE16.jpg,FN,3,num_8,32,num_4,0.316825614522,,,2017_Sep_20_1640,59.9976137922,FEMA4ImagesEEG,001,201446,
AFNE01.JPG,AFNE01.JPG,AFNE01.JPG,AFNE01.JPG,AFNE01.JPG,AFNE01.JPG,,,,,,,,,5,1,51,5,,,,,,,,,,,,,,,AFNE06.jpg,AFSA10.jpg,AFNE14.jpg,AFSA15.jpg,AFSA10.jpg,FS,4,num_6,32,num_8,0.900105330886,,,2017_Sep_20_1640,59.9976137922,FEMA4ImagesEEG,001,201446,
AFNE01.JPG,AFNE01.JPG,AFNE01.JPG,AFNE01.JPG,AFNE01.JPG,AFNE01.JPG,,,,,,,,,5,2,52,9,,,,,,,,,,,,,,,AFSA01.jpg,AFSA18.jpg,AFNE06.jpg,AFNE20.jpg,AFNE06.jpg,FN,3,num_2,16,num_2,0.700146642146,,,2017_Sep_20_1640,59.9976137922,FEMA4ImagesEEG,001,201446,
AFNE01.JPG,AFNE01.JPG,AFNE01.JPG,AFNE01.JPG,AFNE01.JPG,AFNE01.JPG,,,,,,,,,5,3,53,2,,,,,,,,,,,,,,,AFNE02.jpg,AFSA11.jpg,AFSA14.jpg,AFNE11.jpg,AFNE02.jpg,FN,3,num_8,32,num_6,0.516783982521,,,2017_Sep_20_1640,59.9976137922,FEMA4ImagesEEG,001,201446,
AFNE01.JPG,AFNE01.JPG,AFNE01.JPG,AFNE01.JPG,AFNE01.JPG,AFNE01.JPG,,,,,,,,,5,4,54,6,,,,,,,,,,,,,,,AFSA06.jpg,AFSA14.jpg,AFNE09.jpg,AFNE05.jpg,AFNE05.jpg,FN,3,num_4,16,num_4,0.433485984,,,2017_Sep_20_1640,59.9976137922,FEMA4ImagesEEG,001,201446,
AFNE01.JPG,AFNE01.JPG,AFNE01.JPG,AFNE01.JPG,AFNE01.JPG,AFNE01.JPG,,,,,,,,,5,5,55,3,,,,,,,,,,,,,,,AFSA05.jpg,AFNE02.jpg,AFSA01.jpg,AFNE08.jpg,AFNE08.jpg,FN,3,num_4,32,num_8,0.333488357473,,,2017_Sep_20_1640,59.9976137922,FEMA4ImagesEEG,001,201446,
AFNE01.JPG,AFNE01.JPG,AFNE01.JPG,AFNE01.JPG,AFNE01.JPG,AFNE01.JPG,,,,,,,,,5,6,56,8,,,,,,,,,,,,,,,AFNE02.jpg,AFSA08.jpg,AFNE10.jpg,AFSA10.jpg,AFSA08.jpg,FS,4,num_6,32,num_2,0.333504715194,,,2017_Sep_20_1640,59.9976137922,FEMA4ImagesEEG,001,201446,
AFNE01.JPG,AFNE01.JPG,AFNE01.JPG,AFNE01.JPG,AFNE01.JPG,AFNE01.JPG,,,,,,,,,5,7,57,7,,,,,,,,,,,,,,,AFSA05.jpg,AFNE05.jpg,AFNE16.jpg,AFSA17.jpg,AFSA05.jpg,FS,4,num_8,32,num_6,0.450123709263,,,2017_Sep_20_1640,59.9976137922,FEMA4ImagesEEG,001,201446,
AFNE01.JPG,AFNE01.JPG,AFNE01.JPG,AFNE01.JPG,AFNE01.JPG,AFNE01.JPG,,,,,,,,,5,8,58,4,,,,,,,,,,,,,,,AFNE12.jpg,AFNE15.jpg,AFSA02.jpg,AFSA07.jpg,AFNE15.jpg,FN,3,num_6,32,num_4,0.566848226663,,,2017_Sep_20_1640,59.9976137922,FEMA4ImagesEEG,001,201446,
AFNE01.JPG,AFNE01.JPG,AFNE01.JPG,AFNE01.JPG,AFNE01.JPG,AFNE01.JPG,,,,,,,,,5,9,59,1,,,,,,,,,,,,,,,AFSA11.jpg,AFNE04.jpg,AFNE18.jpg,AFSA02.jpg,AFSA11.jpg,FS,4,num_8,32,num_6,0.35014757229,,,2017_Sep_20_1640,59.9976137922,FEMA4ImagesEEG,001,201446,
,,,,,,,,,,,,,,,,,,,,,,,,,,,,,,,,,,,,,,,,,,,space,61.5453541831,2017_Sep_20_1640,59.9976137922,FEMA4ImagesEEG,001,201446,
AFNE01.JPG,AFNE01.JPG,AFNE01.JPG,AFNE01.JPG,AFNE01.JPG,AFNE01.JPG,,,,,,,,,,,,,0,0,0,7,,,,,,,,,,,AMNE03.jpg,AMSA13.jpg,AMNE08.jpg,AMSA06.jpg,AMSA06.jpg,MS,2,num_4,16,num_4,0.567117006447,,,2017_Sep_20_1640,59.9976137922,FEMA4ImagesEEG,001,201446,
AFNE01.JPG,AFNE01.JPG,AFNE01.JPG,AFNE01.JPG,AFNE01.JPG,AFNE01.JPG,,,,,,,,,,,,,0,1,1,9,,,,,,,,,,,AMSA19.jpg,AMNE01.jpg,AMSA02.jpg,AMNE20.jpg,AMNE01.jpg,MN,1,num_6,16,num_6,0.500119315131,,,2017_Sep_20_1640,59.9976137922,FEMA4ImagesEEG,001,201446,
AFNE01.JPG,AFNE01.JPG,AFNE01.JPG,AFNE01.JPG,AFNE01.JPG,AFNE01.JPG,,,,,,,,,,,,,0,2,2,4,,,,,,,,,,,AMSA11.jpg,AMSA04.jpg,AMNE16.jpg,AMNE02.jpg,AMNE16.jpg,MN,1,num_2,16,num_2,0.583453877965,,,2017_Sep_20_1640,59.9976137922,FEMA4ImagesEEG,001,201446,
AFNE01.JPG,AFNE01.JPG,AFNE01.JPG,AFNE01.JPG,AFNE01.JPG,AFNE01.JPG,,,,,,,,,,,,,0,3,3,5,,,,,,,,,,,AMNE02.jpg,AMSA17.jpg,AMNE15.jpg,AMSA11.jpg,AMNE15.jpg,MN,1,num_2,32,num_4,1.11679251419,,,2017_Sep_20_1640,59.9976137922,FEMA4ImagesEEG,001,201446,
AFNE01.JPG,AFNE01.JPG,AFNE01.JPG,AFNE01.JPG,AFNE01.JPG,AFNE01.JPG,,,,,,,,,,,,,0,4,4,8,,,,,,,,,,,AMSA01.jpg,AMNE13.jpg,AMSA02.jpg,AMNE17.jpg,AMSA02.jpg,MS,2,num_2,32,num_8,0.566792097234,,,2017_Sep_20_1640,59.9976137922,FEMA4ImagesEEG,001,201446,
AFNE01.JPG,AFNE01.JPG,AFNE01.JPG,AFNE01.JPG,AFNE01.JPG,AFNE01.JPG,,,,,,,,,,,,,0,5,5,6,,,,,,,,,,,AMSA09.jpg,AMNE03.jpg,AMNE09.jpg,AMSA04.jpg,AMSA09.jpg,MS,2,num_8,32,num_4,0.533670601715,,,2017_Sep_20_1640,59.9976137922,FEMA4ImagesEEG,001,201446,
AFNE01.JPG,AFNE01.JPG,AFNE01.JPG,AFNE01.JPG,AFNE01.JPG,AFNE01.JPG,,,,,,,,,,,,,0,6,6,1,,,,,,,,,,,AMSA13.jpg,AMSA19.jpg,AMNE18.jpg,AMNE07.jpg,AMNE18.jpg,MN,1,num_2,32,num_4,0.933262428498,,,2017_Sep_20_1640,59.9976137922,FEMA4ImagesEEG,001,201446,
AFNE01.JPG,AFNE01.JPG,AFNE01.JPG,AFNE01.JPG,AFNE01.JPG,AFNE01.JPG,,,,,,,,,,,,,0,7,7,3,,,,,,,,,,,AMNE11.jpg,AMNE10.jpg,AMSA04.jpg,AMSA07.jpg,AMSA04.jpg,MS,2,num_2,16,num_2,1.01680643429,,,2017_Sep_20_1640,59.9976137922,FEMA4ImagesEEG,001,201446,
AFNE01.JPG,AFNE01.JPG,AFNE01.JPG,AFNE01.JPG,AFNE01.JPG,AFNE01.JPG,,,,,,,,,,,,,0,8,8,2,,,,,,,,,,,AMNE19.jpg,AMSA05.jpg,AMNE01.jpg,AMSA20.jpg,AMSA05.jpg,MS,2,num_6,16,num_6,0.400154404044,,,2017_Sep_20_1640,59.9976137922,FEMA4ImagesEEG,001,201446,
AFNE01.JPG,AFNE01.JPG,AFNE01.JPG,AFNE01.JPG,AFNE01.JPG,AFNE01.JPG,,,,,,,,,,,,,0,9,9,0,,,,,,,,,,,AMNE02.jpg,AMSA14.jpg,AMSA02.jpg,AMNE18.jpg,AMSA14.jpg,MS,2,num_6,32,num_8,0.666655333867,,,2017_Sep_20_1640,59.9976137922,FEMA4ImagesEEG,001,201446,
AFNE01.JPG,AFNE01.JPG,AFNE01.JPG,AFNE01.JPG,AFNE01.JPG,AFNE01.JPG,,,,,,,,,,,,,1,0,10,8,,,,,,,,,,,AMSA04.jpg,AMSA11.jpg,AMNE02.jpg,AMNE12.jpg,AMSA04.jpg,MS,2,num_8,32,num_6,0.800153890859,,,2017_Sep_20_1640,59.9976137922,FEMA4ImagesEEG,001,201446,
AFNE01.JPG,AFNE01.JPG,AFNE01.JPG,AFNE01.JPG,AFNE01.JPG,AFNE01.JPG,,,,,,,,,,,,,1,1,11,3,,,,,,,,,,,AMSA07.jpg,AMNE15.jpg,AMNE07.jpg,AMSA15.jpg,AMNE07.jpg,MN,1,num_2,16,num_2,0.683495766558,,,2017_Sep_20_1640,59.9976137922,FEMA4ImagesEEG,001,201446,
AFNE01.JPG,AFNE01.JPG,AFNE01.JPG,AFNE01.JPG,AFNE01.JPG,AFNE01.JPG,,,,,,,,,,,,,1,2,12,9,,,,,,,,,,,AMSA12.jpg,AMSA03.jpg,AMNE13.jpg,AMNE06.jpg,AMNE13.jpg,MN,1,num_2,16,num_2,1.11677326982,,,2017_Sep_20_1640,59.9976137922,FEMA4ImagesEEG,001,201446,
AFNE01.JPG,AFNE01.JPG,AFNE01.JPG,AFNE01.JPG,AFNE01.JPG,AFNE01.JPG,,,,,,,,,,,,,1,3,13,4,,,,,,,,,,,AMNE17.jpg,AMSA11.jpg,AMSA16.jpg,AMNE19.jpg,AMNE19.jpg,MN,1,num_4,16,num_4,0.150148470362,,,2017_Sep_20_1640,59.9976137922,FEMA4ImagesEEG,001,201446,
AFNE01.JPG,AFNE01.JPG,AFNE01.JPG,AFNE01.JPG,AFNE01.JPG,AFNE01.JPG,,,,,,,,,,,,,1,4,14,1,,,,,,,,,,,AMNE08.jpg,AMSA18.jpg,AMNE07.jpg,AMSA09.jpg,AMSA09.jpg,MS,2,num_4,32,num_6,0.533517929665,,,2017_Sep_20_1640,59.9976137922,FEMA4ImagesEEG,001,201446,
AFNE01.JPG,AFNE01.JPG,AFNE01.JPG,AFNE01.JPG,AFNE01.JPG,AFNE01.JPG,,,,,,,,,,,,,1,5,15,7,,,,,,,,,,,AMSA18.jpg,AMSA16.jpg,AMNE14.jpg,AMNE19.jpg,AMSA18.jpg,MS,2,num_8,32,num_4,0.933444287853,,,2017_Sep_20_1640,59.9976137922,FEMA4ImagesEEG,001,201446,
AFNE01.JPG,AFNE01.JPG,AFNE01.JPG,AFNE01.JPG,AFNE01.JPG,AFNE01.JPG,,,,,,,,,,,,,1,6,16,0,,,,,,,,,,,AMSA14.jpg,AMNE05.jpg,AMSA18.jpg,AMNE15.jpg,AMSA14.jpg,MS,2,num_8,32,num_6,0.366820258168,,,2017_Sep_20_1640,59.9976137922,FEMA4ImagesEEG,001,201446,
AFNE01.JPG,AFNE01.JPG,AFNE01.JPG,AFNE01.JPG,AFNE01.JPG,AFNE01.JPG,,,,,,,,,,,,,1,7,17,6,,,,,,,,,,,AMNE05.jpg,AMNE06.jpg,AMSA12.jpg,AMSA07.jpg,AMSA07.jpg,MS,2,num_4,16,num_4,0.516866733338,,,2017_Sep_20_1640,59.9976137922,FEMA4ImagesEEG,001,201446,
AFNE01.JPG,AFNE01.JPG,AFNE01.JPG,AFNE01.JPG,AFNE01.JPG,AFNE01.JPG,,,,,,,,,,,,,1,8,18,5,,,,,,,,,,,AMSA20.jpg,AMSA13.jpg,AMNE15.jpg,AMNE20.jpg,AMSA13.jpg,MS,2,num_6,16,num_6,0.766618641257,,,2017_Sep_20_1640,59.9976137922,FEMA4ImagesEEG,001,201446,
AFNE01.JPG,AFNE01.JPG,AFNE01.JPG,AFNE01.JPG,AFNE01.JPG,AFNE01.JPG,,,,,,,,,,,,,1,9,19,2,,,,,,,,,,,AMNE06.jpg,AMSA04.jpg,AMSA02.jpg,AMNE15.jpg,AMNE06.jpg,MN,1,num_8,32,num_4,1.00038488752,,,2017_Sep_20_1640,59.9976137922,FEMA4ImagesEEG,001,201446,
AFNE01.JPG,AFNE01.JPG,AFNE01.JPG,AFNE01.JPG,AFNE01.JPG,AFNE01.JPG,,,,,,,,,,,,,2,0,20,8,,,,,,,,,,,AMSA11.jpg,AMSA08.jpg,AMNE19.jpg,AMNE15.jpg,AMNE15.jpg,MN,1,num_4,32,num_6,0.116763326891,,,2017_Sep_20_1640,59.9976137922,FEMA4ImagesEEG,001,201446,
AFNE01.JPG,AFNE01.JPG,AFNE01.JPG,AFNE01.JPG,AFNE01.JPG,AFNE01.JPG,,,,,,,,,,,,,2,1,21,9,,,,,,,,,,,AMNE19.jpg,AMNE17.jpg,AMSA14.jpg,AMSA13.jpg,AMSA13.jpg,MS,2,num_4,32,num_8,0.233493938342,,,2017_Sep_20_1640,59.9976137922,FEMA4ImagesEEG,001,201446,
AFNE01.JPG,AFNE01.JPG,AFNE01.JPG,AFNE01.JPG,AFNE01.JPG,AFNE01.JPG,,,,,,,,,,,,,2,2,22,5,,,,,,,,,,,AMSA11.jpg,AMNE13.jpg,AMNE19.jpg,AMSA06.jpg,AMNE13.jpg,MN,1,num_6,32,num_2,0.766741484524,,,2017_Sep_20_1640,59.9976137922,FEMA4ImagesEEG,001,201446,
AFNE01.JPG,AFNE01.JPG,AFNE01.JPG,AFNE01.JPG,AFNE01.JPG,AFNE01.JPG,,,,,,,,,,,,,2,3,23,3,,,,,,,,,,,AMNE11.jpg,AMNE14.jpg,AMSA20.jpg,AMSA14.jpg,AMNE14.jpg,MN,1,num_6,32,num_4,0.666760857195,,,2017_Sep_20_1640,59.9976137922,FEMA4ImagesEEG,001,201446,
AFNE01.JPG,AFNE01.JPG,AFNE01.JPG,AFNE01.JPG,AFNE01.JPG,AFNE01.JPG,,,,,,,,,,,,,2,4,24,4,,,,,,,,,,,AMNE06.jpg,AMSA18.jpg,AMSA01.jpg,AMNE14.jpg,AMNE14.jpg,MN,1,num_4,32,num_6,0.900091218342,,,2017_Sep_20_1640,59.9976137922,FEMA4ImagesEEG,001,201446,
AFNE01.JPG,AFNE01.JPG,AFNE01.JPG,AFNE01.JPG,AFNE01.JPG,AFNE01.JPG,,,,,,,,,,,,,2,5,25,6,,,,,,,,,,,AMSA05.jpg,AMSA07.jpg,AMNE19.jpg,AMNE10.jpg,AMNE10.jpg,MN,1,num_4,16,num_4,0.383554205313,,,2017_Sep_20_1640,59.9976137922,FEMA4ImagesEEG,001,201446,
AFNE01.JPG,AFNE01.JPG,AFNE01.JPG,AFNE01.JPG,AFNE01.JPG,AFNE01.JPG,,,,,,,,,,,,,2,6,26,7,,,,,,,,,,,AMSA04.jpg,AMNE08.jpg,AMNE20.jpg,AMSA15.jpg,AMNE08.jpg,MN,1,num_6,32,num_8,0.166852588722,,,2017_Sep_20_1640,59.9976137922,FEMA4ImagesEEG,001,201446,
AFNE01.JPG,AFNE01.JPG,AFNE01.JPG,AFNE01.JPG,AFNE01.JPG,AFNE01.JPG,,,,,,,,,,,,,2,7,27,2,,,,,,,,,,,AMNE13.jpg,AMNE03.jpg,AMSA02.jpg,AMSA10.jpg,AMNE13.jpg,MN,1,num_8,32,num_6,0.0835128940544,,,2017_Sep_20_1640,59.9976137922,FEMA4ImagesEEG,001,201446,
AFNE01.JPG,AFNE01.JPG,AFNE01.JPG,AFNE01.JPG,AFNE01.JPG,AFNE01.JPG,,,,,,,,,,,,,2,8,28,1,,,,,,,,,,,AMSA16.jpg,AMSA04.jpg,AMNE06.jpg,AMNE02.jpg,AMSA16.jpg,MS,2,num_8,32,num_4,0.150196902041,,,2017_Sep_20_1640,59.9976137922,FEMA4ImagesEEG,001,201446,
AFNE01.JPG,AFNE01.JPG,AFNE01.JPG,AFNE01.JPG,AFNE01.JPG,AFNE01.JPG,,,,,,,,,,,,,2,9,29,0,,,,,,,,,,,AMSA18.jpg,AMNE19.jpg,AMNE03.jpg,AMSA06.jpg,AMNE19.jpg,MN,1,num_6,32,num_4,0.550155013449,,,2017_Sep_20_1640,59.9976137922,FEMA4ImagesEEG,001,201446,
AFNE01.JPG,AFNE01.JPG,AFNE01.JPG,AFNE01.JPG,AFNE01.JPG,AFNE01.JPG,,,,,,,,,,,,,3,0,30,0,,,,,,,,,,,AMSA08.jpg,AMSA09.jpg,AMNE05.jpg,AMNE16.jpg,AMNE16.jpg,MN,1,num_4,32,num_6,0.333526525486,,,2017_Sep_20_1640,59.9976137922,FEMA4ImagesEEG,001,201446,
AFNE01.JPG,AFNE01.JPG,AFNE01.JPG,AFNE01.JPG,AFNE01.JPG,AFNE01.JPG,,,,,,,,,,,,,3,1,31,9,,,,,,,,,,,AMSA19.jpg,AMNE19.jpg,AMSA02.jpg,AMNE04.jpg,AMSA02.jpg,MS,2,num_2,16,num_2,0.700121624455,,,2017_Sep_20_1640,59.9976137922,FEMA4ImagesEEG,001,201446,
AFNE01.JPG,AFNE01.JPG,AFNE01.JPG,AFNE01.JPG,AFNE01.JPG,AFNE01.JPG,,,,,,,,,,,,,3,2,32,3,,,,,,,,,,,AMSA15.jpg,AMNE16.jpg,AMNE05.jpg,AMSA05.jpg,AMSA05.jpg,MS,2,num_4,16,num_4,0.616760440234,,,2017_Sep_20_1640,59.9976137922,FEMA4ImagesEEG,001,201446,
AFNE01.JPG,AFNE01.JPG,AFNE01.JPG,AFNE01.JPG,AFNE01.JPG,AFNE01.JPG,,,,,,,,,,,,,3,3,33,1,,,,,,,,,,,AMSA04.jpg,AMSA01.jpg,AMNE08.jpg,AMNE12.jpg,AMNE12.jpg,MN,1,num_4,16,num_4,0.716794310336,,,2017_Sep_20_1640,59.9976137922,FEMA4ImagesEEG,001,201446,
AFNE01.JPG,AFNE01.JPG,AFNE01.JPG,AFNE01.JPG,AFNE01.JPG,AFNE01.JPG,,,,,,,,,,,,,3,4,34,6,,,,,,,,,,,AMSA05.jpg,AMNE18.jpg,AMSA08.jpg,AMNE06.jpg,AMSA08.jpg,MS,2,num_2,32,num_8,0.766766181474,,,2017_Sep_20_1640,59.9976137922,FEMA4ImagesEEG,001,201446,
AFNE01.JPG,AFNE01.JPG,AFNE01.JPG,AFNE01.JPG,AFNE01.JPG,AFNE01.JPG,,,,,,,,,,,,,3,5,35,5,,,,,,,,,,,AMNE19.jpg,AMSA01.jpg,AMNE18.jpg,AMSA05.jpg,AMNE19.jpg,MN,1,num_8,32,num_2,0.416838636549,,,2017_Sep_20_1640,59.9976137922,FEMA4ImagesEEG,001,201446,
AFNE01.JPG,AFNE01.JPG,AFNE01.JPG,AFNE01.JPG,AFNE01.JPG,AFNE01.JPG,,,,,,,,,,,,,3,6,36,4,,,,,,,,,,,AMSA11.jpg,AMNE10.jpg,AMSA09.jpg,AMNE12.jpg,AMSA11.jpg,MS,2,num_8,32,num_4,0.366819295952,,,2017_Sep_20_1640,59.9976137922,FEMA4ImagesEEG,001,201446,
AFNE01.JPG,AFNE01.JPG,AFNE01.JPG,AFNE01.JPG,AFNE01.JPG,AFNE01.JPG,,,,,,,,,,,,,3,7,37,2,,,,,,,,,,,AMSA03.jpg,AMSA07.jpg,AMNE14.jpg,AMNE13.jpg,AMSA03.jpg,MS,2,num_8,32,num_6,0.300182115945,,,2017_Sep_20_1640,59.9976137922,FEMA4ImagesEEG,001,201446,
AFNE01.JPG,AFNE01.JPG,AFNE01.JPG,AFNE01.JPG,AFNE01.JPG,AFNE01.JPG,,,,,,,,,,,,,3,8,38,7,,,,,,,,,,,AMNE12.jpg,AMSA20.jpg,AMSA01.jpg,AMNE16.jpg,AMSA01.jpg,MS,2,num_2,32,num_8,0.350135704924,,,2017_Sep_20_1640,59.9976137922,FEMA4ImagesEEG,001,201446,
AFNE01.JPG,AFNE01.JPG,AFNE01.JPG,AFNE01.JPG,AFNE01.JPG,AFNE01.JPG,,,,,,,,,,,,,3,9,39,8,,,,,,,,,,,AMNE03.jpg,AMSA12.jpg,AMSA04.jpg,AMNE02.jpg,AMSA12.jpg,MS,2,num_6,32,num_4,0.983427705614,,,2017_Sep_20_1640,59.9976137922,FEMA4ImagesEEG,001,201446,
AFNE01.JPG,AFNE01.JPG,AFNE01.JPG,AFNE01.JPG,AFNE01.JPG,AFNE01.JPG,,,,,,,,,,,,,4,0,40,0,,,,,,,,,,,AMSA19.jpg,AMNE09.jpg,AMSA02.jpg,AMNE04.jpg,AMSA19.jpg,MS,2,num_8,32,num_6,0.100189108069,,,2017_Sep_20_1640,59.9976137922,FEMA4ImagesEEG,001,201446,
AFNE01.JPG,AFNE01.JPG,AFNE01.JPG,AFNE01.JPG,AFNE01.JPG,AFNE01.JPG,,,,,,,,,,,,,4,1,41,3,,,,,,,,,,,AMSA18.jpg,AMNE14.jpg,AMSA04.jpg,AMNE02.jpg,AMNE02.jpg,MN,1,num_4,16,num_4,0.633192250674,,,2017_Sep_20_1640,59.9976137922,FEMA4ImagesEEG,001,201446,
AFNE01.JPG,AFNE01.JPG,AFNE01.JPG,AFNE01.JPG,AFNE01.JPG,AFNE01.JPG,,,,,,,,,,,,,4,2,42,8,,,,,,,,,,,AMNE04.jpg,AMSA02.jpg,AMNE07.jpg,AMSA15.jpg,AMSA15.jpg,MS,2,num_4,32,num_8,2.89980126974,,,2017_Sep_20_1640,59.9976137922,FEMA4ImagesEEG,001,201446,
AFNE01.JPG,AFNE01.JPG,AFNE01.JPG,AFNE01.JPG,AFNE01.JPG,AFNE01.JPG,,,,,,,,,,,,,4,3,43,2,,,,,,,,,,,AMNE04.jpg,AMNE12.jpg,AMSA07.jpg,AMSA03.jpg,AMNE04.jpg,MN,1,num_8,32,num_4,1.11673574328,,,2017_Sep_20_1640,59.9976137922,FEMA4ImagesEEG,001,201446,
AFNE01.JPG,AFNE01.JPG,AFNE01.JPG,AFNE01.JPG,AFNE01.JPG,AFNE01.JPG,,,,,,,,,,,,,4,4,44,1,,,,,,,,,,,AMSA06.jpg,AMNE18.jpg,AMSA19.jpg,AMNE20.jpg,AMNE18.jpg,MN,1,num_6,16,num_6,0.300163192307,,,2017_Sep_20_1640,59.9976137922,FEMA4ImagesEEG,001,201446,
AFNE01.JPG,AFNE01.JPG,AFNE01.JPG,AFNE01.JPG,AFNE01.JPG,AFNE01.JPG,,,,,,,,,,,,,4,5,45,6,,,,,,,,,,,AMNE20.jpg,AMNE06.jpg,AMSA17.jpg,AMSA14.jpg,AMNE20.jpg,MN,1,num_8,32,num_4,0.333490923389,,,2017_Sep_20_1640,59.9976137922,FEMA4ImagesEEG,001,201446,
AFNE01.JPG,AFNE01.JPG,AFNE01.JPG,AFNE01.JPG,AFNE01.JPG,AFNE01.JPG,,,,,,,,,,,,,4,6,46,9,,,,,,,,,,,AMSA17.jpg,AMNE02.jpg,AMNE05.jpg,AMSA03.jpg,AMNE02.jpg,MN,1,num_6,32,num_2,1.00013438989,,,2017_Sep_20_1640,59.9976137922,FEMA4ImagesEEG,001,201446,
AFNE01.JPG,AFNE01.JPG,AFNE01.JPG,AFNE01.JPG,AFNE01.JPG,AFNE01.JPG,,,,,,,,,,,,,4,7,47,4,,,,,,,,,,,AMSA01.jpg,AMNE08.jpg,AMNE16.jpg,AMSA07.jpg,AMNE08.jpg,MN,1,num_6,32,num_2,0.216796234774,,,2017_Sep_20_1640,59.9976137922,FEMA4ImagesEEG,001,201446,
AFNE01.JPG,AFNE01.JPG,AFNE01.JPG,AFNE01.JPG,AFNE01.JPG,AFNE01.JPG,,,,,,,,,,,,,4,8,48,5,,,,,,,,,,,AMSA16.jpg,AMSA10.jpg,AMNE08.jpg,AMNE19.jpg,AMNE19.jpg,MN,1,num_4,16,num_4,1.15010934013,,,2017_Sep_20_1640,59.9976137922,FEMA4ImagesEEG,001,201446,
AFNE01.JPG,AFNE01.JPG,AFNE01.JPG,AFNE01.JPG,AFNE01.JPG,AFNE01.JPG,,,,,,,,,,,,,4,9,49,7,,,,,,,,,,,AMNE01.jpg,AMNE08.jpg,AMSA20.jpg,AMSA12.jpg,AMNE01.jpg,MN,1,num_8,32,num_6,0.133516839149,,,2017_Sep_20_1640,59.9976137922,FEMA4ImagesEEG,001,201446,
AFNE01.JPG,AFNE01.JPG,AFNE01.JPG,AFNE01.JPG,AFNE01.JPG,AFNE01.JPG,,,,,,,,,,,,,5,0,50,4,,,,,,,,,,,AMNE05.jpg,AMSA14.jpg,AMNE06.jpg,AMSA02.jpg,AMSA02.jpg,MS,2,num_4,32,num_8,1.11668378347,,,2017_Sep_20_1640,59.9976137922,FEMA4ImagesEEG,001,201446,
AFNE01.JPG,AFNE01.JPG,AFNE01.JPG,AFNE01.JPG,AFNE01.JPG,AFNE01.JPG,,,,,,,,,,,,,5,1,51,1,,,,,,,,,,,AMSA16.jpg,AMSA20.jpg,AMNE09.jpg,AMNE19.jpg,AMNE19.jpg,MN,1,num_4,16,num_4,0.98344823295,,,2017_Sep_20_1640,59.9976137922,FEMA4ImagesEEG,001,201446,
AFNE01.JPG,AFNE01.JPG,AFNE01.JPG,AFNE01.JPG,AFNE01.JPG,AFNE01.JPG,,,,,,,,,,,,,5,2,52,6,,,,,,,,,,,AMSA10.jpg,AMNE06.jpg,AMNE20.jpg,AMSA06.jpg,AMSA10.jpg,MS,2,num_8,32,num_6,0.0334855349647,,,2017_Sep_20_1640,59.9976137922,FEMA4ImagesEEG,001,201446,
AFNE01.JPG,AFNE01.JPG,AFNE01.JPG,AFNE01.JPG,AFNE01.JPG,AFNE01.JPG,,,,,,,,,,,,,5,3,53,0,,,,,,,,,,,AMNE09.jpg,AMSA05.jpg,AMNE20.jpg,AMSA12.jpg,AMSA12.jpg,MS,2,num_4,16,num_4,0.350180929208,,,2017_Sep_20_1640,59.9976137922,FEMA4ImagesEEG,001,201446,
AFNE01.JPG,AFNE01.JPG,AFNE01.JPG,AFNE01.JPG,AFNE01.JPG,AFNE01.JPG,,,,,,,,,,,,,5,4,54,3,,,,,,,,,,,AMSA09.jpg,AMNE17.jpg,AMSA07.jpg,AMNE19.jpg,AMSA09.jpg,MS,2,num_8,32,num_2,0.350199211367,,,2017_Sep_20_1640,59.9976137922,FEMA4ImagesEEG,001,201446,
AFNE01.JPG,AFNE01.JPG,AFNE01.JPG,AFNE01.JPG,AFNE01.JPG,AFNE01.JPG,,,,,,,,,,,,,5,5,55,9,,,,,,,,,,,AMSA17.jpg,AMSA11.jpg,AMNE18.jpg,AMNE08.jpg,AMNE18.jpg,MN,1,num_2,32,num_8,0.483446949991,,,2017_Sep_20_1640,59.9976137922,FEMA4ImagesEEG,001,201446,
AFNE01.JPG,AFNE01.JPG,AFNE01.JPG,AFNE01.JPG,AFNE01.JPG,AFNE01.JPG,,,,,,,,,,,,,5,6,56,2,,,,,,,,,,,AMNE12.jpg,AMNE17.jpg,AMSA19.jpg,AMSA16.jpg,AMSA19.jpg,MS,2,num_2,32,num_4,0.366814484858,,,2017_Sep_20_1640,59.9976137922,FEMA4ImagesEEG,001,201446,
AFNE01.JPG,AFNE01.JPG,AFNE01.JPG,AFNE01.JPG,AFNE01.JPG,AFNE01.JPG,,,,,,,,,,,,,5,7,57,7,,,,,,,,,,,AMNE03.jpg,AMNE10.jpg,AMSA17.jpg,AMSA10.jpg,AMSA17.jpg,MS,2,num_2,32,num_6,0.316797068695,,,2017_Sep_20_1640,59.9976137922,FEMA4ImagesEEG,001,201446,
AFNE01.JPG,AFNE01.JPG,AFNE01.JPG,AFNE01.JPG,AFNE01.JPG,AFNE01.JPG,,,,,,,,,,,,,5,8,58,5,,,,,,,,,,,AMSA07.jpg,AMNE20.jpg,AMSA16.jpg,AMNE03.jpg,AMNE20.jpg,MN,1,num_6,32,num_4,0.416779299723,,,2017_Sep_20_1640,59.9976137922,FEMA4ImagesEEG,001,201446,
AFNE01.JPG,AFNE01.JPG,AFNE01.JPG,AFNE01.JPG,AFNE01.JPG,AFNE01.JPG,,,,,,,,,,,,,5,9,59,8,,,,,,,,,,,AMSA09.jpg,AMNE15.jpg,AMNE03.jpg,AMSA06.jpg,AMNE03.jpg,MN,1,num_2,16,num_2,0.483487042442,,,2017_Sep_20_1640,59.9976137922,FEMA4ImagesEEG,001,201446,
,,,,,,,,,,,,,,,,,,,,,,,,,,,,,,,,,,,,,,,,,,,space,35.5137462578,2017_Sep_20_1640,59.9976137922,FEMA4ImagesEEG,001,201446,
AFNE01.JPG,AFNE01.JPG,AFNE01.JPG,AFNE01.JPG,AFNE01.JPG,AFNE01.JPG,,,,,,,,,,,,,,,,,0,0,0,9,,,,,,,AFNE14.jpg,AFNE15.jpg,AFSA12.jpg,AFSA07.jpg,AFSA07.jpg,FS,4,num_4,16,num_4,0.316698601639,,,2017_Sep_20_1640,59.9976137922,FEMA4ImagesEEG,001,201446,
AFNE01.JPG,AFNE01.JPG,AFNE01.JPG,AFNE01.JPG,AFNE01.JPG,AFNE01.JPG,,,,,,,,,,,,,,,,,0,1,1,8,,,,,,,AFSA07.jpg,AFNE19.jpg,AFSA08.jpg,AFNE12.jpg,AFNE12.jpg,FN,3,num_4,32,num_2,0.650194977603,,,2017_Sep_20_1640,59.9976137922,FEMA4ImagesEEG,001,201446,
AFNE01.JPG,AFNE01.JPG,AFNE01.JPG,AFNE01.JPG,AFNE01.JPG,AFNE01.JPG,,,,,,,,,,,,,,,,,0,2,2,3,,,,,,,AFNE05.jpg,AFSA07.jpg,AFNE15.jpg,AFSA12.jpg,AFNE15.jpg,FN,3,num_2,16,num_2,0.350138270842,,,2017_Sep_20_1640,59.9976137922,FEMA4ImagesEEG,001,201446,
AFNE01.JPG,AFNE01.JPG,AFNE01.JPG,AFNE01.JPG,AFNE01.JPG,AFNE01.JPG,,,,,,,,,,,,,,,,,0,3,3,0,,,,,,,AFSA18.jpg,AFNE14.jpg,AFSA03.jpg,AFNE02.jpg,AFSA18.jpg,FS,4,num_8,32,num_4,0.350179004772,,,2017_Sep_20_1640,59.9976137922,FEMA4ImagesEEG,001,201446,
AFNE01.JPG,AFNE01.JPG,AFNE01.JPG,AFNE01.JPG,AFNE01.JPG,AFNE01.JPG,,,,,,,,,,,,,,,,,0,4,4,4,,,,,,,AFSA14.jpg,AFSA07.jpg,AFNE19.jpg,AFNE03.jpg,AFSA07.jpg,FS,4,num_6,16,num_6,0.633488293324,,,2017_Sep_20_1640,59.9976137922,FEMA4ImagesEEG,001,201446,
AFNE01.JPG,AFNE01.JPG,AFNE01.JPG,AFNE01.JPG,AFNE01.JPG,AFNE01.JPG,,,,,,,,,,,,,,,,,0,5,5,1,,,,,,,AFSA01.jpg,AFNE02.jpg,AFSA16.jpg,AFNE16.jpg,AFNE02.jpg,FN,3,num_6,32,num_8,0.383462473786,,,2017_Sep_20_1640,59.9976137922,FEMA4ImagesEEG,001,201446,
AFNE01.JPG,AFNE01.JPG,AFNE01.JPG,AFNE01.JPG,AFNE01.JPG,AFNE01.JPG,,,,,,,,,,,,,,,,,0,6,6,2,,,,,,,AFNE18.jpg,AFSA07.jpg,AFNE11.jpg,AFSA02.jpg,AFNE11.jpg,FN,3,num_2,16,num_2,0.583455481665,,,2017_Sep_20_1640,59.9976137922,FEMA4ImagesEEG,001,201446,
AFNE01.JPG,AFNE01.JPG,AFNE01.JPG,AFNE01.JPG,AFNE01.JPG,AFNE01.JPG,,,,,,,,,,,,,,,,,0,7,7,5,,,,,,,AFSA18.jpg,AFSA10.jpg,AFNE15.jpg,AFNE14.jpg,AFNE15.jpg,FN,3,num_2,32,num_8,0.766768747391,,,2017_Sep_20_1640,59.9976137922,FEMA4ImagesEEG,001,201446,
AFNE01.JPG,AFNE01.JPG,AFNE01.JPG,AFNE01.JPG,AFNE01.JPG,AFNE01.JPG,,,,,,,,,,,,,,,,,0,8,8,7,,,,,,,AFNE17.jpg,AFNE05.jpg,AFSA08.jpg,AFSA09.jpg,AFNE05.jpg,FN,3,num_6,16,num_6,0.666778497874,,,2017_Sep_20_1640,59.9976137922,FEMA4ImagesEEG,001,201446,
AFNE01.JPG,AFNE01.JPG,AFNE01.JPG,AFNE01.JPG,AFNE01.JPG,AFNE01.JPG,,,,,,,,,,,,,,,,,0,9,9,6,,,,,,,AFNE06.jpg,AFSA08.jpg,AFSA18.jpg,AFNE19.jpg,AFNE06.jpg,FN,3,num_8,32,num_4,0.666770479384,,,2017_Sep_20_1640,59.9976137922,FEMA4ImagesEEG,001,201446,
AFNE01.JPG,AFNE01.JPG,AFNE01.JPG,AFNE01.JPG,AFNE01.JPG,AFNE01.JPG,,,,,,,,,,,,,,,,,1,0,10,4,,,,,,,AFNE10.jpg,AFNE02.jpg,AFSA16.jpg,AFSA08.jpg,AFNE02.jpg,FN,3,num_6,32,num_2,0.900105651624,,,2017_Sep_20_1640,59.9976137922,FEMA4ImagesEEG,001,201446,
AFNE01.JPG,AFNE01.JPG,AFNE01.JPG,AFNE01.JPG,AFNE01.JPG,AFNE01.JPG,,,,,,,,,,,,,,,,,1,1,11,5,,,,,,,AFSA02.jpg,AFNE12.jpg,AFNE19.jpg,AFSA16.jpg,AFNE19.jpg,FN,3,num_2,32,num_4,0.700156264333,,,2017_Sep_20_1640,59.9976137922,FEMA4ImagesEEG,001,201446,
AFNE01.JPG,AFNE01.JPG,AFNE01.JPG,AFNE01.JPG,AFNE01.JPG,AFNE01.JPG,,,,,,,,,,,,,,,,,1,2,12,6,,,,,,,AFNE04.jpg,AFNE07.jpg,AFSA18.jpg,AFSA19.jpg,AFNE07.jpg,FN,3,num_6,16,num_6,0.133488293324,,,2017_Sep_20_1640,59.9976137922,FEMA4ImagesEEG,001,201446,
AFNE01.JPG,AFNE01.JPG,AFNE01.JPG,AFNE01.JPG,AFNE01.JPG,AFNE01.JPG,,,,,,,,,,,,,,,,,1,3,13,9,,,,,,,AFNE06.jpg,AFSA13.jpg,AFNE02.jpg,AFSA11.jpg,AFNE06.jpg,FN,3,num_8,16,num_8,0.300125986516,,,2017_Sep_20_1640,59.9976137922,FEMA4ImagesEEG,001,201446,
AFNE01.JPG,AFNE01.JPG,AFNE01.JPG,AFNE01.JPG,AFNE01.JPG,AFNE01.JPG,,,,,,,,,,,,,,,,,1,4,14,0,,,,,,,AFSA11.jpg,AFSA09.jpg,AFNE09.jpg,AFNE12.jpg,AFNE09.jpg,FN,3,num_2,32,num_4,1.00013342767,,,2017_Sep_20_1640,59.9976137922,FEMA4ImagesEEG,001,201446,
AFNE01.JPG,AFNE01.JPG,AFNE01.JPG,AFNE01.JPG,AFNE01.JPG,AFNE01.JPG,,,,,,,,,,,,,,,,,1,5,15,8,,,,,,,AFNE13.jpg,AFSA11.jpg,AFNE18.jpg,AFSA09.jpg,AFNE18.jpg,FN,3,num_2,32,num_8,0.35017996699,,,2017_Sep_20_1640,59.9976137922,FEMA4ImagesEEG,001,201446,
AFNE01.JPG,AFNE01.JPG,AFNE01.JPG,AFNE01.JPG,AFNE01.JPG,AFNE01.JPG,,,,,,,,,,,,,,,,,1,6,16,1,,,,,,,AFSA05.jpg,AFNE08.jpg,AFNE10.jpg,AFSA09.jpg,AFNE10.jpg,FN,3,num_2,16,num_2,0.36681993743,,,2017_Sep_20_1640,59.9976137922,FEMA4ImagesEEG,001,201446,
AFNE01.JPG,AFNE01.JPG,AFNE01.JPG,AFNE01.JPG,AFNE01.JPG,AFNE01.JPG,,,,,,,,,,,,,,,,,1,7,17,2,,,,,,,AFSA18.jpg,AFNE15.jpg,AFSA19.jpg,AFNE12.jpg,AFSA18.jpg,FS,4,num_8,16,num_8,0.350161684833,,,2017_Sep_20_1640,59.9976137922,FEMA4ImagesEEG,001,201446,
AFNE01.JPG,AFNE01.JPG,AFNE01.JPG,AFNE01.JPG,AFNE01.JPG,AFNE01.JPG,,,,,,,,,,,,,,,,,1,8,18,3,,,,,,,AFNE20.jpg,AFSA09.jpg,AFSA07.jpg,AFNE08.jpg,AFNE08.jpg,FN,3,num_4,32,num_6,0.400174610639,,,2017_Sep_20_1640,59.9976137922,FEMA4ImagesEEG,001,201446,
AFNE01.JPG,AFNE01.JPG,AFNE01.JPG,AFNE01.JPG,AFNE01.JPG,AFNE01.JPG,,,,,,,,,,,,,,,,,1,9,19,7,,,,,,,AFSA07.jpg,AFNE20.jpg,AFSA06.jpg,AFNE13.jpg,AFSA06.jpg,FS,4,num_2,32,num_4,0.0501655978551,,,2017_Sep_20_1640,59.9976137922,FEMA4ImagesEEG,001,201446,
AFNE01.JPG,AFNE01.JPG,AFNE01.JPG,AFNE01.JPG,AFNE01.JPG,AFNE01.JPG,,,,,,,,,,,,,,,,,2,0,20,5,,,,,,,AFSA08.jpg,AFNE11.jpg,AFSA13.jpg,AFNE08.jpg,AFSA13.jpg,FS,4,num_2,32,num_6,0.316815671595,,,2017_Sep_20_1640,59.9976137922,FEMA4ImagesEEG,001,201446,
AFNE01.JPG,AFNE01.JPG,AFNE01.JPG,AFNE01.JPG,AFNE01.JPG,AFNE01.JPG,,,,,,,,,,,,,,,,,2,1,21,1,,,,,,,AFSA09.jpg,AFNE13.jpg,AFSA19.jpg,AFNE12.jpg,AFSA19.jpg,FS,4,num_2,32,num_4,0.566522996709,,,2017_Sep_20_1640,59.9976137922,FEMA4ImagesEEG,001,201446,
AFNE01.JPG,AFNE01.JPG,AFNE01.JPG,AFNE01.JPG,AFNE01.JPG,AFNE01.JPG,,,,,,,,,,,,,,,,,2,2,22,9,,,,,,,AFSA15.jpg,AFNE03.jpg,AFSA11.jpg,AFNE14.jpg,AFNE03.jpg,FN,3,num_6,32,num_8,0.66678876154,,,2017_Sep_20_1640,59.9976137922,FEMA4ImagesEEG,001,201446,
AFNE01.JPG,AFNE01.JPG,AFNE01.JPG,AFNE01.JPG,AFNE01.JPG,AFNE01.JPG,,,,,,,,,,,,,,,,,2,3,23,0,,,,,,,AFSA02.jpg,AFNE18.jpg,AFNE04.jpg,AFSA03.jpg,AFNE04.jpg,FN,3,num_2,32,num_4,0.549998813263,,,2017_Sep_20_1640,59.9976137922,FEMA4ImagesEEG,001,201446,
AFNE01.JPG,AFNE01.JPG,AFNE01.JPG,AFNE01.JPG,AFNE01.JPG,AFNE01.JPG,,,,,,,,,,,,,,,,,2,4,24,8,,,,,,,AFSA16.jpg,AFNE12.jpg,AFSA14.jpg,AFNE11.jpg,AFNE12.jpg,FN,3,num_6,32,num_2,0.366820578909,,,2017_Sep_20_1640,59.9976137922,FEMA4ImagesEEG,001,201446,
AFNE01.JPG,AFNE01.JPG,AFNE01.JPG,AFNE01.JPG,AFNE01.JPG,AFNE01.JPG,,,,,,,,,,,,,,,,,2,5,25,7,,,,,,,AFSA01.jpg,AFNE17.jpg,AFSA06.jpg,AFNE16.jpg,AFSA06.jpg,FS,4,num_2,32,num_8,0.333631407335,,,2017_Sep_20_1640,59.9976137922,FEMA4ImagesEEG,001,201446,
AFNE01.JPG,AFNE01.JPG,AFNE01.JPG,AFNE01.JPG,AFNE01.JPG,AFNE01.JPG,,,,,,,,,,,,,,,,,2,6,26,4,,,,,,,AFSA02.jpg,AFSA06.jpg,AFNE13.jpg,AFNE12.jpg,AFSA06.jpg,FS,4,num_6,32,num_4,0.550148919398,,,2017_Sep_20_1640,59.9976137922,FEMA4ImagesEEG,001,201446,
AFNE01.JPG,AFNE01.JPG,AFNE01.JPG,AFNE01.JPG,AFNE01.JPG,AFNE01.JPG,,,,,,,,,,,,,,,,,2,7,27,2,,,,,,,AFNE19.jpg,AFSA17.jpg,AFSA12.jpg,AFNE16.jpg,AFNE19.jpg,FN,3,num_8,32,num_6,0.36680422119,,,2017_Sep_20_1640,59.9976137922,FEMA4ImagesEEG,001,201446,
AFNE01.JPG,AFNE01.JPG,AFNE01.JPG,AFNE01.JPG,AFNE01.JPG,AFNE01.JPG,,,,,,,,,,,,,,,,,2,8,28,3,,,,,,,AFSA01.jpg,AFSA04.jpg,AFNE07.jpg,AFNE19.jpg,AFNE19.jpg,FN,3,num_4,32,num_6,0.500132144716,,,2017_Sep_20_1640,59.9976137922,FEMA4ImagesEEG,001,201446,
AFNE01.JPG,AFNE01.JPG,AFNE01.JPG,AFNE01.JPG,AFNE01.JPG,AFNE01.JPG,,,,,,,,,,,,,,,,,2,9,29,6,,,,,,,AFSA08.jpg,AFSA13.jpg,AFNE08.jpg,AFNE10.jpg,AFNE10.jpg,FN,3,num_4,16,num_4,0.283514882638,,,2017_Sep_20_1640,59.9976137922,FEMA4ImagesEEG,001,201446,
AFNE01.JPG,AFNE01.JPG,AFNE01.JPG,AFNE01.JPG,AFNE01.JPG,AFNE01.JPG,,,,,,,,,,,,,,,,,3,0,30,2,,,,,,,AFSA12.jpg,AFNE14.jpg,AFNE13.jpg,AFSA05.jpg,AFNE13.jpg,FN,3,num_2,32,num_8,0.433486625479,,,2017_Sep_20_1640,59.9976137922,FEMA4ImagesEEG,001,201446,
AFNE01.JPG,AFNE01.JPG,AFNE01.JPG,AFNE01.JPG,AFNE01.JPG,AFNE01.JPG,,,,,,,,,,,,,,,,,3,1,31,7,,,,,,,AFSA09.jpg,AFNE12.jpg,AFNE14.jpg,AFSA07.jpg,AFNE12.jpg,FN,3,num_6,32,num_2,0.316799313874,,,2017_Sep_20_1640,59.9976137922,FEMA4ImagesEEG,001,201446,
AFNE01.JPG,AFNE01.JPG,AFNE01.JPG,AFNE01.JPG,AFNE01.JPG,AFNE01.JPG,,,,,,,,,,,,,,,,,3,2,32,8,,,,,,,AFSA16.jpg,AFSA15.jpg,AFNE14.jpg,AFNE09.jpg,AFSA15.jpg,FS,4,num_6,16,num_6,0.350185419564,,,2017_Sep_20_1640,59.9976137922,FEMA4ImagesEEG,001,201446,
AFNE01.JPG,AFNE01.JPG,AFNE01.JPG,AFNE01.JPG,AFNE01.JPG,AFNE01.JPG,,,,,,,,,,,,,,,,,3,3,33,6,,,,,,,AFSA17.jpg,AFNE16.jpg,AFNE06.jpg,AFSA10.jpg,AFSA10.jpg,FS,4,num_4,16,num_4,0.450002790434,,,2017_Sep_20_1640,59.9976137922,FEMA4ImagesEEG,001,201446,
AFNE01.JPG,AFNE01.JPG,AFNE01.JPG,AFNE01.JPG,AFNE01.JPG,AFNE01.JPG,,,,,,,,,,,,,,,,,3,4,34,1,,,,,,,AFNE20.jpg,AFSA07.jpg,AFNE18.jpg,AFSA17.jpg,AFNE18.jpg,FN,3,num_2,32,num_8,0.433490474354,,,2017_Sep_20_1640,59.9976137922,FEMA4ImagesEEG,001,201446,
AFNE01.JPG,AFNE01.JPG,AFNE01.JPG,AFNE01.JPG,AFNE01.JPG,AFNE01.JPG,,,,,,,,,,,,,,,,,3,5,35,3,,,,,,,AFSA13.jpg,AFSA09.jpg,AFNE16.jpg,AFNE10.jpg,AFSA13.jpg,FS,4,num_8,32,num_6,0.533477516476,,,2017_Sep_20_1640,59.9976137922,FEMA4ImagesEEG,001,201446,
AFNE01.JPG,AFNE01.JPG,AFNE01.JPG,AFNE01.JPG,AFNE01.JPG,AFNE01.JPG,,,,,,,,,,,,,,,,,3,6,36,0,,,,,,,AFSA01.jpg,AFSA12.jpg,AFNE04.jpg,AFNE08.jpg,AFNE04.jpg,FN,3,num_2,32,num_4,1.20009404085,,,2017_Sep_20_1640,59.9976137922,FEMA4ImagesEEG,001,201446,
AFNE01.JPG,AFNE01.JPG,AFNE01.JPG,AFNE01.JPG,AFNE01.JPG,AFNE01.JPG,,,,,,,,,,,,,,,,,3,7,37,5,,,,,,,AFSA06.jpg,AFSA10.jpg,AFNE17.jpg,AFNE14.jpg,AFNE14.jpg,FN,3,num_4,32,num_2,0.450368112839,,,2017_Sep_20_1640,59.9976137922,FEMA4ImagesEEG,001,201446,
AFNE01.JPG,AFNE01.JPG,AFNE01.JPG,AFNE01.JPG,AFNE01.JPG,AFNE01.JPG,,,,,,,,,,,,,,,,,3,8,38,9,,,,,,,AFSA14.jpg,AFSA06.jpg,AFNE06.jpg,AFNE01.jpg,AFNE01.jpg,FN,3,num_4,32,num_6,0.666783950446,,,2017_Sep_20_1640,59.9976137922,FEMA4ImagesEEG,001,201446,
AFNE01.JPG,AFNE01.JPG,AFNE01.JPG,AFNE01.JPG,AFNE01.JPG,AFNE01.JPG,,,,,,,,,,,,,,,,,3,9,39,4,,,,,,,AFSA07.jpg,AFNE18.jpg,AFSA13.jpg,AFNE10.jpg,AFNE18.jpg,FN,3,num_6,32,num_2,0.650114151224,,,2017_Sep_20_1640,59.9976137922,FEMA4ImagesEEG,001,201446,
AFNE01.JPG,AFNE01.JPG,AFNE01.JPG,AFNE01.JPG,AFNE01.JPG,AFNE01.JPG,,,,,,,,,,,,,,,,,4,0,40,4,,,,,,,AFSA13.jpg,AFNE01.jpg,AFSA14.jpg,AFNE13.jpg,AFSA13.jpg,FS,4,num_8,32,num_4,0.400197383149,,,2017_Sep_20_1640,59.9976137922,FEMA4ImagesEEG,001,201446,
AFNE01.JPG,AFNE01.JPG,AFNE01.JPG,AFNE01.JPG,AFNE01.JPG,AFNE01.JPG,,,,,,,,,,,,,,,,,4,1,41,0,,,,,,,AFNE20.jpg,AFSA03.jpg,AFSA20.jpg,AFNE18.jpg,AFNE20.jpg,FN,3,num_8,16,num_8,0.666777856395,,,2017_Sep_20_1640,59.9976137922,FEMA4ImagesEEG,001,201446,
AFNE01.JPG,AFNE01.JPG,AFNE01.JPG,AFNE01.JPG,AFNE01.JPG,AFNE01.JPG,,,,,,,,,,,,,,,,,4,2,42,1,,,,,,,AFNE09.jpg,AFSA11.jpg,AFSA14.jpg,AFNE17.jpg,AFSA14.jpg,FS,4,num_2,16,num_2,0.866768298354,,,2017_Sep_20_1640,59.9976137922,FEMA4ImagesEEG,001,201446,
AFNE01.JPG,AFNE01.JPG,AFNE01.JPG,AFNE01.JPG,AFNE01.JPG,AFNE01.JPG,,,,,,,,,,,,,,,,,4,3,43,9,,,,,,,AFSA03.jpg,AFNE07.jpg,AFSA09.jpg,AFNE20.jpg,AFNE20.jpg,FN,3,num_4,32,num_8,0.616770703902,,,2017_Sep_20_1640,59.9976137922,FEMA4ImagesEEG,001,201446,
AFNE01.JPG,AFNE01.JPG,AFNE01.JPG,AFNE01.JPG,AFNE01.JPG,AFNE01.JPG,,,,,,,,,,,,,,,,,4,4,44,7,,,,,,,AFNE13.jpg,AFSA02.jpg,AFNE07.jpg,AFSA03.jpg,AFNE13.jpg,FN,3,num_8,32,num_6,0.583442331341,,,2017_Sep_20_1640,59.9976137922,FEMA4ImagesEEG,001,201446,
AFNE01.JPG,AFNE01.JPG,AFNE01.JPG,AFNE01.JPG,AFNE01.JPG,AFNE01.JPG,,,,,,,,,,,,,,,,,4,5,45,8,,,,,,,AFSA20.jpg,AFNE13.jpg,AFNE15.jpg,AFSA05.jpg,AFSA20.jpg,FS,4,num_8,32,num_4,0.616639521406,,,2017_Sep_20_1640,59.9976137922,FEMA4ImagesEEG,001,201446,
AFNE01.JPG,AFNE01.JPG,AFNE01.JPG,AFNE01.JPG,AFNE01.JPG,AFNE01.JPG,,,,,,,,,,,,,,,,,4,6,46,2,,,,,,,AFNE04.jpg,AFSA09.jpg,AFNE14.jpg,AFSA18.jpg,AFSA18.jpg,FS,4,num_4,32,num_6,0.800167041183,,,2017_Sep_20_1640,59.9976137922,FEMA4ImagesEEG,001,201446,
AFNE01.JPG,AFNE01.JPG,AFNE01.JPG,AFNE01.JPG,AFNE01.JPG,AFNE01.JPG,,,,,,,,,,,,,,,,,4,7,47,3,,,,,,,AFSA11.jpg,AFSA04.jpg,AFNE02.jpg,AFNE09.jpg,AFSA11.jpg,FS,4,num_8,32,num_4,0.633454615667,,,2017_Sep_20_1640,59.9976137922,FEMA4ImagesEEG,001,201446,
AFNE01.JPG,AFNE01.JPG,AFNE01.JPG,AFNE01.JPG,AFNE01.JPG,AFNE01.JPG,,,,,,,,,,,,,,,,,4,8,48,6,,,,,,,AFNE17.jpg,AFSA14.jpg,AFSA15.jpg,AFNE14.jpg,AFSA14.jpg,FS,4,num_6,32,num_8,1.33340945553,,,2017_Sep_20_1640,59.9976137922,FEMA4ImagesEEG,001,201446,
AFNE01.JPG,AFNE01.JPG,AFNE01.JPG,AFNE01.JPG,AFNE01.JPG,AFNE01.JPG,,,,,,,,,,,,,,,,,4,9,49,5,,,,,,,AFNE03.jpg,AFSA03.jpg,AFSA08.jpg,AFNE08.jpg,AFNE03.jpg,FN,3,num_8,32,num_2,0.6501010009,,,2017_Sep_20_1640,59.9976137922,FEMA4ImagesEEG,001,201446,
AFNE01.JPG,AFNE01.JPG,AFNE01.JPG,AFNE01.JPG,AFNE01.JPG,AFNE01.JPG,,,,,,,,,,,,,,,,,5,0,50,2,,,,,,,AFSA06.jpg,AFNE10.jpg,AFNE02.jpg,AFSA13.jpg,AFNE02.jpg,FN,3,num_2,32,num_6,0.583510969615,,,2017_Sep_20_1640,59.9976137922,FEMA4ImagesEEG,001,201446,
AFNE01.JPG,AFNE01.JPG,AFNE01.JPG,AFNE01.JPG,AFNE01.JPG,AFNE01.JPG,,,,,,,,,,,,,,,,,5,1,51,6,,,,,,,AFNE08.jpg,AFSA16.jpg,AFNE09.jpg,AFSA05.jpg,AFNE08.jpg,FN,3,num_8,16,num_8,0.750219866995,,,2017_Sep_20_1640,59.9976137922,FEMA4ImagesEEG,001,201446,
AFNE01.JPG,AFNE01.JPG,AFNE01.JPG,AFNE01.JPG,AFNE01.JPG,AFNE01.JPG,,,,,,,,,,,,,,,,,5,2,52,3,,,,,,,AFNE06.jpg,AFSA19.jpg,AFSA05.jpg,AFNE20.jpg,AFSA05.jpg,FS,4,num_2,32,num_4,0.300163192307,,,2017_Sep_20_1640,59.9976137922,FEMA4ImagesEEG,001,201446,
AFNE01.JPG,AFNE01.JPG,AFNE01.JPG,AFNE01.JPG,AFNE01.JPG,AFNE01.JPG,,,,,,,,,,,,,,,,,5,3,53,9,,,,,,,AFSA20.jpg,AFNE16.jpg,AFNE05.jpg,AFSA11.jpg,AFSA20.jpg,FS,4,num_8,32,num_2,0.633575534495,,,2017_Sep_20_1640,59.9976137922,FEMA4ImagesEEG,001,201446,
AFNE01.JPG,AFNE01.JPG,AFNE01.JPG,AFNE01.JPG,AFNE01.JPG,AFNE01.JPG,,,,,,,,,,,,,,,,,5,4,54,4,,,,,,,AFNE09.jpg,AFSA18.jpg,AFSA05.jpg,AFNE07.jpg,AFSA18.jpg,FS,4,num_6,16,num_6,0.650202354613,,,2017_Sep_20_1640,59.9976137922,FEMA4ImagesEEG,001,201446,
AFNE01.JPG,AFNE01.JPG,AFNE01.JPG,AFNE01.JPG,AFNE01.JPG,AFNE01.JPG,,,,,,,,,,,,,,,,,5,5,55,1,,,,,,,AFSA12.jpg,AFSA17.jpg,AFNE18.jpg,AFNE04.jpg,AFNE04.jpg,FN,3,num_4,16,num_4,0.250237507673,,,2017_Sep_20_1640,59.9976137922,FEMA4ImagesEEG,001,201446,
AFNE01.JPG,AFNE01.JPG,AFNE01.JPG,AFNE01.JPG,AFNE01.JPG,AFNE01.JPG,,,,,,,,,,,,,,,,,5,6,56,0,,,,,,,AFNE17.jpg,AFSA14.jpg,AFSA16.jpg,AFNE20.jpg,AFSA14.jpg,FS,4,num_6,16,num_6,0.566762589189,,,2017_Sep_20_1640,59.9976137922,FEMA4ImagesEEG,001,201446,
AFNE01.JPG,AFNE01.JPG,AFNE01.JPG,AFNE01.JPG,AFNE01.JPG,AFNE01.JPG,,,,,,,,,,,,,,,,,5,7,57,8,,,,,,,AFSA04.jpg,AFNE04.jpg,AFSA07.jpg,AFNE08.jpg,AFNE08.jpg,FN,3,num_4,16,num_4,0.916731509522,,,2017_Sep_20_1640,59.9976137922,FEMA4ImagesEEG,001,201446,
AFNE01.JPG,AFNE01.JPG,AFNE01.JPG,AFNE01.JPG,AFNE01.JPG,AFNE01.JPG,,,,,,,,,,,,,,,,,5,8,58,5,,,,,,,AFNE15.jpg,AFNE11.jpg,AFSA13.jpg,AFSA05.jpg,AFSA13.jpg,FS,4,num_2,32,num_8,0.36684367216,,,2017_Sep_20_1640,59.9976137922,FEMA4ImagesEEG,001,201446,
AFNE01.JPG,AFNE01.JPG,AFNE01.JPG,AFNE01.JPG,AFNE01.JPG,AFNE01.JPG,,,,,,,,,,,,,,,,,5,9,59,7,,,,,,,AFSA10.jpg,AFNE08.jpg,AFNE03.jpg,AFSA13.jpg,AFSA10.jpg,FS,4,num_8,32,num_2,0.483477740992,,,2017_Sep_20_1640,59.9976137922,FEMA4ImagesEEG,001,201446,
,,,,,,,,,,,,,,,,,,,,,,,,,,,,,,,,,,,,,,,,,,,space,2.39996965803,2017_Sep_20_1640,59.9976137922,FEMA4ImagesEEG,001,201446,
AFNE01.JPG,AFNE01.JPG,AFNE01.JPG,AFNE01.JPG,AFNE01.JPG,AFNE01.JPG,,,,,,,,,,,,,,,,,,,,,0,0,0,4,,,AMSA17.jpg,AMNE03.jpg,AMNE05.jpg,AMSA06.jpg,AMNE03.jpg,MN,1,num_6,32,num_4,0.783471262052,,,2017_Sep_20_1640,59.9976137922,FEMA4ImagesEEG,001,201446,
AFNE01.JPG,AFNE01.JPG,AFNE01.JPG,AFNE01.JPG,AFNE01.JPG,AFNE01.JPG,,,,,,,,,,,,,,,,,,,,,0,1,1,6,,,AMSA16.jpg,AMNE12.jpg,AMNE09.jpg,AMSA20.jpg,AMNE09.jpg,MN,1,num_2,32,num_6,0.61676300615,,,2017_Sep_20_1640,59.9976137922,FEMA4ImagesEEG,001,201446,
AFNE01.JPG,AFNE01.JPG,AFNE01.JPG,AFNE01.JPG,AFNE01.JPG,AFNE01.JPG,,,,,,,,,,,,,,,,,,,,,0,2,2,1,,,AMSA01.jpg,AMNE07.jpg,AMSA07.jpg,AMNE18.jpg,AMSA07.jpg,MS,2,num_2,32,num_4,0.533891912039,,,2017_Sep_20_1640,59.9976137922,FEMA4ImagesEEG,001,201446,
AFNE01.JPG,AFNE01.JPG,AFNE01.JPG,AFNE01.JPG,AFNE01.JPG,AFNE01.JPG,,,,,,,,,,,,,,,,,,,,,0,3,3,2,,,AMNE08.jpg,AMSA11.jpg,AMNE12.jpg,AMSA13.jpg,AMSA13.jpg,MS,2,num_4,32,num_8,0.350130252351,,,2017_Sep_20_1640,59.9976137922,FEMA4ImagesEEG,001,201446,
AFNE01.JPG,AFNE01.JPG,AFNE01.JPG,AFNE01.JPG,AFNE01.JPG,AFNE01.JPG,,,,,,,,,,,,,,,,,,,,,0,4,4,9,,,AMNE04.jpg,AMNE03.jpg,AMSA09.jpg,AMSA04.jpg,AMNE04.jpg,MN,1,num_8,32,num_6,0.483499551285,,,2017_Sep_20_1640,59.9976137922,FEMA4ImagesEEG,001,201446,
AFNE01.JPG,AFNE01.JPG,AFNE01.JPG,AFNE01.JPG,AFNE01.JPG,AFNE01.JPG,,,,,,,,,,,,,,,,,,,,,0,5,5,8,,,AMSA20.jpg,AMSA03.jpg,AMNE05.jpg,AMNE01.jpg,AMNE01.jpg,MN,1,num_4,32,num_2,0.483494098711,,,2017_Sep_20_1640,59.9976137922,FEMA4ImagesEEG,001,201446,
AFNE01.JPG,AFNE01.JPG,AFNE01.JPG,AFNE01.JPG,AFNE01.JPG,AFNE01.JPG,,,,,,,,,,,,,,,,,,,,,0,6,6,0,,,AMSA10.jpg,AMNE05.jpg,AMSA16.jpg,AMNE07.jpg,AMNE07.jpg,MN,1,num_4,32,num_8,0.383502566237,,,2017_Sep_20_1640,59.9976137922,FEMA4ImagesEEG,001,201446,
AFNE01.JPG,AFNE01.JPG,AFNE01.JPG,AFNE01.JPG,AFNE01.JPG,AFNE01.JPG,,,,,,,,,,,,,,,,,,,,,0,7,7,5,,,AMNE09.jpg,AMSA20.jpg,AMSA09.jpg,AMNE17.jpg,AMSA20.jpg,MS,2,num_6,32,num_4,0.433516775003,,,2017_Sep_20_1640,59.9976137922,FEMA4ImagesEEG,001,201446,
AFNE01.JPG,AFNE01.JPG,AFNE01.JPG,AFNE01.JPG,AFNE01.JPG,AFNE01.JPG,,,,,,,,,,,,,,,,,,,,,0,8,8,7,,,AMNE16.jpg,AMSA11.jpg,AMNE01.jpg,AMSA15.jpg,AMSA11.jpg,MS,2,num_6,16,num_6,0.850107800579,,,2017_Sep_20_1640,59.9976137922,FEMA4ImagesEEG,001,201446,
AFNE01.JPG,AFNE01.JPG,AFNE01.JPG,AFNE01.JPG,AFNE01.JPG,AFNE01.JPG,,,,,,,,,,,,,,,,,,,,,0,9,9,3,,,AMSA08.jpg,AMNE03.jpg,AMNE04.jpg,AMSA12.jpg,AMSA12.jpg,MS,2,num_4,16,num_4,0.55012165653,,,2017_Sep_20_1640,59.9976137922,FEMA4ImagesEEG,001,201446,
AFNE01.JPG,AFNE01.JPG,AFNE01.JPG,AFNE01.JPG,AFNE01.JPG,AFNE01.JPG,,,,,,,,,,,,,,,,,,,,,1,0,10,9,,,AMNE04.jpg,AMNE07.jpg,AMSA14.jpg,AMSA04.jpg,AMSA04.jpg,MS,2,num_4,32,num_8,0.616787382362,,,2017_Sep_20_1640,59.9976137922,FEMA4ImagesEEG,001,201446,
AFNE01.JPG,AFNE01.JPG,AFNE01.JPG,AFNE01.JPG,AFNE01.JPG,AFNE01.JPG,,,,,,,,,,,,,,,,,,,,,1,1,11,5,,,AMNE15.jpg,AMSA08.jpg,AMSA07.jpg,AMNE17.jpg,AMSA07.jpg,MS,2,num_2,32,num_4,0.900105010145,,,2017_Sep_20_1640,59.9976137922,FEMA4ImagesEEG,001,201446,
AFNE01.JPG,AFNE01.JPG,AFNE01.JPG,AFNE01.JPG,AFNE01.JPG,AFNE01.JPG,,,,,,,,,,,,,,,,,,,,,1,2,12,0,,,AMSA07.jpg,AMNE09.jpg,AMNE14.jpg,AMSA18.jpg,AMSA18.jpg,MS,2,num_4,16,num_4,0.899983449837,,,2017_Sep_20_1640,59.9976137922,FEMA4ImagesEEG,001,201446,
AFNE01.JPG,AFNE01.JPG,AFNE01.JPG,AFNE01.JPG,AFNE01.JPG,AFNE01.JPG,,,,,,,,,,,,,,,,,,,,,1,3,13,1,,,AMSA05.jpg,AMSA13.jpg,AMNE04.jpg,AMNE09.jpg,AMSA13.jpg,MS,2,num_6,16,num_6,1.01678494474,,,2017_Sep_20_1640,59.9976137922,FEMA4ImagesEEG,001,201446,
AFNE01.JPG,AFNE01.JPG,AFNE01.JPG,AFNE01.JPG,AFNE01.JPG,AFNE01.JPG,,,,,,,,,,,,,,,,,,,,,1,4,14,2,,,AMSA17.jpg,AMSA20.jpg,AMNE08.jpg,AMNE05.jpg,AMSA20.jpg,MS,2,num_6,32,num_4,0.383474020413,,,2017_Sep_20_1640,59.9976137922,FEMA4ImagesEEG,001,201446,
AFNE01.JPG,AFNE01.JPG,AFNE01.JPG,AFNE01.JPG,AFNE01.JPG,AFNE01.JPG,,,,,,,,,,,,,,,,,,,,,1,5,15,3,,,AMNE14.jpg,AMNE18.jpg,AMSA12.jpg,AMSA09.jpg,AMNE18.jpg,MN,1,num_6,32,num_2,0.833275707118,,,2017_Sep_20_1640,59.9976137922,FEMA4ImagesEEG,001,201446,
AFNE01.JPG,AFNE01.JPG,AFNE01.JPG,AFNE01.JPG,AFNE01.JPG,AFNE01.JPG,,,,,,,,,,,,,,,,,,,,,1,6,16,7,,,AMSA02.jpg,AMNE18.jpg,AMNE11.jpg,AMSA08.jpg,AMSA08.jpg,MS,2,num_4,32,num_8,1.21675101049,,,2017_Sep_20_1640,59.9976137922,FEMA4ImagesEEG,001,201446,
AFNE01.JPG,AFNE01.JPG,AFNE01.JPG,AFNE01.JPG,AFNE01.JPG,AFNE01.JPG,,,,,,,,,,,,,,,,,,,,,1,7,17,4,,,AMSA17.jpg,AMNE03.jpg,AMSA11.jpg,AMNE15.jpg,AMNE15.jpg,MN,1,num_4,16,num_4,1.95007174945,,,2017_Sep_20_1640,59.9976137922,FEMA4ImagesEEG,001,201446,
AFNE01.JPG,AFNE01.JPG,AFNE01.JPG,AFNE01.JPG,AFNE01.JPG,AFNE01.JPG,,,,,,,,,,,,,,,,,,,,,1,8,18,8,,,AMNE13.jpg,AMSA03.jpg,AMNE01.jpg,AMSA06.jpg,AMSA03.jpg,MS,2,num_6,16,num_6,0.850103630964,,,2017_Sep_20_1640,59.9976137922,FEMA4ImagesEEG,001,201446,
AFNE01.JPG,AFNE01.JPG,AFNE01.JPG,AFNE01.JPG,AFNE01.JPG,AFNE01.JPG,,,,,,,,,,,,,,,,,,,,,1,9,19,6,,,AMNE14.jpg,AMSA01.jpg,AMNE11.jpg,AMSA09.jpg,AMSA01.jpg,MS,2,num_6,16,num_6,0.483482552087,,,2017_Sep_20_1640,59.9976137922,FEMA4ImagesEEG,001,201446,
AFNE01.JPG,AFNE01.JPG,AFNE01.JPG,AFNE01.JPG,AFNE01.JPG,AFNE01.JPG,,,,,,,,,,,,,,,,,,,,,2,0,20,9,,,AMSA10.jpg,AMSA15.jpg,AMNE12.jpg,AMNE01.jpg,AMNE01.jpg,MN,1,num_4,32,num_2,0.366825710742,,,2017_Sep_20_1640,59.9976137922,FEMA4ImagesEEG,001,201446,
AFNE01.JPG,AFNE01.JPG,AFNE01.JPG,AFNE01.JPG,AFNE01.JPG,AFNE01.JPG,,,,,,,,,,,,,,,,,,,,,2,1,21,3,,,AMSA09.jpg,AMNE10.jpg,AMSA17.jpg,AMNE14.jpg,AMSA17.jpg,MS,2,num_2,32,num_4,0.433472833676,,,2017_Sep_20_1640,59.9976137922,FEMA4ImagesEEG,001,201446,
AFNE01.JPG,AFNE01.JPG,AFNE01.JPG,AFNE01.JPG,AFNE01.JPG,AFNE01.JPG,,,,,,,,,,,,,,,,,,,,,2,2,22,1,,,AMNE08.jpg,AMNE03.jpg,AMSA14.jpg,AMSA08.jpg,AMSA14.jpg,MS,2,num_2,32,num_8,0.350174193678,,,2017_Sep_20_1640,59.9976137922,FEMA4ImagesEEG,001,201446,
AFNE01.JPG,AFNE01.JPG,AFNE01.JPG,AFNE01.JPG,AFNE01.JPG,AFNE01.JPG,,,,,,,,,,,,,,,,,,,,,2,3,23,6,,,AMSA17.jpg,AMNE06.jpg,AMSA09.jpg,AMNE07.jpg,AMSA17.jpg,MS,2,num_8,32,num_6,0.333516261819,,,2017_Sep_20_1640,59.9976137922,FEMA4ImagesEEG,001,201446,
AFNE01.JPG,AFNE01.JPG,AFNE01.JPG,AFNE01.JPG,AFNE01.JPG,AFNE01.JPG,,,,,,,,,,,,,,,,,,,,,2,4,24,0,,,AMSA19.jpg,AMNE13.jpg,AMSA13.jpg,AMNE02.jpg,AMNE13.jpg,MN,1,num_6,32,num_4,0.283543107722,,,2017_Sep_20_1640,59.9976137922,FEMA4ImagesEEG,001,201446,
AFNE01.JPG,AFNE01.JPG,AFNE01.JPG,AFNE01.JPG,AFNE01.JPG,AFNE01.JPG,,,,,,,,,,,,,,,,,,,,,2,5,25,5,,,AMNE13.jpg,AMSA20.jpg,AMNE09.jpg,AMSA09.jpg,AMSA20.jpg,MS,2,num_6,32,num_2,0.266909552074,,,2017_Sep_20_1640,59.9976137922,FEMA4ImagesEEG,001,201446,
AFNE01.JPG,AFNE01.JPG,AFNE01.JPG,AFNE01.JPG,AFNE01.JPG,AFNE01.JPG,,,,,,,,,,,,,,,,,,,,,2,6,26,8,,,AMSA12.jpg,AMNE07.jpg,AMNE12.jpg,AMSA16.jpg,AMSA16.jpg,MS,2,num_4,32,num_8,0.616781288307,,,2017_Sep_20_1640,59.9976137922,FEMA4ImagesEEG,001,201446,
AFNE01.JPG,AFNE01.JPG,AFNE01.JPG,AFNE01.JPG,AFNE01.JPG,AFNE01.JPG,,,,,,,,,,,,,,,,,,,,,2,7,27,2,,,AMNE04.jpg,AMNE10.jpg,AMSA20.jpg,AMSA06.jpg,AMNE04.jpg,MN,1,num_8,16,num_8,0.633560459735,,,2017_Sep_20_1640,59.9976137922,FEMA4ImagesEEG,001,201446,
AFNE01.JPG,AFNE01.JPG,AFNE01.JPG,AFNE01.JPG,AFNE01.JPG,AFNE01.JPG,,,,,,,,,,,,,,,,,,,,,2,8,28,7,,,AMSA08.jpg,AMSA20.jpg,AMNE13.jpg,AMNE14.jpg,AMNE13.jpg,MN,1,num_2,16,num_2,0.649859163241,,,2017_Sep_20_1640,59.9976137922,FEMA4ImagesEEG,001,201446,
AFNE01.JPG,AFNE01.JPG,AFNE01.JPG,AFNE01.JPG,AFNE01.JPG,AFNE01.JPG,,,,,,,,,,,,,,,,,,,,,2,9,29,4,,,AMSA08.jpg,AMNE14.jpg,AMNE09.jpg,AMSA13.jpg,AMSA08.jpg,MS,2,num_8,32,num_6,0.600014625725,,,2017_Sep_20_1640,59.9976137922,FEMA4ImagesEEG,001,201446,
AFNE01.JPG,AFNE01.JPG,AFNE01.JPG,AFNE01.JPG,AFNE01.JPG,AFNE01.JPG,,,,,,,,,,,,,,,,,,,,,3,0,30,3,,,AMSA17.jpg,AMSA03.jpg,AMNE03.jpg,AMNE02.jpg,AMSA03.jpg,MS,2,num_6,32,num_8,0.350125120518,,,2017_Sep_20_1640,59.9976137922,FEMA4ImagesEEG,001,201446,
AFNE01.JPG,AFNE01.JPG,AFNE01.JPG,AFNE01.JPG,AFNE01.JPG,AFNE01.JPG,,,,,,,,,,,,,,,,,,,,,3,1,31,4,,,AMSA10.jpg,AMNE19.jpg,AMSA05.jpg,AMNE04.jpg,AMNE04.jpg,MN,1,num_4,16,num_4,0.0501572586254,,,2017_Sep_20_1640,59.9976137922,FEMA4ImagesEEG,001,201446,
AFNE01.JPG,AFNE01.JPG,AFNE01.JPG,AFNE01.JPG,AFNE01.JPG,AFNE01.JPG,,,,,,,,,,,,,,,,,,,,,3,2,32,0,,,AMNE15.jpg,AMSA01.jpg,AMSA11.jpg,AMNE09.jpg,AMNE09.jpg,MN,1,num_4,32,num_6,0.100174354046,,,2017_Sep_20_1640,59.9976137922,FEMA4ImagesEEG,001,201446,
AFNE01.JPG,AFNE01.JPG,AFNE01.JPG,AFNE01.JPG,AFNE01.JPG,AFNE01.JPG,,,,,,,,,,,,,,,,,,,,,3,3,33,6,,,AMNE13.jpg,AMSA07.jpg,AMNE04.jpg,AMSA10.jpg,AMNE13.jpg,MN,1,num_8,32,num_4,0.416790525609,,,2017_Sep_20_1640,59.9976137922,FEMA4ImagesEEG,001,201446,
AFNE01.JPG,AFNE01.JPG,AFNE01.JPG,AFNE01.JPG,AFNE01.JPG,AFNE01.JPG,,,,,,,,,,,,,,,,,,,,,3,4,34,9,,,AMNE20.jpg,AMSA03.jpg,AMSA19.jpg,AMNE09.jpg,AMSA19.jpg,MS,2,num_2,16,num_2,0.750089325978,,,2017_Sep_20_1640,59.9976137922,FEMA4ImagesEEG,001,201446,
AFNE01.JPG,AFNE01.JPG,AFNE01.JPG,AFNE01.JPG,AFNE01.JPG,AFNE01.JPG,,,,,,,,,,,,,,,,,,,,,3,5,35,7,,,AMSA09.jpg,AMNE05.jpg,AMSA03.jpg,AMNE14.jpg,AMSA09.jpg,MS,2,num_8,16,num_8,0.383412759151,,,2017_Sep_20_1640,59.9976137922,FEMA4ImagesEEG,001,201446,
AFNE01.JPG,AFNE01.JPG,AFNE01.JPG,AFNE01.JPG,AFNE01.JPG,AFNE01.JPG,,,,,,,,,,,,,,,,,,,,,3,6,36,5,,,AMSA11.jpg,AMNE16.jpg,AMSA05.jpg,AMNE14.jpg,AMSA11.jpg,MS,2,num_8,16,num_8,0.550147957178,,,2017_Sep_20_1640,59.9976137922,FEMA4ImagesEEG,001,201446,
AFNE01.JPG,AFNE01.JPG,AFNE01.JPG,AFNE01.JPG,AFNE01.JPG,AFNE01.JPG,,,,,,,,,,,,,,,,,,,,,3,7,37,8,,,AMNE04.jpg,AMSA06.jpg,AMSA03.jpg,AMNE18.jpg,AMSA06.jpg,MS,2,num_6,32,num_2,0.366768619095,,,2017_Sep_20_1640,59.9976137922,FEMA4ImagesEEG,001,201446,
AFNE01.JPG,AFNE01.JPG,AFNE01.JPG,AFNE01.JPG,AFNE01.JPG,AFNE01.JPG,,,,,,,,,,,,,,,,,,,,,3,8,38,2,,,AMNE02.jpg,AMNE12.jpg,AMSA15.jpg,AMSA04.jpg,AMSA15.jpg,MS,2,num_2,32,num_4,0.433505869856,,,2017_Sep_20_1640,59.9976137922,FEMA4ImagesEEG,001,201446,
