IPosition2,IPosition3,IPosition1,IPosition6,IPosition4,IPosition5,TrialsF1.thisRepN,TrialsF1.thisTrialN,TrialsF1.thisN,TrialsF1.thisIndex,TrialsM1.thisRepN,TrialsM1.thisTrialN,TrialsM1.thisN,TrialsM1.thisIndex,TrialsF2.thisRepN,TrialsF2.thisTrialN,TrialsF2.thisN,TrialsF2.thisIndex,TrialsM2.thisRepN,TrialsM2.thisTrialN,TrialsM2.thisN,TrialsM2.thisIndex,TrialsF3.thisRepN,TrialsF3.thisTrialN,TrialsF3.thisN,TrialsF3.thisIndex,TrialsM3.thisRepN,TrialsM3.thisTrialN,TrialsM3.thisN,TrialsM3.thisIndex,InstrKey_resp.keys,InstrKey_resp.rt,Image0 _Position,Image1 _Position,Image2 _Position,Image3 _Position,Center_image,condition,code,correct_answer,accuracy,Key_Resp.keys,Key_Resp.rt,BreakKey_resp.keys,BreakKey_resp.rt,date,frameRate,expName,session,participant,
,,,,,,,,,,,,,,,,,,,,,,,,,,,,,,space,6.1498062412,,,,,,,,,,,,,,2017_Sep_21_1456,60.0056968753,FEMA4ImagesEEG,001,201556,
AMNE22.JPG,AMSA24.JPG,AMSA22.JPG,AMNE25.JPG,AMNE24.JPG,AMSA25.JPG,0,0,0,7,,,,,,,,,,,,,,,,,,,,,,,AFSA13.jpg,AFNE10.jpg,AFNE13.jpg,AFSA05.jpg,AFNE10.jpg,FN,3,num_6,32,num_8,0.800134967227,,,2017_Sep_21_1456,60.0056968753,FEMA4ImagesEEG,001,201556,
AFNE23.JPG,AFNE24.JPG,AFNE22.JPG,AFSA24.JPG,AFSA22.JPG,AFSA23.JPG,0,1,1,8,,,,,,,,,,,,,,,,,,,,,,,AFSA01.jpg,AFSA02.jpg,AFNE09.jpg,AFNE18.jpg,AFSA01.jpg,FS,4,num_8,16,num_8,0.916748508724,,,2017_Sep_21_1456,60.0056968753,FEMA4ImagesEEG,001,201556,
AMSA25.JPG,AMNE24.JPG,AMSA24.JPG,AMNE26.JPG,AMSA21.JPG,AMNE25.JPG,0,2,2,3,,,,,,,,,,,,,,,,,,,,,,,AFSA04.jpg,AFNE14.jpg,AFSA07.jpg,AFNE13.jpg,AFNE13.jpg,FN,3,num_4,16,num_4,0.91677865824,,,2017_Sep_21_1456,60.0056968753,FEMA4ImagesEEG,001,201556,
AFSA25.JPG,AFNE24.JPG,AFSA24.JPG,AFNE21.JPG,AFSA21.JPG,AFNE25.JPG,0,3,3,2,,,,,,,,,,,,,,,,,,,,,,,AFNE07.jpg,AFNE15.jpg,AFSA10.jpg,AFSA03.jpg,AFSA10.jpg,FS,4,num_2,16,num_2,0.966912823627,,,2017_Sep_21_1456,60.0056968753,FEMA4ImagesEEG,001,201556,
AFSA21.JPG,AFNE22.JPG,AFNE21.JPG,AFSA23.JPG,AFSA22.JPG,AFNE23.JPG,0,4,4,0,,,,,,,,,,,,,,,,,,,,,,,AFNE14.jpg,AFSA19.jpg,AFSA04.jpg,AFNE15.jpg,AFNE15.jpg,FN,3,num_4,32,num_8,0.950118256689,,,2017_Sep_21_1456,60.0056968753,FEMA4ImagesEEG,001,201556,
AMNE23.JPG,AMNE24.JPG,AMNE22.JPG,AMSA24.JPG,AMSA22.JPG,AMSA23.JPG,0,5,5,9,,,,,,,,,,,,,,,,,,,,,,,AFNE15.jpg,AFNE07.jpg,AFSA11.jpg,AFSA20.jpg,AFSA20.jpg,FS,4,num_4,16,num_4,1.05000105844,,,2017_Sep_21_1456,60.0056968753,FEMA4ImagesEEG,001,201556,
AFSA21.JPG,AFNE23.JPG,AFNE21.JPG,AFSA25.JPG,AFNE25.JPG,AFSA23.JPG,0,6,6,4,,,,,,,,,,,,,,,,,,,,,,,AFNE03.jpg,AFSA04.jpg,AFNE08.jpg,AFSA12.jpg,AFSA04.jpg,FS,4,num_6,32,num_8,1.01676890776,,,2017_Sep_21_1456,60.0056968753,FEMA4ImagesEEG,001,201556,
AMSA21.JPG,AMNE22.JPG,AMNE21.JPG,AMSA23.JPG,AMSA22.JPG,AMNE23.JPG,0,7,7,1,,,,,,,,,,,,,,,,,,,,,,,AFNE15.jpg,AFSA08.jpg,AFSA02.jpg,AFNE16.jpg,AFSA02.jpg,FS,4,num_2,32,num_6,0.900148309986,,,2017_Sep_21_1456,60.0056968753,FEMA4ImagesEEG,001,201556,
AFNE22.JPG,AFSA24.JPG,AFSA22.JPG,AFNE25.JPG,AFNE24.JPG,AFSA25.JPG,0,8,8,6,,,,,,,,,,,,,,,,,,,,,,,AFNE08.jpg,AFSA07.jpg,AFNE01.jpg,AFSA15.jpg,AFNE01.jpg,FN,3,num_2,32,num_8,0.800096478473,,,2017_Sep_21_1456,60.0056968753,FEMA4ImagesEEG,001,201556,
AMSA21.JPG,AMNE23.JPG,AMNE21.JPG,AMSA25.JPG,AMNE25.JPG,AMSA23.JPG,0,9,9,5,,,,,,,,,,,,,,,,,,,,,,,AFNE14.jpg,AFNE18.jpg,AFSA11.jpg,AFSA09.jpg,AFSA09.jpg,FS,4,num_4,16,num_4,0.850203380978,,,2017_Sep_21_1456,60.0056968753,FEMA4ImagesEEG,001,201556,
AMNE22.JPG,AMSA24.JPG,AMSA22.JPG,AMNE25.JPG,AMNE24.JPG,AMSA25.JPG,,,,,0,0,0,7,,,,,,,,,,,,,,,,,,,AMNE12.jpg,AMSA20.jpg,AMNE03.jpg,AMSA17.jpg,AMNE03.jpg,MN,1,num_2,32,num_8,0.833321252139,,,2017_Sep_21_1456,60.0056968753,FEMA4ImagesEEG,001,201556,
AFSA21.JPG,AFNE23.JPG,AFNE21.JPG,AFSA25.JPG,AFNE25.JPG,AFSA23.JPG,,,,,0,1,1,4,,,,,,,,,,,,,,,,,,,AMSA20.jpg,AMSA04.jpg,AMNE01.jpg,AMNE13.jpg,AMNE01.jpg,MN,1,num_2,16,num_2,0.666871512352,,,2017_Sep_21_1456,60.0056968753,FEMA4ImagesEEG,001,201556,
AFSA25.JPG,AFNE24.JPG,AFSA24.JPG,AFNE21.JPG,AFSA21.JPG,AFNE25.JPG,,,,,0,2,2,2,,,,,,,,,,,,,,,,,,,AMNE14.jpg,AMSA04.jpg,AMSA08.jpg,AMNE20.jpg,AMSA04.jpg,MS,2,num_6,32,num_8,0.9002156653,,,2017_Sep_21_1456,60.0056968753,FEMA4ImagesEEG,001,201556,
AMNE23.JPG,AMNE24.JPG,AMNE22.JPG,AMSA24.JPG,AMSA22.JPG,AMSA23.JPG,,,,,0,3,3,9,,,,,,,,,,,,,,,,,,,AMSA19.jpg,AMNE08.jpg,AMNE13.jpg,AMSA04.jpg,AMSA19.jpg,MS,2,num_8,16,num_8,0.783408717834,,,2017_Sep_21_1456,60.0056968753,FEMA4ImagesEEG,001,201556,
AFSA21.JPG,AFNE22.JPG,AFNE21.JPG,AFSA23.JPG,AFSA22.JPG,AFNE23.JPG,,,,,0,4,4,0,,,,,,,,,,,,,,,,,,,AMSA02.jpg,AMSA16.jpg,AMNE10.jpg,AMNE18.jpg,AMNE10.jpg,MN,1,num_2,32,num_4,0.750120437719,,,2017_Sep_21_1456,60.0056968753,FEMA4ImagesEEG,001,201556,
AMSA21.JPG,AMNE22.JPG,AMNE21.JPG,AMSA23.JPG,AMSA22.JPG,AMNE23.JPG,,,,,0,5,5,1,,,,,,,,,,,,,,,,,,,AMNE19.jpg,AMSA04.jpg,AMSA15.jpg,AMNE01.jpg,AMSA15.jpg,MS,2,num_2,32,num_8,0.716773783002,,,2017_Sep_21_1456,60.0056968753,FEMA4ImagesEEG,001,201556,
AFNE22.JPG,AFSA24.JPG,AFSA22.JPG,AFNE25.JPG,AFNE24.JPG,AFSA25.JPG,,,,,0,6,6,6,,,,,,,,,,,,,,,,,,,AMNE11.jpg,AMNE04.jpg,AMSA15.jpg,AMSA04.jpg,AMSA15.jpg,MS,2,num_2,16,num_2,0.95012819962,,,2017_Sep_21_1456,60.0056968753,FEMA4ImagesEEG,001,201556,
AMSA21.JPG,AMNE23.JPG,AMNE21.JPG,AMSA25.JPG,AMNE25.JPG,AMSA23.JPG,,,,,0,7,7,5,,,,,,,,,,,,,,,,,,,AMSA01.jpg,AMNE02.jpg,AMNE04.jpg,AMSA14.jpg,AMNE04.jpg,MN,1,num_2,16,num_2,0.850128327918,,,2017_Sep_21_1456,60.0056968753,FEMA4ImagesEEG,001,201556,
AFNE23.JPG,AFNE24.JPG,AFNE22.JPG,AFSA24.JPG,AFSA22.JPG,AFSA23.JPG,,,,,0,8,8,8,,,,,,,,,,,,,,,,,,,AMNE07.jpg,AMSA14.jpg,AMSA05.jpg,AMNE05.jpg,AMNE05.jpg,MN,1,num_4,16,num_4,0.633485085928,,,2017_Sep_21_1456,60.0056968753,FEMA4ImagesEEG,001,201556,
AMSA25.JPG,AMNE24.JPG,AMSA24.JPG,AMNE26.JPG,AMSA21.JPG,AMNE25.JPG,,,,,0,9,9,3,,,,,,,,,,,,,,,,,,,AMNE20.jpg,AMSA08.jpg,AMSA16.jpg,AMNE09.jpg,AMNE09.jpg,MN,1,num_4,16,num_4,0.683510520568,,,2017_Sep_21_1456,60.0056968753,FEMA4ImagesEEG,001,201556,
AMSA25.JPG,AMNE24.JPG,AMSA24.JPG,AMNE26.JPG,AMSA21.JPG,AMNE25.JPG,,,,,,,,,0,0,0,3,,,,,,,,,,,,,,,AFNE07.jpg,AFSA01.jpg,AFNE08.jpg,AFSA02.jpg,AFNE07.jpg,FN,3,num_8,16,num_8,0.533465328364,,,2017_Sep_21_1456,60.0056968753,FEMA4ImagesEEG,001,201556,
AMSA21.JPG,AMNE23.JPG,AMNE21.JPG,AMSA25.JPG,AMNE25.JPG,AMSA23.JPG,,,,,,,,,0,1,1,5,,,,,,,,,,,,,,,AFSA20.jpg,AFNE18.jpg,AFNE07.jpg,AFSA13.jpg,AFNE07.jpg,FN,3,num_2,16,num_2,0.600130091989,,,2017_Sep_21_1456,60.0056968753,FEMA4ImagesEEG,001,201556,
AFNE23.JPG,AFNE24.JPG,AFNE22.JPG,AFSA24.JPG,AFSA22.JPG,AFSA23.JPG,,,,,,,,,0,2,2,8,,,,,,,,,,,,,,,AFSA03.jpg,AFNE15.jpg,AFSA20.jpg,AFNE17.jpg,AFSA20.jpg,FS,4,num_2,16,num_2,0.616767175772,,,2017_Sep_21_1456,60.0056968753,FEMA4ImagesEEG,001,201556,
AMSA21.JPG,AMNE22.JPG,AMNE21.JPG,AMSA23.JPG,AMSA22.JPG,AMNE23.JPG,,,,,,,,,0,3,3,1,,,,,,,,,,,,,,,AFSA01.jpg,AFNE18.jpg,AFNE11.jpg,AFSA12.jpg,AFSA01.jpg,FS,4,num_8,16,num_8,1.19979575303,,,2017_Sep_21_1456,60.0056968753,FEMA4ImagesEEG,001,201556,
AMNE23.JPG,AMNE24.JPG,AMNE22.JPG,AMSA24.JPG,AMSA22.JPG,AMSA23.JPG,,,,,,,,,0,4,4,9,,,,,,,,,,,,,,,AFNE11.jpg,AFSA01.jpg,AFSA05.jpg,AFNE02.jpg,AFSA01.jpg,FS,4,num_6,32,num_2,1.26672031572,,,2017_Sep_21_1456,60.0056968753,FEMA4ImagesEEG,001,201556,
AMNE22.JPG,AMSA24.JPG,AMSA22.JPG,AMNE25.JPG,AMNE24.JPG,AMSA25.JPG,,,,,,,,,0,5,5,7,,,,,,,,,,,,,,,AFSA08.jpg,AFSA04.jpg,AFNE18.jpg,AFNE02.jpg,AFNE18.jpg,FN,3,num_2,32,num_8,0.75015956795,,,2017_Sep_21_1456,60.0056968753,FEMA4ImagesEEG,001,201556,
AFNE22.JPG,AFSA24.JPG,AFSA22.JPG,AFNE25.JPG,AFNE24.JPG,AFSA25.JPG,,,,,,,,,0,6,6,6,,,,,,,,,,,,,,,AFNE07.jpg,AFNE04.jpg,AFSA12.jpg,AFSA04.jpg,AFSA12.jpg,FS,4,num_2,16,num_2,0.983502117204,,,2017_Sep_21_1456,60.0056968753,FEMA4ImagesEEG,001,201556,
AFSA25.JPG,AFNE24.JPG,AFSA24.JPG,AFNE21.JPG,AFSA21.JPG,AFNE25.JPG,,,,,,,,,0,7,7,2,,,,,,,,,,,,,,,AFSA20.jpg,AFNE16.jpg,AFSA08.jpg,AFNE07.jpg,AFNE07.jpg,FN,3,num_4,16,num_4,0.750081307488,,,2017_Sep_21_1456,60.0056968753,FEMA4ImagesEEG,001,201556,
AFSA21.JPG,AFNE22.JPG,AFNE21.JPG,AFSA23.JPG,AFSA22.JPG,AFNE23.JPG,,,,,,,,,0,8,8,0,,,,,,,,,,,,,,,AFSA05.jpg,AFNE19.jpg,AFNE12.jpg,AFSA16.jpg,AFNE19.jpg,FN,3,num_6,32,num_8,1.08342372844,,,2017_Sep_21_1456,60.0056968753,FEMA4ImagesEEG,001,201556,
AFSA21.JPG,AFNE23.JPG,AFNE21.JPG,AFSA25.JPG,AFNE25.JPG,AFSA23.JPG,,,,,,,,,0,9,9,4,,,,,,,,,,,,,,,AFSA02.jpg,AFNE11.jpg,AFNE06.jpg,AFSA18.jpg,AFNE06.jpg,FN,3,num_2,16,num_2,0.633458143813,,,2017_Sep_21_1456,60.0056968753,FEMA4ImagesEEG,001,201556,
AMSA21.JPG,AMNE22.JPG,AMNE21.JPG,AMSA23.JPG,AMSA22.JPG,AMNE23.JPG,,,,,,,,,,,,,0,0,0,1,,,,,,,,,,,AMSA16.jpg,AMSA01.jpg,AMNE03.jpg,AMNE02.jpg,AMNE02.jpg,MN,1,num_4,16,num_4,0.916651966094,,,2017_Sep_21_1456,60.0056968753,FEMA4ImagesEEG,001,201556,
AMNE23.JPG,AMNE24.JPG,AMNE22.JPG,AMSA24.JPG,AMSA22.JPG,AMSA23.JPG,,,,,,,,,,,,,0,1,1,9,,,,,,,,,,,AMSA07.jpg,AMSA01.jpg,AMNE20.jpg,AMNE12.jpg,AMSA07.jpg,MS,2,num_8,16,num_8,0.833478414541,,,2017_Sep_21_1456,60.0056968753,FEMA4ImagesEEG,001,201556,
AFSA21.JPG,AFNE22.JPG,AFNE21.JPG,AFSA23.JPG,AFSA22.JPG,AFNE23.JPG,,,,,,,,,,,,,0,2,2,0,,,,,,,,,,,AMSA02.jpg,AMNE04.jpg,AMNE02.jpg,AMSA12.jpg,AMSA02.jpg,MS,2,num_8,32,num_6,1.06682352972,,,2017_Sep_21_1456,60.0056968753,FEMA4ImagesEEG,001,201556,
AFSA25.JPG,AFNE24.JPG,AFSA24.JPG,AFNE21.JPG,AFSA21.JPG,AFNE25.JPG,,,,,,,,,,,,,0,3,3,2,,,,,,,,,,,AMNE16.jpg,AMSA01.jpg,AMNE12.jpg,AMSA09.jpg,AMNE12.jpg,MN,1,num_2,16,num_2,0.750139682088,,,2017_Sep_21_1456,60.0056968753,FEMA4ImagesEEG,001,201556,
AMSA25.JPG,AMNE24.JPG,AMSA24.JPG,AMNE26.JPG,AMSA21.JPG,AMNE25.JPG,,,,,,,,,,,,,0,4,4,3,,,,,,,,,,,AMNE09.jpg,AMNE11.jpg,AMSA08.jpg,AMSA19.jpg,AMSA19.jpg,MS,2,num_4,16,num_4,0.86678882569,,,2017_Sep_21_1456,60.0056968753,FEMA4ImagesEEG,001,201556,
AFNE23.JPG,AFNE24.JPG,AFNE22.JPG,AFSA24.JPG,AFSA22.JPG,AFSA23.JPG,,,,,,,,,,,,,0,5,5,8,,,,,,,,,,,AMNE05.jpg,AMNE20.jpg,AMSA13.jpg,AMSA06.jpg,AMSA06.jpg,MS,2,num_4,16,num_4,0.883475303373,,,2017_Sep_21_1456,60.0056968753,FEMA4ImagesEEG,001,201556,
AFNE22.JPG,AFSA24.JPG,AFSA22.JPG,AFNE25.JPG,AFNE24.JPG,AFSA25.JPG,,,,,,,,,,,,,0,6,6,6,,,,,,,,,,,AMNE04.jpg,AMNE15.jpg,AMSA20.jpg,AMSA17.jpg,AMNE04.jpg,MN,1,num_8,32,num_6,0.75014288949,,,2017_Sep_21_1456,60.0056968753,FEMA4ImagesEEG,001,201556,
AFSA21.JPG,AFNE23.JPG,AFNE21.JPG,AFSA25.JPG,AFNE25.JPG,AFSA23.JPG,,,,,,,,,,,,,0,7,7,4,,,,,,,,,,,AMSA14.jpg,AMSA10.jpg,AMNE15.jpg,AMNE19.jpg,AMNE19.jpg,MN,1,num_4,32,num_2,0.75011370219,,,2017_Sep_21_1456,60.0056968753,FEMA4ImagesEEG,001,201556,
AMSA21.JPG,AMNE23.JPG,AMNE21.JPG,AMSA25.JPG,AMNE25.JPG,AMSA23.JPG,,,,,,,,,,,,,0,8,8,5,,,,,,,,,,,AMSA14.jpg,AMNE04.jpg,AMSA18.jpg,AMNE05.jpg,AMSA18.jpg,MS,2,num_2,32,num_6,1.08346317941,,,2017_Sep_21_1456,60.0056968753,FEMA4ImagesEEG,001,201556,
AMNE22.JPG,AMSA24.JPG,AMSA22.JPG,AMNE25.JPG,AMNE24.JPG,AMSA25.JPG,,,,,,,,,,,,,0,9,9,7,,,,,,,,,,,AMNE07.jpg,AMSA09.jpg,AMNE16.jpg,AMSA03.jpg,AMSA03.jpg,MS,2,num_4,16,num_4,0.750104721476,,,2017_Sep_21_1456,60.0056968753,FEMA4ImagesEEG,001,201556,
AMNE22.JPG,AMSA24.JPG,AMSA22.JPG,AMNE25.JPG,AMNE24.JPG,AMSA25.JPG,,,,,,,,,,,,,,,,,0,0,0,7,,,,,,,AFNE15.jpg,AFSA12.jpg,AFNE06.jpg,AFSA19.jpg,AFSA12.jpg,FS,4,num_6,32,num_2,0.916811373681,,,2017_Sep_21_1456,60.0056968753,FEMA4ImagesEEG,001,201556,
AFNE23.JPG,AFNE24.JPG,AFNE22.JPG,AFSA24.JPG,AFSA22.JPG,AFSA23.JPG,,,,,,,,,,,,,,,,,0,1,1,8,,,,,,,AFNE18.jpg,AFSA15.jpg,AFSA17.jpg,AFNE16.jpg,AFNE18.jpg,FN,3,num_8,16,num_8,0.80012662799,,,2017_Sep_21_1456,60.0056968753,FEMA4ImagesEEG,001,201556,
AMNE23.JPG,AMNE24.JPG,AMNE22.JPG,AMSA24.JPG,AMSA22.JPG,AMSA23.JPG,,,,,,,,,,,,,,,,,0,2,2,9,,,,,,,AFSA05.jpg,AFNE03.jpg,AFSA11.jpg,AFNE02.jpg,AFSA05.jpg,FS,4,num_8,32,num_4,0.916892841546,,,2017_Sep_21_1456,60.0056968753,FEMA4ImagesEEG,001,201556,
AFSA21.JPG,AFNE22.JPG,AFNE21.JPG,AFSA23.JPG,AFSA22.JPG,AFNE23.JPG,,,,,,,,,,,,,,,,,0,3,3,0,,,,,,,AFSA15.jpg,AFNE15.jpg,AFSA17.jpg,AFNE03.jpg,AFSA15.jpg,FS,4,num_8,16,num_8,0.716796234774,,,2017_Sep_21_1456,60.0056968753,FEMA4ImagesEEG,001,201556,
AFSA21.JPG,AFNE23.JPG,AFNE21.JPG,AFSA25.JPG,AFNE25.JPG,AFSA23.JPG,,,,,,,,,,,,,,,,,0,4,4,4,,,,,,,AFSA02.jpg,AFNE17.jpg,AFNE01.jpg,AFSA15.jpg,AFNE01.jpg,FN,3,num_2,32,num_6,0.966797678091,,,2017_Sep_21_1456,60.0056968753,FEMA4ImagesEEG,001,201556,
AMSA21.JPG,AMNE22.JPG,AMNE21.JPG,AMSA23.JPG,AMSA22.JPG,AMNE23.JPG,,,,,,,,,,,,,,,,,0,5,5,1,,,,,,,AFSA03.jpg,AFNE06.jpg,AFSA19.jpg,AFNE16.jpg,AFNE16.jpg,FN,3,num_4,32,num_8,0.750130059896,,,2017_Sep_21_1456,60.0056968753,FEMA4ImagesEEG,001,201556,
AMSA25.JPG,AMNE24.JPG,AMSA24.JPG,AMNE26.JPG,AMSA21.JPG,AMNE25.JPG,,,,,,,,,,,,,,,,,0,6,6,3,,,,,,,AFSA18.jpg,AFSA20.jpg,AFNE19.jpg,AFNE11.jpg,AFNE19.jpg,FN,3,num_2,16,num_2,1.0501239017,,,2017_Sep_21_1456,60.0056968753,FEMA4ImagesEEG,001,201556,
AMSA21.JPG,AMNE23.JPG,AMNE21.JPG,AMSA25.JPG,AMNE25.JPG,AMSA23.JPG,,,,,,,,,,,,,,,,,0,7,7,5,,,,,,,AFNE15.jpg,AFSA06.jpg,AFNE06.jpg,AFSA03.jpg,AFNE15.jpg,FN,3,num_8,16,num_8,0.550109789168,,,2017_Sep_21_1456,60.0056968753,FEMA4ImagesEEG,001,201556,
AFNE22.JPG,AFSA24.JPG,AFSA22.JPG,AFNE25.JPG,AFNE24.JPG,AFSA25.JPG,,,,,,,,,,,,,,,,,0,8,8,6,,,,,,,AFSA10.jpg,AFNE05.jpg,AFNE14.jpg,AFSA08.jpg,AFSA08.jpg,FS,4,num_4,32,num_8,0.866788504951,,,2017_Sep_21_1456,60.0056968753,FEMA4ImagesEEG,001,201556,
AFSA25.JPG,AFNE24.JPG,AFSA24.JPG,AFNE21.JPG,AFSA21.JPG,AFNE25.JPG,,,,,,,,,,,,,,,,,0,9,9,2,,,,,,,AFSA13.jpg,AFNE15.jpg,AFNE09.jpg,AFSA15.jpg,AFSA13.jpg,FS,4,num_8,32,num_4,1.01672721162,,,2017_Sep_21_1456,60.0056968753,FEMA4ImagesEEG,001,201556,
AFSA21.JPG,AFNE22.JPG,AFNE21.JPG,AFSA23.JPG,AFSA22.JPG,AFNE23.JPG,,,,,,,,,,,,,,,,,,,,,0,0,0,0,,,AMNE19.jpg,AMNE20.jpg,AMSA07.jpg,AMSA06.jpg,AMSA07.jpg,MS,2,num_2,16,num_2,0.733570915851,,,2017_Sep_21_1456,60.0056968753,FEMA4ImagesEEG,001,201556,
AMSA21.JPG,AMNE22.JPG,AMNE21.JPG,AMSA23.JPG,AMSA22.JPG,AMNE23.JPG,,,,,,,,,,,,,,,,,,,,,0,1,1,1,,,AMSA09.jpg,AMNE16.jpg,AMSA10.jpg,AMNE17.jpg,AMNE16.jpg,MN,1,num_6,32,num_8,0.933479889951,,,2017_Sep_21_1456,60.0056968753,FEMA4ImagesEEG,001,201556,
AMSA21.JPG,AMNE23.JPG,AMNE21.JPG,AMSA25.JPG,AMNE25.JPG,AMSA23.JPG,,,,,,,,,,,,,,,,,,,,,0,2,2,5,,,AMNE16.jpg,AMSA02.jpg,AMSA06.jpg,AMNE20.jpg,AMSA02.jpg,MS,2,num_6,16,num_6,0.633483802972,,,2017_Sep_21_1456,60.0056968753,FEMA4ImagesEEG,001,201556,
AFNE23.JPG,AFNE24.JPG,AFNE22.JPG,AFSA24.JPG,AFSA22.JPG,AFSA23.JPG,,,,,,,,,,,,,,,,,,,,,0,3,3,8,,,AMSA07.jpg,AMSA16.jpg,AMNE01.jpg,AMNE13.jpg,AMNE13.jpg,MN,1,num_4,16,num_4,0.950108313758,,,2017_Sep_21_1456,60.0056968753,FEMA4ImagesEEG,001,201556,
AFSA25.JPG,AFNE24.JPG,AFSA24.JPG,AFNE21.JPG,AFSA21.JPG,AFNE25.JPG,,,,,,,,,,,,,,,,,,,,,0,4,4,2,,,AMNE17.jpg,AMSA05.jpg,AMNE09.jpg,AMSA19.jpg,AMSA19.jpg,MS,2,num_4,32,num_8,0.833143562399,,,2017_Sep_21_1456,60.0056968753,FEMA4ImagesEEG,001,201556,
AFSA21.JPG,AFNE23.JPG,AFNE21.JPG,AFSA25.JPG,AFNE25.JPG,AFSA23.JPG,,,,,,,,,,,,,,,,,,,,,0,5,5,4,,,AMNE19.jpg,AMSA03.jpg,AMNE09.jpg,AMSA04.jpg,AMSA04.jpg,MS,2,num_4,16,num_4,0.866783373116,,,2017_Sep_21_1456,60.0056968753,FEMA4ImagesEEG,001,201556,
AMSA25.JPG,AMNE24.JPG,AMSA24.JPG,AMNE26.JPG,AMSA21.JPG,AMNE25.JPG,,,,,,,,,,,,,,,,,,,,,0,6,6,3,,,AMNE16.jpg,AMNE07.jpg,AMSA15.jpg,AMSA17.jpg,AMNE07.jpg,MN,1,num_6,32,num_8,0.700191545693,,,2017_Sep_21_1456,60.0056968753,FEMA4ImagesEEG,001,201556,
AFNE22.JPG,AFSA24.JPG,AFSA22.JPG,AFNE25.JPG,AFNE24.JPG,AFSA25.JPG,,,,,,,,,,,,,,,,,,,,,0,7,7,6,,,AMSA14.jpg,AMNE10.jpg,AMNE05.jpg,AMSA17.jpg,AMNE10.jpg,MN,1,num_6,16,num_6,0.716794951804,,,2017_Sep_21_1456,60.0056968753,FEMA4ImagesEEG,001,201556,
AMNE23.JPG,AMNE24.JPG,AMNE22.JPG,AMSA24.JPG,AMSA22.JPG,AMSA23.JPG,,,,,,,,,,,,,,,,,,,,,0,8,8,9,,,AMNE01.jpg,AMSA02.jpg,AMNE08.jpg,AMSA19.jpg,AMNE08.jpg,MN,1,num_2,32,num_8,0.866793636786,,,2017_Sep_21_1456,60.0056968753,FEMA4ImagesEEG,001,201556,
AMNE22.JPG,AMSA24.JPG,AMSA22.JPG,AMNE25.JPG,AMNE24.JPG,AMSA25.JPG,,,,,,,,,,,,,,,,,,,,,0,9,9,7,,,AMSA12.jpg,AMNE17.jpg,AMNE02.jpg,AMSA03.jpg,AMNE02.jpg,MN,1,num_2,16,num_2,0.649997402012,,,2017_Sep_21_1456,60.0056968753,FEMA4ImagesEEG,001,201556,
,,,,,,,,,,,,,,,,,,,,,,,,,,,,,,,,,,,,,,,,,,,space,2.63342190023,2017_Sep_21_1456,60.0056968753,FEMA4ImagesEEG,001,201556,
AFNE01.JPG,AFNE01.JPG,AFNE01.JPG,AFNE01.JPG,AFNE01.JPG,AFNE01.JPG,0,0,0,9,,,,,,,,,,,,,,,,,,,,,,,AFSA04.jpg,AFNE19.jpg,AFNE09.jpg,AFSA10.jpg,AFSA10.jpg,FS,4,num_4,32,num_2,0.866798127143,,,2017_Sep_21_1456,60.0056968753,FEMA4ImagesEEG,001,201556,
AFNE01.JPG,AFNE01.JPG,AFNE01.JPG,AFNE01.JPG,AFNE01.JPG,AFNE01.JPG,0,1,1,1,,,,,,,,,,,,,,,,,,,,,,,AFSA04.jpg,AFSA02.jpg,AFNE16.jpg,AFNE09.jpg,AFNE16.jpg,FN,3,num_2,16,num_2,0.916767432354,,,2017_Sep_21_1456,60.0056968753,FEMA4ImagesEEG,001,201556,
AFNE01.JPG,AFNE01.JPG,AFNE01.JPG,AFNE01.JPG,AFNE01.JPG,AFNE01.JPG,0,2,2,7,,,,,,,,,,,,,,,,,,,,,,,AFSA20.jpg,AFSA04.jpg,AFNE18.jpg,AFNE17.jpg,AFSA20.jpg,FS,4,num_8,32,num_4,0.866753865062,,,2017_Sep_21_1456,60.0056968753,FEMA4ImagesEEG,001,201556,
AFNE01.JPG,AFNE01.JPG,AFNE01.JPG,AFNE01.JPG,AFNE01.JPG,AFNE01.JPG,0,3,3,4,,,,,,,,,,,,,,,,,,,,,,,AFNE17.jpg,AFSA12.jpg,AFSA10.jpg,AFNE09.jpg,AFNE09.jpg,FN,3,num_4,32,num_2,1.40007710581,,,2017_Sep_21_1456,60.0056968753,FEMA4ImagesEEG,001,201556,
AFNE01.JPG,AFNE01.JPG,AFNE01.JPG,AFNE01.JPG,AFNE01.JPG,AFNE01.JPG,0,4,4,8,,,,,,,,,,,,,,,,,,,,,,,AFNE03.jpg,AFSA14.jpg,AFNE11.jpg,AFSA07.jpg,AFNE03.jpg,FN,3,num_8,16,num_8,0.933436269363,,,2017_Sep_21_1456,60.0056968753,FEMA4ImagesEEG,001,201556,
AFNE01.JPG,AFNE01.JPG,AFNE01.JPG,AFNE01.JPG,AFNE01.JPG,AFNE01.JPG,0,5,5,0,,,,,,,,,,,,,,,,,,,,,,,AFNE16.jpg,AFSA02.jpg,AFNE01.jpg,AFSA07.jpg,AFSA07.jpg,FS,4,num_4,32,num_6,1.28348088423,,,2017_Sep_21_1456,60.0056968753,FEMA4ImagesEEG,001,201556,
AFNE01.JPG,AFNE01.JPG,AFNE01.JPG,AFNE01.JPG,AFNE01.JPG,AFNE01.JPG,0,6,6,5,,,,,,,,,,,,,,,,,,,,,,,AFNE11.jpg,AFSA19.jpg,AFNE07.jpg,AFSA18.jpg,AFNE11.jpg,FN,3,num_8,32,num_4,0.833492206351,,,2017_Sep_21_1456,60.0056968753,FEMA4ImagesEEG,001,201556,
AFNE01.JPG,AFNE01.JPG,AFNE01.JPG,AFNE01.JPG,AFNE01.JPG,AFNE01.JPG,0,7,7,6,,,,,,,,,,,,,,,,,,,,,,,AFNE12.jpg,AFSA01.jpg,AFSA10.jpg,AFNE05.jpg,AFSA01.jpg,FS,4,num_6,32,num_4,0.966704022139,,,2017_Sep_21_1456,60.0056968753,FEMA4ImagesEEG,001,201556,
AFNE01.JPG,AFNE01.JPG,AFNE01.JPG,AFNE01.JPG,AFNE01.JPG,AFNE01.JPG,0,8,8,2,,,,,,,,,,,,,,,,,,,,,,,AFSA19.jpg,AFNE12.jpg,AFNE07.jpg,AFSA14.jpg,AFSA19.jpg,FS,4,num_8,32,num_4,0.800166399713,,,2017_Sep_21_1456,60.0056968753,FEMA4ImagesEEG,001,201556,
AFNE01.JPG,AFNE01.JPG,AFNE01.JPG,AFNE01.JPG,AFNE01.JPG,AFNE01.JPG,0,9,9,3,,,,,,,,,,,,,,,,,,,,,,,AFNE01.jpg,AFNE09.jpg,AFSA16.jpg,AFSA08.jpg,AFSA16.jpg,FS,4,num_2,16,num_2,0.783525787774,,,2017_Sep_21_1456,60.0056968753,FEMA4ImagesEEG,001,201556,
AFNE01.JPG,AFNE01.JPG,AFNE01.JPG,AFNE01.JPG,AFNE01.JPG,AFNE01.JPG,1,0,10,1,,,,,,,,,,,,,,,,,,,,,,,AFSA19.jpg,AFNE03.jpg,AFNE07.jpg,AFSA07.jpg,AFNE07.jpg,FN,3,num_2,32,num_8,1.0167336264,,,2017_Sep_21_1456,60.0056968753,FEMA4ImagesEEG,001,201556,
AFNE01.JPG,AFNE01.JPG,AFNE01.JPG,AFNE01.JPG,AFNE01.JPG,AFNE01.JPG,1,1,11,3,,,,,,,,,,,,,,,,,,,,,,,AFSA08.jpg,AFNE14.jpg,AFSA19.jpg,AFNE16.jpg,AFSA19.jpg,FS,4,num_2,16,num_2,1.03344608399,,,2017_Sep_21_1456,60.0056968753,FEMA4ImagesEEG,001,201556,
AFNE01.JPG,AFNE01.JPG,AFNE01.JPG,AFNE01.JPG,AFNE01.JPG,AFNE01.JPG,1,2,12,6,,,,,,,,,,,,,,,,,,,,,,,AFSA05.jpg,AFNE16.jpg,AFNE15.jpg,AFSA16.jpg,AFNE15.jpg,FN,3,num_2,32,num_4,1.03387074322,,,2017_Sep_21_1456,60.0056968753,FEMA4ImagesEEG,001,201556,
AFNE01.JPG,AFNE01.JPG,AFNE01.JPG,AFNE01.JPG,AFNE01.JPG,AFNE01.JPG,1,3,13,9,,,,,,,,,,,,,,,,,,,,,,,AFSA09.jpg,AFNE20.jpg,AFNE03.jpg,AFSA10.jpg,AFNE03.jpg,FN,3,num_2,32,num_6,1.25004923352,,,2017_Sep_21_1456,60.0056968753,FEMA4ImagesEEG,001,201556,
AFNE01.JPG,AFNE01.JPG,AFNE01.JPG,AFNE01.JPG,AFNE01.JPG,AFNE01.JPG,1,4,14,0,,,,,,,,,,,,,,,,,,,,,,,AFNE09.jpg,AFNE02.jpg,AFSA20.jpg,AFSA14.jpg,AFNE09.jpg,FN,3,num_8,32,num_4,0.700155943588,,,2017_Sep_21_1456,60.0056968753,FEMA4ImagesEEG,001,201556,
AFNE01.JPG,AFNE01.JPG,AFNE01.JPG,AFNE01.JPG,AFNE01.JPG,AFNE01.JPG,1,5,15,7,,,,,,,,,,,,,,,,,,,,,,,AFSA01.jpg,AFSA02.jpg,AFNE06.jpg,AFNE17.jpg,AFNE06.jpg,FN,3,num_2,32,num_8,0.650154564413,,,2017_Sep_21_1456,60.0056968753,FEMA4ImagesEEG,001,201556,
AFNE01.JPG,AFNE01.JPG,AFNE01.JPG,AFNE01.JPG,AFNE01.JPG,AFNE01.JPG,1,6,16,8,,,,,,,,,,,,,,,,,,,,,,,AFNE06.jpg,AFNE13.jpg,AFSA02.jpg,AFSA13.jpg,AFSA02.jpg,FS,4,num_2,32,num_4,0.916521745821,,,2017_Sep_21_1456,60.0056968753,FEMA4ImagesEEG,001,201556,
AFNE01.JPG,AFNE01.JPG,AFNE01.JPG,AFNE01.JPG,AFNE01.JPG,AFNE01.JPG,1,7,17,2,,,,,,,,,,,,,,,,,,,,,,,AFSA05.jpg,AFNE15.jpg,AFNE14.jpg,AFSA01.jpg,AFNE14.jpg,FN,3,num_2,32,num_6,0.966801526985,,,2017_Sep_21_1456,60.0056968753,FEMA4ImagesEEG,001,201556,
AFNE01.JPG,AFNE01.JPG,AFNE01.JPG,AFNE01.JPG,AFNE01.JPG,AFNE01.JPG,1,8,18,5,,,,,,,,,,,,,,,,,,,,,,,AFSA14.jpg,AFNE13.jpg,AFNE04.jpg,AFSA17.jpg,AFNE04.jpg,FN,3,num_2,16,num_2,0.816814388629,,,2017_Sep_21_1456,60.0056968753,FEMA4ImagesEEG,001,201556,
AFNE01.JPG,AFNE01.JPG,AFNE01.JPG,AFNE01.JPG,AFNE01.JPG,AFNE01.JPG,1,9,19,4,,,,,,,,,,,,,,,,,,,,,,,AFSA07.jpg,AFNE16.jpg,AFSA14.jpg,AFNE09.jpg,AFSA14.jpg,FS,4,num_2,16,num_2,0.816783918373,,,2017_Sep_21_1456,60.0056968753,FEMA4ImagesEEG,001,201556,
AFNE01.JPG,AFNE01.JPG,AFNE01.JPG,AFNE01.JPG,AFNE01.JPG,AFNE01.JPG,2,0,20,0,,,,,,,,,,,,,,,,,,,,,,,AFNE01.jpg,AFNE10.jpg,AFSA08.jpg,AFSA12.jpg,AFSA08.jpg,FS,4,num_2,32,num_4,0.73352793674,,,2017_Sep_21_1456,60.0056968753,FEMA4ImagesEEG,001,201556,
AFNE01.JPG,AFNE01.JPG,AFNE01.JPG,AFNE01.JPG,AFNE01.JPG,AFNE01.JPG,2,1,21,7,,,,,,,,,,,,,,,,,,,,,,,AFSA02.jpg,AFSA13.jpg,AFNE05.jpg,AFNE10.jpg,AFNE05.jpg,FN,3,num_2,16,num_2,0.750082269718,,,2017_Sep_21_1456,60.0056968753,FEMA4ImagesEEG,001,201556,
AFNE01.JPG,AFNE01.JPG,AFNE01.JPG,AFNE01.JPG,AFNE01.JPG,AFNE01.JPG,2,2,22,2,,,,,,,,,,,,,,,,,,,,,,,AFNE19.jpg,AFNE20.jpg,AFSA15.jpg,AFSA11.jpg,AFNE20.jpg,FN,3,num_6,16,num_6,1.28343084887,,,2017_Sep_21_1456,60.0056968753,FEMA4ImagesEEG,001,201556,
AFNE01.JPG,AFNE01.JPG,AFNE01.JPG,AFNE01.JPG,AFNE01.JPG,AFNE01.JPG,2,3,23,9,,,,,,,,,,,,,,,,,,,,,,,AFSA07.jpg,AFNE13.jpg,AFSA04.jpg,AFNE15.jpg,AFSA04.jpg,FS,4,num_2,32,num_6,0.933431458267,,,2017_Sep_21_1456,60.0056968753,FEMA4ImagesEEG,001,201556,
AFNE01.JPG,AFNE01.JPG,AFNE01.JPG,AFNE01.JPG,AFNE01.JPG,AFNE01.JPG,2,4,24,5,,,,,,,,,,,,,,,,,,,,,,,AFSA08.jpg,AFNE16.jpg,AFNE13.jpg,AFSA02.jpg,AFSA02.jpg,FS,4,num_4,32,num_8,1.08342661511,,,2017_Sep_21_1456,60.0056968753,FEMA4ImagesEEG,001,201556,
AFNE01.JPG,AFNE01.JPG,AFNE01.JPG,AFNE01.JPG,AFNE01.JPG,AFNE01.JPG,2,5,25,1,,,,,,,,,,,,,,,,,,,,,,,AFSA14.jpg,AFNE15.jpg,AFSA03.jpg,AFNE12.jpg,AFNE12.jpg,FN,3,num_4,32,num_6,1.0166906473,,,2017_Sep_21_1456,60.0056968753,FEMA4ImagesEEG,001,201556,
AFNE01.JPG,AFNE01.JPG,AFNE01.JPG,AFNE01.JPG,AFNE01.JPG,AFNE01.JPG,2,6,26,6,,,,,,,,,,,,,,,,,,,,,,,AFNE18.jpg,AFNE07.jpg,AFSA05.jpg,AFSA16.jpg,AFSA05.jpg,FS,4,num_2,32,num_6,1.56673115671,,,2017_Sep_21_1456,60.0056968753,FEMA4ImagesEEG,001,201556,
AFNE01.JPG,AFNE01.JPG,AFNE01.JPG,AFNE01.JPG,AFNE01.JPG,AFNE01.JPG,2,7,27,3,,,,,,,,,,,,,,,,,,,,,,,AFSA01.jpg,AFNE17.jpg,AFSA13.jpg,AFNE20.jpg,AFSA01.jpg,FS,4,num_8,16,num_8,0.649851144743,,,2017_Sep_21_1456,60.0056968753,FEMA4ImagesEEG,001,201556,
AFNE01.JPG,AFNE01.JPG,AFNE01.JPG,AFNE01.JPG,AFNE01.JPG,AFNE01.JPG,2,8,28,8,,,,,,,,,,,,,,,,,,,,,,,AFNE02.jpg,AFSA19.jpg,AFNE20.jpg,AFSA20.jpg,AFNE20.jpg,FN,3,num_2,16,num_2,0.900141253718,,,2017_Sep_21_1456,60.0056968753,FEMA4ImagesEEG,001,201556,
AFNE01.JPG,AFNE01.JPG,AFNE01.JPG,AFNE01.JPG,AFNE01.JPG,AFNE01.JPG,2,9,29,4,,,,,,,,,,,,,,,,,,,,,,,AFNE14.jpg,AFSA20.jpg,AFNE17.jpg,AFSA03.jpg,AFNE17.jpg,FN,3,num_2,32,num_8,0.683474918478,,,2017_Sep_21_1456,60.0056968753,FEMA4ImagesEEG,001,201556,
AFNE01.JPG,AFNE01.JPG,AFNE01.JPG,AFNE01.JPG,AFNE01.JPG,AFNE01.JPG,3,0,30,7,,,,,,,,,,,,,,,,,,,,,,,AFSA05.jpg,AFNE16.jpg,AFNE01.jpg,AFSA16.jpg,AFNE16.jpg,FN,3,num_6,32,num_2,0.716784367411,,,2017_Sep_21_1456,60.0056968753,FEMA4ImagesEEG,001,201556,
AFNE01.JPG,AFNE01.JPG,AFNE01.JPG,AFNE01.JPG,AFNE01.JPG,AFNE01.JPG,3,1,31,2,,,,,,,,,,,,,,,,,,,,,,,AFNE12.jpg,AFSA07.jpg,AFNE05.jpg,AFSA18.jpg,AFNE12.jpg,FN,3,num_8,16,num_8,1.45012210555,,,2017_Sep_21_1456,60.0056968753,FEMA4ImagesEEG,001,201556,
AFNE01.JPG,AFNE01.JPG,AFNE01.JPG,AFNE01.JPG,AFNE01.JPG,AFNE01.JPG,3,2,32,8,,,,,,,,,,,,,,,,,,,,,,,AFNE17.jpg,AFSA16.jpg,AFNE11.jpg,AFSA05.jpg,AFNE17.jpg,FN,3,num_8,32,num_4,1.16675925349,,,2017_Sep_21_1456,60.0056968753,FEMA4ImagesEEG,001,201556,
AFNE01.JPG,AFNE01.JPG,AFNE01.JPG,AFNE01.JPG,AFNE01.JPG,AFNE01.JPG,3,3,33,3,,,,,,,,,,,,,,,,,,,,,,,AFSA05.jpg,AFNE15.jpg,AFSA20.jpg,AFNE02.jpg,AFSA20.jpg,FS,4,num_2,32,num_4,1.08346670755,,,2017_Sep_21_1456,60.0056968753,FEMA4ImagesEEG,001,201556,
AFNE01.JPG,AFNE01.JPG,AFNE01.JPG,AFNE01.JPG,AFNE01.JPG,AFNE01.JPG,3,4,34,1,,,,,,,,,,,,,,,,,,,,,,,AFSA13.jpg,AFSA15.jpg,AFNE12.jpg,AFNE06.jpg,AFSA15.jpg,FS,4,num_6,16,num_6,1.03343934847,,,2017_Sep_21_1456,60.0056968753,FEMA4ImagesEEG,001,201556,
AFNE01.JPG,AFNE01.JPG,AFNE01.JPG,AFNE01.JPG,AFNE01.JPG,AFNE01.JPG,3,5,35,4,,,,,,,,,,,,,,,,,,,,,,,AFSA02.jpg,AFNE14.jpg,AFNE06.jpg,AFSA05.jpg,AFSA05.jpg,FS,4,num_4,32,num_8,0.583476650485,,,2017_Sep_21_1456,60.0056968753,FEMA4ImagesEEG,001,201556,
AFNE01.JPG,AFNE01.JPG,AFNE01.JPG,AFNE01.JPG,AFNE01.JPG,AFNE01.JPG,3,6,36,0,,,,,,,,,,,,,,,,,,,,,,,AFNE11.jpg,AFNE06.jpg,AFSA08.jpg,AFSA20.jpg,AFNE06.jpg,FN,3,num_6,32,num_4,1.00013022027,,,2017_Sep_21_1456,60.0056968753,FEMA4ImagesEEG,001,201556,
AFNE01.JPG,AFNE01.JPG,AFNE01.JPG,AFNE01.JPG,AFNE01.JPG,AFNE01.JPG,3,7,37,9,,,,,,,,,,,,,,,,,,,,,,,AFSA05.jpg,AFSA06.jpg,AFNE11.jpg,AFNE09.jpg,AFSA06.jpg,FS,4,num_6,32,num_2,1.01672336273,,,2017_Sep_21_1456,60.0056968753,FEMA4ImagesEEG,001,201556,
AFNE01.JPG,AFNE01.JPG,AFNE01.JPG,AFNE01.JPG,AFNE01.JPG,AFNE01.JPG,3,8,38,6,,,,,,,,,,,,,,,,,,,,,,,AFNE12.jpg,AFSA16.jpg,AFSA02.jpg,AFNE10.jpg,AFNE10.jpg,FN,3,num_4,32,num_8,0.850089839165,,,2017_Sep_21_1456,60.0056968753,FEMA4ImagesEEG,001,201556,
AFNE01.JPG,AFNE01.JPG,AFNE01.JPG,AFNE01.JPG,AFNE01.JPG,AFNE01.JPG,3,9,39,5,,,,,,,,,,,,,,,,,,,,,,,AFNE13.jpg,AFSA11.jpg,AFSA01.jpg,AFNE11.jpg,AFNE13.jpg,FN,3,num_8,16,num_8,1.08340255964,,,2017_Sep_21_1456,60.0056968753,FEMA4ImagesEEG,001,201556,
AFNE01.JPG,AFNE01.JPG,AFNE01.JPG,AFNE01.JPG,AFNE01.JPG,AFNE01.JPG,4,0,40,9,,,,,,,,,,,,,,,,,,,,,,,AFSA12.jpg,AFNE14.jpg,AFNE17.jpg,AFSA06.jpg,AFNE14.jpg,FN,3,num_6,16,num_6,0.700112002276,,,2017_Sep_21_1456,60.0056968753,FEMA4ImagesEEG,001,201556,
AFNE01.JPG,AFNE01.JPG,AFNE01.JPG,AFNE01.JPG,AFNE01.JPG,AFNE01.JPG,4,1,41,7,,,,,,,,,,,,,,,,,,,,,,,AFSA19.jpg,AFNE20.jpg,AFSA09.jpg,AFNE19.jpg,AFSA09.jpg,FS,4,num_2,32,num_8,0.916794374483,,,2017_Sep_21_1456,60.0056968753,FEMA4ImagesEEG,001,201556,
AFNE01.JPG,AFNE01.JPG,AFNE01.JPG,AFNE01.JPG,AFNE01.JPG,AFNE01.JPG,4,2,42,5,,,,,,,,,,,,,,,,,,,,,,,AFSA07.jpg,AFNE01.jpg,AFNE10.jpg,AFSA15.jpg,AFNE10.jpg,FN,3,num_2,32,num_8,0.94999348899,,,2017_Sep_21_1456,60.0056968753,FEMA4ImagesEEG,001,201556,
AFNE01.JPG,AFNE01.JPG,AFNE01.JPG,AFNE01.JPG,AFNE01.JPG,AFNE01.JPG,4,3,43,0,,,,,,,,,,,,,,,,,,,,,,,AFNE13.jpg,AFSA10.jpg,AFSA07.jpg,AFNE17.jpg,AFNE13.jpg,FN,3,num_8,32,num_4,0.683458560772,,,2017_Sep_21_1456,60.0056968753,FEMA4ImagesEEG,001,201556,
AFNE01.JPG,AFNE01.JPG,AFNE01.JPG,AFNE01.JPG,AFNE01.JPG,AFNE01.JPG,4,4,44,4,,,,,,,,,,,,,,,,,,,,,,,AFSA12.jpg,AFSA11.jpg,AFNE18.jpg,AFNE05.jpg,AFSA11.jpg,FS,4,num_6,16,num_6,0.833476810847,,,2017_Sep_21_1456,60.0056968753,FEMA4ImagesEEG,001,201556,
AFNE01.JPG,AFNE01.JPG,AFNE01.JPG,AFNE01.JPG,AFNE01.JPG,AFNE01.JPG,4,5,45,8,,,,,,,,,,,,,,,,,,,,,,,AFSA17.jpg,AFSA01.jpg,AFNE15.jpg,AFNE04.jpg,AFNE15.jpg,FN,3,num_2,16,num_2,0.716771537831,,,2017_Sep_21_1456,60.0056968753,FEMA4ImagesEEG,001,201556,
AFNE01.JPG,AFNE01.JPG,AFNE01.JPG,AFNE01.JPG,AFNE01.JPG,AFNE01.JPG,4,6,46,3,,,,,,,,,,,,,,,,,,,,,,,AFNE01.jpg,AFNE15.jpg,AFSA02.jpg,AFSA14.jpg,AFNE01.jpg,FN,3,num_8,16,num_8,0.650177657662,,,2017_Sep_21_1456,60.0056968753,FEMA4ImagesEEG,001,201556,
AFNE01.JPG,AFNE01.JPG,AFNE01.JPG,AFNE01.JPG,AFNE01.JPG,AFNE01.JPG,4,7,47,6,,,,,,,,,,,,,,,,,,,,,,,AFNE12.jpg,AFSA04.jpg,AFSA02.jpg,AFNE19.jpg,AFNE19.jpg,FN,3,num_4,16,num_4,0.766786388063,,,2017_Sep_21_1456,60.0056968753,FEMA4ImagesEEG,001,201556,
AFNE01.JPG,AFNE01.JPG,AFNE01.JPG,AFNE01.JPG,AFNE01.JPG,AFNE01.JPG,4,8,48,2,,,,,,,,,,,,,,,,,,,,,,,AFNE04.jpg,AFSA03.jpg,AFSA09.jpg,AFNE16.jpg,AFSA09.jpg,FS,4,num_2,32,num_6,0.833436076922,,,2017_Sep_21_1456,60.0056968753,FEMA4ImagesEEG,001,201556,
AFNE01.JPG,AFNE01.JPG,AFNE01.JPG,AFNE01.JPG,AFNE01.JPG,AFNE01.JPG,4,9,49,1,,,,,,,,,,,,,,,,,,,,,,,AFNE05.jpg,AFSA18.jpg,AFNE15.jpg,AFSA01.jpg,AFSA01.jpg,FS,4,num_4,16,num_4,0.933476682549,,,2017_Sep_21_1456,60.0056968753,FEMA4ImagesEEG,001,201556,
AFNE01.JPG,AFNE01.JPG,AFNE01.JPG,AFNE01.JPG,AFNE01.JPG,AFNE01.JPG,5,0,50,8,,,,,,,,,,,,,,,,,,,,,,,AFNE19.jpg,AFNE20.jpg,AFSA13.jpg,AFSA05.jpg,AFNE20.jpg,FN,3,num_6,32,num_2,0.766795368778,,,2017_Sep_21_1456,60.0056968753,FEMA4ImagesEEG,001,201556,
AFNE01.JPG,AFNE01.JPG,AFNE01.JPG,AFNE01.JPG,AFNE01.JPG,AFNE01.JPG,5,1,51,5,,,,,,,,,,,,,,,,,,,,,,,AFNE15.jpg,AFSA08.jpg,AFSA18.jpg,AFNE06.jpg,AFNE06.jpg,FN,3,num_4,32,num_8,0.716803932519,,,2017_Sep_21_1456,60.0056968753,FEMA4ImagesEEG,001,201556,
AFNE01.JPG,AFNE01.JPG,AFNE01.JPG,AFNE01.JPG,AFNE01.JPG,AFNE01.JPG,5,2,52,2,,,,,,,,,,,,,,,,,,,,,,,AFNE06.jpg,AFSA17.jpg,AFNE01.jpg,AFSA06.jpg,AFNE06.jpg,FN,3,num_8,16,num_8,0.583498140026,,,2017_Sep_21_1456,60.0056968753,FEMA4ImagesEEG,001,201556,
AFNE01.JPG,AFNE01.JPG,AFNE01.JPG,AFNE01.JPG,AFNE01.JPG,AFNE01.JPG,5,3,53,6,,,,,,,,,,,,,,,,,,,,,,,AFNE07.jpg,AFSA15.jpg,AFSA06.jpg,AFNE16.jpg,AFNE16.jpg,FN,3,num_4,16,num_4,0.617069312459,,,2017_Sep_21_1456,60.0056968753,FEMA4ImagesEEG,001,201556,
AFNE01.JPG,AFNE01.JPG,AFNE01.JPG,AFNE01.JPG,AFNE01.JPG,AFNE01.JPG,5,4,54,4,,,,,,,,,,,,,,,,,,,,,,,AFNE03.jpg,AFSA10.jpg,AFSA20.jpg,AFNE04.jpg,AFNE04.jpg,FN,3,num_4,32,num_2,0.733458977731,,,2017_Sep_21_1456,60.0056968753,FEMA4ImagesEEG,001,201556,
AFNE01.JPG,AFNE01.JPG,AFNE01.JPG,AFNE01.JPG,AFNE01.JPG,AFNE01.JPG,5,5,55,0,,,,,,,,,,,,,,,,,,,,,,,AFNE02.jpg,AFSA02.jpg,AFSA09.jpg,AFNE17.jpg,AFNE17.jpg,FN,3,num_4,32,num_8,0.783458432459,,,2017_Sep_21_1456,60.0056968753,FEMA4ImagesEEG,001,201556,
AFNE01.JPG,AFNE01.JPG,AFNE01.JPG,AFNE01.JPG,AFNE01.JPG,AFNE01.JPG,5,6,56,7,,,,,,,,,,,,,,,,,,,,,,,AFNE13.jpg,AFNE01.jpg,AFSA03.jpg,AFSA10.jpg,AFNE01.jpg,FN,3,num_6,32,num_8,0.883446436812,,,2017_Sep_21_1456,60.0056968753,FEMA4ImagesEEG,001,201556,
AFNE01.JPG,AFNE01.JPG,AFNE01.JPG,AFNE01.JPG,AFNE01.JPG,AFNE01.JPG,5,7,57,1,,,,,,,,,,,,,,,,,,,,,,,AFSA10.jpg,AFSA15.jpg,AFNE12.jpg,AFNE20.jpg,AFSA10.jpg,FS,4,num_8,16,num_8,0.616785457925,,,2017_Sep_21_1456,60.0056968753,FEMA4ImagesEEG,001,201556,
AFNE01.JPG,AFNE01.JPG,AFNE01.JPG,AFNE01.JPG,AFNE01.JPG,AFNE01.JPG,5,8,58,9,,,,,,,,,,,,,,,,,,,,,,,AFSA15.jpg,AFSA10.jpg,AFNE04.jpg,AFNE01.jpg,AFSA10.jpg,FS,4,num_6,32,num_2,0.716763198594,,,2017_Sep_21_1456,60.0056968753,FEMA4ImagesEEG,001,201556,
AFNE01.JPG,AFNE01.JPG,AFNE01.JPG,AFNE01.JPG,AFNE01.JPG,AFNE01.JPG,5,9,59,3,,,,,,,,,,,,,,,,,,,,,,,AFSA19.jpg,AFNE06.jpg,AFSA17.jpg,AFNE13.jpg,AFSA19.jpg,FS,4,num_8,32,num_2,0.966732247223,,,2017_Sep_21_1456,60.0056968753,FEMA4ImagesEEG,001,201556,
,,,,,,,,,,,,,,,,,,,,,,,,,,,,,,,,,,,,,,,,,,,space,8.69950452147,2017_Sep_21_1456,60.0056968753,FEMA4ImagesEEG,001,201556,
AFNE01.JPG,AFNE01.JPG,AFNE01.JPG,AFNE01.JPG,AFNE01.JPG,AFNE01.JPG,,,,,0,0,0,3,,,,,,,,,,,,,,,,,,,AMNE10.jpg,AMSA10.jpg,AMSA14.jpg,AMNE03.jpg,AMSA14.jpg,MS,2,num_2,16,num_2,0.666823722146,,,2017_Sep_21_1456,60.0056968753,FEMA4ImagesEEG,001,201556,
AFNE01.JPG,AFNE01.JPG,AFNE01.JPG,AFNE01.JPG,AFNE01.JPG,AFNE01.JPG,,,,,0,1,1,7,,,,,,,,,,,,,,,,,,,AMSA05.jpg,AMNE07.jpg,AMSA10.jpg,AMNE03.jpg,AMNE07.jpg,MN,1,num_6,32,num_4,1.18346369259,,,2017_Sep_21_1456,60.0056968753,FEMA4ImagesEEG,001,201556,
AFNE01.JPG,AFNE01.JPG,AFNE01.JPG,AFNE01.JPG,AFNE01.JPG,AFNE01.JPG,,,,,0,2,2,6,,,,,,,,,,,,,,,,,,,AMNE09.jpg,AMNE13.jpg,AMSA12.jpg,AMSA06.jpg,AMNE13.jpg,MN,1,num_6,32,num_8,1.03344704621,,,2017_Sep_21_1456,60.0056968753,FEMA4ImagesEEG,001,201556,
AFNE01.JPG,AFNE01.JPG,AFNE01.JPG,AFNE01.JPG,AFNE01.JPG,AFNE01.JPG,,,,,0,3,3,2,,,,,,,,,,,,,,,,,,,AMSA07.jpg,AMSA01.jpg,AMNE17.jpg,AMNE04.jpg,AMNE17.jpg,MN,1,num_2,16,num_2,1.76673923935,,,2017_Sep_21_1456,60.0056968753,FEMA4ImagesEEG,001,201556,
AFNE01.JPG,AFNE01.JPG,AFNE01.JPG,AFNE01.JPG,AFNE01.JPG,AFNE01.JPG,,,,,0,4,4,9,,,,,,,,,,,,,,,,,,,AMSA13.jpg,AMNE15.jpg,AMSA12.jpg,AMNE20.jpg,AMNE20.jpg,MN,1,num_4,32,num_8,1.23344165779,,,2017_Sep_21_1456,60.0056968753,FEMA4ImagesEEG,001,201556,
AFNE01.JPG,AFNE01.JPG,AFNE01.JPG,AFNE01.JPG,AFNE01.JPG,AFNE01.JPG,,,,,0,5,5,8,,,,,,,,,,,,,,,,,,,AMSA10.jpg,AMNE06.jpg,AMSA20.jpg,AMNE02.jpg,AMSA10.jpg,MS,2,num_8,32,num_6,0.95015482101,,,2017_Sep_21_1456,60.0056968753,FEMA4ImagesEEG,001,201556,
AFNE01.JPG,AFNE01.JPG,AFNE01.JPG,AFNE01.JPG,AFNE01.JPG,AFNE01.JPG,,,,,0,6,6,4,,,,,,,,,,,,,,,,,,,AMNE07.jpg,AMNE10.jpg,AMSA16.jpg,AMSA17.jpg,AMSA16.jpg,MS,2,num_2,16,num_2,0.750142248013,,,2017_Sep_21_1456,60.0056968753,FEMA4ImagesEEG,001,201556,
AFNE01.JPG,AFNE01.JPG,AFNE01.JPG,AFNE01.JPG,AFNE01.JPG,AFNE01.JPG,,,,,0,7,7,5,,,,,,,,,,,,,,,,,,,AMNE02.jpg,AMNE01.jpg,AMSA13.jpg,AMSA02.jpg,AMSA13.jpg,MS,2,num_2,16,num_2,0.683465617039,,,2017_Sep_21_1456,60.0056968753,FEMA4ImagesEEG,001,201556,
AFNE01.JPG,AFNE01.JPG,AFNE01.JPG,AFNE01.JPG,AFNE01.JPG,AFNE01.JPG,,,,,0,8,8,0,,,,,,,,,,,,,,,,,,,AMNE06.jpg,AMSA15.jpg,AMNE04.jpg,AMSA01.jpg,AMNE06.jpg,MN,1,num_8,32,num_2,0.983321220076,,,2017_Sep_21_1456,60.0056968753,FEMA4ImagesEEG,001,201556,
AFNE01.JPG,AFNE01.JPG,AFNE01.JPG,AFNE01.JPG,AFNE01.JPG,AFNE01.JPG,,,,,0,9,9,1,,,,,,,,,,,,,,,,,,,AMSA01.jpg,AMNE10.jpg,AMNE17.jpg,AMSA07.jpg,AMNE17.jpg,MN,1,num_2,16,num_2,0.666676823414,,,2017_Sep_21_1456,60.0056968753,FEMA4ImagesEEG,001,201556,
AFNE01.JPG,AFNE01.JPG,AFNE01.JPG,AFNE01.JPG,AFNE01.JPG,AFNE01.JPG,,,,,1,0,10,3,,,,,,,,,,,,,,,,,,,AMSA07.jpg,AMSA11.jpg,AMNE02.jpg,AMNE18.jpg,AMSA07.jpg,MS,2,num_8,16,num_8,0.683473635523,,,2017_Sep_21_1456,60.0056968753,FEMA4ImagesEEG,001,201556,
AFNE01.JPG,AFNE01.JPG,AFNE01.JPG,AFNE01.JPG,AFNE01.JPG,AFNE01.JPG,,,,,1,1,11,8,,,,,,,,,,,,,,,,,,,AMNE16.jpg,AMNE03.jpg,AMSA10.jpg,AMSA12.jpg,AMSA10.jpg,MS,2,num_2,16,num_2,0.833446661316,,,2017_Sep_21_1456,60.0056968753,FEMA4ImagesEEG,001,201556,
AFNE01.JPG,AFNE01.JPG,AFNE01.JPG,AFNE01.JPG,AFNE01.JPG,AFNE01.JPG,,,,,1,2,12,9,,,,,,,,,,,,,,,,,,,AMNE19.jpg,AMNE07.jpg,AMSA04.jpg,AMSA15.jpg,AMNE19.jpg,MN,1,num_8,16,num_8,0.733483033197,,,2017_Sep_21_1456,60.0056968753,FEMA4ImagesEEG,001,201556,
AFNE01.JPG,AFNE01.JPG,AFNE01.JPG,AFNE01.JPG,AFNE01.JPG,AFNE01.JPG,,,,,1,3,13,2,,,,,,,,,,,,,,,,,,,AMSA02.jpg,AMSA11.jpg,AMNE19.jpg,AMNE17.jpg,AMNE17.jpg,MN,1,num_4,16,num_4,1.01677724699,,,2017_Sep_21_1456,60.0056968753,FEMA4ImagesEEG,001,201556,
AFNE01.JPG,AFNE01.JPG,AFNE01.JPG,AFNE01.JPG,AFNE01.JPG,AFNE01.JPG,,,,,1,4,14,7,,,,,,,,,,,,,,,,,,,AMSA08.jpg,AMSA16.jpg,AMNE03.jpg,AMNE09.jpg,AMSA08.jpg,MS,2,num_8,16,num_8,0.783500449354,,,2017_Sep_21_1456,60.0056968753,FEMA4ImagesEEG,001,201556,
AFNE01.JPG,AFNE01.JPG,AFNE01.JPG,AFNE01.JPG,AFNE01.JPG,AFNE01.JPG,,,,,1,5,15,5,,,,,,,,,,,,,,,,,,,AMSA13.jpg,AMSA02.jpg,AMNE08.jpg,AMNE04.jpg,AMNE04.jpg,MN,1,num_4,32,num_6,1.06677990913,,,2017_Sep_21_1456,60.0056968753,FEMA4ImagesEEG,001,201556,
AFNE01.JPG,AFNE01.JPG,AFNE01.JPG,AFNE01.JPG,AFNE01.JPG,AFNE01.JPG,,,,,1,6,16,0,,,,,,,,,,,,,,,,,,,AMSA20.jpg,AMNE02.jpg,AMSA14.jpg,AMNE06.jpg,AMNE02.jpg,MN,1,num_6,16,num_6,1.11683068221,,,2017_Sep_21_1456,60.0056968753,FEMA4ImagesEEG,001,201556,
AFNE01.JPG,AFNE01.JPG,AFNE01.JPG,AFNE01.JPG,AFNE01.JPG,AFNE01.JPG,,,,,1,7,17,6,,,,,,,,,,,,,,,,,,,AMSA12.jpg,AMNE06.jpg,AMSA10.jpg,AMNE19.jpg,AMSA10.jpg,MS,2,num_2,16,num_2,0.983443742589,,,2017_Sep_21_1456,60.0056968753,FEMA4ImagesEEG,001,201556,
AFNE01.JPG,AFNE01.JPG,AFNE01.JPG,AFNE01.JPG,AFNE01.JPG,AFNE01.JPG,,,,,1,8,18,4,,,,,,,,,,,,,,,,,,,AMNE13.jpg,AMSA06.jpg,AMNE09.jpg,AMSA14.jpg,AMSA14.jpg,MS,2,num_4,16,num_4,1.18345182523,,,2017_Sep_21_1456,60.0056968753,FEMA4ImagesEEG,001,201556,
AFNE01.JPG,AFNE01.JPG,AFNE01.JPG,AFNE01.JPG,AFNE01.JPG,AFNE01.JPG,,,,,1,9,19,1,,,,,,,,,,,,,,,,,,,AMNE15.jpg,AMSA13.jpg,AMNE16.jpg,AMSA03.jpg,AMNE16.jpg,MN,1,num_2,16,num_2,0.7167615949,,,2017_Sep_21_1456,60.0056968753,FEMA4ImagesEEG,001,201556,
AFNE01.JPG,AFNE01.JPG,AFNE01.JPG,AFNE01.JPG,AFNE01.JPG,AFNE01.JPG,,,,,2,0,20,0,,,,,,,,,,,,,,,,,,,AMNE09.jpg,AMNE17.jpg,AMSA16.jpg,AMSA19.jpg,AMSA19.jpg,MS,2,num_4,16,num_4,1.05008926183,,,2017_Sep_21_1456,60.0056968753,FEMA4ImagesEEG,001,201556,
AFNE01.JPG,AFNE01.JPG,AFNE01.JPG,AFNE01.JPG,AFNE01.JPG,AFNE01.JPG,,,,,2,1,21,1,,,,,,,,,,,,,,,,,,,AMNE07.jpg,AMSA13.jpg,AMSA15.jpg,AMNE04.jpg,AMNE07.jpg,MN,1,num_8,16,num_8,0.733469562125,,,2017_Sep_21_1456,60.0056968753,FEMA4ImagesEEG,001,201556,
AFNE01.JPG,AFNE01.JPG,AFNE01.JPG,AFNE01.JPG,AFNE01.JPG,AFNE01.JPG,,,,,2,2,22,3,,,,,,,,,,,,,,,,,,,AMNE07.jpg,AMNE04.jpg,AMSA19.jpg,AMSA12.jpg,AMNE04.jpg,MN,1,num_6,16,num_6,0.850113573892,,,2017_Sep_21_1456,60.0056968753,FEMA4ImagesEEG,001,201556,
AFNE01.JPG,AFNE01.JPG,AFNE01.JPG,AFNE01.JPG,AFNE01.JPG,AFNE01.JPG,,,,,2,3,23,5,,,,,,,,,,,,,,,,,,,AMNE17.jpg,AMSA07.jpg,AMNE16.jpg,AMSA08.jpg,AMSA07.jpg,MS,2,num_6,16,num_6,0.833502149282,,,2017_Sep_21_1456,60.0056968753,FEMA4ImagesEEG,001,201556,
AFNE01.JPG,AFNE01.JPG,AFNE01.JPG,AFNE01.JPG,AFNE01.JPG,AFNE01.JPG,,,,,2,4,24,8,,,,,,,,,,,,,,,,,,,AMNE15.jpg,AMSA18.jpg,AMSA06.jpg,AMNE19.jpg,AMNE19.jpg,MN,1,num_4,16,num_4,0.683464013346,,,2017_Sep_21_1456,60.0056968753,FEMA4ImagesEEG,001,201556,
AFNE01.JPG,AFNE01.JPG,AFNE01.JPG,AFNE01.JPG,AFNE01.JPG,AFNE01.JPG,,,,,2,5,25,6,,,,,,,,,,,,,,,,,,,AMSA04.jpg,AMNE15.jpg,AMNE01.jpg,AMSA17.jpg,AMNE01.jpg,MN,1,num_2,16,num_2,0.700166528011,,,2017_Sep_21_1456,60.0056968753,FEMA4ImagesEEG,001,201556,
AFNE01.JPG,AFNE01.JPG,AFNE01.JPG,AFNE01.JPG,AFNE01.JPG,AFNE01.JPG,,,,,2,6,26,9,,,,,,,,,,,,,,,,,,,AMSA20.jpg,AMSA09.jpg,AMNE07.jpg,AMNE08.jpg,AMNE08.jpg,MN,1,num_4,32,num_6,1.08343912395,,,2017_Sep_21_1456,60.0056968753,FEMA4ImagesEEG,001,201556,
AFNE01.JPG,AFNE01.JPG,AFNE01.JPG,AFNE01.JPG,AFNE01.JPG,AFNE01.JPG,,,,,2,7,27,4,,,,,,,,,,,,,,,,,,,AMNE17.jpg,AMSA15.jpg,AMSA16.jpg,AMNE05.jpg,AMNE17.jpg,MN,1,num_8,32,num_2,1.15012249045,,,2017_Sep_21_1456,60.0056968753,FEMA4ImagesEEG,001,201556,
AFNE01.JPG,AFNE01.JPG,AFNE01.JPG,AFNE01.JPG,AFNE01.JPG,AFNE01.JPG,,,,,2,8,28,7,,,,,,,,,,,,,,,,,,,AMSA20.jpg,AMNE04.jpg,AMNE11.jpg,AMSA18.jpg,AMSA18.jpg,MS,2,num_4,16,num_4,1.55007675299,,,2017_Sep_21_1456,60.0056968753,FEMA4ImagesEEG,001,201556,
AFNE01.JPG,AFNE01.JPG,AFNE01.JPG,AFNE01.JPG,AFNE01.JPG,AFNE01.JPG,,,,,2,9,29,2,,,,,,,,,,,,,,,,,,,AMSA20.jpg,AMNE19.jpg,AMSA02.jpg,AMNE12.jpg,AMSA20.jpg,MS,2,num_8,16,num_8,1.00017704826,,,2017_Sep_21_1456,60.0056968753,FEMA4ImagesEEG,001,201556,
AFNE01.JPG,AFNE01.JPG,AFNE01.JPG,AFNE01.JPG,AFNE01.JPG,AFNE01.JPG,,,,,3,0,30,5,,,,,,,,,,,,,,,,,,,AMNE06.jpg,AMSA01.jpg,AMNE04.jpg,AMSA16.jpg,AMNE04.jpg,MN,1,num_2,16,num_2,0.916806241847,,,2017_Sep_21_1456,60.0056968753,FEMA4ImagesEEG,001,201556,
AFNE01.JPG,AFNE01.JPG,AFNE01.JPG,AFNE01.JPG,AFNE01.JPG,AFNE01.JPG,,,,,3,1,31,1,,,,,,,,,,,,,,,,,,,AMNE15.jpg,AMSA17.jpg,AMSA02.jpg,AMNE11.jpg,AMNE11.jpg,MN,1,num_4,32,num_8,1.11673638476,,,2017_Sep_21_1456,60.0056968753,FEMA4ImagesEEG,001,201556,
AFNE01.JPG,AFNE01.JPG,AFNE01.JPG,AFNE01.JPG,AFNE01.JPG,AFNE01.JPG,,,,,3,2,32,2,,,,,,,,,,,,,,,,,,,AMSA09.jpg,AMNE06.jpg,AMNE09.jpg,AMSA04.jpg,AMNE09.jpg,MN,1,num_2,16,num_2,0.800138816106,,,2017_Sep_21_1456,60.0056968753,FEMA4ImagesEEG,001,201556,
AFNE01.JPG,AFNE01.JPG,AFNE01.JPG,AFNE01.JPG,AFNE01.JPG,AFNE01.JPG,,,,,3,3,33,4,,,,,,,,,,,,,,,,,,,AMNE02.jpg,AMSA15.jpg,AMSA06.jpg,AMNE03.jpg,AMSA06.jpg,MS,2,num_2,16,num_2,0.766790878421,,,2017_Sep_21_1456,60.0056968753,FEMA4ImagesEEG,001,201556,
AFNE01.JPG,AFNE01.JPG,AFNE01.JPG,AFNE01.JPG,AFNE01.JPG,AFNE01.JPG,,,,,3,4,34,8,,,,,,,,,,,,,,,,,,,AMNE16.jpg,AMSA17.jpg,AMSA14.jpg,AMNE18.jpg,AMSA14.jpg,MS,2,num_2,32,num_6,0.850109083534,,,2017_Sep_21_1456,60.0056968753,FEMA4ImagesEEG,001,201556,
AFNE01.JPG,AFNE01.JPG,AFNE01.JPG,AFNE01.JPG,AFNE01.JPG,AFNE01.JPG,,,,,3,5,35,6,,,,,,,,,,,,,,,,,,,AMSA10.jpg,AMNE04.jpg,AMNE10.jpg,AMSA06.jpg,AMNE10.jpg,MN,1,num_2,16,num_2,0.666795817815,,,2017_Sep_21_1456,60.0056968753,FEMA4ImagesEEG,001,201556,
AFNE01.JPG,AFNE01.JPG,AFNE01.JPG,AFNE01.JPG,AFNE01.JPG,AFNE01.JPG,,,,,3,6,36,3,,,,,,,,,,,,,,,,,,,AMSA18.jpg,AMNE11.jpg,AMNE12.jpg,AMSA17.jpg,AMNE11.jpg,MN,1,num_6,16,num_6,0.867073000976,,,2017_Sep_21_1456,60.0056968753,FEMA4ImagesEEG,001,201556,
AFNE01.JPG,AFNE01.JPG,AFNE01.JPG,AFNE01.JPG,AFNE01.JPG,AFNE01.JPG,,,,,3,7,37,0,,,,,,,,,,,,,,,,,,,AMSA06.jpg,AMNE15.jpg,AMNE02.jpg,AMSA15.jpg,AMSA15.jpg,MS,2,num_4,16,num_4,0.766799538396,,,2017_Sep_21_1456,60.0056968753,FEMA4ImagesEEG,001,201556,
AFNE01.JPG,AFNE01.JPG,AFNE01.JPG,AFNE01.JPG,AFNE01.JPG,AFNE01.JPG,,,,,3,8,38,7,,,,,,,,,,,,,,,,,,,AMSA06.jpg,AMNE05.jpg,AMNE02.jpg,AMSA18.jpg,AMSA06.jpg,MS,2,num_8,32,num_6,0.783464205771,,,2017_Sep_21_1456,60.0056968753,FEMA4ImagesEEG,001,201556,
AFNE01.JPG,AFNE01.JPG,AFNE01.JPG,AFNE01.JPG,AFNE01.JPG,AFNE01.JPG,,,,,3,9,39,9,,,,,,,,,,,,,,,,,,,AMNE05.jpg,AMNE11.jpg,AMSA17.jpg,AMSA10.jpg,AMNE05.jpg,MN,1,num_8,32,num_2,0.800096157735,,,2017_Sep_21_1456,60.0056968753,FEMA4ImagesEEG,001,201556,
AFNE01.JPG,AFNE01.JPG,AFNE01.JPG,AFNE01.JPG,AFNE01.JPG,AFNE01.JPG,,,,,4,0,40,1,,,,,,,,,,,,,,,,,,,AMSA01.jpg,AMSA11.jpg,AMNE10.jpg,AMNE07.jpg,AMNE07.jpg,MN,1,num_4,32,num_2,0.666758612017,,,2017_Sep_21_1456,60.0056968753,FEMA4ImagesEEG,001,201556,
AFNE01.JPG,AFNE01.JPG,AFNE01.JPG,AFNE01.JPG,AFNE01.JPG,AFNE01.JPG,,,,,4,1,41,4,,,,,,,,,,,,,,,,,,,AMSA04.jpg,AMNE03.jpg,AMSA12.jpg,AMNE18.jpg,AMNE03.jpg,MN,1,num_6,16,num_6,0.783503015278,,,2017_Sep_21_1456,60.0056968753,FEMA4ImagesEEG,001,201556,
AFNE01.JPG,AFNE01.JPG,AFNE01.JPG,AFNE01.JPG,AFNE01.JPG,AFNE01.JPG,,,,,4,2,42,5,,,,,,,,,,,,,,,,,,,AMSA17.jpg,AMNE12.jpg,AMNE03.jpg,AMSA11.jpg,AMSA17.jpg,MS,2,num_8,16,num_8,0.550009718412,,,2017_Sep_21_1456,60.0056968753,FEMA4ImagesEEG,001,201556,
AFNE01.JPG,AFNE01.JPG,AFNE01.JPG,AFNE01.JPG,AFNE01.JPG,AFNE01.JPG,,,,,4,3,43,7,,,,,,,,,,,,,,,,,,,AMNE03.jpg,AMSA11.jpg,AMSA17.jpg,AMNE11.jpg,AMNE03.jpg,MN,1,num_8,32,num_4,0.816790012439,,,2017_Sep_21_1456,60.0056968753,FEMA4ImagesEEG,001,201556,
AFNE01.JPG,AFNE01.JPG,AFNE01.JPG,AFNE01.JPG,AFNE01.JPG,AFNE01.JPG,,,,,4,4,44,9,,,,,,,,,,,,,,,,,,,AMNE17.jpg,AMSA01.jpg,AMNE12.jpg,AMSA07.jpg,AMNE12.jpg,MN,1,num_2,16,num_2,0.78344816879,,,2017_Sep_21_1456,60.0056968753,FEMA4ImagesEEG,001,201556,
AFNE01.JPG,AFNE01.JPG,AFNE01.JPG,AFNE01.JPG,AFNE01.JPG,AFNE01.JPG,,,,,4,5,45,6,,,,,,,,,,,,,,,,,,,AMNE08.jpg,AMNE13.jpg,AMSA03.jpg,AMSA19.jpg,AMSA19.jpg,MS,2,num_4,32,num_8,0.900054974773,,,2017_Sep_21_1456,60.0056968753,FEMA4ImagesEEG,001,201556,
AFNE01.JPG,AFNE01.JPG,AFNE01.JPG,AFNE01.JPG,AFNE01.JPG,AFNE01.JPG,,,,,4,6,46,0,,,,,,,,,,,,,,,,,,,AMNE07.jpg,AMSA17.jpg,AMNE03.jpg,AMSA07.jpg,AMSA07.jpg,MS,2,num_4,16,num_4,1.0501409009,,,2017_Sep_21_1456,60.0056968753,FEMA4ImagesEEG,001,201556,
AFNE01.JPG,AFNE01.JPG,AFNE01.JPG,AFNE01.JPG,AFNE01.JPG,AFNE01.JPG,,,,,4,7,47,2,,,,,,,,,,,,,,,,,,,AMSA13.jpg,AMNE07.jpg,AMNE08.jpg,AMSA04.jpg,AMSA13.jpg,MS,2,num_8,16,num_8,0.950370037273,,,2017_Sep_21_1456,60.0056968753,FEMA4ImagesEEG,001,201556,
AFNE01.JPG,AFNE01.JPG,AFNE01.JPG,AFNE01.JPG,AFNE01.JPG,AFNE01.JPG,,,,,4,8,48,3,,,,,,,,,,,,,,,,,,,AMNE16.jpg,AMSA12.jpg,AMNE05.jpg,AMSA18.jpg,AMSA12.jpg,MS,2,num_6,32,num_8,0.633519405063,,,2017_Sep_21_1456,60.0056968753,FEMA4ImagesEEG,001,201556,
AFNE01.JPG,AFNE01.JPG,AFNE01.JPG,AFNE01.JPG,AFNE01.JPG,AFNE01.JPG,,,,,4,9,49,8,,,,,,,,,,,,,,,,,,,AMSA16.jpg,AMSA12.jpg,AMNE08.jpg,AMNE17.jpg,AMSA12.jpg,MS,2,num_6,32,num_8,0.683467541472,,,2017_Sep_21_1456,60.0056968753,FEMA4ImagesEEG,001,201556,
AFNE01.JPG,AFNE01.JPG,AFNE01.JPG,AFNE01.JPG,AFNE01.JPG,AFNE01.JPG,,,,,5,0,50,5,,,,,,,,,,,,,,,,,,,AMNE06.jpg,AMSA18.jpg,AMNE19.jpg,AMSA06.jpg,AMNE19.jpg,MN,1,num_2,32,num_8,0.733604272769,,,2017_Sep_21_1456,60.0056968753,FEMA4ImagesEEG,001,201556,
AFNE01.JPG,AFNE01.JPG,AFNE01.JPG,AFNE01.JPG,AFNE01.JPG,AFNE01.JPG,,,,,5,1,51,3,,,,,,,,,,,,,,,,,,,AMNE04.jpg,AMSA03.jpg,AMNE19.jpg,AMSA09.jpg,AMSA09.jpg,MS,2,num_4,32,num_6,0.800116043596,,,2017_Sep_21_1456,60.0056968753,FEMA4ImagesEEG,001,201556,
AFNE01.JPG,AFNE01.JPG,AFNE01.JPG,AFNE01.JPG,AFNE01.JPG,AFNE01.JPG,,,,,5,2,52,9,,,,,,,,,,,,,,,,,,,AMNE16.jpg,AMSA07.jpg,AMNE03.jpg,AMSA17.jpg,AMSA07.jpg,MS,2,num_6,32,num_4,0.750172718268,,,2017_Sep_21_1456,60.0056968753,FEMA4ImagesEEG,001,201556,
AFNE01.JPG,AFNE01.JPG,AFNE01.JPG,AFNE01.JPG,AFNE01.JPG,AFNE01.JPG,,,,,5,3,53,2,,,,,,,,,,,,,,,,,,,AMSA11.jpg,AMSA13.jpg,AMNE07.jpg,AMNE17.jpg,AMNE17.jpg,MN,1,num_4,32,num_8,1.01680450985,,,2017_Sep_21_1456,60.0056968753,FEMA4ImagesEEG,001,201556,
AFNE01.JPG,AFNE01.JPG,AFNE01.JPG,AFNE01.JPG,AFNE01.JPG,AFNE01.JPG,,,,,5,4,54,6,,,,,,,,,,,,,,,,,,,AMNE15.jpg,AMSA09.jpg,AMNE18.jpg,AMSA03.jpg,AMNE18.jpg,MN,1,num_2,16,num_2,0.600130091989,,,2017_Sep_21_1456,60.0056968753,FEMA4ImagesEEG,001,201556,
AFNE01.JPG,AFNE01.JPG,AFNE01.JPG,AFNE01.JPG,AFNE01.JPG,AFNE01.JPG,,,,,5,5,55,8,,,,,,,,,,,,,,,,,,,AMSA09.jpg,AMNE04.jpg,AMNE20.jpg,AMSA16.jpg,AMNE20.jpg,MN,1,num_2,32,num_8,0.700146000672,,,2017_Sep_21_1456,60.0056968753,FEMA4ImagesEEG,001,201556,
AFNE01.JPG,AFNE01.JPG,AFNE01.JPG,AFNE01.JPG,AFNE01.JPG,AFNE01.JPG,,,,,5,6,56,7,,,,,,,,,,,,,,,,,,,AMNE17.jpg,AMSA16.jpg,AMNE01.jpg,AMSA17.jpg,AMNE17.jpg,MN,1,num_8,16,num_8,0.966516389468,,,2017_Sep_21_1456,60.0056968753,FEMA4ImagesEEG,001,201556,
AFNE01.JPG,AFNE01.JPG,AFNE01.JPG,AFNE01.JPG,AFNE01.JPG,AFNE01.JPG,,,,,5,7,57,1,,,,,,,,,,,,,,,,,,,AMNE14.jpg,AMSA02.jpg,AMSA16.jpg,AMNE06.jpg,AMNE06.jpg,MN,1,num_4,16,num_4,0.683523991655,,,2017_Sep_21_1456,60.0056968753,FEMA4ImagesEEG,001,201556,
AFNE01.JPG,AFNE01.JPG,AFNE01.JPG,AFNE01.JPG,AFNE01.JPG,AFNE01.JPG,,,,,5,8,58,4,,,,,,,,,,,,,,,,,,,AMSA10.jpg,AMNE12.jpg,AMNE09.jpg,AMSA17.jpg,AMSA10.jpg,MS,2,num_8,32,num_4,1.13333401758,,,2017_Sep_21_1456,60.0056968753,FEMA4ImagesEEG,001,201556,
AFNE01.JPG,AFNE01.JPG,AFNE01.JPG,AFNE01.JPG,AFNE01.JPG,AFNE01.JPG,,,,,5,9,59,0,,,,,,,,,,,,,,,,,,,AMNE11.jpg,AMSA04.jpg,AMNE04.jpg,AMSA14.jpg,AMSA04.jpg,MS,2,num_6,32,num_8,0.766743729706,,,2017_Sep_21_1456,60.0056968753,FEMA4ImagesEEG,001,201556,
,,,,,,,,,,,,,,,,,,,,,,,,,,,,,,,,,,,,,,,,,,,space,2.60025293524,2017_Sep_21_1456,60.0056968753,FEMA4ImagesEEG,001,201556,
AFNE01.JPG,AFNE01.JPG,AFNE01.JPG,AFNE01.JPG,AFNE01.JPG,AFNE01.JPG,,,,,,,,,0,0,0,9,,,,,,,,,,,,,,,AFNE06.jpg,AFSA14.jpg,AFSA20.jpg,AFNE07.jpg,AFNE07.jpg,FN,3,num_4,16,num_4,0.900203477198,,,2017_Sep_21_1456,60.0056968753,FEMA4ImagesEEG,001,201556,
AFNE01.JPG,AFNE01.JPG,AFNE01.JPG,AFNE01.JPG,AFNE01.JPG,AFNE01.JPG,,,,,,,,,0,1,1,3,,,,,,,,,,,,,,,AFNE04.jpg,AFSA07.jpg,AFNE03.jpg,AFSA04.jpg,AFNE04.jpg,FN,3,num_8,32,num_4,0.733459619209,,,2017_Sep_21_1456,60.0056968753,FEMA4ImagesEEG,001,201556,
AFNE01.JPG,AFNE01.JPG,AFNE01.JPG,AFNE01.JPG,AFNE01.JPG,AFNE01.JPG,,,,,,,,,0,2,2,5,,,,,,,,,,,,,,,AFSA06.jpg,AFNE14.jpg,AFSA04.jpg,AFNE09.jpg,AFSA04.jpg,FS,4,num_2,32,num_6,0.783446565096,,,2017_Sep_21_1456,60.0056968753,FEMA4ImagesEEG,001,201556,
AFNE01.JPG,AFNE01.JPG,AFNE01.JPG,AFNE01.JPG,AFNE01.JPG,AFNE01.JPG,,,,,,,,,0,3,3,2,,,,,,,,,,,,,,,AFNE01.jpg,AFSA08.jpg,AFSA17.jpg,AFNE16.jpg,AFNE16.jpg,FN,3,num_4,32,num_8,1.08344682169,,,2017_Sep_21_1456,60.0056968753,FEMA4ImagesEEG,001,201556,
AFNE01.JPG,AFNE01.JPG,AFNE01.JPG,AFNE01.JPG,AFNE01.JPG,AFNE01.JPG,,,,,,,,,0,4,4,4,,,,,,,,,,,,,,,AFNE06.jpg,AFNE14.jpg,AFSA09.jpg,AFSA06.jpg,AFNE14.jpg,FN,3,num_6,32,num_8,0.83347232049,,,2017_Sep_21_1456,60.0056968753,FEMA4ImagesEEG,001,201556,
AFNE01.JPG,AFNE01.JPG,AFNE01.JPG,AFNE01.JPG,AFNE01.JPG,AFNE01.JPG,,,,,,,,,0,5,5,6,,,,,,,,,,,,,,,AFNE09.jpg,AFSA10.jpg,AFSA08.jpg,AFNE03.jpg,AFNE03.jpg,FN,3,num_4,16,num_4,1.01672496644,,,2017_Sep_21_1456,60.0056968753,FEMA4ImagesEEG,001,201556,
AFNE01.JPG,AFNE01.JPG,AFNE01.JPG,AFNE01.JPG,AFNE01.JPG,AFNE01.JPG,,,,,,,,,0,6,6,8,,,,,,,,,,,,,,,AFSA07.jpg,AFNE05.jpg,AFSA02.jpg,AFNE18.jpg,AFNE18.jpg,FN,3,num_4,32,num_8,0.950147123265,,,2017_Sep_21_1456,60.0056968753,FEMA4ImagesEEG,001,201556,
AFNE01.JPG,AFNE01.JPG,AFNE01.JPG,AFNE01.JPG,AFNE01.JPG,AFNE01.JPG,,,,,,,,,0,7,7,0,,,,,,,,,,,,,,,AFNE17.jpg,AFNE13.jpg,AFSA05.jpg,AFSA02.jpg,AFSA05.jpg,FS,4,num_2,16,num_2,0.666754442398,,,2017_Sep_21_1456,60.0056968753,FEMA4ImagesEEG,001,201556,
AFNE01.JPG,AFNE01.JPG,AFNE01.JPG,AFNE01.JPG,AFNE01.JPG,AFNE01.JPG,,,,,,,,,0,8,8,1,,,,,,,,,,,,,,,AFSA10.jpg,AFSA08.jpg,AFNE11.jpg,AFNE04.jpg,AFNE04.jpg,FN,3,num_4,16,num_4,1.03345538545,,,2017_Sep_21_1456,60.0056968753,FEMA4ImagesEEG,001,201556,
AFNE01.JPG,AFNE01.JPG,AFNE01.JPG,AFNE01.JPG,AFNE01.JPG,AFNE01.JPG,,,,,,,,,0,9,9,7,,,,,,,,,,,,,,,AFNE15.jpg,AFSA03.jpg,AFNE05.jpg,AFSA04.jpg,AFSA04.jpg,FS,4,num_4,16,num_4,0.816840368541,,,2017_Sep_21_1456,60.0056968753,FEMA4ImagesEEG,001,201556,
AFNE01.JPG,AFNE01.JPG,AFNE01.JPG,AFNE01.JPG,AFNE01.JPG,AFNE01.JPG,,,,,,,,,1,0,10,0,,,,,,,,,,,,,,,AFNE10.jpg,AFNE16.jpg,AFSA02.jpg,AFSA12.jpg,AFNE10.jpg,FN,3,num_8,32,num_2,1.15008047357,,,2017_Sep_21_1456,60.0056968753,FEMA4ImagesEEG,001,201556,
AFNE01.JPG,AFNE01.JPG,AFNE01.JPG,AFNE01.JPG,AFNE01.JPG,AFNE01.JPG,,,,,,,,,1,1,11,9,,,,,,,,,,,,,,,AFSA12.jpg,AFSA14.jpg,AFNE01.jpg,AFNE12.jpg,AFNE12.jpg,FN,3,num_4,32,num_6,0.966785169265,,,2017_Sep_21_1456,60.0056968753,FEMA4ImagesEEG,001,201556,
AFNE01.JPG,AFNE01.JPG,AFNE01.JPG,AFNE01.JPG,AFNE01.JPG,AFNE01.JPG,,,,,,,,,1,2,12,3,,,,,,,,,,,,,,,AFSA17.jpg,AFNE18.jpg,AFSA15.jpg,AFNE14.jpg,AFSA17.jpg,FS,4,num_8,32,num_4,1.18341686462,,,2017_Sep_21_1456,60.0056968753,FEMA4ImagesEEG,001,201556,
AFNE01.JPG,AFNE01.JPG,AFNE01.JPG,AFNE01.JPG,AFNE01.JPG,AFNE01.JPG,,,,,,,,,1,3,13,8,,,,,,,,,,,,,,,AFNE06.jpg,AFSA13.jpg,AFSA20.jpg,AFNE04.jpg,AFSA13.jpg,FS,4,num_6,32,num_8,1.06675328774,,,2017_Sep_21_1456,60.0056968753,FEMA4ImagesEEG,001,201556,
AFNE01.JPG,AFNE01.JPG,AFNE01.JPG,AFNE01.JPG,AFNE01.JPG,AFNE01.JPG,,,,,,,,,1,4,14,1,,,,,,,,,,,,,,,AFSA20.jpg,AFNE11.jpg,AFSA19.jpg,AFNE12.jpg,AFSA19.jpg,FS,4,num_2,16,num_2,0.683440920082,,,2017_Sep_21_1456,60.0056968753,FEMA4ImagesEEG,001,201556,
AFNE01.JPG,AFNE01.JPG,AFNE01.JPG,AFNE01.JPG,AFNE01.JPG,AFNE01.JPG,,,,,,,,,1,5,15,5,,,,,,,,,,,,,,,AFSA10.jpg,AFSA14.jpg,AFNE07.jpg,AFNE18.jpg,AFNE07.jpg,FN,3,num_2,16,num_2,0.800027519464,,,2017_Sep_21_1456,60.0056968753,FEMA4ImagesEEG,001,201556,
AFNE01.JPG,AFNE01.JPG,AFNE01.JPG,AFNE01.JPG,AFNE01.JPG,AFNE01.JPG,,,,,,,,,1,6,16,7,,,,,,,,,,,,,,,AFSA08.jpg,AFNE10.jpg,AFNE19.jpg,AFSA13.jpg,AFSA13.jpg,FS,4,num_4,16,num_4,0.800127269467,,,2017_Sep_21_1456,60.0056968753,FEMA4ImagesEEG,001,201556,
AFNE01.JPG,AFNE01.JPG,AFNE01.JPG,AFNE01.JPG,AFNE01.JPG,AFNE01.JPG,,,,,,,,,1,7,17,6,,,,,,,,,,,,,,,AFNE07.jpg,AFSA02.jpg,AFSA05.jpg,AFNE05.jpg,AFSA05.jpg,FS,4,num_2,16,num_2,0.850167458149,,,2017_Sep_21_1456,60.0056968753,FEMA4ImagesEEG,001,201556,
AFNE01.JPG,AFNE01.JPG,AFNE01.JPG,AFNE01.JPG,AFNE01.JPG,AFNE01.JPG,,,,,,,,,1,8,18,4,,,,,,,,,,,,,,,AFSA09.jpg,AFSA07.jpg,AFNE15.jpg,AFNE07.jpg,AFNE07.jpg,FN,3,num_4,16,num_4,0.766500609083,,,2017_Sep_21_1456,60.0056968753,FEMA4ImagesEEG,001,201556,
AFNE01.JPG,AFNE01.JPG,AFNE01.JPG,AFNE01.JPG,AFNE01.JPG,AFNE01.JPG,,,,,,,,,1,9,19,2,,,,,,,,,,,,,,,AFNE12.jpg,AFSA15.jpg,AFNE15.jpg,AFSA12.jpg,AFSA12.jpg,FS,4,num_4,16,num_4,0.700009365595,,,2017_Sep_21_1456,60.0056968753,FEMA4ImagesEEG,001,201556,
AFNE01.JPG,AFNE01.JPG,AFNE01.JPG,AFNE01.JPG,AFNE01.JPG,AFNE01.JPG,,,,,,,,,2,0,20,1,,,,,,,,,,,,,,,AFSA19.jpg,AFNE18.jpg,AFNE06.jpg,AFSA15.jpg,AFSA15.jpg,FS,4,num_4,32,num_2,1.31677269247,,,2017_Sep_21_1456,60.0056968753,FEMA4ImagesEEG,001,201556,
AFNE01.JPG,AFNE01.JPG,AFNE01.JPG,AFNE01.JPG,AFNE01.JPG,AFNE01.JPG,,,,,,,,,2,1,21,5,,,,,,,,,,,,,,,AFSA06.jpg,AFNE03.jpg,AFSA10.jpg,AFNE16.jpg,AFSA10.jpg,FS,4,num_2,32,num_8,1.3338020408,,,2017_Sep_21_1456,60.0056968753,FEMA4ImagesEEG,001,201556,
AFNE01.JPG,AFNE01.JPG,AFNE01.JPG,AFNE01.JPG,AFNE01.JPG,AFNE01.JPG,,,,,,,,,2,2,22,3,,,,,,,,,,,,,,,AFNE06.jpg,AFSA17.jpg,AFNE13.jpg,AFSA16.jpg,AFSA17.jpg,FS,4,num_6,32,num_2,1.05012582615,,,2017_Sep_21_1456,60.0056968753,FEMA4ImagesEEG,001,201556,
AFNE01.JPG,AFNE01.JPG,AFNE01.JPG,AFNE01.JPG,AFNE01.JPG,AFNE01.JPG,,,,,,,,,2,3,23,0,,,,,,,,,,,,,,,AFNE13.jpg,AFSA17.jpg,AFSA11.jpg,AFNE04.jpg,AFNE13.jpg,FN,3,num_8,32,num_4,0.850146610072,,,2017_Sep_21_1456,60.0056968753,FEMA4ImagesEEG,001,201556,
AFNE01.JPG,AFNE01.JPG,AFNE01.JPG,AFNE01.JPG,AFNE01.JPG,AFNE01.JPG,,,,,,,,,2,4,24,7,,,,,,,,,,,,,,,AFNE16.jpg,AFSA02.jpg,AFSA04.jpg,AFNE10.jpg,AFNE16.jpg,FN,3,num_8,16,num_8,0.716812913233,,,2017_Sep_21_1456,60.0056968753,FEMA4ImagesEEG,001,201556,
AFNE01.JPG,AFNE01.JPG,AFNE01.JPG,AFNE01.JPG,AFNE01.JPG,AFNE01.JPG,,,,,,,,,2,5,25,4,,,,,,,,,,,,,,,AFNE14.jpg,AFSA09.jpg,AFSA06.jpg,AFNE06.jpg,AFNE14.jpg,FN,3,num_8,16,num_8,0.61683645552,,,2017_Sep_21_1456,60.0056968753,FEMA4ImagesEEG,001,201556,
AFNE01.JPG,AFNE01.JPG,AFNE01.JPG,AFNE01.JPG,AFNE01.JPG,AFNE01.JPG,,,,,,,,,2,6,26,9,,,,,,,,,,,,,,,AFSA13.jpg,AFNE03.jpg,AFNE16.jpg,AFSA04.jpg,AFNE16.jpg,FN,3,num_2,16,num_2,0.850122875345,,,2017_Sep_21_1456,60.0056968753,FEMA4ImagesEEG,001,201556,
AFNE01.JPG,AFNE01.JPG,AFNE01.JPG,AFNE01.JPG,AFNE01.JPG,AFNE01.JPG,,,,,,,,,2,7,27,2,,,,,,,,,,,,,,,AFNE02.jpg,AFNE12.jpg,AFSA15.jpg,AFSA08.jpg,AFSA08.jpg,FS,4,num_4,32,num_8,0.883471775232,,,2017_Sep_21_1456,60.0056968753,FEMA4ImagesEEG,001,201556,
AFNE01.JPG,AFNE01.JPG,AFNE01.JPG,AFNE01.JPG,AFNE01.JPG,AFNE01.JPG,,,,,,,,,2,8,28,6,,,,,,,,,,,,,,,AFNE12.jpg,AFSA20.jpg,AFNE04.jpg,AFSA10.jpg,AFSA10.jpg,FS,4,num_4,16,num_4,0.833481301204,,,2017_Sep_21_1456,60.0056968753,FEMA4ImagesEEG,001,201556,
AFNE01.JPG,AFNE01.JPG,AFNE01.JPG,AFNE01.JPG,AFNE01.JPG,AFNE01.JPG,,,,,,,,,2,9,29,8,,,,,,,,,,,,,,,AFNE12.jpg,AFSA13.jpg,AFNE18.jpg,AFSA12.jpg,AFNE18.jpg,FN,3,num_2,32,num_8,0.733464751043,,,2017_Sep_21_1456,60.0056968753,FEMA4ImagesEEG,001,201556,
AFNE01.JPG,AFNE01.JPG,AFNE01.JPG,AFNE01.JPG,AFNE01.JPG,AFNE01.JPG,,,,,,,,,3,0,30,4,,,,,,,,,,,,,,,AFSA10.jpg,AFSA08.jpg,AFNE07.jpg,AFNE14.jpg,AFNE14.jpg,FN,3,num_4,32,num_8,0.850150138212,,,2017_Sep_21_1456,60.0056968753,FEMA4ImagesEEG,001,201556,
AFNE01.JPG,AFNE01.JPG,AFNE01.JPG,AFNE01.JPG,AFNE01.JPG,AFNE01.JPG,,,,,,,,,3,1,31,9,,,,,,,,,,,,,,,AFSA03.jpg,AFNE16.jpg,AFNE01.jpg,AFSA06.jpg,AFSA06.jpg,FS,4,num_4,16,num_4,0.900099878316,,,2017_Sep_21_1456,60.0056968753,FEMA4ImagesEEG,001,201556,
AFNE01.JPG,AFNE01.JPG,AFNE01.JPG,AFNE01.JPG,AFNE01.JPG,AFNE01.JPG,,,,,,,,,3,2,32,6,,,,,,,,,,,,,,,AFNE18.jpg,AFSA20.jpg,AFNE06.jpg,AFSA09.jpg,AFNE18.jpg,FN,3,num_8,32,num_2,1.45008297534,,,2017_Sep_21_1456,60.0056968753,FEMA4ImagesEEG,001,201556,
AFNE01.JPG,AFNE01.JPG,AFNE01.JPG,AFNE01.JPG,AFNE01.JPG,AFNE01.JPG,,,,,,,,,3,3,33,0,,,,,,,,,,,,,,,AFSA17.jpg,AFSA15.jpg,AFNE13.jpg,AFNE04.jpg,AFSA17.jpg,FS,4,num_8,32,num_2,0.850150458951,,,2017_Sep_21_1456,60.0056968753,FEMA4ImagesEEG,001,201556,
AFNE01.JPG,AFNE01.JPG,AFNE01.JPG,AFNE01.JPG,AFNE01.JPG,AFNE01.JPG,,,,,,,,,3,4,34,2,,,,,,,,,,,,,,,AFNE16.jpg,AFSA02.jpg,AFNE15.jpg,AFSA13.jpg,AFNE15.jpg,FN,3,num_2,16,num_2,0.666768554947,,,2017_Sep_21_1456,60.0056968753,FEMA4ImagesEEG,001,201556,
AFNE01.JPG,AFNE01.JPG,AFNE01.JPG,AFNE01.JPG,AFNE01.JPG,AFNE01.JPG,,,,,,,,,3,5,35,5,,,,,,,,,,,,,,,AFNE13.jpg,AFNE03.jpg,AFSA20.jpg,AFSA01.jpg,AFSA20.jpg,FS,4,num_2,16,num_2,0.716773462264,,,2017_Sep_21_1456,60.0056968753,FEMA4ImagesEEG,001,201556,
AFNE01.JPG,AFNE01.JPG,AFNE01.JPG,AFNE01.JPG,AFNE01.JPG,AFNE01.JPG,,,,,,,,,3,6,36,7,,,,,,,,,,,,,,,AFNE10.jpg,AFSA11.jpg,AFSA16.jpg,AFNE13.jpg,AFNE10.jpg,FN,3,num_8,16,num_8,0.70017582945,,,2017_Sep_21_1456,60.0056968753,FEMA4ImagesEEG,001,201556,
AFNE01.JPG,AFNE01.JPG,AFNE01.JPG,AFNE01.JPG,AFNE01.JPG,AFNE01.JPG,,,,,,,,,3,7,37,8,,,,,,,,,,,,,,,AFSA01.jpg,AFNE13.jpg,AFNE16.jpg,AFSA15.jpg,AFSA01.jpg,FS,4,num_8,16,num_8,0.883516358037,,,2017_Sep_21_1456,60.0056968753,FEMA4ImagesEEG,001,201556,
AFNE01.JPG,AFNE01.JPG,AFNE01.JPG,AFNE01.JPG,AFNE01.JPG,AFNE01.JPG,,,,,,,,,3,8,38,3,,,,,,,,,,,,,,,AFSA20.jpg,AFNE08.jpg,AFSA04.jpg,AFNE15.jpg,AFNE08.jpg,FN,3,num_6,16,num_6,0.90009250131,,,2017_Sep_21_1456,60.0056968753,FEMA4ImagesEEG,001,201556,
AFNE01.JPG,AFNE01.JPG,AFNE01.JPG,AFNE01.JPG,AFNE01.JPG,AFNE01.JPG,,,,,,,,,3,9,39,1,,,,,,,,,,,,,,,AFSA08.jpg,AFNE12.jpg,AFSA03.jpg,AFNE14.jpg,AFNE12.jpg,FN,3,num_6,16,num_6,0.816763070296,,,2017_Sep_21_1456,60.0056968753,FEMA4ImagesEEG,001,201556,
AFNE01.JPG,AFNE01.JPG,AFNE01.JPG,AFNE01.JPG,AFNE01.JPG,AFNE01.JPG,,,,,,,,,4,0,40,9,,,,,,,,,,,,,,,AFSA04.jpg,AFNE05.jpg,AFSA10.jpg,AFNE10.jpg,AFSA04.jpg,FS,4,num_8,16,num_8,0.716793027372,,,2017_Sep_21_1456,60.0056968753,FEMA4ImagesEEG,001,201556,
AFNE01.JPG,AFNE01.JPG,AFNE01.JPG,AFNE01.JPG,AFNE01.JPG,AFNE01.JPG,,,,,,,,,4,1,41,5,,,,,,,,,,,,,,,AFSA06.jpg,AFSA15.jpg,AFNE17.jpg,AFNE07.jpg,AFNE17.jpg,FN,3,num_2,32,num_8,0.733461543641,,,2017_Sep_21_1456,60.0056968753,FEMA4ImagesEEG,001,201556,
AFNE01.JPG,AFNE01.JPG,AFNE01.JPG,AFNE01.JPG,AFNE01.JPG,AFNE01.JPG,,,,,,,,,4,2,42,8,,,,,,,,,,,,,,,AFNE13.jpg,AFSA09.jpg,AFNE15.jpg,AFSA04.jpg,AFSA09.jpg,FS,4,num_6,32,num_4,0.966629289818,,,2017_Sep_21_1456,60.0056968753,FEMA4ImagesEEG,001,201556,
AFNE01.JPG,AFNE01.JPG,AFNE01.JPG,AFNE01.JPG,AFNE01.JPG,AFNE01.JPG,,,,,,,,,4,3,43,3,,,,,,,,,,,,,,,AFNE03.jpg,AFSA20.jpg,AFSA13.jpg,AFNE13.jpg,AFSA20.jpg,FS,4,num_6,32,num_8,0.750139361364,,,2017_Sep_21_1456,60.0056968753,FEMA4ImagesEEG,001,201556,
AFNE01.JPG,AFNE01.JPG,AFNE01.JPG,AFNE01.JPG,AFNE01.JPG,AFNE01.JPG,,,,,,,,,4,4,44,2,,,,,,,,,,,,,,,AFSA09.jpg,AFNE10.jpg,AFNE01.jpg,AFSA13.jpg,AFSA09.jpg,FS,4,num_8,32,num_2,1.05017874818,,,2017_Sep_21_1456,60.0056968753,FEMA4ImagesEEG,001,201556,
AFNE01.JPG,AFNE01.JPG,AFNE01.JPG,AFNE01.JPG,AFNE01.JPG,AFNE01.JPG,,,,,,,,,4,5,45,7,,,,,,,,,,,,,,,AFNE04.jpg,AFNE20.jpg,AFSA05.jpg,AFSA14.jpg,AFSA05.jpg,FS,4,num_2,32,num_8,1.01678302031,,,2017_Sep_21_1456,60.0056968753,FEMA4ImagesEEG,001,201556,
AFNE01.JPG,AFNE01.JPG,AFNE01.JPG,AFNE01.JPG,AFNE01.JPG,AFNE01.JPG,,,,,,,,,4,6,46,0,,,,,,,,,,,,,,,AFNE19.jpg,AFSA13.jpg,AFNE16.jpg,AFSA07.jpg,AFNE19.jpg,FN,3,num_8,32,num_4,0.850161684837,,,2017_Sep_21_1456,60.0056968753,FEMA4ImagesEEG,001,201556,
AFNE01.JPG,AFNE01.JPG,AFNE01.JPG,AFNE01.JPG,AFNE01.JPG,AFNE01.JPG,,,,,,,,,4,7,47,1,,,,,,,,,,,,,,,AFNE11.jpg,AFSA09.jpg,AFSA06.jpg,AFNE18.jpg,AFSA09.jpg,FS,4,num_6,32,num_2,0.883612579913,,,2017_Sep_21_1456,60.0056968753,FEMA4ImagesEEG,001,201556,
AFNE01.JPG,AFNE01.JPG,AFNE01.JPG,AFNE01.JPG,AFNE01.JPG,AFNE01.JPG,,,,,,,,,4,8,48,4,,,,,,,,,,,,,,,AFSA07.jpg,AFNE06.jpg,AFNE18.jpg,AFSA04.jpg,AFSA07.jpg,FS,4,num_8,32,num_2,0.866730451089,,,2017_Sep_21_1456,60.0056968753,FEMA4ImagesEEG,001,201556,
AFNE01.JPG,AFNE01.JPG,AFNE01.JPG,AFNE01.JPG,AFNE01.JPG,AFNE01.JPG,,,,,,,,,4,9,49,6,,,,,,,,,,,,,,,AFSA03.jpg,AFNE18.jpg,AFSA09.jpg,AFNE15.jpg,AFNE18.jpg,FN,3,num_6,32,num_8,0.966776830028,,,2017_Sep_21_1456,60.0056968753,FEMA4ImagesEEG,001,201556,
AFNE01.JPG,AFNE01.JPG,AFNE01.JPG,AFNE01.JPG,AFNE01.JPG,AFNE01.JPG,,,,,,,,,5,0,50,4,,,,,,,,,,,,,,,AFSA03.jpg,AFSA20.jpg,AFNE04.jpg,AFNE07.jpg,AFNE04.jpg,FN,3,num_2,16,num_2,0.81674542962,,,2017_Sep_21_1456,60.0056968753,FEMA4ImagesEEG,001,201556,
AFNE01.JPG,AFNE01.JPG,AFNE01.JPG,AFNE01.JPG,AFNE01.JPG,AFNE01.JPG,,,,,,,,,5,1,51,2,,,,,,,,,,,,,,,AFNE19.jpg,AFNE17.jpg,AFSA20.jpg,AFSA05.jpg,AFNE19.jpg,FN,3,num_8,32,num_2,1.01674356933,,,2017_Sep_21_1456,60.0056968753,FEMA4ImagesEEG,001,201556,
AFNE01.JPG,AFNE01.JPG,AFNE01.JPG,AFNE01.JPG,AFNE01.JPG,AFNE01.JPG,,,,,,,,,5,2,52,7,,,,,,,,,,,,,,,AFNE12.jpg,AFNE09.jpg,AFSA09.jpg,AFSA13.jpg,AFSA13.jpg,FS,4,num_4,32,num_2,1.01648729839,,,2017_Sep_21_1456,60.0056968753,FEMA4ImagesEEG,001,201556,
AFNE01.JPG,AFNE01.JPG,AFNE01.JPG,AFNE01.JPG,AFNE01.JPG,AFNE01.JPG,,,,,,,,,5,3,53,3,,,,,,,,,,,,,,,AFSA04.jpg,AFSA02.jpg,AFNE01.jpg,AFNE19.jpg,AFNE19.jpg,FN,3,num_4,16,num_4,0.83345949091,,,2017_Sep_21_1456,60.0056968753,FEMA4ImagesEEG,001,201556,
AFNE01.JPG,AFNE01.JPG,AFNE01.JPG,AFNE01.JPG,AFNE01.JPG,AFNE01.JPG,,,,,,,,,5,4,54,8,,,,,,,,,,,,,,,AFNE05.jpg,AFNE17.jpg,AFSA02.jpg,AFSA04.jpg,AFSA04.jpg,FS,4,num_4,32,num_2,0.800095195518,,,2017_Sep_21_1456,60.0056968753,FEMA4ImagesEEG,001,201556,
AFNE01.JPG,AFNE01.JPG,AFNE01.JPG,AFNE01.JPG,AFNE01.JPG,AFNE01.JPG,,,,,,,,,5,5,55,1,,,,,,,,,,,,,,,AFSA12.jpg,AFNE19.jpg,AFNE06.jpg,AFSA19.jpg,AFSA19.jpg,FS,4,num_4,16,num_4,0.900137084114,,,2017_Sep_21_1456,60.0056968753,FEMA4ImagesEEG,001,201556,
AFNE01.JPG,AFNE01.JPG,AFNE01.JPG,AFNE01.JPG,AFNE01.JPG,AFNE01.JPG,,,,,,,,,5,6,56,5,,,,,,,,,,,,,,,AFNE13.jpg,AFSA01.jpg,AFSA05.jpg,AFNE20.jpg,AFNE20.jpg,FN,3,num_4,32,num_6,0.900121688595,,,2017_Sep_21_1456,60.0056968753,FEMA4ImagesEEG,001,201556,
AFNE01.JPG,AFNE01.JPG,AFNE01.JPG,AFNE01.JPG,AFNE01.JPG,AFNE01.JPG,,,,,,,,,5,7,57,0,,,,,,,,,,,,,,,AFSA08.jpg,AFNE18.jpg,AFSA20.jpg,AFNE20.jpg,AFSA20.jpg,FS,4,num_2,32,num_8,0.633477067429,,,2017_Sep_21_1456,60.0056968753,FEMA4ImagesEEG,001,201556,
AFNE01.JPG,AFNE01.JPG,AFNE01.JPG,AFNE01.JPG,AFNE01.JPG,AFNE01.JPG,,,,,,,,,5,8,58,9,,,,,,,,,,,,,,,AFSA14.jpg,AFSA19.jpg,AFNE10.jpg,AFNE01.jpg,AFSA19.jpg,FS,4,num_6,32,num_8,0.650279652851,,,2017_Sep_21_1456,60.0056968753,FEMA4ImagesEEG,001,201556,
AFNE01.JPG,AFNE01.JPG,AFNE01.JPG,AFNE01.JPG,AFNE01.JPG,AFNE01.JPG,,,,,,,,,5,9,59,6,,,,,,,,,,,,,,,AFNE13.jpg,AFNE10.jpg,AFSA17.jpg,AFSA08.jpg,AFSA17.jpg,FS,4,num_2,16,num_2,0.916717396976,,,2017_Sep_21_1456,60.0056968753,FEMA4ImagesEEG,001,201556,
,,,,,,,,,,,,,,,,,,,,,,,,,,,,,,,,,,,,,,,,,,,space,4.83314099649,2017_Sep_21_1456,60.0056968753,FEMA4ImagesEEG,001,201556,
AFNE01.JPG,AFNE01.JPG,AFNE01.JPG,AFNE01.JPG,AFNE01.JPG,AFNE01.JPG,,,,,,,,,,,,,0,0,0,5,,,,,,,,,,,AMSA02.jpg,AMNE16.jpg,AMSA19.jpg,AMNE05.jpg,AMNE05.jpg,MN,1,num_4,32,num_8,0.750128776956,,,2017_Sep_21_1456,60.0056968753,FEMA4ImagesEEG,001,201556,
AFNE01.JPG,AFNE01.JPG,AFNE01.JPG,AFNE01.JPG,AFNE01.JPG,AFNE01.JPG,,,,,,,,,,,,,0,1,1,9,,,,,,,,,,,AMNE09.jpg,AMSA12.jpg,AMSA18.jpg,AMNE20.jpg,AMNE09.jpg,MN,1,num_8,32,num_6,0.867100905307,,,2017_Sep_21_1456,60.0056968753,FEMA4ImagesEEG,001,201556,
AFNE01.JPG,AFNE01.JPG,AFNE01.JPG,AFNE01.JPG,AFNE01.JPG,AFNE01.JPG,,,,,,,,,,,,,0,2,2,2,,,,,,,,,,,AMSA02.jpg,AMNE18.jpg,AMSA08.jpg,AMNE02.jpg,AMSA02.jpg,MS,2,num_8,32,num_4,0.650152319242,,,2017_Sep_21_1456,60.0056968753,FEMA4ImagesEEG,001,201556,
AFNE01.JPG,AFNE01.JPG,AFNE01.JPG,AFNE01.JPG,AFNE01.JPG,AFNE01.JPG,,,,,,,,,,,,,0,3,3,7,,,,,,,,,,,AMSA16.jpg,AMNE15.jpg,AMSA10.jpg,AMNE06.jpg,AMNE06.jpg,MN,1,num_4,32,num_6,0.700146962874,,,2017_Sep_21_1456,60.0056968753,FEMA4ImagesEEG,001,201556,
AFNE01.JPG,AFNE01.JPG,AFNE01.JPG,AFNE01.JPG,AFNE01.JPG,AFNE01.JPG,,,,,,,,,,,,,0,4,4,1,,,,,,,,,,,AMNE07.jpg,AMNE06.jpg,AMSA03.jpg,AMSA10.jpg,AMSA10.jpg,MS,2,num_4,16,num_4,0.866770864261,,,2017_Sep_21_1456,60.0056968753,FEMA4ImagesEEG,001,201556,
AFNE01.JPG,AFNE01.JPG,AFNE01.JPG,AFNE01.JPG,AFNE01.JPG,AFNE01.JPG,,,,,,,,,,,,,0,5,5,6,,,,,,,,,,,AMNE10.jpg,AMNE04.jpg,AMSA14.jpg,AMSA17.jpg,AMSA14.jpg,MS,2,num_2,32,num_6,0.900081275424,,,2017_Sep_21_1456,60.0056968753,FEMA4ImagesEEG,001,201556,
AFNE01.JPG,AFNE01.JPG,AFNE01.JPG,AFNE01.JPG,AFNE01.JPG,AFNE01.JPG,,,,,,,,,,,,,0,6,6,0,,,,,,,,,,,AMNE02.jpg,AMSA06.jpg,AMSA04.jpg,AMNE12.jpg,AMNE02.jpg,MN,1,num_8,32,num_4,0.916781865642,,,2017_Sep_21_1456,60.0056968753,FEMA4ImagesEEG,001,201556,
AFNE01.JPG,AFNE01.JPG,AFNE01.JPG,AFNE01.JPG,AFNE01.JPG,AFNE01.JPG,,,,,,,,,,,,,0,7,7,3,,,,,,,,,,,AMSA13.jpg,AMNE18.jpg,AMNE04.jpg,AMSA05.jpg,AMNE04.jpg,MN,1,num_2,32,num_6,1.23347790136,,,2017_Sep_21_1456,60.0056968753,FEMA4ImagesEEG,001,201556,
AFNE01.JPG,AFNE01.JPG,AFNE01.JPG,AFNE01.JPG,AFNE01.JPG,AFNE01.JPG,,,,,,,,,,,,,0,8,8,8,,,,,,,,,,,AMSA11.jpg,AMSA13.jpg,AMNE06.jpg,AMNE17.jpg,AMNE17.jpg,MN,1,num_4,16,num_4,0.583470556434,,,2017_Sep_21_1456,60.0056968753,FEMA4ImagesEEG,001,201556,
AFNE01.JPG,AFNE01.JPG,AFNE01.JPG,AFNE01.JPG,AFNE01.JPG,AFNE01.JPG,,,,,,,,,,,,,0,9,9,4,,,,,,,,,,,AMNE03.jpg,AMNE08.jpg,AMSA05.jpg,AMSA09.jpg,AMNE08.jpg,MN,1,num_6,16,num_6,0.850144685624,,,2017_Sep_21_1456,60.0056968753,FEMA4ImagesEEG,001,201556,
AFNE01.JPG,AFNE01.JPG,AFNE01.JPG,AFNE01.JPG,AFNE01.JPG,AFNE01.JPG,,,,,,,,,,,,,1,0,10,0,,,,,,,,,,,AMSA03.jpg,AMSA17.jpg,AMNE16.jpg,AMNE06.jpg,AMNE16.jpg,MN,1,num_2,16,num_2,0.916718038454,,,2017_Sep_21_1456,60.0056968753,FEMA4ImagesEEG,001,201556,
AFNE01.JPG,AFNE01.JPG,AFNE01.JPG,AFNE01.JPG,AFNE01.JPG,AFNE01.JPG,,,,,,,,,,,,,1,1,11,5,,,,,,,,,,,AMSA09.jpg,AMNE04.jpg,AMSA04.jpg,AMNE20.jpg,AMSA04.jpg,MS,2,num_2,16,num_2,0.900151838126,,,2017_Sep_21_1456,60.0056968753,FEMA4ImagesEEG,001,201556,
AFNE01.JPG,AFNE01.JPG,AFNE01.JPG,AFNE01.JPG,AFNE01.JPG,AFNE01.JPG,,,,,,,,,,,,,1,2,12,7,,,,,,,,,,,AMSA06.jpg,AMNE12.jpg,AMSA19.jpg,AMNE02.jpg,AMNE12.jpg,MN,1,num_6,32,num_8,0.766771634051,,,2017_Sep_21_1456,60.0056968753,FEMA4ImagesEEG,001,201556,
AFNE01.JPG,AFNE01.JPG,AFNE01.JPG,AFNE01.JPG,AFNE01.JPG,AFNE01.JPG,,,,,,,,,,,,,1,3,13,9,,,,,,,,,,,AMSA09.jpg,AMNE12.jpg,AMNE14.jpg,AMSA11.jpg,AMNE12.jpg,MN,1,num_6,32,num_8,1.56689248873,,,2017_Sep_21_1456,60.0056968753,FEMA4ImagesEEG,001,201556,
AFNE01.JPG,AFNE01.JPG,AFNE01.JPG,AFNE01.JPG,AFNE01.JPG,AFNE01.JPG,,,,,,,,,,,,,1,4,14,3,,,,,,,,,,,AMSA10.jpg,AMNE05.jpg,AMSA08.jpg,AMNE03.jpg,AMNE05.jpg,MN,1,num_6,32,num_4,1.25012396586,,,2017_Sep_21_1456,60.0056968753,FEMA4ImagesEEG,001,201556,
AFNE01.JPG,AFNE01.JPG,AFNE01.JPG,AFNE01.JPG,AFNE01.JPG,AFNE01.JPG,,,,,,,,,,,,,1,5,15,8,,,,,,,,,,,AMSA12.jpg,AMNE09.jpg,AMNE12.jpg,AMSA03.jpg,AMSA03.jpg,MS,2,num_4,16,num_4,0.649958271781,,,2017_Sep_21_1456,60.0056968753,FEMA4ImagesEEG,001,201556,
AFNE01.JPG,AFNE01.JPG,AFNE01.JPG,AFNE01.JPG,AFNE01.JPG,AFNE01.JPG,,,,,,,,,,,,,1,6,16,1,,,,,,,,,,,AMSA12.jpg,AMSA03.jpg,AMNE04.jpg,AMNE01.jpg,AMSA03.jpg,MS,2,num_6,16,num_6,0.616816569673,,,2017_Sep_21_1456,60.0056968753,FEMA4ImagesEEG,001,201556,
AFNE01.JPG,AFNE01.JPG,AFNE01.JPG,AFNE01.JPG,AFNE01.JPG,AFNE01.JPG,,,,,,,,,,,,,1,7,17,6,,,,,,,,,,,AMNE16.jpg,AMSA10.jpg,AMNE11.jpg,AMSA15.jpg,AMSA15.jpg,MS,2,num_4,16,num_4,0.883440984224,,,2017_Sep_21_1456,60.0056968753,FEMA4ImagesEEG,001,201556,
AFNE01.JPG,AFNE01.JPG,AFNE01.JPG,AFNE01.JPG,AFNE01.JPG,AFNE01.JPG,,,,,,,,,,,,,1,8,18,4,,,,,,,,,,,AMNE05.jpg,AMNE09.jpg,AMSA18.jpg,AMSA02.jpg,AMSA18.jpg,MS,2,num_2,16,num_2,0.883409551752,,,2017_Sep_21_1456,60.0056968753,FEMA4ImagesEEG,001,201556,
AFNE01.JPG,AFNE01.JPG,AFNE01.JPG,AFNE01.JPG,AFNE01.JPG,AFNE01.JPG,,,,,,,,,,,,,1,9,19,2,,,,,,,,,,,AMNE01.jpg,AMNE15.jpg,AMSA02.jpg,AMSA11.jpg,AMNE01.jpg,MN,1,num_8,32,num_4,0.916872955684,,,2017_Sep_21_1456,60.0056968753,FEMA4ImagesEEG,001,201556,
AFNE01.JPG,AFNE01.JPG,AFNE01.JPG,AFNE01.JPG,AFNE01.JPG,AFNE01.JPG,,,,,,,,,,,,,2,0,20,6,,,,,,,,,,,AMNE06.jpg,AMSA19.jpg,AMSA10.jpg,AMNE20.jpg,AMNE20.jpg,MN,1,num_4,16,num_4,0.666742895773,,,2017_Sep_21_1456,60.0056968753,FEMA4ImagesEEG,001,201556,
AFNE01.JPG,AFNE01.JPG,AFNE01.JPG,AFNE01.JPG,AFNE01.JPG,AFNE01.JPG,,,,,,,,,,,,,2,1,21,7,,,,,,,,,,,AMNE18.jpg,AMNE10.jpg,AMSA05.jpg,AMSA07.jpg,AMSA05.jpg,MS,2,num_2,16,num_2,0.833454038337,,,2017_Sep_21_1456,60.0056968753,FEMA4ImagesEEG,001,201556,
AFNE01.JPG,AFNE01.JPG,AFNE01.JPG,AFNE01.JPG,AFNE01.JPG,AFNE01.JPG,,,,,,,,,,,,,2,2,22,4,,,,,,,,,,,AMSA08.jpg,AMNE10.jpg,AMSA20.jpg,AMNE01.jpg,AMSA20.jpg,MS,2,num_2,16,num_2,0.716827987999,,,2017_Sep_21_1456,60.0056968753,FEMA4ImagesEEG,001,201556,
AFNE01.JPG,AFNE01.JPG,AFNE01.JPG,AFNE01.JPG,AFNE01.JPG,AFNE01.JPG,,,,,,,,,,,,,2,3,23,0,,,,,,,,,,,AMNE05.jpg,AMSA18.jpg,AMNE16.jpg,AMSA17.jpg,AMNE16.jpg,MN,1,num_2,16,num_2,1.14981009008,,,2017_Sep_21_1456,60.0056968753,FEMA4ImagesEEG,001,201556,
AFNE01.JPG,AFNE01.JPG,AFNE01.JPG,AFNE01.JPG,AFNE01.JPG,AFNE01.JPG,,,,,,,,,,,,,2,4,24,2,,,,,,,,,,,AMSA08.jpg,AMSA20.jpg,AMNE03.jpg,AMNE16.jpg,AMNE03.jpg,MN,1,num_2,32,num_4,0.833494130784,,,2017_Sep_21_1456,60.0056968753,FEMA4ImagesEEG,001,201556,
AFNE01.JPG,AFNE01.JPG,AFNE01.JPG,AFNE01.JPG,AFNE01.JPG,AFNE01.JPG,,,,,,,,,,,,,2,5,25,3,,,,,,,,,,,AMSA15.jpg,AMNE01.jpg,AMSA16.jpg,AMNE18.jpg,AMNE01.jpg,MN,1,num_6,16,num_6,0.616511225569,,,2017_Sep_21_1456,60.0056968753,FEMA4ImagesEEG,001,201556,
AFNE01.JPG,AFNE01.JPG,AFNE01.JPG,AFNE01.JPG,AFNE01.JPG,AFNE01.JPG,,,,,,,,,,,,,2,6,26,1,,,,,,,,,,,AMSA16.jpg,AMSA07.jpg,AMNE04.jpg,AMNE20.jpg,AMNE20.jpg,MN,1,num_4,32,num_8,1.16675829128,,,2017_Sep_21_1456,60.0056968753,FEMA4ImagesEEG,001,201556,
AFNE01.JPG,AFNE01.JPG,AFNE01.JPG,AFNE01.JPG,AFNE01.JPG,AFNE01.JPG,,,,,,,,,,,,,2,7,27,8,,,,,,,,,,,AMSA14.jpg,AMNE03.jpg,AMNE16.jpg,AMSA07.jpg,AMNE03.jpg,MN,1,num_6,16,num_6,1.21679976291,,,2017_Sep_21_1456,60.0056968753,FEMA4ImagesEEG,001,201556,
AFNE01.JPG,AFNE01.JPG,AFNE01.JPG,AFNE01.JPG,AFNE01.JPG,AFNE01.JPG,,,,,,,,,,,,,2,8,28,9,,,,,,,,,,,AMSA08.jpg,AMNE13.jpg,AMSA01.jpg,AMNE18.jpg,AMNE13.jpg,MN,1,num_6,32,num_4,1.08341025739,,,2017_Sep_21_1456,60.0056968753,FEMA4ImagesEEG,001,201556,
AFNE01.JPG,AFNE01.JPG,AFNE01.JPG,AFNE01.JPG,AFNE01.JPG,AFNE01.JPG,,,,,,,,,,,,,2,9,29,5,,,,,,,,,,,AMNE04.jpg,AMSA04.jpg,AMNE20.jpg,AMSA20.jpg,AMSA04.jpg,MS,2,num_6,16,num_6,0.883459266392,,,2017_Sep_21_1456,60.0056968753,FEMA4ImagesEEG,001,201556,
AFNE01.JPG,AFNE01.JPG,AFNE01.JPG,AFNE01.JPG,AFNE01.JPG,AFNE01.JPG,,,,,,,,,,,,,3,0,30,1,,,,,,,,,,,AMSA15.jpg,AMSA10.jpg,AMNE14.jpg,AMNE15.jpg,AMSA15.jpg,MS,2,num_8,16,num_8,0.600162165938,,,2017_Sep_21_1456,60.0056968753,FEMA4ImagesEEG,001,201556,
AFNE01.JPG,AFNE01.JPG,AFNE01.JPG,AFNE01.JPG,AFNE01.JPG,AFNE01.JPG,,,,,,,,,,,,,3,1,31,6,,,,,,,,,,,AMNE16.jpg,AMNE11.jpg,AMSA15.jpg,AMSA10.jpg,AMSA15.jpg,MS,2,num_2,16,num_2,0.766787029555,,,2017_Sep_21_1456,60.0056968753,FEMA4ImagesEEG,001,201556,
AFNE01.JPG,AFNE01.JPG,AFNE01.JPG,AFNE01.JPG,AFNE01.JPG,AFNE01.JPG,,,,,,,,,,,,,3,2,32,4,,,,,,,,,,,AMNE11.jpg,AMSA05.jpg,AMNE20.jpg,AMSA08.jpg,AMSA05.jpg,MS,2,num_6,16,num_6,0.733487844278,,,2017_Sep_21_1456,60.0056968753,FEMA4ImagesEEG,001,201556,
AFNE01.JPG,AFNE01.JPG,AFNE01.JPG,AFNE01.JPG,AFNE01.JPG,AFNE01.JPG,,,,,,,,,,,,,3,3,33,0,,,,,,,,,,,AMNE18.jpg,AMNE17.jpg,AMSA03.jpg,AMSA16.jpg,AMNE17.jpg,MN,1,num_6,32,num_8,0.816821124172,,,2017_Sep_21_1456,60.0056968753,FEMA4ImagesEEG,001,201556,
AFNE01.JPG,AFNE01.JPG,AFNE01.JPG,AFNE01.JPG,AFNE01.JPG,AFNE01.JPG,,,,,,,,,,,,,3,4,34,2,,,,,,,,,,,AMNE05.jpg,AMSA18.jpg,AMSA03.jpg,AMNE17.jpg,AMSA03.jpg,MS,2,num_2,16,num_2,0.700184810165,,,2017_Sep_21_1456,60.0056968753,FEMA4ImagesEEG,001,201556,
AFNE01.JPG,AFNE01.JPG,AFNE01.JPG,AFNE01.JPG,AFNE01.JPG,AFNE01.JPG,,,,,,,,,,,,,3,5,35,7,,,,,,,,,,,AMSA12.jpg,AMNE19.jpg,AMNE07.jpg,AMSA19.jpg,AMSA19.jpg,MS,2,num_4,32,num_6,0.666904548532,,,2017_Sep_21_1456,60.0056968753,FEMA4ImagesEEG,001,201556,
AFNE01.JPG,AFNE01.JPG,AFNE01.JPG,AFNE01.JPG,AFNE01.JPG,AFNE01.JPG,,,,,,,,,,,,,3,6,36,9,,,,,,,,,,,AMSA12.jpg,AMNE16.jpg,AMSA03.jpg,AMNE04.jpg,AMNE16.jpg,MN,1,num_6,16,num_6,1.10009513136,,,2017_Sep_21_1456,60.0056968753,FEMA4ImagesEEG,001,201556,
AFNE01.JPG,AFNE01.JPG,AFNE01.JPG,AFNE01.JPG,AFNE01.JPG,AFNE01.JPG,,,,,,,,,,,,,3,7,37,3,,,,,,,,,,,AMNE01.jpg,AMNE13.jpg,AMSA08.jpg,AMSA20.jpg,AMSA08.jpg,MS,2,num_2,32,num_4,0.850160081129,,,2017_Sep_21_1456,60.0056968753,FEMA4ImagesEEG,001,201556,
AFNE01.JPG,AFNE01.JPG,AFNE01.JPG,AFNE01.JPG,AFNE01.JPG,AFNE01.JPG,,,,,,,,,,,,,3,8,38,8,,,,,,,,,,,AMSA18.jpg,AMNE03.jpg,AMSA04.jpg,AMNE16.jpg,AMSA04.jpg,MS,2,num_2,16,num_2,0.850120630159,,,2017_Sep_21_1456,60.0056968753,FEMA4ImagesEEG,001,201556,
AFNE01.JPG,AFNE01.JPG,AFNE01.JPG,AFNE01.JPG,AFNE01.JPG,AFNE01.JPG,,,,,,,,,,,,,3,9,39,5,,,,,,,,,,,AMNE18.jpg,AMSA12.jpg,AMSA01.jpg,AMNE04.jpg,AMNE04.jpg,MN,1,num_4,32,num_2,0.88349518922,,,2017_Sep_21_1456,60.0056968753,FEMA4ImagesEEG,001,201556,
AFNE01.JPG,AFNE01.JPG,AFNE01.JPG,AFNE01.JPG,AFNE01.JPG,AFNE01.JPG,,,,,,,,,,,,,4,0,40,2,,,,,,,,,,,AMSA09.jpg,AMNE11.jpg,AMSA04.jpg,AMNE07.jpg,AMSA09.jpg,MS,2,num_8,16,num_8,0.966750208652,,,2017_Sep_21_1456,60.0056968753,FEMA4ImagesEEG,001,201556,
AFNE01.JPG,AFNE01.JPG,AFNE01.JPG,AFNE01.JPG,AFNE01.JPG,AFNE01.JPG,,,,,,,,,,,,,4,1,41,3,,,,,,,,,,,AMSA09.jpg,AMNE05.jpg,AMSA17.jpg,AMNE15.jpg,AMNE05.jpg,MN,1,num_6,16,num_6,1.3333735327,,,2017_Sep_21_1456,60.0056968753,FEMA4ImagesEEG,001,201556,
AFNE01.JPG,AFNE01.JPG,AFNE01.JPG,AFNE01.JPG,AFNE01.JPG,AFNE01.JPG,,,,,,,,,,,,,4,2,42,1,,,,,,,,,,,AMNE09.jpg,AMNE14.jpg,AMSA01.jpg,AMSA16.jpg,AMNE09.jpg,MN,1,num_8,32,num_4,0.86659445749,,,2017_Sep_21_1456,60.0056968753,FEMA4ImagesEEG,001,201556,
AFNE01.JPG,AFNE01.JPG,AFNE01.JPG,AFNE01.JPG,AFNE01.JPG,AFNE01.JPG,,,,,,,,,,,,,4,3,43,0,,,,,,,,,,,AMSA08.jpg,AMNE08.jpg,AMSA10.jpg,AMNE01.jpg,AMSA10.jpg,MS,2,num_2,16,num_2,0.650214221983,,,2017_Sep_21_1456,60.0056968753,FEMA4ImagesEEG,001,201556,
AFNE01.JPG,AFNE01.JPG,AFNE01.JPG,AFNE01.JPG,AFNE01.JPG,AFNE01.JPG,,,,,,,,,,,,,4,4,44,5,,,,,,,,,,,AMSA15.jpg,AMSA04.jpg,AMNE16.jpg,AMNE17.jpg,AMSA15.jpg,MS,2,num_8,32,num_6,0.883482038902,,,2017_Sep_21_1456,60.0056968753,FEMA4ImagesEEG,001,201556,
AFNE01.JPG,AFNE01.JPG,AFNE01.JPG,AFNE01.JPG,AFNE01.JPG,AFNE01.JPG,,,,,,,,,,,,,4,5,45,4,,,,,,,,,,,AMSA01.jpg,AMSA05.jpg,AMNE11.jpg,AMNE19.jpg,AMNE11.jpg,MN,1,num_2,16,num_2,0.783478959798,,,2017_Sep_21_1456,60.0056968753,FEMA4ImagesEEG,001,201556,
AFNE01.JPG,AFNE01.JPG,AFNE01.JPG,AFNE01.JPG,AFNE01.JPG,AFNE01.JPG,,,,,,,,,,,,,4,6,46,8,,,,,,,,,,,AMSA19.jpg,AMSA02.jpg,AMNE17.jpg,AMNE12.jpg,AMSA02.jpg,MS,2,num_6,32,num_8,1.05010337438,,,2017_Sep_21_1456,60.0056968753,FEMA4ImagesEEG,001,201556,
AFNE01.JPG,AFNE01.JPG,AFNE01.JPG,AFNE01.JPG,AFNE01.JPG,AFNE01.JPG,,,,,,,,,,,,,4,7,47,9,,,,,,,,,,,AMSA19.jpg,AMNE09.jpg,AMSA04.jpg,AMNE19.jpg,AMNE09.jpg,MN,1,num_6,16,num_6,0.633475784489,,,2017_Sep_21_1456,60.0056968753,FEMA4ImagesEEG,001,201556,
AFNE01.JPG,AFNE01.JPG,AFNE01.JPG,AFNE01.JPG,AFNE01.JPG,AFNE01.JPG,,,,,,,,,,,,,4,8,48,7,,,,,,,,,,,AMNE15.jpg,AMSA05.jpg,AMNE06.jpg,AMSA17.jpg,AMNE06.jpg,MN,1,num_2,32,num_8,0.91680271372,,,2017_Sep_21_1456,60.0056968753,FEMA4ImagesEEG,001,201556,
AFNE01.JPG,AFNE01.JPG,AFNE01.JPG,AFNE01.JPG,AFNE01.JPG,AFNE01.JPG,,,,,,,,,,,,,4,9,49,6,,,,,,,,,,,AMSA06.jpg,AMSA11.jpg,AMNE18.jpg,AMNE09.jpg,AMNE18.jpg,MN,1,num_2,16,num_2,0.716780197792,,,2017_Sep_21_1456,60.0056968753,FEMA4ImagesEEG,001,201556,
AFNE01.JPG,AFNE01.JPG,AFNE01.JPG,AFNE01.JPG,AFNE01.JPG,AFNE01.JPG,,,,,,,,,,,,,5,0,50,3,,,,,,,,,,,AMSA17.jpg,AMNE06.jpg,AMNE08.jpg,AMSA13.jpg,AMNE06.jpg,MN,1,num_6,32,num_4,0.816779107277,,,2017_Sep_21_1456,60.0056968753,FEMA4ImagesEEG,001,201556,
AFNE01.JPG,AFNE01.JPG,AFNE01.JPG,AFNE01.JPG,AFNE01.JPG,AFNE01.JPG,,,,,,,,,,,,,5,1,51,0,,,,,,,,,,,AMSA01.jpg,AMNE07.jpg,AMSA20.jpg,AMNE19.jpg,AMNE19.jpg,MN,1,num_4,16,num_4,0.816843896682,,,2017_Sep_21_1456,60.0056968753,FEMA4ImagesEEG,001,201556,
AFNE01.JPG,AFNE01.JPG,AFNE01.JPG,AFNE01.JPG,AFNE01.JPG,AFNE01.JPG,,,,,,,,,,,,,5,2,52,5,,,,,,,,,,,AMNE12.jpg,AMSA08.jpg,AMSA17.jpg,AMNE13.jpg,AMNE12.jpg,MN,1,num_8,32,num_4,0.766738277132,,,2017_Sep_21_1456,60.0056968753,FEMA4ImagesEEG,001,201556,
AFNE01.JPG,AFNE01.JPG,AFNE01.JPG,AFNE01.JPG,AFNE01.JPG,AFNE01.JPG,,,,,,,,,,,,,5,3,53,2,,,,,,,,,,,AMNE05.jpg,AMSA16.jpg,AMNE18.jpg,AMSA09.jpg,AMNE18.jpg,MN,1,num_2,32,num_8,0.900126499691,,,2017_Sep_21_1456,60.0056968753,FEMA4ImagesEEG,001,201556,
AFNE01.JPG,AFNE01.JPG,AFNE01.JPG,AFNE01.JPG,AFNE01.JPG,AFNE01.JPG,,,,,,,,,,,,,5,4,54,9,,,,,,,,,,,AMNE07.jpg,AMNE09.jpg,AMSA01.jpg,AMSA06.jpg,AMNE07.jpg,MN,1,num_8,16,num_8,0.75011755107,,,2017_Sep_21_1456,60.0056968753,FEMA4ImagesEEG,001,201556,
AFNE01.JPG,AFNE01.JPG,AFNE01.JPG,AFNE01.JPG,AFNE01.JPG,AFNE01.JPG,,,,,,,,,,,,,5,5,55,8,,,,,,,,,,,AMNE14.jpg,AMNE16.jpg,AMSA20.jpg,AMSA02.jpg,AMSA20.jpg,MS,2,num_2,16,num_2,1.38336785561,,,2017_Sep_21_1456,60.0056968753,FEMA4ImagesEEG,001,201556,
AFNE01.JPG,AFNE01.JPG,AFNE01.JPG,AFNE01.JPG,AFNE01.JPG,AFNE01.JPG,,,,,,,,,,,,,5,6,56,7,,,,,,,,,,,AMNE17.jpg,AMSA03.jpg,AMNE06.jpg,AMSA13.jpg,AMSA03.jpg,MS,2,num_6,16,num_6,0.600163769646,,,2017_Sep_21_1456,60.0056968753,FEMA4ImagesEEG,001,201556,
AFNE01.JPG,AFNE01.JPG,AFNE01.JPG,AFNE01.JPG,AFNE01.JPG,AFNE01.JPG,,,,,,,,,,,,,5,7,57,6,,,,,,,,,,,AMSA17.jpg,AMNE16.jpg,AMSA18.jpg,AMNE17.jpg,AMSA17.jpg,MS,2,num_8,32,num_2,0.683582045502,,,2017_Sep_21_1456,60.0056968753,FEMA4ImagesEEG,001,201556,
AFNE01.JPG,AFNE01.JPG,AFNE01.JPG,AFNE01.JPG,AFNE01.JPG,AFNE01.JPG,,,,,,,,,,,,,5,8,58,1,,,,,,,,,,,AMNE19.jpg,AMNE18.jpg,AMSA03.jpg,AMSA04.jpg,AMNE18.jpg,MN,1,num_6,16,num_6,0.616746648433,,,2017_Sep_21_1456,60.0056968753,FEMA4ImagesEEG,001,201556,
AFNE01.JPG,AFNE01.JPG,AFNE01.JPG,AFNE01.JPG,AFNE01.JPG,AFNE01.JPG,,,,,,,,,,,,,5,9,59,4,,,,,,,,,,,AMNE13.jpg,AMSA05.jpg,AMNE17.jpg,AMSA12.jpg,AMNE17.jpg,MN,1,num_2,16,num_2,1.04980733173,,,2017_Sep_21_1456,60.0056968753,FEMA4ImagesEEG,001,201556,
,,,,,,,,,,,,,,,,,,,,,,,,,,,,,,,,,,,,,,,,,,,space,2.61661129631,2017_Sep_21_1456,60.0056968753,FEMA4ImagesEEG,001,201556,
AFNE01.JPG,AFNE01.JPG,AFNE01.JPG,AFNE01.JPG,AFNE01.JPG,AFNE01.JPG,,,,,,,,,,,,,,,,,0,0,0,8,,,,,,,AFNE13.jpg,AFSA20.jpg,AFSA01.jpg,AFNE14.jpg,AFSA01.jpg,FS,4,num_2,32,num_6,0.783474469441,,,2017_Sep_21_1456,60.0056968753,FEMA4ImagesEEG,001,201556,
AFNE01.JPG,AFNE01.JPG,AFNE01.JPG,AFNE01.JPG,AFNE01.JPG,AFNE01.JPG,,,,,,,,,,,,,,,,,0,1,1,6,,,,,,,AFSA02.jpg,AFSA01.jpg,AFNE10.jpg,AFNE08.jpg,AFSA02.jpg,FS,4,num_8,32,num_4,0.816618095996,,,2017_Sep_21_1456,60.0056968753,FEMA4ImagesEEG,001,201556,
AFNE01.JPG,AFNE01.JPG,AFNE01.JPG,AFNE01.JPG,AFNE01.JPG,AFNE01.JPG,,,,,,,,,,,,,,,,,0,2,2,9,,,,,,,AFNE08.jpg,AFNE20.jpg,AFSA17.jpg,AFSA09.jpg,AFSA09.jpg,FS,4,num_4,32,num_6,1.20006164614,,,2017_Sep_21_1456,60.0056968753,FEMA4ImagesEEG,001,201556,
AFNE01.JPG,AFNE01.JPG,AFNE01.JPG,AFNE01.JPG,AFNE01.JPG,AFNE01.JPG,,,,,,,,,,,,,,,,,0,3,3,2,,,,,,,AFNE07.jpg,AFNE18.jpg,AFSA14.jpg,AFSA18.jpg,AFSA14.jpg,FS,4,num_2,32,num_6,0.900117518991,,,2017_Sep_21_1456,60.0056968753,FEMA4ImagesEEG,001,201556,
AFNE01.JPG,AFNE01.JPG,AFNE01.JPG,AFNE01.JPG,AFNE01.JPG,AFNE01.JPG,,,,,,,,,,,,,,,,,0,4,4,4,,,,,,,AFNE18.jpg,AFSA20.jpg,AFNE17.jpg,AFSA09.jpg,AFNE17.jpg,FN,3,num_2,32,num_8,1.08344618022,,,2017_Sep_21_1456,60.0056968753,FEMA4ImagesEEG,001,201556,
AFNE01.JPG,AFNE01.JPG,AFNE01.JPG,AFNE01.JPG,AFNE01.JPG,AFNE01.JPG,,,,,,,,,,,,,,,,,0,5,5,3,,,,,,,AFSA11.jpg,AFSA07.jpg,AFNE13.jpg,AFNE20.jpg,AFSA11.jpg,FS,4,num_8,16,num_8,0.550167522291,,,2017_Sep_21_1456,60.0056968753,FEMA4ImagesEEG,001,201556,
AFNE01.JPG,AFNE01.JPG,AFNE01.JPG,AFNE01.JPG,AFNE01.JPG,AFNE01.JPG,,,,,,,,,,,,,,,,,0,6,6,5,,,,,,,AFSA06.jpg,AFNE16.jpg,AFNE06.jpg,AFSA19.jpg,AFNE16.jpg,FN,3,num_6,32,num_2,0.783561389879,,,2017_Sep_21_1456,60.0056968753,FEMA4ImagesEEG,001,201556,
AFNE01.JPG,AFNE01.JPG,AFNE01.JPG,AFNE01.JPG,AFNE01.JPG,AFNE01.JPG,,,,,,,,,,,,,,,,,0,7,7,0,,,,,,,AFSA13.jpg,AFNE04.jpg,AFSA09.jpg,AFNE19.jpg,AFNE04.jpg,FN,3,num_6,32,num_8,0.900110141985,,,2017_Sep_21_1456,60.0056968753,FEMA4ImagesEEG,001,201556,
AFNE01.JPG,AFNE01.JPG,AFNE01.JPG,AFNE01.JPG,AFNE01.JPG,AFNE01.JPG,,,,,,,,,,,,,,,,,0,8,8,1,,,,,,,AFNE09.jpg,AFNE14.jpg,AFSA07.jpg,AFSA10.jpg,AFSA10.jpg,FS,4,num_4,16,num_4,0.783576143906,,,2017_Sep_21_1456,60.0056968753,FEMA4ImagesEEG,001,201556,
AFNE01.JPG,AFNE01.JPG,AFNE01.JPG,AFNE01.JPG,AFNE01.JPG,AFNE01.JPG,,,,,,,,,,,,,,,,,0,9,9,7,,,,,,,AFSA10.jpg,AFNE16.jpg,AFNE05.jpg,AFSA03.jpg,AFSA10.jpg,FS,4,num_8,32,num_6,0.999989736345,,,2017_Sep_21_1456,60.0056968753,FEMA4ImagesEEG,001,201556,
AFNE01.JPG,AFNE01.JPG,AFNE01.JPG,AFNE01.JPG,AFNE01.JPG,AFNE01.JPG,,,,,,,,,,,,,,,,,1,0,10,2,,,,,,,AFNE05.jpg,AFSA14.jpg,AFNE18.jpg,AFSA13.jpg,AFSA13.jpg,FS,4,num_4,32,num_6,1.21673946385,,,2017_Sep_21_1456,60.0056968753,FEMA4ImagesEEG,001,201556,
AFNE01.JPG,AFNE01.JPG,AFNE01.JPG,AFNE01.JPG,AFNE01.JPG,AFNE01.JPG,,,,,,,,,,,,,,,,,1,1,11,4,,,,,,,AFNE14.jpg,AFSA09.jpg,AFSA14.jpg,AFNE05.jpg,AFSA14.jpg,FS,4,num_2,16,num_2,1.10010603651,,,2017_Sep_21_1456,60.0056968753,FEMA4ImagesEEG,001,201556,
AFNE01.JPG,AFNE01.JPG,AFNE01.JPG,AFNE01.JPG,AFNE01.JPG,AFNE01.JPG,,,,,,,,,,,,,,,,,1,2,12,8,,,,,,,AFSA04.jpg,AFSA01.jpg,AFNE01.jpg,AFNE12.jpg,AFSA01.jpg,FS,4,num_6,32,num_8,0.916766790877,,,2017_Sep_21_1456,60.0056968753,FEMA4ImagesEEG,001,201556,
AFNE01.JPG,AFNE01.JPG,AFNE01.JPG,AFNE01.JPG,AFNE01.JPG,AFNE01.JPG,,,,,,,,,,,,,,,,,1,3,13,3,,,,,,,AFNE04.jpg,AFSA11.jpg,AFSA03.jpg,AFNE14.jpg,AFNE14.jpg,FN,3,num_4,32,num_8,0.783441433276,,,2017_Sep_21_1456,60.0056968753,FEMA4ImagesEEG,001,201556,
AFNE01.JPG,AFNE01.JPG,AFNE01.JPG,AFNE01.JPG,AFNE01.JPG,AFNE01.JPG,,,,,,,,,,,,,,,,,1,4,14,7,,,,,,,AFNE04.jpg,AFSA19.jpg,AFNE20.jpg,AFSA18.jpg,AFSA19.jpg,FS,4,num_6,32,num_4,1.28347992201,,,2017_Sep_21_1456,60.0056968753,FEMA4ImagesEEG,001,201556,
AFNE01.JPG,AFNE01.JPG,AFNE01.JPG,AFNE01.JPG,AFNE01.JPG,AFNE01.JPG,,,,,,,,,,,,,,,,,1,5,15,0,,,,,,,AFSA17.jpg,AFNE01.jpg,AFSA12.jpg,AFNE10.jpg,AFSA17.jpg,FS,4,num_8,16,num_8,1.03345506469,,,2017_Sep_21_1456,60.0056968753,FEMA4ImagesEEG,001,201556,
AFNE01.JPG,AFNE01.JPG,AFNE01.JPG,AFNE01.JPG,AFNE01.JPG,AFNE01.JPG,,,,,,,,,,,,,,,,,1,6,16,9,,,,,,,AFSA13.jpg,AFNE07.jpg,AFNE15.jpg,AFSA04.jpg,AFSA13.jpg,FS,4,num_8,32,num_4,1.05013993868,,,2017_Sep_21_1456,60.0056968753,FEMA4ImagesEEG,001,201556,
AFNE01.JPG,AFNE01.JPG,AFNE01.JPG,AFNE01.JPG,AFNE01.JPG,AFNE01.JPG,,,,,,,,,,,,,,,,,1,7,17,6,,,,,,,AFSA02.jpg,AFNE09.jpg,AFSA05.jpg,AFNE05.jpg,AFSA02.jpg,FS,4,num_8,16,num_8,0.833458528694,,,2017_Sep_21_1456,60.0056968753,FEMA4ImagesEEG,001,201556,
AFNE01.JPG,AFNE01.JPG,AFNE01.JPG,AFNE01.JPG,AFNE01.JPG,AFNE01.JPG,,,,,,,,,,,,,,,,,1,8,18,1,,,,,,,AFSA02.jpg,AFNE19.jpg,AFSA15.jpg,AFNE08.jpg,AFNE19.jpg,FN,3,num_6,32,num_4,1.01674581452,,,2017_Sep_21_1456,60.0056968753,FEMA4ImagesEEG,001,201556,
AFNE01.JPG,AFNE01.JPG,AFNE01.JPG,AFNE01.JPG,AFNE01.JPG,AFNE01.JPG,,,,,,,,,,,,,,,,,1,9,19,5,,,,,,,AFSA14.jpg,AFNE09.jpg,AFNE15.jpg,AFSA16.jpg,AFSA16.jpg,FS,4,num_4,32,num_8,0.70014920806,,,2017_Sep_21_1456,60.0056968753,FEMA4ImagesEEG,001,201556,
AFNE01.JPG,AFNE01.JPG,AFNE01.JPG,AFNE01.JPG,AFNE01.JPG,AFNE01.JPG,,,,,,,,,,,,,,,,,2,0,20,7,,,,,,,AFSA19.jpg,AFNE02.jpg,AFNE05.jpg,AFSA16.jpg,AFNE05.jpg,FN,3,num_2,32,num_6,0.800150362731,,,2017_Sep_21_1456,60.0056968753,FEMA4ImagesEEG,001,201556,
AFNE01.JPG,AFNE01.JPG,AFNE01.JPG,AFNE01.JPG,AFNE01.JPG,AFNE01.JPG,,,,,,,,,,,,,,,,,2,1,21,4,,,,,,,AFSA07.jpg,AFSA03.jpg,AFNE06.jpg,AFNE19.jpg,AFSA03.jpg,FS,4,num_6,16,num_6,0.833132978005,,,2017_Sep_21_1456,60.0056968753,FEMA4ImagesEEG,001,201556,
AFNE01.JPG,AFNE01.JPG,AFNE01.JPG,AFNE01.JPG,AFNE01.JPG,AFNE01.JPG,,,,,,,,,,,,,,,,,2,2,22,1,,,,,,,AFNE17.jpg,AFNE02.jpg,AFSA02.jpg,AFSA07.jpg,AFSA07.jpg,FS,4,num_4,16,num_4,0.666816665878,,,2017_Sep_21_1456,60.0056968753,FEMA4ImagesEEG,001,201556,
AFNE01.JPG,AFNE01.JPG,AFNE01.JPG,AFNE01.JPG,AFNE01.JPG,AFNE01.JPG,,,,,,,,,,,,,,,,,2,3,23,2,,,,,,,AFSA11.jpg,AFNE16.jpg,AFNE10.jpg,AFSA10.jpg,AFNE16.jpg,FN,3,num_6,16,num_6,0.666753159443,,,2017_Sep_21_1456,60.0056968753,FEMA4ImagesEEG,001,201556,
AFNE01.JPG,AFNE01.JPG,AFNE01.JPG,AFNE01.JPG,AFNE01.JPG,AFNE01.JPG,,,,,,,,,,,,,,,,,2,4,24,9,,,,,,,AFSA20.jpg,AFNE04.jpg,AFNE20.jpg,AFSA06.jpg,AFNE04.jpg,FN,3,num_6,32,num_8,1.18344893858,,,2017_Sep_21_1456,60.0056968753,FEMA4ImagesEEG,001,201556,
AFNE01.JPG,AFNE01.JPG,AFNE01.JPG,AFNE01.JPG,AFNE01.JPG,AFNE01.JPG,,,,,,,,,,,,,,,,,2,5,25,5,,,,,,,AFNE01.jpg,AFSA10.jpg,AFSA05.jpg,AFNE15.jpg,AFSA10.jpg,FS,4,num_6,32,num_2,1.1168460777,,,2017_Sep_21_1456,60.0056968753,FEMA4ImagesEEG,001,201556,
AFNE01.JPG,AFNE01.JPG,AFNE01.JPG,AFNE01.JPG,AFNE01.JPG,AFNE01.JPG,,,,,,,,,,,,,,,,,2,6,26,6,,,,,,,AFNE18.jpg,AFSA15.jpg,AFSA05.jpg,AFNE08.jpg,AFNE08.jpg,FN,3,num_4,16,num_4,0.883323272792,,,2017_Sep_21_1456,60.0056968753,FEMA4ImagesEEG,001,201556,
AFNE01.JPG,AFNE01.JPG,AFNE01.JPG,AFNE01.JPG,AFNE01.JPG,AFNE01.JPG,,,,,,,,,,,,,,,,,2,7,27,3,,,,,,,AFNE15.jpg,AFNE16.jpg,AFSA12.jpg,AFSA04.jpg,AFSA04.jpg,FS,4,num_4,16,num_4,1.05019670959,,,2017_Sep_21_1456,60.0056968753,FEMA4ImagesEEG,001,201556,
AFNE01.JPG,AFNE01.JPG,AFNE01.JPG,AFNE01.JPG,AFNE01.JPG,AFNE01.JPG,,,,,,,,,,,,,,,,,2,8,28,8,,,,,,,AFSA11.jpg,AFNE17.jpg,AFNE14.jpg,AFSA04.jpg,AFNE14.jpg,FN,3,num_2,32,num_4,0.933443967122,,,2017_Sep_21_1456,60.0056968753,FEMA4ImagesEEG,001,201556,
AFNE01.JPG,AFNE01.JPG,AFNE01.JPG,AFNE01.JPG,AFNE01.JPG,AFNE01.JPG,,,,,,,,,,,,,,,,,2,9,29,0,,,,,,,AFSA13.jpg,AFSA03.jpg,AFNE13.jpg,AFNE10.jpg,AFNE10.jpg,FN,3,num_4,16,num_4,0.833464943484,,,2017_Sep_21_1456,60.0056968753,FEMA4ImagesEEG,001,201556,
AFNE01.JPG,AFNE01.JPG,AFNE01.JPG,AFNE01.JPG,AFNE01.JPG,AFNE01.JPG,,,,,,,,,,,,,,,,,3,0,30,8,,,,,,,AFSA20.jpg,AFSA03.jpg,AFNE17.jpg,AFNE20.jpg,AFSA20.jpg,FS,4,num_8,16,num_8,0.900164988445,,,2017_Sep_21_1456,60.0056968753,FEMA4ImagesEEG,001,201556,
AFNE01.JPG,AFNE01.JPG,AFNE01.JPG,AFNE01.JPG,AFNE01.JPG,AFNE01.JPG,,,,,,,,,,,,,,,,,3,1,31,4,,,,,,,AFSA09.jpg,AFSA01.jpg,AFNE10.jpg,AFNE15.jpg,AFNE15.jpg,FN,3,num_4,16,num_4,0.649982006522,,,2017_Sep_21_1456,60.0056968753,FEMA4ImagesEEG,001,201556,
AFNE01.JPG,AFNE01.JPG,AFNE01.JPG,AFNE01.JPG,AFNE01.JPG,AFNE01.JPG,,,,,,,,,,,,,,,,,3,2,32,5,,,,,,,AFSA12.jpg,AFNE10.jpg,AFSA18.jpg,AFNE19.jpg,AFSA12.jpg,FS,4,num_8,16,num_8,0.666666559759,,,2017_Sep_21_1456,60.0056968753,FEMA4ImagesEEG,001,201556,
AFNE01.JPG,AFNE01.JPG,AFNE01.JPG,AFNE01.JPG,AFNE01.JPG,AFNE01.JPG,,,,,,,,,,,,,,,,,3,3,33,0,,,,,,,AFSA01.jpg,AFSA05.jpg,AFNE20.jpg,AFNE10.jpg,AFNE20.jpg,FN,3,num_2,32,num_4,0.866587401222,,,2017_Sep_21_1456,60.0056968753,FEMA4ImagesEEG,001,201556,
AFNE01.JPG,AFNE01.JPG,AFNE01.JPG,AFNE01.JPG,AFNE01.JPG,AFNE01.JPG,,,,,,,,,,,,,,,,,3,4,34,7,,,,,,,AFSA11.jpg,AFSA19.jpg,AFNE17.jpg,AFNE04.jpg,AFNE17.jpg,FN,3,num_2,16,num_2,0.716842100534,,,2017_Sep_21_1456,60.0056968753,FEMA4ImagesEEG,001,201556,
AFNE01.JPG,AFNE01.JPG,AFNE01.JPG,AFNE01.JPG,AFNE01.JPG,AFNE01.JPG,,,,,,,,,,,,,,,,,3,5,35,2,,,,,,,AFNE11.jpg,AFSA17.jpg,AFSA15.jpg,AFNE02.jpg,AFSA15.jpg,FS,4,num_2,32,num_4,0.883764931234,,,2017_Sep_21_1456,60.0056968753,FEMA4ImagesEEG,001,201556,
AFNE01.JPG,AFNE01.JPG,AFNE01.JPG,AFNE01.JPG,AFNE01.JPG,AFNE01.JPG,,,,,,,,,,,,,,,,,3,6,36,6,,,,,,,AFNE02.jpg,AFSA08.jpg,AFSA05.jpg,AFNE13.jpg,AFNE13.jpg,FN,3,num_4,16,num_4,0.850135384186,,,2017_Sep_21_1456,60.0056968753,FEMA4ImagesEEG,001,201556,
AFNE01.JPG,AFNE01.JPG,AFNE01.JPG,AFNE01.JPG,AFNE01.JPG,AFNE01.JPG,,,,,,,,,,,,,,,,,3,7,37,1,,,,,,,AFSA16.jpg,AFNE09.jpg,AFSA19.jpg,AFNE01.jpg,AFNE09.jpg,FN,3,num_6,32,num_4,0.700140868837,,,2017_Sep_21_1456,60.0056968753,FEMA4ImagesEEG,001,201556,
AFNE01.JPG,AFNE01.JPG,AFNE01.JPG,AFNE01.JPG,AFNE01.JPG,AFNE01.JPG,,,,,,,,,,,,,,,,,3,8,38,3,,,,,,,AFSA18.jpg,AFSA17.jpg,AFNE14.jpg,AFNE04.jpg,AFSA18.jpg,FS,4,num_8,16,num_8,0.883457341944,,,2017_Sep_21_1456,60.0056968753,FEMA4ImagesEEG,001,201556,
AFNE01.JPG,AFNE01.JPG,AFNE01.JPG,AFNE01.JPG,AFNE01.JPG,AFNE01.JPG,,,,,,,,,,,,,,,,,3,9,39,9,,,,,,,AFNE12.jpg,AFNE20.jpg,AFSA07.jpg,AFSA05.jpg,AFNE20.jpg,FN,3,num_6,32,num_2,1.20011200226,,,2017_Sep_21_1456,60.0056968753,FEMA4ImagesEEG,001,201556,
AFNE01.JPG,AFNE01.JPG,AFNE01.JPG,AFNE01.JPG,AFNE01.JPG,AFNE01.JPG,,,,,,,,,,,,,,,,,4,0,40,1,,,,,,,AFSA17.jpg,AFNE08.jpg,AFSA19.jpg,AFNE06.jpg,AFNE08.jpg,FN,3,num_6,16,num_6,0.533479440914,,,2017_Sep_21_1456,60.0056968753,FEMA4ImagesEEG,001,201556,
AFNE01.JPG,AFNE01.JPG,AFNE01.JPG,AFNE01.JPG,AFNE01.JPG,AFNE01.JPG,,,,,,,,,,,,,,,,,4,1,41,0,,,,,,,AFNE06.jpg,AFNE12.jpg,AFSA05.jpg,AFSA01.jpg,AFNE12.jpg,FN,3,num_6,32,num_8,0.783456828765,,,2017_Sep_21_1456,60.0056968753,FEMA4ImagesEEG,001,201556,
AFNE01.JPG,AFNE01.JPG,AFNE01.JPG,AFNE01.JPG,AFNE01.JPG,AFNE01.JPG,,,,,,,,,,,,,,,,,4,2,42,2,,,,,,,AFNE14.jpg,AFSA10.jpg,AFNE17.jpg,AFSA19.jpg,AFNE17.jpg,FN,3,num_2,16,num_2,0.583462217197,,,2017_Sep_21_1456,60.0056968753,FEMA4ImagesEEG,001,201556,
AFNE01.JPG,AFNE01.JPG,AFNE01.JPG,AFNE01.JPG,AFNE01.JPG,AFNE01.JPG,,,,,,,,,,,,,,,,,4,3,43,7,,,,,,,AFNE16.jpg,AFSA06.jpg,AFSA07.jpg,AFNE20.jpg,AFNE16.jpg,FN,3,num_8,16,num_8,0.950110879683,,,2017_Sep_21_1456,60.0056968753,FEMA4ImagesEEG,001,201556,
AFNE01.JPG,AFNE01.JPG,AFNE01.JPG,AFNE01.JPG,AFNE01.JPG,AFNE01.JPG,,,,,,,,,,,,,,,,,4,4,44,6,,,,,,,AFSA04.jpg,AFNE08.jpg,AFNE10.jpg,AFSA02.jpg,AFNE08.jpg,FN,3,num_6,16,num_6,1.16663705171,,,2017_Sep_21_1456,60.0056968753,FEMA4ImagesEEG,001,201556,
AFNE01.JPG,AFNE01.JPG,AFNE01.JPG,AFNE01.JPG,AFNE01.JPG,AFNE01.JPG,,,,,,,,,,,,,,,,,4,5,45,3,,,,,,,AFNE02.jpg,AFNE07.jpg,AFSA07.jpg,AFSA06.jpg,AFSA06.jpg,FS,4,num_4,16,num_4,0.616805664526,,,2017_Sep_21_1456,60.0056968753,FEMA4ImagesEEG,001,201556,
AFNE01.JPG,AFNE01.JPG,AFNE01.JPG,AFNE01.JPG,AFNE01.JPG,AFNE01.JPG,,,,,,,,,,,,,,,,,4,6,46,5,,,,,,,AFSA11.jpg,AFNE10.jpg,AFSA14.jpg,AFNE17.jpg,AFNE10.jpg,FN,3,num_6,16,num_6,0.716850119032,,,2017_Sep_21_1456,60.0056968753,FEMA4ImagesEEG,001,201556,
AFNE01.JPG,AFNE01.JPG,AFNE01.JPG,AFNE01.JPG,AFNE01.JPG,AFNE01.JPG,,,,,,,,,,,,,,,,,4,7,47,4,,,,,,,AFNE13.jpg,AFNE04.jpg,AFSA09.jpg,AFSA14.jpg,AFNE04.jpg,FN,3,num_6,16,num_6,0.833506639639,,,2017_Sep_21_1456,60.0056968753,FEMA4ImagesEEG,001,201556,
AFNE01.JPG,AFNE01.JPG,AFNE01.JPG,AFNE01.JPG,AFNE01.JPG,AFNE01.JPG,,,,,,,,,,,,,,,,,4,8,48,9,,,,,,,AFSA02.jpg,AFNE13.jpg,AFSA10.jpg,AFNE20.jpg,AFNE20.jpg,FN,3,num_4,16,num_4,0.850125441255,,,2017_Sep_21_1456,60.0056968753,FEMA4ImagesEEG,001,201556,
AFNE01.JPG,AFNE01.JPG,AFNE01.JPG,AFNE01.JPG,AFNE01.JPG,AFNE01.JPG,,,,,,,,,,,,,,,,,4,9,49,8,,,,,,,AFNE08.jpg,AFNE13.jpg,AFSA09.jpg,AFSA10.jpg,AFNE13.jpg,FN,3,num_6,16,num_6,1.15010356682,,,2017_Sep_21_1456,60.0056968753,FEMA4ImagesEEG,001,201556,
AFNE01.JPG,AFNE01.JPG,AFNE01.JPG,AFNE01.JPG,AFNE01.JPG,AFNE01.JPG,,,,,,,,,,,,,,,,,5,0,50,0,,,,,,,AFSA11.jpg,AFNE07.jpg,AFNE02.jpg,AFSA17.jpg,AFNE02.jpg,FN,3,num_2,16,num_2,0.866774071677,,,2017_Sep_21_1456,60.0056968753,FEMA4ImagesEEG,001,201556,
AFNE01.JPG,AFNE01.JPG,AFNE01.JPG,AFNE01.JPG,AFNE01.JPG,AFNE01.JPG,,,,,,,,,,,,,,,,,5,1,51,3,,,,,,,AFNE10.jpg,AFSA11.jpg,AFSA16.jpg,AFNE17.jpg,AFNE17.jpg,FN,3,num_4,32,num_2,1.18338735658,,,2017_Sep_21_1456,60.0056968753,FEMA4ImagesEEG,001,201556,
AFNE01.JPG,AFNE01.JPG,AFNE01.JPG,AFNE01.JPG,AFNE01.JPG,AFNE01.JPG,,,,,,,,,,,,,,,,,5,2,52,1,,,,,,,AFNE20.jpg,AFSA08.jpg,AFSA07.jpg,AFNE17.jpg,AFNE17.jpg,FN,3,num_4,16,num_4,0.883445474596,,,2017_Sep_21_1456,60.0056968753,FEMA4ImagesEEG,001,201556,
AFNE01.JPG,AFNE01.JPG,AFNE01.JPG,AFNE01.JPG,AFNE01.JPG,AFNE01.JPG,,,,,,,,,,,,,,,,,5,3,53,2,,,,,,,AFSA16.jpg,AFNE15.jpg,AFSA11.jpg,AFNE01.jpg,AFSA11.jpg,FS,4,num_2,16,num_2,0.750166303493,,,2017_Sep_21_1456,60.0056968753,FEMA4ImagesEEG,001,201556,
AFNE01.JPG,AFNE01.JPG,AFNE01.JPG,AFNE01.JPG,AFNE01.JPG,AFNE01.JPG,,,,,,,,,,,,,,,,,5,4,54,5,,,,,,,AFSA13.jpg,AFSA04.jpg,AFNE02.jpg,AFNE08.jpg,AFSA13.jpg,FS,4,num_8,16,num_8,0.61680983413,,,2017_Sep_21_1456,60.0056968753,FEMA4ImagesEEG,001,201556,
AFNE01.JPG,AFNE01.JPG,AFNE01.JPG,AFNE01.JPG,AFNE01.JPG,AFNE01.JPG,,,,,,,,,,,,,,,,,5,5,55,4,,,,,,,AFNE09.jpg,AFSA11.jpg,AFSA02.jpg,AFNE04.jpg,AFNE09.jpg,FN,3,num_8,16,num_8,0.750165982739,,,2017_Sep_21_1456,60.0056968753,FEMA4ImagesEEG,001,201556,
AFNE01.JPG,AFNE01.JPG,AFNE01.JPG,AFNE01.JPG,AFNE01.JPG,AFNE01.JPG,,,,,,,,,,,,,,,,,5,6,56,8,,,,,,,AFNE04.jpg,AFSA11.jpg,AFNE01.jpg,AFSA15.jpg,AFNE04.jpg,FN,3,num_8,32,num_4,1.11683485183,,,2017_Sep_21_1456,60.0056968753,FEMA4ImagesEEG,001,201556,
AFNE01.JPG,AFNE01.JPG,AFNE01.JPG,AFNE01.JPG,AFNE01.JPG,AFNE01.JPG,,,,,,,,,,,,,,,,,5,7,57,6,,,,,,,AFNE17.jpg,AFNE14.jpg,AFSA09.jpg,AFSA16.jpg,AFNE14.jpg,FN,3,num_6,16,num_6,0.616808871913,,,2017_Sep_21_1456,60.0056968753,FEMA4ImagesEEG,001,201556,
AFNE01.JPG,AFNE01.JPG,AFNE01.JPG,AFNE01.JPG,AFNE01.JPG,AFNE01.JPG,,,,,,,,,,,,,,,,,5,8,58,7,,,,,,,AFSA12.jpg,AFSA15.jpg,AFNE19.jpg,AFNE18.jpg,AFSA12.jpg,FS,4,num_8,32,num_4,0.816796106476,,,2017_Sep_21_1456,60.0056968753,FEMA4ImagesEEG,001,201556,
AFNE01.JPG,AFNE01.JPG,AFNE01.JPG,AFNE01.JPG,AFNE01.JPG,AFNE01.JPG,,,,,,,,,,,,,,,,,5,9,59,9,,,,,,,AFSA04.jpg,AFNE13.jpg,AFNE01.jpg,AFSA12.jpg,AFSA12.jpg,FS,4,num_4,32,num_8,0.783424113339,,,2017_Sep_21_1456,60.0056968753,FEMA4ImagesEEG,001,201556,
,,,,,,,,,,,,,,,,,,,,,,,,,,,,,,,,,,,,,,,,,,,space,2.29999480402,2017_Sep_21_1456,60.0056968753,FEMA4ImagesEEG,001,201556,
AFNE01.JPG,AFNE01.JPG,AFNE01.JPG,AFNE01.JPG,AFNE01.JPG,AFNE01.JPG,,,,,,,,,,,,,,,,,,,,,0,0,0,6,,,AMNE03.jpg,AMNE06.jpg,AMSA08.jpg,AMSA04.jpg,AMSA04.jpg,MS,2,num_4,16,num_4,0.550143146073,,,2017_Sep_21_1456,60.0056968753,FEMA4ImagesEEG,001,201556,
AFNE01.JPG,AFNE01.JPG,AFNE01.JPG,AFNE01.JPG,AFNE01.JPG,AFNE01.JPG,,,,,,,,,,,,,,,,,,,,,0,1,1,2,,,AMNE06.jpg,AMSA02.jpg,AMNE05.jpg,AMSA04.jpg,AMSA02.jpg,MS,2,num_6,32,num_2,0.966762717479,,,2017_Sep_21_1456,60.0056968753,FEMA4ImagesEEG,001,201556,
AFNE01.JPG,AFNE01.JPG,AFNE01.JPG,AFNE01.JPG,AFNE01.JPG,AFNE01.JPG,,,,,,,,,,,,,,,,,,,,,0,2,2,5,,,AMSA15.jpg,AMSA02.jpg,AMNE13.jpg,AMNE20.jpg,AMNE13.jpg,MN,1,num_2,16,num_2,0.966807621036,,,2017_Sep_21_1456,60.0056968753,FEMA4ImagesEEG,001,201556,
AFNE01.JPG,AFNE01.JPG,AFNE01.JPG,AFNE01.JPG,AFNE01.JPG,AFNE01.JPG,,,,,,,,,,,,,,,,,,,,,0,3,3,0,,,AMNE17.jpg,AMSA20.jpg,AMSA15.jpg,AMNE16.jpg,AMNE16.jpg,MN,1,num_4,16,num_4,0.733458656992,,,2017_Sep_21_1456,60.0056968753,FEMA4ImagesEEG,001,201556,
AFNE01.JPG,AFNE01.JPG,AFNE01.JPG,AFNE01.JPG,AFNE01.JPG,AFNE01.JPG,,,,,,,,,,,,,,,,,,,,,0,4,4,7,,,AMSA16.jpg,AMNE14.jpg,AMSA02.jpg,AMNE01.jpg,AMNE14.jpg,MN,1,num_6,16,num_6,0.85011774351,,,2017_Sep_21_1456,60.0056968753,FEMA4ImagesEEG,001,201556,
AFNE01.JPG,AFNE01.JPG,AFNE01.JPG,AFNE01.JPG,AFNE01.JPG,AFNE01.JPG,,,,,,,,,,,,,,,,,,,,,0,5,5,9,,,AMNE05.jpg,AMSA20.jpg,AMSA05.jpg,AMNE02.jpg,AMNE05.jpg,MN,1,num_8,16,num_8,0.866769581306,,,2017_Sep_21_1456,60.0056968753,FEMA4ImagesEEG,001,201556,
AFNE01.JPG,AFNE01.JPG,AFNE01.JPG,AFNE01.JPG,AFNE01.JPG,AFNE01.JPG,,,,,,,,,,,,,,,,,,,,,0,6,6,4,,,AMNE18.jpg,AMNE06.jpg,AMSA12.jpg,AMSA07.jpg,AMNE06.jpg,MN,1,num_6,16,num_6,0.899816023753,,,2017_Sep_21_1456,60.0056968753,FEMA4ImagesEEG,001,201556,
AFNE01.JPG,AFNE01.JPG,AFNE01.JPG,AFNE01.JPG,AFNE01.JPG,AFNE01.JPG,,,,,,,,,,,,,,,,,,,,,0,7,7,8,,,AMNE01.jpg,AMSA15.jpg,AMSA01.jpg,AMNE18.jpg,AMNE18.jpg,MN,1,num_4,16,num_4,0.76678093549,,,2017_Sep_21_1456,60.0056968753,FEMA4ImagesEEG,001,201556,
AFNE01.JPG,AFNE01.JPG,AFNE01.JPG,AFNE01.JPG,AFNE01.JPG,AFNE01.JPG,,,,,,,,,,,,,,,,,,,,,0,8,8,1,,,AMNE16.jpg,AMNE05.jpg,AMSA06.jpg,AMSA12.jpg,AMNE05.jpg,MN,1,num_6,16,num_6,0.833450189471,,,2017_Sep_21_1456,60.0056968753,FEMA4ImagesEEG,001,201556,
AFNE01.JPG,AFNE01.JPG,AFNE01.JPG,AFNE01.JPG,AFNE01.JPG,AFNE01.JPG,,,,,,,,,,,,,,,,,,,,,0,9,9,3,,,AMNE03.jpg,AMSA13.jpg,AMNE14.jpg,AMSA10.jpg,AMNE14.jpg,MN,1,num_2,16,num_2,0.666798383725,,,2017_Sep_21_1456,60.0056968753,FEMA4ImagesEEG,001,201556,
AFNE01.JPG,AFNE01.JPG,AFNE01.JPG,AFNE01.JPG,AFNE01.JPG,AFNE01.JPG,,,,,,,,,,,,,,,,,,,,,1,0,10,2,,,AMSA13.jpg,AMNE05.jpg,AMNE18.jpg,AMSA04.jpg,AMNE05.jpg,MN,1,num_6,32,num_8,0.800122779125,,,2017_Sep_21_1456,60.0056968753,FEMA4ImagesEEG,001,201556,
AFNE01.JPG,AFNE01.JPG,AFNE01.JPG,AFNE01.JPG,AFNE01.JPG,AFNE01.JPG,,,,,,,,,,,,,,,,,,,,,1,1,11,3,,,AMSA17.jpg,AMSA20.jpg,AMNE10.jpg,AMNE08.jpg,AMNE10.jpg,MN,1,num_2,16,num_2,0.850082782883,,,2017_Sep_21_1456,60.0056968753,FEMA4ImagesEEG,001,201556,
AFNE01.JPG,AFNE01.JPG,AFNE01.JPG,AFNE01.JPG,AFNE01.JPG,AFNE01.JPG,,,,,,,,,,,,,,,,,,,,,1,2,12,9,,,AMSA11.jpg,AMSA06.jpg,AMNE12.jpg,AMNE17.jpg,AMSA11.jpg,MS,2,num_8,32,num_6,0.983403650142,,,2017_Sep_21_1456,60.0056968753,FEMA4ImagesEEG,001,201556,
AFNE01.JPG,AFNE01.JPG,AFNE01.JPG,AFNE01.JPG,AFNE01.JPG,AFNE01.JPG,,,,,,,,,,,,,,,,,,,,,1,3,13,8,,,AMNE07.jpg,AMSA10.jpg,AMSA09.jpg,AMNE18.jpg,AMSA10.jpg,MS,2,num_6,16,num_6,0.800140099062,,,2017_Sep_21_1456,60.0056968753,FEMA4ImagesEEG,001,201556,
AFNE01.JPG,AFNE01.JPG,AFNE01.JPG,AFNE01.JPG,AFNE01.JPG,AFNE01.JPG,,,,,,,,,,,,,,,,,,,,,1,4,14,0,,,AMSA10.jpg,AMSA18.jpg,AMNE13.jpg,AMNE06.jpg,AMSA10.jpg,MS,2,num_8,32,num_2,0.98339755609,,,2017_Sep_21_1456,60.0056968753,FEMA4ImagesEEG,001,201556,
AFNE01.JPG,AFNE01.JPG,AFNE01.JPG,AFNE01.JPG,AFNE01.JPG,AFNE01.JPG,,,,,,,,,,,,,,,,,,,,,1,5,15,1,,,AMNE20.jpg,AMSA03.jpg,AMNE13.jpg,AMSA16.jpg,AMNE13.jpg,MN,1,num_2,32,num_8,0.966786772959,,,2017_Sep_21_1456,60.0056968753,FEMA4ImagesEEG,001,201556,
AFNE01.JPG,AFNE01.JPG,AFNE01.JPG,AFNE01.JPG,AFNE01.JPG,AFNE01.JPG,,,,,,,,,,,,,,,,,,,,,1,6,16,6,,,AMNE17.jpg,AMNE15.jpg,AMSA01.jpg,AMSA17.jpg,AMNE17.jpg,MN,1,num_8,32,num_4,0.833337289121,,,2017_Sep_21_1456,60.0056968753,FEMA4ImagesEEG,001,201556,
AFNE01.JPG,AFNE01.JPG,AFNE01.JPG,AFNE01.JPG,AFNE01.JPG,AFNE01.JPG,,,,,,,,,,,,,,,,,,,,,1,7,17,7,,,AMNE16.jpg,AMNE18.jpg,AMSA16.jpg,AMSA10.jpg,AMSA10.jpg,MS,2,num_4,32,num_2,0.91674562206,,,2017_Sep_21_1456,60.0056968753,FEMA4ImagesEEG,001,201556,
AFNE01.JPG,AFNE01.JPG,AFNE01.JPG,AFNE01.JPG,AFNE01.JPG,AFNE01.JPG,,,,,,,,,,,,,,,,,,,,,1,8,18,5,,,AMNE01.jpg,AMNE02.jpg,AMSA04.jpg,AMSA18.jpg,AMNE01.jpg,MN,1,num_8,16,num_8,0.566851113326,,,2017_Sep_21_1456,60.0056968753,FEMA4ImagesEEG,001,201556,
AFNE01.JPG,AFNE01.JPG,AFNE01.JPG,AFNE01.JPG,AFNE01.JPG,AFNE01.JPG,,,,,,,,,,,,,,,,,,,,,1,9,19,4,,,AMNE18.jpg,AMSA04.jpg,AMNE02.jpg,AMSA02.jpg,AMSA02.jpg,MS,2,num_4,16,num_4,0.716790461462,,,2017_Sep_21_1456,60.0056968753,FEMA4ImagesEEG,001,201556,
AFNE01.JPG,AFNE01.JPG,AFNE01.JPG,AFNE01.JPG,AFNE01.JPG,AFNE01.JPG,,,,,,,,,,,,,,,,,,,,,2,0,20,7,,,AMNE03.jpg,AMSA18.jpg,AMSA19.jpg,AMNE14.jpg,AMSA19.jpg,MS,2,num_2,32,num_4,0.900181666919,,,2017_Sep_21_1456,60.0056968753,FEMA4ImagesEEG,001,201556,
AFNE01.JPG,AFNE01.JPG,AFNE01.JPG,AFNE01.JPG,AFNE01.JPG,AFNE01.JPG,,,,,,,,,,,,,,,,,,,,,2,1,21,1,,,AMNE12.jpg,AMSA19.jpg,AMNE14.jpg,AMSA13.jpg,AMSA13.jpg,MS,2,num_4,32,num_8,0.900125216736,,,2017_Sep_21_1456,60.0056968753,FEMA4ImagesEEG,001,201556,
AFNE01.JPG,AFNE01.JPG,AFNE01.JPG,AFNE01.JPG,AFNE01.JPG,AFNE01.JPG,,,,,,,,,,,,,,,,,,,,,2,2,22,3,,,AMSA15.jpg,AMNE03.jpg,AMSA13.jpg,AMNE10.jpg,AMSA15.jpg,MS,2,num_8,16,num_8,0.81691959122,,,2017_Sep_21_1456,60.0056968753,FEMA4ImagesEEG,001,201556,
AFNE01.JPG,AFNE01.JPG,AFNE01.JPG,AFNE01.JPG,AFNE01.JPG,AFNE01.JPG,,,,,,,,,,,,,,,,,,,,,2,3,23,8,,,AMNE10.jpg,AMSA09.jpg,AMNE11.jpg,AMSA18.jpg,AMSA09.jpg,MS,2,num_6,16,num_6,0.750149625033,,,2017_Sep_21_1456,60.0056968753,FEMA4ImagesEEG,001,201556,
AFNE01.JPG,AFNE01.JPG,AFNE01.JPG,AFNE01.JPG,AFNE01.JPG,AFNE01.JPG,,,,,,,,,,,,,,,,,,,,,2,4,24,9,,,AMSA03.jpg,AMNE11.jpg,AMNE07.jpg,AMSA04.jpg,AMNE07.jpg,MN,1,num_2,16,num_2,0.700200847132,,,2017_Sep_21_1456,60.0056968753,FEMA4ImagesEEG,001,201556,
AFNE01.JPG,AFNE01.JPG,AFNE01.JPG,AFNE01.JPG,AFNE01.JPG,AFNE01.JPG,,,,,,,,,,,,,,,,,,,,,2,5,25,5,,,AMNE12.jpg,AMNE06.jpg,AMSA14.jpg,AMSA11.jpg,AMSA14.jpg,MS,2,num_2,16,num_2,0.566750721831,,,2017_Sep_21_1456,60.0056968753,FEMA4ImagesEEG,001,201556,
AFNE01.JPG,AFNE01.JPG,AFNE01.JPG,AFNE01.JPG,AFNE01.JPG,AFNE01.JPG,,,,,,,,,,,,,,,,,,,,,2,6,26,4,,,AMNE12.jpg,AMSA19.jpg,AMSA09.jpg,AMNE01.jpg,AMSA19.jpg,MS,2,num_6,16,num_6,0.916618929929,,,2017_Sep_21_1456,60.0056968753,FEMA4ImagesEEG,001,201556,
AFNE01.JPG,AFNE01.JPG,AFNE01.JPG,AFNE01.JPG,AFNE01.JPG,AFNE01.JPG,,,,,,,,,,,,,,,,,,,,,2,7,27,2,,,AMSA16.jpg,AMNE01.jpg,AMSA19.jpg,AMNE19.jpg,AMSA16.jpg,MS,2,num_8,16,num_8,0.750138719872,,,2017_Sep_21_1456,60.0056968753,FEMA4ImagesEEG,001,201556,
AFNE01.JPG,AFNE01.JPG,AFNE01.JPG,AFNE01.JPG,AFNE01.JPG,AFNE01.JPG,,,,,,,,,,,,,,,,,,,,,2,8,28,6,,,AMSA08.jpg,AMNE19.jpg,AMSA11.jpg,AMNE05.jpg,AMNE19.jpg,MN,1,num_6,32,num_8,1.11668955679,,,2017_Sep_21_1456,60.0056968753,FEMA4ImagesEEG,001,201556,
AFNE01.JPG,AFNE01.JPG,AFNE01.JPG,AFNE01.JPG,AFNE01.JPG,AFNE01.JPG,,,,,,,,,,,,,,,,,,,,,2,9,29,0,,,AMSA16.jpg,AMNE16.jpg,AMNE03.jpg,AMSA07.jpg,AMSA16.jpg,MS,2,num_8,16,num_8,0.583192154445,,,2017_Sep_21_1456,60.0056968753,FEMA4ImagesEEG,001,201556,
AFNE01.JPG,AFNE01.JPG,AFNE01.JPG,AFNE01.JPG,AFNE01.JPG,AFNE01.JPG,,,,,,,,,,,,,,,,,,,,,3,0,30,8,,,AMSA15.jpg,AMNE17.jpg,AMNE08.jpg,AMSA14.jpg,AMSA14.jpg,MS,2,num_4,32,num_6,0.700085701625,,,2017_Sep_21_1456,60.0056968753,FEMA4ImagesEEG,001,201556,
AFNE01.JPG,AFNE01.JPG,AFNE01.JPG,AFNE01.JPG,AFNE01.JPG,AFNE01.JPG,,,,,,,,,,,,,,,,,,,,,3,1,31,3,,,AMSA09.jpg,AMNE07.jpg,AMSA02.jpg,AMNE04.jpg,AMSA09.jpg,MS,2,num_8,16,num_8,1.06674270333,,,2017_Sep_21_1456,60.0056968753,FEMA4ImagesEEG,001,201556,
AFNE01.JPG,AFNE01.JPG,AFNE01.JPG,AFNE01.JPG,AFNE01.JPG,AFNE01.JPG,,,,,,,,,,,,,,,,,,,,,3,2,32,5,,,AMNE05.jpg,AMSA10.jpg,AMNE11.jpg,AMSA07.jpg,AMSA07.jpg,MS,2,num_4,16,num_4,0.583495894854,,,2017_Sep_21_1456,60.0056968753,FEMA4ImagesEEG,001,201556,
AFNE01.JPG,AFNE01.JPG,AFNE01.JPG,AFNE01.JPG,AFNE01.JPG,AFNE01.JPG,,,,,,,,,,,,,,,,,,,,,3,3,33,4,,,AMSA03.jpg,AMSA04.jpg,AMNE18.jpg,AMNE07.jpg,AMSA04.jpg,MS,2,num_6,32,num_8,0.833454679829,,,2017_Sep_21_1456,60.0056968753,FEMA4ImagesEEG,001,201556,
AFNE01.JPG,AFNE01.JPG,AFNE01.JPG,AFNE01.JPG,AFNE01.JPG,AFNE01.JPG,,,,,,,,,,,,,,,,,,,,,3,4,34,2,,,AMSA13.jpg,AMNE18.jpg,AMSA14.jpg,AMNE09.jpg,AMSA14.jpg,MS,2,num_2,16,num_2,0.966635704608,,,2017_Sep_21_1456,60.0056968753,FEMA4ImagesEEG,001,201556,
AFNE01.JPG,AFNE01.JPG,AFNE01.JPG,AFNE01.JPG,AFNE01.JPG,AFNE01.JPG,,,,,,,,,,,,,,,,,,,,,3,5,35,7,,,AMSA17.jpg,AMNE07.jpg,AMNE01.jpg,AMSA07.jpg,AMSA17.jpg,MS,2,num_8,32,num_4,1.46672807762,,,2017_Sep_21_1456,60.0056968753,FEMA4ImagesEEG,001,201556,
AFNE01.JPG,AFNE01.JPG,AFNE01.JPG,AFNE01.JPG,AFNE01.JPG,AFNE01.JPG,,,,,,,,,,,,,,,,,,,,,3,6,36,6,,,AMSA04.jpg,AMNE02.jpg,AMSA10.jpg,AMNE01.jpg,AMSA04.jpg,MS,2,num_8,32,num_2,0.816739335569,,,2017_Sep_21_1456,60.0056968753,FEMA4ImagesEEG,001,201556,
AFNE01.JPG,AFNE01.JPG,AFNE01.JPG,AFNE01.JPG,AFNE01.JPG,AFNE01.JPG,,,,,,,,,,,,,,,,,,,,,3,7,37,9,,,AMSA14.jpg,AMNE20.jpg,AMNE05.jpg,AMSA18.jpg,AMSA18.jpg,MS,2,num_4,16,num_4,0.883494868482,,,2017_Sep_21_1456,60.0056968753,FEMA4ImagesEEG,001,201556,
AFNE01.JPG,AFNE01.JPG,AFNE01.JPG,AFNE01.JPG,AFNE01.JPG,AFNE01.JPG,,,,,,,,,,,,,,,,,,,,,3,8,38,0,,,AMSA10.jpg,AMSA17.jpg,AMNE15.jpg,AMNE04.jpg,AMNE04.jpg,MN,1,num_4,16,num_4,0.933480852167,,,2017_Sep_21_1456,60.0056968753,FEMA4ImagesEEG,001,201556,
