IPosition2,IPosition3,IPosition1,IPosition6,IPosition4,IPosition5,TrialsM1.thisRepN,TrialsM1.thisTrialN,TrialsM1.thisN,TrialsM1.thisIndex,TrialsF1.thisRepN,TrialsF1.thisTrialN,TrialsF1.thisN,TrialsF1.thisIndex,TrialsM2.thisRepN,TrialsM2.thisTrialN,TrialsM2.thisN,TrialsM2.thisIndex,TrialsF2.thisRepN,TrialsF2.thisTrialN,TrialsF2.thisN,TrialsF2.thisIndex,TrialsM3.thisRepN,TrialsM3.thisTrialN,TrialsM3.thisN,TrialsM3.thisIndex,TrialsF3.thisRepN,TrialsF3.thisTrialN,TrialsF3.thisN,TrialsF3.thisIndex,InstrKey_resp.keys,InstrKey_resp.rt,Image0 _Position,Image1 _Position,Image2 _Position,Image3 _Position,Center_image,condition,code,correct_answer,accuracy,Key_Resp.keys,Key_Resp.rt,BreakKey_resp.keys,BreakKey_resp.rt,date,frameRate,expName,session,participant,
,,,,,,,,,,,,,,,,,,,,,,,,,,,,,,space,3.03335660836,,,,,,,,,,,,,,2017_Sep_18_1736,60.0099510251,MAFE4ImagesEEG,001,201569,
AMNE22.JPG,AMSA24.JPG,AMSA22.JPG,AMNE25.JPG,AMNE24.JPG,AMSA25.JPG,0,0,0,7,,,,,,,,,,,,,,,,,,,,,,,AMNE01.jpg,AMSA14.jpg,AMSA16.jpg,AMNE06.jpg,AMNE06.jpg,MN,1,num_4,16,num_4,1.48342721909,,,2017_Sep_18_1736,60.0099510251,MAFE4ImagesEEG,001,201569,
AFNE23.JPG,AFNE24.JPG,AFNE22.JPG,AFSA24.JPG,AFSA22.JPG,AFSA23.JPG,0,1,1,8,,,,,,,,,,,,,,,,,,,,,,,AMNE02.jpg,AMNE04.jpg,AMSA19.jpg,AMSA05.jpg,AMNE02.jpg,MN,1,num_8,16,num_8,2.11688428326,,,2017_Sep_18_1736,60.0099510251,MAFE4ImagesEEG,001,201569,
AMNE23.JPG,AMNE24.JPG,AMNE22.JPG,AMSA24.JPG,AMSA22.JPG,AMSA23.JPG,0,2,2,9,,,,,,,,,,,,,,,,,,,,,,,AMNE11.jpg,AMNE19.jpg,AMSA17.jpg,AMSA16.jpg,AMNE19.jpg,MN,1,num_6,32,num_2,1.21673857118,,,2017_Sep_18_1736,60.0099510251,MAFE4ImagesEEG,001,201569,
AFNE22.JPG,AFSA24.JPG,AFSA22.JPG,AFNE25.JPG,AFNE24.JPG,AFSA25.JPG,0,3,3,6,,,,,,,,,,,,,,,,,,,,,,,AMNE15.jpg,AMNE10.jpg,AMSA06.jpg,AMSA17.jpg,AMSA17.jpg,MS,2,num_4,16,num_4,1.41674864246,,,2017_Sep_18_1736,60.0099510251,MAFE4ImagesEEG,001,201569,
AMSA25.JPG,AMNE24.JPG,AMSA24.JPG,AMNE26.JPG,AMSA21.JPG,AMNE25.JPG,0,4,4,3,,,,,,,,,,,,,,,,,,,,,,,AMSA05.jpg,AMNE08.jpg,AMSA11.jpg,AMNE04.jpg,AMSA05.jpg,MS,2,num_8,32,num_2,1.19977753493,,,2017_Sep_18_1736,60.0099510251,MAFE4ImagesEEG,001,201569,
AFSA25.JPG,AFNE24.JPG,AFSA24.JPG,AFNE21.JPG,AFSA21.JPG,AFNE25.JPG,0,5,5,2,,,,,,,,,,,,,,,,,,,,,,,AMNE14.jpg,AMNE13.jpg,AMSA18.jpg,AMSA19.jpg,AMSA18.jpg,MS,2,num_2,32,num_8,1.35012042173,,,2017_Sep_18_1736,60.0099510251,MAFE4ImagesEEG,001,201569,
AMSA21.JPG,AMNE22.JPG,AMNE21.JPG,AMSA23.JPG,AMSA22.JPG,AMNE23.JPG,0,6,6,1,,,,,,,,,,,,,,,,,,,,,,,AMNE12.jpg,AMSA13.jpg,AMNE20.jpg,AMSA09.jpg,AMNE20.jpg,MN,1,num_2,32,num_8,2.08331310004,,,2017_Sep_18_1736,60.0099510251,MAFE4ImagesEEG,001,201569,
AMSA21.JPG,AMNE23.JPG,AMNE21.JPG,AMSA25.JPG,AMNE25.JPG,AMSA23.JPG,0,7,7,5,,,,,,,,,,,,,,,,,,,,,,,AMSA12.jpg,AMNE01.jpg,AMSA13.jpg,AMNE05.jpg,AMNE01.jpg,MN,1,num_6,16,num_6,1.63328482676,,,2017_Sep_18_1736,60.0099510251,MAFE4ImagesEEG,001,201569,
AFSA21.JPG,AFNE22.JPG,AFNE21.JPG,AFSA23.JPG,AFSA22.JPG,AFNE23.JPG,0,8,8,0,,,,,,,,,,,,,,,,,,,,,,,AMSA14.jpg,AMSA09.jpg,AMNE13.jpg,AMNE11.jpg,AMNE11.jpg,MN,1,num_4,16,num_4,1.65006496571,,,2017_Sep_18_1736,60.0099510251,MAFE4ImagesEEG,001,201569,
AFSA21.JPG,AFNE23.JPG,AFNE21.JPG,AFSA25.JPG,AFNE25.JPG,AFSA23.JPG,0,9,9,4,,,,,,,,,,,,,,,,,,,,,,,AMNE05.jpg,AMSA01.jpg,AMSA17.jpg,AMNE15.jpg,AMNE15.jpg,MN,1,num_4,32,num_8,1.78339036624,,,2017_Sep_18_1736,60.0099510251,MAFE4ImagesEEG,001,201569,
AFSA21.JPG,AFNE22.JPG,AFNE21.JPG,AFSA23.JPG,AFSA22.JPG,AFNE23.JPG,,,,,0,0,0,0,,,,,,,,,,,,,,,,,,,AFNE03.jpg,AFNE05.jpg,AFSA18.jpg,AFSA15.jpg,AFNE03.jpg,FN,3,num_8,32,num_2,3.70032936754,,,2017_Sep_18_1736,60.0099510251,MAFE4ImagesEEG,001,201569,
AFSA25.JPG,AFNE24.JPG,AFSA24.JPG,AFNE21.JPG,AFSA21.JPG,AFNE25.JPG,,,,,0,1,1,2,,,,,,,,,,,,,,,,,,,AFNE14.jpg,AFNE15.jpg,AFSA09.jpg,AFSA16.jpg,AFNE15.jpg,FN,3,num_6,32,num_8,1.41677077347,,,2017_Sep_18_1736,60.0099510251,MAFE4ImagesEEG,001,201569,
AMSA21.JPG,AMNE23.JPG,AMNE21.JPG,AMSA25.JPG,AMNE25.JPG,AMSA23.JPG,,,,,0,2,2,5,,,,,,,,,,,,,,,,,,,AFSA07.jpg,AFNE09.jpg,AFSA06.jpg,AFNE17.jpg,AFSA06.jpg,FS,4,num_2,32,num_4,0.850118978415,,,2017_Sep_18_1736,60.0099510251,MAFE4ImagesEEG,001,201569,
AFNE22.JPG,AFSA24.JPG,AFSA22.JPG,AFNE25.JPG,AFNE24.JPG,AFSA25.JPG,,,,,0,3,3,6,,,,,,,,,,,,,,,,,,,AFSA16.jpg,AFNE05.jpg,AFNE19.jpg,AFSA19.jpg,AFNE05.jpg,FN,3,num_6,32,num_2,3.39996818267,,,2017_Sep_18_1736,60.0099510251,MAFE4ImagesEEG,001,201569,
AMNE23.JPG,AMNE24.JPG,AMNE22.JPG,AMSA24.JPG,AMSA22.JPG,AMSA23.JPG,,,,,0,4,4,9,,,,,,,,,,,,,,,,,,,AFSA13.jpg,AFSA09.jpg,AFNE12.jpg,AFNE18.jpg,AFNE12.jpg,FN,3,num_2,32,num_4,3.13330166554,,,2017_Sep_18_1736,60.0099510251,MAFE4ImagesEEG,001,201569,
AFSA21.JPG,AFNE23.JPG,AFNE21.JPG,AFSA25.JPG,AFNE25.JPG,AFSA23.JPG,,,,,0,5,5,4,,,,,,,,,,,,,,,,,,,AFSA14.jpg,AFNE12.jpg,AFSA15.jpg,AFNE13.jpg,AFNE13.jpg,FN,3,num_4,32,num_8,2.29983003996,,,2017_Sep_18_1736,60.0099510251,MAFE4ImagesEEG,001,201569,
AMSA21.JPG,AMNE22.JPG,AMNE21.JPG,AMSA23.JPG,AMSA22.JPG,AMNE23.JPG,,,,,0,6,6,1,,,,,,,,,,,,,,,,,,,AFNE16.jpg,AFSA04.jpg,AFSA13.jpg,AFNE19.jpg,AFSA13.jpg,FS,4,num_2,16,num_2,0.883486492094,,,2017_Sep_18_1736,60.0099510251,MAFE4ImagesEEG,001,201569,
AMNE22.JPG,AMSA24.JPG,AMSA22.JPG,AMNE25.JPG,AMNE24.JPG,AMSA25.JPG,,,,,0,7,7,7,,,,,,,,,,,,,,,,,,,AFNE04.jpg,AFNE17.jpg,AFSA07.jpg,AFSA11.jpg,AFSA07.jpg,FS,4,num_2,16,num_2,1.30010202713,,,2017_Sep_18_1736,60.0099510251,MAFE4ImagesEEG,001,201569,
AMSA25.JPG,AMNE24.JPG,AMSA24.JPG,AMNE26.JPG,AMSA21.JPG,AMNE25.JPG,,,,,0,8,8,3,,,,,,,,,,,,,,,,,,,AFSA02.jpg,AFNE06.jpg,AFNE13.jpg,AFSA17.jpg,AFSA17.jpg,FS,4,num_4,32,num_8,0.950157691492,,,2017_Sep_18_1736,60.0099510251,MAFE4ImagesEEG,001,201569,
AFNE23.JPG,AFNE24.JPG,AFNE22.JPG,AFSA24.JPG,AFSA22.JPG,AFSA23.JPG,,,,,0,9,9,8,,,,,,,,,,,,,,,,,,,AFNE14.jpg,AFNE16.jpg,AFSA12.jpg,AFSA06.jpg,AFNE16.jpg,FN,3,num_6,16,num_6,1.83354924456,,,2017_Sep_18_1736,60.0099510251,MAFE4ImagesEEG,001,201569,
AMSA21.JPG,AMNE23.JPG,AMNE21.JPG,AMSA25.JPG,AMNE25.JPG,AMSA23.JPG,,,,,,,,,0,0,0,5,,,,,,,,,,,,,,,AMSA14.jpg,AMSA05.jpg,AMNE05.jpg,AMNE04.jpg,AMSA05.jpg,MS,2,num_6,32,num_8,1.06671738625,,,2017_Sep_18_1736,60.0099510251,MAFE4ImagesEEG,001,201569,
AMNE23.JPG,AMNE24.JPG,AMNE22.JPG,AMSA24.JPG,AMSA22.JPG,AMSA23.JPG,,,,,,,,,0,1,1,9,,,,,,,,,,,,,,,AMNE10.jpg,AMNE20.jpg,AMSA14.jpg,AMSA02.jpg,AMSA14.jpg,MS,2,num_2,32,num_6,1.98335296777,,,2017_Sep_18_1736,60.0099510251,MAFE4ImagesEEG,001,201569,
AFSA25.JPG,AFNE24.JPG,AFSA24.JPG,AFNE21.JPG,AFSA21.JPG,AFNE25.JPG,,,,,,,,,0,2,2,2,,,,,,,,,,,,,,,AMNE04.jpg,AMSA18.jpg,AMNE08.jpg,AMSA19.jpg,AMSA19.jpg,MS,2,num_4,32,num_2,2.20004374906,,,2017_Sep_18_1736,60.0099510251,MAFE4ImagesEEG,001,201569,
AFSA21.JPG,AFNE23.JPG,AFNE21.JPG,AFSA25.JPG,AFNE25.JPG,AFSA23.JPG,,,,,,,,,0,3,3,4,,,,,,,,,,,,,,,AMSA18.jpg,AMNE11.jpg,AMSA19.jpg,AMNE19.jpg,AMNE11.jpg,MN,1,num_6,32,num_4,1.46671443549,,,2017_Sep_18_1736,60.0099510251,MAFE4ImagesEEG,001,201569,
AMNE22.JPG,AMSA24.JPG,AMSA22.JPG,AMNE25.JPG,AMNE24.JPG,AMSA25.JPG,,,,,,,,,0,4,4,7,,,,,,,,,,,,,,,AMSA03.jpg,AMSA20.jpg,AMNE07.jpg,AMNE16.jpg,AMSA03.jpg,MS,2,num_8,16,num_8,0.583317109384,,,2017_Sep_18_1736,60.0099510251,MAFE4ImagesEEG,001,201569,
AMSA25.JPG,AMNE24.JPG,AMSA24.JPG,AMNE26.JPG,AMSA21.JPG,AMNE25.JPG,,,,,,,,,0,5,5,3,,,,,,,,,,,,,,,AMNE03.jpg,AMSA10.jpg,AMSA16.jpg,AMNE15.jpg,AMNE03.jpg,MN,1,num_8,32,num_2,1.10010125767,,,2017_Sep_18_1736,60.0099510251,MAFE4ImagesEEG,001,201569,
AMSA21.JPG,AMNE22.JPG,AMNE21.JPG,AMSA23.JPG,AMSA22.JPG,AMNE23.JPG,,,,,,,,,0,6,6,1,,,,,,,,,,,,,,,AMNE09.jpg,AMNE01.jpg,AMSA03.jpg,AMSA18.jpg,AMNE09.jpg,MN,1,num_8,16,num_8,1.01676185685,,,2017_Sep_18_1736,60.0099510251,MAFE4ImagesEEG,001,201569,
AFSA21.JPG,AFNE22.JPG,AFNE21.JPG,AFSA23.JPG,AFSA22.JPG,AFNE23.JPG,,,,,,,,,0,7,7,0,,,,,,,,,,,,,,,AMSA01.jpg,AMSA09.jpg,AMNE18.jpg,AMNE17.jpg,AMNE18.jpg,MN,1,num_2,32,num_6,1.98307681107,,,2017_Sep_18_1736,60.0099510251,MAFE4ImagesEEG,001,201569,
AFNE22.JPG,AFSA24.JPG,AFSA22.JPG,AFNE25.JPG,AFNE24.JPG,AFSA25.JPG,,,,,,,,,0,8,8,6,,,,,,,,,,,,,,,AMSA04.jpg,AMSA08.jpg,AMNE09.jpg,AMNE14.jpg,AMNE14.jpg,MN,1,num_4,32,num_2,3.33324149484,,,2017_Sep_18_1736,60.0099510251,MAFE4ImagesEEG,001,201569,
AFNE23.JPG,AFNE24.JPG,AFNE22.JPG,AFSA24.JPG,AFSA22.JPG,AFSA23.JPG,,,,,,,,,0,9,9,8,,,,,,,,,,,,,,,AMNE12.jpg,AMSA03.jpg,AMNE11.jpg,AMSA10.jpg,AMNE11.jpg,MN,1,num_2,32,num_8,1.06670327391,,,2017_Sep_18_1736,60.0099510251,MAFE4ImagesEEG,001,201569,
AFNE22.JPG,AFSA24.JPG,AFSA22.JPG,AFNE25.JPG,AFNE24.JPG,AFSA25.JPG,,,,,,,,,,,,,0,0,0,6,,,,,,,,,,,AFNE18.jpg,AFSA01.jpg,AFNE08.jpg,AFSA13.jpg,AFSA13.jpg,FS,4,num_4,32,num_8,1.43340786244,,,2017_Sep_18_1736,60.0099510251,MAFE4ImagesEEG,001,201569,
AFSA21.JPG,AFNE22.JPG,AFNE21.JPG,AFSA23.JPG,AFSA22.JPG,AFNE23.JPG,,,,,,,,,,,,,0,1,1,0,,,,,,,,,,,AFSA08.jpg,AFSA03.jpg,AFNE08.jpg,AFNE11.jpg,AFSA08.jpg,FS,4,num_8,16,num_8,1.23351165396,,,2017_Sep_18_1736,60.0099510251,MAFE4ImagesEEG,001,201569,
AFNE23.JPG,AFNE24.JPG,AFNE22.JPG,AFSA24.JPG,AFSA22.JPG,AFSA23.JPG,,,,,,,,,,,,,0,2,2,8,,,,,,,,,,,AFNE18.jpg,AFSA15.jpg,AFNE12.jpg,AFSA17.jpg,AFSA15.jpg,FS,4,num_6,32,num_8,1.0834365848,,,2017_Sep_18_1736,60.0099510251,MAFE4ImagesEEG,001,201569,
AFSA25.JPG,AFNE24.JPG,AFSA24.JPG,AFNE21.JPG,AFSA21.JPG,AFNE25.JPG,,,,,,,,,,,,,0,3,3,2,,,,,,,,,,,AFSA15.jpg,AFNE15.jpg,AFSA13.jpg,AFNE07.jpg,AFSA13.jpg,FS,4,num_2,32,num_4,1.56674063997,,,2017_Sep_18_1736,60.0099510251,MAFE4ImagesEEG,001,201569,
AMNE22.JPG,AMSA24.JPG,AMSA22.JPG,AMNE25.JPG,AMNE24.JPG,AMSA25.JPG,,,,,,,,,,,,,0,4,4,7,,,,,,,,,,,AFSA08.jpg,AFNE08.jpg,AFSA11.jpg,AFNE01.jpg,AFNE01.jpg,FN,3,num_4,32,num_8,2.48331560171,,,2017_Sep_18_1736,60.0099510251,MAFE4ImagesEEG,001,201569,
AMNE23.JPG,AMNE24.JPG,AMNE22.JPG,AMSA24.JPG,AMSA22.JPG,AMSA23.JPG,,,,,,,,,,,,,0,5,5,9,,,,,,,,,,,AFNE15.jpg,AFNE13.jpg,AFSA17.jpg,AFSA09.jpg,AFNE15.jpg,FN,3,num_8,32,num_2,2.73334599193,,,2017_Sep_18_1736,60.0099510251,MAFE4ImagesEEG,001,201569,
AMSA21.JPG,AMNE23.JPG,AMNE21.JPG,AMSA25.JPG,AMNE25.JPG,AMSA23.JPG,,,,,,,,,,,,,0,6,6,5,,,,,,,,,,,AFSA13.jpg,AFSA14.jpg,AFNE04.jpg,AFNE09.jpg,AFSA13.jpg,FS,4,num_8,16,num_8,1.99971903209,,,2017_Sep_18_1736,60.0099510251,MAFE4ImagesEEG,001,201569,
AMSA21.JPG,AMNE22.JPG,AMNE21.JPG,AMSA23.JPG,AMSA22.JPG,AMNE23.JPG,,,,,,,,,,,,,0,7,7,1,,,,,,,,,,,AFNE08.jpg,AFSA13.jpg,AFSA06.jpg,AFNE13.jpg,AFNE08.jpg,FN,3,num_8,32,num_2,3.41658282001,,,2017_Sep_18_1736,60.0099510251,MAFE4ImagesEEG,001,201569,
AMSA25.JPG,AMNE24.JPG,AMSA24.JPG,AMNE26.JPG,AMSA21.JPG,AMNE25.JPG,,,,,,,,,,,,,0,8,8,3,,,,,,,,,,,AFSA17.jpg,AFNE15.jpg,AFNE10.jpg,AFSA15.jpg,AFSA17.jpg,FS,4,num_8,16,num_8,2.58334340993,,,2017_Sep_18_1736,60.0099510251,MAFE4ImagesEEG,001,201569,
AFSA21.JPG,AFNE23.JPG,AFNE21.JPG,AFSA25.JPG,AFNE25.JPG,AFSA23.JPG,,,,,,,,,,,,,0,9,9,4,,,,,,,,,,,AFSA01.jpg,AFSA03.jpg,AFNE07.jpg,AFNE17.jpg,AFNE07.jpg,FN,3,num_2,32,num_6,2.73320775293,,,2017_Sep_18_1736,60.0099510251,MAFE4ImagesEEG,001,201569,
AFSA25.JPG,AFNE24.JPG,AFSA24.JPG,AFNE21.JPG,AFSA21.JPG,AFNE25.JPG,,,,,,,,,,,,,,,,,0,0,0,2,,,,,,,AMSA12.jpg,AMNE04.jpg,AMNE16.jpg,AMSA04.jpg,AMNE04.jpg,MN,1,num_6,16,num_6,0.766750711249,,,2017_Sep_18_1736,60.0099510251,MAFE4ImagesEEG,001,201569,
AMNE23.JPG,AMNE24.JPG,AMNE22.JPG,AMSA24.JPG,AMSA22.JPG,AMSA23.JPG,,,,,,,,,,,,,,,,,0,1,1,9,,,,,,,AMSA01.jpg,AMNE12.jpg,AMNE20.jpg,AMSA12.jpg,AMNE12.jpg,MN,1,num_6,16,num_6,1.51669947291,,,2017_Sep_18_1736,60.0099510251,MAFE4ImagesEEG,001,201569,
AFNE23.JPG,AFNE24.JPG,AFNE22.JPG,AFSA24.JPG,AFSA22.JPG,AFSA23.JPG,,,,,,,,,,,,,,,,,0,2,2,8,,,,,,,AMNE14.jpg,AMSA03.jpg,AMSA14.jpg,AMNE13.jpg,AMSA03.jpg,MS,2,num_6,16,num_6,0.816786104813,,,2017_Sep_18_1736,60.0099510251,MAFE4ImagesEEG,001,201569,
AFSA21.JPG,AFNE22.JPG,AFNE21.JPG,AFSA23.JPG,AFSA22.JPG,AFNE23.JPG,,,,,,,,,,,,,,,,,0,3,3,0,,,,,,,AMSA01.jpg,AMNE04.jpg,AMNE20.jpg,AMSA06.jpg,AMNE04.jpg,MN,1,num_6,32,num_2,2.23337886762,,,2017_Sep_18_1736,60.0099510251,MAFE4ImagesEEG,001,201569,
AFSA21.JPG,AFNE23.JPG,AFNE21.JPG,AFSA25.JPG,AFNE25.JPG,AFSA23.JPG,,,,,,,,,,,,,,,,,0,4,4,4,,,,,,,AMNE19.jpg,AMNE05.jpg,AMSA04.jpg,AMSA19.jpg,AMSA19.jpg,MS,2,num_4,32,num_2,3.41656646226,,,2017_Sep_18_1736,60.0099510251,MAFE4ImagesEEG,001,201569,
AFNE22.JPG,AFSA24.JPG,AFSA22.JPG,AFNE25.JPG,AFNE24.JPG,AFSA25.JPG,,,,,,,,,,,,,,,,,0,5,5,6,,,,,,,AMSA17.jpg,AMNE14.jpg,AMSA05.jpg,AMNE02.jpg,AMSA05.jpg,MS,2,num_2,32,num_6,1.59974956652,,,2017_Sep_18_1736,60.0099510251,MAFE4ImagesEEG,001,201569,
AMNE22.JPG,AMSA24.JPG,AMSA22.JPG,AMNE25.JPG,AMNE24.JPG,AMSA25.JPG,,,,,,,,,,,,,,,,,0,6,6,7,,,,,,,AMNE07.jpg,AMNE02.jpg,AMSA14.jpg,AMSA11.jpg,AMNE02.jpg,MN,1,num_6,32,num_2,1.8333770074,,,2017_Sep_18_1736,60.0099510251,MAFE4ImagesEEG,001,201569,
AMSA21.JPG,AMNE23.JPG,AMNE21.JPG,AMSA25.JPG,AMNE25.JPG,AMSA23.JPG,,,,,,,,,,,,,,,,,0,7,7,5,,,,,,,AMSA13.jpg,AMNE18.jpg,AMNE07.jpg,AMSA04.jpg,AMSA04.jpg,MS,2,num_4,32,num_8,2.28379401728,,,2017_Sep_18_1736,60.0099510251,MAFE4ImagesEEG,001,201569,
AMSA21.JPG,AMNE22.JPG,AMNE21.JPG,AMSA23.JPG,AMSA22.JPG,AMNE23.JPG,,,,,,,,,,,,,,,,,0,8,8,1,,,,,,,AMNE05.jpg,AMSA14.jpg,AMNE12.jpg,AMSA10.jpg,AMSA10.jpg,MS,2,num_4,32,num_2,1.5834389904,,,2017_Sep_18_1736,60.0099510251,MAFE4ImagesEEG,001,201569,
AMSA25.JPG,AMNE24.JPG,AMSA24.JPG,AMNE26.JPG,AMSA21.JPG,AMNE25.JPG,,,,,,,,,,,,,,,,,0,9,9,3,,,,,,,AMSA13.jpg,AMSA14.jpg,AMNE12.jpg,AMNE02.jpg,AMSA14.jpg,MS,2,num_6,32,num_4,2.93328389665,,,2017_Sep_18_1736,60.0099510251,MAFE4ImagesEEG,001,201569,
AFNE23.JPG,AFNE24.JPG,AFNE22.JPG,AFSA24.JPG,AFSA22.JPG,AFSA23.JPG,,,,,,,,,,,,,,,,,,,,,0,0,0,8,,,AFSA19.jpg,AFSA07.jpg,AFNE18.jpg,AFNE07.jpg,AFNE18.jpg,FN,3,num_2,48,None,,,,2017_Sep_18_1736,60.0099510251,MAFE4ImagesEEG,001,201569,
AFNE22.JPG,AFSA24.JPG,AFSA22.JPG,AFNE25.JPG,AFNE24.JPG,AFSA25.JPG,,,,,,,,,,,,,,,,,,,,,0,1,1,6,,,AFNE06.jpg,AFSA11.jpg,AFNE16.jpg,AFSA07.jpg,AFSA07.jpg,FS,4,num_4,16,num_4,1.28351369058,,,2017_Sep_18_1736,60.0099510251,MAFE4ImagesEEG,001,201569,
AFSA25.JPG,AFNE24.JPG,AFSA24.JPG,AFNE21.JPG,AFSA21.JPG,AFNE25.JPG,,,,,,,,,,,,,,,,,,,,,0,2,2,2,,,AFNE04.jpg,AFNE02.jpg,AFSA11.jpg,AFSA03.jpg,AFSA11.jpg,FS,4,num_2,16,num_2,1.03344609472,,,2017_Sep_18_1736,60.0099510251,MAFE4ImagesEEG,001,201569,
AFSA21.JPG,AFNE23.JPG,AFNE21.JPG,AFSA25.JPG,AFNE25.JPG,AFSA23.JPG,,,,,,,,,,,,,,,,,,,,,0,3,3,4,,,AFSA10.jpg,AFNE03.jpg,AFNE09.jpg,AFSA06.jpg,AFNE09.jpg,FN,3,num_2,32,num_4,0.850142071489,,,2017_Sep_18_1736,60.0099510251,MAFE4ImagesEEG,001,201569,
AMSA21.JPG,AMNE23.JPG,AMNE21.JPG,AMSA25.JPG,AMNE25.JPG,AMSA23.JPG,,,,,,,,,,,,,,,,,,,,,0,4,4,5,,,AFSA05.jpg,AFSA12.jpg,AFNE06.jpg,AFNE08.jpg,AFSA12.jpg,FS,4,num_6,32,num_8,1.03348747012,,,2017_Sep_18_1736,60.0099510251,MAFE4ImagesEEG,001,201569,
AMSA21.JPG,AMNE22.JPG,AMNE21.JPG,AMSA23.JPG,AMSA22.JPG,AMNE23.JPG,,,,,,,,,,,,,,,,,,,,,0,5,5,1,,,AFNE13.jpg,AFSA05.jpg,AFNE02.jpg,AFSA08.jpg,AFNE13.jpg,FN,3,num_8,16,num_8,1.35012010089,,,2017_Sep_18_1736,60.0099510251,MAFE4ImagesEEG,001,201569,
AMNE22.JPG,AMSA24.JPG,AMSA22.JPG,AMNE25.JPG,AMNE24.JPG,AMSA25.JPG,,,,,,,,,,,,,,,,,,,,,0,6,6,7,,,AFNE16.jpg,AFNE15.jpg,AFSA05.jpg,AFSA19.jpg,AFNE15.jpg,FN,3,num_6,32,num_2,2.70000349614,,,2017_Sep_18_1736,60.0099510251,MAFE4ImagesEEG,001,201569,
AMNE23.JPG,AMNE24.JPG,AMNE22.JPG,AMSA24.JPG,AMSA22.JPG,AMSA23.JPG,,,,,,,,,,,,,,,,,,,,,0,7,7,9,,,AFNE04.jpg,AFSA19.jpg,AFNE17.jpg,AFSA14.jpg,AFNE04.jpg,FN,3,num_8,32,num_4,1.43341235304,,,2017_Sep_18_1736,60.0099510251,MAFE4ImagesEEG,001,201569,
AFSA21.JPG,AFNE22.JPG,AFNE21.JPG,AFSA23.JPG,AFSA22.JPG,AFNE23.JPG,,,,,,,,,,,,,,,,,,,,,0,8,8,0,,,AFNE13.jpg,AFNE16.jpg,AFSA15.jpg,AFSA13.jpg,AFNE16.jpg,FN,3,num_6,32,num_2,2.6500088363,,,2017_Sep_18_1736,60.0099510251,MAFE4ImagesEEG,001,201569,
AMSA25.JPG,AMNE24.JPG,AMSA24.JPG,AMNE26.JPG,AMSA21.JPG,AMNE25.JPG,,,,,,,,,,,,,,,,,,,,,0,9,9,3,,,AFSA13.jpg,AFSA05.jpg,AFNE05.jpg,AFNE08.jpg,AFSA13.jpg,FS,4,num_8,32,num_4,1.63323896099,,,2017_Sep_18_1736,60.0099510251,MAFE4ImagesEEG,001,201569,
,,,,,,,,,,,,,,,,,,,,,,,,,,,,,,,,,,,,,,,,,,,space,12.8991350613,2017_Sep_18_1736,60.0099510251,MAFE4ImagesEEG,001,201569,
AFNE01.JPG,AFNE01.JPG,AFNE01.JPG,AFNE01.JPG,AFNE01.JPG,AFNE01.JPG,0,0,0,0,,,,,,,,,,,,,,,,,,,,,,,AMNE02.jpg,AMSA07.jpg,AMSA16.jpg,AMNE17.jpg,AMSA16.jpg,MS,2,num_2,32,num_4,3.80001045601,,,2017_Sep_18_1736,60.0099510251,MAFE4ImagesEEG,001,201569,
AFNE01.JPG,AFNE01.JPG,AFNE01.JPG,AFNE01.JPG,AFNE01.JPG,AFNE01.JPG,0,1,1,1,,,,,,,,,,,,,,,,,,,,,,,AMSA13.jpg,AMNE01.jpg,AMSA12.jpg,AMNE10.jpg,AMNE10.jpg,MN,1,num_4,32,num_8,1.86660435773,,,2017_Sep_18_1736,60.0099510251,MAFE4ImagesEEG,001,201569,
AFNE01.JPG,AFNE01.JPG,AFNE01.JPG,AFNE01.JPG,AFNE01.JPG,AFNE01.JPG,0,2,2,8,,,,,,,,,,,,,,,,,,,,,,,AMSA09.jpg,AMNE20.jpg,AMSA03.jpg,AMNE08.jpg,AMSA09.jpg,MS,2,num_8,32,num_4,1.99999807542,,,2017_Sep_18_1736,60.0099510251,MAFE4ImagesEEG,001,201569,
AFNE01.JPG,AFNE01.JPG,AFNE01.JPG,AFNE01.JPG,AFNE01.JPG,AFNE01.JPG,0,3,3,2,,,,,,,,,,,,,,,,,,,,,,,AMSA20.jpg,AMSA15.jpg,AMNE16.jpg,AMNE05.jpg,AMNE16.jpg,MN,1,num_2,32,num_8,0.91677285824,,,2017_Sep_18_1736,60.0099510251,MAFE4ImagesEEG,001,201569,
AFNE01.JPG,AFNE01.JPG,AFNE01.JPG,AFNE01.JPG,AFNE01.JPG,AFNE01.JPG,0,4,4,3,,,,,,,,,,,,,,,,,,,,,,,AMSA04.jpg,AMSA05.jpg,AMNE05.jpg,AMNE02.jpg,AMSA04.jpg,MS,2,num_8,32,num_2,1.95006628078,,,2017_Sep_18_1736,60.0099510251,MAFE4ImagesEEG,001,201569,
AFNE01.JPG,AFNE01.JPG,AFNE01.JPG,AFNE01.JPG,AFNE01.JPG,AFNE01.JPG,0,5,5,4,,,,,,,,,,,,,,,,,,,,,,,AMSA09.jpg,AMNE19.jpg,AMNE13.jpg,AMSA08.jpg,AMSA09.jpg,MS,2,num_8,16,num_8,1.0335105632,,,2017_Sep_18_1736,60.0099510251,MAFE4ImagesEEG,001,201569,
AFNE01.JPG,AFNE01.JPG,AFNE01.JPG,AFNE01.JPG,AFNE01.JPG,AFNE01.JPG,0,6,6,9,,,,,,,,,,,,,,,,,,,,,,,AMSA20.jpg,AMNE01.jpg,AMSA07.jpg,AMNE11.jpg,AMNE01.jpg,MN,1,num_6,32,num_2,1.13339403877,,,2017_Sep_18_1736,60.0099510251,MAFE4ImagesEEG,001,201569,
AFNE01.JPG,AFNE01.JPG,AFNE01.JPG,AFNE01.JPG,AFNE01.JPG,AFNE01.JPG,0,7,7,7,,,,,,,,,,,,,,,,,,,,,,,AMNE10.jpg,AMSA10.jpg,AMSA11.jpg,AMNE08.jpg,AMSA11.jpg,MS,2,num_2,32,num_6,2.4333366584,,,2017_Sep_18_1736,60.0099510251,MAFE4ImagesEEG,001,201569,
AFNE01.JPG,AFNE01.JPG,AFNE01.JPG,AFNE01.JPG,AFNE01.JPG,AFNE01.JPG,0,8,8,5,,,,,,,,,,,,,,,,,,,,,,,AMNE11.jpg,AMNE09.jpg,AMSA08.jpg,AMSA11.jpg,AMSA08.jpg,MS,2,num_2,32,num_4,3.29992177151,,,2017_Sep_18_1736,60.0099510251,MAFE4ImagesEEG,001,201569,
AFNE01.JPG,AFNE01.JPG,AFNE01.JPG,AFNE01.JPG,AFNE01.JPG,AFNE01.JPG,0,9,9,6,,,,,,,,,,,,,,,,,,,,,,,AMSA10.jpg,AMSA20.jpg,AMNE04.jpg,AMNE20.jpg,AMNE04.jpg,MN,1,num_2,16,num_2,1.05010595638,,,2017_Sep_18_1736,60.0099510251,MAFE4ImagesEEG,001,201569,
AFNE01.JPG,AFNE01.JPG,AFNE01.JPG,AFNE01.JPG,AFNE01.JPG,AFNE01.JPG,1,0,10,3,,,,,,,,,,,,,,,,,,,,,,,AMNE12.jpg,AMNE15.jpg,AMSA15.jpg,AMSA05.jpg,AMNE15.jpg,MN,1,num_6,16,num_6,1.29982875707,,,2017_Sep_18_1736,60.0099510251,MAFE4ImagesEEG,001,201569,
AFNE01.JPG,AFNE01.JPG,AFNE01.JPG,AFNE01.JPG,AFNE01.JPG,AFNE01.JPG,1,1,11,2,,,,,,,,,,,,,,,,,,,,,,,AMSA08.jpg,AMNE03.jpg,AMNE04.jpg,AMSA10.jpg,AMNE03.jpg,MN,1,num_6,16,num_6,1.20010019909,,,2017_Sep_18_1736,60.0099510251,MAFE4ImagesEEG,001,201569,
AFNE01.JPG,AFNE01.JPG,AFNE01.JPG,AFNE01.JPG,AFNE01.JPG,AFNE01.JPG,1,2,12,7,,,,,,,,,,,,,,,,,,,,,,,AMSA04.jpg,AMNE01.jpg,AMSA15.jpg,AMNE03.jpg,AMNE01.jpg,MN,1,num_6,32,num_8,0.783473117044,,,2017_Sep_18_1736,60.0099510251,MAFE4ImagesEEG,001,201569,
AFNE01.JPG,AFNE01.JPG,AFNE01.JPG,AFNE01.JPG,AFNE01.JPG,AFNE01.JPG,1,3,13,0,,,,,,,,,,,,,,,,,,,,,,,AMSA15.jpg,AMSA19.jpg,AMNE20.jpg,AMNE05.jpg,AMSA15.jpg,MS,2,num_8,16,num_8,0.616839860799,,,2017_Sep_18_1736,60.0099510251,MAFE4ImagesEEG,001,201569,
AFNE01.JPG,AFNE01.JPG,AFNE01.JPG,AFNE01.JPG,AFNE01.JPG,AFNE01.JPG,1,4,14,1,,,,,,,,,,,,,,,,,,,,,,,AMSA11.jpg,AMSA12.jpg,AMNE19.jpg,AMNE02.jpg,AMNE02.jpg,MN,1,num_4,16,num_4,1.45003789547,,,2017_Sep_18_1736,60.0099510251,MAFE4ImagesEEG,001,201569,
AFNE01.JPG,AFNE01.JPG,AFNE01.JPG,AFNE01.JPG,AFNE01.JPG,AFNE01.JPG,1,5,15,5,,,,,,,,,,,,,,,,,,,,,,,AMSA08.jpg,AMNE15.jpg,AMSA03.jpg,AMNE12.jpg,AMNE15.jpg,MN,1,num_6,16,num_6,0.550193678588,,,2017_Sep_18_1736,60.0099510251,MAFE4ImagesEEG,001,201569,
AFNE01.JPG,AFNE01.JPG,AFNE01.JPG,AFNE01.JPG,AFNE01.JPG,AFNE01.JPG,1,6,16,4,,,,,,,,,,,,,,,,,,,,,,,AMSA05.jpg,AMNE05.jpg,AMNE11.jpg,AMSA18.jpg,AMSA18.jpg,MS,2,num_4,32,num_8,1.46672822721,,,2017_Sep_18_1736,60.0099510251,MAFE4ImagesEEG,001,201569,
AFNE01.JPG,AFNE01.JPG,AFNE01.JPG,AFNE01.JPG,AFNE01.JPG,AFNE01.JPG,1,7,17,8,,,,,,,,,,,,,,,,,,,,,,,AMNE11.jpg,AMSA14.jpg,AMSA19.jpg,AMNE15.jpg,AMSA14.jpg,MS,2,num_6,16,num_6,0.500338220038,,,2017_Sep_18_1736,60.0099510251,MAFE4ImagesEEG,001,201569,
AFNE01.JPG,AFNE01.JPG,AFNE01.JPG,AFNE01.JPG,AFNE01.JPG,AFNE01.JPG,1,8,18,9,,,,,,,,,,,,,,,,,,,,,,,AMNE20.jpg,AMNE03.jpg,AMSA19.jpg,AMSA03.jpg,AMNE03.jpg,MN,1,num_6,16,num_6,0.750125810038,,,2017_Sep_18_1736,60.0099510251,MAFE4ImagesEEG,001,201569,
AFNE01.JPG,AFNE01.JPG,AFNE01.JPG,AFNE01.JPG,AFNE01.JPG,AFNE01.JPG,1,9,19,6,,,,,,,,,,,,,,,,,,,,,,,AMNE04.jpg,AMSA15.jpg,AMNE16.jpg,AMSA01.jpg,AMNE16.jpg,MN,1,num_2,16,num_2,1.08347186609,,,2017_Sep_18_1736,60.0099510251,MAFE4ImagesEEG,001,201569,
AFNE01.JPG,AFNE01.JPG,AFNE01.JPG,AFNE01.JPG,AFNE01.JPG,AFNE01.JPG,2,0,20,1,,,,,,,,,,,,,,,,,,,,,,,AMNE11.jpg,AMSA12.jpg,AMNE09.jpg,AMSA07.jpg,AMNE09.jpg,MN,1,num_2,32,num_8,1.15020208224,,,2017_Sep_18_1736,60.0099510251,MAFE4ImagesEEG,001,201569,
AFNE01.JPG,AFNE01.JPG,AFNE01.JPG,AFNE01.JPG,AFNE01.JPG,AFNE01.JPG,2,1,21,3,,,,,,,,,,,,,,,,,,,,,,,AMSA06.jpg,AMSA03.jpg,AMNE15.jpg,AMNE13.jpg,AMNE15.jpg,MN,1,num_2,16,num_2,1.23315274622,,,2017_Sep_18_1736,60.0099510251,MAFE4ImagesEEG,001,201569,
AFNE01.JPG,AFNE01.JPG,AFNE01.JPG,AFNE01.JPG,AFNE01.JPG,AFNE01.JPG,2,2,22,7,,,,,,,,,,,,,,,,,,,,,,,AMSA11.jpg,AMNE02.jpg,AMSA05.jpg,AMNE09.jpg,AMNE02.jpg,MN,1,num_6,16,num_6,1.08345198049,,,2017_Sep_18_1736,60.0099510251,MAFE4ImagesEEG,001,201569,
AFNE01.JPG,AFNE01.JPG,AFNE01.JPG,AFNE01.JPG,AFNE01.JPG,AFNE01.JPG,2,3,23,4,,,,,,,,,,,,,,,,,,,,,,,AMNE14.jpg,AMSA12.jpg,AMNE20.jpg,AMSA11.jpg,AMNE14.jpg,MN,1,num_8,16,num_8,1.1834509219,,,2017_Sep_18_1736,60.0099510251,MAFE4ImagesEEG,001,201569,
AFNE01.JPG,AFNE01.JPG,AFNE01.JPG,AFNE01.JPG,AFNE01.JPG,AFNE01.JPG,2,4,24,8,,,,,,,,,,,,,,,,,,,,,,,AMNE05.jpg,AMSA04.jpg,AMNE19.jpg,AMSA02.jpg,AMNE05.jpg,MN,1,num_8,32,num_2,1.35006076423,,,2017_Sep_18_1736,60.0099510251,MAFE4ImagesEEG,001,201569,
AFNE01.JPG,AFNE01.JPG,AFNE01.JPG,AFNE01.JPG,AFNE01.JPG,AFNE01.JPG,2,5,25,6,,,,,,,,,,,,,,,,,,,,,,,AMNE13.jpg,AMNE07.jpg,AMSA20.jpg,AMSA19.jpg,AMSA19.jpg,MS,2,num_4,16,num_4,1.56670215121,,,2017_Sep_18_1736,60.0099510251,MAFE4ImagesEEG,001,201569,
AFNE01.JPG,AFNE01.JPG,AFNE01.JPG,AFNE01.JPG,AFNE01.JPG,AFNE01.JPG,2,6,26,5,,,,,,,,,,,,,,,,,,,,,,,AMSA19.jpg,AMSA08.jpg,AMNE18.jpg,AMNE10.jpg,AMNE10.jpg,MN,1,num_4,16,num_4,0.950143579161,,,2017_Sep_18_1736,60.0099510251,MAFE4ImagesEEG,001,201569,
AFNE01.JPG,AFNE01.JPG,AFNE01.JPG,AFNE01.JPG,AFNE01.JPG,AFNE01.JPG,2,7,27,0,,,,,,,,,,,,,,,,,,,,,,,AMNE12.jpg,AMSA06.jpg,AMNE13.jpg,AMSA01.jpg,AMSA06.jpg,MS,2,num_6,32,num_8,0.966712992173,,,2017_Sep_18_1736,60.0099510251,MAFE4ImagesEEG,001,201569,
AFNE01.JPG,AFNE01.JPG,AFNE01.JPG,AFNE01.JPG,AFNE01.JPG,AFNE01.JPG,2,8,28,9,,,,,,,,,,,,,,,,,,,,,,,AMNE12.jpg,AMSA07.jpg,AMSA17.jpg,AMNE13.jpg,AMSA07.jpg,MS,2,num_6,32,num_8,3.29994518543,,,2017_Sep_18_1736,60.0099510251,MAFE4ImagesEEG,001,201569,
AFNE01.JPG,AFNE01.JPG,AFNE01.JPG,AFNE01.JPG,AFNE01.JPG,AFNE01.JPG,2,9,29,2,,,,,,,,,,,,,,,,,,,,,,,AMNE04.jpg,AMNE14.jpg,AMSA10.jpg,AMSA07.jpg,AMSA10.jpg,MS,2,num_2,16,num_2,1.23343178979,,,2017_Sep_18_1736,60.0099510251,MAFE4ImagesEEG,001,201569,
AFNE01.JPG,AFNE01.JPG,AFNE01.JPG,AFNE01.JPG,AFNE01.JPG,AFNE01.JPG,3,0,30,6,,,,,,,,,,,,,,,,,,,,,,,AMNE12.jpg,AMSA06.jpg,AMSA07.jpg,AMNE09.jpg,AMSA07.jpg,MS,2,num_2,16,num_2,1.60009083361,,,2017_Sep_18_1736,60.0099510251,MAFE4ImagesEEG,001,201569,
AFNE01.JPG,AFNE01.JPG,AFNE01.JPG,AFNE01.JPG,AFNE01.JPG,AFNE01.JPG,3,1,31,3,,,,,,,,,,,,,,,,,,,,,,,AMSA05.jpg,AMSA17.jpg,AMNE14.jpg,AMNE12.jpg,AMSA05.jpg,MS,2,num_8,16,num_8,1.38312934828,,,2017_Sep_18_1736,60.0099510251,MAFE4ImagesEEG,001,201569,
AFNE01.JPG,AFNE01.JPG,AFNE01.JPG,AFNE01.JPG,AFNE01.JPG,AFNE01.JPG,3,2,32,5,,,,,,,,,,,,,,,,,,,,,,,AMSA15.jpg,AMSA18.jpg,AMNE08.jpg,AMNE02.jpg,AMNE02.jpg,MN,1,num_4,32,num_2,1.58343610377,,,2017_Sep_18_1736,60.0099510251,MAFE4ImagesEEG,001,201569,
AFNE01.JPG,AFNE01.JPG,AFNE01.JPG,AFNE01.JPG,AFNE01.JPG,AFNE01.JPG,3,3,33,8,,,,,,,,,,,,,,,,,,,,,,,AMSA14.jpg,AMNE11.jpg,AMNE08.jpg,AMSA08.jpg,AMNE08.jpg,MN,1,num_2,32,num_6,1.85006028297,,,2017_Sep_18_1736,60.0099510251,MAFE4ImagesEEG,001,201569,
AFNE01.JPG,AFNE01.JPG,AFNE01.JPG,AFNE01.JPG,AFNE01.JPG,AFNE01.JPG,3,4,34,1,,,,,,,,,,,,,,,,,,,,,,,AMSA01.jpg,AMSA18.jpg,AMNE07.jpg,AMNE03.jpg,AMSA18.jpg,MS,2,num_6,32,num_2,3.61682863487,,,2017_Sep_18_1736,60.0099510251,MAFE4ImagesEEG,001,201569,
AFNE01.JPG,AFNE01.JPG,AFNE01.JPG,AFNE01.JPG,AFNE01.JPG,AFNE01.JPG,3,5,35,0,,,,,,,,,,,,,,,,,,,,,,,AMSA14.jpg,AMSA19.jpg,AMNE19.jpg,AMNE08.jpg,AMSA14.jpg,MS,2,num_8,16,num_8,2.15002727904,,,2017_Sep_18_1736,60.0099510251,MAFE4ImagesEEG,001,201569,
AFNE01.JPG,AFNE01.JPG,AFNE01.JPG,AFNE01.JPG,AFNE01.JPG,AFNE01.JPG,3,6,36,7,,,,,,,,,,,,,,,,,,,,,,,AMNE05.jpg,AMSA02.jpg,AMSA18.jpg,AMNE11.jpg,AMNE05.jpg,MN,1,num_8,16,num_8,2.98328080145,,,2017_Sep_18_1736,60.0099510251,MAFE4ImagesEEG,001,201569,
AFNE01.JPG,AFNE01.JPG,AFNE01.JPG,AFNE01.JPG,AFNE01.JPG,AFNE01.JPG,3,7,37,9,,,,,,,,,,,,,,,,,,,,,,,AMNE18.jpg,AMNE09.jpg,AMSA18.jpg,AMSA07.jpg,AMNE18.jpg,MN,1,num_8,16,num_8,2.65000145952,,,2017_Sep_18_1736,60.0099510251,MAFE4ImagesEEG,001,201569,
AFNE01.JPG,AFNE01.JPG,AFNE01.JPG,AFNE01.JPG,AFNE01.JPG,AFNE01.JPG,3,8,38,4,,,,,,,,,,,,,,,,,,,,,,,AMSA10.jpg,AMNE09.jpg,AMSA19.jpg,AMNE03.jpg,AMNE09.jpg,MN,1,num_6,32,num_2,1.00006992114,,,2017_Sep_18_1736,60.0099510251,MAFE4ImagesEEG,001,201569,
AFNE01.JPG,AFNE01.JPG,AFNE01.JPG,AFNE01.JPG,AFNE01.JPG,AFNE01.JPG,3,9,39,2,,,,,,,,,,,,,,,,,,,,,,,AMSA14.jpg,AMNE10.jpg,AMNE01.jpg,AMSA01.jpg,AMSA14.jpg,MS,2,num_8,16,num_8,0.550000272691,,,2017_Sep_18_1736,60.0099510251,MAFE4ImagesEEG,001,201569,
AFNE01.JPG,AFNE01.JPG,AFNE01.JPG,AFNE01.JPG,AFNE01.JPG,AFNE01.JPG,4,0,40,9,,,,,,,,,,,,,,,,,,,,,,,AMNE20.jpg,AMNE13.jpg,AMSA16.jpg,AMSA07.jpg,AMNE20.jpg,MN,1,num_8,32,num_2,1.16675321292,,,2017_Sep_18_1736,60.0099510251,MAFE4ImagesEEG,001,201569,
AFNE01.JPG,AFNE01.JPG,AFNE01.JPG,AFNE01.JPG,AFNE01.JPG,AFNE01.JPG,4,1,41,2,,,,,,,,,,,,,,,,,,,,,,,AMSA12.jpg,AMNE15.jpg,AMNE07.jpg,AMSA18.jpg,AMSA12.jpg,MS,2,num_8,16,num_8,2.49997995375,,,2017_Sep_18_1736,60.0099510251,MAFE4ImagesEEG,001,201569,
AFNE01.JPG,AFNE01.JPG,AFNE01.JPG,AFNE01.JPG,AFNE01.JPG,AFNE01.JPG,4,2,42,8,,,,,,,,,,,,,,,,,,,,,,,AMNE07.jpg,AMSA19.jpg,AMNE18.jpg,AMSA17.jpg,AMSA19.jpg,MS,2,num_6,32,num_2,2.53337280569,,,2017_Sep_18_1736,60.0099510251,MAFE4ImagesEEG,001,201569,
AFNE01.JPG,AFNE01.JPG,AFNE01.JPG,AFNE01.JPG,AFNE01.JPG,AFNE01.JPG,4,3,43,4,,,,,,,,,,,,,,,,,,,,,,,AMSA19.jpg,AMSA15.jpg,AMNE05.jpg,AMNE01.jpg,AMSA15.jpg,MS,2,num_6,16,num_6,2.16665731184,,,2017_Sep_18_1736,60.0099510251,MAFE4ImagesEEG,001,201569,
AFNE01.JPG,AFNE01.JPG,AFNE01.JPG,AFNE01.JPG,AFNE01.JPG,AFNE01.JPG,4,4,44,5,,,,,,,,,,,,,,,,,,,,,,,AMNE04.jpg,AMSA05.jpg,AMSA07.jpg,AMNE20.jpg,AMSA05.jpg,MS,2,num_6,32,num_4,0.850117374677,,,2017_Sep_18_1736,60.0099510251,MAFE4ImagesEEG,001,201569,
AFNE01.JPG,AFNE01.JPG,AFNE01.JPG,AFNE01.JPG,AFNE01.JPG,AFNE01.JPG,4,5,45,6,,,,,,,,,,,,,,,,,,,,,,,AMNE08.jpg,AMNE13.jpg,AMSA02.jpg,AMSA11.jpg,AMSA11.jpg,MS,2,num_4,32,num_8,0.900113317417,,,2017_Sep_18_1736,60.0099510251,MAFE4ImagesEEG,001,201569,
AFNE01.JPG,AFNE01.JPG,AFNE01.JPG,AFNE01.JPG,AFNE01.JPG,AFNE01.JPG,4,6,46,3,,,,,,,,,,,,,,,,,,,,,,,AMNE10.jpg,AMSA09.jpg,AMNE20.jpg,AMSA17.jpg,AMSA09.jpg,MS,2,num_6,32,num_4,1.59991763392,,,2017_Sep_18_1736,60.0099510251,MAFE4ImagesEEG,001,201569,
AFNE01.JPG,AFNE01.JPG,AFNE01.JPG,AFNE01.JPG,AFNE01.JPG,AFNE01.JPG,4,7,47,0,,,,,,,,,,,,,,,,,,,,,,,AMSA10.jpg,AMNE14.jpg,AMSA03.jpg,AMNE02.jpg,AMNE14.jpg,MN,1,num_6,32,num_8,2.10002492159,,,2017_Sep_18_1736,60.0099510251,MAFE4ImagesEEG,001,201569,
AFNE01.JPG,AFNE01.JPG,AFNE01.JPG,AFNE01.JPG,AFNE01.JPG,AFNE01.JPG,4,8,48,7,,,,,,,,,,,,,,,,,,,,,,,AMNE03.jpg,AMSA14.jpg,AMNE17.jpg,AMSA03.jpg,AMSA14.jpg,MS,2,num_6,32,num_2,3.4165513874,,,2017_Sep_18_1736,60.0099510251,MAFE4ImagesEEG,001,201569,
AFNE01.JPG,AFNE01.JPG,AFNE01.JPG,AFNE01.JPG,AFNE01.JPG,AFNE01.JPG,4,9,49,1,,,,,,,,,,,,,,,,,,,,,,,AMSA14.jpg,AMNE02.jpg,AMNE04.jpg,AMSA20.jpg,AMNE04.jpg,MN,1,num_2,32,num_6,0.983338213991,,,2017_Sep_18_1736,60.0099510251,MAFE4ImagesEEG,001,201569,
AFNE01.JPG,AFNE01.JPG,AFNE01.JPG,AFNE01.JPG,AFNE01.JPG,AFNE01.JPG,5,0,50,3,,,,,,,,,,,,,,,,,,,,,,,AMSA15.jpg,AMSA18.jpg,AMNE11.jpg,AMNE18.jpg,AMSA15.jpg,MS,2,num_8,16,num_8,1.21676358883,,,2017_Sep_18_1736,60.0099510251,MAFE4ImagesEEG,001,201569,
AFNE01.JPG,AFNE01.JPG,AFNE01.JPG,AFNE01.JPG,AFNE01.JPG,AFNE01.JPG,5,1,51,8,,,,,,,,,,,,,,,,,,,,,,,AMNE19.jpg,AMSA15.jpg,AMSA02.jpg,AMNE08.jpg,AMNE19.jpg,MN,1,num_8,32,num_2,1.33344067424,,,2017_Sep_18_1736,60.0099510251,MAFE4ImagesEEG,001,201569,
AFNE01.JPG,AFNE01.JPG,AFNE01.JPG,AFNE01.JPG,AFNE01.JPG,AFNE01.JPG,5,2,52,5,,,,,,,,,,,,,,,,,,,,,,,AMNE19.jpg,AMSA04.jpg,AMNE06.jpg,AMSA10.jpg,AMSA04.jpg,MS,2,num_6,32,num_4,1.45037659653,,,2017_Sep_18_1736,60.0099510251,MAFE4ImagesEEG,001,201569,
AFNE01.JPG,AFNE01.JPG,AFNE01.JPG,AFNE01.JPG,AFNE01.JPG,AFNE01.JPG,5,3,53,2,,,,,,,,,,,,,,,,,,,,,,,AMSA07.jpg,AMSA11.jpg,AMNE02.jpg,AMNE11.jpg,AMNE02.jpg,MN,1,num_2,16,num_2,1.23343146895,,,2017_Sep_18_1736,60.0099510251,MAFE4ImagesEEG,001,201569,
AFNE01.JPG,AFNE01.JPG,AFNE01.JPG,AFNE01.JPG,AFNE01.JPG,AFNE01.JPG,5,4,54,1,,,,,,,,,,,,,,,,,,,,,,,AMSA07.jpg,AMNE08.jpg,AMSA18.jpg,AMNE04.jpg,AMNE08.jpg,MN,1,num_6,32,num_2,2.66663181293,,,2017_Sep_18_1736,60.0099510251,MAFE4ImagesEEG,001,201569,
AFNE01.JPG,AFNE01.JPG,AFNE01.JPG,AFNE01.JPG,AFNE01.JPG,AFNE01.JPG,5,5,55,6,,,,,,,,,,,,,,,,,,,,,,,AMSA18.jpg,AMNE15.jpg,AMNE06.jpg,AMSA13.jpg,AMSA18.jpg,MS,2,num_8,32,num_4,2.38336733705,,,2017_Sep_18_1736,60.0099510251,MAFE4ImagesEEG,001,201569,
AFNE01.JPG,AFNE01.JPG,AFNE01.JPG,AFNE01.JPG,AFNE01.JPG,AFNE01.JPG,5,6,56,4,,,,,,,,,,,,,,,,,,,,,,,AMSA17.jpg,AMNE03.jpg,AMNE05.jpg,AMSA01.jpg,AMNE05.jpg,MN,1,num_2,32,num_6,1.53342155833,,,2017_Sep_18_1736,60.0099510251,MAFE4ImagesEEG,001,201569,
AFNE01.JPG,AFNE01.JPG,AFNE01.JPG,AFNE01.JPG,AFNE01.JPG,AFNE01.JPG,5,7,57,0,,,,,,,,,,,,,,,,,,,,,,,AMSA14.jpg,AMNE07.jpg,AMSA11.jpg,AMNE14.jpg,AMSA14.jpg,MS,2,num_8,16,num_8,1.10009869165,,,2017_Sep_18_1736,60.0099510251,MAFE4ImagesEEG,001,201569,
AFNE01.JPG,AFNE01.JPG,AFNE01.JPG,AFNE01.JPG,AFNE01.JPG,AFNE01.JPG,5,8,58,9,,,,,,,,,,,,,,,,,,,,,,,AMSA04.jpg,AMNE10.jpg,AMSA11.jpg,AMNE16.jpg,AMSA04.jpg,MS,2,num_8,32,num_2,3.46638279059,,,2017_Sep_18_1736,60.0099510251,MAFE4ImagesEEG,001,201569,
AFNE01.JPG,AFNE01.JPG,AFNE01.JPG,AFNE01.JPG,AFNE01.JPG,AFNE01.JPG,5,9,59,7,,,,,,,,,,,,,,,,,,,,,,,AMSA15.jpg,AMNE17.jpg,AMNE06.jpg,AMSA03.jpg,AMSA03.jpg,MS,2,num_4,32,num_8,1.60007992829,,,2017_Sep_18_1736,60.0099510251,MAFE4ImagesEEG,001,201569,
,,,,,,,,,,,,,,,,,,,,,,,,,,,,,,,,,,,,,,,,,,,space,26.2817839414,2017_Sep_18_1736,60.0099510251,MAFE4ImagesEEG,001,201569,
AFNE01.JPG,AFNE01.JPG,AFNE01.JPG,AFNE01.JPG,AFNE01.JPG,AFNE01.JPG,,,,,0,0,0,4,,,,,,,,,,,,,,,,,,,AFNE02.jpg,AFSA03.jpg,AFNE19.jpg,AFSA04.jpg,AFSA03.jpg,FS,4,num_6,16,num_6,0.883451531408,,,2017_Sep_18_1736,60.0099510251,MAFE4ImagesEEG,001,201569,
AFNE01.JPG,AFNE01.JPG,AFNE01.JPG,AFNE01.JPG,AFNE01.JPG,AFNE01.JPG,,,,,0,1,1,6,,,,,,,,,,,,,,,,,,,AFNE08.jpg,AFNE13.jpg,AFSA09.jpg,AFSA08.jpg,AFNE08.jpg,FN,3,num_8,32,num_4,2.53333720355,,,2017_Sep_18_1736,60.0099510251,MAFE4ImagesEEG,001,201569,
AFNE01.JPG,AFNE01.JPG,AFNE01.JPG,AFNE01.JPG,AFNE01.JPG,AFNE01.JPG,,,,,0,2,2,1,,,,,,,,,,,,,,,,,,,AFNE12.jpg,AFSA05.jpg,AFNE02.jpg,AFSA04.jpg,AFNE12.jpg,FN,3,num_8,32,num_2,1.78337817802,,,2017_Sep_18_1736,60.0099510251,MAFE4ImagesEEG,001,201569,
AFNE01.JPG,AFNE01.JPG,AFNE01.JPG,AFNE01.JPG,AFNE01.JPG,AFNE01.JPG,,,,,0,3,3,0,,,,,,,,,,,,,,,,,,,AFSA18.jpg,AFSA02.jpg,AFNE10.jpg,AFNE05.jpg,AFNE05.jpg,FN,3,num_4,32,num_8,2.94953673962,,,2017_Sep_18_1736,60.0099510251,MAFE4ImagesEEG,001,201569,
AFNE01.JPG,AFNE01.JPG,AFNE01.JPG,AFNE01.JPG,AFNE01.JPG,AFNE01.JPG,,,,,0,4,4,3,,,,,,,,,,,,,,,,,,,AFNE02.jpg,AFSA18.jpg,AFSA13.jpg,AFNE15.jpg,AFNE15.jpg,FN,3,num_4,32,num_2,4.28305920237,,,2017_Sep_18_1736,60.0099510251,MAFE4ImagesEEG,001,201569,
AFNE01.JPG,AFNE01.JPG,AFNE01.JPG,AFNE01.JPG,AFNE01.JPG,AFNE01.JPG,,,,,0,5,5,8,,,,,,,,,,,,,,,,,,,AFSA20.jpg,AFNE08.jpg,AFNE04.jpg,AFSA06.jpg,AFNE04.jpg,FN,3,num_2,32,num_8,1.68350592884,,,2017_Sep_18_1736,60.0099510251,MAFE4ImagesEEG,001,201569,
AFNE01.JPG,AFNE01.JPG,AFNE01.JPG,AFNE01.JPG,AFNE01.JPG,AFNE01.JPG,,,,,0,6,6,5,,,,,,,,,,,,,,,,,,,AFSA03.jpg,AFNE13.jpg,AFNE07.jpg,AFSA01.jpg,AFNE07.jpg,FN,3,num_2,16,num_2,0.833722764859,,,2017_Sep_18_1736,60.0099510251,MAFE4ImagesEEG,001,201569,
AFNE01.JPG,AFNE01.JPG,AFNE01.JPG,AFNE01.JPG,AFNE01.JPG,AFNE01.JPG,,,,,0,7,7,7,,,,,,,,,,,,,,,,,,,AFNE19.jpg,AFSA15.jpg,AFSA16.jpg,AFNE07.jpg,AFSA15.jpg,FS,4,num_6,16,num_6,1.03345892439,,,2017_Sep_18_1736,60.0099510251,MAFE4ImagesEEG,001,201569,
AFNE01.JPG,AFNE01.JPG,AFNE01.JPG,AFNE01.JPG,AFNE01.JPG,AFNE01.JPG,,,,,0,8,8,2,,,,,,,,,,,,,,,,,,,AFNE15.jpg,AFSA05.jpg,AFNE07.jpg,AFSA18.jpg,AFSA18.jpg,FS,4,num_4,16,num_4,1.86665503471,,,2017_Sep_18_1736,60.0099510251,MAFE4ImagesEEG,001,201569,
AFNE01.JPG,AFNE01.JPG,AFNE01.JPG,AFNE01.JPG,AFNE01.JPG,AFNE01.JPG,,,,,0,9,9,9,,,,,,,,,,,,,,,,,,,AFNE17.jpg,AFNE03.jpg,AFSA10.jpg,AFSA20.jpg,AFNE03.jpg,FN,3,num_6,16,num_6,1.93339872151,,,2017_Sep_18_1736,60.0099510251,MAFE4ImagesEEG,001,201569,
AFNE01.JPG,AFNE01.JPG,AFNE01.JPG,AFNE01.JPG,AFNE01.JPG,AFNE01.JPG,,,,,1,0,10,2,,,,,,,,,,,,,,,,,,,AFNE06.jpg,AFSA12.jpg,AFSA07.jpg,AFNE14.jpg,AFSA07.jpg,FS,4,num_2,16,num_2,1.85003622761,,,2017_Sep_18_1736,60.0099510251,MAFE4ImagesEEG,001,201569,
AFNE01.JPG,AFNE01.JPG,AFNE01.JPG,AFNE01.JPG,AFNE01.JPG,AFNE01.JPG,,,,,1,1,11,9,,,,,,,,,,,,,,,,,,,AFNE18.jpg,AFSA06.jpg,AFSA02.jpg,AFNE06.jpg,AFSA02.jpg,FS,4,num_2,32,num_4,3.06665965309,,,2017_Sep_18_1736,60.0099510251,MAFE4ImagesEEG,001,201569,
AFNE01.JPG,AFNE01.JPG,AFNE01.JPG,AFNE01.JPG,AFNE01.JPG,AFNE01.JPG,,,,,1,2,12,4,,,,,,,,,,,,,,,,,,,AFSA20.jpg,AFSA03.jpg,AFNE17.jpg,AFNE08.jpg,AFSA20.jpg,FS,4,num_8,32,num_2,1.84977803216,,,2017_Sep_18_1736,60.0099510251,MAFE4ImagesEEG,001,201569,
AFNE01.JPG,AFNE01.JPG,AFNE01.JPG,AFNE01.JPG,AFNE01.JPG,AFNE01.JPG,,,,,1,3,13,5,,,,,,,,,,,,,,,,,,,AFNE07.jpg,AFSA05.jpg,AFSA08.jpg,AFNE10.jpg,AFNE10.jpg,FN,3,num_4,32,num_8,2.1666884236,,,2017_Sep_18_1736,60.0099510251,MAFE4ImagesEEG,001,201569,
AFNE01.JPG,AFNE01.JPG,AFNE01.JPG,AFNE01.JPG,AFNE01.JPG,AFNE01.JPG,,,,,1,4,14,6,,,,,,,,,,,,,,,,,,,AFNE04.jpg,AFNE08.jpg,AFSA08.jpg,AFSA04.jpg,AFNE08.jpg,FN,3,num_6,16,num_6,2.30004589795,,,2017_Sep_18_1736,60.0099510251,MAFE4ImagesEEG,001,201569,
AFNE01.JPG,AFNE01.JPG,AFNE01.JPG,AFNE01.JPG,AFNE01.JPG,AFNE01.JPG,,,,,1,5,15,3,,,,,,,,,,,,,,,,,,,AFNE04.jpg,AFSA16.jpg,AFSA14.jpg,AFNE05.jpg,AFSA16.jpg,FS,4,num_6,32,num_2,2.99996760534,,,2017_Sep_18_1736,60.0099510251,MAFE4ImagesEEG,001,201569,
AFNE01.JPG,AFNE01.JPG,AFNE01.JPG,AFNE01.JPG,AFNE01.JPG,AFNE01.JPG,,,,,1,6,16,8,,,,,,,,,,,,,,,,,,,AFSA08.jpg,AFNE13.jpg,AFNE07.jpg,AFSA02.jpg,AFSA08.jpg,FS,4,num_8,32,num_4,1.81666454463,,,2017_Sep_18_1736,60.0099510251,MAFE4ImagesEEG,001,201569,
AFNE01.JPG,AFNE01.JPG,AFNE01.JPG,AFNE01.JPG,AFNE01.JPG,AFNE01.JPG,,,,,1,7,17,7,,,,,,,,,,,,,,,,,,,AFSA08.jpg,AFNE15.jpg,AFSA15.jpg,AFNE12.jpg,AFSA15.jpg,FS,4,num_2,32,num_6,1.98334430787,,,2017_Sep_18_1736,60.0099510251,MAFE4ImagesEEG,001,201569,
AFNE01.JPG,AFNE01.JPG,AFNE01.JPG,AFNE01.JPG,AFNE01.JPG,AFNE01.JPG,,,,,1,8,18,0,,,,,,,,,,,,,,,,,,,AFNE01.jpg,AFSA05.jpg,AFNE15.jpg,AFSA01.jpg,AFNE01.jpg,FN,3,num_8,32,num_6,0.816794764949,,,2017_Sep_18_1736,60.0099510251,MAFE4ImagesEEG,001,201569,
AFNE01.JPG,AFNE01.JPG,AFNE01.JPG,AFNE01.JPG,AFNE01.JPG,AFNE01.JPG,,,,,1,9,19,1,,,,,,,,,,,,,,,,,,,AFSA14.jpg,AFNE20.jpg,AFSA20.jpg,AFNE04.jpg,AFSA14.jpg,FS,4,num_8,16,num_8,0.86679359409,,,2017_Sep_18_1736,60.0099510251,MAFE4ImagesEEG,001,201569,
AFNE01.JPG,AFNE01.JPG,AFNE01.JPG,AFNE01.JPG,AFNE01.JPG,AFNE01.JPG,,,,,2,0,20,3,,,,,,,,,,,,,,,,,,,AFSA11.jpg,AFNE14.jpg,AFNE04.jpg,AFSA17.jpg,AFSA17.jpg,FS,4,num_4,16,num_4,1.06674657366,,,2017_Sep_18_1736,60.0099510251,MAFE4ImagesEEG,001,201569,
AFNE01.JPG,AFNE01.JPG,AFNE01.JPG,AFNE01.JPG,AFNE01.JPG,AFNE01.JPG,,,,,2,1,21,5,,,,,,,,,,,,,,,,,,,AFNE09.jpg,AFSA08.jpg,AFNE06.jpg,AFSA19.jpg,AFNE09.jpg,FN,3,num_8,16,num_8,1.05012584222,,,2017_Sep_18_1736,60.0099510251,MAFE4ImagesEEG,001,201569,
AFNE01.JPG,AFNE01.JPG,AFNE01.JPG,AFNE01.JPG,AFNE01.JPG,AFNE01.JPG,,,,,2,2,22,1,,,,,,,,,,,,,,,,,,,AFSA13.jpg,AFNE08.jpg,AFNE09.jpg,AFSA17.jpg,AFNE09.jpg,FN,3,num_2,32,num_6,0.783345141914,,,2017_Sep_18_1736,60.0099510251,MAFE4ImagesEEG,001,201569,
AFNE01.JPG,AFNE01.JPG,AFNE01.JPG,AFNE01.JPG,AFNE01.JPG,AFNE01.JPG,,,,,2,3,23,0,,,,,,,,,,,,,,,,,,,AFSA08.jpg,AFSA18.jpg,AFNE09.jpg,AFNE04.jpg,AFSA18.jpg,FS,4,num_6,16,num_6,0.650127189467,,,2017_Sep_18_1736,60.0099510251,MAFE4ImagesEEG,001,201569,
AFNE01.JPG,AFNE01.JPG,AFNE01.JPG,AFNE01.JPG,AFNE01.JPG,AFNE01.JPG,,,,,2,4,24,4,,,,,,,,,,,,,,,,,,,AFNE12.jpg,AFSA16.jpg,AFSA20.jpg,AFNE04.jpg,AFSA16.jpg,FS,4,num_6,32,num_4,0.899946532678,,,2017_Sep_18_1736,60.0099510251,MAFE4ImagesEEG,001,201569,
AFNE01.JPG,AFNE01.JPG,AFNE01.JPG,AFNE01.JPG,AFNE01.JPG,AFNE01.JPG,,,,,2,5,25,6,,,,,,,,,,,,,,,,,,,AFSA16.jpg,AFSA11.jpg,AFNE10.jpg,AFNE03.jpg,AFNE03.jpg,FN,3,num_4,16,num_4,0.64979778952,,,2017_Sep_18_1736,60.0099510251,MAFE4ImagesEEG,001,201569,
AFNE01.JPG,AFNE01.JPG,AFNE01.JPG,AFNE01.JPG,AFNE01.JPG,AFNE01.JPG,,,,,2,6,26,8,,,,,,,,,,,,,,,,,,,AFSA05.jpg,AFNE07.jpg,AFSA10.jpg,AFNE20.jpg,AFNE07.jpg,FN,3,num_6,48,None,,,,2017_Sep_18_1736,60.0099510251,MAFE4ImagesEEG,001,201569,
AFNE01.JPG,AFNE01.JPG,AFNE01.JPG,AFNE01.JPG,AFNE01.JPG,AFNE01.JPG,,,,,2,7,27,2,,,,,,,,,,,,,,,,,,,AFSA07.jpg,AFNE06.jpg,AFSA01.jpg,AFNE12.jpg,AFNE06.jpg,FN,3,num_6,32,num_8,0.90015982464,,,2017_Sep_18_1736,60.0099510251,MAFE4ImagesEEG,001,201569,
AFNE01.JPG,AFNE01.JPG,AFNE01.JPG,AFNE01.JPG,AFNE01.JPG,AFNE01.JPG,,,,,2,8,28,7,,,,,,,,,,,,,,,,,,,AFNE03.jpg,AFSA17.jpg,AFNE06.jpg,AFSA10.jpg,AFSA17.jpg,FS,4,num_6,32,num_2,1.28351208707,,,2017_Sep_18_1736,60.0099510251,MAFE4ImagesEEG,001,201569,
AFNE01.JPG,AFNE01.JPG,AFNE01.JPG,AFNE01.JPG,AFNE01.JPG,AFNE01.JPG,,,,,2,9,29,9,,,,,,,,,,,,,,,,,,,AFNE05.jpg,AFSA20.jpg,AFNE15.jpg,AFSA09.jpg,AFNE15.jpg,FN,3,num_2,32,num_4,1.16672755382,,,2017_Sep_18_1736,60.0099510251,MAFE4ImagesEEG,001,201569,
AFNE01.JPG,AFNE01.JPG,AFNE01.JPG,AFNE01.JPG,AFNE01.JPG,AFNE01.JPG,,,,,3,0,30,3,,,,,,,,,,,,,,,,,,,AFNE16.jpg,AFSA19.jpg,AFSA08.jpg,AFNE18.jpg,AFSA08.jpg,FS,4,num_2,32,num_6,2.00036852993,,,2017_Sep_18_1736,60.0099510251,MAFE4ImagesEEG,001,201569,
AFNE01.JPG,AFNE01.JPG,AFNE01.JPG,AFNE01.JPG,AFNE01.JPG,AFNE01.JPG,,,,,3,1,31,4,,,,,,,,,,,,,,,,,,,AFSA12.jpg,AFSA20.jpg,AFNE01.jpg,AFNE03.jpg,AFSA12.jpg,FS,4,num_8,32,num_2,1.18345188419,,,2017_Sep_18_1736,60.0099510251,MAFE4ImagesEEG,001,201569,
AFNE01.JPG,AFNE01.JPG,AFNE01.JPG,AFNE01.JPG,AFNE01.JPG,AFNE01.JPG,,,,,3,2,32,1,,,,,,,,,,,,,,,,,,,AFSA12.jpg,AFNE13.jpg,AFSA14.jpg,AFNE08.jpg,AFNE13.jpg,FN,3,num_6,32,num_8,2.28334850958,,,2017_Sep_18_1736,60.0099510251,MAFE4ImagesEEG,001,201569,
AFNE01.JPG,AFNE01.JPG,AFNE01.JPG,AFNE01.JPG,AFNE01.JPG,AFNE01.JPG,,,,,3,3,33,2,,,,,,,,,,,,,,,,,,,AFNE15.jpg,AFSA16.jpg,AFNE20.jpg,AFSA15.jpg,AFNE15.jpg,FN,3,num_8,32,num_4,0.833452381194,,,2017_Sep_18_1736,60.0099510251,MAFE4ImagesEEG,001,201569,
AFNE01.JPG,AFNE01.JPG,AFNE01.JPG,AFNE01.JPG,AFNE01.JPG,AFNE01.JPG,,,,,3,4,34,5,,,,,,,,,,,,,,,,,,,AFSA01.jpg,AFSA16.jpg,AFNE08.jpg,AFNE01.jpg,AFNE01.jpg,FN,3,num_4,32,num_2,1.15012542531,,,2017_Sep_18_1736,60.0099510251,MAFE4ImagesEEG,001,201569,
AFNE01.JPG,AFNE01.JPG,AFNE01.JPG,AFNE01.JPG,AFNE01.JPG,AFNE01.JPG,,,,,3,5,35,8,,,,,,,,,,,,,,,,,,,AFSA19.jpg,AFNE12.jpg,AFNE05.jpg,AFSA20.jpg,AFNE12.jpg,FN,3,num_6,32,num_2,1.21669944096,,,2017_Sep_18_1736,60.0099510251,MAFE4ImagesEEG,001,201569,
AFNE01.JPG,AFNE01.JPG,AFNE01.JPG,AFNE01.JPG,AFNE01.JPG,AFNE01.JPG,,,,,3,6,36,0,,,,,,,,,,,,,,,,,,,AFNE18.jpg,AFNE05.jpg,AFSA10.jpg,AFSA05.jpg,AFSA05.jpg,FS,4,num_4,32,num_8,1.73341206438,,,2017_Sep_18_1736,60.0099510251,MAFE4ImagesEEG,001,201569,
AFNE01.JPG,AFNE01.JPG,AFNE01.JPG,AFNE01.JPG,AFNE01.JPG,AFNE01.JPG,,,,,3,7,37,6,,,,,,,,,,,,,,,,,,,AFSA12.jpg,AFNE20.jpg,AFSA03.jpg,AFNE17.jpg,AFNE17.jpg,FN,3,num_4,32,num_6,2.00000384869,,,2017_Sep_18_1736,60.0099510251,MAFE4ImagesEEG,001,201569,
AFNE01.JPG,AFNE01.JPG,AFNE01.JPG,AFNE01.JPG,AFNE01.JPG,AFNE01.JPG,,,,,3,8,38,9,,,,,,,,,,,,,,,,,,,AFNE18.jpg,AFSA13.jpg,AFNE01.jpg,AFSA01.jpg,AFNE18.jpg,FN,3,num_8,32,num_2,1.31672275858,,,2017_Sep_18_1736,60.0099510251,MAFE4ImagesEEG,001,201569,
AFNE01.JPG,AFNE01.JPG,AFNE01.JPG,AFNE01.JPG,AFNE01.JPG,AFNE01.JPG,,,,,3,9,39,7,,,,,,,,,,,,,,,,,,,AFSA19.jpg,AFSA18.jpg,AFNE06.jpg,AFNE09.jpg,AFNE09.jpg,FN,3,num_4,32,num_8,1.78339196998,,,2017_Sep_18_1736,60.0099510251,MAFE4ImagesEEG,001,201569,
AFNE01.JPG,AFNE01.JPG,AFNE01.JPG,AFNE01.JPG,AFNE01.JPG,AFNE01.JPG,,,,,4,0,40,4,,,,,,,,,,,,,,,,,,,AFNE03.jpg,AFSA14.jpg,AFSA04.jpg,AFNE12.jpg,AFSA04.jpg,FS,4,num_2,16,num_2,1.41669989005,,,2017_Sep_18_1736,60.0099510251,MAFE4ImagesEEG,001,201569,
AFNE01.JPG,AFNE01.JPG,AFNE01.JPG,AFNE01.JPG,AFNE01.JPG,AFNE01.JPG,,,,,4,1,41,2,,,,,,,,,,,,,,,,,,,AFSA19.jpg,AFNE07.jpg,AFNE20.jpg,AFSA15.jpg,AFSA15.jpg,FS,4,num_4,16,num_4,1.05011269194,,,2017_Sep_18_1736,60.0099510251,MAFE4ImagesEEG,001,201569,
AFNE01.JPG,AFNE01.JPG,AFNE01.JPG,AFNE01.JPG,AFNE01.JPG,AFNE01.JPG,,,,,4,2,42,7,,,,,,,,,,,,,,,,,,,AFNE06.jpg,AFSA14.jpg,AFSA03.jpg,AFNE14.jpg,AFSA14.jpg,FS,4,num_6,32,num_8,1.61658615572,,,2017_Sep_18_1736,60.0099510251,MAFE4ImagesEEG,001,201569,
AFNE01.JPG,AFNE01.JPG,AFNE01.JPG,AFNE01.JPG,AFNE01.JPG,AFNE01.JPG,,,,,4,3,43,3,,,,,,,,,,,,,,,,,,,AFNE15.jpg,AFNE07.jpg,AFSA11.jpg,AFSA04.jpg,AFSA11.jpg,FS,4,num_2,16,num_2,1.70008207741,,,2017_Sep_18_1736,60.0099510251,MAFE4ImagesEEG,001,201569,
AFNE01.JPG,AFNE01.JPG,AFNE01.JPG,AFNE01.JPG,AFNE01.JPG,AFNE01.JPG,,,,,4,4,44,8,,,,,,,,,,,,,,,,,,,AFNE09.jpg,AFSA04.jpg,AFSA20.jpg,AFNE17.jpg,AFNE17.jpg,FN,3,num_4,32,num_2,4.3334887852,,,2017_Sep_18_1736,60.0099510251,MAFE4ImagesEEG,001,201569,
AFNE01.JPG,AFNE01.JPG,AFNE01.JPG,AFNE01.JPG,AFNE01.JPG,AFNE01.JPG,,,,,4,5,45,0,,,,,,,,,,,,,,,,,,,AFSA17.jpg,AFNE13.jpg,AFSA15.jpg,AFNE02.jpg,AFSA17.jpg,FS,4,num_8,48,None,,,,2017_Sep_18_1736,60.0099510251,MAFE4ImagesEEG,001,201569,
AFNE01.JPG,AFNE01.JPG,AFNE01.JPG,AFNE01.JPG,AFNE01.JPG,AFNE01.JPG,,,,,4,6,46,6,,,,,,,,,,,,,,,,,,,AFSA01.jpg,AFNE13.jpg,AFNE15.jpg,AFSA17.jpg,AFNE13.jpg,FN,3,num_6,32,num_8,0.983454001136,,,2017_Sep_18_1736,60.0099510251,MAFE4ImagesEEG,001,201569,
AFNE01.JPG,AFNE01.JPG,AFNE01.JPG,AFNE01.JPG,AFNE01.JPG,AFNE01.JPG,,,,,4,7,47,1,,,,,,,,,,,,,,,,,,,AFNE04.jpg,AFNE07.jpg,AFSA14.jpg,AFSA16.jpg,AFNE04.jpg,FN,3,num_8,32,num_2,1.78343302454,,,2017_Sep_18_1736,60.0099510251,MAFE4ImagesEEG,001,201569,
AFNE01.JPG,AFNE01.JPG,AFNE01.JPG,AFNE01.JPG,AFNE01.JPG,AFNE01.JPG,,,,,4,8,48,5,,,,,,,,,,,,,,,,,,,AFNE11.jpg,AFSA12.jpg,AFSA01.jpg,AFNE10.jpg,AFNE11.jpg,FN,3,num_8,32,num_6,1.8667284837,,,2017_Sep_18_1736,60.0099510251,MAFE4ImagesEEG,001,201569,
AFNE01.JPG,AFNE01.JPG,AFNE01.JPG,AFNE01.JPG,AFNE01.JPG,AFNE01.JPG,,,,,4,9,49,9,,,,,,,,,,,,,,,,,,,AFNE05.jpg,AFSA18.jpg,AFNE06.jpg,AFSA15.jpg,AFSA15.jpg,FS,4,num_4,16,num_4,0.73343259166,,,2017_Sep_18_1736,60.0099510251,MAFE4ImagesEEG,001,201569,
AFNE01.JPG,AFNE01.JPG,AFNE01.JPG,AFNE01.JPG,AFNE01.JPG,AFNE01.JPG,,,,,5,0,50,6,,,,,,,,,,,,,,,,,,,AFNE07.jpg,AFNE02.jpg,AFSA06.jpg,AFSA01.jpg,AFSA06.jpg,FS,4,num_2,16,num_2,1.63328707195,,,2017_Sep_18_1736,60.0099510251,MAFE4ImagesEEG,001,201569,
AFNE01.JPG,AFNE01.JPG,AFNE01.JPG,AFNE01.JPG,AFNE01.JPG,AFNE01.JPG,,,,,5,1,51,8,,,,,,,,,,,,,,,,,,,AFSA01.jpg,AFSA17.jpg,AFNE20.jpg,AFNE13.jpg,AFSA17.jpg,FS,4,num_6,16,num_6,0.666894498747,,,2017_Sep_18_1736,60.0099510251,MAFE4ImagesEEG,001,201569,
AFNE01.JPG,AFNE01.JPG,AFNE01.JPG,AFNE01.JPG,AFNE01.JPG,AFNE01.JPG,,,,,5,2,52,0,,,,,,,,,,,,,,,,,,,AFNE11.jpg,AFNE04.jpg,AFSA11.jpg,AFSA18.jpg,AFNE04.jpg,FN,3,num_6,32,num_4,0.96681081783,,,2017_Sep_18_1736,60.0099510251,MAFE4ImagesEEG,001,201569,
AFNE01.JPG,AFNE01.JPG,AFNE01.JPG,AFNE01.JPG,AFNE01.JPG,AFNE01.JPG,,,,,5,3,53,9,,,,,,,,,,,,,,,,,,,AFNE08.jpg,AFSA01.jpg,AFSA18.jpg,AFNE04.jpg,AFNE04.jpg,FN,3,num_4,16,num_4,1.45012738183,,,2017_Sep_18_1736,60.0099510251,MAFE4ImagesEEG,001,201569,
AFNE01.JPG,AFNE01.JPG,AFNE01.JPG,AFNE01.JPG,AFNE01.JPG,AFNE01.JPG,,,,,5,4,54,3,,,,,,,,,,,,,,,,,,,AFSA19.jpg,AFSA08.jpg,AFNE01.jpg,AFNE15.jpg,AFSA19.jpg,FS,4,num_8,32,num_6,0.916790498886,,,2017_Sep_18_1736,60.0099510251,MAFE4ImagesEEG,001,201569,
AFNE01.JPG,AFNE01.JPG,AFNE01.JPG,AFNE01.JPG,AFNE01.JPG,AFNE01.JPG,,,,,5,5,55,5,,,,,,,,,,,,,,,,,,,AFNE07.jpg,AFNE20.jpg,AFSA11.jpg,AFSA09.jpg,AFNE07.jpg,FN,3,num_8,32,num_4,1.00019757566,,,2017_Sep_18_1736,60.0099510251,MAFE4ImagesEEG,001,201569,
AFNE01.JPG,AFNE01.JPG,AFNE01.JPG,AFNE01.JPG,AFNE01.JPG,AFNE01.JPG,,,,,5,6,56,4,,,,,,,,,,,,,,,,,,,AFNE15.jpg,AFSA20.jpg,AFNE14.jpg,AFSA11.jpg,AFNE14.jpg,FN,3,num_2,16,num_2,1.18343199836,,,2017_Sep_18_1736,60.0099510251,MAFE4ImagesEEG,001,201569,
AFNE01.JPG,AFNE01.JPG,AFNE01.JPG,AFNE01.JPG,AFNE01.JPG,AFNE01.JPG,,,,,5,7,57,2,,,,,,,,,,,,,,,,,,,AFSA13.jpg,AFNE19.jpg,AFNE05.jpg,AFSA04.jpg,AFNE05.jpg,FN,3,num_2,32,num_8,1.21681554872,,,2017_Sep_18_1736,60.0099510251,MAFE4ImagesEEG,001,201569,
AFNE01.JPG,AFNE01.JPG,AFNE01.JPG,AFNE01.JPG,AFNE01.JPG,AFNE01.JPG,,,,,5,8,58,7,,,,,,,,,,,,,,,,,,,AFSA02.jpg,AFNE12.jpg,AFNE05.jpg,AFSA11.jpg,AFSA02.jpg,FS,4,num_8,32,num_6,2.26668415777,,,2017_Sep_18_1736,60.0099510251,MAFE4ImagesEEG,001,201569,
AFNE01.JPG,AFNE01.JPG,AFNE01.JPG,AFNE01.JPG,AFNE01.JPG,AFNE01.JPG,,,,,5,9,59,1,,,,,,,,,,,,,,,,,,,AFNE14.jpg,AFSA10.jpg,AFNE15.jpg,AFSA05.jpg,AFNE14.jpg,FN,3,num_8,32,num_6,1.70007373812,,,2017_Sep_18_1736,60.0099510251,MAFE4ImagesEEG,001,201569,
,,,,,,,,,,,,,,,,,,,,,,,,,,,,,,,,,,,,,,,,,,,space,10.0990873992,2017_Sep_18_1736,60.0099510251,MAFE4ImagesEEG,001,201569,
AFNE01.JPG,AFNE01.JPG,AFNE01.JPG,AFNE01.JPG,AFNE01.JPG,AFNE01.JPG,,,,,,,,,0,0,0,0,,,,,,,,,,,,,,,AMSA08.jpg,AMNE13.jpg,AMNE20.jpg,AMSA07.jpg,AMSA07.jpg,MS,2,num_4,16,num_4,1.28338699858,,,2017_Sep_18_1736,60.0099510251,MAFE4ImagesEEG,001,201569,
AFNE01.JPG,AFNE01.JPG,AFNE01.JPG,AFNE01.JPG,AFNE01.JPG,AFNE01.JPG,,,,,,,,,0,1,1,8,,,,,,,,,,,,,,,AMNE07.jpg,AMSA04.jpg,AMSA16.jpg,AMNE01.jpg,AMSA16.jpg,MS,2,num_2,32,num_6,1.20003220229,,,2017_Sep_18_1736,60.0099510251,MAFE4ImagesEEG,001,201569,
AFNE01.JPG,AFNE01.JPG,AFNE01.JPG,AFNE01.JPG,AFNE01.JPG,AFNE01.JPG,,,,,,,,,0,2,2,1,,,,,,,,,,,,,,,AMSA08.jpg,AMSA06.jpg,AMNE05.jpg,AMNE10.jpg,AMSA06.jpg,MS,2,num_6,32,num_8,2.18334603985,,,2017_Sep_18_1736,60.0099510251,MAFE4ImagesEEG,001,201569,
AFNE01.JPG,AFNE01.JPG,AFNE01.JPG,AFNE01.JPG,AFNE01.JPG,AFNE01.JPG,,,,,,,,,0,3,3,5,,,,,,,,,,,,,,,AMSA05.jpg,AMNE13.jpg,AMSA04.jpg,AMNE01.jpg,AMNE01.jpg,MN,1,num_4,16,num_4,3.39997972921,,,2017_Sep_18_1736,60.0099510251,MAFE4ImagesEEG,001,201569,
AFNE01.JPG,AFNE01.JPG,AFNE01.JPG,AFNE01.JPG,AFNE01.JPG,AFNE01.JPG,,,,,,,,,0,4,4,7,,,,,,,,,,,,,,,AMSA13.jpg,AMNE11.jpg,AMNE16.jpg,AMSA04.jpg,AMNE16.jpg,MN,1,num_2,32,num_8,2.93340994744,,,2017_Sep_18_1736,60.0099510251,MAFE4ImagesEEG,001,201569,
AFNE01.JPG,AFNE01.JPG,AFNE01.JPG,AFNE01.JPG,AFNE01.JPG,AFNE01.JPG,,,,,,,,,0,5,5,9,,,,,,,,,,,,,,,AMNE14.jpg,AMNE07.jpg,AMSA16.jpg,AMSA07.jpg,AMNE14.jpg,MN,1,num_8,16,num_8,1.30010427255,,,2017_Sep_18_1736,60.0099510251,MAFE4ImagesEEG,001,201569,
AFNE01.JPG,AFNE01.JPG,AFNE01.JPG,AFNE01.JPG,AFNE01.JPG,AFNE01.JPG,,,,,,,,,0,6,6,2,,,,,,,,,,,,,,,AMNE06.jpg,AMNE17.jpg,AMSA10.jpg,AMSA06.jpg,AMNE17.jpg,MN,1,num_6,16,num_6,1.4167079085,,,2017_Sep_18_1736,60.0099510251,MAFE4ImagesEEG,001,201569,
AFNE01.JPG,AFNE01.JPG,AFNE01.JPG,AFNE01.JPG,AFNE01.JPG,AFNE01.JPG,,,,,,,,,0,7,7,6,,,,,,,,,,,,,,,AMNE17.jpg,AMNE10.jpg,AMSA03.jpg,AMSA02.jpg,AMSA03.jpg,MS,2,num_2,16,num_2,3.13312525884,,,2017_Sep_18_1736,60.0099510251,MAFE4ImagesEEG,001,201569,
AFNE01.JPG,AFNE01.JPG,AFNE01.JPG,AFNE01.JPG,AFNE01.JPG,AFNE01.JPG,,,,,,,,,0,8,8,4,,,,,,,,,,,,,,,AMNE18.jpg,AMSA08.jpg,AMNE06.jpg,AMSA11.jpg,AMNE06.jpg,MN,1,num_2,32,num_8,1.25012885733,,,2017_Sep_18_1736,60.0099510251,MAFE4ImagesEEG,001,201569,
AFNE01.JPG,AFNE01.JPG,AFNE01.JPG,AFNE01.JPG,AFNE01.JPG,AFNE01.JPG,,,,,,,,,0,9,9,3,,,,,,,,,,,,,,,AMSA11.jpg,AMNE18.jpg,AMSA07.jpg,AMNE10.jpg,AMSA11.jpg,MS,2,num_8,16,num_8,3.18331236229,,,2017_Sep_18_1736,60.0099510251,MAFE4ImagesEEG,001,201569,
AFNE01.JPG,AFNE01.JPG,AFNE01.JPG,AFNE01.JPG,AFNE01.JPG,AFNE01.JPG,,,,,,,,,1,0,10,7,,,,,,,,,,,,,,,AMNE13.jpg,AMSA18.jpg,AMNE19.jpg,AMSA02.jpg,AMSA02.jpg,MS,2,num_4,32,num_2,2.36693038954,,,2017_Sep_18_1736,60.0099510251,MAFE4ImagesEEG,001,201569,
AFNE01.JPG,AFNE01.JPG,AFNE01.JPG,AFNE01.JPG,AFNE01.JPG,AFNE01.JPG,,,,,,,,,1,1,11,8,,,,,,,,,,,,,,,AMSA20.jpg,AMNE08.jpg,AMNE18.jpg,AMSA07.jpg,AMNE08.jpg,MN,1,num_6,32,num_4,2.60000455449,,,2017_Sep_18_1736,60.0099510251,MAFE4ImagesEEG,001,201569,
AFNE01.JPG,AFNE01.JPG,AFNE01.JPG,AFNE01.JPG,AFNE01.JPG,AFNE01.JPG,,,,,,,,,1,2,12,3,,,,,,,,,,,,,,,AMNE05.jpg,AMSA18.jpg,AMSA08.jpg,AMNE12.jpg,AMSA18.jpg,MS,2,num_6,16,num_6,1.25009293435,,,2017_Sep_18_1736,60.0099510251,MAFE4ImagesEEG,001,201569,
AFNE01.JPG,AFNE01.JPG,AFNE01.JPG,AFNE01.JPG,AFNE01.JPG,AFNE01.JPG,,,,,,,,,1,3,13,4,,,,,,,,,,,,,,,AMNE13.jpg,AMNE01.jpg,AMSA10.jpg,AMSA12.jpg,AMNE01.jpg,MN,1,num_6,32,num_2,4.23321529035,,,2017_Sep_18_1736,60.0099510251,MAFE4ImagesEEG,001,201569,
AFNE01.JPG,AFNE01.JPG,AFNE01.JPG,AFNE01.JPG,AFNE01.JPG,AFNE01.JPG,,,,,,,,,1,4,14,1,,,,,,,,,,,,,,,AMSA17.jpg,AMNE11.jpg,AMNE08.jpg,AMSA06.jpg,AMNE08.jpg,MN,1,num_2,32,num_8,1.90008765808,,,2017_Sep_18_1736,60.0099510251,MAFE4ImagesEEG,001,201569,
AFNE01.JPG,AFNE01.JPG,AFNE01.JPG,AFNE01.JPG,AFNE01.JPG,AFNE01.JPG,,,,,,,,,1,5,15,2,,,,,,,,,,,,,,,AMNE20.jpg,AMNE14.jpg,AMSA17.jpg,AMSA12.jpg,AMSA17.jpg,MS,2,num_2,32,num_8,1.30010298965,,,2017_Sep_18_1736,60.0099510251,MAFE4ImagesEEG,001,201569,
AFNE01.JPG,AFNE01.JPG,AFNE01.JPG,AFNE01.JPG,AFNE01.JPG,AFNE01.JPG,,,,,,,,,1,6,16,5,,,,,,,,,,,,,,,AMNE16.jpg,AMSA19.jpg,AMNE02.jpg,AMSA17.jpg,AMSA17.jpg,MS,2,num_4,16,num_4,0.716815708904,,,2017_Sep_18_1736,60.0099510251,MAFE4ImagesEEG,001,201569,
AFNE01.JPG,AFNE01.JPG,AFNE01.JPG,AFNE01.JPG,AFNE01.JPG,AFNE01.JPG,,,,,,,,,1,7,17,0,,,,,,,,,,,,,,,AMSA19.jpg,AMSA02.jpg,AMNE07.jpg,AMNE16.jpg,AMSA19.jpg,MS,2,num_8,32,num_2,1.45007189387,,,2017_Sep_18_1736,60.0099510251,MAFE4ImagesEEG,001,201569,
AFNE01.JPG,AFNE01.JPG,AFNE01.JPG,AFNE01.JPG,AFNE01.JPG,AFNE01.JPG,,,,,,,,,1,8,18,9,,,,,,,,,,,,,,,AMNE08.jpg,AMSA07.jpg,AMSA01.jpg,AMNE09.jpg,AMSA07.jpg,MS,2,num_6,16,num_6,0.700148470467,,,2017_Sep_18_1736,60.0099510251,MAFE4ImagesEEG,001,201569,
AFNE01.JPG,AFNE01.JPG,AFNE01.JPG,AFNE01.JPG,AFNE01.JPG,AFNE01.JPG,,,,,,,,,1,9,19,6,,,,,,,,,,,,,,,AMNE19.jpg,AMNE14.jpg,AMSA18.jpg,AMSA05.jpg,AMSA18.jpg,MS,2,num_2,16,num_2,1.21702916129,,,2017_Sep_18_1736,60.0099510251,MAFE4ImagesEEG,001,201569,
AFNE01.JPG,AFNE01.JPG,AFNE01.JPG,AFNE01.JPG,AFNE01.JPG,AFNE01.JPG,,,,,,,,,2,0,20,7,,,,,,,,,,,,,,,AMNE09.jpg,AMNE04.jpg,AMSA14.jpg,AMSA04.jpg,AMSA04.jpg,MS,2,num_4,16,num_4,1.60004176036,,,2017_Sep_18_1736,60.0099510251,MAFE4ImagesEEG,001,201569,
AFNE01.JPG,AFNE01.JPG,AFNE01.JPG,AFNE01.JPG,AFNE01.JPG,AFNE01.JPG,,,,,,,,,2,1,21,0,,,,,,,,,,,,,,,AMNE16.jpg,AMSA12.jpg,AMSA05.jpg,AMNE18.jpg,AMNE16.jpg,MN,1,num_8,16,num_8,1.83339689346,,,2017_Sep_18_1736,60.0099510251,MAFE4ImagesEEG,001,201569,
AFNE01.JPG,AFNE01.JPG,AFNE01.JPG,AFNE01.JPG,AFNE01.JPG,AFNE01.JPG,,,,,,,,,2,2,22,4,,,,,,,,,,,,,,,AMNE17.jpg,AMSA09.jpg,AMNE19.jpg,AMSA16.jpg,AMSA16.jpg,MS,2,num_4,32,num_2,1.45009306259,,,2017_Sep_18_1736,60.0099510251,MAFE4ImagesEEG,001,201569,
AFNE01.JPG,AFNE01.JPG,AFNE01.JPG,AFNE01.JPG,AFNE01.JPG,AFNE01.JPG,,,,,,,,,2,3,23,3,,,,,,,,,,,,,,,AMSA13.jpg,AMNE17.jpg,AMSA06.jpg,AMNE05.jpg,AMSA13.jpg,MS,2,num_8,16,num_8,1.91664199624,,,2017_Sep_18_1736,60.0099510251,MAFE4ImagesEEG,001,201569,
AFNE01.JPG,AFNE01.JPG,AFNE01.JPG,AFNE01.JPG,AFNE01.JPG,AFNE01.JPG,,,,,,,,,2,4,24,5,,,,,,,,,,,,,,,AMNE07.jpg,AMNE05.jpg,AMSA20.jpg,AMSA15.jpg,AMNE05.jpg,MN,1,num_6,32,num_2,2.01672016061,,,2017_Sep_18_1736,60.0099510251,MAFE4ImagesEEG,001,201569,
AFNE01.JPG,AFNE01.JPG,AFNE01.JPG,AFNE01.JPG,AFNE01.JPG,AFNE01.JPG,,,,,,,,,2,5,25,1,,,,,,,,,,,,,,,AMSA01.jpg,AMNE01.jpg,AMSA20.jpg,AMNE11.jpg,AMNE11.jpg,MN,1,num_4,32,num_2,1.78349492745,,,2017_Sep_18_1736,60.0099510251,MAFE4ImagesEEG,001,201569,
AFNE01.JPG,AFNE01.JPG,AFNE01.JPG,AFNE01.JPG,AFNE01.JPG,AFNE01.JPG,,,,,,,,,2,6,26,6,,,,,,,,,,,,,,,AMNE10.jpg,AMSA06.jpg,AMNE04.jpg,AMSA14.jpg,AMNE10.jpg,MN,1,num_8,32,num_6,2.15015332983,,,2017_Sep_18_1736,60.0099510251,MAFE4ImagesEEG,001,201569,
AFNE01.JPG,AFNE01.JPG,AFNE01.JPG,AFNE01.JPG,AFNE01.JPG,AFNE01.JPG,,,,,,,,,2,7,27,9,,,,,,,,,,,,,,,AMNE16.jpg,AMSA18.jpg,AMSA17.jpg,AMNE09.jpg,AMSA17.jpg,MS,2,num_2,32,num_4,2.4333052258,,,2017_Sep_18_1736,60.0099510251,MAFE4ImagesEEG,001,201569,
AFNE01.JPG,AFNE01.JPG,AFNE01.JPG,AFNE01.JPG,AFNE01.JPG,AFNE01.JPG,,,,,,,,,2,8,28,2,,,,,,,,,,,,,,,AMSA09.jpg,AMNE08.jpg,AMNE11.jpg,AMSA15.jpg,AMNE11.jpg,MN,1,num_2,32,num_8,1.73336812295,,,2017_Sep_18_1736,60.0099510251,MAFE4ImagesEEG,001,201569,
AFNE01.JPG,AFNE01.JPG,AFNE01.JPG,AFNE01.JPG,AFNE01.JPG,AFNE01.JPG,,,,,,,,,2,9,29,8,,,,,,,,,,,,,,,AMNE09.jpg,AMSA12.jpg,AMNE01.jpg,AMSA02.jpg,AMNE01.jpg,MN,1,num_2,16,num_2,2.30031531933,,,2017_Sep_18_1736,60.0099510251,MAFE4ImagesEEG,001,201569,
AFNE01.JPG,AFNE01.JPG,AFNE01.JPG,AFNE01.JPG,AFNE01.JPG,AFNE01.JPG,,,,,,,,,3,0,30,5,,,,,,,,,,,,,,,AMSA11.jpg,AMNE17.jpg,AMNE03.jpg,AMSA04.jpg,AMSA11.jpg,MS,2,num_8,16,num_8,1.2334038855,,,2017_Sep_18_1736,60.0099510251,MAFE4ImagesEEG,001,201569,
AFNE01.JPG,AFNE01.JPG,AFNE01.JPG,AFNE01.JPG,AFNE01.JPG,AFNE01.JPG,,,,,,,,,3,1,31,7,,,,,,,,,,,,,,,AMSA02.jpg,AMSA10.jpg,AMNE13.jpg,AMNE01.jpg,AMSA10.jpg,MS,2,num_6,16,num_6,0.616683660541,,,2017_Sep_18_1736,60.0099510251,MAFE4ImagesEEG,001,201569,
AFNE01.JPG,AFNE01.JPG,AFNE01.JPG,AFNE01.JPG,AFNE01.JPG,AFNE01.JPG,,,,,,,,,3,2,32,2,,,,,,,,,,,,,,,AMNE09.jpg,AMNE20.jpg,AMSA10.jpg,AMSA05.jpg,AMSA10.jpg,MS,2,num_2,32,num_4,1.91666476894,,,2017_Sep_18_1736,60.0099510251,MAFE4ImagesEEG,001,201569,
AFNE01.JPG,AFNE01.JPG,AFNE01.JPG,AFNE01.JPG,AFNE01.JPG,AFNE01.JPG,,,,,,,,,3,3,33,4,,,,,,,,,,,,,,,AMNE10.jpg,AMSA10.jpg,AMNE15.jpg,AMSA01.jpg,AMNE15.jpg,MN,1,num_2,32,num_8,1.30011068727,,,2017_Sep_18_1736,60.0099510251,MAFE4ImagesEEG,001,201569,
AFNE01.JPG,AFNE01.JPG,AFNE01.JPG,AFNE01.JPG,AFNE01.JPG,AFNE01.JPG,,,,,,,,,3,4,34,3,,,,,,,,,,,,,,,AMSA07.jpg,AMNE11.jpg,AMSA20.jpg,AMNE03.jpg,AMSA20.jpg,MS,2,num_2,16,num_2,1.9167555382,,,2017_Sep_18_1736,60.0099510251,MAFE4ImagesEEG,001,201569,
AFNE01.JPG,AFNE01.JPG,AFNE01.JPG,AFNE01.JPG,AFNE01.JPG,AFNE01.JPG,,,,,,,,,3,5,35,9,,,,,,,,,,,,,,,AMNE11.jpg,AMSA02.jpg,AMSA04.jpg,AMNE01.jpg,AMSA02.jpg,MS,2,num_6,32,num_8,0.900207935367,,,2017_Sep_18_1736,60.0099510251,MAFE4ImagesEEG,001,201569,
AFNE01.JPG,AFNE01.JPG,AFNE01.JPG,AFNE01.JPG,AFNE01.JPG,AFNE01.JPG,,,,,,,,,3,6,36,0,,,,,,,,,,,,,,,AMNE19.jpg,AMNE12.jpg,AMSA15.jpg,AMSA02.jpg,AMSA02.jpg,MS,2,num_4,32,num_2,1.21647524391,,,2017_Sep_18_1736,60.0099510251,MAFE4ImagesEEG,001,201569,
AFNE01.JPG,AFNE01.JPG,AFNE01.JPG,AFNE01.JPG,AFNE01.JPG,AFNE01.JPG,,,,,,,,,3,7,37,8,,,,,,,,,,,,,,,AMSA18.jpg,AMNE11.jpg,AMSA13.jpg,AMNE16.jpg,AMNE16.jpg,MN,1,num_4,32,num_6,0.916723143542,,,2017_Sep_18_1736,60.0099510251,MAFE4ImagesEEG,001,201569,
AFNE01.JPG,AFNE01.JPG,AFNE01.JPG,AFNE01.JPG,AFNE01.JPG,AFNE01.JPG,,,,,,,,,3,8,38,6,,,,,,,,,,,,,,,AMSA17.jpg,AMNE06.jpg,AMNE11.jpg,AMSA06.jpg,AMNE11.jpg,MN,1,num_2,16,num_2,2.28333792533,,,2017_Sep_18_1736,60.0099510251,MAFE4ImagesEEG,001,201569,
AFNE01.JPG,AFNE01.JPG,AFNE01.JPG,AFNE01.JPG,AFNE01.JPG,AFNE01.JPG,,,,,,,,,3,9,39,1,,,,,,,,,,,,,,,AMNE04.jpg,AMSA16.jpg,AMNE10.jpg,AMSA09.jpg,AMNE10.jpg,MN,1,num_2,32,num_8,2.63369248691,,,2017_Sep_18_1736,60.0099510251,MAFE4ImagesEEG,001,201569,
AFNE01.JPG,AFNE01.JPG,AFNE01.JPG,AFNE01.JPG,AFNE01.JPG,AFNE01.JPG,,,,,,,,,4,0,40,6,,,,,,,,,,,,,,,AMSA08.jpg,AMNE10.jpg,AMSA14.jpg,AMNE07.jpg,AMNE07.jpg,MN,1,num_4,32,num_6,2.96657475317,,,2017_Sep_18_1736,60.0099510251,MAFE4ImagesEEG,001,201569,
AFNE01.JPG,AFNE01.JPG,AFNE01.JPG,AFNE01.JPG,AFNE01.JPG,AFNE01.JPG,,,,,,,,,4,1,41,4,,,,,,,,,,,,,,,AMSA13.jpg,AMNE06.jpg,AMSA02.jpg,AMNE20.jpg,AMSA13.jpg,MS,2,num_8,32,num_2,4.19988594484,,,2017_Sep_18_1736,60.0099510251,MAFE4ImagesEEG,001,201569,
AFNE01.JPG,AFNE01.JPG,AFNE01.JPG,AFNE01.JPG,AFNE01.JPG,AFNE01.JPG,,,,,,,,,4,2,42,2,,,,,,,,,,,,,,,AMSA07.jpg,AMNE18.jpg,AMNE03.jpg,AMSA12.jpg,AMNE03.jpg,MN,1,num_2,32,num_6,2.09997360315,,,2017_Sep_18_1736,60.0099510251,MAFE4ImagesEEG,001,201569,
AFNE01.JPG,AFNE01.JPG,AFNE01.JPG,AFNE01.JPG,AFNE01.JPG,AFNE01.JPG,,,,,,,,,4,3,43,9,,,,,,,,,,,,,,,AMNE11.jpg,AMNE15.jpg,AMSA07.jpg,AMSA15.jpg,AMSA07.jpg,MS,2,num_2,16,num_2,1.0834423583,,,2017_Sep_18_1736,60.0099510251,MAFE4ImagesEEG,001,201569,
AFNE01.JPG,AFNE01.JPG,AFNE01.JPG,AFNE01.JPG,AFNE01.JPG,AFNE01.JPG,,,,,,,,,4,4,44,5,,,,,,,,,,,,,,,AMSA08.jpg,AMNE18.jpg,AMNE17.jpg,AMSA16.jpg,AMSA16.jpg,MS,2,num_4,32,num_8,2.49996680347,,,2017_Sep_18_1736,60.0099510251,MAFE4ImagesEEG,001,201569,
AFNE01.JPG,AFNE01.JPG,AFNE01.JPG,AFNE01.JPG,AFNE01.JPG,AFNE01.JPG,,,,,,,,,4,5,45,8,,,,,,,,,,,,,,,AMNE07.jpg,AMSA15.jpg,AMSA01.jpg,AMNE20.jpg,AMSA15.jpg,MS,2,num_6,16,num_6,1.33344195713,,,2017_Sep_18_1736,60.0099510251,MAFE4ImagesEEG,001,201569,
AFNE01.JPG,AFNE01.JPG,AFNE01.JPG,AFNE01.JPG,AFNE01.JPG,AFNE01.JPG,,,,,,,,,4,6,46,0,,,,,,,,,,,,,,,AMSA15.jpg,AMSA20.jpg,AMNE12.jpg,AMNE13.jpg,AMSA15.jpg,MS,2,num_8,32,num_2,1.13337864308,,,2017_Sep_18_1736,60.0099510251,MAFE4ImagesEEG,001,201569,
AFNE01.JPG,AFNE01.JPG,AFNE01.JPG,AFNE01.JPG,AFNE01.JPG,AFNE01.JPG,,,,,,,,,4,7,47,1,,,,,,,,,,,,,,,AMSA06.jpg,AMNE10.jpg,AMSA19.jpg,AMNE20.jpg,AMSA19.jpg,MS,2,num_2,32,num_8,1.56673711166,,,2017_Sep_18_1736,60.0099510251,MAFE4ImagesEEG,001,201569,
AFNE01.JPG,AFNE01.JPG,AFNE01.JPG,AFNE01.JPG,AFNE01.JPG,AFNE01.JPG,,,,,,,,,4,8,48,7,,,,,,,,,,,,,,,AMSA16.jpg,AMNE10.jpg,AMNE02.jpg,AMSA14.jpg,AMSA14.jpg,MS,2,num_4,16,num_4,0.85011577094,,,2017_Sep_18_1736,60.0099510251,MAFE4ImagesEEG,001,201569,
AFNE01.JPG,AFNE01.JPG,AFNE01.JPG,AFNE01.JPG,AFNE01.JPG,AFNE01.JPG,,,,,,,,,4,9,49,3,,,,,,,,,,,,,,,AMSA16.jpg,AMSA13.jpg,AMNE05.jpg,AMNE17.jpg,AMSA13.jpg,MS,2,num_6,32,num_4,1.16672530863,,,2017_Sep_18_1736,60.0099510251,MAFE4ImagesEEG,001,201569,
AFNE01.JPG,AFNE01.JPG,AFNE01.JPG,AFNE01.JPG,AFNE01.JPG,AFNE01.JPG,,,,,,,,,5,0,50,9,,,,,,,,,,,,,,,AMNE13.jpg,AMSA12.jpg,AMNE09.jpg,AMSA14.jpg,AMSA14.jpg,MS,2,num_4,16,num_4,0.866610772442,,,2017_Sep_18_1736,60.0099510251,MAFE4ImagesEEG,001,201569,
AFNE01.JPG,AFNE01.JPG,AFNE01.JPG,AFNE01.JPG,AFNE01.JPG,AFNE01.JPG,,,,,,,,,5,1,51,1,,,,,,,,,,,,,,,AMNE19.jpg,AMSA01.jpg,AMSA17.jpg,AMNE16.jpg,AMNE16.jpg,MN,1,num_4,32,num_6,1.18340537697,,,2017_Sep_18_1736,60.0099510251,MAFE4ImagesEEG,001,201569,
AFNE01.JPG,AFNE01.JPG,AFNE01.JPG,AFNE01.JPG,AFNE01.JPG,AFNE01.JPG,,,,,,,,,5,2,52,7,,,,,,,,,,,,,,,AMNE12.jpg,AMSA20.jpg,AMNE10.jpg,AMSA05.jpg,AMNE10.jpg,MN,1,num_2,32,num_8,4.04990292806,,,2017_Sep_18_1736,60.0099510251,MAFE4ImagesEEG,001,201569,
AFNE01.JPG,AFNE01.JPG,AFNE01.JPG,AFNE01.JPG,AFNE01.JPG,AFNE01.JPG,,,,,,,,,5,3,53,8,,,,,,,,,,,,,,,AMSA05.jpg,AMSA14.jpg,AMNE05.jpg,AMNE12.jpg,AMSA14.jpg,MS,2,num_6,16,num_6,0.56684969156,,,2017_Sep_18_1736,60.0099510251,MAFE4ImagesEEG,001,201569,
AFNE01.JPG,AFNE01.JPG,AFNE01.JPG,AFNE01.JPG,AFNE01.JPG,AFNE01.JPG,,,,,,,,,5,4,54,5,,,,,,,,,,,,,,,AMNE07.jpg,AMSA05.jpg,AMSA15.jpg,AMNE06.jpg,AMSA15.jpg,MS,2,num_2,16,num_2,1.29989675386,,,2017_Sep_18_1736,60.0099510251,MAFE4ImagesEEG,001,201569,
AFNE01.JPG,AFNE01.JPG,AFNE01.JPG,AFNE01.JPG,AFNE01.JPG,AFNE01.JPG,,,,,,,,,5,5,55,0,,,,,,,,,,,,,,,AMNE11.jpg,AMSA02.jpg,AMSA15.jpg,AMNE14.jpg,AMNE11.jpg,MN,1,num_8,32,num_6,1.70002306113,,,2017_Sep_18_1736,60.0099510251,MAFE4ImagesEEG,001,201569,
AFNE01.JPG,AFNE01.JPG,AFNE01.JPG,AFNE01.JPG,AFNE01.JPG,AFNE01.JPG,,,,,,,,,5,6,56,4,,,,,,,,,,,,,,,AMNE04.jpg,AMNE09.jpg,AMSA04.jpg,AMSA09.jpg,AMSA09.jpg,MS,2,num_4,16,num_4,1.25011314102,,,2017_Sep_18_1736,60.0099510251,MAFE4ImagesEEG,001,201569,
AFNE01.JPG,AFNE01.JPG,AFNE01.JPG,AFNE01.JPG,AFNE01.JPG,AFNE01.JPG,,,,,,,,,5,7,57,2,,,,,,,,,,,,,,,AMNE04.jpg,AMSA11.jpg,AMNE19.jpg,AMSA14.jpg,AMNE19.jpg,MN,1,num_2,48,None,,,,2017_Sep_18_1736,60.0099510251,MAFE4ImagesEEG,001,201569,
AFNE01.JPG,AFNE01.JPG,AFNE01.JPG,AFNE01.JPG,AFNE01.JPG,AFNE01.JPG,,,,,,,,,5,8,58,6,,,,,,,,,,,,,,,AMSA03.jpg,AMNE11.jpg,AMNE13.jpg,AMSA17.jpg,AMNE13.jpg,MN,1,num_2,32,num_8,0.833494077437,,,2017_Sep_18_1736,60.0099510251,MAFE4ImagesEEG,001,201569,
AFNE01.JPG,AFNE01.JPG,AFNE01.JPG,AFNE01.JPG,AFNE01.JPG,AFNE01.JPG,,,,,,,,,5,9,59,3,,,,,,,,,,,,,,,AMSA09.jpg,AMNE15.jpg,AMSA16.jpg,AMNE10.jpg,AMNE10.jpg,MN,1,num_4,32,num_2,1.23331985157,,,2017_Sep_18_1736,60.0099510251,MAFE4ImagesEEG,001,201569,
,,,,,,,,,,,,,,,,,,,,,,,,,,,,,,,,,,,,,,,,,,,space,9.81614462542,2017_Sep_18_1736,60.0099510251,MAFE4ImagesEEG,001,201569,
AFNE01.JPG,AFNE01.JPG,AFNE01.JPG,AFNE01.JPG,AFNE01.JPG,AFNE01.JPG,,,,,,,,,,,,,0,0,0,7,,,,,,,,,,,AFNE09.jpg,AFNE19.jpg,AFSA19.jpg,AFSA01.jpg,AFNE09.jpg,FN,3,num_8,16,num_8,1.46673207614,,,2017_Sep_18_1736,60.0099510251,MAFE4ImagesEEG,001,201569,
AFNE01.JPG,AFNE01.JPG,AFNE01.JPG,AFNE01.JPG,AFNE01.JPG,AFNE01.JPG,,,,,,,,,,,,,0,1,1,1,,,,,,,,,,,AFNE18.jpg,AFSA09.jpg,AFNE11.jpg,AFSA01.jpg,AFNE11.jpg,FN,3,num_2,16,num_2,0.98350467789,,,2017_Sep_18_1736,60.0099510251,MAFE4ImagesEEG,001,201569,
AFNE01.JPG,AFNE01.JPG,AFNE01.JPG,AFNE01.JPG,AFNE01.JPG,AFNE01.JPG,,,,,,,,,,,,,0,2,2,5,,,,,,,,,,,AFSA19.jpg,AFNE08.jpg,AFNE11.jpg,AFSA13.jpg,AFNE08.jpg,FN,3,num_6,32,num_8,1.03341305861,,,2017_Sep_18_1736,60.0099510251,MAFE4ImagesEEG,001,201569,
AFNE01.JPG,AFNE01.JPG,AFNE01.JPG,AFNE01.JPG,AFNE01.JPG,AFNE01.JPG,,,,,,,,,,,,,0,3,3,9,,,,,,,,,,,AFSA18.jpg,AFNE04.jpg,AFNE01.jpg,AFSA07.jpg,AFNE04.jpg,FN,3,num_6,32,num_2,1.4000791586,,,2017_Sep_18_1736,60.0099510251,MAFE4ImagesEEG,001,201569,
AFNE01.JPG,AFNE01.JPG,AFNE01.JPG,AFNE01.JPG,AFNE01.JPG,AFNE01.JPG,,,,,,,,,,,,,0,4,4,2,,,,,,,,,,,AFNE02.jpg,AFNE13.jpg,AFSA04.jpg,AFSA12.jpg,AFSA12.jpg,FS,4,num_4,16,num_4,0.533484102227,,,2017_Sep_18_1736,60.0099510251,MAFE4ImagesEEG,001,201569,
AFNE01.JPG,AFNE01.JPG,AFNE01.JPG,AFNE01.JPG,AFNE01.JPG,AFNE01.JPG,,,,,,,,,,,,,0,5,5,6,,,,,,,,,,,AFSA07.jpg,AFNE08.jpg,AFNE05.jpg,AFSA06.jpg,AFSA07.jpg,FS,4,num_8,16,num_8,1.18345797807,,,2017_Sep_18_1736,60.0099510251,MAFE4ImagesEEG,001,201569,
AFNE01.JPG,AFNE01.JPG,AFNE01.JPG,AFNE01.JPG,AFNE01.JPG,AFNE01.JPG,,,,,,,,,,,,,0,6,6,3,,,,,,,,,,,AFSA19.jpg,AFSA18.jpg,AFNE16.jpg,AFNE11.jpg,AFNE11.jpg,FN,3,num_4,32,num_6,1.31676445482,,,2017_Sep_18_1736,60.0099510251,MAFE4ImagesEEG,001,201569,
AFNE01.JPG,AFNE01.JPG,AFNE01.JPG,AFNE01.JPG,AFNE01.JPG,AFNE01.JPG,,,,,,,,,,,,,0,7,7,0,,,,,,,,,,,AFSA09.jpg,AFNE16.jpg,AFNE15.jpg,AFSA18.jpg,AFNE16.jpg,FN,3,num_6,32,num_8,1.53338178643,,,2017_Sep_18_1736,60.0099510251,MAFE4ImagesEEG,001,201569,
AFNE01.JPG,AFNE01.JPG,AFNE01.JPG,AFNE01.JPG,AFNE01.JPG,AFNE01.JPG,,,,,,,,,,,,,0,8,8,8,,,,,,,,,,,AFNE05.jpg,AFSA05.jpg,AFSA01.jpg,AFNE19.jpg,AFNE19.jpg,FN,3,num_4,32,num_2,1.23338848981,,,2017_Sep_18_1736,60.0099510251,MAFE4ImagesEEG,001,201569,
AFNE01.JPG,AFNE01.JPG,AFNE01.JPG,AFNE01.JPG,AFNE01.JPG,AFNE01.JPG,,,,,,,,,,,,,0,9,9,4,,,,,,,,,,,AFNE06.jpg,AFSA13.jpg,AFSA08.jpg,AFNE07.jpg,AFNE06.jpg,FN,3,num_8,32,num_4,1.7166716971,,,2017_Sep_18_1736,60.0099510251,MAFE4ImagesEEG,001,201569,
AFNE01.JPG,AFNE01.JPG,AFNE01.JPG,AFNE01.JPG,AFNE01.JPG,AFNE01.JPG,,,,,,,,,,,,,1,0,10,7,,,,,,,,,,,AFSA05.jpg,AFNE11.jpg,AFSA15.jpg,AFNE15.jpg,AFSA05.jpg,FS,4,num_8,16,num_8,1.23342056386,,,2017_Sep_18_1736,60.0099510251,MAFE4ImagesEEG,001,201569,
AFNE01.JPG,AFNE01.JPG,AFNE01.JPG,AFNE01.JPG,AFNE01.JPG,AFNE01.JPG,,,,,,,,,,,,,1,1,11,2,,,,,,,,,,,AFNE16.jpg,AFNE01.jpg,AFSA09.jpg,AFSA12.jpg,AFNE01.jpg,FN,3,num_6,32,num_2,2.29999425868,,,2017_Sep_18_1736,60.0099510251,MAFE4ImagesEEG,001,201569,
AFNE01.JPG,AFNE01.JPG,AFNE01.JPG,AFNE01.JPG,AFNE01.JPG,AFNE01.JPG,,,,,,,,,,,,,1,2,12,8,,,,,,,,,,,AFSA18.jpg,AFSA07.jpg,AFNE13.jpg,AFNE20.jpg,AFNE13.jpg,FN,3,num_2,32,num_8,1.66665426455,,,2017_Sep_18_1736,60.0099510251,MAFE4ImagesEEG,001,201569,
AFNE01.JPG,AFNE01.JPG,AFNE01.JPG,AFNE01.JPG,AFNE01.JPG,AFNE01.JPG,,,,,,,,,,,,,1,3,13,6,,,,,,,,,,,AFSA12.jpg,AFSA15.jpg,AFNE20.jpg,AFNE02.jpg,AFSA15.jpg,FS,4,num_6,16,num_6,0.733479098883,,,2017_Sep_18_1736,60.0099510251,MAFE4ImagesEEG,001,201569,
AFNE01.JPG,AFNE01.JPG,AFNE01.JPG,AFNE01.JPG,AFNE01.JPG,AFNE01.JPG,,,,,,,,,,,,,1,4,14,3,,,,,,,,,,,AFSA15.jpg,AFNE06.jpg,AFNE04.jpg,AFSA09.jpg,AFNE04.jpg,FN,3,num_2,16,num_2,1.33331141621,,,2017_Sep_18_1736,60.0099510251,MAFE4ImagesEEG,001,201569,
AFNE01.JPG,AFNE01.JPG,AFNE01.JPG,AFNE01.JPG,AFNE01.JPG,AFNE01.JPG,,,,,,,,,,,,,1,5,15,4,,,,,,,,,,,AFSA03.jpg,AFNE17.jpg,AFSA04.jpg,AFNE01.jpg,AFSA03.jpg,FS,4,num_8,32,num_4,1.31669196789,,,2017_Sep_18_1736,60.0099510251,MAFE4ImagesEEG,001,201569,
AFNE01.JPG,AFNE01.JPG,AFNE01.JPG,AFNE01.JPG,AFNE01.JPG,AFNE01.JPG,,,,,,,,,,,,,1,6,16,9,,,,,,,,,,,AFNE16.jpg,AFNE17.jpg,AFSA04.jpg,AFSA07.jpg,AFSA04.jpg,FS,4,num_2,32,num_4,1.10010927613,,,2017_Sep_18_1736,60.0099510251,MAFE4ImagesEEG,001,201569,
AFNE01.JPG,AFNE01.JPG,AFNE01.JPG,AFNE01.JPG,AFNE01.JPG,AFNE01.JPG,,,,,,,,,,,,,1,7,17,5,,,,,,,,,,,AFNE20.jpg,AFSA05.jpg,AFNE07.jpg,AFSA04.jpg,AFNE20.jpg,FN,3,num_8,32,num_2,1.28342997772,,,2017_Sep_18_1736,60.0099510251,MAFE4ImagesEEG,001,201569,
AFNE01.JPG,AFNE01.JPG,AFNE01.JPG,AFNE01.JPG,AFNE01.JPG,AFNE01.JPG,,,,,,,,,,,,,1,8,18,1,,,,,,,,,,,AFSA04.jpg,AFSA09.jpg,AFNE10.jpg,AFNE14.jpg,AFNE10.jpg,FN,3,num_2,32,num_4,1.66671071504,,,2017_Sep_18_1736,60.0099510251,MAFE4ImagesEEG,001,201569,
AFNE01.JPG,AFNE01.JPG,AFNE01.JPG,AFNE01.JPG,AFNE01.JPG,AFNE01.JPG,,,,,,,,,,,,,1,9,19,0,,,,,,,,,,,AFSA04.jpg,AFNE17.jpg,AFNE11.jpg,AFSA12.jpg,AFNE17.jpg,FN,3,num_6,16,num_6,2.58339312463,,,2017_Sep_18_1736,60.0099510251,MAFE4ImagesEEG,001,201569,
AFNE01.JPG,AFNE01.JPG,AFNE01.JPG,AFNE01.JPG,AFNE01.JPG,AFNE01.JPG,,,,,,,,,,,,,2,0,20,4,,,,,,,,,,,AFSA01.jpg,AFNE13.jpg,AFSA08.jpg,AFNE05.jpg,AFNE13.jpg,FN,3,num_6,32,num_8,1.30007797177,,,2017_Sep_18_1736,60.0099510251,MAFE4ImagesEEG,001,201569,
AFNE01.JPG,AFNE01.JPG,AFNE01.JPG,AFNE01.JPG,AFNE01.JPG,AFNE01.JPG,,,,,,,,,,,,,2,1,21,5,,,,,,,,,,,AFSA14.jpg,AFSA05.jpg,AFNE10.jpg,AFNE06.jpg,AFSA05.jpg,FS,4,num_6,32,num_8,1.46673239698,,,2017_Sep_18_1736,60.0099510251,MAFE4ImagesEEG,001,201569,
AFNE01.JPG,AFNE01.JPG,AFNE01.JPG,AFNE01.JPG,AFNE01.JPG,AFNE01.JPG,,,,,,,,,,,,,2,2,22,2,,,,,,,,,,,AFSA11.jpg,AFNE12.jpg,AFNE09.jpg,AFSA20.jpg,AFNE09.jpg,FN,3,num_2,32,num_4,2.94984240457,,,2017_Sep_18_1736,60.0099510251,MAFE4ImagesEEG,001,201569,
AFNE01.JPG,AFNE01.JPG,AFNE01.JPG,AFNE01.JPG,AFNE01.JPG,AFNE01.JPG,,,,,,,,,,,,,2,3,23,6,,,,,,,,,,,AFNE10.jpg,AFSA16.jpg,AFSA03.jpg,AFNE08.jpg,AFSA03.jpg,FS,4,num_2,16,num_2,2.84999356931,,,2017_Sep_18_1736,60.0099510251,MAFE4ImagesEEG,001,201569,
AFNE01.JPG,AFNE01.JPG,AFNE01.JPG,AFNE01.JPG,AFNE01.JPG,AFNE01.JPG,,,,,,,,,,,,,2,4,24,9,,,,,,,,,,,AFSA19.jpg,AFNE15.jpg,AFSA01.jpg,AFNE18.jpg,AFSA01.jpg,FS,4,num_2,32,num_8,1.56673069694,,,2017_Sep_18_1736,60.0099510251,MAFE4ImagesEEG,001,201569,
AFNE01.JPG,AFNE01.JPG,AFNE01.JPG,AFNE01.JPG,AFNE01.JPG,AFNE01.JPG,,,,,,,,,,,,,2,5,25,1,,,,,,,,,,,AFSA01.jpg,AFNE02.jpg,AFSA03.jpg,AFNE14.jpg,AFSA01.jpg,FS,4,num_8,16,num_8,0.88344928599,,,2017_Sep_18_1736,60.0099510251,MAFE4ImagesEEG,001,201569,
AFNE01.JPG,AFNE01.JPG,AFNE01.JPG,AFNE01.JPG,AFNE01.JPG,AFNE01.JPG,,,,,,,,,,,,,2,6,26,7,,,,,,,,,,,AFSA06.jpg,AFNE18.jpg,AFSA07.jpg,AFNE03.jpg,AFNE03.jpg,FN,3,num_4,32,num_2,3.36657148181,,,2017_Sep_18_1736,60.0099510251,MAFE4ImagesEEG,001,201569,
AFNE01.JPG,AFNE01.JPG,AFNE01.JPG,AFNE01.JPG,AFNE01.JPG,AFNE01.JPG,,,,,,,,,,,,,2,7,27,0,,,,,,,,,,,AFSA19.jpg,AFSA09.jpg,AFNE02.jpg,AFNE03.jpg,AFNE03.jpg,FN,3,num_4,16,num_4,0.850128921447,,,2017_Sep_18_1736,60.0099510251,MAFE4ImagesEEG,001,201569,
AFNE01.JPG,AFNE01.JPG,AFNE01.JPG,AFNE01.JPG,AFNE01.JPG,AFNE01.JPG,,,,,,,,,,,,,2,8,28,8,,,,,,,,,,,AFNE20.jpg,AFNE18.jpg,AFSA15.jpg,AFSA13.jpg,AFSA15.jpg,FS,4,num_2,32,num_6,1.43341491884,,,2017_Sep_18_1736,60.0099510251,MAFE4ImagesEEG,001,201569,
AFNE01.JPG,AFNE01.JPG,AFNE01.JPG,AFNE01.JPG,AFNE01.JPG,AFNE01.JPG,,,,,,,,,,,,,2,9,29,3,,,,,,,,,,,AFNE19.jpg,AFNE17.jpg,AFSA07.jpg,AFSA05.jpg,AFSA05.jpg,FS,4,num_4,32,num_2,2.10004993924,,,2017_Sep_18_1736,60.0099510251,MAFE4ImagesEEG,001,201569,
AFNE01.JPG,AFNE01.JPG,AFNE01.JPG,AFNE01.JPG,AFNE01.JPG,AFNE01.JPG,,,,,,,,,,,,,3,0,30,6,,,,,,,,,,,AFSA12.jpg,AFNE12.jpg,AFSA03.jpg,AFNE05.jpg,AFSA03.jpg,FS,4,num_2,32,num_8,2.8499647025,,,2017_Sep_18_1736,60.0099510251,MAFE4ImagesEEG,001,201569,
AFNE01.JPG,AFNE01.JPG,AFNE01.JPG,AFNE01.JPG,AFNE01.JPG,AFNE01.JPG,,,,,,,,,,,,,3,1,31,7,,,,,,,,,,,AFNE12.jpg,AFNE09.jpg,AFSA12.jpg,AFSA02.jpg,AFSA02.jpg,FS,4,num_4,32,num_6,1.06691432046,,,2017_Sep_18_1736,60.0099510251,MAFE4ImagesEEG,001,201569,
AFNE01.JPG,AFNE01.JPG,AFNE01.JPG,AFNE01.JPG,AFNE01.JPG,AFNE01.JPG,,,,,,,,,,,,,3,2,32,0,,,,,,,,,,,AFSA02.jpg,AFNE16.jpg,AFNE19.jpg,AFSA10.jpg,AFSA10.jpg,FS,4,num_4,32,num_2,1.2834007903,,,2017_Sep_18_1736,60.0099510251,MAFE4ImagesEEG,001,201569,
AFNE01.JPG,AFNE01.JPG,AFNE01.JPG,AFNE01.JPG,AFNE01.JPG,AFNE01.JPG,,,,,,,,,,,,,3,3,33,5,,,,,,,,,,,AFNE14.jpg,AFSA03.jpg,AFNE04.jpg,AFSA20.jpg,AFSA20.jpg,FS,4,num_4,16,num_4,2.39983090619,,,2017_Sep_18_1736,60.0099510251,MAFE4ImagesEEG,001,201569,
AFNE01.JPG,AFNE01.JPG,AFNE01.JPG,AFNE01.JPG,AFNE01.JPG,AFNE01.JPG,,,,,,,,,,,,,3,4,34,3,,,,,,,,,,,AFSA16.jpg,AFNE13.jpg,AFNE03.jpg,AFSA06.jpg,AFNE03.jpg,FN,3,num_2,16,num_2,2.98362399312,,,2017_Sep_18_1736,60.0099510251,MAFE4ImagesEEG,001,201569,
AFNE01.JPG,AFNE01.JPG,AFNE01.JPG,AFNE01.JPG,AFNE01.JPG,AFNE01.JPG,,,,,,,,,,,,,3,5,35,1,,,,,,,,,,,AFNE05.jpg,AFSA06.jpg,AFNE01.jpg,AFSA18.jpg,AFNE01.jpg,FN,3,num_2,32,num_6,2.66663598269,,,2017_Sep_18_1736,60.0099510251,MAFE4ImagesEEG,001,201569,
AFNE01.JPG,AFNE01.JPG,AFNE01.JPG,AFNE01.JPG,AFNE01.JPG,AFNE01.JPG,,,,,,,,,,,,,3,6,36,9,,,,,,,,,,,AFNE12.jpg,AFSA20.jpg,AFSA01.jpg,AFNE07.jpg,AFNE12.jpg,FN,3,num_8,16,num_8,0.916719615459,,,2017_Sep_18_1736,60.0099510251,MAFE4ImagesEEG,001,201569,
AFNE01.JPG,AFNE01.JPG,AFNE01.JPG,AFNE01.JPG,AFNE01.JPG,AFNE01.JPG,,,,,,,,,,,,,3,7,37,4,,,,,,,,,,,AFSA05.jpg,AFNE02.jpg,AFNE04.jpg,AFSA12.jpg,AFSA12.jpg,FS,4,num_4,32,num_2,1.38344527665,,,2017_Sep_18_1736,60.0099510251,MAFE4ImagesEEG,001,201569,
AFNE01.JPG,AFNE01.JPG,AFNE01.JPG,AFNE01.JPG,AFNE01.JPG,AFNE01.JPG,,,,,,,,,,,,,3,8,38,2,,,,,,,,,,,AFSA06.jpg,AFSA03.jpg,AFNE04.jpg,AFNE13.jpg,AFSA03.jpg,FS,4,num_6,32,num_4,1.15008886089,,,2017_Sep_18_1736,60.0099510251,MAFE4ImagesEEG,001,201569,
AFNE01.JPG,AFNE01.JPG,AFNE01.JPG,AFNE01.JPG,AFNE01.JPG,AFNE01.JPG,,,,,,,,,,,,,3,9,39,8,,,,,,,,,,,AFNE17.jpg,AFSA11.jpg,AFSA10.jpg,AFNE05.jpg,AFSA11.jpg,FS,4,num_6,32,num_8,2.43329015118,,,2017_Sep_18_1736,60.0099510251,MAFE4ImagesEEG,001,201569,
AFNE01.JPG,AFNE01.JPG,AFNE01.JPG,AFNE01.JPG,AFNE01.JPG,AFNE01.JPG,,,,,,,,,,,,,4,0,40,4,,,,,,,,,,,AFSA13.jpg,AFSA05.jpg,AFNE01.jpg,AFNE13.jpg,AFSA13.jpg,FS,4,num_8,32,num_2,1.2334391668,,,2017_Sep_18_1736,60.0099510251,MAFE4ImagesEEG,001,201569,
AFNE01.JPG,AFNE01.JPG,AFNE01.JPG,AFNE01.JPG,AFNE01.JPG,AFNE01.JPG,,,,,,,,,,,,,4,1,41,1,,,,,,,,,,,AFSA12.jpg,AFNE07.jpg,AFSA06.jpg,AFNE02.jpg,AFSA12.jpg,FS,4,num_8,16,num_8,0.866487287683,,,2017_Sep_18_1736,60.0099510251,MAFE4ImagesEEG,001,201569,
AFNE01.JPG,AFNE01.JPG,AFNE01.JPG,AFNE01.JPG,AFNE01.JPG,AFNE01.JPG,,,,,,,,,,,,,4,2,42,0,,,,,,,,,,,AFNE13.jpg,AFNE05.jpg,AFSA10.jpg,AFSA07.jpg,AFNE13.jpg,FN,3,num_8,48,None,,,,2017_Sep_18_1736,60.0099510251,MAFE4ImagesEEG,001,201569,
AFNE01.JPG,AFNE01.JPG,AFNE01.JPG,AFNE01.JPG,AFNE01.JPG,AFNE01.JPG,,,,,,,,,,,,,4,3,43,7,,,,,,,,,,,AFNE12.jpg,AFSA16.jpg,AFNE15.jpg,AFSA04.jpg,AFSA16.jpg,FS,4,num_6,16,num_6,0.700128584402,,,2017_Sep_18_1736,60.0099510251,MAFE4ImagesEEG,001,201569,
AFNE01.JPG,AFNE01.JPG,AFNE01.JPG,AFNE01.JPG,AFNE01.JPG,AFNE01.JPG,,,,,,,,,,,,,4,4,44,8,,,,,,,,,,,AFNE02.jpg,AFSA06.jpg,AFNE10.jpg,AFSA07.jpg,AFNE10.jpg,FN,3,num_2,16,num_2,3.3164334516,,,2017_Sep_18_1736,60.0099510251,MAFE4ImagesEEG,001,201569,
AFNE01.JPG,AFNE01.JPG,AFNE01.JPG,AFNE01.JPG,AFNE01.JPG,AFNE01.JPG,,,,,,,,,,,,,4,5,45,5,,,,,,,,,,,AFNE01.jpg,AFSA02.jpg,AFNE16.jpg,AFSA07.jpg,AFNE01.jpg,FN,3,num_8,16,num_8,1.03342973697,,,2017_Sep_18_1736,60.0099510251,MAFE4ImagesEEG,001,201569,
AFNE01.JPG,AFNE01.JPG,AFNE01.JPG,AFNE01.JPG,AFNE01.JPG,AFNE01.JPG,,,,,,,,,,,,,4,6,46,6,,,,,,,,,,,AFNE04.jpg,AFNE15.jpg,AFSA13.jpg,AFSA07.jpg,AFNE15.jpg,FN,3,num_6,16,num_6,0.583481007256,,,2017_Sep_18_1736,60.0099510251,MAFE4ImagesEEG,001,201569,
AFNE01.JPG,AFNE01.JPG,AFNE01.JPG,AFNE01.JPG,AFNE01.JPG,AFNE01.JPG,,,,,,,,,,,,,4,7,47,9,,,,,,,,,,,AFNE01.jpg,AFNE10.jpg,AFSA08.jpg,AFSA16.jpg,AFNE10.jpg,FN,3,num_6,16,num_6,0.883427475812,,,2017_Sep_18_1736,60.0099510251,MAFE4ImagesEEG,001,201569,
AFNE01.JPG,AFNE01.JPG,AFNE01.JPG,AFNE01.JPG,AFNE01.JPG,AFNE01.JPG,,,,,,,,,,,,,4,8,48,2,,,,,,,,,,,AFNE10.jpg,AFSA03.jpg,AFNE20.jpg,AFSA15.jpg,AFNE10.jpg,FN,3,num_8,16,num_8,1.18345509144,,,2017_Sep_18_1736,60.0099510251,MAFE4ImagesEEG,001,201569,
AFNE01.JPG,AFNE01.JPG,AFNE01.JPG,AFNE01.JPG,AFNE01.JPG,AFNE01.JPG,,,,,,,,,,,,,4,9,49,3,,,,,,,,,,,AFSA02.jpg,AFSA07.jpg,AFNE05.jpg,AFNE16.jpg,AFNE16.jpg,FN,3,num_4,32,num_8,0.933403532719,,,2017_Sep_18_1736,60.0099510251,MAFE4ImagesEEG,001,201569,
AFNE01.JPG,AFNE01.JPG,AFNE01.JPG,AFNE01.JPG,AFNE01.JPG,AFNE01.JPG,,,,,,,,,,,,,5,0,50,6,,,,,,,,,,,AFSA01.jpg,AFNE06.jpg,AFNE12.jpg,AFSA16.jpg,AFSA16.jpg,FS,4,num_4,32,num_8,1.75004658755,,,2017_Sep_18_1736,60.0099510251,MAFE4ImagesEEG,001,201569,
AFNE01.JPG,AFNE01.JPG,AFNE01.JPG,AFNE01.JPG,AFNE01.JPG,AFNE01.JPG,,,,,,,,,,,,,5,1,51,3,,,,,,,,,,,AFNE10.jpg,AFSA06.jpg,AFNE12.jpg,AFSA01.jpg,AFNE10.jpg,FN,3,num_8,16,num_8,0.850136298221,,,2017_Sep_18_1736,60.0099510251,MAFE4ImagesEEG,001,201569,
AFNE01.JPG,AFNE01.JPG,AFNE01.JPG,AFNE01.JPG,AFNE01.JPG,AFNE01.JPG,,,,,,,,,,,,,5,2,52,7,,,,,,,,,,,AFNE19.jpg,AFNE16.jpg,AFSA06.jpg,AFSA19.jpg,AFNE19.jpg,FN,3,num_8,32,num_4,1.23343820451,,,2017_Sep_18_1736,60.0099510251,MAFE4ImagesEEG,001,201569,
AFNE01.JPG,AFNE01.JPG,AFNE01.JPG,AFNE01.JPG,AFNE01.JPG,AFNE01.JPG,,,,,,,,,,,,,5,3,53,2,,,,,,,,,,,AFSA20.jpg,AFSA13.jpg,AFNE19.jpg,AFNE20.jpg,AFNE20.jpg,FN,3,num_4,32,num_2,1.48341086134,,,2017_Sep_18_1736,60.0099510251,MAFE4ImagesEEG,001,201569,
AFNE01.JPG,AFNE01.JPG,AFNE01.JPG,AFNE01.JPG,AFNE01.JPG,AFNE01.JPG,,,,,,,,,,,,,5,4,54,4,,,,,,,,,,,AFSA11.jpg,AFNE05.jpg,AFNE09.jpg,AFSA01.jpg,AFNE05.jpg,FN,3,num_6,16,num_6,2.5499649914,,,2017_Sep_18_1736,60.0099510251,MAFE4ImagesEEG,001,201569,
AFNE01.JPG,AFNE01.JPG,AFNE01.JPG,AFNE01.JPG,AFNE01.JPG,AFNE01.JPG,,,,,,,,,,,,,5,5,55,9,,,,,,,,,,,AFNE13.jpg,AFNE15.jpg,AFSA12.jpg,AFSA15.jpg,AFSA15.jpg,FS,4,num_4,16,num_4,1.33343939134,,,2017_Sep_18_1736,60.0099510251,MAFE4ImagesEEG,001,201569,
AFNE01.JPG,AFNE01.JPG,AFNE01.JPG,AFNE01.JPG,AFNE01.JPG,AFNE01.JPG,,,,,,,,,,,,,5,6,56,5,,,,,,,,,,,AFNE10.jpg,AFSA05.jpg,AFSA18.jpg,AFNE03.jpg,AFSA18.jpg,FS,4,num_2,16,num_2,0.983492489904,,,2017_Sep_18_1736,60.0099510251,MAFE4ImagesEEG,001,201569,
AFNE01.JPG,AFNE01.JPG,AFNE01.JPG,AFNE01.JPG,AFNE01.JPG,AFNE01.JPG,,,,,,,,,,,,,5,7,57,8,,,,,,,,,,,AFNE15.jpg,AFSA01.jpg,AFNE06.jpg,AFSA07.jpg,AFNE15.jpg,FN,3,num_8,16,num_8,1.13345273398,,,2017_Sep_18_1736,60.0099510251,MAFE4ImagesEEG,001,201569,
AFNE01.JPG,AFNE01.JPG,AFNE01.JPG,AFNE01.JPG,AFNE01.JPG,AFNE01.JPG,,,,,,,,,,,,,5,8,58,0,,,,,,,,,,,AFNE05.jpg,AFSA19.jpg,AFNE17.jpg,AFSA06.jpg,AFSA06.jpg,FS,4,num_4,16,num_4,1.25011474476,,,2017_Sep_18_1736,60.0099510251,MAFE4ImagesEEG,001,201569,
AFNE01.JPG,AFNE01.JPG,AFNE01.JPG,AFNE01.JPG,AFNE01.JPG,AFNE01.JPG,,,,,,,,,,,,,5,9,59,1,,,,,,,,,,,AFSA04.jpg,AFNE06.jpg,AFSA08.jpg,AFNE12.jpg,AFSA04.jpg,FS,4,num_8,16,num_8,0.966761103133,,,2017_Sep_18_1736,60.0099510251,MAFE4ImagesEEG,001,201569,
,,,,,,,,,,,,,,,,,,,,,,,,,,,,,,,,,,,,,,,,,,,space,6.36632900266,2017_Sep_18_1736,60.0099510251,MAFE4ImagesEEG,001,201569,
AFNE01.JPG,AFNE01.JPG,AFNE01.JPG,AFNE01.JPG,AFNE01.JPG,AFNE01.JPG,,,,,,,,,,,,,,,,,0,0,0,2,,,,,,,AMNE04.jpg,AMSA06.jpg,AMSA02.jpg,AMNE03.jpg,AMNE04.jpg,MN,1,num_8,32,num_4,1.16679009795,,,2017_Sep_18_1736,60.0099510251,MAFE4ImagesEEG,001,201569,
AFNE01.JPG,AFNE01.JPG,AFNE01.JPG,AFNE01.JPG,AFNE01.JPG,AFNE01.JPG,,,,,,,,,,,,,,,,,0,1,1,9,,,,,,,AMSA13.jpg,AMNE02.jpg,AMSA14.jpg,AMNE10.jpg,AMNE10.jpg,MN,1,num_4,32,num_8,0.750127093168,,,2017_Sep_18_1736,60.0099510251,MAFE4ImagesEEG,001,201569,
AFNE01.JPG,AFNE01.JPG,AFNE01.JPG,AFNE01.JPG,AFNE01.JPG,AFNE01.JPG,,,,,,,,,,,,,,,,,0,2,2,3,,,,,,,AMSA03.jpg,AMNE07.jpg,AMSA13.jpg,AMNE03.jpg,AMNE07.jpg,MN,1,num_6,32,num_2,1.45016554976,,,2017_Sep_18_1736,60.0099510251,MAFE4ImagesEEG,001,201569,
AFNE01.JPG,AFNE01.JPG,AFNE01.JPG,AFNE01.JPG,AFNE01.JPG,AFNE01.JPG,,,,,,,,,,,,,,,,,0,3,3,1,,,,,,,AMNE03.jpg,AMSA10.jpg,AMNE02.jpg,AMSA18.jpg,AMNE02.jpg,MN,1,num_2,32,num_8,1.16676123138,,,2017_Sep_18_1736,60.0099510251,MAFE4ImagesEEG,001,201569,
AFNE01.JPG,AFNE01.JPG,AFNE01.JPG,AFNE01.JPG,AFNE01.JPG,AFNE01.JPG,,,,,,,,,,,,,,,,,0,4,4,4,,,,,,,AMSA15.jpg,AMSA04.jpg,AMNE16.jpg,AMNE08.jpg,AMSA04.jpg,MS,2,num_6,16,num_6,1.40007402678,,,2017_Sep_18_1736,60.0099510251,MAFE4ImagesEEG,001,201569,
AFNE01.JPG,AFNE01.JPG,AFNE01.JPG,AFNE01.JPG,AFNE01.JPG,AFNE01.JPG,,,,,,,,,,,,,,,,,0,5,5,7,,,,,,,AMNE12.jpg,AMSA02.jpg,AMNE17.jpg,AMSA20.jpg,AMSA20.jpg,MS,2,num_4,32,num_2,1.18343231897,,,2017_Sep_18_1736,60.0099510251,MAFE4ImagesEEG,001,201569,
AFNE01.JPG,AFNE01.JPG,AFNE01.JPG,AFNE01.JPG,AFNE01.JPG,AFNE01.JPG,,,,,,,,,,,,,,,,,0,6,6,6,,,,,,,AMNE11.jpg,AMSA14.jpg,AMSA19.jpg,AMNE02.jpg,AMNE11.jpg,MN,1,num_8,32,num_4,1.05006907112,,,2017_Sep_18_1736,60.0099510251,MAFE4ImagesEEG,001,201569,
AFNE01.JPG,AFNE01.JPG,AFNE01.JPG,AFNE01.JPG,AFNE01.JPG,AFNE01.JPG,,,,,,,,,,,,,,,,,0,7,7,0,,,,,,,AMSA18.jpg,AMNE16.jpg,AMNE11.jpg,AMSA05.jpg,AMNE11.jpg,MN,1,num_2,32,num_4,1.26659210538,,,2017_Sep_18_1736,60.0099510251,MAFE4ImagesEEG,001,201569,
AFNE01.JPG,AFNE01.JPG,AFNE01.JPG,AFNE01.JPG,AFNE01.JPG,AFNE01.JPG,,,,,,,,,,,,,,,,,0,8,8,5,,,,,,,AMNE14.jpg,AMNE10.jpg,AMSA13.jpg,AMSA20.jpg,AMNE14.jpg,MN,1,num_8,16,num_8,1.28353710473,,,2017_Sep_18_1736,60.0099510251,MAFE4ImagesEEG,001,201569,
AFNE01.JPG,AFNE01.JPG,AFNE01.JPG,AFNE01.JPG,AFNE01.JPG,AFNE01.JPG,,,,,,,,,,,,,,,,,0,9,9,8,,,,,,,AMNE02.jpg,AMSA06.jpg,AMSA05.jpg,AMNE19.jpg,AMNE02.jpg,MN,1,num_8,32,num_2,1.36673249304,,,2017_Sep_18_1736,60.0099510251,MAFE4ImagesEEG,001,201569,
AFNE01.JPG,AFNE01.JPG,AFNE01.JPG,AFNE01.JPG,AFNE01.JPG,AFNE01.JPG,,,,,,,,,,,,,,,,,1,0,10,0,,,,,,,AMNE13.jpg,AMNE02.jpg,AMSA11.jpg,AMSA08.jpg,AMSA11.jpg,MS,2,num_2,32,num_6,1.35007872549,,,2017_Sep_18_1736,60.0099510251,MAFE4ImagesEEG,001,201569,
AFNE01.JPG,AFNE01.JPG,AFNE01.JPG,AFNE01.JPG,AFNE01.JPG,AFNE01.JPG,,,,,,,,,,,,,,,,,1,1,11,6,,,,,,,AMNE04.jpg,AMSA01.jpg,AMNE07.jpg,AMSA18.jpg,AMSA01.jpg,MS,2,num_6,16,num_6,0.733464665478,,,2017_Sep_18_1736,60.0099510251,MAFE4ImagesEEG,001,201569,
AFNE01.JPG,AFNE01.JPG,AFNE01.JPG,AFNE01.JPG,AFNE01.JPG,AFNE01.JPG,,,,,,,,,,,,,,,,,1,2,12,3,,,,,,,AMNE19.jpg,AMSA20.jpg,AMNE17.jpg,AMSA04.jpg,AMNE17.jpg,MN,1,num_2,16,num_2,1.3167436067,,,2017_Sep_18_1736,60.0099510251,MAFE4ImagesEEG,001,201569,
AFNE01.JPG,AFNE01.JPG,AFNE01.JPG,AFNE01.JPG,AFNE01.JPG,AFNE01.JPG,,,,,,,,,,,,,,,,,1,3,13,1,,,,,,,AMNE09.jpg,AMSA07.jpg,AMSA18.jpg,AMNE10.jpg,AMNE10.jpg,MN,1,num_4,32,num_8,1.033401191,,,2017_Sep_18_1736,60.0099510251,MAFE4ImagesEEG,001,201569,
AFNE01.JPG,AFNE01.JPG,AFNE01.JPG,AFNE01.JPG,AFNE01.JPG,AFNE01.JPG,,,,,,,,,,,,,,,,,1,4,14,8,,,,,,,AMSA20.jpg,AMNE16.jpg,AMNE02.jpg,AMSA10.jpg,AMSA10.jpg,MS,2,num_4,32,num_8,2.20002001408,,,2017_Sep_18_1736,60.0099510251,MAFE4ImagesEEG,001,201569,
AFNE01.JPG,AFNE01.JPG,AFNE01.JPG,AFNE01.JPG,AFNE01.JPG,AFNE01.JPG,,,,,,,,,,,,,,,,,1,5,15,4,,,,,,,AMSA06.jpg,AMNE16.jpg,AMNE15.jpg,AMSA12.jpg,AMSA06.jpg,MS,2,num_8,16,num_8,1.6501329625,,,2017_Sep_18_1736,60.0099510251,MAFE4ImagesEEG,001,201569,
AFNE01.JPG,AFNE01.JPG,AFNE01.JPG,AFNE01.JPG,AFNE01.JPG,AFNE01.JPG,,,,,,,,,,,,,,,,,1,6,16,5,,,,,,,AMSA11.jpg,AMNE19.jpg,AMSA17.jpg,AMNE17.jpg,AMSA17.jpg,MS,2,num_2,16,num_2,0.950077827554,,,2017_Sep_18_1736,60.0099510251,MAFE4ImagesEEG,001,201569,
AFNE01.JPG,AFNE01.JPG,AFNE01.JPG,AFNE01.JPG,AFNE01.JPG,AFNE01.JPG,,,,,,,,,,,,,,,,,1,7,17,7,,,,,,,AMNE09.jpg,AMNE18.jpg,AMSA04.jpg,AMSA14.jpg,AMNE18.jpg,MN,1,num_6,16,num_6,1.2167449859,,,2017_Sep_18_1736,60.0099510251,MAFE4ImagesEEG,001,201569,
AFNE01.JPG,AFNE01.JPG,AFNE01.JPG,AFNE01.JPG,AFNE01.JPG,AFNE01.JPG,,,,,,,,,,,,,,,,,1,8,18,9,,,,,,,AMNE07.jpg,AMSA11.jpg,AMSA13.jpg,AMNE20.jpg,AMSA11.jpg,MS,2,num_6,32,num_2,1.18339639599,,,2017_Sep_18_1736,60.0099510251,MAFE4ImagesEEG,001,201569,
AFNE01.JPG,AFNE01.JPG,AFNE01.JPG,AFNE01.JPG,AFNE01.JPG,AFNE01.JPG,,,,,,,,,,,,,,,,,1,9,19,2,,,,,,,AMNE05.jpg,AMNE09.jpg,AMSA08.jpg,AMSA03.jpg,AMSA03.jpg,MS,2,num_4,16,num_4,0.616653511068,,,2017_Sep_18_1736,60.0099510251,MAFE4ImagesEEG,001,201569,
AFNE01.JPG,AFNE01.JPG,AFNE01.JPG,AFNE01.JPG,AFNE01.JPG,AFNE01.JPG,,,,,,,,,,,,,,,,,2,0,20,0,,,,,,,AMSA02.jpg,AMNE02.jpg,AMSA17.jpg,AMNE03.jpg,AMNE03.jpg,MN,1,num_4,32,num_2,1.08336762572,,,2017_Sep_18_1736,60.0099510251,MAFE4ImagesEEG,001,201569,
AFNE01.JPG,AFNE01.JPG,AFNE01.JPG,AFNE01.JPG,AFNE01.JPG,AFNE01.JPG,,,,,,,,,,,,,,,,,2,1,21,5,,,,,,,AMSA17.jpg,AMNE11.jpg,AMSA03.jpg,AMNE09.jpg,AMNE09.jpg,MN,1,num_4,32,num_8,2.28335620742,,,2017_Sep_18_1736,60.0099510251,MAFE4ImagesEEG,001,201569,
AFNE01.JPG,AFNE01.JPG,AFNE01.JPG,AFNE01.JPG,AFNE01.JPG,AFNE01.JPG,,,,,,,,,,,,,,,,,2,2,22,3,,,,,,,AMNE20.jpg,AMSA07.jpg,AMNE07.jpg,AMSA02.jpg,AMSA02.jpg,MS,2,num_4,32,num_2,2.45001929253,,,2017_Sep_18_1736,60.0099510251,MAFE4ImagesEEG,001,201569,
AFNE01.JPG,AFNE01.JPG,AFNE01.JPG,AFNE01.JPG,AFNE01.JPG,AFNE01.JPG,,,,,,,,,,,,,,,,,2,3,23,6,,,,,,,AMNE13.jpg,AMNE05.jpg,AMSA17.jpg,AMSA16.jpg,AMSA17.jpg,MS,2,num_2,32,num_8,1.18340762192,,,2017_Sep_18_1736,60.0099510251,MAFE4ImagesEEG,001,201569,
AFNE01.JPG,AFNE01.JPG,AFNE01.JPG,AFNE01.JPG,AFNE01.JPG,AFNE01.JPG,,,,,,,,,,,,,,,,,2,4,24,1,,,,,,,AMSA03.jpg,AMNE17.jpg,AMNE11.jpg,AMSA18.jpg,AMSA03.jpg,MS,2,num_8,32,num_2,3.49988918449,,,2017_Sep_18_1736,60.0099510251,MAFE4ImagesEEG,001,201569,
AFNE01.JPG,AFNE01.JPG,AFNE01.JPG,AFNE01.JPG,AFNE01.JPG,AFNE01.JPG,,,,,,,,,,,,,,,,,2,5,25,2,,,,,,,AMSA17.jpg,AMNE08.jpg,AMNE16.jpg,AMSA05.jpg,AMNE16.jpg,MN,1,num_2,32,num_6,2.48346987762,,,2017_Sep_18_1736,60.0099510251,MAFE4ImagesEEG,001,201569,
AFNE01.JPG,AFNE01.JPG,AFNE01.JPG,AFNE01.JPG,AFNE01.JPG,AFNE01.JPG,,,,,,,,,,,,,,,,,2,6,26,4,,,,,,,AMNE20.jpg,AMSA12.jpg,AMNE19.jpg,AMSA17.jpg,AMNE20.jpg,MN,1,num_8,16,num_8,0.849819086725,,,2017_Sep_18_1736,60.0099510251,MAFE4ImagesEEG,001,201569,
AFNE01.JPG,AFNE01.JPG,AFNE01.JPG,AFNE01.JPG,AFNE01.JPG,AFNE01.JPG,,,,,,,,,,,,,,,,,2,7,27,8,,,,,,,AMSA07.jpg,AMNE04.jpg,AMSA12.jpg,AMNE01.jpg,AMNE04.jpg,MN,1,num_6,32,num_2,1.6001046251,,,2017_Sep_18_1736,60.0099510251,MAFE4ImagesEEG,001,201569,
AFNE01.JPG,AFNE01.JPG,AFNE01.JPG,AFNE01.JPG,AFNE01.JPG,AFNE01.JPG,,,,,,,,,,,,,,,,,2,8,28,7,,,,,,,AMNE02.jpg,AMSA18.jpg,AMNE07.jpg,AMSA20.jpg,AMNE02.jpg,MN,1,num_8,16,num_8,1.71669446956,,,2017_Sep_18_1736,60.0099510251,MAFE4ImagesEEG,001,201569,
AFNE01.JPG,AFNE01.JPG,AFNE01.JPG,AFNE01.JPG,AFNE01.JPG,AFNE01.JPG,,,,,,,,,,,,,,,,,2,9,29,9,,,,,,,AMSA03.jpg,AMSA07.jpg,AMNE08.jpg,AMNE14.jpg,AMNE08.jpg,MN,1,num_2,16,num_2,0.916850477224,,,2017_Sep_18_1736,60.0099510251,MAFE4ImagesEEG,001,201569,
AFNE01.JPG,AFNE01.JPG,AFNE01.JPG,AFNE01.JPG,AFNE01.JPG,AFNE01.JPG,,,,,,,,,,,,,,,,,3,0,30,3,,,,,,,AMSA14.jpg,AMNE01.jpg,AMSA19.jpg,AMNE03.jpg,AMSA19.jpg,MS,2,num_2,32,num_4,1.73313173768,,,2017_Sep_18_1736,60.0099510251,MAFE4ImagesEEG,001,201569,
AFNE01.JPG,AFNE01.JPG,AFNE01.JPG,AFNE01.JPG,AFNE01.JPG,AFNE01.JPG,,,,,,,,,,,,,,,,,3,1,31,1,,,,,,,AMNE03.jpg,AMNE09.jpg,AMSA15.jpg,AMSA20.jpg,AMSA20.jpg,MS,2,num_4,16,num_4,0.750081868842,,,2017_Sep_18_1736,60.0099510251,MAFE4ImagesEEG,001,201569,
AFNE01.JPG,AFNE01.JPG,AFNE01.JPG,AFNE01.JPG,AFNE01.JPG,AFNE01.JPG,,,,,,,,,,,,,,,,,3,2,32,7,,,,,,,AMNE19.jpg,AMSA05.jpg,AMNE14.jpg,AMSA08.jpg,AMNE19.jpg,MN,1,num_8,16,num_8,2.03337745648,,,2017_Sep_18_1736,60.0099510251,MAFE4ImagesEEG,001,201569,
AFNE01.JPG,AFNE01.JPG,AFNE01.JPG,AFNE01.JPG,AFNE01.JPG,AFNE01.JPG,,,,,,,,,,,,,,,,,3,3,33,2,,,,,,,AMNE04.jpg,AMSA14.jpg,AMNE18.jpg,AMSA07.jpg,AMNE18.jpg,MN,1,num_2,16,num_2,1.41694204835,,,2017_Sep_18_1736,60.0099510251,MAFE4ImagesEEG,001,201569,
AFNE01.JPG,AFNE01.JPG,AFNE01.JPG,AFNE01.JPG,AFNE01.JPG,AFNE01.JPG,,,,,,,,,,,,,,,,,3,4,34,6,,,,,,,AMNE09.jpg,AMSA20.jpg,AMSA02.jpg,AMNE07.jpg,AMNE09.jpg,MN,1,num_8,16,num_8,0.800168260001,,,2017_Sep_18_1736,60.0099510251,MAFE4ImagesEEG,001,201569,
AFNE01.JPG,AFNE01.JPG,AFNE01.JPG,AFNE01.JPG,AFNE01.JPG,AFNE01.JPG,,,,,,,,,,,,,,,,,3,5,35,0,,,,,,,AMNE15.jpg,AMSA06.jpg,AMSA15.jpg,AMNE18.jpg,AMNE18.jpg,MN,1,num_4,32,num_8,0.933475378435,,,2017_Sep_18_1736,60.0099510251,MAFE4ImagesEEG,001,201569,
AFNE01.JPG,AFNE01.JPG,AFNE01.JPG,AFNE01.JPG,AFNE01.JPG,AFNE01.JPG,,,,,,,,,,,,,,,,,3,6,36,5,,,,,,,AMNE07.jpg,AMSA13.jpg,AMNE01.jpg,AMSA08.jpg,AMSA08.jpg,MS,2,num_4,32,num_2,1.35012234608,,,2017_Sep_18_1736,60.0099510251,MAFE4ImagesEEG,001,201569,
AFNE01.JPG,AFNE01.JPG,AFNE01.JPG,AFNE01.JPG,AFNE01.JPG,AFNE01.JPG,,,,,,,,,,,,,,,,,3,7,37,4,,,,,,,AMSA10.jpg,AMNE16.jpg,AMSA01.jpg,AMNE11.jpg,AMNE11.jpg,MN,1,num_4,32,num_8,2.21664651902,,,2017_Sep_18_1736,60.0099510251,MAFE4ImagesEEG,001,201569,
AFNE01.JPG,AFNE01.JPG,AFNE01.JPG,AFNE01.JPG,AFNE01.JPG,AFNE01.JPG,,,,,,,,,,,,,,,,,3,8,38,8,,,,,,,AMNE14.jpg,AMNE03.jpg,AMSA19.jpg,AMSA04.jpg,AMNE03.jpg,MN,1,num_6,32,num_2,1.15009655873,,,2017_Sep_18_1736,60.0099510251,MAFE4ImagesEEG,001,201569,
AFNE01.JPG,AFNE01.JPG,AFNE01.JPG,AFNE01.JPG,AFNE01.JPG,AFNE01.JPG,,,,,,,,,,,,,,,,,3,9,39,9,,,,,,,AMNE08.jpg,AMSA07.jpg,AMSA10.jpg,AMNE03.jpg,AMSA07.jpg,MS,2,num_6,16,num_6,0.866725918138,,,2017_Sep_18_1736,60.0099510251,MAFE4ImagesEEG,001,201569,
AFNE01.JPG,AFNE01.JPG,AFNE01.JPG,AFNE01.JPG,AFNE01.JPG,AFNE01.JPG,,,,,,,,,,,,,,,,,4,0,40,5,,,,,,,AMNE05.jpg,AMNE17.jpg,AMSA16.jpg,AMSA02.jpg,AMNE17.jpg,MN,1,num_6,32,num_8,0.950100920862,,,2017_Sep_18_1736,60.0099510251,MAFE4ImagesEEG,001,201569,
AFNE01.JPG,AFNE01.JPG,AFNE01.JPG,AFNE01.JPG,AFNE01.JPG,AFNE01.JPG,,,,,,,,,,,,,,,,,4,1,41,0,,,,,,,AMSA07.jpg,AMNE07.jpg,AMNE20.jpg,AMSA01.jpg,AMSA07.jpg,MS,2,num_8,32,num_2,0.983530016383,,,2017_Sep_18_1736,60.0099510251,MAFE4ImagesEEG,001,201569,
AFNE01.JPG,AFNE01.JPG,AFNE01.JPG,AFNE01.JPG,AFNE01.JPG,AFNE01.JPG,,,,,,,,,,,,,,,,,4,2,42,8,,,,,,,AMSA15.jpg,AMNE06.jpg,AMSA02.jpg,AMNE05.jpg,AMNE06.jpg,MN,1,num_6,32,num_4,1.78338202694,,,2017_Sep_18_1736,60.0099510251,MAFE4ImagesEEG,001,201569,
AFNE01.JPG,AFNE01.JPG,AFNE01.JPG,AFNE01.JPG,AFNE01.JPG,AFNE01.JPG,,,,,,,,,,,,,,,,,4,3,43,7,,,,,,,AMNE13.jpg,AMSA08.jpg,AMNE09.jpg,AMSA11.jpg,AMNE13.jpg,MN,1,num_8,32,num_6,1.46682958095,,,2017_Sep_18_1736,60.0099510251,MAFE4ImagesEEG,001,201569,
AFNE01.JPG,AFNE01.JPG,AFNE01.JPG,AFNE01.JPG,AFNE01.JPG,AFNE01.JPG,,,,,,,,,,,,,,,,,4,4,44,6,,,,,,,AMSA18.jpg,AMNE20.jpg,AMNE17.jpg,AMSA09.jpg,AMNE17.jpg,MN,1,num_2,16,num_2,3.41641411092,,,2017_Sep_18_1736,60.0099510251,MAFE4ImagesEEG,001,201569,
AFNE01.JPG,AFNE01.JPG,AFNE01.JPG,AFNE01.JPG,AFNE01.JPG,AFNE01.JPG,,,,,,,,,,,,,,,,,4,5,45,4,,,,,,,AMSA18.jpg,AMSA12.jpg,AMNE01.jpg,AMNE05.jpg,AMNE01.jpg,MN,1,num_2,32,num_4,1.8500060779,,,2017_Sep_18_1736,60.0099510251,MAFE4ImagesEEG,001,201569,
AFNE01.JPG,AFNE01.JPG,AFNE01.JPG,AFNE01.JPG,AFNE01.JPG,AFNE01.JPG,,,,,,,,,,,,,,,,,4,6,46,2,,,,,,,AMSA15.jpg,AMNE02.jpg,AMSA04.jpg,AMNE18.jpg,AMSA15.jpg,MS,2,num_8,16,num_8,1.31680518878,,,2017_Sep_18_1736,60.0099510251,MAFE4ImagesEEG,001,201569,
AFNE01.JPG,AFNE01.JPG,AFNE01.JPG,AFNE01.JPG,AFNE01.JPG,AFNE01.JPG,,,,,,,,,,,,,,,,,4,7,47,3,,,,,,,AMNE08.jpg,AMSA13.jpg,AMSA15.jpg,AMNE14.jpg,AMSA15.jpg,MS,2,num_2,16,num_2,1.40006248001,,,2017_Sep_18_1736,60.0099510251,MAFE4ImagesEEG,001,201569,
AFNE01.JPG,AFNE01.JPG,AFNE01.JPG,AFNE01.JPG,AFNE01.JPG,AFNE01.JPG,,,,,,,,,,,,,,,,,4,8,48,9,,,,,,,AMSA15.jpg,AMNE07.jpg,AMSA08.jpg,AMNE20.jpg,AMNE07.jpg,MN,1,num_6,16,num_6,0.716780107003,,,2017_Sep_18_1736,60.0099510251,MAFE4ImagesEEG,001,201569,
AFNE01.JPG,AFNE01.JPG,AFNE01.JPG,AFNE01.JPG,AFNE01.JPG,AFNE01.JPG,,,,,,,,,,,,,,,,,4,9,49,1,,,,,,,AMSA20.jpg,AMSA10.jpg,AMNE20.jpg,AMNE13.jpg,AMSA20.jpg,MS,2,num_8,32,num_2,1.01674325392,,,2017_Sep_18_1736,60.0099510251,MAFE4ImagesEEG,001,201569,
AFNE01.JPG,AFNE01.JPG,AFNE01.JPG,AFNE01.JPG,AFNE01.JPG,AFNE01.JPG,,,,,,,,,,,,,,,,,5,0,50,3,,,,,,,AMSA10.jpg,AMNE06.jpg,AMSA07.jpg,AMNE17.jpg,AMNE17.jpg,MN,1,num_4,32,num_2,1.43341620173,,,2017_Sep_18_1736,60.0099510251,MAFE4ImagesEEG,001,201569,
AFNE01.JPG,AFNE01.JPG,AFNE01.JPG,AFNE01.JPG,AFNE01.JPG,AFNE01.JPG,,,,,,,,,,,,,,,,,5,1,51,4,,,,,,,AMSA12.jpg,AMNE09.jpg,AMSA11.jpg,AMNE03.jpg,AMSA12.jpg,MS,2,num_8,32,num_6,1.79991359264,,,2017_Sep_18_1736,60.0099510251,MAFE4ImagesEEG,001,201569,
AFNE01.JPG,AFNE01.JPG,AFNE01.JPG,AFNE01.JPG,AFNE01.JPG,AFNE01.JPG,,,,,,,,,,,,,,,,,5,2,52,1,,,,,,,AMNE14.jpg,AMSA09.jpg,AMNE09.jpg,AMSA14.jpg,AMSA14.jpg,MS,2,num_4,32,num_2,1.40006632893,,,2017_Sep_18_1736,60.0099510251,MAFE4ImagesEEG,001,201569,
AFNE01.JPG,AFNE01.JPG,AFNE01.JPG,AFNE01.JPG,AFNE01.JPG,AFNE01.JPG,,,,,,,,,,,,,,,,,5,3,53,9,,,,,,,AMNE08.jpg,AMSA01.jpg,AMNE10.jpg,AMSA02.jpg,AMNE10.jpg,MN,1,num_2,32,num_8,0.833527113544,,,2017_Sep_18_1736,60.0099510251,MAFE4ImagesEEG,001,201569,
AFNE01.JPG,AFNE01.JPG,AFNE01.JPG,AFNE01.JPG,AFNE01.JPG,AFNE01.JPG,,,,,,,,,,,,,,,,,5,4,54,5,,,,,,,AMNE02.jpg,AMNE16.jpg,AMSA07.jpg,AMSA05.jpg,AMNE16.jpg,MN,1,num_6,16,num_6,0.950100600021,,,2017_Sep_18_1736,60.0099510251,MAFE4ImagesEEG,001,201569,
AFNE01.JPG,AFNE01.JPG,AFNE01.JPG,AFNE01.JPG,AFNE01.JPG,AFNE01.JPG,,,,,,,,,,,,,,,,,5,5,55,8,,,,,,,AMSA01.jpg,AMSA08.jpg,AMNE11.jpg,AMNE19.jpg,AMSA08.jpg,MS,2,num_6,32,num_2,0.950045432895,,,2017_Sep_18_1736,60.0099510251,MAFE4ImagesEEG,001,201569,
AFNE01.JPG,AFNE01.JPG,AFNE01.JPG,AFNE01.JPG,AFNE01.JPG,AFNE01.JPG,,,,,,,,,,,,,,,,,5,6,56,0,,,,,,,AMNE07.jpg,AMSA20.jpg,AMSA11.jpg,AMNE18.jpg,AMSA11.jpg,MS,2,num_2,32,num_6,1.38348825579,,,2017_Sep_18_1736,60.0099510251,MAFE4ImagesEEG,001,201569,
AFNE01.JPG,AFNE01.JPG,AFNE01.JPG,AFNE01.JPG,AFNE01.JPG,AFNE01.JPG,,,,,,,,,,,,,,,,,5,7,57,2,,,,,,,AMNE15.jpg,AMSA17.jpg,AMNE17.jpg,AMSA12.jpg,AMSA17.jpg,MS,2,num_6,16,num_6,0.650243297219,,,2017_Sep_18_1736,60.0099510251,MAFE4ImagesEEG,001,201569,
AFNE01.JPG,AFNE01.JPG,AFNE01.JPG,AFNE01.JPG,AFNE01.JPG,AFNE01.JPG,,,,,,,,,,,,,,,,,5,8,58,7,,,,,,,AMNE19.jpg,AMSA10.jpg,AMSA05.jpg,AMNE15.jpg,AMNE15.jpg,MN,1,num_4,16,num_4,1.94987640297,,,2017_Sep_18_1736,60.0099510251,MAFE4ImagesEEG,001,201569,
AFNE01.JPG,AFNE01.JPG,AFNE01.JPG,AFNE01.JPG,AFNE01.JPG,AFNE01.JPG,,,,,,,,,,,,,,,,,5,9,59,6,,,,,,,AMNE08.jpg,AMNE03.jpg,AMSA07.jpg,AMSA02.jpg,AMSA07.jpg,MS,2,num_2,16,num_2,2.05007131654,,,2017_Sep_18_1736,60.0099510251,MAFE4ImagesEEG,001,201569,
,,,,,,,,,,,,,,,,,,,,,,,,,,,,,,,,,,,,,,,,,,,space,11.4488482717,2017_Sep_18_1736,60.0099510251,MAFE4ImagesEEG,001,201569,
AFNE01.JPG,AFNE01.JPG,AFNE01.JPG,AFNE01.JPG,AFNE01.JPG,AFNE01.JPG,,,,,,,,,,,,,,,,,,,,,0,0,0,6,,,AFNE07.jpg,AFSA02.jpg,AFNE20.jpg,AFSA10.jpg,AFNE07.jpg,FN,3,num_8,32,num_2,1.91671608738,,,2017_Sep_18_1736,60.0099510251,MAFE4ImagesEEG,001,201569,
AFNE01.JPG,AFNE01.JPG,AFNE01.JPG,AFNE01.JPG,AFNE01.JPG,AFNE01.JPG,,,,,,,,,,,,,,,,,,,,,0,1,1,7,,,AFSA18.jpg,AFSA15.jpg,AFNE08.jpg,AFNE16.jpg,AFSA15.jpg,FS,4,num_6,32,num_8,1.78363701492,,,2017_Sep_18_1736,60.0099510251,MAFE4ImagesEEG,001,201569,
AFNE01.JPG,AFNE01.JPG,AFNE01.JPG,AFNE01.JPG,AFNE01.JPG,AFNE01.JPG,,,,,,,,,,,,,,,,,,,,,0,2,2,2,,,AFNE16.jpg,AFSA20.jpg,AFSA04.jpg,AFNE12.jpg,AFSA04.jpg,FS,4,num_2,16,num_2,1.71670184634,,,2017_Sep_18_1736,60.0099510251,MAFE4ImagesEEG,001,201569,
AFNE01.JPG,AFNE01.JPG,AFNE01.JPG,AFNE01.JPG,AFNE01.JPG,AFNE01.JPG,,,,,,,,,,,,,,,,,,,,,0,3,3,1,,,AFNE03.jpg,AFNE07.jpg,AFSA18.jpg,AFSA06.jpg,AFNE07.jpg,FN,3,num_6,32,num_8,1.53340520035,,,2017_Sep_18_1736,60.0099510251,MAFE4ImagesEEG,001,201569,
AFNE01.JPG,AFNE01.JPG,AFNE01.JPG,AFNE01.JPG,AFNE01.JPG,AFNE01.JPG,,,,,,,,,,,,,,,,,,,,,0,4,4,8,,,AFNE19.jpg,AFSA10.jpg,AFSA18.jpg,AFNE06.jpg,AFNE06.jpg,FN,3,num_4,16,num_4,1.26673419308,,,2017_Sep_18_1736,60.0099510251,MAFE4ImagesEEG,001,201569,
AFNE01.JPG,AFNE01.JPG,AFNE01.JPG,AFNE01.JPG,AFNE01.JPG,AFNE01.JPG,,,,,,,,,,,,,,,,,,,,,0,5,5,3,,,AFNE20.jpg,AFSA02.jpg,AFSA10.jpg,AFNE18.jpg,AFNE18.jpg,FN,3,num_4,16,num_4,0.650170168374,,,2017_Sep_18_1736,60.0099510251,MAFE4ImagesEEG,001,201569,
AFNE01.JPG,AFNE01.JPG,AFNE01.JPG,AFNE01.JPG,AFNE01.JPG,AFNE01.JPG,,,,,,,,,,,,,,,,,,,,,0,6,6,4,,,AFNE08.jpg,AFNE03.jpg,AFSA20.jpg,AFSA13.jpg,AFSA20.jpg,FS,4,num_2,16,num_2,1.41675569862,,,2017_Sep_18_1736,60.0099510251,MAFE4ImagesEEG,001,201569,
AFNE01.JPG,AFNE01.JPG,AFNE01.JPG,AFNE01.JPG,AFNE01.JPG,AFNE01.JPG,,,,,,,,,,,,,,,,,,,,,0,7,7,5,,,AFNE01.jpg,AFSA15.jpg,AFSA05.jpg,AFNE02.jpg,AFNE01.jpg,FN,3,num_8,32,num_6,1.03342781239,,,2017_Sep_18_1736,60.0099510251,MAFE4ImagesEEG,001,201569,
AFNE01.JPG,AFNE01.JPG,AFNE01.JPG,AFNE01.JPG,AFNE01.JPG,AFNE01.JPG,,,,,,,,,,,,,,,,,,,,,0,8,8,9,,,AFNE03.jpg,AFSA15.jpg,AFSA13.jpg,AFNE18.jpg,AFNE03.jpg,FN,3,num_8,16,num_8,0.950105411001,,,2017_Sep_18_1736,60.0099510251,MAFE4ImagesEEG,001,201569,
AFNE01.JPG,AFNE01.JPG,AFNE01.JPG,AFNE01.JPG,AFNE01.JPG,AFNE01.JPG,,,,,,,,,,,,,,,,,,,,,0,9,9,0,,,AFSA11.jpg,AFNE15.jpg,AFNE06.jpg,AFSA01.jpg,AFSA01.jpg,FS,4,num_4,16,num_4,0.950132032624,,,2017_Sep_18_1736,60.0099510251,MAFE4ImagesEEG,001,201569,
AFNE01.JPG,AFNE01.JPG,AFNE01.JPG,AFNE01.JPG,AFNE01.JPG,AFNE01.JPG,,,,,,,,,,,,,,,,,,,,,1,0,10,1,,,AFNE12.jpg,AFNE10.jpg,AFSA19.jpg,AFSA05.jpg,AFSA19.jpg,FS,4,num_2,32,num_8,0.800129450625,,,2017_Sep_18_1736,60.0099510251,MAFE4ImagesEEG,001,201569,
AFNE01.JPG,AFNE01.JPG,AFNE01.JPG,AFNE01.JPG,AFNE01.JPG,AFNE01.JPG,,,,,,,,,,,,,,,,,,,,,1,1,11,9,,,AFNE07.jpg,AFSA05.jpg,AFNE01.jpg,AFSA16.jpg,AFNE07.jpg,FN,3,num_8,32,num_2,1.15010778443,,,2017_Sep_18_1736,60.0099510251,MAFE4ImagesEEG,001,201569,
AFNE01.JPG,AFNE01.JPG,AFNE01.JPG,AFNE01.JPG,AFNE01.JPG,AFNE01.JPG,,,,,,,,,,,,,,,,,,,,,1,2,12,2,,,AFNE09.jpg,AFSA16.jpg,AFSA11.jpg,AFNE04.jpg,AFSA11.jpg,FS,4,num_2,32,num_4,1.98335906188,,,2017_Sep_18_1736,60.0099510251,MAFE4ImagesEEG,001,201569,
AFNE01.JPG,AFNE01.JPG,AFNE01.JPG,AFNE01.JPG,AFNE01.JPG,AFNE01.JPG,,,,,,,,,,,,,,,,,,,,,1,3,13,3,,,AFSA05.jpg,AFNE06.jpg,AFSA09.jpg,AFNE04.jpg,AFNE06.jpg,FN,3,num_6,32,num_2,1.15012318012,,,2017_Sep_18_1736,60.0099510251,MAFE4ImagesEEG,001,201569,
AFNE01.JPG,AFNE01.JPG,AFNE01.JPG,AFNE01.JPG,AFNE01.JPG,AFNE01.JPG,,,,,,,,,,,,,,,,,,,,,1,4,14,4,,,AFSA07.jpg,AFSA17.jpg,AFNE19.jpg,AFNE07.jpg,AFNE19.jpg,FN,3,num_2,32,num_8,3.14997082879,,,2017_Sep_18_1736,60.0099510251,MAFE4ImagesEEG,001,201569,
AFNE01.JPG,AFNE01.JPG,AFNE01.JPG,AFNE01.JPG,AFNE01.JPG,AFNE01.JPG,,,,,,,,,,,,,,,,,,,,,1,5,15,7,,,AFSA11.jpg,AFNE15.jpg,AFSA18.jpg,AFNE05.jpg,AFNE15.jpg,FN,3,num_6,16,num_6,0.533448179485,,,2017_Sep_18_1736,60.0099510251,MAFE4ImagesEEG,001,201569,
AFNE01.JPG,AFNE01.JPG,AFNE01.JPG,AFNE01.JPG,AFNE01.JPG,AFNE01.JPG,,,,,,,,,,,,,,,,,,,,,1,6,16,0,,,AFSA20.jpg,AFNE08.jpg,AFNE07.jpg,AFSA12.jpg,AFNE08.jpg,FN,3,num_6,16,num_6,1.03345475462,,,2017_Sep_18_1736,60.0099510251,MAFE4ImagesEEG,001,201569,
AFNE01.JPG,AFNE01.JPG,AFNE01.JPG,AFNE01.JPG,AFNE01.JPG,AFNE01.JPG,,,,,,,,,,,,,,,,,,,,,1,7,17,8,,,AFSA20.jpg,AFNE11.jpg,AFSA09.jpg,AFNE20.jpg,AFSA09.jpg,FS,4,num_2,32,num_4,1.30008374504,,,2017_Sep_18_1736,60.0099510251,MAFE4ImagesEEG,001,201569,
AFNE01.JPG,AFNE01.JPG,AFNE01.JPG,AFNE01.JPG,AFNE01.JPG,AFNE01.JPG,,,,,,,,,,,,,,,,,,,,,1,8,18,5,,,AFSA20.jpg,AFNE03.jpg,AFNE08.jpg,AFSA01.jpg,AFSA01.jpg,FS,4,num_4,32,num_8,0.950077827554,,,2017_Sep_18_1736,60.0099510251,MAFE4ImagesEEG,001,201569,
AFNE01.JPG,AFNE01.JPG,AFNE01.JPG,AFNE01.JPG,AFNE01.JPG,AFNE01.JPG,,,,,,,,,,,,,,,,,,,,,1,9,19,6,,,AFSA16.jpg,AFSA20.jpg,AFNE10.jpg,AFNE12.jpg,AFSA16.jpg,FS,4,num_8,32,num_6,1.60004015663,,,2017_Sep_18_1736,60.0099510251,MAFE4ImagesEEG,001,201569,
AFNE01.JPG,AFNE01.JPG,AFNE01.JPG,AFNE01.JPG,AFNE01.JPG,AFNE01.JPG,,,,,,,,,,,,,,,,,,,,,2,0,20,3,,,AFNE03.jpg,AFNE11.jpg,AFSA03.jpg,AFSA18.jpg,AFNE11.jpg,FN,3,num_6,32,num_2,0.983473886736,,,2017_Sep_18_1736,60.0099510251,MAFE4ImagesEEG,001,201569,
AFNE01.JPG,AFNE01.JPG,AFNE01.JPG,AFNE01.JPG,AFNE01.JPG,AFNE01.JPG,,,,,,,,,,,,,,,,,,,,,2,1,21,1,,,AFSA05.jpg,AFSA09.jpg,AFNE17.jpg,AFNE16.jpg,AFNE17.jpg,FN,3,num_2,32,num_6,0.700123131741,,,2017_Sep_18_1736,60.0099510251,MAFE4ImagesEEG,001,201569,
AFNE01.JPG,AFNE01.JPG,AFNE01.JPG,AFNE01.JPG,AFNE01.JPG,AFNE01.JPG,,,,,,,,,,,,,,,,,,,,,2,2,22,5,,,AFNE08.jpg,AFSA19.jpg,AFNE07.jpg,AFSA13.jpg,AFNE07.jpg,FN,3,num_2,32,num_8,1.03342492599,,,2017_Sep_18_1736,60.0099510251,MAFE4ImagesEEG,001,201569,
AFNE01.JPG,AFNE01.JPG,AFNE01.JPG,AFNE01.JPG,AFNE01.JPG,AFNE01.JPG,,,,,,,,,,,,,,,,,,,,,2,3,23,6,,,AFNE08.jpg,AFSA12.jpg,AFSA16.jpg,AFNE18.jpg,AFSA12.jpg,FS,4,num_6,32,num_2,1.11672615865,,,2017_Sep_18_1736,60.0099510251,MAFE4ImagesEEG,001,201569,
AFNE01.JPG,AFNE01.JPG,AFNE01.JPG,AFNE01.JPG,AFNE01.JPG,AFNE01.JPG,,,,,,,,,,,,,,,,,,,,,2,4,24,0,,,AFNE01.jpg,AFNE09.jpg,AFSA04.jpg,AFSA18.jpg,AFNE09.jpg,FN,3,num_6,32,num_2,0.900122618768,,,2017_Sep_18_1736,60.0099510251,MAFE4ImagesEEG,001,201569,
AFNE01.JPG,AFNE01.JPG,AFNE01.JPG,AFNE01.JPG,AFNE01.JPG,AFNE01.JPG,,,,,,,,,,,,,,,,,,,,,2,5,25,4,,,AFSA16.jpg,AFSA02.jpg,AFNE11.jpg,AFNE17.jpg,AFNE17.jpg,FN,3,num_4,32,num_6,0.766794973053,,,2017_Sep_18_1736,60.0099510251,MAFE4ImagesEEG,001,201569,
AFNE01.JPG,AFNE01.JPG,AFNE01.JPG,AFNE01.JPG,AFNE01.JPG,AFNE01.JPG,,,,,,,,,,,,,,,,,,,,,2,6,26,9,,,AFSA17.jpg,AFSA07.jpg,AFNE01.jpg,AFNE18.jpg,AFSA17.jpg,FS,4,num_8,16,num_8,0.616765449056,,,2017_Sep_18_1736,60.0099510251,MAFE4ImagesEEG,001,201569,
AFNE01.JPG,AFNE01.JPG,AFNE01.JPG,AFNE01.JPG,AFNE01.JPG,AFNE01.JPG,,,,,,,,,,,,,,,,,,,,,2,7,27,2,,,AFNE05.jpg,AFSA10.jpg,AFNE10.jpg,AFSA02.jpg,AFNE05.jpg,FN,3,num_8,32,num_4,0.833478040528,,,2017_Sep_18_1736,60.0099510251,MAFE4ImagesEEG,001,201569,
AFNE01.JPG,AFNE01.JPG,AFNE01.JPG,AFNE01.JPG,AFNE01.JPG,AFNE01.JPG,,,,,,,,,,,,,,,,,,,,,2,8,28,7,,,AFSA06.jpg,AFNE06.jpg,AFSA03.jpg,AFNE17.jpg,AFSA06.jpg,FS,4,num_8,32,num_6,0.949999887729,,,2017_Sep_18_1736,60.0099510251,MAFE4ImagesEEG,001,201569,
AFNE01.JPG,AFNE01.JPG,AFNE01.JPG,AFNE01.JPG,AFNE01.JPG,AFNE01.JPG,,,,,,,,,,,,,,,,,,,,,2,9,29,8,,,AFNE05.jpg,AFNE12.jpg,AFSA14.jpg,AFSA06.jpg,AFNE12.jpg,FN,3,num_6,16,num_6,0.816749219783,,,2017_Sep_18_1736,60.0099510251,MAFE4ImagesEEG,001,201569,
AFNE01.JPG,AFNE01.JPG,AFNE01.JPG,AFNE01.JPG,AFNE01.JPG,AFNE01.JPG,,,,,,,,,,,,,,,,,,,,,3,0,30,9,,,AFNE07.jpg,AFSA13.jpg,AFSA09.jpg,AFNE03.jpg,AFSA13.jpg,FS,4,num_6,32,num_2,1.01651007612,,,2017_Sep_18_1736,60.0099510251,MAFE4ImagesEEG,001,201569,
AFNE01.JPG,AFNE01.JPG,AFNE01.JPG,AFNE01.JPG,AFNE01.JPG,AFNE01.JPG,,,,,,,,,,,,,,,,,,,,,3,1,31,3,,,AFSA08.jpg,AFNE06.jpg,AFSA02.jpg,AFNE19.jpg,AFNE19.jpg,FN,3,num_4,32,num_8,1.96670497372,,,2017_Sep_18_1736,60.0099510251,MAFE4ImagesEEG,001,201569,
AFNE01.JPG,AFNE01.JPG,AFNE01.JPG,AFNE01.JPG,AFNE01.JPG,AFNE01.JPG,,,,,,,,,,,,,,,,,,,,,3,2,32,6,,,AFSA18.jpg,AFSA05.jpg,AFNE09.jpg,AFNE18.jpg,AFSA18.jpg,FS,4,num_8,32,num_4,1.06683028676,,,2017_Sep_18_1736,60.0099510251,MAFE4ImagesEEG,001,201569,
AFNE01.JPG,AFNE01.JPG,AFNE01.JPG,AFNE01.JPG,AFNE01.JPG,AFNE01.JPG,,,,,,,,,,,,,,,,,,,,,3,3,33,1,,,AFNE08.jpg,AFSA11.jpg,AFNE17.jpg,AFSA04.jpg,AFSA04.jpg,FS,4,num_4,32,num_8,1.45035606925,,,2017_Sep_18_1736,60.0099510251,MAFE4ImagesEEG,001,201569,
AFNE01.JPG,AFNE01.JPG,AFNE01.JPG,AFNE01.JPG,AFNE01.JPG,AFNE01.JPG,,,,,,,,,,,,,,,,,,,,,3,4,34,0,,,AFNE04.jpg,AFNE14.jpg,AFSA16.jpg,AFSA10.jpg,AFNE04.jpg,FN,3,num_8,32,num_2,1.23345007189,,,2017_Sep_18_1736,60.0099510251,MAFE4ImagesEEG,001,201569,
AFNE01.JPG,AFNE01.JPG,AFNE01.JPG,AFNE01.JPG,AFNE01.JPG,AFNE01.JPG,,,,,,,,,,,,,,,,,,,,,3,5,35,8,,,AFSA18.jpg,AFNE12.jpg,AFSA15.jpg,AFNE07.jpg,AFNE07.jpg,FN,3,num_4,32,num_2,2.5000049714,,,2017_Sep_18_1736,60.0099510251,MAFE4ImagesEEG,001,201569,
AFNE01.JPG,AFNE01.JPG,AFNE01.JPG,AFNE01.JPG,AFNE01.JPG,AFNE01.JPG,,,,,,,,,,,,,,,,,,,,,3,6,36,4,,,AFNE19.jpg,AFSA12.jpg,AFSA15.jpg,AFNE09.jpg,AFSA15.jpg,FS,4,num_2,48,None,,,,2017_Sep_18_1736,60.0099510251,MAFE4ImagesEEG,001,201569,
AFNE01.JPG,AFNE01.JPG,AFNE01.JPG,AFNE01.JPG,AFNE01.JPG,AFNE01.JPG,,,,,,,,,,,,,,,,,,,,,3,7,37,7,,,AFNE13.jpg,AFNE14.jpg,AFSA15.jpg,AFSA04.jpg,AFSA15.jpg,FS,4,num_2,16,num_2,4.31655821926,,,2017_Sep_18_1736,60.0099510251,MAFE4ImagesEEG,001,201569,
AFNE01.JPG,AFNE01.JPG,AFNE01.JPG,AFNE01.JPG,AFNE01.JPG,AFNE01.JPG,,,,,,,,,,,,,,,,,,,,,3,8,38,2,,,AFNE17.jpg,AFSA01.jpg,AFNE04.jpg,AFSA08.jpg,AFNE17.jpg,FN,3,num_8,32,num_2,2.96660522372,,,2017_Sep_18_1736,60.0099510251,MAFE4ImagesEEG,001,201569,
AFNE01.JPG,AFNE01.JPG,AFNE01.JPG,AFNE01.JPG,AFNE01.JPG,AFNE01.JPG,,,,,,,,,,,,,,,,,,,,,3,9,39,5,,,AFNE13.jpg,AFSA20.jpg,AFNE02.jpg,AFSA11.jpg,AFNE13.jpg,FN,3,num_8,32,num_2,1.08354307036,,,2017_Sep_18_1736,60.0099510251,MAFE4ImagesEEG,001,201569,
