IPosition2,IPosition3,IPosition1,IPosition6,IPosition4,IPosition5,TrialsF1.thisRepN,TrialsF1.thisTrialN,TrialsF1.thisN,TrialsF1.thisIndex,TrialsM1.thisRepN,TrialsM1.thisTrialN,TrialsM1.thisN,TrialsM1.thisIndex,TrialsF2.thisRepN,TrialsF2.thisTrialN,TrialsF2.thisN,TrialsF2.thisIndex,TrialsM2.thisRepN,TrialsM2.thisTrialN,TrialsM2.thisN,TrialsM2.thisIndex,TrialsF3.thisRepN,TrialsF3.thisTrialN,TrialsF3.thisN,TrialsF3.thisIndex,TrialsM3.thisRepN,TrialsM3.thisTrialN,TrialsM3.thisN,TrialsM3.thisIndex,InstrKey_resp.keys,InstrKey_resp.rt,Image0 _Position,Image1 _Position,Image2 _Position,Image3 _Position,Center_image,condition,code,correct_answer,accuracy,Key_Resp.keys,Key_Resp.rt,BreakKey_resp.keys,BreakKey_resp.rt,date,frameRate,expName,session,participant,
,,,,,,,,,,,,,,,,,,,,,,,,,,,,,,space,19.6489904879,,,,,,,,,,,,,,2017_Sep_15_1535,59.9883593483,FEMA4ImagesEEG,001,201552,
AFNE23.JPG,AFNE24.JPG,AFNE22.JPG,AFSA24.JPG,AFSA22.JPG,AFSA23.JPG,0,0,0,8,,,,,,,,,,,,,,,,,,,,,,,AFNE16.jpg,AFSA14.jpg,AFSA03.jpg,AFNE04.jpg,AFSA03.jpg,FS,4,num_2,48,None,,,,2017_Sep_15_1535,59.9883593483,FEMA4ImagesEEG,001,201552,
AMSA21.JPG,AMNE22.JPG,AMNE21.JPG,AMSA23.JPG,AMSA22.JPG,AMNE23.JPG,0,1,1,1,,,,,,,,,,,,,,,,,,,,,,,AFNE06.jpg,AFSA19.jpg,AFSA03.jpg,AFNE19.jpg,AFNE06.jpg,FN,3,num_8,16,num_8,1.08343690564,,,2017_Sep_15_1535,59.9883593483,FEMA4ImagesEEG,001,201552,
AMNE23.JPG,AMNE24.JPG,AMNE22.JPG,AMSA24.JPG,AMSA22.JPG,AMSA23.JPG,0,2,2,9,,,,,,,,,,,,,,,,,,,,,,,AFNE08.jpg,AFSA05.jpg,AFSA15.jpg,AFNE19.jpg,AFSA15.jpg,FS,4,num_2,16,num_2,2.51661223173,,,2017_Sep_15_1535,59.9883593483,FEMA4ImagesEEG,001,201552,
AMNE22.JPG,AMSA24.JPG,AMSA22.JPG,AMNE25.JPG,AMNE24.JPG,AMSA25.JPG,0,3,3,7,,,,,,,,,,,,,,,,,,,,,,,AFNE14.jpg,AFSA11.jpg,AFNE07.jpg,AFSA16.jpg,AFSA11.jpg,FS,4,num_6,16,num_6,0.750122282188,,,2017_Sep_15_1535,59.9883593483,FEMA4ImagesEEG,001,201552,
AFSA21.JPG,AFNE23.JPG,AFNE21.JPG,AFSA25.JPG,AFNE25.JPG,AFSA23.JPG,0,4,4,4,,,,,,,,,,,,,,,,,,,,,,,AFSA07.jpg,AFSA15.jpg,AFNE16.jpg,AFNE05.jpg,AFNE05.jpg,FN,3,num_4,32,num_8,0.966434590053,,,2017_Sep_15_1535,59.9883593483,FEMA4ImagesEEG,001,201552,
AFNE22.JPG,AFSA24.JPG,AFSA22.JPG,AFNE25.JPG,AFNE24.JPG,AFSA25.JPG,0,5,5,6,,,,,,,,,,,,,,,,,,,,,,,AFSA04.jpg,AFNE01.jpg,AFSA03.jpg,AFNE07.jpg,AFSA04.jpg,FS,4,num_8,16,num_8,1.40008589416,,,2017_Sep_15_1535,59.9883593483,FEMA4ImagesEEG,001,201552,
AMSA21.JPG,AMNE23.JPG,AMNE21.JPG,AMSA25.JPG,AMNE25.JPG,AMSA23.JPG,0,6,6,5,,,,,,,,,,,,,,,,,,,,,,,AFSA15.jpg,AFNE18.jpg,AFNE13.jpg,AFSA01.jpg,AFNE18.jpg,FN,3,num_6,32,num_8,1.33327421034,,,2017_Sep_15_1535,59.9883593483,FEMA4ImagesEEG,001,201552,
AFSA25.JPG,AFNE24.JPG,AFSA24.JPG,AFNE21.JPG,AFSA21.JPG,AFNE25.JPG,0,7,7,2,,,,,,,,,,,,,,,,,,,,,,,AFNE16.jpg,AFSA13.jpg,AFNE07.jpg,AFSA08.jpg,AFNE16.jpg,FN,3,num_8,32,num_2,1.18343392271,,,2017_Sep_15_1535,59.9883593483,FEMA4ImagesEEG,001,201552,
AMSA25.JPG,AMNE24.JPG,AMSA24.JPG,AMNE26.JPG,AMSA21.JPG,AMNE25.JPG,0,8,8,3,,,,,,,,,,,,,,,,,,,,,,,AFNE04.jpg,AFNE19.jpg,AFSA17.jpg,AFSA11.jpg,AFNE19.jpg,FN,3,num_6,32,num_4,0.916753293248,,,2017_Sep_15_1535,59.9883593483,FEMA4ImagesEEG,001,201552,
AFSA21.JPG,AFNE22.JPG,AFNE21.JPG,AFSA23.JPG,AFSA22.JPG,AFNE23.JPG,0,9,9,0,,,,,,,,,,,,,,,,,,,,,,,AFSA09.jpg,AFNE19.jpg,AFSA07.jpg,AFNE08.jpg,AFNE19.jpg,FN,3,num_6,16,num_6,1.30006963271,,,2017_Sep_15_1535,59.9883593483,FEMA4ImagesEEG,001,201552,
AFNE22.JPG,AFSA24.JPG,AFSA22.JPG,AFNE25.JPG,AFNE24.JPG,AFSA25.JPG,,,,,0,0,0,6,,,,,,,,,,,,,,,,,,,AMSA19.jpg,AMNE14.jpg,AMSA02.jpg,AMNE09.jpg,AMSA19.jpg,MS,2,num_8,32,num_4,1.10015033069,,,2017_Sep_15_1535,59.9883593483,FEMA4ImagesEEG,001,201552,
AFSA21.JPG,AFNE23.JPG,AFNE21.JPG,AFSA25.JPG,AFNE25.JPG,AFSA23.JPG,,,,,0,1,1,4,,,,,,,,,,,,,,,,,,,AMNE08.jpg,AMNE15.jpg,AMSA11.jpg,AMSA16.jpg,AMNE15.jpg,MN,1,num_6,32,num_8,1.6335099861,,,2017_Sep_15_1535,59.9883593483,FEMA4ImagesEEG,001,201552,
AMSA25.JPG,AMNE24.JPG,AMSA24.JPG,AMNE26.JPG,AMSA21.JPG,AMNE25.JPG,,,,,0,2,2,3,,,,,,,,,,,,,,,,,,,AMNE03.jpg,AMSA16.jpg,AMNE20.jpg,AMSA20.jpg,AMSA20.jpg,MS,2,num_4,16,num_4,1.21672766609,,,2017_Sep_15_1535,59.9883593483,FEMA4ImagesEEG,001,201552,
AMNE23.JPG,AMNE24.JPG,AMNE22.JPG,AMSA24.JPG,AMSA22.JPG,AMSA23.JPG,,,,,0,3,3,9,,,,,,,,,,,,,,,,,,,AMNE14.jpg,AMSA08.jpg,AMSA17.jpg,AMNE02.jpg,AMSA08.jpg,MS,2,num_6,32,num_8,1.43346719956,,,2017_Sep_15_1535,59.9883593483,FEMA4ImagesEEG,001,201552,
AMNE22.JPG,AMSA24.JPG,AMSA22.JPG,AMNE25.JPG,AMNE24.JPG,AMSA25.JPG,,,,,0,4,4,7,,,,,,,,,,,,,,,,,,,AMNE18.jpg,AMSA04.jpg,AMSA09.jpg,AMNE10.jpg,AMNE10.jpg,MN,1,num_4,16,num_4,1.35004665144,,,2017_Sep_15_1535,59.9883593483,FEMA4ImagesEEG,001,201552,
AMSA21.JPG,AMNE22.JPG,AMNE21.JPG,AMSA23.JPG,AMSA22.JPG,AMNE23.JPG,,,,,0,5,5,1,,,,,,,,,,,,,,,,,,,AMSA05.jpg,AMNE03.jpg,AMSA12.jpg,AMNE13.jpg,AMNE13.jpg,MN,1,num_4,32,num_8,1.00014561578,,,2017_Sep_15_1535,59.9883593483,FEMA4ImagesEEG,001,201552,
AMSA21.JPG,AMNE23.JPG,AMNE21.JPG,AMSA25.JPG,AMNE25.JPG,AMSA23.JPG,,,,,0,6,6,5,,,,,,,,,,,,,,,,,,,AMNE16.jpg,AMSA04.jpg,AMSA08.jpg,AMNE17.jpg,AMNE16.jpg,MN,1,num_8,32,num_4,0.750132545829,,,2017_Sep_15_1535,59.9883593483,FEMA4ImagesEEG,001,201552,
AFNE23.JPG,AFNE24.JPG,AFNE22.JPG,AFSA24.JPG,AFSA22.JPG,AFSA23.JPG,,,,,0,7,7,8,,,,,,,,,,,,,,,,,,,AMSA03.jpg,AMNE04.jpg,AMNE15.jpg,AMSA16.jpg,AMNE04.jpg,MN,1,num_6,32,num_2,0.916712238453,,,2017_Sep_15_1535,59.9883593483,FEMA4ImagesEEG,001,201552,
AFSA25.JPG,AFNE24.JPG,AFSA24.JPG,AFNE21.JPG,AFSA21.JPG,AFNE25.JPG,,,,,0,8,8,2,,,,,,,,,,,,,,,,,,,AMNE15.jpg,AMNE09.jpg,AMSA11.jpg,AMSA01.jpg,AMSA11.jpg,MS,2,num_2,16,num_2,0.733469156083,,,2017_Sep_15_1535,59.9883593483,FEMA4ImagesEEG,001,201552,
AFSA21.JPG,AFNE22.JPG,AFNE21.JPG,AFSA23.JPG,AFSA22.JPG,AFNE23.JPG,,,,,0,9,9,0,,,,,,,,,,,,,,,,,,,AMSA05.jpg,AMNE18.jpg,AMSA18.jpg,AMNE06.jpg,AMSA18.jpg,MS,2,num_2,32,num_8,1.04995745374,,,2017_Sep_15_1535,59.9883593483,FEMA4ImagesEEG,001,201552,
AFSA25.JPG,AFNE24.JPG,AFSA24.JPG,AFNE21.JPG,AFSA21.JPG,AFNE25.JPG,,,,,,,,,0,0,0,2,,,,,,,,,,,,,,,AFSA13.jpg,AFNE05.jpg,AFSA08.jpg,AFNE20.jpg,AFSA08.jpg,FS,4,num_2,32,num_6,0.566793561913,,,2017_Sep_15_1535,59.9883593483,FEMA4ImagesEEG,001,201552,
AFNE23.JPG,AFNE24.JPG,AFNE22.JPG,AFSA24.JPG,AFSA22.JPG,AFSA23.JPG,,,,,,,,,0,1,1,8,,,,,,,,,,,,,,,AFSA05.jpg,AFNE10.jpg,AFSA10.jpg,AFNE13.jpg,AFNE10.jpg,FN,3,num_6,32,num_2,1.28340271465,,,2017_Sep_15_1535,59.9883593483,FEMA4ImagesEEG,001,201552,
AFNE22.JPG,AFSA24.JPG,AFSA22.JPG,AFNE25.JPG,AFNE24.JPG,AFSA25.JPG,,,,,,,,,0,2,2,6,,,,,,,,,,,,,,,AFSA15.jpg,AFNE05.jpg,AFNE02.jpg,AFSA01.jpg,AFSA15.jpg,FS,4,num_8,32,num_6,0.900104336673,,,2017_Sep_15_1535,59.9883593483,FEMA4ImagesEEG,001,201552,
AMSA21.JPG,AMNE22.JPG,AMNE21.JPG,AMSA23.JPG,AMSA22.JPG,AMNE23.JPG,,,,,,,,,0,3,3,1,,,,,,,,,,,,,,,AFSA03.jpg,AFNE06.jpg,AFNE13.jpg,AFSA17.jpg,AFSA03.jpg,FS,4,num_8,32,num_2,1.03341337922,,,2017_Sep_15_1535,59.9883593483,FEMA4ImagesEEG,001,201552,
AFSA21.JPG,AFNE22.JPG,AFNE21.JPG,AFSA23.JPG,AFSA22.JPG,AFNE23.JPG,,,,,,,,,0,4,4,0,,,,,,,,,,,,,,,AFNE09.jpg,AFSA20.jpg,AFSA12.jpg,AFNE20.jpg,AFSA12.jpg,FS,4,num_2,16,num_2,1.08341477439,,,2017_Sep_15_1535,59.9883593483,FEMA4ImagesEEG,001,201552,
AMNE23.JPG,AMNE24.JPG,AMNE22.JPG,AMSA24.JPG,AMSA22.JPG,AMSA23.JPG,,,,,,,,,0,5,5,9,,,,,,,,,,,,,,,AFNE11.jpg,AFNE12.jpg,AFSA12.jpg,AFSA11.jpg,AFNE12.jpg,FN,3,num_6,16,num_6,0.983346232446,,,2017_Sep_15_1535,59.9883593483,FEMA4ImagesEEG,001,201552,
AMSA25.JPG,AMNE24.JPG,AMSA24.JPG,AMNE26.JPG,AMSA21.JPG,AMNE25.JPG,,,,,,,,,0,6,6,3,,,,,,,,,,,,,,,AFSA17.jpg,AFSA12.jpg,AFNE20.jpg,AFNE09.jpg,AFNE09.jpg,FN,3,num_4,16,num_4,1.16687605623,,,2017_Sep_15_1535,59.9883593483,FEMA4ImagesEEG,001,201552,
AFSA21.JPG,AFNE23.JPG,AFNE21.JPG,AFSA25.JPG,AFNE25.JPG,AFSA23.JPG,,,,,,,,,0,7,7,4,,,,,,,,,,,,,,,AFNE02.jpg,AFNE08.jpg,AFSA03.jpg,AFSA20.jpg,AFNE02.jpg,FN,3,num_8,32,num_4,1.23350299383,,,2017_Sep_15_1535,59.9883593483,FEMA4ImagesEEG,001,201552,
AMNE22.JPG,AMSA24.JPG,AMSA22.JPG,AMNE25.JPG,AMNE24.JPG,AMSA25.JPG,,,,,,,,,0,8,8,7,,,,,,,,,,,,,,,AFNE10.jpg,AFSA10.jpg,AFNE01.jpg,AFSA15.jpg,AFSA15.jpg,FS,4,num_4,32,num_8,1.81706803502,,,2017_Sep_15_1535,59.9883593483,FEMA4ImagesEEG,001,201552,
AMSA21.JPG,AMNE23.JPG,AMNE21.JPG,AMSA25.JPG,AMNE25.JPG,AMSA23.JPG,,,,,,,,,0,9,9,5,,,,,,,,,,,,,,,AFNE09.jpg,AFSA07.jpg,AFSA18.jpg,AFNE16.jpg,AFNE16.jpg,FN,3,num_4,16,num_4,1.96665750421,,,2017_Sep_15_1535,59.9883593483,FEMA4ImagesEEG,001,201552,
AFNE22.JPG,AFSA24.JPG,AFSA22.JPG,AFNE25.JPG,AFNE24.JPG,AFSA25.JPG,,,,,,,,,,,,,0,0,0,6,,,,,,,,,,,AMSA03.jpg,AMNE19.jpg,AMNE10.jpg,AMSA01.jpg,AMNE19.jpg,MN,1,num_6,16,num_6,0.850119940704,,,2017_Sep_15_1535,59.9883593483,FEMA4ImagesEEG,001,201552,
AFNE23.JPG,AFNE24.JPG,AFNE22.JPG,AFSA24.JPG,AFSA22.JPG,AFSA23.JPG,,,,,,,,,,,,,0,1,1,8,,,,,,,,,,,AMSA18.jpg,AMNE10.jpg,AMSA01.jpg,AMNE01.jpg,AMSA18.jpg,MS,2,num_8,32,num_2,1.38351327367,,,2017_Sep_15_1535,59.9883593483,FEMA4ImagesEEG,001,201552,
AMSA25.JPG,AMNE24.JPG,AMSA24.JPG,AMNE26.JPG,AMSA21.JPG,AMNE25.JPG,,,,,,,,,,,,,0,2,2,3,,,,,,,,,,,AMSA12.jpg,AMNE02.jpg,AMSA10.jpg,AMNE10.jpg,AMSA12.jpg,MS,2,num_8,16,num_8,1.1667237049,,,2017_Sep_15_1535,59.9883593483,FEMA4ImagesEEG,001,201552,
AMNE22.JPG,AMSA24.JPG,AMSA22.JPG,AMNE25.JPG,AMNE24.JPG,AMSA25.JPG,,,,,,,,,,,,,0,3,3,7,,,,,,,,,,,AMSA13.jpg,AMNE06.jpg,AMNE14.jpg,AMSA16.jpg,AMNE06.jpg,MN,1,num_6,32,num_4,2.36666096817,,,2017_Sep_15_1535,59.9883593483,FEMA4ImagesEEG,001,201552,
AMNE23.JPG,AMNE24.JPG,AMNE22.JPG,AMSA24.JPG,AMSA22.JPG,AMSA23.JPG,,,,,,,,,,,,,0,4,4,9,,,,,,,,,,,AMNE01.jpg,AMSA17.jpg,AMSA19.jpg,AMNE05.jpg,AMSA19.jpg,MS,2,num_2,32,num_4,0.683428309858,,,2017_Sep_15_1535,59.9883593483,FEMA4ImagesEEG,001,201552,
AMSA21.JPG,AMNE22.JPG,AMNE21.JPG,AMSA23.JPG,AMSA22.JPG,AMNE23.JPG,,,,,,,,,,,,,0,5,5,1,,,,,,,,,,,AMNE18.jpg,AMNE02.jpg,AMSA04.jpg,AMSA20.jpg,AMNE18.jpg,MN,1,num_8,32,num_4,1.11676496803,,,2017_Sep_15_1535,59.9883593483,FEMA4ImagesEEG,001,201552,
AFSA25.JPG,AFNE24.JPG,AFSA24.JPG,AFNE21.JPG,AFSA21.JPG,AFNE25.JPG,,,,,,,,,,,,,0,6,6,2,,,,,,,,,,,AMSA15.jpg,AMNE15.jpg,AMNE09.jpg,AMSA12.jpg,AMNE09.jpg,MN,1,num_2,16,num_2,1.48344069021,,,2017_Sep_15_1535,59.9883593483,FEMA4ImagesEEG,001,201552,
AFSA21.JPG,AFNE22.JPG,AFNE21.JPG,AFSA23.JPG,AFSA22.JPG,AFNE23.JPG,,,,,,,,,,,,,0,7,7,0,,,,,,,,,,,AMSA08.jpg,AMNE16.jpg,AMSA12.jpg,AMNE08.jpg,AMSA12.jpg,MS,2,num_2,16,num_2,1.73345600558,,,2017_Sep_15_1535,59.9883593483,FEMA4ImagesEEG,001,201552,
AMSA21.JPG,AMNE23.JPG,AMNE21.JPG,AMSA25.JPG,AMNE25.JPG,AMSA23.JPG,,,,,,,,,,,,,0,8,8,5,,,,,,,,,,,AMSA18.jpg,AMNE01.jpg,AMSA05.jpg,AMNE19.jpg,AMNE19.jpg,MN,1,num_4,16,num_4,0.533459726255,,,2017_Sep_15_1535,59.9883593483,FEMA4ImagesEEG,001,201552,
AFSA21.JPG,AFNE23.JPG,AFNE21.JPG,AFSA25.JPG,AFNE25.JPG,AFSA23.JPG,,,,,,,,,,,,,0,9,9,4,,,,,,,,,,,AMNE18.jpg,AMSA07.jpg,AMSA03.jpg,AMNE16.jpg,AMSA03.jpg,MS,2,num_2,32,num_6,1.71695234417,,,2017_Sep_15_1535,59.9883593483,FEMA4ImagesEEG,001,201552,
AMNE23.JPG,AMNE24.JPG,AMNE22.JPG,AMSA24.JPG,AMSA22.JPG,AMSA23.JPG,,,,,,,,,,,,,,,,,0,0,0,9,,,,,,,AFSA14.jpg,AFSA05.jpg,AFNE05.jpg,AFNE12.jpg,AFSA05.jpg,FS,4,num_6,32,num_4,1.08340130351,,,2017_Sep_15_1535,59.9883593483,FEMA4ImagesEEG,001,201552,
AFNE22.JPG,AFSA24.JPG,AFSA22.JPG,AFNE25.JPG,AFNE24.JPG,AFSA25.JPG,,,,,,,,,,,,,,,,,0,1,1,6,,,,,,,AFSA16.jpg,AFNE16.jpg,AFSA18.jpg,AFNE18.jpg,AFSA18.jpg,FS,4,num_2,16,num_2,1.06672572554,,,2017_Sep_15_1535,59.9883593483,FEMA4ImagesEEG,001,201552,
AFSA21.JPG,AFNE23.JPG,AFNE21.JPG,AFSA25.JPG,AFNE25.JPG,AFSA23.JPG,,,,,,,,,,,,,,,,,0,2,2,4,,,,,,,AFNE20.jpg,AFSA06.jpg,AFNE04.jpg,AFSA07.jpg,AFSA07.jpg,FS,4,num_4,16,num_4,0.700002533849,,,2017_Sep_15_1535,59.9883593483,FEMA4ImagesEEG,001,201552,
AMSA25.JPG,AMNE24.JPG,AMSA24.JPG,AMNE26.JPG,AMSA21.JPG,AMNE25.JPG,,,,,,,,,,,,,,,,,0,3,3,3,,,,,,,AFNE03.jpg,AFSA15.jpg,AFNE10.jpg,AFSA14.jpg,AFNE03.jpg,FN,3,num_8,32,num_6,1.70001119375,,,2017_Sep_15_1535,59.9883593483,FEMA4ImagesEEG,001,201552,
AMNE22.JPG,AMSA24.JPG,AMSA22.JPG,AMNE25.JPG,AMNE24.JPG,AMSA25.JPG,,,,,,,,,,,,,,,,,0,4,4,7,,,,,,,AFNE15.jpg,AFNE11.jpg,AFSA02.jpg,AFSA17.jpg,AFNE11.jpg,FN,3,num_6,32,num_2,1.08342407597,,,2017_Sep_15_1535,59.9883593483,FEMA4ImagesEEG,001,201552,
AMSA21.JPG,AMNE23.JPG,AMNE21.JPG,AMSA25.JPG,AMNE25.JPG,AMSA23.JPG,,,,,,,,,,,,,,,,,0,5,5,5,,,,,,,AFNE08.jpg,AFSA12.jpg,AFNE04.jpg,AFSA09.jpg,AFNE04.jpg,FN,3,num_2,32,num_6,1.18349774997,,,2017_Sep_15_1535,59.9883593483,FEMA4ImagesEEG,001,201552,
AFNE23.JPG,AFNE24.JPG,AFNE22.JPG,AFSA24.JPG,AFSA22.JPG,AFSA23.JPG,,,,,,,,,,,,,,,,,0,6,6,8,,,,,,,AFSA05.jpg,AFNE07.jpg,AFNE10.jpg,AFSA09.jpg,AFSA09.jpg,FS,4,num_4,32,num_2,1.51668760576,,,2017_Sep_15_1535,59.9883593483,FEMA4ImagesEEG,001,201552,
AFSA21.JPG,AFNE22.JPG,AFNE21.JPG,AFSA23.JPG,AFSA22.JPG,AFNE23.JPG,,,,,,,,,,,,,,,,,0,7,7,0,,,,,,,AFNE16.jpg,AFSA09.jpg,AFSA07.jpg,AFNE20.jpg,AFSA09.jpg,FS,4,num_6,16,num_6,0.883610938909,,,2017_Sep_15_1535,59.9883593483,FEMA4ImagesEEG,001,201552,
AMSA21.JPG,AMNE22.JPG,AMNE21.JPG,AMSA23.JPG,AMSA22.JPG,AMNE23.JPG,,,,,,,,,,,,,,,,,0,8,8,1,,,,,,,AFSA20.jpg,AFNE12.jpg,AFSA18.jpg,AFNE04.jpg,AFNE12.jpg,FN,3,num_6,16,num_6,0.850147844991,,,2017_Sep_15_1535,59.9883593483,FEMA4ImagesEEG,001,201552,
AFSA25.JPG,AFNE24.JPG,AFSA24.JPG,AFNE21.JPG,AFSA21.JPG,AFNE25.JPG,,,,,,,,,,,,,,,,,0,9,9,2,,,,,,,AFSA01.jpg,AFSA11.jpg,AFNE02.jpg,AFNE09.jpg,AFSA11.jpg,FS,4,num_6,32,num_8,2.11664661509,,,2017_Sep_15_1535,59.9883593483,FEMA4ImagesEEG,001,201552,
AMSA21.JPG,AMNE22.JPG,AMNE21.JPG,AMSA23.JPG,AMSA22.JPG,AMNE23.JPG,,,,,,,,,,,,,,,,,,,,,0,0,0,1,,,AMSA11.jpg,AMNE12.jpg,AMSA05.jpg,AMNE03.jpg,AMSA11.jpg,MS,2,num_8,32,num_2,0.866804499179,,,2017_Sep_15_1535,59.9883593483,FEMA4ImagesEEG,001,201552,
AFSA21.JPG,AFNE23.JPG,AFNE21.JPG,AFSA25.JPG,AFNE25.JPG,AFSA23.JPG,,,,,,,,,,,,,,,,,,,,,0,1,1,4,,,AMSA09.jpg,AMNE11.jpg,AMSA03.jpg,AMNE17.jpg,AMNE17.jpg,MN,1,num_4,32,num_8,1.03349388484,,,2017_Sep_15_1535,59.9883593483,FEMA4ImagesEEG,001,201552,
AMSA21.JPG,AMNE23.JPG,AMNE21.JPG,AMSA25.JPG,AMNE25.JPG,AMSA23.JPG,,,,,,,,,,,,,,,,,,,,,0,2,2,5,,,AMNE08.jpg,AMSA06.jpg,AMSA10.jpg,AMNE05.jpg,AMNE08.jpg,MN,1,num_8,32,num_6,1.18346695881,,,2017_Sep_15_1535,59.9883593483,FEMA4ImagesEEG,001,201552,
AMSA25.JPG,AMNE24.JPG,AMSA24.JPG,AMNE26.JPG,AMSA21.JPG,AMNE25.JPG,,,,,,,,,,,,,,,,,,,,,0,3,3,3,,,AMNE15.jpg,AMSA01.jpg,AMNE08.jpg,AMSA04.jpg,AMNE08.jpg,MN,1,num_2,16,num_2,1.21663080272,,,2017_Sep_15_1535,59.9883593483,FEMA4ImagesEEG,001,201552,
AFNE23.JPG,AFNE24.JPG,AFNE22.JPG,AFSA24.JPG,AFSA22.JPG,AFSA23.JPG,,,,,,,,,,,,,,,,,,,,,0,4,4,8,,,AMNE05.jpg,AMSA10.jpg,AMNE12.jpg,AMSA01.jpg,AMNE12.jpg,MN,1,num_2,32,num_4,2.33332681167,,,2017_Sep_15_1535,59.9883593483,FEMA4ImagesEEG,001,201552,
AMNE22.JPG,AMSA24.JPG,AMSA22.JPG,AMNE25.JPG,AMNE24.JPG,AMSA25.JPG,,,,,,,,,,,,,,,,,,,,,0,5,5,7,,,AMSA17.jpg,AMSA20.jpg,AMNE20.jpg,AMNE04.jpg,AMSA20.jpg,MS,2,num_6,32,num_8,0.750153714558,,,2017_Sep_15_1535,59.9883593483,FEMA4ImagesEEG,001,201552,
AMNE23.JPG,AMNE24.JPG,AMNE22.JPG,AMSA24.JPG,AMSA22.JPG,AMSA23.JPG,,,,,,,,,,,,,,,,,,,,,0,6,6,9,,,AMNE20.jpg,AMSA12.jpg,AMNE10.jpg,AMSA19.jpg,AMNE10.jpg,MN,1,num_2,32,num_6,1.08339360566,,,2017_Sep_15_1535,59.9883593483,FEMA4ImagesEEG,001,201552,
AFNE22.JPG,AFSA24.JPG,AFSA22.JPG,AFNE25.JPG,AFNE24.JPG,AFSA25.JPG,,,,,,,,,,,,,,,,,,,,,0,7,7,6,,,AMNE12.jpg,AMNE08.jpg,AMSA12.jpg,AMSA11.jpg,AMNE12.jpg,MN,1,num_8,16,num_8,1.18341147085,,,2017_Sep_15_1535,59.9883593483,FEMA4ImagesEEG,001,201552,
AFSA21.JPG,AFNE22.JPG,AFNE21.JPG,AFSA23.JPG,AFSA22.JPG,AFNE23.JPG,,,,,,,,,,,,,,,,,,,,,0,8,8,0,,,AMNE16.jpg,AMSA10.jpg,AMSA16.jpg,AMNE11.jpg,AMNE11.jpg,MN,1,num_4,32,num_2,3.04981536604,,,2017_Sep_15_1535,59.9883593483,FEMA4ImagesEEG,001,201552,
AFSA25.JPG,AFNE24.JPG,AFSA24.JPG,AFNE21.JPG,AFSA21.JPG,AFNE25.JPG,,,,,,,,,,,,,,,,,,,,,0,9,9,2,,,AMSA17.jpg,AMSA11.jpg,AMNE06.jpg,AMNE09.jpg,AMNE06.jpg,MN,1,num_2,32,num_4,0.866668184754,,,2017_Sep_15_1535,59.9883593483,FEMA4ImagesEEG,001,201552,
,,,,,,,,,,,,,,,,,,,,,,,,,,,,,,,,,,,,,,,,,,,space,11.2828584195,2017_Sep_15_1535,59.9883593483,FEMA4ImagesEEG,001,201552,
AFNE01.JPG,AFNE01.JPG,AFNE01.JPG,AFNE01.JPG,AFNE01.JPG,AFNE01.JPG,0,0,0,9,,,,,,,,,,,,,,,,,,,,,,,AFNE18.jpg,AFNE10.jpg,AFSA15.jpg,AFSA08.jpg,AFSA15.jpg,FS,4,num_2,32,num_8,1.66670237575,,,2017_Sep_15_1535,59.9883593483,FEMA4ImagesEEG,001,201552,
AFNE01.JPG,AFNE01.JPG,AFNE01.JPG,AFNE01.JPG,AFNE01.JPG,AFNE01.JPG,0,1,1,7,,,,,,,,,,,,,,,,,,,,,,,AFSA05.jpg,AFSA07.jpg,AFNE11.jpg,AFNE07.jpg,AFSA05.jpg,FS,4,num_8,16,num_8,1.43344506854,,,2017_Sep_15_1535,59.9883593483,FEMA4ImagesEEG,001,201552,
AFNE01.JPG,AFNE01.JPG,AFNE01.JPG,AFNE01.JPG,AFNE01.JPG,AFNE01.JPG,0,2,2,2,,,,,,,,,,,,,,,,,,,,,,,AFNE13.jpg,AFNE02.jpg,AFSA20.jpg,AFSA12.jpg,AFNE02.jpg,FN,3,num_6,32,num_2,0.833317670505,,,2017_Sep_15_1535,59.9883593483,FEMA4ImagesEEG,001,201552,
AFNE01.JPG,AFNE01.JPG,AFNE01.JPG,AFNE01.JPG,AFNE01.JPG,AFNE01.JPG,0,3,3,0,,,,,,,,,,,,,,,,,,,,,,,AFNE20.jpg,AFSA06.jpg,AFSA16.jpg,AFNE04.jpg,AFNE20.jpg,FN,3,num_8,32,num_4,2.29994005361,,,2017_Sep_15_1535,59.9883593483,FEMA4ImagesEEG,001,201552,
AFNE01.JPG,AFNE01.JPG,AFNE01.JPG,AFNE01.JPG,AFNE01.JPG,AFNE01.JPG,0,4,4,6,,,,,,,,,,,,,,,,,,,,,,,AFSA01.jpg,AFNE02.jpg,AFSA02.jpg,AFNE10.jpg,AFSA01.jpg,FS,4,num_8,16,num_8,0.750126130879,,,2017_Sep_15_1535,59.9883593483,FEMA4ImagesEEG,001,201552,
AFNE01.JPG,AFNE01.JPG,AFNE01.JPG,AFNE01.JPG,AFNE01.JPG,AFNE01.JPG,0,5,5,1,,,,,,,,,,,,,,,,,,,,,,,AFSA15.jpg,AFNE14.jpg,AFNE12.jpg,AFSA19.jpg,AFNE14.jpg,FN,3,num_6,32,num_8,1.15009848308,,,2017_Sep_15_1535,59.9883593483,FEMA4ImagesEEG,001,201552,
AFNE01.JPG,AFNE01.JPG,AFNE01.JPG,AFNE01.JPG,AFNE01.JPG,AFNE01.JPG,0,6,6,4,,,,,,,,,,,,,,,,,,,,,,,AFNE15.jpg,AFSA04.jpg,AFNE16.jpg,AFSA13.jpg,AFNE16.jpg,FN,3,num_2,32,num_6,1.56669669854,,,2017_Sep_15_1535,59.9883593483,FEMA4ImagesEEG,001,201552,
AFNE01.JPG,AFNE01.JPG,AFNE01.JPG,AFNE01.JPG,AFNE01.JPG,AFNE01.JPG,0,7,7,3,,,,,,,,,,,,,,,,,,,,,,,AFSA12.jpg,AFNE09.jpg,AFNE19.jpg,AFSA07.jpg,AFNE19.jpg,FN,3,num_2,32,num_4,0.966813383624,,,2017_Sep_15_1535,59.9883593483,FEMA4ImagesEEG,001,201552,
AFNE01.JPG,AFNE01.JPG,AFNE01.JPG,AFNE01.JPG,AFNE01.JPG,AFNE01.JPG,0,8,8,5,,,,,,,,,,,,,,,,,,,,,,,AFSA12.jpg,AFNE13.jpg,AFNE14.jpg,AFSA09.jpg,AFNE14.jpg,FN,3,num_2,16,num_2,1.05015150155,,,2017_Sep_15_1535,59.9883593483,FEMA4ImagesEEG,001,201552,
AFNE01.JPG,AFNE01.JPG,AFNE01.JPG,AFNE01.JPG,AFNE01.JPG,AFNE01.JPG,0,9,9,8,,,,,,,,,,,,,,,,,,,,,,,AFSA07.jpg,AFNE14.jpg,AFNE04.jpg,AFSA12.jpg,AFSA07.jpg,FS,4,num_8,32,num_6,1.0334422458,,,2017_Sep_15_1535,59.9883593483,FEMA4ImagesEEG,001,201552,
AFNE01.JPG,AFNE01.JPG,AFNE01.JPG,AFNE01.JPG,AFNE01.JPG,AFNE01.JPG,1,0,10,5,,,,,,,,,,,,,,,,,,,,,,,AFNE10.jpg,AFSA01.jpg,AFNE02.jpg,AFSA04.jpg,AFSA01.jpg,FS,4,num_6,32,num_8,1.83333659405,,,2017_Sep_15_1535,59.9883593483,FEMA4ImagesEEG,001,201552,
AFNE01.JPG,AFNE01.JPG,AFNE01.JPG,AFNE01.JPG,AFNE01.JPG,AFNE01.JPG,1,1,11,0,,,,,,,,,,,,,,,,,,,,,,,AFNE19.jpg,AFSA15.jpg,AFSA13.jpg,AFNE06.jpg,AFSA13.jpg,FS,4,num_2,32,num_4,0.750147941289,,,2017_Sep_15_1535,59.9883593483,FEMA4ImagesEEG,001,201552,
AFNE01.JPG,AFNE01.JPG,AFNE01.JPG,AFNE01.JPG,AFNE01.JPG,AFNE01.JPG,1,2,12,8,,,,,,,,,,,,,,,,,,,,,,,AFNE03.jpg,AFSA19.jpg,AFNE04.jpg,AFSA20.jpg,AFSA19.jpg,FS,4,num_6,32,num_8,1.45011262782,,,2017_Sep_15_1535,59.9883593483,FEMA4ImagesEEG,001,201552,
AFNE01.JPG,AFNE01.JPG,AFNE01.JPG,AFNE01.JPG,AFNE01.JPG,AFNE01.JPG,1,3,13,6,,,,,,,,,,,,,,,,,,,,,,,AFNE07.jpg,AFNE14.jpg,AFSA08.jpg,AFSA03.jpg,AFNE14.jpg,FN,3,num_6,16,num_6,2.2000152031,,,2017_Sep_15_1535,59.9883593483,FEMA4ImagesEEG,001,201552,
AFNE01.JPG,AFNE01.JPG,AFNE01.JPG,AFNE01.JPG,AFNE01.JPG,AFNE01.JPG,1,4,14,9,,,,,,,,,,,,,,,,,,,,,,,AFSA13.jpg,AFNE13.jpg,AFNE04.jpg,AFSA20.jpg,AFSA13.jpg,FS,4,num_8,16,num_8,1.26674990938,,,2017_Sep_15_1535,59.9883593483,FEMA4ImagesEEG,001,201552,
AFNE01.JPG,AFNE01.JPG,AFNE01.JPG,AFNE01.JPG,AFNE01.JPG,AFNE01.JPG,1,5,15,3,,,,,,,,,,,,,,,,,,,,,,,AFSA12.jpg,AFSA04.jpg,AFNE02.jpg,AFNE19.jpg,AFSA12.jpg,FS,4,num_8,32,num_4,0.800109243952,,,2017_Sep_15_1535,59.9883593483,FEMA4ImagesEEG,001,201552,
AFNE01.JPG,AFNE01.JPG,AFNE01.JPG,AFNE01.JPG,AFNE01.JPG,AFNE01.JPG,1,6,16,4,,,,,,,,,,,,,,,,,,,,,,,AFSA03.jpg,AFNE14.jpg,AFNE19.jpg,AFSA12.jpg,AFSA03.jpg,FS,4,num_8,32,num_6,1.15007057879,,,2017_Sep_15_1535,59.9883593483,FEMA4ImagesEEG,001,201552,
AFNE01.JPG,AFNE01.JPG,AFNE01.JPG,AFNE01.JPG,AFNE01.JPG,AFNE01.JPG,1,7,17,7,,,,,,,,,,,,,,,,,,,,,,,AFNE19.jpg,AFNE05.jpg,AFSA01.jpg,AFSA17.jpg,AFSA17.jpg,FS,4,num_4,16,num_4,1.15009559644,,,2017_Sep_15_1535,59.9883593483,FEMA4ImagesEEG,001,201552,
AFNE01.JPG,AFNE01.JPG,AFNE01.JPG,AFNE01.JPG,AFNE01.JPG,AFNE01.JPG,1,8,18,2,,,,,,,,,,,,,,,,,,,,,,,AFSA06.jpg,AFNE14.jpg,AFNE05.jpg,AFSA19.jpg,AFSA06.jpg,FS,4,num_8,16,num_8,1.00036532269,,,2017_Sep_15_1535,59.9883593483,FEMA4ImagesEEG,001,201552,
AFNE01.JPG,AFNE01.JPG,AFNE01.JPG,AFNE01.JPG,AFNE01.JPG,AFNE01.JPG,1,9,19,1,,,,,,,,,,,,,,,,,,,,,,,AFSA13.jpg,AFSA05.jpg,AFNE12.jpg,AFNE06.jpg,AFSA13.jpg,FS,4,num_8,32,num_6,1.36672126735,,,2017_Sep_15_1535,59.9883593483,FEMA4ImagesEEG,001,201552,
AFNE01.JPG,AFNE01.JPG,AFNE01.JPG,AFNE01.JPG,AFNE01.JPG,AFNE01.JPG,2,0,20,3,,,,,,,,,,,,,,,,,,,,,,,AFNE01.jpg,AFSA14.jpg,AFNE20.jpg,AFSA20.jpg,AFNE20.jpg,FN,3,num_2,16,num_2,2.20006491779,,,2017_Sep_15_1535,59.9883593483,FEMA4ImagesEEG,001,201552,
AFNE01.JPG,AFNE01.JPG,AFNE01.JPG,AFNE01.JPG,AFNE01.JPG,AFNE01.JPG,2,1,21,0,,,,,,,,,,,,,,,,,,,,,,,AFSA02.jpg,AFNE13.jpg,AFNE17.jpg,AFSA14.jpg,AFNE17.jpg,FN,3,num_2,32,num_4,2.54998134892,,,2017_Sep_15_1535,59.9883593483,FEMA4ImagesEEG,001,201552,
AFNE01.JPG,AFNE01.JPG,AFNE01.JPG,AFNE01.JPG,AFNE01.JPG,AFNE01.JPG,2,2,22,7,,,,,,,,,,,,,,,,,,,,,,,AFSA06.jpg,AFNE10.jpg,AFNE15.jpg,AFSA19.jpg,AFNE10.jpg,FN,3,num_6,32,num_2,0.950161861256,,,2017_Sep_15_1535,59.9883593483,FEMA4ImagesEEG,001,201552,
AFNE01.JPG,AFNE01.JPG,AFNE01.JPG,AFNE01.JPG,AFNE01.JPG,AFNE01.JPG,2,3,23,2,,,,,,,,,,,,,,,,,,,,,,,AFSA17.jpg,AFSA09.jpg,AFNE19.jpg,AFNE10.jpg,AFNE19.jpg,FN,3,num_2,16,num_2,1.31682154653,,,2017_Sep_15_1535,59.9883593483,FEMA4ImagesEEG,001,201552,
AFNE01.JPG,AFNE01.JPG,AFNE01.JPG,AFNE01.JPG,AFNE01.JPG,AFNE01.JPG,2,4,24,5,,,,,,,,,,,,,,,,,,,,,,,AFNE01.jpg,AFNE16.jpg,AFSA10.jpg,AFSA03.jpg,AFNE01.jpg,FN,3,num_8,32,num_6,1.53337537171,,,2017_Sep_15_1535,59.9883593483,FEMA4ImagesEEG,001,201552,
AFNE01.JPG,AFNE01.JPG,AFNE01.JPG,AFNE01.JPG,AFNE01.JPG,AFNE01.JPG,2,5,25,9,,,,,,,,,,,,,,,,,,,,,,,AFNE15.jpg,AFSA14.jpg,AFNE09.jpg,AFSA18.jpg,AFSA18.jpg,FS,4,num_4,16,num_4,1.13316503051,,,2017_Sep_15_1535,59.9883593483,FEMA4ImagesEEG,001,201552,
AFNE01.JPG,AFNE01.JPG,AFNE01.JPG,AFNE01.JPG,AFNE01.JPG,AFNE01.JPG,2,6,26,4,,,,,,,,,,,,,,,,,,,,,,,AFSA13.jpg,AFNE11.jpg,AFSA12.jpg,AFNE17.jpg,AFSA13.jpg,FS,4,num_8,16,num_8,1.66674856213,,,2017_Sep_15_1535,59.9883593483,FEMA4ImagesEEG,001,201552,
AFNE01.JPG,AFNE01.JPG,AFNE01.JPG,AFNE01.JPG,AFNE01.JPG,AFNE01.JPG,2,7,27,6,,,,,,,,,,,,,,,,,,,,,,,AFSA04.jpg,AFNE04.jpg,AFNE11.jpg,AFSA17.jpg,AFSA17.jpg,FS,4,num_4,16,num_4,0.86678365129,,,2017_Sep_15_1535,59.9883593483,FEMA4ImagesEEG,001,201552,
AFNE01.JPG,AFNE01.JPG,AFNE01.JPG,AFNE01.JPG,AFNE01.JPG,AFNE01.JPG,2,8,28,8,,,,,,,,,,,,,,,,,,,,,,,AFSA11.jpg,AFNE15.jpg,AFSA14.jpg,AFNE08.jpg,AFNE08.jpg,FN,3,num_4,32,num_6,2.78315045289,,,2017_Sep_15_1535,59.9883593483,FEMA4ImagesEEG,001,201552,
AFNE01.JPG,AFNE01.JPG,AFNE01.JPG,AFNE01.JPG,AFNE01.JPG,AFNE01.JPG,2,9,29,1,,,,,,,,,,,,,,,,,,,,,,,AFSA13.jpg,AFNE15.jpg,AFNE20.jpg,AFSA16.jpg,AFNE20.jpg,FN,3,num_2,32,num_4,1.71671692119,,,2017_Sep_15_1535,59.9883593483,FEMA4ImagesEEG,001,201552,
AFNE01.JPG,AFNE01.JPG,AFNE01.JPG,AFNE01.JPG,AFNE01.JPG,AFNE01.JPG,3,0,30,8,,,,,,,,,,,,,,,,,,,,,,,AFNE20.jpg,AFNE16.jpg,AFSA07.jpg,AFSA19.jpg,AFNE20.jpg,FN,3,num_8,32,num_4,1.26672072196,,,2017_Sep_15_1535,59.9883593483,FEMA4ImagesEEG,001,201552,
AFNE01.JPG,AFNE01.JPG,AFNE01.JPG,AFNE01.JPG,AFNE01.JPG,AFNE01.JPG,3,1,31,9,,,,,,,,,,,,,,,,,,,,,,,AFNE06.jpg,AFSA10.jpg,AFSA18.jpg,AFNE05.jpg,AFSA10.jpg,FS,4,num_6,32,num_4,1.50006815721,,,2017_Sep_15_1535,59.9883593483,FEMA4ImagesEEG,001,201552,
AFNE01.JPG,AFNE01.JPG,AFNE01.JPG,AFNE01.JPG,AFNE01.JPG,AFNE01.JPG,3,2,32,1,,,,,,,,,,,,,,,,,,,,,,,AFSA19.jpg,AFNE07.jpg,AFNE06.jpg,AFSA15.jpg,AFNE06.jpg,FN,3,num_2,16,num_2,0.816767822485,,,2017_Sep_15_1535,59.9883593483,FEMA4ImagesEEG,001,201552,
AFNE01.JPG,AFNE01.JPG,AFNE01.JPG,AFNE01.JPG,AFNE01.JPG,AFNE01.JPG,3,3,33,6,,,,,,,,,,,,,,,,,,,,,,,AFNE07.jpg,AFSA15.jpg,AFNE20.jpg,AFSA06.jpg,AFNE20.jpg,FN,3,num_2,16,num_2,1.10010542697,,,2017_Sep_15_1535,59.9883593483,FEMA4ImagesEEG,001,201552,
AFNE01.JPG,AFNE01.JPG,AFNE01.JPG,AFNE01.JPG,AFNE01.JPG,AFNE01.JPG,3,4,34,4,,,,,,,,,,,,,,,,,,,,,,,AFNE13.jpg,AFSA16.jpg,AFNE17.jpg,AFSA04.jpg,AFNE13.jpg,FN,3,num_8,32,num_6,1.36671324866,,,2017_Sep_15_1535,59.9883593483,FEMA4ImagesEEG,001,201552,
AFNE01.JPG,AFNE01.JPG,AFNE01.JPG,AFNE01.JPG,AFNE01.JPG,AFNE01.JPG,3,5,35,7,,,,,,,,,,,,,,,,,,,,,,,AFNE14.jpg,AFSA17.jpg,AFSA01.jpg,AFNE08.jpg,AFNE14.jpg,FN,3,num_8,32,num_4,0.816475308035,,,2017_Sep_15_1535,59.9883593483,FEMA4ImagesEEG,001,201552,
AFNE01.JPG,AFNE01.JPG,AFNE01.JPG,AFNE01.JPG,AFNE01.JPG,AFNE01.JPG,3,6,36,2,,,,,,,,,,,,,,,,,,,,,,,AFNE06.jpg,AFSA02.jpg,AFSA19.jpg,AFNE03.jpg,AFSA02.jpg,FS,4,num_6,16,num_6,0.916805253131,,,2017_Sep_15_1535,59.9883593483,FEMA4ImagesEEG,001,201552,
AFNE01.JPG,AFNE01.JPG,AFNE01.JPG,AFNE01.JPG,AFNE01.JPG,AFNE01.JPG,3,7,37,3,,,,,,,,,,,,,,,,,,,,,,,AFNE14.jpg,AFSA11.jpg,AFNE13.jpg,AFSA04.jpg,AFSA11.jpg,FS,4,num_6,16,num_6,0.500133908819,,,2017_Sep_15_1535,59.9883593483,FEMA4ImagesEEG,001,201552,
AFNE01.JPG,AFNE01.JPG,AFNE01.JPG,AFNE01.JPG,AFNE01.JPG,AFNE01.JPG,3,8,38,5,,,,,,,,,,,,,,,,,,,,,,,AFNE09.jpg,AFNE03.jpg,AFSA02.jpg,AFSA12.jpg,AFSA12.jpg,FS,4,num_4,16,num_4,1.54993869062,,,2017_Sep_15_1535,59.9883593483,FEMA4ImagesEEG,001,201552,
AFNE01.JPG,AFNE01.JPG,AFNE01.JPG,AFNE01.JPG,AFNE01.JPG,AFNE01.JPG,3,9,39,0,,,,,,,,,,,,,,,,,,,,,,,AFNE16.jpg,AFNE14.jpg,AFSA10.jpg,AFSA03.jpg,AFNE16.jpg,FN,3,num_8,32,num_4,4.23317551869,,,2017_Sep_15_1535,59.9883593483,FEMA4ImagesEEG,001,201552,
AFNE01.JPG,AFNE01.JPG,AFNE01.JPG,AFNE01.JPG,AFNE01.JPG,AFNE01.JPG,4,0,40,5,,,,,,,,,,,,,,,,,,,,,,,AFNE05.jpg,AFNE02.jpg,AFSA16.jpg,AFSA19.jpg,AFNE02.jpg,FN,3,num_6,32,num_4,1.63359081256,,,2017_Sep_15_1535,59.9883593483,FEMA4ImagesEEG,001,201552,
AFNE01.JPG,AFNE01.JPG,AFNE01.JPG,AFNE01.JPG,AFNE01.JPG,AFNE01.JPG,4,1,41,2,,,,,,,,,,,,,,,,,,,,,,,AFSA09.jpg,AFNE13.jpg,AFNE04.jpg,AFSA12.jpg,AFNE13.jpg,FN,3,num_6,32,num_8,2.56663543731,,,2017_Sep_15_1535,59.9883593483,FEMA4ImagesEEG,001,201552,
AFNE01.JPG,AFNE01.JPG,AFNE01.JPG,AFNE01.JPG,AFNE01.JPG,AFNE01.JPG,4,2,42,1,,,,,,,,,,,,,,,,,,,,,,,AFSA04.jpg,AFNE07.jpg,AFSA02.jpg,AFNE11.jpg,AFNE07.jpg,FN,3,num_6,32,num_2,0.850249519572,,,2017_Sep_15_1535,59.9883593483,FEMA4ImagesEEG,001,201552,
AFNE01.JPG,AFNE01.JPG,AFNE01.JPG,AFNE01.JPG,AFNE01.JPG,AFNE01.JPG,4,3,43,7,,,,,,,,,,,,,,,,,,,,,,,AFNE02.jpg,AFNE09.jpg,AFSA16.jpg,AFSA17.jpg,AFNE02.jpg,FN,3,num_8,32,num_4,1.18341050879,,,2017_Sep_15_1535,59.9883593483,FEMA4ImagesEEG,001,201552,
AFNE01.JPG,AFNE01.JPG,AFNE01.JPG,AFNE01.JPG,AFNE01.JPG,AFNE01.JPG,4,4,44,8,,,,,,,,,,,,,,,,,,,,,,,AFSA17.jpg,AFNE13.jpg,AFNE16.jpg,AFSA10.jpg,AFNE16.jpg,FN,3,num_2,32,num_6,0.933525734348,,,2017_Sep_15_1535,59.9883593483,FEMA4ImagesEEG,001,201552,
AFNE01.JPG,AFNE01.JPG,AFNE01.JPG,AFNE01.JPG,AFNE01.JPG,AFNE01.JPG,4,5,45,6,,,,,,,,,,,,,,,,,,,,,,,AFNE20.jpg,AFSA02.jpg,AFSA12.jpg,AFNE02.jpg,AFSA02.jpg,FS,4,num_6,32,num_4,1.21645215061,,,2017_Sep_15_1535,59.9883593483,FEMA4ImagesEEG,001,201552,
AFNE01.JPG,AFNE01.JPG,AFNE01.JPG,AFNE01.JPG,AFNE01.JPG,AFNE01.JPG,4,6,46,4,,,,,,,,,,,,,,,,,,,,,,,AFSA08.jpg,AFNE09.jpg,AFNE14.jpg,AFSA19.jpg,AFSA19.jpg,FS,4,num_4,32,num_8,1.15008020098,,,2017_Sep_15_1535,59.9883593483,FEMA4ImagesEEG,001,201552,
AFNE01.JPG,AFNE01.JPG,AFNE01.JPG,AFNE01.JPG,AFNE01.JPG,AFNE01.JPG,4,7,47,9,,,,,,,,,,,,,,,,,,,,,,,AFNE08.jpg,AFSA17.jpg,AFSA14.jpg,AFNE02.jpg,AFSA17.jpg,FS,4,num_6,32,num_2,0.983407173073,,,2017_Sep_15_1535,59.9883593483,FEMA4ImagesEEG,001,201552,
AFNE01.JPG,AFNE01.JPG,AFNE01.JPG,AFNE01.JPG,AFNE01.JPG,AFNE01.JPG,4,8,48,3,,,,,,,,,,,,,,,,,,,,,,,AFSA12.jpg,AFSA06.jpg,AFNE12.jpg,AFNE07.jpg,AFSA06.jpg,FS,4,num_6,16,num_6,0.867009772453,,,2017_Sep_15_1535,59.9883593483,FEMA4ImagesEEG,001,201552,
AFNE01.JPG,AFNE01.JPG,AFNE01.JPG,AFNE01.JPG,AFNE01.JPG,AFNE01.JPG,4,9,49,0,,,,,,,,,,,,,,,,,,,,,,,AFNE13.jpg,AFSA13.jpg,AFNE10.jpg,AFSA17.jpg,AFNE10.jpg,FN,3,num_2,32,num_4,1.18342237617,,,2017_Sep_15_1535,59.9883593483,FEMA4ImagesEEG,001,201552,
AFNE01.JPG,AFNE01.JPG,AFNE01.JPG,AFNE01.JPG,AFNE01.JPG,AFNE01.JPG,5,0,50,3,,,,,,,,,,,,,,,,,,,,,,,AFNE18.jpg,AFSA19.jpg,AFSA07.jpg,AFNE17.jpg,AFSA07.jpg,FS,4,num_2,16,num_2,1.06668370869,,,2017_Sep_15_1535,59.9883593483,FEMA4ImagesEEG,001,201552,
AFNE01.JPG,AFNE01.JPG,AFNE01.JPG,AFNE01.JPG,AFNE01.JPG,AFNE01.JPG,5,1,51,6,,,,,,,,,,,,,,,,,,,,,,,AFNE07.jpg,AFNE03.jpg,AFSA10.jpg,AFSA05.jpg,AFSA10.jpg,FS,4,num_2,16,num_2,0.950123372488,,,2017_Sep_15_1535,59.9883593483,FEMA4ImagesEEG,001,201552,
AFNE01.JPG,AFNE01.JPG,AFNE01.JPG,AFNE01.JPG,AFNE01.JPG,AFNE01.JPG,5,2,52,9,,,,,,,,,,,,,,,,,,,,,,,AFNE18.jpg,AFNE08.jpg,AFSA13.jpg,AFSA18.jpg,AFNE08.jpg,FN,3,num_6,32,num_4,0.800101225497,,,2017_Sep_15_1535,59.9883593483,FEMA4ImagesEEG,001,201552,
AFNE01.JPG,AFNE01.JPG,AFNE01.JPG,AFNE01.JPG,AFNE01.JPG,AFNE01.JPG,5,3,53,0,,,,,,,,,,,,,,,,,,,,,,,AFNE08.jpg,AFSA17.jpg,AFNE19.jpg,AFSA14.jpg,AFNE19.jpg,FN,3,num_2,32,num_8,1.71674899524,,,2017_Sep_15_1535,59.9883593483,FEMA4ImagesEEG,001,201552,
AFNE01.JPG,AFNE01.JPG,AFNE01.JPG,AFNE01.JPG,AFNE01.JPG,AFNE01.JPG,5,4,54,5,,,,,,,,,,,,,,,,,,,,,,,AFNE16.jpg,AFSA11.jpg,AFSA13.jpg,AFNE17.jpg,AFNE17.jpg,FN,3,num_4,32,num_6,1.18342814944,,,2017_Sep_15_1535,59.9883593483,FEMA4ImagesEEG,001,201552,
AFNE01.JPG,AFNE01.JPG,AFNE01.JPG,AFNE01.JPG,AFNE01.JPG,AFNE01.JPG,5,5,55,2,,,,,,,,,,,,,,,,,,,,,,,AFSA01.jpg,AFNE16.jpg,AFSA13.jpg,AFNE01.jpg,AFNE01.jpg,FN,3,num_4,32,num_2,0.750081227394,,,2017_Sep_15_1535,59.9883593483,FEMA4ImagesEEG,001,201552,
AFNE01.JPG,AFNE01.JPG,AFNE01.JPG,AFNE01.JPG,AFNE01.JPG,AFNE01.JPG,5,6,56,7,,,,,,,,,,,,,,,,,,,,,,,AFSA16.jpg,AFNE18.jpg,AFNE12.jpg,AFSA06.jpg,AFNE12.jpg,FN,3,num_2,32,num_6,0.916791140335,,,2017_Sep_15_1535,59.9883593483,FEMA4ImagesEEG,001,201552,
AFNE01.JPG,AFNE01.JPG,AFNE01.JPG,AFNE01.JPG,AFNE01.JPG,AFNE01.JPG,5,7,57,4,,,,,,,,,,,,,,,,,,,,,,,AFNE11.jpg,AFSA11.jpg,AFNE20.jpg,AFSA16.jpg,AFSA16.jpg,FS,4,num_4,32,num_6,0.750103999861,,,2017_Sep_15_1535,59.9883593483,FEMA4ImagesEEG,001,201552,
AFNE01.JPG,AFNE01.JPG,AFNE01.JPG,AFNE01.JPG,AFNE01.JPG,AFNE01.JPG,5,8,58,1,,,,,,,,,,,,,,,,,,,,,,,AFSA07.jpg,AFNE12.jpg,AFNE16.jpg,AFSA05.jpg,AFNE16.jpg,FN,3,num_2,16,num_2,4.1501934221,,,2017_Sep_15_1535,59.9883593483,FEMA4ImagesEEG,001,201552,
AFNE01.JPG,AFNE01.JPG,AFNE01.JPG,AFNE01.JPG,AFNE01.JPG,AFNE01.JPG,5,9,59,8,,,,,,,,,,,,,,,,,,,,,,,AFNE07.jpg,AFSA08.jpg,AFSA06.jpg,AFNE11.jpg,AFSA06.jpg,FS,4,num_2,16,num_2,0.900006511016,,,2017_Sep_15_1535,59.9883593483,FEMA4ImagesEEG,001,201552,
,,,,,,,,,,,,,,,,,,,,,,,,,,,,,,,,,,,,,,,,,,,space,31.1479363767,2017_Sep_15_1535,59.9883593483,FEMA4ImagesEEG,001,201552,
AFNE01.JPG,AFNE01.JPG,AFNE01.JPG,AFNE01.JPG,AFNE01.JPG,AFNE01.JPG,,,,,0,0,0,5,,,,,,,,,,,,,,,,,,,AMNE11.jpg,AMSA10.jpg,AMNE19.jpg,AMSA11.jpg,AMNE11.jpg,MN,1,num_8,32,num_6,2.06667055842,,,2017_Sep_15_1535,59.9883593483,FEMA4ImagesEEG,001,201552,
AFNE01.JPG,AFNE01.JPG,AFNE01.JPG,AFNE01.JPG,AFNE01.JPG,AFNE01.JPG,,,,,0,1,1,7,,,,,,,,,,,,,,,,,,,AMSA06.jpg,AMNE09.jpg,AMNE18.jpg,AMSA19.jpg,AMSA19.jpg,MS,2,num_4,32,num_8,0.799997626571,,,2017_Sep_15_1535,59.9883593483,FEMA4ImagesEEG,001,201552,
AFNE01.JPG,AFNE01.JPG,AFNE01.JPG,AFNE01.JPG,AFNE01.JPG,AFNE01.JPG,,,,,0,2,2,0,,,,,,,,,,,,,,,,,,,AMNE16.jpg,AMSA03.jpg,AMSA14.jpg,AMNE10.jpg,AMNE10.jpg,MN,1,num_4,16,num_4,0.716774012893,,,2017_Sep_15_1535,59.9883593483,FEMA4ImagesEEG,001,201552,
AFNE01.JPG,AFNE01.JPG,AFNE01.JPG,AFNE01.JPG,AFNE01.JPG,AFNE01.JPG,,,,,0,3,3,1,,,,,,,,,,,,,,,,,,,AMNE14.jpg,AMNE15.jpg,AMSA18.jpg,AMSA08.jpg,AMNE15.jpg,MN,1,num_6,16,num_6,0.583439952461,,,2017_Sep_15_1535,59.9883593483,FEMA4ImagesEEG,001,201552,
AFNE01.JPG,AFNE01.JPG,AFNE01.JPG,AFNE01.JPG,AFNE01.JPG,AFNE01.JPG,,,,,0,4,4,3,,,,,,,,,,,,,,,,,,,AMNE08.jpg,AMSA06.jpg,AMSA08.jpg,AMNE16.jpg,AMSA06.jpg,MS,2,num_6,32,num_8,1.25012019719,,,2017_Sep_15_1535,59.9883593483,FEMA4ImagesEEG,001,201552,
AFNE01.JPG,AFNE01.JPG,AFNE01.JPG,AFNE01.JPG,AFNE01.JPG,AFNE01.JPG,,,,,0,5,5,6,,,,,,,,,,,,,,,,,,,AMSA11.jpg,AMNE11.jpg,AMSA06.jpg,AMNE12.jpg,AMSA06.jpg,MS,2,num_2,16,num_2,1.35012908163,,,2017_Sep_15_1535,59.9883593483,FEMA4ImagesEEG,001,201552,
AFNE01.JPG,AFNE01.JPG,AFNE01.JPG,AFNE01.JPG,AFNE01.JPG,AFNE01.JPG,,,,,0,6,6,4,,,,,,,,,,,,,,,,,,,AMSA19.jpg,AMSA05.jpg,AMNE19.jpg,AMNE16.jpg,AMNE16.jpg,MN,1,num_4,32,num_8,1.11671364959,,,2017_Sep_15_1535,59.9883593483,FEMA4ImagesEEG,001,201552,
AFNE01.JPG,AFNE01.JPG,AFNE01.JPG,AFNE01.JPG,AFNE01.JPG,AFNE01.JPG,,,,,0,7,7,8,,,,,,,,,,,,,,,,,,,AMSA02.jpg,AMNE03.jpg,AMNE14.jpg,AMSA12.jpg,AMSA02.jpg,MS,2,num_8,16,num_8,1.06674400764,,,2017_Sep_15_1535,59.9883593483,FEMA4ImagesEEG,001,201552,
AFNE01.JPG,AFNE01.JPG,AFNE01.JPG,AFNE01.JPG,AFNE01.JPG,AFNE01.JPG,,,,,0,8,8,9,,,,,,,,,,,,,,,,,,,AMSA12.jpg,AMNE14.jpg,AMSA11.jpg,AMNE01.jpg,AMNE01.jpg,MN,1,num_4,16,num_4,1.06673085736,,,2017_Sep_15_1535,59.9883593483,FEMA4ImagesEEG,001,201552,
AFNE01.JPG,AFNE01.JPG,AFNE01.JPG,AFNE01.JPG,AFNE01.JPG,AFNE01.JPG,,,,,0,9,9,2,,,,,,,,,,,,,,,,,,,AMSA16.jpg,AMNE05.jpg,AMNE14.jpg,AMSA05.jpg,AMNE05.jpg,MN,1,num_6,16,num_6,1.76684372569,,,2017_Sep_15_1535,59.9883593483,FEMA4ImagesEEG,001,201552,
AFNE01.JPG,AFNE01.JPG,AFNE01.JPG,AFNE01.JPG,AFNE01.JPG,AFNE01.JPG,,,,,1,0,10,6,,,,,,,,,,,,,,,,,,,AMSA08.jpg,AMNE02.jpg,AMSA14.jpg,AMNE17.jpg,AMSA14.jpg,MS,2,num_2,32,num_8,2.01639974187,,,2017_Sep_15_1535,59.9883593483,FEMA4ImagesEEG,001,201552,
AFNE01.JPG,AFNE01.JPG,AFNE01.JPG,AFNE01.JPG,AFNE01.JPG,AFNE01.JPG,,,,,1,1,11,3,,,,,,,,,,,,,,,,,,,AMSA04.jpg,AMNE06.jpg,AMNE20.jpg,AMSA12.jpg,AMNE06.jpg,MN,1,num_6,32,num_4,1.01663035364,,,2017_Sep_15_1535,59.9883593483,FEMA4ImagesEEG,001,201552,
AFNE01.JPG,AFNE01.JPG,AFNE01.JPG,AFNE01.JPG,AFNE01.JPG,AFNE01.JPG,,,,,1,2,12,4,,,,,,,,,,,,,,,,,,,AMSA04.jpg,AMSA02.jpg,AMNE17.jpg,AMNE14.jpg,AMNE17.jpg,MN,1,num_2,16,num_2,1.20010180282,,,2017_Sep_15_1535,59.9883593483,FEMA4ImagesEEG,001,201552,
AFNE01.JPG,AFNE01.JPG,AFNE01.JPG,AFNE01.JPG,AFNE01.JPG,AFNE01.JPG,,,,,1,3,13,1,,,,,,,,,,,,,,,,,,,AMNE03.jpg,AMNE05.jpg,AMSA06.jpg,AMSA20.jpg,AMSA06.jpg,MS,2,num_2,32,num_8,1.61673562042,,,2017_Sep_15_1535,59.9883593483,FEMA4ImagesEEG,001,201552,
AFNE01.JPG,AFNE01.JPG,AFNE01.JPG,AFNE01.JPG,AFNE01.JPG,AFNE01.JPG,,,,,1,4,14,2,,,,,,,,,,,,,,,,,,,AMNE11.jpg,AMNE01.jpg,AMSA03.jpg,AMSA02.jpg,AMSA03.jpg,MS,2,num_2,32,num_4,1.36669592885,,,2017_Sep_15_1535,59.9883593483,FEMA4ImagesEEG,001,201552,
AFNE01.JPG,AFNE01.JPG,AFNE01.JPG,AFNE01.JPG,AFNE01.JPG,AFNE01.JPG,,,,,1,5,15,0,,,,,,,,,,,,,,,,,,,AMNE04.jpg,AMNE20.jpg,AMSA14.jpg,AMSA17.jpg,AMNE04.jpg,MN,1,num_8,16,num_8,1.08343947143,,,2017_Sep_15_1535,59.9883593483,FEMA4ImagesEEG,001,201552,
AFNE01.JPG,AFNE01.JPG,AFNE01.JPG,AFNE01.JPG,AFNE01.JPG,AFNE01.JPG,,,,,1,6,16,9,,,,,,,,,,,,,,,,,,,AMSA15.jpg,AMNE16.jpg,AMNE20.jpg,AMSA10.jpg,AMNE20.jpg,MN,1,num_2,32,num_6,1.88338545896,,,2017_Sep_15_1535,59.9883593483,FEMA4ImagesEEG,001,201552,
AFNE01.JPG,AFNE01.JPG,AFNE01.JPG,AFNE01.JPG,AFNE01.JPG,AFNE01.JPG,,,,,1,7,17,7,,,,,,,,,,,,,,,,,,,AMNE07.jpg,AMSA04.jpg,AMSA02.jpg,AMNE09.jpg,AMSA02.jpg,MS,2,num_2,16,num_2,0.983441171236,,,2017_Sep_15_1535,59.9883593483,FEMA4ImagesEEG,001,201552,
AFNE01.JPG,AFNE01.JPG,AFNE01.JPG,AFNE01.JPG,AFNE01.JPG,AFNE01.JPG,,,,,1,8,18,5,,,,,,,,,,,,,,,,,,,AMSA04.jpg,AMNE01.jpg,AMSA08.jpg,AMNE14.jpg,AMNE14.jpg,MN,1,num_4,32,num_2,1.11674187495,,,2017_Sep_15_1535,59.9883593483,FEMA4ImagesEEG,001,201552,
AFNE01.JPG,AFNE01.JPG,AFNE01.JPG,AFNE01.JPG,AFNE01.JPG,AFNE01.JPG,,,,,1,9,19,8,,,,,,,,,,,,,,,,,,,AMNE06.jpg,AMNE02.jpg,AMSA03.jpg,AMSA06.jpg,AMNE02.jpg,MN,1,num_6,16,num_6,0.866754463641,,,2017_Sep_15_1535,59.9883593483,FEMA4ImagesEEG,001,201552,
AFNE01.JPG,AFNE01.JPG,AFNE01.JPG,AFNE01.JPG,AFNE01.JPG,AFNE01.JPG,,,,,2,0,20,4,,,,,,,,,,,,,,,,,,,AMSA08.jpg,AMNE06.jpg,AMSA19.jpg,AMNE07.jpg,AMNE07.jpg,MN,1,num_4,16,num_4,1.45009530778,,,2017_Sep_15_1535,59.9883593483,FEMA4ImagesEEG,001,201552,
AFNE01.JPG,AFNE01.JPG,AFNE01.JPG,AFNE01.JPG,AFNE01.JPG,AFNE01.JPG,,,,,2,1,21,9,,,,,,,,,,,,,,,,,,,AMNE17.jpg,AMSA16.jpg,AMNE20.jpg,AMSA06.jpg,AMSA06.jpg,MS,2,num_4,16,num_4,2.16672883672,,,2017_Sep_15_1535,59.9883593483,FEMA4ImagesEEG,001,201552,
AFNE01.JPG,AFNE01.JPG,AFNE01.JPG,AFNE01.JPG,AFNE01.JPG,AFNE01.JPG,,,,,2,2,22,6,,,,,,,,,,,,,,,,,,,AMSA14.jpg,AMSA02.jpg,AMNE17.jpg,AMNE15.jpg,AMNE17.jpg,MN,1,num_2,16,num_2,1.66672963859,,,2017_Sep_15_1535,59.9883593483,FEMA4ImagesEEG,001,201552,
AFNE01.JPG,AFNE01.JPG,AFNE01.JPG,AFNE01.JPG,AFNE01.JPG,AFNE01.JPG,,,,,2,3,23,2,,,,,,,,,,,,,,,,,,,AMSA04.jpg,AMNE20.jpg,AMSA06.jpg,AMNE11.jpg,AMSA06.jpg,MS,2,num_2,32,num_4,2.20027083275,,,2017_Sep_15_1535,59.9883593483,FEMA4ImagesEEG,001,201552,
AFNE01.JPG,AFNE01.JPG,AFNE01.JPG,AFNE01.JPG,AFNE01.JPG,AFNE01.JPG,,,,,2,4,24,5,,,,,,,,,,,,,,,,,,,AMSA04.jpg,AMNE15.jpg,AMSA15.jpg,AMNE02.jpg,AMSA15.jpg,MS,2,num_2,32,num_6,1.25009325496,,,2017_Sep_15_1535,59.9883593483,FEMA4ImagesEEG,001,201552,
AFNE01.JPG,AFNE01.JPG,AFNE01.JPG,AFNE01.JPG,AFNE01.JPG,AFNE01.JPG,,,,,2,5,25,7,,,,,,,,,,,,,,,,,,,AMNE12.jpg,AMSA20.jpg,AMNE04.jpg,AMSA02.jpg,AMSA20.jpg,MS,2,num_6,32,num_8,1.50043059303,,,2017_Sep_15_1535,59.9883593483,FEMA4ImagesEEG,001,201552,
AFNE01.JPG,AFNE01.JPG,AFNE01.JPG,AFNE01.JPG,AFNE01.JPG,AFNE01.JPG,,,,,2,6,26,3,,,,,,,,,,,,,,,,,,,AMNE16.jpg,AMNE09.jpg,AMSA17.jpg,AMSA07.jpg,AMNE09.jpg,MN,1,num_6,16,num_6,2.75006936002,,,2017_Sep_15_1535,59.9883593483,FEMA4ImagesEEG,001,201552,
AFNE01.JPG,AFNE01.JPG,AFNE01.JPG,AFNE01.JPG,AFNE01.JPG,AFNE01.JPG,,,,,2,7,27,8,,,,,,,,,,,,,,,,,,,AMSA08.jpg,AMNE13.jpg,AMNE07.jpg,AMSA16.jpg,AMSA08.jpg,MS,2,num_8,16,num_8,1.46674971678,,,2017_Sep_15_1535,59.9883593483,FEMA4ImagesEEG,001,201552,
AFNE01.JPG,AFNE01.JPG,AFNE01.JPG,AFNE01.JPG,AFNE01.JPG,AFNE01.JPG,,,,,2,8,28,0,,,,,,,,,,,,,,,,,,,AMSA20.jpg,AMNE10.jpg,AMSA11.jpg,AMNE06.jpg,AMSA11.jpg,MS,2,num_2,32,num_4,2.20002322155,,,2017_Sep_15_1535,59.9883593483,FEMA4ImagesEEG,001,201552,
AFNE01.JPG,AFNE01.JPG,AFNE01.JPG,AFNE01.JPG,AFNE01.JPG,AFNE01.JPG,,,,,2,9,29,1,,,,,,,,,,,,,,,,,,,AMNE11.jpg,AMNE09.jpg,AMSA06.jpg,AMSA16.jpg,AMNE09.jpg,MN,1,num_6,32,num_2,2.8665835096,,,2017_Sep_15_1535,59.9883593483,FEMA4ImagesEEG,001,201552,
AFNE01.JPG,AFNE01.JPG,AFNE01.JPG,AFNE01.JPG,AFNE01.JPG,AFNE01.JPG,,,,,3,0,30,8,,,,,,,,,,,,,,,,,,,AMNE15.jpg,AMSA02.jpg,AMNE18.jpg,AMSA11.jpg,AMSA02.jpg,MS,2,num_6,16,num_6,1.08348180912,,,2017_Sep_15_1535,59.9883593483,FEMA4ImagesEEG,001,201552,
AFNE01.JPG,AFNE01.JPG,AFNE01.JPG,AFNE01.JPG,AFNE01.JPG,AFNE01.JPG,,,,,3,1,31,3,,,,,,,,,,,,,,,,,,,AMNE13.jpg,AMSA20.jpg,AMNE19.jpg,AMSA01.jpg,AMNE19.jpg,MN,1,num_2,32,num_6,2.76662850915,,,2017_Sep_15_1535,59.9883593483,FEMA4ImagesEEG,001,201552,
AFNE01.JPG,AFNE01.JPG,AFNE01.JPG,AFNE01.JPG,AFNE01.JPG,AFNE01.JPG,,,,,3,2,32,7,,,,,,,,,,,,,,,,,,,AMNE19.jpg,AMSA09.jpg,AMSA02.jpg,AMNE04.jpg,AMSA09.jpg,MS,2,num_6,32,num_2,1.48338456079,,,2017_Sep_15_1535,59.9883593483,FEMA4ImagesEEG,001,201552,
AFNE01.JPG,AFNE01.JPG,AFNE01.JPG,AFNE01.JPG,AFNE01.JPG,AFNE01.JPG,,,,,3,3,33,4,,,,,,,,,,,,,,,,,,,AMSA12.jpg,AMSA02.jpg,AMNE09.jpg,AMNE04.jpg,AMNE04.jpg,MN,1,num_4,16,num_4,1.68338372698,,,2017_Sep_15_1535,59.9883593483,FEMA4ImagesEEG,001,201552,
AFNE01.JPG,AFNE01.JPG,AFNE01.JPG,AFNE01.JPG,AFNE01.JPG,AFNE01.JPG,,,,,3,4,34,1,,,,,,,,,,,,,,,,,,,AMSA03.jpg,AMNE19.jpg,AMNE01.jpg,AMSA08.jpg,AMSA03.jpg,MS,2,num_8,32,num_6,1.7500315127,,,2017_Sep_15_1535,59.9883593483,FEMA4ImagesEEG,001,201552,
AFNE01.JPG,AFNE01.JPG,AFNE01.JPG,AFNE01.JPG,AFNE01.JPG,AFNE01.JPG,,,,,3,5,35,0,,,,,,,,,,,,,,,,,,,AMSA04.jpg,AMNE09.jpg,AMSA14.jpg,AMNE03.jpg,AMNE09.jpg,MN,1,num_6,32,num_2,2.43333601695,,,2017_Sep_15_1535,59.9883593483,FEMA4ImagesEEG,001,201552,
AFNE01.JPG,AFNE01.JPG,AFNE01.JPG,AFNE01.JPG,AFNE01.JPG,AFNE01.JPG,,,,,3,6,36,6,,,,,,,,,,,,,,,,,,,AMSA04.jpg,AMNE14.jpg,AMSA06.jpg,AMNE07.jpg,AMNE14.jpg,MN,1,num_6,32,num_4,1.05012167268,,,2017_Sep_15_1535,59.9883593483,FEMA4ImagesEEG,001,201552,
AFNE01.JPG,AFNE01.JPG,AFNE01.JPG,AFNE01.JPG,AFNE01.JPG,AFNE01.JPG,,,,,3,7,37,5,,,,,,,,,,,,,,,,,,,AMSA07.jpg,AMSA15.jpg,AMNE18.jpg,AMNE11.jpg,AMNE18.jpg,MN,1,num_2,32,num_6,0.700014722068,,,2017_Sep_15_1535,59.9883593483,FEMA4ImagesEEG,001,201552,
AFNE01.JPG,AFNE01.JPG,AFNE01.JPG,AFNE01.JPG,AFNE01.JPG,AFNE01.JPG,,,,,3,8,38,2,,,,,,,,,,,,,,,,,,,AMSA15.jpg,AMSA17.jpg,AMNE09.jpg,AMNE19.jpg,AMNE19.jpg,MN,1,num_4,32,num_8,1.11676913779,,,2017_Sep_15_1535,59.9883593483,FEMA4ImagesEEG,001,201552,
AFNE01.JPG,AFNE01.JPG,AFNE01.JPG,AFNE01.JPG,AFNE01.JPG,AFNE01.JPG,,,,,3,9,39,9,,,,,,,,,,,,,,,,,,,AMSA15.jpg,AMSA03.jpg,AMNE11.jpg,AMNE10.jpg,AMNE10.jpg,MN,1,num_4,16,num_4,0.850078244461,,,2017_Sep_15_1535,59.9883593483,FEMA4ImagesEEG,001,201552,
AFNE01.JPG,AFNE01.JPG,AFNE01.JPG,AFNE01.JPG,AFNE01.JPG,AFNE01.JPG,,,,,4,0,40,6,,,,,,,,,,,,,,,,,,,AMNE16.jpg,AMSA02.jpg,AMNE07.jpg,AMSA08.jpg,AMNE07.jpg,MN,1,num_2,32,num_8,1.21676262678,,,2017_Sep_15_1535,59.9883593483,FEMA4ImagesEEG,001,201552,
AFNE01.JPG,AFNE01.JPG,AFNE01.JPG,AFNE01.JPG,AFNE01.JPG,AFNE01.JPG,,,,,4,1,41,7,,,,,,,,,,,,,,,,,,,AMSA03.jpg,AMNE08.jpg,AMSA20.jpg,AMNE01.jpg,AMNE08.jpg,MN,1,num_6,32,num_8,1.41676435876,,,2017_Sep_15_1535,59.9883593483,FEMA4ImagesEEG,001,201552,
AFNE01.JPG,AFNE01.JPG,AFNE01.JPG,AFNE01.JPG,AFNE01.JPG,AFNE01.JPG,,,,,4,2,42,8,,,,,,,,,,,,,,,,,,,AMNE20.jpg,AMNE16.jpg,AMSA06.jpg,AMSA18.jpg,AMNE16.jpg,MN,1,num_6,32,num_2,1.31673270161,,,2017_Sep_15_1535,59.9883593483,FEMA4ImagesEEG,001,201552,
AFNE01.JPG,AFNE01.JPG,AFNE01.JPG,AFNE01.JPG,AFNE01.JPG,AFNE01.JPG,,,,,4,3,43,0,,,,,,,,,,,,,,,,,,,AMNE19.jpg,AMSA08.jpg,AMSA04.jpg,AMNE06.jpg,AMSA08.jpg,MS,2,num_6,16,num_6,0.916761953151,,,2017_Sep_15_1535,59.9883593483,FEMA4ImagesEEG,001,201552,
AFNE01.JPG,AFNE01.JPG,AFNE01.JPG,AFNE01.JPG,AFNE01.JPG,AFNE01.JPG,,,,,4,4,44,9,,,,,,,,,,,,,,,,,,,AMNE09.jpg,AMSA17.jpg,AMSA18.jpg,AMNE08.jpg,AMNE08.jpg,MN,1,num_4,16,num_4,2.69996115845,,,2017_Sep_15_1535,59.9883593483,FEMA4ImagesEEG,001,201552,
AFNE01.JPG,AFNE01.JPG,AFNE01.JPG,AFNE01.JPG,AFNE01.JPG,AFNE01.JPG,,,,,4,5,45,5,,,,,,,,,,,,,,,,,,,AMSA14.jpg,AMNE06.jpg,AMSA18.jpg,AMNE18.jpg,AMSA18.jpg,MS,2,num_2,32,num_8,1.40006761183,,,2017_Sep_15_1535,59.9883593483,FEMA4ImagesEEG,001,201552,
AFNE01.JPG,AFNE01.JPG,AFNE01.JPG,AFNE01.JPG,AFNE01.JPG,AFNE01.JPG,,,,,4,6,46,2,,,,,,,,,,,,,,,,,,,AMNE13.jpg,AMSA12.jpg,AMSA11.jpg,AMNE18.jpg,AMSA11.jpg,MS,2,num_2,16,num_2,0.816750182072,,,2017_Sep_15_1535,59.9883593483,FEMA4ImagesEEG,001,201552,
AFNE01.JPG,AFNE01.JPG,AFNE01.JPG,AFNE01.JPG,AFNE01.JPG,AFNE01.JPG,,,,,4,7,47,3,,,,,,,,,,,,,,,,,,,AMSA09.jpg,AMSA11.jpg,AMNE13.jpg,AMNE14.jpg,AMNE14.jpg,MN,1,num_4,32,num_2,1.18351988099,,,2017_Sep_15_1535,59.9883593483,FEMA4ImagesEEG,001,201552,
AFNE01.JPG,AFNE01.JPG,AFNE01.JPG,AFNE01.JPG,AFNE01.JPG,AFNE01.JPG,,,,,4,8,48,4,,,,,,,,,,,,,,,,,,,AMSA10.jpg,AMNE01.jpg,AMNE13.jpg,AMSA08.jpg,AMNE01.jpg,MN,1,num_6,16,num_6,0.650116284145,,,2017_Sep_15_1535,59.9883593483,FEMA4ImagesEEG,001,201552,
AFNE01.JPG,AFNE01.JPG,AFNE01.JPG,AFNE01.JPG,AFNE01.JPG,AFNE01.JPG,,,,,4,9,49,1,,,,,,,,,,,,,,,,,,,AMNE07.jpg,AMSA12.jpg,AMSA07.jpg,AMNE08.jpg,AMSA07.jpg,MS,2,num_2,16,num_2,2.21663400996,,,2017_Sep_15_1535,59.9883593483,FEMA4ImagesEEG,001,201552,
AFNE01.JPG,AFNE01.JPG,AFNE01.JPG,AFNE01.JPG,AFNE01.JPG,AFNE01.JPG,,,,,5,0,50,4,,,,,,,,,,,,,,,,,,,AMNE11.jpg,AMSA18.jpg,AMNE16.jpg,AMSA07.jpg,AMNE11.jpg,MN,1,num_8,16,num_8,1.26672649547,,,2017_Sep_15_1535,59.9883593483,FEMA4ImagesEEG,001,201552,
AFNE01.JPG,AFNE01.JPG,AFNE01.JPG,AFNE01.JPG,AFNE01.JPG,AFNE01.JPG,,,,,5,1,51,2,,,,,,,,,,,,,,,,,,,AMNE19.jpg,AMSA07.jpg,AMSA18.jpg,AMNE12.jpg,AMNE19.jpg,MN,1,num_8,32,num_2,0.850067339372,,,2017_Sep_15_1535,59.9883593483,FEMA4ImagesEEG,001,201552,
AFNE01.JPG,AFNE01.JPG,AFNE01.JPG,AFNE01.JPG,AFNE01.JPG,AFNE01.JPG,,,,,5,2,52,7,,,,,,,,,,,,,,,,,,,AMNE08.jpg,AMNE01.jpg,AMSA19.jpg,AMSA05.jpg,AMNE08.jpg,MN,1,num_8,32,num_6,1.95002458454,,,2017_Sep_15_1535,59.9883593483,FEMA4ImagesEEG,001,201552,
AFNE01.JPG,AFNE01.JPG,AFNE01.JPG,AFNE01.JPG,AFNE01.JPG,AFNE01.JPG,,,,,5,3,53,1,,,,,,,,,,,,,,,,,,,AMNE08.jpg,AMSA08.jpg,AMSA11.jpg,AMNE03.jpg,AMSA11.jpg,MS,2,num_2,32,num_4,1.266730665,,,2017_Sep_15_1535,59.9883593483,FEMA4ImagesEEG,001,201552,
AFNE01.JPG,AFNE01.JPG,AFNE01.JPG,AFNE01.JPG,AFNE01.JPG,AFNE01.JPG,,,,,5,4,54,3,,,,,,,,,,,,,,,,,,,AMSA15.jpg,AMNE18.jpg,AMSA18.jpg,AMNE14.jpg,AMSA15.jpg,MS,2,num_8,32,num_2,1.66683195462,,,2017_Sep_15_1535,59.9883593483,FEMA4ImagesEEG,001,201552,
AFNE01.JPG,AFNE01.JPG,AFNE01.JPG,AFNE01.JPG,AFNE01.JPG,AFNE01.JPG,,,,,5,5,55,5,,,,,,,,,,,,,,,,,,,AMNE04.jpg,AMSA07.jpg,AMNE01.jpg,AMSA05.jpg,AMNE01.jpg,MN,1,num_2,32,num_6,4.03319431399,,,2017_Sep_15_1535,59.9883593483,FEMA4ImagesEEG,001,201552,
AFNE01.JPG,AFNE01.JPG,AFNE01.JPG,AFNE01.JPG,AFNE01.JPG,AFNE01.JPG,,,,,5,6,56,6,,,,,,,,,,,,,,,,,,,AMNE03.jpg,AMNE12.jpg,AMSA08.jpg,AMSA13.jpg,AMSA13.jpg,MS,2,num_4,32,num_2,0.91645147698,,,2017_Sep_15_1535,59.9883593483,FEMA4ImagesEEG,001,201552,
AFNE01.JPG,AFNE01.JPG,AFNE01.JPG,AFNE01.JPG,AFNE01.JPG,AFNE01.JPG,,,,,5,7,57,0,,,,,,,,,,,,,,,,,,,AMNE07.jpg,AMNE03.jpg,AMSA16.jpg,AMSA10.jpg,AMNE03.jpg,MN,1,num_6,32,num_8,1.86670250399,,,2017_Sep_15_1535,59.9883593483,FEMA4ImagesEEG,001,201552,
AFNE01.JPG,AFNE01.JPG,AFNE01.JPG,AFNE01.JPG,AFNE01.JPG,AFNE01.JPG,,,,,5,8,58,9,,,,,,,,,,,,,,,,,,,AMSA11.jpg,AMNE18.jpg,AMNE09.jpg,AMSA03.jpg,AMSA11.jpg,MS,2,num_8,32,num_6,2.33331590635,,,2017_Sep_15_1535,59.9883593483,FEMA4ImagesEEG,001,201552,
AFNE01.JPG,AFNE01.JPG,AFNE01.JPG,AFNE01.JPG,AFNE01.JPG,AFNE01.JPG,,,,,5,9,59,8,,,,,,,,,,,,,,,,,,,AMNE08.jpg,AMSA02.jpg,AMNE20.jpg,AMSA12.jpg,AMSA12.jpg,MS,2,num_4,16,num_4,1.00011001364,,,2017_Sep_15_1535,59.9883593483,FEMA4ImagesEEG,001,201552,
,,,,,,,,,,,,,,,,,,,,,,,,,,,,,,,,,,,,,,,,,,,space,27.8983168541,2017_Sep_15_1535,59.9883593483,FEMA4ImagesEEG,001,201552,
AFNE01.JPG,AFNE01.JPG,AFNE01.JPG,AFNE01.JPG,AFNE01.JPG,AFNE01.JPG,,,,,,,,,0,0,0,9,,,,,,,,,,,,,,,AFNE14.jpg,AFSA05.jpg,AFNE05.jpg,AFSA14.jpg,AFSA14.jpg,FS,4,num_4,16,num_4,0.933433682192,,,2017_Sep_15_1535,59.9883593483,FEMA4ImagesEEG,001,201552,
AFNE01.JPG,AFNE01.JPG,AFNE01.JPG,AFNE01.JPG,AFNE01.JPG,AFNE01.JPG,,,,,,,,,0,1,1,1,,,,,,,,,,,,,,,AFSA18.jpg,AFNE20.jpg,AFNE01.jpg,AFSA15.jpg,AFNE20.jpg,FN,3,num_6,16,num_6,0.766794973286,,,2017_Sep_15_1535,59.9883593483,FEMA4ImagesEEG,001,201552,
AFNE01.JPG,AFNE01.JPG,AFNE01.JPG,AFNE01.JPG,AFNE01.JPG,AFNE01.JPG,,,,,,,,,0,2,2,8,,,,,,,,,,,,,,,AFNE11.jpg,AFNE17.jpg,AFSA19.jpg,AFSA11.jpg,AFSA11.jpg,FS,4,num_4,16,num_4,0.633455781266,,,2017_Sep_15_1535,59.9883593483,FEMA4ImagesEEG,001,201552,
AFNE01.JPG,AFNE01.JPG,AFNE01.JPG,AFNE01.JPG,AFNE01.JPG,AFNE01.JPG,,,,,,,,,0,3,3,3,,,,,,,,,,,,,,,AFNE18.jpg,AFSA10.jpg,AFSA11.jpg,AFNE03.jpg,AFNE03.jpg,FN,3,num_4,32,num_8,1.3334390705,,,2017_Sep_15_1535,59.9883593483,FEMA4ImagesEEG,001,201552,
AFNE01.JPG,AFNE01.JPG,AFNE01.JPG,AFNE01.JPG,AFNE01.JPG,AFNE01.JPG,,,,,,,,,0,4,4,5,,,,,,,,,,,,,,,AFNE10.jpg,AFSA02.jpg,AFSA03.jpg,AFNE18.jpg,AFNE18.jpg,FN,3,num_4,16,num_4,0.833511397243,,,2017_Sep_15_1535,59.9883593483,FEMA4ImagesEEG,001,201552,
AFNE01.JPG,AFNE01.JPG,AFNE01.JPG,AFNE01.JPG,AFNE01.JPG,AFNE01.JPG,,,,,,,,,0,5,5,0,,,,,,,,,,,,,,,AFSA07.jpg,AFNE20.jpg,AFSA02.jpg,AFNE11.jpg,AFNE20.jpg,FN,3,num_6,32,num_8,1.11678068433,,,2017_Sep_15_1535,59.9883593483,FEMA4ImagesEEG,001,201552,
AFNE01.JPG,AFNE01.JPG,AFNE01.JPG,AFNE01.JPG,AFNE01.JPG,AFNE01.JPG,,,,,,,,,0,6,6,6,,,,,,,,,,,,,,,AFNE14.jpg,AFSA16.jpg,AFNE18.jpg,AFSA17.jpg,AFSA16.jpg,FS,4,num_6,16,num_6,1.63338938798,,,2017_Sep_15_1535,59.9883593483,FEMA4ImagesEEG,001,201552,
AFNE01.JPG,AFNE01.JPG,AFNE01.JPG,AFNE01.JPG,AFNE01.JPG,AFNE01.JPG,,,,,,,,,0,7,7,4,,,,,,,,,,,,,,,AFNE20.jpg,AFSA05.jpg,AFNE15.jpg,AFSA08.jpg,AFSA08.jpg,FS,4,num_4,16,num_4,2.43338412791,,,2017_Sep_15_1535,59.9883593483,FEMA4ImagesEEG,001,201552,
AFNE01.JPG,AFNE01.JPG,AFNE01.JPG,AFNE01.JPG,AFNE01.JPG,AFNE01.JPG,,,,,,,,,0,8,8,7,,,,,,,,,,,,,,,AFSA11.jpg,AFSA13.jpg,AFNE04.jpg,AFNE14.jpg,AFSA13.jpg,FS,4,num_6,16,num_6,1.5500830235,,,2017_Sep_15_1535,59.9883593483,FEMA4ImagesEEG,001,201552,
AFNE01.JPG,AFNE01.JPG,AFNE01.JPG,AFNE01.JPG,AFNE01.JPG,AFNE01.JPG,,,,,,,,,0,9,9,2,,,,,,,,,,,,,,,AFSA16.jpg,AFNE01.jpg,AFSA11.jpg,AFNE06.jpg,AFSA16.jpg,FS,4,num_8,32,num_4,1.33342271275,,,2017_Sep_15_1535,59.9883593483,FEMA4ImagesEEG,001,201552,
AFNE01.JPG,AFNE01.JPG,AFNE01.JPG,AFNE01.JPG,AFNE01.JPG,AFNE01.JPG,,,,,,,,,1,0,10,2,,,,,,,,,,,,,,,AFSA01.jpg,AFSA15.jpg,AFNE12.jpg,AFNE16.jpg,AFSA01.jpg,FS,4,num_8,16,num_8,0.950112146791,,,2017_Sep_15_1535,59.9883593483,FEMA4ImagesEEG,001,201552,
AFNE01.JPG,AFNE01.JPG,AFNE01.JPG,AFNE01.JPG,AFNE01.JPG,AFNE01.JPG,,,,,,,,,1,1,11,5,,,,,,,,,,,,,,,AFSA12.jpg,AFNE12.jpg,AFNE06.jpg,AFSA19.jpg,AFSA19.jpg,FS,4,num_4,32,num_8,3.64986097557,,,2017_Sep_15_1535,59.9883593483,FEMA4ImagesEEG,001,201552,
AFNE01.JPG,AFNE01.JPG,AFNE01.JPG,AFNE01.JPG,AFNE01.JPG,AFNE01.JPG,,,,,,,,,1,2,12,0,,,,,,,,,,,,,,,AFNE17.jpg,AFSA05.jpg,AFNE06.jpg,AFSA07.jpg,AFSA05.jpg,FS,4,num_6,32,num_2,3.64988855878,,,2017_Sep_15_1535,59.9883593483,FEMA4ImagesEEG,001,201552,
AFNE01.JPG,AFNE01.JPG,AFNE01.JPG,AFNE01.JPG,AFNE01.JPG,AFNE01.JPG,,,,,,,,,1,3,13,1,,,,,,,,,,,,,,,AFSA14.jpg,AFSA06.jpg,AFNE14.jpg,AFNE08.jpg,AFNE14.jpg,FN,3,num_2,32,num_6,1.09983760957,,,2017_Sep_15_1535,59.9883593483,FEMA4ImagesEEG,001,201552,
AFNE01.JPG,AFNE01.JPG,AFNE01.JPG,AFNE01.JPG,AFNE01.JPG,AFNE01.JPG,,,,,,,,,1,4,14,6,,,,,,,,,,,,,,,AFNE20.jpg,AFNE09.jpg,AFSA14.jpg,AFSA03.jpg,AFNE20.jpg,FN,3,num_8,32,num_6,2.03336302307,,,2017_Sep_15_1535,59.9883593483,FEMA4ImagesEEG,001,201552,
AFNE01.JPG,AFNE01.JPG,AFNE01.JPG,AFNE01.JPG,AFNE01.JPG,AFNE01.JPG,,,,,,,,,1,5,15,7,,,,,,,,,,,,,,,AFSA02.jpg,AFNE14.jpg,AFNE18.jpg,AFSA13.jpg,AFNE18.jpg,FN,3,num_2,32,num_6,1.11684707738,,,2017_Sep_15_1535,59.9883593483,FEMA4ImagesEEG,001,201552,
AFNE01.JPG,AFNE01.JPG,AFNE01.JPG,AFNE01.JPG,AFNE01.JPG,AFNE01.JPG,,,,,,,,,1,6,16,3,,,,,,,,,,,,,,,AFNE12.jpg,AFNE14.jpg,AFSA14.jpg,AFSA08.jpg,AFNE14.jpg,FN,3,num_6,32,num_4,3.01660341141,,,2017_Sep_15_1535,59.9883593483,FEMA4ImagesEEG,001,201552,
AFNE01.JPG,AFNE01.JPG,AFNE01.JPG,AFNE01.JPG,AFNE01.JPG,AFNE01.JPG,,,,,,,,,1,7,17,8,,,,,,,,,,,,,,,AFSA20.jpg,AFSA11.jpg,AFNE20.jpg,AFNE11.jpg,AFSA11.jpg,FS,4,num_6,16,num_6,1.08345037652,,,2017_Sep_15_1535,59.9883593483,FEMA4ImagesEEG,001,201552,
AFNE01.JPG,AFNE01.JPG,AFNE01.JPG,AFNE01.JPG,AFNE01.JPG,AFNE01.JPG,,,,,,,,,1,8,18,9,,,,,,,,,,,,,,,AFSA07.jpg,AFNE04.jpg,AFNE13.jpg,AFSA01.jpg,AFSA01.jpg,FS,4,num_4,16,num_4,1.10010157828,,,2017_Sep_15_1535,59.9883593483,FEMA4ImagesEEG,001,201552,
AFNE01.JPG,AFNE01.JPG,AFNE01.JPG,AFNE01.JPG,AFNE01.JPG,AFNE01.JPG,,,,,,,,,1,9,19,4,,,,,,,,,,,,,,,AFSA08.jpg,AFNE12.jpg,AFSA03.jpg,AFNE08.jpg,AFNE12.jpg,FN,3,num_6,32,num_8,1.65004572156,,,2017_Sep_15_1535,59.9883593483,FEMA4ImagesEEG,001,201552,
AFNE01.JPG,AFNE01.JPG,AFNE01.JPG,AFNE01.JPG,AFNE01.JPG,AFNE01.JPG,,,,,,,,,2,0,20,9,,,,,,,,,,,,,,,AFNE12.jpg,AFNE07.jpg,AFSA18.jpg,AFSA15.jpg,AFSA18.jpg,FS,4,num_2,32,num_4,0.83353449055,,,2017_Sep_15_1535,59.9883593483,FEMA4ImagesEEG,001,201552,
AFNE01.JPG,AFNE01.JPG,AFNE01.JPG,AFNE01.JPG,AFNE01.JPG,AFNE01.JPG,,,,,,,,,2,1,21,8,,,,,,,,,,,,,,,AFSA01.jpg,AFSA17.jpg,AFNE17.jpg,AFNE20.jpg,AFSA17.jpg,FS,4,num_6,32,num_2,1.63071409799,,,2017_Sep_15_1535,59.9883593483,FEMA4ImagesEEG,001,201552,
AFNE01.JPG,AFNE01.JPG,AFNE01.JPG,AFNE01.JPG,AFNE01.JPG,AFNE01.JPG,,,,,,,,,2,2,22,0,,,,,,,,,,,,,,,AFSA06.jpg,AFSA15.jpg,AFNE13.jpg,AFNE11.jpg,AFSA15.jpg,FS,4,num_6,16,num_6,1.11801424925,,,2017_Sep_15_1535,59.9883593483,FEMA4ImagesEEG,001,201552,
AFNE01.JPG,AFNE01.JPG,AFNE01.JPG,AFNE01.JPG,AFNE01.JPG,AFNE01.JPG,,,,,,,,,2,3,23,6,,,,,,,,,,,,,,,AFNE07.jpg,AFSA14.jpg,AFSA01.jpg,AFNE10.jpg,AFSA01.jpg,FS,4,num_2,32,num_6,1.56641573063,,,2017_Sep_15_1535,59.9883593483,FEMA4ImagesEEG,001,201552,
AFNE01.JPG,AFNE01.JPG,AFNE01.JPG,AFNE01.JPG,AFNE01.JPG,AFNE01.JPG,,,,,,,,,2,4,24,4,,,,,,,,,,,,,,,AFNE19.jpg,AFNE07.jpg,AFSA20.jpg,AFSA08.jpg,AFNE07.jpg,FN,3,num_6,16,num_6,1.1835006366,,,2017_Sep_15_1535,59.9883593483,FEMA4ImagesEEG,001,201552,
AFNE01.JPG,AFNE01.JPG,AFNE01.JPG,AFNE01.JPG,AFNE01.JPG,AFNE01.JPG,,,,,,,,,2,5,25,7,,,,,,,,,,,,,,,AFNE08.jpg,AFSA05.jpg,AFNE17.jpg,AFSA08.jpg,AFSA08.jpg,FS,4,num_4,16,num_4,2.31700019864,,,2017_Sep_15_1535,59.9883593483,FEMA4ImagesEEG,001,201552,
AFNE01.JPG,AFNE01.JPG,AFNE01.JPG,AFNE01.JPG,AFNE01.JPG,AFNE01.JPG,,,,,,,,,2,6,26,5,,,,,,,,,,,,,,,AFNE18.jpg,AFSA10.jpg,AFSA09.jpg,AFNE08.jpg,AFNE18.jpg,FN,3,num_8,32,num_6,1.11681821081,,,2017_Sep_15_1535,59.9883593483,FEMA4ImagesEEG,001,201552,
AFNE01.JPG,AFNE01.JPG,AFNE01.JPG,AFNE01.JPG,AFNE01.JPG,AFNE01.JPG,,,,,,,,,2,7,27,2,,,,,,,,,,,,,,,AFNE16.jpg,AFNE17.jpg,AFSA09.jpg,AFSA12.jpg,AFNE17.jpg,FN,3,num_6,32,num_8,2.86662937538,,,2017_Sep_15_1535,59.9883593483,FEMA4ImagesEEG,001,201552,
AFNE01.JPG,AFNE01.JPG,AFNE01.JPG,AFNE01.JPG,AFNE01.JPG,AFNE01.JPG,,,,,,,,,2,8,28,1,,,,,,,,,,,,,,,AFNE01.jpg,AFSA15.jpg,AFSA04.jpg,AFNE16.jpg,AFNE16.jpg,FN,3,num_4,32,num_6,2.21664940543,,,2017_Sep_15_1535,59.9883593483,FEMA4ImagesEEG,001,201552,
AFNE01.JPG,AFNE01.JPG,AFNE01.JPG,AFNE01.JPG,AFNE01.JPG,AFNE01.JPG,,,,,,,,,2,9,29,3,,,,,,,,,,,,,,,AFNE08.jpg,AFSA08.jpg,AFNE02.jpg,AFSA13.jpg,AFSA08.jpg,FS,4,num_6,32,num_2,1.05013386067,,,2017_Sep_15_1535,59.9883593483,FEMA4ImagesEEG,001,201552,
AFNE01.JPG,AFNE01.JPG,AFNE01.JPG,AFNE01.JPG,AFNE01.JPG,AFNE01.JPG,,,,,,,,,3,0,30,6,,,,,,,,,,,,,,,AFNE20.jpg,AFNE06.jpg,AFSA19.jpg,AFSA11.jpg,AFNE06.jpg,FN,3,num_6,16,num_6,1.45010685455,,,2017_Sep_15_1535,59.9883593483,FEMA4ImagesEEG,001,201552,
AFNE01.JPG,AFNE01.JPG,AFNE01.JPG,AFNE01.JPG,AFNE01.JPG,AFNE01.JPG,,,,,,,,,3,1,31,2,,,,,,,,,,,,,,,AFSA20.jpg,AFNE16.jpg,AFSA06.jpg,AFNE09.jpg,AFNE16.jpg,FN,3,num_6,32,num_4,2.53329486586,,,2017_Sep_15_1535,59.9883593483,FEMA4ImagesEEG,001,201552,
AFNE01.JPG,AFNE01.JPG,AFNE01.JPG,AFNE01.JPG,AFNE01.JPG,AFNE01.JPG,,,,,,,,,3,2,32,8,,,,,,,,,,,,,,,AFSA10.jpg,AFSA03.jpg,AFNE16.jpg,AFNE20.jpg,AFNE20.jpg,FN,3,num_4,16,num_4,1.41672522831,,,2017_Sep_15_1535,59.9883593483,FEMA4ImagesEEG,001,201552,
AFNE01.JPG,AFNE01.JPG,AFNE01.JPG,AFNE01.JPG,AFNE01.JPG,AFNE01.JPG,,,,,,,,,3,3,33,5,,,,,,,,,,,,,,,AFSA12.jpg,AFNE15.jpg,AFNE09.jpg,AFSA06.jpg,AFSA12.jpg,FS,4,num_8,16,num_8,1.11677972204,,,2017_Sep_15_1535,59.9883593483,FEMA4ImagesEEG,001,201552,
AFNE01.JPG,AFNE01.JPG,AFNE01.JPG,AFNE01.JPG,AFNE01.JPG,AFNE01.JPG,,,,,,,,,3,4,34,7,,,,,,,,,,,,,,,AFNE06.jpg,AFNE13.jpg,AFSA06.jpg,AFSA13.jpg,AFNE06.jpg,FN,3,num_8,16,num_8,2.03331779875,,,2017_Sep_15_1535,59.9883593483,FEMA4ImagesEEG,001,201552,
AFNE01.JPG,AFNE01.JPG,AFNE01.JPG,AFNE01.JPG,AFNE01.JPG,AFNE01.JPG,,,,,,,,,3,5,35,4,,,,,,,,,,,,,,,AFNE13.jpg,AFNE15.jpg,AFSA19.jpg,AFSA10.jpg,AFNE13.jpg,FN,3,num_8,16,num_8,1.28342837375,,,2017_Sep_15_1535,59.9883593483,FEMA4ImagesEEG,001,201552,
AFNE01.JPG,AFNE01.JPG,AFNE01.JPG,AFNE01.JPG,AFNE01.JPG,AFNE01.JPG,,,,,,,,,3,6,36,0,,,,,,,,,,,,,,,AFSA12.jpg,AFNE04.jpg,AFNE13.jpg,AFSA11.jpg,AFSA12.jpg,FS,4,num_8,16,num_8,1.61660123034,,,2017_Sep_15_1535,59.9883593483,FEMA4ImagesEEG,001,201552,
AFNE01.JPG,AFNE01.JPG,AFNE01.JPG,AFNE01.JPG,AFNE01.JPG,AFNE01.JPG,,,,,,,,,3,7,37,1,,,,,,,,,,,,,,,AFSA15.jpg,AFSA05.jpg,AFNE01.jpg,AFNE17.jpg,AFSA15.jpg,FS,4,num_8,32,num_6,1.0501024283,,,2017_Sep_15_1535,59.9883593483,FEMA4ImagesEEG,001,201552,
AFNE01.JPG,AFNE01.JPG,AFNE01.JPG,AFNE01.JPG,AFNE01.JPG,AFNE01.JPG,,,,,,,,,3,8,38,3,,,,,,,,,,,,,,,AFNE14.jpg,AFSA03.jpg,AFNE11.jpg,AFSA13.jpg,AFNE14.jpg,FN,3,num_8,16,num_8,1.28339629993,,,2017_Sep_15_1535,59.9883593483,FEMA4ImagesEEG,001,201552,
AFNE01.JPG,AFNE01.JPG,AFNE01.JPG,AFNE01.JPG,AFNE01.JPG,AFNE01.JPG,,,,,,,,,3,9,39,9,,,,,,,,,,,,,,,AFSA02.jpg,AFSA06.jpg,AFNE02.jpg,AFNE09.jpg,AFSA02.jpg,FS,4,num_8,32,num_2,0.850122185657,,,2017_Sep_15_1535,59.9883593483,FEMA4ImagesEEG,001,201552,
AFNE01.JPG,AFNE01.JPG,AFNE01.JPG,AFNE01.JPG,AFNE01.JPG,AFNE01.JPG,,,,,,,,,4,0,40,4,,,,,,,,,,,,,,,AFSA11.jpg,AFSA05.jpg,AFNE09.jpg,AFNE02.jpg,AFSA05.jpg,FS,4,num_6,16,num_6,1.51701828814,,,2017_Sep_15_1535,59.9883593483,FEMA4ImagesEEG,001,201552,
AFNE01.JPG,AFNE01.JPG,AFNE01.JPG,AFNE01.JPG,AFNE01.JPG,AFNE01.JPG,,,,,,,,,4,1,41,5,,,,,,,,,,,,,,,AFSA02.jpg,AFSA06.jpg,AFNE16.jpg,AFNE02.jpg,AFNE02.jpg,FN,3,num_4,32,num_2,1.49996519974,,,2017_Sep_15_1535,59.9883593483,FEMA4ImagesEEG,001,201552,
AFNE01.JPG,AFNE01.JPG,AFNE01.JPG,AFNE01.JPG,AFNE01.JPG,AFNE01.JPG,,,,,,,,,4,2,42,1,,,,,,,,,,,,,,,AFNE11.jpg,AFSA04.jpg,AFSA16.jpg,AFNE04.jpg,AFNE04.jpg,FN,3,num_4,32,num_8,0.883419778198,,,2017_Sep_15_1535,59.9883593483,FEMA4ImagesEEG,001,201552,
AFNE01.JPG,AFNE01.JPG,AFNE01.JPG,AFNE01.JPG,AFNE01.JPG,AFNE01.JPG,,,,,,,,,4,3,43,9,,,,,,,,,,,,,,,AFSA19.jpg,AFSA07.jpg,AFNE17.jpg,AFNE18.jpg,AFNE17.jpg,FN,3,num_2,16,num_2,1.61678437283,,,2017_Sep_15_1535,59.9883593483,FEMA4ImagesEEG,001,201552,
AFNE01.JPG,AFNE01.JPG,AFNE01.JPG,AFNE01.JPG,AFNE01.JPG,AFNE01.JPG,,,,,,,,,4,4,44,3,,,,,,,,,,,,,,,AFSA18.jpg,AFNE17.jpg,AFNE15.jpg,AFSA16.jpg,AFSA18.jpg,FS,4,num_8,32,num_4,0.733375820797,,,2017_Sep_15_1535,59.9883593483,FEMA4ImagesEEG,001,201552,
AFNE01.JPG,AFNE01.JPG,AFNE01.JPG,AFNE01.JPG,AFNE01.JPG,AFNE01.JPG,,,,,,,,,4,5,45,6,,,,,,,,,,,,,,,AFNE06.jpg,AFSA18.jpg,AFSA01.jpg,AFNE15.jpg,AFSA01.jpg,FS,4,num_2,32,num_6,0.933481151471,,,2017_Sep_15_1535,59.9883593483,FEMA4ImagesEEG,001,201552,
AFNE01.JPG,AFNE01.JPG,AFNE01.JPG,AFNE01.JPG,AFNE01.JPG,AFNE01.JPG,,,,,,,,,4,6,46,7,,,,,,,,,,,,,,,AFNE07.jpg,AFSA01.jpg,AFNE03.jpg,AFSA18.jpg,AFNE07.jpg,FN,3,num_8,16,num_8,0.983451755717,,,2017_Sep_15_1535,59.9883593483,FEMA4ImagesEEG,001,201552,
AFNE01.JPG,AFNE01.JPG,AFNE01.JPG,AFNE01.JPG,AFNE01.JPG,AFNE01.JPG,,,,,,,,,4,7,47,2,,,,,,,,,,,,,,,AFNE07.jpg,AFNE08.jpg,AFSA06.jpg,AFSA04.jpg,AFNE07.jpg,FN,3,num_8,16,num_8,1.93334034667,,,2017_Sep_15_1535,59.9883593483,FEMA4ImagesEEG,001,201552,
AFNE01.JPG,AFNE01.JPG,AFNE01.JPG,AFNE01.JPG,AFNE01.JPG,AFNE01.JPG,,,,,,,,,4,8,48,8,,,,,,,,,,,,,,,AFNE09.jpg,AFNE19.jpg,AFSA15.jpg,AFSA08.jpg,AFNE09.jpg,FN,3,num_8,32,num_2,1.70005192771,,,2017_Sep_15_1535,59.9883593483,FEMA4ImagesEEG,001,201552,
AFNE01.JPG,AFNE01.JPG,AFNE01.JPG,AFNE01.JPG,AFNE01.JPG,AFNE01.JPG,,,,,,,,,4,9,49,0,,,,,,,,,,,,,,,AFSA16.jpg,AFSA14.jpg,AFNE13.jpg,AFNE10.jpg,AFNE13.jpg,FN,3,num_2,32,num_4,1.8666771655,,,2017_Sep_15_1535,59.9883593483,FEMA4ImagesEEG,001,201552,
AFNE01.JPG,AFNE01.JPG,AFNE01.JPG,AFNE01.JPG,AFNE01.JPG,AFNE01.JPG,,,,,,,,,5,0,50,2,,,,,,,,,,,,,,,AFSA12.jpg,AFNE02.jpg,AFNE12.jpg,AFSA07.jpg,AFSA12.jpg,FS,4,num_8,16,num_8,1.15009687957,,,2017_Sep_15_1535,59.9883593483,FEMA4ImagesEEG,001,201552,
AFNE01.JPG,AFNE01.JPG,AFNE01.JPG,AFNE01.JPG,AFNE01.JPG,AFNE01.JPG,,,,,,,,,5,1,51,8,,,,,,,,,,,,,,,AFSA07.jpg,AFNE16.jpg,AFNE11.jpg,AFSA03.jpg,AFSA07.jpg,FS,4,num_8,16,num_8,2.4666124403,,,2017_Sep_15_1535,59.9883593483,FEMA4ImagesEEG,001,201552,
AFNE01.JPG,AFNE01.JPG,AFNE01.JPG,AFNE01.JPG,AFNE01.JPG,AFNE01.JPG,,,,,,,,,5,2,52,9,,,,,,,,,,,,,,,AFSA20.jpg,AFSA13.jpg,AFNE17.jpg,AFNE18.jpg,AFNE18.jpg,FN,3,num_4,32,num_6,1.11672583781,,,2017_Sep_15_1535,59.9883593483,FEMA4ImagesEEG,001,201552,
AFNE01.JPG,AFNE01.JPG,AFNE01.JPG,AFNE01.JPG,AFNE01.JPG,AFNE01.JPG,,,,,,,,,5,3,53,1,,,,,,,,,,,,,,,AFNE01.jpg,AFNE20.jpg,AFSA16.jpg,AFSA01.jpg,AFNE20.jpg,FN,3,num_6,16,num_6,1.05011974811,,,2017_Sep_15_1535,59.9883593483,FEMA4ImagesEEG,001,201552,
AFNE01.JPG,AFNE01.JPG,AFNE01.JPG,AFNE01.JPG,AFNE01.JPG,AFNE01.JPG,,,,,,,,,5,4,54,0,,,,,,,,,,,,,,,AFNE05.jpg,AFNE15.jpg,AFSA18.jpg,AFSA05.jpg,AFNE15.jpg,FN,3,num_6,16,num_6,0.566813768586,,,2017_Sep_15_1535,59.9883593483,FEMA4ImagesEEG,001,201552,
AFNE01.JPG,AFNE01.JPG,AFNE01.JPG,AFNE01.JPG,AFNE01.JPG,AFNE01.JPG,,,,,,,,,5,5,55,3,,,,,,,,,,,,,,,AFSA17.jpg,AFSA10.jpg,AFNE03.jpg,AFNE14.jpg,AFNE14.jpg,FN,3,num_4,32,num_6,1.68360407511,,,2017_Sep_15_1535,59.9883593483,FEMA4ImagesEEG,001,201552,
AFNE01.JPG,AFNE01.JPG,AFNE01.JPG,AFNE01.JPG,AFNE01.JPG,AFNE01.JPG,,,,,,,,,5,6,56,6,,,,,,,,,,,,,,,AFNE11.jpg,AFSA20.jpg,AFNE04.jpg,AFSA11.jpg,AFSA20.jpg,FS,4,num_6,32,num_8,1.01677981834,,,2017_Sep_15_1535,59.9883593483,FEMA4ImagesEEG,001,201552,
AFNE01.JPG,AFNE01.JPG,AFNE01.JPG,AFNE01.JPG,AFNE01.JPG,AFNE01.JPG,,,,,,,,,5,7,57,5,,,,,,,,,,,,,,,AFNE16.jpg,AFSA11.jpg,AFSA20.jpg,AFNE17.jpg,AFSA20.jpg,FS,4,num_2,32,num_4,1.10012595449,,,2017_Sep_15_1535,59.9883593483,FEMA4ImagesEEG,001,201552,
AFNE01.JPG,AFNE01.JPG,AFNE01.JPG,AFNE01.JPG,AFNE01.JPG,AFNE01.JPG,,,,,,,,,5,8,58,7,,,,,,,,,,,,,,,AFNE09.jpg,AFSA16.jpg,AFNE02.jpg,AFSA14.jpg,AFSA16.jpg,FS,4,num_6,32,num_8,1.33341950527,,,2017_Sep_15_1535,59.9883593483,FEMA4ImagesEEG,001,201552,
AFNE01.JPG,AFNE01.JPG,AFNE01.JPG,AFNE01.JPG,AFNE01.JPG,AFNE01.JPG,,,,,,,,,5,9,59,4,,,,,,,,,,,,,,,AFNE02.jpg,AFNE08.jpg,AFSA02.jpg,AFSA04.jpg,AFNE02.jpg,FN,3,num_8,16,num_8,2.93332046084,,,2017_Sep_15_1535,59.9883593483,FEMA4ImagesEEG,001,201552,
,,,,,,,,,,,,,,,,,,,,,,,,,,,,,,,,,,,,,,,,,,,space,46.7131935956,2017_Sep_15_1535,59.9883593483,FEMA4ImagesEEG,001,201552,
AFNE01.JPG,AFNE01.JPG,AFNE01.JPG,AFNE01.JPG,AFNE01.JPG,AFNE01.JPG,,,,,,,,,,,,,0,0,0,4,,,,,,,,,,,AMSA15.jpg,AMNE09.jpg,AMSA02.jpg,AMNE06.jpg,AMNE09.jpg,MN,1,num_6,32,num_4,1.05009825854,,,2017_Sep_15_1535,59.9883593483,FEMA4ImagesEEG,001,201552,
AFNE01.JPG,AFNE01.JPG,AFNE01.JPG,AFNE01.JPG,AFNE01.JPG,AFNE01.JPG,,,,,,,,,,,,,0,1,1,0,,,,,,,,,,,AMSA06.jpg,AMNE11.jpg,AMSA10.jpg,AMNE09.jpg,AMSA06.jpg,MS,2,num_8,16,num_8,1.0001337484,,,2017_Sep_15_1535,59.9883593483,FEMA4ImagesEEG,001,201552,
AFNE01.JPG,AFNE01.JPG,AFNE01.JPG,AFNE01.JPG,AFNE01.JPG,AFNE01.JPG,,,,,,,,,,,,,0,2,2,9,,,,,,,,,,,AMNE12.jpg,AMSA09.jpg,AMNE13.jpg,AMSA01.jpg,AMNE12.jpg,MN,1,num_8,16,num_8,1.40014234441,,,2017_Sep_15_1535,59.9883593483,FEMA4ImagesEEG,001,201552,
AFNE01.JPG,AFNE01.JPG,AFNE01.JPG,AFNE01.JPG,AFNE01.JPG,AFNE01.JPG,,,,,,,,,,,,,0,3,3,8,,,,,,,,,,,AMNE05.jpg,AMSA04.jpg,AMSA18.jpg,AMNE02.jpg,AMNE02.jpg,MN,1,num_4,16,num_4,1.51669177506,,,2017_Sep_15_1535,59.9883593483,FEMA4ImagesEEG,001,201552,
AFNE01.JPG,AFNE01.JPG,AFNE01.JPG,AFNE01.JPG,AFNE01.JPG,AFNE01.JPG,,,,,,,,,,,,,0,4,4,6,,,,,,,,,,,AMNE04.jpg,AMNE18.jpg,AMSA17.jpg,AMSA16.jpg,AMSA17.jpg,MS,2,num_2,16,num_2,1.84990857309,,,2017_Sep_15_1535,59.9883593483,FEMA4ImagesEEG,001,201552,
AFNE01.JPG,AFNE01.JPG,AFNE01.JPG,AFNE01.JPG,AFNE01.JPG,AFNE01.JPG,,,,,,,,,,,,,0,5,5,2,,,,,,,,,,,AMNE02.jpg,AMNE12.jpg,AMSA15.jpg,AMSA17.jpg,AMSA17.jpg,MS,2,num_4,16,num_4,1.6334118396,,,2017_Sep_15_1535,59.9883593483,FEMA4ImagesEEG,001,201552,
AFNE01.JPG,AFNE01.JPG,AFNE01.JPG,AFNE01.JPG,AFNE01.JPG,AFNE01.JPG,,,,,,,,,,,,,0,6,6,3,,,,,,,,,,,AMSA03.jpg,AMNE03.jpg,AMNE09.jpg,AMSA16.jpg,AMNE03.jpg,MN,1,num_6,32,num_4,0.800126563758,,,2017_Sep_15_1535,59.9883593483,FEMA4ImagesEEG,001,201552,
AFNE01.JPG,AFNE01.JPG,AFNE01.JPG,AFNE01.JPG,AFNE01.JPG,AFNE01.JPG,,,,,,,,,,,,,0,7,7,7,,,,,,,,,,,AMNE08.jpg,AMNE04.jpg,AMSA03.jpg,AMSA12.jpg,AMSA03.jpg,MS,2,num_2,16,num_2,0.883464681683,,,2017_Sep_15_1535,59.9883593483,FEMA4ImagesEEG,001,201552,
AFNE01.JPG,AFNE01.JPG,AFNE01.JPG,AFNE01.JPG,AFNE01.JPG,AFNE01.JPG,,,,,,,,,,,,,0,8,8,1,,,,,,,,,,,AMSA05.jpg,AMNE14.jpg,AMNE17.jpg,AMSA13.jpg,AMSA05.jpg,MS,2,num_8,32,num_6,3.14991662372,,,2017_Sep_15_1535,59.9883593483,FEMA4ImagesEEG,001,201552,
AFNE01.JPG,AFNE01.JPG,AFNE01.JPG,AFNE01.JPG,AFNE01.JPG,AFNE01.JPG,,,,,,,,,,,,,0,9,9,5,,,,,,,,,,,AMSA16.jpg,AMSA06.jpg,AMNE13.jpg,AMNE03.jpg,AMSA16.jpg,MS,2,num_8,16,num_8,2.86660531978,,,2017_Sep_15_1535,59.9883593483,FEMA4ImagesEEG,001,201552,
AFNE01.JPG,AFNE01.JPG,AFNE01.JPG,AFNE01.JPG,AFNE01.JPG,AFNE01.JPG,,,,,,,,,,,,,1,0,10,0,,,,,,,,,,,AMSA01.jpg,AMNE09.jpg,AMSA06.jpg,AMNE04.jpg,AMSA06.jpg,MS,2,num_2,32,num_6,0.766864253208,,,2017_Sep_15_1535,59.9883593483,FEMA4ImagesEEG,001,201552,
AFNE01.JPG,AFNE01.JPG,AFNE01.JPG,AFNE01.JPG,AFNE01.JPG,AFNE01.JPG,,,,,,,,,,,,,1,1,11,8,,,,,,,,,,,AMSA19.jpg,AMNE19.jpg,AMSA01.jpg,AMNE08.jpg,AMSA01.jpg,MS,2,num_2,32,num_4,0.81687847781,,,2017_Sep_15_1535,59.9883593483,FEMA4ImagesEEG,001,201552,
AFNE01.JPG,AFNE01.JPG,AFNE01.JPG,AFNE01.JPG,AFNE01.JPG,AFNE01.JPG,,,,,,,,,,,,,1,2,12,3,,,,,,,,,,,AMNE01.jpg,AMSA18.jpg,AMNE07.jpg,AMSA20.jpg,AMNE01.jpg,MN,1,num_8,32,num_2,1.83337219618,,,2017_Sep_15_1535,59.9883593483,FEMA4ImagesEEG,001,201552,
AFNE01.JPG,AFNE01.JPG,AFNE01.JPG,AFNE01.JPG,AFNE01.JPG,AFNE01.JPG,,,,,,,,,,,,,1,3,13,2,,,,,,,,,,,AMNE01.jpg,AMSA20.jpg,AMNE02.jpg,AMSA09.jpg,AMSA09.jpg,MS,2,num_4,16,num_4,0.916750727221,,,2017_Sep_15_1535,59.9883593483,FEMA4ImagesEEG,001,201552,
AFNE01.JPG,AFNE01.JPG,AFNE01.JPG,AFNE01.JPG,AFNE01.JPG,AFNE01.JPG,,,,,,,,,,,,,1,4,14,4,,,,,,,,,,,AMNE06.jpg,AMSA17.jpg,AMNE07.jpg,AMSA02.jpg,AMNE06.jpg,MN,1,num_8,32,num_6,2.25000505149,,,2017_Sep_15_1535,59.9883593483,FEMA4ImagesEEG,001,201552,
AFNE01.JPG,AFNE01.JPG,AFNE01.JPG,AFNE01.JPG,AFNE01.JPG,AFNE01.JPG,,,,,,,,,,,,,1,5,15,6,,,,,,,,,,,AMSA01.jpg,AMNE15.jpg,AMSA03.jpg,AMNE03.jpg,AMSA03.jpg,MS,2,num_2,16,num_2,1.78337497055,,,2017_Sep_15_1535,59.9883593483,FEMA4ImagesEEG,001,201552,
AFNE01.JPG,AFNE01.JPG,AFNE01.JPG,AFNE01.JPG,AFNE01.JPG,AFNE01.JPG,,,,,,,,,,,,,1,6,16,5,,,,,,,,,,,AMSA10.jpg,AMNE18.jpg,AMNE10.jpg,AMSA07.jpg,AMSA07.jpg,MS,2,num_4,32,num_2,1.08341894415,,,2017_Sep_15_1535,59.9883593483,FEMA4ImagesEEG,001,201552,
AFNE01.JPG,AFNE01.JPG,AFNE01.JPG,AFNE01.JPG,AFNE01.JPG,AFNE01.JPG,,,,,,,,,,,,,1,7,17,9,,,,,,,,,,,AMNE18.jpg,AMSA13.jpg,AMNE17.jpg,AMSA10.jpg,AMSA13.jpg,MS,2,num_6,16,num_6,0.800269934582,,,2017_Sep_15_1535,59.9883593483,FEMA4ImagesEEG,001,201552,
AFNE01.JPG,AFNE01.JPG,AFNE01.JPG,AFNE01.JPG,AFNE01.JPG,AFNE01.JPG,,,,,,,,,,,,,1,8,18,1,,,,,,,,,,,AMNE15.jpg,AMNE01.jpg,AMSA08.jpg,AMSA07.jpg,AMNE15.jpg,MN,1,num_8,32,num_2,2.4000195011,,,2017_Sep_15_1535,59.9883593483,FEMA4ImagesEEG,001,201552,
AFNE01.JPG,AFNE01.JPG,AFNE01.JPG,AFNE01.JPG,AFNE01.JPG,AFNE01.JPG,,,,,,,,,,,,,1,9,19,7,,,,,,,,,,,AMNE12.jpg,AMSA02.jpg,AMNE09.jpg,AMSA10.jpg,AMSA10.jpg,MS,2,num_4,16,num_4,0.700124735711,,,2017_Sep_15_1535,59.9883593483,FEMA4ImagesEEG,001,201552,
AFNE01.JPG,AFNE01.JPG,AFNE01.JPG,AFNE01.JPG,AFNE01.JPG,AFNE01.JPG,,,,,,,,,,,,,2,0,20,5,,,,,,,,,,,AMNE18.jpg,AMSA07.jpg,AMNE11.jpg,AMSA20.jpg,AMSA20.jpg,MS,2,num_4,16,num_4,2.26663572597,,,2017_Sep_15_1535,59.9883593483,FEMA4ImagesEEG,001,201552,
AFNE01.JPG,AFNE01.JPG,AFNE01.JPG,AFNE01.JPG,AFNE01.JPG,AFNE01.JPG,,,,,,,,,,,,,2,1,21,8,,,,,,,,,,,AMSA01.jpg,AMNE11.jpg,AMSA17.jpg,AMNE04.jpg,AMSA01.jpg,MS,2,num_8,16,num_8,1.63342210348,,,2017_Sep_15_1535,59.9883593483,FEMA4ImagesEEG,001,201552,
AFNE01.JPG,AFNE01.JPG,AFNE01.JPG,AFNE01.JPG,AFNE01.JPG,AFNE01.JPG,,,,,,,,,,,,,2,2,22,2,,,,,,,,,,,AMNE13.jpg,AMNE05.jpg,AMSA05.jpg,AMSA13.jpg,AMNE05.jpg,MN,1,num_6,16,num_6,0.816743767122,,,2017_Sep_15_1535,59.9883593483,FEMA4ImagesEEG,001,201552,
AFNE01.JPG,AFNE01.JPG,AFNE01.JPG,AFNE01.JPG,AFNE01.JPG,AFNE01.JPG,,,,,,,,,,,,,2,3,23,1,,,,,,,,,,,AMSA05.jpg,AMNE05.jpg,AMSA12.jpg,AMNE01.jpg,AMNE01.jpg,MN,1,num_4,16,num_4,1.73340212111,,,2017_Sep_15_1535,59.9883593483,FEMA4ImagesEEG,001,201552,
AFNE01.JPG,AFNE01.JPG,AFNE01.JPG,AFNE01.JPG,AFNE01.JPG,AFNE01.JPG,,,,,,,,,,,,,2,4,24,4,,,,,,,,,,,AMSA05.jpg,AMNE04.jpg,AMSA02.jpg,AMNE06.jpg,AMSA05.jpg,MS,2,num_8,32,num_2,0.883481360041,,,2017_Sep_15_1535,59.9883593483,FEMA4ImagesEEG,001,201552,
AFNE01.JPG,AFNE01.JPG,AFNE01.JPG,AFNE01.JPG,AFNE01.JPG,AFNE01.JPG,,,,,,,,,,,,,2,5,25,6,,,,,,,,,,,AMSA01.jpg,AMNE06.jpg,AMNE04.jpg,AMSA17.jpg,AMSA01.jpg,MS,2,num_8,32,num_6,0.716787163168,,,2017_Sep_15_1535,59.9883593483,FEMA4ImagesEEG,001,201552,
AFNE01.JPG,AFNE01.JPG,AFNE01.JPG,AFNE01.JPG,AFNE01.JPG,AFNE01.JPG,,,,,,,,,,,,,2,6,26,3,,,,,,,,,,,AMNE03.jpg,AMSA08.jpg,AMNE18.jpg,AMSA19.jpg,AMSA19.jpg,MS,2,num_4,16,num_4,1.16709191422,,,2017_Sep_15_1535,59.9883593483,FEMA4ImagesEEG,001,201552,
AFNE01.JPG,AFNE01.JPG,AFNE01.JPG,AFNE01.JPG,AFNE01.JPG,AFNE01.JPG,,,,,,,,,,,,,2,7,27,9,,,,,,,,,,,AMNE14.jpg,AMNE04.jpg,AMSA11.jpg,AMSA14.jpg,AMSA11.jpg,MS,2,num_2,32,num_6,1.03343679337,,,2017_Sep_15_1535,59.9883593483,FEMA4ImagesEEG,001,201552,
AFNE01.JPG,AFNE01.JPG,AFNE01.JPG,AFNE01.JPG,AFNE01.JPG,AFNE01.JPG,,,,,,,,,,,,,2,8,28,0,,,,,,,,,,,AMNE11.jpg,AMSA20.jpg,AMNE01.jpg,AMSA04.jpg,AMNE01.jpg,MN,1,num_2,32,num_4,0.933425022056,,,2017_Sep_15_1535,59.9883593483,FEMA4ImagesEEG,001,201552,
AFNE01.JPG,AFNE01.JPG,AFNE01.JPG,AFNE01.JPG,AFNE01.JPG,AFNE01.JPG,,,,,,,,,,,,,2,9,29,7,,,,,,,,,,,AMNE19.jpg,AMSA18.jpg,AMNE04.jpg,AMSA16.jpg,AMNE04.jpg,MN,1,num_2,16,num_2,1.50005693152,,,2017_Sep_15_1535,59.9883593483,FEMA4ImagesEEG,001,201552,
AFNE01.JPG,AFNE01.JPG,AFNE01.JPG,AFNE01.JPG,AFNE01.JPG,AFNE01.JPG,,,,,,,,,,,,,3,0,30,7,,,,,,,,,,,AMSA02.jpg,AMNE04.jpg,AMSA15.jpg,AMNE17.jpg,AMSA02.jpg,MS,2,num_8,32,num_2,1.25006053969,,,2017_Sep_15_1535,59.9883593483,FEMA4ImagesEEG,001,201552,
AFNE01.JPG,AFNE01.JPG,AFNE01.JPG,AFNE01.JPG,AFNE01.JPG,AFNE01.JPG,,,,,,,,,,,,,3,1,31,6,,,,,,,,,,,AMNE16.jpg,AMNE20.jpg,AMSA01.jpg,AMSA14.jpg,AMSA14.jpg,MS,2,num_4,32,num_2,1.18339350936,,,2017_Sep_15_1535,59.9883593483,FEMA4ImagesEEG,001,201552,
AFNE01.JPG,AFNE01.JPG,AFNE01.JPG,AFNE01.JPG,AFNE01.JPG,AFNE01.JPG,,,,,,,,,,,,,3,2,32,8,,,,,,,,,,,AMNE07.jpg,AMNE05.jpg,AMSA11.jpg,AMSA06.jpg,AMNE05.jpg,MN,1,num_6,16,num_6,1.78342532692,,,2017_Sep_15_1535,59.9883593483,FEMA4ImagesEEG,001,201552,
AFNE01.JPG,AFNE01.JPG,AFNE01.JPG,AFNE01.JPG,AFNE01.JPG,AFNE01.JPG,,,,,,,,,,,,,3,3,33,1,,,,,,,,,,,AMSA10.jpg,AMSA13.jpg,AMNE10.jpg,AMNE11.jpg,AMNE10.jpg,MN,1,num_2,32,num_8,2.03336847574,,,2017_Sep_15_1535,59.9883593483,FEMA4ImagesEEG,001,201552,
AFNE01.JPG,AFNE01.JPG,AFNE01.JPG,AFNE01.JPG,AFNE01.JPG,AFNE01.JPG,,,,,,,,,,,,,3,4,34,9,,,,,,,,,,,AMSA06.jpg,AMSA19.jpg,AMNE01.jpg,AMNE16.jpg,AMNE01.jpg,MN,1,num_2,32,num_8,1.83340811916,,,2017_Sep_15_1535,59.9883593483,FEMA4ImagesEEG,001,201552,
AFNE01.JPG,AFNE01.JPG,AFNE01.JPG,AFNE01.JPG,AFNE01.JPG,AFNE01.JPG,,,,,,,,,,,,,3,5,35,4,,,,,,,,,,,AMNE19.jpg,AMSA07.jpg,AMSA17.jpg,AMNE07.jpg,AMNE19.jpg,MN,1,num_8,32,num_2,3.06667569024,,,2017_Sep_15_1535,59.9883593483,FEMA4ImagesEEG,001,201552,
AFNE01.JPG,AFNE01.JPG,AFNE01.JPG,AFNE01.JPG,AFNE01.JPG,AFNE01.JPG,,,,,,,,,,,,,3,6,36,0,,,,,,,,,,,AMSA10.jpg,AMNE07.jpg,AMSA02.jpg,AMNE18.jpg,AMNE07.jpg,MN,1,num_6,32,num_4,1.41671720985,,,2017_Sep_15_1535,59.9883593483,FEMA4ImagesEEG,001,201552,
AFNE01.JPG,AFNE01.JPG,AFNE01.JPG,AFNE01.JPG,AFNE01.JPG,AFNE01.JPG,,,,,,,,,,,,,3,7,37,3,,,,,,,,,,,AMNE09.jpg,AMSA09.jpg,AMSA06.jpg,AMNE13.jpg,AMNE13.jpg,MN,1,num_4,16,num_4,1.21673023188,,,2017_Sep_15_1535,59.9883593483,FEMA4ImagesEEG,001,201552,
AFNE01.JPG,AFNE01.JPG,AFNE01.JPG,AFNE01.JPG,AFNE01.JPG,AFNE01.JPG,,,,,,,,,,,,,3,8,38,2,,,,,,,,,,,AMSA10.jpg,AMNE06.jpg,AMSA13.jpg,AMNE12.jpg,AMSA10.jpg,MS,2,num_8,32,num_6,0.833533849102,,,2017_Sep_15_1535,59.9883593483,FEMA4ImagesEEG,001,201552,
AFNE01.JPG,AFNE01.JPG,AFNE01.JPG,AFNE01.JPG,AFNE01.JPG,AFNE01.JPG,,,,,,,,,,,,,3,9,39,5,,,,,,,,,,,AMSA08.jpg,AMSA01.jpg,AMNE20.jpg,AMNE15.jpg,AMSA01.jpg,MS,2,num_6,32,num_2,2.93339583464,,,2017_Sep_15_1535,59.9883593483,FEMA4ImagesEEG,001,201552,
AFNE01.JPG,AFNE01.JPG,AFNE01.JPG,AFNE01.JPG,AFNE01.JPG,AFNE01.JPG,,,,,,,,,,,,,4,0,40,6,,,,,,,,,,,AMNE18.jpg,AMSA05.jpg,AMSA11.jpg,AMNE10.jpg,AMNE18.jpg,MN,1,num_8,32,num_4,1.06676164828,,,2017_Sep_15_1535,59.9883593483,FEMA4ImagesEEG,001,201552,
AFNE01.JPG,AFNE01.JPG,AFNE01.JPG,AFNE01.JPG,AFNE01.JPG,AFNE01.JPG,,,,,,,,,,,,,4,1,41,3,,,,,,,,,,,AMSA20.jpg,AMNE11.jpg,AMNE10.jpg,AMSA07.jpg,AMSA07.jpg,MS,2,num_4,32,num_2,1.26678551128,,,2017_Sep_15_1535,59.9883593483,FEMA4ImagesEEG,001,201552,
AFNE01.JPG,AFNE01.JPG,AFNE01.JPG,AFNE01.JPG,AFNE01.JPG,AFNE01.JPG,,,,,,,,,,,,,4,2,42,9,,,,,,,,,,,AMSA14.jpg,AMNE10.jpg,AMNE18.jpg,AMSA06.jpg,AMSA06.jpg,MS,2,num_4,16,num_4,1.46673977398,,,2017_Sep_15_1535,59.9883593483,FEMA4ImagesEEG,001,201552,
AFNE01.JPG,AFNE01.JPG,AFNE01.JPG,AFNE01.JPG,AFNE01.JPG,AFNE01.JPG,,,,,,,,,,,,,4,3,43,8,,,,,,,,,,,AMNE17.jpg,AMSA13.jpg,AMNE15.jpg,AMSA17.jpg,AMSA17.jpg,MS,2,num_4,32,num_6,2.29997308995,,,2017_Sep_15_1535,59.9883593483,FEMA4ImagesEEG,001,201552,
AFNE01.JPG,AFNE01.JPG,AFNE01.JPG,AFNE01.JPG,AFNE01.JPG,AFNE01.JPG,,,,,,,,,,,,,4,4,44,4,,,,,,,,,,,AMSA08.jpg,AMSA07.jpg,AMNE20.jpg,AMNE12.jpg,AMNE12.jpg,MN,1,num_4,32,num_8,2.83329874696,,,2017_Sep_15_1535,59.9883593483,FEMA4ImagesEEG,001,201552,
AFNE01.JPG,AFNE01.JPG,AFNE01.JPG,AFNE01.JPG,AFNE01.JPG,AFNE01.JPG,,,,,,,,,,,,,4,5,45,0,,,,,,,,,,,AMNE04.jpg,AMSA03.jpg,AMSA01.jpg,AMNE16.jpg,AMNE04.jpg,MN,1,num_8,32,num_2,0.983411663212,,,2017_Sep_15_1535,59.9883593483,FEMA4ImagesEEG,001,201552,
AFNE01.JPG,AFNE01.JPG,AFNE01.JPG,AFNE01.JPG,AFNE01.JPG,AFNE01.JPG,,,,,,,,,,,,,4,6,46,1,,,,,,,,,,,AMSA06.jpg,AMSA19.jpg,AMNE10.jpg,AMNE18.jpg,AMSA06.jpg,MS,2,num_8,32,num_4,2.08342696261,,,2017_Sep_15_1535,59.9883593483,FEMA4ImagesEEG,001,201552,
AFNE01.JPG,AFNE01.JPG,AFNE01.JPG,AFNE01.JPG,AFNE01.JPG,AFNE01.JPG,,,,,,,,,,,,,4,7,47,7,,,,,,,,,,,AMNE14.jpg,AMSA04.jpg,AMSA13.jpg,AMNE02.jpg,AMSA04.jpg,MS,2,num_6,48,None,,,,2017_Sep_15_1535,59.9883593483,FEMA4ImagesEEG,001,201552,
AFNE01.JPG,AFNE01.JPG,AFNE01.JPG,AFNE01.JPG,AFNE01.JPG,AFNE01.JPG,,,,,,,,,,,,,4,8,48,5,,,,,,,,,,,AMSA06.jpg,AMSA09.jpg,AMNE04.jpg,AMNE01.jpg,AMSA09.jpg,MS,2,num_6,32,num_8,1.31672821124,,,2017_Sep_15_1535,59.9883593483,FEMA4ImagesEEG,001,201552,
AFNE01.JPG,AFNE01.JPG,AFNE01.JPG,AFNE01.JPG,AFNE01.JPG,AFNE01.JPG,,,,,,,,,,,,,4,9,49,2,,,,,,,,,,,AMSA19.jpg,AMNE14.jpg,AMSA11.jpg,AMNE17.jpg,AMNE14.jpg,MN,1,num_6,16,num_6,0.633488175692,,,2017_Sep_15_1535,59.9883593483,FEMA4ImagesEEG,001,201552,
AFNE01.JPG,AFNE01.JPG,AFNE01.JPG,AFNE01.JPG,AFNE01.JPG,AFNE01.JPG,,,,,,,,,,,,,5,0,50,4,,,,,,,,,,,AMSA01.jpg,AMNE14.jpg,AMSA10.jpg,AMNE05.jpg,AMSA01.jpg,MS,2,num_8,32,num_6,0.783434628276,,,2017_Sep_15_1535,59.9883593483,FEMA4ImagesEEG,001,201552,
AFNE01.JPG,AFNE01.JPG,AFNE01.JPG,AFNE01.JPG,AFNE01.JPG,AFNE01.JPG,,,,,,,,,,,,,5,1,51,0,,,,,,,,,,,AMNE07.jpg,AMSA17.jpg,AMSA20.jpg,AMNE06.jpg,AMSA17.jpg,MS,2,num_6,32,num_8,1.63339002943,,,2017_Sep_15_1535,59.9883593483,FEMA4ImagesEEG,001,201552,
AFNE01.JPG,AFNE01.JPG,AFNE01.JPG,AFNE01.JPG,AFNE01.JPG,AFNE01.JPG,,,,,,,,,,,,,5,2,52,1,,,,,,,,,,,AMSA01.jpg,AMNE08.jpg,AMSA03.jpg,AMNE10.jpg,AMSA03.jpg,MS,2,num_2,16,num_2,0.600130925886,,,2017_Sep_15_1535,59.9883593483,FEMA4ImagesEEG,001,201552,
AFNE01.JPG,AFNE01.JPG,AFNE01.JPG,AFNE01.JPG,AFNE01.JPG,AFNE01.JPG,,,,,,,,,,,,,5,3,53,6,,,,,,,,,,,AMNE11.jpg,AMSA12.jpg,AMNE04.jpg,AMSA14.jpg,AMSA12.jpg,MS,2,num_6,16,num_6,1.15023672185,,,2017_Sep_15_1535,59.9883593483,FEMA4ImagesEEG,001,201552,
AFNE01.JPG,AFNE01.JPG,AFNE01.JPG,AFNE01.JPG,AFNE01.JPG,AFNE01.JPG,,,,,,,,,,,,,5,4,54,2,,,,,,,,,,,AMNE07.jpg,AMSA12.jpg,AMSA20.jpg,AMNE17.jpg,AMSA20.jpg,MS,2,num_2,32,num_8,0.916781197302,,,2017_Sep_15_1535,59.9883593483,FEMA4ImagesEEG,001,201552,
AFNE01.JPG,AFNE01.JPG,AFNE01.JPG,AFNE01.JPG,AFNE01.JPG,AFNE01.JPG,,,,,,,,,,,,,5,5,55,7,,,,,,,,,,,AMSA10.jpg,AMSA09.jpg,AMNE12.jpg,AMNE07.jpg,AMNE12.jpg,MN,1,num_2,32,num_6,1.80002328567,,,2017_Sep_15_1535,59.9883593483,FEMA4ImagesEEG,001,201552,
AFNE01.JPG,AFNE01.JPG,AFNE01.JPG,AFNE01.JPG,AFNE01.JPG,AFNE01.JPG,,,,,,,,,,,,,5,6,56,8,,,,,,,,,,,AMNE17.jpg,AMSA20.jpg,AMNE16.jpg,AMSA02.jpg,AMSA02.jpg,MS,2,num_4,16,num_4,3.56655942206,,,2017_Sep_15_1535,59.9883593483,FEMA4ImagesEEG,001,201552,
AFNE01.JPG,AFNE01.JPG,AFNE01.JPG,AFNE01.JPG,AFNE01.JPG,AFNE01.JPG,,,,,,,,,,,,,5,7,57,5,,,,,,,,,,,AMSA01.jpg,AMNE12.jpg,AMSA17.jpg,AMNE14.jpg,AMSA17.jpg,MS,2,num_2,16,num_2,3.11655231752,,,2017_Sep_15_1535,59.9883593483,FEMA4ImagesEEG,001,201552,
AFNE01.JPG,AFNE01.JPG,AFNE01.JPG,AFNE01.JPG,AFNE01.JPG,AFNE01.JPG,,,,,,,,,,,,,5,8,58,3,,,,,,,,,,,AMNE05.jpg,AMSA04.jpg,AMNE11.jpg,AMSA02.jpg,AMNE11.jpg,MN,1,num_2,16,num_2,1.08350810991,,,2017_Sep_15_1535,59.9883593483,FEMA4ImagesEEG,001,201552,
AFNE01.JPG,AFNE01.JPG,AFNE01.JPG,AFNE01.JPG,AFNE01.JPG,AFNE01.JPG,,,,,,,,,,,,,5,9,59,9,,,,,,,,,,,AMSA01.jpg,AMSA19.jpg,AMNE04.jpg,AMNE02.jpg,AMSA01.jpg,MS,2,num_8,16,num_8,0.85020686104,,,2017_Sep_15_1535,59.9883593483,FEMA4ImagesEEG,001,201552,
,,,,,,,,,,,,,,,,,,,,,,,,,,,,,,,,,,,,,,,,,,,space,43.6634228122,2017_Sep_15_1535,59.9883593483,FEMA4ImagesEEG,001,201552,
AFNE01.JPG,AFNE01.JPG,AFNE01.JPG,AFNE01.JPG,AFNE01.JPG,AFNE01.JPG,,,,,,,,,,,,,,,,,0,0,0,7,,,,,,,AFSA06.jpg,AFSA17.jpg,AFNE05.jpg,AFNE10.jpg,AFSA17.jpg,FS,4,num_6,32,num_4,1.65026639029,,,2017_Sep_15_1535,59.9883593483,FEMA4ImagesEEG,001,201552,
AFNE01.JPG,AFNE01.JPG,AFNE01.JPG,AFNE01.JPG,AFNE01.JPG,AFNE01.JPG,,,,,,,,,,,,,,,,,0,1,1,4,,,,,,,AFSA08.jpg,AFSA19.jpg,AFNE04.jpg,AFNE18.jpg,AFSA19.jpg,FS,4,num_6,16,num_6,1.83339272346,,,2017_Sep_15_1535,59.9883593483,FEMA4ImagesEEG,001,201552,
AFNE01.JPG,AFNE01.JPG,AFNE01.JPG,AFNE01.JPG,AFNE01.JPG,AFNE01.JPG,,,,,,,,,,,,,,,,,0,2,2,2,,,,,,,AFSA05.jpg,AFSA09.jpg,AFNE04.jpg,AFNE20.jpg,AFNE04.jpg,FN,3,num_2,32,num_4,0.866755105322,,,2017_Sep_15_1535,59.9883593483,FEMA4ImagesEEG,001,201552,
AFNE01.JPG,AFNE01.JPG,AFNE01.JPG,AFNE01.JPG,AFNE01.JPG,AFNE01.JPG,,,,,,,,,,,,,,,,,0,3,3,6,,,,,,,AFNE18.jpg,AFSA10.jpg,AFSA15.jpg,AFNE07.jpg,AFSA10.jpg,FS,4,num_6,32,num_8,1.8499560426,,,2017_Sep_15_1535,59.9883593483,FEMA4ImagesEEG,001,201552,
AFNE01.JPG,AFNE01.JPG,AFNE01.JPG,AFNE01.JPG,AFNE01.JPG,AFNE01.JPG,,,,,,,,,,,,,,,,,0,4,4,9,,,,,,,AFSA05.jpg,AFNE04.jpg,AFNE14.jpg,AFSA18.jpg,AFNE14.jpg,FN,3,num_2,16,num_2,1.25011025439,,,2017_Sep_15_1535,59.9883593483,FEMA4ImagesEEG,001,201552,
AFNE01.JPG,AFNE01.JPG,AFNE01.JPG,AFNE01.JPG,AFNE01.JPG,AFNE01.JPG,,,,,,,,,,,,,,,,,0,5,5,8,,,,,,,AFSA10.jpg,AFSA19.jpg,AFNE07.jpg,AFNE10.jpg,AFSA10.jpg,FS,4,num_8,32,num_4,1.64989369083,,,2017_Sep_15_1535,59.9883593483,FEMA4ImagesEEG,001,201552,
AFNE01.JPG,AFNE01.JPG,AFNE01.JPG,AFNE01.JPG,AFNE01.JPG,AFNE01.JPG,,,,,,,,,,,,,,,,,0,6,6,0,,,,,,,AFSA09.jpg,AFNE13.jpg,AFNE20.jpg,AFSA12.jpg,AFNE13.jpg,FN,3,num_6,16,num_6,0.783440722385,,,2017_Sep_15_1535,59.9883593483,FEMA4ImagesEEG,001,201552,
AFNE01.JPG,AFNE01.JPG,AFNE01.JPG,AFNE01.JPG,AFNE01.JPG,AFNE01.JPG,,,,,,,,,,,,,,,,,0,7,7,1,,,,,,,AFSA02.jpg,AFSA18.jpg,AFNE14.jpg,AFNE02.jpg,AFNE02.jpg,FN,3,num_4,32,num_6,1.58343834896,,,2017_Sep_15_1535,59.9883593483,FEMA4ImagesEEG,001,201552,
AFNE01.JPG,AFNE01.JPG,AFNE01.JPG,AFNE01.JPG,AFNE01.JPG,AFNE01.JPG,,,,,,,,,,,,,,,,,0,8,8,5,,,,,,,AFSA01.jpg,AFNE12.jpg,AFSA17.jpg,AFNE02.jpg,AFNE02.jpg,FN,3,num_4,32,num_6,0.650068814866,,,2017_Sep_15_1535,59.9883593483,FEMA4ImagesEEG,001,201552,
AFNE01.JPG,AFNE01.JPG,AFNE01.JPG,AFNE01.JPG,AFNE01.JPG,AFNE01.JPG,,,,,,,,,,,,,,,,,0,9,9,3,,,,,,,AFNE02.jpg,AFSA01.jpg,AFSA05.jpg,AFNE01.jpg,AFNE02.jpg,FN,3,num_8,16,num_8,2.08332432597,,,2017_Sep_15_1535,59.9883593483,FEMA4ImagesEEG,001,201552,
AFNE01.JPG,AFNE01.JPG,AFNE01.JPG,AFNE01.JPG,AFNE01.JPG,AFNE01.JPG,,,,,,,,,,,,,,,,,1,0,10,5,,,,,,,AFSA18.jpg,AFNE05.jpg,AFNE09.jpg,AFSA17.jpg,AFSA17.jpg,FS,4,num_4,48,None,,,,2017_Sep_15_1535,59.9883593483,FEMA4ImagesEEG,001,201552,
AFNE01.JPG,AFNE01.JPG,AFNE01.JPG,AFNE01.JPG,AFNE01.JPG,AFNE01.JPG,,,,,,,,,,,,,,,,,1,1,11,0,,,,,,,AFNE11.jpg,AFNE04.jpg,AFSA04.jpg,AFSA19.jpg,AFNE04.jpg,FN,3,num_6,16,num_6,0.933575128205,,,2017_Sep_15_1535,59.9883593483,FEMA4ImagesEEG,001,201552,
AFNE01.JPG,AFNE01.JPG,AFNE01.JPG,AFNE01.JPG,AFNE01.JPG,AFNE01.JPG,,,,,,,,,,,,,,,,,1,2,12,1,,,,,,,AFNE10.jpg,AFSA07.jpg,AFSA11.jpg,AFNE03.jpg,AFNE10.jpg,FN,3,num_8,32,num_2,0.883468530606,,,2017_Sep_15_1535,59.9883593483,FEMA4ImagesEEG,001,201552,
AFNE01.JPG,AFNE01.JPG,AFNE01.JPG,AFNE01.JPG,AFNE01.JPG,AFNE01.JPG,,,,,,,,,,,,,,,,,1,3,13,9,,,,,,,AFSA06.jpg,AFNE20.jpg,AFNE03.jpg,AFSA19.jpg,AFSA06.jpg,FS,4,num_8,32,num_4,0.950113108847,,,2017_Sep_15_1535,59.9883593483,FEMA4ImagesEEG,001,201552,
AFNE01.JPG,AFNE01.JPG,AFNE01.JPG,AFNE01.JPG,AFNE01.JPG,AFNE01.JPG,,,,,,,,,,,,,,,,,1,4,14,2,,,,,,,AFNE08.jpg,AFSA03.jpg,AFNE02.jpg,AFSA01.jpg,AFSA01.jpg,FS,4,num_4,16,num_4,0.71675348538,,,2017_Sep_15_1535,59.9883593483,FEMA4ImagesEEG,001,201552,
AFNE01.JPG,AFNE01.JPG,AFNE01.JPG,AFNE01.JPG,AFNE01.JPG,AFNE01.JPG,,,,,,,,,,,,,,,,,1,5,15,3,,,,,,,AFNE19.jpg,AFSA15.jpg,AFSA10.jpg,AFNE14.jpg,AFNE14.jpg,FN,3,num_4,16,num_4,0.716780107003,,,2017_Sep_15_1535,59.9883593483,FEMA4ImagesEEG,001,201552,
AFNE01.JPG,AFNE01.JPG,AFNE01.JPG,AFNE01.JPG,AFNE01.JPG,AFNE01.JPG,,,,,,,,,,,,,,,,,1,6,16,7,,,,,,,AFNE10.jpg,AFNE01.jpg,AFSA08.jpg,AFSA16.jpg,AFNE10.jpg,FN,3,num_8,32,num_6,1.01678623306,,,2017_Sep_15_1535,59.9883593483,FEMA4ImagesEEG,001,201552,
AFNE01.JPG,AFNE01.JPG,AFNE01.JPG,AFNE01.JPG,AFNE01.JPG,AFNE01.JPG,,,,,,,,,,,,,,,,,1,7,17,6,,,,,,,AFNE06.jpg,AFSA04.jpg,AFSA06.jpg,AFNE03.jpg,AFNE06.jpg,FN,3,num_8,32,num_2,1.28340431838,,,2017_Sep_15_1535,59.9883593483,FEMA4ImagesEEG,001,201552,
AFNE01.JPG,AFNE01.JPG,AFNE01.JPG,AFNE01.JPG,AFNE01.JPG,AFNE01.JPG,,,,,,,,,,,,,,,,,1,8,18,4,,,,,,,AFNE12.jpg,AFSA20.jpg,AFSA03.jpg,AFNE19.jpg,AFSA03.jpg,FS,4,num_2,16,num_2,1.53329743189,,,2017_Sep_15_1535,59.9883593483,FEMA4ImagesEEG,001,201552,
AFNE01.JPG,AFNE01.JPG,AFNE01.JPG,AFNE01.JPG,AFNE01.JPG,AFNE01.JPG,,,,,,,,,,,,,,,,,1,9,19,8,,,,,,,AFNE20.jpg,AFNE13.jpg,AFSA17.jpg,AFSA02.jpg,AFNE20.jpg,FN,3,num_8,32,num_4,1.86667203368,,,2017_Sep_15_1535,59.9883593483,FEMA4ImagesEEG,001,201552,
AFNE01.JPG,AFNE01.JPG,AFNE01.JPG,AFNE01.JPG,AFNE01.JPG,AFNE01.JPG,,,,,,,,,,,,,,,,,2,0,20,8,,,,,,,AFSA14.jpg,AFNE14.jpg,AFNE03.jpg,AFSA09.jpg,AFNE03.jpg,FN,3,num_2,32,num_8,1.20008993521,,,2017_Sep_15_1535,59.9883593483,FEMA4ImagesEEG,001,201552,
AFNE01.JPG,AFNE01.JPG,AFNE01.JPG,AFNE01.JPG,AFNE01.JPG,AFNE01.JPG,,,,,,,,,,,,,,,,,2,1,21,5,,,,,,,AFSA07.jpg,AFNE14.jpg,AFSA09.jpg,AFNE13.jpg,AFSA09.jpg,FS,4,num_2,16,num_2,1.43324781349,,,2017_Sep_15_1535,59.9883593483,FEMA4ImagesEEG,001,201552,
AFNE01.JPG,AFNE01.JPG,AFNE01.JPG,AFNE01.JPG,AFNE01.JPG,AFNE01.JPG,,,,,,,,,,,,,,,,,2,2,22,0,,,,,,,AFNE14.jpg,AFSA03.jpg,AFNE04.jpg,AFSA12.jpg,AFSA12.jpg,FS,4,num_4,32,num_8,2.48329988541,,,2017_Sep_15_1535,59.9883593483,FEMA4ImagesEEG,001,201552,
AFNE01.JPG,AFNE01.JPG,AFNE01.JPG,AFNE01.JPG,AFNE01.JPG,AFNE01.JPG,,,,,,,,,,,,,,,,,2,3,23,6,,,,,,,AFSA07.jpg,AFNE04.jpg,AFNE08.jpg,AFSA04.jpg,AFNE04.jpg,FN,3,num_6,32,num_4,1.3834603515,,,2017_Sep_15_1535,59.9883593483,FEMA4ImagesEEG,001,201552,
AFNE01.JPG,AFNE01.JPG,AFNE01.JPG,AFNE01.JPG,AFNE01.JPG,AFNE01.JPG,,,,,,,,,,,,,,,,,2,4,24,2,,,,,,,AFNE10.jpg,AFNE19.jpg,AFSA18.jpg,AFSA04.jpg,AFSA18.jpg,FS,4,num_2,32,num_6,2.05005207215,,,2017_Sep_15_1535,59.9883593483,FEMA4ImagesEEG,001,201552,
AFNE01.JPG,AFNE01.JPG,AFNE01.JPG,AFNE01.JPG,AFNE01.JPG,AFNE01.JPG,,,,,,,,,,,,,,,,,2,5,25,3,,,,,,,AFSA09.jpg,AFNE10.jpg,AFNE15.jpg,AFSA17.jpg,AFNE15.jpg,FN,3,num_2,16,num_2,1.33338711062,,,2017_Sep_15_1535,59.9883593483,FEMA4ImagesEEG,001,201552,
AFNE01.JPG,AFNE01.JPG,AFNE01.JPG,AFNE01.JPG,AFNE01.JPG,AFNE01.JPG,,,,,,,,,,,,,,,,,2,6,26,9,,,,,,,AFSA11.jpg,AFNE09.jpg,AFSA06.jpg,AFNE06.jpg,AFSA11.jpg,FS,4,num_8,32,num_4,1.11671140464,,,2017_Sep_15_1535,59.9883593483,FEMA4ImagesEEG,001,201552,
AFNE01.JPG,AFNE01.JPG,AFNE01.JPG,AFNE01.JPG,AFNE01.JPG,AFNE01.JPG,,,,,,,,,,,,,,,,,2,7,27,1,,,,,,,AFSA03.jpg,AFNE10.jpg,AFNE17.jpg,AFSA02.jpg,AFNE10.jpg,FN,3,num_6,32,num_2,1.45007574279,,,2017_Sep_15_1535,59.9883593483,FEMA4ImagesEEG,001,201552,
AFNE01.JPG,AFNE01.JPG,AFNE01.JPG,AFNE01.JPG,AFNE01.JPG,AFNE01.JPG,,,,,,,,,,,,,,,,,2,8,28,7,,,,,,,AFNE02.jpg,AFNE13.jpg,AFSA16.jpg,AFSA04.jpg,AFNE02.jpg,FN,3,num_8,16,num_8,1.65005149483,,,2017_Sep_15_1535,59.9883593483,FEMA4ImagesEEG,001,201552,
AFNE01.JPG,AFNE01.JPG,AFNE01.JPG,AFNE01.JPG,AFNE01.JPG,AFNE01.JPG,,,,,,,,,,,,,,,,,2,9,29,4,,,,,,,AFNE02.jpg,AFNE06.jpg,AFSA05.jpg,AFSA20.jpg,AFNE02.jpg,FN,3,num_8,32,num_6,2.03336077789,,,2017_Sep_15_1535,59.9883593483,FEMA4ImagesEEG,001,201552,
AFNE01.JPG,AFNE01.JPG,AFNE01.JPG,AFNE01.JPG,AFNE01.JPG,AFNE01.JPG,,,,,,,,,,,,,,,,,3,0,30,6,,,,,,,AFSA07.jpg,AFNE17.jpg,AFNE08.jpg,AFSA19.jpg,AFSA07.jpg,FS,4,num_8,32,num_2,1.06683541834,,,2017_Sep_15_1535,59.9883593483,FEMA4ImagesEEG,001,201552,
AFNE01.JPG,AFNE01.JPG,AFNE01.JPG,AFNE01.JPG,AFNE01.JPG,AFNE01.JPG,,,,,,,,,,,,,,,,,3,1,31,4,,,,,,,AFSA17.jpg,AFNE15.jpg,AFSA10.jpg,AFNE07.jpg,AFNE15.jpg,FN,3,num_6,32,num_4,1.26672906126,,,2017_Sep_15_1535,59.9883593483,FEMA4ImagesEEG,001,201552,
AFNE01.JPG,AFNE01.JPG,AFNE01.JPG,AFNE01.JPG,AFNE01.JPG,AFNE01.JPG,,,,,,,,,,,,,,,,,3,2,32,8,,,,,,,AFSA17.jpg,AFNE01.jpg,AFSA11.jpg,AFNE13.jpg,AFNE01.jpg,FN,3,num_6,32,num_2,2.35002997331,,,2017_Sep_15_1535,59.9883593483,FEMA4ImagesEEG,001,201552,
AFNE01.JPG,AFNE01.JPG,AFNE01.JPG,AFNE01.JPG,AFNE01.JPG,AFNE01.JPG,,,,,,,,,,,,,,,,,3,3,33,1,,,,,,,AFSA01.jpg,AFNE05.jpg,AFSA20.jpg,AFNE08.jpg,AFNE05.jpg,FN,3,num_6,16,num_6,1.15009046462,,,2017_Sep_15_1535,59.9883593483,FEMA4ImagesEEG,001,201552,
AFNE01.JPG,AFNE01.JPG,AFNE01.JPG,AFNE01.JPG,AFNE01.JPG,AFNE01.JPG,,,,,,,,,,,,,,,,,3,4,34,0,,,,,,,AFSA16.jpg,AFSA08.jpg,AFNE18.jpg,AFNE05.jpg,AFSA08.jpg,FS,4,num_6,32,num_2,1.78337753657,,,2017_Sep_15_1535,59.9883593483,FEMA4ImagesEEG,001,201552,
AFNE01.JPG,AFNE01.JPG,AFNE01.JPG,AFNE01.JPG,AFNE01.JPG,AFNE01.JPG,,,,,,,,,,,,,,,,,3,5,35,7,,,,,,,AFSA17.jpg,AFNE15.jpg,AFSA20.jpg,AFNE07.jpg,AFSA17.jpg,FS,4,num_8,16,num_8,1.01674998947,,,2017_Sep_15_1535,59.9883593483,FEMA4ImagesEEG,001,201552,
AFNE01.JPG,AFNE01.JPG,AFNE01.JPG,AFNE01.JPG,AFNE01.JPG,AFNE01.JPG,,,,,,,,,,,,,,,,,3,6,36,5,,,,,,,AFSA03.jpg,AFNE15.jpg,AFNE12.jpg,AFSA16.jpg,AFNE12.jpg,FN,3,num_2,16,num_2,1.61669552792,,,2017_Sep_15_1535,59.9883593483,FEMA4ImagesEEG,001,201552,
AFNE01.JPG,AFNE01.JPG,AFNE01.JPG,AFNE01.JPG,AFNE01.JPG,AFNE01.JPG,,,,,,,,,,,,,,,,,3,7,37,9,,,,,,,AFSA07.jpg,AFNE17.jpg,AFNE08.jpg,AFSA10.jpg,AFNE08.jpg,FN,3,num_2,16,num_2,1.40010706289,,,2017_Sep_15_1535,59.9883593483,FEMA4ImagesEEG,001,201552,
AFNE01.JPG,AFNE01.JPG,AFNE01.JPG,AFNE01.JPG,AFNE01.JPG,AFNE01.JPG,,,,,,,,,,,,,,,,,3,8,38,2,,,,,,,AFSA04.jpg,AFSA15.jpg,AFNE07.jpg,AFNE19.jpg,AFSA15.jpg,FS,4,num_6,32,num_4,0.983458491275,,,2017_Sep_15_1535,59.9883593483,FEMA4ImagesEEG,001,201552,
AFNE01.JPG,AFNE01.JPG,AFNE01.JPG,AFNE01.JPG,AFNE01.JPG,AFNE01.JPG,,,,,,,,,,,,,,,,,3,9,39,3,,,,,,,AFSA12.jpg,AFNE07.jpg,AFNE04.jpg,AFSA08.jpg,AFSA08.jpg,FS,4,num_4,32,num_2,3.38324289001,,,2017_Sep_15_1535,59.9883593483,FEMA4ImagesEEG,001,201552,
AFNE01.JPG,AFNE01.JPG,AFNE01.JPG,AFNE01.JPG,AFNE01.JPG,AFNE01.JPG,,,,,,,,,,,,,,,,,4,0,40,0,,,,,,,AFNE18.jpg,AFNE02.jpg,AFSA08.jpg,AFSA01.jpg,AFSA08.jpg,FS,4,num_2,32,num_4,0.716635132674,,,2017_Sep_15_1535,59.9883593483,FEMA4ImagesEEG,001,201552,
AFNE01.JPG,AFNE01.JPG,AFNE01.JPG,AFNE01.JPG,AFNE01.JPG,AFNE01.JPG,,,,,,,,,,,,,,,,,4,1,41,6,,,,,,,AFSA07.jpg,AFSA09.jpg,AFNE17.jpg,AFNE08.jpg,AFSA07.jpg,FS,4,num_8,16,num_8,1.03344352869,,,2017_Sep_15_1535,59.9883593483,FEMA4ImagesEEG,001,201552,
AFNE01.JPG,AFNE01.JPG,AFNE01.JPG,AFNE01.JPG,AFNE01.JPG,AFNE01.JPG,,,,,,,,,,,,,,,,,4,2,42,8,,,,,,,AFSA04.jpg,AFNE06.jpg,AFNE12.jpg,AFSA08.jpg,AFSA04.jpg,FS,4,num_8,16,num_8,0.950086487457,,,2017_Sep_15_1535,59.9883593483,FEMA4ImagesEEG,001,201552,
AFNE01.JPG,AFNE01.JPG,AFNE01.JPG,AFNE01.JPG,AFNE01.JPG,AFNE01.JPG,,,,,,,,,,,,,,,,,4,3,43,2,,,,,,,AFSA17.jpg,AFSA15.jpg,AFNE13.jpg,AFNE08.jpg,AFNE13.jpg,FN,3,num_2,16,num_2,1.26693946659,,,2017_Sep_15_1535,59.9883593483,FEMA4ImagesEEG,001,201552,
AFNE01.JPG,AFNE01.JPG,AFNE01.JPG,AFNE01.JPG,AFNE01.JPG,AFNE01.JPG,,,,,,,,,,,,,,,,,4,4,44,4,,,,,,,AFSA04.jpg,AFNE10.jpg,AFSA15.jpg,AFNE12.jpg,AFSA15.jpg,FS,4,num_2,32,num_8,1.91669459781,,,2017_Sep_15_1535,59.9883593483,FEMA4ImagesEEG,001,201552,
AFNE01.JPG,AFNE01.JPG,AFNE01.JPG,AFNE01.JPG,AFNE01.JPG,AFNE01.JPG,,,,,,,,,,,,,,,,,4,5,45,7,,,,,,,AFSA11.jpg,AFNE06.jpg,AFNE11.jpg,AFSA13.jpg,AFSA11.jpg,FS,4,num_8,16,num_8,2.79995881696,,,2017_Sep_15_1535,59.9883593483,FEMA4ImagesEEG,001,201552,
AFNE01.JPG,AFNE01.JPG,AFNE01.JPG,AFNE01.JPG,AFNE01.JPG,AFNE01.JPG,,,,,,,,,,,,,,,,,4,6,46,5,,,,,,,AFSA18.jpg,AFSA05.jpg,AFNE13.jpg,AFNE03.jpg,AFSA05.jpg,FS,4,num_6,16,num_6,0.550360463327,,,2017_Sep_15_1535,59.9883593483,FEMA4ImagesEEG,001,201552,
AFNE01.JPG,AFNE01.JPG,AFNE01.JPG,AFNE01.JPG,AFNE01.JPG,AFNE01.JPG,,,,,,,,,,,,,,,,,4,7,47,9,,,,,,,AFSA06.jpg,AFNE01.jpg,AFNE14.jpg,AFSA07.jpg,AFNE01.jpg,FN,3,num_6,32,num_2,1.35011881799,,,2017_Sep_15_1535,59.9883593483,FEMA4ImagesEEG,001,201552,
AFNE01.JPG,AFNE01.JPG,AFNE01.JPG,AFNE01.JPG,AFNE01.JPG,AFNE01.JPG,,,,,,,,,,,,,,,,,4,8,48,1,,,,,,,AFNE01.jpg,AFSA14.jpg,AFNE05.jpg,AFSA13.jpg,AFSA13.jpg,FS,4,num_4,32,num_2,3.88331682072,,,2017_Sep_15_1535,59.9883593483,FEMA4ImagesEEG,001,201552,
AFNE01.JPG,AFNE01.JPG,AFNE01.JPG,AFNE01.JPG,AFNE01.JPG,AFNE01.JPG,,,,,,,,,,,,,,,,,4,9,49,3,,,,,,,AFSA06.jpg,AFSA19.jpg,AFNE08.jpg,AFNE05.jpg,AFSA19.jpg,FS,4,num_6,32,num_2,1.38339844882,,,2017_Sep_15_1535,59.9883593483,FEMA4ImagesEEG,001,201552,
AFNE01.JPG,AFNE01.JPG,AFNE01.JPG,AFNE01.JPG,AFNE01.JPG,AFNE01.JPG,,,,,,,,,,,,,,,,,5,0,50,2,,,,,,,AFSA16.jpg,AFNE18.jpg,AFNE11.jpg,AFSA11.jpg,AFSA16.jpg,FS,4,num_8,16,num_8,1.40041240701,,,2017_Sep_15_1535,59.9883593483,FEMA4ImagesEEG,001,201552,
AFNE01.JPG,AFNE01.JPG,AFNE01.JPG,AFNE01.JPG,AFNE01.JPG,AFNE01.JPG,,,,,,,,,,,,,,,,,5,1,51,0,,,,,,,AFNE06.jpg,AFSA11.jpg,AFSA04.jpg,AFNE16.jpg,AFSA04.jpg,FS,4,num_2,16,num_2,1.09989213524,,,2017_Sep_15_1535,59.9883593483,FEMA4ImagesEEG,001,201552,
AFNE01.JPG,AFNE01.JPG,AFNE01.JPG,AFNE01.JPG,AFNE01.JPG,AFNE01.JPG,,,,,,,,,,,,,,,,,5,2,52,6,,,,,,,AFSA08.jpg,AFSA04.jpg,AFNE12.jpg,AFNE06.jpg,AFNE12.jpg,FN,3,num_2,16,num_2,1.2833667919,,,2017_Sep_15_1535,59.9883593483,FEMA4ImagesEEG,001,201552,
AFNE01.JPG,AFNE01.JPG,AFNE01.JPG,AFNE01.JPG,AFNE01.JPG,AFNE01.JPG,,,,,,,,,,,,,,,,,5,3,53,1,,,,,,,AFSA07.jpg,AFNE13.jpg,AFSA18.jpg,AFNE06.jpg,AFSA07.jpg,FS,4,num_8,32,num_4,1.8997354859,,,2017_Sep_15_1535,59.9883593483,FEMA4ImagesEEG,001,201552,
AFNE01.JPG,AFNE01.JPG,AFNE01.JPG,AFNE01.JPG,AFNE01.JPG,AFNE01.JPG,,,,,,,,,,,,,,,,,5,4,54,8,,,,,,,AFNE08.jpg,AFSA04.jpg,AFSA15.jpg,AFNE17.jpg,AFSA15.jpg,FS,4,num_2,32,num_8,2.45003565028,,,2017_Sep_15_1535,59.9883593483,FEMA4ImagesEEG,001,201552,
AFNE01.JPG,AFNE01.JPG,AFNE01.JPG,AFNE01.JPG,AFNE01.JPG,AFNE01.JPG,,,,,,,,,,,,,,,,,5,5,55,3,,,,,,,AFNE06.jpg,AFSA08.jpg,AFNE02.jpg,AFSA19.jpg,AFSA08.jpg,FS,4,num_6,32,num_4,2.16694341158,,,2017_Sep_15_1535,59.9883593483,FEMA4ImagesEEG,001,201552,
AFNE01.JPG,AFNE01.JPG,AFNE01.JPG,AFNE01.JPG,AFNE01.JPG,AFNE01.JPG,,,,,,,,,,,,,,,,,5,6,56,7,,,,,,,AFSA14.jpg,AFNE17.jpg,AFSA11.jpg,AFNE03.jpg,AFSA14.jpg,FS,4,num_8,32,num_2,1.08351292089,,,2017_Sep_15_1535,59.9883593483,FEMA4ImagesEEG,001,201552,
AFNE01.JPG,AFNE01.JPG,AFNE01.JPG,AFNE01.JPG,AFNE01.JPG,AFNE01.JPG,,,,,,,,,,,,,,,,,5,7,57,5,,,,,,,AFSA20.jpg,AFNE03.jpg,AFNE01.jpg,AFSA12.jpg,AFSA20.jpg,FS,4,num_8,32,num_2,1.35006397171,,,2017_Sep_15_1535,59.9883593483,FEMA4ImagesEEG,001,201552,
AFNE01.JPG,AFNE01.JPG,AFNE01.JPG,AFNE01.JPG,AFNE01.JPG,AFNE01.JPG,,,,,,,,,,,,,,,,,5,8,58,4,,,,,,,AFSA07.jpg,AFNE14.jpg,AFNE15.jpg,AFSA18.jpg,AFSA18.jpg,FS,4,num_4,32,num_2,3.25025041751,,,2017_Sep_15_1535,59.9883593483,FEMA4ImagesEEG,001,201552,
AFNE01.JPG,AFNE01.JPG,AFNE01.JPG,AFNE01.JPG,AFNE01.JPG,AFNE01.JPG,,,,,,,,,,,,,,,,,5,9,59,9,,,,,,,AFNE02.jpg,AFSA16.jpg,AFNE20.jpg,AFSA15.jpg,AFNE02.jpg,FN,3,num_8,16,num_8,0.933481151471,,,2017_Sep_15_1535,59.9883593483,FEMA4ImagesEEG,001,201552,
,,,,,,,,,,,,,,,,,,,,,,,,,,,,,,,,,,,,,,,,,,,space,4.56646320014,2017_Sep_15_1535,59.9883593483,FEMA4ImagesEEG,001,201552,
AFNE01.JPG,AFNE01.JPG,AFNE01.JPG,AFNE01.JPG,AFNE01.JPG,AFNE01.JPG,,,,,,,,,,,,,,,,,,,,,0,0,0,9,,,AMNE14.jpg,AMSA11.jpg,AMNE12.jpg,AMSA17.jpg,AMNE14.jpg,MN,1,num_8,16,num_8,0.98343892605,,,2017_Sep_15_1535,59.9883593483,FEMA4ImagesEEG,001,201552,
AFNE01.JPG,AFNE01.JPG,AFNE01.JPG,AFNE01.JPG,AFNE01.JPG,AFNE01.JPG,,,,,,,,,,,,,,,,,,,,,0,1,1,8,,,AMSA08.jpg,AMNE09.jpg,AMNE03.jpg,AMSA10.jpg,AMSA08.jpg,MS,2,num_8,32,num_6,0.600142793264,,,2017_Sep_15_1535,59.9883593483,FEMA4ImagesEEG,001,201552,
AFNE01.JPG,AFNE01.JPG,AFNE01.JPG,AFNE01.JPG,AFNE01.JPG,AFNE01.JPG,,,,,,,,,,,,,,,,,,,,,0,2,2,6,,,AMNE19.jpg,AMSA10.jpg,AMNE20.jpg,AMSA03.jpg,AMSA03.jpg,MS,2,num_4,16,num_4,0.533488592831,,,2017_Sep_15_1535,59.9883593483,FEMA4ImagesEEG,001,201552,
AFNE01.JPG,AFNE01.JPG,AFNE01.JPG,AFNE01.JPG,AFNE01.JPG,AFNE01.JPG,,,,,,,,,,,,,,,,,,,,,0,3,3,4,,,AMSA17.jpg,AMNE03.jpg,AMSA06.jpg,AMNE15.jpg,AMSA17.jpg,MS,2,num_8,32,num_2,1.3167763222,,,2017_Sep_15_1535,59.9883593483,FEMA4ImagesEEG,001,201552,
AFNE01.JPG,AFNE01.JPG,AFNE01.JPG,AFNE01.JPG,AFNE01.JPG,AFNE01.JPG,,,,,,,,,,,,,,,,,,,,,0,4,4,5,,,AMSA08.jpg,AMSA06.jpg,AMNE04.jpg,AMNE02.jpg,AMNE04.jpg,MN,1,num_2,16,num_2,0.800116620958,,,2017_Sep_15_1535,59.9883593483,FEMA4ImagesEEG,001,201552,
AFNE01.JPG,AFNE01.JPG,AFNE01.JPG,AFNE01.JPG,AFNE01.JPG,AFNE01.JPG,,,,,,,,,,,,,,,,,,,,,0,5,5,0,,,AMSA02.jpg,AMNE03.jpg,AMNE20.jpg,AMSA09.jpg,AMNE03.jpg,MN,1,num_6,32,num_4,0.817103316542,,,2017_Sep_15_1535,59.9883593483,FEMA4ImagesEEG,001,201552,
AFNE01.JPG,AFNE01.JPG,AFNE01.JPG,AFNE01.JPG,AFNE01.JPG,AFNE01.JPG,,,,,,,,,,,,,,,,,,,,,0,6,6,3,,,AMNE17.jpg,AMNE06.jpg,AMSA06.jpg,AMSA03.jpg,AMNE17.jpg,MN,1,num_8,32,num_2,1.41672009649,,,2017_Sep_15_1535,59.9883593483,FEMA4ImagesEEG,001,201552,
AFNE01.JPG,AFNE01.JPG,AFNE01.JPG,AFNE01.JPG,AFNE01.JPG,AFNE01.JPG,,,,,,,,,,,,,,,,,,,,,0,7,7,2,,,AMNE05.jpg,AMSA13.jpg,AMNE11.jpg,AMSA06.jpg,AMNE11.jpg,MN,1,num_2,16,num_2,0.850112884305,,,2017_Sep_15_1535,59.9883593483,FEMA4ImagesEEG,001,201552,
AFNE01.JPG,AFNE01.JPG,AFNE01.JPG,AFNE01.JPG,AFNE01.JPG,AFNE01.JPG,,,,,,,,,,,,,,,,,,,,,0,8,8,7,,,AMSA06.jpg,AMSA09.jpg,AMNE03.jpg,AMNE11.jpg,AMSA06.jpg,MS,2,num_8,16,num_8,1.25008619879,,,2017_Sep_15_1535,59.9883593483,FEMA4ImagesEEG,001,201552,
AFNE01.JPG,AFNE01.JPG,AFNE01.JPG,AFNE01.JPG,AFNE01.JPG,AFNE01.JPG,,,,,,,,,,,,,,,,,,,,,0,9,9,1,,,AMNE10.jpg,AMSA01.jpg,AMSA09.jpg,AMNE14.jpg,AMNE14.jpg,MN,1,num_4,16,num_4,3.39993161848,,,2017_Sep_15_1535,59.9883593483,FEMA4ImagesEEG,001,201552,
AFNE01.JPG,AFNE01.JPG,AFNE01.JPG,AFNE01.JPG,AFNE01.JPG,AFNE01.JPG,,,,,,,,,,,,,,,,,,,,,1,0,10,7,,,AMSA01.jpg,AMNE11.jpg,AMNE04.jpg,AMSA10.jpg,AMNE11.jpg,MN,1,num_6,48,None,,,,2017_Sep_15_1535,59.9883593483,FEMA4ImagesEEG,001,201552,
AFNE01.JPG,AFNE01.JPG,AFNE01.JPG,AFNE01.JPG,AFNE01.JPG,AFNE01.JPG,,,,,,,,,,,,,,,,,,,,,1,1,11,0,,,AMNE07.jpg,AMNE19.jpg,AMSA03.jpg,AMSA01.jpg,AMSA03.jpg,MS,2,num_2,16,num_2,0.766794010997,,,2017_Sep_15_1535,59.9883593483,FEMA4ImagesEEG,001,201552,
AFNE01.JPG,AFNE01.JPG,AFNE01.JPG,AFNE01.JPG,AFNE01.JPG,AFNE01.JPG,,,,,,,,,,,,,,,,,,,,,1,2,12,1,,,AMSA05.jpg,AMNE09.jpg,AMNE06.jpg,AMSA01.jpg,AMNE09.jpg,MN,1,num_6,16,num_6,0.516686643241,,,2017_Sep_15_1535,59.9883593483,FEMA4ImagesEEG,001,201552,
AFNE01.JPG,AFNE01.JPG,AFNE01.JPG,AFNE01.JPG,AFNE01.JPG,AFNE01.JPG,,,,,,,,,,,,,,,,,,,,,1,3,13,4,,,AMNE20.jpg,AMSA11.jpg,AMNE11.jpg,AMSA13.jpg,AMSA11.jpg,MS,2,num_6,16,num_6,0.833521019667,,,2017_Sep_15_1535,59.9883593483,FEMA4ImagesEEG,001,201552,
AFNE01.JPG,AFNE01.JPG,AFNE01.JPG,AFNE01.JPG,AFNE01.JPG,AFNE01.JPG,,,,,,,,,,,,,,,,,,,,,1,4,14,5,,,AMNE09.jpg,AMNE11.jpg,AMSA12.jpg,AMSA10.jpg,AMNE09.jpg,MN,1,num_8,32,num_4,2.58332961798,,,2017_Sep_15_1535,59.9883593483,FEMA4ImagesEEG,001,201552,
AFNE01.JPG,AFNE01.JPG,AFNE01.JPG,AFNE01.JPG,AFNE01.JPG,AFNE01.JPG,,,,,,,,,,,,,,,,,,,,,1,5,15,8,,,AMSA05.jpg,AMNE11.jpg,AMNE08.jpg,AMSA19.jpg,AMNE08.jpg,MN,1,num_2,32,num_8,1.39998261584,,,2017_Sep_15_1535,59.9883593483,FEMA4ImagesEEG,001,201552,
AFNE01.JPG,AFNE01.JPG,AFNE01.JPG,AFNE01.JPG,AFNE01.JPG,AFNE01.JPG,,,,,,,,,,,,,,,,,,,,,1,6,16,9,,,AMSA08.jpg,AMSA01.jpg,AMNE15.jpg,AMNE06.jpg,AMNE15.jpg,MN,1,num_2,16,num_2,4.21653233538,,,2017_Sep_15_1535,59.9883593483,FEMA4ImagesEEG,001,201552,
AFNE01.JPG,AFNE01.JPG,AFNE01.JPG,AFNE01.JPG,AFNE01.JPG,AFNE01.JPG,,,,,,,,,,,,,,,,,,,,,1,7,17,3,,,AMNE14.jpg,AMSA07.jpg,AMNE07.jpg,AMSA06.jpg,AMSA07.jpg,MS,2,num_6,32,num_4,1.14997147024,,,2017_Sep_15_1535,59.9883593483,FEMA4ImagesEEG,001,201552,
AFNE01.JPG,AFNE01.JPG,AFNE01.JPG,AFNE01.JPG,AFNE01.JPG,AFNE01.JPG,,,,,,,,,,,,,,,,,,,,,1,8,18,6,,,AMSA11.jpg,AMNE11.jpg,AMNE10.jpg,AMSA01.jpg,AMNE11.jpg,MN,1,num_6,32,num_8,1.40009647841,,,2017_Sep_15_1535,59.9883593483,FEMA4ImagesEEG,001,201552,
AFNE01.JPG,AFNE01.JPG,AFNE01.JPG,AFNE01.JPG,AFNE01.JPG,AFNE01.JPG,,,,,,,,,,,,,,,,,,,,,1,9,19,2,,,AMSA17.jpg,AMNE08.jpg,AMNE04.jpg,AMSA12.jpg,AMSA12.jpg,MS,2,num_4,16,num_4,0.950006623287,,,2017_Sep_15_1535,59.9883593483,FEMA4ImagesEEG,001,201552,
AFNE01.JPG,AFNE01.JPG,AFNE01.JPG,AFNE01.JPG,AFNE01.JPG,AFNE01.JPG,,,,,,,,,,,,,,,,,,,,,2,0,20,3,,,AMNE13.jpg,AMSA17.jpg,AMSA02.jpg,AMNE01.jpg,AMSA02.jpg,MS,2,num_2,32,num_4,0.900114921154,,,2017_Sep_15_1535,59.9883593483,FEMA4ImagesEEG,001,201552,
AFNE01.JPG,AFNE01.JPG,AFNE01.JPG,AFNE01.JPG,AFNE01.JPG,AFNE01.JPG,,,,,,,,,,,,,,,,,,,,,2,1,21,5,,,AMNE07.jpg,AMSA07.jpg,AMSA01.jpg,AMNE17.jpg,AMSA07.jpg,MS,2,num_6,16,num_6,0.833516529296,,,2017_Sep_15_1535,59.9883593483,FEMA4ImagesEEG,001,201552,
AFNE01.JPG,AFNE01.JPG,AFNE01.JPG,AFNE01.JPG,AFNE01.JPG,AFNE01.JPG,,,,,,,,,,,,,,,,,,,,,2,2,22,1,,,AMNE11.jpg,AMNE19.jpg,AMSA17.jpg,AMSA19.jpg,AMNE19.jpg,MN,1,num_6,32,num_8,1.00010937243,,,2017_Sep_15_1535,59.9883593483,FEMA4ImagesEEG,001,201552,
AFNE01.JPG,AFNE01.JPG,AFNE01.JPG,AFNE01.JPG,AFNE01.JPG,AFNE01.JPG,,,,,,,,,,,,,,,,,,,,,2,3,23,6,,,AMSA04.jpg,AMSA14.jpg,AMNE15.jpg,AMNE06.jpg,AMNE15.jpg,MN,1,num_2,32,num_6,1.4500747805,,,2017_Sep_15_1535,59.9883593483,FEMA4ImagesEEG,001,201552,
AFNE01.JPG,AFNE01.JPG,AFNE01.JPG,AFNE01.JPG,AFNE01.JPG,AFNE01.JPG,,,,,,,,,,,,,,,,,,,,,2,4,24,9,,,AMSA14.jpg,AMNE06.jpg,AMSA10.jpg,AMNE17.jpg,AMSA14.jpg,MS,2,num_8,32,num_2,0.983443737263,,,2017_Sep_15_1535,59.9883593483,FEMA4ImagesEEG,001,201552,
AFNE01.JPG,AFNE01.JPG,AFNE01.JPG,AFNE01.JPG,AFNE01.JPG,AFNE01.JPG,,,,,,,,,,,,,,,,,,,,,2,5,25,7,,,AMNE19.jpg,AMSA09.jpg,AMNE09.jpg,AMSA12.jpg,AMSA09.jpg,MS,2,num_6,32,num_4,1.91680429061,,,2017_Sep_15_1535,59.9883593483,FEMA4ImagesEEG,001,201552,
AFNE01.JPG,AFNE01.JPG,AFNE01.JPG,AFNE01.JPG,AFNE01.JPG,AFNE01.JPG,,,,,,,,,,,,,,,,,,,,,2,6,26,0,,,AMNE01.jpg,AMSA09.jpg,AMSA11.jpg,AMNE19.jpg,AMNE01.jpg,MN,1,num_8,32,num_6,2.25001146644,,,2017_Sep_15_1535,59.9883593483,FEMA4ImagesEEG,001,201552,
AFNE01.JPG,AFNE01.JPG,AFNE01.JPG,AFNE01.JPG,AFNE01.JPG,AFNE01.JPG,,,,,,,,,,,,,,,,,,,,,2,7,27,2,,,AMNE15.jpg,AMNE01.jpg,AMSA17.jpg,AMSA13.jpg,AMNE01.jpg,MN,1,num_6,16,num_6,0.450188643066,,,2017_Sep_15_1535,59.9883593483,FEMA4ImagesEEG,001,201552,
AFNE01.JPG,AFNE01.JPG,AFNE01.JPG,AFNE01.JPG,AFNE01.JPG,AFNE01.JPG,,,,,,,,,,,,,,,,,,,,,2,8,28,8,,,AMSA14.jpg,AMSA11.jpg,AMNE09.jpg,AMNE02.jpg,AMSA11.jpg,MS,2,num_6,16,num_6,1.09995628335,,,2017_Sep_15_1535,59.9883593483,FEMA4ImagesEEG,001,201552,
AFNE01.JPG,AFNE01.JPG,AFNE01.JPG,AFNE01.JPG,AFNE01.JPG,AFNE01.JPG,,,,,,,,,,,,,,,,,,,,,2,9,29,4,,,AMNE05.jpg,AMSA10.jpg,AMSA02.jpg,AMNE20.jpg,AMNE05.jpg,MN,1,num_8,16,num_8,0.883414966986,,,2017_Sep_15_1535,59.9883593483,FEMA4ImagesEEG,001,201552,
AFNE01.JPG,AFNE01.JPG,AFNE01.JPG,AFNE01.JPG,AFNE01.JPG,AFNE01.JPG,,,,,,,,,,,,,,,,,,,,,3,0,30,0,,,AMSA16.jpg,AMNE11.jpg,AMSA19.jpg,AMNE20.jpg,AMNE20.jpg,MN,1,num_4,16,num_4,0.866633544909,,,2017_Sep_15_1535,59.9883593483,FEMA4ImagesEEG,001,201552,
AFNE01.JPG,AFNE01.JPG,AFNE01.JPG,AFNE01.JPG,AFNE01.JPG,AFNE01.JPG,,,,,,,,,,,,,,,,,,,,,3,1,31,1,,,AMNE10.jpg,AMNE03.jpg,AMSA04.jpg,AMSA03.jpg,AMSA03.jpg,MS,2,num_4,32,num_2,3.16663870867,,,2017_Sep_15_1535,59.9883593483,FEMA4ImagesEEG,001,201552,
AFNE01.JPG,AFNE01.JPG,AFNE01.JPG,AFNE01.JPG,AFNE01.JPG,AFNE01.JPG,,,,,,,,,,,,,,,,,,,,,3,2,32,4,,,AMNE10.jpg,AMSA06.jpg,AMSA14.jpg,AMNE16.jpg,AMNE10.jpg,MN,1,num_8,32,num_6,0.950130108045,,,2017_Sep_15_1535,59.9883593483,FEMA4ImagesEEG,001,201552,
AFNE01.JPG,AFNE01.JPG,AFNE01.JPG,AFNE01.JPG,AFNE01.JPG,AFNE01.JPG,,,,,,,,,,,,,,,,,,,,,3,3,33,6,,,AMNE08.jpg,AMSA04.jpg,AMNE12.jpg,AMSA13.jpg,AMSA04.jpg,MS,2,num_6,32,num_8,1.11679800414,,,2017_Sep_15_1535,59.9883593483,FEMA4ImagesEEG,001,201552,
AFNE01.JPG,AFNE01.JPG,AFNE01.JPG,AFNE01.JPG,AFNE01.JPG,AFNE01.JPG,,,,,,,,,,,,,,,,,,,,,3,4,34,7,,,AMNE05.jpg,AMSA02.jpg,AMNE09.jpg,AMSA01.jpg,AMNE09.jpg,MN,1,num_2,16,num_2,1.7167643907,,,2017_Sep_15_1535,59.9883593483,FEMA4ImagesEEG,001,201552,
AFNE01.JPG,AFNE01.JPG,AFNE01.JPG,AFNE01.JPG,AFNE01.JPG,AFNE01.JPG,,,,,,,,,,,,,,,,,,,,,3,5,35,9,,,AMNE12.jpg,AMSA20.jpg,AMSA07.jpg,AMNE14.jpg,AMSA20.jpg,MS,2,num_6,32,num_8,2.26663283934,,,2017_Sep_15_1535,59.9883593483,FEMA4ImagesEEG,001,201552,
AFNE01.JPG,AFNE01.JPG,AFNE01.JPG,AFNE01.JPG,AFNE01.JPG,AFNE01.JPG,,,,,,,,,,,,,,,,,,,,,3,6,36,8,,,AMSA07.jpg,AMNE09.jpg,AMNE19.jpg,AMSA05.jpg,AMNE19.jpg,MN,1,num_2,16,num_2,0.833392402856,,,2017_Sep_15_1535,59.9883593483,FEMA4ImagesEEG,001,201552,
AFNE01.JPG,AFNE01.JPG,AFNE01.JPG,AFNE01.JPG,AFNE01.JPG,AFNE01.JPG,,,,,,,,,,,,,,,,,,,,,3,7,37,2,,,AMNE05.jpg,AMSA19.jpg,AMSA09.jpg,AMNE04.jpg,AMNE04.jpg,MN,1,num_4,16,num_4,0.883293406572,,,2017_Sep_15_1535,59.9883593483,FEMA4ImagesEEG,001,201552,
AFNE01.JPG,AFNE01.JPG,AFNE01.JPG,AFNE01.JPG,AFNE01.JPG,AFNE01.JPG,,,,,,,,,,,,,,,,,,,,,3,8,38,5,,,AMSA12.jpg,AMSA01.jpg,AMNE14.jpg,AMNE05.jpg,AMSA12.jpg,MS,2,num_8,32,num_4,2.26650486421,,,2017_Sep_15_1535,59.9883593483,FEMA4ImagesEEG,001,201552,
AFNE01.JPG,AFNE01.JPG,AFNE01.JPG,AFNE01.JPG,AFNE01.JPG,AFNE01.JPG,,,,,,,,,,,,,,,,,,,,,3,9,39,3,,,AMNE09.jpg,AMSA05.jpg,AMSA19.jpg,AMNE06.jpg,AMNE09.jpg,MN,1,num_8,16,num_8,0.850086904597,,,2017_Sep_15_1535,59.9883593483,FEMA4ImagesEEG,001,201552,
