IPosition2,IPosition3,IPosition1,IPosition6,IPosition4,IPosition5,TrialsF1.thisRepN,TrialsF1.thisTrialN,TrialsF1.thisN,TrialsF1.thisIndex,TrialsM1.thisRepN,TrialsM1.thisTrialN,TrialsM1.thisN,TrialsM1.thisIndex,TrialsF2.thisRepN,TrialsF2.thisTrialN,TrialsF2.thisN,TrialsF2.thisIndex,TrialsM2.thisRepN,TrialsM2.thisTrialN,TrialsM2.thisN,TrialsM2.thisIndex,TrialsF3.thisRepN,TrialsF3.thisTrialN,TrialsF3.thisN,TrialsF3.thisIndex,TrialsM3.thisRepN,TrialsM3.thisTrialN,TrialsM3.thisN,TrialsM3.thisIndex,InstrKey_resp.keys,InstrKey_resp.rt,Image0 _Position,Image1 _Position,Image2 _Position,Image3 _Position,Center_image,condition,code,correct_answer,accuracy,Key_Resp.keys,Key_Resp.rt,BreakKey_resp.keys,BreakKey_resp.rt,date,frameRate,expName,session,participant,
,,,,,,,,,,,,,,,,,,,,,,,,,,,,,,space,13.3494472857,,,,,,,,,,,,,,2017_Oct_19_1122,60.0176137701,FEMA4ImagesEEG,001,201639,
AMNE23.JPG,AMNE24.JPG,AMNE22.JPG,AMSA24.JPG,AMSA22.JPG,AMSA23.JPG,0,0,0,9,,,,,,,,,,,,,,,,,,,,,,,AFSA08.jpg,AFSA12.jpg,AFNE04.jpg,AFNE05.jpg,AFNE04.jpg,FN,3,num_2,32,num_6,0.833452808816,,,2017_Oct_19_1122,60.0176137701,FEMA4ImagesEEG,001,201639,
AFNE23.JPG,AFNE24.JPG,AFNE22.JPG,AFSA24.JPG,AFSA22.JPG,AFSA23.JPG,0,1,1,8,,,,,,,,,,,,,,,,,,,,,,,AFSA14.jpg,AFNE20.jpg,AFNE02.jpg,AFSA17.jpg,AFSA17.jpg,FS,4,num_4,16,num_4,0.516864001664,,,2017_Oct_19_1122,60.0176137701,FEMA4ImagesEEG,001,201639,
AFSA21.JPG,AFNE23.JPG,AFNE21.JPG,AFSA25.JPG,AFNE25.JPG,AFSA23.JPG,0,2,2,4,,,,,,,,,,,,,,,,,,,,,,,AFSA07.jpg,AFSA02.jpg,AFNE04.jpg,AFNE16.jpg,AFNE04.jpg,FN,3,num_2,32,num_8,0.850160129194,,,2017_Oct_19_1122,60.0176137701,FEMA4ImagesEEG,001,201639,
AFSA25.JPG,AFNE24.JPG,AFSA24.JPG,AFNE21.JPG,AFSA21.JPG,AFNE25.JPG,0,3,3,2,,,,,,,,,,,,,,,,,,,,,,,AFNE01.jpg,AFSA01.jpg,AFNE08.jpg,AFSA17.jpg,AFSA01.jpg,FS,4,num_6,32,num_4,0.766856063332,,,2017_Oct_19_1122,60.0176137701,FEMA4ImagesEEG,001,201639,
AMNE22.JPG,AMSA24.JPG,AMSA22.JPG,AMNE25.JPG,AMNE24.JPG,AMSA25.JPG,0,4,4,7,,,,,,,,,,,,,,,,,,,,,,,AFNE02.jpg,AFSA13.jpg,AFNE06.jpg,AFSA06.jpg,AFSA13.jpg,FS,4,num_6,16,num_6,0.883487528859,,,2017_Oct_19_1122,60.0176137701,FEMA4ImagesEEG,001,201639,
AFSA21.JPG,AFNE22.JPG,AFNE21.JPG,AFSA23.JPG,AFSA22.JPG,AFNE23.JPG,0,5,5,0,,,,,,,,,,,,,,,,,,,,,,,AFNE06.jpg,AFSA13.jpg,AFNE03.jpg,AFSA18.jpg,AFSA13.jpg,FS,4,num_6,32,num_2,0.716811400373,,,2017_Oct_19_1122,60.0176137701,FEMA4ImagesEEG,001,201639,
AMSA21.JPG,AMNE22.JPG,AMNE21.JPG,AMSA23.JPG,AMSA22.JPG,AMNE23.JPG,0,6,6,1,,,,,,,,,,,,,,,,,,,,,,,AFNE12.jpg,AFSA13.jpg,AFSA16.jpg,AFNE18.jpg,AFSA16.jpg,FS,4,num_2,16,num_2,0.633451846574,,,2017_Oct_19_1122,60.0176137701,FEMA4ImagesEEG,001,201639,
AMSA25.JPG,AMNE24.JPG,AMSA24.JPG,AMNE26.JPG,AMSA21.JPG,AMNE25.JPG,0,7,7,3,,,,,,,,,,,,,,,,,,,,,,,AFNE18.jpg,AFSA19.jpg,AFNE13.jpg,AFSA02.jpg,AFSA02.jpg,FS,4,num_4,32,num_6,0.800004811084,,,2017_Oct_19_1122,60.0176137701,FEMA4ImagesEEG,001,201639,
AMSA21.JPG,AMNE23.JPG,AMNE21.JPG,AMSA25.JPG,AMNE25.JPG,AMSA23.JPG,0,8,8,5,,,,,,,,,,,,,,,,,,,,,,,AFSA06.jpg,AFNE09.jpg,AFNE19.jpg,AFSA03.jpg,AFNE19.jpg,FN,3,num_2,32,num_8,1.13341768782,,,2017_Oct_19_1122,60.0176137701,FEMA4ImagesEEG,001,201639,
AFNE22.JPG,AFSA24.JPG,AFSA22.JPG,AFNE25.JPG,AFNE24.JPG,AFSA25.JPG,0,9,9,6,,,,,,,,,,,,,,,,,,,,,,,AFSA03.jpg,AFSA06.jpg,AFNE04.jpg,AFNE06.jpg,AFSA03.jpg,FS,4,num_8,16,num_8,0.966764331853,,,2017_Oct_19_1122,60.0176137701,FEMA4ImagesEEG,001,201639,
AMSA25.JPG,AMNE24.JPG,AMSA24.JPG,AMNE26.JPG,AMSA21.JPG,AMNE25.JPG,,,,,0,0,0,3,,,,,,,,,,,,,,,,,,,AMSA14.jpg,AMNE11.jpg,AMSA06.jpg,AMNE15.jpg,AMNE15.jpg,MN,1,num_4,16,num_4,0.766749898583,,,2017_Oct_19_1122,60.0176137701,FEMA4ImagesEEG,001,201639,
AMSA21.JPG,AMNE23.JPG,AMNE21.JPG,AMSA25.JPG,AMNE25.JPG,AMSA23.JPG,,,,,0,1,1,5,,,,,,,,,,,,,,,,,,,AMNE05.jpg,AMNE04.jpg,AMSA09.jpg,AMSA08.jpg,AMSA08.jpg,MS,2,num_4,32,num_2,1.48343043722,,,2017_Oct_19_1122,60.0176137701,FEMA4ImagesEEG,001,201639,
AFNE22.JPG,AFSA24.JPG,AFSA22.JPG,AFNE25.JPG,AFNE24.JPG,AFSA25.JPG,,,,,0,2,2,6,,,,,,,,,,,,,,,,,,,AMNE11.jpg,AMSA14.jpg,AMNE02.jpg,AMSA16.jpg,AMNE02.jpg,MN,1,num_2,16,num_2,1.00009429743,,,2017_Oct_19_1122,60.0176137701,FEMA4ImagesEEG,001,201639,
AFNE23.JPG,AFNE24.JPG,AFNE22.JPG,AFSA24.JPG,AFSA22.JPG,AFSA23.JPG,,,,,0,3,3,8,,,,,,,,,,,,,,,,,,,AMNE17.jpg,AMNE12.jpg,AMSA04.jpg,AMSA20.jpg,AMNE17.jpg,MN,1,num_8,32,num_4,1.44995293149,,,2017_Oct_19_1122,60.0176137701,FEMA4ImagesEEG,001,201639,
AFSA21.JPG,AFNE22.JPG,AFNE21.JPG,AFSA23.JPG,AFSA22.JPG,AFNE23.JPG,,,,,0,4,4,0,,,,,,,,,,,,,,,,,,,AMSA16.jpg,AMNE15.jpg,AMSA05.jpg,AMNE07.jpg,AMNE15.jpg,MN,1,num_6,32,num_4,0.750141686673,,,2017_Oct_19_1122,60.0176137701,FEMA4ImagesEEG,001,201639,
AMSA21.JPG,AMNE22.JPG,AMNE21.JPG,AMSA23.JPG,AMSA22.JPG,AMNE23.JPG,,,,,0,5,5,1,,,,,,,,,,,,,,,,,,,AMNE07.jpg,AMNE01.jpg,AMSA05.jpg,AMSA01.jpg,AMSA01.jpg,MS,2,num_4,16,num_4,1.18377218515,,,2017_Oct_19_1122,60.0176137701,FEMA4ImagesEEG,001,201639,
AFSA21.JPG,AFNE23.JPG,AFNE21.JPG,AFSA25.JPG,AFNE25.JPG,AFSA23.JPG,,,,,0,6,6,4,,,,,,,,,,,,,,,,,,,AMSA10.jpg,AMSA17.jpg,AMNE15.jpg,AMNE17.jpg,AMNE17.jpg,MN,1,num_4,16,num_4,1.11678157159,,,2017_Oct_19_1122,60.0176137701,FEMA4ImagesEEG,001,201639,
AMNE22.JPG,AMSA24.JPG,AMSA22.JPG,AMNE25.JPG,AMNE24.JPG,AMSA25.JPG,,,,,0,7,7,7,,,,,,,,,,,,,,,,,,,AMNE12.jpg,AMSA08.jpg,AMNE07.jpg,AMSA17.jpg,AMNE07.jpg,MN,1,num_2,32,num_8,1.33344719588,,,2017_Oct_19_1122,60.0176137701,FEMA4ImagesEEG,001,201639,
AMNE23.JPG,AMNE24.JPG,AMNE22.JPG,AMSA24.JPG,AMSA22.JPG,AMSA23.JPG,,,,,0,8,8,9,,,,,,,,,,,,,,,,,,,AMNE11.jpg,AMSA01.jpg,AMNE14.jpg,AMSA09.jpg,AMSA01.jpg,MS,2,num_6,16,num_6,0.68350484877,,,2017_Oct_19_1122,60.0176137701,FEMA4ImagesEEG,001,201639,
AFSA25.JPG,AFNE24.JPG,AFSA24.JPG,AFNE21.JPG,AFSA21.JPG,AFNE25.JPG,,,,,0,9,9,2,,,,,,,,,,,,,,,,,,,AMNE17.jpg,AMSA10.jpg,AMSA08.jpg,AMNE18.jpg,AMNE18.jpg,MN,1,num_4,32,num_8,0.566796726518,,,2017_Oct_19_1122,60.0176137701,FEMA4ImagesEEG,001,201639,
AMNE23.JPG,AMNE24.JPG,AMNE22.JPG,AMSA24.JPG,AMSA22.JPG,AMSA23.JPG,,,,,,,,,0,0,0,9,,,,,,,,,,,,,,,AFNE16.jpg,AFSA16.jpg,AFSA01.jpg,AFNE13.jpg,AFSA16.jpg,FS,4,num_6,16,num_6,1.28325274753,,,2017_Oct_19_1122,60.0176137701,FEMA4ImagesEEG,001,201639,
AMSA25.JPG,AMNE24.JPG,AMSA24.JPG,AMNE26.JPG,AMSA21.JPG,AMNE25.JPG,,,,,,,,,0,1,1,3,,,,,,,,,,,,,,,AFNE05.jpg,AFSA01.jpg,AFNE04.jpg,AFSA10.jpg,AFSA01.jpg,FS,4,num_6,16,num_6,0.650295160507,,,2017_Oct_19_1122,60.0176137701,FEMA4ImagesEEG,001,201639,
AMSA21.JPG,AMNE23.JPG,AMNE21.JPG,AMSA25.JPG,AMNE25.JPG,AMSA23.JPG,,,,,,,,,0,2,2,5,,,,,,,,,,,,,,,AFNE18.jpg,AFSA09.jpg,AFSA04.jpg,AFNE16.jpg,AFSA09.jpg,FS,4,num_6,32,num_8,0.716830644727,,,2017_Oct_19_1122,60.0176137701,FEMA4ImagesEEG,001,201639,
AFNE22.JPG,AFSA24.JPG,AFSA22.JPG,AFNE25.JPG,AFNE24.JPG,AFSA25.JPG,,,,,,,,,0,3,3,6,,,,,,,,,,,,,,,AFNE13.jpg,AFSA20.jpg,AFSA15.jpg,AFNE17.jpg,AFSA15.jpg,FS,4,num_2,32,num_8,0.766755030403,,,2017_Oct_19_1122,60.0176137701,FEMA4ImagesEEG,001,201639,
AMSA21.JPG,AMNE22.JPG,AMNE21.JPG,AMSA23.JPG,AMSA22.JPG,AMNE23.JPG,,,,,,,,,0,4,4,1,,,,,,,,,,,,,,,AFNE05.jpg,AFSA18.jpg,AFSA03.jpg,AFNE07.jpg,AFSA18.jpg,FS,4,num_6,16,num_6,1.03350765526,,,2017_Oct_19_1122,60.0176137701,FEMA4ImagesEEG,001,201639,
AFNE23.JPG,AFNE24.JPG,AFNE22.JPG,AFSA24.JPG,AFSA22.JPG,AFSA23.JPG,,,,,,,,,0,5,5,8,,,,,,,,,,,,,,,AFNE14.jpg,AFSA08.jpg,AFSA19.jpg,AFNE09.jpg,AFSA19.jpg,FS,4,num_2,32,num_8,0.883451285277,,,2017_Oct_19_1122,60.0176137701,FEMA4ImagesEEG,001,201639,
AFSA21.JPG,AFNE22.JPG,AFNE21.JPG,AFSA23.JPG,AFSA22.JPG,AFNE23.JPG,,,,,,,,,0,6,6,0,,,,,,,,,,,,,,,AFNE03.jpg,AFSA05.jpg,AFSA07.jpg,AFNE01.jpg,AFNE03.jpg,FN,3,num_8,16,num_8,0.716784137505,,,2017_Oct_19_1122,60.0176137701,FEMA4ImagesEEG,001,201639,
AFSA21.JPG,AFNE23.JPG,AFNE21.JPG,AFSA25.JPG,AFNE25.JPG,AFSA23.JPG,,,,,,,,,0,7,7,4,,,,,,,,,,,,,,,AFNE12.jpg,AFSA02.jpg,AFSA08.jpg,AFNE08.jpg,AFSA08.jpg,FS,4,num_2,16,num_2,1.16669473136,,,2017_Oct_19_1122,60.0176137701,FEMA4ImagesEEG,001,201639,
AFSA25.JPG,AFNE24.JPG,AFSA24.JPG,AFNE21.JPG,AFSA21.JPG,AFNE25.JPG,,,,,,,,,0,8,8,2,,,,,,,,,,,,,,,AFSA11.jpg,AFSA07.jpg,AFNE09.jpg,AFNE04.jpg,AFNE09.jpg,FN,3,num_2,32,num_4,1.76684451671,,,2017_Oct_19_1122,60.0176137701,FEMA4ImagesEEG,001,201639,
AMNE22.JPG,AMSA24.JPG,AMSA22.JPG,AMNE25.JPG,AMNE24.JPG,AMSA25.JPG,,,,,,,,,0,9,9,7,,,,,,,,,,,,,,,AFSA20.jpg,AFSA07.jpg,AFNE05.jpg,AFNE12.jpg,AFSA20.jpg,FS,4,num_8,16,num_8,0.583350412693,,,2017_Oct_19_1122,60.0176137701,FEMA4ImagesEEG,001,201639,
AMSA21.JPG,AMNE23.JPG,AMNE21.JPG,AMSA25.JPG,AMNE25.JPG,AMSA23.JPG,,,,,,,,,,,,,0,0,0,5,,,,,,,,,,,AMNE11.jpg,AMSA07.jpg,AMNE20.jpg,AMSA19.jpg,AMSA07.jpg,MS,2,num_6,16,num_6,1.00007665672,,,2017_Oct_19_1122,60.0176137701,FEMA4ImagesEEG,001,201639,
AMSA25.JPG,AMNE24.JPG,AMSA24.JPG,AMNE26.JPG,AMSA21.JPG,AMNE25.JPG,,,,,,,,,,,,,0,1,1,3,,,,,,,,,,,AMSA18.jpg,AMNE20.jpg,AMSA13.jpg,AMNE19.jpg,AMSA13.jpg,MS,2,num_2,16,num_2,0.983409749519,,,2017_Oct_19_1122,60.0176137701,FEMA4ImagesEEG,001,201639,
AFNE22.JPG,AFSA24.JPG,AFSA22.JPG,AFNE25.JPG,AFNE24.JPG,AFSA25.JPG,,,,,,,,,,,,,0,2,2,6,,,,,,,,,,,AMNE08.jpg,AMSA16.jpg,AMNE09.jpg,AMSA17.jpg,AMSA17.jpg,MS,2,num_4,16,num_4,0.750133988942,,,2017_Oct_19_1122,60.0176137701,FEMA4ImagesEEG,001,201639,
AFNE23.JPG,AFNE24.JPG,AFNE22.JPG,AFSA24.JPG,AFSA22.JPG,AFSA23.JPG,,,,,,,,,,,,,0,3,3,8,,,,,,,,,,,AMNE14.jpg,AMSA08.jpg,AMNE19.jpg,AMSA07.jpg,AMSA07.jpg,MS,2,num_4,32,num_8,1.11680819298,,,2017_Oct_19_1122,60.0176137701,FEMA4ImagesEEG,001,201639,
AFSA25.JPG,AFNE24.JPG,AFSA24.JPG,AFNE21.JPG,AFSA21.JPG,AFNE25.JPG,,,,,,,,,,,,,0,4,4,2,,,,,,,,,,,AMNE02.jpg,AMNE13.jpg,AMSA02.jpg,AMSA01.jpg,AMNE13.jpg,MN,1,num_6,32,num_8,0.900261242321,,,2017_Oct_19_1122,60.0176137701,FEMA4ImagesEEG,001,201639,
AMNE22.JPG,AMSA24.JPG,AMSA22.JPG,AMNE25.JPG,AMNE24.JPG,AMSA25.JPG,,,,,,,,,,,,,0,5,5,7,,,,,,,,,,,AMNE15.jpg,AMNE14.jpg,AMSA20.jpg,AMSA02.jpg,AMSA20.jpg,MS,2,num_2,16,num_2,2.05013062115,,,2017_Oct_19_1122,60.0176137701,FEMA4ImagesEEG,001,201639,
AFSA21.JPG,AFNE22.JPG,AFNE21.JPG,AFSA23.JPG,AFSA22.JPG,AFNE23.JPG,,,,,,,,,,,,,0,6,6,0,,,,,,,,,,,AMNE01.jpg,AMSA13.jpg,AMSA14.jpg,AMNE04.jpg,AMSA13.jpg,MS,2,num_6,32,num_4,1.41671341445,,,2017_Oct_19_1122,60.0176137701,FEMA4ImagesEEG,001,201639,
AFSA21.JPG,AFNE23.JPG,AFNE21.JPG,AFSA25.JPG,AFNE25.JPG,AFSA23.JPG,,,,,,,,,,,,,0,7,7,4,,,,,,,,,,,AMSA01.jpg,AMSA09.jpg,AMNE18.jpg,AMNE14.jpg,AMSA09.jpg,MS,2,num_6,16,num_6,0.633448318462,,,2017_Oct_19_1122,60.0176137701,FEMA4ImagesEEG,001,201639,
AMSA21.JPG,AMNE22.JPG,AMNE21.JPG,AMSA23.JPG,AMSA22.JPG,AMNE23.JPG,,,,,,,,,,,,,0,8,8,1,,,,,,,,,,,AMNE12.jpg,AMSA02.jpg,AMNE15.jpg,AMSA15.jpg,AMNE15.jpg,MN,1,num_2,16,num_2,1.16683297011,,,2017_Oct_19_1122,60.0176137701,FEMA4ImagesEEG,001,201639,
AMNE23.JPG,AMNE24.JPG,AMNE22.JPG,AMSA24.JPG,AMSA22.JPG,AMSA23.JPG,,,,,,,,,,,,,0,9,9,9,,,,,,,,,,,AMSA20.jpg,AMNE19.jpg,AMSA17.jpg,AMNE09.jpg,AMNE09.jpg,MN,1,num_4,32,num_8,1.55004610631,,,2017_Oct_19_1122,60.0176137701,FEMA4ImagesEEG,001,201639,
AMNE23.JPG,AMNE24.JPG,AMNE22.JPG,AMSA24.JPG,AMSA22.JPG,AMSA23.JPG,,,,,,,,,,,,,,,,,0,0,0,9,,,,,,,AFSA08.jpg,AFSA14.jpg,AFNE02.jpg,AFNE08.jpg,AFSA14.jpg,FS,4,num_6,32,num_4,4.64981629644,,,2017_Oct_19_1122,60.0176137701,FEMA4ImagesEEG,001,201639,
AMNE22.JPG,AMSA24.JPG,AMSA22.JPG,AMNE25.JPG,AMNE24.JPG,AMSA25.JPG,,,,,,,,,,,,,,,,,0,1,1,7,,,,,,,AFSA13.jpg,AFNE17.jpg,AFSA14.jpg,AFNE20.jpg,AFNE17.jpg,FN,3,num_6,32,num_4,1.06675679446,,,2017_Oct_19_1122,60.0176137701,FEMA4ImagesEEG,001,201639,
AMSA25.JPG,AMNE24.JPG,AMSA24.JPG,AMNE26.JPG,AMSA21.JPG,AMNE25.JPG,,,,,,,,,,,,,,,,,0,2,2,3,,,,,,,AFNE20.jpg,AFSA15.jpg,AFNE18.jpg,AFSA20.jpg,AFNE20.jpg,FN,3,num_8,32,num_4,1.16672744681,,,2017_Oct_19_1122,60.0176137701,FEMA4ImagesEEG,001,201639,
AFSA21.JPG,AFNE23.JPG,AFNE21.JPG,AFSA25.JPG,AFNE25.JPG,AFSA23.JPG,,,,,,,,,,,,,,,,,0,3,3,4,,,,,,,AFNE19.jpg,AFSA02.jpg,AFNE11.jpg,AFSA15.jpg,AFSA02.jpg,FS,4,num_6,32,num_8,1.99987587382,,,2017_Oct_19_1122,60.0176137701,FEMA4ImagesEEG,001,201639,
AFNE23.JPG,AFNE24.JPG,AFNE22.JPG,AFSA24.JPG,AFSA22.JPG,AFSA23.JPG,,,,,,,,,,,,,,,,,0,4,4,8,,,,,,,AFSA18.jpg,AFNE04.jpg,AFNE11.jpg,AFSA14.jpg,AFSA18.jpg,FS,4,num_8,32,num_2,1.05003407859,,,2017_Oct_19_1122,60.0176137701,FEMA4ImagesEEG,001,201639,
AFSA25.JPG,AFNE24.JPG,AFSA24.JPG,AFNE21.JPG,AFSA21.JPG,AFNE25.JPG,,,,,,,,,,,,,,,,,0,5,5,2,,,,,,,AFSA17.jpg,AFNE18.jpg,AFNE09.jpg,AFSA03.jpg,AFNE18.jpg,FN,3,num_6,16,num_6,0.583473576669,,,2017_Oct_19_1122,60.0176137701,FEMA4ImagesEEG,001,201639,
AMSA21.JPG,AMNE23.JPG,AMNE21.JPG,AMSA25.JPG,AMNE25.JPG,AMSA23.JPG,,,,,,,,,,,,,,,,,0,6,6,5,,,,,,,AFNE04.jpg,AFSA19.jpg,AFNE14.jpg,AFSA17.jpg,AFSA19.jpg,FS,4,num_6,16,num_6,1.15014938443,,,2017_Oct_19_1122,60.0176137701,FEMA4ImagesEEG,001,201639,
AMSA21.JPG,AMNE22.JPG,AMNE21.JPG,AMSA23.JPG,AMSA22.JPG,AMNE23.JPG,,,,,,,,,,,,,,,,,0,7,7,1,,,,,,,AFSA12.jpg,AFNE15.jpg,AFNE12.jpg,AFSA13.jpg,AFNE15.jpg,FN,3,num_6,32,num_2,1.016818617,,,2017_Oct_19_1122,60.0176137701,FEMA4ImagesEEG,001,201639,
AFSA21.JPG,AFNE22.JPG,AFNE21.JPG,AFSA23.JPG,AFSA22.JPG,AFNE23.JPG,,,,,,,,,,,,,,,,,0,8,8,0,,,,,,,AFNE01.jpg,AFSA07.jpg,AFNE11.jpg,AFSA10.jpg,AFNE01.jpg,FN,3,num_8,16,num_8,0.950113140862,,,2017_Oct_19_1122,60.0176137701,FEMA4ImagesEEG,001,201639,
AFNE22.JPG,AFSA24.JPG,AFSA22.JPG,AFNE25.JPG,AFNE24.JPG,AFSA25.JPG,,,,,,,,,,,,,,,,,0,9,9,6,,,,,,,AFSA18.jpg,AFNE05.jpg,AFSA19.jpg,AFNE16.jpg,AFSA19.jpg,FS,4,num_2,16,num_2,0.666738833068,,,2017_Oct_19_1122,60.0176137701,FEMA4ImagesEEG,001,201639,
AFSA21.JPG,AFNE23.JPG,AFNE21.JPG,AFSA25.JPG,AFNE25.JPG,AFSA23.JPG,,,,,,,,,,,,,,,,,,,,,0,0,0,4,,,AMNE14.jpg,AMNE02.jpg,AMSA13.jpg,AMSA02.jpg,AMNE02.jpg,MN,1,num_6,16,num_6,0.666804263921,,,2017_Oct_19_1122,60.0176137701,FEMA4ImagesEEG,001,201639,
AMSA21.JPG,AMNE22.JPG,AMNE21.JPG,AMSA23.JPG,AMSA22.JPG,AMNE23.JPG,,,,,,,,,,,,,,,,,,,,,0,1,1,1,,,AMNE02.jpg,AMSA03.jpg,AMNE19.jpg,AMSA01.jpg,AMSA03.jpg,MS,2,num_6,32,num_4,0.783447917522,,,2017_Oct_19_1122,60.0176137701,FEMA4ImagesEEG,001,201639,
AFNE23.JPG,AFNE24.JPG,AFNE22.JPG,AFSA24.JPG,AFSA22.JPG,AFSA23.JPG,,,,,,,,,,,,,,,,,,,,,0,2,2,8,,,AMSA19.jpg,AMSA20.jpg,AMNE19.jpg,AMNE05.jpg,AMNE05.jpg,MN,1,num_4,16,num_4,0.866768341075,,,2017_Oct_19_1122,60.0176137701,FEMA4ImagesEEG,001,201639,
AMSA21.JPG,AMNE23.JPG,AMNE21.JPG,AMSA25.JPG,AMNE25.JPG,AMSA23.JPG,,,,,,,,,,,,,,,,,,,,,0,3,3,5,,,AMSA14.jpg,AMNE14.jpg,AMSA13.jpg,AMNE10.jpg,AMSA14.jpg,MS,2,num_8,16,num_8,0.883443908271,,,2017_Oct_19_1122,60.0176137701,FEMA4ImagesEEG,001,201639,
AMNE22.JPG,AMSA24.JPG,AMSA22.JPG,AMNE25.JPG,AMNE24.JPG,AMSA25.JPG,,,,,,,,,,,,,,,,,,,,,0,4,4,7,,,AMNE08.jpg,AMSA13.jpg,AMSA20.jpg,AMNE15.jpg,AMNE15.jpg,MN,1,num_4,32,num_2,1.45002381492,,,2017_Oct_19_1122,60.0176137701,FEMA4ImagesEEG,001,201639,
AFSA21.JPG,AFNE22.JPG,AFNE21.JPG,AFSA23.JPG,AFSA22.JPG,AFNE23.JPG,,,,,,,,,,,,,,,,,,,,,0,5,5,0,,,AMNE12.jpg,AMNE14.jpg,AMSA01.jpg,AMSA16.jpg,AMSA16.jpg,MS,2,num_4,32,num_2,0.95013014006,,,2017_Oct_19_1122,60.0176137701,FEMA4ImagesEEG,001,201639,
AMNE23.JPG,AMNE24.JPG,AMNE22.JPG,AMSA24.JPG,AMSA22.JPG,AMSA23.JPG,,,,,,,,,,,,,,,,,,,,,0,6,6,9,,,AMSA05.jpg,AMSA13.jpg,AMNE10.jpg,AMNE20.jpg,AMSA05.jpg,MS,2,num_8,32,num_2,0.8834977925,,,2017_Oct_19_1122,60.0176137701,FEMA4ImagesEEG,001,201639,
AFSA25.JPG,AFNE24.JPG,AFSA24.JPG,AFNE21.JPG,AFSA21.JPG,AFNE25.JPG,,,,,,,,,,,,,,,,,,,,,0,7,7,2,,,AMNE11.jpg,AMSA09.jpg,AMSA17.jpg,AMNE07.jpg,AMNE07.jpg,MN,1,num_4,32,num_8,1.11673346066,,,2017_Oct_19_1122,60.0176137701,FEMA4ImagesEEG,001,201639,
AMSA25.JPG,AMNE24.JPG,AMSA24.JPG,AMNE26.JPG,AMSA21.JPG,AMNE25.JPG,,,,,,,,,,,,,,,,,,,,,0,8,8,3,,,AMSA04.jpg,AMNE08.jpg,AMNE06.jpg,AMSA10.jpg,AMNE08.jpg,MN,1,num_6,32,num_2,1.01678076974,,,2017_Oct_19_1122,60.0176137701,FEMA4ImagesEEG,001,201639,
AFNE22.JPG,AFSA24.JPG,AFSA22.JPG,AFNE25.JPG,AFNE24.JPG,AFSA25.JPG,,,,,,,,,,,,,,,,,,,,,0,9,9,6,,,AMSA09.jpg,AMNE16.jpg,AMNE13.jpg,AMSA02.jpg,AMNE16.jpg,MN,1,num_6,32,num_2,0.9667640111,,,2017_Oct_19_1122,60.0176137701,FEMA4ImagesEEG,001,201639,
,,,,,,,,,,,,,,,,,,,,,,,,,,,,,,,,,,,,,,,,,,,space,16.9485658935,2017_Oct_19_1122,60.0176137701,FEMA4ImagesEEG,001,201639,
AFNE01.JPG,AFNE01.JPG,AFNE01.JPG,AFNE01.JPG,AFNE01.JPG,AFNE01.JPG,0,0,0,8,,,,,,,,,,,,,,,,,,,,,,,AFSA16.jpg,AFSA07.jpg,AFNE18.jpg,AFNE05.jpg,AFNE18.jpg,FN,3,num_2,32,num_6,0.750136554852,,,2017_Oct_19_1122,60.0176137701,FEMA4ImagesEEG,001,201639,
AFNE01.JPG,AFNE01.JPG,AFNE01.JPG,AFNE01.JPG,AFNE01.JPG,AFNE01.JPG,0,1,1,2,,,,,,,,,,,,,,,,,,,,,,,AFSA11.jpg,AFSA14.jpg,AFNE04.jpg,AFNE05.jpg,AFNE05.jpg,FN,3,num_4,32,num_2,0.750176326546,,,2017_Oct_19_1122,60.0176137701,FEMA4ImagesEEG,001,201639,
AFNE01.JPG,AFNE01.JPG,AFNE01.JPG,AFNE01.JPG,AFNE01.JPG,AFNE01.JPG,0,2,2,3,,,,,,,,,,,,,,,,,,,,,,,AFSA09.jpg,AFSA17.jpg,AFNE05.jpg,AFNE15.jpg,AFNE15.jpg,FN,3,num_4,32,num_2,0.650141205551,,,2017_Oct_19_1122,60.0176137701,FEMA4ImagesEEG,001,201639,
AFNE01.JPG,AFNE01.JPG,AFNE01.JPG,AFNE01.JPG,AFNE01.JPG,AFNE01.JPG,0,3,3,0,,,,,,,,,,,,,,,,,,,,,,,AFNE11.jpg,AFSA15.jpg,AFSA09.jpg,AFNE18.jpg,AFNE18.jpg,FN,3,num_4,32,num_8,1.35003744633,,,2017_Oct_19_1122,60.0176137701,FEMA4ImagesEEG,001,201639,
AFNE01.JPG,AFNE01.JPG,AFNE01.JPG,AFNE01.JPG,AFNE01.JPG,AFNE01.JPG,0,4,4,1,,,,,,,,,,,,,,,,,,,,,,,AFSA07.jpg,AFNE20.jpg,AFNE10.jpg,AFSA19.jpg,AFSA07.jpg,FS,4,num_8,32,num_2,0.949987090222,,,2017_Oct_19_1122,60.0176137701,FEMA4ImagesEEG,001,201639,
AFNE01.JPG,AFNE01.JPG,AFNE01.JPG,AFNE01.JPG,AFNE01.JPG,AFNE01.JPG,0,5,5,5,,,,,,,,,,,,,,,,,,,,,,,AFSA19.jpg,AFSA07.jpg,AFNE02.jpg,AFNE05.jpg,AFNE05.jpg,FN,3,num_4,16,num_4,1.73340357529,,,2017_Oct_19_1122,60.0176137701,FEMA4ImagesEEG,001,201639,
AFNE01.JPG,AFNE01.JPG,AFNE01.JPG,AFNE01.JPG,AFNE01.JPG,AFNE01.JPG,0,6,6,4,,,,,,,,,,,,,,,,,,,,,,,AFSA01.jpg,AFNE02.jpg,AFNE07.jpg,AFSA09.jpg,AFNE02.jpg,FN,3,num_6,32,num_2,1.31673923397,,,2017_Oct_19_1122,60.0176137701,FEMA4ImagesEEG,001,201639,
AFNE01.JPG,AFNE01.JPG,AFNE01.JPG,AFNE01.JPG,AFNE01.JPG,AFNE01.JPG,0,7,7,7,,,,,,,,,,,,,,,,,,,,,,,AFSA05.jpg,AFSA16.jpg,AFNE10.jpg,AFNE04.jpg,AFNE10.jpg,FN,3,num_2,16,num_2,1.35006919954,,,2017_Oct_19_1122,60.0176137701,FEMA4ImagesEEG,001,201639,
AFNE01.JPG,AFNE01.JPG,AFNE01.JPG,AFNE01.JPG,AFNE01.JPG,AFNE01.JPG,0,8,8,9,,,,,,,,,,,,,,,,,,,,,,,AFNE12.jpg,AFSA05.jpg,AFNE15.jpg,AFSA01.jpg,AFNE12.jpg,FN,3,num_8,16,num_8,0.966497476591,,,2017_Oct_19_1122,60.0176137701,FEMA4ImagesEEG,001,201639,
AFNE01.JPG,AFNE01.JPG,AFNE01.JPG,AFNE01.JPG,AFNE01.JPG,AFNE01.JPG,0,9,9,6,,,,,,,,,,,,,,,,,,,,,,,AFSA12.jpg,AFSA06.jpg,AFNE11.jpg,AFNE05.jpg,AFNE11.jpg,FN,3,num_2,32,num_4,0.816777883098,,,2017_Oct_19_1122,60.0176137701,FEMA4ImagesEEG,001,201639,
AFNE01.JPG,AFNE01.JPG,AFNE01.JPG,AFNE01.JPG,AFNE01.JPG,AFNE01.JPG,1,0,10,7,,,,,,,,,,,,,,,,,,,,,,,AFNE05.jpg,AFNE19.jpg,AFSA05.jpg,AFSA04.jpg,AFNE19.jpg,FN,3,num_6,16,num_6,1.40006799679,,,2017_Oct_19_1122,60.0176137701,FEMA4ImagesEEG,001,201639,
AFNE01.JPG,AFNE01.JPG,AFNE01.JPG,AFNE01.JPG,AFNE01.JPG,AFNE01.JPG,1,1,11,9,,,,,,,,,,,,,,,,,,,,,,,AFNE03.jpg,AFSA11.jpg,AFSA09.jpg,AFNE08.jpg,AFSA11.jpg,FS,4,num_6,16,num_6,1.13396615238,,,2017_Oct_19_1122,60.0176137701,FEMA4ImagesEEG,001,201639,
AFNE01.JPG,AFNE01.JPG,AFNE01.JPG,AFNE01.JPG,AFNE01.JPG,AFNE01.JPG,1,2,12,3,,,,,,,,,,,,,,,,,,,,,,,AFNE07.jpg,AFSA18.jpg,AFNE15.jpg,AFSA12.jpg,AFSA12.jpg,FS,4,num_4,16,num_4,0.766781651764,,,2017_Oct_19_1122,60.0176137701,FEMA4ImagesEEG,001,201639,
AFNE01.JPG,AFNE01.JPG,AFNE01.JPG,AFNE01.JPG,AFNE01.JPG,AFNE01.JPG,1,3,13,6,,,,,,,,,,,,,,,,,,,,,,,AFSA07.jpg,AFNE08.jpg,AFSA09.jpg,AFNE16.jpg,AFSA09.jpg,FS,4,num_2,16,num_2,1.05009341537,,,2017_Oct_19_1122,60.0176137701,FEMA4ImagesEEG,001,201639,
AFNE01.JPG,AFNE01.JPG,AFNE01.JPG,AFNE01.JPG,AFNE01.JPG,AFNE01.JPG,1,4,14,4,,,,,,,,,,,,,,,,,,,,,,,AFNE01.jpg,AFSA03.jpg,AFSA13.jpg,AFNE13.jpg,AFSA13.jpg,FS,4,num_2,16,num_2,0.783451124909,,,2017_Oct_19_1122,60.0176137701,FEMA4ImagesEEG,001,201639,
AFNE01.JPG,AFNE01.JPG,AFNE01.JPG,AFNE01.JPG,AFNE01.JPG,AFNE01.JPG,1,5,15,2,,,,,,,,,,,,,,,,,,,,,,,AFSA02.jpg,AFSA11.jpg,AFNE14.jpg,AFNE06.jpg,AFNE06.jpg,FN,3,num_4,16,num_4,0.683568675944,,,2017_Oct_19_1122,60.0176137701,FEMA4ImagesEEG,001,201639,
AFNE01.JPG,AFNE01.JPG,AFNE01.JPG,AFNE01.JPG,AFNE01.JPG,AFNE01.JPG,1,6,16,1,,,,,,,,,,,,,,,,,,,,,,,AFSA01.jpg,AFSA12.jpg,AFNE13.jpg,AFNE03.jpg,AFNE13.jpg,FN,3,num_2,32,num_4,0.966730974935,,,2017_Oct_19_1122,60.0176137701,FEMA4ImagesEEG,001,201639,
AFNE01.JPG,AFNE01.JPG,AFNE01.JPG,AFNE01.JPG,AFNE01.JPG,AFNE01.JPG,1,7,17,5,,,,,,,,,,,,,,,,,,,,,,,AFNE02.jpg,AFSA02.jpg,AFSA19.jpg,AFNE19.jpg,AFNE19.jpg,FN,3,num_4,16,num_4,0.63345152585,,,2017_Oct_19_1122,60.0176137701,FEMA4ImagesEEG,001,201639,
AFNE01.JPG,AFNE01.JPG,AFNE01.JPG,AFNE01.JPG,AFNE01.JPG,AFNE01.JPG,1,8,18,0,,,,,,,,,,,,,,,,,,,,,,,AFNE04.jpg,AFNE08.jpg,AFSA02.jpg,AFSA13.jpg,AFNE04.jpg,FN,3,num_8,16,num_8,0.616818296287,,,2017_Oct_19_1122,60.0176137701,FEMA4ImagesEEG,001,201639,
AFNE01.JPG,AFNE01.JPG,AFNE01.JPG,AFNE01.JPG,AFNE01.JPG,AFNE01.JPG,1,9,19,8,,,,,,,,,,,,,,,,,,,,,,,AFNE14.jpg,AFSA12.jpg,AFNE10.jpg,AFSA10.jpg,AFSA12.jpg,FS,4,num_6,16,num_6,0.666797528393,,,2017_Oct_19_1122,60.0176137701,FEMA4ImagesEEG,001,201639,
AFNE01.JPG,AFNE01.JPG,AFNE01.JPG,AFNE01.JPG,AFNE01.JPG,AFNE01.JPG,2,0,20,8,,,,,,,,,,,,,,,,,,,,,,,AFNE06.jpg,AFSA13.jpg,AFSA06.jpg,AFNE07.jpg,AFNE07.jpg,FN,3,num_4,16,num_4,1.16702990414,,,2017_Oct_19_1122,60.0176137701,FEMA4ImagesEEG,001,201639,
AFNE01.JPG,AFNE01.JPG,AFNE01.JPG,AFNE01.JPG,AFNE01.JPG,AFNE01.JPG,2,1,21,9,,,,,,,,,,,,,,,,,,,,,,,AFSA19.jpg,AFNE19.jpg,AFSA01.jpg,AFNE13.jpg,AFNE19.jpg,FN,3,num_6,32,num_2,0.850091811677,,,2017_Oct_19_1122,60.0176137701,FEMA4ImagesEEG,001,201639,
AFNE01.JPG,AFNE01.JPG,AFNE01.JPG,AFNE01.JPG,AFNE01.JPG,AFNE01.JPG,2,2,22,0,,,,,,,,,,,,,,,,,,,,,,,AFSA19.jpg,AFNE14.jpg,AFSA04.jpg,AFNE06.jpg,AFSA19.jpg,FS,4,num_8,16,num_8,0.967067751393,,,2017_Oct_19_1122,60.0176137701,FEMA4ImagesEEG,001,201639,
AFNE01.JPG,AFNE01.JPG,AFNE01.JPG,AFNE01.JPG,AFNE01.JPG,AFNE01.JPG,2,3,23,1,,,,,,,,,,,,,,,,,,,,,,,AFSA01.jpg,AFNE08.jpg,AFSA19.jpg,AFNE07.jpg,AFNE08.jpg,FN,3,num_6,32,num_8,0.56677972732,,,2017_Oct_19_1122,60.0176137701,FEMA4ImagesEEG,001,201639,
AFNE01.JPG,AFNE01.JPG,AFNE01.JPG,AFNE01.JPG,AFNE01.JPG,AFNE01.JPG,2,4,24,7,,,,,,,,,,,,,,,,,,,,,,,AFNE14.jpg,AFSA19.jpg,AFNE18.jpg,AFSA10.jpg,AFSA10.jpg,FS,4,num_4,16,num_4,0.783425145026,,,2017_Oct_19_1122,60.0176137701,FEMA4ImagesEEG,001,201639,
AFNE01.JPG,AFNE01.JPG,AFNE01.JPG,AFNE01.JPG,AFNE01.JPG,AFNE01.JPG,2,5,25,3,,,,,,,,,,,,,,,,,,,,,,,AFNE18.jpg,AFSA11.jpg,AFNE14.jpg,AFSA06.jpg,AFNE14.jpg,FN,3,num_2,32,num_8,1.56668350549,,,2017_Oct_19_1122,60.0176137701,FEMA4ImagesEEG,001,201639,
AFNE01.JPG,AFNE01.JPG,AFNE01.JPG,AFNE01.JPG,AFNE01.JPG,AFNE01.JPG,2,6,26,4,,,,,,,,,,,,,,,,,,,,,,,AFNE10.jpg,AFNE18.jpg,AFSA11.jpg,AFSA13.jpg,AFNE10.jpg,FN,3,num_8,16,num_8,0.750130460801,,,2017_Oct_19_1122,60.0176137701,FEMA4ImagesEEG,001,201639,
AFNE01.JPG,AFNE01.JPG,AFNE01.JPG,AFNE01.JPG,AFNE01.JPG,AFNE01.JPG,2,7,27,6,,,,,,,,,,,,,,,,,,,,,,,AFSA20.jpg,AFNE13.jpg,AFSA07.jpg,AFNE19.jpg,AFNE13.jpg,FN,3,num_6,32,num_8,1.3333638036,,,2017_Oct_19_1122,60.0176137701,FEMA4ImagesEEG,001,201639,
AFNE01.JPG,AFNE01.JPG,AFNE01.JPG,AFNE01.JPG,AFNE01.JPG,AFNE01.JPG,2,8,28,2,,,,,,,,,,,,,,,,,,,,,,,AFNE18.jpg,AFSA16.jpg,AFNE04.jpg,AFSA03.jpg,AFSA16.jpg,FS,4,num_6,32,num_4,0.783501480997,,,2017_Oct_19_1122,60.0176137701,FEMA4ImagesEEG,001,201639,
AFNE01.JPG,AFNE01.JPG,AFNE01.JPG,AFNE01.JPG,AFNE01.JPG,AFNE01.JPG,2,9,29,5,,,,,,,,,,,,,,,,,,,,,,,AFSA06.jpg,AFSA04.jpg,AFNE18.jpg,AFNE03.jpg,AFNE18.jpg,FN,3,num_2,16,num_2,2.06671157019,,,2017_Oct_19_1122,60.0176137701,FEMA4ImagesEEG,001,201639,
AFNE01.JPG,AFNE01.JPG,AFNE01.JPG,AFNE01.JPG,AFNE01.JPG,AFNE01.JPG,3,0,30,0,,,,,,,,,,,,,,,,,,,,,,,AFNE04.jpg,AFSA17.jpg,AFSA04.jpg,AFNE13.jpg,AFSA04.jpg,FS,4,num_2,16,num_2,1.0001007122,,,2017_Oct_19_1122,60.0176137701,FEMA4ImagesEEG,001,201639,
AFNE01.JPG,AFNE01.JPG,AFNE01.JPG,AFNE01.JPG,AFNE01.JPG,AFNE01.JPG,3,1,31,6,,,,,,,,,,,,,,,,,,,,,,,AFSA11.jpg,AFNE10.jpg,AFSA06.jpg,AFNE16.jpg,AFSA06.jpg,FS,4,num_2,32,num_8,1.16672584313,,,2017_Oct_19_1122,60.0176137701,FEMA4ImagesEEG,001,201639,
AFNE01.JPG,AFNE01.JPG,AFNE01.JPG,AFNE01.JPG,AFNE01.JPG,AFNE01.JPG,3,2,32,2,,,,,,,,,,,,,,,,,,,,,,,AFNE07.jpg,AFSA16.jpg,AFNE09.jpg,AFSA10.jpg,AFSA10.jpg,FS,4,num_4,32,num_2,0.800208480679,,,2017_Oct_19_1122,60.0176137701,FEMA4ImagesEEG,001,201639,
AFNE01.JPG,AFNE01.JPG,AFNE01.JPG,AFNE01.JPG,AFNE01.JPG,AFNE01.JPG,3,3,33,1,,,,,,,,,,,,,,,,,,,,,,,AFNE09.jpg,AFSA14.jpg,AFSA02.jpg,AFNE11.jpg,AFSA02.jpg,FS,4,num_2,32,num_4,1.16678902879,,,2017_Oct_19_1122,60.0176137701,FEMA4ImagesEEG,001,201639,
AFNE01.JPG,AFNE01.JPG,AFNE01.JPG,AFNE01.JPG,AFNE01.JPG,AFNE01.JPG,3,4,34,9,,,,,,,,,,,,,,,,,,,,,,,AFSA17.jpg,AFNE03.jpg,AFNE11.jpg,AFSA07.jpg,AFNE03.jpg,FN,3,num_6,32,num_4,1.00020399032,,,2017_Oct_19_1122,60.0176137701,FEMA4ImagesEEG,001,201639,
AFNE01.JPG,AFNE01.JPG,AFNE01.JPG,AFNE01.JPG,AFNE01.JPG,AFNE01.JPG,3,5,35,5,,,,,,,,,,,,,,,,,,,,,,,AFNE13.jpg,AFSA08.jpg,AFNE12.jpg,AFSA17.jpg,AFSA08.jpg,FS,4,num_6,32,num_4,1.81674677134,,,2017_Oct_19_1122,60.0176137701,FEMA4ImagesEEG,001,201639,
AFNE01.JPG,AFNE01.JPG,AFNE01.JPG,AFNE01.JPG,AFNE01.JPG,AFNE01.JPG,3,6,36,7,,,,,,,,,,,,,,,,,,,,,,,AFSA07.jpg,AFSA15.jpg,AFNE06.jpg,AFNE12.jpg,AFNE06.jpg,FN,3,num_2,16,num_2,0.866760643345,,,2017_Oct_19_1122,60.0176137701,FEMA4ImagesEEG,001,201639,
AFNE01.JPG,AFNE01.JPG,AFNE01.JPG,AFNE01.JPG,AFNE01.JPG,AFNE01.JPG,3,7,37,8,,,,,,,,,,,,,,,,,,,,,,,AFSA04.jpg,AFNE04.jpg,AFNE19.jpg,AFSA01.jpg,AFSA04.jpg,FS,4,num_8,16,num_8,1.00011931511,,,2017_Oct_19_1122,60.0176137701,FEMA4ImagesEEG,001,201639,
AFNE01.JPG,AFNE01.JPG,AFNE01.JPG,AFNE01.JPG,AFNE01.JPG,AFNE01.JPG,3,8,38,3,,,,,,,,,,,,,,,,,,,,,,,AFNE12.jpg,AFSA02.jpg,AFNE08.jpg,AFSA10.jpg,AFSA10.jpg,FS,4,num_4,16,num_4,1.73338112351,,,2017_Oct_19_1122,60.0176137701,FEMA4ImagesEEG,001,201639,
AFNE01.JPG,AFNE01.JPG,AFNE01.JPG,AFNE01.JPG,AFNE01.JPG,AFNE01.JPG,3,9,39,4,,,,,,,,,,,,,,,,,,,,,,,AFNE07.jpg,AFSA02.jpg,AFSA07.jpg,AFNE19.jpg,AFNE19.jpg,FN,3,num_4,16,num_4,0.8001013537,,,2017_Oct_19_1122,60.0176137701,FEMA4ImagesEEG,001,201639,
AFNE01.JPG,AFNE01.JPG,AFNE01.JPG,AFNE01.JPG,AFNE01.JPG,AFNE01.JPG,4,0,40,0,,,,,,,,,,,,,,,,,,,,,,,AFSA09.jpg,AFNE04.jpg,AFSA11.jpg,AFNE12.jpg,AFSA11.jpg,FS,4,num_2,16,num_2,0.850099188683,,,2017_Oct_19_1122,60.0176137701,FEMA4ImagesEEG,001,201639,
AFNE01.JPG,AFNE01.JPG,AFNE01.JPG,AFNE01.JPG,AFNE01.JPG,AFNE01.JPG,4,1,41,4,,,,,,,,,,,,,,,,,,,,,,,AFNE14.jpg,AFSA16.jpg,AFSA14.jpg,AFNE09.jpg,AFNE14.jpg,FN,3,num_8,32,num_4,1.51637776056,,,2017_Oct_19_1122,60.0176137701,FEMA4ImagesEEG,001,201639,
AFNE01.JPG,AFNE01.JPG,AFNE01.JPG,AFNE01.JPG,AFNE01.JPG,AFNE01.JPG,4,2,42,8,,,,,,,,,,,,,,,,,,,,,,,AFSA17.jpg,AFNE14.jpg,AFNE13.jpg,AFSA03.jpg,AFNE13.jpg,FN,3,num_2,32,num_4,0.816790071171,,,2017_Oct_19_1122,60.0176137701,FEMA4ImagesEEG,001,201639,
AFNE01.JPG,AFNE01.JPG,AFNE01.JPG,AFNE01.JPG,AFNE01.JPG,AFNE01.JPG,4,3,43,9,,,,,,,,,,,,,,,,,,,,,,,AFSA08.jpg,AFNE20.jpg,AFSA15.jpg,AFNE06.jpg,AFNE06.jpg,FN,3,num_4,32,num_8,1.51671485777,,,2017_Oct_19_1122,60.0176137701,FEMA4ImagesEEG,001,201639,
AFNE01.JPG,AFNE01.JPG,AFNE01.JPG,AFNE01.JPG,AFNE01.JPG,AFNE01.JPG,4,4,44,3,,,,,,,,,,,,,,,,,,,,,,,AFSA03.jpg,AFNE19.jpg,AFNE15.jpg,AFSA18.jpg,AFNE15.jpg,FN,3,num_2,16,num_2,0.983450483443,,,2017_Oct_19_1122,60.0176137701,FEMA4ImagesEEG,001,201639,
AFNE01.JPG,AFNE01.JPG,AFNE01.JPG,AFNE01.JPG,AFNE01.JPG,AFNE01.JPG,4,5,45,5,,,,,,,,,,,,,,,,,,,,,,,AFSA10.jpg,AFSA14.jpg,AFNE06.jpg,AFNE18.jpg,AFNE18.jpg,FN,3,num_4,32,num_8,2.01703575763,,,2017_Oct_19_1122,60.0176137701,FEMA4ImagesEEG,001,201639,
AFNE01.JPG,AFNE01.JPG,AFNE01.JPG,AFNE01.JPG,AFNE01.JPG,AFNE01.JPG,4,6,46,1,,,,,,,,,,,,,,,,,,,,,,,AFNE19.jpg,AFSA18.jpg,AFSA01.jpg,AFNE15.jpg,AFSA01.jpg,FS,4,num_2,16,num_2,1.26667436442,,,2017_Oct_19_1122,60.0176137701,FEMA4ImagesEEG,001,201639,
AFNE01.JPG,AFNE01.JPG,AFNE01.JPG,AFNE01.JPG,AFNE01.JPG,AFNE01.JPG,4,7,47,6,,,,,,,,,,,,,,,,,,,,,,,AFSA08.jpg,AFSA01.jpg,AFNE10.jpg,AFNE03.jpg,AFSA08.jpg,FS,4,num_8,16,num_8,1.23342394223,,,2017_Oct_19_1122,60.0176137701,FEMA4ImagesEEG,001,201639,
AFNE01.JPG,AFNE01.JPG,AFNE01.JPG,AFNE01.JPG,AFNE01.JPG,AFNE01.JPG,4,8,48,7,,,,,,,,,,,,,,,,,,,,,,,AFNE03.jpg,AFSA11.jpg,AFNE06.jpg,AFSA03.jpg,AFSA03.jpg,FS,4,num_4,32,num_2,3.78323045615,,,2017_Oct_19_1122,60.0176137701,FEMA4ImagesEEG,001,201639,
AFNE01.JPG,AFNE01.JPG,AFNE01.JPG,AFNE01.JPG,AFNE01.JPG,AFNE01.JPG,4,9,49,2,,,,,,,,,,,,,,,,,,,,,,,AFSA20.jpg,AFSA08.jpg,AFNE14.jpg,AFNE09.jpg,AFNE14.jpg,FN,3,num_2,32,num_4,0.866743323393,,,2017_Oct_19_1122,60.0176137701,FEMA4ImagesEEG,001,201639,
AFNE01.JPG,AFNE01.JPG,AFNE01.JPG,AFNE01.JPG,AFNE01.JPG,AFNE01.JPG,5,0,50,0,,,,,,,,,,,,,,,,,,,,,,,AFSA14.jpg,AFSA05.jpg,AFNE20.jpg,AFNE19.jpg,AFNE19.jpg,FN,3,num_4,16,num_4,0.833481675334,,,2017_Oct_19_1122,60.0176137701,FEMA4ImagesEEG,001,201639,
AFNE01.JPG,AFNE01.JPG,AFNE01.JPG,AFNE01.JPG,AFNE01.JPG,AFNE01.JPG,5,1,51,4,,,,,,,,,,,,,,,,,,,,,,,AFNE09.jpg,AFNE02.jpg,AFSA20.jpg,AFSA18.jpg,AFNE09.jpg,FN,3,num_8,16,num_8,1.43311186272,,,2017_Oct_19_1122,60.0176137701,FEMA4ImagesEEG,001,201639,
AFNE01.JPG,AFNE01.JPG,AFNE01.JPG,AFNE01.JPG,AFNE01.JPG,AFNE01.JPG,5,2,52,8,,,,,,,,,,,,,,,,,,,,,,,AFSA04.jpg,AFSA12.jpg,AFNE16.jpg,AFNE04.jpg,AFNE16.jpg,FN,3,num_2,16,num_2,2.00013438985,,,2017_Oct_19_1122,60.0176137701,FEMA4ImagesEEG,001,201639,
AFNE01.JPG,AFNE01.JPG,AFNE01.JPG,AFNE01.JPG,AFNE01.JPG,AFNE01.JPG,5,3,53,5,,,,,,,,,,,,,,,,,,,,,,,AFSA13.jpg,AFNE07.jpg,AFSA20.jpg,AFNE03.jpg,AFNE03.jpg,FN,3,num_4,32,num_2,1.31676585536,,,2017_Oct_19_1122,60.0176137701,FEMA4ImagesEEG,001,201639,
AFNE01.JPG,AFNE01.JPG,AFNE01.JPG,AFNE01.JPG,AFNE01.JPG,AFNE01.JPG,5,4,54,1,,,,,,,,,,,,,,,,,,,,,,,AFSA01.jpg,AFNE03.jpg,AFNE10.jpg,AFSA11.jpg,AFSA01.jpg,FS,4,num_8,32,num_4,0.766777482146,,,2017_Oct_19_1122,60.0176137701,FEMA4ImagesEEG,001,201639,
AFNE01.JPG,AFNE01.JPG,AFNE01.JPG,AFNE01.JPG,AFNE01.JPG,AFNE01.JPG,5,5,55,6,,,,,,,,,,,,,,,,,,,,,,,AFSA20.jpg,AFSA14.jpg,AFNE07.jpg,AFNE20.jpg,AFSA14.jpg,FS,4,num_6,32,num_2,0.916847964661,,,2017_Oct_19_1122,60.0176137701,FEMA4ImagesEEG,001,201639,
AFNE01.JPG,AFNE01.JPG,AFNE01.JPG,AFNE01.JPG,AFNE01.JPG,AFNE01.JPG,5,6,56,3,,,,,,,,,,,,,,,,,,,,,,,AFSA19.jpg,AFSA14.jpg,AFNE05.jpg,AFNE11.jpg,AFSA19.jpg,FS,4,num_8,16,num_8,0.750098386838,,,2017_Oct_19_1122,60.0176137701,FEMA4ImagesEEG,001,201639,
AFNE01.JPG,AFNE01.JPG,AFNE01.JPG,AFNE01.JPG,AFNE01.JPG,AFNE01.JPG,5,7,57,2,,,,,,,,,,,,,,,,,,,,,,,AFSA02.jpg,AFNE10.jpg,AFSA07.jpg,AFNE01.jpg,AFSA02.jpg,FS,4,num_8,32,num_2,0.833611574839,,,2017_Oct_19_1122,60.0176137701,FEMA4ImagesEEG,001,201639,
AFNE01.JPG,AFNE01.JPG,AFNE01.JPG,AFNE01.JPG,AFNE01.JPG,AFNE01.JPG,5,8,58,9,,,,,,,,,,,,,,,,,,,,,,,AFSA18.jpg,AFSA08.jpg,AFNE19.jpg,AFNE02.jpg,AFNE19.jpg,FN,3,num_2,16,num_2,0.666810037219,,,2017_Oct_19_1122,60.0176137701,FEMA4ImagesEEG,001,201639,
AFNE01.JPG,AFNE01.JPG,AFNE01.JPG,AFNE01.JPG,AFNE01.JPG,AFNE01.JPG,5,9,59,7,,,,,,,,,,,,,,,,,,,,,,,AFNE15.jpg,AFNE17.jpg,AFSA16.jpg,AFSA02.jpg,AFNE15.jpg,FN,3,num_8,16,num_8,0.700142247952,,,2017_Oct_19_1122,60.0176137701,FEMA4ImagesEEG,001,201639,
,,,,,,,,,,,,,,,,,,,,,,,,,,,,,,,,,,,,,,,,,,,space,33.6808439939,2017_Oct_19_1122,60.0176137701,FEMA4ImagesEEG,001,201639,
AFNE01.JPG,AFNE01.JPG,AFNE01.JPG,AFNE01.JPG,AFNE01.JPG,AFNE01.JPG,,,,,0,0,0,1,,,,,,,,,,,,,,,,,,,AMSA06.jpg,AMSA13.jpg,AMNE09.jpg,AMNE06.jpg,AMSA13.jpg,MS,2,num_6,32,num_4,0.850105282734,,,2017_Oct_19_1122,60.0176137701,FEMA4ImagesEEG,001,201639,
AFNE01.JPG,AFNE01.JPG,AFNE01.JPG,AFNE01.JPG,AFNE01.JPG,AFNE01.JPG,,,,,0,1,1,2,,,,,,,,,,,,,,,,,,,AMSA08.jpg,AMSA16.jpg,AMNE14.jpg,AMNE12.jpg,AMNE12.jpg,MN,1,num_4,16,num_4,1.06660283951,,,2017_Oct_19_1122,60.0176137701,FEMA4ImagesEEG,001,201639,
AFNE01.JPG,AFNE01.JPG,AFNE01.JPG,AFNE01.JPG,AFNE01.JPG,AFNE01.JPG,,,,,0,2,2,5,,,,,,,,,,,,,,,,,,,AMNE14.jpg,AMSA01.jpg,AMNE12.jpg,AMSA08.jpg,AMNE14.jpg,MN,1,num_8,16,num_8,1.05018675057,,,2017_Oct_19_1122,60.0176137701,FEMA4ImagesEEG,001,201639,
AFNE01.JPG,AFNE01.JPG,AFNE01.JPG,AFNE01.JPG,AFNE01.JPG,AFNE01.JPG,,,,,0,3,3,7,,,,,,,,,,,,,,,,,,,AMNE16.jpg,AMSA08.jpg,AMSA05.jpg,AMNE03.jpg,AMNE16.jpg,MN,1,num_8,16,num_8,1.36675374742,,,2017_Oct_19_1122,60.0176137701,FEMA4ImagesEEG,001,201639,
AFNE01.JPG,AFNE01.JPG,AFNE01.JPG,AFNE01.JPG,AFNE01.JPG,AFNE01.JPG,,,,,0,4,4,3,,,,,,,,,,,,,,,,,,,AMSA03.jpg,AMNE08.jpg,AMNE07.jpg,AMSA19.jpg,AMNE08.jpg,MN,1,num_6,32,num_2,1.10026958157,,,2017_Oct_19_1122,60.0176137701,FEMA4ImagesEEG,001,201639,
AFNE01.JPG,AFNE01.JPG,AFNE01.JPG,AFNE01.JPG,AFNE01.JPG,AFNE01.JPG,,,,,0,5,5,9,,,,,,,,,,,,,,,,,,,AMSA12.jpg,AMNE16.jpg,AMNE15.jpg,AMSA10.jpg,AMSA10.jpg,MS,2,num_4,32,num_8,0.966792877676,,,2017_Oct_19_1122,60.0176137701,FEMA4ImagesEEG,001,201639,
AFNE01.JPG,AFNE01.JPG,AFNE01.JPG,AFNE01.JPG,AFNE01.JPG,AFNE01.JPG,,,,,0,6,6,0,,,,,,,,,,,,,,,,,,,AMSA01.jpg,AMNE09.jpg,AMNE17.jpg,AMSA06.jpg,AMSA01.jpg,MS,2,num_8,16,num_8,0.61678942971,,,2017_Oct_19_1122,60.0176137701,FEMA4ImagesEEG,001,201639,
AFNE01.JPG,AFNE01.JPG,AFNE01.JPG,AFNE01.JPG,AFNE01.JPG,AFNE01.JPG,,,,,0,7,7,6,,,,,,,,,,,,,,,,,,,AMSA01.jpg,AMNE13.jpg,AMSA14.jpg,AMNE19.jpg,AMSA01.jpg,MS,2,num_8,16,num_8,0.650091170217,,,2017_Oct_19_1122,60.0176137701,FEMA4ImagesEEG,001,201639,
AFNE01.JPG,AFNE01.JPG,AFNE01.JPG,AFNE01.JPG,AFNE01.JPG,AFNE01.JPG,,,,,0,8,8,8,,,,,,,,,,,,,,,,,,,AMNE07.jpg,AMNE16.jpg,AMSA02.jpg,AMSA12.jpg,AMNE16.jpg,MN,1,num_6,16,num_6,1.85030157532,,,2017_Oct_19_1122,60.0176137701,FEMA4ImagesEEG,001,201639,
AFNE01.JPG,AFNE01.JPG,AFNE01.JPG,AFNE01.JPG,AFNE01.JPG,AFNE01.JPG,,,,,0,9,9,4,,,,,,,,,,,,,,,,,,,AMSA08.jpg,AMNE18.jpg,AMSA17.jpg,AMNE13.jpg,AMSA17.jpg,MS,2,num_2,32,num_4,0.983611173899,,,2017_Oct_19_1122,60.0176137701,FEMA4ImagesEEG,001,201639,
AFNE01.JPG,AFNE01.JPG,AFNE01.JPG,AFNE01.JPG,AFNE01.JPG,AFNE01.JPG,,,,,1,0,10,6,,,,,,,,,,,,,,,,,,,AMSA19.jpg,AMNE01.jpg,AMNE15.jpg,AMSA20.jpg,AMSA20.jpg,MS,2,num_4,32,num_8,0.600124767661,,,2017_Oct_19_1122,60.0176137701,FEMA4ImagesEEG,001,201639,
AFNE01.JPG,AFNE01.JPG,AFNE01.JPG,AFNE01.JPG,AFNE01.JPG,AFNE01.JPG,,,,,1,1,11,0,,,,,,,,,,,,,,,,,,,AMSA09.jpg,AMSA10.jpg,AMNE02.jpg,AMNE15.jpg,AMSA10.jpg,MS,2,num_6,16,num_6,0.800188915571,,,2017_Oct_19_1122,60.0176137701,FEMA4ImagesEEG,001,201639,
AFNE01.JPG,AFNE01.JPG,AFNE01.JPG,AFNE01.JPG,AFNE01.JPG,AFNE01.JPG,,,,,1,2,12,3,,,,,,,,,,,,,,,,,,,AMSA07.jpg,AMNE03.jpg,AMSA20.jpg,AMNE06.jpg,AMSA07.jpg,MS,2,num_8,16,num_8,2.16666297815,,,2017_Oct_19_1122,60.0176137701,FEMA4ImagesEEG,001,201639,
AFNE01.JPG,AFNE01.JPG,AFNE01.JPG,AFNE01.JPG,AFNE01.JPG,AFNE01.JPG,,,,,1,3,13,9,,,,,,,,,,,,,,,,,,,AMNE08.jpg,AMNE14.jpg,AMSA15.jpg,AMSA07.jpg,AMSA07.jpg,MS,2,num_4,16,num_4,0.700155719009,,,2017_Oct_19_1122,60.0176137701,FEMA4ImagesEEG,001,201639,
AFNE01.JPG,AFNE01.JPG,AFNE01.JPG,AFNE01.JPG,AFNE01.JPG,AFNE01.JPG,,,,,1,4,14,4,,,,,,,,,,,,,,,,,,,AMSA12.jpg,AMNE08.jpg,AMSA13.jpg,AMNE05.jpg,AMNE08.jpg,MN,1,num_6,32,num_4,1.58340846654,,,2017_Oct_19_1122,60.0176137701,FEMA4ImagesEEG,001,201639,
AFNE01.JPG,AFNE01.JPG,AFNE01.JPG,AFNE01.JPG,AFNE01.JPG,AFNE01.JPG,,,,,1,5,15,8,,,,,,,,,,,,,,,,,,,AMSA15.jpg,AMNE15.jpg,AMNE07.jpg,AMSA20.jpg,AMSA15.jpg,MS,2,num_8,32,num_2,1.10021473508,,,2017_Oct_19_1122,60.0176137701,FEMA4ImagesEEG,001,201639,
AFNE01.JPG,AFNE01.JPG,AFNE01.JPG,AFNE01.JPG,AFNE01.JPG,AFNE01.JPG,,,,,1,6,16,2,,,,,,,,,,,,,,,,,,,AMSA20.jpg,AMNE19.jpg,AMNE14.jpg,AMSA01.jpg,AMSA01.jpg,MS,2,num_4,16,num_4,0.533513909671,,,2017_Oct_19_1122,60.0176137701,FEMA4ImagesEEG,001,201639,
AFNE01.JPG,AFNE01.JPG,AFNE01.JPG,AFNE01.JPG,AFNE01.JPG,AFNE01.JPG,,,,,1,7,17,5,,,,,,,,,,,,,,,,,,,AMSA02.jpg,AMSA05.jpg,AMNE03.jpg,AMNE14.jpg,AMNE03.jpg,MN,1,num_2,16,num_2,1.91670876372,,,2017_Oct_19_1122,60.0176137701,FEMA4ImagesEEG,001,201639,
AFNE01.JPG,AFNE01.JPG,AFNE01.JPG,AFNE01.JPG,AFNE01.JPG,AFNE01.JPG,,,,,1,8,18,7,,,,,,,,,,,,,,,,,,,AMSA06.jpg,AMSA10.jpg,AMNE07.jpg,AMNE12.jpg,AMSA06.jpg,MS,2,num_8,16,num_8,0.683440380148,,,2017_Oct_19_1122,60.0176137701,FEMA4ImagesEEG,001,201639,
AFNE01.JPG,AFNE01.JPG,AFNE01.JPG,AFNE01.JPG,AFNE01.JPG,AFNE01.JPG,,,,,1,9,19,1,,,,,,,,,,,,,,,,,,,AMSA11.jpg,AMSA09.jpg,AMNE08.jpg,AMNE18.jpg,AMNE18.jpg,MN,1,num_4,32,num_2,2.01712428173,,,2017_Oct_19_1122,60.0176137701,FEMA4ImagesEEG,001,201639,
AFNE01.JPG,AFNE01.JPG,AFNE01.JPG,AFNE01.JPG,AFNE01.JPG,AFNE01.JPG,,,,,2,0,20,3,,,,,,,,,,,,,,,,,,,AMNE17.jpg,AMSA08.jpg,AMNE12.jpg,AMSA05.jpg,AMNE17.jpg,MN,1,num_8,16,num_8,1.03346467615,,,2017_Oct_19_1122,60.0176137701,FEMA4ImagesEEG,001,201639,
AFNE01.JPG,AFNE01.JPG,AFNE01.JPG,AFNE01.JPG,AFNE01.JPG,AFNE01.JPG,,,,,2,1,21,0,,,,,,,,,,,,,,,,,,,AMSA15.jpg,AMNE05.jpg,AMSA17.jpg,AMNE15.jpg,AMSA17.jpg,MS,2,num_2,16,num_2,0.566791594727,,,2017_Oct_19_1122,60.0176137701,FEMA4ImagesEEG,001,201639,
AFNE01.JPG,AFNE01.JPG,AFNE01.JPG,AFNE01.JPG,AFNE01.JPG,AFNE01.JPG,,,,,2,2,22,5,,,,,,,,,,,,,,,,,,,AMSA20.jpg,AMNE15.jpg,AMSA12.jpg,AMNE02.jpg,AMNE02.jpg,MN,1,num_4,16,num_4,0.700044101657,,,2017_Oct_19_1122,60.0176137701,FEMA4ImagesEEG,001,201639,
AFNE01.JPG,AFNE01.JPG,AFNE01.JPG,AFNE01.JPG,AFNE01.JPG,AFNE01.JPG,,,,,2,3,23,4,,,,,,,,,,,,,,,,,,,AMNE10.jpg,AMSA15.jpg,AMNE19.jpg,AMSA20.jpg,AMNE10.jpg,MN,1,num_8,16,num_8,1.45009950944,,,2017_Oct_19_1122,60.0176137701,FEMA4ImagesEEG,001,201639,
AFNE01.JPG,AFNE01.JPG,AFNE01.JPG,AFNE01.JPG,AFNE01.JPG,AFNE01.JPG,,,,,2,4,24,9,,,,,,,,,,,,,,,,,,,AMNE05.jpg,AMNE16.jpg,AMSA12.jpg,AMSA20.jpg,AMSA20.jpg,MS,2,num_4,16,num_4,0.950248492911,,,2017_Oct_19_1122,60.0176137701,FEMA4ImagesEEG,001,201639,
AFNE01.JPG,AFNE01.JPG,AFNE01.JPG,AFNE01.JPG,AFNE01.JPG,AFNE01.JPG,,,,,2,5,25,8,,,,,,,,,,,,,,,,,,,AMNE09.jpg,AMSA16.jpg,AMNE10.jpg,AMSA17.jpg,AMSA16.jpg,MS,2,num_6,16,num_6,0.800138238701,,,2017_Oct_19_1122,60.0176137701,FEMA4ImagesEEG,001,201639,
AFNE01.JPG,AFNE01.JPG,AFNE01.JPG,AFNE01.JPG,AFNE01.JPG,AFNE01.JPG,,,,,2,6,26,1,,,,,,,,,,,,,,,,,,,AMSA08.jpg,AMSA07.jpg,AMNE13.jpg,AMNE08.jpg,AMSA07.jpg,MS,2,num_6,32,num_4,0.983405259176,,,2017_Oct_19_1122,60.0176137701,FEMA4ImagesEEG,001,201639,
AFNE01.JPG,AFNE01.JPG,AFNE01.JPG,AFNE01.JPG,AFNE01.JPG,AFNE01.JPG,,,,,2,7,27,6,,,,,,,,,,,,,,,,,,,AMNE14.jpg,AMSA01.jpg,AMNE20.jpg,AMSA04.jpg,AMNE20.jpg,MN,1,num_2,16,num_2,0.683622560173,,,2017_Oct_19_1122,60.0176137701,FEMA4ImagesEEG,001,201639,
AFNE01.JPG,AFNE01.JPG,AFNE01.JPG,AFNE01.JPG,AFNE01.JPG,AFNE01.JPG,,,,,2,8,28,2,,,,,,,,,,,,,,,,,,,AMSA08.jpg,AMSA06.jpg,AMNE05.jpg,AMNE17.jpg,AMNE17.jpg,MN,1,num_4,16,num_4,1.76674091787,,,2017_Oct_19_1122,60.0176137701,FEMA4ImagesEEG,001,201639,
AFNE01.JPG,AFNE01.JPG,AFNE01.JPG,AFNE01.JPG,AFNE01.JPG,AFNE01.JPG,,,,,2,9,29,7,,,,,,,,,,,,,,,,,,,AMNE20.jpg,AMSA13.jpg,AMNE19.jpg,AMSA09.jpg,AMNE20.jpg,MN,1,num_8,16,num_8,0.533529625885,,,2017_Oct_19_1122,60.0176137701,FEMA4ImagesEEG,001,201639,
AFNE01.JPG,AFNE01.JPG,AFNE01.JPG,AFNE01.JPG,AFNE01.JPG,AFNE01.JPG,,,,,3,0,30,7,,,,,,,,,,,,,,,,,,,AMSA18.jpg,AMNE11.jpg,AMSA14.jpg,AMNE02.jpg,AMSA14.jpg,MS,2,num_2,32,num_4,0.733462591365,,,2017_Oct_19_1122,60.0176137701,FEMA4ImagesEEG,001,201639,
AFNE01.JPG,AFNE01.JPG,AFNE01.JPG,AFNE01.JPG,AFNE01.JPG,AFNE01.JPG,,,,,3,1,31,4,,,,,,,,,,,,,,,,,,,AMNE08.jpg,AMNE20.jpg,AMSA20.jpg,AMSA15.jpg,AMSA15.jpg,MS,2,num_4,32,num_6,1.08349266066,,,2017_Oct_19_1122,60.0176137701,FEMA4ImagesEEG,001,201639,
AFNE01.JPG,AFNE01.JPG,AFNE01.JPG,AFNE01.JPG,AFNE01.JPG,AFNE01.JPG,,,,,3,2,32,5,,,,,,,,,,,,,,,,,,,AMNE16.jpg,AMSA16.jpg,AMSA03.jpg,AMNE20.jpg,AMSA16.jpg,MS,2,num_6,32,num_4,0.967223951564,,,2017_Oct_19_1122,60.0176137701,FEMA4ImagesEEG,001,201639,
AFNE01.JPG,AFNE01.JPG,AFNE01.JPG,AFNE01.JPG,AFNE01.JPG,AFNE01.JPG,,,,,3,3,33,8,,,,,,,,,,,,,,,,,,,AMSA08.jpg,AMNE03.jpg,AMNE06.jpg,AMSA07.jpg,AMSA08.jpg,MS,2,num_8,32,num_2,1.70009221259,,,2017_Oct_19_1122,60.0176137701,FEMA4ImagesEEG,001,201639,
AFNE01.JPG,AFNE01.JPG,AFNE01.JPG,AFNE01.JPG,AFNE01.JPG,AFNE01.JPG,,,,,3,4,34,0,,,,,,,,,,,,,,,,,,,AMSA07.jpg,AMNE04.jpg,AMNE06.jpg,AMSA02.jpg,AMNE04.jpg,MN,1,num_6,32,num_4,0.833438696252,,,2017_Oct_19_1122,60.0176137701,FEMA4ImagesEEG,001,201639,
AFNE01.JPG,AFNE01.JPG,AFNE01.JPG,AFNE01.JPG,AFNE01.JPG,AFNE01.JPG,,,,,3,5,35,6,,,,,,,,,,,,,,,,,,,AMNE08.jpg,AMSA07.jpg,AMNE11.jpg,AMSA16.jpg,AMNE08.jpg,MN,1,num_8,16,num_8,2.40002309324,,,2017_Oct_19_1122,60.0176137701,FEMA4ImagesEEG,001,201639,
AFNE01.JPG,AFNE01.JPG,AFNE01.JPG,AFNE01.JPG,AFNE01.JPG,AFNE01.JPG,,,,,3,6,36,2,,,,,,,,,,,,,,,,,,,AMSA04.jpg,AMNE03.jpg,AMSA01.jpg,AMNE11.jpg,AMSA01.jpg,MS,2,num_2,16,num_2,1.1834427857,,,2017_Oct_19_1122,60.0176137701,FEMA4ImagesEEG,001,201639,
AFNE01.JPG,AFNE01.JPG,AFNE01.JPG,AFNE01.JPG,AFNE01.JPG,AFNE01.JPG,,,,,3,7,37,1,,,,,,,,,,,,,,,,,,,AMNE03.jpg,AMNE18.jpg,AMSA11.jpg,AMSA08.jpg,AMNE03.jpg,MN,1,num_8,32,num_6,0.966823347902,,,2017_Oct_19_1122,60.0176137701,FEMA4ImagesEEG,001,201639,
AFNE01.JPG,AFNE01.JPG,AFNE01.JPG,AFNE01.JPG,AFNE01.JPG,AFNE01.JPG,,,,,3,8,38,3,,,,,,,,,,,,,,,,,,,AMSA20.jpg,AMNE01.jpg,AMNE17.jpg,AMSA02.jpg,AMNE01.jpg,MN,1,num_6,32,num_4,0.716877472703,,,2017_Oct_19_1122,60.0176137701,FEMA4ImagesEEG,001,201639,
AFNE01.JPG,AFNE01.JPG,AFNE01.JPG,AFNE01.JPG,AFNE01.JPG,AFNE01.JPG,,,,,3,9,39,9,,,,,,,,,,,,,,,,,,,AMSA10.jpg,AMSA13.jpg,AMNE02.jpg,AMNE01.jpg,AMNE02.jpg,MN,1,num_2,16,num_2,1.61680097634,,,2017_Oct_19_1122,60.0176137701,FEMA4ImagesEEG,001,201639,
AFNE01.JPG,AFNE01.JPG,AFNE01.JPG,AFNE01.JPG,AFNE01.JPG,AFNE01.JPG,,,,,4,0,40,6,,,,,,,,,,,,,,,,,,,AMNE13.jpg,AMSA12.jpg,AMNE18.jpg,AMSA14.jpg,AMSA14.jpg,MS,2,num_4,32,num_2,1.00012156027,,,2017_Oct_19_1122,60.0176137701,FEMA4ImagesEEG,001,201639,
AFNE01.JPG,AFNE01.JPG,AFNE01.JPG,AFNE01.JPG,AFNE01.JPG,AFNE01.JPG,,,,,4,1,41,5,,,,,,,,,,,,,,,,,,,AMSA08.jpg,AMSA12.jpg,AMNE20.jpg,AMNE06.jpg,AMSA12.jpg,MS,2,num_6,32,num_4,1.23343196072,,,2017_Oct_19_1122,60.0176137701,FEMA4ImagesEEG,001,201639,
AFNE01.JPG,AFNE01.JPG,AFNE01.JPG,AFNE01.JPG,AFNE01.JPG,AFNE01.JPG,,,,,4,2,42,7,,,,,,,,,,,,,,,,,,,AMNE15.jpg,AMSA19.jpg,AMNE07.jpg,AMSA07.jpg,AMNE15.jpg,MN,1,num_8,16,num_8,1.23346403468,,,2017_Oct_19_1122,60.0176137701,FEMA4ImagesEEG,001,201639,
AFNE01.JPG,AFNE01.JPG,AFNE01.JPG,AFNE01.JPG,AFNE01.JPG,AFNE01.JPG,,,,,4,3,43,0,,,,,,,,,,,,,,,,,,,AMSA18.jpg,AMNE05.jpg,AMNE13.jpg,AMSA02.jpg,AMNE13.jpg,MN,1,num_2,32,num_6,1.08339964622,,,2017_Oct_19_1122,60.0176137701,FEMA4ImagesEEG,001,201639,
AFNE01.JPG,AFNE01.JPG,AFNE01.JPG,AFNE01.JPG,AFNE01.JPG,AFNE01.JPG,,,,,4,4,44,4,,,,,,,,,,,,,,,,,,,AMSA19.jpg,AMSA12.jpg,AMNE08.jpg,AMNE11.jpg,AMSA12.jpg,MS,2,num_6,16,num_6,0.983452407876,,,2017_Oct_19_1122,60.0176137701,FEMA4ImagesEEG,001,201639,
AFNE01.JPG,AFNE01.JPG,AFNE01.JPG,AFNE01.JPG,AFNE01.JPG,AFNE01.JPG,,,,,4,5,45,1,,,,,,,,,,,,,,,,,,,AMNE06.jpg,AMNE04.jpg,AMSA09.jpg,AMSA17.jpg,AMSA09.jpg,MS,2,num_2,32,num_8,1.00010488182,,,2017_Oct_19_1122,60.0176137701,FEMA4ImagesEEG,001,201639,
AFNE01.JPG,AFNE01.JPG,AFNE01.JPG,AFNE01.JPG,AFNE01.JPG,AFNE01.JPG,,,,,4,6,46,3,,,,,,,,,,,,,,,,,,,AMNE11.jpg,AMSA06.jpg,AMSA14.jpg,AMNE18.jpg,AMNE18.jpg,MN,1,num_4,32,num_8,2.26667436442,,,2017_Oct_19_1122,60.0176137701,FEMA4ImagesEEG,001,201639,
AFNE01.JPG,AFNE01.JPG,AFNE01.JPG,AFNE01.JPG,AFNE01.JPG,AFNE01.JPG,,,,,4,7,47,8,,,,,,,,,,,,,,,,,,,AMSA18.jpg,AMNE20.jpg,AMSA08.jpg,AMNE04.jpg,AMNE20.jpg,MN,1,num_6,32,num_8,1.16685445965,,,2017_Oct_19_1122,60.0176137701,FEMA4ImagesEEG,001,201639,
AFNE01.JPG,AFNE01.JPG,AFNE01.JPG,AFNE01.JPG,AFNE01.JPG,AFNE01.JPG,,,,,4,8,48,9,,,,,,,,,,,,,,,,,,,AMNE03.jpg,AMSA14.jpg,AMSA10.jpg,AMNE20.jpg,AMSA14.jpg,MS,2,num_6,32,num_2,1.33340870714,,,2017_Oct_19_1122,60.0176137701,FEMA4ImagesEEG,001,201639,
AFNE01.JPG,AFNE01.JPG,AFNE01.JPG,AFNE01.JPG,AFNE01.JPG,AFNE01.JPG,,,,,4,9,49,2,,,,,,,,,,,,,,,,,,,AMSA11.jpg,AMSA19.jpg,AMNE10.jpg,AMNE13.jpg,AMSA11.jpg,MS,2,num_8,32,num_4,1.26676256777,,,2017_Oct_19_1122,60.0176137701,FEMA4ImagesEEG,001,201639,
AFNE01.JPG,AFNE01.JPG,AFNE01.JPG,AFNE01.JPG,AFNE01.JPG,AFNE01.JPG,,,,,5,0,50,8,,,,,,,,,,,,,,,,,,,AMNE06.jpg,AMSA19.jpg,AMSA01.jpg,AMNE09.jpg,AMNE09.jpg,MN,1,num_4,16,num_4,0.76685927072,,,2017_Oct_19_1122,60.0176137701,FEMA4ImagesEEG,001,201639,
AFNE01.JPG,AFNE01.JPG,AFNE01.JPG,AFNE01.JPG,AFNE01.JPG,AFNE01.JPG,,,,,5,1,51,4,,,,,,,,,,,,,,,,,,,AMSA10.jpg,AMSA09.jpg,AMNE16.jpg,AMNE13.jpg,AMSA10.jpg,MS,2,num_8,32,num_6,0.783528423141,,,2017_Oct_19_1122,60.0176137701,FEMA4ImagesEEG,001,201639,
AFNE01.JPG,AFNE01.JPG,AFNE01.JPG,AFNE01.JPG,AFNE01.JPG,AFNE01.JPG,,,,,5,2,52,3,,,,,,,,,,,,,,,,,,,AMNE08.jpg,AMSA18.jpg,AMNE01.jpg,AMSA10.jpg,AMSA10.jpg,MS,2,num_4,32,num_8,3.49993665394,,,2017_Oct_19_1122,60.0176137701,FEMA4ImagesEEG,001,201639,
AFNE01.JPG,AFNE01.JPG,AFNE01.JPG,AFNE01.JPG,AFNE01.JPG,AFNE01.JPG,,,,,5,3,53,9,,,,,,,,,,,,,,,,,,,AMNE12.jpg,AMNE03.jpg,AMSA04.jpg,AMSA05.jpg,AMSA05.jpg,MS,2,num_4,16,num_4,1.10009670295,,,2017_Oct_19_1122,60.0176137701,FEMA4ImagesEEG,001,201639,
AFNE01.JPG,AFNE01.JPG,AFNE01.JPG,AFNE01.JPG,AFNE01.JPG,AFNE01.JPG,,,,,5,4,54,6,,,,,,,,,,,,,,,,,,,AMSA04.jpg,AMNE13.jpg,AMNE08.jpg,AMSA11.jpg,AMSA11.jpg,MS,2,num_4,32,num_8,0.583430597588,,,2017_Oct_19_1122,60.0176137701,FEMA4ImagesEEG,001,201639,
AFNE01.JPG,AFNE01.JPG,AFNE01.JPG,AFNE01.JPG,AFNE01.JPG,AFNE01.JPG,,,,,5,5,55,0,,,,,,,,,,,,,,,,,,,AMNE16.jpg,AMNE08.jpg,AMSA16.jpg,AMSA13.jpg,AMSA13.jpg,MS,2,num_4,16,num_4,0.950178571715,,,2017_Oct_19_1122,60.0176137701,FEMA4ImagesEEG,001,201639,
AFNE01.JPG,AFNE01.JPG,AFNE01.JPG,AFNE01.JPG,AFNE01.JPG,AFNE01.JPG,,,,,5,6,56,1,,,,,,,,,,,,,,,,,,,AMNE13.jpg,AMSA07.jpg,AMNE14.jpg,AMSA13.jpg,AMSA07.jpg,MS,2,num_6,16,num_6,0.633600990463,,,2017_Oct_19_1122,60.0176137701,FEMA4ImagesEEG,001,201639,
AFNE01.JPG,AFNE01.JPG,AFNE01.JPG,AFNE01.JPG,AFNE01.JPG,AFNE01.JPG,,,,,5,7,57,7,,,,,,,,,,,,,,,,,,,AMNE19.jpg,AMNE18.jpg,AMSA20.jpg,AMSA01.jpg,AMNE18.jpg,MN,1,num_6,16,num_6,1.86662785721,,,2017_Oct_19_1122,60.0176137701,FEMA4ImagesEEG,001,201639,
AFNE01.JPG,AFNE01.JPG,AFNE01.JPG,AFNE01.JPG,AFNE01.JPG,AFNE01.JPG,,,,,5,8,58,2,,,,,,,,,,,,,,,,,,,AMSA04.jpg,AMSA13.jpg,AMNE07.jpg,AMNE06.jpg,AMSA13.jpg,MS,2,num_6,16,num_6,2.21666049244,,,2017_Oct_19_1122,60.0176137701,FEMA4ImagesEEG,001,201639,
AFNE01.JPG,AFNE01.JPG,AFNE01.JPG,AFNE01.JPG,AFNE01.JPG,AFNE01.JPG,,,,,5,9,59,5,,,,,,,,,,,,,,,,,,,AMNE02.jpg,AMNE07.jpg,AMSA11.jpg,AMSA17.jpg,AMSA17.jpg,MS,2,num_4,32,num_6,1.49991837182,,,2017_Oct_19_1122,60.0176137701,FEMA4ImagesEEG,001,201639,
,,,,,,,,,,,,,,,,,,,,,,,,,,,,,,,,,,,,,,,,,,,space,44.4136663892,2017_Oct_19_1122,60.0176137701,FEMA4ImagesEEG,001,201639,
AFNE01.JPG,AFNE01.JPG,AFNE01.JPG,AFNE01.JPG,AFNE01.JPG,AFNE01.JPG,,,,,,,,,0,0,0,3,,,,,,,,,,,,,,,AFSA14.jpg,AFNE02.jpg,AFNE16.jpg,AFSA16.jpg,AFNE02.jpg,FN,3,num_6,32,num_2,1.15020166498,,,2017_Oct_19_1122,60.0176137701,FEMA4ImagesEEG,001,201639,
AFNE01.JPG,AFNE01.JPG,AFNE01.JPG,AFNE01.JPG,AFNE01.JPG,AFNE01.JPG,,,,,,,,,0,1,1,1,,,,,,,,,,,,,,,AFSA06.jpg,AFNE05.jpg,AFSA05.jpg,AFNE11.jpg,AFSA06.jpg,FS,4,num_8,32,num_2,0.833475581283,,,2017_Oct_19_1122,60.0176137701,FEMA4ImagesEEG,001,201639,
AFNE01.JPG,AFNE01.JPG,AFNE01.JPG,AFNE01.JPG,AFNE01.JPG,AFNE01.JPG,,,,,,,,,0,2,2,8,,,,,,,,,,,,,,,AFSA04.jpg,AFSA13.jpg,AFNE13.jpg,AFNE14.jpg,AFNE14.jpg,FN,3,num_4,32,num_8,0.733448478801,,,2017_Oct_19_1122,60.0176137701,FEMA4ImagesEEG,001,201639,
AFNE01.JPG,AFNE01.JPG,AFNE01.JPG,AFNE01.JPG,AFNE01.JPG,AFNE01.JPG,,,,,,,,,0,3,3,9,,,,,,,,,,,,,,,AFNE08.jpg,AFNE18.jpg,AFSA14.jpg,AFSA07.jpg,AFNE18.jpg,FN,3,num_6,32,num_2,1.16673738972,,,2017_Oct_19_1122,60.0176137701,FEMA4ImagesEEG,001,201639,
AFNE01.JPG,AFNE01.JPG,AFNE01.JPG,AFNE01.JPG,AFNE01.JPG,AFNE01.JPG,,,,,,,,,0,4,4,4,,,,,,,,,,,,,,,AFSA09.jpg,AFNE14.jpg,AFSA13.jpg,AFNE02.jpg,AFSA13.jpg,FS,4,num_2,32,num_8,1.63337069948,,,2017_Oct_19_1122,60.0176137701,FEMA4ImagesEEG,001,201639,
AFNE01.JPG,AFNE01.JPG,AFNE01.JPG,AFNE01.JPG,AFNE01.JPG,AFNE01.JPG,,,,,,,,,0,5,5,5,,,,,,,,,,,,,,,AFNE17.jpg,AFSA14.jpg,AFNE19.jpg,AFSA11.jpg,AFSA14.jpg,FS,4,num_6,16,num_6,0.83349771233,,,2017_Oct_19_1122,60.0176137701,FEMA4ImagesEEG,001,201639,
AFNE01.JPG,AFNE01.JPG,AFNE01.JPG,AFNE01.JPG,AFNE01.JPG,AFNE01.JPG,,,,,,,,,0,6,6,0,,,,,,,,,,,,,,,AFSA16.jpg,AFSA09.jpg,AFNE07.jpg,AFNE15.jpg,AFNE07.jpg,FN,3,num_2,32,num_4,1.01673907362,,,2017_Oct_19_1122,60.0176137701,FEMA4ImagesEEG,001,201639,
AFNE01.JPG,AFNE01.JPG,AFNE01.JPG,AFNE01.JPG,AFNE01.JPG,AFNE01.JPG,,,,,,,,,0,7,7,7,,,,,,,,,,,,,,,AFSA03.jpg,AFNE14.jpg,AFNE04.jpg,AFSA20.jpg,AFSA20.jpg,FS,4,num_4,16,num_4,1.43342201778,,,2017_Oct_19_1122,60.0176137701,FEMA4ImagesEEG,001,201639,
AFNE01.JPG,AFNE01.JPG,AFNE01.JPG,AFNE01.JPG,AFNE01.JPG,AFNE01.JPG,,,,,,,,,0,8,8,6,,,,,,,,,,,,,,,AFSA07.jpg,AFNE04.jpg,AFNE02.jpg,AFSA03.jpg,AFSA07.jpg,FS,4,num_8,32,num_6,1.13343693217,,,2017_Oct_19_1122,60.0176137701,FEMA4ImagesEEG,001,201639,
AFNE01.JPG,AFNE01.JPG,AFNE01.JPG,AFNE01.JPG,AFNE01.JPG,AFNE01.JPG,,,,,,,,,0,9,9,2,,,,,,,,,,,,,,,AFSA05.jpg,AFSA07.jpg,AFNE10.jpg,AFNE11.jpg,AFNE10.jpg,FN,3,num_2,32,num_6,1.06676769961,,,2017_Oct_19_1122,60.0176137701,FEMA4ImagesEEG,001,201639,
AFNE01.JPG,AFNE01.JPG,AFNE01.JPG,AFNE01.JPG,AFNE01.JPG,AFNE01.JPG,,,,,,,,,1,0,10,0,,,,,,,,,,,,,,,AFSA09.jpg,AFNE05.jpg,AFNE08.jpg,AFSA19.jpg,AFNE08.jpg,FN,3,num_2,32,num_8,1.83341399932,,,2017_Oct_19_1122,60.0176137701,FEMA4ImagesEEG,001,201639,
AFNE01.JPG,AFNE01.JPG,AFNE01.JPG,AFNE01.JPG,AFNE01.JPG,AFNE01.JPG,,,,,,,,,1,1,11,6,,,,,,,,,,,,,,,AFNE16.jpg,AFSA08.jpg,AFSA05.jpg,AFNE20.jpg,AFSA05.jpg,FS,4,num_2,16,num_2,1.10012396579,,,2017_Oct_19_1122,60.0176137701,FEMA4ImagesEEG,001,201639,
AFNE01.JPG,AFNE01.JPG,AFNE01.JPG,AFNE01.JPG,AFNE01.JPG,AFNE01.JPG,,,,,,,,,1,2,12,4,,,,,,,,,,,,,,,AFNE05.jpg,AFSA02.jpg,AFNE07.jpg,AFSA20.jpg,AFSA20.jpg,FS,4,num_4,16,num_4,0.883427550551,,,2017_Oct_19_1122,60.0176137701,FEMA4ImagesEEG,001,201639,
AFNE01.JPG,AFNE01.JPG,AFNE01.JPG,AFNE01.JPG,AFNE01.JPG,AFNE01.JPG,,,,,,,,,1,3,13,3,,,,,,,,,,,,,,,AFSA03.jpg,AFNE12.jpg,AFNE17.jpg,AFSA16.jpg,AFSA16.jpg,FS,4,num_4,32,num_8,1.23352208853,,,2017_Oct_19_1122,60.0176137701,FEMA4ImagesEEG,001,201639,
AFNE01.JPG,AFNE01.JPG,AFNE01.JPG,AFNE01.JPG,AFNE01.JPG,AFNE01.JPG,,,,,,,,,1,4,14,2,,,,,,,,,,,,,,,AFSA01.jpg,AFSA07.jpg,AFNE16.jpg,AFNE09.jpg,AFNE16.jpg,FN,3,num_2,16,num_2,1.03341335783,,,2017_Oct_19_1122,60.0176137701,FEMA4ImagesEEG,001,201639,
AFNE01.JPG,AFNE01.JPG,AFNE01.JPG,AFNE01.JPG,AFNE01.JPG,AFNE01.JPG,,,,,,,,,1,5,15,1,,,,,,,,,,,,,,,AFNE11.jpg,AFSA15.jpg,AFNE02.jpg,AFSA13.jpg,AFNE11.jpg,FN,3,num_8,32,num_4,0.766756313358,,,2017_Oct_19_1122,60.0176137701,FEMA4ImagesEEG,001,201639,
AFNE01.JPG,AFNE01.JPG,AFNE01.JPG,AFNE01.JPG,AFNE01.JPG,AFNE01.JPG,,,,,,,,,1,6,16,9,,,,,,,,,,,,,,,AFNE19.jpg,AFSA04.jpg,AFNE16.jpg,AFSA02.jpg,AFSA04.jpg,FS,4,num_6,32,num_2,0.866577180335,,,2017_Oct_19_1122,60.0176137701,FEMA4ImagesEEG,001,201639,
AFNE01.JPG,AFNE01.JPG,AFNE01.JPG,AFNE01.JPG,AFNE01.JPG,AFNE01.JPG,,,,,,,,,1,7,17,8,,,,,,,,,,,,,,,AFSA05.jpg,AFNE20.jpg,AFSA07.jpg,AFNE11.jpg,AFNE11.jpg,FN,3,num_4,16,num_4,0.650119074562,,,2017_Oct_19_1122,60.0176137701,FEMA4ImagesEEG,001,201639,
AFNE01.JPG,AFNE01.JPG,AFNE01.JPG,AFNE01.JPG,AFNE01.JPG,AFNE01.JPG,,,,,,,,,1,8,18,5,,,,,,,,,,,,,,,AFNE07.jpg,AFSA08.jpg,AFNE17.jpg,AFSA17.jpg,AFNE07.jpg,FN,3,num_8,16,num_8,1.01691676327,,,2017_Oct_19_1122,60.0176137701,FEMA4ImagesEEG,001,201639,
AFNE01.JPG,AFNE01.JPG,AFNE01.JPG,AFNE01.JPG,AFNE01.JPG,AFNE01.JPG,,,,,,,,,1,9,19,7,,,,,,,,,,,,,,,AFSA12.jpg,AFNE01.jpg,AFSA03.jpg,AFNE06.jpg,AFSA12.jpg,FS,4,num_8,32,num_4,1.11674532804,,,2017_Oct_19_1122,60.0176137701,FEMA4ImagesEEG,001,201639,
AFNE01.JPG,AFNE01.JPG,AFNE01.JPG,AFNE01.JPG,AFNE01.JPG,AFNE01.JPG,,,,,,,,,2,0,20,7,,,,,,,,,,,,,,,AFSA20.jpg,AFNE20.jpg,AFSA09.jpg,AFNE11.jpg,AFSA09.jpg,FS,4,num_2,16,num_2,1.06674396488,,,2017_Oct_19_1122,60.0176137701,FEMA4ImagesEEG,001,201639,
AFNE01.JPG,AFNE01.JPG,AFNE01.JPG,AFNE01.JPG,AFNE01.JPG,AFNE01.JPG,,,,,,,,,2,1,21,4,,,,,,,,,,,,,,,AFSA12.jpg,AFNE05.jpg,AFNE04.jpg,AFSA20.jpg,AFNE04.jpg,FN,3,num_2,16,num_2,1.10022692321,,,2017_Oct_19_1122,60.0176137701,FEMA4ImagesEEG,001,201639,
AFNE01.JPG,AFNE01.JPG,AFNE01.JPG,AFNE01.JPG,AFNE01.JPG,AFNE01.JPG,,,,,,,,,2,2,22,8,,,,,,,,,,,,,,,AFNE14.jpg,AFNE15.jpg,AFSA04.jpg,AFSA13.jpg,AFSA04.jpg,FS,4,num_2,32,num_8,1.36669376915,,,2017_Oct_19_1122,60.0176137701,FEMA4ImagesEEG,001,201639,
AFNE01.JPG,AFNE01.JPG,AFNE01.JPG,AFNE01.JPG,AFNE01.JPG,AFNE01.JPG,,,,,,,,,2,3,23,3,,,,,,,,,,,,,,,AFSA12.jpg,AFSA02.jpg,AFNE04.jpg,AFNE16.jpg,AFSA12.jpg,FS,4,num_8,32,num_2,1.15013110227,,,2017_Oct_19_1122,60.0176137701,FEMA4ImagesEEG,001,201639,
AFNE01.JPG,AFNE01.JPG,AFNE01.JPG,AFNE01.JPG,AFNE01.JPG,AFNE01.JPG,,,,,,,,,2,4,24,1,,,,,,,,,,,,,,,AFNE15.jpg,AFSA08.jpg,AFNE10.jpg,AFSA17.jpg,AFNE15.jpg,FN,3,num_8,16,num_8,0.61682374886,,,2017_Oct_19_1122,60.0176137701,FEMA4ImagesEEG,001,201639,
AFNE01.JPG,AFNE01.JPG,AFNE01.JPG,AFNE01.JPG,AFNE01.JPG,AFNE01.JPG,,,,,,,,,2,5,25,9,,,,,,,,,,,,,,,AFSA11.jpg,AFNE06.jpg,AFSA20.jpg,AFNE02.jpg,AFNE02.jpg,FN,3,num_4,32,num_2,1.01688950043,,,2017_Oct_19_1122,60.0176137701,FEMA4ImagesEEG,001,201639,
AFNE01.JPG,AFNE01.JPG,AFNE01.JPG,AFNE01.JPG,AFNE01.JPG,AFNE01.JPG,,,,,,,,,2,6,26,0,,,,,,,,,,,,,,,AFNE08.jpg,AFNE01.jpg,AFSA16.jpg,AFSA19.jpg,AFSA16.jpg,FS,4,num_2,16,num_2,0.833444148826,,,2017_Oct_19_1122,60.0176137701,FEMA4ImagesEEG,001,201639,
AFNE01.JPG,AFNE01.JPG,AFNE01.JPG,AFNE01.JPG,AFNE01.JPG,AFNE01.JPG,,,,,,,,,2,7,27,5,,,,,,,,,,,,,,,AFSA10.jpg,AFSA03.jpg,AFNE20.jpg,AFNE10.jpg,AFSA03.jpg,FS,4,num_6,16,num_6,3.76652890907,,,2017_Oct_19_1122,60.0176137701,FEMA4ImagesEEG,001,201639,
AFNE01.JPG,AFNE01.JPG,AFNE01.JPG,AFNE01.JPG,AFNE01.JPG,AFNE01.JPG,,,,,,,,,2,8,28,6,,,,,,,,,,,,,,,AFSA13.jpg,AFNE17.jpg,AFSA07.jpg,AFNE04.jpg,AFSA07.jpg,FS,4,num_2,16,num_2,1.15008074619,,,2017_Oct_19_1122,60.0176137701,FEMA4ImagesEEG,001,201639,
AFNE01.JPG,AFNE01.JPG,AFNE01.JPG,AFNE01.JPG,AFNE01.JPG,AFNE01.JPG,,,,,,,,,2,9,29,2,,,,,,,,,,,,,,,AFSA08.jpg,AFNE13.jpg,AFSA11.jpg,AFNE07.jpg,AFSA11.jpg,FS,4,num_2,16,num_2,1.13340261305,,,2017_Oct_19_1122,60.0176137701,FEMA4ImagesEEG,001,201639,
AFNE01.JPG,AFNE01.JPG,AFNE01.JPG,AFNE01.JPG,AFNE01.JPG,AFNE01.JPG,,,,,,,,,3,0,30,2,,,,,,,,,,,,,,,AFNE09.jpg,AFSA17.jpg,AFNE01.jpg,AFSA06.jpg,AFNE09.jpg,FN,3,num_8,16,num_8,3.58320575918,,,2017_Oct_19_1122,60.0176137701,FEMA4ImagesEEG,001,201639,
AFNE01.JPG,AFNE01.JPG,AFNE01.JPG,AFNE01.JPG,AFNE01.JPG,AFNE01.JPG,,,,,,,,,3,1,31,5,,,,,,,,,,,,,,,AFSA05.jpg,AFNE14.jpg,AFNE16.jpg,AFSA15.jpg,AFSA05.jpg,FS,4,num_8,16,num_8,1.24977684551,,,2017_Oct_19_1122,60.0176137701,FEMA4ImagesEEG,001,201639,
AFNE01.JPG,AFNE01.JPG,AFNE01.JPG,AFNE01.JPG,AFNE01.JPG,AFNE01.JPG,,,,,,,,,3,2,32,8,,,,,,,,,,,,,,,AFNE18.jpg,AFSA04.jpg,AFSA01.jpg,AFNE04.jpg,AFSA04.jpg,FS,4,num_6,32,num_8,1.63337871796,,,2017_Oct_19_1122,60.0176137701,FEMA4ImagesEEG,001,201639,
AFNE01.JPG,AFNE01.JPG,AFNE01.JPG,AFNE01.JPG,AFNE01.JPG,AFNE01.JPG,,,,,,,,,3,3,33,6,,,,,,,,,,,,,,,AFSA11.jpg,AFNE01.jpg,AFSA13.jpg,AFNE12.jpg,AFNE01.jpg,FN,3,num_6,16,num_6,1.66670804206,,,2017_Oct_19_1122,60.0176137701,FEMA4ImagesEEG,001,201639,
AFNE01.JPG,AFNE01.JPG,AFNE01.JPG,AFNE01.JPG,AFNE01.JPG,AFNE01.JPG,,,,,,,,,3,4,34,1,,,,,,,,,,,,,,,AFNE08.jpg,AFNE07.jpg,AFSA18.jpg,AFSA05.jpg,AFNE08.jpg,FN,3,num_8,16,num_8,1.66656595448,,,2017_Oct_19_1122,60.0176137701,FEMA4ImagesEEG,001,201639,
AFNE01.JPG,AFNE01.JPG,AFNE01.JPG,AFNE01.JPG,AFNE01.JPG,AFNE01.JPG,,,,,,,,,3,5,35,9,,,,,,,,,,,,,,,AFNE11.jpg,AFNE13.jpg,AFSA02.jpg,AFSA15.jpg,AFSA15.jpg,FS,4,num_4,48,None,,,,2017_Oct_19_1122,60.0176137701,FEMA4ImagesEEG,001,201639,
AFNE01.JPG,AFNE01.JPG,AFNE01.JPG,AFNE01.JPG,AFNE01.JPG,AFNE01.JPG,,,,,,,,,3,6,36,4,,,,,,,,,,,,,,,AFSA02.jpg,AFSA06.jpg,AFNE04.jpg,AFNE11.jpg,AFSA06.jpg,FS,4,num_6,32,num_8,1.38339178811,,,2017_Oct_19_1122,60.0176137701,FEMA4ImagesEEG,001,201639,
AFNE01.JPG,AFNE01.JPG,AFNE01.JPG,AFNE01.JPG,AFNE01.JPG,AFNE01.JPG,,,,,,,,,3,7,37,7,,,,,,,,,,,,,,,AFSA04.jpg,AFNE13.jpg,AFNE04.jpg,AFSA10.jpg,AFNE04.jpg,FN,3,num_2,16,num_2,1.26672055092,,,2017_Oct_19_1122,60.0176137701,FEMA4ImagesEEG,001,201639,
AFNE01.JPG,AFNE01.JPG,AFNE01.JPG,AFNE01.JPG,AFNE01.JPG,AFNE01.JPG,,,,,,,,,3,8,38,0,,,,,,,,,,,,,,,AFNE09.jpg,AFSA14.jpg,AFNE20.jpg,AFSA11.jpg,AFNE20.jpg,FN,3,num_2,32,num_8,1.36671590019,,,2017_Oct_19_1122,60.0176137701,FEMA4ImagesEEG,001,201639,
AFNE01.JPG,AFNE01.JPG,AFNE01.JPG,AFNE01.JPG,AFNE01.JPG,AFNE01.JPG,,,,,,,,,3,9,39,3,,,,,,,,,,,,,,,AFNE17.jpg,AFNE15.jpg,AFSA14.jpg,AFSA03.jpg,AFSA14.jpg,FS,4,num_2,32,num_8,1.18329813218,,,2017_Oct_19_1122,60.0176137701,FEMA4ImagesEEG,001,201639,
AFNE01.JPG,AFNE01.JPG,AFNE01.JPG,AFNE01.JPG,AFNE01.JPG,AFNE01.JPG,,,,,,,,,4,0,40,2,,,,,,,,,,,,,,,AFSA10.jpg,AFNE15.jpg,AFSA01.jpg,AFNE14.jpg,AFNE15.jpg,FN,3,num_6,32,num_4,2.35012372528,,,2017_Oct_19_1122,60.0176137701,FEMA4ImagesEEG,001,201639,
AFNE01.JPG,AFNE01.JPG,AFNE01.JPG,AFNE01.JPG,AFNE01.JPG,AFNE01.JPG,,,,,,,,,4,1,41,4,,,,,,,,,,,,,,,AFSA16.jpg,AFNE19.jpg,AFNE04.jpg,AFSA18.jpg,AFNE19.jpg,FN,3,num_6,16,num_6,0.516822946985,,,2017_Oct_19_1122,60.0176137701,FEMA4ImagesEEG,001,201639,
AFNE01.JPG,AFNE01.JPG,AFNE01.JPG,AFNE01.JPG,AFNE01.JPG,AFNE01.JPG,,,,,,,,,4,2,42,3,,,,,,,,,,,,,,,AFNE09.jpg,AFSA12.jpg,AFSA05.jpg,AFNE13.jpg,AFNE09.jpg,FN,3,num_8,32,num_4,1.31672929105,,,2017_Oct_19_1122,60.0176137701,FEMA4ImagesEEG,001,201639,
AFNE01.JPG,AFNE01.JPG,AFNE01.JPG,AFNE01.JPG,AFNE01.JPG,AFNE01.JPG,,,,,,,,,4,3,43,0,,,,,,,,,,,,,,,AFSA13.jpg,AFNE01.jpg,AFSA08.jpg,AFNE03.jpg,AFNE01.jpg,FN,3,num_6,32,num_4,1.16676465259,,,2017_Oct_19_1122,60.0176137701,FEMA4ImagesEEG,001,201639,
AFNE01.JPG,AFNE01.JPG,AFNE01.JPG,AFNE01.JPG,AFNE01.JPG,AFNE01.JPG,,,,,,,,,4,4,44,8,,,,,,,,,,,,,,,AFNE03.jpg,AFNE04.jpg,AFSA07.jpg,AFSA12.jpg,AFSA07.jpg,FS,4,num_2,16,num_2,0.900148983492,,,2017_Oct_19_1122,60.0176137701,FEMA4ImagesEEG,001,201639,
AFNE01.JPG,AFNE01.JPG,AFNE01.JPG,AFNE01.JPG,AFNE01.JPG,AFNE01.JPG,,,,,,,,,4,5,45,5,,,,,,,,,,,,,,,AFSA02.jpg,AFSA18.jpg,AFNE08.jpg,AFNE05.jpg,AFSA18.jpg,FS,4,num_6,16,num_6,1.8333431159,,,2017_Oct_19_1122,60.0176137701,FEMA4ImagesEEG,001,201639,
AFNE01.JPG,AFNE01.JPG,AFNE01.JPG,AFNE01.JPG,AFNE01.JPG,AFNE01.JPG,,,,,,,,,4,6,46,7,,,,,,,,,,,,,,,AFSA01.jpg,AFSA18.jpg,AFNE13.jpg,AFNE18.jpg,AFSA18.jpg,FS,4,num_6,16,num_6,0.683465397829,,,2017_Oct_19_1122,60.0176137701,FEMA4ImagesEEG,001,201639,
AFNE01.JPG,AFNE01.JPG,AFNE01.JPG,AFNE01.JPG,AFNE01.JPG,AFNE01.JPG,,,,,,,,,4,7,47,9,,,,,,,,,,,,,,,AFSA20.jpg,AFSA17.jpg,AFNE05.jpg,AFNE13.jpg,AFSA17.jpg,FS,4,num_6,32,num_2,2.56663571531,,,2017_Oct_19_1122,60.0176137701,FEMA4ImagesEEG,001,201639,
AFNE01.JPG,AFNE01.JPG,AFNE01.JPG,AFNE01.JPG,AFNE01.JPG,AFNE01.JPG,,,,,,,,,4,8,48,6,,,,,,,,,,,,,,,AFSA16.jpg,AFNE02.jpg,AFNE19.jpg,AFSA01.jpg,AFSA01.jpg,FS,4,num_4,16,num_4,1.34993320599,,,2017_Oct_19_1122,60.0176137701,FEMA4ImagesEEG,001,201639,
AFNE01.JPG,AFNE01.JPG,AFNE01.JPG,AFNE01.JPG,AFNE01.JPG,AFNE01.JPG,,,,,,,,,4,9,49,1,,,,,,,,,,,,,,,AFNE05.jpg,AFSA09.jpg,AFSA08.jpg,AFNE12.jpg,AFSA08.jpg,FS,4,num_2,32,num_6,1.28344551197,,,2017_Oct_19_1122,60.0176137701,FEMA4ImagesEEG,001,201639,
AFNE01.JPG,AFNE01.JPG,AFNE01.JPG,AFNE01.JPG,AFNE01.JPG,AFNE01.JPG,,,,,,,,,5,0,50,2,,,,,,,,,,,,,,,AFNE19.jpg,AFNE03.jpg,AFSA04.jpg,AFSA10.jpg,AFNE03.jpg,FN,3,num_6,32,num_2,1.26673466346,,,2017_Oct_19_1122,60.0176137701,FEMA4ImagesEEG,001,201639,
AFNE01.JPG,AFNE01.JPG,AFNE01.JPG,AFNE01.JPG,AFNE01.JPG,AFNE01.JPG,,,,,,,,,5,1,51,5,,,,,,,,,,,,,,,AFSA11.jpg,AFNE07.jpg,AFNE16.jpg,AFSA20.jpg,AFNE07.jpg,FN,3,num_6,32,num_4,0.383517838753,,,2017_Oct_19_1122,60.0176137701,FEMA4ImagesEEG,001,201639,
AFNE01.JPG,AFNE01.JPG,AFNE01.JPG,AFNE01.JPG,AFNE01.JPG,AFNE01.JPG,,,,,,,,,5,2,52,4,,,,,,,,,,,,,,,AFNE20.jpg,AFNE14.jpg,AFSA05.jpg,AFSA15.jpg,AFSA15.jpg,FS,4,num_4,32,num_6,1.70002806469,,,2017_Oct_19_1122,60.0176137701,FEMA4ImagesEEG,001,201639,
AFNE01.JPG,AFNE01.JPG,AFNE01.JPG,AFNE01.JPG,AFNE01.JPG,AFNE01.JPG,,,,,,,,,5,3,53,1,,,,,,,,,,,,,,,AFNE06.jpg,AFSA17.jpg,AFNE04.jpg,AFSA16.jpg,AFSA17.jpg,FS,4,num_6,32,num_4,1.7834825574,,,2017_Oct_19_1122,60.0176137701,FEMA4ImagesEEG,001,201639,
AFNE01.JPG,AFNE01.JPG,AFNE01.JPG,AFNE01.JPG,AFNE01.JPG,AFNE01.JPG,,,,,,,,,5,4,54,8,,,,,,,,,,,,,,,AFSA07.jpg,AFNE14.jpg,AFNE16.jpg,AFSA19.jpg,AFNE16.jpg,FN,3,num_2,16,num_2,1.11674276213,,,2017_Oct_19_1122,60.0176137701,FEMA4ImagesEEG,001,201639,
AFNE01.JPG,AFNE01.JPG,AFNE01.JPG,AFNE01.JPG,AFNE01.JPG,AFNE01.JPG,,,,,,,,,5,5,55,6,,,,,,,,,,,,,,,AFSA19.jpg,AFNE07.jpg,AFNE05.jpg,AFSA09.jpg,AFSA09.jpg,FS,4,num_4,32,num_2,2.16664982785,,,2017_Oct_19_1122,60.0176137701,FEMA4ImagesEEG,001,201639,
AFNE01.JPG,AFNE01.JPG,AFNE01.JPG,AFNE01.JPG,AFNE01.JPG,AFNE01.JPG,,,,,,,,,5,6,56,9,,,,,,,,,,,,,,,AFNE03.jpg,AFSA15.jpg,AFSA03.jpg,AFNE06.jpg,AFNE03.jpg,FN,3,num_8,16,num_8,1.55009517944,,,2017_Oct_19_1122,60.0176137701,FEMA4ImagesEEG,001,201639,
AFNE01.JPG,AFNE01.JPG,AFNE01.JPG,AFNE01.JPG,AFNE01.JPG,AFNE01.JPG,,,,,,,,,5,7,57,7,,,,,,,,,,,,,,,AFSA13.jpg,AFNE19.jpg,AFNE01.jpg,AFSA11.jpg,AFNE19.jpg,FN,3,num_6,32,num_2,1.63338962314,,,2017_Oct_19_1122,60.0176137701,FEMA4ImagesEEG,001,201639,
AFNE01.JPG,AFNE01.JPG,AFNE01.JPG,AFNE01.JPG,AFNE01.JPG,AFNE01.JPG,,,,,,,,,5,8,58,3,,,,,,,,,,,,,,,AFNE16.jpg,AFSA13.jpg,AFSA08.jpg,AFNE02.jpg,AFNE16.jpg,FN,3,num_8,32,num_2,0.83351054191,,,2017_Oct_19_1122,60.0176137701,FEMA4ImagesEEG,001,201639,
AFNE01.JPG,AFNE01.JPG,AFNE01.JPG,AFNE01.JPG,AFNE01.JPG,AFNE01.JPG,,,,,,,,,5,9,59,0,,,,,,,,,,,,,,,AFSA12.jpg,AFSA13.jpg,AFNE19.jpg,AFNE11.jpg,AFSA12.jpg,FS,4,num_8,16,num_8,1.76665624263,,,2017_Oct_19_1122,60.0176137701,FEMA4ImagesEEG,001,201639,
,,,,,,,,,,,,,,,,,,,,,,,,,,,,,,,,,,,,,,,,,,,space,31.5810231269,2017_Oct_19_1122,60.0176137701,FEMA4ImagesEEG,001,201639,
AFNE01.JPG,AFNE01.JPG,AFNE01.JPG,AFNE01.JPG,AFNE01.JPG,AFNE01.JPG,,,,,,,,,,,,,0,0,0,1,,,,,,,,,,,AMSA02.jpg,AMNE20.jpg,AMSA01.jpg,AMNE10.jpg,AMNE10.jpg,MN,1,num_4,16,num_4,1.01674741282,,,2017_Oct_19_1122,60.0176137701,FEMA4ImagesEEG,001,201639,
AFNE01.JPG,AFNE01.JPG,AFNE01.JPG,AFNE01.JPG,AFNE01.JPG,AFNE01.JPG,,,,,,,,,,,,,0,1,1,0,,,,,,,,,,,AMNE13.jpg,AMNE19.jpg,AMSA12.jpg,AMSA14.jpg,AMSA12.jpg,MS,2,num_2,16,num_2,0.883455775649,,,2017_Oct_19_1122,60.0176137701,FEMA4ImagesEEG,001,201639,
AFNE01.JPG,AFNE01.JPG,AFNE01.JPG,AFNE01.JPG,AFNE01.JPG,AFNE01.JPG,,,,,,,,,,,,,0,2,2,5,,,,,,,,,,,AMSA05.jpg,AMNE03.jpg,AMNE17.jpg,AMSA16.jpg,AMSA16.jpg,MS,2,num_4,16,num_4,1.78334239422,,,2017_Oct_19_1122,60.0176137701,FEMA4ImagesEEG,001,201639,
AFNE01.JPG,AFNE01.JPG,AFNE01.JPG,AFNE01.JPG,AFNE01.JPG,AFNE01.JPG,,,,,,,,,,,,,0,3,3,4,,,,,,,,,,,AMSA04.jpg,AMNE19.jpg,AMNE11.jpg,AMSA12.jpg,AMNE19.jpg,MN,1,num_6,16,num_6,0.95021160788,,,2017_Oct_19_1122,60.0176137701,FEMA4ImagesEEG,001,201639,
AFNE01.JPG,AFNE01.JPG,AFNE01.JPG,AFNE01.JPG,AFNE01.JPG,AFNE01.JPG,,,,,,,,,,,,,0,4,4,6,,,,,,,,,,,AMSA01.jpg,AMNE10.jpg,AMNE01.jpg,AMSA17.jpg,AMNE10.jpg,MN,1,num_6,16,num_6,1.13341095229,,,2017_Oct_19_1122,60.0176137701,FEMA4ImagesEEG,001,201639,
AFNE01.JPG,AFNE01.JPG,AFNE01.JPG,AFNE01.JPG,AFNE01.JPG,AFNE01.JPG,,,,,,,,,,,,,0,5,5,3,,,,,,,,,,,AMSA13.jpg,AMSA08.jpg,AMNE15.jpg,AMNE20.jpg,AMSA08.jpg,MS,2,num_6,16,num_6,1.89988854303,,,2017_Oct_19_1122,60.0176137701,FEMA4ImagesEEG,001,201639,
AFNE01.JPG,AFNE01.JPG,AFNE01.JPG,AFNE01.JPG,AFNE01.JPG,AFNE01.JPG,,,,,,,,,,,,,0,6,6,2,,,,,,,,,,,AMSA02.jpg,AMNE15.jpg,AMSA18.jpg,AMNE17.jpg,AMSA02.jpg,MS,2,num_8,16,num_8,1.21675318613,,,2017_Oct_19_1122,60.0176137701,FEMA4ImagesEEG,001,201639,
AFNE01.JPG,AFNE01.JPG,AFNE01.JPG,AFNE01.JPG,AFNE01.JPG,AFNE01.JPG,,,,,,,,,,,,,0,7,7,8,,,,,,,,,,,AMSA07.jpg,AMSA04.jpg,AMNE20.jpg,AMNE02.jpg,AMNE02.jpg,MN,1,num_4,32,num_6,1.11678509973,,,2017_Oct_19_1122,60.0176137701,FEMA4ImagesEEG,001,201639,
AFNE01.JPG,AFNE01.JPG,AFNE01.JPG,AFNE01.JPG,AFNE01.JPG,AFNE01.JPG,,,,,,,,,,,,,0,8,8,9,,,,,,,,,,,AMNE19.jpg,AMSA13.jpg,AMSA03.jpg,AMNE06.jpg,AMSA03.jpg,MS,2,num_2,32,num_6,1.05012452713,,,2017_Oct_19_1122,60.0176137701,FEMA4ImagesEEG,001,201639,
AFNE01.JPG,AFNE01.JPG,AFNE01.JPG,AFNE01.JPG,AFNE01.JPG,AFNE01.JPG,,,,,,,,,,,,,0,9,9,7,,,,,,,,,,,AMSA08.jpg,AMNE20.jpg,AMSA07.jpg,AMNE13.jpg,AMSA07.jpg,MS,2,num_2,32,num_4,0.866749417473,,,2017_Oct_19_1122,60.0176137701,FEMA4ImagesEEG,001,201639,
AFNE01.JPG,AFNE01.JPG,AFNE01.JPG,AFNE01.JPG,AFNE01.JPG,AFNE01.JPG,,,,,,,,,,,,,1,0,10,8,,,,,,,,,,,AMNE09.jpg,AMNE16.jpg,AMSA02.jpg,AMSA06.jpg,AMSA06.jpg,MS,2,num_4,16,num_4,1.68345128527,,,2017_Oct_19_1122,60.0176137701,FEMA4ImagesEEG,001,201639,
AFNE01.JPG,AFNE01.JPG,AFNE01.JPG,AFNE01.JPG,AFNE01.JPG,AFNE01.JPG,,,,,,,,,,,,,1,1,11,2,,,,,,,,,,,AMNE15.jpg,AMSA17.jpg,AMNE01.jpg,AMSA02.jpg,AMNE01.jpg,MN,1,num_2,32,num_8,2.09986095942,,,2017_Oct_19_1122,60.0176137701,FEMA4ImagesEEG,001,201639,
AFNE01.JPG,AFNE01.JPG,AFNE01.JPG,AFNE01.JPG,AFNE01.JPG,AFNE01.JPG,,,,,,,,,,,,,1,2,12,0,,,,,,,,,,,AMNE16.jpg,AMSA18.jpg,AMSA15.jpg,AMNE09.jpg,AMNE16.jpg,MN,1,num_8,32,num_6,3.3665308335,,,2017_Oct_19_1122,60.0176137701,FEMA4ImagesEEG,001,201639,
AFNE01.JPG,AFNE01.JPG,AFNE01.JPG,AFNE01.JPG,AFNE01.JPG,AFNE01.JPG,,,,,,,,,,,,,1,3,13,9,,,,,,,,,,,AMSA19.jpg,AMNE19.jpg,AMSA01.jpg,AMNE16.jpg,AMSA19.jpg,MS,2,num_8,32,num_4,1.48336468564,,,2017_Oct_19_1122,60.0176137701,FEMA4ImagesEEG,001,201639,
AFNE01.JPG,AFNE01.JPG,AFNE01.JPG,AFNE01.JPG,AFNE01.JPG,AFNE01.JPG,,,,,,,,,,,,,1,4,14,5,,,,,,,,,,,AMNE03.jpg,AMSA02.jpg,AMNE17.jpg,AMSA11.jpg,AMSA11.jpg,MS,2,num_4,32,num_6,1.45003824818,,,2017_Oct_19_1122,60.0176137701,FEMA4ImagesEEG,001,201639,
AFNE01.JPG,AFNE01.JPG,AFNE01.JPG,AFNE01.JPG,AFNE01.JPG,AFNE01.JPG,,,,,,,,,,,,,1,5,15,6,,,,,,,,,,,AMSA19.jpg,AMSA12.jpg,AMNE16.jpg,AMNE11.jpg,AMSA12.jpg,MS,2,num_6,16,num_6,0.883461548947,,,2017_Oct_19_1122,60.0176137701,FEMA4ImagesEEG,001,201639,
AFNE01.JPG,AFNE01.JPG,AFNE01.JPG,AFNE01.JPG,AFNE01.JPG,AFNE01.JPG,,,,,,,,,,,,,1,6,16,1,,,,,,,,,,,AMNE18.jpg,AMSA08.jpg,AMNE10.jpg,AMSA13.jpg,AMNE10.jpg,MN,1,num_2,16,num_2,2.74999446725,,,2017_Oct_19_1122,60.0176137701,FEMA4ImagesEEG,001,201639,
AFNE01.JPG,AFNE01.JPG,AFNE01.JPG,AFNE01.JPG,AFNE01.JPG,AFNE01.JPG,,,,,,,,,,,,,1,7,17,3,,,,,,,,,,,AMNE18.jpg,AMSA01.jpg,AMNE13.jpg,AMSA14.jpg,AMNE13.jpg,MN,1,num_2,32,num_8,1.95011891419,,,2017_Oct_19_1122,60.0176137701,FEMA4ImagesEEG,001,201639,
AFNE01.JPG,AFNE01.JPG,AFNE01.JPG,AFNE01.JPG,AFNE01.JPG,AFNE01.JPG,,,,,,,,,,,,,1,8,18,7,,,,,,,,,,,AMSA01.jpg,AMNE02.jpg,AMNE14.jpg,AMSA13.jpg,AMSA01.jpg,MS,2,num_8,32,num_2,0.866663138528,,,2017_Oct_19_1122,60.0176137701,FEMA4ImagesEEG,001,201639,
AFNE01.JPG,AFNE01.JPG,AFNE01.JPG,AFNE01.JPG,AFNE01.JPG,AFNE01.JPG,,,,,,,,,,,,,1,9,19,4,,,,,,,,,,,AMSA19.jpg,AMNE15.jpg,AMNE01.jpg,AMSA17.jpg,AMSA17.jpg,MS,2,num_4,32,num_8,0.883438776451,,,2017_Oct_19_1122,60.0176137701,FEMA4ImagesEEG,001,201639,
AFNE01.JPG,AFNE01.JPG,AFNE01.JPG,AFNE01.JPG,AFNE01.JPG,AFNE01.JPG,,,,,,,,,,,,,2,0,20,9,,,,,,,,,,,AMNE20.jpg,AMNE05.jpg,AMSA07.jpg,AMSA15.jpg,AMNE05.jpg,MN,1,num_6,32,num_2,0.816766336473,,,2017_Oct_19_1122,60.0176137701,FEMA4ImagesEEG,001,201639,
AFNE01.JPG,AFNE01.JPG,AFNE01.JPG,AFNE01.JPG,AFNE01.JPG,AFNE01.JPG,,,,,,,,,,,,,2,1,21,6,,,,,,,,,,,AMNE11.jpg,AMSA04.jpg,AMSA07.jpg,AMNE04.jpg,AMSA07.jpg,MS,2,num_2,32,num_6,1.25011394269,,,2017_Oct_19_1122,60.0176137701,FEMA4ImagesEEG,001,201639,
AFNE01.JPG,AFNE01.JPG,AFNE01.JPG,AFNE01.JPG,AFNE01.JPG,AFNE01.JPG,,,,,,,,,,,,,2,2,22,2,,,,,,,,,,,AMSA04.jpg,AMSA11.jpg,AMNE17.jpg,AMNE20.jpg,AMNE20.jpg,MN,1,num_4,32,num_2,0.88351158431,,,2017_Oct_19_1122,60.0176137701,FEMA4ImagesEEG,001,201639,
AFNE01.JPG,AFNE01.JPG,AFNE01.JPG,AFNE01.JPG,AFNE01.JPG,AFNE01.JPG,,,,,,,,,,,,,2,3,23,8,,,,,,,,,,,AMSA11.jpg,AMNE11.jpg,AMSA05.jpg,AMNE14.jpg,AMSA11.jpg,MS,2,num_8,32,num_4,1.06672247534,,,2017_Oct_19_1122,60.0176137701,FEMA4ImagesEEG,001,201639,
AFNE01.JPG,AFNE01.JPG,AFNE01.JPG,AFNE01.JPG,AFNE01.JPG,AFNE01.JPG,,,,,,,,,,,,,2,4,24,1,,,,,,,,,,,AMSA06.jpg,AMNE05.jpg,AMSA15.jpg,AMNE16.jpg,AMSA15.jpg,MS,2,num_2,16,num_2,1.86665608225,,,2017_Oct_19_1122,60.0176137701,FEMA4ImagesEEG,001,201639,
AFNE01.JPG,AFNE01.JPG,AFNE01.JPG,AFNE01.JPG,AFNE01.JPG,AFNE01.JPG,,,,,,,,,,,,,2,5,25,3,,,,,,,,,,,AMSA09.jpg,AMSA07.jpg,AMNE04.jpg,AMNE01.jpg,AMSA07.jpg,MS,2,num_6,16,num_6,1.11674468656,,,2017_Oct_19_1122,60.0176137701,FEMA4ImagesEEG,001,201639,
AFNE01.JPG,AFNE01.JPG,AFNE01.JPG,AFNE01.JPG,AFNE01.JPG,AFNE01.JPG,,,,,,,,,,,,,2,6,26,4,,,,,,,,,,,AMNE20.jpg,AMSA13.jpg,AMSA16.jpg,AMNE11.jpg,AMSA16.jpg,MS,2,num_2,16,num_2,1.03347205315,,,2017_Oct_19_1122,60.0176137701,FEMA4ImagesEEG,001,201639,
AFNE01.JPG,AFNE01.JPG,AFNE01.JPG,AFNE01.JPG,AFNE01.JPG,AFNE01.JPG,,,,,,,,,,,,,2,7,27,0,,,,,,,,,,,AMNE07.jpg,AMSA03.jpg,AMNE06.jpg,AMSA17.jpg,AMNE07.jpg,MN,1,num_8,16,num_8,1.50010889105,,,2017_Oct_19_1122,60.0176137701,FEMA4ImagesEEG,001,201639,
AFNE01.JPG,AFNE01.JPG,AFNE01.JPG,AFNE01.JPG,AFNE01.JPG,AFNE01.JPG,,,,,,,,,,,,,2,8,28,5,,,,,,,,,,,AMSA19.jpg,AMSA07.jpg,AMNE20.jpg,AMNE05.jpg,AMNE20.jpg,MN,1,num_2,32,num_4,0.900088684459,,,2017_Oct_19_1122,60.0176137701,FEMA4ImagesEEG,001,201639,
AFNE01.JPG,AFNE01.JPG,AFNE01.JPG,AFNE01.JPG,AFNE01.JPG,AFNE01.JPG,,,,,,,,,,,,,2,9,29,7,,,,,,,,,,,AMSA13.jpg,AMSA10.jpg,AMNE09.jpg,AMNE06.jpg,AMSA13.jpg,MS,2,num_8,32,num_4,2.25001932457,,,2017_Oct_19_1122,60.0176137701,FEMA4ImagesEEG,001,201639,
AFNE01.JPG,AFNE01.JPG,AFNE01.JPG,AFNE01.JPG,AFNE01.JPG,AFNE01.JPG,,,,,,,,,,,,,3,0,30,3,,,,,,,,,,,AMNE07.jpg,AMSA16.jpg,AMNE14.jpg,AMSA07.jpg,AMNE14.jpg,MN,1,num_2,16,num_2,1.26677154849,,,2017_Oct_19_1122,60.0176137701,FEMA4ImagesEEG,001,201639,
AFNE01.JPG,AFNE01.JPG,AFNE01.JPG,AFNE01.JPG,AFNE01.JPG,AFNE01.JPG,,,,,,,,,,,,,3,1,31,5,,,,,,,,,,,AMNE13.jpg,AMNE07.jpg,AMSA08.jpg,AMSA01.jpg,AMSA08.jpg,MS,2,num_2,16,num_2,1.00011386251,,,2017_Oct_19_1122,60.0176137701,FEMA4ImagesEEG,001,201639,
AFNE01.JPG,AFNE01.JPG,AFNE01.JPG,AFNE01.JPG,AFNE01.JPG,AFNE01.JPG,,,,,,,,,,,,,3,2,32,0,,,,,,,,,,,AMSA09.jpg,AMNE13.jpg,AMSA16.jpg,AMNE04.jpg,AMSA09.jpg,MS,2,num_8,16,num_8,1.03344735623,,,2017_Oct_19_1122,60.0176137701,FEMA4ImagesEEG,001,201639,
AFNE01.JPG,AFNE01.JPG,AFNE01.JPG,AFNE01.JPG,AFNE01.JPG,AFNE01.JPG,,,,,,,,,,,,,3,3,33,6,,,,,,,,,,,AMSA15.jpg,AMNE01.jpg,AMSA16.jpg,AMNE06.jpg,AMSA15.jpg,MS,2,num_8,16,num_8,1.13344366773,,,2017_Oct_19_1122,60.0176137701,FEMA4ImagesEEG,001,201639,
AFNE01.JPG,AFNE01.JPG,AFNE01.JPG,AFNE01.JPG,AFNE01.JPG,AFNE01.JPG,,,,,,,,,,,,,3,4,34,7,,,,,,,,,,,AMNE08.jpg,AMSA19.jpg,AMNE07.jpg,AMSA11.jpg,AMNE07.jpg,MN,1,num_2,16,num_2,1.55006342623,,,2017_Oct_19_1122,60.0176137701,FEMA4ImagesEEG,001,201639,
AFNE01.JPG,AFNE01.JPG,AFNE01.JPG,AFNE01.JPG,AFNE01.JPG,AFNE01.JPG,,,,,,,,,,,,,3,5,35,2,,,,,,,,,,,AMNE17.jpg,AMSA10.jpg,AMNE03.jpg,AMSA16.jpg,AMSA10.jpg,MS,2,num_6,16,num_6,0.949783420656,,,2017_Oct_19_1122,60.0176137701,FEMA4ImagesEEG,001,201639,
AFNE01.JPG,AFNE01.JPG,AFNE01.JPG,AFNE01.JPG,AFNE01.JPG,AFNE01.JPG,,,,,,,,,,,,,3,6,36,1,,,,,,,,,,,AMSA05.jpg,AMNE08.jpg,AMSA04.jpg,AMNE20.jpg,AMSA05.jpg,MS,2,num_8,32,num_6,1.8835805433,,,2017_Oct_19_1122,60.0176137701,FEMA4ImagesEEG,001,201639,
AFNE01.JPG,AFNE01.JPG,AFNE01.JPG,AFNE01.JPG,AFNE01.JPG,AFNE01.JPG,,,,,,,,,,,,,3,7,37,9,,,,,,,,,,,AMNE03.jpg,AMSA04.jpg,AMSA02.jpg,AMNE07.jpg,AMNE07.jpg,MN,1,num_4,16,num_4,1.03343901699,,,2017_Oct_19_1122,60.0176137701,FEMA4ImagesEEG,001,201639,
AFNE01.JPG,AFNE01.JPG,AFNE01.JPG,AFNE01.JPG,AFNE01.JPG,AFNE01.JPG,,,,,,,,,,,,,3,8,38,8,,,,,,,,,,,AMNE02.jpg,AMSA01.jpg,AMSA09.jpg,AMNE05.jpg,AMNE02.jpg,MN,1,num_8,32,num_2,2.6499776284,,,2017_Oct_19_1122,60.0176137701,FEMA4ImagesEEG,001,201639,
AFNE01.JPG,AFNE01.JPG,AFNE01.JPG,AFNE01.JPG,AFNE01.JPG,AFNE01.JPG,,,,,,,,,,,,,3,9,39,4,,,,,,,,,,,AMNE05.jpg,AMNE04.jpg,AMSA12.jpg,AMSA18.jpg,AMSA18.jpg,MS,2,num_4,16,num_4,0.833508617477,,,2017_Oct_19_1122,60.0176137701,FEMA4ImagesEEG,001,201639,
AFNE01.JPG,AFNE01.JPG,AFNE01.JPG,AFNE01.JPG,AFNE01.JPG,AFNE01.JPG,,,,,,,,,,,,,4,0,40,6,,,,,,,,,,,AMNE02.jpg,AMSA12.jpg,AMSA20.jpg,AMNE16.jpg,AMSA20.jpg,MS,2,num_2,32,num_6,1.41674196025,,,2017_Oct_19_1122,60.0176137701,FEMA4ImagesEEG,001,201639,
AFNE01.JPG,AFNE01.JPG,AFNE01.JPG,AFNE01.JPG,AFNE01.JPG,AFNE01.JPG,,,,,,,,,,,,,4,1,41,1,,,,,,,,,,,AMNE18.jpg,AMNE01.jpg,AMSA15.jpg,AMSA13.jpg,AMNE01.jpg,MN,1,num_6,32,num_4,1.13343308333,,,2017_Oct_19_1122,60.0176137701,FEMA4ImagesEEG,001,201639,
AFNE01.JPG,AFNE01.JPG,AFNE01.JPG,AFNE01.JPG,AFNE01.JPG,AFNE01.JPG,,,,,,,,,,,,,4,2,42,0,,,,,,,,,,,AMNE08.jpg,AMSA18.jpg,AMSA06.jpg,AMNE14.jpg,AMNE08.jpg,MN,1,num_8,32,num_2,1.13348087348,,,2017_Oct_19_1122,60.0176137701,FEMA4ImagesEEG,001,201639,
AFNE01.JPG,AFNE01.JPG,AFNE01.JPG,AFNE01.JPG,AFNE01.JPG,AFNE01.JPG,,,,,,,,,,,,,4,3,43,4,,,,,,,,,,,AMSA17.jpg,AMSA07.jpg,AMNE02.jpg,AMNE20.jpg,AMNE20.jpg,MN,1,num_4,32,num_6,2.84997442103,,,2017_Oct_19_1122,60.0176137701,FEMA4ImagesEEG,001,201639,
AFNE01.JPG,AFNE01.JPG,AFNE01.JPG,AFNE01.JPG,AFNE01.JPG,AFNE01.JPG,,,,,,,,,,,,,4,4,44,8,,,,,,,,,,,AMSA16.jpg,AMSA13.jpg,AMNE16.jpg,AMNE05.jpg,AMNE16.jpg,MN,1,num_2,32,num_8,1.83338320832,,,2017_Oct_19_1122,60.0176137701,FEMA4ImagesEEG,001,201639,
AFNE01.JPG,AFNE01.JPG,AFNE01.JPG,AFNE01.JPG,AFNE01.JPG,AFNE01.JPG,,,,,,,,,,,,,4,5,45,2,,,,,,,,,,,AMSA16.jpg,AMSA08.jpg,AMNE03.jpg,AMNE06.jpg,AMSA08.jpg,MS,2,num_6,32,num_2,1.33341159378,,,2017_Oct_19_1122,60.0176137701,FEMA4ImagesEEG,001,201639,
AFNE01.JPG,AFNE01.JPG,AFNE01.JPG,AFNE01.JPG,AFNE01.JPG,AFNE01.JPG,,,,,,,,,,,,,4,6,46,3,,,,,,,,,,,AMNE12.jpg,AMSA17.jpg,AMNE19.jpg,AMSA08.jpg,AMSA17.jpg,MS,2,num_6,32,num_4,0.700118513254,,,2017_Oct_19_1122,60.0176137701,FEMA4ImagesEEG,001,201639,
AFNE01.JPG,AFNE01.JPG,AFNE01.JPG,AFNE01.JPG,AFNE01.JPG,AFNE01.JPG,,,,,,,,,,,,,4,7,47,5,,,,,,,,,,,AMNE17.jpg,AMNE01.jpg,AMSA14.jpg,AMSA09.jpg,AMSA09.jpg,MS,2,num_4,16,num_4,1.09998957595,,,2017_Oct_19_1122,60.0176137701,FEMA4ImagesEEG,001,201639,
AFNE01.JPG,AFNE01.JPG,AFNE01.JPG,AFNE01.JPG,AFNE01.JPG,AFNE01.JPG,,,,,,,,,,,,,4,8,48,9,,,,,,,,,,,AMNE10.jpg,AMNE17.jpg,AMSA02.jpg,AMSA15.jpg,AMSA15.jpg,MS,2,num_4,16,num_4,0.516776439763,,,2017_Oct_19_1122,60.0176137701,FEMA4ImagesEEG,001,201639,
AFNE01.JPG,AFNE01.JPG,AFNE01.JPG,AFNE01.JPG,AFNE01.JPG,AFNE01.JPG,,,,,,,,,,,,,4,9,49,7,,,,,,,,,,,AMNE11.jpg,AMSA18.jpg,AMSA09.jpg,AMNE13.jpg,AMSA18.jpg,MS,2,num_6,16,num_6,0.983425465762,,,2017_Oct_19_1122,60.0176137701,FEMA4ImagesEEG,001,201639,
AFNE01.JPG,AFNE01.JPG,AFNE01.JPG,AFNE01.JPG,AFNE01.JPG,AFNE01.JPG,,,,,,,,,,,,,5,0,50,8,,,,,,,,,,,AMNE02.jpg,AMNE01.jpg,AMSA06.jpg,AMSA12.jpg,AMNE02.jpg,MN,1,num_8,32,num_2,1.46669553322,,,2017_Oct_19_1122,60.0176137701,FEMA4ImagesEEG,001,201639,
AFNE01.JPG,AFNE01.JPG,AFNE01.JPG,AFNE01.JPG,AFNE01.JPG,AFNE01.JPG,,,,,,,,,,,,,5,1,51,1,,,,,,,,,,,AMNE08.jpg,AMSA20.jpg,AMSA10.jpg,AMNE10.jpg,AMNE10.jpg,MN,1,num_4,32,num_8,1.08344968158,,,2017_Oct_19_1122,60.0176137701,FEMA4ImagesEEG,001,201639,
AFNE01.JPG,AFNE01.JPG,AFNE01.JPG,AFNE01.JPG,AFNE01.JPG,AFNE01.JPG,,,,,,,,,,,,,5,2,52,0,,,,,,,,,,,AMSA06.jpg,AMNE04.jpg,AMSA08.jpg,AMNE13.jpg,AMNE04.jpg,MN,1,num_6,16,num_6,1.10007938303,,,2017_Oct_19_1122,60.0176137701,FEMA4ImagesEEG,001,201639,
AFNE01.JPG,AFNE01.JPG,AFNE01.JPG,AFNE01.JPG,AFNE01.JPG,AFNE01.JPG,,,,,,,,,,,,,5,3,53,3,,,,,,,,,,,AMSA20.jpg,AMNE09.jpg,AMNE19.jpg,AMSA14.jpg,AMNE19.jpg,MN,1,num_2,32,num_8,1.18309221743,,,2017_Oct_19_1122,60.0176137701,FEMA4ImagesEEG,001,201639,
AFNE01.JPG,AFNE01.JPG,AFNE01.JPG,AFNE01.JPG,AFNE01.JPG,AFNE01.JPG,,,,,,,,,,,,,5,4,54,2,,,,,,,,,,,AMSA02.jpg,AMSA07.jpg,AMNE02.jpg,AMNE08.jpg,AMSA02.jpg,MS,2,num_8,16,num_8,0.533460987645,,,2017_Oct_19_1122,60.0176137701,FEMA4ImagesEEG,001,201639,
AFNE01.JPG,AFNE01.JPG,AFNE01.JPG,AFNE01.JPG,AFNE01.JPG,AFNE01.JPG,,,,,,,,,,,,,5,5,55,5,,,,,,,,,,,AMNE12.jpg,AMNE19.jpg,AMSA17.jpg,AMSA02.jpg,AMSA02.jpg,MS,2,num_4,16,num_4,0.716752705048,,,2017_Oct_19_1122,60.0176137701,FEMA4ImagesEEG,001,201639,
AFNE01.JPG,AFNE01.JPG,AFNE01.JPG,AFNE01.JPG,AFNE01.JPG,AFNE01.JPG,,,,,,,,,,,,,5,6,56,6,,,,,,,,,,,AMSA11.jpg,AMNE17.jpg,AMSA19.jpg,AMNE14.jpg,AMNE14.jpg,MN,1,num_4,16,num_4,0.700013952184,,,2017_Oct_19_1122,60.0176137701,FEMA4ImagesEEG,001,201639,
AFNE01.JPG,AFNE01.JPG,AFNE01.JPG,AFNE01.JPG,AFNE01.JPG,AFNE01.JPG,,,,,,,,,,,,,5,7,57,4,,,,,,,,,,,AMSA01.jpg,AMNE11.jpg,AMSA02.jpg,AMNE18.jpg,AMNE11.jpg,MN,1,num_6,32,num_8,2.69992350365,,,2017_Oct_19_1122,60.0176137701,FEMA4ImagesEEG,001,201639,
AFNE01.JPG,AFNE01.JPG,AFNE01.JPG,AFNE01.JPG,AFNE01.JPG,AFNE01.JPG,,,,,,,,,,,,,5,8,58,7,,,,,,,,,,,AMNE20.jpg,AMNE06.jpg,AMSA01.jpg,AMSA11.jpg,AMNE20.jpg,MN,1,num_8,16,num_8,1.05039651421,,,2017_Oct_19_1122,60.0176137701,FEMA4ImagesEEG,001,201639,
AFNE01.JPG,AFNE01.JPG,AFNE01.JPG,AFNE01.JPG,AFNE01.JPG,AFNE01.JPG,,,,,,,,,,,,,5,9,59,9,,,,,,,,,,,AMSA14.jpg,AMNE18.jpg,AMNE20.jpg,AMSA15.jpg,AMNE20.jpg,MN,1,num_2,32,num_6,1.5666745248,,,2017_Oct_19_1122,60.0176137701,FEMA4ImagesEEG,001,201639,
,,,,,,,,,,,,,,,,,,,,,,,,,,,,,,,,,,,,,,,,,,,space,43.6130646819,2017_Oct_19_1122,60.0176137701,FEMA4ImagesEEG,001,201639,
AFNE01.JPG,AFNE01.JPG,AFNE01.JPG,AFNE01.JPG,AFNE01.JPG,AFNE01.JPG,,,,,,,,,,,,,,,,,0,0,0,8,,,,,,,AFNE08.jpg,AFSA13.jpg,AFNE07.jpg,AFSA11.jpg,AFSA11.jpg,FS,4,num_4,16,num_4,0.867032309703,,,2017_Oct_19_1122,60.0176137701,FEMA4ImagesEEG,001,201639,
AFNE01.JPG,AFNE01.JPG,AFNE01.JPG,AFNE01.JPG,AFNE01.JPG,AFNE01.JPG,,,,,,,,,,,,,,,,,0,1,1,7,,,,,,,AFSA20.jpg,AFNE03.jpg,AFNE06.jpg,AFSA07.jpg,AFNE03.jpg,FN,3,num_6,32,num_4,1.03340149048,,,2017_Oct_19_1122,60.0176137701,FEMA4ImagesEEG,001,201639,
AFNE01.JPG,AFNE01.JPG,AFNE01.JPG,AFNE01.JPG,AFNE01.JPG,AFNE01.JPG,,,,,,,,,,,,,,,,,0,2,2,3,,,,,,,AFSA06.jpg,AFSA15.jpg,AFNE10.jpg,AFNE15.jpg,AFSA15.jpg,FS,4,num_6,32,num_4,0.866607650591,,,2017_Oct_19_1122,60.0176137701,FEMA4ImagesEEG,001,201639,
AFNE01.JPG,AFNE01.JPG,AFNE01.JPG,AFNE01.JPG,AFNE01.JPG,AFNE01.JPG,,,,,,,,,,,,,,,,,0,3,3,4,,,,,,,AFSA04.jpg,AFNE03.jpg,AFSA08.jpg,AFNE01.jpg,AFSA04.jpg,FS,4,num_8,16,num_8,1.06679720763,,,2017_Oct_19_1122,60.0176137701,FEMA4ImagesEEG,001,201639,
AFNE01.JPG,AFNE01.JPG,AFNE01.JPG,AFNE01.JPG,AFNE01.JPG,AFNE01.JPG,,,,,,,,,,,,,,,,,0,4,4,1,,,,,,,AFSA03.jpg,AFNE14.jpg,AFNE12.jpg,AFSA19.jpg,AFNE14.jpg,FN,3,num_6,32,num_2,0.983515593573,,,2017_Oct_19_1122,60.0176137701,FEMA4ImagesEEG,001,201639,
AFNE01.JPG,AFNE01.JPG,AFNE01.JPG,AFNE01.JPG,AFNE01.JPG,AFNE01.JPG,,,,,,,,,,,,,,,,,0,5,5,5,,,,,,,AFSA07.jpg,AFNE01.jpg,AFSA08.jpg,AFNE05.jpg,AFSA07.jpg,FS,4,num_8,16,num_8,0.850199580134,,,2017_Oct_19_1122,60.0176137701,FEMA4ImagesEEG,001,201639,
AFNE01.JPG,AFNE01.JPG,AFNE01.JPG,AFNE01.JPG,AFNE01.JPG,AFNE01.JPG,,,,,,,,,,,,,,,,,0,6,6,2,,,,,,,AFSA20.jpg,AFSA11.jpg,AFNE16.jpg,AFNE19.jpg,AFNE16.jpg,FN,3,num_2,32,num_8,1.88339804253,,,2017_Oct_19_1122,60.0176137701,FEMA4ImagesEEG,001,201639,
AFNE01.JPG,AFNE01.JPG,AFNE01.JPG,AFNE01.JPG,AFNE01.JPG,AFNE01.JPG,,,,,,,,,,,,,,,,,0,7,7,9,,,,,,,AFSA03.jpg,AFNE04.jpg,AFSA12.jpg,AFNE03.jpg,AFSA12.jpg,FS,4,num_2,16,num_2,0.716797608591,,,2017_Oct_19_1122,60.0176137701,FEMA4ImagesEEG,001,201639,
AFNE01.JPG,AFNE01.JPG,AFNE01.JPG,AFNE01.JPG,AFNE01.JPG,AFNE01.JPG,,,,,,,,,,,,,,,,,0,8,8,6,,,,,,,AFNE02.jpg,AFSA03.jpg,AFNE04.jpg,AFSA01.jpg,AFNE02.jpg,FN,3,num_8,16,num_8,0.900101834792,,,2017_Oct_19_1122,60.0176137701,FEMA4ImagesEEG,001,201639,
AFNE01.JPG,AFNE01.JPG,AFNE01.JPG,AFNE01.JPG,AFNE01.JPG,AFNE01.JPG,,,,,,,,,,,,,,,,,0,9,9,0,,,,,,,AFSA08.jpg,AFNE13.jpg,AFSA14.jpg,AFNE15.jpg,AFSA08.jpg,FS,4,num_8,32,num_2,1.05009854722,,,2017_Oct_19_1122,60.0176137701,FEMA4ImagesEEG,001,201639,
AFNE01.JPG,AFNE01.JPG,AFNE01.JPG,AFNE01.JPG,AFNE01.JPG,AFNE01.JPG,,,,,,,,,,,,,,,,,1,0,10,1,,,,,,,AFSA14.jpg,AFNE19.jpg,AFSA05.jpg,AFNE09.jpg,AFNE19.jpg,FN,3,num_6,32,num_2,0.950107367535,,,2017_Oct_19_1122,60.0176137701,FEMA4ImagesEEG,001,201639,
AFNE01.JPG,AFNE01.JPG,AFNE01.JPG,AFNE01.JPG,AFNE01.JPG,AFNE01.JPG,,,,,,,,,,,,,,,,,1,1,11,8,,,,,,,AFNE19.jpg,AFSA14.jpg,AFNE14.jpg,AFSA06.jpg,AFNE14.jpg,FN,3,num_2,16,num_2,1.03346082728,,,2017_Oct_19_1122,60.0176137701,FEMA4ImagesEEG,001,201639,
AFNE01.JPG,AFNE01.JPG,AFNE01.JPG,AFNE01.JPG,AFNE01.JPG,AFNE01.JPG,,,,,,,,,,,,,,,,,1,2,12,0,,,,,,,AFNE15.jpg,AFSA01.jpg,AFSA04.jpg,AFNE14.jpg,AFNE14.jpg,FN,3,num_4,32,num_2,0.933446233626,,,2017_Oct_19_1122,60.0176137701,FEMA4ImagesEEG,001,201639,
AFNE01.JPG,AFNE01.JPG,AFNE01.JPG,AFNE01.JPG,AFNE01.JPG,AFNE01.JPG,,,,,,,,,,,,,,,,,1,3,13,2,,,,,,,AFSA17.jpg,AFNE18.jpg,AFSA15.jpg,AFNE13.jpg,AFNE13.jpg,FN,3,num_4,16,num_4,0.916759440559,,,2017_Oct_19_1122,60.0176137701,FEMA4ImagesEEG,001,201639,
AFNE01.JPG,AFNE01.JPG,AFNE01.JPG,AFNE01.JPG,AFNE01.JPG,AFNE01.JPG,,,,,,,,,,,,,,,,,1,4,14,5,,,,,,,AFSA12.jpg,AFSA05.jpg,AFNE09.jpg,AFNE13.jpg,AFNE13.jpg,FN,3,num_4,32,num_2,2.56661679168,,,2017_Oct_19_1122,60.0176137701,FEMA4ImagesEEG,001,201639,
AFNE01.JPG,AFNE01.JPG,AFNE01.JPG,AFNE01.JPG,AFNE01.JPG,AFNE01.JPG,,,,,,,,,,,,,,,,,1,5,15,3,,,,,,,AFSA15.jpg,AFNE10.jpg,AFNE17.jpg,AFSA01.jpg,AFSA15.jpg,FS,4,num_8,16,num_8,1.18346363376,,,2017_Oct_19_1122,60.0176137701,FEMA4ImagesEEG,001,201639,
AFNE01.JPG,AFNE01.JPG,AFNE01.JPG,AFNE01.JPG,AFNE01.JPG,AFNE01.JPG,,,,,,,,,,,,,,,,,1,6,16,6,,,,,,,AFNE09.jpg,AFSA10.jpg,AFSA11.jpg,AFNE03.jpg,AFSA10.jpg,FS,4,num_6,32,num_4,0.883424343163,,,2017_Oct_19_1122,60.0176137701,FEMA4ImagesEEG,001,201639,
AFNE01.JPG,AFNE01.JPG,AFNE01.JPG,AFNE01.JPG,AFNE01.JPG,AFNE01.JPG,,,,,,,,,,,,,,,,,1,7,17,7,,,,,,,AFSA15.jpg,AFNE11.jpg,AFNE16.jpg,AFSA20.jpg,AFNE16.jpg,FN,3,num_2,32,num_4,1.03335498323,,,2017_Oct_19_1122,60.0176137701,FEMA4ImagesEEG,001,201639,
AFNE01.JPG,AFNE01.JPG,AFNE01.JPG,AFNE01.JPG,AFNE01.JPG,AFNE01.JPG,,,,,,,,,,,,,,,,,1,8,18,4,,,,,,,AFSA11.jpg,AFNE06.jpg,AFNE04.jpg,AFSA14.jpg,AFSA14.jpg,FS,4,num_4,32,num_6,2.5833058299,,,2017_Oct_19_1122,60.0176137701,FEMA4ImagesEEG,001,201639,
AFNE01.JPG,AFNE01.JPG,AFNE01.JPG,AFNE01.JPG,AFNE01.JPG,AFNE01.JPG,,,,,,,,,,,,,,,,,1,9,19,9,,,,,,,AFSA11.jpg,AFNE12.jpg,AFSA13.jpg,AFNE01.jpg,AFSA11.jpg,FS,4,num_8,16,num_8,0.966764331824,,,2017_Oct_19_1122,60.0176137701,FEMA4ImagesEEG,001,201639,
AFNE01.JPG,AFNE01.JPG,AFNE01.JPG,AFNE01.JPG,AFNE01.JPG,AFNE01.JPG,,,,,,,,,,,,,,,,,2,0,20,0,,,,,,,AFNE18.jpg,AFNE10.jpg,AFSA16.jpg,AFSA15.jpg,AFNE18.jpg,FN,3,num_8,32,num_6,1.23343709254,,,2017_Oct_19_1122,60.0176137701,FEMA4ImagesEEG,001,201639,
AFNE01.JPG,AFNE01.JPG,AFNE01.JPG,AFNE01.JPG,AFNE01.JPG,AFNE01.JPG,,,,,,,,,,,,,,,,,2,1,21,8,,,,,,,AFNE20.jpg,AFSA10.jpg,AFNE07.jpg,AFSA03.jpg,AFSA03.jpg,FS,4,num_4,32,num_8,1.15006952028,,,2017_Oct_19_1122,60.0176137701,FEMA4ImagesEEG,001,201639,
AFNE01.JPG,AFNE01.JPG,AFNE01.JPG,AFNE01.JPG,AFNE01.JPG,AFNE01.JPG,,,,,,,,,,,,,,,,,2,2,22,3,,,,,,,AFNE05.jpg,AFSA17.jpg,AFSA18.jpg,AFNE16.jpg,AFSA17.jpg,FS,4,num_6,32,num_8,1.11676104425,,,2017_Oct_19_1122,60.0176137701,FEMA4ImagesEEG,001,201639,
AFNE01.JPG,AFNE01.JPG,AFNE01.JPG,AFNE01.JPG,AFNE01.JPG,AFNE01.JPG,,,,,,,,,,,,,,,,,2,3,23,5,,,,,,,AFSA11.jpg,AFNE05.jpg,AFNE02.jpg,AFSA16.jpg,AFSA11.jpg,FS,4,num_8,16,num_8,0.750109291985,,,2017_Oct_19_1122,60.0176137701,FEMA4ImagesEEG,001,201639,
AFNE01.JPG,AFNE01.JPG,AFNE01.JPG,AFNE01.JPG,AFNE01.JPG,AFNE01.JPG,,,,,,,,,,,,,,,,,2,4,24,2,,,,,,,AFNE01.jpg,AFNE15.jpg,AFSA15.jpg,AFSA01.jpg,AFNE15.jpg,FN,3,num_6,16,num_6,0.833477826469,,,2017_Oct_19_1122,60.0176137701,FEMA4ImagesEEG,001,201639,
AFNE01.JPG,AFNE01.JPG,AFNE01.JPG,AFNE01.JPG,AFNE01.JPG,AFNE01.JPG,,,,,,,,,,,,,,,,,2,5,25,6,,,,,,,AFSA06.jpg,AFNE03.jpg,AFSA11.jpg,AFNE09.jpg,AFSA06.jpg,FS,4,num_8,32,num_6,1.61681348519,,,2017_Oct_19_1122,60.0176137701,FEMA4ImagesEEG,001,201639,
AFNE01.JPG,AFNE01.JPG,AFNE01.JPG,AFNE01.JPG,AFNE01.JPG,AFNE01.JPG,,,,,,,,,,,,,,,,,2,6,26,4,,,,,,,AFSA17.jpg,AFSA16.jpg,AFNE11.jpg,AFNE09.jpg,AFNE09.jpg,FN,3,num_4,16,num_4,1.03349482568,,,2017_Oct_19_1122,60.0176137701,FEMA4ImagesEEG,001,201639,
AFNE01.JPG,AFNE01.JPG,AFNE01.JPG,AFNE01.JPG,AFNE01.JPG,AFNE01.JPG,,,,,,,,,,,,,,,,,2,7,27,1,,,,,,,AFSA20.jpg,AFSA01.jpg,AFNE20.jpg,AFNE14.jpg,AFSA20.jpg,FS,4,num_8,32,num_6,0.683464435599,,,2017_Oct_19_1122,60.0176137701,FEMA4ImagesEEG,001,201639,
AFNE01.JPG,AFNE01.JPG,AFNE01.JPG,AFNE01.JPG,AFNE01.JPG,AFNE01.JPG,,,,,,,,,,,,,,,,,2,8,28,7,,,,,,,AFSA17.jpg,AFSA19.jpg,AFNE11.jpg,AFNE13.jpg,AFNE11.jpg,FN,3,num_2,16,num_2,0.666808754264,,,2017_Oct_19_1122,60.0176137701,FEMA4ImagesEEG,001,201639,
AFNE01.JPG,AFNE01.JPG,AFNE01.JPG,AFNE01.JPG,AFNE01.JPG,AFNE01.JPG,,,,,,,,,,,,,,,,,2,9,29,9,,,,,,,AFSA06.jpg,AFNE12.jpg,AFNE04.jpg,AFSA14.jpg,AFNE04.jpg,FN,3,num_2,32,num_6,0.700119475456,,,2017_Oct_19_1122,60.0176137701,FEMA4ImagesEEG,001,201639,
AFNE01.JPG,AFNE01.JPG,AFNE01.JPG,AFNE01.JPG,AFNE01.JPG,AFNE01.JPG,,,,,,,,,,,,,,,,,3,0,30,3,,,,,,,AFSA04.jpg,AFSA06.jpg,AFNE05.jpg,AFNE13.jpg,AFNE05.jpg,FN,3,num_2,32,num_4,1.00008724115,,,2017_Oct_19_1122,60.0176137701,FEMA4ImagesEEG,001,201639,
AFNE01.JPG,AFNE01.JPG,AFNE01.JPG,AFNE01.JPG,AFNE01.JPG,AFNE01.JPG,,,,,,,,,,,,,,,,,3,1,31,8,,,,,,,AFSA12.jpg,AFNE09.jpg,AFNE17.jpg,AFSA15.jpg,AFNE09.jpg,FN,3,num_6,32,num_8,1.16691700384,,,2017_Oct_19_1122,60.0176137701,FEMA4ImagesEEG,001,201639,
AFNE01.JPG,AFNE01.JPG,AFNE01.JPG,AFNE01.JPG,AFNE01.JPG,AFNE01.JPG,,,,,,,,,,,,,,,,,3,2,32,1,,,,,,,AFSA07.jpg,AFNE11.jpg,AFSA14.jpg,AFNE17.jpg,AFSA14.jpg,FS,4,num_2,32,num_4,1.16677748217,,,2017_Oct_19_1122,60.0176137701,FEMA4ImagesEEG,001,201639,
AFNE01.JPG,AFNE01.JPG,AFNE01.JPG,AFNE01.JPG,AFNE01.JPG,AFNE01.JPG,,,,,,,,,,,,,,,,,3,3,33,6,,,,,,,AFNE06.jpg,AFNE15.jpg,AFSA05.jpg,AFSA16.jpg,AFSA16.jpg,FS,4,num_4,16,num_4,1.06671894723,,,2017_Oct_19_1122,60.0176137701,FEMA4ImagesEEG,001,201639,
AFNE01.JPG,AFNE01.JPG,AFNE01.JPG,AFNE01.JPG,AFNE01.JPG,AFNE01.JPG,,,,,,,,,,,,,,,,,3,4,34,7,,,,,,,AFNE19.jpg,AFSA06.jpg,AFNE13.jpg,AFSA18.jpg,AFSA18.jpg,FS,4,num_4,32,num_6,1.26674364414,,,2017_Oct_19_1122,60.0176137701,FEMA4ImagesEEG,001,201639,
AFNE01.JPG,AFNE01.JPG,AFNE01.JPG,AFNE01.JPG,AFNE01.JPG,AFNE01.JPG,,,,,,,,,,,,,,,,,3,5,35,5,,,,,,,AFNE13.jpg,AFSA11.jpg,AFSA06.jpg,AFNE14.jpg,AFNE13.jpg,FN,3,num_8,16,num_8,0.716783496027,,,2017_Oct_19_1122,60.0176137701,FEMA4ImagesEEG,001,201639,
AFNE01.JPG,AFNE01.JPG,AFNE01.JPG,AFNE01.JPG,AFNE01.JPG,AFNE01.JPG,,,,,,,,,,,,,,,,,3,6,36,4,,,,,,,AFSA08.jpg,AFSA03.jpg,AFNE08.jpg,AFNE01.jpg,AFSA08.jpg,FS,4,num_8,32,num_6,1.65019701421,,,2017_Oct_19_1122,60.0176137701,FEMA4ImagesEEG,001,201639,
AFNE01.JPG,AFNE01.JPG,AFNE01.JPG,AFNE01.JPG,AFNE01.JPG,AFNE01.JPG,,,,,,,,,,,,,,,,,3,7,37,0,,,,,,,AFSA15.jpg,AFNE04.jpg,AFSA13.jpg,AFNE17.jpg,AFNE04.jpg,FN,3,num_6,16,num_6,0.800113541802,,,2017_Oct_19_1122,60.0176137701,FEMA4ImagesEEG,001,201639,
AFNE01.JPG,AFNE01.JPG,AFNE01.JPG,AFNE01.JPG,AFNE01.JPG,AFNE01.JPG,,,,,,,,,,,,,,,,,3,8,38,9,,,,,,,AFSA02.jpg,AFSA03.jpg,AFNE17.jpg,AFNE15.jpg,AFSA03.jpg,FS,4,num_6,32,num_2,0.766756313358,,,2017_Oct_19_1122,60.0176137701,FEMA4ImagesEEG,001,201639,
AFNE01.JPG,AFNE01.JPG,AFNE01.JPG,AFNE01.JPG,AFNE01.JPG,AFNE01.JPG,,,,,,,,,,,,,,,,,3,9,39,2,,,,,,,AFNE16.jpg,AFSA12.jpg,AFNE18.jpg,AFSA15.jpg,AFSA12.jpg,FS,4,num_6,16,num_6,0.900082269683,,,2017_Oct_19_1122,60.0176137701,FEMA4ImagesEEG,001,201639,
AFNE01.JPG,AFNE01.JPG,AFNE01.JPG,AFNE01.JPG,AFNE01.JPG,AFNE01.JPG,,,,,,,,,,,,,,,,,4,0,40,0,,,,,,,AFNE16.jpg,AFSA02.jpg,AFSA03.jpg,AFNE17.jpg,AFSA03.jpg,FS,4,num_2,16,num_2,0.800130540971,,,2017_Oct_19_1122,60.0176137701,FEMA4ImagesEEG,001,201639,
AFNE01.JPG,AFNE01.JPG,AFNE01.JPG,AFNE01.JPG,AFNE01.JPG,AFNE01.JPG,,,,,,,,,,,,,,,,,4,1,41,7,,,,,,,AFSA20.jpg,AFNE17.jpg,AFNE19.jpg,AFSA02.jpg,AFSA20.jpg,FS,4,num_8,32,num_6,0.783474859636,,,2017_Oct_19_1122,60.0176137701,FEMA4ImagesEEG,001,201639,
AFNE01.JPG,AFNE01.JPG,AFNE01.JPG,AFNE01.JPG,AFNE01.JPG,AFNE01.JPG,,,,,,,,,,,,,,,,,4,2,42,8,,,,,,,AFNE16.jpg,AFNE15.jpg,AFSA08.jpg,AFSA14.jpg,AFNE16.jpg,FN,3,num_8,16,num_8,0.867042252619,,,2017_Oct_19_1122,60.0176137701,FEMA4ImagesEEG,001,201639,
AFNE01.JPG,AFNE01.JPG,AFNE01.JPG,AFNE01.JPG,AFNE01.JPG,AFNE01.JPG,,,,,,,,,,,,,,,,,4,3,43,1,,,,,,,AFSA10.jpg,AFNE16.jpg,AFNE10.jpg,AFSA17.jpg,AFNE16.jpg,FN,3,num_6,16,num_6,1.00013406909,,,2017_Oct_19_1122,60.0176137701,FEMA4ImagesEEG,001,201639,
AFNE01.JPG,AFNE01.JPG,AFNE01.JPG,AFNE01.JPG,AFNE01.JPG,AFNE01.JPG,,,,,,,,,,,,,,,,,4,4,44,3,,,,,,,AFNE19.jpg,AFSA14.jpg,AFSA20.jpg,AFNE13.jpg,AFNE13.jpg,FN,3,num_4,16,num_4,1.03341079192,,,2017_Oct_19_1122,60.0176137701,FEMA4ImagesEEG,001,201639,
AFNE01.JPG,AFNE01.JPG,AFNE01.JPG,AFNE01.JPG,AFNE01.JPG,AFNE01.JPG,,,,,,,,,,,,,,,,,4,5,45,2,,,,,,,AFSA05.jpg,AFNE10.jpg,AFSA17.jpg,AFNE07.jpg,AFNE10.jpg,FN,3,num_6,16,num_6,0.650152110698,,,2017_Oct_19_1122,60.0176137701,FEMA4ImagesEEG,001,201639,
AFNE01.JPG,AFNE01.JPG,AFNE01.JPG,AFNE01.JPG,AFNE01.JPG,AFNE01.JPG,,,,,,,,,,,,,,,,,4,6,46,4,,,,,,,AFNE06.jpg,AFNE16.jpg,AFSA01.jpg,AFSA18.jpg,AFNE16.jpg,FN,3,num_6,16,num_6,0.983532272017,,,2017_Oct_19_1122,60.0176137701,FEMA4ImagesEEG,001,201639,
AFNE01.JPG,AFNE01.JPG,AFNE01.JPG,AFNE01.JPG,AFNE01.JPG,AFNE01.JPG,,,,,,,,,,,,,,,,,4,7,47,6,,,,,,,AFSA12.jpg,AFSA17.jpg,AFNE19.jpg,AFNE14.jpg,AFNE14.jpg,FN,3,num_4,32,num_8,1.18348865141,,,2017_Oct_19_1122,60.0176137701,FEMA4ImagesEEG,001,201639,
AFNE01.JPG,AFNE01.JPG,AFNE01.JPG,AFNE01.JPG,AFNE01.JPG,AFNE01.JPG,,,,,,,,,,,,,,,,,4,8,48,9,,,,,,,AFSA19.jpg,AFNE04.jpg,AFNE01.jpg,AFSA04.jpg,AFSA19.jpg,FS,4,num_8,32,num_2,1.13342795148,,,2017_Oct_19_1122,60.0176137701,FEMA4ImagesEEG,001,201639,
AFNE01.JPG,AFNE01.JPG,AFNE01.JPG,AFNE01.JPG,AFNE01.JPG,AFNE01.JPG,,,,,,,,,,,,,,,,,4,9,49,5,,,,,,,AFNE16.jpg,AFSA11.jpg,AFSA20.jpg,AFNE11.jpg,AFNE16.jpg,FN,3,num_8,16,num_8,1.36671878683,,,2017_Oct_19_1122,60.0176137701,FEMA4ImagesEEG,001,201639,
AFNE01.JPG,AFNE01.JPG,AFNE01.JPG,AFNE01.JPG,AFNE01.JPG,AFNE01.JPG,,,,,,,,,,,,,,,,,5,0,50,3,,,,,,,AFSA18.jpg,AFSA14.jpg,AFNE13.jpg,AFNE11.jpg,AFSA14.jpg,FS,4,num_6,16,num_6,0.566782293259,,,2017_Oct_19_1122,60.0176137701,FEMA4ImagesEEG,001,201639,
AFNE01.JPG,AFNE01.JPG,AFNE01.JPG,AFNE01.JPG,AFNE01.JPG,AFNE01.JPG,,,,,,,,,,,,,,,,,5,1,51,5,,,,,,,AFNE07.jpg,AFSA09.jpg,AFSA02.jpg,AFNE18.jpg,AFNE07.jpg,FN,3,num_8,16,num_8,1.15005797369,,,2017_Oct_19_1122,60.0176137701,FEMA4ImagesEEG,001,201639,
AFNE01.JPG,AFNE01.JPG,AFNE01.JPG,AFNE01.JPG,AFNE01.JPG,AFNE01.JPG,,,,,,,,,,,,,,,,,5,2,52,6,,,,,,,AFSA13.jpg,AFNE14.jpg,AFNE15.jpg,AFSA20.jpg,AFSA13.jpg,FS,4,num_8,16,num_8,0.450112659746,,,2017_Oct_19_1122,60.0176137701,FEMA4ImagesEEG,001,201639,
AFNE01.JPG,AFNE01.JPG,AFNE01.JPG,AFNE01.JPG,AFNE01.JPG,AFNE01.JPG,,,,,,,,,,,,,,,,,5,3,53,9,,,,,,,AFNE17.jpg,AFSA20.jpg,AFSA13.jpg,AFNE11.jpg,AFSA13.jpg,FS,4,num_2,32,num_4,1.23341752746,,,2017_Oct_19_1122,60.0176137701,FEMA4ImagesEEG,001,201639,
AFNE01.JPG,AFNE01.JPG,AFNE01.JPG,AFNE01.JPG,AFNE01.JPG,AFNE01.JPG,,,,,,,,,,,,,,,,,5,4,54,4,,,,,,,AFNE18.jpg,AFNE04.jpg,AFSA20.jpg,AFSA09.jpg,AFNE04.jpg,FN,3,num_6,32,num_2,0.933483118657,,,2017_Oct_19_1122,60.0176137701,FEMA4ImagesEEG,001,201639,
AFNE01.JPG,AFNE01.JPG,AFNE01.JPG,AFNE01.JPG,AFNE01.JPG,AFNE01.JPG,,,,,,,,,,,,,,,,,5,5,55,1,,,,,,,AFSA19.jpg,AFNE14.jpg,AFNE01.jpg,AFSA11.jpg,AFNE14.jpg,FN,3,num_6,32,num_8,0.866835375666,,,2017_Oct_19_1122,60.0176137701,FEMA4ImagesEEG,001,201639,
AFNE01.JPG,AFNE01.JPG,AFNE01.JPG,AFNE01.JPG,AFNE01.JPG,AFNE01.JPG,,,,,,,,,,,,,,,,,5,6,56,8,,,,,,,AFSA11.jpg,AFNE18.jpg,AFNE10.jpg,AFSA01.jpg,AFSA11.jpg,FS,4,num_8,16,num_8,0.850084755424,,,2017_Oct_19_1122,60.0176137701,FEMA4ImagesEEG,001,201639,
AFNE01.JPG,AFNE01.JPG,AFNE01.JPG,AFNE01.JPG,AFNE01.JPG,AFNE01.JPG,,,,,,,,,,,,,,,,,5,7,57,7,,,,,,,AFNE12.jpg,AFSA16.jpg,AFSA17.jpg,AFNE18.jpg,AFNE12.jpg,FN,3,num_8,16,num_8,0.733468364662,,,2017_Oct_19_1122,60.0176137701,FEMA4ImagesEEG,001,201639,
AFNE01.JPG,AFNE01.JPG,AFNE01.JPG,AFNE01.JPG,AFNE01.JPG,AFNE01.JPG,,,,,,,,,,,,,,,,,5,8,58,0,,,,,,,AFNE16.jpg,AFSA07.jpg,AFSA17.jpg,AFNE19.jpg,AFNE16.jpg,FN,3,num_8,32,num_4,1.56676850148,,,2017_Oct_19_1122,60.0176137701,FEMA4ImagesEEG,001,201639,
AFNE01.JPG,AFNE01.JPG,AFNE01.JPG,AFNE01.JPG,AFNE01.JPG,AFNE01.JPG,,,,,,,,,,,,,,,,,5,9,59,2,,,,,,,AFNE19.jpg,AFSA02.jpg,AFNE07.jpg,AFSA17.jpg,AFSA17.jpg,FS,4,num_4,16,num_4,1.50005885569,,,2017_Oct_19_1122,60.0176137701,FEMA4ImagesEEG,001,201639,
,,,,,,,,,,,,,,,,,,,,,,,,,,,,,,,,,,,,,,,,,,,space,8.74951816909,2017_Oct_19_1122,60.0176137701,FEMA4ImagesEEG,001,201639,
AFNE01.JPG,AFNE01.JPG,AFNE01.JPG,AFNE01.JPG,AFNE01.JPG,AFNE01.JPG,,,,,,,,,,,,,,,,,,,,,0,0,0,2,,,AMNE11.jpg,AMNE19.jpg,AMSA04.jpg,AMSA03.jpg,AMNE19.jpg,MN,1,num_6,16,num_6,0.783487047738,,,2017_Oct_19_1122,60.0176137701,FEMA4ImagesEEG,001,201639,
AFNE01.JPG,AFNE01.JPG,AFNE01.JPG,AFNE01.JPG,AFNE01.JPG,AFNE01.JPG,,,,,,,,,,,,,,,,,,,,,0,1,1,3,,,AMNE01.jpg,AMNE03.jpg,AMSA03.jpg,AMSA18.jpg,AMNE01.jpg,MN,1,num_8,16,num_8,0.699997594435,,,2017_Oct_19_1122,60.0176137701,FEMA4ImagesEEG,001,201639,
AFNE01.JPG,AFNE01.JPG,AFNE01.JPG,AFNE01.JPG,AFNE01.JPG,AFNE01.JPG,,,,,,,,,,,,,,,,,,,,,0,2,2,7,,,AMSA01.jpg,AMSA08.jpg,AMNE16.jpg,AMNE05.jpg,AMSA08.jpg,MS,2,num_6,16,num_6,1.10021377288,,,2017_Oct_19_1122,60.0176137701,FEMA4ImagesEEG,001,201639,
AFNE01.JPG,AFNE01.JPG,AFNE01.JPG,AFNE01.JPG,AFNE01.JPG,AFNE01.JPG,,,,,,,,,,,,,,,,,,,,,0,3,3,8,,,AMSA01.jpg,AMNE05.jpg,AMSA10.jpg,AMNE13.jpg,AMSA01.jpg,MS,2,num_8,16,num_8,0.867074647307,,,2017_Oct_19_1122,60.0176137701,FEMA4ImagesEEG,001,201639,
AFNE01.JPG,AFNE01.JPG,AFNE01.JPG,AFNE01.JPG,AFNE01.JPG,AFNE01.JPG,,,,,,,,,,,,,,,,,,,,,0,4,4,0,,,AMSA20.jpg,AMNE06.jpg,AMSA19.jpg,AMNE05.jpg,AMSA19.jpg,MS,2,num_2,32,num_8,1.16673289938,,,2017_Oct_19_1122,60.0176137701,FEMA4ImagesEEG,001,201639,
AFNE01.JPG,AFNE01.JPG,AFNE01.JPG,AFNE01.JPG,AFNE01.JPG,AFNE01.JPG,,,,,,,,,,,,,,,,,,,,,0,5,5,6,,,AMNE01.jpg,AMSA05.jpg,AMSA09.jpg,AMNE10.jpg,AMSA09.jpg,MS,2,num_2,32,num_4,1.40012123951,,,2017_Oct_19_1122,60.0176137701,FEMA4ImagesEEG,001,201639,
AFNE01.JPG,AFNE01.JPG,AFNE01.JPG,AFNE01.JPG,AFNE01.JPG,AFNE01.JPG,,,,,,,,,,,,,,,,,,,,,0,6,6,5,,,AMSA11.jpg,AMSA03.jpg,AMNE19.jpg,AMNE16.jpg,AMSA03.jpg,MS,2,num_6,16,num_6,0.833457619883,,,2017_Oct_19_1122,60.0176137701,FEMA4ImagesEEG,001,201639,
AFNE01.JPG,AFNE01.JPG,AFNE01.JPG,AFNE01.JPG,AFNE01.JPG,AFNE01.JPG,,,,,,,,,,,,,,,,,,,,,0,7,7,1,,,AMNE02.jpg,AMSA16.jpg,AMSA11.jpg,AMNE07.jpg,AMNE07.jpg,MN,1,num_4,16,num_4,0.933435007755,,,2017_Oct_19_1122,60.0176137701,FEMA4ImagesEEG,001,201639,
AFNE01.JPG,AFNE01.JPG,AFNE01.JPG,AFNE01.JPG,AFNE01.JPG,AFNE01.JPG,,,,,,,,,,,,,,,,,,,,,0,8,8,9,,,AMNE06.jpg,AMSA06.jpg,AMSA12.jpg,AMNE15.jpg,AMSA06.jpg,MS,2,num_6,16,num_6,0.833454091742,,,2017_Oct_19_1122,60.0176137701,FEMA4ImagesEEG,001,201639,
AFNE01.JPG,AFNE01.JPG,AFNE01.JPG,AFNE01.JPG,AFNE01.JPG,AFNE01.JPG,,,,,,,,,,,,,,,,,,,,,0,9,9,4,,,AMSA10.jpg,AMNE05.jpg,AMNE01.jpg,AMSA02.jpg,AMNE01.jpg,MN,1,num_2,16,num_2,1.33342442336,,,2017_Oct_19_1122,60.0176137701,FEMA4ImagesEEG,001,201639,
AFNE01.JPG,AFNE01.JPG,AFNE01.JPG,AFNE01.JPG,AFNE01.JPG,AFNE01.JPG,,,,,,,,,,,,,,,,,,,,,1,0,10,0,,,AMNE19.jpg,AMSA10.jpg,AMSA04.jpg,AMNE08.jpg,AMNE08.jpg,MN,1,num_4,32,num_6,1.15008299134,,,2017_Oct_19_1122,60.0176137701,FEMA4ImagesEEG,001,201639,
AFNE01.JPG,AFNE01.JPG,AFNE01.JPG,AFNE01.JPG,AFNE01.JPG,AFNE01.JPG,,,,,,,,,,,,,,,,,,,,,1,1,11,1,,,AMSA11.jpg,AMSA02.jpg,AMNE15.jpg,AMNE09.jpg,AMNE09.jpg,MN,1,num_4,32,num_8,1.03341111267,,,2017_Oct_19_1122,60.0176137701,FEMA4ImagesEEG,001,201639,
AFNE01.JPG,AFNE01.JPG,AFNE01.JPG,AFNE01.JPG,AFNE01.JPG,AFNE01.JPG,,,,,,,,,,,,,,,,,,,,,1,2,12,9,,,AMSA18.jpg,AMSA12.jpg,AMNE19.jpg,AMNE15.jpg,AMNE15.jpg,MN,1,num_4,16,num_4,1.00010007073,,,2017_Oct_19_1122,60.0176137701,FEMA4ImagesEEG,001,201639,
AFNE01.JPG,AFNE01.JPG,AFNE01.JPG,AFNE01.JPG,AFNE01.JPG,AFNE01.JPG,,,,,,,,,,,,,,,,,,,,,1,3,13,4,,,AMSA11.jpg,AMNE18.jpg,AMSA05.jpg,AMNE05.jpg,AMSA05.jpg,MS,2,num_2,16,num_2,0.983448238258,,,2017_Oct_19_1122,60.0176137701,FEMA4ImagesEEG,001,201639,
AFNE01.JPG,AFNE01.JPG,AFNE01.JPG,AFNE01.JPG,AFNE01.JPG,AFNE01.JPG,,,,,,,,,,,,,,,,,,,,,1,4,14,5,,,AMNE01.jpg,AMSA10.jpg,AMNE10.jpg,AMSA06.jpg,AMSA10.jpg,MS,2,num_6,32,num_8,0.916786382673,,,2017_Oct_19_1122,60.0176137701,FEMA4ImagesEEG,001,201639,
AFNE01.JPG,AFNE01.JPG,AFNE01.JPG,AFNE01.JPG,AFNE01.JPG,AFNE01.JPG,,,,,,,,,,,,,,,,,,,,,1,5,15,6,,,AMNE05.jpg,AMSA05.jpg,AMSA18.jpg,AMNE02.jpg,AMSA05.jpg,MS,2,num_6,32,num_8,0.750165742123,,,2017_Oct_19_1122,60.0176137701,FEMA4ImagesEEG,001,201639,
AFNE01.JPG,AFNE01.JPG,AFNE01.JPG,AFNE01.JPG,AFNE01.JPG,AFNE01.JPG,,,,,,,,,,,,,,,,,,,,,1,6,16,7,,,AMNE04.jpg,AMSA12.jpg,AMNE09.jpg,AMSA17.jpg,AMNE04.jpg,MN,1,num_8,32,num_4,0.95028024615,,,2017_Oct_19_1122,60.0176137701,FEMA4ImagesEEG,001,201639,
AFNE01.JPG,AFNE01.JPG,AFNE01.JPG,AFNE01.JPG,AFNE01.JPG,AFNE01.JPG,,,,,,,,,,,,,,,,,,,,,1,7,17,2,,,AMNE11.jpg,AMSA02.jpg,AMSA14.jpg,AMNE10.jpg,AMSA02.jpg,MS,2,num_6,16,num_6,0.666753907804,,,2017_Oct_19_1122,60.0176137701,FEMA4ImagesEEG,001,201639,
AFNE01.JPG,AFNE01.JPG,AFNE01.JPG,AFNE01.JPG,AFNE01.JPG,AFNE01.JPG,,,,,,,,,,,,,,,,,,,,,1,8,18,3,,,AMSA17.jpg,AMNE03.jpg,AMSA19.jpg,AMNE02.jpg,AMNE02.jpg,MN,1,num_4,16,num_4,1.05013318709,,,2017_Oct_19_1122,60.0176137701,FEMA4ImagesEEG,001,201639,
AFNE01.JPG,AFNE01.JPG,AFNE01.JPG,AFNE01.JPG,AFNE01.JPG,AFNE01.JPG,,,,,,,,,,,,,,,,,,,,,1,9,19,8,,,AMNE11.jpg,AMSA11.jpg,AMNE18.jpg,AMSA12.jpg,AMSA12.jpg,MS,2,num_4,32,num_2,1.08361903206,,,2017_Oct_19_1122,60.0176137701,FEMA4ImagesEEG,001,201639,
AFNE01.JPG,AFNE01.JPG,AFNE01.JPG,AFNE01.JPG,AFNE01.JPG,AFNE01.JPG,,,,,,,,,,,,,,,,,,,,,2,0,20,6,,,AMNE02.jpg,AMSA15.jpg,AMNE04.jpg,AMSA04.jpg,AMSA15.jpg,MS,2,num_6,16,num_6,0.683474378515,,,2017_Oct_19_1122,60.0176137701,FEMA4ImagesEEG,001,201639,
AFNE01.JPG,AFNE01.JPG,AFNE01.JPG,AFNE01.JPG,AFNE01.JPG,AFNE01.JPG,,,,,,,,,,,,,,,,,,,,,2,1,21,9,,,AMSA08.jpg,AMSA02.jpg,AMNE16.jpg,AMNE11.jpg,AMSA08.jpg,MS,2,num_8,16,num_8,1.58339788218,,,2017_Oct_19_1122,60.0176137701,FEMA4ImagesEEG,001,201639,
AFNE01.JPG,AFNE01.JPG,AFNE01.JPG,AFNE01.JPG,AFNE01.JPG,AFNE01.JPG,,,,,,,,,,,,,,,,,,,,,2,2,22,3,,,AMSA20.jpg,AMSA01.jpg,AMNE14.jpg,AMNE16.jpg,AMSA01.jpg,MS,2,num_6,32,num_2,1.15010480164,,,2017_Oct_19_1122,60.0176137701,FEMA4ImagesEEG,001,201639,
AFNE01.JPG,AFNE01.JPG,AFNE01.JPG,AFNE01.JPG,AFNE01.JPG,AFNE01.JPG,,,,,,,,,,,,,,,,,,,,,2,3,23,1,,,AMSA18.jpg,AMNE17.jpg,AMNE10.jpg,AMSA17.jpg,AMNE10.jpg,MN,1,num_2,16,num_2,0.950139762223,,,2017_Oct_19_1122,60.0176137701,FEMA4ImagesEEG,001,201639,
AFNE01.JPG,AFNE01.JPG,AFNE01.JPG,AFNE01.JPG,AFNE01.JPG,AFNE01.JPG,,,,,,,,,,,,,,,,,,,,,2,4,24,2,,,AMNE11.jpg,AMNE19.jpg,AMSA19.jpg,AMSA18.jpg,AMSA19.jpg,MS,2,num_2,32,num_8,1.18345689823,,,2017_Oct_19_1122,60.0176137701,FEMA4ImagesEEG,001,201639,
AFNE01.JPG,AFNE01.JPG,AFNE01.JPG,AFNE01.JPG,AFNE01.JPG,AFNE01.JPG,,,,,,,,,,,,,,,,,,,,,2,5,25,8,,,AMNE20.jpg,AMSA01.jpg,AMSA15.jpg,AMNE18.jpg,AMSA15.jpg,MS,2,num_2,16,num_2,0.917123159161,,,2017_Oct_19_1122,60.0176137701,FEMA4ImagesEEG,001,201639,
AFNE01.JPG,AFNE01.JPG,AFNE01.JPG,AFNE01.JPG,AFNE01.JPG,AFNE01.JPG,,,,,,,,,,,,,,,,,,,,,2,6,26,4,,,AMSA13.jpg,AMNE13.jpg,AMSA16.jpg,AMNE11.jpg,AMSA13.jpg,MS,2,num_8,32,num_2,2.21663387105,,,2017_Oct_19_1122,60.0176137701,FEMA4ImagesEEG,001,201639,
AFNE01.JPG,AFNE01.JPG,AFNE01.JPG,AFNE01.JPG,AFNE01.JPG,AFNE01.JPG,,,,,,,,,,,,,,,,,,,,,2,7,27,5,,,AMNE08.jpg,AMSA09.jpg,AMNE06.jpg,AMSA16.jpg,AMSA09.jpg,MS,2,num_6,32,num_8,2.03340181123,,,2017_Oct_19_1122,60.0176137701,FEMA4ImagesEEG,001,201639,
AFNE01.JPG,AFNE01.JPG,AFNE01.JPG,AFNE01.JPG,AFNE01.JPG,AFNE01.JPG,,,,,,,,,,,,,,,,,,,,,2,8,28,7,,,AMSA20.jpg,AMSA05.jpg,AMNE11.jpg,AMNE05.jpg,AMSA05.jpg,MS,2,num_6,32,num_4,1.01674035657,,,2017_Oct_19_1122,60.0176137701,FEMA4ImagesEEG,001,201639,
AFNE01.JPG,AFNE01.JPG,AFNE01.JPG,AFNE01.JPG,AFNE01.JPG,AFNE01.JPG,,,,,,,,,,,,,,,,,,,,,2,9,29,0,,,AMNE18.jpg,AMSA03.jpg,AMSA11.jpg,AMNE09.jpg,AMSA03.jpg,MS,2,num_6,16,num_6,0.500038007624,,,2017_Oct_19_1122,60.0176137701,FEMA4ImagesEEG,001,201639,
AFNE01.JPG,AFNE01.JPG,AFNE01.JPG,AFNE01.JPG,AFNE01.JPG,AFNE01.JPG,,,,,,,,,,,,,,,,,,,,,3,0,30,4,,,AMNE06.jpg,AMSA10.jpg,AMNE01.jpg,AMSA17.jpg,AMNE01.jpg,MN,1,num_2,16,num_2,1.08360973059,,,2017_Oct_19_1122,60.0176137701,FEMA4ImagesEEG,001,201639,
AFNE01.JPG,AFNE01.JPG,AFNE01.JPG,AFNE01.JPG,AFNE01.JPG,AFNE01.JPG,,,,,,,,,,,,,,,,,,,,,3,1,31,7,,,AMNE16.jpg,AMNE04.jpg,AMSA12.jpg,AMSA08.jpg,AMNE16.jpg,MN,1,num_8,16,num_8,0.650115867145,,,2017_Oct_19_1122,60.0176137701,FEMA4ImagesEEG,001,201639,
AFNE01.JPG,AFNE01.JPG,AFNE01.JPG,AFNE01.JPG,AFNE01.JPG,AFNE01.JPG,,,,,,,,,,,,,,,,,,,,,3,2,32,9,,,AMSA04.jpg,AMNE09.jpg,AMNE01.jpg,AMSA09.jpg,AMNE01.jpg,MN,1,num_2,16,num_2,1.03342586668,,,2017_Oct_19_1122,60.0176137701,FEMA4ImagesEEG,001,201639,
AFNE01.JPG,AFNE01.JPG,AFNE01.JPG,AFNE01.JPG,AFNE01.JPG,AFNE01.JPG,,,,,,,,,,,,,,,,,,,,,3,3,33,6,,,AMSA11.jpg,AMNE16.jpg,AMNE03.jpg,AMSA08.jpg,AMNE16.jpg,MN,1,num_6,16,num_6,0.800130861724,,,2017_Oct_19_1122,60.0176137701,FEMA4ImagesEEG,001,201639,
AFNE01.JPG,AFNE01.JPG,AFNE01.JPG,AFNE01.JPG,AFNE01.JPG,AFNE01.JPG,,,,,,,,,,,,,,,,,,,,,3,4,34,5,,,AMSA20.jpg,AMNE19.jpg,AMNE05.jpg,AMSA15.jpg,AMNE19.jpg,MN,1,num_6,32,num_8,0.899903938523,,,2017_Oct_19_1122,60.0176137701,FEMA4ImagesEEG,001,201639,
AFNE01.JPG,AFNE01.JPG,AFNE01.JPG,AFNE01.JPG,AFNE01.JPG,AFNE01.JPG,,,,,,,,,,,,,,,,,,,,,3,5,35,3,,,AMNE13.jpg,AMNE16.jpg,AMSA06.jpg,AMSA11.jpg,AMSA06.jpg,MS,2,num_2,16,num_2,1.06675903965,,,2017_Oct_19_1122,60.0176137701,FEMA4ImagesEEG,001,201639,
AFNE01.JPG,AFNE01.JPG,AFNE01.JPG,AFNE01.JPG,AFNE01.JPG,AFNE01.JPG,,,,,,,,,,,,,,,,,,,,,3,6,36,8,,,AMSA11.jpg,AMNE17.jpg,AMSA07.jpg,AMNE15.jpg,AMSA11.jpg,MS,2,num_8,16,num_8,0.683503245091,,,2017_Oct_19_1122,60.0176137701,FEMA4ImagesEEG,001,201639,
AFNE01.JPG,AFNE01.JPG,AFNE01.JPG,AFNE01.JPG,AFNE01.JPG,AFNE01.JPG,,,,,,,,,,,,,,,,,,,,,3,7,37,2,,,AMNE11.jpg,AMSA01.jpg,AMSA09.jpg,AMNE15.jpg,AMSA09.jpg,MS,2,num_2,16,num_2,0.883475340728,,,2017_Oct_19_1122,60.0176137701,FEMA4ImagesEEG,001,201639,
AFNE01.JPG,AFNE01.JPG,AFNE01.JPG,AFNE01.JPG,AFNE01.JPG,AFNE01.JPG,,,,,,,,,,,,,,,,,,,,,3,8,38,1,,,AMNE14.jpg,AMSA01.jpg,AMSA17.jpg,AMNE04.jpg,AMNE04.jpg,MN,1,num_4,32,num_6,1.05007128435,,,2017_Oct_19_1122,60.0176137701,FEMA4ImagesEEG,001,201639,
