IPosition2,IPosition3,IPosition1,IPosition6,IPosition4,IPosition5,TrialsF1.thisRepN,TrialsF1.thisTrialN,TrialsF1.thisN,TrialsF1.thisIndex,TrialsM1.thisRepN,TrialsM1.thisTrialN,TrialsM1.thisN,TrialsM1.thisIndex,TrialsF2.thisRepN,TrialsF2.thisTrialN,TrialsF2.thisN,TrialsF2.thisIndex,TrialsM2.thisRepN,TrialsM2.thisTrialN,TrialsM2.thisN,TrialsM2.thisIndex,TrialsF3.thisRepN,TrialsF3.thisTrialN,TrialsF3.thisN,TrialsF3.thisIndex,TrialsM3.thisRepN,TrialsM3.thisTrialN,TrialsM3.thisN,TrialsM3.thisIndex,InstrKey_resp.keys,InstrKey_resp.rt,Image0 _Position,Image1 _Position,Image2 _Position,Image3 _Position,Center_image,condition,code,correct_answer,accuracy,Key_Resp.keys,Key_Resp.rt,BreakKey_resp.keys,BreakKey_resp.rt,date,frameRate,expName,session,participant,
,,,,,,,,,,,,,,,,,,,,,,,,,,,,,,space,1.98350660756,,,,,,,,,,,,,,2017_Sep_22_1757,60.0065053046,FEMA4ImagesEEG,001,201602,
AMNE23.JPG,AMNE24.JPG,AMNE22.JPG,AMSA24.JPG,AMSA22.JPG,AMSA23.JPG,0,0,0,9,,,,,,,,,,,,,,,,,,,,,,,AFNE04.jpg,AFSA14.jpg,AFSA01.jpg,AFNE08.jpg,AFSA01.jpg,FS,4,num_2,16,num_2,1.08345612314,,,2017_Sep_22_1757,60.0065053046,FEMA4ImagesEEG,001,201602,
AFSA25.JPG,AFNE24.JPG,AFSA24.JPG,AFNE21.JPG,AFSA21.JPG,AFNE25.JPG,0,1,1,2,,,,,,,,,,,,,,,,,,,,,,,AFSA04.jpg,AFNE11.jpg,AFNE19.jpg,AFSA14.jpg,AFSA04.jpg,FS,4,num_8,32,num_2,0.500196292634,,,2017_Sep_22_1757,60.0065053046,FEMA4ImagesEEG,001,201602,
AMSA25.JPG,AMNE24.JPG,AMSA24.JPG,AMNE26.JPG,AMSA21.JPG,AMNE25.JPG,0,2,2,3,,,,,,,,,,,,,,,,,,,,,,,AFNE14.jpg,AFNE20.jpg,AFSA09.jpg,AFSA18.jpg,AFSA18.jpg,FS,4,num_4,32,num_8,1.75008066601,,,2017_Sep_22_1757,60.0065053046,FEMA4ImagesEEG,001,201602,
AMNE22.JPG,AMSA24.JPG,AMSA22.JPG,AMNE25.JPG,AMNE24.JPG,AMSA25.JPG,0,3,3,7,,,,,,,,,,,,,,,,,,,,,,,AFSA07.jpg,AFNE05.jpg,AFNE12.jpg,AFSA09.jpg,AFNE12.jpg,FN,3,num_2,16,num_2,0.500174803083,,,2017_Sep_22_1757,60.0065053046,FEMA4ImagesEEG,001,201602,
AMSA21.JPG,AMNE23.JPG,AMNE21.JPG,AMSA25.JPG,AMNE25.JPG,AMSA23.JPG,0,4,4,5,,,,,,,,,,,,,,,,,,,,,,,AFSA10.jpg,AFNE19.jpg,AFNE15.jpg,AFSA03.jpg,AFSA10.jpg,FS,4,num_8,32,num_4,1.1167229137,,,2017_Sep_22_1757,60.0065053046,FEMA4ImagesEEG,001,201602,
AMSA21.JPG,AMNE22.JPG,AMNE21.JPG,AMSA23.JPG,AMSA22.JPG,AMNE23.JPG,0,5,5,1,,,,,,,,,,,,,,,,,,,,,,,AFSA11.jpg,AFNE01.jpg,AFNE15.jpg,AFSA01.jpg,AFNE01.jpg,FN,3,num_6,32,num_4,1.21679559329,,,2017_Sep_22_1757,60.0065053046,FEMA4ImagesEEG,001,201602,
AFNE22.JPG,AFSA24.JPG,AFSA22.JPG,AFNE25.JPG,AFNE24.JPG,AFSA25.JPG,0,6,6,6,,,,,,,,,,,,,,,,,,,,,,,AFSA11.jpg,AFNE20.jpg,AFSA13.jpg,AFNE05.jpg,AFNE20.jpg,FN,3,num_6,16,num_6,0.83345852869,,,2017_Sep_22_1757,60.0065053046,FEMA4ImagesEEG,001,201602,
AFNE23.JPG,AFNE24.JPG,AFNE22.JPG,AFSA24.JPG,AFSA22.JPG,AFSA23.JPG,0,7,7,8,,,,,,,,,,,,,,,,,,,,,,,AFSA18.jpg,AFNE02.jpg,AFNE19.jpg,AFSA15.jpg,AFNE19.jpg,FN,3,num_2,32,num_8,0.850153024863,,,2017_Sep_22_1757,60.0065053046,FEMA4ImagesEEG,001,201602,
AFSA21.JPG,AFNE22.JPG,AFNE21.JPG,AFSA23.JPG,AFSA22.JPG,AFNE23.JPG,0,8,8,0,,,,,,,,,,,,,,,,,,,,,,,AFNE01.jpg,AFSA18.jpg,AFNE17.jpg,AFSA20.jpg,AFSA20.jpg,FS,4,num_4,32,num_6,1.7666991469,,,2017_Sep_22_1757,60.0065053046,FEMA4ImagesEEG,001,201602,
AFSA21.JPG,AFNE23.JPG,AFNE21.JPG,AFSA25.JPG,AFNE25.JPG,AFSA23.JPG,0,9,9,4,,,,,,,,,,,,,,,,,,,,,,,AFSA09.jpg,AFNE14.jpg,AFSA05.jpg,AFNE16.jpg,AFNE14.jpg,FN,3,num_6,32,num_2,1.11675915728,,,2017_Sep_22_1757,60.0065053046,FEMA4ImagesEEG,001,201602,
AFSA21.JPG,AFNE23.JPG,AFNE21.JPG,AFSA25.JPG,AFNE25.JPG,AFSA23.JPG,,,,,0,0,0,4,,,,,,,,,,,,,,,,,,,AMNE15.jpg,AMSA02.jpg,AMNE04.jpg,AMSA05.jpg,AMSA02.jpg,MS,2,num_6,32,num_2,1.21678629185,,,2017_Sep_22_1757,60.0065053046,FEMA4ImagesEEG,001,201602,
AMSA25.JPG,AMNE24.JPG,AMSA24.JPG,AMNE26.JPG,AMSA21.JPG,AMNE25.JPG,,,,,0,1,1,3,,,,,,,,,,,,,,,,,,,AMNE05.jpg,AMNE03.jpg,AMSA08.jpg,AMSA03.jpg,AMNE05.jpg,MN,1,num_8,32,num_6,0.916795657442,,,2017_Sep_22_1757,60.0065053046,FEMA4ImagesEEG,001,201602,
AMNE22.JPG,AMSA24.JPG,AMSA22.JPG,AMNE25.JPG,AMNE24.JPG,AMSA25.JPG,,,,,0,2,2,7,,,,,,,,,,,,,,,,,,,AMNE13.jpg,AMSA02.jpg,AMSA07.jpg,AMNE19.jpg,AMSA02.jpg,MS,2,num_6,16,num_6,0.433490153615,,,2017_Sep_22_1757,60.0065053046,FEMA4ImagesEEG,001,201602,
AFSA25.JPG,AFNE24.JPG,AFSA24.JPG,AFNE21.JPG,AFSA21.JPG,AFNE25.JPG,,,,,0,3,3,2,,,,,,,,,,,,,,,,,,,AMNE15.jpg,AMSA07.jpg,AMNE11.jpg,AMSA05.jpg,AMNE11.jpg,MN,1,num_2,32,num_4,1.56670389384,,,2017_Sep_22_1757,60.0065053046,FEMA4ImagesEEG,001,201602,
AMSA21.JPG,AMNE23.JPG,AMNE21.JPG,AMSA25.JPG,AMNE25.JPG,AMSA23.JPG,,,,,0,4,4,5,,,,,,,,,,,,,,,,,,,AMSA12.jpg,AMNE10.jpg,AMNE09.jpg,AMSA15.jpg,AMNE10.jpg,MN,1,num_6,16,num_6,1.00012123957,,,2017_Sep_22_1757,60.0065053046,FEMA4ImagesEEG,001,201602,
AMNE23.JPG,AMNE24.JPG,AMNE22.JPG,AMSA24.JPG,AMSA22.JPG,AMSA23.JPG,,,,,0,5,5,9,,,,,,,,,,,,,,,,,,,AMSA13.jpg,AMNE07.jpg,AMSA04.jpg,AMNE06.jpg,AMNE06.jpg,MN,1,num_4,32,num_8,0.966812432123,,,2017_Sep_22_1757,60.0065053046,FEMA4ImagesEEG,001,201602,
AFNE23.JPG,AFNE24.JPG,AFNE22.JPG,AFSA24.JPG,AFSA22.JPG,AFSA23.JPG,,,,,0,6,6,8,,,,,,,,,,,,,,,,,,,AMSA20.jpg,AMNE14.jpg,AMNE03.jpg,AMSA04.jpg,AMNE14.jpg,MN,1,num_6,16,num_6,0.766807236143,,,2017_Sep_22_1757,60.0065053046,FEMA4ImagesEEG,001,201602,
AFSA21.JPG,AFNE22.JPG,AFNE21.JPG,AFSA23.JPG,AFSA22.JPG,AFNE23.JPG,,,,,0,7,7,0,,,,,,,,,,,,,,,,,,,AMNE20.jpg,AMSA10.jpg,AMNE02.jpg,AMSA03.jpg,AMNE02.jpg,MN,1,num_2,16,num_2,1.16678715784,,,2017_Sep_22_1757,60.0065053046,FEMA4ImagesEEG,001,201602,
AFNE22.JPG,AFSA24.JPG,AFSA22.JPG,AFNE25.JPG,AFNE24.JPG,AFSA25.JPG,,,,,0,8,8,6,,,,,,,,,,,,,,,,,,,AMSA15.jpg,AMNE06.jpg,AMSA12.jpg,AMNE11.jpg,AMSA15.jpg,MS,2,num_8,16,num_8,0.933449098946,,,2017_Sep_22_1757,60.0065053046,FEMA4ImagesEEG,001,201602,
AMSA21.JPG,AMNE22.JPG,AMNE21.JPG,AMSA23.JPG,AMSA22.JPG,AMNE23.JPG,,,,,0,9,9,1,,,,,,,,,,,,,,,,,,,AMNE06.jpg,AMNE09.jpg,AMSA19.jpg,AMSA14.jpg,AMSA19.jpg,MS,2,num_2,16,num_2,0.900126499697,,,2017_Sep_22_1757,60.0065053046,FEMA4ImagesEEG,001,201602,
AFSA21.JPG,AFNE23.JPG,AFNE21.JPG,AFSA25.JPG,AFNE25.JPG,AFSA23.JPG,,,,,,,,,0,0,0,4,,,,,,,,,,,,,,,AFNE15.jpg,AFSA20.jpg,AFNE05.jpg,AFSA10.jpg,AFNE05.jpg,FN,3,num_2,32,num_6,0.733478542843,,,2017_Sep_22_1757,60.0065053046,FEMA4ImagesEEG,001,201602,
AMSA21.JPG,AMNE22.JPG,AMNE21.JPG,AMSA23.JPG,AMSA22.JPG,AMNE23.JPG,,,,,,,,,0,1,1,1,,,,,,,,,,,,,,,AFNE07.jpg,AFSA15.jpg,AFNE15.jpg,AFSA17.jpg,AFSA15.jpg,FS,4,num_6,16,num_6,0.483496023149,,,2017_Sep_22_1757,60.0065053046,FEMA4ImagesEEG,001,201602,
AFNE23.JPG,AFNE24.JPG,AFNE22.JPG,AFSA24.JPG,AFSA22.JPG,AFSA23.JPG,,,,,,,,,0,2,2,8,,,,,,,,,,,,,,,AFSA01.jpg,AFSA05.jpg,AFNE14.jpg,AFNE08.jpg,AFSA01.jpg,FS,4,num_8,16,num_8,1.25010953257,,,2017_Sep_22_1757,60.0065053046,FEMA4ImagesEEG,001,201602,
AMNE23.JPG,AMNE24.JPG,AMNE22.JPG,AMSA24.JPG,AMSA22.JPG,AMSA23.JPG,,,,,,,,,0,3,3,9,,,,,,,,,,,,,,,AFNE07.jpg,AFSA20.jpg,AFSA17.jpg,AFNE02.jpg,AFNE07.jpg,FN,3,num_8,16,num_8,1.03346147949,,,2017_Sep_22_1757,60.0065053046,FEMA4ImagesEEG,001,201602,
AFSA21.JPG,AFNE22.JPG,AFNE21.JPG,AFSA23.JPG,AFSA22.JPG,AFNE23.JPG,,,,,,,,,0,4,4,0,,,,,,,,,,,,,,,AFSA12.jpg,AFNE19.jpg,AFNE20.jpg,AFSA08.jpg,AFNE20.jpg,FN,3,num_2,32,num_6,0.733500673874,,,2017_Sep_22_1757,60.0065053046,FEMA4ImagesEEG,001,201602,
AMSA21.JPG,AMNE23.JPG,AMNE21.JPG,AMSA25.JPG,AMNE25.JPG,AMSA23.JPG,,,,,,,,,0,5,5,5,,,,,,,,,,,,,,,AFSA11.jpg,AFNE20.jpg,AFSA07.jpg,AFNE03.jpg,AFSA07.jpg,FS,4,num_2,32,num_6,0.933521906834,,,2017_Sep_22_1757,60.0065053046,FEMA4ImagesEEG,001,201602,
AFNE22.JPG,AFSA24.JPG,AFSA22.JPG,AFNE25.JPG,AFNE24.JPG,AFSA25.JPG,,,,,,,,,0,6,6,6,,,,,,,,,,,,,,,AFSA05.jpg,AFNE12.jpg,AFSA17.jpg,AFNE05.jpg,AFSA05.jpg,FS,4,num_8,32,num_4,2.30003906608,,,2017_Sep_22_1757,60.0065053046,FEMA4ImagesEEG,001,201602,
AMNE22.JPG,AMSA24.JPG,AMSA22.JPG,AMNE25.JPG,AMNE24.JPG,AMSA25.JPG,,,,,,,,,0,7,7,7,,,,,,,,,,,,,,,AFSA05.jpg,AFNE18.jpg,AFSA01.jpg,AFNE19.jpg,AFNE18.jpg,FN,3,num_6,16,num_6,0.833469433837,,,2017_Sep_22_1757,60.0065053046,FEMA4ImagesEEG,001,201602,
AMSA25.JPG,AMNE24.JPG,AMSA24.JPG,AMNE26.JPG,AMSA21.JPG,AMNE25.JPG,,,,,,,,,0,8,8,3,,,,,,,,,,,,,,,AFSA20.jpg,AFNE18.jpg,AFNE14.jpg,AFSA13.jpg,AFNE14.jpg,FN,3,num_2,32,num_6,1.20009660677,,,2017_Sep_22_1757,60.0065053046,FEMA4ImagesEEG,001,201602,
AFSA25.JPG,AFNE24.JPG,AFSA24.JPG,AFNE21.JPG,AFSA21.JPG,AFNE25.JPG,,,,,,,,,0,9,9,2,,,,,,,,,,,,,,,AFSA07.jpg,AFSA16.jpg,AFNE15.jpg,AFNE09.jpg,AFSA16.jpg,FS,4,num_6,16,num_6,0.566818718618,,,2017_Sep_22_1757,60.0065053046,FEMA4ImagesEEG,001,201602,
AFNE23.JPG,AFNE24.JPG,AFNE22.JPG,AFSA24.JPG,AFSA22.JPG,AFSA23.JPG,,,,,,,,,,,,,0,0,0,8,,,,,,,,,,,AMSA16.jpg,AMNE19.jpg,AMNE05.jpg,AMSA13.jpg,AMNE19.jpg,MN,1,num_6,32,num_8,1.31670886531,,,2017_Sep_22_1757,60.0065053046,FEMA4ImagesEEG,001,201602,
AMNE22.JPG,AMSA24.JPG,AMSA22.JPG,AMNE25.JPG,AMNE24.JPG,AMSA25.JPG,,,,,,,,,,,,,0,1,1,7,,,,,,,,,,,AMNE09.jpg,AMSA03.jpg,AMNE05.jpg,AMSA18.jpg,AMNE05.jpg,MN,1,num_2,16,num_2,0.800139778317,,,2017_Sep_22_1757,60.0065053046,FEMA4ImagesEEG,001,201602,
AFSA21.JPG,AFNE22.JPG,AFNE21.JPG,AFSA23.JPG,AFSA22.JPG,AFNE23.JPG,,,,,,,,,,,,,0,2,2,0,,,,,,,,,,,AMNE14.jpg,AMSA04.jpg,AMSA11.jpg,AMNE15.jpg,AMSA11.jpg,MS,2,num_2,16,num_2,1.21680264957,,,2017_Sep_22_1757,60.0065053046,FEMA4ImagesEEG,001,201602,
AMSA25.JPG,AMNE24.JPG,AMSA24.JPG,AMNE26.JPG,AMSA21.JPG,AMNE25.JPG,,,,,,,,,,,,,0,3,3,3,,,,,,,,,,,AMSA11.jpg,AMNE03.jpg,AMNE14.jpg,AMSA04.jpg,AMSA04.jpg,MS,2,num_4,16,num_4,1.28342507555,,,2017_Sep_22_1757,60.0065053046,FEMA4ImagesEEG,001,201602,
AMSA21.JPG,AMNE22.JPG,AMNE21.JPG,AMSA23.JPG,AMSA22.JPG,AMNE23.JPG,,,,,,,,,,,,,0,4,4,1,,,,,,,,,,,AMNE11.jpg,AMNE06.jpg,AMSA08.jpg,AMSA19.jpg,AMSA08.jpg,MS,2,num_2,16,num_2,1.88362412655,,,2017_Sep_22_1757,60.0065053046,FEMA4ImagesEEG,001,201602,
AMNE23.JPG,AMNE24.JPG,AMNE22.JPG,AMSA24.JPG,AMSA22.JPG,AMSA23.JPG,,,,,,,,,,,,,0,5,5,9,,,,,,,,,,,AMSA06.jpg,AMNE10.jpg,AMNE19.jpg,AMSA17.jpg,AMNE19.jpg,MN,1,num_2,32,num_6,1.11662925774,,,2017_Sep_22_1757,60.0065053046,FEMA4ImagesEEG,001,201602,
AMSA21.JPG,AMNE23.JPG,AMNE21.JPG,AMSA25.JPG,AMNE25.JPG,AMSA23.JPG,,,,,,,,,,,,,0,6,6,5,,,,,,,,,,,AMSA02.jpg,AMSA10.jpg,AMNE07.jpg,AMNE06.jpg,AMNE07.jpg,MN,1,num_2,32,num_6,0.80014491015,,,2017_Sep_22_1757,60.0065053046,FEMA4ImagesEEG,001,201602,
AFSA21.JPG,AFNE23.JPG,AFNE21.JPG,AFSA25.JPG,AFNE25.JPG,AFSA23.JPG,,,,,,,,,,,,,0,7,7,4,,,,,,,,,,,AMNE19.jpg,AMNE12.jpg,AMSA16.jpg,AMSA19.jpg,AMSA19.jpg,MS,2,num_4,32,num_2,0.86677856202,,,2017_Sep_22_1757,60.0065053046,FEMA4ImagesEEG,001,201602,
AFSA25.JPG,AFNE24.JPG,AFSA24.JPG,AFNE21.JPG,AFSA21.JPG,AFNE25.JPG,,,,,,,,,,,,,0,8,8,2,,,,,,,,,,,AMSA11.jpg,AMNE15.jpg,AMSA02.jpg,AMNE04.jpg,AMSA02.jpg,MS,2,num_2,16,num_2,0.60013137494,,,2017_Sep_22_1757,60.0065053046,FEMA4ImagesEEG,001,201602,
AFNE22.JPG,AFSA24.JPG,AFSA22.JPG,AFNE25.JPG,AFNE24.JPG,AFSA25.JPG,,,,,,,,,,,,,0,9,9,6,,,,,,,,,,,AMNE11.jpg,AMSA13.jpg,AMSA04.jpg,AMNE15.jpg,AMNE15.jpg,MN,1,num_4,16,num_4,1.26675976668,,,2017_Sep_22_1757,60.0065053046,FEMA4ImagesEEG,001,201602,
AFSA21.JPG,AFNE23.JPG,AFNE21.JPG,AFSA25.JPG,AFNE25.JPG,AFSA23.JPG,,,,,,,,,,,,,,,,,0,0,0,4,,,,,,,AFNE09.jpg,AFNE01.jpg,AFSA06.jpg,AFSA16.jpg,AFNE01.jpg,FN,3,num_6,16,num_6,1.08344457652,,,2017_Sep_22_1757,60.0065053046,FEMA4ImagesEEG,001,201602,
AMSA25.JPG,AMNE24.JPG,AMSA24.JPG,AMNE26.JPG,AMSA21.JPG,AMNE25.JPG,,,,,,,,,,,,,,,,,0,1,1,3,,,,,,,AFSA06.jpg,AFNE10.jpg,AFNE01.jpg,AFSA01.jpg,AFSA06.jpg,FS,4,num_8,16,num_8,1.01678237882,,,2017_Sep_22_1757,60.0065053046,FEMA4ImagesEEG,001,201602,
AFSA25.JPG,AFNE24.JPG,AFSA24.JPG,AFNE21.JPG,AFSA21.JPG,AFNE25.JPG,,,,,,,,,,,,,,,,,0,2,2,2,,,,,,,AFNE11.jpg,AFNE16.jpg,AFSA09.jpg,AFSA20.jpg,AFNE11.jpg,FN,3,num_8,16,num_8,0.583477933436,,,2017_Sep_22_1757,60.0065053046,FEMA4ImagesEEG,001,201602,
AMSA21.JPG,AMNE23.JPG,AMNE21.JPG,AMSA25.JPG,AMNE25.JPG,AMSA23.JPG,,,,,,,,,,,,,,,,,0,3,3,5,,,,,,,AFSA09.jpg,AFNE18.jpg,AFSA05.jpg,AFNE06.jpg,AFNE06.jpg,FN,3,num_4,16,num_4,0.999973699354,,,2017_Sep_22_1757,60.0065053046,FEMA4ImagesEEG,001,201602,
AMNE22.JPG,AMSA24.JPG,AMSA22.JPG,AMNE25.JPG,AMNE24.JPG,AMSA25.JPG,,,,,,,,,,,,,,,,,0,4,4,7,,,,,,,AFNE02.jpg,AFSA13.jpg,AFNE05.jpg,AFSA05.jpg,AFNE02.jpg,FN,3,num_8,32,num_2,1.03348842162,,,2017_Sep_22_1757,60.0065053046,FEMA4ImagesEEG,001,201602,
AFNE23.JPG,AFNE24.JPG,AFNE22.JPG,AFSA24.JPG,AFSA22.JPG,AFSA23.JPG,,,,,,,,,,,,,,,,,0,5,5,8,,,,,,,AFSA10.jpg,AFSA09.jpg,AFNE12.jpg,AFNE15.jpg,AFNE12.jpg,FN,3,num_2,16,num_2,0.633479954095,,,2017_Sep_22_1757,60.0065053046,FEMA4ImagesEEG,001,201602,
AFNE22.JPG,AFSA24.JPG,AFSA22.JPG,AFNE25.JPG,AFNE24.JPG,AFSA25.JPG,,,,,,,,,,,,,,,,,0,6,6,6,,,,,,,AFSA16.jpg,AFNE11.jpg,AFNE16.jpg,AFSA04.jpg,AFSA04.jpg,FS,4,num_4,32,num_6,1.58343270915,,,2017_Sep_22_1757,60.0065053046,FEMA4ImagesEEG,001,201602,
AMNE23.JPG,AMNE24.JPG,AMNE22.JPG,AMSA24.JPG,AMSA22.JPG,AMSA23.JPG,,,,,,,,,,,,,,,,,0,7,7,9,,,,,,,AFNE14.jpg,AFSA16.jpg,AFSA04.jpg,AFNE01.jpg,AFNE14.jpg,FN,3,num_8,16,num_8,0.81676916435,,,2017_Sep_22_1757,60.0065053046,FEMA4ImagesEEG,001,201602,
AMSA21.JPG,AMNE22.JPG,AMNE21.JPG,AMSA23.JPG,AMSA22.JPG,AMNE23.JPG,,,,,,,,,,,,,,,,,0,8,8,1,,,,,,,AFSA20.jpg,AFNE18.jpg,AFSA15.jpg,AFNE17.jpg,AFNE17.jpg,FN,3,num_4,16,num_4,1.3000756304,,,2017_Sep_22_1757,60.0065053046,FEMA4ImagesEEG,001,201602,
AFSA21.JPG,AFNE22.JPG,AFNE21.JPG,AFSA23.JPG,AFSA22.JPG,AFNE23.JPG,,,,,,,,,,,,,,,,,0,9,9,0,,,,,,,AFSA13.jpg,AFSA16.jpg,AFNE16.jpg,AFNE02.jpg,AFSA16.jpg,FS,4,num_6,16,num_6,0.616801174163,,,2017_Sep_22_1757,60.0065053046,FEMA4ImagesEEG,001,201602,
AFNE23.JPG,AFNE24.JPG,AFNE22.JPG,AFSA24.JPG,AFSA22.JPG,AFSA23.JPG,,,,,,,,,,,,,,,,,,,,,0,0,0,8,,,AMSA03.jpg,AMNE05.jpg,AMSA13.jpg,AMNE01.jpg,AMSA03.jpg,MS,2,num_8,32,num_2,1.56671159159,,,2017_Sep_22_1757,60.0065053046,FEMA4ImagesEEG,001,201602,
AFSA25.JPG,AFNE24.JPG,AFSA24.JPG,AFNE21.JPG,AFSA21.JPG,AFNE25.JPG,,,,,,,,,,,,,,,,,,,,,0,1,1,2,,,AMNE03.jpg,AMSA09.jpg,AMSA13.jpg,AMNE01.jpg,AMSA13.jpg,MS,2,num_2,32,num_6,0.966775547069,,,2017_Sep_22_1757,60.0065053046,FEMA4ImagesEEG,001,201602,
AMSA21.JPG,AMNE23.JPG,AMNE21.JPG,AMSA25.JPG,AMNE25.JPG,AMSA23.JPG,,,,,,,,,,,,,,,,,,,,,0,2,2,5,,,AMSA04.jpg,AMSA18.jpg,AMNE17.jpg,AMNE02.jpg,AMNE17.jpg,MN,1,num_2,16,num_2,0.566811983088,,,2017_Sep_22_1757,60.0065053046,FEMA4ImagesEEG,001,201602,
AMNE23.JPG,AMNE24.JPG,AMNE22.JPG,AMSA24.JPG,AMSA22.JPG,AMSA23.JPG,,,,,,,,,,,,,,,,,,,,,0,3,3,9,,,AMNE08.jpg,AMSA20.jpg,AMNE05.jpg,AMSA17.jpg,AMNE08.jpg,MN,1,num_8,32,num_2,0.783462281344,,,2017_Sep_22_1757,60.0065053046,FEMA4ImagesEEG,001,201602,
AMSA21.JPG,AMNE22.JPG,AMNE21.JPG,AMSA23.JPG,AMSA22.JPG,AMNE23.JPG,,,,,,,,,,,,,,,,,,,,,0,4,4,1,,,AMSA09.jpg,AMSA01.jpg,AMNE08.jpg,AMNE14.jpg,AMNE14.jpg,MN,1,num_4,16,num_4,0.616831323687,,,2017_Sep_22_1757,60.0065053046,FEMA4ImagesEEG,001,201602,
AFSA21.JPG,AFNE23.JPG,AFNE21.JPG,AFSA25.JPG,AFNE25.JPG,AFSA23.JPG,,,,,,,,,,,,,,,,,,,,,0,5,5,4,,,AMNE07.jpg,AMSA04.jpg,AMSA02.jpg,AMNE01.jpg,AMNE07.jpg,MN,1,num_8,16,num_8,1.35005231263,,,2017_Sep_22_1757,60.0065053046,FEMA4ImagesEEG,001,201602,
AMSA25.JPG,AMNE24.JPG,AMSA24.JPG,AMNE26.JPG,AMSA21.JPG,AMNE25.JPG,,,,,,,,,,,,,,,,,,,,,0,6,6,3,,,AMNE15.jpg,AMSA03.jpg,AMSA02.jpg,AMNE09.jpg,AMNE15.jpg,MN,1,num_8,32,num_4,0.683497690994,,,2017_Sep_22_1757,60.0065053046,FEMA4ImagesEEG,001,201602,
AMNE22.JPG,AMSA24.JPG,AMSA22.JPG,AMNE25.JPG,AMNE24.JPG,AMSA25.JPG,,,,,,,,,,,,,,,,,,,,,0,7,7,7,,,AMSA05.jpg,AMSA04.jpg,AMNE08.jpg,AMNE17.jpg,AMNE08.jpg,MN,1,num_2,32,num_8,0.950172140942,,,2017_Sep_22_1757,60.0065053046,FEMA4ImagesEEG,001,201602,
AFSA21.JPG,AFNE22.JPG,AFNE21.JPG,AFSA23.JPG,AFSA22.JPG,AFNE23.JPG,,,,,,,,,,,,,,,,,,,,,0,8,8,0,,,AMNE01.jpg,AMNE04.jpg,AMSA13.jpg,AMSA08.jpg,AMNE01.jpg,MN,1,num_8,16,num_8,0.683509237622,,,2017_Sep_22_1757,60.0065053046,FEMA4ImagesEEG,001,201602,
AFNE22.JPG,AFSA24.JPG,AFSA22.JPG,AFNE25.JPG,AFNE24.JPG,AFSA25.JPG,,,,,,,,,,,,,,,,,,,,,0,9,9,6,,,AMNE09.jpg,AMSA07.jpg,AMSA10.jpg,AMNE11.jpg,AMNE09.jpg,MN,1,num_8,32,num_4,0.933797422153,,,2017_Sep_22_1757,60.0065053046,FEMA4ImagesEEG,001,201602,
,,,,,,,,,,,,,,,,,,,,,,,,,,,,,,,,,,,,,,,,,,,space,12.0492803566,2017_Sep_22_1757,60.0065053046,FEMA4ImagesEEG,001,201602,
AFNE01.JPG,AFNE01.JPG,AFNE01.JPG,AFNE01.JPG,AFNE01.JPG,AFNE01.JPG,0,0,0,2,,,,,,,,,,,,,,,,,,,,,,,AFNE11.jpg,AFSA17.jpg,AFSA18.jpg,AFNE17.jpg,AFSA17.jpg,FS,4,num_6,16,num_6,0.416836712111,,,2017_Sep_22_1757,60.0065053046,FEMA4ImagesEEG,001,201602,
AFNE01.JPG,AFNE01.JPG,AFNE01.JPG,AFNE01.JPG,AFNE01.JPG,AFNE01.JPG,0,1,1,3,,,,,,,,,,,,,,,,,,,,,,,AFNE16.jpg,AFSA01.jpg,AFNE20.jpg,AFSA06.jpg,AFNE20.jpg,FN,3,num_2,16,num_2,1.11676621355,,,2017_Sep_22_1757,60.0065053046,FEMA4ImagesEEG,001,201602,
AFNE01.JPG,AFNE01.JPG,AFNE01.JPG,AFNE01.JPG,AFNE01.JPG,AFNE01.JPG,0,2,2,9,,,,,,,,,,,,,,,,,,,,,,,AFNE16.jpg,AFNE11.jpg,AFSA18.jpg,AFSA09.jpg,AFNE16.jpg,FN,3,num_8,16,num_8,0.9001572907,,,2017_Sep_22_1757,60.0065053046,FEMA4ImagesEEG,001,201602,
AFNE01.JPG,AFNE01.JPG,AFNE01.JPG,AFNE01.JPG,AFNE01.JPG,AFNE01.JPG,0,3,3,1,,,,,,,,,,,,,,,,,,,,,,,AFNE08.jpg,AFNE15.jpg,AFSA14.jpg,AFSA03.jpg,AFSA03.jpg,FS,4,num_4,16,num_4,0.400194496493,,,2017_Sep_22_1757,60.0065053046,FEMA4ImagesEEG,001,201602,
AFNE01.JPG,AFNE01.JPG,AFNE01.JPG,AFNE01.JPG,AFNE01.JPG,AFNE01.JPG,0,4,4,8,,,,,,,,,,,,,,,,,,,,,,,AFNE01.jpg,AFNE05.jpg,AFSA10.jpg,AFSA19.jpg,AFNE05.jpg,FN,3,num_6,32,num_8,0.85016393001,,,2017_Sep_22_1757,60.0065053046,FEMA4ImagesEEG,001,201602,
AFNE01.JPG,AFNE01.JPG,AFNE01.JPG,AFNE01.JPG,AFNE01.JPG,AFNE01.JPG,0,5,5,6,,,,,,,,,,,,,,,,,,,,,,,AFNE18.jpg,AFSA18.jpg,AFNE05.jpg,AFSA17.jpg,AFSA17.jpg,FS,4,num_4,16,num_4,0.466778112987,,,2017_Sep_22_1757,60.0065053046,FEMA4ImagesEEG,001,201602,
AFNE01.JPG,AFNE01.JPG,AFNE01.JPG,AFNE01.JPG,AFNE01.JPG,AFNE01.JPG,0,6,6,5,,,,,,,,,,,,,,,,,,,,,,,AFNE03.jpg,AFNE16.jpg,AFSA12.jpg,AFSA09.jpg,AFNE16.jpg,FN,3,num_6,16,num_6,0.833471999755,,,2017_Sep_22_1757,60.0065053046,FEMA4ImagesEEG,001,201602,
AFNE01.JPG,AFNE01.JPG,AFNE01.JPG,AFNE01.JPG,AFNE01.JPG,AFNE01.JPG,0,7,7,4,,,,,,,,,,,,,,,,,,,,,,,AFSA15.jpg,AFSA19.jpg,AFNE05.jpg,AFNE12.jpg,AFSA19.jpg,FS,4,num_6,16,num_6,1.23344807258,,,2017_Sep_22_1757,60.0065053046,FEMA4ImagesEEG,001,201602,
AFNE01.JPG,AFNE01.JPG,AFNE01.JPG,AFNE01.JPG,AFNE01.JPG,AFNE01.JPG,0,8,8,7,,,,,,,,,,,,,,,,,,,,,,,AFSA20.jpg,AFNE03.jpg,AFSA03.jpg,AFNE14.jpg,AFSA20.jpg,FS,4,num_8,16,num_8,1.51660308539,,,2017_Sep_22_1757,60.0065053046,FEMA4ImagesEEG,001,201602,
AFNE01.JPG,AFNE01.JPG,AFNE01.JPG,AFNE01.JPG,AFNE01.JPG,AFNE01.JPG,0,9,9,0,,,,,,,,,,,,,,,,,,,,,,,AFNE10.jpg,AFSA16.jpg,AFSA20.jpg,AFNE20.jpg,AFSA20.jpg,FS,4,num_2,16,num_2,0.733512220499,,,2017_Sep_22_1757,60.0065053046,FEMA4ImagesEEG,001,201602,
AFNE01.JPG,AFNE01.JPG,AFNE01.JPG,AFNE01.JPG,AFNE01.JPG,AFNE01.JPG,1,0,10,6,,,,,,,,,,,,,,,,,,,,,,,AFSA11.jpg,AFNE09.jpg,AFNE08.jpg,AFSA08.jpg,AFNE08.jpg,FN,3,num_2,32,num_4,0.766812047235,,,2017_Sep_22_1757,60.0065053046,FEMA4ImagesEEG,001,201602,
AFNE01.JPG,AFNE01.JPG,AFNE01.JPG,AFNE01.JPG,AFNE01.JPG,AFNE01.JPG,1,1,11,0,,,,,,,,,,,,,,,,,,,,,,,AFSA13.jpg,AFSA17.jpg,AFNE16.jpg,AFNE04.jpg,AFSA13.jpg,FS,4,num_8,32,num_6,1.25006270459,,,2017_Sep_22_1757,60.0065053046,FEMA4ImagesEEG,001,201602,
AFNE01.JPG,AFNE01.JPG,AFNE01.JPG,AFNE01.JPG,AFNE01.JPG,AFNE01.JPG,1,2,12,3,,,,,,,,,,,,,,,,,,,,,,,AFNE18.jpg,AFSA09.jpg,AFNE10.jpg,AFSA02.jpg,AFSA02.jpg,FS,4,num_4,16,num_4,0.750029026933,,,2017_Sep_22_1757,60.0065053046,FEMA4ImagesEEG,001,201602,
AFNE01.JPG,AFNE01.JPG,AFNE01.JPG,AFNE01.JPG,AFNE01.JPG,AFNE01.JPG,1,3,13,9,,,,,,,,,,,,,,,,,,,,,,,AFSA14.jpg,AFNE02.jpg,AFSA12.jpg,AFNE12.jpg,AFNE12.jpg,FN,3,num_4,16,num_4,0.5501303165,,,2017_Sep_22_1757,60.0065053046,FEMA4ImagesEEG,001,201602,
AFNE01.JPG,AFNE01.JPG,AFNE01.JPG,AFNE01.JPG,AFNE01.JPG,AFNE01.JPG,1,4,14,1,,,,,,,,,,,,,,,,,,,,,,,AFNE09.jpg,AFSA08.jpg,AFNE15.jpg,AFSA19.jpg,AFNE15.jpg,FN,3,num_2,16,num_2,0.883506094373,,,2017_Sep_22_1757,60.0065053046,FEMA4ImagesEEG,001,201602,
AFNE01.JPG,AFNE01.JPG,AFNE01.JPG,AFNE01.JPG,AFNE01.JPG,AFNE01.JPG,1,5,15,2,,,,,,,,,,,,,,,,,,,,,,,AFSA09.jpg,AFSA11.jpg,AFNE02.jpg,AFNE12.jpg,AFSA09.jpg,FS,4,num_8,16,num_8,1.81673965631,,,2017_Sep_22_1757,60.0065053046,FEMA4ImagesEEG,001,201602,
AFNE01.JPG,AFNE01.JPG,AFNE01.JPG,AFNE01.JPG,AFNE01.JPG,AFNE01.JPG,1,6,16,7,,,,,,,,,,,,,,,,,,,,,,,AFSA15.jpg,AFNE17.jpg,AFNE20.jpg,AFSA07.jpg,AFSA07.jpg,FS,4,num_4,16,num_4,0.6168508888,,,2017_Sep_22_1757,60.0065053046,FEMA4ImagesEEG,001,201602,
AFNE01.JPG,AFNE01.JPG,AFNE01.JPG,AFNE01.JPG,AFNE01.JPG,AFNE01.JPG,1,7,17,4,,,,,,,,,,,,,,,,,,,,,,,AFNE17.jpg,AFNE20.jpg,AFSA11.jpg,AFSA13.jpg,AFSA13.jpg,FS,4,num_4,32,num_2,1.01675896483,,,2017_Sep_22_1757,60.0065053046,FEMA4ImagesEEG,001,201602,
AFNE01.JPG,AFNE01.JPG,AFNE01.JPG,AFNE01.JPG,AFNE01.JPG,AFNE01.JPG,1,8,18,5,,,,,,,,,,,,,,,,,,,,,,,AFSA10.jpg,AFNE18.jpg,AFNE17.jpg,AFSA07.jpg,AFNE18.jpg,FN,3,num_6,16,num_6,0.95013493515,,,2017_Sep_22_1757,60.0065053046,FEMA4ImagesEEG,001,201602,
AFNE01.JPG,AFNE01.JPG,AFNE01.JPG,AFNE01.JPG,AFNE01.JPG,AFNE01.JPG,1,9,19,8,,,,,,,,,,,,,,,,,,,,,,,AFSA16.jpg,AFNE18.jpg,AFNE15.jpg,AFSA05.jpg,AFNE15.jpg,FN,3,num_2,32,num_6,0.716757104543,,,2017_Sep_22_1757,60.0065053046,FEMA4ImagesEEG,001,201602,
AFNE01.JPG,AFNE01.JPG,AFNE01.JPG,AFNE01.JPG,AFNE01.JPG,AFNE01.JPG,2,0,20,4,,,,,,,,,,,,,,,,,,,,,,,AFSA03.jpg,AFNE17.jpg,AFNE16.jpg,AFSA07.jpg,AFSA07.jpg,FS,4,num_4,16,num_4,0.850111328717,,,2017_Sep_22_1757,60.0065053046,FEMA4ImagesEEG,001,201602,
AFNE01.JPG,AFNE01.JPG,AFNE01.JPG,AFNE01.JPG,AFNE01.JPG,AFNE01.JPG,2,1,21,8,,,,,,,,,,,,,,,,,,,,,,,AFNE18.jpg,AFNE13.jpg,AFSA01.jpg,AFSA20.jpg,AFNE18.jpg,FN,3,num_8,16,num_8,0.583502630385,,,2017_Sep_22_1757,60.0065053046,FEMA4ImagesEEG,001,201602,
AFNE01.JPG,AFNE01.JPG,AFNE01.JPG,AFNE01.JPG,AFNE01.JPG,AFNE01.JPG,2,2,22,1,,,,,,,,,,,,,,,,,,,,,,,AFNE20.jpg,AFSA15.jpg,AFNE08.jpg,AFSA16.jpg,AFNE08.jpg,FN,3,num_2,32,num_8,0.833474886411,,,2017_Sep_22_1757,60.0065053046,FEMA4ImagesEEG,001,201602,
AFNE01.JPG,AFNE01.JPG,AFNE01.JPG,AFNE01.JPG,AFNE01.JPG,AFNE01.JPG,2,3,23,9,,,,,,,,,,,,,,,,,,,,,,,AFNE05.jpg,AFSA10.jpg,AFNE17.jpg,AFSA08.jpg,AFSA10.jpg,FS,4,num_6,16,num_6,0.416808487025,,,2017_Sep_22_1757,60.0065053046,FEMA4ImagesEEG,001,201602,
AFNE01.JPG,AFNE01.JPG,AFNE01.JPG,AFNE01.JPG,AFNE01.JPG,AFNE01.JPG,2,4,24,5,,,,,,,,,,,,,,,,,,,,,,,AFSA06.jpg,AFSA15.jpg,AFNE13.jpg,AFNE05.jpg,AFNE05.jpg,FN,3,num_4,16,num_4,0.850089197684,,,2017_Sep_22_1757,60.0065053046,FEMA4ImagesEEG,001,201602,
AFNE01.JPG,AFNE01.JPG,AFNE01.JPG,AFNE01.JPG,AFNE01.JPG,AFNE01.JPG,2,5,25,7,,,,,,,,,,,,,,,,,,,,,,,AFSA06.jpg,AFSA20.jpg,AFNE10.jpg,AFNE04.jpg,AFSA20.jpg,FS,4,num_6,32,num_8,0.966777471507,,,2017_Sep_22_1757,60.0065053046,FEMA4ImagesEEG,001,201602,
AFNE01.JPG,AFNE01.JPG,AFNE01.JPG,AFNE01.JPG,AFNE01.JPG,AFNE01.JPG,2,6,26,2,,,,,,,,,,,,,,,,,,,,,,,AFSA17.jpg,AFNE10.jpg,AFSA09.jpg,AFNE05.jpg,AFNE10.jpg,FN,3,num_6,16,num_6,0.850117102029,,,2017_Sep_22_1757,60.0065053046,FEMA4ImagesEEG,001,201602,
AFNE01.JPG,AFNE01.JPG,AFNE01.JPG,AFNE01.JPG,AFNE01.JPG,AFNE01.JPG,2,7,27,3,,,,,,,,,,,,,,,,,,,,,,,AFNE14.jpg,AFNE04.jpg,AFSA10.jpg,AFSA15.jpg,AFNE14.jpg,FN,3,num_8,32,num_2,1.76693040015,,,2017_Sep_22_1757,60.0065053046,FEMA4ImagesEEG,001,201602,
AFNE01.JPG,AFNE01.JPG,AFNE01.JPG,AFNE01.JPG,AFNE01.JPG,AFNE01.JPG,2,8,28,6,,,,,,,,,,,,,,,,,,,,,,,AFSA14.jpg,AFNE04.jpg,AFNE13.jpg,AFSA18.jpg,AFNE04.jpg,FN,3,num_6,16,num_6,0.433495926927,,,2017_Sep_22_1757,60.0065053046,FEMA4ImagesEEG,001,201602,
AFNE01.JPG,AFNE01.JPG,AFNE01.JPG,AFNE01.JPG,AFNE01.JPG,AFNE01.JPG,2,9,29,0,,,,,,,,,,,,,,,,,,,,,,,AFNE02.jpg,AFSA17.jpg,AFNE03.jpg,AFSA16.jpg,AFSA16.jpg,FS,4,num_4,32,num_8,0.650207165707,,,2017_Sep_22_1757,60.0065053046,FEMA4ImagesEEG,001,201602,
AFNE01.JPG,AFNE01.JPG,AFNE01.JPG,AFNE01.JPG,AFNE01.JPG,AFNE01.JPG,3,0,30,6,,,,,,,,,,,,,,,,,,,,,,,AFNE17.jpg,AFNE12.jpg,AFSA10.jpg,AFSA16.jpg,AFNE17.jpg,FN,3,num_8,16,num_8,0.766806594664,,,2017_Sep_22_1757,60.0065053046,FEMA4ImagesEEG,001,201602,
AFNE01.JPG,AFNE01.JPG,AFNE01.JPG,AFNE01.JPG,AFNE01.JPG,AFNE01.JPG,3,1,31,0,,,,,,,,,,,,,,,,,,,,,,,AFSA17.jpg,AFSA06.jpg,AFNE13.jpg,AFNE07.jpg,AFSA17.jpg,FS,4,num_8,32,num_6,0.81679450278,,,2017_Sep_22_1757,60.0065053046,FEMA4ImagesEEG,001,201602,
AFNE01.JPG,AFNE01.JPG,AFNE01.JPG,AFNE01.JPG,AFNE01.JPG,AFNE01.JPG,3,2,32,8,,,,,,,,,,,,,,,,,,,,,,,AFNE09.jpg,AFSA15.jpg,AFSA19.jpg,AFNE01.jpg,AFSA15.jpg,FS,4,num_6,16,num_6,0.500153634268,,,2017_Sep_22_1757,60.0065053046,FEMA4ImagesEEG,001,201602,
AFNE01.JPG,AFNE01.JPG,AFNE01.JPG,AFNE01.JPG,AFNE01.JPG,AFNE01.JPG,3,3,33,7,,,,,,,,,,,,,,,,,,,,,,,AFSA05.jpg,AFNE04.jpg,AFSA01.jpg,AFNE18.jpg,AFSA01.jpg,FS,4,num_2,32,num_8,1.26675014449,,,2017_Sep_22_1757,60.0065053046,FEMA4ImagesEEG,001,201602,
AFNE01.JPG,AFNE01.JPG,AFNE01.JPG,AFNE01.JPG,AFNE01.JPG,AFNE01.JPG,3,4,34,9,,,,,,,,,,,,,,,,,,,,,,,AFSA13.jpg,AFNE10.jpg,AFSA12.jpg,AFNE14.jpg,AFNE10.jpg,FN,3,num_6,16,num_6,1.61671297077,,,2017_Sep_22_1757,60.0065053046,FEMA4ImagesEEG,001,201602,
AFNE01.JPG,AFNE01.JPG,AFNE01.JPG,AFNE01.JPG,AFNE01.JPG,AFNE01.JPG,3,5,35,1,,,,,,,,,,,,,,,,,,,,,,,AFNE05.jpg,AFSA02.jpg,AFSA14.jpg,AFNE03.jpg,AFNE05.jpg,FN,3,num_8,32,num_4,1.88337362892,,,2017_Sep_22_1757,60.0065053046,FEMA4ImagesEEG,001,201602,
AFNE01.JPG,AFNE01.JPG,AFNE01.JPG,AFNE01.JPG,AFNE01.JPG,AFNE01.JPG,3,6,36,4,,,,,,,,,,,,,,,,,,,,,,,AFSA12.jpg,AFNE15.jpg,AFNE01.jpg,AFSA08.jpg,AFNE15.jpg,FN,3,num_6,16,num_6,0.566811341609,,,2017_Sep_22_1757,60.0065053046,FEMA4ImagesEEG,001,201602,
AFNE01.JPG,AFNE01.JPG,AFNE01.JPG,AFNE01.JPG,AFNE01.JPG,AFNE01.JPG,3,7,37,2,,,,,,,,,,,,,,,,,,,,,,,AFSA13.jpg,AFNE07.jpg,AFSA04.jpg,AFNE15.jpg,AFSA13.jpg,FS,4,num_8,16,num_8,1.06682128454,,,2017_Sep_22_1757,60.0065053046,FEMA4ImagesEEG,001,201602,
AFNE01.JPG,AFNE01.JPG,AFNE01.JPG,AFNE01.JPG,AFNE01.JPG,AFNE01.JPG,3,8,38,5,,,,,,,,,,,,,,,,,,,,,,,AFNE14.jpg,AFSA07.jpg,AFSA10.jpg,AFNE03.jpg,AFSA10.jpg,FS,4,num_2,16,num_2,0.983486400961,,,2017_Sep_22_1757,60.0065053046,FEMA4ImagesEEG,001,201602,
AFNE01.JPG,AFNE01.JPG,AFNE01.JPG,AFNE01.JPG,AFNE01.JPG,AFNE01.JPG,3,9,39,3,,,,,,,,,,,,,,,,,,,,,,,AFNE07.jpg,AFSA05.jpg,AFNE04.jpg,AFSA06.jpg,AFSA06.jpg,FS,4,num_4,32,num_6,1.30015453234,,,2017_Sep_22_1757,60.0065053046,FEMA4ImagesEEG,001,201602,
AFNE01.JPG,AFNE01.JPG,AFNE01.JPG,AFNE01.JPG,AFNE01.JPG,AFNE01.JPG,4,0,40,3,,,,,,,,,,,,,,,,,,,,,,,AFSA18.jpg,AFNE02.jpg,AFNE16.jpg,AFSA08.jpg,AFNE02.jpg,FN,3,num_6,16,num_6,0.90010917976,,,2017_Sep_22_1757,60.0065053046,FEMA4ImagesEEG,001,201602,
AFNE01.JPG,AFNE01.JPG,AFNE01.JPG,AFNE01.JPG,AFNE01.JPG,AFNE01.JPG,4,1,41,4,,,,,,,,,,,,,,,,,,,,,,,AFSA06.jpg,AFSA12.jpg,AFNE08.jpg,AFNE07.jpg,AFNE08.jpg,FN,3,num_2,16,num_2,0.933429213092,,,2017_Sep_22_1757,60.0065053046,FEMA4ImagesEEG,001,201602,
AFNE01.JPG,AFNE01.JPG,AFNE01.JPG,AFNE01.JPG,AFNE01.JPG,AFNE01.JPG,4,2,42,8,,,,,,,,,,,,,,,,,,,,,,,AFSA03.jpg,AFNE02.jpg,AFSA19.jpg,AFNE04.jpg,AFNE04.jpg,FN,3,num_4,16,num_4,0.55017072969,,,2017_Sep_22_1757,60.0065053046,FEMA4ImagesEEG,001,201602,
AFNE01.JPG,AFNE01.JPG,AFNE01.JPG,AFNE01.JPG,AFNE01.JPG,AFNE01.JPG,4,3,43,1,,,,,,,,,,,,,,,,,,,,,,,AFSA02.jpg,AFNE17.jpg,AFNE02.jpg,AFSA03.jpg,AFNE02.jpg,FN,3,num_2,16,num_2,1.35016200557,,,2017_Sep_22_1757,60.0065053046,FEMA4ImagesEEG,001,201602,
AFNE01.JPG,AFNE01.JPG,AFNE01.JPG,AFNE01.JPG,AFNE01.JPG,AFNE01.JPG,4,4,44,5,,,,,,,,,,,,,,,,,,,,,,,AFSA07.jpg,AFSA12.jpg,AFNE20.jpg,AFNE04.jpg,AFNE04.jpg,FN,3,num_4,32,num_2,0.883442908673,,,2017_Sep_22_1757,60.0065053046,FEMA4ImagesEEG,001,201602,
AFNE01.JPG,AFNE01.JPG,AFNE01.JPG,AFNE01.JPG,AFNE01.JPG,AFNE01.JPG,4,5,45,0,,,,,,,,,,,,,,,,,,,,,,,AFSA05.jpg,AFNE19.jpg,AFNE05.jpg,AFSA14.jpg,AFSA14.jpg,FS,4,num_4,16,num_4,0.98346266623,,,2017_Sep_22_1757,60.0065053046,FEMA4ImagesEEG,001,201602,
AFNE01.JPG,AFNE01.JPG,AFNE01.JPG,AFNE01.JPG,AFNE01.JPG,AFNE01.JPG,4,6,46,7,,,,,,,,,,,,,,,,,,,,,,,AFSA02.jpg,AFNE03.jpg,AFSA08.jpg,AFNE05.jpg,AFNE05.jpg,FN,3,num_4,32,num_8,1.64989252016,,,2017_Sep_22_1757,60.0065053046,FEMA4ImagesEEG,001,201602,
AFNE01.JPG,AFNE01.JPG,AFNE01.JPG,AFNE01.JPG,AFNE01.JPG,AFNE01.JPG,4,7,47,6,,,,,,,,,,,,,,,,,,,,,,,AFSA15.jpg,AFNE04.jpg,AFSA09.jpg,AFNE09.jpg,AFSA15.jpg,FS,4,num_8,32,num_2,1.03345602692,,,2017_Sep_22_1757,60.0065053046,FEMA4ImagesEEG,001,201602,
AFNE01.JPG,AFNE01.JPG,AFNE01.JPG,AFNE01.JPG,AFNE01.JPG,AFNE01.JPG,4,8,48,2,,,,,,,,,,,,,,,,,,,,,,,AFNE12.jpg,AFNE01.jpg,AFSA16.jpg,AFSA09.jpg,AFNE01.jpg,FN,3,num_6,16,num_6,1.80010770436,,,2017_Sep_22_1757,60.0065053046,FEMA4ImagesEEG,001,201602,
AFNE01.JPG,AFNE01.JPG,AFNE01.JPG,AFNE01.JPG,AFNE01.JPG,AFNE01.JPG,4,9,49,9,,,,,,,,,,,,,,,,,,,,,,,AFSA09.jpg,AFSA05.jpg,AFNE08.jpg,AFNE01.jpg,AFNE08.jpg,FN,3,num_2,32,num_8,0.850167458144,,,2017_Sep_22_1757,60.0065053046,FEMA4ImagesEEG,001,201602,
AFNE01.JPG,AFNE01.JPG,AFNE01.JPG,AFNE01.JPG,AFNE01.JPG,AFNE01.JPG,5,0,50,0,,,,,,,,,,,,,,,,,,,,,,,AFSA08.jpg,AFNE19.jpg,AFNE01.jpg,AFSA13.jpg,AFSA13.jpg,FS,4,num_4,16,num_4,0.700154660635,,,2017_Sep_22_1757,60.0065053046,FEMA4ImagesEEG,001,201602,
AFNE01.JPG,AFNE01.JPG,AFNE01.JPG,AFNE01.JPG,AFNE01.JPG,AFNE01.JPG,5,1,51,5,,,,,,,,,,,,,,,,,,,,,,,AFSA20.jpg,AFNE13.jpg,AFNE08.jpg,AFSA07.jpg,AFNE08.jpg,FN,3,num_2,32,num_8,0.850138912319,,,2017_Sep_22_1757,60.0065053046,FEMA4ImagesEEG,001,201602,
AFNE01.JPG,AFNE01.JPG,AFNE01.JPG,AFNE01.JPG,AFNE01.JPG,AFNE01.JPG,5,2,52,2,,,,,,,,,,,,,,,,,,,,,,,AFSA07.jpg,AFNE12.jpg,AFNE15.jpg,AFSA14.jpg,AFNE12.jpg,FN,3,num_6,32,num_2,1.55007707373,,,2017_Sep_22_1757,60.0065053046,FEMA4ImagesEEG,001,201602,
AFNE01.JPG,AFNE01.JPG,AFNE01.JPG,AFNE01.JPG,AFNE01.JPG,AFNE01.JPG,5,3,53,6,,,,,,,,,,,,,,,,,,,,,,,AFSA14.jpg,AFSA15.jpg,AFNE04.jpg,AFNE14.jpg,AFSA15.jpg,FS,4,num_6,16,num_6,0.833482584161,,,2017_Sep_22_1757,60.0065053046,FEMA4ImagesEEG,001,201602,
AFNE01.JPG,AFNE01.JPG,AFNE01.JPG,AFNE01.JPG,AFNE01.JPG,AFNE01.JPG,5,4,54,7,,,,,,,,,,,,,,,,,,,,,,,AFSA17.jpg,AFNE17.jpg,AFNE09.jpg,AFSA10.jpg,AFSA17.jpg,FS,4,num_8,32,num_4,2.03335146581,,,2017_Sep_22_1757,60.0065053046,FEMA4ImagesEEG,001,201602,
AFNE01.JPG,AFNE01.JPG,AFNE01.JPG,AFNE01.JPG,AFNE01.JPG,AFNE01.JPG,5,5,55,3,,,,,,,,,,,,,,,,,,,,,,,AFSA17.jpg,AFNE08.jpg,AFSA07.jpg,AFNE11.jpg,AFSA17.jpg,FS,4,num_8,32,num_4,0.700117454842,,,2017_Sep_22_1757,60.0065053046,FEMA4ImagesEEG,001,201602,
AFNE01.JPG,AFNE01.JPG,AFNE01.JPG,AFNE01.JPG,AFNE01.JPG,AFNE01.JPG,5,6,56,8,,,,,,,,,,,,,,,,,,,,,,,AFSA07.jpg,AFNE17.jpg,AFSA01.jpg,AFNE11.jpg,AFNE17.jpg,FN,3,num_6,32,num_2,0.683472352566,,,2017_Sep_22_1757,60.0065053046,FEMA4ImagesEEG,001,201602,
AFNE01.JPG,AFNE01.JPG,AFNE01.JPG,AFNE01.JPG,AFNE01.JPG,AFNE01.JPG,5,7,57,1,,,,,,,,,,,,,,,,,,,,,,,AFSA06.jpg,AFNE13.jpg,AFSA04.jpg,AFNE03.jpg,AFNE03.jpg,FN,3,num_4,32,num_6,1.15010805717,,,2017_Sep_22_1757,60.0065053046,FEMA4ImagesEEG,001,201602,
AFNE01.JPG,AFNE01.JPG,AFNE01.JPG,AFNE01.JPG,AFNE01.JPG,AFNE01.JPG,5,8,58,9,,,,,,,,,,,,,,,,,,,,,,,AFNE15.jpg,AFSA14.jpg,AFSA18.jpg,AFNE16.jpg,AFNE15.jpg,FN,3,num_8,16,num_8,0.56683539708,,,2017_Sep_22_1757,60.0065053046,FEMA4ImagesEEG,001,201602,
AFNE01.JPG,AFNE01.JPG,AFNE01.JPG,AFNE01.JPG,AFNE01.JPG,AFNE01.JPG,5,9,59,4,,,,,,,,,,,,,,,,,,,,,,,AFSA15.jpg,AFNE11.jpg,AFSA16.jpg,AFNE19.jpg,AFNE19.jpg,FN,3,num_4,16,num_4,1.40010693458,,,2017_Sep_22_1757,60.0065053046,FEMA4ImagesEEG,001,201602,
,,,,,,,,,,,,,,,,,,,,,,,,,,,,,,,,,,,,,,,,,,,space,3.4000139201,2017_Sep_22_1757,60.0065053046,FEMA4ImagesEEG,001,201602,
AFNE01.JPG,AFNE01.JPG,AFNE01.JPG,AFNE01.JPG,AFNE01.JPG,AFNE01.JPG,,,,,0,0,0,7,,,,,,,,,,,,,,,,,,,AMSA03.jpg,AMNE06.jpg,AMNE12.jpg,AMSA02.jpg,AMSA02.jpg,MS,2,num_4,16,num_4,0.466819809135,,,2017_Sep_22_1757,60.0065053046,FEMA4ImagesEEG,001,201602,
AFNE01.JPG,AFNE01.JPG,AFNE01.JPG,AFNE01.JPG,AFNE01.JPG,AFNE01.JPG,,,,,0,1,1,9,,,,,,,,,,,,,,,,,,,AMNE12.jpg,AMNE19.jpg,AMSA03.jpg,AMSA04.jpg,AMNE12.jpg,MN,1,num_8,32,num_6,0.966762076006,,,2017_Sep_22_1757,60.0065053046,FEMA4ImagesEEG,001,201602,
AFNE01.JPG,AFNE01.JPG,AFNE01.JPG,AFNE01.JPG,AFNE01.JPG,AFNE01.JPG,,,,,0,2,2,1,,,,,,,,,,,,,,,,,,,AMNE13.jpg,AMNE20.jpg,AMSA19.jpg,AMSA10.jpg,AMNE13.jpg,MN,1,num_8,16,num_8,0.966754698995,,,2017_Sep_22_1757,60.0065053046,FEMA4ImagesEEG,001,201602,
AFNE01.JPG,AFNE01.JPG,AFNE01.JPG,AFNE01.JPG,AFNE01.JPG,AFNE01.JPG,,,,,0,3,3,8,,,,,,,,,,,,,,,,,,,AMSA11.jpg,AMSA18.jpg,AMNE06.jpg,AMNE12.jpg,AMSA11.jpg,MS,2,num_8,32,num_6,0.483533228944,,,2017_Sep_22_1757,60.0065053046,FEMA4ImagesEEG,001,201602,
AFNE01.JPG,AFNE01.JPG,AFNE01.JPG,AFNE01.JPG,AFNE01.JPG,AFNE01.JPG,,,,,0,4,4,6,,,,,,,,,,,,,,,,,,,AMNE20.jpg,AMSA18.jpg,AMSA12.jpg,AMNE04.jpg,AMSA12.jpg,MS,2,num_2,16,num_2,1.01675287078,,,2017_Sep_22_1757,60.0065053046,FEMA4ImagesEEG,001,201602,
AFNE01.JPG,AFNE01.JPG,AFNE01.JPG,AFNE01.JPG,AFNE01.JPG,AFNE01.JPG,,,,,0,5,5,3,,,,,,,,,,,,,,,,,,,AMSA12.jpg,AMNE16.jpg,AMSA03.jpg,AMNE17.jpg,AMSA03.jpg,MS,2,num_2,16,num_2,0.816851594429,,,2017_Sep_22_1757,60.0065053046,FEMA4ImagesEEG,001,201602,
AFNE01.JPG,AFNE01.JPG,AFNE01.JPG,AFNE01.JPG,AFNE01.JPG,AFNE01.JPG,,,,,0,6,6,0,,,,,,,,,,,,,,,,,,,AMNE19.jpg,AMSA02.jpg,AMNE04.jpg,AMSA19.jpg,AMSA02.jpg,MS,2,num_6,16,num_6,0.650136602997,,,2017_Sep_22_1757,60.0065053046,FEMA4ImagesEEG,001,201602,
AFNE01.JPG,AFNE01.JPG,AFNE01.JPG,AFNE01.JPG,AFNE01.JPG,AFNE01.JPG,,,,,0,7,7,2,,,,,,,,,,,,,,,,,,,AMSA18.jpg,AMSA17.jpg,AMNE10.jpg,AMNE09.jpg,AMNE10.jpg,MN,1,num_2,32,num_4,0.800098402909,,,2017_Sep_22_1757,60.0065053046,FEMA4ImagesEEG,001,201602,
AFNE01.JPG,AFNE01.JPG,AFNE01.JPG,AFNE01.JPG,AFNE01.JPG,AFNE01.JPG,,,,,0,8,8,5,,,,,,,,,,,,,,,,,,,AMSA11.jpg,AMSA15.jpg,AMNE11.jpg,AMNE19.jpg,AMSA11.jpg,MS,2,num_8,32,num_2,1.13303091866,,,2017_Sep_22_1757,60.0065053046,FEMA4ImagesEEG,001,201602,
AFNE01.JPG,AFNE01.JPG,AFNE01.JPG,AFNE01.JPG,AFNE01.JPG,AFNE01.JPG,,,,,0,9,9,4,,,,,,,,,,,,,,,,,,,AMNE20.jpg,AMNE18.jpg,AMSA16.jpg,AMSA20.jpg,AMSA20.jpg,MS,2,num_4,32,num_8,0.816816313072,,,2017_Sep_22_1757,60.0065053046,FEMA4ImagesEEG,001,201602,
AFNE01.JPG,AFNE01.JPG,AFNE01.JPG,AFNE01.JPG,AFNE01.JPG,AFNE01.JPG,,,,,1,0,10,9,,,,,,,,,,,,,,,,,,,AMNE04.jpg,AMSA04.jpg,AMSA10.jpg,AMNE19.jpg,AMSA10.jpg,MS,2,num_2,16,num_2,1.91658749744,,,2017_Sep_22_1757,60.0065053046,FEMA4ImagesEEG,001,201602,
AFNE01.JPG,AFNE01.JPG,AFNE01.JPG,AFNE01.JPG,AFNE01.JPG,AFNE01.JPG,,,,,1,1,11,4,,,,,,,,,,,,,,,,,,,AMSA06.jpg,AMNE13.jpg,AMNE01.jpg,AMSA07.jpg,AMNE01.jpg,MN,1,num_2,16,num_2,0.816798030915,,,2017_Sep_22_1757,60.0065053046,FEMA4ImagesEEG,001,201602,
AFNE01.JPG,AFNE01.JPG,AFNE01.JPG,AFNE01.JPG,AFNE01.JPG,AFNE01.JPG,,,,,1,2,12,2,,,,,,,,,,,,,,,,,,,AMSA14.jpg,AMNE08.jpg,AMNE11.jpg,AMSA10.jpg,AMSA10.jpg,MS,2,num_4,16,num_4,0.850136346404,,,2017_Sep_22_1757,60.0065053046,FEMA4ImagesEEG,001,201602,
AFNE01.JPG,AFNE01.JPG,AFNE01.JPG,AFNE01.JPG,AFNE01.JPG,AFNE01.JPG,,,,,1,3,13,8,,,,,,,,,,,,,,,,,,,AMNE18.jpg,AMNE06.jpg,AMSA09.jpg,AMSA02.jpg,AMSA02.jpg,MS,2,num_4,16,num_4,0.766791199163,,,2017_Sep_22_1757,60.0065053046,FEMA4ImagesEEG,001,201602,
AFNE01.JPG,AFNE01.JPG,AFNE01.JPG,AFNE01.JPG,AFNE01.JPG,AFNE01.JPG,,,,,1,4,14,5,,,,,,,,,,,,,,,,,,,AMSA17.jpg,AMNE01.jpg,AMNE08.jpg,AMSA08.jpg,AMNE08.jpg,MN,1,num_2,16,num_2,0.666628712481,,,2017_Sep_22_1757,60.0065053046,FEMA4ImagesEEG,001,201602,
AFNE01.JPG,AFNE01.JPG,AFNE01.JPG,AFNE01.JPG,AFNE01.JPG,AFNE01.JPG,,,,,1,5,15,7,,,,,,,,,,,,,,,,,,,AMSA10.jpg,AMSA11.jpg,AMNE06.jpg,AMNE18.jpg,AMSA11.jpg,MS,2,num_6,32,num_8,1.31675376885,,,2017_Sep_22_1757,60.0065053046,FEMA4ImagesEEG,001,201602,
AFNE01.JPG,AFNE01.JPG,AFNE01.JPG,AFNE01.JPG,AFNE01.JPG,AFNE01.JPG,,,,,1,6,16,1,,,,,,,,,,,,,,,,,,,AMSA01.jpg,AMSA16.jpg,AMNE04.jpg,AMNE01.jpg,AMSA16.jpg,MS,2,num_6,16,num_6,0.933482135124,,,2017_Sep_22_1757,60.0065053046,FEMA4ImagesEEG,001,201602,
AFNE01.JPG,AFNE01.JPG,AFNE01.JPG,AFNE01.JPG,AFNE01.JPG,AFNE01.JPG,,,,,1,7,17,6,,,,,,,,,,,,,,,,,,,AMSA08.jpg,AMNE06.jpg,AMNE19.jpg,AMSA18.jpg,AMNE06.jpg,MN,1,num_6,16,num_6,1.01676088927,,,2017_Sep_22_1757,60.0065053046,FEMA4ImagesEEG,001,201602,
AFNE01.JPG,AFNE01.JPG,AFNE01.JPG,AFNE01.JPG,AFNE01.JPG,AFNE01.JPG,,,,,1,8,18,3,,,,,,,,,,,,,,,,,,,AMSA10.jpg,AMNE20.jpg,AMSA14.jpg,AMNE04.jpg,AMNE20.jpg,MN,1,num_6,16,num_6,0.833448585763,,,2017_Sep_22_1757,60.0065053046,FEMA4ImagesEEG,001,201602,
AFNE01.JPG,AFNE01.JPG,AFNE01.JPG,AFNE01.JPG,AFNE01.JPG,AFNE01.JPG,,,,,1,9,19,0,,,,,,,,,,,,,,,,,,,AMNE13.jpg,AMSA03.jpg,AMSA04.jpg,AMNE09.jpg,AMNE13.jpg,MN,1,num_8,16,num_8,1.14981842931,,,2017_Sep_22_1757,60.0065053046,FEMA4ImagesEEG,001,201602,
AFNE01.JPG,AFNE01.JPG,AFNE01.JPG,AFNE01.JPG,AFNE01.JPG,AFNE01.JPG,,,,,2,0,20,6,,,,,,,,,,,,,,,,,,,AMSA19.jpg,AMSA13.jpg,AMNE05.jpg,AMNE18.jpg,AMSA13.jpg,MS,2,num_6,16,num_6,0.61680438156,,,2017_Sep_22_1757,60.0065053046,FEMA4ImagesEEG,001,201602,
AFNE01.JPG,AFNE01.JPG,AFNE01.JPG,AFNE01.JPG,AFNE01.JPG,AFNE01.JPG,,,,,2,1,21,3,,,,,,,,,,,,,,,,,,,AMNE11.jpg,AMNE18.jpg,AMSA16.jpg,AMSA11.jpg,AMNE11.jpg,MN,1,num_8,32,num_4,1.03346564911,,,2017_Sep_22_1757,60.0065053046,FEMA4ImagesEEG,001,201602,
AFNE01.JPG,AFNE01.JPG,AFNE01.JPG,AFNE01.JPG,AFNE01.JPG,AFNE01.JPG,,,,,2,2,22,5,,,,,,,,,,,,,,,,,,,AMNE03.jpg,AMSA17.jpg,AMSA01.jpg,AMNE16.jpg,AMSA01.jpg,MS,2,num_2,16,num_2,0.516829527543,,,2017_Sep_22_1757,60.0065053046,FEMA4ImagesEEG,001,201602,
AFNE01.JPG,AFNE01.JPG,AFNE01.JPG,AFNE01.JPG,AFNE01.JPG,AFNE01.JPG,,,,,2,3,23,8,,,,,,,,,,,,,,,,,,,AMNE02.jpg,AMSA08.jpg,AMNE20.jpg,AMSA14.jpg,AMNE02.jpg,MN,1,num_8,32,num_4,2.71661437542,,,2017_Sep_22_1757,60.0065053046,FEMA4ImagesEEG,001,201602,
AFNE01.JPG,AFNE01.JPG,AFNE01.JPG,AFNE01.JPG,AFNE01.JPG,AFNE01.JPG,,,,,2,4,24,7,,,,,,,,,,,,,,,,,,,AMSA13.jpg,AMNE15.jpg,AMSA14.jpg,AMNE12.jpg,AMSA13.jpg,MS,2,num_8,32,num_6,2.15002979671,,,2017_Sep_22_1757,60.0065053046,FEMA4ImagesEEG,001,201602,
AFNE01.JPG,AFNE01.JPG,AFNE01.JPG,AFNE01.JPG,AFNE01.JPG,AFNE01.JPG,,,,,2,5,25,1,,,,,,,,,,,,,,,,,,,AMSA02.jpg,AMNE09.jpg,AMSA10.jpg,AMNE08.jpg,AMNE08.jpg,MN,1,num_4,32,num_6,0.933546283046,,,2017_Sep_22_1757,60.0065053046,FEMA4ImagesEEG,001,201602,
AFNE01.JPG,AFNE01.JPG,AFNE01.JPG,AFNE01.JPG,AFNE01.JPG,AFNE01.JPG,,,,,2,6,26,9,,,,,,,,,,,,,,,,,,,AMSA03.jpg,AMNE05.jpg,AMNE18.jpg,AMSA19.jpg,AMSA19.jpg,MS,2,num_4,16,num_4,0.816813105677,,,2017_Sep_22_1757,60.0065053046,FEMA4ImagesEEG,001,201602,
AFNE01.JPG,AFNE01.JPG,AFNE01.JPG,AFNE01.JPG,AFNE01.JPG,AFNE01.JPG,,,,,2,7,27,0,,,,,,,,,,,,,,,,,,,AMNE09.jpg,AMSA05.jpg,AMSA14.jpg,AMNE19.jpg,AMSA14.jpg,MS,2,num_2,16,num_2,0.500115145516,,,2017_Sep_22_1757,60.0065053046,FEMA4ImagesEEG,001,201602,
AFNE01.JPG,AFNE01.JPG,AFNE01.JPG,AFNE01.JPG,AFNE01.JPG,AFNE01.JPG,,,,,2,8,28,4,,,,,,,,,,,,,,,,,,,AMSA11.jpg,AMNE01.jpg,AMSA12.jpg,AMNE08.jpg,AMNE08.jpg,MN,1,num_4,32,num_8,0.966777471507,,,2017_Sep_22_1757,60.0065053046,FEMA4ImagesEEG,001,201602,
AFNE01.JPG,AFNE01.JPG,AFNE01.JPG,AFNE01.JPG,AFNE01.JPG,AFNE01.JPG,,,,,2,9,29,2,,,,,,,,,,,,,,,,,,,AMSA14.jpg,AMSA04.jpg,AMNE11.jpg,AMNE18.jpg,AMSA14.jpg,MS,2,num_8,16,num_8,0.533491308279,,,2017_Sep_22_1757,60.0065053046,FEMA4ImagesEEG,001,201602,
AFNE01.JPG,AFNE01.JPG,AFNE01.JPG,AFNE01.JPG,AFNE01.JPG,AFNE01.JPG,,,,,3,0,30,1,,,,,,,,,,,,,,,,,,,AMSA06.jpg,AMNE13.jpg,AMNE14.jpg,AMSA19.jpg,AMNE14.jpg,MN,1,num_2,16,num_2,0.816767881393,,,2017_Sep_22_1757,60.0065053046,FEMA4ImagesEEG,001,201602,
AFNE01.JPG,AFNE01.JPG,AFNE01.JPG,AFNE01.JPG,AFNE01.JPG,AFNE01.JPG,,,,,3,1,31,7,,,,,,,,,,,,,,,,,,,AMNE13.jpg,AMSA15.jpg,AMNE03.jpg,AMSA02.jpg,AMNE13.jpg,MN,1,num_8,16,num_8,1.41675716869,,,2017_Sep_22_1757,60.0065053046,FEMA4ImagesEEG,001,201602,
AFNE01.JPG,AFNE01.JPG,AFNE01.JPG,AFNE01.JPG,AFNE01.JPG,AFNE01.JPG,,,,,3,2,32,2,,,,,,,,,,,,,,,,,,,AMSA06.jpg,AMNE05.jpg,AMSA13.jpg,AMNE09.jpg,AMNE09.jpg,MN,1,num_4,32,num_6,1.06678824836,,,2017_Sep_22_1757,60.0065053046,FEMA4ImagesEEG,001,201602,
AFNE01.JPG,AFNE01.JPG,AFNE01.JPG,AFNE01.JPG,AFNE01.JPG,AFNE01.JPG,,,,,3,3,33,4,,,,,,,,,,,,,,,,,,,AMSA12.jpg,AMSA09.jpg,AMNE16.jpg,AMNE13.jpg,AMNE16.jpg,MN,1,num_2,32,num_4,0.866801976013,,,2017_Sep_22_1757,60.0065053046,FEMA4ImagesEEG,001,201602,
AFNE01.JPG,AFNE01.JPG,AFNE01.JPG,AFNE01.JPG,AFNE01.JPG,AFNE01.JPG,,,,,3,4,34,6,,,,,,,,,,,,,,,,,,,AMNE20.jpg,AMSA10.jpg,AMNE06.jpg,AMSA14.jpg,AMSA10.jpg,MS,2,num_6,32,num_2,0.916801430754,,,2017_Sep_22_1757,60.0065053046,FEMA4ImagesEEG,001,201602,
AFNE01.JPG,AFNE01.JPG,AFNE01.JPG,AFNE01.JPG,AFNE01.JPG,AFNE01.JPG,,,,,3,5,35,3,,,,,,,,,,,,,,,,,,,AMNE01.jpg,AMSA06.jpg,AMNE14.jpg,AMSA18.jpg,AMNE14.jpg,MN,1,num_2,16,num_2,1.25014770059,,,2017_Sep_22_1757,60.0065053046,FEMA4ImagesEEG,001,201602,
AFNE01.JPG,AFNE01.JPG,AFNE01.JPG,AFNE01.JPG,AFNE01.JPG,AFNE01.JPG,,,,,3,6,36,8,,,,,,,,,,,,,,,,,,,AMSA17.jpg,AMNE13.jpg,AMNE11.jpg,AMSA09.jpg,AMNE13.jpg,MN,1,num_6,16,num_6,0.966772981154,,,2017_Sep_22_1757,60.0065053046,FEMA4ImagesEEG,001,201602,
AFNE01.JPG,AFNE01.JPG,AFNE01.JPG,AFNE01.JPG,AFNE01.JPG,AFNE01.JPG,,,,,3,7,37,5,,,,,,,,,,,,,,,,,,,AMNE10.jpg,AMSA06.jpg,AMSA16.jpg,AMNE05.jpg,AMSA06.jpg,MS,2,num_6,32,num_2,0.68347042813,,,2017_Sep_22_1757,60.0065053046,FEMA4ImagesEEG,001,201602,
AFNE01.JPG,AFNE01.JPG,AFNE01.JPG,AFNE01.JPG,AFNE01.JPG,AFNE01.JPG,,,,,3,8,38,9,,,,,,,,,,,,,,,,,,,AMSA20.jpg,AMSA15.jpg,AMNE14.jpg,AMNE03.jpg,AMNE03.jpg,MN,1,num_4,32,num_8,1.00016806755,,,2017_Sep_22_1757,60.0065053046,FEMA4ImagesEEG,001,201602,
AFNE01.JPG,AFNE01.JPG,AFNE01.JPG,AFNE01.JPG,AFNE01.JPG,AFNE01.JPG,,,,,3,9,39,0,,,,,,,,,,,,,,,,,,,AMNE13.jpg,AMNE04.jpg,AMSA18.jpg,AMSA07.jpg,AMNE13.jpg,MN,1,num_8,16,num_8,1.25015796425,,,2017_Sep_22_1757,60.0065053046,FEMA4ImagesEEG,001,201602,
AFNE01.JPG,AFNE01.JPG,AFNE01.JPG,AFNE01.JPG,AFNE01.JPG,AFNE01.JPG,,,,,4,0,40,0,,,,,,,,,,,,,,,,,,,AMNE18.jpg,AMSA02.jpg,AMSA15.jpg,AMNE12.jpg,AMSA15.jpg,MS,2,num_2,16,num_2,0.583501026687,,,2017_Sep_22_1757,60.0065053046,FEMA4ImagesEEG,001,201602,
AFNE01.JPG,AFNE01.JPG,AFNE01.JPG,AFNE01.JPG,AFNE01.JPG,AFNE01.JPG,,,,,4,1,41,6,,,,,,,,,,,,,,,,,,,AMSA18.jpg,AMNE06.jpg,AMNE02.jpg,AMSA20.jpg,AMNE06.jpg,MN,1,num_6,16,num_6,0.983059496555,,,2017_Sep_22_1757,60.0065053046,FEMA4ImagesEEG,001,201602,
AFNE01.JPG,AFNE01.JPG,AFNE01.JPG,AFNE01.JPG,AFNE01.JPG,AFNE01.JPG,,,,,4,2,42,5,,,,,,,,,,,,,,,,,,,AMNE18.jpg,AMSA19.jpg,AMSA08.jpg,AMNE12.jpg,AMSA19.jpg,MS,2,num_6,16,num_6,1.40008031319,,,2017_Sep_22_1757,60.0065053046,FEMA4ImagesEEG,001,201602,
AFNE01.JPG,AFNE01.JPG,AFNE01.JPG,AFNE01.JPG,AFNE01.JPG,AFNE01.JPG,,,,,4,3,43,4,,,,,,,,,,,,,,,,,,,AMNE12.jpg,AMSA15.jpg,AMSA03.jpg,AMNE08.jpg,AMSA15.jpg,MS,2,num_6,16,num_6,0.466826544667,,,2017_Sep_22_1757,60.0065053046,FEMA4ImagesEEG,001,201602,
AFNE01.JPG,AFNE01.JPG,AFNE01.JPG,AFNE01.JPG,AFNE01.JPG,AFNE01.JPG,,,,,4,4,44,3,,,,,,,,,,,,,,,,,,,AMSA05.jpg,AMSA06.jpg,AMNE03.jpg,AMNE04.jpg,AMNE04.jpg,MN,1,num_4,16,num_4,0.417067323882,,,2017_Sep_22_1757,60.0065053046,FEMA4ImagesEEG,001,201602,
AFNE01.JPG,AFNE01.JPG,AFNE01.JPG,AFNE01.JPG,AFNE01.JPG,AFNE01.JPG,,,,,4,5,45,1,,,,,,,,,,,,,,,,,,,AMSA15.jpg,AMSA06.jpg,AMNE11.jpg,AMNE19.jpg,AMNE19.jpg,MN,1,num_4,16,num_4,0.883508339552,,,2017_Sep_22_1757,60.0065053046,FEMA4ImagesEEG,001,201602,
AFNE01.JPG,AFNE01.JPG,AFNE01.JPG,AFNE01.JPG,AFNE01.JPG,AFNE01.JPG,,,,,4,6,46,7,,,,,,,,,,,,,,,,,,,AMNE13.jpg,AMNE11.jpg,AMSA05.jpg,AMSA19.jpg,AMSA05.jpg,MS,2,num_2,32,num_8,0.900129386355,,,2017_Sep_22_1757,60.0065053046,FEMA4ImagesEEG,001,201602,
AFNE01.JPG,AFNE01.JPG,AFNE01.JPG,AFNE01.JPG,AFNE01.JPG,AFNE01.JPG,,,,,4,7,47,2,,,,,,,,,,,,,,,,,,,AMNE18.jpg,AMNE16.jpg,AMSA20.jpg,AMSA14.jpg,AMSA14.jpg,MS,2,num_4,16,num_4,0.583357976826,,,2017_Sep_22_1757,60.0065053046,FEMA4ImagesEEG,001,201602,
AFNE01.JPG,AFNE01.JPG,AFNE01.JPG,AFNE01.JPG,AFNE01.JPG,AFNE01.JPG,,,,,4,8,48,8,,,,,,,,,,,,,,,,,,,AMSA19.jpg,AMSA06.jpg,AMNE19.jpg,AMNE08.jpg,AMNE08.jpg,MN,1,num_4,32,num_6,1.13344242756,,,2017_Sep_22_1757,60.0065053046,FEMA4ImagesEEG,001,201602,
AFNE01.JPG,AFNE01.JPG,AFNE01.JPG,AFNE01.JPG,AFNE01.JPG,AFNE01.JPG,,,,,4,9,49,9,,,,,,,,,,,,,,,,,,,AMNE07.jpg,AMSA17.jpg,AMNE04.jpg,AMSA15.jpg,AMNE07.jpg,MN,1,num_8,32,num_2,1.13343248464,,,2017_Sep_22_1757,60.0065053046,FEMA4ImagesEEG,001,201602,
AFNE01.JPG,AFNE01.JPG,AFNE01.JPG,AFNE01.JPG,AFNE01.JPG,AFNE01.JPG,,,,,5,0,50,6,,,,,,,,,,,,,,,,,,,AMSA12.jpg,AMNE08.jpg,AMNE01.jpg,AMSA10.jpg,AMSA12.jpg,MS,2,num_8,32,num_6,0.800087177024,,,2017_Sep_22_1757,60.0065053046,FEMA4ImagesEEG,001,201602,
AFNE01.JPG,AFNE01.JPG,AFNE01.JPG,AFNE01.JPG,AFNE01.JPG,AFNE01.JPG,,,,,5,1,51,3,,,,,,,,,,,,,,,,,,,AMNE01.jpg,AMSA04.jpg,AMSA19.jpg,AMNE12.jpg,AMSA04.jpg,MS,2,num_6,16,num_6,0.400187119481,,,2017_Sep_22_1757,60.0065053046,FEMA4ImagesEEG,001,201602,
AFNE01.JPG,AFNE01.JPG,AFNE01.JPG,AFNE01.JPG,AFNE01.JPG,AFNE01.JPG,,,,,5,2,52,4,,,,,,,,,,,,,,,,,,,AMSA10.jpg,AMSA16.jpg,AMNE14.jpg,AMNE10.jpg,AMNE10.jpg,MN,1,num_4,16,num_4,1.06676290993,,,2017_Sep_22_1757,60.0065053046,FEMA4ImagesEEG,001,201602,
AFNE01.JPG,AFNE01.JPG,AFNE01.JPG,AFNE01.JPG,AFNE01.JPG,AFNE01.JPG,,,,,5,3,53,7,,,,,,,,,,,,,,,,,,,AMNE02.jpg,AMSA10.jpg,AMNE06.jpg,AMSA15.jpg,AMNE02.jpg,MN,1,num_8,16,num_8,0.616786740882,,,2017_Sep_22_1757,60.0065053046,FEMA4ImagesEEG,001,201602,
AFNE01.JPG,AFNE01.JPG,AFNE01.JPG,AFNE01.JPG,AFNE01.JPG,AFNE01.JPG,,,,,5,4,54,0,,,,,,,,,,,,,,,,,,,AMSA09.jpg,AMSA14.jpg,AMNE10.jpg,AMNE20.jpg,AMNE10.jpg,MN,1,num_2,32,num_8,0.750126211033,,,2017_Sep_22_1757,60.0065053046,FEMA4ImagesEEG,001,201602,
AFNE01.JPG,AFNE01.JPG,AFNE01.JPG,AFNE01.JPG,AFNE01.JPG,AFNE01.JPG,,,,,5,5,55,1,,,,,,,,,,,,,,,,,,,AMNE14.jpg,AMSA16.jpg,AMSA15.jpg,AMNE04.jpg,AMNE14.jpg,MN,1,num_8,32,num_6,0.633545384973,,,2017_Sep_22_1757,60.0065053046,FEMA4ImagesEEG,001,201602,
AFNE01.JPG,AFNE01.JPG,AFNE01.JPG,AFNE01.JPG,AFNE01.JPG,AFNE01.JPG,,,,,5,6,56,2,,,,,,,,,,,,,,,,,,,AMNE03.jpg,AMSA02.jpg,AMNE07.jpg,AMSA03.jpg,AMSA02.jpg,MS,2,num_6,32,num_4,0.933457117437,,,2017_Sep_22_1757,60.0065053046,FEMA4ImagesEEG,001,201602,
AFNE01.JPG,AFNE01.JPG,AFNE01.JPG,AFNE01.JPG,AFNE01.JPG,AFNE01.JPG,,,,,5,7,57,9,,,,,,,,,,,,,,,,,,,AMNE19.jpg,AMNE07.jpg,AMSA13.jpg,AMSA11.jpg,AMNE19.jpg,MN,1,num_8,32,num_6,1.2833525884,,,2017_Sep_22_1757,60.0065053046,FEMA4ImagesEEG,001,201602,
AFNE01.JPG,AFNE01.JPG,AFNE01.JPG,AFNE01.JPG,AFNE01.JPG,AFNE01.JPG,,,,,5,8,58,8,,,,,,,,,,,,,,,,,,,AMSA02.jpg,AMSA13.jpg,AMNE06.jpg,AMNE17.jpg,AMSA13.jpg,MS,2,num_6,32,num_4,2.38337779853,,,2017_Sep_22_1757,60.0065053046,FEMA4ImagesEEG,001,201602,
AFNE01.JPG,AFNE01.JPG,AFNE01.JPG,AFNE01.JPG,AFNE01.JPG,AFNE01.JPG,,,,,5,9,59,5,,,,,,,,,,,,,,,,,,,AMNE14.jpg,AMSA18.jpg,AMNE13.jpg,AMSA12.jpg,AMSA18.jpg,MS,2,num_6,16,num_6,0.90017236546,,,2017_Sep_22_1757,60.0065053046,FEMA4ImagesEEG,001,201602,
,,,,,,,,,,,,,,,,,,,,,,,,,,,,,,,,,,,,,,,,,,,space,6.59967207583,2017_Sep_22_1757,60.0065053046,FEMA4ImagesEEG,001,201602,
AFNE01.JPG,AFNE01.JPG,AFNE01.JPG,AFNE01.JPG,AFNE01.JPG,AFNE01.JPG,,,,,,,,,0,0,0,3,,,,,,,,,,,,,,,AFSA04.jpg,AFSA13.jpg,AFNE06.jpg,AFNE02.jpg,AFSA13.jpg,FS,4,num_6,16,num_6,0.666804477782,,,2017_Sep_22_1757,60.0065053046,FEMA4ImagesEEG,001,201602,
AFNE01.JPG,AFNE01.JPG,AFNE01.JPG,AFNE01.JPG,AFNE01.JPG,AFNE01.JPG,,,,,,,,,0,1,1,8,,,,,,,,,,,,,,,AFSA03.jpg,AFNE04.jpg,AFSA02.jpg,AFNE08.jpg,AFSA02.jpg,FS,4,num_2,16,num_2,0.916744659848,,,2017_Sep_22_1757,60.0065053046,FEMA4ImagesEEG,001,201602,
AFNE01.JPG,AFNE01.JPG,AFNE01.JPG,AFNE01.JPG,AFNE01.JPG,AFNE01.JPG,,,,,,,,,0,2,2,7,,,,,,,,,,,,,,,AFSA11.jpg,AFNE17.jpg,AFNE07.jpg,AFSA07.jpg,AFSA11.jpg,FS,4,num_8,32,num_6,1.36643889879,,,2017_Sep_22_1757,60.0065053046,FEMA4ImagesEEG,001,201602,
AFNE01.JPG,AFNE01.JPG,AFNE01.JPG,AFNE01.JPG,AFNE01.JPG,AFNE01.JPG,,,,,,,,,0,3,3,0,,,,,,,,,,,,,,,AFSA02.jpg,AFSA12.jpg,AFNE08.jpg,AFNE10.jpg,AFNE08.jpg,FN,3,num_2,32,num_4,0.816645679604,,,2017_Sep_22_1757,60.0065053046,FEMA4ImagesEEG,001,201602,
AFNE01.JPG,AFNE01.JPG,AFNE01.JPG,AFNE01.JPG,AFNE01.JPG,AFNE01.JPG,,,,,,,,,0,4,4,2,,,,,,,,,,,,,,,AFSA05.jpg,AFNE04.jpg,AFNE08.jpg,AFSA20.jpg,AFSA05.jpg,FS,4,num_8,32,num_4,1.01681990536,,,2017_Sep_22_1757,60.0065053046,FEMA4ImagesEEG,001,201602,
AFNE01.JPG,AFNE01.JPG,AFNE01.JPG,AFNE01.JPG,AFNE01.JPG,AFNE01.JPG,,,,,,,,,0,5,5,9,,,,,,,,,,,,,,,AFSA20.jpg,AFNE06.jpg,AFSA13.jpg,AFNE02.jpg,AFNE06.jpg,FN,3,num_6,16,num_6,1.00014016321,,,2017_Sep_22_1757,60.0065053046,FEMA4ImagesEEG,001,201602,
AFNE01.JPG,AFNE01.JPG,AFNE01.JPG,AFNE01.JPG,AFNE01.JPG,AFNE01.JPG,,,,,,,,,0,6,6,4,,,,,,,,,,,,,,,AFNE19.jpg,AFNE16.jpg,AFSA20.jpg,AFSA15.jpg,AFNE19.jpg,FN,3,num_8,32,num_2,1.16672044401,,,2017_Sep_22_1757,60.0065053046,FEMA4ImagesEEG,001,201602,
AFNE01.JPG,AFNE01.JPG,AFNE01.JPG,AFNE01.JPG,AFNE01.JPG,AFNE01.JPG,,,,,,,,,0,7,7,6,,,,,,,,,,,,,,,AFSA19.jpg,AFNE01.jpg,AFNE20.jpg,AFSA07.jpg,AFSA19.jpg,FS,4,num_8,16,num_8,0.500170312729,,,2017_Sep_22_1757,60.0065053046,FEMA4ImagesEEG,001,201602,
AFNE01.JPG,AFNE01.JPG,AFNE01.JPG,AFNE01.JPG,AFNE01.JPG,AFNE01.JPG,,,,,,,,,0,8,8,5,,,,,,,,,,,,,,,AFSA10.jpg,AFNE09.jpg,AFSA08.jpg,AFNE13.jpg,AFNE13.jpg,FN,3,num_4,32,num_6,0.71679174442,,,2017_Sep_22_1757,60.0065053046,FEMA4ImagesEEG,001,201602,
AFNE01.JPG,AFNE01.JPG,AFNE01.JPG,AFNE01.JPG,AFNE01.JPG,AFNE01.JPG,,,,,,,,,0,9,9,1,,,,,,,,,,,,,,,AFSA19.jpg,AFNE11.jpg,AFSA09.jpg,AFNE07.jpg,AFNE07.jpg,FN,3,num_4,16,num_4,0.433464173708,,,2017_Sep_22_1757,60.0065053046,FEMA4ImagesEEG,001,201602,
AFNE01.JPG,AFNE01.JPG,AFNE01.JPG,AFNE01.JPG,AFNE01.JPG,AFNE01.JPG,,,,,,,,,1,0,10,0,,,,,,,,,,,,,,,AFSA05.jpg,AFSA01.jpg,AFNE10.jpg,AFNE16.jpg,AFNE10.jpg,FN,3,num_2,16,num_2,0.833499262619,,,2017_Sep_22_1757,60.0065053046,FEMA4ImagesEEG,001,201602,
AFNE01.JPG,AFNE01.JPG,AFNE01.JPG,AFNE01.JPG,AFNE01.JPG,AFNE01.JPG,,,,,,,,,1,1,11,4,,,,,,,,,,,,,,,AFNE02.jpg,AFSA16.jpg,AFSA15.jpg,AFNE17.jpg,AFSA15.jpg,FS,4,num_2,16,num_2,0.516818622398,,,2017_Sep_22_1757,60.0065053046,FEMA4ImagesEEG,001,201602,
AFNE01.JPG,AFNE01.JPG,AFNE01.JPG,AFNE01.JPG,AFNE01.JPG,AFNE01.JPG,,,,,,,,,1,2,12,9,,,,,,,,,,,,,,,AFSA04.jpg,AFNE15.jpg,AFSA03.jpg,AFNE02.jpg,AFSA04.jpg,FS,4,num_8,32,num_4,1.11679732529,,,2017_Sep_22_1757,60.0065053046,FEMA4ImagesEEG,001,201602,
AFNE01.JPG,AFNE01.JPG,AFNE01.JPG,AFNE01.JPG,AFNE01.JPG,AFNE01.JPG,,,,,,,,,1,3,13,8,,,,,,,,,,,,,,,AFNE11.jpg,AFSA05.jpg,AFNE20.jpg,AFSA02.jpg,AFNE11.jpg,FN,3,num_8,32,num_2,2.14971066081,,,2017_Sep_22_1757,60.0065053046,FEMA4ImagesEEG,001,201602,
AFNE01.JPG,AFNE01.JPG,AFNE01.JPG,AFNE01.JPG,AFNE01.JPG,AFNE01.JPG,,,,,,,,,1,4,14,3,,,,,,,,,,,,,,,AFSA09.jpg,AFNE13.jpg,AFSA02.jpg,AFNE10.jpg,AFNE10.jpg,FN,3,num_4,16,num_4,0.650127301547,,,2017_Sep_22_1757,60.0065053046,FEMA4ImagesEEG,001,201602,
AFNE01.JPG,AFNE01.JPG,AFNE01.JPG,AFNE01.JPG,AFNE01.JPG,AFNE01.JPG,,,,,,,,,1,5,15,2,,,,,,,,,,,,,,,AFSA01.jpg,AFNE19.jpg,AFNE16.jpg,AFSA20.jpg,AFSA01.jpg,FS,4,num_8,16,num_8,1.70003245885,,,2017_Sep_22_1757,60.0065053046,FEMA4ImagesEEG,001,201602,
AFNE01.JPG,AFNE01.JPG,AFNE01.JPG,AFNE01.JPG,AFNE01.JPG,AFNE01.JPG,,,,,,,,,1,6,16,1,,,,,,,,,,,,,,,AFSA01.jpg,AFNE15.jpg,AFNE20.jpg,AFSA19.jpg,AFSA19.jpg,FS,4,num_4,32,num_2,0.650152319235,,,2017_Sep_22_1757,60.0065053046,FEMA4ImagesEEG,001,201602,
AFNE01.JPG,AFNE01.JPG,AFNE01.JPG,AFNE01.JPG,AFNE01.JPG,AFNE01.JPG,,,,,,,,,1,7,17,7,,,,,,,,,,,,,,,AFNE13.jpg,AFSA08.jpg,AFSA13.jpg,AFNE20.jpg,AFSA13.jpg,FS,4,num_2,16,num_2,0.516809320949,,,2017_Sep_22_1757,60.0065053046,FEMA4ImagesEEG,001,201602,
AFNE01.JPG,AFNE01.JPG,AFNE01.JPG,AFNE01.JPG,AFNE01.JPG,AFNE01.JPG,,,,,,,,,1,8,18,5,,,,,,,,,,,,,,,AFNE09.jpg,AFSA11.jpg,AFNE02.jpg,AFSA14.jpg,AFNE02.jpg,FN,3,num_2,32,num_4,0.733550067771,,,2017_Sep_22_1757,60.0065053046,FEMA4ImagesEEG,001,201602,
AFNE01.JPG,AFNE01.JPG,AFNE01.JPG,AFNE01.JPG,AFNE01.JPG,AFNE01.JPG,,,,,,,,,1,9,19,6,,,,,,,,,,,,,,,AFSA05.jpg,AFSA09.jpg,AFNE18.jpg,AFNE06.jpg,AFNE18.jpg,FN,3,num_2,16,num_2,0.983435724105,,,2017_Sep_22_1757,60.0065053046,FEMA4ImagesEEG,001,201602,
AFNE01.JPG,AFNE01.JPG,AFNE01.JPG,AFNE01.JPG,AFNE01.JPG,AFNE01.JPG,,,,,,,,,2,0,20,3,,,,,,,,,,,,,,,AFSA08.jpg,AFNE19.jpg,AFNE02.jpg,AFSA18.jpg,AFSA08.jpg,FS,4,num_8,32,num_2,0.7501672657,,,2017_Sep_22_1757,60.0065053046,FEMA4ImagesEEG,001,201602,
AFNE01.JPG,AFNE01.JPG,AFNE01.JPG,AFNE01.JPG,AFNE01.JPG,AFNE01.JPG,,,,,,,,,2,1,21,7,,,,,,,,,,,,,,,AFSA05.jpg,AFSA02.jpg,AFNE08.jpg,AFNE09.jpg,AFNE09.jpg,FN,3,num_4,32,num_2,0.866737828092,,,2017_Sep_22_1757,60.0065053046,FEMA4ImagesEEG,001,201602,
AFNE01.JPG,AFNE01.JPG,AFNE01.JPG,AFNE01.JPG,AFNE01.JPG,AFNE01.JPG,,,,,,,,,2,2,22,1,,,,,,,,,,,,,,,AFSA16.jpg,AFSA08.jpg,AFNE14.jpg,AFNE12.jpg,AFNE12.jpg,FN,3,num_4,16,num_4,0.93342953383,,,2017_Sep_22_1757,60.0065053046,FEMA4ImagesEEG,001,201602,
AFNE01.JPG,AFNE01.JPG,AFNE01.JPG,AFNE01.JPG,AFNE01.JPG,AFNE01.JPG,,,,,,,,,2,3,23,2,,,,,,,,,,,,,,,AFSA02.jpg,AFNE13.jpg,AFNE20.jpg,AFSA17.jpg,AFNE13.jpg,FN,3,num_6,16,num_6,1.03346564911,,,2017_Sep_22_1757,60.0065053046,FEMA4ImagesEEG,001,201602,
AFNE01.JPG,AFNE01.JPG,AFNE01.JPG,AFNE01.JPG,AFNE01.JPG,AFNE01.JPG,,,,,,,,,2,4,24,8,,,,,,,,,,,,,,,AFSA17.jpg,AFSA04.jpg,AFNE18.jpg,AFNE03.jpg,AFSA17.jpg,FS,4,num_8,16,num_8,0.616820739278,,,2017_Sep_22_1757,60.0065053046,FEMA4ImagesEEG,001,201602,
AFNE01.JPG,AFNE01.JPG,AFNE01.JPG,AFNE01.JPG,AFNE01.JPG,AFNE01.JPG,,,,,,,,,2,5,25,6,,,,,,,,,,,,,,,AFNE02.jpg,AFNE03.jpg,AFSA18.jpg,AFSA10.jpg,AFSA18.jpg,FS,4,num_2,32,num_4,0.633496632554,,,2017_Sep_22_1757,60.0065053046,FEMA4ImagesEEG,001,201602,
AFNE01.JPG,AFNE01.JPG,AFNE01.JPG,AFNE01.JPG,AFNE01.JPG,AFNE01.JPG,,,,,,,,,2,6,26,0,,,,,,,,,,,,,,,AFNE05.jpg,AFNE12.jpg,AFSA08.jpg,AFSA07.jpg,AFSA08.jpg,FS,4,num_2,16,num_2,0.650172525831,,,2017_Sep_22_1757,60.0065053046,FEMA4ImagesEEG,001,201602,
AFNE01.JPG,AFNE01.JPG,AFNE01.JPG,AFNE01.JPG,AFNE01.JPG,AFNE01.JPG,,,,,,,,,2,7,27,5,,,,,,,,,,,,,,,AFNE04.jpg,AFSA17.jpg,AFNE10.jpg,AFSA07.jpg,AFSA17.jpg,FS,4,num_6,16,num_6,1.05010529881,,,2017_Sep_22_1757,60.0065053046,FEMA4ImagesEEG,001,201602,
AFNE01.JPG,AFNE01.JPG,AFNE01.JPG,AFNE01.JPG,AFNE01.JPG,AFNE01.JPG,,,,,,,,,2,8,28,9,,,,,,,,,,,,,,,AFNE07.jpg,AFNE08.jpg,AFSA14.jpg,AFSA04.jpg,AFSA04.jpg,FS,4,num_4,16,num_4,0.633352620474,,,2017_Sep_22_1757,60.0065053046,FEMA4ImagesEEG,001,201602,
AFNE01.JPG,AFNE01.JPG,AFNE01.JPG,AFNE01.JPG,AFNE01.JPG,AFNE01.JPG,,,,,,,,,2,9,29,4,,,,,,,,,,,,,,,AFSA19.jpg,AFNE12.jpg,AFNE04.jpg,AFSA12.jpg,AFSA12.jpg,FS,4,num_4,16,num_4,1.18341943053,,,2017_Sep_22_1757,60.0065053046,FEMA4ImagesEEG,001,201602,
AFNE01.JPG,AFNE01.JPG,AFNE01.JPG,AFNE01.JPG,AFNE01.JPG,AFNE01.JPG,,,,,,,,,3,0,30,0,,,,,,,,,,,,,,,AFSA03.jpg,AFNE13.jpg,AFNE04.jpg,AFSA14.jpg,AFNE13.jpg,FN,3,num_6,16,num_6,1.08344585948,,,2017_Sep_22_1757,60.0065053046,FEMA4ImagesEEG,001,201602,
AFNE01.JPG,AFNE01.JPG,AFNE01.JPG,AFNE01.JPG,AFNE01.JPG,AFNE01.JPG,,,,,,,,,3,1,31,6,,,,,,,,,,,,,,,AFNE19.jpg,AFSA09.jpg,AFNE05.jpg,AFSA01.jpg,AFSA09.jpg,FS,4,num_6,32,num_4,0.45017438612,,,2017_Sep_22_1757,60.0065053046,FEMA4ImagesEEG,001,201602,
AFNE01.JPG,AFNE01.JPG,AFNE01.JPG,AFNE01.JPG,AFNE01.JPG,AFNE01.JPG,,,,,,,,,3,2,32,4,,,,,,,,,,,,,,,AFNE15.jpg,AFSA01.jpg,AFSA04.jpg,AFNE06.jpg,AFSA01.jpg,FS,4,num_6,32,num_2,0.933468343323,,,2017_Sep_22_1757,60.0065053046,FEMA4ImagesEEG,001,201602,
AFNE01.JPG,AFNE01.JPG,AFNE01.JPG,AFNE01.JPG,AFNE01.JPG,AFNE01.JPG,,,,,,,,,3,3,33,1,,,,,,,,,,,,,,,AFSA13.jpg,AFSA17.jpg,AFNE17.jpg,AFNE04.jpg,AFSA13.jpg,FS,4,num_8,16,num_8,0.833489319692,,,2017_Sep_22_1757,60.0065053046,FEMA4ImagesEEG,001,201602,
AFNE01.JPG,AFNE01.JPG,AFNE01.JPG,AFNE01.JPG,AFNE01.JPG,AFNE01.JPG,,,,,,,,,3,4,34,7,,,,,,,,,,,,,,,AFNE04.jpg,AFSA02.jpg,AFSA07.jpg,AFNE09.jpg,AFSA02.jpg,FS,4,num_6,16,num_6,0.833508243328,,,2017_Sep_22_1757,60.0065053046,FEMA4ImagesEEG,001,201602,
AFNE01.JPG,AFNE01.JPG,AFNE01.JPG,AFNE01.JPG,AFNE01.JPG,AFNE01.JPG,,,,,,,,,3,5,35,3,,,,,,,,,,,,,,,AFSA13.jpg,AFNE11.jpg,AFSA19.jpg,AFNE14.jpg,AFNE11.jpg,FN,3,num_6,32,num_2,1.81648787572,,,2017_Sep_22_1757,60.0065053046,FEMA4ImagesEEG,001,201602,
AFNE01.JPG,AFNE01.JPG,AFNE01.JPG,AFNE01.JPG,AFNE01.JPG,AFNE01.JPG,,,,,,,,,3,6,36,5,,,,,,,,,,,,,,,AFSA05.jpg,AFSA18.jpg,AFNE18.jpg,AFNE17.jpg,AFSA05.jpg,FS,4,num_8,32,num_2,1.06677734321,,,2017_Sep_22_1757,60.0065053046,FEMA4ImagesEEG,001,201602,
AFNE01.JPG,AFNE01.JPG,AFNE01.JPG,AFNE01.JPG,AFNE01.JPG,AFNE01.JPG,,,,,,,,,3,7,37,2,,,,,,,,,,,,,,,AFNE20.jpg,AFSA13.jpg,AFSA11.jpg,AFNE18.jpg,AFNE18.jpg,FN,3,num_4,16,num_4,0.766763615557,,,2017_Sep_22_1757,60.0065053046,FEMA4ImagesEEG,001,201602,
AFNE01.JPG,AFNE01.JPG,AFNE01.JPG,AFNE01.JPG,AFNE01.JPG,AFNE01.JPG,,,,,,,,,3,8,38,8,,,,,,,,,,,,,,,AFNE18.jpg,AFSA14.jpg,AFSA19.jpg,AFNE15.jpg,AFNE18.jpg,FN,3,num_8,16,num_8,0.666807043699,,,2017_Sep_22_1757,60.0065053046,FEMA4ImagesEEG,001,201602,
AFNE01.JPG,AFNE01.JPG,AFNE01.JPG,AFNE01.JPG,AFNE01.JPG,AFNE01.JPG,,,,,,,,,3,9,39,9,,,,,,,,,,,,,,,AFSA01.jpg,AFNE02.jpg,AFSA08.jpg,AFNE11.jpg,AFNE11.jpg,FN,3,num_4,16,num_4,0.966753416036,,,2017_Sep_22_1757,60.0065053046,FEMA4ImagesEEG,001,201602,
AFNE01.JPG,AFNE01.JPG,AFNE01.JPG,AFNE01.JPG,AFNE01.JPG,AFNE01.JPG,,,,,,,,,4,0,40,9,,,,,,,,,,,,,,,AFSA05.jpg,AFNE07.jpg,AFNE08.jpg,AFSA01.jpg,AFSA05.jpg,FS,4,num_8,16,num_8,0.833447623545,,,2017_Sep_22_1757,60.0065053046,FEMA4ImagesEEG,001,201602,
AFNE01.JPG,AFNE01.JPG,AFNE01.JPG,AFNE01.JPG,AFNE01.JPG,AFNE01.JPG,,,,,,,,,4,1,41,0,,,,,,,,,,,,,,,AFSA07.jpg,AFSA16.jpg,AFNE01.jpg,AFNE13.jpg,AFNE01.jpg,FN,3,num_2,32,num_6,0.550127109103,,,2017_Sep_22_1757,60.0065053046,FEMA4ImagesEEG,001,201602,
AFNE01.JPG,AFNE01.JPG,AFNE01.JPG,AFNE01.JPG,AFNE01.JPG,AFNE01.JPG,,,,,,,,,4,2,42,3,,,,,,,,,,,,,,,AFNE06.jpg,AFNE17.jpg,AFSA03.jpg,AFSA08.jpg,AFSA03.jpg,FS,4,num_2,32,num_4,0.983451119606,,,2017_Sep_22_1757,60.0065053046,FEMA4ImagesEEG,001,201602,
AFNE01.JPG,AFNE01.JPG,AFNE01.JPG,AFNE01.JPG,AFNE01.JPG,AFNE01.JPG,,,,,,,,,4,3,43,1,,,,,,,,,,,,,,,AFNE10.jpg,AFSA06.jpg,AFNE09.jpg,AFSA20.jpg,AFNE09.jpg,FN,3,num_2,32,num_8,1.70010622895,,,2017_Sep_22_1757,60.0065053046,FEMA4ImagesEEG,001,201602,
AFNE01.JPG,AFNE01.JPG,AFNE01.JPG,AFNE01.JPG,AFNE01.JPG,AFNE01.JPG,,,,,,,,,4,4,44,6,,,,,,,,,,,,,,,AFNE15.jpg,AFNE13.jpg,AFSA10.jpg,AFSA12.jpg,AFSA12.jpg,FS,4,num_4,16,num_4,0.750122682897,,,2017_Sep_22_1757,60.0065053046,FEMA4ImagesEEG,001,201602,
AFNE01.JPG,AFNE01.JPG,AFNE01.JPG,AFNE01.JPG,AFNE01.JPG,AFNE01.JPG,,,,,,,,,4,5,45,4,,,,,,,,,,,,,,,AFSA08.jpg,AFSA20.jpg,AFNE03.jpg,AFNE10.jpg,AFNE10.jpg,FN,3,num_4,16,num_4,1.21673946386,,,2017_Sep_22_1757,60.0065053046,FEMA4ImagesEEG,001,201602,
AFNE01.JPG,AFNE01.JPG,AFNE01.JPG,AFNE01.JPG,AFNE01.JPG,AFNE01.JPG,,,,,,,,,4,6,46,7,,,,,,,,,,,,,,,AFSA14.jpg,AFSA09.jpg,AFNE05.jpg,AFNE09.jpg,AFNE09.jpg,FN,3,num_4,32,num_2,0.866770864272,,,2017_Sep_22_1757,60.0065053046,FEMA4ImagesEEG,001,201602,
AFNE01.JPG,AFNE01.JPG,AFNE01.JPG,AFNE01.JPG,AFNE01.JPG,AFNE01.JPG,,,,,,,,,4,7,47,2,,,,,,,,,,,,,,,AFSA05.jpg,AFSA06.jpg,AFNE17.jpg,AFNE19.jpg,AFNE17.jpg,FN,3,num_2,32,num_6,0.683497370257,,,2017_Sep_22_1757,60.0065053046,FEMA4ImagesEEG,001,201602,
AFNE01.JPG,AFNE01.JPG,AFNE01.JPG,AFNE01.JPG,AFNE01.JPG,AFNE01.JPG,,,,,,,,,4,8,48,8,,,,,,,,,,,,,,,AFSA02.jpg,AFNE14.jpg,AFNE17.jpg,AFSA17.jpg,AFNE17.jpg,FN,3,num_2,32,num_6,0.600150298576,,,2017_Sep_22_1757,60.0065053046,FEMA4ImagesEEG,001,201602,
AFNE01.JPG,AFNE01.JPG,AFNE01.JPG,AFNE01.JPG,AFNE01.JPG,AFNE01.JPG,,,,,,,,,4,9,49,5,,,,,,,,,,,,,,,AFSA20.jpg,AFNE01.jpg,AFNE02.jpg,AFSA19.jpg,AFSA20.jpg,FS,4,num_8,32,num_2,0.833450510201,,,2017_Sep_22_1757,60.0065053046,FEMA4ImagesEEG,001,201602,
AFNE01.JPG,AFNE01.JPG,AFNE01.JPG,AFNE01.JPG,AFNE01.JPG,AFNE01.JPG,,,,,,,,,5,0,50,5,,,,,,,,,,,,,,,AFNE14.jpg,AFSA11.jpg,AFSA13.jpg,AFNE19.jpg,AFNE19.jpg,FN,3,num_4,16,num_4,1.20011264375,,,2017_Sep_22_1757,60.0065053046,FEMA4ImagesEEG,001,201602,
AFNE01.JPG,AFNE01.JPG,AFNE01.JPG,AFNE01.JPG,AFNE01.JPG,AFNE01.JPG,,,,,,,,,5,1,51,3,,,,,,,,,,,,,,,AFSA01.jpg,AFNE18.jpg,AFNE02.jpg,AFSA10.jpg,AFNE18.jpg,FN,3,num_6,16,num_6,1.71653611496,,,2017_Sep_22_1757,60.0065053046,FEMA4ImagesEEG,001,201602,
AFNE01.JPG,AFNE01.JPG,AFNE01.JPG,AFNE01.JPG,AFNE01.JPG,AFNE01.JPG,,,,,,,,,5,2,52,9,,,,,,,,,,,,,,,AFNE10.jpg,AFSA07.jpg,AFSA08.jpg,AFNE14.jpg,AFSA08.jpg,FS,4,num_2,16,num_2,0.783494355303,,,2017_Sep_22_1757,60.0065053046,FEMA4ImagesEEG,001,201602,
AFNE01.JPG,AFNE01.JPG,AFNE01.JPG,AFNE01.JPG,AFNE01.JPG,AFNE01.JPG,,,,,,,,,5,3,53,4,,,,,,,,,,,,,,,AFSA07.jpg,AFSA12.jpg,AFNE11.jpg,AFNE09.jpg,AFNE09.jpg,FN,3,num_4,16,num_4,1.25011273997,,,2017_Sep_22_1757,60.0065053046,FEMA4ImagesEEG,001,201602,
AFNE01.JPG,AFNE01.JPG,AFNE01.JPG,AFNE01.JPG,AFNE01.JPG,AFNE01.JPG,,,,,,,,,5,4,54,8,,,,,,,,,,,,,,,AFSA13.jpg,AFNE16.jpg,AFNE08.jpg,AFSA11.jpg,AFSA13.jpg,FS,4,num_8,16,num_8,0.600123997929,,,2017_Sep_22_1757,60.0065053046,FEMA4ImagesEEG,001,201602,
AFNE01.JPG,AFNE01.JPG,AFNE01.JPG,AFNE01.JPG,AFNE01.JPG,AFNE01.JPG,,,,,,,,,5,5,55,0,,,,,,,,,,,,,,,AFSA14.jpg,AFSA02.jpg,AFNE09.jpg,AFNE19.jpg,AFSA02.jpg,FS,4,num_6,16,num_6,1.05013320316,,,2017_Sep_22_1757,60.0065053046,FEMA4ImagesEEG,001,201602,
AFNE01.JPG,AFNE01.JPG,AFNE01.JPG,AFNE01.JPG,AFNE01.JPG,AFNE01.JPG,,,,,,,,,5,6,56,2,,,,,,,,,,,,,,,AFNE19.jpg,AFNE10.jpg,AFSA01.jpg,AFSA14.jpg,AFNE10.jpg,FN,3,num_6,32,num_8,1.4333904036,,,2017_Sep_22_1757,60.0065053046,FEMA4ImagesEEG,001,201602,
AFNE01.JPG,AFNE01.JPG,AFNE01.JPG,AFNE01.JPG,AFNE01.JPG,AFNE01.JPG,,,,,,,,,5,7,57,6,,,,,,,,,,,,,,,AFSA15.jpg,AFNE05.jpg,AFSA06.jpg,AFNE04.jpg,AFSA15.jpg,FS,4,num_8,16,num_8,0.733490089468,,,2017_Sep_22_1757,60.0065053046,FEMA4ImagesEEG,001,201602,
AFNE01.JPG,AFNE01.JPG,AFNE01.JPG,AFNE01.JPG,AFNE01.JPG,AFNE01.JPG,,,,,,,,,5,8,58,1,,,,,,,,,,,,,,,AFSA01.jpg,AFSA09.jpg,AFNE11.jpg,AFNE16.jpg,AFSA09.jpg,FS,4,num_6,32,num_4,0.600179806621,,,2017_Sep_22_1757,60.0065053046,FEMA4ImagesEEG,001,201602,
AFNE01.JPG,AFNE01.JPG,AFNE01.JPG,AFNE01.JPG,AFNE01.JPG,AFNE01.JPG,,,,,,,,,5,9,59,7,,,,,,,,,,,,,,,AFNE08.jpg,AFNE09.jpg,AFSA13.jpg,AFSA03.jpg,AFSA13.jpg,FS,4,num_2,16,num_2,0.733462826602,,,2017_Sep_22_1757,60.0065053046,FEMA4ImagesEEG,001,201602,
,,,,,,,,,,,,,,,,,,,,,,,,,,,,,,,,,,,,,,,,,,,space,7.5332469047,2017_Sep_22_1757,60.0065053046,FEMA4ImagesEEG,001,201602,
AFNE01.JPG,AFNE01.JPG,AFNE01.JPG,AFNE01.JPG,AFNE01.JPG,AFNE01.JPG,,,,,,,,,,,,,0,0,0,9,,,,,,,,,,,AMNE12.jpg,AMNE19.jpg,AMSA08.jpg,AMSA12.jpg,AMSA12.jpg,MS,2,num_4,16,num_4,0.450193630497,,,2017_Sep_22_1757,60.0065053046,FEMA4ImagesEEG,001,201602,
AFNE01.JPG,AFNE01.JPG,AFNE01.JPG,AFNE01.JPG,AFNE01.JPG,AFNE01.JPG,,,,,,,,,,,,,0,1,1,7,,,,,,,,,,,AMSA12.jpg,AMNE13.jpg,AMNE02.jpg,AMSA17.jpg,AMSA12.jpg,MS,2,num_8,16,num_8,0.916800789277,,,2017_Sep_22_1757,60.0065053046,FEMA4ImagesEEG,001,201602,
AFNE01.JPG,AFNE01.JPG,AFNE01.JPG,AFNE01.JPG,AFNE01.JPG,AFNE01.JPG,,,,,,,,,,,,,0,2,2,1,,,,,,,,,,,AMNE09.jpg,AMNE18.jpg,AMSA03.jpg,AMSA09.jpg,AMNE18.jpg,MN,1,num_6,16,num_6,0.800125986514,,,2017_Sep_22_1757,60.0065053046,FEMA4ImagesEEG,001,201602,
AFNE01.JPG,AFNE01.JPG,AFNE01.JPG,AFNE01.JPG,AFNE01.JPG,AFNE01.JPG,,,,,,,,,,,,,0,3,3,3,,,,,,,,,,,AMSA07.jpg,AMNE09.jpg,AMNE19.jpg,AMSA04.jpg,AMSA07.jpg,MS,2,num_8,32,num_2,1.633444352,,,2017_Sep_22_1757,60.0065053046,FEMA4ImagesEEG,001,201602,
AFNE01.JPG,AFNE01.JPG,AFNE01.JPG,AFNE01.JPG,AFNE01.JPG,AFNE01.JPG,,,,,,,,,,,,,0,4,4,5,,,,,,,,,,,AMNE06.jpg,AMSA12.jpg,AMSA01.jpg,AMNE12.jpg,AMNE06.jpg,MN,1,num_8,32,num_6,0.750136795439,,,2017_Sep_22_1757,60.0065053046,FEMA4ImagesEEG,001,201602,
AFNE01.JPG,AFNE01.JPG,AFNE01.JPG,AFNE01.JPG,AFNE01.JPG,AFNE01.JPG,,,,,,,,,,,,,0,5,5,2,,,,,,,,,,,AMSA05.jpg,AMSA03.jpg,AMNE10.jpg,AMNE12.jpg,AMSA03.jpg,MS,2,num_6,16,num_6,0.400137725585,,,2017_Sep_22_1757,60.0065053046,FEMA4ImagesEEG,001,201602,
AFNE01.JPG,AFNE01.JPG,AFNE01.JPG,AFNE01.JPG,AFNE01.JPG,AFNE01.JPG,,,,,,,,,,,,,0,6,6,8,,,,,,,,,,,AMSA13.jpg,AMNE09.jpg,AMSA17.jpg,AMNE18.jpg,AMSA17.jpg,MS,2,num_2,16,num_2,0.766785425851,,,2017_Sep_22_1757,60.0065053046,FEMA4ImagesEEG,001,201602,
AFNE01.JPG,AFNE01.JPG,AFNE01.JPG,AFNE01.JPG,AFNE01.JPG,AFNE01.JPG,,,,,,,,,,,,,0,7,7,6,,,,,,,,,,,AMNE18.jpg,AMSA14.jpg,AMNE06.jpg,AMSA06.jpg,AMNE18.jpg,MN,1,num_8,16,num_8,0.933465777405,,,2017_Sep_22_1757,60.0065053046,FEMA4ImagesEEG,001,201602,
AFNE01.JPG,AFNE01.JPG,AFNE01.JPG,AFNE01.JPG,AFNE01.JPG,AFNE01.JPG,,,,,,,,,,,,,0,8,8,0,,,,,,,,,,,AMSA01.jpg,AMNE15.jpg,AMSA10.jpg,AMNE18.jpg,AMNE18.jpg,MN,1,num_4,32,num_6,1.06679209723,,,2017_Sep_22_1757,60.0065053046,FEMA4ImagesEEG,001,201602,
AFNE01.JPG,AFNE01.JPG,AFNE01.JPG,AFNE01.JPG,AFNE01.JPG,AFNE01.JPG,,,,,,,,,,,,,0,9,9,4,,,,,,,,,,,AMSA13.jpg,AMNE07.jpg,AMNE18.jpg,AMSA01.jpg,AMNE18.jpg,MN,1,num_2,32,num_6,1.11661899407,,,2017_Sep_22_1757,60.0065053046,FEMA4ImagesEEG,001,201602,
AFNE01.JPG,AFNE01.JPG,AFNE01.JPG,AFNE01.JPG,AFNE01.JPG,AFNE01.JPG,,,,,,,,,,,,,1,0,10,5,,,,,,,,,,,AMSA08.jpg,AMNE19.jpg,AMNE06.jpg,AMSA05.jpg,AMSA05.jpg,MS,2,num_4,16,num_4,1.46658855588,,,2017_Sep_22_1757,60.0065053046,FEMA4ImagesEEG,001,201602,
AFNE01.JPG,AFNE01.JPG,AFNE01.JPG,AFNE01.JPG,AFNE01.JPG,AFNE01.JPG,,,,,,,,,,,,,1,1,11,2,,,,,,,,,,,AMNE18.jpg,AMNE04.jpg,AMSA12.jpg,AMSA08.jpg,AMNE18.jpg,MN,1,num_8,32,num_2,1.20012835999,,,2017_Sep_22_1757,60.0065053046,FEMA4ImagesEEG,001,201602,
AFNE01.JPG,AFNE01.JPG,AFNE01.JPG,AFNE01.JPG,AFNE01.JPG,AFNE01.JPG,,,,,,,,,,,,,1,2,12,1,,,,,,,,,,,AMSA20.jpg,AMNE01.jpg,AMNE02.jpg,AMSA06.jpg,AMSA06.jpg,MS,2,num_4,16,num_4,1.13348348223,,,2017_Sep_22_1757,60.0065053046,FEMA4ImagesEEG,001,201602,
AFNE01.JPG,AFNE01.JPG,AFNE01.JPG,AFNE01.JPG,AFNE01.JPG,AFNE01.JPG,,,,,,,,,,,,,1,3,13,7,,,,,,,,,,,AMNE08.jpg,AMSA08.jpg,AMSA10.jpg,AMNE19.jpg,AMNE19.jpg,MN,1,num_4,32,num_8,1.05018612519,,,2017_Sep_22_1757,60.0065053046,FEMA4ImagesEEG,001,201602,
AFNE01.JPG,AFNE01.JPG,AFNE01.JPG,AFNE01.JPG,AFNE01.JPG,AFNE01.JPG,,,,,,,,,,,,,1,4,14,6,,,,,,,,,,,AMSA07.jpg,AMNE09.jpg,AMNE15.jpg,AMSA09.jpg,AMNE09.jpg,MN,1,num_6,32,num_8,0.966738020537,,,2017_Sep_22_1757,60.0065053046,FEMA4ImagesEEG,001,201602,
AFNE01.JPG,AFNE01.JPG,AFNE01.JPG,AFNE01.JPG,AFNE01.JPG,AFNE01.JPG,,,,,,,,,,,,,1,5,15,9,,,,,,,,,,,AMSA17.jpg,AMNE10.jpg,AMNE12.jpg,AMSA13.jpg,AMSA17.jpg,MS,2,num_8,16,num_8,1.01675158782,,,2017_Sep_22_1757,60.0065053046,FEMA4ImagesEEG,001,201602,
AFNE01.JPG,AFNE01.JPG,AFNE01.JPG,AFNE01.JPG,AFNE01.JPG,AFNE01.JPG,,,,,,,,,,,,,1,6,16,0,,,,,,,,,,,AMSA17.jpg,AMNE03.jpg,AMSA18.jpg,AMNE12.jpg,AMSA18.jpg,MS,2,num_2,32,num_6,1.16677112086,,,2017_Sep_22_1757,60.0065053046,FEMA4ImagesEEG,001,201602,
AFNE01.JPG,AFNE01.JPG,AFNE01.JPG,AFNE01.JPG,AFNE01.JPG,AFNE01.JPG,,,,,,,,,,,,,1,7,17,4,,,,,,,,,,,AMNE09.jpg,AMNE03.jpg,AMSA09.jpg,AMSA07.jpg,AMNE03.jpg,MN,1,num_6,32,num_8,0.933562320026,,,2017_Sep_22_1757,60.0065053046,FEMA4ImagesEEG,001,201602,
AFNE01.JPG,AFNE01.JPG,AFNE01.JPG,AFNE01.JPG,AFNE01.JPG,AFNE01.JPG,,,,,,,,,,,,,1,8,18,8,,,,,,,,,,,AMNE08.jpg,AMSA10.jpg,AMSA14.jpg,AMNE06.jpg,AMNE06.jpg,MN,1,num_4,32,num_6,0.683483257713,,,2017_Sep_22_1757,60.0065053046,FEMA4ImagesEEG,001,201602,
AFNE01.JPG,AFNE01.JPG,AFNE01.JPG,AFNE01.JPG,AFNE01.JPG,AFNE01.JPG,,,,,,,,,,,,,1,9,19,3,,,,,,,,,,,AMSA08.jpg,AMNE01.jpg,AMNE12.jpg,AMSA10.jpg,AMSA10.jpg,MS,2,num_4,32,num_8,0.716803291045,,,2017_Sep_22_1757,60.0065053046,FEMA4ImagesEEG,001,201602,
AFNE01.JPG,AFNE01.JPG,AFNE01.JPG,AFNE01.JPG,AFNE01.JPG,AFNE01.JPG,,,,,,,,,,,,,2,0,20,1,,,,,,,,,,,AMSA15.jpg,AMSA03.jpg,AMNE18.jpg,AMNE11.jpg,AMNE18.jpg,MN,1,num_2,16,num_2,0.76678478437,,,2017_Sep_22_1757,60.0065053046,FEMA4ImagesEEG,001,201602,
AFNE01.JPG,AFNE01.JPG,AFNE01.JPG,AFNE01.JPG,AFNE01.JPG,AFNE01.JPG,,,,,,,,,,,,,2,1,21,9,,,,,,,,,,,AMNE18.jpg,AMSA15.jpg,AMNE13.jpg,AMSA09.jpg,AMNE13.jpg,MN,1,num_2,32,num_8,0.866734620697,,,2017_Sep_22_1757,60.0065053046,FEMA4ImagesEEG,001,201602,
AFNE01.JPG,AFNE01.JPG,AFNE01.JPG,AFNE01.JPG,AFNE01.JPG,AFNE01.JPG,,,,,,,,,,,,,2,2,22,8,,,,,,,,,,,AMNE03.jpg,AMSA14.jpg,AMNE17.jpg,AMSA08.jpg,AMSA08.jpg,MS,2,num_4,32,num_8,1.03371710896,,,2017_Sep_22_1757,60.0065053046,FEMA4ImagesEEG,001,201602,
AFNE01.JPG,AFNE01.JPG,AFNE01.JPG,AFNE01.JPG,AFNE01.JPG,AFNE01.JPG,,,,,,,,,,,,,2,3,23,4,,,,,,,,,,,AMSA05.jpg,AMSA02.jpg,AMNE10.jpg,AMNE01.jpg,AMSA05.jpg,MS,2,num_8,16,num_8,0.650016646385,,,2017_Sep_22_1757,60.0065053046,FEMA4ImagesEEG,001,201602,
AFNE01.JPG,AFNE01.JPG,AFNE01.JPG,AFNE01.JPG,AFNE01.JPG,AFNE01.JPG,,,,,,,,,,,,,2,4,24,0,,,,,,,,,,,AMNE10.jpg,AMSA04.jpg,AMNE01.jpg,AMSA19.jpg,AMNE10.jpg,MN,1,num_8,16,num_8,0.766764257036,,,2017_Sep_22_1757,60.0065053046,FEMA4ImagesEEG,001,201602,
AFNE01.JPG,AFNE01.JPG,AFNE01.JPG,AFNE01.JPG,AFNE01.JPG,AFNE01.JPG,,,,,,,,,,,,,2,5,25,7,,,,,,,,,,,AMSA15.jpg,AMSA09.jpg,AMNE07.jpg,AMNE11.jpg,AMSA09.jpg,MS,2,num_6,16,num_6,1.10016922221,,,2017_Sep_22_1757,60.0065053046,FEMA4ImagesEEG,001,201602,
AFNE01.JPG,AFNE01.JPG,AFNE01.JPG,AFNE01.JPG,AFNE01.JPG,AFNE01.JPG,,,,,,,,,,,,,2,6,26,6,,,,,,,,,,,AMNE02.jpg,AMNE05.jpg,AMSA20.jpg,AMSA01.jpg,AMSA20.jpg,MS,2,num_2,32,num_8,1.03354904141,,,2017_Sep_22_1757,60.0065053046,FEMA4ImagesEEG,001,201602,
AFNE01.JPG,AFNE01.JPG,AFNE01.JPG,AFNE01.JPG,AFNE01.JPG,AFNE01.JPG,,,,,,,,,,,,,2,7,27,3,,,,,,,,,,,AMSA12.jpg,AMNE04.jpg,AMNE13.jpg,AMSA04.jpg,AMNE04.jpg,MN,1,num_6,16,num_6,1.31675344811,,,2017_Sep_22_1757,60.0065053046,FEMA4ImagesEEG,001,201602,
AFNE01.JPG,AFNE01.JPG,AFNE01.JPG,AFNE01.JPG,AFNE01.JPG,AFNE01.JPG,,,,,,,,,,,,,2,8,28,5,,,,,,,,,,,AMNE17.jpg,AMNE05.jpg,AMSA06.jpg,AMSA09.jpg,AMNE17.jpg,MN,1,num_8,16,num_8,0.833489640432,,,2017_Sep_22_1757,60.0065053046,FEMA4ImagesEEG,001,201602,
AFNE01.JPG,AFNE01.JPG,AFNE01.JPG,AFNE01.JPG,AFNE01.JPG,AFNE01.JPG,,,,,,,,,,,,,2,9,29,2,,,,,,,,,,,AMNE17.jpg,AMNE05.jpg,AMSA19.jpg,AMSA02.jpg,AMSA02.jpg,MS,2,num_4,16,num_4,0.650161620684,,,2017_Sep_22_1757,60.0065053046,FEMA4ImagesEEG,001,201602,
AFNE01.JPG,AFNE01.JPG,AFNE01.JPG,AFNE01.JPG,AFNE01.JPG,AFNE01.JPG,,,,,,,,,,,,,3,0,30,9,,,,,,,,,,,AMSA04.jpg,AMSA13.jpg,AMNE14.jpg,AMNE20.jpg,AMSA04.jpg,MS,2,num_8,16,num_8,0.683515331673,,,2017_Sep_22_1757,60.0065053046,FEMA4ImagesEEG,001,201602,
AFNE01.JPG,AFNE01.JPG,AFNE01.JPG,AFNE01.JPG,AFNE01.JPG,AFNE01.JPG,,,,,,,,,,,,,3,1,31,3,,,,,,,,,,,AMNE14.jpg,AMSA17.jpg,AMNE01.jpg,AMSA09.jpg,AMSA17.jpg,MS,2,num_6,32,num_8,1.73337654765,,,2017_Sep_22_1757,60.0065053046,FEMA4ImagesEEG,001,201602,
AFNE01.JPG,AFNE01.JPG,AFNE01.JPG,AFNE01.JPG,AFNE01.JPG,AFNE01.JPG,,,,,,,,,,,,,3,2,32,5,,,,,,,,,,,AMSA02.jpg,AMSA20.jpg,AMNE03.jpg,AMNE20.jpg,AMNE03.jpg,MN,1,num_2,32,num_6,2.30035018349,,,2017_Sep_22_1757,60.0065053046,FEMA4ImagesEEG,001,201602,
AFNE01.JPG,AFNE01.JPG,AFNE01.JPG,AFNE01.JPG,AFNE01.JPG,AFNE01.JPG,,,,,,,,,,,,,3,3,33,7,,,,,,,,,,,AMNE15.jpg,AMNE11.jpg,AMSA07.jpg,AMSA12.jpg,AMSA07.jpg,MS,2,num_2,16,num_2,0.816750240716,,,2017_Sep_22_1757,60.0065053046,FEMA4ImagesEEG,001,201602,
AFNE01.JPG,AFNE01.JPG,AFNE01.JPG,AFNE01.JPG,AFNE01.JPG,AFNE01.JPG,,,,,,,,,,,,,3,4,34,8,,,,,,,,,,,AMNE17.jpg,AMNE05.jpg,AMSA18.jpg,AMSA10.jpg,AMSA18.jpg,MS,2,num_2,16,num_2,1.08348082009,,,2017_Sep_22_1757,60.0065053046,FEMA4ImagesEEG,001,201602,
AFNE01.JPG,AFNE01.JPG,AFNE01.JPG,AFNE01.JPG,AFNE01.JPG,AFNE01.JPG,,,,,,,,,,,,,3,5,35,0,,,,,,,,,,,AMSA20.jpg,AMNE02.jpg,AMNE04.jpg,AMSA06.jpg,AMSA20.jpg,MS,2,num_8,32,num_4,1.20009404085,,,2017_Sep_22_1757,60.0065053046,FEMA4ImagesEEG,001,201602,
AFNE01.JPG,AFNE01.JPG,AFNE01.JPG,AFNE01.JPG,AFNE01.JPG,AFNE01.JPG,,,,,,,,,,,,,3,6,36,1,,,,,,,,,,,AMSA11.jpg,AMNE06.jpg,AMSA15.jpg,AMNE03.jpg,AMNE03.jpg,MN,1,num_4,16,num_4,0.650172205093,,,2017_Sep_22_1757,60.0065053046,FEMA4ImagesEEG,001,201602,
AFNE01.JPG,AFNE01.JPG,AFNE01.JPG,AFNE01.JPG,AFNE01.JPG,AFNE01.JPG,,,,,,,,,,,,,3,7,37,4,,,,,,,,,,,AMNE20.jpg,AMSA02.jpg,AMSA20.jpg,AMNE05.jpg,AMNE05.jpg,MN,1,num_4,16,num_4,1.18344092009,,,2017_Sep_22_1757,60.0065053046,FEMA4ImagesEEG,001,201602,
AFNE01.JPG,AFNE01.JPG,AFNE01.JPG,AFNE01.JPG,AFNE01.JPG,AFNE01.JPG,,,,,,,,,,,,,3,8,38,6,,,,,,,,,,,AMNE06.jpg,AMSA08.jpg,AMSA05.jpg,AMNE17.jpg,AMNE06.jpg,MN,1,num_8,16,num_8,1.03345153657,,,2017_Sep_22_1757,60.0065053046,FEMA4ImagesEEG,001,201602,
AFNE01.JPG,AFNE01.JPG,AFNE01.JPG,AFNE01.JPG,AFNE01.JPG,AFNE01.JPG,,,,,,,,,,,,,3,9,39,2,,,,,,,,,,,AMNE08.jpg,AMSA03.jpg,AMNE09.jpg,AMSA07.jpg,AMNE08.jpg,MN,1,num_8,32,num_2,1.26677516218,,,2017_Sep_22_1757,60.0065053046,FEMA4ImagesEEG,001,201602,
AFNE01.JPG,AFNE01.JPG,AFNE01.JPG,AFNE01.JPG,AFNE01.JPG,AFNE01.JPG,,,,,,,,,,,,,4,0,40,1,,,,,,,,,,,AMNE04.jpg,AMNE20.jpg,AMSA02.jpg,AMSA12.jpg,AMNE04.jpg,MN,1,num_8,16,num_8,0.900086727986,,,2017_Sep_22_1757,60.0065053046,FEMA4ImagesEEG,001,201602,
AFNE01.JPG,AFNE01.JPG,AFNE01.JPG,AFNE01.JPG,AFNE01.JPG,AFNE01.JPG,,,,,,,,,,,,,4,1,41,7,,,,,,,,,,,AMSA06.jpg,AMNE10.jpg,AMSA10.jpg,AMNE16.jpg,AMSA06.jpg,MS,2,num_8,32,num_6,1.46676720784,,,2017_Sep_22_1757,60.0065053046,FEMA4ImagesEEG,001,201602,
AFNE01.JPG,AFNE01.JPG,AFNE01.JPG,AFNE01.JPG,AFNE01.JPG,AFNE01.JPG,,,,,,,,,,,,,4,2,42,8,,,,,,,,,,,AMNE02.jpg,AMNE08.jpg,AMSA05.jpg,AMSA20.jpg,AMSA05.jpg,MS,2,num_2,32,num_4,1.36684816251,,,2017_Sep_22_1757,60.0065053046,FEMA4ImagesEEG,001,201602,
AFNE01.JPG,AFNE01.JPG,AFNE01.JPG,AFNE01.JPG,AFNE01.JPG,AFNE01.JPG,,,,,,,,,,,,,4,3,43,4,,,,,,,,,,,AMNE10.jpg,AMSA03.jpg,AMSA06.jpg,AMNE03.jpg,AMNE10.jpg,MN,1,num_8,32,num_2,2.30003329277,,,2017_Sep_22_1757,60.0065053046,FEMA4ImagesEEG,001,201602,
AFNE01.JPG,AFNE01.JPG,AFNE01.JPG,AFNE01.JPG,AFNE01.JPG,AFNE01.JPG,,,,,,,,,,,,,4,4,44,3,,,,,,,,,,,AMSA07.jpg,AMNE17.jpg,AMNE12.jpg,AMSA06.jpg,AMSA07.jpg,MS,2,num_8,32,num_2,1.43341927016,,,2017_Sep_22_1757,60.0065053046,FEMA4ImagesEEG,001,201602,
AFNE01.JPG,AFNE01.JPG,AFNE01.JPG,AFNE01.JPG,AFNE01.JPG,AFNE01.JPG,,,,,,,,,,,,,4,5,45,0,,,,,,,,,,,AMNE01.jpg,AMSA02.jpg,AMNE04.jpg,AMSA16.jpg,AMSA16.jpg,MS,2,num_4,32,num_8,1.74990041036,,,2017_Sep_22_1757,60.0065053046,FEMA4ImagesEEG,001,201602,
AFNE01.JPG,AFNE01.JPG,AFNE01.JPG,AFNE01.JPG,AFNE01.JPG,AFNE01.JPG,,,,,,,,,,,,,4,6,46,9,,,,,,,,,,,AMSA08.jpg,AMNE04.jpg,AMNE13.jpg,AMSA19.jpg,AMSA19.jpg,MS,2,num_4,32,num_2,1.86657906199,,,2017_Sep_22_1757,60.0065053046,FEMA4ImagesEEG,001,201602,
AFNE01.JPG,AFNE01.JPG,AFNE01.JPG,AFNE01.JPG,AFNE01.JPG,AFNE01.JPG,,,,,,,,,,,,,4,7,47,2,,,,,,,,,,,AMNE18.jpg,AMNE16.jpg,AMSA08.jpg,AMSA15.jpg,AMNE18.jpg,MN,1,num_8,16,num_8,0.916807524807,,,2017_Sep_22_1757,60.0065053046,FEMA4ImagesEEG,001,201602,
AFNE01.JPG,AFNE01.JPG,AFNE01.JPG,AFNE01.JPG,AFNE01.JPG,AFNE01.JPG,,,,,,,,,,,,,4,8,48,5,,,,,,,,,,,AMNE12.jpg,AMSA11.jpg,AMSA20.jpg,AMNE20.jpg,AMNE12.jpg,MN,1,num_8,16,num_8,0.783508788587,,,2017_Sep_22_1757,60.0065053046,FEMA4ImagesEEG,001,201602,
AFNE01.JPG,AFNE01.JPG,AFNE01.JPG,AFNE01.JPG,AFNE01.JPG,AFNE01.JPG,,,,,,,,,,,,,4,9,49,6,,,,,,,,,,,AMNE17.jpg,AMSA05.jpg,AMSA11.jpg,AMNE14.jpg,AMSA11.jpg,MS,2,num_2,16,num_2,1.00018538749,,,2017_Sep_22_1757,60.0065053046,FEMA4ImagesEEG,001,201602,
AFNE01.JPG,AFNE01.JPG,AFNE01.JPG,AFNE01.JPG,AFNE01.JPG,AFNE01.JPG,,,,,,,,,,,,,5,0,50,0,,,,,,,,,,,AMNE11.jpg,AMNE01.jpg,AMSA20.jpg,AMSA06.jpg,AMSA06.jpg,MS,2,num_4,16,num_4,0.650131150423,,,2017_Sep_22_1757,60.0065053046,FEMA4ImagesEEG,001,201602,
AFNE01.JPG,AFNE01.JPG,AFNE01.JPG,AFNE01.JPG,AFNE01.JPG,AFNE01.JPG,,,,,,,,,,,,,5,1,51,1,,,,,,,,,,,AMNE05.jpg,AMSA04.jpg,AMSA09.jpg,AMNE04.jpg,AMSA09.jpg,MS,2,num_2,32,num_8,1.00025530872,,,2017_Sep_22_1757,60.0065053046,FEMA4ImagesEEG,001,201602,
AFNE01.JPG,AFNE01.JPG,AFNE01.JPG,AFNE01.JPG,AFNE01.JPG,AFNE01.JPG,,,,,,,,,,,,,5,2,52,3,,,,,,,,,,,AMNE01.jpg,AMSA15.jpg,AMNE10.jpg,AMSA07.jpg,AMNE01.jpg,MN,1,num_8,16,num_8,0.55014699496,,,2017_Sep_22_1757,60.0065053046,FEMA4ImagesEEG,001,201602,
AFNE01.JPG,AFNE01.JPG,AFNE01.JPG,AFNE01.JPG,AFNE01.JPG,AFNE01.JPG,,,,,,,,,,,,,5,3,53,5,,,,,,,,,,,AMNE06.jpg,AMSA17.jpg,AMSA13.jpg,AMNE15.jpg,AMNE15.jpg,MN,1,num_4,32,num_8,0.900130348573,,,2017_Sep_22_1757,60.0065053046,FEMA4ImagesEEG,001,201602,
AFNE01.JPG,AFNE01.JPG,AFNE01.JPG,AFNE01.JPG,AFNE01.JPG,AFNE01.JPG,,,,,,,,,,,,,5,4,54,9,,,,,,,,,,,AMNE13.jpg,AMNE02.jpg,AMSA14.jpg,AMSA06.jpg,AMSA14.jpg,MS,2,num_2,16,num_2,0.800132080567,,,2017_Sep_22_1757,60.0065053046,FEMA4ImagesEEG,001,201602,
AFNE01.JPG,AFNE01.JPG,AFNE01.JPG,AFNE01.JPG,AFNE01.JPG,AFNE01.JPG,,,,,,,,,,,,,5,5,55,4,,,,,,,,,,,AMSA07.jpg,AMNE19.jpg,AMSA10.jpg,AMNE05.jpg,AMSA07.jpg,MS,2,num_8,16,num_8,1.46676207601,,,2017_Sep_22_1757,60.0065053046,FEMA4ImagesEEG,001,201602,
AFNE01.JPG,AFNE01.JPG,AFNE01.JPG,AFNE01.JPG,AFNE01.JPG,AFNE01.JPG,,,,,,,,,,,,,5,6,56,6,,,,,,,,,,,AMNE05.jpg,AMSA16.jpg,AMNE11.jpg,AMSA01.jpg,AMSA01.jpg,MS,2,num_4,16,num_4,0.733478863582,,,2017_Sep_22_1757,60.0065053046,FEMA4ImagesEEG,001,201602,
AFNE01.JPG,AFNE01.JPG,AFNE01.JPG,AFNE01.JPG,AFNE01.JPG,AFNE01.JPG,,,,,,,,,,,,,5,7,57,8,,,,,,,,,,,AMSA05.jpg,AMSA12.jpg,AMNE03.jpg,AMNE04.jpg,AMSA05.jpg,MS,2,num_8,32,num_2,0.850106196882,,,2017_Sep_22_1757,60.0065053046,FEMA4ImagesEEG,001,201602,
AFNE01.JPG,AFNE01.JPG,AFNE01.JPG,AFNE01.JPG,AFNE01.JPG,AFNE01.JPG,,,,,,,,,,,,,5,8,58,2,,,,,,,,,,,AMNE11.jpg,AMNE16.jpg,AMSA13.jpg,AMSA10.jpg,AMSA10.jpg,MS,2,num_4,16,num_4,0.400159215136,,,2017_Sep_22_1757,60.0065053046,FEMA4ImagesEEG,001,201602,
AFNE01.JPG,AFNE01.JPG,AFNE01.JPG,AFNE01.JPG,AFNE01.JPG,AFNE01.JPG,,,,,,,,,,,,,5,9,59,7,,,,,,,,,,,AMSA07.jpg,AMNE04.jpg,AMNE19.jpg,AMSA08.jpg,AMSA07.jpg,MS,2,num_8,32,num_2,1.13331252803,,,2017_Sep_22_1757,60.0065053046,FEMA4ImagesEEG,001,201602,
