IPosition2,IPosition3,IPosition1,IPosition6,IPosition4,IPosition5,TrialsM1.thisRepN,TrialsM1.thisTrialN,TrialsM1.thisN,TrialsM1.thisIndex,TrialsF1.thisRepN,TrialsF1.thisTrialN,TrialsF1.thisN,TrialsF1.thisIndex,TrialsM2.thisRepN,TrialsM2.thisTrialN,TrialsM2.thisN,TrialsM2.thisIndex,TrialsF2.thisRepN,TrialsF2.thisTrialN,TrialsF2.thisN,TrialsF2.thisIndex,TrialsM3.thisRepN,TrialsM3.thisTrialN,TrialsM3.thisN,TrialsM3.thisIndex,TrialsF3.thisRepN,TrialsF3.thisTrialN,TrialsF3.thisN,TrialsF3.thisIndex,InstrKey_resp.keys,InstrKey_resp.rt,Image0 _Position,Image1 _Position,Image2 _Position,Image3 _Position,Center_image,condition,code,correct_answer,accuracy,Key_Resp.keys,Key_Resp.rt,BreakKey_resp.keys,BreakKey_resp.rt,date,frameRate,expName,session,participant,
,,,,,,,,,,,,,,,,,,,,,,,,,,,,,,space,4.54982176505,,,,,,,,,,,,,,2017_Sep_28_1802,60.0082377058,MAFE4ImagesEEG,001,201611,
AMSA25.JPG,AMNE24.JPG,AMSA24.JPG,AMNE26.JPG,AMSA21.JPG,AMNE25.JPG,0,0,0,3,,,,,,,,,,,,,,,,,,,,,,,AMNE11.jpg,AMNE03.jpg,AMSA02.jpg,AMSA06.jpg,AMSA06.jpg,MS,2,num_4,32,num_8,2.10000179615,,,2017_Sep_28_1802,60.0082377058,MAFE4ImagesEEG,001,201611,
AMNE23.JPG,AMNE24.JPG,AMNE22.JPG,AMSA24.JPG,AMSA22.JPG,AMSA23.JPG,0,1,1,9,,,,,,,,,,,,,,,,,,,,,,,AMNE11.jpg,AMSA07.jpg,AMNE03.jpg,AMSA08.jpg,AMSA07.jpg,MS,2,num_6,16,num_6,0.53351215634,,,2017_Sep_28_1802,60.0082377058,MAFE4ImagesEEG,001,201611,
AFNE22.JPG,AFSA24.JPG,AFSA22.JPG,AFNE25.JPG,AFNE24.JPG,AFSA25.JPG,0,2,2,6,,,,,,,,,,,,,,,,,,,,,,,AMNE05.jpg,AMNE15.jpg,AMSA04.jpg,AMSA12.jpg,AMNE05.jpg,MN,1,num_8,32,num_2,0.766807877691,,,2017_Sep_28_1802,60.0082377058,MAFE4ImagesEEG,001,201611,
AMSA21.JPG,AMNE23.JPG,AMNE21.JPG,AMSA25.JPG,AMNE25.JPG,AMSA23.JPG,0,3,3,5,,,,,,,,,,,,,,,,,,,,,,,AMSA20.jpg,AMNE12.jpg,AMNE08.jpg,AMSA19.jpg,AMNE08.jpg,MN,1,num_2,16,num_2,0.583477612701,,,2017_Sep_28_1802,60.0082377058,MAFE4ImagesEEG,001,201611,
AFSA21.JPG,AFNE23.JPG,AFNE21.JPG,AFSA25.JPG,AFNE25.JPG,AFSA23.JPG,0,4,4,4,,,,,,,,,,,,,,,,,,,,,,,AMSA07.jpg,AMSA15.jpg,AMNE14.jpg,AMNE15.jpg,AMNE14.jpg,MN,1,num_2,32,num_4,0.516795529169,,,2017_Sep_28_1802,60.0082377058,MAFE4ImagesEEG,001,201611,
AFNE23.JPG,AFNE24.JPG,AFNE22.JPG,AFSA24.JPG,AFSA22.JPG,AFSA23.JPG,0,5,5,8,,,,,,,,,,,,,,,,,,,,,,,AMNE15.jpg,AMSA20.jpg,AMNE14.jpg,AMSA02.jpg,AMNE15.jpg,MN,1,num_8,16,num_8,0.46678388631,,,2017_Sep_28_1802,60.0082377058,MAFE4ImagesEEG,001,201611,
AMNE22.JPG,AMSA24.JPG,AMSA22.JPG,AMNE25.JPG,AMNE24.JPG,AMSA25.JPG,0,6,6,7,,,,,,,,,,,,,,,,,,,,,,,AMSA02.jpg,AMNE09.jpg,AMSA17.jpg,AMNE17.jpg,AMNE09.jpg,MN,1,num_6,16,num_6,0.633482520003,,,2017_Sep_28_1802,60.0082377058,MAFE4ImagesEEG,001,201611,
AFSA21.JPG,AFNE22.JPG,AFNE21.JPG,AFSA23.JPG,AFSA22.JPG,AFNE23.JPG,0,7,7,0,,,,,,,,,,,,,,,,,,,,,,,AMSA06.jpg,AMNE13.jpg,AMSA08.jpg,AMNE01.jpg,AMNE01.jpg,MN,1,num_4,16,num_4,0.783398454194,,,2017_Sep_28_1802,60.0082377058,MAFE4ImagesEEG,001,201611,
AFSA25.JPG,AFNE24.JPG,AFSA24.JPG,AFNE21.JPG,AFSA21.JPG,AFNE25.JPG,0,8,8,2,,,,,,,,,,,,,,,,,,,,,,,AMNE11.jpg,AMSA19.jpg,AMNE06.jpg,AMSA17.jpg,AMSA17.jpg,MS,2,num_4,16,num_4,0.766781576909,,,2017_Sep_28_1802,60.0082377058,MAFE4ImagesEEG,001,201611,
AMSA21.JPG,AMNE22.JPG,AMNE21.JPG,AMSA23.JPG,AMSA22.JPG,AMNE23.JPG,0,9,9,1,,,,,,,,,,,,,,,,,,,,,,,AMNE15.jpg,AMSA01.jpg,AMNE06.jpg,AMSA16.jpg,AMSA01.jpg,MS,2,num_6,16,num_6,0.250193887157,,,2017_Sep_28_1802,60.0082377058,MAFE4ImagesEEG,001,201611,
AMSA25.JPG,AMNE24.JPG,AMSA24.JPG,AMNE26.JPG,AMSA21.JPG,AMNE25.JPG,,,,,0,0,0,3,,,,,,,,,,,,,,,,,,,AFNE19.jpg,AFSA20.jpg,AFNE14.jpg,AFSA12.jpg,AFNE19.jpg,FN,3,num_8,32,num_2,0.733478222159,,,2017_Sep_28_1802,60.0082377058,MAFE4ImagesEEG,001,201611,
AMSA21.JPG,AMNE22.JPG,AMNE21.JPG,AMSA23.JPG,AMSA22.JPG,AMNE23.JPG,,,,,0,1,1,1,,,,,,,,,,,,,,,,,,,AFNE04.jpg,AFSA17.jpg,AFSA13.jpg,AFNE10.jpg,AFSA13.jpg,FS,4,num_2,32,num_8,0.466800564784,,,2017_Sep_28_1802,60.0082377058,MAFE4ImagesEEG,001,201611,
AMSA21.JPG,AMNE23.JPG,AMNE21.JPG,AMSA25.JPG,AMNE25.JPG,AMSA23.JPG,,,,,0,2,2,5,,,,,,,,,,,,,,,,,,,AFNE10.jpg,AFSA16.jpg,AFNE05.jpg,AFSA08.jpg,AFSA08.jpg,FS,4,num_4,16,num_4,0.38348396332,,,2017_Sep_28_1802,60.0082377058,MAFE4ImagesEEG,001,201611,
AMNE23.JPG,AMNE24.JPG,AMNE22.JPG,AMSA24.JPG,AMSA22.JPG,AMSA23.JPG,,,,,0,3,3,9,,,,,,,,,,,,,,,,,,,AFSA09.jpg,AFNE19.jpg,AFSA19.jpg,AFNE09.jpg,AFNE19.jpg,FN,3,num_6,32,num_2,0.416845051339,,,2017_Sep_28_1802,60.0082377058,MAFE4ImagesEEG,001,201611,
AFSA21.JPG,AFNE22.JPG,AFNE21.JPG,AFSA23.JPG,AFSA22.JPG,AFNE23.JPG,,,,,0,4,4,0,,,,,,,,,,,,,,,,,,,AFNE16.jpg,AFSA01.jpg,AFNE04.jpg,AFSA04.jpg,AFNE16.jpg,FN,3,num_8,16,num_8,0.500185387442,,,2017_Sep_28_1802,60.0082377058,MAFE4ImagesEEG,001,201611,
AFSA21.JPG,AFNE23.JPG,AFNE21.JPG,AFSA25.JPG,AFNE25.JPG,AFSA23.JPG,,,,,0,5,5,4,,,,,,,,,,,,,,,,,,,AFSA20.jpg,AFSA06.jpg,AFNE07.jpg,AFNE10.jpg,AFNE10.jpg,FN,3,num_4,16,num_4,0.683497691061,,,2017_Sep_28_1802,60.0082377058,MAFE4ImagesEEG,001,201611,
AFNE23.JPG,AFNE24.JPG,AFNE22.JPG,AFSA24.JPG,AFSA22.JPG,AFSA23.JPG,,,,,0,6,6,8,,,,,,,,,,,,,,,,,,,AFSA07.jpg,AFSA19.jpg,AFNE13.jpg,AFNE18.jpg,AFNE18.jpg,FN,3,num_4,32,num_2,0.650146866567,,,2017_Sep_28_1802,60.0082377058,MAFE4ImagesEEG,001,201611,
AFSA25.JPG,AFNE24.JPG,AFSA24.JPG,AFNE21.JPG,AFSA21.JPG,AFNE25.JPG,,,,,0,7,7,2,,,,,,,,,,,,,,,,,,,AFSA10.jpg,AFSA14.jpg,AFNE07.jpg,AFNE06.jpg,AFSA10.jpg,FS,4,num_8,32,num_6,0.333491885685,,,2017_Sep_28_1802,60.0082377058,MAFE4ImagesEEG,001,201611,
AFNE22.JPG,AFSA24.JPG,AFSA22.JPG,AFNE25.JPG,AFNE24.JPG,AFSA25.JPG,,,,,0,8,8,6,,,,,,,,,,,,,,,,,,,AFSA02.jpg,AFNE02.jpg,AFNE03.jpg,AFSA15.jpg,AFSA15.jpg,FS,4,num_4,32,num_2,0.416917859227,,,2017_Sep_28_1802,60.0082377058,MAFE4ImagesEEG,001,201611,
AMNE22.JPG,AMSA24.JPG,AMSA22.JPG,AMNE25.JPG,AMNE24.JPG,AMSA25.JPG,,,,,0,9,9,7,,,,,,,,,,,,,,,,,,,AFSA12.jpg,AFSA18.jpg,AFNE10.jpg,AFNE19.jpg,AFSA18.jpg,FS,4,num_6,16,num_6,0.366807749262,,,2017_Sep_28_1802,60.0082377058,MAFE4ImagesEEG,001,201611,
AMSA21.JPG,AMNE22.JPG,AMNE21.JPG,AMSA23.JPG,AMSA22.JPG,AMNE23.JPG,,,,,,,,,0,0,0,1,,,,,,,,,,,,,,,AMSA19.jpg,AMSA02.jpg,AMNE20.jpg,AMNE10.jpg,AMSA02.jpg,MS,2,num_6,16,num_6,0.750143530895,,,2017_Sep_28_1802,60.0082377058,MAFE4ImagesEEG,001,201611,
AFSA25.JPG,AFNE24.JPG,AFSA24.JPG,AFNE21.JPG,AFSA21.JPG,AFNE25.JPG,,,,,,,,,0,1,1,2,,,,,,,,,,,,,,,AMNE02.jpg,AMSA08.jpg,AMNE08.jpg,AMSA19.jpg,AMNE08.jpg,MN,1,num_2,32,num_8,0.450210308889,,,2017_Sep_28_1802,60.0082377058,MAFE4ImagesEEG,001,201611,
AFSA21.JPG,AFNE23.JPG,AFNE21.JPG,AFSA25.JPG,AFNE25.JPG,AFSA23.JPG,,,,,,,,,0,2,2,4,,,,,,,,,,,,,,,AMNE14.jpg,AMNE11.jpg,AMSA12.jpg,AMSA19.jpg,AMNE11.jpg,MN,1,num_6,32,num_2,1.03337359685,,,2017_Sep_28_1802,60.0082377058,MAFE4ImagesEEG,001,201611,
AMNE22.JPG,AMSA24.JPG,AMSA22.JPG,AMNE25.JPG,AMNE24.JPG,AMSA25.JPG,,,,,,,,,0,3,3,7,,,,,,,,,,,,,,,AMSA04.jpg,AMNE18.jpg,AMSA09.jpg,AMNE06.jpg,AMSA09.jpg,MS,2,num_2,32,num_4,0.33348354639,,,2017_Sep_28_1802,60.0082377058,MAFE4ImagesEEG,001,201611,
AFNE23.JPG,AFNE24.JPG,AFNE22.JPG,AFSA24.JPG,AFSA22.JPG,AFSA23.JPG,,,,,,,,,0,4,4,8,,,,,,,,,,,,,,,AMSA07.jpg,AMNE08.jpg,AMSA06.jpg,AMNE15.jpg,AMNE08.jpg,MN,1,num_6,32,num_8,0.766865931451,,,2017_Sep_28_1802,60.0082377058,MAFE4ImagesEEG,001,201611,
AMSA21.JPG,AMNE23.JPG,AMNE21.JPG,AMSA25.JPG,AMNE25.JPG,AMSA23.JPG,,,,,,,,,0,5,5,5,,,,,,,,,,,,,,,AMSA13.jpg,AMSA02.jpg,AMNE07.jpg,AMNE09.jpg,AMSA13.jpg,MS,2,num_8,16,num_8,0.767096222495,,,2017_Sep_28_1802,60.0082377058,MAFE4ImagesEEG,001,201611,
AFNE22.JPG,AFSA24.JPG,AFSA22.JPG,AFNE25.JPG,AFNE24.JPG,AFSA25.JPG,,,,,,,,,0,6,6,6,,,,,,,,,,,,,,,AMNE02.jpg,AMSA06.jpg,AMNE05.jpg,AMSA19.jpg,AMSA19.jpg,MS,2,num_4,32,num_6,0.550176823745,,,2017_Sep_28_1802,60.0082377058,MAFE4ImagesEEG,001,201611,
AMSA25.JPG,AMNE24.JPG,AMSA24.JPG,AMNE26.JPG,AMSA21.JPG,AMNE25.JPG,,,,,,,,,0,7,7,3,,,,,,,,,,,,,,,AMSA17.jpg,AMSA16.jpg,AMNE17.jpg,AMNE08.jpg,AMNE08.jpg,MN,1,num_4,32,num_8,1.23341760237,,,2017_Sep_28_1802,60.0082377058,MAFE4ImagesEEG,001,201611,
AMNE23.JPG,AMNE24.JPG,AMNE22.JPG,AMSA24.JPG,AMSA22.JPG,AMSA23.JPG,,,,,,,,,0,8,8,9,,,,,,,,,,,,,,,AMSA06.jpg,AMSA20.jpg,AMNE04.jpg,AMNE16.jpg,AMNE16.jpg,MN,1,num_4,16,num_4,0.416774809361,,,2017_Sep_28_1802,60.0082377058,MAFE4ImagesEEG,001,201611,
AFSA21.JPG,AFNE22.JPG,AFNE21.JPG,AFSA23.JPG,AFSA22.JPG,AFNE23.JPG,,,,,,,,,0,9,9,0,,,,,,,,,,,,,,,AMSA10.jpg,AMNE03.jpg,AMSA12.jpg,AMNE11.jpg,AMSA12.jpg,MS,2,num_2,16,num_2,0.583541439846,,,2017_Sep_28_1802,60.0082377058,MAFE4ImagesEEG,001,201611,
AFNE22.JPG,AFSA24.JPG,AFSA22.JPG,AFNE25.JPG,AFNE24.JPG,AFSA25.JPG,,,,,,,,,,,,,0,0,0,6,,,,,,,,,,,AFSA02.jpg,AFSA14.jpg,AFNE08.jpg,AFNE06.jpg,AFSA02.jpg,FS,4,num_8,32,num_4,0.600117583177,,,2017_Sep_28_1802,60.0082377058,MAFE4ImagesEEG,001,201611,
AMSA25.JPG,AMNE24.JPG,AMSA24.JPG,AMNE26.JPG,AMSA21.JPG,AMNE25.JPG,,,,,,,,,,,,,0,1,1,3,,,,,,,,,,,AFNE04.jpg,AFNE08.jpg,AFSA02.jpg,AFSA14.jpg,AFSA02.jpg,FS,4,num_2,32,num_8,0.400224966696,,,2017_Sep_28_1802,60.0082377058,MAFE4ImagesEEG,001,201611,
AFSA21.JPG,AFNE22.JPG,AFNE21.JPG,AFSA23.JPG,AFSA22.JPG,AFNE23.JPG,,,,,,,,,,,,,0,2,2,0,,,,,,,,,,,AFNE20.jpg,AFSA11.jpg,AFSA17.jpg,AFNE08.jpg,AFNE08.jpg,FN,3,num_4,32,num_2,0.766828725697,,,2017_Sep_28_1802,60.0082377058,MAFE4ImagesEEG,001,201611,
AFNE23.JPG,AFNE24.JPG,AFNE22.JPG,AFSA24.JPG,AFSA22.JPG,AFSA23.JPG,,,,,,,,,,,,,0,3,3,8,,,,,,,,,,,AFNE07.jpg,AFSA18.jpg,AFSA14.jpg,AFNE09.jpg,AFSA14.jpg,FS,4,num_2,32,num_4,0.28353124042,,,2017_Sep_28_1802,60.0082377058,MAFE4ImagesEEG,001,201611,
AMSA21.JPG,AMNE23.JPG,AMNE21.JPG,AMSA25.JPG,AMNE25.JPG,AMSA23.JPG,,,,,,,,,,,,,0,4,4,5,,,,,,,,,,,AFSA03.jpg,AFNE05.jpg,AFNE20.jpg,AFSA18.jpg,AFNE05.jpg,FN,3,num_6,16,num_6,0.466888447409,,,2017_Sep_28_1802,60.0082377058,MAFE4ImagesEEG,001,201611,
AFSA25.JPG,AFNE24.JPG,AFSA24.JPG,AFNE21.JPG,AFSA21.JPG,AFNE25.JPG,,,,,,,,,,,,,0,5,5,2,,,,,,,,,,,AFSA19.jpg,AFNE13.jpg,AFNE09.jpg,AFSA12.jpg,AFSA19.jpg,FS,4,num_8,32,num_2,0.683493842138,,,2017_Sep_28_1802,60.0082377058,MAFE4ImagesEEG,001,201611,
AMNE22.JPG,AMSA24.JPG,AMSA22.JPG,AMNE25.JPG,AMNE24.JPG,AMSA25.JPG,,,,,,,,,,,,,0,6,6,7,,,,,,,,,,,AFNE20.jpg,AFSA07.jpg,AFSA09.jpg,AFNE08.jpg,AFNE20.jpg,FN,3,num_8,16,num_8,0.783311213017,,,2017_Sep_28_1802,60.0082377058,MAFE4ImagesEEG,001,201611,
AMNE23.JPG,AMNE24.JPG,AMNE22.JPG,AMSA24.JPG,AMSA22.JPG,AMSA23.JPG,,,,,,,,,,,,,0,7,7,9,,,,,,,,,,,AFNE11.jpg,AFNE09.jpg,AFSA17.jpg,AFSA11.jpg,AFNE11.jpg,FN,3,num_8,32,num_2,0.61680694751,,,2017_Sep_28_1802,60.0082377058,MAFE4ImagesEEG,001,201611,
AFSA21.JPG,AFNE23.JPG,AFNE21.JPG,AFSA25.JPG,AFNE25.JPG,AFSA23.JPG,,,,,,,,,,,,,0,8,8,4,,,,,,,,,,,AFSA06.jpg,AFNE18.jpg,AFNE06.jpg,AFSA01.jpg,AFNE06.jpg,FN,3,num_2,32,num_6,0.600159920752,,,2017_Sep_28_1802,60.0082377058,MAFE4ImagesEEG,001,201611,
AMSA21.JPG,AMNE22.JPG,AMNE21.JPG,AMSA23.JPG,AMSA22.JPG,AMNE23.JPG,,,,,,,,,,,,,0,9,9,1,,,,,,,,,,,AFSA07.jpg,AFSA11.jpg,AFNE16.jpg,AFNE19.jpg,AFNE19.jpg,FN,3,num_4,32,num_2,0.616836455534,,,2017_Sep_28_1802,60.0082377058,MAFE4ImagesEEG,001,201611,
AFNE23.JPG,AFNE24.JPG,AFNE22.JPG,AFSA24.JPG,AFSA22.JPG,AFSA23.JPG,,,,,,,,,,,,,,,,,0,0,0,8,,,,,,,AMNE11.jpg,AMNE03.jpg,AMSA16.jpg,AMSA14.jpg,AMNE03.jpg,MN,1,num_6,32,num_8,0.300177946337,,,2017_Sep_28_1802,60.0082377058,MAFE4ImagesEEG,001,201611,
AMNE23.JPG,AMNE24.JPG,AMNE22.JPG,AMSA24.JPG,AMSA22.JPG,AMSA23.JPG,,,,,,,,,,,,,,,,,0,1,1,9,,,,,,,AMSA19.jpg,AMSA03.jpg,AMNE05.jpg,AMNE16.jpg,AMSA03.jpg,MS,2,num_6,32,num_4,0.583486272721,,,2017_Sep_28_1802,60.0082377058,MAFE4ImagesEEG,001,201611,
AMNE22.JPG,AMSA24.JPG,AMSA22.JPG,AMNE25.JPG,AMNE24.JPG,AMSA25.JPG,,,,,,,,,,,,,,,,,0,2,2,7,,,,,,,AMSA01.jpg,AMSA10.jpg,AMNE02.jpg,AMNE13.jpg,AMNE13.jpg,MN,1,num_4,32,num_6,0.283485053806,,,2017_Sep_28_1802,60.0082377058,MAFE4ImagesEEG,001,201611,
AFSA21.JPG,AFNE23.JPG,AFNE21.JPG,AFSA25.JPG,AFNE25.JPG,AFSA23.JPG,,,,,,,,,,,,,,,,,0,3,3,4,,,,,,,AMNE13.jpg,AMSA14.jpg,AMSA05.jpg,AMNE06.jpg,AMNE06.jpg,MN,1,num_4,32,num_8,0.733418885269,,,2017_Sep_28_1802,60.0082377058,MAFE4ImagesEEG,001,201611,
AFSA25.JPG,AFNE24.JPG,AFSA24.JPG,AFNE21.JPG,AFSA21.JPG,AFNE25.JPG,,,,,,,,,,,,,,,,,0,4,4,2,,,,,,,AMSA15.jpg,AMSA02.jpg,AMNE05.jpg,AMNE18.jpg,AMSA02.jpg,MS,2,num_6,32,num_8,2.46667515568,,,2017_Sep_28_1802,60.0082377058,MAFE4ImagesEEG,001,201611,
AMSA21.JPG,AMNE22.JPG,AMNE21.JPG,AMSA23.JPG,AMSA22.JPG,AMNE23.JPG,,,,,,,,,,,,,,,,,0,5,5,1,,,,,,,AMSA01.jpg,AMNE03.jpg,AMNE12.jpg,AMSA17.jpg,AMSA17.jpg,MS,2,num_4,16,num_4,0.550144108362,,,2017_Sep_28_1802,60.0082377058,MAFE4ImagesEEG,001,201611,
AMSA21.JPG,AMNE23.JPG,AMNE21.JPG,AMSA25.JPG,AMNE25.JPG,AMSA23.JPG,,,,,,,,,,,,,,,,,0,6,6,5,,,,,,,AMNE04.jpg,AMSA03.jpg,AMNE08.jpg,AMSA18.jpg,AMSA18.jpg,MS,2,num_4,16,num_4,0.40012168861,,,2017_Sep_28_1802,60.0082377058,MAFE4ImagesEEG,001,201611,
AFSA21.JPG,AFNE22.JPG,AFNE21.JPG,AFSA23.JPG,AFSA22.JPG,AFNE23.JPG,,,,,,,,,,,,,,,,,0,7,7,0,,,,,,,AMNE20.jpg,AMNE06.jpg,AMSA07.jpg,AMSA12.jpg,AMSA07.jpg,MS,2,num_2,32,num_6,0.283481525723,,,2017_Sep_28_1802,60.0082377058,MAFE4ImagesEEG,001,201611,
AFNE22.JPG,AFSA24.JPG,AFSA22.JPG,AFNE25.JPG,AFNE24.JPG,AFSA25.JPG,,,,,,,,,,,,,,,,,0,8,8,6,,,,,,,AMNE04.jpg,AMSA05.jpg,AMNE19.jpg,AMSA06.jpg,AMNE19.jpg,MN,1,num_2,16,num_2,0.666838796926,,,2017_Sep_28_1802,60.0082377058,MAFE4ImagesEEG,001,201611,
AMSA25.JPG,AMNE24.JPG,AMSA24.JPG,AMNE26.JPG,AMSA21.JPG,AMNE25.JPG,,,,,,,,,,,,,,,,,0,9,9,3,,,,,,,AMNE08.jpg,AMNE17.jpg,AMSA16.jpg,AMSA06.jpg,AMNE17.jpg,MN,1,num_6,32,num_8,0.483534191153,,,2017_Sep_28_1802,60.0082377058,MAFE4ImagesEEG,001,201611,
AFSA21.JPG,AFNE23.JPG,AFNE21.JPG,AFSA25.JPG,AFNE25.JPG,AFSA23.JPG,,,,,,,,,,,,,,,,,,,,,0,0,0,4,,,AFNE13.jpg,AFSA05.jpg,AFNE01.jpg,AFSA18.jpg,AFSA05.jpg,FS,4,num_6,16,num_6,1.23348912725,,,2017_Sep_28_1802,60.0082377058,MAFE4ImagesEEG,001,201611,
AMNE23.JPG,AMNE24.JPG,AMNE22.JPG,AMSA24.JPG,AMSA22.JPG,AMSA23.JPG,,,,,,,,,,,,,,,,,,,,,0,1,1,9,,,AFSA05.jpg,AFNE07.jpg,AFSA14.jpg,AFNE12.jpg,AFSA05.jpg,FS,4,num_8,32,num_2,0.550124222529,,,2017_Sep_28_1802,60.0082377058,MAFE4ImagesEEG,001,201611,
AFSA25.JPG,AFNE24.JPG,AFSA24.JPG,AFNE21.JPG,AFSA21.JPG,AFNE25.JPG,,,,,,,,,,,,,,,,,,,,,0,2,2,2,,,AFSA15.jpg,AFSA11.jpg,AFNE08.jpg,AFNE09.jpg,AFSA11.jpg,FS,4,num_6,32,num_4,0.950150972116,,,2017_Sep_28_1802,60.0082377058,MAFE4ImagesEEG,001,201611,
AFSA21.JPG,AFNE22.JPG,AFNE21.JPG,AFSA23.JPG,AFSA22.JPG,AFNE23.JPG,,,,,,,,,,,,,,,,,,,,,0,3,3,0,,,AFNE08.jpg,AFSA16.jpg,AFSA07.jpg,AFNE04.jpg,AFSA07.jpg,FS,4,num_2,16,num_2,1.31674671255,,,2017_Sep_28_1802,60.0082377058,MAFE4ImagesEEG,001,201611,
AMSA25.JPG,AMNE24.JPG,AMSA24.JPG,AMNE26.JPG,AMSA21.JPG,AMNE25.JPG,,,,,,,,,,,,,,,,,,,,,0,4,4,3,,,AFNE20.jpg,AFSA15.jpg,AFNE01.jpg,AFSA08.jpg,AFSA08.jpg,FS,4,num_4,32,num_8,0.35015655309,,,2017_Sep_28_1802,60.0082377058,MAFE4ImagesEEG,001,201611,
AFNE22.JPG,AFSA24.JPG,AFSA22.JPG,AFNE25.JPG,AFNE24.JPG,AFSA25.JPG,,,,,,,,,,,,,,,,,,,,,0,5,5,6,,,AFNE04.jpg,AFSA16.jpg,AFNE20.jpg,AFSA01.jpg,AFNE04.jpg,FN,3,num_8,32,num_2,0.366852973588,,,2017_Sep_28_1802,60.0082377058,MAFE4ImagesEEG,001,201611,
AMSA21.JPG,AMNE23.JPG,AMNE21.JPG,AMSA25.JPG,AMNE25.JPG,AMSA23.JPG,,,,,,,,,,,,,,,,,,,,,0,6,6,5,,,AFSA11.jpg,AFNE02.jpg,AFNE07.jpg,AFSA15.jpg,AFNE07.jpg,FN,3,num_2,32,num_4,0.733431394212,,,2017_Sep_28_1802,60.0082377058,MAFE4ImagesEEG,001,201611,
AFNE23.JPG,AFNE24.JPG,AFNE22.JPG,AFSA24.JPG,AFSA22.JPG,AFSA23.JPG,,,,,,,,,,,,,,,,,,,,,0,7,7,8,,,AFNE16.jpg,AFSA06.jpg,AFNE09.jpg,AFSA11.jpg,AFNE09.jpg,FN,3,num_2,32,num_8,0.600166977034,,,2017_Sep_28_1802,60.0082377058,MAFE4ImagesEEG,001,201611,
AMSA21.JPG,AMNE22.JPG,AMNE21.JPG,AMSA23.JPG,AMSA22.JPG,AMNE23.JPG,,,,,,,,,,,,,,,,,,,,,0,8,8,1,,,AFNE16.jpg,AFSA09.jpg,AFSA17.jpg,AFNE18.jpg,AFSA09.jpg,FS,4,num_6,32,num_2,0.86662749364,,,2017_Sep_28_1802,60.0082377058,MAFE4ImagesEEG,001,201611,
AMNE22.JPG,AMSA24.JPG,AMSA22.JPG,AMNE25.JPG,AMNE24.JPG,AMSA25.JPG,,,,,,,,,,,,,,,,,,,,,0,9,9,7,,,AFSA08.jpg,AFSA20.jpg,AFNE03.jpg,AFNE16.jpg,AFSA08.jpg,FS,4,num_8,16,num_8,0.583520591841,,,2017_Sep_28_1802,60.0082377058,MAFE4ImagesEEG,001,201611,
,,,,,,,,,,,,,,,,,,,,,,,,,,,,,,,,,,,,,,,,,,,space,2.26664365898,2017_Sep_28_1802,60.0082377058,MAFE4ImagesEEG,001,201611,
AFNE01.JPG,AFNE01.JPG,AFNE01.JPG,AFNE01.JPG,AFNE01.JPG,AFNE01.JPG,0,0,0,6,,,,,,,,,,,,,,,,,,,,,,,AMSA16.jpg,AMSA05.jpg,AMNE15.jpg,AMNE10.jpg,AMNE15.jpg,MN,1,num_2,32,num_4,0.633492462919,,,2017_Sep_28_1802,60.0082377058,MAFE4ImagesEEG,001,201611,
AFNE01.JPG,AFNE01.JPG,AFNE01.JPG,AFNE01.JPG,AFNE01.JPG,AFNE01.JPG,0,1,1,5,,,,,,,,,,,,,,,,,,,,,,,AMNE12.jpg,AMSA20.jpg,AMSA03.jpg,AMNE15.jpg,AMNE15.jpg,MN,1,num_4,32,num_8,0.633518122137,,,2017_Sep_28_1802,60.0082377058,MAFE4ImagesEEG,001,201611,
AFNE01.JPG,AFNE01.JPG,AFNE01.JPG,AFNE01.JPG,AFNE01.JPG,AFNE01.JPG,0,2,2,2,,,,,,,,,,,,,,,,,,,,,,,AMSA04.jpg,AMSA11.jpg,AMNE08.jpg,AMNE20.jpg,AMSA11.jpg,MS,2,num_6,32,num_2,0.566762909875,,,2017_Sep_28_1802,60.0082377058,MAFE4ImagesEEG,001,201611,
AFNE01.JPG,AFNE01.JPG,AFNE01.JPG,AFNE01.JPG,AFNE01.JPG,AFNE01.JPG,0,3,3,4,,,,,,,,,,,,,,,,,,,,,,,AMSA14.jpg,AMNE15.jpg,AMSA12.jpg,AMNE06.jpg,AMNE06.jpg,MN,1,num_4,32,num_8,0.583529893309,,,2017_Sep_28_1802,60.0082377058,MAFE4ImagesEEG,001,201611,
AFNE01.JPG,AFNE01.JPG,AFNE01.JPG,AFNE01.JPG,AFNE01.JPG,AFNE01.JPG,0,4,4,7,,,,,,,,,,,,,,,,,,,,,,,AMNE19.jpg,AMNE17.jpg,AMSA13.jpg,AMSA10.jpg,AMNE19.jpg,MN,1,num_8,32,num_6,0.266804670217,,,2017_Sep_28_1802,60.0082377058,MAFE4ImagesEEG,001,201611,
AFNE01.JPG,AFNE01.JPG,AFNE01.JPG,AFNE01.JPG,AFNE01.JPG,AFNE01.JPG,0,5,5,8,,,,,,,,,,,,,,,,,,,,,,,AMNE14.jpg,AMSA14.jpg,AMNE11.jpg,AMSA19.jpg,AMSA19.jpg,MS,2,num_4,16,num_4,0.666785233421,,,2017_Sep_28_1802,60.0082377058,MAFE4ImagesEEG,001,201611,
AFNE01.JPG,AFNE01.JPG,AFNE01.JPG,AFNE01.JPG,AFNE01.JPG,AFNE01.JPG,0,6,6,9,,,,,,,,,,,,,,,,,,,,,,,AMSA03.jpg,AMNE05.jpg,AMSA01.jpg,AMNE18.jpg,AMSA03.jpg,MS,2,num_8,16,num_8,0.80014458939,,,2017_Sep_28_1802,60.0082377058,MAFE4ImagesEEG,001,201611,
AFNE01.JPG,AFNE01.JPG,AFNE01.JPG,AFNE01.JPG,AFNE01.JPG,AFNE01.JPG,0,7,7,3,,,,,,,,,,,,,,,,,,,,,,,AMSA14.jpg,AMNE04.jpg,AMNE20.jpg,AMSA05.jpg,AMSA14.jpg,MS,2,num_8,32,num_4,0.283532523317,,,2017_Sep_28_1802,60.0082377058,MAFE4ImagesEEG,001,201611,
AFNE01.JPG,AFNE01.JPG,AFNE01.JPG,AFNE01.JPG,AFNE01.JPG,AFNE01.JPG,0,8,8,0,,,,,,,,,,,,,,,,,,,,,,,AMNE09.jpg,AMNE06.jpg,AMSA12.jpg,AMSA11.jpg,AMSA11.jpg,MS,2,num_4,32,num_6,0.533481044578,,,2017_Sep_28_1802,60.0082377058,MAFE4ImagesEEG,001,201611,
AFNE01.JPG,AFNE01.JPG,AFNE01.JPG,AFNE01.JPG,AFNE01.JPG,AFNE01.JPG,0,9,9,1,,,,,,,,,,,,,,,,,,,,,,,AMSA08.jpg,AMNE07.jpg,AMNE16.jpg,AMSA15.jpg,AMSA08.jpg,MS,2,num_8,16,num_8,0.283308967832,,,2017_Sep_28_1802,60.0082377058,MAFE4ImagesEEG,001,201611,
AFNE01.JPG,AFNE01.JPG,AFNE01.JPG,AFNE01.JPG,AFNE01.JPG,AFNE01.JPG,1,0,10,9,,,,,,,,,,,,,,,,,,,,,,,AMNE01.jpg,AMSA16.jpg,AMSA14.jpg,AMNE15.jpg,AMNE15.jpg,MN,1,num_4,16,num_4,0.583525723661,,,2017_Sep_28_1802,60.0082377058,MAFE4ImagesEEG,001,201611,
AFNE01.JPG,AFNE01.JPG,AFNE01.JPG,AFNE01.JPG,AFNE01.JPG,AFNE01.JPG,1,1,11,3,,,,,,,,,,,,,,,,,,,,,,,AMSA12.jpg,AMSA11.jpg,AMNE07.jpg,AMNE09.jpg,AMSA11.jpg,MS,2,num_6,32,num_2,0.950474598329,,,2017_Sep_28_1802,60.0082377058,MAFE4ImagesEEG,001,201611,
AFNE01.JPG,AFNE01.JPG,AFNE01.JPG,AFNE01.JPG,AFNE01.JPG,AFNE01.JPG,1,2,12,8,,,,,,,,,,,,,,,,,,,,,,,AMNE17.jpg,AMSA01.jpg,AMSA20.jpg,AMNE11.jpg,AMNE17.jpg,MN,1,num_8,32,num_6,1.06679145573,,,2017_Sep_28_1802,60.0082377058,MAFE4ImagesEEG,001,201611,
AFNE01.JPG,AFNE01.JPG,AFNE01.JPG,AFNE01.JPG,AFNE01.JPG,AFNE01.JPG,1,3,13,4,,,,,,,,,,,,,,,,,,,,,,,AMSA08.jpg,AMNE01.jpg,AMSA04.jpg,AMNE16.jpg,AMSA04.jpg,MS,2,num_2,32,num_6,0.60016152449,,,2017_Sep_28_1802,60.0082377058,MAFE4ImagesEEG,001,201611,
AFNE01.JPG,AFNE01.JPG,AFNE01.JPG,AFNE01.JPG,AFNE01.JPG,AFNE01.JPG,1,4,14,5,,,,,,,,,,,,,,,,,,,,,,,AMNE15.jpg,AMSA07.jpg,AMSA16.jpg,AMNE06.jpg,AMNE06.jpg,MN,1,num_4,32,num_8,0.583542081411,,,2017_Sep_28_1802,60.0082377058,MAFE4ImagesEEG,001,201611,
AFNE01.JPG,AFNE01.JPG,AFNE01.JPG,AFNE01.JPG,AFNE01.JPG,AFNE01.JPG,1,5,15,7,,,,,,,,,,,,,,,,,,,,,,,AMNE13.jpg,AMNE15.jpg,AMSA12.jpg,AMSA19.jpg,AMNE13.jpg,MN,1,num_8,32,num_2,0.783479921985,,,2017_Sep_28_1802,60.0082377058,MAFE4ImagesEEG,001,201611,
AFNE01.JPG,AFNE01.JPG,AFNE01.JPG,AFNE01.JPG,AFNE01.JPG,AFNE01.JPG,1,6,16,2,,,,,,,,,,,,,,,,,,,,,,,AMNE18.jpg,AMSA19.jpg,AMNE20.jpg,AMSA01.jpg,AMNE20.jpg,MN,1,num_2,32,num_8,0.466788055841,,,2017_Sep_28_1802,60.0082377058,MAFE4ImagesEEG,001,201611,
AFNE01.JPG,AFNE01.JPG,AFNE01.JPG,AFNE01.JPG,AFNE01.JPG,AFNE01.JPG,1,7,17,0,,,,,,,,,,,,,,,,,,,,,,,AMSA16.jpg,AMSA10.jpg,AMNE20.jpg,AMNE06.jpg,AMSA16.jpg,MS,2,num_8,32,num_4,0.750133908819,,,2017_Sep_28_1802,60.0082377058,MAFE4ImagesEEG,001,201611,
AFNE01.JPG,AFNE01.JPG,AFNE01.JPG,AFNE01.JPG,AFNE01.JPG,AFNE01.JPG,1,8,18,6,,,,,,,,,,,,,,,,,,,,,,,AMNE14.jpg,AMSA13.jpg,AMSA09.jpg,AMNE08.jpg,AMSA13.jpg,MS,2,num_6,16,num_6,0.583467669785,,,2017_Sep_28_1802,60.0082377058,MAFE4ImagesEEG,001,201611,
AFNE01.JPG,AFNE01.JPG,AFNE01.JPG,AFNE01.JPG,AFNE01.JPG,AFNE01.JPG,1,9,19,1,,,,,,,,,,,,,,,,,,,,,,,AMNE18.jpg,AMSA20.jpg,AMSA10.jpg,AMNE02.jpg,AMSA10.jpg,MS,2,num_2,32,num_6,0.700147604337,,,2017_Sep_28_1802,60.0082377058,MAFE4ImagesEEG,001,201611,
AFNE01.JPG,AFNE01.JPG,AFNE01.JPG,AFNE01.JPG,AFNE01.JPG,AFNE01.JPG,2,0,20,7,,,,,,,,,,,,,,,,,,,,,,,AMNE15.jpg,AMSA19.jpg,AMSA08.jpg,AMNE07.jpg,AMNE07.jpg,MN,1,num_4,32,num_8,0.633510103566,,,2017_Sep_28_1802,60.0082377058,MAFE4ImagesEEG,001,201611,
AFNE01.JPG,AFNE01.JPG,AFNE01.JPG,AFNE01.JPG,AFNE01.JPG,AFNE01.JPG,2,1,21,3,,,,,,,,,,,,,,,,,,,,,,,AMNE16.jpg,AMNE09.jpg,AMSA20.jpg,AMSA14.jpg,AMNE16.jpg,MN,1,num_8,32,num_6,0.733494579792,,,2017_Sep_28_1802,60.0082377058,MAFE4ImagesEEG,001,201611,
AFNE01.JPG,AFNE01.JPG,AFNE01.JPG,AFNE01.JPG,AFNE01.JPG,AFNE01.JPG,2,2,22,2,,,,,,,,,,,,,,,,,,,,,,,AMNE18.jpg,AMSA14.jpg,AMSA10.jpg,AMNE03.jpg,AMNE18.jpg,MN,1,num_8,16,num_8,0.433491436532,,,2017_Sep_28_1802,60.0082377058,MAFE4ImagesEEG,001,201611,
AFNE01.JPG,AFNE01.JPG,AFNE01.JPG,AFNE01.JPG,AFNE01.JPG,AFNE01.JPG,2,3,23,4,,,,,,,,,,,,,,,,,,,,,,,AMNE17.jpg,AMSA04.jpg,AMNE20.jpg,AMSA08.jpg,AMSA08.jpg,MS,2,num_4,16,num_4,0.783471582807,,,2017_Sep_28_1802,60.0082377058,MAFE4ImagesEEG,001,201611,
AFNE01.JPG,AFNE01.JPG,AFNE01.JPG,AFNE01.JPG,AFNE01.JPG,AFNE01.JPG,2,4,24,9,,,,,,,,,,,,,,,,,,,,,,,AMSA06.jpg,AMNE11.jpg,AMNE10.jpg,AMSA09.jpg,AMSA09.jpg,MS,2,num_4,16,num_4,0.449976169039,,,2017_Sep_28_1802,60.0082377058,MAFE4ImagesEEG,001,201611,
AFNE01.JPG,AFNE01.JPG,AFNE01.JPG,AFNE01.JPG,AFNE01.JPG,AFNE01.JPG,2,5,25,0,,,,,,,,,,,,,,,,,,,,,,,AMSA19.jpg,AMNE15.jpg,AMNE08.jpg,AMSA01.jpg,AMNE15.jpg,MN,1,num_6,16,num_6,0.483530983794,,,2017_Sep_28_1802,60.0082377058,MAFE4ImagesEEG,001,201611,
AFNE01.JPG,AFNE01.JPG,AFNE01.JPG,AFNE01.JPG,AFNE01.JPG,AFNE01.JPG,2,6,26,5,,,,,,,,,,,,,,,,,,,,,,,AMSA02.jpg,AMNE13.jpg,AMNE19.jpg,AMSA01.jpg,AMSA01.jpg,MS,2,num_4,32,num_8,0.366816409281,,,2017_Sep_28_1802,60.0082377058,MAFE4ImagesEEG,001,201611,
AFNE01.JPG,AFNE01.JPG,AFNE01.JPG,AFNE01.JPG,AFNE01.JPG,AFNE01.JPG,2,7,27,6,,,,,,,,,,,,,,,,,,,,,,,AMSA17.jpg,AMNE02.jpg,AMSA13.jpg,AMNE16.jpg,AMNE16.jpg,MN,1,num_4,16,num_4,0.400207326049,,,2017_Sep_28_1802,60.0082377058,MAFE4ImagesEEG,001,201611,
AFNE01.JPG,AFNE01.JPG,AFNE01.JPG,AFNE01.JPG,AFNE01.JPG,AFNE01.JPG,2,8,28,8,,,,,,,,,,,,,,,,,,,,,,,AMNE08.jpg,AMNE09.jpg,AMSA18.jpg,AMSA08.jpg,AMSA18.jpg,MS,2,num_2,16,num_2,0.683495766483,,,2017_Sep_28_1802,60.0082377058,MAFE4ImagesEEG,001,201611,
AFNE01.JPG,AFNE01.JPG,AFNE01.JPG,AFNE01.JPG,AFNE01.JPG,AFNE01.JPG,2,9,29,1,,,,,,,,,,,,,,,,,,,,,,,AMNE17.jpg,AMSA17.jpg,AMNE20.jpg,AMSA15.jpg,AMNE17.jpg,MN,1,num_8,32,num_2,0.616833248059,,,2017_Sep_28_1802,60.0082377058,MAFE4ImagesEEG,001,201611,
AFNE01.JPG,AFNE01.JPG,AFNE01.JPG,AFNE01.JPG,AFNE01.JPG,AFNE01.JPG,3,0,30,8,,,,,,,,,,,,,,,,,,,,,,,AMSA17.jpg,AMSA20.jpg,AMNE13.jpg,AMNE08.jpg,AMNE08.jpg,MN,1,num_4,32,num_6,1.10015318519,,,2017_Sep_28_1802,60.0082377058,MAFE4ImagesEEG,001,201611,
AFNE01.JPG,AFNE01.JPG,AFNE01.JPG,AFNE01.JPG,AFNE01.JPG,AFNE01.JPG,3,1,31,4,,,,,,,,,,,,,,,,,,,,,,,AMSA11.jpg,AMNE14.jpg,AMSA07.jpg,AMNE09.jpg,AMSA07.jpg,MS,2,num_2,32,num_4,1.100122715,,,2017_Sep_28_1802,60.0082377058,MAFE4ImagesEEG,001,201611,
AFNE01.JPG,AFNE01.JPG,AFNE01.JPG,AFNE01.JPG,AFNE01.JPG,AFNE01.JPG,3,2,32,6,,,,,,,,,,,,,,,,,,,,,,,AMNE19.jpg,AMSA10.jpg,AMSA01.jpg,AMNE15.jpg,AMSA10.jpg,MS,2,num_6,16,num_6,0.833480018191,,,2017_Sep_28_1802,60.0082377058,MAFE4ImagesEEG,001,201611,
AFNE01.JPG,AFNE01.JPG,AFNE01.JPG,AFNE01.JPG,AFNE01.JPG,AFNE01.JPG,3,3,33,5,,,,,,,,,,,,,,,,,,,,,,,AMSA14.jpg,AMSA15.jpg,AMNE02.jpg,AMNE05.jpg,AMSA14.jpg,MS,2,num_8,32,num_2,1.3501228753,,,2017_Sep_28_1802,60.0082377058,MAFE4ImagesEEG,001,201611,
AFNE01.JPG,AFNE01.JPG,AFNE01.JPG,AFNE01.JPG,AFNE01.JPG,AFNE01.JPG,3,4,34,3,,,,,,,,,,,,,,,,,,,,,,,AMSA19.jpg,AMSA09.jpg,AMNE04.jpg,AMNE08.jpg,AMSA19.jpg,MS,2,num_8,16,num_8,1.05009663885,,,2017_Sep_28_1802,60.0082377058,MAFE4ImagesEEG,001,201611,
AFNE01.JPG,AFNE01.JPG,AFNE01.JPG,AFNE01.JPG,AFNE01.JPG,AFNE01.JPG,3,5,35,7,,,,,,,,,,,,,,,,,,,,,,,AMNE09.jpg,AMSA13.jpg,AMNE20.jpg,AMSA16.jpg,AMNE09.jpg,MN,1,num_8,32,num_2,0.716768971877,,,2017_Sep_28_1802,60.0082377058,MAFE4ImagesEEG,001,201611,
AFNE01.JPG,AFNE01.JPG,AFNE01.JPG,AFNE01.JPG,AFNE01.JPG,AFNE01.JPG,3,6,36,1,,,,,,,,,,,,,,,,,,,,,,,AMSA07.jpg,AMSA17.jpg,AMNE03.jpg,AMNE18.jpg,AMSA17.jpg,MS,2,num_6,16,num_6,0.916845692787,,,2017_Sep_28_1802,60.0082377058,MAFE4ImagesEEG,001,201611,
AFNE01.JPG,AFNE01.JPG,AFNE01.JPG,AFNE01.JPG,AFNE01.JPG,AFNE01.JPG,3,7,37,2,,,,,,,,,,,,,,,,,,,,,,,AMNE10.jpg,AMSA20.jpg,AMNE01.jpg,AMSA11.jpg,AMSA20.jpg,MS,2,num_6,32,num_2,0.750138719915,,,2017_Sep_28_1802,60.0082377058,MAFE4ImagesEEG,001,201611,
AFNE01.JPG,AFNE01.JPG,AFNE01.JPG,AFNE01.JPG,AFNE01.JPG,AFNE01.JPG,3,8,38,9,,,,,,,,,,,,,,,,,,,,,,,AMSA18.jpg,AMSA04.jpg,AMNE12.jpg,AMNE16.jpg,AMSA18.jpg,MS,2,num_8,16,num_8,1.15017060144,,,2017_Sep_28_1802,60.0082377058,MAFE4ImagesEEG,001,201611,
AFNE01.JPG,AFNE01.JPG,AFNE01.JPG,AFNE01.JPG,AFNE01.JPG,AFNE01.JPG,3,9,39,0,,,,,,,,,,,,,,,,,,,,,,,AMSA13.jpg,AMSA12.jpg,AMNE19.jpg,AMNE16.jpg,AMNE19.jpg,MN,1,num_2,16,num_2,0.68360193132,,,2017_Sep_28_1802,60.0082377058,MAFE4ImagesEEG,001,201611,
AFNE01.JPG,AFNE01.JPG,AFNE01.JPG,AFNE01.JPG,AFNE01.JPG,AFNE01.JPG,4,0,40,5,,,,,,,,,,,,,,,,,,,,,,,AMSA11.jpg,AMNE15.jpg,AMSA08.jpg,AMNE02.jpg,AMNE15.jpg,MN,1,num_6,16,num_6,0.833469433826,,,2017_Sep_28_1802,60.0082377058,MAFE4ImagesEEG,001,201611,
AFNE01.JPG,AFNE01.JPG,AFNE01.JPG,AFNE01.JPG,AFNE01.JPG,AFNE01.JPG,4,1,41,9,,,,,,,,,,,,,,,,,,,,,,,AMNE17.jpg,AMNE01.jpg,AMSA04.jpg,AMSA01.jpg,AMSA01.jpg,MS,2,num_4,16,num_4,0.633508179104,,,2017_Sep_28_1802,60.0082377058,MAFE4ImagesEEG,001,201611,
AFNE01.JPG,AFNE01.JPG,AFNE01.JPG,AFNE01.JPG,AFNE01.JPG,AFNE01.JPG,4,2,42,2,,,,,,,,,,,,,,,,,,,,,,,AMSA17.jpg,AMNE05.jpg,AMNE16.jpg,AMSA16.jpg,AMNE16.jpg,MN,1,num_2,32,num_6,1.05013095797,,,2017_Sep_28_1802,60.0082377058,MAFE4ImagesEEG,001,201611,
AFNE01.JPG,AFNE01.JPG,AFNE01.JPG,AFNE01.JPG,AFNE01.JPG,AFNE01.JPG,4,3,43,6,,,,,,,,,,,,,,,,,,,,,,,AMSA18.jpg,AMNE14.jpg,AMNE04.jpg,AMSA13.jpg,AMNE04.jpg,MN,1,num_2,32,num_6,0.550175540731,,,2017_Sep_28_1802,60.0082377058,MAFE4ImagesEEG,001,201611,
AFNE01.JPG,AFNE01.JPG,AFNE01.JPG,AFNE01.JPG,AFNE01.JPG,AFNE01.JPG,4,4,44,4,,,,,,,,,,,,,,,,,,,,,,,AMSA16.jpg,AMNE10.jpg,AMNE04.jpg,AMSA07.jpg,AMSA07.jpg,MS,2,num_4,32,num_6,0.716804574011,,,2017_Sep_28_1802,60.0082377058,MAFE4ImagesEEG,001,201611,
AFNE01.JPG,AFNE01.JPG,AFNE01.JPG,AFNE01.JPG,AFNE01.JPG,AFNE01.JPG,4,5,45,3,,,,,,,,,,,,,,,,,,,,,,,AMSA01.jpg,AMNE19.jpg,AMNE15.jpg,AMSA09.jpg,AMNE15.jpg,MN,1,num_2,32,num_6,1.23343941267,,,2017_Sep_28_1802,60.0082377058,MAFE4ImagesEEG,001,201611,
AFNE01.JPG,AFNE01.JPG,AFNE01.JPG,AFNE01.JPG,AFNE01.JPG,AFNE01.JPG,4,6,46,1,,,,,,,,,,,,,,,,,,,,,,,AMSA05.jpg,AMNE14.jpg,AMSA06.jpg,AMNE01.jpg,AMNE14.jpg,MN,1,num_6,16,num_6,0.816999134608,,,2017_Sep_28_1802,60.0082377058,MAFE4ImagesEEG,001,201611,
AFNE01.JPG,AFNE01.JPG,AFNE01.JPG,AFNE01.JPG,AFNE01.JPG,AFNE01.JPG,4,7,47,8,,,,,,,,,,,,,,,,,,,,,,,AMNE14.jpg,AMNE18.jpg,AMSA05.jpg,AMSA01.jpg,AMNE18.jpg,MN,1,num_6,16,num_6,0.983463307726,,,2017_Sep_28_1802,60.0082377058,MAFE4ImagesEEG,001,201611,
AFNE01.JPG,AFNE01.JPG,AFNE01.JPG,AFNE01.JPG,AFNE01.JPG,AFNE01.JPG,4,8,48,7,,,,,,,,,,,,,,,,,,,,,,,AMSA19.jpg,AMSA02.jpg,AMNE18.jpg,AMNE19.jpg,AMSA02.jpg,MS,2,num_6,32,num_2,1.13310917909,,,2017_Sep_28_1802,60.0082377058,MAFE4ImagesEEG,001,201611,
AFNE01.JPG,AFNE01.JPG,AFNE01.JPG,AFNE01.JPG,AFNE01.JPG,AFNE01.JPG,4,9,49,0,,,,,,,,,,,,,,,,,,,,,,,AMNE16.jpg,AMNE03.jpg,AMSA12.jpg,AMSA09.jpg,AMSA09.jpg,MS,2,num_4,16,num_4,0.433500738,,,2017_Sep_28_1802,60.0082377058,MAFE4ImagesEEG,001,201611,
AFNE01.JPG,AFNE01.JPG,AFNE01.JPG,AFNE01.JPG,AFNE01.JPG,AFNE01.JPG,5,0,50,4,,,,,,,,,,,,,,,,,,,,,,,AMSA10.jpg,AMNE11.jpg,AMNE05.jpg,AMSA14.jpg,AMNE11.jpg,MN,1,num_6,32,num_2,0.600217974628,,,2017_Sep_28_1802,60.0082377058,MAFE4ImagesEEG,001,201611,
AFNE01.JPG,AFNE01.JPG,AFNE01.JPG,AFNE01.JPG,AFNE01.JPG,AFNE01.JPG,5,1,51,0,,,,,,,,,,,,,,,,,,,,,,,AMNE05.jpg,AMSA08.jpg,AMSA17.jpg,AMNE07.jpg,AMNE05.jpg,MN,1,num_8,32,num_2,0.683469786658,,,2017_Sep_28_1802,60.0082377058,MAFE4ImagesEEG,001,201611,
AFNE01.JPG,AFNE01.JPG,AFNE01.JPG,AFNE01.JPG,AFNE01.JPG,AFNE01.JPG,5,2,52,6,,,,,,,,,,,,,,,,,,,,,,,AMSA02.jpg,AMNE05.jpg,AMNE04.jpg,AMSA18.jpg,AMSA18.jpg,MS,2,num_4,32,num_6,0.666801591055,,,2017_Sep_28_1802,60.0082377058,MAFE4ImagesEEG,001,201611,
AFNE01.JPG,AFNE01.JPG,AFNE01.JPG,AFNE01.JPG,AFNE01.JPG,AFNE01.JPG,5,3,53,2,,,,,,,,,,,,,,,,,,,,,,,AMNE17.jpg,AMSA11.jpg,AMNE13.jpg,AMSA17.jpg,AMSA17.jpg,MS,2,num_4,32,num_8,0.600153826643,,,2017_Sep_28_1802,60.0082377058,MAFE4ImagesEEG,001,201611,
AFNE01.JPG,AFNE01.JPG,AFNE01.JPG,AFNE01.JPG,AFNE01.JPG,AFNE01.JPG,5,4,54,8,,,,,,,,,,,,,,,,,,,,,,,AMSA05.jpg,AMNE15.jpg,AMNE07.jpg,AMSA02.jpg,AMSA05.jpg,MS,2,num_8,32,num_6,0.616768137901,,,2017_Sep_28_1802,60.0082377058,MAFE4ImagesEEG,001,201611,
AFNE01.JPG,AFNE01.JPG,AFNE01.JPG,AFNE01.JPG,AFNE01.JPG,AFNE01.JPG,5,5,55,5,,,,,,,,,,,,,,,,,,,,,,,AMSA20.jpg,AMNE13.jpg,AMSA06.jpg,AMNE01.jpg,AMSA06.jpg,MS,2,num_2,32,num_6,0.783334626933,,,2017_Sep_28_1802,60.0082377058,MAFE4ImagesEEG,001,201611,
AFNE01.JPG,AFNE01.JPG,AFNE01.JPG,AFNE01.JPG,AFNE01.JPG,AFNE01.JPG,5,6,56,7,,,,,,,,,,,,,,,,,,,,,,,AMSA20.jpg,AMSA08.jpg,AMNE13.jpg,AMNE17.jpg,AMSA08.jpg,MS,2,num_6,16,num_6,0.81680637016,,,2017_Sep_28_1802,60.0082377058,MAFE4ImagesEEG,001,201611,
AFNE01.JPG,AFNE01.JPG,AFNE01.JPG,AFNE01.JPG,AFNE01.JPG,AFNE01.JPG,5,7,57,3,,,,,,,,,,,,,,,,,,,,,,,AMNE17.jpg,AMNE07.jpg,AMSA18.jpg,AMSA06.jpg,AMSA06.jpg,MS,2,num_4,32,num_8,0.650164186605,,,2017_Sep_28_1802,60.0082377058,MAFE4ImagesEEG,001,201611,
AFNE01.JPG,AFNE01.JPG,AFNE01.JPG,AFNE01.JPG,AFNE01.JPG,AFNE01.JPG,5,8,58,1,,,,,,,,,,,,,,,,,,,,,,,AMNE16.jpg,AMSA18.jpg,AMNE04.jpg,AMSA16.jpg,AMSA16.jpg,MS,2,num_4,32,num_6,0.933481493732,,,2017_Sep_28_1802,60.0082377058,MAFE4ImagesEEG,001,201611,
AFNE01.JPG,AFNE01.JPG,AFNE01.JPG,AFNE01.JPG,AFNE01.JPG,AFNE01.JPG,5,9,59,9,,,,,,,,,,,,,,,,,,,,,,,AMNE03.jpg,AMSA04.jpg,AMNE18.jpg,AMSA19.jpg,AMNE03.jpg,MN,1,num_8,16,num_8,0.917031721794,,,2017_Sep_28_1802,60.0082377058,MAFE4ImagesEEG,001,201611,
,,,,,,,,,,,,,,,,,,,,,,,,,,,,,,,,,,,,,,,,,,,space,1.1667461032,2017_Sep_28_1802,60.0082377058,MAFE4ImagesEEG,001,201611,
AFNE01.JPG,AFNE01.JPG,AFNE01.JPG,AFNE01.JPG,AFNE01.JPG,AFNE01.JPG,,,,,0,0,0,2,,,,,,,,,,,,,,,,,,,AFSA20.jpg,AFNE18.jpg,AFSA05.jpg,AFNE19.jpg,AFSA05.jpg,FS,4,num_2,16,num_2,0.900126499706,,,2017_Sep_28_1802,60.0082377058,MAFE4ImagesEEG,001,201611,
AFNE01.JPG,AFNE01.JPG,AFNE01.JPG,AFNE01.JPG,AFNE01.JPG,AFNE01.JPG,,,,,0,1,1,6,,,,,,,,,,,,,,,,,,,AFSA14.jpg,AFNE10.jpg,AFSA16.jpg,AFNE03.jpg,AFNE03.jpg,FN,3,num_4,32,num_8,0.716820290196,,,2017_Sep_28_1802,60.0082377058,MAFE4ImagesEEG,001,201611,
AFNE01.JPG,AFNE01.JPG,AFNE01.JPG,AFNE01.JPG,AFNE01.JPG,AFNE01.JPG,,,,,0,2,2,0,,,,,,,,,,,,,,,,,,,AFNE06.jpg,AFSA08.jpg,AFSA20.jpg,AFNE20.jpg,AFNE06.jpg,FN,3,num_8,32,num_2,0.883484925609,,,2017_Sep_28_1802,60.0082377058,MAFE4ImagesEEG,001,201611,
AFNE01.JPG,AFNE01.JPG,AFNE01.JPG,AFNE01.JPG,AFNE01.JPG,AFNE01.JPG,,,,,0,3,3,4,,,,,,,,,,,,,,,,,,,AFNE07.jpg,AFNE18.jpg,AFSA03.jpg,AFSA06.jpg,AFNE18.jpg,FN,3,num_6,32,num_4,0.750150587177,,,2017_Sep_28_1802,60.0082377058,MAFE4ImagesEEG,001,201611,
AFNE01.JPG,AFNE01.JPG,AFNE01.JPG,AFNE01.JPG,AFNE01.JPG,AFNE01.JPG,,,,,0,4,4,8,,,,,,,,,,,,,,,,,,,AFNE04.jpg,AFSA08.jpg,AFNE18.jpg,AFSA17.jpg,AFSA17.jpg,FS,4,num_4,32,num_6,0.650132112671,,,2017_Sep_28_1802,60.0082377058,MAFE4ImagesEEG,001,201611,
AFNE01.JPG,AFNE01.JPG,AFNE01.JPG,AFNE01.JPG,AFNE01.JPG,AFNE01.JPG,,,,,0,5,5,1,,,,,,,,,,,,,,,,,,,AFSA05.jpg,AFNE18.jpg,AFSA12.jpg,AFNE14.jpg,AFNE14.jpg,FN,3,num_4,16,num_4,0.650154885137,,,2017_Sep_28_1802,60.0082377058,MAFE4ImagesEEG,001,201611,
AFNE01.JPG,AFNE01.JPG,AFNE01.JPG,AFNE01.JPG,AFNE01.JPG,AFNE01.JPG,,,,,0,6,6,3,,,,,,,,,,,,,,,,,,,AFSA10.jpg,AFNE14.jpg,AFSA01.jpg,AFNE04.jpg,AFNE14.jpg,FN,3,num_6,32,num_2,0.683455674094,,,2017_Sep_28_1802,60.0082377058,MAFE4ImagesEEG,001,201611,
AFNE01.JPG,AFNE01.JPG,AFNE01.JPG,AFNE01.JPG,AFNE01.JPG,AFNE01.JPG,,,,,0,7,7,9,,,,,,,,,,,,,,,,,,,AFNE12.jpg,AFNE20.jpg,AFSA18.jpg,AFSA01.jpg,AFSA18.jpg,FS,4,num_2,16,num_2,1.64971835853,,,2017_Sep_28_1802,60.0082377058,MAFE4ImagesEEG,001,201611,
AFNE01.JPG,AFNE01.JPG,AFNE01.JPG,AFNE01.JPG,AFNE01.JPG,AFNE01.JPG,,,,,0,8,8,7,,,,,,,,,,,,,,,,,,,AFNE17.jpg,AFSA18.jpg,AFNE15.jpg,AFSA01.jpg,AFNE17.jpg,FN,3,num_8,32,num_6,1.86671633855,,,2017_Sep_28_1802,60.0082377058,MAFE4ImagesEEG,001,201611,
AFNE01.JPG,AFNE01.JPG,AFNE01.JPG,AFNE01.JPG,AFNE01.JPG,AFNE01.JPG,,,,,0,9,9,5,,,,,,,,,,,,,,,,,,,AFSA04.jpg,AFSA13.jpg,AFNE17.jpg,AFNE11.jpg,AFSA04.jpg,FS,4,num_8,16,num_8,0.7667947273,,,2017_Sep_28_1802,60.0082377058,MAFE4ImagesEEG,001,201611,
AFNE01.JPG,AFNE01.JPG,AFNE01.JPG,AFNE01.JPG,AFNE01.JPG,AFNE01.JPG,,,,,1,0,10,3,,,,,,,,,,,,,,,,,,,AFNE18.jpg,AFNE01.jpg,AFSA11.jpg,AFSA04.jpg,AFSA11.jpg,FS,4,num_2,16,num_2,0.533463724656,,,2017_Sep_28_1802,60.0082377058,MAFE4ImagesEEG,001,201611,
AFNE01.JPG,AFNE01.JPG,AFNE01.JPG,AFNE01.JPG,AFNE01.JPG,AFNE01.JPG,,,,,1,1,11,7,,,,,,,,,,,,,,,,,,,AFSA03.jpg,AFNE02.jpg,AFNE11.jpg,AFSA12.jpg,AFNE11.jpg,FN,3,num_2,32,num_6,0.800180191523,,,2017_Sep_28_1802,60.0082377058,MAFE4ImagesEEG,001,201611,
AFNE01.JPG,AFNE01.JPG,AFNE01.JPG,AFNE01.JPG,AFNE01.JPG,AFNE01.JPG,,,,,1,2,12,5,,,,,,,,,,,,,,,,,,,AFNE02.jpg,AFSA10.jpg,AFNE05.jpg,AFSA14.jpg,AFSA14.jpg,FS,4,num_4,32,num_8,0.733509975369,,,2017_Sep_28_1802,60.0082377058,MAFE4ImagesEEG,001,201611,
AFNE01.JPG,AFNE01.JPG,AFNE01.JPG,AFNE01.JPG,AFNE01.JPG,AFNE01.JPG,,,,,1,3,13,8,,,,,,,,,,,,,,,,,,,AFSA10.jpg,AFNE11.jpg,AFNE09.jpg,AFSA08.jpg,AFNE09.jpg,FN,3,num_2,32,num_6,0.65019369463,,,2017_Sep_28_1802,60.0082377058,MAFE4ImagesEEG,001,201611,
AFNE01.JPG,AFNE01.JPG,AFNE01.JPG,AFNE01.JPG,AFNE01.JPG,AFNE01.JPG,,,,,1,4,14,1,,,,,,,,,,,,,,,,,,,AFSA19.jpg,AFSA17.jpg,AFNE16.jpg,AFNE07.jpg,AFSA19.jpg,FS,4,num_8,16,num_8,0.566819039406,,,2017_Sep_28_1802,60.0082377058,MAFE4ImagesEEG,001,201611,
AFNE01.JPG,AFNE01.JPG,AFNE01.JPG,AFNE01.JPG,AFNE01.JPG,AFNE01.JPG,,,,,1,5,15,2,,,,,,,,,,,,,,,,,,,AFNE05.jpg,AFNE17.jpg,AFSA06.jpg,AFSA04.jpg,AFSA06.jpg,FS,4,num_2,32,num_6,0.783499807818,,,2017_Sep_28_1802,60.0082377058,MAFE4ImagesEEG,001,201611,
AFNE01.JPG,AFNE01.JPG,AFNE01.JPG,AFNE01.JPG,AFNE01.JPG,AFNE01.JPG,,,,,1,6,16,4,,,,,,,,,,,,,,,,,,,AFSA11.jpg,AFNE05.jpg,AFSA04.jpg,AFNE02.jpg,AFNE05.jpg,FN,3,num_6,32,num_8,0.883449323475,,,2017_Sep_28_1802,60.0082377058,MAFE4ImagesEEG,001,201611,
AFNE01.JPG,AFNE01.JPG,AFNE01.JPG,AFNE01.JPG,AFNE01.JPG,AFNE01.JPG,,,,,1,7,17,6,,,,,,,,,,,,,,,,,,,AFNE15.jpg,AFNE13.jpg,AFSA09.jpg,AFSA20.jpg,AFNE13.jpg,FN,3,num_6,32,num_2,1.08346766979,,,2017_Sep_28_1802,60.0082377058,MAFE4ImagesEEG,001,201611,
AFNE01.JPG,AFNE01.JPG,AFNE01.JPG,AFNE01.JPG,AFNE01.JPG,AFNE01.JPG,,,,,1,8,18,0,,,,,,,,,,,,,,,,,,,AFSA15.jpg,AFSA08.jpg,AFNE17.jpg,AFNE13.jpg,AFNE13.jpg,FN,3,num_4,32,num_6,0.616805664613,,,2017_Sep_28_1802,60.0082377058,MAFE4ImagesEEG,001,201611,
AFNE01.JPG,AFNE01.JPG,AFNE01.JPG,AFNE01.JPG,AFNE01.JPG,AFNE01.JPG,,,,,1,9,19,9,,,,,,,,,,,,,,,,,,,AFNE15.jpg,AFNE08.jpg,AFSA03.jpg,AFSA07.jpg,AFSA03.jpg,FS,4,num_2,32,num_4,0.850133139058,,,2017_Sep_28_1802,60.0082377058,MAFE4ImagesEEG,001,201611,
AFNE01.JPG,AFNE01.JPG,AFNE01.JPG,AFNE01.JPG,AFNE01.JPG,AFNE01.JPG,,,,,2,0,20,8,,,,,,,,,,,,,,,,,,,AFNE10.jpg,AFNE17.jpg,AFSA04.jpg,AFSA18.jpg,AFNE10.jpg,FN,3,num_8,32,num_2,0.866849445505,,,2017_Sep_28_1802,60.0082377058,MAFE4ImagesEEG,001,201611,
AFNE01.JPG,AFNE01.JPG,AFNE01.JPG,AFNE01.JPG,AFNE01.JPG,AFNE01.JPG,,,,,2,1,21,5,,,,,,,,,,,,,,,,,,,AFNE18.jpg,AFSA16.jpg,AFNE15.jpg,AFSA03.jpg,AFSA03.jpg,FS,4,num_4,16,num_4,0.666824363638,,,2017_Sep_28_1802,60.0082377058,MAFE4ImagesEEG,001,201611,
AFNE01.JPG,AFNE01.JPG,AFNE01.JPG,AFNE01.JPG,AFNE01.JPG,AFNE01.JPG,,,,,2,2,22,3,,,,,,,,,,,,,,,,,,,AFNE20.jpg,AFSA20.jpg,AFSA14.jpg,AFNE10.jpg,AFSA14.jpg,FS,4,num_2,32,num_8,1.13343857869,,,2017_Sep_28_1802,60.0082377058,MAFE4ImagesEEG,001,201611,
AFNE01.JPG,AFNE01.JPG,AFNE01.JPG,AFNE01.JPG,AFNE01.JPG,AFNE01.JPG,,,,,2,3,23,9,,,,,,,,,,,,,,,,,,,AFNE16.jpg,AFNE19.jpg,AFSA20.jpg,AFSA01.jpg,AFSA20.jpg,FS,4,num_2,32,num_6,1.16676855495,,,2017_Sep_28_1802,60.0082377058,MAFE4ImagesEEG,001,201611,
AFNE01.JPG,AFNE01.JPG,AFNE01.JPG,AFNE01.JPG,AFNE01.JPG,AFNE01.JPG,,,,,2,4,24,6,,,,,,,,,,,,,,,,,,,AFSA08.jpg,AFSA07.jpg,AFNE19.jpg,AFNE14.jpg,AFSA07.jpg,FS,4,num_6,16,num_6,0.716801366536,,,2017_Sep_28_1802,60.0082377058,MAFE4ImagesEEG,001,201611,
AFNE01.JPG,AFNE01.JPG,AFNE01.JPG,AFNE01.JPG,AFNE01.JPG,AFNE01.JPG,,,,,2,5,25,4,,,,,,,,,,,,,,,,,,,AFNE13.jpg,AFNE16.jpg,AFSA05.jpg,AFSA04.jpg,AFNE16.jpg,FN,3,num_6,32,num_2,1.51671726862,,,2017_Sep_28_1802,60.0082377058,MAFE4ImagesEEG,001,201611,
AFNE01.JPG,AFNE01.JPG,AFNE01.JPG,AFNE01.JPG,AFNE01.JPG,AFNE01.JPG,,,,,2,6,26,7,,,,,,,,,,,,,,,,,,,AFSA12.jpg,AFSA08.jpg,AFNE07.jpg,AFNE06.jpg,AFSA08.jpg,FS,4,num_6,32,num_8,1.00012797513,,,2017_Sep_28_1802,60.0082377058,MAFE4ImagesEEG,001,201611,
AFNE01.JPG,AFNE01.JPG,AFNE01.JPG,AFNE01.JPG,AFNE01.JPG,AFNE01.JPG,,,,,2,7,27,0,,,,,,,,,,,,,,,,,,,AFNE09.jpg,AFNE17.jpg,AFSA03.jpg,AFSA05.jpg,AFSA03.jpg,FS,4,num_2,32,num_4,1.43345423078,,,2017_Sep_28_1802,60.0082377058,MAFE4ImagesEEG,001,201611,
AFNE01.JPG,AFNE01.JPG,AFNE01.JPG,AFNE01.JPG,AFNE01.JPG,AFNE01.JPG,,,,,2,8,28,2,,,,,,,,,,,,,,,,,,,AFNE19.jpg,AFSA07.jpg,AFNE04.jpg,AFSA08.jpg,AFNE04.jpg,FN,3,num_2,16,num_2,1.55007611145,,,2017_Sep_28_1802,60.0082377058,MAFE4ImagesEEG,001,201611,
AFNE01.JPG,AFNE01.JPG,AFNE01.JPG,AFNE01.JPG,AFNE01.JPG,AFNE01.JPG,,,,,2,9,29,1,,,,,,,,,,,,,,,,,,,AFSA08.jpg,AFSA10.jpg,AFNE01.jpg,AFNE08.jpg,AFSA08.jpg,FS,4,num_8,32,num_2,1.05010978912,,,2017_Sep_28_1802,60.0082377058,MAFE4ImagesEEG,001,201611,
AFNE01.JPG,AFNE01.JPG,AFNE01.JPG,AFNE01.JPG,AFNE01.JPG,AFNE01.JPG,,,,,3,0,30,0,,,,,,,,,,,,,,,,,,,AFNE09.jpg,AFSA17.jpg,AFNE10.jpg,AFSA16.jpg,AFSA17.jpg,FS,4,num_6,16,num_6,0.65012184903,,,2017_Sep_28_1802,60.0082377058,MAFE4ImagesEEG,001,201611,
AFNE01.JPG,AFNE01.JPG,AFNE01.JPG,AFNE01.JPG,AFNE01.JPG,AFNE01.JPG,,,,,3,1,31,1,,,,,,,,,,,,,,,,,,,AFSA20.jpg,AFSA04.jpg,AFNE01.jpg,AFNE10.jpg,AFSA04.jpg,FS,4,num_6,32,num_2,1.08345419879,,,2017_Sep_28_1802,60.0082377058,MAFE4ImagesEEG,001,201611,
AFNE01.JPG,AFNE01.JPG,AFNE01.JPG,AFNE01.JPG,AFNE01.JPG,AFNE01.JPG,,,,,3,2,32,8,,,,,,,,,,,,,,,,,,,AFNE15.jpg,AFSA05.jpg,AFSA08.jpg,AFNE03.jpg,AFSA08.jpg,FS,4,num_2,32,num_4,1.26674597489,,,2017_Sep_28_1802,60.0082377058,MAFE4ImagesEEG,001,201611,
AFNE01.JPG,AFNE01.JPG,AFNE01.JPG,AFNE01.JPG,AFNE01.JPG,AFNE01.JPG,,,,,3,3,33,9,,,,,,,,,,,,,,,,,,,AFSA16.jpg,AFNE16.jpg,AFNE10.jpg,AFSA12.jpg,AFSA12.jpg,FS,4,num_4,32,num_6,0.966772018932,,,2017_Sep_28_1802,60.0082377058,MAFE4ImagesEEG,001,201611,
AFNE01.JPG,AFNE01.JPG,AFNE01.JPG,AFNE01.JPG,AFNE01.JPG,AFNE01.JPG,,,,,3,4,34,5,,,,,,,,,,,,,,,,,,,AFNE11.jpg,AFNE15.jpg,AFSA20.jpg,AFSA16.jpg,AFSA20.jpg,FS,4,num_2,16,num_2,0.866799089359,,,2017_Sep_28_1802,60.0082377058,MAFE4ImagesEEG,001,201611,
AFNE01.JPG,AFNE01.JPG,AFNE01.JPG,AFNE01.JPG,AFNE01.JPG,AFNE01.JPG,,,,,3,5,35,4,,,,,,,,,,,,,,,,,,,AFNE16.jpg,AFSA06.jpg,AFSA12.jpg,AFNE01.jpg,AFNE01.jpg,FN,3,num_4,16,num_4,2.14987616253,,,2017_Sep_28_1802,60.0082377058,MAFE4ImagesEEG,001,201611,
AFNE01.JPG,AFNE01.JPG,AFNE01.JPG,AFNE01.JPG,AFNE01.JPG,AFNE01.JPG,,,,,3,6,36,7,,,,,,,,,,,,,,,,,,,AFNE07.jpg,AFSA13.jpg,AFSA04.jpg,AFNE11.jpg,AFNE11.jpg,FN,3,num_4,32,num_6,1.93341798719,,,2017_Sep_28_1802,60.0082377058,MAFE4ImagesEEG,001,201611,
AFNE01.JPG,AFNE01.JPG,AFNE01.JPG,AFNE01.JPG,AFNE01.JPG,AFNE01.JPG,,,,,3,7,37,3,,,,,,,,,,,,,,,,,,,AFNE13.jpg,AFNE20.jpg,AFSA17.jpg,AFSA03.jpg,AFNE20.jpg,FN,3,num_6,32,num_2,0.800111232558,,,2017_Sep_28_1802,60.0082377058,MAFE4ImagesEEG,001,201611,
AFNE01.JPG,AFNE01.JPG,AFNE01.JPG,AFNE01.JPG,AFNE01.JPG,AFNE01.JPG,,,,,3,8,38,2,,,,,,,,,,,,,,,,,,,AFSA12.jpg,AFNE18.jpg,AFNE10.jpg,AFSA10.jpg,AFNE10.jpg,FN,3,num_2,16,num_2,0.750129739172,,,2017_Sep_28_1802,60.0082377058,MAFE4ImagesEEG,001,201611,
AFNE01.JPG,AFNE01.JPG,AFNE01.JPG,AFNE01.JPG,AFNE01.JPG,AFNE01.JPG,,,,,3,9,39,6,,,,,,,,,,,,,,,,,,,AFNE10.jpg,AFNE12.jpg,AFSA17.jpg,AFSA14.jpg,AFNE12.jpg,FN,3,num_6,16,num_6,0.616635993356,,,2017_Sep_28_1802,60.0082377058,MAFE4ImagesEEG,001,201611,
AFNE01.JPG,AFNE01.JPG,AFNE01.JPG,AFNE01.JPG,AFNE01.JPG,AFNE01.JPG,,,,,4,0,40,0,,,,,,,,,,,,,,,,,,,AFNE05.jpg,AFSA07.jpg,AFNE09.jpg,AFSA16.jpg,AFSA16.jpg,FS,4,num_4,32,num_2,0.616498075193,,,2017_Sep_28_1802,60.0082377058,MAFE4ImagesEEG,001,201611,
AFNE01.JPG,AFNE01.JPG,AFNE01.JPG,AFNE01.JPG,AFNE01.JPG,AFNE01.JPG,,,,,4,1,41,8,,,,,,,,,,,,,,,,,,,AFNE16.jpg,AFSA13.jpg,AFNE18.jpg,AFSA15.jpg,AFNE18.jpg,FN,3,num_2,16,num_2,0.700122907409,,,2017_Sep_28_1802,60.0082377058,MAFE4ImagesEEG,001,201611,
AFNE01.JPG,AFNE01.JPG,AFNE01.JPG,AFNE01.JPG,AFNE01.JPG,AFNE01.JPG,,,,,4,2,42,9,,,,,,,,,,,,,,,,,,,AFSA13.jpg,AFNE01.jpg,AFNE12.jpg,AFSA05.jpg,AFSA13.jpg,FS,4,num_8,32,num_2,0.716814516927,,,2017_Sep_28_1802,60.0082377058,MAFE4ImagesEEG,001,201611,
AFNE01.JPG,AFNE01.JPG,AFNE01.JPG,AFNE01.JPG,AFNE01.JPG,AFNE01.JPG,,,,,4,3,43,1,,,,,,,,,,,,,,,,,,,AFNE18.jpg,AFNE08.jpg,AFSA13.jpg,AFSA08.jpg,AFNE08.jpg,FN,3,num_6,16,num_6,0.933454551501,,,2017_Sep_28_1802,60.0082377058,MAFE4ImagesEEG,001,201611,
AFNE01.JPG,AFNE01.JPG,AFNE01.JPG,AFNE01.JPG,AFNE01.JPG,AFNE01.JPG,,,,,4,4,44,7,,,,,,,,,,,,,,,,,,,AFNE05.jpg,AFNE02.jpg,AFSA20.jpg,AFSA18.jpg,AFSA20.jpg,FS,4,num_2,16,num_2,0.616797966766,,,2017_Sep_28_1802,60.0082377058,MAFE4ImagesEEG,001,201611,
AFNE01.JPG,AFNE01.JPG,AFNE01.JPG,AFNE01.JPG,AFNE01.JPG,AFNE01.JPG,,,,,4,5,45,3,,,,,,,,,,,,,,,,,,,AFSA11.jpg,AFNE10.jpg,AFSA04.jpg,AFNE13.jpg,AFNE13.jpg,FN,3,num_4,32,num_2,0.683528802707,,,2017_Sep_28_1802,60.0082377058,MAFE4ImagesEEG,001,201611,
AFNE01.JPG,AFNE01.JPG,AFNE01.JPG,AFNE01.JPG,AFNE01.JPG,AFNE01.JPG,,,,,4,6,46,5,,,,,,,,,,,,,,,,,,,AFSA15.jpg,AFNE10.jpg,AFNE14.jpg,AFSA03.jpg,AFSA15.jpg,FS,4,num_8,32,num_4,0.516871544416,,,2017_Sep_28_1802,60.0082377058,MAFE4ImagesEEG,001,201611,
AFNE01.JPG,AFNE01.JPG,AFNE01.JPG,AFNE01.JPG,AFNE01.JPG,AFNE01.JPG,,,,,4,7,47,2,,,,,,,,,,,,,,,,,,,AFNE03.jpg,AFNE14.jpg,AFSA17.jpg,AFSA06.jpg,AFNE14.jpg,FN,3,num_6,16,num_6,0.466842581634,,,2017_Sep_28_1802,60.0082377058,MAFE4ImagesEEG,001,201611,
AFNE01.JPG,AFNE01.JPG,AFNE01.JPG,AFNE01.JPG,AFNE01.JPG,AFNE01.JPG,,,,,4,8,48,4,,,,,,,,,,,,,,,,,,,AFNE02.jpg,AFNE01.jpg,AFSA01.jpg,AFSA18.jpg,AFNE02.jpg,FN,3,num_8,32,num_4,0.566763230716,,,2017_Sep_28_1802,60.0082377058,MAFE4ImagesEEG,001,201611,
AFNE01.JPG,AFNE01.JPG,AFNE01.JPG,AFNE01.JPG,AFNE01.JPG,AFNE01.JPG,,,,,4,9,49,6,,,,,,,,,,,,,,,,,,,AFSA10.jpg,AFNE06.jpg,AFSA02.jpg,AFNE16.jpg,AFSA02.jpg,FS,4,num_2,32,num_4,0.816777182859,,,2017_Sep_28_1802,60.0082377058,MAFE4ImagesEEG,001,201611,
AFNE01.JPG,AFNE01.JPG,AFNE01.JPG,AFNE01.JPG,AFNE01.JPG,AFNE01.JPG,,,,,5,0,50,7,,,,,,,,,,,,,,,,,,,AFSA13.jpg,AFNE13.jpg,AFSA16.jpg,AFNE11.jpg,AFSA16.jpg,FS,4,num_2,16,num_2,0.666816986632,,,2017_Sep_28_1802,60.0082377058,MAFE4ImagesEEG,001,201611,
AFNE01.JPG,AFNE01.JPG,AFNE01.JPG,AFNE01.JPG,AFNE01.JPG,AFNE01.JPG,,,,,5,1,51,8,,,,,,,,,,,,,,,,,,,AFSA05.jpg,AFNE14.jpg,AFSA08.jpg,AFNE03.jpg,AFSA08.jpg,FS,4,num_2,16,num_2,0.700184489368,,,2017_Sep_28_1802,60.0082377058,MAFE4ImagesEEG,001,201611,
AFNE01.JPG,AFNE01.JPG,AFNE01.JPG,AFNE01.JPG,AFNE01.JPG,AFNE01.JPG,,,,,5,2,52,0,,,,,,,,,,,,,,,,,,,AFSA04.jpg,AFNE15.jpg,AFSA16.jpg,AFNE05.jpg,AFSA04.jpg,FS,4,num_8,16,num_8,0.833237218321,,,2017_Sep_28_1802,60.0082377058,MAFE4ImagesEEG,001,201611,
AFNE01.JPG,AFNE01.JPG,AFNE01.JPG,AFNE01.JPG,AFNE01.JPG,AFNE01.JPG,,,,,5,3,53,2,,,,,,,,,,,,,,,,,,,AFSA19.jpg,AFNE02.jpg,AFNE17.jpg,AFSA17.jpg,AFSA19.jpg,FS,4,num_8,32,num_4,0.683452146011,,,2017_Sep_28_1802,60.0082377058,MAFE4ImagesEEG,001,201611,
AFNE01.JPG,AFNE01.JPG,AFNE01.JPG,AFNE01.JPG,AFNE01.JPG,AFNE01.JPG,,,,,5,4,54,9,,,,,,,,,,,,,,,,,,,AFNE05.jpg,AFSA05.jpg,AFNE18.jpg,AFSA01.jpg,AFNE18.jpg,FN,3,num_2,16,num_2,0.783456828678,,,2017_Sep_28_1802,60.0082377058,MAFE4ImagesEEG,001,201611,
AFNE01.JPG,AFNE01.JPG,AFNE01.JPG,AFNE01.JPG,AFNE01.JPG,AFNE01.JPG,,,,,5,5,55,5,,,,,,,,,,,,,,,,,,,AFSA05.jpg,AFNE20.jpg,AFSA15.jpg,AFNE11.jpg,AFNE11.jpg,FN,3,num_4,32,num_2,1.45009516354,,,2017_Sep_28_1802,60.0082377058,MAFE4ImagesEEG,001,201611,
AFNE01.JPG,AFNE01.JPG,AFNE01.JPG,AFNE01.JPG,AFNE01.JPG,AFNE01.JPG,,,,,5,6,56,3,,,,,,,,,,,,,,,,,,,AFNE03.jpg,AFSA13.jpg,AFSA15.jpg,AFNE06.jpg,AFNE03.jpg,FN,3,num_8,32,num_6,0.466810828424,,,2017_Sep_28_1802,60.0082377058,MAFE4ImagesEEG,001,201611,
AFNE01.JPG,AFNE01.JPG,AFNE01.JPG,AFNE01.JPG,AFNE01.JPG,AFNE01.JPG,,,,,5,7,57,4,,,,,,,,,,,,,,,,,,,AFNE03.jpg,AFSA03.jpg,AFNE01.jpg,AFSA17.jpg,AFNE03.jpg,FN,3,num_8,32,num_6,0.683521104977,,,2017_Sep_28_1802,60.0082377058,MAFE4ImagesEEG,001,201611,
AFNE01.JPG,AFNE01.JPG,AFNE01.JPG,AFNE01.JPG,AFNE01.JPG,AFNE01.JPG,,,,,5,8,58,6,,,,,,,,,,,,,,,,,,,AFNE02.jpg,AFNE10.jpg,AFSA03.jpg,AFSA19.jpg,AFSA19.jpg,FS,4,num_4,16,num_4,0.450166046852,,,2017_Sep_28_1802,60.0082377058,MAFE4ImagesEEG,001,201611,
AFNE01.JPG,AFNE01.JPG,AFNE01.JPG,AFNE01.JPG,AFNE01.JPG,AFNE01.JPG,,,,,5,9,59,1,,,,,,,,,,,,,,,,,,,AFNE20.jpg,AFSA02.jpg,AFNE08.jpg,AFSA11.jpg,AFSA02.jpg,FS,4,num_6,32,num_8,0.833505998133,,,2017_Sep_28_1802,60.0082377058,MAFE4ImagesEEG,001,201611,
,,,,,,,,,,,,,,,,,,,,,,,,,,,,,,,,,,,,,,,,,,,space,0.899754762533,2017_Sep_28_1802,60.0082377058,MAFE4ImagesEEG,001,201611,
AFNE01.JPG,AFNE01.JPG,AFNE01.JPG,AFNE01.JPG,AFNE01.JPG,AFNE01.JPG,,,,,,,,,0,0,0,2,,,,,,,,,,,,,,,AMNE05.jpg,AMSA17.jpg,AMSA08.jpg,AMNE13.jpg,AMNE13.jpg,MN,1,num_4,32,num_8,0.800141702755,,,2017_Sep_28_1802,60.0082377058,MAFE4ImagesEEG,001,201611,
AFNE01.JPG,AFNE01.JPG,AFNE01.JPG,AFNE01.JPG,AFNE01.JPG,AFNE01.JPG,,,,,,,,,0,1,1,8,,,,,,,,,,,,,,,AMSA06.jpg,AMSA17.jpg,AMNE05.jpg,AMNE11.jpg,AMSA17.jpg,MS,2,num_6,16,num_6,0.666760536376,,,2017_Sep_28_1802,60.0082377058,MAFE4ImagesEEG,001,201611,
AFNE01.JPG,AFNE01.JPG,AFNE01.JPG,AFNE01.JPG,AFNE01.JPG,AFNE01.JPG,,,,,,,,,0,2,2,6,,,,,,,,,,,,,,,AMSA19.jpg,AMNE13.jpg,AMSA09.jpg,AMNE15.jpg,AMSA19.jpg,MS,2,num_8,32,num_6,0.550163994194,,,2017_Sep_28_1802,60.0082377058,MAFE4ImagesEEG,001,201611,
AFNE01.JPG,AFNE01.JPG,AFNE01.JPG,AFNE01.JPG,AFNE01.JPG,AFNE01.JPG,,,,,,,,,0,3,3,1,,,,,,,,,,,,,,,AMSA12.jpg,AMNE05.jpg,AMNE14.jpg,AMSA16.jpg,AMNE14.jpg,MN,1,num_2,32,num_6,0.500161011354,,,2017_Sep_28_1802,60.0082377058,MAFE4ImagesEEG,001,201611,
AFNE01.JPG,AFNE01.JPG,AFNE01.JPG,AFNE01.JPG,AFNE01.JPG,AFNE01.JPG,,,,,,,,,0,4,4,3,,,,,,,,,,,,,,,AMNE05.jpg,AMSA18.jpg,AMSA20.jpg,AMNE17.jpg,AMSA20.jpg,MS,2,num_2,32,num_8,0.733460581396,,,2017_Sep_28_1802,60.0082377058,MAFE4ImagesEEG,001,201611,
AFNE01.JPG,AFNE01.JPG,AFNE01.JPG,AFNE01.JPG,AFNE01.JPG,AFNE01.JPG,,,,,,,,,0,5,5,5,,,,,,,,,,,,,,,AMNE13.jpg,AMNE08.jpg,AMSA04.jpg,AMSA08.jpg,AMSA08.jpg,MS,2,num_4,32,num_6,0.70014118962,,,2017_Sep_28_1802,60.0082377058,MAFE4ImagesEEG,001,201611,
AFNE01.JPG,AFNE01.JPG,AFNE01.JPG,AFNE01.JPG,AFNE01.JPG,AFNE01.JPG,,,,,,,,,0,6,6,9,,,,,,,,,,,,,,,AMNE08.jpg,AMSA10.jpg,AMNE04.jpg,AMSA08.jpg,AMNE04.jpg,MN,1,num_2,32,num_6,0.650200109347,,,2017_Sep_28_1802,60.0082377058,MAFE4ImagesEEG,001,201611,
AFNE01.JPG,AFNE01.JPG,AFNE01.JPG,AFNE01.JPG,AFNE01.JPG,AFNE01.JPG,,,,,,,,,0,7,7,4,,,,,,,,,,,,,,,AMSA07.jpg,AMNE18.jpg,AMSA14.jpg,AMNE12.jpg,AMSA07.jpg,MS,2,num_8,32,num_4,0.616824908881,,,2017_Sep_28_1802,60.0082377058,MAFE4ImagesEEG,001,201611,
AFNE01.JPG,AFNE01.JPG,AFNE01.JPG,AFNE01.JPG,AFNE01.JPG,AFNE01.JPG,,,,,,,,,0,8,8,7,,,,,,,,,,,,,,,AMSA03.jpg,AMNE20.jpg,AMSA04.jpg,AMNE12.jpg,AMNE20.jpg,MN,1,num_6,16,num_6,0.53352851409,,,2017_Sep_28_1802,60.0082377058,MAFE4ImagesEEG,001,201611,
AFNE01.JPG,AFNE01.JPG,AFNE01.JPG,AFNE01.JPG,AFNE01.JPG,AFNE01.JPG,,,,,,,,,0,9,9,0,,,,,,,,,,,,,,,AMSA14.jpg,AMSA18.jpg,AMNE16.jpg,AMNE10.jpg,AMNE10.jpg,MN,1,num_4,32,num_2,1.10012207343,,,2017_Sep_28_1802,60.0082377058,MAFE4ImagesEEG,001,201611,
AFNE01.JPG,AFNE01.JPG,AFNE01.JPG,AFNE01.JPG,AFNE01.JPG,AFNE01.JPG,,,,,,,,,1,0,10,9,,,,,,,,,,,,,,,AMSA13.jpg,AMSA10.jpg,AMNE07.jpg,AMNE16.jpg,AMSA13.jpg,MS,2,num_8,32,num_6,0.866768939886,,,2017_Sep_28_1802,60.0082377058,MAFE4ImagesEEG,001,201611,
AFNE01.JPG,AFNE01.JPG,AFNE01.JPG,AFNE01.JPG,AFNE01.JPG,AFNE01.JPG,,,,,,,,,1,1,11,3,,,,,,,,,,,,,,,AMNE16.jpg,AMSA19.jpg,AMNE13.jpg,AMSA05.jpg,AMSA05.jpg,MS,2,num_4,16,num_4,0.616755949915,,,2017_Sep_28_1802,60.0082377058,MAFE4ImagesEEG,001,201611,
AFNE01.JPG,AFNE01.JPG,AFNE01.JPG,AFNE01.JPG,AFNE01.JPG,AFNE01.JPG,,,,,,,,,1,2,12,5,,,,,,,,,,,,,,,AMSA16.jpg,AMNE15.jpg,AMSA05.jpg,AMNE08.jpg,AMNE15.jpg,MN,1,num_6,16,num_6,0.766834819806,,,2017_Sep_28_1802,60.0082377058,MAFE4ImagesEEG,001,201611,
AFNE01.JPG,AFNE01.JPG,AFNE01.JPG,AFNE01.JPG,AFNE01.JPG,AFNE01.JPG,,,,,,,,,1,3,13,1,,,,,,,,,,,,,,,AMSA15.jpg,AMNE05.jpg,AMNE08.jpg,AMSA20.jpg,AMNE08.jpg,MN,1,num_2,16,num_2,0.633470011177,,,2017_Sep_28_1802,60.0082377058,MAFE4ImagesEEG,001,201611,
AFNE01.JPG,AFNE01.JPG,AFNE01.JPG,AFNE01.JPG,AFNE01.JPG,AFNE01.JPG,,,,,,,,,1,4,14,7,,,,,,,,,,,,,,,AMNE13.jpg,AMNE20.jpg,AMSA03.jpg,AMSA11.jpg,AMSA03.jpg,MS,2,num_2,32,num_4,0.400187119492,,,2017_Sep_28_1802,60.0082377058,MAFE4ImagesEEG,001,201611,
AFNE01.JPG,AFNE01.JPG,AFNE01.JPG,AFNE01.JPG,AFNE01.JPG,AFNE01.JPG,,,,,,,,,1,5,15,4,,,,,,,,,,,,,,,AMNE16.jpg,AMNE14.jpg,AMSA18.jpg,AMSA03.jpg,AMNE16.jpg,MN,1,num_8,32,num_6,0.900109821232,,,2017_Sep_28_1802,60.0082377058,MAFE4ImagesEEG,001,201611,
AFNE01.JPG,AFNE01.JPG,AFNE01.JPG,AFNE01.JPG,AFNE01.JPG,AFNE01.JPG,,,,,,,,,1,6,16,2,,,,,,,,,,,,,,,AMSA17.jpg,AMNE03.jpg,AMNE08.jpg,AMSA02.jpg,AMSA17.jpg,MS,2,num_8,16,num_8,0.550182917737,,,2017_Sep_28_1802,60.0082377058,MAFE4ImagesEEG,001,201611,
AFNE01.JPG,AFNE01.JPG,AFNE01.JPG,AFNE01.JPG,AFNE01.JPG,AFNE01.JPG,,,,,,,,,1,7,17,0,,,,,,,,,,,,,,,AMSA12.jpg,AMSA13.jpg,AMNE14.jpg,AMNE12.jpg,AMSA12.jpg,MS,2,num_8,16,num_8,0.600126884528,,,2017_Sep_28_1802,60.0082377058,MAFE4ImagesEEG,001,201611,
AFNE01.JPG,AFNE01.JPG,AFNE01.JPG,AFNE01.JPG,AFNE01.JPG,AFNE01.JPG,,,,,,,,,1,8,18,8,,,,,,,,,,,,,,,AMNE05.jpg,AMSA10.jpg,AMSA08.jpg,AMNE09.jpg,AMSA08.jpg,MS,2,num_2,32,num_4,0.63344210689,,,2017_Sep_28_1802,60.0082377058,MAFE4ImagesEEG,001,201611,
AFNE01.JPG,AFNE01.JPG,AFNE01.JPG,AFNE01.JPG,AFNE01.JPG,AFNE01.JPG,,,,,,,,,1,9,19,6,,,,,,,,,,,,,,,AMNE20.jpg,AMSA07.jpg,AMSA02.jpg,AMNE01.jpg,AMSA07.jpg,MS,2,num_6,16,num_6,0.533134325175,,,2017_Sep_28_1802,60.0082377058,MAFE4ImagesEEG,001,201611,
AFNE01.JPG,AFNE01.JPG,AFNE01.JPG,AFNE01.JPG,AFNE01.JPG,AFNE01.JPG,,,,,,,,,2,0,20,2,,,,,,,,,,,,,,,AMNE20.jpg,AMSA09.jpg,AMNE05.jpg,AMSA02.jpg,AMSA09.jpg,MS,2,num_6,32,num_8,0.616823946591,,,2017_Sep_28_1802,60.0082377058,MAFE4ImagesEEG,001,201611,
AFNE01.JPG,AFNE01.JPG,AFNE01.JPG,AFNE01.JPG,AFNE01.JPG,AFNE01.JPG,,,,,,,,,2,1,21,7,,,,,,,,,,,,,,,AMNE16.jpg,AMNE14.jpg,AMSA09.jpg,AMSA06.jpg,AMNE14.jpg,MN,1,num_6,32,num_2,0.866744563682,,,2017_Sep_28_1802,60.0082377058,MAFE4ImagesEEG,001,201611,
AFNE01.JPG,AFNE01.JPG,AFNE01.JPG,AFNE01.JPG,AFNE01.JPG,AFNE01.JPG,,,,,,,,,2,2,22,1,,,,,,,,,,,,,,,AMSA02.jpg,AMSA15.jpg,AMNE17.jpg,AMNE18.jpg,AMSA15.jpg,MS,2,num_6,16,num_6,0.883477548603,,,2017_Sep_28_1802,60.0082377058,MAFE4ImagesEEG,001,201611,
AFNE01.JPG,AFNE01.JPG,AFNE01.JPG,AFNE01.JPG,AFNE01.JPG,AFNE01.JPG,,,,,,,,,2,3,23,3,,,,,,,,,,,,,,,AMSA10.jpg,AMNE08.jpg,AMSA03.jpg,AMNE01.jpg,AMSA03.jpg,MS,2,num_2,32,num_4,0.866794278263,,,2017_Sep_28_1802,60.0082377058,MAFE4ImagesEEG,001,201611,
AFNE01.JPG,AFNE01.JPG,AFNE01.JPG,AFNE01.JPG,AFNE01.JPG,AFNE01.JPG,,,,,,,,,2,4,24,6,,,,,,,,,,,,,,,AMSA14.jpg,AMNE04.jpg,AMSA03.jpg,AMNE20.jpg,AMSA14.jpg,MS,2,num_8,16,num_8,0.816783597693,,,2017_Sep_28_1802,60.0082377058,MAFE4ImagesEEG,001,201611,
AFNE01.JPG,AFNE01.JPG,AFNE01.JPG,AFNE01.JPG,AFNE01.JPG,AFNE01.JPG,,,,,,,,,2,5,25,4,,,,,,,,,,,,,,,AMNE16.jpg,AMNE09.jpg,AMSA12.jpg,AMSA17.jpg,AMSA12.jpg,MS,2,num_2,32,num_6,0.517046347493,,,2017_Sep_28_1802,60.0082377058,MAFE4ImagesEEG,001,201611,
AFNE01.JPG,AFNE01.JPG,AFNE01.JPG,AFNE01.JPG,AFNE01.JPG,AFNE01.JPG,,,,,,,,,2,6,26,9,,,,,,,,,,,,,,,AMNE19.jpg,AMSA17.jpg,AMNE04.jpg,AMSA16.jpg,AMSA17.jpg,MS,2,num_6,32,num_2,1.10012688464,,,2017_Sep_28_1802,60.0082377058,MAFE4ImagesEEG,001,201611,
AFNE01.JPG,AFNE01.JPG,AFNE01.JPG,AFNE01.JPG,AFNE01.JPG,AFNE01.JPG,,,,,,,,,2,7,27,8,,,,,,,,,,,,,,,AMSA06.jpg,AMSA02.jpg,AMNE10.jpg,AMNE07.jpg,AMNE07.jpg,MN,1,num_4,16,num_4,0.866696452606,,,2017_Sep_28_1802,60.0082377058,MAFE4ImagesEEG,001,201611,
AFNE01.JPG,AFNE01.JPG,AFNE01.JPG,AFNE01.JPG,AFNE01.JPG,AFNE01.JPG,,,,,,,,,2,8,28,5,,,,,,,,,,,,,,,AMSA15.jpg,AMNE12.jpg,AMSA12.jpg,AMNE13.jpg,AMNE12.jpg,MN,1,num_6,16,num_6,0.616842549527,,,2017_Sep_28_1802,60.0082377058,MAFE4ImagesEEG,001,201611,
AFNE01.JPG,AFNE01.JPG,AFNE01.JPG,AFNE01.JPG,AFNE01.JPG,AFNE01.JPG,,,,,,,,,2,9,29,0,,,,,,,,,,,,,,,AMSA12.jpg,AMNE15.jpg,AMNE17.jpg,AMSA04.jpg,AMNE17.jpg,MN,1,num_2,16,num_2,0.550159183098,,,2017_Sep_28_1802,60.0082377058,MAFE4ImagesEEG,001,201611,
AFNE01.JPG,AFNE01.JPG,AFNE01.JPG,AFNE01.JPG,AFNE01.JPG,AFNE01.JPG,,,,,,,,,3,0,30,2,,,,,,,,,,,,,,,AMSA03.jpg,AMNE16.jpg,AMSA04.jpg,AMNE02.jpg,AMNE02.jpg,MN,1,num_4,32,num_8,0.616924338159,,,2017_Sep_28_1802,60.0082377058,MAFE4ImagesEEG,001,201611,
AFNE01.JPG,AFNE01.JPG,AFNE01.JPG,AFNE01.JPG,AFNE01.JPG,AFNE01.JPG,,,,,,,,,3,1,31,1,,,,,,,,,,,,,,,AMSA16.jpg,AMNE17.jpg,AMNE14.jpg,AMSA06.jpg,AMNE14.jpg,MN,1,num_2,32,num_6,0.800135608646,,,2017_Sep_28_1802,60.0082377058,MAFE4ImagesEEG,001,201611,
AFNE01.JPG,AFNE01.JPG,AFNE01.JPG,AFNE01.JPG,AFNE01.JPG,AFNE01.JPG,,,,,,,,,3,2,32,3,,,,,,,,,,,,,,,AMSA07.jpg,AMNE20.jpg,AMNE18.jpg,AMSA11.jpg,AMSA07.jpg,MS,2,num_8,32,num_6,0.750136154005,,,2017_Sep_28_1802,60.0082377058,MAFE4ImagesEEG,001,201611,
AFNE01.JPG,AFNE01.JPG,AFNE01.JPG,AFNE01.JPG,AFNE01.JPG,AFNE01.JPG,,,,,,,,,3,3,33,5,,,,,,,,,,,,,,,AMNE12.jpg,AMSA14.jpg,AMSA01.jpg,AMNE06.jpg,AMSA14.jpg,MS,2,num_6,32,num_8,0.833434152417,,,2017_Sep_28_1802,60.0082377058,MAFE4ImagesEEG,001,201611,
AFNE01.JPG,AFNE01.JPG,AFNE01.JPG,AFNE01.JPG,AFNE01.JPG,AFNE01.JPG,,,,,,,,,3,4,34,7,,,,,,,,,,,,,,,AMNE14.jpg,AMSA17.jpg,AMNE11.jpg,AMSA15.jpg,AMSA15.jpg,MS,2,num_4,32,num_2,1.15014814958,,,2017_Sep_28_1802,60.0082377058,MAFE4ImagesEEG,001,201611,
AFNE01.JPG,AFNE01.JPG,AFNE01.JPG,AFNE01.JPG,AFNE01.JPG,AFNE01.JPG,,,,,,,,,3,5,35,4,,,,,,,,,,,,,,,AMSA20.jpg,AMNE15.jpg,AMNE04.jpg,AMSA19.jpg,AMNE15.jpg,MN,1,num_6,16,num_6,0.700147604453,,,2017_Sep_28_1802,60.0082377058,MAFE4ImagesEEG,001,201611,
AFNE01.JPG,AFNE01.JPG,AFNE01.JPG,AFNE01.JPG,AFNE01.JPG,AFNE01.JPG,,,,,,,,,3,6,36,0,,,,,,,,,,,,,,,AMSA10.jpg,AMNE05.jpg,AMSA20.jpg,AMNE01.jpg,AMSA20.jpg,MS,2,num_2,32,num_8,0.700138944318,,,2017_Sep_28_1802,60.0082377058,MAFE4ImagesEEG,001,201611,
AFNE01.JPG,AFNE01.JPG,AFNE01.JPG,AFNE01.JPG,AFNE01.JPG,AFNE01.JPG,,,,,,,,,3,7,37,6,,,,,,,,,,,,,,,AMNE16.jpg,AMSA04.jpg,AMNE09.jpg,AMSA15.jpg,AMSA04.jpg,MS,2,num_6,32,num_4,0.466836808366,,,2017_Sep_28_1802,60.0082377058,MAFE4ImagesEEG,001,201611,
AFNE01.JPG,AFNE01.JPG,AFNE01.JPG,AFNE01.JPG,AFNE01.JPG,AFNE01.JPG,,,,,,,,,3,8,38,9,,,,,,,,,,,,,,,AMSA11.jpg,AMNE03.jpg,AMSA20.jpg,AMNE12.jpg,AMSA11.jpg,MS,2,num_8,16,num_8,0.666822439176,,,2017_Sep_28_1802,60.0082377058,MAFE4ImagesEEG,001,201611,
AFNE01.JPG,AFNE01.JPG,AFNE01.JPG,AFNE01.JPG,AFNE01.JPG,AFNE01.JPG,,,,,,,,,3,9,39,8,,,,,,,,,,,,,,,AMNE16.jpg,AMNE19.jpg,AMSA07.jpg,AMSA20.jpg,AMSA20.jpg,MS,2,num_4,32,num_2,0.84999874921,,,2017_Sep_28_1802,60.0082377058,MAFE4ImagesEEG,001,201611,
AFNE01.JPG,AFNE01.JPG,AFNE01.JPG,AFNE01.JPG,AFNE01.JPG,AFNE01.JPG,,,,,,,,,4,0,40,0,,,,,,,,,,,,,,,AMNE15.jpg,AMSA16.jpg,AMNE01.jpg,AMSA20.jpg,AMSA20.jpg,MS,2,num_4,32,num_6,0.833474886487,,,2017_Sep_28_1802,60.0082377058,MAFE4ImagesEEG,001,201611,
AFNE01.JPG,AFNE01.JPG,AFNE01.JPG,AFNE01.JPG,AFNE01.JPG,AFNE01.JPG,,,,,,,,,4,1,41,7,,,,,,,,,,,,,,,AMSA01.jpg,AMSA20.jpg,AMNE02.jpg,AMNE06.jpg,AMSA20.jpg,MS,2,num_6,16,num_6,0.600144204567,,,2017_Sep_28_1802,60.0082377058,MAFE4ImagesEEG,001,201611,
AFNE01.JPG,AFNE01.JPG,AFNE01.JPG,AFNE01.JPG,AFNE01.JPG,AFNE01.JPG,,,,,,,,,4,2,42,6,,,,,,,,,,,,,,,AMSA07.jpg,AMNE12.jpg,AMNE06.jpg,AMSA10.jpg,AMNE06.jpg,MN,1,num_2,32,num_6,0.683481654036,,,2017_Sep_28_1802,60.0082377058,MAFE4ImagesEEG,001,201611,
AFNE01.JPG,AFNE01.JPG,AFNE01.JPG,AFNE01.JPG,AFNE01.JPG,AFNE01.JPG,,,,,,,,,4,3,43,1,,,,,,,,,,,,,,,AMSA01.jpg,AMSA13.jpg,AMNE02.jpg,AMNE04.jpg,AMNE04.jpg,MN,1,num_4,32,num_8,0.750159247196,,,2017_Sep_28_1802,60.0082377058,MAFE4ImagesEEG,001,201611,
AFNE01.JPG,AFNE01.JPG,AFNE01.JPG,AFNE01.JPG,AFNE01.JPG,AFNE01.JPG,,,,,,,,,4,4,44,4,,,,,,,,,,,,,,,AMSA07.jpg,AMSA13.jpg,AMNE10.jpg,AMNE07.jpg,AMNE10.jpg,MN,1,num_2,16,num_2,0.700193149387,,,2017_Sep_28_1802,60.0082377058,MAFE4ImagesEEG,001,201611,
AFNE01.JPG,AFNE01.JPG,AFNE01.JPG,AFNE01.JPG,AFNE01.JPG,AFNE01.JPG,,,,,,,,,4,5,45,3,,,,,,,,,,,,,,,AMNE12.jpg,AMNE08.jpg,AMSA08.jpg,AMSA11.jpg,AMSA08.jpg,MS,2,num_2,32,num_8,1.06664808514,,,2017_Sep_28_1802,60.0082377058,MAFE4ImagesEEG,001,201611,
AFNE01.JPG,AFNE01.JPG,AFNE01.JPG,AFNE01.JPG,AFNE01.JPG,AFNE01.JPG,,,,,,,,,4,6,46,2,,,,,,,,,,,,,,,AMNE20.jpg,AMSA16.jpg,AMSA13.jpg,AMNE13.jpg,AMSA16.jpg,MS,2,num_6,32,num_2,0.733526333002,,,2017_Sep_28_1802,60.0082377058,MAFE4ImagesEEG,001,201611,
AFNE01.JPG,AFNE01.JPG,AFNE01.JPG,AFNE01.JPG,AFNE01.JPG,AFNE01.JPG,,,,,,,,,4,7,47,9,,,,,,,,,,,,,,,AMSA17.jpg,AMNE14.jpg,AMSA15.jpg,AMNE18.jpg,AMSA17.jpg,MS,2,num_8,32,num_6,0.633496953291,,,2017_Sep_28_1802,60.0082377058,MAFE4ImagesEEG,001,201611,
AFNE01.JPG,AFNE01.JPG,AFNE01.JPG,AFNE01.JPG,AFNE01.JPG,AFNE01.JPG,,,,,,,,,4,8,48,5,,,,,,,,,,,,,,,AMNE01.jpg,AMNE20.jpg,AMSA07.jpg,AMSA04.jpg,AMNE20.jpg,MN,1,num_6,32,num_4,0.300167041249,,,2017_Sep_28_1802,60.0082377058,MAFE4ImagesEEG,001,201611,
AFNE01.JPG,AFNE01.JPG,AFNE01.JPG,AFNE01.JPG,AFNE01.JPG,AFNE01.JPG,,,,,,,,,4,9,49,8,,,,,,,,,,,,,,,AMSA15.jpg,AMNE13.jpg,AMSA11.jpg,AMNE19.jpg,AMNE13.jpg,MN,1,num_6,16,num_6,0.63348155783,,,2017_Sep_28_1802,60.0082377058,MAFE4ImagesEEG,001,201611,
AFNE01.JPG,AFNE01.JPG,AFNE01.JPG,AFNE01.JPG,AFNE01.JPG,AFNE01.JPG,,,,,,,,,5,0,50,3,,,,,,,,,,,,,,,AMNE08.jpg,AMNE19.jpg,AMSA13.jpg,AMSA11.jpg,AMNE19.jpg,MN,1,num_6,16,num_6,0.666819552542,,,2017_Sep_28_1802,60.0082377058,MAFE4ImagesEEG,001,201611,
AFNE01.JPG,AFNE01.JPG,AFNE01.JPG,AFNE01.JPG,AFNE01.JPG,AFNE01.JPG,,,,,,,,,5,1,51,4,,,,,,,,,,,,,,,AMNE12.jpg,AMSA04.jpg,AMSA19.jpg,AMNE09.jpg,AMNE09.jpg,MN,1,num_4,16,num_4,0.716853967868,,,2017_Sep_28_1802,60.0082377058,MAFE4ImagesEEG,001,201611,
AFNE01.JPG,AFNE01.JPG,AFNE01.JPG,AFNE01.JPG,AFNE01.JPG,AFNE01.JPG,,,,,,,,,5,2,52,0,,,,,,,,,,,,,,,AMNE03.jpg,AMSA19.jpg,AMNE17.jpg,AMSA14.jpg,AMSA14.jpg,MS,2,num_4,16,num_4,0.466816922533,,,2017_Sep_28_1802,60.0082377058,MAFE4ImagesEEG,001,201611,
AFNE01.JPG,AFNE01.JPG,AFNE01.JPG,AFNE01.JPG,AFNE01.JPG,AFNE01.JPG,,,,,,,,,5,3,53,8,,,,,,,,,,,,,,,AMSA04.jpg,AMNE08.jpg,AMSA03.jpg,AMNE07.jpg,AMNE08.jpg,MN,1,num_6,32,num_4,0.366824427736,,,2017_Sep_28_1802,60.0082377058,MAFE4ImagesEEG,001,201611,
AFNE01.JPG,AFNE01.JPG,AFNE01.JPG,AFNE01.JPG,AFNE01.JPG,AFNE01.JPG,,,,,,,,,5,4,54,7,,,,,,,,,,,,,,,AMNE10.jpg,AMSA05.jpg,AMNE05.jpg,AMSA17.jpg,AMNE05.jpg,MN,1,num_2,32,num_6,0.566817435669,,,2017_Sep_28_1802,60.0082377058,MAFE4ImagesEEG,001,201611,
AFNE01.JPG,AFNE01.JPG,AFNE01.JPG,AFNE01.JPG,AFNE01.JPG,AFNE01.JPG,,,,,,,,,5,5,55,1,,,,,,,,,,,,,,,AMSA03.jpg,AMNE14.jpg,AMNE02.jpg,AMSA06.jpg,AMSA06.jpg,MS,2,num_4,32,num_2,0.75013551244,,,2017_Sep_28_1802,60.0082377058,MAFE4ImagesEEG,001,201611,
AFNE01.JPG,AFNE01.JPG,AFNE01.JPG,AFNE01.JPG,AFNE01.JPG,AFNE01.JPG,,,,,,,,,5,6,56,6,,,,,,,,,,,,,,,AMNE11.jpg,AMNE02.jpg,AMSA19.jpg,AMSA11.jpg,AMNE11.jpg,MN,1,num_8,16,num_8,0.483530983794,,,2017_Sep_28_1802,60.0082377058,MAFE4ImagesEEG,001,201611,
AFNE01.JPG,AFNE01.JPG,AFNE01.JPG,AFNE01.JPG,AFNE01.JPG,AFNE01.JPG,,,,,,,,,5,7,57,5,,,,,,,,,,,,,,,AMNE02.jpg,AMSA16.jpg,AMSA08.jpg,AMNE03.jpg,AMSA08.jpg,MS,2,num_2,16,num_2,0.533487459412,,,2017_Sep_28_1802,60.0082377058,MAFE4ImagesEEG,001,201611,
AFNE01.JPG,AFNE01.JPG,AFNE01.JPG,AFNE01.JPG,AFNE01.JPG,AFNE01.JPG,,,,,,,,,5,8,58,9,,,,,,,,,,,,,,,AMSA12.jpg,AMNE12.jpg,AMNE02.jpg,AMSA18.jpg,AMNE12.jpg,MN,1,num_6,16,num_6,0.833478735178,,,2017_Sep_28_1802,60.0082377058,MAFE4ImagesEEG,001,201611,
AFNE01.JPG,AFNE01.JPG,AFNE01.JPG,AFNE01.JPG,AFNE01.JPG,AFNE01.JPG,,,,,,,,,5,9,59,2,,,,,,,,,,,,,,,AMSA14.jpg,AMNE05.jpg,AMSA20.jpg,AMNE12.jpg,AMNE05.jpg,MN,1,num_6,16,num_6,0.616804702207,,,2017_Sep_28_1802,60.0082377058,MAFE4ImagesEEG,001,201611,
,,,,,,,,,,,,,,,,,,,,,,,,,,,,,,,,,,,,,,,,,,,space,4.71648672107,2017_Sep_28_1802,60.0082377058,MAFE4ImagesEEG,001,201611,
AFNE01.JPG,AFNE01.JPG,AFNE01.JPG,AFNE01.JPG,AFNE01.JPG,AFNE01.JPG,,,,,,,,,,,,,0,0,0,3,,,,,,,,,,,AFNE02.jpg,AFNE08.jpg,AFSA05.jpg,AFSA02.jpg,AFSA05.jpg,FS,4,num_2,32,num_6,0.516835621558,,,2017_Sep_28_1802,60.0082377058,MAFE4ImagesEEG,001,201611,
AFNE01.JPG,AFNE01.JPG,AFNE01.JPG,AFNE01.JPG,AFNE01.JPG,AFNE01.JPG,,,,,,,,,,,,,0,1,1,7,,,,,,,,,,,AFSA16.jpg,AFNE06.jpg,AFSA05.jpg,AFNE15.jpg,AFNE15.jpg,FN,3,num_4,16,num_4,0.683465296286,,,2017_Sep_28_1802,60.0082377058,MAFE4ImagesEEG,001,201611,
AFNE01.JPG,AFNE01.JPG,AFNE01.JPG,AFNE01.JPG,AFNE01.JPG,AFNE01.JPG,,,,,,,,,,,,,0,2,2,9,,,,,,,,,,,AFNE03.jpg,AFNE20.jpg,AFSA15.jpg,AFSA20.jpg,AFNE03.jpg,FN,3,num_8,32,num_6,0.483593848767,,,2017_Sep_28_1802,60.0082377058,MAFE4ImagesEEG,001,201611,
AFNE01.JPG,AFNE01.JPG,AFNE01.JPG,AFNE01.JPG,AFNE01.JPG,AFNE01.JPG,,,,,,,,,,,,,0,3,3,8,,,,,,,,,,,AFNE10.jpg,AFSA13.jpg,AFSA20.jpg,AFNE19.jpg,AFSA20.jpg,FS,4,num_2,16,num_2,0.933454230777,,,2017_Sep_28_1802,60.0082377058,MAFE4ImagesEEG,001,201611,
AFNE01.JPG,AFNE01.JPG,AFNE01.JPG,AFNE01.JPG,AFNE01.JPG,AFNE01.JPG,,,,,,,,,,,,,0,4,4,1,,,,,,,,,,,AFNE19.jpg,AFSA12.jpg,AFSA01.jpg,AFNE18.jpg,AFNE19.jpg,FN,3,num_8,16,num_8,0.900168195833,,,2017_Sep_28_1802,60.0082377058,MAFE4ImagesEEG,001,201611,
AFNE01.JPG,AFNE01.JPG,AFNE01.JPG,AFNE01.JPG,AFNE01.JPG,AFNE01.JPG,,,,,,,,,,,,,0,5,5,5,,,,,,,,,,,AFNE15.jpg,AFSA19.jpg,AFNE10.jpg,AFSA07.jpg,AFSA07.jpg,FS,4,num_4,16,num_4,0.666808005888,,,2017_Sep_28_1802,60.0082377058,MAFE4ImagesEEG,001,201611,
AFNE01.JPG,AFNE01.JPG,AFNE01.JPG,AFNE01.JPG,AFNE01.JPG,AFNE01.JPG,,,,,,,,,,,,,0,6,6,0,,,,,,,,,,,AFNE17.jpg,AFSA16.jpg,AFSA04.jpg,AFNE12.jpg,AFSA16.jpg,FS,4,num_6,16,num_6,0.866769902059,,,2017_Sep_28_1802,60.0082377058,MAFE4ImagesEEG,001,201611,
AFNE01.JPG,AFNE01.JPG,AFNE01.JPG,AFNE01.JPG,AFNE01.JPG,AFNE01.JPG,,,,,,,,,,,,,0,7,7,4,,,,,,,,,,,AFSA06.jpg,AFNE05.jpg,AFNE16.jpg,AFSA12.jpg,AFSA06.jpg,FS,4,num_8,32,num_2,0.800145551562,,,2017_Sep_28_1802,60.0082377058,MAFE4ImagesEEG,001,201611,
AFNE01.JPG,AFNE01.JPG,AFNE01.JPG,AFNE01.JPG,AFNE01.JPG,AFNE01.JPG,,,,,,,,,,,,,0,8,8,2,,,,,,,,,,,AFSA18.jpg,AFNE19.jpg,AFNE05.jpg,AFSA17.jpg,AFSA18.jpg,FS,4,num_8,32,num_2,0.866797165014,,,2017_Sep_28_1802,60.0082377058,MAFE4ImagesEEG,001,201611,
AFNE01.JPG,AFNE01.JPG,AFNE01.JPG,AFNE01.JPG,AFNE01.JPG,AFNE01.JPG,,,,,,,,,,,,,0,9,9,6,,,,,,,,,,,AFNE08.jpg,AFSA16.jpg,AFNE06.jpg,AFSA13.jpg,AFNE08.jpg,FN,3,num_8,16,num_8,0.866784014506,,,2017_Sep_28_1802,60.0082377058,MAFE4ImagesEEG,001,201611,
AFNE01.JPG,AFNE01.JPG,AFNE01.JPG,AFNE01.JPG,AFNE01.JPG,AFNE01.JPG,,,,,,,,,,,,,1,0,10,6,,,,,,,,,,,AFNE17.jpg,AFNE01.jpg,AFSA17.jpg,AFSA08.jpg,AFSA08.jpg,FS,4,num_4,32,num_6,0.800104176276,,,2017_Sep_28_1802,60.0082377058,MAFE4ImagesEEG,001,201611,
AFNE01.JPG,AFNE01.JPG,AFNE01.JPG,AFNE01.JPG,AFNE01.JPG,AFNE01.JPG,,,,,,,,,,,,,1,1,11,2,,,,,,,,,,,AFNE20.jpg,AFSA08.jpg,AFNE08.jpg,AFSA05.jpg,AFSA05.jpg,FS,4,num_4,32,num_8,0.250182019663,,,2017_Sep_28_1802,60.0082377058,MAFE4ImagesEEG,001,201611,
AFNE01.JPG,AFNE01.JPG,AFNE01.JPG,AFNE01.JPG,AFNE01.JPG,AFNE01.JPG,,,,,,,,,,,,,1,2,12,5,,,,,,,,,,,AFSA20.jpg,AFNE05.jpg,AFNE02.jpg,AFSA11.jpg,AFSA11.jpg,FS,4,num_4,16,num_4,0.88350288698,,,2017_Sep_28_1802,60.0082377058,MAFE4ImagesEEG,001,201611,
AFNE01.JPG,AFNE01.JPG,AFNE01.JPG,AFNE01.JPG,AFNE01.JPG,AFNE01.JPG,,,,,,,,,,,,,1,3,13,0,,,,,,,,,,,AFSA15.jpg,AFNE09.jpg,AFSA13.jpg,AFNE19.jpg,AFNE19.jpg,FN,3,num_4,32,num_6,1.24980290548,,,2017_Sep_28_1802,60.0082377058,MAFE4ImagesEEG,001,201611,
AFNE01.JPG,AFNE01.JPG,AFNE01.JPG,AFNE01.JPG,AFNE01.JPG,AFNE01.JPG,,,,,,,,,,,,,1,4,14,7,,,,,,,,,,,AFSA13.jpg,AFNE08.jpg,AFNE07.jpg,AFSA04.jpg,AFNE08.jpg,FN,3,num_6,32,num_2,0.500120918849,,,2017_Sep_28_1802,60.0082377058,MAFE4ImagesEEG,001,201611,
AFNE01.JPG,AFNE01.JPG,AFNE01.JPG,AFNE01.JPG,AFNE01.JPG,AFNE01.JPG,,,,,,,,,,,,,1,5,15,4,,,,,,,,,,,AFNE16.jpg,AFSA15.jpg,AFSA13.jpg,AFNE04.jpg,AFNE04.jpg,FN,3,num_4,16,num_4,0.833447944256,,,2017_Sep_28_1802,60.0082377058,MAFE4ImagesEEG,001,201611,
AFNE01.JPG,AFNE01.JPG,AFNE01.JPG,AFNE01.JPG,AFNE01.JPG,AFNE01.JPG,,,,,,,,,,,,,1,6,16,9,,,,,,,,,,,AFSA19.jpg,AFNE08.jpg,AFNE13.jpg,AFSA13.jpg,AFNE13.jpg,FN,3,num_2,32,num_6,0.683484861394,,,2017_Sep_28_1802,60.0082377058,MAFE4ImagesEEG,001,201611,
AFNE01.JPG,AFNE01.JPG,AFNE01.JPG,AFNE01.JPG,AFNE01.JPG,AFNE01.JPG,,,,,,,,,,,,,1,7,17,1,,,,,,,,,,,AFNE01.jpg,AFSA09.jpg,AFSA19.jpg,AFNE06.jpg,AFSA09.jpg,FS,4,num_6,16,num_6,0.416842164705,,,2017_Sep_28_1802,60.0082377058,MAFE4ImagesEEG,001,201611,
AFNE01.JPG,AFNE01.JPG,AFNE01.JPG,AFNE01.JPG,AFNE01.JPG,AFNE01.JPG,,,,,,,,,,,,,1,8,18,3,,,,,,,,,,,AFNE03.jpg,AFNE16.jpg,AFSA01.jpg,AFSA15.jpg,AFNE03.jpg,FN,3,num_8,32,num_2,0.933442684123,,,2017_Sep_28_1802,60.0082377058,MAFE4ImagesEEG,001,201611,
AFNE01.JPG,AFNE01.JPG,AFNE01.JPG,AFNE01.JPG,AFNE01.JPG,AFNE01.JPG,,,,,,,,,,,,,1,9,19,8,,,,,,,,,,,AFSA07.jpg,AFNE01.jpg,AFSA04.jpg,AFNE10.jpg,AFSA07.jpg,FS,4,num_8,16,num_8,0.916793412296,,,2017_Sep_28_1802,60.0082377058,MAFE4ImagesEEG,001,201611,
AFNE01.JPG,AFNE01.JPG,AFNE01.JPG,AFNE01.JPG,AFNE01.JPG,AFNE01.JPG,,,,,,,,,,,,,2,0,20,6,,,,,,,,,,,AFNE13.jpg,AFNE07.jpg,AFSA11.jpg,AFSA01.jpg,AFNE13.jpg,FN,3,num_8,32,num_6,0.750212169252,,,2017_Sep_28_1802,60.0082377058,MAFE4ImagesEEG,001,201611,
AFNE01.JPG,AFNE01.JPG,AFNE01.JPG,AFNE01.JPG,AFNE01.JPG,AFNE01.JPG,,,,,,,,,,,,,2,1,21,8,,,,,,,,,,,AFNE03.jpg,AFNE06.jpg,AFSA18.jpg,AFSA09.jpg,AFNE03.jpg,FN,3,num_8,32,num_4,1.01674870122,,,2017_Sep_28_1802,60.0082377058,MAFE4ImagesEEG,001,201611,
AFNE01.JPG,AFNE01.JPG,AFNE01.JPG,AFNE01.JPG,AFNE01.JPG,AFNE01.JPG,,,,,,,,,,,,,2,2,22,9,,,,,,,,,,,AFNE14.jpg,AFNE01.jpg,AFSA06.jpg,AFSA16.jpg,AFNE01.jpg,FN,3,num_6,16,num_6,0.600139714195,,,2017_Sep_28_1802,60.0082377058,MAFE4ImagesEEG,001,201611,
AFNE01.JPG,AFNE01.JPG,AFNE01.JPG,AFNE01.JPG,AFNE01.JPG,AFNE01.JPG,,,,,,,,,,,,,2,3,23,1,,,,,,,,,,,AFSA15.jpg,AFSA05.jpg,AFNE18.jpg,AFNE12.jpg,AFNE18.jpg,FN,3,num_2,32,num_4,0.550136410631,,,2017_Sep_28_1802,60.0082377058,MAFE4ImagesEEG,001,201611,
AFNE01.JPG,AFNE01.JPG,AFNE01.JPG,AFNE01.JPG,AFNE01.JPG,AFNE01.JPG,,,,,,,,,,,,,2,4,24,5,,,,,,,,,,,AFSA11.jpg,AFSA16.jpg,AFNE11.jpg,AFNE10.jpg,AFNE11.jpg,FN,3,num_2,32,num_8,0.950171820237,,,2017_Sep_28_1802,60.0082377058,MAFE4ImagesEEG,001,201611,
AFNE01.JPG,AFNE01.JPG,AFNE01.JPG,AFNE01.JPG,AFNE01.JPG,AFNE01.JPG,,,,,,,,,,,,,2,5,25,4,,,,,,,,,,,AFSA19.jpg,AFNE08.jpg,AFSA20.jpg,AFNE19.jpg,AFSA19.jpg,FS,4,num_8,32,num_2,1.16676085722,,,2017_Sep_28_1802,60.0082377058,MAFE4ImagesEEG,001,201611,
AFNE01.JPG,AFNE01.JPG,AFNE01.JPG,AFNE01.JPG,AFNE01.JPG,AFNE01.JPG,,,,,,,,,,,,,2,6,26,0,,,,,,,,,,,AFSA03.jpg,AFSA10.jpg,AFNE03.jpg,AFNE15.jpg,AFSA10.jpg,FS,4,num_6,32,num_8,0.716739784577,,,2017_Sep_28_1802,60.0082377058,MAFE4ImagesEEG,001,201611,
AFNE01.JPG,AFNE01.JPG,AFNE01.JPG,AFNE01.JPG,AFNE01.JPG,AFNE01.JPG,,,,,,,,,,,,,2,7,27,7,,,,,,,,,,,AFSA15.jpg,AFNE01.jpg,AFSA08.jpg,AFNE12.jpg,AFSA08.jpg,FS,4,num_2,32,num_6,1.36677727906,,,2017_Sep_28_1802,60.0082377058,MAFE4ImagesEEG,001,201611,
AFNE01.JPG,AFNE01.JPG,AFNE01.JPG,AFNE01.JPG,AFNE01.JPG,AFNE01.JPG,,,,,,,,,,,,,2,8,28,3,,,,,,,,,,,AFSA06.jpg,AFNE12.jpg,AFNE09.jpg,AFSA08.jpg,AFSA08.jpg,FS,4,num_4,32,num_2,0.700207582675,,,2017_Sep_28_1802,60.0082377058,MAFE4ImagesEEG,001,201611,
AFNE01.JPG,AFNE01.JPG,AFNE01.JPG,AFNE01.JPG,AFNE01.JPG,AFNE01.JPG,,,,,,,,,,,,,2,9,29,2,,,,,,,,,,,AFSA20.jpg,AFNE05.jpg,AFSA13.jpg,AFNE11.jpg,AFNE05.jpg,FN,3,num_6,32,num_8,0.716793348198,,,2017_Sep_28_1802,60.0082377058,MAFE4ImagesEEG,001,201611,
AFNE01.JPG,AFNE01.JPG,AFNE01.JPG,AFNE01.JPG,AFNE01.JPG,AFNE01.JPG,,,,,,,,,,,,,3,0,30,0,,,,,,,,,,,AFNE09.jpg,AFSA07.jpg,AFNE06.jpg,AFSA09.jpg,AFNE09.jpg,FN,3,num_8,16,num_8,0.650165469619,,,2017_Sep_28_1802,60.0082377058,MAFE4ImagesEEG,001,201611,
AFNE01.JPG,AFNE01.JPG,AFNE01.JPG,AFNE01.JPG,AFNE01.JPG,AFNE01.JPG,,,,,,,,,,,,,3,1,31,9,,,,,,,,,,,AFNE10.jpg,AFSA12.jpg,AFNE13.jpg,AFSA15.jpg,AFNE10.jpg,FN,3,num_8,16,num_8,0.766759445891,,,2017_Sep_28_1802,60.0082377058,MAFE4ImagesEEG,001,201611,
AFNE01.JPG,AFNE01.JPG,AFNE01.JPG,AFNE01.JPG,AFNE01.JPG,AFNE01.JPG,,,,,,,,,,,,,3,2,32,1,,,,,,,,,,,AFSA20.jpg,AFSA13.jpg,AFNE11.jpg,AFNE09.jpg,AFNE09.jpg,FN,3,num_4,16,num_4,0.733512541163,,,2017_Sep_28_1802,60.0082377058,MAFE4ImagesEEG,001,201611,
AFNE01.JPG,AFNE01.JPG,AFNE01.JPG,AFNE01.JPG,AFNE01.JPG,AFNE01.JPG,,,,,,,,,,,,,3,3,33,8,,,,,,,,,,,AFNE20.jpg,AFNE11.jpg,AFSA15.jpg,AFSA16.jpg,AFNE11.jpg,FN,3,num_6,16,num_6,0.450170858065,,,2017_Sep_28_1802,60.0082377058,MAFE4ImagesEEG,001,201611,
AFNE01.JPG,AFNE01.JPG,AFNE01.JPG,AFNE01.JPG,AFNE01.JPG,AFNE01.JPG,,,,,,,,,,,,,3,4,34,3,,,,,,,,,,,AFNE18.jpg,AFNE07.jpg,AFSA02.jpg,AFSA07.jpg,AFSA07.jpg,FS,4,num_4,32,num_8,1.35016008117,,,2017_Sep_28_1802,60.0082377058,MAFE4ImagesEEG,001,201611,
AFNE01.JPG,AFNE01.JPG,AFNE01.JPG,AFNE01.JPG,AFNE01.JPG,AFNE01.JPG,,,,,,,,,,,,,3,5,35,5,,,,,,,,,,,AFNE19.jpg,AFNE11.jpg,AFSA03.jpg,AFSA01.jpg,AFSA01.jpg,FS,4,num_4,32,num_8,0.683464654838,,,2017_Sep_28_1802,60.0082377058,MAFE4ImagesEEG,001,201611,
AFNE01.JPG,AFNE01.JPG,AFNE01.JPG,AFNE01.JPG,AFNE01.JPG,AFNE01.JPG,,,,,,,,,,,,,3,6,36,6,,,,,,,,,,,AFNE19.jpg,AFNE05.jpg,AFSA12.jpg,AFSA01.jpg,AFNE19.jpg,FN,3,num_8,32,num_6,3.79959708697,,,2017_Sep_28_1802,60.0082377058,MAFE4ImagesEEG,001,201611,
AFNE01.JPG,AFNE01.JPG,AFNE01.JPG,AFNE01.JPG,AFNE01.JPG,AFNE01.JPG,,,,,,,,,,,,,3,7,37,7,,,,,,,,,,,AFNE06.jpg,AFSA02.jpg,AFNE09.jpg,AFSA04.jpg,AFNE09.jpg,FN,3,num_2,16,num_2,1.06681166228,,,2017_Sep_28_1802,60.0082377058,MAFE4ImagesEEG,001,201611,
AFNE01.JPG,AFNE01.JPG,AFNE01.JPG,AFNE01.JPG,AFNE01.JPG,AFNE01.JPG,,,,,,,,,,,,,3,8,38,2,,,,,,,,,,,AFNE18.jpg,AFSA11.jpg,AFSA15.jpg,AFNE01.jpg,AFNE01.jpg,FN,3,num_4,32,num_8,0.883713292191,,,2017_Sep_28_1802,60.0082377058,MAFE4ImagesEEG,001,201611,
AFNE01.JPG,AFNE01.JPG,AFNE01.JPG,AFNE01.JPG,AFNE01.JPG,AFNE01.JPG,,,,,,,,,,,,,3,9,39,4,,,,,,,,,,,AFSA19.jpg,AFNE01.jpg,AFSA17.jpg,AFNE14.jpg,AFSA17.jpg,FS,4,num_2,32,num_6,0.333519148524,,,2017_Sep_28_1802,60.0082377058,MAFE4ImagesEEG,001,201611,
AFNE01.JPG,AFNE01.JPG,AFNE01.JPG,AFNE01.JPG,AFNE01.JPG,AFNE01.JPG,,,,,,,,,,,,,4,0,40,5,,,,,,,,,,,AFNE12.jpg,AFSA08.jpg,AFNE06.jpg,AFSA17.jpg,AFSA17.jpg,FS,4,num_4,16,num_4,0.633500802214,,,2017_Sep_28_1802,60.0082377058,MAFE4ImagesEEG,001,201611,
AFNE01.JPG,AFNE01.JPG,AFNE01.JPG,AFNE01.JPG,AFNE01.JPG,AFNE01.JPG,,,,,,,,,,,,,4,1,41,6,,,,,,,,,,,AFSA04.jpg,AFNE11.jpg,AFNE20.jpg,AFSA03.jpg,AFSA04.jpg,FS,4,num_8,16,num_8,0.516791680246,,,2017_Sep_28_1802,60.0082377058,MAFE4ImagesEEG,001,201611,
AFNE01.JPG,AFNE01.JPG,AFNE01.JPG,AFNE01.JPG,AFNE01.JPG,AFNE01.JPG,,,,,,,,,,,,,4,2,42,2,,,,,,,,,,,AFSA08.jpg,AFSA12.jpg,AFNE01.jpg,AFNE02.jpg,AFSA08.jpg,FS,4,num_8,32,num_2,1.1834168646,,,2017_Sep_28_1802,60.0082377058,MAFE4ImagesEEG,001,201611,
AFNE01.JPG,AFNE01.JPG,AFNE01.JPG,AFNE01.JPG,AFNE01.JPG,AFNE01.JPG,,,,,,,,,,,,,4,3,43,1,,,,,,,,,,,AFSA10.jpg,AFNE10.jpg,AFSA18.jpg,AFNE07.jpg,AFSA18.jpg,FS,4,num_2,32,num_8,0.8001471553,,,2017_Sep_28_1802,60.0082377058,MAFE4ImagesEEG,001,201611,
AFNE01.JPG,AFNE01.JPG,AFNE01.JPG,AFNE01.JPG,AFNE01.JPG,AFNE01.JPG,,,,,,,,,,,,,4,4,44,0,,,,,,,,,,,AFNE03.jpg,AFSA16.jpg,AFSA08.jpg,AFNE12.jpg,AFSA08.jpg,FS,4,num_2,16,num_2,0.716846270137,,,2017_Sep_28_1802,60.0082377058,MAFE4ImagesEEG,001,201611,
AFNE01.JPG,AFNE01.JPG,AFNE01.JPG,AFNE01.JPG,AFNE01.JPG,AFNE01.JPG,,,,,,,,,,,,,4,5,45,7,,,,,,,,,,,AFNE20.jpg,AFSA11.jpg,AFSA19.jpg,AFNE12.jpg,AFNE20.jpg,FN,3,num_8,16,num_8,0.66679613851,,,2017_Sep_28_1802,60.0082377058,MAFE4ImagesEEG,001,201611,
AFNE01.JPG,AFNE01.JPG,AFNE01.JPG,AFNE01.JPG,AFNE01.JPG,AFNE01.JPG,,,,,,,,,,,,,4,6,46,3,,,,,,,,,,,AFNE14.jpg,AFSA04.jpg,AFSA12.jpg,AFNE02.jpg,AFNE02.jpg,FN,3,num_4,16,num_4,1.00018410443,,,2017_Sep_28_1802,60.0082377058,MAFE4ImagesEEG,001,201611,
AFNE01.JPG,AFNE01.JPG,AFNE01.JPG,AFNE01.JPG,AFNE01.JPG,AFNE01.JPG,,,,,,,,,,,,,4,7,47,8,,,,,,,,,,,AFNE17.jpg,AFNE18.jpg,AFSA16.jpg,AFSA11.jpg,AFNE17.jpg,FN,3,num_8,16,num_8,0.566483224975,,,2017_Sep_28_1802,60.0082377058,MAFE4ImagesEEG,001,201611,
AFNE01.JPG,AFNE01.JPG,AFNE01.JPG,AFNE01.JPG,AFNE01.JPG,AFNE01.JPG,,,,,,,,,,,,,4,8,48,4,,,,,,,,,,,AFNE07.jpg,AFSA10.jpg,AFSA18.jpg,AFNE16.jpg,AFNE16.jpg,FN,3,num_4,16,num_4,0.900114311604,,,2017_Sep_28_1802,60.0082377058,MAFE4ImagesEEG,001,201611,
AFNE01.JPG,AFNE01.JPG,AFNE01.JPG,AFNE01.JPG,AFNE01.JPG,AFNE01.JPG,,,,,,,,,,,,,4,9,49,9,,,,,,,,,,,AFSA18.jpg,AFNE07.jpg,AFSA20.jpg,AFNE02.jpg,AFSA20.jpg,FS,4,num_2,32,num_8,0.633512990316,,,2017_Sep_28_1802,60.0082377058,MAFE4ImagesEEG,001,201611,
AFNE01.JPG,AFNE01.JPG,AFNE01.JPG,AFNE01.JPG,AFNE01.JPG,AFNE01.JPG,,,,,,,,,,,,,5,0,50,7,,,,,,,,,,,AFSA01.jpg,AFNE14.jpg,AFSA09.jpg,AFNE11.jpg,AFNE11.jpg,FN,3,num_4,32,num_2,0.383531112107,,,2017_Sep_28_1802,60.0082377058,MAFE4ImagesEEG,001,201611,
AFNE01.JPG,AFNE01.JPG,AFNE01.JPG,AFNE01.JPG,AFNE01.JPG,AFNE01.JPG,,,,,,,,,,,,,5,1,51,5,,,,,,,,,,,AFSA03.jpg,AFSA08.jpg,AFNE03.jpg,AFNE19.jpg,AFSA03.jpg,FS,4,num_8,32,num_4,1.50011642848,,,2017_Sep_28_1802,60.0082377058,MAFE4ImagesEEG,001,201611,
AFNE01.JPG,AFNE01.JPG,AFNE01.JPG,AFNE01.JPG,AFNE01.JPG,AFNE01.JPG,,,,,,,,,,,,,5,2,52,6,,,,,,,,,,,AFNE02.jpg,AFNE10.jpg,AFSA06.jpg,AFSA13.jpg,AFNE10.jpg,FN,3,num_6,16,num_6,0.500178010436,,,2017_Sep_28_1802,60.0082377058,MAFE4ImagesEEG,001,201611,
AFNE01.JPG,AFNE01.JPG,AFNE01.JPG,AFNE01.JPG,AFNE01.JPG,AFNE01.JPG,,,,,,,,,,,,,5,3,53,3,,,,,,,,,,,AFSA19.jpg,AFNE15.jpg,AFSA16.jpg,AFNE19.jpg,AFSA16.jpg,FS,4,num_2,16,num_2,1.03345827211,,,2017_Sep_28_1802,60.0082377058,MAFE4ImagesEEG,001,201611,
AFNE01.JPG,AFNE01.JPG,AFNE01.JPG,AFNE01.JPG,AFNE01.JPG,AFNE01.JPG,,,,,,,,,,,,,5,4,54,2,,,,,,,,,,,AFNE18.jpg,AFSA03.jpg,AFNE06.jpg,AFSA19.jpg,AFSA03.jpg,FS,4,num_6,32,num_8,0.35023866233,,,2017_Sep_28_1802,60.0082377058,MAFE4ImagesEEG,001,201611,
AFNE01.JPG,AFNE01.JPG,AFNE01.JPG,AFNE01.JPG,AFNE01.JPG,AFNE01.JPG,,,,,,,,,,,,,5,5,55,4,,,,,,,,,,,AFSA01.jpg,AFNE06.jpg,AFNE16.jpg,AFSA15.jpg,AFSA01.jpg,FS,4,num_8,32,num_6,0.850156552973,,,2017_Sep_28_1802,60.0082377058,MAFE4ImagesEEG,001,201611,
AFNE01.JPG,AFNE01.JPG,AFNE01.JPG,AFNE01.JPG,AFNE01.JPG,AFNE01.JPG,,,,,,,,,,,,,5,6,56,1,,,,,,,,,,,AFNE07.jpg,AFSA13.jpg,AFNE17.jpg,AFSA06.jpg,AFNE07.jpg,FN,3,num_8,16,num_8,0.816786484327,,,2017_Sep_28_1802,60.0082377058,MAFE4ImagesEEG,001,201611,
AFNE01.JPG,AFNE01.JPG,AFNE01.JPG,AFNE01.JPG,AFNE01.JPG,AFNE01.JPG,,,,,,,,,,,,,5,7,57,8,,,,,,,,,,,AFSA15.jpg,AFNE19.jpg,AFNE15.jpg,AFSA04.jpg,AFSA04.jpg,FS,4,num_4,32,num_6,0.633485085913,,,2017_Sep_28_1802,60.0082377058,MAFE4ImagesEEG,001,201611,
AFNE01.JPG,AFNE01.JPG,AFNE01.JPG,AFNE01.JPG,AFNE01.JPG,AFNE01.JPG,,,,,,,,,,,,,5,8,58,9,,,,,,,,,,,AFSA14.jpg,AFNE16.jpg,AFNE07.jpg,AFSA19.jpg,AFNE07.jpg,FN,3,num_2,32,num_4,0.433517737198,,,2017_Sep_28_1802,60.0082377058,MAFE4ImagesEEG,001,201611,
AFNE01.JPG,AFNE01.JPG,AFNE01.JPG,AFNE01.JPG,AFNE01.JPG,AFNE01.JPG,,,,,,,,,,,,,5,9,59,0,,,,,,,,,,,AFNE06.jpg,AFSA05.jpg,AFNE16.jpg,AFSA16.jpg,AFSA16.jpg,FS,4,num_4,16,num_4,0.866818975192,,,2017_Sep_28_1802,60.0082377058,MAFE4ImagesEEG,001,201611,
,,,,,,,,,,,,,,,,,,,,,,,,,,,,,,,,,,,,,,,,,,,space,6.29970549687,2017_Sep_28_1802,60.0082377058,MAFE4ImagesEEG,001,201611,
AFNE01.JPG,AFNE01.JPG,AFNE01.JPG,AFNE01.JPG,AFNE01.JPG,AFNE01.JPG,,,,,,,,,,,,,,,,,0,0,0,8,,,,,,,AMSA06.jpg,AMNE02.jpg,AMSA08.jpg,AMNE19.jpg,AMSA08.jpg,MS,2,num_2,16,num_2,0.866860671435,,,2017_Sep_28_1802,60.0082377058,MAFE4ImagesEEG,001,201611,
AFNE01.JPG,AFNE01.JPG,AFNE01.JPG,AFNE01.JPG,AFNE01.JPG,AFNE01.JPG,,,,,,,,,,,,,,,,,0,1,1,3,,,,,,,AMSA16.jpg,AMNE03.jpg,AMNE05.jpg,AMSA12.jpg,AMNE03.jpg,MN,1,num_6,16,num_6,0.783517769305,,,2017_Sep_28_1802,60.0082377058,MAFE4ImagesEEG,001,201611,
AFNE01.JPG,AFNE01.JPG,AFNE01.JPG,AFNE01.JPG,AFNE01.JPG,AFNE01.JPG,,,,,,,,,,,,,,,,,0,2,2,5,,,,,,,AMSA07.jpg,AMNE02.jpg,AMSA20.jpg,AMNE05.jpg,AMNE05.jpg,MN,1,num_4,16,num_4,0.60018814588,,,2017_Sep_28_1802,60.0082377058,MAFE4ImagesEEG,001,201611,
AFNE01.JPG,AFNE01.JPG,AFNE01.JPG,AFNE01.JPG,AFNE01.JPG,AFNE01.JPG,,,,,,,,,,,,,,,,,0,3,3,7,,,,,,,AMSA11.jpg,AMSA20.jpg,AMNE08.jpg,AMNE09.jpg,AMSA11.jpg,MS,2,num_8,16,num_8,0.666797421523,,,2017_Sep_28_1802,60.0082377058,MAFE4ImagesEEG,001,201611,
AFNE01.JPG,AFNE01.JPG,AFNE01.JPG,AFNE01.JPG,AFNE01.JPG,AFNE01.JPG,,,,,,,,,,,,,,,,,0,4,4,6,,,,,,,AMSA11.jpg,AMNE16.jpg,AMNE06.jpg,AMSA12.jpg,AMSA11.jpg,MS,2,num_8,32,num_2,0.350166175165,,,2017_Sep_28_1802,60.0082377058,MAFE4ImagesEEG,001,201611,
AFNE01.JPG,AFNE01.JPG,AFNE01.JPG,AFNE01.JPG,AFNE01.JPG,AFNE01.JPG,,,,,,,,,,,,,,,,,0,5,5,1,,,,,,,AMNE15.jpg,AMSA16.jpg,AMSA19.jpg,AMNE20.jpg,AMNE15.jpg,MN,1,num_8,16,num_8,0.233523767209,,,2017_Sep_28_1802,60.0082377058,MAFE4ImagesEEG,001,201611,
AFNE01.JPG,AFNE01.JPG,AFNE01.JPG,AFNE01.JPG,AFNE01.JPG,AFNE01.JPG,,,,,,,,,,,,,,,,,0,6,6,2,,,,,,,AMSA18.jpg,AMNE17.jpg,AMSA01.jpg,AMNE10.jpg,AMSA01.jpg,MS,2,num_2,32,num_6,0.383495509974,,,2017_Sep_28_1802,60.0082377058,MAFE4ImagesEEG,001,201611,
AFNE01.JPG,AFNE01.JPG,AFNE01.JPG,AFNE01.JPG,AFNE01.JPG,AFNE01.JPG,,,,,,,,,,,,,,,,,0,7,7,4,,,,,,,AMSA13.jpg,AMSA07.jpg,AMNE09.jpg,AMNE04.jpg,AMNE04.jpg,MN,1,num_4,16,num_4,0.450177272782,,,2017_Sep_28_1802,60.0082377058,MAFE4ImagesEEG,001,201611,
AFNE01.JPG,AFNE01.JPG,AFNE01.JPG,AFNE01.JPG,AFNE01.JPG,AFNE01.JPG,,,,,,,,,,,,,,,,,0,8,8,9,,,,,,,AMNE09.jpg,AMSA20.jpg,AMNE05.jpg,AMSA02.jpg,AMNE05.jpg,MN,1,num_2,32,num_6,0.66680383624,,,2017_Sep_28_1802,60.0082377058,MAFE4ImagesEEG,001,201611,
AFNE01.JPG,AFNE01.JPG,AFNE01.JPG,AFNE01.JPG,AFNE01.JPG,AFNE01.JPG,,,,,,,,,,,,,,,,,0,9,9,0,,,,,,,AMSA09.jpg,AMNE14.jpg,AMNE17.jpg,AMSA03.jpg,AMNE17.jpg,MN,1,num_2,32,num_6,0.550121656619,,,2017_Sep_28_1802,60.0082377058,MAFE4ImagesEEG,001,201611,
AFNE01.JPG,AFNE01.JPG,AFNE01.JPG,AFNE01.JPG,AFNE01.JPG,AFNE01.JPG,,,,,,,,,,,,,,,,,1,0,10,5,,,,,,,AMSA15.jpg,AMSA19.jpg,AMNE08.jpg,AMNE15.jpg,AMNE15.jpg,MN,1,num_4,32,num_8,0.716791423736,,,2017_Sep_28_1802,60.0082377058,MAFE4ImagesEEG,001,201611,
AFNE01.JPG,AFNE01.JPG,AFNE01.JPG,AFNE01.JPG,AFNE01.JPG,AFNE01.JPG,,,,,,,,,,,,,,,,,1,1,11,8,,,,,,,AMSA17.jpg,AMNE12.jpg,AMSA01.jpg,AMNE01.jpg,AMNE12.jpg,MN,1,num_6,16,num_6,0.650157451048,,,2017_Sep_28_1802,60.0082377058,MAFE4ImagesEEG,001,201611,
AFNE01.JPG,AFNE01.JPG,AFNE01.JPG,AFNE01.JPG,AFNE01.JPG,AFNE01.JPG,,,,,,,,,,,,,,,,,1,2,12,1,,,,,,,AMSA19.jpg,AMNE13.jpg,AMSA13.jpg,AMNE10.jpg,AMNE13.jpg,MN,1,num_6,32,num_8,0.633527102764,,,2017_Sep_28_1802,60.0082377058,MAFE4ImagesEEG,001,201611,
AFNE01.JPG,AFNE01.JPG,AFNE01.JPG,AFNE01.JPG,AFNE01.JPG,AFNE01.JPG,,,,,,,,,,,,,,,,,1,3,13,9,,,,,,,AMNE04.jpg,AMSA04.jpg,AMNE20.jpg,AMSA01.jpg,AMSA01.jpg,MS,2,num_4,16,num_4,0.816637340351,,,2017_Sep_28_1802,60.0082377058,MAFE4ImagesEEG,001,201611,
AFNE01.JPG,AFNE01.JPG,AFNE01.JPG,AFNE01.JPG,AFNE01.JPG,AFNE01.JPG,,,,,,,,,,,,,,,,,1,4,14,3,,,,,,,AMSA09.jpg,AMSA20.jpg,AMNE19.jpg,AMNE14.jpg,AMNE14.jpg,MN,1,num_4,16,num_4,0.666806722991,,,2017_Sep_28_1802,60.0082377058,MAFE4ImagesEEG,001,201611,
AFNE01.JPG,AFNE01.JPG,AFNE01.JPG,AFNE01.JPG,AFNE01.JPG,AFNE01.JPG,,,,,,,,,,,,,,,,,1,5,15,4,,,,,,,AMSA12.jpg,AMNE02.jpg,AMSA03.jpg,AMNE07.jpg,AMNE07.jpg,MN,1,num_4,32,num_6,0.816806049435,,,2017_Sep_28_1802,60.0082377058,MAFE4ImagesEEG,001,201611,
AFNE01.JPG,AFNE01.JPG,AFNE01.JPG,AFNE01.JPG,AFNE01.JPG,AFNE01.JPG,,,,,,,,,,,,,,,,,1,6,16,0,,,,,,,AMSA19.jpg,AMSA16.jpg,AMNE15.jpg,AMNE01.jpg,AMSA19.jpg,MS,2,num_8,32,num_2,1.05014154245,,,2017_Sep_28_1802,60.0082377058,MAFE4ImagesEEG,001,201611,
AFNE01.JPG,AFNE01.JPG,AFNE01.JPG,AFNE01.JPG,AFNE01.JPG,AFNE01.JPG,,,,,,,,,,,,,,,,,1,7,17,6,,,,,,,AMSA12.jpg,AMNE14.jpg,AMSA15.jpg,AMNE05.jpg,AMSA12.jpg,MS,2,num_8,32,num_4,0.916767753079,,,2017_Sep_28_1802,60.0082377058,MAFE4ImagesEEG,001,201611,
AFNE01.JPG,AFNE01.JPG,AFNE01.JPG,AFNE01.JPG,AFNE01.JPG,AFNE01.JPG,,,,,,,,,,,,,,,,,1,8,18,7,,,,,,,AMNE15.jpg,AMNE01.jpg,AMSA09.jpg,AMSA07.jpg,AMNE15.jpg,MN,1,num_8,16,num_8,0.883421419072,,,2017_Sep_28_1802,60.0082377058,MAFE4ImagesEEG,001,201611,
AFNE01.JPG,AFNE01.JPG,AFNE01.JPG,AFNE01.JPG,AFNE01.JPG,AFNE01.JPG,,,,,,,,,,,,,,,,,1,9,19,2,,,,,,,AMNE17.jpg,AMNE05.jpg,AMSA05.jpg,AMSA12.jpg,AMSA12.jpg,MS,2,num_4,32,num_6,1.00012669212,,,2017_Sep_28_1802,60.0082377058,MAFE4ImagesEEG,001,201611,
AFNE01.JPG,AFNE01.JPG,AFNE01.JPG,AFNE01.JPG,AFNE01.JPG,AFNE01.JPG,,,,,,,,,,,,,,,,,2,0,20,7,,,,,,,AMNE19.jpg,AMNE06.jpg,AMSA02.jpg,AMSA15.jpg,AMNE19.jpg,MN,1,num_8,32,num_6,0.933495606179,,,2017_Sep_28_1802,60.0082377058,MAFE4ImagesEEG,001,201611,
AFNE01.JPG,AFNE01.JPG,AFNE01.JPG,AFNE01.JPG,AFNE01.JPG,AFNE01.JPG,,,,,,,,,,,,,,,,,2,1,21,9,,,,,,,AMSA12.jpg,AMSA04.jpg,AMNE09.jpg,AMNE11.jpg,AMSA04.jpg,MS,2,num_6,16,num_6,0.750173039036,,,2017_Sep_28_1802,60.0082377058,MAFE4ImagesEEG,001,201611,
AFNE01.JPG,AFNE01.JPG,AFNE01.JPG,AFNE01.JPG,AFNE01.JPG,AFNE01.JPG,,,,,,,,,,,,,,,,,2,2,22,4,,,,,,,AMNE13.jpg,AMSA16.jpg,AMNE18.jpg,AMSA06.jpg,AMNE13.jpg,MN,1,num_8,16,num_8,0.700189941912,,,2017_Sep_28_1802,60.0082377058,MAFE4ImagesEEG,001,201611,
AFNE01.JPG,AFNE01.JPG,AFNE01.JPG,AFNE01.JPG,AFNE01.JPG,AFNE01.JPG,,,,,,,,,,,,,,,,,2,3,23,1,,,,,,,AMNE12.jpg,AMNE11.jpg,AMSA08.jpg,AMSA03.jpg,AMSA08.jpg,MS,2,num_2,16,num_2,1.18342295859,,,2017_Sep_28_1802,60.0082377058,MAFE4ImagesEEG,001,201611,
AFNE01.JPG,AFNE01.JPG,AFNE01.JPG,AFNE01.JPG,AFNE01.JPG,AFNE01.JPG,,,,,,,,,,,,,,,,,2,4,24,3,,,,,,,AMNE16.jpg,AMNE06.jpg,AMSA12.jpg,AMSA16.jpg,AMSA12.jpg,MS,2,num_2,32,num_6,0.600177561399,,,2017_Sep_28_1802,60.0082377058,MAFE4ImagesEEG,001,201611,
AFNE01.JPG,AFNE01.JPG,AFNE01.JPG,AFNE01.JPG,AFNE01.JPG,AFNE01.JPG,,,,,,,,,,,,,,,,,2,5,25,8,,,,,,,AMNE06.jpg,AMSA12.jpg,AMSA14.jpg,AMNE10.jpg,AMSA12.jpg,MS,2,num_6,32,num_2,0.516777888406,,,2017_Sep_28_1802,60.0082377058,MAFE4ImagesEEG,001,201611,
AFNE01.JPG,AFNE01.JPG,AFNE01.JPG,AFNE01.JPG,AFNE01.JPG,AFNE01.JPG,,,,,,,,,,,,,,,,,2,6,26,0,,,,,,,AMNE13.jpg,AMSA18.jpg,AMSA05.jpg,AMNE01.jpg,AMNE01.jpg,MN,1,num_4,32,num_2,0.633453332703,,,2017_Sep_28_1802,60.0082377058,MAFE4ImagesEEG,001,201611,
AFNE01.JPG,AFNE01.JPG,AFNE01.JPG,AFNE01.JPG,AFNE01.JPG,AFNE01.JPG,,,,,,,,,,,,,,,,,2,7,27,5,,,,,,,AMNE17.jpg,AMNE02.jpg,AMSA13.jpg,AMSA02.jpg,AMNE17.jpg,MN,1,num_8,16,num_8,0.516801623162,,,2017_Sep_28_1802,60.0082377058,MAFE4ImagesEEG,001,201611,
AFNE01.JPG,AFNE01.JPG,AFNE01.JPG,AFNE01.JPG,AFNE01.JPG,AFNE01.JPG,,,,,,,,,,,,,,,,,2,8,28,2,,,,,,,AMSA08.jpg,AMSA10.jpg,AMNE01.jpg,AMNE13.jpg,AMNE13.jpg,MN,1,num_4,32,num_6,0.683402752155,,,2017_Sep_28_1802,60.0082377058,MAFE4ImagesEEG,001,201611,
AFNE01.JPG,AFNE01.JPG,AFNE01.JPG,AFNE01.JPG,AFNE01.JPG,AFNE01.JPG,,,,,,,,,,,,,,,,,2,9,29,6,,,,,,,AMNE06.jpg,AMNE05.jpg,AMSA01.jpg,AMSA06.jpg,AMSA06.jpg,MS,2,num_4,32,num_8,0.616812720778,,,2017_Sep_28_1802,60.0082377058,MAFE4ImagesEEG,001,201611,
AFNE01.JPG,AFNE01.JPG,AFNE01.JPG,AFNE01.JPG,AFNE01.JPG,AFNE01.JPG,,,,,,,,,,,,,,,,,3,0,30,4,,,,,,,AMSA15.jpg,AMNE05.jpg,AMNE04.jpg,AMSA19.jpg,AMSA19.jpg,MS,2,num_4,32,num_8,0.783469979069,,,2017_Sep_28_1802,60.0082377058,MAFE4ImagesEEG,001,201611,
AFNE01.JPG,AFNE01.JPG,AFNE01.JPG,AFNE01.JPG,AFNE01.JPG,AFNE01.JPG,,,,,,,,,,,,,,,,,3,1,31,7,,,,,,,AMNE05.jpg,AMSA13.jpg,AMSA10.jpg,AMNE12.jpg,AMNE05.jpg,MN,1,num_8,32,num_6,0.583487234893,,,2017_Sep_28_1802,60.0082377058,MAFE4ImagesEEG,001,201611,
AFNE01.JPG,AFNE01.JPG,AFNE01.JPG,AFNE01.JPG,AFNE01.JPG,AFNE01.JPG,,,,,,,,,,,,,,,,,3,2,32,3,,,,,,,AMSA11.jpg,AMNE11.jpg,AMNE03.jpg,AMSA08.jpg,AMNE03.jpg,MN,1,num_2,32,num_4,0.733504201984,,,2017_Sep_28_1802,60.0082377058,MAFE4ImagesEEG,001,201611,
AFNE01.JPG,AFNE01.JPG,AFNE01.JPG,AFNE01.JPG,AFNE01.JPG,AFNE01.JPG,,,,,,,,,,,,,,,,,3,3,33,1,,,,,,,AMSA15.jpg,AMNE06.jpg,AMSA01.jpg,AMNE04.jpg,AMNE06.jpg,MN,1,num_6,16,num_6,0.75015187019,,,2017_Sep_28_1802,60.0082377058,MAFE4ImagesEEG,001,201611,
AFNE01.JPG,AFNE01.JPG,AFNE01.JPG,AFNE01.JPG,AFNE01.JPG,AFNE01.JPG,,,,,,,,,,,,,,,,,3,4,34,8,,,,,,,AMNE16.jpg,AMSA17.jpg,AMNE09.jpg,AMSA07.jpg,AMNE16.jpg,MN,1,num_8,16,num_8,0.883479152224,,,2017_Sep_28_1802,60.0082377058,MAFE4ImagesEEG,001,201611,
AFNE01.JPG,AFNE01.JPG,AFNE01.JPG,AFNE01.JPG,AFNE01.JPG,AFNE01.JPG,,,,,,,,,,,,,,,,,3,5,35,5,,,,,,,AMSA06.jpg,AMNE05.jpg,AMNE13.jpg,AMSA17.jpg,AMSA17.jpg,MS,2,num_4,16,num_4,0.600151260849,,,2017_Sep_28_1802,60.0082377058,MAFE4ImagesEEG,001,201611,
AFNE01.JPG,AFNE01.JPG,AFNE01.JPG,AFNE01.JPG,AFNE01.JPG,AFNE01.JPG,,,,,,,,,,,,,,,,,3,6,36,9,,,,,,,AMNE17.jpg,AMSA06.jpg,AMSA16.jpg,AMNE10.jpg,AMSA16.jpg,MS,2,num_2,16,num_2,1.05038081412,,,2017_Sep_28_1802,60.0082377058,MAFE4ImagesEEG,001,201611,
AFNE01.JPG,AFNE01.JPG,AFNE01.JPG,AFNE01.JPG,AFNE01.JPG,AFNE01.JPG,,,,,,,,,,,,,,,,,3,7,37,0,,,,,,,AMSA15.jpg,AMNE09.jpg,AMNE01.jpg,AMSA11.jpg,AMSA15.jpg,MS,2,num_8,16,num_8,0.56679017283,,,2017_Sep_28_1802,60.0082377058,MAFE4ImagesEEG,001,201611,
AFNE01.JPG,AFNE01.JPG,AFNE01.JPG,AFNE01.JPG,AFNE01.JPG,AFNE01.JPG,,,,,,,,,,,,,,,,,3,8,38,2,,,,,,,AMSA18.jpg,AMNE06.jpg,AMNE04.jpg,AMSA20.jpg,AMSA18.jpg,MS,2,num_8,16,num_8,0.733463788871,,,2017_Sep_28_1802,60.0082377058,MAFE4ImagesEEG,001,201611,
AFNE01.JPG,AFNE01.JPG,AFNE01.JPG,AFNE01.JPG,AFNE01.JPG,AFNE01.JPG,,,,,,,,,,,,,,,,,3,9,39,6,,,,,,,AMSA02.jpg,AMNE06.jpg,AMSA01.jpg,AMNE03.jpg,AMSA01.jpg,MS,2,num_2,32,num_8,0.700125152594,,,2017_Sep_28_1802,60.0082377058,MAFE4ImagesEEG,001,201611,
AFNE01.JPG,AFNE01.JPG,AFNE01.JPG,AFNE01.JPG,AFNE01.JPG,AFNE01.JPG,,,,,,,,,,,,,,,,,4,0,40,8,,,,,,,AMSA19.jpg,AMSA04.jpg,AMNE12.jpg,AMNE01.jpg,AMNE12.jpg,MN,1,num_2,32,num_8,0.716756783775,,,2017_Sep_28_1802,60.0082377058,MAFE4ImagesEEG,001,201611,
AFNE01.JPG,AFNE01.JPG,AFNE01.JPG,AFNE01.JPG,AFNE01.JPG,AFNE01.JPG,,,,,,,,,,,,,,,,,4,1,41,9,,,,,,,AMSA05.jpg,AMSA13.jpg,AMNE12.jpg,AMNE04.jpg,AMSA05.jpg,MS,2,num_8,16,num_8,0.383635352482,,,2017_Sep_28_1802,60.0082377058,MAFE4ImagesEEG,001,201611,
AFNE01.JPG,AFNE01.JPG,AFNE01.JPG,AFNE01.JPG,AFNE01.JPG,AFNE01.JPG,,,,,,,,,,,,,,,,,4,2,42,7,,,,,,,AMNE11.jpg,AMSA10.jpg,AMNE16.jpg,AMSA17.jpg,AMSA10.jpg,MS,2,num_6,16,num_6,0.450188177987,,,2017_Sep_28_1802,60.0082377058,MAFE4ImagesEEG,001,201611,
AFNE01.JPG,AFNE01.JPG,AFNE01.JPG,AFNE01.JPG,AFNE01.JPG,AFNE01.JPG,,,,,,,,,,,,,,,,,4,3,43,6,,,,,,,AMNE17.jpg,AMSA14.jpg,AMNE03.jpg,AMSA03.jpg,AMNE17.jpg,MN,1,num_8,16,num_8,0.70016011328,,,2017_Sep_28_1802,60.0082377058,MAFE4ImagesEEG,001,201611,
AFNE01.JPG,AFNE01.JPG,AFNE01.JPG,AFNE01.JPG,AFNE01.JPG,AFNE01.JPG,,,,,,,,,,,,,,,,,4,4,44,3,,,,,,,AMSA10.jpg,AMNE16.jpg,AMSA12.jpg,AMNE11.jpg,AMNE11.jpg,MN,1,num_4,32,num_8,0.850115819136,,,2017_Sep_28_1802,60.0082377058,MAFE4ImagesEEG,001,201611,
AFNE01.JPG,AFNE01.JPG,AFNE01.JPG,AFNE01.JPG,AFNE01.JPG,AFNE01.JPG,,,,,,,,,,,,,,,,,4,5,45,2,,,,,,,AMSA20.jpg,AMSA10.jpg,AMNE18.jpg,AMNE08.jpg,AMSA20.jpg,MS,2,num_8,32,num_2,0.849993937998,,,2017_Sep_28_1802,60.0082377058,MAFE4ImagesEEG,001,201611,
AFNE01.JPG,AFNE01.JPG,AFNE01.JPG,AFNE01.JPG,AFNE01.JPG,AFNE01.JPG,,,,,,,,,,,,,,,,,4,6,46,5,,,,,,,AMSA03.jpg,AMNE10.jpg,AMSA01.jpg,AMNE09.jpg,AMSA03.jpg,MS,2,num_8,32,num_4,1.13344274822,,,2017_Sep_28_1802,60.0082377058,MAFE4ImagesEEG,001,201611,
AFNE01.JPG,AFNE01.JPG,AFNE01.JPG,AFNE01.JPG,AFNE01.JPG,AFNE01.JPG,,,,,,,,,,,,,,,,,4,7,47,4,,,,,,,AMSA17.jpg,AMSA01.jpg,AMNE14.jpg,AMNE09.jpg,AMSA17.jpg,MS,2,num_8,32,num_4,1.48380329169,,,2017_Sep_28_1802,60.0082377058,MAFE4ImagesEEG,001,201611,
AFNE01.JPG,AFNE01.JPG,AFNE01.JPG,AFNE01.JPG,AFNE01.JPG,AFNE01.JPG,,,,,,,,,,,,,,,,,4,8,48,0,,,,,,,AMSA09.jpg,AMNE02.jpg,AMSA06.jpg,AMNE10.jpg,AMNE02.jpg,MN,1,num_6,16,num_6,0.950156103936,,,2017_Sep_28_1802,60.0082377058,MAFE4ImagesEEG,001,201611,
AFNE01.JPG,AFNE01.JPG,AFNE01.JPG,AFNE01.JPG,AFNE01.JPG,AFNE01.JPG,,,,,,,,,,,,,,,,,4,9,49,1,,,,,,,AMNE12.jpg,AMSA13.jpg,AMNE20.jpg,AMSA03.jpg,AMNE12.jpg,MN,1,num_8,32,num_2,0.86677278881,,,2017_Sep_28_1802,60.0082377058,MAFE4ImagesEEG,001,201611,
AFNE01.JPG,AFNE01.JPG,AFNE01.JPG,AFNE01.JPG,AFNE01.JPG,AFNE01.JPG,,,,,,,,,,,,,,,,,5,0,50,5,,,,,,,AMSA02.jpg,AMNE02.jpg,AMSA14.jpg,AMNE18.jpg,AMNE18.jpg,MN,1,num_4,32,num_8,0.683526557521,,,2017_Sep_28_1802,60.0082377058,MAFE4ImagesEEG,001,201611,
AFNE01.JPG,AFNE01.JPG,AFNE01.JPG,AFNE01.JPG,AFNE01.JPG,AFNE01.JPG,,,,,,,,,,,,,,,,,5,1,51,2,,,,,,,AMNE09.jpg,AMSA07.jpg,AMSA02.jpg,AMNE03.jpg,AMSA07.jpg,MS,2,num_6,16,num_6,0.850146930781,,,2017_Sep_28_1802,60.0082377058,MAFE4ImagesEEG,001,201611,
AFNE01.JPG,AFNE01.JPG,AFNE01.JPG,AFNE01.JPG,AFNE01.JPG,AFNE01.JPG,,,,,,,,,,,,,,,,,5,2,52,8,,,,,,,AMNE05.jpg,AMNE18.jpg,AMSA18.jpg,AMSA12.jpg,AMNE18.jpg,MN,1,num_6,16,num_6,0.583510328201,,,2017_Sep_28_1802,60.0082377058,MAFE4ImagesEEG,001,201611,
AFNE01.JPG,AFNE01.JPG,AFNE01.JPG,AFNE01.JPG,AFNE01.JPG,AFNE01.JPG,,,,,,,,,,,,,,,,,5,3,53,7,,,,,,,AMSA16.jpg,AMNE18.jpg,AMNE10.jpg,AMSA15.jpg,AMSA16.jpg,MS,2,num_8,16,num_8,0.566845660796,,,2017_Sep_28_1802,60.0082377058,MAFE4ImagesEEG,001,201611,
AFNE01.JPG,AFNE01.JPG,AFNE01.JPG,AFNE01.JPG,AFNE01.JPG,AFNE01.JPG,,,,,,,,,,,,,,,,,5,4,54,9,,,,,,,AMSA04.jpg,AMSA18.jpg,AMNE13.jpg,AMNE18.jpg,AMNE18.jpg,MN,1,num_4,16,num_4,0.950004073442,,,2017_Sep_28_1802,60.0082377058,MAFE4ImagesEEG,001,201611,
AFNE01.JPG,AFNE01.JPG,AFNE01.JPG,AFNE01.JPG,AFNE01.JPG,AFNE01.JPG,,,,,,,,,,,,,,,,,5,5,55,0,,,,,,,AMSA05.jpg,AMSA11.jpg,AMNE09.jpg,AMNE01.jpg,AMNE01.jpg,MN,1,num_4,16,num_4,0.633527102764,,,2017_Sep_28_1802,60.0082377058,MAFE4ImagesEEG,001,201611,
AFNE01.JPG,AFNE01.JPG,AFNE01.JPG,AFNE01.JPG,AFNE01.JPG,AFNE01.JPG,,,,,,,,,,,,,,,,,5,6,56,3,,,,,,,AMSA11.jpg,AMNE19.jpg,AMSA05.jpg,AMNE16.jpg,AMSA05.jpg,MS,2,num_2,32,num_8,0.88315360155,,,2017_Sep_28_1802,60.0082377058,MAFE4ImagesEEG,001,201611,
AFNE01.JPG,AFNE01.JPG,AFNE01.JPG,AFNE01.JPG,AFNE01.JPG,AFNE01.JPG,,,,,,,,,,,,,,,,,5,7,57,4,,,,,,,AMNE07.jpg,AMSA13.jpg,AMNE09.jpg,AMSA15.jpg,AMNE09.jpg,MN,1,num_2,16,num_2,0.900140291546,,,2017_Sep_28_1802,60.0082377058,MAFE4ImagesEEG,001,201611,
AFNE01.JPG,AFNE01.JPG,AFNE01.JPG,AFNE01.JPG,AFNE01.JPG,AFNE01.JPG,,,,,,,,,,,,,,,,,5,8,58,1,,,,,,,AMNE13.jpg,AMSA04.jpg,AMSA03.jpg,AMNE01.jpg,AMNE13.jpg,MN,1,num_8,32,num_2,0.683520463412,,,2017_Sep_28_1802,60.0082377058,MAFE4ImagesEEG,001,201611,
AFNE01.JPG,AFNE01.JPG,AFNE01.JPG,AFNE01.JPG,AFNE01.JPG,AFNE01.JPG,,,,,,,,,,,,,,,,,5,9,59,6,,,,,,,AMNE01.jpg,AMSA01.jpg,AMNE17.jpg,AMSA19.jpg,AMNE01.jpg,MN,1,num_8,32,num_4,0.800408878829,,,2017_Sep_28_1802,60.0082377058,MAFE4ImagesEEG,001,201611,
,,,,,,,,,,,,,,,,,,,,,,,,,,,,,,,,,,,,,,,,,,,space,5.7330728072,2017_Sep_28_1802,60.0082377058,MAFE4ImagesEEG,001,201611,
AFNE01.JPG,AFNE01.JPG,AFNE01.JPG,AFNE01.JPG,AFNE01.JPG,AFNE01.JPG,,,,,,,,,,,,,,,,,,,,,0,0,0,0,,,AFSA13.jpg,AFNE02.jpg,AFNE03.jpg,AFSA10.jpg,AFSA10.jpg,FS,4,num_4,32,num_2,1.21678436745,,,2017_Sep_28_1802,60.0082377058,MAFE4ImagesEEG,001,201611,
AFNE01.JPG,AFNE01.JPG,AFNE01.JPG,AFNE01.JPG,AFNE01.JPG,AFNE01.JPG,,,,,,,,,,,,,,,,,,,,,0,1,1,9,,,AFSA03.jpg,AFNE17.jpg,AFSA12.jpg,AFNE11.jpg,AFSA03.jpg,FS,4,num_8,16,num_8,0.70017903694,,,2017_Sep_28_1802,60.0082377058,MAFE4ImagesEEG,001,201611,
AFNE01.JPG,AFNE01.JPG,AFNE01.JPG,AFNE01.JPG,AFNE01.JPG,AFNE01.JPG,,,,,,,,,,,,,,,,,,,,,0,2,2,8,,,AFNE06.jpg,AFNE15.jpg,AFSA18.jpg,AFSA09.jpg,AFSA09.jpg,FS,4,num_4,16,num_4,0.766804028768,,,2017_Sep_28_1802,60.0082377058,MAFE4ImagesEEG,001,201611,
AFNE01.JPG,AFNE01.JPG,AFNE01.JPG,AFNE01.JPG,AFNE01.JPG,AFNE01.JPG,,,,,,,,,,,,,,,,,,,,,0,3,3,5,,,AFSA15.jpg,AFNE08.jpg,AFSA18.jpg,AFNE16.jpg,AFSA15.jpg,FS,4,num_8,16,num_8,0.566757136607,,,2017_Sep_28_1802,60.0082377058,MAFE4ImagesEEG,001,201611,
AFNE01.JPG,AFNE01.JPG,AFNE01.JPG,AFNE01.JPG,AFNE01.JPG,AFNE01.JPG,,,,,,,,,,,,,,,,,,,,,0,4,4,3,,,AFNE18.jpg,AFSA16.jpg,AFSA02.jpg,AFNE20.jpg,AFSA16.jpg,FS,4,num_6,32,num_8,0.666817948804,,,2017_Sep_28_1802,60.0082377058,MAFE4ImagesEEG,001,201611,
AFNE01.JPG,AFNE01.JPG,AFNE01.JPG,AFNE01.JPG,AFNE01.JPG,AFNE01.JPG,,,,,,,,,,,,,,,,,,,,,0,5,5,4,,,AFNE17.jpg,AFSA06.jpg,AFSA15.jpg,AFNE03.jpg,AFSA15.jpg,FS,4,num_2,32,num_6,0.566766758799,,,2017_Sep_28_1802,60.0082377058,MAFE4ImagesEEG,001,201611,
AFNE01.JPG,AFNE01.JPG,AFNE01.JPG,AFNE01.JPG,AFNE01.JPG,AFNE01.JPG,,,,,,,,,,,,,,,,,,,,,0,6,6,1,,,AFNE11.jpg,AFSA20.jpg,AFSA19.jpg,AFNE04.jpg,AFSA20.jpg,FS,4,num_6,32,num_8,0.233528257464,,,2017_Sep_28_1802,60.0082377058,MAFE4ImagesEEG,001,201611,
AFNE01.JPG,AFNE01.JPG,AFNE01.JPG,AFNE01.JPG,AFNE01.JPG,AFNE01.JPG,,,,,,,,,,,,,,,,,,,,,0,7,7,7,,,AFNE01.jpg,AFSA16.jpg,AFNE15.jpg,AFSA08.jpg,AFSA16.jpg,FS,4,num_6,32,num_4,0.633542819065,,,2017_Sep_28_1802,60.0082377058,MAFE4ImagesEEG,001,201611,
AFNE01.JPG,AFNE01.JPG,AFNE01.JPG,AFNE01.JPG,AFNE01.JPG,AFNE01.JPG,,,,,,,,,,,,,,,,,,,,,0,8,8,6,,,AFSA08.jpg,AFNE02.jpg,AFSA16.jpg,AFNE17.jpg,AFSA16.jpg,FS,4,num_2,32,num_6,0.450115049374,,,2017_Sep_28_1802,60.0082377058,MAFE4ImagesEEG,001,201611,
AFNE01.JPG,AFNE01.JPG,AFNE01.JPG,AFNE01.JPG,AFNE01.JPG,AFNE01.JPG,,,,,,,,,,,,,,,,,,,,,0,9,9,2,,,AFNE08.jpg,AFSA18.jpg,AFSA16.jpg,AFNE10.jpg,AFSA16.jpg,FS,4,num_2,16,num_2,0.866821220377,,,2017_Sep_28_1802,60.0082377058,MAFE4ImagesEEG,001,201611,
AFNE01.JPG,AFNE01.JPG,AFNE01.JPG,AFNE01.JPG,AFNE01.JPG,AFNE01.JPG,,,,,,,,,,,,,,,,,,,,,1,0,10,5,,,AFNE16.jpg,AFSA15.jpg,AFNE07.jpg,AFSA12.jpg,AFNE16.jpg,FN,3,num_8,32,num_2,0.816804445698,,,2017_Sep_28_1802,60.0082377058,MAFE4ImagesEEG,001,201611,
AFNE01.JPG,AFNE01.JPG,AFNE01.JPG,AFNE01.JPG,AFNE01.JPG,AFNE01.JPG,,,,,,,,,,,,,,,,,,,,,1,1,11,0,,,AFSA05.jpg,AFNE12.jpg,AFNE17.jpg,AFSA11.jpg,AFNE12.jpg,FN,3,num_6,32,num_8,0.783446244313,,,2017_Sep_28_1802,60.0082377058,MAFE4ImagesEEG,001,201611,
AFNE01.JPG,AFNE01.JPG,AFNE01.JPG,AFNE01.JPG,AFNE01.JPG,AFNE01.JPG,,,,,,,,,,,,,,,,,,,,,1,2,12,7,,,AFNE14.jpg,AFNE18.jpg,AFSA17.jpg,AFSA16.jpg,AFSA16.jpg,FS,4,num_4,16,num_4,0.666783950408,,,2017_Sep_28_1802,60.0082377058,MAFE4ImagesEEG,001,201611,
AFNE01.JPG,AFNE01.JPG,AFNE01.JPG,AFNE01.JPG,AFNE01.JPG,AFNE01.JPG,,,,,,,,,,,,,,,,,,,,,1,3,13,3,,,AFNE18.jpg,AFNE07.jpg,AFSA07.jpg,AFSA08.jpg,AFSA08.jpg,FS,4,num_4,32,num_8,0.766723843873,,,2017_Sep_28_1802,60.0082377058,MAFE4ImagesEEG,001,201611,
AFNE01.JPG,AFNE01.JPG,AFNE01.JPG,AFNE01.JPG,AFNE01.JPG,AFNE01.JPG,,,,,,,,,,,,,,,,,,,,,1,4,14,4,,,AFSA01.jpg,AFSA20.jpg,AFNE07.jpg,AFNE19.jpg,AFSA20.jpg,FS,4,num_6,16,num_6,0.850196324638,,,2017_Sep_28_1802,60.0082377058,MAFE4ImagesEEG,001,201611,
AFNE01.JPG,AFNE01.JPG,AFNE01.JPG,AFNE01.JPG,AFNE01.JPG,AFNE01.JPG,,,,,,,,,,,,,,,,,,,,,1,5,15,2,,,AFSA10.jpg,AFNE02.jpg,AFNE20.jpg,AFSA19.jpg,AFNE20.jpg,FN,3,num_2,16,num_2,1.18328696501,,,2017_Sep_28_1802,60.0082377058,MAFE4ImagesEEG,001,201611,
AFNE01.JPG,AFNE01.JPG,AFNE01.JPG,AFNE01.JPG,AFNE01.JPG,AFNE01.JPG,,,,,,,,,,,,,,,,,,,,,1,6,16,6,,,AFSA02.jpg,AFSA19.jpg,AFNE11.jpg,AFNE18.jpg,AFNE18.jpg,FN,3,num_4,16,num_4,1.13345493644,,,2017_Sep_28_1802,60.0082377058,MAFE4ImagesEEG,001,201611,
AFNE01.JPG,AFNE01.JPG,AFNE01.JPG,AFNE01.JPG,AFNE01.JPG,AFNE01.JPG,,,,,,,,,,,,,,,,,,,,,1,7,17,1,,,AFNE06.jpg,AFSA18.jpg,AFNE02.jpg,AFSA03.jpg,AFSA18.jpg,FS,4,num_6,16,num_6,0.450194913428,,,2017_Sep_28_1802,60.0082377058,MAFE4ImagesEEG,001,201611,
AFNE01.JPG,AFNE01.JPG,AFNE01.JPG,AFNE01.JPG,AFNE01.JPG,AFNE01.JPG,,,,,,,,,,,,,,,,,,,,,1,8,18,9,,,AFSA20.jpg,AFNE19.jpg,AFSA11.jpg,AFNE06.jpg,AFNE06.jpg,FN,3,num_4,32,num_2,0.65014590451,,,2017_Sep_28_1802,60.0082377058,MAFE4ImagesEEG,001,201611,
AFNE01.JPG,AFNE01.JPG,AFNE01.JPG,AFNE01.JPG,AFNE01.JPG,AFNE01.JPG,,,,,,,,,,,,,,,,,,,,,1,9,19,8,,,AFNE16.jpg,AFSA16.jpg,AFNE12.jpg,AFSA03.jpg,AFNE16.jpg,FN,3,num_8,16,num_8,0.533484572778,,,2017_Sep_28_1802,60.0082377058,MAFE4ImagesEEG,001,201611,
AFNE01.JPG,AFNE01.JPG,AFNE01.JPG,AFNE01.JPG,AFNE01.JPG,AFNE01.JPG,,,,,,,,,,,,,,,,,,,,,2,0,20,7,,,AFSA05.jpg,AFNE10.jpg,AFNE08.jpg,AFSA15.jpg,AFSA05.jpg,FS,4,num_8,32,num_6,0.733443261473,,,2017_Sep_28_1802,60.0082377058,MAFE4ImagesEEG,001,201611,
AFNE01.JPG,AFNE01.JPG,AFNE01.JPG,AFNE01.JPG,AFNE01.JPG,AFNE01.JPG,,,,,,,,,,,,,,,,,,,,,2,1,21,5,,,AFNE18.jpg,AFSA08.jpg,AFSA09.jpg,AFNE19.jpg,AFSA09.jpg,FS,4,num_2,32,num_8,0.533490987495,,,2017_Sep_28_1802,60.0082377058,MAFE4ImagesEEG,001,201611,
AFNE01.JPG,AFNE01.JPG,AFNE01.JPG,AFNE01.JPG,AFNE01.JPG,AFNE01.JPG,,,,,,,,,,,,,,,,,,,,,2,2,22,0,,,AFNE19.jpg,AFSA04.jpg,AFSA02.jpg,AFNE06.jpg,AFSA04.jpg,FS,4,num_6,32,num_8,0.500210084487,,,2017_Sep_28_1802,60.0082377058,MAFE4ImagesEEG,001,201611,
AFNE01.JPG,AFNE01.JPG,AFNE01.JPG,AFNE01.JPG,AFNE01.JPG,AFNE01.JPG,,,,,,,,,,,,,,,,,,,,,2,3,23,2,,,AFSA17.jpg,AFNE17.jpg,AFSA11.jpg,AFNE02.jpg,AFNE02.jpg,FN,3,num_4,32,num_6,0.600180127425,,,2017_Sep_28_1802,60.0082377058,MAFE4ImagesEEG,001,201611,
AFNE01.JPG,AFNE01.JPG,AFNE01.JPG,AFNE01.JPG,AFNE01.JPG,AFNE01.JPG,,,,,,,,,,,,,,,,,,,,,2,4,24,1,,,AFNE06.jpg,AFSA14.jpg,AFNE17.jpg,AFSA16.jpg,AFNE17.jpg,FN,3,num_2,32,num_8,0.750097023789,,,2017_Sep_28_1802,60.0082377058,MAFE4ImagesEEG,001,201611,
AFNE01.JPG,AFNE01.JPG,AFNE01.JPG,AFNE01.JPG,AFNE01.JPG,AFNE01.JPG,,,,,,,,,,,,,,,,,,,,,2,5,25,4,,,AFNE05.jpg,AFSA09.jpg,AFNE11.jpg,AFSA11.jpg,AFSA09.jpg,FS,4,num_6,16,num_6,0.666793251876,,,2017_Sep_28_1802,60.0082377058,MAFE4ImagesEEG,001,201611,
AFNE01.JPG,AFNE01.JPG,AFNE01.JPG,AFNE01.JPG,AFNE01.JPG,AFNE01.JPG,,,,,,,,,,,,,,,,,,,,,2,6,26,9,,,AFNE12.jpg,AFSA10.jpg,AFNE09.jpg,AFSA02.jpg,AFNE09.jpg,FN,3,num_2,16,num_2,0.883350856369,,,2017_Sep_28_1802,60.0082377058,MAFE4ImagesEEG,001,201611,
AFNE01.JPG,AFNE01.JPG,AFNE01.JPG,AFNE01.JPG,AFNE01.JPG,AFNE01.JPG,,,,,,,,,,,,,,,,,,,,,2,7,27,8,,,AFSA20.jpg,AFNE17.jpg,AFNE07.jpg,AFSA09.jpg,AFSA20.jpg,FS,4,num_8,32,num_4,0.700176471029,,,2017_Sep_28_1802,60.0082377058,MAFE4ImagesEEG,001,201611,
AFNE01.JPG,AFNE01.JPG,AFNE01.JPG,AFNE01.JPG,AFNE01.JPG,AFNE01.JPG,,,,,,,,,,,,,,,,,,,,,2,8,28,6,,,AFSA01.jpg,AFNE16.jpg,AFSA02.jpg,AFNE09.jpg,AFNE09.jpg,FN,3,num_4,16,num_4,0.566813266021,,,2017_Sep_28_1802,60.0082377058,MAFE4ImagesEEG,001,201611,
AFNE01.JPG,AFNE01.JPG,AFNE01.JPG,AFNE01.JPG,AFNE01.JPG,AFNE01.JPG,,,,,,,,,,,,,,,,,,,,,2,9,29,3,,,AFNE04.jpg,AFSA04.jpg,AFNE17.jpg,AFSA13.jpg,AFSA04.jpg,FS,4,num_6,32,num_2,1.03353300446,,,2017_Sep_28_1802,60.0082377058,MAFE4ImagesEEG,001,201611,
AFNE01.JPG,AFNE01.JPG,AFNE01.JPG,AFNE01.JPG,AFNE01.JPG,AFNE01.JPG,,,,,,,,,,,,,,,,,,,,,3,0,30,3,,,AFNE08.jpg,AFSA11.jpg,AFSA16.jpg,AFNE19.jpg,AFSA11.jpg,FS,4,num_6,16,num_6,0.416797261219,,,2017_Sep_28_1802,60.0082377058,MAFE4ImagesEEG,001,201611,
AFNE01.JPG,AFNE01.JPG,AFNE01.JPG,AFNE01.JPG,AFNE01.JPG,AFNE01.JPG,,,,,,,,,,,,,,,,,,,,,3,1,31,8,,,AFSA09.jpg,AFSA11.jpg,AFNE04.jpg,AFNE19.jpg,AFSA09.jpg,FS,4,num_8,32,num_4,0.750109211775,,,2017_Sep_28_1802,60.0082377058,MAFE4ImagesEEG,001,201611,
AFNE01.JPG,AFNE01.JPG,AFNE01.JPG,AFNE01.JPG,AFNE01.JPG,AFNE01.JPG,,,,,,,,,,,,,,,,,,,,,3,2,32,1,,,AFNE19.jpg,AFSA05.jpg,AFSA14.jpg,AFNE08.jpg,AFNE19.jpg,FN,3,num_8,16,num_8,0.916849541594,,,2017_Sep_28_1802,60.0082377058,MAFE4ImagesEEG,001,201611,
AFNE01.JPG,AFNE01.JPG,AFNE01.JPG,AFNE01.JPG,AFNE01.JPG,AFNE01.JPG,,,,,,,,,,,,,,,,,,,,,3,3,33,2,,,AFNE03.jpg,AFSA11.jpg,AFSA17.jpg,AFNE16.jpg,AFSA17.jpg,FS,4,num_2,32,num_6,1.1001069987,,,2017_Sep_28_1802,60.0082377058,MAFE4ImagesEEG,001,201611,
AFNE01.JPG,AFNE01.JPG,AFNE01.JPG,AFNE01.JPG,AFNE01.JPG,AFNE01.JPG,,,,,,,,,,,,,,,,,,,,,3,4,34,7,,,AFNE14.jpg,AFNE13.jpg,AFSA11.jpg,AFSA14.jpg,AFSA11.jpg,FS,4,num_2,32,num_4,1.06672089302,,,2017_Sep_28_1802,60.0082377058,MAFE4ImagesEEG,001,201611,
AFNE01.JPG,AFNE01.JPG,AFNE01.JPG,AFNE01.JPG,AFNE01.JPG,AFNE01.JPG,,,,,,,,,,,,,,,,,,,,,3,5,35,9,,,AFNE13.jpg,AFNE19.jpg,AFSA02.jpg,AFSA11.jpg,AFSA02.jpg,FS,4,num_2,32,num_4,0.933471229975,,,2017_Sep_28_1802,60.0082377058,MAFE4ImagesEEG,001,201611,
AFNE01.JPG,AFNE01.JPG,AFNE01.JPG,AFNE01.JPG,AFNE01.JPG,AFNE01.JPG,,,,,,,,,,,,,,,,,,,,,3,6,36,6,,,AFSA11.jpg,AFNE10.jpg,AFSA02.jpg,AFNE16.jpg,AFSA11.jpg,FS,4,num_8,16,num_8,0.566800757195,,,2017_Sep_28_1802,60.0082377058,MAFE4ImagesEEG,001,201611,
AFNE01.JPG,AFNE01.JPG,AFNE01.JPG,AFNE01.JPG,AFNE01.JPG,AFNE01.JPG,,,,,,,,,,,,,,,,,,,,,3,7,37,4,,,AFSA07.jpg,AFNE12.jpg,AFNE08.jpg,AFSA13.jpg,AFSA07.jpg,FS,4,num_8,32,num_4,0.916769356816,,,2017_Sep_28_1802,60.0082377058,MAFE4ImagesEEG,001,201611,
AFNE01.JPG,AFNE01.JPG,AFNE01.JPG,AFNE01.JPG,AFNE01.JPG,AFNE01.JPG,,,,,,,,,,,,,,,,,,,,,3,8,38,0,,,AFSA12.jpg,AFNE15.jpg,AFSA15.jpg,AFNE11.jpg,AFSA15.jpg,FS,4,num_2,32,num_4,0.950118577457,,,2017_Sep_28_1802,60.0082377058,MAFE4ImagesEEG,001,201611,
