IPosition2,IPosition3,IPosition1,IPosition6,IPosition4,IPosition5,TrialsF1.thisRepN,TrialsF1.thisTrialN,TrialsF1.thisN,TrialsF1.thisIndex,TrialsM1.thisRepN,TrialsM1.thisTrialN,TrialsM1.thisN,TrialsM1.thisIndex,TrialsF2.thisRepN,TrialsF2.thisTrialN,TrialsF2.thisN,TrialsF2.thisIndex,TrialsM2.thisRepN,TrialsM2.thisTrialN,TrialsM2.thisN,TrialsM2.thisIndex,TrialsF3.thisRepN,TrialsF3.thisTrialN,TrialsF3.thisN,TrialsF3.thisIndex,TrialsM3.thisRepN,TrialsM3.thisTrialN,TrialsM3.thisN,TrialsM3.thisIndex,InstrKey_resp.keys,InstrKey_resp.rt,Image0 _Position,Image1 _Position,Image2 _Position,Image3 _Position,Center_image,condition,code,correct_answer,accuracy,Key_Resp.keys,Key_Resp.rt,BreakKey_resp.keys,BreakKey_resp.rt,date,frameRate,expName,session,participant,
,,,,,,,,,,,,,,,,,,,,,,,,,,,,,,space,13.016208281,,,,,,,,,,,,,,2017_Oct_05_1032,60.0096429943,FEMA4ImagesEEG,001,201671,
AMNE22.JPG,AMSA24.JPG,AMSA22.JPG,AMNE25.JPG,AMNE24.JPG,AMSA25.JPG,0,0,0,7,,,,,,,,,,,,,,,,,,,,,,,AFNE06.jpg,AFSA05.jpg,AFNE11.jpg,AFSA11.jpg,AFNE06.jpg,FN,3,num_8,32,num_6,0.733620524028,,,2017_Oct_05_1032,60.0096429943,FEMA4ImagesEEG,001,201671,
AFNE22.JPG,AFSA24.JPG,AFSA22.JPG,AFNE25.JPG,AFNE24.JPG,AFSA25.JPG,0,1,1,6,,,,,,,,,,,,,,,,,,,,,,,AFSA19.jpg,AFNE03.jpg,AFSA02.jpg,AFNE14.jpg,AFSA19.jpg,FS,4,num_8,32,num_2,0.400152159098,,,2017_Oct_05_1032,60.0096429943,FEMA4ImagesEEG,001,201671,
AFNE23.JPG,AFNE24.JPG,AFNE22.JPG,AFSA24.JPG,AFSA22.JPG,AFSA23.JPG,0,2,2,8,,,,,,,,,,,,,,,,,,,,,,,AFSA17.jpg,AFNE20.jpg,AFNE16.jpg,AFSA20.jpg,AFNE16.jpg,FN,3,num_2,16,num_2,0.6335489669,,,2017_Oct_05_1032,60.0096429943,FEMA4ImagesEEG,001,201671,
AMSA21.JPG,AMNE22.JPG,AMNE21.JPG,AMSA23.JPG,AMSA22.JPG,AMNE23.JPG,0,3,3,1,,,,,,,,,,,,,,,,,,,,,,,AFNE07.jpg,AFNE02.jpg,AFSA09.jpg,AFSA11.jpg,AFNE07.jpg,FN,3,num_8,32,num_4,0.616708827933,,,2017_Oct_05_1032,60.0096429943,FEMA4ImagesEEG,001,201671,
AFSA25.JPG,AFNE24.JPG,AFSA24.JPG,AFNE21.JPG,AFSA21.JPG,AFNE25.JPG,0,4,4,2,,,,,,,,,,,,,,,,,,,,,,,AFNE06.jpg,AFSA06.jpg,AFNE11.jpg,AFSA16.jpg,AFSA16.jpg,FS,4,num_4,32,num_8,0.833452488296,,,2017_Oct_05_1032,60.0096429943,FEMA4ImagesEEG,001,201671,
AMSA21.JPG,AMNE23.JPG,AMNE21.JPG,AMSA25.JPG,AMNE25.JPG,AMSA23.JPG,0,5,5,5,,,,,,,,,,,,,,,,,,,,,,,AFSA14.jpg,AFNE07.jpg,AFSA13.jpg,AFNE02.jpg,AFNE02.jpg,FN,3,num_4,32,num_8,0.533434751356,,,2017_Oct_05_1032,60.0096429943,FEMA4ImagesEEG,001,201671,
AFSA21.JPG,AFNE22.JPG,AFNE21.JPG,AFSA23.JPG,AFSA22.JPG,AFNE23.JPG,0,6,6,0,,,,,,,,,,,,,,,,,,,,,,,AFSA15.jpg,AFNE13.jpg,AFSA08.jpg,AFNE03.jpg,AFNE03.jpg,FN,3,num_4,16,num_4,0.63341201088,,,2017_Oct_05_1032,60.0096429943,FEMA4ImagesEEG,001,201671,
AMNE23.JPG,AMNE24.JPG,AMNE22.JPG,AMSA24.JPG,AMSA22.JPG,AMSA23.JPG,0,7,7,9,,,,,,,,,,,,,,,,,,,,,,,AFNE16.jpg,AFSA03.jpg,AFNE04.jpg,AFSA13.jpg,AFSA03.jpg,FS,4,num_6,16,num_6,0.516721946216,,,2017_Oct_05_1032,60.0096429943,FEMA4ImagesEEG,001,201671,
AMSA25.JPG,AMNE24.JPG,AMSA24.JPG,AMNE26.JPG,AMSA21.JPG,AMNE25.JPG,0,8,8,3,,,,,,,,,,,,,,,,,,,,,,,AFSA02.jpg,AFSA09.jpg,AFNE07.jpg,AFNE10.jpg,AFNE10.jpg,FN,3,num_4,16,num_4,0.650289676414,,,2017_Oct_05_1032,60.0096429943,FEMA4ImagesEEG,001,201671,
AFSA21.JPG,AFNE23.JPG,AFNE21.JPG,AFSA25.JPG,AFNE25.JPG,AFSA23.JPG,0,9,9,4,,,,,,,,,,,,,,,,,,,,,,,AFNE04.jpg,AFNE12.jpg,AFSA20.jpg,AFSA19.jpg,AFSA19.jpg,FS,4,num_4,32,num_8,0.683465430164,,,2017_Oct_05_1032,60.0096429943,FEMA4ImagesEEG,001,201671,
AMSA21.JPG,AMNE23.JPG,AMNE21.JPG,AMSA25.JPG,AMNE25.JPG,AMSA23.JPG,,,,,0,0,0,5,,,,,,,,,,,,,,,,,,,AMNE11.jpg,AMNE14.jpg,AMSA02.jpg,AMSA05.jpg,AMSA02.jpg,MS,2,num_2,16,num_2,0.450186333968,,,2017_Oct_05_1032,60.0096429943,FEMA4ImagesEEG,001,201671,
AMSA21.JPG,AMNE22.JPG,AMNE21.JPG,AMSA23.JPG,AMSA22.JPG,AMNE23.JPG,,,,,0,1,1,1,,,,,,,,,,,,,,,,,,,AMSA18.jpg,AMSA11.jpg,AMNE04.jpg,AMNE17.jpg,AMSA18.jpg,MS,2,num_8,32,num_6,0.616787409264,,,2017_Oct_05_1032,60.0096429943,FEMA4ImagesEEG,001,201671,
AMSA25.JPG,AMNE24.JPG,AMSA24.JPG,AMNE26.JPG,AMSA21.JPG,AMNE25.JPG,,,,,0,2,2,3,,,,,,,,,,,,,,,,,,,AMNE11.jpg,AMNE17.jpg,AMSA15.jpg,AMSA09.jpg,AMNE17.jpg,MN,1,num_6,16,num_6,0.616845463257,,,2017_Oct_05_1032,60.0096429943,FEMA4ImagesEEG,001,201671,
AMNE22.JPG,AMSA24.JPG,AMSA22.JPG,AMNE25.JPG,AMNE24.JPG,AMSA25.JPG,,,,,0,3,3,7,,,,,,,,,,,,,,,,,,,AMNE08.jpg,AMSA05.jpg,AMSA11.jpg,AMNE10.jpg,AMNE10.jpg,MN,1,num_4,32,num_8,0.750136073999,,,2017_Oct_05_1032,60.0096429943,FEMA4ImagesEEG,001,201671,
AFSA21.JPG,AFNE23.JPG,AFNE21.JPG,AFSA25.JPG,AFNE25.JPG,AFSA23.JPG,,,,,0,4,4,4,,,,,,,,,,,,,,,,,,,AMNE16.jpg,AMNE10.jpg,AMSA10.jpg,AMSA19.jpg,AMSA19.jpg,MS,2,num_4,16,num_4,0.750096943695,,,2017_Oct_05_1032,60.0096429943,FEMA4ImagesEEG,001,201671,
AFNE23.JPG,AFNE24.JPG,AFNE22.JPG,AFSA24.JPG,AFSA22.JPG,AFSA23.JPG,,,,,0,5,5,8,,,,,,,,,,,,,,,,,,,AMSA06.jpg,AMSA11.jpg,AMNE13.jpg,AMNE03.jpg,AMNE13.jpg,MN,1,num_2,16,num_2,0.633533571381,,,2017_Oct_05_1032,60.0096429943,FEMA4ImagesEEG,001,201671,
AMNE23.JPG,AMNE24.JPG,AMNE22.JPG,AMSA24.JPG,AMSA22.JPG,AMSA23.JPG,,,,,0,6,6,9,,,,,,,,,,,,,,,,,,,AMNE03.jpg,AMNE06.jpg,AMSA18.jpg,AMSA03.jpg,AMSA03.jpg,MS,2,num_4,32,num_8,1.26670727236,,,2017_Oct_05_1032,60.0096429943,FEMA4ImagesEEG,001,201671,
AFNE22.JPG,AFSA24.JPG,AFSA22.JPG,AFNE25.JPG,AFNE24.JPG,AFSA25.JPG,,,,,0,7,7,6,,,,,,,,,,,,,,,,,,,AMSA13.jpg,AMSA14.jpg,AMNE14.jpg,AMNE05.jpg,AMSA14.jpg,MS,2,num_6,16,num_6,0.516661326343,,,2017_Oct_05_1032,60.0096429943,FEMA4ImagesEEG,001,201671,
AFSA21.JPG,AFNE22.JPG,AFNE21.JPG,AFSA23.JPG,AFSA22.JPG,AFNE23.JPG,,,,,0,8,8,0,,,,,,,,,,,,,,,,,,,AMNE15.jpg,AMNE16.jpg,AMSA13.jpg,AMSA02.jpg,AMNE15.jpg,MN,1,num_8,32,num_4,0.716736122937,,,2017_Oct_05_1032,60.0096429943,FEMA4ImagesEEG,001,201671,
AFSA25.JPG,AFNE24.JPG,AFSA24.JPG,AFNE21.JPG,AFSA21.JPG,AFNE25.JPG,,,,,0,9,9,2,,,,,,,,,,,,,,,,,,,AMSA17.jpg,AMNE09.jpg,AMSA19.jpg,AMNE05.jpg,AMNE05.jpg,MN,1,num_4,32,num_8,0.683467675321,,,2017_Oct_05_1032,60.0096429943,FEMA4ImagesEEG,001,201671,
AMSA21.JPG,AMNE22.JPG,AMNE21.JPG,AMSA23.JPG,AMSA22.JPG,AMNE23.JPG,,,,,,,,,0,0,0,1,,,,,,,,,,,,,,,AFSA05.jpg,AFNE09.jpg,AFNE02.jpg,AFSA09.jpg,AFNE02.jpg,FN,3,num_2,32,num_6,0.733431928849,,,2017_Oct_05_1032,60.0096429943,FEMA4ImagesEEG,001,201671,
AMNE22.JPG,AMSA24.JPG,AMSA22.JPG,AMNE25.JPG,AMNE24.JPG,AMSA25.JPG,,,,,,,,,0,1,1,7,,,,,,,,,,,,,,,AFSA02.jpg,AFNE02.jpg,AFSA08.jpg,AFNE06.jpg,AFNE02.jpg,FN,3,num_6,32,num_2,0.883482814243,,,2017_Oct_05_1032,60.0096429943,FEMA4ImagesEEG,001,201671,
AFNE23.JPG,AFNE24.JPG,AFNE22.JPG,AFSA24.JPG,AFSA22.JPG,AFSA23.JPG,,,,,,,,,0,2,2,8,,,,,,,,,,,,,,,AFNE14.jpg,AFNE09.jpg,AFSA05.jpg,AFSA18.jpg,AFNE14.jpg,FN,3,num_8,16,num_8,0.633482573729,,,2017_Oct_05_1032,60.0096429943,FEMA4ImagesEEG,001,201671,
AFNE22.JPG,AFSA24.JPG,AFSA22.JPG,AFNE25.JPG,AFNE24.JPG,AFSA25.JPG,,,,,,,,,0,3,3,6,,,,,,,,,,,,,,,AFSA11.jpg,AFNE07.jpg,AFNE15.jpg,AFSA20.jpg,AFNE07.jpg,FN,3,num_6,16,num_6,1.0334483828,,,2017_Oct_05_1032,60.0096429943,FEMA4ImagesEEG,001,201671,
AMSA21.JPG,AMNE23.JPG,AMNE21.JPG,AMSA25.JPG,AMNE25.JPG,AMSA23.JPG,,,,,,,,,0,4,4,5,,,,,,,,,,,,,,,AFNE16.jpg,AFSA18.jpg,AFNE09.jpg,AFSA02.jpg,AFNE09.jpg,FN,3,num_2,16,num_2,0.800065366842,,,2017_Oct_05_1032,60.0096429943,FEMA4ImagesEEG,001,201671,
AMNE23.JPG,AMNE24.JPG,AMNE22.JPG,AMSA24.JPG,AMSA22.JPG,AMSA23.JPG,,,,,,,,,0,5,5,9,,,,,,,,,,,,,,,AFNE01.jpg,AFNE13.jpg,AFSA15.jpg,AFSA02.jpg,AFSA02.jpg,FS,4,num_4,32,num_8,0.633514647721,,,2017_Oct_05_1032,60.0096429943,FEMA4ImagesEEG,001,201671,
AMSA25.JPG,AMNE24.JPG,AMSA24.JPG,AMNE26.JPG,AMSA21.JPG,AMNE25.JPG,,,,,,,,,0,6,6,3,,,,,,,,,,,,,,,AFSA13.jpg,AFNE05.jpg,AFNE11.jpg,AFSA16.jpg,AFSA16.jpg,FS,4,num_4,32,num_8,0.950148967735,,,2017_Oct_05_1032,60.0096429943,FEMA4ImagesEEG,001,201671,
AFSA21.JPG,AFNE22.JPG,AFNE21.JPG,AFSA23.JPG,AFSA22.JPG,AFNE23.JPG,,,,,,,,,0,7,7,0,,,,,,,,,,,,,,,AFNE09.jpg,AFSA14.jpg,AFNE17.jpg,AFSA20.jpg,AFSA20.jpg,FS,4,num_4,32,num_8,0.500154757116,,,2017_Oct_05_1032,60.0096429943,FEMA4ImagesEEG,001,201671,
AFSA21.JPG,AFNE23.JPG,AFNE21.JPG,AFSA25.JPG,AFNE25.JPG,AFSA23.JPG,,,,,,,,,0,8,8,4,,,,,,,,,,,,,,,AFNE05.jpg,AFNE04.jpg,AFSA12.jpg,AFSA05.jpg,AFNE05.jpg,FN,3,num_8,32,num_6,0.416792156233,,,2017_Oct_05_1032,60.0096429943,FEMA4ImagesEEG,001,201671,
AFSA25.JPG,AFNE24.JPG,AFSA24.JPG,AFNE21.JPG,AFSA21.JPG,AFNE25.JPG,,,,,,,,,0,9,9,2,,,,,,,,,,,,,,,AFSA15.jpg,AFNE11.jpg,AFSA14.jpg,AFNE03.jpg,AFSA14.jpg,FS,4,num_2,16,num_2,0.616914422368,,,2017_Oct_05_1032,60.0096429943,FEMA4ImagesEEG,001,201671,
AFSA21.JPG,AFNE22.JPG,AFNE21.JPG,AFSA23.JPG,AFSA22.JPG,AFNE23.JPG,,,,,,,,,,,,,0,0,0,0,,,,,,,,,,,AMSA12.jpg,AMSA11.jpg,AMNE20.jpg,AMNE15.jpg,AMSA11.jpg,MS,2,num_6,16,num_6,0.500122683094,,,2017_Oct_05_1032,60.0096429943,FEMA4ImagesEEG,001,201671,
AFSA21.JPG,AFNE23.JPG,AFNE21.JPG,AFSA25.JPG,AFNE25.JPG,AFSA23.JPG,,,,,,,,,,,,,0,1,1,4,,,,,,,,,,,AMSA15.jpg,AMNE17.jpg,AMSA16.jpg,AMNE11.jpg,AMSA15.jpg,MS,2,num_8,32,num_4,0.683481146407,,,2017_Oct_05_1032,60.0096429943,FEMA4ImagesEEG,001,201671,
AFNE23.JPG,AFNE24.JPG,AFNE22.JPG,AFSA24.JPG,AFSA22.JPG,AFSA23.JPG,,,,,,,,,,,,,0,2,2,8,,,,,,,,,,,AMSA07.jpg,AMSA02.jpg,AMNE20.jpg,AMNE19.jpg,AMSA02.jpg,MS,2,num_6,16,num_6,0.500050195842,,,2017_Oct_05_1032,60.0096429943,FEMA4ImagesEEG,001,201671,
AFNE22.JPG,AFSA24.JPG,AFSA22.JPG,AFNE25.JPG,AFNE24.JPG,AFSA25.JPG,,,,,,,,,,,,,0,3,3,6,,,,,,,,,,,AMNE15.jpg,AMSA06.jpg,AMNE20.jpg,AMSA19.jpg,AMNE15.jpg,MN,1,num_8,32,num_4,0.63345595228,,,2017_Oct_05_1032,60.0096429943,FEMA4ImagesEEG,001,201671,
AMNE23.JPG,AMNE24.JPG,AMNE22.JPG,AMSA24.JPG,AMSA22.JPG,AMSA23.JPG,,,,,,,,,,,,,0,4,4,9,,,,,,,,,,,AMNE20.jpg,AMSA15.jpg,AMSA12.jpg,AMNE15.jpg,AMNE20.jpg,MN,1,num_8,32,num_4,0.533512049704,,,2017_Oct_05_1032,60.0096429943,FEMA4ImagesEEG,001,201671,
AMSA21.JPG,AMNE23.JPG,AMNE21.JPG,AMSA25.JPG,AMNE25.JPG,AMSA23.JPG,,,,,,,,,,,,,0,5,5,5,,,,,,,,,,,AMSA03.jpg,AMNE01.jpg,AMSA15.jpg,AMNE15.jpg,AMSA03.jpg,MS,2,num_8,32,num_2,1.46682408592,,,2017_Oct_05_1032,60.0096429943,FEMA4ImagesEEG,001,201671,
AFSA25.JPG,AFNE24.JPG,AFSA24.JPG,AFNE21.JPG,AFSA21.JPG,AFNE25.JPG,,,,,,,,,,,,,0,6,6,2,,,,,,,,,,,AMNE04.jpg,AMNE05.jpg,AMSA10.jpg,AMSA17.jpg,AMSA17.jpg,MS,2,num_4,16,num_4,0.48348108225,,,2017_Oct_05_1032,60.0096429943,FEMA4ImagesEEG,001,201671,
AMSA25.JPG,AMNE24.JPG,AMSA24.JPG,AMNE26.JPG,AMSA21.JPG,AMNE25.JPG,,,,,,,,,,,,,0,7,7,3,,,,,,,,,,,AMSA10.jpg,AMNE16.jpg,AMNE08.jpg,AMSA06.jpg,AMNE16.jpg,MN,1,num_6,16,num_6,0.533521030447,,,2017_Oct_05_1032,60.0096429943,FEMA4ImagesEEG,001,201671,
AMSA21.JPG,AMNE22.JPG,AMNE21.JPG,AMSA23.JPG,AMSA22.JPG,AMNE23.JPG,,,,,,,,,,,,,0,8,8,1,,,,,,,,,,,AMNE15.jpg,AMNE06.jpg,AMSA04.jpg,AMSA08.jpg,AMNE06.jpg,MN,1,num_6,16,num_6,1.15013171191,,,2017_Oct_05_1032,60.0096429943,FEMA4ImagesEEG,001,201671,
AMNE22.JPG,AMSA24.JPG,AMSA22.JPG,AMNE25.JPG,AMNE24.JPG,AMSA25.JPG,,,,,,,,,,,,,0,9,9,7,,,,,,,,,,,AMSA03.jpg,AMNE07.jpg,AMNE09.jpg,AMSA06.jpg,AMNE09.jpg,MN,1,num_2,16,num_2,0.566805194307,,,2017_Oct_05_1032,60.0096429943,FEMA4ImagesEEG,001,201671,
AFNE22.JPG,AFSA24.JPG,AFSA22.JPG,AFNE25.JPG,AFNE24.JPG,AFSA25.JPG,,,,,,,,,,,,,,,,,0,0,0,6,,,,,,,AFNE07.jpg,AFSA16.jpg,AFNE08.jpg,AFSA02.jpg,AFSA16.jpg,FS,4,num_6,16,num_6,0.7334380229,,,2017_Oct_05_1032,60.0096429943,FEMA4ImagesEEG,001,201671,
AFSA25.JPG,AFNE24.JPG,AFSA24.JPG,AFNE21.JPG,AFSA21.JPG,AFNE25.JPG,,,,,,,,,,,,,,,,,0,1,1,2,,,,,,,AFSA19.jpg,AFNE11.jpg,AFSA17.jpg,AFNE17.jpg,AFNE11.jpg,FN,3,num_6,32,num_8,0.833462110488,,,2017_Oct_05_1032,60.0096429943,FEMA4ImagesEEG,001,201671,
AMSA21.JPG,AMNE22.JPG,AMNE21.JPG,AMSA23.JPG,AMSA22.JPG,AMNE23.JPG,,,,,,,,,,,,,,,,,0,2,2,1,,,,,,,AFSA09.jpg,AFNE10.jpg,AFNE14.jpg,AFSA17.jpg,AFSA09.jpg,FS,4,num_8,16,num_8,0.566759328474,,,2017_Oct_05_1032,60.0096429943,FEMA4ImagesEEG,001,201671,
AFSA21.JPG,AFNE22.JPG,AFNE21.JPG,AFSA23.JPG,AFSA22.JPG,AFNE23.JPG,,,,,,,,,,,,,,,,,0,3,3,0,,,,,,,AFNE07.jpg,AFSA14.jpg,AFSA12.jpg,AFNE01.jpg,AFSA12.jpg,FS,4,num_2,32,num_8,0.783503309562,,,2017_Oct_05_1032,60.0096429943,FEMA4ImagesEEG,001,201671,
AMSA21.JPG,AMNE23.JPG,AMNE21.JPG,AMSA25.JPG,AMNE25.JPG,AMSA23.JPG,,,,,,,,,,,,,,,,,0,4,4,5,,,,,,,AFNE16.jpg,AFNE02.jpg,AFSA15.jpg,AFSA03.jpg,AFNE02.jpg,FN,3,num_6,16,num_6,0.700107030978,,,2017_Oct_05_1032,60.0096429943,FEMA4ImagesEEG,001,201671,
AMSA25.JPG,AMNE24.JPG,AMSA24.JPG,AMNE26.JPG,AMSA21.JPG,AMNE25.JPG,,,,,,,,,,,,,,,,,0,5,5,3,,,,,,,AFSA02.jpg,AFSA04.jpg,AFNE05.jpg,AFNE11.jpg,AFSA04.jpg,FS,4,num_6,32,num_8,0.550149480958,,,2017_Oct_05_1032,60.0096429943,FEMA4ImagesEEG,001,201671,
AMNE22.JPG,AMSA24.JPG,AMSA22.JPG,AMNE25.JPG,AMNE24.JPG,AMSA25.JPG,,,,,,,,,,,,,,,,,0,6,6,7,,,,,,,AFSA15.jpg,AFNE19.jpg,AFSA13.jpg,AFNE10.jpg,AFNE19.jpg,FN,3,num_6,32,num_8,0.50005340323,,,2017_Oct_05_1032,60.0096429943,FEMA4ImagesEEG,001,201671,
AMNE23.JPG,AMNE24.JPG,AMNE22.JPG,AMSA24.JPG,AMSA22.JPG,AMSA23.JPG,,,,,,,,,,,,,,,,,0,7,7,9,,,,,,,AFSA15.jpg,AFSA16.jpg,AFNE10.jpg,AFNE13.jpg,AFSA15.jpg,FS,4,num_8,32,num_6,0.833456978638,,,2017_Oct_05_1032,60.0096429943,FEMA4ImagesEEG,001,201671,
AFNE23.JPG,AFNE24.JPG,AFNE22.JPG,AFSA24.JPG,AFSA22.JPG,AFSA23.JPG,,,,,,,,,,,,,,,,,0,8,8,8,,,,,,,AFSA19.jpg,AFNE07.jpg,AFSA18.jpg,AFNE16.jpg,AFSA19.jpg,FS,4,num_8,32,num_2,0.766803334031,,,2017_Oct_05_1032,60.0096429943,FEMA4ImagesEEG,001,201671,
AFSA21.JPG,AFNE23.JPG,AFNE21.JPG,AFSA25.JPG,AFNE25.JPG,AFSA23.JPG,,,,,,,,,,,,,,,,,0,9,9,4,,,,,,,AFNE16.jpg,AFSA19.jpg,AFSA11.jpg,AFNE02.jpg,AFNE02.jpg,FN,3,num_4,32,num_8,0.816638008546,,,2017_Oct_05_1032,60.0096429943,FEMA4ImagesEEG,001,201671,
AFSA21.JPG,AFNE23.JPG,AFNE21.JPG,AFSA25.JPG,AFNE25.JPG,AFSA23.JPG,,,,,,,,,,,,,,,,,,,,,0,0,0,4,,,AMSA16.jpg,AMNE08.jpg,AMNE04.jpg,AMSA08.jpg,AMNE08.jpg,MN,1,num_6,16,num_6,0.700117936154,,,2017_Oct_05_1032,60.0096429943,FEMA4ImagesEEG,001,201671,
AMNE22.JPG,AMSA24.JPG,AMSA22.JPG,AMNE25.JPG,AMNE24.JPG,AMSA25.JPG,,,,,,,,,,,,,,,,,,,,,0,1,1,7,,,AMNE04.jpg,AMSA17.jpg,AMNE01.jpg,AMSA04.jpg,AMSA04.jpg,MS,2,num_4,16,num_4,1.11677570228,,,2017_Oct_05_1032,60.0096429943,FEMA4ImagesEEG,001,201671,
AMSA21.JPG,AMNE23.JPG,AMNE21.JPG,AMSA25.JPG,AMNE25.JPG,AMSA23.JPG,,,,,,,,,,,,,,,,,,,,,0,2,2,5,,,AMNE07.jpg,AMNE15.jpg,AMSA08.jpg,AMSA03.jpg,AMSA08.jpg,MS,2,num_2,32,num_8,2.40002258011,,,2017_Oct_05_1032,60.0096429943,FEMA4ImagesEEG,001,201671,
AMSA25.JPG,AMNE24.JPG,AMSA24.JPG,AMNE26.JPG,AMSA21.JPG,AMNE25.JPG,,,,,,,,,,,,,,,,,,,,,0,3,3,3,,,AMNE20.jpg,AMNE17.jpg,AMSA15.jpg,AMSA07.jpg,AMNE17.jpg,MN,1,num_6,16,num_6,0.683474410878,,,2017_Oct_05_1032,60.0096429943,FEMA4ImagesEEG,001,201671,
AFSA21.JPG,AFNE22.JPG,AFNE21.JPG,AFSA23.JPG,AFSA22.JPG,AFNE23.JPG,,,,,,,,,,,,,,,,,,,,,0,4,4,0,,,AMSA06.jpg,AMSA08.jpg,AMNE11.jpg,AMNE14.jpg,AMSA08.jpg,MS,2,num_6,32,num_4,1.03313052934,,,2017_Oct_05_1032,60.0096429943,FEMA4ImagesEEG,001,201671,
AFNE22.JPG,AFSA24.JPG,AFSA22.JPG,AFNE25.JPG,AFNE24.JPG,AFSA25.JPG,,,,,,,,,,,,,,,,,,,,,0,5,5,6,,,AMSA14.jpg,AMSA15.jpg,AMNE14.jpg,AMNE02.jpg,AMSA15.jpg,MS,2,num_6,16,num_6,0.466841085145,,,2017_Oct_05_1032,60.0096429943,FEMA4ImagesEEG,001,201671,
AMSA21.JPG,AMNE22.JPG,AMNE21.JPG,AMSA23.JPG,AMSA22.JPG,AMNE23.JPG,,,,,,,,,,,,,,,,,,,,,0,6,6,1,,,AMNE05.jpg,AMSA07.jpg,AMNE16.jpg,AMSA10.jpg,AMNE16.jpg,MN,1,num_2,32,num_4,0.5834856047,,,2017_Oct_05_1032,60.0096429943,FEMA4ImagesEEG,001,201671,
AMNE23.JPG,AMNE24.JPG,AMNE22.JPG,AMSA24.JPG,AMSA22.JPG,AMSA23.JPG,,,,,,,,,,,,,,,,,,,,,0,7,7,9,,,AMSA11.jpg,AMNE11.jpg,AMSA04.jpg,AMNE19.jpg,AMSA04.jpg,MS,2,num_2,16,num_2,0.716850306431,,,2017_Oct_05_1032,60.0096429943,FEMA4ImagesEEG,001,201671,
AFSA25.JPG,AFNE24.JPG,AFSA24.JPG,AFNE21.JPG,AFSA21.JPG,AFNE25.JPG,,,,,,,,,,,,,,,,,,,,,0,8,8,2,,,AMSA02.jpg,AMNE01.jpg,AMSA10.jpg,AMNE02.jpg,AMNE01.jpg,MN,1,num_6,16,num_6,0.6501748515,,,2017_Oct_05_1032,60.0096429943,FEMA4ImagesEEG,001,201671,
AFNE23.JPG,AFNE24.JPG,AFNE22.JPG,AFSA24.JPG,AFSA22.JPG,AFSA23.JPG,,,,,,,,,,,,,,,,,,,,,0,9,9,8,,,AMSA05.jpg,AMNE11.jpg,AMNE09.jpg,AMSA06.jpg,AMNE11.jpg,MN,1,num_6,16,num_6,0.516769095033,,,2017_Oct_05_1032,60.0096429943,FEMA4ImagesEEG,001,201671,
,,,,,,,,,,,,,,,,,,,,,,,,,,,,,,,,,,,,,,,,,,,space,4.84977944306,2017_Oct_05_1032,60.0096429943,FEMA4ImagesEEG,001,201671,
AFNE01.JPG,AFNE01.JPG,AFNE01.JPG,AFNE01.JPG,AFNE01.JPG,AFNE01.JPG,0,0,0,0,,,,,,,,,,,,,,,,,,,,,,,AFSA04.jpg,AFNE08.jpg,AFNE16.jpg,AFSA15.jpg,AFSA04.jpg,FS,4,num_8,32,num_4,0.76691014049,,,2017_Oct_05_1032,60.0096429943,FEMA4ImagesEEG,001,201671,
AFNE01.JPG,AFNE01.JPG,AFNE01.JPG,AFNE01.JPG,AFNE01.JPG,AFNE01.JPG,0,1,1,3,,,,,,,,,,,,,,,,,,,,,,,AFSA07.jpg,AFNE14.jpg,AFSA05.jpg,AFNE16.jpg,AFNE16.jpg,FN,3,num_4,32,num_6,0.800151966658,,,2017_Oct_05_1032,60.0096429943,FEMA4ImagesEEG,001,201671,
AFNE01.JPG,AFNE01.JPG,AFNE01.JPG,AFNE01.JPG,AFNE01.JPG,AFNE01.JPG,0,2,2,8,,,,,,,,,,,,,,,,,,,,,,,AFNE03.jpg,AFSA02.jpg,AFSA08.jpg,AFNE07.jpg,AFSA08.jpg,FS,4,num_2,16,num_2,0.483519891801,,,2017_Oct_05_1032,60.0096429943,FEMA4ImagesEEG,001,201671,
AFNE01.JPG,AFNE01.JPG,AFNE01.JPG,AFNE01.JPG,AFNE01.JPG,AFNE01.JPG,0,3,3,5,,,,,,,,,,,,,,,,,,,,,,,AFNE18.jpg,AFSA01.jpg,AFSA04.jpg,AFNE04.jpg,AFSA04.jpg,FS,4,num_2,16,num_2,0.600150298822,,,2017_Oct_05_1032,60.0096429943,FEMA4ImagesEEG,001,201671,
AFNE01.JPG,AFNE01.JPG,AFNE01.JPG,AFNE01.JPG,AFNE01.JPG,AFNE01.JPG,0,4,4,7,,,,,,,,,,,,,,,,,,,,,,,AFSA07.jpg,AFSA06.jpg,AFNE02.jpg,AFNE11.jpg,AFSA07.jpg,FS,4,num_8,16,num_8,0.766769977054,,,2017_Oct_05_1032,60.0096429943,FEMA4ImagesEEG,001,201671,
AFNE01.JPG,AFNE01.JPG,AFNE01.JPG,AFNE01.JPG,AFNE01.JPG,AFNE01.JPG,0,5,5,2,,,,,,,,,,,,,,,,,,,,,,,AFSA11.jpg,AFSA12.jpg,AFNE06.jpg,AFNE08.jpg,AFNE06.jpg,FN,3,num_2,32,num_4,0.916791995871,,,2017_Oct_05_1032,60.0096429943,FEMA4ImagesEEG,001,201671,
AFNE01.JPG,AFNE01.JPG,AFNE01.JPG,AFNE01.JPG,AFNE01.JPG,AFNE01.JPG,0,6,6,9,,,,,,,,,,,,,,,,,,,,,,,AFSA18.jpg,AFSA13.jpg,AFNE17.jpg,AFNE10.jpg,AFSA13.jpg,FS,4,num_6,32,num_8,0.766825465078,,,2017_Oct_05_1032,60.0096429943,FEMA4ImagesEEG,001,201671,
AFNE01.JPG,AFNE01.JPG,AFNE01.JPG,AFNE01.JPG,AFNE01.JPG,AFNE01.JPG,0,7,7,1,,,,,,,,,,,,,,,,,,,,,,,AFSA18.jpg,AFSA14.jpg,AFNE02.jpg,AFNE06.jpg,AFSA14.jpg,FS,4,num_6,32,num_8,0.633511440305,,,2017_Oct_05_1032,60.0096429943,FEMA4ImagesEEG,001,201671,
AFNE01.JPG,AFNE01.JPG,AFNE01.JPG,AFNE01.JPG,AFNE01.JPG,AFNE01.JPG,0,8,8,6,,,,,,,,,,,,,,,,,,,,,,,AFNE08.jpg,AFSA10.jpg,AFNE13.jpg,AFSA20.jpg,AFSA20.jpg,FS,4,num_4,16,num_4,0.616765598941,,,2017_Oct_05_1032,60.0096429943,FEMA4ImagesEEG,001,201671,
AFNE01.JPG,AFNE01.JPG,AFNE01.JPG,AFNE01.JPG,AFNE01.JPG,AFNE01.JPG,0,9,9,4,,,,,,,,,,,,,,,,,,,,,,,AFNE10.jpg,AFSA14.jpg,AFSA08.jpg,AFNE06.jpg,AFSA14.jpg,FS,4,num_6,32,num_2,0.616807295155,,,2017_Oct_05_1032,60.0096429943,FEMA4ImagesEEG,001,201671,
AFNE01.JPG,AFNE01.JPG,AFNE01.JPG,AFNE01.JPG,AFNE01.JPG,AFNE01.JPG,1,0,10,8,,,,,,,,,,,,,,,,,,,,,,,AFSA05.jpg,AFSA03.jpg,AFNE18.jpg,AFNE14.jpg,AFSA05.jpg,FS,4,num_8,16,num_8,0.566800062486,,,2017_Oct_05_1032,60.0096429943,FEMA4ImagesEEG,001,201671,
AFNE01.JPG,AFNE01.JPG,AFNE01.JPG,AFNE01.JPG,AFNE01.JPG,AFNE01.JPG,1,1,11,3,,,,,,,,,,,,,,,,,,,,,,,AFSA07.jpg,AFNE01.jpg,AFSA17.jpg,AFNE16.jpg,AFNE16.jpg,FN,3,num_4,32,num_2,0.650123853819,,,2017_Oct_05_1032,60.0096429943,FEMA4ImagesEEG,001,201671,
AFNE01.JPG,AFNE01.JPG,AFNE01.JPG,AFNE01.JPG,AFNE01.JPG,AFNE01.JPG,1,2,12,2,,,,,,,,,,,,,,,,,,,,,,,AFNE02.jpg,AFSA15.jpg,AFNE07.jpg,AFSA10.jpg,AFSA15.jpg,FS,4,num_6,32,num_8,0.666725041374,,,2017_Oct_05_1032,60.0096429943,FEMA4ImagesEEG,001,201671,
AFNE01.JPG,AFNE01.JPG,AFNE01.JPG,AFNE01.JPG,AFNE01.JPG,AFNE01.JPG,1,3,13,1,,,,,,,,,,,,,,,,,,,,,,,AFSA01.jpg,AFNE16.jpg,AFNE03.jpg,AFSA19.jpg,AFNE16.jpg,FN,3,num_6,32,num_4,0.650165229279,,,2017_Oct_05_1032,60.0096429943,FEMA4ImagesEEG,001,201671,
AFNE01.JPG,AFNE01.JPG,AFNE01.JPG,AFNE01.JPG,AFNE01.JPG,AFNE01.JPG,1,4,14,0,,,,,,,,,,,,,,,,,,,,,,,AFNE18.jpg,AFSA13.jpg,AFNE20.jpg,AFSA19.jpg,AFNE18.jpg,FN,3,num_8,16,num_8,0.683451959078,,,2017_Oct_05_1032,60.0096429943,FEMA4ImagesEEG,001,201671,
AFNE01.JPG,AFNE01.JPG,AFNE01.JPG,AFNE01.JPG,AFNE01.JPG,AFNE01.JPG,1,5,15,7,,,,,,,,,,,,,,,,,,,,,,,AFSA01.jpg,AFSA02.jpg,AFNE03.jpg,AFNE09.jpg,AFSA01.jpg,FS,4,num_8,16,num_8,0.78348855552,,,2017_Oct_05_1032,60.0096429943,FEMA4ImagesEEG,001,201671,
AFNE01.JPG,AFNE01.JPG,AFNE01.JPG,AFNE01.JPG,AFNE01.JPG,AFNE01.JPG,1,6,16,4,,,,,,,,,,,,,,,,,,,,,,,AFNE04.jpg,AFNE15.jpg,AFSA02.jpg,AFSA03.jpg,AFSA02.jpg,FS,4,num_2,32,num_8,1.15008648759,,,2017_Oct_05_1032,60.0096429943,FEMA4ImagesEEG,001,201671,
AFNE01.JPG,AFNE01.JPG,AFNE01.JPG,AFNE01.JPG,AFNE01.JPG,AFNE01.JPG,1,7,17,6,,,,,,,,,,,,,,,,,,,,,,,AFSA14.jpg,AFSA02.jpg,AFNE05.jpg,AFNE09.jpg,AFNE05.jpg,FN,3,num_2,32,num_8,1.01680197089,,,2017_Oct_05_1032,60.0096429943,FEMA4ImagesEEG,001,201671,
AFNE01.JPG,AFNE01.JPG,AFNE01.JPG,AFNE01.JPG,AFNE01.JPG,AFNE01.JPG,1,8,18,9,,,,,,,,,,,,,,,,,,,,,,,AFSA04.jpg,AFSA09.jpg,AFNE18.jpg,AFNE17.jpg,AFSA09.jpg,FS,4,num_6,32,num_8,0.850114295725,,,2017_Oct_05_1032,60.0096429943,FEMA4ImagesEEG,001,201671,
AFNE01.JPG,AFNE01.JPG,AFNE01.JPG,AFNE01.JPG,AFNE01.JPG,AFNE01.JPG,1,9,19,5,,,,,,,,,,,,,,,,,,,,,,,AFSA20.jpg,AFNE01.jpg,AFNE06.jpg,AFSA02.jpg,AFSA20.jpg,FS,4,num_8,32,num_4,0.666790472344,,,2017_Oct_05_1032,60.0096429943,FEMA4ImagesEEG,001,201671,
AFNE01.JPG,AFNE01.JPG,AFNE01.JPG,AFNE01.JPG,AFNE01.JPG,AFNE01.JPG,2,0,20,3,,,,,,,,,,,,,,,,,,,,,,,AFNE04.jpg,AFSA19.jpg,AFSA13.jpg,AFNE09.jpg,AFSA13.jpg,FS,4,num_2,16,num_2,0.95018392842,,,2017_Oct_05_1032,60.0096429943,FEMA4ImagesEEG,001,201671,
AFNE01.JPG,AFNE01.JPG,AFNE01.JPG,AFNE01.JPG,AFNE01.JPG,AFNE01.JPG,2,1,21,4,,,,,,,,,,,,,,,,,,,,,,,AFNE12.jpg,AFNE08.jpg,AFSA18.jpg,AFSA15.jpg,AFNE12.jpg,FN,3,num_8,16,num_8,0.633479366312,,,2017_Oct_05_1032,60.0096429943,FEMA4ImagesEEG,001,201671,
AFNE01.JPG,AFNE01.JPG,AFNE01.JPG,AFNE01.JPG,AFNE01.JPG,AFNE01.JPG,2,2,22,1,,,,,,,,,,,,,,,,,,,,,,,AFNE16.jpg,AFSA03.jpg,AFNE11.jpg,AFSA09.jpg,AFNE16.jpg,FN,3,num_8,32,num_4,0.700153217564,,,2017_Oct_05_1032,60.0096429943,FEMA4ImagesEEG,001,201671,
AFNE01.JPG,AFNE01.JPG,AFNE01.JPG,AFNE01.JPG,AFNE01.JPG,AFNE01.JPG,2,3,23,5,,,,,,,,,,,,,,,,,,,,,,,AFSA18.jpg,AFNE18.jpg,AFNE05.jpg,AFSA12.jpg,AFSA12.jpg,FS,4,num_4,16,num_4,0.700153859041,,,2017_Oct_05_1032,60.0096429943,FEMA4ImagesEEG,001,201671,
AFNE01.JPG,AFNE01.JPG,AFNE01.JPG,AFNE01.JPG,AFNE01.JPG,AFNE01.JPG,2,4,24,2,,,,,,,,,,,,,,,,,,,,,,,AFNE03.jpg,AFSA05.jpg,AFNE20.jpg,AFSA02.jpg,AFSA02.jpg,FS,4,num_4,32,num_6,0.900102925516,,,2017_Oct_05_1032,60.0096429943,FEMA4ImagesEEG,001,201671,
AFNE01.JPG,AFNE01.JPG,AFNE01.JPG,AFNE01.JPG,AFNE01.JPG,AFNE01.JPG,2,5,25,8,,,,,,,,,,,,,,,,,,,,,,,AFNE11.jpg,AFNE05.jpg,AFSA03.jpg,AFSA06.jpg,AFSA06.jpg,FS,4,num_4,32,num_8,0.883439835103,,,2017_Oct_05_1032,60.0096429943,FEMA4ImagesEEG,001,201671,
AFNE01.JPG,AFNE01.JPG,AFNE01.JPG,AFNE01.JPG,AFNE01.JPG,AFNE01.JPG,2,6,26,9,,,,,,,,,,,,,,,,,,,,,,,AFNE12.jpg,AFSA10.jpg,AFSA01.jpg,AFNE08.jpg,AFNE08.jpg,FN,3,num_4,16,num_4,0.633374484285,,,2017_Oct_05_1032,60.0096429943,FEMA4ImagesEEG,001,201671,
AFNE01.JPG,AFNE01.JPG,AFNE01.JPG,AFNE01.JPG,AFNE01.JPG,AFNE01.JPG,2,7,27,7,,,,,,,,,,,,,,,,,,,,,,,AFSA04.jpg,AFSA11.jpg,AFNE10.jpg,AFNE07.jpg,AFNE07.jpg,FN,3,num_4,16,num_4,0.750118433265,,,2017_Oct_05_1032,60.0096429943,FEMA4ImagesEEG,001,201671,
AFNE01.JPG,AFNE01.JPG,AFNE01.JPG,AFNE01.JPG,AFNE01.JPG,AFNE01.JPG,2,8,28,0,,,,,,,,,,,,,,,,,,,,,,,AFSA14.jpg,AFNE12.jpg,AFSA13.jpg,AFNE01.jpg,AFNE12.jpg,FN,3,num_6,16,num_6,0.766529101238,,,2017_Oct_05_1032,60.0096429943,FEMA4ImagesEEG,001,201671,
AFNE01.JPG,AFNE01.JPG,AFNE01.JPG,AFNE01.JPG,AFNE01.JPG,AFNE01.JPG,2,9,29,6,,,,,,,,,,,,,,,,,,,,,,,AFNE15.jpg,AFSA17.jpg,AFSA12.jpg,AFNE14.jpg,AFSA17.jpg,FS,4,num_6,16,num_6,0.566790761019,,,2017_Oct_05_1032,60.0096429943,FEMA4ImagesEEG,001,201671,
AFNE01.JPG,AFNE01.JPG,AFNE01.JPG,AFNE01.JPG,AFNE01.JPG,AFNE01.JPG,3,0,30,4,,,,,,,,,,,,,,,,,,,,,,,AFNE06.jpg,AFSA13.jpg,AFNE08.jpg,AFSA11.jpg,AFNE08.jpg,FN,3,num_2,32,num_8,0.666837300407,,,2017_Oct_05_1032,60.0096429943,FEMA4ImagesEEG,001,201671,
AFNE01.JPG,AFNE01.JPG,AFNE01.JPG,AFNE01.JPG,AFNE01.JPG,AFNE01.JPG,3,1,31,6,,,,,,,,,,,,,,,,,,,,,,,AFNE14.jpg,AFSA19.jpg,AFSA20.jpg,AFNE06.jpg,AFNE14.jpg,FN,3,num_8,16,num_8,0.833463393443,,,2017_Oct_05_1032,60.0096429943,FEMA4ImagesEEG,001,201671,
AFNE01.JPG,AFNE01.JPG,AFNE01.JPG,AFNE01.JPG,AFNE01.JPG,AFNE01.JPG,3,2,32,1,,,,,,,,,,,,,,,,,,,,,,,AFNE20.jpg,AFSA11.jpg,AFSA17.jpg,AFNE05.jpg,AFNE20.jpg,FN,3,num_8,16,num_8,0.733519490896,,,2017_Oct_05_1032,60.0096429943,FEMA4ImagesEEG,001,201671,
AFNE01.JPG,AFNE01.JPG,AFNE01.JPG,AFNE01.JPG,AFNE01.JPG,AFNE01.JPG,3,3,33,5,,,,,,,,,,,,,,,,,,,,,,,AFNE01.jpg,AFSA03.jpg,AFNE13.jpg,AFSA07.jpg,AFNE01.jpg,FN,3,num_8,32,num_4,0.933483632136,,,2017_Oct_05_1032,60.0096429943,FEMA4ImagesEEG,001,201671,
AFNE01.JPG,AFNE01.JPG,AFNE01.JPG,AFNE01.JPG,AFNE01.JPG,AFNE01.JPG,3,4,34,9,,,,,,,,,,,,,,,,,,,,,,,AFNE11.jpg,AFSA17.jpg,AFSA15.jpg,AFNE01.jpg,AFNE11.jpg,FN,3,num_8,16,num_8,0.700220572966,,,2017_Oct_05_1032,60.0096429943,FEMA4ImagesEEG,001,201671,
AFNE01.JPG,AFNE01.JPG,AFNE01.JPG,AFNE01.JPG,AFNE01.JPG,AFNE01.JPG,3,5,35,3,,,,,,,,,,,,,,,,,,,,,,,AFNE19.jpg,AFSA14.jpg,AFSA10.jpg,AFNE01.jpg,AFNE19.jpg,FN,3,num_8,16,num_8,1.15007911055,,,2017_Oct_05_1032,60.0096429943,FEMA4ImagesEEG,001,201671,
AFNE01.JPG,AFNE01.JPG,AFNE01.JPG,AFNE01.JPG,AFNE01.JPG,AFNE01.JPG,3,6,36,0,,,,,,,,,,,,,,,,,,,,,,,AFNE09.jpg,AFSA08.jpg,AFNE01.jpg,AFSA20.jpg,AFNE09.jpg,FN,3,num_8,32,num_4,0.749773958407,,,2017_Oct_05_1032,60.0096429943,FEMA4ImagesEEG,001,201671,
AFNE01.JPG,AFNE01.JPG,AFNE01.JPG,AFNE01.JPG,AFNE01.JPG,AFNE01.JPG,3,7,37,2,,,,,,,,,,,,,,,,,,,,,,,AFNE13.jpg,AFNE19.jpg,AFSA08.jpg,AFSA03.jpg,AFNE19.jpg,FN,3,num_6,32,num_8,0.766631096601,,,2017_Oct_05_1032,60.0096429943,FEMA4ImagesEEG,001,201671,
AFNE01.JPG,AFNE01.JPG,AFNE01.JPG,AFNE01.JPG,AFNE01.JPG,AFNE01.JPG,3,8,38,8,,,,,,,,,,,,,,,,,,,,,,,AFSA20.jpg,AFNE08.jpg,AFNE09.jpg,AFSA05.jpg,AFSA05.jpg,FS,4,num_4,32,num_2,0.700071749568,,,2017_Oct_05_1032,60.0096429943,FEMA4ImagesEEG,001,201671,
AFNE01.JPG,AFNE01.JPG,AFNE01.JPG,AFNE01.JPG,AFNE01.JPG,AFNE01.JPG,3,9,39,7,,,,,,,,,,,,,,,,,,,,,,,AFNE13.jpg,AFNE18.jpg,AFSA18.jpg,AFSA15.jpg,AFNE13.jpg,FN,3,num_8,16,num_8,0.700143274618,,,2017_Oct_05_1032,60.0096429943,FEMA4ImagesEEG,001,201671,
AFNE01.JPG,AFNE01.JPG,AFNE01.JPG,AFNE01.JPG,AFNE01.JPG,AFNE01.JPG,4,0,40,0,,,,,,,,,,,,,,,,,,,,,,,AFNE04.jpg,AFSA01.jpg,AFSA04.jpg,AFNE17.jpg,AFSA01.jpg,FS,4,num_6,16,num_6,0.750177770213,,,2017_Oct_05_1032,60.0096429943,FEMA4ImagesEEG,001,201671,
AFNE01.JPG,AFNE01.JPG,AFNE01.JPG,AFNE01.JPG,AFNE01.JPG,AFNE01.JPG,4,1,41,5,,,,,,,,,,,,,,,,,,,,,,,AFNE10.jpg,AFSA01.jpg,AFNE14.jpg,AFSA02.jpg,AFSA01.jpg,FS,4,num_6,32,num_4,0.833435489069,,,2017_Oct_05_1032,60.0096429943,FEMA4ImagesEEG,001,201671,
AFNE01.JPG,AFNE01.JPG,AFNE01.JPG,AFNE01.JPG,AFNE01.JPG,AFNE01.JPG,4,2,42,7,,,,,,,,,,,,,,,,,,,,,,,AFSA15.jpg,AFNE08.jpg,AFSA12.jpg,AFNE10.jpg,AFSA12.jpg,FS,4,num_2,32,num_8,1.26674479895,,,2017_Oct_05_1032,60.0096429943,FEMA4ImagesEEG,001,201671,
AFNE01.JPG,AFNE01.JPG,AFNE01.JPG,AFNE01.JPG,AFNE01.JPG,AFNE01.JPG,4,3,43,3,,,,,,,,,,,,,,,,,,,,,,,AFSA19.jpg,AFSA18.jpg,AFNE04.jpg,AFNE20.jpg,AFNE20.jpg,FN,3,num_4,32,num_8,1.85033175754,,,2017_Oct_05_1032,60.0096429943,FEMA4ImagesEEG,001,201671,
AFNE01.JPG,AFNE01.JPG,AFNE01.JPG,AFNE01.JPG,AFNE01.JPG,AFNE01.JPG,4,4,44,4,,,,,,,,,,,,,,,,,,,,,,,AFNE03.jpg,AFSA04.jpg,AFSA15.jpg,AFNE19.jpg,AFSA15.jpg,FS,4,num_2,32,num_4,0.666747813899,,,2017_Oct_05_1032,60.0096429943,FEMA4ImagesEEG,001,201671,
AFNE01.JPG,AFNE01.JPG,AFNE01.JPG,AFNE01.JPG,AFNE01.JPG,AFNE01.JPG,4,5,45,8,,,,,,,,,,,,,,,,,,,,,,,AFNE20.jpg,AFSA03.jpg,AFSA17.jpg,AFNE10.jpg,AFSA03.jpg,FS,4,num_6,32,num_4,0.733467531012,,,2017_Oct_05_1032,60.0096429943,FEMA4ImagesEEG,001,201671,
AFNE01.JPG,AFNE01.JPG,AFNE01.JPG,AFNE01.JPG,AFNE01.JPG,AFNE01.JPG,4,6,46,1,,,,,,,,,,,,,,,,,,,,,,,AFNE01.jpg,AFSA10.jpg,AFSA19.jpg,AFNE11.jpg,AFNE11.jpg,FN,3,num_4,32,num_8,0.833463714196,,,2017_Oct_05_1032,60.0096429943,FEMA4ImagesEEG,001,201671,
AFNE01.JPG,AFNE01.JPG,AFNE01.JPG,AFNE01.JPG,AFNE01.JPG,AFNE01.JPG,4,7,47,2,,,,,,,,,,,,,,,,,,,,,,,AFSA08.jpg,AFNE08.jpg,AFSA11.jpg,AFNE02.jpg,AFNE02.jpg,FN,3,num_4,32,num_8,0.666779887921,,,2017_Oct_05_1032,60.0096429943,FEMA4ImagesEEG,001,201671,
AFNE01.JPG,AFNE01.JPG,AFNE01.JPG,AFNE01.JPG,AFNE01.JPG,AFNE01.JPG,4,8,48,9,,,,,,,,,,,,,,,,,,,,,,,AFSA03.jpg,AFSA13.jpg,AFNE01.jpg,AFNE10.jpg,AFNE10.jpg,FN,3,num_4,16,num_4,0.666820621933,,,2017_Oct_05_1032,60.0096429943,FEMA4ImagesEEG,001,201671,
AFNE01.JPG,AFNE01.JPG,AFNE01.JPG,AFNE01.JPG,AFNE01.JPG,AFNE01.JPG,4,9,49,6,,,,,,,,,,,,,,,,,,,,,,,AFSA05.jpg,AFSA08.jpg,AFNE05.jpg,AFNE11.jpg,AFSA08.jpg,FS,4,num_6,32,num_8,0.833444790536,,,2017_Oct_05_1032,60.0096429943,FEMA4ImagesEEG,001,201671,
AFNE01.JPG,AFNE01.JPG,AFNE01.JPG,AFNE01.JPG,AFNE01.JPG,AFNE01.JPG,5,0,50,8,,,,,,,,,,,,,,,,,,,,,,,AFSA01.jpg,AFNE03.jpg,AFNE20.jpg,AFSA18.jpg,AFSA18.jpg,FS,4,num_4,16,num_4,0.683504560438,,,2017_Oct_05_1032,60.0096429943,FEMA4ImagesEEG,001,201671,
AFNE01.JPG,AFNE01.JPG,AFNE01.JPG,AFNE01.JPG,AFNE01.JPG,AFNE01.JPG,5,1,51,4,,,,,,,,,,,,,,,,,,,,,,,AFNE20.jpg,AFSA02.jpg,AFSA03.jpg,AFNE04.jpg,AFSA02.jpg,FS,4,num_6,32,num_8,1.08317881677,,,2017_Oct_05_1032,60.0096429943,FEMA4ImagesEEG,001,201671,
AFNE01.JPG,AFNE01.JPG,AFNE01.JPG,AFNE01.JPG,AFNE01.JPG,AFNE01.JPG,5,2,52,1,,,,,,,,,,,,,,,,,,,,,,,AFSA12.jpg,AFNE15.jpg,AFSA09.jpg,AFNE08.jpg,AFSA09.jpg,FS,4,num_2,32,num_8,0.716860890854,,,2017_Oct_05_1032,60.0096429943,FEMA4ImagesEEG,001,201671,
AFNE01.JPG,AFNE01.JPG,AFNE01.JPG,AFNE01.JPG,AFNE01.JPG,AFNE01.JPG,5,3,53,7,,,,,,,,,,,,,,,,,,,,,,,AFNE17.jpg,AFSA12.jpg,AFNE02.jpg,AFSA14.jpg,AFSA14.jpg,FS,4,num_4,32,num_2,0.750147941377,,,2017_Oct_05_1032,60.0096429943,FEMA4ImagesEEG,001,201671,
AFNE01.JPG,AFNE01.JPG,AFNE01.JPG,AFNE01.JPG,AFNE01.JPG,AFNE01.JPG,5,4,54,2,,,,,,,,,,,,,,,,,,,,,,,AFNE02.jpg,AFSA07.jpg,AFSA01.jpg,AFNE17.jpg,AFSA07.jpg,FS,4,num_6,32,num_8,0.80014266519,,,2017_Oct_05_1032,60.0096429943,FEMA4ImagesEEG,001,201671,
AFNE01.JPG,AFNE01.JPG,AFNE01.JPG,AFNE01.JPG,AFNE01.JPG,AFNE01.JPG,5,5,55,3,,,,,,,,,,,,,,,,,,,,,,,AFSA04.jpg,AFNE03.jpg,AFSA09.jpg,AFNE17.jpg,AFNE17.jpg,FN,3,num_4,32,num_6,0.650125778222,,,2017_Oct_05_1032,60.0096429943,FEMA4ImagesEEG,001,201671,
AFNE01.JPG,AFNE01.JPG,AFNE01.JPG,AFNE01.JPG,AFNE01.JPG,AFNE01.JPG,5,6,56,0,,,,,,,,,,,,,,,,,,,,,,,AFSA01.jpg,AFSA14.jpg,AFNE08.jpg,AFNE19.jpg,AFSA01.jpg,FS,4,num_8,16,num_8,0.716776536196,,,2017_Oct_05_1032,60.0096429943,FEMA4ImagesEEG,001,201671,
AFNE01.JPG,AFNE01.JPG,AFNE01.JPG,AFNE01.JPG,AFNE01.JPG,AFNE01.JPG,5,7,57,9,,,,,,,,,,,,,,,,,,,,,,,AFNE17.jpg,AFNE13.jpg,AFSA20.jpg,AFSA15.jpg,AFNE17.jpg,FN,3,num_8,16,num_8,0.783505875472,,,2017_Oct_05_1032,60.0096429943,FEMA4ImagesEEG,001,201671,
AFNE01.JPG,AFNE01.JPG,AFNE01.JPG,AFNE01.JPG,AFNE01.JPG,AFNE01.JPG,5,8,58,5,,,,,,,,,,,,,,,,,,,,,,,AFNE20.jpg,AFSA08.jpg,AFSA05.jpg,AFNE17.jpg,AFNE20.jpg,FN,3,num_8,16,num_8,0.616851236555,,,2017_Oct_05_1032,60.0096429943,FEMA4ImagesEEG,001,201671,
AFNE01.JPG,AFNE01.JPG,AFNE01.JPG,AFNE01.JPG,AFNE01.JPG,AFNE01.JPG,5,9,59,6,,,,,,,,,,,,,,,,,,,,,,,AFNE04.jpg,AFNE14.jpg,AFSA02.jpg,AFSA09.jpg,AFNE14.jpg,FN,3,num_6,32,num_8,0.783468028152,,,2017_Oct_05_1032,60.0096429943,FEMA4ImagesEEG,001,201671,
,,,,,,,,,,,,,,,,,,,,,,,,,,,,,,,,,,,,,,,,,,,space,1.35006923173,2017_Oct_05_1032,60.0096429943,FEMA4ImagesEEG,001,201671,
AFNE01.JPG,AFNE01.JPG,AFNE01.JPG,AFNE01.JPG,AFNE01.JPG,AFNE01.JPG,,,,,0,0,0,2,,,,,,,,,,,,,,,,,,,AMNE01.jpg,AMSA13.jpg,AMSA10.jpg,AMNE10.jpg,AMSA13.jpg,MS,2,num_6,32,num_4,0.733797251829,,,2017_Oct_05_1032,60.0096429943,FEMA4ImagesEEG,001,201671,
AFNE01.JPG,AFNE01.JPG,AFNE01.JPG,AFNE01.JPG,AFNE01.JPG,AFNE01.JPG,,,,,0,1,1,9,,,,,,,,,,,,,,,,,,,AMSA03.jpg,AMSA01.jpg,AMNE15.jpg,AMNE10.jpg,AMSA01.jpg,MS,2,num_6,32,num_8,0.633338240674,,,2017_Oct_05_1032,60.0096429943,FEMA4ImagesEEG,001,201671,
AFNE01.JPG,AFNE01.JPG,AFNE01.JPG,AFNE01.JPG,AFNE01.JPG,AFNE01.JPG,,,,,0,2,2,0,,,,,,,,,,,,,,,,,,,AMSA07.jpg,AMSA17.jpg,AMNE05.jpg,AMNE10.jpg,AMSA07.jpg,MS,2,num_8,16,num_8,0.900096831436,,,2017_Oct_05_1032,60.0096429943,FEMA4ImagesEEG,001,201671,
AFNE01.JPG,AFNE01.JPG,AFNE01.JPG,AFNE01.JPG,AFNE01.JPG,AFNE01.JPG,,,,,0,3,3,6,,,,,,,,,,,,,,,,,,,AMSA15.jpg,AMSA18.jpg,AMNE05.jpg,AMNE10.jpg,AMNE10.jpg,MN,1,num_4,16,num_4,0.666783095337,,,2017_Oct_05_1032,60.0096429943,FEMA4ImagesEEG,001,201671,
AFNE01.JPG,AFNE01.JPG,AFNE01.JPG,AFNE01.JPG,AFNE01.JPG,AFNE01.JPG,,,,,0,4,4,7,,,,,,,,,,,,,,,,,,,AMNE04.jpg,AMSA12.jpg,AMNE06.jpg,AMSA15.jpg,AMNE04.jpg,MN,1,num_8,32,num_2,0.666794321238,,,2017_Oct_05_1032,60.0096429943,FEMA4ImagesEEG,001,201671,
AFNE01.JPG,AFNE01.JPG,AFNE01.JPG,AFNE01.JPG,AFNE01.JPG,AFNE01.JPG,,,,,0,5,5,8,,,,,,,,,,,,,,,,,,,AMSA07.jpg,AMSA18.jpg,AMNE20.jpg,AMNE15.jpg,AMNE15.jpg,MN,1,num_4,16,num_4,0.816735834291,,,2017_Oct_05_1032,60.0096429943,FEMA4ImagesEEG,001,201671,
AFNE01.JPG,AFNE01.JPG,AFNE01.JPG,AFNE01.JPG,AFNE01.JPG,AFNE01.JPG,,,,,0,6,6,4,,,,,,,,,,,,,,,,,,,AMSA09.jpg,AMNE12.jpg,AMNE10.jpg,AMSA20.jpg,AMNE10.jpg,MN,1,num_2,16,num_2,0.48349230818,,,2017_Oct_05_1032,60.0096429943,FEMA4ImagesEEG,001,201671,
AFNE01.JPG,AFNE01.JPG,AFNE01.JPG,AFNE01.JPG,AFNE01.JPG,AFNE01.JPG,,,,,0,7,7,3,,,,,,,,,,,,,,,,,,,AMSA06.jpg,AMSA13.jpg,AMNE12.jpg,AMNE07.jpg,AMSA13.jpg,MS,2,num_6,16,num_6,0.883479286131,,,2017_Oct_05_1032,60.0096429943,FEMA4ImagesEEG,001,201671,
AFNE01.JPG,AFNE01.JPG,AFNE01.JPG,AFNE01.JPG,AFNE01.JPG,AFNE01.JPG,,,,,0,8,8,5,,,,,,,,,,,,,,,,,,,AMNE07.jpg,AMSA15.jpg,AMSA02.jpg,AMNE11.jpg,AMNE11.jpg,MN,1,num_4,32,num_2,0.483463441546,,,2017_Oct_05_1032,60.0096429943,FEMA4ImagesEEG,001,201671,
AFNE01.JPG,AFNE01.JPG,AFNE01.JPG,AFNE01.JPG,AFNE01.JPG,AFNE01.JPG,,,,,0,9,9,1,,,,,,,,,,,,,,,,,,,AMNE01.jpg,AMSA12.jpg,AMSA13.jpg,AMNE07.jpg,AMSA12.jpg,MS,2,num_6,16,num_6,0.700144878298,,,2017_Oct_05_1032,60.0096429943,FEMA4ImagesEEG,001,201671,
AFNE01.JPG,AFNE01.JPG,AFNE01.JPG,AFNE01.JPG,AFNE01.JPG,AFNE01.JPG,,,,,1,0,10,4,,,,,,,,,,,,,,,,,,,AMNE17.jpg,AMSA15.jpg,AMSA17.jpg,AMNE12.jpg,AMNE17.jpg,MN,1,num_8,32,num_2,0.666808754526,,,2017_Oct_05_1032,60.0096429943,FEMA4ImagesEEG,001,201671,
AFNE01.JPG,AFNE01.JPG,AFNE01.JPG,AFNE01.JPG,AFNE01.JPG,AFNE01.JPG,,,,,1,1,11,1,,,,,,,,,,,,,,,,,,,AMSA04.jpg,AMSA12.jpg,AMNE05.jpg,AMNE11.jpg,AMSA04.jpg,MS,2,num_8,32,num_6,0.783454557066,,,2017_Oct_05_1032,60.0096429943,FEMA4ImagesEEG,001,201671,
AFNE01.JPG,AFNE01.JPG,AFNE01.JPG,AFNE01.JPG,AFNE01.JPG,AFNE01.JPG,,,,,1,2,12,5,,,,,,,,,,,,,,,,,,,AMSA11.jpg,AMNE08.jpg,AMSA18.jpg,AMNE18.jpg,AMSA11.jpg,MS,2,num_8,16,num_8,0.650167795189,,,2017_Oct_05_1032,60.0096429943,FEMA4ImagesEEG,001,201671,
AFNE01.JPG,AFNE01.JPG,AFNE01.JPG,AFNE01.JPG,AFNE01.JPG,AFNE01.JPG,,,,,1,3,13,7,,,,,,,,,,,,,,,,,,,AMSA16.jpg,AMNE17.jpg,AMNE16.jpg,AMSA03.jpg,AMNE17.jpg,MN,1,num_6,16,num_6,0.75007930299,,,2017_Oct_05_1032,60.0096429943,FEMA4ImagesEEG,001,201671,
AFNE01.JPG,AFNE01.JPG,AFNE01.JPG,AFNE01.JPG,AFNE01.JPG,AFNE01.JPG,,,,,1,4,14,6,,,,,,,,,,,,,,,,,,,AMNE14.jpg,AMNE15.jpg,AMSA01.jpg,AMSA08.jpg,AMSA08.jpg,MS,2,num_4,16,num_4,0.783458405931,,,2017_Oct_05_1032,60.0096429943,FEMA4ImagesEEG,001,201671,
AFNE01.JPG,AFNE01.JPG,AFNE01.JPG,AFNE01.JPG,AFNE01.JPG,AFNE01.JPG,,,,,1,5,15,2,,,,,,,,,,,,,,,,,,,AMSA10.jpg,AMNE12.jpg,AMSA08.jpg,AMNE04.jpg,AMNE04.jpg,MN,1,num_4,16,num_4,0.900162583159,,,2017_Oct_05_1032,60.0096429943,FEMA4ImagesEEG,001,201671,
AFNE01.JPG,AFNE01.JPG,AFNE01.JPG,AFNE01.JPG,AFNE01.JPG,AFNE01.JPG,,,,,1,6,16,9,,,,,,,,,,,,,,,,,,,AMSA03.jpg,AMNE14.jpg,AMNE10.jpg,AMSA07.jpg,AMNE14.jpg,MN,1,num_6,32,num_4,0.700089069549,,,2017_Oct_05_1032,60.0096429943,FEMA4ImagesEEG,001,201671,
AFNE01.JPG,AFNE01.JPG,AFNE01.JPG,AFNE01.JPG,AFNE01.JPG,AFNE01.JPG,,,,,1,7,17,0,,,,,,,,,,,,,,,,,,,AMSA05.jpg,AMNE13.jpg,AMSA16.jpg,AMNE18.jpg,AMNE13.jpg,MN,1,num_6,16,num_6,0.500133588241,,,2017_Oct_05_1032,60.0096429943,FEMA4ImagesEEG,001,201671,
AFNE01.JPG,AFNE01.JPG,AFNE01.JPG,AFNE01.JPG,AFNE01.JPG,AFNE01.JPG,,,,,1,8,18,3,,,,,,,,,,,,,,,,,,,AMNE04.jpg,AMSA04.jpg,AMNE08.jpg,AMSA10.jpg,AMNE08.jpg,MN,1,num_2,16,num_2,0.733461436932,,,2017_Oct_05_1032,60.0096429943,FEMA4ImagesEEG,001,201671,
AFNE01.JPG,AFNE01.JPG,AFNE01.JPG,AFNE01.JPG,AFNE01.JPG,AFNE01.JPG,,,,,1,9,19,8,,,,,,,,,,,,,,,,,,,AMNE08.jpg,AMSA04.jpg,AMSA15.jpg,AMNE10.jpg,AMNE08.jpg,MN,1,num_8,16,num_8,0.483499685186,,,2017_Oct_05_1032,60.0096429943,FEMA4ImagesEEG,001,201671,
AFNE01.JPG,AFNE01.JPG,AFNE01.JPG,AFNE01.JPG,AFNE01.JPG,AFNE01.JPG,,,,,2,0,20,7,,,,,,,,,,,,,,,,,,,AMNE15.jpg,AMSA06.jpg,AMSA10.jpg,AMNE16.jpg,AMSA06.jpg,MS,2,num_6,16,num_6,0.733436098468,,,2017_Oct_05_1032,60.0096429943,FEMA4ImagesEEG,001,201671,
AFNE01.JPG,AFNE01.JPG,AFNE01.JPG,AFNE01.JPG,AFNE01.JPG,AFNE01.JPG,,,,,2,1,21,9,,,,,,,,,,,,,,,,,,,AMSA20.jpg,AMSA11.jpg,AMNE04.jpg,AMNE18.jpg,AMNE18.jpg,MN,1,num_4,16,num_4,0.550159744627,,,2017_Oct_05_1032,60.0096429943,FEMA4ImagesEEG,001,201671,
AFNE01.JPG,AFNE01.JPG,AFNE01.JPG,AFNE01.JPG,AFNE01.JPG,AFNE01.JPG,,,,,2,2,22,1,,,,,,,,,,,,,,,,,,,AMSA01.jpg,AMSA13.jpg,AMNE05.jpg,AMNE02.jpg,AMNE02.jpg,MN,1,num_4,16,num_4,0.833468846016,,,2017_Oct_05_1032,60.0096429943,FEMA4ImagesEEG,001,201671,
AFNE01.JPG,AFNE01.JPG,AFNE01.JPG,AFNE01.JPG,AFNE01.JPG,AFNE01.JPG,,,,,2,3,23,2,,,,,,,,,,,,,,,,,,,AMNE10.jpg,AMNE17.jpg,AMSA04.jpg,AMSA13.jpg,AMNE17.jpg,MN,1,num_6,32,num_4,0.683476656035,,,2017_Oct_05_1032,60.0096429943,FEMA4ImagesEEG,001,201671,
AFNE01.JPG,AFNE01.JPG,AFNE01.JPG,AFNE01.JPG,AFNE01.JPG,AFNE01.JPG,,,,,2,4,24,0,,,,,,,,,,,,,,,,,,,AMSA16.jpg,AMNE13.jpg,AMNE18.jpg,AMSA10.jpg,AMNE18.jpg,MN,1,num_2,32,num_6,0.733503133146,,,2017_Oct_05_1032,60.0096429943,FEMA4ImagesEEG,001,201671,
AFNE01.JPG,AFNE01.JPG,AFNE01.JPG,AFNE01.JPG,AFNE01.JPG,AFNE01.JPG,,,,,2,5,25,8,,,,,,,,,,,,,,,,,,,AMNE17.jpg,AMNE10.jpg,AMSA13.jpg,AMSA04.jpg,AMNE10.jpg,MN,1,num_6,32,num_8,0.683519635233,,,2017_Oct_05_1032,60.0096429943,FEMA4ImagesEEG,001,201671,
AFNE01.JPG,AFNE01.JPG,AFNE01.JPG,AFNE01.JPG,AFNE01.JPG,AFNE01.JPG,,,,,2,6,26,4,,,,,,,,,,,,,,,,,,,AMNE13.jpg,AMSA09.jpg,AMNE12.jpg,AMSA12.jpg,AMNE13.jpg,MN,1,num_8,16,num_8,0.516528860666,,,2017_Oct_05_1032,60.0096429943,FEMA4ImagesEEG,001,201671,
AFNE01.JPG,AFNE01.JPG,AFNE01.JPG,AFNE01.JPG,AFNE01.JPG,AFNE01.JPG,,,,,2,7,27,5,,,,,,,,,,,,,,,,,,,AMSA12.jpg,AMNE09.jpg,AMNE11.jpg,AMSA02.jpg,AMSA02.jpg,MS,2,num_4,16,num_4,0.450029812811,,,2017_Oct_05_1032,60.0096429943,FEMA4ImagesEEG,001,201671,
AFNE01.JPG,AFNE01.JPG,AFNE01.JPG,AFNE01.JPG,AFNE01.JPG,AFNE01.JPG,,,,,2,8,28,3,,,,,,,,,,,,,,,,,,,AMSA15.jpg,AMSA20.jpg,AMNE08.jpg,AMNE16.jpg,AMSA20.jpg,MS,2,num_6,16,num_6,0.716797384317,,,2017_Oct_05_1032,60.0096429943,FEMA4ImagesEEG,001,201671,
AFNE01.JPG,AFNE01.JPG,AFNE01.JPG,AFNE01.JPG,AFNE01.JPG,AFNE01.JPG,,,,,2,9,29,6,,,,,,,,,,,,,,,,,,,AMNE01.jpg,AMSA19.jpg,AMNE12.jpg,AMSA20.jpg,AMNE01.jpg,MN,1,num_8,32,num_6,0.666767699789,,,2017_Oct_05_1032,60.0096429943,FEMA4ImagesEEG,001,201671,
AFNE01.JPG,AFNE01.JPG,AFNE01.JPG,AFNE01.JPG,AFNE01.JPG,AFNE01.JPG,,,,,3,0,30,3,,,,,,,,,,,,,,,,,,,AMNE11.jpg,AMSA04.jpg,AMSA20.jpg,AMNE08.jpg,AMNE11.jpg,MN,1,num_8,32,num_4,1.00011707013,,,2017_Oct_05_1032,60.0096429943,FEMA4ImagesEEG,001,201671,
AFNE01.JPG,AFNE01.JPG,AFNE01.JPG,AFNE01.JPG,AFNE01.JPG,AFNE01.JPG,,,,,3,1,31,1,,,,,,,,,,,,,,,,,,,AMNE01.jpg,AMNE04.jpg,AMSA05.jpg,AMSA16.jpg,AMSA16.jpg,MS,2,num_4,16,num_4,0.633503742545,,,2017_Oct_05_1032,60.0096429943,FEMA4ImagesEEG,001,201671,
AFNE01.JPG,AFNE01.JPG,AFNE01.JPG,AFNE01.JPG,AFNE01.JPG,AFNE01.JPG,,,,,3,2,32,2,,,,,,,,,,,,,,,,,,,AMNE12.jpg,AMSA19.jpg,AMSA18.jpg,AMNE13.jpg,AMSA19.jpg,MS,2,num_6,16,num_6,0.800311053754,,,2017_Oct_05_1032,60.0096429943,FEMA4ImagesEEG,001,201671,
AFNE01.JPG,AFNE01.JPG,AFNE01.JPG,AFNE01.JPG,AFNE01.JPG,AFNE01.JPG,,,,,3,3,33,8,,,,,,,,,,,,,,,,,,,AMNE15.jpg,AMSA03.jpg,AMNE17.jpg,AMSA19.jpg,AMSA19.jpg,MS,2,num_4,16,num_4,0.933419484121,,,2017_Oct_05_1032,60.0096429943,FEMA4ImagesEEG,001,201671,
AFNE01.JPG,AFNE01.JPG,AFNE01.JPG,AFNE01.JPG,AFNE01.JPG,AFNE01.JPG,,,,,3,4,34,0,,,,,,,,,,,,,,,,,,,AMNE10.jpg,AMSA20.jpg,AMSA12.jpg,AMNE07.jpg,AMNE07.jpg,MN,1,num_4,16,num_4,0.616758542659,,,2017_Oct_05_1032,60.0096429943,FEMA4ImagesEEG,001,201671,
AFNE01.JPG,AFNE01.JPG,AFNE01.JPG,AFNE01.JPG,AFNE01.JPG,AFNE01.JPG,,,,,3,5,35,9,,,,,,,,,,,,,,,,,,,AMSA07.jpg,AMNE09.jpg,AMNE10.jpg,AMSA16.jpg,AMSA07.jpg,MS,2,num_8,32,num_4,0.73347330431,,,2017_Oct_05_1032,60.0096429943,FEMA4ImagesEEG,001,201671,
AFNE01.JPG,AFNE01.JPG,AFNE01.JPG,AFNE01.JPG,AFNE01.JPG,AFNE01.JPG,,,,,3,6,36,5,,,,,,,,,,,,,,,,,,,AMNE08.jpg,AMNE05.jpg,AMSA07.jpg,AMSA11.jpg,AMNE08.jpg,MN,1,num_8,16,num_8,0.766677283158,,,2017_Oct_05_1032,60.0096429943,FEMA4ImagesEEG,001,201671,
AFNE01.JPG,AFNE01.JPG,AFNE01.JPG,AFNE01.JPG,AFNE01.JPG,AFNE01.JPG,,,,,3,7,37,6,,,,,,,,,,,,,,,,,,,AMSA04.jpg,AMNE14.jpg,AMSA08.jpg,AMNE06.jpg,AMSA08.jpg,MS,2,num_2,32,num_4,0.750139922893,,,2017_Oct_05_1032,60.0096429943,FEMA4ImagesEEG,001,201671,
AFNE01.JPG,AFNE01.JPG,AFNE01.JPG,AFNE01.JPG,AFNE01.JPG,AFNE01.JPG,,,,,3,8,38,7,,,,,,,,,,,,,,,,,,,AMNE18.jpg,AMNE02.jpg,AMSA14.jpg,AMSA06.jpg,AMNE02.jpg,MN,1,num_6,32,num_8,0.733503133175,,,2017_Oct_05_1032,60.0096429943,FEMA4ImagesEEG,001,201671,
AFNE01.JPG,AFNE01.JPG,AFNE01.JPG,AFNE01.JPG,AFNE01.JPG,AFNE01.JPG,,,,,3,9,39,4,,,,,,,,,,,,,,,,,,,AMSA10.jpg,AMSA19.jpg,AMNE11.jpg,AMNE14.jpg,AMNE14.jpg,MN,1,num_4,16,num_4,0.633500535158,,,2017_Oct_05_1032,60.0096429943,FEMA4ImagesEEG,001,201671,
AFNE01.JPG,AFNE01.JPG,AFNE01.JPG,AFNE01.JPG,AFNE01.JPG,AFNE01.JPG,,,,,4,0,40,7,,,,,,,,,,,,,,,,,,,AMSA17.jpg,AMNE11.jpg,AMNE04.jpg,AMSA18.jpg,AMSA17.jpg,MS,2,num_8,32,num_2,0.766755223012,,,2017_Oct_05_1032,60.0096429943,FEMA4ImagesEEG,001,201671,
AFNE01.JPG,AFNE01.JPG,AFNE01.JPG,AFNE01.JPG,AFNE01.JPG,AFNE01.JPG,,,,,4,1,41,0,,,,,,,,,,,,,,,,,,,AMNE12.jpg,AMSA06.jpg,AMSA14.jpg,AMNE16.jpg,AMNE16.jpg,MN,1,num_4,32,num_8,0.750140243617,,,2017_Oct_05_1032,60.0096429943,FEMA4ImagesEEG,001,201671,
AFNE01.JPG,AFNE01.JPG,AFNE01.JPG,AFNE01.JPG,AFNE01.JPG,AFNE01.JPG,,,,,4,2,42,1,,,,,,,,,,,,,,,,,,,AMNE02.jpg,AMNE07.jpg,AMSA11.jpg,AMSA10.jpg,AMSA11.jpg,MS,2,num_2,32,num_4,0.683508409333,,,2017_Oct_05_1032,60.0096429943,FEMA4ImagesEEG,001,201671,
AFNE01.JPG,AFNE01.JPG,AFNE01.JPG,AFNE01.JPG,AFNE01.JPG,AFNE01.JPG,,,,,4,3,43,6,,,,,,,,,,,,,,,,,,,AMNE16.jpg,AMSA11.jpg,AMSA09.jpg,AMNE03.jpg,AMNE03.jpg,MN,1,num_4,32,num_6,1.36674803845,,,2017_Oct_05_1032,60.0096429943,FEMA4ImagesEEG,001,201671,
AFNE01.JPG,AFNE01.JPG,AFNE01.JPG,AFNE01.JPG,AFNE01.JPG,AFNE01.JPG,,,,,4,4,44,4,,,,,,,,,,,,,,,,,,,AMSA09.jpg,AMNE13.jpg,AMSA01.jpg,AMNE11.jpg,AMSA09.jpg,MS,2,num_8,16,num_8,0.700110879872,,,2017_Oct_05_1032,60.0096429943,FEMA4ImagesEEG,001,201671,
AFNE01.JPG,AFNE01.JPG,AFNE01.JPG,AFNE01.JPG,AFNE01.JPG,AFNE01.JPG,,,,,4,5,45,9,,,,,,,,,,,,,,,,,,,AMSA15.jpg,AMNE15.jpg,AMSA20.jpg,AMNE18.jpg,AMNE18.jpg,MN,1,num_4,16,num_4,0.616767202679,,,2017_Oct_05_1032,60.0096429943,FEMA4ImagesEEG,001,201671,
AFNE01.JPG,AFNE01.JPG,AFNE01.JPG,AFNE01.JPG,AFNE01.JPG,AFNE01.JPG,,,,,4,6,46,8,,,,,,,,,,,,,,,,,,,AMNE17.jpg,AMSA08.jpg,AMNE03.jpg,AMSA20.jpg,AMNE17.jpg,MN,1,num_8,16,num_8,0.833415603178,,,2017_Oct_05_1032,60.0096429943,FEMA4ImagesEEG,001,201671,
AFNE01.JPG,AFNE01.JPG,AFNE01.JPG,AFNE01.JPG,AFNE01.JPG,AFNE01.JPG,,,,,4,7,47,2,,,,,,,,,,,,,,,,,,,AMSA11.jpg,AMSA03.jpg,AMNE03.jpg,AMNE07.jpg,AMNE07.jpg,MN,1,num_4,16,num_4,0.666819338978,,,2017_Oct_05_1032,60.0096429943,FEMA4ImagesEEG,001,201671,
AFNE01.JPG,AFNE01.JPG,AFNE01.JPG,AFNE01.JPG,AFNE01.JPG,AFNE01.JPG,,,,,4,8,48,5,,,,,,,,,,,,,,,,,,,AMNE15.jpg,AMSA20.jpg,AMSA16.jpg,AMNE16.jpg,AMNE15.jpg,MN,1,num_8,32,num_4,0.616844180302,,,2017_Oct_05_1032,60.0096429943,FEMA4ImagesEEG,001,201671,
AFNE01.JPG,AFNE01.JPG,AFNE01.JPG,AFNE01.JPG,AFNE01.JPG,AFNE01.JPG,,,,,4,9,49,3,,,,,,,,,,,,,,,,,,,AMNE06.jpg,AMSA05.jpg,AMSA03.jpg,AMNE16.jpg,AMNE06.jpg,MN,1,num_8,16,num_8,0.700096125831,,,2017_Oct_05_1032,60.0096429943,FEMA4ImagesEEG,001,201671,
AFNE01.JPG,AFNE01.JPG,AFNE01.JPG,AFNE01.JPG,AFNE01.JPG,AFNE01.JPG,,,,,5,0,50,2,,,,,,,,,,,,,,,,,,,AMSA19.jpg,AMSA05.jpg,AMNE07.jpg,AMNE05.jpg,AMNE07.jpg,MN,1,num_2,16,num_2,0.450143996277,,,2017_Oct_05_1032,60.0096429943,FEMA4ImagesEEG,001,201671,
AFNE01.JPG,AFNE01.JPG,AFNE01.JPG,AFNE01.JPG,AFNE01.JPG,AFNE01.JPG,,,,,5,1,51,9,,,,,,,,,,,,,,,,,,,AMSA04.jpg,AMNE18.jpg,AMNE04.jpg,AMSA16.jpg,AMNE04.jpg,MN,1,num_2,32,num_8,0.666805226385,,,2017_Oct_05_1032,60.0096429943,FEMA4ImagesEEG,001,201671,
AFNE01.JPG,AFNE01.JPG,AFNE01.JPG,AFNE01.JPG,AFNE01.JPG,AFNE01.JPG,,,,,5,2,52,1,,,,,,,,,,,,,,,,,,,AMSA17.jpg,AMNE12.jpg,AMNE13.jpg,AMSA01.jpg,AMSA17.jpg,MS,2,num_8,16,num_8,0.58349939654,,,2017_Oct_05_1032,60.0096429943,FEMA4ImagesEEG,001,201671,
AFNE01.JPG,AFNE01.JPG,AFNE01.JPG,AFNE01.JPG,AFNE01.JPG,AFNE01.JPG,,,,,5,3,53,0,,,,,,,,,,,,,,,,,,,AMNE11.jpg,AMSA08.jpg,AMNE10.jpg,AMSA13.jpg,AMNE10.jpg,MN,1,num_2,16,num_2,0.866759424709,,,2017_Oct_05_1032,60.0096429943,FEMA4ImagesEEG,001,201671,
AFNE01.JPG,AFNE01.JPG,AFNE01.JPG,AFNE01.JPG,AFNE01.JPG,AFNE01.JPG,,,,,5,4,54,7,,,,,,,,,,,,,,,,,,,AMNE19.jpg,AMNE14.jpg,AMSA03.jpg,AMSA07.jpg,AMNE14.jpg,MN,1,num_6,32,num_8,0.68347890125,,,2017_Oct_05_1032,60.0096429943,FEMA4ImagesEEG,001,201671,
AFNE01.JPG,AFNE01.JPG,AFNE01.JPG,AFNE01.JPG,AFNE01.JPG,AFNE01.JPG,,,,,5,5,55,8,,,,,,,,,,,,,,,,,,,AMSA11.jpg,AMNE07.jpg,AMSA17.jpg,AMNE03.jpg,AMNE07.jpg,MN,1,num_6,32,num_8,0.650124815991,,,2017_Oct_05_1032,60.0096429943,FEMA4ImagesEEG,001,201671,
AFNE01.JPG,AFNE01.JPG,AFNE01.JPG,AFNE01.JPG,AFNE01.JPG,AFNE01.JPG,,,,,5,6,56,5,,,,,,,,,,,,,,,,,,,AMNE14.jpg,AMSA08.jpg,AMSA07.jpg,AMNE02.jpg,AMNE14.jpg,MN,1,num_8,16,num_8,0.56681417505,,,2017_Oct_05_1032,60.0096429943,FEMA4ImagesEEG,001,201671,
AFNE01.JPG,AFNE01.JPG,AFNE01.JPG,AFNE01.JPG,AFNE01.JPG,AFNE01.JPG,,,,,5,7,57,4,,,,,,,,,,,,,,,,,,,AMSA10.jpg,AMNE03.jpg,AMNE02.jpg,AMSA07.jpg,AMSA10.jpg,MS,2,num_8,32,num_6,0.700137822045,,,2017_Oct_05_1032,60.0096429943,FEMA4ImagesEEG,001,201671,
AFNE01.JPG,AFNE01.JPG,AFNE01.JPG,AFNE01.JPG,AFNE01.JPG,AFNE01.JPG,,,,,5,8,58,3,,,,,,,,,,,,,,,,,,,AMSA04.jpg,AMSA14.jpg,AMNE07.jpg,AMNE10.jpg,AMNE10.jpg,MN,1,num_4,16,num_4,0.81674609796,,,2017_Oct_05_1032,60.0096429943,FEMA4ImagesEEG,001,201671,
AFNE01.JPG,AFNE01.JPG,AFNE01.JPG,AFNE01.JPG,AFNE01.JPG,AFNE01.JPG,,,,,5,9,59,6,,,,,,,,,,,,,,,,,,,AMSA06.jpg,AMNE06.jpg,AMSA08.jpg,AMNE02.jpg,AMSA08.jpg,MS,2,num_2,32,num_8,0.800141061511,,,2017_Oct_05_1032,60.0096429943,FEMA4ImagesEEG,001,201671,
,,,,,,,,,,,,,,,,,,,,,,,,,,,,,,,,,,,,,,,,,,,space,1.26672555457,2017_Oct_05_1032,60.0096429943,FEMA4ImagesEEG,001,201671,
AFNE01.JPG,AFNE01.JPG,AFNE01.JPG,AFNE01.JPG,AFNE01.JPG,AFNE01.JPG,,,,,,,,,0,0,0,1,,,,,,,,,,,,,,,AFNE19.jpg,AFSA07.jpg,AFSA19.jpg,AFNE13.jpg,AFNE19.jpg,FN,3,num_8,16,num_8,0.550107784715,,,2017_Oct_05_1032,60.0096429943,FEMA4ImagesEEG,001,201671,
AFNE01.JPG,AFNE01.JPG,AFNE01.JPG,AFNE01.JPG,AFNE01.JPG,AFNE01.JPG,,,,,,,,,0,1,1,3,,,,,,,,,,,,,,,AFSA17.jpg,AFSA05.jpg,AFNE03.jpg,AFNE02.jpg,AFNE03.jpg,FN,3,num_2,16,num_2,0.49983626217,,,2017_Oct_05_1032,60.0096429943,FEMA4ImagesEEG,001,201671,
AFNE01.JPG,AFNE01.JPG,AFNE01.JPG,AFNE01.JPG,AFNE01.JPG,AFNE01.JPG,,,,,,,,,0,2,2,0,,,,,,,,,,,,,,,AFSA01.jpg,AFSA02.jpg,AFNE19.jpg,AFNE20.jpg,AFSA02.jpg,FS,4,num_6,16,num_6,0.65014630559,,,2017_Oct_05_1032,60.0096429943,FEMA4ImagesEEG,001,201671,
AFNE01.JPG,AFNE01.JPG,AFNE01.JPG,AFNE01.JPG,AFNE01.JPG,AFNE01.JPG,,,,,,,,,0,3,3,6,,,,,,,,,,,,,,,AFNE14.jpg,AFNE02.jpg,AFSA08.jpg,AFSA17.jpg,AFSA17.jpg,FS,4,num_4,16,num_4,0.600133620348,,,2017_Oct_05_1032,60.0096429943,FEMA4ImagesEEG,001,201671,
AFNE01.JPG,AFNE01.JPG,AFNE01.JPG,AFNE01.JPG,AFNE01.JPG,AFNE01.JPG,,,,,,,,,0,4,4,4,,,,,,,,,,,,,,,AFNE07.jpg,AFSA14.jpg,AFSA19.jpg,AFNE13.jpg,AFSA14.jpg,FS,4,num_6,32,num_4,0.716758895491,,,2017_Oct_05_1032,60.0096429943,FEMA4ImagesEEG,001,201671,
AFNE01.JPG,AFNE01.JPG,AFNE01.JPG,AFNE01.JPG,AFNE01.JPG,AFNE01.JPG,,,,,,,,,0,5,5,7,,,,,,,,,,,,,,,AFSA18.jpg,AFNE20.jpg,AFNE19.jpg,AFSA14.jpg,AFSA18.jpg,FS,4,num_8,32,num_4,0.600121432188,,,2017_Oct_05_1032,60.0096429943,FEMA4ImagesEEG,001,201671,
AFNE01.JPG,AFNE01.JPG,AFNE01.JPG,AFNE01.JPG,AFNE01.JPG,AFNE01.JPG,,,,,,,,,0,6,6,8,,,,,,,,,,,,,,,AFSA15.jpg,AFNE04.jpg,AFSA03.jpg,AFNE20.jpg,AFNE04.jpg,FN,3,num_6,32,num_4,0.633455631556,,,2017_Oct_05_1032,60.0096429943,FEMA4ImagesEEG,001,201671,
AFNE01.JPG,AFNE01.JPG,AFNE01.JPG,AFNE01.JPG,AFNE01.JPG,AFNE01.JPG,,,,,,,,,0,7,7,2,,,,,,,,,,,,,,,AFNE11.jpg,AFNE20.jpg,AFSA16.jpg,AFSA04.jpg,AFNE20.jpg,FN,3,num_6,32,num_4,0.583341913123,,,2017_Oct_05_1032,60.0096429943,FEMA4ImagesEEG,001,201671,
AFNE01.JPG,AFNE01.JPG,AFNE01.JPG,AFNE01.JPG,AFNE01.JPG,AFNE01.JPG,,,,,,,,,0,8,8,5,,,,,,,,,,,,,,,AFNE19.jpg,AFSA09.jpg,AFSA13.jpg,AFNE15.jpg,AFNE19.jpg,FN,3,num_8,32,num_2,0.616765919694,,,2017_Oct_05_1032,60.0096429943,FEMA4ImagesEEG,001,201671,
AFNE01.JPG,AFNE01.JPG,AFNE01.JPG,AFNE01.JPG,AFNE01.JPG,AFNE01.JPG,,,,,,,,,0,9,9,9,,,,,,,,,,,,,,,AFNE14.jpg,AFNE04.jpg,AFSA07.jpg,AFSA12.jpg,AFNE04.jpg,FN,3,num_6,16,num_6,0.516833243048,,,2017_Oct_05_1032,60.0096429943,FEMA4ImagesEEG,001,201671,
AFNE01.JPG,AFNE01.JPG,AFNE01.JPG,AFNE01.JPG,AFNE01.JPG,AFNE01.JPG,,,,,,,,,1,0,10,3,,,,,,,,,,,,,,,AFSA01.jpg,AFSA05.jpg,AFNE05.jpg,AFNE16.jpg,AFSA01.jpg,FS,4,num_8,32,num_4,0.700170858268,,,2017_Oct_05_1032,60.0096429943,FEMA4ImagesEEG,001,201671,
AFNE01.JPG,AFNE01.JPG,AFNE01.JPG,AFNE01.JPG,AFNE01.JPG,AFNE01.JPG,,,,,,,,,1,1,11,5,,,,,,,,,,,,,,,AFNE16.jpg,AFNE01.jpg,AFSA12.jpg,AFSA06.jpg,AFNE16.jpg,FN,3,num_8,32,num_2,0.66653772915,,,2017_Oct_05_1032,60.0096429943,FEMA4ImagesEEG,001,201671,
AFNE01.JPG,AFNE01.JPG,AFNE01.JPG,AFNE01.JPG,AFNE01.JPG,AFNE01.JPG,,,,,,,,,1,2,12,6,,,,,,,,,,,,,,,AFSA20.jpg,AFNE18.jpg,AFSA06.jpg,AFNE19.jpg,AFSA06.jpg,FS,4,num_2,32,num_4,0.633437990851,,,2017_Oct_05_1032,60.0096429943,FEMA4ImagesEEG,001,201671,
AFNE01.JPG,AFNE01.JPG,AFNE01.JPG,AFNE01.JPG,AFNE01.JPG,AFNE01.JPG,,,,,,,,,1,3,13,7,,,,,,,,,,,,,,,AFNE03.jpg,AFNE14.jpg,AFSA16.jpg,AFSA07.jpg,AFNE14.jpg,FN,3,num_6,16,num_6,0.516361755086,,,2017_Oct_05_1032,60.0096429943,FEMA4ImagesEEG,001,201671,
AFNE01.JPG,AFNE01.JPG,AFNE01.JPG,AFNE01.JPG,AFNE01.JPG,AFNE01.JPG,,,,,,,,,1,4,14,1,,,,,,,,,,,,,,,AFNE20.jpg,AFNE19.jpg,AFSA11.jpg,AFSA04.jpg,AFSA04.jpg,FS,4,num_4,32,num_2,0.966768437531,,,2017_Oct_05_1032,60.0096429943,FEMA4ImagesEEG,001,201671,
AFNE01.JPG,AFNE01.JPG,AFNE01.JPG,AFNE01.JPG,AFNE01.JPG,AFNE01.JPG,,,,,,,,,1,5,15,9,,,,,,,,,,,,,,,AFNE13.jpg,AFSA18.jpg,AFSA13.jpg,AFNE08.jpg,AFNE13.jpg,FN,3,num_8,32,num_4,0.700154821272,,,2017_Oct_05_1032,60.0096429943,FEMA4ImagesEEG,001,201671,
AFNE01.JPG,AFNE01.JPG,AFNE01.JPG,AFNE01.JPG,AFNE01.JPG,AFNE01.JPG,,,,,,,,,1,6,16,0,,,,,,,,,,,,,,,AFNE04.jpg,AFNE13.jpg,AFSA10.jpg,AFSA04.jpg,AFNE04.jpg,FN,3,num_8,16,num_8,0.516956407257,,,2017_Oct_05_1032,60.0096429943,FEMA4ImagesEEG,001,201671,
AFNE01.JPG,AFNE01.JPG,AFNE01.JPG,AFNE01.JPG,AFNE01.JPG,AFNE01.JPG,,,,,,,,,1,7,17,2,,,,,,,,,,,,,,,AFNE09.jpg,AFSA19.jpg,AFSA13.jpg,AFNE15.jpg,AFNE15.jpg,FN,3,num_4,16,num_4,0.600125281082,,,2017_Oct_05_1032,60.0096429943,FEMA4ImagesEEG,001,201671,
AFNE01.JPG,AFNE01.JPG,AFNE01.JPG,AFNE01.JPG,AFNE01.JPG,AFNE01.JPG,,,,,,,,,1,8,18,8,,,,,,,,,,,,,,,AFSA19.jpg,AFNE03.jpg,AFNE04.jpg,AFSA01.jpg,AFSA01.jpg,FS,4,num_4,32,num_8,0.650129306392,,,2017_Oct_05_1032,60.0096429943,FEMA4ImagesEEG,001,201671,
AFNE01.JPG,AFNE01.JPG,AFNE01.JPG,AFNE01.JPG,AFNE01.JPG,AFNE01.JPG,,,,,,,,,1,9,19,4,,,,,,,,,,,,,,,AFSA05.jpg,AFSA10.jpg,AFNE01.jpg,AFNE03.jpg,AFSA05.jpg,FS,4,num_8,16,num_8,0.616661358421,,,2017_Oct_05_1032,60.0096429943,FEMA4ImagesEEG,001,201671,
AFNE01.JPG,AFNE01.JPG,AFNE01.JPG,AFNE01.JPG,AFNE01.JPG,AFNE01.JPG,,,,,,,,,2,0,20,7,,,,,,,,,,,,,,,AFSA02.jpg,AFNE06.jpg,AFSA03.jpg,AFNE12.jpg,AFNE06.jpg,FN,3,num_6,16,num_6,0.666797849379,,,2017_Oct_05_1032,60.0096429943,FEMA4ImagesEEG,001,201671,
AFNE01.JPG,AFNE01.JPG,AFNE01.JPG,AFNE01.JPG,AFNE01.JPG,AFNE01.JPG,,,,,,,,,2,1,21,3,,,,,,,,,,,,,,,AFNE08.jpg,AFSA20.jpg,AFNE12.jpg,AFSA08.jpg,AFNE12.jpg,FN,3,num_2,16,num_2,0.466761541582,,,2017_Oct_05_1032,60.0096429943,FEMA4ImagesEEG,001,201671,
AFNE01.JPG,AFNE01.JPG,AFNE01.JPG,AFNE01.JPG,AFNE01.JPG,AFNE01.JPG,,,,,,,,,2,2,22,2,,,,,,,,,,,,,,,AFSA05.jpg,AFNE13.jpg,AFNE20.jpg,AFSA11.jpg,AFNE13.jpg,FN,3,num_6,32,num_4,0.616774258931,,,2017_Oct_05_1032,60.0096429943,FEMA4ImagesEEG,001,201671,
AFNE01.JPG,AFNE01.JPG,AFNE01.JPG,AFNE01.JPG,AFNE01.JPG,AFNE01.JPG,,,,,,,,,2,3,23,1,,,,,,,,,,,,,,,AFSA20.jpg,AFSA10.jpg,AFNE12.jpg,AFNE18.jpg,AFSA20.jpg,FS,4,num_8,32,num_4,0.666764813155,,,2017_Oct_05_1032,60.0096429943,FEMA4ImagesEEG,001,201671,
AFNE01.JPG,AFNE01.JPG,AFNE01.JPG,AFNE01.JPG,AFNE01.JPG,AFNE01.JPG,,,,,,,,,2,4,24,6,,,,,,,,,,,,,,,AFNE01.jpg,AFNE03.jpg,AFSA04.jpg,AFSA17.jpg,AFSA04.jpg,FS,4,num_2,16,num_2,0.55012542542,,,2017_Oct_05_1032,60.0096429943,FEMA4ImagesEEG,001,201671,
AFNE01.JPG,AFNE01.JPG,AFNE01.JPG,AFNE01.JPG,AFNE01.JPG,AFNE01.JPG,,,,,,,,,2,5,25,5,,,,,,,,,,,,,,,AFSA02.jpg,AFNE03.jpg,AFNE07.jpg,AFSA17.jpg,AFNE07.jpg,FN,3,num_2,16,num_2,0.549877814046,,,2017_Oct_05_1032,60.0096429943,FEMA4ImagesEEG,001,201671,
AFNE01.JPG,AFNE01.JPG,AFNE01.JPG,AFNE01.JPG,AFNE01.JPG,AFNE01.JPG,,,,,,,,,2,6,26,8,,,,,,,,,,,,,,,AFNE11.jpg,AFSA08.jpg,AFSA01.jpg,AFNE13.jpg,AFNE13.jpg,FN,3,num_4,32,num_8,0.666755190934,,,2017_Oct_05_1032,60.0096429943,FEMA4ImagesEEG,001,201671,
AFNE01.JPG,AFNE01.JPG,AFNE01.JPG,AFNE01.JPG,AFNE01.JPG,AFNE01.JPG,,,,,,,,,2,7,27,4,,,,,,,,,,,,,,,AFSA19.jpg,AFSA17.jpg,AFNE16.jpg,AFNE06.jpg,AFNE06.jpg,FN,3,num_4,32,num_8,0.7001830464,,,2017_Oct_05_1032,60.0096429943,FEMA4ImagesEEG,001,201671,
AFNE01.JPG,AFNE01.JPG,AFNE01.JPG,AFNE01.JPG,AFNE01.JPG,AFNE01.JPG,,,,,,,,,2,8,28,0,,,,,,,,,,,,,,,AFSA18.jpg,AFNE08.jpg,AFSA20.jpg,AFNE10.jpg,AFNE08.jpg,FN,3,num_6,32,num_4,0.600127526268,,,2017_Oct_05_1032,60.0096429943,FEMA4ImagesEEG,001,201671,
AFNE01.JPG,AFNE01.JPG,AFNE01.JPG,AFNE01.JPG,AFNE01.JPG,AFNE01.JPG,,,,,,,,,2,9,29,9,,,,,,,,,,,,,,,AFSA20.jpg,AFNE09.jpg,AFSA01.jpg,AFNE19.jpg,AFSA20.jpg,FS,4,num_8,16,num_8,0.483477874863,,,2017_Oct_05_1032,60.0096429943,FEMA4ImagesEEG,001,201671,
AFNE01.JPG,AFNE01.JPG,AFNE01.JPG,AFNE01.JPG,AFNE01.JPG,AFNE01.JPG,,,,,,,,,3,0,30,5,,,,,,,,,,,,,,,AFSA05.jpg,AFSA14.jpg,AFNE19.jpg,AFNE13.jpg,AFNE19.jpg,FN,3,num_2,16,num_2,0.566817703162,,,2017_Oct_05_1032,60.0096429943,FEMA4ImagesEEG,001,201671,
AFNE01.JPG,AFNE01.JPG,AFNE01.JPG,AFNE01.JPG,AFNE01.JPG,AFNE01.JPG,,,,,,,,,3,1,31,2,,,,,,,,,,,,,,,AFNE04.jpg,AFNE17.jpg,AFSA10.jpg,AFSA18.jpg,AFSA10.jpg,FS,4,num_2,16,num_2,0.483487497084,,,2017_Oct_05_1032,60.0096429943,FEMA4ImagesEEG,001,201671,
AFNE01.JPG,AFNE01.JPG,AFNE01.JPG,AFNE01.JPG,AFNE01.JPG,AFNE01.JPG,,,,,,,,,3,2,32,9,,,,,,,,,,,,,,,AFNE14.jpg,AFSA10.jpg,AFNE02.jpg,AFSA15.jpg,AFNE14.jpg,FN,3,num_8,16,num_8,0.633491875167,,,2017_Oct_05_1032,60.0096429943,FEMA4ImagesEEG,001,201671,
AFNE01.JPG,AFNE01.JPG,AFNE01.JPG,AFNE01.JPG,AFNE01.JPG,AFNE01.JPG,,,,,,,,,3,3,33,6,,,,,,,,,,,,,,,AFSA14.jpg,AFNE12.jpg,AFSA05.jpg,AFNE04.jpg,AFSA05.jpg,FS,4,num_2,32,num_4,0.550149480929,,,2017_Oct_05_1032,60.0096429943,FEMA4ImagesEEG,001,201671,
AFNE01.JPG,AFNE01.JPG,AFNE01.JPG,AFNE01.JPG,AFNE01.JPG,AFNE01.JPG,,,,,,,,,3,4,34,1,,,,,,,,,,,,,,,AFSA18.jpg,AFSA13.jpg,AFNE02.jpg,AFNE18.jpg,AFSA18.jpg,FS,4,num_8,32,num_2,0.716678389697,,,2017_Oct_05_1032,60.0096429943,FEMA4ImagesEEG,001,201671,
AFNE01.JPG,AFNE01.JPG,AFNE01.JPG,AFNE01.JPG,AFNE01.JPG,AFNE01.JPG,,,,,,,,,3,5,35,4,,,,,,,,,,,,,,,AFNE13.jpg,AFSA14.jpg,AFSA02.jpg,AFNE05.jpg,AFNE05.jpg,FN,3,num_4,32,num_8,0.633482573699,,,2017_Oct_05_1032,60.0096429943,FEMA4ImagesEEG,001,201671,
AFNE01.JPG,AFNE01.JPG,AFNE01.JPG,AFNE01.JPG,AFNE01.JPG,AFNE01.JPG,,,,,,,,,3,6,36,7,,,,,,,,,,,,,,,AFSA13.jpg,AFNE02.jpg,AFSA16.jpg,AFNE14.jpg,AFNE02.jpg,FN,3,num_6,32,num_4,0.800087497919,,,2017_Oct_05_1032,60.0096429943,FEMA4ImagesEEG,001,201671,
AFNE01.JPG,AFNE01.JPG,AFNE01.JPG,AFNE01.JPG,AFNE01.JPG,AFNE01.JPG,,,,,,,,,3,7,37,3,,,,,,,,,,,,,,,AFSA09.jpg,AFNE17.jpg,AFSA18.jpg,AFNE04.jpg,AFSA18.jpg,FS,4,num_2,32,num_8,0.816518051724,,,2017_Oct_05_1032,60.0096429943,FEMA4ImagesEEG,001,201671,
AFNE01.JPG,AFNE01.JPG,AFNE01.JPG,AFNE01.JPG,AFNE01.JPG,AFNE01.JPG,,,,,,,,,3,8,38,0,,,,,,,,,,,,,,,AFNE17.jpg,AFSA13.jpg,AFSA20.jpg,AFNE15.jpg,AFNE15.jpg,FN,3,num_4,16,num_4,0.550163593492,,,2017_Oct_05_1032,60.0096429943,FEMA4ImagesEEG,001,201671,
AFNE01.JPG,AFNE01.JPG,AFNE01.JPG,AFNE01.JPG,AFNE01.JPG,AFNE01.JPG,,,,,,,,,3,9,39,8,,,,,,,,,,,,,,,AFSA17.jpg,AFSA11.jpg,AFNE04.jpg,AFNE10.jpg,AFSA11.jpg,FS,4,num_6,32,num_8,0.733459833224,,,2017_Oct_05_1032,60.0096429943,FEMA4ImagesEEG,001,201671,
AFNE01.JPG,AFNE01.JPG,AFNE01.JPG,AFNE01.JPG,AFNE01.JPG,AFNE01.JPG,,,,,,,,,4,0,40,7,,,,,,,,,,,,,,,AFSA01.jpg,AFNE02.jpg,AFNE17.jpg,AFSA14.jpg,AFSA01.jpg,FS,4,num_8,16,num_8,0.567092256708,,,2017_Oct_05_1032,60.0096429943,FEMA4ImagesEEG,001,201671,
AFNE01.JPG,AFNE01.JPG,AFNE01.JPG,AFNE01.JPG,AFNE01.JPG,AFNE01.JPG,,,,,,,,,4,1,41,9,,,,,,,,,,,,,,,AFNE07.jpg,AFNE16.jpg,AFSA19.jpg,AFSA06.jpg,AFNE16.jpg,FN,3,num_6,16,num_6,0.766752657073,,,2017_Oct_05_1032,60.0096429943,FEMA4ImagesEEG,001,201671,
AFNE01.JPG,AFNE01.JPG,AFNE01.JPG,AFNE01.JPG,AFNE01.JPG,AFNE01.JPG,,,,,,,,,4,2,42,1,,,,,,,,,,,,,,,AFSA07.jpg,AFNE04.jpg,AFSA08.jpg,AFNE20.jpg,AFSA08.jpg,FS,4,num_2,16,num_2,0.53349280532,,,2017_Oct_05_1032,60.0096429943,FEMA4ImagesEEG,001,201671,
AFNE01.JPG,AFNE01.JPG,AFNE01.JPG,AFNE01.JPG,AFNE01.JPG,AFNE01.JPG,,,,,,,,,4,3,43,0,,,,,,,,,,,,,,,AFSA19.jpg,AFNE05.jpg,AFSA03.jpg,AFNE11.jpg,AFSA19.jpg,FS,4,num_8,16,num_8,0.783461934072,,,2017_Oct_05_1032,60.0096429943,FEMA4ImagesEEG,001,201671,
AFNE01.JPG,AFNE01.JPG,AFNE01.JPG,AFNE01.JPG,AFNE01.JPG,AFNE01.JPG,,,,,,,,,4,4,44,5,,,,,,,,,,,,,,,AFNE04.jpg,AFSA16.jpg,AFNE06.jpg,AFSA18.jpg,AFSA18.jpg,FS,4,num_4,16,num_4,0.716745745129,,,2017_Oct_05_1032,60.0096429943,FEMA4ImagesEEG,001,201671,
AFNE01.JPG,AFNE01.JPG,AFNE01.JPG,AFNE01.JPG,AFNE01.JPG,AFNE01.JPG,,,,,,,,,4,5,45,8,,,,,,,,,,,,,,,AFSA13.jpg,AFNE02.jpg,AFSA11.jpg,AFNE16.jpg,AFSA11.jpg,FS,4,num_2,32,num_4,0.616769447835,,,2017_Oct_05_1032,60.0096429943,FEMA4ImagesEEG,001,201671,
AFNE01.JPG,AFNE01.JPG,AFNE01.JPG,AFNE01.JPG,AFNE01.JPG,AFNE01.JPG,,,,,,,,,4,6,46,6,,,,,,,,,,,,,,,AFSA02.jpg,AFNE01.jpg,AFSA05.jpg,AFNE20.jpg,AFSA05.jpg,FS,4,num_2,16,num_2,0.816738400201,,,2017_Oct_05_1032,60.0096429943,FEMA4ImagesEEG,001,201671,
AFNE01.JPG,AFNE01.JPG,AFNE01.JPG,AFNE01.JPG,AFNE01.JPG,AFNE01.JPG,,,,,,,,,4,7,47,2,,,,,,,,,,,,,,,AFSA20.jpg,AFSA01.jpg,AFNE09.jpg,AFNE05.jpg,AFNE09.jpg,FN,3,num_2,16,num_2,0.45021231391,,,2017_Oct_05_1032,60.0096429943,FEMA4ImagesEEG,001,201671,
AFNE01.JPG,AFNE01.JPG,AFNE01.JPG,AFNE01.JPG,AFNE01.JPG,AFNE01.JPG,,,,,,,,,4,8,48,4,,,,,,,,,,,,,,,AFNE06.jpg,AFSA17.jpg,AFSA14.jpg,AFNE08.jpg,AFNE06.jpg,FN,3,num_8,16,num_8,0.900121207698,,,2017_Oct_05_1032,60.0096429943,FEMA4ImagesEEG,001,201671,
AFNE01.JPG,AFNE01.JPG,AFNE01.JPG,AFNE01.JPG,AFNE01.JPG,AFNE01.JPG,,,,,,,,,4,9,49,3,,,,,,,,,,,,,,,AFSA10.jpg,AFNE06.jpg,AFSA03.jpg,AFNE13.jpg,AFNE06.jpg,FN,3,num_6,16,num_6,0.833174406609,,,2017_Oct_05_1032,60.0096429943,FEMA4ImagesEEG,001,201671,
AFNE01.JPG,AFNE01.JPG,AFNE01.JPG,AFNE01.JPG,AFNE01.JPG,AFNE01.JPG,,,,,,,,,5,0,50,3,,,,,,,,,,,,,,,AFNE11.jpg,AFSA13.jpg,AFNE02.jpg,AFSA18.jpg,AFSA18.jpg,FS,4,num_4,32,num_8,0.633452424139,,,2017_Oct_05_1032,60.0096429943,FEMA4ImagesEEG,001,201671,
AFNE01.JPG,AFNE01.JPG,AFNE01.JPG,AFNE01.JPG,AFNE01.JPG,AFNE01.JPG,,,,,,,,,5,1,51,5,,,,,,,,,,,,,,,AFSA11.jpg,AFNE18.jpg,AFSA04.jpg,AFNE09.jpg,AFSA11.jpg,FS,4,num_8,32,num_2,0.716761140677,,,2017_Oct_05_1032,60.0096429943,FEMA4ImagesEEG,001,201671,
AFNE01.JPG,AFNE01.JPG,AFNE01.JPG,AFNE01.JPG,AFNE01.JPG,AFNE01.JPG,,,,,,,,,5,2,52,6,,,,,,,,,,,,,,,AFNE12.jpg,AFSA15.jpg,AFSA01.jpg,AFNE13.jpg,AFSA01.jpg,FS,4,num_2,16,num_2,0.416805948043,,,2017_Oct_05_1032,60.0096429943,FEMA4ImagesEEG,001,201671,
AFNE01.JPG,AFNE01.JPG,AFNE01.JPG,AFNE01.JPG,AFNE01.JPG,AFNE01.JPG,,,,,,,,,5,3,53,1,,,,,,,,,,,,,,,AFNE03.jpg,AFSA07.jpg,AFSA09.jpg,AFNE14.jpg,AFNE14.jpg,FN,3,num_4,32,num_8,0.816784266033,,,2017_Oct_05_1032,60.0096429943,FEMA4ImagesEEG,001,201671,
AFNE01.JPG,AFNE01.JPG,AFNE01.JPG,AFNE01.JPG,AFNE01.JPG,AFNE01.JPG,,,,,,,,,5,4,54,9,,,,,,,,,,,,,,,AFNE17.jpg,AFNE06.jpg,AFSA10.jpg,AFSA02.jpg,AFNE17.jpg,FN,3,num_8,16,num_8,0.710209382378,,,2017_Oct_05_1032,60.0096429943,FEMA4ImagesEEG,001,201671,
AFNE01.JPG,AFNE01.JPG,AFNE01.JPG,AFNE01.JPG,AFNE01.JPG,AFNE01.JPG,,,,,,,,,5,5,55,7,,,,,,,,,,,,,,,AFNE10.jpg,AFSA04.jpg,AFSA06.jpg,AFNE18.jpg,AFSA04.jpg,FS,4,num_6,32,num_4,0.700170858268,,,2017_Oct_05_1032,60.0096429943,FEMA4ImagesEEG,001,201671,
AFNE01.JPG,AFNE01.JPG,AFNE01.JPG,AFNE01.JPG,AFNE01.JPG,AFNE01.JPG,,,,,,,,,5,6,56,8,,,,,,,,,,,,,,,AFNE19.jpg,AFSA19.jpg,AFSA05.jpg,AFNE06.jpg,AFSA19.jpg,FS,4,num_6,16,num_6,0.650155607058,,,2017_Oct_05_1032,60.0096429943,FEMA4ImagesEEG,001,201671,
AFNE01.JPG,AFNE01.JPG,AFNE01.JPG,AFNE01.JPG,AFNE01.JPG,AFNE01.JPG,,,,,,,,,5,7,57,2,,,,,,,,,,,,,,,AFSA06.jpg,AFNE20.jpg,AFSA18.jpg,AFNE17.jpg,AFNE20.jpg,FN,3,num_6,16,num_6,0.583517037216,,,2017_Oct_05_1032,60.0096429943,FEMA4ImagesEEG,001,201671,
AFNE01.JPG,AFNE01.JPG,AFNE01.JPG,AFNE01.JPG,AFNE01.JPG,AFNE01.JPG,,,,,,,,,5,8,58,4,,,,,,,,,,,,,,,AFSA14.jpg,AFNE19.jpg,AFSA04.jpg,AFNE10.jpg,AFSA14.jpg,FS,4,num_8,32,num_2,0.700346623838,,,2017_Oct_05_1032,60.0096429943,FEMA4ImagesEEG,001,201671,
AFNE01.JPG,AFNE01.JPG,AFNE01.JPG,AFNE01.JPG,AFNE01.JPG,AFNE01.JPG,,,,,,,,,5,9,59,0,,,,,,,,,,,,,,,AFNE13.jpg,AFSA20.jpg,AFSA19.jpg,AFNE17.jpg,AFSA20.jpg,FS,4,num_6,32,num_4,0.683654987573,,,2017_Oct_05_1032,60.0096429943,FEMA4ImagesEEG,001,201671,
,,,,,,,,,,,,,,,,,,,,,,,,,,,,,,,,,,,,,,,,,,,space,2.05006239997,2017_Oct_05_1032,60.0096429943,FEMA4ImagesEEG,001,201671,
AFNE01.JPG,AFNE01.JPG,AFNE01.JPG,AFNE01.JPG,AFNE01.JPG,AFNE01.JPG,,,,,,,,,,,,,0,0,0,0,,,,,,,,,,,AMSA07.jpg,AMNE07.jpg,AMSA13.jpg,AMNE12.jpg,AMSA07.jpg,MS,2,num_8,16,num_8,0.483558701351,,,2017_Oct_05_1032,60.0096429943,FEMA4ImagesEEG,001,201671,
AFNE01.JPG,AFNE01.JPG,AFNE01.JPG,AFNE01.JPG,AFNE01.JPG,AFNE01.JPG,,,,,,,,,,,,,0,1,1,1,,,,,,,,,,,AMSA08.jpg,AMSA10.jpg,AMNE14.jpg,AMNE02.jpg,AMNE14.jpg,MN,1,num_2,32,num_4,0.716828496079,,,2017_Oct_05_1032,60.0096429943,FEMA4ImagesEEG,001,201671,
AFNE01.JPG,AFNE01.JPG,AFNE01.JPG,AFNE01.JPG,AFNE01.JPG,AFNE01.JPG,,,,,,,,,,,,,0,2,2,8,,,,,,,,,,,AMNE03.jpg,AMNE16.jpg,AMSA05.jpg,AMSA06.jpg,AMNE03.jpg,MN,1,num_8,16,num_8,0.55017546087,,,2017_Oct_05_1032,60.0096429943,FEMA4ImagesEEG,001,201671,
AFNE01.JPG,AFNE01.JPG,AFNE01.JPG,AFNE01.JPG,AFNE01.JPG,AFNE01.JPG,,,,,,,,,,,,,0,3,3,9,,,,,,,,,,,AMSA17.jpg,AMNE05.jpg,AMNE11.jpg,AMSA02.jpg,AMNE05.jpg,MN,1,num_6,32,num_2,0.700272853603,,,2017_Oct_05_1032,60.0096429943,FEMA4ImagesEEG,001,201671,
AFNE01.JPG,AFNE01.JPG,AFNE01.JPG,AFNE01.JPG,AFNE01.JPG,AFNE01.JPG,,,,,,,,,,,,,0,4,4,4,,,,,,,,,,,AMSA19.jpg,AMNE14.jpg,AMSA13.jpg,AMNE04.jpg,AMSA19.jpg,MS,2,num_8,16,num_8,0.717017732764,,,2017_Oct_05_1032,60.0096429943,FEMA4ImagesEEG,001,201671,
AFNE01.JPG,AFNE01.JPG,AFNE01.JPG,AFNE01.JPG,AFNE01.JPG,AFNE01.JPG,,,,,,,,,,,,,0,5,5,3,,,,,,,,,,,AMSA06.jpg,AMNE20.jpg,AMNE11.jpg,AMSA16.jpg,AMSA06.jpg,MS,2,num_8,32,num_4,0.683421488764,,,2017_Oct_05_1032,60.0096429943,FEMA4ImagesEEG,001,201671,
AFNE01.JPG,AFNE01.JPG,AFNE01.JPG,AFNE01.JPG,AFNE01.JPG,AFNE01.JPG,,,,,,,,,,,,,0,6,6,7,,,,,,,,,,,AMNE15.jpg,AMSA11.jpg,AMNE11.jpg,AMSA13.jpg,AMNE15.jpg,MN,1,num_8,32,num_2,0.666775397578,,,2017_Oct_05_1032,60.0096429943,FEMA4ImagesEEG,001,201671,
AFNE01.JPG,AFNE01.JPG,AFNE01.JPG,AFNE01.JPG,AFNE01.JPG,AFNE01.JPG,,,,,,,,,,,,,0,7,7,2,,,,,,,,,,,AMNE08.jpg,AMSA04.jpg,AMNE06.jpg,AMSA18.jpg,AMSA18.jpg,MS,2,num_4,32,num_8,0.550100086955,,,2017_Oct_05_1032,60.0096429943,FEMA4ImagesEEG,001,201671,
AFNE01.JPG,AFNE01.JPG,AFNE01.JPG,AFNE01.JPG,AFNE01.JPG,AFNE01.JPG,,,,,,,,,,,,,0,8,8,6,,,,,,,,,,,AMNE05.jpg,AMSA20.jpg,AMNE14.jpg,AMSA10.jpg,AMNE05.jpg,MN,1,num_8,16,num_8,0.650106533838,,,2017_Oct_05_1032,60.0096429943,FEMA4ImagesEEG,001,201671,
AFNE01.JPG,AFNE01.JPG,AFNE01.JPG,AFNE01.JPG,AFNE01.JPG,AFNE01.JPG,,,,,,,,,,,,,0,9,9,5,,,,,,,,,,,AMNE06.jpg,AMSA20.jpg,AMNE02.jpg,AMSA14.jpg,AMSA20.jpg,MS,2,num_6,16,num_6,0.566757724795,,,2017_Oct_05_1032,60.0096429943,FEMA4ImagesEEG,001,201671,
AFNE01.JPG,AFNE01.JPG,AFNE01.JPG,AFNE01.JPG,AFNE01.JPG,AFNE01.JPG,,,,,,,,,,,,,1,0,10,3,,,,,,,,,,,AMNE08.jpg,AMSA20.jpg,AMSA18.jpg,AMNE10.jpg,AMNE10.jpg,MN,1,num_4,32,num_8,0.583480793604,,,2017_Oct_05_1032,60.0096429943,FEMA4ImagesEEG,001,201671,
AFNE01.JPG,AFNE01.JPG,AFNE01.JPG,AFNE01.JPG,AFNE01.JPG,AFNE01.JPG,,,,,,,,,,,,,1,1,11,9,,,,,,,,,,,AMNE11.jpg,AMNE17.jpg,AMSA16.jpg,AMSA12.jpg,AMSA16.jpg,MS,2,num_2,16,num_2,0.616849632876,,,2017_Oct_05_1032,60.0096429943,FEMA4ImagesEEG,001,201671,
AFNE01.JPG,AFNE01.JPG,AFNE01.JPG,AFNE01.JPG,AFNE01.JPG,AFNE01.JPG,,,,,,,,,,,,,1,2,12,6,,,,,,,,,,,AMSA01.jpg,AMNE05.jpg,AMSA11.jpg,AMNE10.jpg,AMNE10.jpg,MN,1,num_4,32,num_8,0.666767058312,,,2017_Oct_05_1032,60.0096429943,FEMA4ImagesEEG,001,201671,
AFNE01.JPG,AFNE01.JPG,AFNE01.JPG,AFNE01.JPG,AFNE01.JPG,AFNE01.JPG,,,,,,,,,,,,,1,3,13,5,,,,,,,,,,,AMNE20.jpg,AMSA12.jpg,AMNE12.jpg,AMSA14.jpg,AMSA12.jpg,MS,2,num_6,16,num_6,0.68346414718,,,2017_Oct_05_1032,60.0096429943,FEMA4ImagesEEG,001,201671,
AFNE01.JPG,AFNE01.JPG,AFNE01.JPG,AFNE01.JPG,AFNE01.JPG,AFNE01.JPG,,,,,,,,,,,,,1,4,14,0,,,,,,,,,,,AMNE18.jpg,AMNE13.jpg,AMSA03.jpg,AMSA11.jpg,AMSA11.jpg,MS,2,num_4,16,num_4,0.733417174779,,,2017_Oct_05_1032,60.0096429943,FEMA4ImagesEEG,001,201671,
AFNE01.JPG,AFNE01.JPG,AFNE01.JPG,AFNE01.JPG,AFNE01.JPG,AFNE01.JPG,,,,,,,,,,,,,1,5,15,7,,,,,,,,,,,AMNE04.jpg,AMSA06.jpg,AMSA10.jpg,AMNE08.jpg,AMNE08.jpg,MN,1,num_4,16,num_4,0.650126740453,,,2017_Oct_05_1032,60.0096429943,FEMA4ImagesEEG,001,201671,
AFNE01.JPG,AFNE01.JPG,AFNE01.JPG,AFNE01.JPG,AFNE01.JPG,AFNE01.JPG,,,,,,,,,,,,,1,6,16,2,,,,,,,,,,,AMNE11.jpg,AMNE12.jpg,AMSA01.jpg,AMSA17.jpg,AMNE12.jpg,MN,1,num_6,32,num_8,0.683491410105,,,2017_Oct_05_1032,60.0096429943,FEMA4ImagesEEG,001,201671,
AFNE01.JPG,AFNE01.JPG,AFNE01.JPG,AFNE01.JPG,AFNE01.JPG,AFNE01.JPG,,,,,,,,,,,,,1,7,17,4,,,,,,,,,,,AMNE10.jpg,AMSA14.jpg,AMSA17.jpg,AMNE11.jpg,AMSA14.jpg,MS,2,num_6,16,num_6,0.60014324254,,,2017_Oct_05_1032,60.0096429943,FEMA4ImagesEEG,001,201671,
AFNE01.JPG,AFNE01.JPG,AFNE01.JPG,AFNE01.JPG,AFNE01.JPG,AFNE01.JPG,,,,,,,,,,,,,1,8,18,8,,,,,,,,,,,AMSA02.jpg,AMNE20.jpg,AMNE01.jpg,AMSA19.jpg,AMSA02.jpg,MS,2,num_8,16,num_8,0.866752689151,,,2017_Oct_05_1032,60.0096429943,FEMA4ImagesEEG,001,201671,
AFNE01.JPG,AFNE01.JPG,AFNE01.JPG,AFNE01.JPG,AFNE01.JPG,AFNE01.JPG,,,,,,,,,,,,,1,9,19,1,,,,,,,,,,,AMSA20.jpg,AMNE19.jpg,AMSA16.jpg,AMNE20.jpg,AMNE20.jpg,MN,1,num_4,32,num_6,0.883499492746,,,2017_Oct_05_1032,60.0096429943,FEMA4ImagesEEG,001,201671,
AFNE01.JPG,AFNE01.JPG,AFNE01.JPG,AFNE01.JPG,AFNE01.JPG,AFNE01.JPG,,,,,,,,,,,,,2,0,20,2,,,,,,,,,,,AMSA12.jpg,AMNE20.jpg,AMSA01.jpg,AMNE03.jpg,AMNE20.jpg,MN,1,num_6,16,num_6,0.616809861094,,,2017_Oct_05_1032,60.0096429943,FEMA4ImagesEEG,001,201671,
AFNE01.JPG,AFNE01.JPG,AFNE01.JPG,AFNE01.JPG,AFNE01.JPG,AFNE01.JPG,,,,,,,,,,,,,2,1,21,3,,,,,,,,,,,AMNE06.jpg,AMSA03.jpg,AMNE11.jpg,AMSA11.jpg,AMNE11.jpg,MN,1,num_2,16,num_2,0.599966193986,,,2017_Oct_05_1032,60.0096429943,FEMA4ImagesEEG,001,201671,
AFNE01.JPG,AFNE01.JPG,AFNE01.JPG,AFNE01.JPG,AFNE01.JPG,AFNE01.JPG,,,,,,,,,,,,,2,2,22,1,,,,,,,,,,,AMNE14.jpg,AMSA17.jpg,AMSA18.jpg,AMNE13.jpg,AMSA18.jpg,MS,2,num_2,16,num_2,0.483505779237,,,2017_Oct_05_1032,60.0096429943,FEMA4ImagesEEG,001,201671,
AFNE01.JPG,AFNE01.JPG,AFNE01.JPG,AFNE01.JPG,AFNE01.JPG,AFNE01.JPG,,,,,,,,,,,,,2,3,23,7,,,,,,,,,,,AMNE17.jpg,AMSA01.jpg,AMSA17.jpg,AMNE11.jpg,AMNE11.jpg,MN,1,num_4,32,num_2,0.616795107053,,,2017_Oct_05_1032,60.0096429943,FEMA4ImagesEEG,001,201671,
AFNE01.JPG,AFNE01.JPG,AFNE01.JPG,AFNE01.JPG,AFNE01.JPG,AFNE01.JPG,,,,,,,,,,,,,2,4,24,0,,,,,,,,,,,AMNE04.jpg,AMSA19.jpg,AMSA14.jpg,AMNE10.jpg,AMSA19.jpg,MS,2,num_6,16,num_6,0.450242784253,,,2017_Oct_05_1032,60.0096429943,FEMA4ImagesEEG,001,201671,
AFNE01.JPG,AFNE01.JPG,AFNE01.JPG,AFNE01.JPG,AFNE01.JPG,AFNE01.JPG,,,,,,,,,,,,,2,5,25,4,,,,,,,,,,,AMNE13.jpg,AMSA09.jpg,AMNE15.jpg,AMSA19.jpg,AMNE15.jpg,MN,1,num_2,32,num_8,0.733541301219,,,2017_Oct_05_1032,60.0096429943,FEMA4ImagesEEG,001,201671,
AFNE01.JPG,AFNE01.JPG,AFNE01.JPG,AFNE01.JPG,AFNE01.JPG,AFNE01.JPG,,,,,,,,,,,,,2,6,26,9,,,,,,,,,,,AMNE17.jpg,AMNE18.jpg,AMSA15.jpg,AMSA02.jpg,AMNE18.jpg,MN,1,num_6,16,num_6,0.65013251378,,,2017_Oct_05_1032,60.0096429943,FEMA4ImagesEEG,001,201671,
AFNE01.JPG,AFNE01.JPG,AFNE01.JPG,AFNE01.JPG,AFNE01.JPG,AFNE01.JPG,,,,,,,,,,,,,2,7,27,6,,,,,,,,,,,AMNE02.jpg,AMSA14.jpg,AMNE15.jpg,AMSA19.jpg,AMSA14.jpg,MS,2,num_6,16,num_6,0.550183800136,,,2017_Oct_05_1032,60.0096429943,FEMA4ImagesEEG,001,201671,
AFNE01.JPG,AFNE01.JPG,AFNE01.JPG,AFNE01.JPG,AFNE01.JPG,AFNE01.JPG,,,,,,,,,,,,,2,8,28,8,,,,,,,,,,,AMSA19.jpg,AMNE12.jpg,AMNE17.jpg,AMSA10.jpg,AMSA19.jpg,MS,2,num_8,32,num_6,0.683116464905,,,2017_Oct_05_1032,60.0096429943,FEMA4ImagesEEG,001,201671,
AFNE01.JPG,AFNE01.JPG,AFNE01.JPG,AFNE01.JPG,AFNE01.JPG,AFNE01.JPG,,,,,,,,,,,,,2,9,29,5,,,,,,,,,,,AMSA09.jpg,AMSA06.jpg,AMNE03.jpg,AMNE14.jpg,AMSA09.jpg,MS,2,num_8,16,num_8,0.633516572154,,,2017_Oct_05_1032,60.0096429943,FEMA4ImagesEEG,001,201671,
AFNE01.JPG,AFNE01.JPG,AFNE01.JPG,AFNE01.JPG,AFNE01.JPG,AFNE01.JPG,,,,,,,,,,,,,3,0,30,8,,,,,,,,,,,AMNE02.jpg,AMNE18.jpg,AMSA12.jpg,AMSA16.jpg,AMSA12.jpg,MS,2,num_2,32,num_6,0.766744959343,,,2017_Oct_05_1032,60.0096429943,FEMA4ImagesEEG,001,201671,
AFNE01.JPG,AFNE01.JPG,AFNE01.JPG,AFNE01.JPG,AFNE01.JPG,AFNE01.JPG,,,,,,,,,,,,,3,1,31,9,,,,,,,,,,,AMNE07.jpg,AMSA04.jpg,AMSA13.jpg,AMNE05.jpg,AMNE05.jpg,MN,1,num_4,16,num_4,0.633909799537,,,2017_Oct_05_1032,60.0096429943,FEMA4ImagesEEG,001,201671,
AFNE01.JPG,AFNE01.JPG,AFNE01.JPG,AFNE01.JPG,AFNE01.JPG,AFNE01.JPG,,,,,,,,,,,,,3,2,32,0,,,,,,,,,,,AMSA03.jpg,AMSA19.jpg,AMNE01.jpg,AMNE09.jpg,AMNE01.jpg,MN,1,num_2,16,num_2,0.416815249511,,,2017_Oct_05_1032,60.0096429943,FEMA4ImagesEEG,001,201671,
AFNE01.JPG,AFNE01.JPG,AFNE01.JPG,AFNE01.JPG,AFNE01.JPG,AFNE01.JPG,,,,,,,,,,,,,3,3,33,5,,,,,,,,,,,AMSA01.jpg,AMNE11.jpg,AMNE03.jpg,AMSA14.jpg,AMSA01.jpg,MS,2,num_8,16,num_8,0.600169222482,,,2017_Oct_05_1032,60.0096429943,FEMA4ImagesEEG,001,201671,
AFNE01.JPG,AFNE01.JPG,AFNE01.JPG,AFNE01.JPG,AFNE01.JPG,AFNE01.JPG,,,,,,,,,,,,,3,4,34,2,,,,,,,,,,,AMSA16.jpg,AMSA13.jpg,AMNE08.jpg,AMNE07.jpg,AMSA16.jpg,MS,2,num_8,32,num_4,0.566781138798,,,2017_Oct_05_1032,60.0096429943,FEMA4ImagesEEG,001,201671,
AFNE01.JPG,AFNE01.JPG,AFNE01.JPG,AFNE01.JPG,AFNE01.JPG,AFNE01.JPG,,,,,,,,,,,,,3,5,35,3,,,,,,,,,,,AMNE09.jpg,AMSA01.jpg,AMSA14.jpg,AMNE12.jpg,AMNE12.jpg,MN,1,num_4,32,num_6,0.500157964503,,,2017_Oct_05_1032,60.0096429943,FEMA4ImagesEEG,001,201671,
AFNE01.JPG,AFNE01.JPG,AFNE01.JPG,AFNE01.JPG,AFNE01.JPG,AFNE01.JPG,,,,,,,,,,,,,3,6,36,1,,,,,,,,,,,AMNE18.jpg,AMSA19.jpg,AMNE12.jpg,AMSA09.jpg,AMNE18.jpg,MN,1,num_8,16,num_8,0.533522634156,,,2017_Oct_05_1032,60.0096429943,FEMA4ImagesEEG,001,201671,
AFNE01.JPG,AFNE01.JPG,AFNE01.JPG,AFNE01.JPG,AFNE01.JPG,AFNE01.JPG,,,,,,,,,,,,,3,7,37,6,,,,,,,,,,,AMSA01.jpg,AMNE14.jpg,AMSA12.jpg,AMNE20.jpg,AMNE20.jpg,MN,1,num_4,16,num_4,0.558457291365,,,2017_Oct_05_1032,60.0096429943,FEMA4ImagesEEG,001,201671,
AFNE01.JPG,AFNE01.JPG,AFNE01.JPG,AFNE01.JPG,AFNE01.JPG,AFNE01.JPG,,,,,,,,,,,,,3,8,38,7,,,,,,,,,,,AMNE17.jpg,AMSA05.jpg,AMNE12.jpg,AMSA07.jpg,AMNE12.jpg,MN,1,num_2,16,num_2,0.600190391327,,,2017_Oct_05_1032,60.0096429943,FEMA4ImagesEEG,001,201671,
AFNE01.JPG,AFNE01.JPG,AFNE01.JPG,AFNE01.JPG,AFNE01.JPG,AFNE01.JPG,,,,,,,,,,,,,3,9,39,4,,,,,,,,,,,AMNE17.jpg,AMSA20.jpg,AMNE10.jpg,AMSA17.jpg,AMSA20.jpg,MS,2,num_6,16,num_6,0.616749882669,,,2017_Oct_05_1032,60.0096429943,FEMA4ImagesEEG,001,201671,
AFNE01.JPG,AFNE01.JPG,AFNE01.JPG,AFNE01.JPG,AFNE01.JPG,AFNE01.JPG,,,,,,,,,,,,,4,0,40,6,,,,,,,,,,,AMNE11.jpg,AMNE20.jpg,AMSA04.jpg,AMSA09.jpg,AMSA04.jpg,MS,2,num_2,32,num_8,0.683606235049,,,2017_Oct_05_1032,60.0096429943,FEMA4ImagesEEG,001,201671,
AFNE01.JPG,AFNE01.JPG,AFNE01.JPG,AFNE01.JPG,AFNE01.JPG,AFNE01.JPG,,,,,,,,,,,,,4,1,41,3,,,,,,,,,,,AMNE12.jpg,AMSA18.jpg,AMSA19.jpg,AMNE09.jpg,AMNE09.jpg,MN,1,num_4,32,num_2,0.933516026911,,,2017_Oct_05_1032,60.0096429943,FEMA4ImagesEEG,001,201671,
AFNE01.JPG,AFNE01.JPG,AFNE01.JPG,AFNE01.JPG,AFNE01.JPG,AFNE01.JPG,,,,,,,,,,,,,4,2,42,5,,,,,,,,,,,AMSA04.jpg,AMSA10.jpg,AMNE02.jpg,AMNE20.jpg,AMNE20.jpg,MN,1,num_4,16,num_4,0.5335101253,,,2017_Oct_05_1032,60.0096429943,FEMA4ImagesEEG,001,201671,
AFNE01.JPG,AFNE01.JPG,AFNE01.JPG,AFNE01.JPG,AFNE01.JPG,AFNE01.JPG,,,,,,,,,,,,,4,3,43,9,,,,,,,,,,,AMNE01.jpg,AMNE05.jpg,AMSA12.jpg,AMSA14.jpg,AMSA14.jpg,MS,2,num_4,32,num_6,0.516800848302,,,2017_Oct_05_1032,60.0096429943,FEMA4ImagesEEG,001,201671,
AFNE01.JPG,AFNE01.JPG,AFNE01.JPG,AFNE01.JPG,AFNE01.JPG,AFNE01.JPG,,,,,,,,,,,,,4,4,44,8,,,,,,,,,,,AMNE02.jpg,AMSA10.jpg,AMNE10.jpg,AMSA09.jpg,AMNE10.jpg,MN,1,num_2,32,num_4,0.700162198278,,,2017_Oct_05_1032,60.0096429943,FEMA4ImagesEEG,001,201671,
AFNE01.JPG,AFNE01.JPG,AFNE01.JPG,AFNE01.JPG,AFNE01.JPG,AFNE01.JPG,,,,,,,,,,,,,4,5,45,0,,,,,,,,,,,AMNE10.jpg,AMNE06.jpg,AMSA19.jpg,AMSA18.jpg,AMSA19.jpg,MS,2,num_2,32,num_6,0.600200013549,,,2017_Oct_05_1032,60.0096429943,FEMA4ImagesEEG,001,201671,
AFNE01.JPG,AFNE01.JPG,AFNE01.JPG,AFNE01.JPG,AFNE01.JPG,AFNE01.JPG,,,,,,,,,,,,,4,6,46,1,,,,,,,,,,,AMNE15.jpg,AMSA16.jpg,AMNE04.jpg,AMSA11.jpg,AMSA16.jpg,MS,2,num_6,32,num_8,0.61682236995,,,2017_Oct_05_1032,60.0096429943,FEMA4ImagesEEG,001,201671,
AFNE01.JPG,AFNE01.JPG,AFNE01.JPG,AFNE01.JPG,AFNE01.JPG,AFNE01.JPG,,,,,,,,,,,,,4,7,47,2,,,,,,,,,,,AMSA08.jpg,AMNE15.jpg,AMNE20.jpg,AMSA17.jpg,AMSA17.jpg,MS,2,num_4,16,num_4,0.716806044278,,,2017_Oct_05_1032,60.0096429943,FEMA4ImagesEEG,001,201671,
AFNE01.JPG,AFNE01.JPG,AFNE01.JPG,AFNE01.JPG,AFNE01.JPG,AFNE01.JPG,,,,,,,,,,,,,4,8,48,4,,,,,,,,,,,AMSA03.jpg,AMNE15.jpg,AMNE19.jpg,AMSA19.jpg,AMSA19.jpg,MS,2,num_4,16,num_4,0.616840010684,,,2017_Oct_05_1032,60.0096429943,FEMA4ImagesEEG,001,201671,
AFNE01.JPG,AFNE01.JPG,AFNE01.JPG,AFNE01.JPG,AFNE01.JPG,AFNE01.JPG,,,,,,,,,,,,,4,9,49,7,,,,,,,,,,,AMNE18.jpg,AMSA07.jpg,AMNE13.jpg,AMSA03.jpg,AMNE13.jpg,MN,1,num_2,16,num_2,0.550189573463,,,2017_Oct_05_1032,60.0096429943,FEMA4ImagesEEG,001,201671,
AFNE01.JPG,AFNE01.JPG,AFNE01.JPG,AFNE01.JPG,AFNE01.JPG,AFNE01.JPG,,,,,,,,,,,,,5,0,50,9,,,,,,,,,,,AMSA16.jpg,AMNE04.jpg,AMSA18.jpg,AMNE10.jpg,AMNE10.jpg,MN,1,num_4,32,num_6,0.650172927039,,,2017_Oct_05_1032,60.0096429943,FEMA4ImagesEEG,001,201671,
AFNE01.JPG,AFNE01.JPG,AFNE01.JPG,AFNE01.JPG,AFNE01.JPG,AFNE01.JPG,,,,,,,,,,,,,5,1,51,4,,,,,,,,,,,AMNE09.jpg,AMSA03.jpg,AMNE14.jpg,AMSA20.jpg,AMSA03.jpg,MS,2,num_6,16,num_6,0.666773473145,,,2017_Oct_05_1032,60.0096429943,FEMA4ImagesEEG,001,201671,
AFNE01.JPG,AFNE01.JPG,AFNE01.JPG,AFNE01.JPG,AFNE01.JPG,AFNE01.JPG,,,,,,,,,,,,,5,2,52,7,,,,,,,,,,,AMSA19.jpg,AMNE11.jpg,AMNE20.jpg,AMSA13.jpg,AMSA13.jpg,MS,2,num_4,32,num_2,0.633519458817,,,2017_Oct_05_1032,60.0096429943,FEMA4ImagesEEG,001,201671,
AFNE01.JPG,AFNE01.JPG,AFNE01.JPG,AFNE01.JPG,AFNE01.JPG,AFNE01.JPG,,,,,,,,,,,,,5,3,53,1,,,,,,,,,,,AMNE13.jpg,AMNE10.jpg,AMSA01.jpg,AMSA10.jpg,AMSA01.jpg,MS,2,num_2,16,num_2,0.783456160745,,,2017_Oct_05_1032,60.0096429943,FEMA4ImagesEEG,001,201671,
AFNE01.JPG,AFNE01.JPG,AFNE01.JPG,AFNE01.JPG,AFNE01.JPG,AFNE01.JPG,,,,,,,,,,,,,5,4,54,3,,,,,,,,,,,AMSA04.jpg,AMNE06.jpg,AMSA12.jpg,AMNE07.jpg,AMNE07.jpg,MN,1,num_4,16,num_4,0.750086359272,,,2017_Oct_05_1032,60.0096429943,FEMA4ImagesEEG,001,201671,
AFNE01.JPG,AFNE01.JPG,AFNE01.JPG,AFNE01.JPG,AFNE01.JPG,AFNE01.JPG,,,,,,,,,,,,,5,5,55,2,,,,,,,,,,,AMSA15.jpg,AMNE10.jpg,AMNE14.jpg,AMSA13.jpg,AMNE10.jpg,MN,1,num_6,32,num_8,0.550182517152,,,2017_Oct_05_1032,60.0096429943,FEMA4ImagesEEG,001,201671,
AFNE01.JPG,AFNE01.JPG,AFNE01.JPG,AFNE01.JPG,AFNE01.JPG,AFNE01.JPG,,,,,,,,,,,,,5,6,56,5,,,,,,,,,,,AMSA07.jpg,AMNE14.jpg,AMSA18.jpg,AMNE18.jpg,AMNE14.jpg,MN,1,num_6,16,num_6,0.716767876205,,,2017_Oct_05_1032,60.0096429943,FEMA4ImagesEEG,001,201671,
AFNE01.JPG,AFNE01.JPG,AFNE01.JPG,AFNE01.JPG,AFNE01.JPG,AFNE01.JPG,,,,,,,,,,,,,5,7,57,6,,,,,,,,,,,AMSA17.jpg,AMNE18.jpg,AMNE01.jpg,AMSA11.jpg,AMNE18.jpg,MN,1,num_6,32,num_4,0.550133443932,,,2017_Oct_05_1032,60.0096429943,FEMA4ImagesEEG,001,201671,
AFNE01.JPG,AFNE01.JPG,AFNE01.JPG,AFNE01.JPG,AFNE01.JPG,AFNE01.JPG,,,,,,,,,,,,,5,8,58,0,,,,,,,,,,,AMNE08.jpg,AMSA12.jpg,AMSA06.jpg,AMNE15.jpg,AMNE15.jpg,MN,1,num_4,32,num_8,0.616788371524,,,2017_Oct_05_1032,60.0096429943,FEMA4ImagesEEG,001,201671,
AFNE01.JPG,AFNE01.JPG,AFNE01.JPG,AFNE01.JPG,AFNE01.JPG,AFNE01.JPG,,,,,,,,,,,,,5,9,59,8,,,,,,,,,,,AMNE15.jpg,AMSA01.jpg,AMSA06.jpg,AMNE14.jpg,AMSA06.jpg,MS,2,num_2,32,num_8,0.800114440091,,,2017_Oct_05_1032,60.0096429943,FEMA4ImagesEEG,001,201671,
,,,,,,,,,,,,,,,,,,,,,,,,,,,,,,,,,,,,,,,,,,,space,2.48334829588,2017_Oct_05_1032,60.0096429943,FEMA4ImagesEEG,001,201671,
AFNE01.JPG,AFNE01.JPG,AFNE01.JPG,AFNE01.JPG,AFNE01.JPG,AFNE01.JPG,,,,,,,,,,,,,,,,,0,0,0,8,,,,,,,AFSA06.jpg,AFNE17.jpg,AFSA05.jpg,AFNE16.jpg,AFNE16.jpg,FN,3,num_4,16,num_4,0.666796887148,,,2017_Oct_05_1032,60.0096429943,FEMA4ImagesEEG,001,201671,
AFNE01.JPG,AFNE01.JPG,AFNE01.JPG,AFNE01.JPG,AFNE01.JPG,AFNE01.JPG,,,,,,,,,,,,,,,,,0,1,1,6,,,,,,,AFNE18.jpg,AFSA11.jpg,AFSA07.jpg,AFNE06.jpg,AFNE18.jpg,FN,3,num_8,16,num_8,0.566784987692,,,2017_Oct_05_1032,60.0096429943,FEMA4ImagesEEG,001,201671,
AFNE01.JPG,AFNE01.JPG,AFNE01.JPG,AFNE01.JPG,AFNE01.JPG,AFNE01.JPG,,,,,,,,,,,,,,,,,0,2,2,7,,,,,,,AFNE13.jpg,AFSA06.jpg,AFNE15.jpg,AFSA19.jpg,AFSA06.jpg,FS,4,num_6,32,num_4,0.716920227773,,,2017_Oct_05_1032,60.0096429943,FEMA4ImagesEEG,001,201671,
AFNE01.JPG,AFNE01.JPG,AFNE01.JPG,AFNE01.JPG,AFNE01.JPG,AFNE01.JPG,,,,,,,,,,,,,,,,,0,3,3,1,,,,,,,AFNE12.jpg,AFNE07.jpg,AFSA13.jpg,AFSA09.jpg,AFNE07.jpg,FN,3,num_6,16,num_6,0.533476447599,,,2017_Oct_05_1032,60.0096429943,FEMA4ImagesEEG,001,201671,
AFNE01.JPG,AFNE01.JPG,AFNE01.JPG,AFNE01.JPG,AFNE01.JPG,AFNE01.JPG,,,,,,,,,,,,,,,,,0,4,4,0,,,,,,,AFSA15.jpg,AFNE02.jpg,AFNE13.jpg,AFSA06.jpg,AFNE02.jpg,FN,3,num_6,32,num_2,0.683453562757,,,2017_Oct_05_1032,60.0096429943,FEMA4ImagesEEG,001,201671,
AFNE01.JPG,AFNE01.JPG,AFNE01.JPG,AFNE01.JPG,AFNE01.JPG,AFNE01.JPG,,,,,,,,,,,,,,,,,0,5,5,2,,,,,,,AFNE08.jpg,AFSA16.jpg,AFNE07.jpg,AFSA08.jpg,AFNE08.jpg,FN,3,num_8,16,num_8,0.783474122203,,,2017_Oct_05_1032,60.0096429943,FEMA4ImagesEEG,001,201671,
AFNE01.JPG,AFNE01.JPG,AFNE01.JPG,AFNE01.JPG,AFNE01.JPG,AFNE01.JPG,,,,,,,,,,,,,,,,,0,6,6,9,,,,,,,AFSA11.jpg,AFNE20.jpg,AFSA14.jpg,AFNE10.jpg,AFNE20.jpg,FN,3,num_6,32,num_8,0.666802981228,,,2017_Oct_05_1032,60.0096429943,FEMA4ImagesEEG,001,201671,
AFNE01.JPG,AFNE01.JPG,AFNE01.JPG,AFNE01.JPG,AFNE01.JPG,AFNE01.JPG,,,,,,,,,,,,,,,,,0,7,7,5,,,,,,,AFNE17.jpg,AFNE13.jpg,AFSA07.jpg,AFSA09.jpg,AFNE17.jpg,FN,3,num_8,16,num_8,0.650112948613,,,2017_Oct_05_1032,60.0096429943,FEMA4ImagesEEG,001,201671,
AFNE01.JPG,AFNE01.JPG,AFNE01.JPG,AFNE01.JPG,AFNE01.JPG,AFNE01.JPG,,,,,,,,,,,,,,,,,0,8,8,4,,,,,,,AFSA18.jpg,AFNE05.jpg,AFNE18.jpg,AFSA02.jpg,AFNE18.jpg,FN,3,num_2,32,num_8,0.750386892789,,,2017_Oct_05_1032,60.0096429943,FEMA4ImagesEEG,001,201671,
AFNE01.JPG,AFNE01.JPG,AFNE01.JPG,AFNE01.JPG,AFNE01.JPG,AFNE01.JPG,,,,,,,,,,,,,,,,,0,9,9,3,,,,,,,AFNE14.jpg,AFSA01.jpg,AFNE15.jpg,AFSA11.jpg,AFNE14.jpg,FN,3,num_8,16,num_8,1.23336473381,,,2017_Oct_05_1032,60.0096429943,FEMA4ImagesEEG,001,201671,
AFNE01.JPG,AFNE01.JPG,AFNE01.JPG,AFNE01.JPG,AFNE01.JPG,AFNE01.JPG,,,,,,,,,,,,,,,,,1,0,10,0,,,,,,,AFNE02.jpg,AFSA14.jpg,AFNE16.jpg,AFSA09.jpg,AFSA09.jpg,FS,4,num_4,32,num_8,0.716764989542,,,2017_Oct_05_1032,60.0096429943,FEMA4ImagesEEG,001,201671,
AFNE01.JPG,AFNE01.JPG,AFNE01.JPG,AFNE01.JPG,AFNE01.JPG,AFNE01.JPG,,,,,,,,,,,,,,,,,1,1,11,1,,,,,,,AFNE06.jpg,AFSA13.jpg,AFSA02.jpg,AFNE17.jpg,AFNE06.jpg,FN,3,num_8,32,num_4,0.716837156069,,,2017_Oct_05_1032,60.0096429943,FEMA4ImagesEEG,001,201671,
AFNE01.JPG,AFNE01.JPG,AFNE01.JPG,AFNE01.JPG,AFNE01.JPG,AFNE01.JPG,,,,,,,,,,,,,,,,,1,2,12,6,,,,,,,AFNE14.jpg,AFNE17.jpg,AFSA19.jpg,AFSA14.jpg,AFNE14.jpg,FN,3,num_8,16,num_8,0.466843651055,,,2017_Oct_05_1032,60.0096429943,FEMA4ImagesEEG,001,201671,
AFNE01.JPG,AFNE01.JPG,AFNE01.JPG,AFNE01.JPG,AFNE01.JPG,AFNE01.JPG,,,,,,,,,,,,,,,,,1,3,13,5,,,,,,,AFNE11.jpg,AFSA10.jpg,AFNE05.jpg,AFSA20.jpg,AFSA10.jpg,FS,4,num_6,16,num_6,0.45020205024,,,2017_Oct_05_1032,60.0096429943,FEMA4ImagesEEG,001,201671,
AFNE01.JPG,AFNE01.JPG,AFNE01.JPG,AFNE01.JPG,AFNE01.JPG,AFNE01.JPG,,,,,,,,,,,,,,,,,1,4,14,4,,,,,,,AFNE12.jpg,AFSA04.jpg,AFNE09.jpg,AFSA02.jpg,AFSA04.jpg,FS,4,num_6,16,num_6,0.500181057811,,,2017_Oct_05_1032,60.0096429943,FEMA4ImagesEEG,001,201671,
AFNE01.JPG,AFNE01.JPG,AFNE01.JPG,AFNE01.JPG,AFNE01.JPG,AFNE01.JPG,,,,,,,,,,,,,,,,,1,5,15,9,,,,,,,AFSA19.jpg,AFSA02.jpg,AFNE18.jpg,AFNE09.jpg,AFSA02.jpg,FS,4,num_6,16,num_6,0.400150876143,,,2017_Oct_05_1032,60.0096429943,FEMA4ImagesEEG,001,201671,
AFNE01.JPG,AFNE01.JPG,AFNE01.JPG,AFNE01.JPG,AFNE01.JPG,AFNE01.JPG,,,,,,,,,,,,,,,,,1,6,16,8,,,,,,,AFSA13.jpg,AFNE03.jpg,AFSA11.jpg,AFNE19.jpg,AFSA11.jpg,FS,4,num_2,32,num_8,0.7501145844,,,2017_Oct_05_1032,60.0096429943,FEMA4ImagesEEG,001,201671,
AFNE01.JPG,AFNE01.JPG,AFNE01.JPG,AFNE01.JPG,AFNE01.JPG,AFNE01.JPG,,,,,,,,,,,,,,,,,1,7,17,2,,,,,,,AFSA02.jpg,AFSA05.jpg,AFNE15.jpg,AFNE20.jpg,AFSA02.jpg,FS,4,num_8,16,num_8,0.516764604661,,,2017_Oct_05_1032,60.0096429943,FEMA4ImagesEEG,001,201671,
AFNE01.JPG,AFNE01.JPG,AFNE01.JPG,AFNE01.JPG,AFNE01.JPG,AFNE01.JPG,,,,,,,,,,,,,,,,,1,8,18,7,,,,,,,AFSA13.jpg,AFNE18.jpg,AFNE13.jpg,AFSA04.jpg,AFSA13.jpg,FS,4,num_8,16,num_8,0.533466504625,,,2017_Oct_05_1032,60.0096429943,FEMA4ImagesEEG,001,201671,
AFNE01.JPG,AFNE01.JPG,AFNE01.JPG,AFNE01.JPG,AFNE01.JPG,AFNE01.JPG,,,,,,,,,,,,,,,,,1,9,19,3,,,,,,,AFNE12.jpg,AFSA14.jpg,AFNE20.jpg,AFSA16.jpg,AFNE20.jpg,FN,3,num_2,16,num_2,0.63351111958,,,2017_Oct_05_1032,60.0096429943,FEMA4ImagesEEG,001,201671,
AFNE01.JPG,AFNE01.JPG,AFNE01.JPG,AFNE01.JPG,AFNE01.JPG,AFNE01.JPG,,,,,,,,,,,,,,,,,2,0,20,5,,,,,,,AFSA04.jpg,AFNE01.jpg,AFSA09.jpg,AFNE16.jpg,AFNE16.jpg,FN,3,num_4,16,num_4,0.533491522336,,,2017_Oct_05_1032,60.0096429943,FEMA4ImagesEEG,001,201671,
AFNE01.JPG,AFNE01.JPG,AFNE01.JPG,AFNE01.JPG,AFNE01.JPG,AFNE01.JPG,,,,,,,,,,,,,,,,,2,1,21,2,,,,,,,AFNE08.jpg,AFSA07.jpg,AFSA20.jpg,AFNE07.jpg,AFSA20.jpg,FS,4,num_2,16,num_2,0.633475196693,,,2017_Oct_05_1032,60.0096429943,FEMA4ImagesEEG,001,201671,
AFNE01.JPG,AFNE01.JPG,AFNE01.JPG,AFNE01.JPG,AFNE01.JPG,AFNE01.JPG,,,,,,,,,,,,,,,,,2,2,22,8,,,,,,,AFNE12.jpg,AFNE07.jpg,AFSA03.jpg,AFSA13.jpg,AFSA13.jpg,FS,4,num_4,16,num_4,0.900448041881,,,2017_Oct_05_1032,60.0096429943,FEMA4ImagesEEG,001,201671,
AFNE01.JPG,AFNE01.JPG,AFNE01.JPG,AFNE01.JPG,AFNE01.JPG,AFNE01.JPG,,,,,,,,,,,,,,,,,2,3,23,0,,,,,,,AFSA07.jpg,AFSA06.jpg,AFNE04.jpg,AFNE06.jpg,AFSA06.jpg,FS,4,num_6,32,num_2,0.61679574853,,,2017_Oct_05_1032,60.0096429943,FEMA4ImagesEEG,001,201671,
AFNE01.JPG,AFNE01.JPG,AFNE01.JPG,AFNE01.JPG,AFNE01.JPG,AFNE01.JPG,,,,,,,,,,,,,,,,,2,4,24,3,,,,,,,AFSA01.jpg,AFSA15.jpg,AFNE07.jpg,AFNE01.jpg,AFNE01.jpg,FN,3,num_4,16,num_4,0.966864659538,,,2017_Oct_05_1032,60.0096429943,FEMA4ImagesEEG,001,201671,
AFNE01.JPG,AFNE01.JPG,AFNE01.JPG,AFNE01.JPG,AFNE01.JPG,AFNE01.JPG,,,,,,,,,,,,,,,,,2,5,25,9,,,,,,,AFNE16.jpg,AFNE12.jpg,AFSA07.jpg,AFSA04.jpg,AFSA07.jpg,FS,4,num_2,32,num_4,0.733446041413,,,2017_Oct_05_1032,60.0096429943,FEMA4ImagesEEG,001,201671,
AFNE01.JPG,AFNE01.JPG,AFNE01.JPG,AFNE01.JPG,AFNE01.JPG,AFNE01.JPG,,,,,,,,,,,,,,,,,2,6,26,6,,,,,,,AFSA12.jpg,AFSA11.jpg,AFNE19.jpg,AFNE12.jpg,AFSA12.jpg,FS,4,num_8,32,num_4,0.766819050274,,,2017_Oct_05_1032,60.0096429943,FEMA4ImagesEEG,001,201671,
AFNE01.JPG,AFNE01.JPG,AFNE01.JPG,AFNE01.JPG,AFNE01.JPG,AFNE01.JPG,,,,,,,,,,,,,,,,,2,7,27,1,,,,,,,AFSA19.jpg,AFSA14.jpg,AFNE10.jpg,AFNE04.jpg,AFSA14.jpg,FS,4,num_6,32,num_8,0.650383653265,,,2017_Oct_05_1032,60.0096429943,FEMA4ImagesEEG,001,201671,
AFNE01.JPG,AFNE01.JPG,AFNE01.JPG,AFNE01.JPG,AFNE01.JPG,AFNE01.JPG,,,,,,,,,,,,,,,,,2,8,28,4,,,,,,,AFNE14.jpg,AFSA18.jpg,AFNE09.jpg,AFSA10.jpg,AFSA10.jpg,FS,4,num_4,16,num_4,0.56681577873,,,2017_Oct_05_1032,60.0096429943,FEMA4ImagesEEG,001,201671,
AFNE01.JPG,AFNE01.JPG,AFNE01.JPG,AFNE01.JPG,AFNE01.JPG,AFNE01.JPG,,,,,,,,,,,,,,,,,2,9,29,7,,,,,,,AFNE20.jpg,AFNE11.jpg,AFSA01.jpg,AFSA16.jpg,AFNE11.jpg,FN,3,num_6,16,num_6,0.683442978363,,,2017_Oct_05_1032,60.0096429943,FEMA4ImagesEEG,001,201671,
AFNE01.JPG,AFNE01.JPG,AFNE01.JPG,AFNE01.JPG,AFNE01.JPG,AFNE01.JPG,,,,,,,,,,,,,,,,,3,0,30,7,,,,,,,AFNE09.jpg,AFSA20.jpg,AFSA07.jpg,AFNE04.jpg,AFSA07.jpg,FS,4,num_2,16,num_2,0.583432361862,,,2017_Oct_05_1032,60.0096429943,FEMA4ImagesEEG,001,201671,
AFNE01.JPG,AFNE01.JPG,AFNE01.JPG,AFNE01.JPG,AFNE01.JPG,AFNE01.JPG,,,,,,,,,,,,,,,,,3,1,31,9,,,,,,,AFSA12.jpg,AFNE12.jpg,AFSA19.jpg,AFNE09.jpg,AFNE12.jpg,FN,3,num_6,16,num_6,0.583480793604,,,2017_Oct_05_1032,60.0096429943,FEMA4ImagesEEG,001,201671,
AFNE01.JPG,AFNE01.JPG,AFNE01.JPG,AFNE01.JPG,AFNE01.JPG,AFNE01.JPG,,,,,,,,,,,,,,,,,3,2,32,4,,,,,,,AFSA16.jpg,AFNE07.jpg,AFSA05.jpg,AFNE15.jpg,AFNE07.jpg,FN,3,num_6,32,num_8,2.23330988723,,,2017_Oct_05_1032,60.0096429943,FEMA4ImagesEEG,001,201671,
AFNE01.JPG,AFNE01.JPG,AFNE01.JPG,AFNE01.JPG,AFNE01.JPG,AFNE01.JPG,,,,,,,,,,,,,,,,,3,3,33,6,,,,,,,AFNE12.jpg,AFSA20.jpg,AFNE02.jpg,AFSA02.jpg,AFSA02.jpg,FS,4,num_4,16,num_4,0.533472598676,,,2017_Oct_05_1032,60.0096429943,FEMA4ImagesEEG,001,201671,
AFNE01.JPG,AFNE01.JPG,AFNE01.JPG,AFNE01.JPG,AFNE01.JPG,AFNE01.JPG,,,,,,,,,,,,,,,,,3,4,34,8,,,,,,,AFNE02.jpg,AFNE04.jpg,AFSA03.jpg,AFSA05.jpg,AFNE04.jpg,FN,3,num_6,32,num_8,0.516816885298,,,2017_Oct_05_1032,60.0096429943,FEMA4ImagesEEG,001,201671,
AFNE01.JPG,AFNE01.JPG,AFNE01.JPG,AFNE01.JPG,AFNE01.JPG,AFNE01.JPG,,,,,,,,,,,,,,,,,3,5,35,3,,,,,,,AFSA09.jpg,AFSA12.jpg,AFNE15.jpg,AFNE04.jpg,AFSA09.jpg,FS,4,num_8,32,num_4,0.700114728737,,,2017_Oct_05_1032,60.0096429943,FEMA4ImagesEEG,001,201671,
AFNE01.JPG,AFNE01.JPG,AFNE01.JPG,AFNE01.JPG,AFNE01.JPG,AFNE01.JPG,,,,,,,,,,,,,,,,,3,6,36,5,,,,,,,AFNE18.jpg,AFNE02.jpg,AFSA06.jpg,AFSA19.jpg,AFSA19.jpg,FS,4,num_4,32,num_2,0.716786158417,,,2017_Oct_05_1032,60.0096429943,FEMA4ImagesEEG,001,201671,
AFNE01.JPG,AFNE01.JPG,AFNE01.JPG,AFNE01.JPG,AFNE01.JPG,AFNE01.JPG,,,,,,,,,,,,,,,,,3,7,37,1,,,,,,,AFNE08.jpg,AFSA14.jpg,AFSA20.jpg,AFNE03.jpg,AFNE08.jpg,FN,3,num_8,16,num_8,0.733367460081,,,2017_Oct_05_1032,60.0096429943,FEMA4ImagesEEG,001,201671,
AFNE01.JPG,AFNE01.JPG,AFNE01.JPG,AFNE01.JPG,AFNE01.JPG,AFNE01.JPG,,,,,,,,,,,,,,,,,3,8,38,2,,,,,,,AFSA16.jpg,AFNE04.jpg,AFSA05.jpg,AFNE01.jpg,AFNE04.jpg,FN,3,num_6,32,num_4,0.850393339642,,,2017_Oct_05_1032,60.0096429943,FEMA4ImagesEEG,001,201671,
AFNE01.JPG,AFNE01.JPG,AFNE01.JPG,AFNE01.JPG,AFNE01.JPG,AFNE01.JPG,,,,,,,,,,,,,,,,,3,9,39,0,,,,,,,AFSA03.jpg,AFNE18.jpg,AFNE07.jpg,AFSA14.jpg,AFNE07.jpg,FN,3,num_2,32,num_6,0.650134117459,,,2017_Oct_05_1032,60.0096429943,FEMA4ImagesEEG,001,201671,
AFNE01.JPG,AFNE01.JPG,AFNE01.JPG,AFNE01.JPG,AFNE01.JPG,AFNE01.JPG,,,,,,,,,,,,,,,,,4,0,40,1,,,,,,,AFSA18.jpg,AFNE14.jpg,AFSA10.jpg,AFNE16.jpg,AFNE16.jpg,FN,3,num_4,32,num_6,0.58343556925,,,2017_Oct_05_1032,60.0096429943,FEMA4ImagesEEG,001,201671,
AFNE01.JPG,AFNE01.JPG,AFNE01.JPG,AFNE01.JPG,AFNE01.JPG,AFNE01.JPG,,,,,,,,,,,,,,,,,4,1,41,6,,,,,,,AFNE10.jpg,AFSA17.jpg,AFNE08.jpg,AFSA14.jpg,AFNE08.jpg,FN,3,num_2,32,num_4,0.683480825654,,,2017_Oct_05_1032,60.0096429943,FEMA4ImagesEEG,001,201671,
AFNE01.JPG,AFNE01.JPG,AFNE01.JPG,AFNE01.JPG,AFNE01.JPG,AFNE01.JPG,,,,,,,,,,,,,,,,,4,2,42,4,,,,,,,AFNE09.jpg,AFSA09.jpg,AFSA03.jpg,AFNE16.jpg,AFNE16.jpg,FN,3,num_4,16,num_4,0.933448992233,,,2017_Oct_05_1032,60.0096429943,FEMA4ImagesEEG,001,201671,
AFNE01.JPG,AFNE01.JPG,AFNE01.JPG,AFNE01.JPG,AFNE01.JPG,AFNE01.JPG,,,,,,,,,,,,,,,,,4,3,43,5,,,,,,,AFNE17.jpg,AFSA01.jpg,AFSA14.jpg,AFNE04.jpg,AFSA14.jpg,FS,4,num_2,32,num_4,0.666757756844,,,2017_Oct_05_1032,60.0096429943,FEMA4ImagesEEG,001,201671,
AFNE01.JPG,AFNE01.JPG,AFNE01.JPG,AFNE01.JPG,AFNE01.JPG,AFNE01.JPG,,,,,,,,,,,,,,,,,4,4,44,8,,,,,,,AFSA15.jpg,AFNE03.jpg,AFNE12.jpg,AFSA06.jpg,AFNE12.jpg,FN,3,num_2,32,num_8,0.650153682625,,,2017_Oct_05_1032,60.0096429943,FEMA4ImagesEEG,001,201671,
AFNE01.JPG,AFNE01.JPG,AFNE01.JPG,AFNE01.JPG,AFNE01.JPG,AFNE01.JPG,,,,,,,,,,,,,,,,,4,5,45,3,,,,,,,AFSA19.jpg,AFSA09.jpg,AFNE10.jpg,AFNE14.jpg,AFSA19.jpg,FS,4,num_8,32,num_2,0.750088925182,,,2017_Oct_05_1032,60.0096429943,FEMA4ImagesEEG,001,201671,
AFNE01.JPG,AFNE01.JPG,AFNE01.JPG,AFNE01.JPG,AFNE01.JPG,AFNE01.JPG,,,,,,,,,,,,,,,,,4,6,46,9,,,,,,,AFNE15.jpg,AFSA02.jpg,AFNE02.jpg,AFSA11.jpg,AFSA11.jpg,FS,4,num_4,16,num_4,0.483499043708,,,2017_Oct_05_1032,60.0096429943,FEMA4ImagesEEG,001,201671,
AFNE01.JPG,AFNE01.JPG,AFNE01.JPG,AFNE01.JPG,AFNE01.JPG,AFNE01.JPG,,,,,,,,,,,,,,,,,4,7,47,0,,,,,,,AFSA16.jpg,AFNE14.jpg,AFSA13.jpg,AFNE06.jpg,AFNE06.jpg,FN,3,num_4,16,num_4,0.599836935726,,,2017_Oct_05_1032,60.0096429943,FEMA4ImagesEEG,001,201671,
AFNE01.JPG,AFNE01.JPG,AFNE01.JPG,AFNE01.JPG,AFNE01.JPG,AFNE01.JPG,,,,,,,,,,,,,,,,,4,8,48,2,,,,,,,AFNE07.jpg,AFSA17.jpg,AFSA02.jpg,AFNE05.jpg,AFSA17.jpg,FS,4,num_6,16,num_6,0.466869630996,,,2017_Oct_05_1032,60.0096429943,FEMA4ImagesEEG,001,201671,
AFNE01.JPG,AFNE01.JPG,AFNE01.JPG,AFNE01.JPG,AFNE01.JPG,AFNE01.JPG,,,,,,,,,,,,,,,,,4,9,49,7,,,,,,,AFSA06.jpg,AFNE01.jpg,AFNE09.jpg,AFSA08.jpg,AFNE01.jpg,FN,3,num_6,16,num_6,0.566804873582,,,2017_Oct_05_1032,60.0096429943,FEMA4ImagesEEG,001,201671,
AFNE01.JPG,AFNE01.JPG,AFNE01.JPG,AFNE01.JPG,AFNE01.JPG,AFNE01.JPG,,,,,,,,,,,,,,,,,5,0,50,4,,,,,,,AFSA10.jpg,AFSA07.jpg,AFNE01.jpg,AFNE02.jpg,AFNE01.jpg,FN,3,num_2,16,num_2,1.41679792956,,,2017_Oct_05_1032,60.0096429943,FEMA4ImagesEEG,001,201671,
AFNE01.JPG,AFNE01.JPG,AFNE01.JPG,AFNE01.JPG,AFNE01.JPG,AFNE01.JPG,,,,,,,,,,,,,,,,,5,1,51,6,,,,,,,AFSA03.jpg,AFSA11.jpg,AFNE18.jpg,AFNE14.jpg,AFNE14.jpg,FN,3,num_4,16,num_4,0.650131230825,,,2017_Oct_05_1032,60.0096429943,FEMA4ImagesEEG,001,201671,
AFNE01.JPG,AFNE01.JPG,AFNE01.JPG,AFNE01.JPG,AFNE01.JPG,AFNE01.JPG,,,,,,,,,,,,,,,,,5,2,52,8,,,,,,,AFNE08.jpg,AFSA04.jpg,AFNE09.jpg,AFSA20.jpg,AFSA20.jpg,FS,4,num_4,16,num_4,0.916758318141,,,2017_Oct_05_1032,60.0096429943,FEMA4ImagesEEG,001,201671,
AFNE01.JPG,AFNE01.JPG,AFNE01.JPG,AFNE01.JPG,AFNE01.JPG,AFNE01.JPG,,,,,,,,,,,,,,,,,5,3,53,0,,,,,,,AFNE09.jpg,AFNE15.jpg,AFSA10.jpg,AFSA01.jpg,AFSA01.jpg,FS,4,num_4,16,num_4,0.566791402496,,,2017_Oct_05_1032,60.0096429943,FEMA4ImagesEEG,001,201671,
AFNE01.JPG,AFNE01.JPG,AFNE01.JPG,AFNE01.JPG,AFNE01.JPG,AFNE01.JPG,,,,,,,,,,,,,,,,,5,4,54,5,,,,,,,AFNE13.jpg,AFSA13.jpg,AFNE19.jpg,AFSA10.jpg,AFNE19.jpg,FN,3,num_2,16,num_2,0.533475164586,,,2017_Oct_05_1032,60.0096429943,FEMA4ImagesEEG,001,201671,
AFNE01.JPG,AFNE01.JPG,AFNE01.JPG,AFNE01.JPG,AFNE01.JPG,AFNE01.JPG,,,,,,,,,,,,,,,,,5,5,55,7,,,,,,,AFSA10.jpg,AFSA11.jpg,AFNE12.jpg,AFNE10.jpg,AFNE12.jpg,FN,3,num_2,16,num_2,0.816775926767,,,2017_Oct_05_1032,60.0096429943,FEMA4ImagesEEG,001,201671,
AFNE01.JPG,AFNE01.JPG,AFNE01.JPG,AFNE01.JPG,AFNE01.JPG,AFNE01.JPG,,,,,,,,,,,,,,,,,5,6,56,9,,,,,,,AFSA03.jpg,AFNE07.jpg,AFSA02.jpg,AFNE11.jpg,AFSA02.jpg,FS,4,num_2,32,num_4,0.98344756494,,,2017_Oct_05_1032,60.0096429943,FEMA4ImagesEEG,001,201671,
AFNE01.JPG,AFNE01.JPG,AFNE01.JPG,AFNE01.JPG,AFNE01.JPG,AFNE01.JPG,,,,,,,,,,,,,,,,,5,7,57,1,,,,,,,AFSA14.jpg,AFNE20.jpg,AFSA01.jpg,AFNE19.jpg,AFSA14.jpg,FS,4,num_8,32,num_4,0.683447468706,,,2017_Oct_05_1032,60.0096429943,FEMA4ImagesEEG,001,201671,
AFNE01.JPG,AFNE01.JPG,AFNE01.JPG,AFNE01.JPG,AFNE01.JPG,AFNE01.JPG,,,,,,,,,,,,,,,,,5,8,58,2,,,,,,,AFNE13.jpg,AFSA08.jpg,AFSA10.jpg,AFNE03.jpg,AFSA08.jpg,FS,4,num_6,32,num_8,0.683466392366,,,2017_Oct_05_1032,60.0096429943,FEMA4ImagesEEG,001,201671,
AFNE01.JPG,AFNE01.JPG,AFNE01.JPG,AFNE01.JPG,AFNE01.JPG,AFNE01.JPG,,,,,,,,,,,,,,,,,5,9,59,3,,,,,,,AFNE13.jpg,AFNE09.jpg,AFSA08.jpg,AFSA09.jpg,AFNE09.jpg,FN,3,num_6,32,num_4,0.666785340494,,,2017_Oct_05_1032,60.0096429943,FEMA4ImagesEEG,001,201671,
,,,,,,,,,,,,,,,,,,,,,,,,,,,,,,,,,,,,,,,,,,,space,5.26645677432,2017_Oct_05_1032,60.0096429943,FEMA4ImagesEEG,001,201671,
AFNE01.JPG,AFNE01.JPG,AFNE01.JPG,AFNE01.JPG,AFNE01.JPG,AFNE01.JPG,,,,,,,,,,,,,,,,,,,,,0,0,0,2,,,AMSA02.jpg,AMNE02.jpg,AMSA10.jpg,AMNE14.jpg,AMNE14.jpg,MN,1,num_4,32,num_8,0.783509082888,,,2017_Oct_05_1032,60.0096429943,FEMA4ImagesEEG,001,201671,
AFNE01.JPG,AFNE01.JPG,AFNE01.JPG,AFNE01.JPG,AFNE01.JPG,AFNE01.JPG,,,,,,,,,,,,,,,,,,,,,0,1,1,4,,,AMSA18.jpg,AMSA06.jpg,AMNE10.jpg,AMNE12.jpg,AMSA06.jpg,MS,2,num_6,16,num_6,1.05009447399,,,2017_Oct_05_1032,60.0096429943,FEMA4ImagesEEG,001,201671,
AFNE01.JPG,AFNE01.JPG,AFNE01.JPG,AFNE01.JPG,AFNE01.JPG,AFNE01.JPG,,,,,,,,,,,,,,,,,,,,,0,2,2,0,,,AMNE10.jpg,AMNE15.jpg,AMSA13.jpg,AMSA11.jpg,AMSA11.jpg,MS,2,num_4,16,num_4,0.56680808097,,,2017_Oct_05_1032,60.0096429943,FEMA4ImagesEEG,001,201671,
AFNE01.JPG,AFNE01.JPG,AFNE01.JPG,AFNE01.JPG,AFNE01.JPG,AFNE01.JPG,,,,,,,,,,,,,,,,,,,,,0,3,3,3,,,AMSA16.jpg,AMNE15.jpg,AMSA11.jpg,AMNE17.jpg,AMSA11.jpg,MS,2,num_2,32,num_4,0.700108313933,,,2017_Oct_05_1032,60.0096429943,FEMA4ImagesEEG,001,201671,
AFNE01.JPG,AFNE01.JPG,AFNE01.JPG,AFNE01.JPG,AFNE01.JPG,AFNE01.JPG,,,,,,,,,,,,,,,,,,,,,0,4,4,5,,,AMNE15.jpg,AMSA03.jpg,AMNE20.jpg,AMSA14.jpg,AMNE20.jpg,MN,1,num_2,16,num_2,0.666816452285,,,2017_Oct_05_1032,60.0096429943,FEMA4ImagesEEG,001,201671,
AFNE01.JPG,AFNE01.JPG,AFNE01.JPG,AFNE01.JPG,AFNE01.JPG,AFNE01.JPG,,,,,,,,,,,,,,,,,,,,,0,5,5,8,,,AMSA15.jpg,AMNE15.jpg,AMSA17.jpg,AMNE18.jpg,AMNE18.jpg,MN,1,num_4,32,num_6,0.916794882505,,,2017_Oct_05_1032,60.0096429943,FEMA4ImagesEEG,001,201671,
AFNE01.JPG,AFNE01.JPG,AFNE01.JPG,AFNE01.JPG,AFNE01.JPG,AFNE01.JPG,,,,,,,,,,,,,,,,,,,,,0,6,6,7,,,AMNE13.jpg,AMSA16.jpg,AMNE02.jpg,AMSA12.jpg,AMSA16.jpg,MS,2,num_6,16,num_6,0.933427823358,,,2017_Oct_05_1032,60.0096429943,FEMA4ImagesEEG,001,201671,
AFNE01.JPG,AFNE01.JPG,AFNE01.JPG,AFNE01.JPG,AFNE01.JPG,AFNE01.JPG,,,,,,,,,,,,,,,,,,,,,0,7,7,1,,,AMNE19.jpg,AMSA04.jpg,AMSA15.jpg,AMNE02.jpg,AMNE02.jpg,MN,1,num_4,16,num_4,0.716817270179,,,2017_Oct_05_1032,60.0096429943,FEMA4ImagesEEG,001,201671,
AFNE01.JPG,AFNE01.JPG,AFNE01.JPG,AFNE01.JPG,AFNE01.JPG,AFNE01.JPG,,,,,,,,,,,,,,,,,,,,,0,8,8,6,,,AMNE20.jpg,AMSA15.jpg,AMNE04.jpg,AMSA17.jpg,AMNE20.jpg,MN,1,num_8,32,num_4,0.733486775425,,,2017_Oct_05_1032,60.0096429943,FEMA4ImagesEEG,001,201671,
AFNE01.JPG,AFNE01.JPG,AFNE01.JPG,AFNE01.JPG,AFNE01.JPG,AFNE01.JPG,,,,,,,,,,,,,,,,,,,,,0,9,9,9,,,AMSA06.jpg,AMSA16.jpg,AMNE04.jpg,AMNE05.jpg,AMNE04.jpg,MN,1,num_2,32,num_4,0.683178047009,,,2017_Oct_05_1032,60.0096429943,FEMA4ImagesEEG,001,201671,
AFNE01.JPG,AFNE01.JPG,AFNE01.JPG,AFNE01.JPG,AFNE01.JPG,AFNE01.JPG,,,,,,,,,,,,,,,,,,,,,1,0,10,7,,,AMNE17.jpg,AMNE04.jpg,AMSA09.jpg,AMSA08.jpg,AMSA09.jpg,MS,2,num_2,16,num_2,0.833482317132,,,2017_Oct_05_1032,60.0096429943,FEMA4ImagesEEG,001,201671,
AFNE01.JPG,AFNE01.JPG,AFNE01.JPG,AFNE01.JPG,AFNE01.JPG,AFNE01.JPG,,,,,,,,,,,,,,,,,,,,,1,1,11,2,,,AMNE20.jpg,AMSA13.jpg,AMNE13.jpg,AMSA11.jpg,AMSA13.jpg,MS,2,num_6,32,num_8,1.10007251933,,,2017_Oct_05_1032,60.0096429943,FEMA4ImagesEEG,001,201671,
AFNE01.JPG,AFNE01.JPG,AFNE01.JPG,AFNE01.JPG,AFNE01.JPG,AFNE01.JPG,,,,,,,,,,,,,,,,,,,,,1,2,12,1,,,AMSA04.jpg,AMNE04.jpg,AMNE05.jpg,AMSA15.jpg,AMSA04.jpg,MS,2,num_8,32,num_6,0.683494617493,,,2017_Oct_05_1032,60.0096429943,FEMA4ImagesEEG,001,201671,
AFNE01.JPG,AFNE01.JPG,AFNE01.JPG,AFNE01.JPG,AFNE01.JPG,AFNE01.JPG,,,,,,,,,,,,,,,,,,,,,1,3,13,9,,,AMSA14.jpg,AMNE09.jpg,AMNE04.jpg,AMSA05.jpg,AMSA14.jpg,MS,2,num_8,32,num_2,0.70018048046,,,2017_Oct_05_1032,60.0096429943,FEMA4ImagesEEG,001,201671,
AFNE01.JPG,AFNE01.JPG,AFNE01.JPG,AFNE01.JPG,AFNE01.JPG,AFNE01.JPG,,,,,,,,,,,,,,,,,,,,,1,4,14,6,,,AMNE17.jpg,AMSA09.jpg,AMNE07.jpg,AMSA05.jpg,AMSA05.jpg,MS,2,num_4,16,num_4,0.616767202649,,,2017_Oct_05_1032,60.0096429943,FEMA4ImagesEEG,001,201671,
AFNE01.JPG,AFNE01.JPG,AFNE01.JPG,AFNE01.JPG,AFNE01.JPG,AFNE01.JPG,,,,,,,,,,,,,,,,,,,,,1,5,15,8,,,AMNE19.jpg,AMSA01.jpg,AMSA12.jpg,AMNE16.jpg,AMNE19.jpg,MN,1,num_8,16,num_8,1.45014720366,,,2017_Oct_05_1032,60.0096429943,FEMA4ImagesEEG,001,201671,
AFNE01.JPG,AFNE01.JPG,AFNE01.JPG,AFNE01.JPG,AFNE01.JPG,AFNE01.JPG,,,,,,,,,,,,,,,,,,,,,1,6,16,3,,,AMNE13.jpg,AMNE06.jpg,AMSA08.jpg,AMSA09.jpg,AMSA09.jpg,MS,2,num_4,16,num_4,0.683506484871,,,2017_Oct_05_1032,60.0096429943,FEMA4ImagesEEG,001,201671,
AFNE01.JPG,AFNE01.JPG,AFNE01.JPG,AFNE01.JPG,AFNE01.JPG,AFNE01.JPG,,,,,,,,,,,,,,,,,,,,,1,7,17,4,,,AMSA03.jpg,AMNE20.jpg,AMNE13.jpg,AMSA17.jpg,AMSA17.jpg,MS,2,num_4,32,num_8,0.80015132518,,,2017_Oct_05_1032,60.0096429943,FEMA4ImagesEEG,001,201671,
AFNE01.JPG,AFNE01.JPG,AFNE01.JPG,AFNE01.JPG,AFNE01.JPG,AFNE01.JPG,,,,,,,,,,,,,,,,,,,,,1,8,18,5,,,AMSA06.jpg,AMNE04.jpg,AMSA17.jpg,AMNE15.jpg,AMSA17.jpg,MS,2,num_2,32,num_4,0.966720967961,,,2017_Oct_05_1032,60.0096429943,FEMA4ImagesEEG,001,201671,
AFNE01.JPG,AFNE01.JPG,AFNE01.JPG,AFNE01.JPG,AFNE01.JPG,AFNE01.JPG,,,,,,,,,,,,,,,,,,,,,1,9,19,0,,,AMSA10.jpg,AMSA04.jpg,AMNE04.jpg,AMNE18.jpg,AMNE18.jpg,MN,1,num_4,32,num_8,0.983480280411,,,2017_Oct_05_1032,60.0096429943,FEMA4ImagesEEG,001,201671,
AFNE01.JPG,AFNE01.JPG,AFNE01.JPG,AFNE01.JPG,AFNE01.JPG,AFNE01.JPG,,,,,,,,,,,,,,,,,,,,,2,0,20,5,,,AMNE14.jpg,AMSA04.jpg,AMSA10.jpg,AMNE20.jpg,AMNE14.jpg,MN,1,num_8,32,num_4,0.683487881935,,,2017_Oct_05_1032,60.0096429943,FEMA4ImagesEEG,001,201671,
AFNE01.JPG,AFNE01.JPG,AFNE01.JPG,AFNE01.JPG,AFNE01.JPG,AFNE01.JPG,,,,,,,,,,,,,,,,,,,,,2,1,21,4,,,AMSA01.jpg,AMSA13.jpg,AMNE12.jpg,AMNE11.jpg,AMSA13.jpg,MS,2,num_6,16,num_6,0.750001042412,,,2017_Oct_05_1032,60.0096429943,FEMA4ImagesEEG,001,201671,
AFNE01.JPG,AFNE01.JPG,AFNE01.JPG,AFNE01.JPG,AFNE01.JPG,AFNE01.JPG,,,,,,,,,,,,,,,,,,,,,2,2,22,8,,,AMSA13.jpg,AMNE07.jpg,AMSA02.jpg,AMNE09.jpg,AMSA13.jpg,MS,2,num_8,32,num_4,0.733438985102,,,2017_Oct_05_1032,60.0096429943,FEMA4ImagesEEG,001,201671,
AFNE01.JPG,AFNE01.JPG,AFNE01.JPG,AFNE01.JPG,AFNE01.JPG,AFNE01.JPG,,,,,,,,,,,,,,,,,,,,,2,3,23,3,,,AMNE06.jpg,AMNE04.jpg,AMSA10.jpg,AMSA16.jpg,AMNE06.jpg,MN,1,num_8,32,num_4,0.633510478103,,,2017_Oct_05_1032,60.0096429943,FEMA4ImagesEEG,001,201671,
AFNE01.JPG,AFNE01.JPG,AFNE01.JPG,AFNE01.JPG,AFNE01.JPG,AFNE01.JPG,,,,,,,,,,,,,,,,,,,,,2,4,24,7,,,AMSA11.jpg,AMNE09.jpg,AMNE02.jpg,AMSA05.jpg,AMSA05.jpg,MS,2,num_4,32,num_8,0.68347024126,,,2017_Oct_05_1032,60.0096429943,FEMA4ImagesEEG,001,201671,
AFNE01.JPG,AFNE01.JPG,AFNE01.JPG,AFNE01.JPG,AFNE01.JPG,AFNE01.JPG,,,,,,,,,,,,,,,,,,,,,2,5,25,6,,,AMSA20.jpg,AMSA17.jpg,AMNE20.jpg,AMNE19.jpg,AMSA17.jpg,MS,2,num_6,32,num_4,0.650155286334,,,2017_Oct_05_1032,60.0096429943,FEMA4ImagesEEG,001,201671,
AFNE01.JPG,AFNE01.JPG,AFNE01.JPG,AFNE01.JPG,AFNE01.JPG,AFNE01.JPG,,,,,,,,,,,,,,,,,,,,,2,6,26,9,,,AMNE12.jpg,AMNE17.jpg,AMSA02.jpg,AMSA06.jpg,AMSA02.jpg,MS,2,num_2,16,num_2,0.750148903579,,,2017_Oct_05_1032,60.0096429943,FEMA4ImagesEEG,001,201671,
AFNE01.JPG,AFNE01.JPG,AFNE01.JPG,AFNE01.JPG,AFNE01.JPG,AFNE01.JPG,,,,,,,,,,,,,,,,,,,,,2,7,27,0,,,AMNE05.jpg,AMSA20.jpg,AMSA06.jpg,AMNE16.jpg,AMSA06.jpg,MS,2,num_2,16,num_2,0.583433965541,,,2017_Oct_05_1032,60.0096429943,FEMA4ImagesEEG,001,201671,
AFNE01.JPG,AFNE01.JPG,AFNE01.JPG,AFNE01.JPG,AFNE01.JPG,AFNE01.JPG,,,,,,,,,,,,,,,,,,,,,2,8,28,1,,,AMNE17.jpg,AMSA12.jpg,AMNE14.jpg,AMSA01.jpg,AMNE14.jpg,MN,1,num_2,32,num_8,0.650134117488,,,2017_Oct_05_1032,60.0096429943,FEMA4ImagesEEG,001,201671,
AFNE01.JPG,AFNE01.JPG,AFNE01.JPG,AFNE01.JPG,AFNE01.JPG,AFNE01.JPG,,,,,,,,,,,,,,,,,,,,,2,9,29,2,,,AMNE19.jpg,AMSA19.jpg,AMSA15.jpg,AMNE04.jpg,AMSA15.jpg,MS,2,num_2,16,num_2,0.483528231067,,,2017_Oct_05_1032,60.0096429943,FEMA4ImagesEEG,001,201671,
AFNE01.JPG,AFNE01.JPG,AFNE01.JPG,AFNE01.JPG,AFNE01.JPG,AFNE01.JPG,,,,,,,,,,,,,,,,,,,,,3,0,30,4,,,AMSA11.jpg,AMNE10.jpg,AMSA18.jpg,AMNE05.jpg,AMSA11.jpg,MS,2,num_8,16,num_8,0.600135224027,,,2017_Oct_05_1032,60.0096429943,FEMA4ImagesEEG,001,201671,
AFNE01.JPG,AFNE01.JPG,AFNE01.JPG,AFNE01.JPG,AFNE01.JPG,AFNE01.JPG,,,,,,,,,,,,,,,,,,,,,3,1,31,3,,,AMSA07.jpg,AMSA20.jpg,AMNE16.jpg,AMNE18.jpg,AMNE18.jpg,MN,1,num_4,16,num_4,0.68346158127,,,2017_Oct_05_1032,60.0096429943,FEMA4ImagesEEG,001,201671,
AFNE01.JPG,AFNE01.JPG,AFNE01.JPG,AFNE01.JPG,AFNE01.JPG,AFNE01.JPG,,,,,,,,,,,,,,,,,,,,,3,2,32,5,,,AMSA10.jpg,AMNE10.jpg,AMSA14.jpg,AMNE12.jpg,AMSA10.jpg,MS,2,num_8,32,num_2,0.850124880177,,,2017_Oct_05_1032,60.0096429943,FEMA4ImagesEEG,001,201671,
AFNE01.JPG,AFNE01.JPG,AFNE01.JPG,AFNE01.JPG,AFNE01.JPG,AFNE01.JPG,,,,,,,,,,,,,,,,,,,,,3,3,33,6,,,AMNE14.jpg,AMNE18.jpg,AMSA12.jpg,AMSA19.jpg,AMSA19.jpg,MS,2,num_4,16,num_4,0.733465927304,,,2017_Oct_05_1032,60.0096429943,FEMA4ImagesEEG,001,201671,
AFNE01.JPG,AFNE01.JPG,AFNE01.JPG,AFNE01.JPG,AFNE01.JPG,AFNE01.JPG,,,,,,,,,,,,,,,,,,,,,3,4,34,0,,,AMSA10.jpg,AMNE13.jpg,AMNE17.jpg,AMSA12.jpg,AMNE13.jpg,MN,1,num_6,16,num_6,0.566808080999,,,2017_Oct_05_1032,60.0096429943,FEMA4ImagesEEG,001,201671,
AFNE01.JPG,AFNE01.JPG,AFNE01.JPG,AFNE01.JPG,AFNE01.JPG,AFNE01.JPG,,,,,,,,,,,,,,,,,,,,,3,5,35,9,,,AMNE14.jpg,AMSA11.jpg,AMSA14.jpg,AMNE09.jpg,AMSA11.jpg,MS,2,num_6,16,num_6,0.550173536438,,,2017_Oct_05_1032,60.0096429943,FEMA4ImagesEEG,001,201671,
AFNE01.JPG,AFNE01.JPG,AFNE01.JPG,AFNE01.JPG,AFNE01.JPG,AFNE01.JPG,,,,,,,,,,,,,,,,,,,,,3,6,36,7,,,AMSA18.jpg,AMNE08.jpg,AMNE14.jpg,AMSA17.jpg,AMNE14.jpg,MN,1,num_2,16,num_2,0.450134374085,,,2017_Oct_05_1032,60.0096429943,FEMA4ImagesEEG,001,201671,
AFNE01.JPG,AFNE01.JPG,AFNE01.JPG,AFNE01.JPG,AFNE01.JPG,AFNE01.JPG,,,,,,,,,,,,,,,,,,,,,3,7,37,2,,,AMNE04.jpg,AMSA12.jpg,AMNE09.jpg,AMSA16.jpg,AMNE04.jpg,MN,1,num_8,16,num_8,0.850133540167,,,2017_Oct_05_1032,60.0096429943,FEMA4ImagesEEG,001,201671,
AFNE01.JPG,AFNE01.JPG,AFNE01.JPG,AFNE01.JPG,AFNE01.JPG,AFNE01.JPG,,,,,,,,,,,,,,,,,,,,,3,8,38,1,,,AMSA20.jpg,AMSA03.jpg,AMNE11.jpg,AMNE15.jpg,AMSA20.jpg,MS,2,num_8,16,num_8,0.633478724834,,,2017_Oct_05_1032,60.0096429943,FEMA4ImagesEEG,001,201671,
