IPosition2,IPosition3,IPosition1,IPosition6,IPosition4,IPosition5,TrialsF1.thisRepN,TrialsF1.thisTrialN,TrialsF1.thisN,TrialsF1.thisIndex,TrialsM1.thisRepN,TrialsM1.thisTrialN,TrialsM1.thisN,TrialsM1.thisIndex,TrialsF2.thisRepN,TrialsF2.thisTrialN,TrialsF2.thisN,TrialsF2.thisIndex,TrialsM2.thisRepN,TrialsM2.thisTrialN,TrialsM2.thisN,TrialsM2.thisIndex,TrialsF3.thisRepN,TrialsF3.thisTrialN,TrialsF3.thisN,TrialsF3.thisIndex,TrialsM3.thisRepN,TrialsM3.thisTrialN,TrialsM3.thisN,TrialsM3.thisIndex,InstrKey_resp.keys,InstrKey_resp.rt,Image0 _Position,Image1 _Position,Image2 _Position,Image3 _Position,Center_image,condition,code,correct_answer,accuracy,Key_Resp.keys,Key_Resp.rt,BreakKey_resp.keys,BreakKey_resp.rt,date,frameRate,expName,session,participant,
,,,,,,,,,,,,,,,,,,,,,,,,,,,,,,space,3.39997530309,,,,,,,,,,,,,,2017_Nov_08_1521,60.0013279464,FEMA4ImagesEEG,001,201659,
AMNE23.JPG,AMNE24.JPG,AMNE22.JPG,AMSA24.JPG,AMSA22.JPG,AMSA23.JPG,0,0,0,9,,,,,,,,,,,,,,,,,,,,,,,AFSA08.jpg,AFNE15.jpg,AFSA17.jpg,AFNE04.jpg,AFNE04.jpg,FN,3,num_4,16,num_4,0.750034880359,,,2017_Nov_08_1521,60.0013279464,FEMA4ImagesEEG,001,201659,
AMNE22.JPG,AMSA24.JPG,AMSA22.JPG,AMNE25.JPG,AMNE24.JPG,AMSA25.JPG,0,1,1,7,,,,,,,,,,,,,,,,,,,,,,,AFSA11.jpg,AFNE03.jpg,AFNE04.jpg,AFSA17.jpg,AFNE03.jpg,FN,3,num_6,32,num_8,1.08374059247,,,2017_Nov_08_1521,60.0013279464,FEMA4ImagesEEG,001,201659,
AMSA21.JPG,AMNE23.JPG,AMNE21.JPG,AMSA25.JPG,AMNE25.JPG,AMSA23.JPG,0,2,2,5,,,,,,,,,,,,,,,,,,,,,,,AFNE15.jpg,AFNE05.jpg,AFSA18.jpg,AFSA05.jpg,AFSA18.jpg,FS,4,num_2,16,num_2,1.73353443691,,,2017_Nov_08_1521,60.0013279464,FEMA4ImagesEEG,001,201659,
AMSA21.JPG,AMNE22.JPG,AMNE21.JPG,AMSA23.JPG,AMSA22.JPG,AMNE23.JPG,0,3,3,1,,,,,,,,,,,,,,,,,,,,,,,AFNE17.jpg,AFSA02.jpg,AFNE03.jpg,AFSA12.jpg,AFNE03.jpg,FN,3,num_2,32,num_6,0.983392108697,,,2017_Nov_08_1521,60.0013279464,FEMA4ImagesEEG,001,201659,
AFSA21.JPG,AFNE22.JPG,AFNE21.JPG,AFSA23.JPG,AFSA22.JPG,AFNE23.JPG,0,4,4,0,,,,,,,,,,,,,,,,,,,,,,,AFSA09.jpg,AFNE09.jpg,AFSA20.jpg,AFNE17.jpg,AFSA09.jpg,FS,4,num_8,16,num_8,0.733464836376,,,2017_Nov_08_1521,60.0013279464,FEMA4ImagesEEG,001,201659,
AFNE23.JPG,AFNE24.JPG,AFNE22.JPG,AFSA24.JPG,AFSA22.JPG,AFSA23.JPG,0,5,5,8,,,,,,,,,,,,,,,,,,,,,,,AFNE08.jpg,AFNE09.jpg,AFSA01.jpg,AFSA08.jpg,AFNE09.jpg,FN,3,num_6,32,num_4,0.766789990943,,,2017_Nov_08_1521,60.0013279464,FEMA4ImagesEEG,001,201659,
AFNE22.JPG,AFSA24.JPG,AFSA22.JPG,AFNE25.JPG,AFNE24.JPG,AFSA25.JPG,0,6,6,6,,,,,,,,,,,,,,,,,,,,,,,AFSA02.jpg,AFNE07.jpg,AFSA19.jpg,AFNE01.jpg,AFSA19.jpg,FS,4,num_2,32,num_8,0.55004418199,,,2017_Nov_08_1521,60.0013279464,FEMA4ImagesEEG,001,201659,
AFSA21.JPG,AFNE23.JPG,AFNE21.JPG,AFSA25.JPG,AFNE25.JPG,AFSA23.JPG,0,7,7,4,,,,,,,,,,,,,,,,,,,,,,,AFSA02.jpg,AFNE05.jpg,AFSA03.jpg,AFNE07.jpg,AFNE05.jpg,FN,3,num_6,32,num_2,1.06676417147,,,2017_Nov_08_1521,60.0013279464,FEMA4ImagesEEG,001,201659,
AMSA25.JPG,AMNE24.JPG,AMSA24.JPG,AMNE26.JPG,AMSA21.JPG,AMNE25.JPG,0,8,8,3,,,,,,,,,,,,,,,,,,,,,,,AFSA06.jpg,AFNE20.jpg,AFSA16.jpg,AFNE02.jpg,AFNE20.jpg,FN,3,num_6,32,num_8,0.966741559329,,,2017_Nov_08_1521,60.0013279464,FEMA4ImagesEEG,001,201659,
AFSA25.JPG,AFNE24.JPG,AFSA24.JPG,AFNE21.JPG,AFSA21.JPG,AFNE25.JPG,0,9,9,2,,,,,,,,,,,,,,,,,,,,,,,AFNE14.jpg,AFSA04.jpg,AFSA10.jpg,AFNE19.jpg,AFSA10.jpg,FS,4,num_2,16,num_2,0.583108575083,,,2017_Nov_08_1521,60.0013279464,FEMA4ImagesEEG,001,201659,
AMNE23.JPG,AMNE24.JPG,AMNE22.JPG,AMSA24.JPG,AMSA22.JPG,AMSA23.JPG,,,,,0,0,0,9,,,,,,,,,,,,,,,,,,,AMSA06.jpg,AMNE02.jpg,AMSA04.jpg,AMNE12.jpg,AMSA04.jpg,MS,2,num_2,32,num_6,0.600162935676,,,2017_Nov_08_1521,60.0013279464,FEMA4ImagesEEG,001,201659,
AFNE22.JPG,AFSA24.JPG,AFSA22.JPG,AFNE25.JPG,AFNE24.JPG,AFSA25.JPG,,,,,0,1,1,6,,,,,,,,,,,,,,,,,,,AMNE03.jpg,AMSA19.jpg,AMNE14.jpg,AMSA20.jpg,AMNE14.jpg,MN,1,num_2,16,num_2,0.800153313437,,,2017_Nov_08_1521,60.0013279464,FEMA4ImagesEEG,001,201659,
AMSA21.JPG,AMNE22.JPG,AMNE21.JPG,AMSA23.JPG,AMSA22.JPG,AMNE23.JPG,,,,,0,2,2,1,,,,,,,,,,,,,,,,,,,AMNE14.jpg,AMNE10.jpg,AMSA10.jpg,AMSA05.jpg,AMSA10.jpg,MS,2,num_2,32,num_4,0.700157964136,,,2017_Nov_08_1521,60.0013279464,FEMA4ImagesEEG,001,201659,
AMNE22.JPG,AMSA24.JPG,AMSA22.JPG,AMNE25.JPG,AMNE24.JPG,AMSA25.JPG,,,,,0,3,3,7,,,,,,,,,,,,,,,,,,,AMNE09.jpg,AMNE17.jpg,AMSA20.jpg,AMSA15.jpg,AMNE17.jpg,MN,1,num_6,32,num_8,1.31674115825,,,2017_Nov_08_1521,60.0013279464,FEMA4ImagesEEG,001,201659,
AFSA25.JPG,AFNE24.JPG,AFSA24.JPG,AFNE21.JPG,AFSA21.JPG,AFNE25.JPG,,,,,0,4,4,2,,,,,,,,,,,,,,,,,,,AMNE08.jpg,AMSA20.jpg,AMNE13.jpg,AMSA02.jpg,AMNE08.jpg,MN,1,num_8,16,num_8,0.500148662832,,,2017_Nov_08_1521,60.0013279464,FEMA4ImagesEEG,001,201659,
AMSA21.JPG,AMNE23.JPG,AMNE21.JPG,AMSA25.JPG,AMNE25.JPG,AMSA23.JPG,,,,,0,5,5,5,,,,,,,,,,,,,,,,,,,AMSA19.jpg,AMNE18.jpg,AMSA03.jpg,AMNE01.jpg,AMSA03.jpg,MS,2,num_2,16,num_2,0.683541413164,,,2017_Nov_08_1521,60.0013279464,FEMA4ImagesEEG,001,201659,
AFSA21.JPG,AFNE22.JPG,AFNE21.JPG,AFSA23.JPG,AFSA22.JPG,AFNE23.JPG,,,,,0,6,6,0,,,,,,,,,,,,,,,,,,,AMNE18.jpg,AMSA01.jpg,AMNE12.jpg,AMSA12.jpg,AMSA01.jpg,MS,2,num_6,32,num_2,0.91681043827,,,2017_Nov_08_1521,60.0013279464,FEMA4ImagesEEG,001,201659,
AFNE23.JPG,AFNE24.JPG,AFNE22.JPG,AFSA24.JPG,AFSA22.JPG,AFSA23.JPG,,,,,0,7,7,8,,,,,,,,,,,,,,,,,,,AMSA03.jpg,AMNE13.jpg,AMNE10.jpg,AMSA08.jpg,AMNE13.jpg,MN,1,num_6,16,num_6,0.900017480366,,,2017_Nov_08_1521,60.0013279464,FEMA4ImagesEEG,001,201659,
AMSA25.JPG,AMNE24.JPG,AMSA24.JPG,AMNE26.JPG,AMSA21.JPG,AMNE25.JPG,,,,,0,8,8,3,,,,,,,,,,,,,,,,,,,AMNE14.jpg,AMSA04.jpg,AMSA11.jpg,AMNE05.jpg,AMNE05.jpg,MN,1,num_4,32,num_6,1.5166994622,,,2017_Nov_08_1521,60.0013279464,FEMA4ImagesEEG,001,201659,
AFSA21.JPG,AFNE23.JPG,AFNE21.JPG,AFSA25.JPG,AFNE25.JPG,AFSA23.JPG,,,,,0,9,9,4,,,,,,,,,,,,,,,,,,,AMNE03.jpg,AMSA18.jpg,AMNE18.jpg,AMSA03.jpg,AMSA03.jpg,MS,2,num_4,32,num_8,0.650104962057,,,2017_Nov_08_1521,60.0013279464,FEMA4ImagesEEG,001,201659,
AFNE23.JPG,AFNE24.JPG,AFNE22.JPG,AFSA24.JPG,AFSA22.JPG,AFSA23.JPG,,,,,,,,,0,0,0,8,,,,,,,,,,,,,,,AFSA14.jpg,AFNE13.jpg,AFSA09.jpg,AFNE12.jpg,AFSA09.jpg,FS,4,num_2,32,num_6,0.933463553665,,,2017_Nov_08_1521,60.0013279464,FEMA4ImagesEEG,001,201659,
AFSA25.JPG,AFNE24.JPG,AFSA24.JPG,AFNE21.JPG,AFSA21.JPG,AFNE25.JPG,,,,,,,,,0,1,1,2,,,,,,,,,,,,,,,AFNE10.jpg,AFSA18.jpg,AFNE05.jpg,AFSA04.jpg,AFSA04.jpg,FS,4,num_4,16,num_4,1.16689775954,,,2017_Nov_08_1521,60.0013279464,FEMA4ImagesEEG,001,201659,
AFNE22.JPG,AFSA24.JPG,AFSA22.JPG,AFNE25.JPG,AFNE24.JPG,AFSA25.JPG,,,,,,,,,0,2,2,6,,,,,,,,,,,,,,,AFNE16.jpg,AFSA12.jpg,AFNE11.jpg,AFSA20.jpg,AFSA12.jpg,FS,4,num_6,32,num_8,0.716790873092,,,2017_Nov_08_1521,60.0013279464,FEMA4ImagesEEG,001,201659,
AFSA21.JPG,AFNE23.JPG,AFNE21.JPG,AFSA25.JPG,AFNE25.JPG,AFSA23.JPG,,,,,,,,,0,3,3,4,,,,,,,,,,,,,,,AFSA05.jpg,AFNE03.jpg,AFSA18.jpg,AFNE01.jpg,AFNE03.jpg,FN,3,num_6,16,num_6,0.483839700697,,,2017_Nov_08_1521,60.0013279464,FEMA4ImagesEEG,001,201659,
AMSA25.JPG,AMNE24.JPG,AMSA24.JPG,AMNE26.JPG,AMSA21.JPG,AMNE25.JPG,,,,,,,,,0,4,4,3,,,,,,,,,,,,,,,AFSA08.jpg,AFNE12.jpg,AFSA09.jpg,AFNE08.jpg,AFNE08.jpg,FN,3,num_4,32,num_8,3.88326204894,,,2017_Nov_08_1521,60.0013279464,FEMA4ImagesEEG,001,201659,
AMSA21.JPG,AMNE23.JPG,AMNE21.JPG,AMSA25.JPG,AMNE25.JPG,AMSA23.JPG,,,,,,,,,0,5,5,5,,,,,,,,,,,,,,,AFNE04.jpg,AFSA07.jpg,AFSA08.jpg,AFNE19.jpg,AFSA07.jpg,FS,4,num_6,32,num_8,0.750128215645,,,2017_Nov_08_1521,60.0013279464,FEMA4ImagesEEG,001,201659,
AMNE23.JPG,AMNE24.JPG,AMNE22.JPG,AMSA24.JPG,AMSA22.JPG,AMSA23.JPG,,,,,,,,,0,6,6,9,,,,,,,,,,,,,,,AFNE19.jpg,AFSA01.jpg,AFSA16.jpg,AFNE03.jpg,AFNE03.jpg,FN,3,num_4,32,num_2,0.800176406745,,,2017_Nov_08_1521,60.0013279464,FEMA4ImagesEEG,001,201659,
AFSA21.JPG,AFNE22.JPG,AFNE21.JPG,AFSA23.JPG,AFSA22.JPG,AFNE23.JPG,,,,,,,,,0,7,7,0,,,,,,,,,,,,,,,AFNE04.jpg,AFSA20.jpg,AFNE10.jpg,AFSA06.jpg,AFSA20.jpg,FS,4,num_6,16,num_6,0.43351856037,,,2017_Nov_08_1521,60.0013279464,FEMA4ImagesEEG,001,201659,
AMNE22.JPG,AMSA24.JPG,AMSA22.JPG,AMNE25.JPG,AMNE24.JPG,AMSA25.JPG,,,,,,,,,0,8,8,7,,,,,,,,,,,,,,,AFSA09.jpg,AFNE12.jpg,AFNE09.jpg,AFSA13.jpg,AFSA09.jpg,FS,4,num_8,32,num_2,3.76657926524,,,2017_Nov_08_1521,60.0013279464,FEMA4ImagesEEG,001,201659,
AMSA21.JPG,AMNE22.JPG,AMNE21.JPG,AMSA23.JPG,AMSA22.JPG,AMNE23.JPG,,,,,,,,,0,9,9,1,,,,,,,,,,,,,,,AFNE10.jpg,AFSA02.jpg,AFNE13.jpg,AFSA12.jpg,AFNE13.jpg,FN,3,num_2,32,num_8,0.583469086327,,,2017_Nov_08_1521,60.0013279464,FEMA4ImagesEEG,001,201659,
AFNE22.JPG,AFSA24.JPG,AFSA22.JPG,AFNE25.JPG,AFNE24.JPG,AFSA25.JPG,,,,,,,,,,,,,0,0,0,6,,,,,,,,,,,AMSA17.jpg,AMNE03.jpg,AMSA05.jpg,AMNE11.jpg,AMSA17.jpg,MS,2,num_8,32,num_2,0.80017833109,,,2017_Nov_08_1521,60.0013279464,FEMA4ImagesEEG,001,201659,
AMSA25.JPG,AMNE24.JPG,AMSA24.JPG,AMNE26.JPG,AMSA21.JPG,AMNE25.JPG,,,,,,,,,,,,,0,1,1,3,,,,,,,,,,,AMNE17.jpg,AMNE02.jpg,AMSA14.jpg,AMSA07.jpg,AMSA14.jpg,MS,2,num_2,16,num_2,0.583349450491,,,2017_Nov_08_1521,60.0013279464,FEMA4ImagesEEG,001,201659,
AMSA21.JPG,AMNE22.JPG,AMNE21.JPG,AMSA23.JPG,AMSA22.JPG,AMNE23.JPG,,,,,,,,,,,,,0,2,2,1,,,,,,,,,,,AMSA10.jpg,AMNE16.jpg,AMNE15.jpg,AMSA11.jpg,AMSA10.jpg,MS,2,num_8,16,num_8,0.750180496136,,,2017_Nov_08_1521,60.0013279464,FEMA4ImagesEEG,001,201659,
AMNE23.JPG,AMNE24.JPG,AMNE22.JPG,AMSA24.JPG,AMSA22.JPG,AMSA23.JPG,,,,,,,,,,,,,0,3,3,9,,,,,,,,,,,AMNE03.jpg,AMSA06.jpg,AMNE15.jpg,AMSA14.jpg,AMNE03.jpg,MN,1,num_8,32,num_6,1.35008299141,,,2017_Nov_08_1521,60.0013279464,FEMA4ImagesEEG,001,201659,
AMSA21.JPG,AMNE23.JPG,AMNE21.JPG,AMSA25.JPG,AMNE25.JPG,AMSA23.JPG,,,,,,,,,,,,,0,4,4,5,,,,,,,,,,,AMNE15.jpg,AMNE13.jpg,AMSA01.jpg,AMSA09.jpg,AMNE15.jpg,MN,1,num_8,32,num_6,1.26666377997,,,2017_Nov_08_1521,60.0013279464,FEMA4ImagesEEG,001,201659,
AFSA21.JPG,AFNE23.JPG,AFNE21.JPG,AFSA25.JPG,AFNE25.JPG,AFSA23.JPG,,,,,,,,,,,,,0,5,5,4,,,,,,,,,,,AMSA07.jpg,AMSA03.jpg,AMNE05.jpg,AMNE07.jpg,AMNE07.jpg,MN,1,num_4,16,num_4,0.316669312771,,,2017_Nov_08_1521,60.0013279464,FEMA4ImagesEEG,001,201659,
AMNE22.JPG,AMSA24.JPG,AMSA22.JPG,AMNE25.JPG,AMNE24.JPG,AMSA25.JPG,,,,,,,,,,,,,0,6,6,7,,,,,,,,,,,AMNE04.jpg,AMNE09.jpg,AMSA12.jpg,AMSA13.jpg,AMNE04.jpg,MN,1,num_8,16,num_8,0.716784137534,,,2017_Nov_08_1521,60.0013279464,FEMA4ImagesEEG,001,201659,
AFSA25.JPG,AFNE24.JPG,AFSA24.JPG,AFNE21.JPG,AFSA21.JPG,AFNE25.JPG,,,,,,,,,,,,,0,7,7,2,,,,,,,,,,,AMSA20.jpg,AMSA14.jpg,AMNE08.jpg,AMNE17.jpg,AMSA14.jpg,MS,2,num_6,16,num_6,0.583475821884,,,2017_Nov_08_1521,60.0013279464,FEMA4ImagesEEG,001,201659,
AFNE23.JPG,AFNE24.JPG,AFNE22.JPG,AFSA24.JPG,AFSA22.JPG,AFSA23.JPG,,,,,,,,,,,,,0,8,8,8,,,,,,,,,,,AMNE20.jpg,AMSA07.jpg,AMNE13.jpg,AMSA19.jpg,AMSA19.jpg,MS,2,num_4,16,num_4,0.666774435202,,,2017_Nov_08_1521,60.0013279464,FEMA4ImagesEEG,001,201659,
AFSA21.JPG,AFNE22.JPG,AFNE21.JPG,AFSA23.JPG,AFSA22.JPG,AFNE23.JPG,,,,,,,,,,,,,0,9,9,0,,,,,,,,,,,AMSA12.jpg,AMNE02.jpg,AMSA16.jpg,AMNE01.jpg,AMNE02.jpg,MN,1,num_6,32,num_4,0.583492500242,,,2017_Nov_08_1521,60.0013279464,FEMA4ImagesEEG,001,201659,
AFSA25.JPG,AFNE24.JPG,AFSA24.JPG,AFNE21.JPG,AFSA21.JPG,AFNE25.JPG,,,,,,,,,,,,,,,,,0,0,0,2,,,,,,,AFNE08.jpg,AFSA18.jpg,AFNE07.jpg,AFSA17.jpg,AFSA17.jpg,FS,4,num_4,16,num_4,0.633497712435,,,2017_Nov_08_1521,60.0013279464,FEMA4ImagesEEG,001,201659,
AFNE22.JPG,AFSA24.JPG,AFSA22.JPG,AFNE25.JPG,AFNE24.JPG,AFSA25.JPG,,,,,,,,,,,,,,,,,0,1,1,6,,,,,,,AFNE01.jpg,AFSA18.jpg,AFNE14.jpg,AFSA15.jpg,AFNE01.jpg,FN,3,num_8,16,num_8,0.516789269401,,,2017_Nov_08_1521,60.0013279464,FEMA4ImagesEEG,001,201659,
AMSA25.JPG,AMNE24.JPG,AMSA24.JPG,AMNE26.JPG,AMSA21.JPG,AMNE25.JPG,,,,,,,,,,,,,,,,,0,2,2,3,,,,,,,AFNE08.jpg,AFNE02.jpg,AFSA06.jpg,AFSA17.jpg,AFSA17.jpg,FS,4,num_4,32,num_6,0.966769784456,,,2017_Nov_08_1521,60.0013279464,FEMA4ImagesEEG,001,201659,
AMSA21.JPG,AMNE22.JPG,AMNE21.JPG,AMSA23.JPG,AMSA22.JPG,AMNE23.JPG,,,,,,,,,,,,,,,,,0,3,3,1,,,,,,,AFSA10.jpg,AFNE06.jpg,AFNE11.jpg,AFSA13.jpg,AFSA13.jpg,FS,4,num_4,32,num_8,0.933406782569,,,2017_Nov_08_1521,60.0013279464,FEMA4ImagesEEG,001,201659,
AFSA21.JPG,AFNE23.JPG,AFNE21.JPG,AFSA25.JPG,AFNE25.JPG,AFSA23.JPG,,,,,,,,,,,,,,,,,0,4,4,4,,,,,,,AFSA06.jpg,AFNE19.jpg,AFNE04.jpg,AFSA19.jpg,AFSA06.jpg,FS,4,num_8,16,num_8,0.900123324245,,,2017_Nov_08_1521,60.0013279464,FEMA4ImagesEEG,001,201659,
AFNE23.JPG,AFNE24.JPG,AFNE22.JPG,AFSA24.JPG,AFSA22.JPG,AFSA23.JPG,,,,,,,,,,,,,,,,,0,5,5,8,,,,,,,AFNE18.jpg,AFSA12.jpg,AFSA06.jpg,AFNE20.jpg,AFSA06.jpg,FS,4,num_2,32,num_8,0.867181453621,,,2017_Nov_08_1521,60.0013279464,FEMA4ImagesEEG,001,201659,
AMSA21.JPG,AMNE23.JPG,AMNE21.JPG,AMSA25.JPG,AMNE25.JPG,AMSA23.JPG,,,,,,,,,,,,,,,,,0,6,6,5,,,,,,,AFSA05.jpg,AFNE09.jpg,AFNE05.jpg,AFSA17.jpg,AFSA05.jpg,FS,4,num_8,16,num_8,0.550224116771,,,2017_Nov_08_1521,60.0013279464,FEMA4ImagesEEG,001,201659,
AFSA21.JPG,AFNE22.JPG,AFNE21.JPG,AFSA23.JPG,AFSA22.JPG,AFNE23.JPG,,,,,,,,,,,,,,,,,0,7,7,0,,,,,,,AFNE12.jpg,AFSA20.jpg,AFNE19.jpg,AFSA02.jpg,AFSA20.jpg,FS,4,num_6,32,num_2,1.78336292156,,,2017_Nov_08_1521,60.0013279464,FEMA4ImagesEEG,001,201659,
AMNE23.JPG,AMNE24.JPG,AMNE22.JPG,AMSA24.JPG,AMSA22.JPG,AMSA23.JPG,,,,,,,,,,,,,,,,,0,8,8,9,,,,,,,AFSA08.jpg,AFNE04.jpg,AFSA16.jpg,AFNE14.jpg,AFSA08.jpg,FS,4,num_8,32,num_4,0.616771147586,,,2017_Nov_08_1521,60.0013279464,FEMA4ImagesEEG,001,201659,
AMNE22.JPG,AMSA24.JPG,AMSA22.JPG,AMNE25.JPG,AMNE24.JPG,AMSA25.JPG,,,,,,,,,,,,,,,,,0,9,9,7,,,,,,,AFSA04.jpg,AFSA15.jpg,AFNE15.jpg,AFNE16.jpg,AFNE16.jpg,FN,3,num_4,32,num_8,0.533519041492,,,2017_Nov_08_1521,60.0013279464,FEMA4ImagesEEG,001,201659,
AMSA21.JPG,AMNE23.JPG,AMNE21.JPG,AMSA25.JPG,AMNE25.JPG,AMSA23.JPG,,,,,,,,,,,,,,,,,,,,,0,0,0,5,,,AMSA02.jpg,AMSA14.jpg,AMNE03.jpg,AMNE15.jpg,AMSA02.jpg,MS,2,num_8,16,num_8,0.66678020847,,,2017_Nov_08_1521,60.0013279464,FEMA4ImagesEEG,001,201659,
AMNE22.JPG,AMSA24.JPG,AMSA22.JPG,AMNE25.JPG,AMNE24.JPG,AMSA25.JPG,,,,,,,,,,,,,,,,,,,,,0,1,1,7,,,AMSA13.jpg,AMSA03.jpg,AMNE11.jpg,AMNE16.jpg,AMSA03.jpg,MS,2,num_6,16,num_6,0.733470609877,,,2017_Nov_08_1521,60.0013279464,FEMA4ImagesEEG,001,201659,
AFSA21.JPG,AFNE22.JPG,AFNE21.JPG,AFSA23.JPG,AFSA22.JPG,AFNE23.JPG,,,,,,,,,,,,,,,,,,,,,0,2,2,0,,,AMSA05.jpg,AMNE03.jpg,AMNE04.jpg,AMSA19.jpg,AMSA19.jpg,MS,2,num_4,32,num_8,0.733455855865,,,2017_Nov_08_1521,60.0013279464,FEMA4ImagesEEG,001,201659,
AMSA25.JPG,AMNE24.JPG,AMSA24.JPG,AMNE26.JPG,AMSA21.JPG,AMNE25.JPG,,,,,,,,,,,,,,,,,,,,,0,3,3,3,,,AMSA19.jpg,AMNE20.jpg,AMSA07.jpg,AMNE10.jpg,AMSA19.jpg,MS,2,num_8,16,num_8,0.466770265484,,,2017_Nov_08_1521,60.0013279464,FEMA4ImagesEEG,001,201659,
AFSA21.JPG,AFNE23.JPG,AFNE21.JPG,AFSA25.JPG,AFNE25.JPG,AFSA23.JPG,,,,,,,,,,,,,,,,,,,,,0,4,4,4,,,AMSA08.jpg,AMSA11.jpg,AMNE07.jpg,AMNE11.jpg,AMSA08.jpg,MS,2,num_8,32,num_6,1.88339708047,,,2017_Nov_08_1521,60.0013279464,FEMA4ImagesEEG,001,201659,
AMNE23.JPG,AMNE24.JPG,AMNE22.JPG,AMSA24.JPG,AMSA22.JPG,AMSA23.JPG,,,,,,,,,,,,,,,,,,,,,0,5,5,9,,,AMNE04.jpg,AMSA15.jpg,AMNE12.jpg,AMSA10.jpg,AMSA15.jpg,MS,2,num_6,16,num_6,0.533579340437,,,2017_Nov_08_1521,60.0013279464,FEMA4ImagesEEG,001,201659,
AFNE22.JPG,AFSA24.JPG,AFSA22.JPG,AFNE25.JPG,AFNE24.JPG,AFSA25.JPG,,,,,,,,,,,,,,,,,,,,,0,6,6,6,,,AMSA18.jpg,AMNE06.jpg,AMSA17.jpg,AMNE12.jpg,AMNE06.jpg,MN,1,num_6,32,num_8,0.683459303807,,,2017_Nov_08_1521,60.0013279464,FEMA4ImagesEEG,001,201659,
AMSA21.JPG,AMNE22.JPG,AMNE21.JPG,AMSA23.JPG,AMSA22.JPG,AMNE23.JPG,,,,,,,,,,,,,,,,,,,,,0,7,7,1,,,AMSA11.jpg,AMNE18.jpg,AMSA14.jpg,AMNE03.jpg,AMNE18.jpg,MN,1,num_6,32,num_8,1.10023526242,,,2017_Nov_08_1521,60.0013279464,FEMA4ImagesEEG,001,201659,
AFSA25.JPG,AFNE24.JPG,AFSA24.JPG,AFNE21.JPG,AFSA21.JPG,AFNE25.JPG,,,,,,,,,,,,,,,,,,,,,0,8,8,2,,,AMSA12.jpg,AMNE05.jpg,AMSA16.jpg,AMNE10.jpg,AMSA12.jpg,MS,2,num_8,16,num_8,0.500167586375,,,2017_Nov_08_1521,60.0013279464,FEMA4ImagesEEG,001,201659,
AFNE23.JPG,AFNE24.JPG,AFNE22.JPG,AFSA24.JPG,AFSA22.JPG,AFSA23.JPG,,,,,,,,,,,,,,,,,,,,,0,9,9,8,,,AMNE20.jpg,AMSA04.jpg,AMSA05.jpg,AMNE19.jpg,AMSA04.jpg,MS,2,num_6,16,num_6,0.800164860208,,,2017_Nov_08_1521,60.0013279464,FEMA4ImagesEEG,001,201659,
,,,,,,,,,,,,,,,,,,,,,,,,,,,,,,,,,,,,,,,,,,,space,5.86656884104,2017_Nov_08_1521,60.0013279464,FEMA4ImagesEEG,001,201659,
AFNE01.JPG,AFNE01.JPG,AFNE01.JPG,AFNE01.JPG,AFNE01.JPG,AFNE01.JPG,0,0,0,6,,,,,,,,,,,,,,,,,,,,,,,AFNE16.jpg,AFSA05.jpg,AFSA17.jpg,AFNE09.jpg,AFNE09.jpg,FN,3,num_4,16,num_4,0.966769784456,,,2017_Nov_08_1521,60.0013279464,FEMA4ImagesEEG,001,201659,
AFNE01.JPG,AFNE01.JPG,AFNE01.JPG,AFNE01.JPG,AFNE01.JPG,AFNE01.JPG,0,1,1,9,,,,,,,,,,,,,,,,,,,,,,,AFSA10.jpg,AFNE19.jpg,AFSA18.jpg,AFNE20.jpg,AFSA10.jpg,FS,4,num_8,16,num_8,0.616809315514,,,2017_Nov_08_1521,60.0013279464,FEMA4ImagesEEG,001,201659,
AFNE01.JPG,AFNE01.JPG,AFNE01.JPG,AFNE01.JPG,AFNE01.JPG,AFNE01.JPG,0,2,2,8,,,,,,,,,,,,,,,,,,,,,,,AFSA08.jpg,AFNE12.jpg,AFNE07.jpg,AFSA06.jpg,AFNE12.jpg,FN,3,num_6,16,num_6,0.500218263129,,,2017_Nov_08_1521,60.0013279464,FEMA4ImagesEEG,001,201659,
AFNE01.JPG,AFNE01.JPG,AFNE01.JPG,AFNE01.JPG,AFNE01.JPG,AFNE01.JPG,0,3,3,5,,,,,,,,,,,,,,,,,,,,,,,AFNE06.jpg,AFNE17.jpg,AFSA04.jpg,AFSA16.jpg,AFNE06.jpg,FN,3,num_8,16,num_8,1.98340686271,,,2017_Nov_08_1521,60.0013279464,FEMA4ImagesEEG,001,201659,
AFNE01.JPG,AFNE01.JPG,AFNE01.JPG,AFNE01.JPG,AFNE01.JPG,AFNE01.JPG,0,4,4,1,,,,,,,,,,,,,,,,,,,,,,,AFSA06.jpg,AFNE04.jpg,AFSA09.jpg,AFNE06.jpg,AFSA06.jpg,FS,4,num_8,16,num_8,0.883544620592,,,2017_Nov_08_1521,60.0013279464,FEMA4ImagesEEG,001,201659,
AFNE01.JPG,AFNE01.JPG,AFNE01.JPG,AFNE01.JPG,AFNE01.JPG,AFNE01.JPG,0,5,5,2,,,,,,,,,,,,,,,,,,,,,,,AFSA10.jpg,AFNE12.jpg,AFNE08.jpg,AFSA14.jpg,AFNE12.jpg,FN,3,num_6,16,num_6,0.75017343997,,,2017_Nov_08_1521,60.0013279464,FEMA4ImagesEEG,001,201659,
AFNE01.JPG,AFNE01.JPG,AFNE01.JPG,AFNE01.JPG,AFNE01.JPG,AFNE01.JPG,0,6,6,4,,,,,,,,,,,,,,,,,,,,,,,AFNE10.jpg,AFNE16.jpg,AFSA14.jpg,AFSA06.jpg,AFSA06.jpg,FS,4,num_4,32,num_6,0.600415678462,,,2017_Nov_08_1521,60.0013279464,FEMA4ImagesEEG,001,201659,
AFNE01.JPG,AFNE01.JPG,AFNE01.JPG,AFNE01.JPG,AFNE01.JPG,AFNE01.JPG,0,7,7,3,,,,,,,,,,,,,,,,,,,,,,,AFNE11.jpg,AFSA16.jpg,AFSA01.jpg,AFNE06.jpg,AFSA16.jpg,FS,4,num_6,32,num_4,1.23346467619,,,2017_Nov_08_1521,60.0013279464,FEMA4ImagesEEG,001,201659,
AFNE01.JPG,AFNE01.JPG,AFNE01.JPG,AFNE01.JPG,AFNE01.JPG,AFNE01.JPG,0,8,8,0,,,,,,,,,,,,,,,,,,,,,,,AFNE11.jpg,AFSA14.jpg,AFNE17.jpg,AFSA01.jpg,AFSA01.jpg,FS,4,num_4,32,num_8,0.483501320705,,,2017_Nov_08_1521,60.0013279464,FEMA4ImagesEEG,001,201659,
AFNE01.JPG,AFNE01.JPG,AFNE01.JPG,AFNE01.JPG,AFNE01.JPG,AFNE01.JPG,0,9,9,7,,,,,,,,,,,,,,,,,,,,,,,AFNE11.jpg,AFSA11.jpg,AFNE16.jpg,AFSA02.jpg,AFNE16.jpg,FN,3,num_2,32,num_4,0.833453450119,,,2017_Nov_08_1521,60.0013279464,FEMA4ImagesEEG,001,201659,
AFNE01.JPG,AFNE01.JPG,AFNE01.JPG,AFNE01.JPG,AFNE01.JPG,AFNE01.JPG,1,0,10,7,,,,,,,,,,,,,,,,,,,,,,,AFSA08.jpg,AFNE12.jpg,AFNE11.jpg,AFSA11.jpg,AFSA08.jpg,FS,4,num_8,32,num_6,0.916765213711,,,2017_Nov_08_1521,60.0013279464,FEMA4ImagesEEG,001,201659,
AFNE01.JPG,AFNE01.JPG,AFNE01.JPG,AFNE01.JPG,AFNE01.JPG,AFNE01.JPG,1,1,11,8,,,,,,,,,,,,,,,,,,,,,,,AFSA16.jpg,AFSA08.jpg,AFNE02.jpg,AFNE17.jpg,AFSA16.jpg,FS,4,num_8,32,num_4,0.40013278625,,,2017_Nov_08_1521,60.0013279464,FEMA4ImagesEEG,001,201659,
AFNE01.JPG,AFNE01.JPG,AFNE01.JPG,AFNE01.JPG,AFNE01.JPG,AFNE01.JPG,1,2,12,2,,,,,,,,,,,,,,,,,,,,,,,AFNE10.jpg,AFSA20.jpg,AFNE02.jpg,AFSA13.jpg,AFNE10.jpg,FN,3,num_8,16,num_8,0.933456176426,,,2017_Nov_08_1521,60.0013279464,FEMA4ImagesEEG,001,201659,
AFNE01.JPG,AFNE01.JPG,AFNE01.JPG,AFNE01.JPG,AFNE01.JPG,AFNE01.JPG,1,3,13,6,,,,,,,,,,,,,,,,,,,,,,,AFNE15.jpg,AFNE12.jpg,AFSA12.jpg,AFSA03.jpg,AFNE12.jpg,FN,3,num_6,16,num_6,0.766791915288,,,2017_Nov_08_1521,60.0013279464,FEMA4ImagesEEG,001,201659,
AFNE01.JPG,AFNE01.JPG,AFNE01.JPG,AFNE01.JPG,AFNE01.JPG,AFNE01.JPG,1,4,14,4,,,,,,,,,,,,,,,,,,,,,,,AFNE01.jpg,AFSA02.jpg,AFNE12.jpg,AFSA17.jpg,AFSA17.jpg,FS,4,num_4,32,num_6,0.633447676897,,,2017_Nov_08_1521,60.0013279464,FEMA4ImagesEEG,001,201659,
AFNE01.JPG,AFNE01.JPG,AFNE01.JPG,AFNE01.JPG,AFNE01.JPG,AFNE01.JPG,1,5,15,0,,,,,,,,,,,,,,,,,,,,,,,AFNE15.jpg,AFNE09.jpg,AFSA01.jpg,AFSA07.jpg,AFNE09.jpg,FN,3,num_6,32,num_4,1.28344679507,,,2017_Nov_08_1521,60.0013279464,FEMA4ImagesEEG,001,201659,
AFNE01.JPG,AFNE01.JPG,AFNE01.JPG,AFNE01.JPG,AFNE01.JPG,AFNE01.JPG,1,6,16,9,,,,,,,,,,,,,,,,,,,,,,,AFNE16.jpg,AFNE11.jpg,AFSA16.jpg,AFSA04.jpg,AFNE11.jpg,FN,3,num_6,32,num_8,1.20011193817,,,2017_Nov_08_1521,60.0013279464,FEMA4ImagesEEG,001,201659,
AFNE01.JPG,AFNE01.JPG,AFNE01.JPG,AFNE01.JPG,AFNE01.JPG,AFNE01.JPG,1,7,17,5,,,,,,,,,,,,,,,,,,,,,,,AFSA17.jpg,AFNE07.jpg,AFSA05.jpg,AFNE16.jpg,AFSA05.jpg,FS,4,num_2,16,num_2,1.00013310695,,,2017_Nov_08_1521,60.0013279464,FEMA4ImagesEEG,001,201659,
AFNE01.JPG,AFNE01.JPG,AFNE01.JPG,AFNE01.JPG,AFNE01.JPG,AFNE01.JPG,1,8,18,1,,,,,,,,,,,,,,,,,,,,,,,AFNE03.jpg,AFNE04.jpg,AFSA10.jpg,AFSA11.jpg,AFNE04.jpg,FN,3,num_6,32,num_8,0.916786062066,,,2017_Nov_08_1521,60.0013279464,FEMA4ImagesEEG,001,201659,
AFNE01.JPG,AFNE01.JPG,AFNE01.JPG,AFNE01.JPG,AFNE01.JPG,AFNE01.JPG,1,9,19,3,,,,,,,,,,,,,,,,,,,,,,,AFNE12.jpg,AFSA07.jpg,AFSA19.jpg,AFNE06.jpg,AFSA07.jpg,FS,4,num_6,16,num_6,0.300256751943,,,2017_Nov_08_1521,60.0013279464,FEMA4ImagesEEG,001,201659,
AFNE01.JPG,AFNE01.JPG,AFNE01.JPG,AFNE01.JPG,AFNE01.JPG,AFNE01.JPG,2,0,20,9,,,,,,,,,,,,,,,,,,,,,,,AFSA13.jpg,AFNE02.jpg,AFNE01.jpg,AFSA03.jpg,AFNE01.jpg,FN,3,num_2,32,num_4,0.850180014968,,,2017_Nov_08_1521,60.0013279464,FEMA4ImagesEEG,001,201659,
AFNE01.JPG,AFNE01.JPG,AFNE01.JPG,AFNE01.JPG,AFNE01.JPG,AFNE01.JPG,2,1,21,4,,,,,,,,,,,,,,,,,,,,,,,AFSA08.jpg,AFNE03.jpg,AFSA07.jpg,AFNE16.jpg,AFNE03.jpg,FN,3,num_6,32,num_2,0.68349554739,,,2017_Nov_08_1521,60.0013279464,FEMA4ImagesEEG,001,201659,
AFNE01.JPG,AFNE01.JPG,AFNE01.JPG,AFNE01.JPG,AFNE01.JPG,AFNE01.JPG,2,2,22,3,,,,,,,,,,,,,,,,,,,,,,,AFSA08.jpg,AFSA07.jpg,AFNE11.jpg,AFNE02.jpg,AFSA08.jpg,FS,4,num_8,16,num_8,1.83334536105,,,2017_Nov_08_1521,60.0013279464,FEMA4ImagesEEG,001,201659,
AFNE01.JPG,AFNE01.JPG,AFNE01.JPG,AFNE01.JPG,AFNE01.JPG,AFNE01.JPG,2,3,23,2,,,,,,,,,,,,,,,,,,,,,,,AFNE12.jpg,AFNE14.jpg,AFSA07.jpg,AFSA08.jpg,AFNE12.jpg,FN,3,num_8,16,num_8,0.75020487234,,,2017_Nov_08_1521,60.0013279464,FEMA4ImagesEEG,001,201659,
AFNE01.JPG,AFNE01.JPG,AFNE01.JPG,AFNE01.JPG,AFNE01.JPG,AFNE01.JPG,2,4,24,8,,,,,,,,,,,,,,,,,,,,,,,AFSA10.jpg,AFNE16.jpg,AFNE02.jpg,AFSA19.jpg,AFSA10.jpg,FS,4,num_8,16,num_8,0.783519442426,,,2017_Nov_08_1521,60.0013279464,FEMA4ImagesEEG,001,201659,
AFNE01.JPG,AFNE01.JPG,AFNE01.JPG,AFNE01.JPG,AFNE01.JPG,AFNE01.JPG,2,5,25,6,,,,,,,,,,,,,,,,,,,,,,,AFNE02.jpg,AFNE18.jpg,AFSA03.jpg,AFSA01.jpg,AFNE02.jpg,FN,3,num_8,16,num_8,0.616779486882,,,2017_Nov_08_1521,60.0013279464,FEMA4ImagesEEG,001,201659,
AFNE01.JPG,AFNE01.JPG,AFNE01.JPG,AFNE01.JPG,AFNE01.JPG,AFNE01.JPG,2,6,26,1,,,,,,,,,,,,,,,,,,,,,,,AFSA19.jpg,AFSA20.jpg,AFNE06.jpg,AFNE10.jpg,AFNE10.jpg,FN,3,num_4,16,num_4,0.71678509959,,,2017_Nov_08_1521,60.0013279464,FEMA4ImagesEEG,001,201659,
AFNE01.JPG,AFNE01.JPG,AFNE01.JPG,AFNE01.JPG,AFNE01.JPG,AFNE01.JPG,2,7,27,7,,,,,,,,,,,,,,,,,,,,,,,AFSA07.jpg,AFNE06.jpg,AFNE09.jpg,AFSA06.jpg,AFSA07.jpg,FS,4,num_8,16,num_8,0.800153313437,,,2017_Nov_08_1521,60.0013279464,FEMA4ImagesEEG,001,201659,
AFNE01.JPG,AFNE01.JPG,AFNE01.JPG,AFNE01.JPG,AFNE01.JPG,AFNE01.JPG,2,8,28,0,,,,,,,,,,,,,,,,,,,,,,,AFSA03.jpg,AFNE01.jpg,AFSA20.jpg,AFNE17.jpg,AFSA03.jpg,FS,4,num_8,16,num_8,0.833509900374,,,2017_Nov_08_1521,60.0013279464,FEMA4ImagesEEG,001,201659,
AFNE01.JPG,AFNE01.JPG,AFNE01.JPG,AFNE01.JPG,AFNE01.JPG,AFNE01.JPG,2,9,29,5,,,,,,,,,,,,,,,,,,,,,,,AFNE17.jpg,AFSA02.jpg,AFSA18.jpg,AFNE03.jpg,AFSA18.jpg,FS,4,num_2,16,num_2,0.716811400373,,,2017_Nov_08_1521,60.0013279464,FEMA4ImagesEEG,001,201659,
AFNE01.JPG,AFNE01.JPG,AFNE01.JPG,AFNE01.JPG,AFNE01.JPG,AFNE01.JPG,3,0,30,4,,,,,,,,,,,,,,,,,,,,,,,AFSA20.jpg,AFNE18.jpg,AFSA09.jpg,AFNE09.jpg,AFNE09.jpg,FN,3,num_4,16,num_4,0.48347790679,,,2017_Nov_08_1521,60.0013279464,FEMA4ImagesEEG,001,201659,
AFNE01.JPG,AFNE01.JPG,AFNE01.JPG,AFNE01.JPG,AFNE01.JPG,AFNE01.JPG,3,1,31,9,,,,,,,,,,,,,,,,,,,,,,,AFNE08.jpg,AFNE13.jpg,AFSA07.jpg,AFSA15.jpg,AFSA15.jpg,FS,4,num_4,16,num_4,1.28342145635,,,2017_Nov_08_1521,60.0013279464,FEMA4ImagesEEG,001,201659,
AFNE01.JPG,AFNE01.JPG,AFNE01.JPG,AFNE01.JPG,AFNE01.JPG,AFNE01.JPG,3,2,32,1,,,,,,,,,,,,,,,,,,,,,,,AFSA17.jpg,AFNE12.jpg,AFSA02.jpg,AFNE11.jpg,AFNE11.jpg,FN,3,num_4,16,num_4,0.416832729476,,,2017_Nov_08_1521,60.0013279464,FEMA4ImagesEEG,001,201659,
AFNE01.JPG,AFNE01.JPG,AFNE01.JPG,AFNE01.JPG,AFNE01.JPG,AFNE01.JPG,3,3,33,2,,,,,,,,,,,,,,,,,,,,,,,AFSA11.jpg,AFNE08.jpg,AFNE01.jpg,AFSA09.jpg,AFNE01.jpg,FN,3,num_2,32,num_6,0.900140644284,,,2017_Nov_08_1521,60.0013279464,FEMA4ImagesEEG,001,201659,
AFNE01.JPG,AFNE01.JPG,AFNE01.JPG,AFNE01.JPG,AFNE01.JPG,AFNE01.JPG,3,4,34,5,,,,,,,,,,,,,,,,,,,,,,,AFNE11.jpg,AFNE09.jpg,AFSA14.jpg,AFSA05.jpg,AFSA14.jpg,FS,4,num_2,16,num_2,1.00012444681,,,2017_Nov_08_1521,60.0013279464,FEMA4ImagesEEG,001,201659,
AFNE01.JPG,AFNE01.JPG,AFNE01.JPG,AFNE01.JPG,AFNE01.JPG,AFNE01.JPG,3,5,35,8,,,,,,,,,,,,,,,,,,,,,,,AFSA02.jpg,AFNE18.jpg,AFSA10.jpg,AFNE15.jpg,AFSA10.jpg,FS,4,num_2,32,num_6,0.900175284129,,,2017_Nov_08_1521,60.0013279464,FEMA4ImagesEEG,001,201659,
AFNE01.JPG,AFNE01.JPG,AFNE01.JPG,AFNE01.JPG,AFNE01.JPG,AFNE01.JPG,3,6,36,0,,,,,,,,,,,,,,,,,,,,,,,AFNE18.jpg,AFSA09.jpg,AFSA10.jpg,AFNE06.jpg,AFNE06.jpg,FN,3,num_4,32,num_8,0.450163657544,,,2017_Nov_08_1521,60.0013279464,FEMA4ImagesEEG,001,201659,
AFNE01.JPG,AFNE01.JPG,AFNE01.JPG,AFNE01.JPG,AFNE01.JPG,AFNE01.JPG,3,7,37,6,,,,,,,,,,,,,,,,,,,,,,,AFSA12.jpg,AFNE14.jpg,AFNE09.jpg,AFSA06.jpg,AFNE09.jpg,FN,3,num_2,16,num_2,0.700148341944,,,2017_Nov_08_1521,60.0013279464,FEMA4ImagesEEG,001,201659,
AFNE01.JPG,AFNE01.JPG,AFNE01.JPG,AFNE01.JPG,AFNE01.JPG,AFNE01.JPG,3,8,38,3,,,,,,,,,,,,,,,,,,,,,,,AFNE20.jpg,AFSA08.jpg,AFNE12.jpg,AFSA09.jpg,AFNE12.jpg,FN,3,num_2,16,num_2,0.900158926379,,,2017_Nov_08_1521,60.0013279464,FEMA4ImagesEEG,001,201659,
AFNE01.JPG,AFNE01.JPG,AFNE01.JPG,AFNE01.JPG,AFNE01.JPG,AFNE01.JPG,3,9,39,7,,,,,,,,,,,,,,,,,,,,,,,AFNE10.jpg,AFNE08.jpg,AFSA02.jpg,AFSA06.jpg,AFNE08.jpg,FN,3,num_6,32,num_8,0.783617909299,,,2017_Nov_08_1521,60.0013279464,FEMA4ImagesEEG,001,201659,
AFNE01.JPG,AFNE01.JPG,AFNE01.JPG,AFNE01.JPG,AFNE01.JPG,AFNE01.JPG,4,0,40,2,,,,,,,,,,,,,,,,,,,,,,,AFNE09.jpg,AFSA05.jpg,AFNE13.jpg,AFSA02.jpg,AFNE09.jpg,FN,3,num_8,16,num_8,0.51687490684,,,2017_Nov_08_1521,60.0013279464,FEMA4ImagesEEG,001,201659,
AFNE01.JPG,AFNE01.JPG,AFNE01.JPG,AFNE01.JPG,AFNE01.JPG,AFNE01.JPG,4,1,41,4,,,,,,,,,,,,,,,,,,,,,,,AFSA16.jpg,AFNE06.jpg,AFNE15.jpg,AFSA13.jpg,AFSA13.jpg,FS,4,num_4,32,num_8,0.85018450534,,,2017_Nov_08_1521,60.0013279464,FEMA4ImagesEEG,001,201659,
AFNE01.JPG,AFNE01.JPG,AFNE01.JPG,AFNE01.JPG,AFNE01.JPG,AFNE01.JPG,4,2,42,7,,,,,,,,,,,,,,,,,,,,,,,AFNE05.jpg,AFSA11.jpg,AFSA15.jpg,AFNE18.jpg,AFSA11.jpg,FS,4,num_6,16,num_6,0.550188835477,,,2017_Nov_08_1521,60.0013279464,FEMA4ImagesEEG,001,201659,
AFNE01.JPG,AFNE01.JPG,AFNE01.JPG,AFNE01.JPG,AFNE01.JPG,AFNE01.JPG,4,3,43,1,,,,,,,,,,,,,,,,,,,,,,,AFNE05.jpg,AFNE03.jpg,AFSA11.jpg,AFSA18.jpg,AFNE03.jpg,FN,3,num_6,32,num_2,0.983553761384,,,2017_Nov_08_1521,60.0013279464,FEMA4ImagesEEG,001,201659,
AFNE01.JPG,AFNE01.JPG,AFNE01.JPG,AFNE01.JPG,AFNE01.JPG,AFNE01.JPG,4,4,44,3,,,,,,,,,,,,,,,,,,,,,,,AFSA06.jpg,AFNE16.jpg,AFSA16.jpg,AFNE08.jpg,AFNE16.jpg,FN,3,num_6,32,num_4,0.733496910427,,,2017_Nov_08_1521,60.0013279464,FEMA4ImagesEEG,001,201659,
AFNE01.JPG,AFNE01.JPG,AFNE01.JPG,AFNE01.JPG,AFNE01.JPG,AFNE01.JPG,4,5,45,5,,,,,,,,,,,,,,,,,,,,,,,AFNE14.jpg,AFSA06.jpg,AFSA15.jpg,AFNE10.jpg,AFNE14.jpg,FN,3,num_8,16,num_8,1.7833818451,,,2017_Nov_08_1521,60.0013279464,FEMA4ImagesEEG,001,201659,
AFNE01.JPG,AFNE01.JPG,AFNE01.JPG,AFNE01.JPG,AFNE01.JPG,AFNE01.JPG,4,6,46,0,,,,,,,,,,,,,,,,,,,,,,,AFNE04.jpg,AFSA15.jpg,AFSA01.jpg,AFNE06.jpg,AFSA01.jpg,FS,4,num_2,16,num_2,0.983457860537,,,2017_Nov_08_1521,60.0013279464,FEMA4ImagesEEG,001,201659,
AFNE01.JPG,AFNE01.JPG,AFNE01.JPG,AFNE01.JPG,AFNE01.JPG,AFNE01.JPG,4,7,47,6,,,,,,,,,,,,,,,,,,,,,,,AFNE19.jpg,AFNE01.jpg,AFSA01.jpg,AFSA06.jpg,AFSA01.jpg,FS,4,num_2,32,num_4,1.5167081221,,,2017_Nov_08_1521,60.0013279464,FEMA4ImagesEEG,001,201659,
AFNE01.JPG,AFNE01.JPG,AFNE01.JPG,AFNE01.JPG,AFNE01.JPG,AFNE01.JPG,4,8,48,8,,,,,,,,,,,,,,,,,,,,,,,AFSA18.jpg,AFNE07.jpg,AFNE03.jpg,AFSA05.jpg,AFNE07.jpg,FN,3,num_6,16,num_6,0.550144573441,,,2017_Nov_08_1521,60.0013279464,FEMA4ImagesEEG,001,201659,
AFNE01.JPG,AFNE01.JPG,AFNE01.JPG,AFNE01.JPG,AFNE01.JPG,AFNE01.JPG,4,9,49,9,,,,,,,,,,,,,,,,,,,,,,,AFNE15.jpg,AFNE02.jpg,AFSA19.jpg,AFSA03.jpg,AFNE15.jpg,FN,3,num_8,32,num_4,0.816418013303,,,2017_Nov_08_1521,60.0013279464,FEMA4ImagesEEG,001,201659,
AFNE01.JPG,AFNE01.JPG,AFNE01.JPG,AFNE01.JPG,AFNE01.JPG,AFNE01.JPG,5,0,50,1,,,,,,,,,,,,,,,,,,,,,,,AFNE08.jpg,AFSA01.jpg,AFSA16.jpg,AFNE04.jpg,AFNE08.jpg,FN,3,num_8,32,num_4,0.450138639659,,,2017_Nov_08_1521,60.0013279464,FEMA4ImagesEEG,001,201659,
AFNE01.JPG,AFNE01.JPG,AFNE01.JPG,AFNE01.JPG,AFNE01.JPG,AFNE01.JPG,5,1,51,5,,,,,,,,,,,,,,,,,,,,,,,AFNE12.jpg,AFSA06.jpg,AFNE19.jpg,AFSA05.jpg,AFSA05.jpg,FS,4,num_4,32,num_6,0.900136474753,,,2017_Nov_08_1521,60.0013279464,FEMA4ImagesEEG,001,201659,
AFNE01.JPG,AFNE01.JPG,AFNE01.JPG,AFNE01.JPG,AFNE01.JPG,AFNE01.JPG,5,2,52,3,,,,,,,,,,,,,,,,,,,,,,,AFSA19.jpg,AFNE09.jpg,AFNE16.jpg,AFSA02.jpg,AFNE16.jpg,FN,3,num_2,16,num_2,1.15013238532,,,2017_Nov_08_1521,60.0013279464,FEMA4ImagesEEG,001,201659,
AFNE01.JPG,AFNE01.JPG,AFNE01.JPG,AFNE01.JPG,AFNE01.JPG,AFNE01.JPG,5,3,53,0,,,,,,,,,,,,,,,,,,,,,,,AFSA12.jpg,AFNE10.jpg,AFNE05.jpg,AFSA01.jpg,AFNE05.jpg,FN,3,num_2,16,num_2,0.550049313577,,,2017_Nov_08_1521,60.0013279464,FEMA4ImagesEEG,001,201659,
AFNE01.JPG,AFNE01.JPG,AFNE01.JPG,AFNE01.JPG,AFNE01.JPG,AFNE01.JPG,5,4,54,8,,,,,,,,,,,,,,,,,,,,,,,AFNE11.jpg,AFSA05.jpg,AFSA16.jpg,AFNE14.jpg,AFNE11.jpg,FN,3,num_8,16,num_8,0.766782934777,,,2017_Nov_08_1521,60.0013279464,FEMA4ImagesEEG,001,201659,
AFNE01.JPG,AFNE01.JPG,AFNE01.JPG,AFNE01.JPG,AFNE01.JPG,AFNE01.JPG,5,5,55,6,,,,,,,,,,,,,,,,,,,,,,,AFNE07.jpg,AFNE04.jpg,AFSA07.jpg,AFSA15.jpg,AFNE04.jpg,FN,3,num_6,16,num_6,1.59994130465,,,2017_Nov_08_1521,60.0013279464,FEMA4ImagesEEG,001,201659,
AFNE01.JPG,AFNE01.JPG,AFNE01.JPG,AFNE01.JPG,AFNE01.JPG,AFNE01.JPG,5,6,56,9,,,,,,,,,,,,,,,,,,,,,,,AFNE01.jpg,AFSA05.jpg,AFNE14.jpg,AFSA15.jpg,AFSA05.jpg,FS,4,num_6,32,num_8,1.78340974962,,,2017_Nov_08_1521,60.0013279464,FEMA4ImagesEEG,001,201659,
AFNE01.JPG,AFNE01.JPG,AFNE01.JPG,AFNE01.JPG,AFNE01.JPG,AFNE01.JPG,5,7,57,7,,,,,,,,,,,,,,,,,,,,,,,AFNE04.jpg,AFSA16.jpg,AFSA01.jpg,AFNE14.jpg,AFSA01.jpg,FS,4,num_2,16,num_2,1.91669336823,,,2017_Nov_08_1521,60.0013279464,FEMA4ImagesEEG,001,201659,
AFNE01.JPG,AFNE01.JPG,AFNE01.JPG,AFNE01.JPG,AFNE01.JPG,AFNE01.JPG,5,8,58,4,,,,,,,,,,,,,,,,,,,,,,,AFNE11.jpg,AFNE13.jpg,AFSA02.jpg,AFSA19.jpg,AFSA19.jpg,FS,4,num_4,32,num_6,1.48349041538,,,2017_Nov_08_1521,60.0013279464,FEMA4ImagesEEG,001,201659,
AFNE01.JPG,AFNE01.JPG,AFNE01.JPG,AFNE01.JPG,AFNE01.JPG,AFNE01.JPG,5,9,59,2,,,,,,,,,,,,,,,,,,,,,,,AFNE14.jpg,AFSA17.jpg,AFSA07.jpg,AFNE06.jpg,AFSA07.jpg,FS,4,num_2,16,num_2,1.20009942912,,,2017_Nov_08_1521,60.0013279464,FEMA4ImagesEEG,001,201659,
,,,,,,,,,,,,,,,,,,,,,,,,,,,,,,,,,,,,,,,,,,,space,2.24999013729,2017_Nov_08_1521,60.0013279464,FEMA4ImagesEEG,001,201659,
AFNE01.JPG,AFNE01.JPG,AFNE01.JPG,AFNE01.JPG,AFNE01.JPG,AFNE01.JPG,,,,,0,0,0,0,,,,,,,,,,,,,,,,,,,AMNE10.jpg,AMSA08.jpg,AMNE14.jpg,AMSA19.jpg,AMSA08.jpg,MS,2,num_6,32,num_4,0.95003038994,,,2017_Nov_08_1521,60.0013279464,FEMA4ImagesEEG,001,201659,
AFNE01.JPG,AFNE01.JPG,AFNE01.JPG,AFNE01.JPG,AFNE01.JPG,AFNE01.JPG,,,,,0,1,1,4,,,,,,,,,,,,,,,,,,,AMNE02.jpg,AMSA19.jpg,AMSA20.jpg,AMNE08.jpg,AMNE08.jpg,MN,1,num_4,32,num_6,0.616825994104,,,2017_Nov_08_1521,60.0013279464,FEMA4ImagesEEG,001,201659,
AFNE01.JPG,AFNE01.JPG,AFNE01.JPG,AFNE01.JPG,AFNE01.JPG,AFNE01.JPG,,,,,0,2,2,8,,,,,,,,,,,,,,,,,,,AMNE07.jpg,AMNE19.jpg,AMSA09.jpg,AMSA10.jpg,AMSA09.jpg,MS,2,num_2,32,num_4,0.550132385222,,,2017_Nov_08_1521,60.0013279464,FEMA4ImagesEEG,001,201659,
AFNE01.JPG,AFNE01.JPG,AFNE01.JPG,AFNE01.JPG,AFNE01.JPG,AFNE01.JPG,,,,,0,3,3,6,,,,,,,,,,,,,,,,,,,AMSA08.jpg,AMSA04.jpg,AMNE08.jpg,AMNE06.jpg,AMNE06.jpg,MN,1,num_4,16,num_4,0.450349365361,,,2017_Nov_08_1521,60.0013279464,FEMA4ImagesEEG,001,201659,
AFNE01.JPG,AFNE01.JPG,AFNE01.JPG,AFNE01.JPG,AFNE01.JPG,AFNE01.JPG,,,,,0,4,4,7,,,,,,,,,,,,,,,,,,,AMNE01.jpg,AMNE03.jpg,AMSA05.jpg,AMSA16.jpg,AMNE03.jpg,MN,1,num_6,32,num_8,1.20009942935,,,2017_Nov_08_1521,60.0013279464,FEMA4ImagesEEG,001,201659,
AFNE01.JPG,AFNE01.JPG,AFNE01.JPG,AFNE01.JPG,AFNE01.JPG,AFNE01.JPG,,,,,0,5,5,1,,,,,,,,,,,,,,,,,,,AMNE05.jpg,AMSA08.jpg,AMSA18.jpg,AMNE04.jpg,AMNE05.jpg,MN,1,num_8,16,num_8,1.15010127355,,,2017_Nov_08_1521,60.0013279464,FEMA4ImagesEEG,001,201659,
AFNE01.JPG,AFNE01.JPG,AFNE01.JPG,AFNE01.JPG,AFNE01.JPG,AFNE01.JPG,,,,,0,6,6,3,,,,,,,,,,,,,,,,,,,AMNE02.jpg,AMNE10.jpg,AMSA09.jpg,AMSA11.jpg,AMNE02.jpg,MN,1,num_8,16,num_8,0.533488571178,,,2017_Nov_08_1521,60.0013279464,FEMA4ImagesEEG,001,201659,
AFNE01.JPG,AFNE01.JPG,AFNE01.JPG,AFNE01.JPG,AFNE01.JPG,AFNE01.JPG,,,,,0,7,7,9,,,,,,,,,,,,,,,,,,,AMNE03.jpg,AMNE07.jpg,AMSA12.jpg,AMSA07.jpg,AMSA07.jpg,MS,2,num_4,16,num_4,0.400151709793,,,2017_Nov_08_1521,60.0013279464,FEMA4ImagesEEG,001,201659,
AFNE01.JPG,AFNE01.JPG,AFNE01.JPG,AFNE01.JPG,AFNE01.JPG,AFNE01.JPG,,,,,0,8,8,5,,,,,,,,,,,,,,,,,,,AMNE12.jpg,AMNE06.jpg,AMSA20.jpg,AMSA15.jpg,AMNE06.jpg,MN,1,num_6,32,num_8,0.633489693748,,,2017_Nov_08_1521,60.0013279464,FEMA4ImagesEEG,001,201659,
AFNE01.JPG,AFNE01.JPG,AFNE01.JPG,AFNE01.JPG,AFNE01.JPG,AFNE01.JPG,,,,,0,9,9,2,,,,,,,,,,,,,,,,,,,AMNE14.jpg,AMNE07.jpg,AMSA13.jpg,AMSA20.jpg,AMNE14.jpg,MN,1,num_8,16,num_8,1.2167679402,,,2017_Nov_08_1521,60.0013279464,FEMA4ImagesEEG,001,201659,
AFNE01.JPG,AFNE01.JPG,AFNE01.JPG,AFNE01.JPG,AFNE01.JPG,AFNE01.JPG,,,,,1,0,10,8,,,,,,,,,,,,,,,,,,,AMSA09.jpg,AMNE19.jpg,AMNE16.jpg,AMSA01.jpg,AMSA01.jpg,MS,2,num_4,16,num_4,0.783889255254,,,2017_Nov_08_1521,60.0013279464,FEMA4ImagesEEG,001,201659,
AFNE01.JPG,AFNE01.JPG,AFNE01.JPG,AFNE01.JPG,AFNE01.JPG,AFNE01.JPG,,,,,1,1,11,6,,,,,,,,,,,,,,,,,,,AMSA13.jpg,AMSA09.jpg,AMNE04.jpg,AMNE17.jpg,AMSA09.jpg,MS,2,num_6,32,num_8,0.966700504767,,,2017_Nov_08_1521,60.0013279464,FEMA4ImagesEEG,001,201659,
AFNE01.JPG,AFNE01.JPG,AFNE01.JPG,AFNE01.JPG,AFNE01.JPG,AFNE01.JPG,,,,,1,2,12,9,,,,,,,,,,,,,,,,,,,AMNE11.jpg,AMSA09.jpg,AMSA02.jpg,AMNE03.jpg,AMSA09.jpg,MS,2,num_6,16,num_6,1.16675695498,,,2017_Nov_08_1521,60.0013279464,FEMA4ImagesEEG,001,201659,
AFNE01.JPG,AFNE01.JPG,AFNE01.JPG,AFNE01.JPG,AFNE01.JPG,AFNE01.JPG,,,,,1,3,13,1,,,,,,,,,,,,,,,,,,,AMNE18.jpg,AMSA02.jpg,AMSA15.jpg,AMNE07.jpg,AMNE07.jpg,MN,1,num_4,32,num_8,0.583524253685,,,2017_Nov_08_1521,60.0013279464,FEMA4ImagesEEG,001,201659,
AFNE01.JPG,AFNE01.JPG,AFNE01.JPG,AFNE01.JPG,AFNE01.JPG,AFNE01.JPG,,,,,1,4,14,3,,,,,,,,,,,,,,,,,,,AMNE01.jpg,AMSA15.jpg,AMSA12.jpg,AMNE10.jpg,AMNE10.jpg,MN,1,num_4,32,num_6,0.800221310463,,,2017_Nov_08_1521,60.0013279464,FEMA4ImagesEEG,001,201659,
AFNE01.JPG,AFNE01.JPG,AFNE01.JPG,AFNE01.JPG,AFNE01.JPG,AFNE01.JPG,,,,,1,5,15,2,,,,,,,,,,,,,,,,,,,AMNE12.jpg,AMNE03.jpg,AMSA16.jpg,AMSA01.jpg,AMSA16.jpg,MS,2,num_2,16,num_2,0.566800575471,,,2017_Nov_08_1521,60.0013279464,FEMA4ImagesEEG,001,201659,
AFNE01.JPG,AFNE01.JPG,AFNE01.JPG,AFNE01.JPG,AFNE01.JPG,AFNE01.JPG,,,,,1,6,16,5,,,,,,,,,,,,,,,,,,,AMSA16.jpg,AMSA12.jpg,AMNE11.jpg,AMNE16.jpg,AMNE11.jpg,MN,1,num_2,32,num_4,0.416810277849,,,2017_Nov_08_1521,60.0013279464,FEMA4ImagesEEG,001,201659,
AFNE01.JPG,AFNE01.JPG,AFNE01.JPG,AFNE01.JPG,AFNE01.JPG,AFNE01.JPG,,,,,1,7,17,4,,,,,,,,,,,,,,,,,,,AMNE18.jpg,AMSA05.jpg,AMSA19.jpg,AMNE04.jpg,AMNE18.jpg,MN,1,num_8,32,num_4,0.250115867006,,,2017_Nov_08_1521,60.0013279464,FEMA4ImagesEEG,001,201659,
AFNE01.JPG,AFNE01.JPG,AFNE01.JPG,AFNE01.JPG,AFNE01.JPG,AFNE01.JPG,,,,,1,8,18,0,,,,,,,,,,,,,,,,,,,AMNE16.jpg,AMSA10.jpg,AMSA03.jpg,AMNE04.jpg,AMSA03.jpg,MS,2,num_2,16,num_2,0.466840186855,,,2017_Nov_08_1521,60.0013279464,FEMA4ImagesEEG,001,201659,
AFNE01.JPG,AFNE01.JPG,AFNE01.JPG,AFNE01.JPG,AFNE01.JPG,AFNE01.JPG,,,,,1,9,19,7,,,,,,,,,,,,,,,,,,,AMNE09.jpg,AMSA10.jpg,AMSA07.jpg,AMNE05.jpg,AMSA07.jpg,MS,2,num_2,16,num_2,0.666847884655,,,2017_Nov_08_1521,60.0013279464,FEMA4ImagesEEG,001,201659,
AFNE01.JPG,AFNE01.JPG,AFNE01.JPG,AFNE01.JPG,AFNE01.JPG,AFNE01.JPG,,,,,2,0,20,3,,,,,,,,,,,,,,,,,,,AMNE06.jpg,AMSA05.jpg,AMSA10.jpg,AMNE13.jpg,AMNE13.jpg,MN,1,num_4,32,num_6,0.866800094489,,,2017_Nov_08_1521,60.0013279464,FEMA4ImagesEEG,001,201659,
AFNE01.JPG,AFNE01.JPG,AFNE01.JPG,AFNE01.JPG,AFNE01.JPG,AFNE01.JPG,,,,,2,1,21,1,,,,,,,,,,,,,,,,,,,AMSA10.jpg,AMNE10.jpg,AMNE06.jpg,AMSA16.jpg,AMSA16.jpg,MS,2,num_4,32,num_6,0.600186349824,,,2017_Nov_08_1521,60.0013279464,FEMA4ImagesEEG,001,201659,
AFNE01.JPG,AFNE01.JPG,AFNE01.JPG,AFNE01.JPG,AFNE01.JPG,AFNE01.JPG,,,,,2,2,22,6,,,,,,,,,,,,,,,,,,,AMSA05.jpg,AMNE20.jpg,AMNE06.jpg,AMSA17.jpg,AMSA17.jpg,MS,2,num_4,16,num_4,0.700112098362,,,2017_Nov_08_1521,60.0013279464,FEMA4ImagesEEG,001,201659,
AFNE01.JPG,AFNE01.JPG,AFNE01.JPG,AFNE01.JPG,AFNE01.JPG,AFNE01.JPG,,,,,2,3,23,9,,,,,,,,,,,,,,,,,,,AMNE04.jpg,AMSA02.jpg,AMSA17.jpg,AMNE15.jpg,AMSA17.jpg,MS,2,num_2,16,num_2,0.483486566693,,,2017_Nov_08_1521,60.0013279464,FEMA4ImagesEEG,001,201659,
AFNE01.JPG,AFNE01.JPG,AFNE01.JPG,AFNE01.JPG,AFNE01.JPG,AFNE01.JPG,,,,,2,4,24,7,,,,,,,,,,,,,,,,,,,AMSA14.jpg,AMNE09.jpg,AMSA06.jpg,AMNE19.jpg,AMNE19.jpg,MN,1,num_4,32,num_6,0.766805386404,,,2017_Nov_08_1521,60.0013279464,FEMA4ImagesEEG,001,201659,
AFNE01.JPG,AFNE01.JPG,AFNE01.JPG,AFNE01.JPG,AFNE01.JPG,AFNE01.JPG,,,,,2,5,25,0,,,,,,,,,,,,,,,,,,,AMNE16.jpg,AMSA19.jpg,AMSA03.jpg,AMNE08.jpg,AMNE16.jpg,MN,1,num_8,16,num_8,0.716968241846,,,2017_Nov_08_1521,60.0013279464,FEMA4ImagesEEG,001,201659,
AFNE01.JPG,AFNE01.JPG,AFNE01.JPG,AFNE01.JPG,AFNE01.JPG,AFNE01.JPG,,,,,2,6,26,5,,,,,,,,,,,,,,,,,,,AMSA12.jpg,AMNE09.jpg,AMSA18.jpg,AMNE18.jpg,AMSA12.jpg,MS,2,num_8,16,num_8,2.78356979857,,,2017_Nov_08_1521,60.0013279464,FEMA4ImagesEEG,001,201659,
AFNE01.JPG,AFNE01.JPG,AFNE01.JPG,AFNE01.JPG,AFNE01.JPG,AFNE01.JPG,,,,,2,7,27,2,,,,,,,,,,,,,,,,,,,AMSA11.jpg,AMNE13.jpg,AMNE12.jpg,AMSA03.jpg,AMNE12.jpg,MN,1,num_2,32,num_4,0.783583269687,,,2017_Nov_08_1521,60.0013279464,FEMA4ImagesEEG,001,201659,
AFNE01.JPG,AFNE01.JPG,AFNE01.JPG,AFNE01.JPG,AFNE01.JPG,AFNE01.JPG,,,,,2,8,28,4,,,,,,,,,,,,,,,,,,,AMNE20.jpg,AMSA16.jpg,AMSA06.jpg,AMNE19.jpg,AMSA16.jpg,MS,2,num_6,32,num_4,1.26687226072,,,2017_Nov_08_1521,60.0013279464,FEMA4ImagesEEG,001,201659,
AFNE01.JPG,AFNE01.JPG,AFNE01.JPG,AFNE01.JPG,AFNE01.JPG,AFNE01.JPG,,,,,2,9,29,8,,,,,,,,,,,,,,,,,,,AMNE08.jpg,AMNE18.jpg,AMSA13.jpg,AMSA20.jpg,AMNE18.jpg,MN,1,num_6,32,num_8,1.10007970384,,,2017_Nov_08_1521,60.0013279464,FEMA4ImagesEEG,001,201659,
AFNE01.JPG,AFNE01.JPG,AFNE01.JPG,AFNE01.JPG,AFNE01.JPG,AFNE01.JPG,,,,,3,0,30,3,,,,,,,,,,,,,,,,,,,AMSA20.jpg,AMNE09.jpg,AMNE19.jpg,AMSA12.jpg,AMSA20.jpg,MS,2,num_8,32,num_4,0.816766336327,,,2017_Nov_08_1521,60.0013279464,FEMA4ImagesEEG,001,201659,
AFNE01.JPG,AFNE01.JPG,AFNE01.JPG,AFNE01.JPG,AFNE01.JPG,AFNE01.JPG,,,,,3,1,31,7,,,,,,,,,,,,,,,,,,,AMSA09.jpg,AMNE20.jpg,AMNE11.jpg,AMSA05.jpg,AMNE11.jpg,MN,1,num_2,32,num_8,0.683396438835,,,2017_Nov_08_1521,60.0013279464,FEMA4ImagesEEG,001,201659,
AFNE01.JPG,AFNE01.JPG,AFNE01.JPG,AFNE01.JPG,AFNE01.JPG,AFNE01.JPG,,,,,3,2,32,6,,,,,,,,,,,,,,,,,,,AMNE08.jpg,AMSA02.jpg,AMNE02.jpg,AMSA01.jpg,AMNE02.jpg,MN,1,num_2,16,num_2,1.88334608264,,,2017_Nov_08_1521,60.0013279464,FEMA4ImagesEEG,001,201659,
AFNE01.JPG,AFNE01.JPG,AFNE01.JPG,AFNE01.JPG,AFNE01.JPG,AFNE01.JPG,,,,,3,3,33,9,,,,,,,,,,,,,,,,,,,AMSA13.jpg,AMSA17.jpg,AMNE03.jpg,AMNE09.jpg,AMSA17.jpg,MS,2,num_6,16,num_6,0.916783496039,,,2017_Nov_08_1521,60.0013279464,FEMA4ImagesEEG,001,201659,
AFNE01.JPG,AFNE01.JPG,AFNE01.JPG,AFNE01.JPG,AFNE01.JPG,AFNE01.JPG,,,,,3,4,34,1,,,,,,,,,,,,,,,,,,,AMSA19.jpg,AMSA05.jpg,AMNE14.jpg,AMNE13.jpg,AMNE14.jpg,MN,1,num_2,16,num_2,0.60016582231,,,2017_Nov_08_1521,60.0013279464,FEMA4ImagesEEG,001,201659,
AFNE01.JPG,AFNE01.JPG,AFNE01.JPG,AFNE01.JPG,AFNE01.JPG,AFNE01.JPG,,,,,3,5,35,0,,,,,,,,,,,,,,,,,,,AMNE10.jpg,AMSA20.jpg,AMSA03.jpg,AMNE01.jpg,AMSA20.jpg,MS,2,num_6,16,num_6,0.900228206068,,,2017_Nov_08_1521,60.0013279464,FEMA4ImagesEEG,001,201659,
AFNE01.JPG,AFNE01.JPG,AFNE01.JPG,AFNE01.JPG,AFNE01.JPG,AFNE01.JPG,,,,,3,6,36,8,,,,,,,,,,,,,,,,,,,AMNE12.jpg,AMSA08.jpg,AMNE03.jpg,AMSA04.jpg,AMSA04.jpg,MS,2,num_4,32,num_8,0.600163256284,,,2017_Nov_08_1521,60.0013279464,FEMA4ImagesEEG,001,201659,
AFNE01.JPG,AFNE01.JPG,AFNE01.JPG,AFNE01.JPG,AFNE01.JPG,AFNE01.JPG,,,,,3,7,37,4,,,,,,,,,,,,,,,,,,,AMNE17.jpg,AMNE16.jpg,AMSA18.jpg,AMSA06.jpg,AMNE17.jpg,MN,1,num_8,32,num_4,0.983468765626,,,2017_Nov_08_1521,60.0013279464,FEMA4ImagesEEG,001,201659,
AFNE01.JPG,AFNE01.JPG,AFNE01.JPG,AFNE01.JPG,AFNE01.JPG,AFNE01.JPG,,,,,3,8,38,2,,,,,,,,,,,,,,,,,,,AMSA17.jpg,AMSA12.jpg,AMNE13.jpg,AMNE10.jpg,AMSA12.jpg,MS,2,num_6,16,num_6,0.800135672791,,,2017_Nov_08_1521,60.0013279464,FEMA4ImagesEEG,001,201659,
AFNE01.JPG,AFNE01.JPG,AFNE01.JPG,AFNE01.JPG,AFNE01.JPG,AFNE01.JPG,,,,,3,9,39,5,,,,,,,,,,,,,,,,,,,AMSA05.jpg,AMNE13.jpg,AMSA13.jpg,AMNE02.jpg,AMNE13.jpg,MN,1,num_6,16,num_6,0.766756954836,,,2017_Nov_08_1521,60.0013279464,FEMA4ImagesEEG,001,201659,
AFNE01.JPG,AFNE01.JPG,AFNE01.JPG,AFNE01.JPG,AFNE01.JPG,AFNE01.JPG,,,,,4,0,40,5,,,,,,,,,,,,,,,,,,,AMNE02.jpg,AMSA07.jpg,AMNE09.jpg,AMSA02.jpg,AMSA07.jpg,MS,2,num_6,16,num_6,0.533505570376,,,2017_Nov_08_1521,60.0013279464,FEMA4ImagesEEG,001,201659,
AFNE01.JPG,AFNE01.JPG,AFNE01.JPG,AFNE01.JPG,AFNE01.JPG,AFNE01.JPG,,,,,4,1,41,9,,,,,,,,,,,,,,,,,,,AMNE16.jpg,AMNE09.jpg,AMSA20.jpg,AMSA05.jpg,AMSA05.jpg,MS,2,num_4,32,num_8,0.633497391595,,,2017_Nov_08_1521,60.0013279464,FEMA4ImagesEEG,001,201659,
AFNE01.JPG,AFNE01.JPG,AFNE01.JPG,AFNE01.JPG,AFNE01.JPG,AFNE01.JPG,,,,,4,2,42,6,,,,,,,,,,,,,,,,,,,AMSA19.jpg,AMNE01.jpg,AMSA04.jpg,AMNE14.jpg,AMSA19.jpg,MS,2,num_8,16,num_8,0.633505410049,,,2017_Nov_08_1521,60.0013279464,FEMA4ImagesEEG,001,201659,
AFNE01.JPG,AFNE01.JPG,AFNE01.JPG,AFNE01.JPG,AFNE01.JPG,AFNE01.JPG,,,,,4,3,43,7,,,,,,,,,,,,,,,,,,,AMSA18.jpg,AMNE04.jpg,AMSA09.jpg,AMNE11.jpg,AMNE11.jpg,MN,1,num_4,16,num_4,3.69988822239,,,2017_Nov_08_1521,60.0013279464,FEMA4ImagesEEG,001,201659,
AFNE01.JPG,AFNE01.JPG,AFNE01.JPG,AFNE01.JPG,AFNE01.JPG,AFNE01.JPG,,,,,4,4,44,1,,,,,,,,,,,,,,,,,,,AMNE13.jpg,AMSA01.jpg,AMNE16.jpg,AMSA18.jpg,AMSA18.jpg,MS,2,num_4,32,num_2,0.983428352512,,,2017_Nov_08_1521,60.0013279464,FEMA4ImagesEEG,001,201659,
AFNE01.JPG,AFNE01.JPG,AFNE01.JPG,AFNE01.JPG,AFNE01.JPG,AFNE01.JPG,,,,,4,5,45,4,,,,,,,,,,,,,,,,,,,AMNE19.jpg,AMSA15.jpg,AMSA05.jpg,AMNE12.jpg,AMNE19.jpg,MN,1,num_8,16,num_8,0.516832569148,,,2017_Nov_08_1521,60.0013279464,FEMA4ImagesEEG,001,201659,
AFNE01.JPG,AFNE01.JPG,AFNE01.JPG,AFNE01.JPG,AFNE01.JPG,AFNE01.JPG,,,,,4,6,46,8,,,,,,,,,,,,,,,,,,,AMNE07.jpg,AMNE09.jpg,AMSA16.jpg,AMSA20.jpg,AMSA20.jpg,MS,2,num_4,16,num_4,0.366817895556,,,2017_Nov_08_1521,60.0013279464,FEMA4ImagesEEG,001,201659,
AFNE01.JPG,AFNE01.JPG,AFNE01.JPG,AFNE01.JPG,AFNE01.JPG,AFNE01.JPG,,,,,4,7,47,3,,,,,,,,,,,,,,,,,,,AMSA15.jpg,AMNE03.jpg,AMNE06.jpg,AMSA04.jpg,AMNE03.jpg,MN,1,num_6,16,num_6,2.38339210884,,,2017_Nov_08_1521,60.0013279464,FEMA4ImagesEEG,001,201659,
AFNE01.JPG,AFNE01.JPG,AFNE01.JPG,AFNE01.JPG,AFNE01.JPG,AFNE01.JPG,,,,,4,8,48,2,,,,,,,,,,,,,,,,,,,AMNE08.jpg,AMSA18.jpg,AMSA06.jpg,AMNE01.jpg,AMNE01.jpg,MN,1,num_4,32,num_8,0.700436045416,,,2017_Nov_08_1521,60.0013279464,FEMA4ImagesEEG,001,201659,
AFNE01.JPG,AFNE01.JPG,AFNE01.JPG,AFNE01.JPG,AFNE01.JPG,AFNE01.JPG,,,,,4,9,49,0,,,,,,,,,,,,,,,,,,,AMNE15.jpg,AMNE06.jpg,AMSA05.jpg,AMSA19.jpg,AMNE15.jpg,MN,1,num_8,32,num_4,0.866889259778,,,2017_Nov_08_1521,60.0013279464,FEMA4ImagesEEG,001,201659,
AFNE01.JPG,AFNE01.JPG,AFNE01.JPG,AFNE01.JPG,AFNE01.JPG,AFNE01.JPG,,,,,5,0,50,5,,,,,,,,,,,,,,,,,,,AMSA14.jpg,AMSA12.jpg,AMNE16.jpg,AMNE11.jpg,AMSA12.jpg,MS,2,num_6,16,num_6,0.833481675247,,,2017_Nov_08_1521,60.0013279464,FEMA4ImagesEEG,001,201659,
AFNE01.JPG,AFNE01.JPG,AFNE01.JPG,AFNE01.JPG,AFNE01.JPG,AFNE01.JPG,,,,,5,1,51,4,,,,,,,,,,,,,,,,,,,AMSA03.jpg,AMNE19.jpg,AMNE07.jpg,AMSA08.jpg,AMNE07.jpg,MN,1,num_2,32,num_8,0.70009349566,,,2017_Nov_08_1521,60.0013279464,FEMA4ImagesEEG,001,201659,
AFNE01.JPG,AFNE01.JPG,AFNE01.JPG,AFNE01.JPG,AFNE01.JPG,AFNE01.JPG,,,,,5,2,52,7,,,,,,,,,,,,,,,,,,,AMNE07.jpg,AMSA18.jpg,AMNE09.jpg,AMSA06.jpg,AMNE07.jpg,MN,1,num_8,16,num_8,0.533480873564,,,2017_Nov_08_1521,60.0013279464,FEMA4ImagesEEG,001,201659,
AFNE01.JPG,AFNE01.JPG,AFNE01.JPG,AFNE01.JPG,AFNE01.JPG,AFNE01.JPG,,,,,5,3,53,1,,,,,,,,,,,,,,,,,,,AMSA11.jpg,AMSA18.jpg,AMNE03.jpg,AMNE14.jpg,AMNE03.jpg,MN,1,num_2,32,num_6,1.08347245422,,,2017_Nov_08_1521,60.0013279464,FEMA4ImagesEEG,001,201659,
AFNE01.JPG,AFNE01.JPG,AFNE01.JPG,AFNE01.JPG,AFNE01.JPG,AFNE01.JPG,,,,,5,4,54,6,,,,,,,,,,,,,,,,,,,AMNE06.jpg,AMNE03.jpg,AMSA13.jpg,AMSA19.jpg,AMNE06.jpg,MN,1,num_8,16,num_8,0.55014296947,,,2017_Nov_08_1521,60.0013279464,FEMA4ImagesEEG,001,201659,
AFNE01.JPG,AFNE01.JPG,AFNE01.JPG,AFNE01.JPG,AFNE01.JPG,AFNE01.JPG,,,,,5,5,55,9,,,,,,,,,,,,,,,,,,,AMSA15.jpg,AMNE04.jpg,AMSA09.jpg,AMNE17.jpg,AMSA09.jpg,MS,2,num_2,32,num_6,1.50009125029,,,2017_Nov_08_1521,60.0013279464,FEMA4ImagesEEG,001,201659,
AFNE01.JPG,AFNE01.JPG,AFNE01.JPG,AFNE01.JPG,AFNE01.JPG,AFNE01.JPG,,,,,5,6,56,8,,,,,,,,,,,,,,,,,,,AMSA11.jpg,AMNE05.jpg,AMSA04.jpg,AMNE16.jpg,AMSA04.jpg,MS,2,num_2,16,num_2,2.79968471313,,,2017_Nov_08_1521,60.0013279464,FEMA4ImagesEEG,001,201659,
AFNE01.JPG,AFNE01.JPG,AFNE01.JPG,AFNE01.JPG,AFNE01.JPG,AFNE01.JPG,,,,,5,7,57,3,,,,,,,,,,,,,,,,,,,AMNE12.jpg,AMSA09.jpg,AMSA08.jpg,AMNE04.jpg,AMSA09.jpg,MS,2,num_6,32,num_8,0.366836498259,,,2017_Nov_08_1521,60.0013279464,FEMA4ImagesEEG,001,201659,
AFNE01.JPG,AFNE01.JPG,AFNE01.JPG,AFNE01.JPG,AFNE01.JPG,AFNE01.JPG,,,,,5,8,58,0,,,,,,,,,,,,,,,,,,,AMSA02.jpg,AMSA06.jpg,AMNE07.jpg,AMNE03.jpg,AMNE07.jpg,MN,1,num_2,16,num_2,2.30003030971,,,2017_Nov_08_1521,60.0013279464,FEMA4ImagesEEG,001,201659,
AFNE01.JPG,AFNE01.JPG,AFNE01.JPG,AFNE01.JPG,AFNE01.JPG,AFNE01.JPG,,,,,5,9,59,2,,,,,,,,,,,,,,,,,,,AMNE20.jpg,AMSA19.jpg,AMSA15.jpg,AMNE02.jpg,AMSA15.jpg,MS,2,num_2,16,num_2,0.700149945682,,,2017_Nov_08_1521,60.0013279464,FEMA4ImagesEEG,001,201659,
,,,,,,,,,,,,,,,,,,,,,,,,,,,,,,,,,,,,,,,,,,,space,1.23340950906,2017_Nov_08_1521,60.0013279464,FEMA4ImagesEEG,001,201659,
AFNE01.JPG,AFNE01.JPG,AFNE01.JPG,AFNE01.JPG,AFNE01.JPG,AFNE01.JPG,,,,,,,,,0,0,0,0,,,,,,,,,,,,,,,AFSA09.jpg,AFNE08.jpg,AFNE07.jpg,AFSA17.jpg,AFSA09.jpg,FS,4,num_8,32,num_6,0.683508697664,,,2017_Nov_08_1521,60.0013279464,FEMA4ImagesEEG,001,201659,
AFNE01.JPG,AFNE01.JPG,AFNE01.JPG,AFNE01.JPG,AFNE01.JPG,AFNE01.JPG,,,,,,,,,0,1,1,2,,,,,,,,,,,,,,,AFNE13.jpg,AFNE03.jpg,AFSA05.jpg,AFSA07.jpg,AFSA05.jpg,FS,4,num_2,32,num_4,0.483443908393,,,2017_Nov_08_1521,60.0013279464,FEMA4ImagesEEG,001,201659,
AFNE01.JPG,AFNE01.JPG,AFNE01.JPG,AFNE01.JPG,AFNE01.JPG,AFNE01.JPG,,,,,,,,,0,2,2,1,,,,,,,,,,,,,,,AFNE06.jpg,AFSA03.jpg,AFNE18.jpg,AFSA13.jpg,AFNE18.jpg,FN,3,num_2,16,num_2,0.883496509399,,,2017_Nov_08_1521,60.0013279464,FEMA4ImagesEEG,001,201659,
AFNE01.JPG,AFNE01.JPG,AFNE01.JPG,AFNE01.JPG,AFNE01.JPG,AFNE01.JPG,,,,,,,,,0,3,3,6,,,,,,,,,,,,,,,AFSA06.jpg,AFSA07.jpg,AFNE11.jpg,AFNE18.jpg,AFSA06.jpg,FS,4,num_8,16,num_8,0.8668773924,,,2017_Nov_08_1521,60.0013279464,FEMA4ImagesEEG,001,201659,
AFNE01.JPG,AFNE01.JPG,AFNE01.JPG,AFNE01.JPG,AFNE01.JPG,AFNE01.JPG,,,,,,,,,0,4,4,8,,,,,,,,,,,,,,,AFSA12.jpg,AFNE02.jpg,AFSA17.jpg,AFNE19.jpg,AFSA17.jpg,FS,4,num_2,32,num_6,0.716815569904,,,2017_Nov_08_1521,60.0013279464,FEMA4ImagesEEG,001,201659,
AFNE01.JPG,AFNE01.JPG,AFNE01.JPG,AFNE01.JPG,AFNE01.JPG,AFNE01.JPG,,,,,,,,,0,5,5,7,,,,,,,,,,,,,,,AFNE12.jpg,AFSA08.jpg,AFNE14.jpg,AFSA13.jpg,AFNE12.jpg,FN,3,num_8,16,num_8,0.550141365966,,,2017_Nov_08_1521,60.0013279464,FEMA4ImagesEEG,001,201659,
AFNE01.JPG,AFNE01.JPG,AFNE01.JPG,AFNE01.JPG,AFNE01.JPG,AFNE01.JPG,,,,,,,,,0,6,6,3,,,,,,,,,,,,,,,AFSA04.jpg,AFSA13.jpg,AFNE07.jpg,AFNE03.jpg,AFSA04.jpg,FS,4,num_8,32,num_6,0.933486005291,,,2017_Nov_08_1521,60.0013279464,FEMA4ImagesEEG,001,201659,
AFNE01.JPG,AFNE01.JPG,AFNE01.JPG,AFNE01.JPG,AFNE01.JPG,AFNE01.JPG,,,,,,,,,0,7,7,9,,,,,,,,,,,,,,,AFSA04.jpg,AFSA03.jpg,AFNE19.jpg,AFNE07.jpg,AFNE19.jpg,FN,3,num_2,16,num_2,0.616826635553,,,2017_Nov_08_1521,60.0013279464,FEMA4ImagesEEG,001,201659,
AFNE01.JPG,AFNE01.JPG,AFNE01.JPG,AFNE01.JPG,AFNE01.JPG,AFNE01.JPG,,,,,,,,,0,8,8,4,,,,,,,,,,,,,,,AFNE07.jpg,AFSA07.jpg,AFNE18.jpg,AFSA03.jpg,AFSA03.jpg,FS,4,num_4,32,num_2,1.01684106886,,,2017_Nov_08_1521,60.0013279464,FEMA4ImagesEEG,001,201659,
AFNE01.JPG,AFNE01.JPG,AFNE01.JPG,AFNE01.JPG,AFNE01.JPG,AFNE01.JPG,,,,,,,,,0,9,9,5,,,,,,,,,,,,,,,AFNE15.jpg,AFNE03.jpg,AFSA07.jpg,AFSA03.jpg,AFNE15.jpg,FN,3,num_8,16,num_8,0.450182581088,,,2017_Nov_08_1521,60.0013279464,FEMA4ImagesEEG,001,201659,
AFNE01.JPG,AFNE01.JPG,AFNE01.JPG,AFNE01.JPG,AFNE01.JPG,AFNE01.JPG,,,,,,,,,1,0,10,2,,,,,,,,,,,,,,,AFSA20.jpg,AFNE10.jpg,AFSA15.jpg,AFNE03.jpg,AFNE10.jpg,FN,3,num_6,16,num_6,0.950410787249,,,2017_Nov_08_1521,60.0013279464,FEMA4ImagesEEG,001,201659,
AFNE01.JPG,AFNE01.JPG,AFNE01.JPG,AFNE01.JPG,AFNE01.JPG,AFNE01.JPG,,,,,,,,,1,1,11,7,,,,,,,,,,,,,,,AFSA02.jpg,AFSA19.jpg,AFNE05.jpg,AFNE13.jpg,AFNE13.jpg,FN,3,num_4,32,num_8,0.583522970555,,,2017_Nov_08_1521,60.0013279464,FEMA4ImagesEEG,001,201659,
AFNE01.JPG,AFNE01.JPG,AFNE01.JPG,AFNE01.JPG,AFNE01.JPG,AFNE01.JPG,,,,,,,,,1,2,12,1,,,,,,,,,,,,,,,AFNE01.jpg,AFSA11.jpg,AFSA16.jpg,AFNE17.jpg,AFNE17.jpg,FN,3,num_4,16,num_4,0.800230611581,,,2017_Nov_08_1521,60.0013279464,FEMA4ImagesEEG,001,201659,
AFNE01.JPG,AFNE01.JPG,AFNE01.JPG,AFNE01.JPG,AFNE01.JPG,AFNE01.JPG,,,,,,,,,1,3,13,6,,,,,,,,,,,,,,,AFNE13.jpg,AFNE17.jpg,AFSA07.jpg,AFSA20.jpg,AFNE17.jpg,FN,3,num_6,32,num_2,0.366819819668,,,2017_Nov_08_1521,60.0013279464,FEMA4ImagesEEG,001,201659,
AFNE01.JPG,AFNE01.JPG,AFNE01.JPG,AFNE01.JPG,AFNE01.JPG,AFNE01.JPG,,,,,,,,,1,4,14,8,,,,,,,,,,,,,,,AFSA06.jpg,AFSA02.jpg,AFNE13.jpg,AFNE06.jpg,AFSA06.jpg,FS,4,num_8,16,num_8,1.46671124944,,,2017_Nov_08_1521,60.0013279464,FEMA4ImagesEEG,001,201659,
AFNE01.JPG,AFNE01.JPG,AFNE01.JPG,AFNE01.JPG,AFNE01.JPG,AFNE01.JPG,,,,,,,,,1,5,15,4,,,,,,,,,,,,,,,AFSA19.jpg,AFNE18.jpg,AFSA05.jpg,AFNE07.jpg,AFNE07.jpg,FN,3,num_4,32,num_6,0.750095820986,,,2017_Nov_08_1521,60.0013279464,FEMA4ImagesEEG,001,201659,
AFNE01.JPG,AFNE01.JPG,AFNE01.JPG,AFNE01.JPG,AFNE01.JPG,AFNE01.JPG,,,,,,,,,1,6,16,0,,,,,,,,,,,,,,,AFNE03.jpg,AFSA19.jpg,AFNE20.jpg,AFSA16.jpg,AFNE03.jpg,FN,3,num_8,32,num_4,0.616816051072,,,2017_Nov_08_1521,60.0013279464,FEMA4ImagesEEG,001,201659,
AFNE01.JPG,AFNE01.JPG,AFNE01.JPG,AFNE01.JPG,AFNE01.JPG,AFNE01.JPG,,,,,,,,,1,7,17,9,,,,,,,,,,,,,,,AFSA17.jpg,AFSA16.jpg,AFNE16.jpg,AFNE09.jpg,AFSA17.jpg,FS,4,num_8,32,num_2,0.766794481315,,,2017_Nov_08_1521,60.0013279464,FEMA4ImagesEEG,001,201659,
AFNE01.JPG,AFNE01.JPG,AFNE01.JPG,AFNE01.JPG,AFNE01.JPG,AFNE01.JPG,,,,,,,,,1,8,18,5,,,,,,,,,,,,,,,AFNE04.jpg,AFNE08.jpg,AFSA08.jpg,AFSA17.jpg,AFSA17.jpg,FS,4,num_4,16,num_4,0.500178812305,,,2017_Nov_08_1521,60.0013279464,FEMA4ImagesEEG,001,201659,
AFNE01.JPG,AFNE01.JPG,AFNE01.JPG,AFNE01.JPG,AFNE01.JPG,AFNE01.JPG,,,,,,,,,1,9,19,3,,,,,,,,,,,,,,,AFNE09.jpg,AFSA12.jpg,AFNE15.jpg,AFSA13.jpg,AFNE15.jpg,FN,3,num_2,16,num_2,0.400305664632,,,2017_Nov_08_1521,60.0013279464,FEMA4ImagesEEG,001,201659,
AFNE01.JPG,AFNE01.JPG,AFNE01.JPG,AFNE01.JPG,AFNE01.JPG,AFNE01.JPG,,,,,,,,,2,0,20,8,,,,,,,,,,,,,,,AFNE15.jpg,AFSA06.jpg,AFNE13.jpg,AFSA05.jpg,AFNE15.jpg,FN,3,num_8,16,num_8,0.433545502368,,,2017_Nov_08_1521,60.0013279464,FEMA4ImagesEEG,001,201659,
AFNE01.JPG,AFNE01.JPG,AFNE01.JPG,AFNE01.JPG,AFNE01.JPG,AFNE01.JPG,,,,,,,,,2,1,21,0,,,,,,,,,,,,,,,AFSA08.jpg,AFNE03.jpg,AFSA13.jpg,AFNE09.jpg,AFNE03.jpg,FN,3,num_6,16,num_6,1.26673755026,,,2017_Nov_08_1521,60.0013279464,FEMA4ImagesEEG,001,201659,
AFNE01.JPG,AFNE01.JPG,AFNE01.JPG,AFNE01.JPG,AFNE01.JPG,AFNE01.JPG,,,,,,,,,2,2,22,7,,,,,,,,,,,,,,,AFSA12.jpg,AFNE01.jpg,AFSA17.jpg,AFNE14.jpg,AFNE14.jpg,FN,3,num_4,32,num_8,0.583496028325,,,2017_Nov_08_1521,60.0013279464,FEMA4ImagesEEG,001,201659,
AFNE01.JPG,AFNE01.JPG,AFNE01.JPG,AFNE01.JPG,AFNE01.JPG,AFNE01.JPG,,,,,,,,,2,3,23,1,,,,,,,,,,,,,,,AFSA06.jpg,AFNE17.jpg,AFSA03.jpg,AFNE04.jpg,AFSA06.jpg,FS,4,num_8,32,num_4,0.716750780586,,,2017_Nov_08_1521,60.0013279464,FEMA4ImagesEEG,001,201659,
AFNE01.JPG,AFNE01.JPG,AFNE01.JPG,AFNE01.JPG,AFNE01.JPG,AFNE01.JPG,,,,,,,,,2,4,24,5,,,,,,,,,,,,,,,AFNE04.jpg,AFSA16.jpg,AFNE18.jpg,AFSA10.jpg,AFSA16.jpg,FS,4,num_6,32,num_8,0.583485444076,,,2017_Nov_08_1521,60.0013279464,FEMA4ImagesEEG,001,201659,
AFNE01.JPG,AFNE01.JPG,AFNE01.JPG,AFNE01.JPG,AFNE01.JPG,AFNE01.JPG,,,,,,,,,2,5,25,9,,,,,,,,,,,,,,,AFNE16.jpg,AFSA16.jpg,AFSA18.jpg,AFNE09.jpg,AFSA18.jpg,FS,4,num_2,32,num_8,0.633477826603,,,2017_Nov_08_1521,60.0013279464,FEMA4ImagesEEG,001,201659,
AFNE01.JPG,AFNE01.JPG,AFNE01.JPG,AFNE01.JPG,AFNE01.JPG,AFNE01.JPG,,,,,,,,,2,6,26,2,,,,,,,,,,,,,,,AFSA15.jpg,AFSA07.jpg,AFNE09.jpg,AFNE20.jpg,AFNE09.jpg,FN,3,num_2,16,num_2,1.08346315287,,,2017_Nov_08_1521,60.0013279464,FEMA4ImagesEEG,001,201659,
AFNE01.JPG,AFNE01.JPG,AFNE01.JPG,AFNE01.JPG,AFNE01.JPG,AFNE01.JPG,,,,,,,,,2,7,27,3,,,,,,,,,,,,,,,AFSA20.jpg,AFNE01.jpg,AFNE03.jpg,AFSA05.jpg,AFNE01.jpg,FN,3,num_6,16,num_6,0.966749257175,,,2017_Nov_08_1521,60.0013279464,FEMA4ImagesEEG,001,201659,
AFNE01.JPG,AFNE01.JPG,AFNE01.JPG,AFNE01.JPG,AFNE01.JPG,AFNE01.JPG,,,,,,,,,2,8,28,4,,,,,,,,,,,,,,,AFSA20.jpg,AFSA10.jpg,AFNE19.jpg,AFNE18.jpg,AFNE18.jpg,FN,3,num_4,32,num_6,0.600159407593,,,2017_Nov_08_1521,60.0013279464,FEMA4ImagesEEG,001,201659,
AFNE01.JPG,AFNE01.JPG,AFNE01.JPG,AFNE01.JPG,AFNE01.JPG,AFNE01.JPG,,,,,,,,,2,9,29,6,,,,,,,,,,,,,,,AFNE05.jpg,AFSA17.jpg,AFNE09.jpg,AFSA07.jpg,AFNE05.jpg,FN,3,num_8,16,num_8,0.616628418444,,,2017_Nov_08_1521,60.0013279464,FEMA4ImagesEEG,001,201659,
AFNE01.JPG,AFNE01.JPG,AFNE01.JPG,AFNE01.JPG,AFNE01.JPG,AFNE01.JPG,,,,,,,,,3,0,30,4,,,,,,,,,,,,,,,AFSA17.jpg,AFSA14.jpg,AFNE09.jpg,AFNE15.jpg,AFSA14.jpg,FS,4,num_6,16,num_6,0.533518400043,,,2017_Nov_08_1521,60.0013279464,FEMA4ImagesEEG,001,201659,
AFNE01.JPG,AFNE01.JPG,AFNE01.JPG,AFNE01.JPG,AFNE01.JPG,AFNE01.JPG,,,,,,,,,3,1,31,8,,,,,,,,,,,,,,,AFNE03.jpg,AFNE16.jpg,AFSA18.jpg,AFSA07.jpg,AFSA18.jpg,FS,4,num_2,16,num_2,0.433529144851,,,2017_Nov_08_1521,60.0013279464,FEMA4ImagesEEG,001,201659,
AFNE01.JPG,AFNE01.JPG,AFNE01.JPG,AFNE01.JPG,AFNE01.JPG,AFNE01.JPG,,,,,,,,,3,2,32,1,,,,,,,,,,,,,,,AFNE09.jpg,AFNE10.jpg,AFSA08.jpg,AFSA05.jpg,AFNE10.jpg,FN,3,num_6,16,num_6,0.433509579627,,,2017_Nov_08_1521,60.0013279464,FEMA4ImagesEEG,001,201659,
AFNE01.JPG,AFNE01.JPG,AFNE01.JPG,AFNE01.JPG,AFNE01.JPG,AFNE01.JPG,,,,,,,,,3,3,33,6,,,,,,,,,,,,,,,AFSA06.jpg,AFNE09.jpg,AFNE17.jpg,AFSA10.jpg,AFNE09.jpg,FN,3,num_6,32,num_8,0.683459624648,,,2017_Nov_08_1521,60.0013279464,FEMA4ImagesEEG,001,201659,
AFNE01.JPG,AFNE01.JPG,AFNE01.JPG,AFNE01.JPG,AFNE01.JPG,AFNE01.JPG,,,,,,,,,3,4,34,5,,,,,,,,,,,,,,,AFSA08.jpg,AFNE15.jpg,AFSA16.jpg,AFNE09.jpg,AFSA16.jpg,FS,4,num_2,32,num_6,0.450173279503,,,2017_Nov_08_1521,60.0013279464,FEMA4ImagesEEG,001,201659,
AFNE01.JPG,AFNE01.JPG,AFNE01.JPG,AFNE01.JPG,AFNE01.JPG,AFNE01.JPG,,,,,,,,,3,5,35,0,,,,,,,,,,,,,,,AFSA05.jpg,AFSA03.jpg,AFNE11.jpg,AFNE12.jpg,AFNE12.jpg,FN,3,num_4,16,num_4,0.76680923556,,,2017_Nov_08_1521,60.0013279464,FEMA4ImagesEEG,001,201659,
AFNE01.JPG,AFNE01.JPG,AFNE01.JPG,AFNE01.JPG,AFNE01.JPG,AFNE01.JPG,,,,,,,,,3,6,36,2,,,,,,,,,,,,,,,AFSA06.jpg,AFNE05.jpg,AFSA05.jpg,AFNE17.jpg,AFSA06.jpg,FS,4,num_8,16,num_8,0.766738672741,,,2017_Nov_08_1521,60.0013279464,FEMA4ImagesEEG,001,201659,
AFNE01.JPG,AFNE01.JPG,AFNE01.JPG,AFNE01.JPG,AFNE01.JPG,AFNE01.JPG,,,,,,,,,3,7,37,7,,,,,,,,,,,,,,,AFNE20.jpg,AFNE10.jpg,AFSA08.jpg,AFSA13.jpg,AFNE20.jpg,FN,3,num_8,32,num_4,0.583483519498,,,2017_Nov_08_1521,60.0013279464,FEMA4ImagesEEG,001,201659,
AFNE01.JPG,AFNE01.JPG,AFNE01.JPG,AFNE01.JPG,AFNE01.JPG,AFNE01.JPG,,,,,,,,,3,8,38,3,,,,,,,,,,,,,,,AFNE07.jpg,AFNE12.jpg,AFSA11.jpg,AFSA13.jpg,AFNE12.jpg,FN,3,num_6,16,num_6,1.16679865099,,,2017_Nov_08_1521,60.0013279464,FEMA4ImagesEEG,001,201659,
AFNE01.JPG,AFNE01.JPG,AFNE01.JPG,AFNE01.JPG,AFNE01.JPG,AFNE01.JPG,,,,,,,,,3,9,39,9,,,,,,,,,,,,,,,AFSA10.jpg,AFSA15.jpg,AFNE20.jpg,AFNE01.jpg,AFNE20.jpg,FN,3,num_2,32,num_4,0.866788226878,,,2017_Nov_08_1521,60.0013279464,FEMA4ImagesEEG,001,201659,
AFNE01.JPG,AFNE01.JPG,AFNE01.JPG,AFNE01.JPG,AFNE01.JPG,AFNE01.JPG,,,,,,,,,4,0,40,5,,,,,,,,,,,,,,,AFNE03.jpg,AFNE05.jpg,AFSA06.jpg,AFSA14.jpg,AFNE03.jpg,FN,3,num_8,32,num_2,1.01676505362,,,2017_Nov_08_1521,60.0013279464,FEMA4ImagesEEG,001,201659,
AFNE01.JPG,AFNE01.JPG,AFNE01.JPG,AFNE01.JPG,AFNE01.JPG,AFNE01.JPG,,,,,,,,,4,1,41,1,,,,,,,,,,,,,,,AFSA17.jpg,AFNE19.jpg,AFSA15.jpg,AFNE18.jpg,AFSA17.jpg,FS,4,num_8,16,num_8,0.650186109124,,,2017_Nov_08_1521,60.0013279464,FEMA4ImagesEEG,001,201659,
AFNE01.JPG,AFNE01.JPG,AFNE01.JPG,AFNE01.JPG,AFNE01.JPG,AFNE01.JPG,,,,,,,,,4,2,42,7,,,,,,,,,,,,,,,AFNE17.jpg,AFNE12.jpg,AFSA02.jpg,AFSA05.jpg,AFNE17.jpg,FN,3,num_8,32,num_4,0.949807476019,,,2017_Nov_08_1521,60.0013279464,FEMA4ImagesEEG,001,201659,
AFNE01.JPG,AFNE01.JPG,AFNE01.JPG,AFNE01.JPG,AFNE01.JPG,AFNE01.JPG,,,,,,,,,4,3,43,0,,,,,,,,,,,,,,,AFSA01.jpg,AFNE01.jpg,AFSA11.jpg,AFNE14.jpg,AFSA01.jpg,FS,4,num_8,16,num_8,0.433616706636,,,2017_Nov_08_1521,60.0013279464,FEMA4ImagesEEG,001,201659,
AFNE01.JPG,AFNE01.JPG,AFNE01.JPG,AFNE01.JPG,AFNE01.JPG,AFNE01.JPG,,,,,,,,,4,4,44,9,,,,,,,,,,,,,,,AFSA03.jpg,AFSA01.jpg,AFNE19.jpg,AFNE09.jpg,AFNE09.jpg,FN,3,num_4,16,num_4,0.51681524911,,,2017_Nov_08_1521,60.0013279464,FEMA4ImagesEEG,001,201659,
AFNE01.JPG,AFNE01.JPG,AFNE01.JPG,AFNE01.JPG,AFNE01.JPG,AFNE01.JPG,,,,,,,,,4,5,45,3,,,,,,,,,,,,,,,AFSA05.jpg,AFNE12.jpg,AFNE18.jpg,AFSA14.jpg,AFNE12.jpg,FN,3,num_6,16,num_6,0.416822145227,,,2017_Nov_08_1521,60.0013279464,FEMA4ImagesEEG,001,201659,
AFNE01.JPG,AFNE01.JPG,AFNE01.JPG,AFNE01.JPG,AFNE01.JPG,AFNE01.JPG,,,,,,,,,4,6,46,6,,,,,,,,,,,,,,,AFNE14.jpg,AFSA07.jpg,AFNE13.jpg,AFSA12.jpg,AFNE13.jpg,FN,3,num_2,32,num_8,0.700151549419,,,2017_Nov_08_1521,60.0013279464,FEMA4ImagesEEG,001,201659,
AFNE01.JPG,AFNE01.JPG,AFNE01.JPG,AFNE01.JPG,AFNE01.JPG,AFNE01.JPG,,,,,,,,,4,7,47,4,,,,,,,,,,,,,,,AFNE11.jpg,AFNE17.jpg,AFSA14.jpg,AFSA04.jpg,AFNE11.jpg,FN,3,num_8,32,num_2,1.00015523774,,,2017_Nov_08_1521,60.0013279464,FEMA4ImagesEEG,001,201659,
AFNE01.JPG,AFNE01.JPG,AFNE01.JPG,AFNE01.JPG,AFNE01.JPG,AFNE01.JPG,,,,,,,,,4,8,48,8,,,,,,,,,,,,,,,AFSA18.jpg,AFSA14.jpg,AFNE05.jpg,AFNE17.jpg,AFNE05.jpg,FN,3,num_2,16,num_2,0.416811239906,,,2017_Nov_08_1521,60.0013279464,FEMA4ImagesEEG,001,201659,
AFNE01.JPG,AFNE01.JPG,AFNE01.JPG,AFNE01.JPG,AFNE01.JPG,AFNE01.JPG,,,,,,,,,4,9,49,2,,,,,,,,,,,,,,,AFSA15.jpg,AFSA06.jpg,AFNE20.jpg,AFNE18.jpg,AFNE20.jpg,FN,3,num_2,32,num_8,0.633483599639,,,2017_Nov_08_1521,60.0013279464,FEMA4ImagesEEG,001,201659,
AFNE01.JPG,AFNE01.JPG,AFNE01.JPG,AFNE01.JPG,AFNE01.JPG,AFNE01.JPG,,,,,,,,,5,0,50,0,,,,,,,,,,,,,,,AFNE13.jpg,AFSA08.jpg,AFNE15.jpg,AFSA10.jpg,AFSA10.jpg,FS,4,num_4,16,num_4,0.66675326624,,,2017_Nov_08_1521,60.0013279464,FEMA4ImagesEEG,001,201659,
AFNE01.JPG,AFNE01.JPG,AFNE01.JPG,AFNE01.JPG,AFNE01.JPG,AFNE01.JPG,,,,,,,,,5,1,51,6,,,,,,,,,,,,,,,AFNE19.jpg,AFSA09.jpg,AFSA02.jpg,AFNE08.jpg,AFNE08.jpg,FN,3,num_4,32,num_8,0.83353491826,,,2017_Nov_08_1521,60.0013279464,FEMA4ImagesEEG,001,201659,
AFNE01.JPG,AFNE01.JPG,AFNE01.JPG,AFNE01.JPG,AFNE01.JPG,AFNE01.JPG,,,,,,,,,5,2,52,1,,,,,,,,,,,,,,,AFNE13.jpg,AFSA15.jpg,AFNE03.jpg,AFSA19.jpg,AFNE03.jpg,FN,3,num_2,32,num_8,0.766737069003,,,2017_Nov_08_1521,60.0013279464,FEMA4ImagesEEG,001,201659,
AFNE01.JPG,AFNE01.JPG,AFNE01.JPG,AFNE01.JPG,AFNE01.JPG,AFNE01.JPG,,,,,,,,,5,3,53,2,,,,,,,,,,,,,,,AFNE04.jpg,AFNE02.jpg,AFSA11.jpg,AFSA20.jpg,AFSA20.jpg,FS,4,num_4,32,num_2,0.683463152731,,,2017_Nov_08_1521,60.0013279464,FEMA4ImagesEEG,001,201659,
AFNE01.JPG,AFNE01.JPG,AFNE01.JPG,AFNE01.JPG,AFNE01.JPG,AFNE01.JPG,,,,,,,,,5,4,54,8,,,,,,,,,,,,,,,AFNE15.jpg,AFSA05.jpg,AFSA14.jpg,AFNE02.jpg,AFNE02.jpg,FN,3,num_4,16,num_4,0.766523135826,,,2017_Nov_08_1521,60.0013279464,FEMA4ImagesEEG,001,201659,
AFNE01.JPG,AFNE01.JPG,AFNE01.JPG,AFNE01.JPG,AFNE01.JPG,AFNE01.JPG,,,,,,,,,5,5,55,9,,,,,,,,,,,,,,,AFNE11.jpg,AFSA02.jpg,AFNE01.jpg,AFSA11.jpg,AFNE11.jpg,FN,3,num_8,32,num_4,0.633369416464,,,2017_Nov_08_1521,60.0013279464,FEMA4ImagesEEG,001,201659,
AFNE01.JPG,AFNE01.JPG,AFNE01.JPG,AFNE01.JPG,AFNE01.JPG,AFNE01.JPG,,,,,,,,,5,6,56,3,,,,,,,,,,,,,,,AFNE16.jpg,AFSA19.jpg,AFSA14.jpg,AFNE06.jpg,AFSA14.jpg,FS,4,num_2,32,num_8,0.73356009624,,,2017_Nov_08_1521,60.0013279464,FEMA4ImagesEEG,001,201659,
AFNE01.JPG,AFNE01.JPG,AFNE01.JPG,AFNE01.JPG,AFNE01.JPG,AFNE01.JPG,,,,,,,,,5,7,57,7,,,,,,,,,,,,,,,AFNE06.jpg,AFSA17.jpg,AFSA15.jpg,AFNE19.jpg,AFSA17.jpg,FS,4,num_6,16,num_6,0.550169911701,,,2017_Nov_08_1521,60.0013279464,FEMA4ImagesEEG,001,201659,
AFNE01.JPG,AFNE01.JPG,AFNE01.JPG,AFNE01.JPG,AFNE01.JPG,AFNE01.JPG,,,,,,,,,5,8,58,4,,,,,,,,,,,,,,,AFSA11.jpg,AFNE08.jpg,AFSA12.jpg,AFNE13.jpg,AFSA12.jpg,FS,4,num_2,32,num_4,0.766786783468,,,2017_Nov_08_1521,60.0013279464,FEMA4ImagesEEG,001,201659,
AFNE01.JPG,AFNE01.JPG,AFNE01.JPG,AFNE01.JPG,AFNE01.JPG,AFNE01.JPG,,,,,,,,,5,9,59,5,,,,,,,,,,,,,,,AFNE13.jpg,AFNE16.jpg,AFSA15.jpg,AFSA19.jpg,AFNE16.jpg,FN,3,num_6,32,num_8,2.03324176208,,,2017_Nov_08_1521,60.0013279464,FEMA4ImagesEEG,001,201659,
,,,,,,,,,,,,,,,,,,,,,,,,,,,,,,,,,,,,,,,,,,,space,4.59970748541,2017_Nov_08_1521,60.0013279464,FEMA4ImagesEEG,001,201659,
AFNE01.JPG,AFNE01.JPG,AFNE01.JPG,AFNE01.JPG,AFNE01.JPG,AFNE01.JPG,,,,,,,,,,,,,0,0,0,7,,,,,,,,,,,AMNE05.jpg,AMSA20.jpg,AMSA03.jpg,AMNE06.jpg,AMSA20.jpg,MS,2,num_6,32,num_2,0.716766176047,,,2017_Nov_08_1521,60.0013279464,FEMA4ImagesEEG,001,201659,
AFNE01.JPG,AFNE01.JPG,AFNE01.JPG,AFNE01.JPG,AFNE01.JPG,AFNE01.JPG,,,,,,,,,,,,,0,1,1,2,,,,,,,,,,,AMSA11.jpg,AMSA05.jpg,AMNE13.jpg,AMNE19.jpg,AMNE13.jpg,MN,1,num_2,32,num_8,0.566814046353,,,2017_Nov_08_1521,60.0013279464,FEMA4ImagesEEG,001,201659,
AFNE01.JPG,AFNE01.JPG,AFNE01.JPG,AFNE01.JPG,AFNE01.JPG,AFNE01.JPG,,,,,,,,,,,,,0,2,2,0,,,,,,,,,,,AMNE05.jpg,AMSA05.jpg,AMSA18.jpg,AMNE19.jpg,AMNE19.jpg,MN,1,num_4,32,num_8,0.66678020847,,,2017_Nov_08_1521,60.0013279464,FEMA4ImagesEEG,001,201659,
AFNE01.JPG,AFNE01.JPG,AFNE01.JPG,AFNE01.JPG,AFNE01.JPG,AFNE01.JPG,,,,,,,,,,,,,0,3,3,9,,,,,,,,,,,AMSA07.jpg,AMSA18.jpg,AMNE13.jpg,AMNE02.jpg,AMNE13.jpg,MN,1,num_2,32,num_4,0.583490575897,,,2017_Nov_08_1521,60.0013279464,FEMA4ImagesEEG,001,201659,
AFNE01.JPG,AFNE01.JPG,AFNE01.JPG,AFNE01.JPG,AFNE01.JPG,AFNE01.JPG,,,,,,,,,,,,,0,4,4,5,,,,,,,,,,,AMNE14.jpg,AMSA15.jpg,AMSA04.jpg,AMNE07.jpg,AMSA04.jpg,MS,2,num_2,16,num_2,1.13343949802,,,2017_Nov_08_1521,60.0013279464,FEMA4ImagesEEG,001,201659,
AFNE01.JPG,AFNE01.JPG,AFNE01.JPG,AFNE01.JPG,AFNE01.JPG,AFNE01.JPG,,,,,,,,,,,,,0,5,5,4,,,,,,,,,,,AMSA05.jpg,AMNE18.jpg,AMNE07.jpg,AMSA02.jpg,AMSA05.jpg,MS,2,num_8,16,num_8,0.766746691195,,,2017_Nov_08_1521,60.0013279464,FEMA4ImagesEEG,001,201659,
AFNE01.JPG,AFNE01.JPG,AFNE01.JPG,AFNE01.JPG,AFNE01.JPG,AFNE01.JPG,,,,,,,,,,,,,0,6,6,1,,,,,,,,,,,AMSA15.jpg,AMNE03.jpg,AMSA01.jpg,AMNE12.jpg,AMNE12.jpg,MN,1,num_4,16,num_4,1.18342001317,,,2017_Nov_08_1521,60.0013279464,FEMA4ImagesEEG,001,201659,
AFNE01.JPG,AFNE01.JPG,AFNE01.JPG,AFNE01.JPG,AFNE01.JPG,AFNE01.JPG,,,,,,,,,,,,,0,7,7,8,,,,,,,,,,,AMNE19.jpg,AMSA17.jpg,AMSA19.jpg,AMNE18.jpg,AMNE18.jpg,MN,1,num_4,32,num_2,1.85010175477,,,2017_Nov_08_1521,60.0013279464,FEMA4ImagesEEG,001,201659,
AFNE01.JPG,AFNE01.JPG,AFNE01.JPG,AFNE01.JPG,AFNE01.JPG,AFNE01.JPG,,,,,,,,,,,,,0,8,8,6,,,,,,,,,,,AMNE19.jpg,AMSA08.jpg,AMSA15.jpg,AMNE11.jpg,AMNE11.jpg,MN,1,num_4,32,num_8,1.183439899,,,2017_Nov_08_1521,60.0013279464,FEMA4ImagesEEG,001,201659,
AFNE01.JPG,AFNE01.JPG,AFNE01.JPG,AFNE01.JPG,AFNE01.JPG,AFNE01.JPG,,,,,,,,,,,,,0,9,9,3,,,,,,,,,,,AMNE01.jpg,AMSA02.jpg,AMNE11.jpg,AMSA13.jpg,AMSA13.jpg,MS,2,num_4,32,num_2,0.983479029266,,,2017_Nov_08_1521,60.0013279464,FEMA4ImagesEEG,001,201659,
AFNE01.JPG,AFNE01.JPG,AFNE01.JPG,AFNE01.JPG,AFNE01.JPG,AFNE01.JPG,,,,,,,,,,,,,1,0,10,2,,,,,,,,,,,AMNE11.jpg,AMNE03.jpg,AMSA04.jpg,AMSA05.jpg,AMNE03.jpg,MN,1,num_6,32,num_4,0.733480232069,,,2017_Nov_08_1521,60.0013279464,FEMA4ImagesEEG,001,201659,
AFNE01.JPG,AFNE01.JPG,AFNE01.JPG,AFNE01.JPG,AFNE01.JPG,AFNE01.JPG,,,,,,,,,,,,,1,1,11,6,,,,,,,,,,,AMNE18.jpg,AMNE12.jpg,AMSA09.jpg,AMSA11.jpg,AMSA11.jpg,MS,2,num_4,32,num_6,0.966776520014,,,2017_Nov_08_1521,60.0013279464,FEMA4ImagesEEG,001,201659,
AFNE01.JPG,AFNE01.JPG,AFNE01.JPG,AFNE01.JPG,AFNE01.JPG,AFNE01.JPG,,,,,,,,,,,,,1,2,12,9,,,,,,,,,,,AMSA05.jpg,AMSA18.jpg,AMNE09.jpg,AMNE11.jpg,AMNE09.jpg,MN,1,num_2,32,num_4,0.733437894378,,,2017_Nov_08_1521,60.0013279464,FEMA4ImagesEEG,001,201659,
AFNE01.JPG,AFNE01.JPG,AFNE01.JPG,AFNE01.JPG,AFNE01.JPG,AFNE01.JPG,,,,,,,,,,,,,1,3,13,0,,,,,,,,,,,AMSA15.jpg,AMNE18.jpg,AMSA06.jpg,AMNE05.jpg,AMNE05.jpg,MN,1,num_4,32,num_8,1.05012452696,,,2017_Nov_08_1521,60.0013279464,FEMA4ImagesEEG,001,201659,
AFNE01.JPG,AFNE01.JPG,AFNE01.JPG,AFNE01.JPG,AFNE01.JPG,AFNE01.JPG,,,,,,,,,,,,,1,4,14,3,,,,,,,,,,,AMSA10.jpg,AMNE03.jpg,AMSA18.jpg,AMNE13.jpg,AMNE03.jpg,MN,1,num_6,16,num_6,0.983436370967,,,2017_Nov_08_1521,60.0013279464,FEMA4ImagesEEG,001,201659,
AFNE01.JPG,AFNE01.JPG,AFNE01.JPG,AFNE01.JPG,AFNE01.JPG,AFNE01.JPG,,,,,,,,,,,,,1,5,15,7,,,,,,,,,,,AMSA05.jpg,AMNE03.jpg,AMNE18.jpg,AMSA16.jpg,AMSA16.jpg,MS,2,num_4,32,num_2,0.300172397401,,,2017_Nov_08_1521,60.0013279464,FEMA4ImagesEEG,001,201659,
AFNE01.JPG,AFNE01.JPG,AFNE01.JPG,AFNE01.JPG,AFNE01.JPG,AFNE01.JPG,,,,,,,,,,,,,1,6,16,8,,,,,,,,,,,AMNE10.jpg,AMSA13.jpg,AMNE11.jpg,AMSA18.jpg,AMNE10.jpg,MN,1,num_8,16,num_8,0.883476302959,,,2017_Nov_08_1521,60.0013279464,FEMA4ImagesEEG,001,201659,
AFNE01.JPG,AFNE01.JPG,AFNE01.JPG,AFNE01.JPG,AFNE01.JPG,AFNE01.JPG,,,,,,,,,,,,,1,7,17,1,,,,,,,,,,,AMNE15.jpg,AMSA10.jpg,AMNE19.jpg,AMSA12.jpg,AMNE15.jpg,MN,1,num_8,32,num_4,0.600193726597,,,2017_Nov_08_1521,60.0013279464,FEMA4ImagesEEG,001,201659,
AFNE01.JPG,AFNE01.JPG,AFNE01.JPG,AFNE01.JPG,AFNE01.JPG,AFNE01.JPG,,,,,,,,,,,,,1,8,18,5,,,,,,,,,,,AMSA11.jpg,AMNE05.jpg,AMSA10.jpg,AMNE15.jpg,AMSA10.jpg,MS,2,num_2,16,num_2,1.01709092478,,,2017_Nov_08_1521,60.0013279464,FEMA4ImagesEEG,001,201659,
AFNE01.JPG,AFNE01.JPG,AFNE01.JPG,AFNE01.JPG,AFNE01.JPG,AFNE01.JPG,,,,,,,,,,,,,1,9,19,4,,,,,,,,,,,AMNE16.jpg,AMSA04.jpg,AMSA01.jpg,AMNE05.jpg,AMSA04.jpg,MS,2,num_6,16,num_6,0.600193405757,,,2017_Nov_08_1521,60.0013279464,FEMA4ImagesEEG,001,201659,
AFNE01.JPG,AFNE01.JPG,AFNE01.JPG,AFNE01.JPG,AFNE01.JPG,AFNE01.JPG,,,,,,,,,,,,,2,0,20,5,,,,,,,,,,,AMSA15.jpg,AMNE13.jpg,AMSA01.jpg,AMNE09.jpg,AMSA15.jpg,MS,2,num_8,32,num_4,1.06662529148,,,2017_Nov_08_1521,60.0013279464,FEMA4ImagesEEG,001,201659,
AFNE01.JPG,AFNE01.JPG,AFNE01.JPG,AFNE01.JPG,AFNE01.JPG,AFNE01.JPG,,,,,,,,,,,,,2,1,21,4,,,,,,,,,,,AMNE17.jpg,AMSA10.jpg,AMSA07.jpg,AMNE19.jpg,AMSA07.jpg,MS,2,num_2,16,num_2,1.13342025364,,,2017_Nov_08_1521,60.0013279464,FEMA4ImagesEEG,001,201659,
AFNE01.JPG,AFNE01.JPG,AFNE01.JPG,AFNE01.JPG,AFNE01.JPG,AFNE01.JPG,,,,,,,,,,,,,2,2,22,6,,,,,,,,,,,AMNE07.jpg,AMNE10.jpg,AMSA08.jpg,AMSA05.jpg,AMNE07.jpg,MN,1,num_8,16,num_8,0.98347036913,,,2017_Nov_08_1521,60.0013279464,FEMA4ImagesEEG,001,201659,
AFNE01.JPG,AFNE01.JPG,AFNE01.JPG,AFNE01.JPG,AFNE01.JPG,AFNE01.JPG,,,,,,,,,,,,,2,3,23,0,,,,,,,,,,,AMNE07.jpg,AMSA02.jpg,AMNE14.jpg,AMSA19.jpg,AMNE14.jpg,MN,1,num_2,16,num_2,0.683523772517,,,2017_Nov_08_1521,60.0013279464,FEMA4ImagesEEG,001,201659,
AFNE01.JPG,AFNE01.JPG,AFNE01.JPG,AFNE01.JPG,AFNE01.JPG,AFNE01.JPG,,,,,,,,,,,,,2,4,24,2,,,,,,,,,,,AMNE03.jpg,AMSA02.jpg,AMNE12.jpg,AMSA14.jpg,AMSA02.jpg,MS,2,num_6,16,num_6,0.766853176523,,,2017_Nov_08_1521,60.0013279464,FEMA4ImagesEEG,001,201659,
AFNE01.JPG,AFNE01.JPG,AFNE01.JPG,AFNE01.JPG,AFNE01.JPG,AFNE01.JPG,,,,,,,,,,,,,2,5,25,9,,,,,,,,,,,AMSA14.jpg,AMNE18.jpg,AMNE20.jpg,AMSA01.jpg,AMSA01.jpg,MS,2,num_4,32,num_8,0.817020682851,,,2017_Nov_08_1521,60.0013279464,FEMA4ImagesEEG,001,201659,
AFNE01.JPG,AFNE01.JPG,AFNE01.JPG,AFNE01.JPG,AFNE01.JPG,AFNE01.JPG,,,,,,,,,,,,,2,6,26,8,,,,,,,,,,,AMSA15.jpg,AMSA13.jpg,AMNE08.jpg,AMNE02.jpg,AMNE02.jpg,MN,1,num_4,32,num_2,0.483506773133,,,2017_Nov_08_1521,60.0013279464,FEMA4ImagesEEG,001,201659,
AFNE01.JPG,AFNE01.JPG,AFNE01.JPG,AFNE01.JPG,AFNE01.JPG,AFNE01.JPG,,,,,,,,,,,,,2,7,27,3,,,,,,,,,,,AMSA06.jpg,AMNE14.jpg,AMNE09.jpg,AMSA07.jpg,AMSA06.jpg,MS,2,num_8,16,num_8,0.499836583156,,,2017_Nov_08_1521,60.0013279464,FEMA4ImagesEEG,001,201659,
AFNE01.JPG,AFNE01.JPG,AFNE01.JPG,AFNE01.JPG,AFNE01.JPG,AFNE01.JPG,,,,,,,,,,,,,2,8,28,7,,,,,,,,,,,AMSA07.jpg,AMNE01.jpg,AMNE16.jpg,AMSA20.jpg,AMSA07.jpg,MS,2,num_8,32,num_4,0.850225880742,,,2017_Nov_08_1521,60.0013279464,FEMA4ImagesEEG,001,201659,
AFNE01.JPG,AFNE01.JPG,AFNE01.JPG,AFNE01.JPG,AFNE01.JPG,AFNE01.JPG,,,,,,,,,,,,,2,9,29,1,,,,,,,,,,,AMNE14.jpg,AMNE07.jpg,AMSA10.jpg,AMSA03.jpg,AMNE14.jpg,MN,1,num_8,16,num_8,0.716813324718,,,2017_Nov_08_1521,60.0013279464,FEMA4ImagesEEG,001,201659,
AFNE01.JPG,AFNE01.JPG,AFNE01.JPG,AFNE01.JPG,AFNE01.JPG,AFNE01.JPG,,,,,,,,,,,,,3,0,30,1,,,,,,,,,,,AMNE15.jpg,AMSA15.jpg,AMSA19.jpg,AMNE18.jpg,AMSA15.jpg,MS,2,num_6,32,num_4,0.900209282525,,,2017_Nov_08_1521,60.0013279464,FEMA4ImagesEEG,001,201659,
AFNE01.JPG,AFNE01.JPG,AFNE01.JPG,AFNE01.JPG,AFNE01.JPG,AFNE01.JPG,,,,,,,,,,,,,3,1,31,6,,,,,,,,,,,AMSA04.jpg,AMNE18.jpg,AMSA14.jpg,AMNE11.jpg,AMNE11.jpg,MN,1,num_4,32,num_8,0.683509659953,,,2017_Nov_08_1521,60.0013279464,FEMA4ImagesEEG,001,201659,
AFNE01.JPG,AFNE01.JPG,AFNE01.JPG,AFNE01.JPG,AFNE01.JPG,AFNE01.JPG,,,,,,,,,,,,,3,2,32,7,,,,,,,,,,,AMSA15.jpg,AMSA05.jpg,AMNE14.jpg,AMNE19.jpg,AMNE19.jpg,MN,1,num_4,32,num_6,1.10017239745,,,2017_Nov_08_1521,60.0013279464,FEMA4ImagesEEG,001,201659,
AFNE01.JPG,AFNE01.JPG,AFNE01.JPG,AFNE01.JPG,AFNE01.JPG,AFNE01.JPG,,,,,,,,,,,,,3,3,33,2,,,,,,,,,,,AMSA07.jpg,AMSA20.jpg,AMNE16.jpg,AMNE04.jpg,AMSA20.jpg,MS,2,num_6,16,num_6,2.6000230934,,,2017_Nov_08_1521,60.0013279464,FEMA4ImagesEEG,001,201659,
AFNE01.JPG,AFNE01.JPG,AFNE01.JPG,AFNE01.JPG,AFNE01.JPG,AFNE01.JPG,,,,,,,,,,,,,3,4,34,9,,,,,,,,,,,AMNE08.jpg,AMNE05.jpg,AMSA15.jpg,AMSA03.jpg,AMNE05.jpg,MN,1,num_6,32,num_2,1.38343605027,,,2017_Nov_08_1521,60.0013279464,FEMA4ImagesEEG,001,201659,
AFNE01.JPG,AFNE01.JPG,AFNE01.JPG,AFNE01.JPG,AFNE01.JPG,AFNE01.JPG,,,,,,,,,,,,,3,5,35,8,,,,,,,,,,,AMSA12.jpg,AMSA16.jpg,AMNE01.jpg,AMNE13.jpg,AMSA12.jpg,MS,2,num_8,16,num_8,0.766808273271,,,2017_Nov_08_1521,60.0013279464,FEMA4ImagesEEG,001,201659,
AFNE01.JPG,AFNE01.JPG,AFNE01.JPG,AFNE01.JPG,AFNE01.JPG,AFNE01.JPG,,,,,,,,,,,,,3,6,36,5,,,,,,,,,,,AMSA01.jpg,AMNE02.jpg,AMSA15.jpg,AMNE16.jpg,AMSA01.jpg,MS,2,num_8,32,num_2,2.74998356192,,,2017_Nov_08_1521,60.0013279464,FEMA4ImagesEEG,001,201659,
AFNE01.JPG,AFNE01.JPG,AFNE01.JPG,AFNE01.JPG,AFNE01.JPG,AFNE01.JPG,,,,,,,,,,,,,3,7,37,0,,,,,,,,,,,AMNE11.jpg,AMNE12.jpg,AMSA08.jpg,AMSA15.jpg,AMNE12.jpg,MN,1,num_6,32,num_8,1.88337815646,,,2017_Nov_08_1521,60.0013279464,FEMA4ImagesEEG,001,201659,
AFNE01.JPG,AFNE01.JPG,AFNE01.JPG,AFNE01.JPG,AFNE01.JPG,AFNE01.JPG,,,,,,,,,,,,,3,8,38,4,,,,,,,,,,,AMNE19.jpg,AMNE11.jpg,AMSA06.jpg,AMSA19.jpg,AMSA19.jpg,MS,2,num_4,32,num_6,0.916806589114,,,2017_Nov_08_1521,60.0013279464,FEMA4ImagesEEG,001,201659,
AFNE01.JPG,AFNE01.JPG,AFNE01.JPG,AFNE01.JPG,AFNE01.JPG,AFNE01.JPG,,,,,,,,,,,,,3,9,39,3,,,,,,,,,,,AMSA18.jpg,AMNE16.jpg,AMNE19.jpg,AMSA17.jpg,AMSA17.jpg,MS,2,num_4,16,num_4,1.31674885633,,,2017_Nov_08_1521,60.0013279464,FEMA4ImagesEEG,001,201659,
AFNE01.JPG,AFNE01.JPG,AFNE01.JPG,AFNE01.JPG,AFNE01.JPG,AFNE01.JPG,,,,,,,,,,,,,4,0,40,0,,,,,,,,,,,AMSA13.jpg,AMSA12.jpg,AMNE11.jpg,AMNE13.jpg,AMNE11.jpg,MN,1,num_2,32,num_8,0.98344021989,,,2017_Nov_08_1521,60.0013279464,FEMA4ImagesEEG,001,201659,
AFNE01.JPG,AFNE01.JPG,AFNE01.JPG,AFNE01.JPG,AFNE01.JPG,AFNE01.JPG,,,,,,,,,,,,,4,1,41,1,,,,,,,,,,,AMSA07.jpg,AMNE11.jpg,AMSA16.jpg,AMNE02.jpg,AMNE02.jpg,MN,1,num_4,32,num_6,0.683467322262,,,2017_Nov_08_1521,60.0013279464,FEMA4ImagesEEG,001,201659,
AFNE01.JPG,AFNE01.JPG,AFNE01.JPG,AFNE01.JPG,AFNE01.JPG,AFNE01.JPG,,,,,,,,,,,,,4,2,42,3,,,,,,,,,,,AMNE05.jpg,AMNE01.jpg,AMSA12.jpg,AMSA03.jpg,AMSA03.jpg,MS,2,num_4,32,num_6,1.30011819233,,,2017_Nov_08_1521,60.0013279464,FEMA4ImagesEEG,001,201659,
AFNE01.JPG,AFNE01.JPG,AFNE01.JPG,AFNE01.JPG,AFNE01.JPG,AFNE01.JPG,,,,,,,,,,,,,4,3,43,4,,,,,,,,,,,AMNE10.jpg,AMNE15.jpg,AMSA16.jpg,AMSA08.jpg,AMSA16.jpg,MS,2,num_2,32,num_4,0.516767779598,,,2017_Nov_08_1521,60.0013279464,FEMA4ImagesEEG,001,201659,
AFNE01.JPG,AFNE01.JPG,AFNE01.JPG,AFNE01.JPG,AFNE01.JPG,AFNE01.JPG,,,,,,,,,,,,,4,4,44,6,,,,,,,,,,,AMNE08.jpg,AMSA18.jpg,AMSA20.jpg,AMNE16.jpg,AMSA18.jpg,MS,2,num_6,32,num_8,0.800212650327,,,2017_Nov_08_1521,60.0013279464,FEMA4ImagesEEG,001,201659,
AFNE01.JPG,AFNE01.JPG,AFNE01.JPG,AFNE01.JPG,AFNE01.JPG,AFNE01.JPG,,,,,,,,,,,,,4,5,45,8,,,,,,,,,,,AMSA18.jpg,AMSA02.jpg,AMNE04.jpg,AMNE06.jpg,AMNE06.jpg,MN,1,num_4,32,num_8,1.4667096457,,,2017_Nov_08_1521,60.0013279464,FEMA4ImagesEEG,001,201659,
AFNE01.JPG,AFNE01.JPG,AFNE01.JPG,AFNE01.JPG,AFNE01.JPG,AFNE01.JPG,,,,,,,,,,,,,4,6,46,2,,,,,,,,,,,AMSA10.jpg,AMNE17.jpg,AMNE05.jpg,AMSA03.jpg,AMNE17.jpg,MN,1,num_6,16,num_6,0.616699943319,,,2017_Nov_08_1521,60.0013279464,FEMA4ImagesEEG,001,201659,
AFNE01.JPG,AFNE01.JPG,AFNE01.JPG,AFNE01.JPG,AFNE01.JPG,AFNE01.JPG,,,,,,,,,,,,,4,7,47,5,,,,,,,,,,,AMNE13.jpg,AMSA16.jpg,AMNE11.jpg,AMSA12.jpg,AMSA16.jpg,MS,2,num_6,32,num_4,0.266812282382,,,2017_Nov_08_1521,60.0013279464,FEMA4ImagesEEG,001,201659,
AFNE01.JPG,AFNE01.JPG,AFNE01.JPG,AFNE01.JPG,AFNE01.JPG,AFNE01.JPG,,,,,,,,,,,,,4,8,48,7,,,,,,,,,,,AMSA10.jpg,AMSA15.jpg,AMNE16.jpg,AMNE04.jpg,AMNE16.jpg,MN,1,num_2,16,num_2,1.06675422867,,,2017_Nov_08_1521,60.0013279464,FEMA4ImagesEEG,001,201659,
AFNE01.JPG,AFNE01.JPG,AFNE01.JPG,AFNE01.JPG,AFNE01.JPG,AFNE01.JPG,,,,,,,,,,,,,4,9,49,9,,,,,,,,,,,AMNE16.jpg,AMSA17.jpg,AMNE10.jpg,AMSA19.jpg,AMSA17.jpg,MS,2,num_6,16,num_6,0.666670194827,,,2017_Nov_08_1521,60.0013279464,FEMA4ImagesEEG,001,201659,
AFNE01.JPG,AFNE01.JPG,AFNE01.JPG,AFNE01.JPG,AFNE01.JPG,AFNE01.JPG,,,,,,,,,,,,,5,0,50,3,,,,,,,,,,,AMNE12.jpg,AMSA11.jpg,AMNE14.jpg,AMSA06.jpg,AMNE14.jpg,MN,1,num_2,16,num_2,1.56685895007,,,2017_Nov_08_1521,60.0013279464,FEMA4ImagesEEG,001,201659,
AFNE01.JPG,AFNE01.JPG,AFNE01.JPG,AFNE01.JPG,AFNE01.JPG,AFNE01.JPG,,,,,,,,,,,,,5,1,51,5,,,,,,,,,,,AMNE10.jpg,AMNE05.jpg,AMSA02.jpg,AMSA20.jpg,AMSA20.jpg,MS,2,num_4,16,num_4,0.616827918449,,,2017_Nov_08_1521,60.0013279464,FEMA4ImagesEEG,001,201659,
AFNE01.JPG,AFNE01.JPG,AFNE01.JPG,AFNE01.JPG,AFNE01.JPG,AFNE01.JPG,,,,,,,,,,,,,5,2,52,7,,,,,,,,,,,AMSA01.jpg,AMNE06.jpg,AMSA18.jpg,AMNE09.jpg,AMSA18.jpg,MS,2,num_2,32,num_8,0.816743884701,,,2017_Nov_08_1521,60.0013279464,FEMA4ImagesEEG,001,201659,
AFNE01.JPG,AFNE01.JPG,AFNE01.JPG,AFNE01.JPG,AFNE01.JPG,AFNE01.JPG,,,,,,,,,,,,,5,3,53,9,,,,,,,,,,,AMNE16.jpg,AMSA03.jpg,AMNE10.jpg,AMSA01.jpg,AMSA01.jpg,MS,2,num_4,16,num_4,0.41679424094,,,2017_Nov_08_1521,60.0013279464,FEMA4ImagesEEG,001,201659,
AFNE01.JPG,AFNE01.JPG,AFNE01.JPG,AFNE01.JPG,AFNE01.JPG,AFNE01.JPG,,,,,,,,,,,,,5,4,54,4,,,,,,,,,,,AMSA09.jpg,AMNE10.jpg,AMSA07.jpg,AMNE04.jpg,AMNE04.jpg,MN,1,num_4,32,num_8,1.53348472249,,,2017_Nov_08_1521,60.0013279464,FEMA4ImagesEEG,001,201659,
AFNE01.JPG,AFNE01.JPG,AFNE01.JPG,AFNE01.JPG,AFNE01.JPG,AFNE01.JPG,,,,,,,,,,,,,5,5,55,6,,,,,,,,,,,AMSA13.jpg,AMNE01.jpg,AMSA09.jpg,AMNE04.jpg,AMSA13.jpg,MS,2,num_8,32,num_6,0.900223074248,,,2017_Nov_08_1521,60.0013279464,FEMA4ImagesEEG,001,201659,
AFNE01.JPG,AFNE01.JPG,AFNE01.JPG,AFNE01.JPG,AFNE01.JPG,AFNE01.JPG,,,,,,,,,,,,,5,6,56,2,,,,,,,,,,,AMSA13.jpg,AMNE20.jpg,AMSA20.jpg,AMNE02.jpg,AMNE20.jpg,MN,1,num_6,32,num_2,2.45012645144,,,2017_Nov_08_1521,60.0013279464,FEMA4ImagesEEG,001,201659,
AFNE01.JPG,AFNE01.JPG,AFNE01.JPG,AFNE01.JPG,AFNE01.JPG,AFNE01.JPG,,,,,,,,,,,,,5,7,57,0,,,,,,,,,,,AMSA12.jpg,AMSA07.jpg,AMNE16.jpg,AMNE14.jpg,AMSA12.jpg,MS,2,num_8,32,num_2,2.15002846555,,,2017_Nov_08_1521,60.0013279464,FEMA4ImagesEEG,001,201659,
AFNE01.JPG,AFNE01.JPG,AFNE01.JPG,AFNE01.JPG,AFNE01.JPG,AFNE01.JPG,,,,,,,,,,,,,5,8,58,1,,,,,,,,,,,AMNE07.jpg,AMSA07.jpg,AMNE10.jpg,AMSA11.jpg,AMNE07.jpg,MN,1,num_8,16,num_8,2.5166382012,,,2017_Nov_08_1521,60.0013279464,FEMA4ImagesEEG,001,201659,
AFNE01.JPG,AFNE01.JPG,AFNE01.JPG,AFNE01.JPG,AFNE01.JPG,AFNE01.JPG,,,,,,,,,,,,,5,9,59,8,,,,,,,,,,,AMSA04.jpg,AMNE03.jpg,AMNE06.jpg,AMSA07.jpg,AMSA07.jpg,MS,2,num_4,32,num_6,0.733529625926,,,2017_Nov_08_1521,60.0013279464,FEMA4ImagesEEG,001,201659,
,,,,,,,,,,,,,,,,,,,,,,,,,,,,,,,,,,,,,,,,,,,space,1.98333886592,2017_Nov_08_1521,60.0013279464,FEMA4ImagesEEG,001,201659,
AFNE01.JPG,AFNE01.JPG,AFNE01.JPG,AFNE01.JPG,AFNE01.JPG,AFNE01.JPG,,,,,,,,,,,,,,,,,0,0,0,4,,,,,,,AFNE07.jpg,AFNE05.jpg,AFSA01.jpg,AFSA15.jpg,AFSA01.jpg,FS,4,num_2,16,num_2,0.566806027899,,,2017_Nov_08_1521,60.0013279464,FEMA4ImagesEEG,001,201659,
AFNE01.JPG,AFNE01.JPG,AFNE01.JPG,AFNE01.JPG,AFNE01.JPG,AFNE01.JPG,,,,,,,,,,,,,,,,,0,1,1,7,,,,,,,AFSA07.jpg,AFNE15.jpg,AFNE14.jpg,AFSA02.jpg,AFNE14.jpg,FN,3,num_2,32,num_8,0.667102872394,,,2017_Nov_08_1521,60.0013279464,FEMA4ImagesEEG,001,201659,
AFNE01.JPG,AFNE01.JPG,AFNE01.JPG,AFNE01.JPG,AFNE01.JPG,AFNE01.JPG,,,,,,,,,,,,,,,,,0,2,2,0,,,,,,,AFSA07.jpg,AFNE17.jpg,AFSA17.jpg,AFNE13.jpg,AFNE17.jpg,FN,3,num_6,16,num_6,0.416786222253,,,2017_Nov_08_1521,60.0013279464,FEMA4ImagesEEG,001,201659,
AFNE01.JPG,AFNE01.JPG,AFNE01.JPG,AFNE01.JPG,AFNE01.JPG,AFNE01.JPG,,,,,,,,,,,,,,,,,0,3,3,2,,,,,,,AFNE11.jpg,AFNE20.jpg,AFSA09.jpg,AFSA10.jpg,AFSA09.jpg,FS,4,num_2,16,num_2,1.13344430923,,,2017_Nov_08_1521,60.0013279464,FEMA4ImagesEEG,001,201659,
AFNE01.JPG,AFNE01.JPG,AFNE01.JPG,AFNE01.JPG,AFNE01.JPG,AFNE01.JPG,,,,,,,,,,,,,,,,,0,4,4,5,,,,,,,AFSA06.jpg,AFNE01.jpg,AFSA04.jpg,AFNE08.jpg,AFNE08.jpg,FN,3,num_4,32,num_6,0.750170873944,,,2017_Nov_08_1521,60.0013279464,FEMA4ImagesEEG,001,201659,
AFNE01.JPG,AFNE01.JPG,AFNE01.JPG,AFNE01.JPG,AFNE01.JPG,AFNE01.JPG,,,,,,,,,,,,,,,,,0,5,5,9,,,,,,,AFNE01.jpg,AFSA15.jpg,AFNE12.jpg,AFSA17.jpg,AFSA15.jpg,FS,4,num_6,32,num_2,1.61670699972,,,2017_Nov_08_1521,60.0013279464,FEMA4ImagesEEG,001,201659,
AFNE01.JPG,AFNE01.JPG,AFNE01.JPG,AFNE01.JPG,AFNE01.JPG,AFNE01.JPG,,,,,,,,,,,,,,,,,0,6,6,1,,,,,,,AFSA16.jpg,AFNE13.jpg,AFNE02.jpg,AFSA02.jpg,AFNE13.jpg,FN,3,num_6,32,num_8,1.08346058684,,,2017_Nov_08_1521,60.0013279464,FEMA4ImagesEEG,001,201659,
AFNE01.JPG,AFNE01.JPG,AFNE01.JPG,AFNE01.JPG,AFNE01.JPG,AFNE01.JPG,,,,,,,,,,,,,,,,,0,7,7,3,,,,,,,AFSA15.jpg,AFNE05.jpg,AFNE07.jpg,AFSA06.jpg,AFNE05.jpg,FN,3,num_6,16,num_6,1.63346627983,,,2017_Nov_08_1521,60.0013279464,FEMA4ImagesEEG,001,201659,
AFNE01.JPG,AFNE01.JPG,AFNE01.JPG,AFNE01.JPG,AFNE01.JPG,AFNE01.JPG,,,,,,,,,,,,,,,,,0,8,8,8,,,,,,,AFNE11.jpg,AFNE13.jpg,AFSA17.jpg,AFSA08.jpg,AFSA08.jpg,FS,4,num_4,16,num_4,0.983472293708,,,2017_Nov_08_1521,60.0013279464,FEMA4ImagesEEG,001,201659,
AFNE01.JPG,AFNE01.JPG,AFNE01.JPG,AFNE01.JPG,AFNE01.JPG,AFNE01.JPG,,,,,,,,,,,,,,,,,0,9,9,6,,,,,,,AFNE01.jpg,AFSA09.jpg,AFSA14.jpg,AFNE12.jpg,AFNE01.jpg,FN,3,num_8,16,num_8,0.816792316269,,,2017_Nov_08_1521,60.0013279464,FEMA4ImagesEEG,001,201659,
AFNE01.JPG,AFNE01.JPG,AFNE01.JPG,AFNE01.JPG,AFNE01.JPG,AFNE01.JPG,,,,,,,,,,,,,,,,,1,0,10,7,,,,,,,AFNE11.jpg,AFNE04.jpg,AFSA15.jpg,AFSA11.jpg,AFSA11.jpg,FS,4,num_4,32,num_8,0.800155879464,,,2017_Nov_08_1521,60.0013279464,FEMA4ImagesEEG,001,201659,
AFNE01.JPG,AFNE01.JPG,AFNE01.JPG,AFNE01.JPG,AFNE01.JPG,AFNE01.JPG,,,,,,,,,,,,,,,,,1,1,11,3,,,,,,,AFSA03.jpg,AFNE04.jpg,AFNE12.jpg,AFSA07.jpg,AFNE04.jpg,FN,3,num_6,16,num_6,2.83324368647,,,2017_Nov_08_1521,60.0013279464,FEMA4ImagesEEG,001,201659,
AFNE01.JPG,AFNE01.JPG,AFNE01.JPG,AFNE01.JPG,AFNE01.JPG,AFNE01.JPG,,,,,,,,,,,,,,,,,1,2,12,8,,,,,,,AFSA11.jpg,AFNE11.jpg,AFNE16.jpg,AFSA13.jpg,AFNE11.jpg,FN,3,num_6,16,num_6,0.916789910756,,,2017_Nov_08_1521,60.0013279464,FEMA4ImagesEEG,001,201659,
AFNE01.JPG,AFNE01.JPG,AFNE01.JPG,AFNE01.JPG,AFNE01.JPG,AFNE01.JPG,,,,,,,,,,,,,,,,,1,3,13,4,,,,,,,AFNE02.jpg,AFSA09.jpg,AFNE15.jpg,AFSA12.jpg,AFNE02.jpg,FN,3,num_8,16,num_8,1.66672119242,,,2017_Nov_08_1521,60.0013279464,FEMA4ImagesEEG,001,201659,
AFNE01.JPG,AFNE01.JPG,AFNE01.JPG,AFNE01.JPG,AFNE01.JPG,AFNE01.JPG,,,,,,,,,,,,,,,,,1,4,14,2,,,,,,,AFNE14.jpg,AFSA20.jpg,AFSA05.jpg,AFNE05.jpg,AFNE05.jpg,FN,3,num_4,32,num_8,1.60007056268,,,2017_Nov_08_1521,60.0013279464,FEMA4ImagesEEG,001,201659,
AFNE01.JPG,AFNE01.JPG,AFNE01.JPG,AFNE01.JPG,AFNE01.JPG,AFNE01.JPG,,,,,,,,,,,,,,,,,1,5,15,1,,,,,,,AFSA16.jpg,AFNE17.jpg,AFSA14.jpg,AFNE09.jpg,AFNE17.jpg,FN,3,num_6,32,num_8,0.766797367949,,,2017_Nov_08_1521,60.0013279464,FEMA4ImagesEEG,001,201659,
AFNE01.JPG,AFNE01.JPG,AFNE01.JPG,AFNE01.JPG,AFNE01.JPG,AFNE01.JPG,,,,,,,,,,,,,,,,,1,6,16,0,,,,,,,AFSA19.jpg,AFNE19.jpg,AFNE02.jpg,AFSA17.jpg,AFSA19.jpg,FS,4,num_8,16,num_8,0.85021112673,,,2017_Nov_08_1521,60.0013279464,FEMA4ImagesEEG,001,201659,
AFNE01.JPG,AFNE01.JPG,AFNE01.JPG,AFNE01.JPG,AFNE01.JPG,AFNE01.JPG,,,,,,,,,,,,,,,,,1,7,17,6,,,,,,,AFSA09.jpg,AFNE03.jpg,AFNE07.jpg,AFSA02.jpg,AFSA02.jpg,FS,4,num_4,32,num_6,0.516754950164,,,2017_Nov_08_1521,60.0013279464,FEMA4ImagesEEG,001,201659,
AFNE01.JPG,AFNE01.JPG,AFNE01.JPG,AFNE01.JPG,AFNE01.JPG,AFNE01.JPG,,,,,,,,,,,,,,,,,1,8,18,5,,,,,,,AFSA19.jpg,AFNE14.jpg,AFSA14.jpg,AFNE12.jpg,AFSA19.jpg,FS,4,num_8,16,num_8,0.583510140888,,,2017_Nov_08_1521,60.0013279464,FEMA4ImagesEEG,001,201659,
AFNE01.JPG,AFNE01.JPG,AFNE01.JPG,AFNE01.JPG,AFNE01.JPG,AFNE01.JPG,,,,,,,,,,,,,,,,,1,9,19,9,,,,,,,AFNE20.jpg,AFSA12.jpg,AFNE14.jpg,AFSA19.jpg,AFSA19.jpg,FS,4,num_4,16,num_4,0.733533154009,,,2017_Nov_08_1521,60.0013279464,FEMA4ImagesEEG,001,201659,
AFNE01.JPG,AFNE01.JPG,AFNE01.JPG,AFNE01.JPG,AFNE01.JPG,AFNE01.JPG,,,,,,,,,,,,,,,,,2,0,20,1,,,,,,,AFSA19.jpg,AFNE16.jpg,AFSA15.jpg,AFNE10.jpg,AFNE16.jpg,FN,3,num_6,32,num_2,1.74971991428,,,2017_Nov_08_1521,60.0013279464,FEMA4ImagesEEG,001,201659,
AFNE01.JPG,AFNE01.JPG,AFNE01.JPG,AFNE01.JPG,AFNE01.JPG,AFNE01.JPG,,,,,,,,,,,,,,,,,2,1,21,0,,,,,,,AFSA20.jpg,AFNE12.jpg,AFSA09.jpg,AFNE14.jpg,AFNE12.jpg,FN,3,num_6,16,num_6,0.516830323962,,,2017_Nov_08_1521,60.0013279464,FEMA4ImagesEEG,001,201659,
AFNE01.JPG,AFNE01.JPG,AFNE01.JPG,AFNE01.JPG,AFNE01.JPG,AFNE01.JPG,,,,,,,,,,,,,,,,,2,2,22,2,,,,,,,AFSA10.jpg,AFNE02.jpg,AFNE14.jpg,AFSA07.jpg,AFNE02.jpg,FN,3,num_6,32,num_4,1.06676834123,,,2017_Nov_08_1521,60.0013279464,FEMA4ImagesEEG,001,201659,
AFNE01.JPG,AFNE01.JPG,AFNE01.JPG,AFNE01.JPG,AFNE01.JPG,AFNE01.JPG,,,,,,,,,,,,,,,,,2,3,23,5,,,,,,,AFNE05.jpg,AFSA15.jpg,AFSA09.jpg,AFNE03.jpg,AFSA09.jpg,FS,4,num_2,32,num_4,0.516801457386,,,2017_Nov_08_1521,60.0013279464,FEMA4ImagesEEG,001,201659,
AFNE01.JPG,AFNE01.JPG,AFNE01.JPG,AFNE01.JPG,AFNE01.JPG,AFNE01.JPG,,,,,,,,,,,,,,,,,2,4,24,4,,,,,,,AFSA04.jpg,AFSA19.jpg,AFNE19.jpg,AFNE11.jpg,AFNE19.jpg,FN,3,num_2,16,num_2,1.2501155464,,,2017_Nov_08_1521,60.0013279464,FEMA4ImagesEEG,001,201659,
AFNE01.JPG,AFNE01.JPG,AFNE01.JPG,AFNE01.JPG,AFNE01.JPG,AFNE01.JPG,,,,,,,,,,,,,,,,,2,5,25,6,,,,,,,AFSA05.jpg,AFNE11.jpg,AFNE13.jpg,AFSA20.jpg,AFSA20.jpg,FS,4,num_4,32,num_2,1.08344294596,,,2017_Nov_08_1521,60.0013279464,FEMA4ImagesEEG,001,201659,
AFNE01.JPG,AFNE01.JPG,AFNE01.JPG,AFNE01.JPG,AFNE01.JPG,AFNE01.JPG,,,,,,,,,,,,,,,,,2,6,26,9,,,,,,,AFSA12.jpg,AFNE05.jpg,AFSA18.jpg,AFNE01.jpg,AFSA18.jpg,FS,4,num_2,16,num_2,1.06679175515,,,2017_Nov_08_1521,60.0013279464,FEMA4ImagesEEG,001,201659,
AFNE01.JPG,AFNE01.JPG,AFNE01.JPG,AFNE01.JPG,AFNE01.JPG,AFNE01.JPG,,,,,,,,,,,,,,,,,2,7,27,7,,,,,,,AFSA09.jpg,AFNE05.jpg,AFSA20.jpg,AFNE06.jpg,AFSA20.jpg,FS,4,num_2,16,num_2,1.88333966793,,,2017_Nov_08_1521,60.0013279464,FEMA4ImagesEEG,001,201659,
AFNE01.JPG,AFNE01.JPG,AFNE01.JPG,AFNE01.JPG,AFNE01.JPG,AFNE01.JPG,,,,,,,,,,,,,,,,,2,8,28,8,,,,,,,AFSA02.jpg,AFNE13.jpg,AFNE09.jpg,AFSA19.jpg,AFNE09.jpg,FN,3,num_2,32,num_6,1.90009413706,,,2017_Nov_08_1521,60.0013279464,FEMA4ImagesEEG,001,201659,
AFNE01.JPG,AFNE01.JPG,AFNE01.JPG,AFNE01.JPG,AFNE01.JPG,AFNE01.JPG,,,,,,,,,,,,,,,,,2,9,29,3,,,,,,,AFNE18.jpg,AFSA03.jpg,AFSA06.jpg,AFNE09.jpg,AFSA03.jpg,FS,4,num_6,32,num_2,0.783491538139,,,2017_Nov_08_1521,60.0013279464,FEMA4ImagesEEG,001,201659,
AFNE01.JPG,AFNE01.JPG,AFNE01.JPG,AFNE01.JPG,AFNE01.JPG,AFNE01.JPG,,,,,,,,,,,,,,,,,3,0,30,6,,,,,,,AFNE18.jpg,AFSA16.jpg,AFNE13.jpg,AFSA17.jpg,AFNE18.jpg,FN,3,num_8,16,num_8,0.833567312919,,,2017_Nov_08_1521,60.0013279464,FEMA4ImagesEEG,001,201659,
AFNE01.JPG,AFNE01.JPG,AFNE01.JPG,AFNE01.JPG,AFNE01.JPG,AFNE01.JPG,,,,,,,,,,,,,,,,,3,1,31,4,,,,,,,AFSA07.jpg,AFNE04.jpg,AFNE17.jpg,AFSA13.jpg,AFSA13.jpg,FS,4,num_4,16,num_4,0.616482802667,,,2017_Nov_08_1521,60.0013279464,FEMA4ImagesEEG,001,201659,
AFNE01.JPG,AFNE01.JPG,AFNE01.JPG,AFNE01.JPG,AFNE01.JPG,AFNE01.JPG,,,,,,,,,,,,,,,,,3,2,32,0,,,,,,,AFNE08.jpg,AFSA02.jpg,AFNE10.jpg,AFSA07.jpg,AFNE08.jpg,FN,3,num_8,16,num_8,0.700180415995,,,2017_Nov_08_1521,60.0013279464,FEMA4ImagesEEG,001,201659,
AFNE01.JPG,AFNE01.JPG,AFNE01.JPG,AFNE01.JPG,AFNE01.JPG,AFNE01.JPG,,,,,,,,,,,,,,,,,3,3,33,5,,,,,,,AFSA04.jpg,AFNE07.jpg,AFSA20.jpg,AFNE16.jpg,AFSA04.jpg,FS,4,num_8,32,num_4,0.766798330238,,,2017_Nov_08_1521,60.0013279464,FEMA4ImagesEEG,001,201659,
AFNE01.JPG,AFNE01.JPG,AFNE01.JPG,AFNE01.JPG,AFNE01.JPG,AFNE01.JPG,,,,,,,,,,,,,,,,,3,4,34,9,,,,,,,AFSA01.jpg,AFSA12.jpg,AFNE12.jpg,AFNE09.jpg,AFSA01.jpg,FS,4,num_8,16,num_8,0.700161171611,,,2017_Nov_08_1521,60.0013279464,FEMA4ImagesEEG,001,201659,
AFNE01.JPG,AFNE01.JPG,AFNE01.JPG,AFNE01.JPG,AFNE01.JPG,AFNE01.JPG,,,,,,,,,,,,,,,,,3,5,35,7,,,,,,,AFSA18.jpg,AFNE01.jpg,AFSA17.jpg,AFNE07.jpg,AFNE07.jpg,FN,3,num_4,16,num_4,0.616791995708,,,2017_Nov_08_1521,60.0013279464,FEMA4ImagesEEG,001,201659,
AFNE01.JPG,AFNE01.JPG,AFNE01.JPG,AFNE01.JPG,AFNE01.JPG,AFNE01.JPG,,,,,,,,,,,,,,,,,3,6,36,2,,,,,,,AFSA08.jpg,AFNE14.jpg,AFSA10.jpg,AFNE05.jpg,AFNE05.jpg,FN,3,num_4,32,num_8,0.683468284551,,,2017_Nov_08_1521,60.0013279464,FEMA4ImagesEEG,001,201659,
AFNE01.JPG,AFNE01.JPG,AFNE01.JPG,AFNE01.JPG,AFNE01.JPG,AFNE01.JPG,,,,,,,,,,,,,,,,,3,7,37,1,,,,,,,AFNE04.jpg,AFSA11.jpg,AFSA04.jpg,AFNE14.jpg,AFNE04.jpg,FN,3,num_8,16,num_8,0.48349811323,,,2017_Nov_08_1521,60.0013279464,FEMA4ImagesEEG,001,201659,
AFNE01.JPG,AFNE01.JPG,AFNE01.JPG,AFNE01.JPG,AFNE01.JPG,AFNE01.JPG,,,,,,,,,,,,,,,,,3,8,38,3,,,,,,,AFNE16.jpg,AFSA20.jpg,AFNE13.jpg,AFSA15.jpg,AFSA15.jpg,FS,4,num_4,32,num_8,1.23344896012,,,2017_Nov_08_1521,60.0013279464,FEMA4ImagesEEG,001,201659,
AFNE01.JPG,AFNE01.JPG,AFNE01.JPG,AFNE01.JPG,AFNE01.JPG,AFNE01.JPG,,,,,,,,,,,,,,,,,3,9,39,8,,,,,,,AFNE15.jpg,AFSA13.jpg,AFNE18.jpg,AFSA17.jpg,AFSA17.jpg,FS,4,num_4,32,num_6,0.716790873092,,,2017_Nov_08_1521,60.0013279464,FEMA4ImagesEEG,001,201659,
AFNE01.JPG,AFNE01.JPG,AFNE01.JPG,AFNE01.JPG,AFNE01.JPG,AFNE01.JPG,,,,,,,,,,,,,,,,,4,0,40,8,,,,,,,AFNE12.jpg,AFSA17.jpg,AFNE07.jpg,AFSA16.jpg,AFNE07.jpg,FN,3,num_2,16,num_2,0.816801938694,,,2017_Nov_08_1521,60.0013279464,FEMA4ImagesEEG,001,201659,
AFNE01.JPG,AFNE01.JPG,AFNE01.JPG,AFNE01.JPG,AFNE01.JPG,AFNE01.JPG,,,,,,,,,,,,,,,,,4,1,41,2,,,,,,,AFNE09.jpg,AFNE17.jpg,AFSA12.jpg,AFSA15.jpg,AFSA12.jpg,FS,4,num_2,16,num_2,1.00003592274,,,2017_Nov_08_1521,60.0013279464,FEMA4ImagesEEG,001,201659,
AFNE01.JPG,AFNE01.JPG,AFNE01.JPG,AFNE01.JPG,AFNE01.JPG,AFNE01.JPG,,,,,,,,,,,,,,,,,4,2,42,7,,,,,,,AFNE02.jpg,AFNE18.jpg,AFSA05.jpg,AFSA03.jpg,AFSA05.jpg,FS,4,num_2,16,num_2,0.650181618752,,,2017_Nov_08_1521,60.0013279464,FEMA4ImagesEEG,001,201659,
AFNE01.JPG,AFNE01.JPG,AFNE01.JPG,AFNE01.JPG,AFNE01.JPG,AFNE01.JPG,,,,,,,,,,,,,,,,,4,3,43,9,,,,,,,AFNE14.jpg,AFSA12.jpg,AFSA17.jpg,AFNE18.jpg,AFNE18.jpg,FN,3,num_4,16,num_4,1.70005019568,,,2017_Nov_08_1521,60.0013279464,FEMA4ImagesEEG,001,201659,
AFNE01.JPG,AFNE01.JPG,AFNE01.JPG,AFNE01.JPG,AFNE01.JPG,AFNE01.JPG,,,,,,,,,,,,,,,,,4,4,44,0,,,,,,,AFSA11.jpg,AFNE01.jpg,AFSA18.jpg,AFNE12.jpg,AFSA18.jpg,FS,4,num_2,16,num_2,0.783469406888,,,2017_Nov_08_1521,60.0013279464,FEMA4ImagesEEG,001,201659,
AFNE01.JPG,AFNE01.JPG,AFNE01.JPG,AFNE01.JPG,AFNE01.JPG,AFNE01.JPG,,,,,,,,,,,,,,,,,4,5,45,4,,,,,,,AFSA19.jpg,AFSA01.jpg,AFNE05.jpg,AFNE08.jpg,AFSA01.jpg,FS,4,num_6,16,num_6,0.733809631551,,,2017_Nov_08_1521,60.0013279464,FEMA4ImagesEEG,001,201659,
AFNE01.JPG,AFNE01.JPG,AFNE01.JPG,AFNE01.JPG,AFNE01.JPG,AFNE01.JPG,,,,,,,,,,,,,,,,,4,6,46,1,,,,,,,AFNE07.jpg,AFSA17.jpg,AFSA12.jpg,AFNE03.jpg,AFSA12.jpg,FS,4,num_2,16,num_2,0.533497551922,,,2017_Nov_08_1521,60.0013279464,FEMA4ImagesEEG,001,201659,
AFNE01.JPG,AFNE01.JPG,AFNE01.JPG,AFNE01.JPG,AFNE01.JPG,AFNE01.JPG,,,,,,,,,,,,,,,,,4,7,47,6,,,,,,,AFSA10.jpg,AFNE09.jpg,AFSA05.jpg,AFNE12.jpg,AFSA10.jpg,FS,4,num_8,16,num_8,0.833483920665,,,2017_Nov_08_1521,60.0013279464,FEMA4ImagesEEG,001,201659,
AFNE01.JPG,AFNE01.JPG,AFNE01.JPG,AFNE01.JPG,AFNE01.JPG,AFNE01.JPG,,,,,,,,,,,,,,,,,4,8,48,3,,,,,,,AFSA06.jpg,AFNE02.jpg,AFNE05.jpg,AFSA19.jpg,AFSA06.jpg,FS,4,num_8,16,num_8,0.850096622948,,,2017_Nov_08_1521,60.0013279464,FEMA4ImagesEEG,001,201659,
AFNE01.JPG,AFNE01.JPG,AFNE01.JPG,AFNE01.JPG,AFNE01.JPG,AFNE01.JPG,,,,,,,,,,,,,,,,,4,9,49,5,,,,,,,AFNE11.jpg,AFSA20.jpg,AFNE16.jpg,AFSA12.jpg,AFSA12.jpg,FS,4,num_4,16,num_4,0.583530668169,,,2017_Nov_08_1521,60.0013279464,FEMA4ImagesEEG,001,201659,
AFNE01.JPG,AFNE01.JPG,AFNE01.JPG,AFNE01.JPG,AFNE01.JPG,AFNE01.JPG,,,,,,,,,,,,,,,,,5,0,50,2,,,,,,,AFSA06.jpg,AFNE18.jpg,AFNE14.jpg,AFSA07.jpg,AFSA07.jpg,FS,4,num_4,32,num_8,0.683424984571,,,2017_Nov_08_1521,60.0013279464,FEMA4ImagesEEG,001,201659,
AFNE01.JPG,AFNE01.JPG,AFNE01.JPG,AFNE01.JPG,AFNE01.JPG,AFNE01.JPG,,,,,,,,,,,,,,,,,5,1,51,5,,,,,,,AFNE01.jpg,AFNE11.jpg,AFSA01.jpg,AFSA06.jpg,AFNE01.jpg,FN,3,num_8,16,num_8,0.500190358842,,,2017_Nov_08_1521,60.0013279464,FEMA4ImagesEEG,001,201659,
AFNE01.JPG,AFNE01.JPG,AFNE01.JPG,AFNE01.JPG,AFNE01.JPG,AFNE01.JPG,,,,,,,,,,,,,,,,,5,2,52,0,,,,,,,AFNE16.jpg,AFSA17.jpg,AFNE02.jpg,AFSA20.jpg,AFSA17.jpg,FS,4,num_6,32,num_2,1.11678509973,,,2017_Nov_08_1521,60.0013279464,FEMA4ImagesEEG,001,201659,
AFNE01.JPG,AFNE01.JPG,AFNE01.JPG,AFNE01.JPG,AFNE01.JPG,AFNE01.JPG,,,,,,,,,,,,,,,,,5,3,53,9,,,,,,,AFNE08.jpg,AFSA03.jpg,AFSA04.jpg,AFNE10.jpg,AFSA04.jpg,FS,4,num_2,32,num_8,0.750126932748,,,2017_Nov_08_1521,60.0013279464,FEMA4ImagesEEG,001,201659,
AFNE01.JPG,AFNE01.JPG,AFNE01.JPG,AFNE01.JPG,AFNE01.JPG,AFNE01.JPG,,,,,,,,,,,,,,,,,5,4,54,1,,,,,,,AFSA08.jpg,AFNE10.jpg,AFSA05.jpg,AFNE19.jpg,AFSA08.jpg,FS,4,num_8,32,num_6,0.933214018121,,,2017_Nov_08_1521,60.0013279464,FEMA4ImagesEEG,001,201659,
AFNE01.JPG,AFNE01.JPG,AFNE01.JPG,AFNE01.JPG,AFNE01.JPG,AFNE01.JPG,,,,,,,,,,,,,,,,,5,5,55,8,,,,,,,AFSA06.jpg,AFNE03.jpg,AFSA17.jpg,AFNE15.jpg,AFSA17.jpg,FS,4,num_2,32,num_8,0.816801938694,,,2017_Nov_08_1521,60.0013279464,FEMA4ImagesEEG,001,201659,
AFNE01.JPG,AFNE01.JPG,AFNE01.JPG,AFNE01.JPG,AFNE01.JPG,AFNE01.JPG,,,,,,,,,,,,,,,,,5,6,56,6,,,,,,,AFSA19.jpg,AFNE11.jpg,AFNE01.jpg,AFSA11.jpg,AFNE11.jpg,FN,3,num_6,16,num_6,1.5499691288,,,2017_Nov_08_1521,60.0013279464,FEMA4ImagesEEG,001,201659,
AFNE01.JPG,AFNE01.JPG,AFNE01.JPG,AFNE01.JPG,AFNE01.JPG,AFNE01.JPG,,,,,,,,,,,,,,,,,5,7,57,4,,,,,,,AFNE15.jpg,AFNE20.jpg,AFSA11.jpg,AFSA17.jpg,AFSA11.jpg,FS,4,num_2,16,num_2,0.883477265248,,,2017_Nov_08_1521,60.0013279464,FEMA4ImagesEEG,001,201659,
AFNE01.JPG,AFNE01.JPG,AFNE01.JPG,AFNE01.JPG,AFNE01.JPG,AFNE01.JPG,,,,,,,,,,,,,,,,,5,8,58,7,,,,,,,AFSA20.jpg,AFNE14.jpg,AFNE04.jpg,AFSA16.jpg,AFSA20.jpg,FS,4,num_8,32,num_6,0.600171595579,,,2017_Nov_08_1521,60.0013279464,FEMA4ImagesEEG,001,201659,
AFNE01.JPG,AFNE01.JPG,AFNE01.JPG,AFNE01.JPG,AFNE01.JPG,AFNE01.JPG,,,,,,,,,,,,,,,,,5,9,59,3,,,,,,,AFNE12.jpg,AFNE07.jpg,AFSA19.jpg,AFSA15.jpg,AFNE12.jpg,FN,3,num_8,16,num_8,0.683521527331,,,2017_Nov_08_1521,60.0013279464,FEMA4ImagesEEG,001,201659,
,,,,,,,,,,,,,,,,,,,,,,,,,,,,,,,,,,,,,,,,,,,space,4.98311819742,2017_Nov_08_1521,60.0013279464,FEMA4ImagesEEG,001,201659,
AFNE01.JPG,AFNE01.JPG,AFNE01.JPG,AFNE01.JPG,AFNE01.JPG,AFNE01.JPG,,,,,,,,,,,,,,,,,,,,,0,0,0,6,,,AMSA20.jpg,AMNE10.jpg,AMSA06.jpg,AMNE12.jpg,AMSA06.jpg,MS,2,num_2,16,num_2,0.75012532901,,,2017_Nov_08_1521,60.0013279464,FEMA4ImagesEEG,001,201659,
AFNE01.JPG,AFNE01.JPG,AFNE01.JPG,AFNE01.JPG,AFNE01.JPG,AFNE01.JPG,,,,,,,,,,,,,,,,,,,,,0,1,1,3,,,AMNE11.jpg,AMNE17.jpg,AMSA13.jpg,AMSA18.jpg,AMSA13.jpg,MS,2,num_2,32,num_8,1.41674324335,,,2017_Nov_08_1521,60.0013279464,FEMA4ImagesEEG,001,201659,
AFNE01.JPG,AFNE01.JPG,AFNE01.JPG,AFNE01.JPG,AFNE01.JPG,AFNE01.JPG,,,,,,,,,,,,,,,,,,,,,0,2,2,2,,,AMSA16.jpg,AMSA11.jpg,AMNE14.jpg,AMNE20.jpg,AMNE14.jpg,MN,1,num_2,16,num_2,3.04994683736,,,2017_Nov_08_1521,60.0013279464,FEMA4ImagesEEG,001,201659,
AFNE01.JPG,AFNE01.JPG,AFNE01.JPG,AFNE01.JPG,AFNE01.JPG,AFNE01.JPG,,,,,,,,,,,,,,,,,,,,,0,3,3,9,,,AMNE03.jpg,AMSA12.jpg,AMSA06.jpg,AMNE06.jpg,AMNE03.jpg,MN,1,num_8,16,num_8,0.916750459932,,,2017_Nov_08_1521,60.0013279464,FEMA4ImagesEEG,001,201659,
AFNE01.JPG,AFNE01.JPG,AFNE01.JPG,AFNE01.JPG,AFNE01.JPG,AFNE01.JPG,,,,,,,,,,,,,,,,,,,,,0,4,4,4,,,AMSA08.jpg,AMNE11.jpg,AMNE17.jpg,AMSA05.jpg,AMSA05.jpg,MS,2,num_4,32,num_6,0.916764251655,,,2017_Nov_08_1521,60.0013279464,FEMA4ImagesEEG,001,201659,
AFNE01.JPG,AFNE01.JPG,AFNE01.JPG,AFNE01.JPG,AFNE01.JPG,AFNE01.JPG,,,,,,,,,,,,,,,,,,,,,0,5,5,8,,,AMNE10.jpg,AMSA02.jpg,AMSA11.jpg,AMNE08.jpg,AMNE10.jpg,MN,1,num_8,16,num_8,0.766792236129,,,2017_Nov_08_1521,60.0013279464,FEMA4ImagesEEG,001,201659,
AFNE01.JPG,AFNE01.JPG,AFNE01.JPG,AFNE01.JPG,AFNE01.JPG,AFNE01.JPG,,,,,,,,,,,,,,,,,,,,,0,6,6,5,,,AMSA12.jpg,AMNE12.jpg,AMNE01.jpg,AMSA18.jpg,AMNE12.jpg,MN,1,num_6,16,num_6,1.01679039211,,,2017_Nov_08_1521,60.0013279464,FEMA4ImagesEEG,001,201659,
AFNE01.JPG,AFNE01.JPG,AFNE01.JPG,AFNE01.JPG,AFNE01.JPG,AFNE01.JPG,,,,,,,,,,,,,,,,,,,,,0,7,7,7,,,AMSA13.jpg,AMSA09.jpg,AMNE13.jpg,AMNE20.jpg,AMNE20.jpg,MN,1,num_4,16,num_4,0.550164779881,,,2017_Nov_08_1521,60.0013279464,FEMA4ImagesEEG,001,201659,
AFNE01.JPG,AFNE01.JPG,AFNE01.JPG,AFNE01.JPG,AFNE01.JPG,AFNE01.JPG,,,,,,,,,,,,,,,,,,,,,0,8,8,0,,,AMNE08.jpg,AMSA05.jpg,AMSA09.jpg,AMNE06.jpg,AMNE08.jpg,MN,1,num_8,16,num_8,0.750150667503,,,2017_Nov_08_1521,60.0013279464,FEMA4ImagesEEG,001,201659,
AFNE01.JPG,AFNE01.JPG,AFNE01.JPG,AFNE01.JPG,AFNE01.JPG,AFNE01.JPG,,,,,,,,,,,,,,,,,,,,,0,9,9,1,,,AMNE18.jpg,AMNE11.jpg,AMSA09.jpg,AMSA04.jpg,AMSA04.jpg,MS,2,num_4,16,num_4,0.86678245361,,,2017_Nov_08_1521,60.0013279464,FEMA4ImagesEEG,001,201659,
AFNE01.JPG,AFNE01.JPG,AFNE01.JPG,AFNE01.JPG,AFNE01.JPG,AFNE01.JPG,,,,,,,,,,,,,,,,,,,,,1,0,10,8,,,AMNE02.jpg,AMNE14.jpg,AMSA04.jpg,AMSA17.jpg,AMSA04.jpg,MS,2,num_2,16,num_2,0.716846360825,,,2017_Nov_08_1521,60.0013279464,FEMA4ImagesEEG,001,201659,
AFNE01.JPG,AFNE01.JPG,AFNE01.JPG,AFNE01.JPG,AFNE01.JPG,AFNE01.JPG,,,,,,,,,,,,,,,,,,,,,1,1,11,2,,,AMNE06.jpg,AMSA13.jpg,AMSA03.jpg,AMNE14.jpg,AMSA03.jpg,MS,2,num_2,32,num_6,1.23381556524,,,2017_Nov_08_1521,60.0013279464,FEMA4ImagesEEG,001,201659,
AFNE01.JPG,AFNE01.JPG,AFNE01.JPG,AFNE01.JPG,AFNE01.JPG,AFNE01.JPG,,,,,,,,,,,,,,,,,,,,,1,2,12,3,,,AMNE01.jpg,AMSA20.jpg,AMNE13.jpg,AMSA03.jpg,AMSA03.jpg,MS,2,num_4,16,num_4,0.733493061503,,,2017_Nov_08_1521,60.0013279464,FEMA4ImagesEEG,001,201659,
AFNE01.JPG,AFNE01.JPG,AFNE01.JPG,AFNE01.JPG,AFNE01.JPG,AFNE01.JPG,,,,,,,,,,,,,,,,,,,,,1,3,13,0,,,AMNE03.jpg,AMNE08.jpg,AMSA07.jpg,AMSA15.jpg,AMSA15.jpg,MS,2,num_4,32,num_2,1.28345064376,,,2017_Nov_08_1521,60.0013279464,FEMA4ImagesEEG,001,201659,
AFNE01.JPG,AFNE01.JPG,AFNE01.JPG,AFNE01.JPG,AFNE01.JPG,AFNE01.JPG,,,,,,,,,,,,,,,,,,,,,1,4,14,6,,,AMSA06.jpg,AMNE08.jpg,AMNE10.jpg,AMSA08.jpg,AMNE08.jpg,MN,1,num_6,32,num_2,0.816688075894,,,2017_Nov_08_1521,60.0013279464,FEMA4ImagesEEG,001,201659,
AFNE01.JPG,AFNE01.JPG,AFNE01.JPG,AFNE01.JPG,AFNE01.JPG,AFNE01.JPG,,,,,,,,,,,,,,,,,,,,,1,5,15,1,,,AMNE13.jpg,AMNE15.jpg,AMSA07.jpg,AMSA13.jpg,AMSA07.jpg,MS,2,num_2,16,num_2,0.949818701949,,,2017_Nov_08_1521,60.0013279464,FEMA4ImagesEEG,001,201659,
AFNE01.JPG,AFNE01.JPG,AFNE01.JPG,AFNE01.JPG,AFNE01.JPG,AFNE01.JPG,,,,,,,,,,,,,,,,,,,,,1,6,16,4,,,AMSA13.jpg,AMNE02.jpg,AMNE12.jpg,AMSA08.jpg,AMNE12.jpg,MN,1,num_2,32,num_8,1.33340870705,,,2017_Nov_08_1521,60.0013279464,FEMA4ImagesEEG,001,201659,
AFNE01.JPG,AFNE01.JPG,AFNE01.JPG,AFNE01.JPG,AFNE01.JPG,AFNE01.JPG,,,,,,,,,,,,,,,,,,,,,1,7,17,9,,,AMSA13.jpg,AMSA08.jpg,AMNE15.jpg,AMNE06.jpg,AMSA08.jpg,MS,2,num_6,32,num_8,0.800176727353,,,2017_Nov_08_1521,60.0013279464,FEMA4ImagesEEG,001,201659,
AFNE01.JPG,AFNE01.JPG,AFNE01.JPG,AFNE01.JPG,AFNE01.JPG,AFNE01.JPG,,,,,,,,,,,,,,,,,,,,,1,8,18,7,,,AMSA20.jpg,AMSA12.jpg,AMNE08.jpg,AMNE16.jpg,AMSA20.jpg,MS,2,num_8,16,num_8,0.666914277477,,,2017_Nov_08_1521,60.0013279464,FEMA4ImagesEEG,001,201659,
AFNE01.JPG,AFNE01.JPG,AFNE01.JPG,AFNE01.JPG,AFNE01.JPG,AFNE01.JPG,,,,,,,,,,,,,,,,,,,,,1,9,19,5,,,AMNE02.jpg,AMNE20.jpg,AMSA01.jpg,AMSA12.jpg,AMNE20.jpg,MN,1,num_6,16,num_6,0.616827276768,,,2017_Nov_08_1521,60.0013279464,FEMA4ImagesEEG,001,201659,
AFNE01.JPG,AFNE01.JPG,AFNE01.JPG,AFNE01.JPG,AFNE01.JPG,AFNE01.JPG,,,,,,,,,,,,,,,,,,,,,2,0,20,2,,,AMSA14.jpg,AMNE04.jpg,AMNE10.jpg,AMSA11.jpg,AMNE04.jpg,MN,1,num_6,16,num_6,0.699984764913,,,2017_Nov_08_1521,60.0013279464,FEMA4ImagesEEG,001,201659,
AFNE01.JPG,AFNE01.JPG,AFNE01.JPG,AFNE01.JPG,AFNE01.JPG,AFNE01.JPG,,,,,,,,,,,,,,,,,,,,,2,1,21,0,,,AMSA19.jpg,AMNE06.jpg,AMNE07.jpg,AMSA06.jpg,AMNE06.jpg,MN,1,num_6,32,num_8,1.36670339131,,,2017_Nov_08_1521,60.0013279464,FEMA4ImagesEEG,001,201659,
AFNE01.JPG,AFNE01.JPG,AFNE01.JPG,AFNE01.JPG,AFNE01.JPG,AFNE01.JPG,,,,,,,,,,,,,,,,,,,,,2,2,22,7,,,AMSA07.jpg,AMSA11.jpg,AMNE12.jpg,AMNE13.jpg,AMNE13.jpg,MN,1,num_4,32,num_8,0.566676770104,,,2017_Nov_08_1521,60.0013279464,FEMA4ImagesEEG,001,201659,
AFNE01.JPG,AFNE01.JPG,AFNE01.JPG,AFNE01.JPG,AFNE01.JPG,AFNE01.JPG,,,,,,,,,,,,,,,,,,,,,2,3,23,9,,,AMSA18.jpg,AMNE08.jpg,AMNE03.jpg,AMSA06.jpg,AMNE03.jpg,MN,1,num_2,32,num_8,0.033510542009,,,2017_Nov_08_1521,60.0013279464,FEMA4ImagesEEG,001,201659,
AFNE01.JPG,AFNE01.JPG,AFNE01.JPG,AFNE01.JPG,AFNE01.JPG,AFNE01.JPG,,,,,,,,,,,,,,,,,,,,,2,4,24,5,,,AMSA07.jpg,AMSA15.jpg,AMNE12.jpg,AMNE13.jpg,AMSA07.jpg,MS,2,num_8,32,num_2,1.28345866222,,,2017_Nov_08_1521,60.0013279464,FEMA4ImagesEEG,001,201659,
AFNE01.JPG,AFNE01.JPG,AFNE01.JPG,AFNE01.JPG,AFNE01.JPG,AFNE01.JPG,,,,,,,,,,,,,,,,,,,,,2,5,25,3,,,AMNE03.jpg,AMSA11.jpg,AMSA05.jpg,AMNE17.jpg,AMNE03.jpg,MN,1,num_8,32,num_4,0.466780529357,,,2017_Nov_08_1521,60.0013279464,FEMA4ImagesEEG,001,201659,
AFNE01.JPG,AFNE01.JPG,AFNE01.JPG,AFNE01.JPG,AFNE01.JPG,AFNE01.JPG,,,,,,,,,,,,,,,,,,,,,2,6,26,8,,,AMSA10.jpg,AMSA01.jpg,AMNE08.jpg,AMNE06.jpg,AMNE06.jpg,MN,1,num_4,32,num_2,1.38345369091,,,2017_Nov_08_1521,60.0013279464,FEMA4ImagesEEG,001,201659,
AFNE01.JPG,AFNE01.JPG,AFNE01.JPG,AFNE01.JPG,AFNE01.JPG,AFNE01.JPG,,,,,,,,,,,,,,,,,,,,,2,7,27,4,,,AMNE18.jpg,AMSA02.jpg,AMNE17.jpg,AMSA15.jpg,AMNE18.jpg,MN,1,num_8,16,num_8,2.13338946272,,,2017_Nov_08_1521,60.0013279464,FEMA4ImagesEEG,001,201659,
AFNE01.JPG,AFNE01.JPG,AFNE01.JPG,AFNE01.JPG,AFNE01.JPG,AFNE01.JPG,,,,,,,,,,,,,,,,,,,,,2,8,28,1,,,AMNE02.jpg,AMSA16.jpg,AMNE12.jpg,AMSA18.jpg,AMNE02.jpg,MN,1,num_8,32,num_4,0.516871699365,,,2017_Nov_08_1521,60.0013279464,FEMA4ImagesEEG,001,201659,
AFNE01.JPG,AFNE01.JPG,AFNE01.JPG,AFNE01.JPG,AFNE01.JPG,AFNE01.JPG,,,,,,,,,,,,,,,,,,,,,2,9,29,6,,,AMSA10.jpg,AMSA14.jpg,AMNE17.jpg,AMNE06.jpg,AMNE17.jpg,MN,1,num_2,48,None,,,,2017_Nov_08_1521,60.0013279464,FEMA4ImagesEEG,001,201659,
AFNE01.JPG,AFNE01.JPG,AFNE01.JPG,AFNE01.JPG,AFNE01.JPG,AFNE01.JPG,,,,,,,,,,,,,,,,,,,,,3,0,30,2,,,AMSA08.jpg,AMNE09.jpg,AMSA14.jpg,AMNE08.jpg,AMNE09.jpg,MN,1,num_6,48,None,,,,2017_Nov_08_1521,60.0013279464,FEMA4ImagesEEG,001,201659,
AFNE01.JPG,AFNE01.JPG,AFNE01.JPG,AFNE01.JPG,AFNE01.JPG,AFNE01.JPG,,,,,,,,,,,,,,,,,,,,,3,1,31,0,,,AMSA08.jpg,AMNE20.jpg,AMNE02.jpg,AMSA06.jpg,AMNE20.jpg,MN,1,num_6,48,None,,,,2017_Nov_08_1521,60.0013279464,FEMA4ImagesEEG,001,201659,
AFNE01.JPG,AFNE01.JPG,AFNE01.JPG,AFNE01.JPG,AFNE01.JPG,AFNE01.JPG,,,,,,,,,,,,,,,,,,,,,3,2,32,3,,,AMSA14.jpg,AMNE08.jpg,AMSA19.jpg,AMNE07.jpg,AMNE07.jpg,MN,1,num_4,48,None,,,,2017_Nov_08_1521,60.0013279464,FEMA4ImagesEEG,001,201659,
AFNE01.JPG,AFNE01.JPG,AFNE01.JPG,AFNE01.JPG,AFNE01.JPG,AFNE01.JPG,,,,,,,,,,,,,,,,,,,,,3,3,33,8,,,AMNE15.jpg,AMSA08.jpg,AMSA02.jpg,AMNE20.jpg,AMSA02.jpg,MS,2,num_2,48,None,,,,2017_Nov_08_1521,60.0013279464,FEMA4ImagesEEG,001,201659,
AFNE01.JPG,AFNE01.JPG,AFNE01.JPG,AFNE01.JPG,AFNE01.JPG,AFNE01.JPG,,,,,,,,,,,,,,,,,,,,,3,4,34,1,,,AMSA13.jpg,AMNE06.jpg,AMNE16.jpg,AMSA19.jpg,AMSA13.jpg,MS,2,num_8,48,None,,,,2017_Nov_08_1521,60.0013279464,FEMA4ImagesEEG,001,201659,
AFNE01.JPG,AFNE01.JPG,AFNE01.JPG,AFNE01.JPG,AFNE01.JPG,AFNE01.JPG,,,,,,,,,,,,,,,,,,,,,3,5,35,7,,,AMSA01.jpg,AMSA10.jpg,AMNE18.jpg,AMNE14.jpg,AMNE18.jpg,MN,1,num_2,32,num_6,1.01673746994,,,2017_Nov_08_1521,60.0013279464,FEMA4ImagesEEG,001,201659,
AFNE01.JPG,AFNE01.JPG,AFNE01.JPG,AFNE01.JPG,AFNE01.JPG,AFNE01.JPG,,,,,,,,,,,,,,,,,,,,,3,6,36,4,,,AMNE06.jpg,AMSA17.jpg,AMSA03.jpg,AMNE09.jpg,AMNE09.jpg,MN,1,num_4,16,num_4,0.266803622246,,,2017_Nov_08_1521,60.0013279464,FEMA4ImagesEEG,001,201659,
AFNE01.JPG,AFNE01.JPG,AFNE01.JPG,AFNE01.JPG,AFNE01.JPG,AFNE01.JPG,,,,,,,,,,,,,,,,,,,,,3,7,37,5,,,AMNE05.jpg,AMNE17.jpg,AMSA04.jpg,AMSA09.jpg,AMSA09.jpg,MS,2,num_4,32,num_8,0.483551676851,,,2017_Nov_08_1521,60.0013279464,FEMA4ImagesEEG,001,201659,
AFNE01.JPG,AFNE01.JPG,AFNE01.JPG,AFNE01.JPG,AFNE01.JPG,AFNE01.JPG,,,,,,,,,,,,,,,,,,,,,3,8,38,9,,,AMSA05.jpg,AMNE12.jpg,AMNE14.jpg,AMSA20.jpg,AMSA05.jpg,MS,2,num_8,16,num_8,0.633456657641,,,2017_Nov_08_1521,60.0013279464,FEMA4ImagesEEG,001,201659,
