IPosition2,IPosition3,IPosition1,IPosition6,IPosition4,IPosition5,TrialsF1.thisRepN,TrialsF1.thisTrialN,TrialsF1.thisN,TrialsF1.thisIndex,TrialsM1.thisRepN,TrialsM1.thisTrialN,TrialsM1.thisN,TrialsM1.thisIndex,TrialsF2.thisRepN,TrialsF2.thisTrialN,TrialsF2.thisN,TrialsF2.thisIndex,TrialsM2.thisRepN,TrialsM2.thisTrialN,TrialsM2.thisN,TrialsM2.thisIndex,TrialsF3.thisRepN,TrialsF3.thisTrialN,TrialsF3.thisN,TrialsF3.thisIndex,TrialsM3.thisRepN,TrialsM3.thisTrialN,TrialsM3.thisN,TrialsM3.thisIndex,InstrKey_resp.keys,InstrKey_resp.rt,Image0 _Position,Image1 _Position,Image2 _Position,Image3 _Position,Center_image,condition,code,correct_answer,accuracy,Key_Resp.keys,Key_Resp.rt,BreakKey_resp.keys,BreakKey_resp.rt,date,frameRate,expName,session,participant,
,,,,,,,,,,,,,,,,,,,,,,,,,,,,,,space,15.4326987503,,,,,,,,,,,,,,2017_Oct_20_1148,60.0016743144,FEMA4ImagesEEG,001,201751,
AFSA21.JPG,AFNE23.JPG,AFNE21.JPG,AFSA25.JPG,AFNE25.JPG,AFSA23.JPG,0,0,0,4,,,,,,,,,,,,,,,,,,,,,,,AFSA13.jpg,AFNE01.jpg,AFNE05.jpg,AFSA02.jpg,AFNE05.jpg,FN,3,num_2,32,num_6,2.28332747985,,,2017_Oct_20_1148,60.0016743144,FEMA4ImagesEEG,001,201751,
AMSA21.JPG,AMNE22.JPG,AMNE21.JPG,AMSA23.JPG,AMSA22.JPG,AMNE23.JPG,0,1,1,1,,,,,,,,,,,,,,,,,,,,,,,AFSA10.jpg,AFNE04.jpg,AFSA01.jpg,AFNE02.jpg,AFSA01.jpg,FS,4,num_2,16,num_2,0.716766496858,,,2017_Oct_20_1148,60.0016743144,FEMA4ImagesEEG,001,201751,
AMSA21.JPG,AMNE23.JPG,AMNE21.JPG,AMSA25.JPG,AMNE25.JPG,AMSA23.JPG,0,2,2,5,,,,,,,,,,,,,,,,,,,,,,,AFSA13.jpg,AFNE03.jpg,AFNE19.jpg,AFSA01.jpg,AFNE19.jpg,FN,3,num_2,16,num_2,0.950113782339,,,2017_Oct_20_1148,60.0016743144,FEMA4ImagesEEG,001,201751,
AFSA21.JPG,AFNE22.JPG,AFNE21.JPG,AFSA23.JPG,AFSA22.JPG,AFNE23.JPG,0,3,3,0,,,,,,,,,,,,,,,,,,,,,,,AFNE14.jpg,AFSA06.jpg,AFNE13.jpg,AFSA05.jpg,AFNE14.jpg,FN,3,num_8,32,num_6,1.56667099666,,,2017_Oct_20_1148,60.0016743144,FEMA4ImagesEEG,001,201751,
AFNE23.JPG,AFNE24.JPG,AFNE22.JPG,AFSA24.JPG,AFSA22.JPG,AFSA23.JPG,0,4,4,8,,,,,,,,,,,,,,,,,,,,,,,AFSA11.jpg,AFNE16.jpg,AFSA03.jpg,AFNE07.jpg,AFNE16.jpg,FN,3,num_6,32,num_8,2.11666642613,,,2017_Oct_20_1148,60.0016743144,FEMA4ImagesEEG,001,201751,
AFSA25.JPG,AFNE24.JPG,AFSA24.JPG,AFNE21.JPG,AFSA21.JPG,AFNE25.JPG,0,5,5,2,,,,,,,,,,,,,,,,,,,,,,,AFSA18.jpg,AFSA13.jpg,AFNE12.jpg,AFNE03.jpg,AFNE12.jpg,FN,3,num_2,16,num_2,1.88339900473,,,2017_Oct_20_1148,60.0016743144,FEMA4ImagesEEG,001,201751,
AMNE22.JPG,AMSA24.JPG,AMSA22.JPG,AMNE25.JPG,AMNE24.JPG,AMSA25.JPG,0,6,6,7,,,,,,,,,,,,,,,,,,,,,,,AFNE06.jpg,AFSA09.jpg,AFSA14.jpg,AFNE09.jpg,AFNE06.jpg,FN,3,num_8,16,num_8,1.03344254513,,,2017_Oct_20_1148,60.0016743144,FEMA4ImagesEEG,001,201751,
AFNE22.JPG,AFSA24.JPG,AFSA22.JPG,AFNE25.JPG,AFNE24.JPG,AFSA25.JPG,0,7,7,6,,,,,,,,,,,,,,,,,,,,,,,AFNE16.jpg,AFSA07.jpg,AFNE07.jpg,AFSA14.jpg,AFSA07.jpg,FS,4,num_6,32,num_2,3.65000360832,,,2017_Oct_20_1148,60.0016743144,FEMA4ImagesEEG,001,201751,
AMNE23.JPG,AMNE24.JPG,AMNE22.JPG,AMSA24.JPG,AMSA22.JPG,AMSA23.JPG,0,8,8,9,,,,,,,,,,,,,,,,,,,,,,,AFSA17.jpg,AFNE01.jpg,AFSA04.jpg,AFNE14.jpg,AFSA17.jpg,FS,4,num_8,32,num_4,2.74999254281,,,2017_Oct_20_1148,60.0016743144,FEMA4ImagesEEG,001,201751,
AMSA25.JPG,AMNE24.JPG,AMSA24.JPG,AMNE26.JPG,AMSA21.JPG,AMNE25.JPG,0,9,9,3,,,,,,,,,,,,,,,,,,,,,,,AFNE02.jpg,AFSA10.jpg,AFNE13.jpg,AFSA03.jpg,AFSA03.jpg,FS,4,num_4,16,num_4,1.20008916556,,,2017_Oct_20_1148,60.0016743144,FEMA4ImagesEEG,001,201751,
AFSA21.JPG,AFNE23.JPG,AFNE21.JPG,AFSA25.JPG,AFNE25.JPG,AFSA23.JPG,,,,,0,0,0,4,,,,,,,,,,,,,,,,,,,AMNE13.jpg,AMSA01.jpg,AMSA03.jpg,AMNE18.jpg,AMSA01.jpg,MS,2,num_6,32,num_2,0.850093094632,,,2017_Oct_20_1148,60.0016743144,FEMA4ImagesEEG,001,201751,
AFSA25.JPG,AFNE24.JPG,AFSA24.JPG,AFNE21.JPG,AFSA21.JPG,AFNE25.JPG,,,,,0,1,1,2,,,,,,,,,,,,,,,,,,,AMSA04.jpg,AMSA10.jpg,AMNE04.jpg,AMNE13.jpg,AMSA04.jpg,MS,2,num_8,16,num_8,0.983548950462,,,2017_Oct_20_1148,60.0016743144,FEMA4ImagesEEG,001,201751,
AFNE22.JPG,AFSA24.JPG,AFSA22.JPG,AFNE25.JPG,AFNE24.JPG,AFSA25.JPG,,,,,0,2,2,6,,,,,,,,,,,,,,,,,,,AMSA07.jpg,AMNE18.jpg,AMSA19.jpg,AMNE04.jpg,AMNE18.jpg,MN,1,num_6,16,num_6,1.26677218999,,,2017_Oct_20_1148,60.0016743144,FEMA4ImagesEEG,001,201751,
AMNE23.JPG,AMNE24.JPG,AMNE22.JPG,AMSA24.JPG,AMSA22.JPG,AMSA23.JPG,,,,,0,3,3,9,,,,,,,,,,,,,,,,,,,AMSA08.jpg,AMNE09.jpg,AMSA02.jpg,AMNE14.jpg,AMSA02.jpg,MS,2,num_2,16,num_2,0.783459464146,,,2017_Oct_20_1148,60.0016743144,FEMA4ImagesEEG,001,201751,
AMSA21.JPG,AMNE22.JPG,AMNE21.JPG,AMSA23.JPG,AMSA22.JPG,AMNE23.JPG,,,,,0,4,4,1,,,,,,,,,,,,,,,,,,,AMSA10.jpg,AMSA20.jpg,AMNE15.jpg,AMNE12.jpg,AMSA10.jpg,MS,2,num_8,32,num_2,0.816769543861,,,2017_Oct_20_1148,60.0016743144,FEMA4ImagesEEG,001,201751,
AFSA21.JPG,AFNE22.JPG,AFNE21.JPG,AFSA23.JPG,AFSA22.JPG,AFNE23.JPG,,,,,0,5,5,0,,,,,,,,,,,,,,,,,,,AMNE15.jpg,AMSA19.jpg,AMSA16.jpg,AMNE06.jpg,AMNE15.jpg,MN,1,num_8,32,num_4,1.99971871148,,,2017_Oct_20_1148,60.0016743144,FEMA4ImagesEEG,001,201751,
AMSA21.JPG,AMNE23.JPG,AMNE21.JPG,AMSA25.JPG,AMNE25.JPG,AMSA23.JPG,,,,,0,6,6,5,,,,,,,,,,,,,,,,,,,AMNE06.jpg,AMSA17.jpg,AMNE16.jpg,AMSA20.jpg,AMNE16.jpg,MN,1,num_2,32,num_6,1.08340894763,,,2017_Oct_20_1148,60.0016743144,FEMA4ImagesEEG,001,201751,
AMSA25.JPG,AMNE24.JPG,AMSA24.JPG,AMNE26.JPG,AMSA21.JPG,AMNE25.JPG,,,,,0,7,7,3,,,,,,,,,,,,,,,,,,,AMNE04.jpg,AMSA08.jpg,AMNE16.jpg,AMSA16.jpg,AMSA08.jpg,MS,2,num_6,32,num_8,2.88329155702,,,2017_Oct_20_1148,60.0016743144,FEMA4ImagesEEG,001,201751,
AFNE23.JPG,AFNE24.JPG,AFNE22.JPG,AFSA24.JPG,AFSA22.JPG,AFSA23.JPG,,,,,0,8,8,8,,,,,,,,,,,,,,,,,,,AMSA20.jpg,AMNE14.jpg,AMNE05.jpg,AMSA15.jpg,AMSA15.jpg,MS,2,num_4,16,num_4,0.950161572546,,,2017_Oct_20_1148,60.0016743144,FEMA4ImagesEEG,001,201751,
AMNE22.JPG,AMSA24.JPG,AMSA22.JPG,AMNE25.JPG,AMNE24.JPG,AMSA25.JPG,,,,,0,9,9,7,,,,,,,,,,,,,,,,,,,AMSA16.jpg,AMNE12.jpg,AMNE11.jpg,AMSA02.jpg,AMNE12.jpg,MN,1,num_6,32,num_8,1.55004931369,,,2017_Oct_20_1148,60.0016743144,FEMA4ImagesEEG,001,201751,
AMSA25.JPG,AMNE24.JPG,AMSA24.JPG,AMNE26.JPG,AMSA21.JPG,AMNE25.JPG,,,,,,,,,0,0,0,3,,,,,,,,,,,,,,,AFSA12.jpg,AFNE17.jpg,AFNE18.jpg,AFSA16.jpg,AFSA12.jpg,FS,4,num_8,16,num_8,2.98330230179,,,2017_Oct_20_1148,60.0016743144,FEMA4ImagesEEG,001,201751,
AFSA21.JPG,AFNE22.JPG,AFNE21.JPG,AFSA23.JPG,AFSA22.JPG,AFNE23.JPG,,,,,,,,,0,1,1,0,,,,,,,,,,,,,,,AFSA04.jpg,AFSA09.jpg,AFNE11.jpg,AFNE16.jpg,AFSA09.jpg,FS,4,num_6,32,num_8,1.15010448085,,,2017_Oct_20_1148,60.0016743144,FEMA4ImagesEEG,001,201751,
AFSA25.JPG,AFNE24.JPG,AFSA24.JPG,AFNE21.JPG,AFSA21.JPG,AFNE25.JPG,,,,,,,,,0,2,2,2,,,,,,,,,,,,,,,AFNE12.jpg,AFNE13.jpg,AFSA02.jpg,AFSA05.jpg,AFSA02.jpg,FS,4,num_2,16,num_2,3.03326036507,,,2017_Oct_20_1148,60.0016743144,FEMA4ImagesEEG,001,201751,
AFNE22.JPG,AFSA24.JPG,AFSA22.JPG,AFNE25.JPG,AFNE24.JPG,AFSA25.JPG,,,,,,,,,0,3,3,6,,,,,,,,,,,,,,,AFNE08.jpg,AFSA12.jpg,AFNE04.jpg,AFSA11.jpg,AFSA11.jpg,FS,4,num_4,16,num_4,1.06675358705,,,2017_Oct_20_1148,60.0016743144,FEMA4ImagesEEG,001,201751,
AMSA21.JPG,AMNE23.JPG,AMNE21.JPG,AMSA25.JPG,AMNE25.JPG,AMSA23.JPG,,,,,,,,,0,4,4,5,,,,,,,,,,,,,,,AFSA06.jpg,AFSA08.jpg,AFNE16.jpg,AFNE18.jpg,AFSA08.jpg,FS,4,num_6,32,num_8,2.36663860199,,,2017_Oct_20_1148,60.0016743144,FEMA4ImagesEEG,001,201751,
AMNE22.JPG,AMSA24.JPG,AMSA22.JPG,AMNE25.JPG,AMNE24.JPG,AMSA25.JPG,,,,,,,,,0,5,5,7,,,,,,,,,,,,,,,AFSA05.jpg,AFSA17.jpg,AFNE18.jpg,AFNE04.jpg,AFSA17.jpg,FS,4,num_6,16,num_6,1.81665664352,,,2017_Oct_20_1148,60.0016743144,FEMA4ImagesEEG,001,201751,
AFSA21.JPG,AFNE23.JPG,AFNE21.JPG,AFSA25.JPG,AFNE25.JPG,AFSA23.JPG,,,,,,,,,0,6,6,4,,,,,,,,,,,,,,,AFNE01.jpg,AFSA19.jpg,AFNE15.jpg,AFSA13.jpg,AFNE01.jpg,FN,3,num_8,16,num_8,1.15006470919,,,2017_Oct_20_1148,60.0016743144,FEMA4ImagesEEG,001,201751,
AFNE23.JPG,AFNE24.JPG,AFNE22.JPG,AFSA24.JPG,AFSA22.JPG,AFSA23.JPG,,,,,,,,,0,7,7,8,,,,,,,,,,,,,,,AFNE10.jpg,AFSA03.jpg,AFNE06.jpg,AFSA05.jpg,AFSA05.jpg,FS,4,num_4,16,num_4,0.616840106552,,,2017_Oct_20_1148,60.0016743144,FEMA4ImagesEEG,001,201751,
AMSA21.JPG,AMNE22.JPG,AMNE21.JPG,AMSA23.JPG,AMSA22.JPG,AMNE23.JPG,,,,,,,,,0,8,8,1,,,,,,,,,,,,,,,AFNE12.jpg,AFSA17.jpg,AFSA09.jpg,AFNE17.jpg,AFSA17.jpg,FS,4,num_6,16,num_6,3.99988934491,,,2017_Oct_20_1148,60.0016743144,FEMA4ImagesEEG,001,201751,
AMNE23.JPG,AMNE24.JPG,AMNE22.JPG,AMSA24.JPG,AMSA22.JPG,AMSA23.JPG,,,,,,,,,0,9,9,9,,,,,,,,,,,,,,,AFNE12.jpg,AFSA13.jpg,AFSA04.jpg,AFNE04.jpg,AFSA04.jpg,FS,4,num_2,16,num_2,0.749973619182,,,2017_Oct_20_1148,60.0016743144,FEMA4ImagesEEG,001,201751,
AMSA21.JPG,AMNE23.JPG,AMNE21.JPG,AMSA25.JPG,AMNE25.JPG,AMSA23.JPG,,,,,,,,,,,,,0,0,0,5,,,,,,,,,,,AMSA11.jpg,AMSA14.jpg,AMNE19.jpg,AMNE16.jpg,AMNE16.jpg,MN,1,num_4,16,num_4,0.800198858487,,,2017_Oct_20_1148,60.0016743144,FEMA4ImagesEEG,001,201751,
AFSA21.JPG,AFNE23.JPG,AFNE21.JPG,AFSA25.JPG,AFNE25.JPG,AFSA23.JPG,,,,,,,,,,,,,0,1,1,4,,,,,,,,,,,AMSA12.jpg,AMSA06.jpg,AMNE01.jpg,AMNE18.jpg,AMSA12.jpg,MS,2,num_8,16,num_8,1.28340830619,,,2017_Oct_20_1148,60.0016743144,FEMA4ImagesEEG,001,201751,
AFSA21.JPG,AFNE22.JPG,AFNE21.JPG,AFSA23.JPG,AFSA22.JPG,AFNE23.JPG,,,,,,,,,,,,,0,2,2,0,,,,,,,,,,,AMNE04.jpg,AMSA10.jpg,AMNE12.jpg,AMSA02.jpg,AMNE12.jpg,MN,1,num_2,32,num_8,2.71669753786,,,2017_Oct_20_1148,60.0016743144,FEMA4ImagesEEG,001,201751,
AMSA25.JPG,AMNE24.JPG,AMSA24.JPG,AMNE26.JPG,AMSA21.JPG,AMNE25.JPG,,,,,,,,,,,,,0,3,3,3,,,,,,,,,,,AMSA17.jpg,AMNE01.jpg,AMNE14.jpg,AMSA10.jpg,AMSA10.jpg,MS,2,num_4,16,num_4,2.68325563415,,,2017_Oct_20_1148,60.0016743144,FEMA4ImagesEEG,001,201751,
AMNE22.JPG,AMSA24.JPG,AMSA22.JPG,AMNE25.JPG,AMNE24.JPG,AMSA25.JPG,,,,,,,,,,,,,0,4,4,7,,,,,,,,,,,AMNE20.jpg,AMSA08.jpg,AMSA15.jpg,AMNE07.jpg,AMNE20.jpg,MN,1,num_8,32,num_4,1.28343139944,,,2017_Oct_20_1148,60.0016743144,FEMA4ImagesEEG,001,201751,
AFNE22.JPG,AFSA24.JPG,AFSA22.JPG,AFNE25.JPG,AFNE24.JPG,AFSA25.JPG,,,,,,,,,,,,,0,5,5,6,,,,,,,,,,,AMSA03.jpg,AMNE20.jpg,AMSA08.jpg,AMNE16.jpg,AMNE20.jpg,MN,1,num_6,16,num_6,1.21690617886,,,2017_Oct_20_1148,60.0016743144,FEMA4ImagesEEG,001,201751,
AFNE23.JPG,AFNE24.JPG,AFNE22.JPG,AFSA24.JPG,AFSA22.JPG,AFSA23.JPG,,,,,,,,,,,,,0,6,6,8,,,,,,,,,,,AMSA02.jpg,AMSA20.jpg,AMNE17.jpg,AMNE11.jpg,AMSA20.jpg,MS,2,num_6,32,num_2,1.3332752795,,,2017_Oct_20_1148,60.0016743144,FEMA4ImagesEEG,001,201751,
AFSA25.JPG,AFNE24.JPG,AFSA24.JPG,AFNE21.JPG,AFSA21.JPG,AFNE25.JPG,,,,,,,,,,,,,0,7,7,2,,,,,,,,,,,AMNE14.jpg,AMSA15.jpg,AMNE19.jpg,AMSA08.jpg,AMSA08.jpg,MS,2,num_4,16,num_4,0.500266053423,,,2017_Oct_20_1148,60.0016743144,FEMA4ImagesEEG,001,201751,
AMSA21.JPG,AMNE22.JPG,AMNE21.JPG,AMSA23.JPG,AMSA22.JPG,AMNE23.JPG,,,,,,,,,,,,,0,8,8,1,,,,,,,,,,,AMSA19.jpg,AMNE03.jpg,AMNE09.jpg,AMSA08.jpg,AMSA08.jpg,MS,2,num_4,16,num_4,0.666774435143,,,2017_Oct_20_1148,60.0016743144,FEMA4ImagesEEG,001,201751,
AMNE23.JPG,AMNE24.JPG,AMNE22.JPG,AMSA24.JPG,AMSA22.JPG,AMSA23.JPG,,,,,,,,,,,,,0,9,9,9,,,,,,,,,,,AMSA04.jpg,AMSA07.jpg,AMNE16.jpg,AMNE13.jpg,AMNE16.jpg,MN,1,num_2,16,num_2,1.31674789393,,,2017_Oct_20_1148,60.0016743144,FEMA4ImagesEEG,001,201751,
AFSA21.JPG,AFNE23.JPG,AFNE21.JPG,AFSA25.JPG,AFNE25.JPG,AFSA23.JPG,,,,,,,,,,,,,,,,,0,0,0,4,,,,,,,AFSA08.jpg,AFSA07.jpg,AFNE05.jpg,AFNE04.jpg,AFSA07.jpg,FS,4,num_6,32,num_2,3.06656595448,,,2017_Oct_20_1148,60.0016743144,FEMA4ImagesEEG,001,201751,
AMSA21.JPG,AMNE23.JPG,AMNE21.JPG,AMSA25.JPG,AMNE25.JPG,AMSA23.JPG,,,,,,,,,,,,,,,,,0,1,1,5,,,,,,,AFSA18.jpg,AFNE16.jpg,AFSA01.jpg,AFNE06.jpg,AFSA01.jpg,FS,4,num_2,16,num_2,3.46689246729,,,2017_Oct_20_1148,60.0016743144,FEMA4ImagesEEG,001,201751,
AMNE23.JPG,AMNE24.JPG,AMNE22.JPG,AMSA24.JPG,AMSA22.JPG,AMSA23.JPG,,,,,,,,,,,,,,,,,0,2,2,9,,,,,,,AFSA08.jpg,AFNE18.jpg,AFNE05.jpg,AFSA05.jpg,AFNE18.jpg,FN,3,num_6,32,num_4,2.68362127722,,,2017_Oct_20_1148,60.0016743144,FEMA4ImagesEEG,001,201751,
AFSA21.JPG,AFNE22.JPG,AFNE21.JPG,AFSA23.JPG,AFSA22.JPG,AFNE23.JPG,,,,,,,,,,,,,,,,,0,3,3,0,,,,,,,AFSA20.jpg,AFNE07.jpg,AFNE18.jpg,AFSA08.jpg,AFNE18.jpg,FN,3,num_2,16,num_2,0.800134389836,,,2017_Oct_20_1148,60.0016743144,FEMA4ImagesEEG,001,201751,
AMSA25.JPG,AMNE24.JPG,AMSA24.JPG,AMNE26.JPG,AMSA21.JPG,AMNE25.JPG,,,,,,,,,,,,,,,,,0,4,4,3,,,,,,,AFNE02.jpg,AFSA05.jpg,AFNE11.jpg,AFSA09.jpg,AFNE11.jpg,FN,3,num_2,32,num_4,1.91667155799,,,2017_Oct_20_1148,60.0016743144,FEMA4ImagesEEG,001,201751,
AMSA21.JPG,AMNE22.JPG,AMNE21.JPG,AMSA23.JPG,AMSA22.JPG,AMNE23.JPG,,,,,,,,,,,,,,,,,0,5,5,1,,,,,,,AFNE09.jpg,AFSA13.jpg,AFSA14.jpg,AFNE19.jpg,AFSA13.jpg,FS,4,num_6,32,num_2,3.10013166361,,,2017_Oct_20_1148,60.0016743144,FEMA4ImagesEEG,001,201751,
AMNE22.JPG,AMSA24.JPG,AMSA22.JPG,AMNE25.JPG,AMNE24.JPG,AMSA25.JPG,,,,,,,,,,,,,,,,,0,6,6,7,,,,,,,AFNE09.jpg,AFNE13.jpg,AFSA10.jpg,AFSA06.jpg,AFNE09.jpg,FN,3,num_8,16,num_8,1.55010287714,,,2017_Oct_20_1148,60.0016743144,FEMA4ImagesEEG,001,201751,
AFNE22.JPG,AFSA24.JPG,AFSA22.JPG,AFNE25.JPG,AFNE24.JPG,AFSA25.JPG,,,,,,,,,,,,,,,,,0,7,7,6,,,,,,,AFSA01.jpg,AFNE17.jpg,AFNE03.jpg,AFSA12.jpg,AFNE03.jpg,FN,3,num_2,32,num_6,1.08348688734,,,2017_Oct_20_1148,60.0016743144,FEMA4ImagesEEG,001,201751,
AFNE23.JPG,AFNE24.JPG,AFNE22.JPG,AFSA24.JPG,AFSA22.JPG,AFSA23.JPG,,,,,,,,,,,,,,,,,0,8,8,8,,,,,,,AFNE05.jpg,AFNE17.jpg,AFSA17.jpg,AFSA11.jpg,AFNE17.jpg,FN,3,num_6,16,num_6,1.30007713783,,,2017_Oct_20_1148,60.0016743144,FEMA4ImagesEEG,001,201751,
AFSA25.JPG,AFNE24.JPG,AFSA24.JPG,AFNE21.JPG,AFSA21.JPG,AFNE25.JPG,,,,,,,,,,,,,,,,,0,9,9,2,,,,,,,AFNE20.jpg,AFSA19.jpg,AFNE12.jpg,AFSA18.jpg,AFNE12.jpg,FN,3,num_2,16,num_2,0.800116107741,,,2017_Oct_20_1148,60.0016743144,FEMA4ImagesEEG,001,201751,
AFSA25.JPG,AFNE24.JPG,AFSA24.JPG,AFNE21.JPG,AFSA21.JPG,AFNE25.JPG,,,,,,,,,,,,,,,,,,,,,0,0,0,2,,,AMNE13.jpg,AMNE06.jpg,AMSA09.jpg,AMSA04.jpg,AMNE13.jpg,MN,1,num_8,16,num_8,1.45007000136,,,2017_Oct_20_1148,60.0016743144,FEMA4ImagesEEG,001,201751,
AMNE22.JPG,AMSA24.JPG,AMSA22.JPG,AMNE25.JPG,AMNE24.JPG,AMSA25.JPG,,,,,,,,,,,,,,,,,,,,,0,1,1,7,,,AMSA14.jpg,AMSA12.jpg,AMNE15.jpg,AMNE03.jpg,AMSA14.jpg,MS,2,num_8,32,num_6,2.55012436677,,,2017_Oct_20_1148,60.0016743144,FEMA4ImagesEEG,001,201751,
AFNE23.JPG,AFNE24.JPG,AFNE22.JPG,AFSA24.JPG,AFSA22.JPG,AFSA23.JPG,,,,,,,,,,,,,,,,,,,,,0,2,2,8,,,AMSA03.jpg,AMNE14.jpg,AMNE10.jpg,AMSA17.jpg,AMNE10.jpg,MN,1,num_2,32,num_6,3.93319926423,,,2017_Oct_20_1148,60.0016743144,FEMA4ImagesEEG,001,201751,
AFSA21.JPG,AFNE23.JPG,AFNE21.JPG,AFSA25.JPG,AFNE25.JPG,AFSA23.JPG,,,,,,,,,,,,,,,,,,,,,0,3,3,4,,,AMSA07.jpg,AMNE11.jpg,AMNE13.jpg,AMSA06.jpg,AMSA06.jpg,MS,2,num_4,16,num_4,0.616863520525,,,2017_Oct_20_1148,60.0016743144,FEMA4ImagesEEG,001,201751,
AFSA21.JPG,AFNE22.JPG,AFNE21.JPG,AFSA23.JPG,AFSA22.JPG,AFNE23.JPG,,,,,,,,,,,,,,,,,,,,,0,4,4,0,,,AMNE07.jpg,AMNE09.jpg,AMSA08.jpg,AMSA19.jpg,AMNE07.jpg,MN,1,num_8,16,num_8,2.19999967929,,,2017_Oct_20_1148,60.0016743144,FEMA4ImagesEEG,001,201751,
AFNE22.JPG,AFSA24.JPG,AFSA22.JPG,AFNE25.JPG,AFNE24.JPG,AFSA25.JPG,,,,,,,,,,,,,,,,,,,,,0,5,5,6,,,AMSA15.jpg,AMSA14.jpg,AMNE08.jpg,AMNE11.jpg,AMSA15.jpg,MS,2,num_8,16,num_8,1.88351511245,,,2017_Oct_20_1148,60.0016743144,FEMA4ImagesEEG,001,201751,
AMNE23.JPG,AMNE24.JPG,AMNE22.JPG,AMSA24.JPG,AMSA22.JPG,AMSA23.JPG,,,,,,,,,,,,,,,,,,,,,0,6,6,9,,,AMSA16.jpg,AMSA08.jpg,AMNE17.jpg,AMNE01.jpg,AMSA16.jpg,MS,2,num_8,32,num_2,3.23327191174,,,2017_Oct_20_1148,60.0016743144,FEMA4ImagesEEG,001,201751,
AMSA25.JPG,AMNE24.JPG,AMSA24.JPG,AMNE26.JPG,AMSA21.JPG,AMNE25.JPG,,,,,,,,,,,,,,,,,,,,,0,7,7,3,,,AMNE15.jpg,AMSA08.jpg,AMNE13.jpg,AMSA05.jpg,AMNE15.jpg,MN,1,num_8,16,num_8,1.4167009056,,,2017_Oct_20_1148,60.0016743144,FEMA4ImagesEEG,001,201751,
AMSA21.JPG,AMNE22.JPG,AMNE21.JPG,AMSA23.JPG,AMSA22.JPG,AMNE23.JPG,,,,,,,,,,,,,,,,,,,,,0,8,8,1,,,AMNE05.jpg,AMNE11.jpg,AMSA01.jpg,AMSA06.jpg,AMNE05.jpg,MN,1,num_8,32,num_4,2.58331032027,,,2017_Oct_20_1148,60.0016743144,FEMA4ImagesEEG,001,201751,
AMSA21.JPG,AMNE23.JPG,AMNE21.JPG,AMSA25.JPG,AMNE25.JPG,AMSA23.JPG,,,,,,,,,,,,,,,,,,,,,0,9,9,5,,,AMSA04.jpg,AMNE14.jpg,AMSA16.jpg,AMNE01.jpg,AMNE01.jpg,MN,1,num_4,16,num_4,0.833319701895,,,2017_Oct_20_1148,60.0016743144,FEMA4ImagesEEG,001,201751,
,,,,,,,,,,,,,,,,,,,,,,,,,,,,,,,,,,,,,,,,,,,space,20.5152436257,2017_Oct_20_1148,60.0016743144,FEMA4ImagesEEG,001,201751,
AFNE01.JPG,AFNE01.JPG,AFNE01.JPG,AFNE01.JPG,AFNE01.JPG,AFNE01.JPG,0,0,0,0,,,,,,,,,,,,,,,,,,,,,,,AFNE13.jpg,AFNE05.jpg,AFSA04.jpg,AFSA02.jpg,AFNE13.jpg,FN,3,num_8,16,num_8,1.38346074708,,,2017_Oct_20_1148,60.0016743144,FEMA4ImagesEEG,001,201751,
AFNE01.JPG,AFNE01.JPG,AFNE01.JPG,AFNE01.JPG,AFNE01.JPG,AFNE01.JPG,0,1,1,6,,,,,,,,,,,,,,,,,,,,,,,AFSA10.jpg,AFNE19.jpg,AFNE13.jpg,AFSA05.jpg,AFSA10.jpg,FS,4,num_8,32,num_4,1.28338489222,,,2017_Oct_20_1148,60.0016743144,FEMA4ImagesEEG,001,201751,
AFNE01.JPG,AFNE01.JPG,AFNE01.JPG,AFNE01.JPG,AFNE01.JPG,AFNE01.JPG,0,2,2,4,,,,,,,,,,,,,,,,,,,,,,,AFSA11.jpg,AFSA08.jpg,AFNE13.jpg,AFNE20.jpg,AFNE20.jpg,FN,3,num_4,16,num_4,0.700143530907,,,2017_Oct_20_1148,60.0016743144,FEMA4ImagesEEG,001,201751,
AFNE01.JPG,AFNE01.JPG,AFNE01.JPG,AFNE01.JPG,AFNE01.JPG,AFNE01.JPG,0,3,3,1,,,,,,,,,,,,,,,,,,,,,,,AFNE15.jpg,AFNE07.jpg,AFSA10.jpg,AFSA09.jpg,AFSA10.jpg,FS,4,num_2,32,num_8,1.08339708031,,,2017_Oct_20_1148,60.0016743144,FEMA4ImagesEEG,001,201751,
AFNE01.JPG,AFNE01.JPG,AFNE01.JPG,AFNE01.JPG,AFNE01.JPG,AFNE01.JPG,0,4,4,5,,,,,,,,,,,,,,,,,,,,,,,AFSA18.jpg,AFNE10.jpg,AFNE17.jpg,AFSA17.jpg,AFSA17.jpg,FS,4,num_4,16,num_4,1.26667115703,,,2017_Oct_20_1148,60.0016743144,FEMA4ImagesEEG,001,201751,
AFNE01.JPG,AFNE01.JPG,AFNE01.JPG,AFNE01.JPG,AFNE01.JPG,AFNE01.JPG,0,5,5,7,,,,,,,,,,,,,,,,,,,,,,,AFNE01.jpg,AFSA04.jpg,AFSA06.jpg,AFNE07.jpg,AFSA06.jpg,FS,4,num_2,16,num_2,3.49993633322,,,2017_Oct_20_1148,60.0016743144,FEMA4ImagesEEG,001,201751,
AFNE01.JPG,AFNE01.JPG,AFNE01.JPG,AFNE01.JPG,AFNE01.JPG,AFNE01.JPG,0,6,6,2,,,,,,,,,,,,,,,,,,,,,,,AFNE20.jpg,AFSA12.jpg,AFSA01.jpg,AFNE05.jpg,AFNE20.jpg,FN,3,num_8,32,num_6,3.18328466115,,,2017_Oct_20_1148,60.0016743144,FEMA4ImagesEEG,001,201751,
AFNE01.JPG,AFNE01.JPG,AFNE01.JPG,AFNE01.JPG,AFNE01.JPG,AFNE01.JPG,0,7,7,8,,,,,,,,,,,,,,,,,,,,,,,AFNE15.jpg,AFSA06.jpg,AFNE18.jpg,AFSA08.jpg,AFSA08.jpg,FS,4,num_4,16,num_4,0.966780689603,,,2017_Oct_20_1148,60.0016743144,FEMA4ImagesEEG,001,201751,
AFNE01.JPG,AFNE01.JPG,AFNE01.JPG,AFNE01.JPG,AFNE01.JPG,AFNE01.JPG,0,8,8,3,,,,,,,,,,,,,,,,,,,,,,,AFSA17.jpg,AFNE03.jpg,AFSA14.jpg,AFNE16.jpg,AFSA14.jpg,FS,4,num_2,32,num_4,0.866764171515,,,2017_Oct_20_1148,60.0016743144,FEMA4ImagesEEG,001,201751,
AFNE01.JPG,AFNE01.JPG,AFNE01.JPG,AFNE01.JPG,AFNE01.JPG,AFNE01.JPG,0,9,9,9,,,,,,,,,,,,,,,,,,,,,,,AFNE15.jpg,AFSA07.jpg,AFSA03.jpg,AFNE02.jpg,AFSA03.jpg,FS,4,num_2,32,num_4,0.783497311408,,,2017_Oct_20_1148,60.0016743144,FEMA4ImagesEEG,001,201751,
AFNE01.JPG,AFNE01.JPG,AFNE01.JPG,AFNE01.JPG,AFNE01.JPG,AFNE01.JPG,1,0,10,1,,,,,,,,,,,,,,,,,,,,,,,AFNE03.jpg,AFSA02.jpg,AFNE09.jpg,AFSA13.jpg,AFSA02.jpg,FS,4,num_6,32,num_4,0.900114664342,,,2017_Oct_20_1148,60.0016743144,FEMA4ImagesEEG,001,201751,
AFNE01.JPG,AFNE01.JPG,AFNE01.JPG,AFNE01.JPG,AFNE01.JPG,AFNE01.JPG,1,1,11,2,,,,,,,,,,,,,,,,,,,,,,,AFNE16.jpg,AFSA18.jpg,AFSA20.jpg,AFNE14.jpg,AFNE14.jpg,FN,3,num_4,16,num_4,0.633472694666,,,2017_Oct_20_1148,60.0016743144,FEMA4ImagesEEG,001,201751,
AFNE01.JPG,AFNE01.JPG,AFNE01.JPG,AFNE01.JPG,AFNE01.JPG,AFNE01.JPG,1,2,12,8,,,,,,,,,,,,,,,,,,,,,,,AFNE15.jpg,AFNE11.jpg,AFSA05.jpg,AFSA03.jpg,AFSA03.jpg,FS,4,num_4,16,num_4,2.41662264516,,,2017_Oct_20_1148,60.0016743144,FEMA4ImagesEEG,001,201751,
AFNE01.JPG,AFNE01.JPG,AFNE01.JPG,AFNE01.JPG,AFNE01.JPG,AFNE01.JPG,1,3,13,5,,,,,,,,,,,,,,,,,,,,,,,AFNE14.jpg,AFSA12.jpg,AFNE08.jpg,AFSA16.jpg,AFSA16.jpg,FS,4,num_4,16,num_4,1.48343621049,,,2017_Oct_20_1148,60.0016743144,FEMA4ImagesEEG,001,201751,
AFNE01.JPG,AFNE01.JPG,AFNE01.JPG,AFNE01.JPG,AFNE01.JPG,AFNE01.JPG,1,4,14,6,,,,,,,,,,,,,,,,,,,,,,,AFNE02.jpg,AFNE18.jpg,AFSA14.jpg,AFSA17.jpg,AFSA17.jpg,FS,4,num_4,16,num_4,2.24999655207,,,2017_Oct_20_1148,60.0016743144,FEMA4ImagesEEG,001,201751,
AFNE01.JPG,AFNE01.JPG,AFNE01.JPG,AFNE01.JPG,AFNE01.JPG,AFNE01.JPG,1,5,15,4,,,,,,,,,,,,,,,,,,,,,,,AFNE07.jpg,AFSA16.jpg,AFNE01.jpg,AFSA09.jpg,AFNE01.jpg,FN,3,num_2,16,num_2,1.93334487994,,,2017_Oct_20_1148,60.0016743144,FEMA4ImagesEEG,001,201751,
AFNE01.JPG,AFNE01.JPG,AFNE01.JPG,AFNE01.JPG,AFNE01.JPG,AFNE01.JPG,1,6,16,7,,,,,,,,,,,,,,,,,,,,,,,AFNE01.jpg,AFSA20.jpg,AFNE10.jpg,AFSA09.jpg,AFNE01.jpg,FN,3,num_8,32,num_2,0.966795764281,,,2017_Oct_20_1148,60.0016743144,FEMA4ImagesEEG,001,201751,
AFNE01.JPG,AFNE01.JPG,AFNE01.JPG,AFNE01.JPG,AFNE01.JPG,AFNE01.JPG,1,7,17,0,,,,,,,,,,,,,,,,,,,,,,,AFSA12.jpg,AFSA20.jpg,AFNE12.jpg,AFNE17.jpg,AFNE12.jpg,FN,3,num_2,16,num_2,1.28330727323,,,2017_Oct_20_1148,60.0016743144,FEMA4ImagesEEG,001,201751,
AFNE01.JPG,AFNE01.JPG,AFNE01.JPG,AFNE01.JPG,AFNE01.JPG,AFNE01.JPG,1,8,18,9,,,,,,,,,,,,,,,,,,,,,,,AFSA17.jpg,AFSA05.jpg,AFNE10.jpg,AFNE17.jpg,AFSA17.jpg,FS,4,num_8,16,num_8,0.51679857081,,,2017_Oct_20_1148,60.0016743144,FEMA4ImagesEEG,001,201751,
AFNE01.JPG,AFNE01.JPG,AFNE01.JPG,AFNE01.JPG,AFNE01.JPG,AFNE01.JPG,1,9,19,3,,,,,,,,,,,,,,,,,,,,,,,AFSA18.jpg,AFSA01.jpg,AFNE08.jpg,AFNE04.jpg,AFSA01.jpg,FS,4,num_6,16,num_6,1.35008427425,,,2017_Oct_20_1148,60.0016743144,FEMA4ImagesEEG,001,201751,
AFNE01.JPG,AFNE01.JPG,AFNE01.JPG,AFNE01.JPG,AFNE01.JPG,AFNE01.JPG,2,0,20,7,,,,,,,,,,,,,,,,,,,,,,,AFSA07.jpg,AFSA02.jpg,AFNE20.jpg,AFNE09.jpg,AFNE09.jpg,FN,3,num_4,32,num_2,4.15021032491,,,2017_Oct_20_1148,60.0016743144,FEMA4ImagesEEG,001,201751,
AFNE01.JPG,AFNE01.JPG,AFNE01.JPG,AFNE01.JPG,AFNE01.JPG,AFNE01.JPG,2,1,21,3,,,,,,,,,,,,,,,,,,,,,,,AFSA08.jpg,AFSA14.jpg,AFNE01.jpg,AFNE07.jpg,AFNE01.jpg,FN,3,num_2,16,num_2,0.616809315514,,,2017_Oct_20_1148,60.0016743144,FEMA4ImagesEEG,001,201751,
AFNE01.JPG,AFNE01.JPG,AFNE01.JPG,AFNE01.JPG,AFNE01.JPG,AFNE01.JPG,2,2,22,6,,,,,,,,,,,,,,,,,,,,,,,AFSA15.jpg,AFSA20.jpg,AFNE06.jpg,AFNE07.jpg,AFSA15.jpg,FS,4,num_8,16,num_8,0.950081708375,,,2017_Oct_20_1148,60.0016743144,FEMA4ImagesEEG,001,201751,
AFNE01.JPG,AFNE01.JPG,AFNE01.JPG,AFNE01.JPG,AFNE01.JPG,AFNE01.JPG,2,3,23,4,,,,,,,,,,,,,,,,,,,,,,,AFNE18.jpg,AFSA12.jpg,AFNE08.jpg,AFSA18.jpg,AFSA12.jpg,FS,4,num_6,32,num_4,1.03338545351,,,2017_Oct_20_1148,60.0016743144,FEMA4ImagesEEG,001,201751,
AFNE01.JPG,AFNE01.JPG,AFNE01.JPG,AFNE01.JPG,AFNE01.JPG,AFNE01.JPG,2,4,24,8,,,,,,,,,,,,,,,,,,,,,,,AFNE07.jpg,AFNE12.jpg,AFSA16.jpg,AFSA04.jpg,AFSA04.jpg,FS,4,num_4,16,num_4,1.40003880946,,,2017_Oct_20_1148,60.0016743144,FEMA4ImagesEEG,001,201751,
AFNE01.JPG,AFNE01.JPG,AFNE01.JPG,AFNE01.JPG,AFNE01.JPG,AFNE01.JPG,2,5,25,1,,,,,,,,,,,,,,,,,,,,,,,AFSA18.jpg,AFSA02.jpg,AFNE20.jpg,AFNE10.jpg,AFSA02.jpg,FS,4,num_6,32,num_8,1.70004121505,,,2017_Oct_20_1148,60.0016743144,FEMA4ImagesEEG,001,201751,
AFNE01.JPG,AFNE01.JPG,AFNE01.JPG,AFNE01.JPG,AFNE01.JPG,AFNE01.JPG,2,6,26,2,,,,,,,,,,,,,,,,,,,,,,,AFNE20.jpg,AFSA03.jpg,AFNE11.jpg,AFSA19.jpg,AFNE11.jpg,FN,3,num_2,16,num_2,0.58343252202,,,2017_Oct_20_1148,60.0016743144,FEMA4ImagesEEG,001,201751,
AFNE01.JPG,AFNE01.JPG,AFNE01.JPG,AFNE01.JPG,AFNE01.JPG,AFNE01.JPG,2,7,27,5,,,,,,,,,,,,,,,,,,,,,,,AFSA05.jpg,AFNE10.jpg,AFSA04.jpg,AFNE06.jpg,AFSA05.jpg,FS,4,num_8,16,num_8,1.61669513234,,,2017_Oct_20_1148,60.0016743144,FEMA4ImagesEEG,001,201751,
AFNE01.JPG,AFNE01.JPG,AFNE01.JPG,AFNE01.JPG,AFNE01.JPG,AFNE01.JPG,2,8,28,9,,,,,,,,,,,,,,,,,,,,,,,AFSA04.jpg,AFNE08.jpg,AFNE11.jpg,AFSA02.jpg,AFSA04.jpg,FS,4,num_8,16,num_8,1.44969473616,,,2017_Oct_20_1148,60.0016743144,FEMA4ImagesEEG,001,201751,
AFNE01.JPG,AFNE01.JPG,AFNE01.JPG,AFNE01.JPG,AFNE01.JPG,AFNE01.JPG,2,9,29,0,,,,,,,,,,,,,,,,,,,,,,,AFNE14.jpg,AFSA15.jpg,AFNE01.jpg,AFSA14.jpg,AFSA14.jpg,FS,4,num_4,16,num_4,2.21668005752,,,2017_Oct_20_1148,60.0016743144,FEMA4ImagesEEG,001,201751,
AFNE01.JPG,AFNE01.JPG,AFNE01.JPG,AFNE01.JPG,AFNE01.JPG,AFNE01.JPG,3,0,30,6,,,,,,,,,,,,,,,,,,,,,,,AFNE16.jpg,AFSA10.jpg,AFNE05.jpg,AFSA01.jpg,AFSA10.jpg,FS,4,num_6,32,num_4,1.05014890333,,,2017_Oct_20_1148,60.0016743144,FEMA4ImagesEEG,001,201751,
AFNE01.JPG,AFNE01.JPG,AFNE01.JPG,AFNE01.JPG,AFNE01.JPG,AFNE01.JPG,3,1,31,1,,,,,,,,,,,,,,,,,,,,,,,AFSA17.jpg,AFNE11.jpg,AFNE03.jpg,AFSA20.jpg,AFSA17.jpg,FS,4,num_8,16,num_8,2.03336973727,,,2017_Oct_20_1148,60.0016743144,FEMA4ImagesEEG,001,201751,
AFNE01.JPG,AFNE01.JPG,AFNE01.JPG,AFNE01.JPG,AFNE01.JPG,AFNE01.JPG,3,2,32,9,,,,,,,,,,,,,,,,,,,,,,,AFSA15.jpg,AFNE19.jpg,AFSA17.jpg,AFNE12.jpg,AFNE12.jpg,FN,3,num_4,16,num_4,0.533458100981,,,2017_Oct_20_1148,60.0016743144,FEMA4ImagesEEG,001,201751,
AFNE01.JPG,AFNE01.JPG,AFNE01.JPG,AFNE01.JPG,AFNE01.JPG,AFNE01.JPG,3,3,33,0,,,,,,,,,,,,,,,,,,,,,,,AFNE06.jpg,AFSA06.jpg,AFSA16.jpg,AFNE02.jpg,AFNE06.jpg,FN,3,num_8,32,num_4,0.900120116945,,,2017_Oct_20_1148,60.0016743144,FEMA4ImagesEEG,001,201751,
AFNE01.JPG,AFNE01.JPG,AFNE01.JPG,AFNE01.JPG,AFNE01.JPG,AFNE01.JPG,3,4,34,5,,,,,,,,,,,,,,,,,,,,,,,AFNE20.jpg,AFSA04.jpg,AFNE07.jpg,AFSA01.jpg,AFNE20.jpg,FN,3,num_8,32,num_2,1.33341768786,,,2017_Oct_20_1148,60.0016743144,FEMA4ImagesEEG,001,201751,
AFNE01.JPG,AFNE01.JPG,AFNE01.JPG,AFNE01.JPG,AFNE01.JPG,AFNE01.JPG,3,5,35,4,,,,,,,,,,,,,,,,,,,,,,,AFNE06.jpg,AFSA03.jpg,AFNE16.jpg,AFSA16.jpg,AFSA16.jpg,FS,4,num_4,16,num_4,0.766746370413,,,2017_Oct_20_1148,60.0016743144,FEMA4ImagesEEG,001,201751,
AFNE01.JPG,AFNE01.JPG,AFNE01.JPG,AFNE01.JPG,AFNE01.JPG,AFNE01.JPG,3,6,36,7,,,,,,,,,,,,,,,,,,,,,,,AFSA19.jpg,AFNE16.jpg,AFNE14.jpg,AFSA06.jpg,AFNE14.jpg,FN,3,num_2,16,num_2,0.750136554823,,,2017_Oct_20_1148,60.0016743144,FEMA4ImagesEEG,001,201751,
AFNE01.JPG,AFNE01.JPG,AFNE01.JPG,AFNE01.JPG,AFNE01.JPG,AFNE01.JPG,3,7,37,8,,,,,,,,,,,,,,,,,,,,,,,AFSA09.jpg,AFNE17.jpg,AFNE04.jpg,AFSA12.jpg,AFSA09.jpg,FS,4,num_8,32,num_6,1.35003808781,,,2017_Oct_20_1148,60.0016743144,FEMA4ImagesEEG,001,201751,
AFNE01.JPG,AFNE01.JPG,AFNE01.JPG,AFNE01.JPG,AFNE01.JPG,AFNE01.JPG,3,8,38,3,,,,,,,,,,,,,,,,,,,,,,,AFSA06.jpg,AFSA09.jpg,AFNE08.jpg,AFNE10.jpg,AFSA06.jpg,FS,4,num_8,16,num_8,1.25010111317,,,2017_Oct_20_1148,60.0016743144,FEMA4ImagesEEG,001,201751,
AFNE01.JPG,AFNE01.JPG,AFNE01.JPG,AFNE01.JPG,AFNE01.JPG,AFNE01.JPG,3,9,39,2,,,,,,,,,,,,,,,,,,,,,,,AFSA13.jpg,AFNE01.jpg,AFSA17.jpg,AFNE02.jpg,AFNE02.jpg,FN,3,num_4,32,num_6,1.31672255549,,,2017_Oct_20_1148,60.0016743144,FEMA4ImagesEEG,001,201751,
AFNE01.JPG,AFNE01.JPG,AFNE01.JPG,AFNE01.JPG,AFNE01.JPG,AFNE01.JPG,4,0,40,3,,,,,,,,,,,,,,,,,,,,,,,AFSA19.jpg,AFNE06.jpg,AFNE05.jpg,AFSA02.jpg,AFSA19.jpg,FS,4,num_8,16,num_8,1.33338882128,,,2017_Oct_20_1148,60.0016743144,FEMA4ImagesEEG,001,201751,
AFNE01.JPG,AFNE01.JPG,AFNE01.JPG,AFNE01.JPG,AFNE01.JPG,AFNE01.JPG,4,1,41,2,,,,,,,,,,,,,,,,,,,,,,,AFSA18.jpg,AFNE11.jpg,AFNE20.jpg,AFSA03.jpg,AFSA18.jpg,FS,4,num_8,16,num_8,1.63342682889,,,2017_Oct_20_1148,60.0016743144,FEMA4ImagesEEG,001,201751,
AFNE01.JPG,AFNE01.JPG,AFNE01.JPG,AFNE01.JPG,AFNE01.JPG,AFNE01.JPG,4,2,42,6,,,,,,,,,,,,,,,,,,,,,,,AFNE06.jpg,AFSA01.jpg,AFNE02.jpg,AFSA13.jpg,AFNE06.jpg,FN,3,num_8,16,num_8,1.31673121545,,,2017_Oct_20_1148,60.0016743144,FEMA4ImagesEEG,001,201751,
AFNE01.JPG,AFNE01.JPG,AFNE01.JPG,AFNE01.JPG,AFNE01.JPG,AFNE01.JPG,4,3,43,0,,,,,,,,,,,,,,,,,,,,,,,AFNE04.jpg,AFNE10.jpg,AFSA02.jpg,AFSA12.jpg,AFSA02.jpg,FS,4,num_2,16,num_2,1.38343797461,,,2017_Oct_20_1148,60.0016743144,FEMA4ImagesEEG,001,201751,
AFNE01.JPG,AFNE01.JPG,AFNE01.JPG,AFNE01.JPG,AFNE01.JPG,AFNE01.JPG,4,4,44,5,,,,,,,,,,,,,,,,,,,,,,,AFSA08.jpg,AFSA14.jpg,AFNE03.jpg,AFNE04.jpg,AFSA14.jpg,FS,4,num_6,32,num_2,2.13337406726,,,2017_Oct_20_1148,60.0016743144,FEMA4ImagesEEG,001,201751,
AFNE01.JPG,AFNE01.JPG,AFNE01.JPG,AFNE01.JPG,AFNE01.JPG,AFNE01.JPG,4,5,45,1,,,,,,,,,,,,,,,,,,,,,,,AFNE09.jpg,AFSA05.jpg,AFSA10.jpg,AFNE03.jpg,AFNE09.jpg,FN,3,num_8,16,num_8,1.16673033347,,,2017_Oct_20_1148,60.0016743144,FEMA4ImagesEEG,001,201751,
AFNE01.JPG,AFNE01.JPG,AFNE01.JPG,AFNE01.JPG,AFNE01.JPG,AFNE01.JPG,4,6,46,9,,,,,,,,,,,,,,,,,,,,,,,AFSA06.jpg,AFNE10.jpg,AFNE18.jpg,AFSA07.jpg,AFSA07.jpg,FS,4,num_4,32,num_8,2.66659161361,,,2017_Oct_20_1148,60.0016743144,FEMA4ImagesEEG,001,201751,
AFNE01.JPG,AFNE01.JPG,AFNE01.JPG,AFNE01.JPG,AFNE01.JPG,AFNE01.JPG,4,7,47,7,,,,,,,,,,,,,,,,,,,,,,,AFSA07.jpg,AFNE04.jpg,AFNE15.jpg,AFSA17.jpg,AFSA17.jpg,FS,4,num_4,16,num_4,0.816746771394,,,2017_Oct_20_1148,60.0016743144,FEMA4ImagesEEG,001,201751,
AFNE01.JPG,AFNE01.JPG,AFNE01.JPG,AFNE01.JPG,AFNE01.JPG,AFNE01.JPG,4,8,48,8,,,,,,,,,,,,,,,,,,,,,,,AFNE17.jpg,AFNE08.jpg,AFSA06.jpg,AFSA07.jpg,AFSA06.jpg,FS,4,num_2,32,num_6,1.69998187816,,,2017_Oct_20_1148,60.0016743144,FEMA4ImagesEEG,001,201751,
AFNE01.JPG,AFNE01.JPG,AFNE01.JPG,AFNE01.JPG,AFNE01.JPG,AFNE01.JPG,4,9,49,4,,,,,,,,,,,,,,,,,,,,,,,AFSA05.jpg,AFNE19.jpg,AFSA16.jpg,AFNE09.jpg,AFNE19.jpg,FN,3,num_6,32,num_8,1.08338617516,,,2017_Oct_20_1148,60.0016743144,FEMA4ImagesEEG,001,201751,
AFNE01.JPG,AFNE01.JPG,AFNE01.JPG,AFNE01.JPG,AFNE01.JPG,AFNE01.JPG,5,0,50,9,,,,,,,,,,,,,,,,,,,,,,,AFNE01.jpg,AFSA12.jpg,AFSA13.jpg,AFNE02.jpg,AFNE01.jpg,FN,3,num_8,16,num_8,1.33350781561,,,2017_Oct_20_1148,60.0016743144,FEMA4ImagesEEG,001,201751,
AFNE01.JPG,AFNE01.JPG,AFNE01.JPG,AFNE01.JPG,AFNE01.JPG,AFNE01.JPG,5,1,51,2,,,,,,,,,,,,,,,,,,,,,,,AFNE01.jpg,AFSA10.jpg,AFSA13.jpg,AFNE18.jpg,AFSA13.jpg,FS,4,num_2,16,num_2,0.766772350355,,,2017_Oct_20_1148,60.0016743144,FEMA4ImagesEEG,001,201751,
AFNE01.JPG,AFNE01.JPG,AFNE01.JPG,AFNE01.JPG,AFNE01.JPG,AFNE01.JPG,5,2,52,8,,,,,,,,,,,,,,,,,,,,,,,AFSA02.jpg,AFNE17.jpg,AFSA17.jpg,AFNE01.jpg,AFSA02.jpg,FS,4,num_8,16,num_8,0.88347213337,,,2017_Oct_20_1148,60.0016743144,FEMA4ImagesEEG,001,201751,
AFNE01.JPG,AFNE01.JPG,AFNE01.JPG,AFNE01.JPG,AFNE01.JPG,AFNE01.JPG,5,3,53,1,,,,,,,,,,,,,,,,,,,,,,,AFSA07.jpg,AFNE12.jpg,AFNE11.jpg,AFSA16.jpg,AFNE12.jpg,FN,3,num_6,32,num_4,2.66664453561,,,2017_Oct_20_1148,60.0016743144,FEMA4ImagesEEG,001,201751,
AFNE01.JPG,AFNE01.JPG,AFNE01.JPG,AFNE01.JPG,AFNE01.JPG,AFNE01.JPG,5,4,54,3,,,,,,,,,,,,,,,,,,,,,,,AFNE04.jpg,AFSA20.jpg,AFSA16.jpg,AFNE13.jpg,AFNE04.jpg,FN,3,num_8,16,num_8,1.0501405641,,,2017_Oct_20_1148,60.0016743144,FEMA4ImagesEEG,001,201751,
AFNE01.JPG,AFNE01.JPG,AFNE01.JPG,AFNE01.JPG,AFNE01.JPG,AFNE01.JPG,5,5,55,7,,,,,,,,,,,,,,,,,,,,,,,AFSA18.jpg,AFNE09.jpg,AFSA13.jpg,AFNE04.jpg,AFNE09.jpg,FN,3,num_6,32,num_8,1.48347469926,,,2017_Oct_20_1148,60.0016743144,FEMA4ImagesEEG,001,201751,
AFNE01.JPG,AFNE01.JPG,AFNE01.JPG,AFNE01.JPG,AFNE01.JPG,AFNE01.JPG,5,6,56,5,,,,,,,,,,,,,,,,,,,,,,,AFSA07.jpg,AFNE03.jpg,AFSA19.jpg,AFNE07.jpg,AFSA07.jpg,FS,4,num_8,32,num_2,1.95003648417,,,2017_Oct_20_1148,60.0016743144,FEMA4ImagesEEG,001,201751,
AFNE01.JPG,AFNE01.JPG,AFNE01.JPG,AFNE01.JPG,AFNE01.JPG,AFNE01.JPG,5,7,57,6,,,,,,,,,,,,,,,,,,,,,,,AFSA14.jpg,AFNE17.jpg,AFNE03.jpg,AFSA03.jpg,AFNE17.jpg,FN,3,num_6,32,num_2,1.15011827269,,,2017_Oct_20_1148,60.0016743144,FEMA4ImagesEEG,001,201751,
AFNE01.JPG,AFNE01.JPG,AFNE01.JPG,AFNE01.JPG,AFNE01.JPG,AFNE01.JPG,5,8,58,0,,,,,,,,,,,,,,,,,,,,,,,AFNE10.jpg,AFNE04.jpg,AFSA14.jpg,AFSA10.jpg,AFSA10.jpg,FS,4,num_4,16,num_4,0.76674957783,,,2017_Oct_20_1148,60.0016743144,FEMA4ImagesEEG,001,201751,
AFNE01.JPG,AFNE01.JPG,AFNE01.JPG,AFNE01.JPG,AFNE01.JPG,AFNE01.JPG,5,9,59,4,,,,,,,,,,,,,,,,,,,,,,,AFSA20.jpg,AFSA06.jpg,AFNE06.jpg,AFNE11.jpg,AFNE11.jpg,FN,3,num_4,16,num_4,0.633549672086,,,2017_Oct_20_1148,60.0016743144,FEMA4ImagesEEG,001,201751,
,,,,,,,,,,,,,,,,,,,,,,,,,,,,,,,,,,,,,,,,,,,space,28.5815796099,2017_Oct_20_1148,60.0016743144,FEMA4ImagesEEG,001,201751,
AFNE01.JPG,AFNE01.JPG,AFNE01.JPG,AFNE01.JPG,AFNE01.JPG,AFNE01.JPG,,,,,0,0,0,5,,,,,,,,,,,,,,,,,,,AMNE01.jpg,AMNE13.jpg,AMSA18.jpg,AMSA17.jpg,AMSA18.jpg,MS,2,num_2,32,num_6,2.33336123766,,,2017_Oct_20_1148,60.0016743144,FEMA4ImagesEEG,001,201751,
AFNE01.JPG,AFNE01.JPG,AFNE01.JPG,AFNE01.JPG,AFNE01.JPG,AFNE01.JPG,,,,,0,1,1,4,,,,,,,,,,,,,,,,,,,AMNE06.jpg,AMNE15.jpg,AMSA11.jpg,AMSA08.jpg,AMNE06.jpg,MN,1,num_8,16,num_8,0.73353155033,,,2017_Oct_20_1148,60.0016743144,FEMA4ImagesEEG,001,201751,
AFNE01.JPG,AFNE01.JPG,AFNE01.JPG,AFNE01.JPG,AFNE01.JPG,AFNE01.JPG,,,,,0,2,2,8,,,,,,,,,,,,,,,,,,,AMSA15.jpg,AMSA05.jpg,AMNE05.jpg,AMNE02.jpg,AMNE02.jpg,MN,1,num_4,32,num_8,1.63338417053,,,2017_Oct_20_1148,60.0016743144,FEMA4ImagesEEG,001,201751,
AFNE01.JPG,AFNE01.JPG,AFNE01.JPG,AFNE01.JPG,AFNE01.JPG,AFNE01.JPG,,,,,0,3,3,9,,,,,,,,,,,,,,,,,,,AMSA13.jpg,AMNE08.jpg,AMNE10.jpg,AMSA02.jpg,AMSA02.jpg,MS,2,num_4,32,num_2,3.31621739082,,,2017_Oct_20_1148,60.0016743144,FEMA4ImagesEEG,001,201751,
AFNE01.JPG,AFNE01.JPG,AFNE01.JPG,AFNE01.JPG,AFNE01.JPG,AFNE01.JPG,,,,,0,4,4,3,,,,,,,,,,,,,,,,,,,AMSA10.jpg,AMSA13.jpg,AMNE04.jpg,AMNE15.jpg,AMNE15.jpg,MN,1,num_4,16,num_4,0.700150907971,,,2017_Oct_20_1148,60.0016743144,FEMA4ImagesEEG,001,201751,
AFNE01.JPG,AFNE01.JPG,AFNE01.JPG,AFNE01.JPG,AFNE01.JPG,AFNE01.JPG,,,,,0,5,5,1,,,,,,,,,,,,,,,,,,,AMNE03.jpg,AMSA12.jpg,AMSA10.jpg,AMNE20.jpg,AMNE20.jpg,MN,1,num_4,16,num_4,0.583437974565,,,2017_Oct_20_1148,60.0016743144,FEMA4ImagesEEG,001,201751,
AFNE01.JPG,AFNE01.JPG,AFNE01.JPG,AFNE01.JPG,AFNE01.JPG,AFNE01.JPG,,,,,0,6,6,0,,,,,,,,,,,,,,,,,,,AMSA17.jpg,AMNE12.jpg,AMSA05.jpg,AMNE20.jpg,AMSA17.jpg,MS,2,num_8,16,num_8,1.13344206399,,,2017_Oct_20_1148,60.0016743144,FEMA4ImagesEEG,001,201751,
AFNE01.JPG,AFNE01.JPG,AFNE01.JPG,AFNE01.JPG,AFNE01.JPG,AFNE01.JPG,,,,,0,7,7,7,,,,,,,,,,,,,,,,,,,AMSA09.jpg,AMSA06.jpg,AMNE02.jpg,AMNE12.jpg,AMSA09.jpg,MS,2,num_8,16,num_8,1.25012003677,,,2017_Oct_20_1148,60.0016743144,FEMA4ImagesEEG,001,201751,
AFNE01.JPG,AFNE01.JPG,AFNE01.JPG,AFNE01.JPG,AFNE01.JPG,AFNE01.JPG,,,,,0,8,8,2,,,,,,,,,,,,,,,,,,,AMNE15.jpg,AMSA14.jpg,AMSA18.jpg,AMNE14.jpg,AMSA14.jpg,MS,2,num_6,32,num_2,1.95004450262,,,2017_Oct_20_1148,60.0016743144,FEMA4ImagesEEG,001,201751,
AFNE01.JPG,AFNE01.JPG,AFNE01.JPG,AFNE01.JPG,AFNE01.JPG,AFNE01.JPG,,,,,0,9,9,6,,,,,,,,,,,,,,,,,,,AMNE11.jpg,AMSA07.jpg,AMNE03.jpg,AMSA20.jpg,AMSA20.jpg,MS,2,num_4,16,num_4,1.70007489267,,,2017_Oct_20_1148,60.0016743144,FEMA4ImagesEEG,001,201751,
AFNE01.JPG,AFNE01.JPG,AFNE01.JPG,AFNE01.JPG,AFNE01.JPG,AFNE01.JPG,,,,,1,0,10,3,,,,,,,,,,,,,,,,,,,AMSA08.jpg,AMSA05.jpg,AMNE16.jpg,AMNE04.jpg,AMSA08.jpg,MS,2,num_8,16,num_8,1.3167177444,,,2017_Oct_20_1148,60.0016743144,FEMA4ImagesEEG,001,201751,
AFNE01.JPG,AFNE01.JPG,AFNE01.JPG,AFNE01.JPG,AFNE01.JPG,AFNE01.JPG,,,,,1,1,11,8,,,,,,,,,,,,,,,,,,,AMNE09.jpg,AMSA15.jpg,AMSA08.jpg,AMNE10.jpg,AMSA15.jpg,MS,2,num_6,32,num_8,1.95001820195,,,2017_Oct_20_1148,60.0016743144,FEMA4ImagesEEG,001,201751,
AFNE01.JPG,AFNE01.JPG,AFNE01.JPG,AFNE01.JPG,AFNE01.JPG,AFNE01.JPG,,,,,1,2,12,1,,,,,,,,,,,,,,,,,,,AMSA06.jpg,AMNE19.jpg,AMNE20.jpg,AMSA18.jpg,AMSA18.jpg,MS,2,num_4,16,num_4,0.916745969502,,,2017_Oct_20_1148,60.0016743144,FEMA4ImagesEEG,001,201751,
AFNE01.JPG,AFNE01.JPG,AFNE01.JPG,AFNE01.JPG,AFNE01.JPG,AFNE01.JPG,,,,,1,3,13,9,,,,,,,,,,,,,,,,,,,AMNE12.jpg,AMNE09.jpg,AMSA03.jpg,AMSA05.jpg,AMSA05.jpg,MS,2,num_4,16,num_4,1.48311322584,,,2017_Oct_20_1148,60.0016743144,FEMA4ImagesEEG,001,201751,
AFNE01.JPG,AFNE01.JPG,AFNE01.JPG,AFNE01.JPG,AFNE01.JPG,AFNE01.JPG,,,,,1,4,14,2,,,,,,,,,,,,,,,,,,,AMSA16.jpg,AMSA03.jpg,AMNE10.jpg,AMNE01.jpg,AMSA16.jpg,MS,2,num_8,16,num_8,0.766802820552,,,2017_Oct_20_1148,60.0016743144,FEMA4ImagesEEG,001,201751,
AFNE01.JPG,AFNE01.JPG,AFNE01.JPG,AFNE01.JPG,AFNE01.JPG,AFNE01.JPG,,,,,1,5,15,0,,,,,,,,,,,,,,,,,,,AMSA07.jpg,AMSA09.jpg,AMNE03.jpg,AMNE14.jpg,AMNE14.jpg,MN,1,num_4,16,num_4,0.766790311784,,,2017_Oct_20_1148,60.0016743144,FEMA4ImagesEEG,001,201751,
AFNE01.JPG,AFNE01.JPG,AFNE01.JPG,AFNE01.JPG,AFNE01.JPG,AFNE01.JPG,,,,,1,6,16,5,,,,,,,,,,,,,,,,,,,AMNE03.jpg,AMSA03.jpg,AMNE02.jpg,AMSA07.jpg,AMSA07.jpg,MS,2,num_4,16,num_4,0.733488250524,,,2017_Oct_20_1148,60.0016743144,FEMA4ImagesEEG,001,201751,
AFNE01.JPG,AFNE01.JPG,AFNE01.JPG,AFNE01.JPG,AFNE01.JPG,AFNE01.JPG,,,,,1,7,17,4,,,,,,,,,,,,,,,,,,,AMSA20.jpg,AMNE07.jpg,AMSA17.jpg,AMNE08.jpg,AMSA20.jpg,MS,2,num_8,16,num_8,0.950094858708,,,2017_Oct_20_1148,60.0016743144,FEMA4ImagesEEG,001,201751,
AFNE01.JPG,AFNE01.JPG,AFNE01.JPG,AFNE01.JPG,AFNE01.JPG,AFNE01.JPG,,,,,1,8,18,7,,,,,,,,,,,,,,,,,,,AMNE06.jpg,AMSA07.jpg,AMSA14.jpg,AMNE10.jpg,AMSA07.jpg,MS,2,num_6,32,num_8,3.11657726055,,,2017_Oct_20_1148,60.0016743144,FEMA4ImagesEEG,001,201751,
AFNE01.JPG,AFNE01.JPG,AFNE01.JPG,AFNE01.JPG,AFNE01.JPG,AFNE01.JPG,,,,,1,9,19,6,,,,,,,,,,,,,,,,,,,AMNE04.jpg,AMNE11.jpg,AMSA14.jpg,AMSA08.jpg,AMNE11.jpg,MN,1,num_6,32,num_4,1.33343789441,,,2017_Oct_20_1148,60.0016743144,FEMA4ImagesEEG,001,201751,
AFNE01.JPG,AFNE01.JPG,AFNE01.JPG,AFNE01.JPG,AFNE01.JPG,AFNE01.JPG,,,,,2,0,20,6,,,,,,,,,,,,,,,,,,,AMSA20.jpg,AMSA14.jpg,AMNE03.jpg,AMNE05.jpg,AMSA14.jpg,MS,2,num_6,16,num_6,0.833415602974,,,2017_Oct_20_1148,60.0016743144,FEMA4ImagesEEG,001,201751,
AFNE01.JPG,AFNE01.JPG,AFNE01.JPG,AFNE01.JPG,AFNE01.JPG,AFNE01.JPG,,,,,2,1,21,7,,,,,,,,,,,,,,,,,,,AMSA15.jpg,AMNE10.jpg,AMSA12.jpg,AMNE08.jpg,AMNE08.jpg,MN,1,num_4,32,num_6,1.61668839678,,,2017_Oct_20_1148,60.0016743144,FEMA4ImagesEEG,001,201751,
AFNE01.JPG,AFNE01.JPG,AFNE01.JPG,AFNE01.JPG,AFNE01.JPG,AFNE01.JPG,,,,,2,2,22,0,,,,,,,,,,,,,,,,,,,AMSA19.jpg,AMSA09.jpg,AMNE10.jpg,AMNE17.jpg,AMSA19.jpg,MS,2,num_8,32,num_6,2.89997802937,,,2017_Oct_20_1148,60.0016743144,FEMA4ImagesEEG,001,201751,
AFNE01.JPG,AFNE01.JPG,AFNE01.JPG,AFNE01.JPG,AFNE01.JPG,AFNE01.JPG,,,,,2,3,23,4,,,,,,,,,,,,,,,,,,,AMNE14.jpg,AMSA07.jpg,AMNE01.jpg,AMSA03.jpg,AMNE14.jpg,MN,1,num_8,16,num_8,0.683481114043,,,2017_Oct_20_1148,60.0016743144,FEMA4ImagesEEG,001,201751,
AFNE01.JPG,AFNE01.JPG,AFNE01.JPG,AFNE01.JPG,AFNE01.JPG,AFNE01.JPG,,,,,2,4,24,1,,,,,,,,,,,,,,,,,,,AMNE13.jpg,AMSA06.jpg,AMNE14.jpg,AMSA16.jpg,AMNE13.jpg,MN,1,num_8,32,num_4,1.04996191221,,,2017_Oct_20_1148,60.0016743144,FEMA4ImagesEEG,001,201751,
AFNE01.JPG,AFNE01.JPG,AFNE01.JPG,AFNE01.JPG,AFNE01.JPG,AFNE01.JPG,,,,,2,5,25,8,,,,,,,,,,,,,,,,,,,AMNE13.jpg,AMSA02.jpg,AMNE01.jpg,AMSA13.jpg,AMSA13.jpg,MS,2,num_4,32,num_8,1.21677595866,,,2017_Oct_20_1148,60.0016743144,FEMA4ImagesEEG,001,201751,
AFNE01.JPG,AFNE01.JPG,AFNE01.JPG,AFNE01.JPG,AFNE01.JPG,AFNE01.JPG,,,,,2,6,26,2,,,,,,,,,,,,,,,,,,,AMNE09.jpg,AMNE16.jpg,AMSA05.jpg,AMSA19.jpg,AMNE16.jpg,MN,1,num_6,16,num_6,1.1000829112,,,2017_Oct_20_1148,60.0016743144,FEMA4ImagesEEG,001,201751,
AFNE01.JPG,AFNE01.JPG,AFNE01.JPG,AFNE01.JPG,AFNE01.JPG,AFNE01.JPG,,,,,2,7,27,3,,,,,,,,,,,,,,,,,,,AMNE01.jpg,AMSA17.jpg,AMSA04.jpg,AMNE04.jpg,AMNE01.jpg,MN,1,num_8,32,num_4,0.733456176589,,,2017_Oct_20_1148,60.0016743144,FEMA4ImagesEEG,001,201751,
AFNE01.JPG,AFNE01.JPG,AFNE01.JPG,AFNE01.JPG,AFNE01.JPG,AFNE01.JPG,,,,,2,8,28,5,,,,,,,,,,,,,,,,,,,AMSA19.jpg,AMNE19.jpg,AMSA03.jpg,AMNE01.jpg,AMSA03.jpg,MS,2,num_2,16,num_2,0.733446554339,,,2017_Oct_20_1148,60.0016743144,FEMA4ImagesEEG,001,201751,
AFNE01.JPG,AFNE01.JPG,AFNE01.JPG,AFNE01.JPG,AFNE01.JPG,AFNE01.JPG,,,,,2,9,29,9,,,,,,,,,,,,,,,,,,,AMSA15.jpg,AMNE19.jpg,AMSA12.jpg,AMNE03.jpg,AMSA15.jpg,MS,2,num_8,16,num_8,0.900147379783,,,2017_Oct_20_1148,60.0016743144,FEMA4ImagesEEG,001,201751,
AFNE01.JPG,AFNE01.JPG,AFNE01.JPG,AFNE01.JPG,AFNE01.JPG,AFNE01.JPG,,,,,3,0,30,6,,,,,,,,,,,,,,,,,,,AMNE01.jpg,AMSA06.jpg,AMNE17.jpg,AMSA10.jpg,AMNE17.jpg,MN,1,num_2,32,num_8,0.916731536214,,,2017_Oct_20_1148,60.0016743144,FEMA4ImagesEEG,001,201751,
AFNE01.JPG,AFNE01.JPG,AFNE01.JPG,AFNE01.JPG,AFNE01.JPG,AFNE01.JPG,,,,,3,1,31,3,,,,,,,,,,,,,,,,,,,AMSA17.jpg,AMNE16.jpg,AMNE05.jpg,AMSA09.jpg,AMNE16.jpg,MN,1,num_6,16,num_6,1.63337326539,,,2017_Oct_20_1148,60.0016743144,FEMA4ImagesEEG,001,201751,
AFNE01.JPG,AFNE01.JPG,AFNE01.JPG,AFNE01.JPG,AFNE01.JPG,AFNE01.JPG,,,,,3,2,32,7,,,,,,,,,,,,,,,,,,,AMSA20.jpg,AMSA02.jpg,AMNE13.jpg,AMNE14.jpg,AMSA20.jpg,MS,2,num_8,32,num_4,2.20011514553,,,2017_Oct_20_1148,60.0016743144,FEMA4ImagesEEG,001,201751,
AFNE01.JPG,AFNE01.JPG,AFNE01.JPG,AFNE01.JPG,AFNE01.JPG,AFNE01.JPG,,,,,3,3,33,9,,,,,,,,,,,,,,,,,,,AMNE10.jpg,AMSA18.jpg,AMNE05.jpg,AMSA10.jpg,AMNE10.jpg,MN,1,num_8,16,num_8,1.40005548793,,,2017_Oct_20_1148,60.0016743144,FEMA4ImagesEEG,001,201751,
AFNE01.JPG,AFNE01.JPG,AFNE01.JPG,AFNE01.JPG,AFNE01.JPG,AFNE01.JPG,,,,,3,4,34,5,,,,,,,,,,,,,,,,,,,AMNE04.jpg,AMSA19.jpg,AMSA08.jpg,AMNE14.jpg,AMSA19.jpg,MS,2,num_6,32,num_8,2.53341480118,,,2017_Oct_20_1148,60.0016743144,FEMA4ImagesEEG,001,201751,
AFNE01.JPG,AFNE01.JPG,AFNE01.JPG,AFNE01.JPG,AFNE01.JPG,AFNE01.JPG,,,,,3,5,35,0,,,,,,,,,,,,,,,,,,,AMSA01.jpg,AMNE03.jpg,AMSA10.jpg,AMNE09.jpg,AMNE03.jpg,MN,1,num_6,32,num_4,3.88305549277,,,2017_Oct_20_1148,60.0016743144,FEMA4ImagesEEG,001,201751,
AFNE01.JPG,AFNE01.JPG,AFNE01.JPG,AFNE01.JPG,AFNE01.JPG,AFNE01.JPG,,,,,3,6,36,1,,,,,,,,,,,,,,,,,,,AMSA01.jpg,AMNE17.jpg,AMNE20.jpg,AMSA05.jpg,AMNE20.jpg,MN,1,num_2,32,num_6,2.18361855095,,,2017_Oct_20_1148,60.0016743144,FEMA4ImagesEEG,001,201751,
AFNE01.JPG,AFNE01.JPG,AFNE01.JPG,AFNE01.JPG,AFNE01.JPG,AFNE01.JPG,,,,,3,7,37,2,,,,,,,,,,,,,,,,,,,AMNE15.jpg,AMSA08.jpg,AMSA13.jpg,AMNE10.jpg,AMSA13.jpg,MS,2,num_2,16,num_2,1.5667037121,,,2017_Oct_20_1148,60.0016743144,FEMA4ImagesEEG,001,201751,
AFNE01.JPG,AFNE01.JPG,AFNE01.JPG,AFNE01.JPG,AFNE01.JPG,AFNE01.JPG,,,,,3,8,38,4,,,,,,,,,,,,,,,,,,,AMNE13.jpg,AMSA07.jpg,AMSA05.jpg,AMNE03.jpg,AMSA07.jpg,MS,2,num_6,32,num_4,0.883463794133,,,2017_Oct_20_1148,60.0016743144,FEMA4ImagesEEG,001,201751,
AFNE01.JPG,AFNE01.JPG,AFNE01.JPG,AFNE01.JPG,AFNE01.JPG,AFNE01.JPG,,,,,3,9,39,8,,,,,,,,,,,,,,,,,,,AMNE06.jpg,AMSA10.jpg,AMNE19.jpg,AMSA09.jpg,AMSA09.jpg,MS,2,num_4,16,num_4,0.583457860455,,,2017_Oct_20_1148,60.0016743144,FEMA4ImagesEEG,001,201751,
AFNE01.JPG,AFNE01.JPG,AFNE01.JPG,AFNE01.JPG,AFNE01.JPG,AFNE01.JPG,,,,,4,0,40,7,,,,,,,,,,,,,,,,,,,AMNE10.jpg,AMSA10.jpg,AMNE05.jpg,AMSA06.jpg,AMNE05.jpg,MN,1,num_2,32,num_6,1.54990113206,,,2017_Oct_20_1148,60.0016743144,FEMA4ImagesEEG,001,201751,
AFNE01.JPG,AFNE01.JPG,AFNE01.JPG,AFNE01.JPG,AFNE01.JPG,AFNE01.JPG,,,,,4,1,41,5,,,,,,,,,,,,,,,,,,,AMNE18.jpg,AMNE17.jpg,AMSA12.jpg,AMSA18.jpg,AMSA12.jpg,MS,2,num_2,32,num_4,1.91675847839,,,2017_Oct_20_1148,60.0016743144,FEMA4ImagesEEG,001,201751,
AFNE01.JPG,AFNE01.JPG,AFNE01.JPG,AFNE01.JPG,AFNE01.JPG,AFNE01.JPG,,,,,4,2,42,2,,,,,,,,,,,,,,,,,,,AMNE06.jpg,AMSA06.jpg,AMNE20.jpg,AMSA02.jpg,AMNE06.jpg,MN,1,num_8,32,num_4,1.75010191498,,,2017_Oct_20_1148,60.0016743144,FEMA4ImagesEEG,001,201751,
AFNE01.JPG,AFNE01.JPG,AFNE01.JPG,AFNE01.JPG,AFNE01.JPG,AFNE01.JPG,,,,,4,3,43,1,,,,,,,,,,,,,,,,,,,AMNE13.jpg,AMSA03.jpg,AMSA08.jpg,AMNE15.jpg,AMNE15.jpg,MN,1,num_4,32,num_8,1.53308155283,,,2017_Oct_20_1148,60.0016743144,FEMA4ImagesEEG,001,201751,
AFNE01.JPG,AFNE01.JPG,AFNE01.JPG,AFNE01.JPG,AFNE01.JPG,AFNE01.JPG,,,,,4,4,44,3,,,,,,,,,,,,,,,,,,,AMNE02.jpg,AMNE17.jpg,AMSA17.jpg,AMSA04.jpg,AMNE17.jpg,MN,1,num_6,16,num_6,2.18334816751,,,2017_Oct_20_1148,60.0016743144,FEMA4ImagesEEG,001,201751,
AFNE01.JPG,AFNE01.JPG,AFNE01.JPG,AFNE01.JPG,AFNE01.JPG,AFNE01.JPG,,,,,4,5,45,4,,,,,,,,,,,,,,,,,,,AMSA17.jpg,AMNE13.jpg,AMSA20.jpg,AMNE14.jpg,AMNE14.jpg,MN,1,num_4,16,num_4,1.38340429694,,,2017_Oct_20_1148,60.0016743144,FEMA4ImagesEEG,001,201751,
AFNE01.JPG,AFNE01.JPG,AFNE01.JPG,AFNE01.JPG,AFNE01.JPG,AFNE01.JPG,,,,,4,6,46,6,,,,,,,,,,,,,,,,,,,AMNE15.jpg,AMSA14.jpg,AMSA20.jpg,AMNE19.jpg,AMSA14.jpg,MS,2,num_6,32,num_8,1.05015628034,,,2017_Oct_20_1148,60.0016743144,FEMA4ImagesEEG,001,201751,
AFNE01.JPG,AFNE01.JPG,AFNE01.JPG,AFNE01.JPG,AFNE01.JPG,AFNE01.JPG,,,,,4,7,47,8,,,,,,,,,,,,,,,,,,,AMNE14.jpg,AMNE05.jpg,AMSA15.jpg,AMSA18.jpg,AMNE05.jpg,MN,1,num_6,32,num_4,2.05000328756,,,2017_Oct_20_1148,60.0016743144,FEMA4ImagesEEG,001,201751,
AFNE01.JPG,AFNE01.JPG,AFNE01.JPG,AFNE01.JPG,AFNE01.JPG,AFNE01.JPG,,,,,4,8,48,0,,,,,,,,,,,,,,,,,,,AMSA08.jpg,AMSA16.jpg,AMNE09.jpg,AMNE04.jpg,AMSA16.jpg,MS,2,num_6,16,num_6,0.816767940181,,,2017_Oct_20_1148,60.0016743144,FEMA4ImagesEEG,001,201751,
AFNE01.JPG,AFNE01.JPG,AFNE01.JPG,AFNE01.JPG,AFNE01.JPG,AFNE01.JPG,,,,,4,9,49,9,,,,,,,,,,,,,,,,,,,AMNE01.jpg,AMSA07.jpg,AMSA19.jpg,AMNE09.jpg,AMNE01.jpg,MN,1,num_8,32,num_4,2.79998043488,,,2017_Oct_20_1148,60.0016743144,FEMA4ImagesEEG,001,201751,
AFNE01.JPG,AFNE01.JPG,AFNE01.JPG,AFNE01.JPG,AFNE01.JPG,AFNE01.JPG,,,,,5,0,50,0,,,,,,,,,,,,,,,,,,,AMNE04.jpg,AMSA16.jpg,AMSA17.jpg,AMNE06.jpg,AMSA17.jpg,MS,2,num_2,16,num_2,1.51668085938,,,2017_Oct_20_1148,60.0016743144,FEMA4ImagesEEG,001,201751,
AFNE01.JPG,AFNE01.JPG,AFNE01.JPG,AFNE01.JPG,AFNE01.JPG,AFNE01.JPG,,,,,5,1,51,3,,,,,,,,,,,,,,,,,,,AMSA03.jpg,AMSA20.jpg,AMNE07.jpg,AMNE20.jpg,AMSA03.jpg,MS,2,num_8,16,num_8,1.40007569455,,,2017_Oct_20_1148,60.0016743144,FEMA4ImagesEEG,001,201751,
AFNE01.JPG,AFNE01.JPG,AFNE01.JPG,AFNE01.JPG,AFNE01.JPG,AFNE01.JPG,,,,,5,2,52,5,,,,,,,,,,,,,,,,,,,AMSA01.jpg,AMNE19.jpg,AMNE20.jpg,AMSA02.jpg,AMNE20.jpg,MN,1,num_2,16,num_2,0.700134870945,,,2017_Oct_20_1148,60.0016743144,FEMA4ImagesEEG,001,201751,
AFNE01.JPG,AFNE01.JPG,AFNE01.JPG,AFNE01.JPG,AFNE01.JPG,AFNE01.JPG,,,,,5,3,53,4,,,,,,,,,,,,,,,,,,,AMNE15.jpg,AMSA06.jpg,AMSA09.jpg,AMNE06.jpg,AMNE06.jpg,MN,1,num_4,16,num_4,0.899810282572,,,2017_Oct_20_1148,60.0016743144,FEMA4ImagesEEG,001,201751,
AFNE01.JPG,AFNE01.JPG,AFNE01.JPG,AFNE01.JPG,AFNE01.JPG,AFNE01.JPG,,,,,5,4,54,6,,,,,,,,,,,,,,,,,,,AMSA20.jpg,AMNE09.jpg,AMSA18.jpg,AMNE13.jpg,AMNE09.jpg,MN,1,num_6,16,num_6,0.783445351582,,,2017_Oct_20_1148,60.0016743144,FEMA4ImagesEEG,001,201751,
AFNE01.JPG,AFNE01.JPG,AFNE01.JPG,AFNE01.JPG,AFNE01.JPG,AFNE01.JPG,,,,,5,5,55,9,,,,,,,,,,,,,,,,,,,AMSA04.jpg,AMNE16.jpg,AMNE17.jpg,AMSA12.jpg,AMNE17.jpg,MN,1,num_2,16,num_2,0.883273916377,,,2017_Oct_20_1148,60.0016743144,FEMA4ImagesEEG,001,201751,
AFNE01.JPG,AFNE01.JPG,AFNE01.JPG,AFNE01.JPG,AFNE01.JPG,AFNE01.JPG,,,,,5,6,56,8,,,,,,,,,,,,,,,,,,,AMNE02.jpg,AMNE11.jpg,AMSA09.jpg,AMSA15.jpg,AMSA15.jpg,MS,2,num_4,16,num_4,1.08344102162,,,2017_Oct_20_1148,60.0016743144,FEMA4ImagesEEG,001,201751,
AFNE01.JPG,AFNE01.JPG,AFNE01.JPG,AFNE01.JPG,AFNE01.JPG,AFNE01.JPG,,,,,5,7,57,1,,,,,,,,,,,,,,,,,,,AMNE01.jpg,AMNE18.jpg,AMSA09.jpg,AMSA07.jpg,AMSA07.jpg,MS,2,num_4,16,num_4,0.733479590504,,,2017_Oct_20_1148,60.0016743144,FEMA4ImagesEEG,001,201751,
AFNE01.JPG,AFNE01.JPG,AFNE01.JPG,AFNE01.JPG,AFNE01.JPG,AFNE01.JPG,,,,,5,8,58,7,,,,,,,,,,,,,,,,,,,AMNE01.jpg,AMSA14.jpg,AMNE14.jpg,AMSA03.jpg,AMSA03.jpg,MS,2,num_4,16,num_4,0.76673065417,,,2017_Oct_20_1148,60.0016743144,FEMA4ImagesEEG,001,201751,
AFNE01.JPG,AFNE01.JPG,AFNE01.JPG,AFNE01.JPG,AFNE01.JPG,AFNE01.JPG,,,,,5,9,59,2,,,,,,,,,,,,,,,,,,,AMSA15.jpg,AMNE01.jpg,AMSA08.jpg,AMNE17.jpg,AMNE01.jpg,MN,1,num_6,16,num_6,0.550135592581,,,2017_Oct_20_1148,60.0016743144,FEMA4ImagesEEG,001,201751,
,,,,,,,,,,,,,,,,,,,,,,,,,,,,,,,,,,,,,,,,,,,space,24.5479308293,2017_Oct_20_1148,60.0016743144,FEMA4ImagesEEG,001,201751,
AFNE01.JPG,AFNE01.JPG,AFNE01.JPG,AFNE01.JPG,AFNE01.JPG,AFNE01.JPG,,,,,,,,,0,0,0,3,,,,,,,,,,,,,,,AFSA08.jpg,AFNE11.jpg,AFSA07.jpg,AFNE09.jpg,AFSA07.jpg,FS,4,num_2,16,num_2,0.666822866828,,,2017_Oct_20_1148,60.0016743144,FEMA4ImagesEEG,001,201751,
AFNE01.JPG,AFNE01.JPG,AFNE01.JPG,AFNE01.JPG,AFNE01.JPG,AFNE01.JPG,,,,,,,,,0,1,1,0,,,,,,,,,,,,,,,AFNE19.jpg,AFNE16.jpg,AFSA09.jpg,AFSA01.jpg,AFSA01.jpg,FS,4,num_4,16,num_4,1.05013960187,,,2017_Oct_20_1148,60.0016743144,FEMA4ImagesEEG,001,201751,
AFNE01.JPG,AFNE01.JPG,AFNE01.JPG,AFNE01.JPG,AFNE01.JPG,AFNE01.JPG,,,,,,,,,0,2,2,2,,,,,,,,,,,,,,,AFSA20.jpg,AFNE18.jpg,AFSA17.jpg,AFNE08.jpg,AFNE18.jpg,FN,3,num_6,32,num_2,3.06661951792,,,2017_Oct_20_1148,60.0016743144,FEMA4ImagesEEG,001,201751,
AFNE01.JPG,AFNE01.JPG,AFNE01.JPG,AFNE01.JPG,AFNE01.JPG,AFNE01.JPG,,,,,,,,,0,3,3,6,,,,,,,,,,,,,,,AFNE11.jpg,AFSA15.jpg,AFNE18.jpg,AFSA13.jpg,AFNE11.jpg,FN,3,num_8,16,num_8,0.433472053148,,,2017_Oct_20_1148,60.0016743144,FEMA4ImagesEEG,001,201751,
AFNE01.JPG,AFNE01.JPG,AFNE01.JPG,AFNE01.JPG,AFNE01.JPG,AFNE01.JPG,,,,,,,,,0,4,4,9,,,,,,,,,,,,,,,AFSA11.jpg,AFNE14.jpg,AFSA04.jpg,AFNE16.jpg,AFNE16.jpg,FN,3,num_4,16,num_4,0.483331970172,,,2017_Oct_20_1148,60.0016743144,FEMA4ImagesEEG,001,201751,
AFNE01.JPG,AFNE01.JPG,AFNE01.JPG,AFNE01.JPG,AFNE01.JPG,AFNE01.JPG,,,,,,,,,0,5,5,8,,,,,,,,,,,,,,,AFNE11.jpg,AFNE08.jpg,AFSA20.jpg,AFSA14.jpg,AFSA14.jpg,FS,4,num_4,16,num_4,1.2834163247,,,2017_Oct_20_1148,60.0016743144,FEMA4ImagesEEG,001,201751,
AFNE01.JPG,AFNE01.JPG,AFNE01.JPG,AFNE01.JPG,AFNE01.JPG,AFNE01.JPG,,,,,,,,,0,6,6,4,,,,,,,,,,,,,,,AFNE11.jpg,AFSA01.jpg,AFNE19.jpg,AFSA13.jpg,AFNE19.jpg,FN,3,num_2,32,num_6,1.36670371209,,,2017_Oct_20_1148,60.0016743144,FEMA4ImagesEEG,001,201751,
AFNE01.JPG,AFNE01.JPG,AFNE01.JPG,AFNE01.JPG,AFNE01.JPG,AFNE01.JPG,,,,,,,,,0,7,7,7,,,,,,,,,,,,,,,AFSA04.jpg,AFNE07.jpg,AFNE06.jpg,AFSA15.jpg,AFNE06.jpg,FN,3,num_2,32,num_8,3.29993825767,,,2017_Oct_20_1148,60.0016743144,FEMA4ImagesEEG,001,201751,
AFNE01.JPG,AFNE01.JPG,AFNE01.JPG,AFNE01.JPG,AFNE01.JPG,AFNE01.JPG,,,,,,,,,0,8,8,5,,,,,,,,,,,,,,,AFSA19.jpg,AFNE13.jpg,AFNE09.jpg,AFSA01.jpg,AFNE13.jpg,FN,3,num_6,16,num_6,0.883446153486,,,2017_Oct_20_1148,60.0016743144,FEMA4ImagesEEG,001,201751,
AFNE01.JPG,AFNE01.JPG,AFNE01.JPG,AFNE01.JPG,AFNE01.JPG,AFNE01.JPG,,,,,,,,,0,9,9,1,,,,,,,,,,,,,,,AFSA20.jpg,AFNE05.jpg,AFNE02.jpg,AFSA01.jpg,AFSA20.jpg,FS,4,num_8,16,num_8,1.81639620307,,,2017_Oct_20_1148,60.0016743144,FEMA4ImagesEEG,001,201751,
AFNE01.JPG,AFNE01.JPG,AFNE01.JPG,AFNE01.JPG,AFNE01.JPG,AFNE01.JPG,,,,,,,,,1,0,10,6,,,,,,,,,,,,,,,AFSA09.jpg,AFNE05.jpg,AFNE20.jpg,AFSA14.jpg,AFSA14.jpg,FS,4,num_4,16,num_4,2.06668591104,,,2017_Oct_20_1148,60.0016743144,FEMA4ImagesEEG,001,201751,
AFNE01.JPG,AFNE01.JPG,AFNE01.JPG,AFNE01.JPG,AFNE01.JPG,AFNE01.JPG,,,,,,,,,1,1,11,1,,,,,,,,,,,,,,,AFNE09.jpg,AFNE10.jpg,AFSA12.jpg,AFSA11.jpg,AFSA12.jpg,FS,4,num_2,16,num_2,0.783450804185,,,2017_Oct_20_1148,60.0016743144,FEMA4ImagesEEG,001,201751,
AFNE01.JPG,AFNE01.JPG,AFNE01.JPG,AFNE01.JPG,AFNE01.JPG,AFNE01.JPG,,,,,,,,,1,2,12,7,,,,,,,,,,,,,,,AFNE04.jpg,AFNE15.jpg,AFSA12.jpg,AFSA20.jpg,AFSA20.jpg,FS,4,num_4,16,num_4,0.550150025869,,,2017_Oct_20_1148,60.0016743144,FEMA4ImagesEEG,001,201751,
AFNE01.JPG,AFNE01.JPG,AFNE01.JPG,AFNE01.JPG,AFNE01.JPG,AFNE01.JPG,,,,,,,,,1,3,13,4,,,,,,,,,,,,,,,AFSA02.jpg,AFNE07.jpg,AFSA20.jpg,AFNE09.jpg,AFNE09.jpg,FN,3,num_4,16,num_4,0.583471652237,,,2017_Oct_20_1148,60.0016743144,FEMA4ImagesEEG,001,201751,
AFNE01.JPG,AFNE01.JPG,AFNE01.JPG,AFNE01.JPG,AFNE01.JPG,AFNE01.JPG,,,,,,,,,1,4,14,2,,,,,,,,,,,,,,,AFSA08.jpg,AFNE03.jpg,AFNE02.jpg,AFSA11.jpg,AFNE03.jpg,FN,3,num_6,32,num_4,1.61675222393,,,2017_Oct_20_1148,60.0016743144,FEMA4ImagesEEG,001,201751,
AFNE01.JPG,AFNE01.JPG,AFNE01.JPG,AFNE01.JPG,AFNE01.JPG,AFNE01.JPG,,,,,,,,,1,5,15,5,,,,,,,,,,,,,,,AFNE10.jpg,AFSA07.jpg,AFNE05.jpg,AFSA13.jpg,AFNE10.jpg,FN,3,num_8,16,num_8,0.766633470135,,,2017_Oct_20_1148,60.0016743144,FEMA4ImagesEEG,001,201751,
AFNE01.JPG,AFNE01.JPG,AFNE01.JPG,AFNE01.JPG,AFNE01.JPG,AFNE01.JPG,,,,,,,,,1,6,16,9,,,,,,,,,,,,,,,AFSA06.jpg,AFSA10.jpg,AFNE17.jpg,AFNE12.jpg,AFNE12.jpg,FN,3,num_4,16,num_4,1.88334704499,,,2017_Oct_20_1148,60.0016743144,FEMA4ImagesEEG,001,201751,
AFNE01.JPG,AFNE01.JPG,AFNE01.JPG,AFNE01.JPG,AFNE01.JPG,AFNE01.JPG,,,,,,,,,1,7,17,8,,,,,,,,,,,,,,,AFSA06.jpg,AFNE14.jpg,AFSA01.jpg,AFNE13.jpg,AFNE14.jpg,FN,3,num_6,32,num_8,1.2500748125,,,2017_Oct_20_1148,60.0016743144,FEMA4ImagesEEG,001,201751,
AFNE01.JPG,AFNE01.JPG,AFNE01.JPG,AFNE01.JPG,AFNE01.JPG,AFNE01.JPG,,,,,,,,,1,8,18,3,,,,,,,,,,,,,,,AFSA16.jpg,AFNE13.jpg,AFSA14.jpg,AFNE09.jpg,AFSA16.jpg,FS,4,num_8,16,num_8,0.816800334898,,,2017_Oct_20_1148,60.0016743144,FEMA4ImagesEEG,001,201751,
AFNE01.JPG,AFNE01.JPG,AFNE01.JPG,AFNE01.JPG,AFNE01.JPG,AFNE01.JPG,,,,,,,,,1,9,19,0,,,,,,,,,,,,,,,AFNE20.jpg,AFSA14.jpg,AFSA16.jpg,AFNE13.jpg,AFNE20.jpg,FN,3,num_8,48,None,,,,2017_Oct_20_1148,60.0016743144,FEMA4ImagesEEG,001,201751,
AFNE01.JPG,AFNE01.JPG,AFNE01.JPG,AFNE01.JPG,AFNE01.JPG,AFNE01.JPG,,,,,,,,,2,0,20,6,,,,,,,,,,,,,,,AFSA13.jpg,AFNE17.jpg,AFSA03.jpg,AFNE06.jpg,AFSA03.jpg,FS,4,num_2,32,num_8,1.03345986502,,,2017_Oct_20_1148,60.0016743144,FEMA4ImagesEEG,001,201751,
AFNE01.JPG,AFNE01.JPG,AFNE01.JPG,AFNE01.JPG,AFNE01.JPG,AFNE01.JPG,,,,,,,,,2,1,21,8,,,,,,,,,,,,,,,AFSA15.jpg,AFSA02.jpg,AFNE15.jpg,AFNE19.jpg,AFSA02.jpg,FS,4,num_6,16,num_6,1.38342674868,,,2017_Oct_20_1148,60.0016743144,FEMA4ImagesEEG,001,201751,
AFNE01.JPG,AFNE01.JPG,AFNE01.JPG,AFNE01.JPG,AFNE01.JPG,AFNE01.JPG,,,,,,,,,2,2,22,9,,,,,,,,,,,,,,,AFSA10.jpg,AFNE17.jpg,AFSA19.jpg,AFNE01.jpg,AFSA10.jpg,FS,4,num_8,16,num_8,1.81667652936,,,2017_Oct_20_1148,60.0016743144,FEMA4ImagesEEG,001,201751,
AFNE01.JPG,AFNE01.JPG,AFNE01.JPG,AFNE01.JPG,AFNE01.JPG,AFNE01.JPG,,,,,,,,,2,3,23,4,,,,,,,,,,,,,,,AFSA10.jpg,AFNE10.jpg,AFNE06.jpg,AFSA06.jpg,AFSA06.jpg,FS,4,num_4,16,num_4,1.43340918823,,,2017_Oct_20_1148,60.0016743144,FEMA4ImagesEEG,001,201751,
AFNE01.JPG,AFNE01.JPG,AFNE01.JPG,AFNE01.JPG,AFNE01.JPG,AFNE01.JPG,,,,,,,,,2,4,24,0,,,,,,,,,,,,,,,AFNE07.jpg,AFSA04.jpg,AFSA13.jpg,AFNE10.jpg,AFNE10.jpg,FN,3,num_4,16,num_4,0.700129739125,,,2017_Oct_20_1148,60.0016743144,FEMA4ImagesEEG,001,201751,
AFNE01.JPG,AFNE01.JPG,AFNE01.JPG,AFNE01.JPG,AFNE01.JPG,AFNE01.JPG,,,,,,,,,2,5,25,3,,,,,,,,,,,,,,,AFNE02.jpg,AFNE07.jpg,AFSA17.jpg,AFSA09.jpg,AFNE07.jpg,FN,3,num_6,32,num_8,1.15006631293,,,2017_Oct_20_1148,60.0016743144,FEMA4ImagesEEG,001,201751,
AFNE01.JPG,AFNE01.JPG,AFNE01.JPG,AFNE01.JPG,AFNE01.JPG,AFNE01.JPG,,,,,,,,,2,6,26,2,,,,,,,,,,,,,,,AFNE14.jpg,AFSA15.jpg,AFSA01.jpg,AFNE01.jpg,AFSA01.jpg,FS,4,num_2,16,num_2,0.850101754593,,,2017_Oct_20_1148,60.0016743144,FEMA4ImagesEEG,001,201751,
AFNE01.JPG,AFNE01.JPG,AFNE01.JPG,AFNE01.JPG,AFNE01.JPG,AFNE01.JPG,,,,,,,,,2,7,27,5,,,,,,,,,,,,,,,AFSA13.jpg,AFSA20.jpg,AFNE17.jpg,AFNE15.jpg,AFNE17.jpg,FN,3,num_2,32,num_6,2.06671798497,,,2017_Oct_20_1148,60.0016743144,FEMA4ImagesEEG,001,201751,
AFNE01.JPG,AFNE01.JPG,AFNE01.JPG,AFNE01.JPG,AFNE01.JPG,AFNE01.JPG,,,,,,,,,2,8,28,7,,,,,,,,,,,,,,,AFNE05.jpg,AFNE07.jpg,AFSA01.jpg,AFSA11.jpg,AFSA11.jpg,FS,4,num_4,16,num_4,0.600176406733,,,2017_Oct_20_1148,60.0016743144,FEMA4ImagesEEG,001,201751,
AFNE01.JPG,AFNE01.JPG,AFNE01.JPG,AFNE01.JPG,AFNE01.JPG,AFNE01.JPG,,,,,,,,,2,9,29,1,,,,,,,,,,,,,,,AFSA16.jpg,AFNE08.jpg,AFNE13.jpg,AFSA05.jpg,AFNE08.jpg,FN,3,num_6,32,num_8,1.78335362009,,,2017_Oct_20_1148,60.0016743144,FEMA4ImagesEEG,001,201751,
AFNE01.JPG,AFNE01.JPG,AFNE01.JPG,AFNE01.JPG,AFNE01.JPG,AFNE01.JPG,,,,,,,,,3,0,30,0,,,,,,,,,,,,,,,AFSA06.jpg,AFNE06.jpg,AFNE08.jpg,AFSA02.jpg,AFSA02.jpg,FS,4,num_4,16,num_4,0.566778123612,,,2017_Oct_20_1148,60.0016743144,FEMA4ImagesEEG,001,201751,
AFNE01.JPG,AFNE01.JPG,AFNE01.JPG,AFNE01.JPG,AFNE01.JPG,AFNE01.JPG,,,,,,,,,3,1,31,4,,,,,,,,,,,,,,,AFSA08.jpg,AFNE16.jpg,AFSA07.jpg,AFNE02.jpg,AFSA07.jpg,FS,4,num_2,16,num_2,0.700194849225,,,2017_Oct_20_1148,60.0016743144,FEMA4ImagesEEG,001,201751,
AFNE01.JPG,AFNE01.JPG,AFNE01.JPG,AFNE01.JPG,AFNE01.JPG,AFNE01.JPG,,,,,,,,,3,2,32,6,,,,,,,,,,,,,,,AFSA11.jpg,AFNE14.jpg,AFNE10.jpg,AFSA12.jpg,AFSA12.jpg,FS,4,num_4,32,num_2,2.88357541146,,,2017_Oct_20_1148,60.0016743144,FEMA4ImagesEEG,001,201751,
AFNE01.JPG,AFNE01.JPG,AFNE01.JPG,AFNE01.JPG,AFNE01.JPG,AFNE01.JPG,,,,,,,,,3,3,33,7,,,,,,,,,,,,,,,AFSA02.jpg,AFNE08.jpg,AFNE09.jpg,AFSA09.jpg,AFNE08.jpg,FN,3,num_6,32,num_2,0.583515914332,,,2017_Oct_20_1148,60.0016743144,FEMA4ImagesEEG,001,201751,
AFNE01.JPG,AFNE01.JPG,AFNE01.JPG,AFNE01.JPG,AFNE01.JPG,AFNE01.JPG,,,,,,,,,3,4,34,5,,,,,,,,,,,,,,,AFSA05.jpg,AFNE01.jpg,AFNE02.jpg,AFSA07.jpg,AFNE01.jpg,FN,3,num_6,32,num_2,1.31672127254,,,2017_Oct_20_1148,60.0016743144,FEMA4ImagesEEG,001,201751,
AFNE01.JPG,AFNE01.JPG,AFNE01.JPG,AFNE01.JPG,AFNE01.JPG,AFNE01.JPG,,,,,,,,,3,5,35,1,,,,,,,,,,,,,,,AFNE19.jpg,AFSA07.jpg,AFSA06.jpg,AFNE18.jpg,AFSA07.jpg,FS,4,num_6,32,num_2,0.783474538883,,,2017_Oct_20_1148,60.0016743144,FEMA4ImagesEEG,001,201751,
AFNE01.JPG,AFNE01.JPG,AFNE01.JPG,AFNE01.JPG,AFNE01.JPG,AFNE01.JPG,,,,,,,,,3,6,36,9,,,,,,,,,,,,,,,AFNE07.jpg,AFSA07.jpg,AFNE11.jpg,AFSA10.jpg,AFNE07.jpg,FN,3,num_8,16,num_8,1.80008114706,,,2017_Oct_20_1148,60.0016743144,FEMA4ImagesEEG,001,201751,
AFNE01.JPG,AFNE01.JPG,AFNE01.JPG,AFNE01.JPG,AFNE01.JPG,AFNE01.JPG,,,,,,,,,3,7,37,3,,,,,,,,,,,,,,,AFNE05.jpg,AFSA18.jpg,AFNE02.jpg,AFSA04.jpg,AFSA04.jpg,FS,4,num_4,16,num_4,1.35012019711,,,2017_Oct_20_1148,60.0016743144,FEMA4ImagesEEG,001,201751,
AFNE01.JPG,AFNE01.JPG,AFNE01.JPG,AFNE01.JPG,AFNE01.JPG,AFNE01.JPG,,,,,,,,,3,8,38,8,,,,,,,,,,,,,,,AFSA05.jpg,AFNE17.jpg,AFSA13.jpg,AFNE16.jpg,AFSA05.jpg,FS,4,num_8,32,num_2,0.650106565736,,,2017_Oct_20_1148,60.0016743144,FEMA4ImagesEEG,001,201751,
AFNE01.JPG,AFNE01.JPG,AFNE01.JPG,AFNE01.JPG,AFNE01.JPG,AFNE01.JPG,,,,,,,,,3,9,39,2,,,,,,,,,,,,,,,AFSA16.jpg,AFNE17.jpg,AFNE14.jpg,AFSA10.jpg,AFSA10.jpg,FS,4,num_4,32,num_2,0.90013422945,,,2017_Oct_20_1148,60.0016743144,FEMA4ImagesEEG,001,201751,
AFNE01.JPG,AFNE01.JPG,AFNE01.JPG,AFNE01.JPG,AFNE01.JPG,AFNE01.JPG,,,,,,,,,4,0,40,9,,,,,,,,,,,,,,,AFNE05.jpg,AFNE07.jpg,AFSA14.jpg,AFSA15.jpg,AFNE05.jpg,FN,3,num_8,16,num_8,0.933438215114,,,2017_Oct_20_1148,60.0016743144,FEMA4ImagesEEG,001,201751,
AFNE01.JPG,AFNE01.JPG,AFNE01.JPG,AFNE01.JPG,AFNE01.JPG,AFNE01.JPG,,,,,,,,,4,1,41,2,,,,,,,,,,,,,,,AFSA07.jpg,AFNE01.jpg,AFNE09.jpg,AFSA01.jpg,AFNE09.jpg,FN,3,num_2,32,num_8,3.08330374508,,,2017_Oct_20_1148,60.0016743144,FEMA4ImagesEEG,001,201751,
AFNE01.JPG,AFNE01.JPG,AFNE01.JPG,AFNE01.JPG,AFNE01.JPG,AFNE01.JPG,,,,,,,,,4,2,42,1,,,,,,,,,,,,,,,AFSA14.jpg,AFNE15.jpg,AFNE05.jpg,AFSA18.jpg,AFNE05.jpg,FN,3,num_2,16,num_2,0.96704016783,,,2017_Oct_20_1148,60.0016743144,FEMA4ImagesEEG,001,201751,
AFNE01.JPG,AFNE01.JPG,AFNE01.JPG,AFNE01.JPG,AFNE01.JPG,AFNE01.JPG,,,,,,,,,4,3,43,6,,,,,,,,,,,,,,,AFNE02.jpg,AFSA08.jpg,AFNE16.jpg,AFSA12.jpg,AFSA08.jpg,FS,4,num_6,32,num_2,1.96675791702,,,2017_Oct_20_1148,60.0016743144,FEMA4ImagesEEG,001,201751,
AFNE01.JPG,AFNE01.JPG,AFNE01.JPG,AFNE01.JPG,AFNE01.JPG,AFNE01.JPG,,,,,,,,,4,4,44,7,,,,,,,,,,,,,,,AFNE10.jpg,AFNE05.jpg,AFSA09.jpg,AFSA02.jpg,AFSA02.jpg,FS,4,num_4,16,num_4,0.550125970447,,,2017_Oct_20_1148,60.0016743144,FEMA4ImagesEEG,001,201751,
AFNE01.JPG,AFNE01.JPG,AFNE01.JPG,AFNE01.JPG,AFNE01.JPG,AFNE01.JPG,,,,,,,,,4,5,45,5,,,,,,,,,,,,,,,AFNE20.jpg,AFSA08.jpg,AFSA01.jpg,AFNE13.jpg,AFSA01.jpg,FS,4,num_2,16,num_2,0.666762888548,,,2017_Oct_20_1148,60.0016743144,FEMA4ImagesEEG,001,201751,
AFNE01.JPG,AFNE01.JPG,AFNE01.JPG,AFNE01.JPG,AFNE01.JPG,AFNE01.JPG,,,,,,,,,4,6,46,8,,,,,,,,,,,,,,,AFSA14.jpg,AFNE10.jpg,AFSA19.jpg,AFNE19.jpg,AFSA14.jpg,FS,4,num_8,16,num_8,1.01673265884,,,2017_Oct_20_1148,60.0016743144,FEMA4ImagesEEG,001,201751,
AFNE01.JPG,AFNE01.JPG,AFNE01.JPG,AFNE01.JPG,AFNE01.JPG,AFNE01.JPG,,,,,,,,,4,7,47,0,,,,,,,,,,,,,,,AFSA12.jpg,AFNE15.jpg,AFSA03.jpg,AFNE20.jpg,AFSA03.jpg,FS,4,num_2,32,num_8,2.25001162681,,,2017_Oct_20_1148,60.0016743144,FEMA4ImagesEEG,001,201751,
AFNE01.JPG,AFNE01.JPG,AFNE01.JPG,AFNE01.JPG,AFNE01.JPG,AFNE01.JPG,,,,,,,,,4,8,48,4,,,,,,,,,,,,,,,AFSA16.jpg,AFNE01.jpg,AFSA07.jpg,AFNE04.jpg,AFNE04.jpg,FN,3,num_4,32,num_8,2.38330518844,,,2017_Oct_20_1148,60.0016743144,FEMA4ImagesEEG,001,201751,
AFNE01.JPG,AFNE01.JPG,AFNE01.JPG,AFNE01.JPG,AFNE01.JPG,AFNE01.JPG,,,,,,,,,4,9,49,3,,,,,,,,,,,,,,,AFNE15.jpg,AFSA05.jpg,AFSA13.jpg,AFNE04.jpg,AFSA13.jpg,FS,4,num_2,16,num_2,1.06676705816,,,2017_Oct_20_1148,60.0016743144,FEMA4ImagesEEG,001,201751,
AFNE01.JPG,AFNE01.JPG,AFNE01.JPG,AFNE01.JPG,AFNE01.JPG,AFNE01.JPG,,,,,,,,,5,0,50,5,,,,,,,,,,,,,,,AFNE03.jpg,AFSA05.jpg,AFNE02.jpg,AFSA01.jpg,AFNE02.jpg,FN,3,num_2,16,num_2,1.73337053909,,,2017_Oct_20_1148,60.0016743144,FEMA4ImagesEEG,001,201751,
AFNE01.JPG,AFNE01.JPG,AFNE01.JPG,AFNE01.JPG,AFNE01.JPG,AFNE01.JPG,,,,,,,,,5,1,51,9,,,,,,,,,,,,,,,AFSA20.jpg,AFNE04.jpg,AFNE17.jpg,AFSA13.jpg,AFNE04.jpg,FN,3,num_6,32,num_8,0.916739233944,,,2017_Oct_20_1148,60.0016743144,FEMA4ImagesEEG,001,201751,
AFNE01.JPG,AFNE01.JPG,AFNE01.JPG,AFNE01.JPG,AFNE01.JPG,AFNE01.JPG,,,,,,,,,5,2,52,7,,,,,,,,,,,,,,,AFSA19.jpg,AFNE19.jpg,AFNE04.jpg,AFSA07.jpg,AFSA07.jpg,FS,4,num_4,16,num_4,0.800084675197,,,2017_Oct_20_1148,60.0016743144,FEMA4ImagesEEG,001,201751,
AFNE01.JPG,AFNE01.JPG,AFNE01.JPG,AFNE01.JPG,AFNE01.JPG,AFNE01.JPG,,,,,,,,,5,3,53,1,,,,,,,,,,,,,,,AFNE10.jpg,AFSA18.jpg,AFNE02.jpg,AFSA05.jpg,AFNE10.jpg,FN,3,num_8,16,num_8,1.43341977266,,,2017_Oct_20_1148,60.0016743144,FEMA4ImagesEEG,001,201751,
AFNE01.JPG,AFNE01.JPG,AFNE01.JPG,AFNE01.JPG,AFNE01.JPG,AFNE01.JPG,,,,,,,,,5,4,54,4,,,,,,,,,,,,,,,AFSA07.jpg,AFNE10.jpg,AFSA18.jpg,AFNE09.jpg,AFSA18.jpg,FS,4,num_2,32,num_4,1.85011298046,,,2017_Oct_20_1148,60.0016743144,FEMA4ImagesEEG,001,201751,
AFNE01.JPG,AFNE01.JPG,AFNE01.JPG,AFNE01.JPG,AFNE01.JPG,AFNE01.JPG,,,,,,,,,5,5,55,3,,,,,,,,,,,,,,,AFSA11.jpg,AFNE02.jpg,AFNE19.jpg,AFSA10.jpg,AFSA11.jpg,FS,4,num_8,16,num_8,0.833430036262,,,2017_Oct_20_1148,60.0016743144,FEMA4ImagesEEG,001,201751,
AFNE01.JPG,AFNE01.JPG,AFNE01.JPG,AFNE01.JPG,AFNE01.JPG,AFNE01.JPG,,,,,,,,,5,6,56,2,,,,,,,,,,,,,,,AFSA13.jpg,AFNE12.jpg,AFSA05.jpg,AFNE18.jpg,AFSA13.jpg,FS,4,num_8,32,num_2,1.35009068908,,,2017_Oct_20_1148,60.0016743144,FEMA4ImagesEEG,001,201751,
AFNE01.JPG,AFNE01.JPG,AFNE01.JPG,AFNE01.JPG,AFNE01.JPG,AFNE01.JPG,,,,,,,,,5,7,57,8,,,,,,,,,,,,,,,AFSA15.jpg,AFSA01.jpg,AFNE17.jpg,AFNE14.jpg,AFNE14.jpg,FN,3,num_4,16,num_4,0.916771307937,,,2017_Oct_20_1148,60.0016743144,FEMA4ImagesEEG,001,201751,
AFNE01.JPG,AFNE01.JPG,AFNE01.JPG,AFNE01.JPG,AFNE01.JPG,AFNE01.JPG,,,,,,,,,5,8,58,6,,,,,,,,,,,,,,,AFNE20.jpg,AFSA16.jpg,AFNE09.jpg,AFSA07.jpg,AFSA16.jpg,FS,4,num_6,16,num_6,2.54999190132,,,2017_Oct_20_1148,60.0016743144,FEMA4ImagesEEG,001,201751,
AFNE01.JPG,AFNE01.JPG,AFNE01.JPG,AFNE01.JPG,AFNE01.JPG,AFNE01.JPG,,,,,,,,,5,9,59,0,,,,,,,,,,,,,,,AFNE17.jpg,AFSA13.jpg,AFSA15.jpg,AFNE14.jpg,AFNE14.jpg,FN,3,num_4,16,num_4,1.03343292297,,,2017_Oct_20_1148,60.0016743144,FEMA4ImagesEEG,001,201751,
,,,,,,,,,,,,,,,,,,,,,,,,,,,,,,,,,,,,,,,,,,,space,40.5136325512,2017_Oct_20_1148,60.0016743144,FEMA4ImagesEEG,001,201751,
AFNE01.JPG,AFNE01.JPG,AFNE01.JPG,AFNE01.JPG,AFNE01.JPG,AFNE01.JPG,,,,,,,,,,,,,0,0,0,9,,,,,,,,,,,AMNE18.jpg,AMSA15.jpg,AMSA18.jpg,AMNE06.jpg,AMSA18.jpg,MS,2,num_2,16,num_2,0.60012893728,,,2017_Oct_20_1148,60.0016743144,FEMA4ImagesEEG,001,201751,
AFNE01.JPG,AFNE01.JPG,AFNE01.JPG,AFNE01.JPG,AFNE01.JPG,AFNE01.JPG,,,,,,,,,,,,,0,1,1,5,,,,,,,,,,,AMSA20.jpg,AMNE14.jpg,AMNE17.jpg,AMSA05.jpg,AMNE17.jpg,MN,1,num_2,16,num_2,0.750159968797,,,2017_Oct_20_1148,60.0016743144,FEMA4ImagesEEG,001,201751,
AFNE01.JPG,AFNE01.JPG,AFNE01.JPG,AFNE01.JPG,AFNE01.JPG,AFNE01.JPG,,,,,,,,,,,,,0,2,2,7,,,,,,,,,,,AMNE19.jpg,AMNE20.jpg,AMSA04.jpg,AMSA13.jpg,AMNE19.jpg,MN,1,num_8,32,num_6,1.21675703506,,,2017_Oct_20_1148,60.0016743144,FEMA4ImagesEEG,001,201751,
AFNE01.JPG,AFNE01.JPG,AFNE01.JPG,AFNE01.JPG,AFNE01.JPG,AFNE01.JPG,,,,,,,,,,,,,0,3,3,3,,,,,,,,,,,AMNE13.jpg,AMSA10.jpg,AMSA08.jpg,AMNE12.jpg,AMNE13.jpg,MN,1,num_8,16,num_8,1.71669593413,,,2017_Oct_20_1148,60.0016743144,FEMA4ImagesEEG,001,201751,
AFNE01.JPG,AFNE01.JPG,AFNE01.JPG,AFNE01.JPG,AFNE01.JPG,AFNE01.JPG,,,,,,,,,,,,,0,4,4,0,,,,,,,,,,,AMNE01.jpg,AMSA09.jpg,AMSA11.jpg,AMNE06.jpg,AMNE01.jpg,MN,1,num_8,32,num_4,1.45005300216,,,2017_Oct_20_1148,60.0016743144,FEMA4ImagesEEG,001,201751,
AFNE01.JPG,AFNE01.JPG,AFNE01.JPG,AFNE01.JPG,AFNE01.JPG,AFNE01.JPG,,,,,,,,,,,,,0,5,5,1,,,,,,,,,,,AMNE14.jpg,AMSA16.jpg,AMSA04.jpg,AMNE08.jpg,AMNE14.jpg,MN,1,num_8,16,num_8,1.23369625007,,,2017_Oct_20_1148,60.0016743144,FEMA4ImagesEEG,001,201751,
AFNE01.JPG,AFNE01.JPG,AFNE01.JPG,AFNE01.JPG,AFNE01.JPG,AFNE01.JPG,,,,,,,,,,,,,0,6,6,8,,,,,,,,,,,AMNE06.jpg,AMSA08.jpg,AMNE17.jpg,AMSA13.jpg,AMSA08.jpg,MS,2,num_6,16,num_6,1.25009020796,,,2017_Oct_20_1148,60.0016743144,FEMA4ImagesEEG,001,201751,
AFNE01.JPG,AFNE01.JPG,AFNE01.JPG,AFNE01.JPG,AFNE01.JPG,AFNE01.JPG,,,,,,,,,,,,,0,7,7,4,,,,,,,,,,,AMSA03.jpg,AMNE16.jpg,AMSA15.jpg,AMNE17.jpg,AMSA15.jpg,MS,2,num_2,32,num_6,1.25006743544,,,2017_Oct_20_1148,60.0016743144,FEMA4ImagesEEG,001,201751,
AFNE01.JPG,AFNE01.JPG,AFNE01.JPG,AFNE01.JPG,AFNE01.JPG,AFNE01.JPG,,,,,,,,,,,,,0,8,8,2,,,,,,,,,,,AMNE10.jpg,AMSA11.jpg,AMNE05.jpg,AMSA13.jpg,AMSA11.jpg,MS,2,num_6,16,num_6,1.08343685203,,,2017_Oct_20_1148,60.0016743144,FEMA4ImagesEEG,001,201751,
AFNE01.JPG,AFNE01.JPG,AFNE01.JPG,AFNE01.JPG,AFNE01.JPG,AFNE01.JPG,,,,,,,,,,,,,0,9,9,6,,,,,,,,,,,AMNE01.jpg,AMSA02.jpg,AMSA16.jpg,AMNE11.jpg,AMSA16.jpg,MS,2,num_2,32,num_8,1.11672480067,,,2017_Oct_20_1148,60.0016743144,FEMA4ImagesEEG,001,201751,
AFNE01.JPG,AFNE01.JPG,AFNE01.JPG,AFNE01.JPG,AFNE01.JPG,AFNE01.JPG,,,,,,,,,,,,,1,0,10,4,,,,,,,,,,,AMNE17.jpg,AMNE19.jpg,AMSA15.jpg,AMSA05.jpg,AMNE17.jpg,MN,1,num_8,16,num_8,0.683374307817,,,2017_Oct_20_1148,60.0016743144,FEMA4ImagesEEG,001,201751,
AFNE01.JPG,AFNE01.JPG,AFNE01.JPG,AFNE01.JPG,AFNE01.JPG,AFNE01.JPG,,,,,,,,,,,,,1,1,11,7,,,,,,,,,,,AMSA19.jpg,AMNE12.jpg,AMSA14.jpg,AMNE13.jpg,AMSA14.jpg,MS,2,num_2,16,num_2,0.883499396208,,,2017_Oct_20_1148,60.0016743144,FEMA4ImagesEEG,001,201751,
AFNE01.JPG,AFNE01.JPG,AFNE01.JPG,AFNE01.JPG,AFNE01.JPG,AFNE01.JPG,,,,,,,,,,,,,1,2,12,5,,,,,,,,,,,AMNE09.jpg,AMSA14.jpg,AMSA15.jpg,AMNE16.jpg,AMNE16.jpg,MN,1,num_4,16,num_4,2.23337230313,,,2017_Oct_20_1148,60.0016743144,FEMA4ImagesEEG,001,201751,
AFNE01.JPG,AFNE01.JPG,AFNE01.JPG,AFNE01.JPG,AFNE01.JPG,AFNE01.JPG,,,,,,,,,,,,,1,3,13,2,,,,,,,,,,,AMNE07.jpg,AMNE15.jpg,AMSA01.jpg,AMSA07.jpg,AMSA01.jpg,MS,2,num_2,16,num_2,0.750186269463,,,2017_Oct_20_1148,60.0016743144,FEMA4ImagesEEG,001,201751,
AFNE01.JPG,AFNE01.JPG,AFNE01.JPG,AFNE01.JPG,AFNE01.JPG,AFNE01.JPG,,,,,,,,,,,,,1,4,14,6,,,,,,,,,,,AMNE07.jpg,AMSA08.jpg,AMNE09.jpg,AMSA02.jpg,AMNE07.jpg,MN,1,num_8,16,num_8,1.18320126884,,,2017_Oct_20_1148,60.0016743144,FEMA4ImagesEEG,001,201751,
AFNE01.JPG,AFNE01.JPG,AFNE01.JPG,AFNE01.JPG,AFNE01.JPG,AFNE01.JPG,,,,,,,,,,,,,1,5,15,8,,,,,,,,,,,AMNE19.jpg,AMNE08.jpg,AMSA18.jpg,AMSA19.jpg,AMSA19.jpg,MS,2,num_4,16,num_4,1.68369440583,,,2017_Oct_20_1148,60.0016743144,FEMA4ImagesEEG,001,201751,
AFNE01.JPG,AFNE01.JPG,AFNE01.JPG,AFNE01.JPG,AFNE01.JPG,AFNE01.JPG,,,,,,,,,,,,,1,6,16,3,,,,,,,,,,,AMSA05.jpg,AMNE04.jpg,AMNE16.jpg,AMSA07.jpg,AMSA05.jpg,MS,2,num_8,16,num_8,1.73344174324,,,2017_Oct_20_1148,60.0016743144,FEMA4ImagesEEG,001,201751,
AFNE01.JPG,AFNE01.JPG,AFNE01.JPG,AFNE01.JPG,AFNE01.JPG,AFNE01.JPG,,,,,,,,,,,,,1,7,17,1,,,,,,,,,,,AMNE19.jpg,AMSA19.jpg,AMSA10.jpg,AMNE16.jpg,AMNE19.jpg,MN,1,num_8,16,num_8,1.05013928114,,,2017_Oct_20_1148,60.0016743144,FEMA4ImagesEEG,001,201751,
AFNE01.JPG,AFNE01.JPG,AFNE01.JPG,AFNE01.JPG,AFNE01.JPG,AFNE01.JPG,,,,,,,,,,,,,1,8,18,9,,,,,,,,,,,AMSA07.jpg,AMNE18.jpg,AMSA03.jpg,AMNE03.jpg,AMNE03.jpg,MN,1,num_4,32,num_8,2.01666947315,,,2017_Oct_20_1148,60.0016743144,FEMA4ImagesEEG,001,201751,
AFNE01.JPG,AFNE01.JPG,AFNE01.JPG,AFNE01.JPG,AFNE01.JPG,AFNE01.JPG,,,,,,,,,,,,,1,9,19,0,,,,,,,,,,,AMNE13.jpg,AMSA15.jpg,AMNE19.jpg,AMSA13.jpg,AMNE13.jpg,MN,1,num_8,16,num_8,0.966751502303,,,2017_Oct_20_1148,60.0016743144,FEMA4ImagesEEG,001,201751,
AFNE01.JPG,AFNE01.JPG,AFNE01.JPG,AFNE01.JPG,AFNE01.JPG,AFNE01.JPG,,,,,,,,,,,,,2,0,20,5,,,,,,,,,,,AMNE17.jpg,AMNE09.jpg,AMSA12.jpg,AMSA18.jpg,AMNE17.jpg,MN,1,num_8,16,num_8,1.45002926746,,,2017_Oct_20_1148,60.0016743144,FEMA4ImagesEEG,001,201751,
AFNE01.JPG,AFNE01.JPG,AFNE01.JPG,AFNE01.JPG,AFNE01.JPG,AFNE01.JPG,,,,,,,,,,,,,2,1,21,6,,,,,,,,,,,AMSA16.jpg,AMSA20.jpg,AMNE09.jpg,AMNE14.jpg,AMSA20.jpg,MS,2,num_6,32,num_4,1.18339820288,,,2017_Oct_20_1148,60.0016743144,FEMA4ImagesEEG,001,201751,
AFNE01.JPG,AFNE01.JPG,AFNE01.JPG,AFNE01.JPG,AFNE01.JPG,AFNE01.JPG,,,,,,,,,,,,,2,2,22,0,,,,,,,,,,,AMSA13.jpg,AMNE08.jpg,AMNE01.jpg,AMSA06.jpg,AMNE08.jpg,MN,1,num_6,16,num_6,0.966815008665,,,2017_Oct_20_1148,60.0016743144,FEMA4ImagesEEG,001,201751,
AFNE01.JPG,AFNE01.JPG,AFNE01.JPG,AFNE01.JPG,AFNE01.JPG,AFNE01.JPG,,,,,,,,,,,,,2,3,23,1,,,,,,,,,,,AMNE09.jpg,AMSA06.jpg,AMSA02.jpg,AMNE03.jpg,AMSA06.jpg,MS,2,num_6,32,num_4,3.06629140145,,,2017_Oct_20_1148,60.0016743144,FEMA4ImagesEEG,001,201751,
AFNE01.JPG,AFNE01.JPG,AFNE01.JPG,AFNE01.JPG,AFNE01.JPG,AFNE01.JPG,,,,,,,,,,,,,2,4,24,9,,,,,,,,,,,AMNE19.jpg,AMSA05.jpg,AMNE12.jpg,AMSA04.jpg,AMSA05.jpg,MS,2,num_6,16,num_6,0.633488090185,,,2017_Oct_20_1148,60.0016743144,FEMA4ImagesEEG,001,201751,
AFNE01.JPG,AFNE01.JPG,AFNE01.JPG,AFNE01.JPG,AFNE01.JPG,AFNE01.JPG,,,,,,,,,,,,,2,5,25,3,,,,,,,,,,,AMNE17.jpg,AMSA16.jpg,AMSA03.jpg,AMNE09.jpg,AMNE09.jpg,MN,1,num_4,16,num_4,1.20007248718,,,2017_Oct_20_1148,60.0016743144,FEMA4ImagesEEG,001,201751,
AFNE01.JPG,AFNE01.JPG,AFNE01.JPG,AFNE01.JPG,AFNE01.JPG,AFNE01.JPG,,,,,,,,,,,,,2,6,26,7,,,,,,,,,,,AMSA05.jpg,AMNE18.jpg,AMNE04.jpg,AMSA14.jpg,AMSA05.jpg,MS,2,num_8,32,num_6,1.53338914202,,,2017_Oct_20_1148,60.0016743144,FEMA4ImagesEEG,001,201751,
AFNE01.JPG,AFNE01.JPG,AFNE01.JPG,AFNE01.JPG,AFNE01.JPG,AFNE01.JPG,,,,,,,,,,,,,2,7,27,8,,,,,,,,,,,AMSA14.jpg,AMSA16.jpg,AMNE08.jpg,AMNE09.jpg,AMSA16.jpg,MS,2,num_6,32,num_8,1.23340501863,,,2017_Oct_20_1148,60.0016743144,FEMA4ImagesEEG,001,201751,
AFNE01.JPG,AFNE01.JPG,AFNE01.JPG,AFNE01.JPG,AFNE01.JPG,AFNE01.JPG,,,,,,,,,,,,,2,8,28,4,,,,,,,,,,,AMSA07.jpg,AMSA15.jpg,AMNE16.jpg,AMNE04.jpg,AMNE16.jpg,MN,1,num_2,32,num_6,1.0501084901,,,2017_Oct_20_1148,60.0016743144,FEMA4ImagesEEG,001,201751,
AFNE01.JPG,AFNE01.JPG,AFNE01.JPG,AFNE01.JPG,AFNE01.JPG,AFNE01.JPG,,,,,,,,,,,,,2,9,29,2,,,,,,,,,,,AMNE15.jpg,AMNE04.jpg,AMSA10.jpg,AMSA11.jpg,AMNE04.jpg,MN,1,num_6,32,num_4,1.40015523793,,,2017_Oct_20_1148,60.0016743144,FEMA4ImagesEEG,001,201751,
AFNE01.JPG,AFNE01.JPG,AFNE01.JPG,AFNE01.JPG,AFNE01.JPG,AFNE01.JPG,,,,,,,,,,,,,3,0,30,2,,,,,,,,,,,AMNE03.jpg,AMSA19.jpg,AMNE05.jpg,AMSA10.jpg,AMNE03.jpg,MN,1,num_8,32,num_2,2.06663780013,,,2017_Oct_20_1148,60.0016743144,FEMA4ImagesEEG,001,201751,
AFNE01.JPG,AFNE01.JPG,AFNE01.JPG,AFNE01.JPG,AFNE01.JPG,AFNE01.JPG,,,,,,,,,,,,,3,1,31,5,,,,,,,,,,,AMSA04.jpg,AMNE05.jpg,AMNE01.jpg,AMSA05.jpg,AMSA05.jpg,MS,2,num_4,16,num_4,1.08339002402,,,2017_Oct_20_1148,60.0016743144,FEMA4ImagesEEG,001,201751,
AFNE01.JPG,AFNE01.JPG,AFNE01.JPG,AFNE01.JPG,AFNE01.JPG,AFNE01.JPG,,,,,,,,,,,,,3,2,32,9,,,,,,,,,,,AMSA10.jpg,AMNE10.jpg,AMNE09.jpg,AMSA04.jpg,AMNE10.jpg,MN,1,num_6,32,num_8,1.15004514408,,,2017_Oct_20_1148,60.0016743144,FEMA4ImagesEEG,001,201751,
AFNE01.JPG,AFNE01.JPG,AFNE01.JPG,AFNE01.JPG,AFNE01.JPG,AFNE01.JPG,,,,,,,,,,,,,3,3,33,0,,,,,,,,,,,AMSA06.jpg,AMNE08.jpg,AMNE09.jpg,AMSA04.jpg,AMSA06.jpg,MS,2,num_8,16,num_8,0.633454733237,,,2017_Oct_20_1148,60.0016743144,FEMA4ImagesEEG,001,201751,
AFNE01.JPG,AFNE01.JPG,AFNE01.JPG,AFNE01.JPG,AFNE01.JPG,AFNE01.JPG,,,,,,,,,,,,,3,4,34,3,,,,,,,,,,,AMSA14.jpg,AMSA15.jpg,AMNE06.jpg,AMNE12.jpg,AMSA15.jpg,MS,2,num_6,16,num_6,1.71670748078,,,2017_Oct_20_1148,60.0016743144,FEMA4ImagesEEG,001,201751,
AFNE01.JPG,AFNE01.JPG,AFNE01.JPG,AFNE01.JPG,AFNE01.JPG,AFNE01.JPG,,,,,,,,,,,,,3,5,35,4,,,,,,,,,,,AMSA12.jpg,AMSA05.jpg,AMNE06.jpg,AMNE05.jpg,AMNE06.jpg,MN,1,num_2,16,num_2,1.43338032172,,,2017_Oct_20_1148,60.0016743144,FEMA4ImagesEEG,001,201751,
AFNE01.JPG,AFNE01.JPG,AFNE01.JPG,AFNE01.JPG,AFNE01.JPG,AFNE01.JPG,,,,,,,,,,,,,3,6,36,7,,,,,,,,,,,AMSA20.jpg,AMNE14.jpg,AMNE05.jpg,AMSA08.jpg,AMNE14.jpg,MN,1,num_6,16,num_6,0.550244644051,,,2017_Oct_20_1148,60.0016743144,FEMA4ImagesEEG,001,201751,
AFNE01.JPG,AFNE01.JPG,AFNE01.JPG,AFNE01.JPG,AFNE01.JPG,AFNE01.JPG,,,,,,,,,,,,,3,7,37,8,,,,,,,,,,,AMNE11.jpg,AMNE15.jpg,AMSA10.jpg,AMSA11.jpg,AMSA11.jpg,MS,2,num_4,16,num_4,0.916733460617,,,2017_Oct_20_1148,60.0016743144,FEMA4ImagesEEG,001,201751,
AFNE01.JPG,AFNE01.JPG,AFNE01.JPG,AFNE01.JPG,AFNE01.JPG,AFNE01.JPG,,,,,,,,,,,,,3,8,38,1,,,,,,,,,,,AMSA16.jpg,AMNE11.jpg,AMNE08.jpg,AMSA17.jpg,AMNE11.jpg,MN,1,num_6,16,num_6,1.94982704119,,,2017_Oct_20_1148,60.0016743144,FEMA4ImagesEEG,001,201751,
AFNE01.JPG,AFNE01.JPG,AFNE01.JPG,AFNE01.JPG,AFNE01.JPG,AFNE01.JPG,,,,,,,,,,,,,3,9,39,6,,,,,,,,,,,AMSA16.jpg,AMNE20.jpg,AMSA14.jpg,AMNE17.jpg,AMNE20.jpg,MN,1,num_6,32,num_4,1.60005741235,,,2017_Oct_20_1148,60.0016743144,FEMA4ImagesEEG,001,201751,
AFNE01.JPG,AFNE01.JPG,AFNE01.JPG,AFNE01.JPG,AFNE01.JPG,AFNE01.JPG,,,,,,,,,,,,,4,0,40,1,,,,,,,,,,,AMSA01.jpg,AMSA05.jpg,AMNE07.jpg,AMNE12.jpg,AMNE12.jpg,MN,1,num_4,16,num_4,1.16678710433,,,2017_Oct_20_1148,60.0016743144,FEMA4ImagesEEG,001,201751,
AFNE01.JPG,AFNE01.JPG,AFNE01.JPG,AFNE01.JPG,AFNE01.JPG,AFNE01.JPG,,,,,,,,,,,,,4,1,41,4,,,,,,,,,,,AMNE12.jpg,AMSA17.jpg,AMNE17.jpg,AMSA15.jpg,AMNE17.jpg,MN,1,num_2,32,num_6,1.70007906231,,,2017_Oct_20_1148,60.0016743144,FEMA4ImagesEEG,001,201751,
AFNE01.JPG,AFNE01.JPG,AFNE01.JPG,AFNE01.JPG,AFNE01.JPG,AFNE01.JPG,,,,,,,,,,,,,4,2,42,2,,,,,,,,,,,AMSA16.jpg,AMNE09.jpg,AMSA10.jpg,AMNE04.jpg,AMSA10.jpg,MS,2,num_2,16,num_2,1.9499944672,,,2017_Oct_20_1148,60.0016743144,FEMA4ImagesEEG,001,201751,
AFNE01.JPG,AFNE01.JPG,AFNE01.JPG,AFNE01.JPG,AFNE01.JPG,AFNE01.JPG,,,,,,,,,,,,,4,3,43,6,,,,,,,,,,,AMSA16.jpg,AMSA12.jpg,AMNE09.jpg,AMNE08.jpg,AMNE08.jpg,MN,1,num_4,32,num_8,2.1496987454,,,2017_Oct_20_1148,60.0016743144,FEMA4ImagesEEG,001,201751,
AFNE01.JPG,AFNE01.JPG,AFNE01.JPG,AFNE01.JPG,AFNE01.JPG,AFNE01.JPG,,,,,,,,,,,,,4,4,44,9,,,,,,,,,,,AMNE17.jpg,AMSA06.jpg,AMNE05.jpg,AMSA16.jpg,AMSA06.jpg,MS,2,num_6,32,num_4,0.866787264706,,,2017_Oct_20_1148,60.0016743144,FEMA4ImagesEEG,001,201751,
AFNE01.JPG,AFNE01.JPG,AFNE01.JPG,AFNE01.JPG,AFNE01.JPG,AFNE01.JPG,,,,,,,,,,,,,4,5,45,8,,,,,,,,,,,AMNE10.jpg,AMSA15.jpg,AMNE17.jpg,AMSA02.jpg,AMSA02.jpg,MS,2,num_4,16,num_4,0.766767859983,,,2017_Oct_20_1148,60.0016743144,FEMA4ImagesEEG,001,201751,
AFNE01.JPG,AFNE01.JPG,AFNE01.JPG,AFNE01.JPG,AFNE01.JPG,AFNE01.JPG,,,,,,,,,,,,,4,6,46,0,,,,,,,,,,,AMSA04.jpg,AMNE12.jpg,AMNE04.jpg,AMSA07.jpg,AMSA07.jpg,MS,2,num_4,32,num_2,2.56687594921,,,2017_Oct_20_1148,60.0016743144,FEMA4ImagesEEG,001,201751,
AFNE01.JPG,AFNE01.JPG,AFNE01.JPG,AFNE01.JPG,AFNE01.JPG,AFNE01.JPG,,,,,,,,,,,,,4,7,47,3,,,,,,,,,,,AMNE06.jpg,AMSA16.jpg,AMSA03.jpg,AMNE20.jpg,AMSA16.jpg,MS,2,num_6,16,num_6,1.05013158335,,,2017_Oct_20_1148,60.0016743144,FEMA4ImagesEEG,001,201751,
AFNE01.JPG,AFNE01.JPG,AFNE01.JPG,AFNE01.JPG,AFNE01.JPG,AFNE01.JPG,,,,,,,,,,,,,4,8,48,5,,,,,,,,,,,AMSA20.jpg,AMSA15.jpg,AMNE14.jpg,AMNE05.jpg,AMNE14.jpg,MN,1,num_2,32,num_8,1.51675045985,,,2017_Oct_20_1148,60.0016743144,FEMA4ImagesEEG,001,201751,
AFNE01.JPG,AFNE01.JPG,AFNE01.JPG,AFNE01.JPG,AFNE01.JPG,AFNE01.JPG,,,,,,,,,,,,,4,9,49,7,,,,,,,,,,,AMSA05.jpg,AMNE16.jpg,AMSA10.jpg,AMNE11.jpg,AMNE11.jpg,MN,1,num_4,16,num_4,0.766747332644,,,2017_Oct_20_1148,60.0016743144,FEMA4ImagesEEG,001,201751,
AFNE01.JPG,AFNE01.JPG,AFNE01.JPG,AFNE01.JPG,AFNE01.JPG,AFNE01.JPG,,,,,,,,,,,,,5,0,50,4,,,,,,,,,,,AMNE10.jpg,AMNE11.jpg,AMSA16.jpg,AMSA17.jpg,AMSA17.jpg,MS,2,num_4,16,num_4,0.583435408713,,,2017_Oct_20_1148,60.0016743144,FEMA4ImagesEEG,001,201751,
AFNE01.JPG,AFNE01.JPG,AFNE01.JPG,AFNE01.JPG,AFNE01.JPG,AFNE01.JPG,,,,,,,,,,,,,5,1,51,7,,,,,,,,,,,AMSA02.jpg,AMSA04.jpg,AMNE20.jpg,AMNE18.jpg,AMSA02.jpg,MS,2,num_8,32,num_6,2.11666129431,,,2017_Oct_20_1148,60.0016743144,FEMA4ImagesEEG,001,201751,
AFNE01.JPG,AFNE01.JPG,AFNE01.JPG,AFNE01.JPG,AFNE01.JPG,AFNE01.JPG,,,,,,,,,,,,,5,2,52,6,,,,,,,,,,,AMSA14.jpg,AMNE16.jpg,AMSA04.jpg,AMNE08.jpg,AMSA04.jpg,MS,2,num_2,16,num_2,0.516808193002,,,2017_Oct_20_1148,60.0016743144,FEMA4ImagesEEG,001,201751,
AFNE01.JPG,AFNE01.JPG,AFNE01.JPG,AFNE01.JPG,AFNE01.JPG,AFNE01.JPG,,,,,,,,,,,,,5,3,53,0,,,,,,,,,,,AMNE14.jpg,AMSA15.jpg,AMNE09.jpg,AMSA08.jpg,AMNE09.jpg,MN,1,num_2,16,num_2,1.91664012551,,,2017_Oct_20_1148,60.0016743144,FEMA4ImagesEEG,001,201751,
AFNE01.JPG,AFNE01.JPG,AFNE01.JPG,AFNE01.JPG,AFNE01.JPG,AFNE01.JPG,,,,,,,,,,,,,5,4,54,5,,,,,,,,,,,AMNE01.jpg,AMSA10.jpg,AMSA20.jpg,AMNE09.jpg,AMSA10.jpg,MS,2,num_6,16,num_6,1.20007986412,,,2017_Oct_20_1148,60.0016743144,FEMA4ImagesEEG,001,201751,
AFNE01.JPG,AFNE01.JPG,AFNE01.JPG,AFNE01.JPG,AFNE01.JPG,AFNE01.JPG,,,,,,,,,,,,,5,5,55,9,,,,,,,,,,,AMNE20.jpg,AMSA15.jpg,AMSA03.jpg,AMNE18.jpg,AMNE18.jpg,MN,1,num_4,32,num_8,2.0833415924,,,2017_Oct_20_1148,60.0016743144,FEMA4ImagesEEG,001,201751,
AFNE01.JPG,AFNE01.JPG,AFNE01.JPG,AFNE01.JPG,AFNE01.JPG,AFNE01.JPG,,,,,,,,,,,,,5,6,56,8,,,,,,,,,,,AMNE14.jpg,AMNE19.jpg,AMSA19.jpg,AMSA15.jpg,AMSA19.jpg,MS,2,num_2,32,num_8,1.6001000707,,,2017_Oct_20_1148,60.0016743144,FEMA4ImagesEEG,001,201751,
AFNE01.JPG,AFNE01.JPG,AFNE01.JPG,AFNE01.JPG,AFNE01.JPG,AFNE01.JPG,,,,,,,,,,,,,5,7,57,2,,,,,,,,,,,AMNE14.jpg,AMSA02.jpg,AMSA16.jpg,AMNE08.jpg,AMSA02.jpg,MS,2,num_6,32,num_4,2.08336693083,,,2017_Oct_20_1148,60.0016743144,FEMA4ImagesEEG,001,201751,
AFNE01.JPG,AFNE01.JPG,AFNE01.JPG,AFNE01.JPG,AFNE01.JPG,AFNE01.JPG,,,,,,,,,,,,,5,8,58,1,,,,,,,,,,,AMSA20.jpg,AMNE05.jpg,AMNE17.jpg,AMSA16.jpg,AMNE05.jpg,MN,1,num_6,16,num_6,1.33343468705,,,2017_Oct_20_1148,60.0016743144,FEMA4ImagesEEG,001,201751,
AFNE01.JPG,AFNE01.JPG,AFNE01.JPG,AFNE01.JPG,AFNE01.JPG,AFNE01.JPG,,,,,,,,,,,,,5,9,59,3,,,,,,,,,,,AMNE09.jpg,AMSA15.jpg,AMSA19.jpg,AMNE14.jpg,AMSA15.jpg,MS,2,num_6,16,num_6,2.68328257633,,,2017_Oct_20_1148,60.0016743144,FEMA4ImagesEEG,001,201751,
,,,,,,,,,,,,,,,,,,,,,,,,,,,,,,,,,,,,,,,,,,,space,70.8442986149,2017_Oct_20_1148,60.0016743144,FEMA4ImagesEEG,001,201751,
AFNE01.JPG,AFNE01.JPG,AFNE01.JPG,AFNE01.JPG,AFNE01.JPG,AFNE01.JPG,,,,,,,,,,,,,,,,,0,0,0,5,,,,,,,AFNE07.jpg,AFSA18.jpg,AFNE06.jpg,AFSA15.jpg,AFSA18.jpg,FS,4,num_6,16,num_6,0.733474779467,,,2017_Oct_20_1148,60.0016743144,FEMA4ImagesEEG,001,201751,
AFNE01.JPG,AFNE01.JPG,AFNE01.JPG,AFNE01.JPG,AFNE01.JPG,AFNE01.JPG,,,,,,,,,,,,,,,,,0,1,1,0,,,,,,,AFNE15.jpg,AFNE19.jpg,AFSA02.jpg,AFSA14.jpg,AFNE19.jpg,FN,3,num_6,16,num_6,0.700117551023,,,2017_Oct_20_1148,60.0016743144,FEMA4ImagesEEG,001,201751,
AFNE01.JPG,AFNE01.JPG,AFNE01.JPG,AFNE01.JPG,AFNE01.JPG,AFNE01.JPG,,,,,,,,,,,,,,,,,0,2,2,9,,,,,,,AFNE15.jpg,AFSA10.jpg,AFSA11.jpg,AFNE07.jpg,AFNE15.jpg,FN,3,num_8,16,num_8,1.06696431292,,,2017_Oct_20_1148,60.0016743144,FEMA4ImagesEEG,001,201751,
AFNE01.JPG,AFNE01.JPG,AFNE01.JPG,AFNE01.JPG,AFNE01.JPG,AFNE01.JPG,,,,,,,,,,,,,,,,,0,3,3,7,,,,,,,AFSA02.jpg,AFSA14.jpg,AFNE02.jpg,AFNE01.jpg,AFSA14.jpg,FS,4,num_6,32,num_4,1.16670242912,,,2017_Oct_20_1148,60.0016743144,FEMA4ImagesEEG,001,201751,
AFNE01.JPG,AFNE01.JPG,AFNE01.JPG,AFNE01.JPG,AFNE01.JPG,AFNE01.JPG,,,,,,,,,,,,,,,,,0,4,4,2,,,,,,,AFNE19.jpg,AFSA16.jpg,AFSA10.jpg,AFNE04.jpg,AFSA16.jpg,FS,4,num_6,32,num_8,2.43333124853,,,2017_Oct_20_1148,60.0016743144,FEMA4ImagesEEG,001,201751,
AFNE01.JPG,AFNE01.JPG,AFNE01.JPG,AFNE01.JPG,AFNE01.JPG,AFNE01.JPG,,,,,,,,,,,,,,,,,0,5,5,1,,,,,,,AFNE19.jpg,AFSA17.jpg,AFNE12.jpg,AFSA07.jpg,AFSA07.jpg,FS,4,num_4,16,num_4,0.683445832692,,,2017_Oct_20_1148,60.0016743144,FEMA4ImagesEEG,001,201751,
AFNE01.JPG,AFNE01.JPG,AFNE01.JPG,AFNE01.JPG,AFNE01.JPG,AFNE01.JPG,,,,,,,,,,,,,,,,,0,6,6,4,,,,,,,AFSA01.jpg,AFSA13.jpg,AFNE01.jpg,AFNE19.jpg,AFNE19.jpg,FN,3,num_4,32,num_8,1.11674276215,,,2017_Oct_20_1148,60.0016743144,FEMA4ImagesEEG,001,201751,
AFNE01.JPG,AFNE01.JPG,AFNE01.JPG,AFNE01.JPG,AFNE01.JPG,AFNE01.JPG,,,,,,,,,,,,,,,,,0,7,7,3,,,,,,,AFSA14.jpg,AFSA03.jpg,AFNE05.jpg,AFNE18.jpg,AFSA14.jpg,FS,4,num_8,32,num_4,1.16672071122,,,2017_Oct_20_1148,60.0016743144,FEMA4ImagesEEG,001,201751,
AFNE01.JPG,AFNE01.JPG,AFNE01.JPG,AFNE01.JPG,AFNE01.JPG,AFNE01.JPG,,,,,,,,,,,,,,,,,0,8,8,8,,,,,,,AFSA07.jpg,AFNE20.jpg,AFSA19.jpg,AFNE13.jpg,AFNE20.jpg,FN,3,num_6,32,num_4,1.80005677091,,,2017_Oct_20_1148,60.0016743144,FEMA4ImagesEEG,001,201751,
AFNE01.JPG,AFNE01.JPG,AFNE01.JPG,AFNE01.JPG,AFNE01.JPG,AFNE01.JPG,,,,,,,,,,,,,,,,,0,9,9,6,,,,,,,AFSA11.jpg,AFNE18.jpg,AFSA06.jpg,AFNE10.jpg,AFNE18.jpg,FN,3,num_6,32,num_2,2.34996592143,,,2017_Oct_20_1148,60.0016743144,FEMA4ImagesEEG,001,201751,
AFNE01.JPG,AFNE01.JPG,AFNE01.JPG,AFNE01.JPG,AFNE01.JPG,AFNE01.JPG,,,,,,,,,,,,,,,,,1,0,10,7,,,,,,,AFSA11.jpg,AFNE10.jpg,AFNE09.jpg,AFSA06.jpg,AFSA11.jpg,FS,4,num_8,16,num_8,0.816766336444,,,2017_Oct_20_1148,60.0016743144,FEMA4ImagesEEG,001,201751,
AFNE01.JPG,AFNE01.JPG,AFNE01.JPG,AFNE01.JPG,AFNE01.JPG,AFNE01.JPG,,,,,,,,,,,,,,,,,1,1,11,5,,,,,,,AFSA09.jpg,AFNE06.jpg,AFSA02.jpg,AFNE11.jpg,AFSA09.jpg,FS,4,num_8,16,num_8,1.61672624404,,,2017_Oct_20_1148,60.0016743144,FEMA4ImagesEEG,001,201751,
AFNE01.JPG,AFNE01.JPG,AFNE01.JPG,AFNE01.JPG,AFNE01.JPG,AFNE01.JPG,,,,,,,,,,,,,,,,,1,2,12,9,,,,,,,AFNE18.jpg,AFNE14.jpg,AFSA01.jpg,AFSA06.jpg,AFSA06.jpg,FS,4,num_4,16,num_4,1.98334816756,,,2017_Oct_20_1148,60.0016743144,FEMA4ImagesEEG,001,201751,
AFNE01.JPG,AFNE01.JPG,AFNE01.JPG,AFNE01.JPG,AFNE01.JPG,AFNE01.JPG,,,,,,,,,,,,,,,,,1,3,13,4,,,,,,,AFSA10.jpg,AFSA14.jpg,AFNE16.jpg,AFNE12.jpg,AFNE16.jpg,FN,3,num_2,32,num_4,1.38341488136,,,2017_Oct_20_1148,60.0016743144,FEMA4ImagesEEG,001,201751,
AFNE01.JPG,AFNE01.JPG,AFNE01.JPG,AFNE01.JPG,AFNE01.JPG,AFNE01.JPG,,,,,,,,,,,,,,,,,1,4,14,1,,,,,,,AFSA16.jpg,AFNE10.jpg,AFNE15.jpg,AFSA01.jpg,AFSA16.jpg,FS,4,num_8,16,num_8,0.966595302161,,,2017_Oct_20_1148,60.0016743144,FEMA4ImagesEEG,001,201751,
AFNE01.JPG,AFNE01.JPG,AFNE01.JPG,AFNE01.JPG,AFNE01.JPG,AFNE01.JPG,,,,,,,,,,,,,,,,,1,5,15,2,,,,,,,AFNE14.jpg,AFSA04.jpg,AFSA19.jpg,AFNE05.jpg,AFSA19.jpg,FS,4,num_2,16,num_2,1.18340461771,,,2017_Oct_20_1148,60.0016743144,FEMA4ImagesEEG,001,201751,
AFNE01.JPG,AFNE01.JPG,AFNE01.JPG,AFNE01.JPG,AFNE01.JPG,AFNE01.JPG,,,,,,,,,,,,,,,,,1,6,16,6,,,,,,,AFSA17.jpg,AFNE16.jpg,AFNE03.jpg,AFSA18.jpg,AFNE16.jpg,FN,3,num_6,32,num_2,2.36666778929,,,2017_Oct_20_1148,60.0016743144,FEMA4ImagesEEG,001,201751,
AFNE01.JPG,AFNE01.JPG,AFNE01.JPG,AFNE01.JPG,AFNE01.JPG,AFNE01.JPG,,,,,,,,,,,,,,,,,1,7,17,8,,,,,,,AFSA06.jpg,AFNE01.jpg,AFNE19.jpg,AFSA07.jpg,AFNE19.jpg,FN,3,num_2,16,num_2,2.08320848545,,,2017_Oct_20_1148,60.0016743144,FEMA4ImagesEEG,001,201751,
AFNE01.JPG,AFNE01.JPG,AFNE01.JPG,AFNE01.JPG,AFNE01.JPG,AFNE01.JPG,,,,,,,,,,,,,,,,,1,8,18,0,,,,,,,AFSA19.jpg,AFSA07.jpg,AFNE09.jpg,AFNE08.jpg,AFNE09.jpg,FN,3,num_2,16,num_2,0.983457539696,,,2017_Oct_20_1148,60.0016743144,FEMA4ImagesEEG,001,201751,
AFNE01.JPG,AFNE01.JPG,AFNE01.JPG,AFNE01.JPG,AFNE01.JPG,AFNE01.JPG,,,,,,,,,,,,,,,,,1,9,19,3,,,,,,,AFNE10.jpg,AFNE14.jpg,AFSA06.jpg,AFSA14.jpg,AFSA14.jpg,FS,4,num_4,32,num_8,2.18304057833,,,2017_Oct_20_1148,60.0016743144,FEMA4ImagesEEG,001,201751,
AFNE01.JPG,AFNE01.JPG,AFNE01.JPG,AFNE01.JPG,AFNE01.JPG,AFNE01.JPG,,,,,,,,,,,,,,,,,2,0,20,0,,,,,,,AFSA03.jpg,AFNE04.jpg,AFNE15.jpg,AFSA01.jpg,AFSA03.jpg,FS,4,num_8,32,num_6,1.40003913024,,,2017_Oct_20_1148,60.0016743144,FEMA4ImagesEEG,001,201751,
AFNE01.JPG,AFNE01.JPG,AFNE01.JPG,AFNE01.JPG,AFNE01.JPG,AFNE01.JPG,,,,,,,,,,,,,,,,,2,1,21,6,,,,,,,AFSA16.jpg,AFNE17.jpg,AFNE13.jpg,AFSA12.jpg,AFSA12.jpg,FS,4,num_4,16,num_4,0.733439498115,,,2017_Oct_20_1148,60.0016743144,FEMA4ImagesEEG,001,201751,
AFNE01.JPG,AFNE01.JPG,AFNE01.JPG,AFNE01.JPG,AFNE01.JPG,AFNE01.JPG,,,,,,,,,,,,,,,,,2,2,22,5,,,,,,,AFNE11.jpg,AFSA09.jpg,AFSA16.jpg,AFNE06.jpg,AFNE11.jpg,FN,3,num_8,32,num_6,1.61698187341,,,2017_Oct_20_1148,60.0016743144,FEMA4ImagesEEG,001,201751,
AFNE01.JPG,AFNE01.JPG,AFNE01.JPG,AFNE01.JPG,AFNE01.JPG,AFNE01.JPG,,,,,,,,,,,,,,,,,2,3,23,2,,,,,,,AFNE15.jpg,AFSA03.jpg,AFNE06.jpg,AFSA13.jpg,AFNE15.jpg,FN,3,num_8,16,num_8,0.717024371377,,,2017_Oct_20_1148,60.0016743144,FEMA4ImagesEEG,001,201751,
AFNE01.JPG,AFNE01.JPG,AFNE01.JPG,AFNE01.JPG,AFNE01.JPG,AFNE01.JPG,,,,,,,,,,,,,,,,,2,4,24,7,,,,,,,AFSA14.jpg,AFNE06.jpg,AFNE11.jpg,AFSA08.jpg,AFNE06.jpg,FN,3,num_6,32,num_8,2.4499724966,,,2017_Oct_20_1148,60.0016743144,FEMA4ImagesEEG,001,201751,
AFNE01.JPG,AFNE01.JPG,AFNE01.JPG,AFNE01.JPG,AFNE01.JPG,AFNE01.JPG,,,,,,,,,,,,,,,,,2,5,25,1,,,,,,,AFSA03.jpg,AFNE16.jpg,AFSA13.jpg,AFNE19.jpg,AFNE19.jpg,FN,3,num_4,16,num_4,0.733096627635,,,2017_Oct_20_1148,60.0016743144,FEMA4ImagesEEG,001,201751,
AFNE01.JPG,AFNE01.JPG,AFNE01.JPG,AFNE01.JPG,AFNE01.JPG,AFNE01.JPG,,,,,,,,,,,,,,,,,2,6,26,8,,,,,,,AFSA18.jpg,AFNE20.jpg,AFSA08.jpg,AFNE08.jpg,AFSA18.jpg,FS,4,num_8,32,num_2,2.99995509651,,,2017_Oct_20_1148,60.0016743144,FEMA4ImagesEEG,001,201751,
AFNE01.JPG,AFNE01.JPG,AFNE01.JPG,AFNE01.JPG,AFNE01.JPG,AFNE01.JPG,,,,,,,,,,,,,,,,,2,7,27,3,,,,,,,AFSA06.jpg,AFSA09.jpg,AFNE19.jpg,AFNE02.jpg,AFSA09.jpg,FS,4,num_6,16,num_6,0.866778604744,,,2017_Oct_20_1148,60.0016743144,FEMA4ImagesEEG,001,201751,
AFNE01.JPG,AFNE01.JPG,AFNE01.JPG,AFNE01.JPG,AFNE01.JPG,AFNE01.JPG,,,,,,,,,,,,,,,,,2,8,28,9,,,,,,,AFSA07.jpg,AFSA14.jpg,AFNE09.jpg,AFNE11.jpg,AFNE11.jpg,FN,3,num_4,16,num_4,0.450162374356,,,2017_Oct_20_1148,60.0016743144,FEMA4ImagesEEG,001,201751,
AFNE01.JPG,AFNE01.JPG,AFNE01.JPG,AFNE01.JPG,AFNE01.JPG,AFNE01.JPG,,,,,,,,,,,,,,,,,2,9,29,4,,,,,,,AFNE14.jpg,AFNE10.jpg,AFSA10.jpg,AFSA05.jpg,AFSA05.jpg,FS,4,num_4,16,num_4,0.850116829388,,,2017_Oct_20_1148,60.0016743144,FEMA4ImagesEEG,001,201751,
AFNE01.JPG,AFNE01.JPG,AFNE01.JPG,AFNE01.JPG,AFNE01.JPG,AFNE01.JPG,,,,,,,,,,,,,,,,,3,0,30,9,,,,,,,AFNE15.jpg,AFNE18.jpg,AFSA05.jpg,AFSA18.jpg,AFNE15.jpg,FN,3,num_8,16,num_8,0.750089726876,,,2017_Oct_20_1148,60.0016743144,FEMA4ImagesEEG,001,201751,
AFNE01.JPG,AFNE01.JPG,AFNE01.JPG,AFNE01.JPG,AFNE01.JPG,AFNE01.JPG,,,,,,,,,,,,,,,,,3,1,31,4,,,,,,,AFNE15.jpg,AFSA07.jpg,AFSA19.jpg,AFNE08.jpg,AFSA07.jpg,FS,4,num_6,16,num_6,1.86678149144,,,2017_Oct_20_1148,60.0016743144,FEMA4ImagesEEG,001,201751,
AFNE01.JPG,AFNE01.JPG,AFNE01.JPG,AFNE01.JPG,AFNE01.JPG,AFNE01.JPG,,,,,,,,,,,,,,,,,3,2,32,7,,,,,,,AFSA06.jpg,AFNE17.jpg,AFNE02.jpg,AFSA08.jpg,AFNE17.jpg,FN,3,num_6,32,num_4,1.23345505394,,,2017_Oct_20_1148,60.0016743144,FEMA4ImagesEEG,001,201751,
AFNE01.JPG,AFNE01.JPG,AFNE01.JPG,AFNE01.JPG,AFNE01.JPG,AFNE01.JPG,,,,,,,,,,,,,,,,,3,3,33,3,,,,,,,AFSA06.jpg,AFNE09.jpg,AFNE11.jpg,AFSA20.jpg,AFSA20.jpg,FS,4,num_4,16,num_4,1.26669809915,,,2017_Oct_20_1148,60.0016743144,FEMA4ImagesEEG,001,201751,
AFNE01.JPG,AFNE01.JPG,AFNE01.JPG,AFNE01.JPG,AFNE01.JPG,AFNE01.JPG,,,,,,,,,,,,,,,,,3,4,34,6,,,,,,,AFSA20.jpg,AFNE20.jpg,AFNE07.jpg,AFSA17.jpg,AFSA17.jpg,FS,4,num_4,16,num_4,0.83345569548,,,2017_Oct_20_1148,60.0016743144,FEMA4ImagesEEG,001,201751,
AFNE01.JPG,AFNE01.JPG,AFNE01.JPG,AFNE01.JPG,AFNE01.JPG,AFNE01.JPG,,,,,,,,,,,,,,,,,3,5,35,1,,,,,,,AFNE12.jpg,AFSA05.jpg,AFNE02.jpg,AFSA03.jpg,AFNE02.jpg,FN,3,num_2,32,num_8,1.98340044805,,,2017_Oct_20_1148,60.0016743144,FEMA4ImagesEEG,001,201751,
AFNE01.JPG,AFNE01.JPG,AFNE01.JPG,AFNE01.JPG,AFNE01.JPG,AFNE01.JPG,,,,,,,,,,,,,,,,,3,6,36,8,,,,,,,AFSA13.jpg,AFNE10.jpg,AFSA20.jpg,AFNE15.jpg,AFSA20.jpg,FS,4,num_2,16,num_2,1.31665680395,,,2017_Oct_20_1148,60.0016743144,FEMA4ImagesEEG,001,201751,
AFNE01.JPG,AFNE01.JPG,AFNE01.JPG,AFNE01.JPG,AFNE01.JPG,AFNE01.JPG,,,,,,,,,,,,,,,,,3,7,37,5,,,,,,,AFNE13.jpg,AFSA18.jpg,AFSA20.jpg,AFNE16.jpg,AFSA20.jpg,FS,4,num_2,16,num_2,0.683499075472,,,2017_Oct_20_1148,60.0016743144,FEMA4ImagesEEG,001,201751,
AFNE01.JPG,AFNE01.JPG,AFNE01.JPG,AFNE01.JPG,AFNE01.JPG,AFNE01.JPG,,,,,,,,,,,,,,,,,3,8,38,2,,,,,,,AFNE12.jpg,AFNE05.jpg,AFSA04.jpg,AFSA17.jpg,AFNE12.jpg,FN,3,num_8,16,num_8,1.90011562657,,,2017_Oct_20_1148,60.0016743144,FEMA4ImagesEEG,001,201751,
AFNE01.JPG,AFNE01.JPG,AFNE01.JPG,AFNE01.JPG,AFNE01.JPG,AFNE01.JPG,,,,,,,,,,,,,,,,,3,9,39,0,,,,,,,AFSA09.jpg,AFNE16.jpg,AFSA12.jpg,AFNE02.jpg,AFSA12.jpg,FS,4,num_2,16,num_2,0.783450804185,,,2017_Oct_20_1148,60.0016743144,FEMA4ImagesEEG,001,201751,
AFNE01.JPG,AFNE01.JPG,AFNE01.JPG,AFNE01.JPG,AFNE01.JPG,AFNE01.JPG,,,,,,,,,,,,,,,,,4,0,40,0,,,,,,,AFSA09.jpg,AFSA20.jpg,AFNE09.jpg,AFNE06.jpg,AFNE09.jpg,FN,3,num_2,16,num_2,0.716794401174,,,2017_Oct_20_1148,60.0016743144,FEMA4ImagesEEG,001,201751,
AFNE01.JPG,AFNE01.JPG,AFNE01.JPG,AFNE01.JPG,AFNE01.JPG,AFNE01.JPG,,,,,,,,,,,,,,,,,4,1,41,1,,,,,,,AFNE05.jpg,AFSA07.jpg,AFSA17.jpg,AFNE11.jpg,AFSA17.jpg,FS,4,num_2,16,num_2,1.46672023018,,,2017_Oct_20_1148,60.0016743144,FEMA4ImagesEEG,001,201751,
AFNE01.JPG,AFNE01.JPG,AFNE01.JPG,AFNE01.JPG,AFNE01.JPG,AFNE01.JPG,,,,,,,,,,,,,,,,,4,2,42,3,,,,,,,AFNE13.jpg,AFSA15.jpg,AFSA19.jpg,AFNE11.jpg,AFSA19.jpg,FS,4,num_2,32,num_8,2.16669761803,,,2017_Oct_20_1148,60.0016743144,FEMA4ImagesEEG,001,201751,
AFNE01.JPG,AFNE01.JPG,AFNE01.JPG,AFNE01.JPG,AFNE01.JPG,AFNE01.JPG,,,,,,,,,,,,,,,,,4,3,43,5,,,,,,,AFNE11.jpg,AFSA13.jpg,AFSA03.jpg,AFNE20.jpg,AFSA03.jpg,FS,4,num_2,16,num_2,0.683447115647,,,2017_Oct_20_1148,60.0016743144,FEMA4ImagesEEG,001,201751,
AFNE01.JPG,AFNE01.JPG,AFNE01.JPG,AFNE01.JPG,AFNE01.JPG,AFNE01.JPG,,,,,,,,,,,,,,,,,4,4,44,9,,,,,,,AFNE11.jpg,AFNE02.jpg,AFSA18.jpg,AFSA10.jpg,AFSA18.jpg,FS,4,num_2,16,num_2,1.11672544217,,,2017_Oct_20_1148,60.0016743144,FEMA4ImagesEEG,001,201751,
AFNE01.JPG,AFNE01.JPG,AFNE01.JPG,AFNE01.JPG,AFNE01.JPG,AFNE01.JPG,,,,,,,,,,,,,,,,,4,5,45,2,,,,,,,AFNE05.jpg,AFSA01.jpg,AFNE15.jpg,AFSA12.jpg,AFSA12.jpg,FS,4,num_4,16,num_4,0.733472855005,,,2017_Oct_20_1148,60.0016743144,FEMA4ImagesEEG,001,201751,
AFNE01.JPG,AFNE01.JPG,AFNE01.JPG,AFNE01.JPG,AFNE01.JPG,AFNE01.JPG,,,,,,,,,,,,,,,,,4,6,46,4,,,,,,,AFNE05.jpg,AFSA01.jpg,AFSA16.jpg,AFNE04.jpg,AFNE04.jpg,FN,3,num_4,16,num_4,1.06675262481,,,2017_Oct_20_1148,60.0016743144,FEMA4ImagesEEG,001,201751,
AFNE01.JPG,AFNE01.JPG,AFNE01.JPG,AFNE01.JPG,AFNE01.JPG,AFNE01.JPG,,,,,,,,,,,,,,,,,4,7,47,7,,,,,,,AFSA10.jpg,AFNE10.jpg,AFNE05.jpg,AFSA08.jpg,AFSA08.jpg,FS,4,num_4,16,num_4,1.0999831612,,,2017_Oct_20_1148,60.0016743144,FEMA4ImagesEEG,001,201751,
AFNE01.JPG,AFNE01.JPG,AFNE01.JPG,AFNE01.JPG,AFNE01.JPG,AFNE01.JPG,,,,,,,,,,,,,,,,,4,8,48,6,,,,,,,AFSA19.jpg,AFNE06.jpg,AFSA20.jpg,AFNE12.jpg,AFSA20.jpg,FS,4,num_2,16,num_2,2.56659883028,,,2017_Oct_20_1148,60.0016743144,FEMA4ImagesEEG,001,201751,
AFNE01.JPG,AFNE01.JPG,AFNE01.JPG,AFNE01.JPG,AFNE01.JPG,AFNE01.JPG,,,,,,,,,,,,,,,,,4,9,49,8,,,,,,,AFNE07.jpg,AFSA11.jpg,AFSA02.jpg,AFNE08.jpg,AFNE08.jpg,FN,3,num_4,16,num_4,1.7666610537,,,2017_Oct_20_1148,60.0016743144,FEMA4ImagesEEG,001,201751,
AFNE01.JPG,AFNE01.JPG,AFNE01.JPG,AFNE01.JPG,AFNE01.JPG,AFNE01.JPG,,,,,,,,,,,,,,,,,5,0,50,6,,,,,,,AFSA01.jpg,AFNE12.jpg,AFSA11.jpg,AFNE15.jpg,AFNE12.jpg,FN,3,num_6,16,num_6,0.716766496829,,,2017_Oct_20_1148,60.0016743144,FEMA4ImagesEEG,001,201751,
AFNE01.JPG,AFNE01.JPG,AFNE01.JPG,AFNE01.JPG,AFNE01.JPG,AFNE01.JPG,,,,,,,,,,,,,,,,,5,1,51,9,,,,,,,AFSA15.jpg,AFSA07.jpg,AFNE08.jpg,AFNE20.jpg,AFNE08.jpg,FN,3,num_2,16,num_2,1.35005027591,,,2017_Oct_20_1148,60.0016743144,FEMA4ImagesEEG,001,201751,
AFNE01.JPG,AFNE01.JPG,AFNE01.JPG,AFNE01.JPG,AFNE01.JPG,AFNE01.JPG,,,,,,,,,,,,,,,,,5,2,52,4,,,,,,,AFNE08.jpg,AFSA15.jpg,AFSA12.jpg,AFNE13.jpg,AFSA15.jpg,FS,4,num_6,16,num_6,0.500139361306,,,2017_Oct_20_1148,60.0016743144,FEMA4ImagesEEG,001,201751,
AFNE01.JPG,AFNE01.JPG,AFNE01.JPG,AFNE01.JPG,AFNE01.JPG,AFNE01.JPG,,,,,,,,,,,,,,,,,5,3,53,7,,,,,,,AFNE13.jpg,AFSA17.jpg,AFNE17.jpg,AFSA11.jpg,AFSA11.jpg,FS,4,num_4,16,num_4,0.46677251067,,,2017_Oct_20_1148,60.0016743144,FEMA4ImagesEEG,001,201751,
AFNE01.JPG,AFNE01.JPG,AFNE01.JPG,AFNE01.JPG,AFNE01.JPG,AFNE01.JPG,,,,,,,,,,,,,,,,,5,4,54,8,,,,,,,AFSA05.jpg,AFNE11.jpg,AFSA14.jpg,AFNE07.jpg,AFNE07.jpg,FN,3,num_4,16,num_4,0.733468685416,,,2017_Oct_20_1148,60.0016743144,FEMA4ImagesEEG,001,201751,
AFNE01.JPG,AFNE01.JPG,AFNE01.JPG,AFNE01.JPG,AFNE01.JPG,AFNE01.JPG,,,,,,,,,,,,,,,,,5,5,55,5,,,,,,,AFSA10.jpg,AFSA18.jpg,AFNE08.jpg,AFNE17.jpg,AFNE08.jpg,FN,3,num_2,16,num_2,1.15008106688,,,2017_Oct_20_1148,60.0016743144,FEMA4ImagesEEG,001,201751,
AFNE01.JPG,AFNE01.JPG,AFNE01.JPG,AFNE01.JPG,AFNE01.JPG,AFNE01.JPG,,,,,,,,,,,,,,,,,5,6,56,0,,,,,,,AFNE01.jpg,AFSA15.jpg,AFNE14.jpg,AFSA05.jpg,AFNE01.jpg,FN,3,num_8,32,num_2,0.666782774322,,,2017_Oct_20_1148,60.0016743144,FEMA4ImagesEEG,001,201751,
AFNE01.JPG,AFNE01.JPG,AFNE01.JPG,AFNE01.JPG,AFNE01.JPG,AFNE01.JPG,,,,,,,,,,,,,,,,,5,7,57,2,,,,,,,AFSA14.jpg,AFNE20.jpg,AFSA13.jpg,AFNE18.jpg,AFSA13.jpg,FS,4,num_2,16,num_2,0.600108730665,,,2017_Oct_20_1148,60.0016743144,FEMA4ImagesEEG,001,201751,
AFNE01.JPG,AFNE01.JPG,AFNE01.JPG,AFNE01.JPG,AFNE01.JPG,AFNE01.JPG,,,,,,,,,,,,,,,,,5,8,58,1,,,,,,,AFSA17.jpg,AFNE12.jpg,AFSA02.jpg,AFNE20.jpg,AFSA02.jpg,FS,4,num_2,32,num_8,2.06663170608,,,2017_Oct_20_1148,60.0016743144,FEMA4ImagesEEG,001,201751,
AFNE01.JPG,AFNE01.JPG,AFNE01.JPG,AFNE01.JPG,AFNE01.JPG,AFNE01.JPG,,,,,,,,,,,,,,,,,5,9,59,3,,,,,,,AFNE07.jpg,AFSA07.jpg,AFNE03.jpg,AFSA20.jpg,AFSA20.jpg,FS,4,num_4,16,num_4,0.567393622769,,,2017_Oct_20_1148,60.0016743144,FEMA4ImagesEEG,001,201751,
,,,,,,,,,,,,,,,,,,,,,,,,,,,,,,,,,,,,,,,,,,,space,41.4302354709,2017_Oct_20_1148,60.0016743144,FEMA4ImagesEEG,001,201751,
AFNE01.JPG,AFNE01.JPG,AFNE01.JPG,AFNE01.JPG,AFNE01.JPG,AFNE01.JPG,,,,,,,,,,,,,,,,,,,,,0,0,0,5,,,AMNE16.jpg,AMSA13.jpg,AMSA09.jpg,AMNE08.jpg,AMSA13.jpg,MS,2,num_6,32,num_2,1.43339828309,,,2017_Oct_20_1148,60.0016743144,FEMA4ImagesEEG,001,201751,
AFNE01.JPG,AFNE01.JPG,AFNE01.JPG,AFNE01.JPG,AFNE01.JPG,AFNE01.JPG,,,,,,,,,,,,,,,,,,,,,0,1,1,7,,,AMSA06.jpg,AMNE03.jpg,AMSA19.jpg,AMNE07.jpg,AMSA06.jpg,MS,2,num_8,32,num_6,2.45001162682,,,2017_Oct_20_1148,60.0016743144,FEMA4ImagesEEG,001,201751,
AFNE01.JPG,AFNE01.JPG,AFNE01.JPG,AFNE01.JPG,AFNE01.JPG,AFNE01.JPG,,,,,,,,,,,,,,,,,,,,,0,2,2,8,,,AMNE09.jpg,AMSA20.jpg,AMSA19.jpg,AMNE06.jpg,AMSA20.jpg,MS,2,num_6,16,num_6,0.733452648448,,,2017_Oct_20_1148,60.0016743144,FEMA4ImagesEEG,001,201751,
AFNE01.JPG,AFNE01.JPG,AFNE01.JPG,AFNE01.JPG,AFNE01.JPG,AFNE01.JPG,,,,,,,,,,,,,,,,,,,,,0,3,3,6,,,AMSA14.jpg,AMNE07.jpg,AMSA20.jpg,AMNE02.jpg,AMNE07.jpg,MN,1,num_6,32,num_4,2.16639099107,,,2017_Oct_20_1148,60.0016743144,FEMA4ImagesEEG,001,201751,
AFNE01.JPG,AFNE01.JPG,AFNE01.JPG,AFNE01.JPG,AFNE01.JPG,AFNE01.JPG,,,,,,,,,,,,,,,,,,,,,0,4,4,2,,,AMNE16.jpg,AMNE11.jpg,AMSA16.jpg,AMSA09.jpg,AMSA16.jpg,MS,2,num_2,16,num_2,0.700114664389,,,2017_Oct_20_1148,60.0016743144,FEMA4ImagesEEG,001,201751,
AFNE01.JPG,AFNE01.JPG,AFNE01.JPG,AFNE01.JPG,AFNE01.JPG,AFNE01.JPG,,,,,,,,,,,,,,,,,,,,,0,5,5,1,,,AMNE09.jpg,AMNE15.jpg,AMSA20.jpg,AMSA03.jpg,AMSA20.jpg,MS,2,num_2,32,num_4,0.766798330238,,,2017_Oct_20_1148,60.0016743144,FEMA4ImagesEEG,001,201751,
AFNE01.JPG,AFNE01.JPG,AFNE01.JPG,AFNE01.JPG,AFNE01.JPG,AFNE01.JPG,,,,,,,,,,,,,,,,,,,,,0,6,6,0,,,AMSA17.jpg,AMSA07.jpg,AMNE06.jpg,AMNE09.jpg,AMNE09.jpg,MN,1,num_4,16,num_4,1.15013655479,,,2017_Oct_20_1148,60.0016743144,FEMA4ImagesEEG,001,201751,
AFNE01.JPG,AFNE01.JPG,AFNE01.JPG,AFNE01.JPG,AFNE01.JPG,AFNE01.JPG,,,,,,,,,,,,,,,,,,,,,0,7,7,9,,,AMNE01.jpg,AMNE12.jpg,AMSA18.jpg,AMSA02.jpg,AMSA02.jpg,MS,2,num_4,32,num_8,1.8166617754,,,2017_Oct_20_1148,60.0016743144,FEMA4ImagesEEG,001,201751,
AFNE01.JPG,AFNE01.JPG,AFNE01.JPG,AFNE01.JPG,AFNE01.JPG,AFNE01.JPG,,,,,,,,,,,,,,,,,,,,,0,8,8,4,,,AMNE08.jpg,AMSA19.jpg,AMSA09.jpg,AMNE06.jpg,AMSA09.jpg,MS,2,num_2,16,num_2,2.26660668838,,,2017_Oct_20_1148,60.0016743144,FEMA4ImagesEEG,001,201751,
AFNE01.JPG,AFNE01.JPG,AFNE01.JPG,AFNE01.JPG,AFNE01.JPG,AFNE01.JPG,,,,,,,,,,,,,,,,,,,,,0,9,9,3,,,AMSA14.jpg,AMNE04.jpg,AMSA11.jpg,AMNE02.jpg,AMSA14.jpg,MS,2,num_8,16,num_8,0.950101273542,,,2017_Oct_20_1148,60.0016743144,FEMA4ImagesEEG,001,201751,
AFNE01.JPG,AFNE01.JPG,AFNE01.JPG,AFNE01.JPG,AFNE01.JPG,AFNE01.JPG,,,,,,,,,,,,,,,,,,,,,1,0,10,2,,,AMNE17.jpg,AMNE19.jpg,AMSA07.jpg,AMSA12.jpg,AMSA12.jpg,MS,2,num_4,16,num_4,1.53340197162,,,2017_Oct_20_1148,60.0016743144,FEMA4ImagesEEG,001,201751,
AFNE01.JPG,AFNE01.JPG,AFNE01.JPG,AFNE01.JPG,AFNE01.JPG,AFNE01.JPG,,,,,,,,,,,,,,,,,,,,,1,1,11,3,,,AMSA19.jpg,AMNE08.jpg,AMNE09.jpg,AMSA08.jpg,AMSA19.jpg,MS,2,num_8,16,num_8,0.733442063967,,,2017_Oct_20_1148,60.0016743144,FEMA4ImagesEEG,001,201751,
AFNE01.JPG,AFNE01.JPG,AFNE01.JPG,AFNE01.JPG,AFNE01.JPG,AFNE01.JPG,,,,,,,,,,,,,,,,,,,,,1,2,12,9,,,AMNE08.jpg,AMSA06.jpg,AMNE13.jpg,AMSA01.jpg,AMNE08.jpg,MN,1,num_8,32,num_4,2.10010055185,,,2017_Oct_20_1148,60.0016743144,FEMA4ImagesEEG,001,201751,
AFNE01.JPG,AFNE01.JPG,AFNE01.JPG,AFNE01.JPG,AFNE01.JPG,AFNE01.JPG,,,,,,,,,,,,,,,,,,,,,1,3,13,6,,,AMNE15.jpg,AMSA04.jpg,AMNE11.jpg,AMSA11.jpg,AMNE11.jpg,MN,1,num_2,16,num_2,0.949780854746,,,2017_Oct_20_1148,60.0016743144,FEMA4ImagesEEG,001,201751,
AFNE01.JPG,AFNE01.JPG,AFNE01.JPG,AFNE01.JPG,AFNE01.JPG,AFNE01.JPG,,,,,,,,,,,,,,,,,,,,,1,4,14,7,,,AMNE13.jpg,AMSA10.jpg,AMNE08.jpg,AMSA09.jpg,AMSA10.jpg,MS,2,num_6,32,num_4,2.39985534648,,,2017_Oct_20_1148,60.0016743144,FEMA4ImagesEEG,001,201751,
AFNE01.JPG,AFNE01.JPG,AFNE01.JPG,AFNE01.JPG,AFNE01.JPG,AFNE01.JPG,,,,,,,,,,,,,,,,,,,,,1,5,15,5,,,AMSA18.jpg,AMNE13.jpg,AMNE02.jpg,AMSA15.jpg,AMNE13.jpg,MN,1,num_6,32,num_8,1.98339178815,,,2017_Oct_20_1148,60.0016743144,FEMA4ImagesEEG,001,201751,
AFNE01.JPG,AFNE01.JPG,AFNE01.JPG,AFNE01.JPG,AFNE01.JPG,AFNE01.JPG,,,,,,,,,,,,,,,,,,,,,1,6,16,1,,,AMSA09.jpg,AMSA06.jpg,AMNE04.jpg,AMNE02.jpg,AMNE02.jpg,MN,1,num_4,16,num_4,1.01672207442,,,2017_Oct_20_1148,60.0016743144,FEMA4ImagesEEG,001,201751,
AFNE01.JPG,AFNE01.JPG,AFNE01.JPG,AFNE01.JPG,AFNE01.JPG,AFNE01.JPG,,,,,,,,,,,,,,,,,,,,,1,7,17,4,,,AMSA06.jpg,AMSA04.jpg,AMNE03.jpg,AMNE04.jpg,AMSA04.jpg,MS,2,num_6,16,num_6,1.53337567096,,,2017_Oct_20_1148,60.0016743144,FEMA4ImagesEEG,001,201751,
AFNE01.JPG,AFNE01.JPG,AFNE01.JPG,AFNE01.JPG,AFNE01.JPG,AFNE01.JPG,,,,,,,,,,,,,,,,,,,,,1,8,18,8,,,AMNE17.jpg,AMNE13.jpg,AMSA17.jpg,AMSA04.jpg,AMNE13.jpg,MN,1,num_6,16,num_6,1.53338433086,,,2017_Oct_20_1148,60.0016743144,FEMA4ImagesEEG,001,201751,
AFNE01.JPG,AFNE01.JPG,AFNE01.JPG,AFNE01.JPG,AFNE01.JPG,AFNE01.JPG,,,,,,,,,,,,,,,,,,,,,1,9,19,0,,,AMNE11.jpg,AMNE05.jpg,AMSA03.jpg,AMSA17.jpg,AMSA17.jpg,MS,2,num_4,16,num_4,0.750080425409,,,2017_Oct_20_1148,60.0016743144,FEMA4ImagesEEG,001,201751,
AFNE01.JPG,AFNE01.JPG,AFNE01.JPG,AFNE01.JPG,AFNE01.JPG,AFNE01.JPG,,,,,,,,,,,,,,,,,,,,,2,0,20,2,,,AMSA03.jpg,AMNE04.jpg,AMSA18.jpg,AMNE05.jpg,AMNE04.jpg,MN,1,num_6,32,num_4,1.2334515258,,,2017_Oct_20_1148,60.0016743144,FEMA4ImagesEEG,001,201751,
AFNE01.JPG,AFNE01.JPG,AFNE01.JPG,AFNE01.JPG,AFNE01.JPG,AFNE01.JPG,,,,,,,,,,,,,,,,,,,,,2,1,21,7,,,AMNE09.jpg,AMNE04.jpg,AMSA07.jpg,AMSA05.jpg,AMSA05.jpg,MS,2,num_4,32,num_8,1.11681011738,,,2017_Oct_20_1148,60.0016743144,FEMA4ImagesEEG,001,201751,
AFNE01.JPG,AFNE01.JPG,AFNE01.JPG,AFNE01.JPG,AFNE01.JPG,AFNE01.JPG,,,,,,,,,,,,,,,,,,,,,2,2,22,5,,,AMNE03.jpg,AMSA15.jpg,AMSA20.jpg,AMNE12.jpg,AMNE03.jpg,MN,1,num_8,32,num_2,1.83335851139,,,2017_Oct_20_1148,60.0016743144,FEMA4ImagesEEG,001,201751,
AFNE01.JPG,AFNE01.JPG,AFNE01.JPG,AFNE01.JPG,AFNE01.JPG,AFNE01.JPG,,,,,,,,,,,,,,,,,,,,,2,3,23,3,,,AMSA05.jpg,AMNE16.jpg,AMNE19.jpg,AMSA14.jpg,AMSA05.jpg,MS,2,num_8,32,num_6,1.10011755099,,,2017_Oct_20_1148,60.0016743144,FEMA4ImagesEEG,001,201751,
AFNE01.JPG,AFNE01.JPG,AFNE01.JPG,AFNE01.JPG,AFNE01.JPG,AFNE01.JPG,,,,,,,,,,,,,,,,,,,,,2,4,24,9,,,AMNE15.jpg,AMNE08.jpg,AMSA19.jpg,AMSA14.jpg,AMSA19.jpg,MS,2,num_2,16,num_2,0.783431239019,,,2017_Oct_20_1148,60.0016743144,FEMA4ImagesEEG,001,201751,
AFNE01.JPG,AFNE01.JPG,AFNE01.JPG,AFNE01.JPG,AFNE01.JPG,AFNE01.JPG,,,,,,,,,,,,,,,,,,,,,2,5,25,6,,,AMNE04.jpg,AMSA14.jpg,AMNE01.jpg,AMSA15.jpg,AMSA14.jpg,MS,2,num_6,16,num_6,0.933417046326,,,2017_Oct_20_1148,60.0016743144,FEMA4ImagesEEG,001,201751,
AFNE01.JPG,AFNE01.JPG,AFNE01.JPG,AFNE01.JPG,AFNE01.JPG,AFNE01.JPG,,,,,,,,,,,,,,,,,,,,,2,6,26,0,,,AMNE15.jpg,AMNE16.jpg,AMSA06.jpg,AMSA15.jpg,AMNE15.jpg,MN,1,num_8,32,num_4,1.48329219851,,,2017_Oct_20_1148,60.0016743144,FEMA4ImagesEEG,001,201751,
AFNE01.JPG,AFNE01.JPG,AFNE01.JPG,AFNE01.JPG,AFNE01.JPG,AFNE01.JPG,,,,,,,,,,,,,,,,,,,,,2,7,27,4,,,AMSA12.jpg,AMNE14.jpg,AMNE09.jpg,AMSA02.jpg,AMSA02.jpg,MS,2,num_4,16,num_4,0.666817414225,,,2017_Oct_20_1148,60.0016743144,FEMA4ImagesEEG,001,201751,
AFNE01.JPG,AFNE01.JPG,AFNE01.JPG,AFNE01.JPG,AFNE01.JPG,AFNE01.JPG,,,,,,,,,,,,,,,,,,,,,2,8,28,1,,,AMNE01.jpg,AMSA05.jpg,AMSA12.jpg,AMNE02.jpg,AMSA12.jpg,MS,2,num_2,32,num_4,1.48345545493,,,2017_Oct_20_1148,60.0016743144,FEMA4ImagesEEG,001,201751,
AFNE01.JPG,AFNE01.JPG,AFNE01.JPG,AFNE01.JPG,AFNE01.JPG,AFNE01.JPG,,,,,,,,,,,,,,,,,,,,,2,9,29,8,,,AMSA18.jpg,AMSA16.jpg,AMNE20.jpg,AMNE19.jpg,AMNE19.jpg,MN,1,num_4,16,num_4,1.43338545354,,,2017_Oct_20_1148,60.0016743144,FEMA4ImagesEEG,001,201751,
AFNE01.JPG,AFNE01.JPG,AFNE01.JPG,AFNE01.JPG,AFNE01.JPG,AFNE01.JPG,,,,,,,,,,,,,,,,,,,,,3,0,30,0,,,AMSA06.jpg,AMSA02.jpg,AMNE02.jpg,AMNE08.jpg,AMSA06.jpg,MS,2,num_8,16,num_8,1.11675142212,,,2017_Oct_20_1148,60.0016743144,FEMA4ImagesEEG,001,201751,
AFNE01.JPG,AFNE01.JPG,AFNE01.JPG,AFNE01.JPG,AFNE01.JPG,AFNE01.JPG,,,,,,,,,,,,,,,,,,,,,3,1,31,4,,,AMSA12.jpg,AMNE11.jpg,AMNE10.jpg,AMSA14.jpg,AMNE10.jpg,MN,1,num_2,16,num_2,2.75000473094,,,2017_Oct_20_1148,60.0016743144,FEMA4ImagesEEG,001,201751,
AFNE01.JPG,AFNE01.JPG,AFNE01.JPG,AFNE01.JPG,AFNE01.JPG,AFNE01.JPG,,,,,,,,,,,,,,,,,,,,,3,2,32,5,,,AMSA08.jpg,AMNE20.jpg,AMNE18.jpg,AMSA10.jpg,AMSA08.jpg,MS,2,num_8,16,num_8,1.31670651858,,,2017_Oct_20_1148,60.0016743144,FEMA4ImagesEEG,001,201751,
AFNE01.JPG,AFNE01.JPG,AFNE01.JPG,AFNE01.JPG,AFNE01.JPG,AFNE01.JPG,,,,,,,,,,,,,,,,,,,,,3,3,33,2,,,AMSA14.jpg,AMNE16.jpg,AMNE04.jpg,AMSA17.jpg,AMNE16.jpg,MN,1,num_6,32,num_8,1.08344005939,,,2017_Oct_20_1148,60.0016743144,FEMA4ImagesEEG,001,201751,
AFNE01.JPG,AFNE01.JPG,AFNE01.JPG,AFNE01.JPG,AFNE01.JPG,AFNE01.JPG,,,,,,,,,,,,,,,,,,,,,3,4,34,8,,,AMSA01.jpg,AMNE11.jpg,AMNE01.jpg,AMSA09.jpg,AMSA01.jpg,MS,2,num_8,32,num_2,0.716770666419,,,2017_Oct_20_1148,60.0016743144,FEMA4ImagesEEG,001,201751,
AFNE01.JPG,AFNE01.JPG,AFNE01.JPG,AFNE01.JPG,AFNE01.JPG,AFNE01.JPG,,,,,,,,,,,,,,,,,,,,,3,5,35,6,,,AMSA05.jpg,AMSA01.jpg,AMNE12.jpg,AMNE15.jpg,AMSA05.jpg,MS,2,num_8,16,num_8,1.46668719396,,,2017_Oct_20_1148,60.0016743144,FEMA4ImagesEEG,001,201751,
AFNE01.JPG,AFNE01.JPG,AFNE01.JPG,AFNE01.JPG,AFNE01.JPG,AFNE01.JPG,,,,,,,,,,,,,,,,,,,,,3,6,36,7,,,AMSA17.jpg,AMNE05.jpg,AMNE20.jpg,AMSA15.jpg,AMNE20.jpg,MN,1,num_2,16,num_2,0.683477265178,,,2017_Oct_20_1148,60.0016743144,FEMA4ImagesEEG,001,201751,
AFNE01.JPG,AFNE01.JPG,AFNE01.JPG,AFNE01.JPG,AFNE01.JPG,AFNE01.JPG,,,,,,,,,,,,,,,,,,,,,3,7,37,1,,,AMNE20.jpg,AMSA13.jpg,AMSA15.jpg,AMNE12.jpg,AMSA13.jpg,MS,2,num_6,32,num_4,1.28341183433,,,2017_Oct_20_1148,60.0016743144,FEMA4ImagesEEG,001,201751,
AFNE01.JPG,AFNE01.JPG,AFNE01.JPG,AFNE01.JPG,AFNE01.JPG,AFNE01.JPG,,,,,,,,,,,,,,,,,,,,,3,8,38,3,,,AMNE14.jpg,AMSA10.jpg,AMNE05.jpg,AMSA09.jpg,AMNE05.jpg,MN,1,num_2,16,num_2,0.883434927557,,,2017_Oct_20_1148,60.0016743144,FEMA4ImagesEEG,001,201751,
AFNE01.JPG,AFNE01.JPG,AFNE01.JPG,AFNE01.JPG,AFNE01.JPG,AFNE01.JPG,,,,,,,,,,,,,,,,,,,,,3,9,39,9,,,AMNE17.jpg,AMSA06.jpg,AMSA12.jpg,AMNE16.jpg,AMSA12.jpg,MS,2,num_2,16,num_2,1.0334018112,,,2017_Oct_20_1148,60.0016743144,FEMA4ImagesEEG,001,201751,
