IPosition2,IPosition3,IPosition1,IPosition6,IPosition4,IPosition5,TrialsF1.thisRepN,TrialsF1.thisTrialN,TrialsF1.thisN,TrialsF1.thisIndex,TrialsM1.thisRepN,TrialsM1.thisTrialN,TrialsM1.thisN,TrialsM1.thisIndex,TrialsF2.thisRepN,TrialsF2.thisTrialN,TrialsF2.thisN,TrialsF2.thisIndex,TrialsM2.thisRepN,TrialsM2.thisTrialN,TrialsM2.thisN,TrialsM2.thisIndex,TrialsF3.thisRepN,TrialsF3.thisTrialN,TrialsF3.thisN,TrialsF3.thisIndex,TrialsM3.thisRepN,TrialsM3.thisTrialN,TrialsM3.thisN,TrialsM3.thisIndex,InstrKey_resp.keys,InstrKey_resp.rt,Image0 _Position,Image1 _Position,Image2 _Position,Image3 _Position,Center_image,condition,code,correct_answer,accuracy,Key_Resp.keys,Key_Resp.rt,BreakKey_resp.keys,BreakKey_resp.rt,date,frameRate,expName,session,participant,
,,,,,,,,,,,,,,,,,,,,,,,,,,,,,,space,9.99950766392,,,,,,,,,,,,,,2017_Oct_03_1126,60.0073330151,FEMA4ImagesEEG,001,201740,
AFSA21.JPG,AFNE22.JPG,AFNE21.JPG,AFSA23.JPG,AFSA22.JPG,AFNE23.JPG,0,0,0,0,,,,,,,,,,,,,,,,,,,,,,,AFSA20.jpg,AFNE11.jpg,AFNE15.jpg,AFSA07.jpg,AFSA07.jpg,FS,4,num_4,32,num_6,2.23336890341,,,2017_Oct_03_1126,60.0073330151,FEMA4ImagesEEG,001,201740,
AFNE23.JPG,AFNE24.JPG,AFNE22.JPG,AFSA24.JPG,AFSA22.JPG,AFSA23.JPG,0,1,1,8,,,,,,,,,,,,,,,,,,,,,,,AFNE08.jpg,AFNE20.jpg,AFSA16.jpg,AFSA11.jpg,AFSA11.jpg,FS,4,num_4,16,num_4,0.566819306887,,,2017_Oct_03_1126,60.0073330151,FEMA4ImagesEEG,001,201740,
AFSA21.JPG,AFNE23.JPG,AFNE21.JPG,AFSA25.JPG,AFNE25.JPG,AFSA23.JPG,0,2,2,4,,,,,,,,,,,,,,,,,,,,,,,AFNE01.jpg,AFNE06.jpg,AFSA20.jpg,AFSA14.jpg,AFSA20.jpg,FS,4,num_2,32,num_6,0.633494120353,,,2017_Oct_03_1126,60.0073330151,FEMA4ImagesEEG,001,201740,
AMSA25.JPG,AMNE24.JPG,AMSA24.JPG,AMNE26.JPG,AMSA21.JPG,AMNE25.JPG,0,3,3,3,,,,,,,,,,,,,,,,,,,,,,,AFSA01.jpg,AFSA04.jpg,AFNE03.jpg,AFNE07.jpg,AFSA04.jpg,FS,4,num_6,32,num_8,0.700179518242,,,2017_Oct_03_1126,60.0073330151,FEMA4ImagesEEG,001,201740,
AFNE22.JPG,AFSA24.JPG,AFSA22.JPG,AFNE25.JPG,AFNE24.JPG,AFSA25.JPG,0,4,4,6,,,,,,,,,,,,,,,,,,,,,,,AFSA07.jpg,AFSA19.jpg,AFNE16.jpg,AFNE05.jpg,AFNE16.jpg,FN,3,num_2,16,num_2,1.41659490107,,,2017_Oct_03_1126,60.0073330151,FEMA4ImagesEEG,001,201740,
AMSA21.JPG,AMNE23.JPG,AMNE21.JPG,AMSA25.JPG,AMNE25.JPG,AMSA23.JPG,0,5,5,5,,,,,,,,,,,,,,,,,,,,,,,AFNE11.jpg,AFNE04.jpg,AFSA05.jpg,AFSA14.jpg,AFNE11.jpg,FN,3,num_8,16,num_8,0.283492564763,,,2017_Oct_03_1126,60.0073330151,FEMA4ImagesEEG,001,201740,
AFSA25.JPG,AFNE24.JPG,AFSA24.JPG,AFNE21.JPG,AFSA21.JPG,AFNE25.JPG,0,6,6,2,,,,,,,,,,,,,,,,,,,,,,,AFNE04.jpg,AFSA06.jpg,AFSA04.jpg,AFNE16.jpg,AFNE16.jpg,FN,3,num_4,32,num_2,0.416822626547,,,2017_Oct_03_1126,60.0073330151,FEMA4ImagesEEG,001,201740,
AMNE23.JPG,AMNE24.JPG,AMNE22.JPG,AMSA24.JPG,AMSA22.JPG,AMSA23.JPG,0,7,7,9,,,,,,,,,,,,,,,,,,,,,,,AFSA19.jpg,AFSA02.jpg,AFNE04.jpg,AFNE05.jpg,AFSA19.jpg,FS,4,num_8,16,num_8,0.683515465607,,,2017_Oct_03_1126,60.0073330151,FEMA4ImagesEEG,001,201740,
AMNE22.JPG,AMSA24.JPG,AMSA22.JPG,AMNE25.JPG,AMNE24.JPG,AMSA25.JPG,0,8,8,7,,,,,,,,,,,,,,,,,,,,,,,AFSA11.jpg,AFSA20.jpg,AFNE20.jpg,AFNE04.jpg,AFSA11.jpg,FS,4,num_8,16,num_8,0.500166303749,,,2017_Oct_03_1126,60.0073330151,FEMA4ImagesEEG,001,201740,
AMSA21.JPG,AMNE22.JPG,AMNE21.JPG,AMSA23.JPG,AMSA22.JPG,AMNE23.JPG,0,9,9,1,,,,,,,,,,,,,,,,,,,,,,,AFNE11.jpg,AFNE09.jpg,AFSA18.jpg,AFSA16.jpg,AFSA16.jpg,FS,4,num_4,16,num_4,0.833434526839,,,2017_Oct_03_1126,60.0073330151,FEMA4ImagesEEG,001,201740,
AFSA21.JPG,AFNE23.JPG,AFNE21.JPG,AFSA25.JPG,AFNE25.JPG,AFSA23.JPG,,,,,0,0,0,4,,,,,,,,,,,,,,,,,,,AMNE18.jpg,AMSA13.jpg,AMSA11.jpg,AMNE10.jpg,AMSA13.jpg,MS,2,num_6,32,num_8,0.850183896345,,,2017_Oct_03_1126,60.0073330151,FEMA4ImagesEEG,001,201740,
AMNE23.JPG,AMNE24.JPG,AMNE22.JPG,AMSA24.JPG,AMSA22.JPG,AMSA23.JPG,,,,,0,1,1,9,,,,,,,,,,,,,,,,,,,AMNE13.jpg,AMSA19.jpg,AMSA02.jpg,AMNE04.jpg,AMSA19.jpg,MS,2,num_6,32,num_2,0.966689535437,,,2017_Oct_03_1126,60.0073330151,FEMA4ImagesEEG,001,201740,
AMNE22.JPG,AMSA24.JPG,AMSA22.JPG,AMNE25.JPG,AMNE24.JPG,AMSA25.JPG,,,,,0,2,2,7,,,,,,,,,,,,,,,,,,,AMSA10.jpg,AMNE19.jpg,AMSA12.jpg,AMNE14.jpg,AMSA12.jpg,MS,2,num_2,16,num_2,0.80013592966,,,2017_Oct_03_1126,60.0073330151,FEMA4ImagesEEG,001,201740,
AMSA21.JPG,AMNE23.JPG,AMNE21.JPG,AMSA25.JPG,AMNE25.JPG,AMSA23.JPG,,,,,0,3,3,5,,,,,,,,,,,,,,,,,,,AMNE05.jpg,AMNE11.jpg,AMSA10.jpg,AMSA16.jpg,AMNE11.jpg,MN,1,num_6,16,num_6,0.783451991138,,,2017_Oct_03_1126,60.0073330151,FEMA4ImagesEEG,001,201740,
AMSA25.JPG,AMNE24.JPG,AMSA24.JPG,AMNE26.JPG,AMSA21.JPG,AMNE25.JPG,,,,,0,4,4,3,,,,,,,,,,,,,,,,,,,AMSA04.jpg,AMNE16.jpg,AMSA11.jpg,AMNE20.jpg,AMSA04.jpg,MS,2,num_8,16,num_8,0.416832890231,,,2017_Oct_03_1126,60.0073330151,FEMA4ImagesEEG,001,201740,
AFSA21.JPG,AFNE22.JPG,AFNE21.JPG,AFSA23.JPG,AFSA22.JPG,AFNE23.JPG,,,,,0,5,5,0,,,,,,,,,,,,,,,,,,,AMNE11.jpg,AMSA18.jpg,AMSA04.jpg,AMNE01.jpg,AMNE11.jpg,MN,1,num_8,32,num_6,0.833439979421,,,2017_Oct_03_1126,60.0073330151,FEMA4ImagesEEG,001,201740,
AFNE22.JPG,AFSA24.JPG,AFSA22.JPG,AFNE25.JPG,AFNE24.JPG,AFSA25.JPG,,,,,0,6,6,6,,,,,,,,,,,,,,,,,,,AMNE07.jpg,AMNE13.jpg,AMSA06.jpg,AMSA03.jpg,AMSA03.jpg,MS,2,num_4,16,num_4,0.283515016571,,,2017_Oct_03_1126,60.0073330151,FEMA4ImagesEEG,001,201740,
AMSA21.JPG,AMNE22.JPG,AMNE21.JPG,AMSA23.JPG,AMSA22.JPG,AMNE23.JPG,,,,,0,7,7,1,,,,,,,,,,,,,,,,,,,AMNE17.jpg,AMSA16.jpg,AMSA13.jpg,AMNE08.jpg,AMNE17.jpg,MN,1,num_8,16,num_8,0.733441871788,,,2017_Oct_03_1126,60.0073330151,FEMA4ImagesEEG,001,201740,
AFSA25.JPG,AFNE24.JPG,AFSA24.JPG,AFNE21.JPG,AFSA21.JPG,AFNE25.JPG,,,,,0,8,8,2,,,,,,,,,,,,,,,,,,,AMNE10.jpg,AMSA11.jpg,AMNE05.jpg,AMSA09.jpg,AMNE05.jpg,MN,1,num_2,32,num_4,0.350176679692,,,2017_Oct_03_1126,60.0073330151,FEMA4ImagesEEG,001,201740,
AFNE23.JPG,AFNE24.JPG,AFNE22.JPG,AFSA24.JPG,AFSA22.JPG,AFSA23.JPG,,,,,0,9,9,8,,,,,,,,,,,,,,,,,,,AMSA20.jpg,AMNE12.jpg,AMNE01.jpg,AMSA07.jpg,AMNE01.jpg,MN,1,num_2,16,num_2,0.733462078415,,,2017_Oct_03_1126,60.0073330151,FEMA4ImagesEEG,001,201740,
AFNE22.JPG,AFSA24.JPG,AFSA22.JPG,AFNE25.JPG,AFNE24.JPG,AFSA25.JPG,,,,,,,,,0,0,0,6,,,,,,,,,,,,,,,AFNE03.jpg,AFSA13.jpg,AFSA09.jpg,AFNE13.jpg,AFSA13.jpg,FS,4,num_6,16,num_6,0.516821375661,,,2017_Oct_03_1126,60.0073330151,FEMA4ImagesEEG,001,201740,
AMSA21.JPG,AMNE23.JPG,AMNE21.JPG,AMSA25.JPG,AMNE25.JPG,AMSA23.JPG,,,,,,,,,0,1,1,5,,,,,,,,,,,,,,,AFNE18.jpg,AFSA13.jpg,AFSA18.jpg,AFNE03.jpg,AFSA18.jpg,FS,4,num_2,32,num_8,0.366866391536,,,2017_Oct_03_1126,60.0073330151,FEMA4ImagesEEG,001,201740,
AMNE22.JPG,AMSA24.JPG,AMSA22.JPG,AMNE25.JPG,AMNE24.JPG,AMSA25.JPG,,,,,,,,,0,2,2,7,,,,,,,,,,,,,,,AFSA13.jpg,AFNE01.jpg,AFNE12.jpg,AFSA12.jpg,AFNE01.jpg,FN,3,num_6,32,num_2,0.733494152427,,,2017_Oct_03_1126,60.0073330151,FEMA4ImagesEEG,001,201740,
AFSA25.JPG,AFNE24.JPG,AFSA24.JPG,AFNE21.JPG,AFSA21.JPG,AFNE25.JPG,,,,,,,,,0,3,3,2,,,,,,,,,,,,,,,AFSA14.jpg,AFNE11.jpg,AFSA11.jpg,AFNE16.jpg,AFSA14.jpg,FS,4,num_8,16,num_8,0.216855277891,,,2017_Oct_03_1126,60.0073330151,FEMA4ImagesEEG,001,201740,
AFSA21.JPG,AFNE22.JPG,AFNE21.JPG,AFSA23.JPG,AFSA22.JPG,AFNE23.JPG,,,,,,,,,0,4,4,0,,,,,,,,,,,,,,,AFSA11.jpg,AFNE12.jpg,AFSA10.jpg,AFNE04.jpg,AFSA10.jpg,FS,4,num_2,32,num_6,0.800160947389,,,2017_Oct_03_1126,60.0073330151,FEMA4ImagesEEG,001,201740,
AMSA25.JPG,AMNE24.JPG,AMSA24.JPG,AMNE26.JPG,AMSA21.JPG,AMNE25.JPG,,,,,,,,,0,5,5,3,,,,,,,,,,,,,,,AFNE15.jpg,AFSA08.jpg,AFNE07.jpg,AFSA09.jpg,AFNE07.jpg,FN,3,num_2,16,num_2,0.416818456926,,,2017_Oct_03_1126,60.0073330151,FEMA4ImagesEEG,001,201740,
AFNE23.JPG,AFNE24.JPG,AFNE22.JPG,AFSA24.JPG,AFSA22.JPG,AFSA23.JPG,,,,,,,,,0,6,6,8,,,,,,,,,,,,,,,AFNE01.jpg,AFSA02.jpg,AFNE15.jpg,AFSA11.jpg,AFSA11.jpg,FS,4,num_4,16,num_4,0.550167763117,,,2017_Oct_03_1126,60.0073330151,FEMA4ImagesEEG,001,201740,
AFSA21.JPG,AFNE23.JPG,AFNE21.JPG,AFSA25.JPG,AFNE25.JPG,AFSA23.JPG,,,,,,,,,0,7,7,4,,,,,,,,,,,,,,,AFNE06.jpg,AFNE01.jpg,AFSA06.jpg,AFSA17.jpg,AFSA06.jpg,FS,4,num_2,32,num_8,1.5333911307,,,2017_Oct_03_1126,60.0073330151,FEMA4ImagesEEG,001,201740,
AMSA21.JPG,AMNE22.JPG,AMNE21.JPG,AMSA23.JPG,AMSA22.JPG,AMNE23.JPG,,,,,,,,,0,8,8,1,,,,,,,,,,,,,,,AFSA08.jpg,AFNE12.jpg,AFSA01.jpg,AFNE08.jpg,AFSA01.jpg,FS,4,num_2,16,num_2,0.950136138142,,,2017_Oct_03_1126,60.0073330151,FEMA4ImagesEEG,001,201740,
AMNE23.JPG,AMNE24.JPG,AMNE22.JPG,AMSA24.JPG,AMSA22.JPG,AMSA23.JPG,,,,,,,,,0,9,9,9,,,,,,,,,,,,,,,AFNE19.jpg,AFNE20.jpg,AFSA07.jpg,AFSA17.jpg,AFNE19.jpg,FN,3,num_8,32,num_6,0.700114728739,,,2017_Oct_03_1126,60.0073330151,FEMA4ImagesEEG,001,201740,
AMNE23.JPG,AMNE24.JPG,AMNE22.JPG,AMSA24.JPG,AMSA22.JPG,AMSA23.JPG,,,,,,,,,,,,,0,0,0,9,,,,,,,,,,,AMSA12.jpg,AMSA07.jpg,AMNE08.jpg,AMNE14.jpg,AMNE08.jpg,MN,1,num_2,32,num_8,0.933505442479,,,2017_Oct_03_1126,60.0073330151,FEMA4ImagesEEG,001,201740,
AFSA21.JPG,AFNE23.JPG,AFNE21.JPG,AFSA25.JPG,AFNE25.JPG,AFSA23.JPG,,,,,,,,,,,,,0,1,1,4,,,,,,,,,,,AMNE08.jpg,AMNE13.jpg,AMSA05.jpg,AMSA04.jpg,AMNE08.jpg,MN,1,num_8,32,num_6,0.683178688487,,,2017_Oct_03_1126,60.0073330151,FEMA4ImagesEEG,001,201740,
AFNE22.JPG,AFSA24.JPG,AFSA22.JPG,AFNE25.JPG,AFNE24.JPG,AFSA25.JPG,,,,,,,,,,,,,0,2,2,6,,,,,,,,,,,AMSA17.jpg,AMNE01.jpg,AMNE15.jpg,AMSA12.jpg,AMNE01.jpg,MN,1,num_6,16,num_6,0.509061710077,,,2017_Oct_03_1126,60.0073330151,FEMA4ImagesEEG,001,201740,
AMSA21.JPG,AMNE22.JPG,AMNE21.JPG,AMSA23.JPG,AMSA22.JPG,AMNE23.JPG,,,,,,,,,,,,,0,3,3,1,,,,,,,,,,,AMNE03.jpg,AMNE08.jpg,AMSA10.jpg,AMSA06.jpg,AMNE08.jpg,MN,1,num_6,32,num_2,1.03355935889,,,2017_Oct_03_1126,60.0073330151,FEMA4ImagesEEG,001,201740,
AFSA25.JPG,AFNE24.JPG,AFSA24.JPG,AFNE21.JPG,AFSA21.JPG,AFNE25.JPG,,,,,,,,,,,,,0,4,4,2,,,,,,,,,,,AMSA02.jpg,AMSA19.jpg,AMNE20.jpg,AMNE12.jpg,AMNE12.jpg,MN,1,num_4,32,num_8,0.633503421816,,,2017_Oct_03_1126,60.0073330151,FEMA4ImagesEEG,001,201740,
AMSA25.JPG,AMNE24.JPG,AMSA24.JPG,AMNE26.JPG,AMSA21.JPG,AMNE25.JPG,,,,,,,,,,,,,0,5,5,3,,,,,,,,,,,AMNE14.jpg,AMSA01.jpg,AMNE01.jpg,AMSA06.jpg,AMSA01.jpg,MS,2,num_6,16,num_6,0.750151148779,,,2017_Oct_03_1126,60.0073330151,FEMA4ImagesEEG,001,201740,
AMSA21.JPG,AMNE23.JPG,AMNE21.JPG,AMSA25.JPG,AMNE25.JPG,AMSA23.JPG,,,,,,,,,,,,,0,6,6,5,,,,,,,,,,,AMSA04.jpg,AMNE06.jpg,AMNE18.jpg,AMSA13.jpg,AMSA04.jpg,MS,2,num_8,16,num_8,0.466784634881,,,2017_Oct_03_1126,60.0073330151,FEMA4ImagesEEG,001,201740,
AMNE22.JPG,AMSA24.JPG,AMSA22.JPG,AMNE25.JPG,AMNE24.JPG,AMSA25.JPG,,,,,,,,,,,,,0,7,7,7,,,,,,,,,,,AMSA20.jpg,AMNE09.jpg,AMNE03.jpg,AMSA14.jpg,AMSA14.jpg,MS,2,num_4,32,num_2,1.96667830953,,,2017_Oct_03_1126,60.0073330151,FEMA4ImagesEEG,001,201740,
AFSA21.JPG,AFNE22.JPG,AFNE21.JPG,AFSA23.JPG,AFSA22.JPG,AFNE23.JPG,,,,,,,,,,,,,0,8,8,0,,,,,,,,,,,AMSA13.jpg,AMSA04.jpg,AMNE20.jpg,AMNE02.jpg,AMSA04.jpg,MS,2,num_6,16,num_6,0.750159488022,,,2017_Oct_03_1126,60.0073330151,FEMA4ImagesEEG,001,201740,
AFNE23.JPG,AFNE24.JPG,AFNE22.JPG,AFSA24.JPG,AFSA22.JPG,AFSA23.JPG,,,,,,,,,,,,,0,9,9,8,,,,,,,,,,,AMSA08.jpg,AMSA02.jpg,AMNE15.jpg,AMNE19.jpg,AMNE15.jpg,MN,1,num_2,16,num_2,0.900142376537,,,2017_Oct_03_1126,60.0073330151,FEMA4ImagesEEG,001,201740,
AFSA21.JPG,AFNE22.JPG,AFNE21.JPG,AFSA23.JPG,AFSA22.JPG,AFNE23.JPG,,,,,,,,,,,,,,,,,0,0,0,0,,,,,,,AFNE14.jpg,AFSA03.jpg,AFSA02.jpg,AFNE13.jpg,AFNE13.jpg,FN,3,num_4,32,num_8,0.550037863371,,,2017_Oct_03_1126,60.0073330151,FEMA4ImagesEEG,001,201740,
AMNE23.JPG,AMNE24.JPG,AMNE22.JPG,AMSA24.JPG,AMSA22.JPG,AMSA23.JPG,,,,,,,,,,,,,,,,,0,1,1,9,,,,,,,AFSA11.jpg,AFNE10.jpg,AFNE11.jpg,AFSA09.jpg,AFSA09.jpg,FS,4,num_4,32,num_6,0.600174033586,,,2017_Oct_03_1126,60.0073330151,FEMA4ImagesEEG,001,201740,
AMSA21.JPG,AMNE23.JPG,AMNE21.JPG,AMSA25.JPG,AMNE25.JPG,AMSA23.JPG,,,,,,,,,,,,,,,,,0,2,2,5,,,,,,,AFNE10.jpg,AFSA12.jpg,AFNE03.jpg,AFSA13.jpg,AFSA13.jpg,FS,4,num_4,16,num_4,0.933464067004,,,2017_Oct_03_1126,60.0073330151,FEMA4ImagesEEG,001,201740,
AFSA25.JPG,AFNE24.JPG,AFSA24.JPG,AFNE21.JPG,AFSA21.JPG,AFNE25.JPG,,,,,,,,,,,,,,,,,0,3,3,2,,,,,,,AFNE02.jpg,AFNE18.jpg,AFSA14.jpg,AFSA01.jpg,AFNE18.jpg,FN,3,num_6,16,num_6,0.816795812674,,,2017_Oct_03_1126,60.0073330151,FEMA4ImagesEEG,001,201740,
AMSA21.JPG,AMNE22.JPG,AMNE21.JPG,AMSA23.JPG,AMSA22.JPG,AMNE23.JPG,,,,,,,,,,,,,,,,,0,4,4,1,,,,,,,AFNE08.jpg,AFSA06.jpg,AFSA12.jpg,AFNE01.jpg,AFNE01.jpg,FN,3,num_4,32,num_8,0.450167089562,,,2017_Oct_03_1126,60.0073330151,FEMA4ImagesEEG,001,201740,
AFSA21.JPG,AFNE23.JPG,AFNE21.JPG,AFSA25.JPG,AFNE25.JPG,AFSA23.JPG,,,,,,,,,,,,,,,,,0,5,5,4,,,,,,,AFNE14.jpg,AFSA10.jpg,AFNE18.jpg,AFSA20.jpg,AFSA10.jpg,FS,4,num_6,32,num_4,0.383503502001,,,2017_Oct_03_1126,60.0073330151,FEMA4ImagesEEG,001,201740,
AFNE23.JPG,AFNE24.JPG,AFNE22.JPG,AFSA24.JPG,AFSA22.JPG,AFSA23.JPG,,,,,,,,,,,,,,,,,0,6,6,8,,,,,,,AFSA14.jpg,AFSA19.jpg,AFNE05.jpg,AFNE15.jpg,AFSA19.jpg,FS,4,num_6,32,num_2,0.966800190777,,,2017_Oct_03_1126,60.0073330151,FEMA4ImagesEEG,001,201740,
AMSA25.JPG,AMNE24.JPG,AMSA24.JPG,AMNE26.JPG,AMSA21.JPG,AMNE25.JPG,,,,,,,,,,,,,,,,,0,7,7,3,,,,,,,AFNE20.jpg,AFSA06.jpg,AFNE12.jpg,AFSA05.jpg,AFSA06.jpg,FS,4,num_6,32,num_8,0.0835377249714,,,2017_Oct_03_1126,60.0073330151,FEMA4ImagesEEG,001,201740,
AFNE22.JPG,AFSA24.JPG,AFSA22.JPG,AFNE25.JPG,AFNE24.JPG,AFSA25.JPG,,,,,,,,,,,,,,,,,0,8,8,6,,,,,,,AFNE11.jpg,AFSA10.jpg,AFNE20.jpg,AFSA20.jpg,AFSA20.jpg,FS,4,num_4,16,num_4,0.38336141413,,,2017_Oct_03_1126,60.0073330151,FEMA4ImagesEEG,001,201740,
AMNE22.JPG,AMSA24.JPG,AMSA22.JPG,AMNE25.JPG,AMNE24.JPG,AMSA25.JPG,,,,,,,,,,,,,,,,,0,9,9,7,,,,,,,AFNE05.jpg,AFNE06.jpg,AFSA18.jpg,AFSA09.jpg,AFSA18.jpg,FS,4,num_2,32,num_4,0.933508329139,,,2017_Oct_03_1126,60.0073330151,FEMA4ImagesEEG,001,201740,
AFNE23.JPG,AFNE24.JPG,AFNE22.JPG,AFSA24.JPG,AFSA22.JPG,AFSA23.JPG,,,,,,,,,,,,,,,,,,,,,0,0,0,8,,,AMSA20.jpg,AMNE04.jpg,AMNE16.jpg,AMSA12.jpg,AMNE16.jpg,MN,1,num_2,16,num_2,0.999994547418,,,2017_Oct_03_1126,60.0073330151,FEMA4ImagesEEG,001,201740,
AFNE22.JPG,AFSA24.JPG,AFSA22.JPG,AFNE25.JPG,AFNE24.JPG,AFSA25.JPG,,,,,,,,,,,,,,,,,,,,,0,1,1,6,,,AMNE14.jpg,AMSA08.jpg,AMSA19.jpg,AMNE15.jpg,AMSA19.jpg,MS,2,num_2,32,num_8,0.833461148269,,,2017_Oct_03_1126,60.0073330151,FEMA4ImagesEEG,001,201740,
AFSA25.JPG,AFNE24.JPG,AFSA24.JPG,AFNE21.JPG,AFSA21.JPG,AFNE25.JPG,,,,,,,,,,,,,,,,,,,,,0,2,2,2,,,AMSA15.jpg,AMNE02.jpg,AMNE06.jpg,AMSA13.jpg,AMNE02.jpg,MN,1,num_6,32,num_2,0.850170746,,,2017_Oct_03_1126,60.0073330151,FEMA4ImagesEEG,001,201740,
AMSA21.JPG,AMNE23.JPG,AMNE21.JPG,AMSA25.JPG,AMNE25.JPG,AMSA23.JPG,,,,,,,,,,,,,,,,,,,,,0,3,3,5,,,AMNE09.jpg,AMSA14.jpg,AMNE05.jpg,AMSA12.jpg,AMSA12.jpg,MS,2,num_4,16,num_4,1.51672900251,,,2017_Oct_03_1126,60.0073330151,FEMA4ImagesEEG,001,201740,
AMSA21.JPG,AMNE22.JPG,AMNE21.JPG,AMSA23.JPG,AMSA22.JPG,AMNE23.JPG,,,,,,,,,,,,,,,,,,,,,0,4,4,1,,,AMSA20.jpg,AMNE20.jpg,AMNE18.jpg,AMSA10.jpg,AMSA20.jpg,MS,2,num_8,16,num_8,0.400184874602,,,2017_Oct_03_1126,60.0073330151,FEMA4ImagesEEG,001,201740,
AMSA25.JPG,AMNE24.JPG,AMSA24.JPG,AMNE26.JPG,AMSA21.JPG,AMNE25.JPG,,,,,,,,,,,,,,,,,,,,,0,5,5,3,,,AMSA04.jpg,AMNE14.jpg,AMNE11.jpg,AMSA20.jpg,AMNE14.jpg,MN,1,num_6,16,num_6,1.11676864599,,,2017_Oct_03_1126,60.0073330151,FEMA4ImagesEEG,001,201740,
AMNE22.JPG,AMSA24.JPG,AMSA22.JPG,AMNE25.JPG,AMNE24.JPG,AMSA25.JPG,,,,,,,,,,,,,,,,,,,,,0,6,6,7,,,AMNE19.jpg,AMSA02.jpg,AMSA17.jpg,AMNE09.jpg,AMSA02.jpg,MS,2,num_6,16,num_6,0.733500567229,,,2017_Oct_03_1126,60.0073330151,FEMA4ImagesEEG,001,201740,
AMNE23.JPG,AMNE24.JPG,AMNE22.JPG,AMSA24.JPG,AMSA22.JPG,AMSA23.JPG,,,,,,,,,,,,,,,,,,,,,0,7,7,9,,,AMSA04.jpg,AMNE10.jpg,AMNE19.jpg,AMSA15.jpg,AMNE10.jpg,MN,1,num_6,16,num_6,0.416810117683,,,2017_Oct_03_1126,60.0073330151,FEMA4ImagesEEG,001,201740,
AFSA21.JPG,AFNE22.JPG,AFNE21.JPG,AFSA23.JPG,AFSA22.JPG,AFNE23.JPG,,,,,,,,,,,,,,,,,,,,,0,8,8,0,,,AMNE14.jpg,AMNE02.jpg,AMSA19.jpg,AMSA20.jpg,AMSA20.jpg,MS,2,num_4,32,num_6,0.933487160292,,,2017_Oct_03_1126,60.0073330151,FEMA4ImagesEEG,001,201740,
AFSA21.JPG,AFNE23.JPG,AFNE21.JPG,AFSA25.JPG,AFNE25.JPG,AFSA23.JPG,,,,,,,,,,,,,,,,,,,,,0,9,9,4,,,AMNE07.jpg,AMNE10.jpg,AMSA04.jpg,AMSA03.jpg,AMNE10.jpg,MN,1,num_6,16,num_6,0.783726865417,,,2017_Oct_03_1126,60.0073330151,FEMA4ImagesEEG,001,201740,
,,,,,,,,,,,,,,,,,,,,,,,,,,,,,,,,,,,,,,,,,,,space,9.0827775709,2017_Oct_03_1126,60.0073330151,FEMA4ImagesEEG,001,201740,
AFNE01.JPG,AFNE01.JPG,AFNE01.JPG,AFNE01.JPG,AFNE01.JPG,AFNE01.JPG,0,0,0,4,,,,,,,,,,,,,,,,,,,,,,,AFSA08.jpg,AFSA17.jpg,AFNE12.jpg,AFNE05.jpg,AFNE12.jpg,FN,3,num_2,32,num_6,0.483554531753,,,2017_Oct_03_1126,60.0073330151,FEMA4ImagesEEG,001,201740,
AFNE01.JPG,AFNE01.JPG,AFNE01.JPG,AFNE01.JPG,AFNE01.JPG,AFNE01.JPG,0,1,1,3,,,,,,,,,,,,,,,,,,,,,,,AFSA17.jpg,AFNE20.jpg,AFSA14.jpg,AFNE14.jpg,AFSA17.jpg,FS,4,num_8,32,num_4,0.633166323956,,,2017_Oct_03_1126,60.0073330151,FEMA4ImagesEEG,001,201740,
AFNE01.JPG,AFNE01.JPG,AFNE01.JPG,AFNE01.JPG,AFNE01.JPG,AFNE01.JPG,0,2,2,1,,,,,,,,,,,,,,,,,,,,,,,AFSA14.jpg,AFNE11.jpg,AFNE16.jpg,AFSA01.jpg,AFSA01.jpg,FS,4,num_4,32,num_8,0.716786799876,,,2017_Oct_03_1126,60.0073330151,FEMA4ImagesEEG,001,201740,
AFNE01.JPG,AFNE01.JPG,AFNE01.JPG,AFNE01.JPG,AFNE01.JPG,AFNE01.JPG,0,3,3,2,,,,,,,,,,,,,,,,,,,,,,,AFSA10.jpg,AFNE10.jpg,AFNE09.jpg,AFSA02.jpg,AFNE09.jpg,FN,3,num_2,32,num_6,0.800121496355,,,2017_Oct_03_1126,60.0073330151,FEMA4ImagesEEG,001,201740,
AFNE01.JPG,AFNE01.JPG,AFNE01.JPG,AFNE01.JPG,AFNE01.JPG,AFNE01.JPG,0,4,4,9,,,,,,,,,,,,,,,,,,,,,,,AFSA04.jpg,AFSA09.jpg,AFNE13.jpg,AFNE08.jpg,AFNE08.jpg,FN,3,num_4,32,num_8,0.400193534585,,,2017_Oct_03_1126,60.0073330151,FEMA4ImagesEEG,001,201740,
AFNE01.JPG,AFNE01.JPG,AFNE01.JPG,AFNE01.JPG,AFNE01.JPG,AFNE01.JPG,0,5,5,7,,,,,,,,,,,,,,,,,,,,,,,AFNE03.jpg,AFSA07.jpg,AFSA06.jpg,AFNE05.jpg,AFSA06.jpg,FS,4,num_2,32,num_6,0.600173712846,,,2017_Oct_03_1126,60.0073330151,FEMA4ImagesEEG,001,201740,
AFNE01.JPG,AFNE01.JPG,AFNE01.JPG,AFNE01.JPG,AFNE01.JPG,AFNE01.JPG,0,6,6,0,,,,,,,,,,,,,,,,,,,,,,,AFNE01.jpg,AFSA19.jpg,AFNE06.jpg,AFSA06.jpg,AFNE01.jpg,FN,3,num_8,16,num_8,0.650159135208,,,2017_Oct_03_1126,60.0073330151,FEMA4ImagesEEG,001,201740,
AFNE01.JPG,AFNE01.JPG,AFNE01.JPG,AFNE01.JPG,AFNE01.JPG,AFNE01.JPG,0,7,7,5,,,,,,,,,,,,,,,,,,,,,,,AFSA06.jpg,AFNE11.jpg,AFSA07.jpg,AFNE05.jpg,AFNE05.jpg,FN,3,num_4,32,num_8,0.800203926564,,,2017_Oct_03_1126,60.0073330151,FEMA4ImagesEEG,001,201740,
AFNE01.JPG,AFNE01.JPG,AFNE01.JPG,AFNE01.JPG,AFNE01.JPG,AFNE01.JPG,0,8,8,6,,,,,,,,,,,,,,,,,,,,,,,AFSA19.jpg,AFSA06.jpg,AFNE13.jpg,AFNE14.jpg,AFNE13.jpg,FN,3,num_2,32,num_6,0.583488491364,,,2017_Oct_03_1126,60.0073330151,FEMA4ImagesEEG,001,201740,
AFNE01.JPG,AFNE01.JPG,AFNE01.JPG,AFNE01.JPG,AFNE01.JPG,AFNE01.JPG,0,9,9,8,,,,,,,,,,,,,,,,,,,,,,,AFSA14.jpg,AFNE19.jpg,AFNE09.jpg,AFSA05.jpg,AFSA05.jpg,FS,4,num_4,32,num_6,1.01678721684,,,2017_Oct_03_1126,60.0073330151,FEMA4ImagesEEG,001,201740,
AFNE01.JPG,AFNE01.JPG,AFNE01.JPG,AFNE01.JPG,AFNE01.JPG,AFNE01.JPG,1,0,10,8,,,,,,,,,,,,,,,,,,,,,,,AFSA15.jpg,AFNE20.jpg,AFSA10.jpg,AFNE10.jpg,AFNE20.jpg,FN,3,num_6,32,num_8,1.01677695315,,,2017_Oct_03_1126,60.0073330151,FEMA4ImagesEEG,001,201740,
AFNE01.JPG,AFNE01.JPG,AFNE01.JPG,AFNE01.JPG,AFNE01.JPG,AFNE01.JPG,1,1,11,2,,,,,,,,,,,,,,,,,,,,,,,AFSA20.jpg,AFNE05.jpg,AFSA08.jpg,AFNE07.jpg,AFSA20.jpg,FS,4,num_8,32,num_6,0.383450579882,,,2017_Oct_03_1126,60.0073330151,FEMA4ImagesEEG,001,201740,
AFNE01.JPG,AFNE01.JPG,AFNE01.JPG,AFNE01.JPG,AFNE01.JPG,AFNE01.JPG,1,2,12,1,,,,,,,,,,,,,,,,,,,,,,,AFSA19.jpg,AFNE11.jpg,AFSA18.jpg,AFNE03.jpg,AFSA19.jpg,FS,4,num_8,32,num_4,0.450141109613,,,2017_Oct_03_1126,60.0073330151,FEMA4ImagesEEG,001,201740,
AFNE01.JPG,AFNE01.JPG,AFNE01.JPG,AFNE01.JPG,AFNE01.JPG,AFNE01.JPG,1,3,13,5,,,,,,,,,,,,,,,,,,,,,,,AFSA04.jpg,AFNE02.jpg,AFNE03.jpg,AFSA18.jpg,AFNE02.jpg,FN,3,num_6,32,num_2,3.98321117946,,,2017_Oct_03_1126,60.0073330151,FEMA4ImagesEEG,001,201740,
AFNE01.JPG,AFNE01.JPG,AFNE01.JPG,AFNE01.JPG,AFNE01.JPG,AFNE01.JPG,1,4,14,9,,,,,,,,,,,,,,,,,,,,,,,AFNE08.jpg,AFSA14.jpg,AFSA04.jpg,AFNE18.jpg,AFNE08.jpg,FN,3,num_8,32,num_6,0.550162310535,,,2017_Oct_03_1126,60.0073330151,FEMA4ImagesEEG,001,201740,
AFNE01.JPG,AFNE01.JPG,AFNE01.JPG,AFNE01.JPG,AFNE01.JPG,AFNE01.JPG,1,5,15,0,,,,,,,,,,,,,,,,,,,,,,,AFNE06.jpg,AFSA14.jpg,AFNE15.jpg,AFSA04.jpg,AFSA14.jpg,FS,4,num_6,32,num_2,1.28312018549,,,2017_Oct_03_1126,60.0073330151,FEMA4ImagesEEG,001,201740,
AFNE01.JPG,AFNE01.JPG,AFNE01.JPG,AFNE01.JPG,AFNE01.JPG,AFNE01.JPG,1,6,16,4,,,,,,,,,,,,,,,,,,,,,,,AFSA20.jpg,AFSA18.jpg,AFNE10.jpg,AFNE07.jpg,AFNE07.jpg,FN,3,num_4,32,num_8,0.650126419716,,,2017_Oct_03_1126,60.0073330151,FEMA4ImagesEEG,001,201740,
AFNE01.JPG,AFNE01.JPG,AFNE01.JPG,AFNE01.JPG,AFNE01.JPG,AFNE01.JPG,1,7,17,6,,,,,,,,,,,,,,,,,,,,,,,AFNE02.jpg,AFNE11.jpg,AFSA07.jpg,AFSA17.jpg,AFNE11.jpg,FN,3,num_6,32,num_8,0.683520597449,,,2017_Oct_03_1126,60.0073330151,FEMA4ImagesEEG,001,201740,
AFNE01.JPG,AFNE01.JPG,AFNE01.JPG,AFNE01.JPG,AFNE01.JPG,AFNE01.JPG,1,8,18,7,,,,,,,,,,,,,,,,,,,,,,,AFSA10.jpg,AFNE09.jpg,AFSA03.jpg,AFNE10.jpg,AFNE09.jpg,FN,3,num_6,32,num_8,0.766653548396,,,2017_Oct_03_1126,60.0073330151,FEMA4ImagesEEG,001,201740,
AFNE01.JPG,AFNE01.JPG,AFNE01.JPG,AFNE01.JPG,AFNE01.JPG,AFNE01.JPG,1,9,19,3,,,,,,,,,,,,,,,,,,,,,,,AFNE06.jpg,AFNE20.jpg,AFSA19.jpg,AFSA12.jpg,AFNE20.jpg,FN,3,num_6,32,num_8,0.350191754477,,,2017_Oct_03_1126,60.0073330151,FEMA4ImagesEEG,001,201740,
AFNE01.JPG,AFNE01.JPG,AFNE01.JPG,AFNE01.JPG,AFNE01.JPG,AFNE01.JPG,2,0,20,6,,,,,,,,,,,,,,,,,,,,,,,AFNE17.jpg,AFNE16.jpg,AFSA20.jpg,AFSA14.jpg,AFSA14.jpg,FS,4,num_4,32,num_8,0.533479013493,,,2017_Oct_03_1126,60.0073330151,FEMA4ImagesEEG,001,201740,
AFNE01.JPG,AFNE01.JPG,AFNE01.JPG,AFNE01.JPG,AFNE01.JPG,AFNE01.JPG,2,1,21,5,,,,,,,,,,,,,,,,,,,,,,,AFSA17.jpg,AFSA06.jpg,AFNE01.jpg,AFNE12.jpg,AFSA06.jpg,FS,4,num_6,16,num_6,0.983470337473,,,2017_Oct_03_1126,60.0073330151,FEMA4ImagesEEG,001,201740,
AFNE01.JPG,AFNE01.JPG,AFNE01.JPG,AFNE01.JPG,AFNE01.JPG,AFNE01.JPG,2,2,22,9,,,,,,,,,,,,,,,,,,,,,,,AFNE12.jpg,AFSA13.jpg,AFSA17.jpg,AFNE02.jpg,AFSA13.jpg,FS,4,num_6,16,num_6,0.533484466075,,,2017_Oct_03_1126,60.0073330151,FEMA4ImagesEEG,001,201740,
AFNE01.JPG,AFNE01.JPG,AFNE01.JPG,AFNE01.JPG,AFNE01.JPG,AFNE01.JPG,2,3,23,7,,,,,,,,,,,,,,,,,,,,,,,AFNE12.jpg,AFSA16.jpg,AFSA11.jpg,AFNE05.jpg,AFNE05.jpg,FN,3,num_4,32,num_8,0.616834237339,,,2017_Oct_03_1126,60.0073330151,FEMA4ImagesEEG,001,201740,
AFNE01.JPG,AFNE01.JPG,AFNE01.JPG,AFNE01.JPG,AFNE01.JPG,AFNE01.JPG,2,4,24,8,,,,,,,,,,,,,,,,,,,,,,,AFSA19.jpg,AFNE04.jpg,AFNE15.jpg,AFSA14.jpg,AFSA14.jpg,FS,4,num_4,32,num_6,2.84999947078,,,2017_Oct_03_1126,60.0073330151,FEMA4ImagesEEG,001,201740,
AFNE01.JPG,AFNE01.JPG,AFNE01.JPG,AFNE01.JPG,AFNE01.JPG,AFNE01.JPG,2,5,25,4,,,,,,,,,,,,,,,,,,,,,,,AFNE18.jpg,AFSA03.jpg,AFNE05.jpg,AFSA19.jpg,AFNE18.jpg,FN,3,num_8,32,num_2,1.01644659084,,,2017_Oct_03_1126,60.0073330151,FEMA4ImagesEEG,001,201740,
AFNE01.JPG,AFNE01.JPG,AFNE01.JPG,AFNE01.JPG,AFNE01.JPG,AFNE01.JPG,2,6,26,1,,,,,,,,,,,,,,,,,,,,,,,AFNE01.jpg,AFSA07.jpg,AFNE06.jpg,AFSA16.jpg,AFNE06.jpg,FN,3,num_2,32,num_6,0.466925439791,,,2017_Oct_03_1126,60.0073330151,FEMA4ImagesEEG,001,201740,
AFNE01.JPG,AFNE01.JPG,AFNE01.JPG,AFNE01.JPG,AFNE01.JPG,AFNE01.JPG,2,7,27,2,,,,,,,,,,,,,,,,,,,,,,,AFSA14.jpg,AFNE13.jpg,AFNE11.jpg,AFSA15.jpg,AFNE11.jpg,FN,3,num_2,32,num_8,1.03341855398,,,2017_Oct_03_1126,60.0073330151,FEMA4ImagesEEG,001,201740,
AFNE01.JPG,AFNE01.JPG,AFNE01.JPG,AFNE01.JPG,AFNE01.JPG,AFNE01.JPG,2,8,28,0,,,,,,,,,,,,,,,,,,,,,,,AFSA18.jpg,AFNE02.jpg,AFNE12.jpg,AFSA19.jpg,AFNE12.jpg,FN,3,num_2,32,num_6,0.583461228454,,,2017_Oct_03_1126,60.0073330151,FEMA4ImagesEEG,001,201740,
AFNE01.JPG,AFNE01.JPG,AFNE01.JPG,AFNE01.JPG,AFNE01.JPG,AFNE01.JPG,2,9,29,3,,,,,,,,,,,,,,,,,,,,,,,AFNE17.jpg,AFNE19.jpg,AFSA19.jpg,AFSA09.jpg,AFSA19.jpg,FS,4,num_2,32,num_6,0.216837316445,,,2017_Oct_03_1126,60.0073330151,FEMA4ImagesEEG,001,201740,
AFNE01.JPG,AFNE01.JPG,AFNE01.JPG,AFNE01.JPG,AFNE01.JPG,AFNE01.JPG,3,0,30,5,,,,,,,,,,,,,,,,,,,,,,,AFSA13.jpg,AFSA17.jpg,AFNE10.jpg,AFNE12.jpg,AFSA17.jpg,FS,4,num_6,32,num_8,0.916759921855,,,2017_Oct_03_1126,60.0073330151,FEMA4ImagesEEG,001,201740,
AFNE01.JPG,AFNE01.JPG,AFNE01.JPG,AFNE01.JPG,AFNE01.JPG,AFNE01.JPG,3,1,31,4,,,,,,,,,,,,,,,,,,,,,,,AFNE08.jpg,AFSA19.jpg,AFNE11.jpg,AFSA01.jpg,AFSA01.jpg,FS,4,num_4,32,num_6,0.550133123184,,,2017_Oct_03_1126,60.0073330151,FEMA4ImagesEEG,001,201740,
AFNE01.JPG,AFNE01.JPG,AFNE01.JPG,AFNE01.JPG,AFNE01.JPG,AFNE01.JPG,3,2,32,7,,,,,,,,,,,,,,,,,,,,,,,AFSA05.jpg,AFNE09.jpg,AFSA04.jpg,AFNE06.jpg,AFSA04.jpg,FS,4,num_2,32,num_6,0.633490592211,,,2017_Oct_03_1126,60.0073330151,FEMA4ImagesEEG,001,201740,
AFNE01.JPG,AFNE01.JPG,AFNE01.JPG,AFNE01.JPG,AFNE01.JPG,AFNE01.JPG,3,3,33,0,,,,,,,,,,,,,,,,,,,,,,,AFNE16.jpg,AFNE08.jpg,AFSA07.jpg,AFSA11.jpg,AFSA07.jpg,FS,4,num_2,32,num_6,1.63345178266,,,2017_Oct_03_1126,60.0073330151,FEMA4ImagesEEG,001,201740,
AFNE01.JPG,AFNE01.JPG,AFNE01.JPG,AFNE01.JPG,AFNE01.JPG,AFNE01.JPG,3,4,34,1,,,,,,,,,,,,,,,,,,,,,,,AFNE13.jpg,AFNE02.jpg,AFSA01.jpg,AFSA20.jpg,AFSA01.jpg,FS,4,num_2,32,num_8,1.46660341672,,,2017_Oct_03_1126,60.0073330151,FEMA4ImagesEEG,001,201740,
AFNE01.JPG,AFNE01.JPG,AFNE01.JPG,AFNE01.JPG,AFNE01.JPG,AFNE01.JPG,3,5,35,3,,,,,,,,,,,,,,,,,,,,,,,AFNE08.jpg,AFNE09.jpg,AFSA20.jpg,AFSA13.jpg,AFSA13.jpg,FS,4,num_4,32,num_2,1.28344413301,,,2017_Oct_03_1126,60.0073330151,FEMA4ImagesEEG,001,201740,
AFNE01.JPG,AFNE01.JPG,AFNE01.JPG,AFNE01.JPG,AFNE01.JPG,AFNE01.JPG,3,6,36,9,,,,,,,,,,,,,,,,,,,,,,,AFNE11.jpg,AFNE10.jpg,AFSA09.jpg,AFSA08.jpg,AFSA08.jpg,FS,4,num_4,32,num_8,0.850110767598,,,2017_Oct_03_1126,60.0073330151,FEMA4ImagesEEG,001,201740,
AFNE01.JPG,AFNE01.JPG,AFNE01.JPG,AFNE01.JPG,AFNE01.JPG,AFNE01.JPG,3,7,37,8,,,,,,,,,,,,,,,,,,,,,,,AFNE05.jpg,AFNE08.jpg,AFSA16.jpg,AFSA11.jpg,AFNE05.jpg,FN,3,num_8,32,num_6,1.70008361695,,,2017_Oct_03_1126,60.0073330151,FEMA4ImagesEEG,001,201740,
AFNE01.JPG,AFNE01.JPG,AFNE01.JPG,AFNE01.JPG,AFNE01.JPG,AFNE01.JPG,3,8,38,6,,,,,,,,,,,,,,,,,,,,,,,AFSA12.jpg,AFSA11.jpg,AFNE10.jpg,AFNE16.jpg,AFNE16.jpg,FN,3,num_4,16,num_4,1.15010926012,,,2017_Oct_03_1126,60.0073330151,FEMA4ImagesEEG,001,201740,
AFNE01.JPG,AFNE01.JPG,AFNE01.JPG,AFNE01.JPG,AFNE01.JPG,AFNE01.JPG,3,9,39,2,,,,,,,,,,,,,,,,,,,,,,,AFSA05.jpg,AFSA08.jpg,AFNE13.jpg,AFNE02.jpg,AFNE13.jpg,FN,3,num_2,16,num_2,0.833487128218,,,2017_Oct_03_1126,60.0073330151,FEMA4ImagesEEG,001,201740,
AFNE01.JPG,AFNE01.JPG,AFNE01.JPG,AFNE01.JPG,AFNE01.JPG,AFNE01.JPG,4,0,40,1,,,,,,,,,,,,,,,,,,,,,,,AFSA09.jpg,AFSA06.jpg,AFNE06.jpg,AFNE09.jpg,AFNE06.jpg,FN,3,num_2,32,num_4,0.666805226396,,,2017_Oct_03_1126,60.0073330151,FEMA4ImagesEEG,001,201740,
AFNE01.JPG,AFNE01.JPG,AFNE01.JPG,AFNE01.JPG,AFNE01.JPG,AFNE01.JPG,4,1,41,9,,,,,,,,,,,,,,,,,,,,,,,AFNE02.jpg,AFSA05.jpg,AFSA09.jpg,AFNE09.jpg,AFNE09.jpg,FN,3,num_4,16,num_4,0.916762167036,,,2017_Oct_03_1126,60.0073330151,FEMA4ImagesEEG,001,201740,
AFNE01.JPG,AFNE01.JPG,AFNE01.JPG,AFNE01.JPG,AFNE01.JPG,AFNE01.JPG,4,2,42,0,,,,,,,,,,,,,,,,,,,,,,,AFNE08.jpg,AFSA10.jpg,AFNE02.jpg,AFSA08.jpg,AFSA08.jpg,FS,4,num_4,32,num_6,2.38333286826,,,2017_Oct_03_1126,60.0073330151,FEMA4ImagesEEG,001,201740,
AFNE01.JPG,AFNE01.JPG,AFNE01.JPG,AFNE01.JPG,AFNE01.JPG,AFNE01.JPG,4,3,43,7,,,,,,,,,,,,,,,,,,,,,,,AFSA12.jpg,AFNE16.jpg,AFNE09.jpg,AFSA07.jpg,AFNE16.jpg,FN,3,num_6,32,num_2,1.05012622727,,,2017_Oct_03_1126,60.0073330151,FEMA4ImagesEEG,001,201740,
AFNE01.JPG,AFNE01.JPG,AFNE01.JPG,AFNE01.JPG,AFNE01.JPG,AFNE01.JPG,4,4,44,5,,,,,,,,,,,,,,,,,,,,,,,AFSA18.jpg,AFSA20.jpg,AFNE03.jpg,AFNE04.jpg,AFSA20.jpg,FS,4,num_6,16,num_6,1.30012743005,,,2017_Oct_03_1126,60.0073330151,FEMA4ImagesEEG,001,201740,
AFNE01.JPG,AFNE01.JPG,AFNE01.JPG,AFNE01.JPG,AFNE01.JPG,AFNE01.JPG,4,5,45,8,,,,,,,,,,,,,,,,,,,,,,,AFSA12.jpg,AFNE04.jpg,AFSA17.jpg,AFNE18.jpg,AFSA17.jpg,FS,4,num_2,32,num_6,0.966779663409,,,2017_Oct_03_1126,60.0073330151,FEMA4ImagesEEG,001,201740,
AFNE01.JPG,AFNE01.JPG,AFNE01.JPG,AFNE01.JPG,AFNE01.JPG,AFNE01.JPG,4,6,46,6,,,,,,,,,,,,,,,,,,,,,,,AFNE05.jpg,AFSA10.jpg,AFSA15.jpg,AFNE15.jpg,AFSA15.jpg,FS,4,num_2,16,num_2,0.916779166262,,,2017_Oct_03_1126,60.0073330151,FEMA4ImagesEEG,001,201740,
AFNE01.JPG,AFNE01.JPG,AFNE01.JPG,AFNE01.JPG,AFNE01.JPG,AFNE01.JPG,4,7,47,3,,,,,,,,,,,,,,,,,,,,,,,AFSA10.jpg,AFNE19.jpg,AFNE10.jpg,AFSA01.jpg,AFSA10.jpg,FS,4,num_8,32,num_4,1.10014244068,,,2017_Oct_03_1126,60.0073330151,FEMA4ImagesEEG,001,201740,
AFNE01.JPG,AFNE01.JPG,AFNE01.JPG,AFNE01.JPG,AFNE01.JPG,AFNE01.JPG,4,8,48,4,,,,,,,,,,,,,,,,,,,,,,,AFNE12.jpg,AFSA09.jpg,AFNE02.jpg,AFSA19.jpg,AFNE12.jpg,FN,3,num_8,32,num_2,0.150161861499,,,2017_Oct_03_1126,60.0073330151,FEMA4ImagesEEG,001,201740,
AFNE01.JPG,AFNE01.JPG,AFNE01.JPG,AFNE01.JPG,AFNE01.JPG,AFNE01.JPG,4,9,49,2,,,,,,,,,,,,,,,,,,,,,,,AFNE19.jpg,AFSA05.jpg,AFNE01.jpg,AFSA19.jpg,AFNE19.jpg,FN,3,num_8,32,num_4,1.05000402529,,,2017_Oct_03_1126,60.0073330151,FEMA4ImagesEEG,001,201740,
AFNE01.JPG,AFNE01.JPG,AFNE01.JPG,AFNE01.JPG,AFNE01.JPG,AFNE01.JPG,5,0,50,1,,,,,,,,,,,,,,,,,,,,,,,AFNE13.jpg,AFNE12.jpg,AFSA04.jpg,AFSA03.jpg,AFSA03.jpg,FS,4,num_4,16,num_4,0.600150298818,,,2017_Oct_03_1126,60.0073330151,FEMA4ImagesEEG,001,201740,
AFNE01.JPG,AFNE01.JPG,AFNE01.JPG,AFNE01.JPG,AFNE01.JPG,AFNE01.JPG,5,1,51,2,,,,,,,,,,,,,,,,,,,,,,,AFSA05.jpg,AFNE13.jpg,AFSA08.jpg,AFNE11.jpg,AFNE13.jpg,FN,3,num_6,32,num_2,0.966817831482,,,2017_Oct_03_1126,60.0073330151,FEMA4ImagesEEG,001,201740,
AFNE01.JPG,AFNE01.JPG,AFNE01.JPG,AFNE01.JPG,AFNE01.JPG,AFNE01.JPG,5,2,52,9,,,,,,,,,,,,,,,,,,,,,,,AFNE05.jpg,AFSA11.jpg,AFNE18.jpg,AFSA01.jpg,AFSA11.jpg,FS,4,num_6,16,num_6,0.850161444536,,,2017_Oct_03_1126,60.0073330151,FEMA4ImagesEEG,001,201740,
AFNE01.JPG,AFNE01.JPG,AFNE01.JPG,AFNE01.JPG,AFNE01.JPG,AFNE01.JPG,5,3,53,6,,,,,,,,,,,,,,,,,,,,,,,AFSA08.jpg,AFNE07.jpg,AFNE16.jpg,AFSA03.jpg,AFNE07.jpg,FN,3,num_6,32,num_2,1.38341497773,,,2017_Oct_03_1126,60.0073330151,FEMA4ImagesEEG,001,201740,
AFNE01.JPG,AFNE01.JPG,AFNE01.JPG,AFNE01.JPG,AFNE01.JPG,AFNE01.JPG,5,4,54,4,,,,,,,,,,,,,,,,,,,,,,,AFSA10.jpg,AFNE04.jpg,AFNE17.jpg,AFSA11.jpg,AFNE17.jpg,FN,3,num_2,32,num_6,1.08346299252,,,2017_Oct_03_1126,60.0073330151,FEMA4ImagesEEG,001,201740,
AFNE01.JPG,AFNE01.JPG,AFNE01.JPG,AFNE01.JPG,AFNE01.JPG,AFNE01.JPG,5,5,55,3,,,,,,,,,,,,,,,,,,,,,,,AFNE03.jpg,AFSA06.jpg,AFSA13.jpg,AFNE15.jpg,AFSA13.jpg,FS,4,num_2,16,num_2,0.883465815038,,,2017_Oct_03_1126,60.0073330151,FEMA4ImagesEEG,001,201740,
AFNE01.JPG,AFNE01.JPG,AFNE01.JPG,AFNE01.JPG,AFNE01.JPG,AFNE01.JPG,5,6,56,7,,,,,,,,,,,,,,,,,,,,,,,AFSA20.jpg,AFNE05.jpg,AFNE18.jpg,AFSA03.jpg,AFNE05.jpg,FN,3,num_6,32,num_8,1.3834419199,,,2017_Oct_03_1126,60.0073330151,FEMA4ImagesEEG,001,201740,
AFNE01.JPG,AFNE01.JPG,AFNE01.JPG,AFNE01.JPG,AFNE01.JPG,AFNE01.JPG,5,7,57,5,,,,,,,,,,,,,,,,,,,,,,,AFNE08.jpg,AFNE18.jpg,AFSA08.jpg,AFSA13.jpg,AFNE18.jpg,FN,3,num_6,32,num_2,2.89995121543,,,2017_Oct_03_1126,60.0073330151,FEMA4ImagesEEG,001,201740,
AFNE01.JPG,AFNE01.JPG,AFNE01.JPG,AFNE01.JPG,AFNE01.JPG,AFNE01.JPG,5,8,58,0,,,,,,,,,,,,,,,,,,,,,,,AFNE12.jpg,AFNE13.jpg,AFSA06.jpg,AFSA15.jpg,AFSA15.jpg,FS,4,num_4,32,num_2,1.05011788803,,,2017_Oct_03_1126,60.0073330151,FEMA4ImagesEEG,001,201740,
AFNE01.JPG,AFNE01.JPG,AFNE01.JPG,AFNE01.JPG,AFNE01.JPG,AFNE01.JPG,5,9,59,8,,,,,,,,,,,,,,,,,,,,,,,AFNE18.jpg,AFSA08.jpg,AFNE06.jpg,AFSA05.jpg,AFSA08.jpg,FS,4,num_6,16,num_6,1.35008141988,,,2017_Oct_03_1126,60.0073330151,FEMA4ImagesEEG,001,201740,
,,,,,,,,,,,,,,,,,,,,,,,,,,,,,,,,,,,,,,,,,,,space,51.7128708838,2017_Oct_03_1126,60.0073330151,FEMA4ImagesEEG,001,201740,
AFNE01.JPG,AFNE01.JPG,AFNE01.JPG,AFNE01.JPG,AFNE01.JPG,AFNE01.JPG,,,,,0,0,0,2,,,,,,,,,,,,,,,,,,,AMSA09.jpg,AMNE16.jpg,AMSA11.jpg,AMNE10.jpg,AMNE10.jpg,MN,1,num_4,32,num_8,1.08344021998,,,2017_Oct_03_1126,60.0073330151,FEMA4ImagesEEG,001,201740,
AFNE01.JPG,AFNE01.JPG,AFNE01.JPG,AFNE01.JPG,AFNE01.JPG,AFNE01.JPG,,,,,0,1,1,4,,,,,,,,,,,,,,,,,,,AMSA20.jpg,AMNE11.jpg,AMSA10.jpg,AMNE20.jpg,AMSA10.jpg,MS,2,num_2,16,num_2,0.633497969234,,,2017_Oct_03_1126,60.0073330151,FEMA4ImagesEEG,001,201740,
AFNE01.JPG,AFNE01.JPG,AFNE01.JPG,AFNE01.JPG,AFNE01.JPG,AFNE01.JPG,,,,,0,2,2,0,,,,,,,,,,,,,,,,,,,AMSA01.jpg,AMNE18.jpg,AMSA05.jpg,AMNE01.jpg,AMNE18.jpg,MN,1,num_6,16,num_6,0.53352520007,,,2017_Oct_03_1126,60.0073330151,FEMA4ImagesEEG,001,201740,
AFNE01.JPG,AFNE01.JPG,AFNE01.JPG,AFNE01.JPG,AFNE01.JPG,AFNE01.JPG,,,,,0,3,3,1,,,,,,,,,,,,,,,,,,,AMSA18.jpg,AMNE18.jpg,AMNE15.jpg,AMSA01.jpg,AMNE15.jpg,MN,1,num_2,16,num_2,0.983474827834,,,2017_Oct_03_1126,60.0073330151,FEMA4ImagesEEG,001,201740,
AFNE01.JPG,AFNE01.JPG,AFNE01.JPG,AFNE01.JPG,AFNE01.JPG,AFNE01.JPG,,,,,0,4,4,9,,,,,,,,,,,,,,,,,,,AMNE13.jpg,AMSA12.jpg,AMSA07.jpg,AMNE12.jpg,AMNE13.jpg,MN,1,num_8,32,num_2,1.05048609768,,,2017_Oct_03_1126,60.0073330151,FEMA4ImagesEEG,001,201740,
AFNE01.JPG,AFNE01.JPG,AFNE01.JPG,AFNE01.JPG,AFNE01.JPG,AFNE01.JPG,,,,,0,5,5,6,,,,,,,,,,,,,,,,,,,AMNE03.jpg,AMSA10.jpg,AMSA16.jpg,AMNE16.jpg,AMNE16.jpg,MN,1,num_4,32,num_6,0.750124848089,,,2017_Oct_03_1126,60.0073330151,FEMA4ImagesEEG,001,201740,
AFNE01.JPG,AFNE01.JPG,AFNE01.JPG,AFNE01.JPG,AFNE01.JPG,AFNE01.JPG,,,,,0,6,6,3,,,,,,,,,,,,,,,,,,,AMSA17.jpg,AMNE08.jpg,AMSA03.jpg,AMNE06.jpg,AMSA17.jpg,MS,2,num_8,32,num_4,1.30010594046,,,2017_Oct_03_1126,60.0073330151,FEMA4ImagesEEG,001,201740,
AFNE01.JPG,AFNE01.JPG,AFNE01.JPG,AFNE01.JPG,AFNE01.JPG,AFNE01.JPG,,,,,0,7,7,7,,,,,,,,,,,,,,,,,,,AMSA06.jpg,AMNE18.jpg,AMNE02.jpg,AMSA12.jpg,AMNE18.jpg,MN,1,num_6,16,num_6,1.08342354149,,,2017_Oct_03_1126,60.0073330151,FEMA4ImagesEEG,001,201740,
AFNE01.JPG,AFNE01.JPG,AFNE01.JPG,AFNE01.JPG,AFNE01.JPG,AFNE01.JPG,,,,,0,8,8,8,,,,,,,,,,,,,,,,,,,AMNE10.jpg,AMSA15.jpg,AMNE05.jpg,AMSA18.jpg,AMSA15.jpg,MS,2,num_6,16,num_6,1.5167129655,,,2017_Oct_03_1126,60.0073330151,FEMA4ImagesEEG,001,201740,
AFNE01.JPG,AFNE01.JPG,AFNE01.JPG,AFNE01.JPG,AFNE01.JPG,AFNE01.JPG,,,,,0,9,9,5,,,,,,,,,,,,,,,,,,,AMNE13.jpg,AMSA04.jpg,AMNE14.jpg,AMSA08.jpg,AMNE14.jpg,MN,1,num_2,32,num_8,1.133444566,,,2017_Oct_03_1126,60.0073330151,FEMA4ImagesEEG,001,201740,
AFNE01.JPG,AFNE01.JPG,AFNE01.JPG,AFNE01.JPG,AFNE01.JPG,AFNE01.JPG,,,,,1,0,10,5,,,,,,,,,,,,,,,,,,,AMSA13.jpg,AMNE19.jpg,AMNE04.jpg,AMSA11.jpg,AMSA11.jpg,MS,2,num_4,16,num_4,1.61674699603,,,2017_Oct_03_1126,60.0073330151,FEMA4ImagesEEG,001,201740,
AFNE01.JPG,AFNE01.JPG,AFNE01.JPG,AFNE01.JPG,AFNE01.JPG,AFNE01.JPG,,,,,1,1,11,3,,,,,,,,,,,,,,,,,,,AMNE10.jpg,AMSA11.jpg,AMNE02.jpg,AMSA04.jpg,AMNE02.jpg,MN,1,num_2,32,num_8,1.08347614287,,,2017_Oct_03_1126,60.0073330151,FEMA4ImagesEEG,001,201740,
AFNE01.JPG,AFNE01.JPG,AFNE01.JPG,AFNE01.JPG,AFNE01.JPG,AFNE01.JPG,,,,,1,2,12,6,,,,,,,,,,,,,,,,,,,AMSA20.jpg,AMNE17.jpg,AMNE05.jpg,AMSA03.jpg,AMSA20.jpg,MS,2,num_8,32,num_6,1.33340485838,,,2017_Oct_03_1126,60.0073330151,FEMA4ImagesEEG,001,201740,
AFNE01.JPG,AFNE01.JPG,AFNE01.JPG,AFNE01.JPG,AFNE01.JPG,AFNE01.JPG,,,,,1,3,13,1,,,,,,,,,,,,,,,,,,,AMSA08.jpg,AMNE19.jpg,AMSA13.jpg,AMNE14.jpg,AMNE14.jpg,MN,1,num_4,32,num_8,1.06674569703,,,2017_Oct_03_1126,60.0073330151,FEMA4ImagesEEG,001,201740,
AFNE01.JPG,AFNE01.JPG,AFNE01.JPG,AFNE01.JPG,AFNE01.JPG,AFNE01.JPG,,,,,1,4,14,9,,,,,,,,,,,,,,,,,,,AMSA07.jpg,AMNE08.jpg,AMNE16.jpg,AMSA18.jpg,AMNE16.jpg,MN,1,num_2,16,num_2,1.00013855973,,,2017_Oct_03_1126,60.0073330151,FEMA4ImagesEEG,001,201740,
AFNE01.JPG,AFNE01.JPG,AFNE01.JPG,AFNE01.JPG,AFNE01.JPG,AFNE01.JPG,,,,,1,5,15,8,,,,,,,,,,,,,,,,,,,AMNE11.jpg,AMSA15.jpg,AMNE16.jpg,AMSA11.jpg,AMSA11.jpg,MS,2,num_4,16,num_4,0.316795331564,,,2017_Oct_03_1126,60.0073330151,FEMA4ImagesEEG,001,201740,
AFNE01.JPG,AFNE01.JPG,AFNE01.JPG,AFNE01.JPG,AFNE01.JPG,AFNE01.JPG,,,,,1,6,16,0,,,,,,,,,,,,,,,,,,,AMNE08.jpg,AMSA18.jpg,AMSA03.jpg,AMNE05.jpg,AMNE08.jpg,MN,1,num_8,32,num_2,0.800128552638,,,2017_Oct_03_1126,60.0073330151,FEMA4ImagesEEG,001,201740,
AFNE01.JPG,AFNE01.JPG,AFNE01.JPG,AFNE01.JPG,AFNE01.JPG,AFNE01.JPG,,,,,1,7,17,2,,,,,,,,,,,,,,,,,,,AMSA05.jpg,AMNE20.jpg,AMSA06.jpg,AMNE08.jpg,AMNE20.jpg,MN,1,num_6,16,num_6,0.533502427521,,,2017_Oct_03_1126,60.0073330151,FEMA4ImagesEEG,001,201740,
AFNE01.JPG,AFNE01.JPG,AFNE01.JPG,AFNE01.JPG,AFNE01.JPG,AFNE01.JPG,,,,,1,8,18,7,,,,,,,,,,,,,,,,,,,AMNE17.jpg,AMSA08.jpg,AMSA18.jpg,AMNE05.jpg,AMSA18.jpg,MS,2,num_2,32,num_8,0.83354871032,,,2017_Oct_03_1126,60.0073330151,FEMA4ImagesEEG,001,201740,
AFNE01.JPG,AFNE01.JPG,AFNE01.JPG,AFNE01.JPG,AFNE01.JPG,AFNE01.JPG,,,,,1,9,19,4,,,,,,,,,,,,,,,,,,,AMNE04.jpg,AMSA02.jpg,AMSA09.jpg,AMNE11.jpg,AMNE04.jpg,MN,1,num_8,16,num_8,0.883465494298,,,2017_Oct_03_1126,60.0073330151,FEMA4ImagesEEG,001,201740,
AFNE01.JPG,AFNE01.JPG,AFNE01.JPG,AFNE01.JPG,AFNE01.JPG,AFNE01.JPG,,,,,2,0,20,6,,,,,,,,,,,,,,,,,,,AMNE15.jpg,AMSA19.jpg,AMSA01.jpg,AMNE11.jpg,AMNE15.jpg,MN,1,num_8,16,num_8,0.983486695219,,,2017_Oct_03_1126,60.0073330151,FEMA4ImagesEEG,001,201740,
AFNE01.JPG,AFNE01.JPG,AFNE01.JPG,AFNE01.JPG,AFNE01.JPG,AFNE01.JPG,,,,,2,1,21,3,,,,,,,,,,,,,,,,,,,AMSA10.jpg,AMNE20.jpg,AMSA04.jpg,AMNE14.jpg,AMNE20.jpg,MN,1,num_6,32,num_4,1.03331110604,,,2017_Oct_03_1126,60.0073330151,FEMA4ImagesEEG,001,201740,
AFNE01.JPG,AFNE01.JPG,AFNE01.JPG,AFNE01.JPG,AFNE01.JPG,AFNE01.JPG,,,,,2,2,22,8,,,,,,,,,,,,,,,,,,,AMNE16.jpg,AMSA04.jpg,AMNE18.jpg,AMSA19.jpg,AMSA19.jpg,MS,2,num_4,16,num_4,0.93348106623,,,2017_Oct_03_1126,60.0073330151,FEMA4ImagesEEG,001,201740,
AFNE01.JPG,AFNE01.JPG,AFNE01.JPG,AFNE01.JPG,AFNE01.JPG,AFNE01.JPG,,,,,2,3,23,0,,,,,,,,,,,,,,,,,,,AMNE09.jpg,AMSA18.jpg,AMSA16.jpg,AMNE19.jpg,AMSA16.jpg,MS,2,num_2,16,num_2,1.58344358775,,,2017_Oct_03_1126,60.0073330151,FEMA4ImagesEEG,001,201740,
AFNE01.JPG,AFNE01.JPG,AFNE01.JPG,AFNE01.JPG,AFNE01.JPG,AFNE01.JPG,,,,,2,4,24,7,,,,,,,,,,,,,,,,,,,AMSA12.jpg,AMNE07.jpg,AMSA17.jpg,AMNE01.jpg,AMNE07.jpg,MN,1,num_6,32,num_2,1.08346844511,,,2017_Oct_03_1126,60.0073330151,FEMA4ImagesEEG,001,201740,
AFNE01.JPG,AFNE01.JPG,AFNE01.JPG,AFNE01.JPG,AFNE01.JPG,AFNE01.JPG,,,,,2,5,25,9,,,,,,,,,,,,,,,,,,,AMSA20.jpg,AMNE10.jpg,AMNE04.jpg,AMSA09.jpg,AMSA20.jpg,MS,2,num_8,32,num_2,0.716759536967,,,2017_Oct_03_1126,60.0073330151,FEMA4ImagesEEG,001,201740,
AFNE01.JPG,AFNE01.JPG,AFNE01.JPG,AFNE01.JPG,AFNE01.JPG,AFNE01.JPG,,,,,2,6,26,2,,,,,,,,,,,,,,,,,,,AMSA20.jpg,AMSA14.jpg,AMNE16.jpg,AMNE04.jpg,AMSA20.jpg,MS,2,num_8,16,num_8,0.583468284736,,,2017_Oct_03_1126,60.0073330151,FEMA4ImagesEEG,001,201740,
AFNE01.JPG,AFNE01.JPG,AFNE01.JPG,AFNE01.JPG,AFNE01.JPG,AFNE01.JPG,,,,,2,7,27,1,,,,,,,,,,,,,,,,,,,AMNE18.jpg,AMNE07.jpg,AMSA10.jpg,AMSA03.jpg,AMNE18.jpg,MN,1,num_8,16,num_8,1.01676091615,,,2017_Oct_03_1126,60.0073330151,FEMA4ImagesEEG,001,201740,
AFNE01.JPG,AFNE01.JPG,AFNE01.JPG,AFNE01.JPG,AFNE01.JPG,AFNE01.JPG,,,,,2,8,28,5,,,,,,,,,,,,,,,,,,,AMNE18.jpg,AMSA09.jpg,AMNE12.jpg,AMSA06.jpg,AMNE18.jpg,MN,1,num_8,16,num_8,1.53342577063,,,2017_Oct_03_1126,60.0073330151,FEMA4ImagesEEG,001,201740,
AFNE01.JPG,AFNE01.JPG,AFNE01.JPG,AFNE01.JPG,AFNE01.JPG,AFNE01.JPG,,,,,2,9,29,4,,,,,,,,,,,,,,,,,,,AMNE11.jpg,AMNE08.jpg,AMSA13.jpg,AMSA14.jpg,AMNE08.jpg,MN,1,num_6,16,num_6,1.41672480081,,,2017_Oct_03_1126,60.0073330151,FEMA4ImagesEEG,001,201740,
AFNE01.JPG,AFNE01.JPG,AFNE01.JPG,AFNE01.JPG,AFNE01.JPG,AFNE01.JPG,,,,,3,0,30,5,,,,,,,,,,,,,,,,,,,AMNE20.jpg,AMSA10.jpg,AMNE01.jpg,AMSA05.jpg,AMSA10.jpg,MS,2,num_6,48,None,,,,2017_Oct_03_1126,60.0073330151,FEMA4ImagesEEG,001,201740,
AFNE01.JPG,AFNE01.JPG,AFNE01.JPG,AFNE01.JPG,AFNE01.JPG,AFNE01.JPG,,,,,3,1,31,8,,,,,,,,,,,,,,,,,,,AMSA17.jpg,AMNE03.jpg,AMNE15.jpg,AMSA20.jpg,AMNE03.jpg,MN,1,num_6,32,num_8,0.733487737624,,,2017_Oct_03_1126,60.0073330151,FEMA4ImagesEEG,001,201740,
AFNE01.JPG,AFNE01.JPG,AFNE01.JPG,AFNE01.JPG,AFNE01.JPG,AFNE01.JPG,,,,,3,2,32,3,,,,,,,,,,,,,,,,,,,AMSA03.jpg,AMNE12.jpg,AMSA18.jpg,AMNE20.jpg,AMSA03.jpg,MS,2,num_8,16,num_8,0.85016978378,,,2017_Oct_03_1126,60.0073330151,FEMA4ImagesEEG,001,201740,
AFNE01.JPG,AFNE01.JPG,AFNE01.JPG,AFNE01.JPG,AFNE01.JPG,AFNE01.JPG,,,,,3,3,33,6,,,,,,,,,,,,,,,,,,,AMSA04.jpg,AMNE15.jpg,AMNE12.jpg,AMSA07.jpg,AMNE12.jpg,MN,1,num_2,32,num_8,1.53342224249,,,2017_Oct_03_1126,60.0073330151,FEMA4ImagesEEG,001,201740,
AFNE01.JPG,AFNE01.JPG,AFNE01.JPG,AFNE01.JPG,AFNE01.JPG,AFNE01.JPG,,,,,3,4,34,0,,,,,,,,,,,,,,,,,,,AMSA20.jpg,AMNE11.jpg,AMSA06.jpg,AMNE19.jpg,AMNE19.jpg,MN,1,num_4,32,num_6,1.43342188968,,,2017_Oct_03_1126,60.0073330151,FEMA4ImagesEEG,001,201740,
AFNE01.JPG,AFNE01.JPG,AFNE01.JPG,AFNE01.JPG,AFNE01.JPG,AFNE01.JPG,,,,,3,5,35,7,,,,,,,,,,,,,,,,,,,AMNE16.jpg,AMSA05.jpg,AMNE12.jpg,AMSA19.jpg,AMSA19.jpg,MS,2,num_4,16,num_4,0.933402484902,,,2017_Oct_03_1126,60.0073330151,FEMA4ImagesEEG,001,201740,
AFNE01.JPG,AFNE01.JPG,AFNE01.JPG,AFNE01.JPG,AFNE01.JPG,AFNE01.JPG,,,,,3,6,36,2,,,,,,,,,,,,,,,,,,,AMNE20.jpg,AMSA20.jpg,AMNE08.jpg,AMSA10.jpg,AMNE20.jpg,MN,1,num_8,16,num_8,0.633439273793,,,2017_Oct_03_1126,60.0073330151,FEMA4ImagesEEG,001,201740,
AFNE01.JPG,AFNE01.JPG,AFNE01.JPG,AFNE01.JPG,AFNE01.JPG,AFNE01.JPG,,,,,3,7,37,9,,,,,,,,,,,,,,,,,,,AMNE01.jpg,AMNE09.jpg,AMSA05.jpg,AMSA08.jpg,AMSA08.jpg,MS,2,num_4,32,num_2,1.033296352,,,2017_Oct_03_1126,60.0073330151,FEMA4ImagesEEG,001,201740,
AFNE01.JPG,AFNE01.JPG,AFNE01.JPG,AFNE01.JPG,AFNE01.JPG,AFNE01.JPG,,,,,3,8,38,4,,,,,,,,,,,,,,,,,,,AMNE10.jpg,AMNE14.jpg,AMSA03.jpg,AMSA10.jpg,AMNE10.jpg,MN,1,num_8,16,num_8,0.600120149247,,,2017_Oct_03_1126,60.0073330151,FEMA4ImagesEEG,001,201740,
AFNE01.JPG,AFNE01.JPG,AFNE01.JPG,AFNE01.JPG,AFNE01.JPG,AFNE01.JPG,,,,,3,9,39,1,,,,,,,,,,,,,,,,,,,AMNE08.jpg,AMNE07.jpg,AMSA07.jpg,AMSA12.jpg,AMNE07.jpg,MN,1,num_6,16,num_6,0.633510478098,,,2017_Oct_03_1126,60.0073330151,FEMA4ImagesEEG,001,201740,
AFNE01.JPG,AFNE01.JPG,AFNE01.JPG,AFNE01.JPG,AFNE01.JPG,AFNE01.JPG,,,,,4,0,40,6,,,,,,,,,,,,,,,,,,,AMNE07.jpg,AMSA04.jpg,AMNE20.jpg,AMSA09.jpg,AMSA09.jpg,MS,2,num_4,32,num_8,0.683487240477,,,2017_Oct_03_1126,60.0073330151,FEMA4ImagesEEG,001,201740,
AFNE01.JPG,AFNE01.JPG,AFNE01.JPG,AFNE01.JPG,AFNE01.JPG,AFNE01.JPG,,,,,4,1,41,9,,,,,,,,,,,,,,,,,,,AMSA15.jpg,AMNE04.jpg,AMSA13.jpg,AMNE06.jpg,AMNE06.jpg,MN,1,num_4,32,num_8,1.48340346316,,,2017_Oct_03_1126,60.0073330151,FEMA4ImagesEEG,001,201740,
AFNE01.JPG,AFNE01.JPG,AFNE01.JPG,AFNE01.JPG,AFNE01.JPG,AFNE01.JPG,,,,,4,2,42,5,,,,,,,,,,,,,,,,,,,AMNE09.jpg,AMSA14.jpg,AMNE14.jpg,AMSA06.jpg,AMNE09.jpg,MN,1,num_8,32,num_6,4.16653019175,,,2017_Oct_03_1126,60.0073330151,FEMA4ImagesEEG,001,201740,
AFNE01.JPG,AFNE01.JPG,AFNE01.JPG,AFNE01.JPG,AFNE01.JPG,AFNE01.JPG,,,,,4,3,43,0,,,,,,,,,,,,,,,,,,,AMSA03.jpg,AMNE19.jpg,AMSA11.jpg,AMNE08.jpg,AMNE08.jpg,MN,1,num_4,16,num_4,1.26671946049,,,2017_Oct_03_1126,60.0073330151,FEMA4ImagesEEG,001,201740,
AFNE01.JPG,AFNE01.JPG,AFNE01.JPG,AFNE01.JPG,AFNE01.JPG,AFNE01.JPG,,,,,4,4,44,8,,,,,,,,,,,,,,,,,,,AMNE14.jpg,AMSA09.jpg,AMNE06.jpg,AMSA08.jpg,AMSA09.jpg,MS,2,num_6,32,num_2,1.13343911342,,,2017_Oct_03_1126,60.0073330151,FEMA4ImagesEEG,001,201740,
AFNE01.JPG,AFNE01.JPG,AFNE01.JPG,AFNE01.JPG,AFNE01.JPG,AFNE01.JPG,,,,,4,5,45,4,,,,,,,,,,,,,,,,,,,AMNE15.jpg,AMSA19.jpg,AMSA01.jpg,AMNE20.jpg,AMSA01.jpg,MS,2,num_2,32,num_4,0.716801553921,,,2017_Oct_03_1126,60.0073330151,FEMA4ImagesEEG,001,201740,
AFNE01.JPG,AFNE01.JPG,AFNE01.JPG,AFNE01.JPG,AFNE01.JPG,AFNE01.JPG,,,,,4,6,46,1,,,,,,,,,,,,,,,,,,,AMNE10.jpg,AMSA08.jpg,AMNE03.jpg,AMSA15.jpg,AMNE10.jpg,MN,1,num_8,32,num_6,0.566847532017,,,2017_Oct_03_1126,60.0073330151,FEMA4ImagesEEG,001,201740,
AFNE01.JPG,AFNE01.JPG,AFNE01.JPG,AFNE01.JPG,AFNE01.JPG,AFNE01.JPG,,,,,4,7,47,2,,,,,,,,,,,,,,,,,,,AMSA07.jpg,AMSA17.jpg,AMNE17.jpg,AMNE06.jpg,AMSA07.jpg,MS,2,num_8,32,num_4,0.800128873378,,,2017_Oct_03_1126,60.0073330151,FEMA4ImagesEEG,001,201740,
AFNE01.JPG,AFNE01.JPG,AFNE01.JPG,AFNE01.JPG,AFNE01.JPG,AFNE01.JPG,,,,,4,8,48,7,,,,,,,,,,,,,,,,,,,AMSA03.jpg,AMSA04.jpg,AMNE09.jpg,AMNE15.jpg,AMNE15.jpg,MN,1,num_4,32,num_8,1.0501400191,,,2017_Oct_03_1126,60.0073330151,FEMA4ImagesEEG,001,201740,
AFNE01.JPG,AFNE01.JPG,AFNE01.JPG,AFNE01.JPG,AFNE01.JPG,AFNE01.JPG,,,,,4,9,49,3,,,,,,,,,,,,,,,,,,,AMSA01.jpg,AMSA09.jpg,AMNE07.jpg,AMNE19.jpg,AMNE19.jpg,MN,1,num_4,32,num_8,1.05013232133,,,2017_Oct_03_1126,60.0073330151,FEMA4ImagesEEG,001,201740,
AFNE01.JPG,AFNE01.JPG,AFNE01.JPG,AFNE01.JPG,AFNE01.JPG,AFNE01.JPG,,,,,5,0,50,5,,,,,,,,,,,,,,,,,,,AMNE02.jpg,AMSA12.jpg,AMSA05.jpg,AMNE03.jpg,AMSA12.jpg,MS,2,num_6,16,num_6,1.05011147323,,,2017_Oct_03_1126,60.0073330151,FEMA4ImagesEEG,001,201740,
AFNE01.JPG,AFNE01.JPG,AFNE01.JPG,AFNE01.JPG,AFNE01.JPG,AFNE01.JPG,,,,,5,1,51,0,,,,,,,,,,,,,,,,,,,AMNE01.jpg,AMNE02.jpg,AMSA10.jpg,AMSA07.jpg,AMNE01.jpg,MN,1,num_8,32,num_4,2.50001427294,,,2017_Oct_03_1126,60.0073330151,FEMA4ImagesEEG,001,201740,
AFNE01.JPG,AFNE01.JPG,AFNE01.JPG,AFNE01.JPG,AFNE01.JPG,AFNE01.JPG,,,,,5,2,52,8,,,,,,,,,,,,,,,,,,,AMNE08.jpg,AMSA06.jpg,AMSA11.jpg,AMNE19.jpg,AMNE19.jpg,MN,1,num_4,48,None,,,,2017_Oct_03_1126,60.0073330151,FEMA4ImagesEEG,001,201740,
AFNE01.JPG,AFNE01.JPG,AFNE01.JPG,AFNE01.JPG,AFNE01.JPG,AFNE01.JPG,,,,,5,3,53,1,,,,,,,,,,,,,,,,,,,AMNE06.jpg,AMSA13.jpg,AMSA08.jpg,AMNE19.jpg,AMNE19.jpg,MN,1,num_4,32,num_6,4.58320912672,,,2017_Oct_03_1126,60.0073330151,FEMA4ImagesEEG,001,201740,
AFNE01.JPG,AFNE01.JPG,AFNE01.JPG,AFNE01.JPG,AFNE01.JPG,AFNE01.JPG,,,,,5,4,54,2,,,,,,,,,,,,,,,,,,,AMNE04.jpg,AMSA16.jpg,AMNE17.jpg,AMSA01.jpg,AMNE17.jpg,MN,1,num_2,32,num_8,1.13342435938,,,2017_Oct_03_1126,60.0073330151,FEMA4ImagesEEG,001,201740,
AFNE01.JPG,AFNE01.JPG,AFNE01.JPG,AFNE01.JPG,AFNE01.JPG,AFNE01.JPG,,,,,5,5,55,3,,,,,,,,,,,,,,,,,,,AMSA01.jpg,AMNE03.jpg,AMSA17.jpg,AMNE04.jpg,AMNE04.jpg,MN,1,num_4,32,num_2,1.55008020107,,,2017_Oct_03_1126,60.0073330151,FEMA4ImagesEEG,001,201740,
AFNE01.JPG,AFNE01.JPG,AFNE01.JPG,AFNE01.JPG,AFNE01.JPG,AFNE01.JPG,,,,,5,6,56,7,,,,,,,,,,,,,,,,,,,AMNE12.jpg,AMSA09.jpg,AMNE01.jpg,AMSA08.jpg,AMSA09.jpg,MS,2,num_6,16,num_6,1.16674701207,,,2017_Oct_03_1126,60.0073330151,FEMA4ImagesEEG,001,201740,
AFNE01.JPG,AFNE01.JPG,AFNE01.JPG,AFNE01.JPG,AFNE01.JPG,AFNE01.JPG,,,,,5,7,57,6,,,,,,,,,,,,,,,,,,,AMNE20.jpg,AMSA05.jpg,AMSA11.jpg,AMNE17.jpg,AMSA05.jpg,MS,2,num_6,16,num_6,4.69986166479,,,2017_Oct_03_1126,60.0073330151,FEMA4ImagesEEG,001,201740,
AFNE01.JPG,AFNE01.JPG,AFNE01.JPG,AFNE01.JPG,AFNE01.JPG,AFNE01.JPG,,,,,5,8,58,9,,,,,,,,,,,,,,,,,,,AMNE07.jpg,AMSA08.jpg,AMSA17.jpg,AMNE18.jpg,AMSA17.jpg,MS,2,num_2,16,num_2,0.000217461797092,,,2017_Oct_03_1126,60.0073330151,FEMA4ImagesEEG,001,201740,
AFNE01.JPG,AFNE01.JPG,AFNE01.JPG,AFNE01.JPG,AFNE01.JPG,AFNE01.JPG,,,,,5,9,59,4,,,,,,,,,,,,,,,,,,,AMNE17.jpg,AMSA06.jpg,AMSA03.jpg,AMNE12.jpg,AMNE12.jpg,MN,1,num_4,16,num_4,0.683480504935,,,2017_Oct_03_1126,60.0073330151,FEMA4ImagesEEG,001,201740,
,,,,,,,,,,,,,,,,,,,,,,,,,,,,,,,,,,,,,,,,,,,space,21.9818563732,2017_Oct_03_1126,60.0073330151,FEMA4ImagesEEG,001,201740,
AFNE01.JPG,AFNE01.JPG,AFNE01.JPG,AFNE01.JPG,AFNE01.JPG,AFNE01.JPG,,,,,,,,,0,0,0,6,,,,,,,,,,,,,,,AFNE10.jpg,AFSA13.jpg,AFSA10.jpg,AFNE07.jpg,AFSA13.jpg,FS,4,num_6,32,num_2,0.683514503387,,,2017_Oct_03_1126,60.0073330151,FEMA4ImagesEEG,001,201740,
AFNE01.JPG,AFNE01.JPG,AFNE01.JPG,AFNE01.JPG,AFNE01.JPG,AFNE01.JPG,,,,,,,,,0,1,1,3,,,,,,,,,,,,,,,AFNE20.jpg,AFSA03.jpg,AFNE09.jpg,AFSA08.jpg,AFSA03.jpg,FS,4,num_6,16,num_6,0.550168404597,,,2017_Oct_03_1126,60.0073330151,FEMA4ImagesEEG,001,201740,
AFNE01.JPG,AFNE01.JPG,AFNE01.JPG,AFNE01.JPG,AFNE01.JPG,AFNE01.JPG,,,,,,,,,0,2,2,0,,,,,,,,,,,,,,,AFNE08.jpg,AFSA13.jpg,AFNE03.jpg,AFSA02.jpg,AFNE03.jpg,FN,3,num_2,16,num_2,0.466842047361,,,2017_Oct_03_1126,60.0073330151,FEMA4ImagesEEG,001,201740,
AFNE01.JPG,AFNE01.JPG,AFNE01.JPG,AFNE01.JPG,AFNE01.JPG,AFNE01.JPG,,,,,,,,,0,3,3,5,,,,,,,,,,,,,,,AFSA03.jpg,AFNE20.jpg,AFNE09.jpg,AFSA12.jpg,AFNE09.jpg,FN,3,num_2,16,num_2,0.850118144621,,,2017_Oct_03_1126,60.0073330151,FEMA4ImagesEEG,001,201740,
AFNE01.JPG,AFNE01.JPG,AFNE01.JPG,AFNE01.JPG,AFNE01.JPG,AFNE01.JPG,,,,,,,,,0,4,4,1,,,,,,,,,,,,,,,AFSA17.jpg,AFNE04.jpg,AFSA08.jpg,AFNE07.jpg,AFSA17.jpg,FS,4,num_8,16,num_8,0.900148791339,,,2017_Oct_03_1126,60.0073330151,FEMA4ImagesEEG,001,201740,
AFNE01.JPG,AFNE01.JPG,AFNE01.JPG,AFNE01.JPG,AFNE01.JPG,AFNE01.JPG,,,,,,,,,0,5,5,8,,,,,,,,,,,,,,,AFSA18.jpg,AFNE17.jpg,AFSA12.jpg,AFNE11.jpg,AFNE11.jpg,FN,3,num_4,32,num_6,0.733458229533,,,2017_Oct_03_1126,60.0073330151,FEMA4ImagesEEG,001,201740,
AFNE01.JPG,AFNE01.JPG,AFNE01.JPG,AFNE01.JPG,AFNE01.JPG,AFNE01.JPG,,,,,,,,,0,6,6,4,,,,,,,,,,,,,,,AFNE14.jpg,AFNE06.jpg,AFSA18.jpg,AFSA09.jpg,AFNE14.jpg,FN,3,num_8,16,num_8,0.900148470599,,,2017_Oct_03_1126,60.0073330151,FEMA4ImagesEEG,001,201740,
AFNE01.JPG,AFNE01.JPG,AFNE01.JPG,AFNE01.JPG,AFNE01.JPG,AFNE01.JPG,,,,,,,,,0,7,7,7,,,,,,,,,,,,,,,AFSA14.jpg,AFNE05.jpg,AFSA17.jpg,AFNE19.jpg,AFNE05.jpg,FN,3,num_6,32,num_8,0.433504319888,,,2017_Oct_03_1126,60.0073330151,FEMA4ImagesEEG,001,201740,
AFNE01.JPG,AFNE01.JPG,AFNE01.JPG,AFNE01.JPG,AFNE01.JPG,AFNE01.JPG,,,,,,,,,0,8,8,2,,,,,,,,,,,,,,,AFSA08.jpg,AFSA20.jpg,AFNE06.jpg,AFNE04.jpg,AFSA20.jpg,FS,4,num_6,32,num_8,1.48341565128,,,2017_Oct_03_1126,60.0073330151,FEMA4ImagesEEG,001,201740,
AFNE01.JPG,AFNE01.JPG,AFNE01.JPG,AFNE01.JPG,AFNE01.JPG,AFNE01.JPG,,,,,,,,,0,9,9,9,,,,,,,,,,,,,,,AFSA13.jpg,AFNE06.jpg,AFNE01.jpg,AFSA01.jpg,AFNE01.jpg,FN,3,num_2,16,num_2,1.36677947096,,,2017_Oct_03_1126,60.0073330151,FEMA4ImagesEEG,001,201740,
AFNE01.JPG,AFNE01.JPG,AFNE01.JPG,AFNE01.JPG,AFNE01.JPG,AFNE01.JPG,,,,,,,,,1,0,10,8,,,,,,,,,,,,,,,AFSA06.jpg,AFSA17.jpg,AFNE10.jpg,AFNE14.jpg,AFSA17.jpg,FS,4,num_6,32,num_8,0.950135817402,,,2017_Oct_03_1126,60.0073330151,FEMA4ImagesEEG,001,201740,
AFNE01.JPG,AFNE01.JPG,AFNE01.JPG,AFNE01.JPG,AFNE01.JPG,AFNE01.JPG,,,,,,,,,1,1,11,2,,,,,,,,,,,,,,,AFNE12.jpg,AFSA17.jpg,AFNE16.jpg,AFSA07.jpg,AFSA07.jpg,FS,4,num_4,32,num_8,1.7501097733,,,2017_Oct_03_1126,60.0073330151,FEMA4ImagesEEG,001,201740,
AFNE01.JPG,AFNE01.JPG,AFNE01.JPG,AFNE01.JPG,AFNE01.JPG,AFNE01.JPG,,,,,,,,,1,2,12,4,,,,,,,,,,,,,,,AFNE02.jpg,AFSA14.jpg,AFSA20.jpg,AFNE06.jpg,AFNE02.jpg,FN,3,num_8,16,num_8,1.25014104547,,,2017_Oct_03_1126,60.0073330151,FEMA4ImagesEEG,001,201740,
AFNE01.JPG,AFNE01.JPG,AFNE01.JPG,AFNE01.JPG,AFNE01.JPG,AFNE01.JPG,,,,,,,,,1,3,13,1,,,,,,,,,,,,,,,AFSA02.jpg,AFNE07.jpg,AFNE18.jpg,AFSA12.jpg,AFNE18.jpg,FN,3,num_2,16,num_2,1.00019629295,,,2017_Oct_03_1126,60.0073330151,FEMA4ImagesEEG,001,201740,
AFNE01.JPG,AFNE01.JPG,AFNE01.JPG,AFNE01.JPG,AFNE01.JPG,AFNE01.JPG,,,,,,,,,1,4,14,7,,,,,,,,,,,,,,,AFNE18.jpg,AFSA04.jpg,AFNE09.jpg,AFSA20.jpg,AFNE18.jpg,FN,3,num_8,32,num_2,1.25013847954,,,2017_Oct_03_1126,60.0073330151,FEMA4ImagesEEG,001,201740,
AFNE01.JPG,AFNE01.JPG,AFNE01.JPG,AFNE01.JPG,AFNE01.JPG,AFNE01.JPG,,,,,,,,,1,5,15,6,,,,,,,,,,,,,,,AFSA04.jpg,AFSA16.jpg,AFNE14.jpg,AFNE08.jpg,AFNE14.jpg,FN,3,num_2,32,num_4,1.7334139674,,,2017_Oct_03_1126,60.0073330151,FEMA4ImagesEEG,001,201740,
AFNE01.JPG,AFNE01.JPG,AFNE01.JPG,AFNE01.JPG,AFNE01.JPG,AFNE01.JPG,,,,,,,,,1,6,16,0,,,,,,,,,,,,,,,AFNE17.jpg,AFSA12.jpg,AFSA01.jpg,AFNE02.jpg,AFNE17.jpg,FN,3,num_8,16,num_8,1.30011171378,,,2017_Oct_03_1126,60.0073330151,FEMA4ImagesEEG,001,201740,
AFNE01.JPG,AFNE01.JPG,AFNE01.JPG,AFNE01.JPG,AFNE01.JPG,AFNE01.JPG,,,,,,,,,1,7,17,3,,,,,,,,,,,,,,,AFSA16.jpg,AFSA02.jpg,AFNE05.jpg,AFNE19.jpg,AFSA02.jpg,FS,4,num_6,32,num_4,0.950127798898,,,2017_Oct_03_1126,60.0073330151,FEMA4ImagesEEG,001,201740,
AFNE01.JPG,AFNE01.JPG,AFNE01.JPG,AFNE01.JPG,AFNE01.JPG,AFNE01.JPG,,,,,,,,,1,8,18,9,,,,,,,,,,,,,,,AFNE02.jpg,AFNE16.jpg,AFSA18.jpg,AFSA05.jpg,AFSA05.jpg,FS,4,num_4,32,num_6,0.950145760345,,,2017_Oct_03_1126,60.0073330151,FEMA4ImagesEEG,001,201740,
AFNE01.JPG,AFNE01.JPG,AFNE01.JPG,AFNE01.JPG,AFNE01.JPG,AFNE01.JPG,,,,,,,,,1,9,19,5,,,,,,,,,,,,,,,AFNE16.jpg,AFSA02.jpg,AFSA06.jpg,AFNE03.jpg,AFSA06.jpg,FS,4,num_2,32,num_8,1.4167366682,,,2017_Oct_03_1126,60.0073330151,FEMA4ImagesEEG,001,201740,
AFNE01.JPG,AFNE01.JPG,AFNE01.JPG,AFNE01.JPG,AFNE01.JPG,AFNE01.JPG,,,,,,,,,2,0,20,5,,,,,,,,,,,,,,,AFSA02.jpg,AFNE20.jpg,AFSA08.jpg,AFNE05.jpg,AFNE05.jpg,FN,3,num_4,32,num_8,0.98346296045,,,2017_Oct_03_1126,60.0073330151,FEMA4ImagesEEG,001,201740,
AFNE01.JPG,AFNE01.JPG,AFNE01.JPG,AFNE01.JPG,AFNE01.JPG,AFNE01.JPG,,,,,,,,,2,1,21,3,,,,,,,,,,,,,,,AFSA11.jpg,AFNE08.jpg,AFNE11.jpg,AFSA12.jpg,AFNE11.jpg,FN,3,num_2,32,num_4,0.416787024395,,,2017_Oct_03_1126,60.0073330151,FEMA4ImagesEEG,001,201740,
AFNE01.JPG,AFNE01.JPG,AFNE01.JPG,AFNE01.JPG,AFNE01.JPG,AFNE01.JPG,,,,,,,,,2,2,22,0,,,,,,,,,,,,,,,AFSA11.jpg,AFNE17.jpg,AFSA16.jpg,AFNE19.jpg,AFNE17.jpg,FN,3,num_6,16,num_6,0.916776279601,,,2017_Oct_03_1126,60.0073330151,FEMA4ImagesEEG,001,201740,
AFNE01.JPG,AFNE01.JPG,AFNE01.JPG,AFNE01.JPG,AFNE01.JPG,AFNE01.JPG,,,,,,,,,2,3,23,8,,,,,,,,,,,,,,,AFSA15.jpg,AFNE03.jpg,AFNE15.jpg,AFSA02.jpg,AFNE03.jpg,FN,3,num_6,16,num_6,0.816782983069,,,2017_Oct_03_1126,60.0073330151,FEMA4ImagesEEG,001,201740,
AFNE01.JPG,AFNE01.JPG,AFNE01.JPG,AFNE01.JPG,AFNE01.JPG,AFNE01.JPG,,,,,,,,,2,4,24,4,,,,,,,,,,,,,,,AFNE03.jpg,AFSA06.jpg,AFSA12.jpg,AFNE07.jpg,AFNE07.jpg,FN,3,num_4,16,num_4,0.766817767334,,,2017_Oct_03_1126,60.0073330151,FEMA4ImagesEEG,001,201740,
AFNE01.JPG,AFNE01.JPG,AFNE01.JPG,AFNE01.JPG,AFNE01.JPG,AFNE01.JPG,,,,,,,,,2,5,25,6,,,,,,,,,,,,,,,AFNE19.jpg,AFSA09.jpg,AFSA03.jpg,AFNE06.jpg,AFSA09.jpg,FS,4,num_6,32,num_2,0.750008740168,,,2017_Oct_03_1126,60.0073330151,FEMA4ImagesEEG,001,201740,
AFNE01.JPG,AFNE01.JPG,AFNE01.JPG,AFNE01.JPG,AFNE01.JPG,AFNE01.JPG,,,,,,,,,2,6,26,9,,,,,,,,,,,,,,,AFNE13.jpg,AFSA14.jpg,AFNE11.jpg,AFSA05.jpg,AFSA14.jpg,FS,4,num_6,16,num_6,0.61686150025,,,2017_Oct_03_1126,60.0073330151,FEMA4ImagesEEG,001,201740,
AFNE01.JPG,AFNE01.JPG,AFNE01.JPG,AFNE01.JPG,AFNE01.JPG,AFNE01.JPG,,,,,,,,,2,7,27,2,,,,,,,,,,,,,,,AFSA01.jpg,AFSA03.jpg,AFNE06.jpg,AFNE19.jpg,AFNE19.jpg,FN,3,num_4,16,num_4,1.2001363787,,,2017_Oct_03_1126,60.0073330151,FEMA4ImagesEEG,001,201740,
AFNE01.JPG,AFNE01.JPG,AFNE01.JPG,AFNE01.JPG,AFNE01.JPG,AFNE01.JPG,,,,,,,,,2,8,28,7,,,,,,,,,,,,,,,AFSA13.jpg,AFNE10.jpg,AFSA11.jpg,AFNE17.jpg,AFNE10.jpg,FN,3,num_6,16,num_6,1.01667624076,,,2017_Oct_03_1126,60.0073330151,FEMA4ImagesEEG,001,201740,
AFNE01.JPG,AFNE01.JPG,AFNE01.JPG,AFNE01.JPG,AFNE01.JPG,AFNE01.JPG,,,,,,,,,2,9,29,1,,,,,,,,,,,,,,,AFNE09.jpg,AFSA14.jpg,AFSA16.jpg,AFNE06.jpg,AFSA14.jpg,FS,4,num_6,16,num_6,0.533596083636,,,2017_Oct_03_1126,60.0073330151,FEMA4ImagesEEG,001,201740,
AFNE01.JPG,AFNE01.JPG,AFNE01.JPG,AFNE01.JPG,AFNE01.JPG,AFNE01.JPG,,,,,,,,,3,0,30,7,,,,,,,,,,,,,,,AFSA19.jpg,AFNE11.jpg,AFNE15.jpg,AFSA10.jpg,AFNE11.jpg,FN,3,num_6,16,num_6,1.0168613078,,,2017_Oct_03_1126,60.0073330151,FEMA4ImagesEEG,001,201740,
AFNE01.JPG,AFNE01.JPG,AFNE01.JPG,AFNE01.JPG,AFNE01.JPG,AFNE01.JPG,,,,,,,,,3,1,31,1,,,,,,,,,,,,,,,AFNE15.jpg,AFSA05.jpg,AFSA11.jpg,AFNE14.jpg,AFNE14.jpg,FN,3,num_4,32,num_8,0.716895851516,,,2017_Oct_03_1126,60.0073330151,FEMA4ImagesEEG,001,201740,
AFNE01.JPG,AFNE01.JPG,AFNE01.JPG,AFNE01.JPG,AFNE01.JPG,AFNE01.JPG,,,,,,,,,3,2,32,8,,,,,,,,,,,,,,,AFNE03.jpg,AFSA20.jpg,AFNE01.jpg,AFSA08.jpg,AFSA20.jpg,FS,4,num_6,32,num_8,0.666878355142,,,2017_Oct_03_1126,60.0073330151,FEMA4ImagesEEG,001,201740,
AFNE01.JPG,AFNE01.JPG,AFNE01.JPG,AFNE01.JPG,AFNE01.JPG,AFNE01.JPG,,,,,,,,,3,3,33,9,,,,,,,,,,,,,,,AFNE15.jpg,AFNE13.jpg,AFSA08.jpg,AFSA12.jpg,AFSA12.jpg,FS,4,num_4,32,num_8,0.766783127402,,,2017_Oct_03_1126,60.0073330151,FEMA4ImagesEEG,001,201740,
AFNE01.JPG,AFNE01.JPG,AFNE01.JPG,AFNE01.JPG,AFNE01.JPG,AFNE01.JPG,,,,,,,,,3,4,34,5,,,,,,,,,,,,,,,AFNE05.jpg,AFSA14.jpg,AFSA04.jpg,AFNE11.jpg,AFNE11.jpg,FN,3,num_4,16,num_4,0.483519571081,,,2017_Oct_03_1126,60.0073330151,FEMA4ImagesEEG,001,201740,
AFNE01.JPG,AFNE01.JPG,AFNE01.JPG,AFNE01.JPG,AFNE01.JPG,AFNE01.JPG,,,,,,,,,3,5,35,4,,,,,,,,,,,,,,,AFSA12.jpg,AFNE05.jpg,AFSA04.jpg,AFNE11.jpg,AFNE11.jpg,FN,3,num_4,16,num_4,0.700131727966,,,2017_Oct_03_1126,60.0073330151,FEMA4ImagesEEG,001,201740,
AFNE01.JPG,AFNE01.JPG,AFNE01.JPG,AFNE01.JPG,AFNE01.JPG,AFNE01.JPG,,,,,,,,,3,6,36,2,,,,,,,,,,,,,,,AFNE01.jpg,AFNE02.jpg,AFSA17.jpg,AFSA01.jpg,AFSA01.jpg,FS,4,num_4,16,num_4,1.30011011008,,,2017_Oct_03_1126,60.0073330151,FEMA4ImagesEEG,001,201740,
AFNE01.JPG,AFNE01.JPG,AFNE01.JPG,AFNE01.JPG,AFNE01.JPG,AFNE01.JPG,,,,,,,,,3,7,37,6,,,,,,,,,,,,,,,AFNE18.jpg,AFSA11.jpg,AFNE01.jpg,AFSA18.jpg,AFSA18.jpg,FS,4,num_4,16,num_4,1.80004034911,,,2017_Oct_03_1126,60.0073330151,FEMA4ImagesEEG,001,201740,
AFNE01.JPG,AFNE01.JPG,AFNE01.JPG,AFNE01.JPG,AFNE01.JPG,AFNE01.JPG,,,,,,,,,3,8,38,3,,,,,,,,,,,,,,,AFNE09.jpg,AFSA02.jpg,AFSA05.jpg,AFNE12.jpg,AFNE12.jpg,FN,3,num_4,32,num_2,0.116823171806,,,2017_Oct_03_1126,60.0073330151,FEMA4ImagesEEG,001,201740,
AFNE01.JPG,AFNE01.JPG,AFNE01.JPG,AFNE01.JPG,AFNE01.JPG,AFNE01.JPG,,,,,,,,,3,9,39,0,,,,,,,,,,,,,,,AFSA04.jpg,AFSA18.jpg,AFNE16.jpg,AFNE19.jpg,AFNE19.jpg,FN,3,num_4,32,num_8,0.0835248953663,,,2017_Oct_03_1126,60.0073330151,FEMA4ImagesEEG,001,201740,
AFNE01.JPG,AFNE01.JPG,AFNE01.JPG,AFNE01.JPG,AFNE01.JPG,AFNE01.JPG,,,,,,,,,4,0,40,7,,,,,,,,,,,,,,,AFSA11.jpg,AFNE16.jpg,AFSA19.jpg,AFNE03.jpg,AFSA19.jpg,FS,4,num_2,16,num_2,0.933456689981,,,2017_Oct_03_1126,60.0073330151,FEMA4ImagesEEG,001,201740,
AFNE01.JPG,AFNE01.JPG,AFNE01.JPG,AFNE01.JPG,AFNE01.JPG,AFNE01.JPG,,,,,,,,,4,1,41,0,,,,,,,,,,,,,,,AFNE11.jpg,AFSA10.jpg,AFSA01.jpg,AFNE07.jpg,AFSA10.jpg,FS,4,num_6,32,num_2,1.56673110335,,,2017_Oct_03_1126,60.0073330151,FEMA4ImagesEEG,001,201740,
AFNE01.JPG,AFNE01.JPG,AFNE01.JPG,AFNE01.JPG,AFNE01.JPG,AFNE01.JPG,,,,,,,,,4,2,42,4,,,,,,,,,,,,,,,AFNE08.jpg,AFSA16.jpg,AFNE07.jpg,AFSA14.jpg,AFSA16.jpg,FS,4,num_6,16,num_6,0.666860393696,,,2017_Oct_03_1126,60.0073330151,FEMA4ImagesEEG,001,201740,
AFNE01.JPG,AFNE01.JPG,AFNE01.JPG,AFNE01.JPG,AFNE01.JPG,AFNE01.JPG,,,,,,,,,4,3,43,2,,,,,,,,,,,,,,,AFSA02.jpg,AFSA18.jpg,AFNE05.jpg,AFNE02.jpg,AFNE02.jpg,FN,3,num_4,32,num_8,0.95015923143,,,2017_Oct_03_1126,60.0073330151,FEMA4ImagesEEG,001,201740,
AFNE01.JPG,AFNE01.JPG,AFNE01.JPG,AFNE01.JPG,AFNE01.JPG,AFNE01.JPG,,,,,,,,,4,4,44,8,,,,,,,,,,,,,,,AFNE19.jpg,AFSA01.jpg,AFSA10.jpg,AFNE08.jpg,AFNE08.jpg,FN,3,num_4,32,num_8,0.883494040168,,,2017_Oct_03_1126,60.0073330151,FEMA4ImagesEEG,001,201740,
AFNE01.JPG,AFNE01.JPG,AFNE01.JPG,AFNE01.JPG,AFNE01.JPG,AFNE01.JPG,,,,,,,,,4,5,45,3,,,,,,,,,,,,,,,AFSA09.jpg,AFNE20.jpg,AFNE15.jpg,AFSA01.jpg,AFNE20.jpg,FN,3,num_6,32,num_8,4.96648554472,,,2017_Oct_03_1126,60.0073330151,FEMA4ImagesEEG,001,201740,
AFNE01.JPG,AFNE01.JPG,AFNE01.JPG,AFNE01.JPG,AFNE01.JPG,AFNE01.JPG,,,,,,,,,4,6,46,6,,,,,,,,,,,,,,,AFSA06.jpg,AFSA12.jpg,AFNE10.jpg,AFNE20.jpg,AFNE10.jpg,FN,3,num_2,16,num_2,0.5334966542,,,2017_Oct_03_1126,60.0073330151,FEMA4ImagesEEG,001,201740,
AFNE01.JPG,AFNE01.JPG,AFNE01.JPG,AFNE01.JPG,AFNE01.JPG,AFNE01.JPG,,,,,,,,,4,7,47,5,,,,,,,,,,,,,,,AFSA09.jpg,AFNE12.jpg,AFSA01.jpg,AFNE15.jpg,AFSA01.jpg,FS,4,num_2,32,num_8,2.25003455975,,,2017_Oct_03_1126,60.0073330151,FEMA4ImagesEEG,001,201740,
AFNE01.JPG,AFNE01.JPG,AFNE01.JPG,AFNE01.JPG,AFNE01.JPG,AFNE01.JPG,,,,,,,,,4,8,48,1,,,,,,,,,,,,,,,AFNE05.jpg,AFSA12.jpg,AFNE07.jpg,AFSA05.jpg,AFNE05.jpg,FN,3,num_8,16,num_8,1.08347485991,,,2017_Oct_03_1126,60.0073330151,FEMA4ImagesEEG,001,201740,
AFNE01.JPG,AFNE01.JPG,AFNE01.JPG,AFNE01.JPG,AFNE01.JPG,AFNE01.JPG,,,,,,,,,4,9,49,9,,,,,,,,,,,,,,,AFSA08.jpg,AFNE09.jpg,AFSA18.jpg,AFNE10.jpg,AFSA18.jpg,FS,4,num_2,32,num_8,1.70010093691,,,2017_Oct_03_1126,60.0073330151,FEMA4ImagesEEG,001,201740,
AFNE01.JPG,AFNE01.JPG,AFNE01.JPG,AFNE01.JPG,AFNE01.JPG,AFNE01.JPG,,,,,,,,,5,0,50,7,,,,,,,,,,,,,,,AFSA10.jpg,AFNE09.jpg,AFSA12.jpg,AFNE20.jpg,AFNE20.jpg,FN,3,num_4,32,num_6,1.14995851227,,,2017_Oct_03_1126,60.0073330151,FEMA4ImagesEEG,001,201740,
AFNE01.JPG,AFNE01.JPG,AFNE01.JPG,AFNE01.JPG,AFNE01.JPG,AFNE01.JPG,,,,,,,,,5,1,51,5,,,,,,,,,,,,,,,AFSA07.jpg,AFSA02.jpg,AFNE07.jpg,AFNE03.jpg,AFSA02.jpg,FS,4,num_6,16,num_6,1.31681297227,,,2017_Oct_03_1126,60.0073330151,FEMA4ImagesEEG,001,201740,
AFNE01.JPG,AFNE01.JPG,AFNE01.JPG,AFNE01.JPG,AFNE01.JPG,AFNE01.JPG,,,,,,,,,5,2,52,9,,,,,,,,,,,,,,,AFNE11.jpg,AFSA03.jpg,AFSA05.jpg,AFNE09.jpg,AFSA03.jpg,FS,4,num_6,16,num_6,1.13345354673,,,2017_Oct_03_1126,60.0073330151,FEMA4ImagesEEG,001,201740,
AFNE01.JPG,AFNE01.JPG,AFNE01.JPG,AFNE01.JPG,AFNE01.JPG,AFNE01.JPG,,,,,,,,,5,3,53,3,,,,,,,,,,,,,,,AFSA15.jpg,AFSA16.jpg,AFNE14.jpg,AFNE13.jpg,AFSA16.jpg,FS,4,num_6,32,num_4,1.16678870828,,,2017_Oct_03_1126,60.0073330151,FEMA4ImagesEEG,001,201740,
AFNE01.JPG,AFNE01.JPG,AFNE01.JPG,AFNE01.JPG,AFNE01.JPG,AFNE01.JPG,,,,,,,,,5,4,54,8,,,,,,,,,,,,,,,AFNE12.jpg,AFNE11.jpg,AFSA16.jpg,AFSA01.jpg,AFSA16.jpg,FS,4,num_2,16,num_2,1.05016215016,,,2017_Oct_03_1126,60.0073330151,FEMA4ImagesEEG,001,201740,
AFNE01.JPG,AFNE01.JPG,AFNE01.JPG,AFNE01.JPG,AFNE01.JPG,AFNE01.JPG,,,,,,,,,5,5,55,0,,,,,,,,,,,,,,,AFNE17.jpg,AFNE04.jpg,AFSA09.jpg,AFSA15.jpg,AFNE17.jpg,FN,3,num_8,32,num_6,1.60006209529,,,2017_Oct_03_1126,60.0073330151,FEMA4ImagesEEG,001,201740,
AFNE01.JPG,AFNE01.JPG,AFNE01.JPG,AFNE01.JPG,AFNE01.JPG,AFNE01.JPG,,,,,,,,,5,6,56,2,,,,,,,,,,,,,,,AFNE14.jpg,AFSA06.jpg,AFSA18.jpg,AFNE18.jpg,AFSA06.jpg,FS,4,num_6,16,num_6,1.7500905289,,,2017_Oct_03_1126,60.0073330151,FEMA4ImagesEEG,001,201740,
AFNE01.JPG,AFNE01.JPG,AFNE01.JPG,AFNE01.JPG,AFNE01.JPG,AFNE01.JPG,,,,,,,,,5,7,57,6,,,,,,,,,,,,,,,AFSA19.jpg,AFNE09.jpg,AFNE11.jpg,AFSA11.jpg,AFSA11.jpg,FS,4,num_4,32,num_8,1.11677217413,,,2017_Oct_03_1126,60.0073330151,FEMA4ImagesEEG,001,201740,
AFNE01.JPG,AFNE01.JPG,AFNE01.JPG,AFNE01.JPG,AFNE01.JPG,AFNE01.JPG,,,,,,,,,5,8,58,1,,,,,,,,,,,,,,,AFNE04.jpg,AFNE08.jpg,AFSA13.jpg,AFSA12.jpg,AFNE08.jpg,FN,3,num_6,16,num_6,0.700129803524,,,2017_Oct_03_1126,60.0073330151,FEMA4ImagesEEG,001,201740,
AFNE01.JPG,AFNE01.JPG,AFNE01.JPG,AFNE01.JPG,AFNE01.JPG,AFNE01.JPG,,,,,,,,,5,9,59,4,,,,,,,,,,,,,,,AFSA18.jpg,AFSA13.jpg,AFNE07.jpg,AFNE13.jpg,AFSA18.jpg,FS,4,num_8,32,num_4,0.750140243615,,,2017_Oct_03_1126,60.0073330151,FEMA4ImagesEEG,001,201740,
,,,,,,,,,,,,,,,,,,,,,,,,,,,,,,,,,,,,,,,,,,,space,4.69982766634,2017_Oct_03_1126,60.0073330151,FEMA4ImagesEEG,001,201740,
AFNE01.JPG,AFNE01.JPG,AFNE01.JPG,AFNE01.JPG,AFNE01.JPG,AFNE01.JPG,,,,,,,,,,,,,0,0,0,8,,,,,,,,,,,AMNE03.jpg,AMSA01.jpg,AMSA17.jpg,AMNE09.jpg,AMSA01.jpg,MS,2,num_6,32,num_4,0.966780625629,,,2017_Oct_03_1126,60.0073330151,FEMA4ImagesEEG,001,201740,
AFNE01.JPG,AFNE01.JPG,AFNE01.JPG,AFNE01.JPG,AFNE01.JPG,AFNE01.JPG,,,,,,,,,,,,,0,1,1,9,,,,,,,,,,,AMSA01.jpg,AMNE14.jpg,AMNE04.jpg,AMSA18.jpg,AMNE04.jpg,MN,1,num_2,32,num_6,1.00015395525,,,2017_Oct_03_1126,60.0073330151,FEMA4ImagesEEG,001,201740,
AFNE01.JPG,AFNE01.JPG,AFNE01.JPG,AFNE01.JPG,AFNE01.JPG,AFNE01.JPG,,,,,,,,,,,,,0,2,2,7,,,,,,,,,,,AMSA18.jpg,AMNE05.jpg,AMSA04.jpg,AMNE12.jpg,AMNE12.jpg,MN,1,num_4,16,num_4,0.950147043306,,,2017_Oct_03_1126,60.0073330151,FEMA4ImagesEEG,001,201740,
AFNE01.JPG,AFNE01.JPG,AFNE01.JPG,AFNE01.JPG,AFNE01.JPG,AFNE01.JPG,,,,,,,,,,,,,0,3,3,4,,,,,,,,,,,AMSA15.jpg,AMNE08.jpg,AMSA13.jpg,AMNE17.jpg,AMNE08.jpg,MN,1,num_6,16,num_6,0.566845928317,,,2017_Oct_03_1126,60.0073330151,FEMA4ImagesEEG,001,201740,
AFNE01.JPG,AFNE01.JPG,AFNE01.JPG,AFNE01.JPG,AFNE01.JPG,AFNE01.JPG,,,,,,,,,,,,,0,4,4,6,,,,,,,,,,,AMNE16.jpg,AMNE17.jpg,AMSA09.jpg,AMSA01.jpg,AMSA01.jpg,MS,2,num_4,16,num_4,0.833487448958,,,2017_Oct_03_1126,60.0073330151,FEMA4ImagesEEG,001,201740,
AFNE01.JPG,AFNE01.JPG,AFNE01.JPG,AFNE01.JPG,AFNE01.JPG,AFNE01.JPG,,,,,,,,,,,,,0,5,5,5,,,,,,,,,,,AMNE01.jpg,AMSA01.jpg,AMNE16.jpg,AMSA14.jpg,AMSA01.jpg,MS,2,num_6,16,num_6,0.666785340509,,,2017_Oct_03_1126,60.0073330151,FEMA4ImagesEEG,001,201740,
AFNE01.JPG,AFNE01.JPG,AFNE01.JPG,AFNE01.JPG,AFNE01.JPG,AFNE01.JPG,,,,,,,,,,,,,0,6,6,1,,,,,,,,,,,AMNE17.jpg,AMSA17.jpg,AMSA20.jpg,AMNE03.jpg,AMSA20.jpg,MS,2,num_2,16,num_2,0.883478965383,,,2017_Oct_03_1126,60.0073330151,FEMA4ImagesEEG,001,201740,
AFNE01.JPG,AFNE01.JPG,AFNE01.JPG,AFNE01.JPG,AFNE01.JPG,AFNE01.JPG,,,,,,,,,,,,,0,7,7,2,,,,,,,,,,,AMSA14.jpg,AMNE08.jpg,AMNE12.jpg,AMSA01.jpg,AMNE12.jpg,MN,1,num_2,32,num_6,0.716642146085,,,2017_Oct_03_1126,60.0073330151,FEMA4ImagesEEG,001,201740,
AFNE01.JPG,AFNE01.JPG,AFNE01.JPG,AFNE01.JPG,AFNE01.JPG,AFNE01.JPG,,,,,,,,,,,,,0,8,8,3,,,,,,,,,,,AMNE20.jpg,AMSA19.jpg,AMSA04.jpg,AMNE01.jpg,AMNE01.jpg,MN,1,num_4,16,num_4,0.86696213246,,,2017_Oct_03_1126,60.0073330151,FEMA4ImagesEEG,001,201740,
AFNE01.JPG,AFNE01.JPG,AFNE01.JPG,AFNE01.JPG,AFNE01.JPG,AFNE01.JPG,,,,,,,,,,,,,0,9,9,0,,,,,,,,,,,AMNE06.jpg,AMSA20.jpg,AMNE08.jpg,AMSA04.jpg,AMSA04.jpg,MS,2,num_4,32,num_2,2.03339289477,,,2017_Oct_03_1126,60.0073330151,FEMA4ImagesEEG,001,201740,
AFNE01.JPG,AFNE01.JPG,AFNE01.JPG,AFNE01.JPG,AFNE01.JPG,AFNE01.JPG,,,,,,,,,,,,,1,0,10,9,,,,,,,,,,,AMNE12.jpg,AMSA02.jpg,AMSA19.jpg,AMNE20.jpg,AMNE20.jpg,MN,1,num_4,16,num_4,0.71679706356,,,2017_Oct_03_1126,60.0073330151,FEMA4ImagesEEG,001,201740,
AFNE01.JPG,AFNE01.JPG,AFNE01.JPG,AFNE01.JPG,AFNE01.JPG,AFNE01.JPG,,,,,,,,,,,,,1,1,11,8,,,,,,,,,,,AMNE14.jpg,AMSA11.jpg,AMSA07.jpg,AMNE16.jpg,AMNE16.jpg,MN,1,num_4,32,num_8,1.01651202182,,,2017_Oct_03_1126,60.0073330151,FEMA4ImagesEEG,001,201740,
AFNE01.JPG,AFNE01.JPG,AFNE01.JPG,AFNE01.JPG,AFNE01.JPG,AFNE01.JPG,,,,,,,,,,,,,1,2,12,5,,,,,,,,,,,AMNE01.jpg,AMSA01.jpg,AMNE07.jpg,AMSA05.jpg,AMNE07.jpg,MN,1,num_2,16,num_2,0.600162486942,,,2017_Oct_03_1126,60.0073330151,FEMA4ImagesEEG,001,201740,
AFNE01.JPG,AFNE01.JPG,AFNE01.JPG,AFNE01.JPG,AFNE01.JPG,AFNE01.JPG,,,,,,,,,,,,,1,3,13,2,,,,,,,,,,,AMSA14.jpg,AMNE03.jpg,AMSA19.jpg,AMNE19.jpg,AMNE19.jpg,MN,1,num_4,32,num_6,2.200021233,,,2017_Oct_03_1126,60.0073330151,FEMA4ImagesEEG,001,201740,
AFNE01.JPG,AFNE01.JPG,AFNE01.JPG,AFNE01.JPG,AFNE01.JPG,AFNE01.JPG,,,,,,,,,,,,,1,4,14,7,,,,,,,,,,,AMSA07.jpg,AMSA20.jpg,AMNE16.jpg,AMNE06.jpg,AMSA20.jpg,MS,2,num_6,32,num_2,0.95010534709,,,2017_Oct_03_1126,60.0073330151,FEMA4ImagesEEG,001,201740,
AFNE01.JPG,AFNE01.JPG,AFNE01.JPG,AFNE01.JPG,AFNE01.JPG,AFNE01.JPG,,,,,,,,,,,,,1,5,15,1,,,,,,,,,,,AMNE19.jpg,AMNE02.jpg,AMSA19.jpg,AMSA18.jpg,AMNE02.jpg,MN,1,num_6,16,num_6,1.61662960515,,,2017_Oct_03_1126,60.0073330151,FEMA4ImagesEEG,001,201740,
AFNE01.JPG,AFNE01.JPG,AFNE01.JPG,AFNE01.JPG,AFNE01.JPG,AFNE01.JPG,,,,,,,,,,,,,1,6,16,3,,,,,,,,,,,AMNE03.jpg,AMSA11.jpg,AMSA18.jpg,AMNE05.jpg,AMNE05.jpg,MN,1,num_4,32,num_8,1.61671267684,,,2017_Oct_03_1126,60.0073330151,FEMA4ImagesEEG,001,201740,
AFNE01.JPG,AFNE01.JPG,AFNE01.JPG,AFNE01.JPG,AFNE01.JPG,AFNE01.JPG,,,,,,,,,,,,,1,7,17,0,,,,,,,,,,,AMSA01.jpg,AMNE15.jpg,AMSA05.jpg,AMNE08.jpg,AMNE08.jpg,MN,1,num_4,32,num_8,1.05020897822,,,2017_Oct_03_1126,60.0073330151,FEMA4ImagesEEG,001,201740,
AFNE01.JPG,AFNE01.JPG,AFNE01.JPG,AFNE01.JPG,AFNE01.JPG,AFNE01.JPG,,,,,,,,,,,,,1,8,18,4,,,,,,,,,,,AMSA12.jpg,AMNE18.jpg,AMNE09.jpg,AMSA20.jpg,AMSA12.jpg,MS,2,num_8,32,num_4,1.26677270335,,,2017_Oct_03_1126,60.0073330151,FEMA4ImagesEEG,001,201740,
AFNE01.JPG,AFNE01.JPG,AFNE01.JPG,AFNE01.JPG,AFNE01.JPG,AFNE01.JPG,,,,,,,,,,,,,1,9,19,6,,,,,,,,,,,AMNE19.jpg,AMNE09.jpg,AMSA04.jpg,AMSA09.jpg,AMNE09.jpg,MN,1,num_6,48,None,,,,2017_Oct_03_1126,60.0073330151,FEMA4ImagesEEG,001,201740,
AFNE01.JPG,AFNE01.JPG,AFNE01.JPG,AFNE01.JPG,AFNE01.JPG,AFNE01.JPG,,,,,,,,,,,,,2,0,20,4,,,,,,,,,,,AMNE01.jpg,AMSA11.jpg,AMSA17.jpg,AMNE17.jpg,AMSA11.jpg,MS,2,num_6,32,num_2,3.58323574815,,,2017_Oct_03_1126,60.0073330151,FEMA4ImagesEEG,001,201740,
AFNE01.JPG,AFNE01.JPG,AFNE01.JPG,AFNE01.JPG,AFNE01.JPG,AFNE01.JPG,,,,,,,,,,,,,2,1,21,5,,,,,,,,,,,AMNE17.jpg,AMNE12.jpg,AMSA04.jpg,AMSA10.jpg,AMSA04.jpg,MS,2,num_2,16,num_2,0.68344041242,,,2017_Oct_03_1126,60.0073330151,FEMA4ImagesEEG,001,201740,
AFNE01.JPG,AFNE01.JPG,AFNE01.JPG,AFNE01.JPG,AFNE01.JPG,AFNE01.JPG,,,,,,,,,,,,,2,2,22,7,,,,,,,,,,,AMNE18.jpg,AMNE09.jpg,AMSA02.jpg,AMSA06.jpg,AMNE09.jpg,MN,1,num_6,32,num_8,1.23344652252,,,2017_Oct_03_1126,60.0073330151,FEMA4ImagesEEG,001,201740,
AFNE01.JPG,AFNE01.JPG,AFNE01.JPG,AFNE01.JPG,AFNE01.JPG,AFNE01.JPG,,,,,,,,,,,,,2,3,23,6,,,,,,,,,,,AMNE03.jpg,AMSA14.jpg,AMSA01.jpg,AMNE08.jpg,AMSA01.jpg,MS,2,num_2,16,num_2,1.06680471321,,,2017_Oct_03_1126,60.0073330151,FEMA4ImagesEEG,001,201740,
AFNE01.JPG,AFNE01.JPG,AFNE01.JPG,AFNE01.JPG,AFNE01.JPG,AFNE01.JPG,,,,,,,,,,,,,2,4,24,2,,,,,,,,,,,AMSA10.jpg,AMNE04.jpg,AMSA05.jpg,AMNE08.jpg,AMSA05.jpg,MS,2,num_2,32,num_4,1.40010372735,,,2017_Oct_03_1126,60.0073330151,FEMA4ImagesEEG,001,201740,
AFNE01.JPG,AFNE01.JPG,AFNE01.JPG,AFNE01.JPG,AFNE01.JPG,AFNE01.JPG,,,,,,,,,,,,,2,5,25,9,,,,,,,,,,,AMNE11.jpg,AMSA11.jpg,AMNE18.jpg,AMSA13.jpg,AMNE11.jpg,MN,1,num_8,16,num_8,1.10012063036,,,2017_Oct_03_1126,60.0073330151,FEMA4ImagesEEG,001,201740,
AFNE01.JPG,AFNE01.JPG,AFNE01.JPG,AFNE01.JPG,AFNE01.JPG,AFNE01.JPG,,,,,,,,,,,,,2,6,26,1,,,,,,,,,,,AMNE05.jpg,AMNE04.jpg,AMSA10.jpg,AMSA19.jpg,AMSA10.jpg,MS,2,num_2,32,num_6,1.26660720145,,,2017_Oct_03_1126,60.0073330151,FEMA4ImagesEEG,001,201740,
AFNE01.JPG,AFNE01.JPG,AFNE01.JPG,AFNE01.JPG,AFNE01.JPG,AFNE01.JPG,,,,,,,,,,,,,2,7,27,0,,,,,,,,,,,AMSA01.jpg,AMNE08.jpg,AMSA13.jpg,AMNE04.jpg,AMNE04.jpg,MN,1,num_4,32,num_2,1.85002641295,,,2017_Oct_03_1126,60.0073330151,FEMA4ImagesEEG,001,201740,
AFNE01.JPG,AFNE01.JPG,AFNE01.JPG,AFNE01.JPG,AFNE01.JPG,AFNE01.JPG,,,,,,,,,,,,,2,8,28,3,,,,,,,,,,,AMNE09.jpg,AMNE15.jpg,AMSA19.jpg,AMSA17.jpg,AMSA19.jpg,MS,2,num_2,48,None,,,,2017_Oct_03_1126,60.0073330151,FEMA4ImagesEEG,001,201740,
AFNE01.JPG,AFNE01.JPG,AFNE01.JPG,AFNE01.JPG,AFNE01.JPG,AFNE01.JPG,,,,,,,,,,,,,2,9,29,8,,,,,,,,,,,AMNE14.jpg,AMSA15.jpg,AMSA03.jpg,AMNE13.jpg,AMNE14.jpg,MN,1,num_8,16,num_8,1.0834979532,,,2017_Oct_03_1126,60.0073330151,FEMA4ImagesEEG,001,201740,
AFNE01.JPG,AFNE01.JPG,AFNE01.JPG,AFNE01.JPG,AFNE01.JPG,AFNE01.JPG,,,,,,,,,,,,,3,0,30,5,,,,,,,,,,,AMSA17.jpg,AMNE02.jpg,AMSA14.jpg,AMNE19.jpg,AMNE19.jpg,MN,1,num_4,16,num_4,1.41646788798,,,2017_Oct_03_1126,60.0073330151,FEMA4ImagesEEG,001,201740,
AFNE01.JPG,AFNE01.JPG,AFNE01.JPG,AFNE01.JPG,AFNE01.JPG,AFNE01.JPG,,,,,,,,,,,,,3,1,31,2,,,,,,,,,,,AMSA12.jpg,AMNE13.jpg,AMSA04.jpg,AMNE05.jpg,AMSA04.jpg,MS,2,num_2,16,num_2,1.03348206052,,,2017_Oct_03_1126,60.0073330151,FEMA4ImagesEEG,001,201740,
AFNE01.JPG,AFNE01.JPG,AFNE01.JPG,AFNE01.JPG,AFNE01.JPG,AFNE01.JPG,,,,,,,,,,,,,3,2,32,7,,,,,,,,,,,AMNE11.jpg,AMSA14.jpg,AMSA18.jpg,AMNE03.jpg,AMSA14.jpg,MS,2,num_6,16,num_6,1.43336640164,,,2017_Oct_03_1126,60.0073330151,FEMA4ImagesEEG,001,201740,
AFNE01.JPG,AFNE01.JPG,AFNE01.JPG,AFNE01.JPG,AFNE01.JPG,AFNE01.JPG,,,,,,,,,,,,,3,3,33,1,,,,,,,,,,,AMNE03.jpg,AMSA12.jpg,AMSA05.jpg,AMNE19.jpg,AMNE03.jpg,MN,1,num_8,16,num_8,1.06677616734,,,2017_Oct_03_1126,60.0073330151,FEMA4ImagesEEG,001,201740,
AFNE01.JPG,AFNE01.JPG,AFNE01.JPG,AFNE01.JPG,AFNE01.JPG,AFNE01.JPG,,,,,,,,,,,,,3,4,34,9,,,,,,,,,,,AMSA02.jpg,AMNE02.jpg,AMSA12.jpg,AMNE16.jpg,AMSA12.jpg,MS,2,num_2,32,num_8,1.31672188208,,,2017_Oct_03_1126,60.0073330151,FEMA4ImagesEEG,001,201740,
AFNE01.JPG,AFNE01.JPG,AFNE01.JPG,AFNE01.JPG,AFNE01.JPG,AFNE01.JPG,,,,,,,,,,,,,3,5,35,6,,,,,,,,,,,AMNE20.jpg,AMSA15.jpg,AMNE16.jpg,AMSA05.jpg,AMSA05.jpg,MS,2,num_4,16,num_4,1.53342480841,,,2017_Oct_03_1126,60.0073330151,FEMA4ImagesEEG,001,201740,
AFNE01.JPG,AFNE01.JPG,AFNE01.JPG,AFNE01.JPG,AFNE01.JPG,AFNE01.JPG,,,,,,,,,,,,,3,6,36,3,,,,,,,,,,,AMSA02.jpg,AMSA13.jpg,AMNE10.jpg,AMNE17.jpg,AMNE10.jpg,MN,1,num_2,32,num_8,4.1498892324,,,2017_Oct_03_1126,60.0073330151,FEMA4ImagesEEG,001,201740,
AFNE01.JPG,AFNE01.JPG,AFNE01.JPG,AFNE01.JPG,AFNE01.JPG,AFNE01.JPG,,,,,,,,,,,,,3,7,37,4,,,,,,,,,,,AMNE02.jpg,AMSA15.jpg,AMNE07.jpg,AMSA13.jpg,AMNE02.jpg,MN,1,num_8,16,num_8,1.05011949173,,,2017_Oct_03_1126,60.0073330151,FEMA4ImagesEEG,001,201740,
AFNE01.JPG,AFNE01.JPG,AFNE01.JPG,AFNE01.JPG,AFNE01.JPG,AFNE01.JPG,,,,,,,,,,,,,3,8,38,8,,,,,,,,,,,AMNE08.jpg,AMNE16.jpg,AMSA15.jpg,AMSA16.jpg,AMSA16.jpg,MS,2,num_4,32,num_6,2.89997911982,,,2017_Oct_03_1126,60.0073330151,FEMA4ImagesEEG,001,201740,
AFNE01.JPG,AFNE01.JPG,AFNE01.JPG,AFNE01.JPG,AFNE01.JPG,AFNE01.JPG,,,,,,,,,,,,,3,9,39,0,,,,,,,,,,,AMNE15.jpg,AMNE11.jpg,AMSA18.jpg,AMSA05.jpg,AMNE11.jpg,MN,1,num_6,16,num_6,1.63342163309,,,2017_Oct_03_1126,60.0073330151,FEMA4ImagesEEG,001,201740,
AFNE01.JPG,AFNE01.JPG,AFNE01.JPG,AFNE01.JPG,AFNE01.JPG,AFNE01.JPG,,,,,,,,,,,,,4,0,40,8,,,,,,,,,,,AMNE08.jpg,AMSA07.jpg,AMNE20.jpg,AMSA13.jpg,AMSA07.jpg,MS,2,num_6,16,num_6,1.08344374812,,,2017_Oct_03_1126,60.0073330151,FEMA4ImagesEEG,001,201740,
AFNE01.JPG,AFNE01.JPG,AFNE01.JPG,AFNE01.JPG,AFNE01.JPG,AFNE01.JPG,,,,,,,,,,,,,4,1,41,6,,,,,,,,,,,AMSA19.jpg,AMNE14.jpg,AMSA17.jpg,AMNE17.jpg,AMSA17.jpg,MS,2,num_2,32,num_8,1.35005191179,,,2017_Oct_03_1126,60.0073330151,FEMA4ImagesEEG,001,201740,
AFNE01.JPG,AFNE01.JPG,AFNE01.JPG,AFNE01.JPG,AFNE01.JPG,AFNE01.JPG,,,,,,,,,,,,,4,2,42,7,,,,,,,,,,,AMSA08.jpg,AMNE03.jpg,AMSA09.jpg,AMNE10.jpg,AMSA09.jpg,MS,2,num_2,48,None,,,,2017_Oct_03_1126,60.0073330151,FEMA4ImagesEEG,001,201740,
AFNE01.JPG,AFNE01.JPG,AFNE01.JPG,AFNE01.JPG,AFNE01.JPG,AFNE01.JPG,,,,,,,,,,,,,4,3,43,3,,,,,,,,,,,AMSA16.jpg,AMNE16.jpg,AMNE05.jpg,AMSA13.jpg,AMNE16.jpg,MN,1,num_6,48,None,,,,2017_Oct_03_1126,60.0073330151,FEMA4ImagesEEG,001,201740,
AFNE01.JPG,AFNE01.JPG,AFNE01.JPG,AFNE01.JPG,AFNE01.JPG,AFNE01.JPG,,,,,,,,,,,,,4,4,44,1,,,,,,,,,,,AMNE02.jpg,AMNE04.jpg,AMSA18.jpg,AMSA01.jpg,AMNE04.jpg,MN,1,num_6,48,None,,,,2017_Oct_03_1126,60.0073330151,FEMA4ImagesEEG,001,201740,
AFNE01.JPG,AFNE01.JPG,AFNE01.JPG,AFNE01.JPG,AFNE01.JPG,AFNE01.JPG,,,,,,,,,,,,,4,5,45,2,,,,,,,,,,,AMNE11.jpg,AMNE15.jpg,AMSA02.jpg,AMSA16.jpg,AMSA16.jpg,MS,2,num_4,48,None,,,,2017_Oct_03_1126,60.0073330151,FEMA4ImagesEEG,001,201740,
AFNE01.JPG,AFNE01.JPG,AFNE01.JPG,AFNE01.JPG,AFNE01.JPG,AFNE01.JPG,,,,,,,,,,,,,4,6,46,5,,,,,,,,,,,AMNE08.jpg,AMSA17.jpg,AMNE06.jpg,AMSA19.jpg,AMSA19.jpg,MS,2,num_4,48,None,,,,2017_Oct_03_1126,60.0073330151,FEMA4ImagesEEG,001,201740,
AFNE01.JPG,AFNE01.JPG,AFNE01.JPG,AFNE01.JPG,AFNE01.JPG,AFNE01.JPG,,,,,,,,,,,,,4,7,47,9,,,,,,,,,,,AMSA09.jpg,AMNE15.jpg,AMNE07.jpg,AMSA05.jpg,AMNE15.jpg,MN,1,num_6,48,None,,,,2017_Oct_03_1126,60.0073330151,FEMA4ImagesEEG,001,201740,
AFNE01.JPG,AFNE01.JPG,AFNE01.JPG,AFNE01.JPG,AFNE01.JPG,AFNE01.JPG,,,,,,,,,,,,,4,8,48,4,,,,,,,,,,,AMNE17.jpg,AMNE04.jpg,AMSA05.jpg,AMSA08.jpg,AMNE17.jpg,MN,1,num_8,32,num_6,1.20012675649,,,2017_Oct_03_1126,60.0073330151,FEMA4ImagesEEG,001,201740,
AFNE01.JPG,AFNE01.JPG,AFNE01.JPG,AFNE01.JPG,AFNE01.JPG,AFNE01.JPG,,,,,,,,,,,,,4,9,49,0,,,,,,,,,,,AMNE15.jpg,AMNE09.jpg,AMSA13.jpg,AMSA05.jpg,AMNE15.jpg,MN,1,num_8,16,num_8,1.06674826295,,,2017_Oct_03_1126,60.0073330151,FEMA4ImagesEEG,001,201740,
AFNE01.JPG,AFNE01.JPG,AFNE01.JPG,AFNE01.JPG,AFNE01.JPG,AFNE01.JPG,,,,,,,,,,,,,5,0,50,3,,,,,,,,,,,AMNE07.jpg,AMSA07.jpg,AMNE19.jpg,AMSA11.jpg,AMSA11.jpg,MS,2,num_4,32,num_8,1.06679797767,,,2017_Oct_03_1126,60.0073330151,FEMA4ImagesEEG,001,201740,
AFNE01.JPG,AFNE01.JPG,AFNE01.JPG,AFNE01.JPG,AFNE01.JPG,AFNE01.JPG,,,,,,,,,,,,,5,1,51,2,,,,,,,,,,,AMSA01.jpg,AMNE12.jpg,AMNE13.jpg,AMSA02.jpg,AMSA01.jpg,MS,2,num_8,16,num_8,0.966743099036,,,2017_Oct_03_1126,60.0073330151,FEMA4ImagesEEG,001,201740,
AFNE01.JPG,AFNE01.JPG,AFNE01.JPG,AFNE01.JPG,AFNE01.JPG,AFNE01.JPG,,,,,,,,,,,,,5,2,52,8,,,,,,,,,,,AMNE07.jpg,AMSA12.jpg,AMNE04.jpg,AMSA20.jpg,AMNE04.jpg,MN,1,num_2,16,num_2,1.20011071949,,,2017_Oct_03_1126,60.0073330151,FEMA4ImagesEEG,001,201740,
AFNE01.JPG,AFNE01.JPG,AFNE01.JPG,AFNE01.JPG,AFNE01.JPG,AFNE01.JPG,,,,,,,,,,,,,5,3,53,0,,,,,,,,,,,AMNE05.jpg,AMSA01.jpg,AMSA02.jpg,AMNE09.jpg,AMNE05.jpg,MN,1,num_8,16,num_8,1.21675424476,,,2017_Oct_03_1126,60.0073330151,FEMA4ImagesEEG,001,201740,
AFNE01.JPG,AFNE01.JPG,AFNE01.JPG,AFNE01.JPG,AFNE01.JPG,AFNE01.JPG,,,,,,,,,,,,,5,4,54,9,,,,,,,,,,,AMSA14.jpg,AMNE17.jpg,AMSA13.jpg,AMNE19.jpg,AMNE19.jpg,MN,1,num_4,16,num_4,1.53343571358,,,2017_Oct_03_1126,60.0073330151,FEMA4ImagesEEG,001,201740,
AFNE01.JPG,AFNE01.JPG,AFNE01.JPG,AFNE01.JPG,AFNE01.JPG,AFNE01.JPG,,,,,,,,,,,,,5,5,55,4,,,,,,,,,,,AMNE05.jpg,AMSA12.jpg,AMNE07.jpg,AMSA06.jpg,AMSA06.jpg,MS,2,num_4,16,num_4,1.41674180004,,,2017_Oct_03_1126,60.0073330151,FEMA4ImagesEEG,001,201740,
AFNE01.JPG,AFNE01.JPG,AFNE01.JPG,AFNE01.JPG,AFNE01.JPG,AFNE01.JPG,,,,,,,,,,,,,5,6,56,5,,,,,,,,,,,AMNE03.jpg,AMSA11.jpg,AMNE13.jpg,AMSA14.jpg,AMSA11.jpg,MS,2,num_6,32,num_8,2.40001392012,,,2017_Oct_03_1126,60.0073330151,FEMA4ImagesEEG,001,201740,
AFNE01.JPG,AFNE01.JPG,AFNE01.JPG,AFNE01.JPG,AFNE01.JPG,AFNE01.JPG,,,,,,,,,,,,,5,7,57,6,,,,,,,,,,,AMNE09.jpg,AMNE10.jpg,AMSA16.jpg,AMSA10.jpg,AMSA10.jpg,MS,2,num_4,48,None,,,,2017_Oct_03_1126,60.0073330151,FEMA4ImagesEEG,001,201740,
AFNE01.JPG,AFNE01.JPG,AFNE01.JPG,AFNE01.JPG,AFNE01.JPG,AFNE01.JPG,,,,,,,,,,,,,5,8,58,1,,,,,,,,,,,AMNE11.jpg,AMSA07.jpg,AMSA18.jpg,AMNE03.jpg,AMSA18.jpg,MS,2,num_2,32,num_8,1.16677106757,,,2017_Oct_03_1126,60.0073330151,FEMA4ImagesEEG,001,201740,
AFNE01.JPG,AFNE01.JPG,AFNE01.JPG,AFNE01.JPG,AFNE01.JPG,AFNE01.JPG,,,,,,,,,,,,,5,9,59,7,,,,,,,,,,,AMSA07.jpg,AMNE18.jpg,AMNE11.jpg,AMSA10.jpg,AMNE18.jpg,MN,1,num_6,16,num_6,4.76631035647,,,2017_Oct_03_1126,60.0073330151,FEMA4ImagesEEG,001,201740,
,,,,,,,,,,,,,,,,,,,,,,,,,,,,,,,,,,,,,,,,,,,space,43.4633783749,2017_Oct_03_1126,60.0073330151,FEMA4ImagesEEG,001,201740,
AFNE01.JPG,AFNE01.JPG,AFNE01.JPG,AFNE01.JPG,AFNE01.JPG,AFNE01.JPG,,,,,,,,,,,,,,,,,0,0,0,2,,,,,,,AFSA09.jpg,AFNE07.jpg,AFSA01.jpg,AFNE03.jpg,AFNE07.jpg,FN,3,num_6,32,num_8,2.01666437337,,,2017_Oct_03_1126,60.0073330151,FEMA4ImagesEEG,001,201740,
AFNE01.JPG,AFNE01.JPG,AFNE01.JPG,AFNE01.JPG,AFNE01.JPG,AFNE01.JPG,,,,,,,,,,,,,,,,,0,1,1,6,,,,,,,AFSA10.jpg,AFSA03.jpg,AFNE03.jpg,AFNE12.jpg,AFNE03.jpg,FN,3,num_2,32,num_6,1.43340713563,,,2017_Oct_03_1126,60.0073330151,FEMA4ImagesEEG,001,201740,
AFNE01.JPG,AFNE01.JPG,AFNE01.JPG,AFNE01.JPG,AFNE01.JPG,AFNE01.JPG,,,,,,,,,,,,,,,,,0,2,2,3,,,,,,,AFNE17.jpg,AFNE02.jpg,AFSA11.jpg,AFSA19.jpg,AFNE17.jpg,FN,3,num_8,16,num_8,0.700130445005,,,2017_Oct_03_1126,60.0073330151,FEMA4ImagesEEG,001,201740,
AFNE01.JPG,AFNE01.JPG,AFNE01.JPG,AFNE01.JPG,AFNE01.JPG,AFNE01.JPG,,,,,,,,,,,,,,,,,0,3,3,7,,,,,,,AFNE02.jpg,AFNE10.jpg,AFSA11.jpg,AFSA19.jpg,AFSA11.jpg,FS,4,num_2,16,num_2,0.850124880164,,,2017_Oct_03_1126,60.0073330151,FEMA4ImagesEEG,001,201740,
AFNE01.JPG,AFNE01.JPG,AFNE01.JPG,AFNE01.JPG,AFNE01.JPG,AFNE01.JPG,,,,,,,,,,,,,,,,,0,4,4,8,,,,,,,AFSA18.jpg,AFNE20.jpg,AFNE10.jpg,AFSA04.jpg,AFSA04.jpg,FS,4,num_4,16,num_4,0.433500471006,,,2017_Oct_03_1126,60.0073330151,FEMA4ImagesEEG,001,201740,
AFNE01.JPG,AFNE01.JPG,AFNE01.JPG,AFNE01.JPG,AFNE01.JPG,AFNE01.JPG,,,,,,,,,,,,,,,,,0,5,5,1,,,,,,,AFNE09.jpg,AFNE02.jpg,AFSA11.jpg,AFSA07.jpg,AFNE09.jpg,FN,3,num_8,16,num_8,0.766779920001,,,2017_Oct_03_1126,60.0073330151,FEMA4ImagesEEG,001,201740,
AFNE01.JPG,AFNE01.JPG,AFNE01.JPG,AFNE01.JPG,AFNE01.JPG,AFNE01.JPG,,,,,,,,,,,,,,,,,0,6,6,5,,,,,,,AFSA09.jpg,AFSA06.jpg,AFNE13.jpg,AFNE19.jpg,AFNE13.jpg,FN,3,num_2,32,num_8,0.883191582239,,,2017_Oct_03_1126,60.0073330151,FEMA4ImagesEEG,001,201740,
AFNE01.JPG,AFNE01.JPG,AFNE01.JPG,AFNE01.JPG,AFNE01.JPG,AFNE01.JPG,,,,,,,,,,,,,,,,,0,7,7,4,,,,,,,AFSA04.jpg,AFNE04.jpg,AFSA01.jpg,AFNE10.jpg,AFSA04.jpg,FS,4,num_8,32,num_6,0.45016131624,,,2017_Oct_03_1126,60.0073330151,FEMA4ImagesEEG,001,201740,
AFNE01.JPG,AFNE01.JPG,AFNE01.JPG,AFNE01.JPG,AFNE01.JPG,AFNE01.JPG,,,,,,,,,,,,,,,,,0,8,8,9,,,,,,,AFNE06.jpg,AFSA18.jpg,AFSA06.jpg,AFNE16.jpg,AFSA06.jpg,FS,4,num_2,32,num_4,0.550132481704,,,2017_Oct_03_1126,60.0073330151,FEMA4ImagesEEG,001,201740,
AFNE01.JPG,AFNE01.JPG,AFNE01.JPG,AFNE01.JPG,AFNE01.JPG,AFNE01.JPG,,,,,,,,,,,,,,,,,0,9,9,0,,,,,,,AFNE12.jpg,AFSA02.jpg,AFNE09.jpg,AFSA14.jpg,AFSA14.jpg,FS,4,num_4,32,num_2,0.666839545589,,,2017_Oct_03_1126,60.0073330151,FEMA4ImagesEEG,001,201740,
AFNE01.JPG,AFNE01.JPG,AFNE01.JPG,AFNE01.JPG,AFNE01.JPG,AFNE01.JPG,,,,,,,,,,,,,,,,,1,0,10,9,,,,,,,AFNE05.jpg,AFNE13.jpg,AFSA01.jpg,AFSA04.jpg,AFSA04.jpg,FS,4,num_4,16,num_4,0.633482573709,,,2017_Oct_03_1126,60.0073330151,FEMA4ImagesEEG,001,201740,
AFNE01.JPG,AFNE01.JPG,AFNE01.JPG,AFNE01.JPG,AFNE01.JPG,AFNE01.JPG,,,,,,,,,,,,,,,,,1,1,11,1,,,,,,,AFNE16.jpg,AFNE07.jpg,AFSA16.jpg,AFSA15.jpg,AFSA15.jpg,FS,4,num_4,32,num_8,0.366843939728,,,2017_Oct_03_1126,60.0073330151,FEMA4ImagesEEG,001,201740,
AFNE01.JPG,AFNE01.JPG,AFNE01.JPG,AFNE01.JPG,AFNE01.JPG,AFNE01.JPG,,,,,,,,,,,,,,,,,1,2,12,2,,,,,,,AFSA16.jpg,AFSA20.jpg,AFNE11.jpg,AFNE02.jpg,AFSA16.jpg,FS,4,num_8,32,num_4,0.883450419512,,,2017_Oct_03_1126,60.0073330151,FEMA4ImagesEEG,001,201740,
AFNE01.JPG,AFNE01.JPG,AFNE01.JPG,AFNE01.JPG,AFNE01.JPG,AFNE01.JPG,,,,,,,,,,,,,,,,,1,3,13,6,,,,,,,AFSA06.jpg,AFNE07.jpg,AFNE11.jpg,AFSA15.jpg,AFSA15.jpg,FS,4,num_4,16,num_4,1.06676686588,,,2017_Oct_03_1126,60.0073330151,FEMA4ImagesEEG,001,201740,
AFNE01.JPG,AFNE01.JPG,AFNE01.JPG,AFNE01.JPG,AFNE01.JPG,AFNE01.JPG,,,,,,,,,,,,,,,,,1,4,14,3,,,,,,,AFSA10.jpg,AFNE18.jpg,AFNE02.jpg,AFSA05.jpg,AFNE18.jpg,FN,3,num_6,32,num_8,0.650162021869,,,2017_Oct_03_1126,60.0073330151,FEMA4ImagesEEG,001,201740,
AFNE01.JPG,AFNE01.JPG,AFNE01.JPG,AFNE01.JPG,AFNE01.JPG,AFNE01.JPG,,,,,,,,,,,,,,,,,1,5,15,0,,,,,,,AFNE03.jpg,AFSA10.jpg,AFNE18.jpg,AFSA13.jpg,AFNE18.jpg,FN,3,num_2,32,num_8,0.516787056468,,,2017_Oct_03_1126,60.0073330151,FEMA4ImagesEEG,001,201740,
AFNE01.JPG,AFNE01.JPG,AFNE01.JPG,AFNE01.JPG,AFNE01.JPG,AFNE01.JPG,,,,,,,,,,,,,,,,,1,6,16,4,,,,,,,AFSA03.jpg,AFNE10.jpg,AFSA12.jpg,AFNE12.jpg,AFSA03.jpg,FS,4,num_8,16,num_8,0.550159744615,,,2017_Oct_03_1126,60.0073330151,FEMA4ImagesEEG,001,201740,
AFNE01.JPG,AFNE01.JPG,AFNE01.JPG,AFNE01.JPG,AFNE01.JPG,AFNE01.JPG,,,,,,,,,,,,,,,,,1,7,17,7,,,,,,,AFSA05.jpg,AFNE14.jpg,AFSA07.jpg,AFNE18.jpg,AFSA07.jpg,FS,4,num_2,32,num_4,0.35022511145,,,2017_Oct_03_1126,60.0073330151,FEMA4ImagesEEG,001,201740,
AFNE01.JPG,AFNE01.JPG,AFNE01.JPG,AFNE01.JPG,AFNE01.JPG,AFNE01.JPG,,,,,,,,,,,,,,,,,1,8,18,5,,,,,,,AFNE15.jpg,AFSA03.jpg,AFNE07.jpg,AFSA02.jpg,AFNE15.jpg,FN,3,num_8,32,num_4,0.783209190872,,,2017_Oct_03_1126,60.0073330151,FEMA4ImagesEEG,001,201740,
AFNE01.JPG,AFNE01.JPG,AFNE01.JPG,AFNE01.JPG,AFNE01.JPG,AFNE01.JPG,,,,,,,,,,,,,,,,,1,9,19,8,,,,,,,AFNE04.jpg,AFNE11.jpg,AFSA16.jpg,AFSA01.jpg,AFSA16.jpg,FS,4,num_2,32,num_6,0.55014851871,,,2017_Oct_03_1126,60.0073330151,FEMA4ImagesEEG,001,201740,
AFNE01.JPG,AFNE01.JPG,AFNE01.JPG,AFNE01.JPG,AFNE01.JPG,AFNE01.JPG,,,,,,,,,,,,,,,,,2,0,20,1,,,,,,,AFNE02.jpg,AFNE07.jpg,AFSA01.jpg,AFSA16.jpg,AFSA16.jpg,FS,4,num_4,32,num_8,0.366824374581,,,2017_Oct_03_1126,60.0073330151,FEMA4ImagesEEG,001,201740,
AFNE01.JPG,AFNE01.JPG,AFNE01.JPG,AFNE01.JPG,AFNE01.JPG,AFNE01.JPG,,,,,,,,,,,,,,,,,2,1,21,6,,,,,,,AFSA19.jpg,AFNE18.jpg,AFNE15.jpg,AFSA11.jpg,AFSA11.jpg,FS,4,num_4,32,num_2,1.0670436646,,,2017_Oct_03_1126,60.0073330151,FEMA4ImagesEEG,001,201740,
AFNE01.JPG,AFNE01.JPG,AFNE01.JPG,AFNE01.JPG,AFNE01.JPG,AFNE01.JPG,,,,,,,,,,,,,,,,,2,2,22,8,,,,,,,AFSA11.jpg,AFNE19.jpg,AFNE20.jpg,AFSA09.jpg,AFSA09.jpg,FS,4,num_4,32,num_2,0.916835295781,,,2017_Oct_03_1126,60.0073330151,FEMA4ImagesEEG,001,201740,
AFNE01.JPG,AFNE01.JPG,AFNE01.JPG,AFNE01.JPG,AFNE01.JPG,AFNE01.JPG,,,,,,,,,,,,,,,,,2,3,23,3,,,,,,,AFNE08.jpg,AFSA09.jpg,AFNE05.jpg,AFSA13.jpg,AFSA09.jpg,FS,4,num_6,16,num_6,0.933326469495,,,2017_Oct_03_1126,60.0073330151,FEMA4ImagesEEG,001,201740,
AFNE01.JPG,AFNE01.JPG,AFNE01.JPG,AFNE01.JPG,AFNE01.JPG,AFNE01.JPG,,,,,,,,,,,,,,,,,2,4,24,0,,,,,,,AFSA18.jpg,AFNE07.jpg,AFSA20.jpg,AFNE05.jpg,AFNE05.jpg,FN,3,num_4,16,num_4,0.600179486168,,,2017_Oct_03_1126,60.0073330151,FEMA4ImagesEEG,001,201740,
AFNE01.JPG,AFNE01.JPG,AFNE01.JPG,AFNE01.JPG,AFNE01.JPG,AFNE01.JPG,,,,,,,,,,,,,,,,,2,5,25,9,,,,,,,AFNE05.jpg,AFSA04.jpg,AFNE04.jpg,AFSA13.jpg,AFNE05.jpg,FN,3,num_8,16,num_8,0.583433644804,,,2017_Oct_03_1126,60.0073330151,FEMA4ImagesEEG,001,201740,
AFNE01.JPG,AFNE01.JPG,AFNE01.JPG,AFNE01.JPG,AFNE01.JPG,AFNE01.JPG,,,,,,,,,,,,,,,,,2,6,26,2,,,,,,,AFNE15.jpg,AFSA13.jpg,AFNE18.jpg,AFSA18.jpg,AFSA13.jpg,FS,4,num_6,16,num_6,1.33344206423,,,2017_Oct_03_1126,60.0073330151,FEMA4ImagesEEG,001,201740,
AFNE01.JPG,AFNE01.JPG,AFNE01.JPG,AFNE01.JPG,AFNE01.JPG,AFNE01.JPG,,,,,,,,,,,,,,,,,2,7,27,7,,,,,,,AFNE12.jpg,AFSA19.jpg,AFNE10.jpg,AFSA16.jpg,AFSA16.jpg,FS,4,num_4,16,num_4,0.800141702983,,,2017_Oct_03_1126,60.0073330151,FEMA4ImagesEEG,001,201740,
AFNE01.JPG,AFNE01.JPG,AFNE01.JPG,AFNE01.JPG,AFNE01.JPG,AFNE01.JPG,,,,,,,,,,,,,,,,,2,8,28,4,,,,,,,AFSA19.jpg,AFSA09.jpg,AFNE07.jpg,AFNE13.jpg,AFNE07.jpg,FN,3,num_2,32,num_4,1.06676718662,,,2017_Oct_03_1126,60.0073330151,FEMA4ImagesEEG,001,201740,
AFNE01.JPG,AFNE01.JPG,AFNE01.JPG,AFNE01.JPG,AFNE01.JPG,AFNE01.JPG,,,,,,,,,,,,,,,,,2,9,29,5,,,,,,,AFNE06.jpg,AFSA18.jpg,AFNE01.jpg,AFSA20.jpg,AFSA18.jpg,FS,4,num_6,16,num_6,1.26662131401,,,2017_Oct_03_1126,60.0073330151,FEMA4ImagesEEG,001,201740,
AFNE01.JPG,AFNE01.JPG,AFNE01.JPG,AFNE01.JPG,AFNE01.JPG,AFNE01.JPG,,,,,,,,,,,,,,,,,3,0,30,9,,,,,,,AFNE09.jpg,AFSA15.jpg,AFSA07.jpg,AFNE03.jpg,AFSA15.jpg,FS,4,num_6,32,num_8,1.7833997105,,,2017_Oct_03_1126,60.0073330151,FEMA4ImagesEEG,001,201740,
AFNE01.JPG,AFNE01.JPG,AFNE01.JPG,AFNE01.JPG,AFNE01.JPG,AFNE01.JPG,,,,,,,,,,,,,,,,,3,1,31,0,,,,,,,AFSA19.jpg,AFSA12.jpg,AFNE17.jpg,AFNE13.jpg,AFNE13.jpg,FN,3,num_4,32,num_8,0.616840010662,,,2017_Oct_03_1126,60.0073330151,FEMA4ImagesEEG,001,201740,
AFNE01.JPG,AFNE01.JPG,AFNE01.JPG,AFNE01.JPG,AFNE01.JPG,AFNE01.JPG,,,,,,,,,,,,,,,,,3,2,32,5,,,,,,,AFNE06.jpg,AFNE05.jpg,AFSA08.jpg,AFSA16.jpg,AFSA08.jpg,FS,4,num_2,32,num_8,0.566867417904,,,2017_Oct_03_1126,60.0073330151,FEMA4ImagesEEG,001,201740,
AFNE01.JPG,AFNE01.JPG,AFNE01.JPG,AFNE01.JPG,AFNE01.JPG,AFNE01.JPG,,,,,,,,,,,,,,,,,3,3,33,3,,,,,,,AFSA18.jpg,AFNE15.jpg,AFSA04.jpg,AFNE17.jpg,AFNE15.jpg,FN,3,num_6,32,num_4,1.06677937474,,,2017_Oct_03_1126,60.0073330151,FEMA4ImagesEEG,001,201740,
AFNE01.JPG,AFNE01.JPG,AFNE01.JPG,AFNE01.JPG,AFNE01.JPG,AFNE01.JPG,,,,,,,,,,,,,,,,,3,4,34,7,,,,,,,AFSA17.jpg,AFNE01.jpg,AFSA07.jpg,AFNE17.jpg,AFNE17.jpg,FN,3,num_4,32,num_2,0.450157146619,,,2017_Oct_03_1126,60.0073330151,FEMA4ImagesEEG,001,201740,
AFNE01.JPG,AFNE01.JPG,AFNE01.JPG,AFNE01.JPG,AFNE01.JPG,AFNE01.JPG,,,,,,,,,,,,,,,,,3,5,35,1,,,,,,,AFNE20.jpg,AFSA20.jpg,AFNE14.jpg,AFSA16.jpg,AFNE14.jpg,FN,3,num_2,32,num_6,0.266803494399,,,2017_Oct_03_1126,60.0073330151,FEMA4ImagesEEG,001,201740,
AFNE01.JPG,AFNE01.JPG,AFNE01.JPG,AFNE01.JPG,AFNE01.JPG,AFNE01.JPG,,,,,,,,,,,,,,,,,3,6,36,2,,,,,,,AFNE07.jpg,AFNE14.jpg,AFSA19.jpg,AFSA01.jpg,AFNE14.jpg,FN,3,num_6,32,num_8,3.43327466997,,,2017_Oct_03_1126,60.0073330151,FEMA4ImagesEEG,001,201740,
AFNE01.JPG,AFNE01.JPG,AFNE01.JPG,AFNE01.JPG,AFNE01.JPG,AFNE01.JPG,,,,,,,,,,,,,,,,,3,7,37,8,,,,,,,AFSA17.jpg,AFNE02.jpg,AFNE04.jpg,AFSA16.jpg,AFSA16.jpg,FS,4,num_4,32,num_2,0.633343051759,,,2017_Oct_03_1126,60.0073330151,FEMA4ImagesEEG,001,201740,
AFNE01.JPG,AFNE01.JPG,AFNE01.JPG,AFNE01.JPG,AFNE01.JPG,AFNE01.JPG,,,,,,,,,,,,,,,,,3,8,38,4,,,,,,,AFNE01.jpg,AFSA10.jpg,AFSA08.jpg,AFNE09.jpg,AFNE01.jpg,FN,3,num_8,48,None,,,,2017_Oct_03_1126,60.0073330151,FEMA4ImagesEEG,001,201740,
AFNE01.JPG,AFNE01.JPG,AFNE01.JPG,AFNE01.JPG,AFNE01.JPG,AFNE01.JPG,,,,,,,,,,,,,,,,,3,9,39,6,,,,,,,AFNE02.jpg,AFNE07.jpg,AFSA02.jpg,AFSA14.jpg,AFSA14.jpg,FS,4,num_4,48,None,,,,2017_Oct_03_1126,60.0073330151,FEMA4ImagesEEG,001,201740,
AFNE01.JPG,AFNE01.JPG,AFNE01.JPG,AFNE01.JPG,AFNE01.JPG,AFNE01.JPG,,,,,,,,,,,,,,,,,4,0,40,8,,,,,,,AFSA19.jpg,AFNE15.jpg,AFNE17.jpg,AFSA01.jpg,AFSA19.jpg,FS,4,num_8,48,None,,,,2017_Oct_03_1126,60.0073330151,FEMA4ImagesEEG,001,201740,
AFNE01.JPG,AFNE01.JPG,AFNE01.JPG,AFNE01.JPG,AFNE01.JPG,AFNE01.JPG,,,,,,,,,,,,,,,,,4,1,41,6,,,,,,,AFNE02.jpg,AFSA02.jpg,AFSA17.jpg,AFNE04.jpg,AFSA17.jpg,FS,4,num_2,32,num_8,0.666836338187,,,2017_Oct_03_1126,60.0073330151,FEMA4ImagesEEG,001,201740,
AFNE01.JPG,AFNE01.JPG,AFNE01.JPG,AFNE01.JPG,AFNE01.JPG,AFNE01.JPG,,,,,,,,,,,,,,,,,4,2,42,3,,,,,,,AFSA06.jpg,AFNE11.jpg,AFSA05.jpg,AFNE19.jpg,AFSA06.jpg,FS,4,num_8,32,num_4,0.633469423364,,,2017_Oct_03_1126,60.0073330151,FEMA4ImagesEEG,001,201740,
AFNE01.JPG,AFNE01.JPG,AFNE01.JPG,AFNE01.JPG,AFNE01.JPG,AFNE01.JPG,,,,,,,,,,,,,,,,,4,3,43,5,,,,,,,AFSA07.jpg,AFNE12.jpg,AFNE05.jpg,AFSA19.jpg,AFSA19.jpg,FS,4,num_4,16,num_4,1.08343444665,,,2017_Oct_03_1126,60.0073330151,FEMA4ImagesEEG,001,201740,
AFNE01.JPG,AFNE01.JPG,AFNE01.JPG,AFNE01.JPG,AFNE01.JPG,AFNE01.JPG,,,,,,,,,,,,,,,,,4,4,44,2,,,,,,,AFNE07.jpg,AFSA01.jpg,AFSA17.jpg,AFNE03.jpg,AFNE03.jpg,FN,3,num_4,32,num_8,3.28333091175,,,2017_Oct_03_1126,60.0073330151,FEMA4ImagesEEG,001,201740,
AFNE01.JPG,AFNE01.JPG,AFNE01.JPG,AFNE01.JPG,AFNE01.JPG,AFNE01.JPG,,,,,,,,,,,,,,,,,4,5,45,7,,,,,,,AFSA10.jpg,AFNE15.jpg,AFNE10.jpg,AFSA04.jpg,AFSA04.jpg,FS,4,num_4,32,num_2,0.733498642789,,,2017_Oct_03_1126,60.0073330151,FEMA4ImagesEEG,001,201740,
AFNE01.JPG,AFNE01.JPG,AFNE01.JPG,AFNE01.JPG,AFNE01.JPG,AFNE01.JPG,,,,,,,,,,,,,,,,,4,6,46,1,,,,,,,AFNE19.jpg,AFSA05.jpg,AFNE04.jpg,AFSA14.jpg,AFNE04.jpg,FN,3,num_2,48,None,,,,2017_Oct_03_1126,60.0073330151,FEMA4ImagesEEG,001,201740,
AFNE01.JPG,AFNE01.JPG,AFNE01.JPG,AFNE01.JPG,AFNE01.JPG,AFNE01.JPG,,,,,,,,,,,,,,,,,4,7,47,0,,,,,,,AFNE11.jpg,AFSA03.jpg,AFNE17.jpg,AFSA19.jpg,AFSA03.jpg,FS,4,num_6,16,num_6,1.88339396925,,,2017_Oct_03_1126,60.0073330151,FEMA4ImagesEEG,001,201740,
AFNE01.JPG,AFNE01.JPG,AFNE01.JPG,AFNE01.JPG,AFNE01.JPG,AFNE01.JPG,,,,,,,,,,,,,,,,,4,8,48,9,,,,,,,AFSA03.jpg,AFNE10.jpg,AFSA10.jpg,AFNE13.jpg,AFNE13.jpg,FN,3,num_4,16,num_4,2.23327492656,,,2017_Oct_03_1126,60.0073330151,FEMA4ImagesEEG,001,201740,
AFNE01.JPG,AFNE01.JPG,AFNE01.JPG,AFNE01.JPG,AFNE01.JPG,AFNE01.JPG,,,,,,,,,,,,,,,,,4,9,49,4,,,,,,,AFSA01.jpg,AFNE20.jpg,AFSA07.jpg,AFNE10.jpg,AFNE20.jpg,FN,3,num_6,32,num_8,1.45009492304,,,2017_Oct_03_1126,60.0073330151,FEMA4ImagesEEG,001,201740,
AFNE01.JPG,AFNE01.JPG,AFNE01.JPG,AFNE01.JPG,AFNE01.JPG,AFNE01.JPG,,,,,,,,,,,,,,,,,5,0,50,8,,,,,,,AFNE18.jpg,AFSA10.jpg,AFNE05.jpg,AFSA07.jpg,AFSA07.jpg,FS,4,num_4,16,num_4,1.09998912691,,,2017_Oct_03_1126,60.0073330151,FEMA4ImagesEEG,001,201740,
AFNE01.JPG,AFNE01.JPG,AFNE01.JPG,AFNE01.JPG,AFNE01.JPG,AFNE01.JPG,,,,,,,,,,,,,,,,,5,1,51,3,,,,,,,AFNE07.jpg,AFSA14.jpg,AFSA11.jpg,AFNE16.jpg,AFNE07.jpg,FN,3,num_8,48,None,,,,2017_Oct_03_1126,60.0073330151,FEMA4ImagesEEG,001,201740,
AFNE01.JPG,AFNE01.JPG,AFNE01.JPG,AFNE01.JPG,AFNE01.JPG,AFNE01.JPG,,,,,,,,,,,,,,,,,5,2,52,0,,,,,,,AFSA04.jpg,AFNE18.jpg,AFNE20.jpg,AFSA03.jpg,AFSA03.jpg,FS,4,num_4,48,None,,,,2017_Oct_03_1126,60.0073330151,FEMA4ImagesEEG,001,201740,
AFNE01.JPG,AFNE01.JPG,AFNE01.JPG,AFNE01.JPG,AFNE01.JPG,AFNE01.JPG,,,,,,,,,,,,,,,,,5,3,53,1,,,,,,,AFSA19.jpg,AFNE09.jpg,AFNE12.jpg,AFSA14.jpg,AFSA19.jpg,FS,4,num_8,16,num_8,0.933516347643,,,2017_Oct_03_1126,60.0073330151,FEMA4ImagesEEG,001,201740,
AFNE01.JPG,AFNE01.JPG,AFNE01.JPG,AFNE01.JPG,AFNE01.JPG,AFNE01.JPG,,,,,,,,,,,,,,,,,5,4,54,2,,,,,,,AFSA03.jpg,AFNE13.jpg,AFSA11.jpg,AFNE11.jpg,AFSA03.jpg,FS,4,num_8,32,num_6,1.4334148334,,,2017_Oct_03_1126,60.0073330151,FEMA4ImagesEEG,001,201740,
AFNE01.JPG,AFNE01.JPG,AFNE01.JPG,AFNE01.JPG,AFNE01.JPG,AFNE01.JPG,,,,,,,,,,,,,,,,,5,5,55,7,,,,,,,AFSA17.jpg,AFNE10.jpg,AFNE09.jpg,AFSA02.jpg,AFSA02.jpg,FS,4,num_4,16,num_4,1.18348708011,,,2017_Oct_03_1126,60.0073330151,FEMA4ImagesEEG,001,201740,
AFNE01.JPG,AFNE01.JPG,AFNE01.JPG,AFNE01.JPG,AFNE01.JPG,AFNE01.JPG,,,,,,,,,,,,,,,,,5,6,56,9,,,,,,,AFNE14.jpg,AFNE20.jpg,AFSA08.jpg,AFSA15.jpg,AFNE20.jpg,FN,3,num_6,32,num_2,1.06646953979,,,2017_Oct_03_1126,60.0073330151,FEMA4ImagesEEG,001,201740,
AFNE01.JPG,AFNE01.JPG,AFNE01.JPG,AFNE01.JPG,AFNE01.JPG,AFNE01.JPG,,,,,,,,,,,,,,,,,5,7,57,4,,,,,,,AFNE01.jpg,AFSA14.jpg,AFSA02.jpg,AFNE12.jpg,AFNE12.jpg,FN,3,num_4,32,num_2,0.866776423934,,,2017_Oct_03_1126,60.0073330151,FEMA4ImagesEEG,001,201740,
AFNE01.JPG,AFNE01.JPG,AFNE01.JPG,AFNE01.JPG,AFNE01.JPG,AFNE01.JPG,,,,,,,,,,,,,,,,,5,8,58,5,,,,,,,AFNE17.jpg,AFSA04.jpg,AFNE10.jpg,AFSA16.jpg,AFSA16.jpg,FS,4,num_4,48,None,,,,2017_Oct_03_1126,60.0073330151,FEMA4ImagesEEG,001,201740,
AFNE01.JPG,AFNE01.JPG,AFNE01.JPG,AFNE01.JPG,AFNE01.JPG,AFNE01.JPG,,,,,,,,,,,,,,,,,5,9,59,6,,,,,,,AFNE12.jpg,AFSA19.jpg,AFNE14.jpg,AFSA17.jpg,AFSA19.jpg,FS,4,num_6,48,None,,,,2017_Oct_03_1126,60.0073330151,FEMA4ImagesEEG,001,201740,
,,,,,,,,,,,,,,,,,,,,,,,,,,,,,,,,,,,,,,,,,,,space,35.8138713043,2017_Oct_03_1126,60.0073330151,FEMA4ImagesEEG,001,201740,
AFNE01.JPG,AFNE01.JPG,AFNE01.JPG,AFNE01.JPG,AFNE01.JPG,AFNE01.JPG,,,,,,,,,,,,,,,,,,,,,0,0,0,8,,,AMNE20.jpg,AMSA12.jpg,AMNE16.jpg,AMSA06.jpg,AMNE20.jpg,MN,1,num_8,16,num_8,1.33344398867,,,2017_Oct_03_1126,60.0073330151,FEMA4ImagesEEG,001,201740,
AFNE01.JPG,AFNE01.JPG,AFNE01.JPG,AFNE01.JPG,AFNE01.JPG,AFNE01.JPG,,,,,,,,,,,,,,,,,,,,,0,1,1,5,,,AMNE15.jpg,AMSA20.jpg,AMNE17.jpg,AMSA01.jpg,AMSA01.jpg,MS,2,num_4,16,num_4,0.666798811593,,,2017_Oct_03_1126,60.0073330151,FEMA4ImagesEEG,001,201740,
AFNE01.JPG,AFNE01.JPG,AFNE01.JPG,AFNE01.JPG,AFNE01.JPG,AFNE01.JPG,,,,,,,,,,,,,,,,,,,,,0,2,2,0,,,AMSA09.jpg,AMNE11.jpg,AMSA14.jpg,AMNE18.jpg,AMNE11.jpg,MN,1,num_6,16,num_6,0.783422162308,,,2017_Oct_03_1126,60.0073330151,FEMA4ImagesEEG,001,201740,
AFNE01.JPG,AFNE01.JPG,AFNE01.JPG,AFNE01.JPG,AFNE01.JPG,AFNE01.JPG,,,,,,,,,,,,,,,,,,,,,0,3,3,3,,,AMSA13.jpg,AMNE03.jpg,AMNE14.jpg,AMSA07.jpg,AMNE14.jpg,MN,1,num_2,32,num_8,0.366838807886,,,2017_Oct_03_1126,60.0073330151,FEMA4ImagesEEG,001,201740,
AFNE01.JPG,AFNE01.JPG,AFNE01.JPG,AFNE01.JPG,AFNE01.JPG,AFNE01.JPG,,,,,,,,,,,,,,,,,,,,,0,4,4,1,,,AMNE16.jpg,AMSA01.jpg,AMNE09.jpg,AMSA07.jpg,AMSA07.jpg,MS,2,num_4,32,num_8,0.983494392982,,,2017_Oct_03_1126,60.0073330151,FEMA4ImagesEEG,001,201740,
AFNE01.JPG,AFNE01.JPG,AFNE01.JPG,AFNE01.JPG,AFNE01.JPG,AFNE01.JPG,,,,,,,,,,,,,,,,,,,,,0,5,5,2,,,AMNE17.jpg,AMSA09.jpg,AMSA16.jpg,AMNE16.jpg,AMSA16.jpg,MS,2,num_2,32,num_4,0.366795507971,,,2017_Oct_03_1126,60.0073330151,FEMA4ImagesEEG,001,201740,
AFNE01.JPG,AFNE01.JPG,AFNE01.JPG,AFNE01.JPG,AFNE01.JPG,AFNE01.JPG,,,,,,,,,,,,,,,,,,,,,0,6,6,6,,,AMSA16.jpg,AMNE17.jpg,AMSA17.jpg,AMNE03.jpg,AMSA17.jpg,MS,2,num_2,32,num_8,0.416803382141,,,2017_Oct_03_1126,60.0073330151,FEMA4ImagesEEG,001,201740,
AFNE01.JPG,AFNE01.JPG,AFNE01.JPG,AFNE01.JPG,AFNE01.JPG,AFNE01.JPG,,,,,,,,,,,,,,,,,,,,,0,7,7,9,,,AMNE17.jpg,AMSA09.jpg,AMSA04.jpg,AMNE04.jpg,AMSA09.jpg,MS,2,num_6,32,num_8,0.733498322048,,,2017_Oct_03_1126,60.0073330151,FEMA4ImagesEEG,001,201740,
AFNE01.JPG,AFNE01.JPG,AFNE01.JPG,AFNE01.JPG,AFNE01.JPG,AFNE01.JPG,,,,,,,,,,,,,,,,,,,,,0,8,8,7,,,AMNE17.jpg,AMSA17.jpg,AMSA12.jpg,AMNE03.jpg,AMNE03.jpg,MN,1,num_4,32,num_2,0.633443122674,,,2017_Oct_03_1126,60.0073330151,FEMA4ImagesEEG,001,201740,
AFNE01.JPG,AFNE01.JPG,AFNE01.JPG,AFNE01.JPG,AFNE01.JPG,AFNE01.JPG,,,,,,,,,,,,,,,,,,,,,0,9,9,4,,,AMSA17.jpg,AMNE13.jpg,AMNE02.jpg,AMSA14.jpg,AMNE13.jpg,MN,1,num_6,32,num_8,1.1331398629,,,2017_Oct_03_1126,60.0073330151,FEMA4ImagesEEG,001,201740,
AFNE01.JPG,AFNE01.JPG,AFNE01.JPG,AFNE01.JPG,AFNE01.JPG,AFNE01.JPG,,,,,,,,,,,,,,,,,,,,,1,0,10,6,,,AMSA02.jpg,AMSA20.jpg,AMNE20.jpg,AMNE03.jpg,AMSA02.jpg,MS,2,num_8,32,num_4,0.266843586914,,,2017_Oct_03_1126,60.0073330151,FEMA4ImagesEEG,001,201740,
AFNE01.JPG,AFNE01.JPG,AFNE01.JPG,AFNE01.JPG,AFNE01.JPG,AFNE01.JPG,,,,,,,,,,,,,,,,,,,,,1,1,11,9,,,AMNE02.jpg,AMSA15.jpg,AMNE04.jpg,AMSA08.jpg,AMNE02.jpg,MN,1,num_8,32,num_2,1.33330382524,,,2017_Oct_03_1126,60.0073330151,FEMA4ImagesEEG,001,201740,
AFNE01.JPG,AFNE01.JPG,AFNE01.JPG,AFNE01.JPG,AFNE01.JPG,AFNE01.JPG,,,,,,,,,,,,,,,,,,,,,1,2,12,7,,,AMNE10.jpg,AMSA19.jpg,AMSA07.jpg,AMNE07.jpg,AMSA07.jpg,MS,2,num_2,32,num_6,0.300184521788,,,2017_Oct_03_1126,60.0073330151,FEMA4ImagesEEG,001,201740,
AFNE01.JPG,AFNE01.JPG,AFNE01.JPG,AFNE01.JPG,AFNE01.JPG,AFNE01.JPG,,,,,,,,,,,,,,,,,,,,,1,3,13,4,,,AMNE08.jpg,AMSA13.jpg,AMSA05.jpg,AMNE19.jpg,AMNE08.jpg,MN,1,num_8,16,num_8,0.550187328264,,,2017_Oct_03_1126,60.0073330151,FEMA4ImagesEEG,001,201740,
AFNE01.JPG,AFNE01.JPG,AFNE01.JPG,AFNE01.JPG,AFNE01.JPG,AFNE01.JPG,,,,,,,,,,,,,,,,,,,,,1,4,14,1,,,AMSA01.jpg,AMNE06.jpg,AMNE18.jpg,AMSA13.jpg,AMNE18.jpg,MN,1,num_2,16,num_2,0.250196212765,,,2017_Oct_03_1126,60.0073330151,FEMA4ImagesEEG,001,201740,
AFNE01.JPG,AFNE01.JPG,AFNE01.JPG,AFNE01.JPG,AFNE01.JPG,AFNE01.JPG,,,,,,,,,,,,,,,,,,,,,1,5,15,8,,,AMNE01.jpg,AMSA15.jpg,AMNE02.jpg,AMSA11.jpg,AMNE02.jpg,MN,1,num_2,32,num_8,0.783357052065,,,2017_Oct_03_1126,60.0073330151,FEMA4ImagesEEG,001,201740,
AFNE01.JPG,AFNE01.JPG,AFNE01.JPG,AFNE01.JPG,AFNE01.JPG,AFNE01.JPG,,,,,,,,,,,,,,,,,,,,,1,6,16,5,,,AMSA09.jpg,AMSA16.jpg,AMNE03.jpg,AMNE01.jpg,AMSA09.jpg,MS,2,num_8,32,num_6,0.483354069182,,,2017_Oct_03_1126,60.0073330151,FEMA4ImagesEEG,001,201740,
AFNE01.JPG,AFNE01.JPG,AFNE01.JPG,AFNE01.JPG,AFNE01.JPG,AFNE01.JPG,,,,,,,,,,,,,,,,,,,,,1,7,17,3,,,AMNE20.jpg,AMSA01.jpg,AMNE08.jpg,AMSA14.jpg,AMSA01.jpg,MS,2,num_6,32,num_8,0.716814383526,,,2017_Oct_03_1126,60.0073330151,FEMA4ImagesEEG,001,201740,
AFNE01.JPG,AFNE01.JPG,AFNE01.JPG,AFNE01.JPG,AFNE01.JPG,AFNE01.JPG,,,,,,,,,,,,,,,,,,,,,1,8,18,0,,,AMNE08.jpg,AMSA10.jpg,AMSA19.jpg,AMNE06.jpg,AMSA10.jpg,MS,2,num_6,32,num_8,0.733457908794,,,2017_Oct_03_1126,60.0073330151,FEMA4ImagesEEG,001,201740,
AFNE01.JPG,AFNE01.JPG,AFNE01.JPG,AFNE01.JPG,AFNE01.JPG,AFNE01.JPG,,,,,,,,,,,,,,,,,,,,,1,9,19,2,,,AMNE17.jpg,AMSA18.jpg,AMNE12.jpg,AMSA20.jpg,AMSA18.jpg,MS,2,num_6,32,num_4,1.88340455368,,,2017_Oct_03_1126,60.0073330151,FEMA4ImagesEEG,001,201740,
AFNE01.JPG,AFNE01.JPG,AFNE01.JPG,AFNE01.JPG,AFNE01.JPG,AFNE01.JPG,,,,,,,,,,,,,,,,,,,,,2,0,20,6,,,AMNE06.jpg,AMSA06.jpg,AMNE14.jpg,AMSA15.jpg,AMNE14.jpg,MN,1,num_2,32,num_8,0.716820477588,,,2017_Oct_03_1126,60.0073330151,FEMA4ImagesEEG,001,201740,
AFNE01.JPG,AFNE01.JPG,AFNE01.JPG,AFNE01.JPG,AFNE01.JPG,AFNE01.JPG,,,,,,,,,,,,,,,,,,,,,2,1,21,2,,,AMSA02.jpg,AMNE02.jpg,AMNE16.jpg,AMSA07.jpg,AMSA02.jpg,MS,2,num_8,32,num_4,0.400168516856,,,2017_Oct_03_1126,60.0073330151,FEMA4ImagesEEG,001,201740,
AFNE01.JPG,AFNE01.JPG,AFNE01.JPG,AFNE01.JPG,AFNE01.JPG,AFNE01.JPG,,,,,,,,,,,,,,,,,,,,,2,2,22,4,,,AMNE04.jpg,AMSA02.jpg,AMSA12.jpg,AMNE19.jpg,AMNE04.jpg,MN,1,num_8,48,None,,,,2017_Oct_03_1126,60.0073330151,FEMA4ImagesEEG,001,201740,
AFNE01.JPG,AFNE01.JPG,AFNE01.JPG,AFNE01.JPG,AFNE01.JPG,AFNE01.JPG,,,,,,,,,,,,,,,,,,,,,2,3,23,9,,,AMSA11.jpg,AMNE06.jpg,AMSA06.jpg,AMNE18.jpg,AMNE06.jpg,MN,1,num_6,32,num_8,0.966759136041,,,2017_Oct_03_1126,60.0073330151,FEMA4ImagesEEG,001,201740,
AFNE01.JPG,AFNE01.JPG,AFNE01.JPG,AFNE01.JPG,AFNE01.JPG,AFNE01.JPG,,,,,,,,,,,,,,,,,,,,,2,4,24,7,,,AMSA01.jpg,AMSA06.jpg,AMNE08.jpg,AMNE14.jpg,AMSA01.jpg,MS,2,num_8,16,num_8,1.20017647121,,,2017_Oct_03_1126,60.0073330151,FEMA4ImagesEEG,001,201740,
AFNE01.JPG,AFNE01.JPG,AFNE01.JPG,AFNE01.JPG,AFNE01.JPG,AFNE01.JPG,,,,,,,,,,,,,,,,,,,,,2,5,25,0,,,AMNE09.jpg,AMSA17.jpg,AMNE06.jpg,AMSA19.jpg,AMNE09.jpg,MN,1,num_8,48,None,,,,2017_Oct_03_1126,60.0073330151,FEMA4ImagesEEG,001,201740,
AFNE01.JPG,AFNE01.JPG,AFNE01.JPG,AFNE01.JPG,AFNE01.JPG,AFNE01.JPG,,,,,,,,,,,,,,,,,,,,,2,6,26,3,,,AMSA02.jpg,AMNE14.jpg,AMSA05.jpg,AMNE19.jpg,AMNE19.jpg,MN,1,num_4,16,num_4,1.616723582,,,2017_Oct_03_1126,60.0073330151,FEMA4ImagesEEG,001,201740,
AFNE01.JPG,AFNE01.JPG,AFNE01.JPG,AFNE01.JPG,AFNE01.JPG,AFNE01.JPG,,,,,,,,,,,,,,,,,,,,,2,7,27,1,,,AMNE14.jpg,AMSA18.jpg,AMNE04.jpg,AMSA11.jpg,AMNE14.jpg,MN,1,num_8,16,num_8,1.68340128213,,,2017_Oct_03_1126,60.0073330151,FEMA4ImagesEEG,001,201740,
AFNE01.JPG,AFNE01.JPG,AFNE01.JPG,AFNE01.JPG,AFNE01.JPG,AFNE01.JPG,,,,,,,,,,,,,,,,,,,,,2,8,28,8,,,AMNE02.jpg,AMSA19.jpg,AMSA13.jpg,AMNE01.jpg,AMSA19.jpg,MS,2,num_6,16,num_6,1.80005253723,,,2017_Oct_03_1126,60.0073330151,FEMA4ImagesEEG,001,201740,
AFNE01.JPG,AFNE01.JPG,AFNE01.JPG,AFNE01.JPG,AFNE01.JPG,AFNE01.JPG,,,,,,,,,,,,,,,,,,,,,2,9,29,5,,,AMSA09.jpg,AMSA18.jpg,AMNE11.jpg,AMNE14.jpg,AMNE14.jpg,MN,1,num_4,32,num_8,2.60005151086,,,2017_Oct_03_1126,60.0073330151,FEMA4ImagesEEG,001,201740,
AFNE01.JPG,AFNE01.JPG,AFNE01.JPG,AFNE01.JPG,AFNE01.JPG,AFNE01.JPG,,,,,,,,,,,,,,,,,,,,,3,0,30,6,,,AMSA11.jpg,AMSA15.jpg,AMNE07.jpg,AMNE02.jpg,AMNE07.jpg,MN,1,num_2,48,None,,,,2017_Oct_03_1126,60.0073330151,FEMA4ImagesEEG,001,201740,
AFNE01.JPG,AFNE01.JPG,AFNE01.JPG,AFNE01.JPG,AFNE01.JPG,AFNE01.JPG,,,,,,,,,,,,,,,,,,,,,3,1,31,1,,,AMSA03.jpg,AMNE05.jpg,AMSA16.jpg,AMNE17.jpg,AMSA03.jpg,MS,2,num_8,32,num_4,0.450177673986,,,2017_Oct_03_1126,60.0073330151,FEMA4ImagesEEG,001,201740,
AFNE01.JPG,AFNE01.JPG,AFNE01.JPG,AFNE01.JPG,AFNE01.JPG,AFNE01.JPG,,,,,,,,,,,,,,,,,,,,,3,2,32,7,,,AMNE07.jpg,AMSA06.jpg,AMSA07.jpg,AMNE15.jpg,AMNE15.jpg,MN,1,num_4,48,None,,,,2017_Oct_03_1126,60.0073330151,FEMA4ImagesEEG,001,201740,
AFNE01.JPG,AFNE01.JPG,AFNE01.JPG,AFNE01.JPG,AFNE01.JPG,AFNE01.JPG,,,,,,,,,,,,,,,,,,,,,3,3,33,0,,,AMNE05.jpg,AMSA14.jpg,AMSA07.jpg,AMNE07.jpg,AMNE07.jpg,MN,1,num_4,48,None,,,,2017_Oct_03_1126,60.0073330151,FEMA4ImagesEEG,001,201740,
AFNE01.JPG,AFNE01.JPG,AFNE01.JPG,AFNE01.JPG,AFNE01.JPG,AFNE01.JPG,,,,,,,,,,,,,,,,,,,,,3,4,34,8,,,AMSA07.jpg,AMSA12.jpg,AMNE09.jpg,AMNE07.jpg,AMSA07.jpg,MS,2,num_8,48,None,,,,2017_Oct_03_1126,60.0073330151,FEMA4ImagesEEG,001,201740,
AFNE01.JPG,AFNE01.JPG,AFNE01.JPG,AFNE01.JPG,AFNE01.JPG,AFNE01.JPG,,,,,,,,,,,,,,,,,,,,,3,5,35,9,,,AMSA15.jpg,AMSA14.jpg,AMNE11.jpg,AMNE06.jpg,AMNE06.jpg,MN,1,num_4,48,None,,,,2017_Oct_03_1126,60.0073330151,FEMA4ImagesEEG,001,201740,
AFNE01.JPG,AFNE01.JPG,AFNE01.JPG,AFNE01.JPG,AFNE01.JPG,AFNE01.JPG,,,,,,,,,,,,,,,,,,,,,3,6,36,5,,,AMNE12.jpg,AMSA16.jpg,AMSA14.jpg,AMNE06.jpg,AMNE06.jpg,MN,1,num_4,48,None,,,,2017_Oct_03_1126,60.0073330151,FEMA4ImagesEEG,001,201740,
AFNE01.JPG,AFNE01.JPG,AFNE01.JPG,AFNE01.JPG,AFNE01.JPG,AFNE01.JPG,,,,,,,,,,,,,,,,,,,,,3,7,37,4,,,AMNE15.jpg,AMSA05.jpg,AMSA16.jpg,AMNE18.jpg,AMNE15.jpg,MN,1,num_8,32,num_2,0.400106293274,,,2017_Oct_03_1126,60.0073330151,FEMA4ImagesEEG,001,201740,
AFNE01.JPG,AFNE01.JPG,AFNE01.JPG,AFNE01.JPG,AFNE01.JPG,AFNE01.JPG,,,,,,,,,,,,,,,,,,,,,3,8,38,2,,,AMNE12.jpg,AMSA19.jpg,AMSA12.jpg,AMNE18.jpg,AMNE18.jpg,MN,1,num_4,32,num_8,1.09994710996,,,2017_Oct_03_1126,60.0073330151,FEMA4ImagesEEG,001,201740,
AFNE01.JPG,AFNE01.JPG,AFNE01.JPG,AFNE01.JPG,AFNE01.JPG,AFNE01.JPG,,,,,,,,,,,,,,,,,,,,,3,9,39,3,,,AMNE18.jpg,AMSA02.jpg,AMNE03.jpg,AMSA11.jpg,AMNE03.jpg,MN,1,num_2,32,num_8,1.00015106859,,,2017_Oct_03_1126,60.0073330151,FEMA4ImagesEEG,001,201740,
AFNE01.JPG,AFNE01.JPG,AFNE01.JPG,AFNE01.JPG,AFNE01.JPG,AFNE01.JPG,,,,,,,,,,,,,,,,,,,,,4,0,40,9,,,AMNE06.jpg,AMSA03.jpg,AMNE20.jpg,AMSA13.jpg,AMNE06.jpg,MN,1,num_8,32,num_4,1.31675299387,,,2017_Oct_03_1126,60.0073330151,FEMA4ImagesEEG,001,201740,
