IPosition2,IPosition3,IPosition1,IPosition6,IPosition4,IPosition5,TrialsF1.thisRepN,TrialsF1.thisTrialN,TrialsF1.thisN,TrialsF1.thisIndex,TrialsM1.thisRepN,TrialsM1.thisTrialN,TrialsM1.thisN,TrialsM1.thisIndex,TrialsF2.thisRepN,TrialsF2.thisTrialN,TrialsF2.thisN,TrialsF2.thisIndex,TrialsM2.thisRepN,TrialsM2.thisTrialN,TrialsM2.thisN,TrialsM2.thisIndex,TrialsF3.thisRepN,TrialsF3.thisTrialN,TrialsF3.thisN,TrialsF3.thisIndex,TrialsM3.thisRepN,TrialsM3.thisTrialN,TrialsM3.thisN,TrialsM3.thisIndex,InstrKey_resp.keys,InstrKey_resp.rt,Image0 _Position,Image1 _Position,Image2 _Position,Image3 _Position,Center_image,condition,code,correct_answer,accuracy,Key_Resp.keys,Key_Resp.rt,BreakKey_resp.keys,BreakKey_resp.rt,date,frameRate,expName,session,participant,
,,,,,,,,,,,,,,,,,,,,,,,,,,,,,,space,7.76633927706,,,,,,,,,,,,,,2017_Sep_25_1429,60.0185188061,FEMA4ImagesEEG,001,201723,
AFSA21.JPG,AFNE22.JPG,AFNE21.JPG,AFSA23.JPG,AFSA22.JPG,AFNE23.JPG,0,0,0,0,,,,,,,,,,,,,,,,,,,,,,,AFSA15.jpg,AFNE05.jpg,AFSA02.jpg,AFNE15.jpg,AFNE15.jpg,FN,3,num_4,16,num_4,0.500151709828,,,2017_Sep_25_1429,60.0185188061,FEMA4ImagesEEG,001,201723,
AFNE22.JPG,AFSA24.JPG,AFSA22.JPG,AFNE25.JPG,AFNE24.JPG,AFSA25.JPG,0,1,1,6,,,,,,,,,,,,,,,,,,,,,,,AFNE09.jpg,AFSA11.jpg,AFSA01.jpg,AFNE10.jpg,AFSA11.jpg,FS,4,num_6,16,num_6,0.750128456217,,,2017_Sep_25_1429,60.0185188061,FEMA4ImagesEEG,001,201723,
AMSA21.JPG,AMNE22.JPG,AMNE21.JPG,AMSA23.JPG,AMSA22.JPG,AMNE23.JPG,0,2,2,1,,,,,,,,,,,,,,,,,,,,,,,AFSA05.jpg,AFNE19.jpg,AFNE12.jpg,AFSA11.jpg,AFSA11.jpg,FS,4,num_4,16,num_4,0.600154788932,,,2017_Sep_25_1429,60.0185188061,FEMA4ImagesEEG,001,201723,
AMSA25.JPG,AMNE24.JPG,AMSA24.JPG,AMNE26.JPG,AMSA21.JPG,AMNE25.JPG,0,3,3,3,,,,,,,,,,,,,,,,,,,,,,,AFSA03.jpg,AFNE14.jpg,AFNE11.jpg,AFSA19.jpg,AFSA03.jpg,FS,4,num_8,16,num_8,0.9168537113,,,2017_Sep_25_1429,60.0185188061,FEMA4ImagesEEG,001,201723,
AMNE22.JPG,AMSA24.JPG,AMSA22.JPG,AMNE25.JPG,AMNE24.JPG,AMSA25.JPG,0,4,4,7,,,,,,,,,,,,,,,,,,,,,,,AFNE04.jpg,AFSA01.jpg,AFNE11.jpg,AFSA03.jpg,AFSA01.jpg,FS,4,num_6,32,num_4,0.566769324738,,,2017_Sep_25_1429,60.0185188061,FEMA4ImagesEEG,001,201723,
AMNE23.JPG,AMNE24.JPG,AMNE22.JPG,AMSA24.JPG,AMSA22.JPG,AMSA23.JPG,0,5,5,9,,,,,,,,,,,,,,,,,,,,,,,AFSA03.jpg,AFNE08.jpg,AFNE09.jpg,AFSA08.jpg,AFNE09.jpg,FN,3,num_2,32,num_4,0.56677798467,,,2017_Sep_25_1429,60.0185188061,FEMA4ImagesEEG,001,201723,
AFSA25.JPG,AFNE24.JPG,AFSA24.JPG,AFNE21.JPG,AFSA21.JPG,AFNE25.JPG,0,6,6,2,,,,,,,,,,,,,,,,,,,,,,,AFSA16.jpg,AFSA15.jpg,AFNE05.jpg,AFNE15.jpg,AFSA15.jpg,FS,4,num_6,16,num_6,0.616761081706,,,2017_Sep_25_1429,60.0185188061,FEMA4ImagesEEG,001,201723,
AFSA21.JPG,AFNE23.JPG,AFNE21.JPG,AFSA25.JPG,AFNE25.JPG,AFSA23.JPG,0,7,7,4,,,,,,,,,,,,,,,,,,,,,,,AFNE17.jpg,AFSA03.jpg,AFNE10.jpg,AFSA15.jpg,AFNE10.jpg,FN,3,num_2,16,num_2,0.600147411926,,,2017_Sep_25_1429,60.0185188061,FEMA4ImagesEEG,001,201723,
AFNE23.JPG,AFNE24.JPG,AFNE22.JPG,AFSA24.JPG,AFSA22.JPG,AFSA23.JPG,0,8,8,8,,,,,,,,,,,,,,,,,,,,,,,AFSA01.jpg,AFNE03.jpg,AFNE20.jpg,AFSA07.jpg,AFSA01.jpg,FS,4,num_8,32,num_6,0.550142825348,,,2017_Sep_25_1429,60.0185188061,FEMA4ImagesEEG,001,201723,
AMSA21.JPG,AMNE23.JPG,AMNE21.JPG,AMSA25.JPG,AMNE25.JPG,AMSA23.JPG,0,9,9,5,,,,,,,,,,,,,,,,,,,,,,,AFSA13.jpg,AFNE11.jpg,AFNE19.jpg,AFSA02.jpg,AFSA02.jpg,FS,4,num_4,32,num_6,0.600128809019,,,2017_Sep_25_1429,60.0185188061,FEMA4ImagesEEG,001,201723,
AFSA21.JPG,AFNE23.JPG,AFNE21.JPG,AFSA25.JPG,AFNE25.JPG,AFSA23.JPG,,,,,0,0,0,4,,,,,,,,,,,,,,,,,,,AMSA11.jpg,AMNE08.jpg,AMNE11.jpg,AMSA03.jpg,AMNE08.jpg,MN,1,num_6,32,num_8,0.716649977519,,,2017_Sep_25_1429,60.0185188061,FEMA4ImagesEEG,001,201723,
AMSA21.JPG,AMNE23.JPG,AMNE21.JPG,AMSA25.JPG,AMNE25.JPG,AMSA23.JPG,,,,,0,1,1,5,,,,,,,,,,,,,,,,,,,AMNE08.jpg,AMNE19.jpg,AMSA02.jpg,AMSA17.jpg,AMSA17.jpg,MS,2,num_4,16,num_4,0.60012111126,,,2017_Sep_25_1429,60.0185188061,FEMA4ImagesEEG,001,201723,
AMNE22.JPG,AMSA24.JPG,AMSA22.JPG,AMNE25.JPG,AMNE24.JPG,AMSA25.JPG,,,,,0,2,2,7,,,,,,,,,,,,,,,,,,,AMNE06.jpg,AMNE09.jpg,AMSA17.jpg,AMSA16.jpg,AMSA16.jpg,MS,2,num_4,32,num_6,0.716755821573,,,2017_Sep_25_1429,60.0185188061,FEMA4ImagesEEG,001,201723,
AFSA21.JPG,AFNE22.JPG,AFNE21.JPG,AFSA23.JPG,AFSA22.JPG,AFNE23.JPG,,,,,0,3,3,0,,,,,,,,,,,,,,,,,,,AMNE01.jpg,AMNE08.jpg,AMSA10.jpg,AMSA15.jpg,AMSA10.jpg,MS,2,num_2,32,num_4,1.13342061729,,,2017_Sep_25_1429,60.0185188061,FEMA4ImagesEEG,001,201723,
AMSA21.JPG,AMNE22.JPG,AMNE21.JPG,AMSA23.JPG,AMSA22.JPG,AMNE23.JPG,,,,,0,4,4,1,,,,,,,,,,,,,,,,,,,AMNE19.jpg,AMSA06.jpg,AMSA03.jpg,AMNE15.jpg,AMSA06.jpg,MS,2,num_6,16,num_6,0.633353261946,,,2017_Sep_25_1429,60.0185188061,FEMA4ImagesEEG,001,201723,
AFNE23.JPG,AFNE24.JPG,AFNE22.JPG,AFSA24.JPG,AFSA22.JPG,AFSA23.JPG,,,,,0,5,5,8,,,,,,,,,,,,,,,,,,,AMNE05.jpg,AMSA08.jpg,AMSA18.jpg,AMNE14.jpg,AMSA18.jpg,MS,2,num_2,32,num_6,0.516752550029,,,2017_Sep_25_1429,60.0185188061,FEMA4ImagesEEG,001,201723,
AFNE22.JPG,AFSA24.JPG,AFSA22.JPG,AFNE25.JPG,AFNE24.JPG,AFSA25.JPG,,,,,0,6,6,6,,,,,,,,,,,,,,,,,,,AMSA16.jpg,AMSA02.jpg,AMNE10.jpg,AMNE07.jpg,AMSA16.jpg,MS,2,num_8,32,num_4,0.566777663946,,,2017_Sep_25_1429,60.0185188061,FEMA4ImagesEEG,001,201723,
AMSA25.JPG,AMNE24.JPG,AMSA24.JPG,AMNE26.JPG,AMSA21.JPG,AMNE25.JPG,,,,,0,7,7,3,,,,,,,,,,,,,,,,,,,AMSA06.jpg,AMSA09.jpg,AMNE09.jpg,AMNE16.jpg,AMSA09.jpg,MS,2,num_6,16,num_6,0.483480306924,,,2017_Sep_25_1429,60.0185188061,FEMA4ImagesEEG,001,201723,
AMNE23.JPG,AMNE24.JPG,AMNE22.JPG,AMSA24.JPG,AMSA22.JPG,AMSA23.JPG,,,,,0,8,8,9,,,,,,,,,,,,,,,,,,,AMNE20.jpg,AMSA03.jpg,AMSA08.jpg,AMNE10.jpg,AMSA03.jpg,MS,2,num_6,16,num_6,0.616788986052,,,2017_Sep_25_1429,60.0185188061,FEMA4ImagesEEG,001,201723,
AFSA25.JPG,AFNE24.JPG,AFSA24.JPG,AFNE21.JPG,AFSA21.JPG,AFNE25.JPG,,,,,0,9,9,2,,,,,,,,,,,,,,,,,,,AMSA08.jpg,AMSA10.jpg,AMNE12.jpg,AMNE02.jpg,AMNE02.jpg,MN,1,num_4,16,num_4,0.566761306225,,,2017_Sep_25_1429,60.0185188061,FEMA4ImagesEEG,001,201723,
AMSA25.JPG,AMNE24.JPG,AMSA24.JPG,AMNE26.JPG,AMSA21.JPG,AMNE25.JPG,,,,,,,,,0,0,0,3,,,,,,,,,,,,,,,AFSA08.jpg,AFSA05.jpg,AFNE07.jpg,AFNE18.jpg,AFNE07.jpg,FN,3,num_2,32,num_4,0.616819135583,,,2017_Sep_25_1429,60.0185188061,FEMA4ImagesEEG,001,201723,
AFNE23.JPG,AFNE24.JPG,AFNE22.JPG,AFSA24.JPG,AFSA22.JPG,AFSA23.JPG,,,,,,,,,0,1,1,8,,,,,,,,,,,,,,,AFNE15.jpg,AFNE12.jpg,AFSA19.jpg,AFSA11.jpg,AFSA11.jpg,FS,4,num_4,16,num_4,0.383453172341,,,2017_Sep_25_1429,60.0185188061,FEMA4ImagesEEG,001,201723,
AFSA21.JPG,AFNE22.JPG,AFNE21.JPG,AFSA23.JPG,AFSA22.JPG,AFNE23.JPG,,,,,,,,,0,2,2,0,,,,,,,,,,,,,,,AFSA16.jpg,AFNE17.jpg,AFSA01.jpg,AFNE03.jpg,AFSA01.jpg,FS,4,num_2,16,num_2,0.649956668087,,,2017_Sep_25_1429,60.0185188061,FEMA4ImagesEEG,001,201723,
AMNE23.JPG,AMNE24.JPG,AMNE22.JPG,AMSA24.JPG,AMSA22.JPG,AMSA23.JPG,,,,,,,,,0,3,3,9,,,,,,,,,,,,,,,AFNE13.jpg,AFSA17.jpg,AFNE12.jpg,AFSA02.jpg,AFNE13.jpg,FN,3,num_8,32,num_6,0.566812624573,,,2017_Sep_25_1429,60.0185188061,FEMA4ImagesEEG,001,201723,
AMNE22.JPG,AMSA24.JPG,AMSA22.JPG,AMNE25.JPG,AMNE24.JPG,AMSA25.JPG,,,,,,,,,0,4,4,7,,,,,,,,,,,,,,,AFNE12.jpg,AFNE02.jpg,AFSA04.jpg,AFSA19.jpg,AFNE12.jpg,FN,3,num_8,16,num_8,0.366836295143,,,2017_Sep_25_1429,60.0185188061,FEMA4ImagesEEG,001,201723,
AFSA25.JPG,AFNE24.JPG,AFSA24.JPG,AFNE21.JPG,AFSA21.JPG,AFNE25.JPG,,,,,,,,,0,5,5,2,,,,,,,,,,,,,,,AFSA16.jpg,AFNE10.jpg,AFNE07.jpg,AFSA17.jpg,AFNE07.jpg,FN,3,num_2,32,num_6,0.55020472809,,,2017_Sep_25_1429,60.0185188061,FEMA4ImagesEEG,001,201723,
AFSA21.JPG,AFNE23.JPG,AFNE21.JPG,AFSA25.JPG,AFNE25.JPG,AFSA23.JPG,,,,,,,,,0,6,6,4,,,,,,,,,,,,,,,AFSA09.jpg,AFNE10.jpg,AFSA05.jpg,AFNE17.jpg,AFSA05.jpg,FS,4,num_2,32,num_4,0.566777343221,,,2017_Sep_25_1429,60.0185188061,FEMA4ImagesEEG,001,201723,
AMSA21.JPG,AMNE22.JPG,AMNE21.JPG,AMSA23.JPG,AMSA22.JPG,AMNE23.JPG,,,,,,,,,0,7,7,1,,,,,,,,,,,,,,,AFSA13.jpg,AFNE16.jpg,AFSA10.jpg,AFNE06.jpg,AFNE16.jpg,FN,3,num_6,32,num_4,0.600180448091,,,2017_Sep_25_1429,60.0185188061,FEMA4ImagesEEG,001,201723,
AFNE22.JPG,AFSA24.JPG,AFSA22.JPG,AFNE25.JPG,AFNE24.JPG,AFSA25.JPG,,,,,,,,,0,8,8,6,,,,,,,,,,,,,,,AFSA17.jpg,AFSA02.jpg,AFNE04.jpg,AFNE10.jpg,AFNE10.jpg,FN,3,num_4,32,num_2,0.716800083639,,,2017_Sep_25_1429,60.0185188061,FEMA4ImagesEEG,001,201723,
AMSA21.JPG,AMNE23.JPG,AMNE21.JPG,AMSA25.JPG,AMNE25.JPG,AMSA23.JPG,,,,,,,,,0,9,9,5,,,,,,,,,,,,,,,AFSA07.jpg,AFSA12.jpg,AFNE06.jpg,AFNE12.jpg,AFSA12.jpg,FS,4,num_6,32,num_2,0.966772660409,,,2017_Sep_25_1429,60.0185188061,FEMA4ImagesEEG,001,201723,
AFNE23.JPG,AFNE24.JPG,AFNE22.JPG,AFSA24.JPG,AFSA22.JPG,AFSA23.JPG,,,,,,,,,,,,,0,0,0,8,,,,,,,,,,,AMSA20.jpg,AMNE11.jpg,AMSA16.jpg,AMNE16.jpg,AMSA16.jpg,MS,2,num_2,32,num_4,0.650081435801,,,2017_Sep_25_1429,60.0185188061,FEMA4ImagesEEG,001,201723,
AMSA25.JPG,AMNE24.JPG,AMSA24.JPG,AMNE26.JPG,AMSA21.JPG,AMNE25.JPG,,,,,,,,,,,,,0,1,1,3,,,,,,,,,,,AMSA03.jpg,AMSA19.jpg,AMNE03.jpg,AMNE18.jpg,AMNE18.jpg,MN,1,num_4,32,num_2,0.666770158627,,,2017_Sep_25_1429,60.0185188061,FEMA4ImagesEEG,001,201723,
AFSA25.JPG,AFNE24.JPG,AFSA24.JPG,AFNE21.JPG,AFSA21.JPG,AFNE25.JPG,,,,,,,,,,,,,0,2,2,2,,,,,,,,,,,AMNE11.jpg,AMNE10.jpg,AMSA18.jpg,AMSA07.jpg,AMNE11.jpg,MN,1,num_8,32,num_2,0.683364904806,,,2017_Sep_25_1429,60.0185188061,FEMA4ImagesEEG,001,201723,
AFSA21.JPG,AFNE23.JPG,AFNE21.JPG,AFSA25.JPG,AFNE25.JPG,AFSA23.JPG,,,,,,,,,,,,,0,3,3,4,,,,,,,,,,,AMSA19.jpg,AMNE11.jpg,AMSA01.jpg,AMNE19.jpg,AMNE11.jpg,MN,1,num_6,16,num_6,0.600127205311,,,2017_Sep_25_1429,60.0185188061,FEMA4ImagesEEG,001,201723,
AFNE22.JPG,AFSA24.JPG,AFSA22.JPG,AFNE25.JPG,AFNE24.JPG,AFSA25.JPG,,,,,,,,,,,,,0,4,4,6,,,,,,,,,,,AMNE03.jpg,AMSA18.jpg,AMSA04.jpg,AMNE15.jpg,AMNE03.jpg,MN,1,num_8,32,num_2,0.466793829226,,,2017_Sep_25_1429,60.0185188061,FEMA4ImagesEEG,001,201723,
AMSA21.JPG,AMNE23.JPG,AMNE21.JPG,AMSA25.JPG,AMNE25.JPG,AMSA23.JPG,,,,,,,,,,,,,0,5,5,5,,,,,,,,,,,AMNE08.jpg,AMNE16.jpg,AMSA12.jpg,AMSA09.jpg,AMSA09.jpg,MS,2,num_4,32,num_2,0.316794182057,,,2017_Sep_25_1429,60.0185188061,FEMA4ImagesEEG,001,201723,
AMSA21.JPG,AMNE22.JPG,AMNE21.JPG,AMSA23.JPG,AMSA22.JPG,AMNE23.JPG,,,,,,,,,,,,,0,6,6,1,,,,,,,,,,,AMNE06.jpg,AMNE17.jpg,AMSA18.jpg,AMSA14.jpg,AMNE06.jpg,MN,1,num_8,32,num_6,0.717038713919,,,2017_Sep_25_1429,60.0185188061,FEMA4ImagesEEG,001,201723,
AMNE23.JPG,AMNE24.JPG,AMNE22.JPG,AMSA24.JPG,AMSA22.JPG,AMSA23.JPG,,,,,,,,,,,,,0,7,7,9,,,,,,,,,,,AMSA01.jpg,AMNE18.jpg,AMNE20.jpg,AMSA13.jpg,AMNE18.jpg,MN,1,num_6,32,num_2,0.416755564976,,,2017_Sep_25_1429,60.0185188061,FEMA4ImagesEEG,001,201723,
AMNE22.JPG,AMSA24.JPG,AMSA22.JPG,AMNE25.JPG,AMNE24.JPG,AMSA25.JPG,,,,,,,,,,,,,0,8,8,7,,,,,,,,,,,AMSA14.jpg,AMNE17.jpg,AMSA16.jpg,AMNE14.jpg,AMNE14.jpg,MN,1,num_4,32,num_8,0.450110238191,,,2017_Sep_25_1429,60.0185188061,FEMA4ImagesEEG,001,201723,
AFSA21.JPG,AFNE22.JPG,AFNE21.JPG,AFSA23.JPG,AFSA22.JPG,AFNE23.JPG,,,,,,,,,,,,,0,9,9,0,,,,,,,,,,,AMNE18.jpg,AMNE08.jpg,AMSA13.jpg,AMSA08.jpg,AMSA13.jpg,MS,2,num_2,32,num_6,0.66674129208,,,2017_Sep_25_1429,60.0185188061,FEMA4ImagesEEG,001,201723,
AMNE22.JPG,AMSA24.JPG,AMSA22.JPG,AMNE25.JPG,AMNE24.JPG,AMSA25.JPG,,,,,,,,,,,,,,,,,0,0,0,7,,,,,,,AFNE02.jpg,AFNE01.jpg,AFSA05.jpg,AFSA07.jpg,AFNE02.jpg,FN,3,num_8,32,num_2,0.366865161719,,,2017_Sep_25_1429,60.0185188061,FEMA4ImagesEEG,001,201723,
AFNE22.JPG,AFSA24.JPG,AFSA22.JPG,AFNE25.JPG,AFNE24.JPG,AFSA25.JPG,,,,,,,,,,,,,,,,,0,1,1,6,,,,,,,AFSA10.jpg,AFNE11.jpg,AFNE04.jpg,AFSA11.jpg,AFSA11.jpg,FS,4,num_4,32,num_6,0.433480531443,,,2017_Sep_25_1429,60.0185188061,FEMA4ImagesEEG,001,201723,
AMSA25.JPG,AMNE24.JPG,AMSA24.JPG,AMNE26.JPG,AMSA21.JPG,AMNE25.JPG,,,,,,,,,,,,,,,,,0,2,2,3,,,,,,,AFSA10.jpg,AFNE16.jpg,AFNE02.jpg,AFSA17.jpg,AFNE16.jpg,FN,3,num_6,16,num_6,0.733455770329,,,2017_Sep_25_1429,60.0185188061,FEMA4ImagesEEG,001,201723,
AMSA21.JPG,AMNE23.JPG,AMNE21.JPG,AMSA25.JPG,AMNE25.JPG,AMSA23.JPG,,,,,,,,,,,,,,,,,0,3,3,5,,,,,,,AFSA15.jpg,AFNE06.jpg,AFSA20.jpg,AFNE18.jpg,AFSA20.jpg,FS,4,num_2,16,num_2,0.433515812794,,,2017_Sep_25_1429,60.0185188061,FEMA4ImagesEEG,001,201723,
AMSA21.JPG,AMNE22.JPG,AMNE21.JPG,AMSA23.JPG,AMSA22.JPG,AMNE23.JPG,,,,,,,,,,,,,,,,,0,4,4,1,,,,,,,AFSA10.jpg,AFSA07.jpg,AFNE20.jpg,AFNE18.jpg,AFSA10.jpg,FS,4,num_8,32,num_6,0.333516903309,,,2017_Sep_25_1429,60.0185188061,FEMA4ImagesEEG,001,201723,
AMNE23.JPG,AMNE24.JPG,AMNE22.JPG,AMSA24.JPG,AMSA22.JPG,AMSA23.JPG,,,,,,,,,,,,,,,,,0,5,5,9,,,,,,,AFSA11.jpg,AFNE10.jpg,AFNE06.jpg,AFSA16.jpg,AFNE06.jpg,FN,3,num_2,32,num_6,0.666779780819,,,2017_Sep_25_1429,60.0185188061,FEMA4ImagesEEG,001,201723,
AFSA21.JPG,AFNE23.JPG,AFNE21.JPG,AFSA25.JPG,AFNE25.JPG,AFSA23.JPG,,,,,,,,,,,,,,,,,0,6,6,4,,,,,,,AFNE07.jpg,AFNE17.jpg,AFSA18.jpg,AFSA01.jpg,AFNE17.jpg,FN,3,num_6,32,num_2,0.533453461016,,,2017_Sep_25_1429,60.0185188061,FEMA4ImagesEEG,001,201723,
AFSA25.JPG,AFNE24.JPG,AFSA24.JPG,AFNE21.JPG,AFSA21.JPG,AFNE25.JPG,,,,,,,,,,,,,,,,,0,7,7,2,,,,,,,AFNE20.jpg,AFNE09.jpg,AFSA11.jpg,AFSA02.jpg,AFNE09.jpg,FN,3,num_6,16,num_6,0.600135865272,,,2017_Sep_25_1429,60.0185188061,FEMA4ImagesEEG,001,201723,
AFNE23.JPG,AFNE24.JPG,AFNE22.JPG,AFSA24.JPG,AFSA22.JPG,AFSA23.JPG,,,,,,,,,,,,,,,,,0,8,8,8,,,,,,,AFSA11.jpg,AFSA17.jpg,AFNE17.jpg,AFNE06.jpg,AFSA17.jpg,FS,4,num_6,32,num_2,0.866766373889,,,2017_Sep_25_1429,60.0185188061,FEMA4ImagesEEG,001,201723,
AFSA21.JPG,AFNE22.JPG,AFNE21.JPG,AFSA23.JPG,AFSA22.JPG,AFNE23.JPG,,,,,,,,,,,,,,,,,0,9,9,0,,,,,,,AFSA03.jpg,AFNE14.jpg,AFSA04.jpg,AFNE19.jpg,AFSA04.jpg,FS,4,num_2,32,num_4,0.483475816582,,,2017_Sep_25_1429,60.0185188061,FEMA4ImagesEEG,001,201723,
AFNE22.JPG,AFSA24.JPG,AFSA22.JPG,AFNE25.JPG,AFNE24.JPG,AFSA25.JPG,,,,,,,,,,,,,,,,,,,,,0,0,0,6,,,AMNE08.jpg,AMNE14.jpg,AMSA12.jpg,AMSA18.jpg,AMSA18.jpg,MS,2,num_4,16,num_4,0.50019051932,,,2017_Sep_25_1429,60.0185188061,FEMA4ImagesEEG,001,201723,
AMNE22.JPG,AMSA24.JPG,AMSA22.JPG,AMNE25.JPG,AMNE24.JPG,AMSA25.JPG,,,,,,,,,,,,,,,,,,,,,0,1,1,7,,,AMNE06.jpg,AMNE03.jpg,AMSA07.jpg,AMSA12.jpg,AMSA12.jpg,MS,2,num_4,32,num_2,0.733551029989,,,2017_Sep_25_1429,60.0185188061,FEMA4ImagesEEG,001,201723,
AMSA25.JPG,AMNE24.JPG,AMSA24.JPG,AMNE26.JPG,AMSA21.JPG,AMNE25.JPG,,,,,,,,,,,,,,,,,,,,,0,2,2,3,,,AMSA03.jpg,AMNE06.jpg,AMNE15.jpg,AMSA07.jpg,AMSA03.jpg,MS,2,num_8,16,num_8,0.483443742618,,,2017_Sep_25_1429,60.0185188061,FEMA4ImagesEEG,001,201723,
AFSA25.JPG,AFNE24.JPG,AFSA24.JPG,AFNE21.JPG,AFSA21.JPG,AFNE25.JPG,,,,,,,,,,,,,,,,,,,,,0,3,3,2,,,AMSA10.jpg,AMNE08.jpg,AMSA07.jpg,AMNE15.jpg,AMNE15.jpg,MN,1,num_4,16,num_4,0.450134293671,,,2017_Sep_25_1429,60.0185188061,FEMA4ImagesEEG,001,201723,
AMNE23.JPG,AMNE24.JPG,AMNE22.JPG,AMSA24.JPG,AMSA22.JPG,AMSA23.JPG,,,,,,,,,,,,,,,,,,,,,0,4,4,9,,,AMNE14.jpg,AMNE16.jpg,AMSA02.jpg,AMSA10.jpg,AMNE16.jpg,MN,1,num_6,16,num_6,0.666750272794,,,2017_Sep_25_1429,60.0185188061,FEMA4ImagesEEG,001,201723,
AMSA21.JPG,AMNE22.JPG,AMNE21.JPG,AMSA23.JPG,AMSA22.JPG,AMNE23.JPG,,,,,,,,,,,,,,,,,,,,,0,5,5,1,,,AMNE18.jpg,AMSA10.jpg,AMSA16.jpg,AMNE14.jpg,AMNE18.jpg,MN,1,num_8,16,num_8,0.583484027477,,,2017_Sep_25_1429,60.0185188061,FEMA4ImagesEEG,001,201723,
AFSA21.JPG,AFNE22.JPG,AFNE21.JPG,AFSA23.JPG,AFSA22.JPG,AFNE23.JPG,,,,,,,,,,,,,,,,,,,,,0,6,6,0,,,AMSA19.jpg,AMNE06.jpg,AMNE11.jpg,AMSA15.jpg,AMNE11.jpg,MN,1,num_2,16,num_2,0.53347527131,,,2017_Sep_25_1429,60.0185188061,FEMA4ImagesEEG,001,201723,
AFNE23.JPG,AFNE24.JPG,AFNE22.JPG,AFSA24.JPG,AFSA22.JPG,AFSA23.JPG,,,,,,,,,,,,,,,,,,,,,0,7,7,8,,,AMNE19.jpg,AMNE13.jpg,AMSA12.jpg,AMSA13.jpg,AMNE13.jpg,MN,1,num_6,16,num_6,0.566787927615,,,2017_Sep_25_1429,60.0185188061,FEMA4ImagesEEG,001,201723,
AMSA21.JPG,AMNE23.JPG,AMNE21.JPG,AMSA25.JPG,AMNE25.JPG,AMSA23.JPG,,,,,,,,,,,,,,,,,,,,,0,8,8,5,,,AMSA05.jpg,AMNE14.jpg,AMNE19.jpg,AMSA16.jpg,AMNE14.jpg,MN,1,num_6,16,num_6,0.750136153976,,,2017_Sep_25_1429,60.0185188061,FEMA4ImagesEEG,001,201723,
AFSA21.JPG,AFNE23.JPG,AFNE21.JPG,AFSA25.JPG,AFNE25.JPG,AFSA23.JPG,,,,,,,,,,,,,,,,,,,,,0,9,9,4,,,AMNE10.jpg,AMNE05.jpg,AMSA15.jpg,AMSA05.jpg,AMSA15.jpg,MS,2,num_2,16,num_2,0.766840272321,,,2017_Sep_25_1429,60.0185188061,FEMA4ImagesEEG,001,201723,
,,,,,,,,,,,,,,,,,,,,,,,,,,,,,,,,,,,,,,,,,,,space,12.9827368325,2017_Sep_25_1429,60.0185188061,FEMA4ImagesEEG,001,201723,
AFNE01.JPG,AFNE01.JPG,AFNE01.JPG,AFNE01.JPG,AFNE01.JPG,AFNE01.JPG,0,0,0,7,,,,,,,,,,,,,,,,,,,,,,,AFNE12.jpg,AFSA06.jpg,AFNE03.jpg,AFSA14.jpg,AFSA06.jpg,FS,4,num_6,16,num_6,0.533524344472,,,2017_Sep_25_1429,60.0185188061,FEMA4ImagesEEG,001,201723,
AFNE01.JPG,AFNE01.JPG,AFNE01.JPG,AFNE01.JPG,AFNE01.JPG,AFNE01.JPG,0,1,1,9,,,,,,,,,,,,,,,,,,,,,,,AFNE12.jpg,AFSA13.jpg,AFNE17.jpg,AFSA14.jpg,AFNE17.jpg,FN,3,num_2,32,num_4,0.533489383844,,,2017_Sep_25_1429,60.0185188061,FEMA4ImagesEEG,001,201723,
AFNE01.JPG,AFNE01.JPG,AFNE01.JPG,AFNE01.JPG,AFNE01.JPG,AFNE01.JPG,0,2,2,1,,,,,,,,,,,,,,,,,,,,,,,AFNE11.jpg,AFSA06.jpg,AFNE15.jpg,AFSA15.jpg,AFNE11.jpg,FN,3,num_8,32,num_6,0.516792321752,,,2017_Sep_25_1429,60.0185188061,FEMA4ImagesEEG,001,201723,
AFNE01.JPG,AFNE01.JPG,AFNE01.JPG,AFNE01.JPG,AFNE01.JPG,AFNE01.JPG,0,3,3,2,,,,,,,,,,,,,,,,,,,,,,,AFSA17.jpg,AFNE03.jpg,AFNE16.jpg,AFSA07.jpg,AFSA17.jpg,FS,4,num_8,16,num_8,0.566837321501,,,2017_Sep_25_1429,60.0185188061,FEMA4ImagesEEG,001,201723,
AFNE01.JPG,AFNE01.JPG,AFNE01.JPG,AFNE01.JPG,AFNE01.JPG,AFNE01.JPG,0,4,4,8,,,,,,,,,,,,,,,,,,,,,,,AFSA07.jpg,AFNE10.jpg,AFNE16.jpg,AFSA14.jpg,AFNE16.jpg,FN,3,num_2,16,num_2,1.10010956464,,,2017_Sep_25_1429,60.0185188061,FEMA4ImagesEEG,001,201723,
AFNE01.JPG,AFNE01.JPG,AFNE01.JPG,AFNE01.JPG,AFNE01.JPG,AFNE01.JPG,0,5,5,5,,,,,,,,,,,,,,,,,,,,,,,AFSA16.jpg,AFNE10.jpg,AFNE14.jpg,AFSA05.jpg,AFNE10.jpg,FN,3,num_6,16,num_6,0.416812656651,,,2017_Sep_25_1429,60.0185188061,FEMA4ImagesEEG,001,201723,
AFNE01.JPG,AFNE01.JPG,AFNE01.JPG,AFNE01.JPG,AFNE01.JPG,AFNE01.JPG,0,6,6,3,,,,,,,,,,,,,,,,,,,,,,,AFSA08.jpg,AFSA15.jpg,AFNE15.jpg,AFNE06.jpg,AFSA08.jpg,FS,4,num_8,32,num_2,0.467034704663,,,2017_Sep_25_1429,60.0185188061,FEMA4ImagesEEG,001,201723,
AFNE01.JPG,AFNE01.JPG,AFNE01.JPG,AFNE01.JPG,AFNE01.JPG,AFNE01.JPG,0,7,7,4,,,,,,,,,,,,,,,,,,,,,,,AFNE12.jpg,AFNE13.jpg,AFSA01.jpg,AFSA02.jpg,AFSA01.jpg,FS,4,num_2,32,num_6,0.533490987553,,,2017_Sep_25_1429,60.0185188061,FEMA4ImagesEEG,001,201723,
AFNE01.JPG,AFNE01.JPG,AFNE01.JPG,AFNE01.JPG,AFNE01.JPG,AFNE01.JPG,0,8,8,6,,,,,,,,,,,,,,,,,,,,,,,AFNE15.jpg,AFNE05.jpg,AFSA09.jpg,AFSA14.jpg,AFSA14.jpg,FS,4,num_4,32,num_8,0.516792642506,,,2017_Sep_25_1429,60.0185188061,FEMA4ImagesEEG,001,201723,
AFNE01.JPG,AFNE01.JPG,AFNE01.JPG,AFNE01.JPG,AFNE01.JPG,AFNE01.JPG,0,9,9,0,,,,,,,,,,,,,,,,,,,,,,,AFSA09.jpg,AFNE14.jpg,AFNE03.jpg,AFSA01.jpg,AFSA09.jpg,FS,4,num_8,32,num_2,0.916752036865,,,2017_Sep_25_1429,60.0185188061,FEMA4ImagesEEG,001,201723,
AFNE01.JPG,AFNE01.JPG,AFNE01.JPG,AFNE01.JPG,AFNE01.JPG,AFNE01.JPG,1,0,10,0,,,,,,,,,,,,,,,,,,,,,,,AFNE10.jpg,AFSA03.jpg,AFNE16.jpg,AFSA12.jpg,AFSA03.jpg,FS,4,num_6,16,num_6,0.433497851365,,,2017_Sep_25_1429,60.0185188061,FEMA4ImagesEEG,001,201723,
AFNE01.JPG,AFNE01.JPG,AFNE01.JPG,AFNE01.JPG,AFNE01.JPG,AFNE01.JPG,1,1,11,9,,,,,,,,,,,,,,,,,,,,,,,AFNE17.jpg,AFNE10.jpg,AFSA15.jpg,AFSA03.jpg,AFSA15.jpg,FS,4,num_2,16,num_2,0.766855667811,,,2017_Sep_25_1429,60.0185188061,FEMA4ImagesEEG,001,201723,
AFNE01.JPG,AFNE01.JPG,AFNE01.JPG,AFNE01.JPG,AFNE01.JPG,AFNE01.JPG,1,2,12,1,,,,,,,,,,,,,,,,,,,,,,,AFSA02.jpg,AFNE14.jpg,AFSA03.jpg,AFNE02.jpg,AFNE14.jpg,FN,3,num_6,16,num_6,0.466837770538,,,2017_Sep_25_1429,60.0185188061,FEMA4ImagesEEG,001,201723,
AFNE01.JPG,AFNE01.JPG,AFNE01.JPG,AFNE01.JPG,AFNE01.JPG,AFNE01.JPG,1,3,13,8,,,,,,,,,,,,,,,,,,,,,,,AFNE16.jpg,AFSA12.jpg,AFSA16.jpg,AFNE07.jpg,AFSA16.jpg,FS,4,num_2,32,num_8,0.683501539868,,,2017_Sep_25_1429,60.0185188061,FEMA4ImagesEEG,001,201723,
AFNE01.JPG,AFNE01.JPG,AFNE01.JPG,AFNE01.JPG,AFNE01.JPG,AFNE01.JPG,1,4,14,5,,,,,,,,,,,,,,,,,,,,,,,AFNE06.jpg,AFNE14.jpg,AFSA10.jpg,AFSA01.jpg,AFNE06.jpg,FN,3,num_8,32,num_4,0.383493906265,,,2017_Sep_25_1429,60.0185188061,FEMA4ImagesEEG,001,201723,
AFNE01.JPG,AFNE01.JPG,AFNE01.JPG,AFNE01.JPG,AFNE01.JPG,AFNE01.JPG,1,5,15,4,,,,,,,,,,,,,,,,,,,,,,,AFSA17.jpg,AFNE17.jpg,AFSA11.jpg,AFNE09.jpg,AFNE17.jpg,FN,3,num_6,16,num_6,0.650150074071,,,2017_Sep_25_1429,60.0185188061,FEMA4ImagesEEG,001,201723,
AFNE01.JPG,AFNE01.JPG,AFNE01.JPG,AFNE01.JPG,AFNE01.JPG,AFNE01.JPG,1,6,16,2,,,,,,,,,,,,,,,,,,,,,,,AFNE19.jpg,AFSA14.jpg,AFNE08.jpg,AFSA15.jpg,AFSA15.jpg,FS,4,num_4,16,num_4,0.75014930428,,,2017_Sep_25_1429,60.0185188061,FEMA4ImagesEEG,001,201723,
AFNE01.JPG,AFNE01.JPG,AFNE01.JPG,AFNE01.JPG,AFNE01.JPG,AFNE01.JPG,1,7,17,6,,,,,,,,,,,,,,,,,,,,,,,AFNE04.jpg,AFNE11.jpg,AFSA08.jpg,AFSA06.jpg,AFNE11.jpg,FN,3,num_6,16,num_6,0.600134903099,,,2017_Sep_25_1429,60.0185188061,FEMA4ImagesEEG,001,201723,
AFNE01.JPG,AFNE01.JPG,AFNE01.JPG,AFNE01.JPG,AFNE01.JPG,AFNE01.JPG,1,8,18,3,,,,,,,,,,,,,,,,,,,,,,,AFSA09.jpg,AFNE15.jpg,AFSA02.jpg,AFNE10.jpg,AFNE10.jpg,FN,3,num_4,16,num_4,0.550152447511,,,2017_Sep_25_1429,60.0185188061,FEMA4ImagesEEG,001,201723,
AFNE01.JPG,AFNE01.JPG,AFNE01.JPG,AFNE01.JPG,AFNE01.JPG,AFNE01.JPG,1,9,19,7,,,,,,,,,,,,,,,,,,,,,,,AFSA16.jpg,AFSA06.jpg,AFNE20.jpg,AFNE11.jpg,AFSA16.jpg,FS,4,num_8,32,num_6,0.65016546956,,,2017_Sep_25_1429,60.0185188061,FEMA4ImagesEEG,001,201723,
AFNE01.JPG,AFNE01.JPG,AFNE01.JPG,AFNE01.JPG,AFNE01.JPG,AFNE01.JPG,2,0,20,7,,,,,,,,,,,,,,,,,,,,,,,AFSA04.jpg,AFNE10.jpg,AFNE03.jpg,AFSA03.jpg,AFSA04.jpg,FS,4,num_8,32,num_6,0.666777214909,,,2017_Sep_25_1429,60.0185188061,FEMA4ImagesEEG,001,201723,
AFNE01.JPG,AFNE01.JPG,AFNE01.JPG,AFNE01.JPG,AFNE01.JPG,AFNE01.JPG,2,1,21,6,,,,,,,,,,,,,,,,,,,,,,,AFNE04.jpg,AFSA10.jpg,AFSA02.jpg,AFNE09.jpg,AFNE09.jpg,FN,3,num_4,16,num_4,0.450237251061,,,2017_Sep_25_1429,60.0185188061,FEMA4ImagesEEG,001,201723,
AFNE01.JPG,AFNE01.JPG,AFNE01.JPG,AFNE01.JPG,AFNE01.JPG,AFNE01.JPG,2,2,22,8,,,,,,,,,,,,,,,,,,,,,,,AFSA09.jpg,AFNE07.jpg,AFSA01.jpg,AFNE04.jpg,AFSA01.jpg,FS,4,num_2,32,num_8,0.683690776234,,,2017_Sep_25_1429,60.0185188061,FEMA4ImagesEEG,001,201723,
AFNE01.JPG,AFNE01.JPG,AFNE01.JPG,AFNE01.JPG,AFNE01.JPG,AFNE01.JPG,2,3,23,1,,,,,,,,,,,,,,,,,,,,,,,AFNE18.jpg,AFSA01.jpg,AFNE10.jpg,AFSA10.jpg,AFNE10.jpg,FN,3,num_2,16,num_2,0.583477291948,,,2017_Sep_25_1429,60.0185188061,FEMA4ImagesEEG,001,201723,
AFNE01.JPG,AFNE01.JPG,AFNE01.JPG,AFNE01.JPG,AFNE01.JPG,AFNE01.JPG,2,4,24,9,,,,,,,,,,,,,,,,,,,,,,,AFSA17.jpg,AFNE01.jpg,AFSA19.jpg,AFNE18.jpg,AFSA19.jpg,FS,4,num_2,32,num_6,0.55024514129,,,2017_Sep_25_1429,60.0185188061,FEMA4ImagesEEG,001,201723,
AFNE01.JPG,AFNE01.JPG,AFNE01.JPG,AFNE01.JPG,AFNE01.JPG,AFNE01.JPG,2,5,25,2,,,,,,,,,,,,,,,,,,,,,,,AFSA02.jpg,AFNE15.jpg,AFNE07.jpg,AFSA03.jpg,AFSA02.jpg,FS,4,num_8,16,num_8,0.483495702385,,,2017_Sep_25_1429,60.0185188061,FEMA4ImagesEEG,001,201723,
AFNE01.JPG,AFNE01.JPG,AFNE01.JPG,AFNE01.JPG,AFNE01.JPG,AFNE01.JPG,2,6,26,3,,,,,,,,,,,,,,,,,,,,,,,AFSA05.jpg,AFSA14.jpg,AFNE07.jpg,AFNE13.jpg,AFNE13.jpg,FN,3,num_4,32,num_8,0.533585284982,,,2017_Sep_25_1429,60.0185188061,FEMA4ImagesEEG,001,201723,
AFNE01.JPG,AFNE01.JPG,AFNE01.JPG,AFNE01.JPG,AFNE01.JPG,AFNE01.JPG,2,7,27,0,,,,,,,,,,,,,,,,,,,,,,,AFNE04.jpg,AFNE01.jpg,AFSA08.jpg,AFSA09.jpg,AFSA08.jpg,FS,4,num_2,32,num_6,0.516740361927,,,2017_Sep_25_1429,60.0185188061,FEMA4ImagesEEG,001,201723,
AFNE01.JPG,AFNE01.JPG,AFNE01.JPG,AFNE01.JPG,AFNE01.JPG,AFNE01.JPG,2,8,28,5,,,,,,,,,,,,,,,,,,,,,,,AFSA20.jpg,AFNE03.jpg,AFNE08.jpg,AFSA02.jpg,AFSA02.jpg,FS,4,num_4,16,num_4,0.483507249039,,,2017_Sep_25_1429,60.0185188061,FEMA4ImagesEEG,001,201723,
AFNE01.JPG,AFNE01.JPG,AFNE01.JPG,AFNE01.JPG,AFNE01.JPG,AFNE01.JPG,2,9,29,4,,,,,,,,,,,,,,,,,,,,,,,AFNE17.jpg,AFNE04.jpg,AFSA11.jpg,AFSA12.jpg,AFSA12.jpg,FS,4,num_4,32,num_6,0.466845468298,,,2017_Sep_25_1429,60.0185188061,FEMA4ImagesEEG,001,201723,
AFNE01.JPG,AFNE01.JPG,AFNE01.JPG,AFNE01.JPG,AFNE01.JPG,AFNE01.JPG,3,0,30,3,,,,,,,,,,,,,,,,,,,,,,,AFSA04.jpg,AFNE17.jpg,AFSA18.jpg,AFNE02.jpg,AFNE02.jpg,FN,3,num_4,32,num_8,0.683194271347,,,2017_Sep_25_1429,60.0185188061,FEMA4ImagesEEG,001,201723,
AFNE01.JPG,AFNE01.JPG,AFNE01.JPG,AFNE01.JPG,AFNE01.JPG,AFNE01.JPG,3,1,31,4,,,,,,,,,,,,,,,,,,,,,,,AFSA14.jpg,AFNE15.jpg,AFSA17.jpg,AFNE08.jpg,AFSA14.jpg,FS,4,num_8,16,num_8,0.716672750015,,,2017_Sep_25_1429,60.0185188061,FEMA4ImagesEEG,001,201723,
AFNE01.JPG,AFNE01.JPG,AFNE01.JPG,AFNE01.JPG,AFNE01.JPG,AFNE01.JPG,3,2,32,6,,,,,,,,,,,,,,,,,,,,,,,AFNE16.jpg,AFSA08.jpg,AFNE11.jpg,AFSA11.jpg,AFNE11.jpg,FN,3,num_2,16,num_2,0.516835300863,,,2017_Sep_25_1429,60.0185188061,FEMA4ImagesEEG,001,201723,
AFNE01.JPG,AFNE01.JPG,AFNE01.JPG,AFNE01.JPG,AFNE01.JPG,AFNE01.JPG,3,3,33,9,,,,,,,,,,,,,,,,,,,,,,,AFNE13.jpg,AFSA07.jpg,AFSA17.jpg,AFNE16.jpg,AFSA07.jpg,FS,4,num_6,16,num_6,0.55016271121,,,2017_Sep_25_1429,60.0185188061,FEMA4ImagesEEG,001,201723,
AFNE01.JPG,AFNE01.JPG,AFNE01.JPG,AFNE01.JPG,AFNE01.JPG,AFNE01.JPG,3,4,34,5,,,,,,,,,,,,,,,,,,,,,,,AFSA07.jpg,AFNE05.jpg,AFSA14.jpg,AFNE07.jpg,AFSA07.jpg,FS,4,num_8,32,num_2,0.700125794072,,,2017_Sep_25_1429,60.0185188061,FEMA4ImagesEEG,001,201723,
AFNE01.JPG,AFNE01.JPG,AFNE01.JPG,AFNE01.JPG,AFNE01.JPG,AFNE01.JPG,3,5,35,0,,,,,,,,,,,,,,,,,,,,,,,AFSA07.jpg,AFNE18.jpg,AFNE17.jpg,AFSA10.jpg,AFNE17.jpg,FN,3,num_2,32,num_4,0.600131374958,,,2017_Sep_25_1429,60.0185188061,FEMA4ImagesEEG,001,201723,
AFNE01.JPG,AFNE01.JPG,AFNE01.JPG,AFNE01.JPG,AFNE01.JPG,AFNE01.JPG,3,6,36,1,,,,,,,,,,,,,,,,,,,,,,,AFNE07.jpg,AFSA04.jpg,AFNE06.jpg,AFSA20.jpg,AFNE07.jpg,FN,3,num_8,16,num_8,0.466818846908,,,2017_Sep_25_1429,60.0185188061,FEMA4ImagesEEG,001,201723,
AFNE01.JPG,AFNE01.JPG,AFNE01.JPG,AFNE01.JPG,AFNE01.JPG,AFNE01.JPG,3,7,37,8,,,,,,,,,,,,,,,,,,,,,,,AFSA02.jpg,AFNE07.jpg,AFSA04.jpg,AFNE16.jpg,AFNE07.jpg,FN,3,num_6,16,num_6,0.46679767812,,,2017_Sep_25_1429,60.0185188061,FEMA4ImagesEEG,001,201723,
AFNE01.JPG,AFNE01.JPG,AFNE01.JPG,AFNE01.JPG,AFNE01.JPG,AFNE01.JPG,3,8,38,2,,,,,,,,,,,,,,,,,,,,,,,AFNE12.jpg,AFSA01.jpg,AFSA12.jpg,AFNE10.jpg,AFNE12.jpg,FN,3,num_8,16,num_8,0.516783661762,,,2017_Sep_25_1429,60.0185188061,FEMA4ImagesEEG,001,201723,
AFNE01.JPG,AFNE01.JPG,AFNE01.JPG,AFNE01.JPG,AFNE01.JPG,AFNE01.JPG,3,9,39,7,,,,,,,,,,,,,,,,,,,,,,,AFNE16.jpg,AFNE04.jpg,AFSA07.jpg,AFSA20.jpg,AFNE16.jpg,FN,3,num_8,32,num_4,0.466789338854,,,2017_Sep_25_1429,60.0185188061,FEMA4ImagesEEG,001,201723,
AFNE01.JPG,AFNE01.JPG,AFNE01.JPG,AFNE01.JPG,AFNE01.JPG,AFNE01.JPG,4,0,40,4,,,,,,,,,,,,,,,,,,,,,,,AFNE08.jpg,AFNE09.jpg,AFSA13.jpg,AFSA12.jpg,AFNE09.jpg,FN,3,num_6,16,num_6,0.750129739143,,,2017_Sep_25_1429,60.0185188061,FEMA4ImagesEEG,001,201723,
AFNE01.JPG,AFNE01.JPG,AFNE01.JPG,AFNE01.JPG,AFNE01.JPG,AFNE01.JPG,4,1,41,5,,,,,,,,,,,,,,,,,,,,,,,AFNE16.jpg,AFSA12.jpg,AFNE13.jpg,AFSA06.jpg,AFSA06.jpg,FS,4,num_4,16,num_4,0.500145295053,,,2017_Sep_25_1429,60.0185188061,FEMA4ImagesEEG,001,201723,
AFNE01.JPG,AFNE01.JPG,AFNE01.JPG,AFNE01.JPG,AFNE01.JPG,AFNE01.JPG,4,2,42,3,,,,,,,,,,,,,,,,,,,,,,,AFNE03.jpg,AFNE15.jpg,AFSA09.jpg,AFSA04.jpg,AFNE15.jpg,FN,3,num_6,16,num_6,0.45014968919,,,2017_Sep_25_1429,60.0185188061,FEMA4ImagesEEG,001,201723,
AFNE01.JPG,AFNE01.JPG,AFNE01.JPG,AFNE01.JPG,AFNE01.JPG,AFNE01.JPG,4,3,43,0,,,,,,,,,,,,,,,,,,,,,,,AFNE20.jpg,AFNE02.jpg,AFSA15.jpg,AFSA05.jpg,AFSA15.jpg,FS,4,num_2,16,num_2,0.433476041071,,,2017_Sep_25_1429,60.0185188061,FEMA4ImagesEEG,001,201723,
AFNE01.JPG,AFNE01.JPG,AFNE01.JPG,AFNE01.JPG,AFNE01.JPG,AFNE01.JPG,4,4,44,9,,,,,,,,,,,,,,,,,,,,,,,AFNE04.jpg,AFNE05.jpg,AFSA18.jpg,AFSA09.jpg,AFSA18.jpg,FS,4,num_2,32,num_6,0.616762043937,,,2017_Sep_25_1429,60.0185188061,FEMA4ImagesEEG,001,201723,
AFNE01.JPG,AFNE01.JPG,AFNE01.JPG,AFNE01.JPG,AFNE01.JPG,AFNE01.JPG,4,5,45,2,,,,,,,,,,,,,,,,,,,,,,,AFSA02.jpg,AFNE05.jpg,AFSA18.jpg,AFNE17.jpg,AFSA02.jpg,FS,4,num_8,32,num_6,0.416867182386,,,2017_Sep_25_1429,60.0185188061,FEMA4ImagesEEG,001,201723,
AFNE01.JPG,AFNE01.JPG,AFNE01.JPG,AFNE01.JPG,AFNE01.JPG,AFNE01.JPG,4,6,46,8,,,,,,,,,,,,,,,,,,,,,,,AFNE15.jpg,AFSA04.jpg,AFSA08.jpg,AFNE10.jpg,AFSA08.jpg,FS,4,num_2,32,num_6,0.400172365451,,,2017_Sep_25_1429,60.0185188061,FEMA4ImagesEEG,001,201723,
AFNE01.JPG,AFNE01.JPG,AFNE01.JPG,AFNE01.JPG,AFNE01.JPG,AFNE01.JPG,4,7,47,1,,,,,,,,,,,,,,,,,,,,,,,AFNE18.jpg,AFNE08.jpg,AFSA11.jpg,AFSA05.jpg,AFNE08.jpg,FN,3,num_6,16,num_6,0.583488197095,,,2017_Sep_25_1429,60.0185188061,FEMA4ImagesEEG,001,201723,
AFNE01.JPG,AFNE01.JPG,AFNE01.JPG,AFNE01.JPG,AFNE01.JPG,AFNE01.JPG,4,8,48,7,,,,,,,,,,,,,,,,,,,,,,,AFSA16.jpg,AFSA15.jpg,AFNE16.jpg,AFNE04.jpg,AFSA16.jpg,FS,4,num_8,32,num_2,0.715669797297,,,2017_Sep_25_1429,60.0185188061,FEMA4ImagesEEG,001,201723,
AFNE01.JPG,AFNE01.JPG,AFNE01.JPG,AFNE01.JPG,AFNE01.JPG,AFNE01.JPG,4,9,49,6,,,,,,,,,,,,,,,,,,,,,,,AFSA02.jpg,AFNE03.jpg,AFNE12.jpg,AFSA18.jpg,AFSA02.jpg,FS,4,num_8,32,num_4,0.516812207585,,,2017_Sep_25_1429,60.0185188061,FEMA4ImagesEEG,001,201723,
AFNE01.JPG,AFNE01.JPG,AFNE01.JPG,AFNE01.JPG,AFNE01.JPG,AFNE01.JPG,5,0,50,9,,,,,,,,,,,,,,,,,,,,,,,AFSA13.jpg,AFNE03.jpg,AFSA06.jpg,AFNE05.jpg,AFNE05.jpg,FN,3,num_4,16,num_4,0.466785489989,,,2017_Sep_25_1429,60.0185188061,FEMA4ImagesEEG,001,201723,
AFNE01.JPG,AFNE01.JPG,AFNE01.JPG,AFNE01.JPG,AFNE01.JPG,AFNE01.JPG,5,1,51,5,,,,,,,,,,,,,,,,,,,,,,,AFSA07.jpg,AFNE03.jpg,AFSA08.jpg,AFNE18.jpg,AFNE03.jpg,FN,3,num_6,16,num_6,0.533480082406,,,2017_Sep_25_1429,60.0185188061,FEMA4ImagesEEG,001,201723,
AFNE01.JPG,AFNE01.JPG,AFNE01.JPG,AFNE01.JPG,AFNE01.JPG,AFNE01.JPG,5,2,52,4,,,,,,,,,,,,,,,,,,,,,,,AFSA14.jpg,AFSA18.jpg,AFNE18.jpg,AFNE07.jpg,AFNE18.jpg,FN,3,num_2,32,num_4,0.783426037757,,,2017_Sep_25_1429,60.0185188061,FEMA4ImagesEEG,001,201723,
AFNE01.JPG,AFNE01.JPG,AFNE01.JPG,AFNE01.JPG,AFNE01.JPG,AFNE01.JPG,5,3,53,3,,,,,,,,,,,,,,,,,,,,,,,AFNE17.jpg,AFNE09.jpg,AFSA17.jpg,AFSA09.jpg,AFSA17.jpg,FS,4,num_2,32,num_8,0.833422605851,,,2017_Sep_25_1429,60.0185188061,FEMA4ImagesEEG,001,201723,
AFNE01.JPG,AFNE01.JPG,AFNE01.JPG,AFNE01.JPG,AFNE01.JPG,AFNE01.JPG,5,4,54,0,,,,,,,,,,,,,,,,,,,,,,,AFSA13.jpg,AFNE12.jpg,AFNE07.jpg,AFSA05.jpg,AFSA05.jpg,FS,4,num_4,16,num_4,0.700136699219,,,2017_Sep_25_1429,60.0185188061,FEMA4ImagesEEG,001,201723,
AFNE01.JPG,AFNE01.JPG,AFNE01.JPG,AFNE01.JPG,AFNE01.JPG,AFNE01.JPG,5,5,55,2,,,,,,,,,,,,,,,,,,,,,,,AFSA19.jpg,AFNE11.jpg,AFNE12.jpg,AFSA12.jpg,AFNE11.jpg,FN,3,num_6,16,num_6,0.516814773524,,,2017_Sep_25_1429,60.0185188061,FEMA4ImagesEEG,001,201723,
AFNE01.JPG,AFNE01.JPG,AFNE01.JPG,AFNE01.JPG,AFNE01.JPG,AFNE01.JPG,5,6,56,6,,,,,,,,,,,,,,,,,,,,,,,AFNE08.jpg,AFSA08.jpg,AFNE12.jpg,AFSA07.jpg,AFNE12.jpg,FN,3,num_2,32,num_4,0.700129322184,,,2017_Sep_25_1429,60.0185188061,FEMA4ImagesEEG,001,201723,
AFNE01.JPG,AFNE01.JPG,AFNE01.JPG,AFNE01.JPG,AFNE01.JPG,AFNE01.JPG,5,7,57,8,,,,,,,,,,,,,,,,,,,,,,,AFNE02.jpg,AFSA07.jpg,AFNE14.jpg,AFSA05.jpg,AFSA07.jpg,FS,4,num_6,32,num_2,0.533482648316,,,2017_Sep_25_1429,60.0185188061,FEMA4ImagesEEG,001,201723,
AFNE01.JPG,AFNE01.JPG,AFNE01.JPG,AFNE01.JPG,AFNE01.JPG,AFNE01.JPG,5,8,58,7,,,,,,,,,,,,,,,,,,,,,,,AFSA17.jpg,AFNE12.jpg,AFSA02.jpg,AFNE10.jpg,AFSA02.jpg,FS,4,num_2,16,num_2,0.950107672281,,,2017_Sep_25_1429,60.0185188061,FEMA4ImagesEEG,001,201723,
AFNE01.JPG,AFNE01.JPG,AFNE01.JPG,AFNE01.JPG,AFNE01.JPG,AFNE01.JPG,5,9,59,1,,,,,,,,,,,,,,,,,,,,,,,AFNE03.jpg,AFSA06.jpg,AFNE02.jpg,AFSA07.jpg,AFSA07.jpg,FS,4,num_4,16,num_4,0.466770415253,,,2017_Sep_25_1429,60.0185188061,FEMA4ImagesEEG,001,201723,
,,,,,,,,,,,,,,,,,,,,,,,,,,,,,,,,,,,,,,,,,,,space,2.51671502349,2017_Sep_25_1429,60.0185188061,FEMA4ImagesEEG,001,201723,
AFNE01.JPG,AFNE01.JPG,AFNE01.JPG,AFNE01.JPG,AFNE01.JPG,AFNE01.JPG,,,,,0,0,0,5,,,,,,,,,,,,,,,,,,,AMSA14.jpg,AMSA02.jpg,AMNE18.jpg,AMNE15.jpg,AMSA14.jpg,MS,2,num_8,32,num_6,0.716796876251,,,2017_Sep_25_1429,60.0185188061,FEMA4ImagesEEG,001,201723,
AFNE01.JPG,AFNE01.JPG,AFNE01.JPG,AFNE01.JPG,AFNE01.JPG,AFNE01.JPG,,,,,0,1,1,0,,,,,,,,,,,,,,,,,,,AMSA11.jpg,AMSA08.jpg,AMNE05.jpg,AMNE04.jpg,AMSA11.jpg,MS,2,num_8,16,num_8,0.566819039348,,,2017_Sep_25_1429,60.0185188061,FEMA4ImagesEEG,001,201723,
AFNE01.JPG,AFNE01.JPG,AFNE01.JPG,AFNE01.JPG,AFNE01.JPG,AFNE01.JPG,,,,,0,2,2,2,,,,,,,,,,,,,,,,,,,AMNE17.jpg,AMSA20.jpg,AMNE10.jpg,AMSA10.jpg,AMNE10.jpg,MN,1,num_2,16,num_2,0.433511643176,,,2017_Sep_25_1429,60.0185188061,FEMA4ImagesEEG,001,201723,
AFNE01.JPG,AFNE01.JPG,AFNE01.JPG,AFNE01.JPG,AFNE01.JPG,AFNE01.JPG,,,,,0,3,3,3,,,,,,,,,,,,,,,,,,,AMNE01.jpg,AMSA07.jpg,AMSA15.jpg,AMNE10.jpg,AMNE10.jpg,MN,1,num_4,16,num_4,0.483625601948,,,2017_Sep_25_1429,60.0185188061,FEMA4ImagesEEG,001,201723,
AFNE01.JPG,AFNE01.JPG,AFNE01.JPG,AFNE01.JPG,AFNE01.JPG,AFNE01.JPG,,,,,0,4,4,9,,,,,,,,,,,,,,,,,,,AMNE01.jpg,AMNE03.jpg,AMSA06.jpg,AMSA01.jpg,AMNE03.jpg,MN,1,num_6,32,num_4,0.600153185223,,,2017_Sep_25_1429,60.0185188061,FEMA4ImagesEEG,001,201723,
AFNE01.JPG,AFNE01.JPG,AFNE01.JPG,AFNE01.JPG,AFNE01.JPG,AFNE01.JPG,,,,,0,5,5,1,,,,,,,,,,,,,,,,,,,AMSA06.jpg,AMSA13.jpg,AMNE17.jpg,AMNE14.jpg,AMNE17.jpg,MN,1,num_2,32,num_6,0.883431682771,,,2017_Sep_25_1429,60.0185188061,FEMA4ImagesEEG,001,201723,
AFNE01.JPG,AFNE01.JPG,AFNE01.JPG,AFNE01.JPG,AFNE01.JPG,AFNE01.JPG,,,,,0,6,6,6,,,,,,,,,,,,,,,,,,,AMSA01.jpg,AMSA15.jpg,AMNE14.jpg,AMNE03.jpg,AMSA15.jpg,MS,2,num_6,16,num_6,0.483510456426,,,2017_Sep_25_1429,60.0185188061,FEMA4ImagesEEG,001,201723,
AFNE01.JPG,AFNE01.JPG,AFNE01.JPG,AFNE01.JPG,AFNE01.JPG,AFNE01.JPG,,,,,0,7,7,7,,,,,,,,,,,,,,,,,,,AMNE14.jpg,AMNE04.jpg,AMSA18.jpg,AMSA08.jpg,AMSA08.jpg,MS,2,num_4,16,num_4,0.61682747482,,,2017_Sep_25_1429,60.0185188061,FEMA4ImagesEEG,001,201723,
AFNE01.JPG,AFNE01.JPG,AFNE01.JPG,AFNE01.JPG,AFNE01.JPG,AFNE01.JPG,,,,,0,8,8,8,,,,,,,,,,,,,,,,,,,AMNE18.jpg,AMNE16.jpg,AMSA09.jpg,AMSA01.jpg,AMNE18.jpg,MN,1,num_8,32,num_2,1.11674376176,,,2017_Sep_25_1429,60.0185188061,FEMA4ImagesEEG,001,201723,
AFNE01.JPG,AFNE01.JPG,AFNE01.JPG,AFNE01.JPG,AFNE01.JPG,AFNE01.JPG,,,,,0,9,9,4,,,,,,,,,,,,,,,,,,,AMNE20.jpg,AMSA03.jpg,AMSA07.jpg,AMNE12.jpg,AMNE20.jpg,MN,1,num_8,32,num_4,0.650000930153,,,2017_Sep_25_1429,60.0185188061,FEMA4ImagesEEG,001,201723,
AFNE01.JPG,AFNE01.JPG,AFNE01.JPG,AFNE01.JPG,AFNE01.JPG,AFNE01.JPG,,,,,1,0,10,6,,,,,,,,,,,,,,,,,,,AMNE01.jpg,AMNE03.jpg,AMSA15.jpg,AMSA16.jpg,AMSA16.jpg,MS,2,num_4,32,num_2,0.950221214094,,,2017_Sep_25_1429,60.0185188061,FEMA4ImagesEEG,001,201723,
AFNE01.JPG,AFNE01.JPG,AFNE01.JPG,AFNE01.JPG,AFNE01.JPG,AFNE01.JPG,,,,,1,1,11,1,,,,,,,,,,,,,,,,,,,AMSA09.jpg,AMNE18.jpg,AMNE17.jpg,AMSA02.jpg,AMSA02.jpg,MS,2,num_4,16,num_4,0.533725127461,,,2017_Sep_25_1429,60.0185188061,FEMA4ImagesEEG,001,201723,
AFNE01.JPG,AFNE01.JPG,AFNE01.JPG,AFNE01.JPG,AFNE01.JPG,AFNE01.JPG,,,,,1,2,12,2,,,,,,,,,,,,,,,,,,,AMSA07.jpg,AMNE16.jpg,AMSA09.jpg,AMNE14.jpg,AMNE14.jpg,MN,1,num_4,16,num_4,0.466907371039,,,2017_Sep_25_1429,60.0185188061,FEMA4ImagesEEG,001,201723,
AFNE01.JPG,AFNE01.JPG,AFNE01.JPG,AFNE01.JPG,AFNE01.JPG,AFNE01.JPG,,,,,1,3,13,5,,,,,,,,,,,,,,,,,,,AMSA14.jpg,AMNE06.jpg,AMNE03.jpg,AMSA01.jpg,AMNE03.jpg,MN,1,num_2,32,num_6,1.00014048393,,,2017_Sep_25_1429,60.0185188061,FEMA4ImagesEEG,001,201723,
AFNE01.JPG,AFNE01.JPG,AFNE01.JPG,AFNE01.JPG,AFNE01.JPG,AFNE01.JPG,,,,,1,4,14,7,,,,,,,,,,,,,,,,,,,AMSA19.jpg,AMNE14.jpg,AMSA12.jpg,AMNE04.jpg,AMSA19.jpg,MS,2,num_8,32,num_2,0.766767785157,,,2017_Sep_25_1429,60.0185188061,FEMA4ImagesEEG,001,201723,
AFNE01.JPG,AFNE01.JPG,AFNE01.JPG,AFNE01.JPG,AFNE01.JPG,AFNE01.JPG,,,,,1,5,15,9,,,,,,,,,,,,,,,,,,,AMSA08.jpg,AMNE16.jpg,AMNE20.jpg,AMSA20.jpg,AMSA08.jpg,MS,2,num_8,32,num_4,0.533719995612,,,2017_Sep_25_1429,60.0185188061,FEMA4ImagesEEG,001,201723,
AFNE01.JPG,AFNE01.JPG,AFNE01.JPG,AFNE01.JPG,AFNE01.JPG,AFNE01.JPG,,,,,1,6,16,8,,,,,,,,,,,,,,,,,,,AMSA18.jpg,AMSA14.jpg,AMNE03.jpg,AMNE10.jpg,AMSA14.jpg,MS,2,num_6,32,num_2,0.683444768976,,,2017_Sep_25_1429,60.0185188061,FEMA4ImagesEEG,001,201723,
AFNE01.JPG,AFNE01.JPG,AFNE01.JPG,AFNE01.JPG,AFNE01.JPG,AFNE01.JPG,,,,,1,7,17,3,,,,,,,,,,,,,,,,,,,AMNE18.jpg,AMNE13.jpg,AMSA04.jpg,AMSA11.jpg,AMNE13.jpg,MN,1,num_6,16,num_6,0.600129771221,,,2017_Sep_25_1429,60.0185188061,FEMA4ImagesEEG,001,201723,
AFNE01.JPG,AFNE01.JPG,AFNE01.JPG,AFNE01.JPG,AFNE01.JPG,AFNE01.JPG,,,,,1,8,18,0,,,,,,,,,,,,,,,,,,,AMNE02.jpg,AMNE06.jpg,AMSA14.jpg,AMSA02.jpg,AMNE06.jpg,MN,1,num_6,16,num_6,0.883441625687,,,2017_Sep_25_1429,60.0185188061,FEMA4ImagesEEG,001,201723,
AFNE01.JPG,AFNE01.JPG,AFNE01.JPG,AFNE01.JPG,AFNE01.JPG,AFNE01.JPG,,,,,1,9,19,4,,,,,,,,,,,,,,,,,,,AMNE02.jpg,AMSA01.jpg,AMNE06.jpg,AMSA08.jpg,AMSA08.jpg,MS,2,num_4,16,num_4,0.666788440809,,,2017_Sep_25_1429,60.0185188061,FEMA4ImagesEEG,001,201723,
AFNE01.JPG,AFNE01.JPG,AFNE01.JPG,AFNE01.JPG,AFNE01.JPG,AFNE01.JPG,,,,,2,0,20,0,,,,,,,,,,,,,,,,,,,AMNE05.jpg,AMNE04.jpg,AMSA10.jpg,AMSA09.jpg,AMSA10.jpg,MS,2,num_2,16,num_2,0.66678427119,,,2017_Sep_25_1429,60.0185188061,FEMA4ImagesEEG,001,201723,
AFNE01.JPG,AFNE01.JPG,AFNE01.JPG,AFNE01.JPG,AFNE01.JPG,AFNE01.JPG,,,,,2,1,21,7,,,,,,,,,,,,,,,,,,,AMSA10.jpg,AMSA07.jpg,AMNE05.jpg,AMNE14.jpg,AMSA07.jpg,MS,2,num_6,32,num_8,0.766757200763,,,2017_Sep_25_1429,60.0185188061,FEMA4ImagesEEG,001,201723,
AFNE01.JPG,AFNE01.JPG,AFNE01.JPG,AFNE01.JPG,AFNE01.JPG,AFNE01.JPG,,,,,2,2,22,2,,,,,,,,,,,,,,,,,,,AMSA06.jpg,AMNE09.jpg,AMSA14.jpg,AMNE19.jpg,AMSA14.jpg,MS,2,num_2,32,num_8,0.716776669666,,,2017_Sep_25_1429,60.0185188061,FEMA4ImagesEEG,001,201723,
AFNE01.JPG,AFNE01.JPG,AFNE01.JPG,AFNE01.JPG,AFNE01.JPG,AFNE01.JPG,,,,,2,3,23,6,,,,,,,,,,,,,,,,,,,AMNE14.jpg,AMSA02.jpg,AMSA19.jpg,AMNE16.jpg,AMSA19.jpg,MS,2,num_2,32,num_4,0.800144910143,,,2017_Sep_25_1429,60.0185188061,FEMA4ImagesEEG,001,201723,
AFNE01.JPG,AFNE01.JPG,AFNE01.JPG,AFNE01.JPG,AFNE01.JPG,AFNE01.JPG,,,,,2,4,24,3,,,,,,,,,,,,,,,,,,,AMNE01.jpg,AMSA19.jpg,AMSA16.jpg,AMNE11.jpg,AMNE11.jpg,MN,1,num_4,32,num_6,0.700119700021,,,2017_Sep_25_1429,60.0185188061,FEMA4ImagesEEG,001,201723,
AFNE01.JPG,AFNE01.JPG,AFNE01.JPG,AFNE01.JPG,AFNE01.JPG,AFNE01.JPG,,,,,2,5,25,9,,,,,,,,,,,,,,,,,,,AMNE15.jpg,AMSA16.jpg,AMNE20.jpg,AMSA11.jpg,AMSA11.jpg,MS,2,num_4,16,num_4,0.583467349032,,,2017_Sep_25_1429,60.0185188061,FEMA4ImagesEEG,001,201723,
AFNE01.JPG,AFNE01.JPG,AFNE01.JPG,AFNE01.JPG,AFNE01.JPG,AFNE01.JPG,,,,,2,6,26,1,,,,,,,,,,,,,,,,,,,AMNE20.jpg,AMNE03.jpg,AMSA07.jpg,AMSA18.jpg,AMSA07.jpg,MS,2,num_2,32,num_8,0.600167618511,,,2017_Sep_25_1429,60.0185188061,FEMA4ImagesEEG,001,201723,
AFNE01.JPG,AFNE01.JPG,AFNE01.JPG,AFNE01.JPG,AFNE01.JPG,AFNE01.JPG,,,,,2,7,27,8,,,,,,,,,,,,,,,,,,,AMSA03.jpg,AMNE14.jpg,AMSA07.jpg,AMNE20.jpg,AMSA03.jpg,MS,2,num_8,32,num_6,0.383487170737,,,2017_Sep_25_1429,60.0185188061,FEMA4ImagesEEG,001,201723,
AFNE01.JPG,AFNE01.JPG,AFNE01.JPG,AFNE01.JPG,AFNE01.JPG,AFNE01.JPG,,,,,2,8,28,4,,,,,,,,,,,,,,,,,,,AMNE11.jpg,AMSA15.jpg,AMNE05.jpg,AMSA18.jpg,AMSA18.jpg,MS,2,num_4,16,num_4,0.650027872296,,,2017_Sep_25_1429,60.0185188061,FEMA4ImagesEEG,001,201723,
AFNE01.JPG,AFNE01.JPG,AFNE01.JPG,AFNE01.JPG,AFNE01.JPG,AFNE01.JPG,,,,,2,9,29,5,,,,,,,,,,,,,,,,,,,AMNE02.jpg,AMNE14.jpg,AMSA02.jpg,AMSA08.jpg,AMSA02.jpg,MS,2,num_2,32,num_8,0.600126243109,,,2017_Sep_25_1429,60.0185188061,FEMA4ImagesEEG,001,201723,
AFNE01.JPG,AFNE01.JPG,AFNE01.JPG,AFNE01.JPG,AFNE01.JPG,AFNE01.JPG,,,,,3,0,30,3,,,,,,,,,,,,,,,,,,,AMSA03.jpg,AMNE10.jpg,AMNE02.jpg,AMSA16.jpg,AMNE02.jpg,MN,1,num_2,16,num_2,0.41664779649,,,2017_Sep_25_1429,60.0185188061,FEMA4ImagesEEG,001,201723,
AFNE01.JPG,AFNE01.JPG,AFNE01.JPG,AFNE01.JPG,AFNE01.JPG,AFNE01.JPG,,,,,3,1,31,2,,,,,,,,,,,,,,,,,,,AMSA10.jpg,AMSA09.jpg,AMNE06.jpg,AMNE09.jpg,AMSA10.jpg,MS,2,num_8,32,num_6,0.783490185684,,,2017_Sep_25_1429,60.0185188061,FEMA4ImagesEEG,001,201723,
AFNE01.JPG,AFNE01.JPG,AFNE01.JPG,AFNE01.JPG,AFNE01.JPG,AFNE01.JPG,,,,,3,2,32,0,,,,,,,,,,,,,,,,,,,AMSA16.jpg,AMNE18.jpg,AMNE03.jpg,AMSA15.jpg,AMSA16.jpg,MS,2,num_8,16,num_8,0.416813618853,,,2017_Sep_25_1429,60.0185188061,FEMA4ImagesEEG,001,201723,
AFNE01.JPG,AFNE01.JPG,AFNE01.JPG,AFNE01.JPG,AFNE01.JPG,AFNE01.JPG,,,,,3,3,33,9,,,,,,,,,,,,,,,,,,,AMNE06.jpg,AMSA06.jpg,AMNE18.jpg,AMSA07.jpg,AMSA07.jpg,MS,2,num_4,32,num_6,0.816995285772,,,2017_Sep_25_1429,60.0185188061,FEMA4ImagesEEG,001,201723,
AFNE01.JPG,AFNE01.JPG,AFNE01.JPG,AFNE01.JPG,AFNE01.JPG,AFNE01.JPG,,,,,3,4,34,4,,,,,,,,,,,,,,,,,,,AMNE10.jpg,AMNE07.jpg,AMSA13.jpg,AMSA11.jpg,AMNE07.jpg,MN,1,num_6,16,num_6,0.616759477998,,,2017_Sep_25_1429,60.0185188061,FEMA4ImagesEEG,001,201723,
AFNE01.JPG,AFNE01.JPG,AFNE01.JPG,AFNE01.JPG,AFNE01.JPG,AFNE01.JPG,,,,,3,5,35,6,,,,,,,,,,,,,,,,,,,AMNE04.jpg,AMSA14.jpg,AMNE05.jpg,AMSA19.jpg,AMSA19.jpg,MS,2,num_4,32,num_2,0.416761979781,,,2017_Sep_25_1429,60.0185188061,FEMA4ImagesEEG,001,201723,
AFNE01.JPG,AFNE01.JPG,AFNE01.JPG,AFNE01.JPG,AFNE01.JPG,AFNE01.JPG,,,,,3,6,36,8,,,,,,,,,,,,,,,,,,,AMNE07.jpg,AMSA19.jpg,AMNE16.jpg,AMSA15.jpg,AMNE16.jpg,MN,1,num_2,32,num_6,0.516826320149,,,2017_Sep_25_1429,60.0185188061,FEMA4ImagesEEG,001,201723,
AFNE01.JPG,AFNE01.JPG,AFNE01.JPG,AFNE01.JPG,AFNE01.JPG,AFNE01.JPG,,,,,3,7,37,1,,,,,,,,,,,,,,,,,,,AMSA19.jpg,AMNE11.jpg,AMSA17.jpg,AMNE06.jpg,AMSA17.jpg,MS,2,num_2,32,num_6,0.550152126787,,,2017_Sep_25_1429,60.0185188061,FEMA4ImagesEEG,001,201723,
AFNE01.JPG,AFNE01.JPG,AFNE01.JPG,AFNE01.JPG,AFNE01.JPG,AFNE01.JPG,,,,,3,8,38,5,,,,,,,,,,,,,,,,,,,AMNE14.jpg,AMSA07.jpg,AMSA16.jpg,AMNE02.jpg,AMSA16.jpg,MS,2,num_2,16,num_2,0.566898262041,,,2017_Sep_25_1429,60.0185188061,FEMA4ImagesEEG,001,201723,
AFNE01.JPG,AFNE01.JPG,AFNE01.JPG,AFNE01.JPG,AFNE01.JPG,AFNE01.JPG,,,,,3,9,39,7,,,,,,,,,,,,,,,,,,,AMNE15.jpg,AMSA19.jpg,AMNE17.jpg,AMSA03.jpg,AMNE17.jpg,MN,1,num_2,32,num_6,0.666780422296,,,2017_Sep_25_1429,60.0185188061,FEMA4ImagesEEG,001,201723,
AFNE01.JPG,AFNE01.JPG,AFNE01.JPG,AFNE01.JPG,AFNE01.JPG,AFNE01.JPG,,,,,4,0,40,1,,,,,,,,,,,,,,,,,,,AMNE03.jpg,AMNE10.jpg,AMSA18.jpg,AMSA10.jpg,AMNE10.jpg,MN,1,num_6,16,num_6,0.716784046672,,,2017_Sep_25_1429,60.0185188061,FEMA4ImagesEEG,001,201723,
AFNE01.JPG,AFNE01.JPG,AFNE01.JPG,AFNE01.JPG,AFNE01.JPG,AFNE01.JPG,,,,,4,1,41,7,,,,,,,,,,,,,,,,,,,AMSA13.jpg,AMNE20.jpg,AMNE02.jpg,AMSA11.jpg,AMSA13.jpg,MS,2,num_8,32,num_6,0.916739528038,,,2017_Sep_25_1429,60.0185188061,FEMA4ImagesEEG,001,201723,
AFNE01.JPG,AFNE01.JPG,AFNE01.JPG,AFNE01.JPG,AFNE01.JPG,AFNE01.JPG,,,,,4,2,42,2,,,,,,,,,,,,,,,,,,,AMNE12.jpg,AMSA11.jpg,AMSA02.jpg,AMNE10.jpg,AMNE10.jpg,MN,1,num_4,32,num_6,0.666782988235,,,2017_Sep_25_1429,60.0185188061,FEMA4ImagesEEG,001,201723,
AFNE01.JPG,AFNE01.JPG,AFNE01.JPG,AFNE01.JPG,AFNE01.JPG,AFNE01.JPG,,,,,4,3,43,5,,,,,,,,,,,,,,,,,,,AMNE04.jpg,AMSA17.jpg,AMNE05.jpg,AMSA01.jpg,AMNE05.jpg,MN,1,num_2,32,num_6,0.700144396978,,,2017_Sep_25_1429,60.0185188061,FEMA4ImagesEEG,001,201723,
AFNE01.JPG,AFNE01.JPG,AFNE01.JPG,AFNE01.JPG,AFNE01.JPG,AFNE01.JPG,,,,,4,4,44,9,,,,,,,,,,,,,,,,,,,AMNE09.jpg,AMSA09.jpg,AMNE08.jpg,AMSA15.jpg,AMSA15.jpg,MS,2,num_4,16,num_4,0.450207743037,,,2017_Sep_25_1429,60.0185188061,FEMA4ImagesEEG,001,201723,
AFNE01.JPG,AFNE01.JPG,AFNE01.JPG,AFNE01.JPG,AFNE01.JPG,AFNE01.JPG,,,,,4,5,45,6,,,,,,,,,,,,,,,,,,,AMSA16.jpg,AMNE08.jpg,AMNE11.jpg,AMSA15.jpg,AMNE08.jpg,MN,1,num_6,32,num_2,0.566800757224,,,2017_Sep_25_1429,60.0185188061,FEMA4ImagesEEG,001,201723,
AFNE01.JPG,AFNE01.JPG,AFNE01.JPG,AFNE01.JPG,AFNE01.JPG,AFNE01.JPG,,,,,4,6,46,4,,,,,,,,,,,,,,,,,,,AMSA19.jpg,AMNE05.jpg,AMSA03.jpg,AMNE13.jpg,AMSA03.jpg,MS,2,num_2,16,num_2,0.616855379136,,,2017_Sep_25_1429,60.0185188061,FEMA4ImagesEEG,001,201723,
AFNE01.JPG,AFNE01.JPG,AFNE01.JPG,AFNE01.JPG,AFNE01.JPG,AFNE01.JPG,,,,,4,7,47,0,,,,,,,,,,,,,,,,,,,AMSA10.jpg,AMNE18.jpg,AMSA11.jpg,AMNE17.jpg,AMSA10.jpg,MS,2,num_8,32,num_2,0.583484348201,,,2017_Sep_25_1429,60.0185188061,FEMA4ImagesEEG,001,201723,
AFNE01.JPG,AFNE01.JPG,AFNE01.JPG,AFNE01.JPG,AFNE01.JPG,AFNE01.JPG,,,,,4,8,48,8,,,,,,,,,,,,,,,,,,,AMSA14.jpg,AMNE17.jpg,AMSA03.jpg,AMNE05.jpg,AMSA14.jpg,MS,2,num_8,32,num_2,0.66682115625,,,2017_Sep_25_1429,60.0185188061,FEMA4ImagesEEG,001,201723,
AFNE01.JPG,AFNE01.JPG,AFNE01.JPG,AFNE01.JPG,AFNE01.JPG,AFNE01.JPG,,,,,4,9,49,3,,,,,,,,,,,,,,,,,,,AMNE14.jpg,AMSA03.jpg,AMNE16.jpg,AMSA19.jpg,AMNE14.jpg,MN,1,num_8,32,num_4,0.633476105228,,,2017_Sep_25_1429,60.0185188061,FEMA4ImagesEEG,001,201723,
AFNE01.JPG,AFNE01.JPG,AFNE01.JPG,AFNE01.JPG,AFNE01.JPG,AFNE01.JPG,,,,,5,0,50,9,,,,,,,,,,,,,,,,,,,AMNE20.jpg,AMSA14.jpg,AMSA10.jpg,AMNE10.jpg,AMSA10.jpg,MS,2,num_2,32,num_8,0.683491917676,,,2017_Sep_25_1429,60.0185188061,FEMA4ImagesEEG,001,201723,
AFNE01.JPG,AFNE01.JPG,AFNE01.JPG,AFNE01.JPG,AFNE01.JPG,AFNE01.JPG,,,,,5,1,51,4,,,,,,,,,,,,,,,,,,,AMSA10.jpg,AMNE15.jpg,AMSA15.jpg,AMNE03.jpg,AMSA15.jpg,MS,2,num_2,32,num_6,0.500175765308,,,2017_Sep_25_1429,60.0185188061,FEMA4ImagesEEG,001,201723,
AFNE01.JPG,AFNE01.JPG,AFNE01.JPG,AFNE01.JPG,AFNE01.JPG,AFNE01.JPG,,,,,5,2,52,6,,,,,,,,,,,,,,,,,,,AMSA06.jpg,AMNE10.jpg,AMSA09.jpg,AMNE12.jpg,AMNE12.jpg,MN,1,num_4,32,num_2,0.350174835155,,,2017_Sep_25_1429,60.0185188061,FEMA4ImagesEEG,001,201723,
AFNE01.JPG,AFNE01.JPG,AFNE01.JPG,AFNE01.JPG,AFNE01.JPG,AFNE01.JPG,,,,,5,3,53,2,,,,,,,,,,,,,,,,,,,AMSA17.jpg,AMSA13.jpg,AMNE16.jpg,AMNE04.jpg,AMSA13.jpg,MS,2,num_6,32,num_8,0.61673478107,,,2017_Sep_25_1429,60.0185188061,FEMA4ImagesEEG,001,201723,
AFNE01.JPG,AFNE01.JPG,AFNE01.JPG,AFNE01.JPG,AFNE01.JPG,AFNE01.JPG,,,,,5,4,54,5,,,,,,,,,,,,,,,,,,,AMNE12.jpg,AMSA19.jpg,AMNE16.jpg,AMSA14.jpg,AMNE16.jpg,MN,1,num_2,32,num_6,0.583526044386,,,2017_Sep_25_1429,60.0185188061,FEMA4ImagesEEG,001,201723,
AFNE01.JPG,AFNE01.JPG,AFNE01.JPG,AFNE01.JPG,AFNE01.JPG,AFNE01.JPG,,,,,5,5,55,0,,,,,,,,,,,,,,,,,,,AMNE01.jpg,AMNE04.jpg,AMSA05.jpg,AMSA13.jpg,AMSA13.jpg,MS,2,num_4,32,num_2,0.58351610144,,,2017_Sep_25_1429,60.0185188061,FEMA4ImagesEEG,001,201723,
AFNE01.JPG,AFNE01.JPG,AFNE01.JPG,AFNE01.JPG,AFNE01.JPG,AFNE01.JPG,,,,,5,6,56,7,,,,,,,,,,,,,,,,,,,AMNE01.jpg,AMNE06.jpg,AMSA13.jpg,AMSA12.jpg,AMSA12.jpg,MS,2,num_4,32,num_6,0.650088812807,,,2017_Sep_25_1429,60.0185188061,FEMA4ImagesEEG,001,201723,
AFNE01.JPG,AFNE01.JPG,AFNE01.JPG,AFNE01.JPG,AFNE01.JPG,AFNE01.JPG,,,,,5,7,57,8,,,,,,,,,,,,,,,,,,,AMNE01.jpg,AMSA05.jpg,AMNE08.jpg,AMSA20.jpg,AMNE01.jpg,MN,1,num_8,16,num_8,0.566821284534,,,2017_Sep_25_1429,60.0185188061,FEMA4ImagesEEG,001,201723,
AFNE01.JPG,AFNE01.JPG,AFNE01.JPG,AFNE01.JPG,AFNE01.JPG,AFNE01.JPG,,,,,5,8,58,3,,,,,,,,,,,,,,,,,,,AMNE05.jpg,AMNE20.jpg,AMSA19.jpg,AMSA06.jpg,AMNE05.jpg,MN,1,num_8,32,num_2,0.283374398714,,,2017_Sep_25_1429,60.0185188061,FEMA4ImagesEEG,001,201723,
AFNE01.JPG,AFNE01.JPG,AFNE01.JPG,AFNE01.JPG,AFNE01.JPG,AFNE01.JPG,,,,,5,9,59,1,,,,,,,,,,,,,,,,,,,AMSA03.jpg,AMNE18.jpg,AMNE12.jpg,AMSA01.jpg,AMNE12.jpg,MN,1,num_2,32,num_6,0.633479954093,,,2017_Sep_25_1429,60.0185188061,FEMA4ImagesEEG,001,201723,
,,,,,,,,,,,,,,,,,,,,,,,,,,,,,,,,,,,,,,,,,,,space,35.363749818,2017_Sep_25_1429,60.0185188061,FEMA4ImagesEEG,001,201723,
AFNE01.JPG,AFNE01.JPG,AFNE01.JPG,AFNE01.JPG,AFNE01.JPG,AFNE01.JPG,,,,,,,,,0,0,0,4,,,,,,,,,,,,,,,AFSA02.jpg,AFSA11.jpg,AFNE15.jpg,AFNE20.jpg,AFNE15.jpg,FN,3,num_2,32,num_4,0.583442972827,,,2017_Sep_25_1429,60.0185188061,FEMA4ImagesEEG,001,201723,
AFNE01.JPG,AFNE01.JPG,AFNE01.JPG,AFNE01.JPG,AFNE01.JPG,AFNE01.JPG,,,,,,,,,0,1,1,6,,,,,,,,,,,,,,,AFNE05.jpg,AFSA16.jpg,AFNE10.jpg,AFSA14.jpg,AFSA14.jpg,FS,4,num_4,32,num_8,0.733438129653,,,2017_Sep_25_1429,60.0185188061,FEMA4ImagesEEG,001,201723,
AFNE01.JPG,AFNE01.JPG,AFNE01.JPG,AFNE01.JPG,AFNE01.JPG,AFNE01.JPG,,,,,,,,,0,2,2,5,,,,,,,,,,,,,,,AFSA19.jpg,AFSA08.jpg,AFNE13.jpg,AFNE11.jpg,AFSA19.jpg,FS,4,num_8,32,num_2,0.900119122671,,,2017_Sep_25_1429,60.0185188061,FEMA4ImagesEEG,001,201723,
AFNE01.JPG,AFNE01.JPG,AFNE01.JPG,AFNE01.JPG,AFNE01.JPG,AFNE01.JPG,,,,,,,,,0,3,3,7,,,,,,,,,,,,,,,AFNE09.jpg,AFNE04.jpg,AFSA04.jpg,AFSA06.jpg,AFNE09.jpg,FN,3,num_8,32,num_6,0.583498781518,,,2017_Sep_25_1429,60.0185188061,FEMA4ImagesEEG,001,201723,
AFNE01.JPG,AFNE01.JPG,AFNE01.JPG,AFNE01.JPG,AFNE01.JPG,AFNE01.JPG,,,,,,,,,0,4,4,1,,,,,,,,,,,,,,,AFNE19.jpg,AFSA20.jpg,AFNE02.jpg,AFSA10.jpg,AFSA10.jpg,FS,4,num_4,32,num_8,0.500144012069,,,2017_Sep_25_1429,60.0185188061,FEMA4ImagesEEG,001,201723,
AFNE01.JPG,AFNE01.JPG,AFNE01.JPG,AFNE01.JPG,AFNE01.JPG,AFNE01.JPG,,,,,,,,,0,5,5,8,,,,,,,,,,,,,,,AFNE07.jpg,AFNE11.jpg,AFSA08.jpg,AFSA11.jpg,AFNE07.jpg,FN,3,num_8,16,num_8,0.600148374127,,,2017_Sep_25_1429,60.0185188061,FEMA4ImagesEEG,001,201723,
AFNE01.JPG,AFNE01.JPG,AFNE01.JPG,AFNE01.JPG,AFNE01.JPG,AFNE01.JPG,,,,,,,,,0,6,6,3,,,,,,,,,,,,,,,AFNE03.jpg,AFSA20.jpg,AFSA18.jpg,AFNE12.jpg,AFSA20.jpg,FS,4,num_6,16,num_6,0.633465200081,,,2017_Sep_25_1429,60.0185188061,FEMA4ImagesEEG,001,201723,
AFNE01.JPG,AFNE01.JPG,AFNE01.JPG,AFNE01.JPG,AFNE01.JPG,AFNE01.JPG,,,,,,,,,0,7,7,2,,,,,,,,,,,,,,,AFSA20.jpg,AFNE18.jpg,AFSA02.jpg,AFNE05.jpg,AFSA20.jpg,FS,4,num_8,16,num_8,0.733381038008,,,2017_Sep_25_1429,60.0185188061,FEMA4ImagesEEG,001,201723,
AFNE01.JPG,AFNE01.JPG,AFNE01.JPG,AFNE01.JPG,AFNE01.JPG,AFNE01.JPG,,,,,,,,,0,8,8,9,,,,,,,,,,,,,,,AFSA06.jpg,AFSA14.jpg,AFNE03.jpg,AFNE05.jpg,AFNE05.jpg,FN,3,num_4,32,num_2,0.533353710984,,,2017_Sep_25_1429,60.0185188061,FEMA4ImagesEEG,001,201723,
AFNE01.JPG,AFNE01.JPG,AFNE01.JPG,AFNE01.JPG,AFNE01.JPG,AFNE01.JPG,,,,,,,,,0,9,9,0,,,,,,,,,,,,,,,AFSA18.jpg,AFNE09.jpg,AFNE16.jpg,AFSA10.jpg,AFNE09.jpg,FN,3,num_6,32,num_4,0.516778529942,,,2017_Sep_25_1429,60.0185188061,FEMA4ImagesEEG,001,201723,
AFNE01.JPG,AFNE01.JPG,AFNE01.JPG,AFNE01.JPG,AFNE01.JPG,AFNE01.JPG,,,,,,,,,1,0,10,1,,,,,,,,,,,,,,,AFNE09.jpg,AFNE07.jpg,AFSA11.jpg,AFSA05.jpg,AFSA05.jpg,FS,4,num_4,32,num_2,1.05009375219,,,2017_Sep_25_1429,60.0185188061,FEMA4ImagesEEG,001,201723,
AFNE01.JPG,AFNE01.JPG,AFNE01.JPG,AFNE01.JPG,AFNE01.JPG,AFNE01.JPG,,,,,,,,,1,1,11,6,,,,,,,,,,,,,,,AFNE16.jpg,AFNE03.jpg,AFSA06.jpg,AFSA01.jpg,AFNE16.jpg,FN,3,num_8,16,num_8,0.533503496379,,,2017_Sep_25_1429,60.0185188061,FEMA4ImagesEEG,001,201723,
AFNE01.JPG,AFNE01.JPG,AFNE01.JPG,AFNE01.JPG,AFNE01.JPG,AFNE01.JPG,,,,,,,,,1,2,12,2,,,,,,,,,,,,,,,AFSA03.jpg,AFNE19.jpg,AFNE12.jpg,AFSA08.jpg,AFSA08.jpg,FS,4,num_4,32,num_6,0.533482648316,,,2017_Sep_25_1429,60.0185188061,FEMA4ImagesEEG,001,201723,
AFNE01.JPG,AFNE01.JPG,AFNE01.JPG,AFNE01.JPG,AFNE01.JPG,AFNE01.JPG,,,,,,,,,1,3,13,3,,,,,,,,,,,,,,,AFSA05.jpg,AFSA16.jpg,AFNE14.jpg,AFNE01.jpg,AFNE14.jpg,FN,3,num_2,16,num_2,0.900129065616,,,2017_Sep_25_1429,60.0185188061,FEMA4ImagesEEG,001,201723,
AFNE01.JPG,AFNE01.JPG,AFNE01.JPG,AFNE01.JPG,AFNE01.JPG,AFNE01.JPG,,,,,,,,,1,4,14,8,,,,,,,,,,,,,,,AFNE06.jpg,AFSA07.jpg,AFNE13.jpg,AFSA04.jpg,AFSA04.jpg,FS,4,num_4,32,num_8,0.700002309313,,,2017_Sep_25_1429,60.0185188061,FEMA4ImagesEEG,001,201723,
AFNE01.JPG,AFNE01.JPG,AFNE01.JPG,AFNE01.JPG,AFNE01.JPG,AFNE01.JPG,,,,,,,,,1,5,15,0,,,,,,,,,,,,,,,AFNE12.jpg,AFSA11.jpg,AFNE01.jpg,AFSA06.jpg,AFNE01.jpg,FN,3,num_2,32,num_6,0.850097216171,,,2017_Sep_25_1429,60.0185188061,FEMA4ImagesEEG,001,201723,
AFNE01.JPG,AFNE01.JPG,AFNE01.JPG,AFNE01.JPG,AFNE01.JPG,AFNE01.JPG,,,,,,,,,1,6,16,5,,,,,,,,,,,,,,,AFSA03.jpg,AFNE12.jpg,AFSA15.jpg,AFNE15.jpg,AFNE12.jpg,FN,3,num_6,32,num_2,0.516816697957,,,2017_Sep_25_1429,60.0185188061,FEMA4ImagesEEG,001,201723,
AFNE01.JPG,AFNE01.JPG,AFNE01.JPG,AFNE01.JPG,AFNE01.JPG,AFNE01.JPG,,,,,,,,,1,7,17,4,,,,,,,,,,,,,,,AFSA09.jpg,AFNE19.jpg,AFSA01.jpg,AFNE16.jpg,AFNE16.jpg,FN,3,num_4,32,num_2,0.666630316176,,,2017_Sep_25_1429,60.0185188061,FEMA4ImagesEEG,001,201723,
AFNE01.JPG,AFNE01.JPG,AFNE01.JPG,AFNE01.JPG,AFNE01.JPG,AFNE01.JPG,,,,,,,,,1,8,18,7,,,,,,,,,,,,,,,AFNE06.jpg,AFNE20.jpg,AFSA03.jpg,AFSA13.jpg,AFSA13.jpg,FS,4,num_4,32,num_2,0.600170505175,,,2017_Sep_25_1429,60.0185188061,FEMA4ImagesEEG,001,201723,
AFNE01.JPG,AFNE01.JPG,AFNE01.JPG,AFNE01.JPG,AFNE01.JPG,AFNE01.JPG,,,,,,,,,1,9,19,9,,,,,,,,,,,,,,,AFNE01.jpg,AFNE06.jpg,AFSA15.jpg,AFSA18.jpg,AFNE01.jpg,FN,3,num_8,16,num_8,0.549978927389,,,2017_Sep_25_1429,60.0185188061,FEMA4ImagesEEG,001,201723,
AFNE01.JPG,AFNE01.JPG,AFNE01.JPG,AFNE01.JPG,AFNE01.JPG,AFNE01.JPG,,,,,,,,,2,0,20,1,,,,,,,,,,,,,,,AFSA03.jpg,AFNE17.jpg,AFSA18.jpg,AFNE03.jpg,AFSA18.jpg,FS,4,num_2,16,num_2,0.283513920411,,,2017_Sep_25_1429,60.0185188061,FEMA4ImagesEEG,001,201723,
AFNE01.JPG,AFNE01.JPG,AFNE01.JPG,AFNE01.JPG,AFNE01.JPG,AFNE01.JPG,,,,,,,,,2,1,21,6,,,,,,,,,,,,,,,AFSA02.jpg,AFSA15.jpg,AFNE07.jpg,AFNE14.jpg,AFSA02.jpg,FS,4,num_8,16,num_8,0.60035204381,,,2017_Sep_25_1429,60.0185188061,FEMA4ImagesEEG,001,201723,
AFNE01.JPG,AFNE01.JPG,AFNE01.JPG,AFNE01.JPG,AFNE01.JPG,AFNE01.JPG,,,,,,,,,2,2,22,7,,,,,,,,,,,,,,,AFNE10.jpg,AFSA12.jpg,AFSA06.jpg,AFNE05.jpg,AFSA12.jpg,FS,4,num_6,16,num_6,0.700112964492,,,2017_Sep_25_1429,60.0185188061,FEMA4ImagesEEG,001,201723,
AFNE01.JPG,AFNE01.JPG,AFNE01.JPG,AFNE01.JPG,AFNE01.JPG,AFNE01.JPG,,,,,,,,,2,3,23,5,,,,,,,,,,,,,,,AFNE07.jpg,AFNE02.jpg,AFSA19.jpg,AFSA01.jpg,AFSA19.jpg,FS,4,num_2,32,num_6,0.583507762203,,,2017_Sep_25_1429,60.0185188061,FEMA4ImagesEEG,001,201723,
AFNE01.JPG,AFNE01.JPG,AFNE01.JPG,AFNE01.JPG,AFNE01.JPG,AFNE01.JPG,,,,,,,,,2,4,24,0,,,,,,,,,,,,,,,AFNE08.jpg,AFNE07.jpg,AFSA12.jpg,AFSA04.jpg,AFSA12.jpg,FS,4,num_2,32,num_6,0.733491693158,,,2017_Sep_25_1429,60.0185188061,FEMA4ImagesEEG,001,201723,
AFNE01.JPG,AFNE01.JPG,AFNE01.JPG,AFNE01.JPG,AFNE01.JPG,AFNE01.JPG,,,,,,,,,2,5,25,9,,,,,,,,,,,,,,,AFSA16.jpg,AFNE15.jpg,AFNE06.jpg,AFSA13.jpg,AFNE15.jpg,FN,3,num_6,32,num_2,0.483476778754,,,2017_Sep_25_1429,60.0185188061,FEMA4ImagesEEG,001,201723,
AFNE01.JPG,AFNE01.JPG,AFNE01.JPG,AFNE01.JPG,AFNE01.JPG,AFNE01.JPG,,,,,,,,,2,6,26,4,,,,,,,,,,,,,,,AFNE07.jpg,AFSA17.jpg,AFSA03.jpg,AFNE06.jpg,AFNE06.jpg,FN,3,num_4,16,num_4,0.55012582615,,,2017_Sep_25_1429,60.0185188061,FEMA4ImagesEEG,001,201723,
AFNE01.JPG,AFNE01.JPG,AFNE01.JPG,AFNE01.JPG,AFNE01.JPG,AFNE01.JPG,,,,,,,,,2,7,27,2,,,,,,,,,,,,,,,AFSA02.jpg,AFNE08.jpg,AFSA10.jpg,AFNE03.jpg,AFNE03.jpg,FN,3,num_4,32,num_6,0.916748508695,,,2017_Sep_25_1429,60.0185188061,FEMA4ImagesEEG,001,201723,
AFNE01.JPG,AFNE01.JPG,AFNE01.JPG,AFNE01.JPG,AFNE01.JPG,AFNE01.JPG,,,,,,,,,2,8,28,8,,,,,,,,,,,,,,,AFSA15.jpg,AFNE09.jpg,AFNE17.jpg,AFSA05.jpg,AFNE09.jpg,FN,3,num_6,16,num_6,0.633439540921,,,2017_Sep_25_1429,60.0185188061,FEMA4ImagesEEG,001,201723,
AFNE01.JPG,AFNE01.JPG,AFNE01.JPG,AFNE01.JPG,AFNE01.JPG,AFNE01.JPG,,,,,,,,,2,9,29,3,,,,,,,,,,,,,,,AFNE17.jpg,AFNE18.jpg,AFSA05.jpg,AFSA11.jpg,AFNE18.jpg,FN,3,num_6,32,num_8,0.550127429829,,,2017_Sep_25_1429,60.0185188061,FEMA4ImagesEEG,001,201723,
AFNE01.JPG,AFNE01.JPG,AFNE01.JPG,AFNE01.JPG,AFNE01.JPG,AFNE01.JPG,,,,,,,,,3,0,30,9,,,,,,,,,,,,,,,AFNE12.jpg,AFSA10.jpg,AFSA13.jpg,AFNE11.jpg,AFSA13.jpg,FS,4,num_2,16,num_2,0.616804381571,,,2017_Sep_25_1429,60.0185188061,FEMA4ImagesEEG,001,201723,
AFNE01.JPG,AFNE01.JPG,AFNE01.JPG,AFNE01.JPG,AFNE01.JPG,AFNE01.JPG,,,,,,,,,3,1,31,1,,,,,,,,,,,,,,,AFNE04.jpg,AFSA05.jpg,AFSA14.jpg,AFNE11.jpg,AFSA05.jpg,FS,4,num_6,16,num_6,0.333466547192,,,2017_Sep_25_1429,60.0185188061,FEMA4ImagesEEG,001,201723,
AFNE01.JPG,AFNE01.JPG,AFNE01.JPG,AFNE01.JPG,AFNE01.JPG,AFNE01.JPG,,,,,,,,,3,2,32,4,,,,,,,,,,,,,,,AFNE09.jpg,AFNE11.jpg,AFSA01.jpg,AFSA12.jpg,AFNE09.jpg,FN,3,num_8,32,num_4,0.600166335556,,,2017_Sep_25_1429,60.0185188061,FEMA4ImagesEEG,001,201723,
AFNE01.JPG,AFNE01.JPG,AFNE01.JPG,AFNE01.JPG,AFNE01.JPG,AFNE01.JPG,,,,,,,,,3,3,33,6,,,,,,,,,,,,,,,AFSA04.jpg,AFSA18.jpg,AFNE18.jpg,AFNE10.jpg,AFNE10.jpg,FN,3,num_4,32,num_8,0.633500160679,,,2017_Sep_25_1429,60.0185188061,FEMA4ImagesEEG,001,201723,
AFNE01.JPG,AFNE01.JPG,AFNE01.JPG,AFNE01.JPG,AFNE01.JPG,AFNE01.JPG,,,,,,,,,3,4,34,8,,,,,,,,,,,,,,,AFNE19.jpg,AFSA13.jpg,AFNE20.jpg,AFSA18.jpg,AFNE20.jpg,FN,3,num_2,16,num_2,0.533479120175,,,2017_Sep_25_1429,60.0185188061,FEMA4ImagesEEG,001,201723,
AFNE01.JPG,AFNE01.JPG,AFNE01.JPG,AFNE01.JPG,AFNE01.JPG,AFNE01.JPG,,,,,,,,,3,5,35,7,,,,,,,,,,,,,,,AFNE04.jpg,AFSA13.jpg,AFSA15.jpg,AFNE01.jpg,AFSA13.jpg,FS,4,num_6,16,num_6,0.800112194702,,,2017_Sep_25_1429,60.0185188061,FEMA4ImagesEEG,001,201723,
AFNE01.JPG,AFNE01.JPG,AFNE01.JPG,AFNE01.JPG,AFNE01.JPG,AFNE01.JPG,,,,,,,,,3,6,36,3,,,,,,,,,,,,,,,AFSA06.jpg,AFNE20.jpg,AFSA02.jpg,AFNE19.jpg,AFNE20.jpg,FN,3,num_6,32,num_8,0.583467669756,,,2017_Sep_25_1429,60.0185188061,FEMA4ImagesEEG,001,201723,
AFNE01.JPG,AFNE01.JPG,AFNE01.JPG,AFNE01.JPG,AFNE01.JPG,AFNE01.JPG,,,,,,,,,3,7,37,0,,,,,,,,,,,,,,,AFNE11.jpg,AFNE01.jpg,AFSA01.jpg,AFSA18.jpg,AFSA18.jpg,FS,4,num_4,32,num_6,0.500149143918,,,2017_Sep_25_1429,60.0185188061,FEMA4ImagesEEG,001,201723,
AFNE01.JPG,AFNE01.JPG,AFNE01.JPG,AFNE01.JPG,AFNE01.JPG,AFNE01.JPG,,,,,,,,,3,8,38,2,,,,,,,,,,,,,,,AFSA05.jpg,AFNE16.jpg,AFSA13.jpg,AFNE03.jpg,AFNE16.jpg,FN,3,num_6,32,num_8,0.516845885257,,,2017_Sep_25_1429,60.0185188061,FEMA4ImagesEEG,001,201723,
AFNE01.JPG,AFNE01.JPG,AFNE01.JPG,AFNE01.JPG,AFNE01.JPG,AFNE01.JPG,,,,,,,,,3,9,39,5,,,,,,,,,,,,,,,AFSA14.jpg,AFNE19.jpg,AFNE12.jpg,AFSA19.jpg,AFSA14.jpg,FS,4,num_8,32,num_6,0.983428026346,,,2017_Sep_25_1429,60.0185188061,FEMA4ImagesEEG,001,201723,
AFNE01.JPG,AFNE01.JPG,AFNE01.JPG,AFNE01.JPG,AFNE01.JPG,AFNE01.JPG,,,,,,,,,4,0,40,9,,,,,,,,,,,,,,,AFSA02.jpg,AFSA14.jpg,AFNE13.jpg,AFNE10.jpg,AFSA02.jpg,FS,4,num_8,32,num_6,0.500169350504,,,2017_Sep_25_1429,60.0185188061,FEMA4ImagesEEG,001,201723,
AFNE01.JPG,AFNE01.JPG,AFNE01.JPG,AFNE01.JPG,AFNE01.JPG,AFNE01.JPG,,,,,,,,,4,1,41,2,,,,,,,,,,,,,,,AFSA14.jpg,AFNE05.jpg,AFNE08.jpg,AFSA06.jpg,AFNE08.jpg,FN,3,num_2,32,num_4,0.550138014223,,,2017_Sep_25_1429,60.0185188061,FEMA4ImagesEEG,001,201723,
AFNE01.JPG,AFNE01.JPG,AFNE01.JPG,AFNE01.JPG,AFNE01.JPG,AFNE01.JPG,,,,,,,,,4,2,42,5,,,,,,,,,,,,,,,AFSA12.jpg,AFSA18.jpg,AFNE10.jpg,AFNE18.jpg,AFNE10.jpg,FN,3,num_2,16,num_2,1.01673106049,,,2017_Sep_25_1429,60.0185188061,FEMA4ImagesEEG,001,201723,
AFNE01.JPG,AFNE01.JPG,AFNE01.JPG,AFNE01.JPG,AFNE01.JPG,AFNE01.JPG,,,,,,,,,4,3,43,3,,,,,,,,,,,,,,,AFSA02.jpg,AFNE07.jpg,AFNE03.jpg,AFSA10.jpg,AFSA10.jpg,FS,4,num_4,16,num_4,0.633482840756,,,2017_Sep_25_1429,60.0185188061,FEMA4ImagesEEG,001,201723,
AFNE01.JPG,AFNE01.JPG,AFNE01.JPG,AFNE01.JPG,AFNE01.JPG,AFNE01.JPG,,,,,,,,,4,4,44,8,,,,,,,,,,,,,,,AFNE07.jpg,AFSA11.jpg,AFSA19.jpg,AFNE14.jpg,AFNE14.jpg,FN,3,num_4,16,num_4,0.583489800803,,,2017_Sep_25_1429,60.0185188061,FEMA4ImagesEEG,001,201723,
AFNE01.JPG,AFNE01.JPG,AFNE01.JPG,AFNE01.JPG,AFNE01.JPG,AFNE01.JPG,,,,,,,,,4,5,45,1,,,,,,,,,,,,,,,AFSA07.jpg,AFSA12.jpg,AFNE19.jpg,AFNE13.jpg,AFSA12.jpg,FS,4,num_6,16,num_6,0.450122105569,,,2017_Sep_25_1429,60.0185188061,FEMA4ImagesEEG,001,201723,
AFNE01.JPG,AFNE01.JPG,AFNE01.JPG,AFNE01.JPG,AFNE01.JPG,AFNE01.JPG,,,,,,,,,4,6,46,6,,,,,,,,,,,,,,,AFNE05.jpg,AFSA18.jpg,AFSA07.jpg,AFNE17.jpg,AFSA07.jpg,FS,4,num_2,16,num_2,0.51679552914,,,2017_Sep_25_1429,60.0185188061,FEMA4ImagesEEG,001,201723,
AFNE01.JPG,AFNE01.JPG,AFNE01.JPG,AFNE01.JPG,AFNE01.JPG,AFNE01.JPG,,,,,,,,,4,7,47,7,,,,,,,,,,,,,,,AFSA19.jpg,AFSA14.jpg,AFNE20.jpg,AFNE18.jpg,AFSA14.jpg,FS,4,num_6,16,num_6,0.583455481654,,,2017_Sep_25_1429,60.0185188061,FEMA4ImagesEEG,001,201723,
AFNE01.JPG,AFNE01.JPG,AFNE01.JPG,AFNE01.JPG,AFNE01.JPG,AFNE01.JPG,,,,,,,,,4,8,48,4,,,,,,,,,,,,,,,AFSA13.jpg,AFNE20.jpg,AFSA08.jpg,AFNE19.jpg,AFSA13.jpg,FS,4,num_8,32,num_2,0.48348255211,,,2017_Sep_25_1429,60.0185188061,FEMA4ImagesEEG,001,201723,
AFNE01.JPG,AFNE01.JPG,AFNE01.JPG,AFNE01.JPG,AFNE01.JPG,AFNE01.JPG,,,,,,,,,4,9,49,0,,,,,,,,,,,,,,,AFSA15.jpg,AFNE04.jpg,AFSA12.jpg,AFNE15.jpg,AFNE15.jpg,FN,3,num_4,16,num_4,0.666798063001,,,2017_Sep_25_1429,60.0185188061,FEMA4ImagesEEG,001,201723,
AFNE01.JPG,AFNE01.JPG,AFNE01.JPG,AFNE01.JPG,AFNE01.JPG,AFNE01.JPG,,,,,,,,,5,0,50,2,,,,,,,,,,,,,,,AFNE14.jpg,AFSA06.jpg,AFSA01.jpg,AFNE01.jpg,AFSA01.jpg,FS,4,num_2,32,num_6,0.566769324738,,,2017_Sep_25_1429,60.0185188061,FEMA4ImagesEEG,001,201723,
AFNE01.JPG,AFNE01.JPG,AFNE01.JPG,AFNE01.JPG,AFNE01.JPG,AFNE01.JPG,,,,,,,,,5,1,51,8,,,,,,,,,,,,,,,AFSA17.jpg,AFNE19.jpg,AFNE04.jpg,AFSA15.jpg,AFNE19.jpg,FN,3,num_6,32,num_2,0.500176727539,,,2017_Sep_25_1429,60.0185188061,FEMA4ImagesEEG,001,201723,
AFNE01.JPG,AFNE01.JPG,AFNE01.JPG,AFNE01.JPG,AFNE01.JPG,AFNE01.JPG,,,,,,,,,5,2,52,6,,,,,,,,,,,,,,,AFNE16.jpg,AFSA16.jpg,AFSA14.jpg,AFNE08.jpg,AFNE16.jpg,FN,3,num_8,32,num_6,0.483486400946,,,2017_Sep_25_1429,60.0185188061,FEMA4ImagesEEG,001,201723,
AFNE01.JPG,AFNE01.JPG,AFNE01.JPG,AFNE01.JPG,AFNE01.JPG,AFNE01.JPG,,,,,,,,,5,3,53,0,,,,,,,,,,,,,,,AFNE09.jpg,AFSA19.jpg,AFSA18.jpg,AFNE18.jpg,AFNE18.jpg,FN,3,num_4,16,num_4,0.733466354723,,,2017_Sep_25_1429,60.0185188061,FEMA4ImagesEEG,001,201723,
AFNE01.JPG,AFNE01.JPG,AFNE01.JPG,AFNE01.JPG,AFNE01.JPG,AFNE01.JPG,,,,,,,,,5,4,54,4,,,,,,,,,,,,,,,AFSA08.jpg,AFNE12.jpg,AFSA19.jpg,AFNE02.jpg,AFSA19.jpg,FS,4,num_2,32,num_4,0.533435178862,,,2017_Sep_25_1429,60.0185188061,FEMA4ImagesEEG,001,201723,
AFNE01.JPG,AFNE01.JPG,AFNE01.JPG,AFNE01.JPG,AFNE01.JPG,AFNE01.JPG,,,,,,,,,5,5,55,7,,,,,,,,,,,,,,,AFNE20.jpg,AFSA12.jpg,AFNE01.jpg,AFSA13.jpg,AFSA13.jpg,FS,4,num_4,16,num_4,0.416915934795,,,2017_Sep_25_1429,60.0185188061,FEMA4ImagesEEG,001,201723,
AFNE01.JPG,AFNE01.JPG,AFNE01.JPG,AFNE01.JPG,AFNE01.JPG,AFNE01.JPG,,,,,,,,,5,6,56,9,,,,,,,,,,,,,,,AFSA17.jpg,AFSA16.jpg,AFNE13.jpg,AFNE20.jpg,AFNE20.jpg,FN,3,num_4,32,num_8,0.700181923487,,,2017_Sep_25_1429,60.0185188061,FEMA4ImagesEEG,001,201723,
AFNE01.JPG,AFNE01.JPG,AFNE01.JPG,AFNE01.JPG,AFNE01.JPG,AFNE01.JPG,,,,,,,,,5,7,57,1,,,,,,,,,,,,,,,AFSA11.jpg,AFSA03.jpg,AFNE17.jpg,AFNE01.jpg,AFSA11.jpg,FS,4,num_8,32,num_6,0.516828565334,,,2017_Sep_25_1429,60.0185188061,FEMA4ImagesEEG,001,201723,
AFNE01.JPG,AFNE01.JPG,AFNE01.JPG,AFNE01.JPG,AFNE01.JPG,AFNE01.JPG,,,,,,,,,5,8,58,5,,,,,,,,,,,,,,,AFSA03.jpg,AFNE05.jpg,AFNE08.jpg,AFSA07.jpg,AFSA07.jpg,FS,4,num_4,16,num_4,0.566811983066,,,2017_Sep_25_1429,60.0185188061,FEMA4ImagesEEG,001,201723,
AFNE01.JPG,AFNE01.JPG,AFNE01.JPG,AFNE01.JPG,AFNE01.JPG,AFNE01.JPG,,,,,,,,,5,9,59,3,,,,,,,,,,,,,,,AFNE11.jpg,AFNE10.jpg,AFSA01.jpg,AFSA03.jpg,AFSA01.jpg,FS,4,num_2,16,num_2,0.483517191955,,,2017_Sep_25_1429,60.0185188061,FEMA4ImagesEEG,001,201723,
,,,,,,,,,,,,,,,,,,,,,,,,,,,,,,,,,,,,,,,,,,,space,44.9633000128,2017_Sep_25_1429,60.0185188061,FEMA4ImagesEEG,001,201723,
AFNE01.JPG,AFNE01.JPG,AFNE01.JPG,AFNE01.JPG,AFNE01.JPG,AFNE01.JPG,,,,,,,,,,,,,0,0,0,2,,,,,,,,,,,AMSA07.jpg,AMNE20.jpg,AMNE10.jpg,AMSA10.jpg,AMSA10.jpg,MS,2,num_4,16,num_4,0.566846943722,,,2017_Sep_25_1429,60.0185188061,FEMA4ImagesEEG,001,201723,
AFNE01.JPG,AFNE01.JPG,AFNE01.JPG,AFNE01.JPG,AFNE01.JPG,AFNE01.JPG,,,,,,,,,,,,,0,1,1,1,,,,,,,,,,,AMNE17.jpg,AMSA12.jpg,AMNE08.jpg,AMSA20.jpg,AMNE17.jpg,MN,1,num_8,32,num_2,0.383496151451,,,2017_Sep_25_1429,60.0185188061,FEMA4ImagesEEG,001,201723,
AFNE01.JPG,AFNE01.JPG,AFNE01.JPG,AFNE01.JPG,AFNE01.JPG,AFNE01.JPG,,,,,,,,,,,,,0,2,2,7,,,,,,,,,,,AMNE14.jpg,AMNE18.jpg,AMSA19.jpg,AMSA02.jpg,AMSA19.jpg,MS,2,num_2,32,num_6,0.800185964792,,,2017_Sep_25_1429,60.0185188061,FEMA4ImagesEEG,001,201723,
AFNE01.JPG,AFNE01.JPG,AFNE01.JPG,AFNE01.JPG,AFNE01.JPG,AFNE01.JPG,,,,,,,,,,,,,0,3,3,5,,,,,,,,,,,AMSA13.jpg,AMSA19.jpg,AMNE06.jpg,AMNE13.jpg,AMNE13.jpg,MN,1,num_4,16,num_4,0.566748155921,,,2017_Sep_25_1429,60.0185188061,FEMA4ImagesEEG,001,201723,
AFNE01.JPG,AFNE01.JPG,AFNE01.JPG,AFNE01.JPG,AFNE01.JPG,AFNE01.JPG,,,,,,,,,,,,,0,4,4,8,,,,,,,,,,,AMSA20.jpg,AMNE03.jpg,AMNE16.jpg,AMSA12.jpg,AMSA12.jpg,MS,2,num_4,32,num_8,0.716771537845,,,2017_Sep_25_1429,60.0185188061,FEMA4ImagesEEG,001,201723,
AFNE01.JPG,AFNE01.JPG,AFNE01.JPG,AFNE01.JPG,AFNE01.JPG,AFNE01.JPG,,,,,,,,,,,,,0,5,5,3,,,,,,,,,,,AMSA13.jpg,AMNE11.jpg,AMNE08.jpg,AMSA04.jpg,AMNE11.jpg,MN,1,num_6,16,num_6,0.566807813477,,,2017_Sep_25_1429,60.0185188061,FEMA4ImagesEEG,001,201723,
AFNE01.JPG,AFNE01.JPG,AFNE01.JPG,AFNE01.JPG,AFNE01.JPG,AFNE01.JPG,,,,,,,,,,,,,0,6,6,9,,,,,,,,,,,AMSA13.jpg,AMSA19.jpg,AMNE08.jpg,AMNE06.jpg,AMSA19.jpg,MS,2,num_6,32,num_4,0.60016922222,,,2017_Sep_25_1429,60.0185188061,FEMA4ImagesEEG,001,201723,
AFNE01.JPG,AFNE01.JPG,AFNE01.JPG,AFNE01.JPG,AFNE01.JPG,AFNE01.JPG,,,,,,,,,,,,,0,7,7,4,,,,,,,,,,,AMNE11.jpg,AMSA11.jpg,AMSA10.jpg,AMNE18.jpg,AMNE11.jpg,MN,1,num_8,16,num_8,0.449976810516,,,2017_Sep_25_1429,60.0185188061,FEMA4ImagesEEG,001,201723,
AFNE01.JPG,AFNE01.JPG,AFNE01.JPG,AFNE01.JPG,AFNE01.JPG,AFNE01.JPG,,,,,,,,,,,,,0,8,8,0,,,,,,,,,,,AMNE09.jpg,AMSA14.jpg,AMNE19.jpg,AMSA09.jpg,AMSA09.jpg,MS,2,num_4,16,num_4,0.500168709026,,,2017_Sep_25_1429,60.0185188061,FEMA4ImagesEEG,001,201723,
AFNE01.JPG,AFNE01.JPG,AFNE01.JPG,AFNE01.JPG,AFNE01.JPG,AFNE01.JPG,,,,,,,,,,,,,0,9,9,6,,,,,,,,,,,AMSA08.jpg,AMNE01.jpg,AMSA12.jpg,AMNE11.jpg,AMNE11.jpg,MN,1,num_4,32,num_8,0.63348059557,,,2017_Sep_25_1429,60.0185188061,FEMA4ImagesEEG,001,201723,
AFNE01.JPG,AFNE01.JPG,AFNE01.JPG,AFNE01.JPG,AFNE01.JPG,AFNE01.JPG,,,,,,,,,,,,,1,0,10,1,,,,,,,,,,,AMNE11.jpg,AMNE17.jpg,AMSA06.jpg,AMSA11.jpg,AMSA11.jpg,MS,2,num_4,16,num_4,0.766741805273,,,2017_Sep_25_1429,60.0185188061,FEMA4ImagesEEG,001,201723,
AFNE01.JPG,AFNE01.JPG,AFNE01.JPG,AFNE01.JPG,AFNE01.JPG,AFNE01.JPG,,,,,,,,,,,,,1,1,11,0,,,,,,,,,,,AMSA05.jpg,AMNE20.jpg,AMNE10.jpg,AMSA07.jpg,AMSA07.jpg,MS,2,num_4,16,num_4,0.583171947859,,,2017_Sep_25_1429,60.0185188061,FEMA4ImagesEEG,001,201723,
AFNE01.JPG,AFNE01.JPG,AFNE01.JPG,AFNE01.JPG,AFNE01.JPG,AFNE01.JPG,,,,,,,,,,,,,1,2,12,8,,,,,,,,,,,AMNE16.jpg,AMSA04.jpg,AMSA06.jpg,AMNE07.jpg,AMSA06.jpg,MS,2,num_2,16,num_2,1.09996202443,,,2017_Sep_25_1429,60.0185188061,FEMA4ImagesEEG,001,201723,
AFNE01.JPG,AFNE01.JPG,AFNE01.JPG,AFNE01.JPG,AFNE01.JPG,AFNE01.JPG,,,,,,,,,,,,,1,3,13,2,,,,,,,,,,,AMSA09.jpg,AMNE18.jpg,AMSA01.jpg,AMNE09.jpg,AMSA01.jpg,MS,2,num_2,16,num_2,0.416804317414,,,2017_Sep_25_1429,60.0185188061,FEMA4ImagesEEG,001,201723,
AFNE01.JPG,AFNE01.JPG,AFNE01.JPG,AFNE01.JPG,AFNE01.JPG,AFNE01.JPG,,,,,,,,,,,,,1,4,14,3,,,,,,,,,,,AMNE14.jpg,AMNE05.jpg,AMSA05.jpg,AMSA19.jpg,AMNE05.jpg,MN,1,num_6,16,num_6,0.733431714849,,,2017_Sep_25_1429,60.0185188061,FEMA4ImagesEEG,001,201723,
AFNE01.JPG,AFNE01.JPG,AFNE01.JPG,AFNE01.JPG,AFNE01.JPG,AFNE01.JPG,,,,,,,,,,,,,1,5,15,6,,,,,,,,,,,AMSA07.jpg,AMSA19.jpg,AMNE09.jpg,AMNE04.jpg,AMNE04.jpg,MN,1,num_4,16,num_4,0.533454423217,,,2017_Sep_25_1429,60.0185188061,FEMA4ImagesEEG,001,201723,
AFNE01.JPG,AFNE01.JPG,AFNE01.JPG,AFNE01.JPG,AFNE01.JPG,AFNE01.JPG,,,,,,,,,,,,,1,6,16,5,,,,,,,,,,,AMSA04.jpg,AMNE07.jpg,AMSA13.jpg,AMNE04.jpg,AMSA04.jpg,MS,2,num_8,32,num_4,0.483468760271,,,2017_Sep_25_1429,60.0185188061,FEMA4ImagesEEG,001,201723,
AFNE01.JPG,AFNE01.JPG,AFNE01.JPG,AFNE01.JPG,AFNE01.JPG,AFNE01.JPG,,,,,,,,,,,,,1,7,17,9,,,,,,,,,,,AMNE19.jpg,AMSA01.jpg,AMNE12.jpg,AMSA10.jpg,AMNE12.jpg,MN,1,num_2,32,num_4,0.7334086216,,,2017_Sep_25_1429,60.0185188061,FEMA4ImagesEEG,001,201723,
AFNE01.JPG,AFNE01.JPG,AFNE01.JPG,AFNE01.JPG,AFNE01.JPG,AFNE01.JPG,,,,,,,,,,,,,1,8,18,4,,,,,,,,,,,AMNE09.jpg,AMSA07.jpg,AMNE07.jpg,AMSA03.jpg,AMNE09.jpg,MN,1,num_8,32,num_6,0.750134229515,,,2017_Sep_25_1429,60.0185188061,FEMA4ImagesEEG,001,201723,
AFNE01.JPG,AFNE01.JPG,AFNE01.JPG,AFNE01.JPG,AFNE01.JPG,AFNE01.JPG,,,,,,,,,,,,,1,9,19,7,,,,,,,,,,,AMSA17.jpg,AMNE05.jpg,AMSA14.jpg,AMNE13.jpg,AMSA17.jpg,MS,2,num_8,16,num_8,0.866774713155,,,2017_Sep_25_1429,60.0185188061,FEMA4ImagesEEG,001,201723,
AFNE01.JPG,AFNE01.JPG,AFNE01.JPG,AFNE01.JPG,AFNE01.JPG,AFNE01.JPG,,,,,,,,,,,,,2,0,20,0,,,,,,,,,,,AMNE12.jpg,AMSA17.jpg,AMSA03.jpg,AMNE10.jpg,AMNE12.jpg,MN,1,num_8,32,num_4,0.566804285336,,,2017_Sep_25_1429,60.0185188061,FEMA4ImagesEEG,001,201723,
AFNE01.JPG,AFNE01.JPG,AFNE01.JPG,AFNE01.JPG,AFNE01.JPG,AFNE01.JPG,,,,,,,,,,,,,2,1,21,4,,,,,,,,,,,AMNE13.jpg,AMNE05.jpg,AMSA03.jpg,AMSA15.jpg,AMNE05.jpg,MN,1,num_6,32,num_2,0.783414491161,,,2017_Sep_25_1429,60.0185188061,FEMA4ImagesEEG,001,201723,
AFNE01.JPG,AFNE01.JPG,AFNE01.JPG,AFNE01.JPG,AFNE01.JPG,AFNE01.JPG,,,,,,,,,,,,,2,2,22,9,,,,,,,,,,,AMNE14.jpg,AMSA06.jpg,AMNE05.jpg,AMSA18.jpg,AMNE14.jpg,MN,1,num_8,16,num_8,0.783527070744,,,2017_Sep_25_1429,60.0185188061,FEMA4ImagesEEG,001,201723,
AFNE01.JPG,AFNE01.JPG,AFNE01.JPG,AFNE01.JPG,AFNE01.JPG,AFNE01.JPG,,,,,,,,,,,,,2,3,23,5,,,,,,,,,,,AMSA20.jpg,AMNE01.jpg,AMSA04.jpg,AMNE11.jpg,AMSA20.jpg,MS,2,num_8,32,num_4,0.933473475161,,,2017_Sep_25_1429,60.0185188061,FEMA4ImagesEEG,001,201723,
AFNE01.JPG,AFNE01.JPG,AFNE01.JPG,AFNE01.JPG,AFNE01.JPG,AFNE01.JPG,,,,,,,,,,,,,2,4,24,1,,,,,,,,,,,AMNE05.jpg,AMSA16.jpg,AMSA20.jpg,AMNE03.jpg,AMSA20.jpg,MS,2,num_2,32,num_6,1.03348008241,,,2017_Sep_25_1429,60.0185188061,FEMA4ImagesEEG,001,201723,
AFNE01.JPG,AFNE01.JPG,AFNE01.JPG,AFNE01.JPG,AFNE01.JPG,AFNE01.JPG,,,,,,,,,,,,,2,5,25,8,,,,,,,,,,,AMSA11.jpg,AMNE15.jpg,AMNE20.jpg,AMSA10.jpg,AMNE15.jpg,MN,1,num_6,16,num_6,0.7667543141,,,2017_Sep_25_1429,60.0185188061,FEMA4ImagesEEG,001,201723,
AFNE01.JPG,AFNE01.JPG,AFNE01.JPG,AFNE01.JPG,AFNE01.JPG,AFNE01.JPG,,,,,,,,,,,,,2,6,26,2,,,,,,,,,,,AMSA01.jpg,AMSA15.jpg,AMNE06.jpg,AMNE12.jpg,AMNE12.jpg,MN,1,num_4,16,num_4,0.650280294358,,,2017_Sep_25_1429,60.0185188061,FEMA4ImagesEEG,001,201723,
AFNE01.JPG,AFNE01.JPG,AFNE01.JPG,AFNE01.JPG,AFNE01.JPG,AFNE01.JPG,,,,,,,,,,,,,2,7,27,7,,,,,,,,,,,AMSA10.jpg,AMNE10.jpg,AMSA05.jpg,AMNE15.jpg,AMNE10.jpg,MN,1,num_6,32,num_4,0.683464975562,,,2017_Sep_25_1429,60.0185188061,FEMA4ImagesEEG,001,201723,
AFNE01.JPG,AFNE01.JPG,AFNE01.JPG,AFNE01.JPG,AFNE01.JPG,AFNE01.JPG,,,,,,,,,,,,,2,8,28,3,,,,,,,,,,,AMSA02.jpg,AMSA07.jpg,AMNE10.jpg,AMNE07.jpg,AMNE07.jpg,MN,1,num_4,32,num_6,0.666784591915,,,2017_Sep_25_1429,60.0185188061,FEMA4ImagesEEG,001,201723,
AFNE01.JPG,AFNE01.JPG,AFNE01.JPG,AFNE01.JPG,AFNE01.JPG,AFNE01.JPG,,,,,,,,,,,,,2,9,29,6,,,,,,,,,,,AMSA18.jpg,AMNE03.jpg,AMSA12.jpg,AMNE13.jpg,AMNE03.jpg,MN,1,num_6,32,num_8,0.650116717152,,,2017_Sep_25_1429,60.0185188061,FEMA4ImagesEEG,001,201723,
AFNE01.JPG,AFNE01.JPG,AFNE01.JPG,AFNE01.JPG,AFNE01.JPG,AFNE01.JPG,,,,,,,,,,,,,3,0,30,6,,,,,,,,,,,AMNE12.jpg,AMSA03.jpg,AMSA08.jpg,AMNE15.jpg,AMSA03.jpg,MS,2,num_6,16,num_6,0.500130861765,,,2017_Sep_25_1429,60.0185188061,FEMA4ImagesEEG,001,201723,
AFNE01.JPG,AFNE01.JPG,AFNE01.JPG,AFNE01.JPG,AFNE01.JPG,AFNE01.JPG,,,,,,,,,,,,,3,1,31,5,,,,,,,,,,,AMSA08.jpg,AMNE11.jpg,AMNE09.jpg,AMSA10.jpg,AMNE11.jpg,MN,1,num_6,32,num_2,0.566760664748,,,2017_Sep_25_1429,60.0185188061,FEMA4ImagesEEG,001,201723,
AFNE01.JPG,AFNE01.JPG,AFNE01.JPG,AFNE01.JPG,AFNE01.JPG,AFNE01.JPG,,,,,,,,,,,,,3,2,32,8,,,,,,,,,,,AMNE14.jpg,AMSA09.jpg,AMSA07.jpg,AMNE03.jpg,AMNE14.jpg,MN,1,num_8,32,num_6,0.883496151422,,,2017_Sep_25_1429,60.0185188061,FEMA4ImagesEEG,001,201723,
AFNE01.JPG,AFNE01.JPG,AFNE01.JPG,AFNE01.JPG,AFNE01.JPG,AFNE01.JPG,,,,,,,,,,,,,3,3,33,0,,,,,,,,,,,AMNE01.jpg,AMSA10.jpg,AMNE20.jpg,AMSA02.jpg,AMNE20.jpg,MN,1,num_2,32,num_6,0.816777824337,,,2017_Sep_25_1429,60.0185188061,FEMA4ImagesEEG,001,201723,
AFNE01.JPG,AFNE01.JPG,AFNE01.JPG,AFNE01.JPG,AFNE01.JPG,AFNE01.JPG,,,,,,,,,,,,,3,4,34,4,,,,,,,,,,,AMSA04.jpg,AMNE15.jpg,AMSA14.jpg,AMNE09.jpg,AMNE15.jpg,MN,1,num_6,16,num_6,0.733498428715,,,2017_Sep_25_1429,60.0185188061,FEMA4ImagesEEG,001,201723,
AFNE01.JPG,AFNE01.JPG,AFNE01.JPG,AFNE01.JPG,AFNE01.JPG,AFNE01.JPG,,,,,,,,,,,,,3,5,35,9,,,,,,,,,,,AMNE18.jpg,AMNE06.jpg,AMSA19.jpg,AMSA15.jpg,AMNE18.jpg,MN,1,num_8,32,num_6,0.716855571605,,,2017_Sep_25_1429,60.0185188061,FEMA4ImagesEEG,001,201723,
AFNE01.JPG,AFNE01.JPG,AFNE01.JPG,AFNE01.JPG,AFNE01.JPG,AFNE01.JPG,,,,,,,,,,,,,3,6,36,3,,,,,,,,,,,AMSA02.jpg,AMSA14.jpg,AMNE05.jpg,AMNE08.jpg,AMSA14.jpg,MS,2,num_6,16,num_6,0.383465360443,,,2017_Sep_25_1429,60.0185188061,FEMA4ImagesEEG,001,201723,
AFNE01.JPG,AFNE01.JPG,AFNE01.JPG,AFNE01.JPG,AFNE01.JPG,AFNE01.JPG,,,,,,,,,,,,,3,7,37,2,,,,,,,,,,,AMNE06.jpg,AMSA17.jpg,AMSA01.jpg,AMNE02.jpg,AMSA01.jpg,MS,2,num_2,16,num_2,0.450134935149,,,2017_Sep_25_1429,60.0185188061,FEMA4ImagesEEG,001,201723,
AFNE01.JPG,AFNE01.JPG,AFNE01.JPG,AFNE01.JPG,AFNE01.JPG,AFNE01.JPG,,,,,,,,,,,,,3,8,38,1,,,,,,,,,,,AMSA11.jpg,AMNE09.jpg,AMNE11.jpg,AMSA20.jpg,AMNE11.jpg,MN,1,num_2,32,num_4,0.700132208876,,,2017_Sep_25_1429,60.0185188061,FEMA4ImagesEEG,001,201723,
AFNE01.JPG,AFNE01.JPG,AFNE01.JPG,AFNE01.JPG,AFNE01.JPG,AFNE01.JPG,,,,,,,,,,,,,3,9,39,7,,,,,,,,,,,AMSA11.jpg,AMNE06.jpg,AMNE15.jpg,AMSA15.jpg,AMNE15.jpg,MN,1,num_2,16,num_2,0.466844506096,,,2017_Sep_25_1429,60.0185188061,FEMA4ImagesEEG,001,201723,
AFNE01.JPG,AFNE01.JPG,AFNE01.JPG,AFNE01.JPG,AFNE01.JPG,AFNE01.JPG,,,,,,,,,,,,,4,0,40,8,,,,,,,,,,,AMNE03.jpg,AMNE15.jpg,AMSA02.jpg,AMSA08.jpg,AMNE15.jpg,MN,1,num_6,16,num_6,0.433577394782,,,2017_Sep_25_1429,60.0185188061,FEMA4ImagesEEG,001,201723,
AFNE01.JPG,AFNE01.JPG,AFNE01.JPG,AFNE01.JPG,AFNE01.JPG,AFNE01.JPG,,,,,,,,,,,,,4,1,41,4,,,,,,,,,,,AMNE03.jpg,AMSA16.jpg,AMSA09.jpg,AMNE07.jpg,AMSA16.jpg,MS,2,num_6,32,num_2,0.900139329256,,,2017_Sep_25_1429,60.0185188061,FEMA4ImagesEEG,001,201723,
AFNE01.JPG,AFNE01.JPG,AFNE01.JPG,AFNE01.JPG,AFNE01.JPG,AFNE01.JPG,,,,,,,,,,,,,4,2,42,9,,,,,,,,,,,AMSA09.jpg,AMNE01.jpg,AMSA16.jpg,AMNE14.jpg,AMSA09.jpg,MS,2,num_8,16,num_8,0.766827121988,,,2017_Sep_25_1429,60.0185188061,FEMA4ImagesEEG,001,201723,
AFNE01.JPG,AFNE01.JPG,AFNE01.JPG,AFNE01.JPG,AFNE01.JPG,AFNE01.JPG,,,,,,,,,,,,,4,3,43,1,,,,,,,,,,,AMNE12.jpg,AMSA16.jpg,AMNE06.jpg,AMSA09.jpg,AMNE06.jpg,MN,1,num_2,16,num_2,0.933461928536,,,2017_Sep_25_1429,60.0185188061,FEMA4ImagesEEG,001,201723,
AFNE01.JPG,AFNE01.JPG,AFNE01.JPG,AFNE01.JPG,AFNE01.JPG,AFNE01.JPG,,,,,,,,,,,,,4,4,44,6,,,,,,,,,,,AMNE14.jpg,AMSA13.jpg,AMNE04.jpg,AMSA19.jpg,AMNE04.jpg,MN,1,num_2,32,num_4,0.600135865301,,,2017_Sep_25_1429,60.0185188061,FEMA4ImagesEEG,001,201723,
AFNE01.JPG,AFNE01.JPG,AFNE01.JPG,AFNE01.JPG,AFNE01.JPG,AFNE01.JPG,,,,,,,,,,,,,4,5,45,0,,,,,,,,,,,AMSA08.jpg,AMNE02.jpg,AMSA18.jpg,AMNE13.jpg,AMSA08.jpg,MS,2,num_8,32,num_2,0.833448906487,,,2017_Sep_25_1429,60.0185188061,FEMA4ImagesEEG,001,201723,
AFNE01.JPG,AFNE01.JPG,AFNE01.JPG,AFNE01.JPG,AFNE01.JPG,AFNE01.JPG,,,,,,,,,,,,,4,6,46,2,,,,,,,,,,,AMSA17.jpg,AMNE02.jpg,AMNE17.jpg,AMSA10.jpg,AMNE17.jpg,MN,1,num_2,32,num_8,0.683483899193,,,2017_Sep_25_1429,60.0185188061,FEMA4ImagesEEG,001,201723,
AFNE01.JPG,AFNE01.JPG,AFNE01.JPG,AFNE01.JPG,AFNE01.JPG,AFNE01.JPG,,,,,,,,,,,,,4,7,47,5,,,,,,,,,,,AMNE16.jpg,AMSA01.jpg,AMNE03.jpg,AMSA08.jpg,AMSA08.jpg,MS,2,num_4,32,num_8,0.783420585183,,,2017_Sep_25_1429,60.0185188061,FEMA4ImagesEEG,001,201723,
AFNE01.JPG,AFNE01.JPG,AFNE01.JPG,AFNE01.JPG,AFNE01.JPG,AFNE01.JPG,,,,,,,,,,,,,4,8,48,3,,,,,,,,,,,AMNE06.jpg,AMSA05.jpg,AMNE08.jpg,AMSA03.jpg,AMSA03.jpg,MS,2,num_4,32,num_6,0.983523286006,,,2017_Sep_25_1429,60.0185188061,FEMA4ImagesEEG,001,201723,
AFNE01.JPG,AFNE01.JPG,AFNE01.JPG,AFNE01.JPG,AFNE01.JPG,AFNE01.JPG,,,,,,,,,,,,,4,9,49,7,,,,,,,,,,,AMSA20.jpg,AMNE09.jpg,AMNE14.jpg,AMSA05.jpg,AMNE14.jpg,MN,1,num_2,16,num_2,1.00019468894,,,2017_Sep_25_1429,60.0185188061,FEMA4ImagesEEG,001,201723,
AFNE01.JPG,AFNE01.JPG,AFNE01.JPG,AFNE01.JPG,AFNE01.JPG,AFNE01.JPG,,,,,,,,,,,,,5,0,50,2,,,,,,,,,,,AMSA02.jpg,AMNE03.jpg,AMSA11.jpg,AMNE08.jpg,AMNE08.jpg,MN,1,num_4,16,num_4,0.850106838363,,,2017_Sep_25_1429,60.0185188061,FEMA4ImagesEEG,001,201723,
AFNE01.JPG,AFNE01.JPG,AFNE01.JPG,AFNE01.JPG,AFNE01.JPG,AFNE01.JPG,,,,,,,,,,,,,5,1,51,1,,,,,,,,,,,AMSA13.jpg,AMNE08.jpg,AMNE18.jpg,AMSA11.jpg,AMSA11.jpg,MS,2,num_4,16,num_4,0.783465488756,,,2017_Sep_25_1429,60.0185188061,FEMA4ImagesEEG,001,201723,
AFNE01.JPG,AFNE01.JPG,AFNE01.JPG,AFNE01.JPG,AFNE01.JPG,AFNE01.JPG,,,,,,,,,,,,,5,2,52,3,,,,,,,,,,,AMNE17.jpg,AMSA04.jpg,AMNE01.jpg,AMSA09.jpg,AMNE17.jpg,MN,1,num_8,32,num_4,0.916747546493,,,2017_Sep_25_1429,60.0185188061,FEMA4ImagesEEG,001,201723,
AFNE01.JPG,AFNE01.JPG,AFNE01.JPG,AFNE01.JPG,AFNE01.JPG,AFNE01.JPG,,,,,,,,,,,,,5,3,53,0,,,,,,,,,,,AMSA18.jpg,AMNE15.jpg,AMSA12.jpg,AMNE12.jpg,AMNE12.jpg,MN,1,num_4,16,num_4,0.80022188765,,,2017_Sep_25_1429,60.0185188061,FEMA4ImagesEEG,001,201723,
AFNE01.JPG,AFNE01.JPG,AFNE01.JPG,AFNE01.JPG,AFNE01.JPG,AFNE01.JPG,,,,,,,,,,,,,5,4,54,5,,,,,,,,,,,AMNE04.jpg,AMSA03.jpg,AMNE11.jpg,AMSA02.jpg,AMSA03.jpg,MS,2,num_6,16,num_6,0.516768587026,,,2017_Sep_25_1429,60.0185188061,FEMA4ImagesEEG,001,201723,
AFNE01.JPG,AFNE01.JPG,AFNE01.JPG,AFNE01.JPG,AFNE01.JPG,AFNE01.JPG,,,,,,,,,,,,,5,5,55,7,,,,,,,,,,,AMNE18.jpg,AMSA17.jpg,AMNE19.jpg,AMSA15.jpg,AMSA15.jpg,MS,2,num_4,16,num_4,0.833456604247,,,2017_Sep_25_1429,60.0185188061,FEMA4ImagesEEG,001,201723,
AFNE01.JPG,AFNE01.JPG,AFNE01.JPG,AFNE01.JPG,AFNE01.JPG,AFNE01.JPG,,,,,,,,,,,,,5,6,56,9,,,,,,,,,,,AMNE07.jpg,AMNE18.jpg,AMSA19.jpg,AMSA01.jpg,AMSA19.jpg,MS,2,num_2,32,num_6,0.766744371183,,,2017_Sep_25_1429,60.0185188061,FEMA4ImagesEEG,001,201723,
AFNE01.JPG,AFNE01.JPG,AFNE01.JPG,AFNE01.JPG,AFNE01.JPG,AFNE01.JPG,,,,,,,,,,,,,5,7,57,6,,,,,,,,,,,AMNE09.jpg,AMSA17.jpg,AMSA07.jpg,AMNE20.jpg,AMSA17.jpg,MS,2,num_6,32,num_4,0.850099782081,,,2017_Sep_25_1429,60.0185188061,FEMA4ImagesEEG,001,201723,
AFNE01.JPG,AFNE01.JPG,AFNE01.JPG,AFNE01.JPG,AFNE01.JPG,AFNE01.JPG,,,,,,,,,,,,,5,8,58,8,,,,,,,,,,,AMSA03.jpg,AMSA12.jpg,AMNE04.jpg,AMNE12.jpg,AMSA12.jpg,MS,2,num_6,32,num_4,1.23316293507,,,2017_Sep_25_1429,60.0185188061,FEMA4ImagesEEG,001,201723,
AFNE01.JPG,AFNE01.JPG,AFNE01.JPG,AFNE01.JPG,AFNE01.JPG,AFNE01.JPG,,,,,,,,,,,,,5,9,59,4,,,,,,,,,,,AMNE04.jpg,AMNE17.jpg,AMSA19.jpg,AMSA07.jpg,AMSA19.jpg,MS,2,num_2,32,num_6,0.716777631867,,,2017_Sep_25_1429,60.0185188061,FEMA4ImagesEEG,001,201723,
,,,,,,,,,,,,,,,,,,,,,,,,,,,,,,,,,,,,,,,,,,,space,1.56671095014,2017_Sep_25_1429,60.0185188061,FEMA4ImagesEEG,001,201723,
AFNE01.JPG,AFNE01.JPG,AFNE01.JPG,AFNE01.JPG,AFNE01.JPG,AFNE01.JPG,,,,,,,,,,,,,,,,,0,0,0,8,,,,,,,AFSA18.jpg,AFNE14.jpg,AFNE17.jpg,AFSA16.jpg,AFNE14.jpg,FN,3,num_6,32,num_2,1.23369921168,,,2017_Sep_25_1429,60.0185188061,FEMA4ImagesEEG,001,201723,
AFNE01.JPG,AFNE01.JPG,AFNE01.JPG,AFNE01.JPG,AFNE01.JPG,AFNE01.JPG,,,,,,,,,,,,,,,,,0,1,1,5,,,,,,,AFSA10.jpg,AFNE02.jpg,AFSA03.jpg,AFNE05.jpg,AFSA10.jpg,FS,4,num_8,16,num_8,0.316796747968,,,2017_Sep_25_1429,60.0185188061,FEMA4ImagesEEG,001,201723,
AFNE01.JPG,AFNE01.JPG,AFNE01.JPG,AFNE01.JPG,AFNE01.JPG,AFNE01.JPG,,,,,,,,,,,,,,,,,0,2,2,0,,,,,,,AFNE11.jpg,AFNE16.jpg,AFSA06.jpg,AFSA13.jpg,AFNE16.jpg,FN,3,num_6,16,num_6,0.616751459514,,,2017_Sep_25_1429,60.0185188061,FEMA4ImagesEEG,001,201723,
AFNE01.JPG,AFNE01.JPG,AFNE01.JPG,AFNE01.JPG,AFNE01.JPG,AFNE01.JPG,,,,,,,,,,,,,,,,,0,3,3,2,,,,,,,AFNE02.jpg,AFSA04.jpg,AFNE06.jpg,AFSA13.jpg,AFSA04.jpg,FS,4,num_6,32,num_4,0.516794246185,,,2017_Sep_25_1429,60.0185188061,FEMA4ImagesEEG,001,201723,
AFNE01.JPG,AFNE01.JPG,AFNE01.JPG,AFNE01.JPG,AFNE01.JPG,AFNE01.JPG,,,,,,,,,,,,,,,,,0,4,4,9,,,,,,,AFSA02.jpg,AFNE20.jpg,AFSA19.jpg,AFNE04.jpg,AFNE04.jpg,FN,3,num_4,16,num_4,0.466850920871,,,2017_Sep_25_1429,60.0185188061,FEMA4ImagesEEG,001,201723,
AFNE01.JPG,AFNE01.JPG,AFNE01.JPG,AFNE01.JPG,AFNE01.JPG,AFNE01.JPG,,,,,,,,,,,,,,,,,0,5,5,6,,,,,,,AFSA02.jpg,AFNE11.jpg,AFSA10.jpg,AFNE02.jpg,AFSA10.jpg,FS,4,num_2,32,num_4,0.416773205681,,,2017_Sep_25_1429,60.0185188061,FEMA4ImagesEEG,001,201723,
AFNE01.JPG,AFNE01.JPG,AFNE01.JPG,AFNE01.JPG,AFNE01.JPG,AFNE01.JPG,,,,,,,,,,,,,,,,,0,6,6,7,,,,,,,AFSA05.jpg,AFNE05.jpg,AFNE09.jpg,AFSA17.jpg,AFNE09.jpg,FN,3,num_2,32,num_6,0.48349538169,,,2017_Sep_25_1429,60.0185188061,FEMA4ImagesEEG,001,201723,
AFNE01.JPG,AFNE01.JPG,AFNE01.JPG,AFNE01.JPG,AFNE01.JPG,AFNE01.JPG,,,,,,,,,,,,,,,,,0,7,7,3,,,,,,,AFSA09.jpg,AFNE14.jpg,AFNE07.jpg,AFSA18.jpg,AFNE07.jpg,FN,3,num_2,16,num_2,0.833343383187,,,2017_Sep_25_1429,60.0185188061,FEMA4ImagesEEG,001,201723,
AFNE01.JPG,AFNE01.JPG,AFNE01.JPG,AFNE01.JPG,AFNE01.JPG,AFNE01.JPG,,,,,,,,,,,,,,,,,0,8,8,4,,,,,,,AFNE05.jpg,AFSA19.jpg,AFSA12.jpg,AFNE04.jpg,AFSA12.jpg,FS,4,num_2,16,num_2,0.533450574352,,,2017_Sep_25_1429,60.0185188061,FEMA4ImagesEEG,001,201723,
AFNE01.JPG,AFNE01.JPG,AFNE01.JPG,AFNE01.JPG,AFNE01.JPG,AFNE01.JPG,,,,,,,,,,,,,,,,,0,9,9,1,,,,,,,AFSA02.jpg,AFNE12.jpg,AFSA04.jpg,AFNE16.jpg,AFNE16.jpg,FN,3,num_4,16,num_4,0.616826512589,,,2017_Sep_25_1429,60.0185188061,FEMA4ImagesEEG,001,201723,
AFNE01.JPG,AFNE01.JPG,AFNE01.JPG,AFNE01.JPG,AFNE01.JPG,AFNE01.JPG,,,,,,,,,,,,,,,,,1,0,10,4,,,,,,,AFNE10.jpg,AFSA10.jpg,AFSA14.jpg,AFNE12.jpg,AFNE12.jpg,FN,3,num_4,16,num_4,0.40013451819,,,2017_Sep_25_1429,60.0185188061,FEMA4ImagesEEG,001,201723,
AFNE01.JPG,AFNE01.JPG,AFNE01.JPG,AFNE01.JPG,AFNE01.JPG,AFNE01.JPG,,,,,,,,,,,,,,,,,1,1,11,8,,,,,,,AFSA04.jpg,AFSA16.jpg,AFNE13.jpg,AFNE17.jpg,AFNE17.jpg,FN,3,num_4,32,num_2,0.666803836299,,,2017_Sep_25_1429,60.0185188061,FEMA4ImagesEEG,001,201723,
AFNE01.JPG,AFNE01.JPG,AFNE01.JPG,AFNE01.JPG,AFNE01.JPG,AFNE01.JPG,,,,,,,,,,,,,,,,,1,2,12,1,,,,,,,AFSA04.jpg,AFNE14.jpg,AFSA11.jpg,AFNE01.jpg,AFSA04.jpg,FS,4,num_8,32,num_6,0.566641028883,,,2017_Sep_25_1429,60.0185188061,FEMA4ImagesEEG,001,201723,
AFNE01.JPG,AFNE01.JPG,AFNE01.JPG,AFNE01.JPG,AFNE01.JPG,AFNE01.JPG,,,,,,,,,,,,,,,,,1,3,13,6,,,,,,,AFNE16.jpg,AFSA12.jpg,AFSA18.jpg,AFNE20.jpg,AFSA18.jpg,FS,4,num_2,32,num_4,0.61698624093,,,2017_Sep_25_1429,60.0185188061,FEMA4ImagesEEG,001,201723,
AFNE01.JPG,AFNE01.JPG,AFNE01.JPG,AFNE01.JPG,AFNE01.JPG,AFNE01.JPG,,,,,,,,,,,,,,,,,1,4,14,3,,,,,,,AFNE15.jpg,AFSA08.jpg,AFSA09.jpg,AFNE17.jpg,AFSA08.jpg,FS,4,num_6,32,num_2,0.616824267403,,,2017_Sep_25_1429,60.0185188061,FEMA4ImagesEEG,001,201723,
AFNE01.JPG,AFNE01.JPG,AFNE01.JPG,AFNE01.JPG,AFNE01.JPG,AFNE01.JPG,,,,,,,,,,,,,,,,,1,5,15,0,,,,,,,AFSA07.jpg,AFNE06.jpg,AFSA02.jpg,AFNE13.jpg,AFSA02.jpg,FS,4,num_2,16,num_2,0.733464751043,,,2017_Sep_25_1429,60.0185188061,FEMA4ImagesEEG,001,201723,
AFNE01.JPG,AFNE01.JPG,AFNE01.JPG,AFNE01.JPG,AFNE01.JPG,AFNE01.JPG,,,,,,,,,,,,,,,,,1,6,16,9,,,,,,,AFNE03.jpg,AFSA09.jpg,AFSA16.jpg,AFNE19.jpg,AFSA16.jpg,FS,4,num_2,16,num_2,0.533467894304,,,2017_Sep_25_1429,60.0185188061,FEMA4ImagesEEG,001,201723,
AFNE01.JPG,AFNE01.JPG,AFNE01.JPG,AFNE01.JPG,AFNE01.JPG,AFNE01.JPG,,,,,,,,,,,,,,,,,1,7,17,2,,,,,,,AFSA04.jpg,AFSA16.jpg,AFNE05.jpg,AFNE10.jpg,AFSA04.jpg,FS,4,num_8,32,num_4,0.733566746232,,,2017_Sep_25_1429,60.0185188061,FEMA4ImagesEEG,001,201723,
AFNE01.JPG,AFNE01.JPG,AFNE01.JPG,AFNE01.JPG,AFNE01.JPG,AFNE01.JPG,,,,,,,,,,,,,,,,,1,8,18,5,,,,,,,AFNE12.jpg,AFSA15.jpg,AFNE11.jpg,AFSA10.jpg,AFSA10.jpg,FS,4,num_4,32,num_6,0.566745269258,,,2017_Sep_25_1429,60.0185188061,FEMA4ImagesEEG,001,201723,
AFNE01.JPG,AFNE01.JPG,AFNE01.JPG,AFNE01.JPG,AFNE01.JPG,AFNE01.JPG,,,,,,,,,,,,,,,,,1,9,19,7,,,,,,,AFSA01.jpg,AFNE09.jpg,AFSA09.jpg,AFNE05.jpg,AFSA01.jpg,FS,4,num_8,32,num_4,0.466797998844,,,2017_Sep_25_1429,60.0185188061,FEMA4ImagesEEG,001,201723,
AFNE01.JPG,AFNE01.JPG,AFNE01.JPG,AFNE01.JPG,AFNE01.JPG,AFNE01.JPG,,,,,,,,,,,,,,,,,2,0,20,3,,,,,,,AFNE02.jpg,AFSA15.jpg,AFSA18.jpg,AFNE11.jpg,AFSA15.jpg,FS,4,num_6,16,num_6,0.766860158183,,,2017_Sep_25_1429,60.0185188061,FEMA4ImagesEEG,001,201723,
AFNE01.JPG,AFNE01.JPG,AFNE01.JPG,AFNE01.JPG,AFNE01.JPG,AFNE01.JPG,,,,,,,,,,,,,,,,,2,1,21,5,,,,,,,AFSA04.jpg,AFSA07.jpg,AFNE17.jpg,AFNE15.jpg,AFSA07.jpg,FS,4,num_6,16,num_6,0.616623163689,,,2017_Sep_25_1429,60.0185188061,FEMA4ImagesEEG,001,201723,
AFNE01.JPG,AFNE01.JPG,AFNE01.JPG,AFNE01.JPG,AFNE01.JPG,AFNE01.JPG,,,,,,,,,,,,,,,,,2,2,22,4,,,,,,,AFNE19.jpg,AFSA16.jpg,AFNE05.jpg,AFSA18.jpg,AFNE19.jpg,FN,3,num_8,32,num_4,0.916834466945,,,2017_Sep_25_1429,60.0185188061,FEMA4ImagesEEG,001,201723,
AFNE01.JPG,AFNE01.JPG,AFNE01.JPG,AFNE01.JPG,AFNE01.JPG,AFNE01.JPG,,,,,,,,,,,,,,,,,2,3,23,0,,,,,,,AFNE06.jpg,AFSA16.jpg,AFNE08.jpg,AFSA01.jpg,AFNE06.jpg,FN,3,num_8,32,num_6,0.883390948875,,,2017_Sep_25_1429,60.0185188061,FEMA4ImagesEEG,001,201723,
AFNE01.JPG,AFNE01.JPG,AFNE01.JPG,AFNE01.JPG,AFNE01.JPG,AFNE01.JPG,,,,,,,,,,,,,,,,,2,4,24,8,,,,,,,AFNE16.jpg,AFSA16.jpg,AFSA14.jpg,AFNE08.jpg,AFNE16.jpg,FN,3,num_8,32,num_4,0.666795497062,,,2017_Sep_25_1429,60.0185188061,FEMA4ImagesEEG,001,201723,
AFNE01.JPG,AFNE01.JPG,AFNE01.JPG,AFNE01.JPG,AFNE01.JPG,AFNE01.JPG,,,,,,,,,,,,,,,,,2,5,25,7,,,,,,,AFSA03.jpg,AFSA13.jpg,AFNE10.jpg,AFNE19.jpg,AFNE19.jpg,FN,3,num_4,16,num_4,0.483516871231,,,2017_Sep_25_1429,60.0185188061,FEMA4ImagesEEG,001,201723,
AFNE01.JPG,AFNE01.JPG,AFNE01.JPG,AFNE01.JPG,AFNE01.JPG,AFNE01.JPG,,,,,,,,,,,,,,,,,2,6,26,2,,,,,,,AFNE12.jpg,AFSA03.jpg,AFNE04.jpg,AFSA04.jpg,AFNE12.jpg,FN,3,num_8,16,num_8,0.53347013946,,,2017_Sep_25_1429,60.0185188061,FEMA4ImagesEEG,001,201723,
AFNE01.JPG,AFNE01.JPG,AFNE01.JPG,AFNE01.JPG,AFNE01.JPG,AFNE01.JPG,,,,,,,,,,,,,,,,,2,7,27,9,,,,,,,AFSA20.jpg,AFNE10.jpg,AFNE16.jpg,AFSA12.jpg,AFNE10.jpg,FN,3,num_6,16,num_6,0.516755757446,,,2017_Sep_25_1429,60.0185188061,FEMA4ImagesEEG,001,201723,
AFNE01.JPG,AFNE01.JPG,AFNE01.JPG,AFNE01.JPG,AFNE01.JPG,AFNE01.JPG,,,,,,,,,,,,,,,,,2,8,28,6,,,,,,,AFSA14.jpg,AFNE12.jpg,AFNE10.jpg,AFSA11.jpg,AFNE10.jpg,FN,3,num_2,32,num_6,0.533485855703,,,2017_Sep_25_1429,60.0185188061,FEMA4ImagesEEG,001,201723,
AFNE01.JPG,AFNE01.JPG,AFNE01.JPG,AFNE01.JPG,AFNE01.JPG,AFNE01.JPG,,,,,,,,,,,,,,,,,2,9,29,1,,,,,,,AFNE15.jpg,AFSA06.jpg,AFSA05.jpg,AFNE04.jpg,AFNE15.jpg,FN,3,num_8,32,num_4,0.537838933553,,,2017_Sep_25_1429,60.0185188061,FEMA4ImagesEEG,001,201723,
AFNE01.JPG,AFNE01.JPG,AFNE01.JPG,AFNE01.JPG,AFNE01.JPG,AFNE01.JPG,,,,,,,,,,,,,,,,,3,0,30,8,,,,,,,AFSA15.jpg,AFNE03.jpg,AFNE18.jpg,AFSA07.jpg,AFSA07.jpg,FS,4,num_4,16,num_4,0.783502694539,,,2017_Sep_25_1429,60.0185188061,FEMA4ImagesEEG,001,201723,
AFNE01.JPG,AFNE01.JPG,AFNE01.JPG,AFNE01.JPG,AFNE01.JPG,AFNE01.JPG,,,,,,,,,,,,,,,,,3,1,31,7,,,,,,,AFSA15.jpg,AFNE16.jpg,AFNE03.jpg,AFSA07.jpg,AFNE16.jpg,FN,3,num_6,16,num_6,0.900146385567,,,2017_Sep_25_1429,60.0185188061,FEMA4ImagesEEG,001,201723,
AFNE01.JPG,AFNE01.JPG,AFNE01.JPG,AFNE01.JPG,AFNE01.JPG,AFNE01.JPG,,,,,,,,,,,,,,,,,3,2,32,1,,,,,,,AFSA05.jpg,AFSA02.jpg,AFNE05.jpg,AFNE10.jpg,AFNE05.jpg,FN,3,num_2,32,num_6,0.650157451077,,,2017_Sep_25_1429,60.0185188061,FEMA4ImagesEEG,001,201723,
AFNE01.JPG,AFNE01.JPG,AFNE01.JPG,AFNE01.JPG,AFNE01.JPG,AFNE01.JPG,,,,,,,,,,,,,,,,,3,3,33,2,,,,,,,AFSA13.jpg,AFNE18.jpg,AFNE05.jpg,AFSA09.jpg,AFSA13.jpg,FS,4,num_8,32,num_2,0.76674405043,,,2017_Sep_25_1429,60.0185188061,FEMA4ImagesEEG,001,201723,
AFNE01.JPG,AFNE01.JPG,AFNE01.JPG,AFNE01.JPG,AFNE01.JPG,AFNE01.JPG,,,,,,,,,,,,,,,,,3,4,34,4,,,,,,,AFSA11.jpg,AFNE10.jpg,AFSA01.jpg,AFNE01.jpg,AFNE10.jpg,FN,3,num_6,16,num_6,0.63346423785,,,2017_Sep_25_1429,60.0185188061,FEMA4ImagesEEG,001,201723,
AFNE01.JPG,AFNE01.JPG,AFNE01.JPG,AFNE01.JPG,AFNE01.JPG,AFNE01.JPG,,,,,,,,,,,,,,,,,3,5,35,5,,,,,,,AFNE16.jpg,AFNE20.jpg,AFSA09.jpg,AFSA06.jpg,AFSA06.jpg,FS,4,num_4,16,num_4,0.849995220982,,,2017_Sep_25_1429,60.0185188061,FEMA4ImagesEEG,001,201723,
AFNE01.JPG,AFNE01.JPG,AFNE01.JPG,AFNE01.JPG,AFNE01.JPG,AFNE01.JPG,,,,,,,,,,,,,,,,,3,6,36,9,,,,,,,AFSA10.jpg,AFNE09.jpg,AFNE14.jpg,AFSA02.jpg,AFSA10.jpg,FS,4,num_8,32,num_2,1.00015780388,,,2017_Sep_25_1429,60.0185188061,FEMA4ImagesEEG,001,201723,
AFNE01.JPG,AFNE01.JPG,AFNE01.JPG,AFNE01.JPG,AFNE01.JPG,AFNE01.JPG,,,,,,,,,,,,,,,,,3,7,37,0,,,,,,,AFSA13.jpg,AFSA09.jpg,AFNE02.jpg,AFNE12.jpg,AFSA13.jpg,FS,4,num_8,32,num_6,0.583451953542,,,2017_Sep_25_1429,60.0185188061,FEMA4ImagesEEG,001,201723,
AFNE01.JPG,AFNE01.JPG,AFNE01.JPG,AFNE01.JPG,AFNE01.JPG,AFNE01.JPG,,,,,,,,,,,,,,,,,3,8,38,6,,,,,,,AFSA11.jpg,AFSA18.jpg,AFNE06.jpg,AFNE02.jpg,AFNE06.jpg,FN,3,num_2,16,num_2,0.700071268366,,,2017_Sep_25_1429,60.0185188061,FEMA4ImagesEEG,001,201723,
AFNE01.JPG,AFNE01.JPG,AFNE01.JPG,AFNE01.JPG,AFNE01.JPG,AFNE01.JPG,,,,,,,,,,,,,,,,,3,9,39,3,,,,,,,AFSA02.jpg,AFNE03.jpg,AFNE17.jpg,AFSA11.jpg,AFNE17.jpg,FN,3,num_2,32,num_4,0.616807588958,,,2017_Sep_25_1429,60.0185188061,FEMA4ImagesEEG,001,201723,
AFNE01.JPG,AFNE01.JPG,AFNE01.JPG,AFNE01.JPG,AFNE01.JPG,AFNE01.JPG,,,,,,,,,,,,,,,,,4,0,40,1,,,,,,,AFNE06.jpg,AFNE07.jpg,AFSA16.jpg,AFSA11.jpg,AFSA11.jpg,FS,4,num_4,32,num_2,0.550175540789,,,2017_Sep_25_1429,60.0185188061,FEMA4ImagesEEG,001,201723,
AFNE01.JPG,AFNE01.JPG,AFNE01.JPG,AFNE01.JPG,AFNE01.JPG,AFNE01.JPG,,,,,,,,,,,,,,,,,4,1,41,5,,,,,,,AFSA05.jpg,AFSA07.jpg,AFNE16.jpg,AFNE01.jpg,AFSA07.jpg,FS,4,num_6,16,num_6,0.650143338513,,,2017_Sep_25_1429,60.0185188061,FEMA4ImagesEEG,001,201723,
AFNE01.JPG,AFNE01.JPG,AFNE01.JPG,AFNE01.JPG,AFNE01.JPG,AFNE01.JPG,,,,,,,,,,,,,,,,,4,2,42,9,,,,,,,AFNE02.jpg,AFNE19.jpg,AFSA01.jpg,AFSA06.jpg,AFSA01.jpg,FS,4,num_2,32,num_4,0.783449451759,,,2017_Sep_25_1429,60.0185188061,FEMA4ImagesEEG,001,201723,
AFNE01.JPG,AFNE01.JPG,AFNE01.JPG,AFNE01.JPG,AFNE01.JPG,AFNE01.JPG,,,,,,,,,,,,,,,,,4,3,43,2,,,,,,,AFSA19.jpg,AFSA03.jpg,AFNE08.jpg,AFNE05.jpg,AFSA19.jpg,FS,4,num_8,32,num_4,1.00009750485,,,2017_Sep_25_1429,60.0185188061,FEMA4ImagesEEG,001,201723,
AFNE01.JPG,AFNE01.JPG,AFNE01.JPG,AFNE01.JPG,AFNE01.JPG,AFNE01.JPG,,,,,,,,,,,,,,,,,4,4,44,7,,,,,,,AFSA09.jpg,AFSA19.jpg,AFNE08.jpg,AFNE19.jpg,AFNE08.jpg,FN,3,num_2,32,num_6,0.883445153828,,,2017_Sep_25_1429,60.0185188061,FEMA4ImagesEEG,001,201723,
AFNE01.JPG,AFNE01.JPG,AFNE01.JPG,AFNE01.JPG,AFNE01.JPG,AFNE01.JPG,,,,,,,,,,,,,,,,,4,5,45,3,,,,,,,AFSA20.jpg,AFNE13.jpg,AFNE02.jpg,AFSA08.jpg,AFNE13.jpg,FN,3,num_6,32,num_4,0.716792706662,,,2017_Sep_25_1429,60.0185188061,FEMA4ImagesEEG,001,201723,
AFNE01.JPG,AFNE01.JPG,AFNE01.JPG,AFNE01.JPG,AFNE01.JPG,AFNE01.JPG,,,,,,,,,,,,,,,,,4,6,46,4,,,,,,,AFSA03.jpg,AFNE01.jpg,AFNE17.jpg,AFSA14.jpg,AFSA03.jpg,FS,4,num_8,32,num_2,0.583511931822,,,2017_Sep_25_1429,60.0185188061,FEMA4ImagesEEG,001,201723,
AFNE01.JPG,AFNE01.JPG,AFNE01.JPG,AFNE01.JPG,AFNE01.JPG,AFNE01.JPG,,,,,,,,,,,,,,,,,4,7,47,0,,,,,,,AFSA12.jpg,AFSA14.jpg,AFNE08.jpg,AFNE03.jpg,AFSA12.jpg,FS,4,num_8,16,num_8,0.450120181136,,,2017_Sep_25_1429,60.0185188061,FEMA4ImagesEEG,001,201723,
AFNE01.JPG,AFNE01.JPG,AFNE01.JPG,AFNE01.JPG,AFNE01.JPG,AFNE01.JPG,,,,,,,,,,,,,,,,,4,8,48,8,,,,,,,AFNE18.jpg,AFSA17.jpg,AFSA19.jpg,AFNE17.jpg,AFNE17.jpg,FN,3,num_4,16,num_4,0.583447142446,,,2017_Sep_25_1429,60.0185188061,FEMA4ImagesEEG,001,201723,
AFNE01.JPG,AFNE01.JPG,AFNE01.JPG,AFNE01.JPG,AFNE01.JPG,AFNE01.JPG,,,,,,,,,,,,,,,,,4,9,49,6,,,,,,,AFNE17.jpg,AFSA20.jpg,AFNE09.jpg,AFSA11.jpg,AFNE17.jpg,FN,3,num_8,32,num_4,0.53346757355,,,2017_Sep_25_1429,60.0185188061,FEMA4ImagesEEG,001,201723,
AFNE01.JPG,AFNE01.JPG,AFNE01.JPG,AFNE01.JPG,AFNE01.JPG,AFNE01.JPG,,,,,,,,,,,,,,,,,5,0,50,1,,,,,,,AFSA04.jpg,AFNE11.jpg,AFSA18.jpg,AFNE04.jpg,AFSA04.jpg,FS,4,num_8,32,num_4,0.683484861423,,,2017_Sep_25_1429,60.0185188061,FEMA4ImagesEEG,001,201723,
AFNE01.JPG,AFNE01.JPG,AFNE01.JPG,AFNE01.JPG,AFNE01.JPG,AFNE01.JPG,,,,,,,,,,,,,,,,,5,1,51,3,,,,,,,AFSA20.jpg,AFSA05.jpg,AFNE17.jpg,AFNE16.jpg,AFNE16.jpg,FN,3,num_4,32,num_2,0.850118384988,,,2017_Sep_25_1429,60.0185188061,FEMA4ImagesEEG,001,201723,
AFNE01.JPG,AFNE01.JPG,AFNE01.JPG,AFNE01.JPG,AFNE01.JPG,AFNE01.JPG,,,,,,,,,,,,,,,,,5,2,52,4,,,,,,,AFSA09.jpg,AFSA16.jpg,AFNE04.jpg,AFNE20.jpg,AFSA16.jpg,FS,4,num_6,16,num_6,0.833457887231,,,2017_Sep_25_1429,60.0185188061,FEMA4ImagesEEG,001,201723,
AFNE01.JPG,AFNE01.JPG,AFNE01.JPG,AFNE01.JPG,AFNE01.JPG,AFNE01.JPG,,,,,,,,,,,,,,,,,5,3,53,0,,,,,,,AFSA01.jpg,AFNE15.jpg,AFNE11.jpg,AFSA11.jpg,AFSA11.jpg,FS,4,num_4,16,num_4,0.683529444213,,,2017_Sep_25_1429,60.0185188061,FEMA4ImagesEEG,001,201723,
AFNE01.JPG,AFNE01.JPG,AFNE01.JPG,AFNE01.JPG,AFNE01.JPG,AFNE01.JPG,,,,,,,,,,,,,,,,,5,4,54,6,,,,,,,AFSA01.jpg,AFSA08.jpg,AFNE08.jpg,AFNE12.jpg,AFNE12.jpg,FN,3,num_4,16,num_4,0.566726024903,,,2017_Sep_25_1429,60.0185188061,FEMA4ImagesEEG,001,201723,
AFNE01.JPG,AFNE01.JPG,AFNE01.JPG,AFNE01.JPG,AFNE01.JPG,AFNE01.JPG,,,,,,,,,,,,,,,,,5,5,55,8,,,,,,,AFNE12.jpg,AFSA20.jpg,AFSA02.jpg,AFNE07.jpg,AFSA02.jpg,FS,4,num_2,32,num_6,0.68350346433,,,2017_Sep_25_1429,60.0185188061,FEMA4ImagesEEG,001,201723,
AFNE01.JPG,AFNE01.JPG,AFNE01.JPG,AFNE01.JPG,AFNE01.JPG,AFNE01.JPG,,,,,,,,,,,,,,,,,5,6,56,7,,,,,,,AFSA05.jpg,AFNE09.jpg,AFSA01.jpg,AFNE01.jpg,AFSA01.jpg,FS,4,num_2,32,num_6,0.700175829435,,,2017_Sep_25_1429,60.0185188061,FEMA4ImagesEEG,001,201723,
AFNE01.JPG,AFNE01.JPG,AFNE01.JPG,AFNE01.JPG,AFNE01.JPG,AFNE01.JPG,,,,,,,,,,,,,,,,,5,7,57,9,,,,,,,AFSA18.jpg,AFNE14.jpg,AFSA15.jpg,AFNE05.jpg,AFSA15.jpg,FS,4,num_2,32,num_6,0.982927993318,,,2017_Sep_25_1429,60.0185188061,FEMA4ImagesEEG,001,201723,
AFNE01.JPG,AFNE01.JPG,AFNE01.JPG,AFNE01.JPG,AFNE01.JPG,AFNE01.JPG,,,,,,,,,,,,,,,,,5,8,58,2,,,,,,,AFNE12.jpg,AFNE10.jpg,AFSA15.jpg,AFSA04.jpg,AFSA15.jpg,FS,4,num_2,16,num_2,0.500031111762,,,2017_Sep_25_1429,60.0185188061,FEMA4ImagesEEG,001,201723,
AFNE01.JPG,AFNE01.JPG,AFNE01.JPG,AFNE01.JPG,AFNE01.JPG,AFNE01.JPG,,,,,,,,,,,,,,,,,5,9,59,5,,,,,,,AFSA05.jpg,AFNE12.jpg,AFNE14.jpg,AFSA19.jpg,AFNE12.jpg,FN,3,num_6,16,num_6,0.600274424796,,,2017_Sep_25_1429,60.0185188061,FEMA4ImagesEEG,001,201723,
,,,,,,,,,,,,,,,,,,,,,,,,,,,,,,,,,,,,,,,,,,,space,1.65001087307,2017_Sep_25_1429,60.0185188061,FEMA4ImagesEEG,001,201723,
AFNE01.JPG,AFNE01.JPG,AFNE01.JPG,AFNE01.JPG,AFNE01.JPG,AFNE01.JPG,,,,,,,,,,,,,,,,,,,,,0,0,0,0,,,AMSA18.jpg,AMNE12.jpg,AMSA01.jpg,AMNE01.jpg,AMNE12.jpg,MN,1,num_6,16,num_6,0.517070402973,,,2017_Sep_25_1429,60.0185188061,FEMA4ImagesEEG,001,201723,
AFNE01.JPG,AFNE01.JPG,AFNE01.JPG,AFNE01.JPG,AFNE01.JPG,AFNE01.JPG,,,,,,,,,,,,,,,,,,,,,0,1,1,1,,,AMNE12.jpg,AMSA18.jpg,AMSA10.jpg,AMNE03.jpg,AMSA18.jpg,MS,2,num_6,16,num_6,0.683471069613,,,2017_Sep_25_1429,60.0185188061,FEMA4ImagesEEG,001,201723,
AFNE01.JPG,AFNE01.JPG,AFNE01.JPG,AFNE01.JPG,AFNE01.JPG,AFNE01.JPG,,,,,,,,,,,,,,,,,,,,,0,2,2,6,,,AMSA17.jpg,AMSA18.jpg,AMNE07.jpg,AMNE12.jpg,AMSA18.jpg,MS,2,num_6,16,num_6,0.416804638138,,,2017_Sep_25_1429,60.0185188061,FEMA4ImagesEEG,001,201723,
AFNE01.JPG,AFNE01.JPG,AFNE01.JPG,AFNE01.JPG,AFNE01.JPG,AFNE01.JPG,,,,,,,,,,,,,,,,,,,,,0,3,3,2,,,AMSA05.jpg,AMSA12.jpg,AMNE20.jpg,AMNE12.jpg,AMSA12.jpg,MS,2,num_6,16,num_6,0.516783020284,,,2017_Sep_25_1429,60.0185188061,FEMA4ImagesEEG,001,201723,
AFNE01.JPG,AFNE01.JPG,AFNE01.JPG,AFNE01.JPG,AFNE01.JPG,AFNE01.JPG,,,,,,,,,,,,,,,,,,,,,0,4,4,4,,,AMSA10.jpg,AMNE10.jpg,AMNE01.jpg,AMSA15.jpg,AMSA10.jpg,MS,2,num_8,16,num_8,0.883436493867,,,2017_Sep_25_1429,60.0185188061,FEMA4ImagesEEG,001,201723,
AFNE01.JPG,AFNE01.JPG,AFNE01.JPG,AFNE01.JPG,AFNE01.JPG,AFNE01.JPG,,,,,,,,,,,,,,,,,,,,,0,5,5,9,,,AMNE14.jpg,AMSA07.jpg,AMSA11.jpg,AMNE17.jpg,AMNE17.jpg,MN,1,num_4,32,num_6,0.666900378943,,,2017_Sep_25_1429,60.0185188061,FEMA4ImagesEEG,001,201723,
AFNE01.JPG,AFNE01.JPG,AFNE01.JPG,AFNE01.JPG,AFNE01.JPG,AFNE01.JPG,,,,,,,,,,,,,,,,,,,,,0,6,6,3,,,AMSA13.jpg,AMNE11.jpg,AMSA16.jpg,AMNE05.jpg,AMSA13.jpg,MS,2,num_8,32,num_6,0.466806338052,,,2017_Sep_25_1429,60.0185188061,FEMA4ImagesEEG,001,201723,
AFNE01.JPG,AFNE01.JPG,AFNE01.JPG,AFNE01.JPG,AFNE01.JPG,AFNE01.JPG,,,,,,,,,,,,,,,,,,,,,0,7,7,7,,,AMSA12.jpg,AMNE18.jpg,AMNE04.jpg,AMSA03.jpg,AMSA12.jpg,MS,2,num_8,32,num_6,0.783435980702,,,2017_Sep_25_1429,60.0185188061,FEMA4ImagesEEG,001,201723,
AFNE01.JPG,AFNE01.JPG,AFNE01.JPG,AFNE01.JPG,AFNE01.JPG,AFNE01.JPG,,,,,,,,,,,,,,,,,,,,,0,8,8,8,,,AMSA08.jpg,AMSA13.jpg,AMNE02.jpg,AMNE06.jpg,AMNE06.jpg,MN,1,num_4,32,num_8,0.950136218104,,,2017_Sep_25_1429,60.0185188061,FEMA4ImagesEEG,001,201723,
AFNE01.JPG,AFNE01.JPG,AFNE01.JPG,AFNE01.JPG,AFNE01.JPG,AFNE01.JPG,,,,,,,,,,,,,,,,,,,,,0,9,9,5,,,AMNE03.jpg,AMSA17.jpg,AMNE17.jpg,AMSA01.jpg,AMSA17.jpg,MS,2,num_6,16,num_6,0.71677185857,,,2017_Sep_25_1429,60.0185188061,FEMA4ImagesEEG,001,201723,
AFNE01.JPG,AFNE01.JPG,AFNE01.JPG,AFNE01.JPG,AFNE01.JPG,AFNE01.JPG,,,,,,,,,,,,,,,,,,,,,1,0,10,7,,,AMSA06.jpg,AMSA04.jpg,AMNE02.jpg,AMNE19.jpg,AMNE19.jpg,MN,1,num_4,16,num_4,0.633462313417,,,2017_Sep_25_1429,60.0185188061,FEMA4ImagesEEG,001,201723,
AFNE01.JPG,AFNE01.JPG,AFNE01.JPG,AFNE01.JPG,AFNE01.JPG,AFNE01.JPG,,,,,,,,,,,,,,,,,,,,,1,1,11,6,,,AMNE03.jpg,AMNE20.jpg,AMSA02.jpg,AMSA06.jpg,AMNE03.jpg,MN,1,num_8,32,num_2,1.08340897443,,,2017_Sep_25_1429,60.0185188061,FEMA4ImagesEEG,001,201723,
AFNE01.JPG,AFNE01.JPG,AFNE01.JPG,AFNE01.JPG,AFNE01.JPG,AFNE01.JPG,,,,,,,,,,,,,,,,,,,,,1,2,12,5,,,AMSA01.jpg,AMSA08.jpg,AMNE13.jpg,AMNE14.jpg,AMSA08.jpg,MS,2,num_6,16,num_6,0.600132657913,,,2017_Sep_25_1429,60.0185188061,FEMA4ImagesEEG,001,201723,
AFNE01.JPG,AFNE01.JPG,AFNE01.JPG,AFNE01.JPG,AFNE01.JPG,AFNE01.JPG,,,,,,,,,,,,,,,,,,,,,1,3,13,0,,,AMSA04.jpg,AMNE05.jpg,AMSA13.jpg,AMNE04.jpg,AMNE05.jpg,MN,1,num_6,16,num_6,0.766787350265,,,2017_Sep_25_1429,60.0185188061,FEMA4ImagesEEG,001,201723,
AFNE01.JPG,AFNE01.JPG,AFNE01.JPG,AFNE01.JPG,AFNE01.JPG,AFNE01.JPG,,,,,,,,,,,,,,,,,,,,,1,4,14,8,,,AMNE05.jpg,AMNE04.jpg,AMSA06.jpg,AMSA12.jpg,AMNE04.jpg,MN,1,num_6,16,num_6,0.700185130903,,,2017_Sep_25_1429,60.0185188061,FEMA4ImagesEEG,001,201723,
AFNE01.JPG,AFNE01.JPG,AFNE01.JPG,AFNE01.JPG,AFNE01.JPG,AFNE01.JPG,,,,,,,,,,,,,,,,,,,,,1,5,15,3,,,AMSA16.jpg,AMSA08.jpg,AMNE19.jpg,AMNE11.jpg,AMNE11.jpg,MN,1,num_4,32,num_6,0.616635672515,,,2017_Sep_25_1429,60.0185188061,FEMA4ImagesEEG,001,201723,
AFNE01.JPG,AFNE01.JPG,AFNE01.JPG,AFNE01.JPG,AFNE01.JPG,AFNE01.JPG,,,,,,,,,,,,,,,,,,,,,1,6,16,9,,,AMSA08.jpg,AMSA01.jpg,AMNE18.jpg,AMNE01.jpg,AMSA01.jpg,MS,2,num_6,16,num_6,0.500122201775,,,2017_Sep_25_1429,60.0185188061,FEMA4ImagesEEG,001,201723,
AFNE01.JPG,AFNE01.JPG,AFNE01.JPG,AFNE01.JPG,AFNE01.JPG,AFNE01.JPG,,,,,,,,,,,,,,,,,,,,,1,7,17,1,,,AMNE14.jpg,AMSA14.jpg,AMNE08.jpg,AMSA12.jpg,AMSA12.jpg,MS,2,num_4,16,num_4,0.866760279867,,,2017_Sep_25_1429,60.0185188061,FEMA4ImagesEEG,001,201723,
AFNE01.JPG,AFNE01.JPG,AFNE01.JPG,AFNE01.JPG,AFNE01.JPG,AFNE01.JPG,,,,,,,,,,,,,,,,,,,,,1,8,18,2,,,AMNE09.jpg,AMNE18.jpg,AMSA15.jpg,AMSA17.jpg,AMSA15.jpg,MS,2,num_2,16,num_2,0.600187504373,,,2017_Sep_25_1429,60.0185188061,FEMA4ImagesEEG,001,201723,
AFNE01.JPG,AFNE01.JPG,AFNE01.JPG,AFNE01.JPG,AFNE01.JPG,AFNE01.JPG,,,,,,,,,,,,,,,,,,,,,1,9,19,4,,,AMNE05.jpg,AMSA02.jpg,AMNE17.jpg,AMSA08.jpg,AMNE05.jpg,MN,1,num_8,32,num_4,0.666799666709,,,2017_Sep_25_1429,60.0185188061,FEMA4ImagesEEG,001,201723,
AFNE01.JPG,AFNE01.JPG,AFNE01.JPG,AFNE01.JPG,AFNE01.JPG,AFNE01.JPG,,,,,,,,,,,,,,,,,,,,,2,0,20,3,,,AMNE01.jpg,AMSA04.jpg,AMNE17.jpg,AMSA13.jpg,AMSA04.jpg,MS,2,num_6,16,num_6,0.533512156369,,,2017_Sep_25_1429,60.0185188061,FEMA4ImagesEEG,001,201723,
AFNE01.JPG,AFNE01.JPG,AFNE01.JPG,AFNE01.JPG,AFNE01.JPG,AFNE01.JPG,,,,,,,,,,,,,,,,,,,,,2,1,21,6,,,AMNE05.jpg,AMNE10.jpg,AMSA18.jpg,AMSA09.jpg,AMSA09.jpg,MS,2,num_4,32,num_6,1.1001114891,,,2017_Sep_25_1429,60.0185188061,FEMA4ImagesEEG,001,201723,
AFNE01.JPG,AFNE01.JPG,AFNE01.JPG,AFNE01.JPG,AFNE01.JPG,AFNE01.JPG,,,,,,,,,,,,,,,,,,,,,2,2,22,8,,,AMNE07.jpg,AMSA05.jpg,AMSA19.jpg,AMNE04.jpg,AMSA19.jpg,MS,2,num_2,32,num_6,0.983504041622,,,2017_Sep_25_1429,60.0185188061,FEMA4ImagesEEG,001,201723,
AFNE01.JPG,AFNE01.JPG,AFNE01.JPG,AFNE01.JPG,AFNE01.JPG,AFNE01.JPG,,,,,,,,,,,,,,,,,,,,,2,3,23,9,,,AMSA18.jpg,AMNE09.jpg,AMNE18.jpg,AMSA19.jpg,AMNE18.jpg,MN,1,num_2,32,num_6,0.650188242085,,,2017_Sep_25_1429,60.0185188061,FEMA4ImagesEEG,001,201723,
AFNE01.JPG,AFNE01.JPG,AFNE01.JPG,AFNE01.JPG,AFNE01.JPG,AFNE01.JPG,,,,,,,,,,,,,,,,,,,,,2,4,24,2,,,AMNE15.jpg,AMNE03.jpg,AMSA16.jpg,AMSA19.jpg,AMSA19.jpg,MS,2,num_4,32,num_6,0.783334626962,,,2017_Sep_25_1429,60.0185188061,FEMA4ImagesEEG,001,201723,
AFNE01.JPG,AFNE01.JPG,AFNE01.JPG,AFNE01.JPG,AFNE01.JPG,AFNE01.JPG,,,,,,,,,,,,,,,,,,,,,2,5,25,4,,,AMSA12.jpg,AMSA11.jpg,AMNE11.jpg,AMNE20.jpg,AMNE11.jpg,MN,1,num_2,32,num_6,0.500141446159,,,2017_Sep_25_1429,60.0185188061,FEMA4ImagesEEG,001,201723,
AFNE01.JPG,AFNE01.JPG,AFNE01.JPG,AFNE01.JPG,AFNE01.JPG,AFNE01.JPG,,,,,,,,,,,,,,,,,,,,,2,6,26,5,,,AMNE08.jpg,AMNE15.jpg,AMSA03.jpg,AMSA09.jpg,AMSA03.jpg,MS,2,num_2,16,num_2,0.516812207614,,,2017_Sep_25_1429,60.0185188061,FEMA4ImagesEEG,001,201723,
AFNE01.JPG,AFNE01.JPG,AFNE01.JPG,AFNE01.JPG,AFNE01.JPG,AFNE01.JPG,,,,,,,,,,,,,,,,,,,,,2,7,27,0,,,AMSA15.jpg,AMNE03.jpg,AMSA18.jpg,AMNE07.jpg,AMSA18.jpg,MS,2,num_2,32,num_6,0.616779043135,,,2017_Sep_25_1429,60.0185188061,FEMA4ImagesEEG,001,201723,
AFNE01.JPG,AFNE01.JPG,AFNE01.JPG,AFNE01.JPG,AFNE01.JPG,AFNE01.JPG,,,,,,,,,,,,,,,,,,,,,2,8,28,1,,,AMNE12.jpg,AMSA06.jpg,AMNE14.jpg,AMSA12.jpg,AMSA06.jpg,MS,2,num_6,16,num_6,0.649981365015,,,2017_Sep_25_1429,60.0185188061,FEMA4ImagesEEG,001,201723,
AFNE01.JPG,AFNE01.JPG,AFNE01.JPG,AFNE01.JPG,AFNE01.JPG,AFNE01.JPG,,,,,,,,,,,,,,,,,,,,,2,9,29,7,,,AMSA03.jpg,AMSA04.jpg,AMNE06.jpg,AMNE03.jpg,AMNE06.jpg,MN,1,num_2,16,num_2,0.716759028961,,,2017_Sep_25_1429,60.0185188061,FEMA4ImagesEEG,001,201723,
AFNE01.JPG,AFNE01.JPG,AFNE01.JPG,AFNE01.JPG,AFNE01.JPG,AFNE01.JPG,,,,,,,,,,,,,,,,,,,,,3,0,30,6,,,AMSA04.jpg,AMNE20.jpg,AMSA06.jpg,AMNE13.jpg,AMNE20.jpg,MN,1,num_6,16,num_6,0.43357803626,,,2017_Sep_25_1429,60.0185188061,FEMA4ImagesEEG,001,201723,
AFNE01.JPG,AFNE01.JPG,AFNE01.JPG,AFNE01.JPG,AFNE01.JPG,AFNE01.JPG,,,,,,,,,,,,,,,,,,,,,3,1,31,2,,,AMNE17.jpg,AMSA04.jpg,AMNE16.jpg,AMSA20.jpg,AMNE16.jpg,MN,1,num_2,32,num_4,0.616756591364,,,2017_Sep_25_1429,60.0185188061,FEMA4ImagesEEG,001,201723,
AFNE01.JPG,AFNE01.JPG,AFNE01.JPG,AFNE01.JPG,AFNE01.JPG,AFNE01.JPG,,,,,,,,,,,,,,,,,,,,,3,2,32,4,,,AMNE10.jpg,AMNE04.jpg,AMSA01.jpg,AMSA04.jpg,AMSA01.jpg,MS,2,num_2,16,num_2,0.683474277001,,,2017_Sep_25_1429,60.0185188061,FEMA4ImagesEEG,001,201723,
AFNE01.JPG,AFNE01.JPG,AFNE01.JPG,AFNE01.JPG,AFNE01.JPG,AFNE01.JPG,,,,,,,,,,,,,,,,,,,,,3,3,33,9,,,AMNE02.jpg,AMSA19.jpg,AMSA05.jpg,AMNE12.jpg,AMNE12.jpg,MN,1,num_4,32,num_6,0.683454391139,,,2017_Sep_25_1429,60.0185188061,FEMA4ImagesEEG,001,201723,
AFNE01.JPG,AFNE01.JPG,AFNE01.JPG,AFNE01.JPG,AFNE01.JPG,AFNE01.JPG,,,,,,,,,,,,,,,,,,,,,3,4,34,0,,,AMNE01.jpg,AMSA14.jpg,AMSA11.jpg,AMNE20.jpg,AMSA11.jpg,MS,2,num_2,32,num_6,0.683473956276,,,2017_Sep_25_1429,60.0185188061,FEMA4ImagesEEG,001,201723,
AFNE01.JPG,AFNE01.JPG,AFNE01.JPG,AFNE01.JPG,AFNE01.JPG,AFNE01.JPG,,,,,,,,,,,,,,,,,,,,,3,5,35,7,,,AMSA09.jpg,AMNE12.jpg,AMSA08.jpg,AMNE13.jpg,AMSA08.jpg,MS,2,num_2,32,num_6,0.933473475161,,,2017_Sep_25_1429,60.0185188061,FEMA4ImagesEEG,001,201723,
AFNE01.JPG,AFNE01.JPG,AFNE01.JPG,AFNE01.JPG,AFNE01.JPG,AFNE01.JPG,,,,,,,,,,,,,,,,,,,,,3,6,36,3,,,AMSA05.jpg,AMSA12.jpg,AMNE11.jpg,AMNE03.jpg,AMSA12.jpg,MS,2,num_6,16,num_6,0.58347408456,,,2017_Sep_25_1429,60.0185188061,FEMA4ImagesEEG,001,201723,
AFNE01.JPG,AFNE01.JPG,AFNE01.JPG,AFNE01.JPG,AFNE01.JPG,AFNE01.JPG,,,,,,,,,,,,,,,,,,,,,3,7,37,8,,,AMSA18.jpg,AMNE15.jpg,AMSA12.jpg,AMNE14.jpg,AMNE14.jpg,MN,1,num_4,16,num_4,0.483511097904,,,2017_Sep_25_1429,60.0185188061,FEMA4ImagesEEG,001,201723,
AFNE01.JPG,AFNE01.JPG,AFNE01.JPG,AFNE01.JPG,AFNE01.JPG,AFNE01.JPG,,,,,,,,,,,,,,,,,,,,,3,8,38,5,,,AMNE19.jpg,AMNE15.jpg,AMSA08.jpg,AMSA12.jpg,AMSA08.jpg,MS,2,num_2,16,num_2,0.600099300966,,,2017_Sep_25_1429,60.0185188061,FEMA4ImagesEEG,001,201723,
