IPosition2,IPosition3,IPosition1,IPosition6,IPosition4,IPosition5,TrialsF1.thisRepN,TrialsF1.thisTrialN,TrialsF1.thisN,TrialsF1.thisIndex,TrialsM1.thisRepN,TrialsM1.thisTrialN,TrialsM1.thisN,TrialsM1.thisIndex,TrialsF2.thisRepN,TrialsF2.thisTrialN,TrialsF2.thisN,TrialsF2.thisIndex,TrialsM2.thisRepN,TrialsM2.thisTrialN,TrialsM2.thisN,TrialsM2.thisIndex,TrialsF3.thisRepN,TrialsF3.thisTrialN,TrialsF3.thisN,TrialsF3.thisIndex,TrialsM3.thisRepN,TrialsM3.thisTrialN,TrialsM3.thisN,TrialsM3.thisIndex,InstrKey_resp.keys,InstrKey_resp.rt,Image0 _Position,Image1 _Position,Image2 _Position,Image3 _Position,Center_image,condition,code,correct_answer,accuracy,Key_Resp.keys,Key_Resp.rt,BreakKey_resp.keys,BreakKey_resp.rt,date,frameRate,expName,session,participant,
,,,,,,,,,,,,,,,,,,,,,,,,,,,,,,space,10.8827613747,,,,,,,,,,,,,,2017_Oct_24_1800,59.9989030944,FEMA4ImagesEEG,001,201739,
AMSA25.JPG,AMNE24.JPG,AMSA24.JPG,AMNE26.JPG,AMSA21.JPG,AMNE25.JPG,0,0,0,3,,,,,,,,,,,,,,,,,,,,,,,AFSA02.jpg,AFNE10.jpg,AFSA07.jpg,AFNE14.jpg,AFNE14.jpg,FN,3,num_4,32,num_6,0.866789830616,,,2017_Oct_24_1800,59.9989030944,FEMA4ImagesEEG,001,201739,
AMNE22.JPG,AMSA24.JPG,AMSA22.JPG,AMNE25.JPG,AMNE24.JPG,AMSA25.JPG,0,1,1,7,,,,,,,,,,,,,,,,,,,,,,,AFNE11.jpg,AFSA10.jpg,AFSA19.jpg,AFNE16.jpg,AFNE16.jpg,FN,3,num_4,16,num_4,0.849972817348,,,2017_Oct_24_1800,59.9989030944,FEMA4ImagesEEG,001,201739,
AFNE23.JPG,AFNE24.JPG,AFNE22.JPG,AFSA24.JPG,AFSA22.JPG,AFSA23.JPG,0,2,2,8,,,,,,,,,,,,,,,,,,,,,,,AFNE09.jpg,AFNE14.jpg,AFSA10.jpg,AFSA13.jpg,AFSA13.jpg,FS,4,num_4,32,num_8,0.950180175481,,,2017_Oct_24_1800,59.9989030944,FEMA4ImagesEEG,001,201739,
AMSA21.JPG,AMNE22.JPG,AMNE21.JPG,AMSA23.JPG,AMSA22.JPG,AMNE23.JPG,0,3,3,1,,,,,,,,,,,,,,,,,,,,,,,AFNE03.jpg,AFSA17.jpg,AFNE11.jpg,AFSA20.jpg,AFNE11.jpg,FN,3,num_2,32,num_6,1.21673137578,,,2017_Oct_24_1800,59.9989030944,FEMA4ImagesEEG,001,201739,
AFNE22.JPG,AFSA24.JPG,AFSA22.JPG,AFNE25.JPG,AFNE24.JPG,AFSA25.JPG,0,4,4,6,,,,,,,,,,,,,,,,,,,,,,,AFSA03.jpg,AFNE15.jpg,AFSA05.jpg,AFNE08.jpg,AFSA05.jpg,FS,4,num_2,16,num_2,2.11664525722,,,2017_Oct_24_1800,59.9989030944,FEMA4ImagesEEG,001,201739,
AFSA25.JPG,AFNE24.JPG,AFSA24.JPG,AFNE21.JPG,AFSA21.JPG,AFNE25.JPG,0,5,5,2,,,,,,,,,,,,,,,,,,,,,,,AFNE13.jpg,AFSA11.jpg,AFSA18.jpg,AFNE04.jpg,AFNE13.jpg,FN,3,num_8,16,num_8,1.05012741371,,,2017_Oct_24_1800,59.9989030944,FEMA4ImagesEEG,001,201739,
AMNE23.JPG,AMNE24.JPG,AMNE22.JPG,AMSA24.JPG,AMSA22.JPG,AMSA23.JPG,0,6,6,9,,,,,,,,,,,,,,,,,,,,,,,AFNE14.jpg,AFSA05.jpg,AFNE13.jpg,AFSA15.jpg,AFSA05.jpg,FS,4,num_6,32,num_4,1.1501141031,,,2017_Oct_24_1800,59.9989030944,FEMA4ImagesEEG,001,201739,
AMSA21.JPG,AMNE23.JPG,AMNE21.JPG,AMSA25.JPG,AMNE25.JPG,AMSA23.JPG,0,7,7,5,,,,,,,,,,,,,,,,,,,,,,,AFSA01.jpg,AFNE16.jpg,AFSA18.jpg,AFNE19.jpg,AFNE19.jpg,FN,3,num_4,32,num_6,1.46642835729,,,2017_Oct_24_1800,59.9989030944,FEMA4ImagesEEG,001,201739,
AFSA21.JPG,AFNE23.JPG,AFNE21.JPG,AFSA25.JPG,AFNE25.JPG,AFSA23.JPG,0,8,8,4,,,,,,,,,,,,,,,,,,,,,,,AFNE16.jpg,AFNE14.jpg,AFSA07.jpg,AFSA19.jpg,AFSA07.jpg,FS,4,num_2,16,num_2,2.35003808781,,,2017_Oct_24_1800,59.9989030944,FEMA4ImagesEEG,001,201739,
AFSA21.JPG,AFNE22.JPG,AFNE21.JPG,AFSA23.JPG,AFSA22.JPG,AFNE23.JPG,0,9,9,0,,,,,,,,,,,,,,,,,,,,,,,AFNE13.jpg,AFSA08.jpg,AFNE12.jpg,AFSA13.jpg,AFNE13.jpg,FN,3,num_8,16,num_8,0.866720871651,,,2017_Oct_24_1800,59.9989030944,FEMA4ImagesEEG,001,201739,
AFNE22.JPG,AFSA24.JPG,AFSA22.JPG,AFNE25.JPG,AFNE24.JPG,AFSA25.JPG,,,,,0,0,0,6,,,,,,,,,,,,,,,,,,,AMSA04.jpg,AMNE20.jpg,AMSA13.jpg,AMNE05.jpg,AMSA13.jpg,MS,2,num_2,32,num_6,1.2000673553,,,2017_Oct_24_1800,59.9989030944,FEMA4ImagesEEG,001,201739,
AMSA25.JPG,AMNE24.JPG,AMSA24.JPG,AMNE26.JPG,AMSA21.JPG,AMNE25.JPG,,,,,0,1,1,3,,,,,,,,,,,,,,,,,,,AMSA19.jpg,AMNE14.jpg,AMSA20.jpg,AMNE08.jpg,AMSA19.jpg,MS,2,num_8,16,num_8,1.3833526579,,,2017_Oct_24_1800,59.9989030944,FEMA4ImagesEEG,001,201739,
AFNE23.JPG,AFNE24.JPG,AFNE22.JPG,AFSA24.JPG,AFSA22.JPG,AFSA23.JPG,,,,,0,2,2,8,,,,,,,,,,,,,,,,,,,AMSA15.jpg,AMSA02.jpg,AMNE01.jpg,AMNE03.jpg,AMSA15.jpg,MS,2,num_8,32,num_2,1.28342883347,,,2017_Oct_24_1800,59.9989030944,FEMA4ImagesEEG,001,201739,
AMNE22.JPG,AMSA24.JPG,AMSA22.JPG,AMNE25.JPG,AMNE24.JPG,AMSA25.JPG,,,,,0,3,3,7,,,,,,,,,,,,,,,,,,,AMSA06.jpg,AMNE16.jpg,AMNE17.jpg,AMSA07.jpg,AMNE16.jpg,MN,1,num_6,16,num_6,0.916744686547,,,2017_Oct_24_1800,59.9989030944,FEMA4ImagesEEG,001,201739,
AMSA21.JPG,AMNE23.JPG,AMNE21.JPG,AMSA25.JPG,AMNE25.JPG,AMSA23.JPG,,,,,0,4,4,5,,,,,,,,,,,,,,,,,,,AMSA18.jpg,AMNE07.jpg,AMSA10.jpg,AMNE09.jpg,AMSA18.jpg,MS,2,num_8,16,num_8,1.31672223483,,,2017_Oct_24_1800,59.9989030944,FEMA4ImagesEEG,001,201739,
AMSA21.JPG,AMNE22.JPG,AMNE21.JPG,AMSA23.JPG,AMSA22.JPG,AMNE23.JPG,,,,,0,5,5,1,,,,,,,,,,,,,,,,,,,AMNE18.jpg,AMSA12.jpg,AMNE02.jpg,AMSA03.jpg,AMSA03.jpg,MS,2,num_4,16,num_4,0.633471732377,,,2017_Oct_24_1800,59.9989030944,FEMA4ImagesEEG,001,201739,
AFSA25.JPG,AFNE24.JPG,AFSA24.JPG,AFNE21.JPG,AFSA21.JPG,AFNE25.JPG,,,,,0,6,6,2,,,,,,,,,,,,,,,,,,,AMNE15.jpg,AMSA06.jpg,AMNE12.jpg,AMSA07.jpg,AMSA07.jpg,MS,2,num_4,16,num_4,3.04992406489,,,2017_Oct_24_1800,59.9989030944,FEMA4ImagesEEG,001,201739,
AFSA21.JPG,AFNE22.JPG,AFNE21.JPG,AFSA23.JPG,AFSA22.JPG,AFNE23.JPG,,,,,0,7,7,0,,,,,,,,,,,,,,,,,,,AMSA19.jpg,AMNE20.jpg,AMNE15.jpg,AMSA17.jpg,AMSA19.jpg,MS,2,num_8,16,num_8,1.63305445039,,,2017_Oct_24_1800,59.9989030944,FEMA4ImagesEEG,001,201739,
AMNE23.JPG,AMNE24.JPG,AMNE22.JPG,AMSA24.JPG,AMSA22.JPG,AMSA23.JPG,,,,,0,8,8,9,,,,,,,,,,,,,,,,,,,AMNE08.jpg,AMNE18.jpg,AMSA01.jpg,AMSA14.jpg,AMNE08.jpg,MN,1,num_8,32,num_2,0.850111376843,,,2017_Oct_24_1800,59.9989030944,FEMA4ImagesEEG,001,201739,
AFSA21.JPG,AFNE23.JPG,AFNE21.JPG,AFSA25.JPG,AFNE25.JPG,AFSA23.JPG,,,,,0,9,9,4,,,,,,,,,,,,,,,,,,,AMSA20.jpg,AMSA07.jpg,AMNE16.jpg,AMNE08.jpg,AMSA20.jpg,MS,2,num_8,32,num_6,0.966756313341,,,2017_Oct_24_1800,59.9989030944,FEMA4ImagesEEG,001,201739,
AMSA25.JPG,AMNE24.JPG,AMSA24.JPG,AMNE26.JPG,AMSA21.JPG,AMNE25.JPG,,,,,,,,,0,0,0,3,,,,,,,,,,,,,,,AFSA02.jpg,AFNE13.jpg,AFSA10.jpg,AFNE15.jpg,AFNE13.jpg,FN,3,num_6,32,num_8,0.650127734523,,,2017_Oct_24_1800,59.9989030944,FEMA4ImagesEEG,001,201739,
AFNE23.JPG,AFNE24.JPG,AFNE22.JPG,AFSA24.JPG,AFSA22.JPG,AFSA23.JPG,,,,,,,,,0,1,1,8,,,,,,,,,,,,,,,AFSA17.jpg,AFSA13.jpg,AFNE05.jpg,AFNE11.jpg,AFSA13.jpg,FS,4,num_6,32,num_2,0.81676858163,,,2017_Oct_24_1800,59.9989030944,FEMA4ImagesEEG,001,201739,
AFSA21.JPG,AFNE22.JPG,AFNE21.JPG,AFSA23.JPG,AFSA22.JPG,AFNE23.JPG,,,,,,,,,0,2,2,0,,,,,,,,,,,,,,,AFNE05.jpg,AFSA03.jpg,AFSA16.jpg,AFNE11.jpg,AFNE11.jpg,FN,3,num_4,32,num_6,0.833512787009,,,2017_Oct_24_1800,59.9989030944,FEMA4ImagesEEG,001,201739,
AMNE23.JPG,AMNE24.JPG,AMNE22.JPG,AMSA24.JPG,AMSA22.JPG,AMSA23.JPG,,,,,,,,,0,3,3,9,,,,,,,,,,,,,,,AFNE08.jpg,AFSA15.jpg,AFSA04.jpg,AFNE13.jpg,AFSA04.jpg,FS,4,num_2,16,num_2,0.76677619922,,,2017_Oct_24_1800,59.9989030944,FEMA4ImagesEEG,001,201739,
AFSA21.JPG,AFNE23.JPG,AFNE21.JPG,AFSA25.JPG,AFNE25.JPG,AFSA23.JPG,,,,,,,,,0,4,4,4,,,,,,,,,,,,,,,AFSA10.jpg,AFNE04.jpg,AFSA19.jpg,AFNE11.jpg,AFNE11.jpg,FN,3,num_4,16,num_4,0.700214093551,,,2017_Oct_24_1800,59.9989030944,FEMA4ImagesEEG,001,201739,
AMSA21.JPG,AMNE23.JPG,AMNE21.JPG,AMSA25.JPG,AMNE25.JPG,AMSA23.JPG,,,,,,,,,0,5,5,5,,,,,,,,,,,,,,,AFNE11.jpg,AFSA13.jpg,AFSA07.jpg,AFNE10.jpg,AFSA07.jpg,FS,4,num_2,16,num_2,0.966721032048,,,2017_Oct_24_1800,59.9989030944,FEMA4ImagesEEG,001,201739,
AFNE22.JPG,AFSA24.JPG,AFSA22.JPG,AFNE25.JPG,AFNE24.JPG,AFSA25.JPG,,,,,,,,,0,6,6,6,,,,,,,,,,,,,,,AFNE20.jpg,AFSA15.jpg,AFSA16.jpg,AFNE06.jpg,AFNE20.jpg,FN,3,num_8,16,num_8,0.783467161818,,,2017_Oct_24_1800,59.9989030944,FEMA4ImagesEEG,001,201739,
AMSA21.JPG,AMNE22.JPG,AMNE21.JPG,AMSA23.JPG,AMSA22.JPG,AMNE23.JPG,,,,,,,,,0,7,7,1,,,,,,,,,,,,,,,AFSA13.jpg,AFSA06.jpg,AFNE17.jpg,AFNE01.jpg,AFNE17.jpg,FN,3,num_2,16,num_2,2.74994186591,,,2017_Oct_24_1800,59.9989030944,FEMA4ImagesEEG,001,201739,
AMNE22.JPG,AMSA24.JPG,AMSA22.JPG,AMNE25.JPG,AMNE24.JPG,AMSA25.JPG,,,,,,,,,0,8,8,7,,,,,,,,,,,,,,,AFNE05.jpg,AFSA15.jpg,AFNE15.jpg,AFSA01.jpg,AFNE05.jpg,FN,3,num_8,32,num_4,0.983161176438,,,2017_Oct_24_1800,59.9989030944,FEMA4ImagesEEG,001,201739,
AFSA25.JPG,AFNE24.JPG,AFSA24.JPG,AFNE21.JPG,AFSA21.JPG,AFNE25.JPG,,,,,,,,,0,9,9,2,,,,,,,,,,,,,,,AFSA14.jpg,AFSA09.jpg,AFNE01.jpg,AFNE12.jpg,AFSA09.jpg,FS,4,num_6,32,num_8,0.46681805572,,,2017_Oct_24_1800,59.9989030944,FEMA4ImagesEEG,001,201739,
AMNE23.JPG,AMNE24.JPG,AMNE22.JPG,AMSA24.JPG,AMSA22.JPG,AMSA23.JPG,,,,,,,,,,,,,0,0,0,9,,,,,,,,,,,AMNE10.jpg,AMNE02.jpg,AMSA15.jpg,AMSA19.jpg,AMSA15.jpg,MS,2,num_2,16,num_2,1.01677178894,,,2017_Oct_24_1800,59.9989030944,FEMA4ImagesEEG,001,201739,
AMSA21.JPG,AMNE23.JPG,AMNE21.JPG,AMSA25.JPG,AMNE25.JPG,AMSA23.JPG,,,,,,,,,,,,,0,1,1,5,,,,,,,,,,,AMSA12.jpg,AMSA13.jpg,AMNE12.jpg,AMNE13.jpg,AMNE13.jpg,MN,1,num_4,32,num_6,1.31660388189,,,2017_Oct_24_1800,59.9989030944,FEMA4ImagesEEG,001,201739,
AMSA21.JPG,AMNE22.JPG,AMNE21.JPG,AMSA23.JPG,AMSA22.JPG,AMNE23.JPG,,,,,,,,,,,,,0,2,2,1,,,,,,,,,,,AMSA12.jpg,AMNE13.jpg,AMSA20.jpg,AMNE04.jpg,AMNE13.jpg,MN,1,num_6,32,num_4,0.683551676688,,,2017_Oct_24_1800,59.9989030944,FEMA4ImagesEEG,001,201739,
AFSA21.JPG,AFNE23.JPG,AFNE21.JPG,AFSA25.JPG,AFNE25.JPG,AFSA23.JPG,,,,,,,,,,,,,0,3,3,4,,,,,,,,,,,AMSA09.jpg,AMSA08.jpg,AMNE04.jpg,AMNE05.jpg,AMSA09.jpg,MS,2,num_8,32,num_6,1.38337735482,,,2017_Oct_24_1800,59.9989030944,FEMA4ImagesEEG,001,201739,
AFNE23.JPG,AFNE24.JPG,AFNE22.JPG,AFSA24.JPG,AFSA22.JPG,AFSA23.JPG,,,,,,,,,,,,,0,4,4,8,,,,,,,,,,,AMNE13.jpg,AMSA15.jpg,AMSA04.jpg,AMNE15.jpg,AMNE13.jpg,MN,1,num_8,32,num_4,0.650100150844,,,2017_Oct_24_1800,59.9989030944,FEMA4ImagesEEG,001,201739,
AMNE22.JPG,AMSA24.JPG,AMSA22.JPG,AMNE25.JPG,AMNE24.JPG,AMSA25.JPG,,,,,,,,,,,,,0,5,5,7,,,,,,,,,,,AMNE13.jpg,AMNE03.jpg,AMSA18.jpg,AMSA13.jpg,AMSA18.jpg,MS,2,num_2,16,num_2,1.08344968152,,,2017_Oct_24_1800,59.9989030944,FEMA4ImagesEEG,001,201739,
AFSA25.JPG,AFNE24.JPG,AFSA24.JPG,AFNE21.JPG,AFSA21.JPG,AFNE25.JPG,,,,,,,,,,,,,0,6,6,2,,,,,,,,,,,AMSA03.jpg,AMNE19.jpg,AMSA18.jpg,AMNE11.jpg,AMSA03.jpg,MS,2,num_8,32,num_4,0.966795764281,,,2017_Oct_24_1800,59.9989030944,FEMA4ImagesEEG,001,201739,
AMSA25.JPG,AMNE24.JPG,AMSA24.JPG,AMNE26.JPG,AMSA21.JPG,AMNE25.JPG,,,,,,,,,,,,,0,7,7,3,,,,,,,,,,,AMSA10.jpg,AMNE12.jpg,AMNE06.jpg,AMSA13.jpg,AMSA13.jpg,MS,2,num_4,32,num_6,0.733475100249,,,2017_Oct_24_1800,59.9989030944,FEMA4ImagesEEG,001,201739,
AFNE22.JPG,AFSA24.JPG,AFSA22.JPG,AFNE25.JPG,AFNE24.JPG,AFSA25.JPG,,,,,,,,,,,,,0,8,8,6,,,,,,,,,,,AMSA15.jpg,AMSA19.jpg,AMNE10.jpg,AMNE02.jpg,AMSA15.jpg,MS,2,num_8,32,num_2,3.08325050236,,,2017_Oct_24_1800,59.9989030944,FEMA4ImagesEEG,001,201739,
AFSA21.JPG,AFNE22.JPG,AFNE21.JPG,AFSA23.JPG,AFSA22.JPG,AFNE23.JPG,,,,,,,,,,,,,0,9,9,0,,,,,,,,,,,AMSA10.jpg,AMNE03.jpg,AMSA19.jpg,AMNE20.jpg,AMNE20.jpg,MN,1,num_4,32,num_6,1.000078902,,,2017_Oct_24_1800,59.9989030944,FEMA4ImagesEEG,001,201739,
AFSA25.JPG,AFNE24.JPG,AFSA24.JPG,AFNE21.JPG,AFSA21.JPG,AFNE25.JPG,,,,,,,,,,,,,,,,,0,0,0,2,,,,,,,AFNE06.jpg,AFSA04.jpg,AFSA16.jpg,AFNE19.jpg,AFSA04.jpg,FS,4,num_6,32,num_2,0.750114423805,,,2017_Oct_24_1800,59.9989030944,FEMA4ImagesEEG,001,201739,
AFSA21.JPG,AFNE23.JPG,AFNE21.JPG,AFSA25.JPG,AFNE25.JPG,AFSA23.JPG,,,,,,,,,,,,,,,,,0,1,1,4,,,,,,,AFSA15.jpg,AFSA08.jpg,AFNE04.jpg,AFNE13.jpg,AFNE13.jpg,FN,3,num_4,16,num_4,0.783472614479,,,2017_Oct_24_1800,59.9989030944,FEMA4ImagesEEG,001,201739,
AFSA21.JPG,AFNE22.JPG,AFNE21.JPG,AFSA23.JPG,AFSA22.JPG,AFNE23.JPG,,,,,,,,,,,,,,,,,0,2,2,0,,,,,,,AFNE18.jpg,AFSA05.jpg,AFNE04.jpg,AFSA18.jpg,AFSA05.jpg,FS,4,num_6,16,num_6,1.16701611236,,,2017_Oct_24_1800,59.9989030944,FEMA4ImagesEEG,001,201739,
AMSA21.JPG,AMNE22.JPG,AMNE21.JPG,AMSA23.JPG,AMSA22.JPG,AMNE23.JPG,,,,,,,,,,,,,,,,,0,3,3,1,,,,,,,AFSA18.jpg,AFNE19.jpg,AFNE02.jpg,AFSA12.jpg,AFNE02.jpg,FN,3,num_2,32,num_4,3.54995341261,,,2017_Oct_24_1800,59.9989030944,FEMA4ImagesEEG,001,201739,
AFNE22.JPG,AFSA24.JPG,AFSA22.JPG,AFNE25.JPG,AFNE24.JPG,AFSA25.JPG,,,,,,,,,,,,,,,,,0,4,4,6,,,,,,,AFSA05.jpg,AFNE05.jpg,AFNE15.jpg,AFSA06.jpg,AFNE05.jpg,FN,3,num_6,32,num_2,0.88345000241,,,2017_Oct_24_1800,59.9989030944,FEMA4ImagesEEG,001,201739,
AMSA25.JPG,AMNE24.JPG,AMSA24.JPG,AMNE26.JPG,AMSA21.JPG,AMNE25.JPG,,,,,,,,,,,,,,,,,0,5,5,3,,,,,,,AFSA19.jpg,AFSA03.jpg,AFNE03.jpg,AFNE14.jpg,AFSA03.jpg,FS,4,num_6,16,num_6,0.683469246724,,,2017_Oct_24_1800,59.9989030944,FEMA4ImagesEEG,001,201739,
AMNE23.JPG,AMNE24.JPG,AMNE22.JPG,AMSA24.JPG,AMSA22.JPG,AMSA23.JPG,,,,,,,,,,,,,,,,,0,6,6,9,,,,,,,AFSA11.jpg,AFNE11.jpg,AFNE19.jpg,AFSA10.jpg,AFSA10.jpg,FS,4,num_4,32,num_8,1.81668518938,,,2017_Oct_24_1800,59.9989030944,FEMA4ImagesEEG,001,201739,
AMNE22.JPG,AMSA24.JPG,AMSA22.JPG,AMNE25.JPG,AMNE24.JPG,AMSA25.JPG,,,,,,,,,,,,,,,,,0,7,7,7,,,,,,,AFNE10.jpg,AFNE07.jpg,AFSA12.jpg,AFSA08.jpg,AFSA08.jpg,FS,4,num_4,16,num_4,1.75004257821,,,2017_Oct_24_1800,59.9989030944,FEMA4ImagesEEG,001,201739,
AFNE23.JPG,AFNE24.JPG,AFNE22.JPG,AFSA24.JPG,AFSA22.JPG,AFSA23.JPG,,,,,,,,,,,,,,,,,0,8,8,8,,,,,,,AFNE09.jpg,AFSA03.jpg,AFSA17.jpg,AFNE17.jpg,AFSA17.jpg,FS,4,num_2,32,num_6,1.2667128531,,,2017_Oct_24_1800,59.9989030944,FEMA4ImagesEEG,001,201739,
AMSA21.JPG,AMNE23.JPG,AMNE21.JPG,AMSA25.JPG,AMNE25.JPG,AMSA23.JPG,,,,,,,,,,,,,,,,,0,9,9,5,,,,,,,AFNE04.jpg,AFSA06.jpg,AFNE07.jpg,AFSA04.jpg,AFNE04.jpg,FN,3,num_8,16,num_8,0.566762086703,,,2017_Oct_24_1800,59.9989030944,FEMA4ImagesEEG,001,201739,
AMNE22.JPG,AMSA24.JPG,AMSA22.JPG,AMNE25.JPG,AMNE24.JPG,AMSA25.JPG,,,,,,,,,,,,,,,,,,,,,0,0,0,7,,,AMSA07.jpg,AMNE04.jpg,AMNE20.jpg,AMSA01.jpg,AMNE04.jpg,MN,1,num_6,32,num_4,2.06668109994,,,2017_Oct_24_1800,59.9989030944,FEMA4ImagesEEG,001,201739,
AMNE23.JPG,AMNE24.JPG,AMNE22.JPG,AMSA24.JPG,AMSA22.JPG,AMSA23.JPG,,,,,,,,,,,,,,,,,,,,,0,1,1,9,,,AMSA04.jpg,AMNE01.jpg,AMSA15.jpg,AMNE12.jpg,AMSA15.jpg,MS,2,num_2,32,num_4,1.03370940045,,,2017_Oct_24_1800,59.9989030944,FEMA4ImagesEEG,001,201739,
AFSA21.JPG,AFNE23.JPG,AFNE21.JPG,AFSA25.JPG,AFNE25.JPG,AFSA23.JPG,,,,,,,,,,,,,,,,,,,,,0,2,2,4,,,AMNE07.jpg,AMSA16.jpg,AMNE02.jpg,AMSA07.jpg,AMSA16.jpg,MS,2,num_6,16,num_6,0.533514871961,,,2017_Oct_24_1800,59.9989030944,FEMA4ImagesEEG,001,201739,
AFSA21.JPG,AFNE22.JPG,AFNE21.JPG,AFSA23.JPG,AFSA22.JPG,AFNE23.JPG,,,,,,,,,,,,,,,,,,,,,0,3,3,0,,,AMSA08.jpg,AMSA02.jpg,AMNE17.jpg,AMNE12.jpg,AMSA02.jpg,MS,2,num_6,16,num_6,0.583435729379,,,2017_Oct_24_1800,59.9989030944,FEMA4ImagesEEG,001,201739,
AMSA21.JPG,AMNE23.JPG,AMNE21.JPG,AMSA25.JPG,AMNE25.JPG,AMSA23.JPG,,,,,,,,,,,,,,,,,,,,,0,4,4,5,,,AMNE03.jpg,AMSA19.jpg,AMNE12.jpg,AMSA03.jpg,AMSA19.jpg,MS,2,num_6,32,num_2,3.24989006657,,,2017_Oct_24_1800,59.9989030944,FEMA4ImagesEEG,001,201739,
AMSA25.JPG,AMNE24.JPG,AMSA24.JPG,AMNE26.JPG,AMSA21.JPG,AMNE25.JPG,,,,,,,,,,,,,,,,,,,,,0,5,5,3,,,AMNE10.jpg,AMNE18.jpg,AMSA08.jpg,AMSA20.jpg,AMNE10.jpg,MN,1,num_8,32,num_4,0.61676120467,,,2017_Oct_24_1800,59.9989030944,FEMA4ImagesEEG,001,201739,
AFNE22.JPG,AFSA24.JPG,AFSA22.JPG,AFNE25.JPG,AFNE24.JPG,AFSA25.JPG,,,,,,,,,,,,,,,,,,,,,0,6,6,6,,,AMSA05.jpg,AMNE13.jpg,AMNE08.jpg,AMSA09.jpg,AMSA09.jpg,MS,2,num_4,16,num_4,3.91654743184,,,2017_Oct_24_1800,59.9989030944,FEMA4ImagesEEG,001,201739,
AFNE23.JPG,AFNE24.JPG,AFNE22.JPG,AFSA24.JPG,AFSA22.JPG,AFSA23.JPG,,,,,,,,,,,,,,,,,,,,,0,7,7,8,,,AMSA12.jpg,AMSA08.jpg,AMNE14.jpg,AMNE08.jpg,AMSA12.jpg,MS,2,num_8,16,num_8,0.633457619813,,,2017_Oct_24_1800,59.9989030944,FEMA4ImagesEEG,001,201739,
AFSA25.JPG,AFNE24.JPG,AFSA24.JPG,AFNE21.JPG,AFSA21.JPG,AFNE25.JPG,,,,,,,,,,,,,,,,,,,,,0,8,8,2,,,AMNE04.jpg,AMNE10.jpg,AMSA07.jpg,AMSA13.jpg,AMSA07.jpg,MS,2,num_2,32,num_6,1.00008018478,,,2017_Oct_24_1800,59.9989030944,FEMA4ImagesEEG,001,201739,
AMSA21.JPG,AMNE22.JPG,AMNE21.JPG,AMSA23.JPG,AMSA22.JPG,AMNE23.JPG,,,,,,,,,,,,,,,,,,,,,0,9,9,1,,,AMNE16.jpg,AMSA16.jpg,AMSA07.jpg,AMNE11.jpg,AMNE11.jpg,MN,1,num_4,16,num_4,0.833456016146,,,2017_Oct_24_1800,59.9989030944,FEMA4ImagesEEG,001,201739,
,,,,,,,,,,,,,,,,,,,,,,,,,,,,,,,,,,,,,,,,,,,space,14.0990485263,2017_Oct_24_1800,59.9989030944,FEMA4ImagesEEG,001,201739,
AFNE01.JPG,AFNE01.JPG,AFNE01.JPG,AFNE01.JPG,AFNE01.JPG,AFNE01.JPG,0,0,0,1,,,,,,,,,,,,,,,,,,,,,,,AFNE08.jpg,AFSA10.jpg,AFNE13.jpg,AFSA19.jpg,AFNE13.jpg,FN,3,num_2,32,num_6,1.55006470915,,,2017_Oct_24_1800,59.9989030944,FEMA4ImagesEEG,001,201739,
AFNE01.JPG,AFNE01.JPG,AFNE01.JPG,AFNE01.JPG,AFNE01.JPG,AFNE01.JPG,0,1,1,0,,,,,,,,,,,,,,,,,,,,,,,AFSA04.jpg,AFNE12.jpg,AFNE15.jpg,AFSA02.jpg,AFSA04.jpg,FS,4,num_8,32,num_6,1.18344118202,,,2017_Oct_24_1800,59.9989030944,FEMA4ImagesEEG,001,201739,
AFNE01.JPG,AFNE01.JPG,AFNE01.JPG,AFNE01.JPG,AFNE01.JPG,AFNE01.JPG,0,2,2,2,,,,,,,,,,,,,,,,,,,,,,,AFNE17.jpg,AFSA08.jpg,AFSA09.jpg,AFNE03.jpg,AFNE03.jpg,FN,3,num_4,16,num_4,0.800122522516,,,2017_Oct_24_1800,59.9989030944,FEMA4ImagesEEG,001,201739,
AFNE01.JPG,AFNE01.JPG,AFNE01.JPG,AFNE01.JPG,AFNE01.JPG,AFNE01.JPG,0,3,3,4,,,,,,,,,,,,,,,,,,,,,,,AFNE10.jpg,AFNE07.jpg,AFSA15.jpg,AFSA14.jpg,AFSA15.jpg,FS,4,num_2,32,num_8,1.21672945144,,,2017_Oct_24_1800,59.9989030944,FEMA4ImagesEEG,001,201739,
AFNE01.JPG,AFNE01.JPG,AFNE01.JPG,AFNE01.JPG,AFNE01.JPG,AFNE01.JPG,0,4,4,8,,,,,,,,,,,,,,,,,,,,,,,AFSA19.jpg,AFSA02.jpg,AFNE11.jpg,AFNE13.jpg,AFNE11.jpg,FN,3,num_2,16,num_2,3.39995220979,,,2017_Oct_24_1800,59.9989030944,FEMA4ImagesEEG,001,201739,
AFNE01.JPG,AFNE01.JPG,AFNE01.JPG,AFNE01.JPG,AFNE01.JPG,AFNE01.JPG,0,5,5,6,,,,,,,,,,,,,,,,,,,,,,,AFNE07.jpg,AFNE18.jpg,AFSA08.jpg,AFSA11.jpg,AFNE18.jpg,FN,3,num_6,32,num_2,1.25013799826,,,2017_Oct_24_1800,59.9989030944,FEMA4ImagesEEG,001,201739,
AFNE01.JPG,AFNE01.JPG,AFNE01.JPG,AFNE01.JPG,AFNE01.JPG,AFNE01.JPG,0,6,6,5,,,,,,,,,,,,,,,,,,,,,,,AFNE13.jpg,AFNE11.jpg,AFSA18.jpg,AFSA13.jpg,AFSA13.jpg,FS,4,num_4,32,num_8,0.766735786106,,,2017_Oct_24_1800,59.9989030944,FEMA4ImagesEEG,001,201739,
AFNE01.JPG,AFNE01.JPG,AFNE01.JPG,AFNE01.JPG,AFNE01.JPG,AFNE01.JPG,0,7,7,9,,,,,,,,,,,,,,,,,,,,,,,AFNE15.jpg,AFSA06.jpg,AFNE03.jpg,AFSA02.jpg,AFNE03.jpg,FN,3,num_2,32,num_6,1.70012653165,,,2017_Oct_24_1800,59.9989030944,FEMA4ImagesEEG,001,201739,
AFNE01.JPG,AFNE01.JPG,AFNE01.JPG,AFNE01.JPG,AFNE01.JPG,AFNE01.JPG,0,8,8,7,,,,,,,,,,,,,,,,,,,,,,,AFSA20.jpg,AFSA19.jpg,AFNE04.jpg,AFNE05.jpg,AFSA19.jpg,FS,4,num_6,16,num_6,0.600136955734,,,2017_Oct_24_1800,59.9989030944,FEMA4ImagesEEG,001,201739,
AFNE01.JPG,AFNE01.JPG,AFNE01.JPG,AFNE01.JPG,AFNE01.JPG,AFNE01.JPG,0,9,9,3,,,,,,,,,,,,,,,,,,,,,,,AFSA03.jpg,AFNE17.jpg,AFNE07.jpg,AFSA11.jpg,AFNE17.jpg,FN,3,num_6,32,num_8,1.05008154805,,,2017_Oct_24_1800,59.9989030944,FEMA4ImagesEEG,001,201739,
AFNE01.JPG,AFNE01.JPG,AFNE01.JPG,AFNE01.JPG,AFNE01.JPG,AFNE01.JPG,1,0,10,9,,,,,,,,,,,,,,,,,,,,,,,AFNE13.jpg,AFSA11.jpg,AFSA10.jpg,AFNE06.jpg,AFSA10.jpg,FS,4,num_2,16,num_2,0.983424824313,,,2017_Oct_24_1800,59.9989030944,FEMA4ImagesEEG,001,201739,
AFNE01.JPG,AFNE01.JPG,AFNE01.JPG,AFNE01.JPG,AFNE01.JPG,AFNE01.JPG,1,1,11,5,,,,,,,,,,,,,,,,,,,,,,,AFSA12.jpg,AFNE02.jpg,AFSA08.jpg,AFNE09.jpg,AFSA08.jpg,FS,4,num_2,32,num_4,1.05012099899,,,2017_Oct_24_1800,59.9989030944,FEMA4ImagesEEG,001,201739,
AFNE01.JPG,AFNE01.JPG,AFNE01.JPG,AFNE01.JPG,AFNE01.JPG,AFNE01.JPG,1,2,12,2,,,,,,,,,,,,,,,,,,,,,,,AFSA17.jpg,AFSA18.jpg,AFNE02.jpg,AFNE16.jpg,AFNE02.jpg,FN,3,num_2,32,num_6,0.716757836868,,,2017_Oct_24_1800,59.9989030944,FEMA4ImagesEEG,001,201739,
AFNE01.JPG,AFNE01.JPG,AFNE01.JPG,AFNE01.JPG,AFNE01.JPG,AFNE01.JPG,1,3,13,3,,,,,,,,,,,,,,,,,,,,,,,AFSA09.jpg,AFNE12.jpg,AFSA01.jpg,AFNE03.jpg,AFSA01.jpg,FS,4,num_2,16,num_2,1.06672151305,,,2017_Oct_24_1800,59.9989030944,FEMA4ImagesEEG,001,201739,
AFNE01.JPG,AFNE01.JPG,AFNE01.JPG,AFNE01.JPG,AFNE01.JPG,AFNE01.JPG,1,4,14,0,,,,,,,,,,,,,,,,,,,,,,,AFNE09.jpg,AFSA04.jpg,AFSA07.jpg,AFNE15.jpg,AFSA04.jpg,FS,4,num_6,32,num_4,3.01656587434,,,2017_Oct_24_1800,59.9989030944,FEMA4ImagesEEG,001,201739,
AFNE01.JPG,AFNE01.JPG,AFNE01.JPG,AFNE01.JPG,AFNE01.JPG,AFNE01.JPG,1,5,15,8,,,,,,,,,,,,,,,,,,,,,,,AFNE12.jpg,AFNE20.jpg,AFSA17.jpg,AFSA11.jpg,AFNE20.jpg,FN,3,num_6,16,num_6,0.750120838638,,,2017_Oct_24_1800,59.9989030944,FEMA4ImagesEEG,001,201739,
AFNE01.JPG,AFNE01.JPG,AFNE01.JPG,AFNE01.JPG,AFNE01.JPG,AFNE01.JPG,1,6,16,7,,,,,,,,,,,,,,,,,,,,,,,AFNE02.jpg,AFSA03.jpg,AFSA11.jpg,AFNE13.jpg,AFSA11.jpg,FS,4,num_2,16,num_2,0.5167700249,,,2017_Oct_24_1800,59.9989030944,FEMA4ImagesEEG,001,201739,
AFNE01.JPG,AFNE01.JPG,AFNE01.JPG,AFNE01.JPG,AFNE01.JPG,AFNE01.JPG,1,7,17,1,,,,,,,,,,,,,,,,,,,,,,,AFSA11.jpg,AFNE05.jpg,AFSA16.jpg,AFNE04.jpg,AFSA16.jpg,FS,4,num_2,32,num_6,1.88301989064,,,2017_Oct_24_1800,59.9989030944,FEMA4ImagesEEG,001,201739,
AFNE01.JPG,AFNE01.JPG,AFNE01.JPG,AFNE01.JPG,AFNE01.JPG,AFNE01.JPG,1,8,18,4,,,,,,,,,,,,,,,,,,,,,,,AFNE03.jpg,AFNE18.jpg,AFSA06.jpg,AFSA11.jpg,AFNE18.jpg,FN,3,num_6,32,num_8,0.750105443178,,,2017_Oct_24_1800,59.9989030944,FEMA4ImagesEEG,001,201739,
AFNE01.JPG,AFNE01.JPG,AFNE01.JPG,AFNE01.JPG,AFNE01.JPG,AFNE01.JPG,1,9,19,6,,,,,,,,,,,,,,,,,,,,,,,AFSA12.jpg,AFSA04.jpg,AFNE03.jpg,AFNE17.jpg,AFNE03.jpg,FN,3,num_2,32,num_4,1.10018137819,,,2017_Oct_24_1800,59.9989030944,FEMA4ImagesEEG,001,201739,
AFNE01.JPG,AFNE01.JPG,AFNE01.JPG,AFNE01.JPG,AFNE01.JPG,AFNE01.JPG,2,0,20,6,,,,,,,,,,,,,,,,,,,,,,,AFSA04.jpg,AFNE19.jpg,AFSA19.jpg,AFNE09.jpg,AFSA04.jpg,FS,4,num_8,32,num_2,1.96707961883,,,2017_Oct_24_1800,59.9989030944,FEMA4ImagesEEG,001,201739,
AFNE01.JPG,AFNE01.JPG,AFNE01.JPG,AFNE01.JPG,AFNE01.JPG,AFNE01.JPG,2,1,21,3,,,,,,,,,,,,,,,,,,,,,,,AFNE10.jpg,AFSA10.jpg,AFNE15.jpg,AFSA17.jpg,AFSA10.jpg,FS,4,num_6,32,num_2,1.21670796187,,,2017_Oct_24_1800,59.9989030944,FEMA4ImagesEEG,001,201739,
AFNE01.JPG,AFNE01.JPG,AFNE01.JPG,AFNE01.JPG,AFNE01.JPG,AFNE01.JPG,2,2,22,1,,,,,,,,,,,,,,,,,,,,,,,AFNE09.jpg,AFSA06.jpg,AFNE19.jpg,AFSA02.jpg,AFNE09.jpg,FN,3,num_8,16,num_8,0.683477906627,,,2017_Oct_24_1800,59.9989030944,FEMA4ImagesEEG,001,201739,
AFNE01.JPG,AFNE01.JPG,AFNE01.JPG,AFNE01.JPG,AFNE01.JPG,AFNE01.JPG,2,3,23,2,,,,,,,,,,,,,,,,,,,,,,,AFSA11.jpg,AFSA14.jpg,AFNE12.jpg,AFNE20.jpg,AFSA11.jpg,FS,4,num_8,16,num_8,0.616723036626,,,2017_Oct_24_1800,59.9989030944,FEMA4ImagesEEG,001,201739,
AFNE01.JPG,AFNE01.JPG,AFNE01.JPG,AFNE01.JPG,AFNE01.JPG,AFNE01.JPG,2,4,24,0,,,,,,,,,,,,,,,,,,,,,,,AFNE04.jpg,AFSA11.jpg,AFNE15.jpg,AFSA20.jpg,AFSA11.jpg,FS,4,num_6,16,num_6,0.533593773842,,,2017_Oct_24_1800,59.9989030944,FEMA4ImagesEEG,001,201739,
AFNE01.JPG,AFNE01.JPG,AFNE01.JPG,AFNE01.JPG,AFNE01.JPG,AFNE01.JPG,2,5,25,7,,,,,,,,,,,,,,,,,,,,,,,AFSA16.jpg,AFNE18.jpg,AFSA07.jpg,AFNE08.jpg,AFSA16.jpg,FS,4,num_8,16,num_8,0.666956935893,,,2017_Oct_24_1800,59.9989030944,FEMA4ImagesEEG,001,201739,
AFNE01.JPG,AFNE01.JPG,AFNE01.JPG,AFNE01.JPG,AFNE01.JPG,AFNE01.JPG,2,6,26,9,,,,,,,,,,,,,,,,,,,,,,,AFSA03.jpg,AFNE07.jpg,AFNE15.jpg,AFSA01.jpg,AFSA01.jpg,FS,4,num_4,32,num_8,1.38339050522,,,2017_Oct_24_1800,59.9989030944,FEMA4ImagesEEG,001,201739,
AFNE01.JPG,AFNE01.JPG,AFNE01.JPG,AFNE01.JPG,AFNE01.JPG,AFNE01.JPG,2,7,27,8,,,,,,,,,,,,,,,,,,,,,,,AFNE06.jpg,AFSA02.jpg,AFNE02.jpg,AFSA07.jpg,AFNE06.jpg,FN,3,num_8,32,num_2,1.20013599365,,,2017_Oct_24_1800,59.9989030944,FEMA4ImagesEEG,001,201739,
AFNE01.JPG,AFNE01.JPG,AFNE01.JPG,AFNE01.JPG,AFNE01.JPG,AFNE01.JPG,2,8,28,4,,,,,,,,,,,,,,,,,,,,,,,AFSA20.jpg,AFNE12.jpg,AFNE17.jpg,AFSA14.jpg,AFSA14.jpg,FS,4,num_4,32,num_6,1.09982343297,,,2017_Oct_24_1800,59.9989030944,FEMA4ImagesEEG,001,201739,
AFNE01.JPG,AFNE01.JPG,AFNE01.JPG,AFNE01.JPG,AFNE01.JPG,AFNE01.JPG,2,9,29,5,,,,,,,,,,,,,,,,,,,,,,,AFNE02.jpg,AFSA12.jpg,AFNE04.jpg,AFSA03.jpg,AFSA12.jpg,FS,4,num_6,16,num_6,1.91668791568,,,2017_Oct_24_1800,59.9989030944,FEMA4ImagesEEG,001,201739,
AFNE01.JPG,AFNE01.JPG,AFNE01.JPG,AFNE01.JPG,AFNE01.JPG,AFNE01.JPG,3,0,30,8,,,,,,,,,,,,,,,,,,,,,,,AFSA18.jpg,AFNE05.jpg,AFNE15.jpg,AFSA13.jpg,AFNE05.jpg,FN,3,num_6,32,num_4,1.86673177674,,,2017_Oct_24_1800,59.9989030944,FEMA4ImagesEEG,001,201739,
AFNE01.JPG,AFNE01.JPG,AFNE01.JPG,AFNE01.JPG,AFNE01.JPG,AFNE01.JPG,3,1,31,7,,,,,,,,,,,,,,,,,,,,,,,AFSA20.jpg,AFNE16.jpg,AFSA13.jpg,AFNE08.jpg,AFSA13.jpg,FS,4,num_2,16,num_2,2.98327311454,,,2017_Oct_24_1800,59.9989030944,FEMA4ImagesEEG,001,201739,
AFNE01.JPG,AFNE01.JPG,AFNE01.JPG,AFNE01.JPG,AFNE01.JPG,AFNE01.JPG,3,2,32,0,,,,,,,,,,,,,,,,,,,,,,,AFNE10.jpg,AFSA07.jpg,AFNE06.jpg,AFSA15.jpg,AFNE10.jpg,FN,3,num_8,32,num_4,0.983445351594,,,2017_Oct_24_1800,59.9989030944,FEMA4ImagesEEG,001,201739,
AFNE01.JPG,AFNE01.JPG,AFNE01.JPG,AFNE01.JPG,AFNE01.JPG,AFNE01.JPG,3,3,33,5,,,,,,,,,,,,,,,,,,,,,,,AFNE17.jpg,AFSA11.jpg,AFNE09.jpg,AFSA04.jpg,AFSA11.jpg,FS,4,num_6,32,num_8,0.800289948587,,,2017_Oct_24_1800,59.9989030944,FEMA4ImagesEEG,001,201739,
AFNE01.JPG,AFNE01.JPG,AFNE01.JPG,AFNE01.JPG,AFNE01.JPG,AFNE01.JPG,3,4,34,1,,,,,,,,,,,,,,,,,,,,,,,AFNE11.jpg,AFSA09.jpg,AFNE01.jpg,AFSA02.jpg,AFSA02.jpg,FS,4,num_4,32,num_2,0.833528182586,,,2017_Oct_24_1800,59.9989030944,FEMA4ImagesEEG,001,201739,
AFNE01.JPG,AFNE01.JPG,AFNE01.JPG,AFNE01.JPG,AFNE01.JPG,AFNE01.JPG,3,5,35,9,,,,,,,,,,,,,,,,,,,,,,,AFSA12.jpg,AFSA19.jpg,AFNE10.jpg,AFNE17.jpg,AFNE17.jpg,FN,3,num_4,16,num_4,0.90011883399,,,2017_Oct_24_1800,59.9989030944,FEMA4ImagesEEG,001,201739,
AFNE01.JPG,AFNE01.JPG,AFNE01.JPG,AFNE01.JPG,AFNE01.JPG,AFNE01.JPG,3,6,36,3,,,,,,,,,,,,,,,,,,,,,,,AFNE07.jpg,AFSA15.jpg,AFNE09.jpg,AFSA11.jpg,AFSA15.jpg,FS,4,num_6,16,num_6,0.533502363018,,,2017_Oct_24_1800,59.9989030944,FEMA4ImagesEEG,001,201739,
AFNE01.JPG,AFNE01.JPG,AFNE01.JPG,AFNE01.JPG,AFNE01.JPG,AFNE01.JPG,3,7,37,6,,,,,,,,,,,,,,,,,,,,,,,AFNE20.jpg,AFSA12.jpg,AFSA09.jpg,AFNE08.jpg,AFNE20.jpg,FN,3,num_8,32,num_4,0.850109773106,,,2017_Oct_24_1800,59.9989030944,FEMA4ImagesEEG,001,201739,
AFNE01.JPG,AFNE01.JPG,AFNE01.JPG,AFNE01.JPG,AFNE01.JPG,AFNE01.JPG,3,8,38,4,,,,,,,,,,,,,,,,,,,,,,,AFNE14.jpg,AFSA18.jpg,AFSA20.jpg,AFNE19.jpg,AFNE14.jpg,FN,3,num_8,32,num_2,1.16671429644,,,2017_Oct_24_1800,59.9989030944,FEMA4ImagesEEG,001,201739,
AFNE01.JPG,AFNE01.JPG,AFNE01.JPG,AFNE01.JPG,AFNE01.JPG,AFNE01.JPG,3,9,39,2,,,,,,,,,,,,,,,,,,,,,,,AFNE18.jpg,AFSA04.jpg,AFNE04.jpg,AFSA13.jpg,AFNE04.jpg,FN,3,num_2,16,num_2,1.18343188055,,,2017_Oct_24_1800,59.9989030944,FEMA4ImagesEEG,001,201739,
AFNE01.JPG,AFNE01.JPG,AFNE01.JPG,AFNE01.JPG,AFNE01.JPG,AFNE01.JPG,4,0,40,6,,,,,,,,,,,,,,,,,,,,,,,AFSA07.jpg,AFNE12.jpg,AFSA08.jpg,AFNE14.jpg,AFNE12.jpg,FN,3,num_6,16,num_6,2.05001290969,,,2017_Oct_24_1800,59.9989030944,FEMA4ImagesEEG,001,201739,
AFNE01.JPG,AFNE01.JPG,AFNE01.JPG,AFNE01.JPG,AFNE01.JPG,AFNE01.JPG,4,1,41,2,,,,,,,,,,,,,,,,,,,,,,,AFSA06.jpg,AFNE05.jpg,AFSA09.jpg,AFNE18.jpg,AFSA09.jpg,FS,4,num_2,32,num_4,0.983653832343,,,2017_Oct_24_1800,59.9989030944,FEMA4ImagesEEG,001,201739,
AFNE01.JPG,AFNE01.JPG,AFNE01.JPG,AFNE01.JPG,AFNE01.JPG,AFNE01.JPG,4,2,42,7,,,,,,,,,,,,,,,,,,,,,,,AFSA03.jpg,AFNE02.jpg,AFNE03.jpg,AFSA04.jpg,AFSA03.jpg,FS,4,num_8,32,num_2,1.00012637139,,,2017_Oct_24_1800,59.9989030944,FEMA4ImagesEEG,001,201739,
AFNE01.JPG,AFNE01.JPG,AFNE01.JPG,AFNE01.JPG,AFNE01.JPG,AFNE01.JPG,4,3,43,8,,,,,,,,,,,,,,,,,,,,,,,AFNE06.jpg,AFSA14.jpg,AFNE01.jpg,AFSA06.jpg,AFNE01.jpg,FN,3,num_2,32,num_8,0.733479911229,,,2017_Oct_24_1800,59.9989030944,FEMA4ImagesEEG,001,201739,
AFNE01.JPG,AFNE01.JPG,AFNE01.JPG,AFNE01.JPG,AFNE01.JPG,AFNE01.JPG,4,4,44,1,,,,,,,,,,,,,,,,,,,,,,,AFSA05.jpg,AFNE02.jpg,AFSA10.jpg,AFNE18.jpg,AFNE02.jpg,FN,3,num_6,16,num_6,1.11675591243,,,2017_Oct_24_1800,59.9989030944,FEMA4ImagesEEG,001,201739,
AFNE01.JPG,AFNE01.JPG,AFNE01.JPG,AFNE01.JPG,AFNE01.JPG,AFNE01.JPG,4,5,45,5,,,,,,,,,,,,,,,,,,,,,,,AFNE01.jpg,AFSA11.jpg,AFSA14.jpg,AFNE05.jpg,AFNE01.jpg,FN,3,num_8,32,num_4,0.733456818038,,,2017_Oct_24_1800,59.9989030944,FEMA4ImagesEEG,001,201739,
AFNE01.JPG,AFNE01.JPG,AFNE01.JPG,AFNE01.JPG,AFNE01.JPG,AFNE01.JPG,4,6,46,3,,,,,,,,,,,,,,,,,,,,,,,AFSA09.jpg,AFNE08.jpg,AFSA08.jpg,AFNE03.jpg,AFNE03.jpg,FN,3,num_4,32,num_2,0.816754469066,,,2017_Oct_24_1800,59.9989030944,FEMA4ImagesEEG,001,201739,
AFNE01.JPG,AFNE01.JPG,AFNE01.JPG,AFNE01.JPG,AFNE01.JPG,AFNE01.JPG,4,7,47,9,,,,,,,,,,,,,,,,,,,,,,,AFSA08.jpg,AFNE19.jpg,AFSA18.jpg,AFNE08.jpg,AFNE19.jpg,FN,3,num_6,16,num_6,1.65004690806,,,2017_Oct_24_1800,59.9989030944,FEMA4ImagesEEG,001,201739,
AFNE01.JPG,AFNE01.JPG,AFNE01.JPG,AFNE01.JPG,AFNE01.JPG,AFNE01.JPG,4,8,48,4,,,,,,,,,,,,,,,,,,,,,,,AFSA18.jpg,AFNE11.jpg,AFNE01.jpg,AFSA11.jpg,AFSA11.jpg,FS,4,num_4,16,num_4,0.666692005121,,,2017_Oct_24_1800,59.9989030944,FEMA4ImagesEEG,001,201739,
AFNE01.JPG,AFNE01.JPG,AFNE01.JPG,AFNE01.JPG,AFNE01.JPG,AFNE01.JPG,4,9,49,0,,,,,,,,,,,,,,,,,,,,,,,AFSA08.jpg,AFSA09.jpg,AFNE15.jpg,AFNE17.jpg,AFNE15.jpg,FN,3,num_2,32,num_8,1.59976810543,,,2017_Oct_24_1800,59.9989030944,FEMA4ImagesEEG,001,201739,
AFNE01.JPG,AFNE01.JPG,AFNE01.JPG,AFNE01.JPG,AFNE01.JPG,AFNE01.JPG,5,0,50,0,,,,,,,,,,,,,,,,,,,,,,,AFSA18.jpg,AFNE11.jpg,AFSA19.jpg,AFNE19.jpg,AFSA19.jpg,FS,4,num_2,16,num_2,2.01662585256,,,2017_Oct_24_1800,59.9989030944,FEMA4ImagesEEG,001,201739,
AFNE01.JPG,AFNE01.JPG,AFNE01.JPG,AFNE01.JPG,AFNE01.JPG,AFNE01.JPG,5,1,51,2,,,,,,,,,,,,,,,,,,,,,,,AFSA06.jpg,AFSA01.jpg,AFNE20.jpg,AFNE01.jpg,AFSA01.jpg,FS,4,num_6,32,num_8,2.96664405463,,,2017_Oct_24_1800,59.9989030944,FEMA4ImagesEEG,001,201739,
AFNE01.JPG,AFNE01.JPG,AFNE01.JPG,AFNE01.JPG,AFNE01.JPG,AFNE01.JPG,5,2,52,6,,,,,,,,,,,,,,,,,,,,,,,AFSA05.jpg,AFNE16.jpg,AFSA09.jpg,AFNE12.jpg,AFSA05.jpg,FS,4,num_8,32,num_4,1.16684419604,,,2017_Oct_24_1800,59.9989030944,FEMA4ImagesEEG,001,201739,
AFNE01.JPG,AFNE01.JPG,AFNE01.JPG,AFNE01.JPG,AFNE01.JPG,AFNE01.JPG,5,3,53,8,,,,,,,,,,,,,,,,,,,,,,,AFNE02.jpg,AFSA02.jpg,AFSA04.jpg,AFNE10.jpg,AFSA04.jpg,FS,4,num_2,16,num_2,1.13346355362,,,2017_Oct_24_1800,59.9989030944,FEMA4ImagesEEG,001,201739,
AFNE01.JPG,AFNE01.JPG,AFNE01.JPG,AFNE01.JPG,AFNE01.JPG,AFNE01.JPG,5,4,54,5,,,,,,,,,,,,,,,,,,,,,,,AFNE13.jpg,AFSA01.jpg,AFNE15.jpg,AFSA03.jpg,AFSA03.jpg,FS,4,num_4,32,num_2,1.73337695387,,,2017_Oct_24_1800,59.9989030944,FEMA4ImagesEEG,001,201739,
AFNE01.JPG,AFNE01.JPG,AFNE01.JPG,AFNE01.JPG,AFNE01.JPG,AFNE01.JPG,5,5,55,1,,,,,,,,,,,,,,,,,,,,,,,AFSA01.jpg,AFNE17.jpg,AFSA10.jpg,AFNE15.jpg,AFNE15.jpg,FN,3,num_4,32,num_6,0.750191401225,,,2017_Oct_24_1800,59.9989030944,FEMA4ImagesEEG,001,201739,
AFNE01.JPG,AFNE01.JPG,AFNE01.JPG,AFNE01.JPG,AFNE01.JPG,AFNE01.JPG,5,6,56,4,,,,,,,,,,,,,,,,,,,,,,,AFNE01.jpg,AFSA03.jpg,AFSA08.jpg,AFNE11.jpg,AFNE11.jpg,FN,3,num_4,32,num_2,0.766762086656,,,2017_Oct_24_1800,59.9989030944,FEMA4ImagesEEG,001,201739,
AFNE01.JPG,AFNE01.JPG,AFNE01.JPG,AFNE01.JPG,AFNE01.JPG,AFNE01.JPG,5,7,57,9,,,,,,,,,,,,,,,,,,,,,,,AFNE17.jpg,AFSA19.jpg,AFNE02.jpg,AFSA13.jpg,AFSA13.jpg,FS,4,num_4,32,num_6,2.13343596994,,,2017_Oct_24_1800,59.9989030944,FEMA4ImagesEEG,001,201739,
AFNE01.JPG,AFNE01.JPG,AFNE01.JPG,AFNE01.JPG,AFNE01.JPG,AFNE01.JPG,5,8,58,7,,,,,,,,,,,,,,,,,,,,,,,AFSA02.jpg,AFNE10.jpg,AFSA17.jpg,AFNE13.jpg,AFNE13.jpg,FN,3,num_4,32,num_8,1.43339218909,,,2017_Oct_24_1800,59.9989030944,FEMA4ImagesEEG,001,201739,
AFNE01.JPG,AFNE01.JPG,AFNE01.JPG,AFNE01.JPG,AFNE01.JPG,AFNE01.JPG,5,9,59,3,,,,,,,,,,,,,,,,,,,,,,,AFSA09.jpg,AFSA05.jpg,AFNE08.jpg,AFNE14.jpg,AFNE08.jpg,FN,3,num_2,16,num_2,0.849786788342,,,2017_Oct_24_1800,59.9989030944,FEMA4ImagesEEG,001,201739,
,,,,,,,,,,,,,,,,,,,,,,,,,,,,,,,,,,,,,,,,,,,space,12.9660923827,2017_Oct_24_1800,59.9989030944,FEMA4ImagesEEG,001,201739,
AFNE01.JPG,AFNE01.JPG,AFNE01.JPG,AFNE01.JPG,AFNE01.JPG,AFNE01.JPG,,,,,0,0,0,6,,,,,,,,,,,,,,,,,,,AMNE04.jpg,AMSA11.jpg,AMSA18.jpg,AMNE20.jpg,AMSA11.jpg,MS,2,num_6,16,num_6,1.16677555768,,,2017_Oct_24_1800,59.9989030944,FEMA4ImagesEEG,001,201739,
AFNE01.JPG,AFNE01.JPG,AFNE01.JPG,AFNE01.JPG,AFNE01.JPG,AFNE01.JPG,,,,,0,1,1,7,,,,,,,,,,,,,,,,,,,AMSA06.jpg,AMNE12.jpg,AMSA12.jpg,AMNE14.jpg,AMSA06.jpg,MS,2,num_8,16,num_8,0.633458261378,,,2017_Oct_24_1800,59.9989030944,FEMA4ImagesEEG,001,201739,
AFNE01.JPG,AFNE01.JPG,AFNE01.JPG,AFNE01.JPG,AFNE01.JPG,AFNE01.JPG,,,,,0,2,2,8,,,,,,,,,,,,,,,,,,,AMNE06.jpg,AMSA06.jpg,AMSA14.jpg,AMNE15.jpg,AMSA14.jpg,MS,2,num_2,16,num_2,0.550270623993,,,2017_Oct_24_1800,59.9989030944,FEMA4ImagesEEG,001,201739,
AFNE01.JPG,AFNE01.JPG,AFNE01.JPG,AFNE01.JPG,AFNE01.JPG,AFNE01.JPG,,,,,0,3,3,0,,,,,,,,,,,,,,,,,,,AMNE17.jpg,AMSA08.jpg,AMNE07.jpg,AMSA20.jpg,AMSA08.jpg,MS,2,num_6,32,num_2,0.883458020864,,,2017_Oct_24_1800,59.9989030944,FEMA4ImagesEEG,001,201739,
AFNE01.JPG,AFNE01.JPG,AFNE01.JPG,AFNE01.JPG,AFNE01.JPG,AFNE01.JPG,,,,,0,4,4,1,,,,,,,,,,,,,,,,,,,AMNE12.jpg,AMNE20.jpg,AMSA12.jpg,AMSA08.jpg,AMSA12.jpg,MS,2,num_2,32,num_4,1.60007601522,,,2017_Oct_24_1800,59.9989030944,FEMA4ImagesEEG,001,201739,
AFNE01.JPG,AFNE01.JPG,AFNE01.JPG,AFNE01.JPG,AFNE01.JPG,AFNE01.JPG,,,,,0,5,5,5,,,,,,,,,,,,,,,,,,,AMNE01.jpg,AMSA05.jpg,AMSA17.jpg,AMNE10.jpg,AMSA17.jpg,MS,2,num_2,16,num_2,0.733484722325,,,2017_Oct_24_1800,59.9989030944,FEMA4ImagesEEG,001,201739,
AFNE01.JPG,AFNE01.JPG,AFNE01.JPG,AFNE01.JPG,AFNE01.JPG,AFNE01.JPG,,,,,0,6,6,2,,,,,,,,,,,,,,,,,,,AMSA18.jpg,AMNE13.jpg,AMSA15.jpg,AMNE10.jpg,AMNE10.jpg,MN,1,num_4,16,num_4,1.38339659921,,,2017_Oct_24_1800,59.9989030944,FEMA4ImagesEEG,001,201739,
AFNE01.JPG,AFNE01.JPG,AFNE01.JPG,AFNE01.JPG,AFNE01.JPG,AFNE01.JPG,,,,,0,7,7,3,,,,,,,,,,,,,,,,,,,AMSA04.jpg,AMNE03.jpg,AMNE13.jpg,AMSA13.jpg,AMNE13.jpg,MN,1,num_2,32,num_6,1.76657669921,,,2017_Oct_24_1800,59.9989030944,FEMA4ImagesEEG,001,201739,
AFNE01.JPG,AFNE01.JPG,AFNE01.JPG,AFNE01.JPG,AFNE01.JPG,AFNE01.JPG,,,,,0,8,8,9,,,,,,,,,,,,,,,,,,,AMSA17.jpg,AMNE01.jpg,AMSA11.jpg,AMNE15.jpg,AMNE01.jpg,MN,1,num_6,32,num_4,2.20001764072,,,2017_Oct_24_1800,59.9989030944,FEMA4ImagesEEG,001,201739,
AFNE01.JPG,AFNE01.JPG,AFNE01.JPG,AFNE01.JPG,AFNE01.JPG,AFNE01.JPG,,,,,0,9,9,4,,,,,,,,,,,,,,,,,,,AMNE13.jpg,AMSA07.jpg,AMSA08.jpg,AMNE09.jpg,AMSA07.jpg,MS,2,num_6,32,num_8,1.88339098624,,,2017_Oct_24_1800,59.9989030944,FEMA4ImagesEEG,001,201739,
AFNE01.JPG,AFNE01.JPG,AFNE01.JPG,AFNE01.JPG,AFNE01.JPG,AFNE01.JPG,,,,,1,0,10,6,,,,,,,,,,,,,,,,,,,AMNE08.jpg,AMSA13.jpg,AMNE16.jpg,AMSA05.jpg,AMSA13.jpg,MS,2,num_6,32,num_4,0.983456898248,,,2017_Oct_24_1800,59.9989030944,FEMA4ImagesEEG,001,201739,
AFNE01.JPG,AFNE01.JPG,AFNE01.JPG,AFNE01.JPG,AFNE01.JPG,AFNE01.JPG,,,,,1,1,11,9,,,,,,,,,,,,,,,,,,,AMSA09.jpg,AMNE16.jpg,AMNE12.jpg,AMSA02.jpg,AMNE12.jpg,MN,1,num_2,32,num_8,0.883450323017,,,2017_Oct_24_1800,59.9989030944,FEMA4ImagesEEG,001,201739,
AFNE01.JPG,AFNE01.JPG,AFNE01.JPG,AFNE01.JPG,AFNE01.JPG,AFNE01.JPG,,,,,1,2,12,0,,,,,,,,,,,,,,,,,,,AMNE04.jpg,AMNE15.jpg,AMSA19.jpg,AMSA20.jpg,AMSA20.jpg,MS,2,num_4,32,num_2,1.0667462101,,,2017_Oct_24_1800,59.9989030944,FEMA4ImagesEEG,001,201739,
AFNE01.JPG,AFNE01.JPG,AFNE01.JPG,AFNE01.JPG,AFNE01.JPG,AFNE01.JPG,,,,,1,3,13,7,,,,,,,,,,,,,,,,,,,AMSA13.jpg,AMNE09.jpg,AMSA06.jpg,AMNE06.jpg,AMNE06.jpg,MN,1,num_4,32,num_6,1.38344984187,,,2017_Oct_24_1800,59.9989030944,FEMA4ImagesEEG,001,201739,
AFNE01.JPG,AFNE01.JPG,AFNE01.JPG,AFNE01.JPG,AFNE01.JPG,AFNE01.JPG,,,,,1,4,14,1,,,,,,,,,,,,,,,,,,,AMNE14.jpg,AMSA11.jpg,AMNE11.jpg,AMSA13.jpg,AMNE11.jpg,MN,1,num_2,32,num_6,0.55014938442,,,2017_Oct_24_1800,59.9989030944,FEMA4ImagesEEG,001,201739,
AFNE01.JPG,AFNE01.JPG,AFNE01.JPG,AFNE01.JPG,AFNE01.JPG,AFNE01.JPG,,,,,1,5,15,5,,,,,,,,,,,,,,,,,,,AMNE07.jpg,AMNE08.jpg,AMSA02.jpg,AMSA10.jpg,AMNE07.jpg,MN,1,num_8,32,num_4,1.58339852362,,,2017_Oct_24_1800,59.9989030944,FEMA4ImagesEEG,001,201739,
AFNE01.JPG,AFNE01.JPG,AFNE01.JPG,AFNE01.JPG,AFNE01.JPG,AFNE01.JPG,,,,,1,6,16,8,,,,,,,,,,,,,,,,,,,AMSA17.jpg,AMNE19.jpg,AMSA06.jpg,AMNE14.jpg,AMNE19.jpg,MN,1,num_6,16,num_6,0.633508617408,,,2017_Oct_24_1800,59.9989030944,FEMA4ImagesEEG,001,201739,
AFNE01.JPG,AFNE01.JPG,AFNE01.JPG,AFNE01.JPG,AFNE01.JPG,AFNE01.JPG,,,,,1,7,17,4,,,,,,,,,,,,,,,,,,,AMSA12.jpg,AMSA19.jpg,AMNE19.jpg,AMNE05.jpg,AMNE05.jpg,MN,1,num_4,32,num_8,2.89970283478,,,2017_Oct_24_1800,59.9989030944,FEMA4ImagesEEG,001,201739,
AFNE01.JPG,AFNE01.JPG,AFNE01.JPG,AFNE01.JPG,AFNE01.JPG,AFNE01.JPG,,,,,1,8,18,3,,,,,,,,,,,,,,,,,,,AMSA15.jpg,AMNE08.jpg,AMNE02.jpg,AMSA02.jpg,AMSA02.jpg,MS,2,num_4,16,num_4,0.800114824786,,,2017_Oct_24_1800,59.9989030944,FEMA4ImagesEEG,001,201739,
AFNE01.JPG,AFNE01.JPG,AFNE01.JPG,AFNE01.JPG,AFNE01.JPG,AFNE01.JPG,,,,,1,9,19,2,,,,,,,,,,,,,,,,,,,AMNE08.jpg,AMSA04.jpg,AMNE15.jpg,AMSA02.jpg,AMSA04.jpg,MS,2,num_6,16,num_6,0.866740116035,,,2017_Oct_24_1800,59.9989030944,FEMA4ImagesEEG,001,201739,
AFNE01.JPG,AFNE01.JPG,AFNE01.JPG,AFNE01.JPG,AFNE01.JPG,AFNE01.JPG,,,,,2,0,20,4,,,,,,,,,,,,,,,,,,,AMNE16.jpg,AMNE01.jpg,AMSA17.jpg,AMSA10.jpg,AMNE01.jpg,MN,1,num_6,16,num_6,1.2334088675,,,2017_Oct_24_1800,59.9989030944,FEMA4ImagesEEG,001,201739,
AFNE01.JPG,AFNE01.JPG,AFNE01.JPG,AFNE01.JPG,AFNE01.JPG,AFNE01.JPG,,,,,2,1,21,1,,,,,,,,,,,,,,,,,,,AMSA05.jpg,AMNE16.jpg,AMNE18.jpg,AMSA08.jpg,AMNE18.jpg,MN,1,num_2,32,num_4,1.88335025241,,,2017_Oct_24_1800,59.9989030944,FEMA4ImagesEEG,001,201739,
AFNE01.JPG,AFNE01.JPG,AFNE01.JPG,AFNE01.JPG,AFNE01.JPG,AFNE01.JPG,,,,,2,2,22,6,,,,,,,,,,,,,,,,,,,AMNE18.jpg,AMSA16.jpg,AMSA13.jpg,AMNE12.jpg,AMSA16.jpg,MS,2,num_6,16,num_6,0.566846120404,,,2017_Oct_24_1800,59.9989030944,FEMA4ImagesEEG,001,201739,
AFNE01.JPG,AFNE01.JPG,AFNE01.JPG,AFNE01.JPG,AFNE01.JPG,AFNE01.JPG,,,,,2,3,23,9,,,,,,,,,,,,,,,,,,,AMSA08.jpg,AMNE03.jpg,AMNE19.jpg,AMSA13.jpg,AMSA08.jpg,MS,2,num_8,16,num_8,1.03344767704,,,2017_Oct_24_1800,59.9989030944,FEMA4ImagesEEG,001,201739,
AFNE01.JPG,AFNE01.JPG,AFNE01.JPG,AFNE01.JPG,AFNE01.JPG,AFNE01.JPG,,,,,2,4,24,5,,,,,,,,,,,,,,,,,,,AMNE04.jpg,AMNE16.jpg,AMSA18.jpg,AMSA07.jpg,AMSA18.jpg,MS,2,num_2,32,num_6,2.19999583042,,,2017_Oct_24_1800,59.9989030944,FEMA4ImagesEEG,001,201739,
AFNE01.JPG,AFNE01.JPG,AFNE01.JPG,AFNE01.JPG,AFNE01.JPG,AFNE01.JPG,,,,,2,5,25,3,,,,,,,,,,,,,,,,,,,AMSA06.jpg,AMSA07.jpg,AMNE08.jpg,AMNE16.jpg,AMNE16.jpg,MN,1,num_4,32,num_8,1.86664742231,,,2017_Oct_24_1800,59.9989030944,FEMA4ImagesEEG,001,201739,
AFNE01.JPG,AFNE01.JPG,AFNE01.JPG,AFNE01.JPG,AFNE01.JPG,AFNE01.JPG,,,,,2,6,26,2,,,,,,,,,,,,,,,,,,,AMSA07.jpg,AMNE18.jpg,AMNE09.jpg,AMSA11.jpg,AMNE18.jpg,MN,1,num_6,32,num_4,1.40004041314,,,2017_Oct_24_1800,59.9989030944,FEMA4ImagesEEG,001,201739,
AFNE01.JPG,AFNE01.JPG,AFNE01.JPG,AFNE01.JPG,AFNE01.JPG,AFNE01.JPG,,,,,2,7,27,7,,,,,,,,,,,,,,,,,,,AMSA02.jpg,AMNE09.jpg,AMNE17.jpg,AMSA09.jpg,AMSA09.jpg,MS,2,num_4,32,num_2,0.966727767489,,,2017_Oct_24_1800,59.9989030944,FEMA4ImagesEEG,001,201739,
AFNE01.JPG,AFNE01.JPG,AFNE01.JPG,AFNE01.JPG,AFNE01.JPG,AFNE01.JPG,,,,,2,8,28,8,,,,,,,,,,,,,,,,,,,AMSA12.jpg,AMNE04.jpg,AMNE17.jpg,AMSA10.jpg,AMSA10.jpg,MS,2,num_4,32,num_8,0.916761685745,,,2017_Oct_24_1800,59.9989030944,FEMA4ImagesEEG,001,201739,
AFNE01.JPG,AFNE01.JPG,AFNE01.JPG,AFNE01.JPG,AFNE01.JPG,AFNE01.JPG,,,,,2,9,29,0,,,,,,,,,,,,,,,,,,,AMSA19.jpg,AMNE10.jpg,AMNE19.jpg,AMSA01.jpg,AMNE19.jpg,MN,1,num_2,32,num_6,2.46664261119,,,2017_Oct_24_1800,59.9989030944,FEMA4ImagesEEG,001,201739,
AFNE01.JPG,AFNE01.JPG,AFNE01.JPG,AFNE01.JPG,AFNE01.JPG,AFNE01.JPG,,,,,3,0,30,5,,,,,,,,,,,,,,,,,,,AMNE10.jpg,AMSA07.jpg,AMNE08.jpg,AMSA02.jpg,AMNE08.jpg,MN,1,num_2,32,num_4,0.633524975157,,,2017_Oct_24_1800,59.9989030944,FEMA4ImagesEEG,001,201739,
AFNE01.JPG,AFNE01.JPG,AFNE01.JPG,AFNE01.JPG,AFNE01.JPG,AFNE01.JPG,,,,,3,1,31,0,,,,,,,,,,,,,,,,,,,AMSA10.jpg,AMSA04.jpg,AMNE08.jpg,AMNE20.jpg,AMSA04.jpg,MS,2,num_6,16,num_6,1.18355312012,,,2017_Oct_24_1800,59.9989030944,FEMA4ImagesEEG,001,201739,
AFNE01.JPG,AFNE01.JPG,AFNE01.JPG,AFNE01.JPG,AFNE01.JPG,AFNE01.JPG,,,,,3,2,32,8,,,,,,,,,,,,,,,,,,,AMSA02.jpg,AMSA20.jpg,AMNE16.jpg,AMNE10.jpg,AMSA02.jpg,MS,2,num_8,16,num_8,0.766753426637,,,2017_Oct_24_1800,59.9989030944,FEMA4ImagesEEG,001,201739,
AFNE01.JPG,AFNE01.JPG,AFNE01.JPG,AFNE01.JPG,AFNE01.JPG,AFNE01.JPG,,,,,3,3,33,1,,,,,,,,,,,,,,,,,,,AMNE10.jpg,AMSA11.jpg,AMNE03.jpg,AMSA08.jpg,AMSA08.jpg,MS,2,num_4,16,num_4,0.783449841896,,,2017_Oct_24_1800,59.9989030944,FEMA4ImagesEEG,001,201739,
AFNE01.JPG,AFNE01.JPG,AFNE01.JPG,AFNE01.JPG,AFNE01.JPG,AFNE01.JPG,,,,,3,4,34,3,,,,,,,,,,,,,,,,,,,AMSA08.jpg,AMSA17.jpg,AMNE02.jpg,AMNE06.jpg,AMSA17.jpg,MS,2,num_6,16,num_6,0.883527300553,,,2017_Oct_24_1800,59.9989030944,FEMA4ImagesEEG,001,201739,
AFNE01.JPG,AFNE01.JPG,AFNE01.JPG,AFNE01.JPG,AFNE01.JPG,AFNE01.JPG,,,,,3,5,35,4,,,,,,,,,,,,,,,,,,,AMSA15.jpg,AMSA09.jpg,AMNE11.jpg,AMNE19.jpg,AMSA15.jpg,MS,2,num_8,16,num_8,0.8501023961,,,2017_Oct_24_1800,59.9989030944,FEMA4ImagesEEG,001,201739,
AFNE01.JPG,AFNE01.JPG,AFNE01.JPG,AFNE01.JPG,AFNE01.JPG,AFNE01.JPG,,,,,3,6,36,2,,,,,,,,,,,,,,,,,,,AMSA19.jpg,AMNE13.jpg,AMSA16.jpg,AMNE04.jpg,AMSA19.jpg,MS,2,num_8,32,num_6,1.55007625581,,,2017_Oct_24_1800,59.9989030944,FEMA4ImagesEEG,001,201739,
AFNE01.JPG,AFNE01.JPG,AFNE01.JPG,AFNE01.JPG,AFNE01.JPG,AFNE01.JPG,,,,,3,7,37,7,,,,,,,,,,,,,,,,,,,AMNE06.jpg,AMSA17.jpg,AMNE05.jpg,AMSA03.jpg,AMSA17.jpg,MS,2,num_6,32,num_8,1.91677098721,,,2017_Oct_24_1800,59.9989030944,FEMA4ImagesEEG,001,201739,
AFNE01.JPG,AFNE01.JPG,AFNE01.JPG,AFNE01.JPG,AFNE01.JPG,AFNE01.JPG,,,,,3,8,38,9,,,,,,,,,,,,,,,,,,,AMSA08.jpg,AMNE17.jpg,AMNE12.jpg,AMSA01.jpg,AMNE17.jpg,MN,1,num_6,32,num_4,1.61638850532,,,2017_Oct_24_1800,59.9989030944,FEMA4ImagesEEG,001,201739,
AFNE01.JPG,AFNE01.JPG,AFNE01.JPG,AFNE01.JPG,AFNE01.JPG,AFNE01.JPG,,,,,3,9,39,6,,,,,,,,,,,,,,,,,,,AMNE08.jpg,AMNE06.jpg,AMSA07.jpg,AMSA06.jpg,AMNE06.jpg,MN,1,num_6,32,num_2,1.18349057587,,,2017_Oct_24_1800,59.9989030944,FEMA4ImagesEEG,001,201739,
AFNE01.JPG,AFNE01.JPG,AFNE01.JPG,AFNE01.JPG,AFNE01.JPG,AFNE01.JPG,,,,,4,0,40,5,,,,,,,,,,,,,,,,,,,AMSA01.jpg,AMNE07.jpg,AMSA17.jpg,AMNE03.jpg,AMNE07.jpg,MN,1,num_6,16,num_6,1.35007657658,,,2017_Oct_24_1800,59.9989030944,FEMA4ImagesEEG,001,201739,
AFNE01.JPG,AFNE01.JPG,AFNE01.JPG,AFNE01.JPG,AFNE01.JPG,AFNE01.JPG,,,,,4,1,41,1,,,,,,,,,,,,,,,,,,,AMNE12.jpg,AMNE13.jpg,AMSA13.jpg,AMSA07.jpg,AMNE12.jpg,MN,1,num_8,32,num_6,0.650106565678,,,2017_Oct_24_1800,59.9989030944,FEMA4ImagesEEG,001,201739,
AFNE01.JPG,AFNE01.JPG,AFNE01.JPG,AFNE01.JPG,AFNE01.JPG,AFNE01.JPG,,,,,4,2,42,8,,,,,,,,,,,,,,,,,,,AMSA09.jpg,AMNE04.jpg,AMSA18.jpg,AMNE14.jpg,AMNE14.jpg,MN,1,num_4,32,num_2,1.51706702972,,,2017_Oct_24_1800,59.9989030944,FEMA4ImagesEEG,001,201739,
AFNE01.JPG,AFNE01.JPG,AFNE01.JPG,AFNE01.JPG,AFNE01.JPG,AFNE01.JPG,,,,,4,3,43,2,,,,,,,,,,,,,,,,,,,AMSA03.jpg,AMNE14.jpg,AMSA05.jpg,AMNE02.jpg,AMNE14.jpg,MN,1,num_6,16,num_6,0.60003014945,,,2017_Oct_24_1800,59.9989030944,FEMA4ImagesEEG,001,201739,
AFNE01.JPG,AFNE01.JPG,AFNE01.JPG,AFNE01.JPG,AFNE01.JPG,AFNE01.JPG,,,,,4,4,44,9,,,,,,,,,,,,,,,,,,,AMNE19.jpg,AMSA17.jpg,AMSA09.jpg,AMNE07.jpg,AMNE19.jpg,MN,1,num_8,32,num_4,2.53333012597,,,2017_Oct_24_1800,59.9989030944,FEMA4ImagesEEG,001,201739,
AFNE01.JPG,AFNE01.JPG,AFNE01.JPG,AFNE01.JPG,AFNE01.JPG,AFNE01.JPG,,,,,4,5,45,3,,,,,,,,,,,,,,,,,,,AMNE13.jpg,AMSA06.jpg,AMNE16.jpg,AMSA20.jpg,AMNE16.jpg,MN,1,num_2,32,num_6,1.93347317574,,,2017_Oct_24_1800,59.9989030944,FEMA4ImagesEEG,001,201739,
AFNE01.JPG,AFNE01.JPG,AFNE01.JPG,AFNE01.JPG,AFNE01.JPG,AFNE01.JPG,,,,,4,6,46,4,,,,,,,,,,,,,,,,,,,AMNE13.jpg,AMSA19.jpg,AMSA11.jpg,AMNE20.jpg,AMSA19.jpg,MS,2,num_6,32,num_2,2.56660556584,,,2017_Oct_24_1800,59.9989030944,FEMA4ImagesEEG,001,201739,
AFNE01.JPG,AFNE01.JPG,AFNE01.JPG,AFNE01.JPG,AFNE01.JPG,AFNE01.JPG,,,,,4,7,47,7,,,,,,,,,,,,,,,,,,,AMSA12.jpg,AMSA01.jpg,AMNE11.jpg,AMNE06.jpg,AMSA12.jpg,MS,2,num_8,32,num_4,0.716769704246,,,2017_Oct_24_1800,59.9989030944,FEMA4ImagesEEG,001,201739,
AFNE01.JPG,AFNE01.JPG,AFNE01.JPG,AFNE01.JPG,AFNE01.JPG,AFNE01.JPG,,,,,4,8,48,0,,,,,,,,,,,,,,,,,,,AMSA18.jpg,AMNE09.jpg,AMNE12.jpg,AMSA07.jpg,AMNE09.jpg,MN,1,num_6,16,num_6,1.81637022318,,,2017_Oct_24_1800,59.9989030944,FEMA4ImagesEEG,001,201739,
AFNE01.JPG,AFNE01.JPG,AFNE01.JPG,AFNE01.JPG,AFNE01.JPG,AFNE01.JPG,,,,,4,9,49,6,,,,,,,,,,,,,,,,,,,AMNE17.jpg,AMSA06.jpg,AMNE04.jpg,AMSA10.jpg,AMNE04.jpg,MN,1,num_2,16,num_2,1.86670611764,,,2017_Oct_24_1800,59.9989030944,FEMA4ImagesEEG,001,201739,
AFNE01.JPG,AFNE01.JPG,AFNE01.JPG,AFNE01.JPG,AFNE01.JPG,AFNE01.JPG,,,,,5,0,50,6,,,,,,,,,,,,,,,,,,,AMSA02.jpg,AMNE18.jpg,AMNE13.jpg,AMSA01.jpg,AMNE13.jpg,MN,1,num_2,32,num_4,1.71672287618,,,2017_Oct_24_1800,59.9989030944,FEMA4ImagesEEG,001,201739,
AFNE01.JPG,AFNE01.JPG,AFNE01.JPG,AFNE01.JPG,AFNE01.JPG,AFNE01.JPG,,,,,5,1,51,7,,,,,,,,,,,,,,,,,,,AMSA01.jpg,AMNE09.jpg,AMSA15.jpg,AMNE04.jpg,AMNE04.jpg,MN,1,num_4,16,num_4,1.58345048351,,,2017_Oct_24_1800,59.9989030944,FEMA4ImagesEEG,001,201739,
AFNE01.JPG,AFNE01.JPG,AFNE01.JPG,AFNE01.JPG,AFNE01.JPG,AFNE01.JPG,,,,,5,2,52,8,,,,,,,,,,,,,,,,,,,AMSA05.jpg,AMNE07.jpg,AMSA16.jpg,AMNE13.jpg,AMNE13.jpg,MN,1,num_4,32,num_6,1.13344046031,,,2017_Oct_24_1800,59.9989030944,FEMA4ImagesEEG,001,201739,
AFNE01.JPG,AFNE01.JPG,AFNE01.JPG,AFNE01.JPG,AFNE01.JPG,AFNE01.JPG,,,,,5,3,53,9,,,,,,,,,,,,,,,,,,,AMSA14.jpg,AMNE16.jpg,AMNE17.jpg,AMSA17.jpg,AMNE16.jpg,MN,1,num_6,32,num_8,0.76675503049,,,2017_Oct_24_1800,59.9989030944,FEMA4ImagesEEG,001,201739,
AFNE01.JPG,AFNE01.JPG,AFNE01.JPG,AFNE01.JPG,AFNE01.JPG,AFNE01.JPG,,,,,5,4,54,0,,,,,,,,,,,,,,,,,,,AMNE20.jpg,AMSA13.jpg,AMNE12.jpg,AMSA04.jpg,AMSA04.jpg,MS,2,num_4,32,num_6,3.56654238002,,,2017_Oct_24_1800,59.9989030944,FEMA4ImagesEEG,001,201739,
AFNE01.JPG,AFNE01.JPG,AFNE01.JPG,AFNE01.JPG,AFNE01.JPG,AFNE01.JPG,,,,,5,5,55,4,,,,,,,,,,,,,,,,,,,AMSA20.jpg,AMNE01.jpg,AMNE07.jpg,AMSA07.jpg,AMNE01.jpg,MN,1,num_6,16,num_6,0.816762166796,,,2017_Oct_24_1800,59.9989030944,FEMA4ImagesEEG,001,201739,
AFNE01.JPG,AFNE01.JPG,AFNE01.JPG,AFNE01.JPG,AFNE01.JPG,AFNE01.JPG,,,,,5,6,56,3,,,,,,,,,,,,,,,,,,,AMNE06.jpg,AMNE01.jpg,AMSA09.jpg,AMSA02.jpg,AMSA09.jpg,MS,2,num_2,32,num_4,0.700155077502,,,2017_Oct_24_1800,59.9989030944,FEMA4ImagesEEG,001,201739,
AFNE01.JPG,AFNE01.JPG,AFNE01.JPG,AFNE01.JPG,AFNE01.JPG,AFNE01.JPG,,,,,5,7,57,5,,,,,,,,,,,,,,,,,,,AMSA03.jpg,AMSA07.jpg,AMNE14.jpg,AMNE11.jpg,AMNE11.jpg,MN,1,num_4,16,num_4,1.03340245271,,,2017_Oct_24_1800,59.9989030944,FEMA4ImagesEEG,001,201739,
AFNE01.JPG,AFNE01.JPG,AFNE01.JPG,AFNE01.JPG,AFNE01.JPG,AFNE01.JPG,,,,,5,8,58,1,,,,,,,,,,,,,,,,,,,AMNE05.jpg,AMSA06.jpg,AMSA09.jpg,AMNE01.jpg,AMNE01.jpg,MN,1,num_4,16,num_4,0.949783099932,,,2017_Oct_24_1800,59.9989030944,FEMA4ImagesEEG,001,201739,
AFNE01.JPG,AFNE01.JPG,AFNE01.JPG,AFNE01.JPG,AFNE01.JPG,AFNE01.JPG,,,,,5,9,59,2,,,,,,,,,,,,,,,,,,,AMSA05.jpg,AMSA09.jpg,AMNE13.jpg,AMNE03.jpg,AMSA05.jpg,MS,2,num_8,16,num_8,0.533447837341,,,2017_Oct_24_1800,59.9989030944,FEMA4ImagesEEG,001,201739,
,,,,,,,,,,,,,,,,,,,,,,,,,,,,,,,,,,,,,,,,,,,space,12.4328138957,2017_Oct_24_1800,59.9989030944,FEMA4ImagesEEG,001,201739,
AFNE01.JPG,AFNE01.JPG,AFNE01.JPG,AFNE01.JPG,AFNE01.JPG,AFNE01.JPG,,,,,,,,,0,0,0,0,,,,,,,,,,,,,,,AFSA09.jpg,AFNE16.jpg,AFSA02.jpg,AFNE09.jpg,AFNE09.jpg,FN,3,num_4,16,num_4,0.716775477515,,,2017_Oct_24_1800,59.9989030944,FEMA4ImagesEEG,001,201739,
AFNE01.JPG,AFNE01.JPG,AFNE01.JPG,AFNE01.JPG,AFNE01.JPG,AFNE01.JPG,,,,,,,,,0,1,1,1,,,,,,,,,,,,,,,AFSA03.jpg,AFSA13.jpg,AFNE05.jpg,AFNE19.jpg,AFNE19.jpg,FN,3,num_4,32,num_2,0.516782213002,,,2017_Oct_24_1800,59.9989030944,FEMA4ImagesEEG,001,201739,
AFNE01.JPG,AFNE01.JPG,AFNE01.JPG,AFNE01.JPG,AFNE01.JPG,AFNE01.JPG,,,,,,,,,0,2,2,9,,,,,,,,,,,,,,,AFNE01.jpg,AFNE05.jpg,AFSA18.jpg,AFSA02.jpg,AFNE01.jpg,FN,3,num_8,16,num_8,0.983417768031,,,2017_Oct_24_1800,59.9989030944,FEMA4ImagesEEG,001,201739,
AFNE01.JPG,AFNE01.JPG,AFNE01.JPG,AFNE01.JPG,AFNE01.JPG,AFNE01.JPG,,,,,,,,,0,3,3,8,,,,,,,,,,,,,,,AFNE13.jpg,AFSA10.jpg,AFSA16.jpg,AFNE19.jpg,AFNE19.jpg,FN,3,num_4,16,num_4,2.46663266828,,,2017_Oct_24_1800,59.9989030944,FEMA4ImagesEEG,001,201739,
AFNE01.JPG,AFNE01.JPG,AFNE01.JPG,AFNE01.JPG,AFNE01.JPG,AFNE01.JPG,,,,,,,,,0,4,4,2,,,,,,,,,,,,,,,AFNE20.jpg,AFNE10.jpg,AFSA11.jpg,AFSA05.jpg,AFNE10.jpg,FN,3,num_6,16,num_6,0.683654954773,,,2017_Oct_24_1800,59.9989030944,FEMA4ImagesEEG,001,201739,
AFNE01.JPG,AFNE01.JPG,AFNE01.JPG,AFNE01.JPG,AFNE01.JPG,AFNE01.JPG,,,,,,,,,0,5,5,6,,,,,,,,,,,,,,,AFNE14.jpg,AFNE03.jpg,AFSA09.jpg,AFSA20.jpg,AFSA09.jpg,FS,4,num_2,16,num_2,1.69999150035,,,2017_Oct_24_1800,59.9989030944,FEMA4ImagesEEG,001,201739,
AFNE01.JPG,AFNE01.JPG,AFNE01.JPG,AFNE01.JPG,AFNE01.JPG,AFNE01.JPG,,,,,,,,,0,6,6,3,,,,,,,,,,,,,,,AFSA18.jpg,AFSA20.jpg,AFNE14.jpg,AFNE09.jpg,AFNE14.jpg,FN,3,num_2,16,num_2,1.88304875721,,,2017_Oct_24_1800,59.9989030944,FEMA4ImagesEEG,001,201739,
AFNE01.JPG,AFNE01.JPG,AFNE01.JPG,AFNE01.JPG,AFNE01.JPG,AFNE01.JPG,,,,,,,,,0,7,7,4,,,,,,,,,,,,,,,AFSA10.jpg,AFSA13.jpg,AFNE17.jpg,AFNE16.jpg,AFNE16.jpg,FN,3,num_4,32,num_8,2.23335979425,,,2017_Oct_24_1800,59.9989030944,FEMA4ImagesEEG,001,201739,
AFNE01.JPG,AFNE01.JPG,AFNE01.JPG,AFNE01.JPG,AFNE01.JPG,AFNE01.JPG,,,,,,,,,0,8,8,5,,,,,,,,,,,,,,,AFSA08.jpg,AFNE02.jpg,AFSA17.jpg,AFNE01.jpg,AFSA08.jpg,FS,4,num_8,32,num_2,2.88333998865,,,2017_Oct_24_1800,59.9989030944,FEMA4ImagesEEG,001,201739,
AFNE01.JPG,AFNE01.JPG,AFNE01.JPG,AFNE01.JPG,AFNE01.JPG,AFNE01.JPG,,,,,,,,,0,9,9,7,,,,,,,,,,,,,,,AFSA16.jpg,AFSA20.jpg,AFNE20.jpg,AFNE15.jpg,AFNE20.jpg,FN,3,num_2,32,num_6,2.30000849953,,,2017_Oct_24_1800,59.9989030944,FEMA4ImagesEEG,001,201739,
AFNE01.JPG,AFNE01.JPG,AFNE01.JPG,AFNE01.JPG,AFNE01.JPG,AFNE01.JPG,,,,,,,,,1,0,10,6,,,,,,,,,,,,,,,AFNE20.jpg,AFSA14.jpg,AFSA03.jpg,AFNE18.jpg,AFNE18.jpg,FN,3,num_4,32,num_8,1.23333670106,,,2017_Oct_24_1800,59.9989030944,FEMA4ImagesEEG,001,201739,
AFNE01.JPG,AFNE01.JPG,AFNE01.JPG,AFNE01.JPG,AFNE01.JPG,AFNE01.JPG,,,,,,,,,1,1,11,1,,,,,,,,,,,,,,,AFNE11.jpg,AFNE01.jpg,AFSA03.jpg,AFSA04.jpg,AFNE01.jpg,FN,3,num_6,32,num_2,1.05012292333,,,2017_Oct_24_1800,59.9989030944,FEMA4ImagesEEG,001,201739,
AFNE01.JPG,AFNE01.JPG,AFNE01.JPG,AFNE01.JPG,AFNE01.JPG,AFNE01.JPG,,,,,,,,,1,2,12,4,,,,,,,,,,,,,,,AFNE05.jpg,AFSA17.jpg,AFNE19.jpg,AFSA16.jpg,AFSA16.jpg,FS,4,num_4,16,num_4,1.31672287628,,,2017_Oct_24_1800,59.9989030944,FEMA4ImagesEEG,001,201739,
AFNE01.JPG,AFNE01.JPG,AFNE01.JPG,AFNE01.JPG,AFNE01.JPG,AFNE01.JPG,,,,,,,,,1,3,13,5,,,,,,,,,,,,,,,AFNE01.jpg,AFNE05.jpg,AFSA08.jpg,AFSA14.jpg,AFNE05.jpg,FN,3,num_6,32,num_8,0.71679632552,,,2017_Oct_24_1800,59.9989030944,FEMA4ImagesEEG,001,201739,
AFNE01.JPG,AFNE01.JPG,AFNE01.JPG,AFNE01.JPG,AFNE01.JPG,AFNE01.JPG,,,,,,,,,1,4,14,2,,,,,,,,,,,,,,,AFSA11.jpg,AFSA15.jpg,AFNE15.jpg,AFNE01.jpg,AFSA11.jpg,FS,4,num_8,32,num_2,1.2834156832,,,2017_Oct_24_1800,59.9989030944,FEMA4ImagesEEG,001,201739,
AFNE01.JPG,AFNE01.JPG,AFNE01.JPG,AFNE01.JPG,AFNE01.JPG,AFNE01.JPG,,,,,,,,,1,5,15,0,,,,,,,,,,,,,,,AFSA06.jpg,AFNE04.jpg,AFNE13.jpg,AFSA04.jpg,AFNE04.jpg,FN,3,num_6,32,num_8,1.03346467612,,,2017_Oct_24_1800,59.9989030944,FEMA4ImagesEEG,001,201739,
AFNE01.JPG,AFNE01.JPG,AFNE01.JPG,AFNE01.JPG,AFNE01.JPG,AFNE01.JPG,,,,,,,,,1,6,16,7,,,,,,,,,,,,,,,AFNE17.jpg,AFNE03.jpg,AFSA16.jpg,AFSA09.jpg,AFNE03.jpg,FN,3,num_6,16,num_6,1.0997400406,,,2017_Oct_24_1800,59.9989030944,FEMA4ImagesEEG,001,201739,
AFNE01.JPG,AFNE01.JPG,AFNE01.JPG,AFNE01.JPG,AFNE01.JPG,AFNE01.JPG,,,,,,,,,1,7,17,8,,,,,,,,,,,,,,,AFNE02.jpg,AFSA01.jpg,AFSA08.jpg,AFNE08.jpg,AFSA08.jpg,FS,4,num_2,16,num_2,0.750097103883,,,2017_Oct_24_1800,59.9989030944,FEMA4ImagesEEG,001,201739,
AFNE01.JPG,AFNE01.JPG,AFNE01.JPG,AFNE01.JPG,AFNE01.JPG,AFNE01.JPG,,,,,,,,,1,8,18,3,,,,,,,,,,,,,,,AFSA01.jpg,AFNE14.jpg,AFSA10.jpg,AFNE10.jpg,AFNE14.jpg,FN,3,num_6,32,num_2,2.63325811992,,,2017_Oct_24_1800,59.9989030944,FEMA4ImagesEEG,001,201739,
AFNE01.JPG,AFNE01.JPG,AFNE01.JPG,AFNE01.JPG,AFNE01.JPG,AFNE01.JPG,,,,,,,,,1,9,19,9,,,,,,,,,,,,,,,AFNE06.jpg,AFNE09.jpg,AFSA05.jpg,AFSA16.jpg,AFNE09.jpg,FN,3,num_6,32,num_8,4.46650116518,,,2017_Oct_24_1800,59.9989030944,FEMA4ImagesEEG,001,201739,
AFNE01.JPG,AFNE01.JPG,AFNE01.JPG,AFNE01.JPG,AFNE01.JPG,AFNE01.JPG,,,,,,,,,2,0,20,2,,,,,,,,,,,,,,,AFNE06.jpg,AFNE15.jpg,AFSA12.jpg,AFSA13.jpg,AFSA12.jpg,FS,4,num_2,32,num_4,1.25010239612,,,2017_Oct_24_1800,59.9989030944,FEMA4ImagesEEG,001,201739,
AFNE01.JPG,AFNE01.JPG,AFNE01.JPG,AFNE01.JPG,AFNE01.JPG,AFNE01.JPG,,,,,,,,,2,1,21,4,,,,,,,,,,,,,,,AFSA08.jpg,AFSA07.jpg,AFNE20.jpg,AFNE10.jpg,AFNE20.jpg,FN,3,num_2,16,num_2,3.84990738647,,,2017_Oct_24_1800,59.9989030944,FEMA4ImagesEEG,001,201739,
AFNE01.JPG,AFNE01.JPG,AFNE01.JPG,AFNE01.JPG,AFNE01.JPG,AFNE01.JPG,,,,,,,,,2,2,22,0,,,,,,,,,,,,,,,AFSA04.jpg,AFNE20.jpg,AFSA03.jpg,AFNE03.jpg,AFSA04.jpg,FS,4,num_8,16,num_8,1.1001047215,,,2017_Oct_24_1800,59.9989030944,FEMA4ImagesEEG,001,201739,
AFNE01.JPG,AFNE01.JPG,AFNE01.JPG,AFNE01.JPG,AFNE01.JPG,AFNE01.JPG,,,,,,,,,2,3,23,9,,,,,,,,,,,,,,,AFNE20.jpg,AFNE18.jpg,AFSA14.jpg,AFSA16.jpg,AFSA16.jpg,FS,4,num_4,32,num_6,1.06674364419,,,2017_Oct_24_1800,59.9989030944,FEMA4ImagesEEG,001,201739,
AFNE01.JPG,AFNE01.JPG,AFNE01.JPG,AFNE01.JPG,AFNE01.JPG,AFNE01.JPG,,,,,,,,,2,4,24,6,,,,,,,,,,,,,,,AFNE03.jpg,AFSA06.jpg,AFNE14.jpg,AFSA03.jpg,AFNE03.jpg,FN,3,num_8,32,num_4,1.2667455686,,,2017_Oct_24_1800,59.9989030944,FEMA4ImagesEEG,001,201739,
AFNE01.JPG,AFNE01.JPG,AFNE01.JPG,AFNE01.JPG,AFNE01.JPG,AFNE01.JPG,,,,,,,,,2,5,25,7,,,,,,,,,,,,,,,AFNE02.jpg,AFSA17.jpg,AFSA09.jpg,AFNE07.jpg,AFNE07.jpg,FN,3,num_4,32,num_8,0.833436451154,,,2017_Oct_24_1800,59.9989030944,FEMA4ImagesEEG,001,201739,
AFNE01.JPG,AFNE01.JPG,AFNE01.JPG,AFNE01.JPG,AFNE01.JPG,AFNE01.JPG,,,,,,,,,2,6,26,5,,,,,,,,,,,,,,,AFNE14.jpg,AFSA20.jpg,AFSA16.jpg,AFNE06.jpg,AFNE06.jpg,FN,3,num_4,32,num_2,1.88337527006,,,2017_Oct_24_1800,59.9989030944,FEMA4ImagesEEG,001,201739,
AFNE01.JPG,AFNE01.JPG,AFNE01.JPG,AFNE01.JPG,AFNE01.JPG,AFNE01.JPG,,,,,,,,,2,7,27,1,,,,,,,,,,,,,,,AFNE04.jpg,AFNE20.jpg,AFSA14.jpg,AFSA01.jpg,AFSA01.jpg,FS,4,num_4,16,num_4,1.08348656667,,,2017_Oct_24_1800,59.9989030944,FEMA4ImagesEEG,001,201739,
AFNE01.JPG,AFNE01.JPG,AFNE01.JPG,AFNE01.JPG,AFNE01.JPG,AFNE01.JPG,,,,,,,,,2,8,28,8,,,,,,,,,,,,,,,AFSA17.jpg,AFNE11.jpg,AFNE05.jpg,AFSA14.jpg,AFSA17.jpg,FS,4,num_8,16,num_8,1.4336635347,,,2017_Oct_24_1800,59.9989030944,FEMA4ImagesEEG,001,201739,
AFNE01.JPG,AFNE01.JPG,AFNE01.JPG,AFNE01.JPG,AFNE01.JPG,AFNE01.JPG,,,,,,,,,2,9,29,3,,,,,,,,,,,,,,,AFSA09.jpg,AFSA05.jpg,AFNE02.jpg,AFNE11.jpg,AFNE02.jpg,FN,3,num_2,16,num_2,0.983430597582,,,2017_Oct_24_1800,59.9989030944,FEMA4ImagesEEG,001,201739,
AFNE01.JPG,AFNE01.JPG,AFNE01.JPG,AFNE01.JPG,AFNE01.JPG,AFNE01.JPG,,,,,,,,,3,0,30,9,,,,,,,,,,,,,,,AFNE02.jpg,AFSA06.jpg,AFSA07.jpg,AFNE12.jpg,AFNE12.jpg,FN,3,num_4,32,num_8,1.85005909624,,,2017_Oct_24_1800,59.9989030944,FEMA4ImagesEEG,001,201739,
AFNE01.JPG,AFNE01.JPG,AFNE01.JPG,AFNE01.JPG,AFNE01.JPG,AFNE01.JPG,,,,,,,,,3,1,31,3,,,,,,,,,,,,,,,AFNE04.jpg,AFNE12.jpg,AFSA18.jpg,AFSA03.jpg,AFNE04.jpg,FN,3,num_8,16,num_8,0.950102877221,,,2017_Oct_24_1800,59.9989030944,FEMA4ImagesEEG,001,201739,
AFNE01.JPG,AFNE01.JPG,AFNE01.JPG,AFNE01.JPG,AFNE01.JPG,AFNE01.JPG,,,,,,,,,3,2,32,2,,,,,,,,,,,,,,,AFSA07.jpg,AFSA20.jpg,AFNE02.jpg,AFNE11.jpg,AFSA07.jpg,FS,4,num_8,16,num_8,1.38341167395,,,2017_Oct_24_1800,59.9989030944,FEMA4ImagesEEG,001,201739,
AFNE01.JPG,AFNE01.JPG,AFNE01.JPG,AFNE01.JPG,AFNE01.JPG,AFNE01.JPG,,,,,,,,,3,3,33,8,,,,,,,,,,,,,,,AFNE07.jpg,AFSA12.jpg,AFSA15.jpg,AFNE12.jpg,AFSA15.jpg,FS,4,num_2,16,num_2,2.20000352815,,,2017_Oct_24_1800,59.9989030944,FEMA4ImagesEEG,001,201739,
AFNE01.JPG,AFNE01.JPG,AFNE01.JPG,AFNE01.JPG,AFNE01.JPG,AFNE01.JPG,,,,,,,,,3,4,34,7,,,,,,,,,,,,,,,AFSA05.jpg,AFNE05.jpg,AFNE18.jpg,AFSA18.jpg,AFNE18.jpg,FN,3,num_2,32,num_6,1.3667252016,,,2017_Oct_24_1800,59.9989030944,FEMA4ImagesEEG,001,201739,
AFNE01.JPG,AFNE01.JPG,AFNE01.JPG,AFNE01.JPG,AFNE01.JPG,AFNE01.JPG,,,,,,,,,3,5,35,1,,,,,,,,,,,,,,,AFSA20.jpg,AFNE06.jpg,AFNE08.jpg,AFSA11.jpg,AFNE08.jpg,FN,3,num_2,16,num_2,1.53341832932,,,2017_Oct_24_1800,59.9989030944,FEMA4ImagesEEG,001,201739,
AFNE01.JPG,AFNE01.JPG,AFNE01.JPG,AFNE01.JPG,AFNE01.JPG,AFNE01.JPG,,,,,,,,,3,6,36,4,,,,,,,,,,,,,,,AFSA20.jpg,AFSA06.jpg,AFNE01.jpg,AFNE06.jpg,AFSA06.jpg,FS,4,num_6,32,num_8,2.64999045804,,,2017_Oct_24_1800,59.9989030944,FEMA4ImagesEEG,001,201739,
AFNE01.JPG,AFNE01.JPG,AFNE01.JPG,AFNE01.JPG,AFNE01.JPG,AFNE01.JPG,,,,,,,,,3,7,37,6,,,,,,,,,,,,,,,AFSA14.jpg,AFNE07.jpg,AFSA03.jpg,AFNE18.jpg,AFSA03.jpg,FS,4,num_2,16,num_2,0.766820781981,,,2017_Oct_24_1800,59.9989030944,FEMA4ImagesEEG,001,201739,
AFNE01.JPG,AFNE01.JPG,AFNE01.JPG,AFNE01.JPG,AFNE01.JPG,AFNE01.JPG,,,,,,,,,3,8,38,0,,,,,,,,,,,,,,,AFNE07.jpg,AFSA06.jpg,AFNE16.jpg,AFSA05.jpg,AFSA06.jpg,FS,4,num_6,16,num_6,0.733420253731,,,2017_Oct_24_1800,59.9989030944,FEMA4ImagesEEG,001,201739,
AFNE01.JPG,AFNE01.JPG,AFNE01.JPG,AFNE01.JPG,AFNE01.JPG,AFNE01.JPG,,,,,,,,,3,9,39,5,,,,,,,,,,,,,,,AFSA02.jpg,AFNE20.jpg,AFNE09.jpg,AFSA12.jpg,AFSA12.jpg,FS,4,num_4,16,num_4,0.666762567707,,,2017_Oct_24_1800,59.9989030944,FEMA4ImagesEEG,001,201739,
AFNE01.JPG,AFNE01.JPG,AFNE01.JPG,AFNE01.JPG,AFNE01.JPG,AFNE01.JPG,,,,,,,,,4,0,40,2,,,,,,,,,,,,,,,AFSA14.jpg,AFSA10.jpg,AFNE06.jpg,AFNE01.jpg,AFNE01.jpg,FN,3,num_4,16,num_4,0.566760803689,,,2017_Oct_24_1800,59.9989030944,FEMA4ImagesEEG,001,201739,
AFNE01.JPG,AFNE01.JPG,AFNE01.JPG,AFNE01.JPG,AFNE01.JPG,AFNE01.JPG,,,,,,,,,4,1,41,0,,,,,,,,,,,,,,,AFSA06.jpg,AFSA15.jpg,AFNE08.jpg,AFNE16.jpg,AFSA06.jpg,FS,4,num_8,32,num_2,1.3167183859,,,2017_Oct_24_1800,59.9989030944,FEMA4ImagesEEG,001,201739,
AFNE01.JPG,AFNE01.JPG,AFNE01.JPG,AFNE01.JPG,AFNE01.JPG,AFNE01.JPG,,,,,,,,,4,2,42,5,,,,,,,,,,,,,,,AFNE12.jpg,AFSA06.jpg,AFNE07.jpg,AFSA02.jpg,AFSA02.jpg,FS,4,num_4,32,num_8,1.58346555813,,,2017_Oct_24_1800,59.9989030944,FEMA4ImagesEEG,001,201739,
AFNE01.JPG,AFNE01.JPG,AFNE01.JPG,AFNE01.JPG,AFNE01.JPG,AFNE01.JPG,,,,,,,,,4,3,43,9,,,,,,,,,,,,,,,AFNE04.jpg,AFNE13.jpg,AFSA03.jpg,AFSA18.jpg,AFSA03.jpg,FS,4,num_2,32,num_4,1.08342402242,,,2017_Oct_24_1800,59.9989030944,FEMA4ImagesEEG,001,201739,
AFNE01.JPG,AFNE01.JPG,AFNE01.JPG,AFNE01.JPG,AFNE01.JPG,AFNE01.JPG,,,,,,,,,4,4,44,3,,,,,,,,,,,,,,,AFNE13.jpg,AFSA09.jpg,AFNE10.jpg,AFSA06.jpg,AFNE13.jpg,FN,3,num_8,16,num_8,0.783455936005,,,2017_Oct_24_1800,59.9989030944,FEMA4ImagesEEG,001,201739,
AFNE01.JPG,AFNE01.JPG,AFNE01.JPG,AFNE01.JPG,AFNE01.JPG,AFNE01.JPG,,,,,,,,,4,5,45,4,,,,,,,,,,,,,,,AFSA17.jpg,AFNE01.jpg,AFSA11.jpg,AFNE18.jpg,AFNE01.jpg,FN,3,num_6,32,num_2,1.50005661056,,,2017_Oct_24_1800,59.9989030944,FEMA4ImagesEEG,001,201739,
AFNE01.JPG,AFNE01.JPG,AFNE01.JPG,AFNE01.JPG,AFNE01.JPG,AFNE01.JPG,,,,,,,,,4,6,46,6,,,,,,,,,,,,,,,AFNE07.jpg,AFSA06.jpg,AFSA07.jpg,AFNE19.jpg,AFNE19.jpg,FN,3,num_4,32,num_6,1.23341977259,,,2017_Oct_24_1800,59.9989030944,FEMA4ImagesEEG,001,201739,
AFNE01.JPG,AFNE01.JPG,AFNE01.JPG,AFNE01.JPG,AFNE01.JPG,AFNE01.JPG,,,,,,,,,4,7,47,7,,,,,,,,,,,,,,,AFSA15.jpg,AFNE09.jpg,AFSA10.jpg,AFNE19.jpg,AFNE19.jpg,FN,3,num_4,32,num_8,1.76674572891,,,2017_Oct_24_1800,59.9989030944,FEMA4ImagesEEG,001,201739,
AFNE01.JPG,AFNE01.JPG,AFNE01.JPG,AFNE01.JPG,AFNE01.JPG,AFNE01.JPG,,,,,,,,,4,8,48,1,,,,,,,,,,,,,,,AFNE04.jpg,AFSA18.jpg,AFNE02.jpg,AFSA12.jpg,AFSA18.jpg,FS,4,num_6,16,num_6,0.650119715952,,,2017_Oct_24_1800,59.9989030944,FEMA4ImagesEEG,001,201739,
AFNE01.JPG,AFNE01.JPG,AFNE01.JPG,AFNE01.JPG,AFNE01.JPG,AFNE01.JPG,,,,,,,,,4,9,49,8,,,,,,,,,,,,,,,AFNE06.jpg,AFSA06.jpg,AFNE08.jpg,AFSA16.jpg,AFNE08.jpg,FN,3,num_2,32,num_8,1.31670299044,,,2017_Oct_24_1800,59.9989030944,FEMA4ImagesEEG,001,201739,
AFNE01.JPG,AFNE01.JPG,AFNE01.JPG,AFNE01.JPG,AFNE01.JPG,AFNE01.JPG,,,,,,,,,5,0,50,3,,,,,,,,,,,,,,,AFSA19.jpg,AFNE02.jpg,AFSA13.jpg,AFNE08.jpg,AFNE08.jpg,FN,3,num_4,32,num_2,0.783508537337,,,2017_Oct_24_1800,59.9989030944,FEMA4ImagesEEG,001,201739,
AFNE01.JPG,AFNE01.JPG,AFNE01.JPG,AFNE01.JPG,AFNE01.JPG,AFNE01.JPG,,,,,,,,,5,1,51,2,,,,,,,,,,,,,,,AFNE01.jpg,AFNE17.jpg,AFSA18.jpg,AFSA12.jpg,AFSA18.jpg,FS,4,num_2,32,num_6,1.93339331157,,,2017_Oct_24_1800,59.9989030944,FEMA4ImagesEEG,001,201739,
AFNE01.JPG,AFNE01.JPG,AFNE01.JPG,AFNE01.JPG,AFNE01.JPG,AFNE01.JPG,,,,,,,,,5,2,52,1,,,,,,,,,,,,,,,AFNE09.jpg,AFNE17.jpg,AFSA15.jpg,AFSA02.jpg,AFSA15.jpg,FS,4,num_2,16,num_2,1.56668831664,,,2017_Oct_24_1800,59.9989030944,FEMA4ImagesEEG,001,201739,
AFNE01.JPG,AFNE01.JPG,AFNE01.JPG,AFNE01.JPG,AFNE01.JPG,AFNE01.JPG,,,,,,,,,5,3,53,6,,,,,,,,,,,,,,,AFNE09.jpg,AFNE10.jpg,AFSA06.jpg,AFSA11.jpg,AFNE09.jpg,FN,3,num_8,16,num_8,1.65020022157,,,2017_Oct_24_1800,59.9989030944,FEMA4ImagesEEG,001,201739,
AFNE01.JPG,AFNE01.JPG,AFNE01.JPG,AFNE01.JPG,AFNE01.JPG,AFNE01.JPG,,,,,,,,,5,4,54,8,,,,,,,,,,,,,,,AFSA06.jpg,AFNE11.jpg,AFSA10.jpg,AFNE17.jpg,AFNE17.jpg,FN,3,num_4,32,num_8,2.76657445403,,,2017_Oct_24_1800,59.9989030944,FEMA4ImagesEEG,001,201739,
AFNE01.JPG,AFNE01.JPG,AFNE01.JPG,AFNE01.JPG,AFNE01.JPG,AFNE01.JPG,,,,,,,,,5,5,55,9,,,,,,,,,,,,,,,AFNE15.jpg,AFSA01.jpg,AFNE18.jpg,AFSA12.jpg,AFNE18.jpg,FN,3,num_2,16,num_2,2.99993104103,,,2017_Oct_24_1800,59.9989030944,FEMA4ImagesEEG,001,201739,
AFNE01.JPG,AFNE01.JPG,AFNE01.JPG,AFNE01.JPG,AFNE01.JPG,AFNE01.JPG,,,,,,,,,5,6,56,0,,,,,,,,,,,,,,,AFNE14.jpg,AFSA09.jpg,AFSA18.jpg,AFNE02.jpg,AFSA09.jpg,FS,4,num_6,16,num_6,0.666789189097,,,2017_Oct_24_1800,59.9989030944,FEMA4ImagesEEG,001,201739,
AFNE01.JPG,AFNE01.JPG,AFNE01.JPG,AFNE01.JPG,AFNE01.JPG,AFNE01.JPG,,,,,,,,,5,7,57,5,,,,,,,,,,,,,,,AFNE15.jpg,AFSA11.jpg,AFSA02.jpg,AFNE09.jpg,AFSA11.jpg,FS,4,num_6,16,num_6,0.983504046919,,,2017_Oct_24_1800,59.9989030944,FEMA4ImagesEEG,001,201739,
AFNE01.JPG,AFNE01.JPG,AFNE01.JPG,AFNE01.JPG,AFNE01.JPG,AFNE01.JPG,,,,,,,,,5,8,58,4,,,,,,,,,,,,,,,AFSA20.jpg,AFNE16.jpg,AFNE14.jpg,AFSA17.jpg,AFNE14.jpg,FN,3,num_2,32,num_4,2.33338048204,,,2017_Oct_24_1800,59.9989030944,FEMA4ImagesEEG,001,201739,
AFNE01.JPG,AFNE01.JPG,AFNE01.JPG,AFNE01.JPG,AFNE01.JPG,AFNE01.JPG,,,,,,,,,5,9,59,7,,,,,,,,,,,,,,,AFSA12.jpg,AFSA18.jpg,AFNE02.jpg,AFNE20.jpg,AFNE02.jpg,FN,3,num_2,32,num_8,2.94996303471,,,2017_Oct_24_1800,59.9989030944,FEMA4ImagesEEG,001,201739,
,,,,,,,,,,,,,,,,,,,,,,,,,,,,,,,,,,,,,,,,,,,space,12.132609745,2017_Oct_24_1800,59.9989030944,FEMA4ImagesEEG,001,201739,
AFNE01.JPG,AFNE01.JPG,AFNE01.JPG,AFNE01.JPG,AFNE01.JPG,AFNE01.JPG,,,,,,,,,,,,,0,0,0,9,,,,,,,,,,,AMNE07.jpg,AMSA14.jpg,AMSA16.jpg,AMNE14.jpg,AMSA14.jpg,MS,2,num_6,16,num_6,1.51671261259,,,2017_Oct_24_1800,59.9989030944,FEMA4ImagesEEG,001,201739,
AFNE01.JPG,AFNE01.JPG,AFNE01.JPG,AFNE01.JPG,AFNE01.JPG,AFNE01.JPG,,,,,,,,,,,,,0,1,1,3,,,,,,,,,,,AMNE11.jpg,AMSA10.jpg,AMSA14.jpg,AMNE03.jpg,AMSA10.jpg,MS,2,num_6,16,num_6,1.0167637706,,,2017_Oct_24_1800,59.9989030944,FEMA4ImagesEEG,001,201739,
AFNE01.JPG,AFNE01.JPG,AFNE01.JPG,AFNE01.JPG,AFNE01.JPG,AFNE01.JPG,,,,,,,,,,,,,0,2,2,0,,,,,,,,,,,AMNE12.jpg,AMSA12.jpg,AMSA14.jpg,AMNE18.jpg,AMNE12.jpg,MN,1,num_8,32,num_6,0.733447195846,,,2017_Oct_24_1800,59.9989030944,FEMA4ImagesEEG,001,201739,
AFNE01.JPG,AFNE01.JPG,AFNE01.JPG,AFNE01.JPG,AFNE01.JPG,AFNE01.JPG,,,,,,,,,,,,,0,3,3,6,,,,,,,,,,,AMSA08.jpg,AMNE11.jpg,AMSA15.jpg,AMNE17.jpg,AMSA15.jpg,MS,2,num_2,32,num_8,1.08309334004,,,2017_Oct_24_1800,59.9989030944,FEMA4ImagesEEG,001,201739,
AFNE01.JPG,AFNE01.JPG,AFNE01.JPG,AFNE01.JPG,AFNE01.JPG,AFNE01.JPG,,,,,,,,,,,,,0,4,4,1,,,,,,,,,,,AMSA04.jpg,AMNE19.jpg,AMNE02.jpg,AMSA07.jpg,AMSA04.jpg,MS,2,num_8,16,num_8,0.666785019566,,,2017_Oct_24_1800,59.9989030944,FEMA4ImagesEEG,001,201739,
AFNE01.JPG,AFNE01.JPG,AFNE01.JPG,AFNE01.JPG,AFNE01.JPG,AFNE01.JPG,,,,,,,,,,,,,0,5,5,4,,,,,,,,,,,AMSA19.jpg,AMSA18.jpg,AMNE20.jpg,AMNE11.jpg,AMNE20.jpg,MN,1,num_2,16,num_2,0.616820541443,,,2017_Oct_24_1800,59.9989030944,FEMA4ImagesEEG,001,201739,
AFNE01.JPG,AFNE01.JPG,AFNE01.JPG,AFNE01.JPG,AFNE01.JPG,AFNE01.JPG,,,,,,,,,,,,,0,6,6,5,,,,,,,,,,,AMSA05.jpg,AMSA17.jpg,AMNE07.jpg,AMNE04.jpg,AMSA17.jpg,MS,2,num_6,32,num_2,2.18344214419,,,2017_Oct_24_1800,59.9989030944,FEMA4ImagesEEG,001,201739,
AFNE01.JPG,AFNE01.JPG,AFNE01.JPG,AFNE01.JPG,AFNE01.JPG,AFNE01.JPG,,,,,,,,,,,,,0,7,7,7,,,,,,,,,,,AMNE14.jpg,AMSA08.jpg,AMSA11.jpg,AMNE06.jpg,AMSA11.jpg,MS,2,num_2,32,num_6,1.88336147822,,,2017_Oct_24_1800,59.9989030944,FEMA4ImagesEEG,001,201739,
AFNE01.JPG,AFNE01.JPG,AFNE01.JPG,AFNE01.JPG,AFNE01.JPG,AFNE01.JPG,,,,,,,,,,,,,0,8,8,8,,,,,,,,,,,AMSA12.jpg,AMNE10.jpg,AMNE01.jpg,AMSA16.jpg,AMSA12.jpg,MS,2,num_8,32,num_2,0.93344142253,,,2017_Oct_24_1800,59.9989030944,FEMA4ImagesEEG,001,201739,
AFNE01.JPG,AFNE01.JPG,AFNE01.JPG,AFNE01.JPG,AFNE01.JPG,AFNE01.JPG,,,,,,,,,,,,,0,9,9,2,,,,,,,,,,,AMNE17.jpg,AMSA08.jpg,AMNE12.jpg,AMSA11.jpg,AMSA08.jpg,MS,2,num_6,16,num_6,1.35008523648,,,2017_Oct_24_1800,59.9989030944,FEMA4ImagesEEG,001,201739,
AFNE01.JPG,AFNE01.JPG,AFNE01.JPG,AFNE01.JPG,AFNE01.JPG,AFNE01.JPG,,,,,,,,,,,,,1,0,10,2,,,,,,,,,,,AMSA04.jpg,AMNE09.jpg,AMNE14.jpg,AMSA11.jpg,AMNE09.jpg,MN,1,num_6,32,num_8,1.43340213201,,,2017_Oct_24_1800,59.9989030944,FEMA4ImagesEEG,001,201739,
AFNE01.JPG,AFNE01.JPG,AFNE01.JPG,AFNE01.JPG,AFNE01.JPG,AFNE01.JPG,,,,,,,,,,,,,1,1,11,9,,,,,,,,,,,AMSA18.jpg,AMNE11.jpg,AMSA05.jpg,AMNE03.jpg,AMNE03.jpg,MN,1,num_4,16,num_4,1.18338922225,,,2017_Oct_24_1800,59.9989030944,FEMA4ImagesEEG,001,201739,
AFNE01.JPG,AFNE01.JPG,AFNE01.JPG,AFNE01.JPG,AFNE01.JPG,AFNE01.JPG,,,,,,,,,,,,,1,2,12,8,,,,,,,,,,,AMNE16.jpg,AMSA11.jpg,AMSA12.jpg,AMNE17.jpg,AMSA12.jpg,MS,2,num_2,32,num_8,1.41671950847,,,2017_Oct_24_1800,59.9989030944,FEMA4ImagesEEG,001,201739,
AFNE01.JPG,AFNE01.JPG,AFNE01.JPG,AFNE01.JPG,AFNE01.JPG,AFNE01.JPG,,,,,,,,,,,,,1,3,13,0,,,,,,,,,,,AMSA19.jpg,AMNE15.jpg,AMNE02.jpg,AMSA03.jpg,AMNE02.jpg,MN,1,num_2,16,num_2,0.866749738227,,,2017_Oct_24_1800,59.9989030944,FEMA4ImagesEEG,001,201739,
AFNE01.JPG,AFNE01.JPG,AFNE01.JPG,AFNE01.JPG,AFNE01.JPG,AFNE01.JPG,,,,,,,,,,,,,1,4,14,4,,,,,,,,,,,AMNE18.jpg,AMSA08.jpg,AMSA16.jpg,AMNE06.jpg,AMNE18.jpg,MN,1,num_8,16,num_8,0.850097264163,,,2017_Oct_24_1800,59.9989030944,FEMA4ImagesEEG,001,201739,
AFNE01.JPG,AFNE01.JPG,AFNE01.JPG,AFNE01.JPG,AFNE01.JPG,AFNE01.JPG,,,,,,,,,,,,,1,5,15,6,,,,,,,,,,,AMNE15.jpg,AMSA02.jpg,AMNE02.jpg,AMSA07.jpg,AMSA07.jpg,MS,2,num_4,16,num_4,2.73330510827,,,2017_Oct_24_1800,59.9989030944,FEMA4ImagesEEG,001,201739,
AFNE01.JPG,AFNE01.JPG,AFNE01.JPG,AFNE01.JPG,AFNE01.JPG,AFNE01.JPG,,,,,,,,,,,,,1,6,16,1,,,,,,,,,,,AMSA17.jpg,AMNE14.jpg,AMSA11.jpg,AMNE16.jpg,AMNE16.jpg,MN,1,num_4,32,num_6,2.25024737034,,,2017_Oct_24_1800,59.9989030944,FEMA4ImagesEEG,001,201739,
AFNE01.JPG,AFNE01.JPG,AFNE01.JPG,AFNE01.JPG,AFNE01.JPG,AFNE01.JPG,,,,,,,,,,,,,1,7,17,5,,,,,,,,,,,AMNE06.jpg,AMNE05.jpg,AMSA01.jpg,AMSA13.jpg,AMSA01.jpg,MS,2,num_2,16,num_2,2.24999109947,,,2017_Oct_24_1800,59.9989030944,FEMA4ImagesEEG,001,201739,
AFNE01.JPG,AFNE01.JPG,AFNE01.JPG,AFNE01.JPG,AFNE01.JPG,AFNE01.JPG,,,,,,,,,,,,,1,8,18,3,,,,,,,,,,,AMNE16.jpg,AMSA02.jpg,AMSA18.jpg,AMNE20.jpg,AMSA18.jpg,MS,2,num_2,16,num_2,1.33346836467,,,2017_Oct_24_1800,59.9989030944,FEMA4ImagesEEG,001,201739,
AFNE01.JPG,AFNE01.JPG,AFNE01.JPG,AFNE01.JPG,AFNE01.JPG,AFNE01.JPG,,,,,,,,,,,,,1,9,19,7,,,,,,,,,,,AMSA10.jpg,AMNE14.jpg,AMNE02.jpg,AMSA16.jpg,AMNE14.jpg,MN,1,num_6,16,num_6,0.600179934874,,,2017_Oct_24_1800,59.9989030944,FEMA4ImagesEEG,001,201739,
AFNE01.JPG,AFNE01.JPG,AFNE01.JPG,AFNE01.JPG,AFNE01.JPG,AFNE01.JPG,,,,,,,,,,,,,2,0,20,3,,,,,,,,,,,AMNE16.jpg,AMNE06.jpg,AMSA06.jpg,AMSA11.jpg,AMNE06.jpg,MN,1,num_6,16,num_6,0.783464275184,,,2017_Oct_24_1800,59.9989030944,FEMA4ImagesEEG,001,201739,
AFNE01.JPG,AFNE01.JPG,AFNE01.JPG,AFNE01.JPG,AFNE01.JPG,AFNE01.JPG,,,,,,,,,,,,,2,1,21,9,,,,,,,,,,,AMNE03.jpg,AMSA09.jpg,AMNE01.jpg,AMSA02.jpg,AMNE03.jpg,MN,1,num_8,16,num_8,0.633589123026,,,2017_Oct_24_1800,59.9989030944,FEMA4ImagesEEG,001,201739,
AFNE01.JPG,AFNE01.JPG,AFNE01.JPG,AFNE01.JPG,AFNE01.JPG,AFNE01.JPG,,,,,,,,,,,,,2,2,22,7,,,,,,,,,,,AMNE02.jpg,AMNE05.jpg,AMSA16.jpg,AMSA11.jpg,AMSA16.jpg,MS,2,num_2,16,num_2,1.01678012835,,,2017_Oct_24_1800,59.9989030944,FEMA4ImagesEEG,001,201739,
AFNE01.JPG,AFNE01.JPG,AFNE01.JPG,AFNE01.JPG,AFNE01.JPG,AFNE01.JPG,,,,,,,,,,,,,2,3,23,8,,,,,,,,,,,AMSA09.jpg,AMSA18.jpg,AMNE18.jpg,AMNE19.jpg,AMSA18.jpg,MS,2,num_6,16,num_6,0.483480793308,,,2017_Oct_24_1800,59.9989030944,FEMA4ImagesEEG,001,201739,
AFNE01.JPG,AFNE01.JPG,AFNE01.JPG,AFNE01.JPG,AFNE01.JPG,AFNE01.JPG,,,,,,,,,,,,,2,4,24,1,,,,,,,,,,,AMSA14.jpg,AMNE07.jpg,AMSA01.jpg,AMNE09.jpg,AMNE07.jpg,MN,1,num_6,32,num_8,1.91670331114,,,2017_Oct_24_1800,59.9989030944,FEMA4ImagesEEG,001,201739,
AFNE01.JPG,AFNE01.JPG,AFNE01.JPG,AFNE01.JPG,AFNE01.JPG,AFNE01.JPG,,,,,,,,,,,,,2,5,25,2,,,,,,,,,,,AMSA11.jpg,AMSA13.jpg,AMNE11.jpg,AMNE09.jpg,AMNE09.jpg,MN,1,num_4,32,num_6,1.48341151362,,,2017_Oct_24_1800,59.9989030944,FEMA4ImagesEEG,001,201739,
AFNE01.JPG,AFNE01.JPG,AFNE01.JPG,AFNE01.JPG,AFNE01.JPG,AFNE01.JPG,,,,,,,,,,,,,2,6,26,0,,,,,,,,,,,AMSA08.jpg,AMNE18.jpg,AMNE13.jpg,AMSA11.jpg,AMSA08.jpg,MS,2,num_8,16,num_8,0.600254346384,,,2017_Oct_24_1800,59.9989030944,FEMA4ImagesEEG,001,201739,
AFNE01.JPG,AFNE01.JPG,AFNE01.JPG,AFNE01.JPG,AFNE01.JPG,AFNE01.JPG,,,,,,,,,,,,,2,7,27,4,,,,,,,,,,,AMSA07.jpg,AMSA04.jpg,AMNE12.jpg,AMNE02.jpg,AMNE12.jpg,MN,1,num_2,16,num_2,0.683520885766,,,2017_Oct_24_1800,59.9989030944,FEMA4ImagesEEG,001,201739,
AFNE01.JPG,AFNE01.JPG,AFNE01.JPG,AFNE01.JPG,AFNE01.JPG,AFNE01.JPG,,,,,,,,,,,,,2,8,28,6,,,,,,,,,,,AMNE08.jpg,AMSA15.jpg,AMSA16.jpg,AMNE13.jpg,AMNE13.jpg,MN,1,num_4,16,num_4,1.20009910851,,,2017_Oct_24_1800,59.9989030944,FEMA4ImagesEEG,001,201739,
AFNE01.JPG,AFNE01.JPG,AFNE01.JPG,AFNE01.JPG,AFNE01.JPG,AFNE01.JPG,,,,,,,,,,,,,2,9,29,5,,,,,,,,,,,AMNE13.jpg,AMNE10.jpg,AMSA15.jpg,AMSA08.jpg,AMSA08.jpg,MS,2,num_4,16,num_4,1.06673883309,,,2017_Oct_24_1800,59.9989030944,FEMA4ImagesEEG,001,201739,
AFNE01.JPG,AFNE01.JPG,AFNE01.JPG,AFNE01.JPG,AFNE01.JPG,AFNE01.JPG,,,,,,,,,,,,,3,0,30,6,,,,,,,,,,,AMSA20.jpg,AMNE12.jpg,AMSA16.jpg,AMNE03.jpg,AMNE12.jpg,MN,1,num_6,16,num_6,1.71672672522,,,2017_Oct_24_1800,59.9989030944,FEMA4ImagesEEG,001,201739,
AFNE01.JPG,AFNE01.JPG,AFNE01.JPG,AFNE01.JPG,AFNE01.JPG,AFNE01.JPG,,,,,,,,,,,,,3,1,31,1,,,,,,,,,,,AMNE13.jpg,AMSA14.jpg,AMNE05.jpg,AMSA09.jpg,AMNE05.jpg,MN,1,num_2,16,num_2,1.21671822562,,,2017_Oct_24_1800,59.9989030944,FEMA4ImagesEEG,001,201739,
AFNE01.JPG,AFNE01.JPG,AFNE01.JPG,AFNE01.JPG,AFNE01.JPG,AFNE01.JPG,,,,,,,,,,,,,3,2,32,4,,,,,,,,,,,AMNE07.jpg,AMSA12.jpg,AMSA14.jpg,AMNE17.jpg,AMNE17.jpg,MN,1,num_4,32,num_8,1.36658118956,,,2017_Oct_24_1800,59.9989030944,FEMA4ImagesEEG,001,201739,
AFNE01.JPG,AFNE01.JPG,AFNE01.JPG,AFNE01.JPG,AFNE01.JPG,AFNE01.JPG,,,,,,,,,,,,,3,3,33,2,,,,,,,,,,,AMSA16.jpg,AMNE16.jpg,AMSA15.jpg,AMNE02.jpg,AMNE16.jpg,MN,1,num_6,32,num_2,1.23343516816,,,2017_Oct_24_1800,59.9989030944,FEMA4ImagesEEG,001,201739,
AFNE01.JPG,AFNE01.JPG,AFNE01.JPG,AFNE01.JPG,AFNE01.JPG,AFNE01.JPG,,,,,,,,,,,,,3,4,34,0,,,,,,,,,,,AMSA09.jpg,AMNE07.jpg,AMNE13.jpg,AMSA14.jpg,AMNE07.jpg,MN,1,num_6,32,num_2,1.13340165082,,,2017_Oct_24_1800,59.9989030944,FEMA4ImagesEEG,001,201739,
AFNE01.JPG,AFNE01.JPG,AFNE01.JPG,AFNE01.JPG,AFNE01.JPG,AFNE01.JPG,,,,,,,,,,,,,3,5,35,9,,,,,,,,,,,AMNE17.jpg,AMSA07.jpg,AMSA10.jpg,AMNE07.jpg,AMNE17.jpg,MN,1,num_8,16,num_8,0.966774274711,,,2017_Oct_24_1800,59.9989030944,FEMA4ImagesEEG,001,201739,
AFNE01.JPG,AFNE01.JPG,AFNE01.JPG,AFNE01.JPG,AFNE01.JPG,AFNE01.JPG,,,,,,,,,,,,,3,6,36,8,,,,,,,,,,,AMSA13.jpg,AMNE19.jpg,AMNE17.jpg,AMSA14.jpg,AMSA14.jpg,MS,2,num_4,16,num_4,0.600196934072,,,2017_Oct_24_1800,59.9989030944,FEMA4ImagesEEG,001,201739,
AFNE01.JPG,AFNE01.JPG,AFNE01.JPG,AFNE01.JPG,AFNE01.JPG,AFNE01.JPG,,,,,,,,,,,,,3,7,37,7,,,,,,,,,,,AMNE07.jpg,AMNE11.jpg,AMSA08.jpg,AMSA19.jpg,AMNE07.jpg,MN,1,num_8,16,num_8,1.61672945146,,,2017_Oct_24_1800,59.9989030944,FEMA4ImagesEEG,001,201739,
AFNE01.JPG,AFNE01.JPG,AFNE01.JPG,AFNE01.JPG,AFNE01.JPG,AFNE01.JPG,,,,,,,,,,,,,3,8,38,5,,,,,,,,,,,AMSA20.jpg,AMNE07.jpg,AMNE09.jpg,AMSA10.jpg,AMSA10.jpg,MS,2,num_4,32,num_2,0.81690393365,,,2017_Oct_24_1800,59.9989030944,FEMA4ImagesEEG,001,201739,
AFNE01.JPG,AFNE01.JPG,AFNE01.JPG,AFNE01.JPG,AFNE01.JPG,AFNE01.JPG,,,,,,,,,,,,,3,9,39,3,,,,,,,,,,,AMSA12.jpg,AMNE09.jpg,AMNE15.jpg,AMSA14.jpg,AMNE09.jpg,MN,1,num_6,16,num_6,0.94997843029,,,2017_Oct_24_1800,59.9989030944,FEMA4ImagesEEG,001,201739,
AFNE01.JPG,AFNE01.JPG,AFNE01.JPG,AFNE01.JPG,AFNE01.JPG,AFNE01.JPG,,,,,,,,,,,,,4,0,40,9,,,,,,,,,,,AMSA19.jpg,AMSA20.jpg,AMNE12.jpg,AMNE08.jpg,AMNE12.jpg,MN,1,num_2,32,num_8,1.18341359845,,,2017_Oct_24_1800,59.9989030944,FEMA4ImagesEEG,001,201739,
AFNE01.JPG,AFNE01.JPG,AFNE01.JPG,AFNE01.JPG,AFNE01.JPG,AFNE01.JPG,,,,,,,,,,,,,4,1,41,2,,,,,,,,,,,AMSA14.jpg,AMNE04.jpg,AMNE09.jpg,AMSA20.jpg,AMSA20.jpg,MS,2,num_4,16,num_4,0.834106796654,,,2017_Oct_24_1800,59.9989030944,FEMA4ImagesEEG,001,201739,
AFNE01.JPG,AFNE01.JPG,AFNE01.JPG,AFNE01.JPG,AFNE01.JPG,AFNE01.JPG,,,,,,,,,,,,,4,2,42,4,,,,,,,,,,,AMNE03.jpg,AMSA20.jpg,AMSA06.jpg,AMNE06.jpg,AMNE06.jpg,MN,1,num_4,32,num_2,0.999963114969,,,2017_Oct_24_1800,59.9989030944,FEMA4ImagesEEG,001,201739,
AFNE01.JPG,AFNE01.JPG,AFNE01.JPG,AFNE01.JPG,AFNE01.JPG,AFNE01.JPG,,,,,,,,,,,,,4,3,43,1,,,,,,,,,,,AMNE02.jpg,AMSA11.jpg,AMSA01.jpg,AMNE12.jpg,AMNE02.jpg,MN,1,num_8,16,num_8,0.983416164294,,,2017_Oct_24_1800,59.9989030944,FEMA4ImagesEEG,001,201739,
AFNE01.JPG,AFNE01.JPG,AFNE01.JPG,AFNE01.JPG,AFNE01.JPG,AFNE01.JPG,,,,,,,,,,,,,4,4,44,6,,,,,,,,,,,AMSA08.jpg,AMNE15.jpg,AMSA10.jpg,AMNE07.jpg,AMSA10.jpg,MS,2,num_2,16,num_2,2.49995140801,,,2017_Oct_24_1800,59.9989030944,FEMA4ImagesEEG,001,201739,
AFNE01.JPG,AFNE01.JPG,AFNE01.JPG,AFNE01.JPG,AFNE01.JPG,AFNE01.JPG,,,,,,,,,,,,,4,5,45,5,,,,,,,,,,,AMSA06.jpg,AMNE20.jpg,AMSA20.jpg,AMNE02.jpg,AMSA20.jpg,MS,2,num_2,16,num_2,0.66661823506,,,2017_Oct_24_1800,59.9989030944,FEMA4ImagesEEG,001,201739,
AFNE01.JPG,AFNE01.JPG,AFNE01.JPG,AFNE01.JPG,AFNE01.JPG,AFNE01.JPG,,,,,,,,,,,,,4,6,46,7,,,,,,,,,,,AMNE17.jpg,AMSA12.jpg,AMSA09.jpg,AMNE14.jpg,AMSA09.jpg,MS,2,num_2,32,num_6,0.633464355487,,,2017_Oct_24_1800,59.9989030944,FEMA4ImagesEEG,001,201739,
AFNE01.JPG,AFNE01.JPG,AFNE01.JPG,AFNE01.JPG,AFNE01.JPG,AFNE01.JPG,,,,,,,,,,,,,4,7,47,0,,,,,,,,,,,AMNE01.jpg,AMSA07.jpg,AMNE20.jpg,AMSA10.jpg,AMSA07.jpg,MS,2,num_6,32,num_8,3.483238635,,,2017_Oct_24_1800,59.9989030944,FEMA4ImagesEEG,001,201739,
AFNE01.JPG,AFNE01.JPG,AFNE01.JPG,AFNE01.JPG,AFNE01.JPG,AFNE01.JPG,,,,,,,,,,,,,4,8,48,3,,,,,,,,,,,AMSA08.jpg,AMNE10.jpg,AMNE12.jpg,AMSA06.jpg,AMNE10.jpg,MN,1,num_6,16,num_6,1.05007320887,,,2017_Oct_24_1800,59.9989030944,FEMA4ImagesEEG,001,201739,
AFNE01.JPG,AFNE01.JPG,AFNE01.JPG,AFNE01.JPG,AFNE01.JPG,AFNE01.JPG,,,,,,,,,,,,,4,9,49,8,,,,,,,,,,,AMNE06.jpg,AMNE07.jpg,AMSA12.jpg,AMSA11.jpg,AMNE06.jpg,MN,1,num_8,32,num_6,1.35008202912,,,2017_Oct_24_1800,59.9989030944,FEMA4ImagesEEG,001,201739,
AFNE01.JPG,AFNE01.JPG,AFNE01.JPG,AFNE01.JPG,AFNE01.JPG,AFNE01.JPG,,,,,,,,,,,,,5,0,50,8,,,,,,,,,,,AMSA15.jpg,AMNE09.jpg,AMNE10.jpg,AMSA16.jpg,AMNE10.jpg,MN,1,num_2,32,num_6,0.716790872975,,,2017_Oct_24_1800,59.9989030944,FEMA4ImagesEEG,001,201739,
AFNE01.JPG,AFNE01.JPG,AFNE01.JPG,AFNE01.JPG,AFNE01.JPG,AFNE01.JPG,,,,,,,,,,,,,5,1,51,7,,,,,,,,,,,AMNE04.jpg,AMNE08.jpg,AMSA11.jpg,AMSA03.jpg,AMNE04.jpg,MN,1,num_8,16,num_8,0.600191481411,,,2017_Oct_24_1800,59.9989030944,FEMA4ImagesEEG,001,201739,
AFNE01.JPG,AFNE01.JPG,AFNE01.JPG,AFNE01.JPG,AFNE01.JPG,AFNE01.JPG,,,,,,,,,,,,,5,2,52,3,,,,,,,,,,,AMSA19.jpg,AMNE13.jpg,AMNE02.jpg,AMSA11.jpg,AMNE02.jpg,MN,1,num_2,32,num_4,1.3667008254,,,2017_Oct_24_1800,59.9989030944,FEMA4ImagesEEG,001,201739,
AFNE01.JPG,AFNE01.JPG,AFNE01.JPG,AFNE01.JPG,AFNE01.JPG,AFNE01.JPG,,,,,,,,,,,,,5,3,53,6,,,,,,,,,,,AMSA05.jpg,AMSA07.jpg,AMNE02.jpg,AMNE14.jpg,AMSA07.jpg,MS,2,num_6,16,num_6,0.500173359644,,,2017_Oct_24_1800,59.9989030944,FEMA4ImagesEEG,001,201739,
AFNE01.JPG,AFNE01.JPG,AFNE01.JPG,AFNE01.JPG,AFNE01.JPG,AFNE01.JPG,,,,,,,,,,,,,5,4,54,0,,,,,,,,,,,AMNE09.jpg,AMNE20.jpg,AMSA19.jpg,AMSA02.jpg,AMSA19.jpg,MS,2,num_2,16,num_2,0.583484481787,,,2017_Oct_24_1800,59.9989030944,FEMA4ImagesEEG,001,201739,
AFNE01.JPG,AFNE01.JPG,AFNE01.JPG,AFNE01.JPG,AFNE01.JPG,AFNE01.JPG,,,,,,,,,,,,,5,5,55,9,,,,,,,,,,,AMSA05.jpg,AMSA16.jpg,AMNE02.jpg,AMNE11.jpg,AMNE02.jpg,MN,1,num_2,32,num_4,0.916745328112,,,2017_Oct_24_1800,59.9989030944,FEMA4ImagesEEG,001,201739,
AFNE01.JPG,AFNE01.JPG,AFNE01.JPG,AFNE01.JPG,AFNE01.JPG,AFNE01.JPG,,,,,,,,,,,,,5,6,56,4,,,,,,,,,,,AMSA08.jpg,AMSA10.jpg,AMNE02.jpg,AMNE04.jpg,AMSA10.jpg,MS,2,num_6,16,num_6,0.733471251326,,,2017_Oct_24_1800,59.9989030944,FEMA4ImagesEEG,001,201739,
AFNE01.JPG,AFNE01.JPG,AFNE01.JPG,AFNE01.JPG,AFNE01.JPG,AFNE01.JPG,,,,,,,,,,,,,5,7,57,2,,,,,,,,,,,AMSA05.jpg,AMSA07.jpg,AMNE05.jpg,AMNE20.jpg,AMNE20.jpg,MN,1,num_4,32,num_8,0.850102716824,,,2017_Oct_24_1800,59.9989030944,FEMA4ImagesEEG,001,201739,
AFNE01.JPG,AFNE01.JPG,AFNE01.JPG,AFNE01.JPG,AFNE01.JPG,AFNE01.JPG,,,,,,,,,,,,,5,8,58,5,,,,,,,,,,,AMNE11.jpg,AMSA12.jpg,AMNE05.jpg,AMSA15.jpg,AMSA15.jpg,MS,2,num_4,32,num_2,0.883498754818,,,2017_Oct_24_1800,59.9989030944,FEMA4ImagesEEG,001,201739,
AFNE01.JPG,AFNE01.JPG,AFNE01.JPG,AFNE01.JPG,AFNE01.JPG,AFNE01.JPG,,,,,,,,,,,,,5,9,59,1,,,,,,,,,,,AMNE18.jpg,AMSA18.jpg,AMNE06.jpg,AMSA11.jpg,AMSA18.jpg,MS,2,num_6,32,num_4,1.36697185028,,,2017_Oct_24_1800,59.9989030944,FEMA4ImagesEEG,001,201739,
,,,,,,,,,,,,,,,,,,,,,,,,,,,,,,,,,,,,,,,,,,,space,22.8484531535,2017_Oct_24_1800,59.9989030944,FEMA4ImagesEEG,001,201739,
AFNE01.JPG,AFNE01.JPG,AFNE01.JPG,AFNE01.JPG,AFNE01.JPG,AFNE01.JPG,,,,,,,,,,,,,,,,,0,0,0,4,,,,,,,AFNE17.jpg,AFNE19.jpg,AFSA01.jpg,AFSA09.jpg,AFSA01.jpg,FS,4,num_2,32,num_6,0.650160129182,,,2017_Oct_24_1800,59.9989030944,FEMA4ImagesEEG,001,201739,
AFNE01.JPG,AFNE01.JPG,AFNE01.JPG,AFNE01.JPG,AFNE01.JPG,AFNE01.JPG,,,,,,,,,,,,,,,,,0,1,1,6,,,,,,,AFSA17.jpg,AFNE13.jpg,AFNE15.jpg,AFSA04.jpg,AFNE13.jpg,FN,3,num_6,32,num_8,1.40007922263,,,2017_Oct_24_1800,59.9989030944,FEMA4ImagesEEG,001,201739,
AFNE01.JPG,AFNE01.JPG,AFNE01.JPG,AFNE01.JPG,AFNE01.JPG,AFNE01.JPG,,,,,,,,,,,,,,,,,0,2,2,5,,,,,,,AFNE01.jpg,AFSA01.jpg,AFSA04.jpg,AFNE13.jpg,AFSA01.jpg,FS,4,num_6,16,num_6,0.550155157689,,,2017_Oct_24_1800,59.9989030944,FEMA4ImagesEEG,001,201739,
AFNE01.JPG,AFNE01.JPG,AFNE01.JPG,AFNE01.JPG,AFNE01.JPG,AFNE01.JPG,,,,,,,,,,,,,,,,,0,3,3,9,,,,,,,AFNE06.jpg,AFSA06.jpg,AFSA09.jpg,AFNE15.jpg,AFNE15.jpg,FN,3,num_4,32,num_8,1.3334176878,,,2017_Oct_24_1800,59.9989030944,FEMA4ImagesEEG,001,201739,
AFNE01.JPG,AFNE01.JPG,AFNE01.JPG,AFNE01.JPG,AFNE01.JPG,AFNE01.JPG,,,,,,,,,,,,,,,,,0,4,4,2,,,,,,,AFSA18.jpg,AFSA10.jpg,AFNE09.jpg,AFNE16.jpg,AFNE16.jpg,FN,3,num_4,16,num_4,1.65001772088,,,2017_Oct_24_1800,59.9989030944,FEMA4ImagesEEG,001,201739,
AFNE01.JPG,AFNE01.JPG,AFNE01.JPG,AFNE01.JPG,AFNE01.JPG,AFNE01.JPG,,,,,,,,,,,,,,,,,0,5,5,3,,,,,,,AFSA05.jpg,AFNE20.jpg,AFSA16.jpg,AFNE10.jpg,AFSA05.jpg,FS,4,num_8,16,num_8,1.00008852407,,,2017_Oct_24_1800,59.9989030944,FEMA4ImagesEEG,001,201739,
AFNE01.JPG,AFNE01.JPG,AFNE01.JPG,AFNE01.JPG,AFNE01.JPG,AFNE01.JPG,,,,,,,,,,,,,,,,,0,6,6,1,,,,,,,AFSA07.jpg,AFNE12.jpg,AFNE15.jpg,AFSA15.jpg,AFNE12.jpg,FN,3,num_6,16,num_6,0.550118272775,,,2017_Oct_24_1800,59.9989030944,FEMA4ImagesEEG,001,201739,
AFNE01.JPG,AFNE01.JPG,AFNE01.JPG,AFNE01.JPG,AFNE01.JPG,AFNE01.JPG,,,,,,,,,,,,,,,,,0,7,7,0,,,,,,,AFSA13.jpg,AFNE09.jpg,AFSA10.jpg,AFNE10.jpg,AFSA10.jpg,FS,4,num_2,32,num_4,2.06663908309,,,2017_Oct_24_1800,59.9989030944,FEMA4ImagesEEG,001,201739,
AFNE01.JPG,AFNE01.JPG,AFNE01.JPG,AFNE01.JPG,AFNE01.JPG,AFNE01.JPG,,,,,,,,,,,,,,,,,0,8,8,8,,,,,,,AFNE17.jpg,AFSA04.jpg,AFSA10.jpg,AFNE14.jpg,AFSA10.jpg,FS,4,num_2,32,num_4,2.28329155699,,,2017_Oct_24_1800,59.9989030944,FEMA4ImagesEEG,001,201739,
AFNE01.JPG,AFNE01.JPG,AFNE01.JPG,AFNE01.JPG,AFNE01.JPG,AFNE01.JPG,,,,,,,,,,,,,,,,,0,9,9,7,,,,,,,AFNE08.jpg,AFSA06.jpg,AFNE03.jpg,AFSA05.jpg,AFSA06.jpg,FS,4,num_6,16,num_6,1.56673738977,,,2017_Oct_24_1800,59.9989030944,FEMA4ImagesEEG,001,201739,
AFNE01.JPG,AFNE01.JPG,AFNE01.JPG,AFNE01.JPG,AFNE01.JPG,AFNE01.JPG,,,,,,,,,,,,,,,,,1,0,10,7,,,,,,,AFNE04.jpg,AFNE10.jpg,AFSA19.jpg,AFSA13.jpg,AFSA13.jpg,FS,4,num_4,16,num_4,0.766816291725,,,2017_Oct_24_1800,59.9989030944,FEMA4ImagesEEG,001,201739,
AFNE01.JPG,AFNE01.JPG,AFNE01.JPG,AFNE01.JPG,AFNE01.JPG,AFNE01.JPG,,,,,,,,,,,,,,,,,1,1,11,1,,,,,,,AFSA08.jpg,AFNE18.jpg,AFNE19.jpg,AFSA12.jpg,AFSA08.jpg,FS,4,num_8,32,num_2,1.41679552372,,,2017_Oct_24_1800,59.9989030944,FEMA4ImagesEEG,001,201739,
AFNE01.JPG,AFNE01.JPG,AFNE01.JPG,AFNE01.JPG,AFNE01.JPG,AFNE01.JPG,,,,,,,,,,,,,,,,,1,2,12,2,,,,,,,AFNE11.jpg,AFNE17.jpg,AFSA16.jpg,AFSA09.jpg,AFSA16.jpg,FS,4,num_2,32,num_8,1.73308379797,,,2017_Oct_24_1800,59.9989030944,FEMA4ImagesEEG,001,201739,
AFNE01.JPG,AFNE01.JPG,AFNE01.JPG,AFNE01.JPG,AFNE01.JPG,AFNE01.JPG,,,,,,,,,,,,,,,,,1,3,13,6,,,,,,,AFSA09.jpg,AFNE01.jpg,AFSA13.jpg,AFNE10.jpg,AFNE01.jpg,FN,3,num_6,16,num_6,1.11676136509,,,2017_Oct_24_1800,59.9989030944,FEMA4ImagesEEG,001,201739,
AFNE01.JPG,AFNE01.JPG,AFNE01.JPG,AFNE01.JPG,AFNE01.JPG,AFNE01.JPG,,,,,,,,,,,,,,,,,1,4,14,0,,,,,,,AFNE10.jpg,AFNE03.jpg,AFSA10.jpg,AFSA13.jpg,AFNE03.jpg,FN,3,num_6,32,num_2,2.03335113439,,,2017_Oct_24_1800,59.9989030944,FEMA4ImagesEEG,001,201739,
AFNE01.JPG,AFNE01.JPG,AFNE01.JPG,AFNE01.JPG,AFNE01.JPG,AFNE01.JPG,,,,,,,,,,,,,,,,,1,5,15,3,,,,,,,AFSA14.jpg,AFNE07.jpg,AFSA19.jpg,AFNE12.jpg,AFNE12.jpg,FN,3,num_4,16,num_4,3.90019516996,,,2017_Oct_24_1800,59.9989030944,FEMA4ImagesEEG,001,201739,
AFNE01.JPG,AFNE01.JPG,AFNE01.JPG,AFNE01.JPG,AFNE01.JPG,AFNE01.JPG,,,,,,,,,,,,,,,,,1,6,16,5,,,,,,,AFSA07.jpg,AFSA08.jpg,AFNE02.jpg,AFNE06.jpg,AFNE02.jpg,FN,3,num_2,16,num_2,0.766740917927,,,2017_Oct_24_1800,59.9989030944,FEMA4ImagesEEG,001,201739,
AFNE01.JPG,AFNE01.JPG,AFNE01.JPG,AFNE01.JPG,AFNE01.JPG,AFNE01.JPG,,,,,,,,,,,,,,,,,1,7,17,8,,,,,,,AFSA13.jpg,AFSA07.jpg,AFNE20.jpg,AFNE02.jpg,AFNE20.jpg,FN,3,num_2,32,num_8,1.28338681662,,,2017_Oct_24_1800,59.9989030944,FEMA4ImagesEEG,001,201739,
AFNE01.JPG,AFNE01.JPG,AFNE01.JPG,AFNE01.JPG,AFNE01.JPG,AFNE01.JPG,,,,,,,,,,,,,,,,,1,8,18,4,,,,,,,AFSA01.jpg,AFNE02.jpg,AFSA10.jpg,AFNE08.jpg,AFSA10.jpg,FS,4,num_2,16,num_2,0.900139361387,,,2017_Oct_24_1800,59.9989030944,FEMA4ImagesEEG,001,201739,
AFNE01.JPG,AFNE01.JPG,AFNE01.JPG,AFNE01.JPG,AFNE01.JPG,AFNE01.JPG,,,,,,,,,,,,,,,,,1,9,19,9,,,,,,,AFNE13.jpg,AFNE08.jpg,AFSA08.jpg,AFSA13.jpg,AFNE08.jpg,FN,3,num_6,32,num_4,2.5333051082,,,2017_Oct_24_1800,59.9989030944,FEMA4ImagesEEG,001,201739,
AFNE01.JPG,AFNE01.JPG,AFNE01.JPG,AFNE01.JPG,AFNE01.JPG,AFNE01.JPG,,,,,,,,,,,,,,,,,2,0,20,9,,,,,,,AFSA02.jpg,AFSA17.jpg,AFNE04.jpg,AFNE05.jpg,AFSA17.jpg,FS,4,num_6,32,num_2,0.850114584202,,,2017_Oct_24_1800,59.9989030944,FEMA4ImagesEEG,001,201739,
AFNE01.JPG,AFNE01.JPG,AFNE01.JPG,AFNE01.JPG,AFNE01.JPG,AFNE01.JPG,,,,,,,,,,,,,,,,,2,1,21,4,,,,,,,AFSA18.jpg,AFNE16.jpg,AFNE18.jpg,AFSA17.jpg,AFSA18.jpg,FS,4,num_8,16,num_8,0.61667620868,,,2017_Oct_24_1800,59.9989030944,FEMA4ImagesEEG,001,201739,
AFNE01.JPG,AFNE01.JPG,AFNE01.JPG,AFNE01.JPG,AFNE01.JPG,AFNE01.JPG,,,,,,,,,,,,,,,,,2,2,22,8,,,,,,,AFSA06.jpg,AFNE09.jpg,AFNE17.jpg,AFSA10.jpg,AFNE09.jpg,FN,3,num_6,32,num_2,2.41634360189,,,2017_Oct_24_1800,59.9989030944,FEMA4ImagesEEG,001,201739,
AFNE01.JPG,AFNE01.JPG,AFNE01.JPG,AFNE01.JPG,AFNE01.JPG,AFNE01.JPG,,,,,,,,,,,,,,,,,2,3,23,0,,,,,,,AFSA18.jpg,AFSA01.jpg,AFNE07.jpg,AFNE14.jpg,AFSA18.jpg,FS,4,num_8,32,num_6,1.41671918775,,,2017_Oct_24_1800,59.9989030944,FEMA4ImagesEEG,001,201739,
AFNE01.JPG,AFNE01.JPG,AFNE01.JPG,AFNE01.JPG,AFNE01.JPG,AFNE01.JPG,,,,,,,,,,,,,,,,,2,4,24,1,,,,,,,AFNE05.jpg,AFSA11.jpg,AFSA01.jpg,AFNE12.jpg,AFSA11.jpg,FS,4,num_6,16,num_6,0.750116989715,,,2017_Oct_24_1800,59.9989030944,FEMA4ImagesEEG,001,201739,
AFNE01.JPG,AFNE01.JPG,AFNE01.JPG,AFNE01.JPG,AFNE01.JPG,AFNE01.JPG,,,,,,,,,,,,,,,,,2,5,25,5,,,,,,,AFNE18.jpg,AFSA09.jpg,AFNE07.jpg,AFSA16.jpg,AFSA09.jpg,FS,4,num_6,16,num_6,0.650123564876,,,2017_Oct_24_1800,59.9989030944,FEMA4ImagesEEG,001,201739,
AFNE01.JPG,AFNE01.JPG,AFNE01.JPG,AFNE01.JPG,AFNE01.JPG,AFNE01.JPG,,,,,,,,,,,,,,,,,2,6,26,3,,,,,,,AFNE07.jpg,AFSA15.jpg,AFNE12.jpg,AFSA08.jpg,AFNE12.jpg,FN,3,num_2,32,num_8,1.55004963442,,,2017_Oct_24_1800,59.9989030944,FEMA4ImagesEEG,001,201739,
AFNE01.JPG,AFNE01.JPG,AFNE01.JPG,AFNE01.JPG,AFNE01.JPG,AFNE01.JPG,,,,,,,,,,,,,,,,,2,7,27,2,,,,,,,AFNE15.jpg,AFSA03.jpg,AFSA10.jpg,AFNE13.jpg,AFSA10.jpg,FS,4,num_2,16,num_2,1.95005316264,,,2017_Oct_24_1800,59.9989030944,FEMA4ImagesEEG,001,201739,
AFNE01.JPG,AFNE01.JPG,AFNE01.JPG,AFNE01.JPG,AFNE01.JPG,AFNE01.JPG,,,,,,,,,,,,,,,,,2,8,28,6,,,,,,,AFSA04.jpg,AFNE09.jpg,AFSA02.jpg,AFNE18.jpg,AFNE09.jpg,FN,3,num_6,16,num_6,1.63339090603,,,2017_Oct_24_1800,59.9989030944,FEMA4ImagesEEG,001,201739,
AFNE01.JPG,AFNE01.JPG,AFNE01.JPG,AFNE01.JPG,AFNE01.JPG,AFNE01.JPG,,,,,,,,,,,,,,,,,2,9,29,7,,,,,,,AFSA07.jpg,AFNE20.jpg,AFSA19.jpg,AFNE19.jpg,AFNE19.jpg,FN,3,num_4,16,num_4,1.78336324228,,,2017_Oct_24_1800,59.9989030944,FEMA4ImagesEEG,001,201739,
AFNE01.JPG,AFNE01.JPG,AFNE01.JPG,AFNE01.JPG,AFNE01.JPG,AFNE01.JPG,,,,,,,,,,,,,,,,,3,0,30,7,,,,,,,AFNE13.jpg,AFSA10.jpg,AFNE17.jpg,AFSA05.jpg,AFSA05.jpg,FS,4,num_4,32,num_8,1.15015611995,,,2017_Oct_24_1800,59.9989030944,FEMA4ImagesEEG,001,201739,
AFNE01.JPG,AFNE01.JPG,AFNE01.JPG,AFNE01.JPG,AFNE01.JPG,AFNE01.JPG,,,,,,,,,,,,,,,,,3,1,31,8,,,,,,,AFNE05.jpg,AFNE11.jpg,AFSA20.jpg,AFSA19.jpg,AFNE11.jpg,FN,3,num_6,32,num_2,1.73350236309,,,2017_Oct_24_1800,59.9989030944,FEMA4ImagesEEG,001,201739,
AFNE01.JPG,AFNE01.JPG,AFNE01.JPG,AFNE01.JPG,AFNE01.JPG,AFNE01.JPG,,,,,,,,,,,,,,,,,3,2,32,5,,,,,,,AFSA20.jpg,AFNE14.jpg,AFNE13.jpg,AFSA16.jpg,AFNE14.jpg,FN,3,num_6,16,num_6,0.583504688344,,,2017_Oct_24_1800,59.9989030944,FEMA4ImagesEEG,001,201739,
AFNE01.JPG,AFNE01.JPG,AFNE01.JPG,AFNE01.JPG,AFNE01.JPG,AFNE01.JPG,,,,,,,,,,,,,,,,,3,3,33,2,,,,,,,AFSA13.jpg,AFSA10.jpg,AFNE03.jpg,AFNE18.jpg,AFSA13.jpg,FS,4,num_8,16,num_8,1.30006687425,,,2017_Oct_24_1800,59.9989030944,FEMA4ImagesEEG,001,201739,
AFNE01.JPG,AFNE01.JPG,AFNE01.JPG,AFNE01.JPG,AFNE01.JPG,AFNE01.JPG,,,,,,,,,,,,,,,,,3,4,34,0,,,,,,,AFNE20.jpg,AFSA20.jpg,AFNE15.jpg,AFSA13.jpg,AFNE15.jpg,FN,3,num_2,32,num_6,0.850135432207,,,2017_Oct_24_1800,59.9989030944,FEMA4ImagesEEG,001,201739,
AFNE01.JPG,AFNE01.JPG,AFNE01.JPG,AFNE01.JPG,AFNE01.JPG,AFNE01.JPG,,,,,,,,,,,,,,,,,3,5,35,1,,,,,,,AFSA17.jpg,AFNE11.jpg,AFNE18.jpg,AFSA15.jpg,AFSA15.jpg,FS,4,num_4,16,num_4,1.18341231544,,,2017_Oct_24_1800,59.9989030944,FEMA4ImagesEEG,001,201739,
AFNE01.JPG,AFNE01.JPG,AFNE01.JPG,AFNE01.JPG,AFNE01.JPG,AFNE01.JPG,,,,,,,,,,,,,,,,,3,6,36,3,,,,,,,AFNE09.jpg,AFSA13.jpg,AFNE05.jpg,AFSA15.jpg,AFNE05.jpg,FN,3,num_2,16,num_2,0.933553360635,,,2017_Oct_24_1800,59.9989030944,FEMA4ImagesEEG,001,201739,
AFNE01.JPG,AFNE01.JPG,AFNE01.JPG,AFNE01.JPG,AFNE01.JPG,AFNE01.JPG,,,,,,,,,,,,,,,,,3,7,37,9,,,,,,,AFNE06.jpg,AFSA14.jpg,AFSA10.jpg,AFNE04.jpg,AFNE06.jpg,FN,3,num_8,32,num_6,1.36688300548,,,2017_Oct_24_1800,59.9989030944,FEMA4ImagesEEG,001,201739,
AFNE01.JPG,AFNE01.JPG,AFNE01.JPG,AFNE01.JPG,AFNE01.JPG,AFNE01.JPG,,,,,,,,,,,,,,,,,3,8,38,4,,,,,,,AFNE15.jpg,AFNE11.jpg,AFSA09.jpg,AFSA16.jpg,AFNE15.jpg,FN,3,num_8,16,num_8,0.533463553526,,,2017_Oct_24_1800,59.9989030944,FEMA4ImagesEEG,001,201739,
AFNE01.JPG,AFNE01.JPG,AFNE01.JPG,AFNE01.JPG,AFNE01.JPG,AFNE01.JPG,,,,,,,,,,,,,,,,,3,9,39,6,,,,,,,AFSA19.jpg,AFNE07.jpg,AFSA10.jpg,AFNE18.jpg,AFNE18.jpg,FN,3,num_4,32,num_6,1.16675310594,,,2017_Oct_24_1800,59.9989030944,FEMA4ImagesEEG,001,201739,
AFNE01.JPG,AFNE01.JPG,AFNE01.JPG,AFNE01.JPG,AFNE01.JPG,AFNE01.JPG,,,,,,,,,,,,,,,,,4,0,40,7,,,,,,,AFNE07.jpg,AFSA13.jpg,AFSA15.jpg,AFNE17.jpg,AFNE17.jpg,FN,3,num_4,16,num_4,1.13345778023,,,2017_Oct_24_1800,59.9989030944,FEMA4ImagesEEG,001,201739,
AFNE01.JPG,AFNE01.JPG,AFNE01.JPG,AFNE01.JPG,AFNE01.JPG,AFNE01.JPG,,,,,,,,,,,,,,,,,4,1,41,2,,,,,,,AFNE01.jpg,AFSA10.jpg,AFSA01.jpg,AFNE06.jpg,AFNE01.jpg,FN,3,num_8,16,num_8,2.76661069761,,,2017_Oct_24_1800,59.9989030944,FEMA4ImagesEEG,001,201739,
AFNE01.JPG,AFNE01.JPG,AFNE01.JPG,AFNE01.JPG,AFNE01.JPG,AFNE01.JPG,,,,,,,,,,,,,,,,,4,2,42,3,,,,,,,AFNE08.jpg,AFNE18.jpg,AFSA16.jpg,AFSA06.jpg,AFSA16.jpg,FS,4,num_2,16,num_2,1.20018025558,,,2017_Oct_24_1800,59.9989030944,FEMA4ImagesEEG,001,201739,
AFNE01.JPG,AFNE01.JPG,AFNE01.JPG,AFNE01.JPG,AFNE01.JPG,AFNE01.JPG,,,,,,,,,,,,,,,,,4,3,43,0,,,,,,,AFNE15.jpg,AFSA07.jpg,AFNE08.jpg,AFSA03.jpg,AFNE08.jpg,FN,3,num_2,32,num_6,1.96668158111,,,2017_Oct_24_1800,59.9989030944,FEMA4ImagesEEG,001,201739,
AFNE01.JPG,AFNE01.JPG,AFNE01.JPG,AFNE01.JPG,AFNE01.JPG,AFNE01.JPG,,,,,,,,,,,,,,,,,4,4,44,5,,,,,,,AFSA08.jpg,AFSA14.jpg,AFNE02.jpg,AFNE16.jpg,AFNE02.jpg,FN,3,num_2,32,num_4,1.03340116981,,,2017_Oct_24_1800,59.9989030944,FEMA4ImagesEEG,001,201739,
AFNE01.JPG,AFNE01.JPG,AFNE01.JPG,AFNE01.JPG,AFNE01.JPG,AFNE01.JPG,,,,,,,,,,,,,,,,,4,5,45,9,,,,,,,AFNE01.jpg,AFNE02.jpg,AFSA06.jpg,AFSA15.jpg,AFSA06.jpg,FS,4,num_2,32,num_6,1.11711032956,,,2017_Oct_24_1800,59.9989030944,FEMA4ImagesEEG,001,201739,
AFNE01.JPG,AFNE01.JPG,AFNE01.JPG,AFNE01.JPG,AFNE01.JPG,AFNE01.JPG,,,,,,,,,,,,,,,,,4,6,46,8,,,,,,,AFSA17.jpg,AFSA11.jpg,AFNE10.jpg,AFNE09.jpg,AFSA17.jpg,FS,4,num_8,32,num_2,0.816751903156,,,2017_Oct_24_1800,59.9989030944,FEMA4ImagesEEG,001,201739,
AFNE01.JPG,AFNE01.JPG,AFNE01.JPG,AFNE01.JPG,AFNE01.JPG,AFNE01.JPG,,,,,,,,,,,,,,,,,4,7,47,1,,,,,,,AFSA14.jpg,AFNE04.jpg,AFSA12.jpg,AFNE12.jpg,AFNE12.jpg,FN,3,num_4,16,num_4,0.583469086327,,,2017_Oct_24_1800,59.9989030944,FEMA4ImagesEEG,001,201739,
AFNE01.JPG,AFNE01.JPG,AFNE01.JPG,AFNE01.JPG,AFNE01.JPG,AFNE01.JPG,,,,,,,,,,,,,,,,,4,8,48,4,,,,,,,AFSA14.jpg,AFNE08.jpg,AFSA16.jpg,AFNE12.jpg,AFSA16.jpg,FS,4,num_2,16,num_2,0.600133106927,,,2017_Oct_24_1800,59.9989030944,FEMA4ImagesEEG,001,201739,
AFNE01.JPG,AFNE01.JPG,AFNE01.JPG,AFNE01.JPG,AFNE01.JPG,AFNE01.JPG,,,,,,,,,,,,,,,,,4,9,49,6,,,,,,,AFNE05.jpg,AFSA06.jpg,AFSA07.jpg,AFNE16.jpg,AFNE05.jpg,FN,3,num_8,32,num_4,0.650287462748,,,2017_Oct_24_1800,59.9989030944,FEMA4ImagesEEG,001,201739,
AFNE01.JPG,AFNE01.JPG,AFNE01.JPG,AFNE01.JPG,AFNE01.JPG,AFNE01.JPG,,,,,,,,,,,,,,,,,5,0,50,0,,,,,,,AFSA02.jpg,AFSA17.jpg,AFNE20.jpg,AFNE04.jpg,AFNE04.jpg,FN,3,num_4,16,num_4,0.633469166583,,,2017_Oct_24_1800,59.9989030944,FEMA4ImagesEEG,001,201739,
AFNE01.JPG,AFNE01.JPG,AFNE01.JPG,AFNE01.JPG,AFNE01.JPG,AFNE01.JPG,,,,,,,,,,,,,,,,,5,1,51,8,,,,,,,AFNE14.jpg,AFNE09.jpg,AFSA02.jpg,AFSA07.jpg,AFSA07.jpg,FS,4,num_4,32,num_2,1.01671533892,,,2017_Oct_24_1800,59.9989030944,FEMA4ImagesEEG,001,201739,
AFNE01.JPG,AFNE01.JPG,AFNE01.JPG,AFNE01.JPG,AFNE01.JPG,AFNE01.JPG,,,,,,,,,,,,,,,,,5,2,52,4,,,,,,,AFNE18.jpg,AFNE08.jpg,AFSA13.jpg,AFSA09.jpg,AFNE18.jpg,FN,3,num_8,32,num_4,1.50009477849,,,2017_Oct_24_1800,59.9989030944,FEMA4ImagesEEG,001,201739,
AFNE01.JPG,AFNE01.JPG,AFNE01.JPG,AFNE01.JPG,AFNE01.JPG,AFNE01.JPG,,,,,,,,,,,,,,,,,5,3,53,2,,,,,,,AFNE05.jpg,AFSA07.jpg,AFSA01.jpg,AFNE09.jpg,AFSA01.jpg,FS,4,num_2,16,num_2,0.816754789907,,,2017_Oct_24_1800,59.9989030944,FEMA4ImagesEEG,001,201739,
AFNE01.JPG,AFNE01.JPG,AFNE01.JPG,AFNE01.JPG,AFNE01.JPG,AFNE01.JPG,,,,,,,,,,,,,,,,,5,4,54,9,,,,,,,AFSA19.jpg,AFSA11.jpg,AFNE20.jpg,AFNE16.jpg,AFNE16.jpg,FN,3,num_4,16,num_4,0.783439899096,,,2017_Oct_24_1800,59.9989030944,FEMA4ImagesEEG,001,201739,
AFNE01.JPG,AFNE01.JPG,AFNE01.JPG,AFNE01.JPG,AFNE01.JPG,AFNE01.JPG,,,,,,,,,,,,,,,,,5,5,55,1,,,,,,,AFNE07.jpg,AFNE06.jpg,AFSA19.jpg,AFSA11.jpg,AFNE07.jpg,FN,3,num_8,16,num_8,0.816775317187,,,2017_Oct_24_1800,59.9989030944,FEMA4ImagesEEG,001,201739,
AFNE01.JPG,AFNE01.JPG,AFNE01.JPG,AFNE01.JPG,AFNE01.JPG,AFNE01.JPG,,,,,,,,,,,,,,,,,5,6,56,3,,,,,,,AFNE20.jpg,AFSA08.jpg,AFSA14.jpg,AFNE03.jpg,AFSA14.jpg,FS,4,num_2,16,num_2,0.583457539673,,,2017_Oct_24_1800,59.9989030944,FEMA4ImagesEEG,001,201739,
AFNE01.JPG,AFNE01.JPG,AFNE01.JPG,AFNE01.JPG,AFNE01.JPG,AFNE01.JPG,,,,,,,,,,,,,,,,,5,7,57,5,,,,,,,AFSA11.jpg,AFNE15.jpg,AFNE10.jpg,AFSA07.jpg,AFSA07.jpg,FS,4,num_4,32,num_6,1.05036091211,,,2017_Oct_24_1800,59.9989030944,FEMA4ImagesEEG,001,201739,
AFNE01.JPG,AFNE01.JPG,AFNE01.JPG,AFNE01.JPG,AFNE01.JPG,AFNE01.JPG,,,,,,,,,,,,,,,,,5,8,58,6,,,,,,,AFNE12.jpg,AFSA09.jpg,AFNE08.jpg,AFSA15.jpg,AFNE08.jpg,FN,3,num_2,32,num_4,0.76675984147,,,2017_Oct_24_1800,59.9989030944,FEMA4ImagesEEG,001,201739,
AFNE01.JPG,AFNE01.JPG,AFNE01.JPG,AFNE01.JPG,AFNE01.JPG,AFNE01.JPG,,,,,,,,,,,,,,,,,5,9,59,7,,,,,,,AFNE13.jpg,AFSA19.jpg,AFSA01.jpg,AFNE15.jpg,AFNE13.jpg,FN,3,num_8,16,num_8,0.849026956595,,,2017_Oct_24_1800,59.9989030944,FEMA4ImagesEEG,001,201739,
,,,,,,,,,,,,,,,,,,,,,,,,,,,,,,,,,,,,,,,,,,,space,8.59947174205,2017_Oct_24_1800,59.9989030944,FEMA4ImagesEEG,001,201739,
AFNE01.JPG,AFNE01.JPG,AFNE01.JPG,AFNE01.JPG,AFNE01.JPG,AFNE01.JPG,,,,,,,,,,,,,,,,,,,,,0,0,0,1,,,AMNE17.jpg,AMSA14.jpg,AMNE15.jpg,AMSA15.jpg,AMNE15.jpg,MN,1,num_2,16,num_2,0.900112419156,,,2017_Oct_24_1800,59.9989030944,FEMA4ImagesEEG,001,201739,
AFNE01.JPG,AFNE01.JPG,AFNE01.JPG,AFNE01.JPG,AFNE01.JPG,AFNE01.JPG,,,,,,,,,,,,,,,,,,,,,0,1,1,9,,,AMNE11.jpg,AMNE15.jpg,AMSA05.jpg,AMSA11.jpg,AMNE15.jpg,MN,1,num_6,16,num_6,0.650108810863,,,2017_Oct_24_1800,59.9989030944,FEMA4ImagesEEG,001,201739,
AFNE01.JPG,AFNE01.JPG,AFNE01.JPG,AFNE01.JPG,AFNE01.JPG,AFNE01.JPG,,,,,,,,,,,,,,,,,,,,,0,2,2,5,,,AMNE09.jpg,AMSA14.jpg,AMSA17.jpg,AMNE07.jpg,AMNE09.jpg,MN,1,num_8,16,num_8,0.733461629134,,,2017_Oct_24_1800,59.9989030944,FEMA4ImagesEEG,001,201739,
AFNE01.JPG,AFNE01.JPG,AFNE01.JPG,AFNE01.JPG,AFNE01.JPG,AFNE01.JPG,,,,,,,,,,,,,,,,,,,,,0,3,3,4,,,AMNE03.jpg,AMSA05.jpg,AMSA12.jpg,AMNE19.jpg,AMSA05.jpg,MS,2,num_6,32,num_2,0.666819338687,,,2017_Oct_24_1800,59.9989030944,FEMA4ImagesEEG,001,201739,
AFNE01.JPG,AFNE01.JPG,AFNE01.JPG,AFNE01.JPG,AFNE01.JPG,AFNE01.JPG,,,,,,,,,,,,,,,,,,,,,0,4,4,7,,,AMSA01.jpg,AMSA08.jpg,AMNE14.jpg,AMNE07.jpg,AMSA08.jpg,MS,2,num_6,16,num_6,0.766772991861,,,2017_Oct_24_1800,59.9989030944,FEMA4ImagesEEG,001,201739,
AFNE01.JPG,AFNE01.JPG,AFNE01.JPG,AFNE01.JPG,AFNE01.JPG,AFNE01.JPG,,,,,,,,,,,,,,,,,,,,,0,5,5,3,,,AMSA11.jpg,AMSA05.jpg,AMNE18.jpg,AMNE04.jpg,AMSA05.jpg,MS,2,num_6,32,num_4,1.11677387392,,,2017_Oct_24_1800,59.9989030944,FEMA4ImagesEEG,001,201739,
AFNE01.JPG,AFNE01.JPG,AFNE01.JPG,AFNE01.JPG,AFNE01.JPG,AFNE01.JPG,,,,,,,,,,,,,,,,,,,,,0,6,6,0,,,AMNE07.jpg,AMSA01.jpg,AMNE03.jpg,AMSA06.jpg,AMSA01.jpg,MS,2,num_6,32,num_8,0.783542856458,,,2017_Oct_24_1800,59.9989030944,FEMA4ImagesEEG,001,201739,
AFNE01.JPG,AFNE01.JPG,AFNE01.JPG,AFNE01.JPG,AFNE01.JPG,AFNE01.JPG,,,,,,,,,,,,,,,,,,,,,0,7,7,6,,,AMNE08.jpg,AMSA17.jpg,AMNE09.jpg,AMSA20.jpg,AMNE09.jpg,MN,1,num_2,32,num_8,1.15009261353,,,2017_Oct_24_1800,59.9989030944,FEMA4ImagesEEG,001,201739,
AFNE01.JPG,AFNE01.JPG,AFNE01.JPG,AFNE01.JPG,AFNE01.JPG,AFNE01.JPG,,,,,,,,,,,,,,,,,,,,,0,8,8,8,,,AMSA13.jpg,AMSA03.jpg,AMNE06.jpg,AMNE03.jpg,AMNE06.jpg,MN,1,num_2,32,num_8,0.816752544604,,,2017_Oct_24_1800,59.9989030944,FEMA4ImagesEEG,001,201739,
AFNE01.JPG,AFNE01.JPG,AFNE01.JPG,AFNE01.JPG,AFNE01.JPG,AFNE01.JPG,,,,,,,,,,,,,,,,,,,,,0,9,9,2,,,AMNE07.jpg,AMSA12.jpg,AMNE06.jpg,AMSA20.jpg,AMNE07.jpg,MN,1,num_8,32,num_2,1.70001780114,,,2017_Oct_24_1800,59.9989030944,FEMA4ImagesEEG,001,201739,
AFNE01.JPG,AFNE01.JPG,AFNE01.JPG,AFNE01.JPG,AFNE01.JPG,AFNE01.JPG,,,,,,,,,,,,,,,,,,,,,1,0,10,2,,,AMSA11.jpg,AMNE16.jpg,AMSA10.jpg,AMNE02.jpg,AMNE02.jpg,MN,1,num_4,32,num_2,0.716773873894,,,2017_Oct_24_1800,59.9989030944,FEMA4ImagesEEG,001,201739,
AFNE01.JPG,AFNE01.JPG,AFNE01.JPG,AFNE01.JPG,AFNE01.JPG,AFNE01.JPG,,,,,,,,,,,,,,,,,,,,,1,1,11,8,,,AMNE11.jpg,AMNE17.jpg,AMSA17.jpg,AMSA07.jpg,AMNE11.jpg,MN,1,num_8,32,num_6,1.55007497279,,,2017_Oct_24_1800,59.9989030944,FEMA4ImagesEEG,001,201739,
AFNE01.JPG,AFNE01.JPG,AFNE01.JPG,AFNE01.JPG,AFNE01.JPG,AFNE01.JPG,,,,,,,,,,,,,,,,,,,,,1,2,12,1,,,AMNE20.jpg,AMSA08.jpg,AMSA15.jpg,AMNE05.jpg,AMNE05.jpg,MN,1,num_4,32,num_8,1.73339170788,,,2017_Oct_24_1800,59.9989030944,FEMA4ImagesEEG,001,201739,
AFNE01.JPG,AFNE01.JPG,AFNE01.JPG,AFNE01.JPG,AFNE01.JPG,AFNE01.JPG,,,,,,,,,,,,,,,,,,,,,1,3,13,9,,,AMNE15.jpg,AMSA05.jpg,AMSA11.jpg,AMNE20.jpg,AMSA05.jpg,MS,2,num_6,32,num_2,2.39999518893,,,2017_Oct_24_1800,59.9989030944,FEMA4ImagesEEG,001,201739,
AFNE01.JPG,AFNE01.JPG,AFNE01.JPG,AFNE01.JPG,AFNE01.JPG,AFNE01.JPG,,,,,,,,,,,,,,,,,,,,,1,4,14,6,,,AMSA02.jpg,AMSA12.jpg,AMNE18.jpg,AMNE17.jpg,AMNE17.jpg,MN,1,num_4,32,num_2,0.800097504864,,,2017_Oct_24_1800,59.9989030944,FEMA4ImagesEEG,001,201739,
AFNE01.JPG,AFNE01.JPG,AFNE01.JPG,AFNE01.JPG,AFNE01.JPG,AFNE01.JPG,,,,,,,,,,,,,,,,,,,,,1,5,15,4,,,AMSA07.jpg,AMNE01.jpg,AMNE19.jpg,AMSA04.jpg,AMNE19.jpg,MN,1,num_2,16,num_2,0.683481434826,,,2017_Oct_24_1800,59.9989030944,FEMA4ImagesEEG,001,201739,
AFNE01.JPG,AFNE01.JPG,AFNE01.JPG,AFNE01.JPG,AFNE01.JPG,AFNE01.JPG,,,,,,,,,,,,,,,,,,,,,1,6,16,5,,,AMSA05.jpg,AMNE20.jpg,AMSA17.jpg,AMNE13.jpg,AMNE20.jpg,MN,1,num_6,16,num_6,0.650131904171,,,2017_Oct_24_1800,59.9989030944,FEMA4ImagesEEG,001,201739,
AFNE01.JPG,AFNE01.JPG,AFNE01.JPG,AFNE01.JPG,AFNE01.JPG,AFNE01.JPG,,,,,,,,,,,,,,,,,,,,,1,7,17,0,,,AMNE09.jpg,AMNE20.jpg,AMSA08.jpg,AMSA17.jpg,AMNE20.jpg,MN,1,num_6,16,num_6,0.750397316064,,,2017_Oct_24_1800,59.9989030944,FEMA4ImagesEEG,001,201739,
AFNE01.JPG,AFNE01.JPG,AFNE01.JPG,AFNE01.JPG,AFNE01.JPG,AFNE01.JPG,,,,,,,,,,,,,,,,,,,,,1,8,18,3,,,AMSA03.jpg,AMSA04.jpg,AMNE20.jpg,AMNE03.jpg,AMNE20.jpg,MN,1,num_2,16,num_2,0.583468444762,,,2017_Oct_24_1800,59.9989030944,FEMA4ImagesEEG,001,201739,
AFNE01.JPG,AFNE01.JPG,AFNE01.JPG,AFNE01.JPG,AFNE01.JPG,AFNE01.JPG,,,,,,,,,,,,,,,,,,,,,1,9,19,7,,,AMNE13.jpg,AMSA11.jpg,AMSA15.jpg,AMNE20.jpg,AMSA11.jpg,MS,2,num_6,32,num_8,1.13347060978,,,2017_Oct_24_1800,59.9989030944,FEMA4ImagesEEG,001,201739,
AFNE01.JPG,AFNE01.JPG,AFNE01.JPG,AFNE01.JPG,AFNE01.JPG,AFNE01.JPG,,,,,,,,,,,,,,,,,,,,,2,0,20,7,,,AMSA10.jpg,AMNE18.jpg,AMNE10.jpg,AMSA07.jpg,AMNE10.jpg,MN,1,num_2,32,num_8,1.33344142255,,,2017_Oct_24_1800,59.9989030944,FEMA4ImagesEEG,001,201739,
AFNE01.JPG,AFNE01.JPG,AFNE01.JPG,AFNE01.JPG,AFNE01.JPG,AFNE01.JPG,,,,,,,,,,,,,,,,,,,,,2,1,21,5,,,AMSA15.jpg,AMNE06.jpg,AMSA08.jpg,AMNE04.jpg,AMSA15.jpg,MS,2,num_8,16,num_8,0.650157563272,,,2017_Oct_24_1800,59.9989030944,FEMA4ImagesEEG,001,201739,
AFNE01.JPG,AFNE01.JPG,AFNE01.JPG,AFNE01.JPG,AFNE01.JPG,AFNE01.JPG,,,,,,,,,,,,,,,,,,,,,2,2,22,0,,,AMNE20.jpg,AMNE02.jpg,AMSA09.jpg,AMSA03.jpg,AMSA03.jpg,MS,2,num_4,32,num_2,0.683441021596,,,2017_Oct_24_1800,59.9989030944,FEMA4ImagesEEG,001,201739,
AFNE01.JPG,AFNE01.JPG,AFNE01.JPG,AFNE01.JPG,AFNE01.JPG,AFNE01.JPG,,,,,,,,,,,,,,,,,,,,,2,3,23,8,,,AMSA13.jpg,AMNE06.jpg,AMNE09.jpg,AMSA09.jpg,AMSA13.jpg,MS,2,num_8,32,num_6,0.833436451037,,,2017_Oct_24_1800,59.9989030944,FEMA4ImagesEEG,001,201739,
AFNE01.JPG,AFNE01.JPG,AFNE01.JPG,AFNE01.JPG,AFNE01.JPG,AFNE01.JPG,,,,,,,,,,,,,,,,,,,,,2,4,24,6,,,AMNE17.jpg,AMSA14.jpg,AMNE20.jpg,AMSA07.jpg,AMNE17.jpg,MN,1,num_8,32,num_4,0.716761685675,,,2017_Oct_24_1800,59.9989030944,FEMA4ImagesEEG,001,201739,
AFNE01.JPG,AFNE01.JPG,AFNE01.JPG,AFNE01.JPG,AFNE01.JPG,AFNE01.JPG,,,,,,,,,,,,,,,,,,,,,2,5,25,9,,,AMNE16.jpg,AMSA15.jpg,AMNE07.jpg,AMSA08.jpg,AMSA15.jpg,MS,2,num_6,32,num_8,0.716785099707,,,2017_Oct_24_1800,59.9989030944,FEMA4ImagesEEG,001,201739,
AFNE01.JPG,AFNE01.JPG,AFNE01.JPG,AFNE01.JPG,AFNE01.JPG,AFNE01.JPG,,,,,,,,,,,,,,,,,,,,,2,6,26,1,,,AMNE05.jpg,AMSA06.jpg,AMSA18.jpg,AMNE18.jpg,AMNE18.jpg,MN,1,num_4,32,num_2,0.850106244907,,,2017_Oct_24_1800,59.9989030944,FEMA4ImagesEEG,001,201739,
AFNE01.JPG,AFNE01.JPG,AFNE01.JPG,AFNE01.JPG,AFNE01.JPG,AFNE01.JPG,,,,,,,,,,,,,,,,,,,,,2,7,27,2,,,AMNE12.jpg,AMNE06.jpg,AMSA12.jpg,AMSA07.jpg,AMNE12.jpg,MN,1,num_8,32,num_4,0.933458421729,,,2017_Oct_24_1800,59.9989030944,FEMA4ImagesEEG,001,201739,
AFNE01.JPG,AFNE01.JPG,AFNE01.JPG,AFNE01.JPG,AFNE01.JPG,AFNE01.JPG,,,,,,,,,,,,,,,,,,,,,2,8,28,4,,,AMSA15.jpg,AMNE05.jpg,AMNE10.jpg,AMSA01.jpg,AMSA01.jpg,MS,2,num_4,16,num_4,1.60006992123,,,2017_Oct_24_1800,59.9989030944,FEMA4ImagesEEG,001,201739,
AFNE01.JPG,AFNE01.JPG,AFNE01.JPG,AFNE01.JPG,AFNE01.JPG,AFNE01.JPG,,,,,,,,,,,,,,,,,,,,,2,9,29,3,,,AMSA14.jpg,AMNE12.jpg,AMNE19.jpg,AMSA16.jpg,AMSA16.jpg,MS,2,num_4,32,num_6,1.1167033111,,,2017_Oct_24_1800,59.9989030944,FEMA4ImagesEEG,001,201739,
AFNE01.JPG,AFNE01.JPG,AFNE01.JPG,AFNE01.JPG,AFNE01.JPG,AFNE01.JPG,,,,,,,,,,,,,,,,,,,,,3,0,30,4,,,AMNE10.jpg,AMNE17.jpg,AMSA19.jpg,AMSA16.jpg,AMNE10.jpg,MN,1,num_8,16,num_8,0.883429154172,,,2017_Oct_24_1800,59.9989030944,FEMA4ImagesEEG,001,201739,
AFNE01.JPG,AFNE01.JPG,AFNE01.JPG,AFNE01.JPG,AFNE01.JPG,AFNE01.JPG,,,,,,,,,,,,,,,,,,,,,3,1,31,5,,,AMSA05.jpg,AMNE10.jpg,AMNE03.jpg,AMSA01.jpg,AMNE10.jpg,MN,1,num_6,16,num_6,2.18333565863,,,2017_Oct_24_1800,59.9989030944,FEMA4ImagesEEG,001,201739,
AFNE01.JPG,AFNE01.JPG,AFNE01.JPG,AFNE01.JPG,AFNE01.JPG,AFNE01.JPG,,,,,,,,,,,,,,,,,,,,,3,2,32,9,,,AMSA06.jpg,AMNE13.jpg,AMNE16.jpg,AMSA03.jpg,AMSA03.jpg,MS,2,num_4,16,num_4,0.500145455357,,,2017_Oct_24_1800,59.9989030944,FEMA4ImagesEEG,001,201739,
AFNE01.JPG,AFNE01.JPG,AFNE01.JPG,AFNE01.JPG,AFNE01.JPG,AFNE01.JPG,,,,,,,,,,,,,,,,,,,,,3,3,33,3,,,AMSA18.jpg,AMSA11.jpg,AMNE03.jpg,AMNE16.jpg,AMSA11.jpg,MS,2,num_6,16,num_6,0.550115706748,,,2017_Oct_24_1800,59.9989030944,FEMA4ImagesEEG,001,201739,
AFNE01.JPG,AFNE01.JPG,AFNE01.JPG,AFNE01.JPG,AFNE01.JPG,AFNE01.JPG,,,,,,,,,,,,,,,,,,,,,3,4,34,1,,,AMNE13.jpg,AMNE17.jpg,AMSA06.jpg,AMSA10.jpg,AMSA10.jpg,MS,2,num_4,32,num_2,1.78337639256,,,2017_Oct_24_1800,59.9989030944,FEMA4ImagesEEG,001,201739,
AFNE01.JPG,AFNE01.JPG,AFNE01.JPG,AFNE01.JPG,AFNE01.JPG,AFNE01.JPG,,,,,,,,,,,,,,,,,,,,,3,5,35,0,,,AMSA18.jpg,AMSA09.jpg,AMNE05.jpg,AMNE11.jpg,AMNE11.jpg,MN,1,num_4,32,num_8,1.00011257967,,,2017_Oct_24_1800,59.9989030944,FEMA4ImagesEEG,001,201739,
AFNE01.JPG,AFNE01.JPG,AFNE01.JPG,AFNE01.JPG,AFNE01.JPG,AFNE01.JPG,,,,,,,,,,,,,,,,,,,,,3,6,36,6,,,AMSA01.jpg,AMSA02.jpg,AMNE03.jpg,AMNE17.jpg,AMSA02.jpg,MS,2,num_6,32,num_2,0.949821267975,,,2017_Oct_24_1800,59.9989030944,FEMA4ImagesEEG,001,201739,
AFNE01.JPG,AFNE01.JPG,AFNE01.JPG,AFNE01.JPG,AFNE01.JPG,AFNE01.JPG,,,,,,,,,,,,,,,,,,,,,3,7,37,8,,,AMSA02.jpg,AMNE16.jpg,AMSA20.jpg,AMNE15.jpg,AMNE16.jpg,MN,1,num_6,16,num_6,0.533461629064,,,2017_Oct_24_1800,59.9989030944,FEMA4ImagesEEG,001,201739,
AFNE01.JPG,AFNE01.JPG,AFNE01.JPG,AFNE01.JPG,AFNE01.JPG,AFNE01.JPG,,,,,,,,,,,,,,,,,,,,,3,8,38,7,,,AMSA19.jpg,AMNE15.jpg,AMNE19.jpg,AMSA13.jpg,AMSA19.jpg,MS,2,num_8,16,num_8,1.78801396501,,,2017_Oct_24_1800,59.9989030944,FEMA4ImagesEEG,001,201739,
