IPosition2,IPosition3,IPosition1,IPosition6,IPosition4,IPosition5,TrialsM1.thisRepN,TrialsM1.thisTrialN,TrialsM1.thisN,TrialsM1.thisIndex,TrialsF1.thisRepN,TrialsF1.thisTrialN,TrialsF1.thisN,TrialsF1.thisIndex,TrialsM2.thisRepN,TrialsM2.thisTrialN,TrialsM2.thisN,TrialsM2.thisIndex,TrialsF2.thisRepN,TrialsF2.thisTrialN,TrialsF2.thisN,TrialsF2.thisIndex,TrialsM3.thisRepN,TrialsM3.thisTrialN,TrialsM3.thisN,TrialsM3.thisIndex,TrialsF3.thisRepN,TrialsF3.thisTrialN,TrialsF3.thisN,TrialsF3.thisIndex,InstrKey_resp.keys,InstrKey_resp.rt,Image0 _Position,Image1 _Position,Image2 _Position,Image3 _Position,Center_image,condition,code,correct_answer,accuracy,Key_Resp.keys,Key_Resp.rt,BreakKey_resp.keys,BreakKey_resp.rt,date,frameRate,expName,session,participant,
,,,,,,,,,,,,,,,,,,,,,,,,,,,,,,space,8.46626567747,,,,,,,,,,,,,,2017_Oct_11_1816,59.9993649658,MAFE4ImagesEEG,001,201717,
AFSA25.JPG,AFNE24.JPG,AFSA24.JPG,AFNE21.JPG,AFSA21.JPG,AFNE25.JPG,0,0,0,2,,,,,,,,,,,,,,,,,,,,,,,AMSA08.jpg,AMSA17.jpg,AMNE20.jpg,AMNE11.jpg,AMSA17.jpg,MS,2,num_6,16,num_6,0.817041820381,,,2017_Oct_11_1816,59.9993649658,MAFE4ImagesEEG,001,201717,
AFNE22.JPG,AFSA24.JPG,AFSA22.JPG,AFNE25.JPG,AFNE24.JPG,AFSA25.JPG,0,1,1,6,,,,,,,,,,,,,,,,,,,,,,,AMNE12.jpg,AMSA20.jpg,AMNE11.jpg,AMSA04.jpg,AMSA04.jpg,MS,2,num_4,32,num_2,0.966723213205,,,2017_Oct_11_1816,59.9993649658,MAFE4ImagesEEG,001,201717,
AFSA21.JPG,AFNE23.JPG,AFNE21.JPG,AFSA25.JPG,AFNE25.JPG,AFSA23.JPG,0,2,2,4,,,,,,,,,,,,,,,,,,,,,,,AMNE09.jpg,AMSA04.jpg,AMSA15.jpg,AMNE06.jpg,AMNE06.jpg,MN,1,num_4,16,num_4,1.73339825112,,,2017_Oct_11_1816,59.9993649658,MAFE4ImagesEEG,001,201717,
AMSA21.JPG,AMNE23.JPG,AMNE21.JPG,AMSA25.JPG,AMNE25.JPG,AMSA23.JPG,0,3,3,5,,,,,,,,,,,,,,,,,,,,,,,AMSA12.jpg,AMNE15.jpg,AMNE09.jpg,AMSA09.jpg,AMSA12.jpg,MS,2,num_8,16,num_8,1.25012276333,,,2017_Oct_11_1816,59.9993649658,MAFE4ImagesEEG,001,201717,
AMSA25.JPG,AMNE24.JPG,AMSA24.JPG,AMNE26.JPG,AMSA21.JPG,AMNE25.JPG,0,4,4,3,,,,,,,,,,,,,,,,,,,,,,,AMNE07.jpg,AMSA11.jpg,AMSA01.jpg,AMNE19.jpg,AMNE07.jpg,MN,1,num_8,32,num_6,1.08342899405,,,2017_Oct_11_1816,59.9993649658,MAFE4ImagesEEG,001,201717,
AFNE23.JPG,AFNE24.JPG,AFNE22.JPG,AFSA24.JPG,AFSA22.JPG,AFSA23.JPG,0,5,5,8,,,,,,,,,,,,,,,,,,,,,,,AMNE20.jpg,AMSA15.jpg,AMSA03.jpg,AMNE18.jpg,AMSA03.jpg,MS,2,num_2,16,num_2,0.916814447613,,,2017_Oct_11_1816,59.9993649658,MAFE4ImagesEEG,001,201717,
AFSA21.JPG,AFNE22.JPG,AFNE21.JPG,AFSA23.JPG,AFSA22.JPG,AFNE23.JPG,0,6,6,0,,,,,,,,,,,,,,,,,,,,,,,AMNE02.jpg,AMNE09.jpg,AMSA06.jpg,AMSA08.jpg,AMSA06.jpg,MS,2,num_2,16,num_2,1.73339440231,,,2017_Oct_11_1816,59.9993649658,MAFE4ImagesEEG,001,201717,
AMNE23.JPG,AMNE24.JPG,AMNE22.JPG,AMSA24.JPG,AMSA22.JPG,AMSA23.JPG,0,7,7,9,,,,,,,,,,,,,,,,,,,,,,,AMSA15.jpg,AMSA11.jpg,AMNE10.jpg,AMNE06.jpg,AMNE10.jpg,MN,1,num_2,32,num_8,1.08326124703,,,2017_Oct_11_1816,59.9993649658,MAFE4ImagesEEG,001,201717,
AMNE22.JPG,AMSA24.JPG,AMSA22.JPG,AMNE25.JPG,AMNE24.JPG,AMSA25.JPG,0,8,8,7,,,,,,,,,,,,,,,,,,,,,,,AMNE20.jpg,AMSA12.jpg,AMSA03.jpg,AMNE16.jpg,AMNE20.jpg,MN,1,num_8,32,num_4,2.13332268479,,,2017_Oct_11_1816,59.9993649658,MAFE4ImagesEEG,001,201717,
AMSA21.JPG,AMNE22.JPG,AMNE21.JPG,AMSA23.JPG,AMSA22.JPG,AMNE23.JPG,0,9,9,1,,,,,,,,,,,,,,,,,,,,,,,AMNE09.jpg,AMNE03.jpg,AMSA09.jpg,AMSA10.jpg,AMSA09.jpg,MS,2,num_2,32,num_6,1.23340867518,,,2017_Oct_11_1816,59.9993649658,MAFE4ImagesEEG,001,201717,
AFSA21.JPG,AFNE23.JPG,AFNE21.JPG,AFSA25.JPG,AFNE25.JPG,AFSA23.JPG,,,,,0,0,0,4,,,,,,,,,,,,,,,,,,,AFSA14.jpg,AFSA06.jpg,AFNE17.jpg,AFNE18.jpg,AFSA06.jpg,FS,4,num_6,16,num_6,0.966828095145,,,2017_Oct_11_1816,59.9993649658,MAFE4ImagesEEG,001,201717,
AMSA21.JPG,AMNE23.JPG,AMNE21.JPG,AMSA25.JPG,AMNE25.JPG,AMSA23.JPG,,,,,0,1,1,5,,,,,,,,,,,,,,,,,,,AFNE01.jpg,AFNE04.jpg,AFSA05.jpg,AFSA20.jpg,AFNE01.jpg,FN,3,num_8,32,num_4,0.983486053767,,,2017_Oct_11_1816,59.9993649658,MAFE4ImagesEEG,001,201717,
AFSA21.JPG,AFNE22.JPG,AFNE21.JPG,AFSA23.JPG,AFSA22.JPG,AFNE23.JPG,,,,,0,2,2,0,,,,,,,,,,,,,,,,,,,AFSA08.jpg,AFSA01.jpg,AFNE14.jpg,AFNE01.jpg,AFNE01.jpg,FN,3,num_4,16,num_4,0.93346663285,,,2017_Oct_11_1816,59.9993649658,MAFE4ImagesEEG,001,201717,
AFNE22.JPG,AFSA24.JPG,AFSA22.JPG,AFNE25.JPG,AFNE24.JPG,AFSA25.JPG,,,,,0,3,3,6,,,,,,,,,,,,,,,,,,,AFSA12.jpg,AFNE07.jpg,AFSA11.jpg,AFNE18.jpg,AFSA11.jpg,FS,4,num_2,16,num_2,0.8334768645,,,2017_Oct_11_1816,59.9993649658,MAFE4ImagesEEG,001,201717,
AMNE23.JPG,AMNE24.JPG,AMNE22.JPG,AMSA24.JPG,AMSA22.JPG,AMSA23.JPG,,,,,0,4,4,9,,,,,,,,,,,,,,,,,,,AFSA11.jpg,AFSA19.jpg,AFNE09.jpg,AFNE06.jpg,AFNE09.jpg,FN,3,num_2,16,num_2,1.06676237553,,,2017_Oct_11_1816,59.9993649658,MAFE4ImagesEEG,001,201717,
AMSA25.JPG,AMNE24.JPG,AMSA24.JPG,AMNE26.JPG,AMSA21.JPG,AMNE25.JPG,,,,,0,5,5,3,,,,,,,,,,,,,,,,,,,AFNE08.jpg,AFSA06.jpg,AFSA05.jpg,AFNE09.jpg,AFSA06.jpg,FS,4,num_6,32,num_2,1.41672961193,,,2017_Oct_11_1816,59.9993649658,MAFE4ImagesEEG,001,201717,
AFNE23.JPG,AFNE24.JPG,AFNE22.JPG,AFSA24.JPG,AFSA22.JPG,AFSA23.JPG,,,,,0,6,6,8,,,,,,,,,,,,,,,,,,,AFSA11.jpg,AFSA02.jpg,AFNE02.jpg,AFNE06.jpg,AFSA11.jpg,FS,4,num_8,16,num_8,0.750138960662,,,2017_Oct_11_1816,59.9993649658,MAFE4ImagesEEG,001,201717,
AMSA21.JPG,AMNE22.JPG,AMNE21.JPG,AMSA23.JPG,AMSA22.JPG,AMNE23.JPG,,,,,0,7,7,1,,,,,,,,,,,,,,,,,,,AFNE05.jpg,AFNE01.jpg,AFSA18.jpg,AFSA05.jpg,AFSA18.jpg,FS,4,num_2,16,num_2,1.00011963607,,,2017_Oct_11_1816,59.9993649658,MAFE4ImagesEEG,001,201717,
AMNE22.JPG,AMSA24.JPG,AMSA22.JPG,AMNE25.JPG,AMNE24.JPG,AMSA25.JPG,,,,,0,8,8,7,,,,,,,,,,,,,,,,,,,AFSA05.jpg,AFNE13.jpg,AFSA08.jpg,AFNE14.jpg,AFNE14.jpg,FN,3,num_4,16,num_4,1.10011421551,,,2017_Oct_11_1816,59.9993649658,MAFE4ImagesEEG,001,201717,
AFSA25.JPG,AFNE24.JPG,AFSA24.JPG,AFNE21.JPG,AFSA21.JPG,AFNE25.JPG,,,,,0,9,9,2,,,,,,,,,,,,,,,,,,,AFSA01.jpg,AFNE12.jpg,AFNE17.jpg,AFSA14.jpg,AFSA01.jpg,FS,4,num_8,32,num_2,1.16674188024,,,2017_Oct_11_1816,59.9993649658,MAFE4ImagesEEG,001,201717,
AMSA21.JPG,AMNE22.JPG,AMNE21.JPG,AMSA23.JPG,AMSA22.JPG,AMNE23.JPG,,,,,,,,,0,0,0,1,,,,,,,,,,,,,,,AMSA20.jpg,AMNE06.jpg,AMSA12.jpg,AMNE04.jpg,AMSA20.jpg,MS,2,num_8,16,num_8,1.28341719077,,,2017_Oct_11_1816,59.9993649658,MAFE4ImagesEEG,001,201717,
AFNE23.JPG,AFNE24.JPG,AFNE22.JPG,AFSA24.JPG,AFSA22.JPG,AFSA23.JPG,,,,,,,,,0,1,1,8,,,,,,,,,,,,,,,AMNE14.jpg,AMNE20.jpg,AMSA20.jpg,AMSA14.jpg,AMNE14.jpg,MN,1,num_8,16,num_8,0.850122634904,,,2017_Oct_11_1816,59.9993649658,MAFE4ImagesEEG,001,201717,
AMNE22.JPG,AMSA24.JPG,AMSA22.JPG,AMNE25.JPG,AMNE24.JPG,AMSA25.JPG,,,,,,,,,0,2,2,7,,,,,,,,,,,,,,,AMNE11.jpg,AMNE05.jpg,AMSA08.jpg,AMSA06.jpg,AMNE05.jpg,MN,1,num_6,32,num_8,2.21666058875,,,2017_Oct_11_1816,59.9993649658,MAFE4ImagesEEG,001,201717,
AMSA25.JPG,AMNE24.JPG,AMSA24.JPG,AMNE26.JPG,AMSA21.JPG,AMNE25.JPG,,,,,,,,,0,3,3,3,,,,,,,,,,,,,,,AMSA02.jpg,AMNE06.jpg,AMSA18.jpg,AMNE10.jpg,AMSA02.jpg,MS,2,num_8,32,num_2,1.11675742012,,,2017_Oct_11_1816,59.9993649658,MAFE4ImagesEEG,001,201717,
AFSA21.JPG,AFNE23.JPG,AFNE21.JPG,AFSA25.JPG,AFNE25.JPG,AFSA23.JPG,,,,,,,,,0,4,4,4,,,,,,,,,,,,,,,AMNE09.jpg,AMSA11.jpg,AMNE11.jpg,AMSA02.jpg,AMSA11.jpg,MS,2,num_6,16,num_6,1.10007380228,,,2017_Oct_11_1816,59.9993649658,MAFE4ImagesEEG,001,201717,
AMNE23.JPG,AMNE24.JPG,AMNE22.JPG,AMSA24.JPG,AMSA22.JPG,AMSA23.JPG,,,,,,,,,0,5,5,9,,,,,,,,,,,,,,,AMSA08.jpg,AMNE13.jpg,AMNE10.jpg,AMSA15.jpg,AMNE10.jpg,MN,1,num_2,16,num_2,1.03342304425,,,2017_Oct_11_1816,59.9993649658,MAFE4ImagesEEG,001,201717,
AMSA21.JPG,AMNE23.JPG,AMNE21.JPG,AMSA25.JPG,AMNE25.JPG,AMSA23.JPG,,,,,,,,,0,6,6,5,,,,,,,,,,,,,,,AMNE12.jpg,AMNE18.jpg,AMSA17.jpg,AMSA07.jpg,AMSA07.jpg,MS,2,num_4,32,num_2,1.70009003172,,,2017_Oct_11_1816,59.9993649658,MAFE4ImagesEEG,001,201717,
AFSA21.JPG,AFNE22.JPG,AFNE21.JPG,AFSA23.JPG,AFSA22.JPG,AFNE23.JPG,,,,,,,,,0,7,7,0,,,,,,,,,,,,,,,AMSA18.jpg,AMSA04.jpg,AMNE02.jpg,AMNE06.jpg,AMSA18.jpg,MS,2,num_8,16,num_8,0.81665629067,,,2017_Oct_11_1816,59.9993649658,MAFE4ImagesEEG,001,201717,
AFSA25.JPG,AFNE24.JPG,AFSA24.JPG,AFNE21.JPG,AFSA21.JPG,AFNE25.JPG,,,,,,,,,0,8,8,2,,,,,,,,,,,,,,,AMSA09.jpg,AMNE20.jpg,AMNE03.jpg,AMSA02.jpg,AMNE20.jpg,MN,1,num_6,16,num_6,0.616787730018,,,2017_Oct_11_1816,59.9993649658,MAFE4ImagesEEG,001,201717,
AFNE22.JPG,AFSA24.JPG,AFSA22.JPG,AFNE25.JPG,AFNE24.JPG,AFSA25.JPG,,,,,,,,,0,9,9,6,,,,,,,,,,,,,,,AMSA15.jpg,AMNE15.jpg,AMSA13.jpg,AMNE13.jpg,AMSA13.jpg,MS,2,num_2,16,num_2,0.749767222907,,,2017_Oct_11_1816,59.9993649658,MAFE4ImagesEEG,001,201717,
AFSA21.JPG,AFNE23.JPG,AFNE21.JPG,AFSA25.JPG,AFNE25.JPG,AFSA23.JPG,,,,,,,,,,,,,0,0,0,4,,,,,,,,,,,AFSA05.jpg,AFSA13.jpg,AFNE01.jpg,AFNE15.jpg,AFSA13.jpg,FS,4,num_6,16,num_6,0.88349115348,,,2017_Oct_11_1816,59.9993649658,MAFE4ImagesEEG,001,201717,
AMSA21.JPG,AMNE23.JPG,AMNE21.JPG,AMSA25.JPG,AMNE25.JPG,AMSA23.JPG,,,,,,,,,,,,,0,1,1,5,,,,,,,,,,,AFNE04.jpg,AFSA18.jpg,AFSA04.jpg,AFNE07.jpg,AFSA18.jpg,FS,4,num_6,16,num_6,0.766782806604,,,2017_Oct_11_1816,59.9993649658,MAFE4ImagesEEG,001,201717,
AMNE22.JPG,AMSA24.JPG,AMSA22.JPG,AMNE25.JPG,AMNE24.JPG,AMSA25.JPG,,,,,,,,,,,,,0,2,2,7,,,,,,,,,,,AFNE20.jpg,AFSA16.jpg,AFNE18.jpg,AFSA01.jpg,AFSA16.jpg,FS,4,num_6,16,num_6,2.06690382189,,,2017_Oct_11_1816,59.9993649658,MAFE4ImagesEEG,001,201717,
AFSA25.JPG,AFNE24.JPG,AFSA24.JPG,AFNE21.JPG,AFSA21.JPG,AFNE25.JPG,,,,,,,,,,,,,0,3,3,2,,,,,,,,,,,AFNE18.jpg,AFSA01.jpg,AFSA07.jpg,AFNE12.jpg,AFNE18.jpg,FN,3,num_8,16,num_8,1.05003706145,,,2017_Oct_11_1816,59.9993649658,MAFE4ImagesEEG,001,201717,
AMNE23.JPG,AMNE24.JPG,AMNE22.JPG,AMSA24.JPG,AMSA22.JPG,AMSA23.JPG,,,,,,,,,,,,,0,4,4,9,,,,,,,,,,,AFNE01.jpg,AFSA14.jpg,AFNE13.jpg,AFSA13.jpg,AFSA14.jpg,FS,4,num_6,32,num_2,1.08343059779,,,2017_Oct_11_1816,59.9993649658,MAFE4ImagesEEG,001,201717,
AFNE23.JPG,AFNE24.JPG,AFNE22.JPG,AFSA24.JPG,AFSA22.JPG,AFSA23.JPG,,,,,,,,,,,,,0,5,5,8,,,,,,,,,,,AFNE01.jpg,AFSA03.jpg,AFNE11.jpg,AFSA19.jpg,AFSA19.jpg,FS,4,num_4,16,num_4,1.86669367296,,,2017_Oct_11_1816,59.9993649658,MAFE4ImagesEEG,001,201717,
AFSA21.JPG,AFNE22.JPG,AFNE21.JPG,AFSA23.JPG,AFSA22.JPG,AFNE23.JPG,,,,,,,,,,,,,0,6,6,0,,,,,,,,,,,AFNE17.jpg,AFSA02.jpg,AFNE12.jpg,AFSA19.jpg,AFSA19.jpg,FS,4,num_4,16,num_4,0.866851156345,,,2017_Oct_11_1816,59.9993649658,MAFE4ImagesEEG,001,201717,
AMSA21.JPG,AMNE22.JPG,AMNE21.JPG,AMSA23.JPG,AMSA22.JPG,AMNE23.JPG,,,,,,,,,,,,,0,7,7,1,,,,,,,,,,,AFNE09.jpg,AFSA10.jpg,AFNE07.jpg,AFSA02.jpg,AFSA10.jpg,FS,4,num_6,16,num_6,1.06674409332,,,2017_Oct_11_1816,59.9993649658,MAFE4ImagesEEG,001,201717,
AFNE22.JPG,AFSA24.JPG,AFSA22.JPG,AFNE25.JPG,AFNE24.JPG,AFSA25.JPG,,,,,,,,,,,,,0,8,8,6,,,,,,,,,,,AFNE18.jpg,AFSA10.jpg,AFNE15.jpg,AFSA09.jpg,AFSA10.jpg,FS,4,num_6,16,num_6,0.75015082804,,,2017_Oct_11_1816,59.9993649658,MAFE4ImagesEEG,001,201717,
AMSA25.JPG,AMNE24.JPG,AMSA24.JPG,AMNE26.JPG,AMSA21.JPG,AMNE25.JPG,,,,,,,,,,,,,0,9,9,3,,,,,,,,,,,AFSA08.jpg,AFNE10.jpg,AFSA10.jpg,AFNE07.jpg,AFNE10.jpg,FN,3,num_6,16,num_6,1.6000871131,,,2017_Oct_11_1816,59.9993649658,MAFE4ImagesEEG,001,201717,
AMNE23.JPG,AMNE24.JPG,AMNE22.JPG,AMSA24.JPG,AMSA22.JPG,AMSA23.JPG,,,,,,,,,,,,,,,,,0,0,0,9,,,,,,,AMSA04.jpg,AMNE16.jpg,AMSA02.jpg,AMNE17.jpg,AMNE17.jpg,MN,1,num_4,16,num_4,1.15006596025,,,2017_Oct_11_1816,59.9993649658,MAFE4ImagesEEG,001,201717,
AMSA25.JPG,AMNE24.JPG,AMSA24.JPG,AMNE26.JPG,AMSA21.JPG,AMNE25.JPG,,,,,,,,,,,,,,,,,0,1,1,3,,,,,,,AMNE02.jpg,AMNE12.jpg,AMSA11.jpg,AMSA01.jpg,AMNE12.jpg,MN,1,num_6,16,num_6,0.783481178572,,,2017_Oct_11_1816,59.9993649658,MAFE4ImagesEEG,001,201717,
AFNE22.JPG,AFSA24.JPG,AFSA22.JPG,AFNE25.JPG,AFNE24.JPG,AFSA25.JPG,,,,,,,,,,,,,,,,,0,2,2,6,,,,,,,AMSA01.jpg,AMSA08.jpg,AMNE12.jpg,AMNE02.jpg,AMNE12.jpg,MN,1,num_2,16,num_2,0.866771612782,,,2017_Oct_11_1816,59.9993649658,MAFE4ImagesEEG,001,201717,
AFNE23.JPG,AFNE24.JPG,AFNE22.JPG,AFSA24.JPG,AFSA22.JPG,AFSA23.JPG,,,,,,,,,,,,,,,,,0,3,3,8,,,,,,,AMSA02.jpg,AMNE09.jpg,AMNE05.jpg,AMSA07.jpg,AMNE09.jpg,MN,1,num_6,16,num_6,1.03342561028,,,2017_Oct_11_1816,59.9993649658,MAFE4ImagesEEG,001,201717,
AFSA21.JPG,AFNE22.JPG,AFNE21.JPG,AFSA23.JPG,AFSA22.JPG,AFNE23.JPG,,,,,,,,,,,,,,,,,0,4,4,0,,,,,,,AMNE03.jpg,AMSA04.jpg,AMSA19.jpg,AMNE13.jpg,AMNE03.jpg,MN,1,num_8,16,num_8,1.31727034773,,,2017_Oct_11_1816,59.9993649658,MAFE4ImagesEEG,001,201717,
AMNE22.JPG,AMSA24.JPG,AMSA22.JPG,AMNE25.JPG,AMNE24.JPG,AMSA25.JPG,,,,,,,,,,,,,,,,,0,5,5,7,,,,,,,AMNE11.jpg,AMSA09.jpg,AMNE13.jpg,AMSA13.jpg,AMNE13.jpg,MN,1,num_2,32,num_4,1.20007704175,,,2017_Oct_11_1816,59.9993649658,MAFE4ImagesEEG,001,201717,
AMSA21.JPG,AMNE23.JPG,AMNE21.JPG,AMSA25.JPG,AMNE25.JPG,AMSA23.JPG,,,,,,,,,,,,,,,,,0,6,6,5,,,,,,,AMNE08.jpg,AMSA10.jpg,AMNE11.jpg,AMSA14.jpg,AMSA14.jpg,MS,2,num_4,16,num_4,0.950206380221,,,2017_Oct_11_1816,59.9993649658,MAFE4ImagesEEG,001,201717,
AFSA25.JPG,AFNE24.JPG,AFSA24.JPG,AFNE21.JPG,AFSA21.JPG,AFNE25.JPG,,,,,,,,,,,,,,,,,0,7,7,2,,,,,,,AMNE07.jpg,AMSA12.jpg,AMSA16.jpg,AMNE06.jpg,AMNE07.jpg,MN,1,num_8,32,num_6,0.800104817841,,,2017_Oct_11_1816,59.9993649658,MAFE4ImagesEEG,001,201717,
AMSA21.JPG,AMNE22.JPG,AMNE21.JPG,AMSA23.JPG,AMSA22.JPG,AMNE23.JPG,,,,,,,,,,,,,,,,,0,8,8,1,,,,,,,AMNE12.jpg,AMNE15.jpg,AMSA16.jpg,AMSA14.jpg,AMNE15.jpg,MN,1,num_6,32,num_2,1.30009375233,,,2017_Oct_11_1816,59.9993649658,MAFE4ImagesEEG,001,201717,
AFSA21.JPG,AFNE23.JPG,AFNE21.JPG,AFSA25.JPG,AFNE25.JPG,AFSA23.JPG,,,,,,,,,,,,,,,,,0,9,9,4,,,,,,,AMNE03.jpg,AMSA11.jpg,AMNE05.jpg,AMSA12.jpg,AMSA11.jpg,MS,2,num_6,32,num_8,2.1833616707,,,2017_Oct_11_1816,59.9993649658,MAFE4ImagesEEG,001,201717,
AFSA21.JPG,AFNE23.JPG,AFNE21.JPG,AFSA25.JPG,AFNE25.JPG,AFSA23.JPG,,,,,,,,,,,,,,,,,,,,,0,0,0,4,,,AFNE02.jpg,AFSA03.jpg,AFNE07.jpg,AFSA02.jpg,AFNE02.jpg,FN,3,num_8,32,num_2,1.64973960712,,,2017_Oct_11_1816,59.9993649658,MAFE4ImagesEEG,001,201717,
AFSA21.JPG,AFNE22.JPG,AFNE21.JPG,AFSA23.JPG,AFSA22.JPG,AFNE23.JPG,,,,,,,,,,,,,,,,,,,,,0,1,1,0,,,AFSA06.jpg,AFNE11.jpg,AFSA09.jpg,AFNE10.jpg,AFNE10.jpg,FN,3,num_4,16,num_4,0.783512290334,,,2017_Oct_11_1816,59.9993649658,MAFE4ImagesEEG,001,201717,
AFNE23.JPG,AFNE24.JPG,AFNE22.JPG,AFSA24.JPG,AFSA22.JPG,AFSA23.JPG,,,,,,,,,,,,,,,,,,,,,0,2,2,8,,,AFNE03.jpg,AFNE01.jpg,AFSA20.jpg,AFSA03.jpg,AFNE03.jpg,FN,3,num_8,32,num_4,0.866733124014,,,2017_Oct_11_1816,59.9993649658,MAFE4ImagesEEG,001,201717,
AMSA25.JPG,AMNE24.JPG,AMSA24.JPG,AMNE26.JPG,AMSA21.JPG,AMNE25.JPG,,,,,,,,,,,,,,,,,,,,,0,3,3,3,,,AFSA11.jpg,AFSA02.jpg,AFNE15.jpg,AFNE07.jpg,AFNE07.jpg,FN,3,num_4,32,num_8,1.13284638571,,,2017_Oct_11_1816,59.9993649658,MAFE4ImagesEEG,001,201717,
AFSA25.JPG,AFNE24.JPG,AFSA24.JPG,AFNE21.JPG,AFSA21.JPG,AFNE25.JPG,,,,,,,,,,,,,,,,,,,,,0,4,4,2,,,AFSA18.jpg,AFNE07.jpg,AFNE13.jpg,AFSA03.jpg,AFSA18.jpg,FS,4,num_8,32,num_4,0.90012313216,,,2017_Oct_11_1816,59.9993649658,MAFE4ImagesEEG,001,201717,
AMNE23.JPG,AMNE24.JPG,AMNE22.JPG,AMSA24.JPG,AMSA22.JPG,AMSA23.JPG,,,,,,,,,,,,,,,,,,,,,0,5,5,9,,,AFNE02.jpg,AFNE10.jpg,AFSA19.jpg,AFSA17.jpg,AFNE10.jpg,FN,3,num_6,16,num_6,0.950158589985,,,2017_Oct_11_1816,59.9993649658,MAFE4ImagesEEG,001,201717,
AFNE22.JPG,AFSA24.JPG,AFSA22.JPG,AFNE25.JPG,AFNE24.JPG,AFSA25.JPG,,,,,,,,,,,,,,,,,,,,,0,6,6,6,,,AFNE06.jpg,AFSA17.jpg,AFNE04.jpg,AFSA02.jpg,AFSA17.jpg,FS,4,num_6,16,num_6,1.03346249531,,,2017_Oct_11_1816,59.9993649658,MAFE4ImagesEEG,001,201717,
AMNE22.JPG,AMSA24.JPG,AMSA22.JPG,AMNE25.JPG,AMNE24.JPG,AMSA25.JPG,,,,,,,,,,,,,,,,,,,,,0,7,7,7,,,AFSA05.jpg,AFNE10.jpg,AFSA12.jpg,AFNE05.jpg,AFNE05.jpg,FN,3,num_4,32,num_8,2.31661860365,,,2017_Oct_11_1816,59.9993649658,MAFE4ImagesEEG,001,201717,
AMSA21.JPG,AMNE22.JPG,AMNE21.JPG,AMSA23.JPG,AMSA22.JPG,AMNE23.JPG,,,,,,,,,,,,,,,,,,,,,0,8,8,1,,,AFSA18.jpg,AFSA19.jpg,AFNE01.jpg,AFNE10.jpg,AFNE10.jpg,FN,3,num_4,16,num_4,0.783415747457,,,2017_Oct_11_1816,59.9993649658,MAFE4ImagesEEG,001,201717,
AMSA21.JPG,AMNE23.JPG,AMNE21.JPG,AMSA25.JPG,AMNE25.JPG,AMSA23.JPG,,,,,,,,,,,,,,,,,,,,,0,9,9,5,,,AFNE03.jpg,AFNE13.jpg,AFSA07.jpg,AFSA10.jpg,AFSA07.jpg,FS,4,num_2,32,num_4,0.766821295489,,,2017_Oct_11_1816,59.9993649658,MAFE4ImagesEEG,001,201717,
,,,,,,,,,,,,,,,,,,,,,,,,,,,,,,,,,,,,,,,,,,,space,26.1647940255,2017_Oct_11_1816,59.9993649658,MAFE4ImagesEEG,001,201717,
AFNE01.JPG,AFNE01.JPG,AFNE01.JPG,AFNE01.JPG,AFNE01.JPG,AFNE01.JPG,0,0,0,7,,,,,,,,,,,,,,,,,,,,,,,AMSA19.jpg,AMSA02.jpg,AMNE05.jpg,AMNE08.jpg,AMSA19.jpg,MS,2,num_8,16,num_8,1.46674646682,,,2017_Oct_11_1816,59.9993649658,MAFE4ImagesEEG,001,201717,
AFNE01.JPG,AFNE01.JPG,AFNE01.JPG,AFNE01.JPG,AFNE01.JPG,AFNE01.JPG,0,1,1,2,,,,,,,,,,,,,,,,,,,,,,,AMSA01.jpg,AMNE13.jpg,AMSA05.jpg,AMNE07.jpg,AMSA01.jpg,MS,2,num_8,16,num_8,0.850120068993,,,2017_Oct_11_1816,59.9993649658,MAFE4ImagesEEG,001,201717,
AFNE01.JPG,AFNE01.JPG,AFNE01.JPG,AFNE01.JPG,AFNE01.JPG,AFNE01.JPG,0,2,2,4,,,,,,,,,,,,,,,,,,,,,,,AMNE02.jpg,AMSA03.jpg,AMSA10.jpg,AMNE19.jpg,AMNE19.jpg,MN,1,num_4,16,num_4,0.933465991402,,,2017_Oct_11_1816,59.9993649658,MAFE4ImagesEEG,001,201717,
AFNE01.JPG,AFNE01.JPG,AFNE01.JPG,AFNE01.JPG,AFNE01.JPG,AFNE01.JPG,0,3,3,3,,,,,,,,,,,,,,,,,,,,,,,AMSA15.jpg,AMSA07.jpg,AMNE06.jpg,AMNE15.jpg,AMSA07.jpg,MS,2,num_6,32,num_2,1.78336891951,,,2017_Oct_11_1816,59.9993649658,MAFE4ImagesEEG,001,201717,
AFNE01.JPG,AFNE01.JPG,AFNE01.JPG,AFNE01.JPG,AFNE01.JPG,AFNE01.JPG,0,4,4,9,,,,,,,,,,,,,,,,,,,,,,,AMNE02.jpg,AMSA19.jpg,AMNE12.jpg,AMSA15.jpg,AMSA15.jpg,MS,2,num_4,16,num_4,0.78344204824,,,2017_Oct_11_1816,59.9993649658,MAFE4ImagesEEG,001,201717,
AFNE01.JPG,AFNE01.JPG,AFNE01.JPG,AFNE01.JPG,AFNE01.JPG,AFNE01.JPG,0,5,5,6,,,,,,,,,,,,,,,,,,,,,,,AMSA13.jpg,AMSA20.jpg,AMNE10.jpg,AMNE04.jpg,AMSA20.jpg,MS,2,num_6,16,num_6,1.03345832578,,,2017_Oct_11_1816,59.9993649658,MAFE4ImagesEEG,001,201717,
AFNE01.JPG,AFNE01.JPG,AFNE01.JPG,AFNE01.JPG,AFNE01.JPG,AFNE01.JPG,0,6,6,1,,,,,,,,,,,,,,,,,,,,,,,AMSA16.jpg,AMNE01.jpg,AMSA02.jpg,AMNE07.jpg,AMSA02.jpg,MS,2,num_2,16,num_2,1.63269323227,,,2017_Oct_11_1816,59.9993649658,MAFE4ImagesEEG,001,201717,
AFNE01.JPG,AFNE01.JPG,AFNE01.JPG,AFNE01.JPG,AFNE01.JPG,AFNE01.JPG,0,7,7,0,,,,,,,,,,,,,,,,,,,,,,,AMSA08.jpg,AMNE05.jpg,AMNE19.jpg,AMSA05.jpg,AMSA05.jpg,MS,2,num_4,32,num_6,2.88341962837,,,2017_Oct_11_1816,59.9993649658,MAFE4ImagesEEG,001,201717,
AFNE01.JPG,AFNE01.JPG,AFNE01.JPG,AFNE01.JPG,AFNE01.JPG,AFNE01.JPG,0,8,8,8,,,,,,,,,,,,,,,,,,,,,,,AMSA02.jpg,AMNE20.jpg,AMSA18.jpg,AMNE19.jpg,AMSA18.jpg,MS,2,num_2,32,num_4,1.86673119955,,,2017_Oct_11_1816,59.9993649658,MAFE4ImagesEEG,001,201717,
AFNE01.JPG,AFNE01.JPG,AFNE01.JPG,AFNE01.JPG,AFNE01.JPG,AFNE01.JPG,0,9,9,5,,,,,,,,,,,,,,,,,,,,,,,AMSA14.jpg,AMSA10.jpg,AMNE13.jpg,AMNE03.jpg,AMSA14.jpg,MS,2,num_8,16,num_8,0.816791001474,,,2017_Oct_11_1816,59.9993649658,MAFE4ImagesEEG,001,201717,
AFNE01.JPG,AFNE01.JPG,AFNE01.JPG,AFNE01.JPG,AFNE01.JPG,AFNE01.JPG,1,0,10,3,,,,,,,,,,,,,,,,,,,,,,,AMNE08.jpg,AMNE04.jpg,AMSA08.jpg,AMSA04.jpg,AMSA08.jpg,MS,2,num_2,32,num_8,0.700105106574,,,2017_Oct_11_1816,59.9993649658,MAFE4ImagesEEG,001,201717,
AFNE01.JPG,AFNE01.JPG,AFNE01.JPG,AFNE01.JPG,AFNE01.JPG,AFNE01.JPG,1,1,11,2,,,,,,,,,,,,,,,,,,,,,,,AMSA19.jpg,AMSA12.jpg,AMNE19.jpg,AMNE05.jpg,AMNE19.jpg,MN,1,num_2,32,num_8,1.30006873456,,,2017_Oct_11_1816,59.9993649658,MAFE4ImagesEEG,001,201717,
AFNE01.JPG,AFNE01.JPG,AFNE01.JPG,AFNE01.JPG,AFNE01.JPG,AFNE01.JPG,1,2,12,5,,,,,,,,,,,,,,,,,,,,,,,AMNE05.jpg,AMSA08.jpg,AMSA20.jpg,AMNE16.jpg,AMSA20.jpg,MS,2,num_2,16,num_2,1.75003472005,,,2017_Oct_11_1816,59.9993649658,MAFE4ImagesEEG,001,201717,
AFNE01.JPG,AFNE01.JPG,AFNE01.JPG,AFNE01.JPG,AFNE01.JPG,AFNE01.JPG,1,3,13,8,,,,,,,,,,,,,,,,,,,,,,,AMNE13.jpg,AMSA12.jpg,AMSA05.jpg,AMNE14.jpg,AMSA12.jpg,MS,2,num_6,16,num_6,1.43339751347,,,2017_Oct_11_1816,59.9993649658,MAFE4ImagesEEG,001,201717,
AFNE01.JPG,AFNE01.JPG,AFNE01.JPG,AFNE01.JPG,AFNE01.JPG,AFNE01.JPG,1,4,14,1,,,,,,,,,,,,,,,,,,,,,,,AMNE14.jpg,AMNE11.jpg,AMSA18.jpg,AMSA17.jpg,AMSA18.jpg,MS,2,num_2,32,num_8,1.43343054957,,,2017_Oct_11_1816,59.9993649658,MAFE4ImagesEEG,001,201717,
AFNE01.JPG,AFNE01.JPG,AFNE01.JPG,AFNE01.JPG,AFNE01.JPG,AFNE01.JPG,1,5,15,4,,,,,,,,,,,,,,,,,,,,,,,AMNE12.jpg,AMSA03.jpg,AMNE15.jpg,AMSA13.jpg,AMSA13.jpg,MS,2,num_4,32,num_8,2.25000761764,,,2017_Oct_11_1816,59.9993649658,MAFE4ImagesEEG,001,201717,
AFNE01.JPG,AFNE01.JPG,AFNE01.JPG,AFNE01.JPG,AFNE01.JPG,AFNE01.JPG,1,6,16,7,,,,,,,,,,,,,,,,,,,,,,,AMSA07.jpg,AMNE05.jpg,AMNE20.jpg,AMSA14.jpg,AMNE20.jpg,MN,1,num_2,32,num_6,0.83345537493,,,2017_Oct_11_1816,59.9993649658,MAFE4ImagesEEG,001,201717,
AFNE01.JPG,AFNE01.JPG,AFNE01.JPG,AFNE01.JPG,AFNE01.JPG,AFNE01.JPG,1,7,17,9,,,,,,,,,,,,,,,,,,,,,,,AMSA06.jpg,AMSA09.jpg,AMNE16.jpg,AMNE19.jpg,AMSA09.jpg,MS,2,num_6,32,num_2,1.81670440175,,,2017_Oct_11_1816,59.9993649658,MAFE4ImagesEEG,001,201717,
AFNE01.JPG,AFNE01.JPG,AFNE01.JPG,AFNE01.JPG,AFNE01.JPG,AFNE01.JPG,1,8,18,6,,,,,,,,,,,,,,,,,,,,,,,AMNE12.jpg,AMNE04.jpg,AMSA13.jpg,AMSA05.jpg,AMSA13.jpg,MS,2,num_2,32,num_8,1.91700785398,,,2017_Oct_11_1816,59.9993649658,MAFE4ImagesEEG,001,201717,
AFNE01.JPG,AFNE01.JPG,AFNE01.JPG,AFNE01.JPG,AFNE01.JPG,AFNE01.JPG,1,9,19,0,,,,,,,,,,,,,,,,,,,,,,,AMSA08.jpg,AMNE10.jpg,AMSA15.jpg,AMNE14.jpg,AMNE10.jpg,MN,1,num_6,16,num_6,0.866805611295,,,2017_Oct_11_1816,59.9993649658,MAFE4ImagesEEG,001,201717,
AFNE01.JPG,AFNE01.JPG,AFNE01.JPG,AFNE01.JPG,AFNE01.JPG,AFNE01.JPG,2,0,20,0,,,,,,,,,,,,,,,,,,,,,,,AMNE09.jpg,AMNE02.jpg,AMSA02.jpg,AMSA04.jpg,AMNE09.jpg,MN,1,num_8,16,num_8,1.06675275334,,,2017_Oct_11_1816,59.9993649658,MAFE4ImagesEEG,001,201717,
AFNE01.JPG,AFNE01.JPG,AFNE01.JPG,AFNE01.JPG,AFNE01.JPG,AFNE01.JPG,2,1,21,2,,,,,,,,,,,,,,,,,,,,,,,AMNE10.jpg,AMSA08.jpg,AMNE06.jpg,AMSA17.jpg,AMSA17.jpg,MS,2,num_4,16,num_4,1.08345016302,,,2017_Oct_11_1816,59.9993649658,MAFE4ImagesEEG,001,201717,
AFNE01.JPG,AFNE01.JPG,AFNE01.JPG,AFNE01.JPG,AFNE01.JPG,AFNE01.JPG,2,2,22,5,,,,,,,,,,,,,,,,,,,,,,,AMSA16.jpg,AMNE08.jpg,AMNE03.jpg,AMSA07.jpg,AMNE03.jpg,MN,1,num_2,32,num_6,1.18345051573,,,2017_Oct_11_1816,59.9993649658,MAFE4ImagesEEG,001,201717,
AFNE01.JPG,AFNE01.JPG,AFNE01.JPG,AFNE01.JPG,AFNE01.JPG,AFNE01.JPG,2,3,23,7,,,,,,,,,,,,,,,,,,,,,,,AMNE18.jpg,AMSA07.jpg,AMNE04.jpg,AMSA05.jpg,AMSA07.jpg,MS,2,num_6,16,num_6,1.81673358905,,,2017_Oct_11_1816,59.9993649658,MAFE4ImagesEEG,001,201717,
AFNE01.JPG,AFNE01.JPG,AFNE01.JPG,AFNE01.JPG,AFNE01.JPG,AFNE01.JPG,2,4,24,6,,,,,,,,,,,,,,,,,,,,,,,AMNE13.jpg,AMSA07.jpg,AMSA12.jpg,AMNE15.jpg,AMNE13.jpg,MN,1,num_8,16,num_8,1.05009094579,,,2017_Oct_11_1816,59.9993649658,MAFE4ImagesEEG,001,201717,
AFNE01.JPG,AFNE01.JPG,AFNE01.JPG,AFNE01.JPG,AFNE01.JPG,AFNE01.JPG,2,5,25,3,,,,,,,,,,,,,,,,,,,,,,,AMNE20.jpg,AMSA07.jpg,AMNE11.jpg,AMSA08.jpg,AMSA07.jpg,MS,2,num_6,32,num_2,1.95004536875,,,2017_Oct_11_1816,59.9993649658,MAFE4ImagesEEG,001,201717,
AFNE01.JPG,AFNE01.JPG,AFNE01.JPG,AFNE01.JPG,AFNE01.JPG,AFNE01.JPG,2,6,26,1,,,,,,,,,,,,,,,,,,,,,,,AMSA15.jpg,AMSA07.jpg,AMNE14.jpg,AMNE12.jpg,AMSA07.jpg,MS,2,num_6,16,num_6,0.749883972341,,,2017_Oct_11_1816,59.9993649658,MAFE4ImagesEEG,001,201717,
AFNE01.JPG,AFNE01.JPG,AFNE01.JPG,AFNE01.JPG,AFNE01.JPG,AFNE01.JPG,2,7,27,9,,,,,,,,,,,,,,,,,,,,,,,AMSA02.jpg,AMSA18.jpg,AMNE17.jpg,AMNE03.jpg,AMSA02.jpg,MS,2,num_8,32,num_4,1.78335897659,,,2017_Oct_11_1816,59.9993649658,MAFE4ImagesEEG,001,201717,
AFNE01.JPG,AFNE01.JPG,AFNE01.JPG,AFNE01.JPG,AFNE01.JPG,AFNE01.JPG,2,8,28,8,,,,,,,,,,,,,,,,,,,,,,,AMSA15.jpg,AMSA14.jpg,AMNE19.jpg,AMNE20.jpg,AMNE20.jpg,MN,1,num_4,32,num_8,0.883467098,,,2017_Oct_11_1816,59.9993649658,MAFE4ImagesEEG,001,201717,
AFNE01.JPG,AFNE01.JPG,AFNE01.JPG,AFNE01.JPG,AFNE01.JPG,AFNE01.JPG,2,9,29,4,,,,,,,,,,,,,,,,,,,,,,,AMSA15.jpg,AMSA04.jpg,AMNE05.jpg,AMNE15.jpg,AMSA15.jpg,MS,2,num_8,16,num_8,1.10036246851,,,2017_Oct_11_1816,59.9993649658,MAFE4ImagesEEG,001,201717,
AFNE01.JPG,AFNE01.JPG,AFNE01.JPG,AFNE01.JPG,AFNE01.JPG,AFNE01.JPG,3,0,30,6,,,,,,,,,,,,,,,,,,,,,,,AMSA06.jpg,AMNE11.jpg,AMSA17.jpg,AMNE03.jpg,AMNE03.jpg,MN,1,num_4,16,num_4,1.03342881775,,,2017_Oct_11_1816,59.9993649658,MAFE4ImagesEEG,001,201717,
AFNE01.JPG,AFNE01.JPG,AFNE01.JPG,AFNE01.JPG,AFNE01.JPG,AFNE01.JPG,3,1,31,0,,,,,,,,,,,,,,,,,,,,,,,AMNE06.jpg,AMNE20.jpg,AMSA14.jpg,AMSA05.jpg,AMNE06.jpg,MN,1,num_8,32,num_6,1.41672480083,,,2017_Oct_11_1816,59.9993649658,MAFE4ImagesEEG,001,201717,
AFNE01.JPG,AFNE01.JPG,AFNE01.JPG,AFNE01.JPG,AFNE01.JPG,AFNE01.JPG,3,2,32,8,,,,,,,,,,,,,,,,,,,,,,,AMNE06.jpg,AMNE16.jpg,AMSA04.jpg,AMSA05.jpg,AMNE06.jpg,MN,1,num_8,32,num_6,1.6666833451,,,2017_Oct_11_1816,59.9993649658,MAFE4ImagesEEG,001,201717,
AFNE01.JPG,AFNE01.JPG,AFNE01.JPG,AFNE01.JPG,AFNE01.JPG,AFNE01.JPG,3,3,33,9,,,,,,,,,,,,,,,,,,,,,,,AMNE07.jpg,AMNE01.jpg,AMSA19.jpg,AMSA18.jpg,AMSA19.jpg,MS,2,num_2,16,num_2,1.13348305481,,,2017_Oct_11_1816,59.9993649658,MAFE4ImagesEEG,001,201717,
AFNE01.JPG,AFNE01.JPG,AFNE01.JPG,AFNE01.JPG,AFNE01.JPG,AFNE01.JPG,3,4,34,1,,,,,,,,,,,,,,,,,,,,,,,AMSA09.jpg,AMNE19.jpg,AMSA06.jpg,AMNE06.jpg,AMSA09.jpg,MS,2,num_8,32,num_4,1.61672839313,,,2017_Oct_11_1816,59.9993649658,MAFE4ImagesEEG,001,201717,
AFNE01.JPG,AFNE01.JPG,AFNE01.JPG,AFNE01.JPG,AFNE01.JPG,AFNE01.JPG,3,5,35,3,,,,,,,,,,,,,,,,,,,,,,,AMNE04.jpg,AMSA17.jpg,AMSA15.jpg,AMNE14.jpg,AMNE04.jpg,MN,1,num_8,16,num_8,1.30008348858,,,2017_Oct_11_1816,59.9993649658,MAFE4ImagesEEG,001,201717,
AFNE01.JPG,AFNE01.JPG,AFNE01.JPG,AFNE01.JPG,AFNE01.JPG,AFNE01.JPG,3,6,36,2,,,,,,,,,,,,,,,,,,,,,,,AMNE20.jpg,AMNE12.jpg,AMSA10.jpg,AMSA18.jpg,AMSA10.jpg,MS,2,num_2,16,num_2,1.23344620178,,,2017_Oct_11_1816,59.9993649658,MAFE4ImagesEEG,001,201717,
AFNE01.JPG,AFNE01.JPG,AFNE01.JPG,AFNE01.JPG,AFNE01.JPG,AFNE01.JPG,3,7,37,4,,,,,,,,,,,,,,,,,,,,,,,AMNE06.jpg,AMSA14.jpg,AMNE17.jpg,AMSA16.jpg,AMSA14.jpg,MS,2,num_6,16,num_6,1.96670204436,,,2017_Oct_11_1816,59.9993649658,MAFE4ImagesEEG,001,201717,
AFNE01.JPG,AFNE01.JPG,AFNE01.JPG,AFNE01.JPG,AFNE01.JPG,AFNE01.JPG,3,8,38,7,,,,,,,,,,,,,,,,,,,,,,,AMSA11.jpg,AMNE11.jpg,AMSA02.jpg,AMNE06.jpg,AMSA11.jpg,MS,2,num_8,32,num_4,2.31664714962,,,2017_Oct_11_1816,59.9993649658,MAFE4ImagesEEG,001,201717,
AFNE01.JPG,AFNE01.JPG,AFNE01.JPG,AFNE01.JPG,AFNE01.JPG,AFNE01.JPG,3,9,39,5,,,,,,,,,,,,,,,,,,,,,,,AMSA09.jpg,AMNE07.jpg,AMSA19.jpg,AMNE17.jpg,AMSA09.jpg,MS,2,num_8,32,num_2,1.40020347759,,,2017_Oct_11_1816,59.9993649658,MAFE4ImagesEEG,001,201717,
AFNE01.JPG,AFNE01.JPG,AFNE01.JPG,AFNE01.JPG,AFNE01.JPG,AFNE01.JPG,4,0,40,8,,,,,,,,,,,,,,,,,,,,,,,AMNE19.jpg,AMSA09.jpg,AMSA16.jpg,AMNE13.jpg,AMNE13.jpg,MN,1,num_4,32,num_6,3.31655253132,,,2017_Oct_11_1816,59.9993649658,MAFE4ImagesEEG,001,201717,
AFNE01.JPG,AFNE01.JPG,AFNE01.JPG,AFNE01.JPG,AFNE01.JPG,AFNE01.JPG,4,1,41,1,,,,,,,,,,,,,,,,,,,,,,,AMSA07.jpg,AMNE07.jpg,AMNE04.jpg,AMSA19.jpg,AMNE04.jpg,MN,1,num_2,32,num_6,1.53337669733,,,2017_Oct_11_1816,59.9993649658,MAFE4ImagesEEG,001,201717,
AFNE01.JPG,AFNE01.JPG,AFNE01.JPG,AFNE01.JPG,AFNE01.JPG,AFNE01.JPG,4,2,42,6,,,,,,,,,,,,,,,,,,,,,,,AMNE02.jpg,AMSA09.jpg,AMNE03.jpg,AMSA14.jpg,AMNE03.jpg,MN,1,num_2,16,num_2,0.916772110038,,,2017_Oct_11_1816,59.9993649658,MAFE4ImagesEEG,001,201717,
AFNE01.JPG,AFNE01.JPG,AFNE01.JPG,AFNE01.JPG,AFNE01.JPG,AFNE01.JPG,4,3,43,3,,,,,,,,,,,,,,,,,,,,,,,AMNE13.jpg,AMNE14.jpg,AMSA07.jpg,AMSA09.jpg,AMSA09.jpg,MS,2,num_4,32,num_8,0.716811496881,,,2017_Oct_11_1816,59.9993649658,MAFE4ImagesEEG,001,201717,
AFNE01.JPG,AFNE01.JPG,AFNE01.JPG,AFNE01.JPG,AFNE01.JPG,AFNE01.JPG,4,4,44,4,,,,,,,,,,,,,,,,,,,,,,,AMSA16.jpg,AMNE11.jpg,AMSA08.jpg,AMNE03.jpg,AMNE11.jpg,MN,1,num_6,16,num_6,0.750189316925,,,2017_Oct_11_1816,59.9993649658,MAFE4ImagesEEG,001,201717,
AFNE01.JPG,AFNE01.JPG,AFNE01.JPG,AFNE01.JPG,AFNE01.JPG,AFNE01.JPG,4,5,45,0,,,,,,,,,,,,,,,,,,,,,,,AMSA04.jpg,AMNE12.jpg,AMNE19.jpg,AMSA08.jpg,AMNE19.jpg,MN,1,num_2,32,num_6,1.11672310089,,,2017_Oct_11_1816,59.9993649658,MAFE4ImagesEEG,001,201717,
AFNE01.JPG,AFNE01.JPG,AFNE01.JPG,AFNE01.JPG,AFNE01.JPG,AFNE01.JPG,4,6,46,5,,,,,,,,,,,,,,,,,,,,,,,AMSA03.jpg,AMNE19.jpg,AMNE02.jpg,AMSA15.jpg,AMSA15.jpg,MS,2,num_4,32,num_8,0.666769624222,,,2017_Oct_11_1816,59.9993649658,MAFE4ImagesEEG,001,201717,
AFNE01.JPG,AFNE01.JPG,AFNE01.JPG,AFNE01.JPG,AFNE01.JPG,AFNE01.JPG,4,7,47,7,,,,,,,,,,,,,,,,,,,,,,,AMSA13.jpg,AMNE17.jpg,AMSA08.jpg,AMNE07.jpg,AMSA08.jpg,MS,2,num_2,32,num_8,2.43331187591,,,2017_Oct_11_1816,59.9993649658,MAFE4ImagesEEG,001,201717,
AFNE01.JPG,AFNE01.JPG,AFNE01.JPG,AFNE01.JPG,AFNE01.JPG,AFNE01.JPG,4,8,48,2,,,,,,,,,,,,,,,,,,,,,,,AMSA15.jpg,AMSA16.jpg,AMNE20.jpg,AMNE07.jpg,AMSA16.jpg,MS,2,num_6,16,num_6,2.03337589558,,,2017_Oct_11_1816,59.9993649658,MAFE4ImagesEEG,001,201717,
AFNE01.JPG,AFNE01.JPG,AFNE01.JPG,AFNE01.JPG,AFNE01.JPG,AFNE01.JPG,4,9,49,9,,,,,,,,,,,,,,,,,,,,,,,AMSA19.jpg,AMSA09.jpg,AMNE12.jpg,AMNE06.jpg,AMSA19.jpg,MS,2,num_8,32,num_4,2.20027141029,,,2017_Oct_11_1816,59.9993649658,MAFE4ImagesEEG,001,201717,
AFNE01.JPG,AFNE01.JPG,AFNE01.JPG,AFNE01.JPG,AFNE01.JPG,AFNE01.JPG,5,0,50,9,,,,,,,,,,,,,,,,,,,,,,,AMNE12.jpg,AMNE15.jpg,AMSA09.jpg,AMSA14.jpg,AMNE15.jpg,MN,1,num_6,16,num_6,0.783485348104,,,2017_Oct_11_1816,59.9993649658,MAFE4ImagesEEG,001,201717,
AFNE01.JPG,AFNE01.JPG,AFNE01.JPG,AFNE01.JPG,AFNE01.JPG,AFNE01.JPG,5,1,51,6,,,,,,,,,,,,,,,,,,,,,,,AMSA08.jpg,AMNE11.jpg,AMNE12.jpg,AMSA14.jpg,AMNE11.jpg,MN,1,num_6,32,num_2,1.26669572573,,,2017_Oct_11_1816,59.9993649658,MAFE4ImagesEEG,001,201717,
AFNE01.JPG,AFNE01.JPG,AFNE01.JPG,AFNE01.JPG,AFNE01.JPG,AFNE01.JPG,5,2,52,5,,,,,,,,,,,,,,,,,,,,,,,AMNE19.jpg,AMSA15.jpg,AMSA08.jpg,AMNE09.jpg,AMSA08.jpg,MS,2,num_2,32,num_8,2.76661570102,,,2017_Oct_11_1816,59.9993649658,MAFE4ImagesEEG,001,201717,
AFNE01.JPG,AFNE01.JPG,AFNE01.JPG,AFNE01.JPG,AFNE01.JPG,AFNE01.JPG,5,3,53,1,,,,,,,,,,,,,,,,,,,,,,,AMSA03.jpg,AMNE05.jpg,AMNE11.jpg,AMSA07.jpg,AMSA07.jpg,MS,2,num_4,16,num_4,2.4499938899,,,2017_Oct_11_1816,59.9993649658,MAFE4ImagesEEG,001,201717,
AFNE01.JPG,AFNE01.JPG,AFNE01.JPG,AFNE01.JPG,AFNE01.JPG,AFNE01.JPG,5,4,54,4,,,,,,,,,,,,,,,,,,,,,,,AMNE15.jpg,AMSA12.jpg,AMSA09.jpg,AMNE20.jpg,AMSA09.jpg,MS,2,num_2,32,num_4,1.11671828979,,,2017_Oct_11_1816,59.9993649658,MAFE4ImagesEEG,001,201717,
AFNE01.JPG,AFNE01.JPG,AFNE01.JPG,AFNE01.JPG,AFNE01.JPG,AFNE01.JPG,5,5,55,3,,,,,,,,,,,,,,,,,,,,,,,AMSA18.jpg,AMNE01.jpg,AMSA01.jpg,AMNE20.jpg,AMNE20.jpg,MN,1,num_4,16,num_4,0.916763770743,,,2017_Oct_11_1816,59.9993649658,MAFE4ImagesEEG,001,201717,
AFNE01.JPG,AFNE01.JPG,AFNE01.JPG,AFNE01.JPG,AFNE01.JPG,AFNE01.JPG,5,6,56,2,,,,,,,,,,,,,,,,,,,,,,,AMSA19.jpg,AMSA18.jpg,AMNE18.jpg,AMNE11.jpg,AMNE11.jpg,MN,1,num_4,16,num_4,1.28343611455,,,2017_Oct_11_1816,59.9993649658,MAFE4ImagesEEG,001,201717,
AFNE01.JPG,AFNE01.JPG,AFNE01.JPG,AFNE01.JPG,AFNE01.JPG,AFNE01.JPG,5,7,57,0,,,,,,,,,,,,,,,,,,,,,,,AMSA11.jpg,AMNE10.jpg,AMSA07.jpg,AMNE11.jpg,AMNE11.jpg,MN,1,num_4,16,num_4,1.00012797525,,,2017_Oct_11_1816,59.9993649658,MAFE4ImagesEEG,001,201717,
AFNE01.JPG,AFNE01.JPG,AFNE01.JPG,AFNE01.JPG,AFNE01.JPG,AFNE01.JPG,5,8,58,8,,,,,,,,,,,,,,,,,,,,,,,AMSA11.jpg,AMNE05.jpg,AMSA01.jpg,AMNE17.jpg,AMNE05.jpg,MN,1,num_6,32,num_4,1.23343305138,,,2017_Oct_11_1816,59.9993649658,MAFE4ImagesEEG,001,201717,
AFNE01.JPG,AFNE01.JPG,AFNE01.JPG,AFNE01.JPG,AFNE01.JPG,AFNE01.JPG,5,9,59,7,,,,,,,,,,,,,,,,,,,,,,,AMSA17.jpg,AMNE16.jpg,AMSA06.jpg,AMNE04.jpg,AMNE16.jpg,MN,1,num_6,16,num_6,0.716774932574,,,2017_Oct_11_1816,59.9993649658,MAFE4ImagesEEG,001,201717,
,,,,,,,,,,,,,,,,,,,,,,,,,,,,,,,,,,,,,,,,,,,space,24.4650070932,2017_Oct_11_1816,59.9993649658,MAFE4ImagesEEG,001,201717,
AFNE01.JPG,AFNE01.JPG,AFNE01.JPG,AFNE01.JPG,AFNE01.JPG,AFNE01.JPG,,,,,0,0,0,2,,,,,,,,,,,,,,,,,,,AFSA20.jpg,AFSA11.jpg,AFNE02.jpg,AFNE16.jpg,AFSA11.jpg,FS,4,num_6,32,num_8,1.23341669375,,,2017_Oct_11_1816,59.9993649658,MAFE4ImagesEEG,001,201717,
AFNE01.JPG,AFNE01.JPG,AFNE01.JPG,AFNE01.JPG,AFNE01.JPG,AFNE01.JPG,,,,,0,1,1,8,,,,,,,,,,,,,,,,,,,AFNE13.jpg,AFSA06.jpg,AFSA17.jpg,AFNE15.jpg,AFNE13.jpg,FN,3,num_8,32,num_4,1.40009346372,,,2017_Oct_11_1816,59.9993649658,MAFE4ImagesEEG,001,201717,
AFNE01.JPG,AFNE01.JPG,AFNE01.JPG,AFNE01.JPG,AFNE01.JPG,AFNE01.JPG,,,,,0,2,2,9,,,,,,,,,,,,,,,,,,,AFNE05.jpg,AFSA08.jpg,AFNE14.jpg,AFSA14.jpg,AFSA08.jpg,FS,4,num_6,32,num_2,2.74997570389,,,2017_Oct_11_1816,59.9993649658,MAFE4ImagesEEG,001,201717,
AFNE01.JPG,AFNE01.JPG,AFNE01.JPG,AFNE01.JPG,AFNE01.JPG,AFNE01.JPG,,,,,0,3,3,1,,,,,,,,,,,,,,,,,,,AFSA06.jpg,AFNE07.jpg,AFSA12.jpg,AFNE08.jpg,AFNE07.jpg,FN,3,num_6,16,num_6,1.01687606191,,,2017_Oct_11_1816,59.9993649658,MAFE4ImagesEEG,001,201717,
AFNE01.JPG,AFNE01.JPG,AFNE01.JPG,AFNE01.JPG,AFNE01.JPG,AFNE01.JPG,,,,,0,4,4,6,,,,,,,,,,,,,,,,,,,AFSA11.jpg,AFSA13.jpg,AFNE19.jpg,AFNE08.jpg,AFSA13.jpg,FS,4,num_6,32,num_4,1.26721596613,,,2017_Oct_11_1816,59.9993649658,MAFE4ImagesEEG,001,201717,
AFNE01.JPG,AFNE01.JPG,AFNE01.JPG,AFNE01.JPG,AFNE01.JPG,AFNE01.JPG,,,,,0,5,5,5,,,,,,,,,,,,,,,,,,,AFSA08.jpg,AFSA11.jpg,AFNE19.jpg,AFNE14.jpg,AFSA11.jpg,FS,4,num_6,16,num_6,1.86651790747,,,2017_Oct_11_1816,59.9993649658,MAFE4ImagesEEG,001,201717,
AFNE01.JPG,AFNE01.JPG,AFNE01.JPG,AFNE01.JPG,AFNE01.JPG,AFNE01.JPG,,,,,0,6,6,3,,,,,,,,,,,,,,,,,,,AFSA02.jpg,AFSA13.jpg,AFNE01.jpg,AFNE02.jpg,AFNE01.jpg,FN,3,num_2,16,num_2,1.53342512914,,,2017_Oct_11_1816,59.9993649658,MAFE4ImagesEEG,001,201717,
AFNE01.JPG,AFNE01.JPG,AFNE01.JPG,AFNE01.JPG,AFNE01.JPG,AFNE01.JPG,,,,,0,7,7,0,,,,,,,,,,,,,,,,,,,AFSA05.jpg,AFNE06.jpg,AFNE05.jpg,AFSA04.jpg,AFNE06.jpg,FN,3,num_6,16,num_6,1.30010145006,,,2017_Oct_11_1816,59.9993649658,MAFE4ImagesEEG,001,201717,
AFNE01.JPG,AFNE01.JPG,AFNE01.JPG,AFNE01.JPG,AFNE01.JPG,AFNE01.JPG,,,,,0,8,8,7,,,,,,,,,,,,,,,,,,,AFSA20.jpg,AFNE07.jpg,AFNE01.jpg,AFSA18.jpg,AFSA18.jpg,FS,4,num_4,16,num_4,0.700138784247,,,2017_Oct_11_1816,59.9993649658,MAFE4ImagesEEG,001,201717,
AFNE01.JPG,AFNE01.JPG,AFNE01.JPG,AFNE01.JPG,AFNE01.JPG,AFNE01.JPG,,,,,0,9,9,4,,,,,,,,,,,,,,,,,,,AFSA06.jpg,AFNE10.jpg,AFSA09.jpg,AFNE15.jpg,AFSA09.jpg,FS,4,num_2,32,num_8,1.81670568476,,,2017_Oct_11_1816,59.9993649658,MAFE4ImagesEEG,001,201717,
AFNE01.JPG,AFNE01.JPG,AFNE01.JPG,AFNE01.JPG,AFNE01.JPG,AFNE01.JPG,,,,,1,0,10,9,,,,,,,,,,,,,,,,,,,AFSA05.jpg,AFSA11.jpg,AFNE12.jpg,AFNE07.jpg,AFSA11.jpg,FS,4,num_6,16,num_6,3.39998024236,,,2017_Oct_11_1816,59.9993649658,MAFE4ImagesEEG,001,201717,
AFNE01.JPG,AFNE01.JPG,AFNE01.JPG,AFNE01.JPG,AFNE01.JPG,AFNE01.JPG,,,,,1,1,11,5,,,,,,,,,,,,,,,,,,,AFSA08.jpg,AFSA12.jpg,AFNE06.jpg,AFNE08.jpg,AFSA08.jpg,FS,4,num_8,32,num_4,0.71648305899,,,2017_Oct_11_1816,59.9993649658,MAFE4ImagesEEG,001,201717,
AFNE01.JPG,AFNE01.JPG,AFNE01.JPG,AFNE01.JPG,AFNE01.JPG,AFNE01.JPG,,,,,1,2,12,7,,,,,,,,,,,,,,,,,,,AFNE07.jpg,AFSA14.jpg,AFSA12.jpg,AFNE16.jpg,AFSA12.jpg,FS,4,num_2,32,num_4,1.70006982516,,,2017_Oct_11_1816,59.9993649658,MAFE4ImagesEEG,001,201717,
AFNE01.JPG,AFNE01.JPG,AFNE01.JPG,AFNE01.JPG,AFNE01.JPG,AFNE01.JPG,,,,,1,3,13,8,,,,,,,,,,,,,,,,,,,AFSA04.jpg,AFSA17.jpg,AFNE08.jpg,AFNE11.jpg,AFSA17.jpg,FS,4,num_6,32,num_4,2.76692842273,,,2017_Oct_11_1816,59.9993649658,MAFE4ImagesEEG,001,201717,
AFNE01.JPG,AFNE01.JPG,AFNE01.JPG,AFNE01.JPG,AFNE01.JPG,AFNE01.JPG,,,,,1,4,14,1,,,,,,,,,,,,,,,,,,,AFNE08.jpg,AFNE05.jpg,AFSA17.jpg,AFSA09.jpg,AFSA17.jpg,FS,4,num_2,16,num_2,2.21666443744,,,2017_Oct_11_1816,59.9993649658,MAFE4ImagesEEG,001,201717,
AFNE01.JPG,AFNE01.JPG,AFNE01.JPG,AFNE01.JPG,AFNE01.JPG,AFNE01.JPG,,,,,1,5,15,4,,,,,,,,,,,,,,,,,,,AFSA03.jpg,AFSA16.jpg,AFNE06.jpg,AFNE13.jpg,AFNE06.jpg,FN,3,num_2,16,num_2,1.01674969029,,,2017_Oct_11_1816,59.9993649658,MAFE4ImagesEEG,001,201717,
AFNE01.JPG,AFNE01.JPG,AFNE01.JPG,AFNE01.JPG,AFNE01.JPG,AFNE01.JPG,,,,,1,6,16,0,,,,,,,,,,,,,,,,,,,AFNE13.jpg,AFSA01.jpg,AFNE07.jpg,AFSA15.jpg,AFNE13.jpg,FN,3,num_8,32,num_6,1.13343815121,,,2017_Oct_11_1816,59.9993649658,MAFE4ImagesEEG,001,201717,
AFNE01.JPG,AFNE01.JPG,AFNE01.JPG,AFNE01.JPG,AFNE01.JPG,AFNE01.JPG,,,,,1,7,17,3,,,,,,,,,,,,,,,,,,,AFSA06.jpg,AFNE17.jpg,AFSA08.jpg,AFNE12.jpg,AFNE17.jpg,FN,3,num_6,16,num_6,1.0000898072,,,2017_Oct_11_1816,59.9993649658,MAFE4ImagesEEG,001,201717,
AFNE01.JPG,AFNE01.JPG,AFNE01.JPG,AFNE01.JPG,AFNE01.JPG,AFNE01.JPG,,,,,1,8,18,6,,,,,,,,,,,,,,,,,,,AFSA05.jpg,AFNE10.jpg,AFSA14.jpg,AFNE01.jpg,AFNE10.jpg,FN,3,num_6,16,num_6,0.583467001794,,,2017_Oct_11_1816,59.9993649658,MAFE4ImagesEEG,001,201717,
AFNE01.JPG,AFNE01.JPG,AFNE01.JPG,AFNE01.JPG,AFNE01.JPG,AFNE01.JPG,,,,,1,9,19,2,,,,,,,,,,,,,,,,,,,AFSA10.jpg,AFNE20.jpg,AFNE10.jpg,AFSA11.jpg,AFSA10.jpg,FS,4,num_8,32,num_2,1.91669898119,,,2017_Oct_11_1816,59.9993649658,MAFE4ImagesEEG,001,201717,
AFNE01.JPG,AFNE01.JPG,AFNE01.JPG,AFNE01.JPG,AFNE01.JPG,AFNE01.JPG,,,,,2,0,20,9,,,,,,,,,,,,,,,,,,,AFSA14.jpg,AFSA16.jpg,AFNE16.jpg,AFNE13.jpg,AFSA14.jpg,FS,4,num_8,16,num_8,1.46673652378,,,2017_Oct_11_1816,59.9993649658,MAFE4ImagesEEG,001,201717,
AFNE01.JPG,AFNE01.JPG,AFNE01.JPG,AFNE01.JPG,AFNE01.JPG,AFNE01.JPG,,,,,2,1,21,2,,,,,,,,,,,,,,,,,,,AFSA06.jpg,AFSA15.jpg,AFNE01.jpg,AFNE19.jpg,AFNE01.jpg,FN,3,num_2,32,num_8,1.73308617098,,,2017_Oct_11_1816,59.9993649658,MAFE4ImagesEEG,001,201717,
AFNE01.JPG,AFNE01.JPG,AFNE01.JPG,AFNE01.JPG,AFNE01.JPG,AFNE01.JPG,,,,,2,2,22,4,,,,,,,,,,,,,,,,,,,AFSA03.jpg,AFNE20.jpg,AFSA17.jpg,AFNE10.jpg,AFSA17.jpg,FS,4,num_2,16,num_2,2.35002144158,,,2017_Oct_11_1816,59.9993649658,MAFE4ImagesEEG,001,201717,
AFNE01.JPG,AFNE01.JPG,AFNE01.JPG,AFNE01.JPG,AFNE01.JPG,AFNE01.JPG,,,,,2,3,23,7,,,,,,,,,,,,,,,,,,,AFSA17.jpg,AFNE15.jpg,AFNE12.jpg,AFSA03.jpg,AFSA17.jpg,FS,4,num_8,16,num_8,0.616829426261,,,2017_Oct_11_1816,59.9993649658,MAFE4ImagesEEG,001,201717,
AFNE01.JPG,AFNE01.JPG,AFNE01.JPG,AFNE01.JPG,AFNE01.JPG,AFNE01.JPG,,,,,2,4,24,1,,,,,,,,,,,,,,,,,,,AFNE07.jpg,AFNE03.jpg,AFSA09.jpg,AFSA16.jpg,AFSA16.jpg,FS,4,num_4,32,num_2,1.35007981618,,,2017_Oct_11_1816,59.9993649658,MAFE4ImagesEEG,001,201717,
AFNE01.JPG,AFNE01.JPG,AFNE01.JPG,AFNE01.JPG,AFNE01.JPG,AFNE01.JPG,,,,,2,5,25,8,,,,,,,,,,,,,,,,,,,AFNE11.jpg,AFSA03.jpg,AFSA15.jpg,AFNE16.jpg,AFNE11.jpg,FN,3,num_8,32,num_4,1.4666540937,,,2017_Oct_11_1816,59.9993649658,MAFE4ImagesEEG,001,201717,
AFNE01.JPG,AFNE01.JPG,AFNE01.JPG,AFNE01.JPG,AFNE01.JPG,AFNE01.JPG,,,,,2,6,26,6,,,,,,,,,,,,,,,,,,,AFNE14.jpg,AFSA09.jpg,AFNE17.jpg,AFSA08.jpg,AFSA09.jpg,FS,4,num_6,32,num_8,0.850123597193,,,2017_Oct_11_1816,59.9993649658,MAFE4ImagesEEG,001,201717,
AFNE01.JPG,AFNE01.JPG,AFNE01.JPG,AFNE01.JPG,AFNE01.JPG,AFNE01.JPG,,,,,2,7,27,0,,,,,,,,,,,,,,,,,,,AFNE07.jpg,AFNE16.jpg,AFSA08.jpg,AFSA07.jpg,AFNE16.jpg,FN,3,num_6,32,num_2,3.51653687924,,,2017_Oct_11_1816,59.9993649658,MAFE4ImagesEEG,001,201717,
AFNE01.JPG,AFNE01.JPG,AFNE01.JPG,AFNE01.JPG,AFNE01.JPG,AFNE01.JPG,,,,,2,8,28,3,,,,,,,,,,,,,,,,,,,AFNE05.jpg,AFNE13.jpg,AFSA11.jpg,AFSA12.jpg,AFNE05.jpg,FN,3,num_8,32,num_2,2.51669340034,,,2017_Oct_11_1816,59.9993649658,MAFE4ImagesEEG,001,201717,
AFNE01.JPG,AFNE01.JPG,AFNE01.JPG,AFNE01.JPG,AFNE01.JPG,AFNE01.JPG,,,,,2,9,29,5,,,,,,,,,,,,,,,,,,,AFSA10.jpg,AFSA15.jpg,AFNE20.jpg,AFNE19.jpg,AFSA10.jpg,FS,4,num_8,16,num_8,1.01672210661,,,2017_Oct_11_1816,59.9993649658,MAFE4ImagesEEG,001,201717,
AFNE01.JPG,AFNE01.JPG,AFNE01.JPG,AFNE01.JPG,AFNE01.JPG,AFNE01.JPG,,,,,3,0,30,7,,,,,,,,,,,,,,,,,,,AFNE16.jpg,AFSA20.jpg,AFNE06.jpg,AFSA16.jpg,AFSA16.jpg,FS,4,num_4,32,num_8,2.06670239719,,,2017_Oct_11_1816,59.9993649658,MAFE4ImagesEEG,001,201717,
AFNE01.JPG,AFNE01.JPG,AFNE01.JPG,AFNE01.JPG,AFNE01.JPG,AFNE01.JPG,,,,,3,1,31,2,,,,,,,,,,,,,,,,,,,AFNE20.jpg,AFNE06.jpg,AFSA01.jpg,AFSA06.jpg,AFSA06.jpg,FS,4,num_4,16,num_4,1.26671432867,,,2017_Oct_11_1816,59.9993649658,MAFE4ImagesEEG,001,201717,
AFNE01.JPG,AFNE01.JPG,AFNE01.JPG,AFNE01.JPG,AFNE01.JPG,AFNE01.JPG,,,,,3,2,32,8,,,,,,,,,,,,,,,,,,,AFNE13.jpg,AFSA10.jpg,AFNE20.jpg,AFSA08.jpg,AFSA10.jpg,FS,4,num_6,32,num_8,1.10011581925,,,2017_Oct_11_1816,59.9993649658,MAFE4ImagesEEG,001,201717,
AFNE01.JPG,AFNE01.JPG,AFNE01.JPG,AFNE01.JPG,AFNE01.JPG,AFNE01.JPG,,,,,3,3,33,9,,,,,,,,,,,,,,,,,,,AFNE03.jpg,AFSA05.jpg,AFNE12.jpg,AFSA04.jpg,AFNE03.jpg,FN,3,num_8,32,num_4,1.80006280087,,,2017_Oct_11_1816,59.9993649658,MAFE4ImagesEEG,001,201717,
AFNE01.JPG,AFNE01.JPG,AFNE01.JPG,AFNE01.JPG,AFNE01.JPG,AFNE01.JPG,,,,,3,4,34,6,,,,,,,,,,,,,,,,,,,AFNE11.jpg,AFNE06.jpg,AFSA07.jpg,AFSA18.jpg,AFSA07.jpg,FS,4,num_2,32,num_8,1.63334208948,,,2017_Oct_11_1816,59.9993649658,MAFE4ImagesEEG,001,201717,
AFNE01.JPG,AFNE01.JPG,AFNE01.JPG,AFNE01.JPG,AFNE01.JPG,AFNE01.JPG,,,,,3,5,35,1,,,,,,,,,,,,,,,,,,,AFSA03.jpg,AFNE13.jpg,AFSA06.jpg,AFNE01.jpg,AFNE01.jpg,FN,3,num_4,32,num_8,3.01657039649,,,2017_Oct_11_1816,59.9993649658,MAFE4ImagesEEG,001,201717,
AFNE01.JPG,AFNE01.JPG,AFNE01.JPG,AFNE01.JPG,AFNE01.JPG,AFNE01.JPG,,,,,3,6,36,3,,,,,,,,,,,,,,,,,,,AFSA20.jpg,AFNE16.jpg,AFSA09.jpg,AFNE20.jpg,AFNE16.jpg,FN,3,num_6,32,num_2,2.71666812606,,,2017_Oct_11_1816,59.9993649658,MAFE4ImagesEEG,001,201717,
AFNE01.JPG,AFNE01.JPG,AFNE01.JPG,AFNE01.JPG,AFNE01.JPG,AFNE01.JPG,,,,,3,7,37,4,,,,,,,,,,,,,,,,,,,AFNE02.jpg,AFNE20.jpg,AFSA04.jpg,AFSA09.jpg,AFSA09.jpg,FS,4,num_4,32,num_2,2.68330634315,,,2017_Oct_11_1816,59.9993649658,MAFE4ImagesEEG,001,201717,
AFNE01.JPG,AFNE01.JPG,AFNE01.JPG,AFNE01.JPG,AFNE01.JPG,AFNE01.JPG,,,,,3,8,38,0,,,,,,,,,,,,,,,,,,,AFNE05.jpg,AFSA14.jpg,AFNE19.jpg,AFSA03.jpg,AFNE19.jpg,FN,3,num_2,32,num_8,1.4001127081,,,2017_Oct_11_1816,59.9993649658,MAFE4ImagesEEG,001,201717,
AFNE01.JPG,AFNE01.JPG,AFNE01.JPG,AFNE01.JPG,AFNE01.JPG,AFNE01.JPG,,,,,3,9,39,5,,,,,,,,,,,,,,,,,,,AFNE20.jpg,AFSA05.jpg,AFSA02.jpg,AFNE17.jpg,AFSA02.jpg,FS,4,num_2,32,num_4,1.11672438378,,,2017_Oct_11_1816,59.9993649658,MAFE4ImagesEEG,001,201717,
AFNE01.JPG,AFNE01.JPG,AFNE01.JPG,AFNE01.JPG,AFNE01.JPG,AFNE01.JPG,,,,,4,0,40,3,,,,,,,,,,,,,,,,,,,AFNE02.jpg,AFNE04.jpg,AFSA19.jpg,AFSA18.jpg,AFNE02.jpg,FN,3,num_8,32,num_4,2.68330153194,,,2017_Oct_11_1816,59.9993649658,MAFE4ImagesEEG,001,201717,
AFNE01.JPG,AFNE01.JPG,AFNE01.JPG,AFNE01.JPG,AFNE01.JPG,AFNE01.JPG,,,,,4,1,41,2,,,,,,,,,,,,,,,,,,,AFNE07.jpg,AFSA01.jpg,AFSA08.jpg,AFNE14.jpg,AFSA01.jpg,FS,4,num_6,16,num_6,1.51674568094,,,2017_Oct_11_1816,59.9993649658,MAFE4ImagesEEG,001,201717,
AFNE01.JPG,AFNE01.JPG,AFNE01.JPG,AFNE01.JPG,AFNE01.JPG,AFNE01.JPG,,,,,4,2,42,1,,,,,,,,,,,,,,,,,,,AFSA04.jpg,AFNE14.jpg,AFSA03.jpg,AFNE18.jpg,AFNE14.jpg,FN,3,num_6,32,num_4,1.51672771957,,,2017_Oct_11_1816,59.9993649658,MAFE4ImagesEEG,001,201717,
AFNE01.JPG,AFNE01.JPG,AFNE01.JPG,AFNE01.JPG,AFNE01.JPG,AFNE01.JPG,,,,,4,3,43,9,,,,,,,,,,,,,,,,,,,AFSA13.jpg,AFNE12.jpg,AFSA08.jpg,AFNE06.jpg,AFSA08.jpg,FS,4,num_2,48,None,,,,2017_Oct_11_1816,59.9993649658,MAFE4ImagesEEG,001,201717,
AFNE01.JPG,AFNE01.JPG,AFNE01.JPG,AFNE01.JPG,AFNE01.JPG,AFNE01.JPG,,,,,4,4,44,6,,,,,,,,,,,,,,,,,,,AFSA04.jpg,AFNE16.jpg,AFNE02.jpg,AFSA18.jpg,AFNE02.jpg,FN,3,num_2,32,num_8,0.916819258826,,,2017_Oct_11_1816,59.9993649658,MAFE4ImagesEEG,001,201717,
AFNE01.JPG,AFNE01.JPG,AFNE01.JPG,AFNE01.JPG,AFNE01.JPG,AFNE01.JPG,,,,,4,5,45,5,,,,,,,,,,,,,,,,,,,AFSA12.jpg,AFNE02.jpg,AFNE03.jpg,AFSA14.jpg,AFSA12.jpg,FS,4,num_8,32,num_4,1.26679226849,,,2017_Oct_11_1816,59.9993649658,MAFE4ImagesEEG,001,201717,
AFNE01.JPG,AFNE01.JPG,AFNE01.JPG,AFNE01.JPG,AFNE01.JPG,AFNE01.JPG,,,,,4,6,46,8,,,,,,,,,,,,,,,,,,,AFSA04.jpg,AFNE07.jpg,AFSA05.jpg,AFNE05.jpg,AFNE07.jpg,FN,3,num_6,32,num_8,0.816766625387,,,2017_Oct_11_1816,59.9993649658,MAFE4ImagesEEG,001,201717,
AFNE01.JPG,AFNE01.JPG,AFNE01.JPG,AFNE01.JPG,AFNE01.JPG,AFNE01.JPG,,,,,4,7,47,7,,,,,,,,,,,,,,,,,,,AFSA01.jpg,AFNE16.jpg,AFNE07.jpg,AFSA09.jpg,AFSA09.jpg,FS,4,num_4,32,num_6,2.05002166599,,,2017_Oct_11_1816,59.9993649658,MAFE4ImagesEEG,001,201717,
AFNE01.JPG,AFNE01.JPG,AFNE01.JPG,AFNE01.JPG,AFNE01.JPG,AFNE01.JPG,,,,,4,8,48,4,,,,,,,,,,,,,,,,,,,AFNE16.jpg,AFSA15.jpg,AFSA02.jpg,AFNE05.jpg,AFNE05.jpg,FN,3,num_4,32,num_8,1.60005696351,,,2017_Oct_11_1816,59.9993649658,MAFE4ImagesEEG,001,201717,
AFNE01.JPG,AFNE01.JPG,AFNE01.JPG,AFNE01.JPG,AFNE01.JPG,AFNE01.JPG,,,,,4,9,49,0,,,,,,,,,,,,,,,,,,,AFSA04.jpg,AFNE16.jpg,AFSA08.jpg,AFNE01.jpg,AFNE01.jpg,FN,3,num_4,16,num_4,3.18325293984,,,2017_Oct_11_1816,59.9993649658,MAFE4ImagesEEG,001,201717,
AFNE01.JPG,AFNE01.JPG,AFNE01.JPG,AFNE01.JPG,AFNE01.JPG,AFNE01.JPG,,,,,5,0,50,1,,,,,,,,,,,,,,,,,,,AFNE02.jpg,AFNE19.jpg,AFSA11.jpg,AFSA06.jpg,AFNE19.jpg,FN,3,num_6,16,num_6,2.55002118496,,,2017_Oct_11_1816,59.9993649658,MAFE4ImagesEEG,001,201717,
AFNE01.JPG,AFNE01.JPG,AFNE01.JPG,AFNE01.JPG,AFNE01.JPG,AFNE01.JPG,,,,,5,1,51,5,,,,,,,,,,,,,,,,,,,AFNE08.jpg,AFSA05.jpg,AFNE06.jpg,AFSA06.jpg,AFNE08.jpg,FN,3,num_8,16,num_8,0.866813309025,,,2017_Oct_11_1816,59.9993649658,MAFE4ImagesEEG,001,201717,
AFNE01.JPG,AFNE01.JPG,AFNE01.JPG,AFNE01.JPG,AFNE01.JPG,AFNE01.JPG,,,,,5,2,52,2,,,,,,,,,,,,,,,,,,,AFNE20.jpg,AFSA04.jpg,AFSA08.jpg,AFNE13.jpg,AFSA04.jpg,FS,4,num_6,32,num_8,2.83337166172,,,2017_Oct_11_1816,59.9993649658,MAFE4ImagesEEG,001,201717,
AFNE01.JPG,AFNE01.JPG,AFNE01.JPG,AFNE01.JPG,AFNE01.JPG,AFNE01.JPG,,,,,5,3,53,7,,,,,,,,,,,,,,,,,,,AFNE16.jpg,AFSA10.jpg,AFNE05.jpg,AFSA15.jpg,AFNE05.jpg,FN,3,num_2,16,num_2,3.41644383257,,,2017_Oct_11_1816,59.9993649658,MAFE4ImagesEEG,001,201717,
AFNE01.JPG,AFNE01.JPG,AFNE01.JPG,AFNE01.JPG,AFNE01.JPG,AFNE01.JPG,,,,,5,4,54,3,,,,,,,,,,,,,,,,,,,AFSA13.jpg,AFSA15.jpg,AFNE10.jpg,AFNE09.jpg,AFSA15.jpg,FS,4,num_6,32,num_4,1.43340713566,,,2017_Oct_11_1816,59.9993649658,MAFE4ImagesEEG,001,201717,
AFNE01.JPG,AFNE01.JPG,AFNE01.JPG,AFNE01.JPG,AFNE01.JPG,AFNE01.JPG,,,,,5,5,55,6,,,,,,,,,,,,,,,,,,,AFSA03.jpg,AFSA13.jpg,AFNE13.jpg,AFNE16.jpg,AFSA03.jpg,FS,4,num_8,32,num_4,3.64990446763,,,2017_Oct_11_1816,59.9993649658,MAFE4ImagesEEG,001,201717,
AFNE01.JPG,AFNE01.JPG,AFNE01.JPG,AFNE01.JPG,AFNE01.JPG,AFNE01.JPG,,,,,5,6,56,0,,,,,,,,,,,,,,,,,,,AFNE04.jpg,AFNE03.jpg,AFSA15.jpg,AFSA06.jpg,AFNE04.jpg,FN,3,num_8,32,num_2,1.13343013264,,,2017_Oct_11_1816,59.9993649658,MAFE4ImagesEEG,001,201717,
AFNE01.JPG,AFNE01.JPG,AFNE01.JPG,AFNE01.JPG,AFNE01.JPG,AFNE01.JPG,,,,,5,7,57,8,,,,,,,,,,,,,,,,,,,AFSA08.jpg,AFSA10.jpg,AFNE03.jpg,AFNE05.jpg,AFNE03.jpg,FN,3,num_2,16,num_2,1.60012528102,,,2017_Oct_11_1816,59.9993649658,MAFE4ImagesEEG,001,201717,
AFNE01.JPG,AFNE01.JPG,AFNE01.JPG,AFNE01.JPG,AFNE01.JPG,AFNE01.JPG,,,,,5,8,58,9,,,,,,,,,,,,,,,,,,,AFSA05.jpg,AFNE17.jpg,AFSA17.jpg,AFNE11.jpg,AFNE11.jpg,FN,3,num_4,32,num_2,2.38316223456,,,2017_Oct_11_1816,59.9993649658,MAFE4ImagesEEG,001,201717,
AFNE01.JPG,AFNE01.JPG,AFNE01.JPG,AFNE01.JPG,AFNE01.JPG,AFNE01.JPG,,,,,5,9,59,4,,,,,,,,,,,,,,,,,,,AFNE14.jpg,AFSA06.jpg,AFNE13.jpg,AFSA13.jpg,AFNE13.jpg,FN,3,num_2,32,num_4,1.6501514375,,,2017_Oct_11_1816,59.9993649658,MAFE4ImagesEEG,001,201717,
,,,,,,,,,,,,,,,,,,,,,,,,,,,,,,,,,,,,,,,,,,,space,41.4470693815,2017_Oct_11_1816,59.9993649658,MAFE4ImagesEEG,001,201717,
AFNE01.JPG,AFNE01.JPG,AFNE01.JPG,AFNE01.JPG,AFNE01.JPG,AFNE01.JPG,,,,,,,,,0,0,0,5,,,,,,,,,,,,,,,AMSA18.jpg,AMNE06.jpg,AMSA16.jpg,AMNE15.jpg,AMSA18.jpg,MS,2,num_8,16,num_8,0.550156858051,,,2017_Oct_11_1816,59.9993649658,MAFE4ImagesEEG,001,201717,
AFNE01.JPG,AFNE01.JPG,AFNE01.JPG,AFNE01.JPG,AFNE01.JPG,AFNE01.JPG,,,,,,,,,0,1,1,1,,,,,,,,,,,,,,,AMSA12.jpg,AMNE15.jpg,AMNE14.jpg,AMSA19.jpg,AMSA19.jpg,MS,2,num_4,32,num_2,1.68338139623,,,2017_Oct_11_1816,59.9993649658,MAFE4ImagesEEG,001,201717,
AFNE01.JPG,AFNE01.JPG,AFNE01.JPG,AFNE01.JPG,AFNE01.JPG,AFNE01.JPG,,,,,,,,,0,2,2,9,,,,,,,,,,,,,,,AMNE02.jpg,AMSA10.jpg,AMSA08.jpg,AMNE04.jpg,AMSA10.jpg,MS,2,num_6,32,num_8,1.21673435881,,,2017_Oct_11_1816,59.9993649658,MAFE4ImagesEEG,001,201717,
AFNE01.JPG,AFNE01.JPG,AFNE01.JPG,AFNE01.JPG,AFNE01.JPG,AFNE01.JPG,,,,,,,,,0,3,3,2,,,,,,,,,,,,,,,AMSA12.jpg,AMNE04.jpg,AMSA19.jpg,AMNE15.jpg,AMSA19.jpg,MS,2,num_2,32,num_8,2.01669997559,,,2017_Oct_11_1816,59.9993649658,MAFE4ImagesEEG,001,201717,
AFNE01.JPG,AFNE01.JPG,AFNE01.JPG,AFNE01.JPG,AFNE01.JPG,AFNE01.JPG,,,,,,,,,0,4,4,4,,,,,,,,,,,,,,,AMNE11.jpg,AMSA02.jpg,AMNE18.jpg,AMSA11.jpg,AMNE11.jpg,MN,1,num_8,16,num_8,0.81677528529,,,2017_Oct_11_1816,59.9993649658,MAFE4ImagesEEG,001,201717,
AFNE01.JPG,AFNE01.JPG,AFNE01.JPG,AFNE01.JPG,AFNE01.JPG,AFNE01.JPG,,,,,,,,,0,5,5,6,,,,,,,,,,,,,,,AMNE06.jpg,AMSA18.jpg,AMSA13.jpg,AMNE17.jpg,AMSA13.jpg,MS,2,num_2,32,num_4,1.21674013219,,,2017_Oct_11_1816,59.9993649658,MAFE4ImagesEEG,001,201717,
AFNE01.JPG,AFNE01.JPG,AFNE01.JPG,AFNE01.JPG,AFNE01.JPG,AFNE01.JPG,,,,,,,,,0,6,6,8,,,,,,,,,,,,,,,AMNE09.jpg,AMNE07.jpg,AMSA01.jpg,AMSA17.jpg,AMNE07.jpg,MN,1,num_6,32,num_4,1.58351382986,,,2017_Oct_11_1816,59.9993649658,MAFE4ImagesEEG,001,201717,
AFNE01.JPG,AFNE01.JPG,AFNE01.JPG,AFNE01.JPG,AFNE01.JPG,AFNE01.JPG,,,,,,,,,0,7,7,0,,,,,,,,,,,,,,,AMSA07.jpg,AMSA12.jpg,AMNE20.jpg,AMNE07.jpg,AMSA12.jpg,MS,2,num_6,16,num_6,0.966762664146,,,2017_Oct_11_1816,59.9993649658,MAFE4ImagesEEG,001,201717,
AFNE01.JPG,AFNE01.JPG,AFNE01.JPG,AFNE01.JPG,AFNE01.JPG,AFNE01.JPG,,,,,,,,,0,8,8,3,,,,,,,,,,,,,,,AMSA15.jpg,AMNE20.jpg,AMNE02.jpg,AMSA07.jpg,AMNE20.jpg,MN,1,num_6,16,num_6,0.983438904863,,,2017_Oct_11_1816,59.9993649658,MAFE4ImagesEEG,001,201717,
AFNE01.JPG,AFNE01.JPG,AFNE01.JPG,AFNE01.JPG,AFNE01.JPG,AFNE01.JPG,,,,,,,,,0,9,9,7,,,,,,,,,,,,,,,AMNE07.jpg,AMNE02.jpg,AMSA14.jpg,AMSA16.jpg,AMNE02.jpg,MN,1,num_6,32,num_8,1.1334233972,,,2017_Oct_11_1816,59.9993649658,MAFE4ImagesEEG,001,201717,
AFNE01.JPG,AFNE01.JPG,AFNE01.JPG,AFNE01.JPG,AFNE01.JPG,AFNE01.JPG,,,,,,,,,1,0,10,3,,,,,,,,,,,,,,,AMSA17.jpg,AMNE19.jpg,AMSA05.jpg,AMNE08.jpg,AMSA05.jpg,MS,2,num_2,32,num_4,1.95003446343,,,2017_Oct_11_1816,59.9993649658,MAFE4ImagesEEG,001,201717,
AFNE01.JPG,AFNE01.JPG,AFNE01.JPG,AFNE01.JPG,AFNE01.JPG,AFNE01.JPG,,,,,,,,,1,1,11,2,,,,,,,,,,,,,,,AMSA05.jpg,AMSA20.jpg,AMNE08.jpg,AMNE03.jpg,AMNE08.jpg,MN,1,num_2,16,num_2,2.15001271735,,,2017_Oct_11_1816,59.9993649658,MAFE4ImagesEEG,001,201717,
AFNE01.JPG,AFNE01.JPG,AFNE01.JPG,AFNE01.JPG,AFNE01.JPG,AFNE01.JPG,,,,,,,,,1,2,12,1,,,,,,,,,,,,,,,AMNE13.jpg,AMNE04.jpg,AMSA01.jpg,AMSA17.jpg,AMNE13.jpg,MN,1,num_8,32,num_4,1.54992913245,,,2017_Oct_11_1816,59.9993649658,MAFE4ImagesEEG,001,201717,
AFNE01.JPG,AFNE01.JPG,AFNE01.JPG,AFNE01.JPG,AFNE01.JPG,AFNE01.JPG,,,,,,,,,1,3,13,9,,,,,,,,,,,,,,,AMNE17.jpg,AMSA18.jpg,AMSA08.jpg,AMNE02.jpg,AMNE02.jpg,MN,1,num_4,32,num_6,1.20008441887,,,2017_Oct_11_1816,59.9993649658,MAFE4ImagesEEG,001,201717,
AFNE01.JPG,AFNE01.JPG,AFNE01.JPG,AFNE01.JPG,AFNE01.JPG,AFNE01.JPG,,,,,,,,,1,4,14,6,,,,,,,,,,,,,,,AMNE14.jpg,AMSA17.jpg,AMNE07.jpg,AMSA11.jpg,AMSA17.jpg,MS,2,num_6,32,num_4,1.40010276507,,,2017_Oct_11_1816,59.9993649658,MAFE4ImagesEEG,001,201717,
AFNE01.JPG,AFNE01.JPG,AFNE01.JPG,AFNE01.JPG,AFNE01.JPG,AFNE01.JPG,,,,,,,,,1,5,15,5,,,,,,,,,,,,,,,AMNE20.jpg,AMNE08.jpg,AMSA01.jpg,AMSA04.jpg,AMSA04.jpg,MS,2,num_4,16,num_4,1.23340642999,,,2017_Oct_11_1816,59.9993649658,MAFE4ImagesEEG,001,201717,
AFNE01.JPG,AFNE01.JPG,AFNE01.JPG,AFNE01.JPG,AFNE01.JPG,AFNE01.JPG,,,,,,,,,1,6,16,0,,,,,,,,,,,,,,,AMSA11.jpg,AMNE08.jpg,AMSA02.jpg,AMNE16.jpg,AMSA11.jpg,MS,2,num_8,32,num_2,1.80010353494,,,2017_Oct_11_1816,59.9993649658,MAFE4ImagesEEG,001,201717,
AFNE01.JPG,AFNE01.JPG,AFNE01.JPG,AFNE01.JPG,AFNE01.JPG,AFNE01.JPG,,,,,,,,,1,7,17,8,,,,,,,,,,,,,,,AMNE10.jpg,AMSA06.jpg,AMNE18.jpg,AMSA02.jpg,AMSA06.jpg,MS,2,num_6,16,num_6,1.76668241492,,,2017_Oct_11_1816,59.9993649658,MAFE4ImagesEEG,001,201717,
AFNE01.JPG,AFNE01.JPG,AFNE01.JPG,AFNE01.JPG,AFNE01.JPG,AFNE01.JPG,,,,,,,,,1,8,18,7,,,,,,,,,,,,,,,AMNE01.jpg,AMSA15.jpg,AMNE05.jpg,AMSA17.jpg,AMSA17.jpg,MS,2,num_4,48,None,,,,2017_Oct_11_1816,59.9993649658,MAFE4ImagesEEG,001,201717,
AFNE01.JPG,AFNE01.JPG,AFNE01.JPG,AFNE01.JPG,AFNE01.JPG,AFNE01.JPG,,,,,,,,,1,9,19,4,,,,,,,,,,,,,,,AMNE11.jpg,AMSA02.jpg,AMSA03.jpg,AMNE09.jpg,AMSA03.jpg,MS,2,num_2,32,num_6,1.13342083117,,,2017_Oct_11_1816,59.9993649658,MAFE4ImagesEEG,001,201717,
AFNE01.JPG,AFNE01.JPG,AFNE01.JPG,AFNE01.JPG,AFNE01.JPG,AFNE01.JPG,,,,,,,,,2,0,20,0,,,,,,,,,,,,,,,AMNE15.jpg,AMSA02.jpg,AMNE12.jpg,AMSA01.jpg,AMNE12.jpg,MN,1,num_2,32,num_8,1.31676999317,,,2017_Oct_11_1816,59.9993649658,MAFE4ImagesEEG,001,201717,
AFNE01.JPG,AFNE01.JPG,AFNE01.JPG,AFNE01.JPG,AFNE01.JPG,AFNE01.JPG,,,,,,,,,2,1,21,9,,,,,,,,,,,,,,,AMNE09.jpg,AMSA02.jpg,AMNE01.jpg,AMSA09.jpg,AMNE01.jpg,MN,1,num_2,32,num_6,3.28352014837,,,2017_Oct_11_1816,59.9993649658,MAFE4ImagesEEG,001,201717,
AFNE01.JPG,AFNE01.JPG,AFNE01.JPG,AFNE01.JPG,AFNE01.JPG,AFNE01.JPG,,,,,,,,,2,2,22,4,,,,,,,,,,,,,,,AMSA03.jpg,AMSA10.jpg,AMNE16.jpg,AMNE09.jpg,AMSA10.jpg,MS,2,num_6,32,num_4,1.55006705073,,,2017_Oct_11_1816,59.9993649658,MAFE4ImagesEEG,001,201717,
AFNE01.JPG,AFNE01.JPG,AFNE01.JPG,AFNE01.JPG,AFNE01.JPG,AFNE01.JPG,,,,,,,,,2,3,23,2,,,,,,,,,,,,,,,AMSA19.jpg,AMNE12.jpg,AMSA15.jpg,AMNE13.jpg,AMNE12.jpg,MN,1,num_6,32,num_8,1.81669830764,,,2017_Oct_11_1816,59.9993649658,MAFE4ImagesEEG,001,201717,
AFNE01.JPG,AFNE01.JPG,AFNE01.JPG,AFNE01.JPG,AFNE01.JPG,AFNE01.JPG,,,,,,,,,2,4,24,3,,,,,,,,,,,,,,,AMNE17.jpg,AMSA04.jpg,AMSA09.jpg,AMNE08.jpg,AMNE08.jpg,MN,1,num_4,16,num_4,1.13341569935,,,2017_Oct_11_1816,59.9993649658,MAFE4ImagesEEG,001,201717,
AFNE01.JPG,AFNE01.JPG,AFNE01.JPG,AFNE01.JPG,AFNE01.JPG,AFNE01.JPG,,,,,,,,,2,5,25,5,,,,,,,,,,,,,,,AMNE15.jpg,AMSA07.jpg,AMNE12.jpg,AMSA10.jpg,AMSA10.jpg,MS,2,num_4,32,num_8,0.900174450595,,,2017_Oct_11_1816,59.9993649658,MAFE4ImagesEEG,001,201717,
AFNE01.JPG,AFNE01.JPG,AFNE01.JPG,AFNE01.JPG,AFNE01.JPG,AFNE01.JPG,,,,,,,,,2,6,26,7,,,,,,,,,,,,,,,AMNE11.jpg,AMNE19.jpg,AMSA01.jpg,AMSA11.jpg,AMSA01.jpg,MS,2,num_2,32,num_8,1.38347335241,,,2017_Oct_11_1816,59.9993649658,MAFE4ImagesEEG,001,201717,
AFNE01.JPG,AFNE01.JPG,AFNE01.JPG,AFNE01.JPG,AFNE01.JPG,AFNE01.JPG,,,,,,,,,2,7,27,1,,,,,,,,,,,,,,,AMSA04.jpg,AMSA05.jpg,AMNE10.jpg,AMNE13.jpg,AMNE10.jpg,MN,1,num_2,32,num_6,1.45006798091,,,2017_Oct_11_1816,59.9993649658,MAFE4ImagesEEG,001,201717,
AFNE01.JPG,AFNE01.JPG,AFNE01.JPG,AFNE01.JPG,AFNE01.JPG,AFNE01.JPG,,,,,,,,,2,8,28,6,,,,,,,,,,,,,,,AMNE10.jpg,AMSA09.jpg,AMNE12.jpg,AMSA02.jpg,AMNE12.jpg,MN,1,num_2,16,num_2,1.31674048502,,,2017_Oct_11_1816,59.9993649658,MAFE4ImagesEEG,001,201717,
AFNE01.JPG,AFNE01.JPG,AFNE01.JPG,AFNE01.JPG,AFNE01.JPG,AFNE01.JPG,,,,,,,,,2,9,29,8,,,,,,,,,,,,,,,AMNE19.jpg,AMSA08.jpg,AMNE08.jpg,AMSA17.jpg,AMSA17.jpg,MS,2,num_4,16,num_4,1.26673261088,,,2017_Oct_11_1816,59.9993649658,MAFE4ImagesEEG,001,201717,
AFNE01.JPG,AFNE01.JPG,AFNE01.JPG,AFNE01.JPG,AFNE01.JPG,AFNE01.JPG,,,,,,,,,3,0,30,4,,,,,,,,,,,,,,,AMNE07.jpg,AMSA15.jpg,AMNE03.jpg,AMSA17.jpg,AMNE07.jpg,MN,1,num_8,32,num_4,3.06669341633,,,2017_Oct_11_1816,59.9993649658,MAFE4ImagesEEG,001,201717,
AFNE01.JPG,AFNE01.JPG,AFNE01.JPG,AFNE01.JPG,AFNE01.JPG,AFNE01.JPG,,,,,,,,,3,1,31,3,,,,,,,,,,,,,,,AMSA10.jpg,AMNE14.jpg,AMNE12.jpg,AMSA15.jpg,AMNE12.jpg,MN,1,num_2,32,num_8,2.63330520433,,,2017_Oct_11_1816,59.9993649658,MAFE4ImagesEEG,001,201717,
AFNE01.JPG,AFNE01.JPG,AFNE01.JPG,AFNE01.JPG,AFNE01.JPG,AFNE01.JPG,,,,,,,,,3,2,32,0,,,,,,,,,,,,,,,AMSA11.jpg,AMNE06.jpg,AMNE19.jpg,AMSA20.jpg,AMNE19.jpg,MN,1,num_2,32,num_6,0.916747092269,,,2017_Oct_11_1816,59.9993649658,MAFE4ImagesEEG,001,201717,
AFNE01.JPG,AFNE01.JPG,AFNE01.JPG,AFNE01.JPG,AFNE01.JPG,AFNE01.JPG,,,,,,,,,3,3,33,6,,,,,,,,,,,,,,,AMNE09.jpg,AMSA01.jpg,AMNE15.jpg,AMSA15.jpg,AMNE09.jpg,MN,1,num_8,16,num_8,1.1334233972,,,2017_Oct_11_1816,59.9993649658,MAFE4ImagesEEG,001,201717,
AFNE01.JPG,AFNE01.JPG,AFNE01.JPG,AFNE01.JPG,AFNE01.JPG,AFNE01.JPG,,,,,,,,,3,4,34,1,,,,,,,,,,,,,,,AMSA17.jpg,AMNE09.jpg,AMSA07.jpg,AMNE13.jpg,AMSA07.jpg,MS,2,num_2,16,num_2,4.78315562732,,,2017_Oct_11_1816,59.9993649658,MAFE4ImagesEEG,001,201717,
AFNE01.JPG,AFNE01.JPG,AFNE01.JPG,AFNE01.JPG,AFNE01.JPG,AFNE01.JPG,,,,,,,,,3,5,35,8,,,,,,,,,,,,,,,AMNE15.jpg,AMSA13.jpg,AMNE12.jpg,AMSA07.jpg,AMNE12.jpg,MN,1,num_2,16,num_2,2.50001587672,,,2017_Oct_11_1816,59.9993649658,MAFE4ImagesEEG,001,201717,
AFNE01.JPG,AFNE01.JPG,AFNE01.JPG,AFNE01.JPG,AFNE01.JPG,AFNE01.JPG,,,,,,,,,3,6,36,7,,,,,,,,,,,,,,,AMSA18.jpg,AMSA08.jpg,AMNE10.jpg,AMNE07.jpg,AMSA08.jpg,MS,2,num_6,32,num_4,1.06660425069,,,2017_Oct_11_1816,59.9993649658,MAFE4ImagesEEG,001,201717,
AFNE01.JPG,AFNE01.JPG,AFNE01.JPG,AFNE01.JPG,AFNE01.JPG,AFNE01.JPG,,,,,,,,,3,7,37,5,,,,,,,,,,,,,,,AMNE15.jpg,AMSA04.jpg,AMSA06.jpg,AMNE10.jpg,AMSA04.jpg,MS,2,num_6,16,num_6,1.03342721402,,,2017_Oct_11_1816,59.9993649658,MAFE4ImagesEEG,001,201717,
AFNE01.JPG,AFNE01.JPG,AFNE01.JPG,AFNE01.JPG,AFNE01.JPG,AFNE01.JPG,,,,,,,,,3,8,38,2,,,,,,,,,,,,,,,AMNE14.jpg,AMNE17.jpg,AMSA01.jpg,AMSA16.jpg,AMNE14.jpg,MN,1,num_8,16,num_8,1.45008273493,,,2017_Oct_11_1816,59.9993649658,MAFE4ImagesEEG,001,201717,
AFNE01.JPG,AFNE01.JPG,AFNE01.JPG,AFNE01.JPG,AFNE01.JPG,AFNE01.JPG,,,,,,,,,3,9,39,9,,,,,,,,,,,,,,,AMSA07.jpg,AMSA03.jpg,AMNE08.jpg,AMNE05.jpg,AMNE08.jpg,MN,1,num_2,16,num_2,1.55003369378,,,2017_Oct_11_1816,59.9993649658,MAFE4ImagesEEG,001,201717,
AFNE01.JPG,AFNE01.JPG,AFNE01.JPG,AFNE01.JPG,AFNE01.JPG,AFNE01.JPG,,,,,,,,,4,0,40,6,,,,,,,,,,,,,,,AMSA01.jpg,AMNE04.jpg,AMSA12.jpg,AMNE19.jpg,AMSA01.jpg,MS,2,num_8,32,num_6,2.08348351996,,,2017_Oct_11_1816,59.9993649658,MAFE4ImagesEEG,001,201717,
AFNE01.JPG,AFNE01.JPG,AFNE01.JPG,AFNE01.JPG,AFNE01.JPG,AFNE01.JPG,,,,,,,,,4,1,41,5,,,,,,,,,,,,,,,AMNE14.jpg,AMSA06.jpg,AMNE08.jpg,AMSA03.jpg,AMNE08.jpg,MN,1,num_2,32,num_4,1.30006809311,,,2017_Oct_11_1816,59.9993649658,MAFE4ImagesEEG,001,201717,
AFNE01.JPG,AFNE01.JPG,AFNE01.JPG,AFNE01.JPG,AFNE01.JPG,AFNE01.JPG,,,,,,,,,4,2,42,0,,,,,,,,,,,,,,,AMSA18.jpg,AMNE18.jpg,AMSA05.jpg,AMNE14.jpg,AMNE18.jpg,MN,1,num_6,32,num_4,3.63326864014,,,2017_Oct_11_1816,59.9993649658,MAFE4ImagesEEG,001,201717,
AFNE01.JPG,AFNE01.JPG,AFNE01.JPG,AFNE01.JPG,AFNE01.JPG,AFNE01.JPG,,,,,,,,,4,3,43,7,,,,,,,,,,,,,,,AMNE05.jpg,AMSA19.jpg,AMSA02.jpg,AMNE14.jpg,AMNE14.jpg,MN,1,num_4,32,num_8,0.916769864853,,,2017_Oct_11_1816,59.9993649658,MAFE4ImagesEEG,001,201717,
AFNE01.JPG,AFNE01.JPG,AFNE01.JPG,AFNE01.JPG,AFNE01.JPG,AFNE01.JPG,,,,,,,,,4,4,44,9,,,,,,,,,,,,,,,AMNE02.jpg,AMSA15.jpg,AMSA08.jpg,AMNE12.jpg,AMNE12.jpg,MN,1,num_4,16,num_4,1.53340267728,,,2017_Oct_11_1816,59.9993649658,MAFE4ImagesEEG,001,201717,
AFNE01.JPG,AFNE01.JPG,AFNE01.JPG,AFNE01.JPG,AFNE01.JPG,AFNE01.JPG,,,,,,,,,4,5,45,1,,,,,,,,,,,,,,,AMNE04.jpg,AMSA17.jpg,AMSA20.jpg,AMNE01.jpg,AMNE04.jpg,MN,1,num_8,32,num_4,3.19998081971,,,2017_Oct_11_1816,59.9993649658,MAFE4ImagesEEG,001,201717,
AFNE01.JPG,AFNE01.JPG,AFNE01.JPG,AFNE01.JPG,AFNE01.JPG,AFNE01.JPG,,,,,,,,,4,6,46,3,,,,,,,,,,,,,,,AMSA01.jpg,AMNE12.jpg,AMSA06.jpg,AMNE02.jpg,AMNE02.jpg,MN,1,num_4,32,num_8,0.866756538046,,,2017_Oct_11_1816,59.9993649658,MAFE4ImagesEEG,001,201717,
AFNE01.JPG,AFNE01.JPG,AFNE01.JPG,AFNE01.JPG,AFNE01.JPG,AFNE01.JPG,,,,,,,,,4,7,47,8,,,,,,,,,,,,,,,AMNE01.jpg,AMSA07.jpg,AMSA08.jpg,AMNE14.jpg,AMNE14.jpg,MN,1,num_4,32,num_6,1.7500132306,,,2017_Oct_11_1816,59.9993649658,MAFE4ImagesEEG,001,201717,
AFNE01.JPG,AFNE01.JPG,AFNE01.JPG,AFNE01.JPG,AFNE01.JPG,AFNE01.JPG,,,,,,,,,4,8,48,4,,,,,,,,,,,,,,,AMSA02.jpg,AMNE12.jpg,AMNE05.jpg,AMSA20.jpg,AMSA20.jpg,MS,2,num_4,16,num_4,0.900159055018,,,2017_Oct_11_1816,59.9993649658,MAFE4ImagesEEG,001,201717,
AFNE01.JPG,AFNE01.JPG,AFNE01.JPG,AFNE01.JPG,AFNE01.JPG,AFNE01.JPG,,,,,,,,,4,9,49,2,,,,,,,,,,,,,,,AMNE20.jpg,AMSA14.jpg,AMNE10.jpg,AMSA16.jpg,AMNE20.jpg,MN,1,num_8,16,num_8,1.40009025636,,,2017_Oct_11_1816,59.9993649658,MAFE4ImagesEEG,001,201717,
AFNE01.JPG,AFNE01.JPG,AFNE01.JPG,AFNE01.JPG,AFNE01.JPG,AFNE01.JPG,,,,,,,,,5,0,50,1,,,,,,,,,,,,,,,AMNE09.jpg,AMSA18.jpg,AMNE12.jpg,AMSA05.jpg,AMNE09.jpg,MN,1,num_8,16,num_8,1.50005789357,,,2017_Oct_11_1816,59.9993649658,MAFE4ImagesEEG,001,201717,
AFNE01.JPG,AFNE01.JPG,AFNE01.JPG,AFNE01.JPG,AFNE01.JPG,AFNE01.JPG,,,,,,,,,5,1,51,3,,,,,,,,,,,,,,,AMSA18.jpg,AMNE14.jpg,AMSA15.jpg,AMNE11.jpg,AMSA18.jpg,MS,2,num_8,16,num_8,2.0332270721,,,2017_Oct_11_1816,59.9993649658,MAFE4ImagesEEG,001,201717,
AFNE01.JPG,AFNE01.JPG,AFNE01.JPG,AFNE01.JPG,AFNE01.JPG,AFNE01.JPG,,,,,,,,,5,2,52,9,,,,,,,,,,,,,,,AMNE17.jpg,AMSA15.jpg,AMNE07.jpg,AMSA13.jpg,AMSA15.jpg,MS,2,num_6,16,num_6,1.26656614663,,,2017_Oct_11_1816,59.9993649658,MAFE4ImagesEEG,001,201717,
AFNE01.JPG,AFNE01.JPG,AFNE01.JPG,AFNE01.JPG,AFNE01.JPG,AFNE01.JPG,,,,,,,,,5,3,53,5,,,,,,,,,,,,,,,AMNE08.jpg,AMNE16.jpg,AMSA04.jpg,AMSA14.jpg,AMSA04.jpg,MS,2,num_2,32,num_4,1.00005709182,,,2017_Oct_11_1816,59.9993649658,MAFE4ImagesEEG,001,201717,
AFNE01.JPG,AFNE01.JPG,AFNE01.JPG,AFNE01.JPG,AFNE01.JPG,AFNE01.JPG,,,,,,,,,5,4,54,2,,,,,,,,,,,,,,,AMNE14.jpg,AMNE08.jpg,AMSA04.jpg,AMSA08.jpg,AMSA08.jpg,MS,2,num_4,32,num_2,1.25009357592,,,2017_Oct_11_1816,59.9993649658,MAFE4ImagesEEG,001,201717,
AFNE01.JPG,AFNE01.JPG,AFNE01.JPG,AFNE01.JPG,AFNE01.JPG,AFNE01.JPG,,,,,,,,,5,5,55,6,,,,,,,,,,,,,,,AMSA06.jpg,AMNE18.jpg,AMNE08.jpg,AMSA17.jpg,AMSA06.jpg,MS,2,num_8,16,num_8,2.01668393845,,,2017_Oct_11_1816,59.9993649658,MAFE4ImagesEEG,001,201717,
AFNE01.JPG,AFNE01.JPG,AFNE01.JPG,AFNE01.JPG,AFNE01.JPG,AFNE01.JPG,,,,,,,,,5,6,56,7,,,,,,,,,,,,,,,AMSA19.jpg,AMNE19.jpg,AMSA14.jpg,AMNE12.jpg,AMNE19.jpg,MN,1,num_6,16,num_6,0.716768517741,,,2017_Oct_11_1816,59.9993649658,MAFE4ImagesEEG,001,201717,
AFNE01.JPG,AFNE01.JPG,AFNE01.JPG,AFNE01.JPG,AFNE01.JPG,AFNE01.JPG,,,,,,,,,5,7,57,4,,,,,,,,,,,,,,,AMNE06.jpg,AMSA03.jpg,AMSA01.jpg,AMNE17.jpg,AMSA03.jpg,MS,2,num_6,32,num_4,1.19997665007,,,2017_Oct_11_1816,59.9993649658,MAFE4ImagesEEG,001,201717,
AFNE01.JPG,AFNE01.JPG,AFNE01.JPG,AFNE01.JPG,AFNE01.JPG,AFNE01.JPG,,,,,,,,,5,8,58,8,,,,,,,,,,,,,,,AMNE03.jpg,AMSA04.jpg,AMSA10.jpg,AMNE11.jpg,AMNE11.jpg,MN,1,num_4,32,num_2,0.866758141667,,,2017_Oct_11_1816,59.9993649658,MAFE4ImagesEEG,001,201717,
AFNE01.JPG,AFNE01.JPG,AFNE01.JPG,AFNE01.JPG,AFNE01.JPG,AFNE01.JPG,,,,,,,,,5,9,59,0,,,,,,,,,,,,,,,AMNE03.jpg,AMNE14.jpg,AMSA19.jpg,AMSA10.jpg,AMSA19.jpg,MS,2,num_2,16,num_2,1.51677839644,,,2017_Oct_11_1816,59.9993649658,MAFE4ImagesEEG,001,201717,
,,,,,,,,,,,,,,,,,,,,,,,,,,,,,,,,,,,,,,,,,,,space,46.4298959937,2017_Oct_11_1816,59.9993649658,MAFE4ImagesEEG,001,201717,
AFNE01.JPG,AFNE01.JPG,AFNE01.JPG,AFNE01.JPG,AFNE01.JPG,AFNE01.JPG,,,,,,,,,,,,,0,0,0,3,,,,,,,,,,,AFSA14.jpg,AFNE12.jpg,AFSA05.jpg,AFNE13.jpg,AFNE13.jpg,FN,3,num_4,32,num_2,1.0000824302,,,2017_Oct_11_1816,59.9993649658,MAFE4ImagesEEG,001,201717,
AFNE01.JPG,AFNE01.JPG,AFNE01.JPG,AFNE01.JPG,AFNE01.JPG,AFNE01.JPG,,,,,,,,,,,,,0,1,1,7,,,,,,,,,,,AFSA20.jpg,AFSA06.jpg,AFNE06.jpg,AFNE12.jpg,AFSA06.jpg,FS,4,num_6,32,num_8,2.35000829119,,,2017_Oct_11_1816,59.9993649658,MAFE4ImagesEEG,001,201717,
AFNE01.JPG,AFNE01.JPG,AFNE01.JPG,AFNE01.JPG,AFNE01.JPG,AFNE01.JPG,,,,,,,,,,,,,0,2,2,9,,,,,,,,,,,AFNE01.jpg,AFSA01.jpg,AFNE15.jpg,AFSA14.jpg,AFSA14.jpg,FS,4,num_4,32,num_8,1.91663515393,,,2017_Oct_11_1816,59.9993649658,MAFE4ImagesEEG,001,201717,
AFNE01.JPG,AFNE01.JPG,AFNE01.JPG,AFNE01.JPG,AFNE01.JPG,AFNE01.JPG,,,,,,,,,,,,,0,3,3,6,,,,,,,,,,,AFSA16.jpg,AFNE13.jpg,AFNE14.jpg,AFSA06.jpg,AFNE14.jpg,FN,3,num_2,32,num_4,1.80008108309,,,2017_Oct_11_1816,59.9993649658,MAFE4ImagesEEG,001,201717,
AFNE01.JPG,AFNE01.JPG,AFNE01.JPG,AFNE01.JPG,AFNE01.JPG,AFNE01.JPG,,,,,,,,,,,,,0,4,4,4,,,,,,,,,,,AFNE06.jpg,AFSA12.jpg,AFNE14.jpg,AFSA02.jpg,AFNE06.jpg,FN,3,num_8,32,num_6,3.78323869896,,,2017_Oct_11_1816,59.9993649658,MAFE4ImagesEEG,001,201717,
AFNE01.JPG,AFNE01.JPG,AFNE01.JPG,AFNE01.JPG,AFNE01.JPG,AFNE01.JPG,,,,,,,,,,,,,0,5,5,0,,,,,,,,,,,AFNE07.jpg,AFNE04.jpg,AFSA16.jpg,AFSA14.jpg,AFNE07.jpg,FN,3,num_8,16,num_8,4.3331822647,,,2017_Oct_11_1816,59.9993649658,MAFE4ImagesEEG,001,201717,
AFNE01.JPG,AFNE01.JPG,AFNE01.JPG,AFNE01.JPG,AFNE01.JPG,AFNE01.JPG,,,,,,,,,,,,,0,6,6,2,,,,,,,,,,,AFNE16.jpg,AFSA12.jpg,AFSA01.jpg,AFNE17.jpg,AFNE17.jpg,FN,3,num_4,32,num_2,2.69966665481,,,2017_Oct_11_1816,59.9993649658,MAFE4ImagesEEG,001,201717,
AFNE01.JPG,AFNE01.JPG,AFNE01.JPG,AFNE01.JPG,AFNE01.JPG,AFNE01.JPG,,,,,,,,,,,,,0,7,7,1,,,,,,,,,,,AFSA08.jpg,AFNE06.jpg,AFSA16.jpg,AFNE19.jpg,AFNE19.jpg,FN,3,num_4,16,num_4,1.1001235171,,,2017_Oct_11_1816,59.9993649658,MAFE4ImagesEEG,001,201717,
AFNE01.JPG,AFNE01.JPG,AFNE01.JPG,AFNE01.JPG,AFNE01.JPG,AFNE01.JPG,,,,,,,,,,,,,0,8,8,5,,,,,,,,,,,AFSA03.jpg,AFNE13.jpg,AFSA04.jpg,AFNE15.jpg,AFNE13.jpg,FN,3,num_6,16,num_6,1.96671776054,,,2017_Oct_11_1816,59.9993649658,MAFE4ImagesEEG,001,201717,
AFNE01.JPG,AFNE01.JPG,AFNE01.JPG,AFNE01.JPG,AFNE01.JPG,AFNE01.JPG,,,,,,,,,,,,,0,9,9,8,,,,,,,,,,,AFSA11.jpg,AFNE13.jpg,AFNE18.jpg,AFSA13.jpg,AFSA13.jpg,FS,4,num_4,32,num_2,1.38343422208,,,2017_Oct_11_1816,59.9993649658,MAFE4ImagesEEG,001,201717,
AFNE01.JPG,AFNE01.JPG,AFNE01.JPG,AFNE01.JPG,AFNE01.JPG,AFNE01.JPG,,,,,,,,,,,,,1,0,10,2,,,,,,,,,,,AFSA01.jpg,AFNE12.jpg,AFSA05.jpg,AFNE08.jpg,AFSA01.jpg,FS,4,num_8,32,num_2,3.73313139542,,,2017_Oct_11_1816,59.9993649658,MAFE4ImagesEEG,001,201717,
AFNE01.JPG,AFNE01.JPG,AFNE01.JPG,AFNE01.JPG,AFNE01.JPG,AFNE01.JPG,,,,,,,,,,,,,1,1,11,6,,,,,,,,,,,AFSA10.jpg,AFSA16.jpg,AFNE20.jpg,AFNE14.jpg,AFNE20.jpg,FN,3,num_2,32,num_6,2.23334709299,,,2017_Oct_11_1816,59.9993649658,MAFE4ImagesEEG,001,201717,
AFNE01.JPG,AFNE01.JPG,AFNE01.JPG,AFNE01.JPG,AFNE01.JPG,AFNE01.JPG,,,,,,,,,,,,,1,2,12,8,,,,,,,,,,,AFNE05.jpg,AFSA10.jpg,AFNE17.jpg,AFSA13.jpg,AFNE17.jpg,FN,3,num_2,32,num_4,3.98319097282,,,2017_Oct_11_1816,59.9993649658,MAFE4ImagesEEG,001,201717,
AFNE01.JPG,AFNE01.JPG,AFNE01.JPG,AFNE01.JPG,AFNE01.JPG,AFNE01.JPG,,,,,,,,,,,,,1,3,13,0,,,,,,,,,,,AFSA18.jpg,AFNE07.jpg,AFSA08.jpg,AFNE04.jpg,AFSA08.jpg,FS,4,num_2,32,num_8,1.06674537633,,,2017_Oct_11_1816,59.9993649658,MAFE4ImagesEEG,001,201717,
AFNE01.JPG,AFNE01.JPG,AFNE01.JPG,AFNE01.JPG,AFNE01.JPG,AFNE01.JPG,,,,,,,,,,,,,1,4,14,1,,,,,,,,,,,AFSA04.jpg,AFNE04.jpg,AFSA09.jpg,AFNE13.jpg,AFNE13.jpg,FN,3,num_4,32,num_2,1.60040849459,,,2017_Oct_11_1816,59.9993649658,MAFE4ImagesEEG,001,201717,
AFNE01.JPG,AFNE01.JPG,AFNE01.JPG,AFNE01.JPG,AFNE01.JPG,AFNE01.JPG,,,,,,,,,,,,,1,5,15,3,,,,,,,,,,,AFSA03.jpg,AFNE08.jpg,AFSA16.jpg,AFNE10.jpg,AFSA16.jpg,FS,4,num_2,48,None,,,,2017_Oct_11_1816,59.9993649658,MAFE4ImagesEEG,001,201717,
AFNE01.JPG,AFNE01.JPG,AFNE01.JPG,AFNE01.JPG,AFNE01.JPG,AFNE01.JPG,,,,,,,,,,,,,1,6,16,4,,,,,,,,,,,AFNE15.jpg,AFSA11.jpg,AFNE14.jpg,AFSA02.jpg,AFNE14.jpg,FN,3,num_2,32,num_4,1.48336721957,,,2017_Oct_11_1816,59.9993649658,MAFE4ImagesEEG,001,201717,
AFNE01.JPG,AFNE01.JPG,AFNE01.JPG,AFNE01.JPG,AFNE01.JPG,AFNE01.JPG,,,,,,,,,,,,,1,7,17,5,,,,,,,,,,,AFSA18.jpg,AFSA07.jpg,AFNE07.jpg,AFNE20.jpg,AFNE20.jpg,FN,3,num_4,48,None,,,,2017_Oct_11_1816,59.9993649658,MAFE4ImagesEEG,001,201717,
AFNE01.JPG,AFNE01.JPG,AFNE01.JPG,AFNE01.JPG,AFNE01.JPG,AFNE01.JPG,,,,,,,,,,,,,1,8,18,9,,,,,,,,,,,AFNE05.jpg,AFSA09.jpg,AFNE13.jpg,AFSA17.jpg,AFNE13.jpg,FN,3,num_2,32,num_8,4.1164831873,,,2017_Oct_11_1816,59.9993649658,MAFE4ImagesEEG,001,201717,
AFNE01.JPG,AFNE01.JPG,AFNE01.JPG,AFNE01.JPG,AFNE01.JPG,AFNE01.JPG,,,,,,,,,,,,,1,9,19,7,,,,,,,,,,,AFSA18.jpg,AFNE14.jpg,AFNE16.jpg,AFSA10.jpg,AFNE14.jpg,FN,3,num_6,32,num_8,1.10009785788,,,2017_Oct_11_1816,59.9993649658,MAFE4ImagesEEG,001,201717,
AFNE01.JPG,AFNE01.JPG,AFNE01.JPG,AFNE01.JPG,AFNE01.JPG,AFNE01.JPG,,,,,,,,,,,,,2,0,20,0,,,,,,,,,,,AFNE06.jpg,AFSA04.jpg,AFNE15.jpg,AFSA01.jpg,AFNE06.jpg,FN,3,num_8,32,num_6,2.75000296684,,,2017_Oct_11_1816,59.9993649658,MAFE4ImagesEEG,001,201717,
AFNE01.JPG,AFNE01.JPG,AFNE01.JPG,AFNE01.JPG,AFNE01.JPG,AFNE01.JPG,,,,,,,,,,,,,2,1,21,1,,,,,,,,,,,AFSA02.jpg,AFSA06.jpg,AFNE07.jpg,AFNE10.jpg,AFSA02.jpg,FS,4,num_8,32,num_4,2.46663549077,,,2017_Oct_11_1816,59.9993649658,MAFE4ImagesEEG,001,201717,
AFNE01.JPG,AFNE01.JPG,AFNE01.JPG,AFNE01.JPG,AFNE01.JPG,AFNE01.JPG,,,,,,,,,,,,,2,2,22,9,,,,,,,,,,,AFSA13.jpg,AFNE18.jpg,AFSA16.jpg,AFNE07.jpg,AFSA13.jpg,FS,4,num_8,48,None,,,,2017_Oct_11_1816,59.9993649658,MAFE4ImagesEEG,001,201717,
AFNE01.JPG,AFNE01.JPG,AFNE01.JPG,AFNE01.JPG,AFNE01.JPG,AFNE01.JPG,,,,,,,,,,,,,2,3,23,7,,,,,,,,,,,AFNE18.jpg,AFSA13.jpg,AFSA03.jpg,AFNE07.jpg,AFNE07.jpg,FN,3,num_4,48,None,,,,2017_Oct_11_1816,59.9993649658,MAFE4ImagesEEG,001,201717,
AFNE01.JPG,AFNE01.JPG,AFNE01.JPG,AFNE01.JPG,AFNE01.JPG,AFNE01.JPG,,,,,,,,,,,,,2,4,24,5,,,,,,,,,,,AFNE13.jpg,AFSA04.jpg,AFNE19.jpg,AFSA14.jpg,AFNE13.jpg,FN,3,num_8,16,num_8,1.26705046429,,,2017_Oct_11_1816,59.9993649658,MAFE4ImagesEEG,001,201717,
AFNE01.JPG,AFNE01.JPG,AFNE01.JPG,AFNE01.JPG,AFNE01.JPG,AFNE01.JPG,,,,,,,,,,,,,2,5,25,4,,,,,,,,,,,AFNE04.jpg,AFSA02.jpg,AFSA14.jpg,AFNE13.jpg,AFSA14.jpg,FS,4,num_2,32,num_4,0.9834113213,,,2017_Oct_11_1816,59.9993649658,MAFE4ImagesEEG,001,201717,
AFNE01.JPG,AFNE01.JPG,AFNE01.JPG,AFNE01.JPG,AFNE01.JPG,AFNE01.JPG,,,,,,,,,,,,,2,6,26,8,,,,,,,,,,,AFNE15.jpg,AFSA05.jpg,AFSA10.jpg,AFNE06.jpg,AFNE06.jpg,FN,3,num_4,32,num_2,2.70001337491,,,2017_Oct_11_1816,59.9993649658,MAFE4ImagesEEG,001,201717,
AFNE01.JPG,AFNE01.JPG,AFNE01.JPG,AFNE01.JPG,AFNE01.JPG,AFNE01.JPG,,,,,,,,,,,,,2,7,27,2,,,,,,,,,,,AFNE03.jpg,AFNE12.jpg,AFSA18.jpg,AFSA15.jpg,AFNE03.jpg,FN,3,num_8,16,num_8,2.1333762483,,,2017_Oct_11_1816,59.9993649658,MAFE4ImagesEEG,001,201717,
AFNE01.JPG,AFNE01.JPG,AFNE01.JPG,AFNE01.JPG,AFNE01.JPG,AFNE01.JPG,,,,,,,,,,,,,2,8,28,6,,,,,,,,,,,AFSA19.jpg,AFNE08.jpg,AFNE05.jpg,AFSA12.jpg,AFNE08.jpg,FN,3,num_6,32,num_2,1.93335405318,,,2017_Oct_11_1816,59.9993649658,MAFE4ImagesEEG,001,201717,
AFNE01.JPG,AFNE01.JPG,AFNE01.JPG,AFNE01.JPG,AFNE01.JPG,AFNE01.JPG,,,,,,,,,,,,,2,9,29,3,,,,,,,,,,,AFNE11.jpg,AFSA07.jpg,AFSA10.jpg,AFNE15.jpg,AFNE11.jpg,FN,3,num_8,16,num_8,1.05008645554,,,2017_Oct_11_1816,59.9993649658,MAFE4ImagesEEG,001,201717,
AFNE01.JPG,AFNE01.JPG,AFNE01.JPG,AFNE01.JPG,AFNE01.JPG,AFNE01.JPG,,,,,,,,,,,,,3,0,30,2,,,,,,,,,,,AFNE08.jpg,AFSA08.jpg,AFSA01.jpg,AFNE10.jpg,AFNE10.jpg,FN,3,num_4,32,num_8,1.83337037882,,,2017_Oct_11_1816,59.9993649658,MAFE4ImagesEEG,001,201717,
AFNE01.JPG,AFNE01.JPG,AFNE01.JPG,AFNE01.JPG,AFNE01.JPG,AFNE01.JPG,,,,,,,,,,,,,3,1,31,9,,,,,,,,,,,AFSA19.jpg,AFNE10.jpg,AFSA05.jpg,AFNE11.jpg,AFSA19.jpg,FS,4,num_8,32,num_4,3.18298929138,,,2017_Oct_11_1816,59.9993649658,MAFE4ImagesEEG,001,201717,
AFNE01.JPG,AFNE01.JPG,AFNE01.JPG,AFNE01.JPG,AFNE01.JPG,AFNE01.JPG,,,,,,,,,,,,,3,2,32,0,,,,,,,,,,,AFSA05.jpg,AFSA07.jpg,AFNE09.jpg,AFNE14.jpg,AFNE14.jpg,FN,3,num_4,32,num_6,4.56645719125,,,2017_Oct_11_1816,59.9993649658,MAFE4ImagesEEG,001,201717,
AFNE01.JPG,AFNE01.JPG,AFNE01.JPG,AFNE01.JPG,AFNE01.JPG,AFNE01.JPG,,,,,,,,,,,,,3,3,33,8,,,,,,,,,,,AFNE14.jpg,AFSA01.jpg,AFSA19.jpg,AFNE13.jpg,AFNE13.jpg,FN,3,num_4,16,num_4,1.15004767803,,,2017_Oct_11_1816,59.9993649658,MAFE4ImagesEEG,001,201717,
AFNE01.JPG,AFNE01.JPG,AFNE01.JPG,AFNE01.JPG,AFNE01.JPG,AFNE01.JPG,,,,,,,,,,,,,3,4,34,4,,,,,,,,,,,AFSA10.jpg,AFNE04.jpg,AFNE03.jpg,AFSA04.jpg,AFSA10.jpg,FS,4,num_8,32,num_6,1.56668908638,,,2017_Oct_11_1816,59.9993649658,MAFE4ImagesEEG,001,201717,
AFNE01.JPG,AFNE01.JPG,AFNE01.JPG,AFNE01.JPG,AFNE01.JPG,AFNE01.JPG,,,,,,,,,,,,,3,5,35,1,,,,,,,,,,,AFSA08.jpg,AFSA18.jpg,AFNE17.jpg,AFNE09.jpg,AFSA08.jpg,FS,4,num_8,16,num_8,0.150545466691,,,2017_Oct_11_1816,59.9993649658,MAFE4ImagesEEG,001,201717,
AFNE01.JPG,AFNE01.JPG,AFNE01.JPG,AFNE01.JPG,AFNE01.JPG,AFNE01.JPG,,,,,,,,,,,,,3,6,36,3,,,,,,,,,,,AFNE16.jpg,AFNE12.jpg,AFSA08.jpg,AFSA09.jpg,AFSA08.jpg,FS,4,num_2,16,num_2,1.20009500324,,,2017_Oct_11_1816,59.9993649658,MAFE4ImagesEEG,001,201717,
AFNE01.JPG,AFNE01.JPG,AFNE01.JPG,AFNE01.JPG,AFNE01.JPG,AFNE01.JPG,,,,,,,,,,,,,3,7,37,5,,,,,,,,,,,AFSA01.jpg,AFNE20.jpg,AFSA08.jpg,AFNE11.jpg,AFSA08.jpg,FS,4,num_2,32,num_8,2.38329662464,,,2017_Oct_11_1816,59.9993649658,MAFE4ImagesEEG,001,201717,
AFNE01.JPG,AFNE01.JPG,AFNE01.JPG,AFNE01.JPG,AFNE01.JPG,AFNE01.JPG,,,,,,,,,,,,,3,8,38,7,,,,,,,,,,,AFSA18.jpg,AFNE02.jpg,AFSA02.jpg,AFNE17.jpg,AFSA02.jpg,FS,4,num_2,32,num_4,4.86655222648,,,2017_Oct_11_1816,59.9993649658,MAFE4ImagesEEG,001,201717,
AFNE01.JPG,AFNE01.JPG,AFNE01.JPG,AFNE01.JPG,AFNE01.JPG,AFNE01.JPG,,,,,,,,,,,,,3,9,39,6,,,,,,,,,,,AFSA12.jpg,AFNE14.jpg,AFSA13.jpg,AFNE18.jpg,AFSA12.jpg,FS,4,num_8,48,None,,,,2017_Oct_11_1816,59.9993649658,MAFE4ImagesEEG,001,201717,
AFNE01.JPG,AFNE01.JPG,AFNE01.JPG,AFNE01.JPG,AFNE01.JPG,AFNE01.JPG,,,,,,,,,,,,,4,0,40,6,,,,,,,,,,,AFNE13.jpg,AFNE07.jpg,AFSA06.jpg,AFSA16.jpg,AFSA06.jpg,FS,4,num_2,16,num_2,1.41670555645,,,2017_Oct_11_1816,59.9993649658,MAFE4ImagesEEG,001,201717,
AFNE01.JPG,AFNE01.JPG,AFNE01.JPG,AFNE01.JPG,AFNE01.JPG,AFNE01.JPG,,,,,,,,,,,,,4,1,41,7,,,,,,,,,,,AFSA12.jpg,AFNE12.jpg,AFSA10.jpg,AFNE09.jpg,AFSA12.jpg,FS,4,num_8,16,num_8,0.816778492648,,,2017_Oct_11_1816,59.9993649658,MAFE4ImagesEEG,001,201717,
AFNE01.JPG,AFNE01.JPG,AFNE01.JPG,AFNE01.JPG,AFNE01.JPG,AFNE01.JPG,,,,,,,,,,,,,4,2,42,2,,,,,,,,,,,AFNE06.jpg,AFSA11.jpg,AFNE11.jpg,AFSA07.jpg,AFNE06.jpg,FN,3,num_8,32,num_2,1.63337191846,,,2017_Oct_11_1816,59.9993649658,MAFE4ImagesEEG,001,201717,
AFNE01.JPG,AFNE01.JPG,AFNE01.JPG,AFNE01.JPG,AFNE01.JPG,AFNE01.JPG,,,,,,,,,,,,,4,3,43,4,,,,,,,,,,,AFNE09.jpg,AFSA06.jpg,AFSA03.jpg,AFNE10.jpg,AFSA06.jpg,FS,4,num_6,32,num_4,1.15009803418,,,2017_Oct_11_1816,59.9993649658,MAFE4ImagesEEG,001,201717,
AFNE01.JPG,AFNE01.JPG,AFNE01.JPG,AFNE01.JPG,AFNE01.JPG,AFNE01.JPG,,,,,,,,,,,,,4,4,44,5,,,,,,,,,,,AFSA10.jpg,AFNE18.jpg,AFNE10.jpg,AFSA15.jpg,AFSA15.jpg,FS,4,num_4,32,num_8,3.11662174703,,,2017_Oct_11_1816,59.9993649658,MAFE4ImagesEEG,001,201717,
AFNE01.JPG,AFNE01.JPG,AFNE01.JPG,AFNE01.JPG,AFNE01.JPG,AFNE01.JPG,,,,,,,,,,,,,4,5,45,0,,,,,,,,,,,AFSA05.jpg,AFNE14.jpg,AFNE12.jpg,AFSA08.jpg,AFSA05.jpg,FS,4,num_8,32,num_4,0.833503486007,,,2017_Oct_11_1816,59.9993649658,MAFE4ImagesEEG,001,201717,
AFNE01.JPG,AFNE01.JPG,AFNE01.JPG,AFNE01.JPG,AFNE01.JPG,AFNE01.JPG,,,,,,,,,,,,,4,6,46,8,,,,,,,,,,,AFNE10.jpg,AFSA10.jpg,AFNE11.jpg,AFSA11.jpg,AFSA11.jpg,FS,4,num_4,32,num_2,3.96639669978,,,2017_Oct_11_1816,59.9993649658,MAFE4ImagesEEG,001,201717,
AFNE01.JPG,AFNE01.JPG,AFNE01.JPG,AFNE01.JPG,AFNE01.JPG,AFNE01.JPG,,,,,,,,,,,,,4,7,47,3,,,,,,,,,,,AFNE15.jpg,AFSA13.jpg,AFSA02.jpg,AFNE11.jpg,AFNE11.jpg,FN,3,num_4,32,num_8,2.40000269422,,,2017_Oct_11_1816,59.9993649658,MAFE4ImagesEEG,001,201717,
AFNE01.JPG,AFNE01.JPG,AFNE01.JPG,AFNE01.JPG,AFNE01.JPG,AFNE01.JPG,,,,,,,,,,,,,4,8,48,1,,,,,,,,,,,AFNE18.jpg,AFSA11.jpg,AFNE17.jpg,AFSA17.jpg,AFNE18.jpg,FN,3,num_8,48,None,,,,2017_Oct_11_1816,59.9993649658,MAFE4ImagesEEG,001,201717,
AFNE01.JPG,AFNE01.JPG,AFNE01.JPG,AFNE01.JPG,AFNE01.JPG,AFNE01.JPG,,,,,,,,,,,,,4,9,49,9,,,,,,,,,,,AFSA18.jpg,AFNE02.jpg,AFNE09.jpg,AFSA10.jpg,AFNE02.jpg,FN,3,num_6,16,num_6,1.23341284483,,,2017_Oct_11_1816,59.9993649658,MAFE4ImagesEEG,001,201717,
AFNE01.JPG,AFNE01.JPG,AFNE01.JPG,AFNE01.JPG,AFNE01.JPG,AFNE01.JPG,,,,,,,,,,,,,5,0,50,1,,,,,,,,,,,AFSA16.jpg,AFNE11.jpg,AFSA12.jpg,AFNE17.jpg,AFNE17.jpg,FN,3,num_4,32,num_8,1.6834962212,,,2017_Oct_11_1816,59.9993649658,MAFE4ImagesEEG,001,201717,
AFNE01.JPG,AFNE01.JPG,AFNE01.JPG,AFNE01.JPG,AFNE01.JPG,AFNE01.JPG,,,,,,,,,,,,,5,1,51,8,,,,,,,,,,,AFNE12.jpg,AFSA02.jpg,AFNE19.jpg,AFSA19.jpg,AFNE12.jpg,FN,3,num_8,32,num_2,0.966748872306,,,2017_Oct_11_1816,59.9993649658,MAFE4ImagesEEG,001,201717,
AFNE01.JPG,AFNE01.JPG,AFNE01.JPG,AFNE01.JPG,AFNE01.JPG,AFNE01.JPG,,,,,,,,,,,,,5,2,52,2,,,,,,,,,,,AFNE12.jpg,AFSA07.jpg,AFSA16.jpg,AFNE16.jpg,AFSA07.jpg,FS,4,num_6,32,num_2,4.64982620697,,,2017_Oct_11_1816,59.9993649658,MAFE4ImagesEEG,001,201717,
AFNE01.JPG,AFNE01.JPG,AFNE01.JPG,AFNE01.JPG,AFNE01.JPG,AFNE01.JPG,,,,,,,,,,,,,5,3,53,7,,,,,,,,,,,AFSA13.jpg,AFSA07.jpg,AFNE19.jpg,AFNE12.jpg,AFSA13.jpg,FS,4,num_8,48,None,,,,2017_Oct_11_1816,59.9993649658,MAFE4ImagesEEG,001,201717,
AFNE01.JPG,AFNE01.JPG,AFNE01.JPG,AFNE01.JPG,AFNE01.JPG,AFNE01.JPG,,,,,,,,,,,,,5,4,54,3,,,,,,,,,,,AFSA05.jpg,AFNE08.jpg,AFSA12.jpg,AFNE07.jpg,AFSA05.jpg,FS,4,num_8,16,num_8,0.933520196471,,,2017_Oct_11_1816,59.9993649658,MAFE4ImagesEEG,001,201717,
AFNE01.JPG,AFNE01.JPG,AFNE01.JPG,AFNE01.JPG,AFNE01.JPG,AFNE01.JPG,,,,,,,,,,,,,5,5,55,6,,,,,,,,,,,AFNE08.jpg,AFSA18.jpg,AFSA10.jpg,AFNE05.jpg,AFNE08.jpg,FN,3,num_8,32,num_4,4.03321263881,,,2017_Oct_11_1816,59.9993649658,MAFE4ImagesEEG,001,201717,
AFNE01.JPG,AFNE01.JPG,AFNE01.JPG,AFNE01.JPG,AFNE01.JPG,AFNE01.JPG,,,,,,,,,,,,,5,6,56,5,,,,,,,,,,,AFNE04.jpg,AFNE12.jpg,AFSA02.jpg,AFSA17.jpg,AFSA02.jpg,FS,4,num_2,16,num_2,1.68340641388,,,2017_Oct_11_1816,59.9993649658,MAFE4ImagesEEG,001,201717,
AFNE01.JPG,AFNE01.JPG,AFNE01.JPG,AFNE01.JPG,AFNE01.JPG,AFNE01.JPG,,,,,,,,,,,,,5,7,57,4,,,,,,,,,,,AFNE10.jpg,AFSA07.jpg,AFNE15.jpg,AFSA08.jpg,AFSA07.jpg,FS,4,num_6,32,num_4,2.08335490304,,,2017_Oct_11_1816,59.9993649658,MAFE4ImagesEEG,001,201717,
AFNE01.JPG,AFNE01.JPG,AFNE01.JPG,AFNE01.JPG,AFNE01.JPG,AFNE01.JPG,,,,,,,,,,,,,5,8,58,0,,,,,,,,,,,AFNE16.jpg,AFSA08.jpg,AFNE20.jpg,AFSA03.jpg,AFSA03.jpg,FS,4,num_4,16,num_4,1.21677509288,,,2017_Oct_11_1816,59.9993649658,MAFE4ImagesEEG,001,201717,
AFNE01.JPG,AFNE01.JPG,AFNE01.JPG,AFNE01.JPG,AFNE01.JPG,AFNE01.JPG,,,,,,,,,,,,,5,9,59,9,,,,,,,,,,,AFNE18.jpg,AFNE02.jpg,AFSA12.jpg,AFSA11.jpg,AFNE18.jpg,FN,3,num_8,32,num_2,2.38343197701,,,2017_Oct_11_1816,59.9993649658,MAFE4ImagesEEG,001,201717,
,,,,,,,,,,,,,,,,,,,,,,,,,,,,,,,,,,,,,,,,,,,space,43.2132119909,2017_Oct_11_1816,59.9993649658,MAFE4ImagesEEG,001,201717,
AFNE01.JPG,AFNE01.JPG,AFNE01.JPG,AFNE01.JPG,AFNE01.JPG,AFNE01.JPG,,,,,,,,,,,,,,,,,0,0,0,9,,,,,,,AMNE08.jpg,AMSA03.jpg,AMNE02.jpg,AMSA04.jpg,AMNE02.jpg,MN,1,num_2,32,num_4,1.29996994662,,,2017_Oct_11_1816,59.9993649658,MAFE4ImagesEEG,001,201717,
AFNE01.JPG,AFNE01.JPG,AFNE01.JPG,AFNE01.JPG,AFNE01.JPG,AFNE01.JPG,,,,,,,,,,,,,,,,,0,1,1,3,,,,,,,AMNE01.jpg,AMNE02.jpg,AMSA02.jpg,AMSA11.jpg,AMNE01.jpg,MN,1,num_8,16,num_8,1.00009237311,,,2017_Oct_11_1816,59.9993649658,MAFE4ImagesEEG,001,201717,
AFNE01.JPG,AFNE01.JPG,AFNE01.JPG,AFNE01.JPG,AFNE01.JPG,AFNE01.JPG,,,,,,,,,,,,,,,,,0,2,2,0,,,,,,,AMNE15.jpg,AMSA09.jpg,AMNE04.jpg,AMSA06.jpg,AMSA09.jpg,MS,2,num_6,32,num_8,0.88346998475,,,2017_Oct_11_1816,59.9993649658,MAFE4ImagesEEG,001,201717,
AFNE01.JPG,AFNE01.JPG,AFNE01.JPG,AFNE01.JPG,AFNE01.JPG,AFNE01.JPG,,,,,,,,,,,,,,,,,0,3,3,2,,,,,,,AMNE15.jpg,AMNE02.jpg,AMSA12.jpg,AMSA14.jpg,AMNE02.jpg,MN,1,num_6,16,num_6,0.767490680097,,,2017_Oct_11_1816,59.9993649658,MAFE4ImagesEEG,001,201717,
AFNE01.JPG,AFNE01.JPG,AFNE01.JPG,AFNE01.JPG,AFNE01.JPG,AFNE01.JPG,,,,,,,,,,,,,,,,,0,4,4,6,,,,,,,AMSA18.jpg,AMNE18.jpg,AMNE17.jpg,AMSA15.jpg,AMNE18.jpg,MN,1,num_6,16,num_6,1.45015554281,,,2017_Oct_11_1816,59.9993649658,MAFE4ImagesEEG,001,201717,
AFNE01.JPG,AFNE01.JPG,AFNE01.JPG,AFNE01.JPG,AFNE01.JPG,AFNE01.JPG,,,,,,,,,,,,,,,,,0,5,5,4,,,,,,,AMNE15.jpg,AMSA18.jpg,AMSA19.jpg,AMNE19.jpg,AMSA19.jpg,MS,2,num_2,32,num_4,1.38349259691,,,2017_Oct_11_1816,59.9993649658,MAFE4ImagesEEG,001,201717,
AFNE01.JPG,AFNE01.JPG,AFNE01.JPG,AFNE01.JPG,AFNE01.JPG,AFNE01.JPG,,,,,,,,,,,,,,,,,0,6,6,8,,,,,,,AMSA01.jpg,AMSA05.jpg,AMNE14.jpg,AMNE15.jpg,AMSA05.jpg,MS,2,num_6,32,num_8,2.91663034284,,,2017_Oct_11_1816,59.9993649658,MAFE4ImagesEEG,001,201717,
AFNE01.JPG,AFNE01.JPG,AFNE01.JPG,AFNE01.JPG,AFNE01.JPG,AFNE01.JPG,,,,,,,,,,,,,,,,,0,7,7,7,,,,,,,AMNE14.jpg,AMSA19.jpg,AMSA16.jpg,AMNE09.jpg,AMNE09.jpg,MN,1,num_4,32,num_2,1.416435814,,,2017_Oct_11_1816,59.9993649658,MAFE4ImagesEEG,001,201717,
AFNE01.JPG,AFNE01.JPG,AFNE01.JPG,AFNE01.JPG,AFNE01.JPG,AFNE01.JPG,,,,,,,,,,,,,,,,,0,8,8,1,,,,,,,AMSA04.jpg,AMNE08.jpg,AMSA06.jpg,AMNE04.jpg,AMSA06.jpg,MS,2,num_2,32,num_4,1.21676258405,,,2017_Oct_11_1816,59.9993649658,MAFE4ImagesEEG,001,201717,
AFNE01.JPG,AFNE01.JPG,AFNE01.JPG,AFNE01.JPG,AFNE01.JPG,AFNE01.JPG,,,,,,,,,,,,,,,,,0,9,9,5,,,,,,,AMNE11.jpg,AMNE07.jpg,AMSA18.jpg,AMSA07.jpg,AMNE07.jpg,MN,1,num_6,32,num_4,1.00010808941,,,2017_Oct_11_1816,59.9993649658,MAFE4ImagesEEG,001,201717,
AFNE01.JPG,AFNE01.JPG,AFNE01.JPG,AFNE01.JPG,AFNE01.JPG,AFNE01.JPG,,,,,,,,,,,,,,,,,1,0,10,4,,,,,,,AMSA03.jpg,AMSA07.jpg,AMNE10.jpg,AMNE11.jpg,AMNE11.jpg,MN,1,num_4,16,num_4,0.750146658393,,,2017_Oct_11_1816,59.9993649658,MAFE4ImagesEEG,001,201717,
AFNE01.JPG,AFNE01.JPG,AFNE01.JPG,AFNE01.JPG,AFNE01.JPG,AFNE01.JPG,,,,,,,,,,,,,,,,,1,1,11,7,,,,,,,AMNE10.jpg,AMSA01.jpg,AMSA05.jpg,AMNE05.jpg,AMSA01.jpg,MS,2,num_6,48,None,,,,2017_Oct_11_1816,59.9993649658,MAFE4ImagesEEG,001,201717,
AFNE01.JPG,AFNE01.JPG,AFNE01.JPG,AFNE01.JPG,AFNE01.JPG,AFNE01.JPG,,,,,,,,,,,,,,,,,1,2,12,6,,,,,,,AMNE11.jpg,AMSA20.jpg,AMSA02.jpg,AMNE16.jpg,AMNE16.jpg,MN,1,num_4,32,num_2,1.06683646643,,,2017_Oct_11_1816,59.9993649658,MAFE4ImagesEEG,001,201717,
AFNE01.JPG,AFNE01.JPG,AFNE01.JPG,AFNE01.JPG,AFNE01.JPG,AFNE01.JPG,,,,,,,,,,,,,,,,,1,3,13,2,,,,,,,AMNE08.jpg,AMSA07.jpg,AMSA04.jpg,AMNE01.jpg,AMSA04.jpg,MS,2,num_2,32,num_4,2.05000530824,,,2017_Oct_11_1816,59.9993649658,MAFE4ImagesEEG,001,201717,
AFNE01.JPG,AFNE01.JPG,AFNE01.JPG,AFNE01.JPG,AFNE01.JPG,AFNE01.JPG,,,,,,,,,,,,,,,,,1,4,14,9,,,,,,,AMSA17.jpg,AMNE06.jpg,AMSA02.jpg,AMNE15.jpg,AMNE06.jpg,MN,1,num_6,16,num_6,1.76671064016,,,2017_Oct_11_1816,59.9993649658,MAFE4ImagesEEG,001,201717,
AFNE01.JPG,AFNE01.JPG,AFNE01.JPG,AFNE01.JPG,AFNE01.JPG,AFNE01.JPG,,,,,,,,,,,,,,,,,1,5,15,1,,,,,,,AMSA01.jpg,AMNE05.jpg,AMSA08.jpg,AMNE03.jpg,AMNE05.jpg,MN,1,num_6,32,num_4,1.06676365854,,,2017_Oct_11_1816,59.9993649658,MAFE4ImagesEEG,001,201717,
AFNE01.JPG,AFNE01.JPG,AFNE01.JPG,AFNE01.JPG,AFNE01.JPG,AFNE01.JPG,,,,,,,,,,,,,,,,,1,6,16,8,,,,,,,AMNE12.jpg,AMNE13.jpg,AMSA14.jpg,AMSA17.jpg,AMSA17.jpg,MS,2,num_4,32,num_2,3.46623520704,,,2017_Oct_11_1816,59.9993649658,MAFE4ImagesEEG,001,201717,
AFNE01.JPG,AFNE01.JPG,AFNE01.JPG,AFNE01.JPG,AFNE01.JPG,AFNE01.JPG,,,,,,,,,,,,,,,,,1,7,17,5,,,,,,,AMNE10.jpg,AMNE20.jpg,AMSA10.jpg,AMSA03.jpg,AMSA10.jpg,MS,2,num_2,32,num_8,3.26658122148,,,2017_Oct_11_1816,59.9993649658,MAFE4ImagesEEG,001,201717,
AFNE01.JPG,AFNE01.JPG,AFNE01.JPG,AFNE01.JPG,AFNE01.JPG,AFNE01.JPG,,,,,,,,,,,,,,,,,1,8,18,3,,,,,,,AMNE16.jpg,AMNE12.jpg,AMSA14.jpg,AMSA02.jpg,AMNE16.jpg,MN,1,num_8,16,num_8,0.433444982977,,,2017_Oct_11_1816,59.9993649658,MAFE4ImagesEEG,001,201717,
AFNE01.JPG,AFNE01.JPG,AFNE01.JPG,AFNE01.JPG,AFNE01.JPG,AFNE01.JPG,,,,,,,,,,,,,,,,,1,9,19,0,,,,,,,AMNE19.jpg,AMNE07.jpg,AMSA07.jpg,AMSA12.jpg,AMNE19.jpg,MN,1,num_8,32,num_6,1.83337486919,,,2017_Oct_11_1816,59.9993649658,MAFE4ImagesEEG,001,201717,
AFNE01.JPG,AFNE01.JPG,AFNE01.JPG,AFNE01.JPG,AFNE01.JPG,AFNE01.JPG,,,,,,,,,,,,,,,,,2,0,20,5,,,,,,,AMNE16.jpg,AMNE07.jpg,AMSA09.jpg,AMSA02.jpg,AMSA02.jpg,MS,2,num_4,48,None,,,,2017_Oct_11_1816,59.9993649658,MAFE4ImagesEEG,001,201717,
AFNE01.JPG,AFNE01.JPG,AFNE01.JPG,AFNE01.JPG,AFNE01.JPG,AFNE01.JPG,,,,,,,,,,,,,,,,,2,1,21,1,,,,,,,AMNE19.jpg,AMSA20.jpg,AMSA04.jpg,AMNE06.jpg,AMSA20.jpg,MS,2,num_6,32,num_8,1.46673941042,,,2017_Oct_11_1816,59.9993649658,MAFE4ImagesEEG,001,201717,
AFNE01.JPG,AFNE01.JPG,AFNE01.JPG,AFNE01.JPG,AFNE01.JPG,AFNE01.JPG,,,,,,,,,,,,,,,,,2,2,22,6,,,,,,,AMSA06.jpg,AMNE14.jpg,AMNE12.jpg,AMSA12.jpg,AMNE12.jpg,MN,1,num_2,16,num_2,0.866723501822,,,2017_Oct_11_1816,59.9993649658,MAFE4ImagesEEG,001,201717,
AFNE01.JPG,AFNE01.JPG,AFNE01.JPG,AFNE01.JPG,AFNE01.JPG,AFNE01.JPG,,,,,,,,,,,,,,,,,2,3,23,4,,,,,,,AMSA05.jpg,AMSA01.jpg,AMNE06.jpg,AMNE19.jpg,AMNE06.jpg,MN,1,num_2,16,num_2,3.06664658838,,,2017_Oct_11_1816,59.9993649658,MAFE4ImagesEEG,001,201717,
AFNE01.JPG,AFNE01.JPG,AFNE01.JPG,AFNE01.JPG,AFNE01.JPG,AFNE01.JPG,,,,,,,,,,,,,,,,,2,4,24,0,,,,,,,AMSA11.jpg,AMNE03.jpg,AMNE09.jpg,AMSA16.jpg,AMSA16.jpg,MS,2,num_4,32,num_8,0.883435024065,,,2017_Oct_11_1816,59.9993649658,MAFE4ImagesEEG,001,201717,
AFNE01.JPG,AFNE01.JPG,AFNE01.JPG,AFNE01.JPG,AFNE01.JPG,AFNE01.JPG,,,,,,,,,,,,,,,,,2,5,25,9,,,,,,,AMSA14.jpg,AMNE19.jpg,AMNE04.jpg,AMSA17.jpg,AMSA17.jpg,MS,2,num_4,32,num_8,1.58312541363,,,2017_Oct_11_1816,59.9993649658,MAFE4ImagesEEG,001,201717,
AFNE01.JPG,AFNE01.JPG,AFNE01.JPG,AFNE01.JPG,AFNE01.JPG,AFNE01.JPG,,,,,,,,,,,,,,,,,2,6,26,7,,,,,,,AMNE08.jpg,AMNE16.jpg,AMSA16.jpg,AMSA18.jpg,AMSA18.jpg,MS,2,num_4,48,None,,,,2017_Oct_11_1816,59.9993649658,MAFE4ImagesEEG,001,201717,
AFNE01.JPG,AFNE01.JPG,AFNE01.JPG,AFNE01.JPG,AFNE01.JPG,AFNE01.JPG,,,,,,,,,,,,,,,,,2,7,27,3,,,,,,,AMNE13.jpg,AMSA14.jpg,AMNE18.jpg,AMSA13.jpg,AMNE13.jpg,MN,1,num_8,16,num_8,0.983478676761,,,2017_Oct_11_1816,59.9993649658,MAFE4ImagesEEG,001,201717,
AFNE01.JPG,AFNE01.JPG,AFNE01.JPG,AFNE01.JPG,AFNE01.JPG,AFNE01.JPG,,,,,,,,,,,,,,,,,2,8,28,8,,,,,,,AMNE10.jpg,AMSA20.jpg,AMNE07.jpg,AMSA10.jpg,AMNE07.jpg,MN,1,num_2,48,None,,,,2017_Oct_11_1816,59.9993649658,MAFE4ImagesEEG,001,201717,
AFNE01.JPG,AFNE01.JPG,AFNE01.JPG,AFNE01.JPG,AFNE01.JPG,AFNE01.JPG,,,,,,,,,,,,,,,,,2,9,29,2,,,,,,,AMNE13.jpg,AMSA04.jpg,AMNE10.jpg,AMSA12.jpg,AMNE13.jpg,MN,1,num_8,32,num_4,1.00011546642,,,2017_Oct_11_1816,59.9993649658,MAFE4ImagesEEG,001,201717,
AFNE01.JPG,AFNE01.JPG,AFNE01.JPG,AFNE01.JPG,AFNE01.JPG,AFNE01.JPG,,,,,,,,,,,,,,,,,3,0,30,8,,,,,,,AMSA02.jpg,AMSA11.jpg,AMNE15.jpg,AMNE04.jpg,AMSA02.jpg,MS,2,num_8,32,num_2,4.04983916483,,,2017_Oct_11_1816,59.9993649658,MAFE4ImagesEEG,001,201717,
AFNE01.JPG,AFNE01.JPG,AFNE01.JPG,AFNE01.JPG,AFNE01.JPG,AFNE01.JPG,,,,,,,,,,,,,,,,,3,1,31,4,,,,,,,AMSA02.jpg,AMNE16.jpg,AMSA07.jpg,AMNE06.jpg,AMSA02.jpg,MS,2,num_8,32,num_6,3.58325435105,,,2017_Oct_11_1816,59.9993649658,MAFE4ImagesEEG,001,201717,
AFNE01.JPG,AFNE01.JPG,AFNE01.JPG,AFNE01.JPG,AFNE01.JPG,AFNE01.JPG,,,,,,,,,,,,,,,,,3,2,32,3,,,,,,,AMNE20.jpg,AMSA02.jpg,AMSA01.jpg,AMNE12.jpg,AMSA01.jpg,MS,2,num_2,16,num_2,0.966681516962,,,2017_Oct_11_1816,59.9993649658,MAFE4ImagesEEG,001,201717,
AFNE01.JPG,AFNE01.JPG,AFNE01.JPG,AFNE01.JPG,AFNE01.JPG,AFNE01.JPG,,,,,,,,,,,,,,,,,3,3,33,1,,,,,,,AMNE06.jpg,AMNE11.jpg,AMSA15.jpg,AMSA17.jpg,AMNE11.jpg,MN,1,num_6,16,num_6,1.21649348305,,,2017_Oct_11_1816,59.9993649658,MAFE4ImagesEEG,001,201717,
AFNE01.JPG,AFNE01.JPG,AFNE01.JPG,AFNE01.JPG,AFNE01.JPG,AFNE01.JPG,,,,,,,,,,,,,,,,,3,4,34,9,,,,,,,AMNE19.jpg,AMNE13.jpg,AMSA02.jpg,AMSA06.jpg,AMNE13.jpg,MN,1,num_6,16,num_6,0.816766946111,,,2017_Oct_11_1816,59.9993649658,MAFE4ImagesEEG,001,201717,
AFNE01.JPG,AFNE01.JPG,AFNE01.JPG,AFNE01.JPG,AFNE01.JPG,AFNE01.JPG,,,,,,,,,,,,,,,,,3,5,35,0,,,,,,,AMSA16.jpg,AMNE05.jpg,AMSA04.jpg,AMNE19.jpg,AMNE19.jpg,MN,1,num_4,32,num_8,1.01676187839,,,2017_Oct_11_1816,59.9993649658,MAFE4ImagesEEG,001,201717,
AFNE01.JPG,AFNE01.JPG,AFNE01.JPG,AFNE01.JPG,AFNE01.JPG,AFNE01.JPG,,,,,,,,,,,,,,,,,3,6,36,7,,,,,,,AMSA17.jpg,AMNE18.jpg,AMSA15.jpg,AMNE19.jpg,AMNE18.jpg,MN,1,num_6,32,num_8,4.58345930406,,,2017_Oct_11_1816,59.9993649658,MAFE4ImagesEEG,001,201717,
AFNE01.JPG,AFNE01.JPG,AFNE01.JPG,AFNE01.JPG,AFNE01.JPG,AFNE01.JPG,,,,,,,,,,,,,,,,,3,7,37,6,,,,,,,AMNE19.jpg,AMSA01.jpg,AMSA08.jpg,AMNE07.jpg,AMSA01.jpg,MS,2,num_6,32,num_2,1.28339858784,,,2017_Oct_11_1816,59.9993649658,MAFE4ImagesEEG,001,201717,
AFNE01.JPG,AFNE01.JPG,AFNE01.JPG,AFNE01.JPG,AFNE01.JPG,AFNE01.JPG,,,,,,,,,,,,,,,,,3,8,38,5,,,,,,,AMSA01.jpg,AMNE15.jpg,AMSA10.jpg,AMNE07.jpg,AMSA10.jpg,MS,2,num_2,32,num_8,4.96655065496,,,2017_Oct_11_1816,59.9993649658,MAFE4ImagesEEG,001,201717,
AFNE01.JPG,AFNE01.JPG,AFNE01.JPG,AFNE01.JPG,AFNE01.JPG,AFNE01.JPG,,,,,,,,,,,,,,,,,3,9,39,2,,,,,,,AMSA12.jpg,AMNE10.jpg,AMSA03.jpg,AMNE12.jpg,AMSA03.jpg,MS,2,num_2,32,num_6,2.8166540456,,,2017_Oct_11_1816,59.9993649658,MAFE4ImagesEEG,001,201717,
AFNE01.JPG,AFNE01.JPG,AFNE01.JPG,AFNE01.JPG,AFNE01.JPG,AFNE01.JPG,,,,,,,,,,,,,,,,,4,0,40,2,,,,,,,AMSA16.jpg,AMNE03.jpg,AMSA20.jpg,AMNE16.jpg,AMNE16.jpg,MN,1,num_4,32,num_8,3.89985980443,,,2017_Oct_11_1816,59.9993649658,MAFE4ImagesEEG,001,201717,
AFNE01.JPG,AFNE01.JPG,AFNE01.JPG,AFNE01.JPG,AFNE01.JPG,AFNE01.JPG,,,,,,,,,,,,,,,,,4,1,41,0,,,,,,,AMNE15.jpg,AMSA03.jpg,AMSA07.jpg,AMNE18.jpg,AMSA07.jpg,MS,2,num_2,32,num_6,1.89974786621,,,2017_Oct_11_1816,59.9993649658,MAFE4ImagesEEG,001,201717,
AFNE01.JPG,AFNE01.JPG,AFNE01.JPG,AFNE01.JPG,AFNE01.JPG,AFNE01.JPG,,,,,,,,,,,,,,,,,4,2,42,5,,,,,,,AMSA12.jpg,AMSA13.jpg,AMNE20.jpg,AMNE04.jpg,AMNE20.jpg,MN,1,num_2,32,num_4,1.866783801,,,2017_Oct_11_1816,59.9993649658,MAFE4ImagesEEG,001,201717,
AFNE01.JPG,AFNE01.JPG,AFNE01.JPG,AFNE01.JPG,AFNE01.JPG,AFNE01.JPG,,,,,,,,,,,,,,,,,4,3,43,6,,,,,,,AMNE18.jpg,AMSA03.jpg,AMNE13.jpg,AMSA20.jpg,AMNE18.jpg,MN,1,num_8,32,num_6,1.21684116533,,,2017_Oct_11_1816,59.9993649658,MAFE4ImagesEEG,001,201717,
AFNE01.JPG,AFNE01.JPG,AFNE01.JPG,AFNE01.JPG,AFNE01.JPG,AFNE01.JPG,,,,,,,,,,,,,,,,,4,4,44,1,,,,,,,AMNE07.jpg,AMNE01.jpg,AMSA13.jpg,AMSA16.jpg,AMSA16.jpg,MS,2,num_4,32,num_6,4.96637937974,,,2017_Oct_11_1816,59.9993649658,MAFE4ImagesEEG,001,201717,
AFNE01.JPG,AFNE01.JPG,AFNE01.JPG,AFNE01.JPG,AFNE01.JPG,AFNE01.JPG,,,,,,,,,,,,,,,,,4,5,45,3,,,,,,,AMSA11.jpg,AMNE19.jpg,AMNE12.jpg,AMSA03.jpg,AMNE12.jpg,MN,1,num_2,32,num_6,0.86674819875,,,2017_Oct_11_1816,59.9993649658,MAFE4ImagesEEG,001,201717,
AFNE01.JPG,AFNE01.JPG,AFNE01.JPG,AFNE01.JPG,AFNE01.JPG,AFNE01.JPG,,,,,,,,,,,,,,,,,4,6,46,8,,,,,,,AMSA18.jpg,AMNE13.jpg,AMSA19.jpg,AMNE08.jpg,AMSA19.jpg,MS,2,num_2,32,num_4,4.6165292135,,,2017_Oct_11_1816,59.9993649658,MAFE4ImagesEEG,001,201717,
AFNE01.JPG,AFNE01.JPG,AFNE01.JPG,AFNE01.JPG,AFNE01.JPG,AFNE01.JPG,,,,,,,,,,,,,,,,,4,7,47,9,,,,,,,AMNE03.jpg,AMNE16.jpg,AMSA11.jpg,AMSA04.jpg,AMNE03.jpg,MN,1,num_8,32,num_4,4.1664503275,,,2017_Oct_11_1816,59.9993649658,MAFE4ImagesEEG,001,201717,
AFNE01.JPG,AFNE01.JPG,AFNE01.JPG,AFNE01.JPG,AFNE01.JPG,AFNE01.JPG,,,,,,,,,,,,,,,,,4,8,48,4,,,,,,,AMSA11.jpg,AMSA08.jpg,AMNE17.jpg,AMNE18.jpg,AMNE18.jpg,MN,1,num_4,16,num_4,0.683485957561,,,2017_Oct_11_1816,59.9993649658,MAFE4ImagesEEG,001,201717,
AFNE01.JPG,AFNE01.JPG,AFNE01.JPG,AFNE01.JPG,AFNE01.JPG,AFNE01.JPG,,,,,,,,,,,,,,,,,4,9,49,7,,,,,,,AMSA10.jpg,AMNE11.jpg,AMSA18.jpg,AMNE15.jpg,AMNE15.jpg,MN,1,num_4,32,num_8,1.00011931534,,,2017_Oct_11_1816,59.9993649658,MAFE4ImagesEEG,001,201717,
AFNE01.JPG,AFNE01.JPG,AFNE01.JPG,AFNE01.JPG,AFNE01.JPG,AFNE01.JPG,,,,,,,,,,,,,,,,,5,0,50,6,,,,,,,AMNE12.jpg,AMNE13.jpg,AMSA19.jpg,AMSA13.jpg,AMNE12.jpg,MN,1,num_8,16,num_8,2.13332043961,,,2017_Oct_11_1816,59.9993649658,MAFE4ImagesEEG,001,201717,
AFNE01.JPG,AFNE01.JPG,AFNE01.JPG,AFNE01.JPG,AFNE01.JPG,AFNE01.JPG,,,,,,,,,,,,,,,,,5,1,51,2,,,,,,,AMSA12.jpg,AMNE01.jpg,AMSA01.jpg,AMNE16.jpg,AMSA01.jpg,MS,2,num_2,32,num_4,1.35005479853,,,2017_Oct_11_1816,59.9993649658,MAFE4ImagesEEG,001,201717,
AFNE01.JPG,AFNE01.JPG,AFNE01.JPG,AFNE01.JPG,AFNE01.JPG,AFNE01.JPG,,,,,,,,,,,,,,,,,5,2,52,7,,,,,,,AMNE14.jpg,AMSA07.jpg,AMNE18.jpg,AMSA02.jpg,AMNE18.jpg,MN,1,num_2,32,num_4,4.38347271096,,,2017_Oct_11_1816,59.9993649658,MAFE4ImagesEEG,001,201717,
AFNE01.JPG,AFNE01.JPG,AFNE01.JPG,AFNE01.JPG,AFNE01.JPG,AFNE01.JPG,,,,,,,,,,,,,,,,,5,3,53,3,,,,,,,AMSA03.jpg,AMNE07.jpg,AMSA10.jpg,AMNE20.jpg,AMNE07.jpg,MN,1,num_6,32,num_4,0.90016386623,,,2017_Oct_11_1816,59.9993649658,MAFE4ImagesEEG,001,201717,
AFNE01.JPG,AFNE01.JPG,AFNE01.JPG,AFNE01.JPG,AFNE01.JPG,AFNE01.JPG,,,,,,,,,,,,,,,,,5,4,54,0,,,,,,,AMNE03.jpg,AMNE02.jpg,AMSA20.jpg,AMSA07.jpg,AMNE03.jpg,MN,1,num_8,16,num_8,2.59999794723,,,2017_Oct_11_1816,59.9993649658,MAFE4ImagesEEG,001,201717,
AFNE01.JPG,AFNE01.JPG,AFNE01.JPG,AFNE01.JPG,AFNE01.JPG,AFNE01.JPG,,,,,,,,,,,,,,,,,5,5,55,5,,,,,,,AMSA16.jpg,AMNE15.jpg,AMSA14.jpg,AMNE01.jpg,AMNE01.jpg,MN,1,num_4,16,num_4,1.9499818621,,,2017_Oct_11_1816,59.9993649658,MAFE4ImagesEEG,001,201717,
AFNE01.JPG,AFNE01.JPG,AFNE01.JPG,AFNE01.JPG,AFNE01.JPG,AFNE01.JPG,,,,,,,,,,,,,,,,,5,6,56,9,,,,,,,AMSA18.jpg,AMNE16.jpg,AMSA03.jpg,AMNE12.jpg,AMSA18.jpg,MS,2,num_8,48,None,,,,2017_Oct_11_1816,59.9993649658,MAFE4ImagesEEG,001,201717,
AFNE01.JPG,AFNE01.JPG,AFNE01.JPG,AFNE01.JPG,AFNE01.JPG,AFNE01.JPG,,,,,,,,,,,,,,,,,5,7,57,4,,,,,,,AMSA03.jpg,AMSA20.jpg,AMNE17.jpg,AMNE09.jpg,AMNE09.jpg,MN,1,num_4,32,num_2,0.0335080403602,,,2017_Oct_11_1816,59.9993649658,MAFE4ImagesEEG,001,201717,
AFNE01.JPG,AFNE01.JPG,AFNE01.JPG,AFNE01.JPG,AFNE01.JPG,AFNE01.JPG,,,,,,,,,,,,,,,,,5,8,58,1,,,,,,,AMNE17.jpg,AMSA08.jpg,AMNE03.jpg,AMSA01.jpg,AMNE03.jpg,MN,1,num_2,16,num_2,1.43342702149,,,2017_Oct_11_1816,59.9993649658,MAFE4ImagesEEG,001,201717,
AFNE01.JPG,AFNE01.JPG,AFNE01.JPG,AFNE01.JPG,AFNE01.JPG,AFNE01.JPG,,,,,,,,,,,,,,,,,5,9,59,8,,,,,,,AMNE19.jpg,AMNE01.jpg,AMSA18.jpg,AMSA15.jpg,AMNE01.jpg,MN,1,num_6,32,num_8,4.7997770214,,,2017_Oct_11_1816,59.9993649658,MAFE4ImagesEEG,001,201717,
,,,,,,,,,,,,,,,,,,,,,,,,,,,,,,,,,,,,,,,,,,,space,35.2644027547,2017_Oct_11_1816,59.9993649658,MAFE4ImagesEEG,001,201717,
AFNE01.JPG,AFNE01.JPG,AFNE01.JPG,AFNE01.JPG,AFNE01.JPG,AFNE01.JPG,,,,,,,,,,,,,,,,,,,,,0,0,0,8,,,AFSA10.jpg,AFSA20.jpg,AFNE03.jpg,AFNE06.jpg,AFSA20.jpg,FS,4,num_6,16,num_6,0.883450098685,,,2017_Oct_11_1816,59.9993649658,MAFE4ImagesEEG,001,201717,
AFNE01.JPG,AFNE01.JPG,AFNE01.JPG,AFNE01.JPG,AFNE01.JPG,AFNE01.JPG,,,,,,,,,,,,,,,,,,,,,0,1,1,0,,,AFNE20.jpg,AFSA10.jpg,AFSA02.jpg,AFNE18.jpg,AFSA10.jpg,FS,4,num_6,32,num_4,1.25008395372,,,2017_Oct_11_1816,59.9993649658,MAFE4ImagesEEG,001,201717,
AFNE01.JPG,AFNE01.JPG,AFNE01.JPG,AFNE01.JPG,AFNE01.JPG,AFNE01.JPG,,,,,,,,,,,,,,,,,,,,,0,2,2,7,,,AFNE14.jpg,AFSA01.jpg,AFSA17.jpg,AFNE16.jpg,AFNE14.jpg,FN,3,num_8,16,num_8,0.93340825825,,,2017_Oct_11_1816,59.9993649658,MAFE4ImagesEEG,001,201717,
AFNE01.JPG,AFNE01.JPG,AFNE01.JPG,AFNE01.JPG,AFNE01.JPG,AFNE01.JPG,,,,,,,,,,,,,,,,,,,,,0,3,3,3,,,AFSA19.jpg,AFNE02.jpg,AFSA17.jpg,AFNE20.jpg,AFSA19.jpg,FS,4,num_8,32,num_6,1.1667778031,,,2017_Oct_11_1816,59.9993649658,MAFE4ImagesEEG,001,201717,
AFNE01.JPG,AFNE01.JPG,AFNE01.JPG,AFNE01.JPG,AFNE01.JPG,AFNE01.JPG,,,,,,,,,,,,,,,,,,,,,0,4,4,4,,,AFNE01.jpg,AFNE03.jpg,AFSA20.jpg,AFSA09.jpg,AFSA20.jpg,FS,4,num_2,32,num_6,0.150183992577,,,2017_Oct_11_1816,59.9993649658,MAFE4ImagesEEG,001,201717,
AFNE01.JPG,AFNE01.JPG,AFNE01.JPG,AFNE01.JPG,AFNE01.JPG,AFNE01.JPG,,,,,,,,,,,,,,,,,,,,,0,5,5,6,,,AFNE04.jpg,AFSA10.jpg,AFNE18.jpg,AFSA06.jpg,AFNE18.jpg,FN,3,num_2,16,num_2,3.5665595074,,,2017_Oct_11_1816,59.9993649658,MAFE4ImagesEEG,001,201717,
AFNE01.JPG,AFNE01.JPG,AFNE01.JPG,AFNE01.JPG,AFNE01.JPG,AFNE01.JPG,,,,,,,,,,,,,,,,,,,,,0,6,6,1,,,AFSA01.jpg,AFNE05.jpg,AFNE13.jpg,AFSA20.jpg,AFNE13.jpg,FN,3,num_2,16,num_2,0.966718402109,,,2017_Oct_11_1816,59.9993649658,MAFE4ImagesEEG,001,201717,
AFNE01.JPG,AFNE01.JPG,AFNE01.JPG,AFNE01.JPG,AFNE01.JPG,AFNE01.JPG,,,,,,,,,,,,,,,,,,,,,0,7,7,5,,,AFSA19.jpg,AFNE01.jpg,AFNE12.jpg,AFSA20.jpg,AFNE01.jpg,FN,3,num_6,32,num_2,1.28340179531,,,2017_Oct_11_1816,59.9993649658,MAFE4ImagesEEG,001,201717,
AFNE01.JPG,AFNE01.JPG,AFNE01.JPG,AFNE01.JPG,AFNE01.JPG,AFNE01.JPG,,,,,,,,,,,,,,,,,,,,,0,8,8,9,,,AFSA07.jpg,AFNE08.jpg,AFNE15.jpg,AFSA09.jpg,AFSA09.jpg,FS,4,num_4,32,num_6,0.383476559771,,,2017_Oct_11_1816,59.9993649658,MAFE4ImagesEEG,001,201717,
AFNE01.JPG,AFNE01.JPG,AFNE01.JPG,AFNE01.JPG,AFNE01.JPG,AFNE01.JPG,,,,,,,,,,,,,,,,,,,,,0,9,9,2,,,AFNE02.jpg,AFNE01.jpg,AFSA13.jpg,AFSA06.jpg,AFSA06.jpg,FS,4,num_4,32,num_8,1.61670818646,,,2017_Oct_11_1816,59.9993649658,MAFE4ImagesEEG,001,201717,
AFNE01.JPG,AFNE01.JPG,AFNE01.JPG,AFNE01.JPG,AFNE01.JPG,AFNE01.JPG,,,,,,,,,,,,,,,,,,,,,1,0,10,2,,,AFSA17.jpg,AFNE20.jpg,AFSA09.jpg,AFNE19.jpg,AFSA17.jpg,FS,4,num_8,32,num_2,1.93337393913,,,2017_Oct_11_1816,59.9993649658,MAFE4ImagesEEG,001,201717,
AFNE01.JPG,AFNE01.JPG,AFNE01.JPG,AFNE01.JPG,AFNE01.JPG,AFNE01.JPG,,,,,,,,,,,,,,,,,,,,,1,1,11,9,,,AFNE17.jpg,AFSA15.jpg,AFNE09.jpg,AFSA17.jpg,AFNE17.jpg,FN,3,num_8,32,num_2,0.816453582956,,,2017_Oct_11_1816,59.9993649658,MAFE4ImagesEEG,001,201717,
AFNE01.JPG,AFNE01.JPG,AFNE01.JPG,AFNE01.JPG,AFNE01.JPG,AFNE01.JPG,,,,,,,,,,,,,,,,,,,,,1,2,12,6,,,AFNE16.jpg,AFSA10.jpg,AFSA15.jpg,AFNE04.jpg,AFNE04.jpg,FN,3,num_4,48,None,,,,2017_Oct_11_1816,59.9993649658,MAFE4ImagesEEG,001,201717,
AFNE01.JPG,AFNE01.JPG,AFNE01.JPG,AFNE01.JPG,AFNE01.JPG,AFNE01.JPG,,,,,,,,,,,,,,,,,,,,,1,3,13,5,,,AFNE02.jpg,AFSA05.jpg,AFSA04.jpg,AFNE14.jpg,AFSA05.jpg,FS,4,num_6,16,num_6,1.06673062232,,,2017_Oct_11_1816,59.9993649658,MAFE4ImagesEEG,001,201717,
AFNE01.JPG,AFNE01.JPG,AFNE01.JPG,AFNE01.JPG,AFNE01.JPG,AFNE01.JPG,,,,,,,,,,,,,,,,,,,,,1,4,14,1,,,AFNE06.jpg,AFSA07.jpg,AFSA16.jpg,AFNE12.jpg,AFSA16.jpg,FS,4,num_2,16,num_2,0.966732835397,,,2017_Oct_11_1816,59.9993649658,MAFE4ImagesEEG,001,201717,
AFNE01.JPG,AFNE01.JPG,AFNE01.JPG,AFNE01.JPG,AFNE01.JPG,AFNE01.JPG,,,,,,,,,,,,,,,,,,,,,1,5,15,8,,,AFNE14.jpg,AFNE20.jpg,AFSA05.jpg,AFSA10.jpg,AFSA05.jpg,FS,4,num_2,16,num_2,1.16674797423,,,2017_Oct_11_1816,59.9993649658,MAFE4ImagesEEG,001,201717,
AFNE01.JPG,AFNE01.JPG,AFNE01.JPG,AFNE01.JPG,AFNE01.JPG,AFNE01.JPG,,,,,,,,,,,,,,,,,,,,,1,6,16,3,,,AFSA19.jpg,AFNE07.jpg,AFNE13.jpg,AFSA20.jpg,AFSA20.jpg,FS,4,num_4,32,num_8,1.46675256081,,,2017_Oct_11_1816,59.9993649658,MAFE4ImagesEEG,001,201717,
AFNE01.JPG,AFNE01.JPG,AFNE01.JPG,AFNE01.JPG,AFNE01.JPG,AFNE01.JPG,,,,,,,,,,,,,,,,,,,,,1,7,17,0,,,AFNE16.jpg,AFNE12.jpg,AFSA03.jpg,AFSA05.jpg,AFSA03.jpg,FS,4,num_2,32,num_6,2.0167025415,,,2017_Oct_11_1816,59.9993649658,MAFE4ImagesEEG,001,201717,
AFNE01.JPG,AFNE01.JPG,AFNE01.JPG,AFNE01.JPG,AFNE01.JPG,AFNE01.JPG,,,,,,,,,,,,,,,,,,,,,1,8,18,7,,,AFNE17.jpg,AFNE15.jpg,AFSA20.jpg,AFSA12.jpg,AFSA20.jpg,FS,4,num_2,16,num_2,2.11670738459,,,2017_Oct_11_1816,59.9993649658,MAFE4ImagesEEG,001,201717,
AFNE01.JPG,AFNE01.JPG,AFNE01.JPG,AFNE01.JPG,AFNE01.JPG,AFNE01.JPG,,,,,,,,,,,,,,,,,,,,,1,9,19,4,,,AFSA04.jpg,AFSA14.jpg,AFNE17.jpg,AFNE09.jpg,AFNE17.jpg,FN,3,num_2,32,num_8,1.08343252225,,,2017_Oct_11_1816,59.9993649658,MAFE4ImagesEEG,001,201717,
AFNE01.JPG,AFNE01.JPG,AFNE01.JPG,AFNE01.JPG,AFNE01.JPG,AFNE01.JPG,,,,,,,,,,,,,,,,,,,,,2,0,20,7,,,AFSA13.jpg,AFNE05.jpg,AFNE09.jpg,AFSA10.jpg,AFNE09.jpg,FN,3,num_2,32,num_8,3.03330116312,,,2017_Oct_11_1816,59.9993649658,MAFE4ImagesEEG,001,201717,
AFNE01.JPG,AFNE01.JPG,AFNE01.JPG,AFNE01.JPG,AFNE01.JPG,AFNE01.JPG,,,,,,,,,,,,,,,,,,,,,2,1,21,6,,,AFNE20.jpg,AFNE03.jpg,AFSA09.jpg,AFSA08.jpg,AFSA08.jpg,FS,4,num_4,32,num_6,1.73338478,,,2017_Oct_11_1816,59.9993649658,MAFE4ImagesEEG,001,201717,
AFNE01.JPG,AFNE01.JPG,AFNE01.JPG,AFNE01.JPG,AFNE01.JPG,AFNE01.JPG,,,,,,,,,,,,,,,,,,,,,2,2,22,3,,,AFNE09.jpg,AFSA07.jpg,AFNE15.jpg,AFSA13.jpg,AFNE09.jpg,FN,3,num_8,32,num_4,1.00010359904,,,2017_Oct_11_1816,59.9993649658,MAFE4ImagesEEG,001,201717,
AFNE01.JPG,AFNE01.JPG,AFNE01.JPG,AFNE01.JPG,AFNE01.JPG,AFNE01.JPG,,,,,,,,,,,,,,,,,,,,,2,3,23,1,,,AFSA15.jpg,AFSA05.jpg,AFNE04.jpg,AFNE13.jpg,AFSA05.jpg,FS,4,num_6,32,num_4,4.46673492016,,,2017_Oct_11_1816,59.9993649658,MAFE4ImagesEEG,001,201717,
AFNE01.JPG,AFNE01.JPG,AFNE01.JPG,AFNE01.JPG,AFNE01.JPG,AFNE01.JPG,,,,,,,,,,,,,,,,,,,,,2,4,24,4,,,AFSA02.jpg,AFNE04.jpg,AFNE03.jpg,AFSA07.jpg,AFSA07.jpg,FS,4,num_4,32,num_8,1.7666772831,,,2017_Oct_11_1816,59.9993649658,MAFE4ImagesEEG,001,201717,
AFNE01.JPG,AFNE01.JPG,AFNE01.JPG,AFNE01.JPG,AFNE01.JPG,AFNE01.JPG,,,,,,,,,,,,,,,,,,,,,2,5,25,5,,,AFSA05.jpg,AFNE14.jpg,AFNE11.jpg,AFSA17.jpg,AFSA17.jpg,FS,4,num_4,32,num_6,4.59981833282,,,2017_Oct_11_1816,59.9993649658,MAFE4ImagesEEG,001,201717,
AFNE01.JPG,AFNE01.JPG,AFNE01.JPG,AFNE01.JPG,AFNE01.JPG,AFNE01.JPG,,,,,,,,,,,,,,,,,,,,,2,6,26,2,,,AFNE20.jpg,AFSA17.jpg,AFNE03.jpg,AFSA05.jpg,AFNE03.jpg,FN,3,num_2,32,num_8,1.73340466595,,,2017_Oct_11_1816,59.9993649658,MAFE4ImagesEEG,001,201717,
AFNE01.JPG,AFNE01.JPG,AFNE01.JPG,AFNE01.JPG,AFNE01.JPG,AFNE01.JPG,,,,,,,,,,,,,,,,,,,,,2,7,27,0,,,AFNE01.jpg,AFSA12.jpg,AFSA17.jpg,AFNE05.jpg,AFNE01.jpg,FN,3,num_8,16,num_8,3.24991781032,,,2017_Oct_11_1816,59.9993649658,MAFE4ImagesEEG,001,201717,
AFNE01.JPG,AFNE01.JPG,AFNE01.JPG,AFNE01.JPG,AFNE01.JPG,AFNE01.JPG,,,,,,,,,,,,,,,,,,,,,2,8,28,8,,,AFSA11.jpg,AFNE09.jpg,AFSA14.jpg,AFNE19.jpg,AFNE19.jpg,FN,3,num_4,32,num_6,1.83340566023,,,2017_Oct_11_1816,59.9993649658,MAFE4ImagesEEG,001,201717,
AFNE01.JPG,AFNE01.JPG,AFNE01.JPG,AFNE01.JPG,AFNE01.JPG,AFNE01.JPG,,,,,,,,,,,,,,,,,,,,,2,9,29,9,,,AFNE14.jpg,AFSA18.jpg,AFNE17.jpg,AFSA09.jpg,AFNE14.jpg,FN,3,num_8,16,num_8,0.850082863239,,,2017_Oct_11_1816,59.9993649658,MAFE4ImagesEEG,001,201717,
AFNE01.JPG,AFNE01.JPG,AFNE01.JPG,AFNE01.JPG,AFNE01.JPG,AFNE01.JPG,,,,,,,,,,,,,,,,,,,,,3,0,30,2,,,AFNE12.jpg,AFSA03.jpg,AFSA20.jpg,AFNE13.jpg,AFSA03.jpg,FS,4,num_6,32,num_2,1.36673617107,,,2017_Oct_11_1816,59.9993649658,MAFE4ImagesEEG,001,201717,
AFNE01.JPG,AFNE01.JPG,AFNE01.JPG,AFNE01.JPG,AFNE01.JPG,AFNE01.JPG,,,,,,,,,,,,,,,,,,,,,3,1,31,7,,,AFNE11.jpg,AFSA06.jpg,AFNE20.jpg,AFSA19.jpg,AFSA19.jpg,FS,4,num_4,32,num_8,0.700151934638,,,2017_Oct_11_1816,59.9993649658,MAFE4ImagesEEG,001,201717,
AFNE01.JPG,AFNE01.JPG,AFNE01.JPG,AFNE01.JPG,AFNE01.JPG,AFNE01.JPG,,,,,,,,,,,,,,,,,,,,,3,2,32,3,,,AFSA01.jpg,AFNE02.jpg,AFSA09.jpg,AFNE18.jpg,AFNE18.jpg,FN,3,num_4,32,num_2,2.36661428981,,,2017_Oct_11_1816,59.9993649658,MAFE4ImagesEEG,001,201717,
AFNE01.JPG,AFNE01.JPG,AFNE01.JPG,AFNE01.JPG,AFNE01.JPG,AFNE01.JPG,,,,,,,,,,,,,,,,,,,,,3,3,33,0,,,AFSA13.jpg,AFSA14.jpg,AFNE12.jpg,AFNE13.jpg,AFSA13.jpg,FS,4,num_8,32,num_6,1.41669625498,,,2017_Oct_11_1816,59.9993649658,MAFE4ImagesEEG,001,201717,
AFNE01.JPG,AFNE01.JPG,AFNE01.JPG,AFNE01.JPG,AFNE01.JPG,AFNE01.JPG,,,,,,,,,,,,,,,,,,,,,3,4,34,5,,,AFNE05.jpg,AFSA11.jpg,AFSA09.jpg,AFNE13.jpg,AFNE05.jpg,FN,3,num_8,16,num_8,1.2501041604,,,2017_Oct_11_1816,59.9993649658,MAFE4ImagesEEG,001,201717,
AFNE01.JPG,AFNE01.JPG,AFNE01.JPG,AFNE01.JPG,AFNE01.JPG,AFNE01.JPG,,,,,,,,,,,,,,,,,,,,,3,5,35,4,,,AFSA03.jpg,AFSA08.jpg,AFNE08.jpg,AFNE19.jpg,AFSA03.jpg,FS,4,num_8,32,num_4,0.916644455399,,,2017_Oct_11_1816,59.9993649658,MAFE4ImagesEEG,001,201717,
AFNE01.JPG,AFNE01.JPG,AFNE01.JPG,AFNE01.JPG,AFNE01.JPG,AFNE01.JPG,,,,,,,,,,,,,,,,,,,,,3,6,36,6,,,AFSA19.jpg,AFNE07.jpg,AFNE10.jpg,AFSA11.jpg,AFNE10.jpg,FN,3,num_2,32,num_6,1.93344289809,,,2017_Oct_11_1816,59.9993649658,MAFE4ImagesEEG,001,201717,
AFNE01.JPG,AFNE01.JPG,AFNE01.JPG,AFNE01.JPG,AFNE01.JPG,AFNE01.JPG,,,,,,,,,,,,,,,,,,,,,3,7,37,8,,,AFNE11.jpg,AFNE18.jpg,AFSA20.jpg,AFSA11.jpg,AFSA11.jpg,FS,4,num_4,16,num_4,0.850112371263,,,2017_Oct_11_1816,59.9993649658,MAFE4ImagesEEG,001,201717,
AFNE01.JPG,AFNE01.JPG,AFNE01.JPG,AFNE01.JPG,AFNE01.JPG,AFNE01.JPG,,,,,,,,,,,,,,,,,,,,,3,8,38,9,,,AFNE08.jpg,AFSA01.jpg,AFNE13.jpg,AFSA18.jpg,AFSA01.jpg,FS,4,num_6,16,num_6,1.10011325334,,,2017_Oct_11_1816,59.9993649658,MAFE4ImagesEEG,001,201717,
AFNE01.JPG,AFNE01.JPG,AFNE01.JPG,AFNE01.JPG,AFNE01.JPG,AFNE01.JPG,,,,,,,,,,,,,,,,,,,,,3,9,39,1,,,AFSA16.jpg,AFSA08.jpg,AFNE03.jpg,AFNE02.jpg,AFNE02.jpg,FN,3,num_4,16,num_4,1.13342852902,,,2017_Oct_11_1816,59.9993649658,MAFE4ImagesEEG,001,201717,
AFNE01.JPG,AFNE01.JPG,AFNE01.JPG,AFNE01.JPG,AFNE01.JPG,AFNE01.JPG,,,,,,,,,,,,,,,,,,,,,4,0,40,2,,,AFSA12.jpg,AFNE13.jpg,AFSA16.jpg,AFNE04.jpg,AFSA16.jpg,FS,4,num_2,16,num_2,1.46674518392,,,2017_Oct_11_1816,59.9993649658,MAFE4ImagesEEG,001,201717,
