IPosition2,IPosition3,IPosition1,IPosition6,IPosition4,IPosition5,TrialsM1.thisRepN,TrialsM1.thisTrialN,TrialsM1.thisN,TrialsM1.thisIndex,TrialsF1.thisRepN,TrialsF1.thisTrialN,TrialsF1.thisN,TrialsF1.thisIndex,TrialsM2.thisRepN,TrialsM2.thisTrialN,TrialsM2.thisN,TrialsM2.thisIndex,TrialsF2.thisRepN,TrialsF2.thisTrialN,TrialsF2.thisN,TrialsF2.thisIndex,TrialsM3.thisRepN,TrialsM3.thisTrialN,TrialsM3.thisN,TrialsM3.thisIndex,TrialsF3.thisRepN,TrialsF3.thisTrialN,TrialsF3.thisN,TrialsF3.thisIndex,InstrKey_resp.keys,InstrKey_resp.rt,Image0 _Position,Image1 _Position,Image2 _Position,Image3 _Position,Center_image,condition,code,correct_answer,accuracy,Key_Resp.keys,Key_Resp.rt,BreakKey_resp.keys,BreakKey_resp.rt,date,frameRate,expName,session,participant,
,,,,,,,,,,,,,,,,,,,,,,,,,,,,,,space,3.18336936855,,,,,,,,,,,,,,2017_Oct_13_1815,60.0112601123,MAFE4ImagesEEG,001,201801,
AFSA21.JPG,AFNE22.JPG,AFNE21.JPG,AFSA23.JPG,AFSA22.JPG,AFNE23.JPG,0,0,0,0,,,,,,,,,,,,,,,,,,,,,,,AMSA16.jpg,AMNE20.jpg,AMNE01.jpg,AMSA06.jpg,AMNE20.jpg,MN,1,num_6,32,num_4,1.13346124452,,,2017_Oct_13_1815,60.0112601123,MAFE4ImagesEEG,001,201801,
AMSA25.JPG,AMNE24.JPG,AMSA24.JPG,AMNE26.JPG,AMSA21.JPG,AMNE25.JPG,0,1,1,3,,,,,,,,,,,,,,,,,,,,,,,AMSA04.jpg,AMNE08.jpg,AMSA02.jpg,AMNE06.jpg,AMSA04.jpg,MS,2,num_8,32,num_2,1.31673022127,,,2017_Oct_13_1815,60.0112601123,MAFE4ImagesEEG,001,201801,
AMSA21.JPG,AMNE22.JPG,AMNE21.JPG,AMSA23.JPG,AMSA22.JPG,AMNE23.JPG,0,2,2,1,,,,,,,,,,,,,,,,,,,,,,,AMNE07.jpg,AMSA14.jpg,AMNE14.jpg,AMSA19.jpg,AMSA14.jpg,MS,2,num_6,16,num_6,0.716793535394,,,2017_Oct_13_1815,60.0112601123,MAFE4ImagesEEG,001,201801,
AMSA21.JPG,AMNE23.JPG,AMNE21.JPG,AMSA25.JPG,AMNE25.JPG,AMSA23.JPG,0,3,3,5,,,,,,,,,,,,,,,,,,,,,,,AMSA03.jpg,AMNE12.jpg,AMNE06.jpg,AMSA16.jpg,AMNE06.jpg,MN,1,num_2,16,num_2,0.583506132127,,,2017_Oct_13_1815,60.0112601123,MAFE4ImagesEEG,001,201801,
AMNE23.JPG,AMNE24.JPG,AMNE22.JPG,AMSA24.JPG,AMSA22.JPG,AMSA23.JPG,0,4,4,9,,,,,,,,,,,,,,,,,,,,,,,AMNE02.jpg,AMSA15.jpg,AMNE18.jpg,AMSA02.jpg,AMNE02.jpg,MN,1,num_8,32,num_4,0.466821199283,,,2017_Oct_13_1815,60.0112601123,MAFE4ImagesEEG,001,201801,
AFNE22.JPG,AFSA24.JPG,AFSA22.JPG,AFNE25.JPG,AFNE24.JPG,AFSA25.JPG,0,5,5,6,,,,,,,,,,,,,,,,,,,,,,,AMSA16.jpg,AMNE19.jpg,AMNE07.jpg,AMSA09.jpg,AMSA16.jpg,MS,2,num_8,32,num_4,0.350256543956,,,2017_Oct_13_1815,60.0112601123,MAFE4ImagesEEG,001,201801,
AMNE22.JPG,AMSA24.JPG,AMSA22.JPG,AMNE25.JPG,AMNE24.JPG,AMSA25.JPG,0,6,6,7,,,,,,,,,,,,,,,,,,,,,,,AMNE17.jpg,AMSA03.jpg,AMSA15.jpg,AMNE02.jpg,AMNE17.jpg,MN,1,num_8,16,num_8,0.800140740699,,,2017_Oct_13_1815,60.0112601123,MAFE4ImagesEEG,001,201801,
AFSA21.JPG,AFNE23.JPG,AFNE21.JPG,AFSA25.JPG,AFNE25.JPG,AFSA23.JPG,0,7,7,4,,,,,,,,,,,,,,,,,,,,,,,AMNE14.jpg,AMSA07.jpg,AMNE01.jpg,AMSA14.jpg,AMSA07.jpg,MS,2,num_6,16,num_6,1.01672852144,,,2017_Oct_13_1815,60.0112601123,MAFE4ImagesEEG,001,201801,
AFNE23.JPG,AFNE24.JPG,AFNE22.JPG,AFSA24.JPG,AFSA22.JPG,AFSA23.JPG,0,8,8,8,,,,,,,,,,,,,,,,,,,,,,,AMNE07.jpg,AMSA09.jpg,AMSA13.jpg,AMNE02.jpg,AMNE07.jpg,MN,1,num_8,32,num_2,0.850071316469,,,2017_Oct_13_1815,60.0112601123,MAFE4ImagesEEG,001,201801,
AFSA25.JPG,AFNE24.JPG,AFSA24.JPG,AFNE21.JPG,AFSA21.JPG,AFNE25.JPG,0,9,9,2,,,,,,,,,,,,,,,,,,,,,,,AMNE14.jpg,AMNE01.jpg,AMSA03.jpg,AMSA05.jpg,AMSA05.jpg,MS,2,num_4,16,num_4,0.450207502814,,,2017_Oct_13_1815,60.0112601123,MAFE4ImagesEEG,001,201801,
AMSA25.JPG,AMNE24.JPG,AMSA24.JPG,AMNE26.JPG,AMSA21.JPG,AMNE25.JPG,,,,,0,0,0,3,,,,,,,,,,,,,,,,,,,AFSA19.jpg,AFSA14.jpg,AFNE20.jpg,AFNE04.jpg,AFNE20.jpg,FN,3,num_2,32,num_4,0.516831960063,,,2017_Oct_13_1815,60.0112601123,MAFE4ImagesEEG,001,201801,
AMNE22.JPG,AMSA24.JPG,AMSA22.JPG,AMNE25.JPG,AMNE24.JPG,AMSA25.JPG,,,,,0,1,1,7,,,,,,,,,,,,,,,,,,,AFSA16.jpg,AFNE03.jpg,AFSA18.jpg,AFNE05.jpg,AFSA16.jpg,FS,4,num_8,32,num_6,0.75018354354,,,2017_Oct_13_1815,60.0112601123,MAFE4ImagesEEG,001,201801,
AFNE23.JPG,AFNE24.JPG,AFNE22.JPG,AFSA24.JPG,AFSA22.JPG,AFSA23.JPG,,,,,0,2,2,8,,,,,,,,,,,,,,,,,,,AFNE12.jpg,AFSA08.jpg,AFNE04.jpg,AFSA17.jpg,AFNE04.jpg,FN,3,num_2,16,num_2,0.48342270765,,,2017_Oct_13_1815,60.0112601123,MAFE4ImagesEEG,001,201801,
AFNE22.JPG,AFSA24.JPG,AFSA22.JPG,AFNE25.JPG,AFNE24.JPG,AFSA25.JPG,,,,,0,3,3,6,,,,,,,,,,,,,,,,,,,AFNE14.jpg,AFSA17.jpg,AFSA10.jpg,AFNE20.jpg,AFSA10.jpg,FS,4,num_2,32,num_8,0.300184521824,,,2017_Oct_13_1815,60.0112601123,MAFE4ImagesEEG,001,201801,
AFSA21.JPG,AFNE23.JPG,AFNE21.JPG,AFSA25.JPG,AFNE25.JPG,AFSA23.JPG,,,,,0,4,4,4,,,,,,,,,,,,,,,,,,,AFNE20.jpg,AFSA02.jpg,AFSA10.jpg,AFNE10.jpg,AFNE20.jpg,FN,3,num_8,32,num_4,0.583518320229,,,2017_Oct_13_1815,60.0112601123,MAFE4ImagesEEG,001,201801,
AMNE23.JPG,AMNE24.JPG,AMNE22.JPG,AMSA24.JPG,AMSA22.JPG,AMSA23.JPG,,,,,0,5,5,9,,,,,,,,,,,,,,,,,,,AFSA19.jpg,AFSA01.jpg,AFNE09.jpg,AFNE10.jpg,AFNE09.jpg,FN,3,num_2,32,num_4,0.583468605531,,,2017_Oct_13_1815,60.0112601123,MAFE4ImagesEEG,001,201801,
AFSA21.JPG,AFNE22.JPG,AFNE21.JPG,AFSA23.JPG,AFSA22.JPG,AFNE23.JPG,,,,,0,6,6,0,,,,,,,,,,,,,,,,,,,AFNE07.jpg,AFSA07.jpg,AFSA17.jpg,AFNE13.jpg,AFSA17.jpg,FS,4,num_2,32,num_6,0.666759681306,,,2017_Oct_13_1815,60.0112601123,MAFE4ImagesEEG,001,201801,
AFSA25.JPG,AFNE24.JPG,AFSA24.JPG,AFNE21.JPG,AFSA21.JPG,AFNE25.JPG,,,,,0,7,7,2,,,,,,,,,,,,,,,,,,,AFNE15.jpg,AFNE06.jpg,AFSA14.jpg,AFSA05.jpg,AFSA05.jpg,FS,4,num_4,16,num_4,0.466788163059,,,2017_Oct_13_1815,60.0112601123,MAFE4ImagesEEG,001,201801,
AMSA21.JPG,AMNE23.JPG,AMNE21.JPG,AMSA25.JPG,AMNE25.JPG,AMSA23.JPG,,,,,0,8,8,5,,,,,,,,,,,,,,,,,,,AFNE03.jpg,AFSA02.jpg,AFSA11.jpg,AFNE13.jpg,AFNE13.jpg,FN,3,num_4,16,num_4,0.500170152634,,,2017_Oct_13_1815,60.0112601123,MAFE4ImagesEEG,001,201801,
AMSA21.JPG,AMNE22.JPG,AMNE21.JPG,AMSA23.JPG,AMSA22.JPG,AMNE23.JPG,,,,,0,9,9,1,,,,,,,,,,,,,,,,,,,AFSA12.jpg,AFSA04.jpg,AFNE20.jpg,AFNE10.jpg,AFSA04.jpg,FS,4,num_6,32,num_2,0.350160001195,,,2017_Oct_13_1815,60.0112601123,MAFE4ImagesEEG,001,201801,
AMNE23.JPG,AMNE24.JPG,AMNE22.JPG,AMSA24.JPG,AMSA22.JPG,AMSA23.JPG,,,,,,,,,0,0,0,9,,,,,,,,,,,,,,,AMNE20.jpg,AMSA13.jpg,AMNE14.jpg,AMSA02.jpg,AMSA02.jpg,MS,2,num_4,16,num_4,0.700143595343,,,2017_Oct_13_1815,60.0112601123,MAFE4ImagesEEG,001,201801,
AMSA25.JPG,AMNE24.JPG,AMSA24.JPG,AMNE26.JPG,AMSA21.JPG,AMNE25.JPG,,,,,,,,,0,1,1,3,,,,,,,,,,,,,,,AMSA14.jpg,AMNE02.jpg,AMNE18.jpg,AMSA16.jpg,AMNE02.jpg,MN,1,num_6,16,num_6,0.983114315895,,,2017_Oct_13_1815,60.0112601123,MAFE4ImagesEEG,001,201801,
AFSA25.JPG,AFNE24.JPG,AFSA24.JPG,AFNE21.JPG,AFSA21.JPG,AFNE25.JPG,,,,,,,,,0,2,2,2,,,,,,,,,,,,,,,AMSA01.jpg,AMSA10.jpg,AMNE15.jpg,AMNE18.jpg,AMSA01.jpg,MS,2,num_8,16,num_8,0.550030807033,,,2017_Oct_13_1815,60.0112601123,MAFE4ImagesEEG,001,201801,
AMSA21.JPG,AMNE22.JPG,AMNE21.JPG,AMSA23.JPG,AMSA22.JPG,AMNE23.JPG,,,,,,,,,0,3,3,1,,,,,,,,,,,,,,,AMSA11.jpg,AMSA06.jpg,AMNE05.jpg,AMNE03.jpg,AMNE03.jpg,MN,1,num_4,32,num_8,1.13343334,,,2017_Oct_13_1815,60.0112601123,MAFE4ImagesEEG,001,201801,
AMSA21.JPG,AMNE23.JPG,AMNE21.JPG,AMSA25.JPG,AMNE25.JPG,AMSA23.JPG,,,,,,,,,0,4,4,5,,,,,,,,,,,,,,,AMSA12.jpg,AMSA09.jpg,AMNE20.jpg,AMNE03.jpg,AMSA12.jpg,MS,2,num_8,32,num_4,0.533517502365,,,2017_Oct_13_1815,60.0112601123,MAFE4ImagesEEG,001,201801,
AFNE23.JPG,AFNE24.JPG,AFNE22.JPG,AFSA24.JPG,AFSA22.JPG,AFSA23.JPG,,,,,,,,,0,5,5,8,,,,,,,,,,,,,,,AMSA07.jpg,AMSA05.jpg,AMNE15.jpg,AMNE01.jpg,AMSA07.jpg,MS,2,num_8,32,num_4,0.466826972552,,,2017_Oct_13_1815,60.0112601123,MAFE4ImagesEEG,001,201801,
AMNE22.JPG,AMSA24.JPG,AMSA22.JPG,AMNE25.JPG,AMNE24.JPG,AMSA25.JPG,,,,,,,,,0,6,6,7,,,,,,,,,,,,,,,AMSA04.jpg,AMNE09.jpg,AMSA10.jpg,AMNE14.jpg,AMSA04.jpg,MS,2,num_8,16,num_8,0.750131583656,,,2017_Oct_13_1815,60.0112601123,MAFE4ImagesEEG,001,201801,
AFSA21.JPG,AFNE22.JPG,AFNE21.JPG,AFSA23.JPG,AFSA22.JPG,AFNE23.JPG,,,,,,,,,0,7,7,0,,,,,,,,,,,,,,,AMSA15.jpg,AMSA18.jpg,AMNE07.jpg,AMNE20.jpg,AMSA15.jpg,MS,2,num_8,32,num_4,3.03330244613,,,2017_Oct_13_1815,60.0112601123,MAFE4ImagesEEG,001,201801,
AFNE22.JPG,AFSA24.JPG,AFSA22.JPG,AFNE25.JPG,AFNE24.JPG,AFSA25.JPG,,,,,,,,,0,8,8,6,,,,,,,,,,,,,,,AMSA15.jpg,AMSA07.jpg,AMNE03.jpg,AMNE16.jpg,AMSA07.jpg,MS,2,num_6,16,num_6,0.933298885822,,,2017_Oct_13_1815,60.0112601123,MAFE4ImagesEEG,001,201801,
AFSA21.JPG,AFNE23.JPG,AFNE21.JPG,AFSA25.JPG,AFNE25.JPG,AFSA23.JPG,,,,,,,,,0,9,9,4,,,,,,,,,,,,,,,AMNE01.jpg,AMSA19.jpg,AMSA01.jpg,AMNE10.jpg,AMNE10.jpg,MN,1,num_4,16,num_4,0.450135336258,,,2017_Oct_13_1815,60.0112601123,MAFE4ImagesEEG,001,201801,
AMSA25.JPG,AMNE24.JPG,AMSA24.JPG,AMNE26.JPG,AMSA21.JPG,AMNE25.JPG,,,,,,,,,,,,,0,0,0,3,,,,,,,,,,,AFSA12.jpg,AFNE05.jpg,AFSA03.jpg,AFNE06.jpg,AFNE06.jpg,FN,3,num_4,16,num_4,0.816817302257,,,2017_Oct_13_1815,60.0112601123,MAFE4ImagesEEG,001,201801,
AMNE22.JPG,AMSA24.JPG,AMSA22.JPG,AMNE25.JPG,AMNE24.JPG,AMSA25.JPG,,,,,,,,,,,,,0,1,1,7,,,,,,,,,,,AFNE04.jpg,AFNE19.jpg,AFSA01.jpg,AFSA19.jpg,AFSA01.jpg,FS,4,num_2,32,num_4,0.683493334567,,,2017_Oct_13_1815,60.0112601123,MAFE4ImagesEEG,001,201801,
AFNE22.JPG,AFSA24.JPG,AFSA22.JPG,AFNE25.JPG,AFNE24.JPG,AFSA25.JPG,,,,,,,,,,,,,0,2,2,6,,,,,,,,,,,AFNE04.jpg,AFSA11.jpg,AFNE10.jpg,AFSA12.jpg,AFNE10.jpg,FN,3,num_2,32,num_8,0.750048512011,,,2017_Oct_13_1815,60.0112601123,MAFE4ImagesEEG,001,201801,
AMSA21.JPG,AMNE23.JPG,AMNE21.JPG,AMSA25.JPG,AMNE25.JPG,AMSA23.JPG,,,,,,,,,,,,,0,3,3,5,,,,,,,,,,,AFNE08.jpg,AFSA02.jpg,AFSA16.jpg,AFNE20.jpg,AFSA16.jpg,FS,4,num_2,32,num_6,0.983459752984,,,2017_Oct_13_1815,60.0112601123,MAFE4ImagesEEG,001,201801,
AFSA21.JPG,AFNE23.JPG,AFNE21.JPG,AFSA25.JPG,AFNE25.JPG,AFSA23.JPG,,,,,,,,,,,,,0,4,4,4,,,,,,,,,,,AFNE08.jpg,AFNE06.jpg,AFSA01.jpg,AFSA19.jpg,AFSA01.jpg,FS,4,num_2,16,num_2,0.433486358379,,,2017_Oct_13_1815,60.0112601123,MAFE4ImagesEEG,001,201801,
AFSA21.JPG,AFNE22.JPG,AFNE21.JPG,AFSA23.JPG,AFSA22.JPG,AFNE23.JPG,,,,,,,,,,,,,0,5,5,0,,,,,,,,,,,AFNE03.jpg,AFSA07.jpg,AFNE14.jpg,AFSA16.jpg,AFNE03.jpg,FN,3,num_8,32,num_4,1.06686950277,,,2017_Oct_13_1815,60.0112601123,MAFE4ImagesEEG,001,201801,
AMSA21.JPG,AMNE22.JPG,AMNE21.JPG,AMSA23.JPG,AMSA22.JPG,AMNE23.JPG,,,,,,,,,,,,,0,6,6,1,,,,,,,,,,,AFSA17.jpg,AFSA08.jpg,AFNE12.jpg,AFNE02.jpg,AFSA17.jpg,FS,4,num_8,32,num_6,0.500303901266,,,2017_Oct_13_1815,60.0112601123,MAFE4ImagesEEG,001,201801,
AFSA25.JPG,AFNE24.JPG,AFSA24.JPG,AFNE21.JPG,AFSA21.JPG,AFNE25.JPG,,,,,,,,,,,,,0,7,7,2,,,,,,,,,,,AFNE07.jpg,AFSA15.jpg,AFSA03.jpg,AFNE04.jpg,AFSA15.jpg,FS,4,num_6,32,num_4,0.733476832393,,,2017_Oct_13_1815,60.0112601123,MAFE4ImagesEEG,001,201801,
AMNE23.JPG,AMNE24.JPG,AMNE22.JPG,AMSA24.JPG,AMSA22.JPG,AMSA23.JPG,,,,,,,,,,,,,0,8,8,9,,,,,,,,,,,AFNE02.jpg,AFSA02.jpg,AFSA17.jpg,AFNE11.jpg,AFNE02.jpg,FN,3,num_8,32,num_4,0.81680190668,,,2017_Oct_13_1815,60.0112601123,MAFE4ImagesEEG,001,201801,
AFNE23.JPG,AFNE24.JPG,AFNE22.JPG,AFSA24.JPG,AFSA22.JPG,AFSA23.JPG,,,,,,,,,,,,,0,9,9,8,,,,,,,,,,,AFSA02.jpg,AFSA06.jpg,AFNE11.jpg,AFNE19.jpg,AFSA06.jpg,FS,4,num_6,16,num_6,0.766742393374,,,2017_Oct_13_1815,60.0112601123,MAFE4ImagesEEG,001,201801,
AFSA21.JPG,AFNE22.JPG,AFNE21.JPG,AFSA23.JPG,AFSA22.JPG,AFNE23.JPG,,,,,,,,,,,,,,,,,0,0,0,0,,,,,,,AMSA04.jpg,AMNE09.jpg,AMNE11.jpg,AMSA11.jpg,AMNE11.jpg,MN,1,num_2,32,num_4,0.500129418564,,,2017_Oct_13_1815,60.0112601123,MAFE4ImagesEEG,001,201801,
AFNE22.JPG,AFSA24.JPG,AFSA22.JPG,AFNE25.JPG,AFNE24.JPG,AFSA25.JPG,,,,,,,,,,,,,,,,,0,1,1,6,,,,,,,AMSA19.jpg,AMNE15.jpg,AMSA03.jpg,AMNE14.jpg,AMSA03.jpg,MS,2,num_2,16,num_2,0.933489084826,,,2017_Oct_13_1815,60.0112601123,MAFE4ImagesEEG,001,201801,
AMNE23.JPG,AMNE24.JPG,AMNE22.JPG,AMSA24.JPG,AMSA22.JPG,AMSA23.JPG,,,,,,,,,,,,,,,,,0,2,2,9,,,,,,,AMSA03.jpg,AMSA09.jpg,AMNE03.jpg,AMNE02.jpg,AMNE03.jpg,MN,1,num_2,32,num_6,0.600024568732,,,2017_Oct_13_1815,60.0112601123,MAFE4ImagesEEG,001,201801,
AMSA25.JPG,AMNE24.JPG,AMSA24.JPG,AMNE26.JPG,AMSA21.JPG,AMNE25.JPG,,,,,,,,,,,,,,,,,0,3,3,3,,,,,,,AMSA15.jpg,AMNE12.jpg,AMSA20.jpg,AMNE19.jpg,AMSA20.jpg,MS,2,num_2,32,num_6,1.05008549325,,,2017_Oct_13_1815,60.0112601123,MAFE4ImagesEEG,001,201801,
AMNE22.JPG,AMSA24.JPG,AMSA22.JPG,AMNE25.JPG,AMNE24.JPG,AMSA25.JPG,,,,,,,,,,,,,,,,,0,4,4,7,,,,,,,AMSA06.jpg,AMSA09.jpg,AMNE13.jpg,AMNE01.jpg,AMNE01.jpg,MN,1,num_4,32,num_8,1.38345891912,,,2017_Oct_13_1815,60.0112601123,MAFE4ImagesEEG,001,201801,
AMSA21.JPG,AMNE22.JPG,AMNE21.JPG,AMSA23.JPG,AMSA22.JPG,AMNE23.JPG,,,,,,,,,,,,,,,,,0,5,5,1,,,,,,,AMSA19.jpg,AMNE09.jpg,AMNE03.jpg,AMSA01.jpg,AMNE09.jpg,MN,1,num_6,16,num_6,0.88349660614,,,2017_Oct_13_1815,60.0112601123,MAFE4ImagesEEG,001,201801,
AMSA21.JPG,AMNE23.JPG,AMNE21.JPG,AMSA25.JPG,AMNE25.JPG,AMSA23.JPG,,,,,,,,,,,,,,,,,0,6,6,5,,,,,,,AMNE09.jpg,AMSA14.jpg,AMSA18.jpg,AMNE15.jpg,AMSA14.jpg,MS,2,num_6,32,num_2,0.850134502398,,,2017_Oct_13_1815,60.0112601123,MAFE4ImagesEEG,001,201801,
AFSA21.JPG,AFNE23.JPG,AFNE21.JPG,AFSA25.JPG,AFNE25.JPG,AFSA23.JPG,,,,,,,,,,,,,,,,,0,7,7,4,,,,,,,AMSA16.jpg,AMNE06.jpg,AMSA13.jpg,AMNE12.jpg,AMSA13.jpg,MS,2,num_2,32,num_6,0.666829602676,,,2017_Oct_13_1815,60.0112601123,MAFE4ImagesEEG,001,201801,
AFNE23.JPG,AFNE24.JPG,AFNE22.JPG,AFSA24.JPG,AFSA22.JPG,AFSA23.JPG,,,,,,,,,,,,,,,,,0,8,8,8,,,,,,,AMSA20.jpg,AMSA17.jpg,AMNE05.jpg,AMNE13.jpg,AMNE13.jpg,MN,1,num_4,16,num_4,0.550154292025,,,2017_Oct_13_1815,60.0112601123,MAFE4ImagesEEG,001,201801,
AFSA25.JPG,AFNE24.JPG,AFSA24.JPG,AFNE21.JPG,AFSA21.JPG,AFNE25.JPG,,,,,,,,,,,,,,,,,0,9,9,2,,,,,,,AMNE09.jpg,AMNE14.jpg,AMSA16.jpg,AMSA01.jpg,AMSA01.jpg,MS,2,num_4,16,num_4,0.533474843833,,,2017_Oct_13_1815,60.0112601123,MAFE4ImagesEEG,001,201801,
AFSA25.JPG,AFNE24.JPG,AFSA24.JPG,AFNE21.JPG,AFSA21.JPG,AFNE25.JPG,,,,,,,,,,,,,,,,,,,,,0,0,0,2,,,AFNE09.jpg,AFSA18.jpg,AFSA02.jpg,AFNE04.jpg,AFSA18.jpg,FS,4,num_6,32,num_8,0.616782918922,,,2017_Oct_13_1815,60.0112601123,MAFE4ImagesEEG,001,201801,
AFNE23.JPG,AFNE24.JPG,AFNE22.JPG,AFSA24.JPG,AFSA22.JPG,AFSA23.JPG,,,,,,,,,,,,,,,,,,,,,0,1,1,8,,,AFNE15.jpg,AFNE07.jpg,AFSA16.jpg,AFSA14.jpg,AFNE15.jpg,FN,3,num_8,32,num_6,0.766782165156,,,2017_Oct_13_1815,60.0112601123,MAFE4ImagesEEG,001,201801,
AMSA25.JPG,AMNE24.JPG,AMSA24.JPG,AMNE26.JPG,AMSA21.JPG,AMNE25.JPG,,,,,,,,,,,,,,,,,,,,,0,2,2,3,,,AFSA14.jpg,AFSA08.jpg,AFNE18.jpg,AFNE06.jpg,AFSA14.jpg,FS,4,num_8,32,num_6,0.750129659194,,,2017_Oct_13_1815,60.0112601123,MAFE4ImagesEEG,001,201801,
AMSA21.JPG,AMNE22.JPG,AMNE21.JPG,AMSA23.JPG,AMSA22.JPG,AMNE23.JPG,,,,,,,,,,,,,,,,,,,,,0,3,3,1,,,AFNE05.jpg,AFSA03.jpg,AFSA11.jpg,AFNE18.jpg,AFSA11.jpg,FS,4,num_2,32,num_6,1.43341836159,,,2017_Oct_13_1815,60.0112601123,MAFE4ImagesEEG,001,201801,
AFSA21.JPG,AFNE22.JPG,AFNE21.JPG,AFSA23.JPG,AFSA22.JPG,AFNE23.JPG,,,,,,,,,,,,,,,,,,,,,0,4,4,0,,,AFNE10.jpg,AFSA09.jpg,AFSA03.jpg,AFNE19.jpg,AFNE10.jpg,FN,3,num_8,32,num_4,0.416700103902,,,2017_Oct_13_1815,60.0112601123,MAFE4ImagesEEG,001,201801,
AFSA21.JPG,AFNE23.JPG,AFNE21.JPG,AFSA25.JPG,AFNE25.JPG,AFSA23.JPG,,,,,,,,,,,,,,,,,,,,,0,5,5,4,,,AFNE13.jpg,AFSA10.jpg,AFSA16.jpg,AFNE12.jpg,AFSA16.jpg,FS,4,num_2,16,num_2,0.583511905395,,,2017_Oct_13_1815,60.0112601123,MAFE4ImagesEEG,001,201801,
AMNE22.JPG,AMSA24.JPG,AMSA22.JPG,AMNE25.JPG,AMNE24.JPG,AMSA25.JPG,,,,,,,,,,,,,,,,,,,,,0,6,6,7,,,AFNE04.jpg,AFSA09.jpg,AFNE05.jpg,AFSA18.jpg,AFNE05.jpg,FN,3,num_2,32,num_6,0.933170910575,,,2017_Oct_13_1815,60.0112601123,MAFE4ImagesEEG,001,201801,
AMNE23.JPG,AMNE24.JPG,AMNE22.JPG,AMSA24.JPG,AMSA22.JPG,AMSA23.JPG,,,,,,,,,,,,,,,,,,,,,0,7,7,9,,,AFSA18.jpg,AFNE04.jpg,AFSA02.jpg,AFNE03.jpg,AFNE04.jpg,FN,3,num_6,16,num_6,0.400169158354,,,2017_Oct_13_1815,60.0112601123,MAFE4ImagesEEG,001,201801,
AFNE22.JPG,AFSA24.JPG,AFSA22.JPG,AFNE25.JPG,AFNE24.JPG,AFSA25.JPG,,,,,,,,,,,,,,,,,,,,,0,8,8,6,,,AFNE10.jpg,AFSA19.jpg,AFSA09.jpg,AFNE20.jpg,AFSA09.jpg,FS,4,num_2,32,num_4,1.43342734221,,,2017_Oct_13_1815,60.0112601123,MAFE4ImagesEEG,001,201801,
AMSA21.JPG,AMNE23.JPG,AMNE21.JPG,AMSA25.JPG,AMNE25.JPG,AMSA23.JPG,,,,,,,,,,,,,,,,,,,,,0,9,9,5,,,AFNE20.jpg,AFSA16.jpg,AFSA18.jpg,AFNE16.jpg,AFNE20.jpg,FN,3,num_8,16,num_8,0.683352529537,,,2017_Oct_13_1815,60.0112601123,MAFE4ImagesEEG,001,201801,
,,,,,,,,,,,,,,,,,,,,,,,,,,,,,,,,,,,,,,,,,,,space,3.81649367546,2017_Oct_13_1815,60.0112601123,MAFE4ImagesEEG,001,201801,
AFNE01.JPG,AFNE01.JPG,AFNE01.JPG,AFNE01.JPG,AFNE01.JPG,AFNE01.JPG,0,0,0,4,,,,,,,,,,,,,,,,,,,,,,,AMSA07.jpg,AMNE18.jpg,AMNE19.jpg,AMSA18.jpg,AMNE19.jpg,MN,1,num_2,16,num_2,0.750160450232,,,2017_Oct_13_1815,60.0112601123,MAFE4ImagesEEG,001,201801,
AFNE01.JPG,AFNE01.JPG,AFNE01.JPG,AFNE01.JPG,AFNE01.JPG,AFNE01.JPG,0,1,1,3,,,,,,,,,,,,,,,,,,,,,,,AMNE14.jpg,AMSA08.jpg,AMNE02.jpg,AMSA15.jpg,AMSA08.jpg,MS,2,num_6,16,num_6,0.683505843394,,,2017_Oct_13_1815,60.0112601123,MAFE4ImagesEEG,001,201801,
AFNE01.JPG,AFNE01.JPG,AFNE01.JPG,AFNE01.JPG,AFNE01.JPG,AFNE01.JPG,0,2,2,8,,,,,,,,,,,,,,,,,,,,,,,AMSA17.jpg,AMNE17.jpg,AMSA19.jpg,AMNE12.jpg,AMSA17.jpg,MS,2,num_8,16,num_8,0.699923246866,,,2017_Oct_13_1815,60.0112601123,MAFE4ImagesEEG,001,201801,
AFNE01.JPG,AFNE01.JPG,AFNE01.JPG,AFNE01.JPG,AFNE01.JPG,AFNE01.JPG,0,3,3,1,,,,,,,,,,,,,,,,,,,,,,,AMSA10.jpg,AMNE15.jpg,AMSA16.jpg,AMNE09.jpg,AMSA10.jpg,MS,2,num_8,32,num_6,0.516828752705,,,2017_Oct_13_1815,60.0112601123,MAFE4ImagesEEG,001,201801,
AFNE01.JPG,AFNE01.JPG,AFNE01.JPG,AFNE01.JPG,AFNE01.JPG,AFNE01.JPG,0,4,4,7,,,,,,,,,,,,,,,,,,,,,,,AMSA01.jpg,AMNE06.jpg,AMSA17.jpg,AMNE07.jpg,AMSA01.jpg,MS,2,num_8,32,num_4,0.583530508331,,,2017_Oct_13_1815,60.0112601123,MAFE4ImagesEEG,001,201801,
AFNE01.JPG,AFNE01.JPG,AFNE01.JPG,AFNE01.JPG,AFNE01.JPG,AFNE01.JPG,0,5,5,2,,,,,,,,,,,,,,,,,,,,,,,AMSA10.jpg,AMNE06.jpg,AMNE19.jpg,AMSA20.jpg,AMNE06.jpg,MN,1,num_6,32,num_4,0.616789654363,,,2017_Oct_13_1815,60.0112601123,MAFE4ImagesEEG,001,201801,
AFNE01.JPG,AFNE01.JPG,AFNE01.JPG,AFNE01.JPG,AFNE01.JPG,AFNE01.JPG,0,6,6,6,,,,,,,,,,,,,,,,,,,,,,,AMSA10.jpg,AMNE05.jpg,AMSA16.jpg,AMNE10.jpg,AMNE05.jpg,MN,1,num_6,16,num_6,0.73348100204,,,2017_Oct_13_1815,60.0112601123,MAFE4ImagesEEG,001,201801,
AFNE01.JPG,AFNE01.JPG,AFNE01.JPG,AFNE01.JPG,AFNE01.JPG,AFNE01.JPG,0,7,7,0,,,,,,,,,,,,,,,,,,,,,,,AMNE13.jpg,AMSA10.jpg,AMSA16.jpg,AMNE19.jpg,AMSA10.jpg,MS,2,num_6,16,num_6,0.63348257367,,,2017_Oct_13_1815,60.0112601123,MAFE4ImagesEEG,001,201801,
AFNE01.JPG,AFNE01.JPG,AFNE01.JPG,AFNE01.JPG,AFNE01.JPG,AFNE01.JPG,0,8,8,9,,,,,,,,,,,,,,,,,,,,,,,AMNE13.jpg,AMNE07.jpg,AMSA12.jpg,AMSA05.jpg,AMNE07.jpg,MN,1,num_6,16,num_6,0.616806332953,,,2017_Oct_13_1815,60.0112601123,MAFE4ImagesEEG,001,201801,
AFNE01.JPG,AFNE01.JPG,AFNE01.JPG,AFNE01.JPG,AFNE01.JPG,AFNE01.JPG,0,9,9,5,,,,,,,,,,,,,,,,,,,,,,,AMNE06.jpg,AMSA04.jpg,AMSA10.jpg,AMNE15.jpg,AMSA04.jpg,MS,2,num_6,16,num_6,0.933510253555,,,2017_Oct_13_1815,60.0112601123,MAFE4ImagesEEG,001,201801,
AFNE01.JPG,AFNE01.JPG,AFNE01.JPG,AFNE01.JPG,AFNE01.JPG,AFNE01.JPG,1,0,10,5,,,,,,,,,,,,,,,,,,,,,,,AMSA15.jpg,AMSA12.jpg,AMNE03.jpg,AMNE13.jpg,AMSA12.jpg,MS,2,num_6,32,num_4,0.833721589297,,,2017_Oct_13_1815,60.0112601123,MAFE4ImagesEEG,001,201801,
AFNE01.JPG,AFNE01.JPG,AFNE01.JPG,AFNE01.JPG,AFNE01.JPG,AFNE01.JPG,1,1,11,1,,,,,,,,,,,,,,,,,,,,,,,AMSA10.jpg,AMNE01.jpg,AMNE16.jpg,AMSA01.jpg,AMNE16.jpg,MN,1,num_2,32,num_8,0.63353934465,,,2017_Oct_13_1815,60.0112601123,MAFE4ImagesEEG,001,201801,
AFNE01.JPG,AFNE01.JPG,AFNE01.JPG,AFNE01.JPG,AFNE01.JPG,AFNE01.JPG,1,2,12,6,,,,,,,,,,,,,,,,,,,,,,,AMNE06.jpg,AMSA06.jpg,AMSA07.jpg,AMNE05.jpg,AMSA07.jpg,MS,2,num_2,16,num_2,0.483492949628,,,2017_Oct_13_1815,60.0112601123,MAFE4ImagesEEG,001,201801,
AFNE01.JPG,AFNE01.JPG,AFNE01.JPG,AFNE01.JPG,AFNE01.JPG,AFNE01.JPG,1,3,13,3,,,,,,,,,,,,,,,,,,,,,,,AMSA13.jpg,AMSA02.jpg,AMNE05.jpg,AMNE13.jpg,AMNE05.jpg,MN,1,num_2,32,num_8,0.983454941888,,,2017_Oct_13_1815,60.0112601123,MAFE4ImagesEEG,001,201801,
AFNE01.JPG,AFNE01.JPG,AFNE01.JPG,AFNE01.JPG,AFNE01.JPG,AFNE01.JPG,1,4,14,9,,,,,,,,,,,,,,,,,,,,,,,AMSA13.jpg,AMSA10.jpg,AMNE14.jpg,AMNE20.jpg,AMNE20.jpg,MN,1,num_4,16,num_4,0.633495403337,,,2017_Oct_13_1815,60.0112601123,MAFE4ImagesEEG,001,201801,
AFNE01.JPG,AFNE01.JPG,AFNE01.JPG,AFNE01.JPG,AFNE01.JPG,AFNE01.JPG,1,5,15,8,,,,,,,,,,,,,,,,,,,,,,,AMNE17.jpg,AMNE08.jpg,AMSA05.jpg,AMSA07.jpg,AMNE17.jpg,MN,1,num_8,16,num_8,0.750135111855,,,2017_Oct_13_1815,60.0112601123,MAFE4ImagesEEG,001,201801,
AFNE01.JPG,AFNE01.JPG,AFNE01.JPG,AFNE01.JPG,AFNE01.JPG,AFNE01.JPG,1,6,16,2,,,,,,,,,,,,,,,,,,,,,,,AMNE11.jpg,AMSA04.jpg,AMSA14.jpg,AMNE20.jpg,AMSA04.jpg,MS,2,num_6,16,num_6,0.683500711573,,,2017_Oct_13_1815,60.0112601123,MAFE4ImagesEEG,001,201801,
AFNE01.JPG,AFNE01.JPG,AFNE01.JPG,AFNE01.JPG,AFNE01.JPG,AFNE01.JPG,1,7,17,4,,,,,,,,,,,,,,,,,,,,,,,AMNE10.jpg,AMSA10.jpg,AMNE06.jpg,AMSA20.jpg,AMSA10.jpg,MS,2,num_6,32,num_4,0.616821728414,,,2017_Oct_13_1815,60.0112601123,MAFE4ImagesEEG,001,201801,
AFNE01.JPG,AFNE01.JPG,AFNE01.JPG,AFNE01.JPG,AFNE01.JPG,AFNE01.JPG,1,8,18,0,,,,,,,,,,,,,,,,,,,,,,,AMSA13.jpg,AMNE02.jpg,AMSA05.jpg,AMNE11.jpg,AMSA05.jpg,MS,2,num_2,16,num_2,0.800169286667,,,2017_Oct_13_1815,60.0112601123,MAFE4ImagesEEG,001,201801,
AFNE01.JPG,AFNE01.JPG,AFNE01.JPG,AFNE01.JPG,AFNE01.JPG,AFNE01.JPG,1,9,19,7,,,,,,,,,,,,,,,,,,,,,,,AMNE03.jpg,AMSA13.jpg,AMSA18.jpg,AMNE20.jpg,AMSA18.jpg,MS,2,num_2,32,num_4,0.666857506963,,,2017_Oct_13_1815,60.0112601123,MAFE4ImagesEEG,001,201801,
AFNE01.JPG,AFNE01.JPG,AFNE01.JPG,AFNE01.JPG,AFNE01.JPG,AFNE01.JPG,2,0,20,3,,,,,,,,,,,,,,,,,,,,,,,AMSA05.jpg,AMNE01.jpg,AMNE03.jpg,AMSA07.jpg,AMSA07.jpg,MS,2,num_4,16,num_4,0.650005821488,,,2017_Oct_13_1815,60.0112601123,MAFE4ImagesEEG,001,201801,
AFNE01.JPG,AFNE01.JPG,AFNE01.JPG,AFNE01.JPG,AFNE01.JPG,AFNE01.JPG,2,1,21,7,,,,,,,,,,,,,,,,,,,,,,,AMNE02.jpg,AMSA12.jpg,AMSA20.jpg,AMNE07.jpg,AMSA20.jpg,MS,2,num_2,32,num_6,0.716816628701,,,2017_Oct_13_1815,60.0112601123,MAFE4ImagesEEG,001,201801,
AFNE01.JPG,AFNE01.JPG,AFNE01.JPG,AFNE01.JPG,AFNE01.JPG,AFNE01.JPG,2,2,22,1,,,,,,,,,,,,,,,,,,,,,,,AMSA01.jpg,AMNE03.jpg,AMNE11.jpg,AMSA03.jpg,AMSA01.jpg,MS,2,num_8,32,num_2,1.90007341746,,,2017_Oct_13_1815,60.0112601123,MAFE4ImagesEEG,001,201801,
AFNE01.JPG,AFNE01.JPG,AFNE01.JPG,AFNE01.JPG,AFNE01.JPG,AFNE01.JPG,2,3,23,4,,,,,,,,,,,,,,,,,,,,,,,AMSA06.jpg,AMNE01.jpg,AMNE08.jpg,AMSA19.jpg,AMSA06.jpg,MS,2,num_8,32,num_4,0.733523660572,,,2017_Oct_13_1815,60.0112601123,MAFE4ImagesEEG,001,201801,
AFNE01.JPG,AFNE01.JPG,AFNE01.JPG,AFNE01.JPG,AFNE01.JPG,AFNE01.JPG,2,4,24,0,,,,,,,,,,,,,,,,,,,,,,,AMNE12.jpg,AMNE10.jpg,AMSA05.jpg,AMSA02.jpg,AMSA05.jpg,MS,2,num_2,32,num_6,0.550180592807,,,2017_Oct_13_1815,60.0112601123,MAFE4ImagesEEG,001,201801,
AFNE01.JPG,AFNE01.JPG,AFNE01.JPG,AFNE01.JPG,AFNE01.JPG,AFNE01.JPG,2,5,25,9,,,,,,,,,,,,,,,,,,,,,,,AMNE17.jpg,AMSA17.jpg,AMSA19.jpg,AMNE18.jpg,AMNE18.jpg,MN,1,num_4,32,num_8,0.650132513838,,,2017_Oct_13_1815,60.0112601123,MAFE4ImagesEEG,001,201801,
AFNE01.JPG,AFNE01.JPG,AFNE01.JPG,AFNE01.JPG,AFNE01.JPG,AFNE01.JPG,2,6,26,2,,,,,,,,,,,,,,,,,,,,,,,AMSA04.jpg,AMSA11.jpg,AMNE06.jpg,AMNE07.jpg,AMNE07.jpg,MN,1,num_4,32,num_8,0.850113975001,,,2017_Oct_13_1815,60.0112601123,MAFE4ImagesEEG,001,201801,
AFNE01.JPG,AFNE01.JPG,AFNE01.JPG,AFNE01.JPG,AFNE01.JPG,AFNE01.JPG,2,7,27,6,,,,,,,,,,,,,,,,,,,,,,,AMSA04.jpg,AMSA11.jpg,AMNE14.jpg,AMNE20.jpg,AMSA11.jpg,MS,2,num_6,16,num_6,0.583516716491,,,2017_Oct_13_1815,60.0112601123,MAFE4ImagesEEG,001,201801,
AFNE01.JPG,AFNE01.JPG,AFNE01.JPG,AFNE01.JPG,AFNE01.JPG,AFNE01.JPG,2,8,28,5,,,,,,,,,,,,,,,,,,,,,,,AMNE14.jpg,AMSA12.jpg,AMNE09.jpg,AMSA17.jpg,AMNE14.jpg,MN,1,num_8,16,num_8,1.100066746,,,2017_Oct_13_1815,60.0112601123,MAFE4ImagesEEG,001,201801,
AFNE01.JPG,AFNE01.JPG,AFNE01.JPG,AFNE01.JPG,AFNE01.JPG,AFNE01.JPG,2,9,29,8,,,,,,,,,,,,,,,,,,,,,,,AMNE11.jpg,AMSA06.jpg,AMNE19.jpg,AMSA03.jpg,AMSA03.jpg,MS,2,num_4,16,num_4,0.917119471473,,,2017_Oct_13_1815,60.0112601123,MAFE4ImagesEEG,001,201801,
AFNE01.JPG,AFNE01.JPG,AFNE01.JPG,AFNE01.JPG,AFNE01.JPG,AFNE01.JPG,3,0,30,5,,,,,,,,,,,,,,,,,,,,,,,AMNE08.jpg,AMNE17.jpg,AMSA02.jpg,AMSA17.jpg,AMNE08.jpg,MN,1,num_8,32,num_6,0.716472153901,,,2017_Oct_13_1815,60.0112601123,MAFE4ImagesEEG,001,201801,
AFNE01.JPG,AFNE01.JPG,AFNE01.JPG,AFNE01.JPG,AFNE01.JPG,AFNE01.JPG,3,1,31,0,,,,,,,,,,,,,,,,,,,,,,,AMSA14.jpg,AMNE07.jpg,AMNE08.jpg,AMSA15.jpg,AMSA14.jpg,MS,2,num_8,32,num_2,1.10020594718,,,2017_Oct_13_1815,60.0112601123,MAFE4ImagesEEG,001,201801,
AFNE01.JPG,AFNE01.JPG,AFNE01.JPG,AFNE01.JPG,AFNE01.JPG,AFNE01.JPG,3,2,32,3,,,,,,,,,,,,,,,,,,,,,,,AMSA13.jpg,AMSA01.jpg,AMNE02.jpg,AMNE19.jpg,AMSA01.jpg,MS,2,num_6,16,num_6,1.68340897991,,,2017_Oct_13_1815,60.0112601123,MAFE4ImagesEEG,001,201801,
AFNE01.JPG,AFNE01.JPG,AFNE01.JPG,AFNE01.JPG,AFNE01.JPG,AFNE01.JPG,3,3,33,2,,,,,,,,,,,,,,,,,,,,,,,AMSA12.jpg,AMSA06.jpg,AMNE17.jpg,AMNE09.jpg,AMSA12.jpg,MS,2,num_8,32,num_6,0.683442336856,,,2017_Oct_13_1815,60.0112601123,MAFE4ImagesEEG,001,201801,
AFNE01.JPG,AFNE01.JPG,AFNE01.JPG,AFNE01.JPG,AFNE01.JPG,AFNE01.JPG,3,4,34,8,,,,,,,,,,,,,,,,,,,,,,,AMNE13.jpg,AMNE17.jpg,AMSA15.jpg,AMSA10.jpg,AMSA15.jpg,MS,2,num_2,32,num_6,0.416819098406,,,2017_Oct_13_1815,60.0112601123,MAFE4ImagesEEG,001,201801,
AFNE01.JPG,AFNE01.JPG,AFNE01.JPG,AFNE01.JPG,AFNE01.JPG,AFNE01.JPG,3,5,35,9,,,,,,,,,,,,,,,,,,,,,,,AMNE04.jpg,AMSA06.jpg,AMSA08.jpg,AMNE07.jpg,AMNE07.jpg,MN,1,num_4,32,num_8,0.466832104488,,,2017_Oct_13_1815,60.0112601123,MAFE4ImagesEEG,001,201801,
AFNE01.JPG,AFNE01.JPG,AFNE01.JPG,AFNE01.JPG,AFNE01.JPG,AFNE01.JPG,3,6,36,6,,,,,,,,,,,,,,,,,,,,,,,AMSA05.jpg,AMSA04.jpg,AMNE17.jpg,AMNE12.jpg,AMSA04.jpg,MS,2,num_6,32,num_4,0.583469888545,,,2017_Oct_13_1815,60.0112601123,MAFE4ImagesEEG,001,201801,
AFNE01.JPG,AFNE01.JPG,AFNE01.JPG,AFNE01.JPG,AFNE01.JPG,AFNE01.JPG,3,7,37,7,,,,,,,,,,,,,,,,,,,,,,,AMSA07.jpg,AMSA16.jpg,AMNE18.jpg,AMNE14.jpg,AMNE14.jpg,MN,1,num_4,32,num_6,0.766779278521,,,2017_Oct_13_1815,60.0112601123,MAFE4ImagesEEG,001,201801,
AFNE01.JPG,AFNE01.JPG,AFNE01.JPG,AFNE01.JPG,AFNE01.JPG,AFNE01.JPG,3,8,38,1,,,,,,,,,,,,,,,,,,,,,,,AMSA15.jpg,AMNE16.jpg,AMNE08.jpg,AMSA02.jpg,AMSA15.jpg,MS,2,num_8,16,num_8,0.966778380447,,,2017_Oct_13_1815,60.0112601123,MAFE4ImagesEEG,001,201801,
AFNE01.JPG,AFNE01.JPG,AFNE01.JPG,AFNE01.JPG,AFNE01.JPG,AFNE01.JPG,3,9,39,4,,,,,,,,,,,,,,,,,,,,,,,AMSA05.jpg,AMSA01.jpg,AMNE02.jpg,AMNE05.jpg,AMNE05.jpg,MN,1,num_4,16,num_4,0.566810005461,,,2017_Oct_13_1815,60.0112601123,MAFE4ImagesEEG,001,201801,
AFNE01.JPG,AFNE01.JPG,AFNE01.JPG,AFNE01.JPG,AFNE01.JPG,AFNE01.JPG,4,0,40,4,,,,,,,,,,,,,,,,,,,,,,,AMSA18.jpg,AMNE05.jpg,AMNE17.jpg,AMSA16.jpg,AMNE05.jpg,MN,1,num_6,16,num_6,0.816788435681,,,2017_Oct_13_1815,60.0112601123,MAFE4ImagesEEG,001,201801,
AFNE01.JPG,AFNE01.JPG,AFNE01.JPG,AFNE01.JPG,AFNE01.JPG,AFNE01.JPG,4,1,41,9,,,,,,,,,,,,,,,,,,,,,,,AMNE16.jpg,AMSA10.jpg,AMSA16.jpg,AMNE10.jpg,AMNE16.jpg,MN,1,num_8,16,num_8,1.0334307421,,,2017_Oct_13_1815,60.0112601123,MAFE4ImagesEEG,001,201801,
AFNE01.JPG,AFNE01.JPG,AFNE01.JPG,AFNE01.JPG,AFNE01.JPG,AFNE01.JPG,4,2,42,6,,,,,,,,,,,,,,,,,,,,,,,AMNE11.jpg,AMSA11.jpg,AMSA19.jpg,AMNE07.jpg,AMSA19.jpg,MS,2,num_2,32,num_4,0.733518849476,,,2017_Oct_13_1815,60.0112601123,MAFE4ImagesEEG,001,201801,
AFNE01.JPG,AFNE01.JPG,AFNE01.JPG,AFNE01.JPG,AFNE01.JPG,AFNE01.JPG,4,3,43,0,,,,,,,,,,,,,,,,,,,,,,,AMSA03.jpg,AMNE11.jpg,AMNE17.jpg,AMSA17.jpg,AMSA17.jpg,MS,2,num_4,32,num_6,0.616831671447,,,2017_Oct_13_1815,60.0112601123,MAFE4ImagesEEG,001,201801,
AFNE01.JPG,AFNE01.JPG,AFNE01.JPG,AFNE01.JPG,AFNE01.JPG,AFNE01.JPG,4,4,44,7,,,,,,,,,,,,,,,,,,,,,,,AMSA20.jpg,AMNE02.jpg,AMSA14.jpg,AMNE15.jpg,AMSA20.jpg,MS,2,num_8,32,num_4,0.583483680268,,,2017_Oct_13_1815,60.0112601123,MAFE4ImagesEEG,001,201801,
AFNE01.JPG,AFNE01.JPG,AFNE01.JPG,AFNE01.JPG,AFNE01.JPG,AFNE01.JPG,4,5,45,5,,,,,,,,,,,,,,,,,,,,,,,AMNE11.jpg,AMNE09.jpg,AMSA20.jpg,AMSA08.jpg,AMNE09.jpg,MN,1,num_6,16,num_6,0.583472454455,,,2017_Oct_13_1815,60.0112601123,MAFE4ImagesEEG,001,201801,
AFNE01.JPG,AFNE01.JPG,AFNE01.JPG,AFNE01.JPG,AFNE01.JPG,AFNE01.JPG,4,6,46,2,,,,,,,,,,,,,,,,,,,,,,,AMNE03.jpg,AMSA14.jpg,AMNE10.jpg,AMSA17.jpg,AMSA14.jpg,MS,2,num_6,16,num_6,0.433548902743,,,2017_Oct_13_1815,60.0112601123,MAFE4ImagesEEG,001,201801,
AFNE01.JPG,AFNE01.JPG,AFNE01.JPG,AFNE01.JPG,AFNE01.JPG,AFNE01.JPG,4,7,47,1,,,,,,,,,,,,,,,,,,,,,,,AMNE12.jpg,AMSA04.jpg,AMNE11.jpg,AMSA14.jpg,AMNE11.jpg,MN,1,num_2,32,num_6,0.950072310865,,,2017_Oct_13_1815,60.0112601123,MAFE4ImagesEEG,001,201801,
AFNE01.JPG,AFNE01.JPG,AFNE01.JPG,AFNE01.JPG,AFNE01.JPG,AFNE01.JPG,4,8,48,8,,,,,,,,,,,,,,,,,,,,,,,AMSA16.jpg,AMNE06.jpg,AMNE02.jpg,AMSA12.jpg,AMNE02.jpg,MN,1,num_2,16,num_2,0.983329853276,,,2017_Oct_13_1815,60.0112601123,MAFE4ImagesEEG,001,201801,
AFNE01.JPG,AFNE01.JPG,AFNE01.JPG,AFNE01.JPG,AFNE01.JPG,AFNE01.JPG,4,9,49,3,,,,,,,,,,,,,,,,,,,,,,,AMSA15.jpg,AMNE12.jpg,AMSA05.jpg,AMNE10.jpg,AMSA05.jpg,MS,2,num_2,32,num_6,0.66660668829,,,2017_Oct_13_1815,60.0112601123,MAFE4ImagesEEG,001,201801,
AFNE01.JPG,AFNE01.JPG,AFNE01.JPG,AFNE01.JPG,AFNE01.JPG,AFNE01.JPG,5,0,50,3,,,,,,,,,,,,,,,,,,,,,,,AMNE15.jpg,AMSA07.jpg,AMNE04.jpg,AMSA09.jpg,AMNE04.jpg,MN,1,num_2,32,num_4,1.91667588789,,,2017_Oct_13_1815,60.0112601123,MAFE4ImagesEEG,001,201801,
AFNE01.JPG,AFNE01.JPG,AFNE01.JPG,AFNE01.JPG,AFNE01.JPG,AFNE01.JPG,5,1,51,9,,,,,,,,,,,,,,,,,,,,,,,AMSA10.jpg,AMSA07.jpg,AMNE07.jpg,AMNE05.jpg,AMSA07.jpg,MS,2,num_6,16,num_6,0.70015546272,,,2017_Oct_13_1815,60.0112601123,MAFE4ImagesEEG,001,201801,
AFNE01.JPG,AFNE01.JPG,AFNE01.JPG,AFNE01.JPG,AFNE01.JPG,AFNE01.JPG,5,2,52,5,,,,,,,,,,,,,,,,,,,,,,,AMNE01.jpg,AMSA17.jpg,AMNE02.jpg,AMSA02.jpg,AMSA17.jpg,MS,2,num_6,16,num_6,0.750144413323,,,2017_Oct_13_1815,60.0112601123,MAFE4ImagesEEG,001,201801,
AFNE01.JPG,AFNE01.JPG,AFNE01.JPG,AFNE01.JPG,AFNE01.JPG,AFNE01.JPG,5,3,53,2,,,,,,,,,,,,,,,,,,,,,,,AMNE14.jpg,AMNE15.jpg,AMSA12.jpg,AMSA01.jpg,AMNE14.jpg,MN,1,num_8,32,num_4,0.649870789843,,,2017_Oct_13_1815,60.0112601123,MAFE4ImagesEEG,001,201801,
AFNE01.JPG,AFNE01.JPG,AFNE01.JPG,AFNE01.JPG,AFNE01.JPG,AFNE01.JPG,5,4,54,0,,,,,,,,,,,,,,,,,,,,,,,AMNE11.jpg,AMSA02.jpg,AMSA07.jpg,AMNE14.jpg,AMSA07.jpg,MS,2,num_2,16,num_2,0.516833884525,,,2017_Oct_13_1815,60.0112601123,MAFE4ImagesEEG,001,201801,
AFNE01.JPG,AFNE01.JPG,AFNE01.JPG,AFNE01.JPG,AFNE01.JPG,AFNE01.JPG,5,5,55,1,,,,,,,,,,,,,,,,,,,,,,,AMSA12.jpg,AMNE08.jpg,AMSA04.jpg,AMNE05.jpg,AMNE05.jpg,MN,1,num_4,32,num_6,0.566795572173,,,2017_Oct_13_1815,60.0112601123,MAFE4ImagesEEG,001,201801,
AFNE01.JPG,AFNE01.JPG,AFNE01.JPG,AFNE01.JPG,AFNE01.JPG,AFNE01.JPG,5,6,56,7,,,,,,,,,,,,,,,,,,,,,,,AMNE11.jpg,AMNE14.jpg,AMSA05.jpg,AMSA14.jpg,AMSA05.jpg,MS,2,num_2,32,num_4,0.333553040284,,,2017_Oct_13_1815,60.0112601123,MAFE4ImagesEEG,001,201801,
AFNE01.JPG,AFNE01.JPG,AFNE01.JPG,AFNE01.JPG,AFNE01.JPG,AFNE01.JPG,5,7,57,6,,,,,,,,,,,,,,,,,,,,,,,AMSA17.jpg,AMSA09.jpg,AMNE06.jpg,AMNE14.jpg,AMNE06.jpg,MN,1,num_2,32,num_6,0.633501818171,,,2017_Oct_13_1815,60.0112601123,MAFE4ImagesEEG,001,201801,
AFNE01.JPG,AFNE01.JPG,AFNE01.JPG,AFNE01.JPG,AFNE01.JPG,AFNE01.JPG,5,8,58,4,,,,,,,,,,,,,,,,,,,,,,,AMNE16.jpg,AMNE07.jpg,AMSA14.jpg,AMSA20.jpg,AMNE07.jpg,MN,1,num_6,16,num_6,0.70015546272,,,2017_Oct_13_1815,60.0112601123,MAFE4ImagesEEG,001,201801,
AFNE01.JPG,AFNE01.JPG,AFNE01.JPG,AFNE01.JPG,AFNE01.JPG,AFNE01.JPG,5,9,59,8,,,,,,,,,,,,,,,,,,,,,,,AMSA10.jpg,AMSA07.jpg,AMNE04.jpg,AMNE15.jpg,AMSA10.jpg,MS,2,num_8,32,num_4,0.600007890258,,,2017_Oct_13_1815,60.0112601123,MAFE4ImagesEEG,001,201801,
,,,,,,,,,,,,,,,,,,,,,,,,,,,,,,,,,,,,,,,,,,,space,5.13309688366,2017_Oct_13_1815,60.0112601123,MAFE4ImagesEEG,001,201801,
AFNE01.JPG,AFNE01.JPG,AFNE01.JPG,AFNE01.JPG,AFNE01.JPG,AFNE01.JPG,,,,,0,0,0,6,,,,,,,,,,,,,,,,,,,AFSA17.jpg,AFNE17.jpg,AFSA04.jpg,AFNE15.jpg,AFNE15.jpg,FN,3,num_4,16,num_4,0.38350414345,,,2017_Oct_13_1815,60.0112601123,MAFE4ImagesEEG,001,201801,
AFNE01.JPG,AFNE01.JPG,AFNE01.JPG,AFNE01.JPG,AFNE01.JPG,AFNE01.JPG,,,,,0,1,1,1,,,,,,,,,,,,,,,,,,,AFSA01.jpg,AFNE05.jpg,AFNE06.jpg,AFSA16.jpg,AFSA01.jpg,FS,4,num_8,32,num_6,0.600038039847,,,2017_Oct_13_1815,60.0112601123,MAFE4ImagesEEG,001,201801,
AFNE01.JPG,AFNE01.JPG,AFNE01.JPG,AFNE01.JPG,AFNE01.JPG,AFNE01.JPG,,,,,0,2,2,8,,,,,,,,,,,,,,,,,,,AFNE04.jpg,AFNE16.jpg,AFSA12.jpg,AFSA16.jpg,AFSA16.jpg,FS,4,num_4,16,num_4,0.466630679672,,,2017_Oct_13_1815,60.0112601123,MAFE4ImagesEEG,001,201801,
AFNE01.JPG,AFNE01.JPG,AFNE01.JPG,AFNE01.JPG,AFNE01.JPG,AFNE01.JPG,,,,,0,3,3,9,,,,,,,,,,,,,,,,,,,AFNE16.jpg,AFSA13.jpg,AFSA09.jpg,AFNE06.jpg,AFSA09.jpg,FS,4,num_2,32,num_6,0.833456337103,,,2017_Oct_13_1815,60.0112601123,MAFE4ImagesEEG,001,201801,
AFNE01.JPG,AFNE01.JPG,AFNE01.JPG,AFNE01.JPG,AFNE01.JPG,AFNE01.JPG,,,,,0,4,4,2,,,,,,,,,,,,,,,,,,,AFNE05.jpg,AFSA12.jpg,AFNE01.jpg,AFSA08.jpg,AFNE05.jpg,FN,3,num_8,32,num_2,0.950105026364,,,2017_Oct_13_1815,60.0112601123,MAFE4ImagesEEG,001,201801,
AFNE01.JPG,AFNE01.JPG,AFNE01.JPG,AFNE01.JPG,AFNE01.JPG,AFNE01.JPG,,,,,0,5,5,3,,,,,,,,,,,,,,,,,,,AFSA13.jpg,AFNE18.jpg,AFNE02.jpg,AFSA15.jpg,AFNE02.jpg,FN,3,num_2,32,num_6,0.633484818856,,,2017_Oct_13_1815,60.0112601123,MAFE4ImagesEEG,001,201801,
AFNE01.JPG,AFNE01.JPG,AFNE01.JPG,AFNE01.JPG,AFNE01.JPG,AFNE01.JPG,,,,,0,6,6,7,,,,,,,,,,,,,,,,,,,AFNE20.jpg,AFSA16.jpg,AFNE08.jpg,AFSA01.jpg,AFSA01.jpg,FS,4,num_4,16,num_4,0.700040958473,,,2017_Oct_13_1815,60.0112601123,MAFE4ImagesEEG,001,201801,
AFNE01.JPG,AFNE01.JPG,AFNE01.JPG,AFNE01.JPG,AFNE01.JPG,AFNE01.JPG,,,,,0,7,7,5,,,,,,,,,,,,,,,,,,,AFSA09.jpg,AFNE18.jpg,AFSA20.jpg,AFNE20.jpg,AFNE18.jpg,FN,3,num_6,32,num_8,0.833479109686,,,2017_Oct_13_1815,60.0112601123,MAFE4ImagesEEG,001,201801,
AFNE01.JPG,AFNE01.JPG,AFNE01.JPG,AFNE01.JPG,AFNE01.JPG,AFNE01.JPG,,,,,0,8,8,0,,,,,,,,,,,,,,,,,,,AFNE09.jpg,AFSA16.jpg,AFSA12.jpg,AFNE06.jpg,AFNE06.jpg,FN,3,num_4,16,num_4,0.633534854394,,,2017_Oct_13_1815,60.0112601123,MAFE4ImagesEEG,001,201801,
AFNE01.JPG,AFNE01.JPG,AFNE01.JPG,AFNE01.JPG,AFNE01.JPG,AFNE01.JPG,,,,,0,9,9,4,,,,,,,,,,,,,,,,,,,AFNE13.jpg,AFSA03.jpg,AFSA08.jpg,AFNE19.jpg,AFNE13.jpg,FN,3,num_8,32,num_6,0.750148582854,,,2017_Oct_13_1815,60.0112601123,MAFE4ImagesEEG,001,201801,
AFNE01.JPG,AFNE01.JPG,AFNE01.JPG,AFNE01.JPG,AFNE01.JPG,AFNE01.JPG,,,,,1,0,10,4,,,,,,,,,,,,,,,,,,,AFSA12.jpg,AFNE04.jpg,AFNE02.jpg,AFSA14.jpg,AFNE02.jpg,FN,3,num_2,32,num_4,0.583254030324,,,2017_Oct_13_1815,60.0112601123,MAFE4ImagesEEG,001,201801,
AFNE01.JPG,AFNE01.JPG,AFNE01.JPG,AFNE01.JPG,AFNE01.JPG,AFNE01.JPG,,,,,1,1,11,3,,,,,,,,,,,,,,,,,,,AFSA11.jpg,AFNE06.jpg,AFSA07.jpg,AFNE08.jpg,AFSA11.jpg,FS,4,num_8,16,num_8,0.966800190741,,,2017_Oct_13_1815,60.0112601123,MAFE4ImagesEEG,001,201801,
AFNE01.JPG,AFNE01.JPG,AFNE01.JPG,AFNE01.JPG,AFNE01.JPG,AFNE01.JPG,,,,,1,2,12,9,,,,,,,,,,,,,,,,,,,AFNE17.jpg,AFSA07.jpg,AFNE06.jpg,AFSA05.jpg,AFSA05.jpg,FS,4,num_4,16,num_4,0.433512338321,,,2017_Oct_13_1815,60.0112601123,MAFE4ImagesEEG,001,201801,
AFNE01.JPG,AFNE01.JPG,AFNE01.JPG,AFNE01.JPG,AFNE01.JPG,AFNE01.JPG,,,,,1,3,13,5,,,,,,,,,,,,,,,,,,,AFNE19.jpg,AFNE20.jpg,AFSA01.jpg,AFSA17.jpg,AFSA01.jpg,FS,4,num_2,16,num_2,1.15047843195,,,2017_Oct_13_1815,60.0112601123,MAFE4ImagesEEG,001,201801,
AFNE01.JPG,AFNE01.JPG,AFNE01.JPG,AFNE01.JPG,AFNE01.JPG,AFNE01.JPG,,,,,1,4,14,2,,,,,,,,,,,,,,,,,,,AFNE11.jpg,AFSA16.jpg,AFNE03.jpg,AFSA12.jpg,AFSA16.jpg,FS,4,num_6,32,num_8,0.700144236791,,,2017_Oct_13_1815,60.0112601123,MAFE4ImagesEEG,001,201801,
AFNE01.JPG,AFNE01.JPG,AFNE01.JPG,AFNE01.JPG,AFNE01.JPG,AFNE01.JPG,,,,,1,5,15,6,,,,,,,,,,,,,,,,,,,AFSA19.jpg,AFNE15.jpg,AFSA20.jpg,AFNE16.jpg,AFNE16.jpg,FN,3,num_4,16,num_4,0.683510013041,,,2017_Oct_13_1815,60.0112601123,MAFE4ImagesEEG,001,201801,
AFNE01.JPG,AFNE01.JPG,AFNE01.JPG,AFNE01.JPG,AFNE01.JPG,AFNE01.JPG,,,,,1,6,16,1,,,,,,,,,,,,,,,,,,,AFNE04.jpg,AFSA16.jpg,AFSA07.jpg,AFNE11.jpg,AFSA16.jpg,FS,4,num_6,32,num_4,0.516763963155,,,2017_Oct_13_1815,60.0112601123,MAFE4ImagesEEG,001,201801,
AFNE01.JPG,AFNE01.JPG,AFNE01.JPG,AFNE01.JPG,AFNE01.JPG,AFNE01.JPG,,,,,1,7,17,7,,,,,,,,,,,,,,,,,,,AFSA10.jpg,AFNE20.jpg,AFNE08.jpg,AFSA05.jpg,AFSA10.jpg,FS,4,num_8,32,num_6,0.800165437744,,,2017_Oct_13_1815,60.0112601123,MAFE4ImagesEEG,001,201801,
AFNE01.JPG,AFNE01.JPG,AFNE01.JPG,AFNE01.JPG,AFNE01.JPG,AFNE01.JPG,,,,,1,8,18,8,,,,,,,,,,,,,,,,,,,AFSA10.jpg,AFNE10.jpg,AFSA07.jpg,AFNE12.jpg,AFNE10.jpg,FN,3,num_6,32,num_4,0.566802628338,,,2017_Oct_13_1815,60.0112601123,MAFE4ImagesEEG,001,201801,
AFNE01.JPG,AFNE01.JPG,AFNE01.JPG,AFNE01.JPG,AFNE01.JPG,AFNE01.JPG,,,,,1,9,19,0,,,,,,,,,,,,,,,,,,,AFNE11.jpg,AFSA04.jpg,AFNE02.jpg,AFSA08.jpg,AFNE02.jpg,FN,3,num_2,32,num_8,0.816760852002,,,2017_Oct_13_1815,60.0112601123,MAFE4ImagesEEG,001,201801,
AFNE01.JPG,AFNE01.JPG,AFNE01.JPG,AFNE01.JPG,AFNE01.JPG,AFNE01.JPG,,,,,2,0,20,6,,,,,,,,,,,,,,,,,,,AFNE13.jpg,AFSA08.jpg,AFSA06.jpg,AFNE12.jpg,AFNE13.jpg,FN,3,num_8,32,num_4,0.600014946423,,,2017_Oct_13_1815,60.0112601123,MAFE4ImagesEEG,001,201801,
AFNE01.JPG,AFNE01.JPG,AFNE01.JPG,AFNE01.JPG,AFNE01.JPG,AFNE01.JPG,,,,,2,1,21,7,,,,,,,,,,,,,,,,,,,AFSA05.jpg,AFNE03.jpg,AFSA06.jpg,AFNE13.jpg,AFNE13.jpg,FN,3,num_4,32,num_6,0.566762535833,,,2017_Oct_13_1815,60.0112601123,MAFE4ImagesEEG,001,201801,
AFNE01.JPG,AFNE01.JPG,AFNE01.JPG,AFNE01.JPG,AFNE01.JPG,AFNE01.JPG,,,,,2,2,22,2,,,,,,,,,,,,,,,,,,,AFSA09.jpg,AFNE07.jpg,AFNE15.jpg,AFSA13.jpg,AFNE15.jpg,FN,3,num_2,32,num_8,0.583470850717,,,2017_Oct_13_1815,60.0112601123,MAFE4ImagesEEG,001,201801,
AFNE01.JPG,AFNE01.JPG,AFNE01.JPG,AFNE01.JPG,AFNE01.JPG,AFNE01.JPG,,,,,2,3,23,1,,,,,,,,,,,,,,,,,,,AFSA16.jpg,AFSA15.jpg,AFNE19.jpg,AFNE05.jpg,AFNE19.jpg,FN,3,num_2,32,num_6,1.23345678626,,,2017_Oct_13_1815,60.0112601123,MAFE4ImagesEEG,001,201801,
AFNE01.JPG,AFNE01.JPG,AFNE01.JPG,AFNE01.JPG,AFNE01.JPG,AFNE01.JPG,,,,,2,4,24,0,,,,,,,,,,,,,,,,,,,AFSA02.jpg,AFNE09.jpg,AFSA15.jpg,AFNE07.jpg,AFNE07.jpg,FN,3,num_4,16,num_4,0.516849600826,,,2017_Oct_13_1815,60.0112601123,MAFE4ImagesEEG,001,201801,
AFNE01.JPG,AFNE01.JPG,AFNE01.JPG,AFNE01.JPG,AFNE01.JPG,AFNE01.JPG,,,,,2,5,25,9,,,,,,,,,,,,,,,,,,,AFSA20.jpg,AFNE08.jpg,AFNE15.jpg,AFSA13.jpg,AFSA13.jpg,FS,4,num_4,16,num_4,0.383457956952,,,2017_Oct_13_1815,60.0112601123,MAFE4ImagesEEG,001,201801,
AFNE01.JPG,AFNE01.JPG,AFNE01.JPG,AFNE01.JPG,AFNE01.JPG,AFNE01.JPG,,,,,2,6,26,8,,,,,,,,,,,,,,,,,,,AFNE05.jpg,AFSA08.jpg,AFNE13.jpg,AFSA05.jpg,AFSA05.jpg,FS,4,num_4,32,num_6,0.533495050506,,,2017_Oct_13_1815,60.0112601123,MAFE4ImagesEEG,001,201801,
AFNE01.JPG,AFNE01.JPG,AFNE01.JPG,AFNE01.JPG,AFNE01.JPG,AFNE01.JPG,,,,,2,7,27,4,,,,,,,,,,,,,,,,,,,AFSA12.jpg,AFNE01.jpg,AFSA01.jpg,AFNE16.jpg,AFSA12.jpg,FS,4,num_8,32,num_6,0.500146097154,,,2017_Oct_13_1815,60.0112601123,MAFE4ImagesEEG,001,201801,
AFNE01.JPG,AFNE01.JPG,AFNE01.JPG,AFNE01.JPG,AFNE01.JPG,AFNE01.JPG,,,,,2,8,28,5,,,,,,,,,,,,,,,,,,,AFSA02.jpg,AFNE06.jpg,AFSA10.jpg,AFNE09.jpg,AFNE06.jpg,FN,3,num_6,32,num_4,0.683502315194,,,2017_Oct_13_1815,60.0112601123,MAFE4ImagesEEG,001,201801,
AFNE01.JPG,AFNE01.JPG,AFNE01.JPG,AFNE01.JPG,AFNE01.JPG,AFNE01.JPG,,,,,2,9,29,3,,,,,,,,,,,,,,,,,,,AFSA12.jpg,AFNE16.jpg,AFNE14.jpg,AFSA19.jpg,AFSA12.jpg,FS,4,num_8,16,num_8,0.583507735864,,,2017_Oct_13_1815,60.0112601123,MAFE4ImagesEEG,001,201801,
AFNE01.JPG,AFNE01.JPG,AFNE01.JPG,AFNE01.JPG,AFNE01.JPG,AFNE01.JPG,,,,,3,0,30,7,,,,,,,,,,,,,,,,,,,AFNE06.jpg,AFSA16.jpg,AFSA20.jpg,AFNE20.jpg,AFNE20.jpg,FN,3,num_4,16,num_4,0.350121512427,,,2017_Oct_13_1815,60.0112601123,MAFE4ImagesEEG,001,201801,
AFNE01.JPG,AFNE01.JPG,AFNE01.JPG,AFNE01.JPG,AFNE01.JPG,AFNE01.JPG,,,,,3,1,31,6,,,,,,,,,,,,,,,,,,,AFNE17.jpg,AFSA12.jpg,AFNE16.jpg,AFSA14.jpg,AFSA14.jpg,FS,4,num_4,32,num_6,0.750393307535,,,2017_Oct_13_1815,60.0112601123,MAFE4ImagesEEG,001,201801,
AFNE01.JPG,AFNE01.JPG,AFNE01.JPG,AFNE01.JPG,AFNE01.JPG,AFNE01.JPG,,,,,3,2,32,8,,,,,,,,,,,,,,,,,,,AFNE09.jpg,AFSA17.jpg,AFSA14.jpg,AFNE11.jpg,AFSA14.jpg,FS,4,num_2,32,num_4,0.833478468237,,,2017_Oct_13_1815,60.0112601123,MAFE4ImagesEEG,001,201801,
AFNE01.JPG,AFNE01.JPG,AFNE01.JPG,AFNE01.JPG,AFNE01.JPG,AFNE01.JPG,,,,,3,3,33,3,,,,,,,,,,,,,,,,,,,AFNE16.jpg,AFSA19.jpg,AFSA13.jpg,AFNE08.jpg,AFSA13.jpg,FS,4,num_2,32,num_6,0.53379173507,,,2017_Oct_13_1815,60.0112601123,MAFE4ImagesEEG,001,201801,
AFNE01.JPG,AFNE01.JPG,AFNE01.JPG,AFNE01.JPG,AFNE01.JPG,AFNE01.JPG,,,,,3,4,34,5,,,,,,,,,,,,,,,,,,,AFNE03.jpg,AFSA11.jpg,AFSA13.jpg,AFNE20.jpg,AFSA11.jpg,FS,4,num_6,32,num_8,0.450156825944,,,2017_Oct_13_1815,60.0112601123,MAFE4ImagesEEG,001,201801,
AFNE01.JPG,AFNE01.JPG,AFNE01.JPG,AFNE01.JPG,AFNE01.JPG,AFNE01.JPG,,,,,3,5,35,2,,,,,,,,,,,,,,,,,,,AFSA20.jpg,AFNE02.jpg,AFSA15.jpg,AFNE13.jpg,AFNE02.jpg,FN,3,num_6,16,num_6,0.750121961464,,,2017_Oct_13_1815,60.0112601123,MAFE4ImagesEEG,001,201801,
AFNE01.JPG,AFNE01.JPG,AFNE01.JPG,AFNE01.JPG,AFNE01.JPG,AFNE01.JPG,,,,,3,6,36,0,,,,,,,,,,,,,,,,,,,AFNE15.jpg,AFNE17.jpg,AFSA04.jpg,AFSA15.jpg,AFSA15.jpg,FS,4,num_4,16,num_4,0.516780320904,,,2017_Oct_13_1815,60.0112601123,MAFE4ImagesEEG,001,201801,
AFNE01.JPG,AFNE01.JPG,AFNE01.JPG,AFNE01.JPG,AFNE01.JPG,AFNE01.JPG,,,,,3,7,37,1,,,,,,,,,,,,,,,,,,,AFSA12.jpg,AFSA19.jpg,AFNE19.jpg,AFNE04.jpg,AFNE04.jpg,FN,3,num_4,16,num_4,0.500176888192,,,2017_Oct_13_1815,60.0112601123,MAFE4ImagesEEG,001,201801,
AFNE01.JPG,AFNE01.JPG,AFNE01.JPG,AFNE01.JPG,AFNE01.JPG,AFNE01.JPG,,,,,3,8,38,4,,,,,,,,,,,,,,,,,,,AFSA04.jpg,AFNE02.jpg,AFNE05.jpg,AFSA18.jpg,AFNE05.jpg,FN,3,num_2,16,num_2,0.766800768091,,,2017_Oct_13_1815,60.0112601123,MAFE4ImagesEEG,001,201801,
AFNE01.JPG,AFNE01.JPG,AFNE01.JPG,AFNE01.JPG,AFNE01.JPG,AFNE01.JPG,,,,,3,9,39,9,,,,,,,,,,,,,,,,,,,AFSA10.jpg,AFNE11.jpg,AFNE15.jpg,AFSA15.jpg,AFSA10.jpg,FS,4,num_8,32,num_2,0.666806509369,,,2017_Oct_13_1815,60.0112601123,MAFE4ImagesEEG,001,201801,
AFNE01.JPG,AFNE01.JPG,AFNE01.JPG,AFNE01.JPG,AFNE01.JPG,AFNE01.JPG,,,,,4,0,40,0,,,,,,,,,,,,,,,,,,,AFNE12.jpg,AFNE19.jpg,AFSA13.jpg,AFSA01.jpg,AFSA01.jpg,FS,4,num_4,16,num_4,0.333522890694,,,2017_Oct_13_1815,60.0112601123,MAFE4ImagesEEG,001,201801,
AFNE01.JPG,AFNE01.JPG,AFNE01.JPG,AFNE01.JPG,AFNE01.JPG,AFNE01.JPG,,,,,4,1,41,4,,,,,,,,,,,,,,,,,,,AFNE16.jpg,AFNE03.jpg,AFSA19.jpg,AFSA12.jpg,AFNE03.jpg,FN,3,num_6,32,num_8,0.733495756052,,,2017_Oct_13_1815,60.0112601123,MAFE4ImagesEEG,001,201801,
AFNE01.JPG,AFNE01.JPG,AFNE01.JPG,AFNE01.JPG,AFNE01.JPG,AFNE01.JPG,,,,,4,2,42,8,,,,,,,,,,,,,,,,,,,AFSA11.jpg,AFNE14.jpg,AFNE16.jpg,AFSA06.jpg,AFSA11.jpg,FS,4,num_8,32,num_6,0.833407905418,,,2017_Oct_13_1815,60.0112601123,MAFE4ImagesEEG,001,201801,
AFNE01.JPG,AFNE01.JPG,AFNE01.JPG,AFNE01.JPG,AFNE01.JPG,AFNE01.JPG,,,,,4,3,43,2,,,,,,,,,,,,,,,,,,,AFSA19.jpg,AFNE16.jpg,AFSA17.jpg,AFNE10.jpg,AFNE10.jpg,FN,3,num_4,32,num_6,2.08339627855,,,2017_Oct_13_1815,60.0112601123,MAFE4ImagesEEG,001,201801,
AFNE01.JPG,AFNE01.JPG,AFNE01.JPG,AFNE01.JPG,AFNE01.JPG,AFNE01.JPG,,,,,4,4,44,7,,,,,,,,,,,,,,,,,,,AFNE10.jpg,AFNE01.jpg,AFSA20.jpg,AFSA17.jpg,AFNE01.jpg,FN,3,num_6,32,num_8,0.750194127904,,,2017_Oct_13_1815,60.0112601123,MAFE4ImagesEEG,001,201801,
AFNE01.JPG,AFNE01.JPG,AFNE01.JPG,AFNE01.JPG,AFNE01.JPG,AFNE01.JPG,,,,,4,5,45,9,,,,,,,,,,,,,,,,,,,AFNE14.jpg,AFSA01.jpg,AFSA07.jpg,AFNE01.jpg,AFNE01.jpg,FN,3,num_4,32,num_2,0.51686884521,,,2017_Oct_13_1815,60.0112601123,MAFE4ImagesEEG,001,201801,
AFNE01.JPG,AFNE01.JPG,AFNE01.JPG,AFNE01.JPG,AFNE01.JPG,AFNE01.JPG,,,,,4,6,46,5,,,,,,,,,,,,,,,,,,,AFSA19.jpg,AFNE08.jpg,AFSA16.jpg,AFNE02.jpg,AFSA19.jpg,FS,4,num_8,16,num_8,0.683483070927,,,2017_Oct_13_1815,60.0112601123,MAFE4ImagesEEG,001,201801,
AFNE01.JPG,AFNE01.JPG,AFNE01.JPG,AFNE01.JPG,AFNE01.JPG,AFNE01.JPG,,,,,4,7,47,1,,,,,,,,,,,,,,,,,,,AFSA20.jpg,AFNE10.jpg,AFNE16.jpg,AFSA13.jpg,AFSA20.jpg,FS,4,num_8,32,num_6,0.883499492775,,,2017_Oct_13_1815,60.0112601123,MAFE4ImagesEEG,001,201801,
AFNE01.JPG,AFNE01.JPG,AFNE01.JPG,AFNE01.JPG,AFNE01.JPG,AFNE01.JPG,,,,,4,8,48,3,,,,,,,,,,,,,,,,,,,AFNE12.jpg,AFSA14.jpg,AFNE06.jpg,AFSA20.jpg,AFSA20.jpg,FS,4,num_4,16,num_4,0.750174242072,,,2017_Oct_13_1815,60.0112601123,MAFE4ImagesEEG,001,201801,
AFNE01.JPG,AFNE01.JPG,AFNE01.JPG,AFNE01.JPG,AFNE01.JPG,AFNE01.JPG,,,,,4,9,49,6,,,,,,,,,,,,,,,,,,,AFNE13.jpg,AFSA09.jpg,AFNE14.jpg,AFSA15.jpg,AFNE14.jpg,FN,3,num_2,32,num_8,0.683479542728,,,2017_Oct_13_1815,60.0112601123,MAFE4ImagesEEG,001,201801,
AFNE01.JPG,AFNE01.JPG,AFNE01.JPG,AFNE01.JPG,AFNE01.JPG,AFNE01.JPG,,,,,5,0,50,0,,,,,,,,,,,,,,,,,,,AFSA19.jpg,AFNE02.jpg,AFSA14.jpg,AFNE20.jpg,AFNE02.jpg,FN,3,num_6,32,num_4,0.633463008562,,,2017_Oct_13_1815,60.0112601123,MAFE4ImagesEEG,001,201801,
AFNE01.JPG,AFNE01.JPG,AFNE01.JPG,AFNE01.JPG,AFNE01.JPG,AFNE01.JPG,,,,,5,1,51,7,,,,,,,,,,,,,,,,,,,AFSA13.jpg,AFNE06.jpg,AFSA10.jpg,AFNE13.jpg,AFNE06.jpg,FN,3,num_6,32,num_2,0.733334103134,,,2017_Oct_13_1815,60.0112601123,MAFE4ImagesEEG,001,201801,
AFNE01.JPG,AFNE01.JPG,AFNE01.JPG,AFNE01.JPG,AFNE01.JPG,AFNE01.JPG,,,,,5,2,52,9,,,,,,,,,,,,,,,,,,,AFSA17.jpg,AFNE13.jpg,AFSA01.jpg,AFNE03.jpg,AFNE13.jpg,FN,3,num_6,32,num_4,0.616806974402,,,2017_Oct_13_1815,60.0112601123,MAFE4ImagesEEG,001,201801,
AFNE01.JPG,AFNE01.JPG,AFNE01.JPG,AFNE01.JPG,AFNE01.JPG,AFNE01.JPG,,,,,5,3,53,1,,,,,,,,,,,,,,,,,,,AFSA05.jpg,AFNE03.jpg,AFSA11.jpg,AFNE05.jpg,AFNE05.jpg,FN,3,num_4,16,num_4,0.866774178809,,,2017_Oct_13_1815,60.0112601123,MAFE4ImagesEEG,001,201801,
AFNE01.JPG,AFNE01.JPG,AFNE01.JPG,AFNE01.JPG,AFNE01.JPG,AFNE01.JPG,,,,,5,4,54,8,,,,,,,,,,,,,,,,,,,AFNE09.jpg,AFNE12.jpg,AFSA19.jpg,AFSA15.jpg,AFNE09.jpg,FN,3,num_8,32,num_6,0.716776536196,,,2017_Oct_13_1815,60.0112601123,MAFE4ImagesEEG,001,201801,
AFNE01.JPG,AFNE01.JPG,AFNE01.JPG,AFNE01.JPG,AFNE01.JPG,AFNE01.JPG,,,,,5,5,55,6,,,,,,,,,,,,,,,,,,,AFSA09.jpg,AFNE20.jpg,AFSA15.jpg,AFNE10.jpg,AFSA09.jpg,FS,4,num_8,32,num_4,1.01675899164,,,2017_Oct_13_1815,60.0112601123,MAFE4ImagesEEG,001,201801,
AFNE01.JPG,AFNE01.JPG,AFNE01.JPG,AFNE01.JPG,AFNE01.JPG,AFNE01.JPG,,,,,5,6,56,4,,,,,,,,,,,,,,,,,,,AFSA05.jpg,AFNE12.jpg,AFNE03.jpg,AFSA09.jpg,AFNE03.jpg,FN,3,num_2,16,num_2,0.550012524938,,,2017_Oct_13_1815,60.0112601123,MAFE4ImagesEEG,001,201801,
AFNE01.JPG,AFNE01.JPG,AFNE01.JPG,AFNE01.JPG,AFNE01.JPG,AFNE01.JPG,,,,,5,7,57,3,,,,,,,,,,,,,,,,,,,AFSA11.jpg,AFNE16.jpg,AFSA14.jpg,AFNE19.jpg,AFNE16.jpg,FN,3,num_6,16,num_6,2.08344021998,,,2017_Oct_13_1815,60.0112601123,MAFE4ImagesEEG,001,201801,
AFNE01.JPG,AFNE01.JPG,AFNE01.JPG,AFNE01.JPG,AFNE01.JPG,AFNE01.JPG,,,,,5,8,58,5,,,,,,,,,,,,,,,,,,,AFNE03.jpg,AFNE08.jpg,AFSA12.jpg,AFSA19.jpg,AFNE08.jpg,FN,3,num_6,32,num_4,0.58347181289,,,2017_Oct_13_1815,60.0112601123,MAFE4ImagesEEG,001,201801,
AFNE01.JPG,AFNE01.JPG,AFNE01.JPG,AFNE01.JPG,AFNE01.JPG,AFNE01.JPG,,,,,5,9,59,2,,,,,,,,,,,,,,,,,,,AFNE02.jpg,AFNE01.jpg,AFSA10.jpg,AFSA20.jpg,AFNE02.jpg,FN,3,num_8,32,num_2,0.749985326082,,,2017_Oct_13_1815,60.0112601123,MAFE4ImagesEEG,001,201801,
,,,,,,,,,,,,,,,,,,,,,,,,,,,,,,,,,,,,,,,,,,,space,4.96644833882,2017_Oct_13_1815,60.0112601123,MAFE4ImagesEEG,001,201801,
AFNE01.JPG,AFNE01.JPG,AFNE01.JPG,AFNE01.JPG,AFNE01.JPG,AFNE01.JPG,,,,,,,,,0,0,0,2,,,,,,,,,,,,,,,AMSA18.jpg,AMNE13.jpg,AMNE16.jpg,AMSA11.jpg,AMSA11.jpg,MS,2,num_4,16,num_4,0.416782533983,,,2017_Oct_13_1815,60.0112601123,MAFE4ImagesEEG,001,201801,
AFNE01.JPG,AFNE01.JPG,AFNE01.JPG,AFNE01.JPG,AFNE01.JPG,AFNE01.JPG,,,,,,,,,0,1,1,4,,,,,,,,,,,,,,,AMSA17.jpg,AMSA04.jpg,AMNE11.jpg,AMNE05.jpg,AMNE05.jpg,MN,1,num_4,16,num_4,0.666770586511,,,2017_Oct_13_1815,60.0112601123,MAFE4ImagesEEG,001,201801,
AFNE01.JPG,AFNE01.JPG,AFNE01.JPG,AFNE01.JPG,AFNE01.JPG,AFNE01.JPG,,,,,,,,,0,2,2,9,,,,,,,,,,,,,,,AMSA06.jpg,AMNE15.jpg,AMNE16.jpg,AMSA12.jpg,AMNE15.jpg,MN,1,num_6,16,num_6,0.516939408029,,,2017_Oct_13_1815,60.0112601123,MAFE4ImagesEEG,001,201801,
AFNE01.JPG,AFNE01.JPG,AFNE01.JPG,AFNE01.JPG,AFNE01.JPG,AFNE01.JPG,,,,,,,,,0,3,3,7,,,,,,,,,,,,,,,AMSA08.jpg,AMNE12.jpg,AMNE05.jpg,AMSA16.jpg,AMNE12.jpg,MN,1,num_6,32,num_8,0.700113445753,,,2017_Oct_13_1815,60.0112601123,MAFE4ImagesEEG,001,201801,
AFNE01.JPG,AFNE01.JPG,AFNE01.JPG,AFNE01.JPG,AFNE01.JPG,AFNE01.JPG,,,,,,,,,0,4,4,1,,,,,,,,,,,,,,,AMNE19.jpg,AMNE12.jpg,AMSA19.jpg,AMSA17.jpg,AMNE12.jpg,MN,1,num_6,16,num_6,0.516812394839,,,2017_Oct_13_1815,60.0112601123,MAFE4ImagesEEG,001,201801,
AFNE01.JPG,AFNE01.JPG,AFNE01.JPG,AFNE01.JPG,AFNE01.JPG,AFNE01.JPG,,,,,,,,,0,5,5,3,,,,,,,,,,,,,,,AMSA16.jpg,AMNE18.jpg,AMSA03.jpg,AMNE15.jpg,AMSA03.jpg,MS,2,num_2,16,num_2,0.633475517388,,,2017_Oct_13_1815,60.0112601123,MAFE4ImagesEEG,001,201801,
AFNE01.JPG,AFNE01.JPG,AFNE01.JPG,AFNE01.JPG,AFNE01.JPG,AFNE01.JPG,,,,,,,,,0,6,6,8,,,,,,,,,,,,,,,AMSA14.jpg,AMNE20.jpg,AMSA15.jpg,AMNE05.jpg,AMSA14.jpg,MS,2,num_8,32,num_6,0.550242816331,,,2017_Oct_13_1815,60.0112601123,MAFE4ImagesEEG,001,201801,
AFNE01.JPG,AFNE01.JPG,AFNE01.JPG,AFNE01.JPG,AFNE01.JPG,AFNE01.JPG,,,,,,,,,0,7,7,0,,,,,,,,,,,,,,,AMNE13.jpg,AMSA12.jpg,AMNE20.jpg,AMSA03.jpg,AMSA12.jpg,MS,2,num_6,16,num_6,0.6334610841,,,2017_Oct_13_1815,60.0112601123,MAFE4ImagesEEG,001,201801,
AFNE01.JPG,AFNE01.JPG,AFNE01.JPG,AFNE01.JPG,AFNE01.JPG,AFNE01.JPG,,,,,,,,,0,8,8,6,,,,,,,,,,,,,,,AMNE19.jpg,AMSA02.jpg,AMNE13.jpg,AMSA15.jpg,AMSA02.jpg,MS,2,num_6,16,num_6,0.716802836861,,,2017_Oct_13_1815,60.0112601123,MAFE4ImagesEEG,001,201801,
AFNE01.JPG,AFNE01.JPG,AFNE01.JPG,AFNE01.JPG,AFNE01.JPG,AFNE01.JPG,,,,,,,,,0,9,9,5,,,,,,,,,,,,,,,AMSA16.jpg,AMSA18.jpg,AMNE04.jpg,AMNE02.jpg,AMNE04.jpg,MN,1,num_2,32,num_4,1.0501467546,,,2017_Oct_13_1815,60.0112601123,MAFE4ImagesEEG,001,201801,
AFNE01.JPG,AFNE01.JPG,AFNE01.JPG,AFNE01.JPG,AFNE01.JPG,AFNE01.JPG,,,,,,,,,1,0,10,6,,,,,,,,,,,,,,,AMNE16.jpg,AMSA01.jpg,AMNE02.jpg,AMSA12.jpg,AMNE02.jpg,MN,1,num_2,16,num_2,1.05010249256,,,2017_Oct_13_1815,60.0112601123,MAFE4ImagesEEG,001,201801,
AFNE01.JPG,AFNE01.JPG,AFNE01.JPG,AFNE01.JPG,AFNE01.JPG,AFNE01.JPG,,,,,,,,,1,1,11,8,,,,,,,,,,,,,,,AMNE17.jpg,AMSA01.jpg,AMSA04.jpg,AMNE01.jpg,AMNE17.jpg,MN,1,num_8,32,num_6,0.466786238598,,,2017_Oct_13_1815,60.0112601123,MAFE4ImagesEEG,001,201801,
AFNE01.JPG,AFNE01.JPG,AFNE01.JPG,AFNE01.JPG,AFNE01.JPG,AFNE01.JPG,,,,,,,,,1,2,12,0,,,,,,,,,,,,,,,AMNE03.jpg,AMSA12.jpg,AMNE04.jpg,AMSA19.jpg,AMSA12.jpg,MS,2,num_6,32,num_4,0.316879686201,,,2017_Oct_13_1815,60.0112601123,MAFE4ImagesEEG,001,201801,
AFNE01.JPG,AFNE01.JPG,AFNE01.JPG,AFNE01.JPG,AFNE01.JPG,AFNE01.JPG,,,,,,,,,1,3,13,2,,,,,,,,,,,,,,,AMNE19.jpg,AMSA19.jpg,AMSA15.jpg,AMNE08.jpg,AMNE19.jpg,MN,1,num_8,16,num_8,0.76673180901,,,2017_Oct_13_1815,60.0112601123,MAFE4ImagesEEG,001,201801,
AFNE01.JPG,AFNE01.JPG,AFNE01.JPG,AFNE01.JPG,AFNE01.JPG,AFNE01.JPG,,,,,,,,,1,4,14,4,,,,,,,,,,,,,,,AMSA10.jpg,AMNE14.jpg,AMSA05.jpg,AMNE07.jpg,AMNE07.jpg,MN,1,num_4,16,num_4,0.816858357051,,,2017_Oct_13_1815,60.0112601123,MAFE4ImagesEEG,001,201801,
AFNE01.JPG,AFNE01.JPG,AFNE01.JPG,AFNE01.JPG,AFNE01.JPG,AFNE01.JPG,,,,,,,,,1,5,15,1,,,,,,,,,,,,,,,AMSA04.jpg,AMNE09.jpg,AMSA05.jpg,AMNE07.jpg,AMSA04.jpg,MS,2,num_8,32,num_6,0.600150619517,,,2017_Oct_13_1815,60.0112601123,MAFE4ImagesEEG,001,201801,
AFNE01.JPG,AFNE01.JPG,AFNE01.JPG,AFNE01.JPG,AFNE01.JPG,AFNE01.JPG,,,,,,,,,1,6,16,5,,,,,,,,,,,,,,,AMNE04.jpg,AMSA04.jpg,AMNE15.jpg,AMSA18.jpg,AMNE04.jpg,MN,1,num_8,32,num_6,0.450153939193,,,2017_Oct_13_1815,60.0112601123,MAFE4ImagesEEG,001,201801,
AFNE01.JPG,AFNE01.JPG,AFNE01.JPG,AFNE01.JPG,AFNE01.JPG,AFNE01.JPG,,,,,,,,,1,7,17,9,,,,,,,,,,,,,,,AMNE12.jpg,AMNE10.jpg,AMSA03.jpg,AMSA13.jpg,AMSA03.jpg,MS,2,num_2,32,num_4,0.683537917444,,,2017_Oct_13_1815,60.0112601123,MAFE4ImagesEEG,001,201801,
AFNE01.JPG,AFNE01.JPG,AFNE01.JPG,AFNE01.JPG,AFNE01.JPG,AFNE01.JPG,,,,,,,,,1,8,18,7,,,,,,,,,,,,,,,AMNE16.jpg,AMSA18.jpg,AMNE03.jpg,AMSA20.jpg,AMSA18.jpg,MS,2,num_6,32,num_8,0.933447709307,,,2017_Oct_13_1815,60.0112601123,MAFE4ImagesEEG,001,201801,
AFNE01.JPG,AFNE01.JPG,AFNE01.JPG,AFNE01.JPG,AFNE01.JPG,AFNE01.JPG,,,,,,,,,1,9,19,3,,,,,,,,,,,,,,,AMSA15.jpg,AMSA05.jpg,AMNE06.jpg,AMNE01.jpg,AMSA15.jpg,MS,2,num_8,16,num_8,0.500162454788,,,2017_Oct_13_1815,60.0112601123,MAFE4ImagesEEG,001,201801,
AFNE01.JPG,AFNE01.JPG,AFNE01.JPG,AFNE01.JPG,AFNE01.JPG,AFNE01.JPG,,,,,,,,,2,0,20,0,,,,,,,,,,,,,,,AMSA10.jpg,AMNE02.jpg,AMNE07.jpg,AMSA03.jpg,AMNE07.jpg,MN,1,num_2,32,num_6,0.816776568303,,,2017_Oct_13_1815,60.0112601123,MAFE4ImagesEEG,001,201801,
AFNE01.JPG,AFNE01.JPG,AFNE01.JPG,AFNE01.JPG,AFNE01.JPG,AFNE01.JPG,,,,,,,,,2,1,21,4,,,,,,,,,,,,,,,AMSA02.jpg,AMNE06.jpg,AMSA04.jpg,AMNE08.jpg,AMNE08.jpg,MN,1,num_4,32,num_8,0.933517309953,,,2017_Oct_13_1815,60.0112601123,MAFE4ImagesEEG,001,201801,
AFNE01.JPG,AFNE01.JPG,AFNE01.JPG,AFNE01.JPG,AFNE01.JPG,AFNE01.JPG,,,,,,,,,2,2,22,6,,,,,,,,,,,,,,,AMSA05.jpg,AMNE14.jpg,AMSA08.jpg,AMNE17.jpg,AMSA08.jpg,MS,2,num_2,32,num_4,1.13344296231,,,2017_Oct_13_1815,60.0112601123,MAFE4ImagesEEG,001,201801,
AFNE01.JPG,AFNE01.JPG,AFNE01.JPG,AFNE01.JPG,AFNE01.JPG,AFNE01.JPG,,,,,,,,,2,3,23,3,,,,,,,,,,,,,,,AMNE02.jpg,AMNE09.jpg,AMSA09.jpg,AMSA07.jpg,AMNE09.jpg,MN,1,num_6,16,num_6,0.400121047394,,,2017_Oct_13_1815,60.0112601123,MAFE4ImagesEEG,001,201801,
AFNE01.JPG,AFNE01.JPG,AFNE01.JPG,AFNE01.JPG,AFNE01.JPG,AFNE01.JPG,,,,,,,,,2,4,24,8,,,,,,,,,,,,,,,AMSA17.jpg,AMNE18.jpg,AMNE12.jpg,AMSA05.jpg,AMSA17.jpg,MS,2,num_8,32,num_2,0.56681609957,,,2017_Oct_13_1815,60.0112601123,MAFE4ImagesEEG,001,201801,
AFNE01.JPG,AFNE01.JPG,AFNE01.JPG,AFNE01.JPG,AFNE01.JPG,AFNE01.JPG,,,,,,,,,2,5,25,5,,,,,,,,,,,,,,,AMNE20.jpg,AMSA13.jpg,AMNE11.jpg,AMSA07.jpg,AMSA07.jpg,MS,2,num_4,16,num_4,0.433461020002,,,2017_Oct_13_1815,60.0112601123,MAFE4ImagesEEG,001,201801,
AFNE01.JPG,AFNE01.JPG,AFNE01.JPG,AFNE01.JPG,AFNE01.JPG,AFNE01.JPG,,,,,,,,,2,6,26,7,,,,,,,,,,,,,,,AMNE04.jpg,AMNE18.jpg,AMSA16.jpg,AMSA09.jpg,AMNE04.jpg,MN,1,num_8,32,num_6,0.483523419942,,,2017_Oct_13_1815,60.0112601123,MAFE4ImagesEEG,001,201801,
AFNE01.JPG,AFNE01.JPG,AFNE01.JPG,AFNE01.JPG,AFNE01.JPG,AFNE01.JPG,,,,,,,,,2,7,27,1,,,,,,,,,,,,,,,AMNE07.jpg,AMSA01.jpg,AMSA14.jpg,AMNE01.jpg,AMSA01.jpg,MS,2,num_6,16,num_6,0.533466825262,,,2017_Oct_13_1815,60.0112601123,MAFE4ImagesEEG,001,201801,
AFNE01.JPG,AFNE01.JPG,AFNE01.JPG,AFNE01.JPG,AFNE01.JPG,AFNE01.JPG,,,,,,,,,2,8,28,9,,,,,,,,,,,,,,,AMNE02.jpg,AMSA08.jpg,AMSA01.jpg,AMNE01.jpg,AMNE01.jpg,MN,1,num_4,16,num_4,1.1001235171,,,2017_Oct_13_1815,60.0112601123,MAFE4ImagesEEG,001,201801,
AFNE01.JPG,AFNE01.JPG,AFNE01.JPG,AFNE01.JPG,AFNE01.JPG,AFNE01.JPG,,,,,,,,,2,9,29,2,,,,,,,,,,,,,,,AMSA20.jpg,AMNE14.jpg,AMSA03.jpg,AMNE11.jpg,AMNE11.jpg,MN,1,num_4,32,num_2,0.116889885743,,,2017_Oct_13_1815,60.0112601123,MAFE4ImagesEEG,001,201801,
AFNE01.JPG,AFNE01.JPG,AFNE01.JPG,AFNE01.JPG,AFNE01.JPG,AFNE01.JPG,,,,,,,,,3,0,30,8,,,,,,,,,,,,,,,AMSA15.jpg,AMNE16.jpg,AMNE01.jpg,AMSA19.jpg,AMSA19.jpg,MS,2,num_4,32,num_8,1.03345287312,,,2017_Oct_13_1815,60.0112601123,MAFE4ImagesEEG,001,201801,
AFNE01.JPG,AFNE01.JPG,AFNE01.JPG,AFNE01.JPG,AFNE01.JPG,AFNE01.JPG,,,,,,,,,3,1,31,1,,,,,,,,,,,,,,,AMNE18.jpg,AMSA14.jpg,AMSA07.jpg,AMNE12.jpg,AMSA14.jpg,MS,2,num_6,16,num_6,0.41708050156,,,2017_Oct_13_1815,60.0112601123,MAFE4ImagesEEG,001,201801,
AFNE01.JPG,AFNE01.JPG,AFNE01.JPG,AFNE01.JPG,AFNE01.JPG,AFNE01.JPG,,,,,,,,,3,2,32,3,,,,,,,,,,,,,,,AMNE10.jpg,AMSA16.jpg,AMSA14.jpg,AMNE02.jpg,AMNE10.jpg,MN,1,num_8,16,num_8,0.683477297542,,,2017_Oct_13_1815,60.0112601123,MAFE4ImagesEEG,001,201801,
AFNE01.JPG,AFNE01.JPG,AFNE01.JPG,AFNE01.JPG,AFNE01.JPG,AFNE01.JPG,,,,,,,,,3,3,33,5,,,,,,,,,,,,,,,AMNE09.jpg,AMSA13.jpg,AMNE13.jpg,AMSA03.jpg,AMSA03.jpg,MS,2,num_4,16,num_4,0.333476704196,,,2017_Oct_13_1815,60.0112601123,MAFE4ImagesEEG,001,201801,
AFNE01.JPG,AFNE01.JPG,AFNE01.JPG,AFNE01.JPG,AFNE01.JPG,AFNE01.JPG,,,,,,,,,3,4,34,4,,,,,,,,,,,,,,,AMNE20.jpg,AMSA08.jpg,AMSA19.jpg,AMNE19.jpg,AMSA08.jpg,MS,2,num_6,32,num_8,0.650182228419,,,2017_Oct_13_1815,60.0112601123,MAFE4ImagesEEG,001,201801,
AFNE01.JPG,AFNE01.JPG,AFNE01.JPG,AFNE01.JPG,AFNE01.JPG,AFNE01.JPG,,,,,,,,,3,5,35,7,,,,,,,,,,,,,,,AMSA20.jpg,AMNE06.jpg,AMNE10.jpg,AMSA07.jpg,AMNE10.jpg,MN,1,num_2,32,num_6,0.600207069772,,,2017_Oct_13_1815,60.0112601123,MAFE4ImagesEEG,001,201801,
AFNE01.JPG,AFNE01.JPG,AFNE01.JPG,AFNE01.JPG,AFNE01.JPG,AFNE01.JPG,,,,,,,,,3,6,36,0,,,,,,,,,,,,,,,AMSA14.jpg,AMNE17.jpg,AMNE01.jpg,AMSA16.jpg,AMNE01.jpg,MN,1,num_2,32,num_6,0.550143066212,,,2017_Oct_13_1815,60.0112601123,MAFE4ImagesEEG,001,201801,
AFNE01.JPG,AFNE01.JPG,AFNE01.JPG,AFNE01.JPG,AFNE01.JPG,AFNE01.JPG,,,,,,,,,3,7,37,6,,,,,,,,,,,,,,,AMNE18.jpg,AMNE12.jpg,AMSA05.jpg,AMSA12.jpg,AMSA12.jpg,MS,2,num_4,32,num_6,0.683478901279,,,2017_Oct_13_1815,60.0112601123,MAFE4ImagesEEG,001,201801,
AFNE01.JPG,AFNE01.JPG,AFNE01.JPG,AFNE01.JPG,AFNE01.JPG,AFNE01.JPG,,,,,,,,,3,8,38,9,,,,,,,,,,,,,,,AMSA12.jpg,AMNE13.jpg,AMSA05.jpg,AMNE07.jpg,AMSA12.jpg,MS,2,num_8,32,num_4,0.516824583057,,,2017_Oct_13_1815,60.0112601123,MAFE4ImagesEEG,001,201801,
AFNE01.JPG,AFNE01.JPG,AFNE01.JPG,AFNE01.JPG,AFNE01.JPG,AFNE01.JPG,,,,,,,,,3,9,39,2,,,,,,,,,,,,,,,AMSA15.jpg,AMNE15.jpg,AMNE18.jpg,AMSA17.jpg,AMSA17.jpg,MS,2,num_4,32,num_8,0.833435168257,,,2017_Oct_13_1815,60.0112601123,MAFE4ImagesEEG,001,201801,
AFNE01.JPG,AFNE01.JPG,AFNE01.JPG,AFNE01.JPG,AFNE01.JPG,AFNE01.JPG,,,,,,,,,4,0,40,0,,,,,,,,,,,,,,,AMNE14.jpg,AMSA10.jpg,AMSA19.jpg,AMNE19.jpg,AMSA10.jpg,MS,2,num_6,32,num_4,1.23357930896,,,2017_Oct_13_1815,60.0112601123,MAFE4ImagesEEG,001,201801,
AFNE01.JPG,AFNE01.JPG,AFNE01.JPG,AFNE01.JPG,AFNE01.JPG,AFNE01.JPG,,,,,,,,,4,1,41,9,,,,,,,,,,,,,,,AMSA16.jpg,AMNE20.jpg,AMSA17.jpg,AMNE15.jpg,AMSA16.jpg,MS,2,num_8,32,num_6,0.850149577251,,,2017_Oct_13_1815,60.0112601123,MAFE4ImagesEEG,001,201801,
AFNE01.JPG,AFNE01.JPG,AFNE01.JPG,AFNE01.JPG,AFNE01.JPG,AFNE01.JPG,,,,,,,,,4,2,42,7,,,,,,,,,,,,,,,AMSA10.jpg,AMNE20.jpg,AMSA19.jpg,AMNE06.jpg,AMSA10.jpg,MS,2,num_8,32,num_4,0.783456802252,,,2017_Oct_13_1815,60.0112601123,MAFE4ImagesEEG,001,201801,
AFNE01.JPG,AFNE01.JPG,AFNE01.JPG,AFNE01.JPG,AFNE01.JPG,AFNE01.JPG,,,,,,,,,4,3,43,4,,,,,,,,,,,,,,,AMSA06.jpg,AMSA01.jpg,AMNE08.jpg,AMNE03.jpg,AMNE08.jpg,MN,1,num_2,32,num_8,0.700158028631,,,2017_Oct_13_1815,60.0112601123,MAFE4ImagesEEG,001,201801,
AFNE01.JPG,AFNE01.JPG,AFNE01.JPG,AFNE01.JPG,AFNE01.JPG,AFNE01.JPG,,,,,,,,,4,4,44,2,,,,,,,,,,,,,,,AMNE09.jpg,AMSA04.jpg,AMNE18.jpg,AMSA02.jpg,AMNE09.jpg,MN,1,num_8,32,num_4,0.766718337894,,,2017_Oct_13_1815,60.0112601123,MAFE4ImagesEEG,001,201801,
AFNE01.JPG,AFNE01.JPG,AFNE01.JPG,AFNE01.JPG,AFNE01.JPG,AFNE01.JPG,,,,,,,,,4,5,45,5,,,,,,,,,,,,,,,AMNE19.jpg,AMSA13.jpg,AMNE11.jpg,AMSA04.jpg,AMNE11.jpg,MN,1,num_2,16,num_2,0.750180015457,,,2017_Oct_13_1815,60.0112601123,MAFE4ImagesEEG,001,201801,
AFNE01.JPG,AFNE01.JPG,AFNE01.JPG,AFNE01.JPG,AFNE01.JPG,AFNE01.JPG,,,,,,,,,4,6,46,3,,,,,,,,,,,,,,,AMNE04.jpg,AMSA04.jpg,AMNE13.jpg,AMSA20.jpg,AMSA20.jpg,MS,2,num_4,16,num_4,0.850180047448,,,2017_Oct_13_1815,60.0112601123,MAFE4ImagesEEG,001,201801,
AFNE01.JPG,AFNE01.JPG,AFNE01.JPG,AFNE01.JPG,AFNE01.JPG,AFNE01.JPG,,,,,,,,,4,7,47,1,,,,,,,,,,,,,,,AMNE07.jpg,AMSA15.jpg,AMNE17.jpg,AMSA14.jpg,AMNE17.jpg,MN,1,num_2,16,num_2,0.666799132363,,,2017_Oct_13_1815,60.0112601123,MAFE4ImagesEEG,001,201801,
AFNE01.JPG,AFNE01.JPG,AFNE01.JPG,AFNE01.JPG,AFNE01.JPG,AFNE01.JPG,,,,,,,,,4,8,48,6,,,,,,,,,,,,,,,AMSA08.jpg,AMNE10.jpg,AMNE13.jpg,AMSA11.jpg,AMSA08.jpg,MS,2,num_8,32,num_6,0.750190279097,,,2017_Oct_13_1815,60.0112601123,MAFE4ImagesEEG,001,201801,
AFNE01.JPG,AFNE01.JPG,AFNE01.JPG,AFNE01.JPG,AFNE01.JPG,AFNE01.JPG,,,,,,,,,4,9,49,8,,,,,,,,,,,,,,,AMSA17.jpg,AMNE01.jpg,AMSA07.jpg,AMNE14.jpg,AMSA17.jpg,MS,2,num_8,32,num_4,0.799836037564,,,2017_Oct_13_1815,60.0112601123,MAFE4ImagesEEG,001,201801,
AFNE01.JPG,AFNE01.JPG,AFNE01.JPG,AFNE01.JPG,AFNE01.JPG,AFNE01.JPG,,,,,,,,,5,0,50,2,,,,,,,,,,,,,,,AMSA05.jpg,AMNE07.jpg,AMSA20.jpg,AMNE01.jpg,AMSA05.jpg,MS,2,num_8,16,num_8,0.516798603116,,,2017_Oct_13_1815,60.0112601123,MAFE4ImagesEEG,001,201801,
AFNE01.JPG,AFNE01.JPG,AFNE01.JPG,AFNE01.JPG,AFNE01.JPG,AFNE01.JPG,,,,,,,,,5,1,51,9,,,,,,,,,,,,,,,AMNE12.jpg,AMSA14.jpg,AMSA15.jpg,AMNE08.jpg,AMSA15.jpg,MS,2,num_2,32,num_8,0.750120999292,,,2017_Oct_13_1815,60.0112601123,MAFE4ImagesEEG,001,201801,
AFNE01.JPG,AFNE01.JPG,AFNE01.JPG,AFNE01.JPG,AFNE01.JPG,AFNE01.JPG,,,,,,,,,5,2,52,6,,,,,,,,,,,,,,,AMSA02.jpg,AMNE16.jpg,AMSA18.jpg,AMNE10.jpg,AMSA02.jpg,MS,2,num_8,32,num_2,0.366814431618,,,2017_Oct_13_1815,60.0112601123,MAFE4ImagesEEG,001,201801,
AFNE01.JPG,AFNE01.JPG,AFNE01.JPG,AFNE01.JPG,AFNE01.JPG,AFNE01.JPG,,,,,,,,,5,3,53,0,,,,,,,,,,,,,,,AMSA14.jpg,AMSA08.jpg,AMNE07.jpg,AMNE01.jpg,AMNE07.jpg,MN,1,num_2,32,num_6,0.783451991156,,,2017_Oct_13_1815,60.0112601123,MAFE4ImagesEEG,001,201801,
AFNE01.JPG,AFNE01.JPG,AFNE01.JPG,AFNE01.JPG,AFNE01.JPG,AFNE01.JPG,,,,,,,,,5,4,54,3,,,,,,,,,,,,,,,AMSA11.jpg,AMNE14.jpg,AMSA06.jpg,AMNE04.jpg,AMSA11.jpg,MS,2,num_8,32,num_2,0.666780850152,,,2017_Oct_13_1815,60.0112601123,MAFE4ImagesEEG,001,201801,
AFNE01.JPG,AFNE01.JPG,AFNE01.JPG,AFNE01.JPG,AFNE01.JPG,AFNE01.JPG,,,,,,,,,5,5,55,1,,,,,,,,,,,,,,,AMNE03.jpg,AMSA11.jpg,AMNE15.jpg,AMSA16.jpg,AMSA16.jpg,MS,2,num_4,32,num_6,0.400153442053,,,2017_Oct_13_1815,60.0112601123,MAFE4ImagesEEG,001,201801,
AFNE01.JPG,AFNE01.JPG,AFNE01.JPG,AFNE01.JPG,AFNE01.JPG,AFNE01.JPG,,,,,,,,,5,6,56,4,,,,,,,,,,,,,,,AMNE05.jpg,AMSA20.jpg,AMNE14.jpg,AMSA09.jpg,AMSA20.jpg,MS,2,num_6,32,num_4,0.783469952643,,,2017_Oct_13_1815,60.0112601123,MAFE4ImagesEEG,001,201801,
AFNE01.JPG,AFNE01.JPG,AFNE01.JPG,AFNE01.JPG,AFNE01.JPG,AFNE01.JPG,,,,,,,,,5,7,57,5,,,,,,,,,,,,,,,AMNE02.jpg,AMSA13.jpg,AMSA11.jpg,AMNE09.jpg,AMSA11.jpg,MS,2,num_2,32,num_6,1.06677039398,,,2017_Oct_13_1815,60.0112601123,MAFE4ImagesEEG,001,201801,
AFNE01.JPG,AFNE01.JPG,AFNE01.JPG,AFNE01.JPG,AFNE01.JPG,AFNE01.JPG,,,,,,,,,5,8,58,8,,,,,,,,,,,,,,,AMSA19.jpg,AMSA16.jpg,AMNE08.jpg,AMNE14.jpg,AMSA16.jpg,MS,2,num_6,16,num_6,0.733539056033,,,2017_Oct_13_1815,60.0112601123,MAFE4ImagesEEG,001,201801,
AFNE01.JPG,AFNE01.JPG,AFNE01.JPG,AFNE01.JPG,AFNE01.JPG,AFNE01.JPG,,,,,,,,,5,9,59,7,,,,,,,,,,,,,,,AMSA16.jpg,AMSA10.jpg,AMNE03.jpg,AMNE12.jpg,AMSA10.jpg,MS,2,num_6,32,num_8,0.766786014079,,,2017_Oct_13_1815,60.0112601123,MAFE4ImagesEEG,001,201801,
,,,,,,,,,,,,,,,,,,,,,,,,,,,,,,,,,,,,,,,,,,,space,3.71657126257,2017_Oct_13_1815,60.0112601123,MAFE4ImagesEEG,001,201801,
AFNE01.JPG,AFNE01.JPG,AFNE01.JPG,AFNE01.JPG,AFNE01.JPG,AFNE01.JPG,,,,,,,,,,,,,0,0,0,4,,,,,,,,,,,AFNE05.jpg,AFSA05.jpg,AFSA17.jpg,AFNE02.jpg,AFSA17.jpg,FS,4,num_2,32,num_6,0.716771404375,,,2017_Oct_13_1815,60.0112601123,MAFE4ImagesEEG,001,201801,
AFNE01.JPG,AFNE01.JPG,AFNE01.JPG,AFNE01.JPG,AFNE01.JPG,AFNE01.JPG,,,,,,,,,,,,,0,1,1,5,,,,,,,,,,,AFNE13.jpg,AFSA13.jpg,AFSA02.jpg,AFNE01.jpg,AFSA02.jpg,FS,4,num_2,16,num_2,0.766786334803,,,2017_Oct_13_1815,60.0112601123,MAFE4ImagesEEG,001,201801,
AFNE01.JPG,AFNE01.JPG,AFNE01.JPG,AFNE01.JPG,AFNE01.JPG,AFNE01.JPG,,,,,,,,,,,,,0,2,2,3,,,,,,,,,,,AFSA11.jpg,AFSA14.jpg,AFNE04.jpg,AFNE02.jpg,AFNE02.jpg,FN,3,num_4,32,num_2,0.716791290208,,,2017_Oct_13_1815,60.0112601123,MAFE4ImagesEEG,001,201801,
AFNE01.JPG,AFNE01.JPG,AFNE01.JPG,AFNE01.JPG,AFNE01.JPG,AFNE01.JPG,,,,,,,,,,,,,0,3,3,6,,,,,,,,,,,AFNE13.jpg,AFNE09.jpg,AFSA19.jpg,AFSA12.jpg,AFNE13.jpg,FN,3,num_8,16,num_8,0.766813918483,,,2017_Oct_13_1815,60.0112601123,MAFE4ImagesEEG,001,201801,
AFNE01.JPG,AFNE01.JPG,AFNE01.JPG,AFNE01.JPG,AFNE01.JPG,AFNE01.JPG,,,,,,,,,,,,,0,4,4,2,,,,,,,,,,,AFNE06.jpg,AFSA07.jpg,AFSA20.jpg,AFNE13.jpg,AFNE06.jpg,FN,3,num_8,32,num_4,0.583434927743,,,2017_Oct_13_1815,60.0112601123,MAFE4ImagesEEG,001,201801,
AFNE01.JPG,AFNE01.JPG,AFNE01.JPG,AFNE01.JPG,AFNE01.JPG,AFNE01.JPG,,,,,,,,,,,,,0,5,5,7,,,,,,,,,,,AFSA03.jpg,AFNE19.jpg,AFSA09.jpg,AFNE04.jpg,AFSA09.jpg,FS,4,num_2,16,num_2,0.716765310266,,,2017_Oct_13_1815,60.0112601123,MAFE4ImagesEEG,001,201801,
AFNE01.JPG,AFNE01.JPG,AFNE01.JPG,AFNE01.JPG,AFNE01.JPG,AFNE01.JPG,,,,,,,,,,,,,0,6,6,8,,,,,,,,,,,AFNE14.jpg,AFSA14.jpg,AFNE02.jpg,AFSA05.jpg,AFNE02.jpg,FN,3,num_2,32,num_6,1.01675706729,,,2017_Oct_13_1815,60.0112601123,MAFE4ImagesEEG,001,201801,
AFNE01.JPG,AFNE01.JPG,AFNE01.JPG,AFNE01.JPG,AFNE01.JPG,AFNE01.JPG,,,,,,,,,,,,,0,7,7,9,,,,,,,,,,,AFSA12.jpg,AFNE20.jpg,AFSA18.jpg,AFNE17.jpg,AFNE17.jpg,FN,3,num_4,16,num_4,0.716778139933,,,2017_Oct_13_1815,60.0112601123,MAFE4ImagesEEG,001,201801,
AFNE01.JPG,AFNE01.JPG,AFNE01.JPG,AFNE01.JPG,AFNE01.JPG,AFNE01.JPG,,,,,,,,,,,,,0,8,8,0,,,,,,,,,,,AFNE09.jpg,AFNE02.jpg,AFSA11.jpg,AFSA02.jpg,AFSA02.jpg,FS,4,num_4,32,num_6,0.600193277933,,,2017_Oct_13_1815,60.0112601123,MAFE4ImagesEEG,001,201801,
AFNE01.JPG,AFNE01.JPG,AFNE01.JPG,AFNE01.JPG,AFNE01.JPG,AFNE01.JPG,,,,,,,,,,,,,0,9,9,1,,,,,,,,,,,AFNE12.jpg,AFSA11.jpg,AFSA17.jpg,AFNE10.jpg,AFNE12.jpg,FN,3,num_8,16,num_8,0.80018404068,,,2017_Oct_13_1815,60.0112601123,MAFE4ImagesEEG,001,201801,
AFNE01.JPG,AFNE01.JPG,AFNE01.JPG,AFNE01.JPG,AFNE01.JPG,AFNE01.JPG,,,,,,,,,,,,,1,0,10,7,,,,,,,,,,,AFNE18.jpg,AFSA18.jpg,AFSA08.jpg,AFNE09.jpg,AFSA18.jpg,FS,4,num_6,32,num_8,0.86676968832,,,2017_Oct_13_1815,60.0112601123,MAFE4ImagesEEG,001,201801,
AFNE01.JPG,AFNE01.JPG,AFNE01.JPG,AFNE01.JPG,AFNE01.JPG,AFNE01.JPG,,,,,,,,,,,,,1,1,11,5,,,,,,,,,,,AFNE06.jpg,AFSA20.jpg,AFSA16.jpg,AFNE15.jpg,AFSA20.jpg,FS,4,num_6,16,num_6,0.750196693931,,,2017_Oct_13_1815,60.0112601123,MAFE4ImagesEEG,001,201801,
AFNE01.JPG,AFNE01.JPG,AFNE01.JPG,AFNE01.JPG,AFNE01.JPG,AFNE01.JPG,,,,,,,,,,,,,1,2,12,9,,,,,,,,,,,AFSA05.jpg,AFNE02.jpg,AFNE19.jpg,AFSA10.jpg,AFSA05.jpg,FS,4,num_8,32,num_4,0.566824118025,,,2017_Oct_13_1815,60.0112601123,MAFE4ImagesEEG,001,201801,
AFNE01.JPG,AFNE01.JPG,AFNE01.JPG,AFNE01.JPG,AFNE01.JPG,AFNE01.JPG,,,,,,,,,,,,,1,3,13,0,,,,,,,,,,,AFNE14.jpg,AFSA15.jpg,AFSA19.jpg,AFNE19.jpg,AFSA15.jpg,FS,4,num_6,16,num_6,0.566832457203,,,2017_Oct_13_1815,60.0112601123,MAFE4ImagesEEG,001,201801,
AFNE01.JPG,AFNE01.JPG,AFNE01.JPG,AFNE01.JPG,AFNE01.JPG,AFNE01.JPG,,,,,,,,,,,,,1,4,14,6,,,,,,,,,,,AFNE07.jpg,AFSA06.jpg,AFNE05.jpg,AFSA05.jpg,AFNE05.jpg,FN,3,num_2,32,num_4,1.01677182131,,,2017_Oct_13_1815,60.0112601123,MAFE4ImagesEEG,001,201801,
AFNE01.JPG,AFNE01.JPG,AFNE01.JPG,AFNE01.JPG,AFNE01.JPG,AFNE01.JPG,,,,,,,,,,,,,1,5,15,4,,,,,,,,,,,AFNE10.jpg,AFSA01.jpg,AFNE02.jpg,AFSA04.jpg,AFSA04.jpg,FS,4,num_4,32,num_6,0.750150186475,,,2017_Oct_13_1815,60.0112601123,MAFE4ImagesEEG,001,201801,
AFNE01.JPG,AFNE01.JPG,AFNE01.JPG,AFNE01.JPG,AFNE01.JPG,AFNE01.JPG,,,,,,,,,,,,,1,6,16,3,,,,,,,,,,,AFSA07.jpg,AFNE20.jpg,AFNE01.jpg,AFSA12.jpg,AFNE20.jpg,FN,3,num_6,32,num_8,1.03347981523,,,2017_Oct_13_1815,60.0112601123,MAFE4ImagesEEG,001,201801,
AFNE01.JPG,AFNE01.JPG,AFNE01.JPG,AFNE01.JPG,AFNE01.JPG,AFNE01.JPG,,,,,,,,,,,,,1,7,17,8,,,,,,,,,,,AFSA06.jpg,AFSA14.jpg,AFNE09.jpg,AFNE06.jpg,AFNE09.jpg,FN,3,num_2,32,num_4,0.833466280135,,,2017_Oct_13_1815,60.0112601123,MAFE4ImagesEEG,001,201801,
AFNE01.JPG,AFNE01.JPG,AFNE01.JPG,AFNE01.JPG,AFNE01.JPG,AFNE01.JPG,,,,,,,,,,,,,1,8,18,1,,,,,,,,,,,AFSA20.jpg,AFNE10.jpg,AFNE03.jpg,AFSA10.jpg,AFSA20.jpg,FS,4,num_8,16,num_8,1.21677573433,,,2017_Oct_13_1815,60.0112601123,MAFE4ImagesEEG,001,201801,
AFNE01.JPG,AFNE01.JPG,AFNE01.JPG,AFNE01.JPG,AFNE01.JPG,AFNE01.JPG,,,,,,,,,,,,,1,9,19,2,,,,,,,,,,,AFSA20.jpg,AFNE03.jpg,AFSA13.jpg,AFNE01.jpg,AFNE03.jpg,FN,3,num_6,16,num_6,0.500160209718,,,2017_Oct_13_1815,60.0112601123,MAFE4ImagesEEG,001,201801,
AFNE01.JPG,AFNE01.JPG,AFNE01.JPG,AFNE01.JPG,AFNE01.JPG,AFNE01.JPG,,,,,,,,,,,,,2,0,20,8,,,,,,,,,,,AFSA11.jpg,AFNE11.jpg,AFSA06.jpg,AFNE07.jpg,AFSA06.jpg,FS,4,num_2,32,num_4,1.21674109437,,,2017_Oct_13_1815,60.0112601123,MAFE4ImagesEEG,001,201801,
AFNE01.JPG,AFNE01.JPG,AFNE01.JPG,AFNE01.JPG,AFNE01.JPG,AFNE01.JPG,,,,,,,,,,,,,2,1,21,4,,,,,,,,,,,AFNE04.jpg,AFSA08.jpg,AFNE14.jpg,AFSA09.jpg,AFNE14.jpg,FN,3,num_2,32,num_8,0.683447468677,,,2017_Oct_13_1815,60.0112601123,MAFE4ImagesEEG,001,201801,
AFNE01.JPG,AFNE01.JPG,AFNE01.JPG,AFNE01.JPG,AFNE01.JPG,AFNE01.JPG,,,,,,,,,,,,,2,2,22,5,,,,,,,,,,,AFSA06.jpg,AFSA08.jpg,AFNE13.jpg,AFNE01.jpg,AFSA06.jpg,FS,4,num_8,32,num_6,0.683377547306,,,2017_Oct_13_1815,60.0112601123,MAFE4ImagesEEG,001,201801,
AFNE01.JPG,AFNE01.JPG,AFNE01.JPG,AFNE01.JPG,AFNE01.JPG,AFNE01.JPG,,,,,,,,,,,,,2,3,23,6,,,,,,,,,,,AFNE06.jpg,AFSA17.jpg,AFNE14.jpg,AFSA02.jpg,AFSA02.jpg,FS,4,num_4,32,num_8,1.28311184631,,,2017_Oct_13_1815,60.0112601123,MAFE4ImagesEEG,001,201801,
AFNE01.JPG,AFNE01.JPG,AFNE01.JPG,AFNE01.JPG,AFNE01.JPG,AFNE01.JPG,,,,,,,,,,,,,2,4,24,2,,,,,,,,,,,AFSA17.jpg,AFNE06.jpg,AFSA15.jpg,AFNE08.jpg,AFNE06.jpg,FN,3,num_6,32,num_4,1.21698293253,,,2017_Oct_13_1815,60.0112601123,MAFE4ImagesEEG,001,201801,
AFNE01.JPG,AFNE01.JPG,AFNE01.JPG,AFNE01.JPG,AFNE01.JPG,AFNE01.JPG,,,,,,,,,,,,,2,5,25,3,,,,,,,,,,,AFSA09.jpg,AFNE08.jpg,AFNE14.jpg,AFSA01.jpg,AFNE08.jpg,FN,3,num_6,32,num_2,0.783428577124,,,2017_Oct_13_1815,60.0112601123,MAFE4ImagesEEG,001,201801,
AFNE01.JPG,AFNE01.JPG,AFNE01.JPG,AFNE01.JPG,AFNE01.JPG,AFNE01.JPG,,,,,,,,,,,,,2,6,26,0,,,,,,,,,,,AFSA20.jpg,AFNE08.jpg,AFSA02.jpg,AFNE17.jpg,AFNE08.jpg,FN,3,num_6,16,num_6,0.433506565052,,,2017_Oct_13_1815,60.0112601123,MAFE4ImagesEEG,001,201801,
AFNE01.JPG,AFNE01.JPG,AFNE01.JPG,AFNE01.JPG,AFNE01.JPG,AFNE01.JPG,,,,,,,,,,,,,2,7,27,1,,,,,,,,,,,AFNE03.jpg,AFNE20.jpg,AFSA02.jpg,AFSA08.jpg,AFSA08.jpg,FS,4,num_4,32,num_2,0.533479654929,,,2017_Oct_13_1815,60.0112601123,MAFE4ImagesEEG,001,201801,
AFNE01.JPG,AFNE01.JPG,AFNE01.JPG,AFNE01.JPG,AFNE01.JPG,AFNE01.JPG,,,,,,,,,,,,,2,8,28,7,,,,,,,,,,,AFSA02.jpg,AFNE15.jpg,AFSA01.jpg,AFNE11.jpg,AFNE15.jpg,FN,3,num_6,16,num_6,0.566815458005,,,2017_Oct_13_1815,60.0112601123,MAFE4ImagesEEG,001,201801,
AFNE01.JPG,AFNE01.JPG,AFNE01.JPG,AFNE01.JPG,AFNE01.JPG,AFNE01.JPG,,,,,,,,,,,,,2,9,29,9,,,,,,,,,,,AFSA14.jpg,AFSA04.jpg,AFNE15.jpg,AFNE19.jpg,AFSA04.jpg,FS,4,num_6,32,num_8,1.11674843938,,,2017_Oct_13_1815,60.0112601123,MAFE4ImagesEEG,001,201801,
AFNE01.JPG,AFNE01.JPG,AFNE01.JPG,AFNE01.JPG,AFNE01.JPG,AFNE01.JPG,,,,,,,,,,,,,3,0,30,8,,,,,,,,,,,AFSA19.jpg,AFSA13.jpg,AFNE07.jpg,AFNE06.jpg,AFNE07.jpg,FN,3,num_2,32,num_4,1.81671402394,,,2017_Oct_13_1815,60.0112601123,MAFE4ImagesEEG,001,201801,
AFNE01.JPG,AFNE01.JPG,AFNE01.JPG,AFNE01.JPG,AFNE01.JPG,AFNE01.JPG,,,,,,,,,,,,,3,1,31,9,,,,,,,,,,,AFSA02.jpg,AFNE19.jpg,AFSA16.jpg,AFNE13.jpg,AFSA16.jpg,FS,4,num_2,32,num_4,0.583418890717,,,2017_Oct_13_1815,60.0112601123,MAFE4ImagesEEG,001,201801,
AFNE01.JPG,AFNE01.JPG,AFNE01.JPG,AFNE01.JPG,AFNE01.JPG,AFNE01.JPG,,,,,,,,,,,,,3,2,32,5,,,,,,,,,,,AFSA19.jpg,AFNE07.jpg,AFNE08.jpg,AFSA03.jpg,AFNE08.jpg,FN,3,num_2,32,num_6,0.433495659963,,,2017_Oct_13_1815,60.0112601123,MAFE4ImagesEEG,001,201801,
AFNE01.JPG,AFNE01.JPG,AFNE01.JPG,AFNE01.JPG,AFNE01.JPG,AFNE01.JPG,,,,,,,,,,,,,3,3,33,2,,,,,,,,,,,AFNE01.jpg,AFNE19.jpg,AFSA14.jpg,AFSA02.jpg,AFNE01.jpg,FN,3,num_8,32,num_6,0.60013041296,,,2017_Oct_13_1815,60.0112601123,MAFE4ImagesEEG,001,201801,
AFNE01.JPG,AFNE01.JPG,AFNE01.JPG,AFNE01.JPG,AFNE01.JPG,AFNE01.JPG,,,,,,,,,,,,,3,4,34,0,,,,,,,,,,,AFSA14.jpg,AFSA10.jpg,AFNE05.jpg,AFNE04.jpg,AFNE04.jpg,FN,3,num_4,16,num_4,0.716637976468,,,2017_Oct_13_1815,60.0112601123,MAFE4ImagesEEG,001,201801,
AFNE01.JPG,AFNE01.JPG,AFNE01.JPG,AFNE01.JPG,AFNE01.JPG,AFNE01.JPG,,,,,,,,,,,,,3,5,35,6,,,,,,,,,,,AFSA11.jpg,AFNE12.jpg,AFSA03.jpg,AFNE06.jpg,AFNE12.jpg,FN,3,num_6,16,num_6,1.38343422208,,,2017_Oct_13_1815,60.0112601123,MAFE4ImagesEEG,001,201801,
AFNE01.JPG,AFNE01.JPG,AFNE01.JPG,AFNE01.JPG,AFNE01.JPG,AFNE01.JPG,,,,,,,,,,,,,3,6,36,4,,,,,,,,,,,AFSA06.jpg,AFNE17.jpg,AFNE19.jpg,AFSA12.jpg,AFSA06.jpg,FS,4,num_8,32,num_4,0.500161171891,,,2017_Oct_13_1815,60.0112601123,MAFE4ImagesEEG,001,201801,
AFNE01.JPG,AFNE01.JPG,AFNE01.JPG,AFNE01.JPG,AFNE01.JPG,AFNE01.JPG,,,,,,,,,,,,,3,7,37,1,,,,,,,,,,,AFNE20.jpg,AFSA01.jpg,AFSA16.jpg,AFNE13.jpg,AFSA16.jpg,FS,4,num_2,32,num_6,0.583537243772,,,2017_Oct_13_1815,60.0112601123,MAFE4ImagesEEG,001,201801,
AFNE01.JPG,AFNE01.JPG,AFNE01.JPG,AFNE01.JPG,AFNE01.JPG,AFNE01.JPG,,,,,,,,,,,,,3,8,38,3,,,,,,,,,,,AFSA16.jpg,AFNE15.jpg,AFSA15.jpg,AFNE20.jpg,AFNE15.jpg,FN,3,num_6,16,num_6,0.933472727076,,,2017_Oct_13_1815,60.0112601123,MAFE4ImagesEEG,001,201801,
AFNE01.JPG,AFNE01.JPG,AFNE01.JPG,AFNE01.JPG,AFNE01.JPG,AFNE01.JPG,,,,,,,,,,,,,3,9,39,7,,,,,,,,,,,AFSA10.jpg,AFNE17.jpg,AFSA06.jpg,AFNE18.jpg,AFNE18.jpg,FN,3,num_4,32,num_8,0.666791113792,,,2017_Oct_13_1815,60.0112601123,MAFE4ImagesEEG,001,201801,
AFNE01.JPG,AFNE01.JPG,AFNE01.JPG,AFNE01.JPG,AFNE01.JPG,AFNE01.JPG,,,,,,,,,,,,,4,0,40,5,,,,,,,,,,,AFSA08.jpg,AFNE15.jpg,AFSA16.jpg,AFNE12.jpg,AFSA16.jpg,FS,4,num_2,32,num_6,0.683457732433,,,2017_Oct_13_1815,60.0112601123,MAFE4ImagesEEG,001,201801,
AFNE01.JPG,AFNE01.JPG,AFNE01.JPG,AFNE01.JPG,AFNE01.JPG,AFNE01.JPG,,,,,,,,,,,,,4,1,41,3,,,,,,,,,,,AFSA06.jpg,AFNE10.jpg,AFNE13.jpg,AFSA19.jpg,AFNE13.jpg,FN,3,num_2,16,num_2,0.55019181862,,,2017_Oct_13_1815,60.0112601123,MAFE4ImagesEEG,001,201801,
AFNE01.JPG,AFNE01.JPG,AFNE01.JPG,AFNE01.JPG,AFNE01.JPG,AFNE01.JPG,,,,,,,,,,,,,4,2,42,6,,,,,,,,,,,AFSA15.jpg,AFNE08.jpg,AFSA12.jpg,AFNE05.jpg,AFNE08.jpg,FN,3,num_6,32,num_8,1.06675563997,,,2017_Oct_13_1815,60.0112601123,MAFE4ImagesEEG,001,201801,
AFNE01.JPG,AFNE01.JPG,AFNE01.JPG,AFNE01.JPG,AFNE01.JPG,AFNE01.JPG,,,,,,,,,,,,,4,3,43,7,,,,,,,,,,,AFSA14.jpg,AFSA15.jpg,AFNE16.jpg,AFNE04.jpg,AFSA15.jpg,FS,4,num_6,16,num_6,1.41672095191,,,2017_Oct_13_1815,60.0112601123,MAFE4ImagesEEG,001,201801,
AFNE01.JPG,AFNE01.JPG,AFNE01.JPG,AFNE01.JPG,AFNE01.JPG,AFNE01.JPG,,,,,,,,,,,,,4,4,44,2,,,,,,,,,,,AFSA20.jpg,AFNE20.jpg,AFSA15.jpg,AFNE14.jpg,AFNE20.jpg,FN,3,num_6,16,num_6,0.900139169069,,,2017_Oct_13_1815,60.0112601123,MAFE4ImagesEEG,001,201801,
AFNE01.JPG,AFNE01.JPG,AFNE01.JPG,AFNE01.JPG,AFNE01.JPG,AFNE01.JPG,,,,,,,,,,,,,4,5,45,9,,,,,,,,,,,AFNE12.jpg,AFSA13.jpg,AFNE07.jpg,AFSA03.jpg,AFSA03.jpg,FS,4,num_4,16,num_4,0.816774323001,,,2017_Oct_13_1815,60.0112601123,MAFE4ImagesEEG,001,201801,
AFNE01.JPG,AFNE01.JPG,AFNE01.JPG,AFNE01.JPG,AFNE01.JPG,AFNE01.JPG,,,,,,,,,,,,,4,6,46,8,,,,,,,,,,,AFSA19.jpg,AFNE20.jpg,AFNE07.jpg,AFSA10.jpg,AFSA10.jpg,FS,4,num_4,16,num_4,0.750148582971,,,2017_Oct_13_1815,60.0112601123,MAFE4ImagesEEG,001,201801,
AFNE01.JPG,AFNE01.JPG,AFNE01.JPG,AFNE01.JPG,AFNE01.JPG,AFNE01.JPG,,,,,,,,,,,,,4,7,47,0,,,,,,,,,,,AFNE13.jpg,AFNE11.jpg,AFSA07.jpg,AFSA19.jpg,AFSA19.jpg,FS,4,num_4,32,num_6,0.716800270951,,,2017_Oct_13_1815,60.0112601123,MAFE4ImagesEEG,001,201801,
AFNE01.JPG,AFNE01.JPG,AFNE01.JPG,AFNE01.JPG,AFNE01.JPG,AFNE01.JPG,,,,,,,,,,,,,4,8,48,1,,,,,,,,,,,AFNE18.jpg,AFNE16.jpg,AFSA03.jpg,AFSA06.jpg,AFNE18.jpg,FN,3,num_8,16,num_8,1.01675802958,,,2017_Oct_13_1815,60.0112601123,MAFE4ImagesEEG,001,201801,
AFNE01.JPG,AFNE01.JPG,AFNE01.JPG,AFNE01.JPG,AFNE01.JPG,AFNE01.JPG,,,,,,,,,,,,,4,9,49,4,,,,,,,,,,,AFSA13.jpg,AFNE04.jpg,AFNE13.jpg,AFSA07.jpg,AFNE04.jpg,FN,3,num_6,32,num_8,0.733494473156,,,2017_Oct_13_1815,60.0112601123,MAFE4ImagesEEG,001,201801,
AFNE01.JPG,AFNE01.JPG,AFNE01.JPG,AFNE01.JPG,AFNE01.JPG,AFNE01.JPG,,,,,,,,,,,,,5,0,50,8,,,,,,,,,,,AFSA04.jpg,AFNE14.jpg,AFSA02.jpg,AFNE13.jpg,AFSA04.jpg,FS,4,num_8,32,num_4,1.36679871543,,,2017_Oct_13_1815,60.0112601123,MAFE4ImagesEEG,001,201801,
AFNE01.JPG,AFNE01.JPG,AFNE01.JPG,AFNE01.JPG,AFNE01.JPG,AFNE01.JPG,,,,,,,,,,,,,5,1,51,6,,,,,,,,,,,AFNE14.jpg,AFNE16.jpg,AFSA03.jpg,AFSA14.jpg,AFNE16.jpg,FN,3,num_6,16,num_6,0.516848959378,,,2017_Oct_13_1815,60.0112601123,MAFE4ImagesEEG,001,201801,
AFNE01.JPG,AFNE01.JPG,AFNE01.JPG,AFNE01.JPG,AFNE01.JPG,AFNE01.JPG,,,,,,,,,,,,,5,2,52,0,,,,,,,,,,,AFSA07.jpg,AFNE05.jpg,AFNE18.jpg,AFSA10.jpg,AFSA07.jpg,FS,4,num_8,32,num_6,0.716779102106,,,2017_Oct_13_1815,60.0112601123,MAFE4ImagesEEG,001,201801,
AFNE01.JPG,AFNE01.JPG,AFNE01.JPG,AFNE01.JPG,AFNE01.JPG,AFNE01.JPG,,,,,,,,,,,,,5,3,53,7,,,,,,,,,,,AFSA20.jpg,AFSA14.jpg,AFNE20.jpg,AFNE04.jpg,AFNE20.jpg,FN,3,num_2,32,num_4,0.533456561738,,,2017_Oct_13_1815,60.0112601123,MAFE4ImagesEEG,001,201801,
AFNE01.JPG,AFNE01.JPG,AFNE01.JPG,AFNE01.JPG,AFNE01.JPG,AFNE01.JPG,,,,,,,,,,,,,5,4,54,1,,,,,,,,,,,AFSA16.jpg,AFSA09.jpg,AFNE14.jpg,AFNE09.jpg,AFSA09.jpg,FS,4,num_6,16,num_6,0.450155542931,,,2017_Oct_13_1815,60.0112601123,MAFE4ImagesEEG,001,201801,
AFNE01.JPG,AFNE01.JPG,AFNE01.JPG,AFNE01.JPG,AFNE01.JPG,AFNE01.JPG,,,,,,,,,,,,,5,5,55,5,,,,,,,,,,,AFSA16.jpg,AFNE10.jpg,AFNE08.jpg,AFSA09.jpg,AFSA16.jpg,FS,4,num_8,16,num_8,0.76675073267,,,2017_Oct_13_1815,60.0112601123,MAFE4ImagesEEG,001,201801,
AFNE01.JPG,AFNE01.JPG,AFNE01.JPG,AFNE01.JPG,AFNE01.JPG,AFNE01.JPG,,,,,,,,,,,,,5,6,56,3,,,,,,,,,,,AFSA04.jpg,AFNE13.jpg,AFNE03.jpg,AFSA05.jpg,AFSA05.jpg,FS,4,num_4,16,num_4,0.583448078134,,,2017_Oct_13_1815,60.0112601123,MAFE4ImagesEEG,001,201801,
AFNE01.JPG,AFNE01.JPG,AFNE01.JPG,AFNE01.JPG,AFNE01.JPG,AFNE01.JPG,,,,,,,,,,,,,5,7,57,9,,,,,,,,,,,AFSA17.jpg,AFNE05.jpg,AFNE08.jpg,AFSA13.jpg,AFNE05.jpg,FN,3,num_6,16,num_6,0.516827148967,,,2017_Oct_13_1815,60.0112601123,MAFE4ImagesEEG,001,201801,
AFNE01.JPG,AFNE01.JPG,AFNE01.JPG,AFNE01.JPG,AFNE01.JPG,AFNE01.JPG,,,,,,,,,,,,,5,8,58,2,,,,,,,,,,,AFNE12.jpg,AFNE16.jpg,AFSA02.jpg,AFSA14.jpg,AFSA02.jpg,FS,4,num_2,32,num_6,0.916785901878,,,2017_Oct_13_1815,60.0112601123,MAFE4ImagesEEG,001,201801,
AFNE01.JPG,AFNE01.JPG,AFNE01.JPG,AFNE01.JPG,AFNE01.JPG,AFNE01.JPG,,,,,,,,,,,,,5,9,59,4,,,,,,,,,,,AFSA01.jpg,AFNE06.jpg,AFSA05.jpg,AFNE03.jpg,AFNE03.jpg,FN,3,num_4,32,num_6,0.766810069559,,,2017_Oct_13_1815,60.0112601123,MAFE4ImagesEEG,001,201801,
,,,,,,,,,,,,,,,,,,,,,,,,,,,,,,,,,,,,,,,,,,,space,3.79984822578,2017_Oct_13_1815,60.0112601123,MAFE4ImagesEEG,001,201801,
AFNE01.JPG,AFNE01.JPG,AFNE01.JPG,AFNE01.JPG,AFNE01.JPG,AFNE01.JPG,,,,,,,,,,,,,,,,,0,0,0,9,,,,,,,AMSA04.jpg,AMSA18.jpg,AMNE11.jpg,AMNE13.jpg,AMSA18.jpg,MS,2,num_6,32,num_8,1.05041713861,,,2017_Oct_13_1815,60.0112601123,MAFE4ImagesEEG,001,201801,
AFNE01.JPG,AFNE01.JPG,AFNE01.JPG,AFNE01.JPG,AFNE01.JPG,AFNE01.JPG,,,,,,,,,,,,,,,,,0,1,1,0,,,,,,,AMSA20.jpg,AMNE08.jpg,AMSA06.jpg,AMNE15.jpg,AMSA06.jpg,MS,2,num_2,32,num_8,0.783480216283,,,2017_Oct_13_1815,60.0112601123,MAFE4ImagesEEG,001,201801,
AFNE01.JPG,AFNE01.JPG,AFNE01.JPG,AFNE01.JPG,AFNE01.JPG,AFNE01.JPG,,,,,,,,,,,,,,,,,0,2,2,4,,,,,,,AMSA17.jpg,AMNE03.jpg,AMSA08.jpg,AMNE02.jpg,AMNE03.jpg,MN,1,num_6,16,num_6,0.766756826662,,,2017_Oct_13_1815,60.0112601123,MAFE4ImagesEEG,001,201801,
AFNE01.JPG,AFNE01.JPG,AFNE01.JPG,AFNE01.JPG,AFNE01.JPG,AFNE01.JPG,,,,,,,,,,,,,,,,,0,3,3,6,,,,,,,AMSA03.jpg,AMNE19.jpg,AMNE13.jpg,AMSA05.jpg,AMNE13.jpg,MN,1,num_2,32,num_6,0.633470706409,,,2017_Oct_13_1815,60.0112601123,MAFE4ImagesEEG,001,201801,
AFNE01.JPG,AFNE01.JPG,AFNE01.JPG,AFNE01.JPG,AFNE01.JPG,AFNE01.JPG,,,,,,,,,,,,,,,,,0,4,4,2,,,,,,,AMSA17.jpg,AMNE08.jpg,AMNE19.jpg,AMSA11.jpg,AMSA11.jpg,MS,2,num_4,32,num_2,0.41678670363,,,2017_Oct_13_1815,60.0112601123,MAFE4ImagesEEG,001,201801,
AFNE01.JPG,AFNE01.JPG,AFNE01.JPG,AFNE01.JPG,AFNE01.JPG,AFNE01.JPG,,,,,,,,,,,,,,,,,0,5,5,7,,,,,,,AMNE06.jpg,AMSA18.jpg,AMNE17.jpg,AMSA03.jpg,AMNE06.jpg,MN,1,num_8,32,num_2,1.25012372539,,,2017_Oct_13_1815,60.0112601123,MAFE4ImagesEEG,001,201801,
AFNE01.JPG,AFNE01.JPG,AFNE01.JPG,AFNE01.JPG,AFNE01.JPG,AFNE01.JPG,,,,,,,,,,,,,,,,,0,6,6,5,,,,,,,AMSA10.jpg,AMSA07.jpg,AMNE16.jpg,AMNE12.jpg,AMNE16.jpg,MN,1,num_2,32,num_6,0.849948793883,,,2017_Oct_13_1815,60.0112601123,MAFE4ImagesEEG,001,201801,
AFNE01.JPG,AFNE01.JPG,AFNE01.JPG,AFNE01.JPG,AFNE01.JPG,AFNE01.JPG,,,,,,,,,,,,,,,,,0,7,7,8,,,,,,,AMSA06.jpg,AMNE10.jpg,AMSA05.jpg,AMNE17.jpg,AMSA06.jpg,MS,2,num_8,32,num_4,0.616776183364,,,2017_Oct_13_1815,60.0112601123,MAFE4ImagesEEG,001,201801,
AFNE01.JPG,AFNE01.JPG,AFNE01.JPG,AFNE01.JPG,AFNE01.JPG,AFNE01.JPG,,,,,,,,,,,,,,,,,0,8,8,1,,,,,,,AMSA18.jpg,AMSA17.jpg,AMNE06.jpg,AMNE20.jpg,AMSA17.jpg,MS,2,num_6,16,num_6,0.700141029432,,,2017_Oct_13_1815,60.0112601123,MAFE4ImagesEEG,001,201801,
AFNE01.JPG,AFNE01.JPG,AFNE01.JPG,AFNE01.JPG,AFNE01.JPG,AFNE01.JPG,,,,,,,,,,,,,,,,,0,9,9,3,,,,,,,AMNE15.jpg,AMNE13.jpg,AMSA12.jpg,AMSA11.jpg,AMSA11.jpg,MS,2,num_4,32,num_2,0.900087530026,,,2017_Oct_13_1815,60.0112601123,MAFE4ImagesEEG,001,201801,
AFNE01.JPG,AFNE01.JPG,AFNE01.JPG,AFNE01.JPG,AFNE01.JPG,AFNE01.JPG,,,,,,,,,,,,,,,,,1,0,10,7,,,,,,,AMNE14.jpg,AMSA15.jpg,AMSA13.jpg,AMNE12.jpg,AMNE12.jpg,MN,1,num_4,16,num_4,0.600158958696,,,2017_Oct_13_1815,60.0112601123,MAFE4ImagesEEG,001,201801,
AFNE01.JPG,AFNE01.JPG,AFNE01.JPG,AFNE01.JPG,AFNE01.JPG,AFNE01.JPG,,,,,,,,,,,,,,,,,1,1,11,8,,,,,,,AMNE12.jpg,AMSA13.jpg,AMSA12.jpg,AMNE20.jpg,AMSA13.jpg,MS,2,num_6,32,num_8,0.383493238245,,,2017_Oct_13_1815,60.0112601123,MAFE4ImagesEEG,001,201801,
AFNE01.JPG,AFNE01.JPG,AFNE01.JPG,AFNE01.JPG,AFNE01.JPG,AFNE01.JPG,,,,,,,,,,,,,,,,,1,2,12,3,,,,,,,AMNE05.jpg,AMSA11.jpg,AMSA13.jpg,AMNE04.jpg,AMNE04.jpg,MN,1,num_4,16,num_4,0.91677884548,,,2017_Oct_13_1815,60.0112601123,MAFE4ImagesEEG,001,201801,
AFNE01.JPG,AFNE01.JPG,AFNE01.JPG,AFNE01.JPG,AFNE01.JPG,AFNE01.JPG,,,,,,,,,,,,,,,,,1,3,13,5,,,,,,,AMSA08.jpg,AMNE17.jpg,AMNE16.jpg,AMSA14.jpg,AMNE17.jpg,MN,1,num_6,16,num_6,0.650176134426,,,2017_Oct_13_1815,60.0112601123,MAFE4ImagesEEG,001,201801,
AFNE01.JPG,AFNE01.JPG,AFNE01.JPG,AFNE01.JPG,AFNE01.JPG,AFNE01.JPG,,,,,,,,,,,,,,,,,1,4,14,9,,,,,,,AMSA10.jpg,AMNE15.jpg,AMNE11.jpg,AMSA07.jpg,AMNE11.jpg,MN,1,num_2,16,num_2,0.516745360219,,,2017_Oct_13_1815,60.0112601123,MAFE4ImagesEEG,001,201801,
AFNE01.JPG,AFNE01.JPG,AFNE01.JPG,AFNE01.JPG,AFNE01.JPG,AFNE01.JPG,,,,,,,,,,,,,,,,,1,5,15,2,,,,,,,AMNE15.jpg,AMNE14.jpg,AMSA15.jpg,AMSA02.jpg,AMNE14.jpg,MN,1,num_6,16,num_6,0.65015496558,,,2017_Oct_13_1815,60.0112601123,MAFE4ImagesEEG,001,201801,
AFNE01.JPG,AFNE01.JPG,AFNE01.JPG,AFNE01.JPG,AFNE01.JPG,AFNE01.JPG,,,,,,,,,,,,,,,,,1,6,16,0,,,,,,,AMNE20.jpg,AMSA19.jpg,AMNE16.jpg,AMSA11.jpg,AMSA19.jpg,MS,2,num_6,32,num_4,0.733470417676,,,2017_Oct_13_1815,60.0112601123,MAFE4ImagesEEG,001,201801,
AFNE01.JPG,AFNE01.JPG,AFNE01.JPG,AFNE01.JPG,AFNE01.JPG,AFNE01.JPG,,,,,,,,,,,,,,,,,1,7,17,4,,,,,,,AMNE02.jpg,AMSA16.jpg,AMSA20.jpg,AMNE07.jpg,AMNE07.jpg,MN,1,num_4,16,num_4,0.683435601299,,,2017_Oct_13_1815,60.0112601123,MAFE4ImagesEEG,001,201801,
AFNE01.JPG,AFNE01.JPG,AFNE01.JPG,AFNE01.JPG,AFNE01.JPG,AFNE01.JPG,,,,,,,,,,,,,,,,,1,8,18,1,,,,,,,AMSA18.jpg,AMSA05.jpg,AMNE04.jpg,AMNE01.jpg,AMSA05.jpg,MS,2,num_6,16,num_6,0.63358264463,,,2017_Oct_13_1815,60.0112601123,MAFE4ImagesEEG,001,201801,
AFNE01.JPG,AFNE01.JPG,AFNE01.JPG,AFNE01.JPG,AFNE01.JPG,AFNE01.JPG,,,,,,,,,,,,,,,,,1,9,19,6,,,,,,,AMNE08.jpg,AMSA04.jpg,AMNE01.jpg,AMSA08.jpg,AMSA08.jpg,MS,2,num_4,32,num_2,0.866788932821,,,2017_Oct_13_1815,60.0112601123,MAFE4ImagesEEG,001,201801,
AFNE01.JPG,AFNE01.JPG,AFNE01.JPG,AFNE01.JPG,AFNE01.JPG,AFNE01.JPG,,,,,,,,,,,,,,,,,2,0,20,4,,,,,,,AMNE08.jpg,AMNE09.jpg,AMSA18.jpg,AMSA15.jpg,AMSA18.jpg,MS,2,num_2,32,num_4,0.916781090666,,,2017_Oct_13_1815,60.0112601123,MAFE4ImagesEEG,001,201801,
AFNE01.JPG,AFNE01.JPG,AFNE01.JPG,AFNE01.JPG,AFNE01.JPG,AFNE01.JPG,,,,,,,,,,,,,,,,,2,1,21,5,,,,,,,AMNE03.jpg,AMSA09.jpg,AMNE17.jpg,AMSA10.jpg,AMNE17.jpg,MN,1,num_2,32,num_6,1.21677958325,,,2017_Oct_13_1815,60.0112601123,MAFE4ImagesEEG,001,201801,
AFNE01.JPG,AFNE01.JPG,AFNE01.JPG,AFNE01.JPG,AFNE01.JPG,AFNE01.JPG,,,,,,,,,,,,,,,,,2,2,22,7,,,,,,,AMSA06.jpg,AMNE08.jpg,AMSA14.jpg,AMNE05.jpg,AMSA06.jpg,MS,2,num_8,32,num_4,0.700162839727,,,2017_Oct_13_1815,60.0112601123,MAFE4ImagesEEG,001,201801,
AFNE01.JPG,AFNE01.JPG,AFNE01.JPG,AFNE01.JPG,AFNE01.JPG,AFNE01.JPG,,,,,,,,,,,,,,,,,2,3,23,3,,,,,,,AMNE06.jpg,AMNE09.jpg,AMSA20.jpg,AMSA01.jpg,AMNE09.jpg,MN,1,num_6,16,num_6,3.5835276217,,,2017_Oct_13_1815,60.0112601123,MAFE4ImagesEEG,001,201801,
AFNE01.JPG,AFNE01.JPG,AFNE01.JPG,AFNE01.JPG,AFNE01.JPG,AFNE01.JPG,,,,,,,,,,,,,,,,,2,4,24,6,,,,,,,AMSA08.jpg,AMNE16.jpg,AMNE02.jpg,AMSA16.jpg,AMNE16.jpg,MN,1,num_6,32,num_2,0.566905265208,,,2017_Oct_13_1815,60.0112601123,MAFE4ImagesEEG,001,201801,
AFNE01.JPG,AFNE01.JPG,AFNE01.JPG,AFNE01.JPG,AFNE01.JPG,AFNE01.JPG,,,,,,,,,,,,,,,,,2,5,25,9,,,,,,,AMNE01.jpg,AMNE06.jpg,AMSA16.jpg,AMSA15.jpg,AMSA16.jpg,MS,2,num_2,32,num_6,0.600189429126,,,2017_Oct_13_1815,60.0112601123,MAFE4ImagesEEG,001,201801,
AFNE01.JPG,AFNE01.JPG,AFNE01.JPG,AFNE01.JPG,AFNE01.JPG,AFNE01.JPG,,,,,,,,,,,,,,,,,2,6,26,0,,,,,,,AMNE03.jpg,AMNE11.jpg,AMSA15.jpg,AMSA01.jpg,AMSA01.jpg,MS,2,num_4,32,num_8,0.900110943941,,,2017_Oct_13_1815,60.0112601123,MAFE4ImagesEEG,001,201801,
AFNE01.JPG,AFNE01.JPG,AFNE01.JPG,AFNE01.JPG,AFNE01.JPG,AFNE01.JPG,,,,,,,,,,,,,,,,,2,7,27,1,,,,,,,AMSA11.jpg,AMSA14.jpg,AMNE07.jpg,AMNE13.jpg,AMSA11.jpg,MS,2,num_8,16,num_8,0.666778284241,,,2017_Oct_13_1815,60.0112601123,MAFE4ImagesEEG,001,201801,
AFNE01.JPG,AFNE01.JPG,AFNE01.JPG,AFNE01.JPG,AFNE01.JPG,AFNE01.JPG,,,,,,,,,,,,,,,,,2,8,28,2,,,,,,,AMSA20.jpg,AMSA13.jpg,AMNE05.jpg,AMNE12.jpg,AMNE12.jpg,MN,1,num_4,16,num_4,0.516796999378,,,2017_Oct_13_1815,60.0112601123,MAFE4ImagesEEG,001,201801,
AFNE01.JPG,AFNE01.JPG,AFNE01.JPG,AFNE01.JPG,AFNE01.JPG,AFNE01.JPG,,,,,,,,,,,,,,,,,2,9,29,8,,,,,,,AMNE18.jpg,AMSA08.jpg,AMSA10.jpg,AMNE08.jpg,AMSA08.jpg,MS,2,num_6,32,num_4,0.950131006306,,,2017_Oct_13_1815,60.0112601123,MAFE4ImagesEEG,001,201801,
AFNE01.JPG,AFNE01.JPG,AFNE01.JPG,AFNE01.JPG,AFNE01.JPG,AFNE01.JPG,,,,,,,,,,,,,,,,,3,0,30,1,,,,,,,AMSA16.jpg,AMSA02.jpg,AMNE20.jpg,AMNE11.jpg,AMSA16.jpg,MS,2,num_8,32,num_4,0.850147973397,,,2017_Oct_13_1815,60.0112601123,MAFE4ImagesEEG,001,201801,
AFNE01.JPG,AFNE01.JPG,AFNE01.JPG,AFNE01.JPG,AFNE01.JPG,AFNE01.JPG,,,,,,,,,,,,,,,,,3,1,31,9,,,,,,,AMSA14.jpg,AMNE08.jpg,AMSA11.jpg,AMNE07.jpg,AMSA11.jpg,MS,2,num_2,32,num_8,0.500169190462,,,2017_Oct_13_1815,60.0112601123,MAFE4ImagesEEG,001,201801,
AFNE01.JPG,AFNE01.JPG,AFNE01.JPG,AFNE01.JPG,AFNE01.JPG,AFNE01.JPG,,,,,,,,,,,,,,,,,3,2,32,3,,,,,,,AMNE10.jpg,AMNE16.jpg,AMSA14.jpg,AMSA11.jpg,AMNE10.jpg,MN,1,num_8,32,num_6,0.58347951062,,,2017_Oct_13_1815,60.0112601123,MAFE4ImagesEEG,001,201801,
AFNE01.JPG,AFNE01.JPG,AFNE01.JPG,AFNE01.JPG,AFNE01.JPG,AFNE01.JPG,,,,,,,,,,,,,,,,,3,3,33,5,,,,,,,AMSA01.jpg,AMNE13.jpg,AMSA19.jpg,AMNE04.jpg,AMNE04.jpg,MN,1,num_4,32,num_8,0.750088925241,,,2017_Oct_13_1815,60.0112601123,MAFE4ImagesEEG,001,201801,
AFNE01.JPG,AFNE01.JPG,AFNE01.JPG,AFNE01.JPG,AFNE01.JPG,AFNE01.JPG,,,,,,,,,,,,,,,,,3,4,34,7,,,,,,,AMNE04.jpg,AMNE17.jpg,AMSA11.jpg,AMSA13.jpg,AMNE04.jpg,MN,1,num_8,16,num_8,0.816811528872,,,2017_Oct_13_1815,60.0112601123,MAFE4ImagesEEG,001,201801,
AFNE01.JPG,AFNE01.JPG,AFNE01.JPG,AFNE01.JPG,AFNE01.JPG,AFNE01.JPG,,,,,,,,,,,,,,,,,3,5,35,6,,,,,,,AMNE05.jpg,AMSA15.jpg,AMNE20.jpg,AMSA03.jpg,AMSA15.jpg,MS,2,num_6,32,num_4,0.517148209852,,,2017_Oct_13_1815,60.0112601123,MAFE4ImagesEEG,001,201801,
AFNE01.JPG,AFNE01.JPG,AFNE01.JPG,AFNE01.JPG,AFNE01.JPG,AFNE01.JPG,,,,,,,,,,,,,,,,,3,6,36,8,,,,,,,AMNE03.jpg,AMNE07.jpg,AMSA11.jpg,AMSA15.jpg,AMSA11.jpg,MS,2,num_2,32,num_6,0.533491522307,,,2017_Oct_13_1815,60.0112601123,MAFE4ImagesEEG,001,201801,
AFNE01.JPG,AFNE01.JPG,AFNE01.JPG,AFNE01.JPG,AFNE01.JPG,AFNE01.JPG,,,,,,,,,,,,,,,,,3,7,37,4,,,,,,,AMSA17.jpg,AMNE11.jpg,AMSA10.jpg,AMNE20.jpg,AMNE20.jpg,MN,1,num_4,32,num_6,0.866896701511,,,2017_Oct_13_1815,60.0112601123,MAFE4ImagesEEG,001,201801,
AFNE01.JPG,AFNE01.JPG,AFNE01.JPG,AFNE01.JPG,AFNE01.JPG,AFNE01.JPG,,,,,,,,,,,,,,,,,3,8,38,0,,,,,,,AMSA06.jpg,AMSA11.jpg,AMNE06.jpg,AMNE14.jpg,AMNE14.jpg,MN,1,num_4,16,num_4,2.01671729551,,,2017_Oct_13_1815,60.0112601123,MAFE4ImagesEEG,001,201801,
AFNE01.JPG,AFNE01.JPG,AFNE01.JPG,AFNE01.JPG,AFNE01.JPG,AFNE01.JPG,,,,,,,,,,,,,,,,,3,9,39,2,,,,,,,AMSA11.jpg,AMNE04.jpg,AMSA02.jpg,AMNE19.jpg,AMNE04.jpg,MN,1,num_6,16,num_6,0.583450002479,,,2017_Oct_13_1815,60.0112601123,MAFE4ImagesEEG,001,201801,
AFNE01.JPG,AFNE01.JPG,AFNE01.JPG,AFNE01.JPG,AFNE01.JPG,AFNE01.JPG,,,,,,,,,,,,,,,,,4,0,40,2,,,,,,,AMSA05.jpg,AMSA11.jpg,AMNE19.jpg,AMNE03.jpg,AMNE03.jpg,MN,1,num_4,16,num_4,0.850120068993,,,2017_Oct_13_1815,60.0112601123,MAFE4ImagesEEG,001,201801,
AFNE01.JPG,AFNE01.JPG,AFNE01.JPG,AFNE01.JPG,AFNE01.JPG,AFNE01.JPG,,,,,,,,,,,,,,,,,4,1,41,7,,,,,,,AMNE01.jpg,AMSA19.jpg,AMSA20.jpg,AMNE20.jpg,AMNE01.jpg,MN,1,num_8,16,num_8,0.700162198278,,,2017_Oct_13_1815,60.0112601123,MAFE4ImagesEEG,001,201801,
AFNE01.JPG,AFNE01.JPG,AFNE01.JPG,AFNE01.JPG,AFNE01.JPG,AFNE01.JPG,,,,,,,,,,,,,,,,,4,2,42,9,,,,,,,AMSA06.jpg,AMNE04.jpg,AMNE13.jpg,AMSA04.jpg,AMNE13.jpg,MN,1,num_2,32,num_6,0.683489485644,,,2017_Oct_13_1815,60.0112601123,MAFE4ImagesEEG,001,201801,
AFNE01.JPG,AFNE01.JPG,AFNE01.JPG,AFNE01.JPG,AFNE01.JPG,AFNE01.JPG,,,,,,,,,,,,,,,,,4,3,43,5,,,,,,,AMSA10.jpg,AMNE04.jpg,AMNE01.jpg,AMSA05.jpg,AMNE01.jpg,MN,1,num_2,32,num_4,0.366834317567,,,2017_Oct_13_1815,60.0112601123,MAFE4ImagesEEG,001,201801,
AFNE01.JPG,AFNE01.JPG,AFNE01.JPG,AFNE01.JPG,AFNE01.JPG,AFNE01.JPG,,,,,,,,,,,,,,,,,4,4,44,4,,,,,,,AMNE15.jpg,AMSA05.jpg,AMNE10.jpg,AMSA16.jpg,AMSA16.jpg,MS,2,num_4,16,num_4,0.516835167422,,,2017_Oct_13_1815,60.0112601123,MAFE4ImagesEEG,001,201801,
AFNE01.JPG,AFNE01.JPG,AFNE01.JPG,AFNE01.JPG,AFNE01.JPG,AFNE01.JPG,,,,,,,,,,,,,,,,,4,5,45,8,,,,,,,AMSA14.jpg,AMSA19.jpg,AMNE03.jpg,AMNE16.jpg,AMSA19.jpg,MS,2,num_6,16,num_6,1.99999390601,,,2017_Oct_13_1815,60.0112601123,MAFE4ImagesEEG,001,201801,
AFNE01.JPG,AFNE01.JPG,AFNE01.JPG,AFNE01.JPG,AFNE01.JPG,AFNE01.JPG,,,,,,,,,,,,,,,,,4,6,46,6,,,,,,,AMNE17.jpg,AMSA02.jpg,AMNE03.jpg,AMSA05.jpg,AMNE17.jpg,MN,1,num_8,32,num_4,0.800120534142,,,2017_Oct_13_1815,60.0112601123,MAFE4ImagesEEG,001,201801,
AFNE01.JPG,AFNE01.JPG,AFNE01.JPG,AFNE01.JPG,AFNE01.JPG,AFNE01.JPG,,,,,,,,,,,,,,,,,4,7,47,1,,,,,,,AMSA16.jpg,AMSA01.jpg,AMNE16.jpg,AMNE15.jpg,AMNE16.jpg,MN,1,num_2,32,num_8,0.700180159765,,,2017_Oct_13_1815,60.0112601123,MAFE4ImagesEEG,001,201801,
AFNE01.JPG,AFNE01.JPG,AFNE01.JPG,AFNE01.JPG,AFNE01.JPG,AFNE01.JPG,,,,,,,,,,,,,,,,,4,8,48,0,,,,,,,AMSA10.jpg,AMNE08.jpg,AMNE09.jpg,AMSA13.jpg,AMSA13.jpg,MS,2,num_4,32,num_6,0.850163048133,,,2017_Oct_13_1815,60.0112601123,MAFE4ImagesEEG,001,201801,
AFNE01.JPG,AFNE01.JPG,AFNE01.JPG,AFNE01.JPG,AFNE01.JPG,AFNE01.JPG,,,,,,,,,,,,,,,,,4,9,49,3,,,,,,,AMSA19.jpg,AMNE15.jpg,AMNE14.jpg,AMSA13.jpg,AMNE15.jpg,MN,1,num_6,32,num_8,0.983487978228,,,2017_Oct_13_1815,60.0112601123,MAFE4ImagesEEG,001,201801,
AFNE01.JPG,AFNE01.JPG,AFNE01.JPG,AFNE01.JPG,AFNE01.JPG,AFNE01.JPG,,,,,,,,,,,,,,,,,5,0,50,5,,,,,,,AMSA09.jpg,AMNE14.jpg,AMNE17.jpg,AMSA15.jpg,AMNE17.jpg,MN,1,num_2,32,num_8,0.683531823335,,,2017_Oct_13_1815,60.0112601123,MAFE4ImagesEEG,001,201801,
AFNE01.JPG,AFNE01.JPG,AFNE01.JPG,AFNE01.JPG,AFNE01.JPG,AFNE01.JPG,,,,,,,,,,,,,,,,,5,1,51,3,,,,,,,AMSA13.jpg,AMNE01.jpg,AMNE16.jpg,AMSA06.jpg,AMSA13.jpg,MS,2,num_8,32,num_4,0.566819948377,,,2017_Oct_13_1815,60.0112601123,MAFE4ImagesEEG,001,201801,
AFNE01.JPG,AFNE01.JPG,AFNE01.JPG,AFNE01.JPG,AFNE01.JPG,AFNE01.JPG,,,,,,,,,,,,,,,,,5,2,52,6,,,,,,,AMSA15.jpg,AMNE01.jpg,AMSA10.jpg,AMNE19.jpg,AMNE01.jpg,MN,1,num_6,32,num_8,0.649988822173,,,2017_Oct_13_1815,60.0112601123,MAFE4ImagesEEG,001,201801,
AFNE01.JPG,AFNE01.JPG,AFNE01.JPG,AFNE01.JPG,AFNE01.JPG,AFNE01.JPG,,,,,,,,,,,,,,,,,5,3,53,2,,,,,,,AMSA02.jpg,AMSA06.jpg,AMNE08.jpg,AMNE20.jpg,AMSA06.jpg,MS,2,num_6,32,num_8,0.683327832608,,,2017_Oct_13_1815,60.0112601123,MAFE4ImagesEEG,001,201801,
AFNE01.JPG,AFNE01.JPG,AFNE01.JPG,AFNE01.JPG,AFNE01.JPG,AFNE01.JPG,,,,,,,,,,,,,,,,,5,4,54,4,,,,,,,AMNE12.jpg,AMNE06.jpg,AMSA03.jpg,AMSA08.jpg,AMNE12.jpg,MN,1,num_8,16,num_8,0.550211704569,,,2017_Oct_13_1815,60.0112601123,MAFE4ImagesEEG,001,201801,
AFNE01.JPG,AFNE01.JPG,AFNE01.JPG,AFNE01.JPG,AFNE01.JPG,AFNE01.JPG,,,,,,,,,,,,,,,,,5,5,55,1,,,,,,,AMSA05.jpg,AMNE02.jpg,AMSA08.jpg,AMNE09.jpg,AMNE09.jpg,MN,1,num_4,32,num_8,0.633508874453,,,2017_Oct_13_1815,60.0112601123,MAFE4ImagesEEG,001,201801,
AFNE01.JPG,AFNE01.JPG,AFNE01.JPG,AFNE01.JPG,AFNE01.JPG,AFNE01.JPG,,,,,,,,,,,,,,,,,5,6,56,9,,,,,,,AMNE20.jpg,AMNE01.jpg,AMSA19.jpg,AMSA02.jpg,AMNE20.jpg,MN,1,num_8,16,num_8,0.61679510714,,,2017_Oct_13_1815,60.0112601123,MAFE4ImagesEEG,001,201801,
AFNE01.JPG,AFNE01.JPG,AFNE01.JPG,AFNE01.JPG,AFNE01.JPG,AFNE01.JPG,,,,,,,,,,,,,,,,,5,7,57,8,,,,,,,AMNE05.jpg,AMSA20.jpg,AMNE14.jpg,AMSA17.jpg,AMNE14.jpg,MN,1,num_2,16,num_2,1.18342806387,,,2017_Oct_13_1815,60.0112601123,MAFE4ImagesEEG,001,201801,
AFNE01.JPG,AFNE01.JPG,AFNE01.JPG,AFNE01.JPG,AFNE01.JPG,AFNE01.JPG,,,,,,,,,,,,,,,,,5,8,58,0,,,,,,,AMSA18.jpg,AMNE17.jpg,AMSA12.jpg,AMNE10.jpg,AMNE17.jpg,MN,1,num_6,16,num_6,0.566814816557,,,2017_Oct_13_1815,60.0112601123,MAFE4ImagesEEG,001,201801,
AFNE01.JPG,AFNE01.JPG,AFNE01.JPG,AFNE01.JPG,AFNE01.JPG,AFNE01.JPG,,,,,,,,,,,,,,,,,5,9,59,7,,,,,,,AMSA09.jpg,AMSA04.jpg,AMNE07.jpg,AMNE19.jpg,AMNE19.jpg,MN,1,num_4,32,num_8,0.666823187843,,,2017_Oct_13_1815,60.0112601123,MAFE4ImagesEEG,001,201801,
,,,,,,,,,,,,,,,,,,,,,,,,,,,,,,,,,,,,,,,,,,,space,2.54998141318,2017_Oct_13_1815,60.0112601123,MAFE4ImagesEEG,001,201801,
AFNE01.JPG,AFNE01.JPG,AFNE01.JPG,AFNE01.JPG,AFNE01.JPG,AFNE01.JPG,,,,,,,,,,,,,,,,,,,,,0,0,0,8,,,AFSA11.jpg,AFNE13.jpg,AFNE10.jpg,AFSA20.jpg,AFSA20.jpg,FS,4,num_4,16,num_4,0.750183222815,,,2017_Oct_13_1815,60.0112601123,MAFE4ImagesEEG,001,201801,
AFNE01.JPG,AFNE01.JPG,AFNE01.JPG,AFNE01.JPG,AFNE01.JPG,AFNE01.JPG,,,,,,,,,,,,,,,,,,,,,0,1,1,1,,,AFNE14.jpg,AFNE11.jpg,AFSA17.jpg,AFSA13.jpg,AFNE11.jpg,FN,3,num_6,16,num_6,0.666802018997,,,2017_Oct_13_1815,60.0112601123,MAFE4ImagesEEG,001,201801,
AFNE01.JPG,AFNE01.JPG,AFNE01.JPG,AFNE01.JPG,AFNE01.JPG,AFNE01.JPG,,,,,,,,,,,,,,,,,,,,,0,2,2,9,,,AFNE08.jpg,AFSA16.jpg,AFSA12.jpg,AFNE18.jpg,AFSA12.jpg,FS,4,num_2,32,num_8,0.683467996074,,,2017_Oct_13_1815,60.0112601123,MAFE4ImagesEEG,001,201801,
AFNE01.JPG,AFNE01.JPG,AFNE01.JPG,AFNE01.JPG,AFNE01.JPG,AFNE01.JPG,,,,,,,,,,,,,,,,,,,,,0,3,3,0,,,AFSA20.jpg,AFNE02.jpg,AFNE03.jpg,AFSA02.jpg,AFSA20.jpg,FS,4,num_8,32,num_4,0.866803366109,,,2017_Oct_13_1815,60.0112601123,MAFE4ImagesEEG,001,201801,
AFNE01.JPG,AFNE01.JPG,AFNE01.JPG,AFNE01.JPG,AFNE01.JPG,AFNE01.JPG,,,,,,,,,,,,,,,,,,,,,0,4,4,5,,,AFNE15.jpg,AFSA20.jpg,AFSA01.jpg,AFNE11.jpg,AFNE15.jpg,FN,3,num_8,16,num_8,0.583489132812,,,2017_Oct_13_1815,60.0112601123,MAFE4ImagesEEG,001,201801,
AFNE01.JPG,AFNE01.JPG,AFNE01.JPG,AFNE01.JPG,AFNE01.JPG,AFNE01.JPG,,,,,,,,,,,,,,,,,,,,,0,5,5,6,,,AFSA12.jpg,AFNE18.jpg,AFSA19.jpg,AFNE07.jpg,AFNE18.jpg,FN,3,num_6,16,num_6,0.683435922023,,,2017_Oct_13_1815,60.0112601123,MAFE4ImagesEEG,001,201801,
AFNE01.JPG,AFNE01.JPG,AFNE01.JPG,AFNE01.JPG,AFNE01.JPG,AFNE01.JPG,,,,,,,,,,,,,,,,,,,,,0,6,6,2,,,AFSA04.jpg,AFSA17.jpg,AFNE19.jpg,AFNE13.jpg,AFSA17.jpg,FS,4,num_6,32,num_2,0.616800559685,,,2017_Oct_13_1815,60.0112601123,MAFE4ImagesEEG,001,201801,
AFNE01.JPG,AFNE01.JPG,AFNE01.JPG,AFNE01.JPG,AFNE01.JPG,AFNE01.JPG,,,,,,,,,,,,,,,,,,,,,0,7,7,4,,,AFSA02.jpg,AFNE19.jpg,AFNE07.jpg,AFSA01.jpg,AFNE19.jpg,FN,3,num_6,32,num_4,1.16678068973,,,2017_Oct_13_1815,60.0112601123,MAFE4ImagesEEG,001,201801,
AFNE01.JPG,AFNE01.JPG,AFNE01.JPG,AFNE01.JPG,AFNE01.JPG,AFNE01.JPG,,,,,,,,,,,,,,,,,,,,,0,8,8,7,,,AFSA11.jpg,AFNE12.jpg,AFNE15.jpg,AFSA15.jpg,AFNE15.jpg,FN,3,num_2,32,num_6,0.600142280338,,,2017_Oct_13_1815,60.0112601123,MAFE4ImagesEEG,001,201801,
AFNE01.JPG,AFNE01.JPG,AFNE01.JPG,AFNE01.JPG,AFNE01.JPG,AFNE01.JPG,,,,,,,,,,,,,,,,,,,,,0,9,9,3,,,AFSA13.jpg,AFNE05.jpg,AFSA06.jpg,AFNE11.jpg,AFSA06.jpg,FS,4,num_2,32,num_4,0.616776824812,,,2017_Oct_13_1815,60.0112601123,MAFE4ImagesEEG,001,201801,
AFNE01.JPG,AFNE01.JPG,AFNE01.JPG,AFNE01.JPG,AFNE01.JPG,AFNE01.JPG,,,,,,,,,,,,,,,,,,,,,1,0,10,4,,,AFNE08.jpg,AFSA05.jpg,AFSA20.jpg,AFNE03.jpg,AFSA05.jpg,FS,4,num_6,16,num_6,0.500133588328,,,2017_Oct_13_1815,60.0112601123,MAFE4ImagesEEG,001,201801,
AFNE01.JPG,AFNE01.JPG,AFNE01.JPG,AFNE01.JPG,AFNE01.JPG,AFNE01.JPG,,,,,,,,,,,,,,,,,,,,,1,1,11,5,,,AFSA07.jpg,AFNE04.jpg,AFSA17.jpg,AFNE08.jpg,AFSA07.jpg,FS,4,num_8,32,num_4,0.766853690264,,,2017_Oct_13_1815,60.0112601123,MAFE4ImagesEEG,001,201801,
AFNE01.JPG,AFNE01.JPG,AFNE01.JPG,AFNE01.JPG,AFNE01.JPG,AFNE01.JPG,,,,,,,,,,,,,,,,,,,,,1,2,12,3,,,AFNE16.jpg,AFSA03.jpg,AFNE10.jpg,AFSA16.jpg,AFSA16.jpg,FS,4,num_4,32,num_8,0.40016851679,,,2017_Oct_13_1815,60.0112601123,MAFE4ImagesEEG,001,201801,
AFNE01.JPG,AFNE01.JPG,AFNE01.JPG,AFNE01.JPG,AFNE01.JPG,AFNE01.JPG,,,,,,,,,,,,,,,,,,,,,1,3,13,0,,,AFSA04.jpg,AFSA17.jpg,AFNE08.jpg,AFNE02.jpg,AFNE02.jpg,FN,3,num_4,32,num_6,1.51672258764,,,2017_Oct_13_1815,60.0112601123,MAFE4ImagesEEG,001,201801,
AFNE01.JPG,AFNE01.JPG,AFNE01.JPG,AFNE01.JPG,AFNE01.JPG,AFNE01.JPG,,,,,,,,,,,,,,,,,,,,,1,4,14,2,,,AFSA12.jpg,AFNE14.jpg,AFSA06.jpg,AFNE12.jpg,AFNE12.jpg,FN,3,num_4,16,num_4,0.65015239967,,,2017_Oct_13_1815,60.0112601123,MAFE4ImagesEEG,001,201801,
AFNE01.JPG,AFNE01.JPG,AFNE01.JPG,AFNE01.JPG,AFNE01.JPG,AFNE01.JPG,,,,,,,,,,,,,,,,,,,,,1,5,15,9,,,AFSA13.jpg,AFNE18.jpg,AFNE06.jpg,AFSA01.jpg,AFNE18.jpg,FN,3,num_6,16,num_6,0.83346307266,,,2017_Oct_13_1815,60.0112601123,MAFE4ImagesEEG,001,201801,
AFNE01.JPG,AFNE01.JPG,AFNE01.JPG,AFNE01.JPG,AFNE01.JPG,AFNE01.JPG,,,,,,,,,,,,,,,,,,,,,1,6,16,1,,,AFSA09.jpg,AFNE18.jpg,AFSA03.jpg,AFNE08.jpg,AFSA09.jpg,FS,4,num_8,32,num_6,0.533489277237,,,2017_Oct_13_1815,60.0112601123,MAFE4ImagesEEG,001,201801,
AFNE01.JPG,AFNE01.JPG,AFNE01.JPG,AFNE01.JPG,AFNE01.JPG,AFNE01.JPG,,,,,,,,,,,,,,,,,,,,,1,7,17,7,,,AFNE14.jpg,AFNE04.jpg,AFSA03.jpg,AFSA17.jpg,AFNE04.jpg,FN,3,num_6,16,num_6,0.650157852331,,,2017_Oct_13_1815,60.0112601123,MAFE4ImagesEEG,001,201801,
AFNE01.JPG,AFNE01.JPG,AFNE01.JPG,AFNE01.JPG,AFNE01.JPG,AFNE01.JPG,,,,,,,,,,,,,,,,,,,,,1,8,18,8,,,AFSA06.jpg,AFNE05.jpg,AFNE20.jpg,AFSA13.jpg,AFSA13.jpg,FS,4,num_4,32,num_8,0.55017546087,,,2017_Oct_13_1815,60.0112601123,MAFE4ImagesEEG,001,201801,
AFNE01.JPG,AFNE01.JPG,AFNE01.JPG,AFNE01.JPG,AFNE01.JPG,AFNE01.JPG,,,,,,,,,,,,,,,,,,,,,1,9,19,6,,,AFSA04.jpg,AFSA02.jpg,AFNE16.jpg,AFNE14.jpg,AFSA02.jpg,FS,4,num_6,32,num_4,1.26673613896,,,2017_Oct_13_1815,60.0112601123,MAFE4ImagesEEG,001,201801,
AFNE01.JPG,AFNE01.JPG,AFNE01.JPG,AFNE01.JPG,AFNE01.JPG,AFNE01.JPG,,,,,,,,,,,,,,,,,,,,,2,0,20,7,,,AFSA17.jpg,AFNE01.jpg,AFSA10.jpg,AFNE08.jpg,AFSA10.jpg,FS,4,num_2,16,num_2,0.75014313031,,,2017_Oct_13_1815,60.0112601123,MAFE4ImagesEEG,001,201801,
AFNE01.JPG,AFNE01.JPG,AFNE01.JPG,AFNE01.JPG,AFNE01.JPG,AFNE01.JPG,,,,,,,,,,,,,,,,,,,,,2,1,21,8,,,AFSA15.jpg,AFNE02.jpg,AFSA18.jpg,AFNE10.jpg,AFNE02.jpg,FN,3,num_6,32,num_8,0.850134181674,,,2017_Oct_13_1815,60.0112601123,MAFE4ImagesEEG,001,201801,
AFNE01.JPG,AFNE01.JPG,AFNE01.JPG,AFNE01.JPG,AFNE01.JPG,AFNE01.JPG,,,,,,,,,,,,,,,,,,,,,2,2,22,9,,,AFNE01.jpg,AFSA19.jpg,AFNE08.jpg,AFSA05.jpg,AFSA19.jpg,FS,4,num_6,16,num_6,0.950097970082,,,2017_Oct_13_1815,60.0112601123,MAFE4ImagesEEG,001,201801,
AFNE01.JPG,AFNE01.JPG,AFNE01.JPG,AFNE01.JPG,AFNE01.JPG,AFNE01.JPG,,,,,,,,,,,,,,,,,,,,,2,3,23,1,,,AFNE08.jpg,AFNE16.jpg,AFSA03.jpg,AFSA13.jpg,AFSA03.jpg,FS,4,num_2,32,num_4,0.61673769448,,,2017_Oct_13_1815,60.0112601123,MAFE4ImagesEEG,001,201801,
AFNE01.JPG,AFNE01.JPG,AFNE01.JPG,AFNE01.JPG,AFNE01.JPG,AFNE01.JPG,,,,,,,,,,,,,,,,,,,,,2,4,24,0,,,AFNE12.jpg,AFSA08.jpg,AFNE02.jpg,AFSA11.jpg,AFNE12.jpg,FN,3,num_8,16,num_8,0.900134357973,,,2017_Oct_13_1815,60.0112601123,MAFE4ImagesEEG,001,201801,
AFNE01.JPG,AFNE01.JPG,AFNE01.JPG,AFNE01.JPG,AFNE01.JPG,AFNE01.JPG,,,,,,,,,,,,,,,,,,,,,2,5,25,4,,,AFNE11.jpg,AFNE10.jpg,AFSA11.jpg,AFSA04.jpg,AFSA11.jpg,FS,4,num_2,32,num_4,0.683486599009,,,2017_Oct_13_1815,60.0112601123,MAFE4ImagesEEG,001,201801,
AFNE01.JPG,AFNE01.JPG,AFNE01.JPG,AFNE01.JPG,AFNE01.JPG,AFNE01.JPG,,,,,,,,,,,,,,,,,,,,,2,6,26,2,,,AFSA05.jpg,AFSA11.jpg,AFNE11.jpg,AFNE03.jpg,AFSA05.jpg,FS,4,num_8,32,num_4,0.83345537493,,,2017_Oct_13_1815,60.0112601123,MAFE4ImagesEEG,001,201801,
AFNE01.JPG,AFNE01.JPG,AFNE01.JPG,AFNE01.JPG,AFNE01.JPG,AFNE01.JPG,,,,,,,,,,,,,,,,,,,,,2,7,27,3,,,AFNE16.jpg,AFNE12.jpg,AFSA06.jpg,AFSA15.jpg,AFNE16.jpg,FN,3,num_8,32,num_4,0.866845062235,,,2017_Oct_13_1815,60.0112601123,MAFE4ImagesEEG,001,201801,
AFNE01.JPG,AFNE01.JPG,AFNE01.JPG,AFNE01.JPG,AFNE01.JPG,AFNE01.JPG,,,,,,,,,,,,,,,,,,,,,2,8,28,5,,,AFSA08.jpg,AFSA16.jpg,AFNE06.jpg,AFNE07.jpg,AFSA08.jpg,FS,4,num_8,16,num_8,1.06673671631,,,2017_Oct_13_1815,60.0112601123,MAFE4ImagesEEG,001,201801,
AFNE01.JPG,AFNE01.JPG,AFNE01.JPG,AFNE01.JPG,AFNE01.JPG,AFNE01.JPG,,,,,,,,,,,,,,,,,,,,,2,9,29,6,,,AFNE09.jpg,AFSA16.jpg,AFNE17.jpg,AFSA07.jpg,AFNE17.jpg,FN,3,num_2,32,num_6,0.866765839513,,,2017_Oct_13_1815,60.0112601123,MAFE4ImagesEEG,001,201801,
AFNE01.JPG,AFNE01.JPG,AFNE01.JPG,AFNE01.JPG,AFNE01.JPG,AFNE01.JPG,,,,,,,,,,,,,,,,,,,,,3,0,30,4,,,AFNE01.jpg,AFSA09.jpg,AFSA11.jpg,AFNE19.jpg,AFNE01.jpg,FN,3,num_8,32,num_2,1.00014272938,,,2017_Oct_13_1815,60.0112601123,MAFE4ImagesEEG,001,201801,
AFNE01.JPG,AFNE01.JPG,AFNE01.JPG,AFNE01.JPG,AFNE01.JPG,AFNE01.JPG,,,,,,,,,,,,,,,,,,,,,3,1,31,9,,,AFSA14.jpg,AFNE12.jpg,AFNE13.jpg,AFSA15.jpg,AFSA14.jpg,FS,4,num_8,32,num_4,1.3999975624,,,2017_Oct_13_1815,60.0112601123,MAFE4ImagesEEG,001,201801,
AFNE01.JPG,AFNE01.JPG,AFNE01.JPG,AFNE01.JPG,AFNE01.JPG,AFNE01.JPG,,,,,,,,,,,,,,,,,,,,,3,2,32,0,,,AFSA13.jpg,AFNE10.jpg,AFSA12.jpg,AFNE11.jpg,AFSA12.jpg,FS,4,num_2,32,num_6,0.833523371839,,,2017_Oct_13_1815,60.0112601123,MAFE4ImagesEEG,001,201801,
AFNE01.JPG,AFNE01.JPG,AFNE01.JPG,AFNE01.JPG,AFNE01.JPG,AFNE01.JPG,,,,,,,,,,,,,,,,,,,,,3,3,33,2,,,AFSA09.jpg,AFNE13.jpg,AFNE16.jpg,AFSA05.jpg,AFSA05.jpg,FS,4,num_4,16,num_4,0.666814848664,,,2017_Oct_13_1815,60.0112601123,MAFE4ImagesEEG,001,201801,
AFNE01.JPG,AFNE01.JPG,AFNE01.JPG,AFNE01.JPG,AFNE01.JPG,AFNE01.JPG,,,,,,,,,,,,,,,,,,,,,3,4,34,5,,,AFSA03.jpg,AFNE11.jpg,AFSA14.jpg,AFNE04.jpg,AFNE11.jpg,FN,3,num_6,16,num_6,0.533496012678,,,2017_Oct_13_1815,60.0112601123,MAFE4ImagesEEG,001,201801,
AFNE01.JPG,AFNE01.JPG,AFNE01.JPG,AFNE01.JPG,AFNE01.JPG,AFNE01.JPG,,,,,,,,,,,,,,,,,,,,,3,5,35,3,,,AFSA09.jpg,AFSA03.jpg,AFNE14.jpg,AFNE10.jpg,AFSA03.jpg,FS,4,num_6,16,num_6,0.500179454102,,,2017_Oct_13_1815,60.0112601123,MAFE4ImagesEEG,001,201801,
AFNE01.JPG,AFNE01.JPG,AFNE01.JPG,AFNE01.JPG,AFNE01.JPG,AFNE01.JPG,,,,,,,,,,,,,,,,,,,,,3,6,36,8,,,AFNE10.jpg,AFSA04.jpg,AFSA07.jpg,AFNE14.jpg,AFNE10.jpg,FN,3,num_8,16,num_8,0.666804584907,,,2017_Oct_13_1815,60.0112601123,MAFE4ImagesEEG,001,201801,
AFNE01.JPG,AFNE01.JPG,AFNE01.JPG,AFNE01.JPG,AFNE01.JPG,AFNE01.JPG,,,,,,,,,,,,,,,,,,,,,3,7,37,1,,,AFSA14.jpg,AFSA10.jpg,AFNE18.jpg,AFNE07.jpg,AFSA10.jpg,FS,4,num_6,16,num_6,0.616672263481,,,2017_Oct_13_1815,60.0112601123,MAFE4ImagesEEG,001,201801,
AFNE01.JPG,AFNE01.JPG,AFNE01.JPG,AFNE01.JPG,AFNE01.JPG,AFNE01.JPG,,,,,,,,,,,,,,,,,,,,,3,8,38,7,,,AFSA18.jpg,AFSA14.jpg,AFNE15.jpg,AFNE01.jpg,AFSA18.jpg,FS,4,num_8,32,num_4,0.683527012239,,,2017_Oct_13_1815,60.0112601123,MAFE4ImagesEEG,001,201801,
