IPosition2,IPosition3,IPosition1,IPosition6,IPosition4,IPosition5,TrialsF1.thisRepN,TrialsF1.thisTrialN,TrialsF1.thisN,TrialsF1.thisIndex,TrialsM1.thisRepN,TrialsM1.thisTrialN,TrialsM1.thisN,TrialsM1.thisIndex,TrialsF2.thisRepN,TrialsF2.thisTrialN,TrialsF2.thisN,TrialsF2.thisIndex,TrialsM2.thisRepN,TrialsM2.thisTrialN,TrialsM2.thisN,TrialsM2.thisIndex,TrialsF3.thisRepN,TrialsF3.thisTrialN,TrialsF3.thisN,TrialsF3.thisIndex,TrialsM3.thisRepN,TrialsM3.thisTrialN,TrialsM3.thisN,TrialsM3.thisIndex,InstrKey_resp.keys,InstrKey_resp.rt,Image0 _Position,Image1 _Position,Image2 _Position,Image3 _Position,Center_image,condition,code,correct_answer,accuracy,Key_Resp.keys,Key_Resp.rt,BreakKey_resp.keys,BreakKey_resp.rt,date,frameRate,expName,session,participant,
,,,,,,,,,,,,,,,,,,,,,,,,,,,,,,space,13.1497237305,,,,,,,,,,,,,,2017_Oct_10_1801,60.0034064452,FEMA4ImagesEEG,001,201867,
AMNE22.JPG,AMSA24.JPG,AMSA22.JPG,AMNE25.JPG,AMNE24.JPG,AMSA25.JPG,0,0,0,7,,,,,,,,,,,,,,,,,,,,,,,AFNE09.jpg,AFNE08.jpg,AFSA18.jpg,AFSA16.jpg,AFNE09.jpg,FN,3,num_8,16,num_8,0.766760675586,,,2017_Oct_10_1801,60.0034064452,FEMA4ImagesEEG,001,201867,
AFSA21.JPG,AFNE22.JPG,AFNE21.JPG,AFSA23.JPG,AFSA22.JPG,AFNE23.JPG,0,1,1,0,,,,,,,,,,,,,,,,,,,,,,,AFSA06.jpg,AFNE09.jpg,AFNE02.jpg,AFSA20.jpg,AFNE09.jpg,FN,3,num_6,32,num_2,1.13341313344,,,2017_Oct_10_1801,60.0034064452,FEMA4ImagesEEG,001,201867,
AFNE23.JPG,AFNE24.JPG,AFNE22.JPG,AFSA24.JPG,AFSA22.JPG,AFSA23.JPG,0,2,2,8,,,,,,,,,,,,,,,,,,,,,,,AFNE19.jpg,AFSA01.jpg,AFSA10.jpg,AFNE10.jpg,AFNE10.jpg,FN,3,num_4,32,num_8,0.88344817434,,,2017_Oct_10_1801,60.0034064452,FEMA4ImagesEEG,001,201867,
AFSA21.JPG,AFNE23.JPG,AFNE21.JPG,AFSA25.JPG,AFNE25.JPG,AFSA23.JPG,0,3,3,4,,,,,,,,,,,,,,,,,,,,,,,AFNE20.jpg,AFSA11.jpg,AFSA03.jpg,AFNE09.jpg,AFNE09.jpg,FN,3,num_4,32,num_8,1.16678389721,,,2017_Oct_10_1801,60.0034064452,FEMA4ImagesEEG,001,201867,
AFNE22.JPG,AFSA24.JPG,AFSA22.JPG,AFNE25.JPG,AFNE24.JPG,AFSA25.JPG,0,4,4,6,,,,,,,,,,,,,,,,,,,,,,,AFSA01.jpg,AFSA02.jpg,AFNE04.jpg,AFNE03.jpg,AFSA02.jpg,FS,4,num_6,16,num_6,1.00024151721,,,2017_Oct_10_1801,60.0034064452,FEMA4ImagesEEG,001,201867,
AMSA21.JPG,AMNE23.JPG,AMNE21.JPG,AMSA25.JPG,AMNE25.JPG,AMSA23.JPG,0,5,5,5,,,,,,,,,,,,,,,,,,,,,,,AFNE07.jpg,AFSA10.jpg,AFNE19.jpg,AFSA15.jpg,AFSA10.jpg,FS,4,num_6,32,num_8,1.0167474451,,,2017_Oct_10_1801,60.0034064452,FEMA4ImagesEEG,001,201867,
AMSA25.JPG,AMNE24.JPG,AMSA24.JPG,AMNE26.JPG,AMSA21.JPG,AMNE25.JPG,0,6,6,3,,,,,,,,,,,,,,,,,,,,,,,AFSA16.jpg,AFSA19.jpg,AFNE12.jpg,AFNE03.jpg,AFSA19.jpg,FS,4,num_6,16,num_6,0.666819018195,,,2017_Oct_10_1801,60.0034064452,FEMA4ImagesEEG,001,201867,
AMSA21.JPG,AMNE22.JPG,AMNE21.JPG,AMSA23.JPG,AMSA22.JPG,AMNE23.JPG,0,7,7,1,,,,,,,,,,,,,,,,,,,,,,,AFNE09.jpg,AFSA07.jpg,AFSA10.jpg,AFNE16.jpg,AFSA07.jpg,FS,4,num_6,32,num_2,0.950134213665,,,2017_Oct_10_1801,60.0034064452,FEMA4ImagesEEG,001,201867,
AFSA25.JPG,AFNE24.JPG,AFSA24.JPG,AFNE21.JPG,AFSA21.JPG,AFNE25.JPG,0,8,8,2,,,,,,,,,,,,,,,,,,,,,,,AFNE20.jpg,AFSA20.jpg,AFNE19.jpg,AFSA18.jpg,AFNE19.jpg,FN,3,num_2,32,num_6,1.50007425132,,,2017_Oct_10_1801,60.0034064452,FEMA4ImagesEEG,001,201867,
AMNE23.JPG,AMNE24.JPG,AMNE22.JPG,AMSA24.JPG,AMSA22.JPG,AMSA23.JPG,0,9,9,9,,,,,,,,,,,,,,,,,,,,,,,AFSA11.jpg,AFNE13.jpg,AFNE17.jpg,AFSA04.jpg,AFNE17.jpg,FN,3,num_2,16,num_2,0.966697233263,,,2017_Oct_10_1801,60.0034064452,FEMA4ImagesEEG,001,201867,
AFSA21.JPG,AFNE22.JPG,AFNE21.JPG,AFSA23.JPG,AFSA22.JPG,AFNE23.JPG,,,,,0,0,0,0,,,,,,,,,,,,,,,,,,,AMSA09.jpg,AMNE03.jpg,AMNE07.jpg,AMSA15.jpg,AMSA09.jpg,MS,2,num_8,32,num_6,1.36672558659,,,2017_Oct_10_1801,60.0034064452,FEMA4ImagesEEG,001,201867,
AFSA21.JPG,AFNE23.JPG,AFNE21.JPG,AFSA25.JPG,AFNE25.JPG,AFSA23.JPG,,,,,0,1,1,4,,,,,,,,,,,,,,,,,,,AMNE12.jpg,AMNE07.jpg,AMSA14.jpg,AMSA08.jpg,AMSA14.jpg,MS,2,num_2,16,num_2,0.816727815778,,,2017_Oct_10_1801,60.0034064452,FEMA4ImagesEEG,001,201867,
AMSA21.JPG,AMNE23.JPG,AMNE21.JPG,AMSA25.JPG,AMNE25.JPG,AMSA23.JPG,,,,,0,2,2,5,,,,,,,,,,,,,,,,,,,AMNE20.jpg,AMSA12.jpg,AMSA02.jpg,AMNE17.jpg,AMSA12.jpg,MS,2,num_6,16,num_6,0.950093158986,,,2017_Oct_10_1801,60.0034064452,FEMA4ImagesEEG,001,201867,
AFNE23.JPG,AFNE24.JPG,AFNE22.JPG,AFSA24.JPG,AFSA22.JPG,AFSA23.JPG,,,,,0,3,3,8,,,,,,,,,,,,,,,,,,,AMNE19.jpg,AMSA16.jpg,AMSA17.jpg,AMNE15.jpg,AMNE15.jpg,MN,1,num_4,16,num_4,0.750130621484,,,2017_Oct_10_1801,60.0034064452,FEMA4ImagesEEG,001,201867,
AFSA25.JPG,AFNE24.JPG,AFSA24.JPG,AFNE21.JPG,AFSA21.JPG,AFNE25.JPG,,,,,0,4,4,2,,,,,,,,,,,,,,,,,,,AMNE04.jpg,AMSA08.jpg,AMNE03.jpg,AMSA12.jpg,AMNE04.jpg,MN,1,num_8,32,num_2,0.983435697504,,,2017_Oct_10_1801,60.0034064452,FEMA4ImagesEEG,001,201867,
AMNE22.JPG,AMSA24.JPG,AMSA22.JPG,AMNE25.JPG,AMNE24.JPG,AMSA25.JPG,,,,,0,5,5,7,,,,,,,,,,,,,,,,,,,AMSA01.jpg,AMNE10.jpg,AMNE05.jpg,AMSA05.jpg,AMNE10.jpg,MN,1,num_6,16,num_6,1.58340606105,,,2017_Oct_10_1801,60.0034064452,FEMA4ImagesEEG,001,201867,
AMSA25.JPG,AMNE24.JPG,AMSA24.JPG,AMNE26.JPG,AMSA21.JPG,AMNE25.JPG,,,,,0,6,6,3,,,,,,,,,,,,,,,,,,,AMSA14.jpg,AMSA18.jpg,AMNE04.jpg,AMNE02.jpg,AMSA14.jpg,MS,2,num_8,32,num_2,1.81673807942,,,2017_Oct_10_1801,60.0034064452,FEMA4ImagesEEG,001,201867,
AMNE23.JPG,AMNE24.JPG,AMNE22.JPG,AMSA24.JPG,AMSA22.JPG,AMSA23.JPG,,,,,0,7,7,9,,,,,,,,,,,,,,,,,,,AMSA09.jpg,AMNE04.jpg,AMNE20.jpg,AMSA12.jpg,AMSA12.jpg,MS,2,num_4,32,num_8,1.13344456605,,,2017_Oct_10_1801,60.0034064452,FEMA4ImagesEEG,001,201867,
AMSA21.JPG,AMNE22.JPG,AMNE21.JPG,AMSA23.JPG,AMSA22.JPG,AMNE23.JPG,,,,,0,8,8,1,,,,,,,,,,,,,,,,,,,AMSA14.jpg,AMSA18.jpg,AMNE18.jpg,AMNE15.jpg,AMNE15.jpg,MN,1,num_4,16,num_4,1.05010120955,,,2017_Oct_10_1801,60.0034064452,FEMA4ImagesEEG,001,201867,
AFNE22.JPG,AFSA24.JPG,AFSA22.JPG,AFNE25.JPG,AFNE24.JPG,AFSA25.JPG,,,,,0,9,9,6,,,,,,,,,,,,,,,,,,,AMNE14.jpg,AMNE10.jpg,AMSA11.jpg,AMSA09.jpg,AMSA09.jpg,MS,2,num_4,32,num_2,1.0168507233,,,2017_Oct_10_1801,60.0034064452,FEMA4ImagesEEG,001,201867,
AMSA21.JPG,AMNE22.JPG,AMNE21.JPG,AMSA23.JPG,AMSA22.JPG,AMNE23.JPG,,,,,,,,,0,0,0,1,,,,,,,,,,,,,,,AFNE10.jpg,AFNE03.jpg,AFSA02.jpg,AFSA08.jpg,AFNE03.jpg,FN,3,num_6,32,num_4,1.78338591871,,,2017_Oct_10_1801,60.0034064452,FEMA4ImagesEEG,001,201867,
AFSA25.JPG,AFNE24.JPG,AFSA24.JPG,AFNE21.JPG,AFSA21.JPG,AFNE25.JPG,,,,,,,,,0,1,1,2,,,,,,,,,,,,,,,AFSA13.jpg,AFNE03.jpg,AFSA02.jpg,AFNE05.jpg,AFNE03.jpg,FN,3,num_6,32,num_8,2.70010286139,,,2017_Oct_10_1801,60.0034064452,FEMA4ImagesEEG,001,201867,
AFNE23.JPG,AFNE24.JPG,AFNE22.JPG,AFSA24.JPG,AFSA22.JPG,AFSA23.JPG,,,,,,,,,0,2,2,8,,,,,,,,,,,,,,,AFNE20.jpg,AFNE03.jpg,AFSA15.jpg,AFSA19.jpg,AFNE03.jpg,FN,3,num_6,16,num_6,1.03348847537,,,2017_Oct_10_1801,60.0034064452,FEMA4ImagesEEG,001,201867,
AMSA21.JPG,AMNE23.JPG,AMNE21.JPG,AMSA25.JPG,AMNE25.JPG,AMSA23.JPG,,,,,,,,,0,3,3,5,,,,,,,,,,,,,,,AFNE20.jpg,AFSA07.jpg,AFNE08.jpg,AFSA01.jpg,AFNE08.jpg,FN,3,num_2,32,num_8,1.15007077123,,,2017_Oct_10_1801,60.0034064452,FEMA4ImagesEEG,001,201867,
AFNE22.JPG,AFSA24.JPG,AFSA22.JPG,AFNE25.JPG,AFNE24.JPG,AFSA25.JPG,,,,,,,,,0,4,4,6,,,,,,,,,,,,,,,AFSA07.jpg,AFSA11.jpg,AFNE08.jpg,AFNE02.jpg,AFNE08.jpg,FN,3,num_2,16,num_2,1.10014596884,,,2017_Oct_10_1801,60.0034064452,FEMA4ImagesEEG,001,201867,
AMNE23.JPG,AMNE24.JPG,AMNE22.JPG,AMSA24.JPG,AMSA22.JPG,AMSA23.JPG,,,,,,,,,0,5,5,9,,,,,,,,,,,,,,,AFSA11.jpg,AFSA07.jpg,AFNE18.jpg,AFNE20.jpg,AFSA11.jpg,FS,4,num_8,16,num_8,1.26673261076,,,2017_Oct_10_1801,60.0034064452,FEMA4ImagesEEG,001,201867,
AFSA21.JPG,AFNE23.JPG,AFNE21.JPG,AFSA25.JPG,AFNE25.JPG,AFSA23.JPG,,,,,,,,,0,6,6,4,,,,,,,,,,,,,,,AFSA05.jpg,AFNE02.jpg,AFSA18.jpg,AFNE06.jpg,AFNE06.jpg,FN,3,num_4,32,num_8,1.61671877094,,,2017_Oct_10_1801,60.0034064452,FEMA4ImagesEEG,001,201867,
AMSA25.JPG,AMNE24.JPG,AMSA24.JPG,AMNE26.JPG,AMSA21.JPG,AMNE25.JPG,,,,,,,,,0,7,7,3,,,,,,,,,,,,,,,AFNE08.jpg,AFSA05.jpg,AFNE19.jpg,AFSA01.jpg,AFNE19.jpg,FN,3,num_2,16,num_2,1.11672117643,,,2017_Oct_10_1801,60.0034064452,FEMA4ImagesEEG,001,201867,
AMNE22.JPG,AMSA24.JPG,AMSA22.JPG,AMNE25.JPG,AMNE24.JPG,AMSA25.JPG,,,,,,,,,0,8,8,7,,,,,,,,,,,,,,,AFNE09.jpg,AFNE13.jpg,AFSA01.jpg,AFSA08.jpg,AFNE09.jpg,FN,3,num_8,16,num_8,1.05008902145,,,2017_Oct_10_1801,60.0034064452,FEMA4ImagesEEG,001,201867,
AFSA21.JPG,AFNE22.JPG,AFNE21.JPG,AFSA23.JPG,AFSA22.JPG,AFNE23.JPG,,,,,,,,,0,9,9,0,,,,,,,,,,,,,,,AFNE18.jpg,AFSA20.jpg,AFSA05.jpg,AFNE10.jpg,AFNE18.jpg,FN,3,num_8,32,num_2,0.933296640753,,,2017_Oct_10_1801,60.0034064452,FEMA4ImagesEEG,001,201867,
AFSA21.JPG,AFNE23.JPG,AFNE21.JPG,AFSA25.JPG,AFNE25.JPG,AFSA23.JPG,,,,,,,,,,,,,0,0,0,4,,,,,,,,,,,AMNE06.jpg,AMSA14.jpg,AMSA06.jpg,AMNE20.jpg,AMSA14.jpg,MS,2,num_6,16,num_6,0.816767908284,,,2017_Oct_10_1801,60.0034064452,FEMA4ImagesEEG,001,201867,
AFNE23.JPG,AFNE24.JPG,AFNE22.JPG,AFSA24.JPG,AFSA22.JPG,AFSA23.JPG,,,,,,,,,,,,,0,1,1,8,,,,,,,,,,,AMSA13.jpg,AMNE14.jpg,AMSA01.jpg,AMNE01.jpg,AMNE01.jpg,MN,1,num_4,32,num_2,1.11667627282,,,2017_Oct_10_1801,60.0034064452,FEMA4ImagesEEG,001,201867,
AMSA25.JPG,AMNE24.JPG,AMSA24.JPG,AMNE26.JPG,AMSA21.JPG,AMNE25.JPG,,,,,,,,,,,,,0,2,2,3,,,,,,,,,,,AMSA04.jpg,AMSA06.jpg,AMNE18.jpg,AMNE14.jpg,AMSA06.jpg,MS,2,num_6,32,num_8,1.28332545923,,,2017_Oct_10_1801,60.0034064452,FEMA4ImagesEEG,001,201867,
AMSA21.JPG,AMNE22.JPG,AMNE21.JPG,AMSA23.JPG,AMSA22.JPG,AMNE23.JPG,,,,,,,,,,,,,0,3,3,1,,,,,,,,,,,AMSA18.jpg,AMNE13.jpg,AMNE05.jpg,AMSA05.jpg,AMNE05.jpg,MN,1,num_2,16,num_2,1.88338979962,,,2017_Oct_10_1801,60.0034064452,FEMA4ImagesEEG,001,201867,
AFSA25.JPG,AFNE24.JPG,AFSA24.JPG,AFNE21.JPG,AFSA21.JPG,AFNE25.JPG,,,,,,,,,,,,,0,4,4,2,,,,,,,,,,,AMSA14.jpg,AMNE18.jpg,AMNE13.jpg,AMSA02.jpg,AMSA02.jpg,MS,2,num_4,16,num_4,0.916766657378,,,2017_Oct_10_1801,60.0034064452,FEMA4ImagesEEG,001,201867,
AMNE22.JPG,AMSA24.JPG,AMSA22.JPG,AMNE25.JPG,AMNE24.JPG,AMSA25.JPG,,,,,,,,,,,,,0,5,5,7,,,,,,,,,,,AMSA14.jpg,AMNE07.jpg,AMSA15.jpg,AMNE01.jpg,AMNE07.jpg,MN,1,num_6,16,num_6,1.38344576873,,,2017_Oct_10_1801,60.0034064452,FEMA4ImagesEEG,001,201867,
AFNE22.JPG,AFSA24.JPG,AFSA22.JPG,AFNE25.JPG,AFNE24.JPG,AFSA25.JPG,,,,,,,,,,,,,0,6,6,6,,,,,,,,,,,AMSA07.jpg,AMNE02.jpg,AMNE20.jpg,AMSA01.jpg,AMNE20.jpg,MN,1,num_2,16,num_2,0.600170184742,,,2017_Oct_10_1801,60.0034064452,FEMA4ImagesEEG,001,201867,
AMSA21.JPG,AMNE23.JPG,AMNE21.JPG,AMSA25.JPG,AMNE25.JPG,AMSA23.JPG,,,,,,,,,,,,,0,7,7,5,,,,,,,,,,,AMNE17.jpg,AMNE20.jpg,AMSA12.jpg,AMSA15.jpg,AMSA12.jpg,MS,2,num_2,32,num_8,1.43339013634,,,2017_Oct_10_1801,60.0034064452,FEMA4ImagesEEG,001,201867,
AMNE23.JPG,AMNE24.JPG,AMNE22.JPG,AMSA24.JPG,AMSA22.JPG,AMSA23.JPG,,,,,,,,,,,,,0,8,8,9,,,,,,,,,,,AMNE11.jpg,AMNE14.jpg,AMSA15.jpg,AMSA11.jpg,AMNE14.jpg,MN,1,num_6,16,num_6,0.816738079418,,,2017_Oct_10_1801,60.0034064452,FEMA4ImagesEEG,001,201867,
AFSA21.JPG,AFNE22.JPG,AFNE21.JPG,AFSA23.JPG,AFSA22.JPG,AFNE23.JPG,,,,,,,,,,,,,0,9,9,0,,,,,,,,,,,AMNE04.jpg,AMNE07.jpg,AMSA08.jpg,AMSA18.jpg,AMSA18.jpg,MS,2,num_4,16,num_4,0.899998043431,,,2017_Oct_10_1801,60.0034064452,FEMA4ImagesEEG,001,201867,
AFNE22.JPG,AFSA24.JPG,AFSA22.JPG,AFNE25.JPG,AFNE24.JPG,AFSA25.JPG,,,,,,,,,,,,,,,,,0,0,0,6,,,,,,,AFNE20.jpg,AFNE06.jpg,AFSA15.jpg,AFSA01.jpg,AFNE06.jpg,FN,3,num_6,32,num_8,0.916838823934,,,2017_Oct_10_1801,60.0034064452,FEMA4ImagesEEG,001,201867,
AMSA21.JPG,AMNE22.JPG,AMNE21.JPG,AMSA23.JPG,AMSA22.JPG,AMNE23.JPG,,,,,,,,,,,,,,,,,0,1,1,1,,,,,,,AFSA01.jpg,AFSA09.jpg,AFNE19.jpg,AFNE15.jpg,AFSA01.jpg,FS,4,num_8,32,num_2,1.4834525364,,,2017_Oct_10_1801,60.0034064452,FEMA4ImagesEEG,001,201867,
AMNE23.JPG,AMNE24.JPG,AMNE22.JPG,AMSA24.JPG,AMSA22.JPG,AMSA23.JPG,,,,,,,,,,,,,,,,,0,2,2,9,,,,,,,AFNE16.jpg,AFSA10.jpg,AFNE10.jpg,AFSA11.jpg,AFNE10.jpg,FN,3,num_2,16,num_2,1.48347915779,,,2017_Oct_10_1801,60.0034064452,FEMA4ImagesEEG,001,201867,
AFSA21.JPG,AFNE23.JPG,AFNE21.JPG,AFSA25.JPG,AFNE25.JPG,AFSA23.JPG,,,,,,,,,,,,,,,,,0,3,3,4,,,,,,,AFSA02.jpg,AFNE09.jpg,AFNE17.jpg,AFSA14.jpg,AFNE17.jpg,FN,3,num_2,32,num_8,1.08341873041,,,2017_Oct_10_1801,60.0034064452,FEMA4ImagesEEG,001,201867,
AFSA21.JPG,AFNE22.JPG,AFNE21.JPG,AFSA23.JPG,AFSA22.JPG,AFNE23.JPG,,,,,,,,,,,,,,,,,0,4,4,0,,,,,,,AFNE06.jpg,AFNE07.jpg,AFSA11.jpg,AFSA06.jpg,AFSA11.jpg,FS,4,num_2,16,num_2,1.13342371781,,,2017_Oct_10_1801,60.0034064452,FEMA4ImagesEEG,001,201867,
AFNE23.JPG,AFNE24.JPG,AFNE22.JPG,AFSA24.JPG,AFSA22.JPG,AFSA23.JPG,,,,,,,,,,,,,,,,,0,5,5,8,,,,,,,AFSA05.jpg,AFNE08.jpg,AFSA11.jpg,AFNE17.jpg,AFNE08.jpg,FN,3,num_6,16,num_6,0.633468461223,,,2017_Oct_10_1801,60.0034064452,FEMA4ImagesEEG,001,201867,
AMNE22.JPG,AMSA24.JPG,AMSA22.JPG,AMNE25.JPG,AMNE24.JPG,AMSA25.JPG,,,,,,,,,,,,,,,,,0,6,6,7,,,,,,,AFSA02.jpg,AFNE18.jpg,AFNE03.jpg,AFSA17.jpg,AFNE03.jpg,FN,3,num_2,32,num_8,0.866742104758,,,2017_Oct_10_1801,60.0034064452,FEMA4ImagesEEG,001,201867,
AMSA25.JPG,AMNE24.JPG,AMSA24.JPG,AMNE26.JPG,AMSA21.JPG,AMNE25.JPG,,,,,,,,,,,,,,,,,0,7,7,3,,,,,,,AFNE14.jpg,AFNE15.jpg,AFSA10.jpg,AFSA12.jpg,AFNE14.jpg,FN,3,num_8,32,num_2,1.55012189725,,,2017_Oct_10_1801,60.0034064452,FEMA4ImagesEEG,001,201867,
AMSA21.JPG,AMNE23.JPG,AMNE21.JPG,AMSA25.JPG,AMNE25.JPG,AMSA23.JPG,,,,,,,,,,,,,,,,,0,8,8,5,,,,,,,AFNE12.jpg,AFNE02.jpg,AFSA12.jpg,AFSA13.jpg,AFNE02.jpg,FN,3,num_6,16,num_6,0.900131792179,,,2017_Oct_10_1801,60.0034064452,FEMA4ImagesEEG,001,201867,
AFSA25.JPG,AFNE24.JPG,AFSA24.JPG,AFNE21.JPG,AFSA21.JPG,AFNE25.JPG,,,,,,,,,,,,,,,,,0,9,9,2,,,,,,,AFSA07.jpg,AFSA05.jpg,AFNE07.jpg,AFNE04.jpg,AFSA05.jpg,FS,4,num_6,32,num_8,1.39978651539,,,2017_Oct_10_1801,60.0034064452,FEMA4ImagesEEG,001,201867,
AMSA21.JPG,AMNE23.JPG,AMNE21.JPG,AMSA25.JPG,AMNE25.JPG,AMSA23.JPG,,,,,,,,,,,,,,,,,,,,,0,0,0,5,,,AMSA18.jpg,AMSA11.jpg,AMNE17.jpg,AMNE12.jpg,AMSA18.jpg,MS,2,num_8,32,num_6,1.18329207005,,,2017_Oct_10_1801,60.0034064452,FEMA4ImagesEEG,001,201867,
AMNE22.JPG,AMSA24.JPG,AMSA22.JPG,AMNE25.JPG,AMNE24.JPG,AMSA25.JPG,,,,,,,,,,,,,,,,,,,,,0,1,1,7,,,AMNE14.jpg,AMSA12.jpg,AMSA18.jpg,AMNE07.jpg,AMSA18.jpg,MS,2,num_2,16,num_2,0.866850194172,,,2017_Oct_10_1801,60.0034064452,FEMA4ImagesEEG,001,201867,
AFSA21.JPG,AFNE22.JPG,AFNE21.JPG,AFSA23.JPG,AFSA22.JPG,AFNE23.JPG,,,,,,,,,,,,,,,,,,,,,0,2,2,0,,,AMSA14.jpg,AMNE02.jpg,AMNE08.jpg,AMSA17.jpg,AMSA14.jpg,MS,2,num_8,16,num_8,0.750161091797,,,2017_Oct_10_1801,60.0034064452,FEMA4ImagesEEG,001,201867,
AFSA25.JPG,AFNE24.JPG,AFSA24.JPG,AFNE21.JPG,AFSA21.JPG,AFNE25.JPG,,,,,,,,,,,,,,,,,,,,,0,3,3,2,,,AMSA14.jpg,AMNE11.jpg,AMSA15.jpg,AMNE19.jpg,AMSA14.jpg,MS,2,num_8,16,num_8,0.883462607628,,,2017_Oct_10_1801,60.0034064452,FEMA4ImagesEEG,001,201867,
AMSA25.JPG,AMNE24.JPG,AMSA24.JPG,AMNE26.JPG,AMSA21.JPG,AMNE25.JPG,,,,,,,,,,,,,,,,,,,,,0,4,4,3,,,AMNE04.jpg,AMSA20.jpg,AMSA13.jpg,AMNE06.jpg,AMNE04.jpg,MN,1,num_8,32,num_6,1.18347296759,,,2017_Oct_10_1801,60.0034064452,FEMA4ImagesEEG,001,201867,
AFNE22.JPG,AFSA24.JPG,AFSA22.JPG,AFNE25.JPG,AFNE24.JPG,AFSA25.JPG,,,,,,,,,,,,,,,,,,,,,0,5,5,6,,,AMSA01.jpg,AMNE01.jpg,AMSA14.jpg,AMNE16.jpg,AMNE01.jpg,MN,1,num_6,32,num_2,1.00010456133,,,2017_Oct_10_1801,60.0034064452,FEMA4ImagesEEG,001,201867,
AFNE23.JPG,AFNE24.JPG,AFNE22.JPG,AFSA24.JPG,AFSA22.JPG,AFSA23.JPG,,,,,,,,,,,,,,,,,,,,,0,6,6,8,,,AMSA17.jpg,AMNE10.jpg,AMNE20.jpg,AMSA05.jpg,AMNE10.jpg,MN,1,num_6,16,num_6,1.6000386813,,,2017_Oct_10_1801,60.0034064452,FEMA4ImagesEEG,001,201867,
AMSA21.JPG,AMNE22.JPG,AMNE21.JPG,AMSA23.JPG,AMSA22.JPG,AMNE23.JPG,,,,,,,,,,,,,,,,,,,,,0,7,7,1,,,AMNE05.jpg,AMNE11.jpg,AMSA01.jpg,AMSA08.jpg,AMSA01.jpg,MS,2,num_2,16,num_2,0.716758253984,,,2017_Oct_10_1801,60.0034064452,FEMA4ImagesEEG,001,201867,
AFSA21.JPG,AFNE23.JPG,AFNE21.JPG,AFSA25.JPG,AFNE25.JPG,AFSA23.JPG,,,,,,,,,,,,,,,,,,,,,0,8,8,4,,,AMNE06.jpg,AMSA15.jpg,AMSA03.jpg,AMNE09.jpg,AMNE09.jpg,MN,1,num_4,32,num_8,0.933533346863,,,2017_Oct_10_1801,60.0034064452,FEMA4ImagesEEG,001,201867,
AMNE23.JPG,AMNE24.JPG,AMNE22.JPG,AMSA24.JPG,AMSA22.JPG,AMSA23.JPG,,,,,,,,,,,,,,,,,,,,,0,9,9,9,,,AMSA19.jpg,AMNE15.jpg,AMNE07.jpg,AMSA10.jpg,AMNE15.jpg,MN,1,num_6,32,num_2,1.35011124867,,,2017_Oct_10_1801,60.0034064452,FEMA4ImagesEEG,001,201867,
,,,,,,,,,,,,,,,,,,,,,,,,,,,,,,,,,,,,,,,,,,,space,6.63267334644,2017_Oct_10_1801,60.0034064452,FEMA4ImagesEEG,001,201867,
AFNE01.JPG,AFNE01.JPG,AFNE01.JPG,AFNE01.JPG,AFNE01.JPG,AFNE01.JPG,0,0,0,8,,,,,,,,,,,,,,,,,,,,,,,AFSA04.jpg,AFSA08.jpg,AFNE07.jpg,AFNE06.jpg,AFNE07.jpg,FN,3,num_2,16,num_2,1.73339087411,,,2017_Oct_10_1801,60.0034064452,FEMA4ImagesEEG,001,201867,
AFNE01.JPG,AFNE01.JPG,AFNE01.JPG,AFNE01.JPG,AFNE01.JPG,AFNE01.JPG,0,1,1,7,,,,,,,,,,,,,,,,,,,,,,,AFSA02.jpg,AFSA10.jpg,AFNE17.jpg,AFNE04.jpg,AFNE04.jpg,FN,3,num_4,32,num_8,1.10044554016,,,2017_Oct_10_1801,60.0034064452,FEMA4ImagesEEG,001,201867,
AFNE01.JPG,AFNE01.JPG,AFNE01.JPG,AFNE01.JPG,AFNE01.JPG,AFNE01.JPG,0,2,2,9,,,,,,,,,,,,,,,,,,,,,,,AFSA18.jpg,AFNE16.jpg,AFSA05.jpg,AFNE04.jpg,AFSA18.jpg,FS,4,num_8,16,num_8,1.0334464584,,,2017_Oct_10_1801,60.0034064452,FEMA4ImagesEEG,001,201867,
AFNE01.JPG,AFNE01.JPG,AFNE01.JPG,AFNE01.JPG,AFNE01.JPG,AFNE01.JPG,0,3,3,4,,,,,,,,,,,,,,,,,,,,,,,AFSA04.jpg,AFNE01.jpg,AFNE04.jpg,AFSA18.jpg,AFSA04.jpg,FS,4,num_8,32,num_6,1.06681882578,,,2017_Oct_10_1801,60.0034064452,FEMA4ImagesEEG,001,201867,
AFNE01.JPG,AFNE01.JPG,AFNE01.JPG,AFNE01.JPG,AFNE01.JPG,AFNE01.JPG,0,4,4,6,,,,,,,,,,,,,,,,,,,,,,,AFSA07.jpg,AFNE01.jpg,AFNE17.jpg,AFSA01.jpg,AFSA07.jpg,FS,4,num_8,16,num_8,1.10012961109,,,2017_Oct_10_1801,60.0034064452,FEMA4ImagesEEG,001,201867,
AFNE01.JPG,AFNE01.JPG,AFNE01.JPG,AFNE01.JPG,AFNE01.JPG,AFNE01.JPG,0,5,5,5,,,,,,,,,,,,,,,,,,,,,,,AFNE16.jpg,AFNE01.jpg,AFSA12.jpg,AFSA10.jpg,AFSA12.jpg,FS,4,num_2,16,num_2,0.950166287716,,,2017_Oct_10_1801,60.0034064452,FEMA4ImagesEEG,001,201867,
AFNE01.JPG,AFNE01.JPG,AFNE01.JPG,AFNE01.JPG,AFNE01.JPG,AFNE01.JPG,0,6,6,0,,,,,,,,,,,,,,,,,,,,,,,AFNE12.jpg,AFNE06.jpg,AFSA10.jpg,AFSA07.jpg,AFNE06.jpg,FN,3,num_6,32,num_8,1.75003600307,,,2017_Oct_10_1801,60.0034064452,FEMA4ImagesEEG,001,201867,
AFNE01.JPG,AFNE01.JPG,AFNE01.JPG,AFNE01.JPG,AFNE01.JPG,AFNE01.JPG,0,7,7,2,,,,,,,,,,,,,,,,,,,,,,,AFSA03.jpg,AFSA02.jpg,AFNE12.jpg,AFNE03.jpg,AFSA02.jpg,FS,4,num_6,16,num_6,1.06677873328,,,2017_Oct_10_1801,60.0034064452,FEMA4ImagesEEG,001,201867,
AFNE01.JPG,AFNE01.JPG,AFNE01.JPG,AFNE01.JPG,AFNE01.JPG,AFNE01.JPG,0,8,8,1,,,,,,,,,,,,,,,,,,,,,,,AFSA07.jpg,AFNE08.jpg,AFNE06.jpg,AFSA04.jpg,AFNE08.jpg,FN,3,num_6,32,num_8,1.03332297341,,,2017_Oct_10_1801,60.0034064452,FEMA4ImagesEEG,001,201867,
AFNE01.JPG,AFNE01.JPG,AFNE01.JPG,AFNE01.JPG,AFNE01.JPG,AFNE01.JPG,0,9,9,3,,,,,,,,,,,,,,,,,,,,,,,AFSA12.jpg,AFNE14.jpg,AFNE20.jpg,AFSA16.jpg,AFNE14.jpg,FN,3,num_6,16,num_6,1.00013759756,,,2017_Oct_10_1801,60.0034064452,FEMA4ImagesEEG,001,201867,
AFNE01.JPG,AFNE01.JPG,AFNE01.JPG,AFNE01.JPG,AFNE01.JPG,AFNE01.JPG,1,0,10,0,,,,,,,,,,,,,,,,,,,,,,,AFSA03.jpg,AFNE01.jpg,AFSA02.jpg,AFNE10.jpg,AFNE01.jpg,FN,3,num_6,32,num_2,0.950248397188,,,2017_Oct_10_1801,60.0034064452,FEMA4ImagesEEG,001,201867,
AFNE01.JPG,AFNE01.JPG,AFNE01.JPG,AFNE01.JPG,AFNE01.JPG,AFNE01.JPG,1,1,11,1,,,,,,,,,,,,,,,,,,,,,,,AFSA07.jpg,AFSA15.jpg,AFNE16.jpg,AFNE15.jpg,AFNE16.jpg,FN,3,num_2,32,num_4,2.24999093916,,,2017_Oct_10_1801,60.0034064452,FEMA4ImagesEEG,001,201867,
AFNE01.JPG,AFNE01.JPG,AFNE01.JPG,AFNE01.JPG,AFNE01.JPG,AFNE01.JPG,1,2,12,8,,,,,,,,,,,,,,,,,,,,,,,AFNE20.jpg,AFSA08.jpg,AFSA17.jpg,AFNE03.jpg,AFNE03.jpg,FN,3,num_4,16,num_4,1.40035999869,,,2017_Oct_10_1801,60.0034064452,FEMA4ImagesEEG,001,201867,
AFNE01.JPG,AFNE01.JPG,AFNE01.JPG,AFNE01.JPG,AFNE01.JPG,AFNE01.JPG,1,3,13,6,,,,,,,,,,,,,,,,,,,,,,,AFNE18.jpg,AFNE19.jpg,AFSA07.jpg,AFSA12.jpg,AFSA12.jpg,FS,4,num_4,16,num_4,0.683495579753,,,2017_Oct_10_1801,60.0034064452,FEMA4ImagesEEG,001,201867,
AFNE01.JPG,AFNE01.JPG,AFNE01.JPG,AFNE01.JPG,AFNE01.JPG,AFNE01.JPG,1,4,14,4,,,,,,,,,,,,,,,,,,,,,,,AFSA15.jpg,AFNE16.jpg,AFSA08.jpg,AFNE20.jpg,AFSA15.jpg,FS,4,num_8,32,num_6,1.36660691269,,,2017_Oct_10_1801,60.0034064452,FEMA4ImagesEEG,001,201867,
AFNE01.JPG,AFNE01.JPG,AFNE01.JPG,AFNE01.JPG,AFNE01.JPG,AFNE01.JPG,1,5,15,5,,,,,,,,,,,,,,,,,,,,,,,AFSA09.jpg,AFSA19.jpg,AFNE12.jpg,AFNE03.jpg,AFSA09.jpg,FS,4,num_8,16,num_8,1.46657262556,,,2017_Oct_10_1801,60.0034064452,FEMA4ImagesEEG,001,201867,
AFNE01.JPG,AFNE01.JPG,AFNE01.JPG,AFNE01.JPG,AFNE01.JPG,AFNE01.JPG,1,6,16,2,,,,,,,,,,,,,,,,,,,,,,,AFSA06.jpg,AFSA19.jpg,AFNE15.jpg,AFNE08.jpg,AFNE08.jpg,FN,3,num_4,32,num_2,0.916734262602,,,2017_Oct_10_1801,60.0034064452,FEMA4ImagesEEG,001,201867,
AFNE01.JPG,AFNE01.JPG,AFNE01.JPG,AFNE01.JPG,AFNE01.JPG,AFNE01.JPG,1,7,17,9,,,,,,,,,,,,,,,,,,,,,,,AFSA09.jpg,AFNE16.jpg,AFNE09.jpg,AFSA07.jpg,AFNE09.jpg,FN,3,num_2,32,num_8,1.75003664463,,,2017_Oct_10_1801,60.0034064452,FEMA4ImagesEEG,001,201867,
AFNE01.JPG,AFNE01.JPG,AFNE01.JPG,AFNE01.JPG,AFNE01.JPG,AFNE01.JPG,1,8,18,3,,,,,,,,,,,,,,,,,,,,,,,AFSA14.jpg,AFSA05.jpg,AFNE18.jpg,AFNE19.jpg,AFSA14.jpg,FS,4,num_8,16,num_8,1.21675616922,,,2017_Oct_10_1801,60.0034064452,FEMA4ImagesEEG,001,201867,
AFNE01.JPG,AFNE01.JPG,AFNE01.JPG,AFNE01.JPG,AFNE01.JPG,AFNE01.JPG,1,9,19,7,,,,,,,,,,,,,,,,,,,,,,,AFSA05.jpg,AFSA13.jpg,AFNE06.jpg,AFNE19.jpg,AFNE19.jpg,FN,3,num_4,16,num_4,1.4834076328,,,2017_Oct_10_1801,60.0034064452,FEMA4ImagesEEG,001,201867,
AFNE01.JPG,AFNE01.JPG,AFNE01.JPG,AFNE01.JPG,AFNE01.JPG,AFNE01.JPG,2,0,20,4,,,,,,,,,,,,,,,,,,,,,,,AFNE05.jpg,AFNE07.jpg,AFSA13.jpg,AFSA07.jpg,AFSA07.jpg,FS,4,num_4,32,num_6,1.93343263445,,,2017_Oct_10_1801,60.0034064452,FEMA4ImagesEEG,001,201867,
AFNE01.JPG,AFNE01.JPG,AFNE01.JPG,AFNE01.JPG,AFNE01.JPG,AFNE01.JPG,2,1,21,0,,,,,,,,,,,,,,,,,,,,,,,AFSA07.jpg,AFSA11.jpg,AFNE03.jpg,AFNE17.jpg,AFNE17.jpg,FN,3,num_4,32,num_2,1.21672505746,,,2017_Oct_10_1801,60.0034064452,FEMA4ImagesEEG,001,201867,
AFNE01.JPG,AFNE01.JPG,AFNE01.JPG,AFNE01.JPG,AFNE01.JPG,AFNE01.JPG,2,2,22,7,,,,,,,,,,,,,,,,,,,,,,,AFNE12.jpg,AFSA07.jpg,AFSA02.jpg,AFNE20.jpg,AFSA07.jpg,FS,4,num_6,32,num_8,0.850150218699,,,2017_Oct_10_1801,60.0034064452,FEMA4ImagesEEG,001,201867,
AFNE01.JPG,AFNE01.JPG,AFNE01.JPG,AFNE01.JPG,AFNE01.JPG,AFNE01.JPG,2,3,23,2,,,,,,,,,,,,,,,,,,,,,,,AFNE03.jpg,AFNE17.jpg,AFSA05.jpg,AFSA12.jpg,AFSA12.jpg,FS,4,num_4,16,num_4,0.716818232439,,,2017_Oct_10_1801,60.0034064452,FEMA4ImagesEEG,001,201867,
AFNE01.JPG,AFNE01.JPG,AFNE01.JPG,AFNE01.JPG,AFNE01.JPG,AFNE01.JPG,2,4,24,1,,,,,,,,,,,,,,,,,,,,,,,AFSA17.jpg,AFNE01.jpg,AFNE03.jpg,AFSA05.jpg,AFNE03.jpg,FN,3,num_2,16,num_2,1.41675398813,,,2017_Oct_10_1801,60.0034064452,FEMA4ImagesEEG,001,201867,
AFNE01.JPG,AFNE01.JPG,AFNE01.JPG,AFNE01.JPG,AFNE01.JPG,AFNE01.JPG,2,5,25,3,,,,,,,,,,,,,,,,,,,,,,,AFNE12.jpg,AFSA13.jpg,AFNE05.jpg,AFSA02.jpg,AFSA13.jpg,FS,4,num_6,16,num_6,1.15008712909,,,2017_Oct_10_1801,60.0034064452,FEMA4ImagesEEG,001,201867,
AFNE01.JPG,AFNE01.JPG,AFNE01.JPG,AFNE01.JPG,AFNE01.JPG,AFNE01.JPG,2,6,26,9,,,,,,,,,,,,,,,,,,,,,,,AFNE11.jpg,AFSA15.jpg,AFSA09.jpg,AFNE18.jpg,AFSA15.jpg,FS,4,num_6,32,num_8,1.03341791255,,,2017_Oct_10_1801,60.0034064452,FEMA4ImagesEEG,001,201867,
AFNE01.JPG,AFNE01.JPG,AFNE01.JPG,AFNE01.JPG,AFNE01.JPG,AFNE01.JPG,2,7,27,6,,,,,,,,,,,,,,,,,,,,,,,AFSA14.jpg,AFNE16.jpg,AFNE20.jpg,AFSA18.jpg,AFSA18.jpg,FS,4,num_4,32,num_8,2.31666094146,,,2017_Oct_10_1801,60.0034064452,FEMA4ImagesEEG,001,201867,
AFNE01.JPG,AFNE01.JPG,AFNE01.JPG,AFNE01.JPG,AFNE01.JPG,AFNE01.JPG,2,8,28,5,,,,,,,,,,,,,,,,,,,,,,,AFSA06.jpg,AFSA19.jpg,AFNE13.jpg,AFNE10.jpg,AFNE13.jpg,FN,3,num_2,16,num_2,0.883454909897,,,2017_Oct_10_1801,60.0034064452,FEMA4ImagesEEG,001,201867,
AFNE01.JPG,AFNE01.JPG,AFNE01.JPG,AFNE01.JPG,AFNE01.JPG,AFNE01.JPG,2,9,29,8,,,,,,,,,,,,,,,,,,,,,,,AFSA10.jpg,AFNE12.jpg,AFNE02.jpg,AFSA17.jpg,AFNE12.jpg,FN,3,num_6,16,num_6,0.866801120923,,,2017_Oct_10_1801,60.0034064452,FEMA4ImagesEEG,001,201867,
AFNE01.JPG,AFNE01.JPG,AFNE01.JPG,AFNE01.JPG,AFNE01.JPG,AFNE01.JPG,3,0,30,3,,,,,,,,,,,,,,,,,,,,,,,AFNE13.jpg,AFSA10.jpg,AFSA08.jpg,AFNE03.jpg,AFSA08.jpg,FS,4,num_2,32,num_8,1.54976363061,,,2017_Oct_10_1801,60.0034064452,FEMA4ImagesEEG,001,201867,
AFNE01.JPG,AFNE01.JPG,AFNE01.JPG,AFNE01.JPG,AFNE01.JPG,AFNE01.JPG,3,1,31,8,,,,,,,,,,,,,,,,,,,,,,,AFSA06.jpg,AFSA18.jpg,AFNE10.jpg,AFNE08.jpg,AFNE10.jpg,FN,3,num_2,32,num_8,2.28336106136,,,2017_Oct_10_1801,60.0034064452,FEMA4ImagesEEG,001,201867,
AFNE01.JPG,AFNE01.JPG,AFNE01.JPG,AFNE01.JPG,AFNE01.JPG,AFNE01.JPG,3,2,32,9,,,,,,,,,,,,,,,,,,,,,,,AFNE19.jpg,AFSA04.jpg,AFSA01.jpg,AFNE15.jpg,AFNE19.jpg,FN,3,num_8,32,num_2,0.916639644303,,,2017_Oct_10_1801,60.0034064452,FEMA4ImagesEEG,001,201867,
AFNE01.JPG,AFNE01.JPG,AFNE01.JPG,AFNE01.JPG,AFNE01.JPG,AFNE01.JPG,3,3,33,4,,,,,,,,,,,,,,,,,,,,,,,AFSA06.jpg,AFNE04.jpg,AFNE09.jpg,AFSA02.jpg,AFSA02.jpg,FS,4,num_4,16,num_4,0.75011907483,,,2017_Oct_10_1801,60.0034064452,FEMA4ImagesEEG,001,201867,
AFNE01.JPG,AFNE01.JPG,AFNE01.JPG,AFNE01.JPG,AFNE01.JPG,AFNE01.JPG,3,4,34,1,,,,,,,,,,,,,,,,,,,,,,,AFSA13.jpg,AFNE01.jpg,AFNE19.jpg,AFSA17.jpg,AFSA17.jpg,FS,4,num_4,16,num_4,0.750148903579,,,2017_Oct_10_1801,60.0034064452,FEMA4ImagesEEG,001,201867,
AFNE01.JPG,AFNE01.JPG,AFNE01.JPG,AFNE01.JPG,AFNE01.JPG,AFNE01.JPG,3,5,35,7,,,,,,,,,,,,,,,,,,,,,,,AFSA18.jpg,AFNE18.jpg,AFNE10.jpg,AFSA03.jpg,AFNE10.jpg,FN,3,num_2,16,num_2,0.800143948174,,,2017_Oct_10_1801,60.0034064452,FEMA4ImagesEEG,001,201867,
AFNE01.JPG,AFNE01.JPG,AFNE01.JPG,AFNE01.JPG,AFNE01.JPG,AFNE01.JPG,3,6,36,2,,,,,,,,,,,,,,,,,,,,,,,AFNE17.jpg,AFSA15.jpg,AFSA09.jpg,AFNE06.jpg,AFNE17.jpg,FN,3,num_8,16,num_8,1.00013663527,,,2017_Oct_10_1801,60.0034064452,FEMA4ImagesEEG,001,201867,
AFNE01.JPG,AFNE01.JPG,AFNE01.JPG,AFNE01.JPG,AFNE01.JPG,AFNE01.JPG,3,7,37,0,,,,,,,,,,,,,,,,,,,,,,,AFSA05.jpg,AFNE12.jpg,AFNE02.jpg,AFSA11.jpg,AFNE02.jpg,FN,3,num_2,16,num_2,1.03347660799,,,2017_Oct_10_1801,60.0034064452,FEMA4ImagesEEG,001,201867,
AFNE01.JPG,AFNE01.JPG,AFNE01.JPG,AFNE01.JPG,AFNE01.JPG,AFNE01.JPG,3,8,38,5,,,,,,,,,,,,,,,,,,,,,,,AFNE02.jpg,AFSA06.jpg,AFSA10.jpg,AFNE05.jpg,AFNE02.jpg,FN,3,num_8,32,num_4,1.26671593229,,,2017_Oct_10_1801,60.0034064452,FEMA4ImagesEEG,001,201867,
AFNE01.JPG,AFNE01.JPG,AFNE01.JPG,AFNE01.JPG,AFNE01.JPG,AFNE01.JPG,3,9,39,6,,,,,,,,,,,,,,,,,,,,,,,AFSA20.jpg,AFSA01.jpg,AFNE11.jpg,AFNE09.jpg,AFNE11.jpg,FN,3,num_2,32,num_6,1.03311994486,,,2017_Oct_10_1801,60.0034064452,FEMA4ImagesEEG,001,201867,
AFNE01.JPG,AFNE01.JPG,AFNE01.JPG,AFNE01.JPG,AFNE01.JPG,AFNE01.JPG,4,0,40,2,,,,,,,,,,,,,,,,,,,,,,,AFNE19.jpg,AFSA13.jpg,AFNE16.jpg,AFSA12.jpg,AFSA13.jpg,FS,4,num_6,16,num_6,1.00013984262,,,2017_Oct_10_1801,60.0034064452,FEMA4ImagesEEG,001,201867,
AFNE01.JPG,AFNE01.JPG,AFNE01.JPG,AFNE01.JPG,AFNE01.JPG,AFNE01.JPG,4,1,41,6,,,,,,,,,,,,,,,,,,,,,,,AFSA08.jpg,AFSA11.jpg,AFNE04.jpg,AFNE02.jpg,AFSA11.jpg,FS,4,num_6,16,num_6,1.0834828784,,,2017_Oct_10_1801,60.0034064452,FEMA4ImagesEEG,001,201867,
AFNE01.JPG,AFNE01.JPG,AFNE01.JPG,AFNE01.JPG,AFNE01.JPG,AFNE01.JPG,4,2,42,7,,,,,,,,,,,,,,,,,,,,,,,AFNE20.jpg,AFSA19.jpg,AFSA07.jpg,AFNE08.jpg,AFNE08.jpg,FN,3,num_4,16,num_4,0.866779952077,,,2017_Oct_10_1801,60.0034064452,FEMA4ImagesEEG,001,201867,
AFNE01.JPG,AFNE01.JPG,AFNE01.JPG,AFNE01.JPG,AFNE01.JPG,AFNE01.JPG,4,3,43,0,,,,,,,,,,,,,,,,,,,,,,,AFNE17.jpg,AFSA13.jpg,AFSA17.jpg,AFNE01.jpg,AFNE17.jpg,FN,3,num_8,32,num_6,1.45007375418,,,2017_Oct_10_1801,60.0034064452,FEMA4ImagesEEG,001,201867,
AFNE01.JPG,AFNE01.JPG,AFNE01.JPG,AFNE01.JPG,AFNE01.JPG,AFNE01.JPG,4,4,44,5,,,,,,,,,,,,,,,,,,,,,,,AFNE17.jpg,AFNE01.jpg,AFSA12.jpg,AFSA01.jpg,AFNE17.jpg,FN,3,num_8,32,num_6,1.06658789283,,,2017_Oct_10_1801,60.0034064452,FEMA4ImagesEEG,001,201867,
AFNE01.JPG,AFNE01.JPG,AFNE01.JPG,AFNE01.JPG,AFNE01.JPG,AFNE01.JPG,4,5,45,1,,,,,,,,,,,,,,,,,,,,,,,AFSA06.jpg,AFNE09.jpg,AFSA08.jpg,AFNE17.jpg,AFSA08.jpg,FS,4,num_2,32,num_8,0.933458614396,,,2017_Oct_10_1801,60.0034064452,FEMA4ImagesEEG,001,201867,
AFNE01.JPG,AFNE01.JPG,AFNE01.JPG,AFNE01.JPG,AFNE01.JPG,AFNE01.JPG,4,6,46,4,,,,,,,,,,,,,,,,,,,,,,,AFNE07.jpg,AFSA06.jpg,AFSA20.jpg,AFNE05.jpg,AFSA20.jpg,FS,4,num_2,32,num_6,1.06676141324,,,2017_Oct_10_1801,60.0034064452,FEMA4ImagesEEG,001,201867,
AFNE01.JPG,AFNE01.JPG,AFNE01.JPG,AFNE01.JPG,AFNE01.JPG,AFNE01.JPG,4,7,47,8,,,,,,,,,,,,,,,,,,,,,,,AFNE09.jpg,AFSA05.jpg,AFSA08.jpg,AFNE15.jpg,AFNE15.jpg,FN,3,num_4,16,num_4,2.34998102812,,,2017_Oct_10_1801,60.0034064452,FEMA4ImagesEEG,001,201867,
AFNE01.JPG,AFNE01.JPG,AFNE01.JPG,AFNE01.JPG,AFNE01.JPG,AFNE01.JPG,4,8,48,3,,,,,,,,,,,,,,,,,,,,,,,AFNE06.jpg,AFSA14.jpg,AFNE13.jpg,AFSA15.jpg,AFSA15.jpg,FS,4,num_4,16,num_4,0.733503774623,,,2017_Oct_10_1801,60.0034064452,FEMA4ImagesEEG,001,201867,
AFNE01.JPG,AFNE01.JPG,AFNE01.JPG,AFNE01.JPG,AFNE01.JPG,AFNE01.JPG,4,9,49,9,,,,,,,,,,,,,,,,,,,,,,,AFSA05.jpg,AFNE20.jpg,AFNE14.jpg,AFSA16.jpg,AFSA05.jpg,FS,4,num_8,32,num_2,1.25008940627,,,2017_Oct_10_1801,60.0034064452,FEMA4ImagesEEG,001,201867,
AFNE01.JPG,AFNE01.JPG,AFNE01.JPG,AFNE01.JPG,AFNE01.JPG,AFNE01.JPG,5,0,50,1,,,,,,,,,,,,,,,,,,,,,,,AFNE17.jpg,AFNE07.jpg,AFSA03.jpg,AFSA05.jpg,AFNE17.jpg,FN,3,num_8,32,num_2,1.13350486523,,,2017_Oct_10_1801,60.0034064452,FEMA4ImagesEEG,001,201867,
AFNE01.JPG,AFNE01.JPG,AFNE01.JPG,AFNE01.JPG,AFNE01.JPG,AFNE01.JPG,5,1,51,8,,,,,,,,,,,,,,,,,,,,,,,AFNE05.jpg,AFNE10.jpg,AFSA18.jpg,AFSA12.jpg,AFSA12.jpg,FS,4,num_4,16,num_4,0.733433853253,,,2017_Oct_10_1801,60.0034064452,FEMA4ImagesEEG,001,201867,
AFNE01.JPG,AFNE01.JPG,AFNE01.JPG,AFNE01.JPG,AFNE01.JPG,AFNE01.JPG,5,2,52,9,,,,,,,,,,,,,,,,,,,,,,,AFNE17.jpg,AFSA17.jpg,AFNE20.jpg,AFSA14.jpg,AFNE20.jpg,FN,3,num_2,16,num_2,1.59994534589,,,2017_Oct_10_1801,60.0034064452,FEMA4ImagesEEG,001,201867,
AFNE01.JPG,AFNE01.JPG,AFNE01.JPG,AFNE01.JPG,AFNE01.JPG,AFNE01.JPG,5,3,53,3,,,,,,,,,,,,,,,,,,,,,,,AFSA01.jpg,AFSA17.jpg,AFNE07.jpg,AFNE05.jpg,AFNE05.jpg,FN,3,num_4,32,num_8,0.933440973633,,,2017_Oct_10_1801,60.0034064452,FEMA4ImagesEEG,001,201867,
AFNE01.JPG,AFNE01.JPG,AFNE01.JPG,AFNE01.JPG,AFNE01.JPG,AFNE01.JPG,5,4,54,2,,,,,,,,,,,,,,,,,,,,,,,AFSA18.jpg,AFSA20.jpg,AFNE11.jpg,AFNE10.jpg,AFSA18.jpg,FS,4,num_8,32,num_6,1.00012701307,,,2017_Oct_10_1801,60.0034064452,FEMA4ImagesEEG,001,201867,
AFNE01.JPG,AFNE01.JPG,AFNE01.JPG,AFNE01.JPG,AFNE01.JPG,AFNE01.JPG,5,5,55,6,,,,,,,,,,,,,,,,,,,,,,,AFNE18.jpg,AFSA07.jpg,AFNE05.jpg,AFSA05.jpg,AFNE18.jpg,FN,3,num_8,16,num_8,0.850132577936,,,2017_Oct_10_1801,60.0034064452,FEMA4ImagesEEG,001,201867,
AFNE01.JPG,AFNE01.JPG,AFNE01.JPG,AFNE01.JPG,AFNE01.JPG,AFNE01.JPG,5,6,56,0,,,,,,,,,,,,,,,,,,,,,,,AFNE17.jpg,AFSA20.jpg,AFSA15.jpg,AFNE11.jpg,AFNE17.jpg,FN,3,num_8,32,num_6,1.60008454707,,,2017_Oct_10_1801,60.0034064452,FEMA4ImagesEEG,001,201867,
AFNE01.JPG,AFNE01.JPG,AFNE01.JPG,AFNE01.JPG,AFNE01.JPG,AFNE01.JPG,5,7,57,4,,,,,,,,,,,,,,,,,,,,,,,AFNE15.jpg,AFSA08.jpg,AFSA06.jpg,AFNE16.jpg,AFNE16.jpg,FN,3,num_4,32,num_8,0.916736828629,,,2017_Oct_10_1801,60.0034064452,FEMA4ImagesEEG,001,201867,
AFNE01.JPG,AFNE01.JPG,AFNE01.JPG,AFNE01.JPG,AFNE01.JPG,AFNE01.JPG,5,8,58,5,,,,,,,,,,,,,,,,,,,,,,,AFSA09.jpg,AFNE14.jpg,AFSA14.jpg,AFNE19.jpg,AFNE14.jpg,FN,3,num_6,16,num_6,1.01686194935,,,2017_Oct_10_1801,60.0034064452,FEMA4ImagesEEG,001,201867,
AFNE01.JPG,AFNE01.JPG,AFNE01.JPG,AFNE01.JPG,AFNE01.JPG,AFNE01.JPG,5,9,59,7,,,,,,,,,,,,,,,,,,,,,,,AFSA09.jpg,AFNE19.jpg,AFSA12.jpg,AFNE05.jpg,AFNE05.jpg,FN,3,num_4,32,num_8,1.06672837713,,,2017_Oct_10_1801,60.0034064452,FEMA4ImagesEEG,001,201867,
,,,,,,,,,,,,,,,,,,,,,,,,,,,,,,,,,,,,,,,,,,,space,35.8307393477,2017_Oct_10_1801,60.0034064452,FEMA4ImagesEEG,001,201867,
AFNE01.JPG,AFNE01.JPG,AFNE01.JPG,AFNE01.JPG,AFNE01.JPG,AFNE01.JPG,,,,,0,0,0,8,,,,,,,,,,,,,,,,,,,AMNE03.jpg,AMSA07.jpg,AMSA19.jpg,AMNE05.jpg,AMSA19.jpg,MS,2,num_2,32,num_8,1.33344174351,,,2017_Oct_10_1801,60.0034064452,FEMA4ImagesEEG,001,201867,
AFNE01.JPG,AFNE01.JPG,AFNE01.JPG,AFNE01.JPG,AFNE01.JPG,AFNE01.JPG,,,,,0,1,1,5,,,,,,,,,,,,,,,,,,,AMNE11.jpg,AMSA18.jpg,AMNE10.jpg,AMSA09.jpg,AMNE11.jpg,MN,1,num_8,16,num_8,0.783496253309,,,2017_Oct_10_1801,60.0034064452,FEMA4ImagesEEG,001,201867,
AFNE01.JPG,AFNE01.JPG,AFNE01.JPG,AFNE01.JPG,AFNE01.JPG,AFNE01.JPG,,,,,0,2,2,9,,,,,,,,,,,,,,,,,,,AMSA02.jpg,AMSA14.jpg,AMNE18.jpg,AMNE03.jpg,AMNE18.jpg,MN,1,num_2,16,num_2,0.983465526369,,,2017_Oct_10_1801,60.0034064452,FEMA4ImagesEEG,001,201867,
AFNE01.JPG,AFNE01.JPG,AFNE01.JPG,AFNE01.JPG,AFNE01.JPG,AFNE01.JPG,,,,,0,3,3,0,,,,,,,,,,,,,,,,,,,AMNE17.jpg,AMSA01.jpg,AMSA09.jpg,AMNE15.jpg,AMSA01.jpg,MS,2,num_6,32,num_2,2.89996981842,,,2017_Oct_10_1801,60.0034064452,FEMA4ImagesEEG,001,201867,
AFNE01.JPG,AFNE01.JPG,AFNE01.JPG,AFNE01.JPG,AFNE01.JPG,AFNE01.JPG,,,,,0,4,4,1,,,,,,,,,,,,,,,,,,,AMNE14.jpg,AMSA14.jpg,AMSA16.jpg,AMNE08.jpg,AMNE08.jpg,MN,1,num_4,16,num_4,0.833466280135,,,2017_Oct_10_1801,60.0034064452,FEMA4ImagesEEG,001,201867,
AFNE01.JPG,AFNE01.JPG,AFNE01.JPG,AFNE01.JPG,AFNE01.JPG,AFNE01.JPG,,,,,0,5,5,7,,,,,,,,,,,,,,,,,,,AMNE06.jpg,AMSA18.jpg,AMSA14.jpg,AMNE04.jpg,AMSA14.jpg,MS,2,num_2,16,num_2,2.46632052399,,,2017_Oct_10_1801,60.0034064452,FEMA4ImagesEEG,001,201867,
AFNE01.JPG,AFNE01.JPG,AFNE01.JPG,AFNE01.JPG,AFNE01.JPG,AFNE01.JPG,,,,,0,6,6,4,,,,,,,,,,,,,,,,,,,AMSA05.jpg,AMNE12.jpg,AMNE08.jpg,AMSA15.jpg,AMSA15.jpg,MS,2,num_4,16,num_4,1.00011290051,,,2017_Oct_10_1801,60.0034064452,FEMA4ImagesEEG,001,201867,
AFNE01.JPG,AFNE01.JPG,AFNE01.JPG,AFNE01.JPG,AFNE01.JPG,AFNE01.JPG,,,,,0,7,7,2,,,,,,,,,,,,,,,,,,,AMNE11.jpg,AMSA10.jpg,AMNE07.jpg,AMSA18.jpg,AMNE07.jpg,MN,1,num_2,32,num_6,0.833500278648,,,2017_Oct_10_1801,60.0034064452,FEMA4ImagesEEG,001,201867,
AFNE01.JPG,AFNE01.JPG,AFNE01.JPG,AFNE01.JPG,AFNE01.JPG,AFNE01.JPG,,,,,0,8,8,3,,,,,,,,,,,,,,,,,,,AMSA16.jpg,AMNE01.jpg,AMSA01.jpg,AMNE18.jpg,AMSA01.jpg,MS,2,num_2,16,num_2,1.60004445456,,,2017_Oct_10_1801,60.0034064452,FEMA4ImagesEEG,001,201867,
AFNE01.JPG,AFNE01.JPG,AFNE01.JPG,AFNE01.JPG,AFNE01.JPG,AFNE01.JPG,,,,,0,9,9,6,,,,,,,,,,,,,,,,,,,AMSA11.jpg,AMNE05.jpg,AMSA16.jpg,AMNE14.jpg,AMSA11.jpg,MS,2,num_8,32,num_2,2.1500338862,,,2017_Oct_10_1801,60.0034064452,FEMA4ImagesEEG,001,201867,
AFNE01.JPG,AFNE01.JPG,AFNE01.JPG,AFNE01.JPG,AFNE01.JPG,AFNE01.JPG,,,,,1,0,10,6,,,,,,,,,,,,,,,,,,,AMSA17.jpg,AMNE20.jpg,AMSA12.jpg,AMNE16.jpg,AMSA17.jpg,MS,2,num_8,16,num_8,1.1500582624,,,2017_Oct_10_1801,60.0034064452,FEMA4ImagesEEG,001,201867,
AFNE01.JPG,AFNE01.JPG,AFNE01.JPG,AFNE01.JPG,AFNE01.JPG,AFNE01.JPG,,,,,1,1,11,5,,,,,,,,,,,,,,,,,,,AMSA08.jpg,AMNE13.jpg,AMNE08.jpg,AMSA17.jpg,AMSA17.jpg,MS,2,num_4,16,num_4,0.850247723632,,,2017_Oct_10_1801,60.0034064452,FEMA4ImagesEEG,001,201867,
AFNE01.JPG,AFNE01.JPG,AFNE01.JPG,AFNE01.JPG,AFNE01.JPG,AFNE01.JPG,,,,,1,2,12,4,,,,,,,,,,,,,,,,,,,AMNE16.jpg,AMSA15.jpg,AMSA19.jpg,AMNE13.jpg,AMSA19.jpg,MS,2,num_2,32,num_8,1.25011570693,,,2017_Oct_10_1801,60.0034064452,FEMA4ImagesEEG,001,201867,
AFNE01.JPG,AFNE01.JPG,AFNE01.JPG,AFNE01.JPG,AFNE01.JPG,AFNE01.JPG,,,,,1,3,13,1,,,,,,,,,,,,,,,,,,,AMSA08.jpg,AMNE01.jpg,AMSA09.jpg,AMNE03.jpg,AMNE01.jpg,MN,1,num_6,32,num_8,1.41671325406,,,2017_Oct_10_1801,60.0034064452,FEMA4ImagesEEG,001,201867,
AFNE01.JPG,AFNE01.JPG,AFNE01.JPG,AFNE01.JPG,AFNE01.JPG,AFNE01.JPG,,,,,1,4,14,9,,,,,,,,,,,,,,,,,,,AMNE14.jpg,AMNE15.jpg,AMSA10.jpg,AMSA20.jpg,AMSA20.jpg,MS,2,num_4,32,num_2,2.14987768582,,,2017_Oct_10_1801,60.0034064452,FEMA4ImagesEEG,001,201867,
AFNE01.JPG,AFNE01.JPG,AFNE01.JPG,AFNE01.JPG,AFNE01.JPG,AFNE01.JPG,,,,,1,5,15,0,,,,,,,,,,,,,,,,,,,AMSA10.jpg,AMNE03.jpg,AMSA08.jpg,AMNE05.jpg,AMNE03.jpg,MN,1,num_6,16,num_6,1.06682107097,,,2017_Oct_10_1801,60.0034064452,FEMA4ImagesEEG,001,201867,
AFNE01.JPG,AFNE01.JPG,AFNE01.JPG,AFNE01.JPG,AFNE01.JPG,AFNE01.JPG,,,,,1,6,16,8,,,,,,,,,,,,,,,,,,,AMNE16.jpg,AMNE14.jpg,AMSA18.jpg,AMSA02.jpg,AMNE16.jpg,MN,1,num_8,16,num_8,1.10012319626,,,2017_Oct_10_1801,60.0034064452,FEMA4ImagesEEG,001,201867,
AFNE01.JPG,AFNE01.JPG,AFNE01.JPG,AFNE01.JPG,AFNE01.JPG,AFNE01.JPG,,,,,1,7,17,2,,,,,,,,,,,,,,,,,,,AMNE17.jpg,AMSA10.jpg,AMSA01.jpg,AMNE08.jpg,AMSA01.jpg,MS,2,num_2,16,num_2,1.13342403865,,,2017_Oct_10_1801,60.0034064452,FEMA4ImagesEEG,001,201867,
AFNE01.JPG,AFNE01.JPG,AFNE01.JPG,AFNE01.JPG,AFNE01.JPG,AFNE01.JPG,,,,,1,8,18,7,,,,,,,,,,,,,,,,,,,AMSA14.jpg,AMNE14.jpg,AMSA18.jpg,AMNE11.jpg,AMSA18.jpg,MS,2,num_2,16,num_2,2.45000896463,,,2017_Oct_10_1801,60.0034064452,FEMA4ImagesEEG,001,201867,
AFNE01.JPG,AFNE01.JPG,AFNE01.JPG,AFNE01.JPG,AFNE01.JPG,AFNE01.JPG,,,,,1,9,19,3,,,,,,,,,,,,,,,,,,,AMNE05.jpg,AMSA12.jpg,AMSA17.jpg,AMNE19.jpg,AMNE19.jpg,MN,1,num_4,32,num_8,1.08350757544,,,2017_Oct_10_1801,60.0034064452,FEMA4ImagesEEG,001,201867,
AFNE01.JPG,AFNE01.JPG,AFNE01.JPG,AFNE01.JPG,AFNE01.JPG,AFNE01.JPG,,,,,2,0,20,1,,,,,,,,,,,,,,,,,,,AMNE01.jpg,AMSA04.jpg,AMSA14.jpg,AMNE16.jpg,AMSA14.jpg,MS,2,num_2,16,num_2,1.08346074738,,,2017_Oct_10_1801,60.0034064452,FEMA4ImagesEEG,001,201867,
AFNE01.JPG,AFNE01.JPG,AFNE01.JPG,AFNE01.JPG,AFNE01.JPG,AFNE01.JPG,,,,,2,1,21,8,,,,,,,,,,,,,,,,,,,AMNE12.jpg,AMSA08.jpg,AMSA06.jpg,AMNE04.jpg,AMSA08.jpg,MS,2,num_6,32,num_8,1.13346605562,,,2017_Oct_10_1801,60.0034064452,FEMA4ImagesEEG,001,201867,
AFNE01.JPG,AFNE01.JPG,AFNE01.JPG,AFNE01.JPG,AFNE01.JPG,AFNE01.JPG,,,,,2,2,22,3,,,,,,,,,,,,,,,,,,,AMNE09.jpg,AMNE03.jpg,AMSA15.jpg,AMSA11.jpg,AMSA15.jpg,MS,2,num_2,32,num_8,1.21684469341,,,2017_Oct_10_1801,60.0034064452,FEMA4ImagesEEG,001,201867,
AFNE01.JPG,AFNE01.JPG,AFNE01.JPG,AFNE01.JPG,AFNE01.JPG,AFNE01.JPG,,,,,2,3,23,0,,,,,,,,,,,,,,,,,,,AMSA01.jpg,AMNE20.jpg,AMSA03.jpg,AMNE02.jpg,AMSA01.jpg,MS,2,num_8,32,num_4,1.26676981675,,,2017_Oct_10_1801,60.0034064452,FEMA4ImagesEEG,001,201867,
AFNE01.JPG,AFNE01.JPG,AFNE01.JPG,AFNE01.JPG,AFNE01.JPG,AFNE01.JPG,,,,,2,4,24,6,,,,,,,,,,,,,,,,,,,AMNE08.jpg,AMSA08.jpg,AMNE07.jpg,AMSA06.jpg,AMSA06.jpg,MS,2,num_4,32,num_2,1.06674248958,,,2017_Oct_10_1801,60.0034064452,FEMA4ImagesEEG,001,201867,
AFNE01.JPG,AFNE01.JPG,AFNE01.JPG,AFNE01.JPG,AFNE01.JPG,AFNE01.JPG,,,,,2,5,25,4,,,,,,,,,,,,,,,,,,,AMSA09.jpg,AMNE05.jpg,AMSA08.jpg,AMNE11.jpg,AMSA09.jpg,MS,2,num_8,32,num_2,2.91631505534,,,2017_Oct_10_1801,60.0034064452,FEMA4ImagesEEG,001,201867,
AFNE01.JPG,AFNE01.JPG,AFNE01.JPG,AFNE01.JPG,AFNE01.JPG,AFNE01.JPG,,,,,2,6,26,2,,,,,,,,,,,,,,,,,,,AMSA14.jpg,AMSA07.jpg,AMNE02.jpg,AMNE16.jpg,AMSA07.jpg,MS,2,num_6,16,num_6,0.800193342147,,,2017_Oct_10_1801,60.0034064452,FEMA4ImagesEEG,001,201867,
AFNE01.JPG,AFNE01.JPG,AFNE01.JPG,AFNE01.JPG,AFNE01.JPG,AFNE01.JPG,,,,,2,7,27,9,,,,,,,,,,,,,,,,,,,AMSA13.jpg,AMSA14.jpg,AMNE11.jpg,AMNE09.jpg,AMSA14.jpg,MS,2,num_6,16,num_6,0.733479719143,,,2017_Oct_10_1801,60.0034064452,FEMA4ImagesEEG,001,201867,
AFNE01.JPG,AFNE01.JPG,AFNE01.JPG,AFNE01.JPG,AFNE01.JPG,AFNE01.JPG,,,,,2,8,28,5,,,,,,,,,,,,,,,,,,,AMNE08.jpg,AMSA16.jpg,AMSA17.jpg,AMNE06.jpg,AMSA17.jpg,MS,2,num_2,32,num_4,1.83370202407,,,2017_Oct_10_1801,60.0034064452,FEMA4ImagesEEG,001,201867,
AFNE01.JPG,AFNE01.JPG,AFNE01.JPG,AFNE01.JPG,AFNE01.JPG,AFNE01.JPG,,,,,2,9,29,7,,,,,,,,,,,,,,,,,,,AMNE20.jpg,AMSA20.jpg,AMSA06.jpg,AMNE06.jpg,AMSA20.jpg,MS,2,num_6,32,num_2,1.55002695823,,,2017_Oct_10_1801,60.0034064452,FEMA4ImagesEEG,001,201867,
AFNE01.JPG,AFNE01.JPG,AFNE01.JPG,AFNE01.JPG,AFNE01.JPG,AFNE01.JPG,,,,,3,0,30,1,,,,,,,,,,,,,,,,,,,AMNE04.jpg,AMSA12.jpg,AMSA07.jpg,AMNE01.jpg,AMSA07.jpg,MS,2,num_2,32,num_8,0.916775638121,,,2017_Oct_10_1801,60.0034064452,FEMA4ImagesEEG,001,201867,
AFNE01.JPG,AFNE01.JPG,AFNE01.JPG,AFNE01.JPG,AFNE01.JPG,AFNE01.JPG,,,,,3,1,31,8,,,,,,,,,,,,,,,,,,,AMNE09.jpg,AMSA09.jpg,AMSA13.jpg,AMNE14.jpg,AMNE14.jpg,MN,1,num_4,16,num_4,0.550198874902,,,2017_Oct_10_1801,60.0034064452,FEMA4ImagesEEG,001,201867,
AFNE01.JPG,AFNE01.JPG,AFNE01.JPG,AFNE01.JPG,AFNE01.JPG,AFNE01.JPG,,,,,3,2,32,7,,,,,,,,,,,,,,,,,,,AMNE10.jpg,AMSA13.jpg,AMSA07.jpg,AMNE04.jpg,AMNE10.jpg,MN,1,num_8,32,num_2,1.2665825045,,,2017_Oct_10_1801,60.0034064452,FEMA4ImagesEEG,001,201867,
AFNE01.JPG,AFNE01.JPG,AFNE01.JPG,AFNE01.JPG,AFNE01.JPG,AFNE01.JPG,,,,,3,3,33,0,,,,,,,,,,,,,,,,,,,AMSA16.jpg,AMNE11.jpg,AMSA02.jpg,AMNE15.jpg,AMSA02.jpg,MS,2,num_2,16,num_2,1.00010295759,,,2017_Oct_10_1801,60.0034064452,FEMA4ImagesEEG,001,201867,
AFNE01.JPG,AFNE01.JPG,AFNE01.JPG,AFNE01.JPG,AFNE01.JPG,AFNE01.JPG,,,,,3,4,34,6,,,,,,,,,,,,,,,,,,,AMSA02.jpg,AMNE09.jpg,AMSA04.jpg,AMNE11.jpg,AMSA02.jpg,MS,2,num_8,32,num_2,1.11675581639,,,2017_Oct_10_1801,60.0034064452,FEMA4ImagesEEG,001,201867,
AFNE01.JPG,AFNE01.JPG,AFNE01.JPG,AFNE01.JPG,AFNE01.JPG,AFNE01.JPG,,,,,3,5,35,5,,,,,,,,,,,,,,,,,,,AMSA02.jpg,AMNE16.jpg,AMSA19.jpg,AMNE09.jpg,AMNE16.jpg,MN,1,num_6,16,num_6,0.783503309591,,,2017_Oct_10_1801,60.0034064452,FEMA4ImagesEEG,001,201867,
AFNE01.JPG,AFNE01.JPG,AFNE01.JPG,AFNE01.JPG,AFNE01.JPG,AFNE01.JPG,,,,,3,6,36,9,,,,,,,,,,,,,,,,,,,AMNE13.jpg,AMNE16.jpg,AMSA06.jpg,AMSA19.jpg,AMSA19.jpg,MS,2,num_4,32,num_2,1.21678535652,,,2017_Oct_10_1801,60.0034064452,FEMA4ImagesEEG,001,201867,
AFNE01.JPG,AFNE01.JPG,AFNE01.JPG,AFNE01.JPG,AFNE01.JPG,AFNE01.JPG,,,,,3,7,37,4,,,,,,,,,,,,,,,,,,,AMNE06.jpg,AMSA04.jpg,AMSA05.jpg,AMNE15.jpg,AMNE06.jpg,MN,1,num_8,16,num_8,0.816732947598,,,2017_Oct_10_1801,60.0034064452,FEMA4ImagesEEG,001,201867,
AFNE01.JPG,AFNE01.JPG,AFNE01.JPG,AFNE01.JPG,AFNE01.JPG,AFNE01.JPG,,,,,3,8,38,3,,,,,,,,,,,,,,,,,,,AMNE04.jpg,AMSA06.jpg,AMNE20.jpg,AMSA14.jpg,AMSA14.jpg,MS,2,num_4,16,num_4,0.65015239967,,,2017_Oct_10_1801,60.0034064452,FEMA4ImagesEEG,001,201867,
AFNE01.JPG,AFNE01.JPG,AFNE01.JPG,AFNE01.JPG,AFNE01.JPG,AFNE01.JPG,,,,,3,9,39,2,,,,,,,,,,,,,,,,,,,AMSA17.jpg,AMSA10.jpg,AMNE05.jpg,AMNE10.jpg,AMSA10.jpg,MS,2,num_6,32,num_2,1.13348209253,,,2017_Oct_10_1801,60.0034064452,FEMA4ImagesEEG,001,201867,
AFNE01.JPG,AFNE01.JPG,AFNE01.JPG,AFNE01.JPG,AFNE01.JPG,AFNE01.JPG,,,,,4,0,40,0,,,,,,,,,,,,,,,,,,,AMSA05.jpg,AMSA16.jpg,AMNE05.jpg,AMNE07.jpg,AMNE07.jpg,MN,1,num_4,16,num_4,2.01669965475,,,2017_Oct_10_1801,60.0034064452,FEMA4ImagesEEG,001,201867,
AFNE01.JPG,AFNE01.JPG,AFNE01.JPG,AFNE01.JPG,AFNE01.JPG,AFNE01.JPG,,,,,4,1,41,6,,,,,,,,,,,,,,,,,,,AMSA02.jpg,AMNE19.jpg,AMNE15.jpg,AMSA11.jpg,AMNE15.jpg,MN,1,num_2,16,num_2,1.30011427961,,,2017_Oct_10_1801,60.0034064452,FEMA4ImagesEEG,001,201867,
AFNE01.JPG,AFNE01.JPG,AFNE01.JPG,AFNE01.JPG,AFNE01.JPG,AFNE01.JPG,,,,,4,2,42,2,,,,,,,,,,,,,,,,,,,AMSA06.jpg,AMSA04.jpg,AMNE18.jpg,AMNE01.jpg,AMNE18.jpg,MN,1,num_2,16,num_2,1.13341794454,,,2017_Oct_10_1801,60.0034064452,FEMA4ImagesEEG,001,201867,
AFNE01.JPG,AFNE01.JPG,AFNE01.JPG,AFNE01.JPG,AFNE01.JPG,AFNE01.JPG,,,,,4,3,43,5,,,,,,,,,,,,,,,,,,,AMNE14.jpg,AMSA20.jpg,AMSA06.jpg,AMNE18.jpg,AMSA06.jpg,MS,2,num_2,32,num_6,1.25008523674,,,2017_Oct_10_1801,60.0034064452,FEMA4ImagesEEG,001,201867,
AFNE01.JPG,AFNE01.JPG,AFNE01.JPG,AFNE01.JPG,AFNE01.JPG,AFNE01.JPG,,,,,4,4,44,3,,,,,,,,,,,,,,,,,,,AMNE01.jpg,AMSA09.jpg,AMNE06.jpg,AMSA04.jpg,AMNE06.jpg,MN,1,num_2,32,num_8,0.800146834808,,,2017_Oct_10_1801,60.0034064452,FEMA4ImagesEEG,001,201867,
AFNE01.JPG,AFNE01.JPG,AFNE01.JPG,AFNE01.JPG,AFNE01.JPG,AFNE01.JPG,,,,,4,5,45,8,,,,,,,,,,,,,,,,,,,AMSA15.jpg,AMNE12.jpg,AMNE16.jpg,AMSA11.jpg,AMSA15.jpg,MS,2,num_8,32,num_2,1.783342298,,,2017_Oct_10_1801,60.0034064452,FEMA4ImagesEEG,001,201867,
AFNE01.JPG,AFNE01.JPG,AFNE01.JPG,AFNE01.JPG,AFNE01.JPG,AFNE01.JPG,,,,,4,6,46,4,,,,,,,,,,,,,,,,,,,AMNE04.jpg,AMSA14.jpg,AMSA04.jpg,AMNE20.jpg,AMSA14.jpg,MS,2,num_6,16,num_6,0.900217429735,,,2017_Oct_10_1801,60.0034064452,FEMA4ImagesEEG,001,201867,
AFNE01.JPG,AFNE01.JPG,AFNE01.JPG,AFNE01.JPG,AFNE01.JPG,AFNE01.JPG,,,,,4,7,47,1,,,,,,,,,,,,,,,,,,,AMSA02.jpg,AMNE09.jpg,AMSA13.jpg,AMNE11.jpg,AMSA13.jpg,MS,2,num_2,16,num_2,1.35009489092,,,2017_Oct_10_1801,60.0034064452,FEMA4ImagesEEG,001,201867,
AFNE01.JPG,AFNE01.JPG,AFNE01.JPG,AFNE01.JPG,AFNE01.JPG,AFNE01.JPG,,,,,4,8,48,7,,,,,,,,,,,,,,,,,,,AMNE19.jpg,AMSA14.jpg,AMNE11.jpg,AMSA11.jpg,AMNE11.jpg,MN,1,num_2,16,num_2,0.98349214776,,,2017_Oct_10_1801,60.0034064452,FEMA4ImagesEEG,001,201867,
AFNE01.JPG,AFNE01.JPG,AFNE01.JPG,AFNE01.JPG,AFNE01.JPG,AFNE01.JPG,,,,,4,9,49,9,,,,,,,,,,,,,,,,,,,AMNE06.jpg,AMNE07.jpg,AMSA04.jpg,AMSA12.jpg,AMNE07.jpg,MN,1,num_6,16,num_6,1.23344139068,,,2017_Oct_10_1801,60.0034064452,FEMA4ImagesEEG,001,201867,
AFNE01.JPG,AFNE01.JPG,AFNE01.JPG,AFNE01.JPG,AFNE01.JPG,AFNE01.JPG,,,,,5,0,50,3,,,,,,,,,,,,,,,,,,,AMSA02.jpg,AMNE02.jpg,AMNE08.jpg,AMSA15.jpg,AMSA02.jpg,MS,2,num_8,32,num_6,1.1334320571,,,2017_Oct_10_1801,60.0034064452,FEMA4ImagesEEG,001,201867,
AFNE01.JPG,AFNE01.JPG,AFNE01.JPG,AFNE01.JPG,AFNE01.JPG,AFNE01.JPG,,,,,5,1,51,0,,,,,,,,,,,,,,,,,,,AMNE01.jpg,AMSA15.jpg,AMNE18.jpg,AMSA17.jpg,AMSA15.jpg,MS,2,num_6,16,num_6,0.78346866963,,,2017_Oct_10_1801,60.0034064452,FEMA4ImagesEEG,001,201867,
AFNE01.JPG,AFNE01.JPG,AFNE01.JPG,AFNE01.JPG,AFNE01.JPG,AFNE01.JPG,,,,,5,2,52,4,,,,,,,,,,,,,,,,,,,AMSA18.jpg,AMNE14.jpg,AMSA13.jpg,AMNE03.jpg,AMNE14.jpg,MN,1,num_6,16,num_6,0.783505554777,,,2017_Oct_10_1801,60.0034064452,FEMA4ImagesEEG,001,201867,
AFNE01.JPG,AFNE01.JPG,AFNE01.JPG,AFNE01.JPG,AFNE01.JPG,AFNE01.JPG,,,,,5,3,53,6,,,,,,,,,,,,,,,,,,,AMNE15.jpg,AMNE06.jpg,AMSA03.jpg,AMSA01.jpg,AMSA01.jpg,MS,2,num_4,32,num_2,1.19996446196,,,2017_Oct_10_1801,60.0034064452,FEMA4ImagesEEG,001,201867,
AFNE01.JPG,AFNE01.JPG,AFNE01.JPG,AFNE01.JPG,AFNE01.JPG,AFNE01.JPG,,,,,5,4,54,5,,,,,,,,,,,,,,,,,,,AMSA16.jpg,AMNE20.jpg,AMNE05.jpg,AMSA10.jpg,AMSA10.jpg,MS,2,num_4,32,num_8,1.13346990454,,,2017_Oct_10_1801,60.0034064452,FEMA4ImagesEEG,001,201867,
AFNE01.JPG,AFNE01.JPG,AFNE01.JPG,AFNE01.JPG,AFNE01.JPG,AFNE01.JPG,,,,,5,5,55,1,,,,,,,,,,,,,,,,,,,AMSA04.jpg,AMNE03.jpg,AMNE14.jpg,AMSA17.jpg,AMSA04.jpg,MS,2,num_8,16,num_8,1.0834065422,,,2017_Oct_10_1801,60.0034064452,FEMA4ImagesEEG,001,201867,
AFNE01.JPG,AFNE01.JPG,AFNE01.JPG,AFNE01.JPG,AFNE01.JPG,AFNE01.JPG,,,,,5,6,56,2,,,,,,,,,,,,,,,,,,,AMSA20.jpg,AMNE03.jpg,AMNE15.jpg,AMSA03.jpg,AMNE15.jpg,MN,1,num_2,32,num_8,1.13342820818,,,2017_Oct_10_1801,60.0034064452,FEMA4ImagesEEG,001,201867,
AFNE01.JPG,AFNE01.JPG,AFNE01.JPG,AFNE01.JPG,AFNE01.JPG,AFNE01.JPG,,,,,5,7,57,9,,,,,,,,,,,,,,,,,,,AMSA09.jpg,AMNE16.jpg,AMNE04.jpg,AMSA11.jpg,AMNE16.jpg,MN,1,num_6,16,num_6,1.94972077967,,,2017_Oct_10_1801,60.0034064452,FEMA4ImagesEEG,001,201867,
AFNE01.JPG,AFNE01.JPG,AFNE01.JPG,AFNE01.JPG,AFNE01.JPG,AFNE01.JPG,,,,,5,8,58,8,,,,,,,,,,,,,,,,,,,AMNE07.jpg,AMSA11.jpg,AMSA01.jpg,AMNE01.jpg,AMNE01.jpg,MN,1,num_4,16,num_4,0.666912353598,,,2017_Oct_10_1801,60.0034064452,FEMA4ImagesEEG,001,201867,
AFNE01.JPG,AFNE01.JPG,AFNE01.JPG,AFNE01.JPG,AFNE01.JPG,AFNE01.JPG,,,,,5,9,59,7,,,,,,,,,,,,,,,,,,,AMSA13.jpg,AMNE19.jpg,AMSA06.jpg,AMNE15.jpg,AMNE19.jpg,MN,1,num_6,32,num_2,0.816775606014,,,2017_Oct_10_1801,60.0034064452,FEMA4ImagesEEG,001,201867,
,,,,,,,,,,,,,,,,,,,,,,,,,,,,,,,,,,,,,,,,,,,space,25.0819205533,2017_Oct_10_1801,60.0034064452,FEMA4ImagesEEG,001,201867,
AFNE01.JPG,AFNE01.JPG,AFNE01.JPG,AFNE01.JPG,AFNE01.JPG,AFNE01.JPG,,,,,,,,,0,0,0,1,,,,,,,,,,,,,,,AFNE04.jpg,AFSA20.jpg,AFSA18.jpg,AFNE09.jpg,AFNE09.jpg,FN,3,num_4,16,num_4,1.31675395614,,,2017_Oct_10_1801,60.0034064452,FEMA4ImagesEEG,001,201867,
AFNE01.JPG,AFNE01.JPG,AFNE01.JPG,AFNE01.JPG,AFNE01.JPG,AFNE01.JPG,,,,,,,,,0,1,1,2,,,,,,,,,,,,,,,AFSA13.jpg,AFNE16.jpg,AFSA07.jpg,AFNE05.jpg,AFSA13.jpg,FS,4,num_8,16,num_8,0.900091058109,,,2017_Oct_10_1801,60.0034064452,FEMA4ImagesEEG,001,201867,
AFNE01.JPG,AFNE01.JPG,AFNE01.JPG,AFNE01.JPG,AFNE01.JPG,AFNE01.JPG,,,,,,,,,0,2,2,9,,,,,,,,,,,,,,,AFNE18.jpg,AFSA04.jpg,AFSA16.jpg,AFNE13.jpg,AFSA16.jpg,FS,4,num_2,16,num_2,1.30007354578,,,2017_Oct_10_1801,60.0034064452,FEMA4ImagesEEG,001,201867,
AFNE01.JPG,AFNE01.JPG,AFNE01.JPG,AFNE01.JPG,AFNE01.JPG,AFNE01.JPG,,,,,,,,,0,3,3,0,,,,,,,,,,,,,,,AFSA01.jpg,AFSA12.jpg,AFNE13.jpg,AFNE01.jpg,AFSA01.jpg,FS,4,num_8,32,num_4,1.83337262401,,,2017_Oct_10_1801,60.0034064452,FEMA4ImagesEEG,001,201867,
AFNE01.JPG,AFNE01.JPG,AFNE01.JPG,AFNE01.JPG,AFNE01.JPG,AFNE01.JPG,,,,,,,,,0,4,4,4,,,,,,,,,,,,,,,AFNE06.jpg,AFSA08.jpg,AFNE10.jpg,AFSA19.jpg,AFNE10.jpg,FN,3,num_2,32,num_8,0.866745312116,,,2017_Oct_10_1801,60.0034064452,FEMA4ImagesEEG,001,201867,
AFNE01.JPG,AFNE01.JPG,AFNE01.JPG,AFNE01.JPG,AFNE01.JPG,AFNE01.JPG,,,,,,,,,0,5,5,7,,,,,,,,,,,,,,,AFNE07.jpg,AFNE11.jpg,AFSA18.jpg,AFSA04.jpg,AFSA04.jpg,FS,4,num_4,16,num_4,0.766820974764,,,2017_Oct_10_1801,60.0034064452,FEMA4ImagesEEG,001,201867,
AFNE01.JPG,AFNE01.JPG,AFNE01.JPG,AFNE01.JPG,AFNE01.JPG,AFNE01.JPG,,,,,,,,,0,6,6,3,,,,,,,,,,,,,,,AFSA05.jpg,AFNE18.jpg,AFSA17.jpg,AFNE07.jpg,AFNE07.jpg,FN,3,num_4,16,num_4,0.700133973151,,,2017_Oct_10_1801,60.0034064452,FEMA4ImagesEEG,001,201867,
AFNE01.JPG,AFNE01.JPG,AFNE01.JPG,AFNE01.JPG,AFNE01.JPG,AFNE01.JPG,,,,,,,,,0,7,7,6,,,,,,,,,,,,,,,AFSA01.jpg,AFNE08.jpg,AFSA19.jpg,AFNE11.jpg,AFNE08.jpg,FN,3,num_6,16,num_6,0.566794609884,,,2017_Oct_10_1801,60.0034064452,FEMA4ImagesEEG,001,201867,
AFNE01.JPG,AFNE01.JPG,AFNE01.JPG,AFNE01.JPG,AFNE01.JPG,AFNE01.JPG,,,,,,,,,0,8,8,5,,,,,,,,,,,,,,,AFNE07.jpg,AFNE12.jpg,AFSA05.jpg,AFSA09.jpg,AFSA05.jpg,FS,4,num_2,32,num_8,0.950138383312,,,2017_Oct_10_1801,60.0034064452,FEMA4ImagesEEG,001,201867,
AFNE01.JPG,AFNE01.JPG,AFNE01.JPG,AFNE01.JPG,AFNE01.JPG,AFNE01.JPG,,,,,,,,,0,9,9,8,,,,,,,,,,,,,,,AFSA09.jpg,AFSA01.jpg,AFNE02.jpg,AFNE05.jpg,AFSA01.jpg,FS,4,num_6,16,num_6,1.46672401507,,,2017_Oct_10_1801,60.0034064452,FEMA4ImagesEEG,001,201867,
AFNE01.JPG,AFNE01.JPG,AFNE01.JPG,AFNE01.JPG,AFNE01.JPG,AFNE01.JPG,,,,,,,,,1,0,10,2,,,,,,,,,,,,,,,AFNE01.jpg,AFSA07.jpg,AFNE17.jpg,AFSA19.jpg,AFSA07.jpg,FS,4,num_6,16,num_6,0.783499139943,,,2017_Oct_10_1801,60.0034064452,FEMA4ImagesEEG,001,201867,
AFNE01.JPG,AFNE01.JPG,AFNE01.JPG,AFNE01.JPG,AFNE01.JPG,AFNE01.JPG,,,,,,,,,1,1,11,4,,,,,,,,,,,,,,,AFSA09.jpg,AFNE14.jpg,AFSA16.jpg,AFNE01.jpg,AFNE14.jpg,FN,3,num_6,32,num_8,1.00011193834,,,2017_Oct_10_1801,60.0034064452,FEMA4ImagesEEG,001,201867,
AFNE01.JPG,AFNE01.JPG,AFNE01.JPG,AFNE01.JPG,AFNE01.JPG,AFNE01.JPG,,,,,,,,,1,2,12,0,,,,,,,,,,,,,,,AFNE19.jpg,AFSA12.jpg,AFNE09.jpg,AFSA15.jpg,AFNE19.jpg,FN,3,num_8,32,num_2,1.06675179105,,,2017_Oct_10_1801,60.0034064452,FEMA4ImagesEEG,001,201867,
AFNE01.JPG,AFNE01.JPG,AFNE01.JPG,AFNE01.JPG,AFNE01.JPG,AFNE01.JPG,,,,,,,,,1,3,13,3,,,,,,,,,,,,,,,AFNE02.jpg,AFSA08.jpg,AFNE09.jpg,AFSA15.jpg,AFSA08.jpg,FS,4,num_6,32,num_8,2.28337677766,,,2017_Oct_10_1801,60.0034064452,FEMA4ImagesEEG,001,201867,
AFNE01.JPG,AFNE01.JPG,AFNE01.JPG,AFNE01.JPG,AFNE01.JPG,AFNE01.JPG,,,,,,,,,1,4,14,7,,,,,,,,,,,,,,,AFSA07.jpg,AFNE17.jpg,AFNE15.jpg,AFSA04.jpg,AFSA04.jpg,FS,4,num_4,32,num_6,1.333473176,,,2017_Oct_10_1801,60.0034064452,FEMA4ImagesEEG,001,201867,
AFNE01.JPG,AFNE01.JPG,AFNE01.JPG,AFNE01.JPG,AFNE01.JPG,AFNE01.JPG,,,,,,,,,1,5,15,1,,,,,,,,,,,,,,,AFNE02.jpg,AFSA14.jpg,AFSA07.jpg,AFNE19.jpg,AFNE19.jpg,FN,3,num_4,32,num_8,1.18350792816,,,2017_Oct_10_1801,60.0034064452,FEMA4ImagesEEG,001,201867,
AFNE01.JPG,AFNE01.JPG,AFNE01.JPG,AFNE01.JPG,AFNE01.JPG,AFNE01.JPG,,,,,,,,,1,6,16,5,,,,,,,,,,,,,,,AFSA18.jpg,AFSA17.jpg,AFNE20.jpg,AFNE03.jpg,AFSA17.jpg,FS,4,num_6,16,num_6,1.08344920073,,,2017_Oct_10_1801,60.0034064452,FEMA4ImagesEEG,001,201867,
AFNE01.JPG,AFNE01.JPG,AFNE01.JPG,AFNE01.JPG,AFNE01.JPG,AFNE01.JPG,,,,,,,,,1,7,17,6,,,,,,,,,,,,,,,AFSA04.jpg,AFNE07.jpg,AFNE03.jpg,AFSA03.jpg,AFNE07.jpg,FN,3,num_6,16,num_6,0.550141462358,,,2017_Oct_10_1801,60.0034064452,FEMA4ImagesEEG,001,201867,
AFNE01.JPG,AFNE01.JPG,AFNE01.JPG,AFNE01.JPG,AFNE01.JPG,AFNE01.JPG,,,,,,,,,1,8,18,9,,,,,,,,,,,,,,,AFSA10.jpg,AFNE09.jpg,AFSA05.jpg,AFNE18.jpg,AFNE09.jpg,FN,3,num_6,32,num_8,0.800144589623,,,2017_Oct_10_1801,60.0034064452,FEMA4ImagesEEG,001,201867,
AFNE01.JPG,AFNE01.JPG,AFNE01.JPG,AFNE01.JPG,AFNE01.JPG,AFNE01.JPG,,,,,,,,,1,9,19,8,,,,,,,,,,,,,,,AFNE18.jpg,AFSA05.jpg,AFNE10.jpg,AFSA04.jpg,AFSA04.jpg,FS,4,num_4,32,num_8,1.86665678781,,,2017_Oct_10_1801,60.0034064452,FEMA4ImagesEEG,001,201867,
AFNE01.JPG,AFNE01.JPG,AFNE01.JPG,AFNE01.JPG,AFNE01.JPG,AFNE01.JPG,,,,,,,,,2,0,20,4,,,,,,,,,,,,,,,AFNE17.jpg,AFNE05.jpg,AFSA03.jpg,AFSA08.jpg,AFSA03.jpg,FS,4,num_2,32,num_6,1.35006025108,,,2017_Oct_10_1801,60.0034064452,FEMA4ImagesEEG,001,201867,
AFNE01.JPG,AFNE01.JPG,AFNE01.JPG,AFNE01.JPG,AFNE01.JPG,AFNE01.JPG,,,,,,,,,2,1,21,0,,,,,,,,,,,,,,,AFSA02.jpg,AFNE04.jpg,AFNE12.jpg,AFSA01.jpg,AFSA02.jpg,FS,4,num_8,32,num_4,1.40011719847,,,2017_Oct_10_1801,60.0034064452,FEMA4ImagesEEG,001,201867,
AFNE01.JPG,AFNE01.JPG,AFNE01.JPG,AFNE01.JPG,AFNE01.JPG,AFNE01.JPG,,,,,,,,,2,2,22,1,,,,,,,,,,,,,,,AFNE08.jpg,AFSA15.jpg,AFNE20.jpg,AFSA17.jpg,AFSA15.jpg,FS,4,num_6,16,num_6,1.18342646025,,,2017_Oct_10_1801,60.0034064452,FEMA4ImagesEEG,001,201867,
AFNE01.JPG,AFNE01.JPG,AFNE01.JPG,AFNE01.JPG,AFNE01.JPG,AFNE01.JPG,,,,,,,,,2,3,23,6,,,,,,,,,,,,,,,AFSA12.jpg,AFNE13.jpg,AFSA18.jpg,AFNE20.jpg,AFSA12.jpg,FS,4,num_8,16,num_8,1.05010730366,,,2017_Oct_10_1801,60.0034064452,FEMA4ImagesEEG,001,201867,
AFNE01.JPG,AFNE01.JPG,AFNE01.JPG,AFNE01.JPG,AFNE01.JPG,AFNE01.JPG,,,,,,,,,2,4,24,8,,,,,,,,,,,,,,,AFNE16.jpg,AFSA17.jpg,AFNE11.jpg,AFSA12.jpg,AFNE16.jpg,FN,3,num_8,16,num_8,1.45650844241,,,2017_Oct_10_1801,60.0034064452,FEMA4ImagesEEG,001,201867,
AFNE01.JPG,AFNE01.JPG,AFNE01.JPG,AFNE01.JPG,AFNE01.JPG,AFNE01.JPG,,,,,,,,,2,5,25,3,,,,,,,,,,,,,,,AFNE11.jpg,AFNE13.jpg,AFSA10.jpg,AFSA12.jpg,AFNE13.jpg,FN,3,num_6,32,num_8,1.20008185285,,,2017_Oct_10_1801,60.0034064452,FEMA4ImagesEEG,001,201867,
AFNE01.JPG,AFNE01.JPG,AFNE01.JPG,AFNE01.JPG,AFNE01.JPG,AFNE01.JPG,,,,,,,,,2,6,26,2,,,,,,,,,,,,,,,AFSA12.jpg,AFNE17.jpg,AFSA11.jpg,AFNE13.jpg,AFNE13.jpg,FN,3,num_4,16,num_4,1.06652663159,,,2017_Oct_10_1801,60.0034064452,FEMA4ImagesEEG,001,201867,
AFNE01.JPG,AFNE01.JPG,AFNE01.JPG,AFNE01.JPG,AFNE01.JPG,AFNE01.JPG,,,,,,,,,2,7,27,9,,,,,,,,,,,,,,,AFSA03.jpg,AFNE01.jpg,AFNE07.jpg,AFSA08.jpg,AFNE07.jpg,FN,3,num_2,16,num_2,1.01674423763,,,2017_Oct_10_1801,60.0034064452,FEMA4ImagesEEG,001,201867,
AFNE01.JPG,AFNE01.JPG,AFNE01.JPG,AFNE01.JPG,AFNE01.JPG,AFNE01.JPG,,,,,,,,,2,8,28,7,,,,,,,,,,,,,,,AFNE17.jpg,AFSA12.jpg,AFSA16.jpg,AFNE15.jpg,AFNE15.jpg,FN,3,num_4,16,num_4,0.650129627087,,,2017_Oct_10_1801,60.0034064452,FEMA4ImagesEEG,001,201867,
AFNE01.JPG,AFNE01.JPG,AFNE01.JPG,AFNE01.JPG,AFNE01.JPG,AFNE01.JPG,,,,,,,,,2,9,29,5,,,,,,,,,,,,,,,AFSA20.jpg,AFNE11.jpg,AFNE18.jpg,AFSA02.jpg,AFSA20.jpg,FS,4,num_8,32,num_6,1.06676013034,,,2017_Oct_10_1801,60.0034064452,FEMA4ImagesEEG,001,201867,
AFNE01.JPG,AFNE01.JPG,AFNE01.JPG,AFNE01.JPG,AFNE01.JPG,AFNE01.JPG,,,,,,,,,3,0,30,3,,,,,,,,,,,,,,,AFNE08.jpg,AFNE02.jpg,AFSA04.jpg,AFSA01.jpg,AFNE02.jpg,FN,3,num_6,16,num_6,0.583473095787,,,2017_Oct_10_1801,60.0034064452,FEMA4ImagesEEG,001,201867,
AFNE01.JPG,AFNE01.JPG,AFNE01.JPG,AFNE01.JPG,AFNE01.JPG,AFNE01.JPG,,,,,,,,,3,1,31,4,,,,,,,,,,,,,,,AFNE14.jpg,AFSA09.jpg,AFNE18.jpg,AFSA02.jpg,AFNE18.jpg,FN,3,num_2,32,num_8,0.916644455399,,,2017_Oct_10_1801,60.0034064452,FEMA4ImagesEEG,001,201867,
AFNE01.JPG,AFNE01.JPG,AFNE01.JPG,AFNE01.JPG,AFNE01.JPG,AFNE01.JPG,,,,,,,,,3,2,32,5,,,,,,,,,,,,,,,AFNE07.jpg,AFSA18.jpg,AFSA02.jpg,AFNE12.jpg,AFSA18.jpg,FS,4,num_6,32,num_8,1.68342758284,,,2017_Oct_10_1801,60.0034064452,FEMA4ImagesEEG,001,201867,
AFNE01.JPG,AFNE01.JPG,AFNE01.JPG,AFNE01.JPG,AFNE01.JPG,AFNE01.JPG,,,,,,,,,3,3,33,8,,,,,,,,,,,,,,,AFNE12.jpg,AFSA19.jpg,AFNE20.jpg,AFSA07.jpg,AFNE12.jpg,FN,3,num_8,16,num_8,1.1167413831,,,2017_Oct_10_1801,60.0034064452,FEMA4ImagesEEG,001,201867,
AFNE01.JPG,AFNE01.JPG,AFNE01.JPG,AFNE01.JPG,AFNE01.JPG,AFNE01.JPG,,,,,,,,,3,4,34,9,,,,,,,,,,,,,,,AFNE18.jpg,AFSA17.jpg,AFNE10.jpg,AFSA15.jpg,AFSA17.jpg,FS,4,num_6,16,num_6,0.933434238192,,,2017_Oct_10_1801,60.0034064452,FEMA4ImagesEEG,001,201867,
AFNE01.JPG,AFNE01.JPG,AFNE01.JPG,AFNE01.JPG,AFNE01.JPG,AFNE01.JPG,,,,,,,,,3,5,35,7,,,,,,,,,,,,,,,AFSA10.jpg,AFNE10.jpg,AFNE20.jpg,AFSA03.jpg,AFSA10.jpg,FS,4,num_8,16,num_8,0.833482637885,,,2017_Oct_10_1801,60.0034064452,FEMA4ImagesEEG,001,201867,
AFNE01.JPG,AFNE01.JPG,AFNE01.JPG,AFNE01.JPG,AFNE01.JPG,AFNE01.JPG,,,,,,,,,3,6,36,0,,,,,,,,,,,,,,,AFSA10.jpg,AFNE08.jpg,AFSA18.jpg,AFNE02.jpg,AFNE02.jpg,FN,3,num_4,16,num_4,1.13342884975,,,2017_Oct_10_1801,60.0034064452,FEMA4ImagesEEG,001,201867,
AFNE01.JPG,AFNE01.JPG,AFNE01.JPG,AFNE01.JPG,AFNE01.JPG,AFNE01.JPG,,,,,,,,,3,7,37,2,,,,,,,,,,,,,,,AFSA14.jpg,AFNE05.jpg,AFNE13.jpg,AFSA17.jpg,AFNE05.jpg,FN,3,num_6,32,num_8,2.68339198059,,,2017_Oct_10_1801,60.0034064452,FEMA4ImagesEEG,001,201867,
AFNE01.JPG,AFNE01.JPG,AFNE01.JPG,AFNE01.JPG,AFNE01.JPG,AFNE01.JPG,,,,,,,,,3,8,38,1,,,,,,,,,,,,,,,AFNE05.jpg,AFSA09.jpg,AFSA07.jpg,AFNE10.jpg,AFNE05.jpg,FN,3,num_8,32,num_4,1.43342221039,,,2017_Oct_10_1801,60.0034064452,FEMA4ImagesEEG,001,201867,
AFNE01.JPG,AFNE01.JPG,AFNE01.JPG,AFNE01.JPG,AFNE01.JPG,AFNE01.JPG,,,,,,,,,3,9,39,6,,,,,,,,,,,,,,,AFNE10.jpg,AFSA16.jpg,AFSA13.jpg,AFNE01.jpg,AFSA13.jpg,FS,4,num_2,16,num_2,1.3501260028,,,2017_Oct_10_1801,60.0034064452,FEMA4ImagesEEG,001,201867,
AFNE01.JPG,AFNE01.JPG,AFNE01.JPG,AFNE01.JPG,AFNE01.JPG,AFNE01.JPG,,,,,,,,,4,0,40,8,,,,,,,,,,,,,,,AFSA16.jpg,AFNE18.jpg,AFNE06.jpg,AFSA06.jpg,AFNE18.jpg,FN,3,num_6,32,num_4,0.983444357524,,,2017_Oct_10_1801,60.0034064452,FEMA4ImagesEEG,001,201867,
AFNE01.JPG,AFNE01.JPG,AFNE01.JPG,AFNE01.JPG,AFNE01.JPG,AFNE01.JPG,,,,,,,,,4,1,41,1,,,,,,,,,,,,,,,AFNE09.jpg,AFSA03.jpg,AFSA17.jpg,AFNE02.jpg,AFNE02.jpg,FN,3,num_4,16,num_4,1.01681897009,,,2017_Oct_10_1801,60.0034064452,FEMA4ImagesEEG,001,201867,
AFNE01.JPG,AFNE01.JPG,AFNE01.JPG,AFNE01.JPG,AFNE01.JPG,AFNE01.JPG,,,,,,,,,4,2,42,6,,,,,,,,,,,,,,,AFNE18.jpg,AFNE04.jpg,AFSA12.jpg,AFSA14.jpg,AFNE18.jpg,FN,3,num_8,16,num_8,1.36670538003,,,2017_Oct_10_1801,60.0034064452,FEMA4ImagesEEG,001,201867,
AFNE01.JPG,AFNE01.JPG,AFNE01.JPG,AFNE01.JPG,AFNE01.JPG,AFNE01.JPG,,,,,,,,,4,3,43,4,,,,,,,,,,,,,,,AFNE04.jpg,AFSA12.jpg,AFSA08.jpg,AFNE05.jpg,AFNE04.jpg,FN,3,num_8,16,num_8,1.13343718892,,,2017_Oct_10_1801,60.0034064452,FEMA4ImagesEEG,001,201867,
AFNE01.JPG,AFNE01.JPG,AFNE01.JPG,AFNE01.JPG,AFNE01.JPG,AFNE01.JPG,,,,,,,,,4,4,44,0,,,,,,,,,,,,,,,AFNE08.jpg,AFSA10.jpg,AFNE02.jpg,AFSA04.jpg,AFSA04.jpg,FS,4,num_4,16,num_4,0.650110703427,,,2017_Oct_10_1801,60.0034064452,FEMA4ImagesEEG,001,201867,
AFNE01.JPG,AFNE01.JPG,AFNE01.JPG,AFNE01.JPG,AFNE01.JPG,AFNE01.JPG,,,,,,,,,4,5,45,7,,,,,,,,,,,,,,,AFSA20.jpg,AFNE16.jpg,AFSA05.jpg,AFNE15.jpg,AFSA20.jpg,FS,4,num_8,16,num_8,0.966785757453,,,2017_Oct_10_1801,60.0034064452,FEMA4ImagesEEG,001,201867,
AFNE01.JPG,AFNE01.JPG,AFNE01.JPG,AFNE01.JPG,AFNE01.JPG,AFNE01.JPG,,,,,,,,,4,6,46,9,,,,,,,,,,,,,,,AFSA07.jpg,AFNE12.jpg,AFSA10.jpg,AFNE06.jpg,AFSA07.jpg,FS,4,num_8,16,num_8,1.2834781314,,,2017_Oct_10_1801,60.0034064452,FEMA4ImagesEEG,001,201867,
AFNE01.JPG,AFNE01.JPG,AFNE01.JPG,AFNE01.JPG,AFNE01.JPG,AFNE01.JPG,,,,,,,,,4,7,47,3,,,,,,,,,,,,,,,AFNE16.jpg,AFNE19.jpg,AFSA16.jpg,AFSA02.jpg,AFSA02.jpg,FS,4,num_4,16,num_4,0.766783127445,,,2017_Oct_10_1801,60.0034064452,FEMA4ImagesEEG,001,201867,
AFNE01.JPG,AFNE01.JPG,AFNE01.JPG,AFNE01.JPG,AFNE01.JPG,AFNE01.JPG,,,,,,,,,4,8,48,5,,,,,,,,,,,,,,,AFSA02.jpg,AFNE12.jpg,AFNE13.jpg,AFSA07.jpg,AFSA02.jpg,FS,4,num_8,32,num_2,1.1667694638,,,2017_Oct_10_1801,60.0034064452,FEMA4ImagesEEG,001,201867,
AFNE01.JPG,AFNE01.JPG,AFNE01.JPG,AFNE01.JPG,AFNE01.JPG,AFNE01.JPG,,,,,,,,,4,9,49,2,,,,,,,,,,,,,,,AFNE15.jpg,AFSA18.jpg,AFNE20.jpg,AFSA19.jpg,AFSA19.jpg,FS,4,num_4,16,num_4,0.600132016698,,,2017_Oct_10_1801,60.0034064452,FEMA4ImagesEEG,001,201867,
AFNE01.JPG,AFNE01.JPG,AFNE01.JPG,AFNE01.JPG,AFNE01.JPG,AFNE01.JPG,,,,,,,,,5,0,50,7,,,,,,,,,,,,,,,AFNE16.jpg,AFNE10.jpg,AFSA16.jpg,AFSA11.jpg,AFSA16.jpg,FS,4,num_2,32,num_8,0.91676761955,,,2017_Oct_10_1801,60.0034064452,FEMA4ImagesEEG,001,201867,
AFNE01.JPG,AFNE01.JPG,AFNE01.JPG,AFNE01.JPG,AFNE01.JPG,AFNE01.JPG,,,,,,,,,5,1,51,0,,,,,,,,,,,,,,,AFNE04.jpg,AFNE17.jpg,AFSA05.jpg,AFSA03.jpg,AFNE04.jpg,FN,3,num_8,16,num_8,1.30012678856,,,2017_Oct_10_1801,60.0034064452,FEMA4ImagesEEG,001,201867,
AFNE01.JPG,AFNE01.JPG,AFNE01.JPG,AFNE01.JPG,AFNE01.JPG,AFNE01.JPG,,,,,,,,,5,2,52,6,,,,,,,,,,,,,,,AFSA15.jpg,AFSA17.jpg,AFNE15.jpg,AFNE07.jpg,AFSA17.jpg,FS,4,num_6,32,num_2,1.43340585264,,,2017_Oct_10_1801,60.0034064452,FEMA4ImagesEEG,001,201867,
AFNE01.JPG,AFNE01.JPG,AFNE01.JPG,AFNE01.JPG,AFNE01.JPG,AFNE01.JPG,,,,,,,,,5,3,53,4,,,,,,,,,,,,,,,AFNE17.jpg,AFSA04.jpg,AFNE06.jpg,AFSA07.jpg,AFSA04.jpg,FS,4,num_6,32,num_8,0.616798635223,,,2017_Oct_10_1801,60.0034064452,FEMA4ImagesEEG,001,201867,
AFNE01.JPG,AFNE01.JPG,AFNE01.JPG,AFNE01.JPG,AFNE01.JPG,AFNE01.JPG,,,,,,,,,5,4,54,8,,,,,,,,,,,,,,,AFNE07.jpg,AFSA05.jpg,AFNE09.jpg,AFSA15.jpg,AFNE07.jpg,FN,3,num_8,32,num_2,1.10009593342,,,2017_Oct_10_1801,60.0034064452,FEMA4ImagesEEG,001,201867,
AFNE01.JPG,AFNE01.JPG,AFNE01.JPG,AFNE01.JPG,AFNE01.JPG,AFNE01.JPG,,,,,,,,,5,5,55,2,,,,,,,,,,,,,,,AFNE14.jpg,AFSA16.jpg,AFSA01.jpg,AFNE17.jpg,AFSA16.jpg,FS,4,num_6,32,num_4,0.700140067143,,,2017_Oct_10_1801,60.0034064452,FEMA4ImagesEEG,001,201867,
AFNE01.JPG,AFNE01.JPG,AFNE01.JPG,AFNE01.JPG,AFNE01.JPG,AFNE01.JPG,,,,,,,,,5,6,56,9,,,,,,,,,,,,,,,AFSA03.jpg,AFNE12.jpg,AFNE18.jpg,AFSA15.jpg,AFSA03.jpg,FS,4,num_8,32,num_2,1.99971293763,,,2017_Oct_10_1801,60.0034064452,FEMA4ImagesEEG,001,201867,
AFNE01.JPG,AFNE01.JPG,AFNE01.JPG,AFNE01.JPG,AFNE01.JPG,AFNE01.JPG,,,,,,,,,5,7,57,3,,,,,,,,,,,,,,,AFNE07.jpg,AFSA14.jpg,AFNE06.jpg,AFSA01.jpg,AFSA01.jpg,FS,4,num_4,32,num_2,1.01678240579,,,2017_Oct_10_1801,60.0034064452,FEMA4ImagesEEG,001,201867,
AFNE01.JPG,AFNE01.JPG,AFNE01.JPG,AFNE01.JPG,AFNE01.JPG,AFNE01.JPG,,,,,,,,,5,8,58,5,,,,,,,,,,,,,,,AFNE18.jpg,AFSA15.jpg,AFSA19.jpg,AFNE08.jpg,AFNE08.jpg,FN,3,num_4,32,num_8,1.16674412542,,,2017_Oct_10_1801,60.0034064452,FEMA4ImagesEEG,001,201867,
AFNE01.JPG,AFNE01.JPG,AFNE01.JPG,AFNE01.JPG,AFNE01.JPG,AFNE01.JPG,,,,,,,,,5,9,59,1,,,,,,,,,,,,,,,AFSA19.jpg,AFSA14.jpg,AFNE17.jpg,AFNE15.jpg,AFNE17.jpg,FN,3,num_2,16,num_2,0.933469198761,,,2017_Oct_10_1801,60.0034064452,FEMA4ImagesEEG,001,201867,
,,,,,,,,,,,,,,,,,,,,,,,,,,,,,,,,,,,,,,,,,,,space,27.5317104525,2017_Oct_10_1801,60.0034064452,FEMA4ImagesEEG,001,201867,
AFNE01.JPG,AFNE01.JPG,AFNE01.JPG,AFNE01.JPG,AFNE01.JPG,AFNE01.JPG,,,,,,,,,,,,,0,0,0,3,,,,,,,,,,,AMSA09.jpg,AMNE19.jpg,AMSA07.jpg,AMNE05.jpg,AMSA07.jpg,MS,2,num_2,16,num_2,0.700212233816,,,2017_Oct_10_1801,60.0034064452,FEMA4ImagesEEG,001,201867,
AFNE01.JPG,AFNE01.JPG,AFNE01.JPG,AFNE01.JPG,AFNE01.JPG,AFNE01.JPG,,,,,,,,,,,,,0,1,1,1,,,,,,,,,,,AMNE09.jpg,AMSA14.jpg,AMNE18.jpg,AMSA18.jpg,AMSA14.jpg,MS,2,num_6,16,num_6,0.766803654842,,,2017_Oct_10_1801,60.0034064452,FEMA4ImagesEEG,001,201867,
AFNE01.JPG,AFNE01.JPG,AFNE01.JPG,AFNE01.JPG,AFNE01.JPG,AFNE01.JPG,,,,,,,,,,,,,0,2,2,9,,,,,,,,,,,AMSA14.jpg,AMNE19.jpg,AMSA20.jpg,AMNE12.jpg,AMSA20.jpg,MS,2,num_2,16,num_2,0.616829746985,,,2017_Oct_10_1801,60.0034064452,FEMA4ImagesEEG,001,201867,
AFNE01.JPG,AFNE01.JPG,AFNE01.JPG,AFNE01.JPG,AFNE01.JPG,AFNE01.JPG,,,,,,,,,,,,,0,3,3,5,,,,,,,,,,,AMSA09.jpg,AMSA15.jpg,AMNE14.jpg,AMNE17.jpg,AMSA15.jpg,MS,2,num_6,16,num_6,0.566673690919,,,2017_Oct_10_1801,60.0034064452,FEMA4ImagesEEG,001,201867,
AFNE01.JPG,AFNE01.JPG,AFNE01.JPG,AFNE01.JPG,AFNE01.JPG,AFNE01.JPG,,,,,,,,,,,,,0,4,4,7,,,,,,,,,,,AMSA04.jpg,AMSA19.jpg,AMNE14.jpg,AMNE13.jpg,AMNE13.jpg,MN,1,num_4,32,num_8,0.750467398553,,,2017_Oct_10_1801,60.0034064452,FEMA4ImagesEEG,001,201867,
AFNE01.JPG,AFNE01.JPG,AFNE01.JPG,AFNE01.JPG,AFNE01.JPG,AFNE01.JPG,,,,,,,,,,,,,0,5,5,4,,,,,,,,,,,AMSA04.jpg,AMNE01.jpg,AMSA20.jpg,AMNE03.jpg,AMSA04.jpg,MS,2,num_8,16,num_8,0.866738897283,,,2017_Oct_10_1801,60.0034064452,FEMA4ImagesEEG,001,201867,
AFNE01.JPG,AFNE01.JPG,AFNE01.JPG,AFNE01.JPG,AFNE01.JPG,AFNE01.JPG,,,,,,,,,,,,,0,6,6,8,,,,,,,,,,,AMSA17.jpg,AMNE11.jpg,AMSA05.jpg,AMNE06.jpg,AMNE11.jpg,MN,1,num_6,16,num_6,0.833474940038,,,2017_Oct_10_1801,60.0034064452,FEMA4ImagesEEG,001,201867,
AFNE01.JPG,AFNE01.JPG,AFNE01.JPG,AFNE01.JPG,AFNE01.JPG,AFNE01.JPG,,,,,,,,,,,,,0,7,7,2,,,,,,,,,,,AMNE08.jpg,AMNE05.jpg,AMSA17.jpg,AMSA04.jpg,AMSA17.jpg,MS,2,num_2,16,num_2,0.950334676192,,,2017_Oct_10_1801,60.0034064452,FEMA4ImagesEEG,001,201867,
AFNE01.JPG,AFNE01.JPG,AFNE01.JPG,AFNE01.JPG,AFNE01.JPG,AFNE01.JPG,,,,,,,,,,,,,0,8,8,6,,,,,,,,,,,AMSA06.jpg,AMNE14.jpg,AMNE08.jpg,AMSA13.jpg,AMSA13.jpg,MS,2,num_4,32,num_8,0.950155061786,,,2017_Oct_10_1801,60.0034064452,FEMA4ImagesEEG,001,201867,
AFNE01.JPG,AFNE01.JPG,AFNE01.JPG,AFNE01.JPG,AFNE01.JPG,AFNE01.JPG,,,,,,,,,,,,,0,9,9,0,,,,,,,,,,,AMSA07.jpg,AMSA12.jpg,AMNE19.jpg,AMNE01.jpg,AMSA12.jpg,MS,2,num_6,16,num_6,0.899908556952,,,2017_Oct_10_1801,60.0034064452,FEMA4ImagesEEG,001,201867,
AFNE01.JPG,AFNE01.JPG,AFNE01.JPG,AFNE01.JPG,AFNE01.JPG,AFNE01.JPG,,,,,,,,,,,,,1,0,10,4,,,,,,,,,,,AMSA19.jpg,AMSA08.jpg,AMNE06.jpg,AMNE12.jpg,AMSA19.jpg,MS,2,num_8,32,num_6,0.916745167924,,,2017_Oct_10_1801,60.0034064452,FEMA4ImagesEEG,001,201867,
AFNE01.JPG,AFNE01.JPG,AFNE01.JPG,AFNE01.JPG,AFNE01.JPG,AFNE01.JPG,,,,,,,,,,,,,1,1,11,5,,,,,,,,,,,AMNE04.jpg,AMSA03.jpg,AMSA15.jpg,AMNE10.jpg,AMSA15.jpg,MS,2,num_2,16,num_2,0.966779021895,,,2017_Oct_10_1801,60.0034064452,FEMA4ImagesEEG,001,201867,
AFNE01.JPG,AFNE01.JPG,AFNE01.JPG,AFNE01.JPG,AFNE01.JPG,AFNE01.JPG,,,,,,,,,,,,,1,2,12,6,,,,,,,,,,,AMSA13.jpg,AMSA18.jpg,AMNE01.jpg,AMNE05.jpg,AMNE05.jpg,MN,1,num_4,32,num_8,0.983414849499,,,2017_Oct_10_1801,60.0034064452,FEMA4ImagesEEG,001,201867,
AFNE01.JPG,AFNE01.JPG,AFNE01.JPG,AFNE01.JPG,AFNE01.JPG,AFNE01.JPG,,,,,,,,,,,,,1,3,13,3,,,,,,,,,,,AMSA14.jpg,AMSA19.jpg,AMNE15.jpg,AMNE03.jpg,AMNE03.jpg,MN,1,num_4,32,num_6,0.91674099816,,,2017_Oct_10_1801,60.0034064452,FEMA4ImagesEEG,001,201867,
AFNE01.JPG,AFNE01.JPG,AFNE01.JPG,AFNE01.JPG,AFNE01.JPG,AFNE01.JPG,,,,,,,,,,,,,1,4,14,7,,,,,,,,,,,AMSA08.jpg,AMNE06.jpg,AMSA10.jpg,AMNE19.jpg,AMSA10.jpg,MS,2,num_2,16,num_2,0.850187424454,,,2017_Oct_10_1801,60.0034064452,FEMA4ImagesEEG,001,201867,
AFNE01.JPG,AFNE01.JPG,AFNE01.JPG,AFNE01.JPG,AFNE01.JPG,AFNE01.JPG,,,,,,,,,,,,,1,5,15,0,,,,,,,,,,,AMSA11.jpg,AMNE12.jpg,AMSA08.jpg,AMNE19.jpg,AMNE19.jpg,MN,1,num_4,32,num_8,1.56681609945,,,2017_Oct_10_1801,60.0034064452,FEMA4ImagesEEG,001,201867,
AFNE01.JPG,AFNE01.JPG,AFNE01.JPG,AFNE01.JPG,AFNE01.JPG,AFNE01.JPG,,,,,,,,,,,,,1,6,16,9,,,,,,,,,,,AMNE09.jpg,AMSA03.jpg,AMNE02.jpg,AMSA04.jpg,AMSA03.jpg,MS,2,num_6,32,num_4,2.20007832476,,,2017_Oct_10_1801,60.0034064452,FEMA4ImagesEEG,001,201867,
AFNE01.JPG,AFNE01.JPG,AFNE01.JPG,AFNE01.JPG,AFNE01.JPG,AFNE01.JPG,,,,,,,,,,,,,1,7,17,1,,,,,,,,,,,AMNE03.jpg,AMSA01.jpg,AMSA15.jpg,AMNE11.jpg,AMSA01.jpg,MS,2,num_6,16,num_6,0.900136924,,,2017_Oct_10_1801,60.0034064452,FEMA4ImagesEEG,001,201867,
AFNE01.JPG,AFNE01.JPG,AFNE01.JPG,AFNE01.JPG,AFNE01.JPG,AFNE01.JPG,,,,,,,,,,,,,1,8,18,2,,,,,,,,,,,AMNE20.jpg,AMNE03.jpg,AMSA15.jpg,AMSA04.jpg,AMSA15.jpg,MS,2,num_2,16,num_2,0.93352115876,,,2017_Oct_10_1801,60.0034064452,FEMA4ImagesEEG,001,201867,
AFNE01.JPG,AFNE01.JPG,AFNE01.JPG,AFNE01.JPG,AFNE01.JPG,AFNE01.JPG,,,,,,,,,,,,,1,9,19,8,,,,,,,,,,,AMSA12.jpg,AMSA13.jpg,AMNE07.jpg,AMNE04.jpg,AMNE04.jpg,MN,1,num_4,16,num_4,0.766758109676,,,2017_Oct_10_1801,60.0034064452,FEMA4ImagesEEG,001,201867,
AFNE01.JPG,AFNE01.JPG,AFNE01.JPG,AFNE01.JPG,AFNE01.JPG,AFNE01.JPG,,,,,,,,,,,,,2,0,20,9,,,,,,,,,,,AMNE11.jpg,AMNE12.jpg,AMSA05.jpg,AMSA12.jpg,AMSA05.jpg,MS,2,num_2,16,num_2,1.08341937186,,,2017_Oct_10_1801,60.0034064452,FEMA4ImagesEEG,001,201867,
AFNE01.JPG,AFNE01.JPG,AFNE01.JPG,AFNE01.JPG,AFNE01.JPG,AFNE01.JPG,,,,,,,,,,,,,2,1,21,4,,,,,,,,,,,AMSA02.jpg,AMNE04.jpg,AMSA19.jpg,AMNE11.jpg,AMSA19.jpg,MS,2,num_2,32,num_4,1.56673174491,,,2017_Oct_10_1801,60.0034064452,FEMA4ImagesEEG,001,201867,
AFNE01.JPG,AFNE01.JPG,AFNE01.JPG,AFNE01.JPG,AFNE01.JPG,AFNE01.JPG,,,,,,,,,,,,,2,2,22,6,,,,,,,,,,,AMNE20.jpg,AMNE14.jpg,AMSA12.jpg,AMSA14.jpg,AMSA14.jpg,MS,2,num_4,16,num_4,0.666762247216,,,2017_Oct_10_1801,60.0034064452,FEMA4ImagesEEG,001,201867,
AFNE01.JPG,AFNE01.JPG,AFNE01.JPG,AFNE01.JPG,AFNE01.JPG,AFNE01.JPG,,,,,,,,,,,,,2,3,23,8,,,,,,,,,,,AMSA14.jpg,AMSA17.jpg,AMNE12.jpg,AMNE19.jpg,AMSA14.jpg,MS,2,num_8,16,num_8,0.58351479203,,,2017_Oct_10_1801,60.0034064452,FEMA4ImagesEEG,001,201867,
AFNE01.JPG,AFNE01.JPG,AFNE01.JPG,AFNE01.JPG,AFNE01.JPG,AFNE01.JPG,,,,,,,,,,,,,2,4,24,2,,,,,,,,,,,AMSA10.jpg,AMNE05.jpg,AMSA18.jpg,AMNE20.jpg,AMSA10.jpg,MS,2,num_8,16,num_8,1.15011952375,,,2017_Oct_10_1801,60.0034064452,FEMA4ImagesEEG,001,201867,
AFNE01.JPG,AFNE01.JPG,AFNE01.JPG,AFNE01.JPG,AFNE01.JPG,AFNE01.JPG,,,,,,,,,,,,,2,5,25,3,,,,,,,,,,,AMSA14.jpg,AMNE08.jpg,AMSA07.jpg,AMNE10.jpg,AMSA07.jpg,MS,2,num_2,16,num_2,0.850140917115,,,2017_Oct_10_1801,60.0034064452,FEMA4ImagesEEG,001,201867,
AFNE01.JPG,AFNE01.JPG,AFNE01.JPG,AFNE01.JPG,AFNE01.JPG,AFNE01.JPG,,,,,,,,,,,,,2,6,26,1,,,,,,,,,,,AMSA01.jpg,AMNE18.jpg,AMNE19.jpg,AMSA04.jpg,AMSA04.jpg,MS,2,num_4,32,num_8,1.48350834521,,,2017_Oct_10_1801,60.0034064452,FEMA4ImagesEEG,001,201867,
AFNE01.JPG,AFNE01.JPG,AFNE01.JPG,AFNE01.JPG,AFNE01.JPG,AFNE01.JPG,,,,,,,,,,,,,2,7,27,0,,,,,,,,,,,AMNE10.jpg,AMSA09.jpg,AMSA17.jpg,AMNE12.jpg,AMNE12.jpg,MN,1,num_4,32,num_8,1.03345864639,,,2017_Oct_10_1801,60.0034064452,FEMA4ImagesEEG,001,201867,
AFNE01.JPG,AFNE01.JPG,AFNE01.JPG,AFNE01.JPG,AFNE01.JPG,AFNE01.JPG,,,,,,,,,,,,,2,8,28,5,,,,,,,,,,,AMSA12.jpg,AMNE14.jpg,AMSA06.jpg,AMNE19.jpg,AMSA12.jpg,MS,2,num_8,16,num_8,1.1001116496,,,2017_Oct_10_1801,60.0034064452,FEMA4ImagesEEG,001,201867,
AFNE01.JPG,AFNE01.JPG,AFNE01.JPG,AFNE01.JPG,AFNE01.JPG,AFNE01.JPG,,,,,,,,,,,,,2,9,29,7,,,,,,,,,,,AMNE05.jpg,AMNE06.jpg,AMSA20.jpg,AMSA16.jpg,AMSA16.jpg,MS,2,num_4,16,num_4,2.54996473459,,,2017_Oct_10_1801,60.0034064452,FEMA4ImagesEEG,001,201867,
AFNE01.JPG,AFNE01.JPG,AFNE01.JPG,AFNE01.JPG,AFNE01.JPG,AFNE01.JPG,,,,,,,,,,,,,3,0,30,4,,,,,,,,,,,AMNE12.jpg,AMSA16.jpg,AMSA18.jpg,AMNE16.jpg,AMNE12.jpg,MN,1,num_8,16,num_8,0.866789253429,,,2017_Oct_10_1801,60.0034064452,FEMA4ImagesEEG,001,201867,
AFNE01.JPG,AFNE01.JPG,AFNE01.JPG,AFNE01.JPG,AFNE01.JPG,AFNE01.JPG,,,,,,,,,,,,,3,1,31,3,,,,,,,,,,,AMNE09.jpg,AMSA10.jpg,AMSA09.jpg,AMNE15.jpg,AMSA09.jpg,MS,2,num_2,16,num_2,0.600129771396,,,2017_Oct_10_1801,60.0034064452,FEMA4ImagesEEG,001,201867,
AFNE01.JPG,AFNE01.JPG,AFNE01.JPG,AFNE01.JPG,AFNE01.JPG,AFNE01.JPG,,,,,,,,,,,,,3,2,32,6,,,,,,,,,,,AMNE04.jpg,AMNE09.jpg,AMSA10.jpg,AMSA01.jpg,AMSA01.jpg,MS,2,num_4,32,num_8,1.13344713184,,,2017_Oct_10_1801,60.0034064452,FEMA4ImagesEEG,001,201867,
AFNE01.JPG,AFNE01.JPG,AFNE01.JPG,AFNE01.JPG,AFNE01.JPG,AFNE01.JPG,,,,,,,,,,,,,3,3,33,2,,,,,,,,,,,AMSA06.jpg,AMNE19.jpg,AMNE02.jpg,AMSA10.jpg,AMNE19.jpg,MN,1,num_6,32,num_2,1.8667026537,,,2017_Oct_10_1801,60.0034064452,FEMA4ImagesEEG,001,201867,
AFNE01.JPG,AFNE01.JPG,AFNE01.JPG,AFNE01.JPG,AFNE01.JPG,AFNE01.JPG,,,,,,,,,,,,,3,4,34,9,,,,,,,,,,,AMNE08.jpg,AMSA01.jpg,AMSA02.jpg,AMNE03.jpg,AMNE03.jpg,MN,1,num_4,32,num_2,1.20012643572,,,2017_Oct_10_1801,60.0034064452,FEMA4ImagesEEG,001,201867,
AFNE01.JPG,AFNE01.JPG,AFNE01.JPG,AFNE01.JPG,AFNE01.JPG,AFNE01.JPG,,,,,,,,,,,,,3,5,35,0,,,,,,,,,,,AMNE16.jpg,AMSA14.jpg,AMNE04.jpg,AMSA18.jpg,AMSA18.jpg,MS,2,num_4,32,num_6,1.15015127708,,,2017_Oct_10_1801,60.0034064452,FEMA4ImagesEEG,001,201867,
AFNE01.JPG,AFNE01.JPG,AFNE01.JPG,AFNE01.JPG,AFNE01.JPG,AFNE01.JPG,,,,,,,,,,,,,3,6,36,5,,,,,,,,,,,AMSA05.jpg,AMNE07.jpg,AMSA04.jpg,AMNE01.jpg,AMSA04.jpg,MS,2,num_2,32,num_4,1.41676104441,,,2017_Oct_10_1801,60.0034064452,FEMA4ImagesEEG,001,201867,
AFNE01.JPG,AFNE01.JPG,AFNE01.JPG,AFNE01.JPG,AFNE01.JPG,AFNE01.JPG,,,,,,,,,,,,,3,7,37,8,,,,,,,,,,,AMSA20.jpg,AMSA02.jpg,AMNE06.jpg,AMNE16.jpg,AMNE16.jpg,MN,1,num_4,32,num_2,0.800138495513,,,2017_Oct_10_1801,60.0034064452,FEMA4ImagesEEG,001,201867,
AFNE01.JPG,AFNE01.JPG,AFNE01.JPG,AFNE01.JPG,AFNE01.JPG,AFNE01.JPG,,,,,,,,,,,,,3,8,38,7,,,,,,,,,,,AMNE05.jpg,AMSA07.jpg,AMNE03.jpg,AMSA04.jpg,AMNE05.jpg,MN,1,num_8,16,num_8,0.900165469851,,,2017_Oct_10_1801,60.0034064452,FEMA4ImagesEEG,001,201867,
AFNE01.JPG,AFNE01.JPG,AFNE01.JPG,AFNE01.JPG,AFNE01.JPG,AFNE01.JPG,,,,,,,,,,,,,3,9,39,1,,,,,,,,,,,AMSA14.jpg,AMNE09.jpg,AMSA10.jpg,AMNE17.jpg,AMSA10.jpg,MS,2,num_2,32,num_8,2.1500156041,,,2017_Oct_10_1801,60.0034064452,FEMA4ImagesEEG,001,201867,
AFNE01.JPG,AFNE01.JPG,AFNE01.JPG,AFNE01.JPG,AFNE01.JPG,AFNE01.JPG,,,,,,,,,,,,,4,0,40,0,,,,,,,,,,,AMNE13.jpg,AMSA15.jpg,AMNE17.jpg,AMSA06.jpg,AMNE17.jpg,MN,1,num_2,32,num_8,0.85013033275,,,2017_Oct_10_1801,60.0034064452,FEMA4ImagesEEG,001,201867,
AFNE01.JPG,AFNE01.JPG,AFNE01.JPG,AFNE01.JPG,AFNE01.JPG,AFNE01.JPG,,,,,,,,,,,,,4,1,41,2,,,,,,,,,,,AMNE16.jpg,AMNE01.jpg,AMSA10.jpg,AMSA16.jpg,AMSA10.jpg,MS,2,num_2,16,num_2,1.233413807,,,2017_Oct_10_1801,60.0034064452,FEMA4ImagesEEG,001,201867,
AFNE01.JPG,AFNE01.JPG,AFNE01.JPG,AFNE01.JPG,AFNE01.JPG,AFNE01.JPG,,,,,,,,,,,,,4,2,42,1,,,,,,,,,,,AMSA04.jpg,AMNE10.jpg,AMSA20.jpg,AMNE04.jpg,AMNE10.jpg,MN,1,num_6,32,num_2,0.966774852248,,,2017_Oct_10_1801,60.0034064452,FEMA4ImagesEEG,001,201867,
AFNE01.JPG,AFNE01.JPG,AFNE01.JPG,AFNE01.JPG,AFNE01.JPG,AFNE01.JPG,,,,,,,,,,,,,4,3,43,6,,,,,,,,,,,AMSA05.jpg,AMSA17.jpg,AMNE16.jpg,AMNE04.jpg,AMSA17.jpg,MS,2,num_6,16,num_6,0.76680140954,,,2017_Oct_10_1801,60.0034064452,FEMA4ImagesEEG,001,201867,
AFNE01.JPG,AFNE01.JPG,AFNE01.JPG,AFNE01.JPG,AFNE01.JPG,AFNE01.JPG,,,,,,,,,,,,,4,4,44,3,,,,,,,,,,,AMNE20.jpg,AMSA15.jpg,AMSA03.jpg,AMNE15.jpg,AMNE15.jpg,MN,1,num_4,16,num_4,0.950135817402,,,2017_Oct_10_1801,60.0034064452,FEMA4ImagesEEG,001,201867,
AFNE01.JPG,AFNE01.JPG,AFNE01.JPG,AFNE01.JPG,AFNE01.JPG,AFNE01.JPG,,,,,,,,,,,,,4,5,45,7,,,,,,,,,,,AMSA15.jpg,AMNE06.jpg,AMSA04.jpg,AMNE04.jpg,AMSA04.jpg,MS,2,num_2,16,num_2,0.966782549978,,,2017_Oct_10_1801,60.0034064452,FEMA4ImagesEEG,001,201867,
AFNE01.JPG,AFNE01.JPG,AFNE01.JPG,AFNE01.JPG,AFNE01.JPG,AFNE01.JPG,,,,,,,,,,,,,4,6,46,4,,,,,,,,,,,AMSA17.jpg,AMSA13.jpg,AMNE04.jpg,AMNE06.jpg,AMNE04.jpg,MN,1,num_2,16,num_2,0.933642398566,,,2017_Oct_10_1801,60.0034064452,FEMA4ImagesEEG,001,201867,
AFNE01.JPG,AFNE01.JPG,AFNE01.JPG,AFNE01.JPG,AFNE01.JPG,AFNE01.JPG,,,,,,,,,,,,,4,7,47,9,,,,,,,,,,,AMSA18.jpg,AMSA19.jpg,AMNE18.jpg,AMNE19.jpg,AMSA18.jpg,MS,2,num_8,32,num_4,1.08345625701,,,2017_Oct_10_1801,60.0034064452,FEMA4ImagesEEG,001,201867,
AFNE01.JPG,AFNE01.JPG,AFNE01.JPG,AFNE01.JPG,AFNE01.JPG,AFNE01.JPG,,,,,,,,,,,,,4,8,48,8,,,,,,,,,,,AMNE13.jpg,AMNE06.jpg,AMSA20.jpg,AMSA07.jpg,AMSA07.jpg,MS,2,num_4,16,num_4,0.950133251492,,,2017_Oct_10_1801,60.0034064452,FEMA4ImagesEEG,001,201867,
AFNE01.JPG,AFNE01.JPG,AFNE01.JPG,AFNE01.JPG,AFNE01.JPG,AFNE01.JPG,,,,,,,,,,,,,4,9,49,5,,,,,,,,,,,AMNE06.jpg,AMSA09.jpg,AMSA20.jpg,AMNE08.jpg,AMNE08.jpg,MN,1,num_4,32,num_8,1.08344823855,,,2017_Oct_10_1801,60.0034064452,FEMA4ImagesEEG,001,201867,
AFNE01.JPG,AFNE01.JPG,AFNE01.JPG,AFNE01.JPG,AFNE01.JPG,AFNE01.JPG,,,,,,,,,,,,,5,0,50,3,,,,,,,,,,,AMSA06.jpg,AMNE09.jpg,AMNE18.jpg,AMSA19.jpg,AMNE18.jpg,MN,1,num_2,32,num_6,0.800123100053,,,2017_Oct_10_1801,60.0034064452,FEMA4ImagesEEG,001,201867,
AFNE01.JPG,AFNE01.JPG,AFNE01.JPG,AFNE01.JPG,AFNE01.JPG,AFNE01.JPG,,,,,,,,,,,,,5,1,51,6,,,,,,,,,,,AMSA02.jpg,AMNE16.jpg,AMSA08.jpg,AMNE13.jpg,AMNE13.jpg,MN,1,num_4,32,num_6,1.05012462358,,,2017_Oct_10_1801,60.0034064452,FEMA4ImagesEEG,001,201867,
AFNE01.JPG,AFNE01.JPG,AFNE01.JPG,AFNE01.JPG,AFNE01.JPG,AFNE01.JPG,,,,,,,,,,,,,5,2,52,1,,,,,,,,,,,AMSA14.jpg,AMNE04.jpg,AMNE12.jpg,AMSA11.jpg,AMNE04.jpg,MN,1,num_6,16,num_6,1.25013142324,,,2017_Oct_10_1801,60.0034064452,FEMA4ImagesEEG,001,201867,
AFNE01.JPG,AFNE01.JPG,AFNE01.JPG,AFNE01.JPG,AFNE01.JPG,AFNE01.JPG,,,,,,,,,,,,,5,3,53,5,,,,,,,,,,,AMSA17.jpg,AMSA15.jpg,AMNE09.jpg,AMNE14.jpg,AMSA15.jpg,MS,2,num_6,16,num_6,1.31672573101,,,2017_Oct_10_1801,60.0034064452,FEMA4ImagesEEG,001,201867,
AFNE01.JPG,AFNE01.JPG,AFNE01.JPG,AFNE01.JPG,AFNE01.JPG,AFNE01.JPG,,,,,,,,,,,,,5,4,54,0,,,,,,,,,,,AMSA02.jpg,AMSA10.jpg,AMNE07.jpg,AMNE09.jpg,AMSA10.jpg,MS,2,num_6,32,num_2,1.41658207146,,,2017_Oct_10_1801,60.0034064452,FEMA4ImagesEEG,001,201867,
AFNE01.JPG,AFNE01.JPG,AFNE01.JPG,AFNE01.JPG,AFNE01.JPG,AFNE01.JPG,,,,,,,,,,,,,5,5,55,4,,,,,,,,,,,AMSA13.jpg,AMSA07.jpg,AMNE03.jpg,AMNE14.jpg,AMSA07.jpg,MS,2,num_6,16,num_6,0.850125521654,,,2017_Oct_10_1801,60.0034064452,FEMA4ImagesEEG,001,201867,
AFNE01.JPG,AFNE01.JPG,AFNE01.JPG,AFNE01.JPG,AFNE01.JPG,AFNE01.JPG,,,,,,,,,,,,,5,6,56,9,,,,,,,,,,,AMSA16.jpg,AMNE13.jpg,AMSA03.jpg,AMNE09.jpg,AMSA03.jpg,MS,2,num_2,16,num_2,0.583509339485,,,2017_Oct_10_1801,60.0034064452,FEMA4ImagesEEG,001,201867,
AFNE01.JPG,AFNE01.JPG,AFNE01.JPG,AFNE01.JPG,AFNE01.JPG,AFNE01.JPG,,,,,,,,,,,,,5,7,57,2,,,,,,,,,,,AMSA18.jpg,AMNE20.jpg,AMSA13.jpg,AMNE17.jpg,AMNE17.jpg,MN,1,num_4,32,num_6,0.866752368398,,,2017_Oct_10_1801,60.0034064452,FEMA4ImagesEEG,001,201867,
AFNE01.JPG,AFNE01.JPG,AFNE01.JPG,AFNE01.JPG,AFNE01.JPG,AFNE01.JPG,,,,,,,,,,,,,5,8,58,7,,,,,,,,,,,AMNE10.jpg,AMSA14.jpg,AMNE19.jpg,AMSA19.jpg,AMSA14.jpg,MS,2,num_6,16,num_6,0.666810037452,,,2017_Oct_10_1801,60.0034064452,FEMA4ImagesEEG,001,201867,
AFNE01.JPG,AFNE01.JPG,AFNE01.JPG,AFNE01.JPG,AFNE01.JPG,AFNE01.JPG,,,,,,,,,,,,,5,9,59,8,,,,,,,,,,,AMSA18.jpg,AMNE04.jpg,AMSA19.jpg,AMNE17.jpg,AMNE17.jpg,MN,1,num_4,16,num_4,0.81663993292,,,2017_Oct_10_1801,60.0034064452,FEMA4ImagesEEG,001,201867,
,,,,,,,,,,,,,,,,,,,,,,,,,,,,,,,,,,,,,,,,,,,space,5.73304960667,2017_Oct_10_1801,60.0034064452,FEMA4ImagesEEG,001,201867,
AFNE01.JPG,AFNE01.JPG,AFNE01.JPG,AFNE01.JPG,AFNE01.JPG,AFNE01.JPG,,,,,,,,,,,,,,,,,0,0,0,0,,,,,,,AFNE11.jpg,AFSA19.jpg,AFNE07.jpg,AFSA16.jpg,AFNE07.jpg,FN,3,num_2,32,num_8,0.866774178809,,,2017_Oct_10_1801,60.0034064452,FEMA4ImagesEEG,001,201867,
AFNE01.JPG,AFNE01.JPG,AFNE01.JPG,AFNE01.JPG,AFNE01.JPG,AFNE01.JPG,,,,,,,,,,,,,,,,,0,1,1,8,,,,,,,AFSA05.jpg,AFSA10.jpg,AFNE04.jpg,AFNE11.jpg,AFSA05.jpg,FS,4,num_8,32,num_4,0.933474330697,,,2017_Oct_10_1801,60.0034064452,FEMA4ImagesEEG,001,201867,
AFNE01.JPG,AFNE01.JPG,AFNE01.JPG,AFNE01.JPG,AFNE01.JPG,AFNE01.JPG,,,,,,,,,,,,,,,,,0,2,2,5,,,,,,,AFSA06.jpg,AFNE07.jpg,AFNE17.jpg,AFSA08.jpg,AFNE17.jpg,FN,3,num_2,16,num_2,0.950098290807,,,2017_Oct_10_1801,60.0034064452,FEMA4ImagesEEG,001,201867,
AFNE01.JPG,AFNE01.JPG,AFNE01.JPG,AFNE01.JPG,AFNE01.JPG,AFNE01.JPG,,,,,,,,,,,,,,,,,0,3,3,7,,,,,,,AFSA16.jpg,AFSA09.jpg,AFNE06.jpg,AFNE15.jpg,AFSA09.jpg,FS,4,num_6,32,num_2,0.733544829302,,,2017_Oct_10_1801,60.0034064452,FEMA4ImagesEEG,001,201867,
AFNE01.JPG,AFNE01.JPG,AFNE01.JPG,AFNE01.JPG,AFNE01.JPG,AFNE01.JPG,,,,,,,,,,,,,,,,,0,4,4,9,,,,,,,AFSA20.jpg,AFNE09.jpg,AFSA01.jpg,AFNE12.jpg,AFSA20.jpg,FS,4,num_8,16,num_8,1.01690589066,,,2017_Oct_10_1801,60.0034064452,FEMA4ImagesEEG,001,201867,
AFNE01.JPG,AFNE01.JPG,AFNE01.JPG,AFNE01.JPG,AFNE01.JPG,AFNE01.JPG,,,,,,,,,,,,,,,,,0,5,5,1,,,,,,,AFNE03.jpg,AFNE10.jpg,AFSA04.jpg,AFSA15.jpg,AFNE10.jpg,FN,3,num_6,32,num_8,1.05015862209,,,2017_Oct_10_1801,60.0034064452,FEMA4ImagesEEG,001,201867,
AFNE01.JPG,AFNE01.JPG,AFNE01.JPG,AFNE01.JPG,AFNE01.JPG,AFNE01.JPG,,,,,,,,,,,,,,,,,0,6,6,3,,,,,,,AFNE13.jpg,AFNE20.jpg,AFSA05.jpg,AFSA06.jpg,AFSA06.jpg,FS,4,num_4,32,num_2,2.33329933486,,,2017_Oct_10_1801,60.0034064452,FEMA4ImagesEEG,001,201867,
AFNE01.JPG,AFNE01.JPG,AFNE01.JPG,AFNE01.JPG,AFNE01.JPG,AFNE01.JPG,,,,,,,,,,,,,,,,,0,7,7,6,,,,,,,AFNE02.jpg,AFSA20.jpg,AFNE04.jpg,AFSA04.jpg,AFSA04.jpg,FS,4,num_4,16,num_4,1.15013299487,,,2017_Oct_10_1801,60.0034064452,FEMA4ImagesEEG,001,201867,
AFNE01.JPG,AFNE01.JPG,AFNE01.JPG,AFNE01.JPG,AFNE01.JPG,AFNE01.JPG,,,,,,,,,,,,,,,,,0,8,8,4,,,,,,,AFSA12.jpg,AFNE08.jpg,AFNE03.jpg,AFSA03.jpg,AFNE03.jpg,FN,3,num_2,16,num_2,1.01675193547,,,2017_Oct_10_1801,60.0034064452,FEMA4ImagesEEG,001,201867,
AFNE01.JPG,AFNE01.JPG,AFNE01.JPG,AFNE01.JPG,AFNE01.JPG,AFNE01.JPG,,,,,,,,,,,,,,,,,0,9,9,2,,,,,,,AFNE09.jpg,AFSA13.jpg,AFNE07.jpg,AFSA10.jpg,AFNE07.jpg,FN,3,num_2,16,num_2,0.750174562796,,,2017_Oct_10_1801,60.0034064452,FEMA4ImagesEEG,001,201867,
AFNE01.JPG,AFNE01.JPG,AFNE01.JPG,AFNE01.JPG,AFNE01.JPG,AFNE01.JPG,,,,,,,,,,,,,,,,,1,0,10,3,,,,,,,AFSA01.jpg,AFSA13.jpg,AFNE02.jpg,AFNE12.jpg,AFNE02.jpg,FN,3,num_2,16,num_2,0.700011129607,,,2017_Oct_10_1801,60.0034064452,FEMA4ImagesEEG,001,201867,
AFNE01.JPG,AFNE01.JPG,AFNE01.JPG,AFNE01.JPG,AFNE01.JPG,AFNE01.JPG,,,,,,,,,,,,,,,,,1,1,11,0,,,,,,,AFSA16.jpg,AFNE16.jpg,AFNE03.jpg,AFSA07.jpg,AFSA07.jpg,FS,4,num_4,16,num_4,0.816767908284,,,2017_Oct_10_1801,60.0034064452,FEMA4ImagesEEG,001,201867,
AFNE01.JPG,AFNE01.JPG,AFNE01.JPG,AFNE01.JPG,AFNE01.JPG,AFNE01.JPG,,,,,,,,,,,,,,,,,1,2,12,4,,,,,,,AFSA05.jpg,AFSA01.jpg,AFNE09.jpg,AFNE05.jpg,AFSA05.jpg,FS,4,num_8,16,num_8,0.900168035761,,,2017_Oct_10_1801,60.0034064452,FEMA4ImagesEEG,001,201867,
AFNE01.JPG,AFNE01.JPG,AFNE01.JPG,AFNE01.JPG,AFNE01.JPG,AFNE01.JPG,,,,,,,,,,,,,,,,,1,3,13,5,,,,,,,AFNE09.jpg,AFSA14.jpg,AFSA05.jpg,AFNE06.jpg,AFSA14.jpg,FS,4,num_6,32,num_8,1.08345080446,,,2017_Oct_10_1801,60.0034064452,FEMA4ImagesEEG,001,201867,
AFNE01.JPG,AFNE01.JPG,AFNE01.JPG,AFNE01.JPG,AFNE01.JPG,AFNE01.JPG,,,,,,,,,,,,,,,,,1,4,14,2,,,,,,,AFNE20.jpg,AFSA18.jpg,AFSA10.jpg,AFNE18.jpg,AFNE18.jpg,FN,3,num_4,32,num_8,1.06677584653,,,2017_Oct_10_1801,60.0034064452,FEMA4ImagesEEG,001,201867,
AFNE01.JPG,AFNE01.JPG,AFNE01.JPG,AFNE01.JPG,AFNE01.JPG,AFNE01.JPG,,,,,,,,,,,,,,,,,1,5,15,9,,,,,,,AFSA18.jpg,AFNE18.jpg,AFNE10.jpg,AFSA09.jpg,AFSA09.jpg,FS,4,num_4,32,num_2,0.900113189244,,,2017_Oct_10_1801,60.0034064452,FEMA4ImagesEEG,001,201867,
AFNE01.JPG,AFNE01.JPG,AFNE01.JPG,AFNE01.JPG,AFNE01.JPG,AFNE01.JPG,,,,,,,,,,,,,,,,,1,6,16,1,,,,,,,AFSA19.jpg,AFSA17.jpg,AFNE06.jpg,AFNE20.jpg,AFSA17.jpg,FS,4,num_6,16,num_6,1.0334390814,,,2017_Oct_10_1801,60.0034064452,FEMA4ImagesEEG,001,201867,
AFNE01.JPG,AFNE01.JPG,AFNE01.JPG,AFNE01.JPG,AFNE01.JPG,AFNE01.JPG,,,,,,,,,,,,,,,,,1,7,17,8,,,,,,,AFNE18.jpg,AFSA20.jpg,AFSA14.jpg,AFNE09.jpg,AFNE09.jpg,FN,3,num_4,16,num_4,0.983502090792,,,2017_Oct_10_1801,60.0034064452,FEMA4ImagesEEG,001,201867,
AFNE01.JPG,AFNE01.JPG,AFNE01.JPG,AFNE01.JPG,AFNE01.JPG,AFNE01.JPG,,,,,,,,,,,,,,,,,1,8,18,6,,,,,,,AFNE15.jpg,AFSA04.jpg,AFSA01.jpg,AFNE03.jpg,AFSA01.jpg,FS,4,num_2,16,num_2,0.916851974209,,,2017_Oct_10_1801,60.0034064452,FEMA4ImagesEEG,001,201867,
AFNE01.JPG,AFNE01.JPG,AFNE01.JPG,AFNE01.JPG,AFNE01.JPG,AFNE01.JPG,,,,,,,,,,,,,,,,,1,9,19,7,,,,,,,AFNE16.jpg,AFSA04.jpg,AFSA15.jpg,AFNE19.jpg,AFNE16.jpg,FN,3,num_8,32,num_6,0.850154708955,,,2017_Oct_10_1801,60.0034064452,FEMA4ImagesEEG,001,201867,
AFNE01.JPG,AFNE01.JPG,AFNE01.JPG,AFNE01.JPG,AFNE01.JPG,AFNE01.JPG,,,,,,,,,,,,,,,,,2,0,20,6,,,,,,,AFSA03.jpg,AFNE01.jpg,AFNE08.jpg,AFSA18.jpg,AFNE01.jpg,FN,3,num_6,32,num_2,1.05010441702,,,2017_Oct_10_1801,60.0034064452,FEMA4ImagesEEG,001,201867,
AFNE01.JPG,AFNE01.JPG,AFNE01.JPG,AFNE01.JPG,AFNE01.JPG,AFNE01.JPG,,,,,,,,,,,,,,,,,2,1,21,3,,,,,,,AFNE18.jpg,AFSA18.jpg,AFNE03.jpg,AFSA05.jpg,AFSA18.jpg,FS,4,num_6,16,num_6,0.783473480726,,,2017_Oct_10_1801,60.0034064452,FEMA4ImagesEEG,001,201867,
AFNE01.JPG,AFNE01.JPG,AFNE01.JPG,AFNE01.JPG,AFNE01.JPG,AFNE01.JPG,,,,,,,,,,,,,,,,,2,2,22,4,,,,,,,AFNE06.jpg,AFNE16.jpg,AFSA05.jpg,AFSA01.jpg,AFNE16.jpg,FN,3,num_6,16,num_6,0.916798410704,,,2017_Oct_10_1801,60.0034064452,FEMA4ImagesEEG,001,201867,
AFNE01.JPG,AFNE01.JPG,AFNE01.JPG,AFNE01.JPG,AFNE01.JPG,AFNE01.JPG,,,,,,,,,,,,,,,,,2,3,23,2,,,,,,,AFSA06.jpg,AFNE07.jpg,AFSA02.jpg,AFNE10.jpg,AFNE07.jpg,FN,3,num_6,16,num_6,0.716782951029,,,2017_Oct_10_1801,60.0034064452,FEMA4ImagesEEG,001,201867,
AFNE01.JPG,AFNE01.JPG,AFNE01.JPG,AFNE01.JPG,AFNE01.JPG,AFNE01.JPG,,,,,,,,,,,,,,,,,2,4,24,0,,,,,,,AFSA02.jpg,AFNE18.jpg,AFSA09.jpg,AFNE09.jpg,AFSA02.jpg,FS,4,num_8,32,num_2,0.883542792639,,,2017_Oct_10_1801,60.0034064452,FEMA4ImagesEEG,001,201867,
AFNE01.JPG,AFNE01.JPG,AFNE01.JPG,AFNE01.JPG,AFNE01.JPG,AFNE01.JPG,,,,,,,,,,,,,,,,,2,5,25,8,,,,,,,AFSA12.jpg,AFSA09.jpg,AFNE04.jpg,AFNE03.jpg,AFNE03.jpg,FN,3,num_4,16,num_4,0.983407793101,,,2017_Oct_10_1801,60.0034064452,FEMA4ImagesEEG,001,201867,
AFNE01.JPG,AFNE01.JPG,AFNE01.JPG,AFNE01.JPG,AFNE01.JPG,AFNE01.JPG,,,,,,,,,,,,,,,,,2,6,26,9,,,,,,,AFSA08.jpg,AFNE20.jpg,AFNE09.jpg,AFSA20.jpg,AFSA20.jpg,FS,4,num_4,32,num_2,1.20011841715,,,2017_Oct_10_1801,60.0034064452,FEMA4ImagesEEG,001,201867,
AFNE01.JPG,AFNE01.JPG,AFNE01.JPG,AFNE01.JPG,AFNE01.JPG,AFNE01.JPG,,,,,,,,,,,,,,,,,2,7,27,1,,,,,,,AFSA07.jpg,AFNE09.jpg,AFSA04.jpg,AFNE07.jpg,AFNE07.jpg,FN,3,num_4,32,num_8,0.766754902317,,,2017_Oct_10_1801,60.0034064452,FEMA4ImagesEEG,001,201867,
AFNE01.JPG,AFNE01.JPG,AFNE01.JPG,AFNE01.JPG,AFNE01.JPG,AFNE01.JPG,,,,,,,,,,,,,,,,,2,8,28,5,,,,,,,AFNE18.jpg,AFNE12.jpg,AFSA19.jpg,AFSA15.jpg,AFNE12.jpg,FN,3,num_6,16,num_6,1.00012316427,,,2017_Oct_10_1801,60.0034064452,FEMA4ImagesEEG,001,201867,
AFNE01.JPG,AFNE01.JPG,AFNE01.JPG,AFNE01.JPG,AFNE01.JPG,AFNE01.JPG,,,,,,,,,,,,,,,,,2,9,29,7,,,,,,,AFNE08.jpg,AFSA09.jpg,AFSA12.jpg,AFNE17.jpg,AFNE08.jpg,FN,3,num_8,16,num_8,0.966781267081,,,2017_Oct_10_1801,60.0034064452,FEMA4ImagesEEG,001,201867,
AFNE01.JPG,AFNE01.JPG,AFNE01.JPG,AFNE01.JPG,AFNE01.JPG,AFNE01.JPG,,,,,,,,,,,,,,,,,3,0,30,3,,,,,,,AFNE02.jpg,AFNE11.jpg,AFSA17.jpg,AFSA18.jpg,AFNE11.jpg,FN,3,num_6,16,num_6,0.866782197263,,,2017_Oct_10_1801,60.0034064452,FEMA4ImagesEEG,001,201867,
AFNE01.JPG,AFNE01.JPG,AFNE01.JPG,AFNE01.JPG,AFNE01.JPG,AFNE01.JPG,,,,,,,,,,,,,,,,,3,1,31,9,,,,,,,AFSA06.jpg,AFSA19.jpg,AFNE15.jpg,AFNE09.jpg,AFNE15.jpg,FN,3,num_2,16,num_2,0.666791113908,,,2017_Oct_10_1801,60.0034064452,FEMA4ImagesEEG,001,201867,
AFNE01.JPG,AFNE01.JPG,AFNE01.JPG,AFNE01.JPG,AFNE01.JPG,AFNE01.JPG,,,,,,,,,,,,,,,,,3,2,32,4,,,,,,,AFNE08.jpg,AFSA06.jpg,AFSA08.jpg,AFNE16.jpg,AFSA06.jpg,FS,4,num_6,32,num_8,1.13343045337,,,2017_Oct_10_1801,60.0034064452,FEMA4ImagesEEG,001,201867,
AFNE01.JPG,AFNE01.JPG,AFNE01.JPG,AFNE01.JPG,AFNE01.JPG,AFNE01.JPG,,,,,,,,,,,,,,,,,3,3,33,8,,,,,,,AFSA09.jpg,AFSA17.jpg,AFNE08.jpg,AFNE09.jpg,AFSA17.jpg,FS,4,num_6,16,num_6,0.900131150614,,,2017_Oct_10_1801,60.0034064452,FEMA4ImagesEEG,001,201867,
AFNE01.JPG,AFNE01.JPG,AFNE01.JPG,AFNE01.JPG,AFNE01.JPG,AFNE01.JPG,,,,,,,,,,,,,,,,,3,4,34,0,,,,,,,AFSA20.jpg,AFNE10.jpg,AFNE13.jpg,AFSA12.jpg,AFNE13.jpg,FN,3,num_2,16,num_2,2.16665431811,,,2017_Oct_10_1801,60.0034064452,FEMA4ImagesEEG,001,201867,
AFNE01.JPG,AFNE01.JPG,AFNE01.JPG,AFNE01.JPG,AFNE01.JPG,AFNE01.JPG,,,,,,,,,,,,,,,,,3,5,35,2,,,,,,,AFSA14.jpg,AFNE04.jpg,AFNE01.jpg,AFSA12.jpg,AFNE04.jpg,FN,3,num_6,32,num_8,1.23346544616,,,2017_Oct_10_1801,60.0034064452,FEMA4ImagesEEG,001,201867,
AFNE01.JPG,AFNE01.JPG,AFNE01.JPG,AFNE01.JPG,AFNE01.JPG,AFNE01.JPG,,,,,,,,,,,,,,,,,3,6,36,1,,,,,,,AFNE20.jpg,AFSA19.jpg,AFSA06.jpg,AFNE07.jpg,AFNE07.jpg,FN,3,num_4,32,num_8,0.983462639735,,,2017_Oct_10_1801,60.0034064452,FEMA4ImagesEEG,001,201867,
AFNE01.JPG,AFNE01.JPG,AFNE01.JPG,AFNE01.JPG,AFNE01.JPG,AFNE01.JPG,,,,,,,,,,,,,,,,,3,7,37,5,,,,,,,AFNE20.jpg,AFSA04.jpg,AFSA19.jpg,AFNE01.jpg,AFNE20.jpg,FN,3,num_8,32,num_2,1.06680535467,,,2017_Oct_10_1801,60.0034064452,FEMA4ImagesEEG,001,201867,
AFNE01.JPG,AFNE01.JPG,AFNE01.JPG,AFNE01.JPG,AFNE01.JPG,AFNE01.JPG,,,,,,,,,,,,,,,,,3,8,38,6,,,,,,,AFSA06.jpg,AFSA08.jpg,AFNE01.jpg,AFNE09.jpg,AFSA06.jpg,FS,4,num_8,32,num_2,0.983457507915,,,2017_Oct_10_1801,60.0034064452,FEMA4ImagesEEG,001,201867,
AFNE01.JPG,AFNE01.JPG,AFNE01.JPG,AFNE01.JPG,AFNE01.JPG,AFNE01.JPG,,,,,,,,,,,,,,,,,3,9,39,7,,,,,,,AFNE13.jpg,AFSA07.jpg,AFSA16.jpg,AFNE06.jpg,AFSA07.jpg,FS,4,num_6,16,num_6,0.650124174426,,,2017_Oct_10_1801,60.0034064452,FEMA4ImagesEEG,001,201867,
AFNE01.JPG,AFNE01.JPG,AFNE01.JPG,AFNE01.JPG,AFNE01.JPG,AFNE01.JPG,,,,,,,,,,,,,,,,,4,0,40,6,,,,,,,AFNE06.jpg,AFNE09.jpg,AFSA15.jpg,AFSA06.jpg,AFSA15.jpg,FS,4,num_2,16,num_2,1.1667742749,,,2017_Oct_10_1801,60.0034064452,FEMA4ImagesEEG,001,201867,
AFNE01.JPG,AFNE01.JPG,AFNE01.JPG,AFNE01.JPG,AFNE01.JPG,AFNE01.JPG,,,,,,,,,,,,,,,,,4,1,41,9,,,,,,,AFSA03.jpg,AFSA09.jpg,AFNE12.jpg,AFNE19.jpg,AFNE19.jpg,FN,3,num_4,16,num_4,1.30035098596,,,2017_Oct_10_1801,60.0034064452,FEMA4ImagesEEG,001,201867,
AFNE01.JPG,AFNE01.JPG,AFNE01.JPG,AFNE01.JPG,AFNE01.JPG,AFNE01.JPG,,,,,,,,,,,,,,,,,4,2,42,1,,,,,,,AFNE06.jpg,AFSA04.jpg,AFNE08.jpg,AFSA14.jpg,AFNE06.jpg,FN,3,num_8,32,num_2,0.733449890278,,,2017_Oct_10_1801,60.0034064452,FEMA4ImagesEEG,001,201867,
AFNE01.JPG,AFNE01.JPG,AFNE01.JPG,AFNE01.JPG,AFNE01.JPG,AFNE01.JPG,,,,,,,,,,,,,,,,,4,3,43,7,,,,,,,AFSA01.jpg,AFNE11.jpg,AFNE08.jpg,AFSA09.jpg,AFNE08.jpg,FN,3,num_2,16,num_2,1.1835239653,,,2017_Oct_10_1801,60.0034064452,FEMA4ImagesEEG,001,201867,
AFNE01.JPG,AFNE01.JPG,AFNE01.JPG,AFNE01.JPG,AFNE01.JPG,AFNE01.JPG,,,,,,,,,,,,,,,,,4,4,44,3,,,,,,,AFSA05.jpg,AFNE14.jpg,AFNE03.jpg,AFSA07.jpg,AFNE03.jpg,FN,3,num_2,16,num_2,1.10000388103,,,2017_Oct_10_1801,60.0034064452,FEMA4ImagesEEG,001,201867,
AFNE01.JPG,AFNE01.JPG,AFNE01.JPG,AFNE01.JPG,AFNE01.JPG,AFNE01.JPG,,,,,,,,,,,,,,,,,4,5,45,4,,,,,,,AFSA11.jpg,AFNE11.jpg,AFSA01.jpg,AFNE17.jpg,AFSA01.jpg,FS,4,num_2,16,num_2,1.08354638494,,,2017_Oct_10_1801,60.0034064452,FEMA4ImagesEEG,001,201867,
AFNE01.JPG,AFNE01.JPG,AFNE01.JPG,AFNE01.JPG,AFNE01.JPG,AFNE01.JPG,,,,,,,,,,,,,,,,,4,6,46,5,,,,,,,AFSA11.jpg,AFNE11.jpg,AFSA12.jpg,AFNE16.jpg,AFNE16.jpg,FN,3,num_4,16,num_4,0.800109308213,,,2017_Oct_10_1801,60.0034064452,FEMA4ImagesEEG,001,201867,
AFNE01.JPG,AFNE01.JPG,AFNE01.JPG,AFNE01.JPG,AFNE01.JPG,AFNE01.JPG,,,,,,,,,,,,,,,,,4,7,47,0,,,,,,,AFSA20.jpg,AFNE04.jpg,AFNE13.jpg,AFSA09.jpg,AFSA20.jpg,FS,4,num_8,32,num_6,0.983447244274,,,2017_Oct_10_1801,60.0034064452,FEMA4ImagesEEG,001,201867,
AFNE01.JPG,AFNE01.JPG,AFNE01.JPG,AFNE01.JPG,AFNE01.JPG,AFNE01.JPG,,,,,,,,,,,,,,,,,4,8,48,8,,,,,,,AFSA03.jpg,AFNE02.jpg,AFSA09.jpg,AFNE13.jpg,AFSA03.jpg,FS,4,num_8,16,num_8,1.11678179633,,,2017_Oct_10_1801,60.0034064452,FEMA4ImagesEEG,001,201867,
AFNE01.JPG,AFNE01.JPG,AFNE01.JPG,AFNE01.JPG,AFNE01.JPG,AFNE01.JPG,,,,,,,,,,,,,,,,,4,9,49,2,,,,,,,AFSA16.jpg,AFNE07.jpg,AFSA17.jpg,AFNE14.jpg,AFNE14.jpg,FN,3,num_4,32,num_8,3.1830184788,,,2017_Oct_10_1801,60.0034064452,FEMA4ImagesEEG,001,201867,
AFNE01.JPG,AFNE01.JPG,AFNE01.JPG,AFNE01.JPG,AFNE01.JPG,AFNE01.JPG,,,,,,,,,,,,,,,,,5,0,50,8,,,,,,,AFSA15.jpg,AFNE11.jpg,AFSA06.jpg,AFNE13.jpg,AFSA15.jpg,FS,4,num_8,16,num_8,1.00008563767,,,2017_Oct_10_1801,60.0034064452,FEMA4ImagesEEG,001,201867,
AFNE01.JPG,AFNE01.JPG,AFNE01.JPG,AFNE01.JPG,AFNE01.JPG,AFNE01.JPG,,,,,,,,,,,,,,,,,5,1,51,3,,,,,,,AFNE19.jpg,AFSA17.jpg,AFSA14.jpg,AFNE11.jpg,AFNE11.jpg,FN,3,num_4,16,num_4,0.833463072777,,,2017_Oct_10_1801,60.0034064452,FEMA4ImagesEEG,001,201867,
AFNE01.JPG,AFNE01.JPG,AFNE01.JPG,AFNE01.JPG,AFNE01.JPG,AFNE01.JPG,,,,,,,,,,,,,,,,,5,2,52,4,,,,,,,AFSA06.jpg,AFNE04.jpg,AFNE05.jpg,AFSA14.jpg,AFSA06.jpg,FS,4,num_8,32,num_6,0.850156633416,,,2017_Oct_10_1801,60.0034064452,FEMA4ImagesEEG,001,201867,
AFNE01.JPG,AFNE01.JPG,AFNE01.JPG,AFNE01.JPG,AFNE01.JPG,AFNE01.JPG,,,,,,,,,,,,,,,,,5,3,53,5,,,,,,,AFNE03.jpg,AFSA19.jpg,AFNE18.jpg,AFSA12.jpg,AFNE18.jpg,FN,3,num_2,32,num_8,0.916760884109,,,2017_Oct_10_1801,60.0034064452,FEMA4ImagesEEG,001,201867,
AFNE01.JPG,AFNE01.JPG,AFNE01.JPG,AFNE01.JPG,AFNE01.JPG,AFNE01.JPG,,,,,,,,,,,,,,,,,5,4,54,0,,,,,,,AFNE20.jpg,AFNE12.jpg,AFSA07.jpg,AFSA16.jpg,AFSA07.jpg,FS,4,num_2,32,num_6,0.816820188891,,,2017_Oct_10_1801,60.0034064452,FEMA4ImagesEEG,001,201867,
AFNE01.JPG,AFNE01.JPG,AFNE01.JPG,AFNE01.JPG,AFNE01.JPG,AFNE01.JPG,,,,,,,,,,,,,,,,,5,5,55,2,,,,,,,AFSA17.jpg,AFNE14.jpg,AFSA04.jpg,AFNE03.jpg,AFSA04.jpg,FS,4,num_2,16,num_2,1.2500788219,,,2017_Oct_10_1801,60.0034064452,FEMA4ImagesEEG,001,201867,
AFNE01.JPG,AFNE01.JPG,AFNE01.JPG,AFNE01.JPG,AFNE01.JPG,AFNE01.JPG,,,,,,,,,,,,,,,,,5,6,56,9,,,,,,,AFNE10.jpg,AFSA17.jpg,AFNE07.jpg,AFSA06.jpg,AFSA17.jpg,FS,4,num_6,32,num_4,1.00008788274,,,2017_Oct_10_1801,60.0034064452,FEMA4ImagesEEG,001,201867,
AFNE01.JPG,AFNE01.JPG,AFNE01.JPG,AFNE01.JPG,AFNE01.JPG,AFNE01.JPG,,,,,,,,,,,,,,,,,5,7,57,6,,,,,,,AFSA09.jpg,AFNE16.jpg,AFSA03.jpg,AFNE03.jpg,AFNE03.jpg,FN,3,num_4,16,num_4,0.733469134662,,,2017_Oct_10_1801,60.0034064452,FEMA4ImagesEEG,001,201867,
AFNE01.JPG,AFNE01.JPG,AFNE01.JPG,AFNE01.JPG,AFNE01.JPG,AFNE01.JPG,,,,,,,,,,,,,,,,,5,8,58,1,,,,,,,AFNE10.jpg,AFSA02.jpg,AFSA12.jpg,AFNE15.jpg,AFSA12.jpg,FS,4,num_2,32,num_8,0.916825673543,,,2017_Oct_10_1801,60.0034064452,FEMA4ImagesEEG,001,201867,
AFNE01.JPG,AFNE01.JPG,AFNE01.JPG,AFNE01.JPG,AFNE01.JPG,AFNE01.JPG,,,,,,,,,,,,,,,,,5,9,59,7,,,,,,,AFSA03.jpg,AFNE07.jpg,AFSA04.jpg,AFNE17.jpg,AFSA04.jpg,FS,4,num_2,16,num_2,1.13351192139,,,2017_Oct_10_1801,60.0034064452,FEMA4ImagesEEG,001,201867,
,,,,,,,,,,,,,,,,,,,,,,,,,,,,,,,,,,,,,,,,,,,space,15.3820492664,2017_Oct_10_1801,60.0034064452,FEMA4ImagesEEG,001,201867,
AFNE01.JPG,AFNE01.JPG,AFNE01.JPG,AFNE01.JPG,AFNE01.JPG,AFNE01.JPG,,,,,,,,,,,,,,,,,,,,,0,0,0,8,,,AMNE08.jpg,AMNE07.jpg,AMSA11.jpg,AMSA05.jpg,AMSA05.jpg,MS,2,num_4,32,num_2,0.683464788715,,,2017_Oct_10_1801,60.0034064452,FEMA4ImagesEEG,001,201867,
AFNE01.JPG,AFNE01.JPG,AFNE01.JPG,AFNE01.JPG,AFNE01.JPG,AFNE01.JPG,,,,,,,,,,,,,,,,,,,,,0,1,1,5,,,AMSA11.jpg,AMNE09.jpg,AMNE15.jpg,AMSA03.jpg,AMNE15.jpg,MN,1,num_2,32,num_6,0.800142023712,,,2017_Oct_10_1801,60.0034064452,FEMA4ImagesEEG,001,201867,
AFNE01.JPG,AFNE01.JPG,AFNE01.JPG,AFNE01.JPG,AFNE01.JPG,AFNE01.JPG,,,,,,,,,,,,,,,,,,,,,0,2,2,4,,,AMSA18.jpg,AMSA07.jpg,AMNE12.jpg,AMNE11.jpg,AMNE11.jpg,MN,1,num_4,16,num_4,0.733479398303,,,2017_Oct_10_1801,60.0034064452,FEMA4ImagesEEG,001,201867,
AFNE01.JPG,AFNE01.JPG,AFNE01.JPG,AFNE01.JPG,AFNE01.JPG,AFNE01.JPG,,,,,,,,,,,,,,,,,,,,,0,3,3,1,,,AMNE13.jpg,AMSA15.jpg,AMSA19.jpg,AMNE02.jpg,AMNE13.jpg,MN,1,num_8,16,num_8,0.850139634218,,,2017_Oct_10_1801,60.0034064452,FEMA4ImagesEEG,001,201867,
AFNE01.JPG,AFNE01.JPG,AFNE01.JPG,AFNE01.JPG,AFNE01.JPG,AFNE01.JPG,,,,,,,,,,,,,,,,,,,,,0,4,4,9,,,AMNE15.jpg,AMSA17.jpg,AMSA18.jpg,AMNE20.jpg,AMSA17.jpg,MS,2,num_6,16,num_6,0.700160273933,,,2017_Oct_10_1801,60.0034064452,FEMA4ImagesEEG,001,201867,
AFNE01.JPG,AFNE01.JPG,AFNE01.JPG,AFNE01.JPG,AFNE01.JPG,AFNE01.JPG,,,,,,,,,,,,,,,,,,,,,0,5,5,3,,,AMNE14.jpg,AMSA02.jpg,AMSA10.jpg,AMNE19.jpg,AMSA02.jpg,MS,2,num_6,16,num_6,0.833453129744,,,2017_Oct_10_1801,60.0034064452,FEMA4ImagesEEG,001,201867,
AFNE01.JPG,AFNE01.JPG,AFNE01.JPG,AFNE01.JPG,AFNE01.JPG,AFNE01.JPG,,,,,,,,,,,,,,,,,,,,,0,6,6,7,,,AMSA06.jpg,AMNE15.jpg,AMNE19.jpg,AMSA15.jpg,AMSA06.jpg,MS,2,num_8,16,num_8,1.50004538475,,,2017_Oct_10_1801,60.0034064452,FEMA4ImagesEEG,001,201867,
AFNE01.JPG,AFNE01.JPG,AFNE01.JPG,AFNE01.JPG,AFNE01.JPG,AFNE01.JPG,,,,,,,,,,,,,,,,,,,,,0,7,7,2,,,AMNE09.jpg,AMNE18.jpg,AMSA16.jpg,AMSA08.jpg,AMNE09.jpg,MN,1,num_8,32,num_6,0.816658535856,,,2017_Oct_10_1801,60.0034064452,FEMA4ImagesEEG,001,201867,
AFNE01.JPG,AFNE01.JPG,AFNE01.JPG,AFNE01.JPG,AFNE01.JPG,AFNE01.JPG,,,,,,,,,,,,,,,,,,,,,0,8,8,0,,,AMSA18.jpg,AMNE18.jpg,AMNE05.jpg,AMSA17.jpg,AMSA17.jpg,MS,2,num_4,16,num_4,0.916546629742,,,2017_Oct_10_1801,60.0034064452,FEMA4ImagesEEG,001,201867,
AFNE01.JPG,AFNE01.JPG,AFNE01.JPG,AFNE01.JPG,AFNE01.JPG,AFNE01.JPG,,,,,,,,,,,,,,,,,,,,,0,9,9,6,,,AMSA06.jpg,AMSA01.jpg,AMNE19.jpg,AMNE16.jpg,AMSA06.jpg,MS,2,num_8,32,num_2,2.10004204907,,,2017_Oct_10_1801,60.0034064452,FEMA4ImagesEEG,001,201867,
AFNE01.JPG,AFNE01.JPG,AFNE01.JPG,AFNE01.JPG,AFNE01.JPG,AFNE01.JPG,,,,,,,,,,,,,,,,,,,,,1,0,10,4,,,AMNE11.jpg,AMNE20.jpg,AMSA05.jpg,AMSA18.jpg,AMSA18.jpg,MS,2,num_4,16,num_4,0.833529465832,,,2017_Oct_10_1801,60.0034064452,FEMA4ImagesEEG,001,201867,
AFNE01.JPG,AFNE01.JPG,AFNE01.JPG,AFNE01.JPG,AFNE01.JPG,AFNE01.JPG,,,,,,,,,,,,,,,,,,,,,1,1,11,6,,,AMSA02.jpg,AMSA12.jpg,AMNE20.jpg,AMNE06.jpg,AMNE20.jpg,MN,1,num_2,16,num_2,1.16696415318,,,2017_Oct_10_1801,60.0034064452,FEMA4ImagesEEG,001,201867,
AFNE01.JPG,AFNE01.JPG,AFNE01.JPG,AFNE01.JPG,AFNE01.JPG,AFNE01.JPG,,,,,,,,,,,,,,,,,,,,,1,2,12,1,,,AMNE19.jpg,AMSA07.jpg,AMNE05.jpg,AMSA02.jpg,AMNE05.jpg,MN,1,num_2,32,num_8,1.19998242345,,,2017_Oct_10_1801,60.0034064452,FEMA4ImagesEEG,001,201867,
AFNE01.JPG,AFNE01.JPG,AFNE01.JPG,AFNE01.JPG,AFNE01.JPG,AFNE01.JPG,,,,,,,,,,,,,,,,,,,,,1,3,13,2,,,AMSA20.jpg,AMNE02.jpg,AMNE09.jpg,AMSA03.jpg,AMSA03.jpg,MS,2,num_4,16,num_4,0.966754966415,,,2017_Oct_10_1801,60.0034064452,FEMA4ImagesEEG,001,201867,
AFNE01.JPG,AFNE01.JPG,AFNE01.JPG,AFNE01.JPG,AFNE01.JPG,AFNE01.JPG,,,,,,,,,,,,,,,,,,,,,1,4,14,0,,,AMNE20.jpg,AMSA09.jpg,AMSA12.jpg,AMNE15.jpg,AMSA09.jpg,MS,2,num_6,32,num_2,0.88345330616,,,2017_Oct_10_1801,60.0034064452,FEMA4ImagesEEG,001,201867,
AFNE01.JPG,AFNE01.JPG,AFNE01.JPG,AFNE01.JPG,AFNE01.JPG,AFNE01.JPG,,,,,,,,,,,,,,,,,,,,,1,5,15,8,,,AMSA17.jpg,AMNE03.jpg,AMSA18.jpg,AMNE18.jpg,AMSA17.jpg,MS,2,num_8,16,num_8,0.950114007108,,,2017_Oct_10_1801,60.0034064452,FEMA4ImagesEEG,001,201867,
AFNE01.JPG,AFNE01.JPG,AFNE01.JPG,AFNE01.JPG,AFNE01.JPG,AFNE01.JPG,,,,,,,,,,,,,,,,,,,,,1,6,16,3,,,AMSA05.jpg,AMSA08.jpg,AMNE06.jpg,AMNE09.jpg,AMNE06.jpg,MN,1,num_2,16,num_2,1.00009558059,,,2017_Oct_10_1801,60.0034064452,FEMA4ImagesEEG,001,201867,
AFNE01.JPG,AFNE01.JPG,AFNE01.JPG,AFNE01.JPG,AFNE01.JPG,AFNE01.JPG,,,,,,,,,,,,,,,,,,,,,1,7,17,5,,,AMSA08.jpg,AMSA03.jpg,AMNE19.jpg,AMNE02.jpg,AMNE02.jpg,MN,1,num_4,32,num_8,1.91670828266,,,2017_Oct_10_1801,60.0034064452,FEMA4ImagesEEG,001,201867,
AFNE01.JPG,AFNE01.JPG,AFNE01.JPG,AFNE01.JPG,AFNE01.JPG,AFNE01.JPG,,,,,,,,,,,,,,,,,,,,,1,8,18,9,,,AMNE06.jpg,AMSA01.jpg,AMNE08.jpg,AMSA19.jpg,AMNE08.jpg,MN,1,num_2,32,num_6,1.13331498706,,,2017_Oct_10_1801,60.0034064452,FEMA4ImagesEEG,001,201867,
AFNE01.JPG,AFNE01.JPG,AFNE01.JPG,AFNE01.JPG,AFNE01.JPG,AFNE01.JPG,,,,,,,,,,,,,,,,,,,,,1,9,19,7,,,AMSA07.jpg,AMNE09.jpg,AMNE03.jpg,AMSA13.jpg,AMNE09.jpg,MN,1,num_6,32,num_8,0.800133042969,,,2017_Oct_10_1801,60.0034064452,FEMA4ImagesEEG,001,201867,
AFNE01.JPG,AFNE01.JPG,AFNE01.JPG,AFNE01.JPG,AFNE01.JPG,AFNE01.JPG,,,,,,,,,,,,,,,,,,,,,2,0,20,8,,,AMNE05.jpg,AMSA17.jpg,AMSA16.jpg,AMNE11.jpg,AMSA17.jpg,MS,2,num_6,16,num_6,0.716781347292,,,2017_Oct_10_1801,60.0034064452,FEMA4ImagesEEG,001,201867,
AFNE01.JPG,AFNE01.JPG,AFNE01.JPG,AFNE01.JPG,AFNE01.JPG,AFNE01.JPG,,,,,,,,,,,,,,,,,,,,,2,1,21,7,,,AMNE20.jpg,AMNE01.jpg,AMSA06.jpg,AMSA01.jpg,AMSA01.jpg,MS,2,num_4,32,num_6,1.01680165017,,,2017_Oct_10_1801,60.0034064452,FEMA4ImagesEEG,001,201867,
AFNE01.JPG,AFNE01.JPG,AFNE01.JPG,AFNE01.JPG,AFNE01.JPG,AFNE01.JPG,,,,,,,,,,,,,,,,,,,,,2,2,22,4,,,AMSA17.jpg,AMSA18.jpg,AMNE18.jpg,AMNE10.jpg,AMSA18.jpg,MS,2,num_6,16,num_6,1.91670411301,,,2017_Oct_10_1801,60.0034064452,FEMA4ImagesEEG,001,201867,
AFNE01.JPG,AFNE01.JPG,AFNE01.JPG,AFNE01.JPG,AFNE01.JPG,AFNE01.JPG,,,,,,,,,,,,,,,,,,,,,2,3,23,2,,,AMNE08.jpg,AMNE14.jpg,AMSA02.jpg,AMSA06.jpg,AMNE14.jpg,MN,1,num_6,16,num_6,0.550182196428,,,2017_Oct_10_1801,60.0034064452,FEMA4ImagesEEG,001,201867,
AFNE01.JPG,AFNE01.JPG,AFNE01.JPG,AFNE01.JPG,AFNE01.JPG,AFNE01.JPG,,,,,,,,,,,,,,,,,,,,,2,4,24,1,,,AMNE19.jpg,AMSA15.jpg,AMNE13.jpg,AMSA07.jpg,AMSA15.jpg,MS,2,num_6,32,num_8,0.900140131358,,,2017_Oct_10_1801,60.0034064452,FEMA4ImagesEEG,001,201867,
AFNE01.JPG,AFNE01.JPG,AFNE01.JPG,AFNE01.JPG,AFNE01.JPG,AFNE01.JPG,,,,,,,,,,,,,,,,,,,,,2,5,25,0,,,AMSA13.jpg,AMNE04.jpg,AMSA08.jpg,AMNE19.jpg,AMNE04.jpg,MN,1,num_6,16,num_6,0.650167795247,,,2017_Oct_10_1801,60.0034064452,FEMA4ImagesEEG,001,201867,
AFNE01.JPG,AFNE01.JPG,AFNE01.JPG,AFNE01.JPG,AFNE01.JPG,AFNE01.JPG,,,,,,,,,,,,,,,,,,,,,2,6,26,6,,,AMNE19.jpg,AMNE13.jpg,AMSA14.jpg,AMSA19.jpg,AMSA14.jpg,MS,2,num_2,32,num_8,1.8500193567,,,2017_Oct_10_1801,60.0034064452,FEMA4ImagesEEG,001,201867,
AFNE01.JPG,AFNE01.JPG,AFNE01.JPG,AFNE01.JPG,AFNE01.JPG,AFNE01.JPG,,,,,,,,,,,,,,,,,,,,,2,7,27,3,,,AMSA18.jpg,AMSA13.jpg,AMNE02.jpg,AMNE16.jpg,AMNE02.jpg,MN,1,num_2,16,num_2,0.883451702422,,,2017_Oct_10_1801,60.0034064452,FEMA4ImagesEEG,001,201867,
AFNE01.JPG,AFNE01.JPG,AFNE01.JPG,AFNE01.JPG,AFNE01.JPG,AFNE01.JPG,,,,,,,,,,,,,,,,,,,,,2,8,28,5,,,AMSA07.jpg,AMSA12.jpg,AMNE16.jpg,AMNE15.jpg,AMNE15.jpg,MN,1,num_4,16,num_4,1.11673144007,,,2017_Oct_10_1801,60.0034064452,FEMA4ImagesEEG,001,201867,
AFNE01.JPG,AFNE01.JPG,AFNE01.JPG,AFNE01.JPG,AFNE01.JPG,AFNE01.JPG,,,,,,,,,,,,,,,,,,,,,2,9,29,9,,,AMSA19.jpg,AMSA16.jpg,AMNE18.jpg,AMNE09.jpg,AMSA16.jpg,MS,2,num_6,32,num_8,0.816671044799,,,2017_Oct_10_1801,60.0034064452,FEMA4ImagesEEG,001,201867,
AFNE01.JPG,AFNE01.JPG,AFNE01.JPG,AFNE01.JPG,AFNE01.JPG,AFNE01.JPG,,,,,,,,,,,,,,,,,,,,,3,0,30,2,,,AMSA17.jpg,AMNE19.jpg,AMSA05.jpg,AMNE08.jpg,AMNE08.jpg,MN,1,num_4,32,num_2,1.06657089363,,,2017_Oct_10_1801,60.0034064452,FEMA4ImagesEEG,001,201867,
AFNE01.JPG,AFNE01.JPG,AFNE01.JPG,AFNE01.JPG,AFNE01.JPG,AFNE01.JPG,,,,,,,,,,,,,,,,,,,,,3,1,31,3,,,AMNE14.jpg,AMSA05.jpg,AMSA13.jpg,AMNE13.jpg,AMNE14.jpg,MN,1,num_8,16,num_8,0.633491875255,,,2017_Oct_10_1801,60.0034064452,FEMA4ImagesEEG,001,201867,
AFNE01.JPG,AFNE01.JPG,AFNE01.JPG,AFNE01.JPG,AFNE01.JPG,AFNE01.JPG,,,,,,,,,,,,,,,,,,,,,3,2,32,4,,,AMNE16.jpg,AMSA16.jpg,AMSA18.jpg,AMNE01.jpg,AMNE01.jpg,MN,1,num_4,32,num_2,0.950140628498,,,2017_Oct_10_1801,60.0034064452,FEMA4ImagesEEG,001,201867,
AFNE01.JPG,AFNE01.JPG,AFNE01.JPG,AFNE01.JPG,AFNE01.JPG,AFNE01.JPG,,,,,,,,,,,,,,,,,,,,,3,3,33,0,,,AMSA01.jpg,AMNE19.jpg,AMNE16.jpg,AMSA03.jpg,AMSA03.jpg,MS,2,num_4,16,num_4,0.683450996759,,,2017_Oct_10_1801,60.0034064452,FEMA4ImagesEEG,001,201867,
AFNE01.JPG,AFNE01.JPG,AFNE01.JPG,AFNE01.JPG,AFNE01.JPG,AFNE01.JPG,,,,,,,,,,,,,,,,,,,,,3,4,34,7,,,AMSA07.jpg,AMNE11.jpg,AMSA17.jpg,AMNE07.jpg,AMSA17.jpg,MS,2,num_2,32,num_8,1.35022094182,,,2017_Oct_10_1801,60.0034064452,FEMA4ImagesEEG,001,201867,
AFNE01.JPG,AFNE01.JPG,AFNE01.JPG,AFNE01.JPG,AFNE01.JPG,AFNE01.JPG,,,,,,,,,,,,,,,,,,,,,3,5,35,1,,,AMSA17.jpg,AMSA04.jpg,AMNE05.jpg,AMNE20.jpg,AMSA04.jpg,MS,2,num_6,16,num_6,0.80013849563,,,2017_Oct_10_1801,60.0034064452,FEMA4ImagesEEG,001,201867,
AFNE01.JPG,AFNE01.JPG,AFNE01.JPG,AFNE01.JPG,AFNE01.JPG,AFNE01.JPG,,,,,,,,,,,,,,,,,,,,,3,6,36,9,,,AMNE13.jpg,AMSA11.jpg,AMSA12.jpg,AMNE14.jpg,AMNE14.jpg,MN,1,num_4,16,num_4,0.783460971783,,,2017_Oct_10_1801,60.0034064452,FEMA4ImagesEEG,001,201867,
AFNE01.JPG,AFNE01.JPG,AFNE01.JPG,AFNE01.JPG,AFNE01.JPG,AFNE01.JPG,,,,,,,,,,,,,,,,,,,,,3,7,37,6,,,AMNE18.jpg,AMSA13.jpg,AMSA16.jpg,AMNE13.jpg,AMNE13.jpg,MN,1,num_4,16,num_4,0.633463329286,,,2017_Oct_10_1801,60.0034064452,FEMA4ImagesEEG,001,201867,
AFNE01.JPG,AFNE01.JPG,AFNE01.JPG,AFNE01.JPG,AFNE01.JPG,AFNE01.JPG,,,,,,,,,,,,,,,,,,,,,3,8,38,5,,,AMSA15.jpg,AMSA13.jpg,AMNE08.jpg,AMNE16.jpg,AMNE08.jpg,MN,1,num_2,16,num_2,0.76677510899,,,2017_Oct_10_1801,60.0034064452,FEMA4ImagesEEG,001,201867,
