IPosition2,IPosition3,IPosition1,IPosition6,IPosition4,IPosition5,TrialsF1.thisRepN,TrialsF1.thisTrialN,TrialsF1.thisN,TrialsF1.thisIndex,TrialsM1.thisRepN,TrialsM1.thisTrialN,TrialsM1.thisN,TrialsM1.thisIndex,TrialsF2.thisRepN,TrialsF2.thisTrialN,TrialsF2.thisN,TrialsF2.thisIndex,TrialsM2.thisRepN,TrialsM2.thisTrialN,TrialsM2.thisN,TrialsM2.thisIndex,TrialsF3.thisRepN,TrialsF3.thisTrialN,TrialsF3.thisN,TrialsF3.thisIndex,TrialsM3.thisRepN,TrialsM3.thisTrialN,TrialsM3.thisN,TrialsM3.thisIndex,InstrKey_resp.keys,InstrKey_resp.rt,Image0 _Position,Image1 _Position,Image2 _Position,Image3 _Position,Center_image,condition,code,correct_answer,accuracy,Key_Resp.keys,Key_Resp.rt,BreakKey_resp.keys,BreakKey_resp.rt,date,frameRate,expName,session,participant,
,,,,,,,,,,,,,,,,,,,,,,,,,,,,,,space,13.2659923427,,,,,,,,,,,,,,2017_Oct_11_1544,60.0082569895,FEMA4ImagesEEG,001,201839,
AMSA25.JPG,AMNE24.JPG,AMSA24.JPG,AMNE26.JPG,AMSA21.JPG,AMNE25.JPG,0,0,0,3,,,,,,,,,,,,,,,,,,,,,,,AFNE19.jpg,AFSA04.jpg,AFNE08.jpg,AFSA18.jpg,AFNE19.jpg,FN,3,num_8,32,num_2,2.76651434717,,,2017_Oct_11_1544,60.0082569895,FEMA4ImagesEEG,001,201839,
AFSA21.JPG,AFNE23.JPG,AFNE21.JPG,AFSA25.JPG,AFNE25.JPG,AFSA23.JPG,0,1,1,4,,,,,,,,,,,,,,,,,,,,,,,AFSA14.jpg,AFNE06.jpg,AFSA02.jpg,AFNE16.jpg,AFSA14.jpg,FS,4,num_8,16,num_8,0.716665880871,,,2017_Oct_11_1544,60.0082569895,FEMA4ImagesEEG,001,201839,
AMNE22.JPG,AMSA24.JPG,AMSA22.JPG,AMNE25.JPG,AMNE24.JPG,AMSA25.JPG,0,2,2,7,,,,,,,,,,,,,,,,,,,,,,,AFSA01.jpg,AFNE05.jpg,AFNE08.jpg,AFSA18.jpg,AFNE05.jpg,FN,3,num_6,32,num_2,2.21667117311,,,2017_Oct_11_1544,60.0082569895,FEMA4ImagesEEG,001,201839,
AMSA21.JPG,AMNE22.JPG,AMNE21.JPG,AMSA23.JPG,AMSA22.JPG,AMNE23.JPG,0,3,3,1,,,,,,,,,,,,,,,,,,,,,,,AFNE02.jpg,AFNE11.jpg,AFSA13.jpg,AFSA01.jpg,AFNE02.jpg,FN,3,num_8,32,num_2,1.08344438963,,,2017_Oct_11_1544,60.0082569895,FEMA4ImagesEEG,001,201839,
AMNE23.JPG,AMNE24.JPG,AMNE22.JPG,AMSA24.JPG,AMSA22.JPG,AMSA23.JPG,0,4,4,9,,,,,,,,,,,,,,,,,,,,,,,AFSA09.jpg,AFSA18.jpg,AFNE11.jpg,AFNE06.jpg,AFNE11.jpg,FN,3,num_2,32,num_4,0.950134855113,,,2017_Oct_11_1544,60.0082569895,FEMA4ImagesEEG,001,201839,
AFSA21.JPG,AFNE22.JPG,AFNE21.JPG,AFSA23.JPG,AFSA22.JPG,AFNE23.JPG,0,5,5,0,,,,,,,,,,,,,,,,,,,,,,,AFSA06.jpg,AFSA15.jpg,AFNE09.jpg,AFNE06.jpg,AFNE09.jpg,FN,3,num_2,32,num_6,2.98331894807,,,2017_Oct_11_1544,60.0082569895,FEMA4ImagesEEG,001,201839,
AFNE22.JPG,AFSA24.JPG,AFSA22.JPG,AFNE25.JPG,AFNE24.JPG,AFSA25.JPG,0,6,6,6,,,,,,,,,,,,,,,,,,,,,,,AFNE12.jpg,AFSA11.jpg,AFNE15.jpg,AFSA12.jpg,AFSA11.jpg,FS,4,num_6,16,num_6,0.966635009623,,,2017_Oct_11_1544,60.0082569895,FEMA4ImagesEEG,001,201839,
AFSA25.JPG,AFNE24.JPG,AFSA24.JPG,AFNE21.JPG,AFSA21.JPG,AFNE25.JPG,0,7,7,2,,,,,,,,,,,,,,,,,,,,,,,AFNE14.jpg,AFSA16.jpg,AFNE11.jpg,AFSA09.jpg,AFNE11.jpg,FN,3,num_2,16,num_2,0.866863665171,,,2017_Oct_11_1544,60.0082569895,FEMA4ImagesEEG,001,201839,
AFNE23.JPG,AFNE24.JPG,AFNE22.JPG,AFSA24.JPG,AFSA22.JPG,AFSA23.JPG,0,8,8,8,,,,,,,,,,,,,,,,,,,,,,,AFNE14.jpg,AFSA06.jpg,AFSA13.jpg,AFNE08.jpg,AFSA13.jpg,FS,4,num_2,32,num_4,1.16675535124,,,2017_Oct_11_1544,60.0082569895,FEMA4ImagesEEG,001,201839,
AMSA21.JPG,AMNE23.JPG,AMNE21.JPG,AMSA25.JPG,AMNE25.JPG,AMSA23.JPG,0,9,9,5,,,,,,,,,,,,,,,,,,,,,,,AFNE18.jpg,AFSA03.jpg,AFSA17.jpg,AFNE06.jpg,AFSA03.jpg,FS,4,num_6,16,num_6,0.816751550534,,,2017_Oct_11_1544,60.0082569895,FEMA4ImagesEEG,001,201839,
AFSA25.JPG,AFNE24.JPG,AFSA24.JPG,AFNE21.JPG,AFSA21.JPG,AFNE25.JPG,,,,,0,0,0,2,,,,,,,,,,,,,,,,,,,AMSA02.jpg,AMNE11.jpg,AMNE13.jpg,AMSA20.jpg,AMNE13.jpg,MN,1,num_2,32,num_4,1.03352343605,,,2017_Oct_11_1544,60.0082569895,FEMA4ImagesEEG,001,201839,
AFSA21.JPG,AFNE22.JPG,AFNE21.JPG,AFSA23.JPG,AFSA22.JPG,AFNE23.JPG,,,,,0,1,1,0,,,,,,,,,,,,,,,,,,,AMSA14.jpg,AMNE12.jpg,AMNE11.jpg,AMSA17.jpg,AMSA17.jpg,MS,2,num_4,32,num_2,0.883506228216,,,2017_Oct_11_1544,60.0082569895,FEMA4ImagesEEG,001,201839,
AFNE23.JPG,AFNE24.JPG,AFNE22.JPG,AFSA24.JPG,AFSA22.JPG,AFSA23.JPG,,,,,0,2,2,8,,,,,,,,,,,,,,,,,,,AMNE07.jpg,AMSA07.jpg,AMNE16.jpg,AMSA01.jpg,AMSA01.jpg,MS,2,num_4,16,num_4,0.883448815788,,,2017_Oct_11_1544,60.0082569895,FEMA4ImagesEEG,001,201839,
AMNE23.JPG,AMNE24.JPG,AMNE22.JPG,AMSA24.JPG,AMSA22.JPG,AMSA23.JPG,,,,,0,3,3,9,,,,,,,,,,,,,,,,,,,AMNE09.jpg,AMNE01.jpg,AMSA01.jpg,AMSA17.jpg,AMSA01.jpg,MS,2,num_2,32,num_6,1.33374997484,,,2017_Oct_11_1544,60.0082569895,FEMA4ImagesEEG,001,201839,
AMSA21.JPG,AMNE23.JPG,AMNE21.JPG,AMSA25.JPG,AMNE25.JPG,AMSA23.JPG,,,,,0,4,4,5,,,,,,,,,,,,,,,,,,,AMSA09.jpg,AMNE05.jpg,AMSA07.jpg,AMNE08.jpg,AMNE08.jpg,MN,1,num_4,32,num_8,1.11670161132,,,2017_Oct_11_1544,60.0082569895,FEMA4ImagesEEG,001,201839,
AFSA21.JPG,AFNE23.JPG,AFNE21.JPG,AFSA25.JPG,AFNE25.JPG,AFSA23.JPG,,,,,0,5,5,4,,,,,,,,,,,,,,,,,,,AMSA09.jpg,AMSA10.jpg,AMNE19.jpg,AMNE11.jpg,AMNE19.jpg,MN,1,num_2,32,num_6,0.90018503496,,,2017_Oct_11_1544,60.0082569895,FEMA4ImagesEEG,001,201839,
AMSA25.JPG,AMNE24.JPG,AMSA24.JPG,AMNE26.JPG,AMSA21.JPG,AMNE25.JPG,,,,,0,6,6,3,,,,,,,,,,,,,,,,,,,AMSA09.jpg,AMSA10.jpg,AMNE03.jpg,AMNE07.jpg,AMNE07.jpg,MN,1,num_4,32,num_8,1.16678004828,,,2017_Oct_11_1544,60.0082569895,FEMA4ImagesEEG,001,201839,
AMSA21.JPG,AMNE22.JPG,AMNE21.JPG,AMSA23.JPG,AMSA22.JPG,AMNE23.JPG,,,,,0,7,7,1,,,,,,,,,,,,,,,,,,,AMNE03.jpg,AMSA12.jpg,AMSA02.jpg,AMNE09.jpg,AMSA12.jpg,MS,2,num_6,16,num_6,4.33318322699,,,2017_Oct_11_1544,60.0082569895,FEMA4ImagesEEG,001,201839,
AMNE22.JPG,AMSA24.JPG,AMSA22.JPG,AMNE25.JPG,AMNE24.JPG,AMSA25.JPG,,,,,0,8,8,7,,,,,,,,,,,,,,,,,,,AMSA10.jpg,AMNE13.jpg,AMNE17.jpg,AMSA09.jpg,AMNE17.jpg,MN,1,num_2,16,num_2,1.80011604377,,,2017_Oct_11_1544,60.0082569895,FEMA4ImagesEEG,001,201839,
AFNE22.JPG,AFSA24.JPG,AFSA22.JPG,AFNE25.JPG,AFNE24.JPG,AFSA25.JPG,,,,,0,9,9,6,,,,,,,,,,,,,,,,,,,AMSA01.jpg,AMSA02.jpg,AMNE07.jpg,AMNE12.jpg,AMSA02.jpg,MS,2,num_6,32,num_2,1.76666830247,,,2017_Oct_11_1544,60.0082569895,FEMA4ImagesEEG,001,201839,
AFSA25.JPG,AFNE24.JPG,AFSA24.JPG,AFNE21.JPG,AFSA21.JPG,AFNE25.JPG,,,,,,,,,0,0,0,2,,,,,,,,,,,,,,,AFNE05.jpg,AFNE12.jpg,AFSA13.jpg,AFSA04.jpg,AFNE05.jpg,FN,3,num_8,32,num_4,3.26658571186,,,2017_Oct_11_1544,60.0082569895,FEMA4ImagesEEG,001,201839,
AFSA21.JPG,AFNE23.JPG,AFNE21.JPG,AFSA25.JPG,AFNE25.JPG,AFSA23.JPG,,,,,,,,,0,1,1,4,,,,,,,,,,,,,,,AFNE03.jpg,AFNE16.jpg,AFSA06.jpg,AFSA18.jpg,AFSA18.jpg,FS,4,num_4,16,num_4,0.816773360828,,,2017_Oct_11_1544,60.0082569895,FEMA4ImagesEEG,001,201839,
AMSA21.JPG,AMNE22.JPG,AMNE21.JPG,AMSA23.JPG,AMSA22.JPG,AMNE23.JPG,,,,,,,,,0,2,2,1,,,,,,,,,,,,,,,AFSA05.jpg,AFNE03.jpg,AFSA19.jpg,AFNE09.jpg,AFNE03.jpg,FN,3,num_6,32,num_4,1.40003220236,,,2017_Oct_11_1544,60.0082569895,FEMA4ImagesEEG,001,201839,
AMNE22.JPG,AMSA24.JPG,AMSA22.JPG,AMNE25.JPG,AMNE24.JPG,AMSA25.JPG,,,,,,,,,0,3,3,7,,,,,,,,,,,,,,,AFSA06.jpg,AFSA03.jpg,AFNE10.jpg,AFNE06.jpg,AFNE10.jpg,FN,3,num_2,16,num_2,1.2500557286,,,2017_Oct_11_1544,60.0082569895,FEMA4ImagesEEG,001,201839,
AFSA21.JPG,AFNE22.JPG,AFNE21.JPG,AFSA23.JPG,AFSA22.JPG,AFNE23.JPG,,,,,,,,,0,4,4,0,,,,,,,,,,,,,,,AFNE12.jpg,AFSA06.jpg,AFSA03.jpg,AFNE13.jpg,AFNE13.jpg,FN,3,num_4,32,num_8,1.06675211177,,,2017_Oct_11_1544,60.0082569895,FEMA4ImagesEEG,001,201839,
AFNE23.JPG,AFNE24.JPG,AFNE22.JPG,AFSA24.JPG,AFSA22.JPG,AFSA23.JPG,,,,,,,,,0,5,5,8,,,,,,,,,,,,,,,AFNE15.jpg,AFSA07.jpg,AFSA08.jpg,AFNE18.jpg,AFNE18.jpg,FN,3,num_4,32,num_8,0.950172702549,,,2017_Oct_11_1544,60.0082569895,FEMA4ImagesEEG,001,201839,
AMSA25.JPG,AMNE24.JPG,AMSA24.JPG,AMNE26.JPG,AMSA21.JPG,AMNE25.JPG,,,,,,,,,0,6,6,3,,,,,,,,,,,,,,,AFNE06.jpg,AFSA17.jpg,AFSA06.jpg,AFNE15.jpg,AFNE06.jpg,FN,3,num_8,32,num_4,0.699995092698,,,2017_Oct_11_1544,60.0082569895,FEMA4ImagesEEG,001,201839,
AMSA21.JPG,AMNE23.JPG,AMNE21.JPG,AMSA25.JPG,AMNE25.JPG,AMSA23.JPG,,,,,,,,,0,7,7,5,,,,,,,,,,,,,,,AFSA06.jpg,AFNE13.jpg,AFNE20.jpg,AFSA11.jpg,AFSA11.jpg,FS,4,num_4,32,num_2,0.950131006306,,,2017_Oct_11_1544,60.0082569895,FEMA4ImagesEEG,001,201839,
AFNE22.JPG,AFSA24.JPG,AFSA22.JPG,AFNE25.JPG,AFNE24.JPG,AFSA25.JPG,,,,,,,,,0,8,8,6,,,,,,,,,,,,,,,AFNE11.jpg,AFNE09.jpg,AFSA17.jpg,AFSA15.jpg,AFNE09.jpg,FN,3,num_6,32,num_4,0.933517951402,,,2017_Oct_11_1544,60.0082569895,FEMA4ImagesEEG,001,201839,
AMNE23.JPG,AMNE24.JPG,AMNE22.JPG,AMSA24.JPG,AMSA22.JPG,AMSA23.JPG,,,,,,,,,0,9,9,9,,,,,,,,,,,,,,,AFSA12.jpg,AFNE10.jpg,AFNE03.jpg,AFSA14.jpg,AFSA12.jpg,FS,4,num_8,16,num_8,0.716900341795,,,2017_Oct_11_1544,60.0082569895,FEMA4ImagesEEG,001,201839,
AFNE23.JPG,AFNE24.JPG,AFNE22.JPG,AFSA24.JPG,AFSA22.JPG,AFSA23.JPG,,,,,,,,,,,,,0,0,0,8,,,,,,,,,,,AMNE17.jpg,AMSA10.jpg,AMNE12.jpg,AMSA04.jpg,AMNE17.jpg,MN,1,num_8,32,num_6,0.966711987276,,,2017_Oct_11_1544,60.0082569895,FEMA4ImagesEEG,001,201839,
AMSA21.JPG,AMNE23.JPG,AMNE21.JPG,AMSA25.JPG,AMNE25.JPG,AMSA23.JPG,,,,,,,,,,,,,0,1,1,5,,,,,,,,,,,AMSA15.jpg,AMNE17.jpg,AMSA19.jpg,AMNE19.jpg,AMNE17.jpg,MN,1,num_6,32,num_8,0.883401346277,,,2017_Oct_11_1544,60.0082569895,FEMA4ImagesEEG,001,201839,
AFNE22.JPG,AFSA24.JPG,AFSA22.JPG,AFNE25.JPG,AFNE24.JPG,AFSA25.JPG,,,,,,,,,,,,,0,2,2,6,,,,,,,,,,,AMNE16.jpg,AMSA13.jpg,AMNE11.jpg,AMSA12.jpg,AMSA12.jpg,MS,2,num_4,32,num_8,2.84999433893,,,2017_Oct_11_1544,60.0082569895,FEMA4ImagesEEG,001,201839,
AMSA21.JPG,AMNE22.JPG,AMNE21.JPG,AMSA23.JPG,AMSA22.JPG,AMNE23.JPG,,,,,,,,,,,,,0,3,3,1,,,,,,,,,,,AMNE15.jpg,AMSA15.jpg,AMSA18.jpg,AMNE02.jpg,AMNE15.jpg,MN,1,num_8,16,num_8,0.916807391332,,,2017_Oct_11_1544,60.0082569895,FEMA4ImagesEEG,001,201839,
AMNE22.JPG,AMSA24.JPG,AMSA22.JPG,AMNE25.JPG,AMNE24.JPG,AMSA25.JPG,,,,,,,,,,,,,0,4,4,7,,,,,,,,,,,AMSA08.jpg,AMNE02.jpg,AMNE11.jpg,AMSA09.jpg,AMSA09.jpg,MS,2,num_4,16,num_4,0.766650340986,,,2017_Oct_11_1544,60.0082569895,FEMA4ImagesEEG,001,201839,
AMSA25.JPG,AMNE24.JPG,AMSA24.JPG,AMNE26.JPG,AMSA21.JPG,AMNE25.JPG,,,,,,,,,,,,,0,5,5,3,,,,,,,,,,,AMNE13.jpg,AMSA11.jpg,AMNE08.jpg,AMSA02.jpg,AMSA11.jpg,MS,2,num_6,32,num_8,1.18341330986,,,2017_Oct_11_1544,60.0082569895,FEMA4ImagesEEG,001,201839,
AMNE23.JPG,AMNE24.JPG,AMNE22.JPG,AMSA24.JPG,AMSA22.JPG,AMSA23.JPG,,,,,,,,,,,,,0,6,6,9,,,,,,,,,,,AMNE14.jpg,AMSA01.jpg,AMNE07.jpg,AMSA17.jpg,AMSA17.jpg,MS,2,num_4,16,num_4,1.13344488677,,,2017_Oct_11_1544,60.0082569895,FEMA4ImagesEEG,001,201839,
AFSA21.JPG,AFNE22.JPG,AFNE21.JPG,AFSA23.JPG,AFSA22.JPG,AFNE23.JPG,,,,,,,,,,,,,0,7,7,0,,,,,,,,,,,AMSA04.jpg,AMNE10.jpg,AMSA09.jpg,AMNE16.jpg,AMSA09.jpg,MS,2,num_2,16,num_2,1.50005789357,,,2017_Oct_11_1544,60.0082569895,FEMA4ImagesEEG,001,201839,
AFSA25.JPG,AFNE24.JPG,AFSA24.JPG,AFNE21.JPG,AFSA21.JPG,AFNE25.JPG,,,,,,,,,,,,,0,8,8,2,,,,,,,,,,,AMSA19.jpg,AMNE16.jpg,AMSA03.jpg,AMNE05.jpg,AMSA03.jpg,MS,2,num_2,32,num_8,1.10010491405,,,2017_Oct_11_1544,60.0082569895,FEMA4ImagesEEG,001,201839,
AFSA21.JPG,AFNE23.JPG,AFNE21.JPG,AFSA25.JPG,AFNE25.JPG,AFSA23.JPG,,,,,,,,,,,,,0,9,9,4,,,,,,,,,,,AMNE07.jpg,AMNE15.jpg,AMSA20.jpg,AMSA02.jpg,AMNE15.jpg,MN,1,num_6,32,num_2,0.883564282325,,,2017_Oct_11_1544,60.0082569895,FEMA4ImagesEEG,001,201839,
AFNE23.JPG,AFNE24.JPG,AFNE22.JPG,AFSA24.JPG,AFSA22.JPG,AFSA23.JPG,,,,,,,,,,,,,,,,,0,0,0,8,,,,,,,AFSA17.jpg,AFNE08.jpg,AFSA14.jpg,AFNE02.jpg,AFSA17.jpg,FS,4,num_8,32,num_4,1.33345361077,,,2017_Oct_11_1544,60.0082569895,FEMA4ImagesEEG,001,201839,
AFSA25.JPG,AFNE24.JPG,AFSA24.JPG,AFNE21.JPG,AFSA21.JPG,AFNE25.JPG,,,,,,,,,,,,,,,,,0,1,1,2,,,,,,,AFSA01.jpg,AFNE15.jpg,AFNE16.jpg,AFSA11.jpg,AFNE15.jpg,FN,3,num_6,16,num_6,1.06675948889,,,2017_Oct_11_1544,60.0082569895,FEMA4ImagesEEG,001,201839,
AMNE23.JPG,AMNE24.JPG,AMNE22.JPG,AMSA24.JPG,AMSA22.JPG,AMSA23.JPG,,,,,,,,,,,,,,,,,0,2,2,9,,,,,,,AFNE10.jpg,AFSA15.jpg,AFSA06.jpg,AFNE08.jpg,AFNE08.jpg,FN,3,num_4,32,num_8,0.633647754788,,,2017_Oct_11_1544,60.0082569895,FEMA4ImagesEEG,001,201839,
AFSA21.JPG,AFNE22.JPG,AFNE21.JPG,AFSA23.JPG,AFSA22.JPG,AFNE23.JPG,,,,,,,,,,,,,,,,,0,3,3,0,,,,,,,AFNE07.jpg,AFSA20.jpg,AFNE20.jpg,AFSA19.jpg,AFNE20.jpg,FN,3,num_2,32,num_8,1.0334464584,,,2017_Oct_11_1544,60.0082569895,FEMA4ImagesEEG,001,201839,
AFSA21.JPG,AFNE23.JPG,AFNE21.JPG,AFSA25.JPG,AFNE25.JPG,AFSA23.JPG,,,,,,,,,,,,,,,,,0,4,4,4,,,,,,,AFNE04.jpg,AFSA12.jpg,AFSA15.jpg,AFNE18.jpg,AFSA12.jpg,FS,4,num_6,32,num_2,0.716786799836,,,2017_Oct_11_1544,60.0082569895,FEMA4ImagesEEG,001,201839,
AMSA21.JPG,AMNE22.JPG,AMNE21.JPG,AMSA23.JPG,AMSA22.JPG,AMNE23.JPG,,,,,,,,,,,,,,,,,0,5,5,1,,,,,,,AFSA13.jpg,AFNE19.jpg,AFNE10.jpg,AFSA15.jpg,AFSA15.jpg,FS,4,num_4,32,num_8,1.01670350367,,,2017_Oct_11_1544,60.0082569895,FEMA4ImagesEEG,001,201839,
AMSA21.JPG,AMNE23.JPG,AMNE21.JPG,AMSA25.JPG,AMNE25.JPG,AMSA23.JPG,,,,,,,,,,,,,,,,,0,6,6,5,,,,,,,AFNE20.jpg,AFNE13.jpg,AFSA09.jpg,AFSA20.jpg,AFSA09.jpg,FS,4,num_2,32,num_4,1.93336271308,,,2017_Oct_11_1544,60.0082569895,FEMA4ImagesEEG,001,201839,
AMNE22.JPG,AMSA24.JPG,AMSA22.JPG,AMNE25.JPG,AMNE24.JPG,AMSA25.JPG,,,,,,,,,,,,,,,,,0,7,7,7,,,,,,,AFSA18.jpg,AFNE13.jpg,AFNE14.jpg,AFSA02.jpg,AFSA02.jpg,FS,4,num_4,32,num_6,2.64963953628,,,2017_Oct_11_1544,60.0082569895,FEMA4ImagesEEG,001,201839,
AFNE22.JPG,AFSA24.JPG,AFSA22.JPG,AFNE25.JPG,AFNE24.JPG,AFSA25.JPG,,,,,,,,,,,,,,,,,0,8,8,6,,,,,,,AFNE07.jpg,AFSA07.jpg,AFNE02.jpg,AFSA08.jpg,AFSA07.jpg,FS,4,num_6,32,num_2,1.96669049759,,,2017_Oct_11_1544,60.0082569895,FEMA4ImagesEEG,001,201839,
AMSA25.JPG,AMNE24.JPG,AMSA24.JPG,AMNE26.JPG,AMSA21.JPG,AMNE25.JPG,,,,,,,,,,,,,,,,,0,9,9,3,,,,,,,AFSA16.jpg,AFSA04.jpg,AFNE02.jpg,AFNE10.jpg,AFSA04.jpg,FS,4,num_6,32,num_4,0.950106950826,,,2017_Oct_11_1544,60.0082569895,FEMA4ImagesEEG,001,201839,
AMSA21.JPG,AMNE23.JPG,AMNE21.JPG,AMSA25.JPG,AMNE25.JPG,AMSA23.JPG,,,,,,,,,,,,,,,,,,,,,0,0,0,5,,,AMNE16.jpg,AMSA19.jpg,AMNE14.jpg,AMSA16.jpg,AMNE14.jpg,MN,1,num_2,32,num_8,0.91663066356,,,2017_Oct_11_1544,60.0082569895,FEMA4ImagesEEG,001,201839,
AFSA21.JPG,AFNE22.JPG,AFNE21.JPG,AFSA23.JPG,AFSA22.JPG,AFNE23.JPG,,,,,,,,,,,,,,,,,,,,,0,1,1,0,,,AMNE05.jpg,AMSA11.jpg,AMNE13.jpg,AMSA04.jpg,AMNE05.jpg,MN,1,num_8,32,num_2,1.03339513997,,,2017_Oct_11_1544,60.0082569895,FEMA4ImagesEEG,001,201839,
AFSA21.JPG,AFNE23.JPG,AFNE21.JPG,AFSA25.JPG,AFNE25.JPG,AFSA23.JPG,,,,,,,,,,,,,,,,,,,,,0,2,2,4,,,AMNE07.jpg,AMSA03.jpg,AMSA13.jpg,AMNE17.jpg,AMSA03.jpg,MS,2,num_6,16,num_6,1.28340243676,,,2017_Oct_11_1544,60.0082569895,FEMA4ImagesEEG,001,201839,
AFSA25.JPG,AFNE24.JPG,AFSA24.JPG,AFNE21.JPG,AFSA21.JPG,AFNE25.JPG,,,,,,,,,,,,,,,,,,,,,0,3,3,2,,,AMSA08.jpg,AMNE04.jpg,AMSA02.jpg,AMNE08.jpg,AMNE08.jpg,MN,1,num_4,32,num_8,1.70008586219,,,2017_Oct_11_1544,60.0082569895,FEMA4ImagesEEG,001,201839,
AFNE23.JPG,AFNE24.JPG,AFNE22.JPG,AFSA24.JPG,AFSA22.JPG,AFSA23.JPG,,,,,,,,,,,,,,,,,,,,,0,4,4,8,,,AMSA07.jpg,AMNE14.jpg,AMSA02.jpg,AMNE20.jpg,AMNE20.jpg,MN,1,num_4,16,num_4,0.85010595643,,,2017_Oct_11_1544,60.0082569895,FEMA4ImagesEEG,001,201839,
AMSA25.JPG,AMNE24.JPG,AMSA24.JPG,AMNE26.JPG,AMSA21.JPG,AMNE25.JPG,,,,,,,,,,,,,,,,,,,,,0,5,5,3,,,AMNE03.jpg,AMSA12.jpg,AMNE04.jpg,AMSA19.jpg,AMNE03.jpg,MN,1,num_8,32,num_2,1.78336218395,,,2017_Oct_11_1544,60.0082569895,FEMA4ImagesEEG,001,201839,
AMSA21.JPG,AMNE22.JPG,AMNE21.JPG,AMSA23.JPG,AMSA22.JPG,AMNE23.JPG,,,,,,,,,,,,,,,,,,,,,0,6,6,1,,,AMNE02.jpg,AMNE08.jpg,AMSA01.jpg,AMSA18.jpg,AMSA01.jpg,MS,2,num_2,32,num_4,1.23396098963,,,2017_Oct_11_1544,60.0082569895,FEMA4ImagesEEG,001,201839,
AMNE22.JPG,AMSA24.JPG,AMSA22.JPG,AMNE25.JPG,AMNE24.JPG,AMSA25.JPG,,,,,,,,,,,,,,,,,,,,,0,7,7,7,,,AMNE17.jpg,AMSA03.jpg,AMNE03.jpg,AMSA15.jpg,AMSA15.jpg,MS,2,num_4,32,num_2,1.16673899349,,,2017_Oct_11_1544,60.0082569895,FEMA4ImagesEEG,001,201839,
AMNE23.JPG,AMNE24.JPG,AMNE22.JPG,AMSA24.JPG,AMSA22.JPG,AMSA23.JPG,,,,,,,,,,,,,,,,,,,,,0,8,8,9,,,AMSA18.jpg,AMSA17.jpg,AMNE03.jpg,AMNE08.jpg,AMSA18.jpg,MS,2,num_8,16,num_8,1.53344276978,,,2017_Oct_11_1544,60.0082569895,FEMA4ImagesEEG,001,201839,
AFNE22.JPG,AFSA24.JPG,AFSA22.JPG,AFNE25.JPG,AFNE24.JPG,AFSA25.JPG,,,,,,,,,,,,,,,,,,,,,0,9,9,6,,,AMSA04.jpg,AMNE03.jpg,AMNE05.jpg,AMSA15.jpg,AMSA15.jpg,MS,2,num_4,32,num_2,0.900117679616,,,2017_Oct_11_1544,60.0082569895,FEMA4ImagesEEG,001,201839,
,,,,,,,,,,,,,,,,,,,,,,,,,,,,,,,,,,,,,,,,,,,space,3.9997636145,2017_Oct_11_1544,60.0082569895,FEMA4ImagesEEG,001,201839,
AFNE01.JPG,AFNE01.JPG,AFNE01.JPG,AFNE01.JPG,AFNE01.JPG,AFNE01.JPG,0,0,0,7,,,,,,,,,,,,,,,,,,,,,,,AFSA19.jpg,AFNE05.jpg,AFSA01.jpg,AFNE19.jpg,AFSA01.jpg,FS,4,num_2,32,num_4,0.933496461716,,,2017_Oct_11_1544,60.0082569895,FEMA4ImagesEEG,001,201839,
AFNE01.JPG,AFNE01.JPG,AFNE01.JPG,AFNE01.JPG,AFNE01.JPG,AFNE01.JPG,0,1,1,4,,,,,,,,,,,,,,,,,,,,,,,AFSA09.jpg,AFNE05.jpg,AFSA14.jpg,AFNE06.jpg,AFSA09.jpg,FS,4,num_8,16,num_8,0.700219289982,,,2017_Oct_11_1544,60.0082569895,FEMA4ImagesEEG,001,201839,
AFNE01.JPG,AFNE01.JPG,AFNE01.JPG,AFNE01.JPG,AFNE01.JPG,AFNE01.JPG,0,2,2,9,,,,,,,,,,,,,,,,,,,,,,,AFSA01.jpg,AFSA17.jpg,AFNE19.jpg,AFNE02.jpg,AFNE02.jpg,FN,3,num_4,16,num_4,1.16673225793,,,2017_Oct_11_1544,60.0082569895,FEMA4ImagesEEG,001,201839,
AFNE01.JPG,AFNE01.JPG,AFNE01.JPG,AFNE01.JPG,AFNE01.JPG,AFNE01.JPG,0,3,3,5,,,,,,,,,,,,,,,,,,,,,,,AFSA09.jpg,AFNE19.jpg,AFSA06.jpg,AFNE12.jpg,AFNE19.jpg,FN,3,num_6,16,num_6,0.616771372268,,,2017_Oct_11_1544,60.0082569895,FEMA4ImagesEEG,001,201839,
AFNE01.JPG,AFNE01.JPG,AFNE01.JPG,AFNE01.JPG,AFNE01.JPG,AFNE01.JPG,0,4,4,2,,,,,,,,,,,,,,,,,,,,,,,AFSA04.jpg,AFNE17.jpg,AFSA10.jpg,AFNE12.jpg,AFNE12.jpg,FN,3,num_4,32,num_8,0.750136394752,,,2017_Oct_11_1544,60.0082569895,FEMA4ImagesEEG,001,201839,
AFNE01.JPG,AFNE01.JPG,AFNE01.JPG,AFNE01.JPG,AFNE01.JPG,AFNE01.JPG,0,5,5,0,,,,,,,,,,,,,,,,,,,,,,,AFNE15.jpg,AFSA09.jpg,AFSA02.jpg,AFNE08.jpg,AFSA02.jpg,FS,4,num_2,16,num_2,1.6832803631,,,2017_Oct_11_1544,60.0082569895,FEMA4ImagesEEG,001,201839,
AFNE01.JPG,AFNE01.JPG,AFNE01.JPG,AFNE01.JPG,AFNE01.JPG,AFNE01.JPG,0,6,6,1,,,,,,,,,,,,,,,,,,,,,,,AFNE19.jpg,AFNE17.jpg,AFSA13.jpg,AFSA04.jpg,AFSA13.jpg,FS,4,num_2,32,num_8,1.00010295759,,,2017_Oct_11_1544,60.0082569895,FEMA4ImagesEEG,001,201839,
AFNE01.JPG,AFNE01.JPG,AFNE01.JPG,AFNE01.JPG,AFNE01.JPG,AFNE01.JPG,0,7,7,8,,,,,,,,,,,,,,,,,,,,,,,AFSA19.jpg,AFNE01.jpg,AFSA07.jpg,AFNE16.jpg,AFNE01.jpg,FN,3,num_6,16,num_6,2.86627606943,,,2017_Oct_11_1544,60.0082569895,FEMA4ImagesEEG,001,201839,
AFNE01.JPG,AFNE01.JPG,AFNE01.JPG,AFNE01.JPG,AFNE01.JPG,AFNE01.JPG,0,8,8,3,,,,,,,,,,,,,,,,,,,,,,,AFSA07.jpg,AFNE15.jpg,AFNE04.jpg,AFSA08.jpg,AFNE15.jpg,FN,3,num_6,32,num_4,1.36672783177,,,2017_Oct_11_1544,60.0082569895,FEMA4ImagesEEG,001,201839,
AFNE01.JPG,AFNE01.JPG,AFNE01.JPG,AFNE01.JPG,AFNE01.JPG,AFNE01.JPG,0,9,9,6,,,,,,,,,,,,,,,,,,,,,,,AFNE07.jpg,AFNE19.jpg,AFSA20.jpg,AFSA17.jpg,AFSA17.jpg,FS,4,num_4,32,num_2,0.700146802817,,,2017_Oct_11_1544,60.0082569895,FEMA4ImagesEEG,001,201839,
AFNE01.JPG,AFNE01.JPG,AFNE01.JPG,AFNE01.JPG,AFNE01.JPG,AFNE01.JPG,1,0,10,1,,,,,,,,,,,,,,,,,,,,,,,AFNE04.jpg,AFSA05.jpg,AFSA10.jpg,AFNE13.jpg,AFSA10.jpg,FS,4,num_2,32,num_4,0.783409653464,,,2017_Oct_11_1544,60.0082569895,FEMA4ImagesEEG,001,201839,
AFNE01.JPG,AFNE01.JPG,AFNE01.JPG,AFNE01.JPG,AFNE01.JPG,AFNE01.JPG,1,1,11,6,,,,,,,,,,,,,,,,,,,,,,,AFNE19.jpg,AFNE13.jpg,AFSA16.jpg,AFSA07.jpg,AFNE19.jpg,FN,3,num_8,16,num_8,0.900102604763,,,2017_Oct_11_1544,60.0082569895,FEMA4ImagesEEG,001,201839,
AFNE01.JPG,AFNE01.JPG,AFNE01.JPG,AFNE01.JPG,AFNE01.JPG,AFNE01.JPG,1,2,12,7,,,,,,,,,,,,,,,,,,,,,,,AFSA05.jpg,AFNE05.jpg,AFSA07.jpg,AFNE14.jpg,AFSA07.jpg,FS,4,num_2,32,num_6,1.21674654703,,,2017_Oct_11_1544,60.0082569895,FEMA4ImagesEEG,001,201839,
AFNE01.JPG,AFNE01.JPG,AFNE01.JPG,AFNE01.JPG,AFNE01.JPG,AFNE01.JPG,1,3,13,4,,,,,,,,,,,,,,,,,,,,,,,AFNE16.jpg,AFNE12.jpg,AFSA11.jpg,AFSA07.jpg,AFNE12.jpg,FN,3,num_6,32,num_4,0.833430677885,,,2017_Oct_11_1544,60.0082569895,FEMA4ImagesEEG,001,201839,
AFNE01.JPG,AFNE01.JPG,AFNE01.JPG,AFNE01.JPG,AFNE01.JPG,AFNE01.JPG,1,4,14,9,,,,,,,,,,,,,,,,,,,,,,,AFNE09.jpg,AFSA10.jpg,AFSA07.jpg,AFNE16.jpg,AFNE09.jpg,FN,3,num_8,16,num_8,0.816748022335,,,2017_Oct_11_1544,60.0082569895,FEMA4ImagesEEG,001,201839,
AFNE01.JPG,AFNE01.JPG,AFNE01.JPG,AFNE01.JPG,AFNE01.JPG,AFNE01.JPG,1,5,15,3,,,,,,,,,,,,,,,,,,,,,,,AFSA17.jpg,AFSA09.jpg,AFNE14.jpg,AFNE04.jpg,AFSA09.jpg,FS,4,num_6,32,num_4,1.36673071852,,,2017_Oct_11_1544,60.0082569895,FEMA4ImagesEEG,001,201839,
AFNE01.JPG,AFNE01.JPG,AFNE01.JPG,AFNE01.JPG,AFNE01.JPG,AFNE01.JPG,1,6,16,2,,,,,,,,,,,,,,,,,,,,,,,AFSA16.jpg,AFNE18.jpg,AFNE02.jpg,AFSA11.jpg,AFNE02.jpg,FN,3,num_2,32,num_8,0.766849199892,,,2017_Oct_11_1544,60.0082569895,FEMA4ImagesEEG,001,201839,
AFNE01.JPG,AFNE01.JPG,AFNE01.JPG,AFNE01.JPG,AFNE01.JPG,AFNE01.JPG,1,7,17,5,,,,,,,,,,,,,,,,,,,,,,,AFSA09.jpg,AFNE01.jpg,AFSA03.jpg,AFNE18.jpg,AFNE01.jpg,FN,3,num_6,32,num_2,1.21676899889,,,2017_Oct_11_1544,60.0082569895,FEMA4ImagesEEG,001,201839,
AFNE01.JPG,AFNE01.JPG,AFNE01.JPG,AFNE01.JPG,AFNE01.JPG,AFNE01.JPG,1,8,18,8,,,,,,,,,,,,,,,,,,,,,,,AFSA09.jpg,AFSA13.jpg,AFNE08.jpg,AFNE12.jpg,AFNE08.jpg,FN,3,num_2,16,num_2,1.84974319942,,,2017_Oct_11_1544,60.0082569895,FEMA4ImagesEEG,001,201839,
AFNE01.JPG,AFNE01.JPG,AFNE01.JPG,AFNE01.JPG,AFNE01.JPG,AFNE01.JPG,1,9,19,0,,,,,,,,,,,,,,,,,,,,,,,AFNE19.jpg,AFSA05.jpg,AFSA15.jpg,AFNE09.jpg,AFSA05.jpg,FS,4,num_6,16,num_6,0.933429106371,,,2017_Oct_11_1544,60.0082569895,FEMA4ImagesEEG,001,201839,
AFNE01.JPG,AFNE01.JPG,AFNE01.JPG,AFNE01.JPG,AFNE01.JPG,AFNE01.JPG,2,0,20,9,,,,,,,,,,,,,,,,,,,,,,,AFNE11.jpg,AFSA06.jpg,AFNE05.jpg,AFSA12.jpg,AFNE05.jpg,FN,3,num_2,32,num_8,1.55008661584,,,2017_Oct_11_1544,60.0082569895,FEMA4ImagesEEG,001,201839,
AFNE01.JPG,AFNE01.JPG,AFNE01.JPG,AFNE01.JPG,AFNE01.JPG,AFNE01.JPG,2,1,21,8,,,,,,,,,,,,,,,,,,,,,,,AFNE04.jpg,AFNE11.jpg,AFSA18.jpg,AFSA03.jpg,AFSA03.jpg,FS,4,num_4,32,num_2,1.95031511108,,,2017_Oct_11_1544,60.0082569895,FEMA4ImagesEEG,001,201839,
AFNE01.JPG,AFNE01.JPG,AFNE01.JPG,AFNE01.JPG,AFNE01.JPG,AFNE01.JPG,2,2,22,1,,,,,,,,,,,,,,,,,,,,,,,AFSA09.jpg,AFNE14.jpg,AFNE05.jpg,AFSA07.jpg,AFSA09.jpg,FS,4,num_8,32,num_4,1.20009372022,,,2017_Oct_11_1544,60.0082569895,FEMA4ImagesEEG,001,201839,
AFNE01.JPG,AFNE01.JPG,AFNE01.JPG,AFNE01.JPG,AFNE01.JPG,AFNE01.JPG,2,3,23,0,,,,,,,,,,,,,,,,,,,,,,,AFSA09.jpg,AFNE02.jpg,AFSA14.jpg,AFNE07.jpg,AFSA09.jpg,FS,4,num_8,32,num_4,1.75008571777,,,2017_Oct_11_1544,60.0082569895,FEMA4ImagesEEG,001,201839,
AFNE01.JPG,AFNE01.JPG,AFNE01.JPG,AFNE01.JPG,AFNE01.JPG,AFNE01.JPG,2,4,24,7,,,,,,,,,,,,,,,,,,,,,,,AFNE01.jpg,AFSA02.jpg,AFSA05.jpg,AFNE14.jpg,AFSA05.jpg,FS,4,num_2,16,num_2,1.86665807082,,,2017_Oct_11_1544,60.0082569895,FEMA4ImagesEEG,001,201839,
AFNE01.JPG,AFNE01.JPG,AFNE01.JPG,AFNE01.JPG,AFNE01.JPG,AFNE01.JPG,2,5,25,5,,,,,,,,,,,,,,,,,,,,,,,AFNE14.jpg,AFNE17.jpg,AFSA03.jpg,AFSA07.jpg,AFNE14.jpg,FN,3,num_8,16,num_8,0.550117406878,,,2017_Oct_11_1544,60.0082569895,FEMA4ImagesEEG,001,201839,
AFNE01.JPG,AFNE01.JPG,AFNE01.JPG,AFNE01.JPG,AFNE01.JPG,AFNE01.JPG,2,6,26,4,,,,,,,,,,,,,,,,,,,,,,,AFNE17.jpg,AFSA11.jpg,AFSA17.jpg,AFNE18.jpg,AFNE18.jpg,FN,3,num_4,32,num_8,1.21681261936,,,2017_Oct_11_1544,60.0082569895,FEMA4ImagesEEG,001,201839,
AFNE01.JPG,AFNE01.JPG,AFNE01.JPG,AFNE01.JPG,AFNE01.JPG,AFNE01.JPG,2,7,27,6,,,,,,,,,,,,,,,,,,,,,,,AFNE02.jpg,AFNE01.jpg,AFSA16.jpg,AFSA14.jpg,AFNE01.jpg,FN,3,num_6,16,num_6,1.98336609697,,,2017_Oct_11_1544,60.0082569895,FEMA4ImagesEEG,001,201839,
AFNE01.JPG,AFNE01.JPG,AFNE01.JPG,AFNE01.JPG,AFNE01.JPG,AFNE01.JPG,2,8,28,2,,,,,,,,,,,,,,,,,,,,,,,AFSA04.jpg,AFNE10.jpg,AFNE15.jpg,AFSA02.jpg,AFSA02.jpg,FS,4,num_4,32,num_8,1.84958315012,,,2017_Oct_11_1544,60.0082569895,FEMA4ImagesEEG,001,201839,
AFNE01.JPG,AFNE01.JPG,AFNE01.JPG,AFNE01.JPG,AFNE01.JPG,AFNE01.JPG,2,9,29,3,,,,,,,,,,,,,,,,,,,,,,,AFSA02.jpg,AFNE03.jpg,AFNE02.jpg,AFSA13.jpg,AFSA02.jpg,FS,4,num_8,16,num_8,1.08347229403,,,2017_Oct_11_1544,60.0082569895,FEMA4ImagesEEG,001,201839,
AFNE01.JPG,AFNE01.JPG,AFNE01.JPG,AFNE01.JPG,AFNE01.JPG,AFNE01.JPG,3,0,30,9,,,,,,,,,,,,,,,,,,,,,,,AFNE03.jpg,AFNE05.jpg,AFSA15.jpg,AFSA13.jpg,AFNE03.jpg,FN,3,num_8,32,num_6,1.08341295714,,,2017_Oct_11_1544,60.0082569895,FEMA4ImagesEEG,001,201839,
AFNE01.JPG,AFNE01.JPG,AFNE01.JPG,AFNE01.JPG,AFNE01.JPG,AFNE01.JPG,3,1,31,5,,,,,,,,,,,,,,,,,,,,,,,AFSA08.jpg,AFSA17.jpg,AFNE05.jpg,AFNE03.jpg,AFSA08.jpg,FS,4,num_8,32,num_2,1.60026063339,,,2017_Oct_11_1544,60.0082569895,FEMA4ImagesEEG,001,201839,
AFNE01.JPG,AFNE01.JPG,AFNE01.JPG,AFNE01.JPG,AFNE01.JPG,AFNE01.JPG,3,2,32,2,,,,,,,,,,,,,,,,,,,,,,,AFNE13.jpg,AFSA05.jpg,AFSA02.jpg,AFNE12.jpg,AFNE13.jpg,FN,3,num_8,16,num_8,1.70007495699,,,2017_Oct_11_1544,60.0082569895,FEMA4ImagesEEG,001,201839,
AFNE01.JPG,AFNE01.JPG,AFNE01.JPG,AFNE01.JPG,AFNE01.JPG,AFNE01.JPG,3,3,33,1,,,,,,,,,,,,,,,,,,,,,,,AFNE17.jpg,AFSA18.jpg,AFSA11.jpg,AFNE10.jpg,AFNE17.jpg,FN,3,num_8,16,num_8,1.48341212305,,,2017_Oct_11_1544,60.0082569895,FEMA4ImagesEEG,001,201839,
AFNE01.JPG,AFNE01.JPG,AFNE01.JPG,AFNE01.JPG,AFNE01.JPG,AFNE01.JPG,3,4,34,4,,,,,,,,,,,,,,,,,,,,,,,AFSA19.jpg,AFNE18.jpg,AFSA12.jpg,AFNE12.jpg,AFNE12.jpg,FN,3,num_4,32,num_8,1.29997572,,,2017_Oct_11_1544,60.0082569895,FEMA4ImagesEEG,001,201839,
AFNE01.JPG,AFNE01.JPG,AFNE01.JPG,AFNE01.JPG,AFNE01.JPG,AFNE01.JPG,3,5,35,8,,,,,,,,,,,,,,,,,,,,,,,AFNE17.jpg,AFNE02.jpg,AFSA10.jpg,AFSA12.jpg,AFNE17.jpg,FN,3,num_8,32,num_2,1.2833835131,,,2017_Oct_11_1544,60.0082569895,FEMA4ImagesEEG,001,201839,
AFNE01.JPG,AFNE01.JPG,AFNE01.JPG,AFNE01.JPG,AFNE01.JPG,AFNE01.JPG,3,6,36,7,,,,,,,,,,,,,,,,,,,,,,,AFNE14.jpg,AFNE02.jpg,AFSA10.jpg,AFSA08.jpg,AFNE14.jpg,FN,3,num_8,32,num_6,1.08341391932,,,2017_Oct_11_1544,60.0082569895,FEMA4ImagesEEG,001,201839,
AFNE01.JPG,AFNE01.JPG,AFNE01.JPG,AFNE01.JPG,AFNE01.JPG,AFNE01.JPG,3,7,37,0,,,,,,,,,,,,,,,,,,,,,,,AFSA09.jpg,AFNE16.jpg,AFNE19.jpg,AFSA18.jpg,AFNE19.jpg,FN,3,num_2,32,num_4,0.950160835055,,,2017_Oct_11_1544,60.0082569895,FEMA4ImagesEEG,001,201839,
AFNE01.JPG,AFNE01.JPG,AFNE01.JPG,AFNE01.JPG,AFNE01.JPG,AFNE01.JPG,3,8,38,6,,,,,,,,,,,,,,,,,,,,,,,AFNE10.jpg,AFSA17.jpg,AFNE13.jpg,AFSA02.jpg,AFNE13.jpg,FN,3,num_2,32,num_8,1.11674202455,,,2017_Oct_11_1544,60.0082569895,FEMA4ImagesEEG,001,201839,
AFNE01.JPG,AFNE01.JPG,AFNE01.JPG,AFNE01.JPG,AFNE01.JPG,AFNE01.JPG,3,9,39,3,,,,,,,,,,,,,,,,,,,,,,,AFNE06.jpg,AFSA05.jpg,AFNE18.jpg,AFSA04.jpg,AFNE18.jpg,FN,3,num_2,16,num_2,1.14996171976,,,2017_Oct_11_1544,60.0082569895,FEMA4ImagesEEG,001,201839,
AFNE01.JPG,AFNE01.JPG,AFNE01.JPG,AFNE01.JPG,AFNE01.JPG,AFNE01.JPG,4,0,40,6,,,,,,,,,,,,,,,,,,,,,,,AFSA13.jpg,AFSA10.jpg,AFNE09.jpg,AFNE04.jpg,AFSA13.jpg,FS,4,num_8,32,num_4,1.13342147274,,,2017_Oct_11_1544,60.0082569895,FEMA4ImagesEEG,001,201839,
AFNE01.JPG,AFNE01.JPG,AFNE01.JPG,AFNE01.JPG,AFNE01.JPG,AFNE01.JPG,4,1,41,7,,,,,,,,,,,,,,,,,,,,,,,AFSA06.jpg,AFNE16.jpg,AFSA08.jpg,AFNE03.jpg,AFSA06.jpg,FS,4,num_8,32,num_4,1.15010124154,,,2017_Oct_11_1544,60.0082569895,FEMA4ImagesEEG,001,201839,
AFNE01.JPG,AFNE01.JPG,AFNE01.JPG,AFNE01.JPG,AFNE01.JPG,AFNE01.JPG,4,2,42,3,,,,,,,,,,,,,,,,,,,,,,,AFNE12.jpg,AFNE07.jpg,AFSA06.jpg,AFSA08.jpg,AFNE07.jpg,FN,3,num_6,32,num_8,1.00009846722,,,2017_Oct_11_1544,60.0082569895,FEMA4ImagesEEG,001,201839,
AFNE01.JPG,AFNE01.JPG,AFNE01.JPG,AFNE01.JPG,AFNE01.JPG,AFNE01.JPG,4,3,43,4,,,,,,,,,,,,,,,,,,,,,,,AFSA05.jpg,AFSA14.jpg,AFNE15.jpg,AFNE20.jpg,AFNE15.jpg,FN,3,num_2,16,num_2,1.05008388951,,,2017_Oct_11_1544,60.0082569895,FEMA4ImagesEEG,001,201839,
AFNE01.JPG,AFNE01.JPG,AFNE01.JPG,AFNE01.JPG,AFNE01.JPG,AFNE01.JPG,4,4,44,9,,,,,,,,,,,,,,,,,,,,,,,AFNE12.jpg,AFSA01.jpg,AFSA08.jpg,AFNE03.jpg,AFNE03.jpg,FN,3,num_4,16,num_4,1.983316703,,,2017_Oct_11_1544,60.0082569895,FEMA4ImagesEEG,001,201839,
AFNE01.JPG,AFNE01.JPG,AFNE01.JPG,AFNE01.JPG,AFNE01.JPG,AFNE01.JPG,4,5,45,1,,,,,,,,,,,,,,,,,,,,,,,AFNE15.jpg,AFNE12.jpg,AFSA16.jpg,AFSA12.jpg,AFNE15.jpg,FN,3,num_8,16,num_8,1.21678150771,,,2017_Oct_11_1544,60.0082569895,FEMA4ImagesEEG,001,201839,
AFNE01.JPG,AFNE01.JPG,AFNE01.JPG,AFNE01.JPG,AFNE01.JPG,AFNE01.JPG,4,6,46,2,,,,,,,,,,,,,,,,,,,,,,,AFNE20.jpg,AFSA19.jpg,AFSA16.jpg,AFNE06.jpg,AFSA19.jpg,FS,4,num_6,16,num_6,2.3166346408,,,2017_Oct_11_1544,60.0082569895,FEMA4ImagesEEG,001,201839,
AFNE01.JPG,AFNE01.JPG,AFNE01.JPG,AFNE01.JPG,AFNE01.JPG,AFNE01.JPG,4,7,47,0,,,,,,,,,,,,,,,,,,,,,,,AFSA08.jpg,AFNE20.jpg,AFNE05.jpg,AFSA07.jpg,AFNE20.jpg,FN,3,num_6,32,num_4,1.14995947445,,,2017_Oct_11_1544,60.0082569895,FEMA4ImagesEEG,001,201839,
AFNE01.JPG,AFNE01.JPG,AFNE01.JPG,AFNE01.JPG,AFNE01.JPG,AFNE01.JPG,4,8,48,5,,,,,,,,,,,,,,,,,,,,,,,AFSA14.jpg,AFNE14.jpg,AFNE06.jpg,AFSA06.jpg,AFSA14.jpg,FS,4,num_8,32,num_2,2.64998401119,,,2017_Oct_11_1544,60.0082569895,FEMA4ImagesEEG,001,201839,
AFNE01.JPG,AFNE01.JPG,AFNE01.JPG,AFNE01.JPG,AFNE01.JPG,AFNE01.JPG,4,9,49,8,,,,,,,,,,,,,,,,,,,,,,,AFSA05.jpg,AFNE15.jpg,AFSA08.jpg,AFNE05.jpg,AFSA08.jpg,FS,4,num_2,16,num_2,1.73333891423,,,2017_Oct_11_1544,60.0082569895,FEMA4ImagesEEG,001,201839,
AFNE01.JPG,AFNE01.JPG,AFNE01.JPG,AFNE01.JPG,AFNE01.JPG,AFNE01.JPG,5,0,50,2,,,,,,,,,,,,,,,,,,,,,,,AFSA10.jpg,AFSA09.jpg,AFNE03.jpg,AFNE08.jpg,AFSA09.jpg,FS,4,num_6,32,num_4,0.916815409902,,,2017_Oct_11_1544,60.0082569895,FEMA4ImagesEEG,001,201839,
AFNE01.JPG,AFNE01.JPG,AFNE01.JPG,AFNE01.JPG,AFNE01.JPG,AFNE01.JPG,5,1,51,7,,,,,,,,,,,,,,,,,,,,,,,AFSA18.jpg,AFSA05.jpg,AFNE02.jpg,AFNE17.jpg,AFSA05.jpg,FS,4,num_6,16,num_6,0.616609719233,,,2017_Oct_11_1544,60.0082569895,FEMA4ImagesEEG,001,201839,
AFNE01.JPG,AFNE01.JPG,AFNE01.JPG,AFNE01.JPG,AFNE01.JPG,AFNE01.JPG,5,2,52,4,,,,,,,,,,,,,,,,,,,,,,,AFNE16.jpg,AFNE20.jpg,AFSA04.jpg,AFSA06.jpg,AFNE20.jpg,FN,3,num_6,32,num_2,1.11676608003,,,2017_Oct_11_1544,60.0082569895,FEMA4ImagesEEG,001,201839,
AFNE01.JPG,AFNE01.JPG,AFNE01.JPG,AFNE01.JPG,AFNE01.JPG,AFNE01.JPG,5,3,53,1,,,,,,,,,,,,,,,,,,,,,,,AFSA18.jpg,AFSA02.jpg,AFNE13.jpg,AFNE02.jpg,AFNE13.jpg,FN,3,num_2,32,num_8,2.01655917056,,,2017_Oct_11_1544,60.0082569895,FEMA4ImagesEEG,001,201839,
AFNE01.JPG,AFNE01.JPG,AFNE01.JPG,AFNE01.JPG,AFNE01.JPG,AFNE01.JPG,5,4,54,0,,,,,,,,,,,,,,,,,,,,,,,AFSA06.jpg,AFSA10.jpg,AFNE09.jpg,AFNE18.jpg,AFNE09.jpg,FN,3,num_2,32,num_4,1.28339955013,,,2017_Oct_11_1544,60.0082569895,FEMA4ImagesEEG,001,201839,
AFNE01.JPG,AFNE01.JPG,AFNE01.JPG,AFNE01.JPG,AFNE01.JPG,AFNE01.JPG,5,5,55,6,,,,,,,,,,,,,,,,,,,,,,,AFSA16.jpg,AFNE10.jpg,AFNE07.jpg,AFSA09.jpg,AFNE07.jpg,FN,3,num_2,16,num_2,1.0001600493,,,2017_Oct_11_1544,60.0082569895,FEMA4ImagesEEG,001,201839,
AFNE01.JPG,AFNE01.JPG,AFNE01.JPG,AFNE01.JPG,AFNE01.JPG,AFNE01.JPG,5,6,56,8,,,,,,,,,,,,,,,,,,,,,,,AFNE01.jpg,AFSA15.jpg,AFSA06.jpg,AFNE16.jpg,AFNE01.jpg,FN,3,num_8,32,num_6,1.51670077734,,,2017_Oct_11_1544,60.0082569895,FEMA4ImagesEEG,001,201839,
AFNE01.JPG,AFNE01.JPG,AFNE01.JPG,AFNE01.JPG,AFNE01.JPG,AFNE01.JPG,5,7,57,9,,,,,,,,,,,,,,,,,,,,,,,AFSA03.jpg,AFNE08.jpg,AFSA16.jpg,AFNE09.jpg,AFSA03.jpg,FS,4,num_8,16,num_8,0.816735513625,,,2017_Oct_11_1544,60.0082569895,FEMA4ImagesEEG,001,201839,
AFNE01.JPG,AFNE01.JPG,AFNE01.JPG,AFNE01.JPG,AFNE01.JPG,AFNE01.JPG,5,8,58,3,,,,,,,,,,,,,,,,,,,,,,,AFNE17.jpg,AFNE15.jpg,AFSA14.jpg,AFSA01.jpg,AFNE15.jpg,FN,3,num_6,16,num_6,0.533469712129,,,2017_Oct_11_1544,60.0082569895,FEMA4ImagesEEG,001,201839,
AFNE01.JPG,AFNE01.JPG,AFNE01.JPG,AFNE01.JPG,AFNE01.JPG,AFNE01.JPG,5,9,59,5,,,,,,,,,,,,,,,,,,,,,,,AFNE03.jpg,AFSA20.jpg,AFNE19.jpg,AFSA02.jpg,AFNE19.jpg,FN,3,num_2,16,num_2,0.81662100926,,,2017_Oct_11_1544,60.0082569895,FEMA4ImagesEEG,001,201839,
,,,,,,,,,,,,,,,,,,,,,,,,,,,,,,,,,,,,,,,,,,,space,10.6326755916,2017_Oct_11_1544,60.0082569895,FEMA4ImagesEEG,001,201839,
AFNE01.JPG,AFNE01.JPG,AFNE01.JPG,AFNE01.JPG,AFNE01.JPG,AFNE01.JPG,,,,,0,0,0,8,,,,,,,,,,,,,,,,,,,AMSA16.jpg,AMNE02.jpg,AMNE11.jpg,AMSA05.jpg,AMNE02.jpg,MN,1,num_6,16,num_6,0.800119892694,,,2017_Oct_11_1544,60.0082569895,FEMA4ImagesEEG,001,201839,
AFNE01.JPG,AFNE01.JPG,AFNE01.JPG,AFNE01.JPG,AFNE01.JPG,AFNE01.JPG,,,,,0,1,1,4,,,,,,,,,,,,,,,,,,,AMSA07.jpg,AMNE18.jpg,AMNE05.jpg,AMSA08.jpg,AMSA07.jpg,MS,2,num_8,32,num_2,1.31671065616,,,2017_Oct_11_1544,60.0082569895,FEMA4ImagesEEG,001,201839,
AFNE01.JPG,AFNE01.JPG,AFNE01.JPG,AFNE01.JPG,AFNE01.JPG,AFNE01.JPG,,,,,0,2,2,1,,,,,,,,,,,,,,,,,,,AMNE15.jpg,AMNE02.jpg,AMSA12.jpg,AMSA01.jpg,AMNE15.jpg,MN,1,num_8,16,num_8,0.783455519238,,,2017_Oct_11_1544,60.0082569895,FEMA4ImagesEEG,001,201839,
AFNE01.JPG,AFNE01.JPG,AFNE01.JPG,AFNE01.JPG,AFNE01.JPG,AFNE01.JPG,,,,,0,3,3,6,,,,,,,,,,,,,,,,,,,AMSA03.jpg,AMNE10.jpg,AMSA08.jpg,AMNE04.jpg,AMNE04.jpg,MN,1,num_4,16,num_4,0.783461613348,,,2017_Oct_11_1544,60.0082569895,FEMA4ImagesEEG,001,201839,
AFNE01.JPG,AFNE01.JPG,AFNE01.JPG,AFNE01.JPG,AFNE01.JPG,AFNE01.JPG,,,,,0,4,4,9,,,,,,,,,,,,,,,,,,,AMNE03.jpg,AMSA01.jpg,AMNE14.jpg,AMSA04.jpg,AMNE14.jpg,MN,1,num_2,16,num_2,0.733495756169,,,2017_Oct_11_1544,60.0082569895,FEMA4ImagesEEG,001,201839,
AFNE01.JPG,AFNE01.JPG,AFNE01.JPG,AFNE01.JPG,AFNE01.JPG,AFNE01.JPG,,,,,0,5,5,2,,,,,,,,,,,,,,,,,,,AMSA05.jpg,AMNE20.jpg,AMSA03.jpg,AMNE01.jpg,AMSA03.jpg,MS,2,num_2,32,num_4,1.05009768147,,,2017_Oct_11_1544,60.0082569895,FEMA4ImagesEEG,001,201839,
AFNE01.JPG,AFNE01.JPG,AFNE01.JPG,AFNE01.JPG,AFNE01.JPG,AFNE01.JPG,,,,,0,6,6,5,,,,,,,,,,,,,,,,,,,AMSA12.jpg,AMNE07.jpg,AMSA13.jpg,AMNE20.jpg,AMNE20.jpg,MN,1,num_4,32,num_6,0.716783592477,,,2017_Oct_11_1544,60.0082569895,FEMA4ImagesEEG,001,201839,
AFNE01.JPG,AFNE01.JPG,AFNE01.JPG,AFNE01.JPG,AFNE01.JPG,AFNE01.JPG,,,,,0,7,7,7,,,,,,,,,,,,,,,,,,,AMSA09.jpg,AMNE17.jpg,AMNE04.jpg,AMSA17.jpg,AMNE04.jpg,MN,1,num_2,16,num_2,0.900089133647,,,2017_Oct_11_1544,60.0082569895,FEMA4ImagesEEG,001,201839,
AFNE01.JPG,AFNE01.JPG,AFNE01.JPG,AFNE01.JPG,AFNE01.JPG,AFNE01.JPG,,,,,0,8,8,3,,,,,,,,,,,,,,,,,,,AMSA20.jpg,AMNE16.jpg,AMSA09.jpg,AMNE06.jpg,AMNE16.jpg,MN,1,num_6,32,num_4,3.94988948898,,,2017_Oct_11_1544,60.0082569895,FEMA4ImagesEEG,001,201839,
AFNE01.JPG,AFNE01.JPG,AFNE01.JPG,AFNE01.JPG,AFNE01.JPG,AFNE01.JPG,,,,,0,9,9,0,,,,,,,,,,,,,,,,,,,AMNE03.jpg,AMSA06.jpg,AMSA15.jpg,AMNE14.jpg,AMNE03.jpg,MN,1,num_8,32,num_6,1.13342660456,,,2017_Oct_11_1544,60.0082569895,FEMA4ImagesEEG,001,201839,
AFNE01.JPG,AFNE01.JPG,AFNE01.JPG,AFNE01.JPG,AFNE01.JPG,AFNE01.JPG,,,,,1,0,10,2,,,,,,,,,,,,,,,,,,,AMNE08.jpg,AMSA14.jpg,AMSA05.jpg,AMNE04.jpg,AMNE08.jpg,MN,1,num_8,16,num_8,0.916760242661,,,2017_Oct_11_1544,60.0082569895,FEMA4ImagesEEG,001,201839,
AFNE01.JPG,AFNE01.JPG,AFNE01.JPG,AFNE01.JPG,AFNE01.JPG,AFNE01.JPG,,,,,1,1,11,0,,,,,,,,,,,,,,,,,,,AMSA14.jpg,AMNE01.jpg,AMNE14.jpg,AMSA02.jpg,AMNE14.jpg,MN,1,num_2,32,num_4,1.00008884491,,,2017_Oct_11_1544,60.0082569895,FEMA4ImagesEEG,001,201839,
AFNE01.JPG,AFNE01.JPG,AFNE01.JPG,AFNE01.JPG,AFNE01.JPG,AFNE01.JPG,,,,,1,2,12,1,,,,,,,,,,,,,,,,,,,AMNE19.jpg,AMSA04.jpg,AMNE16.jpg,AMSA15.jpg,AMSA04.jpg,MS,2,num_6,16,num_6,1.63339533238,,,2017_Oct_11_1544,60.0082569895,FEMA4ImagesEEG,001,201839,
AFNE01.JPG,AFNE01.JPG,AFNE01.JPG,AFNE01.JPG,AFNE01.JPG,AFNE01.JPG,,,,,1,3,13,9,,,,,,,,,,,,,,,,,,,AMNE15.jpg,AMSA19.jpg,AMSA08.jpg,AMNE13.jpg,AMNE15.jpg,MN,1,num_8,16,num_8,1.01673301181,,,2017_Oct_11_1544,60.0082569895,FEMA4ImagesEEG,001,201839,
AFNE01.JPG,AFNE01.JPG,AFNE01.JPG,AFNE01.JPG,AFNE01.JPG,AFNE01.JPG,,,,,1,4,14,5,,,,,,,,,,,,,,,,,,,AMNE07.jpg,AMNE01.jpg,AMSA02.jpg,AMSA11.jpg,AMSA11.jpg,MS,2,num_4,16,num_4,0.766776391887,,,2017_Oct_11_1544,60.0082569895,FEMA4ImagesEEG,001,201839,
AFNE01.JPG,AFNE01.JPG,AFNE01.JPG,AFNE01.JPG,AFNE01.JPG,AFNE01.JPG,,,,,1,5,15,6,,,,,,,,,,,,,,,,,,,AMNE01.jpg,AMSA10.jpg,AMNE06.jpg,AMSA18.jpg,AMSA10.jpg,MS,2,num_6,32,num_8,0.583293481381,,,2017_Oct_11_1544,60.0082569895,FEMA4ImagesEEG,001,201839,
AFNE01.JPG,AFNE01.JPG,AFNE01.JPG,AFNE01.JPG,AFNE01.JPG,AFNE01.JPG,,,,,1,6,16,3,,,,,,,,,,,,,,,,,,,AMNE20.jpg,AMNE14.jpg,AMSA13.jpg,AMSA16.jpg,AMSA16.jpg,MS,2,num_4,32,num_2,0.666791755357,,,2017_Oct_11_1544,60.0082569895,FEMA4ImagesEEG,001,201839,
AFNE01.JPG,AFNE01.JPG,AFNE01.JPG,AFNE01.JPG,AFNE01.JPG,AFNE01.JPG,,,,,1,7,17,7,,,,,,,,,,,,,,,,,,,AMNE08.jpg,AMNE11.jpg,AMSA10.jpg,AMSA08.jpg,AMSA08.jpg,MS,2,num_4,32,num_6,2.88327240874,,,2017_Oct_11_1544,60.0082569895,FEMA4ImagesEEG,001,201839,
AFNE01.JPG,AFNE01.JPG,AFNE01.JPG,AFNE01.JPG,AFNE01.JPG,AFNE01.JPG,,,,,1,8,18,8,,,,,,,,,,,,,,,,,,,AMNE13.jpg,AMSA13.jpg,AMSA12.jpg,AMNE08.jpg,AMSA13.jpg,MS,2,num_6,32,num_8,1.66642418713,,,2017_Oct_11_1544,60.0082569895,FEMA4ImagesEEG,001,201839,
AFNE01.JPG,AFNE01.JPG,AFNE01.JPG,AFNE01.JPG,AFNE01.JPG,AFNE01.JPG,,,,,1,9,19,4,,,,,,,,,,,,,,,,,,,AMSA15.jpg,AMNE18.jpg,AMNE07.jpg,AMSA05.jpg,AMSA05.jpg,MS,2,num_4,16,num_4,2.33331120235,,,2017_Oct_11_1544,60.0082569895,FEMA4ImagesEEG,001,201839,
AFNE01.JPG,AFNE01.JPG,AFNE01.JPG,AFNE01.JPG,AFNE01.JPG,AFNE01.JPG,,,,,2,0,20,6,,,,,,,,,,,,,,,,,,,AMSA13.jpg,AMNE05.jpg,AMNE01.jpg,AMSA05.jpg,AMNE01.jpg,MN,1,num_2,16,num_2,1.48343361274,,,2017_Oct_11_1544,60.0082569895,FEMA4ImagesEEG,001,201839,
AFNE01.JPG,AFNE01.JPG,AFNE01.JPG,AFNE01.JPG,AFNE01.JPG,AFNE01.JPG,,,,,2,1,21,0,,,,,,,,,,,,,,,,,,,AMNE13.jpg,AMSA16.jpg,AMNE09.jpg,AMSA14.jpg,AMNE09.jpg,MN,1,num_2,32,num_8,1.30009214859,,,2017_Oct_11_1544,60.0082569895,FEMA4ImagesEEG,001,201839,
AFNE01.JPG,AFNE01.JPG,AFNE01.JPG,AFNE01.JPG,AFNE01.JPG,AFNE01.JPG,,,,,2,2,22,5,,,,,,,,,,,,,,,,,,,AMNE11.jpg,AMSA10.jpg,AMNE14.jpg,AMSA14.jpg,AMNE14.jpg,MN,1,num_2,16,num_2,0.683506164118,,,2017_Oct_11_1544,60.0082569895,FEMA4ImagesEEG,001,201839,
AFNE01.JPG,AFNE01.JPG,AFNE01.JPG,AFNE01.JPG,AFNE01.JPG,AFNE01.JPG,,,,,2,3,23,4,,,,,,,,,,,,,,,,,,,AMNE15.jpg,AMNE01.jpg,AMSA15.jpg,AMSA18.jpg,AMSA15.jpg,MS,2,num_2,32,num_8,1.81676277646,,,2017_Oct_11_1544,60.0082569895,FEMA4ImagesEEG,001,201839,
AFNE01.JPG,AFNE01.JPG,AFNE01.JPG,AFNE01.JPG,AFNE01.JPG,AFNE01.JPG,,,,,2,4,24,7,,,,,,,,,,,,,,,,,,,AMSA02.jpg,AMNE16.jpg,AMNE08.jpg,AMSA12.jpg,AMSA12.jpg,MS,2,num_4,16,num_4,0.900218712748,,,2017_Oct_11_1544,60.0082569895,FEMA4ImagesEEG,001,201839,
AFNE01.JPG,AFNE01.JPG,AFNE01.JPG,AFNE01.JPG,AFNE01.JPG,AFNE01.JPG,,,,,2,5,25,8,,,,,,,,,,,,,,,,,,,AMSA12.jpg,AMSA16.jpg,AMNE12.jpg,AMNE05.jpg,AMNE05.jpg,MN,1,num_4,16,num_4,2.18342549796,,,2017_Oct_11_1544,60.0082569895,FEMA4ImagesEEG,001,201839,
AFNE01.JPG,AFNE01.JPG,AFNE01.JPG,AFNE01.JPG,AFNE01.JPG,AFNE01.JPG,,,,,2,6,26,2,,,,,,,,,,,,,,,,,,,AMNE11.jpg,AMNE02.jpg,AMSA15.jpg,AMSA12.jpg,AMNE11.jpg,MN,1,num_8,32,num_4,3.84990356944,,,2017_Oct_11_1544,60.0082569895,FEMA4ImagesEEG,001,201839,
AFNE01.JPG,AFNE01.JPG,AFNE01.JPG,AFNE01.JPG,AFNE01.JPG,AFNE01.JPG,,,,,2,7,27,9,,,,,,,,,,,,,,,,,,,AMSA07.jpg,AMNE13.jpg,AMNE10.jpg,AMSA17.jpg,AMSA17.jpg,MS,2,num_4,16,num_4,2.13305999862,,,2017_Oct_11_1544,60.0082569895,FEMA4ImagesEEG,001,201839,
AFNE01.JPG,AFNE01.JPG,AFNE01.JPG,AFNE01.JPG,AFNE01.JPG,AFNE01.JPG,,,,,2,8,28,1,,,,,,,,,,,,,,,,,,,AMSA09.jpg,AMSA14.jpg,AMNE17.jpg,AMNE15.jpg,AMSA14.jpg,MS,2,num_6,16,num_6,0.800149079994,,,2017_Oct_11_1544,60.0082569895,FEMA4ImagesEEG,001,201839,
AFNE01.JPG,AFNE01.JPG,AFNE01.JPG,AFNE01.JPG,AFNE01.JPG,AFNE01.JPG,,,,,2,9,29,3,,,,,,,,,,,,,,,,,,,AMSA14.jpg,AMNE19.jpg,AMNE12.jpg,AMSA11.jpg,AMNE19.jpg,MN,1,num_6,32,num_4,1.0168128761,,,2017_Oct_11_1544,60.0082569895,FEMA4ImagesEEG,001,201839,
AFNE01.JPG,AFNE01.JPG,AFNE01.JPG,AFNE01.JPG,AFNE01.JPG,AFNE01.JPG,,,,,3,0,30,2,,,,,,,,,,,,,,,,,,,AMNE11.jpg,AMSA13.jpg,AMSA01.jpg,AMNE18.jpg,AMSA13.jpg,MS,2,num_6,32,num_8,1.55005999445,,,2017_Oct_11_1544,60.0082569895,FEMA4ImagesEEG,001,201839,
AFNE01.JPG,AFNE01.JPG,AFNE01.JPG,AFNE01.JPG,AFNE01.JPG,AFNE01.JPG,,,,,3,1,31,9,,,,,,,,,,,,,,,,,,,AMNE12.jpg,AMNE07.jpg,AMSA19.jpg,AMSA13.jpg,AMNE07.jpg,MN,1,num_6,32,num_8,1.1335921064,,,2017_Oct_11_1544,60.0082569895,FEMA4ImagesEEG,001,201839,
AFNE01.JPG,AFNE01.JPG,AFNE01.JPG,AFNE01.JPG,AFNE01.JPG,AFNE01.JPG,,,,,3,2,32,8,,,,,,,,,,,,,,,,,,,AMSA10.jpg,AMNE13.jpg,AMNE05.jpg,AMSA12.jpg,AMNE13.jpg,MN,1,num_6,16,num_6,1.33354438026,,,2017_Oct_11_1544,60.0082569895,FEMA4ImagesEEG,001,201839,
AFNE01.JPG,AFNE01.JPG,AFNE01.JPG,AFNE01.JPG,AFNE01.JPG,AFNE01.JPG,,,,,3,3,33,5,,,,,,,,,,,,,,,,,,,AMNE13.jpg,AMNE15.jpg,AMSA14.jpg,AMSA06.jpg,AMSA06.jpg,MS,2,num_4,16,num_4,0.900169960223,,,2017_Oct_11_1544,60.0082569895,FEMA4ImagesEEG,001,201839,
AFNE01.JPG,AFNE01.JPG,AFNE01.JPG,AFNE01.JPG,AFNE01.JPG,AFNE01.JPG,,,,,3,4,34,6,,,,,,,,,,,,,,,,,,,AMNE15.jpg,AMSA19.jpg,AMNE08.jpg,AMSA16.jpg,AMNE15.jpg,MN,1,num_8,16,num_8,1.16675182316,,,2017_Oct_11_1544,60.0082569895,FEMA4ImagesEEG,001,201839,
AFNE01.JPG,AFNE01.JPG,AFNE01.JPG,AFNE01.JPG,AFNE01.JPG,AFNE01.JPG,,,,,3,5,35,3,,,,,,,,,,,,,,,,,,,AMSA12.jpg,AMNE20.jpg,AMSA04.jpg,AMNE16.jpg,AMSA04.jpg,MS,2,num_2,16,num_2,0.900148791261,,,2017_Oct_11_1544,60.0082569895,FEMA4ImagesEEG,001,201839,
AFNE01.JPG,AFNE01.JPG,AFNE01.JPG,AFNE01.JPG,AFNE01.JPG,AFNE01.JPG,,,,,3,6,36,0,,,,,,,,,,,,,,,,,,,AMSA04.jpg,AMSA11.jpg,AMNE10.jpg,AMNE18.jpg,AMNE10.jpg,MN,1,num_2,16,num_2,1.18351626745,,,2017_Oct_11_1544,60.0082569895,FEMA4ImagesEEG,001,201839,
AFNE01.JPG,AFNE01.JPG,AFNE01.JPG,AFNE01.JPG,AFNE01.JPG,AFNE01.JPG,,,,,3,7,37,1,,,,,,,,,,,,,,,,,,,AMNE11.jpg,AMSA16.jpg,AMNE06.jpg,AMSA18.jpg,AMSA18.jpg,MS,2,num_4,32,num_8,0.916737790802,,,2017_Oct_11_1544,60.0082569895,FEMA4ImagesEEG,001,201839,
AFNE01.JPG,AFNE01.JPG,AFNE01.JPG,AFNE01.JPG,AFNE01.JPG,AFNE01.JPG,,,,,3,8,38,7,,,,,,,,,,,,,,,,,,,AMNE17.jpg,AMNE07.jpg,AMSA19.jpg,AMSA20.jpg,AMSA20.jpg,MS,2,num_4,32,num_2,1.31644989445,,,2017_Oct_11_1544,60.0082569895,FEMA4ImagesEEG,001,201839,
AFNE01.JPG,AFNE01.JPG,AFNE01.JPG,AFNE01.JPG,AFNE01.JPG,AFNE01.JPG,,,,,3,9,39,4,,,,,,,,,,,,,,,,,,,AMNE02.jpg,AMSA03.jpg,AMSA04.jpg,AMNE13.jpg,AMSA04.jpg,MS,2,num_2,32,num_6,0.95014511887,,,2017_Oct_11_1544,60.0082569895,FEMA4ImagesEEG,001,201839,
AFNE01.JPG,AFNE01.JPG,AFNE01.JPG,AFNE01.JPG,AFNE01.JPG,AFNE01.JPG,,,,,4,0,40,3,,,,,,,,,,,,,,,,,,,AMNE07.jpg,AMSA01.jpg,AMSA09.jpg,AMNE06.jpg,AMSA01.jpg,MS,2,num_6,32,num_4,0.883507831953,,,2017_Oct_11_1544,60.0082569895,FEMA4ImagesEEG,001,201839,
AFNE01.JPG,AFNE01.JPG,AFNE01.JPG,AFNE01.JPG,AFNE01.JPG,AFNE01.JPG,,,,,4,1,41,9,,,,,,,,,,,,,,,,,,,AMSA10.jpg,AMNE19.jpg,AMNE01.jpg,AMSA16.jpg,AMNE01.jpg,MN,1,num_2,32,num_6,1.88364895759,,,2017_Oct_11_1544,60.0082569895,FEMA4ImagesEEG,001,201839,
AFNE01.JPG,AFNE01.JPG,AFNE01.JPG,AFNE01.JPG,AFNE01.JPG,AFNE01.JPG,,,,,4,2,42,0,,,,,,,,,,,,,,,,,,,AMSA06.jpg,AMSA07.jpg,AMNE01.jpg,AMNE08.jpg,AMSA06.jpg,MS,2,num_8,32,num_6,1.01673974725,,,2017_Oct_11_1544,60.0082569895,FEMA4ImagesEEG,001,201839,
AFNE01.JPG,AFNE01.JPG,AFNE01.JPG,AFNE01.JPG,AFNE01.JPG,AFNE01.JPG,,,,,4,3,43,5,,,,,,,,,,,,,,,,,,,AMNE18.jpg,AMNE09.jpg,AMSA19.jpg,AMSA12.jpg,AMNE18.jpg,MN,1,num_8,16,num_8,0.916916442919,,,2017_Oct_11_1544,60.0082569895,FEMA4ImagesEEG,001,201839,
AFNE01.JPG,AFNE01.JPG,AFNE01.JPG,AFNE01.JPG,AFNE01.JPG,AFNE01.JPG,,,,,4,4,44,6,,,,,,,,,,,,,,,,,,,AMSA01.jpg,AMNE01.jpg,AMSA07.jpg,AMNE13.jpg,AMSA07.jpg,MS,2,num_2,32,num_4,1.23339616624,,,2017_Oct_11_1544,60.0082569895,FEMA4ImagesEEG,001,201839,
AFNE01.JPG,AFNE01.JPG,AFNE01.JPG,AFNE01.JPG,AFNE01.JPG,AFNE01.JPG,,,,,4,5,45,4,,,,,,,,,,,,,,,,,,,AMSA10.jpg,AMNE11.jpg,AMNE08.jpg,AMSA02.jpg,AMSA10.jpg,MS,2,num_8,32,num_2,1.35007789172,,,2017_Oct_11_1544,60.0082569895,FEMA4ImagesEEG,001,201839,
AFNE01.JPG,AFNE01.JPG,AFNE01.JPG,AFNE01.JPG,AFNE01.JPG,AFNE01.JPG,,,,,4,6,46,1,,,,,,,,,,,,,,,,,,,AMSA01.jpg,AMNE11.jpg,AMNE06.jpg,AMSA02.jpg,AMSA01.jpg,MS,2,num_8,16,num_8,0.733413325856,,,2017_Oct_11_1544,60.0082569895,FEMA4ImagesEEG,001,201839,
AFNE01.JPG,AFNE01.JPG,AFNE01.JPG,AFNE01.JPG,AFNE01.JPG,AFNE01.JPG,,,,,4,7,47,2,,,,,,,,,,,,,,,,,,,AMSA14.jpg,AMNE14.jpg,AMSA15.jpg,AMNE07.jpg,AMNE14.jpg,MN,1,num_6,16,num_6,1.26682658761,,,2017_Oct_11_1544,60.0082569895,FEMA4ImagesEEG,001,201839,
AFNE01.JPG,AFNE01.JPG,AFNE01.JPG,AFNE01.JPG,AFNE01.JPG,AFNE01.JPG,,,,,4,8,48,7,,,,,,,,,,,,,,,,,,,AMNE01.jpg,AMSA01.jpg,AMSA19.jpg,AMNE06.jpg,AMSA01.jpg,MS,2,num_6,32,num_8,0.916760242661,,,2017_Oct_11_1544,60.0082569895,FEMA4ImagesEEG,001,201839,
AFNE01.JPG,AFNE01.JPG,AFNE01.JPG,AFNE01.JPG,AFNE01.JPG,AFNE01.JPG,,,,,4,9,49,8,,,,,,,,,,,,,,,,,,,AMSA20.jpg,AMNE15.jpg,AMNE11.jpg,AMSA03.jpg,AMSA03.jpg,MS,2,num_4,16,num_4,0.950103101903,,,2017_Oct_11_1544,60.0082569895,FEMA4ImagesEEG,001,201839,
AFNE01.JPG,AFNE01.JPG,AFNE01.JPG,AFNE01.JPG,AFNE01.JPG,AFNE01.JPG,,,,,5,0,50,2,,,,,,,,,,,,,,,,,,,AMNE04.jpg,AMNE18.jpg,AMSA16.jpg,AMSA14.jpg,AMNE04.jpg,MN,1,num_8,32,num_2,1.08344182372,,,2017_Oct_11_1544,60.0082569895,FEMA4ImagesEEG,001,201839,
AFNE01.JPG,AFNE01.JPG,AFNE01.JPG,AFNE01.JPG,AFNE01.JPG,AFNE01.JPG,,,,,5,1,51,7,,,,,,,,,,,,,,,,,,,AMSA04.jpg,AMNE04.jpg,AMNE10.jpg,AMSA18.jpg,AMNE10.jpg,MN,1,num_2,32,num_4,2.08375294157,,,2017_Oct_11_1544,60.0082569895,FEMA4ImagesEEG,001,201839,
AFNE01.JPG,AFNE01.JPG,AFNE01.JPG,AFNE01.JPG,AFNE01.JPG,AFNE01.JPG,,,,,5,2,52,0,,,,,,,,,,,,,,,,,,,AMNE14.jpg,AMSA16.jpg,AMSA11.jpg,AMNE13.jpg,AMNE14.jpg,MN,1,num_8,32,num_2,1.20008570177,,,2017_Oct_11_1544,60.0082569895,FEMA4ImagesEEG,001,201839,
AFNE01.JPG,AFNE01.JPG,AFNE01.JPG,AFNE01.JPG,AFNE01.JPG,AFNE01.JPG,,,,,5,3,53,3,,,,,,,,,,,,,,,,,,,AMSA04.jpg,AMNE06.jpg,AMNE08.jpg,AMSA16.jpg,AMSA04.jpg,MS,2,num_8,32,num_4,1.65006868646,,,2017_Oct_11_1544,60.0082569895,FEMA4ImagesEEG,001,201839,
AFNE01.JPG,AFNE01.JPG,AFNE01.JPG,AFNE01.JPG,AFNE01.JPG,AFNE01.JPG,,,,,5,4,54,1,,,,,,,,,,,,,,,,,,,AMSA17.jpg,AMSA15.jpg,AMNE10.jpg,AMNE03.jpg,AMSA15.jpg,MS,2,num_6,16,num_6,0.65010428871,,,2017_Oct_11_1544,60.0082569895,FEMA4ImagesEEG,001,201839,
AFNE01.JPG,AFNE01.JPG,AFNE01.JPG,AFNE01.JPG,AFNE01.JPG,AFNE01.JPG,,,,,5,5,55,4,,,,,,,,,,,,,,,,,,,AMSA10.jpg,AMNE12.jpg,AMNE03.jpg,AMSA03.jpg,AMSA10.jpg,MS,2,num_8,16,num_8,1.53340428101,,,2017_Oct_11_1544,60.0082569895,FEMA4ImagesEEG,001,201839,
AFNE01.JPG,AFNE01.JPG,AFNE01.JPG,AFNE01.JPG,AFNE01.JPG,AFNE01.JPG,,,,,5,6,56,8,,,,,,,,,,,,,,,,,,,AMNE05.jpg,AMNE15.jpg,AMSA16.jpg,AMSA09.jpg,AMSA16.jpg,MS,2,num_2,32,num_8,0.866750764661,,,2017_Oct_11_1544,60.0082569895,FEMA4ImagesEEG,001,201839,
AFNE01.JPG,AFNE01.JPG,AFNE01.JPG,AFNE01.JPG,AFNE01.JPG,AFNE01.JPG,,,,,5,7,57,5,,,,,,,,,,,,,,,,,,,AMNE08.jpg,AMSA11.jpg,AMNE11.jpg,AMSA18.jpg,AMSA18.jpg,MS,2,num_4,32,num_2,1.60007300053,,,2017_Oct_11_1544,60.0082569895,FEMA4ImagesEEG,001,201839,
AFNE01.JPG,AFNE01.JPG,AFNE01.JPG,AFNE01.JPG,AFNE01.JPG,AFNE01.JPG,,,,,5,8,58,6,,,,,,,,,,,,,,,,,,,AMSA09.jpg,AMNE16.jpg,AMSA06.jpg,AMNE02.jpg,AMNE16.jpg,MN,1,num_6,16,num_6,1.18340144248,,,2017_Oct_11_1544,60.0082569895,FEMA4ImagesEEG,001,201839,
AFNE01.JPG,AFNE01.JPG,AFNE01.JPG,AFNE01.JPG,AFNE01.JPG,AFNE01.JPG,,,,,5,9,59,9,,,,,,,,,,,,,,,,,,,AMSA16.jpg,AMNE08.jpg,AMNE12.jpg,AMSA01.jpg,AMSA01.jpg,MS,2,num_4,16,num_4,0.866494172602,,,2017_Oct_11_1544,60.0082569895,FEMA4ImagesEEG,001,201839,
,,,,,,,,,,,,,,,,,,,,,,,,,,,,,,,,,,,,,,,,,,,space,8.98280897131,2017_Oct_11_1544,60.0082569895,FEMA4ImagesEEG,001,201839,
AFNE01.JPG,AFNE01.JPG,AFNE01.JPG,AFNE01.JPG,AFNE01.JPG,AFNE01.JPG,,,,,,,,,0,0,0,3,,,,,,,,,,,,,,,AFNE20.jpg,AFNE02.jpg,AFSA05.jpg,AFSA10.jpg,AFSA05.jpg,FS,4,num_2,16,num_2,1.18352300301,,,2017_Oct_11_1544,60.0082569895,FEMA4ImagesEEG,001,201839,
AFNE01.JPG,AFNE01.JPG,AFNE01.JPG,AFNE01.JPG,AFNE01.JPG,AFNE01.JPG,,,,,,,,,0,1,1,0,,,,,,,,,,,,,,,AFSA10.jpg,AFNE13.jpg,AFNE14.jpg,AFSA08.jpg,AFNE14.jpg,FN,3,num_2,32,num_8,0.816822754801,,,2017_Oct_11_1544,60.0082569895,FEMA4ImagesEEG,001,201839,
AFNE01.JPG,AFNE01.JPG,AFNE01.JPG,AFNE01.JPG,AFNE01.JPG,AFNE01.JPG,,,,,,,,,0,2,2,9,,,,,,,,,,,,,,,AFSA02.jpg,AFNE13.jpg,AFNE04.jpg,AFSA19.jpg,AFNE13.jpg,FN,3,num_6,16,num_6,0.81676405936,,,2017_Oct_11_1544,60.0082569895,FEMA4ImagesEEG,001,201839,
AFNE01.JPG,AFNE01.JPG,AFNE01.JPG,AFNE01.JPG,AFNE01.JPG,AFNE01.JPG,,,,,,,,,0,3,3,6,,,,,,,,,,,,,,,AFNE17.jpg,AFNE09.jpg,AFSA13.jpg,AFSA09.jpg,AFSA13.jpg,FS,4,num_2,32,num_4,0.816773681552,,,2017_Oct_11_1544,60.0082569895,FEMA4ImagesEEG,001,201839,
AFNE01.JPG,AFNE01.JPG,AFNE01.JPG,AFNE01.JPG,AFNE01.JPG,AFNE01.JPG,,,,,,,,,0,4,4,7,,,,,,,,,,,,,,,AFSA15.jpg,AFNE09.jpg,AFSA18.jpg,AFNE10.jpg,AFSA15.jpg,FS,4,num_8,16,num_8,0.733461436932,,,2017_Oct_11_1544,60.0082569895,FEMA4ImagesEEG,001,201839,
AFNE01.JPG,AFNE01.JPG,AFNE01.JPG,AFNE01.JPG,AFNE01.JPG,AFNE01.JPG,,,,,,,,,0,5,5,2,,,,,,,,,,,,,,,AFSA05.jpg,AFNE04.jpg,AFSA11.jpg,AFNE06.jpg,AFNE06.jpg,FN,3,num_4,32,num_2,1.49995269079,,,2017_Oct_11_1544,60.0082569895,FEMA4ImagesEEG,001,201839,
AFNE01.JPG,AFNE01.JPG,AFNE01.JPG,AFNE01.JPG,AFNE01.JPG,AFNE01.JPG,,,,,,,,,0,6,6,4,,,,,,,,,,,,,,,AFSA15.jpg,AFNE02.jpg,AFSA19.jpg,AFNE05.jpg,AFSA19.jpg,FS,4,num_2,32,num_4,1.65006419609,,,2017_Oct_11_1544,60.0082569895,FEMA4ImagesEEG,001,201839,
AFNE01.JPG,AFNE01.JPG,AFNE01.JPG,AFNE01.JPG,AFNE01.JPG,AFNE01.JPG,,,,,,,,,0,7,7,1,,,,,,,,,,,,,,,AFSA10.jpg,AFNE02.jpg,AFNE11.jpg,AFSA20.jpg,AFSA20.jpg,FS,4,num_4,16,num_4,0.683484033099,,,2017_Oct_11_1544,60.0082569895,FEMA4ImagesEEG,001,201839,
AFNE01.JPG,AFNE01.JPG,AFNE01.JPG,AFNE01.JPG,AFNE01.JPG,AFNE01.JPG,,,,,,,,,0,8,8,8,,,,,,,,,,,,,,,AFSA17.jpg,AFSA10.jpg,AFNE16.jpg,AFNE05.jpg,AFNE05.jpg,FN,3,num_4,32,num_2,0.766722828266,,,2017_Oct_11_1544,60.0082569895,FEMA4ImagesEEG,001,201839,
AFNE01.JPG,AFNE01.JPG,AFNE01.JPG,AFNE01.JPG,AFNE01.JPG,AFNE01.JPG,,,,,,,,,0,9,9,5,,,,,,,,,,,,,,,AFNE03.jpg,AFNE14.jpg,AFSA20.jpg,AFSA01.jpg,AFNE03.jpg,FN,3,num_8,32,num_6,1.91666722798,,,2017_Oct_11_1544,60.0082569895,FEMA4ImagesEEG,001,201839,
AFNE01.JPG,AFNE01.JPG,AFNE01.JPG,AFNE01.JPG,AFNE01.JPG,AFNE01.JPG,,,,,,,,,1,0,10,3,,,,,,,,,,,,,,,AFSA14.jpg,AFNE11.jpg,AFSA18.jpg,AFNE20.jpg,AFNE20.jpg,FN,3,num_4,32,num_8,0.883472871268,,,2017_Oct_11_1544,60.0082569895,FEMA4ImagesEEG,001,201839,
AFNE01.JPG,AFNE01.JPG,AFNE01.JPG,AFNE01.JPG,AFNE01.JPG,AFNE01.JPG,,,,,,,,,1,1,11,1,,,,,,,,,,,,,,,AFNE05.jpg,AFNE07.jpg,AFSA03.jpg,AFSA12.jpg,AFSA03.jpg,FS,4,num_2,16,num_2,1.03345640132,,,2017_Oct_11_1544,60.0082569895,FEMA4ImagesEEG,001,201839,
AFNE01.JPG,AFNE01.JPG,AFNE01.JPG,AFNE01.JPG,AFNE01.JPG,AFNE01.JPG,,,,,,,,,1,2,12,2,,,,,,,,,,,,,,,AFSA06.jpg,AFNE11.jpg,AFSA08.jpg,AFNE04.jpg,AFSA06.jpg,FS,4,num_8,16,num_8,0.733479077695,,,2017_Oct_11_1544,60.0082569895,FEMA4ImagesEEG,001,201839,
AFNE01.JPG,AFNE01.JPG,AFNE01.JPG,AFNE01.JPG,AFNE01.JPG,AFNE01.JPG,,,,,,,,,1,3,13,4,,,,,,,,,,,,,,,AFSA11.jpg,AFNE06.jpg,AFSA04.jpg,AFNE11.jpg,AFNE06.jpg,FN,3,num_6,16,num_6,0.966796662658,,,2017_Oct_11_1544,60.0082569895,FEMA4ImagesEEG,001,201839,
AFNE01.JPG,AFNE01.JPG,AFNE01.JPG,AFNE01.JPG,AFNE01.JPG,AFNE01.JPG,,,,,,,,,1,4,14,8,,,,,,,,,,,,,,,AFSA02.jpg,AFNE18.jpg,AFNE15.jpg,AFSA03.jpg,AFSA02.jpg,FS,4,num_8,32,num_4,1.18354866223,,,2017_Oct_11_1544,60.0082569895,FEMA4ImagesEEG,001,201839,
AFNE01.JPG,AFNE01.JPG,AFNE01.JPG,AFNE01.JPG,AFNE01.JPG,AFNE01.JPG,,,,,,,,,1,5,15,7,,,,,,,,,,,,,,,AFNE07.jpg,AFNE19.jpg,AFSA15.jpg,AFSA20.jpg,AFSA15.jpg,FS,4,num_2,16,num_2,1.03343298729,,,2017_Oct_11_1544,60.0082569895,FEMA4ImagesEEG,001,201839,
AFNE01.JPG,AFNE01.JPG,AFNE01.JPG,AFNE01.JPG,AFNE01.JPG,AFNE01.JPG,,,,,,,,,1,6,16,5,,,,,,,,,,,,,,,AFNE07.jpg,AFSA06.jpg,AFNE16.jpg,AFSA14.jpg,AFNE16.jpg,FN,3,num_2,16,num_2,1.0500848518,,,2017_Oct_11_1544,60.0082569895,FEMA4ImagesEEG,001,201839,
AFNE01.JPG,AFNE01.JPG,AFNE01.JPG,AFNE01.JPG,AFNE01.JPG,AFNE01.JPG,,,,,,,,,1,7,17,6,,,,,,,,,,,,,,,AFNE17.jpg,AFSA14.jpg,AFNE12.jpg,AFSA13.jpg,AFNE12.jpg,FN,3,num_2,16,num_2,0.583533074241,,,2017_Oct_11_1544,60.0082569895,FEMA4ImagesEEG,001,201839,
AFNE01.JPG,AFNE01.JPG,AFNE01.JPG,AFNE01.JPG,AFNE01.JPG,AFNE01.JPG,,,,,,,,,1,8,18,0,,,,,,,,,,,,,,,AFNE20.jpg,AFNE13.jpg,AFSA13.jpg,AFSA05.jpg,AFSA13.jpg,FS,4,num_2,32,num_4,1.35003491258,,,2017_Oct_11_1544,60.0082569895,FEMA4ImagesEEG,001,201839,
AFNE01.JPG,AFNE01.JPG,AFNE01.JPG,AFNE01.JPG,AFNE01.JPG,AFNE01.JPG,,,,,,,,,1,9,19,9,,,,,,,,,,,,,,,AFSA18.jpg,AFNE16.jpg,AFNE02.jpg,AFSA20.jpg,AFSA18.jpg,FS,4,num_8,32,num_6,1.54976908315,,,2017_Oct_11_1544,60.0082569895,FEMA4ImagesEEG,001,201839,
AFNE01.JPG,AFNE01.JPG,AFNE01.JPG,AFNE01.JPG,AFNE01.JPG,AFNE01.JPG,,,,,,,,,2,0,20,6,,,,,,,,,,,,,,,AFNE03.jpg,AFSA11.jpg,AFNE08.jpg,AFSA01.jpg,AFSA01.jpg,FS,4,num_4,16,num_4,1.51682394149,,,2017_Oct_11_1544,60.0082569895,FEMA4ImagesEEG,001,201839,
AFNE01.JPG,AFNE01.JPG,AFNE01.JPG,AFNE01.JPG,AFNE01.JPG,AFNE01.JPG,,,,,,,,,2,1,21,2,,,,,,,,,,,,,,,AFSA05.jpg,AFNE18.jpg,AFNE04.jpg,AFSA07.jpg,AFNE04.jpg,FN,3,num_2,32,num_6,0.76677222224,,,2017_Oct_11_1544,60.0082569895,FEMA4ImagesEEG,001,201839,
AFNE01.JPG,AFNE01.JPG,AFNE01.JPG,AFNE01.JPG,AFNE01.JPG,AFNE01.JPG,,,,,,,,,2,2,22,0,,,,,,,,,,,,,,,AFSA01.jpg,AFNE17.jpg,AFSA03.jpg,AFNE05.jpg,AFNE05.jpg,FN,3,num_4,32,num_2,0.867017620476,,,2017_Oct_11_1544,60.0082569895,FEMA4ImagesEEG,001,201839,
AFNE01.JPG,AFNE01.JPG,AFNE01.JPG,AFNE01.JPG,AFNE01.JPG,AFNE01.JPG,,,,,,,,,2,3,23,8,,,,,,,,,,,,,,,AFSA13.jpg,AFSA14.jpg,AFNE09.jpg,AFNE18.jpg,AFSA14.jpg,FS,4,num_6,32,num_4,0.833487128257,,,2017_Oct_11_1544,60.0082569895,FEMA4ImagesEEG,001,201839,
AFNE01.JPG,AFNE01.JPG,AFNE01.JPG,AFNE01.JPG,AFNE01.JPG,AFNE01.JPG,,,,,,,,,2,4,24,1,,,,,,,,,,,,,,,AFNE03.jpg,AFSA13.jpg,AFSA04.jpg,AFNE17.jpg,AFNE03.jpg,FN,3,num_8,32,num_6,0.88345074025,,,2017_Oct_11_1544,60.0082569895,FEMA4ImagesEEG,001,201839,
AFNE01.JPG,AFNE01.JPG,AFNE01.JPG,AFNE01.JPG,AFNE01.JPG,AFNE01.JPG,,,,,,,,,2,5,25,4,,,,,,,,,,,,,,,AFSA07.jpg,AFNE12.jpg,AFSA03.jpg,AFNE06.jpg,AFNE06.jpg,FN,3,num_4,32,num_8,0.850139634218,,,2017_Oct_11_1544,60.0082569895,FEMA4ImagesEEG,001,201839,
AFNE01.JPG,AFNE01.JPG,AFNE01.JPG,AFNE01.JPG,AFNE01.JPG,AFNE01.JPG,,,,,,,,,2,6,26,7,,,,,,,,,,,,,,,AFSA16.jpg,AFNE01.jpg,AFSA09.jpg,AFNE13.jpg,AFNE13.jpg,FN,3,num_4,32,num_8,0.916738111526,,,2017_Oct_11_1544,60.0082569895,FEMA4ImagesEEG,001,201839,
AFNE01.JPG,AFNE01.JPG,AFNE01.JPG,AFNE01.JPG,AFNE01.JPG,AFNE01.JPG,,,,,,,,,2,7,27,5,,,,,,,,,,,,,,,AFNE10.jpg,AFSA08.jpg,AFNE06.jpg,AFSA09.jpg,AFSA09.jpg,FS,4,num_4,16,num_4,0.600181731395,,,2017_Oct_11_1544,60.0082569895,FEMA4ImagesEEG,001,201839,
AFNE01.JPG,AFNE01.JPG,AFNE01.JPG,AFNE01.JPG,AFNE01.JPG,AFNE01.JPG,,,,,,,,,2,8,28,3,,,,,,,,,,,,,,,AFSA06.jpg,AFSA01.jpg,AFNE19.jpg,AFNE06.jpg,AFSA06.jpg,FS,4,num_8,32,num_6,1.26673036569,,,2017_Oct_11_1544,60.0082569895,FEMA4ImagesEEG,001,201839,
AFNE01.JPG,AFNE01.JPG,AFNE01.JPG,AFNE01.JPG,AFNE01.JPG,AFNE01.JPG,,,,,,,,,2,9,29,9,,,,,,,,,,,,,,,AFNE16.jpg,AFSA13.jpg,AFSA09.jpg,AFNE04.jpg,AFNE16.jpg,FN,3,num_8,32,num_2,0.750090208254,,,2017_Oct_11_1544,60.0082569895,FEMA4ImagesEEG,001,201839,
AFNE01.JPG,AFNE01.JPG,AFNE01.JPG,AFNE01.JPG,AFNE01.JPG,AFNE01.JPG,,,,,,,,,3,0,30,8,,,,,,,,,,,,,,,AFSA11.jpg,AFNE06.jpg,AFSA16.jpg,AFNE03.jpg,AFNE06.jpg,FN,3,num_6,16,num_6,1.23316587496,,,2017_Oct_11_1544,60.0082569895,FEMA4ImagesEEG,001,201839,
AFNE01.JPG,AFNE01.JPG,AFNE01.JPG,AFNE01.JPG,AFNE01.JPG,AFNE01.JPG,,,,,,,,,3,1,31,1,,,,,,,,,,,,,,,AFNE10.jpg,AFSA03.jpg,AFSA12.jpg,AFNE14.jpg,AFSA03.jpg,FS,4,num_6,32,num_4,1.46669739357,,,2017_Oct_11_1544,60.0082569895,FEMA4ImagesEEG,001,201839,
AFNE01.JPG,AFNE01.JPG,AFNE01.JPG,AFNE01.JPG,AFNE01.JPG,AFNE01.JPG,,,,,,,,,3,2,32,6,,,,,,,,,,,,,,,AFSA19.jpg,AFNE11.jpg,AFNE06.jpg,AFSA20.jpg,AFSA19.jpg,FS,4,num_8,16,num_8,0.866787008359,,,2017_Oct_11_1544,60.0082569895,FEMA4ImagesEEG,001,201839,
AFNE01.JPG,AFNE01.JPG,AFNE01.JPG,AFNE01.JPG,AFNE01.JPG,AFNE01.JPG,,,,,,,,,3,3,33,4,,,,,,,,,,,,,,,AFSA19.jpg,AFNE20.jpg,AFNE18.jpg,AFSA07.jpg,AFNE20.jpg,FN,3,num_6,16,num_6,1.28345183085,,,2017_Oct_11_1544,60.0082569895,FEMA4ImagesEEG,001,201839,
AFNE01.JPG,AFNE01.JPG,AFNE01.JPG,AFNE01.JPG,AFNE01.JPG,AFNE01.JPG,,,,,,,,,3,4,34,3,,,,,,,,,,,,,,,AFSA11.jpg,AFNE18.jpg,AFNE20.jpg,AFSA14.jpg,AFSA14.jpg,FS,4,num_4,16,num_4,1.01675065246,,,2017_Oct_11_1544,60.0082569895,FEMA4ImagesEEG,001,201839,
AFNE01.JPG,AFNE01.JPG,AFNE01.JPG,AFNE01.JPG,AFNE01.JPG,AFNE01.JPG,,,,,,,,,3,5,35,2,,,,,,,,,,,,,,,AFNE02.jpg,AFNE16.jpg,AFSA11.jpg,AFSA19.jpg,AFSA11.jpg,FS,4,num_2,16,num_2,0.616792220273,,,2017_Oct_11_1544,60.0082569895,FEMA4ImagesEEG,001,201839,
AFNE01.JPG,AFNE01.JPG,AFNE01.JPG,AFNE01.JPG,AFNE01.JPG,AFNE01.JPG,,,,,,,,,3,6,36,7,,,,,,,,,,,,,,,AFSA05.jpg,AFSA13.jpg,AFNE19.jpg,AFNE03.jpg,AFNE19.jpg,FN,3,num_2,32,num_6,0.866744991392,,,2017_Oct_11_1544,60.0082569895,FEMA4ImagesEEG,001,201839,
AFNE01.JPG,AFNE01.JPG,AFNE01.JPG,AFNE01.JPG,AFNE01.JPG,AFNE01.JPG,,,,,,,,,3,7,37,5,,,,,,,,,,,,,,,AFNE12.jpg,AFSA05.jpg,AFNE19.jpg,AFSA09.jpg,AFSA05.jpg,FS,4,num_6,32,num_4,2.23339777009,,,2017_Oct_11_1544,60.0082569895,FEMA4ImagesEEG,001,201839,
AFNE01.JPG,AFNE01.JPG,AFNE01.JPG,AFNE01.JPG,AFNE01.JPG,AFNE01.JPG,,,,,,,,,3,8,38,0,,,,,,,,,,,,,,,AFNE09.jpg,AFNE07.jpg,AFSA12.jpg,AFSA07.jpg,AFNE09.jpg,FN,3,num_8,32,num_6,0.716783913202,,,2017_Oct_11_1544,60.0082569895,FEMA4ImagesEEG,001,201839,
AFNE01.JPG,AFNE01.JPG,AFNE01.JPG,AFNE01.JPG,AFNE01.JPG,AFNE01.JPG,,,,,,,,,3,9,39,9,,,,,,,,,,,,,,,AFSA11.jpg,AFSA05.jpg,AFNE17.jpg,AFNE04.jpg,AFSA11.jpg,FS,4,num_8,32,num_6,1.18344634608,,,2017_Oct_11_1544,60.0082569895,FEMA4ImagesEEG,001,201839,
AFNE01.JPG,AFNE01.JPG,AFNE01.JPG,AFNE01.JPG,AFNE01.JPG,AFNE01.JPG,,,,,,,,,4,0,40,9,,,,,,,,,,,,,,,AFSA02.jpg,AFNE08.jpg,AFSA12.jpg,AFNE03.jpg,AFNE03.jpg,FN,3,num_4,32,num_8,0.900112547679,,,2017_Oct_11_1544,60.0082569895,FEMA4ImagesEEG,001,201839,
AFNE01.JPG,AFNE01.JPG,AFNE01.JPG,AFNE01.JPG,AFNE01.JPG,AFNE01.JPG,,,,,,,,,4,1,41,2,,,,,,,,,,,,,,,AFNE02.jpg,AFSA11.jpg,AFNE07.jpg,AFSA08.jpg,AFSA08.jpg,FS,4,num_4,16,num_4,0.633491875138,,,2017_Oct_11_1544,60.0082569895,FEMA4ImagesEEG,001,201839,
AFNE01.JPG,AFNE01.JPG,AFNE01.JPG,AFNE01.JPG,AFNE01.JPG,AFNE01.JPG,,,,,,,,,4,2,42,3,,,,,,,,,,,,,,,AFSA01.jpg,AFNE01.jpg,AFNE05.jpg,AFSA19.jpg,AFSA01.jpg,FS,4,num_8,32,num_4,1.01673718134,,,2017_Oct_11_1544,60.0082569895,FEMA4ImagesEEG,001,201839,
AFNE01.JPG,AFNE01.JPG,AFNE01.JPG,AFNE01.JPG,AFNE01.JPG,AFNE01.JPG,,,,,,,,,4,3,43,4,,,,,,,,,,,,,,,AFSA15.jpg,AFNE02.jpg,AFNE06.jpg,AFSA12.jpg,AFNE06.jpg,FN,3,num_2,16,num_2,1.23348950176,,,2017_Oct_11_1544,60.0082569895,FEMA4ImagesEEG,001,201839,
AFNE01.JPG,AFNE01.JPG,AFNE01.JPG,AFNE01.JPG,AFNE01.JPG,AFNE01.JPG,,,,,,,,,4,4,44,5,,,,,,,,,,,,,,,AFNE15.jpg,AFNE18.jpg,AFSA19.jpg,AFSA20.jpg,AFSA20.jpg,FS,4,num_4,32,num_2,0.667107684305,,,2017_Oct_11_1544,60.0082569895,FEMA4ImagesEEG,001,201839,
AFNE01.JPG,AFNE01.JPG,AFNE01.JPG,AFNE01.JPG,AFNE01.JPG,AFNE01.JPG,,,,,,,,,4,5,45,0,,,,,,,,,,,,,,,AFSA13.jpg,AFNE05.jpg,AFSA11.jpg,AFNE07.jpg,AFNE07.jpg,FN,3,num_4,16,num_4,0.850171387545,,,2017_Oct_11_1544,60.0082569895,FEMA4ImagesEEG,001,201839,
AFNE01.JPG,AFNE01.JPG,AFNE01.JPG,AFNE01.JPG,AFNE01.JPG,AFNE01.JPG,,,,,,,,,4,6,46,8,,,,,,,,,,,,,,,AFSA01.jpg,AFNE17.jpg,AFNE15.jpg,AFSA20.jpg,AFNE15.jpg,FN,3,num_2,16,num_2,0.583793194499,,,2017_Oct_11_1544,60.0082569895,FEMA4ImagesEEG,001,201839,
AFNE01.JPG,AFNE01.JPG,AFNE01.JPG,AFNE01.JPG,AFNE01.JPG,AFNE01.JPG,,,,,,,,,4,7,47,7,,,,,,,,,,,,,,,AFSA08.jpg,AFNE03.jpg,AFNE06.jpg,AFSA04.jpg,AFNE06.jpg,FN,3,num_2,32,num_4,2.01671088068,,,2017_Oct_11_1544,60.0082569895,FEMA4ImagesEEG,001,201839,
AFNE01.JPG,AFNE01.JPG,AFNE01.JPG,AFNE01.JPG,AFNE01.JPG,AFNE01.JPG,,,,,,,,,4,8,48,1,,,,,,,,,,,,,,,AFNE13.jpg,AFSA13.jpg,AFNE03.jpg,AFSA08.jpg,AFSA08.jpg,FS,4,num_4,16,num_4,1.4167475733,,,2017_Oct_11_1544,60.0082569895,FEMA4ImagesEEG,001,201839,
AFNE01.JPG,AFNE01.JPG,AFNE01.JPG,AFNE01.JPG,AFNE01.JPG,AFNE01.JPG,,,,,,,,,4,9,49,6,,,,,,,,,,,,,,,AFNE15.jpg,AFSA10.jpg,AFNE13.jpg,AFSA01.jpg,AFSA10.jpg,FS,4,num_6,16,num_6,0.950100535993,,,2017_Oct_11_1544,60.0082569895,FEMA4ImagesEEG,001,201839,
AFNE01.JPG,AFNE01.JPG,AFNE01.JPG,AFNE01.JPG,AFNE01.JPG,AFNE01.JPG,,,,,,,,,5,0,50,5,,,,,,,,,,,,,,,AFSA12.jpg,AFNE17.jpg,AFSA19.jpg,AFNE19.jpg,AFSA12.jpg,FS,4,num_8,16,num_8,0.899782506167,,,2017_Oct_11_1544,60.0082569895,FEMA4ImagesEEG,001,201839,
AFNE01.JPG,AFNE01.JPG,AFNE01.JPG,AFNE01.JPG,AFNE01.JPG,AFNE01.JPG,,,,,,,,,5,1,51,2,,,,,,,,,,,,,,,AFNE13.jpg,AFSA02.jpg,AFSA20.jpg,AFNE18.jpg,AFSA02.jpg,FS,4,num_6,16,num_6,0.966630519251,,,2017_Oct_11_1544,60.0082569895,FEMA4ImagesEEG,001,201839,
AFNE01.JPG,AFNE01.JPG,AFNE01.JPG,AFNE01.JPG,AFNE01.JPG,AFNE01.JPG,,,,,,,,,5,2,52,6,,,,,,,,,,,,,,,AFSA18.jpg,AFNE16.jpg,AFSA17.jpg,AFNE15.jpg,AFSA18.jpg,FS,4,num_8,32,num_2,0.816757003195,,,2017_Oct_11_1544,60.0082569895,FEMA4ImagesEEG,001,201839,
AFNE01.JPG,AFNE01.JPG,AFNE01.JPG,AFNE01.JPG,AFNE01.JPG,AFNE01.JPG,,,,,,,,,5,3,53,4,,,,,,,,,,,,,,,AFSA05.jpg,AFNE08.jpg,AFNE11.jpg,AFSA01.jpg,AFSA01.jpg,FS,4,num_4,16,num_4,0.816765342373,,,2017_Oct_11_1544,60.0082569895,FEMA4ImagesEEG,001,201839,
AFNE01.JPG,AFNE01.JPG,AFNE01.JPG,AFNE01.JPG,AFNE01.JPG,AFNE01.JPG,,,,,,,,,5,4,54,1,,,,,,,,,,,,,,,AFNE07.jpg,AFSA14.jpg,AFSA05.jpg,AFNE17.jpg,AFNE17.jpg,FN,3,num_4,16,num_4,0.950088027166,,,2017_Oct_11_1544,60.0082569895,FEMA4ImagesEEG,001,201839,
AFNE01.JPG,AFNE01.JPG,AFNE01.JPG,AFNE01.JPG,AFNE01.JPG,AFNE01.JPG,,,,,,,,,5,5,55,7,,,,,,,,,,,,,,,AFNE13.jpg,AFSA20.jpg,AFNE18.jpg,AFSA08.jpg,AFSA20.jpg,FS,4,num_6,32,num_4,1.25034535688,,,2017_Oct_11_1544,60.0082569895,FEMA4ImagesEEG,001,201839,
AFNE01.JPG,AFNE01.JPG,AFNE01.JPG,AFNE01.JPG,AFNE01.JPG,AFNE01.JPG,,,,,,,,,5,6,56,8,,,,,,,,,,,,,,,AFNE14.jpg,AFSA12.jpg,AFNE09.jpg,AFSA19.jpg,AFSA19.jpg,FS,4,num_4,16,num_4,1.03344709985,,,2017_Oct_11_1544,60.0082569895,FEMA4ImagesEEG,001,201839,
AFNE01.JPG,AFNE01.JPG,AFNE01.JPG,AFNE01.JPG,AFNE01.JPG,AFNE01.JPG,,,,,,,,,5,7,57,9,,,,,,,,,,,,,,,AFSA13.jpg,AFNE04.jpg,AFNE14.jpg,AFSA18.jpg,AFSA13.jpg,FS,4,num_8,16,num_8,1.26674383669,,,2017_Oct_11_1544,60.0082569895,FEMA4ImagesEEG,001,201839,
AFNE01.JPG,AFNE01.JPG,AFNE01.JPG,AFNE01.JPG,AFNE01.JPG,AFNE01.JPG,,,,,,,,,5,8,58,3,,,,,,,,,,,,,,,AFNE18.jpg,AFSA14.jpg,AFSA13.jpg,AFNE08.jpg,AFSA13.jpg,FS,4,num_2,16,num_2,1.366681966,,,2017_Oct_11_1544,60.0082569895,FEMA4ImagesEEG,001,201839,
AFNE01.JPG,AFNE01.JPG,AFNE01.JPG,AFNE01.JPG,AFNE01.JPG,AFNE01.JPG,,,,,,,,,5,9,59,0,,,,,,,,,,,,,,,AFNE03.jpg,AFNE08.jpg,AFSA04.jpg,AFSA13.jpg,AFSA13.jpg,FS,4,num_4,16,num_4,1.46670765721,,,2017_Oct_11_1544,60.0082569895,FEMA4ImagesEEG,001,201839,
,,,,,,,,,,,,,,,,,,,,,,,,,,,,,,,,,,,,,,,,,,,space,6.04969386966,2017_Oct_11_1544,60.0082569895,FEMA4ImagesEEG,001,201839,
AFNE01.JPG,AFNE01.JPG,AFNE01.JPG,AFNE01.JPG,AFNE01.JPG,AFNE01.JPG,,,,,,,,,,,,,0,0,0,1,,,,,,,,,,,AMSA09.jpg,AMSA08.jpg,AMNE19.jpg,AMNE09.jpg,AMNE09.jpg,MN,1,num_4,16,num_4,1.33342570649,,,2017_Oct_11_1544,60.0082569895,FEMA4ImagesEEG,001,201839,
AFNE01.JPG,AFNE01.JPG,AFNE01.JPG,AFNE01.JPG,AFNE01.JPG,AFNE01.JPG,,,,,,,,,,,,,0,1,1,2,,,,,,,,,,,AMNE02.jpg,AMSA17.jpg,AMSA07.jpg,AMNE12.jpg,AMSA17.jpg,MS,2,num_6,32,num_2,1.01674969029,,,2017_Oct_11_1544,60.0082569895,FEMA4ImagesEEG,001,201839,
AFNE01.JPG,AFNE01.JPG,AFNE01.JPG,AFNE01.JPG,AFNE01.JPG,AFNE01.JPG,,,,,,,,,,,,,0,2,2,0,,,,,,,,,,,AMNE12.jpg,AMSA05.jpg,AMNE15.jpg,AMSA17.jpg,AMNE15.jpg,MN,1,num_2,16,num_2,0.700138463406,,,2017_Oct_11_1544,60.0082569895,FEMA4ImagesEEG,001,201839,
AFNE01.JPG,AFNE01.JPG,AFNE01.JPG,AFNE01.JPG,AFNE01.JPG,AFNE01.JPG,,,,,,,,,,,,,0,3,3,7,,,,,,,,,,,AMSA10.jpg,AMNE05.jpg,AMNE13.jpg,AMSA13.jpg,AMNE05.jpg,MN,1,num_6,32,num_8,2.71663156163,,,2017_Oct_11_1544,60.0082569895,FEMA4ImagesEEG,001,201839,
AFNE01.JPG,AFNE01.JPG,AFNE01.JPG,AFNE01.JPG,AFNE01.JPG,AFNE01.JPG,,,,,,,,,,,,,0,4,4,6,,,,,,,,,,,AMSA12.jpg,AMNE10.jpg,AMNE02.jpg,AMSA01.jpg,AMNE02.jpg,MN,1,num_2,32,num_4,0.966746947845,,,2017_Oct_11_1544,60.0082569895,FEMA4ImagesEEG,001,201839,
AFNE01.JPG,AFNE01.JPG,AFNE01.JPG,AFNE01.JPG,AFNE01.JPG,AFNE01.JPG,,,,,,,,,,,,,0,5,5,3,,,,,,,,,,,AMNE02.jpg,AMNE19.jpg,AMSA03.jpg,AMSA16.jpg,AMNE19.jpg,MN,1,num_6,32,num_4,1.6167306382,,,2017_Oct_11_1544,60.0082569895,FEMA4ImagesEEG,001,201839,
AFNE01.JPG,AFNE01.JPG,AFNE01.JPG,AFNE01.JPG,AFNE01.JPG,AFNE01.JPG,,,,,,,,,,,,,0,6,6,9,,,,,,,,,,,AMSA04.jpg,AMNE06.jpg,AMSA05.jpg,AMNE09.jpg,AMNE06.jpg,MN,1,num_6,16,num_6,1.06680407177,,,2017_Oct_11_1544,60.0082569895,FEMA4ImagesEEG,001,201839,
AFNE01.JPG,AFNE01.JPG,AFNE01.JPG,AFNE01.JPG,AFNE01.JPG,AFNE01.JPG,,,,,,,,,,,,,0,7,7,5,,,,,,,,,,,AMNE18.jpg,AMNE08.jpg,AMSA07.jpg,AMSA05.jpg,AMSA07.jpg,MS,2,num_2,32,num_8,1.0667559607,,,2017_Oct_11_1544,60.0082569895,FEMA4ImagesEEG,001,201839,
AFNE01.JPG,AFNE01.JPG,AFNE01.JPG,AFNE01.JPG,AFNE01.JPG,AFNE01.JPG,,,,,,,,,,,,,0,8,8,4,,,,,,,,,,,AMSA14.jpg,AMSA06.jpg,AMNE01.jpg,AMNE06.jpg,AMNE01.jpg,MN,1,num_2,16,num_2,0.850131615647,,,2017_Oct_11_1544,60.0082569895,FEMA4ImagesEEG,001,201839,
AFNE01.JPG,AFNE01.JPG,AFNE01.JPG,AFNE01.JPG,AFNE01.JPG,AFNE01.JPG,,,,,,,,,,,,,0,9,9,8,,,,,,,,,,,AMSA05.jpg,AMSA14.jpg,AMNE10.jpg,AMNE11.jpg,AMSA05.jpg,MS,2,num_8,16,num_8,0.900080794352,,,2017_Oct_11_1544,60.0082569895,FEMA4ImagesEEG,001,201839,
AFNE01.JPG,AFNE01.JPG,AFNE01.JPG,AFNE01.JPG,AFNE01.JPG,AFNE01.JPG,,,,,,,,,,,,,1,0,10,5,,,,,,,,,,,AMNE15.jpg,AMSA04.jpg,AMNE03.jpg,AMSA14.jpg,AMSA14.jpg,MS,2,num_4,32,num_2,1.5000485921,,,2017_Oct_11_1544,60.0082569895,FEMA4ImagesEEG,001,201839,
AFNE01.JPG,AFNE01.JPG,AFNE01.JPG,AFNE01.JPG,AFNE01.JPG,AFNE01.JPG,,,,,,,,,,,,,1,1,11,0,,,,,,,,,,,AMSA03.jpg,AMNE05.jpg,AMNE10.jpg,AMSA20.jpg,AMNE10.jpg,MN,1,num_2,16,num_2,1.11672534607,,,2017_Oct_11_1544,60.0082569895,FEMA4ImagesEEG,001,201839,
AFNE01.JPG,AFNE01.JPG,AFNE01.JPG,AFNE01.JPG,AFNE01.JPG,AFNE01.JPG,,,,,,,,,,,,,1,2,12,6,,,,,,,,,,,AMNE14.jpg,AMSA14.jpg,AMSA03.jpg,AMNE11.jpg,AMSA03.jpg,MS,2,num_2,32,num_4,2.25001756055,,,2017_Oct_11_1544,60.0082569895,FEMA4ImagesEEG,001,201839,
AFNE01.JPG,AFNE01.JPG,AFNE01.JPG,AFNE01.JPG,AFNE01.JPG,AFNE01.JPG,,,,,,,,,,,,,1,3,13,4,,,,,,,,,,,AMNE07.jpg,AMSA07.jpg,AMSA10.jpg,AMNE10.jpg,AMNE07.jpg,MN,1,num_8,16,num_8,0.700195555226,,,2017_Oct_11_1544,60.0082569895,FEMA4ImagesEEG,001,201839,
AFNE01.JPG,AFNE01.JPG,AFNE01.JPG,AFNE01.JPG,AFNE01.JPG,AFNE01.JPG,,,,,,,,,,,,,1,4,14,2,,,,,,,,,,,AMNE17.jpg,AMSA08.jpg,AMNE02.jpg,AMSA16.jpg,AMSA16.jpg,MS,2,num_4,16,num_4,0.750261804089,,,2017_Oct_11_1544,60.0082569895,FEMA4ImagesEEG,001,201839,
AFNE01.JPG,AFNE01.JPG,AFNE01.JPG,AFNE01.JPG,AFNE01.JPG,AFNE01.JPG,,,,,,,,,,,,,1,5,15,8,,,,,,,,,,,AMNE19.jpg,AMSA18.jpg,AMNE07.jpg,AMSA16.jpg,AMNE19.jpg,MN,1,num_8,16,num_8,0.66684596031,,,2017_Oct_11_1544,60.0082569895,FEMA4ImagesEEG,001,201839,
AFNE01.JPG,AFNE01.JPG,AFNE01.JPG,AFNE01.JPG,AFNE01.JPG,AFNE01.JPG,,,,,,,,,,,,,1,6,16,7,,,,,,,,,,,AMSA08.jpg,AMSA16.jpg,AMNE17.jpg,AMNE16.jpg,AMNE16.jpg,MN,1,num_4,32,num_2,1.01667624083,,,2017_Oct_11_1544,60.0082569895,FEMA4ImagesEEG,001,201839,
AFNE01.JPG,AFNE01.JPG,AFNE01.JPG,AFNE01.JPG,AFNE01.JPG,AFNE01.JPG,,,,,,,,,,,,,1,7,17,3,,,,,,,,,,,AMNE09.jpg,AMNE19.jpg,AMSA09.jpg,AMSA16.jpg,AMNE19.jpg,MN,1,num_6,32,num_2,1.25009774556,,,2017_Oct_11_1544,60.0082569895,FEMA4ImagesEEG,001,201839,
AFNE01.JPG,AFNE01.JPG,AFNE01.JPG,AFNE01.JPG,AFNE01.JPG,AFNE01.JPG,,,,,,,,,,,,,1,8,18,9,,,,,,,,,,,AMSA17.jpg,AMNE08.jpg,AMSA07.jpg,AMNE17.jpg,AMNE08.jpg,MN,1,num_6,32,num_2,1.51656991546,,,2017_Oct_11_1544,60.0082569895,FEMA4ImagesEEG,001,201839,
AFNE01.JPG,AFNE01.JPG,AFNE01.JPG,AFNE01.JPG,AFNE01.JPG,AFNE01.JPG,,,,,,,,,,,,,1,9,19,1,,,,,,,,,,,AMNE02.jpg,AMSA14.jpg,AMNE12.jpg,AMSA16.jpg,AMSA16.jpg,MS,2,num_4,32,num_8,1.30011235515,,,2017_Oct_11_1544,60.0082569895,FEMA4ImagesEEG,001,201839,
AFNE01.JPG,AFNE01.JPG,AFNE01.JPG,AFNE01.JPG,AFNE01.JPG,AFNE01.JPG,,,,,,,,,,,,,2,0,20,7,,,,,,,,,,,AMSA18.jpg,AMNE17.jpg,AMSA13.jpg,AMNE10.jpg,AMNE10.jpg,MN,1,num_4,32,num_2,0.850117182359,,,2017_Oct_11_1544,60.0082569895,FEMA4ImagesEEG,001,201839,
AFNE01.JPG,AFNE01.JPG,AFNE01.JPG,AFNE01.JPG,AFNE01.JPG,AFNE01.JPG,,,,,,,,,,,,,2,1,21,2,,,,,,,,,,,AMNE03.jpg,AMSA19.jpg,AMNE15.jpg,AMSA08.jpg,AMNE03.jpg,MN,1,num_8,32,num_4,1.38340952515,,,2017_Oct_11_1544,60.0082569895,FEMA4ImagesEEG,001,201839,
AFNE01.JPG,AFNE01.JPG,AFNE01.JPG,AFNE01.JPG,AFNE01.JPG,AFNE01.JPG,,,,,,,,,,,,,2,2,22,0,,,,,,,,,,,AMSA04.jpg,AMNE15.jpg,AMNE02.jpg,AMSA19.jpg,AMSA19.jpg,MS,2,num_4,32,num_6,0.933423012262,,,2017_Oct_11_1544,60.0082569895,FEMA4ImagesEEG,001,201839,
AFNE01.JPG,AFNE01.JPG,AFNE01.JPG,AFNE01.JPG,AFNE01.JPG,AFNE01.JPG,,,,,,,,,,,,,2,3,23,9,,,,,,,,,,,AMSA04.jpg,AMNE20.jpg,AMNE13.jpg,AMSA11.jpg,AMSA11.jpg,MS,2,num_4,32,num_2,0.76676356222,,,2017_Oct_11_1544,60.0082569895,FEMA4ImagesEEG,001,201839,
AFNE01.JPG,AFNE01.JPG,AFNE01.JPG,AFNE01.JPG,AFNE01.JPG,AFNE01.JPG,,,,,,,,,,,,,2,4,24,5,,,,,,,,,,,AMSA03.jpg,AMSA02.jpg,AMNE02.jpg,AMNE07.jpg,AMNE07.jpg,MN,1,num_4,32,num_8,0.850095372065,,,2017_Oct_11_1544,60.0082569895,FEMA4ImagesEEG,001,201839,
AFNE01.JPG,AFNE01.JPG,AFNE01.JPG,AFNE01.JPG,AFNE01.JPG,AFNE01.JPG,,,,,,,,,,,,,2,5,25,1,,,,,,,,,,,AMNE08.jpg,AMNE09.jpg,AMSA14.jpg,AMSA08.jpg,AMNE09.jpg,MN,1,num_6,48,None,,,,2017_Oct_11_1544,60.0082569895,FEMA4ImagesEEG,001,201839,
AFNE01.JPG,AFNE01.JPG,AFNE01.JPG,AFNE01.JPG,AFNE01.JPG,AFNE01.JPG,,,,,,,,,,,,,2,6,26,6,,,,,,,,,,,AMSA12.jpg,AMNE16.jpg,AMNE20.jpg,AMSA09.jpg,AMSA12.jpg,MS,2,num_8,32,num_4,1.18343512015,,,2017_Oct_11_1544,60.0082569895,FEMA4ImagesEEG,001,201839,
AFNE01.JPG,AFNE01.JPG,AFNE01.JPG,AFNE01.JPG,AFNE01.JPG,AFNE01.JPG,,,,,,,,,,,,,2,7,27,4,,,,,,,,,,,AMSA16.jpg,AMSA17.jpg,AMNE08.jpg,AMNE15.jpg,AMNE15.jpg,MN,1,num_4,32,num_8,0.750165902777,,,2017_Oct_11_1544,60.0082569895,FEMA4ImagesEEG,001,201839,
AFNE01.JPG,AFNE01.JPG,AFNE01.JPG,AFNE01.JPG,AFNE01.JPG,AFNE01.JPG,,,,,,,,,,,,,2,8,28,8,,,,,,,,,,,AMNE20.jpg,AMSA10.jpg,AMNE11.jpg,AMSA11.jpg,AMNE11.jpg,MN,1,num_2,16,num_2,0.883491474204,,,2017_Oct_11_1544,60.0082569895,FEMA4ImagesEEG,001,201839,
AFNE01.JPG,AFNE01.JPG,AFNE01.JPG,AFNE01.JPG,AFNE01.JPG,AFNE01.JPG,,,,,,,,,,,,,2,9,29,3,,,,,,,,,,,AMNE12.jpg,AMNE13.jpg,AMSA05.jpg,AMSA12.jpg,AMSA12.jpg,MS,2,num_4,16,num_4,0.683516748599,,,2017_Oct_11_1544,60.0082569895,FEMA4ImagesEEG,001,201839,
AFNE01.JPG,AFNE01.JPG,AFNE01.JPG,AFNE01.JPG,AFNE01.JPG,AFNE01.JPG,,,,,,,,,,,,,3,0,30,3,,,,,,,,,,,AMNE01.jpg,AMNE09.jpg,AMSA17.jpg,AMSA05.jpg,AMSA17.jpg,MS,2,num_2,32,num_8,0.750163657591,,,2017_Oct_11_1544,60.0082569895,FEMA4ImagesEEG,001,201839,
AFNE01.JPG,AFNE01.JPG,AFNE01.JPG,AFNE01.JPG,AFNE01.JPG,AFNE01.JPG,,,,,,,,,,,,,3,1,31,2,,,,,,,,,,,AMSA15.jpg,AMNE19.jpg,AMSA18.jpg,AMNE07.jpg,AMNE07.jpg,MN,1,num_4,32,num_8,1.15012465569,,,2017_Oct_11_1544,60.0082569895,FEMA4ImagesEEG,001,201839,
AFNE01.JPG,AFNE01.JPG,AFNE01.JPG,AFNE01.JPG,AFNE01.JPG,AFNE01.JPG,,,,,,,,,,,,,3,2,32,8,,,,,,,,,,,AMSA10.jpg,AMSA16.jpg,AMNE10.jpg,AMNE13.jpg,AMNE13.jpg,MN,1,num_4,16,num_4,1.46673363727,,,2017_Oct_11_1544,60.0082569895,FEMA4ImagesEEG,001,201839,
AFNE01.JPG,AFNE01.JPG,AFNE01.JPG,AFNE01.JPG,AFNE01.JPG,AFNE01.JPG,,,,,,,,,,,,,3,3,33,6,,,,,,,,,,,AMNE11.jpg,AMNE04.jpg,AMSA05.jpg,AMSA01.jpg,AMNE11.jpg,MN,1,num_8,32,num_4,0.900194336427,,,2017_Oct_11_1544,60.0082569895,FEMA4ImagesEEG,001,201839,
AFNE01.JPG,AFNE01.JPG,AFNE01.JPG,AFNE01.JPG,AFNE01.JPG,AFNE01.JPG,,,,,,,,,,,,,3,4,34,1,,,,,,,,,,,AMNE13.jpg,AMSA05.jpg,AMNE03.jpg,AMSA17.jpg,AMSA05.jpg,MS,2,num_6,32,num_8,1.36673424661,,,2017_Oct_11_1544,60.0082569895,FEMA4ImagesEEG,001,201839,
AFNE01.JPG,AFNE01.JPG,AFNE01.JPG,AFNE01.JPG,AFNE01.JPG,AFNE01.JPG,,,,,,,,,,,,,3,5,35,4,,,,,,,,,,,AMSA12.jpg,AMNE11.jpg,AMNE20.jpg,AMSA20.jpg,AMNE11.jpg,MN,1,num_6,32,num_2,0.766767411144,,,2017_Oct_11_1544,60.0082569895,FEMA4ImagesEEG,001,201839,
AFNE01.JPG,AFNE01.JPG,AFNE01.JPG,AFNE01.JPG,AFNE01.JPG,AFNE01.JPG,,,,,,,,,,,,,3,6,36,7,,,,,,,,,,,AMNE04.jpg,AMSA01.jpg,AMNE03.jpg,AMSA11.jpg,AMSA11.jpg,MS,2,num_4,32,num_2,2.39985675737,,,2017_Oct_11_1544,60.0082569895,FEMA4ImagesEEG,001,201839,
AFNE01.JPG,AFNE01.JPG,AFNE01.JPG,AFNE01.JPG,AFNE01.JPG,AFNE01.JPG,,,,,,,,,,,,,3,7,37,5,,,,,,,,,,,AMSA18.jpg,AMSA17.jpg,AMNE16.jpg,AMNE18.jpg,AMSA17.jpg,MS,2,num_6,32,num_4,2.01666533563,,,2017_Oct_11_1544,60.0082569895,FEMA4ImagesEEG,001,201839,
AFNE01.JPG,AFNE01.JPG,AFNE01.JPG,AFNE01.JPG,AFNE01.JPG,AFNE01.JPG,,,,,,,,,,,,,3,8,38,9,,,,,,,,,,,AMNE05.jpg,AMSA20.jpg,AMNE10.jpg,AMSA15.jpg,AMNE05.jpg,MN,1,num_8,16,num_8,0.816734230611,,,2017_Oct_11_1544,60.0082569895,FEMA4ImagesEEG,001,201839,
AFNE01.JPG,AFNE01.JPG,AFNE01.JPG,AFNE01.JPG,AFNE01.JPG,AFNE01.JPG,,,,,,,,,,,,,3,9,39,0,,,,,,,,,,,AMNE20.jpg,AMSA03.jpg,AMNE05.jpg,AMSA02.jpg,AMSA02.jpg,MS,2,num_4,32,num_6,0.900158413569,,,2017_Oct_11_1544,60.0082569895,FEMA4ImagesEEG,001,201839,
AFNE01.JPG,AFNE01.JPG,AFNE01.JPG,AFNE01.JPG,AFNE01.JPG,AFNE01.JPG,,,,,,,,,,,,,4,0,40,1,,,,,,,,,,,AMNE13.jpg,AMSA01.jpg,AMNE11.jpg,AMSA08.jpg,AMNE11.jpg,MN,1,num_2,32,num_4,0.916739394539,,,2017_Oct_11_1544,60.0082569895,FEMA4ImagesEEG,001,201839,
AFNE01.JPG,AFNE01.JPG,AFNE01.JPG,AFNE01.JPG,AFNE01.JPG,AFNE01.JPG,,,,,,,,,,,,,4,1,41,4,,,,,,,,,,,AMNE15.jpg,AMSA08.jpg,AMSA02.jpg,AMNE09.jpg,AMNE15.jpg,MN,1,num_8,16,num_8,0.650142456754,,,2017_Oct_11_1544,60.0082569895,FEMA4ImagesEEG,001,201839,
AFNE01.JPG,AFNE01.JPG,AFNE01.JPG,AFNE01.JPG,AFNE01.JPG,AFNE01.JPG,,,,,,,,,,,,,4,2,42,5,,,,,,,,,,,AMNE10.jpg,AMSA05.jpg,AMSA16.jpg,AMNE15.jpg,AMNE15.jpg,MN,1,num_4,32,num_6,0.966764267883,,,2017_Oct_11_1544,60.0082569895,FEMA4ImagesEEG,001,201839,
AFNE01.JPG,AFNE01.JPG,AFNE01.JPG,AFNE01.JPG,AFNE01.JPG,AFNE01.JPG,,,,,,,,,,,,,4,3,43,0,,,,,,,,,,,AMSA17.jpg,AMNE02.jpg,AMSA03.jpg,AMNE09.jpg,AMNE09.jpg,MN,1,num_4,16,num_4,0.816785549046,,,2017_Oct_11_1544,60.0082569895,FEMA4ImagesEEG,001,201839,
AFNE01.JPG,AFNE01.JPG,AFNE01.JPG,AFNE01.JPG,AFNE01.JPG,AFNE01.JPG,,,,,,,,,,,,,4,4,44,9,,,,,,,,,,,AMNE10.jpg,AMSA18.jpg,AMSA06.jpg,AMNE08.jpg,AMSA18.jpg,MS,2,num_6,32,num_2,1.35015358648,,,2017_Oct_11_1544,60.0082569895,FEMA4ImagesEEG,001,201839,
AFNE01.JPG,AFNE01.JPG,AFNE01.JPG,AFNE01.JPG,AFNE01.JPG,AFNE01.JPG,,,,,,,,,,,,,4,5,45,6,,,,,,,,,,,AMNE06.jpg,AMSA13.jpg,AMNE18.jpg,AMSA02.jpg,AMNE18.jpg,MN,1,num_2,32,num_8,0.916778204031,,,2017_Oct_11_1544,60.0082569895,FEMA4ImagesEEG,001,201839,
AFNE01.JPG,AFNE01.JPG,AFNE01.JPG,AFNE01.JPG,AFNE01.JPG,AFNE01.JPG,,,,,,,,,,,,,4,6,46,2,,,,,,,,,,,AMSA03.jpg,AMSA07.jpg,AMNE05.jpg,AMNE03.jpg,AMSA03.jpg,MS,2,num_8,32,num_4,1.45011737489,,,2017_Oct_11_1544,60.0082569895,FEMA4ImagesEEG,001,201839,
AFNE01.JPG,AFNE01.JPG,AFNE01.JPG,AFNE01.JPG,AFNE01.JPG,AFNE01.JPG,,,,,,,,,,,,,4,7,47,8,,,,,,,,,,,AMSA08.jpg,AMNE04.jpg,AMSA14.jpg,AMNE16.jpg,AMNE04.jpg,MN,1,num_6,16,num_6,1.10008117929,,,2017_Oct_11_1544,60.0082569895,FEMA4ImagesEEG,001,201839,
AFNE01.JPG,AFNE01.JPG,AFNE01.JPG,AFNE01.JPG,AFNE01.JPG,AFNE01.JPG,,,,,,,,,,,,,4,8,48,3,,,,,,,,,,,AMSA15.jpg,AMNE10.jpg,AMNE02.jpg,AMSA17.jpg,AMNE02.jpg,MN,1,num_2,16,num_2,1.01675899175,,,2017_Oct_11_1544,60.0082569895,FEMA4ImagesEEG,001,201839,
AFNE01.JPG,AFNE01.JPG,AFNE01.JPG,AFNE01.JPG,AFNE01.JPG,AFNE01.JPG,,,,,,,,,,,,,4,9,49,7,,,,,,,,,,,AMNE09.jpg,AMSA06.jpg,AMSA14.jpg,AMNE01.jpg,AMNE01.jpg,MN,1,num_4,16,num_4,1.25007914263,,,2017_Oct_11_1544,60.0082569895,FEMA4ImagesEEG,001,201839,
AFNE01.JPG,AFNE01.JPG,AFNE01.JPG,AFNE01.JPG,AFNE01.JPG,AFNE01.JPG,,,,,,,,,,,,,5,0,50,9,,,,,,,,,,,AMNE19.jpg,AMSA09.jpg,AMNE14.jpg,AMSA01.jpg,AMNE14.jpg,MN,1,num_2,16,num_2,0.900114472141,,,2017_Oct_11_1544,60.0082569895,FEMA4ImagesEEG,001,201839,
AFNE01.JPG,AFNE01.JPG,AFNE01.JPG,AFNE01.JPG,AFNE01.JPG,AFNE01.JPG,,,,,,,,,,,,,5,1,51,4,,,,,,,,,,,AMSA07.jpg,AMNE17.jpg,AMNE06.jpg,AMSA12.jpg,AMSA12.jpg,MS,2,num_4,32,num_8,1.23343241005,,,2017_Oct_11_1544,60.0082569895,FEMA4ImagesEEG,001,201839,
AFNE01.JPG,AFNE01.JPG,AFNE01.JPG,AFNE01.JPG,AFNE01.JPG,AFNE01.JPG,,,,,,,,,,,,,5,2,52,6,,,,,,,,,,,AMNE15.jpg,AMNE19.jpg,AMSA16.jpg,AMSA03.jpg,AMNE19.jpg,MN,1,num_6,32,num_4,0.966761381249,,,2017_Oct_11_1544,60.0082569895,FEMA4ImagesEEG,001,201839,
AFNE01.JPG,AFNE01.JPG,AFNE01.JPG,AFNE01.JPG,AFNE01.JPG,AFNE01.JPG,,,,,,,,,,,,,5,3,53,0,,,,,,,,,,,AMSA19.jpg,AMNE13.jpg,AMNE12.jpg,AMSA15.jpg,AMSA19.jpg,MS,2,num_8,32,num_4,0.616771692992,,,2017_Oct_11_1544,60.0082569895,FEMA4ImagesEEG,001,201839,
AFNE01.JPG,AFNE01.JPG,AFNE01.JPG,AFNE01.JPG,AFNE01.JPG,AFNE01.JPG,,,,,,,,,,,,,5,4,54,2,,,,,,,,,,,AMSA12.jpg,AMNE15.jpg,AMSA03.jpg,AMNE16.jpg,AMSA03.jpg,MS,2,num_2,32,num_4,1.28337741911,,,2017_Oct_11_1544,60.0082569895,FEMA4ImagesEEG,001,201839,
AFNE01.JPG,AFNE01.JPG,AFNE01.JPG,AFNE01.JPG,AFNE01.JPG,AFNE01.JPG,,,,,,,,,,,,,5,5,55,1,,,,,,,,,,,AMSA10.jpg,AMSA04.jpg,AMNE05.jpg,AMNE10.jpg,AMSA10.jpg,MS,2,num_8,16,num_8,0.783445255598,,,2017_Oct_11_1544,60.0082569895,FEMA4ImagesEEG,001,201839,
AFNE01.JPG,AFNE01.JPG,AFNE01.JPG,AFNE01.JPG,AFNE01.JPG,AFNE01.JPG,,,,,,,,,,,,,5,6,56,8,,,,,,,,,,,AMSA19.jpg,AMSA20.jpg,AMNE15.jpg,AMNE16.jpg,AMNE15.jpg,MN,1,num_2,32,num_4,0.900109019596,,,2017_Oct_11_1544,60.0082569895,FEMA4ImagesEEG,001,201839,
AFNE01.JPG,AFNE01.JPG,AFNE01.JPG,AFNE01.JPG,AFNE01.JPG,AFNE01.JPG,,,,,,,,,,,,,5,7,57,3,,,,,,,,,,,AMSA08.jpg,AMNE10.jpg,AMSA14.jpg,AMNE04.jpg,AMSA14.jpg,MS,2,num_2,16,num_2,2.26693980896,,,2017_Oct_11_1544,60.0082569895,FEMA4ImagesEEG,001,201839,
AFNE01.JPG,AFNE01.JPG,AFNE01.JPG,AFNE01.JPG,AFNE01.JPG,AFNE01.JPG,,,,,,,,,,,,,5,8,58,7,,,,,,,,,,,AMSA10.jpg,AMNE19.jpg,AMSA11.jpg,AMNE07.jpg,AMNE07.jpg,MN,1,num_4,32,num_8,1.3834053555,,,2017_Oct_11_1544,60.0082569895,FEMA4ImagesEEG,001,201839,
AFNE01.JPG,AFNE01.JPG,AFNE01.JPG,AFNE01.JPG,AFNE01.JPG,AFNE01.JPG,,,,,,,,,,,,,5,9,59,5,,,,,,,,,,,AMNE04.jpg,AMSA04.jpg,AMSA16.jpg,AMNE06.jpg,AMNE04.jpg,MN,1,num_8,32,num_4,1.45004809496,,,2017_Oct_11_1544,60.0082569895,FEMA4ImagesEEG,001,201839,
,,,,,,,,,,,,,,,,,,,,,,,,,,,,,,,,,,,,,,,,,,,space,4.98310116562,2017_Oct_11_1544,60.0082569895,FEMA4ImagesEEG,001,201839,
AFNE01.JPG,AFNE01.JPG,AFNE01.JPG,AFNE01.JPG,AFNE01.JPG,AFNE01.JPG,,,,,,,,,,,,,,,,,0,0,0,0,,,,,,,AFSA20.jpg,AFNE04.jpg,AFSA15.jpg,AFNE19.jpg,AFSA15.jpg,FS,4,num_2,32,num_4,0.883286842029,,,2017_Oct_11_1544,60.0082569895,FEMA4ImagesEEG,001,201839,
AFNE01.JPG,AFNE01.JPG,AFNE01.JPG,AFNE01.JPG,AFNE01.JPG,AFNE01.JPG,,,,,,,,,,,,,,,,,0,1,1,3,,,,,,,AFSA14.jpg,AFNE07.jpg,AFSA09.jpg,AFNE18.jpg,AFNE18.jpg,FN,3,num_4,32,num_8,0.700174707104,,,2017_Oct_11_1544,60.0082569895,FEMA4ImagesEEG,001,201839,
AFNE01.JPG,AFNE01.JPG,AFNE01.JPG,AFNE01.JPG,AFNE01.JPG,AFNE01.JPG,,,,,,,,,,,,,,,,,0,2,2,2,,,,,,,AFSA10.jpg,AFSA06.jpg,AFNE14.jpg,AFNE01.jpg,AFNE01.jpg,FN,3,num_4,32,num_2,1.25009838713,,,2017_Oct_11_1544,60.0082569895,FEMA4ImagesEEG,001,201839,
AFNE01.JPG,AFNE01.JPG,AFNE01.JPG,AFNE01.JPG,AFNE01.JPG,AFNE01.JPG,,,,,,,,,,,,,,,,,0,3,3,8,,,,,,,AFNE20.jpg,AFSA13.jpg,AFSA16.jpg,AFNE04.jpg,AFSA16.jpg,FS,4,num_2,32,num_6,0.783441406791,,,2017_Oct_11_1544,60.0082569895,FEMA4ImagesEEG,001,201839,
AFNE01.JPG,AFNE01.JPG,AFNE01.JPG,AFNE01.JPG,AFNE01.JPG,AFNE01.JPG,,,,,,,,,,,,,,,,,0,4,4,9,,,,,,,AFSA02.jpg,AFNE17.jpg,AFSA12.jpg,AFNE03.jpg,AFNE17.jpg,FN,3,num_6,32,num_2,0.666801056825,,,2017_Oct_11_1544,60.0082569895,FEMA4ImagesEEG,001,201839,
AFNE01.JPG,AFNE01.JPG,AFNE01.JPG,AFNE01.JPG,AFNE01.JPG,AFNE01.JPG,,,,,,,,,,,,,,,,,0,5,5,6,,,,,,,AFSA09.jpg,AFNE13.jpg,AFSA10.jpg,AFNE14.jpg,AFNE13.jpg,FN,3,num_6,16,num_6,0.78333941137,,,2017_Oct_11_1544,60.0082569895,FEMA4ImagesEEG,001,201839,
AFNE01.JPG,AFNE01.JPG,AFNE01.JPG,AFNE01.JPG,AFNE01.JPG,AFNE01.JPG,,,,,,,,,,,,,,,,,0,6,6,1,,,,,,,AFSA13.jpg,AFNE19.jpg,AFSA19.jpg,AFNE15.jpg,AFNE19.jpg,FN,3,num_6,32,num_4,0.60010347073,,,2017_Oct_11_1544,60.0082569895,FEMA4ImagesEEG,001,201839,
AFNE01.JPG,AFNE01.JPG,AFNE01.JPG,AFNE01.JPG,AFNE01.JPG,AFNE01.JPG,,,,,,,,,,,,,,,,,0,7,7,7,,,,,,,AFSA18.jpg,AFSA03.jpg,AFNE03.jpg,AFNE10.jpg,AFNE03.jpg,FN,3,num_2,16,num_2,0.716849985649,,,2017_Oct_11_1544,60.0082569895,FEMA4ImagesEEG,001,201839,
AFNE01.JPG,AFNE01.JPG,AFNE01.JPG,AFNE01.JPG,AFNE01.JPG,AFNE01.JPG,,,,,,,,,,,,,,,,,0,8,8,5,,,,,,,AFSA08.jpg,AFNE07.jpg,AFSA07.jpg,AFNE04.jpg,AFNE04.jpg,FN,3,num_4,32,num_6,1.61672037456,,,2017_Oct_11_1544,60.0082569895,FEMA4ImagesEEG,001,201839,
AFNE01.JPG,AFNE01.JPG,AFNE01.JPG,AFNE01.JPG,AFNE01.JPG,AFNE01.JPG,,,,,,,,,,,,,,,,,0,9,9,4,,,,,,,AFNE19.jpg,AFSA05.jpg,AFNE09.jpg,AFSA07.jpg,AFSA05.jpg,FS,4,num_6,32,num_4,2.33341063175,,,2017_Oct_11_1544,60.0082569895,FEMA4ImagesEEG,001,201839,
AFNE01.JPG,AFNE01.JPG,AFNE01.JPG,AFNE01.JPG,AFNE01.JPG,AFNE01.JPG,,,,,,,,,,,,,,,,,1,0,10,7,,,,,,,AFNE03.jpg,AFSA13.jpg,AFNE09.jpg,AFSA02.jpg,AFSA13.jpg,FS,4,num_6,32,num_4,1.36669126747,,,2017_Oct_11_1544,60.0082569895,FEMA4ImagesEEG,001,201839,
AFNE01.JPG,AFNE01.JPG,AFNE01.JPG,AFNE01.JPG,AFNE01.JPG,AFNE01.JPG,,,,,,,,,,,,,,,,,1,1,11,9,,,,,,,AFNE14.jpg,AFNE11.jpg,AFSA06.jpg,AFSA15.jpg,AFNE14.jpg,FN,3,num_8,16,num_8,1.03344902431,,,2017_Oct_11_1544,60.0082569895,FEMA4ImagesEEG,001,201839,
AFNE01.JPG,AFNE01.JPG,AFNE01.JPG,AFNE01.JPG,AFNE01.JPG,AFNE01.JPG,,,,,,,,,,,,,,,,,1,2,12,8,,,,,,,AFNE05.jpg,AFSA20.jpg,AFNE09.jpg,AFSA08.jpg,AFSA08.jpg,FS,4,num_4,32,num_6,0.666751983459,,,2017_Oct_11_1544,60.0082569895,FEMA4ImagesEEG,001,201839,
AFNE01.JPG,AFNE01.JPG,AFNE01.JPG,AFNE01.JPG,AFNE01.JPG,AFNE01.JPG,,,,,,,,,,,,,,,,,1,3,13,6,,,,,,,AFSA04.jpg,AFSA09.jpg,AFNE07.jpg,AFNE03.jpg,AFNE03.jpg,FN,3,num_4,16,num_4,0.816730702529,,,2017_Oct_11_1544,60.0082569895,FEMA4ImagesEEG,001,201839,
AFNE01.JPG,AFNE01.JPG,AFNE01.JPG,AFNE01.JPG,AFNE01.JPG,AFNE01.JPG,,,,,,,,,,,,,,,,,1,4,14,3,,,,,,,AFNE08.jpg,AFNE04.jpg,AFSA10.jpg,AFSA19.jpg,AFNE04.jpg,FN,3,num_6,32,num_2,1.6333299015,,,2017_Oct_11_1544,60.0082569895,FEMA4ImagesEEG,001,201839,
AFNE01.JPG,AFNE01.JPG,AFNE01.JPG,AFNE01.JPG,AFNE01.JPG,AFNE01.JPG,,,,,,,,,,,,,,,,,1,5,15,5,,,,,,,AFSA19.jpg,AFNE18.jpg,AFNE05.jpg,AFSA11.jpg,AFSA19.jpg,FS,4,num_8,32,num_4,1.33344334713,,,2017_Oct_11_1544,60.0082569895,FEMA4ImagesEEG,001,201839,
AFNE01.JPG,AFNE01.JPG,AFNE01.JPG,AFNE01.JPG,AFNE01.JPG,AFNE01.JPG,,,,,,,,,,,,,,,,,1,6,16,1,,,,,,,AFSA16.jpg,AFNE11.jpg,AFSA04.jpg,AFNE16.jpg,AFSA04.jpg,FS,4,num_2,32,num_6,1.20007575885,,,2017_Oct_11_1544,60.0082569895,FEMA4ImagesEEG,001,201839,
AFNE01.JPG,AFNE01.JPG,AFNE01.JPG,AFNE01.JPG,AFNE01.JPG,AFNE01.JPG,,,,,,,,,,,,,,,,,1,7,17,0,,,,,,,AFNE07.jpg,AFSA11.jpg,AFNE11.jpg,AFSA04.jpg,AFSA11.jpg,FS,4,num_6,16,num_6,0.533464259468,,,2017_Oct_11_1544,60.0082569895,FEMA4ImagesEEG,001,201839,
AFNE01.JPG,AFNE01.JPG,AFNE01.JPG,AFNE01.JPG,AFNE01.JPG,AFNE01.JPG,,,,,,,,,,,,,,,,,1,8,18,4,,,,,,,AFNE20.jpg,AFSA11.jpg,AFSA18.jpg,AFNE04.jpg,AFSA11.jpg,FS,4,num_6,16,num_6,0.65013700421,,,2017_Oct_11_1544,60.0082569895,FEMA4ImagesEEG,001,201839,
AFNE01.JPG,AFNE01.JPG,AFNE01.JPG,AFNE01.JPG,AFNE01.JPG,AFNE01.JPG,,,,,,,,,,,,,,,,,1,9,19,2,,,,,,,AFSA07.jpg,AFSA11.jpg,AFNE09.jpg,AFNE04.jpg,AFSA07.jpg,FS,4,num_8,32,num_4,2.96656733344,,,2017_Oct_11_1544,60.0082569895,FEMA4ImagesEEG,001,201839,
AFNE01.JPG,AFNE01.JPG,AFNE01.JPG,AFNE01.JPG,AFNE01.JPG,AFNE01.JPG,,,,,,,,,,,,,,,,,2,0,20,7,,,,,,,AFSA11.jpg,AFNE02.jpg,AFNE06.jpg,AFSA18.jpg,AFNE02.jpg,FN,3,num_6,16,num_6,1.44995764631,,,2017_Oct_11_1544,60.0082569895,FEMA4ImagesEEG,001,201839,
AFNE01.JPG,AFNE01.JPG,AFNE01.JPG,AFNE01.JPG,AFNE01.JPG,AFNE01.JPG,,,,,,,,,,,,,,,,,2,1,21,0,,,,,,,AFNE09.jpg,AFNE17.jpg,AFSA06.jpg,AFSA15.jpg,AFSA06.jpg,FS,4,num_2,32,num_6,0.833494505263,,,2017_Oct_11_1544,60.0082569895,FEMA4ImagesEEG,001,201839,
AFNE01.JPG,AFNE01.JPG,AFNE01.JPG,AFNE01.JPG,AFNE01.JPG,AFNE01.JPG,,,,,,,,,,,,,,,,,2,2,22,8,,,,,,,AFSA12.jpg,AFNE13.jpg,AFSA18.jpg,AFNE01.jpg,AFNE01.jpg,FN,3,num_4,16,num_4,0.716768838349,,,2017_Oct_11_1544,60.0082569895,FEMA4ImagesEEG,001,201839,
AFNE01.JPG,AFNE01.JPG,AFNE01.JPG,AFNE01.JPG,AFNE01.JPG,AFNE01.JPG,,,,,,,,,,,,,,,,,2,3,23,1,,,,,,,AFSA16.jpg,AFNE20.jpg,AFNE13.jpg,AFSA19.jpg,AFSA16.jpg,FS,4,num_8,32,num_4,0.883294539759,,,2017_Oct_11_1544,60.0082569895,FEMA4ImagesEEG,001,201839,
AFNE01.JPG,AFNE01.JPG,AFNE01.JPG,AFNE01.JPG,AFNE01.JPG,AFNE01.JPG,,,,,,,,,,,,,,,,,2,4,24,4,,,,,,,AFSA10.jpg,AFNE14.jpg,AFNE09.jpg,AFSA09.jpg,AFNE14.jpg,FN,3,num_6,16,num_6,1.61669375317,,,2017_Oct_11_1544,60.0082569895,FEMA4ImagesEEG,001,201839,
AFNE01.JPG,AFNE01.JPG,AFNE01.JPG,AFNE01.JPG,AFNE01.JPG,AFNE01.JPG,,,,,,,,,,,,,,,,,2,5,25,5,,,,,,,AFSA05.jpg,AFSA08.jpg,AFNE18.jpg,AFNE04.jpg,AFSA05.jpg,FS,4,num_8,32,num_4,1.29983074544,,,2017_Oct_11_1544,60.0082569895,FEMA4ImagesEEG,001,201839,
AFNE01.JPG,AFNE01.JPG,AFNE01.JPG,AFNE01.JPG,AFNE01.JPG,AFNE01.JPG,,,,,,,,,,,,,,,,,2,6,26,2,,,,,,,AFSA19.jpg,AFNE12.jpg,AFSA05.jpg,AFNE05.jpg,AFSA19.jpg,FS,4,num_8,32,num_2,0.950094121275,,,2017_Oct_11_1544,60.0082569895,FEMA4ImagesEEG,001,201839,
AFNE01.JPG,AFNE01.JPG,AFNE01.JPG,AFNE01.JPG,AFNE01.JPG,AFNE01.JPG,,,,,,,,,,,,,,,,,2,7,27,9,,,,,,,AFNE19.jpg,AFSA14.jpg,AFNE20.jpg,AFSA09.jpg,AFNE19.jpg,FN,3,num_8,32,num_4,0.816743852803,,,2017_Oct_11_1544,60.0082569895,FEMA4ImagesEEG,001,201839,
AFNE01.JPG,AFNE01.JPG,AFNE01.JPG,AFNE01.JPG,AFNE01.JPG,AFNE01.JPG,,,,,,,,,,,,,,,,,2,8,28,3,,,,,,,AFSA03.jpg,AFNE07.jpg,AFNE20.jpg,AFSA19.jpg,AFNE20.jpg,FN,3,num_2,32,num_4,0.933458614396,,,2017_Oct_11_1544,60.0082569895,FEMA4ImagesEEG,001,201839,
AFNE01.JPG,AFNE01.JPG,AFNE01.JPG,AFNE01.JPG,AFNE01.JPG,AFNE01.JPG,,,,,,,,,,,,,,,,,2,9,29,6,,,,,,,AFSA13.jpg,AFNE05.jpg,AFNE01.jpg,AFSA17.jpg,AFSA13.jpg,FS,4,num_8,32,num_4,2.13333679736,,,2017_Oct_11_1544,60.0082569895,FEMA4ImagesEEG,001,201839,
AFNE01.JPG,AFNE01.JPG,AFNE01.JPG,AFNE01.JPG,AFNE01.JPG,AFNE01.JPG,,,,,,,,,,,,,,,,,3,0,30,5,,,,,,,AFSA18.jpg,AFNE14.jpg,AFSA01.jpg,AFNE16.jpg,AFNE14.jpg,FN,3,num_6,16,num_6,0.750141205848,,,2017_Oct_11_1544,60.0082569895,FEMA4ImagesEEG,001,201839,
AFNE01.JPG,AFNE01.JPG,AFNE01.JPG,AFNE01.JPG,AFNE01.JPG,AFNE01.JPG,,,,,,,,,,,,,,,,,3,1,31,4,,,,,,,AFNE07.jpg,AFSA12.jpg,AFSA05.jpg,AFNE04.jpg,AFNE07.jpg,FN,3,num_8,16,num_8,1.08339563711,,,2017_Oct_11_1544,60.0082569895,FEMA4ImagesEEG,001,201839,
AFNE01.JPG,AFNE01.JPG,AFNE01.JPG,AFNE01.JPG,AFNE01.JPG,AFNE01.JPG,,,,,,,,,,,,,,,,,3,2,32,3,,,,,,,AFSA13.jpg,AFNE02.jpg,AFNE01.jpg,AFSA17.jpg,AFSA17.jpg,FS,4,num_4,16,num_4,1.0501249443,,,2017_Oct_11_1544,60.0082569895,FEMA4ImagesEEG,001,201839,
AFNE01.JPG,AFNE01.JPG,AFNE01.JPG,AFNE01.JPG,AFNE01.JPG,AFNE01.JPG,,,,,,,,,,,,,,,,,3,3,33,8,,,,,,,AFNE14.jpg,AFSA03.jpg,AFSA17.jpg,AFNE15.jpg,AFSA03.jpg,FS,4,num_6,16,num_6,0.883417383302,,,2017_Oct_11_1544,60.0082569895,FEMA4ImagesEEG,001,201839,
AFNE01.JPG,AFNE01.JPG,AFNE01.JPG,AFNE01.JPG,AFNE01.JPG,AFNE01.JPG,,,,,,,,,,,,,,,,,3,4,34,2,,,,,,,AFSA01.jpg,AFSA05.jpg,AFNE01.jpg,AFNE11.jpg,AFSA01.jpg,FS,4,num_8,16,num_8,0.900152640184,,,2017_Oct_11_1544,60.0082569895,FEMA4ImagesEEG,001,201839,
AFNE01.JPG,AFNE01.JPG,AFNE01.JPG,AFNE01.JPG,AFNE01.JPG,AFNE01.JPG,,,,,,,,,,,,,,,,,3,5,35,6,,,,,,,AFNE07.jpg,AFSA13.jpg,AFSA09.jpg,AFNE12.jpg,AFNE07.jpg,FN,3,num_8,16,num_8,1.03344100586,,,2017_Oct_11_1544,60.0082569895,FEMA4ImagesEEG,001,201839,
AFNE01.JPG,AFNE01.JPG,AFNE01.JPG,AFNE01.JPG,AFNE01.JPG,AFNE01.JPG,,,,,,,,,,,,,,,,,3,6,36,9,,,,,,,AFNE20.jpg,AFSA09.jpg,AFSA17.jpg,AFNE17.jpg,AFSA17.jpg,FS,4,num_2,32,num_4,1.38309327536,,,2017_Oct_11_1544,60.0082569895,FEMA4ImagesEEG,001,201839,
AFNE01.JPG,AFNE01.JPG,AFNE01.JPG,AFNE01.JPG,AFNE01.JPG,AFNE01.JPG,,,,,,,,,,,,,,,,,3,7,37,7,,,,,,,AFSA18.jpg,AFNE06.jpg,AFSA17.jpg,AFNE16.jpg,AFNE06.jpg,FN,3,num_6,16,num_6,1.50011241948,,,2017_Oct_11_1544,60.0082569895,FEMA4ImagesEEG,001,201839,
AFNE01.JPG,AFNE01.JPG,AFNE01.JPG,AFNE01.JPG,AFNE01.JPG,AFNE01.JPG,,,,,,,,,,,,,,,,,3,8,38,1,,,,,,,AFSA10.jpg,AFNE02.jpg,AFSA01.jpg,AFNE10.jpg,AFSA01.jpg,FS,4,num_2,32,num_4,0.916756393737,,,2017_Oct_11_1544,60.0082569895,FEMA4ImagesEEG,001,201839,
AFNE01.JPG,AFNE01.JPG,AFNE01.JPG,AFNE01.JPG,AFNE01.JPG,AFNE01.JPG,,,,,,,,,,,,,,,,,3,9,39,0,,,,,,,AFSA17.jpg,AFNE11.jpg,AFNE08.jpg,AFSA11.jpg,AFNE11.jpg,FN,3,num_6,16,num_6,1.38343197689,,,2017_Oct_11_1544,60.0082569895,FEMA4ImagesEEG,001,201839,
AFNE01.JPG,AFNE01.JPG,AFNE01.JPG,AFNE01.JPG,AFNE01.JPG,AFNE01.JPG,,,,,,,,,,,,,,,,,4,0,40,4,,,,,,,AFNE19.jpg,AFSA07.jpg,AFSA01.jpg,AFNE15.jpg,AFNE15.jpg,FN,3,num_4,32,num_8,1.45007760311,,,2017_Oct_11_1544,60.0082569895,FEMA4ImagesEEG,001,201839,
AFNE01.JPG,AFNE01.JPG,AFNE01.JPG,AFNE01.JPG,AFNE01.JPG,AFNE01.JPG,,,,,,,,,,,,,,,,,4,1,41,6,,,,,,,AFSA02.jpg,AFNE09.jpg,AFNE19.jpg,AFSA04.jpg,AFNE09.jpg,FN,3,num_6,32,num_2,0.800110270386,,,2017_Oct_11_1544,60.0082569895,FEMA4ImagesEEG,001,201839,
AFNE01.JPG,AFNE01.JPG,AFNE01.JPG,AFNE01.JPG,AFNE01.JPG,AFNE01.JPG,,,,,,,,,,,,,,,,,4,2,42,1,,,,,,,AFNE12.jpg,AFSA17.jpg,AFNE18.jpg,AFSA07.jpg,AFSA07.jpg,FS,4,num_4,16,num_4,0.650061309454,,,2017_Oct_11_1544,60.0082569895,FEMA4ImagesEEG,001,201839,
AFNE01.JPG,AFNE01.JPG,AFNE01.JPG,AFNE01.JPG,AFNE01.JPG,AFNE01.JPG,,,,,,,,,,,,,,,,,4,3,43,3,,,,,,,AFNE15.jpg,AFSA13.jpg,AFNE03.jpg,AFSA05.jpg,AFNE03.jpg,FN,3,num_2,16,num_2,0.754048141185,,,2017_Oct_11_1544,60.0082569895,FEMA4ImagesEEG,001,201839,
AFNE01.JPG,AFNE01.JPG,AFNE01.JPG,AFNE01.JPG,AFNE01.JPG,AFNE01.JPG,,,,,,,,,,,,,,,,,4,4,44,8,,,,,,,AFSA20.jpg,AFNE12.jpg,AFSA19.jpg,AFNE10.jpg,AFNE12.jpg,FN,3,num_6,32,num_2,1.5168095082,,,2017_Oct_11_1544,60.0082569895,FEMA4ImagesEEG,001,201839,
AFNE01.JPG,AFNE01.JPG,AFNE01.JPG,AFNE01.JPG,AFNE01.JPG,AFNE01.JPG,,,,,,,,,,,,,,,,,4,5,45,7,,,,,,,AFNE01.jpg,AFSA14.jpg,AFSA16.jpg,AFNE10.jpg,AFNE01.jpg,FN,3,num_8,32,num_4,0.700116973836,,,2017_Oct_11_1544,60.0082569895,FEMA4ImagesEEG,001,201839,
AFNE01.JPG,AFNE01.JPG,AFNE01.JPG,AFNE01.JPG,AFNE01.JPG,AFNE01.JPG,,,,,,,,,,,,,,,,,4,6,46,0,,,,,,,AFNE10.jpg,AFNE01.jpg,AFSA09.jpg,AFSA20.jpg,AFSA20.jpg,FS,4,num_4,32,num_2,1.5500641641,,,2017_Oct_11_1544,60.0082569895,FEMA4ImagesEEG,001,201839,
AFNE01.JPG,AFNE01.JPG,AFNE01.JPG,AFNE01.JPG,AFNE01.JPG,AFNE01.JPG,,,,,,,,,,,,,,,,,4,7,47,9,,,,,,,AFNE08.jpg,AFSA07.jpg,AFSA12.jpg,AFNE05.jpg,AFSA12.jpg,FS,4,num_2,32,num_8,0.850166255608,,,2017_Oct_11_1544,60.0082569895,FEMA4ImagesEEG,001,201839,
AFNE01.JPG,AFNE01.JPG,AFNE01.JPG,AFNE01.JPG,AFNE01.JPG,AFNE01.JPG,,,,,,,,,,,,,,,,,4,8,48,5,,,,,,,AFSA06.jpg,AFNE17.jpg,AFSA03.jpg,AFNE18.jpg,AFNE17.jpg,FN,3,num_6,32,num_4,1.46675673057,,,2017_Oct_11_1544,60.0082569895,FEMA4ImagesEEG,001,201839,
AFNE01.JPG,AFNE01.JPG,AFNE01.JPG,AFNE01.JPG,AFNE01.JPG,AFNE01.JPG,,,,,,,,,,,,,,,,,4,9,49,2,,,,,,,AFSA07.jpg,AFNE11.jpg,AFSA19.jpg,AFNE13.jpg,AFSA19.jpg,FS,4,num_2,32,num_6,1.91706205904,,,2017_Oct_11_1544,60.0082569895,FEMA4ImagesEEG,001,201839,
AFNE01.JPG,AFNE01.JPG,AFNE01.JPG,AFNE01.JPG,AFNE01.JPG,AFNE01.JPG,,,,,,,,,,,,,,,,,5,0,50,3,,,,,,,AFNE01.jpg,AFNE18.jpg,AFSA05.jpg,AFSA09.jpg,AFNE01.jpg,FN,3,num_8,32,num_6,1.00009718421,,,2017_Oct_11_1544,60.0082569895,FEMA4ImagesEEG,001,201839,
AFNE01.JPG,AFNE01.JPG,AFNE01.JPG,AFNE01.JPG,AFNE01.JPG,AFNE01.JPG,,,,,,,,,,,,,,,,,5,1,51,7,,,,,,,AFNE16.jpg,AFNE14.jpg,AFSA01.jpg,AFSA12.jpg,AFSA12.jpg,FS,4,num_4,16,num_4,0.616679961327,,,2017_Oct_11_1544,60.0082569895,FEMA4ImagesEEG,001,201839,
AFNE01.JPG,AFNE01.JPG,AFNE01.JPG,AFNE01.JPG,AFNE01.JPG,AFNE01.JPG,,,,,,,,,,,,,,,,,5,2,52,4,,,,,,,AFSA07.jpg,AFNE10.jpg,AFSA12.jpg,AFNE02.jpg,AFNE02.jpg,FN,3,num_4,16,num_4,0.866606431664,,,2017_Oct_11_1544,60.0082569895,FEMA4ImagesEEG,001,201839,
AFNE01.JPG,AFNE01.JPG,AFNE01.JPG,AFNE01.JPG,AFNE01.JPG,AFNE01.JPG,,,,,,,,,,,,,,,,,5,3,53,1,,,,,,,AFNE13.jpg,AFNE16.jpg,AFSA14.jpg,AFSA16.jpg,AFSA14.jpg,FS,4,num_2,32,num_8,0.933503518114,,,2017_Oct_11_1544,60.0082569895,FEMA4ImagesEEG,001,201839,
AFNE01.JPG,AFNE01.JPG,AFNE01.JPG,AFNE01.JPG,AFNE01.JPG,AFNE01.JPG,,,,,,,,,,,,,,,,,5,4,54,9,,,,,,,AFNE13.jpg,AFSA07.jpg,AFNE07.jpg,AFSA01.jpg,AFSA01.jpg,FS,4,num_4,32,num_2,1.49971373938,,,2017_Oct_11_1544,60.0082569895,FEMA4ImagesEEG,001,201839,
AFNE01.JPG,AFNE01.JPG,AFNE01.JPG,AFNE01.JPG,AFNE01.JPG,AFNE01.JPG,,,,,,,,,,,,,,,,,5,5,55,2,,,,,,,AFSA07.jpg,AFNE17.jpg,AFNE05.jpg,AFSA08.jpg,AFNE05.jpg,FN,3,num_2,32,num_4,0.901168103446,,,2017_Oct_11_1544,60.0082569895,FEMA4ImagesEEG,001,201839,
AFNE01.JPG,AFNE01.JPG,AFNE01.JPG,AFNE01.JPG,AFNE01.JPG,AFNE01.JPG,,,,,,,,,,,,,,,,,5,6,56,6,,,,,,,AFSA05.jpg,AFNE14.jpg,AFSA18.jpg,AFNE12.jpg,AFNE12.jpg,FN,3,num_4,32,num_6,0.833527220762,,,2017_Oct_11_1544,60.0082569895,FEMA4ImagesEEG,001,201839,
AFNE01.JPG,AFNE01.JPG,AFNE01.JPG,AFNE01.JPG,AFNE01.JPG,AFNE01.JPG,,,,,,,,,,,,,,,,,5,7,57,8,,,,,,,AFNE09.jpg,AFNE02.jpg,AFSA19.jpg,AFSA17.jpg,AFSA19.jpg,FS,4,num_2,32,num_4,1.00012476789,,,2017_Oct_11_1544,60.0082569895,FEMA4ImagesEEG,001,201839,
AFNE01.JPG,AFNE01.JPG,AFNE01.JPG,AFNE01.JPG,AFNE01.JPG,AFNE01.JPG,,,,,,,,,,,,,,,,,5,8,58,5,,,,,,,AFNE15.jpg,AFSA13.jpg,AFNE16.jpg,AFSA07.jpg,AFNE16.jpg,FN,3,num_2,32,num_4,0.716808289406,,,2017_Oct_11_1544,60.0082569895,FEMA4ImagesEEG,001,201839,
AFNE01.JPG,AFNE01.JPG,AFNE01.JPG,AFNE01.JPG,AFNE01.JPG,AFNE01.JPG,,,,,,,,,,,,,,,,,5,9,59,0,,,,,,,AFSA09.jpg,AFNE12.jpg,AFSA12.jpg,AFNE10.jpg,AFNE12.jpg,FN,3,num_6,16,num_6,0.76680782449,,,2017_Oct_11_1544,60.0082569895,FEMA4ImagesEEG,001,201839,
,,,,,,,,,,,,,,,,,,,,,,,,,,,,,,,,,,,,,,,,,,,space,4.59986997198,2017_Oct_11_1544,60.0082569895,FEMA4ImagesEEG,001,201839,
AFNE01.JPG,AFNE01.JPG,AFNE01.JPG,AFNE01.JPG,AFNE01.JPG,AFNE01.JPG,,,,,,,,,,,,,,,,,,,,,0,0,0,5,,,AMSA12.jpg,AMSA02.jpg,AMNE17.jpg,AMNE04.jpg,AMSA02.jpg,MS,2,num_6,16,num_6,0.583534998586,,,2017_Oct_11_1544,60.0082569895,FEMA4ImagesEEG,001,201839,
AFNE01.JPG,AFNE01.JPG,AFNE01.JPG,AFNE01.JPG,AFNE01.JPG,AFNE01.JPG,,,,,,,,,,,,,,,,,,,,,0,1,1,8,,,AMSA16.jpg,AMNE05.jpg,AMSA02.jpg,AMNE16.jpg,AMNE16.jpg,MN,1,num_4,16,num_4,2.18341780023,,,2017_Oct_11_1544,60.0082569895,FEMA4ImagesEEG,001,201839,
AFNE01.JPG,AFNE01.JPG,AFNE01.JPG,AFNE01.JPG,AFNE01.JPG,AFNE01.JPG,,,,,,,,,,,,,,,,,,,,,0,2,2,3,,,AMNE05.jpg,AMSA16.jpg,AMSA09.jpg,AMNE02.jpg,AMSA09.jpg,MS,2,num_2,32,num_8,0.700134293875,,,2017_Oct_11_1544,60.0082569895,FEMA4ImagesEEG,001,201839,
AFNE01.JPG,AFNE01.JPG,AFNE01.JPG,AFNE01.JPG,AFNE01.JPG,AFNE01.JPG,,,,,,,,,,,,,,,,,,,,,0,3,3,0,,,AMSA18.jpg,AMNE07.jpg,AMNE01.jpg,AMSA17.jpg,AMNE01.jpg,MN,1,num_2,16,num_2,0.700166047085,,,2017_Oct_11_1544,60.0082569895,FEMA4ImagesEEG,001,201839,
AFNE01.JPG,AFNE01.JPG,AFNE01.JPG,AFNE01.JPG,AFNE01.JPG,AFNE01.JPG,,,,,,,,,,,,,,,,,,,,,0,4,4,2,,,AMNE05.jpg,AMSA13.jpg,AMSA10.jpg,AMNE18.jpg,AMSA10.jpg,MS,2,num_2,32,num_4,0.666795925004,,,2017_Oct_11_1544,60.0082569895,FEMA4ImagesEEG,001,201839,
AFNE01.JPG,AFNE01.JPG,AFNE01.JPG,AFNE01.JPG,AFNE01.JPG,AFNE01.JPG,,,,,,,,,,,,,,,,,,,,,0,5,5,9,,,AMSA19.jpg,AMSA06.jpg,AMNE13.jpg,AMNE14.jpg,AMSA19.jpg,MS,2,num_8,16,num_8,0.766749449656,,,2017_Oct_11_1544,60.0082569895,FEMA4ImagesEEG,001,201839,
AFNE01.JPG,AFNE01.JPG,AFNE01.JPG,AFNE01.JPG,AFNE01.JPG,AFNE01.JPG,,,,,,,,,,,,,,,,,,,,,0,6,6,4,,,AMSA14.jpg,AMNE06.jpg,AMSA18.jpg,AMNE16.jpg,AMNE16.jpg,MN,1,num_4,16,num_4,0.683440733235,,,2017_Oct_11_1544,60.0082569895,FEMA4ImagesEEG,001,201839,
AFNE01.JPG,AFNE01.JPG,AFNE01.JPG,AFNE01.JPG,AFNE01.JPG,AFNE01.JPG,,,,,,,,,,,,,,,,,,,,,0,7,7,1,,,AMNE04.jpg,AMSA13.jpg,AMNE18.jpg,AMSA03.jpg,AMNE18.jpg,MN,1,num_2,16,num_2,1.03343459091,,,2017_Oct_11_1544,60.0082569895,FEMA4ImagesEEG,001,201839,
AFNE01.JPG,AFNE01.JPG,AFNE01.JPG,AFNE01.JPG,AFNE01.JPG,AFNE01.JPG,,,,,,,,,,,,,,,,,,,,,0,8,8,6,,,AMSA20.jpg,AMSA17.jpg,AMNE15.jpg,AMNE07.jpg,AMNE15.jpg,MN,1,num_2,16,num_2,0.650142777478,,,2017_Oct_11_1544,60.0082569895,FEMA4ImagesEEG,001,201839,
AFNE01.JPG,AFNE01.JPG,AFNE01.JPG,AFNE01.JPG,AFNE01.JPG,AFNE01.JPG,,,,,,,,,,,,,,,,,,,,,0,9,9,7,,,AMNE08.jpg,AMNE10.jpg,AMSA06.jpg,AMSA13.jpg,AMSA06.jpg,MS,2,num_2,32,num_4,1.10009817861,,,2017_Oct_11_1544,60.0082569895,FEMA4ImagesEEG,001,201839,
AFNE01.JPG,AFNE01.JPG,AFNE01.JPG,AFNE01.JPG,AFNE01.JPG,AFNE01.JPG,,,,,,,,,,,,,,,,,,,,,1,0,10,1,,,AMSA01.jpg,AMSA07.jpg,AMNE18.jpg,AMNE05.jpg,AMNE18.jpg,MN,1,num_2,16,num_2,0.966751117492,,,2017_Oct_11_1544,60.0082569895,FEMA4ImagesEEG,001,201839,
AFNE01.JPG,AFNE01.JPG,AFNE01.JPG,AFNE01.JPG,AFNE01.JPG,AFNE01.JPG,,,,,,,,,,,,,,,,,,,,,1,1,11,5,,,AMSA01.jpg,AMNE13.jpg,AMNE01.jpg,AMSA09.jpg,AMNE13.jpg,MN,1,num_6,16,num_6,0.883467739448,,,2017_Oct_11_1544,60.0082569895,FEMA4ImagesEEG,001,201839,
AFNE01.JPG,AFNE01.JPG,AFNE01.JPG,AFNE01.JPG,AFNE01.JPG,AFNE01.JPG,,,,,,,,,,,,,,,,,,,,,1,2,12,9,,,AMNE12.jpg,AMNE11.jpg,AMSA08.jpg,AMSA13.jpg,AMSA08.jpg,MS,2,num_2,32,num_8,1.28343098261,,,2017_Oct_11_1544,60.0082569895,FEMA4ImagesEEG,001,201839,
AFNE01.JPG,AFNE01.JPG,AFNE01.JPG,AFNE01.JPG,AFNE01.JPG,AFNE01.JPG,,,,,,,,,,,,,,,,,,,,,1,3,13,0,,,AMNE03.jpg,AMSA09.jpg,AMSA05.jpg,AMNE17.jpg,AMNE17.jpg,MN,1,num_4,32,num_2,1.08344054071,,,2017_Oct_11_1544,60.0082569895,FEMA4ImagesEEG,001,201839,
AFNE01.JPG,AFNE01.JPG,AFNE01.JPG,AFNE01.JPG,AFNE01.JPG,AFNE01.JPG,,,,,,,,,,,,,,,,,,,,,1,4,14,4,,,AMNE14.jpg,AMSA16.jpg,AMSA10.jpg,AMNE08.jpg,AMNE14.jpg,MN,1,num_8,32,num_2,1.43341643712,,,2017_Oct_11_1544,60.0082569895,FEMA4ImagesEEG,001,201839,
AFNE01.JPG,AFNE01.JPG,AFNE01.JPG,AFNE01.JPG,AFNE01.JPG,AFNE01.JPG,,,,,,,,,,,,,,,,,,,,,1,5,15,7,,,AMNE03.jpg,AMSA17.jpg,AMNE07.jpg,AMSA04.jpg,AMSA04.jpg,MS,2,num_4,16,num_4,1.15011310903,,,2017_Oct_11_1544,60.0082569895,FEMA4ImagesEEG,001,201839,
AFNE01.JPG,AFNE01.JPG,AFNE01.JPG,AFNE01.JPG,AFNE01.JPG,AFNE01.JPG,,,,,,,,,,,,,,,,,,,,,1,6,16,8,,,AMSA05.jpg,AMNE19.jpg,AMSA19.jpg,AMNE16.jpg,AMNE19.jpg,MN,1,num_6,32,num_2,1.01672659698,,,2017_Oct_11_1544,60.0082569895,FEMA4ImagesEEG,001,201839,
AFNE01.JPG,AFNE01.JPG,AFNE01.JPG,AFNE01.JPG,AFNE01.JPG,AFNE01.JPG,,,,,,,,,,,,,,,,,,,,,1,7,17,2,,,AMSA18.jpg,AMSA07.jpg,AMNE11.jpg,AMNE12.jpg,AMNE11.jpg,MN,1,num_2,32,num_8,1.00017031294,,,2017_Oct_11_1544,60.0082569895,FEMA4ImagesEEG,001,201839,
AFNE01.JPG,AFNE01.JPG,AFNE01.JPG,AFNE01.JPG,AFNE01.JPG,AFNE01.JPG,,,,,,,,,,,,,,,,,,,,,1,8,18,3,,,AMNE11.jpg,AMSA05.jpg,AMNE12.jpg,AMSA17.jpg,AMSA05.jpg,MS,2,num_6,32,num_4,0.966772286338,,,2017_Oct_11_1544,60.0082569895,FEMA4ImagesEEG,001,201839,
AFNE01.JPG,AFNE01.JPG,AFNE01.JPG,AFNE01.JPG,AFNE01.JPG,AFNE01.JPG,,,,,,,,,,,,,,,,,,,,,1,9,19,6,,,AMSA13.jpg,AMSA06.jpg,AMNE07.jpg,AMNE18.jpg,AMSA06.jpg,MS,2,num_6,16,num_6,0.60021123942,,,2017_Oct_11_1544,60.0082569895,FEMA4ImagesEEG,001,201839,
AFNE01.JPG,AFNE01.JPG,AFNE01.JPG,AFNE01.JPG,AFNE01.JPG,AFNE01.JPG,,,,,,,,,,,,,,,,,,,,,2,0,20,4,,,AMNE07.jpg,AMNE05.jpg,AMSA12.jpg,AMSA07.jpg,AMNE05.jpg,MN,1,num_6,32,num_8,0.916763770743,,,2017_Oct_11_1544,60.0082569895,FEMA4ImagesEEG,001,201839,
AFNE01.JPG,AFNE01.JPG,AFNE01.JPG,AFNE01.JPG,AFNE01.JPG,AFNE01.JPG,,,,,,,,,,,,,,,,,,,,,2,1,21,6,,,AMSA13.jpg,AMSA15.jpg,AMNE16.jpg,AMNE11.jpg,AMNE16.jpg,MN,1,num_2,32,num_4,0.700122105773,,,2017_Oct_11_1544,60.0082569895,FEMA4ImagesEEG,001,201839,
AFNE01.JPG,AFNE01.JPG,AFNE01.JPG,AFNE01.JPG,AFNE01.JPG,AFNE01.JPG,,,,,,,,,,,,,,,,,,,,,2,2,22,9,,,AMNE16.jpg,AMSA14.jpg,AMSA19.jpg,AMNE02.jpg,AMSA19.jpg,MS,2,num_2,32,num_4,0.900093944743,,,2017_Oct_11_1544,60.0082569895,FEMA4ImagesEEG,001,201839,
AFNE01.JPG,AFNE01.JPG,AFNE01.JPG,AFNE01.JPG,AFNE01.JPG,AFNE01.JPG,,,,,,,,,,,,,,,,,,,,,2,3,23,2,,,AMSA15.jpg,AMNE06.jpg,AMSA12.jpg,AMNE02.jpg,AMSA12.jpg,MS,2,num_2,32,num_8,1.5667378389,,,2017_Oct_11_1544,60.0082569895,FEMA4ImagesEEG,001,201839,
AFNE01.JPG,AFNE01.JPG,AFNE01.JPG,AFNE01.JPG,AFNE01.JPG,AFNE01.JPG,,,,,,,,,,,,,,,,,,,,,2,4,24,1,,,AMNE18.jpg,AMNE20.jpg,AMSA10.jpg,AMSA07.jpg,AMNE18.jpg,MN,1,num_8,32,num_2,0.933508649818,,,2017_Oct_11_1544,60.0082569895,FEMA4ImagesEEG,001,201839,
AFNE01.JPG,AFNE01.JPG,AFNE01.JPG,AFNE01.JPG,AFNE01.JPG,AFNE01.JPG,,,,,,,,,,,,,,,,,,,,,2,5,25,7,,,AMSA10.jpg,AMSA14.jpg,AMNE13.jpg,AMNE02.jpg,AMSA10.jpg,MS,2,num_8,16,num_8,0.816772077931,,,2017_Oct_11_1544,60.0082569895,FEMA4ImagesEEG,001,201839,
AFNE01.JPG,AFNE01.JPG,AFNE01.JPG,AFNE01.JPG,AFNE01.JPG,AFNE01.JPG,,,,,,,,,,,,,,,,,,,,,2,6,26,8,,,AMSA15.jpg,AMNE03.jpg,AMSA11.jpg,AMNE17.jpg,AMSA11.jpg,MS,2,num_2,32,num_6,1.18341940397,,,2017_Oct_11_1544,60.0082569895,FEMA4ImagesEEG,001,201839,
AFNE01.JPG,AFNE01.JPG,AFNE01.JPG,AFNE01.JPG,AFNE01.JPG,AFNE01.JPG,,,,,,,,,,,,,,,,,,,,,2,7,27,0,,,AMNE20.jpg,AMSA19.jpg,AMSA12.jpg,AMNE13.jpg,AMNE13.jpg,MN,1,num_4,32,num_8,0.783439161489,,,2017_Oct_11_1544,60.0082569895,FEMA4ImagesEEG,001,201839,
AFNE01.JPG,AFNE01.JPG,AFNE01.JPG,AFNE01.JPG,AFNE01.JPG,AFNE01.JPG,,,,,,,,,,,,,,,,,,,,,2,8,28,3,,,AMNE05.jpg,AMSA02.jpg,AMSA05.jpg,AMNE03.jpg,AMNE05.jpg,MN,1,num_8,16,num_8,0.450234765653,,,2017_Oct_11_1544,60.0082569895,FEMA4ImagesEEG,001,201839,
AFNE01.JPG,AFNE01.JPG,AFNE01.JPG,AFNE01.JPG,AFNE01.JPG,AFNE01.JPG,,,,,,,,,,,,,,,,,,,,,2,9,29,5,,,AMSA09.jpg,AMNE06.jpg,AMNE07.jpg,AMSA03.jpg,AMNE06.jpg,MN,1,num_6,16,num_6,1.03345255251,,,2017_Oct_11_1544,60.0082569895,FEMA4ImagesEEG,001,201839,
AFNE01.JPG,AFNE01.JPG,AFNE01.JPG,AFNE01.JPG,AFNE01.JPG,AFNE01.JPG,,,,,,,,,,,,,,,,,,,,,3,0,30,9,,,AMSA01.jpg,AMNE11.jpg,AMNE05.jpg,AMSA08.jpg,AMSA08.jpg,MS,2,num_4,32,num_8,1.8497127291,,,2017_Oct_11_1544,60.0082569895,FEMA4ImagesEEG,001,201839,
AFNE01.JPG,AFNE01.JPG,AFNE01.JPG,AFNE01.JPG,AFNE01.JPG,AFNE01.JPG,,,,,,,,,,,,,,,,,,,,,3,1,31,1,,,AMNE18.jpg,AMNE05.jpg,AMSA13.jpg,AMSA10.jpg,AMSA13.jpg,MS,2,num_2,16,num_2,0.566783704679,,,2017_Oct_11_1544,60.0082569895,FEMA4ImagesEEG,001,201839,
AFNE01.JPG,AFNE01.JPG,AFNE01.JPG,AFNE01.JPG,AFNE01.JPG,AFNE01.JPG,,,,,,,,,,,,,,,,,,,,,3,2,32,2,,,AMSA09.jpg,AMSA05.jpg,AMNE03.jpg,AMNE16.jpg,AMSA09.jpg,MS,2,num_8,16,num_8,0.950124270748,,,2017_Oct_11_1544,60.0082569895,FEMA4ImagesEEG,001,201839,
AFNE01.JPG,AFNE01.JPG,AFNE01.JPG,AFNE01.JPG,AFNE01.JPG,AFNE01.JPG,,,,,,,,,,,,,,,,,,,,,3,3,33,8,,,AMSA20.jpg,AMSA12.jpg,AMNE12.jpg,AMNE18.jpg,AMSA20.jpg,MS,2,num_8,32,num_4,2.26688560378,,,2017_Oct_11_1544,60.0082569895,FEMA4ImagesEEG,001,201839,
AFNE01.JPG,AFNE01.JPG,AFNE01.JPG,AFNE01.JPG,AFNE01.JPG,AFNE01.JPG,,,,,,,,,,,,,,,,,,,,,3,4,34,7,,,AMSA04.jpg,AMNE07.jpg,AMNE14.jpg,AMSA18.jpg,AMSA04.jpg,MS,2,num_8,16,num_8,0.650164587772,,,2017_Oct_11_1544,60.0082569895,FEMA4ImagesEEG,001,201839,
AFNE01.JPG,AFNE01.JPG,AFNE01.JPG,AFNE01.JPG,AFNE01.JPG,AFNE01.JPG,,,,,,,,,,,,,,,,,,,,,3,5,35,5,,,AMNE16.jpg,AMSA17.jpg,AMNE17.jpg,AMSA11.jpg,AMSA17.jpg,MS,2,num_6,16,num_6,0.633449216723,,,2017_Oct_11_1544,60.0082569895,FEMA4ImagesEEG,001,201839,
AFNE01.JPG,AFNE01.JPG,AFNE01.JPG,AFNE01.JPG,AFNE01.JPG,AFNE01.JPG,,,,,,,,,,,,,,,,,,,,,3,6,36,6,,,AMNE11.jpg,AMSA20.jpg,AMSA15.jpg,AMNE04.jpg,AMNE11.jpg,MN,1,num_8,16,num_8,0.75019124127,,,2017_Oct_11_1544,60.0082569895,FEMA4ImagesEEG,001,201839,
AFNE01.JPG,AFNE01.JPG,AFNE01.JPG,AFNE01.JPG,AFNE01.JPG,AFNE01.JPG,,,,,,,,,,,,,,,,,,,,,3,7,37,0,,,AMSA02.jpg,AMNE11.jpg,AMNE04.jpg,AMSA16.jpg,AMNE04.jpg,MN,1,num_2,16,num_2,0.900081115193,,,2017_Oct_11_1544,60.0082569895,FEMA4ImagesEEG,001,201839,
AFNE01.JPG,AFNE01.JPG,AFNE01.JPG,AFNE01.JPG,AFNE01.JPG,AFNE01.JPG,,,,,,,,,,,,,,,,,,,,,3,8,38,4,,,AMNE06.jpg,AMNE08.jpg,AMSA13.jpg,AMSA18.jpg,AMNE06.jpg,MN,1,num_8,16,num_8,0.750097264419,,,2017_Oct_11_1544,60.0082569895,FEMA4ImagesEEG,001,201839,
