IPosition2,IPosition3,IPosition1,IPosition6,IPosition4,IPosition5,TrialsM1.thisRepN,TrialsM1.thisTrialN,TrialsM1.thisN,TrialsM1.thisIndex,TrialsF1.thisRepN,TrialsF1.thisTrialN,TrialsF1.thisN,TrialsF1.thisIndex,TrialsM2.thisRepN,TrialsM2.thisTrialN,TrialsM2.thisN,TrialsM2.thisIndex,TrialsF2.thisRepN,TrialsF2.thisTrialN,TrialsF2.thisN,TrialsF2.thisIndex,TrialsM3.thisRepN,TrialsM3.thisTrialN,TrialsM3.thisN,TrialsM3.thisIndex,TrialsF3.thisRepN,TrialsF3.thisTrialN,TrialsF3.thisN,TrialsF3.thisIndex,InstrKey_resp.keys,InstrKey_resp.rt,Image0 _Position,Image1 _Position,Image2 _Position,Image3 _Position,Center_image,condition,code,correct_answer,accuracy,Key_Resp.keys,Key_Resp.rt,BreakKey_resp.keys,BreakKey_resp.rt,date,frameRate,expName,session,participant,
,,,,,,,,,,,,,,,,,,,,,,,,,,,,,,space,6.2164042216,,,,,,,,,,,,,,2017_Oct_25_1855,60.006986515,MAFE4ImagesEEG,001,201846,
AFNE23.JPG,AFNE24.JPG,AFNE22.JPG,AFSA24.JPG,AFSA22.JPG,AFSA23.JPG,0,0,0,8,,,,,,,,,,,,,,,,,,,,,,,AMSA11.jpg,AMSA19.jpg,AMNE09.jpg,AMNE04.jpg,AMNE04.jpg,MN,1,num_4,32,num_2,2.16696511477,,,2017_Oct_25_1855,60.006986515,MAFE4ImagesEEG,001,201846,
AFSA21.JPG,AFNE23.JPG,AFNE21.JPG,AFSA25.JPG,AFNE25.JPG,AFSA23.JPG,0,1,1,4,,,,,,,,,,,,,,,,,,,,,,,AMSA01.jpg,AMSA03.jpg,AMNE16.jpg,AMNE09.jpg,AMNE09.jpg,MN,1,num_4,16,num_4,1.33340742416,,,2017_Oct_25_1855,60.006986515,MAFE4ImagesEEG,001,201846,
AFNE22.JPG,AFSA24.JPG,AFSA22.JPG,AFNE25.JPG,AFNE24.JPG,AFSA25.JPG,0,2,2,6,,,,,,,,,,,,,,,,,,,,,,,AMSA17.jpg,AMNE15.jpg,AMSA11.jpg,AMNE08.jpg,AMNE08.jpg,MN,1,num_4,32,num_2,0.766820781981,,,2017_Oct_25_1855,60.006986515,MAFE4ImagesEEG,001,201846,
AFSA21.JPG,AFNE22.JPG,AFNE21.JPG,AFSA23.JPG,AFSA22.JPG,AFNE23.JPG,0,3,3,0,,,,,,,,,,,,,,,,,,,,,,,AMNE18.jpg,AMSA08.jpg,AMNE14.jpg,AMSA05.jpg,AMSA05.jpg,MS,2,num_4,32,num_6,1.98338729783,,,2017_Oct_25_1855,60.006986515,MAFE4ImagesEEG,001,201846,
AFSA25.JPG,AFNE24.JPG,AFSA24.JPG,AFNE21.JPG,AFSA21.JPG,AFNE25.JPG,0,4,4,2,,,,,,,,,,,,,,,,,,,,,,,AMNE10.jpg,AMNE18.jpg,AMSA06.jpg,AMSA08.jpg,AMSA06.jpg,MS,2,num_2,32,num_6,1.36677395401,,,2017_Oct_25_1855,60.006986515,MAFE4ImagesEEG,001,201846,
AMNE22.JPG,AMSA24.JPG,AMSA22.JPG,AMNE25.JPG,AMNE24.JPG,AMSA25.JPG,0,5,5,7,,,,,,,,,,,,,,,,,,,,,,,AMSA15.jpg,AMNE01.jpg,AMNE09.jpg,AMSA05.jpg,AMNE09.jpg,MN,1,num_2,32,num_8,1.03345665766,,,2017_Oct_25_1855,60.006986515,MAFE4ImagesEEG,001,201846,
AMNE23.JPG,AMNE24.JPG,AMNE22.JPG,AMSA24.JPG,AMSA22.JPG,AMSA23.JPG,0,6,6,9,,,,,,,,,,,,,,,,,,,,,,,AMNE13.jpg,AMSA01.jpg,AMSA14.jpg,AMNE04.jpg,AMSA14.jpg,MS,2,num_2,16,num_2,1.60006190266,,,2017_Oct_25_1855,60.006986515,MAFE4ImagesEEG,001,201846,
AMSA21.JPG,AMNE22.JPG,AMNE21.JPG,AMSA23.JPG,AMSA22.JPG,AMNE23.JPG,0,7,7,1,,,,,,,,,,,,,,,,,,,,,,,AMSA18.jpg,AMNE20.jpg,AMNE12.jpg,AMSA06.jpg,AMNE12.jpg,MN,1,num_2,32,num_4,1.78336773266,,,2017_Oct_25_1855,60.006986515,MAFE4ImagesEEG,001,201846,
AMSA25.JPG,AMNE24.JPG,AMSA24.JPG,AMNE26.JPG,AMSA21.JPG,AMNE25.JPG,0,8,8,3,,,,,,,,,,,,,,,,,,,,,,,AMNE07.jpg,AMSA07.jpg,AMSA17.jpg,AMNE13.jpg,AMSA07.jpg,MS,2,num_6,16,num_6,1.33342891373,,,2017_Oct_25_1855,60.006986515,MAFE4ImagesEEG,001,201846,
AMSA21.JPG,AMNE23.JPG,AMNE21.JPG,AMSA25.JPG,AMNE25.JPG,AMSA23.JPG,0,9,9,5,,,,,,,,,,,,,,,,,,,,,,,AMSA14.jpg,AMSA11.jpg,AMNE04.jpg,AMNE09.jpg,AMNE04.jpg,MN,1,num_2,16,num_2,3.34994218673,,,2017_Oct_25_1855,60.006986515,MAFE4ImagesEEG,001,201846,
AFSA25.JPG,AFNE24.JPG,AFSA24.JPG,AFNE21.JPG,AFSA21.JPG,AFNE25.JPG,,,,,0,0,0,2,,,,,,,,,,,,,,,,,,,AFNE02.jpg,AFSA06.jpg,AFNE09.jpg,AFSA14.jpg,AFNE02.jpg,FN,3,num_8,32,num_2,2.2000333569,,,2017_Oct_25_1855,60.006986515,MAFE4ImagesEEG,001,201846,
AFSA21.JPG,AFNE22.JPG,AFNE21.JPG,AFSA23.JPG,AFSA22.JPG,AFNE23.JPG,,,,,0,1,1,0,,,,,,,,,,,,,,,,,,,AFSA05.jpg,AFNE06.jpg,AFSA10.jpg,AFNE01.jpg,AFSA05.jpg,FS,4,num_8,16,num_8,1.00012861658,,,2017_Oct_25_1855,60.006986515,MAFE4ImagesEEG,001,201846,
AMNE23.JPG,AMNE24.JPG,AMNE22.JPG,AMSA24.JPG,AMSA22.JPG,AMSA23.JPG,,,,,0,2,2,9,,,,,,,,,,,,,,,,,,,AFSA17.jpg,AFSA15.jpg,AFNE11.jpg,AFNE10.jpg,AFNE10.jpg,FN,3,num_4,32,num_6,1.16673963494,,,2017_Oct_25_1855,60.006986515,MAFE4ImagesEEG,001,201846,
AFSA21.JPG,AFNE23.JPG,AFNE21.JPG,AFSA25.JPG,AFNE25.JPG,AFSA23.JPG,,,,,0,3,3,4,,,,,,,,,,,,,,,,,,,AFNE18.jpg,AFSA05.jpg,AFSA09.jpg,AFNE15.jpg,AFNE15.jpg,FN,3,num_4,16,num_4,0.866774114431,,,2017_Oct_25_1855,60.006986515,MAFE4ImagesEEG,001,201846,
AMSA25.JPG,AMNE24.JPG,AMSA24.JPG,AMNE26.JPG,AMSA21.JPG,AMNE25.JPG,,,,,0,4,4,3,,,,,,,,,,,,,,,,,,,AFNE18.jpg,AFSA15.jpg,AFSA07.jpg,AFNE02.jpg,AFNE02.jpg,FN,3,num_4,16,num_4,0.833460506517,,,2017_Oct_25_1855,60.006986515,MAFE4ImagesEEG,001,201846,
AMSA21.JPG,AMNE22.JPG,AMNE21.JPG,AMSA23.JPG,AMSA22.JPG,AMNE23.JPG,,,,,0,5,5,1,,,,,,,,,,,,,,,,,,,AFSA08.jpg,AFNE04.jpg,AFSA03.jpg,AFNE10.jpg,AFSA03.jpg,FS,4,num_2,32,num_6,0.933433404076,,,2017_Oct_25_1855,60.006986515,MAFE4ImagesEEG,001,201846,
AMSA21.JPG,AMNE23.JPG,AMNE21.JPG,AMSA25.JPG,AMNE25.JPG,AMSA23.JPG,,,,,0,6,6,5,,,,,,,,,,,,,,,,,,,AFSA05.jpg,AFNE08.jpg,AFNE06.jpg,AFSA16.jpg,AFSA16.jpg,FS,4,num_4,16,num_4,1.08343268232,,,2017_Oct_25_1855,60.006986515,MAFE4ImagesEEG,001,201846,
AMNE22.JPG,AMSA24.JPG,AMSA22.JPG,AMNE25.JPG,AMNE24.JPG,AMSA25.JPG,,,,,0,7,7,7,,,,,,,,,,,,,,,,,,,AFSA04.jpg,AFNE02.jpg,AFSA15.jpg,AFNE01.jpg,AFNE01.jpg,FN,3,num_4,16,num_4,1.23347782646,,,2017_Oct_25_1855,60.006986515,MAFE4ImagesEEG,001,201846,
AFNE22.JPG,AFSA24.JPG,AFSA22.JPG,AFNE25.JPG,AFNE24.JPG,AFSA25.JPG,,,,,0,8,8,6,,,,,,,,,,,,,,,,,,,AFSA11.jpg,AFNE03.jpg,AFSA06.jpg,AFNE17.jpg,AFSA06.jpg,FS,4,num_2,32,num_8,1.25017007219,,,2017_Oct_25_1855,60.006986515,MAFE4ImagesEEG,001,201846,
AFNE23.JPG,AFNE24.JPG,AFNE22.JPG,AFSA24.JPG,AFSA22.JPG,AFSA23.JPG,,,,,0,9,9,8,,,,,,,,,,,,,,,,,,,AFSA11.jpg,AFSA14.jpg,AFNE01.jpg,AFNE05.jpg,AFNE01.jpg,FN,3,num_2,32,num_6,0.850098226569,,,2017_Oct_25_1855,60.006986515,MAFE4ImagesEEG,001,201846,
AFSA25.JPG,AFNE24.JPG,AFSA24.JPG,AFNE21.JPG,AFSA21.JPG,AFNE25.JPG,,,,,,,,,0,0,0,2,,,,,,,,,,,,,,,AMNE05.jpg,AMNE07.jpg,AMSA19.jpg,AMSA15.jpg,AMNE07.jpg,MN,1,num_6,32,num_2,0.966809876845,,,2017_Oct_25_1855,60.006986515,MAFE4ImagesEEG,001,201846,
AFNE23.JPG,AFNE24.JPG,AFNE22.JPG,AFSA24.JPG,AFSA22.JPG,AFSA23.JPG,,,,,,,,,0,1,1,8,,,,,,,,,,,,,,,AMSA15.jpg,AMNE02.jpg,AMNE16.jpg,AMSA16.jpg,AMSA16.jpg,MS,2,num_4,16,num_4,0.98342867312,,,2017_Oct_25_1855,60.006986515,MAFE4ImagesEEG,001,201846,
AMNE23.JPG,AMNE24.JPG,AMNE22.JPG,AMSA24.JPG,AMSA22.JPG,AMSA23.JPG,,,,,,,,,0,2,2,9,,,,,,,,,,,,,,,AMSA11.jpg,AMNE13.jpg,AMNE10.jpg,AMSA04.jpg,AMNE13.jpg,MN,1,num_6,32,num_8,0.900112419156,,,2017_Oct_25_1855,60.006986515,MAFE4ImagesEEG,001,201846,
AMNE22.JPG,AMSA24.JPG,AMSA22.JPG,AMNE25.JPG,AMNE24.JPG,AMSA25.JPG,,,,,,,,,0,3,3,7,,,,,,,,,,,,,,,AMNE11.jpg,AMSA10.jpg,AMNE15.jpg,AMSA02.jpg,AMSA02.jpg,MS,2,num_4,16,num_4,1.01677403424,,,2017_Oct_25_1855,60.006986515,MAFE4ImagesEEG,001,201846,
AMSA21.JPG,AMNE23.JPG,AMNE21.JPG,AMSA25.JPG,AMNE25.JPG,AMSA23.JPG,,,,,,,,,0,4,4,5,,,,,,,,,,,,,,,AMSA20.jpg,AMNE18.jpg,AMSA17.jpg,AMNE06.jpg,AMNE18.jpg,MN,1,num_6,32,num_8,2.15001980565,,,2017_Oct_25_1855,60.006986515,MAFE4ImagesEEG,001,201846,
AMSA25.JPG,AMNE24.JPG,AMSA24.JPG,AMNE26.JPG,AMSA21.JPG,AMNE25.JPG,,,,,,,,,0,5,5,3,,,,,,,,,,,,,,,AMSA13.jpg,AMNE09.jpg,AMNE20.jpg,AMSA15.jpg,AMNE09.jpg,MN,1,num_6,16,num_6,1.46669938206,,,2017_Oct_25_1855,60.006986515,MAFE4ImagesEEG,001,201846,
AFNE22.JPG,AFSA24.JPG,AFSA22.JPG,AFNE25.JPG,AFNE24.JPG,AFSA25.JPG,,,,,,,,,0,6,6,6,,,,,,,,,,,,,,,AMSA04.jpg,AMNE10.jpg,AMSA15.jpg,AMNE01.jpg,AMNE01.jpg,MN,1,num_4,16,num_4,1.38338280737,,,2017_Oct_25_1855,60.006986515,MAFE4ImagesEEG,001,201846,
AFSA21.JPG,AFNE22.JPG,AFNE21.JPG,AFSA23.JPG,AFSA22.JPG,AFNE23.JPG,,,,,,,,,0,7,7,0,,,,,,,,,,,,,,,AMNE20.jpg,AMNE05.jpg,AMSA11.jpg,AMSA20.jpg,AMNE05.jpg,MN,1,num_6,16,num_6,1.03345312946,,,2017_Oct_25_1855,60.006986515,MAFE4ImagesEEG,001,201846,
AMSA21.JPG,AMNE22.JPG,AMNE21.JPG,AMSA23.JPG,AMSA22.JPG,AMNE23.JPG,,,,,,,,,0,8,8,1,,,,,,,,,,,,,,,AMNE09.jpg,AMSA17.jpg,AMNE13.jpg,AMSA10.jpg,AMSA10.jpg,MS,2,num_4,32,num_8,0.949787269463,,,2017_Oct_25_1855,60.006986515,MAFE4ImagesEEG,001,201846,
AFSA21.JPG,AFNE23.JPG,AFNE21.JPG,AFSA25.JPG,AFNE25.JPG,AFSA23.JPG,,,,,,,,,0,9,9,4,,,,,,,,,,,,,,,AMNE18.jpg,AMSA15.jpg,AMSA12.jpg,AMNE02.jpg,AMSA15.jpg,MS,2,num_6,16,num_6,1.08349650959,,,2017_Oct_25_1855,60.006986515,MAFE4ImagesEEG,001,201846,
AMSA25.JPG,AMNE24.JPG,AMSA24.JPG,AMNE26.JPG,AMSA21.JPG,AMNE25.JPG,,,,,,,,,,,,,0,0,0,3,,,,,,,,,,,AFNE05.jpg,AFNE14.jpg,AFSA01.jpg,AFSA18.jpg,AFSA18.jpg,FS,4,num_4,16,num_4,0.850108810817,,,2017_Oct_25_1855,60.006986515,MAFE4ImagesEEG,001,201846,
AFSA21.JPG,AFNE22.JPG,AFNE21.JPG,AFSA23.JPG,AFSA22.JPG,AFNE23.JPG,,,,,,,,,,,,,0,1,1,0,,,,,,,,,,,AFSA10.jpg,AFNE13.jpg,AFSA13.jpg,AFNE12.jpg,AFNE13.jpg,FN,3,num_6,32,num_4,0.933299655677,,,2017_Oct_25_1855,60.006986515,MAFE4ImagesEEG,001,201846,
AFNE23.JPG,AFNE24.JPG,AFNE22.JPG,AFSA24.JPG,AFSA22.JPG,AFSA23.JPG,,,,,,,,,,,,,0,2,2,8,,,,,,,,,,,AFSA10.jpg,AFNE14.jpg,AFNE20.jpg,AFSA17.jpg,AFNE14.jpg,FN,3,num_6,32,num_8,0.850097584887,,,2017_Oct_25_1855,60.006986515,MAFE4ImagesEEG,001,201846,
AFSA25.JPG,AFNE24.JPG,AFSA24.JPG,AFNE21.JPG,AFSA21.JPG,AFNE25.JPG,,,,,,,,,,,,,0,3,3,2,,,,,,,,,,,AFNE10.jpg,AFSA16.jpg,AFSA03.jpg,AFNE19.jpg,AFNE19.jpg,FN,3,num_4,32,num_2,0.750095179421,,,2017_Oct_25_1855,60.006986515,MAFE4ImagesEEG,001,201846,
AMNE22.JPG,AMSA24.JPG,AMSA22.JPG,AMNE25.JPG,AMNE24.JPG,AMSA25.JPG,,,,,,,,,,,,,0,4,4,7,,,,,,,,,,,AFNE11.jpg,AFSA08.jpg,AFNE12.jpg,AFSA06.jpg,AFSA08.jpg,FS,4,num_6,16,num_6,1.30008772237,,,2017_Oct_25_1855,60.006986515,MAFE4ImagesEEG,001,201846,
AMSA21.JPG,AMNE22.JPG,AMNE21.JPG,AMSA23.JPG,AMSA22.JPG,AMNE23.JPG,,,,,,,,,,,,,0,5,5,1,,,,,,,,,,,AFNE18.jpg,AFSA20.jpg,AFNE01.jpg,AFSA18.jpg,AFSA18.jpg,FS,4,num_4,32,num_6,0.950090689119,,,2017_Oct_25_1855,60.006986515,MAFE4ImagesEEG,001,201846,
AFSA21.JPG,AFNE23.JPG,AFNE21.JPG,AFSA25.JPG,AFNE25.JPG,AFSA23.JPG,,,,,,,,,,,,,0,6,6,4,,,,,,,,,,,AFNE04.jpg,AFSA02.jpg,AFSA07.jpg,AFNE18.jpg,AFSA07.jpg,FS,4,num_2,32,num_8,1.28343268239,,,2017_Oct_25_1855,60.006986515,MAFE4ImagesEEG,001,201846,
AMSA21.JPG,AMNE23.JPG,AMNE21.JPG,AMSA25.JPG,AMNE25.JPG,AMSA23.JPG,,,,,,,,,,,,,0,7,7,5,,,,,,,,,,,AFNE14.jpg,AFSA06.jpg,AFSA04.jpg,AFNE08.jpg,AFNE08.jpg,FN,3,num_4,32,num_2,0.816800655564,,,2017_Oct_25_1855,60.006986515,MAFE4ImagesEEG,001,201846,
AMNE23.JPG,AMNE24.JPG,AMNE22.JPG,AMSA24.JPG,AMSA22.JPG,AMSA23.JPG,,,,,,,,,,,,,0,8,8,9,,,,,,,,,,,AFSA13.jpg,AFNE09.jpg,AFNE12.jpg,AFSA05.jpg,AFSA05.jpg,FS,4,num_4,16,num_4,0.933407744858,,,2017_Oct_25_1855,60.006986515,MAFE4ImagesEEG,001,201846,
AFNE22.JPG,AFSA24.JPG,AFSA22.JPG,AFNE25.JPG,AFNE24.JPG,AFSA25.JPG,,,,,,,,,,,,,0,9,9,6,,,,,,,,,,,AFSA14.jpg,AFNE01.jpg,AFSA17.jpg,AFNE03.jpg,AFNE01.jpg,FN,3,num_6,32,num_4,0.983411994763,,,2017_Oct_25_1855,60.006986515,MAFE4ImagesEEG,001,201846,
AMSA21.JPG,AMNE23.JPG,AMNE21.JPG,AMSA25.JPG,AMNE25.JPG,AMSA23.JPG,,,,,,,,,,,,,,,,,0,0,0,5,,,,,,,AMNE07.jpg,AMSA20.jpg,AMNE08.jpg,AMSA15.jpg,AMSA20.jpg,MS,2,num_6,16,num_6,1.05010849016,,,2017_Oct_25_1855,60.006986515,MAFE4ImagesEEG,001,201846,
AFNE23.JPG,AFNE24.JPG,AFNE22.JPG,AFSA24.JPG,AFSA22.JPG,AFSA23.JPG,,,,,,,,,,,,,,,,,0,1,1,8,,,,,,,AMSA16.jpg,AMNE16.jpg,AMSA18.jpg,AMNE06.jpg,AMSA18.jpg,MS,2,num_2,32,num_8,0.850144733791,,,2017_Oct_25_1855,60.006986515,MAFE4ImagesEEG,001,201846,
AFSA25.JPG,AFNE24.JPG,AFSA24.JPG,AFNE21.JPG,AFSA21.JPG,AFNE25.JPG,,,,,,,,,,,,,,,,,0,2,2,2,,,,,,,AMSA06.jpg,AMNE11.jpg,AMNE05.jpg,AMSA17.jpg,AMSA17.jpg,MS,2,num_4,16,num_4,1.03353235219,,,2017_Oct_25_1855,60.006986515,MAFE4ImagesEEG,001,201846,
AMSA21.JPG,AMNE22.JPG,AMNE21.JPG,AMSA23.JPG,AMSA22.JPG,AMNE23.JPG,,,,,,,,,,,,,,,,,0,3,3,1,,,,,,,AMNE16.jpg,AMSA05.jpg,AMSA20.jpg,AMNE13.jpg,AMSA20.jpg,MS,2,num_2,32,num_4,1.16676048294,,,2017_Oct_25_1855,60.006986515,MAFE4ImagesEEG,001,201846,
AMNE23.JPG,AMNE24.JPG,AMNE22.JPG,AMSA24.JPG,AMSA22.JPG,AMSA23.JPG,,,,,,,,,,,,,,,,,0,4,4,9,,,,,,,AMSA20.jpg,AMNE05.jpg,AMSA09.jpg,AMNE10.jpg,AMSA20.jpg,MS,2,num_8,32,num_6,1.48354782793,,,2017_Oct_25_1855,60.006986515,MAFE4ImagesEEG,001,201846,
AMSA25.JPG,AMNE24.JPG,AMSA24.JPG,AMNE26.JPG,AMSA21.JPG,AMNE25.JPG,,,,,,,,,,,,,,,,,0,5,5,3,,,,,,,AMNE15.jpg,AMNE14.jpg,AMSA16.jpg,AMSA19.jpg,AMSA16.jpg,MS,2,num_2,16,num_2,0.96678133111,,,2017_Oct_25_1855,60.006986515,MAFE4ImagesEEG,001,201846,
AMNE22.JPG,AMSA24.JPG,AMSA22.JPG,AMNE25.JPG,AMNE24.JPG,AMSA25.JPG,,,,,,,,,,,,,,,,,0,6,6,7,,,,,,,AMNE06.jpg,AMSA17.jpg,AMSA05.jpg,AMNE13.jpg,AMSA05.jpg,MS,2,num_2,32,num_8,0.700018121745,,,2017_Oct_25_1855,60.006986515,MAFE4ImagesEEG,001,201846,
AFSA21.JPG,AFNE23.JPG,AFNE21.JPG,AFSA25.JPG,AFNE25.JPG,AFSA23.JPG,,,,,,,,,,,,,,,,,0,7,7,4,,,,,,,AMSA01.jpg,AMSA02.jpg,AMNE01.jpg,AMNE14.jpg,AMSA01.jpg,MS,2,num_8,32,num_6,2.10000176402,,,2017_Oct_25_1855,60.006986515,MAFE4ImagesEEG,001,201846,
AFNE22.JPG,AFSA24.JPG,AFSA22.JPG,AFNE25.JPG,AFNE24.JPG,AFSA25.JPG,,,,,,,,,,,,,,,,,0,8,8,6,,,,,,,AMNE07.jpg,AMNE04.jpg,AMSA07.jpg,AMSA09.jpg,AMSA07.jpg,MS,2,num_2,32,num_8,1.15009710379,,,2017_Oct_25_1855,60.006986515,MAFE4ImagesEEG,001,201846,
AFSA21.JPG,AFNE22.JPG,AFNE21.JPG,AFSA23.JPG,AFSA22.JPG,AFNE23.JPG,,,,,,,,,,,,,,,,,0,9,9,0,,,,,,,AMNE05.jpg,AMSA17.jpg,AMNE08.jpg,AMSA13.jpg,AMSA13.jpg,MS,2,num_4,32,num_2,0.86676385079,,,2017_Oct_25_1855,60.006986515,MAFE4ImagesEEG,001,201846,
AFSA21.JPG,AFNE22.JPG,AFNE21.JPG,AFSA23.JPG,AFSA22.JPG,AFNE23.JPG,,,,,,,,,,,,,,,,,,,,,0,0,0,0,,,AFNE18.jpg,AFSA19.jpg,AFNE10.jpg,AFSA20.jpg,AFNE10.jpg,FN,3,num_2,32,num_4,1.0164439932,,,2017_Oct_25_1855,60.006986515,MAFE4ImagesEEG,001,201846,
AFSA25.JPG,AFNE24.JPG,AFSA24.JPG,AFNE21.JPG,AFSA21.JPG,AFNE25.JPG,,,,,,,,,,,,,,,,,,,,,0,1,1,2,,,AFNE12.jpg,AFSA02.jpg,AFNE13.jpg,AFSA12.jpg,AFSA12.jpg,FS,4,num_4,32,num_8,0.766775878496,,,2017_Oct_25_1855,60.006986515,MAFE4ImagesEEG,001,201846,
AMSA21.JPG,AMNE22.JPG,AMNE21.JPG,AMSA23.JPG,AMSA22.JPG,AMNE23.JPG,,,,,,,,,,,,,,,,,,,,,0,2,2,1,,,AFNE04.jpg,AFSA09.jpg,AFSA14.jpg,AFNE05.jpg,AFSA14.jpg,FS,4,num_2,32,num_4,0.950122763054,,,2017_Oct_25_1855,60.006986515,MAFE4ImagesEEG,001,201846,
AFSA21.JPG,AFNE23.JPG,AFNE21.JPG,AFSA25.JPG,AFNE25.JPG,AFSA23.JPG,,,,,,,,,,,,,,,,,,,,,0,3,3,4,,,AFSA11.jpg,AFSA19.jpg,AFNE11.jpg,AFNE01.jpg,AFNE11.jpg,FN,3,num_2,16,num_2,0.966760803713,,,2017_Oct_25_1855,60.006986515,MAFE4ImagesEEG,001,201846,
AFNE23.JPG,AFNE24.JPG,AFNE22.JPG,AFSA24.JPG,AFSA22.JPG,AFSA23.JPG,,,,,,,,,,,,,,,,,,,,,0,4,4,8,,,AFSA04.jpg,AFNE18.jpg,AFSA19.jpg,AFNE10.jpg,AFSA19.jpg,FS,4,num_2,32,num_6,1.63345473318,,,2017_Oct_25_1855,60.006986515,MAFE4ImagesEEG,001,201846,
AFNE22.JPG,AFSA24.JPG,AFSA22.JPG,AFNE25.JPG,AFNE24.JPG,AFSA25.JPG,,,,,,,,,,,,,,,,,,,,,0,5,5,6,,,AFSA09.jpg,AFNE02.jpg,AFSA04.jpg,AFNE17.jpg,AFNE02.jpg,FN,3,num_6,32,num_8,2.99993007875,,,2017_Oct_25_1855,60.006986515,MAFE4ImagesEEG,001,201846,
AMSA21.JPG,AMNE23.JPG,AMNE21.JPG,AMSA25.JPG,AMNE25.JPG,AMSA23.JPG,,,,,,,,,,,,,,,,,,,,,0,6,6,5,,,AFSA15.jpg,AFNE12.jpg,AFSA14.jpg,AFNE01.jpg,AFSA14.jpg,FS,4,num_2,32,num_4,0.916729932535,,,2017_Oct_25_1855,60.006986515,MAFE4ImagesEEG,001,201846,
AMSA25.JPG,AMNE24.JPG,AMSA24.JPG,AMNE26.JPG,AMSA21.JPG,AMNE25.JPG,,,,,,,,,,,,,,,,,,,,,0,7,7,3,,,AFSA15.jpg,AFNE13.jpg,AFSA13.jpg,AFNE03.jpg,AFSA13.jpg,FS,4,num_2,16,num_2,1.00009718409,,,2017_Oct_25_1855,60.006986515,MAFE4ImagesEEG,001,201846,
AMNE23.JPG,AMNE24.JPG,AMNE22.JPG,AMSA24.JPG,AMSA22.JPG,AMSA23.JPG,,,,,,,,,,,,,,,,,,,,,0,8,8,9,,,AFSA03.jpg,AFNE16.jpg,AFSA09.jpg,AFNE09.jpg,AFNE09.jpg,FN,3,num_4,32,num_6,1.03345248802,,,2017_Oct_25_1855,60.006986515,MAFE4ImagesEEG,001,201846,
AMNE22.JPG,AMSA24.JPG,AMSA22.JPG,AMNE25.JPG,AMNE24.JPG,AMSA25.JPG,,,,,,,,,,,,,,,,,,,,,0,9,9,7,,,AFSA11.jpg,AFSA07.jpg,AFNE09.jpg,AFNE04.jpg,AFSA11.jpg,FS,4,num_8,16,num_8,1.11678638274,,,2017_Oct_25_1855,60.006986515,MAFE4ImagesEEG,001,201846,
,,,,,,,,,,,,,,,,,,,,,,,,,,,,,,,,,,,,,,,,,,,space,9.44914402638,2017_Oct_25_1855,60.006986515,MAFE4ImagesEEG,001,201846,
AFNE01.JPG,AFNE01.JPG,AFNE01.JPG,AFNE01.JPG,AFNE01.JPG,AFNE01.JPG,0,0,0,9,,,,,,,,,,,,,,,,,,,,,,,AMSA19.jpg,AMNE05.jpg,AMNE10.jpg,AMSA07.jpg,AMNE10.jpg,MN,1,num_2,32,num_4,0.983429314569,,,2017_Oct_25_1855,60.006986515,MAFE4ImagesEEG,001,201846,
AFNE01.JPG,AFNE01.JPG,AFNE01.JPG,AFNE01.JPG,AFNE01.JPG,AFNE01.JPG,0,1,1,1,,,,,,,,,,,,,,,,,,,,,,,AMSA10.jpg,AMSA07.jpg,AMNE16.jpg,AMNE04.jpg,AMNE04.jpg,MN,1,num_4,32,num_2,0.933494665311,,,2017_Oct_25_1855,60.006986515,MAFE4ImagesEEG,001,201846,
AFNE01.JPG,AFNE01.JPG,AFNE01.JPG,AFNE01.JPG,AFNE01.JPG,AFNE01.JPG,0,2,2,3,,,,,,,,,,,,,,,,,,,,,,,AMNE07.jpg,AMNE11.jpg,AMSA02.jpg,AMSA11.jpg,AMNE11.jpg,MN,1,num_6,32,num_8,0.650120998966,,,2017_Oct_25_1855,60.006986515,MAFE4ImagesEEG,001,201846,
AFNE01.JPG,AFNE01.JPG,AFNE01.JPG,AFNE01.JPG,AFNE01.JPG,AFNE01.JPG,0,3,3,0,,,,,,,,,,,,,,,,,,,,,,,AMNE02.jpg,AMSA06.jpg,AMSA13.jpg,AMNE18.jpg,AMNE02.jpg,MN,1,num_8,32,num_2,1.51675270509,,,2017_Oct_25_1855,60.006986515,MAFE4ImagesEEG,001,201846,
AFNE01.JPG,AFNE01.JPG,AFNE01.JPG,AFNE01.JPG,AFNE01.JPG,AFNE01.JPG,0,4,4,7,,,,,,,,,,,,,,,,,,,,,,,AMNE09.jpg,AMSA19.jpg,AMNE08.jpg,AMSA06.jpg,AMNE09.jpg,MN,1,num_8,32,num_4,0.833483599825,,,2017_Oct_25_1855,60.006986515,MAFE4ImagesEEG,001,201846,
AFNE01.JPG,AFNE01.JPG,AFNE01.JPG,AFNE01.JPG,AFNE01.JPG,AFNE01.JPG,0,5,5,6,,,,,,,,,,,,,,,,,,,,,,,AMNE12.jpg,AMSA13.jpg,AMNE11.jpg,AMSA07.jpg,AMNE12.jpg,MN,1,num_8,32,num_6,0.933514871867,,,2017_Oct_25_1855,60.006986515,MAFE4ImagesEEG,001,201846,
AFNE01.JPG,AFNE01.JPG,AFNE01.JPG,AFNE01.JPG,AFNE01.JPG,AFNE01.JPG,0,6,6,5,,,,,,,,,,,,,,,,,,,,,,,AMNE19.jpg,AMSA16.jpg,AMNE12.jpg,AMSA01.jpg,AMSA16.jpg,MS,2,num_6,16,num_6,1.00012316392,,,2017_Oct_25_1855,60.006986515,MAFE4ImagesEEG,001,201846,
AFNE01.JPG,AFNE01.JPG,AFNE01.JPG,AFNE01.JPG,AFNE01.JPG,AFNE01.JPG,0,7,7,2,,,,,,,,,,,,,,,,,,,,,,,AMNE03.jpg,AMNE12.jpg,AMSA04.jpg,AMSA11.jpg,AMNE12.jpg,MN,1,num_6,32,num_8,0.66679913213,,,2017_Oct_25_1855,60.006986515,MAFE4ImagesEEG,001,201846,
AFNE01.JPG,AFNE01.JPG,AFNE01.JPG,AFNE01.JPG,AFNE01.JPG,AFNE01.JPG,0,8,8,8,,,,,,,,,,,,,,,,,,,,,,,AMSA16.jpg,AMSA11.jpg,AMNE18.jpg,AMNE13.jpg,AMNE13.jpg,MN,1,num_4,32,num_2,1.05024704966,,,2017_Oct_25_1855,60.006986515,MAFE4ImagesEEG,001,201846,
AFNE01.JPG,AFNE01.JPG,AFNE01.JPG,AFNE01.JPG,AFNE01.JPG,AFNE01.JPG,0,9,9,4,,,,,,,,,,,,,,,,,,,,,,,AMSA19.jpg,AMNE07.jpg,AMSA06.jpg,AMNE14.jpg,AMSA06.jpg,MS,2,num_2,32,num_6,0.983583269524,,,2017_Oct_25_1855,60.006986515,MAFE4ImagesEEG,001,201846,
AFNE01.JPG,AFNE01.JPG,AFNE01.JPG,AFNE01.JPG,AFNE01.JPG,AFNE01.JPG,1,0,10,1,,,,,,,,,,,,,,,,,,,,,,,AMSA19.jpg,AMNE02.jpg,AMSA17.jpg,AMNE05.jpg,AMSA17.jpg,MS,2,num_2,32,num_8,0.833447035402,,,2017_Oct_25_1855,60.006986515,MAFE4ImagesEEG,001,201846,
AFNE01.JPG,AFNE01.JPG,AFNE01.JPG,AFNE01.JPG,AFNE01.JPG,AFNE01.JPG,1,1,11,3,,,,,,,,,,,,,,,,,,,,,,,AMSA05.jpg,AMNE15.jpg,AMNE02.jpg,AMSA14.jpg,AMSA14.jpg,MS,2,num_4,16,num_4,0.900125890272,,,2017_Oct_25_1855,60.006986515,MAFE4ImagesEEG,001,201846,
AFNE01.JPG,AFNE01.JPG,AFNE01.JPG,AFNE01.JPG,AFNE01.JPG,AFNE01.JPG,1,2,12,5,,,,,,,,,,,,,,,,,,,,,,,AMNE01.jpg,AMNE02.jpg,AMSA20.jpg,AMSA12.jpg,AMSA20.jpg,MS,2,num_2,16,num_2,1.50039595296,,,2017_Oct_25_1855,60.006986515,MAFE4ImagesEEG,001,201846,
AFNE01.JPG,AFNE01.JPG,AFNE01.JPG,AFNE01.JPG,AFNE01.JPG,AFNE01.JPG,1,3,13,8,,,,,,,,,,,,,,,,,,,,,,,AMSA18.jpg,AMNE06.jpg,AMSA02.jpg,AMNE09.jpg,AMSA18.jpg,MS,2,num_8,16,num_8,1.20012380544,,,2017_Oct_25_1855,60.006986515,MAFE4ImagesEEG,001,201846,
AFNE01.JPG,AFNE01.JPG,AFNE01.JPG,AFNE01.JPG,AFNE01.JPG,AFNE01.JPG,1,4,14,0,,,,,,,,,,,,,,,,,,,,,,,AMSA16.jpg,AMSA07.jpg,AMNE06.jpg,AMNE17.jpg,AMSA16.jpg,MS,2,num_8,32,num_2,1.39999903785,,,2017_Oct_25_1855,60.006986515,MAFE4ImagesEEG,001,201846,
AFNE01.JPG,AFNE01.JPG,AFNE01.JPG,AFNE01.JPG,AFNE01.JPG,AFNE01.JPG,1,5,15,4,,,,,,,,,,,,,,,,,,,,,,,AMNE14.jpg,AMSA15.jpg,AMSA07.jpg,AMNE11.jpg,AMNE14.jpg,MN,1,num_8,32,num_4,1.18344150274,,,2017_Oct_25_1855,60.006986515,MAFE4ImagesEEG,001,201846,
AFNE01.JPG,AFNE01.JPG,AFNE01.JPG,AFNE01.JPG,AFNE01.JPG,AFNE01.JPG,1,6,16,9,,,,,,,,,,,,,,,,,,,,,,,AMNE17.jpg,AMNE07.jpg,AMSA08.jpg,AMSA18.jpg,AMSA08.jpg,MS,2,num_2,32,num_8,1.01674516767,,,2017_Oct_25_1855,60.006986515,MAFE4ImagesEEG,001,201846,
AFNE01.JPG,AFNE01.JPG,AFNE01.JPG,AFNE01.JPG,AFNE01.JPG,AFNE01.JPG,1,7,17,7,,,,,,,,,,,,,,,,,,,,,,,AMNE14.jpg,AMSA12.jpg,AMSA10.jpg,AMNE18.jpg,AMSA12.jpg,MS,2,num_6,32,num_4,1.63340341498,,,2017_Oct_25_1855,60.006986515,MAFE4ImagesEEG,001,201846,
AFNE01.JPG,AFNE01.JPG,AFNE01.JPG,AFNE01.JPG,AFNE01.JPG,AFNE01.JPG,1,8,18,2,,,,,,,,,,,,,,,,,,,,,,,AMNE20.jpg,AMNE17.jpg,AMSA09.jpg,AMSA02.jpg,AMSA02.jpg,MS,2,num_4,32,num_6,0.966729050502,,,2017_Oct_25_1855,60.006986515,MAFE4ImagesEEG,001,201846,
AFNE01.JPG,AFNE01.JPG,AFNE01.JPG,AFNE01.JPG,AFNE01.JPG,AFNE01.JPG,1,9,19,6,,,,,,,,,,,,,,,,,,,,,,,AMSA09.jpg,AMNE12.jpg,AMSA20.jpg,AMNE14.jpg,AMSA09.jpg,MS,2,num_8,16,num_8,1.400062865,,,2017_Oct_25_1855,60.006986515,MAFE4ImagesEEG,001,201846,
AFNE01.JPG,AFNE01.JPG,AFNE01.JPG,AFNE01.JPG,AFNE01.JPG,AFNE01.JPG,2,0,20,0,,,,,,,,,,,,,,,,,,,,,,,AMSA15.jpg,AMNE17.jpg,AMNE15.jpg,AMSA11.jpg,AMSA15.jpg,MS,2,num_8,32,num_2,0.966442950885,,,2017_Oct_25_1855,60.006986515,MAFE4ImagesEEG,001,201846,
AFNE01.JPG,AFNE01.JPG,AFNE01.JPG,AFNE01.JPG,AFNE01.JPG,AFNE01.JPG,2,1,21,9,,,,,,,,,,,,,,,,,,,,,,,AMSA13.jpg,AMSA14.jpg,AMNE20.jpg,AMNE16.jpg,AMNE16.jpg,MN,1,num_4,32,num_8,0.983505009208,,,2017_Oct_25_1855,60.006986515,MAFE4ImagesEEG,001,201846,
AFNE01.JPG,AFNE01.JPG,AFNE01.JPG,AFNE01.JPG,AFNE01.JPG,AFNE01.JPG,2,2,22,6,,,,,,,,,,,,,,,,,,,,,,,AMSA15.jpg,AMNE14.jpg,AMSA11.jpg,AMNE03.jpg,AMSA11.jpg,MS,2,num_2,16,num_2,1.0334996368,,,2017_Oct_25_1855,60.006986515,MAFE4ImagesEEG,001,201846,
AFNE01.JPG,AFNE01.JPG,AFNE01.JPG,AFNE01.JPG,AFNE01.JPG,AFNE01.JPG,2,3,23,1,,,,,,,,,,,,,,,,,,,,,,,AMSA12.jpg,AMNE20.jpg,AMNE12.jpg,AMSA19.jpg,AMSA12.jpg,MS,2,num_8,16,num_8,1.43368181679,,,2017_Oct_25_1855,60.006986515,MAFE4ImagesEEG,001,201846,
AFNE01.JPG,AFNE01.JPG,AFNE01.JPG,AFNE01.JPG,AFNE01.JPG,AFNE01.JPG,2,4,24,2,,,,,,,,,,,,,,,,,,,,,,,AMSA15.jpg,AMNE01.jpg,AMNE09.jpg,AMSA01.jpg,AMSA01.jpg,MS,2,num_4,16,num_4,1.63347910938,,,2017_Oct_25_1855,60.006986515,MAFE4ImagesEEG,001,201846,
AFNE01.JPG,AFNE01.JPG,AFNE01.JPG,AFNE01.JPG,AFNE01.JPG,AFNE01.JPG,2,5,25,4,,,,,,,,,,,,,,,,,,,,,,,AMSA08.jpg,AMNE05.jpg,AMNE11.jpg,AMSA03.jpg,AMSA03.jpg,MS,2,num_4,16,num_4,1.70014994568,,,2017_Oct_25_1855,60.006986515,MAFE4ImagesEEG,001,201846,
AFNE01.JPG,AFNE01.JPG,AFNE01.JPG,AFNE01.JPG,AFNE01.JPG,AFNE01.JPG,2,6,26,3,,,,,,,,,,,,,,,,,,,,,,,AMSA04.jpg,AMNE07.jpg,AMSA11.jpg,AMNE12.jpg,AMSA11.jpg,MS,2,num_2,32,num_6,1.38343508786,,,2017_Oct_25_1855,60.006986515,MAFE4ImagesEEG,001,201846,
AFNE01.JPG,AFNE01.JPG,AFNE01.JPG,AFNE01.JPG,AFNE01.JPG,AFNE01.JPG,2,7,27,5,,,,,,,,,,,,,,,,,,,,,,,AMSA06.jpg,AMNE06.jpg,AMNE14.jpg,AMSA14.jpg,AMNE14.jpg,MN,1,num_2,32,num_6,1.53346932691,,,2017_Oct_25_1855,60.006986515,MAFE4ImagesEEG,001,201846,
AFNE01.JPG,AFNE01.JPG,AFNE01.JPG,AFNE01.JPG,AFNE01.JPG,AFNE01.JPG,2,8,28,7,,,,,,,,,,,,,,,,,,,,,,,AMNE14.jpg,AMSA10.jpg,AMSA06.jpg,AMNE18.jpg,AMNE14.jpg,MN,1,num_8,32,num_2,1.81666915247,,,2017_Oct_25_1855,60.006986515,MAFE4ImagesEEG,001,201846,
AFNE01.JPG,AFNE01.JPG,AFNE01.JPG,AFNE01.JPG,AFNE01.JPG,AFNE01.JPG,2,9,29,8,,,,,,,,,,,,,,,,,,,,,,,AMNE18.jpg,AMSA13.jpg,AMSA02.jpg,AMNE13.jpg,AMSA02.jpg,MS,2,num_2,32,num_8,1.08343813499,,,2017_Oct_25_1855,60.006986515,MAFE4ImagesEEG,001,201846,
AFNE01.JPG,AFNE01.JPG,AFNE01.JPG,AFNE01.JPG,AFNE01.JPG,AFNE01.JPG,3,0,30,5,,,,,,,,,,,,,,,,,,,,,,,AMSA16.jpg,AMSA11.jpg,AMNE18.jpg,AMNE01.jpg,AMSA16.jpg,MS,2,num_8,32,num_4,1.16674637049,,,2017_Oct_25_1855,60.006986515,MAFE4ImagesEEG,001,201846,
AFNE01.JPG,AFNE01.JPG,AFNE01.JPG,AFNE01.JPG,AFNE01.JPG,AFNE01.JPG,3,1,31,6,,,,,,,,,,,,,,,,,,,,,,,AMNE09.jpg,AMSA10.jpg,AMNE19.jpg,AMSA17.jpg,AMSA17.jpg,MS,2,num_4,32,num_6,1.01676152542,,,2017_Oct_25_1855,60.006986515,MAFE4ImagesEEG,001,201846,
AFNE01.JPG,AFNE01.JPG,AFNE01.JPG,AFNE01.JPG,AFNE01.JPG,AFNE01.JPG,3,2,32,2,,,,,,,,,,,,,,,,,,,,,,,AMNE13.jpg,AMNE20.jpg,AMSA17.jpg,AMSA05.jpg,AMNE20.jpg,MN,1,num_6,16,num_6,0.966684147017,,,2017_Oct_25_1855,60.006986515,MAFE4ImagesEEG,001,201846,
AFNE01.JPG,AFNE01.JPG,AFNE01.JPG,AFNE01.JPG,AFNE01.JPG,AFNE01.JPG,3,3,33,9,,,,,,,,,,,,,,,,,,,,,,,AMSA07.jpg,AMSA08.jpg,AMNE08.jpg,AMNE05.jpg,AMNE08.jpg,MN,1,num_2,32,num_8,1.33344238473,,,2017_Oct_25_1855,60.006986515,MAFE4ImagesEEG,001,201846,
AFNE01.JPG,AFNE01.JPG,AFNE01.JPG,AFNE01.JPG,AFNE01.JPG,AFNE01.JPG,3,4,34,4,,,,,,,,,,,,,,,,,,,,,,,AMSA01.jpg,AMNE19.jpg,AMSA02.jpg,AMNE08.jpg,AMNE08.jpg,MN,1,num_4,32,num_2,0.883426588378,,,2017_Oct_25_1855,60.006986515,MAFE4ImagesEEG,001,201846,
AFNE01.JPG,AFNE01.JPG,AFNE01.JPG,AFNE01.JPG,AFNE01.JPG,AFNE01.JPG,3,5,35,7,,,,,,,,,,,,,,,,,,,,,,,AMNE03.jpg,AMSA10.jpg,AMSA01.jpg,AMNE16.jpg,AMNE16.jpg,MN,1,num_4,16,num_4,1.41671533883,,,2017_Oct_25_1855,60.006986515,MAFE4ImagesEEG,001,201846,
AFNE01.JPG,AFNE01.JPG,AFNE01.JPG,AFNE01.JPG,AFNE01.JPG,AFNE01.JPG,3,6,36,1,,,,,,,,,,,,,,,,,,,,,,,AMNE17.jpg,AMSA04.jpg,AMSA03.jpg,AMNE06.jpg,AMSA04.jpg,MS,2,num_6,32,num_8,1.70007393043,,,2017_Oct_25_1855,60.006986515,MAFE4ImagesEEG,001,201846,
AFNE01.JPG,AFNE01.JPG,AFNE01.JPG,AFNE01.JPG,AFNE01.JPG,AFNE01.JPG,3,7,37,8,,,,,,,,,,,,,,,,,,,,,,,AMNE03.jpg,AMNE12.jpg,AMSA14.jpg,AMSA05.jpg,AMSA05.jpg,MS,2,num_4,16,num_4,2.01668871741,,,2017_Oct_25_1855,60.006986515,MAFE4ImagesEEG,001,201846,
AFNE01.JPG,AFNE01.JPG,AFNE01.JPG,AFNE01.JPG,AFNE01.JPG,AFNE01.JPG,3,8,38,3,,,,,,,,,,,,,,,,,,,,,,,AMNE09.jpg,AMSA13.jpg,AMSA03.jpg,AMNE16.jpg,AMNE16.jpg,MN,1,num_4,32,num_6,1.41671149002,,,2017_Oct_25_1855,60.006986515,MAFE4ImagesEEG,001,201846,
AFNE01.JPG,AFNE01.JPG,AFNE01.JPG,AFNE01.JPG,AFNE01.JPG,AFNE01.JPG,3,9,39,0,,,,,,,,,,,,,,,,,,,,,,,AMNE07.jpg,AMNE14.jpg,AMSA05.jpg,AMSA14.jpg,AMSA05.jpg,MS,2,num_2,32,num_8,1.00007954345,,,2017_Oct_25_1855,60.006986515,MAFE4ImagesEEG,001,201846,
AFNE01.JPG,AFNE01.JPG,AFNE01.JPG,AFNE01.JPG,AFNE01.JPG,AFNE01.JPG,4,0,40,6,,,,,,,,,,,,,,,,,,,,,,,AMSA09.jpg,AMNE11.jpg,AMSA03.jpg,AMNE05.jpg,AMNE05.jpg,MN,1,num_4,32,num_2,1.78337126086,,,2017_Oct_25_1855,60.006986515,MAFE4ImagesEEG,001,201846,
AFNE01.JPG,AFNE01.JPG,AFNE01.JPG,AFNE01.JPG,AFNE01.JPG,AFNE01.JPG,4,1,41,2,,,,,,,,,,,,,,,,,,,,,,,AMSA02.jpg,AMSA05.jpg,AMNE01.jpg,AMNE13.jpg,AMSA05.jpg,MS,2,num_6,32,num_2,1.35006502992,,,2017_Oct_25_1855,60.006986515,MAFE4ImagesEEG,001,201846,
AFNE01.JPG,AFNE01.JPG,AFNE01.JPG,AFNE01.JPG,AFNE01.JPG,AFNE01.JPG,4,2,42,8,,,,,,,,,,,,,,,,,,,,,,,AMNE02.jpg,AMNE17.jpg,AMSA10.jpg,AMSA15.jpg,AMNE02.jpg,MN,1,num_8,32,num_6,1.21676890238,,,2017_Oct_25_1855,60.006986515,MAFE4ImagesEEG,001,201846,
AFNE01.JPG,AFNE01.JPG,AFNE01.JPG,AFNE01.JPG,AFNE01.JPG,AFNE01.JPG,4,3,43,4,,,,,,,,,,,,,,,,,,,,,,,AMSA19.jpg,AMNE11.jpg,AMSA02.jpg,AMNE07.jpg,AMNE11.jpg,MN,1,num_6,16,num_6,1.61675703502,,,2017_Oct_25_1855,60.006986515,MAFE4ImagesEEG,001,201846,
AFNE01.JPG,AFNE01.JPG,AFNE01.JPG,AFNE01.JPG,AFNE01.JPG,AFNE01.JPG,4,4,44,1,,,,,,,,,,,,,,,,,,,,,,,AMSA04.jpg,AMSA06.jpg,AMNE14.jpg,AMNE19.jpg,AMNE14.jpg,MN,1,num_2,32,num_4,1.05008475541,,,2017_Oct_25_1855,60.006986515,MAFE4ImagesEEG,001,201846,
AFNE01.JPG,AFNE01.JPG,AFNE01.JPG,AFNE01.JPG,AFNE01.JPG,AFNE01.JPG,4,5,45,9,,,,,,,,,,,,,,,,,,,,,,,AMSA16.jpg,AMNE17.jpg,AMNE10.jpg,AMSA17.jpg,AMNE10.jpg,MN,1,num_2,32,num_6,0.916765534668,,,2017_Oct_25_1855,60.006986515,MAFE4ImagesEEG,001,201846,
AFNE01.JPG,AFNE01.JPG,AFNE01.JPG,AFNE01.JPG,AFNE01.JPG,AFNE01.JPG,4,6,46,3,,,,,,,,,,,,,,,,,,,,,,,AMSA16.jpg,AMNE14.jpg,AMSA13.jpg,AMNE12.jpg,AMNE12.jpg,MN,1,num_4,16,num_4,1.00018506672,,,2017_Oct_25_1855,60.006986515,MAFE4ImagesEEG,001,201846,
AFNE01.JPG,AFNE01.JPG,AFNE01.JPG,AFNE01.JPG,AFNE01.JPG,AFNE01.JPG,4,7,47,0,,,,,,,,,,,,,,,,,,,,,,,AMSA17.jpg,AMNE12.jpg,AMNE07.jpg,AMSA16.jpg,AMSA17.jpg,MS,2,num_8,16,num_8,1.21673009288,,,2017_Oct_25_1855,60.006986515,MAFE4ImagesEEG,001,201846,
AFNE01.JPG,AFNE01.JPG,AFNE01.JPG,AFNE01.JPG,AFNE01.JPG,AFNE01.JPG,4,8,48,7,,,,,,,,,,,,,,,,,,,,,,,AMSA10.jpg,AMNE14.jpg,AMNE08.jpg,AMSA15.jpg,AMNE08.jpg,MN,1,num_2,32,num_4,0.916619598051,,,2017_Oct_25_1855,60.006986515,MAFE4ImagesEEG,001,201846,
AFNE01.JPG,AFNE01.JPG,AFNE01.JPG,AFNE01.JPG,AFNE01.JPG,AFNE01.JPG,4,9,49,5,,,,,,,,,,,,,,,,,,,,,,,AMNE02.jpg,AMSA02.jpg,AMNE18.jpg,AMSA07.jpg,AMSA07.jpg,MS,2,num_4,16,num_4,1.23343677178,,,2017_Oct_25_1855,60.006986515,MAFE4ImagesEEG,001,201846,
AFNE01.JPG,AFNE01.JPG,AFNE01.JPG,AFNE01.JPG,AFNE01.JPG,AFNE01.JPG,5,0,50,7,,,,,,,,,,,,,,,,,,,,,,,AMNE03.jpg,AMSA13.jpg,AMNE07.jpg,AMSA15.jpg,AMNE03.jpg,MN,1,num_8,32,num_4,1.08341632469,,,2017_Oct_25_1855,60.006986515,MAFE4ImagesEEG,001,201846,
AFNE01.JPG,AFNE01.JPG,AFNE01.JPG,AFNE01.JPG,AFNE01.JPG,AFNE01.JPG,5,1,51,0,,,,,,,,,,,,,,,,,,,,,,,AMSA19.jpg,AMNE17.jpg,AMSA02.jpg,AMNE05.jpg,AMNE05.jpg,MN,1,num_4,32,num_8,1.03343003627,,,2017_Oct_25_1855,60.006986515,MAFE4ImagesEEG,001,201846,
AFNE01.JPG,AFNE01.JPG,AFNE01.JPG,AFNE01.JPG,AFNE01.JPG,AFNE01.JPG,5,2,52,6,,,,,,,,,,,,,,,,,,,,,,,AMSA05.jpg,AMNE10.jpg,AMNE18.jpg,AMSA18.jpg,AMNE18.jpg,MN,1,num_2,16,num_2,0.850215937826,,,2017_Oct_25_1855,60.006986515,MAFE4ImagesEEG,001,201846,
AFNE01.JPG,AFNE01.JPG,AFNE01.JPG,AFNE01.JPG,AFNE01.JPG,AFNE01.JPG,5,3,53,3,,,,,,,,,,,,,,,,,,,,,,,AMNE15.jpg,AMSA08.jpg,AMSA04.jpg,AMNE14.jpg,AMSA04.jpg,MS,2,num_2,16,num_2,0.933469326817,,,2017_Oct_25_1855,60.006986515,MAFE4ImagesEEG,001,201846,
AFNE01.JPG,AFNE01.JPG,AFNE01.JPG,AFNE01.JPG,AFNE01.JPG,AFNE01.JPG,5,4,54,8,,,,,,,,,,,,,,,,,,,,,,,AMSA20.jpg,AMNE17.jpg,AMSA12.jpg,AMNE18.jpg,AMSA12.jpg,MS,2,num_2,32,num_4,1.73337438796,,,2017_Oct_25_1855,60.006986515,MAFE4ImagesEEG,001,201846,
AFNE01.JPG,AFNE01.JPG,AFNE01.JPG,AFNE01.JPG,AFNE01.JPG,AFNE01.JPG,5,5,55,5,,,,,,,,,,,,,,,,,,,,,,,AMSA01.jpg,AMNE15.jpg,AMNE04.jpg,AMSA02.jpg,AMSA01.jpg,MS,2,num_8,16,num_8,1.30007296824,,,2017_Oct_25_1855,60.006986515,MAFE4ImagesEEG,001,201846,
AFNE01.JPG,AFNE01.JPG,AFNE01.JPG,AFNE01.JPG,AFNE01.JPG,AFNE01.JPG,5,6,56,9,,,,,,,,,,,,,,,,,,,,,,,AMNE15.jpg,AMSA16.jpg,AMSA20.jpg,AMNE05.jpg,AMNE15.jpg,MN,1,num_8,32,num_6,1.70006687427,,,2017_Oct_25_1855,60.006986515,MAFE4ImagesEEG,001,201846,
AFNE01.JPG,AFNE01.JPG,AFNE01.JPG,AFNE01.JPG,AFNE01.JPG,AFNE01.JPG,5,7,57,1,,,,,,,,,,,,,,,,,,,,,,,AMNE02.jpg,AMSA13.jpg,AMSA07.jpg,AMNE07.jpg,AMNE07.jpg,MN,1,num_4,32,num_2,1.25010367914,,,2017_Oct_25_1855,60.006986515,MAFE4ImagesEEG,001,201846,
AFNE01.JPG,AFNE01.JPG,AFNE01.JPG,AFNE01.JPG,AFNE01.JPG,AFNE01.JPG,5,8,58,4,,,,,,,,,,,,,,,,,,,,,,,AMNE10.jpg,AMNE05.jpg,AMSA08.jpg,AMSA05.jpg,AMNE10.jpg,MN,1,num_8,16,num_8,0.716823909199,,,2017_Oct_25_1855,60.006986515,MAFE4ImagesEEG,001,201846,
AFNE01.JPG,AFNE01.JPG,AFNE01.JPG,AFNE01.JPG,AFNE01.JPG,AFNE01.JPG,5,9,59,2,,,,,,,,,,,,,,,,,,,,,,,AMSA11.jpg,AMSA05.jpg,AMNE06.jpg,AMNE13.jpg,AMNE06.jpg,MN,1,num_2,32,num_4,0.800157162361,,,2017_Oct_25_1855,60.006986515,MAFE4ImagesEEG,001,201846,
,,,,,,,,,,,,,,,,,,,,,,,,,,,,,,,,,,,,,,,,,,,space,24.1480007506,2017_Oct_25_1855,60.006986515,MAFE4ImagesEEG,001,201846,
AFNE01.JPG,AFNE01.JPG,AFNE01.JPG,AFNE01.JPG,AFNE01.JPG,AFNE01.JPG,,,,,0,0,0,7,,,,,,,,,,,,,,,,,,,AFSA15.jpg,AFNE05.jpg,AFNE14.jpg,AFSA09.jpg,AFSA09.jpg,FS,4,num_4,16,num_4,1.60011290037,,,2017_Oct_25_1855,60.006986515,MAFE4ImagesEEG,001,201846,
AFNE01.JPG,AFNE01.JPG,AFNE01.JPG,AFNE01.JPG,AFNE01.JPG,AFNE01.JPG,,,,,0,1,1,0,,,,,,,,,,,,,,,,,,,AFSA11.jpg,AFNE01.jpg,AFNE19.jpg,AFSA16.jpg,AFNE01.jpg,FN,3,num_6,32,num_8,0.866760643432,,,2017_Oct_25_1855,60.006986515,MAFE4ImagesEEG,001,201846,
AFNE01.JPG,AFNE01.JPG,AFNE01.JPG,AFNE01.JPG,AFNE01.JPG,AFNE01.JPG,,,,,0,2,2,8,,,,,,,,,,,,,,,,,,,AFSA20.jpg,AFNE07.jpg,AFSA03.jpg,AFNE01.jpg,AFNE01.jpg,FN,3,num_4,32,num_6,1.05014569592,,,2017_Oct_25_1855,60.006986515,MAFE4ImagesEEG,001,201846,
AFNE01.JPG,AFNE01.JPG,AFNE01.JPG,AFNE01.JPG,AFNE01.JPG,AFNE01.JPG,,,,,0,3,3,6,,,,,,,,,,,,,,,,,,,AFSA16.jpg,AFSA11.jpg,AFNE11.jpg,AFNE16.jpg,AFSA16.jpg,FS,4,num_8,16,num_8,1.01678782597,,,2017_Oct_25_1855,60.006986515,MAFE4ImagesEEG,001,201846,
AFNE01.JPG,AFNE01.JPG,AFNE01.JPG,AFNE01.JPG,AFNE01.JPG,AFNE01.JPG,,,,,0,4,4,4,,,,,,,,,,,,,,,,,,,AFNE15.jpg,AFSA16.jpg,AFNE11.jpg,AFSA11.jpg,AFNE11.jpg,FN,3,num_2,16,num_2,0.866777321789,,,2017_Oct_25_1855,60.006986515,MAFE4ImagesEEG,001,201846,
AFNE01.JPG,AFNE01.JPG,AFNE01.JPG,AFNE01.JPG,AFNE01.JPG,AFNE01.JPG,,,,,0,5,5,3,,,,,,,,,,,,,,,,,,,AFSA01.jpg,AFNE03.jpg,AFSA10.jpg,AFNE04.jpg,AFNE03.jpg,FN,3,num_6,32,num_4,1.08344294596,,,2017_Oct_25_1855,60.006986515,MAFE4ImagesEEG,001,201846,
AFNE01.JPG,AFNE01.JPG,AFNE01.JPG,AFNE01.JPG,AFNE01.JPG,AFNE01.JPG,,,,,0,6,6,5,,,,,,,,,,,,,,,,,,,AFNE10.jpg,AFNE14.jpg,AFSA01.jpg,AFSA18.jpg,AFNE10.jpg,FN,3,num_8,32,num_4,1.40009141073,,,2017_Oct_25_1855,60.006986515,MAFE4ImagesEEG,001,201846,
AFNE01.JPG,AFNE01.JPG,AFNE01.JPG,AFNE01.JPG,AFNE01.JPG,AFNE01.JPG,,,,,0,7,7,2,,,,,,,,,,,,,,,,,,,AFNE11.jpg,AFSA18.jpg,AFSA08.jpg,AFNE01.jpg,AFSA18.jpg,FS,4,num_6,32,num_8,0.716782213072,,,2017_Oct_25_1855,60.006986515,MAFE4ImagesEEG,001,201846,
AFNE01.JPG,AFNE01.JPG,AFNE01.JPG,AFNE01.JPG,AFNE01.JPG,AFNE01.JPG,,,,,0,8,8,1,,,,,,,,,,,,,,,,,,,AFSA03.jpg,AFSA11.jpg,AFNE17.jpg,AFNE13.jpg,AFNE13.jpg,FN,3,num_4,32,num_2,1.36676882219,,,2017_Oct_25_1855,60.006986515,MAFE4ImagesEEG,001,201846,
AFNE01.JPG,AFNE01.JPG,AFNE01.JPG,AFNE01.JPG,AFNE01.JPG,AFNE01.JPG,,,,,0,9,9,9,,,,,,,,,,,,,,,,,,,AFNE10.jpg,AFNE12.jpg,AFSA07.jpg,AFSA04.jpg,AFNE10.jpg,FN,3,num_8,32,num_4,1.00011771149,,,2017_Oct_25_1855,60.006986515,MAFE4ImagesEEG,001,201846,
AFNE01.JPG,AFNE01.JPG,AFNE01.JPG,AFNE01.JPG,AFNE01.JPG,AFNE01.JPG,,,,,1,0,10,7,,,,,,,,,,,,,,,,,,,AFNE14.jpg,AFSA19.jpg,AFSA12.jpg,AFNE12.jpg,AFSA12.jpg,FS,4,num_2,32,num_4,1.10008611856,,,2017_Oct_25_1855,60.006986515,MAFE4ImagesEEG,001,201846,
AFNE01.JPG,AFNE01.JPG,AFNE01.JPG,AFNE01.JPG,AFNE01.JPG,AFNE01.JPG,,,,,1,1,11,1,,,,,,,,,,,,,,,,,,,AFSA06.jpg,AFSA02.jpg,AFNE11.jpg,AFNE03.jpg,AFNE03.jpg,FN,3,num_4,32,num_6,1.28344326676,,,2017_Oct_25_1855,60.006986515,MAFE4ImagesEEG,001,201846,
AFNE01.JPG,AFNE01.JPG,AFNE01.JPG,AFNE01.JPG,AFNE01.JPG,AFNE01.JPG,,,,,1,2,12,3,,,,,,,,,,,,,,,,,,,AFSA06.jpg,AFNE18.jpg,AFSA07.jpg,AFNE13.jpg,AFSA06.jpg,FS,4,num_8,16,num_8,0.933530267328,,,2017_Oct_25_1855,60.006986515,MAFE4ImagesEEG,001,201846,
AFNE01.JPG,AFNE01.JPG,AFNE01.JPG,AFNE01.JPG,AFNE01.JPG,AFNE01.JPG,,,,,1,3,13,2,,,,,,,,,,,,,,,,,,,AFNE16.jpg,AFSA07.jpg,AFNE17.jpg,AFSA08.jpg,AFNE16.jpg,FN,3,num_8,32,num_2,0.616776920855,,,2017_Oct_25_1855,60.006986515,MAFE4ImagesEEG,001,201846,
AFNE01.JPG,AFNE01.JPG,AFNE01.JPG,AFNE01.JPG,AFNE01.JPG,AFNE01.JPG,,,,,1,4,14,9,,,,,,,,,,,,,,,,,,,AFSA08.jpg,AFSA04.jpg,AFNE10.jpg,AFNE08.jpg,AFNE10.jpg,FN,3,num_2,16,num_2,1.21673233807,,,2017_Oct_25_1855,60.006986515,MAFE4ImagesEEG,001,201846,
AFNE01.JPG,AFNE01.JPG,AFNE01.JPG,AFNE01.JPG,AFNE01.JPG,AFNE01.JPG,,,,,1,5,15,5,,,,,,,,,,,,,,,,,,,AFSA06.jpg,AFSA12.jpg,AFNE19.jpg,AFNE07.jpg,AFNE07.jpg,FN,3,num_4,16,num_4,0.883452247479,,,2017_Oct_25_1855,60.006986515,MAFE4ImagesEEG,001,201846,
AFNE01.JPG,AFNE01.JPG,AFNE01.JPG,AFNE01.JPG,AFNE01.JPG,AFNE01.JPG,,,,,1,6,16,8,,,,,,,,,,,,,,,,,,,AFNE14.jpg,AFNE16.jpg,AFSA08.jpg,AFSA16.jpg,AFSA08.jpg,FS,4,num_2,32,num_8,1.50009092968,,,2017_Oct_25_1855,60.006986515,MAFE4ImagesEEG,001,201846,
AFNE01.JPG,AFNE01.JPG,AFNE01.JPG,AFNE01.JPG,AFNE01.JPG,AFNE01.JPG,,,,,1,7,17,0,,,,,,,,,,,,,,,,,,,AFNE19.jpg,AFSA20.jpg,AFNE18.jpg,AFSA18.jpg,AFNE19.jpg,FN,3,num_8,16,num_8,0.900088363793,,,2017_Oct_25_1855,60.006986515,MAFE4ImagesEEG,001,201846,
AFNE01.JPG,AFNE01.JPG,AFNE01.JPG,AFNE01.JPG,AFNE01.JPG,AFNE01.JPG,,,,,1,8,18,6,,,,,,,,,,,,,,,,,,,AFSA01.jpg,AFNE16.jpg,AFNE04.jpg,AFSA11.jpg,AFNE16.jpg,FN,3,num_6,32,num_8,2.51633478154,,,2017_Oct_25_1855,60.006986515,MAFE4ImagesEEG,001,201846,
AFNE01.JPG,AFNE01.JPG,AFNE01.JPG,AFNE01.JPG,AFNE01.JPG,AFNE01.JPG,,,,,1,9,19,4,,,,,,,,,,,,,,,,,,,AFNE02.jpg,AFSA11.jpg,AFSA10.jpg,AFNE10.jpg,AFNE10.jpg,FN,3,num_4,32,num_2,1.03351695661,,,2017_Oct_25_1855,60.006986515,MAFE4ImagesEEG,001,201846,
AFNE01.JPG,AFNE01.JPG,AFNE01.JPG,AFNE01.JPG,AFNE01.JPG,AFNE01.JPG,,,,,2,0,20,7,,,,,,,,,,,,,,,,,,,AFNE01.jpg,AFSA03.jpg,AFSA04.jpg,AFNE04.jpg,AFNE04.jpg,FN,3,num_4,16,num_4,0.716642691405,,,2017_Oct_25_1855,60.006986515,MAFE4ImagesEEG,001,201846,
AFNE01.JPG,AFNE01.JPG,AFNE01.JPG,AFNE01.JPG,AFNE01.JPG,AFNE01.JPG,,,,,2,1,21,0,,,,,,,,,,,,,,,,,,,AFSA12.jpg,AFSA16.jpg,AFNE17.jpg,AFNE20.jpg,AFNE17.jpg,FN,3,num_2,32,num_6,1.38369713211,,,2017_Oct_25_1855,60.006986515,MAFE4ImagesEEG,001,201846,
AFNE01.JPG,AFNE01.JPG,AFNE01.JPG,AFNE01.JPG,AFNE01.JPG,AFNE01.JPG,,,,,2,2,22,2,,,,,,,,,,,,,,,,,,,AFNE03.jpg,AFSA03.jpg,AFNE06.jpg,AFSA19.jpg,AFNE06.jpg,FN,3,num_2,16,num_2,1.33341159369,,,2017_Oct_25_1855,60.006986515,MAFE4ImagesEEG,001,201846,
AFNE01.JPG,AFNE01.JPG,AFNE01.JPG,AFNE01.JPG,AFNE01.JPG,AFNE01.JPG,,,,,2,3,23,1,,,,,,,,,,,,,,,,,,,AFSA10.jpg,AFNE20.jpg,AFSA15.jpg,AFNE03.jpg,AFSA10.jpg,FS,4,num_8,32,num_4,1.60010327806,,,2017_Oct_25_1855,60.006986515,MAFE4ImagesEEG,001,201846,
AFNE01.JPG,AFNE01.JPG,AFNE01.JPG,AFNE01.JPG,AFNE01.JPG,AFNE01.JPG,,,,,2,4,24,4,,,,,,,,,,,,,,,,,,,AFSA20.jpg,AFSA06.jpg,AFNE20.jpg,AFNE05.jpg,AFNE20.jpg,FN,3,num_2,32,num_8,0.983432201319,,,2017_Oct_25_1855,60.006986515,MAFE4ImagesEEG,001,201846,
AFNE01.JPG,AFNE01.JPG,AFNE01.JPG,AFNE01.JPG,AFNE01.JPG,AFNE01.JPG,,,,,2,5,25,3,,,,,,,,,,,,,,,,,,,AFNE11.jpg,AFNE18.jpg,AFSA13.jpg,AFSA18.jpg,AFNE18.jpg,FN,3,num_6,32,num_2,1.56669858017,,,2017_Oct_25_1855,60.006986515,MAFE4ImagesEEG,001,201846,
AFNE01.JPG,AFNE01.JPG,AFNE01.JPG,AFNE01.JPG,AFNE01.JPG,AFNE01.JPG,,,,,2,6,26,9,,,,,,,,,,,,,,,,,,,AFNE16.jpg,AFNE01.jpg,AFSA16.jpg,AFSA14.jpg,AFSA14.jpg,FS,4,num_4,32,num_2,1.41671084857,,,2017_Oct_25_1855,60.006986515,MAFE4ImagesEEG,001,201846,
AFNE01.JPG,AFNE01.JPG,AFNE01.JPG,AFNE01.JPG,AFNE01.JPG,AFNE01.JPG,,,,,2,7,27,5,,,,,,,,,,,,,,,,,,,AFNE02.jpg,AFSA13.jpg,AFNE06.jpg,AFSA05.jpg,AFNE06.jpg,FN,3,num_2,32,num_8,1.68334896932,,,2017_Oct_25_1855,60.006986515,MAFE4ImagesEEG,001,201846,
AFNE01.JPG,AFNE01.JPG,AFNE01.JPG,AFNE01.JPG,AFNE01.JPG,AFNE01.JPG,,,,,2,8,28,6,,,,,,,,,,,,,,,,,,,AFSA16.jpg,AFNE11.jpg,AFSA04.jpg,AFNE08.jpg,AFSA04.jpg,FS,4,num_2,16,num_2,1.63340405631,,,2017_Oct_25_1855,60.006986515,MAFE4ImagesEEG,001,201846,
AFNE01.JPG,AFNE01.JPG,AFNE01.JPG,AFNE01.JPG,AFNE01.JPG,AFNE01.JPG,,,,,2,9,29,8,,,,,,,,,,,,,,,,,,,AFSA03.jpg,AFSA04.jpg,AFNE03.jpg,AFNE11.jpg,AFSA03.jpg,FS,4,num_8,32,num_4,1.05014858267,,,2017_Oct_25_1855,60.006986515,MAFE4ImagesEEG,001,201846,
AFNE01.JPG,AFNE01.JPG,AFNE01.JPG,AFNE01.JPG,AFNE01.JPG,AFNE01.JPG,,,,,3,0,30,0,,,,,,,,,,,,,,,,,,,AFSA03.jpg,AFNE04.jpg,AFSA10.jpg,AFNE10.jpg,AFSA10.jpg,FS,4,num_2,16,num_2,1.78338441113,,,2017_Oct_25_1855,60.006986515,MAFE4ImagesEEG,001,201846,
AFNE01.JPG,AFNE01.JPG,AFNE01.JPG,AFNE01.JPG,AFNE01.JPG,AFNE01.JPG,,,,,3,1,31,7,,,,,,,,,,,,,,,,,,,AFNE04.jpg,AFSA17.jpg,AFSA19.jpg,AFNE19.jpg,AFNE04.jpg,FN,3,num_8,32,num_4,0.666779887746,,,2017_Oct_25_1855,60.006986515,MAFE4ImagesEEG,001,201846,
AFNE01.JPG,AFNE01.JPG,AFNE01.JPG,AFNE01.JPG,AFNE01.JPG,AFNE01.JPG,,,,,3,2,32,5,,,,,,,,,,,,,,,,,,,AFSA18.jpg,AFNE17.jpg,AFSA14.jpg,AFNE16.jpg,AFSA18.jpg,FS,4,num_8,32,num_4,0.9000922126,,,2017_Oct_25_1855,60.006986515,MAFE4ImagesEEG,001,201846,
AFNE01.JPG,AFNE01.JPG,AFNE01.JPG,AFNE01.JPG,AFNE01.JPG,AFNE01.JPG,,,,,3,3,33,8,,,,,,,,,,,,,,,,,,,AFNE07.jpg,AFNE09.jpg,AFSA11.jpg,AFSA12.jpg,AFNE09.jpg,FN,3,num_6,32,num_8,1.2000952597,,,2017_Oct_25_1855,60.006986515,MAFE4ImagesEEG,001,201846,
AFNE01.JPG,AFNE01.JPG,AFNE01.JPG,AFNE01.JPG,AFNE01.JPG,AFNE01.JPG,,,,,3,4,34,9,,,,,,,,,,,,,,,,,,,AFNE15.jpg,AFNE18.jpg,AFSA16.jpg,AFSA04.jpg,AFNE15.jpg,FN,3,num_8,32,num_4,1.38345978491,,,2017_Oct_25_1855,60.006986515,MAFE4ImagesEEG,001,201846,
AFNE01.JPG,AFNE01.JPG,AFNE01.JPG,AFNE01.JPG,AFNE01.JPG,AFNE01.JPG,,,,,3,5,35,4,,,,,,,,,,,,,,,,,,,AFSA13.jpg,AFNE08.jpg,AFSA10.jpg,AFNE04.jpg,AFNE08.jpg,FN,3,num_6,16,num_6,0.916744365706,,,2017_Oct_25_1855,60.006986515,MAFE4ImagesEEG,001,201846,
AFNE01.JPG,AFNE01.JPG,AFNE01.JPG,AFNE01.JPG,AFNE01.JPG,AFNE01.JPG,,,,,3,6,36,3,,,,,,,,,,,,,,,,,,,AFNE08.jpg,AFSA03.jpg,AFSA02.jpg,AFNE14.jpg,AFSA03.jpg,FS,4,num_6,32,num_4,0.983470369247,,,2017_Oct_25_1855,60.006986515,MAFE4ImagesEEG,001,201846,
AFNE01.JPG,AFNE01.JPG,AFNE01.JPG,AFNE01.JPG,AFNE01.JPG,AFNE01.JPG,,,,,3,7,37,2,,,,,,,,,,,,,,,,,,,AFNE08.jpg,AFSA10.jpg,AFSA15.jpg,AFNE14.jpg,AFNE08.jpg,FN,3,num_8,32,num_2,0.850173279527,,,2017_Oct_25_1855,60.006986515,MAFE4ImagesEEG,001,201846,
AFNE01.JPG,AFNE01.JPG,AFNE01.JPG,AFNE01.JPG,AFNE01.JPG,AFNE01.JPG,,,,,3,8,38,1,,,,,,,,,,,,,,,,,,,AFSA17.jpg,AFNE17.jpg,AFSA12.jpg,AFNE06.jpg,AFSA12.jpg,FS,4,num_2,32,num_6,0.983479670715,,,2017_Oct_25_1855,60.006986515,MAFE4ImagesEEG,001,201846,
AFNE01.JPG,AFNE01.JPG,AFNE01.JPG,AFNE01.JPG,AFNE01.JPG,AFNE01.JPG,,,,,3,9,39,6,,,,,,,,,,,,,,,,,,,AFNE03.jpg,AFSA07.jpg,AFSA11.jpg,AFNE19.jpg,AFNE03.jpg,FN,3,num_8,32,num_4,0.550214173854,,,2017_Oct_25_1855,60.006986515,MAFE4ImagesEEG,001,201846,
AFNE01.JPG,AFNE01.JPG,AFNE01.JPG,AFNE01.JPG,AFNE01.JPG,AFNE01.JPG,,,,,4,0,40,8,,,,,,,,,,,,,,,,,,,AFNE07.jpg,AFSA16.jpg,AFNE16.jpg,AFSA19.jpg,AFNE16.jpg,FN,3,num_2,32,num_8,0.816827918403,,,2017_Oct_25_1855,60.006986515,MAFE4ImagesEEG,001,201846,
AFNE01.JPG,AFNE01.JPG,AFNE01.JPG,AFNE01.JPG,AFNE01.JPG,AFNE01.JPG,,,,,4,1,41,4,,,,,,,,,,,,,,,,,,,AFSA06.jpg,AFNE14.jpg,AFSA07.jpg,AFNE09.jpg,AFSA06.jpg,FS,4,num_8,32,num_2,1.15011185792,,,2017_Oct_25_1855,60.006986515,MAFE4ImagesEEG,001,201846,
AFNE01.JPG,AFNE01.JPG,AFNE01.JPG,AFNE01.JPG,AFNE01.JPG,AFNE01.JPG,,,,,4,2,42,0,,,,,,,,,,,,,,,,,,,AFSA16.jpg,AFNE16.jpg,AFSA09.jpg,AFNE19.jpg,AFNE16.jpg,FN,3,num_6,16,num_6,0.816690321197,,,2017_Oct_25_1855,60.006986515,MAFE4ImagesEEG,001,201846,
AFNE01.JPG,AFNE01.JPG,AFNE01.JPG,AFNE01.JPG,AFNE01.JPG,AFNE01.JPG,,,,,4,3,43,6,,,,,,,,,,,,,,,,,,,AFSA01.jpg,AFNE02.jpg,AFNE16.jpg,AFSA15.jpg,AFNE16.jpg,FN,3,num_2,32,num_4,0.716754950234,,,2017_Oct_25_1855,60.006986515,MAFE4ImagesEEG,001,201846,
AFNE01.JPG,AFNE01.JPG,AFNE01.JPG,AFNE01.JPG,AFNE01.JPG,AFNE01.JPG,,,,,4,4,44,1,,,,,,,,,,,,,,,,,,,AFNE12.jpg,AFNE14.jpg,AFSA16.jpg,AFSA01.jpg,AFSA01.jpg,FS,4,num_4,32,num_6,0.933470609831,,,2017_Oct_25_1855,60.006986515,MAFE4ImagesEEG,001,201846,
AFNE01.JPG,AFNE01.JPG,AFNE01.JPG,AFNE01.JPG,AFNE01.JPG,AFNE01.JPG,,,,,4,5,45,7,,,,,,,,,,,,,,,,,,,AFSA12.jpg,AFNE11.jpg,AFNE03.jpg,AFSA07.jpg,AFNE03.jpg,FN,3,num_2,32,num_4,0.833461789414,,,2017_Oct_25_1855,60.006986515,MAFE4ImagesEEG,001,201846,
AFNE01.JPG,AFNE01.JPG,AFNE01.JPG,AFNE01.JPG,AFNE01.JPG,AFNE01.JPG,,,,,4,6,46,3,,,,,,,,,,,,,,,,,,,AFSA04.jpg,AFNE02.jpg,AFSA06.jpg,AFNE01.jpg,AFSA06.jpg,FS,4,num_2,32,num_8,0.566762407427,,,2017_Oct_25_1855,60.006986515,MAFE4ImagesEEG,001,201846,
AFNE01.JPG,AFNE01.JPG,AFNE01.JPG,AFNE01.JPG,AFNE01.JPG,AFNE01.JPG,,,,,4,7,47,5,,,,,,,,,,,,,,,,,,,AFSA17.jpg,AFSA11.jpg,AFNE20.jpg,AFNE06.jpg,AFNE06.jpg,FN,3,num_4,16,num_4,1.70008162817,,,2017_Oct_25_1855,60.006986515,MAFE4ImagesEEG,001,201846,
AFNE01.JPG,AFNE01.JPG,AFNE01.JPG,AFNE01.JPG,AFNE01.JPG,AFNE01.JPG,,,,,4,8,48,9,,,,,,,,,,,,,,,,,,,AFNE11.jpg,AFNE20.jpg,AFSA11.jpg,AFSA18.jpg,AFNE20.jpg,FN,3,num_6,32,num_2,0.833433243679,,,2017_Oct_25_1855,60.006986515,MAFE4ImagesEEG,001,201846,
AFNE01.JPG,AFNE01.JPG,AFNE01.JPG,AFNE01.JPG,AFNE01.JPG,AFNE01.JPG,,,,,4,9,49,2,,,,,,,,,,,,,,,,,,,AFNE04.jpg,AFSA05.jpg,AFNE10.jpg,AFSA11.jpg,AFSA11.jpg,FS,4,num_4,32,num_6,0.883465397754,,,2017_Oct_25_1855,60.006986515,MAFE4ImagesEEG,001,201846,
AFNE01.JPG,AFNE01.JPG,AFNE01.JPG,AFNE01.JPG,AFNE01.JPG,AFNE01.JPG,,,,,5,0,50,3,,,,,,,,,,,,,,,,,,,AFSA13.jpg,AFNE03.jpg,AFSA02.jpg,AFNE15.jpg,AFNE15.jpg,FN,3,num_4,32,num_8,0.900168548571,,,2017_Oct_25_1855,60.006986515,MAFE4ImagesEEG,001,201846,
AFNE01.JPG,AFNE01.JPG,AFNE01.JPG,AFNE01.JPG,AFNE01.JPG,AFNE01.JPG,,,,,5,1,51,4,,,,,,,,,,,,,,,,,,,AFNE09.jpg,AFNE19.jpg,AFSA10.jpg,AFSA03.jpg,AFSA03.jpg,FS,4,num_4,16,num_4,0.933425064897,,,2017_Oct_25_1855,60.006986515,MAFE4ImagesEEG,001,201846,
AFNE01.JPG,AFNE01.JPG,AFNE01.JPG,AFNE01.JPG,AFNE01.JPG,AFNE01.JPG,,,,,5,2,52,8,,,,,,,,,,,,,,,,,,,AFNE05.jpg,AFSA10.jpg,AFSA05.jpg,AFNE10.jpg,AFSA10.jpg,FS,4,num_6,16,num_6,1.26671990938,,,2017_Oct_25_1855,60.006986515,MAFE4ImagesEEG,001,201846,
AFNE01.JPG,AFNE01.JPG,AFNE01.JPG,AFNE01.JPG,AFNE01.JPG,AFNE01.JPG,,,,,5,3,53,1,,,,,,,,,,,,,,,,,,,AFNE17.jpg,AFSA01.jpg,AFNE20.jpg,AFSA09.jpg,AFNE17.jpg,FN,3,num_8,32,num_4,1.06682639499,,,2017_Oct_25_1855,60.006986515,MAFE4ImagesEEG,001,201846,
AFNE01.JPG,AFNE01.JPG,AFNE01.JPG,AFNE01.JPG,AFNE01.JPG,AFNE01.JPG,,,,,5,4,54,5,,,,,,,,,,,,,,,,,,,AFSA02.jpg,AFSA18.jpg,AFNE10.jpg,AFNE02.jpg,AFSA18.jpg,FS,4,num_6,16,num_6,0.833434205852,,,2017_Oct_25_1855,60.006986515,MAFE4ImagesEEG,001,201846,
AFNE01.JPG,AFNE01.JPG,AFNE01.JPG,AFNE01.JPG,AFNE01.JPG,AFNE01.JPG,,,,,5,5,55,2,,,,,,,,,,,,,,,,,,,AFNE06.jpg,AFSA08.jpg,AFNE02.jpg,AFSA06.jpg,AFSA08.jpg,FS,4,num_6,32,num_8,0.899973859778,,,2017_Oct_25_1855,60.006986515,MAFE4ImagesEEG,001,201846,
AFNE01.JPG,AFNE01.JPG,AFNE01.JPG,AFNE01.JPG,AFNE01.JPG,AFNE01.JPG,,,,,5,6,56,6,,,,,,,,,,,,,,,,,,,AFSA20.jpg,AFNE16.jpg,AFNE01.jpg,AFSA01.jpg,AFSA01.jpg,FS,4,num_4,32,num_8,2.8999584642,,,2017_Oct_25_1855,60.006986515,MAFE4ImagesEEG,001,201846,
AFNE01.JPG,AFNE01.JPG,AFNE01.JPG,AFNE01.JPG,AFNE01.JPG,AFNE01.JPG,,,,,5,7,57,0,,,,,,,,,,,,,,,,,,,AFNE11.jpg,AFSA02.jpg,AFNE01.jpg,AFSA16.jpg,AFSA16.jpg,FS,4,num_4,32,num_6,1.06676962401,,,2017_Oct_25_1855,60.006986515,MAFE4ImagesEEG,001,201846,
AFNE01.JPG,AFNE01.JPG,AFNE01.JPG,AFNE01.JPG,AFNE01.JPG,AFNE01.JPG,,,,,5,8,58,7,,,,,,,,,,,,,,,,,,,AFSA19.jpg,AFSA11.jpg,AFNE18.jpg,AFNE14.jpg,AFSA19.jpg,FS,4,num_8,16,num_8,1.13341095229,,,2017_Oct_25_1855,60.006986515,MAFE4ImagesEEG,001,201846,
AFNE01.JPG,AFNE01.JPG,AFNE01.JPG,AFNE01.JPG,AFNE01.JPG,AFNE01.JPG,,,,,5,9,59,9,,,,,,,,,,,,,,,,,,,AFNE02.jpg,AFSA09.jpg,AFSA03.jpg,AFNE14.jpg,AFSA09.jpg,FS,4,num_6,32,num_4,1.13339299092,,,2017_Oct_25_1855,60.006986515,MAFE4ImagesEEG,001,201846,
,,,,,,,,,,,,,,,,,,,,,,,,,,,,,,,,,,,,,,,,,,,space,26.9480597666,2017_Oct_25_1855,60.006986515,MAFE4ImagesEEG,001,201846,
AFNE01.JPG,AFNE01.JPG,AFNE01.JPG,AFNE01.JPG,AFNE01.JPG,AFNE01.JPG,,,,,,,,,0,0,0,7,,,,,,,,,,,,,,,AMNE20.jpg,AMSA02.jpg,AMNE12.jpg,AMSA03.jpg,AMNE12.jpg,MN,1,num_2,32,num_8,1.06679432106,,,2017_Oct_25_1855,60.006986515,MAFE4ImagesEEG,001,201846,
AFNE01.JPG,AFNE01.JPG,AFNE01.JPG,AFNE01.JPG,AFNE01.JPG,AFNE01.JPG,,,,,,,,,0,1,1,4,,,,,,,,,,,,,,,AMSA09.jpg,AMSA04.jpg,AMNE14.jpg,AMNE12.jpg,AMNE14.jpg,MN,1,num_2,16,num_2,1.00008948636,,,2017_Oct_25_1855,60.006986515,MAFE4ImagesEEG,001,201846,
AFNE01.JPG,AFNE01.JPG,AFNE01.JPG,AFNE01.JPG,AFNE01.JPG,AFNE01.JPG,,,,,,,,,0,2,2,5,,,,,,,,,,,,,,,AMSA17.jpg,AMSA12.jpg,AMNE05.jpg,AMNE12.jpg,AMNE05.jpg,MN,1,num_2,32,num_8,0.750108008971,,,2017_Oct_25_1855,60.006986515,MAFE4ImagesEEG,001,201846,
AFNE01.JPG,AFNE01.JPG,AFNE01.JPG,AFNE01.JPG,AFNE01.JPG,AFNE01.JPG,,,,,,,,,0,3,3,0,,,,,,,,,,,,,,,AMSA11.jpg,AMSA16.jpg,AMNE03.jpg,AMNE02.jpg,AMSA11.jpg,MS,2,num_8,32,num_4,0.683446153416,,,2017_Oct_25_1855,60.006986515,MAFE4ImagesEEG,001,201846,
AFNE01.JPG,AFNE01.JPG,AFNE01.JPG,AFNE01.JPG,AFNE01.JPG,AFNE01.JPG,,,,,,,,,0,4,4,1,,,,,,,,,,,,,,,AMNE03.jpg,AMSA19.jpg,AMNE06.jpg,AMSA04.jpg,AMNE03.jpg,MN,1,num_8,32,num_6,0.716786703444,,,2017_Oct_25_1855,60.006986515,MAFE4ImagesEEG,001,201846,
AFNE01.JPG,AFNE01.JPG,AFNE01.JPG,AFNE01.JPG,AFNE01.JPG,AFNE01.JPG,,,,,,,,,0,5,5,6,,,,,,,,,,,,,,,AMSA08.jpg,AMNE02.jpg,AMSA05.jpg,AMNE15.jpg,AMSA05.jpg,MS,2,num_2,32,num_8,0.933427951415,,,2017_Oct_25_1855,60.006986515,MAFE4ImagesEEG,001,201846,
AFNE01.JPG,AFNE01.JPG,AFNE01.JPG,AFNE01.JPG,AFNE01.JPG,AFNE01.JPG,,,,,,,,,0,6,6,3,,,,,,,,,,,,,,,AMSA16.jpg,AMNE07.jpg,AMSA19.jpg,AMNE06.jpg,AMNE07.jpg,MN,1,num_6,32,num_4,0.833457940724,,,2017_Oct_25_1855,60.006986515,MAFE4ImagesEEG,001,201846,
AFNE01.JPG,AFNE01.JPG,AFNE01.JPG,AFNE01.JPG,AFNE01.JPG,AFNE01.JPG,,,,,,,,,0,7,7,2,,,,,,,,,,,,,,,AMNE08.jpg,AMSA09.jpg,AMNE15.jpg,AMSA03.jpg,AMSA03.jpg,MS,2,num_4,32,num_2,1.23348167539,,,2017_Oct_25_1855,60.006986515,MAFE4ImagesEEG,001,201846,
AFNE01.JPG,AFNE01.JPG,AFNE01.JPG,AFNE01.JPG,AFNE01.JPG,AFNE01.JPG,,,,,,,,,0,8,8,9,,,,,,,,,,,,,,,AMSA13.jpg,AMSA14.jpg,AMNE04.jpg,AMNE15.jpg,AMSA14.jpg,MS,2,num_6,32,num_4,2.91661190044,,,2017_Oct_25_1855,60.006986515,MAFE4ImagesEEG,001,201846,
AFNE01.JPG,AFNE01.JPG,AFNE01.JPG,AFNE01.JPG,AFNE01.JPG,AFNE01.JPG,,,,,,,,,0,9,9,8,,,,,,,,,,,,,,,AMSA04.jpg,AMNE01.jpg,AMNE16.jpg,AMSA19.jpg,AMSA04.jpg,MS,2,num_8,16,num_8,1.08375727071,,,2017_Oct_25_1855,60.006986515,MAFE4ImagesEEG,001,201846,
AFNE01.JPG,AFNE01.JPG,AFNE01.JPG,AFNE01.JPG,AFNE01.JPG,AFNE01.JPG,,,,,,,,,1,0,10,6,,,,,,,,,,,,,,,AMSA05.jpg,AMNE14.jpg,AMSA15.jpg,AMNE04.jpg,AMNE14.jpg,MN,1,num_6,16,num_6,0.733432762558,,,2017_Oct_25_1855,60.006986515,MAFE4ImagesEEG,001,201846,
AFNE01.JPG,AFNE01.JPG,AFNE01.JPG,AFNE01.JPG,AFNE01.JPG,AFNE01.JPG,,,,,,,,,1,1,11,7,,,,,,,,,,,,,,,AMNE12.jpg,AMSA20.jpg,AMSA09.jpg,AMNE15.jpg,AMNE15.jpg,MN,1,num_4,32,num_8,1.05008764204,,,2017_Oct_25_1855,60.006986515,MAFE4ImagesEEG,001,201846,
AFNE01.JPG,AFNE01.JPG,AFNE01.JPG,AFNE01.JPG,AFNE01.JPG,AFNE01.JPG,,,,,,,,,1,2,12,9,,,,,,,,,,,,,,,AMSA14.jpg,AMNE07.jpg,AMSA07.jpg,AMNE09.jpg,AMSA07.jpg,MS,2,num_2,16,num_2,1.11678542045,,,2017_Oct_25_1855,60.006986515,MAFE4ImagesEEG,001,201846,
AFNE01.JPG,AFNE01.JPG,AFNE01.JPG,AFNE01.JPG,AFNE01.JPG,AFNE01.JPG,,,,,,,,,1,3,13,5,,,,,,,,,,,,,,,AMSA03.jpg,AMNE20.jpg,AMNE15.jpg,AMSA14.jpg,AMNE15.jpg,MN,1,num_2,32,num_8,0.95013270597,,,2017_Oct_25_1855,60.006986515,MAFE4ImagesEEG,001,201846,
AFNE01.JPG,AFNE01.JPG,AFNE01.JPG,AFNE01.JPG,AFNE01.JPG,AFNE01.JPG,,,,,,,,,1,4,14,2,,,,,,,,,,,,,,,AMSA13.jpg,AMNE19.jpg,AMNE20.jpg,AMSA16.jpg,AMNE20.jpg,MN,1,num_2,32,num_8,0.916776119033,,,2017_Oct_25_1855,60.006986515,MAFE4ImagesEEG,001,201846,
AFNE01.JPG,AFNE01.JPG,AFNE01.JPG,AFNE01.JPG,AFNE01.JPG,AFNE01.JPG,,,,,,,,,1,5,15,8,,,,,,,,,,,,,,,AMNE01.jpg,AMSA09.jpg,AMSA16.jpg,AMNE07.jpg,AMSA16.jpg,MS,2,num_2,32,num_8,0.933440781082,,,2017_Oct_25_1855,60.006986515,MAFE4ImagesEEG,001,201846,
AFNE01.JPG,AFNE01.JPG,AFNE01.JPG,AFNE01.JPG,AFNE01.JPG,AFNE01.JPG,,,,,,,,,1,6,16,3,,,,,,,,,,,,,,,AMSA09.jpg,AMNE09.jpg,AMNE02.jpg,AMSA11.jpg,AMNE02.jpg,MN,1,num_2,32,num_4,0.983431880595,,,2017_Oct_25_1855,60.006986515,MAFE4ImagesEEG,001,201846,
AFNE01.JPG,AFNE01.JPG,AFNE01.JPG,AFNE01.JPG,AFNE01.JPG,AFNE01.JPG,,,,,,,,,1,7,17,0,,,,,,,,,,,,,,,AMNE06.jpg,AMSA04.jpg,AMNE04.jpg,AMSA15.jpg,AMNE06.jpg,MN,1,num_8,16,num_8,1.01631409372,,,2017_Oct_25_1855,60.006986515,MAFE4ImagesEEG,001,201846,
AFNE01.JPG,AFNE01.JPG,AFNE01.JPG,AFNE01.JPG,AFNE01.JPG,AFNE01.JPG,,,,,,,,,1,8,18,1,,,,,,,,,,,,,,,AMNE11.jpg,AMSA02.jpg,AMNE04.jpg,AMSA01.jpg,AMSA02.jpg,MS,2,num_6,32,num_2,0.833460185793,,,2017_Oct_25_1855,60.006986515,MAFE4ImagesEEG,001,201846,
AFNE01.JPG,AFNE01.JPG,AFNE01.JPG,AFNE01.JPG,AFNE01.JPG,AFNE01.JPG,,,,,,,,,1,9,19,4,,,,,,,,,,,,,,,AMSA16.jpg,AMNE06.jpg,AMSA14.jpg,AMNE08.jpg,AMNE06.jpg,MN,1,num_6,32,num_8,1.35008940613,,,2017_Oct_25_1855,60.006986515,MAFE4ImagesEEG,001,201846,
AFNE01.JPG,AFNE01.JPG,AFNE01.JPG,AFNE01.JPG,AFNE01.JPG,AFNE01.JPG,,,,,,,,,2,0,20,1,,,,,,,,,,,,,,,AMSA03.jpg,AMNE15.jpg,AMNE12.jpg,AMSA14.jpg,AMSA14.jpg,MS,2,num_4,16,num_4,1.06678405742,,,2017_Oct_25_1855,60.006986515,MAFE4ImagesEEG,001,201846,
AFNE01.JPG,AFNE01.JPG,AFNE01.JPG,AFNE01.JPG,AFNE01.JPG,AFNE01.JPG,,,,,,,,,2,1,21,2,,,,,,,,,,,,,,,AMNE01.jpg,AMNE16.jpg,AMSA15.jpg,AMSA10.jpg,AMNE01.jpg,MN,1,num_8,32,num_6,0.950139762252,,,2017_Oct_25_1855,60.006986515,MAFE4ImagesEEG,001,201846,
AFNE01.JPG,AFNE01.JPG,AFNE01.JPG,AFNE01.JPG,AFNE01.JPG,AFNE01.JPG,,,,,,,,,2,2,22,5,,,,,,,,,,,,,,,AMSA04.jpg,AMNE10.jpg,AMSA02.jpg,AMNE11.jpg,AMSA04.jpg,MS,2,num_8,16,num_8,1.06675775675,,,2017_Oct_25_1855,60.006986515,MAFE4ImagesEEG,001,201846,
AFNE01.JPG,AFNE01.JPG,AFNE01.JPG,AFNE01.JPG,AFNE01.JPG,AFNE01.JPG,,,,,,,,,2,3,23,7,,,,,,,,,,,,,,,AMSA11.jpg,AMNE02.jpg,AMNE08.jpg,AMSA15.jpg,AMNE08.jpg,MN,1,num_2,32,num_6,1.35008876468,,,2017_Oct_25_1855,60.006986515,MAFE4ImagesEEG,001,201846,
AFNE01.JPG,AFNE01.JPG,AFNE01.JPG,AFNE01.JPG,AFNE01.JPG,AFNE01.JPG,,,,,,,,,2,4,24,8,,,,,,,,,,,,,,,AMSA07.jpg,AMNE09.jpg,AMSA09.jpg,AMNE19.jpg,AMSA09.jpg,MS,2,num_2,32,num_4,1.41709413228,,,2017_Oct_25_1855,60.006986515,MAFE4ImagesEEG,001,201846,
AFNE01.JPG,AFNE01.JPG,AFNE01.JPG,AFNE01.JPG,AFNE01.JPG,AFNE01.JPG,,,,,,,,,2,5,25,4,,,,,,,,,,,,,,,AMSA12.jpg,AMNE15.jpg,AMNE16.jpg,AMSA20.jpg,AMNE15.jpg,MN,1,num_6,32,num_8,1.16659433988,,,2017_Oct_25_1855,60.006986515,MAFE4ImagesEEG,001,201846,
AFNE01.JPG,AFNE01.JPG,AFNE01.JPG,AFNE01.JPG,AFNE01.JPG,AFNE01.JPG,,,,,,,,,2,6,26,9,,,,,,,,,,,,,,,AMNE10.jpg,AMSA16.jpg,AMNE09.jpg,AMSA18.jpg,AMNE10.jpg,MN,1,num_8,32,num_6,1.55008908536,,,2017_Oct_25_1855,60.006986515,MAFE4ImagesEEG,001,201846,
AFNE01.JPG,AFNE01.JPG,AFNE01.JPG,AFNE01.JPG,AFNE01.JPG,AFNE01.JPG,,,,,,,,,2,7,27,6,,,,,,,,,,,,,,,AMSA12.jpg,AMNE05.jpg,AMSA08.jpg,AMNE14.jpg,AMNE05.jpg,MN,1,num_6,32,num_8,1.15009710379,,,2017_Oct_25_1855,60.006986515,MAFE4ImagesEEG,001,201846,
AFNE01.JPG,AFNE01.JPG,AFNE01.JPG,AFNE01.JPG,AFNE01.JPG,AFNE01.JPG,,,,,,,,,2,8,28,0,,,,,,,,,,,,,,,AMSA01.jpg,AMNE04.jpg,AMNE01.jpg,AMSA17.jpg,AMSA17.jpg,MS,2,num_4,32,num_2,0.733488891972,,,2017_Oct_25_1855,60.006986515,MAFE4ImagesEEG,001,201846,
AFNE01.JPG,AFNE01.JPG,AFNE01.JPG,AFNE01.JPG,AFNE01.JPG,AFNE01.JPG,,,,,,,,,2,9,29,3,,,,,,,,,,,,,,,AMSA10.jpg,AMNE20.jpg,AMNE18.jpg,AMSA01.jpg,AMSA10.jpg,MS,2,num_8,32,num_6,1.26678052917,,,2017_Oct_25_1855,60.006986515,MAFE4ImagesEEG,001,201846,
AFNE01.JPG,AFNE01.JPG,AFNE01.JPG,AFNE01.JPG,AFNE01.JPG,AFNE01.JPG,,,,,,,,,3,0,30,2,,,,,,,,,,,,,,,AMSA19.jpg,AMNE01.jpg,AMNE12.jpg,AMSA08.jpg,AMSA19.jpg,MS,2,num_8,16,num_8,3.23356667138,,,2017_Oct_25_1855,60.006986515,MAFE4ImagesEEG,001,201846,
AFNE01.JPG,AFNE01.JPG,AFNE01.JPG,AFNE01.JPG,AFNE01.JPG,AFNE01.JPG,,,,,,,,,3,1,31,5,,,,,,,,,,,,,,,AMNE08.jpg,AMSA09.jpg,AMNE14.jpg,AMSA05.jpg,AMSA05.jpg,MS,2,num_4,32,num_8,1.45006326586,,,2017_Oct_25_1855,60.006986515,MAFE4ImagesEEG,001,201846,
AFNE01.JPG,AFNE01.JPG,AFNE01.JPG,AFNE01.JPG,AFNE01.JPG,AFNE01.JPG,,,,,,,,,3,2,32,3,,,,,,,,,,,,,,,AMSA08.jpg,AMNE13.jpg,AMSA06.jpg,AMNE18.jpg,AMSA08.jpg,MS,2,num_8,16,num_8,1.56675695488,,,2017_Oct_25_1855,60.006986515,MAFE4ImagesEEG,001,201846,
AFNE01.JPG,AFNE01.JPG,AFNE01.JPG,AFNE01.JPG,AFNE01.JPG,AFNE01.JPG,,,,,,,,,3,3,33,4,,,,,,,,,,,,,,,AMSA06.jpg,AMNE19.jpg,AMNE10.jpg,AMSA02.jpg,AMNE19.jpg,MN,1,num_6,32,num_2,2.56663507374,,,2017_Oct_25_1855,60.006986515,MAFE4ImagesEEG,001,201846,
AFNE01.JPG,AFNE01.JPG,AFNE01.JPG,AFNE01.JPG,AFNE01.JPG,AFNE01.JPG,,,,,,,,,3,4,34,0,,,,,,,,,,,,,,,AMSA13.jpg,AMNE03.jpg,AMSA17.jpg,AMNE17.jpg,AMNE17.jpg,MN,1,num_4,32,num_2,1.56666907214,,,2017_Oct_25_1855,60.006986515,MAFE4ImagesEEG,001,201846,
AFNE01.JPG,AFNE01.JPG,AFNE01.JPG,AFNE01.JPG,AFNE01.JPG,AFNE01.JPG,,,,,,,,,3,5,35,6,,,,,,,,,,,,,,,AMNE04.jpg,AMSA15.jpg,AMNE16.jpg,AMSA17.jpg,AMSA15.jpg,MS,2,num_6,32,num_8,0.983472935157,,,2017_Oct_25_1855,60.006986515,MAFE4ImagesEEG,001,201846,
AFNE01.JPG,AFNE01.JPG,AFNE01.JPG,AFNE01.JPG,AFNE01.JPG,AFNE01.JPG,,,,,,,,,3,6,36,9,,,,,,,,,,,,,,,AMSA13.jpg,AMSA20.jpg,AMNE11.jpg,AMNE20.jpg,AMSA13.jpg,MS,2,num_8,32,num_4,1.23339603795,,,2017_Oct_25_1855,60.006986515,MAFE4ImagesEEG,001,201846,
AFNE01.JPG,AFNE01.JPG,AFNE01.JPG,AFNE01.JPG,AFNE01.JPG,AFNE01.JPG,,,,,,,,,3,7,37,1,,,,,,,,,,,,,,,AMNE13.jpg,AMNE05.jpg,AMSA13.jpg,AMSA08.jpg,AMSA08.jpg,MS,2,num_4,32,num_2,1.10008451494,,,2017_Oct_25_1855,60.006986515,MAFE4ImagesEEG,001,201846,
AFNE01.JPG,AFNE01.JPG,AFNE01.JPG,AFNE01.JPG,AFNE01.JPG,AFNE01.JPG,,,,,,,,,3,8,38,7,,,,,,,,,,,,,,,AMSA05.jpg,AMNE15.jpg,AMNE08.jpg,AMSA01.jpg,AMNE08.jpg,MN,1,num_2,16,num_2,1.51677194948,,,2017_Oct_25_1855,60.006986515,MAFE4ImagesEEG,001,201846,
AFNE01.JPG,AFNE01.JPG,AFNE01.JPG,AFNE01.JPG,AFNE01.JPG,AFNE01.JPG,,,,,,,,,3,9,39,8,,,,,,,,,,,,,,,AMNE07.jpg,AMNE04.jpg,AMSA01.jpg,AMSA19.jpg,AMSA01.jpg,MS,2,num_2,32,num_4,1.08343011653,,,2017_Oct_25_1855,60.006986515,MAFE4ImagesEEG,001,201846,
AFNE01.JPG,AFNE01.JPG,AFNE01.JPG,AFNE01.JPG,AFNE01.JPG,AFNE01.JPG,,,,,,,,,4,0,40,5,,,,,,,,,,,,,,,AMSA15.jpg,AMNE11.jpg,AMNE05.jpg,AMSA20.jpg,AMNE05.jpg,MN,1,num_2,32,num_8,1.05008539686,,,2017_Oct_25_1855,60.006986515,MAFE4ImagesEEG,001,201846,
AFNE01.JPG,AFNE01.JPG,AFNE01.JPG,AFNE01.JPG,AFNE01.JPG,AFNE01.JPG,,,,,,,,,4,1,41,0,,,,,,,,,,,,,,,AMSA09.jpg,AMSA15.jpg,AMNE04.jpg,AMNE03.jpg,AMNE04.jpg,MN,1,num_2,16,num_2,1.35011602752,,,2017_Oct_25_1855,60.006986515,MAFE4ImagesEEG,001,201846,
AFNE01.JPG,AFNE01.JPG,AFNE01.JPG,AFNE01.JPG,AFNE01.JPG,AFNE01.JPG,,,,,,,,,4,2,42,2,,,,,,,,,,,,,,,AMNE01.jpg,AMSA18.jpg,AMNE16.jpg,AMSA03.jpg,AMNE16.jpg,MN,1,num_2,32,num_4,1.25015082769,,,2017_Oct_25_1855,60.006986515,MAFE4ImagesEEG,001,201846,
AFNE01.JPG,AFNE01.JPG,AFNE01.JPG,AFNE01.JPG,AFNE01.JPG,AFNE01.JPG,,,,,,,,,4,3,43,8,,,,,,,,,,,,,,,AMSA18.jpg,AMSA02.jpg,AMNE03.jpg,AMNE13.jpg,AMNE03.jpg,MN,1,num_2,32,num_6,1.1167312155,,,2017_Oct_25_1855,60.006986515,MAFE4ImagesEEG,001,201846,
AFNE01.JPG,AFNE01.JPG,AFNE01.JPG,AFNE01.JPG,AFNE01.JPG,AFNE01.JPG,,,,,,,,,4,4,44,3,,,,,,,,,,,,,,,AMNE11.jpg,AMSA02.jpg,AMSA11.jpg,AMNE05.jpg,AMSA11.jpg,MS,2,num_2,32,num_8,0.967123880866,,,2017_Oct_25_1855,60.006986515,MAFE4ImagesEEG,001,201846,
AFNE01.JPG,AFNE01.JPG,AFNE01.JPG,AFNE01.JPG,AFNE01.JPG,AFNE01.JPG,,,,,,,,,4,5,45,7,,,,,,,,,,,,,,,AMSA03.jpg,AMNE17.jpg,AMNE16.jpg,AMSA04.jpg,AMSA03.jpg,MS,2,num_8,32,num_2,1.03341239563,,,2017_Oct_25_1855,60.006986515,MAFE4ImagesEEG,001,201846,
AFNE01.JPG,AFNE01.JPG,AFNE01.JPG,AFNE01.JPG,AFNE01.JPG,AFNE01.JPG,,,,,,,,,4,6,46,6,,,,,,,,,,,,,,,AMNE15.jpg,AMSA01.jpg,AMSA11.jpg,AMNE12.jpg,AMNE12.jpg,MN,1,num_4,16,num_4,1.10012685251,,,2017_Oct_25_1855,60.006986515,MAFE4ImagesEEG,001,201846,
AFNE01.JPG,AFNE01.JPG,AFNE01.JPG,AFNE01.JPG,AFNE01.JPG,AFNE01.JPG,,,,,,,,,4,7,47,1,,,,,,,,,,,,,,,AMNE16.jpg,AMNE14.jpg,AMSA09.jpg,AMSA20.jpg,AMNE14.jpg,MN,1,num_6,16,num_6,1.1667088439,,,2017_Oct_25_1855,60.006986515,MAFE4ImagesEEG,001,201846,
AFNE01.JPG,AFNE01.JPG,AFNE01.JPG,AFNE01.JPG,AFNE01.JPG,AFNE01.JPG,,,,,,,,,4,8,48,9,,,,,,,,,,,,,,,AMNE15.jpg,AMSA20.jpg,AMSA14.jpg,AMNE14.jpg,AMSA14.jpg,MS,2,num_2,32,num_8,1.19979825488,,,2017_Oct_25_1855,60.006986515,MAFE4ImagesEEG,001,201846,
AFNE01.JPG,AFNE01.JPG,AFNE01.JPG,AFNE01.JPG,AFNE01.JPG,AFNE01.JPG,,,,,,,,,4,9,49,4,,,,,,,,,,,,,,,AMSA10.jpg,AMNE19.jpg,AMNE08.jpg,AMSA20.jpg,AMSA20.jpg,MS,2,num_4,16,num_4,1.11682775815,,,2017_Oct_25_1855,60.006986515,MAFE4ImagesEEG,001,201846,
AFNE01.JPG,AFNE01.JPG,AFNE01.JPG,AFNE01.JPG,AFNE01.JPG,AFNE01.JPG,,,,,,,,,5,0,50,2,,,,,,,,,,,,,,,AMSA13.jpg,AMNE02.jpg,AMNE19.jpg,AMSA05.jpg,AMSA05.jpg,MS,2,num_4,32,num_6,0.900149625028,,,2017_Oct_25_1855,60.006986515,MAFE4ImagesEEG,001,201846,
AFNE01.JPG,AFNE01.JPG,AFNE01.JPG,AFNE01.JPG,AFNE01.JPG,AFNE01.JPG,,,,,,,,,5,1,51,4,,,,,,,,,,,,,,,AMNE01.jpg,AMNE17.jpg,AMSA05.jpg,AMSA17.jpg,AMSA05.jpg,MS,2,num_2,32,num_8,1.10044662969,,,2017_Oct_25_1855,60.006986515,MAFE4ImagesEEG,001,201846,
AFNE01.JPG,AFNE01.JPG,AFNE01.JPG,AFNE01.JPG,AFNE01.JPG,AFNE01.JPG,,,,,,,,,5,2,52,9,,,,,,,,,,,,,,,AMNE18.jpg,AMSA13.jpg,AMNE02.jpg,AMSA02.jpg,AMSA13.jpg,MS,2,num_6,16,num_6,1.06672407896,,,2017_Oct_25_1855,60.006986515,MAFE4ImagesEEG,001,201846,
AFNE01.JPG,AFNE01.JPG,AFNE01.JPG,AFNE01.JPG,AFNE01.JPG,AFNE01.JPG,,,,,,,,,5,3,53,6,,,,,,,,,,,,,,,AMSA19.jpg,AMSA20.jpg,AMNE11.jpg,AMNE04.jpg,AMNE04.jpg,MN,1,num_4,32,num_2,1.11676008208,,,2017_Oct_25_1855,60.006986515,MAFE4ImagesEEG,001,201846,
AFNE01.JPG,AFNE01.JPG,AFNE01.JPG,AFNE01.JPG,AFNE01.JPG,AFNE01.JPG,,,,,,,,,5,4,54,7,,,,,,,,,,,,,,,AMSA01.jpg,AMNE06.jpg,AMNE17.jpg,AMSA16.jpg,AMSA01.jpg,MS,2,num_8,16,num_8,0.716759761213,,,2017_Oct_25_1855,60.006986515,MAFE4ImagesEEG,001,201846,
AFNE01.JPG,AFNE01.JPG,AFNE01.JPG,AFNE01.JPG,AFNE01.JPG,AFNE01.JPG,,,,,,,,,5,5,55,5,,,,,,,,,,,,,,,AMSA01.jpg,AMNE11.jpg,AMNE02.jpg,AMSA11.jpg,AMSA01.jpg,MS,2,num_8,16,num_8,0.633477505762,,,2017_Oct_25_1855,60.006986515,MAFE4ImagesEEG,001,201846,
AFNE01.JPG,AFNE01.JPG,AFNE01.JPG,AFNE01.JPG,AFNE01.JPG,AFNE01.JPG,,,,,,,,,5,6,56,0,,,,,,,,,,,,,,,AMSA13.jpg,AMNE18.jpg,AMSA02.jpg,AMNE07.jpg,AMSA13.jpg,MS,2,num_8,32,num_4,1.31678766559,,,2017_Oct_25_1855,60.006986515,MAFE4ImagesEEG,001,201846,
AFNE01.JPG,AFNE01.JPG,AFNE01.JPG,AFNE01.JPG,AFNE01.JPG,AFNE01.JPG,,,,,,,,,5,7,57,8,,,,,,,,,,,,,,,AMSA13.jpg,AMNE20.jpg,AMSA15.jpg,AMNE03.jpg,AMSA15.jpg,MS,2,num_2,32,num_6,0.966766897705,,,2017_Oct_25_1855,60.006986515,MAFE4ImagesEEG,001,201846,
AFNE01.JPG,AFNE01.JPG,AFNE01.JPG,AFNE01.JPG,AFNE01.JPG,AFNE01.JPG,,,,,,,,,5,8,58,1,,,,,,,,,,,,,,,AMNE12.jpg,AMSA01.jpg,AMNE05.jpg,AMSA14.jpg,AMSA14.jpg,MS,2,num_4,16,num_4,1.13345521444,,,2017_Oct_25_1855,60.006986515,MAFE4ImagesEEG,001,201846,
AFNE01.JPG,AFNE01.JPG,AFNE01.JPG,AFNE01.JPG,AFNE01.JPG,AFNE01.JPG,,,,,,,,,5,9,59,3,,,,,,,,,,,,,,,AMNE06.jpg,AMSA12.jpg,AMNE20.jpg,AMSA09.jpg,AMSA12.jpg,MS,2,num_6,32,num_2,1.71639796707,,,2017_Oct_25_1855,60.006986515,MAFE4ImagesEEG,001,201846,
,,,,,,,,,,,,,,,,,,,,,,,,,,,,,,,,,,,,,,,,,,,space,23.8819078868,2017_Oct_25_1855,60.006986515,MAFE4ImagesEEG,001,201846,
AFNE01.JPG,AFNE01.JPG,AFNE01.JPG,AFNE01.JPG,AFNE01.JPG,AFNE01.JPG,,,,,,,,,,,,,0,0,0,8,,,,,,,,,,,AFSA12.jpg,AFNE18.jpg,AFNE04.jpg,AFSA18.jpg,AFSA12.jpg,FS,4,num_8,16,num_8,0.683493302087,,,2017_Oct_25_1855,60.006986515,MAFE4ImagesEEG,001,201846,
AFNE01.JPG,AFNE01.JPG,AFNE01.JPG,AFNE01.JPG,AFNE01.JPG,AFNE01.JPG,,,,,,,,,,,,,0,1,1,9,,,,,,,,,,,AFNE01.jpg,AFNE11.jpg,AFSA13.jpg,AFSA17.jpg,AFNE11.jpg,FN,3,num_6,32,num_4,0.800166142988,,,2017_Oct_25_1855,60.006986515,MAFE4ImagesEEG,001,201846,
AFNE01.JPG,AFNE01.JPG,AFNE01.JPG,AFNE01.JPG,AFNE01.JPG,AFNE01.JPG,,,,,,,,,,,,,0,2,2,3,,,,,,,,,,,AFNE13.jpg,AFSA09.jpg,AFSA18.jpg,AFNE10.jpg,AFNE13.jpg,FN,3,num_8,32,num_2,0.950157723622,,,2017_Oct_25_1855,60.006986515,MAFE4ImagesEEG,001,201846,
AFNE01.JPG,AFNE01.JPG,AFNE01.JPG,AFNE01.JPG,AFNE01.JPG,AFNE01.JPG,,,,,,,,,,,,,0,3,3,6,,,,,,,,,,,AFSA13.jpg,AFNE11.jpg,AFNE03.jpg,AFSA14.jpg,AFSA13.jpg,FS,4,num_8,16,num_8,0.333588962676,,,2017_Oct_25_1855,60.006986515,MAFE4ImagesEEG,001,201846,
AFNE01.JPG,AFNE01.JPG,AFNE01.JPG,AFNE01.JPG,AFNE01.JPG,AFNE01.JPG,,,,,,,,,,,,,0,4,4,5,,,,,,,,,,,AFSA04.jpg,AFNE09.jpg,AFSA06.jpg,AFNE20.jpg,AFNE20.jpg,FN,3,num_4,32,num_6,0.43354004994,,,2017_Oct_25_1855,60.006986515,MAFE4ImagesEEG,001,201846,
AFNE01.JPG,AFNE01.JPG,AFNE01.JPG,AFNE01.JPG,AFNE01.JPG,AFNE01.JPG,,,,,,,,,,,,,0,5,5,7,,,,,,,,,,,AFNE05.jpg,AFSA01.jpg,AFNE10.jpg,AFSA11.jpg,AFNE05.jpg,FN,3,num_8,32,num_2,0.699851337238,,,2017_Oct_25_1855,60.006986515,MAFE4ImagesEEG,001,201846,
AFNE01.JPG,AFNE01.JPG,AFNE01.JPG,AFNE01.JPG,AFNE01.JPG,AFNE01.JPG,,,,,,,,,,,,,0,6,6,0,,,,,,,,,,,AFNE07.jpg,AFSA05.jpg,AFNE18.jpg,AFSA13.jpg,AFSA13.jpg,FS,4,num_4,16,num_4,0.983416164294,,,2017_Oct_25_1855,60.006986515,MAFE4ImagesEEG,001,201846,
AFNE01.JPG,AFNE01.JPG,AFNE01.JPG,AFNE01.JPG,AFNE01.JPG,AFNE01.JPG,,,,,,,,,,,,,0,7,7,4,,,,,,,,,,,AFNE15.jpg,AFSA17.jpg,AFSA04.jpg,AFNE07.jpg,AFNE15.jpg,FN,3,num_8,16,num_8,1.38341744721,,,2017_Oct_25_1855,60.006986515,MAFE4ImagesEEG,001,201846,
AFNE01.JPG,AFNE01.JPG,AFNE01.JPG,AFNE01.JPG,AFNE01.JPG,AFNE01.JPG,,,,,,,,,,,,,0,8,8,2,,,,,,,,,,,AFNE14.jpg,AFNE04.jpg,AFSA13.jpg,AFSA03.jpg,AFNE04.jpg,FN,3,num_6,32,num_8,2.21692670614,,,2017_Oct_25_1855,60.006986515,MAFE4ImagesEEG,001,201846,
AFNE01.JPG,AFNE01.JPG,AFNE01.JPG,AFNE01.JPG,AFNE01.JPG,AFNE01.JPG,,,,,,,,,,,,,0,9,9,1,,,,,,,,,,,AFNE12.jpg,AFNE06.jpg,AFSA01.jpg,AFSA09.jpg,AFSA09.jpg,FS,4,num_4,32,num_6,1.30013583321,,,2017_Oct_25_1855,60.006986515,MAFE4ImagesEEG,001,201846,
AFNE01.JPG,AFNE01.JPG,AFNE01.JPG,AFNE01.JPG,AFNE01.JPG,AFNE01.JPG,,,,,,,,,,,,,1,0,10,6,,,,,,,,,,,AFSA03.jpg,AFSA04.jpg,AFNE12.jpg,AFNE01.jpg,AFNE12.jpg,FN,3,num_2,16,num_2,0.983483198914,,,2017_Oct_25_1855,60.006986515,MAFE4ImagesEEG,001,201846,
AFNE01.JPG,AFNE01.JPG,AFNE01.JPG,AFNE01.JPG,AFNE01.JPG,AFNE01.JPG,,,,,,,,,,,,,1,1,11,4,,,,,,,,,,,AFSA15.jpg,AFNE11.jpg,AFNE20.jpg,AFSA02.jpg,AFSA02.jpg,FS,4,num_4,16,num_4,1.23340566002,,,2017_Oct_25_1855,60.006986515,MAFE4ImagesEEG,001,201846,
AFNE01.JPG,AFNE01.JPG,AFNE01.JPG,AFNE01.JPG,AFNE01.JPG,AFNE01.JPG,,,,,,,,,,,,,1,2,12,1,,,,,,,,,,,AFNE16.jpg,AFSA10.jpg,AFSA11.jpg,AFNE06.jpg,AFSA11.jpg,FS,4,num_2,32,num_6,1.86669617472,,,2017_Oct_25_1855,60.006986515,MAFE4ImagesEEG,001,201846,
AFNE01.JPG,AFNE01.JPG,AFNE01.JPG,AFNE01.JPG,AFNE01.JPG,AFNE01.JPG,,,,,,,,,,,,,1,3,13,0,,,,,,,,,,,AFSA03.jpg,AFSA14.jpg,AFNE08.jpg,AFNE20.jpg,AFSA03.jpg,FS,4,num_8,16,num_8,1.90006110095,,,2017_Oct_25_1855,60.006986515,MAFE4ImagesEEG,001,201846,
AFNE01.JPG,AFNE01.JPG,AFNE01.JPG,AFNE01.JPG,AFNE01.JPG,AFNE01.JPG,,,,,,,,,,,,,1,4,14,9,,,,,,,,,,,AFNE17.jpg,AFNE04.jpg,AFSA18.jpg,AFSA20.jpg,AFNE17.jpg,FN,3,num_8,32,num_4,1.06660668831,,,2017_Oct_25_1855,60.006986515,MAFE4ImagesEEG,001,201846,
AFNE01.JPG,AFNE01.JPG,AFNE01.JPG,AFNE01.JPG,AFNE01.JPG,AFNE01.JPG,,,,,,,,,,,,,1,5,15,5,,,,,,,,,,,AFSA03.jpg,AFSA12.jpg,AFNE10.jpg,AFNE17.jpg,AFSA12.jpg,FS,4,num_6,32,num_2,1.21678526013,,,2017_Oct_25_1855,60.006986515,MAFE4ImagesEEG,001,201846,
AFNE01.JPG,AFNE01.JPG,AFNE01.JPG,AFNE01.JPG,AFNE01.JPG,AFNE01.JPG,,,,,,,,,,,,,1,6,16,7,,,,,,,,,,,AFNE17.jpg,AFSA05.jpg,AFNE11.jpg,AFSA20.jpg,AFNE11.jpg,FN,3,num_2,32,num_4,2.00002341403,,,2017_Oct_25_1855,60.006986515,MAFE4ImagesEEG,001,201846,
AFNE01.JPG,AFNE01.JPG,AFNE01.JPG,AFNE01.JPG,AFNE01.JPG,AFNE01.JPG,,,,,,,,,,,,,1,7,17,8,,,,,,,,,,,AFSA14.jpg,AFSA15.jpg,AFNE06.jpg,AFNE07.jpg,AFSA14.jpg,FS,4,num_8,32,num_6,1.63328249613,,,2017_Oct_25_1855,60.006986515,MAFE4ImagesEEG,001,201846,
AFNE01.JPG,AFNE01.JPG,AFNE01.JPG,AFNE01.JPG,AFNE01.JPG,AFNE01.JPG,,,,,,,,,,,,,1,8,18,2,,,,,,,,,,,AFNE13.jpg,AFSA15.jpg,AFSA06.jpg,AFNE05.jpg,AFNE13.jpg,FN,3,num_8,16,num_8,1.20005324273,,,2017_Oct_25_1855,60.006986515,MAFE4ImagesEEG,001,201846,
AFNE01.JPG,AFNE01.JPG,AFNE01.JPG,AFNE01.JPG,AFNE01.JPG,AFNE01.JPG,,,,,,,,,,,,,1,9,19,3,,,,,,,,,,,AFSA20.jpg,AFNE09.jpg,AFNE15.jpg,AFSA14.jpg,AFSA14.jpg,FS,4,num_4,16,num_4,1.51671197114,,,2017_Oct_25_1855,60.006986515,MAFE4ImagesEEG,001,201846,
AFNE01.JPG,AFNE01.JPG,AFNE01.JPG,AFNE01.JPG,AFNE01.JPG,AFNE01.JPG,,,,,,,,,,,,,2,0,20,2,,,,,,,,,,,AFNE01.jpg,AFSA16.jpg,AFNE19.jpg,AFSA15.jpg,AFSA16.jpg,FS,4,num_6,16,num_6,1.63338481204,,,2017_Oct_25_1855,60.006986515,MAFE4ImagesEEG,001,201846,
AFNE01.JPG,AFNE01.JPG,AFNE01.JPG,AFNE01.JPG,AFNE01.JPG,AFNE01.JPG,,,,,,,,,,,,,2,1,21,9,,,,,,,,,,,AFSA20.jpg,AFNE16.jpg,AFNE18.jpg,AFSA16.jpg,AFNE18.jpg,FN,3,num_2,16,num_2,1.21676473273,,,2017_Oct_25_1855,60.006986515,MAFE4ImagesEEG,001,201846,
AFNE01.JPG,AFNE01.JPG,AFNE01.JPG,AFNE01.JPG,AFNE01.JPG,AFNE01.JPG,,,,,,,,,,,,,2,2,22,1,,,,,,,,,,,AFSA06.jpg,AFSA04.jpg,AFNE03.jpg,AFNE07.jpg,AFNE03.jpg,FN,3,num_2,32,num_8,1.50005019573,,,2017_Oct_25_1855,60.006986515,MAFE4ImagesEEG,001,201846,
AFNE01.JPG,AFNE01.JPG,AFNE01.JPG,AFNE01.JPG,AFNE01.JPG,AFNE01.JPG,,,,,,,,,,,,,2,3,23,0,,,,,,,,,,,AFNE06.jpg,AFSA08.jpg,AFNE17.jpg,AFSA07.jpg,AFSA07.jpg,FS,4,num_4,16,num_4,0.933466119459,,,2017_Oct_25_1855,60.006986515,MAFE4ImagesEEG,001,201846,
AFNE01.JPG,AFNE01.JPG,AFNE01.JPG,AFNE01.JPG,AFNE01.JPG,AFNE01.JPG,,,,,,,,,,,,,2,4,24,5,,,,,,,,,,,AFNE09.jpg,AFSA13.jpg,AFSA12.jpg,AFNE20.jpg,AFNE20.jpg,FN,3,num_4,32,num_2,1.38344823825,,,2017_Oct_25_1855,60.006986515,MAFE4ImagesEEG,001,201846,
AFNE01.JPG,AFNE01.JPG,AFNE01.JPG,AFNE01.JPG,AFNE01.JPG,AFNE01.JPG,,,,,,,,,,,,,2,5,25,3,,,,,,,,,,,AFSA04.jpg,AFNE08.jpg,AFSA08.jpg,AFNE14.jpg,AFSA08.jpg,FS,4,num_2,32,num_6,1.36676818074,,,2017_Oct_25_1855,60.006986515,MAFE4ImagesEEG,001,201846,
AFNE01.JPG,AFNE01.JPG,AFNE01.JPG,AFNE01.JPG,AFNE01.JPG,AFNE01.JPG,,,,,,,,,,,,,2,6,26,8,,,,,,,,,,,AFNE15.jpg,AFSA02.jpg,AFSA10.jpg,AFNE14.jpg,AFNE15.jpg,FN,3,num_8,16,num_8,1.04988782143,,,2017_Oct_25_1855,60.006986515,MAFE4ImagesEEG,001,201846,
AFNE01.JPG,AFNE01.JPG,AFNE01.JPG,AFNE01.JPG,AFNE01.JPG,AFNE01.JPG,,,,,,,,,,,,,2,7,27,6,,,,,,,,,,,AFSA02.jpg,AFNE02.jpg,AFSA08.jpg,AFNE20.jpg,AFNE02.jpg,FN,3,num_6,32,num_4,1.78334079054,,,2017_Oct_25_1855,60.006986515,MAFE4ImagesEEG,001,201846,
AFNE01.JPG,AFNE01.JPG,AFNE01.JPG,AFNE01.JPG,AFNE01.JPG,AFNE01.JPG,,,,,,,,,,,,,2,8,28,7,,,,,,,,,,,AFNE13.jpg,AFNE19.jpg,AFSA17.jpg,AFSA14.jpg,AFSA14.jpg,FS,4,num_4,32,num_6,1.31674821477,,,2017_Oct_25_1855,60.006986515,MAFE4ImagesEEG,001,201846,
AFNE01.JPG,AFNE01.JPG,AFNE01.JPG,AFNE01.JPG,AFNE01.JPG,AFNE01.JPG,,,,,,,,,,,,,2,9,29,4,,,,,,,,,,,AFNE02.jpg,AFNE07.jpg,AFSA01.jpg,AFSA12.jpg,AFSA12.jpg,FS,4,num_4,16,num_4,1.31673987547,,,2017_Oct_25_1855,60.006986515,MAFE4ImagesEEG,001,201846,
AFNE01.JPG,AFNE01.JPG,AFNE01.JPG,AFNE01.JPG,AFNE01.JPG,AFNE01.JPG,,,,,,,,,,,,,3,0,30,7,,,,,,,,,,,AFSA07.jpg,AFNE19.jpg,AFNE12.jpg,AFSA06.jpg,AFNE19.jpg,FN,3,num_6,32,num_4,1.06673305971,,,2017_Oct_25_1855,60.006986515,MAFE4ImagesEEG,001,201846,
AFNE01.JPG,AFNE01.JPG,AFNE01.JPG,AFNE01.JPG,AFNE01.JPG,AFNE01.JPG,,,,,,,,,,,,,3,1,31,6,,,,,,,,,,,AFNE05.jpg,AFSA09.jpg,AFNE20.jpg,AFSA07.jpg,AFNE20.jpg,FN,3,num_2,32,num_6,1.53337984055,,,2017_Oct_25_1855,60.006986515,MAFE4ImagesEEG,001,201846,
AFNE01.JPG,AFNE01.JPG,AFNE01.JPG,AFNE01.JPG,AFNE01.JPG,AFNE01.JPG,,,,,,,,,,,,,3,2,32,3,,,,,,,,,,,AFSA16.jpg,AFNE06.jpg,AFSA20.jpg,AFNE10.jpg,AFSA20.jpg,FS,4,num_2,32,num_8,0.76680795243,,,2017_Oct_25_1855,60.006986515,MAFE4ImagesEEG,001,201846,
AFNE01.JPG,AFNE01.JPG,AFNE01.JPG,AFNE01.JPG,AFNE01.JPG,AFNE01.JPG,,,,,,,,,,,,,3,3,33,1,,,,,,,,,,,AFNE14.jpg,AFSA13.jpg,AFSA11.jpg,AFNE10.jpg,AFSA13.jpg,FS,4,num_6,16,num_6,1.40006639308,,,2017_Oct_25_1855,60.006986515,MAFE4ImagesEEG,001,201846,
AFNE01.JPG,AFNE01.JPG,AFNE01.JPG,AFNE01.JPG,AFNE01.JPG,AFNE01.JPG,,,,,,,,,,,,,3,4,34,8,,,,,,,,,,,AFSA10.jpg,AFNE12.jpg,AFSA20.jpg,AFNE03.jpg,AFNE03.jpg,FN,3,num_4,32,num_8,1.13341576338,,,2017_Oct_25_1855,60.006986515,MAFE4ImagesEEG,001,201846,
AFNE01.JPG,AFNE01.JPG,AFNE01.JPG,AFNE01.JPG,AFNE01.JPG,AFNE01.JPG,,,,,,,,,,,,,3,5,35,2,,,,,,,,,,,AFNE11.jpg,AFSA08.jpg,AFNE17.jpg,AFSA04.jpg,AFNE11.jpg,FN,3,num_8,16,num_8,1.43324689404,,,2017_Oct_25_1855,60.006986515,MAFE4ImagesEEG,001,201846,
AFNE01.JPG,AFNE01.JPG,AFNE01.JPG,AFNE01.JPG,AFNE01.JPG,AFNE01.JPG,,,,,,,,,,,,,3,6,36,9,,,,,,,,,,,AFSA05.jpg,AFNE11.jpg,AFSA19.jpg,AFNE18.jpg,AFNE11.jpg,FN,3,num_6,16,num_6,1.96673514461,,,2017_Oct_25_1855,60.006986515,MAFE4ImagesEEG,001,201846,
AFNE01.JPG,AFNE01.JPG,AFNE01.JPG,AFNE01.JPG,AFNE01.JPG,AFNE01.JPG,,,,,,,,,,,,,3,7,37,0,,,,,,,,,,,AFNE03.jpg,AFSA06.jpg,AFSA01.jpg,AFNE12.jpg,AFNE12.jpg,FN,3,num_4,32,num_8,1.79993488989,,,2017_Oct_25_1855,60.006986515,MAFE4ImagesEEG,001,201846,
AFNE01.JPG,AFNE01.JPG,AFNE01.JPG,AFNE01.JPG,AFNE01.JPG,AFNE01.JPG,,,,,,,,,,,,,3,8,38,5,,,,,,,,,,,AFNE06.jpg,AFSA01.jpg,AFSA12.jpg,AFNE13.jpg,AFSA01.jpg,FS,4,num_6,32,num_4,0.833725116565,,,2017_Oct_25_1855,60.006986515,MAFE4ImagesEEG,001,201846,
AFNE01.JPG,AFNE01.JPG,AFNE01.JPG,AFNE01.JPG,AFNE01.JPG,AFNE01.JPG,,,,,,,,,,,,,3,9,39,4,,,,,,,,,,,AFSA04.jpg,AFNE02.jpg,AFSA09.jpg,AFNE04.jpg,AFNE02.jpg,FN,3,num_6,32,num_4,1.13356715243,,,2017_Oct_25_1855,60.006986515,MAFE4ImagesEEG,001,201846,
AFNE01.JPG,AFNE01.JPG,AFNE01.JPG,AFNE01.JPG,AFNE01.JPG,AFNE01.JPG,,,,,,,,,,,,,4,0,40,0,,,,,,,,,,,AFSA03.jpg,AFSA06.jpg,AFNE18.jpg,AFNE06.jpg,AFNE06.jpg,FN,3,num_4,32,num_8,0.850163015886,,,2017_Oct_25_1855,60.006986515,MAFE4ImagesEEG,001,201846,
AFNE01.JPG,AFNE01.JPG,AFNE01.JPG,AFNE01.JPG,AFNE01.JPG,AFNE01.JPG,,,,,,,,,,,,,4,1,41,7,,,,,,,,,,,AFNE10.jpg,AFSA10.jpg,AFSA06.jpg,AFNE16.jpg,AFSA10.jpg,FS,4,num_6,32,num_8,0.983438295312,,,2017_Oct_25_1855,60.006986515,MAFE4ImagesEEG,001,201846,
AFNE01.JPG,AFNE01.JPG,AFNE01.JPG,AFNE01.JPG,AFNE01.JPG,AFNE01.JPG,,,,,,,,,,,,,4,2,42,9,,,,,,,,,,,AFSA12.jpg,AFSA06.jpg,AFNE01.jpg,AFNE16.jpg,AFNE01.jpg,FN,3,num_2,16,num_2,1.1499694495,,,2017_Oct_25_1855,60.006986515,MAFE4ImagesEEG,001,201846,
AFNE01.JPG,AFNE01.JPG,AFNE01.JPG,AFNE01.JPG,AFNE01.JPG,AFNE01.JPG,,,,,,,,,,,,,4,3,43,5,,,,,,,,,,,AFSA19.jpg,AFNE15.jpg,AFNE06.jpg,AFSA17.jpg,AFNE15.jpg,FN,3,num_6,16,num_6,0.816774675739,,,2017_Oct_25_1855,60.006986515,MAFE4ImagesEEG,001,201846,
AFNE01.JPG,AFNE01.JPG,AFNE01.JPG,AFNE01.JPG,AFNE01.JPG,AFNE01.JPG,,,,,,,,,,,,,4,4,44,4,,,,,,,,,,,AFSA03.jpg,AFNE02.jpg,AFNE07.jpg,AFSA06.jpg,AFSA03.jpg,FS,4,num_8,32,num_6,1.23339539638,,,2017_Oct_25_1855,60.006986515,MAFE4ImagesEEG,001,201846,
AFNE01.JPG,AFNE01.JPG,AFNE01.JPG,AFNE01.JPG,AFNE01.JPG,AFNE01.JPG,,,,,,,,,,,,,4,5,45,6,,,,,,,,,,,AFSA10.jpg,AFNE15.jpg,AFNE12.jpg,AFSA20.jpg,AFSA20.jpg,FS,4,num_4,16,num_4,0.616797127528,,,2017_Oct_25_1855,60.006986515,MAFE4ImagesEEG,001,201846,
AFNE01.JPG,AFNE01.JPG,AFNE01.JPG,AFNE01.JPG,AFNE01.JPG,AFNE01.JPG,,,,,,,,,,,,,4,6,46,3,,,,,,,,,,,AFSA06.jpg,AFSA11.jpg,AFNE08.jpg,AFNE13.jpg,AFNE13.jpg,FN,3,num_4,32,num_8,0.800084033748,,,2017_Oct_25_1855,60.006986515,MAFE4ImagesEEG,001,201846,
AFNE01.JPG,AFNE01.JPG,AFNE01.JPG,AFNE01.JPG,AFNE01.JPG,AFNE01.JPG,,,,,,,,,,,,,4,7,47,2,,,,,,,,,,,AFSA03.jpg,AFNE16.jpg,AFSA09.jpg,AFNE05.jpg,AFSA09.jpg,FS,4,num_2,32,num_4,0.916841229191,,,2017_Oct_25_1855,60.006986515,MAFE4ImagesEEG,001,201846,
AFNE01.JPG,AFNE01.JPG,AFNE01.JPG,AFNE01.JPG,AFNE01.JPG,AFNE01.JPG,,,,,,,,,,,,,4,8,48,1,,,,,,,,,,,AFSA19.jpg,AFSA14.jpg,AFNE04.jpg,AFNE19.jpg,AFSA14.jpg,FS,4,num_6,32,num_4,0.800076336018,,,2017_Oct_25_1855,60.006986515,MAFE4ImagesEEG,001,201846,
AFNE01.JPG,AFNE01.JPG,AFNE01.JPG,AFNE01.JPG,AFNE01.JPG,AFNE01.JPG,,,,,,,,,,,,,4,9,49,8,,,,,,,,,,,AFSA03.jpg,AFNE13.jpg,AFNE09.jpg,AFSA04.jpg,AFSA04.jpg,FS,4,num_4,32,num_6,1.06677668029,,,2017_Oct_25_1855,60.006986515,MAFE4ImagesEEG,001,201846,
AFNE01.JPG,AFNE01.JPG,AFNE01.JPG,AFNE01.JPG,AFNE01.JPG,AFNE01.JPG,,,,,,,,,,,,,5,0,50,1,,,,,,,,,,,AFNE07.jpg,AFNE19.jpg,AFSA06.jpg,AFSA15.jpg,AFSA15.jpg,FS,4,num_4,32,num_2,1.40012572997,,,2017_Oct_25_1855,60.006986515,MAFE4ImagesEEG,001,201846,
AFNE01.JPG,AFNE01.JPG,AFNE01.JPG,AFNE01.JPG,AFNE01.JPG,AFNE01.JPG,,,,,,,,,,,,,5,1,51,7,,,,,,,,,,,AFSA14.jpg,AFNE12.jpg,AFNE09.jpg,AFSA02.jpg,AFSA02.jpg,FS,4,num_4,16,num_4,0.950145856361,,,2017_Oct_25_1855,60.006986515,MAFE4ImagesEEG,001,201846,
AFNE01.JPG,AFNE01.JPG,AFNE01.JPG,AFNE01.JPG,AFNE01.JPG,AFNE01.JPG,,,,,,,,,,,,,5,2,52,2,,,,,,,,,,,AFNE07.jpg,AFNE08.jpg,AFSA16.jpg,AFSA05.jpg,AFNE08.jpg,FN,3,num_6,16,num_6,1.08309943404,,,2017_Oct_25_1855,60.006986515,MAFE4ImagesEEG,001,201846,
AFNE01.JPG,AFNE01.JPG,AFNE01.JPG,AFNE01.JPG,AFNE01.JPG,AFNE01.JPG,,,,,,,,,,,,,5,3,53,3,,,,,,,,,,,AFNE05.jpg,AFSA06.jpg,AFNE17.jpg,AFSA01.jpg,AFSA06.jpg,FS,4,num_6,16,num_6,0.950253303978,,,2017_Oct_25_1855,60.006986515,MAFE4ImagesEEG,001,201846,
AFNE01.JPG,AFNE01.JPG,AFNE01.JPG,AFNE01.JPG,AFNE01.JPG,AFNE01.JPG,,,,,,,,,,,,,5,4,54,8,,,,,,,,,,,AFSA14.jpg,AFSA18.jpg,AFNE12.jpg,AFNE09.jpg,AFSA18.jpg,FS,4,num_6,16,num_6,0.866816452006,,,2017_Oct_25_1855,60.006986515,MAFE4ImagesEEG,001,201846,
AFNE01.JPG,AFNE01.JPG,AFNE01.JPG,AFNE01.JPG,AFNE01.JPG,AFNE01.JPG,,,,,,,,,,,,,5,5,55,6,,,,,,,,,,,AFSA09.jpg,AFNE06.jpg,AFNE12.jpg,AFSA04.jpg,AFSA09.jpg,FS,4,num_8,16,num_8,1.33348632604,,,2017_Oct_25_1855,60.006986515,MAFE4ImagesEEG,001,201846,
AFNE01.JPG,AFNE01.JPG,AFNE01.JPG,AFNE01.JPG,AFNE01.JPG,AFNE01.JPG,,,,,,,,,,,,,5,6,56,9,,,,,,,,,,,AFSA02.jpg,AFNE19.jpg,AFSA13.jpg,AFNE08.jpg,AFNE19.jpg,FN,3,num_6,32,num_4,0.966781651834,,,2017_Oct_25_1855,60.006986515,MAFE4ImagesEEG,001,201846,
AFNE01.JPG,AFNE01.JPG,AFNE01.JPG,AFNE01.JPG,AFNE01.JPG,AFNE01.JPG,,,,,,,,,,,,,5,7,57,0,,,,,,,,,,,AFSA14.jpg,AFNE19.jpg,AFNE11.jpg,AFSA20.jpg,AFSA20.jpg,FS,4,num_4,32,num_8,1.05011426343,,,2017_Oct_25_1855,60.006986515,MAFE4ImagesEEG,001,201846,
AFNE01.JPG,AFNE01.JPG,AFNE01.JPG,AFNE01.JPG,AFNE01.JPG,AFNE01.JPG,,,,,,,,,,,,,5,8,58,4,,,,,,,,,,,AFSA15.jpg,AFNE03.jpg,AFNE17.jpg,AFSA08.jpg,AFNE17.jpg,FN,3,num_2,16,num_2,0.833498032996,,,2017_Oct_25_1855,60.006986515,MAFE4ImagesEEG,001,201846,
AFNE01.JPG,AFNE01.JPG,AFNE01.JPG,AFNE01.JPG,AFNE01.JPG,AFNE01.JPG,,,,,,,,,,,,,5,9,59,5,,,,,,,,,,,AFSA04.jpg,AFNE07.jpg,AFSA11.jpg,AFNE10.jpg,AFSA11.jpg,FS,4,num_2,32,num_4,1.43343805475,,,2017_Oct_25_1855,60.006986515,MAFE4ImagesEEG,001,201846,
,,,,,,,,,,,,,,,,,,,,,,,,,,,,,,,,,,,,,,,,,,,space,34.8308727803,2017_Oct_25_1855,60.006986515,MAFE4ImagesEEG,001,201846,
AFNE01.JPG,AFNE01.JPG,AFNE01.JPG,AFNE01.JPG,AFNE01.JPG,AFNE01.JPG,,,,,,,,,,,,,,,,,0,0,0,9,,,,,,,AMSA15.jpg,AMNE05.jpg,AMSA03.jpg,AMNE14.jpg,AMSA15.jpg,MS,2,num_8,16,num_8,0.733524173265,,,2017_Oct_25_1855,60.006986515,MAFE4ImagesEEG,001,201846,
AFNE01.JPG,AFNE01.JPG,AFNE01.JPG,AFNE01.JPG,AFNE01.JPG,AFNE01.JPG,,,,,,,,,,,,,,,,,0,1,1,3,,,,,,,AMSA18.jpg,AMSA06.jpg,AMNE14.jpg,AMNE05.jpg,AMSA18.jpg,MS,2,num_8,16,num_8,0.800155879348,,,2017_Oct_25_1855,60.006986515,MAFE4ImagesEEG,001,201846,
AFNE01.JPG,AFNE01.JPG,AFNE01.JPG,AFNE01.JPG,AFNE01.JPG,AFNE01.JPG,,,,,,,,,,,,,,,,,0,2,2,0,,,,,,,AMNE01.jpg,AMSA08.jpg,AMSA04.jpg,AMNE06.jpg,AMSA08.jpg,MS,2,num_6,32,num_2,1.03349161823,,,2017_Oct_25_1855,60.006986515,MAFE4ImagesEEG,001,201846,
AFNE01.JPG,AFNE01.JPG,AFNE01.JPG,AFNE01.JPG,AFNE01.JPG,AFNE01.JPG,,,,,,,,,,,,,,,,,0,3,3,5,,,,,,,AMNE17.jpg,AMSA18.jpg,AMSA04.jpg,AMNE03.jpg,AMSA18.jpg,MS,2,num_6,32,num_2,0.850109452382,,,2017_Oct_25_1855,60.006986515,MAFE4ImagesEEG,001,201846,
AFNE01.JPG,AFNE01.JPG,AFNE01.JPG,AFNE01.JPG,AFNE01.JPG,AFNE01.JPG,,,,,,,,,,,,,,,,,0,4,4,8,,,,,,,AMNE12.jpg,AMSA06.jpg,AMSA20.jpg,AMNE04.jpg,AMSA20.jpg,MS,2,num_2,32,num_8,0.900415517972,,,2017_Oct_25_1855,60.006986515,MAFE4ImagesEEG,001,201846,
AFNE01.JPG,AFNE01.JPG,AFNE01.JPG,AFNE01.JPG,AFNE01.JPG,AFNE01.JPG,,,,,,,,,,,,,,,,,0,5,5,1,,,,,,,AMNE19.jpg,AMNE17.jpg,AMSA02.jpg,AMSA03.jpg,AMSA02.jpg,MS,2,num_2,32,num_4,1.00011963584,,,2017_Oct_25_1855,60.006986515,MAFE4ImagesEEG,001,201846,
AFNE01.JPG,AFNE01.JPG,AFNE01.JPG,AFNE01.JPG,AFNE01.JPG,AFNE01.JPG,,,,,,,,,,,,,,,,,0,6,6,2,,,,,,,AMNE12.jpg,AMSA14.jpg,AMNE17.jpg,AMSA12.jpg,AMSA12.jpg,MS,2,num_4,32,num_2,1.5667085232,,,2017_Oct_25_1855,60.006986515,MAFE4ImagesEEG,001,201846,
AFNE01.JPG,AFNE01.JPG,AFNE01.JPG,AFNE01.JPG,AFNE01.JPG,AFNE01.JPG,,,,,,,,,,,,,,,,,0,7,7,6,,,,,,,AMNE05.jpg,AMSA16.jpg,AMSA12.jpg,AMNE12.jpg,AMNE12.jpg,MN,1,num_4,32,num_8,1.40008146781,,,2017_Oct_25_1855,60.006986515,MAFE4ImagesEEG,001,201846,
AFNE01.JPG,AFNE01.JPG,AFNE01.JPG,AFNE01.JPG,AFNE01.JPG,AFNE01.JPG,,,,,,,,,,,,,,,,,0,8,8,4,,,,,,,AMNE12.jpg,AMNE16.jpg,AMSA07.jpg,AMSA02.jpg,AMNE16.jpg,MN,1,num_6,16,num_6,1.68340253294,,,2017_Oct_25_1855,60.006986515,MAFE4ImagesEEG,001,201846,
AFNE01.JPG,AFNE01.JPG,AFNE01.JPG,AFNE01.JPG,AFNE01.JPG,AFNE01.JPG,,,,,,,,,,,,,,,,,0,9,9,7,,,,,,,AMNE10.jpg,AMSA19.jpg,AMNE12.jpg,AMSA10.jpg,AMNE12.jpg,MN,1,num_2,32,num_4,1.48355745,,,2017_Oct_25_1855,60.006986515,MAFE4ImagesEEG,001,201846,
AFNE01.JPG,AFNE01.JPG,AFNE01.JPG,AFNE01.JPG,AFNE01.JPG,AFNE01.JPG,,,,,,,,,,,,,,,,,1,0,10,6,,,,,,,AMNE11.jpg,AMSA16.jpg,AMSA17.jpg,AMNE09.jpg,AMNE09.jpg,MN,1,num_4,32,num_8,0.983452407876,,,2017_Oct_25_1855,60.006986515,MAFE4ImagesEEG,001,201846,
AFNE01.JPG,AFNE01.JPG,AFNE01.JPG,AFNE01.JPG,AFNE01.JPG,AFNE01.JPG,,,,,,,,,,,,,,,,,1,1,11,4,,,,,,,AMSA19.jpg,AMNE03.jpg,AMNE01.jpg,AMSA01.jpg,AMNE03.jpg,MN,1,num_6,16,num_6,1.00008659961,,,2017_Oct_25_1855,60.006986515,MAFE4ImagesEEG,001,201846,
AFNE01.JPG,AFNE01.JPG,AFNE01.JPG,AFNE01.JPG,AFNE01.JPG,AFNE01.JPG,,,,,,,,,,,,,,,,,1,2,12,9,,,,,,,AMNE12.jpg,AMSA19.jpg,AMNE02.jpg,AMSA04.jpg,AMSA19.jpg,MS,2,num_6,32,num_2,1.10007874155,,,2017_Oct_25_1855,60.006986515,MAFE4ImagesEEG,001,201846,
AFNE01.JPG,AFNE01.JPG,AFNE01.JPG,AFNE01.JPG,AFNE01.JPG,AFNE01.JPG,,,,,,,,,,,,,,,,,1,3,13,8,,,,,,,AMNE13.jpg,AMSA15.jpg,AMSA02.jpg,AMNE08.jpg,AMNE08.jpg,MN,1,num_4,16,num_4,0.83369560854,,,2017_Oct_25_1855,60.006986515,MAFE4ImagesEEG,001,201846,
AFNE01.JPG,AFNE01.JPG,AFNE01.JPG,AFNE01.JPG,AFNE01.JPG,AFNE01.JPG,,,,,,,,,,,,,,,,,1,4,14,7,,,,,,,AMSA01.jpg,AMNE06.jpg,AMNE16.jpg,AMSA06.jpg,AMSA01.jpg,MS,2,num_8,16,num_8,0.600125729805,,,2017_Oct_25_1855,60.006986515,MAFE4ImagesEEG,001,201846,
AFNE01.JPG,AFNE01.JPG,AFNE01.JPG,AFNE01.JPG,AFNE01.JPG,AFNE01.JPG,,,,,,,,,,,,,,,,,1,5,15,1,,,,,,,AMNE05.jpg,AMSA18.jpg,AMNE04.jpg,AMSA03.jpg,AMSA18.jpg,MS,2,num_6,16,num_6,1.36680089612,,,2017_Oct_25_1855,60.006986515,MAFE4ImagesEEG,001,201846,
AFNE01.JPG,AFNE01.JPG,AFNE01.JPG,AFNE01.JPG,AFNE01.JPG,AFNE01.JPG,,,,,,,,,,,,,,,,,1,6,16,3,,,,,,,AMNE15.jpg,AMNE03.jpg,AMSA19.jpg,AMSA17.jpg,AMNE03.jpg,MN,1,num_6,32,num_4,1.15011795191,,,2017_Oct_25_1855,60.006986515,MAFE4ImagesEEG,001,201846,
AFNE01.JPG,AFNE01.JPG,AFNE01.JPG,AFNE01.JPG,AFNE01.JPG,AFNE01.JPG,,,,,,,,,,,,,,,,,1,7,17,2,,,,,,,AMSA01.jpg,AMNE13.jpg,AMNE17.jpg,AMSA19.jpg,AMSA01.jpg,MS,2,num_8,16,num_8,0.783451766358,,,2017_Oct_25_1855,60.006986515,MAFE4ImagesEEG,001,201846,
AFNE01.JPG,AFNE01.JPG,AFNE01.JPG,AFNE01.JPG,AFNE01.JPG,AFNE01.JPG,,,,,,,,,,,,,,,,,1,8,18,0,,,,,,,AMSA16.jpg,AMNE11.jpg,AMNE20.jpg,AMSA12.jpg,AMNE20.jpg,MN,1,num_2,32,num_4,1.56667997746,,,2017_Oct_25_1855,60.006986515,MAFE4ImagesEEG,001,201846,
AFNE01.JPG,AFNE01.JPG,AFNE01.JPG,AFNE01.JPG,AFNE01.JPG,AFNE01.JPG,,,,,,,,,,,,,,,,,1,9,19,5,,,,,,,AMNE13.jpg,AMSA19.jpg,AMSA01.jpg,AMNE07.jpg,AMSA19.jpg,MS,2,num_6,16,num_6,0.950102235773,,,2017_Oct_25_1855,60.006986515,MAFE4ImagesEEG,001,201846,
AFNE01.JPG,AFNE01.JPG,AFNE01.JPG,AFNE01.JPG,AFNE01.JPG,AFNE01.JPG,,,,,,,,,,,,,,,,,2,0,20,4,,,,,,,AMNE16.jpg,AMSA03.jpg,AMSA09.jpg,AMNE04.jpg,AMNE16.jpg,MN,1,num_8,32,num_4,1.03347141168,,,2017_Oct_25_1855,60.006986515,MAFE4ImagesEEG,001,201846,
AFNE01.JPG,AFNE01.JPG,AFNE01.JPG,AFNE01.JPG,AFNE01.JPG,AFNE01.JPG,,,,,,,,,,,,,,,,,2,1,21,9,,,,,,,AMSA18.jpg,AMNE17.jpg,AMNE11.jpg,AMSA11.jpg,AMSA18.jpg,MS,2,num_8,16,num_8,1.41665985086,,,2017_Oct_25_1855,60.006986515,MAFE4ImagesEEG,001,201846,
AFNE01.JPG,AFNE01.JPG,AFNE01.JPG,AFNE01.JPG,AFNE01.JPG,AFNE01.JPG,,,,,,,,,,,,,,,,,2,2,22,5,,,,,,,AMSA13.jpg,AMSA01.jpg,AMNE16.jpg,AMNE08.jpg,AMNE16.jpg,MN,1,num_2,16,num_2,1.10011498514,,,2017_Oct_25_1855,60.006986515,MAFE4ImagesEEG,001,201846,
AFNE01.JPG,AFNE01.JPG,AFNE01.JPG,AFNE01.JPG,AFNE01.JPG,AFNE01.JPG,,,,,,,,,,,,,,,,,2,3,23,3,,,,,,,AMNE03.jpg,AMNE02.jpg,AMSA13.jpg,AMSA20.jpg,AMSA13.jpg,MS,2,num_2,16,num_2,0.866680137813,,,2017_Oct_25_1855,60.006986515,MAFE4ImagesEEG,001,201846,
AFNE01.JPG,AFNE01.JPG,AFNE01.JPG,AFNE01.JPG,AFNE01.JPG,AFNE01.JPG,,,,,,,,,,,,,,,,,2,4,24,1,,,,,,,AMSA09.jpg,AMNE15.jpg,AMNE06.jpg,AMSA01.jpg,AMNE15.jpg,MN,1,num_6,16,num_6,0.600118032075,,,2017_Oct_25_1855,60.006986515,MAFE4ImagesEEG,001,201846,
AFNE01.JPG,AFNE01.JPG,AFNE01.JPG,AFNE01.JPG,AFNE01.JPG,AFNE01.JPG,,,,,,,,,,,,,,,,,2,5,25,6,,,,,,,AMSA02.jpg,AMNE19.jpg,AMNE02.jpg,AMSA15.jpg,AMSA15.jpg,MS,2,num_4,16,num_4,0.783544460195,,,2017_Oct_25_1855,60.006986515,MAFE4ImagesEEG,001,201846,
AFNE01.JPG,AFNE01.JPG,AFNE01.JPG,AFNE01.JPG,AFNE01.JPG,AFNE01.JPG,,,,,,,,,,,,,,,,,2,6,26,8,,,,,,,AMSA07.jpg,AMNE02.jpg,AMNE16.jpg,AMSA20.jpg,AMSA20.jpg,MS,2,num_4,32,num_8,1.28346828453,,,2017_Oct_25_1855,60.006986515,MAFE4ImagesEEG,001,201846,
AFNE01.JPG,AFNE01.JPG,AFNE01.JPG,AFNE01.JPG,AFNE01.JPG,AFNE01.JPG,,,,,,,,,,,,,,,,,2,7,27,0,,,,,,,AMNE04.jpg,AMNE03.jpg,AMSA03.jpg,AMSA01.jpg,AMSA03.jpg,MS,2,num_2,16,num_2,1.1167203103,,,2017_Oct_25_1855,60.006986515,MAFE4ImagesEEG,001,201846,
AFNE01.JPG,AFNE01.JPG,AFNE01.JPG,AFNE01.JPG,AFNE01.JPG,AFNE01.JPG,,,,,,,,,,,,,,,,,2,8,28,7,,,,,,,AMNE01.jpg,AMNE17.jpg,AMSA04.jpg,AMSA09.jpg,AMSA04.jpg,MS,2,num_2,32,num_6,0.900127494009,,,2017_Oct_25_1855,60.006986515,MAFE4ImagesEEG,001,201846,
AFNE01.JPG,AFNE01.JPG,AFNE01.JPG,AFNE01.JPG,AFNE01.JPG,AFNE01.JPG,,,,,,,,,,,,,,,,,2,9,29,2,,,,,,,AMNE11.jpg,AMNE10.jpg,AMSA05.jpg,AMSA06.jpg,AMSA05.jpg,MS,2,num_2,32,num_4,1.20009525958,,,2017_Oct_25_1855,60.006986515,MAFE4ImagesEEG,001,201846,
AFNE01.JPG,AFNE01.JPG,AFNE01.JPG,AFNE01.JPG,AFNE01.JPG,AFNE01.JPG,,,,,,,,,,,,,,,,,3,0,30,2,,,,,,,AMSA14.jpg,AMNE04.jpg,AMNE07.jpg,AMSA16.jpg,AMSA16.jpg,MS,2,num_4,16,num_4,1.05010688643,,,2017_Oct_25_1855,60.006986515,MAFE4ImagesEEG,001,201846,
AFNE01.JPG,AFNE01.JPG,AFNE01.JPG,AFNE01.JPG,AFNE01.JPG,AFNE01.JPG,,,,,,,,,,,,,,,,,3,1,31,5,,,,,,,AMSA05.jpg,AMNE18.jpg,AMNE03.jpg,AMSA03.jpg,AMSA03.jpg,MS,2,num_4,32,num_8,1.26675519079,,,2017_Oct_25_1855,60.006986515,MAFE4ImagesEEG,001,201846,
AFNE01.JPG,AFNE01.JPG,AFNE01.JPG,AFNE01.JPG,AFNE01.JPG,AFNE01.JPG,,,,,,,,,,,,,,,,,3,2,32,7,,,,,,,AMSA08.jpg,AMNE01.jpg,AMSA14.jpg,AMNE08.jpg,AMNE01.jpg,MN,1,num_6,16,num_6,1.11674212071,,,2017_Oct_25_1855,60.006986515,MAFE4ImagesEEG,001,201846,
AFNE01.JPG,AFNE01.JPG,AFNE01.JPG,AFNE01.JPG,AFNE01.JPG,AFNE01.JPG,,,,,,,,,,,,,,,,,3,3,33,1,,,,,,,AMNE02.jpg,AMSA20.jpg,AMNE04.jpg,AMSA12.jpg,AMSA12.jpg,MS,2,num_4,32,num_2,1.10011370224,,,2017_Oct_25_1855,60.006986515,MAFE4ImagesEEG,001,201846,
AFNE01.JPG,AFNE01.JPG,AFNE01.JPG,AFNE01.JPG,AFNE01.JPG,AFNE01.JPG,,,,,,,,,,,,,,,,,3,4,34,6,,,,,,,AMNE05.jpg,AMSA02.jpg,AMNE02.jpg,AMSA16.jpg,AMNE02.jpg,MN,1,num_2,32,num_8,1.16687691142,,,2017_Oct_25_1855,60.006986515,MAFE4ImagesEEG,001,201846,
AFNE01.JPG,AFNE01.JPG,AFNE01.JPG,AFNE01.JPG,AFNE01.JPG,AFNE01.JPG,,,,,,,,,,,,,,,,,3,5,35,9,,,,,,,AMSA12.jpg,AMSA01.jpg,AMNE20.jpg,AMNE09.jpg,AMNE20.jpg,MN,1,num_2,32,num_8,1.11662505078,,,2017_Oct_25_1855,60.006986515,MAFE4ImagesEEG,001,201846,
AFNE01.JPG,AFNE01.JPG,AFNE01.JPG,AFNE01.JPG,AFNE01.JPG,AFNE01.JPG,,,,,,,,,,,,,,,,,3,6,36,0,,,,,,,AMNE13.jpg,AMNE09.jpg,AMSA08.jpg,AMSA09.jpg,AMNE09.jpg,MN,1,num_6,32,num_2,1.1001207584,,,2017_Oct_25_1855,60.006986515,MAFE4ImagesEEG,001,201846,
AFNE01.JPG,AFNE01.JPG,AFNE01.JPG,AFNE01.JPG,AFNE01.JPG,AFNE01.JPG,,,,,,,,,,,,,,,,,3,7,37,3,,,,,,,AMNE19.jpg,AMSA20.jpg,AMSA06.jpg,AMNE08.jpg,AMSA06.jpg,MS,2,num_2,16,num_2,1.15011795191,,,2017_Oct_25_1855,60.006986515,MAFE4ImagesEEG,001,201846,
AFNE01.JPG,AFNE01.JPG,AFNE01.JPG,AFNE01.JPG,AFNE01.JPG,AFNE01.JPG,,,,,,,,,,,,,,,,,3,8,38,8,,,,,,,AMSA20.jpg,AMNE06.jpg,AMNE04.jpg,AMSA04.jpg,AMSA04.jpg,MS,2,num_4,16,num_4,1.21675992175,,,2017_Oct_25_1855,60.006986515,MAFE4ImagesEEG,001,201846,
AFNE01.JPG,AFNE01.JPG,AFNE01.JPG,AFNE01.JPG,AFNE01.JPG,AFNE01.JPG,,,,,,,,,,,,,,,,,3,9,39,4,,,,,,,AMNE09.jpg,AMSA15.jpg,AMSA08.jpg,AMNE16.jpg,AMSA15.jpg,MS,2,num_6,16,num_6,1.11686400173,,,2017_Oct_25_1855,60.006986515,MAFE4ImagesEEG,001,201846,
AFNE01.JPG,AFNE01.JPG,AFNE01.JPG,AFNE01.JPG,AFNE01.JPG,AFNE01.JPG,,,,,,,,,,,,,,,,,4,0,40,7,,,,,,,AMSA05.jpg,AMNE12.jpg,AMNE06.jpg,AMSA01.jpg,AMNE06.jpg,MN,1,num_2,32,num_8,0.950131422956,,,2017_Oct_25_1855,60.006986515,MAFE4ImagesEEG,001,201846,
AFNE01.JPG,AFNE01.JPG,AFNE01.JPG,AFNE01.JPG,AFNE01.JPG,AFNE01.JPG,,,,,,,,,,,,,,,,,4,1,41,6,,,,,,,AMSA04.jpg,AMNE07.jpg,AMSA07.jpg,AMNE12.jpg,AMSA04.jpg,MS,2,num_8,32,num_6,1.48343877646,,,2017_Oct_25_1855,60.006986515,MAFE4ImagesEEG,001,201846,
AFNE01.JPG,AFNE01.JPG,AFNE01.JPG,AFNE01.JPG,AFNE01.JPG,AFNE01.JPG,,,,,,,,,,,,,,,,,4,2,42,2,,,,,,,AMSA17.jpg,AMNE12.jpg,AMNE07.jpg,AMSA11.jpg,AMNE12.jpg,MN,1,num_6,32,num_4,1.13348151499,,,2017_Oct_25_1855,60.006986515,MAFE4ImagesEEG,001,201846,
AFNE01.JPG,AFNE01.JPG,AFNE01.JPG,AFNE01.JPG,AFNE01.JPG,AFNE01.JPG,,,,,,,,,,,,,,,,,4,3,43,5,,,,,,,AMSA11.jpg,AMSA15.jpg,AMNE06.jpg,AMNE20.jpg,AMNE06.jpg,MN,1,num_2,32,num_4,1.23348584492,,,2017_Oct_25_1855,60.006986515,MAFE4ImagesEEG,001,201846,
AFNE01.JPG,AFNE01.JPG,AFNE01.JPG,AFNE01.JPG,AFNE01.JPG,AFNE01.JPG,,,,,,,,,,,,,,,,,4,4,44,1,,,,,,,AMSA16.jpg,AMNE18.jpg,AMSA20.jpg,AMNE17.jpg,AMSA20.jpg,MS,2,num_2,32,num_8,0.900096061523,,,2017_Oct_25_1855,60.006986515,MAFE4ImagesEEG,001,201846,
AFNE01.JPG,AFNE01.JPG,AFNE01.JPG,AFNE01.JPG,AFNE01.JPG,AFNE01.JPG,,,,,,,,,,,,,,,,,4,5,45,8,,,,,,,AMNE14.jpg,AMSA19.jpg,AMSA10.jpg,AMNE13.jpg,AMNE14.jpg,MN,1,num_8,32,num_2,0.750157723669,,,2017_Oct_25_1855,60.006986515,MAFE4ImagesEEG,001,201846,
AFNE01.JPG,AFNE01.JPG,AFNE01.JPG,AFNE01.JPG,AFNE01.JPG,AFNE01.JPG,,,,,,,,,,,,,,,,,4,6,46,3,,,,,,,AMNE08.jpg,AMNE14.jpg,AMSA15.jpg,AMSA09.jpg,AMNE14.jpg,MN,1,num_6,16,num_6,0.766849327832,,,2017_Oct_25_1855,60.006986515,MAFE4ImagesEEG,001,201846,
AFNE01.JPG,AFNE01.JPG,AFNE01.JPG,AFNE01.JPG,AFNE01.JPG,AFNE01.JPG,,,,,,,,,,,,,,,,,4,7,47,9,,,,,,,AMNE03.jpg,AMNE14.jpg,AMSA04.jpg,AMSA07.jpg,AMSA07.jpg,MS,2,num_4,16,num_4,1.76698147249,,,2017_Oct_25_1855,60.006986515,MAFE4ImagesEEG,001,201846,
AFNE01.JPG,AFNE01.JPG,AFNE01.JPG,AFNE01.JPG,AFNE01.JPG,AFNE01.JPG,,,,,,,,,,,,,,,,,4,8,48,0,,,,,,,AMSA16.jpg,AMNE08.jpg,AMNE02.jpg,AMSA19.jpg,AMNE08.jpg,MN,1,num_6,32,num_8,1.00011610775,,,2017_Oct_25_1855,60.006986515,MAFE4ImagesEEG,001,201846,
AFNE01.JPG,AFNE01.JPG,AFNE01.JPG,AFNE01.JPG,AFNE01.JPG,AFNE01.JPG,,,,,,,,,,,,,,,,,4,9,49,4,,,,,,,AMNE17.jpg,AMNE09.jpg,AMSA01.jpg,AMSA07.jpg,AMNE09.jpg,MN,1,num_6,16,num_6,1.20008339221,,,2017_Oct_25_1855,60.006986515,MAFE4ImagesEEG,001,201846,
AFNE01.JPG,AFNE01.JPG,AFNE01.JPG,AFNE01.JPG,AFNE01.JPG,AFNE01.JPG,,,,,,,,,,,,,,,,,5,0,50,9,,,,,,,AMNE05.jpg,AMSA18.jpg,AMNE12.jpg,AMSA12.jpg,AMNE05.jpg,MN,1,num_8,32,num_2,1.16659530217,,,2017_Oct_25_1855,60.006986515,MAFE4ImagesEEG,001,201846,
AFNE01.JPG,AFNE01.JPG,AFNE01.JPG,AFNE01.JPG,AFNE01.JPG,AFNE01.JPG,,,,,,,,,,,,,,,,,5,1,51,6,,,,,,,AMNE17.jpg,AMSA04.jpg,AMNE12.jpg,AMSA06.jpg,AMSA06.jpg,MS,2,num_4,32,num_6,1.31671132974,,,2017_Oct_25_1855,60.006986515,MAFE4ImagesEEG,001,201846,
AFNE01.JPG,AFNE01.JPG,AFNE01.JPG,AFNE01.JPG,AFNE01.JPG,AFNE01.JPG,,,,,,,,,,,,,,,,,5,2,52,4,,,,,,,AMNE10.jpg,AMSA03.jpg,AMNE07.jpg,AMSA08.jpg,AMSA03.jpg,MS,2,num_6,32,num_2,1.50008483557,,,2017_Oct_25_1855,60.006986515,MAFE4ImagesEEG,001,201846,
AFNE01.JPG,AFNE01.JPG,AFNE01.JPG,AFNE01.JPG,AFNE01.JPG,AFNE01.JPG,,,,,,,,,,,,,,,,,5,3,53,5,,,,,,,AMSA05.jpg,AMSA13.jpg,AMNE01.jpg,AMNE02.jpg,AMNE01.jpg,MN,1,num_2,16,num_2,1.40007120417,,,2017_Oct_25_1855,60.006986515,MAFE4ImagesEEG,001,201846,
AFNE01.JPG,AFNE01.JPG,AFNE01.JPG,AFNE01.JPG,AFNE01.JPG,AFNE01.JPG,,,,,,,,,,,,,,,,,5,4,54,7,,,,,,,AMSA07.jpg,AMSA16.jpg,AMNE17.jpg,AMNE02.jpg,AMSA07.jpg,MS,2,num_8,16,num_8,1.38345433236,,,2017_Oct_25_1855,60.006986515,MAFE4ImagesEEG,001,201846,
AFNE01.JPG,AFNE01.JPG,AFNE01.JPG,AFNE01.JPG,AFNE01.JPG,AFNE01.JPG,,,,,,,,,,,,,,,,,5,5,55,8,,,,,,,AMSA11.jpg,AMNE05.jpg,AMNE11.jpg,AMSA04.jpg,AMSA04.jpg,MS,2,num_4,32,num_6,1.18353323417,,,2017_Oct_25_1855,60.006986515,MAFE4ImagesEEG,001,201846,
AFNE01.JPG,AFNE01.JPG,AFNE01.JPG,AFNE01.JPG,AFNE01.JPG,AFNE01.JPG,,,,,,,,,,,,,,,,,5,6,56,0,,,,,,,AMSA19.jpg,AMNE07.jpg,AMSA06.jpg,AMNE09.jpg,AMSA06.jpg,MS,2,num_2,32,num_6,1.13340261299,,,2017_Oct_25_1855,60.006986515,MAFE4ImagesEEG,001,201846,
AFNE01.JPG,AFNE01.JPG,AFNE01.JPG,AFNE01.JPG,AFNE01.JPG,AFNE01.JPG,,,,,,,,,,,,,,,,,5,7,57,2,,,,,,,AMSA17.jpg,AMNE11.jpg,AMSA06.jpg,AMNE19.jpg,AMSA06.jpg,MS,2,num_2,16,num_2,1.91677836422,,,2017_Oct_25_1855,60.006986515,MAFE4ImagesEEG,001,201846,
AFNE01.JPG,AFNE01.JPG,AFNE01.JPG,AFNE01.JPG,AFNE01.JPG,AFNE01.JPG,,,,,,,,,,,,,,,,,5,8,58,1,,,,,,,AMSA14.jpg,AMNE20.jpg,AMSA19.jpg,AMNE08.jpg,AMSA19.jpg,MS,2,num_2,32,num_6,1.18341873027,,,2017_Oct_25_1855,60.006986515,MAFE4ImagesEEG,001,201846,
AFNE01.JPG,AFNE01.JPG,AFNE01.JPG,AFNE01.JPG,AFNE01.JPG,AFNE01.JPG,,,,,,,,,,,,,,,,,5,9,59,3,,,,,,,AMNE17.jpg,AMNE07.jpg,AMSA07.jpg,AMSA08.jpg,AMNE07.jpg,MN,1,num_6,32,num_8,0.866802018718,,,2017_Oct_25_1855,60.006986515,MAFE4ImagesEEG,001,201846,
,,,,,,,,,,,,,,,,,,,,,,,,,,,,,,,,,,,,,,,,,,,space,7.64960909879,2017_Oct_25_1855,60.006986515,MAFE4ImagesEEG,001,201846,
AFNE01.JPG,AFNE01.JPG,AFNE01.JPG,AFNE01.JPG,AFNE01.JPG,AFNE01.JPG,,,,,,,,,,,,,,,,,,,,,0,0,0,3,,,AFSA05.jpg,AFNE08.jpg,AFSA18.jpg,AFNE02.jpg,AFNE08.jpg,FN,3,num_6,16,num_6,0.916781892302,,,2017_Oct_25_1855,60.006986515,MAFE4ImagesEEG,001,201846,
AFNE01.JPG,AFNE01.JPG,AFNE01.JPG,AFNE01.JPG,AFNE01.JPG,AFNE01.JPG,,,,,,,,,,,,,,,,,,,,,0,1,1,4,,,AFNE14.jpg,AFSA09.jpg,AFSA18.jpg,AFNE18.jpg,AFNE14.jpg,FN,3,num_8,32,num_4,0.816789429751,,,2017_Oct_25_1855,60.006986515,MAFE4ImagesEEG,001,201846,
AFNE01.JPG,AFNE01.JPG,AFNE01.JPG,AFNE01.JPG,AFNE01.JPG,AFNE01.JPG,,,,,,,,,,,,,,,,,,,,,0,2,2,9,,,AFSA07.jpg,AFNE07.jpg,AFNE12.jpg,AFSA19.jpg,AFSA07.jpg,FS,4,num_8,16,num_8,0.750129177817,,,2017_Oct_25_1855,60.006986515,MAFE4ImagesEEG,001,201846,
AFNE01.JPG,AFNE01.JPG,AFNE01.JPG,AFNE01.JPG,AFNE01.JPG,AFNE01.JPG,,,,,,,,,,,,,,,,,,,,,0,3,3,7,,,AFNE02.jpg,AFSA18.jpg,AFSA19.jpg,AFNE16.jpg,AFNE02.jpg,FN,3,num_8,32,num_2,0.750142328092,,,2017_Oct_25_1855,60.006986515,MAFE4ImagesEEG,001,201846,
AFNE01.JPG,AFNE01.JPG,AFNE01.JPG,AFNE01.JPG,AFNE01.JPG,AFNE01.JPG,,,,,,,,,,,,,,,,,,,,,0,4,4,1,,,AFSA04.jpg,AFSA10.jpg,AFNE06.jpg,AFNE18.jpg,AFNE18.jpg,FN,3,num_4,16,num_4,0.983571081539,,,2017_Oct_25_1855,60.006986515,MAFE4ImagesEEG,001,201846,
AFNE01.JPG,AFNE01.JPG,AFNE01.JPG,AFNE01.JPG,AFNE01.JPG,AFNE01.JPG,,,,,,,,,,,,,,,,,,,,,0,5,5,8,,,AFSA11.jpg,AFNE05.jpg,AFNE14.jpg,AFSA05.jpg,AFSA11.jpg,FS,4,num_8,32,num_2,0.916741799912,,,2017_Oct_25_1855,60.006986515,MAFE4ImagesEEG,001,201846,
AFNE01.JPG,AFNE01.JPG,AFNE01.JPG,AFNE01.JPG,AFNE01.JPG,AFNE01.JPG,,,,,,,,,,,,,,,,,,,,,0,6,6,2,,,AFNE05.jpg,AFNE17.jpg,AFSA02.jpg,AFSA14.jpg,AFSA02.jpg,FS,4,num_2,32,num_6,0.566814367194,,,2017_Oct_25_1855,60.006986515,MAFE4ImagesEEG,001,201846,
AFNE01.JPG,AFNE01.JPG,AFNE01.JPG,AFNE01.JPG,AFNE01.JPG,AFNE01.JPG,,,,,,,,,,,,,,,,,,,,,0,7,7,6,,,AFSA06.jpg,AFNE08.jpg,AFSA15.jpg,AFNE03.jpg,AFNE03.jpg,FN,3,num_4,16,num_4,0.866747172317,,,2017_Oct_25_1855,60.006986515,MAFE4ImagesEEG,001,201846,
AFNE01.JPG,AFNE01.JPG,AFNE01.JPG,AFNE01.JPG,AFNE01.JPG,AFNE01.JPG,,,,,,,,,,,,,,,,,,,,,0,8,8,0,,,AFSA10.jpg,AFNE13.jpg,AFSA11.jpg,AFNE15.jpg,AFNE13.jpg,FN,3,num_6,32,num_8,0.950129498611,,,2017_Oct_25_1855,60.006986515,MAFE4ImagesEEG,001,201846,
AFNE01.JPG,AFNE01.JPG,AFNE01.JPG,AFNE01.JPG,AFNE01.JPG,AFNE01.JPG,,,,,,,,,,,,,,,,,,,,,0,9,9,5,,,AFNE05.jpg,AFSA16.jpg,AFNE18.jpg,AFSA08.jpg,AFSA16.jpg,FS,4,num_6,32,num_4,1.18335041276,,,2017_Oct_25_1855,60.006986515,MAFE4ImagesEEG,001,201846,
AFNE01.JPG,AFNE01.JPG,AFNE01.JPG,AFNE01.JPG,AFNE01.JPG,AFNE01.JPG,,,,,,,,,,,,,,,,,,,,,1,0,10,3,,,AFNE08.jpg,AFSA14.jpg,AFSA08.jpg,AFNE01.jpg,AFSA14.jpg,FS,4,num_6,32,num_4,1.38338986365,,,2017_Oct_25_1855,60.006986515,MAFE4ImagesEEG,001,201846,
AFNE01.JPG,AFNE01.JPG,AFNE01.JPG,AFNE01.JPG,AFNE01.JPG,AFNE01.JPG,,,,,,,,,,,,,,,,,,,,,1,1,11,9,,,AFNE02.jpg,AFNE07.jpg,AFSA09.jpg,AFSA11.jpg,AFNE02.jpg,FN,3,num_8,32,num_6,1.80006158201,,,2017_Oct_25_1855,60.006986515,MAFE4ImagesEEG,001,201846,
AFNE01.JPG,AFNE01.JPG,AFNE01.JPG,AFNE01.JPG,AFNE01.JPG,AFNE01.JPG,,,,,,,,,,,,,,,,,,,,,1,2,12,6,,,AFNE03.jpg,AFSA02.jpg,AFSA07.jpg,AFNE11.jpg,AFNE11.jpg,FN,3,num_4,32,num_6,2.39999326447,,,2017_Oct_25_1855,60.006986515,MAFE4ImagesEEG,001,201846,
AFNE01.JPG,AFNE01.JPG,AFNE01.JPG,AFNE01.JPG,AFNE01.JPG,AFNE01.JPG,,,,,,,,,,,,,,,,,,,,,1,3,13,1,,,AFSA12.jpg,AFNE01.jpg,AFNE11.jpg,AFSA09.jpg,AFSA09.jpg,FS,4,num_4,32,num_8,0.850105924183,,,2017_Oct_25_1855,60.006986515,MAFE4ImagesEEG,001,201846,
AFNE01.JPG,AFNE01.JPG,AFNE01.JPG,AFNE01.JPG,AFNE01.JPG,AFNE01.JPG,,,,,,,,,,,,,,,,,,,,,1,4,14,8,,,AFNE20.jpg,AFNE16.jpg,AFSA20.jpg,AFSA02.jpg,AFNE16.jpg,FN,3,num_6,32,num_4,0.716803061077,,,2017_Oct_25_1855,60.006986515,MAFE4ImagesEEG,001,201846,
AFNE01.JPG,AFNE01.JPG,AFNE01.JPG,AFNE01.JPG,AFNE01.JPG,AFNE01.JPG,,,,,,,,,,,,,,,,,,,,,1,5,15,0,,,AFSA04.jpg,AFNE03.jpg,AFNE18.jpg,AFSA03.jpg,AFNE18.jpg,FN,3,num_2,32,num_8,0.750153554021,,,2017_Oct_25_1855,60.006986515,MAFE4ImagesEEG,001,201846,
AFNE01.JPG,AFNE01.JPG,AFNE01.JPG,AFNE01.JPG,AFNE01.JPG,AFNE01.JPG,,,,,,,,,,,,,,,,,,,,,1,6,16,2,,,AFNE04.jpg,AFSA01.jpg,AFNE15.jpg,AFSA14.jpg,AFNE04.jpg,FN,3,num_8,32,num_6,0.667001839378,,,2017_Oct_25_1855,60.006986515,MAFE4ImagesEEG,001,201846,
AFNE01.JPG,AFNE01.JPG,AFNE01.JPG,AFNE01.JPG,AFNE01.JPG,AFNE01.JPG,,,,,,,,,,,,,,,,,,,,,1,7,17,4,,,AFNE19.jpg,AFSA07.jpg,AFNE12.jpg,AFSA10.jpg,AFNE12.jpg,FN,3,num_2,32,num_4,1.06679271732,,,2017_Oct_25_1855,60.006986515,MAFE4ImagesEEG,001,201846,
AFNE01.JPG,AFNE01.JPG,AFNE01.JPG,AFNE01.JPG,AFNE01.JPG,AFNE01.JPG,,,,,,,,,,,,,,,,,,,,,1,8,18,5,,,AFSA04.jpg,AFNE16.jpg,AFSA03.jpg,AFNE20.jpg,AFNE20.jpg,FN,3,num_4,32,num_8,0.650007136399,,,2017_Oct_25_1855,60.006986515,MAFE4ImagesEEG,001,201846,
AFNE01.JPG,AFNE01.JPG,AFNE01.JPG,AFNE01.JPG,AFNE01.JPG,AFNE01.JPG,,,,,,,,,,,,,,,,,,,,,1,9,19,7,,,AFSA14.jpg,AFNE07.jpg,AFSA17.jpg,AFNE10.jpg,AFSA17.jpg,FS,4,num_2,32,num_6,0.900136474636,,,2017_Oct_25_1855,60.006986515,MAFE4ImagesEEG,001,201846,
AFNE01.JPG,AFNE01.JPG,AFNE01.JPG,AFNE01.JPG,AFNE01.JPG,AFNE01.JPG,,,,,,,,,,,,,,,,,,,,,2,0,20,9,,,AFSA02.jpg,AFNE01.jpg,AFSA06.jpg,AFNE09.jpg,AFNE09.jpg,FN,3,num_4,32,num_2,1.38347421819,,,2017_Oct_25_1855,60.006986515,MAFE4ImagesEEG,001,201846,
AFNE01.JPG,AFNE01.JPG,AFNE01.JPG,AFNE01.JPG,AFNE01.JPG,AFNE01.JPG,,,,,,,,,,,,,,,,,,,,,2,1,21,3,,,AFNE13.jpg,AFNE04.jpg,AFSA16.jpg,AFSA19.jpg,AFNE04.jpg,FN,3,num_6,32,num_4,0.533522248967,,,2017_Oct_25_1855,60.006986515,MAFE4ImagesEEG,001,201846,
AFNE01.JPG,AFNE01.JPG,AFNE01.JPG,AFNE01.JPG,AFNE01.JPG,AFNE01.JPG,,,,,,,,,,,,,,,,,,,,,2,2,22,2,,,AFSA07.jpg,AFNE01.jpg,AFNE04.jpg,AFSA04.jpg,AFSA07.jpg,FS,4,num_8,16,num_8,0.650196372648,,,2017_Oct_25_1855,60.006986515,MAFE4ImagesEEG,001,201846,
AFNE01.JPG,AFNE01.JPG,AFNE01.JPG,AFNE01.JPG,AFNE01.JPG,AFNE01.JPG,,,,,,,,,,,,,,,,,,,,,2,3,23,6,,,AFSA13.jpg,AFSA20.jpg,AFNE02.jpg,AFNE05.jpg,AFNE02.jpg,FN,3,num_2,16,num_2,1.16670114617,,,2017_Oct_25_1855,60.006986515,MAFE4ImagesEEG,001,201846,
AFNE01.JPG,AFNE01.JPG,AFNE01.JPG,AFNE01.JPG,AFNE01.JPG,AFNE01.JPG,,,,,,,,,,,,,,,,,,,,,2,4,24,1,,,AFNE17.jpg,AFNE13.jpg,AFSA18.jpg,AFSA11.jpg,AFNE17.jpg,FN,3,num_8,32,num_4,1.08348656667,,,2017_Oct_25_1855,60.006986515,MAFE4ImagesEEG,001,201846,
AFNE01.JPG,AFNE01.JPG,AFNE01.JPG,AFNE01.JPG,AFNE01.JPG,AFNE01.JPG,,,,,,,,,,,,,,,,,,,,,2,5,25,7,,,AFNE03.jpg,AFSA02.jpg,AFSA05.jpg,AFNE11.jpg,AFSA02.jpg,FS,4,num_6,32,num_4,1.30014256865,,,2017_Oct_25_1855,60.006986515,MAFE4ImagesEEG,001,201846,
AFNE01.JPG,AFNE01.JPG,AFNE01.JPG,AFNE01.JPG,AFNE01.JPG,AFNE01.JPG,,,,,,,,,,,,,,,,,,,,,2,6,26,8,,,AFSA07.jpg,AFNE15.jpg,AFNE01.jpg,AFSA14.jpg,AFNE15.jpg,FN,3,num_6,32,num_8,1.10008451482,,,2017_Oct_25_1855,60.006986515,MAFE4ImagesEEG,001,201846,
AFNE01.JPG,AFNE01.JPG,AFNE01.JPG,AFNE01.JPG,AFNE01.JPG,AFNE01.JPG,,,,,,,,,,,,,,,,,,,,,2,7,27,0,,,AFNE04.jpg,AFSA19.jpg,AFSA06.jpg,AFNE10.jpg,AFSA19.jpg,FS,4,num_6,16,num_6,1.1667624074,,,2017_Oct_25_1855,60.006986515,MAFE4ImagesEEG,001,201846,
AFNE01.JPG,AFNE01.JPG,AFNE01.JPG,AFNE01.JPG,AFNE01.JPG,AFNE01.JPG,,,,,,,,,,,,,,,,,,,,,2,8,28,4,,,AFSA11.jpg,AFNE13.jpg,AFSA09.jpg,AFNE11.jpg,AFSA11.jpg,FS,4,num_8,32,num_2,1.03343420592,,,2017_Oct_25_1855,60.006986515,MAFE4ImagesEEG,001,201846,
AFNE01.JPG,AFNE01.JPG,AFNE01.JPG,AFNE01.JPG,AFNE01.JPG,AFNE01.JPG,,,,,,,,,,,,,,,,,,,,,2,9,29,5,,,AFNE03.jpg,AFSA15.jpg,AFSA12.jpg,AFNE19.jpg,AFSA12.jpg,FS,4,num_2,32,num_8,1.31656635541,,,2017_Oct_25_1855,60.006986515,MAFE4ImagesEEG,001,201846,
AFNE01.JPG,AFNE01.JPG,AFNE01.JPG,AFNE01.JPG,AFNE01.JPG,AFNE01.JPG,,,,,,,,,,,,,,,,,,,,,3,0,30,2,,,AFNE13.jpg,AFSA15.jpg,AFSA02.jpg,AFNE03.jpg,AFNE13.jpg,FN,3,num_8,32,num_4,0.783529385342,,,2017_Oct_25_1855,60.006986515,MAFE4ImagesEEG,001,201846,
AFNE01.JPG,AFNE01.JPG,AFNE01.JPG,AFNE01.JPG,AFNE01.JPG,AFNE01.JPG,,,,,,,,,,,,,,,,,,,,,3,1,31,4,,,AFNE01.jpg,AFNE09.jpg,AFSA01.jpg,AFSA18.jpg,AFSA18.jpg,FS,4,num_4,32,num_2,0.933470609831,,,2017_Oct_25_1855,60.006986515,MAFE4ImagesEEG,001,201846,
AFNE01.JPG,AFNE01.JPG,AFNE01.JPG,AFNE01.JPG,AFNE01.JPG,AFNE01.JPG,,,,,,,,,,,,,,,,,,,,,3,2,32,0,,,AFSA06.jpg,AFNE14.jpg,AFSA17.jpg,AFNE13.jpg,AFSA17.jpg,FS,4,num_2,32,num_6,1.11672704585,,,2017_Oct_25_1855,60.006986515,MAFE4ImagesEEG,001,201846,
AFNE01.JPG,AFNE01.JPG,AFNE01.JPG,AFNE01.JPG,AFNE01.JPG,AFNE01.JPG,,,,,,,,,,,,,,,,,,,,,3,3,33,7,,,AFNE13.jpg,AFSA19.jpg,AFSA17.jpg,AFNE15.jpg,AFNE15.jpg,FN,3,num_4,32,num_8,1.00016197341,,,2017_Oct_25_1855,60.006986515,MAFE4ImagesEEG,001,201846,
AFNE01.JPG,AFNE01.JPG,AFNE01.JPG,AFNE01.JPG,AFNE01.JPG,AFNE01.JPG,,,,,,,,,,,,,,,,,,,,,3,4,34,5,,,AFNE18.jpg,AFSA13.jpg,AFNE06.jpg,AFSA11.jpg,AFSA13.jpg,FS,4,num_6,32,num_4,1.55009550019,,,2017_Oct_25_1855,60.006986515,MAFE4ImagesEEG,001,201846,
AFNE01.JPG,AFNE01.JPG,AFNE01.JPG,AFNE01.JPG,AFNE01.JPG,AFNE01.JPG,,,,,,,,,,,,,,,,,,,,,3,5,35,1,,,AFSA12.jpg,AFSA03.jpg,AFNE09.jpg,AFNE17.jpg,AFNE17.jpg,FN,3,num_4,32,num_6,0.850168147706,,,2017_Oct_25_1855,60.006986515,MAFE4ImagesEEG,001,201846,
AFNE01.JPG,AFNE01.JPG,AFNE01.JPG,AFNE01.JPG,AFNE01.JPG,AFNE01.JPG,,,,,,,,,,,,,,,,,,,,,3,6,36,9,,,AFNE06.jpg,AFNE14.jpg,AFSA13.jpg,AFSA19.jpg,AFSA19.jpg,FS,4,num_4,32,num_8,0.650105603505,,,2017_Oct_25_1855,60.006986515,MAFE4ImagesEEG,001,201846,
AFNE01.JPG,AFNE01.JPG,AFNE01.JPG,AFNE01.JPG,AFNE01.JPG,AFNE01.JPG,,,,,,,,,,,,,,,,,,,,,3,7,37,6,,,AFNE14.jpg,AFSA17.jpg,AFNE13.jpg,AFSA07.jpg,AFNE14.jpg,FN,3,num_8,32,num_4,0.966799292364,,,2017_Oct_25_1855,60.006986515,MAFE4ImagesEEG,001,201846,
AFNE01.JPG,AFNE01.JPG,AFNE01.JPG,AFNE01.JPG,AFNE01.JPG,AFNE01.JPG,,,,,,,,,,,,,,,,,,,,,3,8,38,8,,,AFSA03.jpg,AFNE06.jpg,AFSA17.jpg,AFNE01.jpg,AFSA03.jpg,FS,4,num_8,32,num_6,1.11679825012,,,2017_Oct_25_1855,60.006986515,MAFE4ImagesEEG,001,201846,
AFNE01.JPG,AFNE01.JPG,AFNE01.JPG,AFNE01.JPG,AFNE01.JPG,AFNE01.JPG,,,,,,,,,,,,,,,,,,,,,3,9,39,3,,,AFNE09.jpg,AFSA03.jpg,AFSA06.jpg,AFNE16.jpg,AFSA06.jpg,FS,4,num_2,16,num_2,2.21678718459,,,2017_Oct_25_1855,60.006986515,MAFE4ImagesEEG,001,201846,
AFNE01.JPG,AFNE01.JPG,AFNE01.JPG,AFNE01.JPG,AFNE01.JPG,AFNE01.JPG,,,,,,,,,,,,,,,,,,,,,4,0,40,6,,,AFSA07.jpg,AFNE06.jpg,AFSA02.jpg,AFNE13.jpg,AFNE13.jpg,FN,3,num_4,16,num_4,1.25008764211,,,2017_Oct_25_1855,60.006986515,MAFE4ImagesEEG,001,201846,
