IPosition2,IPosition3,IPosition1,IPosition6,IPosition4,IPosition5,TrialsF1.thisRepN,TrialsF1.thisTrialN,TrialsF1.thisN,TrialsF1.thisIndex,TrialsM1.thisRepN,TrialsM1.thisTrialN,TrialsM1.thisN,TrialsM1.thisIndex,TrialsF2.thisRepN,TrialsF2.thisTrialN,TrialsF2.thisN,TrialsF2.thisIndex,TrialsM2.thisRepN,TrialsM2.thisTrialN,TrialsM2.thisN,TrialsM2.thisIndex,TrialsF3.thisRepN,TrialsF3.thisTrialN,TrialsF3.thisN,TrialsF3.thisIndex,TrialsM3.thisRepN,TrialsM3.thisTrialN,TrialsM3.thisN,TrialsM3.thisIndex,InstrKey_resp.keys,InstrKey_resp.rt,Image0 _Position,Image1 _Position,Image2 _Position,Image3 _Position,Center_image,condition,code,correct_answer,accuracy,Key_Resp.keys,Key_Resp.rt,BreakKey_resp.keys,BreakKey_resp.rt,date,frameRate,expName,session,participant,
,,,,,,,,,,,,,,,,,,,,,,,,,,,,,,space,14.7994374229,,,,,,,,,,,,,,2017_Oct_17_1227,60.0042148131,FEMA4ImagesEEG,001,201965,
AFNE22.JPG,AFSA24.JPG,AFSA22.JPG,AFNE25.JPG,AFNE24.JPG,AFSA25.JPG,0,0,0,6,,,,,,,,,,,,,,,,,,,,,,,AFNE03.jpg,AFSA05.jpg,AFSA18.jpg,AFNE05.jpg,AFSA18.jpg,FS,4,num_2,32,num_4,0.783457218964,,,2017_Oct_17_1227,60.0042148131,FEMA4ImagesEEG,001,201965,
AMSA21.JPG,AMNE22.JPG,AMNE21.JPG,AMSA23.JPG,AMSA22.JPG,AMNE23.JPG,0,1,1,1,,,,,,,,,,,,,,,,,,,,,,,AFSA03.jpg,AFNE19.jpg,AFSA18.jpg,AFNE06.jpg,AFNE06.jpg,FN,3,num_4,32,num_2,0.983455615266,,,2017_Oct_17_1227,60.0042148131,FEMA4ImagesEEG,001,201965,
AFSA21.JPG,AFNE22.JPG,AFNE21.JPG,AFSA23.JPG,AFSA22.JPG,AFNE23.JPG,0,2,2,0,,,,,,,,,,,,,,,,,,,,,,,AFSA13.jpg,AFNE08.jpg,AFSA19.jpg,AFNE16.jpg,AFSA19.jpg,FS,4,num_2,32,num_6,0.0501588462357,,,2017_Oct_17_1227,60.0042148131,FEMA4ImagesEEG,001,201965,
AFSA21.JPG,AFNE23.JPG,AFNE21.JPG,AFSA25.JPG,AFNE25.JPG,AFSA23.JPG,0,3,3,4,,,,,,,,,,,,,,,,,,,,,,,AFSA16.jpg,AFNE08.jpg,AFSA12.jpg,AFNE15.jpg,AFSA16.jpg,FS,4,num_8,32,num_4,0.850109773092,,,2017_Oct_17_1227,60.0042148131,FEMA4ImagesEEG,001,201965,
AMNE22.JPG,AMSA24.JPG,AMSA22.JPG,AMNE25.JPG,AMNE24.JPG,AMSA25.JPG,0,4,4,7,,,,,,,,,,,,,,,,,,,,,,,AFNE06.jpg,AFSA01.jpg,AFSA18.jpg,AFNE03.jpg,AFNE06.jpg,FN,3,num_8,16,num_8,0.766739314163,,,2017_Oct_17_1227,60.0042148131,FEMA4ImagesEEG,001,201965,
AMSA21.JPG,AMNE23.JPG,AMNE21.JPG,AMSA25.JPG,AMNE25.JPG,AMSA23.JPG,0,5,5,5,,,,,,,,,,,,,,,,,,,,,,,AFNE03.jpg,AFNE17.jpg,AFSA10.jpg,AFSA06.jpg,AFNE03.jpg,FN,3,num_8,32,num_2,0.983502443232,,,2017_Oct_17_1227,60.0042148131,FEMA4ImagesEEG,001,201965,
AFNE23.JPG,AFNE24.JPG,AFNE22.JPG,AFSA24.JPG,AFSA22.JPG,AFSA23.JPG,0,6,6,8,,,,,,,,,,,,,,,,,,,,,,,AFNE09.jpg,AFNE04.jpg,AFSA10.jpg,AFSA03.jpg,AFSA10.jpg,FS,4,num_2,32,num_6,0.666642931944,,,2017_Oct_17_1227,60.0042148131,FEMA4ImagesEEG,001,201965,
AMSA25.JPG,AMNE24.JPG,AMSA24.JPG,AMNE26.JPG,AMSA21.JPG,AMNE25.JPG,0,7,7,3,,,,,,,,,,,,,,,,,,,,,,,AFNE13.jpg,AFNE12.jpg,AFSA13.jpg,AFSA09.jpg,AFNE12.jpg,FN,3,num_6,16,num_6,0.616793599323,,,2017_Oct_17_1227,60.0042148131,FEMA4ImagesEEG,001,201965,
AFSA25.JPG,AFNE24.JPG,AFSA24.JPG,AFNE21.JPG,AFSA21.JPG,AFNE25.JPG,0,8,8,2,,,,,,,,,,,,,,,,,,,,,,,AFSA15.jpg,AFNE11.jpg,AFNE20.jpg,AFSA06.jpg,AFSA15.jpg,FS,4,num_8,32,num_2,0.91676393092,,,2017_Oct_17_1227,60.0042148131,FEMA4ImagesEEG,001,201965,
AMNE23.JPG,AMNE24.JPG,AMNE22.JPG,AMSA24.JPG,AMSA22.JPG,AMSA23.JPG,0,9,9,9,,,,,,,,,,,,,,,,,,,,,,,AFNE07.jpg,AFSA14.jpg,AFSA13.jpg,AFNE12.jpg,AFNE07.jpg,FN,3,num_8,32,num_4,1.85031632933,,,2017_Oct_17_1227,60.0042148131,FEMA4ImagesEEG,001,201965,
AFSA21.JPG,AFNE23.JPG,AFNE21.JPG,AFSA25.JPG,AFNE25.JPG,AFSA23.JPG,,,,,0,0,0,4,,,,,,,,,,,,,,,,,,,AMNE12.jpg,AMSA19.jpg,AMNE16.jpg,AMSA15.jpg,AMNE12.jpg,MN,1,num_8,32,num_2,0.633419451888,,,2017_Oct_17_1227,60.0042148131,FEMA4ImagesEEG,001,201965,
AMSA25.JPG,AMNE24.JPG,AMSA24.JPG,AMNE26.JPG,AMSA21.JPG,AMNE25.JPG,,,,,0,1,1,3,,,,,,,,,,,,,,,,,,,AMNE06.jpg,AMSA19.jpg,AMNE16.jpg,AMSA15.jpg,AMNE06.jpg,MN,1,num_8,16,num_8,0.416780449003,,,2017_Oct_17_1227,60.0042148131,FEMA4ImagesEEG,001,201965,
AMSA21.JPG,AMNE22.JPG,AMNE21.JPG,AMSA23.JPG,AMSA22.JPG,AMNE23.JPG,,,,,0,2,2,1,,,,,,,,,,,,,,,,,,,AMSA14.jpg,AMNE05.jpg,AMNE04.jpg,AMSA15.jpg,AMNE04.jpg,MN,1,num_2,32,num_4,0.433515673738,,,2017_Oct_17_1227,60.0042148131,FEMA4ImagesEEG,001,201965,
AMNE22.JPG,AMSA24.JPG,AMSA22.JPG,AMNE25.JPG,AMNE24.JPG,AMSA25.JPG,,,,,0,3,3,7,,,,,,,,,,,,,,,,,,,AMSA03.jpg,AMSA11.jpg,AMNE11.jpg,AMNE01.jpg,AMNE01.jpg,MN,1,num_4,32,num_2,0.666768661828,,,2017_Oct_17_1227,60.0042148131,FEMA4ImagesEEG,001,201965,
AMNE23.JPG,AMNE24.JPG,AMNE22.JPG,AMSA24.JPG,AMSA22.JPG,AMSA23.JPG,,,,,0,4,4,9,,,,,,,,,,,,,,,,,,,AMSA07.jpg,AMNE08.jpg,AMNE18.jpg,AMSA11.jpg,AMNE18.jpg,MN,1,num_2,32,num_6,0.38347934999,,,2017_Oct_17_1227,60.0042148131,FEMA4ImagesEEG,001,201965,
AFSA21.JPG,AFNE22.JPG,AFNE21.JPG,AFSA23.JPG,AFSA22.JPG,AFNE23.JPG,,,,,0,5,5,0,,,,,,,,,,,,,,,,,,,AMSA14.jpg,AMSA19.jpg,AMNE12.jpg,AMNE16.jpg,AMSA19.jpg,MS,2,num_6,32,num_4,0.250133507816,,,2017_Oct_17_1227,60.0042148131,FEMA4ImagesEEG,001,201965,
AMSA21.JPG,AMNE23.JPG,AMNE21.JPG,AMSA25.JPG,AMNE25.JPG,AMSA23.JPG,,,,,0,6,6,5,,,,,,,,,,,,,,,,,,,AMSA06.jpg,AMSA10.jpg,AMNE02.jpg,AMNE06.jpg,AMNE02.jpg,MN,1,num_2,16,num_2,0.516783816768,,,2017_Oct_17_1227,60.0042148131,FEMA4ImagesEEG,001,201965,
AFNE23.JPG,AFNE24.JPG,AFNE22.JPG,AFSA24.JPG,AFSA22.JPG,AFSA23.JPG,,,,,0,7,7,8,,,,,,,,,,,,,,,,,,,AMSA11.jpg,AMSA04.jpg,AMNE01.jpg,AMNE18.jpg,AMSA04.jpg,MS,2,num_6,16,num_6,0.533466119486,,,2017_Oct_17_1227,60.0042148131,FEMA4ImagesEEG,001,201965,
AFSA25.JPG,AFNE24.JPG,AFSA24.JPG,AFNE21.JPG,AFSA21.JPG,AFNE25.JPG,,,,,0,8,8,2,,,,,,,,,,,,,,,,,,,AMNE18.jpg,AMSA11.jpg,AMSA12.jpg,AMNE03.jpg,AMSA11.jpg,MS,2,num_6,32,num_8,0.350144894068,,,2017_Oct_17_1227,60.0042148131,FEMA4ImagesEEG,001,201965,
AFNE22.JPG,AFSA24.JPG,AFSA22.JPG,AFNE25.JPG,AFNE24.JPG,AFSA25.JPG,,,,,0,9,9,6,,,,,,,,,,,,,,,,,,,AMNE07.jpg,AMNE09.jpg,AMSA13.jpg,AMSA08.jpg,AMSA08.jpg,MS,2,num_4,32,num_6,0.583438616073,,,2017_Oct_17_1227,60.0042148131,FEMA4ImagesEEG,001,201965,
AMSA21.JPG,AMNE23.JPG,AMNE21.JPG,AMSA25.JPG,AMNE25.JPG,AMSA23.JPG,,,,,,,,,0,0,0,5,,,,,,,,,,,,,,,AFSA02.jpg,AFNE06.jpg,AFSA01.jpg,AFNE15.jpg,AFSA02.jpg,FS,4,num_8,32,num_2,0.683451285283,,,2017_Oct_17_1227,60.0042148131,FEMA4ImagesEEG,001,201965,
AFSA25.JPG,AFNE24.JPG,AFSA24.JPG,AFNE21.JPG,AFSA21.JPG,AFNE25.JPG,,,,,,,,,0,1,1,2,,,,,,,,,,,,,,,AFSA04.jpg,AFSA10.jpg,AFNE11.jpg,AFNE09.jpg,AFNE11.jpg,FN,3,num_2,16,num_2,1.13342314039,,,2017_Oct_17_1227,60.0042148131,FEMA4ImagesEEG,001,201965,
AFSA21.JPG,AFNE23.JPG,AFNE21.JPG,AFSA25.JPG,AFNE25.JPG,AFSA23.JPG,,,,,,,,,0,2,2,4,,,,,,,,,,,,,,,AFNE12.jpg,AFNE20.jpg,AFSA20.jpg,AFSA18.jpg,AFSA18.jpg,FS,4,num_4,16,num_4,0.9835111032,,,2017_Oct_17_1227,60.0042148131,FEMA4ImagesEEG,001,201965,
AFNE22.JPG,AFSA24.JPG,AFSA22.JPG,AFNE25.JPG,AFNE24.JPG,AFSA25.JPG,,,,,,,,,0,3,3,6,,,,,,,,,,,,,,,AFSA07.jpg,AFNE17.jpg,AFSA15.jpg,AFNE05.jpg,AFSA07.jpg,FS,4,num_8,16,num_8,0.683474378528,,,2017_Oct_17_1227,60.0042148131,FEMA4ImagesEEG,001,201965,
AMNE23.JPG,AMNE24.JPG,AMNE22.JPG,AMSA24.JPG,AMSA22.JPG,AMSA23.JPG,,,,,,,,,0,4,4,9,,,,,,,,,,,,,,,AFNE15.jpg,AFSA04.jpg,AFNE16.jpg,AFSA18.jpg,AFNE16.jpg,FN,3,num_2,16,num_2,0.950094537967,,,2017_Oct_17_1227,60.0042148131,FEMA4ImagesEEG,001,201965,
AFSA21.JPG,AFNE22.JPG,AFNE21.JPG,AFSA23.JPG,AFSA22.JPG,AFNE23.JPG,,,,,,,,,0,5,5,0,,,,,,,,,,,,,,,AFNE18.jpg,AFSA14.jpg,AFSA06.jpg,AFNE02.jpg,AFSA06.jpg,FS,4,num_2,32,num_6,0.500109532538,,,2017_Oct_17_1227,60.0042148131,FEMA4ImagesEEG,001,201965,
AMSA21.JPG,AMNE22.JPG,AMNE21.JPG,AMSA23.JPG,AMSA22.JPG,AMNE23.JPG,,,,,,,,,0,6,6,1,,,,,,,,,,,,,,,AFSA08.jpg,AFNE14.jpg,AFSA13.jpg,AFNE12.jpg,AFNE12.jpg,FN,3,num_4,16,num_4,0.583440219771,,,2017_Oct_17_1227,60.0042148131,FEMA4ImagesEEG,001,201965,
AMSA25.JPG,AMNE24.JPG,AMSA24.JPG,AMNE26.JPG,AMSA21.JPG,AMNE25.JPG,,,,,,,,,0,7,7,3,,,,,,,,,,,,,,,AFNE16.jpg,AFSA08.jpg,AFSA15.jpg,AFNE07.jpg,AFSA08.jpg,FS,4,num_6,32,num_8,0.333480232023,,,2017_Oct_17_1227,60.0042148131,FEMA4ImagesEEG,001,201965,
AMNE22.JPG,AMSA24.JPG,AMSA22.JPG,AMNE25.JPG,AMNE24.JPG,AMSA25.JPG,,,,,,,,,0,8,8,7,,,,,,,,,,,,,,,AFNE08.jpg,AFSA07.jpg,AFNE02.jpg,AFSA14.jpg,AFNE02.jpg,FN,3,num_2,16,num_2,0.666811961659,,,2017_Oct_17_1227,60.0042148131,FEMA4ImagesEEG,001,201965,
AFNE23.JPG,AFNE24.JPG,AFNE22.JPG,AFSA24.JPG,AFSA22.JPG,AFSA23.JPG,,,,,,,,,0,9,9,8,,,,,,,,,,,,,,,AFSA08.jpg,AFNE08.jpg,AFSA20.jpg,AFNE20.jpg,AFNE20.jpg,FN,3,num_4,32,num_6,0.33350781562,,,2017_Oct_17_1227,60.0042148131,FEMA4ImagesEEG,001,201965,
AMNE22.JPG,AMSA24.JPG,AMSA22.JPG,AMNE25.JPG,AMNE24.JPG,AMSA25.JPG,,,,,,,,,,,,,0,0,0,7,,,,,,,,,,,AMSA07.jpg,AMSA10.jpg,AMNE15.jpg,AMNE18.jpg,AMSA10.jpg,MS,2,num_6,32,num_8,1.71674532803,,,2017_Oct_17_1227,60.0042148131,FEMA4ImagesEEG,001,201965,
AFNE23.JPG,AFNE24.JPG,AFNE22.JPG,AFSA24.JPG,AFSA22.JPG,AFSA23.JPG,,,,,,,,,,,,,0,1,1,8,,,,,,,,,,,AMNE10.jpg,AMSA17.jpg,AMSA05.jpg,AMNE15.jpg,AMNE15.jpg,MN,1,num_4,16,num_4,0.700142889445,,,2017_Oct_17_1227,60.0042148131,FEMA4ImagesEEG,001,201965,
AFSA21.JPG,AFNE23.JPG,AFNE21.JPG,AFSA25.JPG,AFNE25.JPG,AFSA23.JPG,,,,,,,,,,,,,0,2,2,4,,,,,,,,,,,AMSA06.jpg,AMNE03.jpg,AMSA18.jpg,AMNE05.jpg,AMNE05.jpg,MN,1,num_4,32,num_6,0.883455134158,,,2017_Oct_17_1227,60.0042148131,FEMA4ImagesEEG,001,201965,
AFSA25.JPG,AFNE24.JPG,AFSA24.JPG,AFNE21.JPG,AFSA21.JPG,AFNE25.JPG,,,,,,,,,,,,,0,3,3,2,,,,,,,,,,,AMNE08.jpg,AMSA18.jpg,AMSA14.jpg,AMNE09.jpg,AMSA18.jpg,MS,2,num_6,16,num_6,0.883442304577,,,2017_Oct_17_1227,60.0042148131,FEMA4ImagesEEG,001,201965,
AMSA25.JPG,AMNE24.JPG,AMSA24.JPG,AMNE26.JPG,AMSA21.JPG,AMNE25.JPG,,,,,,,,,,,,,0,4,4,3,,,,,,,,,,,AMNE17.jpg,AMNE15.jpg,AMSA12.jpg,AMSA07.jpg,AMSA07.jpg,MS,2,num_4,32,num_8,0.699947879832,,,2017_Oct_17_1227,60.0042148131,FEMA4ImagesEEG,001,201965,
AFSA21.JPG,AFNE22.JPG,AFNE21.JPG,AFSA23.JPG,AFSA22.JPG,AFNE23.JPG,,,,,,,,,,,,,0,5,5,0,,,,,,,,,,,AMSA13.jpg,AMNE03.jpg,AMSA16.jpg,AMNE02.jpg,AMNE03.jpg,MN,1,num_6,32,num_8,1.16670884391,,,2017_Oct_17_1227,60.0042148131,FEMA4ImagesEEG,001,201965,
AMSA21.JPG,AMNE22.JPG,AMNE21.JPG,AMSA23.JPG,AMSA22.JPG,AMNE23.JPG,,,,,,,,,,,,,0,6,6,1,,,,,,,,,,,AMSA16.jpg,AMSA17.jpg,AMNE06.jpg,AMNE01.jpg,AMSA16.jpg,MS,2,num_8,32,num_4,0.966736748246,,,2017_Oct_17_1227,60.0042148131,FEMA4ImagesEEG,001,201965,
AMNE23.JPG,AMNE24.JPG,AMNE22.JPG,AMSA24.JPG,AMSA22.JPG,AMSA23.JPG,,,,,,,,,,,,,0,7,7,9,,,,,,,,,,,AMSA16.jpg,AMSA17.jpg,AMNE03.jpg,AMNE12.jpg,AMNE03.jpg,MN,1,num_2,32,num_6,0.900131663564,,,2017_Oct_17_1227,60.0042148131,FEMA4ImagesEEG,001,201965,
AMSA21.JPG,AMNE23.JPG,AMNE21.JPG,AMSA25.JPG,AMNE25.JPG,AMSA23.JPG,,,,,,,,,,,,,0,8,8,5,,,,,,,,,,,AMSA18.jpg,AMNE14.jpg,AMSA10.jpg,AMNE09.jpg,AMSA18.jpg,MS,2,num_8,16,num_8,0.850111056051,,,2017_Oct_17_1227,60.0042148131,FEMA4ImagesEEG,001,201965,
AFNE22.JPG,AFSA24.JPG,AFSA22.JPG,AFNE25.JPG,AFNE24.JPG,AFSA25.JPG,,,,,,,,,,,,,0,9,9,6,,,,,,,,,,,AMNE12.jpg,AMSA02.jpg,AMSA17.jpg,AMNE01.jpg,AMNE12.jpg,MN,1,num_8,32,num_2,1.45006968066,,,2017_Oct_17_1227,60.0042148131,FEMA4ImagesEEG,001,201965,
AFNE22.JPG,AFSA24.JPG,AFSA22.JPG,AFNE25.JPG,AFNE24.JPG,AFSA25.JPG,,,,,,,,,,,,,,,,,0,0,0,6,,,,,,,AFNE11.jpg,AFSA02.jpg,AFSA09.jpg,AFNE16.jpg,AFNE16.jpg,FN,3,num_4,16,num_4,0.5834469553,,,2017_Oct_17_1227,60.0042148131,FEMA4ImagesEEG,001,201965,
AMNE22.JPG,AMSA24.JPG,AMSA22.JPG,AMNE25.JPG,AMNE24.JPG,AMSA25.JPG,,,,,,,,,,,,,,,,,0,1,1,7,,,,,,,AFSA19.jpg,AFNE14.jpg,AFNE20.jpg,AFSA16.jpg,AFSA16.jpg,FS,4,num_4,32,num_8,0.916755270953,,,2017_Oct_17_1227,60.0042148131,FEMA4ImagesEEG,001,201965,
AMNE23.JPG,AMNE24.JPG,AMNE22.JPG,AMSA24.JPG,AMSA22.JPG,AMSA23.JPG,,,,,,,,,,,,,,,,,0,2,2,9,,,,,,,AFNE15.jpg,AFSA01.jpg,AFNE06.jpg,AFSA08.jpg,AFNE15.jpg,FN,3,num_8,32,num_2,0.400191481479,,,2017_Oct_17_1227,60.0042148131,FEMA4ImagesEEG,001,201965,
AMSA21.JPG,AMNE22.JPG,AMNE21.JPG,AMSA23.JPG,AMSA22.JPG,AMNE23.JPG,,,,,,,,,,,,,,,,,0,3,3,1,,,,,,,AFNE04.jpg,AFSA16.jpg,AFSA10.jpg,AFNE19.jpg,AFNE19.jpg,FN,3,num_4,16,num_4,0.866649667473,,,2017_Oct_17_1227,60.0042148131,FEMA4ImagesEEG,001,201965,
AFSA21.JPG,AFNE23.JPG,AFNE21.JPG,AFSA25.JPG,AFNE25.JPG,AFSA23.JPG,,,,,,,,,,,,,,,,,0,4,4,4,,,,,,,AFSA17.jpg,AFSA20.jpg,AFNE14.jpg,AFNE19.jpg,AFNE19.jpg,FN,3,num_4,16,num_4,0.950122763042,,,2017_Oct_17_1227,60.0042148131,FEMA4ImagesEEG,001,201965,
AFNE23.JPG,AFNE24.JPG,AFNE22.JPG,AFSA24.JPG,AFSA22.JPG,AFSA23.JPG,,,,,,,,,,,,,,,,,0,5,5,8,,,,,,,AFNE02.jpg,AFSA08.jpg,AFNE05.jpg,AFSA15.jpg,AFSA15.jpg,FS,4,num_4,16,num_4,0.783454973788,,,2017_Oct_17_1227,60.0042148131,FEMA4ImagesEEG,001,201965,
AFSA21.JPG,AFNE22.JPG,AFNE21.JPG,AFSA23.JPG,AFSA22.JPG,AFNE23.JPG,,,,,,,,,,,,,,,,,0,6,6,0,,,,,,,AFNE03.jpg,AFSA05.jpg,AFSA12.jpg,AFNE02.jpg,AFNE03.jpg,FN,3,num_8,16,num_8,1.16677748216,,,2017_Oct_17_1227,60.0042148131,FEMA4ImagesEEG,001,201965,
AFSA25.JPG,AFNE24.JPG,AFSA24.JPG,AFNE21.JPG,AFSA21.JPG,AFNE25.JPG,,,,,,,,,,,,,,,,,0,7,7,2,,,,,,,AFNE05.jpg,AFSA07.jpg,AFNE07.jpg,AFSA20.jpg,AFSA07.jpg,FS,4,num_6,16,num_6,0.333487288292,,,2017_Oct_17_1227,60.0042148131,FEMA4ImagesEEG,001,201965,
AMSA25.JPG,AMNE24.JPG,AMSA24.JPG,AMNE26.JPG,AMSA21.JPG,AMNE25.JPG,,,,,,,,,,,,,,,,,0,8,8,3,,,,,,,AFNE11.jpg,AFSA01.jpg,AFNE08.jpg,AFSA16.jpg,AFSA16.jpg,FS,4,num_4,16,num_4,0.566798971709,,,2017_Oct_17_1227,60.0042148131,FEMA4ImagesEEG,001,201965,
AMSA21.JPG,AMNE23.JPG,AMNE21.JPG,AMSA25.JPG,AMNE25.JPG,AMSA23.JPG,,,,,,,,,,,,,,,,,0,9,9,5,,,,,,,AFNE08.jpg,AFNE03.jpg,AFSA03.jpg,AFSA02.jpg,AFSA02.jpg,FS,4,num_4,32,num_8,0.283492019199,,,2017_Oct_17_1227,60.0042148131,FEMA4ImagesEEG,001,201965,
AFNE22.JPG,AFSA24.JPG,AFSA22.JPG,AFNE25.JPG,AFNE24.JPG,AFSA25.JPG,,,,,,,,,,,,,,,,,,,,,0,0,0,6,,,AMNE03.jpg,AMNE12.jpg,AMSA13.jpg,AMSA16.jpg,AMSA13.jpg,MS,2,num_2,16,num_2,1.05010464126,,,2017_Oct_17_1227,60.0042148131,FEMA4ImagesEEG,001,201965,
AFSA21.JPG,AFNE22.JPG,AFNE21.JPG,AFSA23.JPG,AFSA22.JPG,AFNE23.JPG,,,,,,,,,,,,,,,,,,,,,0,1,1,0,,,AMNE17.jpg,AMNE16.jpg,AMSA12.jpg,AMSA09.jpg,AMSA09.jpg,MS,2,num_4,16,num_4,0.933450723989,,,2017_Oct_17_1227,60.0042148131,FEMA4ImagesEEG,001,201965,
AMNE22.JPG,AMSA24.JPG,AMSA22.JPG,AMNE25.JPG,AMNE24.JPG,AMSA25.JPG,,,,,,,,,,,,,,,,,,,,,0,2,2,7,,,AMNE04.jpg,AMNE11.jpg,AMSA03.jpg,AMSA16.jpg,AMSA16.jpg,MS,2,num_4,32,num_6,0.866768661827,,,2017_Oct_17_1227,60.0042148131,FEMA4ImagesEEG,001,201965,
AFSA25.JPG,AFNE24.JPG,AFSA24.JPG,AFNE21.JPG,AFSA21.JPG,AFNE25.JPG,,,,,,,,,,,,,,,,,,,,,0,3,3,2,,,AMSA08.jpg,AMSA10.jpg,AMNE11.jpg,AMNE13.jpg,AMSA08.jpg,MS,2,num_8,32,num_4,0.650112980487,,,2017_Oct_17_1227,60.0042148131,FEMA4ImagesEEG,001,201965,
AMSA25.JPG,AMNE24.JPG,AMSA24.JPG,AMNE26.JPG,AMSA21.JPG,AMNE25.JPG,,,,,,,,,,,,,,,,,,,,,0,4,4,3,,,AMNE16.jpg,AMSA11.jpg,AMSA20.jpg,AMNE02.jpg,AMSA20.jpg,MS,2,num_2,32,num_6,0.450117470841,,,2017_Oct_17_1227,60.0042148131,FEMA4ImagesEEG,001,201965,
AFSA21.JPG,AFNE23.JPG,AFNE21.JPG,AFSA25.JPG,AFNE25.JPG,AFSA23.JPG,,,,,,,,,,,,,,,,,,,,,0,5,5,4,,,AMNE18.jpg,AMNE10.jpg,AMSA10.jpg,AMSA19.jpg,AMNE18.jpg,MN,1,num_8,16,num_8,0.616786222314,,,2017_Oct_17_1227,60.0042148131,FEMA4ImagesEEG,001,201965,
AFNE23.JPG,AFNE24.JPG,AFNE22.JPG,AFSA24.JPG,AFSA22.JPG,AFSA23.JPG,,,,,,,,,,,,,,,,,,,,,0,6,6,8,,,AMNE01.jpg,AMSA16.jpg,AMSA14.jpg,AMNE12.jpg,AMSA14.jpg,MS,2,num_2,16,num_2,0.517058369777,,,2017_Oct_17_1227,60.0042148131,FEMA4ImagesEEG,001,201965,
AMSA21.JPG,AMNE22.JPG,AMNE21.JPG,AMSA23.JPG,AMSA22.JPG,AMNE23.JPG,,,,,,,,,,,,,,,,,,,,,0,7,7,1,,,AMSA11.jpg,AMNE10.jpg,AMSA17.jpg,AMNE17.jpg,AMSA17.jpg,MS,2,num_2,32,num_4,0.716772590885,,,2017_Oct_17_1227,60.0042148131,FEMA4ImagesEEG,001,201965,
AMNE23.JPG,AMNE24.JPG,AMNE22.JPG,AMSA24.JPG,AMSA22.JPG,AMSA23.JPG,,,,,,,,,,,,,,,,,,,,,0,8,8,9,,,AMNE11.jpg,AMSA16.jpg,AMNE10.jpg,AMSA02.jpg,AMSA02.jpg,MS,2,num_4,32,num_2,1.28345705859,,,2017_Oct_17_1227,60.0042148131,FEMA4ImagesEEG,001,201965,
AMSA21.JPG,AMNE23.JPG,AMNE21.JPG,AMSA25.JPG,AMNE25.JPG,AMSA23.JPG,,,,,,,,,,,,,,,,,,,,,0,9,9,5,,,AMSA01.jpg,AMNE01.jpg,AMNE06.jpg,AMSA02.jpg,AMNE06.jpg,MN,1,num_2,32,num_6,0.616723357372,,,2017_Oct_17_1227,60.0042148131,FEMA4ImagesEEG,001,201965,
,,,,,,,,,,,,,,,,,,,,,,,,,,,,,,,,,,,,,,,,,,,space,26.8811021892,2017_Oct_17_1227,60.0042148131,FEMA4ImagesEEG,001,201965,
AFNE01.JPG,AFNE01.JPG,AFNE01.JPG,AFNE01.JPG,AFNE01.JPG,AFNE01.JPG,0,0,0,0,,,,,,,,,,,,,,,,,,,,,,,AFNE15.jpg,AFSA16.jpg,AFNE01.jpg,AFSA14.jpg,AFSA14.jpg,FS,4,num_4,32,num_6,0.450191561665,,,2017_Oct_17_1227,60.0042148131,FEMA4ImagesEEG,001,201965,
AFNE01.JPG,AFNE01.JPG,AFNE01.JPG,AFNE01.JPG,AFNE01.JPG,AFNE01.JPG,0,1,1,2,,,,,,,,,,,,,,,,,,,,,,,AFNE08.jpg,AFSA02.jpg,AFNE16.jpg,AFSA18.jpg,AFSA02.jpg,FS,4,num_6,32,num_4,0.5834851233,,,2017_Oct_17_1227,60.0042148131,FEMA4ImagesEEG,001,201965,
AFNE01.JPG,AFNE01.JPG,AFNE01.JPG,AFNE01.JPG,AFNE01.JPG,AFNE01.JPG,0,2,2,5,,,,,,,,,,,,,,,,,,,,,,,AFNE14.jpg,AFSA09.jpg,AFSA18.jpg,AFNE09.jpg,AFSA18.jpg,FS,4,num_2,32,num_8,0.767037922635,,,2017_Oct_17_1227,60.0042148131,FEMA4ImagesEEG,001,201965,
AFNE01.JPG,AFNE01.JPG,AFNE01.JPG,AFNE01.JPG,AFNE01.JPG,AFNE01.JPG,0,3,3,6,,,,,,,,,,,,,,,,,,,,,,,AFSA03.jpg,AFSA12.jpg,AFNE01.jpg,AFNE10.jpg,AFSA03.jpg,FS,4,num_8,32,num_6,0.333492420124,,,2017_Oct_17_1227,60.0042148131,FEMA4ImagesEEG,001,201965,
AFNE01.JPG,AFNE01.JPG,AFNE01.JPG,AFNE01.JPG,AFNE01.JPG,AFNE01.JPG,0,4,4,9,,,,,,,,,,,,,,,,,,,,,,,AFSA07.jpg,AFNE01.jpg,AFSA20.jpg,AFNE06.jpg,AFSA20.jpg,FS,4,num_2,32,num_4,0.600186028909,,,2017_Oct_17_1227,60.0042148131,FEMA4ImagesEEG,001,201965,
AFNE01.JPG,AFNE01.JPG,AFNE01.JPG,AFNE01.JPG,AFNE01.JPG,AFNE01.JPG,0,5,5,1,,,,,,,,,,,,,,,,,,,,,,,AFNE15.jpg,AFNE20.jpg,AFSA12.jpg,AFSA10.jpg,AFSA12.jpg,FS,4,num_2,16,num_2,0.533493703081,,,2017_Oct_17_1227,60.0042148131,FEMA4ImagesEEG,001,201965,
AFNE01.JPG,AFNE01.JPG,AFNE01.JPG,AFNE01.JPG,AFNE01.JPG,AFNE01.JPG,0,6,6,4,,,,,,,,,,,,,,,,,,,,,,,AFNE17.jpg,AFSA05.jpg,AFNE12.jpg,AFSA15.jpg,AFSA15.jpg,FS,4,num_4,32,num_8,0.633407584527,,,2017_Oct_17_1227,60.0042148131,FEMA4ImagesEEG,001,201965,
AFNE01.JPG,AFNE01.JPG,AFNE01.JPG,AFNE01.JPG,AFNE01.JPG,AFNE01.JPG,0,7,7,7,,,,,,,,,,,,,,,,,,,,,,,AFNE19.jpg,AFNE04.jpg,AFSA10.jpg,AFSA01.jpg,AFNE04.jpg,FN,3,num_6,16,num_6,0.483525696846,,,2017_Oct_17_1227,60.0042148131,FEMA4ImagesEEG,001,201965,
AFNE01.JPG,AFNE01.JPG,AFNE01.JPG,AFNE01.JPG,AFNE01.JPG,AFNE01.JPG,0,8,8,3,,,,,,,,,,,,,,,,,,,,,,,AFNE03.jpg,AFNE20.jpg,AFSA15.jpg,AFSA01.jpg,AFNE03.jpg,FN,3,num_8,32,num_4,0.833476543518,,,2017_Oct_17_1227,60.0042148131,FEMA4ImagesEEG,001,201965,
AFNE01.JPG,AFNE01.JPG,AFNE01.JPG,AFNE01.JPG,AFNE01.JPG,AFNE01.JPG,0,9,9,8,,,,,,,,,,,,,,,,,,,,,,,AFNE13.jpg,AFSA08.jpg,AFSA09.jpg,AFNE12.jpg,AFNE12.jpg,FN,3,num_4,32,num_8,0.616823428096,,,2017_Oct_17_1227,60.0042148131,FEMA4ImagesEEG,001,201965,
AFNE01.JPG,AFNE01.JPG,AFNE01.JPG,AFNE01.JPG,AFNE01.JPG,AFNE01.JPG,1,0,10,2,,,,,,,,,,,,,,,,,,,,,,,AFNE05.jpg,AFNE11.jpg,AFSA16.jpg,AFSA09.jpg,AFSA09.jpg,FS,4,num_4,32,num_6,0.466795603945,,,2017_Oct_17_1227,60.0042148131,FEMA4ImagesEEG,001,201965,
AFNE01.JPG,AFNE01.JPG,AFNE01.JPG,AFNE01.JPG,AFNE01.JPG,AFNE01.JPG,1,1,11,1,,,,,,,,,,,,,,,,,,,,,,,AFNE15.jpg,AFSA14.jpg,AFNE19.jpg,AFSA06.jpg,AFSA06.jpg,FS,4,num_4,16,num_4,0.583475501115,,,2017_Oct_17_1227,60.0042148131,FEMA4ImagesEEG,001,201965,
AFNE01.JPG,AFNE01.JPG,AFNE01.JPG,AFNE01.JPG,AFNE01.JPG,AFNE01.JPG,1,2,12,4,,,,,,,,,,,,,,,,,,,,,,,AFSA09.jpg,AFSA01.jpg,AFNE09.jpg,AFNE18.jpg,AFNE18.jpg,FN,3,num_4,32,num_8,0.66677347292,,,2017_Oct_17_1227,60.0042148131,FEMA4ImagesEEG,001,201965,
AFNE01.JPG,AFNE01.JPG,AFNE01.JPG,AFNE01.JPG,AFNE01.JPG,AFNE01.JPG,1,3,13,7,,,,,,,,,,,,,,,,,,,,,,,AFNE05.jpg,AFNE10.jpg,AFSA07.jpg,AFSA09.jpg,AFSA09.jpg,FS,4,num_4,16,num_4,0.683474699267,,,2017_Oct_17_1227,60.0042148131,FEMA4ImagesEEG,001,201965,
AFNE01.JPG,AFNE01.JPG,AFNE01.JPG,AFNE01.JPG,AFNE01.JPG,AFNE01.JPG,1,4,14,8,,,,,,,,,,,,,,,,,,,,,,,AFSA14.jpg,AFNE14.jpg,AFNE04.jpg,AFSA06.jpg,AFSA06.jpg,FS,4,num_4,32,num_2,0.983462030056,,,2017_Oct_17_1227,60.0042148131,FEMA4ImagesEEG,001,201965,
AFNE01.JPG,AFNE01.JPG,AFNE01.JPG,AFNE01.JPG,AFNE01.JPG,AFNE01.JPG,1,5,15,9,,,,,,,,,,,,,,,,,,,,,,,AFNE14.jpg,AFSA06.jpg,AFNE10.jpg,AFSA02.jpg,AFNE10.jpg,FN,3,num_2,32,num_8,0.733468043923,,,2017_Oct_17_1227,60.0042148131,FEMA4ImagesEEG,001,201965,
AFNE01.JPG,AFNE01.JPG,AFNE01.JPG,AFNE01.JPG,AFNE01.JPG,AFNE01.JPG,1,6,16,3,,,,,,,,,,,,,,,,,,,,,,,AFNE02.jpg,AFSA05.jpg,AFSA16.jpg,AFNE07.jpg,AFSA05.jpg,FS,4,num_6,32,num_8,1.30006238383,,,2017_Oct_17_1227,60.0042148131,FEMA4ImagesEEG,001,201965,
AFNE01.JPG,AFNE01.JPG,AFNE01.JPG,AFNE01.JPG,AFNE01.JPG,AFNE01.JPG,1,7,17,0,,,,,,,,,,,,,,,,,,,,,,,AFNE16.jpg,AFSA05.jpg,AFSA19.jpg,AFNE05.jpg,AFNE16.jpg,FN,3,num_8,32,num_6,0.666805226129,,,2017_Oct_17_1227,60.0042148131,FEMA4ImagesEEG,001,201965,
AFNE01.JPG,AFNE01.JPG,AFNE01.JPG,AFNE01.JPG,AFNE01.JPG,AFNE01.JPG,1,8,18,6,,,,,,,,,,,,,,,,,,,,,,,AFNE11.jpg,AFNE07.jpg,AFSA05.jpg,AFSA15.jpg,AFSA15.jpg,FS,4,num_4,32,num_2,1.18345689822,,,2017_Oct_17_1227,60.0042148131,FEMA4ImagesEEG,001,201965,
AFNE01.JPG,AFNE01.JPG,AFNE01.JPG,AFNE01.JPG,AFNE01.JPG,AFNE01.JPG,1,9,19,5,,,,,,,,,,,,,,,,,,,,,,,AFNE20.jpg,AFNE10.jpg,AFSA12.jpg,AFSA10.jpg,AFNE20.jpg,FN,3,num_8,32,num_4,1.11673121549,,,2017_Oct_17_1227,60.0042148131,FEMA4ImagesEEG,001,201965,
AFNE01.JPG,AFNE01.JPG,AFNE01.JPG,AFNE01.JPG,AFNE01.JPG,AFNE01.JPG,2,0,20,5,,,,,,,,,,,,,,,,,,,,,,,AFNE19.jpg,AFNE17.jpg,AFSA18.jpg,AFSA07.jpg,AFNE17.jpg,FN,3,num_6,32,num_4,0.750122121563,,,2017_Oct_17_1227,60.0042148131,FEMA4ImagesEEG,001,201965,
AFNE01.JPG,AFNE01.JPG,AFNE01.JPG,AFNE01.JPG,AFNE01.JPG,AFNE01.JPG,2,1,21,6,,,,,,,,,,,,,,,,,,,,,,,AFNE17.jpg,AFSA13.jpg,AFSA17.jpg,AFNE16.jpg,AFSA17.jpg,FS,4,num_2,16,num_2,0.333503966745,,,2017_Oct_17_1227,60.0042148131,FEMA4ImagesEEG,001,201965,
AFNE01.JPG,AFNE01.JPG,AFNE01.JPG,AFNE01.JPG,AFNE01.JPG,AFNE01.JPG,2,2,22,0,,,,,,,,,,,,,,,,,,,,,,,AFNE06.jpg,AFSA16.jpg,AFSA12.jpg,AFNE08.jpg,AFNE08.jpg,FN,3,num_4,32,num_6,0.566637960482,,,2017_Oct_17_1227,60.0042148131,FEMA4ImagesEEG,001,201965,
AFNE01.JPG,AFNE01.JPG,AFNE01.JPG,AFNE01.JPG,AFNE01.JPG,AFNE01.JPG,2,3,23,3,,,,,,,,,,,,,,,,,,,,,,,AFSA14.jpg,AFSA01.jpg,AFNE07.jpg,AFNE20.jpg,AFSA14.jpg,FS,4,num_8,16,num_8,0.466668591103,,,2017_Oct_17_1227,60.0042148131,FEMA4ImagesEEG,001,201965,
AFNE01.JPG,AFNE01.JPG,AFNE01.JPG,AFNE01.JPG,AFNE01.JPG,AFNE01.JPG,2,4,24,7,,,,,,,,,,,,,,,,,,,,,,,AFNE10.jpg,AFNE05.jpg,AFSA06.jpg,AFSA11.jpg,AFNE05.jpg,FN,3,num_6,32,num_4,1.03343292295,,,2017_Oct_17_1227,60.0042148131,FEMA4ImagesEEG,001,201965,
AFNE01.JPG,AFNE01.JPG,AFNE01.JPG,AFNE01.JPG,AFNE01.JPG,AFNE01.JPG,2,5,25,1,,,,,,,,,,,,,,,,,,,,,,,AFSA09.jpg,AFNE11.jpg,AFNE12.jpg,AFSA13.jpg,AFSA09.jpg,FS,4,num_8,32,num_6,0.500171435261,,,2017_Oct_17_1227,60.0042148131,FEMA4ImagesEEG,001,201965,
AFNE01.JPG,AFNE01.JPG,AFNE01.JPG,AFNE01.JPG,AFNE01.JPG,AFNE01.JPG,2,6,26,9,,,,,,,,,,,,,,,,,,,,,,,AFSA16.jpg,AFSA14.jpg,AFNE15.jpg,AFNE14.jpg,AFSA14.jpg,FS,4,num_6,32,num_8,0.683459303771,,,2017_Oct_17_1227,60.0042148131,FEMA4ImagesEEG,001,201965,
AFNE01.JPG,AFNE01.JPG,AFNE01.JPG,AFNE01.JPG,AFNE01.JPG,AFNE01.JPG,2,7,27,4,,,,,,,,,,,,,,,,,,,,,,,AFSA04.jpg,AFSA13.jpg,AFNE20.jpg,AFNE06.jpg,AFNE06.jpg,FN,3,num_4,16,num_4,0.650167506203,,,2017_Oct_17_1227,60.0042148131,FEMA4ImagesEEG,001,201965,
AFNE01.JPG,AFNE01.JPG,AFNE01.JPG,AFNE01.JPG,AFNE01.JPG,AFNE01.JPG,2,8,28,2,,,,,,,,,,,,,,,,,,,,,,,AFSA02.jpg,AFNE05.jpg,AFNE18.jpg,AFSA15.jpg,AFNE05.jpg,FN,3,num_6,16,num_6,0.450214013429,,,2017_Oct_17_1227,60.0042148131,FEMA4ImagesEEG,001,201965,
AFNE01.JPG,AFNE01.JPG,AFNE01.JPG,AFNE01.JPG,AFNE01.JPG,AFNE01.JPG,2,9,29,8,,,,,,,,,,,,,,,,,,,,,,,AFNE08.jpg,AFNE10.jpg,AFSA01.jpg,AFSA17.jpg,AFSA01.jpg,FS,4,num_2,16,num_2,0.36680506576,,,2017_Oct_17_1227,60.0042148131,FEMA4ImagesEEG,001,201965,
AFNE01.JPG,AFNE01.JPG,AFNE01.JPG,AFNE01.JPG,AFNE01.JPG,AFNE01.JPG,3,0,30,3,,,,,,,,,,,,,,,,,,,,,,,AFSA16.jpg,AFNE03.jpg,AFNE02.jpg,AFSA04.jpg,AFNE03.jpg,FN,3,num_6,32,num_4,0.93346932688,,,2017_Oct_17_1227,60.0042148131,FEMA4ImagesEEG,001,201965,
AFNE01.JPG,AFNE01.JPG,AFNE01.JPG,AFNE01.JPG,AFNE01.JPG,AFNE01.JPG,3,1,31,7,,,,,,,,,,,,,,,,,,,,,,,AFNE09.jpg,AFNE13.jpg,AFSA08.jpg,AFSA11.jpg,AFNE09.jpg,FN,3,num_8,32,num_6,0.750119234908,,,2017_Oct_17_1227,60.0042148131,FEMA4ImagesEEG,001,201965,
AFNE01.JPG,AFNE01.JPG,AFNE01.JPG,AFNE01.JPG,AFNE01.JPG,AFNE01.JPG,3,2,32,6,,,,,,,,,,,,,,,,,,,,,,,AFSA08.jpg,AFNE11.jpg,AFSA18.jpg,AFNE16.jpg,AFNE16.jpg,FN,3,num_4,32,num_8,0.866755190768,,,2017_Oct_17_1227,60.0042148131,FEMA4ImagesEEG,001,201965,
AFNE01.JPG,AFNE01.JPG,AFNE01.JPG,AFNE01.JPG,AFNE01.JPG,AFNE01.JPG,3,3,33,0,,,,,,,,,,,,,,,,,,,,,,,AFNE10.jpg,AFNE05.jpg,AFSA04.jpg,AFSA11.jpg,AFNE10.jpg,FN,3,num_8,32,num_2,1.15010993346,,,2017_Oct_17_1227,60.0042148131,FEMA4ImagesEEG,001,201965,
AFNE01.JPG,AFNE01.JPG,AFNE01.JPG,AFNE01.JPG,AFNE01.JPG,AFNE01.JPG,3,4,34,9,,,,,,,,,,,,,,,,,,,,,,,AFNE09.jpg,AFSA10.jpg,AFNE16.jpg,AFSA05.jpg,AFSA10.jpg,FS,4,num_6,32,num_8,1.54982607901,,,2017_Oct_17_1227,60.0042148131,FEMA4ImagesEEG,001,201965,
AFNE01.JPG,AFNE01.JPG,AFNE01.JPG,AFNE01.JPG,AFNE01.JPG,AFNE01.JPG,3,5,35,8,,,,,,,,,,,,,,,,,,,,,,,AFSA11.jpg,AFNE15.jpg,AFSA16.jpg,AFNE18.jpg,AFSA16.jpg,FS,4,num_2,16,num_2,1.13342602705,,,2017_Oct_17_1227,60.0042148131,FEMA4ImagesEEG,001,201965,
AFNE01.JPG,AFNE01.JPG,AFNE01.JPG,AFNE01.JPG,AFNE01.JPG,AFNE01.JPG,3,6,36,5,,,,,,,,,,,,,,,,,,,,,,,AFNE02.jpg,AFNE09.jpg,AFSA07.jpg,AFSA17.jpg,AFNE02.jpg,FN,3,num_8,32,num_4,0.866846601524,,,2017_Oct_17_1227,60.0042148131,FEMA4ImagesEEG,001,201965,
AFNE01.JPG,AFNE01.JPG,AFNE01.JPG,AFNE01.JPG,AFNE01.JPG,AFNE01.JPG,3,7,37,1,,,,,,,,,,,,,,,,,,,,,,,AFSA14.jpg,AFNE08.jpg,AFSA15.jpg,AFNE17.jpg,AFNE17.jpg,FN,3,num_4,16,num_4,0.816734583255,,,2017_Oct_17_1227,60.0042148131,FEMA4ImagesEEG,001,201965,
AFNE01.JPG,AFNE01.JPG,AFNE01.JPG,AFNE01.JPG,AFNE01.JPG,AFNE01.JPG,3,8,38,4,,,,,,,,,,,,,,,,,,,,,,,AFNE12.jpg,AFNE09.jpg,AFSA18.jpg,AFSA07.jpg,AFSA07.jpg,FS,4,num_4,32,num_6,0.63352048483,,,2017_Oct_17_1227,60.0042148131,FEMA4ImagesEEG,001,201965,
AFNE01.JPG,AFNE01.JPG,AFNE01.JPG,AFNE01.JPG,AFNE01.JPG,AFNE01.JPG,3,9,39,2,,,,,,,,,,,,,,,,,,,,,,,AFSA17.jpg,AFNE12.jpg,AFNE18.jpg,AFSA07.jpg,AFSA17.jpg,FS,4,num_8,16,num_8,0.816651832465,,,2017_Oct_17_1227,60.0042148131,FEMA4ImagesEEG,001,201965,
AFNE01.JPG,AFNE01.JPG,AFNE01.JPG,AFNE01.JPG,AFNE01.JPG,AFNE01.JPG,4,0,40,1,,,,,,,,,,,,,,,,,,,,,,,AFNE15.jpg,AFSA03.jpg,AFSA07.jpg,AFNE08.jpg,AFSA03.jpg,FS,4,num_6,16,num_6,1.25012356489,,,2017_Oct_17_1227,60.0042148131,FEMA4ImagesEEG,001,201965,
AFNE01.JPG,AFNE01.JPG,AFNE01.JPG,AFNE01.JPG,AFNE01.JPG,AFNE01.JPG,4,1,41,6,,,,,,,,,,,,,,,,,,,,,,,AFNE13.jpg,AFSA05.jpg,AFNE18.jpg,AFSA13.jpg,AFNE18.jpg,FN,3,num_2,16,num_2,1.20010488182,,,2017_Oct_17_1227,60.0042148131,FEMA4ImagesEEG,001,201965,
AFNE01.JPG,AFNE01.JPG,AFNE01.JPG,AFNE01.JPG,AFNE01.JPG,AFNE01.JPG,4,2,42,9,,,,,,,,,,,,,,,,,,,,,,,AFSA05.jpg,AFNE04.jpg,AFSA02.jpg,AFNE12.jpg,AFSA05.jpg,FS,4,num_8,16,num_8,0.833471090948,,,2017_Oct_17_1227,60.0042148131,FEMA4ImagesEEG,001,201965,
AFNE01.JPG,AFNE01.JPG,AFNE01.JPG,AFNE01.JPG,AFNE01.JPG,AFNE01.JPG,4,3,43,8,,,,,,,,,,,,,,,,,,,,,,,AFNE15.jpg,AFNE19.jpg,AFSA16.jpg,AFSA15.jpg,AFNE19.jpg,FN,3,num_6,32,num_2,0.733452969165,,,2017_Oct_17_1227,60.0042148131,FEMA4ImagesEEG,001,201965,
AFNE01.JPG,AFNE01.JPG,AFNE01.JPG,AFNE01.JPG,AFNE01.JPG,AFNE01.JPG,4,4,44,3,,,,,,,,,,,,,,,,,,,,,,,AFNE08.jpg,AFNE06.jpg,AFSA20.jpg,AFSA04.jpg,AFSA04.jpg,FS,4,num_4,32,num_8,0.966794160617,,,2017_Oct_17_1227,60.0042148131,FEMA4ImagesEEG,001,201965,
AFNE01.JPG,AFNE01.JPG,AFNE01.JPG,AFNE01.JPG,AFNE01.JPG,AFNE01.JPG,4,5,45,5,,,,,,,,,,,,,,,,,,,,,,,AFSA05.jpg,AFSA09.jpg,AFNE12.jpg,AFNE11.jpg,AFNE12.jpg,FN,3,num_2,32,num_6,1.0000917315,,,2017_Oct_17_1227,60.0042148131,FEMA4ImagesEEG,001,201965,
AFNE01.JPG,AFNE01.JPG,AFNE01.JPG,AFNE01.JPG,AFNE01.JPG,AFNE01.JPG,4,6,46,2,,,,,,,,,,,,,,,,,,,,,,,AFNE02.jpg,AFSA03.jpg,AFNE10.jpg,AFSA15.jpg,AFNE02.jpg,FN,3,num_8,32,num_4,0.616761204634,,,2017_Oct_17_1227,60.0042148131,FEMA4ImagesEEG,001,201965,
AFNE01.JPG,AFNE01.JPG,AFNE01.JPG,AFNE01.JPG,AFNE01.JPG,AFNE01.JPG,4,7,47,7,,,,,,,,,,,,,,,,,,,,,,,AFSA12.jpg,AFNE11.jpg,AFSA04.jpg,AFNE13.jpg,AFNE13.jpg,FN,3,num_4,16,num_4,0.666759681121,,,2017_Oct_17_1227,60.0042148131,FEMA4ImagesEEG,001,201965,
AFNE01.JPG,AFNE01.JPG,AFNE01.JPG,AFNE01.JPG,AFNE01.JPG,AFNE01.JPG,4,8,48,4,,,,,,,,,,,,,,,,,,,,,,,AFNE09.jpg,AFSA13.jpg,AFNE16.jpg,AFSA03.jpg,AFNE16.jpg,FN,3,num_2,32,num_6,1.01681508887,,,2017_Oct_17_1227,60.0042148131,FEMA4ImagesEEG,001,201965,
AFNE01.JPG,AFNE01.JPG,AFNE01.JPG,AFNE01.JPG,AFNE01.JPG,AFNE01.JPG,4,9,49,0,,,,,,,,,,,,,,,,,,,,,,,AFSA18.jpg,AFNE19.jpg,AFSA15.jpg,AFNE18.jpg,AFSA18.jpg,FS,4,num_8,32,num_6,1.05008603837,,,2017_Oct_17_1227,60.0042148131,FEMA4ImagesEEG,001,201965,
AFNE01.JPG,AFNE01.JPG,AFNE01.JPG,AFNE01.JPG,AFNE01.JPG,AFNE01.JPG,5,0,50,1,,,,,,,,,,,,,,,,,,,,,,,AFSA07.jpg,AFSA04.jpg,AFNE08.jpg,AFNE02.jpg,AFNE02.jpg,FN,3,num_4,32,num_8,0.73346932688,,,2017_Oct_17_1227,60.0042148131,FEMA4ImagesEEG,001,201965,
AFNE01.JPG,AFNE01.JPG,AFNE01.JPG,AFNE01.JPG,AFNE01.JPG,AFNE01.JPG,5,1,51,2,,,,,,,,,,,,,,,,,,,,,,,AFSA19.jpg,AFNE01.jpg,AFSA17.jpg,AFNE03.jpg,AFNE03.jpg,FN,3,num_4,16,num_4,0.783512386157,,,2017_Oct_17_1227,60.0042148131,FEMA4ImagesEEG,001,201965,
AFNE01.JPG,AFNE01.JPG,AFNE01.JPG,AFNE01.JPG,AFNE01.JPG,AFNE01.JPG,5,2,52,3,,,,,,,,,,,,,,,,,,,,,,,AFSA01.jpg,AFNE18.jpg,AFSA14.jpg,AFNE20.jpg,AFNE18.jpg,FN,3,num_6,32,num_4,0.933290033501,,,2017_Oct_17_1227,60.0042148131,FEMA4ImagesEEG,001,201965,
AFNE01.JPG,AFNE01.JPG,AFNE01.JPG,AFNE01.JPG,AFNE01.JPG,AFNE01.JPG,5,3,53,7,,,,,,,,,,,,,,,,,,,,,,,AFNE11.jpg,AFSA18.jpg,AFSA15.jpg,AFNE19.jpg,AFSA18.jpg,FS,4,num_6,16,num_6,0.833497070847,,,2017_Oct_17_1227,60.0042148131,FEMA4ImagesEEG,001,201965,
AFNE01.JPG,AFNE01.JPG,AFNE01.JPG,AFNE01.JPG,AFNE01.JPG,AFNE01.JPG,5,4,54,4,,,,,,,,,,,,,,,,,,,,,,,AFSA02.jpg,AFNE10.jpg,AFSA16.jpg,AFNE09.jpg,AFSA16.jpg,FS,4,num_2,16,num_2,1.35008523652,,,2017_Oct_17_1227,60.0042148131,FEMA4ImagesEEG,001,201965,
AFNE01.JPG,AFNE01.JPG,AFNE01.JPG,AFNE01.JPG,AFNE01.JPG,AFNE01.JPG,5,5,55,9,,,,,,,,,,,,,,,,,,,,,,,AFSA18.jpg,AFNE18.jpg,AFSA19.jpg,AFNE11.jpg,AFNE11.jpg,FN,3,num_4,32,num_8,0.666791113592,,,2017_Oct_17_1227,60.0042148131,FEMA4ImagesEEG,001,201965,
AFNE01.JPG,AFNE01.JPG,AFNE01.JPG,AFNE01.JPG,AFNE01.JPG,AFNE01.JPG,5,6,56,5,,,,,,,,,,,,,,,,,,,,,,,AFSA04.jpg,AFSA02.jpg,AFNE06.jpg,AFNE20.jpg,AFSA04.jpg,FS,4,num_8,16,num_8,1.53338497239,,,2017_Oct_17_1227,60.0042148131,FEMA4ImagesEEG,001,201965,
AFNE01.JPG,AFNE01.JPG,AFNE01.JPG,AFNE01.JPG,AFNE01.JPG,AFNE01.JPG,5,7,57,0,,,,,,,,,,,,,,,,,,,,,,,AFSA05.jpg,AFSA02.jpg,AFNE08.jpg,AFNE16.jpg,AFNE08.jpg,FN,3,num_2,32,num_4,0.766879477324,,,2017_Oct_17_1227,60.0042148131,FEMA4ImagesEEG,001,201965,
AFNE01.JPG,AFNE01.JPG,AFNE01.JPG,AFNE01.JPG,AFNE01.JPG,AFNE01.JPG,5,8,58,8,,,,,,,,,,,,,,,,,,,,,,,AFNE17.jpg,AFSA15.jpg,AFSA19.jpg,AFNE04.jpg,AFSA19.jpg,FS,4,num_2,16,num_2,1.16675278522,,,2017_Oct_17_1227,60.0042148131,FEMA4ImagesEEG,001,201965,
AFNE01.JPG,AFNE01.JPG,AFNE01.JPG,AFNE01.JPG,AFNE01.JPG,AFNE01.JPG,5,9,59,6,,,,,,,,,,,,,,,,,,,,,,,AFNE13.jpg,AFSA01.jpg,AFNE12.jpg,AFSA12.jpg,AFNE13.jpg,FN,3,num_8,16,num_8,0.666815489792,,,2017_Oct_17_1227,60.0042148131,FEMA4ImagesEEG,001,201965,
,,,,,,,,,,,,,,,,,,,,,,,,,,,,,,,,,,,,,,,,,,,space,28.8479826287,2017_Oct_17_1227,60.0042148131,FEMA4ImagesEEG,001,201965,
AFNE01.JPG,AFNE01.JPG,AFNE01.JPG,AFNE01.JPG,AFNE01.JPG,AFNE01.JPG,,,,,0,0,0,4,,,,,,,,,,,,,,,,,,,AMSA17.jpg,AMNE10.jpg,AMNE16.jpg,AMSA16.jpg,AMNE10.jpg,MN,1,num_6,32,num_8,0.999970812706,,,2017_Oct_17_1227,60.0042148131,FEMA4ImagesEEG,001,201965,
AFNE01.JPG,AFNE01.JPG,AFNE01.JPG,AFNE01.JPG,AFNE01.JPG,AFNE01.JPG,,,,,0,1,1,2,,,,,,,,,,,,,,,,,,,AMSA09.jpg,AMNE10.jpg,AMSA18.jpg,AMNE11.jpg,AMNE11.jpg,MN,1,num_4,32,num_2,2.39971197593,,,2017_Oct_17_1227,60.0042148131,FEMA4ImagesEEG,001,201965,
AFNE01.JPG,AFNE01.JPG,AFNE01.JPG,AFNE01.JPG,AFNE01.JPG,AFNE01.JPG,,,,,0,2,2,6,,,,,,,,,,,,,,,,,,,AMNE04.jpg,AMSA12.jpg,AMNE01.jpg,AMSA11.jpg,AMSA12.jpg,MS,2,num_6,16,num_6,0.716741158415,,,2017_Oct_17_1227,60.0042148131,FEMA4ImagesEEG,001,201965,
AFNE01.JPG,AFNE01.JPG,AFNE01.JPG,AFNE01.JPG,AFNE01.JPG,AFNE01.JPG,,,,,0,3,3,1,,,,,,,,,,,,,,,,,,,AMNE05.jpg,AMSA11.jpg,AMSA05.jpg,AMNE14.jpg,AMNE14.jpg,MN,1,num_4,16,num_4,0.516666426111,,,2017_Oct_17_1227,60.0042148131,FEMA4ImagesEEG,001,201965,
AFNE01.JPG,AFNE01.JPG,AFNE01.JPG,AFNE01.JPG,AFNE01.JPG,AFNE01.JPG,,,,,0,4,4,7,,,,,,,,,,,,,,,,,,,AMNE11.jpg,AMSA15.jpg,AMNE06.jpg,AMSA19.jpg,AMSA19.jpg,MS,2,num_4,32,num_8,0.733691278611,,,2017_Oct_17_1227,60.0042148131,FEMA4ImagesEEG,001,201965,
AFNE01.JPG,AFNE01.JPG,AFNE01.JPG,AFNE01.JPG,AFNE01.JPG,AFNE01.JPG,,,,,0,5,5,0,,,,,,,,,,,,,,,,,,,AMSA08.jpg,AMNE18.jpg,AMNE11.jpg,AMSA04.jpg,AMNE11.jpg,MN,1,num_2,32,num_8,0.916849889105,,,2017_Oct_17_1227,60.0042148131,FEMA4ImagesEEG,001,201965,
AFNE01.JPG,AFNE01.JPG,AFNE01.JPG,AFNE01.JPG,AFNE01.JPG,AFNE01.JPG,,,,,0,6,6,9,,,,,,,,,,,,,,,,,,,AMNE07.jpg,AMSA04.jpg,AMSA05.jpg,AMNE10.jpg,AMNE10.jpg,MN,1,num_4,16,num_4,0.650233578539,,,2017_Oct_17_1227,60.0042148131,FEMA4ImagesEEG,001,201965,
AFNE01.JPG,AFNE01.JPG,AFNE01.JPG,AFNE01.JPG,AFNE01.JPG,AFNE01.JPG,,,,,0,7,7,3,,,,,,,,,,,,,,,,,,,AMSA16.jpg,AMNE09.jpg,AMNE13.jpg,AMSA19.jpg,AMSA16.jpg,MS,2,num_8,16,num_8,0.516823588466,,,2017_Oct_17_1227,60.0042148131,FEMA4ImagesEEG,001,201965,
AFNE01.JPG,AFNE01.JPG,AFNE01.JPG,AFNE01.JPG,AFNE01.JPG,AFNE01.JPG,,,,,0,8,8,5,,,,,,,,,,,,,,,,,,,AMNE15.jpg,AMSA09.jpg,AMSA13.jpg,AMNE18.jpg,AMNE15.jpg,MN,1,num_8,32,num_6,0.766722314969,,,2017_Oct_17_1227,60.0042148131,FEMA4ImagesEEG,001,201965,
AFNE01.JPG,AFNE01.JPG,AFNE01.JPG,AFNE01.JPG,AFNE01.JPG,AFNE01.JPG,,,,,0,9,9,8,,,,,,,,,,,,,,,,,,,AMNE14.jpg,AMSA12.jpg,AMNE12.jpg,AMSA01.jpg,AMSA01.jpg,MS,2,num_4,16,num_4,0.91676970423,,,2017_Oct_17_1227,60.0042148131,FEMA4ImagesEEG,001,201965,
AFNE01.JPG,AFNE01.JPG,AFNE01.JPG,AFNE01.JPG,AFNE01.JPG,AFNE01.JPG,,,,,1,0,10,5,,,,,,,,,,,,,,,,,,,AMSA07.jpg,AMNE16.jpg,AMNE05.jpg,AMSA18.jpg,AMSA07.jpg,MS,2,num_8,16,num_8,0.900104400706,,,2017_Oct_17_1227,60.0042148131,FEMA4ImagesEEG,001,201965,
AFNE01.JPG,AFNE01.JPG,AFNE01.JPG,AFNE01.JPG,AFNE01.JPG,AFNE01.JPG,,,,,1,1,11,4,,,,,,,,,,,,,,,,,,,AMNE09.jpg,AMSA07.jpg,AMNE06.jpg,AMSA04.jpg,AMSA04.jpg,MS,2,num_4,16,num_4,0.849776204015,,,2017_Oct_17_1227,60.0042148131,FEMA4ImagesEEG,001,201965,
AFNE01.JPG,AFNE01.JPG,AFNE01.JPG,AFNE01.JPG,AFNE01.JPG,AFNE01.JPG,,,,,1,2,12,8,,,,,,,,,,,,,,,,,,,AMNE10.jpg,AMSA17.jpg,AMNE02.jpg,AMSA18.jpg,AMSA18.jpg,MS,2,num_4,32,num_8,0.483499075469,,,2017_Oct_17_1227,60.0042148131,FEMA4ImagesEEG,001,201965,
AFNE01.JPG,AFNE01.JPG,AFNE01.JPG,AFNE01.JPG,AFNE01.JPG,AFNE01.JPG,,,,,1,3,13,6,,,,,,,,,,,,,,,,,,,AMSA14.jpg,AMSA19.jpg,AMNE11.jpg,AMNE18.jpg,AMNE18.jpg,MN,1,num_4,32,num_6,0.533538285872,,,2017_Oct_17_1227,60.0042148131,FEMA4ImagesEEG,001,201965,
AFNE01.JPG,AFNE01.JPG,AFNE01.JPG,AFNE01.JPG,AFNE01.JPG,AFNE01.JPG,,,,,1,4,14,3,,,,,,,,,,,,,,,,,,,AMNE05.jpg,AMNE01.jpg,AMSA11.jpg,AMSA02.jpg,AMSA02.jpg,MS,2,num_4,32,num_2,1.56669858025,,,2017_Oct_17_1227,60.0042148131,FEMA4ImagesEEG,001,201965,
AFNE01.JPG,AFNE01.JPG,AFNE01.JPG,AFNE01.JPG,AFNE01.JPG,AFNE01.JPG,,,,,1,5,15,0,,,,,,,,,,,,,,,,,,,AMSA16.jpg,AMNE20.jpg,AMSA20.jpg,AMNE03.jpg,AMNE20.jpg,MN,1,num_6,16,num_6,0.30015283237,,,2017_Oct_17_1227,60.0042148131,FEMA4ImagesEEG,001,201965,
AFNE01.JPG,AFNE01.JPG,AFNE01.JPG,AFNE01.JPG,AFNE01.JPG,AFNE01.JPG,,,,,1,6,16,9,,,,,,,,,,,,,,,,,,,AMSA06.jpg,AMNE17.jpg,AMSA02.jpg,AMNE20.jpg,AMNE17.jpg,MN,1,num_6,16,num_6,1.0500911702,,,2017_Oct_17_1227,60.0042148131,FEMA4ImagesEEG,001,201965,
AFNE01.JPG,AFNE01.JPG,AFNE01.JPG,AFNE01.JPG,AFNE01.JPG,AFNE01.JPG,,,,,1,7,17,1,,,,,,,,,,,,,,,,,,,AMSA04.jpg,AMNE13.jpg,AMNE19.jpg,AMSA11.jpg,AMSA11.jpg,MS,2,num_4,16,num_4,0.566787745827,,,2017_Oct_17_1227,60.0042148131,FEMA4ImagesEEG,001,201965,
AFNE01.JPG,AFNE01.JPG,AFNE01.JPG,AFNE01.JPG,AFNE01.JPG,AFNE01.JPG,,,,,1,8,18,2,,,,,,,,,,,,,,,,,,,AMSA14.jpg,AMNE05.jpg,AMNE10.jpg,AMSA06.jpg,AMSA14.jpg,MS,2,num_8,16,num_8,0.700144172404,,,2017_Oct_17_1227,60.0042148131,FEMA4ImagesEEG,001,201965,
AFNE01.JPG,AFNE01.JPG,AFNE01.JPG,AFNE01.JPG,AFNE01.JPG,AFNE01.JPG,,,,,1,9,19,7,,,,,,,,,,,,,,,,,,,AMSA15.jpg,AMNE09.jpg,AMNE19.jpg,AMSA02.jpg,AMNE19.jpg,MN,1,num_2,32,num_6,0.750091651311,,,2017_Oct_17_1227,60.0042148131,FEMA4ImagesEEG,001,201965,
AFNE01.JPG,AFNE01.JPG,AFNE01.JPG,AFNE01.JPG,AFNE01.JPG,AFNE01.JPG,,,,,2,0,20,9,,,,,,,,,,,,,,,,,,,AMSA15.jpg,AMSA06.jpg,AMNE18.jpg,AMNE11.jpg,AMSA15.jpg,MS,2,num_8,16,num_8,0.600126050622,,,2017_Oct_17_1227,60.0042148131,FEMA4ImagesEEG,001,201965,
AFNE01.JPG,AFNE01.JPG,AFNE01.JPG,AFNE01.JPG,AFNE01.JPG,AFNE01.JPG,,,,,2,1,21,2,,,,,,,,,,,,,,,,,,,AMSA07.jpg,AMSA18.jpg,AMNE15.jpg,AMNE13.jpg,AMSA18.jpg,MS,2,num_6,32,num_8,0.816793278583,,,2017_Oct_17_1227,60.0042148131,FEMA4ImagesEEG,001,201965,
AFNE01.JPG,AFNE01.JPG,AFNE01.JPG,AFNE01.JPG,AFNE01.JPG,AFNE01.JPG,,,,,2,2,22,0,,,,,,,,,,,,,,,,,,,AMSA12.jpg,AMNE14.jpg,AMNE16.jpg,AMSA20.jpg,AMNE16.jpg,MN,1,num_2,32,num_8,1.16673514455,,,2017_Oct_17_1227,60.0042148131,FEMA4ImagesEEG,001,201965,
AFNE01.JPG,AFNE01.JPG,AFNE01.JPG,AFNE01.JPG,AFNE01.JPG,AFNE01.JPG,,,,,2,3,23,8,,,,,,,,,,,,,,,,,,,AMNE10.jpg,AMSA01.jpg,AMSA20.jpg,AMNE11.jpg,AMNE11.jpg,MN,1,num_4,32,num_8,1.01674965801,,,2017_Oct_17_1227,60.0042148131,FEMA4ImagesEEG,001,201965,
AFNE01.JPG,AFNE01.JPG,AFNE01.JPG,AFNE01.JPG,AFNE01.JPG,AFNE01.JPG,,,,,2,4,24,5,,,,,,,,,,,,,,,,,,,AMNE15.jpg,AMNE11.jpg,AMSA14.jpg,AMSA03.jpg,AMNE11.jpg,MN,1,num_6,16,num_6,1.04978646768,,,2017_Oct_17_1227,60.0042148131,FEMA4ImagesEEG,001,201965,
AFNE01.JPG,AFNE01.JPG,AFNE01.JPG,AFNE01.JPG,AFNE01.JPG,AFNE01.JPG,,,,,2,5,25,7,,,,,,,,,,,,,,,,,,,AMSA19.jpg,AMSA01.jpg,AMNE03.jpg,AMNE08.jpg,AMNE08.jpg,MN,1,num_4,32,num_8,0.633509900426,,,2017_Oct_17_1227,60.0042148131,FEMA4ImagesEEG,001,201965,
AFNE01.JPG,AFNE01.JPG,AFNE01.JPG,AFNE01.JPG,AFNE01.JPG,AFNE01.JPG,,,,,2,6,26,1,,,,,,,,,,,,,,,,,,,AMNE16.jpg,AMNE06.jpg,AMSA08.jpg,AMSA13.jpg,AMSA13.jpg,MS,2,num_4,16,num_4,0.633477826477,,,2017_Oct_17_1227,60.0042148131,FEMA4ImagesEEG,001,201965,
AFNE01.JPG,AFNE01.JPG,AFNE01.JPG,AFNE01.JPG,AFNE01.JPG,AFNE01.JPG,,,,,2,7,27,6,,,,,,,,,,,,,,,,,,,AMNE18.jpg,AMSA20.jpg,AMSA15.jpg,AMNE02.jpg,AMSA20.jpg,MS,2,num_6,16,num_6,1.33368229791,,,2017_Oct_17_1227,60.0042148131,FEMA4ImagesEEG,001,201965,
AFNE01.JPG,AFNE01.JPG,AFNE01.JPG,AFNE01.JPG,AFNE01.JPG,AFNE01.JPG,,,,,2,8,28,3,,,,,,,,,,,,,,,,,,,AMNE08.jpg,AMSA03.jpg,AMSA14.jpg,AMNE12.jpg,AMNE12.jpg,MN,1,num_4,32,num_8,0.833453771014,,,2017_Oct_17_1227,60.0042148131,FEMA4ImagesEEG,001,201965,
AFNE01.JPG,AFNE01.JPG,AFNE01.JPG,AFNE01.JPG,AFNE01.JPG,AFNE01.JPG,,,,,2,9,29,4,,,,,,,,,,,,,,,,,,,AMSA05.jpg,AMNE04.jpg,AMSA16.jpg,AMNE14.jpg,AMNE14.jpg,MN,1,num_4,32,num_2,1.03344029996,,,2017_Oct_17_1227,60.0042148131,FEMA4ImagesEEG,001,201965,
AFNE01.JPG,AFNE01.JPG,AFNE01.JPG,AFNE01.JPG,AFNE01.JPG,AFNE01.JPG,,,,,3,0,30,9,,,,,,,,,,,,,,,,,,,AMSA19.jpg,AMSA16.jpg,AMNE02.jpg,AMNE13.jpg,AMSA16.jpg,MS,2,num_6,32,num_8,0.650128055245,,,2017_Oct_17_1227,60.0042148131,FEMA4ImagesEEG,001,201965,
AFNE01.JPG,AFNE01.JPG,AFNE01.JPG,AFNE01.JPG,AFNE01.JPG,AFNE01.JPG,,,,,3,1,31,4,,,,,,,,,,,,,,,,,,,AMSA02.jpg,AMNE07.jpg,AMNE15.jpg,AMSA12.jpg,AMSA02.jpg,MS,2,num_8,32,num_6,0.983460747098,,,2017_Oct_17_1227,60.0042148131,FEMA4ImagesEEG,001,201965,
AFNE01.JPG,AFNE01.JPG,AFNE01.JPG,AFNE01.JPG,AFNE01.JPG,AFNE01.JPG,,,,,3,2,32,1,,,,,,,,,,,,,,,,,,,AMNE13.jpg,AMSA01.jpg,AMSA09.jpg,AMNE12.jpg,AMSA01.jpg,MS,2,num_6,32,num_4,1.05012292341,,,2017_Oct_17_1227,60.0042148131,FEMA4ImagesEEG,001,201965,
AFNE01.JPG,AFNE01.JPG,AFNE01.JPG,AFNE01.JPG,AFNE01.JPG,AFNE01.JPG,,,,,3,3,33,5,,,,,,,,,,,,,,,,,,,AMSA13.jpg,AMNE19.jpg,AMSA15.jpg,AMNE16.jpg,AMNE16.jpg,MN,1,num_4,32,num_6,0.983445030863,,,2017_Oct_17_1227,60.0042148131,FEMA4ImagesEEG,001,201965,
AFNE01.JPG,AFNE01.JPG,AFNE01.JPG,AFNE01.JPG,AFNE01.JPG,AFNE01.JPG,,,,,3,4,34,0,,,,,,,,,,,,,,,,,,,AMNE19.jpg,AMSA15.jpg,AMNE01.jpg,AMSA07.jpg,AMSA07.jpg,MS,2,num_4,16,num_4,0.716764893138,,,2017_Oct_17_1227,60.0042148131,FEMA4ImagesEEG,001,201965,
AFNE01.JPG,AFNE01.JPG,AFNE01.JPG,AFNE01.JPG,AFNE01.JPG,AFNE01.JPG,,,,,3,5,35,6,,,,,,,,,,,,,,,,,,,AMNE19.jpg,AMNE08.jpg,AMSA13.jpg,AMSA18.jpg,AMNE19.jpg,MN,1,num_8,48,None,,,,2017_Oct_17_1227,60.0042148131,FEMA4ImagesEEG,001,201965,
AFNE01.JPG,AFNE01.JPG,AFNE01.JPG,AFNE01.JPG,AFNE01.JPG,AFNE01.JPG,,,,,3,6,36,7,,,,,,,,,,,,,,,,,,,AMNE10.jpg,AMNE20.jpg,AMSA18.jpg,AMSA01.jpg,AMSA01.jpg,MS,2,num_4,32,num_6,0.966778444382,,,2017_Oct_17_1227,60.0042148131,FEMA4ImagesEEG,001,201965,
AFNE01.JPG,AFNE01.JPG,AFNE01.JPG,AFNE01.JPG,AFNE01.JPG,AFNE01.JPG,,,,,3,7,37,3,,,,,,,,,,,,,,,,,,,AMSA04.jpg,AMSA17.jpg,AMNE11.jpg,AMNE19.jpg,AMSA04.jpg,MS,2,num_8,16,num_8,0.383477104812,,,2017_Oct_17_1227,60.0042148131,FEMA4ImagesEEG,001,201965,
AFNE01.JPG,AFNE01.JPG,AFNE01.JPG,AFNE01.JPG,AFNE01.JPG,AFNE01.JPG,,,,,3,8,38,8,,,,,,,,,,,,,,,,,,,AMSA20.jpg,AMNE19.jpg,AMNE05.jpg,AMSA07.jpg,AMSA20.jpg,MS,2,num_8,32,num_4,0.333518079284,,,2017_Oct_17_1227,60.0042148131,FEMA4ImagesEEG,001,201965,
AFNE01.JPG,AFNE01.JPG,AFNE01.JPG,AFNE01.JPG,AFNE01.JPG,AFNE01.JPG,,,,,3,9,39,2,,,,,,,,,,,,,,,,,,,AMSA09.jpg,AMSA20.jpg,AMNE18.jpg,AMNE19.jpg,AMSA20.jpg,MS,2,num_6,16,num_6,0.916802740398,,,2017_Oct_17_1227,60.0042148131,FEMA4ImagesEEG,001,201965,
AFNE01.JPG,AFNE01.JPG,AFNE01.JPG,AFNE01.JPG,AFNE01.JPG,AFNE01.JPG,,,,,4,0,40,1,,,,,,,,,,,,,,,,,,,AMSA14.jpg,AMSA05.jpg,AMNE12.jpg,AMNE18.jpg,AMSA05.jpg,MS,2,num_6,32,num_8,0.566823347911,,,2017_Oct_17_1227,60.0042148131,FEMA4ImagesEEG,001,201965,
AFNE01.JPG,AFNE01.JPG,AFNE01.JPG,AFNE01.JPG,AFNE01.JPG,AFNE01.JPG,,,,,4,1,41,5,,,,,,,,,,,,,,,,,,,AMSA15.jpg,AMNE09.jpg,AMNE18.jpg,AMSA05.jpg,AMSA05.jpg,MS,2,num_4,16,num_4,0.483482717755,,,2017_Oct_17_1227,60.0042148131,FEMA4ImagesEEG,001,201965,
AFNE01.JPG,AFNE01.JPG,AFNE01.JPG,AFNE01.JPG,AFNE01.JPG,AFNE01.JPG,,,,,4,2,42,0,,,,,,,,,,,,,,,,,,,AMSA08.jpg,AMNE13.jpg,AMSA13.jpg,AMNE07.jpg,AMSA08.jpg,MS,2,num_8,32,num_6,0.533497872695,,,2017_Oct_17_1227,60.0042148131,FEMA4ImagesEEG,001,201965,
AFNE01.JPG,AFNE01.JPG,AFNE01.JPG,AFNE01.JPG,AFNE01.JPG,AFNE01.JPG,,,,,4,3,43,8,,,,,,,,,,,,,,,,,,,AMSA05.jpg,AMSA16.jpg,AMNE06.jpg,AMNE07.jpg,AMNE07.jpg,MN,1,num_4,32,num_8,0.616804504465,,,2017_Oct_17_1227,60.0042148131,FEMA4ImagesEEG,001,201965,
AFNE01.JPG,AFNE01.JPG,AFNE01.JPG,AFNE01.JPG,AFNE01.JPG,AFNE01.JPG,,,,,4,4,44,4,,,,,,,,,,,,,,,,,,,AMNE01.jpg,AMNE09.jpg,AMSA17.jpg,AMSA06.jpg,AMNE01.jpg,MN,1,num_8,16,num_8,0.883507414695,,,2017_Oct_17_1227,60.0042148131,FEMA4ImagesEEG,001,201965,
AFNE01.JPG,AFNE01.JPG,AFNE01.JPG,AFNE01.JPG,AFNE01.JPG,AFNE01.JPG,,,,,4,5,45,2,,,,,,,,,,,,,,,,,,,AMSA08.jpg,AMSA05.jpg,AMNE02.jpg,AMNE14.jpg,AMNE14.jpg,MN,1,num_4,32,num_6,0.483467001519,,,2017_Oct_17_1227,60.0042148131,FEMA4ImagesEEG,001,201965,
AFNE01.JPG,AFNE01.JPG,AFNE01.JPG,AFNE01.JPG,AFNE01.JPG,AFNE01.JPG,,,,,4,6,46,3,,,,,,,,,,,,,,,,,,,AMNE17.jpg,AMNE19.jpg,AMSA05.jpg,AMSA07.jpg,AMSA07.jpg,MS,2,num_4,16,num_4,1.94972248015,,,2017_Oct_17_1227,60.0042148131,FEMA4ImagesEEG,001,201965,
AFNE01.JPG,AFNE01.JPG,AFNE01.JPG,AFNE01.JPG,AFNE01.JPG,AFNE01.JPG,,,,,4,7,47,7,,,,,,,,,,,,,,,,,,,AMNE04.jpg,AMNE03.jpg,AMSA08.jpg,AMSA03.jpg,AMSA03.jpg,MS,2,num_4,32,num_8,1.0001177114,,,2017_Oct_17_1227,60.0042148131,FEMA4ImagesEEG,001,201965,
AFNE01.JPG,AFNE01.JPG,AFNE01.JPG,AFNE01.JPG,AFNE01.JPG,AFNE01.JPG,,,,,4,8,48,9,,,,,,,,,,,,,,,,,,,AMNE08.jpg,AMSA03.jpg,AMSA05.jpg,AMNE16.jpg,AMSA05.jpg,MS,2,num_2,32,num_6,0.766772671071,,,2017_Oct_17_1227,60.0042148131,FEMA4ImagesEEG,001,201965,
AFNE01.JPG,AFNE01.JPG,AFNE01.JPG,AFNE01.JPG,AFNE01.JPG,AFNE01.JPG,,,,,4,9,49,6,,,,,,,,,,,,,,,,,,,AMSA14.jpg,AMNE19.jpg,AMSA18.jpg,AMNE02.jpg,AMSA18.jpg,MS,2,num_2,32,num_4,0.916749497642,,,2017_Oct_17_1227,60.0042148131,FEMA4ImagesEEG,001,201965,
AFNE01.JPG,AFNE01.JPG,AFNE01.JPG,AFNE01.JPG,AFNE01.JPG,AFNE01.JPG,,,,,5,0,50,3,,,,,,,,,,,,,,,,,,,AMSA09.jpg,AMSA19.jpg,AMNE16.jpg,AMNE03.jpg,AMNE16.jpg,MN,1,num_2,16,num_2,0.900412631363,,,2017_Oct_17_1227,60.0042148131,FEMA4ImagesEEG,001,201965,
AFNE01.JPG,AFNE01.JPG,AFNE01.JPG,AFNE01.JPG,AFNE01.JPG,AFNE01.JPG,,,,,5,1,51,0,,,,,,,,,,,,,,,,,,,AMSA07.jpg,AMNE10.jpg,AMNE07.jpg,AMSA06.jpg,AMNE10.jpg,MN,1,num_6,16,num_6,0.633471090948,,,2017_Oct_17_1227,60.0042148131,FEMA4ImagesEEG,001,201965,
AFNE01.JPG,AFNE01.JPG,AFNE01.JPG,AFNE01.JPG,AFNE01.JPG,AFNE01.JPG,,,,,5,2,52,2,,,,,,,,,,,,,,,,,,,AMSA02.jpg,AMSA07.jpg,AMNE17.jpg,AMNE02.jpg,AMSA07.jpg,MS,2,num_6,16,num_6,0.616793599323,,,2017_Oct_17_1227,60.0042148131,FEMA4ImagesEEG,001,201965,
AFNE01.JPG,AFNE01.JPG,AFNE01.JPG,AFNE01.JPG,AFNE01.JPG,AFNE01.JPG,,,,,5,3,53,4,,,,,,,,,,,,,,,,,,,AMSA02.jpg,AMSA09.jpg,AMNE09.jpg,AMNE14.jpg,AMNE09.jpg,MN,1,num_2,16,num_2,0.950107367546,,,2017_Oct_17_1227,60.0042148131,FEMA4ImagesEEG,001,201965,
AFNE01.JPG,AFNE01.JPG,AFNE01.JPG,AFNE01.JPG,AFNE01.JPG,AFNE01.JPG,,,,,5,4,54,8,,,,,,,,,,,,,,,,,,,AMNE19.jpg,AMSA17.jpg,AMSA11.jpg,AMNE11.jpg,AMSA17.jpg,MS,2,num_6,32,num_8,1.18337543039,,,2017_Oct_17_1227,60.0042148131,FEMA4ImagesEEG,001,201965,
AFNE01.JPG,AFNE01.JPG,AFNE01.JPG,AFNE01.JPG,AFNE01.JPG,AFNE01.JPG,,,,,5,5,55,6,,,,,,,,,,,,,,,,,,,AMNE05.jpg,AMSA20.jpg,AMSA08.jpg,AMNE10.jpg,AMSA08.jpg,MS,2,num_2,32,num_6,0.666746210062,,,2017_Oct_17_1227,60.0042148131,FEMA4ImagesEEG,001,201965,
AFNE01.JPG,AFNE01.JPG,AFNE01.JPG,AFNE01.JPG,AFNE01.JPG,AFNE01.JPG,,,,,5,6,56,1,,,,,,,,,,,,,,,,,,,AMNE15.jpg,AMNE13.jpg,AMSA11.jpg,AMSA18.jpg,AMSA18.jpg,MS,2,num_4,16,num_4,0.750119876387,,,2017_Oct_17_1227,60.0042148131,FEMA4ImagesEEG,001,201965,
AFNE01.JPG,AFNE01.JPG,AFNE01.JPG,AFNE01.JPG,AFNE01.JPG,AFNE01.JPG,,,,,5,7,57,7,,,,,,,,,,,,,,,,,,,AMNE09.jpg,AMSA05.jpg,AMSA04.jpg,AMNE17.jpg,AMSA05.jpg,MS,2,num_6,32,num_8,1.20006671382,,,2017_Oct_17_1227,60.0042148131,FEMA4ImagesEEG,001,201965,
AFNE01.JPG,AFNE01.JPG,AFNE01.JPG,AFNE01.JPG,AFNE01.JPG,AFNE01.JPG,,,,,5,8,58,5,,,,,,,,,,,,,,,,,,,AMSA17.jpg,AMNE02.jpg,AMSA01.jpg,AMNE14.jpg,AMNE14.jpg,MN,1,num_4,32,num_2,1.23343356443,,,2017_Oct_17_1227,60.0042148131,FEMA4ImagesEEG,001,201965,
AFNE01.JPG,AFNE01.JPG,AFNE01.JPG,AFNE01.JPG,AFNE01.JPG,AFNE01.JPG,,,,,5,9,59,9,,,,,,,,,,,,,,,,,,,AMNE14.jpg,AMNE13.jpg,AMSA15.jpg,AMSA17.jpg,AMSA17.jpg,MS,2,num_4,16,num_4,0.833511183384,,,2017_Oct_17_1227,60.0042148131,FEMA4ImagesEEG,001,201965,
,,,,,,,,,,,,,,,,,,,,,,,,,,,,,,,,,,,,,,,,,,,space,45.6965778699,2017_Oct_17_1227,60.0042148131,FEMA4ImagesEEG,001,201965,
AFNE01.JPG,AFNE01.JPG,AFNE01.JPG,AFNE01.JPG,AFNE01.JPG,AFNE01.JPG,,,,,,,,,0,0,0,4,,,,,,,,,,,,,,,AFNE04.jpg,AFSA11.jpg,AFNE14.jpg,AFSA09.jpg,AFSA09.jpg,FS,4,num_4,32,num_8,0.650168147681,,,2017_Oct_17_1227,60.0042148131,FEMA4ImagesEEG,001,201965,
AFNE01.JPG,AFNE01.JPG,AFNE01.JPG,AFNE01.JPG,AFNE01.JPG,AFNE01.JPG,,,,,,,,,0,1,1,6,,,,,,,,,,,,,,,AFNE08.jpg,AFSA06.jpg,AFSA20.jpg,AFNE14.jpg,AFSA20.jpg,FS,4,num_2,32,num_4,0.633559615048,,,2017_Oct_17_1227,60.0042148131,FEMA4ImagesEEG,001,201965,
AFNE01.JPG,AFNE01.JPG,AFNE01.JPG,AFNE01.JPG,AFNE01.JPG,AFNE01.JPG,,,,,,,,,0,2,2,3,,,,,,,,,,,,,,,AFSA13.jpg,AFNE14.jpg,AFSA12.jpg,AFNE11.jpg,AFNE11.jpg,FN,3,num_4,32,num_8,0.583462350796,,,2017_Oct_17_1227,60.0042148131,FEMA4ImagesEEG,001,201965,
AFNE01.JPG,AFNE01.JPG,AFNE01.JPG,AFNE01.JPG,AFNE01.JPG,AFNE01.JPG,,,,,,,,,0,3,3,7,,,,,,,,,,,,,,,AFNE18.jpg,AFNE09.jpg,AFSA03.jpg,AFSA02.jpg,AFNE09.jpg,FN,3,num_6,16,num_6,0.500116909547,,,2017_Oct_17_1227,60.0042148131,FEMA4ImagesEEG,001,201965,
AFNE01.JPG,AFNE01.JPG,AFNE01.JPG,AFNE01.JPG,AFNE01.JPG,AFNE01.JPG,,,,,,,,,0,4,4,9,,,,,,,,,,,,,,,AFSA13.jpg,AFSA11.jpg,AFNE16.jpg,AFNE09.jpg,AFSA13.jpg,FS,4,num_8,32,num_4,0.50017207674,,,2017_Oct_17_1227,60.0042148131,FEMA4ImagesEEG,001,201965,
AFNE01.JPG,AFNE01.JPG,AFNE01.JPG,AFNE01.JPG,AFNE01.JPG,AFNE01.JPG,,,,,,,,,0,5,5,8,,,,,,,,,,,,,,,AFSA19.jpg,AFNE12.jpg,AFNE03.jpg,AFSA07.jpg,AFNE03.jpg,FN,3,num_2,32,num_8,1.86670162727,,,2017_Oct_17_1227,60.0042148131,FEMA4ImagesEEG,001,201965,
AFNE01.JPG,AFNE01.JPG,AFNE01.JPG,AFNE01.JPG,AFNE01.JPG,AFNE01.JPG,,,,,,,,,0,6,6,1,,,,,,,,,,,,,,,AFSA10.jpg,AFNE20.jpg,AFSA04.jpg,AFNE19.jpg,AFNE19.jpg,FN,3,num_4,16,num_4,0.80013406911,,,2017_Oct_17_1227,60.0042148131,FEMA4ImagesEEG,001,201965,
AFNE01.JPG,AFNE01.JPG,AFNE01.JPG,AFNE01.JPG,AFNE01.JPG,AFNE01.JPG,,,,,,,,,0,7,7,0,,,,,,,,,,,,,,,AFSA09.jpg,AFNE07.jpg,AFSA13.jpg,AFNE08.jpg,AFNE07.jpg,FN,3,num_6,16,num_6,0.533474458713,,,2017_Oct_17_1227,60.0042148131,FEMA4ImagesEEG,001,201965,
AFNE01.JPG,AFNE01.JPG,AFNE01.JPG,AFNE01.JPG,AFNE01.JPG,AFNE01.JPG,,,,,,,,,0,8,8,5,,,,,,,,,,,,,,,AFSA01.jpg,AFNE06.jpg,AFSA20.jpg,AFNE16.jpg,AFNE06.jpg,FN,3,num_6,32,num_4,0.650123564891,,,2017_Oct_17_1227,60.0042148131,FEMA4ImagesEEG,001,201965,
AFNE01.JPG,AFNE01.JPG,AFNE01.JPG,AFNE01.JPG,AFNE01.JPG,AFNE01.JPG,,,,,,,,,0,9,9,2,,,,,,,,,,,,,,,AFSA01.jpg,AFNE18.jpg,AFNE09.jpg,AFSA02.jpg,AFNE09.jpg,FN,3,num_2,32,num_4,2.56666394038,,,2017_Oct_17_1227,60.0042148131,FEMA4ImagesEEG,001,201965,
AFNE01.JPG,AFNE01.JPG,AFNE01.JPG,AFNE01.JPG,AFNE01.JPG,AFNE01.JPG,,,,,,,,,1,0,10,8,,,,,,,,,,,,,,,AFNE10.jpg,AFNE13.jpg,AFSA09.jpg,AFSA11.jpg,AFSA09.jpg,FS,4,num_2,32,num_6,4.2664517712,,,2017_Oct_17_1227,60.0042148131,FEMA4ImagesEEG,001,201965,
AFNE01.JPG,AFNE01.JPG,AFNE01.JPG,AFNE01.JPG,AFNE01.JPG,AFNE01.JPG,,,,,,,,,1,1,11,4,,,,,,,,,,,,,,,AFSA03.jpg,AFNE16.jpg,AFSA16.jpg,AFNE11.jpg,AFSA16.jpg,FS,4,num_2,32,num_6,0.883464756343,,,2017_Oct_17_1227,60.0042148131,FEMA4ImagesEEG,001,201965,
AFNE01.JPG,AFNE01.JPG,AFNE01.JPG,AFNE01.JPG,AFNE01.JPG,AFNE01.JPG,,,,,,,,,1,2,12,9,,,,,,,,,,,,,,,AFSA01.jpg,AFSA13.jpg,AFNE03.jpg,AFNE06.jpg,AFSA01.jpg,FS,4,num_8,32,num_4,0.816799051894,,,2017_Oct_17_1227,60.0042148131,FEMA4ImagesEEG,001,201965,
AFNE01.JPG,AFNE01.JPG,AFNE01.JPG,AFNE01.JPG,AFNE01.JPG,AFNE01.JPG,,,,,,,,,1,3,13,3,,,,,,,,,,,,,,,AFNE03.jpg,AFSA03.jpg,AFSA07.jpg,AFNE14.jpg,AFNE03.jpg,FN,3,num_8,32,num_6,0.483469567434,,,2017_Oct_17_1227,60.0042148131,FEMA4ImagesEEG,001,201965,
AFNE01.JPG,AFNE01.JPG,AFNE01.JPG,AFNE01.JPG,AFNE01.JPG,AFNE01.JPG,,,,,,,,,1,4,14,7,,,,,,,,,,,,,,,AFSA18.jpg,AFNE02.jpg,AFNE07.jpg,AFSA16.jpg,AFSA18.jpg,FS,4,num_8,32,num_4,1.25010367904,,,2017_Oct_17_1227,60.0042148131,FEMA4ImagesEEG,001,201965,
AFNE01.JPG,AFNE01.JPG,AFNE01.JPG,AFNE01.JPG,AFNE01.JPG,AFNE01.JPG,,,,,,,,,1,5,15,6,,,,,,,,,,,,,,,AFSA08.jpg,AFNE17.jpg,AFNE16.jpg,AFSA10.jpg,AFNE17.jpg,FN,3,num_6,32,num_8,2.09998380265,,,2017_Oct_17_1227,60.0042148131,FEMA4ImagesEEG,001,201965,
AFNE01.JPG,AFNE01.JPG,AFNE01.JPG,AFNE01.JPG,AFNE01.JPG,AFNE01.JPG,,,,,,,,,1,6,16,0,,,,,,,,,,,,,,,AFNE12.jpg,AFNE07.jpg,AFSA14.jpg,AFSA19.jpg,AFNE12.jpg,FN,3,num_8,32,num_6,0.350135913362,,,2017_Oct_17_1227,60.0042148131,FEMA4ImagesEEG,001,201965,
AFNE01.JPG,AFNE01.JPG,AFNE01.JPG,AFNE01.JPG,AFNE01.JPG,AFNE01.JPG,,,,,,,,,1,7,17,1,,,,,,,,,,,,,,,AFSA06.jpg,AFNE06.jpg,AFNE08.jpg,AFSA14.jpg,AFSA06.jpg,FS,4,num_8,32,num_6,1.1167905523,,,2017_Oct_17_1227,60.0042148131,FEMA4ImagesEEG,001,201965,
AFNE01.JPG,AFNE01.JPG,AFNE01.JPG,AFNE01.JPG,AFNE01.JPG,AFNE01.JPG,,,,,,,,,1,8,18,2,,,,,,,,,,,,,,,AFSA18.jpg,AFSA15.jpg,AFNE08.jpg,AFNE01.jpg,AFNE01.jpg,FN,3,num_4,32,num_8,0.716765534617,,,2017_Oct_17_1227,60.0042148131,FEMA4ImagesEEG,001,201965,
AFNE01.JPG,AFNE01.JPG,AFNE01.JPG,AFNE01.JPG,AFNE01.JPG,AFNE01.JPG,,,,,,,,,1,9,19,5,,,,,,,,,,,,,,,AFSA16.jpg,AFSA11.jpg,AFNE15.jpg,AFNE09.jpg,AFNE09.jpg,FN,3,num_4,48,None,,,,2017_Oct_17_1227,60.0042148131,FEMA4ImagesEEG,001,201965,
AFNE01.JPG,AFNE01.JPG,AFNE01.JPG,AFNE01.JPG,AFNE01.JPG,AFNE01.JPG,,,,,,,,,2,0,20,3,,,,,,,,,,,,,,,AFNE02.jpg,AFSA07.jpg,AFNE04.jpg,AFSA11.jpg,AFNE04.jpg,FN,3,num_2,32,num_6,0.75020743827,,,2017_Oct_17_1227,60.0042148131,FEMA4ImagesEEG,001,201965,
AFNE01.JPG,AFNE01.JPG,AFNE01.JPG,AFNE01.JPG,AFNE01.JPG,AFNE01.JPG,,,,,,,,,2,1,21,5,,,,,,,,,,,,,,,AFNE09.jpg,AFNE16.jpg,AFSA17.jpg,AFSA16.jpg,AFNE16.jpg,FN,3,num_6,32,num_4,0.616787826011,,,2017_Oct_17_1227,60.0042148131,FEMA4ImagesEEG,001,201965,
AFNE01.JPG,AFNE01.JPG,AFNE01.JPG,AFNE01.JPG,AFNE01.JPG,AFNE01.JPG,,,,,,,,,2,2,22,0,,,,,,,,,,,,,,,AFSA10.jpg,AFNE05.jpg,AFNE06.jpg,AFSA05.jpg,AFNE06.jpg,FN,3,num_2,48,None,,,,2017_Oct_17_1227,60.0042148131,FEMA4ImagesEEG,001,201965,
AFNE01.JPG,AFNE01.JPG,AFNE01.JPG,AFNE01.JPG,AFNE01.JPG,AFNE01.JPG,,,,,,,,,2,3,23,1,,,,,,,,,,,,,,,AFSA20.jpg,AFNE19.jpg,AFSA08.jpg,AFNE20.jpg,AFNE19.jpg,FN,3,num_6,48,None,,,,2017_Oct_17_1227,60.0042148131,FEMA4ImagesEEG,001,201965,
AFNE01.JPG,AFNE01.JPG,AFNE01.JPG,AFNE01.JPG,AFNE01.JPG,AFNE01.JPG,,,,,,,,,2,4,24,2,,,,,,,,,,,,,,,AFSA12.jpg,AFSA13.jpg,AFNE12.jpg,AFNE06.jpg,AFNE06.jpg,FN,3,num_4,32,num_6,0.766745728953,,,2017_Oct_17_1227,60.0042148131,FEMA4ImagesEEG,001,201965,
AFNE01.JPG,AFNE01.JPG,AFNE01.JPG,AFNE01.JPG,AFNE01.JPG,AFNE01.JPG,,,,,,,,,2,5,25,7,,,,,,,,,,,,,,,AFNE07.jpg,AFSA08.jpg,AFNE04.jpg,AFSA01.jpg,AFNE04.jpg,FN,3,num_2,16,num_2,0.616772430516,,,2017_Oct_17_1227,60.0042148131,FEMA4ImagesEEG,001,201965,
AFNE01.JPG,AFNE01.JPG,AFNE01.JPG,AFNE01.JPG,AFNE01.JPG,AFNE01.JPG,,,,,,,,,2,6,26,9,,,,,,,,,,,,,,,AFNE04.jpg,AFSA12.jpg,AFSA05.jpg,AFNE06.jpg,AFNE06.jpg,FN,3,num_4,32,num_8,0.550180175413,,,2017_Oct_17_1227,60.0042148131,FEMA4ImagesEEG,001,201965,
AFNE01.JPG,AFNE01.JPG,AFNE01.JPG,AFNE01.JPG,AFNE01.JPG,AFNE01.JPG,,,,,,,,,2,7,27,8,,,,,,,,,,,,,,,AFNE02.jpg,AFNE07.jpg,AFSA10.jpg,AFSA13.jpg,AFNE07.jpg,FN,3,num_6,16,num_6,0.450160770672,,,2017_Oct_17_1227,60.0042148131,FEMA4ImagesEEG,001,201965,
AFNE01.JPG,AFNE01.JPG,AFNE01.JPG,AFNE01.JPG,AFNE01.JPG,AFNE01.JPG,,,,,,,,,2,8,28,6,,,,,,,,,,,,,,,AFSA03.jpg,AFNE15.jpg,AFNE01.jpg,AFSA10.jpg,AFSA03.jpg,FS,4,num_8,16,num_8,0.650168147681,,,2017_Oct_17_1227,60.0042148131,FEMA4ImagesEEG,001,201965,
AFNE01.JPG,AFNE01.JPG,AFNE01.JPG,AFNE01.JPG,AFNE01.JPG,AFNE01.JPG,,,,,,,,,2,9,29,4,,,,,,,,,,,,,,,AFNE03.jpg,AFSA09.jpg,AFNE14.jpg,AFSA04.jpg,AFNE14.jpg,FN,3,num_2,32,num_8,0.983406221384,,,2017_Oct_17_1227,60.0042148131,FEMA4ImagesEEG,001,201965,
AFNE01.JPG,AFNE01.JPG,AFNE01.JPG,AFNE01.JPG,AFNE01.JPG,AFNE01.JPG,,,,,,,,,3,0,30,3,,,,,,,,,,,,,,,AFNE20.jpg,AFNE07.jpg,AFSA03.jpg,AFSA08.jpg,AFNE20.jpg,FN,3,num_8,32,num_2,0.350208079749,,,2017_Oct_17_1227,60.0042148131,FEMA4ImagesEEG,001,201965,
AFNE01.JPG,AFNE01.JPG,AFNE01.JPG,AFNE01.JPG,AFNE01.JPG,AFNE01.JPG,,,,,,,,,3,1,31,4,,,,,,,,,,,,,,,AFNE20.jpg,AFSA04.jpg,AFNE04.jpg,AFSA17.jpg,AFNE20.jpg,FN,3,num_8,32,num_2,3.33324769589,,,2017_Oct_17_1227,60.0042148131,FEMA4ImagesEEG,001,201965,
AFNE01.JPG,AFNE01.JPG,AFNE01.JPG,AFNE01.JPG,AFNE01.JPG,AFNE01.JPG,,,,,,,,,3,2,32,2,,,,,,,,,,,,,,,AFNE14.jpg,AFNE16.jpg,AFSA11.jpg,AFSA07.jpg,AFNE14.jpg,FN,3,num_8,32,num_4,0.216822145138,,,2017_Oct_17_1227,60.0042148131,FEMA4ImagesEEG,001,201965,
AFNE01.JPG,AFNE01.JPG,AFNE01.JPG,AFNE01.JPG,AFNE01.JPG,AFNE01.JPG,,,,,,,,,3,3,33,1,,,,,,,,,,,,,,,AFNE12.jpg,AFSA08.jpg,AFSA05.jpg,AFNE11.jpg,AFNE11.jpg,FN,3,num_4,32,num_6,0.950173119143,,,2017_Oct_17_1227,60.0042148131,FEMA4ImagesEEG,001,201965,
AFNE01.JPG,AFNE01.JPG,AFNE01.JPG,AFNE01.JPG,AFNE01.JPG,AFNE01.JPG,,,,,,,,,3,4,34,0,,,,,,,,,,,,,,,AFNE16.jpg,AFSA15.jpg,AFSA07.jpg,AFNE07.jpg,AFSA15.jpg,FS,4,num_6,32,num_4,1.01673394178,,,2017_Oct_17_1227,60.0042148131,FEMA4ImagesEEG,001,201965,
AFNE01.JPG,AFNE01.JPG,AFNE01.JPG,AFNE01.JPG,AFNE01.JPG,AFNE01.JPG,,,,,,,,,3,5,35,5,,,,,,,,,,,,,,,AFSA02.jpg,AFSA18.jpg,AFNE12.jpg,AFNE08.jpg,AFNE12.jpg,FN,3,num_2,32,num_8,3.04991861235,,,2017_Oct_17_1227,60.0042148131,FEMA4ImagesEEG,001,201965,
AFNE01.JPG,AFNE01.JPG,AFNE01.JPG,AFNE01.JPG,AFNE01.JPG,AFNE01.JPG,,,,,,,,,3,6,36,7,,,,,,,,,,,,,,,AFSA04.jpg,AFNE03.jpg,AFNE09.jpg,AFSA12.jpg,AFSA04.jpg,FS,4,num_8,16,num_8,0.650125168589,,,2017_Oct_17_1227,60.0042148131,FEMA4ImagesEEG,001,201965,
AFNE01.JPG,AFNE01.JPG,AFNE01.JPG,AFNE01.JPG,AFNE01.JPG,AFNE01.JPG,,,,,,,,,3,7,37,8,,,,,,,,,,,,,,,AFNE07.jpg,AFSA18.jpg,AFSA06.jpg,AFNE11.jpg,AFNE11.jpg,FN,3,num_4,32,num_8,1.2834156832,,,2017_Oct_17_1227,60.0042148131,FEMA4ImagesEEG,001,201965,
AFNE01.JPG,AFNE01.JPG,AFNE01.JPG,AFNE01.JPG,AFNE01.JPG,AFNE01.JPG,,,,,,,,,3,8,38,6,,,,,,,,,,,,,,,AFSA18.jpg,AFSA01.jpg,AFNE01.jpg,AFNE13.jpg,AFSA01.jpg,FS,4,num_6,16,num_6,0.550146497765,,,2017_Oct_17_1227,60.0042148131,FEMA4ImagesEEG,001,201965,
AFNE01.JPG,AFNE01.JPG,AFNE01.JPG,AFNE01.JPG,AFNE01.JPG,AFNE01.JPG,,,,,,,,,3,9,39,9,,,,,,,,,,,,,,,AFSA03.jpg,AFNE09.jpg,AFSA01.jpg,AFNE08.jpg,AFNE09.jpg,FN,3,num_6,16,num_6,2.29964413953,,,2017_Oct_17_1227,60.0042148131,FEMA4ImagesEEG,001,201965,
AFNE01.JPG,AFNE01.JPG,AFNE01.JPG,AFNE01.JPG,AFNE01.JPG,AFNE01.JPG,,,,,,,,,4,0,40,0,,,,,,,,,,,,,,,AFNE14.jpg,AFSA05.jpg,AFSA17.jpg,AFNE20.jpg,AFSA05.jpg,FS,4,num_6,32,num_4,0.516822305508,,,2017_Oct_17_1227,60.0042148131,FEMA4ImagesEEG,001,201965,
AFNE01.JPG,AFNE01.JPG,AFNE01.JPG,AFNE01.JPG,AFNE01.JPG,AFNE01.JPG,,,,,,,,,4,1,41,8,,,,,,,,,,,,,,,AFNE04.jpg,AFNE08.jpg,AFSA15.jpg,AFSA18.jpg,AFSA15.jpg,FS,4,num_2,48,None,,,,2017_Oct_17_1227,60.0042148131,FEMA4ImagesEEG,001,201965,
AFNE01.JPG,AFNE01.JPG,AFNE01.JPG,AFNE01.JPG,AFNE01.JPG,AFNE01.JPG,,,,,,,,,4,2,42,7,,,,,,,,,,,,,,,AFSA20.jpg,AFNE06.jpg,AFNE08.jpg,AFSA10.jpg,AFSA10.jpg,FS,4,num_4,32,num_8,0.516767459054,,,2017_Oct_17_1227,60.0042148131,FEMA4ImagesEEG,001,201965,
AFNE01.JPG,AFNE01.JPG,AFNE01.JPG,AFNE01.JPG,AFNE01.JPG,AFNE01.JPG,,,,,,,,,4,3,43,5,,,,,,,,,,,,,,,AFSA03.jpg,AFSA17.jpg,AFNE17.jpg,AFNE14.jpg,AFSA17.jpg,FS,4,num_6,16,num_6,0.383490255132,,,2017_Oct_17_1227,60.0042148131,FEMA4ImagesEEG,001,201965,
AFNE01.JPG,AFNE01.JPG,AFNE01.JPG,AFNE01.JPG,AFNE01.JPG,AFNE01.JPG,,,,,,,,,4,4,44,3,,,,,,,,,,,,,,,AFNE12.jpg,AFNE19.jpg,AFSA03.jpg,AFSA08.jpg,AFSA03.jpg,FS,4,num_2,32,num_4,1.56672167349,,,2017_Oct_17_1227,60.0042148131,FEMA4ImagesEEG,001,201965,
AFNE01.JPG,AFNE01.JPG,AFNE01.JPG,AFNE01.JPG,AFNE01.JPG,AFNE01.JPG,,,,,,,,,4,5,45,9,,,,,,,,,,,,,,,AFSA15.jpg,AFNE07.jpg,AFSA13.jpg,AFNE17.jpg,AFSA15.jpg,FS,4,num_8,32,num_4,2.53332723928,,,2017_Oct_17_1227,60.0042148131,FEMA4ImagesEEG,001,201965,
AFNE01.JPG,AFNE01.JPG,AFNE01.JPG,AFNE01.JPG,AFNE01.JPG,AFNE01.JPG,,,,,,,,,4,6,46,2,,,,,,,,,,,,,,,AFSA13.jpg,AFSA01.jpg,AFNE06.jpg,AFNE15.jpg,AFSA13.jpg,FS,4,num_8,16,num_8,0.566788387306,,,2017_Oct_17_1227,60.0042148131,FEMA4ImagesEEG,001,201965,
AFNE01.JPG,AFNE01.JPG,AFNE01.JPG,AFNE01.JPG,AFNE01.JPG,AFNE01.JPG,,,,,,,,,4,7,47,6,,,,,,,,,,,,,,,AFSA12.jpg,AFNE01.jpg,AFNE16.jpg,AFSA13.jpg,AFSA13.jpg,FS,4,num_4,32,num_6,0.400238630186,,,2017_Oct_17_1227,60.0042148131,FEMA4ImagesEEG,001,201965,
AFNE01.JPG,AFNE01.JPG,AFNE01.JPG,AFNE01.JPG,AFNE01.JPG,AFNE01.JPG,,,,,,,,,4,8,48,1,,,,,,,,,,,,,,,AFSA19.jpg,AFNE13.jpg,AFNE20.jpg,AFSA18.jpg,AFNE20.jpg,FN,3,num_2,32,num_4,0.100186510018,,,2017_Oct_17_1227,60.0042148131,FEMA4ImagesEEG,001,201965,
AFNE01.JPG,AFNE01.JPG,AFNE01.JPG,AFNE01.JPG,AFNE01.JPG,AFNE01.JPG,,,,,,,,,4,9,49,4,,,,,,,,,,,,,,,AFSA10.jpg,AFSA15.jpg,AFNE15.jpg,AFNE06.jpg,AFSA10.jpg,FS,4,num_8,32,num_2,1.38336195933,,,2017_Oct_17_1227,60.0042148131,FEMA4ImagesEEG,001,201965,
AFNE01.JPG,AFNE01.JPG,AFNE01.JPG,AFNE01.JPG,AFNE01.JPG,AFNE01.JPG,,,,,,,,,5,0,50,2,,,,,,,,,,,,,,,AFNE11.jpg,AFNE03.jpg,AFSA14.jpg,AFSA05.jpg,AFNE11.jpg,FN,3,num_8,32,num_4,2.46664132825,,,2017_Oct_17_1227,60.0042148131,FEMA4ImagesEEG,001,201965,
AFNE01.JPG,AFNE01.JPG,AFNE01.JPG,AFNE01.JPG,AFNE01.JPG,AFNE01.JPG,,,,,,,,,5,1,51,4,,,,,,,,,,,,,,,AFNE14.jpg,AFNE02.jpg,AFSA13.jpg,AFSA05.jpg,AFNE14.jpg,FN,3,num_8,32,num_6,0.316792155995,,,2017_Oct_17_1227,60.0042148131,FEMA4ImagesEEG,001,201965,
AFNE01.JPG,AFNE01.JPG,AFNE01.JPG,AFNE01.JPG,AFNE01.JPG,AFNE01.JPG,,,,,,,,,5,2,52,9,,,,,,,,,,,,,,,AFSA09.jpg,AFSA10.jpg,AFNE01.jpg,AFNE03.jpg,AFSA09.jpg,FS,4,num_8,32,num_4,0.316873623828,,,2017_Oct_17_1227,60.0042148131,FEMA4ImagesEEG,001,201965,
AFNE01.JPG,AFNE01.JPG,AFNE01.JPG,AFNE01.JPG,AFNE01.JPG,AFNE01.JPG,,,,,,,,,5,3,53,8,,,,,,,,,,,,,,,AFSA05.jpg,AFNE13.jpg,AFNE05.jpg,AFSA03.jpg,AFSA03.jpg,FS,4,num_4,48,None,,,,2017_Oct_17_1227,60.0042148131,FEMA4ImagesEEG,001,201965,
AFNE01.JPG,AFNE01.JPG,AFNE01.JPG,AFNE01.JPG,AFNE01.JPG,AFNE01.JPG,,,,,,,,,5,4,54,5,,,,,,,,,,,,,,,AFNE05.jpg,AFNE13.jpg,AFSA19.jpg,AFSA08.jpg,AFSA08.jpg,FS,4,num_4,32,num_8,0.616793920062,,,2017_Oct_17_1227,60.0042148131,FEMA4ImagesEEG,001,201965,
AFNE01.JPG,AFNE01.JPG,AFNE01.JPG,AFNE01.JPG,AFNE01.JPG,AFNE01.JPG,,,,,,,,,5,5,55,3,,,,,,,,,,,,,,,AFNE07.jpg,AFSA08.jpg,AFNE08.jpg,AFSA06.jpg,AFSA08.jpg,FS,4,num_6,16,num_6,0.466762247037,,,2017_Oct_17_1227,60.0042148131,FEMA4ImagesEEG,001,201965,
AFNE01.JPG,AFNE01.JPG,AFNE01.JPG,AFNE01.JPG,AFNE01.JPG,AFNE01.JPG,,,,,,,,,5,6,56,1,,,,,,,,,,,,,,,AFNE19.jpg,AFSA20.jpg,AFSA08.jpg,AFNE14.jpg,AFNE14.jpg,FN,3,num_4,32,num_8,0.466788226936,,,2017_Oct_17_1227,60.0042148131,FEMA4ImagesEEG,001,201965,
AFNE01.JPG,AFNE01.JPG,AFNE01.JPG,AFNE01.JPG,AFNE01.JPG,AFNE01.JPG,,,,,,,,,5,7,57,0,,,,,,,,,,,,,,,AFSA20.jpg,AFNE13.jpg,AFNE07.jpg,AFSA15.jpg,AFNE13.jpg,FN,3,num_6,32,num_4,0.416633550313,,,2017_Oct_17_1227,60.0042148131,FEMA4ImagesEEG,001,201965,
AFNE01.JPG,AFNE01.JPG,AFNE01.JPG,AFNE01.JPG,AFNE01.JPG,AFNE01.JPG,,,,,,,,,5,8,58,6,,,,,,,,,,,,,,,AFSA08.jpg,AFSA19.jpg,AFNE02.jpg,AFNE01.jpg,AFNE02.jpg,FN,3,num_2,32,num_6,0.35018209985,,,2017_Oct_17_1227,60.0042148131,FEMA4ImagesEEG,001,201965,
AFNE01.JPG,AFNE01.JPG,AFNE01.JPG,AFNE01.JPG,AFNE01.JPG,AFNE01.JPG,,,,,,,,,5,9,59,7,,,,,,,,,,,,,,,AFNE06.jpg,AFSA11.jpg,AFSA13.jpg,AFNE11.jpg,AFNE06.jpg,FN,3,num_8,16,num_8,0.6334114334,,,2017_Oct_17_1227,60.0042148131,FEMA4ImagesEEG,001,201965,
,,,,,,,,,,,,,,,,,,,,,,,,,,,,,,,,,,,,,,,,,,,space,103.725402408,2017_Oct_17_1227,60.0042148131,FEMA4ImagesEEG,001,201965,
AFNE01.JPG,AFNE01.JPG,AFNE01.JPG,AFNE01.JPG,AFNE01.JPG,AFNE01.JPG,,,,,,,,,,,,,0,0,0,2,,,,,,,,,,,AMSA04.jpg,AMNE07.jpg,AMNE20.jpg,AMSA05.jpg,AMNE20.jpg,MN,1,num_2,32,num_8,0.500103438489,,,2017_Oct_17_1227,60.0042148131,FEMA4ImagesEEG,001,201965,
AFNE01.JPG,AFNE01.JPG,AFNE01.JPG,AFNE01.JPG,AFNE01.JPG,AFNE01.JPG,,,,,,,,,,,,,0,1,1,8,,,,,,,,,,,AMNE03.jpg,AMNE14.jpg,AMSA12.jpg,AMSA15.jpg,AMNE03.jpg,MN,1,num_8,32,num_6,0.466800094297,,,2017_Oct_17_1227,60.0042148131,FEMA4ImagesEEG,001,201965,
AFNE01.JPG,AFNE01.JPG,AFNE01.JPG,AFNE01.JPG,AFNE01.JPG,AFNE01.JPG,,,,,,,,,,,,,0,2,2,6,,,,,,,,,,,AMNE13.jpg,AMNE19.jpg,AMSA19.jpg,AMSA16.jpg,AMSA16.jpg,MS,2,num_4,16,num_4,0.533476703888,,,2017_Oct_17_1227,60.0042148131,FEMA4ImagesEEG,001,201965,
AFNE01.JPG,AFNE01.JPG,AFNE01.JPG,AFNE01.JPG,AFNE01.JPG,AFNE01.JPG,,,,,,,,,,,,,0,3,3,3,,,,,,,,,,,AMSA08.jpg,AMNE12.jpg,AMSA12.jpg,AMNE14.jpg,AMSA08.jpg,MS,2,num_8,16,num_8,0.56679255692,,,2017_Oct_17_1227,60.0042148131,FEMA4ImagesEEG,001,201965,
AFNE01.JPG,AFNE01.JPG,AFNE01.JPG,AFNE01.JPG,AFNE01.JPG,AFNE01.JPG,,,,,,,,,,,,,0,4,4,0,,,,,,,,,,,AMSA19.jpg,AMSA04.jpg,AMNE15.jpg,AMNE16.jpg,AMNE15.jpg,MN,1,num_2,32,num_4,0.516774515323,,,2017_Oct_17_1227,60.0042148131,FEMA4ImagesEEG,001,201965,
AFNE01.JPG,AFNE01.JPG,AFNE01.JPG,AFNE01.JPG,AFNE01.JPG,AFNE01.JPG,,,,,,,,,,,,,0,5,5,5,,,,,,,,,,,AMSA17.jpg,AMNE20.jpg,AMSA05.jpg,AMNE06.jpg,AMNE20.jpg,MN,1,num_6,16,num_6,0.450211126774,,,2017_Oct_17_1227,60.0042148131,FEMA4ImagesEEG,001,201965,
AFNE01.JPG,AFNE01.JPG,AFNE01.JPG,AFNE01.JPG,AFNE01.JPG,AFNE01.JPG,,,,,,,,,,,,,0,6,6,4,,,,,,,,,,,AMSA08.jpg,AMNE17.jpg,AMNE19.jpg,AMSA20.jpg,AMNE17.jpg,MN,1,num_6,32,num_4,1.35019492943,,,2017_Oct_17_1227,60.0042148131,FEMA4ImagesEEG,001,201965,
AFNE01.JPG,AFNE01.JPG,AFNE01.JPG,AFNE01.JPG,AFNE01.JPG,AFNE01.JPG,,,,,,,,,,,,,0,7,7,7,,,,,,,,,,,AMNE10.jpg,AMNE02.jpg,AMSA06.jpg,AMSA19.jpg,AMSA06.jpg,MS,2,num_2,32,num_8,0.583521687602,,,2017_Oct_17_1227,60.0042148131,FEMA4ImagesEEG,001,201965,
AFNE01.JPG,AFNE01.JPG,AFNE01.JPG,AFNE01.JPG,AFNE01.JPG,AFNE01.JPG,,,,,,,,,,,,,0,8,8,9,,,,,,,,,,,AMNE02.jpg,AMSA03.jpg,AMSA15.jpg,AMNE15.jpg,AMSA03.jpg,MS,2,num_6,16,num_6,0.283500999905,,,2017_Oct_17_1227,60.0042148131,FEMA4ImagesEEG,001,201965,
AFNE01.JPG,AFNE01.JPG,AFNE01.JPG,AFNE01.JPG,AFNE01.JPG,AFNE01.JPG,,,,,,,,,,,,,0,9,9,1,,,,,,,,,,,AMNE01.jpg,AMNE18.jpg,AMSA19.jpg,AMSA10.jpg,AMSA10.jpg,MS,2,num_4,32,num_2,0.933534436997,,,2017_Oct_17_1227,60.0042148131,FEMA4ImagesEEG,001,201965,
AFNE01.JPG,AFNE01.JPG,AFNE01.JPG,AFNE01.JPG,AFNE01.JPG,AFNE01.JPG,,,,,,,,,,,,,1,0,10,3,,,,,,,,,,,AMSA06.jpg,AMNE08.jpg,AMSA04.jpg,AMNE10.jpg,AMNE08.jpg,MN,1,num_6,32,num_4,1.4167057167,,,2017_Oct_17_1227,60.0042148131,FEMA4ImagesEEG,001,201965,
AFNE01.JPG,AFNE01.JPG,AFNE01.JPG,AFNE01.JPG,AFNE01.JPG,AFNE01.JPG,,,,,,,,,,,,,1,1,11,2,,,,,,,,,,,AMNE19.jpg,AMSA05.jpg,AMNE06.jpg,AMSA13.jpg,AMSA05.jpg,MS,2,num_6,32,num_4,0.366803141323,,,2017_Oct_17_1227,60.0042148131,FEMA4ImagesEEG,001,201965,
AFNE01.JPG,AFNE01.JPG,AFNE01.JPG,AFNE01.JPG,AFNE01.JPG,AFNE01.JPG,,,,,,,,,,,,,1,2,12,0,,,,,,,,,,,AMNE07.jpg,AMSA12.jpg,AMNE11.jpg,AMSA05.jpg,AMSA05.jpg,MS,2,num_4,32,num_6,0.600128295799,,,2017_Oct_17_1227,60.0042148131,FEMA4ImagesEEG,001,201965,
AFNE01.JPG,AFNE01.JPG,AFNE01.JPG,AFNE01.JPG,AFNE01.JPG,AFNE01.JPG,,,,,,,,,,,,,1,3,13,7,,,,,,,,,,,AMSA06.jpg,AMSA18.jpg,AMNE15.jpg,AMNE02.jpg,AMSA06.jpg,MS,2,num_8,32,num_6,0.550151950337,,,2017_Oct_17_1227,60.0042148131,FEMA4ImagesEEG,001,201965,
AFNE01.JPG,AFNE01.JPG,AFNE01.JPG,AFNE01.JPG,AFNE01.JPG,AFNE01.JPG,,,,,,,,,,,,,1,4,14,8,,,,,,,,,,,AMSA05.jpg,AMSA07.jpg,AMNE20.jpg,AMNE11.jpg,AMSA07.jpg,MS,2,num_6,16,num_6,0.500174001178,,,2017_Oct_17_1227,60.0042148131,FEMA4ImagesEEG,001,201965,
AFNE01.JPG,AFNE01.JPG,AFNE01.JPG,AFNE01.JPG,AFNE01.JPG,AFNE01.JPG,,,,,,,,,,,,,1,5,15,1,,,,,,,,,,,AMNE11.jpg,AMSA18.jpg,AMSA09.jpg,AMNE06.jpg,AMNE06.jpg,MN,1,num_4,16,num_4,0.35010544311,,,2017_Oct_17_1227,60.0042148131,FEMA4ImagesEEG,001,201965,
AFNE01.JPG,AFNE01.JPG,AFNE01.JPG,AFNE01.JPG,AFNE01.JPG,AFNE01.JPG,,,,,,,,,,,,,1,6,16,4,,,,,,,,,,,AMSA15.jpg,AMSA09.jpg,AMNE17.jpg,AMNE16.jpg,AMNE16.jpg,MN,1,num_4,16,num_4,0.450142167782,,,2017_Oct_17_1227,60.0042148131,FEMA4ImagesEEG,001,201965,
AFNE01.JPG,AFNE01.JPG,AFNE01.JPG,AFNE01.JPG,AFNE01.JPG,AFNE01.JPG,,,,,,,,,,,,,1,7,17,5,,,,,,,,,,,AMNE14.jpg,AMSA07.jpg,AMNE08.jpg,AMSA06.jpg,AMSA06.jpg,MS,2,num_4,32,num_2,0.666786302499,,,2017_Oct_17_1227,60.0042148131,FEMA4ImagesEEG,001,201965,
AFNE01.JPG,AFNE01.JPG,AFNE01.JPG,AFNE01.JPG,AFNE01.JPG,AFNE01.JPG,,,,,,,,,,,,,1,8,18,6,,,,,,,,,,,AMSA11.jpg,AMNE04.jpg,AMNE02.jpg,AMSA04.jpg,AMSA04.jpg,MS,2,num_4,16,num_4,0.900102476269,,,2017_Oct_17_1227,60.0042148131,FEMA4ImagesEEG,001,201965,
AFNE01.JPG,AFNE01.JPG,AFNE01.JPG,AFNE01.JPG,AFNE01.JPG,AFNE01.JPG,,,,,,,,,,,,,1,9,19,9,,,,,,,,,,,AMSA13.jpg,AMNE18.jpg,AMSA07.jpg,AMNE10.jpg,AMSA13.jpg,MS,2,num_8,32,num_6,0.700094778521,,,2017_Oct_17_1227,60.0042148131,FEMA4ImagesEEG,001,201965,
AFNE01.JPG,AFNE01.JPG,AFNE01.JPG,AFNE01.JPG,AFNE01.JPG,AFNE01.JPG,,,,,,,,,,,,,2,0,20,3,,,,,,,,,,,AMSA11.jpg,AMNE17.jpg,AMNE20.jpg,AMSA07.jpg,AMSA11.jpg,MS,2,num_8,16,num_8,0.650104320522,,,2017_Oct_17_1227,60.0042148131,FEMA4ImagesEEG,001,201965,
AFNE01.JPG,AFNE01.JPG,AFNE01.JPG,AFNE01.JPG,AFNE01.JPG,AFNE01.JPG,,,,,,,,,,,,,2,1,21,7,,,,,,,,,,,AMNE07.jpg,AMSA13.jpg,AMSA16.jpg,AMNE14.jpg,AMSA16.jpg,MS,2,num_2,32,num_8,1.71670363189,,,2017_Oct_17_1227,60.0042148131,FEMA4ImagesEEG,001,201965,
AFNE01.JPG,AFNE01.JPG,AFNE01.JPG,AFNE01.JPG,AFNE01.JPG,AFNE01.JPG,,,,,,,,,,,,,2,2,22,5,,,,,,,,,,,AMNE11.jpg,AMNE20.jpg,AMSA06.jpg,AMSA19.jpg,AMNE11.jpg,MN,1,num_8,32,num_6,0.300153794588,,,2017_Oct_17_1227,60.0042148131,FEMA4ImagesEEG,001,201965,
AFNE01.JPG,AFNE01.JPG,AFNE01.JPG,AFNE01.JPG,AFNE01.JPG,AFNE01.JPG,,,,,,,,,,,,,2,3,23,4,,,,,,,,,,,AMSA04.jpg,AMNE15.jpg,AMNE03.jpg,AMSA14.jpg,AMNE15.jpg,MN,1,num_6,32,num_8,0.983455936006,,,2017_Oct_17_1227,60.0042148131,FEMA4ImagesEEG,001,201965,
AFNE01.JPG,AFNE01.JPG,AFNE01.JPG,AFNE01.JPG,AFNE01.JPG,AFNE01.JPG,,,,,,,,,,,,,2,4,24,2,,,,,,,,,,,AMNE06.jpg,AMSA04.jpg,AMNE17.jpg,AMSA03.jpg,AMNE06.jpg,MN,1,num_8,32,num_4,0.283524413889,,,2017_Oct_17_1227,60.0042148131,FEMA4ImagesEEG,001,201965,
AFNE01.JPG,AFNE01.JPG,AFNE01.JPG,AFNE01.JPG,AFNE01.JPG,AFNE01.JPG,,,,,,,,,,,,,2,5,25,6,,,,,,,,,,,AMSA05.jpg,AMSA07.jpg,AMNE08.jpg,AMNE14.jpg,AMNE08.jpg,MN,1,num_2,32,num_8,0.716792476735,,,2017_Oct_17_1227,60.0042148131,FEMA4ImagesEEG,001,201965,
AFNE01.JPG,AFNE01.JPG,AFNE01.JPG,AFNE01.JPG,AFNE01.JPG,AFNE01.JPG,,,,,,,,,,,,,2,6,26,8,,,,,,,,,,,AMNE19.jpg,AMNE04.jpg,AMSA15.jpg,AMSA03.jpg,AMSA03.jpg,MS,2,num_4,16,num_4,0.850128696723,,,2017_Oct_17_1227,60.0042148131,FEMA4ImagesEEG,001,201965,
AFNE01.JPG,AFNE01.JPG,AFNE01.JPG,AFNE01.JPG,AFNE01.JPG,AFNE01.JPG,,,,,,,,,,,,,2,7,27,0,,,,,,,,,,,AMSA02.jpg,AMSA15.jpg,AMNE01.jpg,AMNE06.jpg,AMSA15.jpg,MS,2,num_6,16,num_6,0.516655520969,,,2017_Oct_17_1227,60.0042148131,FEMA4ImagesEEG,001,201965,
AFNE01.JPG,AFNE01.JPG,AFNE01.JPG,AFNE01.JPG,AFNE01.JPG,AFNE01.JPG,,,,,,,,,,,,,2,8,28,9,,,,,,,,,,,AMSA13.jpg,AMSA18.jpg,AMNE14.jpg,AMNE10.jpg,AMSA18.jpg,MS,2,num_6,32,num_8,1.10011755103,,,2017_Oct_17_1227,60.0042148131,FEMA4ImagesEEG,001,201965,
AFNE01.JPG,AFNE01.JPG,AFNE01.JPG,AFNE01.JPG,AFNE01.JPG,AFNE01.JPG,,,,,,,,,,,,,2,9,29,1,,,,,,,,,,,AMSA12.jpg,AMNE03.jpg,AMNE16.jpg,AMSA11.jpg,AMNE03.jpg,MN,1,num_6,32,num_8,1.00012188101,,,2017_Oct_17_1227,60.0042148131,FEMA4ImagesEEG,001,201965,
AFNE01.JPG,AFNE01.JPG,AFNE01.JPG,AFNE01.JPG,AFNE01.JPG,AFNE01.JPG,,,,,,,,,,,,,3,0,30,0,,,,,,,,,,,AMNE16.jpg,AMSA20.jpg,AMNE10.jpg,AMSA14.jpg,AMNE10.jpg,MN,1,num_2,32,num_6,0.583481274426,,,2017_Oct_17_1227,60.0042148131,FEMA4ImagesEEG,001,201965,
AFNE01.JPG,AFNE01.JPG,AFNE01.JPG,AFNE01.JPG,AFNE01.JPG,AFNE01.JPG,,,,,,,,,,,,,3,1,31,5,,,,,,,,,,,AMNE04.jpg,AMSA11.jpg,AMSA05.jpg,AMNE20.jpg,AMNE04.jpg,MN,1,num_8,32,num_4,0.816853577609,,,2017_Oct_17_1227,60.0042148131,FEMA4ImagesEEG,001,201965,
AFNE01.JPG,AFNE01.JPG,AFNE01.JPG,AFNE01.JPG,AFNE01.JPG,AFNE01.JPG,,,,,,,,,,,,,3,2,32,9,,,,,,,,,,,AMNE13.jpg,AMSA18.jpg,AMNE03.jpg,AMSA15.jpg,AMSA18.jpg,MS,2,num_6,16,num_6,1.60005677089,,,2017_Oct_17_1227,60.0042148131,FEMA4ImagesEEG,001,201965,
AFNE01.JPG,AFNE01.JPG,AFNE01.JPG,AFNE01.JPG,AFNE01.JPG,AFNE01.JPG,,,,,,,,,,,,,3,3,33,3,,,,,,,,,,,AMSA05.jpg,AMNE10.jpg,AMNE15.jpg,AMSA03.jpg,AMSA03.jpg,MS,2,num_4,32,num_6,1.23343388517,,,2017_Oct_17_1227,60.0042148131,FEMA4ImagesEEG,001,201965,
AFNE01.JPG,AFNE01.JPG,AFNE01.JPG,AFNE01.JPG,AFNE01.JPG,AFNE01.JPG,,,,,,,,,,,,,3,4,34,4,,,,,,,,,,,AMNE14.jpg,AMSA11.jpg,AMSA02.jpg,AMNE18.jpg,AMSA11.jpg,MS,2,num_6,32,num_4,0.666809716483,,,2017_Oct_17_1227,60.0042148131,FEMA4ImagesEEG,001,201965,
AFNE01.JPG,AFNE01.JPG,AFNE01.JPG,AFNE01.JPG,AFNE01.JPG,AFNE01.JPG,,,,,,,,,,,,,3,5,35,8,,,,,,,,,,,AMSA08.jpg,AMNE09.jpg,AMNE11.jpg,AMSA10.jpg,AMSA08.jpg,MS,2,num_8,16,num_8,0.300228526892,,,2017_Oct_17_1227,60.0042148131,FEMA4ImagesEEG,001,201965,
AFNE01.JPG,AFNE01.JPG,AFNE01.JPG,AFNE01.JPG,AFNE01.JPG,AFNE01.JPG,,,,,,,,,,,,,3,6,36,1,,,,,,,,,,,AMNE08.jpg,AMSA08.jpg,AMNE11.jpg,AMSA07.jpg,AMSA08.jpg,MS,2,num_6,32,num_2,0.266889259878,,,2017_Oct_17_1227,60.0042148131,FEMA4ImagesEEG,001,201965,
AFNE01.JPG,AFNE01.JPG,AFNE01.JPG,AFNE01.JPG,AFNE01.JPG,AFNE01.JPG,,,,,,,,,,,,,3,7,37,7,,,,,,,,,,,AMNE01.jpg,AMSA19.jpg,AMSA09.jpg,AMNE19.jpg,AMSA19.jpg,MS,2,num_6,32,num_8,0.183482557384,,,2017_Oct_17_1227,60.0042148131,FEMA4ImagesEEG,001,201965,
AFNE01.JPG,AFNE01.JPG,AFNE01.JPG,AFNE01.JPG,AFNE01.JPG,AFNE01.JPG,,,,,,,,,,,,,3,8,38,2,,,,,,,,,,,AMNE08.jpg,AMNE13.jpg,AMSA19.jpg,AMSA10.jpg,AMNE08.jpg,MN,1,num_8,32,num_6,1.10032571096,,,2017_Oct_17_1227,60.0042148131,FEMA4ImagesEEG,001,201965,
AFNE01.JPG,AFNE01.JPG,AFNE01.JPG,AFNE01.JPG,AFNE01.JPG,AFNE01.JPG,,,,,,,,,,,,,3,9,39,6,,,,,,,,,,,AMSA06.jpg,AMNE05.jpg,AMNE16.jpg,AMSA10.jpg,AMSA10.jpg,MS,2,num_4,16,num_4,2.79996985049,,,2017_Oct_17_1227,60.0042148131,FEMA4ImagesEEG,001,201965,
AFNE01.JPG,AFNE01.JPG,AFNE01.JPG,AFNE01.JPG,AFNE01.JPG,AFNE01.JPG,,,,,,,,,,,,,4,0,40,1,,,,,,,,,,,AMNE10.jpg,AMSA05.jpg,AMNE17.jpg,AMSA13.jpg,AMSA13.jpg,MS,2,num_4,32,num_8,0.333509419317,,,2017_Oct_17_1227,60.0042148131,FEMA4ImagesEEG,001,201965,
AFNE01.JPG,AFNE01.JPG,AFNE01.JPG,AFNE01.JPG,AFNE01.JPG,AFNE01.JPG,,,,,,,,,,,,,4,1,41,3,,,,,,,,,,,AMSA10.jpg,AMNE04.jpg,AMNE06.jpg,AMSA14.jpg,AMSA10.jpg,MS,2,num_8,32,num_2,0.466630423104,,,2017_Oct_17_1227,60.0042148131,FEMA4ImagesEEG,001,201965,
AFNE01.JPG,AFNE01.JPG,AFNE01.JPG,AFNE01.JPG,AFNE01.JPG,AFNE01.JPG,,,,,,,,,,,,,4,2,42,5,,,,,,,,,,,AMNE08.jpg,AMSA18.jpg,AMNE15.jpg,AMSA15.jpg,AMNE15.jpg,MN,1,num_2,32,num_6,0.450154676622,,,2017_Oct_17_1227,60.0042148131,FEMA4ImagesEEG,001,201965,
AFNE01.JPG,AFNE01.JPG,AFNE01.JPG,AFNE01.JPG,AFNE01.JPG,AFNE01.JPG,,,,,,,,,,,,,4,3,43,4,,,,,,,,,,,AMSA18.jpg,AMNE03.jpg,AMNE10.jpg,AMSA13.jpg,AMNE03.jpg,MN,1,num_6,32,num_4,0.583475501116,,,2017_Oct_17_1227,60.0042148131,FEMA4ImagesEEG,001,201965,
AFNE01.JPG,AFNE01.JPG,AFNE01.JPG,AFNE01.JPG,AFNE01.JPG,AFNE01.JPG,,,,,,,,,,,,,4,4,44,7,,,,,,,,,,,AMSA08.jpg,AMNE03.jpg,AMSA02.jpg,AMNE19.jpg,AMNE19.jpg,MN,1,num_4,32,num_8,0.883443266795,,,2017_Oct_17_1227,60.0042148131,FEMA4ImagesEEG,001,201965,
AFNE01.JPG,AFNE01.JPG,AFNE01.JPG,AFNE01.JPG,AFNE01.JPG,AFNE01.JPG,,,,,,,,,,,,,4,5,45,8,,,,,,,,,,,AMSA04.jpg,AMSA07.jpg,AMNE13.jpg,AMNE16.jpg,AMSA04.jpg,MS,2,num_8,32,num_2,0.81679552376,,,2017_Oct_17_1227,60.0042148131,FEMA4ImagesEEG,001,201965,
AFNE01.JPG,AFNE01.JPG,AFNE01.JPG,AFNE01.JPG,AFNE01.JPG,AFNE01.JPG,,,,,,,,,,,,,4,6,46,2,,,,,,,,,,,AMSA10.jpg,AMNE10.jpg,AMSA16.jpg,AMNE13.jpg,AMSA10.jpg,MS,2,num_8,16,num_8,1.05011682936,,,2017_Oct_17_1227,60.0042148131,FEMA4ImagesEEG,001,201965,
AFNE01.JPG,AFNE01.JPG,AFNE01.JPG,AFNE01.JPG,AFNE01.JPG,AFNE01.JPG,,,,,,,,,,,,,4,7,47,9,,,,,,,,,,,AMSA03.jpg,AMSA01.jpg,AMNE08.jpg,AMNE10.jpg,AMSA03.jpg,MS,2,num_8,32,num_6,0.500176567093,,,2017_Oct_17_1227,60.0042148131,FEMA4ImagesEEG,001,201965,
AFNE01.JPG,AFNE01.JPG,AFNE01.JPG,AFNE01.JPG,AFNE01.JPG,AFNE01.JPG,,,,,,,,,,,,,4,8,48,6,,,,,,,,,,,AMSA14.jpg,AMSA20.jpg,AMNE07.jpg,AMNE04.jpg,AMSA20.jpg,MS,2,num_6,32,num_2,0.833443507351,,,2017_Oct_17_1227,60.0042148131,FEMA4ImagesEEG,001,201965,
AFNE01.JPG,AFNE01.JPG,AFNE01.JPG,AFNE01.JPG,AFNE01.JPG,AFNE01.JPG,,,,,,,,,,,,,4,9,49,0,,,,,,,,,,,AMNE04.jpg,AMNE03.jpg,AMSA05.jpg,AMSA02.jpg,AMSA02.jpg,MS,2,num_4,16,num_4,0.716760082045,,,2017_Oct_17_1227,60.0042148131,FEMA4ImagesEEG,001,201965,
AFNE01.JPG,AFNE01.JPG,AFNE01.JPG,AFNE01.JPG,AFNE01.JPG,AFNE01.JPG,,,,,,,,,,,,,5,0,50,7,,,,,,,,,,,AMNE15.jpg,AMNE20.jpg,AMSA15.jpg,AMSA04.jpg,AMSA04.jpg,MS,2,num_4,16,num_4,0.600124446925,,,2017_Oct_17_1227,60.0042148131,FEMA4ImagesEEG,001,201965,
AFNE01.JPG,AFNE01.JPG,AFNE01.JPG,AFNE01.JPG,AFNE01.JPG,AFNE01.JPG,,,,,,,,,,,,,5,1,51,9,,,,,,,,,,,AMSA18.jpg,AMNE05.jpg,AMNE12.jpg,AMSA17.jpg,AMNE12.jpg,MN,1,num_2,48,None,,,,2017_Oct_17_1227,60.0042148131,FEMA4ImagesEEG,001,201965,
AFNE01.JPG,AFNE01.JPG,AFNE01.JPG,AFNE01.JPG,AFNE01.JPG,AFNE01.JPG,,,,,,,,,,,,,5,2,52,4,,,,,,,,,,,AMNE18.jpg,AMSA04.jpg,AMSA09.jpg,AMNE16.jpg,AMNE18.jpg,MN,1,num_8,32,num_2,3.09996519976,,,2017_Oct_17_1227,60.0042148131,FEMA4ImagesEEG,001,201965,
AFNE01.JPG,AFNE01.JPG,AFNE01.JPG,AFNE01.JPG,AFNE01.JPG,AFNE01.JPG,,,,,,,,,,,,,5,3,53,1,,,,,,,,,,,AMNE14.jpg,AMNE13.jpg,AMSA05.jpg,AMSA20.jpg,AMSA20.jpg,MS,2,num_4,16,num_4,0.650174562471,,,2017_Oct_17_1227,60.0042148131,FEMA4ImagesEEG,001,201965,
AFNE01.JPG,AFNE01.JPG,AFNE01.JPG,AFNE01.JPG,AFNE01.JPG,AFNE01.JPG,,,,,,,,,,,,,5,4,54,6,,,,,,,,,,,AMSA07.jpg,AMNE16.jpg,AMSA11.jpg,AMNE12.jpg,AMNE12.jpg,MN,1,num_4,32,num_8,0.516780930112,,,2017_Oct_17_1227,60.0042148131,FEMA4ImagesEEG,001,201965,
AFNE01.JPG,AFNE01.JPG,AFNE01.JPG,AFNE01.JPG,AFNE01.JPG,AFNE01.JPG,,,,,,,,,,,,,5,5,55,0,,,,,,,,,,,AMNE19.jpg,AMSA04.jpg,AMNE16.jpg,AMSA16.jpg,AMNE16.jpg,MN,1,num_2,16,num_2,0.450237748152,,,2017_Oct_17_1227,60.0042148131,FEMA4ImagesEEG,001,201965,
AFNE01.JPG,AFNE01.JPG,AFNE01.JPG,AFNE01.JPG,AFNE01.JPG,AFNE01.JPG,,,,,,,,,,,,,5,6,56,2,,,,,,,,,,,AMNE19.jpg,AMNE08.jpg,AMSA18.jpg,AMSA03.jpg,AMSA03.jpg,MS,2,num_4,32,num_8,0.633440620694,,,2017_Oct_17_1227,60.0042148131,FEMA4ImagesEEG,001,201965,
AFNE01.JPG,AFNE01.JPG,AFNE01.JPG,AFNE01.JPG,AFNE01.JPG,AFNE01.JPG,,,,,,,,,,,,,5,7,57,3,,,,,,,,,,,AMNE03.jpg,AMNE08.jpg,AMSA01.jpg,AMSA19.jpg,AMNE03.jpg,MN,1,num_8,32,num_4,2.26666185557,,,2017_Oct_17_1227,60.0042148131,FEMA4ImagesEEG,001,201965,
AFNE01.JPG,AFNE01.JPG,AFNE01.JPG,AFNE01.JPG,AFNE01.JPG,AFNE01.JPG,,,,,,,,,,,,,5,8,58,8,,,,,,,,,,,AMSA02.jpg,AMNE15.jpg,AMNE20.jpg,AMSA11.jpg,AMSA02.jpg,MS,2,num_8,32,num_6,0.633463713939,,,2017_Oct_17_1227,60.0042148131,FEMA4ImagesEEG,001,201965,
AFNE01.JPG,AFNE01.JPG,AFNE01.JPG,AFNE01.JPG,AFNE01.JPG,AFNE01.JPG,,,,,,,,,,,,,5,9,59,5,,,,,,,,,,,AMNE03.jpg,AMSA11.jpg,AMNE16.jpg,AMSA19.jpg,AMSA19.jpg,MS,2,num_4,32,num_6,0.516813966281,,,2017_Oct_17_1227,60.0042148131,FEMA4ImagesEEG,001,201965,
,,,,,,,,,,,,,,,,,,,,,,,,,,,,,,,,,,,,,,,,,,,space,92.2428742108,2017_Oct_17_1227,60.0042148131,FEMA4ImagesEEG,001,201965,
AFNE01.JPG,AFNE01.JPG,AFNE01.JPG,AFNE01.JPG,AFNE01.JPG,AFNE01.JPG,,,,,,,,,,,,,,,,,0,0,0,6,,,,,,,AFNE19.jpg,AFSA15.jpg,AFSA17.jpg,AFNE09.jpg,AFNE09.jpg,FN,3,num_4,32,num_6,0.43353331441,,,2017_Oct_17_1227,60.0042148131,FEMA4ImagesEEG,001,201965,
AFNE01.JPG,AFNE01.JPG,AFNE01.JPG,AFNE01.JPG,AFNE01.JPG,AFNE01.JPG,,,,,,,,,,,,,,,,,0,1,1,7,,,,,,,AFSA06.jpg,AFSA18.jpg,AFNE10.jpg,AFNE03.jpg,AFSA06.jpg,FS,4,num_8,32,num_2,0.400163897883,,,2017_Oct_17_1227,60.0042148131,FEMA4ImagesEEG,001,201965,
AFNE01.JPG,AFNE01.JPG,AFNE01.JPG,AFNE01.JPG,AFNE01.JPG,AFNE01.JPG,,,,,,,,,,,,,,,,,0,2,2,1,,,,,,,AFSA19.jpg,AFSA15.jpg,AFNE03.jpg,AFNE16.jpg,AFNE16.jpg,FN,3,num_4,16,num_4,0.61675029949,,,2017_Oct_17_1227,60.0042148131,FEMA4ImagesEEG,001,201965,
AFNE01.JPG,AFNE01.JPG,AFNE01.JPG,AFNE01.JPG,AFNE01.JPG,AFNE01.JPG,,,,,,,,,,,,,,,,,0,3,3,3,,,,,,,AFNE14.jpg,AFNE06.jpg,AFSA18.jpg,AFSA15.jpg,AFSA18.jpg,FS,4,num_2,16,num_2,1.2001510683,,,2017_Oct_17_1227,60.0042148131,FEMA4ImagesEEG,001,201965,
AFNE01.JPG,AFNE01.JPG,AFNE01.JPG,AFNE01.JPG,AFNE01.JPG,AFNE01.JPG,,,,,,,,,,,,,,,,,0,4,4,8,,,,,,,AFSA07.jpg,AFNE10.jpg,AFNE16.jpg,AFSA02.jpg,AFSA07.jpg,FS,4,num_8,32,num_6,0.683454492678,,,2017_Oct_17_1227,60.0042148131,FEMA4ImagesEEG,001,201965,
AFNE01.JPG,AFNE01.JPG,AFNE01.JPG,AFNE01.JPG,AFNE01.JPG,AFNE01.JPG,,,,,,,,,,,,,,,,,0,5,5,2,,,,,,,AFSA11.jpg,AFSA16.jpg,AFNE04.jpg,AFNE09.jpg,AFSA16.jpg,FS,4,num_6,32,num_2,0.816843634684,,,2017_Oct_17_1227,60.0042148131,FEMA4ImagesEEG,001,201965,
AFNE01.JPG,AFNE01.JPG,AFNE01.JPG,AFNE01.JPG,AFNE01.JPG,AFNE01.JPG,,,,,,,,,,,,,,,,,0,6,6,0,,,,,,,AFSA20.jpg,AFNE16.jpg,AFSA12.jpg,AFNE20.jpg,AFNE16.jpg,FN,3,num_6,16,num_6,0.500155077547,,,2017_Oct_17_1227,60.0042148131,FEMA4ImagesEEG,001,201965,
AFNE01.JPG,AFNE01.JPG,AFNE01.JPG,AFNE01.JPG,AFNE01.JPG,AFNE01.JPG,,,,,,,,,,,,,,,,,0,7,7,5,,,,,,,AFNE09.jpg,AFNE02.jpg,AFSA01.jpg,AFSA13.jpg,AFSA13.jpg,FS,4,num_4,16,num_4,0.733449120292,,,2017_Oct_17_1227,60.0042148131,FEMA4ImagesEEG,001,201965,
AFNE01.JPG,AFNE01.JPG,AFNE01.JPG,AFNE01.JPG,AFNE01.JPG,AFNE01.JPG,,,,,,,,,,,,,,,,,0,8,8,9,,,,,,,AFSA12.jpg,AFSA03.jpg,AFNE05.jpg,AFNE06.jpg,AFNE06.jpg,FN,3,num_4,32,num_2,3.11657661905,,,2017_Oct_17_1227,60.0042148131,FEMA4ImagesEEG,001,201965,
AFNE01.JPG,AFNE01.JPG,AFNE01.JPG,AFNE01.JPG,AFNE01.JPG,AFNE01.JPG,,,,,,,,,,,,,,,,,0,9,9,4,,,,,,,AFSA07.jpg,AFNE11.jpg,AFSA12.jpg,AFNE04.jpg,AFNE11.jpg,FN,3,num_6,32,num_4,0.466753266331,,,2017_Oct_17_1227,60.0042148131,FEMA4ImagesEEG,001,201965,
AFNE01.JPG,AFNE01.JPG,AFNE01.JPG,AFNE01.JPG,AFNE01.JPG,AFNE01.JPG,,,,,,,,,,,,,,,,,1,0,10,0,,,,,,,AFNE12.jpg,AFSA17.jpg,AFSA19.jpg,AFNE15.jpg,AFNE15.jpg,FN,3,num_4,32,num_6,0.633477184998,,,2017_Oct_17_1227,60.0042148131,FEMA4ImagesEEG,001,201965,
AFNE01.JPG,AFNE01.JPG,AFNE01.JPG,AFNE01.JPG,AFNE01.JPG,AFNE01.JPG,,,,,,,,,,,,,,,,,1,1,11,4,,,,,,,AFSA09.jpg,AFNE06.jpg,AFNE18.jpg,AFSA02.jpg,AFSA02.jpg,FS,4,num_4,32,num_8,0.566829762702,,,2017_Oct_17_1227,60.0042148131,FEMA4ImagesEEG,001,201965,
AFNE01.JPG,AFNE01.JPG,AFNE01.JPG,AFNE01.JPG,AFNE01.JPG,AFNE01.JPG,,,,,,,,,,,,,,,,,1,2,12,5,,,,,,,AFNE17.jpg,AFSA17.jpg,AFSA08.jpg,AFNE03.jpg,AFNE03.jpg,FN,3,num_4,16,num_4,1.46680233947,,,2017_Oct_17_1227,60.0042148131,FEMA4ImagesEEG,001,201965,
AFNE01.JPG,AFNE01.JPG,AFNE01.JPG,AFNE01.JPG,AFNE01.JPG,AFNE01.JPG,,,,,,,,,,,,,,,,,1,3,13,9,,,,,,,AFNE07.jpg,AFNE15.jpg,AFSA14.jpg,AFSA03.jpg,AFSA14.jpg,FS,4,num_2,16,num_2,0.866767058129,,,2017_Oct_17_1227,60.0042148131,FEMA4ImagesEEG,001,201965,
AFNE01.JPG,AFNE01.JPG,AFNE01.JPG,AFNE01.JPG,AFNE01.JPG,AFNE01.JPG,,,,,,,,,,,,,,,,,1,4,14,2,,,,,,,AFNE09.jpg,AFSA10.jpg,AFSA14.jpg,AFNE15.jpg,AFSA10.jpg,FS,4,num_6,32,num_8,0.850133187076,,,2017_Oct_17_1227,60.0042148131,FEMA4ImagesEEG,001,201965,
AFNE01.JPG,AFNE01.JPG,AFNE01.JPG,AFNE01.JPG,AFNE01.JPG,AFNE01.JPG,,,,,,,,,,,,,,,,,1,5,15,8,,,,,,,AFSA16.jpg,AFNE05.jpg,AFNE18.jpg,AFSA13.jpg,AFNE18.jpg,FN,3,num_2,16,num_2,1.05005332294,,,2017_Oct_17_1227,60.0042148131,FEMA4ImagesEEG,001,201965,
AFNE01.JPG,AFNE01.JPG,AFNE01.JPG,AFNE01.JPG,AFNE01.JPG,AFNE01.JPG,,,,,,,,,,,,,,,,,1,6,16,1,,,,,,,AFSA05.jpg,AFSA17.jpg,AFNE12.jpg,AFNE15.jpg,AFNE12.jpg,FN,3,num_2,16,num_2,0.683438455703,,,2017_Oct_17_1227,60.0042148131,FEMA4ImagesEEG,001,201965,
AFNE01.JPG,AFNE01.JPG,AFNE01.JPG,AFNE01.JPG,AFNE01.JPG,AFNE01.JPG,,,,,,,,,,,,,,,,,1,7,17,6,,,,,,,AFNE15.jpg,AFSA01.jpg,AFSA02.jpg,AFNE10.jpg,AFNE15.jpg,FN,3,num_8,32,num_6,0.7335206452,,,2017_Oct_17_1227,60.0042148131,FEMA4ImagesEEG,001,201965,
AFNE01.JPG,AFNE01.JPG,AFNE01.JPG,AFNE01.JPG,AFNE01.JPG,AFNE01.JPG,,,,,,,,,,,,,,,,,1,8,18,3,,,,,,,AFNE13.jpg,AFNE01.jpg,AFSA03.jpg,AFSA19.jpg,AFSA19.jpg,FS,4,num_4,16,num_4,1.0664517712,,,2017_Oct_17_1227,60.0042148131,FEMA4ImagesEEG,001,201965,
AFNE01.JPG,AFNE01.JPG,AFNE01.JPG,AFNE01.JPG,AFNE01.JPG,AFNE01.JPG,,,,,,,,,,,,,,,,,1,9,19,7,,,,,,,AFNE16.jpg,AFSA01.jpg,AFSA09.jpg,AFNE05.jpg,AFSA09.jpg,FS,4,num_2,32,num_6,2.81658992974,,,2017_Oct_17_1227,60.0042148131,FEMA4ImagesEEG,001,201965,
AFNE01.JPG,AFNE01.JPG,AFNE01.JPG,AFNE01.JPG,AFNE01.JPG,AFNE01.JPG,,,,,,,,,,,,,,,,,2,0,20,3,,,,,,,AFNE01.jpg,AFSA04.jpg,AFSA02.jpg,AFNE05.jpg,AFSA02.jpg,FS,4,num_2,32,num_4,2.38287956713,,,2017_Oct_17_1227,60.0042148131,FEMA4ImagesEEG,001,201965,
AFNE01.JPG,AFNE01.JPG,AFNE01.JPG,AFNE01.JPG,AFNE01.JPG,AFNE01.JPG,,,,,,,,,,,,,,,,,2,1,21,7,,,,,,,AFNE19.jpg,AFSA17.jpg,AFSA16.jpg,AFNE08.jpg,AFNE19.jpg,FN,3,num_8,16,num_8,0.516834814348,,,2017_Oct_17_1227,60.0042148131,FEMA4ImagesEEG,001,201965,
AFNE01.JPG,AFNE01.JPG,AFNE01.JPG,AFNE01.JPG,AFNE01.JPG,AFNE01.JPG,,,,,,,,,,,,,,,,,2,2,22,6,,,,,,,AFNE14.jpg,AFSA02.jpg,AFSA06.jpg,AFNE20.jpg,AFNE20.jpg,FN,3,num_4,32,num_6,0.483469246695,,,2017_Oct_17_1227,60.0042148131,FEMA4ImagesEEG,001,201965,
AFNE01.JPG,AFNE01.JPG,AFNE01.JPG,AFNE01.JPG,AFNE01.JPG,AFNE01.JPG,,,,,,,,,,,,,,,,,2,3,23,2,,,,,,,AFSA07.jpg,AFSA06.jpg,AFNE05.jpg,AFNE03.jpg,AFNE03.jpg,FN,3,num_4,16,num_4,0.300218583967,,,2017_Oct_17_1227,60.0042148131,FEMA4ImagesEEG,001,201965,
AFNE01.JPG,AFNE01.JPG,AFNE01.JPG,AFNE01.JPG,AFNE01.JPG,AFNE01.JPG,,,,,,,,,,,,,,,,,2,4,24,1,,,,,,,AFNE02.jpg,AFSA16.jpg,AFSA06.jpg,AFNE19.jpg,AFSA06.jpg,FS,4,num_2,48,None,,,,2017_Oct_17_1227,60.0042148131,FEMA4ImagesEEG,001,201965,
AFNE01.JPG,AFNE01.JPG,AFNE01.JPG,AFNE01.JPG,AFNE01.JPG,AFNE01.JPG,,,,,,,,,,,,,,,,,2,5,25,5,,,,,,,AFNE17.jpg,AFSA02.jpg,AFNE12.jpg,AFSA11.jpg,AFSA11.jpg,FS,4,num_4,16,num_4,0.516798250045,,,2017_Oct_17_1227,60.0042148131,FEMA4ImagesEEG,001,201965,
AFNE01.JPG,AFNE01.JPG,AFNE01.JPG,AFNE01.JPG,AFNE01.JPG,AFNE01.JPG,,,,,,,,,,,,,,,,,2,6,26,4,,,,,,,AFSA08.jpg,AFNE16.jpg,AFSA20.jpg,AFNE03.jpg,AFNE03.jpg,FN,3,num_4,32,num_6,0.383462671535,,,2017_Oct_17_1227,60.0042148131,FEMA4ImagesEEG,001,201965,
AFNE01.JPG,AFNE01.JPG,AFNE01.JPG,AFNE01.JPG,AFNE01.JPG,AFNE01.JPG,,,,,,,,,,,,,,,,,2,7,27,0,,,,,,,AFNE15.jpg,AFSA03.jpg,AFSA06.jpg,AFNE06.jpg,AFSA03.jpg,FS,4,num_6,16,num_6,0.616774354952,,,2017_Oct_17_1227,60.0042148131,FEMA4ImagesEEG,001,201965,
AFNE01.JPG,AFNE01.JPG,AFNE01.JPG,AFNE01.JPG,AFNE01.JPG,AFNE01.JPG,,,,,,,,,,,,,,,,,2,8,28,8,,,,,,,AFSA17.jpg,AFNE15.jpg,AFSA01.jpg,AFNE04.jpg,AFSA01.jpg,FS,4,num_2,32,num_8,0.933418970779,,,2017_Oct_17_1227,60.0042148131,FEMA4ImagesEEG,001,201965,
AFNE01.JPG,AFNE01.JPG,AFNE01.JPG,AFNE01.JPG,AFNE01.JPG,AFNE01.JPG,,,,,,,,,,,,,,,,,2,9,29,9,,,,,,,AFNE05.jpg,AFSA20.jpg,AFNE17.jpg,AFSA17.jpg,AFNE17.jpg,FN,3,num_2,16,num_2,1.05014280926,,,2017_Oct_17_1227,60.0042148131,FEMA4ImagesEEG,001,201965,
AFNE01.JPG,AFNE01.JPG,AFNE01.JPG,AFNE01.JPG,AFNE01.JPG,AFNE01.JPG,,,,,,,,,,,,,,,,,3,0,30,5,,,,,,,AFSA12.jpg,AFNE01.jpg,AFNE20.jpg,AFSA03.jpg,AFSA03.jpg,FS,4,num_4,32,num_6,1.1666908825,,,2017_Oct_17_1227,60.0042148131,FEMA4ImagesEEG,001,201965,
AFNE01.JPG,AFNE01.JPG,AFNE01.JPG,AFNE01.JPG,AFNE01.JPG,AFNE01.JPG,,,,,,,,,,,,,,,,,3,1,31,1,,,,,,,AFNE09.jpg,AFNE07.jpg,AFSA07.jpg,AFSA18.jpg,AFSA18.jpg,FS,4,num_4,32,num_6,0.650127093026,,,2017_Oct_17_1227,60.0042148131,FEMA4ImagesEEG,001,201965,
AFNE01.JPG,AFNE01.JPG,AFNE01.JPG,AFNE01.JPG,AFNE01.JPG,AFNE01.JPG,,,,,,,,,,,,,,,,,3,2,32,4,,,,,,,AFSA20.jpg,AFNE11.jpg,AFSA14.jpg,AFNE20.jpg,AFNE11.jpg,FN,3,num_6,32,num_4,0.400169029715,,,2017_Oct_17_1227,60.0042148131,FEMA4ImagesEEG,001,201965,
AFNE01.JPG,AFNE01.JPG,AFNE01.JPG,AFNE01.JPG,AFNE01.JPG,AFNE01.JPG,,,,,,,,,,,,,,,,,3,3,33,8,,,,,,,AFNE12.jpg,AFNE05.jpg,AFSA20.jpg,AFSA12.jpg,AFSA12.jpg,FS,4,num_4,16,num_4,0.366821744214,,,2017_Oct_17_1227,60.0042148131,FEMA4ImagesEEG,001,201965,
AFNE01.JPG,AFNE01.JPG,AFNE01.JPG,AFNE01.JPG,AFNE01.JPG,AFNE01.JPG,,,,,,,,,,,,,,,,,3,4,34,7,,,,,,,AFNE06.jpg,AFNE19.jpg,AFSA08.jpg,AFSA06.jpg,AFNE06.jpg,FN,3,num_8,32,num_6,0.583744280813,,,2017_Oct_17_1227,60.0042148131,FEMA4ImagesEEG,001,201965,
AFNE01.JPG,AFNE01.JPG,AFNE01.JPG,AFNE01.JPG,AFNE01.JPG,AFNE01.JPG,,,,,,,,,,,,,,,,,3,5,35,9,,,,,,,AFNE14.jpg,AFSA02.jpg,AFNE15.jpg,AFSA14.jpg,AFNE14.jpg,FN,3,num_8,48,None,,,,2017_Oct_17_1227,60.0042148131,FEMA4ImagesEEG,001,201965,
AFNE01.JPG,AFNE01.JPG,AFNE01.JPG,AFNE01.JPG,AFNE01.JPG,AFNE01.JPG,,,,,,,,,,,,,,,,,3,6,36,2,,,,,,,AFSA11.jpg,AFNE19.jpg,AFSA02.jpg,AFNE04.jpg,AFSA11.jpg,FS,4,num_8,32,num_6,2.00002148955,,,2017_Oct_17_1227,60.0042148131,FEMA4ImagesEEG,001,201965,
AFNE01.JPG,AFNE01.JPG,AFNE01.JPG,AFNE01.JPG,AFNE01.JPG,AFNE01.JPG,,,,,,,,,,,,,,,,,3,7,37,6,,,,,,,AFNE02.jpg,AFSA16.jpg,AFNE16.jpg,AFSA18.jpg,AFNE02.jpg,FN,3,num_8,32,num_4,0.916739233978,,,2017_Oct_17_1227,60.0042148131,FEMA4ImagesEEG,001,201965,
AFNE01.JPG,AFNE01.JPG,AFNE01.JPG,AFNE01.JPG,AFNE01.JPG,AFNE01.JPG,,,,,,,,,,,,,,,,,3,8,38,3,,,,,,,AFSA10.jpg,AFNE03.jpg,AFSA18.jpg,AFNE07.jpg,AFSA10.jpg,FS,4,num_8,16,num_8,0.583558572645,,,2017_Oct_17_1227,60.0042148131,FEMA4ImagesEEG,001,201965,
AFNE01.JPG,AFNE01.JPG,AFNE01.JPG,AFNE01.JPG,AFNE01.JPG,AFNE01.JPG,,,,,,,,,,,,,,,,,3,9,39,0,,,,,,,AFNE02.jpg,AFSA16.jpg,AFSA19.jpg,AFNE20.jpg,AFNE02.jpg,FN,3,num_8,32,num_6,0.516766496835,,,2017_Oct_17_1227,60.0042148131,FEMA4ImagesEEG,001,201965,
AFNE01.JPG,AFNE01.JPG,AFNE01.JPG,AFNE01.JPG,AFNE01.JPG,AFNE01.JPG,,,,,,,,,,,,,,,,,4,0,40,5,,,,,,,AFSA10.jpg,AFNE07.jpg,AFNE12.jpg,AFSA03.jpg,AFSA10.jpg,FS,4,num_8,32,num_4,0.516797287826,,,2017_Oct_17_1227,60.0042148131,FEMA4ImagesEEG,001,201965,
AFNE01.JPG,AFNE01.JPG,AFNE01.JPG,AFNE01.JPG,AFNE01.JPG,AFNE01.JPG,,,,,,,,,,,,,,,,,4,1,41,1,,,,,,,AFSA15.jpg,AFNE12.jpg,AFSA02.jpg,AFNE15.jpg,AFNE15.jpg,FN,3,num_4,32,num_8,0.433508938208,,,2017_Oct_17_1227,60.0042148131,FEMA4ImagesEEG,001,201965,
AFNE01.JPG,AFNE01.JPG,AFNE01.JPG,AFNE01.JPG,AFNE01.JPG,AFNE01.JPG,,,,,,,,,,,,,,,,,4,2,42,8,,,,,,,AFSA01.jpg,AFNE07.jpg,AFSA14.jpg,AFNE17.jpg,AFSA14.jpg,FS,4,num_2,16,num_2,2.29998219896,,,2017_Oct_17_1227,60.0042148131,FEMA4ImagesEEG,001,201965,
AFNE01.JPG,AFNE01.JPG,AFNE01.JPG,AFNE01.JPG,AFNE01.JPG,AFNE01.JPG,,,,,,,,,,,,,,,,,4,3,43,3,,,,,,,AFSA10.jpg,AFNE01.jpg,AFSA01.jpg,AFNE19.jpg,AFNE01.jpg,FN,3,num_6,32,num_4,1.01674516766,,,2017_Oct_17_1227,60.0042148131,FEMA4ImagesEEG,001,201965,
AFNE01.JPG,AFNE01.JPG,AFNE01.JPG,AFNE01.JPG,AFNE01.JPG,AFNE01.JPG,,,,,,,,,,,,,,,,,4,4,44,9,,,,,,,AFNE13.jpg,AFSA18.jpg,AFNE16.jpg,AFSA03.jpg,AFNE13.jpg,FN,3,num_8,16,num_8,0.916783496029,,,2017_Oct_17_1227,60.0042148131,FEMA4ImagesEEG,001,201965,
AFNE01.JPG,AFNE01.JPG,AFNE01.JPG,AFNE01.JPG,AFNE01.JPG,AFNE01.JPG,,,,,,,,,,,,,,,,,4,5,45,0,,,,,,,AFSA04.jpg,AFNE20.jpg,AFSA14.jpg,AFNE13.jpg,AFNE20.jpg,FN,3,num_6,16,num_6,0.400145936472,,,2017_Oct_17_1227,60.0042148131,FEMA4ImagesEEG,001,201965,
AFNE01.JPG,AFNE01.JPG,AFNE01.JPG,AFNE01.JPG,AFNE01.JPG,AFNE01.JPG,,,,,,,,,,,,,,,,,4,6,46,4,,,,,,,AFSA15.jpg,AFNE12.jpg,AFSA06.jpg,AFNE07.jpg,AFNE12.jpg,FN,3,num_6,16,num_6,0.650163336589,,,2017_Oct_17_1227,60.0042148131,FEMA4ImagesEEG,001,201965,
AFNE01.JPG,AFNE01.JPG,AFNE01.JPG,AFNE01.JPG,AFNE01.JPG,AFNE01.JPG,,,,,,,,,,,,,,,,,4,7,47,6,,,,,,,AFNE20.jpg,AFSA16.jpg,AFNE18.jpg,AFSA15.jpg,AFSA15.jpg,FS,4,num_4,16,num_4,2.96656002078,,,2017_Oct_17_1227,60.0042148131,FEMA4ImagesEEG,001,201965,
AFNE01.JPG,AFNE01.JPG,AFNE01.JPG,AFNE01.JPG,AFNE01.JPG,AFNE01.JPG,,,,,,,,,,,,,,,,,4,8,48,7,,,,,,,AFNE06.jpg,AFSA18.jpg,AFSA13.jpg,AFNE03.jpg,AFNE06.jpg,FN,3,num_8,48,None,,,,2017_Oct_17_1227,60.0042148131,FEMA4ImagesEEG,001,201965,
AFNE01.JPG,AFNE01.JPG,AFNE01.JPG,AFNE01.JPG,AFNE01.JPG,AFNE01.JPG,,,,,,,,,,,,,,,,,4,9,49,2,,,,,,,AFSA04.jpg,AFNE18.jpg,AFSA19.jpg,AFNE02.jpg,AFNE02.jpg,FN,3,num_4,48,None,,,,2017_Oct_17_1227,60.0042148131,FEMA4ImagesEEG,001,201965,
AFNE01.JPG,AFNE01.JPG,AFNE01.JPG,AFNE01.JPG,AFNE01.JPG,AFNE01.JPG,,,,,,,,,,,,,,,,,5,0,50,6,,,,,,,AFSA02.jpg,AFNE04.jpg,AFSA07.jpg,AFNE17.jpg,AFSA07.jpg,FS,4,num_2,16,num_2,1.93336059619,,,2017_Oct_17_1227,60.0042148131,FEMA4ImagesEEG,001,201965,
AFNE01.JPG,AFNE01.JPG,AFNE01.JPG,AFNE01.JPG,AFNE01.JPG,AFNE01.JPG,,,,,,,,,,,,,,,,,5,1,51,4,,,,,,,AFSA04.jpg,AFSA09.jpg,AFNE15.jpg,AFNE01.jpg,AFSA04.jpg,FS,4,num_8,32,num_6,0.400141125378,,,2017_Oct_17_1227,60.0042148131,FEMA4ImagesEEG,001,201965,
AFNE01.JPG,AFNE01.JPG,AFNE01.JPG,AFNE01.JPG,AFNE01.JPG,AFNE01.JPG,,,,,,,,,,,,,,,,,5,2,52,3,,,,,,,AFSA01.jpg,AFNE20.jpg,AFSA07.jpg,AFNE16.jpg,AFNE16.jpg,FN,3,num_4,16,num_4,0.433475260561,,,2017_Oct_17_1227,60.0042148131,FEMA4ImagesEEG,001,201965,
AFNE01.JPG,AFNE01.JPG,AFNE01.JPG,AFNE01.JPG,AFNE01.JPG,AFNE01.JPG,,,,,,,,,,,,,,,,,5,3,53,8,,,,,,,AFSA06.jpg,AFSA01.jpg,AFNE12.jpg,AFNE07.jpg,AFNE12.jpg,FN,3,num_2,16,num_2,1.00008467523,,,2017_Oct_17_1227,60.0042148131,FEMA4ImagesEEG,001,201965,
AFNE01.JPG,AFNE01.JPG,AFNE01.JPG,AFNE01.JPG,AFNE01.JPG,AFNE01.JPG,,,,,,,,,,,,,,,,,5,4,54,7,,,,,,,AFNE09.jpg,AFNE17.jpg,AFSA19.jpg,AFSA01.jpg,AFSA19.jpg,FS,4,num_2,16,num_2,1.0001404839,,,2017_Oct_17_1227,60.0042148131,FEMA4ImagesEEG,001,201965,
AFNE01.JPG,AFNE01.JPG,AFNE01.JPG,AFNE01.JPG,AFNE01.JPG,AFNE01.JPG,,,,,,,,,,,,,,,,,5,5,55,9,,,,,,,AFSA03.jpg,AFSA14.jpg,AFNE05.jpg,AFNE15.jpg,AFSA03.jpg,FS,4,num_8,16,num_8,0.683473416309,,,2017_Oct_17_1227,60.0042148131,FEMA4ImagesEEG,001,201965,
AFNE01.JPG,AFNE01.JPG,AFNE01.JPG,AFNE01.JPG,AFNE01.JPG,AFNE01.JPG,,,,,,,,,,,,,,,,,5,6,56,0,,,,,,,AFSA14.jpg,AFNE17.jpg,AFSA06.jpg,AFNE03.jpg,AFNE17.jpg,FN,3,num_6,32,num_2,0.650150186269,,,2017_Oct_17_1227,60.0042148131,FEMA4ImagesEEG,001,201965,
AFNE01.JPG,AFNE01.JPG,AFNE01.JPG,AFNE01.JPG,AFNE01.JPG,AFNE01.JPG,,,,,,,,,,,,,,,,,5,7,57,2,,,,,,,AFNE16.jpg,AFSA20.jpg,AFNE10.jpg,AFSA11.jpg,AFNE10.jpg,FN,3,num_2,48,None,,,,2017_Oct_17_1227,60.0042148131,FEMA4ImagesEEG,001,201965,
AFNE01.JPG,AFNE01.JPG,AFNE01.JPG,AFNE01.JPG,AFNE01.JPG,AFNE01.JPG,,,,,,,,,,,,,,,,,5,8,58,1,,,,,,,AFSA09.jpg,AFNE13.jpg,AFSA04.jpg,AFNE09.jpg,AFNE09.jpg,FN,3,num_4,16,num_4,3.53327239283,,,2017_Oct_17_1227,60.0042148131,FEMA4ImagesEEG,001,201965,
AFNE01.JPG,AFNE01.JPG,AFNE01.JPG,AFNE01.JPG,AFNE01.JPG,AFNE01.JPG,,,,,,,,,,,,,,,,,5,9,59,5,,,,,,,AFSA01.jpg,AFNE04.jpg,AFSA11.jpg,AFNE10.jpg,AFNE04.jpg,FN,3,num_6,32,num_8,0.366798009491,,,2017_Oct_17_1227,60.0042148131,FEMA4ImagesEEG,001,201965,
,,,,,,,,,,,,,,,,,,,,,,,,,,,,,,,,,,,,,,,,,,,space,34.7474590215,2017_Oct_17_1227,60.0042148131,FEMA4ImagesEEG,001,201965,
AFNE01.JPG,AFNE01.JPG,AFNE01.JPG,AFNE01.JPG,AFNE01.JPG,AFNE01.JPG,,,,,,,,,,,,,,,,,,,,,0,0,0,5,,,AMSA05.jpg,AMNE20.jpg,AMSA18.jpg,AMNE13.jpg,AMNE13.jpg,MN,1,num_4,16,num_4,0.850148261832,,,2017_Oct_17_1227,60.0042148131,FEMA4ImagesEEG,001,201965,
AFNE01.JPG,AFNE01.JPG,AFNE01.JPG,AFNE01.JPG,AFNE01.JPG,AFNE01.JPG,,,,,,,,,,,,,,,,,,,,,0,1,1,8,,,AMSA10.jpg,AMNE11.jpg,AMSA05.jpg,AMNE08.jpg,AMNE08.jpg,MN,1,num_4,32,num_6,0.816802580029,,,2017_Oct_17_1227,60.0042148131,FEMA4ImagesEEG,001,201965,
AFNE01.JPG,AFNE01.JPG,AFNE01.JPG,AFNE01.JPG,AFNE01.JPG,AFNE01.JPG,,,,,,,,,,,,,,,,,,,,,0,2,2,0,,,AMNE15.jpg,AMNE06.jpg,AMSA13.jpg,AMSA06.jpg,AMSA06.jpg,MS,2,num_4,32,num_8,0.61679488228,,,2017_Oct_17_1227,60.0042148131,FEMA4ImagesEEG,001,201965,
AFNE01.JPG,AFNE01.JPG,AFNE01.JPG,AFNE01.JPG,AFNE01.JPG,AFNE01.JPG,,,,,,,,,,,,,,,,,,,,,0,3,3,9,,,AMNE14.jpg,AMNE19.jpg,AMSA10.jpg,AMSA08.jpg,AMSA10.jpg,MS,2,num_2,32,num_4,0.633531069233,,,2017_Oct_17_1227,60.0042148131,FEMA4ImagesEEG,001,201965,
AFNE01.JPG,AFNE01.JPG,AFNE01.JPG,AFNE01.JPG,AFNE01.JPG,AFNE01.JPG,,,,,,,,,,,,,,,,,,,,,0,4,4,6,,,AMSA01.jpg,AMSA08.jpg,AMNE14.jpg,AMNE15.jpg,AMSA01.jpg,MS,2,num_8,32,num_2,0.783178175602,,,2017_Oct_17_1227,60.0042148131,FEMA4ImagesEEG,001,201965,
AFNE01.JPG,AFNE01.JPG,AFNE01.JPG,AFNE01.JPG,AFNE01.JPG,AFNE01.JPG,,,,,,,,,,,,,,,,,,,,,0,5,5,3,,,AMSA19.jpg,AMNE15.jpg,AMSA09.jpg,AMNE02.jpg,AMSA19.jpg,MS,2,num_8,16,num_8,0.800118352875,,,2017_Oct_17_1227,60.0042148131,FEMA4ImagesEEG,001,201965,
AFNE01.JPG,AFNE01.JPG,AFNE01.JPG,AFNE01.JPG,AFNE01.JPG,AFNE01.JPG,,,,,,,,,,,,,,,,,,,,,0,6,6,2,,,AMSA13.jpg,AMNE18.jpg,AMNE02.jpg,AMSA19.jpg,AMNE02.jpg,MN,1,num_2,16,num_2,0.68349137772,,,2017_Oct_17_1227,60.0042148131,FEMA4ImagesEEG,001,201965,
AFNE01.JPG,AFNE01.JPG,AFNE01.JPG,AFNE01.JPG,AFNE01.JPG,AFNE01.JPG,,,,,,,,,,,,,,,,,,,,,0,7,7,1,,,AMSA05.jpg,AMNE07.jpg,AMSA07.jpg,AMNE02.jpg,AMNE07.jpg,MN,1,num_6,16,num_6,0.533464836527,,,2017_Oct_17_1227,60.0042148131,FEMA4ImagesEEG,001,201965,
AFNE01.JPG,AFNE01.JPG,AFNE01.JPG,AFNE01.JPG,AFNE01.JPG,AFNE01.JPG,,,,,,,,,,,,,,,,,,,,,0,8,8,4,,,AMNE12.jpg,AMSA01.jpg,AMNE07.jpg,AMSA13.jpg,AMSA01.jpg,MS,2,num_6,32,num_8,1.08345160602,,,2017_Oct_17_1227,60.0042148131,FEMA4ImagesEEG,001,201965,
AFNE01.JPG,AFNE01.JPG,AFNE01.JPG,AFNE01.JPG,AFNE01.JPG,AFNE01.JPG,,,,,,,,,,,,,,,,,,,,,0,9,9,7,,,AMNE18.jpg,AMNE16.jpg,AMSA10.jpg,AMSA05.jpg,AMSA05.jpg,MS,2,num_4,32,num_2,0.666717022767,,,2017_Oct_17_1227,60.0042148131,FEMA4ImagesEEG,001,201965,
AFNE01.JPG,AFNE01.JPG,AFNE01.JPG,AFNE01.JPG,AFNE01.JPG,AFNE01.JPG,,,,,,,,,,,,,,,,,,,,,1,0,10,2,,,AMSA16.jpg,AMNE02.jpg,AMNE16.jpg,AMSA13.jpg,AMSA13.jpg,MS,2,num_4,32,num_6,2.15001371161,,,2017_Oct_17_1227,60.0042148131,FEMA4ImagesEEG,001,201965,
AFNE01.JPG,AFNE01.JPG,AFNE01.JPG,AFNE01.JPG,AFNE01.JPG,AFNE01.JPG,,,,,,,,,,,,,,,,,,,,,1,1,11,8,,,AMNE07.jpg,AMSA02.jpg,AMNE02.jpg,AMSA14.jpg,AMSA02.jpg,MS,2,num_6,32,num_2,0.833549672125,,,2017_Oct_17_1227,60.0042148131,FEMA4ImagesEEG,001,201965,
AFNE01.JPG,AFNE01.JPG,AFNE01.JPG,AFNE01.JPG,AFNE01.JPG,AFNE01.JPG,,,,,,,,,,,,,,,,,,,,,1,2,12,0,,,AMNE05.jpg,AMSA09.jpg,AMSA04.jpg,AMNE10.jpg,AMNE05.jpg,MN,1,num_8,32,num_6,0.783458822661,,,2017_Oct_17_1227,60.0042148131,FEMA4ImagesEEG,001,201965,
AFNE01.JPG,AFNE01.JPG,AFNE01.JPG,AFNE01.JPG,AFNE01.JPG,AFNE01.JPG,,,,,,,,,,,,,,,,,,,,,1,3,13,1,,,AMSA06.jpg,AMSA15.jpg,AMNE13.jpg,AMNE02.jpg,AMSA06.jpg,MS,2,num_8,16,num_8,0.766793839877,,,2017_Oct_17_1227,60.0042148131,FEMA4ImagesEEG,001,201965,
AFNE01.JPG,AFNE01.JPG,AFNE01.JPG,AFNE01.JPG,AFNE01.JPG,AFNE01.JPG,,,,,,,,,,,,,,,,,,,,,1,4,14,4,,,AMSA20.jpg,AMNE10.jpg,AMSA01.jpg,AMNE20.jpg,AMSA20.jpg,MS,2,num_8,32,num_4,0.283480472578,,,2017_Oct_17_1227,60.0042148131,FEMA4ImagesEEG,001,201965,
AFNE01.JPG,AFNE01.JPG,AFNE01.JPG,AFNE01.JPG,AFNE01.JPG,AFNE01.JPG,,,,,,,,,,,,,,,,,,,,,1,5,15,5,,,AMSA04.jpg,AMNE18.jpg,AMNE12.jpg,AMSA16.jpg,AMSA16.jpg,MS,2,num_4,32,num_8,0.733463553569,,,2017_Oct_17_1227,60.0042148131,FEMA4ImagesEEG,001,201965,
AFNE01.JPG,AFNE01.JPG,AFNE01.JPG,AFNE01.JPG,AFNE01.JPG,AFNE01.JPG,,,,,,,,,,,,,,,,,,,,,1,6,16,7,,,AMNE08.jpg,AMNE16.jpg,AMSA14.jpg,AMSA07.jpg,AMSA14.jpg,MS,2,num_2,16,num_2,0.483519282056,,,2017_Oct_17_1227,60.0042148131,FEMA4ImagesEEG,001,201965,
AFNE01.JPG,AFNE01.JPG,AFNE01.JPG,AFNE01.JPG,AFNE01.JPG,AFNE01.JPG,,,,,,,,,,,,,,,,,,,,,1,7,17,3,,,AMSA06.jpg,AMNE03.jpg,AMNE12.jpg,AMSA13.jpg,AMNE03.jpg,MN,1,num_6,16,num_6,0.566808914634,,,2017_Oct_17_1227,60.0042148131,FEMA4ImagesEEG,001,201965,
AFNE01.JPG,AFNE01.JPG,AFNE01.JPG,AFNE01.JPG,AFNE01.JPG,AFNE01.JPG,,,,,,,,,,,,,,,,,,,,,1,8,18,6,,,AMNE08.jpg,AMSA16.jpg,AMSA09.jpg,AMNE18.jpg,AMNE08.jpg,MN,1,num_8,16,num_8,0.783427069452,,,2017_Oct_17_1227,60.0042148131,FEMA4ImagesEEG,001,201965,
AFNE01.JPG,AFNE01.JPG,AFNE01.JPG,AFNE01.JPG,AFNE01.JPG,AFNE01.JPG,,,,,,,,,,,,,,,,,,,,,1,9,19,9,,,AMNE16.jpg,AMSA17.jpg,AMNE17.jpg,AMSA01.jpg,AMNE16.jpg,MN,1,num_8,32,num_2,0.633446073267,,,2017_Oct_17_1227,60.0042148131,FEMA4ImagesEEG,001,201965,
AFNE01.JPG,AFNE01.JPG,AFNE01.JPG,AFNE01.JPG,AFNE01.JPG,AFNE01.JPG,,,,,,,,,,,,,,,,,,,,,2,0,20,3,,,AMSA18.jpg,AMNE13.jpg,AMSA03.jpg,AMNE10.jpg,AMNE10.jpg,MN,1,num_4,32,num_6,0.433374869098,,,2017_Oct_17_1227,60.0042148131,FEMA4ImagesEEG,001,201965,
AFNE01.JPG,AFNE01.JPG,AFNE01.JPG,AFNE01.JPG,AFNE01.JPG,AFNE01.JPG,,,,,,,,,,,,,,,,,,,,,2,1,21,8,,,AMNE11.jpg,AMSA11.jpg,AMSA17.jpg,AMNE19.jpg,AMSA11.jpg,MS,2,num_6,32,num_4,0.400141766858,,,2017_Oct_17_1227,60.0042148131,FEMA4ImagesEEG,001,201965,
AFNE01.JPG,AFNE01.JPG,AFNE01.JPG,AFNE01.JPG,AFNE01.JPG,AFNE01.JPG,,,,,,,,,,,,,,,,,,,,,2,2,22,2,,,AMSA12.jpg,AMSA19.jpg,AMNE10.jpg,AMNE13.jpg,AMSA19.jpg,MS,2,num_6,16,num_6,0.866781170667,,,2017_Oct_17_1227,60.0042148131,FEMA4ImagesEEG,001,201965,
AFNE01.JPG,AFNE01.JPG,AFNE01.JPG,AFNE01.JPG,AFNE01.JPG,AFNE01.JPG,,,,,,,,,,,,,,,,,,,,,2,3,23,4,,,AMSA09.jpg,AMSA06.jpg,AMNE01.jpg,AMNE08.jpg,AMSA09.jpg,MS,2,num_8,32,num_4,0.416784618616,,,2017_Oct_17_1227,60.0042148131,FEMA4ImagesEEG,001,201965,
AFNE01.JPG,AFNE01.JPG,AFNE01.JPG,AFNE01.JPG,AFNE01.JPG,AFNE01.JPG,,,,,,,,,,,,,,,,,,,,,2,4,24,7,,,AMSA17.jpg,AMSA04.jpg,AMNE20.jpg,AMNE01.jpg,AMSA04.jpg,MS,2,num_6,32,num_8,0.566769784416,,,2017_Oct_17_1227,60.0042148131,FEMA4ImagesEEG,001,201965,
AFNE01.JPG,AFNE01.JPG,AFNE01.JPG,AFNE01.JPG,AFNE01.JPG,AFNE01.JPG,,,,,,,,,,,,,,,,,,,,,2,5,25,9,,,AMNE16.jpg,AMSA19.jpg,AMNE06.jpg,AMSA16.jpg,AMNE16.jpg,MN,1,num_8,32,num_6,0.783448238258,,,2017_Oct_17_1227,60.0042148131,FEMA4ImagesEEG,001,201965,
AFNE01.JPG,AFNE01.JPG,AFNE01.JPG,AFNE01.JPG,AFNE01.JPG,AFNE01.JPG,,,,,,,,,,,,,,,,,,,,,2,6,26,6,,,AMSA02.jpg,AMNE10.jpg,AMNE03.jpg,AMSA10.jpg,AMSA10.jpg,MS,2,num_4,32,num_2,0.566797047272,,,2017_Oct_17_1227,60.0042148131,FEMA4ImagesEEG,001,201965,
AFNE01.JPG,AFNE01.JPG,AFNE01.JPG,AFNE01.JPG,AFNE01.JPG,AFNE01.JPG,,,,,,,,,,,,,,,,,,,,,2,7,27,5,,,AMNE07.jpg,AMSA20.jpg,AMSA01.jpg,AMNE20.jpg,AMNE20.jpg,MN,1,num_4,32,num_6,0.616841710247,,,2017_Oct_17_1227,60.0042148131,FEMA4ImagesEEG,001,201965,
AFNE01.JPG,AFNE01.JPG,AFNE01.JPG,AFNE01.JPG,AFNE01.JPG,AFNE01.JPG,,,,,,,,,,,,,,,,,,,,,2,8,28,1,,,AMNE08.jpg,AMNE10.jpg,AMSA05.jpg,AMSA02.jpg,AMSA05.jpg,MS,2,num_2,16,num_2,0.550157402908,,,2017_Oct_17_1227,60.0042148131,FEMA4ImagesEEG,001,201965,
AFNE01.JPG,AFNE01.JPG,AFNE01.JPG,AFNE01.JPG,AFNE01.JPG,AFNE01.JPG,,,,,,,,,,,,,,,,,,,,,2,9,29,0,,,AMNE10.jpg,AMSA16.jpg,AMSA11.jpg,AMNE14.jpg,AMNE10.jpg,MN,1,num_8,16,num_8,0.716793118213,,,2017_Oct_17_1227,60.0042148131,FEMA4ImagesEEG,001,201965,
AFNE01.JPG,AFNE01.JPG,AFNE01.JPG,AFNE01.JPG,AFNE01.JPG,AFNE01.JPG,,,,,,,,,,,,,,,,,,,,,3,0,30,1,,,AMSA11.jpg,AMNE02.jpg,AMSA05.jpg,AMNE08.jpg,AMNE08.jpg,MN,1,num_4,32,num_2,0.666790151373,,,2017_Oct_17_1227,60.0042148131,FEMA4ImagesEEG,001,201965,
AFNE01.JPG,AFNE01.JPG,AFNE01.JPG,AFNE01.JPG,AFNE01.JPG,AFNE01.JPG,,,,,,,,,,,,,,,,,,,,,3,1,31,6,,,AMNE06.jpg,AMSA04.jpg,AMSA09.jpg,AMNE19.jpg,AMSA04.jpg,MS,2,num_6,16,num_6,0.666777321793,,,2017_Oct_17_1227,60.0042148131,FEMA4ImagesEEG,001,201965,
AFNE01.JPG,AFNE01.JPG,AFNE01.JPG,AFNE01.JPG,AFNE01.JPG,AFNE01.JPG,,,,,,,,,,,,,,,,,,,,,3,2,32,0,,,AMNE03.jpg,AMSA10.jpg,AMNE16.jpg,AMSA20.jpg,AMSA20.jpg,MS,2,num_4,16,num_4,1.06674171971,,,2017_Oct_17_1227,60.0042148131,FEMA4ImagesEEG,001,201965,
AFNE01.JPG,AFNE01.JPG,AFNE01.JPG,AFNE01.JPG,AFNE01.JPG,AFNE01.JPG,,,,,,,,,,,,,,,,,,,,,3,3,33,3,,,AMSA20.jpg,AMSA13.jpg,AMNE05.jpg,AMNE04.jpg,AMSA13.jpg,MS,2,num_6,16,num_6,3.4331946135,,,2017_Oct_17_1227,60.0042148131,FEMA4ImagesEEG,001,201965,
AFNE01.JPG,AFNE01.JPG,AFNE01.JPG,AFNE01.JPG,AFNE01.JPG,AFNE01.JPG,,,,,,,,,,,,,,,,,,,,,3,4,34,5,,,AMNE13.jpg,AMNE08.jpg,AMSA03.jpg,AMSA05.jpg,AMSA05.jpg,MS,2,num_4,32,num_2,0.433478147216,,,2017_Oct_17_1227,60.0042148131,FEMA4ImagesEEG,001,201965,
AFNE01.JPG,AFNE01.JPG,AFNE01.JPG,AFNE01.JPG,AFNE01.JPG,AFNE01.JPG,,,,,,,,,,,,,,,,,,,,,3,5,35,2,,,AMSA04.jpg,AMSA07.jpg,AMNE02.jpg,AMNE19.jpg,AMSA04.jpg,MS,2,num_8,16,num_8,0.766628338297,,,2017_Oct_17_1227,60.0042148131,FEMA4ImagesEEG,001,201965,
AFNE01.JPG,AFNE01.JPG,AFNE01.JPG,AFNE01.JPG,AFNE01.JPG,AFNE01.JPG,,,,,,,,,,,,,,,,,,,,,3,6,36,9,,,AMNE11.jpg,AMSA17.jpg,AMSA06.jpg,AMNE15.jpg,AMSA06.jpg,MS,2,num_2,16,num_2,1.16671622092,,,2017_Oct_17_1227,60.0042148131,FEMA4ImagesEEG,001,201965,
AFNE01.JPG,AFNE01.JPG,AFNE01.JPG,AFNE01.JPG,AFNE01.JPG,AFNE01.JPG,,,,,,,,,,,,,,,,,,,,,3,7,37,8,,,AMNE11.jpg,AMSA19.jpg,AMSA10.jpg,AMNE05.jpg,AMSA19.jpg,MS,2,num_6,16,num_6,0.516745328028,,,2017_Oct_17_1227,60.0042148131,FEMA4ImagesEEG,001,201965,
AFNE01.JPG,AFNE01.JPG,AFNE01.JPG,AFNE01.JPG,AFNE01.JPG,AFNE01.JPG,,,,,,,,,,,,,,,,,,,,,3,8,38,7,,,AMNE09.jpg,AMSA16.jpg,AMNE01.jpg,AMSA13.jpg,AMSA16.jpg,MS,2,num_6,32,num_8,0.533466440225,,,2017_Oct_17_1227,60.0042148131,FEMA4ImagesEEG,001,201965,
AFNE01.JPG,AFNE01.JPG,AFNE01.JPG,AFNE01.JPG,AFNE01.JPG,AFNE01.JPG,,,,,,,,,,,,,,,,,,,,,3,9,39,4,,,AMNE10.jpg,AMSA07.jpg,AMSA18.jpg,AMNE11.jpg,AMSA07.jpg,MS,2,num_6,16,num_6,0.800113221043,,,2017_Oct_17_1227,60.0042148131,FEMA4ImagesEEG,001,201965,
