IPosition2,IPosition3,IPosition1,IPosition6,IPosition4,IPosition5,TrialsM1.thisRepN,TrialsM1.thisTrialN,TrialsM1.thisN,TrialsM1.thisIndex,TrialsF1.thisRepN,TrialsF1.thisTrialN,TrialsF1.thisN,TrialsF1.thisIndex,TrialsM2.thisRepN,TrialsM2.thisTrialN,TrialsM2.thisN,TrialsM2.thisIndex,TrialsF2.thisRepN,TrialsF2.thisTrialN,TrialsF2.thisN,TrialsF2.thisIndex,TrialsM3.thisRepN,TrialsM3.thisTrialN,TrialsM3.thisN,TrialsM3.thisIndex,TrialsF3.thisRepN,TrialsF3.thisTrialN,TrialsF3.thisN,TrialsF3.thisIndex,InstrKey_resp.keys,InstrKey_resp.rt,Image0 _Position,Image1 _Position,Image2 _Position,Image3 _Position,Center_image,condition,code,correct_answer,accuracy,Key_Resp.keys,Key_Resp.rt,BreakKey_resp.keys,BreakKey_resp.rt,date,frameRate,expName,session,participant,
,,,,,,,,,,,,,,,,,,,,,,,,,,,,,,space,17.315808144,,,,,,,,,,,,,,2017_Dec_01_1327,59.9996535919,MAFE4ImagesEEG,001,201963,
AFSA21.JPG,AFNE23.JPG,AFNE21.JPG,AFSA25.JPG,AFNE25.JPG,AFSA23.JPG,0,0,0,4,,,,,,,,,,,,,,,,,,,,,,,AMNE18.jpg,AMSA17.jpg,AMSA10.jpg,AMNE15.jpg,AMSA17.jpg,MS,2,num_6,16,num_6,0.550169382361,,,2017_Dec_01_1327,59.9996535919,MAFE4ImagesEEG,001,201963,
AFNE22.JPG,AFSA24.JPG,AFSA22.JPG,AFNE25.JPG,AFNE24.JPG,AFSA25.JPG,0,1,1,6,,,,,,,,,,,,,,,,,,,,,,,AMSA16.jpg,AMSA11.jpg,AMNE03.jpg,AMNE05.jpg,AMNE03.jpg,MN,1,num_2,32,num_8,1.30008005642,,,2017_Dec_01_1327,59.9996535919,MAFE4ImagesEEG,001,201963,
AMSA21.JPG,AMNE23.JPG,AMNE21.JPG,AMSA25.JPG,AMNE25.JPG,AMSA23.JPG,0,2,2,5,,,,,,,,,,,,,,,,,,,,,,,AMNE09.jpg,AMSA07.jpg,AMSA19.jpg,AMNE14.jpg,AMNE09.jpg,MN,1,num_8,16,num_8,0.916791273863,,,2017_Dec_01_1327,59.9996535919,MAFE4ImagesEEG,001,201963,
AMSA25.JPG,AMNE24.JPG,AMSA24.JPG,AMNE26.JPG,AMSA21.JPG,AMNE25.JPG,0,3,3,3,,,,,,,,,,,,,,,,,,,,,,,AMSA17.jpg,AMNE11.jpg,AMNE07.jpg,AMSA20.jpg,AMSA20.jpg,MS,2,num_4,16,num_4,0.833473175648,,,2017_Dec_01_1327,59.9996535919,MAFE4ImagesEEG,001,201963,
AFSA25.JPG,AFNE24.JPG,AFSA24.JPG,AFNE21.JPG,AFSA21.JPG,AFNE25.JPG,0,4,4,2,,,,,,,,,,,,,,,,,,,,,,,AMNE06.jpg,AMNE17.jpg,AMSA04.jpg,AMSA09.jpg,AMNE17.jpg,MN,1,num_6,32,num_8,1.09991667198,,,2017_Dec_01_1327,59.9996535919,MAFE4ImagesEEG,001,201963,
AMNE23.JPG,AMNE24.JPG,AMNE22.JPG,AMSA24.JPG,AMSA22.JPG,AMSA23.JPG,0,5,5,9,,,,,,,,,,,,,,,,,,,,,,,AMSA03.jpg,AMSA09.jpg,AMNE17.jpg,AMNE07.jpg,AMSA09.jpg,MS,2,num_6,32,num_8,0.866809523897,,,2017_Dec_01_1327,59.9996535919,MAFE4ImagesEEG,001,201963,
AMSA21.JPG,AMNE22.JPG,AMNE21.JPG,AMSA23.JPG,AMSA22.JPG,AMNE23.JPG,0,6,6,1,,,,,,,,,,,,,,,,,,,,,,,AMNE14.jpg,AMNE20.jpg,AMSA13.jpg,AMSA18.jpg,AMNE20.jpg,MN,1,num_6,16,num_6,0.716793069965,,,2017_Dec_01_1327,59.9996535919,MAFE4ImagesEEG,001,201963,
AFNE23.JPG,AFNE24.JPG,AFNE22.JPG,AFSA24.JPG,AFSA22.JPG,AFSA23.JPG,0,7,7,8,,,,,,,,,,,,,,,,,,,,,,,AMNE14.jpg,AMSA19.jpg,AMNE06.jpg,AMSA15.jpg,AMSA15.jpg,MS,2,num_4,16,num_4,0.483469423023,,,2017_Dec_01_1327,59.9996535919,MAFE4ImagesEEG,001,201963,
AFSA21.JPG,AFNE22.JPG,AFNE21.JPG,AFSA23.JPG,AFSA22.JPG,AFNE23.JPG,0,8,8,0,,,,,,,,,,,,,,,,,,,,,,,AMSA03.jpg,AMSA08.jpg,AMNE06.jpg,AMNE05.jpg,AMSA03.jpg,MS,2,num_8,16,num_8,0.633465670398,,,2017_Dec_01_1327,59.9996535919,MAFE4ImagesEEG,001,201963,
AMNE22.JPG,AMSA24.JPG,AMSA22.JPG,AMNE25.JPG,AMNE24.JPG,AMSA25.JPG,0,9,9,7,,,,,,,,,,,,,,,,,,,,,,,AMNE17.jpg,AMSA08.jpg,AMNE05.jpg,AMSA09.jpg,AMSA08.jpg,MS,2,num_6,32,num_4,0.950128905126,,,2017_Dec_01_1327,59.9996535919,MAFE4ImagesEEG,001,201963,
AFNE23.JPG,AFNE24.JPG,AFNE22.JPG,AFSA24.JPG,AFSA22.JPG,AFSA23.JPG,,,,,0,0,0,8,,,,,,,,,,,,,,,,,,,AFNE08.jpg,AFSA18.jpg,AFNE06.jpg,AFSA13.jpg,AFSA18.jpg,FS,4,num_6,32,num_4,1.10010719113,,,2017_Dec_01_1327,59.9996535919,MAFE4ImagesEEG,001,201963,
AMNE23.JPG,AMNE24.JPG,AMNE22.JPG,AMSA24.JPG,AMSA22.JPG,AMSA23.JPG,,,,,0,1,1,9,,,,,,,,,,,,,,,,,,,AFNE04.jpg,AFSA19.jpg,AFNE08.jpg,AFSA05.jpg,AFSA05.jpg,FS,4,num_4,16,num_4,1.16686648724,,,2017_Dec_01_1327,59.9996535919,MAFE4ImagesEEG,001,201963,
AFSA25.JPG,AFNE24.JPG,AFSA24.JPG,AFNE21.JPG,AFSA21.JPG,AFNE25.JPG,,,,,0,2,2,2,,,,,,,,,,,,,,,,,,,AFNE11.jpg,AFSA19.jpg,AFSA06.jpg,AFNE13.jpg,AFNE11.jpg,FN,3,num_8,32,num_2,1.26682774187,,,2017_Dec_01_1327,59.9996535919,MAFE4ImagesEEG,001,201963,
AFSA21.JPG,AFNE22.JPG,AFNE21.JPG,AFSA23.JPG,AFSA22.JPG,AFNE23.JPG,,,,,0,3,3,0,,,,,,,,,,,,,,,,,,,AFNE18.jpg,AFSA10.jpg,AFSA11.jpg,AFNE15.jpg,AFSA11.jpg,FS,4,num_2,16,num_2,0.700030277832,,,2017_Dec_01_1327,59.9996535919,MAFE4ImagesEEG,001,201963,
AMNE22.JPG,AMSA24.JPG,AMSA22.JPG,AMNE25.JPG,AMNE24.JPG,AMSA25.JPG,,,,,0,4,4,7,,,,,,,,,,,,,,,,,,,AFSA08.jpg,AFNE11.jpg,AFSA03.jpg,AFNE05.jpg,AFNE11.jpg,FN,3,num_6,32,num_4,0.650161107304,,,2017_Dec_01_1327,59.9996535919,MAFE4ImagesEEG,001,201963,
AMSA21.JPG,AMNE23.JPG,AMNE21.JPG,AMSA25.JPG,AMNE25.JPG,AMSA23.JPG,,,,,0,5,5,5,,,,,,,,,,,,,,,,,,,AFNE20.jpg,AFNE10.jpg,AFSA05.jpg,AFSA11.jpg,AFSA11.jpg,FS,4,num_4,16,num_4,0.933414544561,,,2017_Dec_01_1327,59.9996535919,MAFE4ImagesEEG,001,201963,
AMSA25.JPG,AMNE24.JPG,AMSA24.JPG,AMNE26.JPG,AMSA21.JPG,AMNE25.JPG,,,,,0,6,6,3,,,,,,,,,,,,,,,,,,,AFSA16.jpg,AFNE14.jpg,AFSA20.jpg,AFNE03.jpg,AFNE14.jpg,FN,3,num_6,16,num_6,1.63338516478,,,2017_Dec_01_1327,59.9996535919,MAFE4ImagesEEG,001,201963,
AFNE22.JPG,AFSA24.JPG,AFSA22.JPG,AFNE25.JPG,AFNE24.JPG,AFSA25.JPG,,,,,0,7,7,6,,,,,,,,,,,,,,,,,,,AFNE12.jpg,AFSA14.jpg,AFSA07.jpg,AFNE07.jpg,AFNE12.jpg,FN,3,num_8,32,num_6,0.833460345981,,,2017_Dec_01_1327,59.9996535919,MAFE4ImagesEEG,001,201963,
AFSA21.JPG,AFNE23.JPG,AFNE21.JPG,AFSA25.JPG,AFNE25.JPG,AFSA23.JPG,,,,,0,8,8,4,,,,,,,,,,,,,,,,,,,AFNE07.jpg,AFSA03.jpg,AFNE04.jpg,AFSA10.jpg,AFSA03.jpg,FS,4,num_6,32,num_8,2.18337172573,,,2017_Dec_01_1327,59.9996535919,MAFE4ImagesEEG,001,201963,
AMSA21.JPG,AMNE22.JPG,AMNE21.JPG,AMSA23.JPG,AMSA22.JPG,AMNE23.JPG,,,,,0,9,9,1,,,,,,,,,,,,,,,,,,,AFNE14.jpg,AFSA04.jpg,AFSA10.jpg,AFNE15.jpg,AFNE14.jpg,FN,3,num_8,32,num_6,1.05014500616,,,2017_Dec_01_1327,59.9996535919,MAFE4ImagesEEG,001,201963,
AMNE22.JPG,AMSA24.JPG,AMSA22.JPG,AMNE25.JPG,AMNE24.JPG,AMSA25.JPG,,,,,,,,,0,0,0,7,,,,,,,,,,,,,,,AMNE07.jpg,AMSA02.jpg,AMSA11.jpg,AMNE11.jpg,AMNE11.jpg,MN,1,num_4,32,num_8,0.350166367483,,,2017_Dec_01_1327,59.9996535919,MAFE4ImagesEEG,001,201963,
AMSA25.JPG,AMNE24.JPG,AMSA24.JPG,AMNE26.JPG,AMSA21.JPG,AMNE25.JPG,,,,,,,,,0,1,1,3,,,,,,,,,,,,,,,AMSA14.jpg,AMSA02.jpg,AMNE14.jpg,AMNE16.jpg,AMNE14.jpg,MN,1,num_2,32,num_8,0.68344068469,,,2017_Dec_01_1327,59.9996535919,MAFE4ImagesEEG,001,201963,
AFNE22.JPG,AFSA24.JPG,AFSA22.JPG,AFNE25.JPG,AFNE24.JPG,AFSA25.JPG,,,,,,,,,0,2,2,6,,,,,,,,,,,,,,,AMSA14.jpg,AMSA07.jpg,AMNE03.jpg,AMNE07.jpg,AMSA14.jpg,MS,2,num_8,32,num_2,1.68338744203,,,2017_Dec_01_1327,59.9996535919,MAFE4ImagesEEG,001,201963,
AFSA21.JPG,AFNE22.JPG,AFNE21.JPG,AFSA23.JPG,AFSA22.JPG,AFNE23.JPG,,,,,,,,,0,3,3,0,,,,,,,,,,,,,,,AMNE03.jpg,AMSA08.jpg,AMNE15.jpg,AMSA13.jpg,AMNE03.jpg,MN,1,num_8,16,num_8,0.91677748214,,,2017_Dec_01_1327,59.9996535919,MAFE4ImagesEEG,001,201963,
AMSA21.JPG,AMNE22.JPG,AMNE21.JPG,AMSA23.JPG,AMSA22.JPG,AMNE23.JPG,,,,,,,,,0,4,4,1,,,,,,,,,,,,,,,AMNE09.jpg,AMSA01.jpg,AMNE17.jpg,AMSA12.jpg,AMNE17.jpg,MN,1,num_2,32,num_6,0.566772767226,,,2017_Dec_01_1327,59.9996535919,MAFE4ImagesEEG,001,201963,
AFSA25.JPG,AFNE24.JPG,AFSA24.JPG,AFNE21.JPG,AFSA21.JPG,AFNE25.JPG,,,,,,,,,0,5,5,2,,,,,,,,,,,,,,,AMNE18.jpg,AMSA20.jpg,AMSA03.jpg,AMNE09.jpg,AMSA20.jpg,MS,2,num_6,32,num_4,0.966719460324,,,2017_Dec_01_1327,59.9996535919,MAFE4ImagesEEG,001,201963,
AFNE23.JPG,AFNE24.JPG,AFNE22.JPG,AFSA24.JPG,AFSA22.JPG,AFSA23.JPG,,,,,,,,,0,6,6,8,,,,,,,,,,,,,,,AMSA19.jpg,AMSA11.jpg,AMNE10.jpg,AMNE09.jpg,AMNE10.jpg,MN,1,num_2,32,num_8,0.600128039136,,,2017_Dec_01_1327,59.9996535919,MAFE4ImagesEEG,001,201963,
AMSA21.JPG,AMNE23.JPG,AMNE21.JPG,AMSA25.JPG,AMNE25.JPG,AMSA23.JPG,,,,,,,,,0,7,7,5,,,,,,,,,,,,,,,AMSA13.jpg,AMNE17.jpg,AMSA11.jpg,AMNE13.jpg,AMSA13.jpg,MS,2,num_8,16,num_8,0.633473368012,,,2017_Dec_01_1327,59.9996535919,MAFE4ImagesEEG,001,201963,
AFSA21.JPG,AFNE23.JPG,AFNE21.JPG,AFSA25.JPG,AFNE25.JPG,AFSA23.JPG,,,,,,,,,0,8,8,4,,,,,,,,,,,,,,,AMNE16.jpg,AMSA01.jpg,AMSA10.jpg,AMNE09.jpg,AMNE09.jpg,MN,1,num_4,32,num_2,2.39972474158,,,2017_Dec_01_1327,59.9996535919,MAFE4ImagesEEG,001,201963,
AMNE23.JPG,AMNE24.JPG,AMNE22.JPG,AMSA24.JPG,AMSA22.JPG,AMSA23.JPG,,,,,,,,,0,9,9,9,,,,,,,,,,,,,,,AMSA08.jpg,AMSA11.jpg,AMNE11.jpg,AMNE02.jpg,AMSA11.jpg,MS,2,num_6,16,num_6,0.566854555625,,,2017_Dec_01_1327,59.9996535919,MAFE4ImagesEEG,001,201963,
AFNE22.JPG,AFSA24.JPG,AFSA22.JPG,AFNE25.JPG,AFNE24.JPG,AFSA25.JPG,,,,,,,,,,,,,0,0,0,6,,,,,,,,,,,AFSA14.jpg,AFSA10.jpg,AFNE09.jpg,AFNE07.jpg,AFSA10.jpg,FS,4,num_6,32,num_4,0.783490784233,,,2017_Dec_01_1327,59.9996535919,MAFE4ImagesEEG,001,201963,
AMSA21.JPG,AMNE23.JPG,AMNE21.JPG,AMSA25.JPG,AMNE25.JPG,AMSA23.JPG,,,,,,,,,,,,,0,1,1,5,,,,,,,,,,,AFNE06.jpg,AFSA11.jpg,AFNE07.jpg,AFSA18.jpg,AFNE06.jpg,FN,3,num_8,16,num_8,1.0670322451,,,2017_Dec_01_1327,59.9996535919,MAFE4ImagesEEG,001,201963,
AMSA25.JPG,AMNE24.JPG,AMSA24.JPG,AMNE26.JPG,AMSA21.JPG,AMNE25.JPG,,,,,,,,,,,,,0,2,2,3,,,,,,,,,,,AFSA17.jpg,AFNE15.jpg,AFSA04.jpg,AFNE12.jpg,AFNE12.jpg,FN,3,num_4,16,num_4,0.583519201726,,,2017_Dec_01_1327,59.9996535919,MAFE4ImagesEEG,001,201963,
AFSA21.JPG,AFNE23.JPG,AFNE21.JPG,AFSA25.JPG,AFNE25.JPG,AFSA23.JPG,,,,,,,,,,,,,0,3,3,4,,,,,,,,,,,AFSA07.jpg,AFSA09.jpg,AFNE03.jpg,AFNE11.jpg,AFSA09.jpg,FS,4,num_6,32,num_4,1.08346852497,,,2017_Dec_01_1327,59.9996535919,MAFE4ImagesEEG,001,201963,
AFSA25.JPG,AFNE24.JPG,AFSA24.JPG,AFNE21.JPG,AFSA21.JPG,AFNE25.JPG,,,,,,,,,,,,,0,4,4,2,,,,,,,,,,,AFNE11.jpg,AFSA11.jpg,AFSA16.jpg,AFNE07.jpg,AFNE07.jpg,FN,3,num_4,32,num_8,2.31687588478,,,2017_Dec_01_1327,59.9996535919,MAFE4ImagesEEG,001,201963,
AMSA21.JPG,AMNE22.JPG,AMNE21.JPG,AMSA23.JPG,AMSA22.JPG,AMNE23.JPG,,,,,,,,,,,,,0,5,5,1,,,,,,,,,,,AFSA06.jpg,AFSA04.jpg,AFNE13.jpg,AFNE16.jpg,AFSA04.jpg,FS,4,num_6,32,num_8,0.783496557502,,,2017_Dec_01_1327,59.9996535919,MAFE4ImagesEEG,001,201963,
AMNE22.JPG,AMSA24.JPG,AMSA22.JPG,AMNE25.JPG,AMNE24.JPG,AMSA25.JPG,,,,,,,,,,,,,0,6,6,7,,,,,,,,,,,AFSA20.jpg,AFNE02.jpg,AFNE16.jpg,AFSA02.jpg,AFNE02.jpg,FN,3,num_6,32,num_8,1.06658032362,,,2017_Dec_01_1327,59.9996535919,MAFE4ImagesEEG,001,201963,
AMNE23.JPG,AMNE24.JPG,AMNE22.JPG,AMSA24.JPG,AMSA22.JPG,AMSA23.JPG,,,,,,,,,,,,,0,7,7,9,,,,,,,,,,,AFSA05.jpg,AFSA03.jpg,AFNE19.jpg,AFNE07.jpg,AFSA03.jpg,FS,4,num_6,16,num_6,0.766773857642,,,2017_Dec_01_1327,59.9996535919,MAFE4ImagesEEG,001,201963,
AFSA21.JPG,AFNE22.JPG,AFNE21.JPG,AFSA23.JPG,AFSA22.JPG,AFNE23.JPG,,,,,,,,,,,,,0,8,8,0,,,,,,,,,,,AFNE03.jpg,AFSA04.jpg,AFSA12.jpg,AFNE06.jpg,AFSA04.jpg,FS,4,num_6,32,num_4,1.3667193962,,,2017_Dec_01_1327,59.9996535919,MAFE4ImagesEEG,001,201963,
AFNE23.JPG,AFNE24.JPG,AFNE22.JPG,AFSA24.JPG,AFSA22.JPG,AFSA23.JPG,,,,,,,,,,,,,0,9,9,8,,,,,,,,,,,AFNE16.jpg,AFNE19.jpg,AFSA19.jpg,AFSA12.jpg,AFNE16.jpg,FN,3,num_8,16,num_8,0.966774948174,,,2017_Dec_01_1327,59.9996535919,MAFE4ImagesEEG,001,201963,
AFNE23.JPG,AFNE24.JPG,AFNE22.JPG,AFSA24.JPG,AFSA22.JPG,AFSA23.JPG,,,,,,,,,,,,,,,,,0,0,0,8,,,,,,,AMSA14.jpg,AMNE02.jpg,AMNE14.jpg,AMSA09.jpg,AMSA14.jpg,MS,2,num_8,16,num_8,0.816637896351,,,2017_Dec_01_1327,59.9996535919,MAFE4ImagesEEG,001,201963,
AMNE23.JPG,AMNE24.JPG,AMNE22.JPG,AMSA24.JPG,AMSA22.JPG,AMSA23.JPG,,,,,,,,,,,,,,,,,0,1,1,9,,,,,,,AMNE01.jpg,AMNE07.jpg,AMSA05.jpg,AMSA03.jpg,AMSA03.jpg,MS,2,num_4,16,num_4,1.10008570156,,,2017_Dec_01_1327,59.9996535919,MAFE4ImagesEEG,001,201963,
AFSA25.JPG,AFNE24.JPG,AFSA24.JPG,AFNE21.JPG,AFSA21.JPG,AFNE25.JPG,,,,,,,,,,,,,,,,,0,2,2,2,,,,,,,AMSA17.jpg,AMNE05.jpg,AMNE18.jpg,AMSA12.jpg,AMSA12.jpg,MS,2,num_4,16,num_4,0.566838518716,,,2017_Dec_01_1327,59.9996535919,MAFE4ImagesEEG,001,201963,
AFSA21.JPG,AFNE23.JPG,AFNE21.JPG,AFSA25.JPG,AFNE25.JPG,AFSA23.JPG,,,,,,,,,,,,,,,,,0,3,3,4,,,,,,,AMNE11.jpg,AMNE06.jpg,AMSA13.jpg,AMSA10.jpg,AMNE06.jpg,MN,1,num_6,32,num_4,1.21675714722,,,2017_Dec_01_1327,59.9996535919,MAFE4ImagesEEG,001,201963,
AMSA21.JPG,AMNE23.JPG,AMNE21.JPG,AMSA25.JPG,AMNE25.JPG,AMSA23.JPG,,,,,,,,,,,,,,,,,0,4,4,5,,,,,,,AMSA11.jpg,AMSA07.jpg,AMNE04.jpg,AMNE08.jpg,AMNE08.jpg,MN,1,num_4,32,num_8,0.916773633217,,,2017_Dec_01_1327,59.9996535919,MAFE4ImagesEEG,001,201963,
AFSA21.JPG,AFNE22.JPG,AFNE21.JPG,AFSA23.JPG,AFSA22.JPG,AFNE23.JPG,,,,,,,,,,,,,,,,,0,5,5,0,,,,,,,AMNE12.jpg,AMSA06.jpg,AMNE11.jpg,AMSA17.jpg,AMSA06.jpg,MS,2,num_6,32,num_8,0.833429555059,,,2017_Dec_01_1327,59.9996535919,MAFE4ImagesEEG,001,201963,
AMSA25.JPG,AMNE24.JPG,AMSA24.JPG,AMNE26.JPG,AMSA21.JPG,AMNE25.JPG,,,,,,,,,,,,,,,,,0,6,6,3,,,,,,,AMNE15.jpg,AMSA11.jpg,AMNE16.jpg,AMSA20.jpg,AMNE16.jpg,MN,1,num_2,16,num_2,0.633500630851,,,2017_Dec_01_1327,59.9996535919,MAFE4ImagesEEG,001,201963,
AMSA21.JPG,AMNE22.JPG,AMNE21.JPG,AMSA23.JPG,AMSA22.JPG,AMNE23.JPG,,,,,,,,,,,,,,,,,0,7,7,1,,,,,,,AMSA12.jpg,AMNE07.jpg,AMNE11.jpg,AMSA07.jpg,AMNE11.jpg,MN,1,num_2,32,num_4,0.850111841806,,,2017_Dec_01_1327,59.9996535919,MAFE4ImagesEEG,001,201963,
AFNE22.JPG,AFSA24.JPG,AFSA22.JPG,AFNE25.JPG,AFNE24.JPG,AFSA25.JPG,,,,,,,,,,,,,,,,,0,8,8,6,,,,,,,AMNE18.jpg,AMSA08.jpg,AMNE10.jpg,AMSA19.jpg,AMNE18.jpg,MN,1,num_8,32,num_6,0.816761060269,,,2017_Dec_01_1327,59.9996535919,MAFE4ImagesEEG,001,201963,
AMNE22.JPG,AMSA24.JPG,AMSA22.JPG,AMNE25.JPG,AMNE24.JPG,AMSA25.JPG,,,,,,,,,,,,,,,,,0,9,9,7,,,,,,,AMSA03.jpg,AMNE15.jpg,AMSA16.jpg,AMNE07.jpg,AMNE15.jpg,MN,1,num_6,32,num_8,0.716718337731,,,2017_Dec_01_1327,59.9996535919,MAFE4ImagesEEG,001,201963,
AFSA21.JPG,AFNE23.JPG,AFNE21.JPG,AFSA25.JPG,AFNE25.JPG,AFSA23.JPG,,,,,,,,,,,,,,,,,,,,,0,0,0,4,,,AFNE15.jpg,AFSA16.jpg,AFSA07.jpg,AFNE12.jpg,AFSA16.jpg,FS,4,num_6,16,num_6,1.1498772531,,,2017_Dec_01_1327,59.9996535919,MAFE4ImagesEEG,001,201963,
AMSA21.JPG,AMNE22.JPG,AMNE21.JPG,AMSA23.JPG,AMSA22.JPG,AMNE23.JPG,,,,,,,,,,,,,,,,,,,,,0,1,1,1,,,AFNE19.jpg,AFSA04.jpg,AFNE07.jpg,AFSA14.jpg,AFSA14.jpg,FS,4,num_4,32,num_2,1.18340829003,,,2017_Dec_01_1327,59.9996535919,MAFE4ImagesEEG,001,201963,
AFNE22.JPG,AFSA24.JPG,AFSA22.JPG,AFNE25.JPG,AFNE24.JPG,AFSA25.JPG,,,,,,,,,,,,,,,,,,,,,0,2,2,6,,,AFNE10.jpg,AFSA13.jpg,AFSA11.jpg,AFNE14.jpg,AFNE14.jpg,FN,3,num_4,32,num_6,0.816867545596,,,2017_Dec_01_1327,59.9996535919,MAFE4ImagesEEG,001,201963,
AMNE22.JPG,AMSA24.JPG,AMSA22.JPG,AMNE25.JPG,AMNE24.JPG,AMSA25.JPG,,,,,,,,,,,,,,,,,,,,,0,3,3,7,,,AFNE19.jpg,AFSA18.jpg,AFNE20.jpg,AFSA08.jpg,AFSA18.jpg,FS,4,num_6,32,num_8,0.73348080914,,,2017_Dec_01_1327,59.9996535919,MAFE4ImagesEEG,001,201963,
AMNE23.JPG,AMNE24.JPG,AMNE22.JPG,AMSA24.JPG,AMSA22.JPG,AMSA23.JPG,,,,,,,,,,,,,,,,,,,,,0,4,4,9,,,AFSA17.jpg,AFNE02.jpg,AFSA20.jpg,AFNE14.jpg,AFSA17.jpg,FS,4,num_8,32,num_4,2.4833645412,,,2017_Dec_01_1327,59.9996535919,MAFE4ImagesEEG,001,201963,
AFNE23.JPG,AFNE24.JPG,AFNE22.JPG,AFSA24.JPG,AFSA22.JPG,AFSA23.JPG,,,,,,,,,,,,,,,,,,,,,0,5,5,8,,,AFSA12.jpg,AFNE12.jpg,AFSA15.jpg,AFNE04.jpg,AFSA15.jpg,FS,4,num_2,32,num_6,2.65004435822,,,2017_Dec_01_1327,59.9996535919,MAFE4ImagesEEG,001,201963,
AMSA25.JPG,AMNE24.JPG,AMSA24.JPG,AMNE26.JPG,AMSA21.JPG,AMNE25.JPG,,,,,,,,,,,,,,,,,,,,,0,6,6,3,,,AFNE13.jpg,AFSA01.jpg,AFNE10.jpg,AFSA05.jpg,AFNE10.jpg,FN,3,num_2,32,num_4,4.73320336977,,,2017_Dec_01_1327,59.9996535919,MAFE4ImagesEEG,001,201963,
AFSA21.JPG,AFNE22.JPG,AFNE21.JPG,AFSA23.JPG,AFSA22.JPG,AFNE23.JPG,,,,,,,,,,,,,,,,,,,,,0,7,7,0,,,AFNE16.jpg,AFSA17.jpg,AFSA19.jpg,AFNE17.jpg,AFSA19.jpg,FS,4,num_2,32,num_6,1.98341233144,,,2017_Dec_01_1327,59.9996535919,MAFE4ImagesEEG,001,201963,
AFSA25.JPG,AFNE24.JPG,AFSA24.JPG,AFNE21.JPG,AFSA21.JPG,AFNE25.JPG,,,,,,,,,,,,,,,,,,,,,0,8,8,2,,,AFNE06.jpg,AFSA16.jpg,AFNE09.jpg,AFSA07.jpg,AFNE09.jpg,FN,3,num_2,32,num_4,1.20012072625,,,2017_Dec_01_1327,59.9996535919,MAFE4ImagesEEG,001,201963,
AMSA21.JPG,AMNE23.JPG,AMNE21.JPG,AMSA25.JPG,AMNE25.JPG,AMSA23.JPG,,,,,,,,,,,,,,,,,,,,,0,9,9,5,,,AFNE18.jpg,AFNE06.jpg,AFSA19.jpg,AFSA12.jpg,AFSA19.jpg,FS,4,num_2,32,num_6,2.84967050469,,,2017_Dec_01_1327,59.9996535919,MAFE4ImagesEEG,001,201963,
,,,,,,,,,,,,,,,,,,,,,,,,,,,,,,,,,,,,,,,,,,,space,5.66631738166,2017_Dec_01_1327,59.9996535919,MAFE4ImagesEEG,001,201963,
AFNE01.JPG,AFNE01.JPG,AFNE01.JPG,AFNE01.JPG,AFNE01.JPG,AFNE01.JPG,0,0,0,3,,,,,,,,,,,,,,,,,,,,,,,AMSA08.jpg,AMNE07.jpg,AMSA02.jpg,AMNE09.jpg,AMNE07.jpg,MN,1,num_6,16,num_6,1.43344533548,,,2017_Dec_01_1327,59.9996535919,MAFE4ImagesEEG,001,201963,
AFNE01.JPG,AFNE01.JPG,AFNE01.JPG,AFNE01.JPG,AFNE01.JPG,AFNE01.JPG,0,1,1,1,,,,,,,,,,,,,,,,,,,,,,,AMNE20.jpg,AMSA14.jpg,AMSA20.jpg,AMNE02.jpg,AMNE02.jpg,MN,1,num_4,32,num_6,0.533464964712,,,2017_Dec_01_1327,59.9996535919,MAFE4ImagesEEG,001,201963,
AFNE01.JPG,AFNE01.JPG,AFNE01.JPG,AFNE01.JPG,AFNE01.JPG,AFNE01.JPG,0,2,2,4,,,,,,,,,,,,,,,,,,,,,,,AMNE19.jpg,AMSA03.jpg,AMNE14.jpg,AMSA17.jpg,AMSA17.jpg,MS,2,num_4,32,num_6,0.466782325297,,,2017_Dec_01_1327,59.9996535919,MAFE4ImagesEEG,001,201963,
AFNE01.JPG,AFNE01.JPG,AFNE01.JPG,AFNE01.JPG,AFNE01.JPG,AFNE01.JPG,0,3,3,8,,,,,,,,,,,,,,,,,,,,,,,AMNE16.jpg,AMNE17.jpg,AMSA11.jpg,AMSA17.jpg,AMNE17.jpg,MN,1,num_6,32,num_8,0.583504126989,,,2017_Dec_01_1327,59.9996535919,MAFE4ImagesEEG,001,201963,
AFNE01.JPG,AFNE01.JPG,AFNE01.JPG,AFNE01.JPG,AFNE01.JPG,AFNE01.JPG,0,4,4,5,,,,,,,,,,,,,,,,,,,,,,,AMSA17.jpg,AMNE13.jpg,AMNE03.jpg,AMSA10.jpg,AMNE03.jpg,MN,1,num_2,16,num_2,0.616739442456,,,2017_Dec_01_1327,59.9996535919,MAFE4ImagesEEG,001,201963,
AFNE01.JPG,AFNE01.JPG,AFNE01.JPG,AFNE01.JPG,AFNE01.JPG,AFNE01.JPG,0,5,5,6,,,,,,,,,,,,,,,,,,,,,,,AMNE16.jpg,AMSA20.jpg,AMNE05.jpg,AMSA08.jpg,AMNE16.jpg,MN,1,num_8,32,num_6,0.583513107616,,,2017_Dec_01_1327,59.9996535919,MAFE4ImagesEEG,001,201963,
AFNE01.JPG,AFNE01.JPG,AFNE01.JPG,AFNE01.JPG,AFNE01.JPG,AFNE01.JPG,0,6,6,2,,,,,,,,,,,,,,,,,,,,,,,AMNE06.jpg,AMSA07.jpg,AMSA12.jpg,AMNE13.jpg,AMNE06.jpg,MN,1,num_8,32,num_2,0.516781074344,,,2017_Dec_01_1327,59.9996535919,MAFE4ImagesEEG,001,201963,
AFNE01.JPG,AFNE01.JPG,AFNE01.JPG,AFNE01.JPG,AFNE01.JPG,AFNE01.JPG,0,7,7,0,,,,,,,,,,,,,,,,,,,,,,,AMSA17.jpg,AMSA14.jpg,AMNE16.jpg,AMNE10.jpg,AMNE10.jpg,MN,1,num_4,16,num_4,0.566786559066,,,2017_Dec_01_1327,59.9996535919,MAFE4ImagesEEG,001,201963,
AFNE01.JPG,AFNE01.JPG,AFNE01.JPG,AFNE01.JPG,AFNE01.JPG,AFNE01.JPG,0,8,8,9,,,,,,,,,,,,,,,,,,,,,,,AMSA13.jpg,AMSA11.jpg,AMNE17.jpg,AMNE11.jpg,AMSA13.jpg,MS,2,num_8,16,num_8,0.65022685891,,,2017_Dec_01_1327,59.9996535919,MAFE4ImagesEEG,001,201963,
AFNE01.JPG,AFNE01.JPG,AFNE01.JPG,AFNE01.JPG,AFNE01.JPG,AFNE01.JPG,0,9,9,7,,,,,,,,,,,,,,,,,,,,,,,AMNE19.jpg,AMNE06.jpg,AMSA03.jpg,AMSA11.jpg,AMSA11.jpg,MS,2,num_4,32,num_8,0.566772125661,,,2017_Dec_01_1327,59.9996535919,MAFE4ImagesEEG,001,201963,
AFNE01.JPG,AFNE01.JPG,AFNE01.JPG,AFNE01.JPG,AFNE01.JPG,AFNE01.JPG,1,0,10,9,,,,,,,,,,,,,,,,,,,,,,,AMNE10.jpg,AMNE20.jpg,AMSA04.jpg,AMSA14.jpg,AMSA14.jpg,MS,2,num_4,32,num_8,0.950093302992,,,2017_Dec_01_1327,59.9996535919,MAFE4ImagesEEG,001,201963,
AFNE01.JPG,AFNE01.JPG,AFNE01.JPG,AFNE01.JPG,AFNE01.JPG,AFNE01.JPG,1,1,11,6,,,,,,,,,,,,,,,,,,,,,,,AMNE10.jpg,AMNE03.jpg,AMSA03.jpg,AMSA09.jpg,AMNE03.jpg,MN,1,num_6,32,num_8,2.25004410162,,,2017_Dec_01_1327,59.9996535919,MAFE4ImagesEEG,001,201963,
AFNE01.JPG,AFNE01.JPG,AFNE01.JPG,AFNE01.JPG,AFNE01.JPG,AFNE01.JPG,1,2,12,4,,,,,,,,,,,,,,,,,,,,,,,AMNE13.jpg,AMNE16.jpg,AMSA11.jpg,AMSA05.jpg,AMNE13.jpg,MN,1,num_8,32,num_2,1.91670788161,,,2017_Dec_01_1327,59.9996535919,MAFE4ImagesEEG,001,201963,
AFNE01.JPG,AFNE01.JPG,AFNE01.JPG,AFNE01.JPG,AFNE01.JPG,AFNE01.JPG,1,3,13,3,,,,,,,,,,,,,,,,,,,,,,,AMNE15.jpg,AMSA14.jpg,AMNE04.jpg,AMSA20.jpg,AMSA20.jpg,MS,2,num_4,32,num_6,0.333299014252,,,2017_Dec_01_1327,59.9996535919,MAFE4ImagesEEG,001,201963,
AFNE01.JPG,AFNE01.JPG,AFNE01.JPG,AFNE01.JPG,AFNE01.JPG,AFNE01.JPG,1,4,14,0,,,,,,,,,,,,,,,,,,,,,,,AMSA09.jpg,AMSA07.jpg,AMNE20.jpg,AMNE16.jpg,AMSA07.jpg,MS,2,num_6,32,num_2,2.03339247755,,,2017_Dec_01_1327,59.9996535919,MAFE4ImagesEEG,001,201963,
AFNE01.JPG,AFNE01.JPG,AFNE01.JPG,AFNE01.JPG,AFNE01.JPG,AFNE01.JPG,1,5,15,7,,,,,,,,,,,,,,,,,,,,,,,AMNE05.jpg,AMSA13.jpg,AMNE01.jpg,AMSA15.jpg,AMNE01.jpg,MN,1,num_2,32,num_6,1.71669139562,,,2017_Dec_01_1327,59.9996535919,MAFE4ImagesEEG,001,201963,
AFNE01.JPG,AFNE01.JPG,AFNE01.JPG,AFNE01.JPG,AFNE01.JPG,AFNE01.JPG,1,6,16,2,,,,,,,,,,,,,,,,,,,,,,,AMSA06.jpg,AMNE01.jpg,AMNE08.jpg,AMSA01.jpg,AMNE01.jpg,MN,1,num_6,32,num_2,0.683476607432,,,2017_Dec_01_1327,59.9996535919,MAFE4ImagesEEG,001,201963,
AFNE01.JPG,AFNE01.JPG,AFNE01.JPG,AFNE01.JPG,AFNE01.JPG,AFNE01.JPG,1,7,17,1,,,,,,,,,,,,,,,,,,,,,,,AMNE02.jpg,AMNE15.jpg,AMSA09.jpg,AMSA02.jpg,AMNE02.jpg,MN,1,num_8,32,num_6,0.733520260197,,,2017_Dec_01_1327,59.9996535919,MAFE4ImagesEEG,001,201963,
AFNE01.JPG,AFNE01.JPG,AFNE01.JPG,AFNE01.JPG,AFNE01.JPG,AFNE01.JPG,1,8,18,8,,,,,,,,,,,,,,,,,,,,,,,AMSA01.jpg,AMNE05.jpg,AMNE14.jpg,AMSA15.jpg,AMNE05.jpg,MN,1,num_6,32,num_8,0.600171018159,,,2017_Dec_01_1327,59.9996535919,MAFE4ImagesEEG,001,201963,
AFNE01.JPG,AFNE01.JPG,AFNE01.JPG,AFNE01.JPG,AFNE01.JPG,AFNE01.JPG,1,9,19,5,,,,,,,,,,,,,,,,,,,,,,,AMSA02.jpg,AMNE08.jpg,AMNE15.jpg,AMSA16.jpg,AMSA16.jpg,MS,2,num_4,16,num_4,0.500154596288,,,2017_Dec_01_1327,59.9996535919,MAFE4ImagesEEG,001,201963,
AFNE01.JPG,AFNE01.JPG,AFNE01.JPG,AFNE01.JPG,AFNE01.JPG,AFNE01.JPG,2,0,20,6,,,,,,,,,,,,,,,,,,,,,,,AMNE17.jpg,AMSA01.jpg,AMNE15.jpg,AMSA11.jpg,AMSA11.jpg,MS,2,num_4,32,num_2,1.29981705034,,,2017_Dec_01_1327,59.9996535919,MAFE4ImagesEEG,001,201963,
AFNE01.JPG,AFNE01.JPG,AFNE01.JPG,AFNE01.JPG,AFNE01.JPG,AFNE01.JPG,2,1,21,7,,,,,,,,,,,,,,,,,,,,,,,AMNE04.jpg,AMSA04.jpg,AMNE19.jpg,AMSA05.jpg,AMNE19.jpg,MN,1,num_2,32,num_4,0.683513171854,,,2017_Dec_01_1327,59.9996535919,MAFE4ImagesEEG,001,201963,
AFNE01.JPG,AFNE01.JPG,AFNE01.JPG,AFNE01.JPG,AFNE01.JPG,AFNE01.JPG,2,2,22,9,,,,,,,,,,,,,,,,,,,,,,,AMNE17.jpg,AMSA05.jpg,AMNE15.jpg,AMSA06.jpg,AMSA05.jpg,MS,2,num_6,32,num_4,0.566796501866,,,2017_Dec_01_1327,59.9996535919,MAFE4ImagesEEG,001,201963,
AFNE01.JPG,AFNE01.JPG,AFNE01.JPG,AFNE01.JPG,AFNE01.JPG,AFNE01.JPG,2,3,23,1,,,,,,,,,,,,,,,,,,,,,,,AMNE07.jpg,AMSA01.jpg,AMSA16.jpg,AMNE08.jpg,AMNE08.jpg,MN,1,num_4,32,num_8,0.250192603911,,,2017_Dec_01_1327,59.9996535919,MAFE4ImagesEEG,001,201963,
AFNE01.JPG,AFNE01.JPG,AFNE01.JPG,AFNE01.JPG,AFNE01.JPG,AFNE01.JPG,2,4,24,5,,,,,,,,,,,,,,,,,,,,,,,AMNE19.jpg,AMSA16.jpg,AMNE06.jpg,AMSA08.jpg,AMNE19.jpg,MN,1,num_8,32,num_6,0.583445431781,,,2017_Dec_01_1327,59.9996535919,MAFE4ImagesEEG,001,201963,
AFNE01.JPG,AFNE01.JPG,AFNE01.JPG,AFNE01.JPG,AFNE01.JPG,AFNE01.JPG,2,5,25,4,,,,,,,,,,,,,,,,,,,,,,,AMNE01.jpg,AMSA12.jpg,AMSA04.jpg,AMNE12.jpg,AMSA04.jpg,MS,2,num_2,32,num_4,0.566820557346,,,2017_Dec_01_1327,59.9996535919,MAFE4ImagesEEG,001,201963,
AFNE01.JPG,AFNE01.JPG,AFNE01.JPG,AFNE01.JPG,AFNE01.JPG,AFNE01.JPG,2,6,26,3,,,,,,,,,,,,,,,,,,,,,,,AMSA02.jpg,AMSA10.jpg,AMNE19.jpg,AMNE14.jpg,AMSA10.jpg,MS,2,num_6,32,num_8,0.500131182256,,,2017_Dec_01_1327,59.9996535919,MAFE4ImagesEEG,001,201963,
AFNE01.JPG,AFNE01.JPG,AFNE01.JPG,AFNE01.JPG,AFNE01.JPG,AFNE01.JPG,2,7,27,2,,,,,,,,,,,,,,,,,,,,,,,AMSA19.jpg,AMNE07.jpg,AMNE16.jpg,AMSA18.jpg,AMNE16.jpg,MN,1,num_2,32,num_8,0.583612216054,,,2017_Dec_01_1327,59.9996535919,MAFE4ImagesEEG,001,201963,
AFNE01.JPG,AFNE01.JPG,AFNE01.JPG,AFNE01.JPG,AFNE01.JPG,AFNE01.JPG,2,8,28,0,,,,,,,,,,,,,,,,,,,,,,,AMSA09.jpg,AMNE12.jpg,AMSA18.jpg,AMNE11.jpg,AMNE11.jpg,MN,1,num_4,32,num_8,1.68346698536,,,2017_Dec_01_1327,59.9996535919,MAFE4ImagesEEG,001,201963,
AFNE01.JPG,AFNE01.JPG,AFNE01.JPG,AFNE01.JPG,AFNE01.JPG,AFNE01.JPG,2,9,29,8,,,,,,,,,,,,,,,,,,,,,,,AMNE11.jpg,AMSA13.jpg,AMSA19.jpg,AMNE05.jpg,AMNE05.jpg,MN,1,num_4,16,num_4,0.450130508747,,,2017_Dec_01_1327,59.9996535919,MAFE4ImagesEEG,001,201963,
AFNE01.JPG,AFNE01.JPG,AFNE01.JPG,AFNE01.JPG,AFNE01.JPG,AFNE01.JPG,3,0,30,8,,,,,,,,,,,,,,,,,,,,,,,AMSA07.jpg,AMNE08.jpg,AMNE15.jpg,AMSA08.jpg,AMNE15.jpg,MN,1,num_2,32,num_4,0.850076239672,,,2017_Dec_01_1327,59.9996535919,MAFE4ImagesEEG,001,201963,
AFNE01.JPG,AFNE01.JPG,AFNE01.JPG,AFNE01.JPG,AFNE01.JPG,AFNE01.JPG,3,1,31,7,,,,,,,,,,,,,,,,,,,,,,,AMNE20.jpg,AMSA03.jpg,AMNE12.jpg,AMSA04.jpg,AMNE12.jpg,MN,1,num_2,32,num_6,0.600173584069,,,2017_Dec_01_1327,59.9996535919,MAFE4ImagesEEG,001,201963,
AFNE01.JPG,AFNE01.JPG,AFNE01.JPG,AFNE01.JPG,AFNE01.JPG,AFNE01.JPG,3,2,32,5,,,,,,,,,,,,,,,,,,,,,,,AMNE06.jpg,AMNE09.jpg,AMSA17.jpg,AMSA11.jpg,AMSA11.jpg,MS,2,num_4,48,None,,,,2017_Dec_01_1327,59.9996535919,MAFE4ImagesEEG,001,201963,
AFNE01.JPG,AFNE01.JPG,AFNE01.JPG,AFNE01.JPG,AFNE01.JPG,AFNE01.JPG,3,3,33,0,,,,,,,,,,,,,,,,,,,,,,,AMNE01.jpg,AMSA04.jpg,AMSA16.jpg,AMNE15.jpg,AMSA16.jpg,MS,2,num_2,32,num_6,2.78332175466,,,2017_Dec_01_1327,59.9996535919,MAFE4ImagesEEG,001,201963,
AFNE01.JPG,AFNE01.JPG,AFNE01.JPG,AFNE01.JPG,AFNE01.JPG,AFNE01.JPG,3,4,34,2,,,,,,,,,,,,,,,,,,,,,,,AMNE01.jpg,AMSA06.jpg,AMNE15.jpg,AMSA03.jpg,AMNE01.jpg,MN,1,num_8,32,num_6,0.500129257794,,,2017_Dec_01_1327,59.9996535919,MAFE4ImagesEEG,001,201963,
AFNE01.JPG,AFNE01.JPG,AFNE01.JPG,AFNE01.JPG,AFNE01.JPG,AFNE01.JPG,3,5,35,3,,,,,,,,,,,,,,,,,,,,,,,AMSA03.jpg,AMNE08.jpg,AMSA20.jpg,AMNE03.jpg,AMNE08.jpg,MN,1,num_6,16,num_6,1.78338077071,,,2017_Dec_01_1327,59.9996535919,MAFE4ImagesEEG,001,201963,
AFNE01.JPG,AFNE01.JPG,AFNE01.JPG,AFNE01.JPG,AFNE01.JPG,AFNE01.JPG,3,6,36,1,,,,,,,,,,,,,,,,,,,,,,,AMSA07.jpg,AMNE15.jpg,AMNE11.jpg,AMSA11.jpg,AMNE15.jpg,MN,1,num_6,16,num_6,0.3501727822,,,2017_Dec_01_1327,59.9996535919,MAFE4ImagesEEG,001,201963,
AFNE01.JPG,AFNE01.JPG,AFNE01.JPG,AFNE01.JPG,AFNE01.JPG,AFNE01.JPG,3,7,37,6,,,,,,,,,,,,,,,,,,,,,,,AMSA17.jpg,AMNE19.jpg,AMNE18.jpg,AMSA02.jpg,AMSA02.jpg,MS,2,num_4,32,num_8,0.333350653178,,,2017_Dec_01_1327,59.9996535919,MAFE4ImagesEEG,001,201963,
AFNE01.JPG,AFNE01.JPG,AFNE01.JPG,AFNE01.JPG,AFNE01.JPG,AFNE01.JPG,3,8,38,4,,,,,,,,,,,,,,,,,,,,,,,AMSA15.jpg,AMNE05.jpg,AMSA20.jpg,AMNE20.jpg,AMNE05.jpg,MN,1,num_6,32,num_8,0.400132721872,,,2017_Dec_01_1327,59.9996535919,MAFE4ImagesEEG,001,201963,
AFNE01.JPG,AFNE01.JPG,AFNE01.JPG,AFNE01.JPG,AFNE01.JPG,AFNE01.JPG,3,9,39,9,,,,,,,,,,,,,,,,,,,,,,,AMSA14.jpg,AMNE06.jpg,AMNE10.jpg,AMSA11.jpg,AMNE06.jpg,MN,1,num_6,32,num_4,0.383512979373,,,2017_Dec_01_1327,59.9996535919,MAFE4ImagesEEG,001,201963,
AFNE01.JPG,AFNE01.JPG,AFNE01.JPG,AFNE01.JPG,AFNE01.JPG,AFNE01.JPG,4,0,40,2,,,,,,,,,,,,,,,,,,,,,,,AMSA20.jpg,AMNE04.jpg,AMNE10.jpg,AMSA10.jpg,AMSA20.jpg,MS,2,num_8,32,num_6,1.05009304651,,,2017_Dec_01_1327,59.9996535919,MAFE4ImagesEEG,001,201963,
AFNE01.JPG,AFNE01.JPG,AFNE01.JPG,AFNE01.JPG,AFNE01.JPG,AFNE01.JPG,4,1,41,3,,,,,,,,,,,,,,,,,,,,,,,AMSA13.jpg,AMNE13.jpg,AMNE05.jpg,AMSA07.jpg,AMNE13.jpg,MN,1,num_6,32,num_8,0.800097697065,,,2017_Dec_01_1327,59.9996535919,MAFE4ImagesEEG,001,201963,
AFNE01.JPG,AFNE01.JPG,AFNE01.JPG,AFNE01.JPG,AFNE01.JPG,AFNE01.JPG,4,2,42,5,,,,,,,,,,,,,,,,,,,,,,,AMNE08.jpg,AMNE10.jpg,AMSA07.jpg,AMSA06.jpg,AMSA07.jpg,MS,2,num_2,32,num_6,0.500188915408,,,2017_Dec_01_1327,59.9996535919,MAFE4ImagesEEG,001,201963,
AFNE01.JPG,AFNE01.JPG,AFNE01.JPG,AFNE01.JPG,AFNE01.JPG,AFNE01.JPG,4,3,43,7,,,,,,,,,,,,,,,,,,,,,,,AMNE12.jpg,AMSA01.jpg,AMSA13.jpg,AMNE19.jpg,AMNE12.jpg,MN,1,num_8,32,num_6,0.800147732487,,,2017_Dec_01_1327,59.9996535919,MAFE4ImagesEEG,001,201963,
AFNE01.JPG,AFNE01.JPG,AFNE01.JPG,AFNE01.JPG,AFNE01.JPG,AFNE01.JPG,4,4,44,1,,,,,,,,,,,,,,,,,,,,,,,AMSA16.jpg,AMNE01.jpg,AMNE19.jpg,AMSA07.jpg,AMSA07.jpg,MS,2,num_4,32,num_8,0.983434783178,,,2017_Dec_01_1327,59.9996535919,MAFE4ImagesEEG,001,201963,
AFNE01.JPG,AFNE01.JPG,AFNE01.JPG,AFNE01.JPG,AFNE01.JPG,AFNE01.JPG,4,5,45,9,,,,,,,,,,,,,,,,,,,,,,,AMSA01.jpg,AMNE15.jpg,AMSA10.jpg,AMNE13.jpg,AMSA01.jpg,MS,2,num_8,32,num_4,0.683799912687,,,2017_Dec_01_1327,59.9996535919,MAFE4ImagesEEG,001,201963,
AFNE01.JPG,AFNE01.JPG,AFNE01.JPG,AFNE01.JPG,AFNE01.JPG,AFNE01.JPG,4,6,46,8,,,,,,,,,,,,,,,,,,,,,,,AMNE07.jpg,AMSA16.jpg,AMNE16.jpg,AMSA14.jpg,AMNE07.jpg,MN,1,num_8,16,num_8,0.566824406153,,,2017_Dec_01_1327,59.9996535919,MAFE4ImagesEEG,001,201963,
AFNE01.JPG,AFNE01.JPG,AFNE01.JPG,AFNE01.JPG,AFNE01.JPG,AFNE01.JPG,4,7,47,6,,,,,,,,,,,,,,,,,,,,,,,AMNE15.jpg,AMSA03.jpg,AMSA17.jpg,AMNE03.jpg,AMSA03.jpg,MS,2,num_6,32,num_2,0.550133780343,,,2017_Dec_01_1327,59.9996535919,MAFE4ImagesEEG,001,201963,
AFNE01.JPG,AFNE01.JPG,AFNE01.JPG,AFNE01.JPG,AFNE01.JPG,AFNE01.JPG,4,8,48,4,,,,,,,,,,,,,,,,,,,,,,,AMNE04.jpg,AMSA07.jpg,AMSA19.jpg,AMNE08.jpg,AMNE08.jpg,MN,1,num_4,32,num_2,0.583440941293,,,2017_Dec_01_1327,59.9996535919,MAFE4ImagesEEG,001,201963,
AFNE01.JPG,AFNE01.JPG,AFNE01.JPG,AFNE01.JPG,AFNE01.JPG,AFNE01.JPG,4,9,49,0,,,,,,,,,,,,,,,,,,,,,,,AMNE11.jpg,AMNE12.jpg,AMSA15.jpg,AMSA01.jpg,AMNE11.jpg,MN,1,num_8,16,num_8,0.6001386235,,,2017_Dec_01_1327,59.9996535919,MAFE4ImagesEEG,001,201963,
AFNE01.JPG,AFNE01.JPG,AFNE01.JPG,AFNE01.JPG,AFNE01.JPG,AFNE01.JPG,5,0,50,3,,,,,,,,,,,,,,,,,,,,,,,AMSA17.jpg,AMNE08.jpg,AMNE17.jpg,AMSA02.jpg,AMNE17.jpg,MN,1,num_2,32,num_8,0.883469038061,,,2017_Dec_01_1327,59.9996535919,MAFE4ImagesEEG,001,201963,
AFNE01.JPG,AFNE01.JPG,AFNE01.JPG,AFNE01.JPG,AFNE01.JPG,AFNE01.JPG,5,1,51,5,,,,,,,,,,,,,,,,,,,,,,,AMSA15.jpg,AMNE16.jpg,AMSA02.jpg,AMNE06.jpg,AMNE16.jpg,MN,1,num_6,32,num_2,0.650176502881,,,2017_Dec_01_1327,59.9996535919,MAFE4ImagesEEG,001,201963,
AFNE01.JPG,AFNE01.JPG,AFNE01.JPG,AFNE01.JPG,AFNE01.JPG,AFNE01.JPG,5,2,52,2,,,,,,,,,,,,,,,,,,,,,,,AMSA18.jpg,AMNE06.jpg,AMNE16.jpg,AMSA04.jpg,AMNE06.jpg,MN,1,num_6,16,num_6,0.383479622426,,,2017_Dec_01_1327,59.9996535919,MAFE4ImagesEEG,001,201963,
AFNE01.JPG,AFNE01.JPG,AFNE01.JPG,AFNE01.JPG,AFNE01.JPG,AFNE01.JPG,5,3,53,6,,,,,,,,,,,,,,,,,,,,,,,AMNE07.jpg,AMSA06.jpg,AMNE12.jpg,AMSA08.jpg,AMSA08.jpg,MS,2,num_4,32,num_6,0.766585263074,,,2017_Dec_01_1327,59.9996535919,MAFE4ImagesEEG,001,201963,
AFNE01.JPG,AFNE01.JPG,AFNE01.JPG,AFNE01.JPG,AFNE01.JPG,AFNE01.JPG,5,4,54,1,,,,,,,,,,,,,,,,,,,,,,,AMSA15.jpg,AMNE15.jpg,AMNE20.jpg,AMSA10.jpg,AMNE20.jpg,MN,1,num_2,16,num_2,0.650202482706,,,2017_Dec_01_1327,59.9996535919,MAFE4ImagesEEG,001,201963,
AFNE01.JPG,AFNE01.JPG,AFNE01.JPG,AFNE01.JPG,AFNE01.JPG,AFNE01.JPG,5,5,55,9,,,,,,,,,,,,,,,,,,,,,,,AMSA18.jpg,AMSA05.jpg,AMNE15.jpg,AMNE18.jpg,AMSA18.jpg,MS,2,num_8,32,num_2,1.10009500303,,,2017_Dec_01_1327,59.9996535919,MAFE4ImagesEEG,001,201963,
AFNE01.JPG,AFNE01.JPG,AFNE01.JPG,AFNE01.JPG,AFNE01.JPG,AFNE01.JPG,5,6,56,7,,,,,,,,,,,,,,,,,,,,,,,AMSA04.jpg,AMNE03.jpg,AMSA19.jpg,AMNE02.jpg,AMNE03.jpg,MN,1,num_6,32,num_2,1.45006187062,,,2017_Dec_01_1327,59.9996535919,MAFE4ImagesEEG,001,201963,
AFNE01.JPG,AFNE01.JPG,AFNE01.JPG,AFNE01.JPG,AFNE01.JPG,AFNE01.JPG,5,7,57,8,,,,,,,,,,,,,,,,,,,,,,,AMNE17.jpg,AMNE02.jpg,AMSA09.jpg,AMSA17.jpg,AMSA17.jpg,MS,2,num_4,32,num_8,3.80011565855,,,2017_Dec_01_1327,59.9996535919,MAFE4ImagesEEG,001,201963,
AFNE01.JPG,AFNE01.JPG,AFNE01.JPG,AFNE01.JPG,AFNE01.JPG,AFNE01.JPG,5,8,58,0,,,,,,,,,,,,,,,,,,,,,,,AMNE19.jpg,AMSA20.jpg,AMNE02.jpg,AMSA18.jpg,AMSA18.jpg,MS,2,num_4,16,num_4,0.400184040074,,,2017_Dec_01_1327,59.9996535919,MAFE4ImagesEEG,001,201963,
AFNE01.JPG,AFNE01.JPG,AFNE01.JPG,AFNE01.JPG,AFNE01.JPG,AFNE01.JPG,5,9,59,4,,,,,,,,,,,,,,,,,,,,,,,AMSA04.jpg,AMNE04.jpg,AMSA07.jpg,AMNE09.jpg,AMNE04.jpg,MN,1,num_6,32,num_8,0.68346217426,,,2017_Dec_01_1327,59.9996535919,MAFE4ImagesEEG,001,201963,
,,,,,,,,,,,,,,,,,,,,,,,,,,,,,,,,,,,,,,,,,,,space,3.39991205337,2017_Dec_01_1327,59.9996535919,MAFE4ImagesEEG,001,201963,
AFNE01.JPG,AFNE01.JPG,AFNE01.JPG,AFNE01.JPG,AFNE01.JPG,AFNE01.JPG,,,,,0,0,0,2,,,,,,,,,,,,,,,,,,,AFNE03.jpg,AFNE17.jpg,AFSA20.jpg,AFSA17.jpg,AFSA20.jpg,FS,4,num_2,32,num_6,0.516826619278,,,2017_Dec_01_1327,59.9996535919,MAFE4ImagesEEG,001,201963,
AFNE01.JPG,AFNE01.JPG,AFNE01.JPG,AFNE01.JPG,AFNE01.JPG,AFNE01.JPG,,,,,0,1,1,7,,,,,,,,,,,,,,,,,,,AFSA19.jpg,AFSA04.jpg,AFNE15.jpg,AFNE18.jpg,AFNE18.jpg,FN,3,num_4,32,num_2,0.600169735146,,,2017_Dec_01_1327,59.9996535919,MAFE4ImagesEEG,001,201963,
AFNE01.JPG,AFNE01.JPG,AFNE01.JPG,AFNE01.JPG,AFNE01.JPG,AFNE01.JPG,,,,,0,2,2,8,,,,,,,,,,,,,,,,,,,AFSA06.jpg,AFSA07.jpg,AFNE05.jpg,AFNE18.jpg,AFSA06.jpg,FS,4,num_8,32,num_6,0.816773248254,,,2017_Dec_01_1327,59.9996535919,MAFE4ImagesEEG,001,201963,
AFNE01.JPG,AFNE01.JPG,AFNE01.JPG,AFNE01.JPG,AFNE01.JPG,AFNE01.JPG,,,,,0,3,3,6,,,,,,,,,,,,,,,,,,,AFNE18.jpg,AFSA10.jpg,AFSA11.jpg,AFNE14.jpg,AFSA11.jpg,FS,4,num_2,32,num_6,0.616804231657,,,2017_Dec_01_1327,59.9996535919,MAFE4ImagesEEG,001,201963,
AFNE01.JPG,AFNE01.JPG,AFNE01.JPG,AFNE01.JPG,AFNE01.JPG,AFNE01.JPG,,,,,0,4,4,9,,,,,,,,,,,,,,,,,,,AFSA03.jpg,AFNE07.jpg,AFNE13.jpg,AFSA02.jpg,AFNE07.jpg,FN,3,num_6,16,num_6,0.783323037555,,,2017_Dec_01_1327,59.9996535919,MAFE4ImagesEEG,001,201963,
AFNE01.JPG,AFNE01.JPG,AFNE01.JPG,AFNE01.JPG,AFNE01.JPG,AFNE01.JPG,,,,,0,5,5,1,,,,,,,,,,,,,,,,,,,AFSA08.jpg,AFNE07.jpg,AFNE20.jpg,AFSA02.jpg,AFSA02.jpg,FS,4,num_4,16,num_4,0.566789766424,,,2017_Dec_01_1327,59.9996535919,MAFE4ImagesEEG,001,201963,
AFNE01.JPG,AFNE01.JPG,AFNE01.JPG,AFNE01.JPG,AFNE01.JPG,AFNE01.JPG,,,,,0,6,6,5,,,,,,,,,,,,,,,,,,,AFSA19.jpg,AFSA17.jpg,AFNE09.jpg,AFNE14.jpg,AFNE14.jpg,FN,3,num_4,32,num_2,0.933566254214,,,2017_Dec_01_1327,59.9996535919,MAFE4ImagesEEG,001,201963,
AFNE01.JPG,AFNE01.JPG,AFNE01.JPG,AFNE01.JPG,AFNE01.JPG,AFNE01.JPG,,,,,0,7,7,4,,,,,,,,,,,,,,,,,,,AFNE05.jpg,AFSA09.jpg,AFSA05.jpg,AFNE09.jpg,AFSA09.jpg,FS,4,num_6,32,num_2,1.20036673313,,,2017_Dec_01_1327,59.9996535919,MAFE4ImagesEEG,001,201963,
AFNE01.JPG,AFNE01.JPG,AFNE01.JPG,AFNE01.JPG,AFNE01.JPG,AFNE01.JPG,,,,,0,8,8,3,,,,,,,,,,,,,,,,,,,AFNE19.jpg,AFSA06.jpg,AFSA18.jpg,AFNE20.jpg,AFNE19.jpg,FN,3,num_8,32,num_2,1.1834554387,,,2017_Dec_01_1327,59.9996535919,MAFE4ImagesEEG,001,201963,
AFNE01.JPG,AFNE01.JPG,AFNE01.JPG,AFNE01.JPG,AFNE01.JPG,AFNE01.JPG,,,,,0,9,9,0,,,,,,,,,,,,,,,,,,,AFNE09.jpg,AFNE06.jpg,AFSA13.jpg,AFSA14.jpg,AFNE09.jpg,FN,3,num_8,32,num_4,1.03349607647,,,2017_Dec_01_1327,59.9996535919,MAFE4ImagesEEG,001,201963,
AFNE01.JPG,AFNE01.JPG,AFNE01.JPG,AFNE01.JPG,AFNE01.JPG,AFNE01.JPG,,,,,1,0,10,8,,,,,,,,,,,,,,,,,,,AFSA09.jpg,AFNE09.jpg,AFNE12.jpg,AFSA14.jpg,AFSA14.jpg,FS,4,num_4,32,num_8,0.950125376927,,,2017_Dec_01_1327,59.9996535919,MAFE4ImagesEEG,001,201963,
AFNE01.JPG,AFNE01.JPG,AFNE01.JPG,AFNE01.JPG,AFNE01.JPG,AFNE01.JPG,,,,,1,1,11,1,,,,,,,,,,,,,,,,,,,AFNE03.jpg,AFSA19.jpg,AFNE13.jpg,AFSA18.jpg,AFNE13.jpg,FN,3,num_2,32,num_6,0.616851701052,,,2017_Dec_01_1327,59.9996535919,MAFE4ImagesEEG,001,201963,
AFNE01.JPG,AFNE01.JPG,AFNE01.JPG,AFNE01.JPG,AFNE01.JPG,AFNE01.JPG,,,,,1,2,12,7,,,,,,,,,,,,,,,,,,,AFSA17.jpg,AFNE05.jpg,AFSA18.jpg,AFNE03.jpg,AFSA17.jpg,FS,4,num_8,32,num_4,0.55015623197,,,2017_Dec_01_1327,59.9996535919,MAFE4ImagesEEG,001,201963,
AFNE01.JPG,AFNE01.JPG,AFNE01.JPG,AFNE01.JPG,AFNE01.JPG,AFNE01.JPG,,,,,1,3,13,2,,,,,,,,,,,,,,,,,,,AFSA05.jpg,AFSA18.jpg,AFNE11.jpg,AFNE04.jpg,AFSA05.jpg,FS,4,num_8,32,num_4,0.300150939962,,,2017_Dec_01_1327,59.9996535919,MAFE4ImagesEEG,001,201963,
AFNE01.JPG,AFNE01.JPG,AFNE01.JPG,AFNE01.JPG,AFNE01.JPG,AFNE01.JPG,,,,,1,4,14,5,,,,,,,,,,,,,,,,,,,AFNE14.jpg,AFSA01.jpg,AFSA03.jpg,AFNE08.jpg,AFNE08.jpg,FN,3,num_4,32,num_2,0.583544860827,,,2017_Dec_01_1327,59.9996535919,MAFE4ImagesEEG,001,201963,
AFNE01.JPG,AFNE01.JPG,AFNE01.JPG,AFNE01.JPG,AFNE01.JPG,AFNE01.JPG,,,,,1,5,15,0,,,,,,,,,,,,,,,,,,,AFSA17.jpg,AFNE18.jpg,AFSA07.jpg,AFNE10.jpg,AFSA07.jpg,FS,4,num_2,32,num_8,0.566798747052,,,2017_Dec_01_1327,59.9996535919,MAFE4ImagesEEG,001,201963,
AFNE01.JPG,AFNE01.JPG,AFNE01.JPG,AFNE01.JPG,AFNE01.JPG,AFNE01.JPG,,,,,1,6,16,9,,,,,,,,,,,,,,,,,,,AFSA16.jpg,AFNE07.jpg,AFNE08.jpg,AFSA06.jpg,AFSA06.jpg,FS,4,num_4,32,num_6,0.533228579909,,,2017_Dec_01_1327,59.9996535919,MAFE4ImagesEEG,001,201963,
AFNE01.JPG,AFNE01.JPG,AFNE01.JPG,AFNE01.JPG,AFNE01.JPG,AFNE01.JPG,,,,,1,7,17,3,,,,,,,,,,,,,,,,,,,AFSA19.jpg,AFNE14.jpg,AFSA04.jpg,AFNE18.jpg,AFNE14.jpg,FN,3,num_6,32,num_8,0.933453674661,,,2017_Dec_01_1327,59.9996535919,MAFE4ImagesEEG,001,201963,
AFNE01.JPG,AFNE01.JPG,AFNE01.JPG,AFNE01.JPG,AFNE01.JPG,AFNE01.JPG,,,,,1,8,18,4,,,,,,,,,,,,,,,,,,,AFNE06.jpg,AFSA20.jpg,AFNE16.jpg,AFSA04.jpg,AFNE06.jpg,FN,3,num_8,32,num_6,0.61681577831,,,2017_Dec_01_1327,59.9996535919,MAFE4ImagesEEG,001,201963,
AFNE01.JPG,AFNE01.JPG,AFNE01.JPG,AFNE01.JPG,AFNE01.JPG,AFNE01.JPG,,,,,1,9,19,6,,,,,,,,,,,,,,,,,,,AFSA18.jpg,AFNE14.jpg,AFNE19.jpg,AFSA07.jpg,AFNE19.jpg,FN,3,num_2,16,num_2,0.833533795318,,,2017_Dec_01_1327,59.9996535919,MAFE4ImagesEEG,001,201963,
AFNE01.JPG,AFNE01.JPG,AFNE01.JPG,AFNE01.JPG,AFNE01.JPG,AFNE01.JPG,,,,,2,0,20,3,,,,,,,,,,,,,,,,,,,AFNE07.jpg,AFNE13.jpg,AFSA02.jpg,AFSA06.jpg,AFNE07.jpg,FN,3,num_8,16,num_8,1.65013063711,,,2017_Dec_01_1327,59.9996535919,MAFE4ImagesEEG,001,201963,
AFNE01.JPG,AFNE01.JPG,AFNE01.JPG,AFNE01.JPG,AFNE01.JPG,AFNE01.JPG,,,,,2,1,21,4,,,,,,,,,,,,,,,,,,,AFSA07.jpg,AFNE16.jpg,AFNE18.jpg,AFSA08.jpg,AFSA07.jpg,FS,4,num_8,16,num_8,0.916741238558,,,2017_Dec_01_1327,59.9996535919,MAFE4ImagesEEG,001,201963,
AFNE01.JPG,AFNE01.JPG,AFNE01.JPG,AFNE01.JPG,AFNE01.JPG,AFNE01.JPG,,,,,2,2,22,7,,,,,,,,,,,,,,,,,,,AFSA11.jpg,AFNE03.jpg,AFNE01.jpg,AFSA13.jpg,AFNE01.jpg,FN,3,num_2,32,num_8,0.716834445368,,,2017_Dec_01_1327,59.9996535919,MAFE4ImagesEEG,001,201963,
AFNE01.JPG,AFNE01.JPG,AFNE01.JPG,AFNE01.JPG,AFNE01.JPG,AFNE01.JPG,,,,,2,3,23,2,,,,,,,,,,,,,,,,,,,AFNE11.jpg,AFNE07.jpg,AFSA20.jpg,AFSA17.jpg,AFNE11.jpg,FN,3,num_8,16,num_8,1.55015815655,,,2017_Dec_01_1327,59.9996535919,MAFE4ImagesEEG,001,201963,
AFNE01.JPG,AFNE01.JPG,AFNE01.JPG,AFNE01.JPG,AFNE01.JPG,AFNE01.JPG,,,,,2,4,24,8,,,,,,,,,,,,,,,,,,,AFSA14.jpg,AFNE11.jpg,AFSA12.jpg,AFNE13.jpg,AFNE11.jpg,FN,3,num_6,32,num_8,1.38346743432,,,2017_Dec_01_1327,59.9996535919,MAFE4ImagesEEG,001,201963,
AFNE01.JPG,AFNE01.JPG,AFNE01.JPG,AFNE01.JPG,AFNE01.JPG,AFNE01.JPG,,,,,2,5,25,5,,,,,,,,,,,,,,,,,,,AFSA14.jpg,AFNE08.jpg,AFSA05.jpg,AFNE06.jpg,AFNE08.jpg,FN,3,num_6,16,num_6,0.850093559711,,,2017_Dec_01_1327,59.9996535919,MAFE4ImagesEEG,001,201963,
AFNE01.JPG,AFNE01.JPG,AFNE01.JPG,AFNE01.JPG,AFNE01.JPG,AFNE01.JPG,,,,,2,6,26,0,,,,,,,,,,,,,,,,,,,AFSA03.jpg,AFSA11.jpg,AFNE15.jpg,AFNE12.jpg,AFSA03.jpg,FS,4,num_8,16,num_8,0.966765967547,,,2017_Dec_01_1327,59.9996535919,MAFE4ImagesEEG,001,201963,
AFNE01.JPG,AFNE01.JPG,AFNE01.JPG,AFNE01.JPG,AFNE01.JPG,AFNE01.JPG,,,,,2,7,27,1,,,,,,,,,,,,,,,,,,,AFSA12.jpg,AFNE16.jpg,AFSA04.jpg,AFNE02.jpg,AFSA12.jpg,FS,4,num_8,16,num_8,0.683160679531,,,2017_Dec_01_1327,59.9996535919,MAFE4ImagesEEG,001,201963,
AFNE01.JPG,AFNE01.JPG,AFNE01.JPG,AFNE01.JPG,AFNE01.JPG,AFNE01.JPG,,,,,2,8,28,9,,,,,,,,,,,,,,,,,,,AFNE02.jpg,AFNE03.jpg,AFSA11.jpg,AFSA13.jpg,AFNE02.jpg,FN,3,num_8,16,num_8,0.900084290188,,,2017_Dec_01_1327,59.9996535919,MAFE4ImagesEEG,001,201963,
AFNE01.JPG,AFNE01.JPG,AFNE01.JPG,AFNE01.JPG,AFNE01.JPG,AFNE01.JPG,,,,,2,9,29,6,,,,,,,,,,,,,,,,,,,AFSA13.jpg,AFNE19.jpg,AFNE11.jpg,AFSA03.jpg,AFSA03.jpg,FS,4,num_4,32,num_2,2.10001930851,,,2017_Dec_01_1327,59.9996535919,MAFE4ImagesEEG,001,201963,
AFNE01.JPG,AFNE01.JPG,AFNE01.JPG,AFNE01.JPG,AFNE01.JPG,AFNE01.JPG,,,,,3,0,30,4,,,,,,,,,,,,,,,,,,,AFNE19.jpg,AFNE11.jpg,AFSA17.jpg,AFSA09.jpg,AFSA17.jpg,FS,4,num_2,32,num_8,0.900157739641,,,2017_Dec_01_1327,59.9996535919,MAFE4ImagesEEG,001,201963,
AFNE01.JPG,AFNE01.JPG,AFNE01.JPG,AFNE01.JPG,AFNE01.JPG,AFNE01.JPG,,,,,3,1,31,5,,,,,,,,,,,,,,,,,,,AFSA08.jpg,AFNE05.jpg,AFSA19.jpg,AFNE19.jpg,AFNE19.jpg,FN,3,num_4,16,num_4,0.616762535647,,,2017_Dec_01_1327,59.9996535919,MAFE4ImagesEEG,001,201963,
AFNE01.JPG,AFNE01.JPG,AFNE01.JPG,AFNE01.JPG,AFNE01.JPG,AFNE01.JPG,,,,,3,2,32,8,,,,,,,,,,,,,,,,,,,AFSA15.jpg,AFSA16.jpg,AFNE14.jpg,AFNE11.jpg,AFNE14.jpg,FN,3,num_2,16,num_2,1.06673395773,,,2017_Dec_01_1327,59.9996535919,MAFE4ImagesEEG,001,201963,
AFNE01.JPG,AFNE01.JPG,AFNE01.JPG,AFNE01.JPG,AFNE01.JPG,AFNE01.JPG,,,,,3,3,33,9,,,,,,,,,,,,,,,,,,,AFSA17.jpg,AFSA08.jpg,AFNE13.jpg,AFNE05.jpg,AFSA08.jpg,FS,4,num_6,32,num_8,0.500200141221,,,2017_Dec_01_1327,59.9996535919,MAFE4ImagesEEG,001,201963,
AFNE01.JPG,AFNE01.JPG,AFNE01.JPG,AFNE01.JPG,AFNE01.JPG,AFNE01.JPG,,,,,3,4,34,2,,,,,,,,,,,,,,,,,,,AFNE20.jpg,AFSA10.jpg,AFNE02.jpg,AFSA15.jpg,AFNE02.jpg,FN,3,num_2,32,num_8,1.43342769484,,,2017_Dec_01_1327,59.9996535919,MAFE4ImagesEEG,001,201963,
AFNE01.JPG,AFNE01.JPG,AFNE01.JPG,AFNE01.JPG,AFNE01.JPG,AFNE01.JPG,,,,,3,5,35,6,,,,,,,,,,,,,,,,,,,AFSA19.jpg,AFSA11.jpg,AFNE15.jpg,AFNE14.jpg,AFSA11.jpg,FS,4,num_6,16,num_6,0.85019651684,,,2017_Dec_01_1327,59.9996535919,MAFE4ImagesEEG,001,201963,
AFNE01.JPG,AFNE01.JPG,AFNE01.JPG,AFNE01.JPG,AFNE01.JPG,AFNE01.JPG,,,,,3,6,36,1,,,,,,,,,,,,,,,,,,,AFSA05.jpg,AFSA06.jpg,AFNE16.jpg,AFNE02.jpg,AFNE16.jpg,FN,3,num_2,16,num_2,1.10010109702,,,2017_Dec_01_1327,59.9996535919,MAFE4ImagesEEG,001,201963,
AFNE01.JPG,AFNE01.JPG,AFNE01.JPG,AFNE01.JPG,AFNE01.JPG,AFNE01.JPG,,,,,3,7,37,7,,,,,,,,,,,,,,,,,,,AFNE16.jpg,AFNE13.jpg,AFSA13.jpg,AFSA15.jpg,AFSA13.jpg,FS,4,num_2,32,num_8,3.11659061932,,,2017_Dec_01_1327,59.9996535919,MAFE4ImagesEEG,001,201963,
AFNE01.JPG,AFNE01.JPG,AFNE01.JPG,AFNE01.JPG,AFNE01.JPG,AFNE01.JPG,,,,,3,8,38,3,,,,,,,,,,,,,,,,,,,AFNE02.jpg,AFSA08.jpg,AFNE07.jpg,AFSA04.jpg,AFSA08.jpg,FS,4,num_6,32,num_8,0.983388917521,,,2017_Dec_01_1327,59.9996535919,MAFE4ImagesEEG,001,201963,
AFNE01.JPG,AFNE01.JPG,AFNE01.JPG,AFNE01.JPG,AFNE01.JPG,AFNE01.JPG,,,,,3,9,39,0,,,,,,,,,,,,,,,,,,,AFSA13.jpg,AFNE02.jpg,AFNE12.jpg,AFSA14.jpg,AFSA13.jpg,FS,4,num_8,32,num_6,2.39999929431,,,2017_Dec_01_1327,59.9996535919,MAFE4ImagesEEG,001,201963,
AFNE01.JPG,AFNE01.JPG,AFNE01.JPG,AFNE01.JPG,AFNE01.JPG,AFNE01.JPG,,,,,4,0,40,4,,,,,,,,,,,,,,,,,,,AFSA12.jpg,AFNE13.jpg,AFNE05.jpg,AFSA10.jpg,AFNE05.jpg,FN,3,num_2,32,num_4,0.61680294876,,,2017_Dec_01_1327,59.9996535919,MAFE4ImagesEEG,001,201963,
AFNE01.JPG,AFNE01.JPG,AFNE01.JPG,AFNE01.JPG,AFNE01.JPG,AFNE01.JPG,,,,,4,1,41,3,,,,,,,,,,,,,,,,,,,AFSA01.jpg,AFSA11.jpg,AFNE18.jpg,AFNE15.jpg,AFNE18.jpg,FN,3,num_2,32,num_4,1.01678845123,,,2017_Dec_01_1327,59.9996535919,MAFE4ImagesEEG,001,201963,
AFNE01.JPG,AFNE01.JPG,AFNE01.JPG,AFNE01.JPG,AFNE01.JPG,AFNE01.JPG,,,,,4,2,42,6,,,,,,,,,,,,,,,,,,,AFSA02.jpg,AFSA17.jpg,AFNE11.jpg,AFNE02.jpg,AFSA02.jpg,FS,4,num_8,32,num_4,0.616786911851,,,2017_Dec_01_1327,59.9996535919,MAFE4ImagesEEG,001,201963,
AFNE01.JPG,AFNE01.JPG,AFNE01.JPG,AFNE01.JPG,AFNE01.JPG,AFNE01.JPG,,,,,4,3,43,8,,,,,,,,,,,,,,,,,,,AFNE05.jpg,AFNE03.jpg,AFSA03.jpg,AFSA11.jpg,AFNE03.jpg,FN,3,num_6,32,num_8,0.983428368345,,,2017_Dec_01_1327,59.9996535919,MAFE4ImagesEEG,001,201963,
AFNE01.JPG,AFNE01.JPG,AFNE01.JPG,AFNE01.JPG,AFNE01.JPG,AFNE01.JPG,,,,,4,4,44,0,,,,,,,,,,,,,,,,,,,AFSA10.jpg,AFNE17.jpg,AFSA05.jpg,AFNE12.jpg,AFSA10.jpg,FS,4,num_8,32,num_6,0.350138142356,,,2017_Dec_01_1327,59.9996535919,MAFE4ImagesEEG,001,201963,
AFNE01.JPG,AFNE01.JPG,AFNE01.JPG,AFNE01.JPG,AFNE01.JPG,AFNE01.JPG,,,,,4,5,45,2,,,,,,,,,,,,,,,,,,,AFSA17.jpg,AFNE06.jpg,AFSA02.jpg,AFNE19.jpg,AFSA02.jpg,FS,4,num_2,32,num_8,1.00010295724,,,2017_Dec_01_1327,59.9996535919,MAFE4ImagesEEG,001,201963,
AFNE01.JPG,AFNE01.JPG,AFNE01.JPG,AFNE01.JPG,AFNE01.JPG,AFNE01.JPG,,,,,4,6,46,7,,,,,,,,,,,,,,,,,,,AFNE17.jpg,AFNE19.jpg,AFSA04.jpg,AFSA08.jpg,AFSA08.jpg,FS,4,num_4,32,num_6,0.833435328328,,,2017_Dec_01_1327,59.9996535919,MAFE4ImagesEEG,001,201963,
AFNE01.JPG,AFNE01.JPG,AFNE01.JPG,AFNE01.JPG,AFNE01.JPG,AFNE01.JPG,,,,,4,7,47,9,,,,,,,,,,,,,,,,,,,AFNE14.jpg,AFNE12.jpg,AFSA08.jpg,AFSA07.jpg,AFSA07.jpg,FS,4,num_4,32,num_6,0.466796437744,,,2017_Dec_01_1327,59.9996535919,MAFE4ImagesEEG,001,201963,
AFNE01.JPG,AFNE01.JPG,AFNE01.JPG,AFNE01.JPG,AFNE01.JPG,AFNE01.JPG,,,,,4,8,48,1,,,,,,,,,,,,,,,,,,,AFNE20.jpg,AFNE11.jpg,AFSA19.jpg,AFSA06.jpg,AFSA06.jpg,FS,4,num_4,32,num_8,1.01675092487,,,2017_Dec_01_1327,59.9996535919,MAFE4ImagesEEG,001,201963,
AFNE01.JPG,AFNE01.JPG,AFNE01.JPG,AFNE01.JPG,AFNE01.JPG,AFNE01.JPG,,,,,4,9,49,5,,,,,,,,,,,,,,,,,,,AFSA11.jpg,AFNE06.jpg,AFNE13.jpg,AFSA07.jpg,AFNE13.jpg,FN,3,num_2,32,num_4,0.316899940372,,,2017_Dec_01_1327,59.9996535919,MAFE4ImagesEEG,001,201963,
AFNE01.JPG,AFNE01.JPG,AFNE01.JPG,AFNE01.JPG,AFNE01.JPG,AFNE01.JPG,,,,,5,0,50,7,,,,,,,,,,,,,,,,,,,AFSA09.jpg,AFNE19.jpg,AFSA20.jpg,AFNE14.jpg,AFNE19.jpg,FN,3,num_6,16,num_6,0.58349803288,,,2017_Dec_01_1327,59.9996535919,MAFE4ImagesEEG,001,201963,
AFNE01.JPG,AFNE01.JPG,AFNE01.JPG,AFNE01.JPG,AFNE01.JPG,AFNE01.JPG,,,,,5,1,51,0,,,,,,,,,,,,,,,,,,,AFSA18.jpg,AFSA02.jpg,AFNE03.jpg,AFNE12.jpg,AFNE03.jpg,FN,3,num_2,16,num_2,2.28333522566,,,2017_Dec_01_1327,59.9996535919,MAFE4ImagesEEG,001,201963,
AFNE01.JPG,AFNE01.JPG,AFNE01.JPG,AFNE01.JPG,AFNE01.JPG,AFNE01.JPG,,,,,5,2,52,4,,,,,,,,,,,,,,,,,,,AFSA08.jpg,AFSA14.jpg,AFNE07.jpg,AFNE14.jpg,AFSA14.jpg,FS,4,num_6,32,num_4,4.09987433441,,,2017_Dec_01_1327,59.9996535919,MAFE4ImagesEEG,001,201963,
AFNE01.JPG,AFNE01.JPG,AFNE01.JPG,AFNE01.JPG,AFNE01.JPG,AFNE01.JPG,,,,,5,3,53,8,,,,,,,,,,,,,,,,,,,AFSA09.jpg,AFSA10.jpg,AFNE02.jpg,AFNE20.jpg,AFNE20.jpg,FN,3,num_4,32,num_6,0.283500085585,,,2017_Dec_01_1327,59.9996535919,MAFE4ImagesEEG,001,201963,
AFNE01.JPG,AFNE01.JPG,AFNE01.JPG,AFNE01.JPG,AFNE01.JPG,AFNE01.JPG,,,,,5,4,54,6,,,,,,,,,,,,,,,,,,,AFNE18.jpg,AFSA05.jpg,AFSA08.jpg,AFNE13.jpg,AFSA08.jpg,FS,4,num_2,32,num_6,0.683501625201,,,2017_Dec_01_1327,59.9996535919,MAFE4ImagesEEG,001,201963,
AFNE01.JPG,AFNE01.JPG,AFNE01.JPG,AFNE01.JPG,AFNE01.JPG,AFNE01.JPG,,,,,5,5,55,9,,,,,,,,,,,,,,,,,,,AFNE13.jpg,AFNE17.jpg,AFSA03.jpg,AFSA16.jpg,AFSA16.jpg,FS,4,num_4,32,num_8,0.616645786562,,,2017_Dec_01_1327,59.9996535919,MAFE4ImagesEEG,001,201963,
AFNE01.JPG,AFNE01.JPG,AFNE01.JPG,AFNE01.JPG,AFNE01.JPG,AFNE01.JPG,,,,,5,6,56,3,,,,,,,,,,,,,,,,,,,AFNE20.jpg,AFSA15.jpg,AFSA16.jpg,AFNE05.jpg,AFSA15.jpg,FS,4,num_6,16,num_6,0.783467690926,,,2017_Dec_01_1327,59.9996535919,MAFE4ImagesEEG,001,201963,
AFNE01.JPG,AFNE01.JPG,AFNE01.JPG,AFNE01.JPG,AFNE01.JPG,AFNE01.JPG,,,,,5,7,57,5,,,,,,,,,,,,,,,,,,,AFNE09.jpg,AFNE08.jpg,AFSA13.jpg,AFSA04.jpg,AFNE08.jpg,FN,3,num_6,32,num_8,0.883460698882,,,2017_Dec_01_1327,59.9996535919,MAFE4ImagesEEG,001,201963,
AFNE01.JPG,AFNE01.JPG,AFNE01.JPG,AFNE01.JPG,AFNE01.JPG,AFNE01.JPG,,,,,5,8,58,1,,,,,,,,,,,,,,,,,,,AFNE20.jpg,AFNE06.jpg,AFSA04.jpg,AFSA20.jpg,AFNE06.jpg,FN,3,num_6,32,num_8,3.53324974875,,,2017_Dec_01_1327,59.9996535919,MAFE4ImagesEEG,001,201963,
AFNE01.JPG,AFNE01.JPG,AFNE01.JPG,AFNE01.JPG,AFNE01.JPG,AFNE01.JPG,,,,,5,9,59,2,,,,,,,,,,,,,,,,,,,AFSA16.jpg,AFNE17.jpg,AFSA12.jpg,AFNE07.jpg,AFSA16.jpg,FS,4,num_8,16,num_8,0.966836850857,,,2017_Dec_01_1327,59.9996535919,MAFE4ImagesEEG,001,201963,
,,,,,,,,,,,,,,,,,,,,,,,,,,,,,,,,,,,,,,,,,,,space,1.38338211772,2017_Dec_01_1327,59.9996535919,MAFE4ImagesEEG,001,201963,
AFNE01.JPG,AFNE01.JPG,AFNE01.JPG,AFNE01.JPG,AFNE01.JPG,AFNE01.JPG,,,,,,,,,0,0,0,9,,,,,,,,,,,,,,,AMNE04.jpg,AMSA11.jpg,AMNE05.jpg,AMSA20.jpg,AMSA20.jpg,MS,2,num_4,16,num_4,0.73347311141,,,2017_Dec_01_1327,59.9996535919,MAFE4ImagesEEG,001,201963,
AFNE01.JPG,AFNE01.JPG,AFNE01.JPG,AFNE01.JPG,AFNE01.JPG,AFNE01.JPG,,,,,,,,,0,1,1,5,,,,,,,,,,,,,,,AMSA04.jpg,AMSA19.jpg,AMNE11.jpg,AMNE20.jpg,AMSA19.jpg,MS,2,num_6,32,num_4,0.766772574745,,,2017_Dec_01_1327,59.9996535919,MAFE4ImagesEEG,001,201963,
AFNE01.JPG,AFNE01.JPG,AFNE01.JPG,AFNE01.JPG,AFNE01.JPG,AFNE01.JPG,,,,,,,,,0,2,2,7,,,,,,,,,,,,,,,AMSA01.jpg,AMNE01.jpg,AMSA08.jpg,AMNE09.jpg,AMSA01.jpg,MS,2,num_8,16,num_8,0.366788355168,,,2017_Dec_01_1327,59.9996535919,MAFE4ImagesEEG,001,201963,
AFNE01.JPG,AFNE01.JPG,AFNE01.JPG,AFNE01.JPG,AFNE01.JPG,AFNE01.JPG,,,,,,,,,0,3,3,3,,,,,,,,,,,,,,,AMSA14.jpg,AMSA12.jpg,AMNE01.jpg,AMNE03.jpg,AMSA12.jpg,MS,2,num_6,32,num_8,0.683553584968,,,2017_Dec_01_1327,59.9996535919,MAFE4ImagesEEG,001,201963,
AFNE01.JPG,AFNE01.JPG,AFNE01.JPG,AFNE01.JPG,AFNE01.JPG,AFNE01.JPG,,,,,,,,,0,4,4,0,,,,,,,,,,,,,,,AMSA03.jpg,AMNE14.jpg,AMNE09.jpg,AMSA18.jpg,AMNE09.jpg,MN,1,num_2,16,num_2,1.35008842777,,,2017_Dec_01_1327,59.9996535919,MAFE4ImagesEEG,001,201963,
AFNE01.JPG,AFNE01.JPG,AFNE01.JPG,AFNE01.JPG,AFNE01.JPG,AFNE01.JPG,,,,,,,,,0,5,5,8,,,,,,,,,,,,,,,AMSA03.jpg,AMNE17.jpg,AMNE15.jpg,AMSA01.jpg,AMNE15.jpg,MN,1,num_2,16,num_2,0.616860361071,,,2017_Dec_01_1327,59.9996535919,MAFE4ImagesEEG,001,201963,
AFNE01.JPG,AFNE01.JPG,AFNE01.JPG,AFNE01.JPG,AFNE01.JPG,AFNE01.JPG,,,,,,,,,0,6,6,6,,,,,,,,,,,,,,,AMSA13.jpg,AMSA03.jpg,AMNE01.jpg,AMNE07.jpg,AMSA13.jpg,MS,2,num_8,32,num_4,1.33346291201,,,2017_Dec_01_1327,59.9996535919,MAFE4ImagesEEG,001,201963,
AFNE01.JPG,AFNE01.JPG,AFNE01.JPG,AFNE01.JPG,AFNE01.JPG,AFNE01.JPG,,,,,,,,,0,7,7,4,,,,,,,,,,,,,,,AMSA17.jpg,AMSA08.jpg,AMNE13.jpg,AMNE16.jpg,AMNE13.jpg,MN,1,num_2,32,num_4,0.533458229154,,,2017_Dec_01_1327,59.9996535919,MAFE4ImagesEEG,001,201963,
AFNE01.JPG,AFNE01.JPG,AFNE01.JPG,AFNE01.JPG,AFNE01.JPG,AFNE01.JPG,,,,,,,,,0,8,8,1,,,,,,,,,,,,,,,AMNE08.jpg,AMNE20.jpg,AMSA07.jpg,AMSA04.jpg,AMSA04.jpg,MS,2,num_4,16,num_4,0.600224902388,,,2017_Dec_01_1327,59.9996535919,MAFE4ImagesEEG,001,201963,
AFNE01.JPG,AFNE01.JPG,AFNE01.JPG,AFNE01.JPG,AFNE01.JPG,AFNE01.JPG,,,,,,,,,0,9,9,2,,,,,,,,,,,,,,,AMSA12.jpg,AMNE01.jpg,AMNE06.jpg,AMSA14.jpg,AMNE06.jpg,MN,1,num_2,32,num_8,0.783474426484,,,2017_Dec_01_1327,59.9996535919,MAFE4ImagesEEG,001,201963,
AFNE01.JPG,AFNE01.JPG,AFNE01.JPG,AFNE01.JPG,AFNE01.JPG,AFNE01.JPG,,,,,,,,,1,0,10,1,,,,,,,,,,,,,,,AMSA05.jpg,AMNE17.jpg,AMSA13.jpg,AMNE06.jpg,AMNE17.jpg,MN,1,num_6,32,num_4,2.08306888386,,,2017_Dec_01_1327,59.9996535919,MAFE4ImagesEEG,001,201963,
AFNE01.JPG,AFNE01.JPG,AFNE01.JPG,AFNE01.JPG,AFNE01.JPG,AFNE01.JPG,,,,,,,,,1,1,11,5,,,,,,,,,,,,,,,AMSA20.jpg,AMSA02.jpg,AMNE18.jpg,AMNE07.jpg,AMNE07.jpg,MN,1,num_4,32,num_2,0.783314698376,,,2017_Dec_01_1327,59.9996535919,MAFE4ImagesEEG,001,201963,
AFNE01.JPG,AFNE01.JPG,AFNE01.JPG,AFNE01.JPG,AFNE01.JPG,AFNE01.JPG,,,,,,,,,1,2,12,3,,,,,,,,,,,,,,,AMSA08.jpg,AMSA09.jpg,AMNE06.jpg,AMNE01.jpg,AMNE06.jpg,MN,1,num_2,32,num_6,0.91677491623,,,2017_Dec_01_1327,59.9996535919,MAFE4ImagesEEG,001,201963,
AFNE01.JPG,AFNE01.JPG,AFNE01.JPG,AFNE01.JPG,AFNE01.JPG,AFNE01.JPG,,,,,,,,,1,3,13,9,,,,,,,,,,,,,,,AMNE03.jpg,AMNE01.jpg,AMSA11.jpg,AMSA02.jpg,AMNE01.jpg,MN,1,num_6,16,num_6,0.583857902209,,,2017_Dec_01_1327,59.9996535919,MAFE4ImagesEEG,001,201963,
AFNE01.JPG,AFNE01.JPG,AFNE01.JPG,AFNE01.JPG,AFNE01.JPG,AFNE01.JPG,,,,,,,,,1,4,14,2,,,,,,,,,,,,,,,AMSA13.jpg,AMSA02.jpg,AMNE02.jpg,AMNE20.jpg,AMSA02.jpg,MS,2,num_6,16,num_6,0.666771227727,,,2017_Dec_01_1327,59.9996535919,MAFE4ImagesEEG,001,201963,
AFNE01.JPG,AFNE01.JPG,AFNE01.JPG,AFNE01.JPG,AFNE01.JPG,AFNE01.JPG,,,,,,,,,1,5,15,8,,,,,,,,,,,,,,,AMSA10.jpg,AMNE02.jpg,AMSA02.jpg,AMNE01.jpg,AMSA10.jpg,MS,2,num_8,16,num_8,0.850095163332,,,2017_Dec_01_1327,59.9996535919,MAFE4ImagesEEG,001,201963,
AFNE01.JPG,AFNE01.JPG,AFNE01.JPG,AFNE01.JPG,AFNE01.JPG,AFNE01.JPG,,,,,,,,,1,6,16,6,,,,,,,,,,,,,,,AMNE05.jpg,AMNE07.jpg,AMSA17.jpg,AMSA13.jpg,AMSA17.jpg,MS,2,num_2,32,num_6,1.01678364025,,,2017_Dec_01_1327,59.9996535919,MAFE4ImagesEEG,001,201963,
AFNE01.JPG,AFNE01.JPG,AFNE01.JPG,AFNE01.JPG,AFNE01.JPG,AFNE01.JPG,,,,,,,,,1,7,17,0,,,,,,,,,,,,,,,AMNE15.jpg,AMNE12.jpg,AMSA05.jpg,AMSA09.jpg,AMSA05.jpg,MS,2,num_2,32,num_6,0.916761445114,,,2017_Dec_01_1327,59.9996535919,MAFE4ImagesEEG,001,201963,
AFNE01.JPG,AFNE01.JPG,AFNE01.JPG,AFNE01.JPG,AFNE01.JPG,AFNE01.JPG,,,,,,,,,1,8,18,7,,,,,,,,,,,,,,,AMNE20.jpg,AMSA13.jpg,AMSA01.jpg,AMNE13.jpg,AMNE13.jpg,MN,1,num_4,32,num_2,0.8667498664,,,2017_Dec_01_1327,59.9996535919,MAFE4ImagesEEG,001,201963,
AFNE01.JPG,AFNE01.JPG,AFNE01.JPG,AFNE01.JPG,AFNE01.JPG,AFNE01.JPG,,,,,,,,,1,9,19,4,,,,,,,,,,,,,,,AMSA18.jpg,AMSA11.jpg,AMNE20.jpg,AMNE08.jpg,AMNE20.jpg,MN,1,num_2,16,num_2,1.61675034754,,,2017_Dec_01_1327,59.9996535919,MAFE4ImagesEEG,001,201963,
AFNE01.JPG,AFNE01.JPG,AFNE01.JPG,AFNE01.JPG,AFNE01.JPG,AFNE01.JPG,,,,,,,,,2,0,20,4,,,,,,,,,,,,,,,AMNE12.jpg,AMSA09.jpg,AMSA20.jpg,AMNE09.jpg,AMNE09.jpg,MN,1,num_4,32,num_6,0.850178555585,,,2017_Dec_01_1327,59.9996535919,MAFE4ImagesEEG,001,201963,
AFNE01.JPG,AFNE01.JPG,AFNE01.JPG,AFNE01.JPG,AFNE01.JPG,AFNE01.JPG,,,,,,,,,2,1,21,6,,,,,,,,,,,,,,,AMSA17.jpg,AMSA01.jpg,AMNE19.jpg,AMNE12.jpg,AMNE12.jpg,MN,1,num_4,32,num_8,0.71650793287,,,2017_Dec_01_1327,59.9996535919,MAFE4ImagesEEG,001,201963,
AFNE01.JPG,AFNE01.JPG,AFNE01.JPG,AFNE01.JPG,AFNE01.JPG,AFNE01.JPG,,,,,,,,,2,2,22,2,,,,,,,,,,,,,,,AMSA08.jpg,AMNE13.jpg,AMSA03.jpg,AMNE11.jpg,AMSA03.jpg,MS,2,num_2,32,num_8,0.600138302776,,,2017_Dec_01_1327,59.9996535919,MAFE4ImagesEEG,001,201963,
AFNE01.JPG,AFNE01.JPG,AFNE01.JPG,AFNE01.JPG,AFNE01.JPG,AFNE01.JPG,,,,,,,,,2,3,23,3,,,,,,,,,,,,,,,AMNE19.jpg,AMNE01.jpg,AMSA10.jpg,AMSA07.jpg,AMNE19.jpg,MN,1,num_8,16,num_8,0.783472181298,,,2017_Dec_01_1327,59.9996535919,MAFE4ImagesEEG,001,201963,
AFNE01.JPG,AFNE01.JPG,AFNE01.JPG,AFNE01.JPG,AFNE01.JPG,AFNE01.JPG,,,,,,,,,2,4,24,9,,,,,,,,,,,,,,,AMSA04.jpg,AMSA08.jpg,AMNE10.jpg,AMNE03.jpg,AMSA04.jpg,MS,2,num_8,32,num_6,0.80014869466,,,2017_Dec_01_1327,59.9996535919,MAFE4ImagesEEG,001,201963,
AFNE01.JPG,AFNE01.JPG,AFNE01.JPG,AFNE01.JPG,AFNE01.JPG,AFNE01.JPG,,,,,,,,,2,5,25,7,,,,,,,,,,,,,,,AMNE11.jpg,AMSA15.jpg,AMSA13.jpg,AMNE09.jpg,AMNE09.jpg,MN,1,num_4,32,num_8,0.583501240239,,,2017_Dec_01_1327,59.9996535919,MAFE4ImagesEEG,001,201963,
AFNE01.JPG,AFNE01.JPG,AFNE01.JPG,AFNE01.JPG,AFNE01.JPG,AFNE01.JPG,,,,,,,,,2,6,26,1,,,,,,,,,,,,,,,AMNE01.jpg,AMNE10.jpg,AMSA03.jpg,AMSA12.jpg,AMSA03.jpg,MS,2,num_2,32,num_8,0.93350499298,,,2017_Dec_01_1327,59.9996535919,MAFE4ImagesEEG,001,201963,
AFNE01.JPG,AFNE01.JPG,AFNE01.JPG,AFNE01.JPG,AFNE01.JPG,AFNE01.JPG,,,,,,,,,2,7,27,5,,,,,,,,,,,,,,,AMSA16.jpg,AMNE01.jpg,AMSA17.jpg,AMNE11.jpg,AMSA16.jpg,MS,2,num_8,32,num_6,0.350180159207,,,2017_Dec_01_1327,59.9996535919,MAFE4ImagesEEG,001,201963,
AFNE01.JPG,AFNE01.JPG,AFNE01.JPG,AFNE01.JPG,AFNE01.JPG,AFNE01.JPG,,,,,,,,,2,8,28,8,,,,,,,,,,,,,,,AMSA19.jpg,AMNE04.jpg,AMSA01.jpg,AMNE08.jpg,AMSA19.jpg,MS,2,num_8,32,num_2,2.61670159514,,,2017_Dec_01_1327,59.9996535919,MAFE4ImagesEEG,001,201963,
AFNE01.JPG,AFNE01.JPG,AFNE01.JPG,AFNE01.JPG,AFNE01.JPG,AFNE01.JPG,,,,,,,,,2,9,29,0,,,,,,,,,,,,,,,AMSA06.jpg,AMNE05.jpg,AMSA19.jpg,AMNE02.jpg,AMSA19.jpg,MS,2,num_2,32,num_8,0.533502491191,,,2017_Dec_01_1327,59.9996535919,MAFE4ImagesEEG,001,201963,
AFNE01.JPG,AFNE01.JPG,AFNE01.JPG,AFNE01.JPG,AFNE01.JPG,AFNE01.JPG,,,,,,,,,3,0,30,8,,,,,,,,,,,,,,,AMNE06.jpg,AMSA20.jpg,AMSA13.jpg,AMNE20.jpg,AMNE20.jpg,MN,1,num_4,32,num_6,0.516798073542,,,2017_Dec_01_1327,59.9996535919,MAFE4ImagesEEG,001,201963,
AFNE01.JPG,AFNE01.JPG,AFNE01.JPG,AFNE01.JPG,AFNE01.JPG,AFNE01.JPG,,,,,,,,,3,1,31,5,,,,,,,,,,,,,,,AMNE09.jpg,AMNE12.jpg,AMSA03.jpg,AMSA07.jpg,AMSA07.jpg,MS,2,num_4,32,num_6,0.650174257578,,,2017_Dec_01_1327,59.9996535919,MAFE4ImagesEEG,001,201963,
AFNE01.JPG,AFNE01.JPG,AFNE01.JPG,AFNE01.JPG,AFNE01.JPG,AFNE01.JPG,,,,,,,,,3,2,32,2,,,,,,,,,,,,,,,AMSA10.jpg,AMSA18.jpg,AMNE09.jpg,AMNE10.jpg,AMNE09.jpg,MN,1,num_2,16,num_2,1.9000124447,,,2017_Dec_01_1327,59.9996535919,MAFE4ImagesEEG,001,201963,
AFNE01.JPG,AFNE01.JPG,AFNE01.JPG,AFNE01.JPG,AFNE01.JPG,AFNE01.JPG,,,,,,,,,3,3,33,3,,,,,,,,,,,,,,,AMSA17.jpg,AMNE08.jpg,AMNE03.jpg,AMSA11.jpg,AMNE03.jpg,MN,1,num_2,32,num_6,0.366834220826,,,2017_Dec_01_1327,59.9996535919,MAFE4ImagesEEG,001,201963,
AFNE01.JPG,AFNE01.JPG,AFNE01.JPG,AFNE01.JPG,AFNE01.JPG,AFNE01.JPG,,,,,,,,,3,4,34,0,,,,,,,,,,,,,,,AMNE08.jpg,AMSA15.jpg,AMSA17.jpg,AMNE04.jpg,AMSA17.jpg,MS,2,num_2,32,num_8,0.450200109161,,,2017_Dec_01_1327,59.9996535919,MAFE4ImagesEEG,001,201963,
AFNE01.JPG,AFNE01.JPG,AFNE01.JPG,AFNE01.JPG,AFNE01.JPG,AFNE01.JPG,,,,,,,,,3,5,35,9,,,,,,,,,,,,,,,AMNE16.jpg,AMNE10.jpg,AMSA04.jpg,AMSA06.jpg,AMNE16.jpg,MN,1,num_8,16,num_8,0.616786270286,,,2017_Dec_01_1327,59.9996535919,MAFE4ImagesEEG,001,201963,
AFNE01.JPG,AFNE01.JPG,AFNE01.JPG,AFNE01.JPG,AFNE01.JPG,AFNE01.JPG,,,,,,,,,3,6,36,1,,,,,,,,,,,,,,,AMSA16.jpg,AMNE20.jpg,AMNE05.jpg,AMSA02.jpg,AMNE20.jpg,MN,1,num_6,32,num_8,0.600153056788,,,2017_Dec_01_1327,59.9996535919,MAFE4ImagesEEG,001,201963,
AFNE01.JPG,AFNE01.JPG,AFNE01.JPG,AFNE01.JPG,AFNE01.JPG,AFNE01.JPG,,,,,,,,,3,7,37,6,,,,,,,,,,,,,,,AMSA07.jpg,AMNE15.jpg,AMNE03.jpg,AMSA11.jpg,AMSA07.jpg,MS,2,num_8,32,num_4,1.41674348374,,,2017_Dec_01_1327,59.9996535919,MAFE4ImagesEEG,001,201963,
AFNE01.JPG,AFNE01.JPG,AFNE01.JPG,AFNE01.JPG,AFNE01.JPG,AFNE01.JPG,,,,,,,,,3,8,38,7,,,,,,,,,,,,,,,AMSA07.jpg,AMSA09.jpg,AMNE09.jpg,AMNE17.jpg,AMSA07.jpg,MS,2,num_8,32,num_6,0.533479077159,,,2017_Dec_01_1327,59.9996535919,MAFE4ImagesEEG,001,201963,
AFNE01.JPG,AFNE01.JPG,AFNE01.JPG,AFNE01.JPG,AFNE01.JPG,AFNE01.JPG,,,,,,,,,3,9,39,4,,,,,,,,,,,,,,,AMNE12.jpg,AMSA12.jpg,AMSA15.jpg,AMNE07.jpg,AMSA12.jpg,MS,2,num_6,32,num_2,0.616763818543,,,2017_Dec_01_1327,59.9996535919,MAFE4ImagesEEG,001,201963,
AFNE01.JPG,AFNE01.JPG,AFNE01.JPG,AFNE01.JPG,AFNE01.JPG,AFNE01.JPG,,,,,,,,,4,0,40,4,,,,,,,,,,,,,,,AMSA19.jpg,AMNE05.jpg,AMNE11.jpg,AMSA10.jpg,AMNE05.jpg,MN,1,num_6,32,num_4,0.616782100638,,,2017_Dec_01_1327,59.9996535919,MAFE4ImagesEEG,001,201963,
AFNE01.JPG,AFNE01.JPG,AFNE01.JPG,AFNE01.JPG,AFNE01.JPG,AFNE01.JPG,,,,,,,,,4,1,41,9,,,,,,,,,,,,,,,AMSA20.jpg,AMNE12.jpg,AMNE18.jpg,AMSA04.jpg,AMNE12.jpg,MN,1,num_6,16,num_6,0.81665906508,,,2017_Dec_01_1327,59.9996535919,MAFE4ImagesEEG,001,201963,
AFNE01.JPG,AFNE01.JPG,AFNE01.JPG,AFNE01.JPG,AFNE01.JPG,AFNE01.JPG,,,,,,,,,4,2,42,0,,,,,,,,,,,,,,,AMNE17.jpg,AMSA13.jpg,AMNE05.jpg,AMSA08.jpg,AMSA08.jpg,MS,2,num_4,32,num_6,0.950103566749,,,2017_Dec_01_1327,59.9996535919,MAFE4ImagesEEG,001,201963,
AFNE01.JPG,AFNE01.JPG,AFNE01.JPG,AFNE01.JPG,AFNE01.JPG,AFNE01.JPG,,,,,,,,,4,3,43,2,,,,,,,,,,,,,,,AMNE09.jpg,AMSA07.jpg,AMNE18.jpg,AMSA06.jpg,AMSA07.jpg,MS,2,num_6,32,num_2,0.850076239672,,,2017_Dec_01_1327,59.9996535919,MAFE4ImagesEEG,001,201963,
AFNE01.JPG,AFNE01.JPG,AFNE01.JPG,AFNE01.JPG,AFNE01.JPG,AFNE01.JPG,,,,,,,,,4,4,44,6,,,,,,,,,,,,,,,AMNE15.jpg,AMSA18.jpg,AMSA13.jpg,AMNE14.jpg,AMNE15.jpg,MN,1,num_8,16,num_8,0.46679611702,,,2017_Dec_01_1327,59.9996535919,MAFE4ImagesEEG,001,201963,
AFNE01.JPG,AFNE01.JPG,AFNE01.JPG,AFNE01.JPG,AFNE01.JPG,AFNE01.JPG,,,,,,,,,4,5,45,7,,,,,,,,,,,,,,,AMNE15.jpg,AMSA05.jpg,AMSA12.jpg,AMNE09.jpg,AMNE15.jpg,MN,1,num_8,32,num_2,1.88338628737,,,2017_Dec_01_1327,59.9996535919,MAFE4ImagesEEG,001,201963,
AFNE01.JPG,AFNE01.JPG,AFNE01.JPG,AFNE01.JPG,AFNE01.JPG,AFNE01.JPG,,,,,,,,,4,6,46,8,,,,,,,,,,,,,,,AMSA13.jpg,AMNE09.jpg,AMSA17.jpg,AMNE03.jpg,AMSA17.jpg,MS,2,num_2,16,num_2,0.466846473166,,,2017_Dec_01_1327,59.9996535919,MAFE4ImagesEEG,001,201963,
AFNE01.JPG,AFNE01.JPG,AFNE01.JPG,AFNE01.JPG,AFNE01.JPG,AFNE01.JPG,,,,,,,,,4,7,47,5,,,,,,,,,,,,,,,AMSA19.jpg,AMNE16.jpg,AMNE19.jpg,AMSA11.jpg,AMSA11.jpg,MS,2,num_4,16,num_4,0.516847146675,,,2017_Dec_01_1327,59.9996535919,MAFE4ImagesEEG,001,201963,
AFNE01.JPG,AFNE01.JPG,AFNE01.JPG,AFNE01.JPG,AFNE01.JPG,AFNE01.JPG,,,,,,,,,4,8,48,3,,,,,,,,,,,,,,,AMSA08.jpg,AMSA20.jpg,AMNE08.jpg,AMNE10.jpg,AMSA08.jpg,MS,2,num_8,32,num_4,0.61679428874,,,2017_Dec_01_1327,59.9996535919,MAFE4ImagesEEG,001,201963,
AFNE01.JPG,AFNE01.JPG,AFNE01.JPG,AFNE01.JPG,AFNE01.JPG,AFNE01.JPG,,,,,,,,,4,9,49,1,,,,,,,,,,,,,,,AMNE16.jpg,AMNE04.jpg,AMSA03.jpg,AMSA14.jpg,AMSA03.jpg,MS,2,num_2,32,num_8,0.866772318142,,,2017_Dec_01_1327,59.9996535919,MAFE4ImagesEEG,001,201963,
AFNE01.JPG,AFNE01.JPG,AFNE01.JPG,AFNE01.JPG,AFNE01.JPG,AFNE01.JPG,,,,,,,,,5,0,50,7,,,,,,,,,,,,,,,AMNE19.jpg,AMSA20.jpg,AMSA15.jpg,AMNE06.jpg,AMSA15.jpg,MS,2,num_2,32,num_8,0.83346644009,,,2017_Dec_01_1327,59.9996535919,MAFE4ImagesEEG,001,201963,
AFNE01.JPG,AFNE01.JPG,AFNE01.JPG,AFNE01.JPG,AFNE01.JPG,AFNE01.JPG,,,,,,,,,5,1,51,0,,,,,,,,,,,,,,,AMSA15.jpg,AMSA08.jpg,AMNE03.jpg,AMNE08.jpg,AMSA15.jpg,MS,2,num_8,32,num_2,0.450139810215,,,2017_Dec_01_1327,59.9996535919,MAFE4ImagesEEG,001,201963,
AFNE01.JPG,AFNE01.JPG,AFNE01.JPG,AFNE01.JPG,AFNE01.JPG,AFNE01.JPG,,,,,,,,,5,2,52,3,,,,,,,,,,,,,,,AMNE10.jpg,AMSA13.jpg,AMNE17.jpg,AMSA07.jpg,AMNE17.jpg,MN,1,num_2,32,num_6,0.383521960001,,,2017_Dec_01_1327,59.9996535919,MAFE4ImagesEEG,001,201963,
AFNE01.JPG,AFNE01.JPG,AFNE01.JPG,AFNE01.JPG,AFNE01.JPG,AFNE01.JPG,,,,,,,,,5,3,53,9,,,,,,,,,,,,,,,AMSA06.jpg,AMNE14.jpg,AMSA07.jpg,AMNE03.jpg,AMNE14.jpg,MN,1,num_6,32,num_2,0.716796918889,,,2017_Dec_01_1327,59.9996535919,MAFE4ImagesEEG,001,201963,
AFNE01.JPG,AFNE01.JPG,AFNE01.JPG,AFNE01.JPG,AFNE01.JPG,AFNE01.JPG,,,,,,,,,5,4,54,2,,,,,,,,,,,,,,,AMNE08.jpg,AMNE10.jpg,AMSA08.jpg,AMSA09.jpg,AMNE08.jpg,MN,1,num_8,32,num_4,0.41678133083,,,2017_Dec_01_1327,59.9996535919,MAFE4ImagesEEG,001,201963,
AFNE01.JPG,AFNE01.JPG,AFNE01.JPG,AFNE01.JPG,AFNE01.JPG,AFNE01.JPG,,,,,,,,,5,5,55,6,,,,,,,,,,,,,,,AMNE15.jpg,AMSA09.jpg,AMNE11.jpg,AMSA03.jpg,AMSA09.jpg,MS,2,num_6,32,num_8,0.583422017749,,,2017_Dec_01_1327,59.9996535919,MAFE4ImagesEEG,001,201963,
AFNE01.JPG,AFNE01.JPG,AFNE01.JPG,AFNE01.JPG,AFNE01.JPG,AFNE01.JPG,,,,,,,,,5,6,56,1,,,,,,,,,,,,,,,AMNE04.jpg,AMSA04.jpg,AMSA12.jpg,AMNE18.jpg,AMSA12.jpg,MS,2,num_2,32,num_6,0.416545908316,,,2017_Dec_01_1327,59.9996535919,MAFE4ImagesEEG,001,201963,
AFNE01.JPG,AFNE01.JPG,AFNE01.JPG,AFNE01.JPG,AFNE01.JPG,AFNE01.JPG,,,,,,,,,5,7,57,8,,,,,,,,,,,,,,,AMSA04.jpg,AMNE02.jpg,AMNE19.jpg,AMSA10.jpg,AMNE02.jpg,MN,1,num_6,32,num_2,0.466849680524,,,2017_Dec_01_1327,59.9996535919,MAFE4ImagesEEG,001,201963,
AFNE01.JPG,AFNE01.JPG,AFNE01.JPG,AFNE01.JPG,AFNE01.JPG,AFNE01.JPG,,,,,,,,,5,8,58,5,,,,,,,,,,,,,,,AMNE16.jpg,AMNE17.jpg,AMSA01.jpg,AMSA08.jpg,AMSA08.jpg,MS,2,num_4,16,num_4,0.466796437744,,,2017_Dec_01_1327,59.9996535919,MAFE4ImagesEEG,001,201963,
AFNE01.JPG,AFNE01.JPG,AFNE01.JPG,AFNE01.JPG,AFNE01.JPG,AFNE01.JPG,,,,,,,,,5,9,59,4,,,,,,,,,,,,,,,AMNE13.jpg,AMSA12.jpg,AMSA14.jpg,AMNE04.jpg,AMSA12.jpg,MS,2,num_6,16,num_6,0.616792685119,,,2017_Dec_01_1327,59.9996535919,MAFE4ImagesEEG,001,201963,
,,,,,,,,,,,,,,,,,,,,,,,,,,,,,,,,,,,,,,,,,,,space,7.83321850875,2017_Dec_01_1327,59.9996535919,MAFE4ImagesEEG,001,201963,
AFNE01.JPG,AFNE01.JPG,AFNE01.JPG,AFNE01.JPG,AFNE01.JPG,AFNE01.JPG,,,,,,,,,,,,,0,0,0,6,,,,,,,,,,,AFNE20.jpg,AFSA09.jpg,AFSA15.jpg,AFNE17.jpg,AFNE20.jpg,FN,3,num_8,16,num_8,0.550158477272,,,2017_Dec_01_1327,59.9996535919,MAFE4ImagesEEG,001,201963,
AFNE01.JPG,AFNE01.JPG,AFNE01.JPG,AFNE01.JPG,AFNE01.JPG,AFNE01.JPG,,,,,,,,,,,,,0,1,1,9,,,,,,,,,,,AFSA19.jpg,AFNE18.jpg,AFNE02.jpg,AFSA07.jpg,AFSA19.jpg,FS,4,num_8,32,num_6,0.416803461965,,,2017_Dec_01_1327,59.9996535919,MAFE4ImagesEEG,001,201963,
AFNE01.JPG,AFNE01.JPG,AFNE01.JPG,AFNE01.JPG,AFNE01.JPG,AFNE01.JPG,,,,,,,,,,,,,0,2,2,1,,,,,,,,,,,AFSA15.jpg,AFNE05.jpg,AFNE04.jpg,AFSA17.jpg,AFSA15.jpg,FS,4,num_8,32,num_2,1.13341338979,,,2017_Dec_01_1327,59.9996535919,MAFE4ImagesEEG,001,201963,
AFNE01.JPG,AFNE01.JPG,AFNE01.JPG,AFNE01.JPG,AFNE01.JPG,AFNE01.JPG,,,,,,,,,,,,,0,3,3,5,,,,,,,,,,,AFNE17.jpg,AFSA10.jpg,AFNE14.jpg,AFSA07.jpg,AFSA10.jpg,FS,4,num_6,32,num_4,0.700092821964,,,2017_Dec_01_1327,59.9996535919,MAFE4ImagesEEG,001,201963,
AFNE01.JPG,AFNE01.JPG,AFNE01.JPG,AFNE01.JPG,AFNE01.JPG,AFNE01.JPG,,,,,,,,,,,,,0,4,4,8,,,,,,,,,,,AFNE08.jpg,AFSA04.jpg,AFSA14.jpg,AFNE06.jpg,AFNE06.jpg,FN,3,num_4,32,num_8,0.483516571694,,,2017_Dec_01_1327,59.9996535919,MAFE4ImagesEEG,001,201963,
AFNE01.JPG,AFNE01.JPG,AFNE01.JPG,AFNE01.JPG,AFNE01.JPG,AFNE01.JPG,,,,,,,,,,,,,0,5,5,0,,,,,,,,,,,AFNE15.jpg,AFSA04.jpg,AFSA09.jpg,AFNE16.jpg,AFNE16.jpg,FN,3,num_4,32,num_6,2.81662699126,,,2017_Dec_01_1327,59.9996535919,MAFE4ImagesEEG,001,201963,
AFNE01.JPG,AFNE01.JPG,AFNE01.JPG,AFNE01.JPG,AFNE01.JPG,AFNE01.JPG,,,,,,,,,,,,,0,6,6,7,,,,,,,,,,,AFSA05.jpg,AFNE07.jpg,AFSA01.jpg,AFNE12.jpg,AFSA01.jpg,FS,4,num_2,32,num_4,0.76675397181,,,2017_Dec_01_1327,59.9996535919,MAFE4ImagesEEG,001,201963,
AFNE01.JPG,AFNE01.JPG,AFNE01.JPG,AFNE01.JPG,AFNE01.JPG,AFNE01.JPG,,,,,,,,,,,,,0,7,7,3,,,,,,,,,,,AFSA06.jpg,AFNE16.jpg,AFSA17.jpg,AFNE08.jpg,AFNE08.jpg,FN,3,num_4,32,num_8,0.883442737511,,,2017_Dec_01_1327,59.9996535919,MAFE4ImagesEEG,001,201963,
AFNE01.JPG,AFNE01.JPG,AFNE01.JPG,AFNE01.JPG,AFNE01.JPG,AFNE01.JPG,,,,,,,,,,,,,0,8,8,2,,,,,,,,,,,AFSA18.jpg,AFNE11.jpg,AFNE03.jpg,AFSA07.jpg,AFSA18.jpg,FS,4,num_8,16,num_8,0.900149400346,,,2017_Dec_01_1327,59.9996535919,MAFE4ImagesEEG,001,201963,
AFNE01.JPG,AFNE01.JPG,AFNE01.JPG,AFNE01.JPG,AFNE01.JPG,AFNE01.JPG,,,,,,,,,,,,,0,9,9,4,,,,,,,,,,,AFSA14.jpg,AFSA01.jpg,AFNE06.jpg,AFNE14.jpg,AFNE14.jpg,FN,3,num_4,32,num_2,0.53345534252,,,2017_Dec_01_1327,59.9996535919,MAFE4ImagesEEG,001,201963,
AFNE01.JPG,AFNE01.JPG,AFNE01.JPG,AFNE01.JPG,AFNE01.JPG,AFNE01.JPG,,,,,,,,,,,,,1,0,10,7,,,,,,,,,,,AFNE14.jpg,AFSA13.jpg,AFNE11.jpg,AFSA07.jpg,AFNE14.jpg,FN,3,num_8,32,num_4,0.483479365939,,,2017_Dec_01_1327,59.9996535919,MAFE4ImagesEEG,001,201963,
AFNE01.JPG,AFNE01.JPG,AFNE01.JPG,AFNE01.JPG,AFNE01.JPG,AFNE01.JPG,,,,,,,,,,,,,1,1,11,4,,,,,,,,,,,AFNE12.jpg,AFNE03.jpg,AFSA13.jpg,AFSA09.jpg,AFNE03.jpg,FN,3,num_6,32,num_8,2.2166801698,,,2017_Dec_01_1327,59.9996535919,MAFE4ImagesEEG,001,201963,
AFNE01.JPG,AFNE01.JPG,AFNE01.JPG,AFNE01.JPG,AFNE01.JPG,AFNE01.JPG,,,,,,,,,,,,,1,2,12,3,,,,,,,,,,,AFNE20.jpg,AFSA12.jpg,AFNE07.jpg,AFSA11.jpg,AFNE20.jpg,FN,3,num_8,16,num_8,0.400099365041,,,2017_Dec_01_1327,59.9996535919,MAFE4ImagesEEG,001,201963,
AFNE01.JPG,AFNE01.JPG,AFNE01.JPG,AFNE01.JPG,AFNE01.JPG,AFNE01.JPG,,,,,,,,,,,,,1,3,13,1,,,,,,,,,,,AFSA11.jpg,AFNE15.jpg,AFSA17.jpg,AFNE09.jpg,AFSA11.jpg,FS,4,num_8,32,num_6,1.65016655985,,,2017_Dec_01_1327,59.9996535919,MAFE4ImagesEEG,001,201963,
AFNE01.JPG,AFNE01.JPG,AFNE01.JPG,AFNE01.JPG,AFNE01.JPG,AFNE01.JPG,,,,,,,,,,,,,1,4,14,0,,,,,,,,,,,AFNE20.jpg,AFSA08.jpg,AFSA14.jpg,AFNE15.jpg,AFSA14.jpg,FS,4,num_2,48,None,,,,2017_Dec_01_1327,59.9996535919,MAFE4ImagesEEG,001,201963,
AFNE01.JPG,AFNE01.JPG,AFNE01.JPG,AFNE01.JPG,AFNE01.JPG,AFNE01.JPG,,,,,,,,,,,,,1,5,15,6,,,,,,,,,,,AFSA14.jpg,AFSA13.jpg,AFNE16.jpg,AFNE09.jpg,AFSA14.jpg,FS,4,num_8,32,num_4,0.600129322032,,,2017_Dec_01_1327,59.9996535919,MAFE4ImagesEEG,001,201963,
AFNE01.JPG,AFNE01.JPG,AFNE01.JPG,AFNE01.JPG,AFNE01.JPG,AFNE01.JPG,,,,,,,,,,,,,1,6,16,5,,,,,,,,,,,AFNE03.jpg,AFSA01.jpg,AFSA05.jpg,AFNE14.jpg,AFNE14.jpg,FN,3,num_4,32,num_6,1.11648605845,,,2017_Dec_01_1327,59.9996535919,MAFE4ImagesEEG,001,201963,
AFNE01.JPG,AFNE01.JPG,AFNE01.JPG,AFNE01.JPG,AFNE01.JPG,AFNE01.JPG,,,,,,,,,,,,,1,7,17,2,,,,,,,,,,,AFSA03.jpg,AFSA05.jpg,AFNE13.jpg,AFNE01.jpg,AFNE01.jpg,FN,3,num_4,48,None,,,,2017_Dec_01_1327,59.9996535919,MAFE4ImagesEEG,001,201963,
AFNE01.JPG,AFNE01.JPG,AFNE01.JPG,AFNE01.JPG,AFNE01.JPG,AFNE01.JPG,,,,,,,,,,,,,1,8,18,8,,,,,,,,,,,AFSA08.jpg,AFNE12.jpg,AFNE18.jpg,AFSA13.jpg,AFSA13.jpg,FS,4,num_4,32,num_2,1.43362142122,,,2017_Dec_01_1327,59.9996535919,MAFE4ImagesEEG,001,201963,
AFNE01.JPG,AFNE01.JPG,AFNE01.JPG,AFNE01.JPG,AFNE01.JPG,AFNE01.JPG,,,,,,,,,,,,,1,9,19,9,,,,,,,,,,,AFNE13.jpg,AFSA18.jpg,AFNE09.jpg,AFSA19.jpg,AFSA18.jpg,FS,4,num_6,32,num_8,0.416832328425,,,2017_Dec_01_1327,59.9996535919,MAFE4ImagesEEG,001,201963,
AFNE01.JPG,AFNE01.JPG,AFNE01.JPG,AFNE01.JPG,AFNE01.JPG,AFNE01.JPG,,,,,,,,,,,,,2,0,20,1,,,,,,,,,,,AFSA08.jpg,AFNE18.jpg,AFNE07.jpg,AFSA12.jpg,AFNE18.jpg,FN,3,num_6,32,num_8,0.583499315777,,,2017_Dec_01_1327,59.9996535919,MAFE4ImagesEEG,001,201963,
AFNE01.JPG,AFNE01.JPG,AFNE01.JPG,AFNE01.JPG,AFNE01.JPG,AFNE01.JPG,,,,,,,,,,,,,2,1,21,6,,,,,,,,,,,AFNE19.jpg,AFNE13.jpg,AFSA07.jpg,AFSA16.jpg,AFNE19.jpg,FN,3,num_8,16,num_8,0.666794641642,,,2017_Dec_01_1327,59.9996535919,MAFE4ImagesEEG,001,201963,
AFNE01.JPG,AFNE01.JPG,AFNE01.JPG,AFNE01.JPG,AFNE01.JPG,AFNE01.JPG,,,,,,,,,,,,,2,2,22,9,,,,,,,,,,,AFNE01.jpg,AFSA10.jpg,AFNE15.jpg,AFSA18.jpg,AFNE01.jpg,FN,3,num_8,32,num_4,0.6501232601,,,2017_Dec_01_1327,59.9996535919,MAFE4ImagesEEG,001,201963,
AFNE01.JPG,AFNE01.JPG,AFNE01.JPG,AFNE01.JPG,AFNE01.JPG,AFNE01.JPG,,,,,,,,,,,,,2,3,23,0,,,,,,,,,,,AFSA09.jpg,AFNE20.jpg,AFSA10.jpg,AFNE14.jpg,AFNE14.jpg,FN,3,num_4,48,None,,,,2017_Dec_01_1327,59.9996535919,MAFE4ImagesEEG,001,201963,
AFNE01.JPG,AFNE01.JPG,AFNE01.JPG,AFNE01.JPG,AFNE01.JPG,AFNE01.JPG,,,,,,,,,,,,,2,4,24,4,,,,,,,,,,,AFNE14.jpg,AFNE04.jpg,AFSA19.jpg,AFSA10.jpg,AFNE04.jpg,FN,3,num_6,16,num_6,0.400127269211,,,2017_Dec_01_1327,59.9996535919,MAFE4ImagesEEG,001,201963,
AFNE01.JPG,AFNE01.JPG,AFNE01.JPG,AFNE01.JPG,AFNE01.JPG,AFNE01.JPG,,,,,,,,,,,,,2,5,25,5,,,,,,,,,,,AFNE12.jpg,AFSA09.jpg,AFSA11.jpg,AFNE06.jpg,AFSA11.jpg,FS,4,num_2,16,num_2,0.450176695245,,,2017_Dec_01_1327,59.9996535919,MAFE4ImagesEEG,001,201963,
AFNE01.JPG,AFNE01.JPG,AFNE01.JPG,AFNE01.JPG,AFNE01.JPG,AFNE01.JPG,,,,,,,,,,,,,2,6,26,8,,,,,,,,,,,AFNE14.jpg,AFSA15.jpg,AFNE13.jpg,AFSA10.jpg,AFNE14.jpg,FN,3,num_8,32,num_6,0.566832103999,,,2017_Dec_01_1327,59.9996535919,MAFE4ImagesEEG,001,201963,
AFNE01.JPG,AFNE01.JPG,AFNE01.JPG,AFNE01.JPG,AFNE01.JPG,AFNE01.JPG,,,,,,,,,,,,,2,7,27,3,,,,,,,,,,,AFSA09.jpg,AFSA14.jpg,AFNE07.jpg,AFNE15.jpg,AFSA14.jpg,FS,4,num_6,16,num_6,2.0498749438,,,2017_Dec_01_1327,59.9996535919,MAFE4ImagesEEG,001,201963,
AFNE01.JPG,AFNE01.JPG,AFNE01.JPG,AFNE01.JPG,AFNE01.JPG,AFNE01.JPG,,,,,,,,,,,,,2,8,28,2,,,,,,,,,,,AFNE19.jpg,AFNE04.jpg,AFSA13.jpg,AFSA10.jpg,AFNE04.jpg,FN,3,num_6,48,None,,,,2017_Dec_01_1327,59.9996535919,MAFE4ImagesEEG,001,201963,
AFNE01.JPG,AFNE01.JPG,AFNE01.JPG,AFNE01.JPG,AFNE01.JPG,AFNE01.JPG,,,,,,,,,,,,,2,9,29,7,,,,,,,,,,,AFNE12.jpg,AFSA12.jpg,AFNE11.jpg,AFSA04.jpg,AFNE11.jpg,FN,3,num_2,32,num_6,0.550079254666,,,2017_Dec_01_1327,59.9996535919,MAFE4ImagesEEG,001,201963,
AFNE01.JPG,AFNE01.JPG,AFNE01.JPG,AFNE01.JPG,AFNE01.JPG,AFNE01.JPG,,,,,,,,,,,,,3,0,30,0,,,,,,,,,,,AFSA07.jpg,AFNE16.jpg,AFNE17.jpg,AFSA15.jpg,AFSA07.jpg,FS,4,num_8,48,None,,,,2017_Dec_01_1327,59.9996535919,MAFE4ImagesEEG,001,201963,
AFNE01.JPG,AFNE01.JPG,AFNE01.JPG,AFNE01.JPG,AFNE01.JPG,AFNE01.JPG,,,,,,,,,,,,,3,1,31,1,,,,,,,,,,,AFSA19.jpg,AFSA16.jpg,AFNE18.jpg,AFNE05.jpg,AFNE18.jpg,FN,3,num_2,32,num_8,0.433552141651,,,2017_Dec_01_1327,59.9996535919,MAFE4ImagesEEG,001,201963,
AFNE01.JPG,AFNE01.JPG,AFNE01.JPG,AFNE01.JPG,AFNE01.JPG,AFNE01.JPG,,,,,,,,,,,,,3,2,32,8,,,,,,,,,,,AFNE03.jpg,AFNE20.jpg,AFSA04.jpg,AFSA01.jpg,AFNE20.jpg,FN,3,num_6,32,num_2,1.63343487936,,,2017_Dec_01_1327,59.9996535919,MAFE4ImagesEEG,001,201963,
AFNE01.JPG,AFNE01.JPG,AFNE01.JPG,AFNE01.JPG,AFNE01.JPG,AFNE01.JPG,,,,,,,,,,,,,3,3,33,3,,,,,,,,,,,AFNE10.jpg,AFNE18.jpg,AFSA08.jpg,AFSA02.jpg,AFNE18.jpg,FN,3,num_6,32,num_8,1.36675243231,,,2017_Dec_01_1327,59.9996535919,MAFE4ImagesEEG,001,201963,
AFNE01.JPG,AFNE01.JPG,AFNE01.JPG,AFNE01.JPG,AFNE01.JPG,AFNE01.JPG,,,,,,,,,,,,,3,4,34,2,,,,,,,,,,,AFNE07.jpg,AFSA13.jpg,AFSA10.jpg,AFNE03.jpg,AFSA13.jpg,FS,4,num_6,32,num_2,0.550139232888,,,2017_Dec_01_1327,59.9996535919,MAFE4ImagesEEG,001,201963,
AFNE01.JPG,AFNE01.JPG,AFNE01.JPG,AFNE01.JPG,AFNE01.JPG,AFNE01.JPG,,,,,,,,,,,,,3,5,35,5,,,,,,,,,,,AFSA06.jpg,AFNE14.jpg,AFSA02.jpg,AFNE12.jpg,AFNE12.jpg,FN,3,num_4,32,num_2,1.91640863195,,,2017_Dec_01_1327,59.9996535919,MAFE4ImagesEEG,001,201963,
AFNE01.JPG,AFNE01.JPG,AFNE01.JPG,AFNE01.JPG,AFNE01.JPG,AFNE01.JPG,,,,,,,,,,,,,3,6,36,6,,,,,,,,,,,AFNE05.jpg,AFNE08.jpg,AFSA09.jpg,AFSA11.jpg,AFNE08.jpg,FN,3,num_6,32,num_8,1.06681029371,,,2017_Dec_01_1327,59.9996535919,MAFE4ImagesEEG,001,201963,
AFNE01.JPG,AFNE01.JPG,AFNE01.JPG,AFNE01.JPG,AFNE01.JPG,AFNE01.JPG,,,,,,,,,,,,,3,7,37,7,,,,,,,,,,,AFNE16.jpg,AFSA18.jpg,AFNE20.jpg,AFSA07.jpg,AFSA18.jpg,FS,4,num_6,32,num_8,0.633618342108,,,2017_Dec_01_1327,59.9996535919,MAFE4ImagesEEG,001,201963,
AFNE01.JPG,AFNE01.JPG,AFNE01.JPG,AFNE01.JPG,AFNE01.JPG,AFNE01.JPG,,,,,,,,,,,,,3,8,38,9,,,,,,,,,,,AFSA12.jpg,AFSA16.jpg,AFNE01.jpg,AFNE19.jpg,AFSA16.jpg,FS,4,num_6,16,num_6,1.11701175,,,2017_Dec_01_1327,59.9996535919,MAFE4ImagesEEG,001,201963,
AFNE01.JPG,AFNE01.JPG,AFNE01.JPG,AFNE01.JPG,AFNE01.JPG,AFNE01.JPG,,,,,,,,,,,,,3,9,39,4,,,,,,,,,,,AFNE07.jpg,AFSA07.jpg,AFSA16.jpg,AFNE06.jpg,AFNE07.jpg,FN,3,num_8,16,num_8,0.683448703261,,,2017_Dec_01_1327,59.9996535919,MAFE4ImagesEEG,001,201963,
AFNE01.JPG,AFNE01.JPG,AFNE01.JPG,AFNE01.JPG,AFNE01.JPG,AFNE01.JPG,,,,,,,,,,,,,4,0,40,6,,,,,,,,,,,AFSA09.jpg,AFNE05.jpg,AFSA16.jpg,AFNE16.jpg,AFNE05.jpg,FN,3,num_6,32,num_2,0.716789541882,,,2017_Dec_01_1327,59.9996535919,MAFE4ImagesEEG,001,201963,
AFNE01.JPG,AFNE01.JPG,AFNE01.JPG,AFNE01.JPG,AFNE01.JPG,AFNE01.JPG,,,,,,,,,,,,,4,1,41,8,,,,,,,,,,,AFSA10.jpg,AFSA02.jpg,AFNE01.jpg,AFNE11.jpg,AFSA02.jpg,FS,4,num_6,32,num_2,0.733443603502,,,2017_Dec_01_1327,59.9996535919,MAFE4ImagesEEG,001,201963,
AFNE01.JPG,AFNE01.JPG,AFNE01.JPG,AFNE01.JPG,AFNE01.JPG,AFNE01.JPG,,,,,,,,,,,,,4,2,42,3,,,,,,,,,,,AFSA17.jpg,AFSA15.jpg,AFNE18.jpg,AFNE13.jpg,AFSA17.jpg,FS,4,num_8,32,num_6,0.766634336091,,,2017_Dec_01_1327,59.9996535919,MAFE4ImagesEEG,001,201963,
AFNE01.JPG,AFNE01.JPG,AFNE01.JPG,AFNE01.JPG,AFNE01.JPG,AFNE01.JPG,,,,,,,,,,,,,4,3,43,4,,,,,,,,,,,AFSA11.jpg,AFNE06.jpg,AFSA18.jpg,AFNE04.jpg,AFNE04.jpg,FN,3,num_4,32,num_2,0.816764267511,,,2017_Dec_01_1327,59.9996535919,MAFE4ImagesEEG,001,201963,
AFNE01.JPG,AFNE01.JPG,AFNE01.JPG,AFNE01.JPG,AFNE01.JPG,AFNE01.JPG,,,,,,,,,,,,,4,4,44,7,,,,,,,,,,,AFNE13.jpg,AFNE06.jpg,AFSA18.jpg,AFSA02.jpg,AFSA18.jpg,FS,4,num_2,32,num_8,0.400249791681,,,2017_Dec_01_1327,59.9996535919,MAFE4ImagesEEG,001,201963,
AFNE01.JPG,AFNE01.JPG,AFNE01.JPG,AFNE01.JPG,AFNE01.JPG,AFNE01.JPG,,,,,,,,,,,,,4,5,45,5,,,,,,,,,,,AFSA08.jpg,AFNE08.jpg,AFNE02.jpg,AFSA03.jpg,AFSA08.jpg,FS,4,num_8,32,num_2,1.19994143303,,,2017_Dec_01_1327,59.9996535919,MAFE4ImagesEEG,001,201963,
AFNE01.JPG,AFNE01.JPG,AFNE01.JPG,AFNE01.JPG,AFNE01.JPG,AFNE01.JPG,,,,,,,,,,,,,4,6,46,0,,,,,,,,,,,AFSA16.jpg,AFSA11.jpg,AFNE11.jpg,AFNE16.jpg,AFSA11.jpg,FS,4,num_6,32,num_4,0.733510317281,,,2017_Dec_01_1327,59.9996535919,MAFE4ImagesEEG,001,201963,
AFNE01.JPG,AFNE01.JPG,AFNE01.JPG,AFNE01.JPG,AFNE01.JPG,AFNE01.JPG,,,,,,,,,,,,,4,7,47,1,,,,,,,,,,,AFNE16.jpg,AFSA05.jpg,AFSA11.jpg,AFNE18.jpg,AFNE18.jpg,FN,3,num_4,16,num_4,1.48341970844,,,2017_Dec_01_1327,59.9996535919,MAFE4ImagesEEG,001,201963,
AFNE01.JPG,AFNE01.JPG,AFNE01.JPG,AFNE01.JPG,AFNE01.JPG,AFNE01.JPG,,,,,,,,,,,,,4,8,48,2,,,,,,,,,,,AFNE12.jpg,AFSA11.jpg,AFSA05.jpg,AFNE07.jpg,AFSA05.jpg,FS,4,num_2,32,num_4,0.900216434849,,,2017_Dec_01_1327,59.9996535919,MAFE4ImagesEEG,001,201963,
AFNE01.JPG,AFNE01.JPG,AFNE01.JPG,AFNE01.JPG,AFNE01.JPG,AFNE01.JPG,,,,,,,,,,,,,4,9,49,9,,,,,,,,,,,AFNE19.jpg,AFSA10.jpg,AFNE03.jpg,AFSA20.jpg,AFSA10.jpg,FS,4,num_6,32,num_8,0.60011969984,,,2017_Dec_01_1327,59.9996535919,MAFE4ImagesEEG,001,201963,
AFNE01.JPG,AFNE01.JPG,AFNE01.JPG,AFNE01.JPG,AFNE01.JPG,AFNE01.JPG,,,,,,,,,,,,,5,0,50,1,,,,,,,,,,,AFNE15.jpg,AFSA03.jpg,AFNE12.jpg,AFSA02.jpg,AFSA02.jpg,FS,4,num_4,32,num_6,0.800210918183,,,2017_Dec_01_1327,59.9996535919,MAFE4ImagesEEG,001,201963,
AFNE01.JPG,AFNE01.JPG,AFNE01.JPG,AFNE01.JPG,AFNE01.JPG,AFNE01.JPG,,,,,,,,,,,,,5,1,51,3,,,,,,,,,,,AFSA01.jpg,AFNE14.jpg,AFNE19.jpg,AFSA16.jpg,AFSA01.jpg,FS,4,num_8,32,num_4,0.750122041325,,,2017_Dec_01_1327,59.9996535919,MAFE4ImagesEEG,001,201963,
AFNE01.JPG,AFNE01.JPG,AFNE01.JPG,AFNE01.JPG,AFNE01.JPG,AFNE01.JPG,,,,,,,,,,,,,5,2,52,8,,,,,,,,,,,AFNE01.jpg,AFSA03.jpg,AFNE07.jpg,AFSA19.jpg,AFSA19.jpg,FS,4,num_4,32,num_6,0.5001010329,,,2017_Dec_01_1327,59.9996535919,MAFE4ImagesEEG,001,201963,
AFNE01.JPG,AFNE01.JPG,AFNE01.JPG,AFNE01.JPG,AFNE01.JPG,AFNE01.JPG,,,,,,,,,,,,,5,3,53,9,,,,,,,,,,,AFNE03.jpg,AFSA10.jpg,AFSA16.jpg,AFNE09.jpg,AFSA10.jpg,FS,4,num_6,32,num_2,0.616853304789,,,2017_Dec_01_1327,59.9996535919,MAFE4ImagesEEG,001,201963,
AFNE01.JPG,AFNE01.JPG,AFNE01.JPG,AFNE01.JPG,AFNE01.JPG,AFNE01.JPG,,,,,,,,,,,,,5,4,54,4,,,,,,,,,,,AFSA12.jpg,AFNE10.jpg,AFNE07.jpg,AFSA09.jpg,AFSA09.jpg,FS,4,num_4,16,num_4,3.11660793936,,,2017_Dec_01_1327,59.9996535919,MAFE4ImagesEEG,001,201963,
AFNE01.JPG,AFNE01.JPG,AFNE01.JPG,AFNE01.JPG,AFNE01.JPG,AFNE01.JPG,,,,,,,,,,,,,5,5,55,5,,,,,,,,,,,AFSA14.jpg,AFSA06.jpg,AFNE01.jpg,AFNE05.jpg,AFNE05.jpg,FN,3,num_4,32,num_8,1.16676352988,,,2017_Dec_01_1327,59.9996535919,MAFE4ImagesEEG,001,201963,
AFNE01.JPG,AFNE01.JPG,AFNE01.JPG,AFNE01.JPG,AFNE01.JPG,AFNE01.JPG,,,,,,,,,,,,,5,6,56,7,,,,,,,,,,,AFSA15.jpg,AFNE01.jpg,AFNE11.jpg,AFSA02.jpg,AFNE11.jpg,FN,3,num_2,32,num_8,2.6165976756,,,2017_Dec_01_1327,59.9996535919,MAFE4ImagesEEG,001,201963,
AFNE01.JPG,AFNE01.JPG,AFNE01.JPG,AFNE01.JPG,AFNE01.JPG,AFNE01.JPG,,,,,,,,,,,,,5,7,57,6,,,,,,,,,,,AFSA03.jpg,AFNE07.jpg,AFSA02.jpg,AFNE06.jpg,AFNE07.jpg,FN,3,num_6,16,num_6,0.466953279218,,,2017_Dec_01_1327,59.9996535919,MAFE4ImagesEEG,001,201963,
AFNE01.JPG,AFNE01.JPG,AFNE01.JPG,AFNE01.JPG,AFNE01.JPG,AFNE01.JPG,,,,,,,,,,,,,5,8,58,0,,,,,,,,,,,AFSA05.jpg,AFSA08.jpg,AFNE14.jpg,AFNE09.jpg,AFNE09.jpg,FN,3,num_4,32,num_8,0.750164058176,,,2017_Dec_01_1327,59.9996535919,MAFE4ImagesEEG,001,201963,
AFNE01.JPG,AFNE01.JPG,AFNE01.JPG,AFNE01.JPG,AFNE01.JPG,AFNE01.JPG,,,,,,,,,,,,,5,9,59,2,,,,,,,,,,,AFSA13.jpg,AFSA18.jpg,AFNE09.jpg,AFNE07.jpg,AFSA13.jpg,FS,4,num_8,32,num_2,0.866784506245,,,2017_Dec_01_1327,59.9996535919,MAFE4ImagesEEG,001,201963,
,,,,,,,,,,,,,,,,,,,,,,,,,,,,,,,,,,,,,,,,,,,space,1.86680695799,2017_Dec_01_1327,59.9996535919,MAFE4ImagesEEG,001,201963,
AFNE01.JPG,AFNE01.JPG,AFNE01.JPG,AFNE01.JPG,AFNE01.JPG,AFNE01.JPG,,,,,,,,,,,,,,,,,0,0,0,6,,,,,,,AMNE16.jpg,AMSA17.jpg,AMNE17.jpg,AMSA02.jpg,AMSA02.jpg,MS,2,num_4,16,num_4,0.383468396612,,,2017_Dec_01_1327,59.9996535919,MAFE4ImagesEEG,001,201963,
AFNE01.JPG,AFNE01.JPG,AFNE01.JPG,AFNE01.JPG,AFNE01.JPG,AFNE01.JPG,,,,,,,,,,,,,,,,,0,1,1,9,,,,,,,AMSA02.jpg,AMSA08.jpg,AMNE13.jpg,AMNE18.jpg,AMNE18.jpg,MN,1,num_4,32,num_6,0.383831152576,,,2017_Dec_01_1327,59.9996535919,MAFE4ImagesEEG,001,201963,
AFNE01.JPG,AFNE01.JPG,AFNE01.JPG,AFNE01.JPG,AFNE01.JPG,AFNE01.JPG,,,,,,,,,,,,,,,,,0,2,2,2,,,,,,,AMNE05.jpg,AMNE09.jpg,AMSA06.jpg,AMSA16.jpg,AMNE09.jpg,MN,1,num_6,32,num_8,0.566864819266,,,2017_Dec_01_1327,59.9996535919,MAFE4ImagesEEG,001,201963,
AFNE01.JPG,AFNE01.JPG,AFNE01.JPG,AFNE01.JPG,AFNE01.JPG,AFNE01.JPG,,,,,,,,,,,,,,,,,0,3,3,1,,,,,,,AMSA18.jpg,AMNE06.jpg,AMNE17.jpg,AMSA04.jpg,AMNE17.jpg,MN,1,num_2,32,num_4,0.950098755537,,,2017_Dec_01_1327,59.9996535919,MAFE4ImagesEEG,001,201963,
AFNE01.JPG,AFNE01.JPG,AFNE01.JPG,AFNE01.JPG,AFNE01.JPG,AFNE01.JPG,,,,,,,,,,,,,,,,,0,4,4,8,,,,,,,AMSA03.jpg,AMSA04.jpg,AMNE14.jpg,AMNE18.jpg,AMNE14.jpg,MN,1,num_2,32,num_6,0.899986144155,,,2017_Dec_01_1327,59.9996535919,MAFE4ImagesEEG,001,201963,
AFNE01.JPG,AFNE01.JPG,AFNE01.JPG,AFNE01.JPG,AFNE01.JPG,AFNE01.JPG,,,,,,,,,,,,,,,,,0,5,5,0,,,,,,,AMNE15.jpg,AMSA11.jpg,AMNE01.jpg,AMSA10.jpg,AMNE01.jpg,MN,1,num_2,16,num_2,0.466815682012,,,2017_Dec_01_1327,59.9996535919,MAFE4ImagesEEG,001,201963,
AFNE01.JPG,AFNE01.JPG,AFNE01.JPG,AFNE01.JPG,AFNE01.JPG,AFNE01.JPG,,,,,,,,,,,,,,,,,0,6,6,4,,,,,,,AMNE11.jpg,AMSA16.jpg,AMSA04.jpg,AMNE10.jpg,AMNE11.jpg,MN,1,num_8,32,num_6,0.616800062009,,,2017_Dec_01_1327,59.9996535919,MAFE4ImagesEEG,001,201963,
AFNE01.JPG,AFNE01.JPG,AFNE01.JPG,AFNE01.JPG,AFNE01.JPG,AFNE01.JPG,,,,,,,,,,,,,,,,,0,7,7,3,,,,,,,AMNE09.jpg,AMSA15.jpg,AMSA02.jpg,AMNE10.jpg,AMNE10.jpg,MN,1,num_4,32,num_6,0.333516154671,,,2017_Dec_01_1327,59.9996535919,MAFE4ImagesEEG,001,201963,
AFNE01.JPG,AFNE01.JPG,AFNE01.JPG,AFNE01.JPG,AFNE01.JPG,AFNE01.JPG,,,,,,,,,,,,,,,,,0,8,8,5,,,,,,,AMSA13.jpg,AMSA16.jpg,AMNE07.jpg,AMNE13.jpg,AMSA13.jpg,MS,2,num_8,16,num_8,2.41632074944,,,2017_Dec_01_1327,59.9996535919,MAFE4ImagesEEG,001,201963,
AFNE01.JPG,AFNE01.JPG,AFNE01.JPG,AFNE01.JPG,AFNE01.JPG,AFNE01.JPG,,,,,,,,,,,,,,,,,0,9,9,7,,,,,,,AMNE01.jpg,AMSA04.jpg,AMSA09.jpg,AMNE10.jpg,AMSA09.jpg,MS,2,num_2,32,num_6,0.350162197836,,,2017_Dec_01_1327,59.9996535919,MAFE4ImagesEEG,001,201963,
AFNE01.JPG,AFNE01.JPG,AFNE01.JPG,AFNE01.JPG,AFNE01.JPG,AFNE01.JPG,,,,,,,,,,,,,,,,,1,0,10,3,,,,,,,AMNE19.jpg,AMNE01.jpg,AMSA02.jpg,AMSA05.jpg,AMSA05.jpg,MS,2,num_4,32,num_8,0.383498225361,,,2017_Dec_01_1327,59.9996535919,MAFE4ImagesEEG,001,201963,
AFNE01.JPG,AFNE01.JPG,AFNE01.JPG,AFNE01.JPG,AFNE01.JPG,AFNE01.JPG,,,,,,,,,,,,,,,,,1,1,11,7,,,,,,,AMSA15.jpg,AMNE06.jpg,AMNE10.jpg,AMSA05.jpg,AMSA05.jpg,MS,2,num_4,32,num_6,1.20013227279,,,2017_Dec_01_1327,59.9996535919,MAFE4ImagesEEG,001,201963,
AFNE01.JPG,AFNE01.JPG,AFNE01.JPG,AFNE01.JPG,AFNE01.JPG,AFNE01.JPG,,,,,,,,,,,,,,,,,1,2,12,2,,,,,,,AMSA16.jpg,AMNE06.jpg,AMSA10.jpg,AMNE07.jpg,AMNE07.jpg,MN,1,num_4,32,num_8,2.48331899627,,,2017_Dec_01_1327,59.9996535919,MAFE4ImagesEEG,001,201963,
AFNE01.JPG,AFNE01.JPG,AFNE01.JPG,AFNE01.JPG,AFNE01.JPG,AFNE01.JPG,,,,,,,,,,,,,,,,,1,3,13,9,,,,,,,AMSA08.jpg,AMNE06.jpg,AMNE04.jpg,AMSA12.jpg,AMNE04.jpg,MN,1,num_2,16,num_2,1.63322062558,,,2017_Dec_01_1327,59.9996535919,MAFE4ImagesEEG,001,201963,
AFNE01.JPG,AFNE01.JPG,AFNE01.JPG,AFNE01.JPG,AFNE01.JPG,AFNE01.JPG,,,,,,,,,,,,,,,,,1,4,14,0,,,,,,,AMSA05.jpg,AMNE05.jpg,AMSA13.jpg,AMNE06.jpg,AMSA13.jpg,MS,2,num_2,32,num_4,0.266694955877,,,2017_Dec_01_1327,59.9996535919,MAFE4ImagesEEG,001,201963,
AFNE01.JPG,AFNE01.JPG,AFNE01.JPG,AFNE01.JPG,AFNE01.JPG,AFNE01.JPG,,,,,,,,,,,,,,,,,1,5,15,8,,,,,,,AMSA13.jpg,AMNE06.jpg,AMSA12.jpg,AMNE14.jpg,AMSA12.jpg,MS,2,num_2,32,num_4,4.83312645659,,,2017_Dec_01_1327,59.9996535919,MAFE4ImagesEEG,001,201963,
AFNE01.JPG,AFNE01.JPG,AFNE01.JPG,AFNE01.JPG,AFNE01.JPG,AFNE01.JPG,,,,,,,,,,,,,,,,,1,6,16,1,,,,,,,AMNE18.jpg,AMSA01.jpg,AMNE09.jpg,AMSA14.jpg,AMSA01.jpg,MS,2,num_6,32,num_8,1.95001985377,,,2017_Dec_01_1327,59.9996535919,MAFE4ImagesEEG,001,201963,
AFNE01.JPG,AFNE01.JPG,AFNE01.JPG,AFNE01.JPG,AFNE01.JPG,AFNE01.JPG,,,,,,,,,,,,,,,,,1,7,17,4,,,,,,,AMNE07.jpg,AMNE06.jpg,AMSA07.jpg,AMSA10.jpg,AMSA10.jpg,MS,2,num_4,48,None,,,,2017_Dec_01_1327,59.9996535919,MAFE4ImagesEEG,001,201963,
AFNE01.JPG,AFNE01.JPG,AFNE01.JPG,AFNE01.JPG,AFNE01.JPG,AFNE01.JPG,,,,,,,,,,,,,,,,,1,8,18,5,,,,,,,AMNE06.jpg,AMSA20.jpg,AMNE13.jpg,AMSA03.jpg,AMSA20.jpg,MS,2,num_6,32,num_4,4.11651652865,,,2017_Dec_01_1327,59.9996535919,MAFE4ImagesEEG,001,201963,
AFNE01.JPG,AFNE01.JPG,AFNE01.JPG,AFNE01.JPG,AFNE01.JPG,AFNE01.JPG,,,,,,,,,,,,,,,,,1,9,19,6,,,,,,,AMSA01.jpg,AMSA03.jpg,AMNE06.jpg,AMNE17.jpg,AMNE06.jpg,MN,1,num_2,32,num_6,1.46673325205,,,2017_Dec_01_1327,59.9996535919,MAFE4ImagesEEG,001,201963,
AFNE01.JPG,AFNE01.JPG,AFNE01.JPG,AFNE01.JPG,AFNE01.JPG,AFNE01.JPG,,,,,,,,,,,,,,,,,2,0,20,6,,,,,,,AMNE07.jpg,AMNE10.jpg,AMSA09.jpg,AMSA18.jpg,AMSA09.jpg,MS,2,num_2,48,None,,,,2017_Dec_01_1327,59.9996535919,MAFE4ImagesEEG,001,201963,
AFNE01.JPG,AFNE01.JPG,AFNE01.JPG,AFNE01.JPG,AFNE01.JPG,AFNE01.JPG,,,,,,,,,,,,,,,,,2,1,21,2,,,,,,,AMSA07.jpg,AMNE03.jpg,AMNE18.jpg,AMSA20.jpg,AMNE03.jpg,MN,1,num_6,32,num_4,0.483514326508,,,2017_Dec_01_1327,59.9996535919,MAFE4ImagesEEG,001,201963,
AFNE01.JPG,AFNE01.JPG,AFNE01.JPG,AFNE01.JPG,AFNE01.JPG,AFNE01.JPG,,,,,,,,,,,,,,,,,2,2,22,0,,,,,,,AMSA11.jpg,AMSA18.jpg,AMNE19.jpg,AMNE01.jpg,AMSA18.jpg,MS,2,num_6,32,num_4,1.65007546998,,,2017_Dec_01_1327,59.9996535919,MAFE4ImagesEEG,001,201963,
AFNE01.JPG,AFNE01.JPG,AFNE01.JPG,AFNE01.JPG,AFNE01.JPG,AFNE01.JPG,,,,,,,,,,,,,,,,,2,3,23,9,,,,,,,AMSA18.jpg,AMSA04.jpg,AMNE06.jpg,AMNE02.jpg,AMSA04.jpg,MS,2,num_6,32,num_4,3.24977917108,,,2017_Dec_01_1327,59.9996535919,MAFE4ImagesEEG,001,201963,
AFNE01.JPG,AFNE01.JPG,AFNE01.JPG,AFNE01.JPG,AFNE01.JPG,AFNE01.JPG,,,,,,,,,,,,,,,,,2,4,24,4,,,,,,,AMSA13.jpg,AMSA17.jpg,AMNE17.jpg,AMNE16.jpg,AMNE17.jpg,MN,1,num_2,32,num_4,2.26662760065,,,2017_Dec_01_1327,59.9996535919,MAFE4ImagesEEG,001,201963,
AFNE01.JPG,AFNE01.JPG,AFNE01.JPG,AFNE01.JPG,AFNE01.JPG,AFNE01.JPG,,,,,,,,,,,,,,,,,2,5,25,3,,,,,,,AMSA07.jpg,AMSA03.jpg,AMNE13.jpg,AMNE18.jpg,AMSA07.jpg,MS,2,num_8,48,None,,,,2017_Dec_01_1327,59.9996535919,MAFE4ImagesEEG,001,201963,
AFNE01.JPG,AFNE01.JPG,AFNE01.JPG,AFNE01.JPG,AFNE01.JPG,AFNE01.JPG,,,,,,,,,,,,,,,,,2,6,26,7,,,,,,,AMSA07.jpg,AMNE13.jpg,AMSA15.jpg,AMNE07.jpg,AMNE13.jpg,MN,1,num_6,16,num_6,1.13344257709,,,2017_Dec_01_1327,59.9996535919,MAFE4ImagesEEG,001,201963,
AFNE01.JPG,AFNE01.JPG,AFNE01.JPG,AFNE01.JPG,AFNE01.JPG,AFNE01.JPG,,,,,,,,,,,,,,,,,2,7,27,8,,,,,,,AMNE12.jpg,AMSA16.jpg,AMNE10.jpg,AMSA17.jpg,AMNE10.jpg,MN,1,num_2,32,num_6,2.00034287025,,,2017_Dec_01_1327,59.9996535919,MAFE4ImagesEEG,001,201963,
AFNE01.JPG,AFNE01.JPG,AFNE01.JPG,AFNE01.JPG,AFNE01.JPG,AFNE01.JPG,,,,,,,,,,,,,,,,,2,8,28,5,,,,,,,AMSA12.jpg,AMNE03.jpg,AMNE14.jpg,AMSA13.jpg,AMSA13.jpg,MS,2,num_4,32,num_6,3.81650094083,,,2017_Dec_01_1327,59.9996535919,MAFE4ImagesEEG,001,201963,
AFNE01.JPG,AFNE01.JPG,AFNE01.JPG,AFNE01.JPG,AFNE01.JPG,AFNE01.JPG,,,,,,,,,,,,,,,,,2,9,29,1,,,,,,,AMSA20.jpg,AMSA16.jpg,AMNE01.jpg,AMNE17.jpg,AMSA16.jpg,MS,2,num_6,32,num_4,3.73318188032,,,2017_Dec_01_1327,59.9996535919,MAFE4ImagesEEG,001,201963,
AFNE01.JPG,AFNE01.JPG,AFNE01.JPG,AFNE01.JPG,AFNE01.JPG,AFNE01.JPG,,,,,,,,,,,,,,,,,3,0,30,5,,,,,,,AMNE15.jpg,AMSA14.jpg,AMSA20.jpg,AMNE13.jpg,AMNE15.jpg,MN,1,num_8,32,num_4,3.41656836006,,,2017_Dec_01_1327,59.9996535919,MAFE4ImagesEEG,001,201963,
AFNE01.JPG,AFNE01.JPG,AFNE01.JPG,AFNE01.JPG,AFNE01.JPG,AFNE01.JPG,,,,,,,,,,,,,,,,,3,1,31,7,,,,,,,AMSA07.jpg,AMSA12.jpg,AMNE19.jpg,AMNE05.jpg,AMSA07.jpg,MS,2,num_8,32,num_4,4.16681837628,,,2017_Dec_01_1327,59.9996535919,MAFE4ImagesEEG,001,201963,
AFNE01.JPG,AFNE01.JPG,AFNE01.JPG,AFNE01.JPG,AFNE01.JPG,AFNE01.JPG,,,,,,,,,,,,,,,,,3,2,32,8,,,,,,,AMNE20.jpg,AMNE12.jpg,AMSA08.jpg,AMSA01.jpg,AMNE20.jpg,MN,1,num_8,32,num_6,2.63330145192,,,2017_Dec_01_1327,59.9996535919,MAFE4ImagesEEG,001,201963,
AFNE01.JPG,AFNE01.JPG,AFNE01.JPG,AFNE01.JPG,AFNE01.JPG,AFNE01.JPG,,,,,,,,,,,,,,,,,3,3,33,2,,,,,,,AMNE01.jpg,AMNE17.jpg,AMSA01.jpg,AMSA16.jpg,AMSA01.jpg,MS,2,num_2,32,num_4,2.39996786194,,,2017_Dec_01_1327,59.9996535919,MAFE4ImagesEEG,001,201963,
AFNE01.JPG,AFNE01.JPG,AFNE01.JPG,AFNE01.JPG,AFNE01.JPG,AFNE01.JPG,,,,,,,,,,,,,,,,,3,4,34,6,,,,,,,AMNE18.jpg,AMNE03.jpg,AMSA04.jpg,AMSA07.jpg,AMSA04.jpg,MS,2,num_2,32,num_6,4.11655213078,,,2017_Dec_01_1327,59.9996535919,MAFE4ImagesEEG,001,201963,
AFNE01.JPG,AFNE01.JPG,AFNE01.JPG,AFNE01.JPG,AFNE01.JPG,AFNE01.JPG,,,,,,,,,,,,,,,,,3,5,35,1,,,,,,,AMNE15.jpg,AMNE02.jpg,AMSA15.jpg,AMSA19.jpg,AMNE02.jpg,MN,1,num_6,32,num_8,2.23332332633,,,2017_Dec_01_1327,59.9996535919,MAFE4ImagesEEG,001,201963,
AFNE01.JPG,AFNE01.JPG,AFNE01.JPG,AFNE01.JPG,AFNE01.JPG,AFNE01.JPG,,,,,,,,,,,,,,,,,3,6,36,4,,,,,,,AMNE15.jpg,AMSA13.jpg,AMNE06.jpg,AMSA15.jpg,AMNE06.jpg,MN,1,num_2,32,num_6,1.20009538776,,,2017_Dec_01_1327,59.9996535919,MAFE4ImagesEEG,001,201963,
AFNE01.JPG,AFNE01.JPG,AFNE01.JPG,AFNE01.JPG,AFNE01.JPG,AFNE01.JPG,,,,,,,,,,,,,,,,,3,7,37,9,,,,,,,AMSA17.jpg,AMNE20.jpg,AMNE13.jpg,AMSA04.jpg,AMSA04.jpg,MS,2,num_4,32,num_8,1.25008194894,,,2017_Dec_01_1327,59.9996535919,MAFE4ImagesEEG,001,201963,
AFNE01.JPG,AFNE01.JPG,AFNE01.JPG,AFNE01.JPG,AFNE01.JPG,AFNE01.JPG,,,,,,,,,,,,,,,,,3,8,38,3,,,,,,,AMSA13.jpg,AMNE02.jpg,AMSA06.jpg,AMNE18.jpg,AMNE02.jpg,MN,1,num_6,32,num_8,0.0668279343517,,,2017_Dec_01_1327,59.9996535919,MAFE4ImagesEEG,001,201963,
AFNE01.JPG,AFNE01.JPG,AFNE01.JPG,AFNE01.JPG,AFNE01.JPG,AFNE01.JPG,,,,,,,,,,,,,,,,,3,9,39,0,,,,,,,AMSA08.jpg,AMSA15.jpg,AMNE01.jpg,AMNE11.jpg,AMSA08.jpg,MS,2,num_8,48,None,,,,2017_Dec_01_1327,59.9996535919,MAFE4ImagesEEG,001,201963,
AFNE01.JPG,AFNE01.JPG,AFNE01.JPG,AFNE01.JPG,AFNE01.JPG,AFNE01.JPG,,,,,,,,,,,,,,,,,4,0,40,3,,,,,,,AMNE09.jpg,AMSA04.jpg,AMSA03.jpg,AMNE03.jpg,AMNE09.jpg,MN,1,num_8,48,None,,,,2017_Dec_01_1327,59.9996535919,MAFE4ImagesEEG,001,201963,
AFNE01.JPG,AFNE01.JPG,AFNE01.JPG,AFNE01.JPG,AFNE01.JPG,AFNE01.JPG,,,,,,,,,,,,,,,,,4,1,41,7,,,,,,,AMSA08.jpg,AMNE11.jpg,AMSA14.jpg,AMNE17.jpg,AMSA08.jpg,MS,2,num_8,16,num_8,3.16661117878,,,2017_Dec_01_1327,59.9996535919,MAFE4ImagesEEG,001,201963,
AFNE01.JPG,AFNE01.JPG,AFNE01.JPG,AFNE01.JPG,AFNE01.JPG,AFNE01.JPG,,,,,,,,,,,,,,,,,4,2,42,4,,,,,,,AMNE02.jpg,AMSA01.jpg,AMSA14.jpg,AMNE15.jpg,AMSA14.jpg,MS,2,num_2,32,num_6,0.383588032331,,,2017_Dec_01_1327,59.9996535919,MAFE4ImagesEEG,001,201963,
AFNE01.JPG,AFNE01.JPG,AFNE01.JPG,AFNE01.JPG,AFNE01.JPG,AFNE01.JPG,,,,,,,,,,,,,,,,,4,3,43,1,,,,,,,AMNE08.jpg,AMSA19.jpg,AMNE03.jpg,AMSA05.jpg,AMNE03.jpg,MN,1,num_2,16,num_2,1.71696081653,,,2017_Dec_01_1327,59.9996535919,MAFE4ImagesEEG,001,201963,
AFNE01.JPG,AFNE01.JPG,AFNE01.JPG,AFNE01.JPG,AFNE01.JPG,AFNE01.JPG,,,,,,,,,,,,,,,,,4,4,44,6,,,,,,,AMSA15.jpg,AMNE08.jpg,AMSA19.jpg,AMNE20.jpg,AMNE20.jpg,MN,1,num_4,16,num_4,1.58337839728,,,2017_Dec_01_1327,59.9996535919,MAFE4ImagesEEG,001,201963,
AFNE01.JPG,AFNE01.JPG,AFNE01.JPG,AFNE01.JPG,AFNE01.JPG,AFNE01.JPG,,,,,,,,,,,,,,,,,4,5,45,5,,,,,,,AMNE11.jpg,AMNE10.jpg,AMSA07.jpg,AMSA20.jpg,AMNE11.jpg,MN,1,num_8,32,num_6,0.933456882136,,,2017_Dec_01_1327,59.9996535919,MAFE4ImagesEEG,001,201963,
AFNE01.JPG,AFNE01.JPG,AFNE01.JPG,AFNE01.JPG,AFNE01.JPG,AFNE01.JPG,,,,,,,,,,,,,,,,,4,6,46,0,,,,,,,AMSA17.jpg,AMSA07.jpg,AMNE15.jpg,AMNE06.jpg,AMNE15.jpg,MN,1,num_2,32,num_8,0.88349533861,,,2017_Dec_01_1327,59.9996535919,MAFE4ImagesEEG,001,201963,
AFNE01.JPG,AFNE01.JPG,AFNE01.JPG,AFNE01.JPG,AFNE01.JPG,AFNE01.JPG,,,,,,,,,,,,,,,,,4,7,47,9,,,,,,,AMNE10.jpg,AMNE05.jpg,AMSA10.jpg,AMSA14.jpg,AMNE10.jpg,MN,1,num_8,32,num_6,0.850207742769,,,2017_Dec_01_1327,59.9996535919,MAFE4ImagesEEG,001,201963,
AFNE01.JPG,AFNE01.JPG,AFNE01.JPG,AFNE01.JPG,AFNE01.JPG,AFNE01.JPG,,,,,,,,,,,,,,,,,4,8,48,8,,,,,,,AMNE06.jpg,AMNE03.jpg,AMSA02.jpg,AMSA07.jpg,AMNE03.jpg,MN,1,num_6,16,num_6,0.483502459014,,,2017_Dec_01_1327,59.9996535919,MAFE4ImagesEEG,001,201963,
AFNE01.JPG,AFNE01.JPG,AFNE01.JPG,AFNE01.JPG,AFNE01.JPG,AFNE01.JPG,,,,,,,,,,,,,,,,,4,9,49,2,,,,,,,AMNE04.jpg,AMSA18.jpg,AMNE03.jpg,AMSA19.jpg,AMNE03.jpg,MN,1,num_2,32,num_4,0.866793807596,,,2017_Dec_01_1327,59.9996535919,MAFE4ImagesEEG,001,201963,
AFNE01.JPG,AFNE01.JPG,AFNE01.JPG,AFNE01.JPG,AFNE01.JPG,AFNE01.JPG,,,,,,,,,,,,,,,,,5,0,50,9,,,,,,,AMNE03.jpg,AMSA04.jpg,AMSA05.jpg,AMNE07.jpg,AMSA04.jpg,MS,2,num_6,16,num_6,0.93345207104,,,2017_Dec_01_1327,59.9996535919,MAFE4ImagesEEG,001,201963,
AFNE01.JPG,AFNE01.JPG,AFNE01.JPG,AFNE01.JPG,AFNE01.JPG,AFNE01.JPG,,,,,,,,,,,,,,,,,5,1,51,7,,,,,,,AMSA05.jpg,AMNE10.jpg,AMNE18.jpg,AMSA04.jpg,AMNE18.jpg,MN,1,num_2,32,num_6,0.533462719526,,,2017_Dec_01_1327,59.9996535919,MAFE4ImagesEEG,001,201963,
AFNE01.JPG,AFNE01.JPG,AFNE01.JPG,AFNE01.JPG,AFNE01.JPG,AFNE01.JPG,,,,,,,,,,,,,,,,,5,2,52,1,,,,,,,AMSA02.jpg,AMSA18.jpg,AMNE10.jpg,AMNE18.jpg,AMNE10.jpg,MN,1,num_2,32,num_8,0.466811833205,,,2017_Dec_01_1327,59.9996535919,MAFE4ImagesEEG,001,201963,
AFNE01.JPG,AFNE01.JPG,AFNE01.JPG,AFNE01.JPG,AFNE01.JPG,AFNE01.JPG,,,,,,,,,,,,,,,,,5,3,53,2,,,,,,,AMNE08.jpg,AMSA12.jpg,AMNE07.jpg,AMSA13.jpg,AMNE08.jpg,MN,1,num_8,16,num_8,2.31665585784,,,2017_Dec_01_1327,59.9996535919,MAFE4ImagesEEG,001,201963,
AFNE01.JPG,AFNE01.JPG,AFNE01.JPG,AFNE01.JPG,AFNE01.JPG,AFNE01.JPG,,,,,,,,,,,,,,,,,5,4,54,6,,,,,,,AMNE08.jpg,AMNE05.jpg,AMSA11.jpg,AMSA05.jpg,AMSA11.jpg,MS,2,num_2,32,num_6,3.01680320536,,,2017_Dec_01_1327,59.9996535919,MAFE4ImagesEEG,001,201963,
AFNE01.JPG,AFNE01.JPG,AFNE01.JPG,AFNE01.JPG,AFNE01.JPG,AFNE01.JPG,,,,,,,,,,,,,,,,,5,5,55,3,,,,,,,AMNE18.jpg,AMSA15.jpg,AMNE12.jpg,AMSA12.jpg,AMSA12.jpg,MS,2,num_4,16,num_4,2.43334750994,,,2017_Dec_01_1327,59.9996535919,MAFE4ImagesEEG,001,201963,
AFNE01.JPG,AFNE01.JPG,AFNE01.JPG,AFNE01.JPG,AFNE01.JPG,AFNE01.JPG,,,,,,,,,,,,,,,,,5,6,56,4,,,,,,,AMSA10.jpg,AMSA05.jpg,AMNE15.jpg,AMNE03.jpg,AMNE03.jpg,MN,1,num_4,16,num_4,0.133520837524,,,2017_Dec_01_1327,59.9996535919,MAFE4ImagesEEG,001,201963,
AFNE01.JPG,AFNE01.JPG,AFNE01.JPG,AFNE01.JPG,AFNE01.JPG,AFNE01.JPG,,,,,,,,,,,,,,,,,5,7,57,0,,,,,,,AMNE12.jpg,AMSA13.jpg,AMNE03.jpg,AMSA20.jpg,AMNE03.jpg,MN,1,num_2,32,num_4,2.91669793881,,,2017_Dec_01_1327,59.9996535919,MAFE4ImagesEEG,001,201963,
AFNE01.JPG,AFNE01.JPG,AFNE01.JPG,AFNE01.JPG,AFNE01.JPG,AFNE01.JPG,,,,,,,,,,,,,,,,,5,8,58,5,,,,,,,AMSA17.jpg,AMSA04.jpg,AMNE18.jpg,AMNE19.jpg,AMNE19.jpg,MN,1,num_4,16,num_4,3.03330331214,,,2017_Dec_01_1327,59.9996535919,MAFE4ImagesEEG,001,201963,
AFNE01.JPG,AFNE01.JPG,AFNE01.JPG,AFNE01.JPG,AFNE01.JPG,AFNE01.JPG,,,,,,,,,,,,,,,,,5,9,59,8,,,,,,,AMNE17.jpg,AMSA13.jpg,AMSA06.jpg,AMNE04.jpg,AMSA06.jpg,MS,2,num_2,32,num_4,3.88318486314,,,2017_Dec_01_1327,59.9996535919,MAFE4ImagesEEG,001,201963,
,,,,,,,,,,,,,,,,,,,,,,,,,,,,,,,,,,,,,,,,,,,space,5.68261895084,2017_Dec_01_1327,59.9996535919,MAFE4ImagesEEG,001,201963,
AFNE01.JPG,AFNE01.JPG,AFNE01.JPG,AFNE01.JPG,AFNE01.JPG,AFNE01.JPG,,,,,,,,,,,,,,,,,,,,,0,0,0,4,,,AFSA18.jpg,AFNE13.jpg,AFNE17.jpg,AFSA10.jpg,AFSA18.jpg,FS,4,num_8,32,num_6,1.93346201396,,,2017_Dec_01_1327,59.9996535919,MAFE4ImagesEEG,001,201963,
AFNE01.JPG,AFNE01.JPG,AFNE01.JPG,AFNE01.JPG,AFNE01.JPG,AFNE01.JPG,,,,,,,,,,,,,,,,,,,,,0,1,1,6,,,AFNE03.jpg,AFNE15.jpg,AFSA20.jpg,AFSA11.jpg,AFSA11.jpg,FS,4,num_4,16,num_4,0.533509868197,,,2017_Dec_01_1327,59.9996535919,MAFE4ImagesEEG,001,201963,
AFNE01.JPG,AFNE01.JPG,AFNE01.JPG,AFNE01.JPG,AFNE01.JPG,AFNE01.JPG,,,,,,,,,,,,,,,,,,,,,0,2,2,8,,,AFNE07.jpg,AFNE20.jpg,AFSA19.jpg,AFSA07.jpg,AFNE07.jpg,FN,3,num_8,32,num_6,2.13359973929,,,2017_Dec_01_1327,59.9996535919,MAFE4ImagesEEG,001,201963,
AFNE01.JPG,AFNE01.JPG,AFNE01.JPG,AFNE01.JPG,AFNE01.JPG,AFNE01.JPG,,,,,,,,,,,,,,,,,,,,,0,3,3,0,,,AFSA19.jpg,AFNE12.jpg,AFSA02.jpg,AFNE15.jpg,AFNE15.jpg,FN,3,num_4,32,num_8,0.850139425253,,,2017_Dec_01_1327,59.9996535919,MAFE4ImagesEEG,001,201963,
AFNE01.JPG,AFNE01.JPG,AFNE01.JPG,AFNE01.JPG,AFNE01.JPG,AFNE01.JPG,,,,,,,,,,,,,,,,,,,,,0,4,4,7,,,AFSA07.jpg,AFNE05.jpg,AFSA20.jpg,AFNE15.jpg,AFNE05.jpg,FN,3,num_6,32,num_2,0.583493863232,,,2017_Dec_01_1327,59.9996535919,MAFE4ImagesEEG,001,201963,
AFNE01.JPG,AFNE01.JPG,AFNE01.JPG,AFNE01.JPG,AFNE01.JPG,AFNE01.JPG,,,,,,,,,,,,,,,,,,,,,0,5,5,3,,,AFNE09.jpg,AFSA01.jpg,AFNE17.jpg,AFSA16.jpg,AFNE17.jpg,FN,3,num_2,16,num_2,0.400014369166,,,2017_Dec_01_1327,59.9996535919,MAFE4ImagesEEG,001,201963,
AFNE01.JPG,AFNE01.JPG,AFNE01.JPG,AFNE01.JPG,AFNE01.JPG,AFNE01.JPG,,,,,,,,,,,,,,,,,,,,,0,6,6,5,,,AFSA12.jpg,AFNE08.jpg,AFNE06.jpg,AFSA19.jpg,AFNE06.jpg,FN,3,num_2,16,num_2,1.61673463124,,,2017_Dec_01_1327,59.9996535919,MAFE4ImagesEEG,001,201963,
AFNE01.JPG,AFNE01.JPG,AFNE01.JPG,AFNE01.JPG,AFNE01.JPG,AFNE01.JPG,,,,,,,,,,,,,,,,,,,,,0,7,7,2,,,AFNE19.jpg,AFSA01.jpg,AFSA16.jpg,AFNE04.jpg,AFSA01.jpg,FS,4,num_6,32,num_8,3.050032106,,,2017_Dec_01_1327,59.9996535919,MAFE4ImagesEEG,001,201963,
AFNE01.JPG,AFNE01.JPG,AFNE01.JPG,AFNE01.JPG,AFNE01.JPG,AFNE01.JPG,,,,,,,,,,,,,,,,,,,,,0,8,8,9,,,AFNE12.jpg,AFSA18.jpg,AFNE02.jpg,AFSA09.jpg,AFNE02.jpg,FN,3,num_2,32,num_6,2.03336746001,,,2017_Dec_01_1327,59.9996535919,MAFE4ImagesEEG,001,201963,
AFNE01.JPG,AFNE01.JPG,AFNE01.JPG,AFNE01.JPG,AFNE01.JPG,AFNE01.JPG,,,,,,,,,,,,,,,,,,,,,0,9,9,1,,,AFNE02.jpg,AFSA04.jpg,AFNE03.jpg,AFSA12.jpg,AFSA12.jpg,FS,4,num_4,48,None,,,,2017_Dec_01_1327,59.9996535919,MAFE4ImagesEEG,001,201963,
AFNE01.JPG,AFNE01.JPG,AFNE01.JPG,AFNE01.JPG,AFNE01.JPG,AFNE01.JPG,,,,,,,,,,,,,,,,,,,,,1,0,10,0,,,AFNE01.jpg,AFSA16.jpg,AFSA06.jpg,AFNE05.jpg,AFSA06.jpg,FS,4,num_2,16,num_2,2.35007944703,,,2017_Dec_01_1327,59.9996535919,MAFE4ImagesEEG,001,201963,
AFNE01.JPG,AFNE01.JPG,AFNE01.JPG,AFNE01.JPG,AFNE01.JPG,AFNE01.JPG,,,,,,,,,,,,,,,,,,,,,1,1,11,4,,,AFSA19.jpg,AFSA05.jpg,AFNE07.jpg,AFNE02.jpg,AFSA05.jpg,FS,4,num_6,48,None,,,,2017_Dec_01_1327,59.9996535919,MAFE4ImagesEEG,001,201963,
AFNE01.JPG,AFNE01.JPG,AFNE01.JPG,AFNE01.JPG,AFNE01.JPG,AFNE01.JPG,,,,,,,,,,,,,,,,,,,,,1,2,12,7,,,AFNE12.jpg,AFSA08.jpg,AFNE19.jpg,AFSA11.jpg,AFSA08.jpg,FS,4,num_6,16,num_6,2.13336976932,,,2017_Dec_01_1327,59.9996535919,MAFE4ImagesEEG,001,201963,
AFNE01.JPG,AFNE01.JPG,AFNE01.JPG,AFNE01.JPG,AFNE01.JPG,AFNE01.JPG,,,,,,,,,,,,,,,,,,,,,1,3,13,3,,,AFNE18.jpg,AFNE20.jpg,AFSA01.jpg,AFSA04.jpg,AFSA01.jpg,FS,4,num_2,48,None,,,,2017_Dec_01_1327,59.9996535919,MAFE4ImagesEEG,001,201963,
AFNE01.JPG,AFNE01.JPG,AFNE01.JPG,AFNE01.JPG,AFNE01.JPG,AFNE01.JPG,,,,,,,,,,,,,,,,,,,,,1,4,14,8,,,AFNE05.jpg,AFNE04.jpg,AFSA15.jpg,AFSA12.jpg,AFSA15.jpg,FS,4,num_2,32,num_6,2.05006065173,,,2017_Dec_01_1327,59.9996535919,MAFE4ImagesEEG,001,201963,
AFNE01.JPG,AFNE01.JPG,AFNE01.JPG,AFNE01.JPG,AFNE01.JPG,AFNE01.JPG,,,,,,,,,,,,,,,,,,,,,1,5,15,6,,,AFSA01.jpg,AFSA11.jpg,AFNE14.jpg,AFNE02.jpg,AFSA11.jpg,FS,4,num_6,48,None,,,,2017_Dec_01_1327,59.9996535919,MAFE4ImagesEEG,001,201963,
AFNE01.JPG,AFNE01.JPG,AFNE01.JPG,AFNE01.JPG,AFNE01.JPG,AFNE01.JPG,,,,,,,,,,,,,,,,,,,,,1,6,16,9,,,AFNE01.jpg,AFSA18.jpg,AFNE05.jpg,AFSA07.jpg,AFNE05.jpg,FN,3,num_2,32,num_6,0.0835390875582,,,2017_Dec_01_1327,59.9996535919,MAFE4ImagesEEG,001,201963,
AFNE01.JPG,AFNE01.JPG,AFNE01.JPG,AFNE01.JPG,AFNE01.JPG,AFNE01.JPG,,,,,,,,,,,,,,,,,,,,,1,7,17,2,,,AFNE08.jpg,AFNE20.jpg,AFSA14.jpg,AFSA07.jpg,AFNE20.jpg,FN,3,num_6,16,num_6,0.400193020818,,,2017_Dec_01_1327,59.9996535919,MAFE4ImagesEEG,001,201963,
AFNE01.JPG,AFNE01.JPG,AFNE01.JPG,AFNE01.JPG,AFNE01.JPG,AFNE01.JPG,,,,,,,,,,,,,,,,,,,,,1,8,18,5,,,AFNE07.jpg,AFNE19.jpg,AFSA11.jpg,AFSA12.jpg,AFSA11.jpg,FS,4,num_2,48,None,,,,2017_Dec_01_1327,59.9996535919,MAFE4ImagesEEG,001,201963,
AFNE01.JPG,AFNE01.JPG,AFNE01.JPG,AFNE01.JPG,AFNE01.JPG,AFNE01.JPG,,,,,,,,,,,,,,,,,,,,,1,9,19,1,,,AFNE13.jpg,AFSA03.jpg,AFNE15.jpg,AFSA15.jpg,AFSA15.jpg,FS,4,num_4,32,num_8,3.66655408719,,,2017_Dec_01_1327,59.9996535919,MAFE4ImagesEEG,001,201963,
AFNE01.JPG,AFNE01.JPG,AFNE01.JPG,AFNE01.JPG,AFNE01.JPG,AFNE01.JPG,,,,,,,,,,,,,,,,,,,,,2,0,20,6,,,AFNE16.jpg,AFSA05.jpg,AFNE12.jpg,AFSA07.jpg,AFNE16.jpg,FN,3,num_8,48,None,,,,2017_Dec_01_1327,59.9996535919,MAFE4ImagesEEG,001,201963,
AFNE01.JPG,AFNE01.JPG,AFNE01.JPG,AFNE01.JPG,AFNE01.JPG,AFNE01.JPG,,,,,,,,,,,,,,,,,,,,,2,1,21,9,,,AFSA15.jpg,AFNE12.jpg,AFNE17.jpg,AFSA08.jpg,AFNE17.jpg,FN,3,num_2,32,num_6,4.283149197,,,2017_Dec_01_1327,59.9996535919,MAFE4ImagesEEG,001,201963,
AFNE01.JPG,AFNE01.JPG,AFNE01.JPG,AFNE01.JPG,AFNE01.JPG,AFNE01.JPG,,,,,,,,,,,,,,,,,,,,,2,2,22,7,,,AFSA19.jpg,AFNE16.jpg,AFSA10.jpg,AFNE07.jpg,AFNE16.jpg,FN,3,num_6,32,num_2,4.68333002971,,,2017_Dec_01_1327,59.9996535919,MAFE4ImagesEEG,001,201963,
AFNE01.JPG,AFNE01.JPG,AFNE01.JPG,AFNE01.JPG,AFNE01.JPG,AFNE01.JPG,,,,,,,,,,,,,,,,,,,,,2,3,23,1,,,AFNE20.jpg,AFNE11.jpg,AFSA04.jpg,AFSA07.jpg,AFNE11.jpg,FN,3,num_6,32,num_2,1.31675528688,,,2017_Dec_01_1327,59.9996535919,MAFE4ImagesEEG,001,201963,
AFNE01.JPG,AFNE01.JPG,AFNE01.JPG,AFNE01.JPG,AFNE01.JPG,AFNE01.JPG,,,,,,,,,,,,,,,,,,,,,2,4,24,0,,,AFSA10.jpg,AFSA07.jpg,AFNE17.jpg,AFNE13.jpg,AFNE17.jpg,FN,3,num_2,48,None,,,,2017_Dec_01_1327,59.9996535919,MAFE4ImagesEEG,001,201963,
AFNE01.JPG,AFNE01.JPG,AFNE01.JPG,AFNE01.JPG,AFNE01.JPG,AFNE01.JPG,,,,,,,,,,,,,,,,,,,,,2,5,25,4,,,AFSA05.jpg,AFSA18.jpg,AFNE14.jpg,AFNE04.jpg,AFSA18.jpg,FS,4,num_6,32,num_4,0.683513813303,,,2017_Dec_01_1327,59.9996535919,MAFE4ImagesEEG,001,201963,
AFNE01.JPG,AFNE01.JPG,AFNE01.JPG,AFNE01.JPG,AFNE01.JPG,AFNE01.JPG,,,,,,,,,,,,,,,,,,,,,2,6,26,8,,,AFSA09.jpg,AFNE07.jpg,AFNE08.jpg,AFSA13.jpg,AFNE07.jpg,FN,3,num_6,32,num_2,3.63308976404,,,2017_Dec_01_1327,59.9996535919,MAFE4ImagesEEG,001,201963,
AFNE01.JPG,AFNE01.JPG,AFNE01.JPG,AFNE01.JPG,AFNE01.JPG,AFNE01.JPG,,,,,,,,,,,,,,,,,,,,,2,7,27,2,,,AFSA08.jpg,AFNE10.jpg,AFNE16.jpg,AFSA06.jpg,AFNE10.jpg,FN,3,num_6,48,None,,,,2017_Dec_01_1327,59.9996535919,MAFE4ImagesEEG,001,201963,
AFNE01.JPG,AFNE01.JPG,AFNE01.JPG,AFNE01.JPG,AFNE01.JPG,AFNE01.JPG,,,,,,,,,,,,,,,,,,,,,2,8,28,5,,,AFNE02.jpg,AFSA03.jpg,AFSA12.jpg,AFNE06.jpg,AFSA03.jpg,FS,4,num_6,16,num_6,4.1665226547,,,2017_Dec_01_1327,59.9996535919,MAFE4ImagesEEG,001,201963,
AFNE01.JPG,AFNE01.JPG,AFNE01.JPG,AFNE01.JPG,AFNE01.JPG,AFNE01.JPG,,,,,,,,,,,,,,,,,,,,,2,9,29,3,,,AFSA17.jpg,AFNE09.jpg,AFNE17.jpg,AFSA14.jpg,AFNE09.jpg,FN,3,num_6,16,num_6,0.683305332786,,,2017_Dec_01_1327,59.9996535919,MAFE4ImagesEEG,001,201963,
AFNE01.JPG,AFNE01.JPG,AFNE01.JPG,AFNE01.JPG,AFNE01.JPG,AFNE01.JPG,,,,,,,,,,,,,,,,,,,,,3,0,30,3,,,AFNE01.jpg,AFNE16.jpg,AFSA11.jpg,AFSA01.jpg,AFNE01.jpg,FN,3,num_8,32,num_4,0.400213868823,,,2017_Dec_01_1327,59.9996535919,MAFE4ImagesEEG,001,201963,
AFNE01.JPG,AFNE01.JPG,AFNE01.JPG,AFNE01.JPG,AFNE01.JPG,AFNE01.JPG,,,,,,,,,,,,,,,,,,,,,3,1,31,5,,,AFNE19.jpg,AFNE06.jpg,AFSA11.jpg,AFSA14.jpg,AFNE06.jpg,FN,3,num_6,32,num_2,0.633572155726,,,2017_Dec_01_1327,59.9996535919,MAFE4ImagesEEG,001,201963,
AFNE01.JPG,AFNE01.JPG,AFNE01.JPG,AFNE01.JPG,AFNE01.JPG,AFNE01.JPG,,,,,,,,,,,,,,,,,,,,,3,2,32,2,,,AFSA07.jpg,AFNE01.jpg,AFNE08.jpg,AFSA10.jpg,AFSA10.jpg,FS,4,num_4,32,num_2,1.15014731558,,,2017_Dec_01_1327,59.9996535919,MAFE4ImagesEEG,001,201963,
AFNE01.JPG,AFNE01.JPG,AFNE01.JPG,AFNE01.JPG,AFNE01.JPG,AFNE01.JPG,,,,,,,,,,,,,,,,,,,,,3,3,33,4,,,AFNE15.jpg,AFNE03.jpg,AFSA02.jpg,AFSA04.jpg,AFSA04.jpg,FS,4,num_4,32,num_2,0.316850225674,,,2017_Dec_01_1327,59.9996535919,MAFE4ImagesEEG,001,201963,
AFNE01.JPG,AFNE01.JPG,AFNE01.JPG,AFNE01.JPG,AFNE01.JPG,AFNE01.JPG,,,,,,,,,,,,,,,,,,,,,3,4,34,6,,,AFSA08.jpg,AFNE16.jpg,AFNE04.jpg,AFSA11.jpg,AFNE16.jpg,FN,3,num_6,16,num_6,4.25012332422,,,2017_Dec_01_1327,59.9996535919,MAFE4ImagesEEG,001,201963,
AFNE01.JPG,AFNE01.JPG,AFNE01.JPG,AFNE01.JPG,AFNE01.JPG,AFNE01.JPG,,,,,,,,,,,,,,,,,,,,,3,5,35,0,,,AFSA05.jpg,AFNE02.jpg,AFNE18.jpg,AFSA17.jpg,AFNE18.jpg,FN,3,num_2,32,num_4,0.616792685119,,,2017_Dec_01_1327,59.9996535919,MAFE4ImagesEEG,001,201963,
AFNE01.JPG,AFNE01.JPG,AFNE01.JPG,AFNE01.JPG,AFNE01.JPG,AFNE01.JPG,,,,,,,,,,,,,,,,,,,,,3,6,36,7,,,AFNE17.jpg,AFSA14.jpg,AFSA13.jpg,AFNE18.jpg,AFSA13.jpg,FS,4,num_2,16,num_2,1.15017425758,,,2017_Dec_01_1327,59.9996535919,MAFE4ImagesEEG,001,201963,
AFNE01.JPG,AFNE01.JPG,AFNE01.JPG,AFNE01.JPG,AFNE01.JPG,AFNE01.JPG,,,,,,,,,,,,,,,,,,,,,3,7,37,9,,,AFSA12.jpg,AFNE17.jpg,AFNE07.jpg,AFSA15.jpg,AFNE17.jpg,FN,3,num_6,32,num_8,0.450157130137,,,2017_Dec_01_1327,59.9996535919,MAFE4ImagesEEG,001,201963,
AFNE01.JPG,AFNE01.JPG,AFNE01.JPG,AFNE01.JPG,AFNE01.JPG,AFNE01.JPG,,,,,,,,,,,,,,,,,,,,,3,8,38,8,,,AFSA20.jpg,AFNE07.jpg,AFSA05.jpg,AFNE14.jpg,AFNE07.jpg,FN,3,num_6,16,num_6,0.383477697964,,,2017_Dec_01_1327,59.9996535919,MAFE4ImagesEEG,001,201963,
AFNE01.JPG,AFNE01.JPG,AFNE01.JPG,AFNE01.JPG,AFNE01.JPG,AFNE01.JPG,,,,,,,,,,,,,,,,,,,,,3,9,39,1,,,AFNE14.jpg,AFSA01.jpg,AFSA04.jpg,AFNE01.jpg,AFNE14.jpg,FN,3,num_8,32,num_2,0.316834188765,,,2017_Dec_01_1327,59.9996535919,MAFE4ImagesEEG,001,201963,
