IPosition2,IPosition3,IPosition1,IPosition6,IPosition4,IPosition5,TrialsM1.thisRepN,TrialsM1.thisTrialN,TrialsM1.thisN,TrialsM1.thisIndex,TrialsF1.thisRepN,TrialsF1.thisTrialN,TrialsF1.thisN,TrialsF1.thisIndex,TrialsM2.thisRepN,TrialsM2.thisTrialN,TrialsM2.thisN,TrialsM2.thisIndex,TrialsF2.thisRepN,TrialsF2.thisTrialN,TrialsF2.thisN,TrialsF2.thisIndex,TrialsM3.thisRepN,TrialsM3.thisTrialN,TrialsM3.thisN,TrialsM3.thisIndex,TrialsF3.thisRepN,TrialsF3.thisTrialN,TrialsF3.thisN,TrialsF3.thisIndex,InstrKey_resp.keys,InstrKey_resp.rt,Image0 _Position,Image1 _Position,Image2 _Position,Image3 _Position,Center_image,condition,code,correct_answer,accuracy,Key_Resp.keys,Key_Resp.rt,BreakKey_resp.keys,BreakKey_resp.rt,date,frameRate,expName,session,participant,
,,,,,,,,,,,,,,,,,,,,,,,,,,,,,,space,5.39984970118,,,,,,,,,,,,,,2017_Oct_05_1422,59.9322400795,MAFE4ImagesEEG,001,201920,
AFNE22.JPG,AFSA24.JPG,AFSA22.JPG,AFNE25.JPG,AFNE24.JPG,AFSA25.JPG,0,0,0,6,,,,,,,,,,,,,,,,,,,,,,,AMSA18.jpg,AMNE05.jpg,AMSA05.jpg,AMNE08.jpg,AMSA18.jpg,MS,2,num_8,16,num_8,2.65024990466,,,2017_Oct_05_1422,59.9322400795,MAFE4ImagesEEG,001,201920,
AFSA21.JPG,AFNE22.JPG,AFNE21.JPG,AFSA23.JPG,AFSA22.JPG,AFNE23.JPG,0,1,1,0,,,,,,,,,,,,,,,,,,,,,,,AMNE01.jpg,AMSA20.jpg,AMSA17.jpg,AMNE14.jpg,AMNE14.jpg,MN,1,num_4,16,num_4,0.533462335006,,,2017_Oct_05_1422,59.9322400795,MAFE4ImagesEEG,001,201920,
AFSA21.JPG,AFNE23.JPG,AFNE21.JPG,AFSA25.JPG,AFNE25.JPG,AFSA23.JPG,0,2,2,4,,,,,,,,,,,,,,,,,,,,,,,AMSA15.jpg,AMNE05.jpg,AMSA03.jpg,AMNE06.jpg,AMSA15.jpg,MS,2,num_8,16,num_8,0.950121384085,,,2017_Oct_05_1422,59.9322400795,MAFE4ImagesEEG,001,201920,
AMNE22.JPG,AMSA24.JPG,AMSA22.JPG,AMNE25.JPG,AMNE24.JPG,AMSA25.JPG,0,3,3,7,,,,,,,,,,,,,,,,,,,,,,,AMSA20.jpg,AMNE18.jpg,AMNE20.jpg,AMSA04.jpg,AMNE20.jpg,MN,1,num_2,32,num_6,0.900141735037,,,2017_Oct_05_1422,59.9322400795,MAFE4ImagesEEG,001,201920,
AFSA25.JPG,AFNE24.JPG,AFSA24.JPG,AFNE21.JPG,AFSA21.JPG,AFNE25.JPG,0,4,4,2,,,,,,,,,,,,,,,,,,,,,,,AMNE01.jpg,AMSA07.jpg,AMNE19.jpg,AMSA01.jpg,AMNE19.jpg,MN,1,num_2,32,num_6,1.08344695551,,,2017_Oct_05_1422,59.9322400795,MAFE4ImagesEEG,001,201920,
AMNE23.JPG,AMNE24.JPG,AMNE22.JPG,AMSA24.JPG,AMSA22.JPG,AMSA23.JPG,0,5,5,9,,,,,,,,,,,,,,,,,,,,,,,AMNE10.jpg,AMSA10.jpg,AMSA20.jpg,AMNE14.jpg,AMSA10.jpg,MS,2,num_6,16,num_6,0.666760964261,,,2017_Oct_05_1422,59.9322400795,MAFE4ImagesEEG,001,201920,
AMSA21.JPG,AMNE23.JPG,AMNE21.JPG,AMSA25.JPG,AMNE25.JPG,AMSA23.JPG,0,6,6,5,,,,,,,,,,,,,,,,,,,,,,,AMNE17.jpg,AMSA12.jpg,AMSA03.jpg,AMNE06.jpg,AMSA12.jpg,MS,2,num_6,32,num_8,0.633504063298,,,2017_Oct_05_1422,59.9322400795,MAFE4ImagesEEG,001,201920,
AMSA21.JPG,AMNE22.JPG,AMNE21.JPG,AMSA23.JPG,AMSA22.JPG,AMNE23.JPG,0,7,7,1,,,,,,,,,,,,,,,,,,,,,,,AMSA05.jpg,AMNE14.jpg,AMSA12.jpg,AMNE12.jpg,AMSA12.jpg,MS,2,num_2,32,num_8,0.683500711544,,,2017_Oct_05_1422,59.9322400795,MAFE4ImagesEEG,001,201920,
AFNE23.JPG,AFNE24.JPG,AFNE22.JPG,AFSA24.JPG,AFSA22.JPG,AFSA23.JPG,0,8,8,8,,,,,,,,,,,,,,,,,,,,,,,AMSA10.jpg,AMNE04.jpg,AMNE18.jpg,AMSA12.jpg,AMSA10.jpg,MS,2,num_8,32,num_4,0.883424118831,,,2017_Oct_05_1422,59.9322400795,MAFE4ImagesEEG,001,201920,
AMSA25.JPG,AMNE24.JPG,AMSA24.JPG,AMNE26.JPG,AMSA21.JPG,AMNE25.JPG,0,9,9,3,,,,,,,,,,,,,,,,,,,,,,,AMNE12.jpg,AMSA15.jpg,AMSA11.jpg,AMNE02.jpg,AMNE02.jpg,MN,1,num_4,16,num_4,1.05011820878,,,2017_Oct_05_1422,59.9322400795,MAFE4ImagesEEG,001,201920,
AMNE23.JPG,AMNE24.JPG,AMNE22.JPG,AMSA24.JPG,AMSA22.JPG,AMSA23.JPG,,,,,0,0,0,9,,,,,,,,,,,,,,,,,,,AFNE20.jpg,AFNE06.jpg,AFSA17.jpg,AFSA03.jpg,AFNE20.jpg,FN,3,num_8,32,num_2,3.01665539265,,,2017_Oct_05_1422,59.9322400795,MAFE4ImagesEEG,001,201920,
AMSA25.JPG,AMNE24.JPG,AMSA24.JPG,AMNE26.JPG,AMSA21.JPG,AMNE25.JPG,,,,,0,1,1,3,,,,,,,,,,,,,,,,,,,AFSA19.jpg,AFNE11.jpg,AFSA03.jpg,AFNE02.jpg,AFSA03.jpg,FS,4,num_2,32,num_4,1.11688571612,,,2017_Oct_05_1422,59.9322400795,MAFE4ImagesEEG,001,201920,
AFNE23.JPG,AFNE24.JPG,AFNE22.JPG,AFSA24.JPG,AFSA22.JPG,AFSA23.JPG,,,,,0,2,2,8,,,,,,,,,,,,,,,,,,,AFNE18.jpg,AFSA14.jpg,AFSA08.jpg,AFNE17.jpg,AFNE18.jpg,FN,3,num_8,16,num_8,0.28337645685,,,2017_Oct_05_1422,59.9322400795,MAFE4ImagesEEG,001,201920,
AMSA21.JPG,AMNE23.JPG,AMNE21.JPG,AMSA25.JPG,AMNE25.JPG,AMSA23.JPG,,,,,0,3,3,5,,,,,,,,,,,,,,,,,,,AFNE10.jpg,AFSA06.jpg,AFSA18.jpg,AFNE20.jpg,AFNE20.jpg,FN,3,num_4,16,num_4,0.700124350959,,,2017_Oct_05_1422,59.9322400795,MAFE4ImagesEEG,001,201920,
AMNE22.JPG,AMSA24.JPG,AMSA22.JPG,AMNE25.JPG,AMNE24.JPG,AMSA25.JPG,,,,,0,4,4,7,,,,,,,,,,,,,,,,,,,AFNE04.jpg,AFSA07.jpg,AFSA16.jpg,AFNE14.jpg,AFNE04.jpg,FN,3,num_8,16,num_8,1.20010622911,,,2017_Oct_05_1422,59.9322400795,MAFE4ImagesEEG,001,201920,
AFSA25.JPG,AFNE24.JPG,AFSA24.JPG,AFNE21.JPG,AFSA21.JPG,AFNE25.JPG,,,,,0,5,5,2,,,,,,,,,,,,,,,,,,,AFNE07.jpg,AFSA20.jpg,AFNE18.jpg,AFSA04.jpg,AFNE18.jpg,FN,3,num_2,16,num_2,1.25006823748,,,2017_Oct_05_1422,59.9322400795,MAFE4ImagesEEG,001,201920,
AMSA21.JPG,AMNE22.JPG,AMNE21.JPG,AMSA23.JPG,AMSA22.JPG,AMNE23.JPG,,,,,0,6,6,1,,,,,,,,,,,,,,,,,,,AFSA16.jpg,AFNE09.jpg,AFNE11.jpg,AFSA13.jpg,AFNE09.jpg,FN,3,num_6,32,num_4,1.60009192411,,,2017_Oct_05_1422,59.9322400795,MAFE4ImagesEEG,001,201920,
AFSA21.JPG,AFNE22.JPG,AFNE21.JPG,AFSA23.JPG,AFSA22.JPG,AFNE23.JPG,,,,,0,7,7,0,,,,,,,,,,,,,,,,,,,AFNE18.jpg,AFNE19.jpg,AFSA19.jpg,AFSA05.jpg,AFNE19.jpg,FN,3,num_6,32,num_4,2.00004169624,,,2017_Oct_05_1422,59.9322400795,MAFE4ImagesEEG,001,201920,
AFSA21.JPG,AFNE23.JPG,AFNE21.JPG,AFSA25.JPG,AFNE25.JPG,AFSA23.JPG,,,,,0,8,8,4,,,,,,,,,,,,,,,,,,,AFSA04.jpg,AFSA01.jpg,AFNE12.jpg,AFNE02.jpg,AFSA04.jpg,FS,4,num_8,16,num_8,0.763452241314,,,2017_Oct_05_1422,59.9322400795,MAFE4ImagesEEG,001,201920,
AFNE22.JPG,AFSA24.JPG,AFSA22.JPG,AFNE25.JPG,AFNE24.JPG,AFSA25.JPG,,,,,0,9,9,6,,,,,,,,,,,,,,,,,,,AFSA09.jpg,AFSA19.jpg,AFNE17.jpg,AFNE18.jpg,AFSA19.jpg,FS,4,num_6,32,num_4,0.566775686253,,,2017_Oct_05_1422,59.9322400795,MAFE4ImagesEEG,001,201920,
AMSA21.JPG,AMNE22.JPG,AMNE21.JPG,AMSA23.JPG,AMSA22.JPG,AMNE23.JPG,,,,,,,,,0,0,0,1,,,,,,,,,,,,,,,AMSA19.jpg,AMSA18.jpg,AMNE15.jpg,AMNE20.jpg,AMSA19.jpg,MS,2,num_8,32,num_4,1.40008672813,,,2017_Oct_05_1422,59.9322400795,MAFE4ImagesEEG,001,201920,
AMSA21.JPG,AMNE23.JPG,AMNE21.JPG,AMSA25.JPG,AMNE25.JPG,AMSA23.JPG,,,,,,,,,0,1,1,5,,,,,,,,,,,,,,,AMSA05.jpg,AMSA11.jpg,AMNE01.jpg,AMNE08.jpg,AMNE08.jpg,MN,1,num_4,32,num_6,0.766844388767,,,2017_Oct_05_1422,59.9322400795,MAFE4ImagesEEG,001,201920,
AFSA21.JPG,AFNE22.JPG,AFNE21.JPG,AFSA23.JPG,AFSA22.JPG,AFNE23.JPG,,,,,,,,,0,2,2,0,,,,,,,,,,,,,,,AMSA05.jpg,AMNE17.jpg,AMSA17.jpg,AMNE15.jpg,AMNE17.jpg,MN,1,num_6,32,num_2,0.500166945218,,,2017_Oct_05_1422,59.9322400795,MAFE4ImagesEEG,001,201920,
AFSA21.JPG,AFNE23.JPG,AFNE21.JPG,AFSA25.JPG,AFNE25.JPG,AFSA23.JPG,,,,,,,,,0,3,3,4,,,,,,,,,,,,,,,AMNE14.jpg,AMSA01.jpg,AMNE08.jpg,AMSA09.jpg,AMNE14.jpg,MN,1,num_8,16,num_8,1.46673427869,,,2017_Oct_05_1422,59.9322400795,MAFE4ImagesEEG,001,201920,
AFNE22.JPG,AFSA24.JPG,AFSA22.JPG,AFNE25.JPG,AFNE24.JPG,AFSA25.JPG,,,,,,,,,0,4,4,6,,,,,,,,,,,,,,,AMSA10.jpg,AMNE20.jpg,AMSA08.jpg,AMNE13.jpg,AMSA08.jpg,MS,2,num_2,32,num_4,0.833446394216,,,2017_Oct_05_1422,59.9322400795,MAFE4ImagesEEG,001,201920,
AFSA25.JPG,AFNE24.JPG,AFSA24.JPG,AFNE21.JPG,AFSA21.JPG,AFNE25.JPG,,,,,,,,,0,5,5,2,,,,,,,,,,,,,,,AMNE08.jpg,AMNE02.jpg,AMSA09.jpg,AMSA07.jpg,AMSA07.jpg,MS,2,num_4,32,num_2,1.30005654649,,,2017_Oct_05_1422,59.9322400795,MAFE4ImagesEEG,001,201920,
AMNE22.JPG,AMSA24.JPG,AMSA22.JPG,AMNE25.JPG,AMNE24.JPG,AMSA25.JPG,,,,,,,,,0,6,6,7,,,,,,,,,,,,,,,AMNE17.jpg,AMSA20.jpg,AMNE15.jpg,AMSA17.jpg,AMSA20.jpg,MS,2,num_6,32,num_8,0.516794112744,,,2017_Oct_05_1422,59.9322400795,MAFE4ImagesEEG,001,201920,
AMNE23.JPG,AMNE24.JPG,AMNE22.JPG,AMSA24.JPG,AMSA22.JPG,AMSA23.JPG,,,,,,,,,0,7,7,9,,,,,,,,,,,,,,,AMSA02.jpg,AMNE13.jpg,AMNE03.jpg,AMSA17.jpg,AMSA17.jpg,MS,2,num_4,32,num_8,0.666820942657,,,2017_Oct_05_1422,59.9322400795,MAFE4ImagesEEG,001,201920,
AFNE23.JPG,AFNE24.JPG,AFNE22.JPG,AFSA24.JPG,AFSA22.JPG,AFSA23.JPG,,,,,,,,,0,8,8,8,,,,,,,,,,,,,,,AMNE14.jpg,AMNE11.jpg,AMSA04.jpg,AMSA13.jpg,AMSA13.jpg,MS,2,num_4,32,num_6,0.0668367872422,,,2017_Oct_05_1422,59.9322400795,MAFE4ImagesEEG,001,201920,
AMSA25.JPG,AMNE24.JPG,AMSA24.JPG,AMNE26.JPG,AMSA21.JPG,AMNE25.JPG,,,,,,,,,0,9,9,3,,,,,,,,,,,,,,,AMSA18.jpg,AMSA05.jpg,AMNE01.jpg,AMNE11.jpg,AMNE11.jpg,MN,1,num_4,32,num_8,0.666780208674,,,2017_Oct_05_1422,59.9322400795,MAFE4ImagesEEG,001,201920,
AFSA25.JPG,AFNE24.JPG,AFSA24.JPG,AFNE21.JPG,AFSA21.JPG,AFNE25.JPG,,,,,,,,,,,,,0,0,0,2,,,,,,,,,,,AFSA16.jpg,AFNE06.jpg,AFNE12.jpg,AFSA11.jpg,AFNE12.jpg,FN,3,num_2,32,num_6,0.683519314509,,,2017_Oct_05_1422,59.9322400795,MAFE4ImagesEEG,001,201920,
AMNE23.JPG,AMNE24.JPG,AMNE22.JPG,AMSA24.JPG,AMSA22.JPG,AMSA23.JPG,,,,,,,,,,,,,0,1,1,9,,,,,,,,,,,AFNE07.jpg,AFNE11.jpg,AFSA09.jpg,AFSA19.jpg,AFSA09.jpg,FS,4,num_2,32,num_8,0.883467739477,,,2017_Oct_05_1422,59.9322400795,MAFE4ImagesEEG,001,201920,
AFSA21.JPG,AFNE22.JPG,AFNE21.JPG,AFSA23.JPG,AFSA22.JPG,AFNE23.JPG,,,,,,,,,,,,,0,2,2,0,,,,,,,,,,,AFNE15.jpg,AFSA04.jpg,AFNE01.jpg,AFSA01.jpg,AFSA01.jpg,FS,4,num_4,16,num_4,0.0670321179496,,,2017_Oct_05_1422,59.9322400795,MAFE4ImagesEEG,001,201920,
AMSA25.JPG,AMNE24.JPG,AMSA24.JPG,AMNE26.JPG,AMSA21.JPG,AMNE25.JPG,,,,,,,,,,,,,0,3,3,3,,,,,,,,,,,AFNE18.jpg,AFSA03.jpg,AFSA09.jpg,AFNE03.jpg,AFNE18.jpg,FN,3,num_8,32,num_6,4.59989691412,,,2017_Oct_05_1422,59.9322400795,MAFE4ImagesEEG,001,201920,
AFSA21.JPG,AFNE23.JPG,AFNE21.JPG,AFSA25.JPG,AFNE25.JPG,AFSA23.JPG,,,,,,,,,,,,,0,4,4,4,,,,,,,,,,,AFSA10.jpg,AFSA14.jpg,AFNE02.jpg,AFNE04.jpg,AFNE02.jpg,FN,3,num_2,32,num_4,1.033441968,,,2017_Oct_05_1422,59.9322400795,MAFE4ImagesEEG,001,201920,
AFNE22.JPG,AFSA24.JPG,AFSA22.JPG,AFNE25.JPG,AFNE24.JPG,AFSA25.JPG,,,,,,,,,,,,,0,5,5,6,,,,,,,,,,,AFSA01.jpg,AFNE17.jpg,AFNE09.jpg,AFSA05.jpg,AFSA01.jpg,FS,4,num_8,32,num_4,2.60025999194,,,2017_Oct_05_1422,59.9322400795,MAFE4ImagesEEG,001,201920,
AMSA21.JPG,AMNE23.JPG,AMNE21.JPG,AMSA25.JPG,AMNE25.JPG,AMSA23.JPG,,,,,,,,,,,,,0,6,6,5,,,,,,,,,,,AFSA16.jpg,AFSA01.jpg,AFNE10.jpg,AFNE03.jpg,AFNE03.jpg,FN,3,num_4,32,num_8,3.59992257334,,,2017_Oct_05_1422,59.9322400795,MAFE4ImagesEEG,001,201920,
AMSA21.JPG,AMNE22.JPG,AMNE21.JPG,AMSA23.JPG,AMSA22.JPG,AMNE23.JPG,,,,,,,,,,,,,0,7,7,1,,,,,,,,,,,AFSA03.jpg,AFNE01.jpg,AFNE18.jpg,AFSA05.jpg,AFSA05.jpg,FS,4,num_4,32,num_6,2.05016792347,,,2017_Oct_05_1422,59.9322400795,MAFE4ImagesEEG,001,201920,
AMNE22.JPG,AMSA24.JPG,AMSA22.JPG,AMNE25.JPG,AMNE24.JPG,AMSA25.JPG,,,,,,,,,,,,,0,8,8,7,,,,,,,,,,,AFSA03.jpg,AFNE13.jpg,AFNE05.jpg,AFSA19.jpg,AFNE13.jpg,FN,3,num_6,32,num_4,0.950133892969,,,2017_Oct_05_1422,59.9322400795,MAFE4ImagesEEG,001,201920,
AFNE23.JPG,AFNE24.JPG,AFNE22.JPG,AFSA24.JPG,AFSA22.JPG,AFSA23.JPG,,,,,,,,,,,,,0,9,9,8,,,,,,,,,,,AFNE11.jpg,AFSA17.jpg,AFSA12.jpg,AFNE18.jpg,AFSA17.jpg,FS,4,num_6,32,num_2,2.41684026725,,,2017_Oct_05_1422,59.9322400795,MAFE4ImagesEEG,001,201920,
AFSA21.JPG,AFNE22.JPG,AFNE21.JPG,AFSA23.JPG,AFSA22.JPG,AFNE23.JPG,,,,,,,,,,,,,,,,,0,0,0,0,,,,,,,AMNE18.jpg,AMNE09.jpg,AMSA06.jpg,AMSA08.jpg,AMNE18.jpg,MN,1,num_8,32,num_6,1.70012467168,,,2017_Oct_05_1422,59.9322400795,MAFE4ImagesEEG,001,201920,
AMSA21.JPG,AMNE22.JPG,AMNE21.JPG,AMSA23.JPG,AMSA22.JPG,AMNE23.JPG,,,,,,,,,,,,,,,,,0,1,1,1,,,,,,,AMNE18.jpg,AMSA05.jpg,AMSA06.jpg,AMNE16.jpg,AMNE18.jpg,MN,1,num_8,32,num_6,0.833506051888,,,2017_Oct_05_1422,59.9322400795,MAFE4ImagesEEG,001,201920,
AFSA25.JPG,AFNE24.JPG,AFSA24.JPG,AFNE21.JPG,AFSA21.JPG,AFNE25.JPG,,,,,,,,,,,,,,,,,0,2,2,2,,,,,,,AMSA12.jpg,AMNE20.jpg,AMSA02.jpg,AMNE06.jpg,AMNE06.jpg,MN,1,num_4,32,num_2,0.91682214546,,,2017_Oct_05_1422,59.9322400795,MAFE4ImagesEEG,001,201920,
AFSA21.JPG,AFNE23.JPG,AFNE21.JPG,AFSA25.JPG,AFNE25.JPG,AFSA23.JPG,,,,,,,,,,,,,,,,,0,3,3,4,,,,,,,AMSA09.jpg,AMNE04.jpg,AMNE20.jpg,AMSA05.jpg,AMSA09.jpg,MS,2,num_8,32,num_6,0.41686688867,,,2017_Oct_05_1422,59.9322400795,MAFE4ImagesEEG,001,201920,
AMSA21.JPG,AMNE23.JPG,AMNE21.JPG,AMSA25.JPG,AMNE25.JPG,AMSA23.JPG,,,,,,,,,,,,,,,,,0,4,4,5,,,,,,,AMNE07.jpg,AMSA11.jpg,AMNE05.jpg,AMSA14.jpg,AMNE07.jpg,MN,1,num_8,16,num_8,1.60006594416,,,2017_Oct_05_1422,59.9322400795,MAFE4ImagesEEG,001,201920,
AMNE23.JPG,AMNE24.JPG,AMNE22.JPG,AMSA24.JPG,AMSA22.JPG,AMSA23.JPG,,,,,,,,,,,,,,,,,0,5,5,9,,,,,,,AMNE20.jpg,AMSA20.jpg,AMNE02.jpg,AMSA07.jpg,AMNE20.jpg,MN,1,num_8,32,num_6,1.96666002736,,,2017_Oct_05_1422,59.9322400795,MAFE4ImagesEEG,001,201920,
AMNE22.JPG,AMSA24.JPG,AMSA22.JPG,AMNE25.JPG,AMNE24.JPG,AMSA25.JPG,,,,,,,,,,,,,,,,,0,6,6,7,,,,,,,AMSA04.jpg,AMSA18.jpg,AMNE10.jpg,AMNE19.jpg,AMSA18.jpg,MS,2,num_6,16,num_6,0.666760322783,,,2017_Oct_05_1422,59.9322400795,MAFE4ImagesEEG,001,201920,
AMSA25.JPG,AMNE24.JPG,AMSA24.JPG,AMNE26.JPG,AMSA21.JPG,AMNE25.JPG,,,,,,,,,,,,,,,,,0,7,7,3,,,,,,,AMSA20.jpg,AMSA04.jpg,AMNE01.jpg,AMNE11.jpg,AMNE01.jpg,MN,1,num_2,16,num_2,0.566800062457,,,2017_Oct_05_1422,59.9322400795,MAFE4ImagesEEG,001,201920,
AFNE23.JPG,AFNE24.JPG,AFNE22.JPG,AFSA24.JPG,AFSA22.JPG,AFSA23.JPG,,,,,,,,,,,,,,,,,0,8,8,8,,,,,,,AMSA17.jpg,AMNE20.jpg,AMNE03.jpg,AMSA12.jpg,AMNE03.jpg,MN,1,num_2,32,num_6,1.76666637798,,,2017_Oct_05_1422,59.9322400795,MAFE4ImagesEEG,001,201920,
AFNE22.JPG,AFSA24.JPG,AFSA22.JPG,AFNE25.JPG,AFNE24.JPG,AFSA25.JPG,,,,,,,,,,,,,,,,,0,9,9,6,,,,,,,AMNE04.jpg,AMSA13.jpg,AMSA17.jpg,AMNE11.jpg,AMSA13.jpg,MS,2,num_6,32,num_8,1.15013588156,,,2017_Oct_05_1422,59.9322400795,MAFE4ImagesEEG,001,201920,
AFSA25.JPG,AFNE24.JPG,AFSA24.JPG,AFNE21.JPG,AFSA21.JPG,AFNE25.JPG,,,,,,,,,,,,,,,,,,,,,0,0,0,2,,,AFNE03.jpg,AFNE01.jpg,AFSA14.jpg,AFSA06.jpg,AFSA06.jpg,FS,4,num_4,32,num_6,2.51634411438,,,2017_Oct_05_1422,59.9322400795,MAFE4ImagesEEG,001,201920,
AFNE22.JPG,AFSA24.JPG,AFSA22.JPG,AFNE25.JPG,AFNE24.JPG,AFSA25.JPG,,,,,,,,,,,,,,,,,,,,,0,1,1,6,,,AFNE18.jpg,AFNE02.jpg,AFSA20.jpg,AFSA08.jpg,AFNE18.jpg,FN,3,num_8,16,num_8,0.600135544752,,,2017_Oct_05_1422,59.9322400795,MAFE4ImagesEEG,001,201920,
AMSA25.JPG,AMNE24.JPG,AMSA24.JPG,AMNE26.JPG,AMSA21.JPG,AMNE25.JPG,,,,,,,,,,,,,,,,,,,,,0,2,2,3,,,AFSA19.jpg,AFNE08.jpg,AFNE01.jpg,AFSA05.jpg,AFNE01.jpg,FN,3,num_2,32,num_4,1.05008132366,,,2017_Oct_05_1422,59.9322400795,MAFE4ImagesEEG,001,201920,
AFSA21.JPG,AFNE23.JPG,AFNE21.JPG,AFSA25.JPG,AFNE25.JPG,AFSA23.JPG,,,,,,,,,,,,,,,,,,,,,0,3,3,4,,,AFNE20.jpg,AFSA11.jpg,AFNE09.jpg,AFSA20.jpg,AFSA11.jpg,FS,4,num_6,32,num_4,0.916764412221,,,2017_Oct_05_1422,59.9322400795,MAFE4ImagesEEG,001,201920,
AMNE22.JPG,AMSA24.JPG,AMSA22.JPG,AMNE25.JPG,AMNE24.JPG,AMSA25.JPG,,,,,,,,,,,,,,,,,,,,,0,4,4,7,,,AFSA05.jpg,AFSA18.jpg,AFNE12.jpg,AFNE16.jpg,AFSA05.jpg,FS,4,num_8,32,num_6,1.88338017743,,,2017_Oct_05_1422,59.9322400795,MAFE4ImagesEEG,001,201920,
AFNE23.JPG,AFNE24.JPG,AFNE22.JPG,AFSA24.JPG,AFSA22.JPG,AFSA23.JPG,,,,,,,,,,,,,,,,,,,,,0,5,5,8,,,AFNE01.jpg,AFSA11.jpg,AFNE19.jpg,AFSA03.jpg,AFSA11.jpg,FS,4,num_6,32,num_8,1.61667899913,,,2017_Oct_05_1422,59.9322400795,MAFE4ImagesEEG,001,201920,
AMSA21.JPG,AMNE22.JPG,AMNE21.JPG,AMSA23.JPG,AMSA22.JPG,AMNE23.JPG,,,,,,,,,,,,,,,,,,,,,0,6,6,1,,,AFSA09.jpg,AFNE06.jpg,AFSA01.jpg,AFNE19.jpg,AFSA01.jpg,FS,4,num_2,16,num_2,0.816651158879,,,2017_Oct_05_1422,59.9322400795,MAFE4ImagesEEG,001,201920,
AMNE23.JPG,AMNE24.JPG,AMNE22.JPG,AMSA24.JPG,AMSA22.JPG,AMSA23.JPG,,,,,,,,,,,,,,,,,,,,,0,7,7,9,,,AFNE08.jpg,AFNE15.jpg,AFSA12.jpg,AFSA08.jpg,AFSA12.jpg,FS,4,num_2,32,num_6,0.666640686715,,,2017_Oct_05_1422,59.9322400795,MAFE4ImagesEEG,001,201920,
AFSA21.JPG,AFNE22.JPG,AFNE21.JPG,AFSA23.JPG,AFSA22.JPG,AFNE23.JPG,,,,,,,,,,,,,,,,,,,,,0,8,8,0,,,AFSA14.jpg,AFSA18.jpg,AFNE14.jpg,AFNE07.jpg,AFSA18.jpg,FS,4,num_6,32,num_8,0.483491987427,,,2017_Oct_05_1422,59.9322400795,MAFE4ImagesEEG,001,201920,
AMSA21.JPG,AMNE23.JPG,AMNE21.JPG,AMSA25.JPG,AMNE25.JPG,AMSA23.JPG,,,,,,,,,,,,,,,,,,,,,0,9,9,5,,,AFSA16.jpg,AFSA02.jpg,AFNE14.jpg,AFNE09.jpg,AFNE09.jpg,FN,3,num_4,32,num_6,0.683454204234,,,2017_Oct_05_1422,59.9322400795,MAFE4ImagesEEG,001,201920,
,,,,,,,,,,,,,,,,,,,,,,,,,,,,,,,,,,,,,,,,,,,space,10.9490334336,2017_Oct_05_1422,59.9322400795,MAFE4ImagesEEG,001,201920,
AFNE01.JPG,AFNE01.JPG,AFNE01.JPG,AFNE01.JPG,AFNE01.JPG,AFNE01.JPG,0,0,0,9,,,,,,,,,,,,,,,,,,,,,,,AMSA07.jpg,AMNE18.jpg,AMNE20.jpg,AMSA12.jpg,AMSA12.jpg,MS,2,num_4,16,num_4,0.683481146407,,,2017_Oct_05_1422,59.9322400795,MAFE4ImagesEEG,001,201920,
AFNE01.JPG,AFNE01.JPG,AFNE01.JPG,AFNE01.JPG,AFNE01.JPG,AFNE01.JPG,0,1,1,8,,,,,,,,,,,,,,,,,,,,,,,AMSA16.jpg,AMNE04.jpg,AMNE01.jpg,AMSA05.jpg,AMNE01.jpg,MN,1,num_2,32,num_6,1.233617477,,,2017_Oct_05_1422,59.9322400795,MAFE4ImagesEEG,001,201920,
AFNE01.JPG,AFNE01.JPG,AFNE01.JPG,AFNE01.JPG,AFNE01.JPG,AFNE01.JPG,0,2,2,6,,,,,,,,,,,,,,,,,,,,,,,AMNE14.jpg,AMSA10.jpg,AMSA08.jpg,AMNE11.jpg,AMSA10.jpg,MS,2,num_6,16,num_6,1.38340278959,,,2017_Oct_05_1422,59.9322400795,MAFE4ImagesEEG,001,201920,
AFNE01.JPG,AFNE01.JPG,AFNE01.JPG,AFNE01.JPG,AFNE01.JPG,AFNE01.JPG,0,3,3,7,,,,,,,,,,,,,,,,,,,,,,,AMNE13.jpg,AMSA14.jpg,AMNE04.jpg,AMSA07.jpg,AMNE13.jpg,MN,1,num_8,16,num_8,0.900090095878,,,2017_Oct_05_1422,59.9322400795,MAFE4ImagesEEG,001,201920,
AFNE01.JPG,AFNE01.JPG,AFNE01.JPG,AFNE01.JPG,AFNE01.JPG,AFNE01.JPG,0,4,4,4,,,,,,,,,,,,,,,,,,,,,,,AMNE20.jpg,AMSA15.jpg,AMSA16.jpg,AMNE09.jpg,AMNE20.jpg,MN,1,num_8,32,num_6,0.833487448952,,,2017_Oct_05_1422,59.9322400795,MAFE4ImagesEEG,001,201920,
AFNE01.JPG,AFNE01.JPG,AFNE01.JPG,AFNE01.JPG,AFNE01.JPG,AFNE01.JPG,0,5,5,3,,,,,,,,,,,,,,,,,,,,,,,AMNE05.jpg,AMSA04.jpg,AMNE16.jpg,AMSA02.jpg,AMNE05.jpg,MN,1,num_8,16,num_8,0.900090416631,,,2017_Oct_05_1422,59.9322400795,MAFE4ImagesEEG,001,201920,
AFNE01.JPG,AFNE01.JPG,AFNE01.JPG,AFNE01.JPG,AFNE01.JPG,AFNE01.JPG,0,6,6,2,,,,,,,,,,,,,,,,,,,,,,,AMSA11.jpg,AMNE15.jpg,AMSA16.jpg,AMNE07.jpg,AMNE15.jpg,MN,1,num_6,32,num_8,0.633490271488,,,2017_Oct_05_1422,59.9322400795,MAFE4ImagesEEG,001,201920,
AFNE01.JPG,AFNE01.JPG,AFNE01.JPG,AFNE01.JPG,AFNE01.JPG,AFNE01.JPG,0,7,7,5,,,,,,,,,,,,,,,,,,,,,,,AMSA16.jpg,AMNE04.jpg,AMNE08.jpg,AMSA20.jpg,AMNE04.jpg,MN,1,num_6,16,num_6,0.816950088658,,,2017_Oct_05_1422,59.9322400795,MAFE4ImagesEEG,001,201920,
AFNE01.JPG,AFNE01.JPG,AFNE01.JPG,AFNE01.JPG,AFNE01.JPG,AFNE01.JPG,0,8,8,1,,,,,,,,,,,,,,,,,,,,,,,AMSA01.jpg,AMNE14.jpg,AMNE11.jpg,AMSA13.jpg,AMSA01.jpg,MS,2,num_8,16,num_8,0.916749337426,,,2017_Oct_05_1422,59.9322400795,MAFE4ImagesEEG,001,201920,
AFNE01.JPG,AFNE01.JPG,AFNE01.JPG,AFNE01.JPG,AFNE01.JPG,AFNE01.JPG,0,9,9,0,,,,,,,,,,,,,,,,,,,,,,,AMNE18.jpg,AMSA04.jpg,AMSA16.jpg,AMNE14.jpg,AMSA04.jpg,MS,2,num_6,16,num_6,0.916795203259,,,2017_Oct_05_1422,59.9322400795,MAFE4ImagesEEG,001,201920,
AFNE01.JPG,AFNE01.JPG,AFNE01.JPG,AFNE01.JPG,AFNE01.JPG,AFNE01.JPG,1,0,10,6,,,,,,,,,,,,,,,,,,,,,,,AMSA04.jpg,AMNE13.jpg,AMSA01.jpg,AMNE16.jpg,AMSA04.jpg,MS,2,num_8,32,num_2,1.25020102388,,,2017_Oct_05_1422,59.9322400795,MAFE4ImagesEEG,001,201920,
AFNE01.JPG,AFNE01.JPG,AFNE01.JPG,AFNE01.JPG,AFNE01.JPG,AFNE01.JPG,1,1,11,9,,,,,,,,,,,,,,,,,,,,,,,AMSA19.jpg,AMSA10.jpg,AMNE07.jpg,AMNE18.jpg,AMNE07.jpg,MN,1,num_2,16,num_2,1.03342144066,,,2017_Oct_05_1422,59.9322400795,MAFE4ImagesEEG,001,201920,
AFNE01.JPG,AFNE01.JPG,AFNE01.JPG,AFNE01.JPG,AFNE01.JPG,AFNE01.JPG,1,2,12,2,,,,,,,,,,,,,,,,,,,,,,,AMNE03.jpg,AMSA17.jpg,AMNE10.jpg,AMSA12.jpg,AMNE03.jpg,MN,1,num_8,32,num_6,1.63339853979,,,2017_Oct_05_1422,59.9322400795,MAFE4ImagesEEG,001,201920,
AFNE01.JPG,AFNE01.JPG,AFNE01.JPG,AFNE01.JPG,AFNE01.JPG,AFNE01.JPG,1,3,13,7,,,,,,,,,,,,,,,,,,,,,,,AMNE09.jpg,AMNE02.jpg,AMSA08.jpg,AMSA13.jpg,AMNE09.jpg,MN,1,num_8,32,num_6,0.416815570265,,,2017_Oct_05_1422,59.9322400795,MAFE4ImagesEEG,001,201920,
AFNE01.JPG,AFNE01.JPG,AFNE01.JPG,AFNE01.JPG,AFNE01.JPG,AFNE01.JPG,1,4,14,3,,,,,,,,,,,,,,,,,,,,,,,AMSA01.jpg,AMSA15.jpg,AMNE02.jpg,AMNE05.jpg,AMNE05.jpg,MN,1,num_4,16,num_4,0.333496269304,,,2017_Oct_05_1422,59.9322400795,MAFE4ImagesEEG,001,201920,
AFNE01.JPG,AFNE01.JPG,AFNE01.JPG,AFNE01.JPG,AFNE01.JPG,AFNE01.JPG,1,5,15,1,,,,,,,,,,,,,,,,,,,,,,,AMNE18.jpg,AMSA14.jpg,AMSA17.jpg,AMNE08.jpg,AMNE08.jpg,MN,1,num_4,32,num_8,1.36661236535,,,2017_Oct_05_1422,59.9322400795,MAFE4ImagesEEG,001,201920,
AFNE01.JPG,AFNE01.JPG,AFNE01.JPG,AFNE01.JPG,AFNE01.JPG,AFNE01.JPG,1,6,16,4,,,,,,,,,,,,,,,,,,,,,,,AMSA16.jpg,AMNE20.jpg,AMNE04.jpg,AMSA03.jpg,AMNE20.jpg,MN,1,num_6,32,num_8,1.18343961058,,,2017_Oct_05_1422,59.9322400795,MAFE4ImagesEEG,001,201920,
AFNE01.JPG,AFNE01.JPG,AFNE01.JPG,AFNE01.JPG,AFNE01.JPG,AFNE01.JPG,1,7,17,8,,,,,,,,,,,,,,,,,,,,,,,AMNE07.jpg,AMSA03.jpg,AMNE20.jpg,AMSA20.jpg,AMNE20.jpg,MN,1,num_2,32,num_4,1.03359271586,,,2017_Oct_05_1422,59.9322400795,MAFE4ImagesEEG,001,201920,
AFNE01.JPG,AFNE01.JPG,AFNE01.JPG,AFNE01.JPG,AFNE01.JPG,AFNE01.JPG,1,8,18,0,,,,,,,,,,,,,,,,,,,,,,,AMNE13.jpg,AMSA09.jpg,AMNE16.jpg,AMSA17.jpg,AMSA09.jpg,MS,2,num_6,32,num_8,0.450225464272,,,2017_Oct_05_1422,59.9322400795,MAFE4ImagesEEG,001,201920,
AFNE01.JPG,AFNE01.JPG,AFNE01.JPG,AFNE01.JPG,AFNE01.JPG,AFNE01.JPG,1,9,19,5,,,,,,,,,,,,,,,,,,,,,,,AMNE06.jpg,AMSA10.jpg,AMNE02.jpg,AMSA14.jpg,AMSA10.jpg,MS,2,num_6,16,num_6,0.383184686332,,,2017_Oct_05_1422,59.9322400795,MAFE4ImagesEEG,001,201920,
AFNE01.JPG,AFNE01.JPG,AFNE01.JPG,AFNE01.JPG,AFNE01.JPG,AFNE01.JPG,2,0,20,2,,,,,,,,,,,,,,,,,,,,,,,AMNE01.jpg,AMNE16.jpg,AMSA11.jpg,AMSA14.jpg,AMSA14.jpg,MS,2,num_4,32,num_6,0.783424407477,,,2017_Oct_05_1422,59.9322400795,MAFE4ImagesEEG,001,201920,
AFNE01.JPG,AFNE01.JPG,AFNE01.JPG,AFNE01.JPG,AFNE01.JPG,AFNE01.JPG,2,1,21,3,,,,,,,,,,,,,,,,,,,,,,,AMNE12.jpg,AMNE16.jpg,AMSA03.jpg,AMSA20.jpg,AMSA03.jpg,MS,2,num_2,32,num_8,1.15002779214,,,2017_Oct_05_1422,59.9322400795,MAFE4ImagesEEG,001,201920,
AFNE01.JPG,AFNE01.JPG,AFNE01.JPG,AFNE01.JPG,AFNE01.JPG,AFNE01.JPG,2,2,22,0,,,,,,,,,,,,,,,,,,,,,,,AMSA04.jpg,AMSA15.jpg,AMNE12.jpg,AMNE17.jpg,AMNE17.jpg,MN,1,num_4,32,num_6,1.78340099344,,,2017_Oct_05_1422,59.9322400795,MAFE4ImagesEEG,001,201920,
AFNE01.JPG,AFNE01.JPG,AFNE01.JPG,AFNE01.JPG,AFNE01.JPG,AFNE01.JPG,2,3,23,1,,,,,,,,,,,,,,,,,,,,,,,AMSA09.jpg,AMNE16.jpg,AMSA07.jpg,AMNE03.jpg,AMNE03.jpg,MN,1,num_4,32,num_2,1.33374548439,,,2017_Oct_05_1422,59.9322400795,MAFE4ImagesEEG,001,201920,
AFNE01.JPG,AFNE01.JPG,AFNE01.JPG,AFNE01.JPG,AFNE01.JPG,AFNE01.JPG,2,4,24,7,,,,,,,,,,,,,,,,,,,,,,,AMSA06.jpg,AMSA13.jpg,AMNE05.jpg,AMNE04.jpg,AMNE04.jpg,MN,1,num_4,32,num_6,1.38341882662,,,2017_Oct_05_1422,59.9322400795,MAFE4ImagesEEG,001,201920,
AFNE01.JPG,AFNE01.JPG,AFNE01.JPG,AFNE01.JPG,AFNE01.JPG,AFNE01.JPG,2,5,25,6,,,,,,,,,,,,,,,,,,,,,,,AMSA03.jpg,AMNE08.jpg,AMSA15.jpg,AMNE03.jpg,AMSA03.jpg,MS,2,num_8,16,num_8,2.6666102164,,,2017_Oct_05_1422,59.9322400795,MAFE4ImagesEEG,001,201920,
AFNE01.JPG,AFNE01.JPG,AFNE01.JPG,AFNE01.JPG,AFNE01.JPG,AFNE01.JPG,2,6,26,8,,,,,,,,,,,,,,,,,,,,,,,AMSA16.jpg,AMNE07.jpg,AMNE05.jpg,AMSA20.jpg,AMSA16.jpg,MS,2,num_8,16,num_8,1.68338781103,,,2017_Oct_05_1422,59.9322400795,MAFE4ImagesEEG,001,201920,
AFNE01.JPG,AFNE01.JPG,AFNE01.JPG,AFNE01.JPG,AFNE01.JPG,AFNE01.JPG,2,7,27,5,,,,,,,,,,,,,,,,,,,,,,,AMNE10.jpg,AMSA10.jpg,AMNE12.jpg,AMSA12.jpg,AMNE10.jpg,MN,1,num_8,32,num_4,0.850028658111,,,2017_Oct_05_1422,59.9322400795,MAFE4ImagesEEG,001,201920,
AFNE01.JPG,AFNE01.JPG,AFNE01.JPG,AFNE01.JPG,AFNE01.JPG,AFNE01.JPG,2,8,28,4,,,,,,,,,,,,,,,,,,,,,,,AMNE05.jpg,AMNE09.jpg,AMSA05.jpg,AMSA10.jpg,AMNE05.jpg,MN,1,num_8,16,num_8,1.08331416911,,,2017_Oct_05_1422,59.9322400795,MAFE4ImagesEEG,001,201920,
AFNE01.JPG,AFNE01.JPG,AFNE01.JPG,AFNE01.JPG,AFNE01.JPG,AFNE01.JPG,2,9,29,9,,,,,,,,,,,,,,,,,,,,,,,AMSA13.jpg,AMNE08.jpg,AMNE20.jpg,AMSA07.jpg,AMSA13.jpg,MS,2,num_8,16,num_8,0.633490592212,,,2017_Oct_05_1422,59.9322400795,MAFE4ImagesEEG,001,201920,
AFNE01.JPG,AFNE01.JPG,AFNE01.JPG,AFNE01.JPG,AFNE01.JPG,AFNE01.JPG,3,0,30,7,,,,,,,,,,,,,,,,,,,,,,,AMNE04.jpg,AMSA03.jpg,AMNE14.jpg,AMSA17.jpg,AMNE04.jpg,MN,1,num_8,32,num_6,2.68332270079,,,2017_Oct_05_1422,59.9322400795,MAFE4ImagesEEG,001,201920,
AFNE01.JPG,AFNE01.JPG,AFNE01.JPG,AFNE01.JPG,AFNE01.JPG,AFNE01.JPG,3,1,31,8,,,,,,,,,,,,,,,,,,,,,,,AMSA19.jpg,AMNE07.jpg,AMSA06.jpg,AMNE09.jpg,AMSA06.jpg,MS,2,num_2,16,num_2,0.366815714602,,,2017_Oct_05_1422,59.9322400795,MAFE4ImagesEEG,001,201920,
AFNE01.JPG,AFNE01.JPG,AFNE01.JPG,AFNE01.JPG,AFNE01.JPG,AFNE01.JPG,3,2,32,1,,,,,,,,,,,,,,,,,,,,,,,AMNE19.jpg,AMSA01.jpg,AMNE18.jpg,AMSA19.jpg,AMNE19.jpg,MN,1,num_8,32,num_4,2.10003146462,,,2017_Oct_05_1422,59.9322400795,MAFE4ImagesEEG,001,201920,
AFNE01.JPG,AFNE01.JPG,AFNE01.JPG,AFNE01.JPG,AFNE01.JPG,AFNE01.JPG,3,3,33,4,,,,,,,,,,,,,,,,,,,,,,,AMNE09.jpg,AMNE08.jpg,AMSA19.jpg,AMSA20.jpg,AMNE08.jpg,MN,1,num_6,32,num_8,0.816664309241,,,2017_Oct_05_1422,59.9322400795,MAFE4ImagesEEG,001,201920,
AFNE01.JPG,AFNE01.JPG,AFNE01.JPG,AFNE01.JPG,AFNE01.JPG,AFNE01.JPG,3,4,34,5,,,,,,,,,,,,,,,,,,,,,,,AMNE04.jpg,AMNE12.jpg,AMSA12.jpg,AMSA16.jpg,AMNE04.jpg,MN,1,num_8,32,num_6,0.533518785262,,,2017_Oct_05_1422,59.9322400795,MAFE4ImagesEEG,001,201920,
AFNE01.JPG,AFNE01.JPG,AFNE01.JPG,AFNE01.JPG,AFNE01.JPG,AFNE01.JPG,3,5,35,3,,,,,,,,,,,,,,,,,,,,,,,AMNE03.jpg,AMSA02.jpg,AMSA20.jpg,AMNE16.jpg,AMNE16.jpg,MN,1,num_4,32,num_2,0.900133075076,,,2017_Oct_05_1422,59.9322400795,MAFE4ImagesEEG,001,201920,
AFNE01.JPG,AFNE01.JPG,AFNE01.JPG,AFNE01.JPG,AFNE01.JPG,AFNE01.JPG,3,6,36,2,,,,,,,,,,,,,,,,,,,,,,,AMNE11.jpg,AMSA07.jpg,AMSA09.jpg,AMNE04.jpg,AMSA09.jpg,MS,2,num_2,32,num_4,1.86665967453,,,2017_Oct_05_1422,59.9322400795,MAFE4ImagesEEG,001,201920,
AFNE01.JPG,AFNE01.JPG,AFNE01.JPG,AFNE01.JPG,AFNE01.JPG,AFNE01.JPG,3,7,37,6,,,,,,,,,,,,,,,,,,,,,,,AMSA19.jpg,AMNE16.jpg,AMSA09.jpg,AMNE08.jpg,AMSA19.jpg,MS,2,num_8,32,num_6,0.816807680065,,,2017_Oct_05_1422,59.9322400795,MAFE4ImagesEEG,001,201920,
AFNE01.JPG,AFNE01.JPG,AFNE01.JPG,AFNE01.JPG,AFNE01.JPG,AFNE01.JPG,3,8,38,9,,,,,,,,,,,,,,,,,,,,,,,AMNE06.jpg,AMNE10.jpg,AMSA10.jpg,AMSA11.jpg,AMSA10.jpg,MS,2,num_2,32,num_8,0.700123388728,,,2017_Oct_05_1422,59.9322400795,MAFE4ImagesEEG,001,201920,
AFNE01.JPG,AFNE01.JPG,AFNE01.JPG,AFNE01.JPG,AFNE01.JPG,AFNE01.JPG,3,9,39,0,,,,,,,,,,,,,,,,,,,,,,,AMNE14.jpg,AMNE19.jpg,AMSA08.jpg,AMSA05.jpg,AMNE14.jpg,MN,1,num_8,32,num_2,0.833425546123,,,2017_Oct_05_1422,59.9322400795,MAFE4ImagesEEG,001,201920,
AFNE01.JPG,AFNE01.JPG,AFNE01.JPG,AFNE01.JPG,AFNE01.JPG,AFNE01.JPG,4,0,40,4,,,,,,,,,,,,,,,,,,,,,,,AMSA16.jpg,AMSA15.jpg,AMNE13.jpg,AMNE17.jpg,AMNE17.jpg,MN,1,num_4,16,num_4,1.23340033594,,,2017_Oct_05_1422,59.9322400795,MAFE4ImagesEEG,001,201920,
AFNE01.JPG,AFNE01.JPG,AFNE01.JPG,AFNE01.JPG,AFNE01.JPG,AFNE01.JPG,4,1,41,6,,,,,,,,,,,,,,,,,,,,,,,AMSA16.jpg,AMNE01.jpg,AMNE13.jpg,AMSA08.jpg,AMNE13.jpg,MN,1,num_2,32,num_8,0.783494970296,,,2017_Oct_05_1422,59.9322400795,MAFE4ImagesEEG,001,201920,
AFNE01.JPG,AFNE01.JPG,AFNE01.JPG,AFNE01.JPG,AFNE01.JPG,AFNE01.JPG,4,2,42,8,,,,,,,,,,,,,,,,,,,,,,,AMSA01.jpg,AMNE07.jpg,AMNE13.jpg,AMSA12.jpg,AMSA12.jpg,MS,2,num_4,32,num_6,0.500134550472,,,2017_Oct_05_1422,59.9322400795,MAFE4ImagesEEG,001,201920,
AFNE01.JPG,AFNE01.JPG,AFNE01.JPG,AFNE01.JPG,AFNE01.JPG,AFNE01.JPG,4,3,43,0,,,,,,,,,,,,,,,,,,,,,,,AMNE20.jpg,AMNE09.jpg,AMSA12.jpg,AMSA10.jpg,AMSA10.jpg,MS,2,num_4,16,num_4,0.600160883216,,,2017_Oct_05_1422,59.9322400795,MAFE4ImagesEEG,001,201920,
AFNE01.JPG,AFNE01.JPG,AFNE01.JPG,AFNE01.JPG,AFNE01.JPG,AFNE01.JPG,4,4,44,1,,,,,,,,,,,,,,,,,,,,,,,AMSA01.jpg,AMSA13.jpg,AMNE18.jpg,AMNE17.jpg,AMNE18.jpg,MN,1,num_2,32,num_6,0.116821247357,,,2017_Oct_05_1422,59.9322400795,MAFE4ImagesEEG,001,201920,
AFNE01.JPG,AFNE01.JPG,AFNE01.JPG,AFNE01.JPG,AFNE01.JPG,AFNE01.JPG,4,5,45,2,,,,,,,,,,,,,,,,,,,,,,,AMNE16.jpg,AMSA11.jpg,AMSA06.jpg,AMNE10.jpg,AMSA11.jpg,MS,2,num_6,32,num_4,0.316839593695,,,2017_Oct_05_1422,59.9322400795,MAFE4ImagesEEG,001,201920,
AFNE01.JPG,AFNE01.JPG,AFNE01.JPG,AFNE01.JPG,AFNE01.JPG,AFNE01.JPG,4,6,46,5,,,,,,,,,,,,,,,,,,,,,,,AMSA13.jpg,AMSA18.jpg,AMNE10.jpg,AMNE05.jpg,AMNE05.jpg,MN,1,num_4,32,num_6,1.1167368927,,,2017_Oct_05_1422,59.9322400795,MAFE4ImagesEEG,001,201920,
AFNE01.JPG,AFNE01.JPG,AFNE01.JPG,AFNE01.JPG,AFNE01.JPG,AFNE01.JPG,4,7,47,9,,,,,,,,,,,,,,,,,,,,,,,AMSA07.jpg,AMSA12.jpg,AMNE01.jpg,AMNE09.jpg,AMNE09.jpg,MN,1,num_4,32,num_2,0.316668959946,,,2017_Oct_05_1422,59.9322400795,MAFE4ImagesEEG,001,201920,
AFNE01.JPG,AFNE01.JPG,AFNE01.JPG,AFNE01.JPG,AFNE01.JPG,AFNE01.JPG,4,8,48,3,,,,,,,,,,,,,,,,,,,,,,,AMNE18.jpg,AMSA11.jpg,AMSA19.jpg,AMNE13.jpg,AMNE13.jpg,MN,1,num_4,32,num_8,0.216810053535,,,2017_Oct_05_1422,59.9322400795,MAFE4ImagesEEG,001,201920,
AFNE01.JPG,AFNE01.JPG,AFNE01.JPG,AFNE01.JPG,AFNE01.JPG,AFNE01.JPG,4,9,49,7,,,,,,,,,,,,,,,,,,,,,,,AMNE09.jpg,AMSA14.jpg,AMNE20.jpg,AMSA17.jpg,AMSA17.jpg,MS,2,num_4,16,num_4,0.666777963459,,,2017_Oct_05_1422,59.9322400795,MAFE4ImagesEEG,001,201920,
AFNE01.JPG,AFNE01.JPG,AFNE01.JPG,AFNE01.JPG,AFNE01.JPG,AFNE01.JPG,5,0,50,6,,,,,,,,,,,,,,,,,,,,,,,AMNE09.jpg,AMSA15.jpg,AMSA14.jpg,AMNE10.jpg,AMSA14.jpg,MS,2,num_2,32,num_6,0.916721433052,,,2017_Oct_05_1422,59.9322400795,MAFE4ImagesEEG,001,201920,
AFNE01.JPG,AFNE01.JPG,AFNE01.JPG,AFNE01.JPG,AFNE01.JPG,AFNE01.JPG,5,1,51,8,,,,,,,,,,,,,,,,,,,,,,,AMNE07.jpg,AMNE02.jpg,AMSA18.jpg,AMSA08.jpg,AMSA18.jpg,MS,2,num_2,16,num_2,0.750101754791,,,2017_Oct_05_1422,59.9322400795,MAFE4ImagesEEG,001,201920,
AFNE01.JPG,AFNE01.JPG,AFNE01.JPG,AFNE01.JPG,AFNE01.JPG,AFNE01.JPG,5,2,52,1,,,,,,,,,,,,,,,,,,,,,,,AMSA10.jpg,AMSA05.jpg,AMNE15.jpg,AMNE16.jpg,AMSA10.jpg,MS,2,num_8,32,num_6,0.633498931449,,,2017_Oct_05_1422,59.9322400795,MAFE4ImagesEEG,001,201920,
AFNE01.JPG,AFNE01.JPG,AFNE01.JPG,AFNE01.JPG,AFNE01.JPG,AFNE01.JPG,5,3,53,2,,,,,,,,,,,,,,,,,,,,,,,AMSA03.jpg,AMSA10.jpg,AMNE04.jpg,AMNE05.jpg,AMSA03.jpg,MS,2,num_8,32,num_6,0.350180849317,,,2017_Oct_05_1422,59.9322400795,MAFE4ImagesEEG,001,201920,
AFNE01.JPG,AFNE01.JPG,AFNE01.JPG,AFNE01.JPG,AFNE01.JPG,AFNE01.JPG,5,4,54,9,,,,,,,,,,,,,,,,,,,,,,,AMNE01.jpg,AMNE03.jpg,AMSA02.jpg,AMSA19.jpg,AMNE03.jpg,MN,1,num_6,16,num_6,0.400189044216,,,2017_Oct_05_1422,59.9322400795,MAFE4ImagesEEG,001,201920,
AFNE01.JPG,AFNE01.JPG,AFNE01.JPG,AFNE01.JPG,AFNE01.JPG,AFNE01.JPG,5,5,55,7,,,,,,,,,,,,,,,,,,,,,,,AMNE09.jpg,AMSA04.jpg,AMNE03.jpg,AMSA08.jpg,AMNE03.jpg,MN,1,num_2,32,num_6,0.266816324001,,,2017_Oct_05_1422,59.9322400795,MAFE4ImagesEEG,001,201920,
AFNE01.JPG,AFNE01.JPG,AFNE01.JPG,AFNE01.JPG,AFNE01.JPG,AFNE01.JPG,5,6,56,0,,,,,,,,,,,,,,,,,,,,,,,AMSA05.jpg,AMSA06.jpg,AMNE12.jpg,AMNE06.jpg,AMSA05.jpg,MS,2,num_8,32,num_2,0.766795636242,,,2017_Oct_05_1422,59.9322400795,MAFE4ImagesEEG,001,201920,
AFNE01.JPG,AFNE01.JPG,AFNE01.JPG,AFNE01.JPG,AFNE01.JPG,AFNE01.JPG,5,7,57,3,,,,,,,,,,,,,,,,,,,,,,,AMSA14.jpg,AMNE02.jpg,AMNE15.jpg,AMSA20.jpg,AMNE15.jpg,MN,1,num_2,32,num_8,0.86677417875,,,2017_Oct_05_1422,59.9322400795,MAFE4ImagesEEG,001,201920,
AFNE01.JPG,AFNE01.JPG,AFNE01.JPG,AFNE01.JPG,AFNE01.JPG,AFNE01.JPG,5,8,58,5,,,,,,,,,,,,,,,,,,,,,,,AMSA15.jpg,AMSA01.jpg,AMNE14.jpg,AMNE04.jpg,AMNE14.jpg,MN,1,num_2,32,num_4,1.5332577028,,,2017_Oct_05_1422,59.9322400795,MAFE4ImagesEEG,001,201920,
AFNE01.JPG,AFNE01.JPG,AFNE01.JPG,AFNE01.JPG,AFNE01.JPG,AFNE01.JPG,5,9,59,4,,,,,,,,,,,,,,,,,,,,,,,AMNE01.jpg,AMSA18.jpg,AMSA08.jpg,AMNE03.jpg,AMSA08.jpg,MS,2,num_2,32,num_8,1.53350146531,,,2017_Oct_05_1422,59.9322400795,MAFE4ImagesEEG,001,201920,
,,,,,,,,,,,,,,,,,,,,,,,,,,,,,,,,,,,,,,,,,,,space,18.2653986527,2017_Oct_05_1422,59.9322400795,MAFE4ImagesEEG,001,201920,
AFNE01.JPG,AFNE01.JPG,AFNE01.JPG,AFNE01.JPG,AFNE01.JPG,AFNE01.JPG,,,,,0,0,0,5,,,,,,,,,,,,,,,,,,,AFNE06.jpg,AFSA04.jpg,AFSA14.jpg,AFNE03.jpg,AFNE06.jpg,FN,3,num_8,32,num_6,0.400275964814,,,2017_Oct_05_1422,59.9322400795,MAFE4ImagesEEG,001,201920,
AFNE01.JPG,AFNE01.JPG,AFNE01.JPG,AFNE01.JPG,AFNE01.JPG,AFNE01.JPG,,,,,0,1,1,6,,,,,,,,,,,,,,,,,,,AFSA18.jpg,AFNE05.jpg,AFSA08.jpg,AFNE12.jpg,AFNE05.jpg,FN,3,num_6,16,num_6,0.633501176635,,,2017_Oct_05_1422,59.9322400795,MAFE4ImagesEEG,001,201920,
AFNE01.JPG,AFNE01.JPG,AFNE01.JPG,AFNE01.JPG,AFNE01.JPG,AFNE01.JPG,,,,,0,2,2,7,,,,,,,,,,,,,,,,,,,AFNE20.jpg,AFSA18.jpg,AFNE09.jpg,AFSA13.jpg,AFSA18.jpg,FS,4,num_6,16,num_6,2.8166001612,,,2017_Oct_05_1422,59.9322400795,MAFE4ImagesEEG,001,201920,
AFNE01.JPG,AFNE01.JPG,AFNE01.JPG,AFNE01.JPG,AFNE01.JPG,AFNE01.JPG,,,,,0,3,3,8,,,,,,,,,,,,,,,,,,,AFNE19.jpg,AFSA20.jpg,AFSA19.jpg,AFNE05.jpg,AFNE05.jpg,FN,3,num_4,32,num_2,1.20008377731,,,2017_Oct_05_1422,59.9322400795,MAFE4ImagesEEG,001,201920,
AFNE01.JPG,AFNE01.JPG,AFNE01.JPG,AFNE01.JPG,AFNE01.JPG,AFNE01.JPG,,,,,0,4,4,0,,,,,,,,,,,,,,,,,,,AFNE16.jpg,AFSA15.jpg,AFSA11.jpg,AFNE17.jpg,AFNE16.jpg,FN,3,num_8,32,num_2,1.78374963798,,,2017_Oct_05_1422,59.9322400795,MAFE4ImagesEEG,001,201920,
AFNE01.JPG,AFNE01.JPG,AFNE01.JPG,AFNE01.JPG,AFNE01.JPG,AFNE01.JPG,,,,,0,5,5,9,,,,,,,,,,,,,,,,,,,AFSA12.jpg,AFNE08.jpg,AFSA08.jpg,AFNE03.jpg,AFNE08.jpg,FN,3,num_6,32,num_4,1.11673817568,,,2017_Oct_05_1422,59.9322400795,MAFE4ImagesEEG,001,201920,
AFNE01.JPG,AFNE01.JPG,AFNE01.JPG,AFNE01.JPG,AFNE01.JPG,AFNE01.JPG,,,,,0,6,6,4,,,,,,,,,,,,,,,,,,,AFSA09.jpg,AFNE07.jpg,AFSA03.jpg,AFNE01.jpg,AFNE07.jpg,FN,3,num_6,16,num_6,1.93337875011,,,2017_Oct_05_1422,59.9322400795,MAFE4ImagesEEG,001,201920,
AFNE01.JPG,AFNE01.JPG,AFNE01.JPG,AFNE01.JPG,AFNE01.JPG,AFNE01.JPG,,,,,0,7,7,3,,,,,,,,,,,,,,,,,,,AFNE16.jpg,AFSA14.jpg,AFNE19.jpg,AFSA02.jpg,AFNE19.jpg,FN,3,num_2,32,num_6,0.233479879505,,,2017_Oct_05_1422,59.9322400795,MAFE4ImagesEEG,001,201920,
AFNE01.JPG,AFNE01.JPG,AFNE01.JPG,AFNE01.JPG,AFNE01.JPG,AFNE01.JPG,,,,,0,8,8,1,,,,,,,,,,,,,,,,,,,AFSA16.jpg,AFSA05.jpg,AFNE15.jpg,AFNE01.jpg,AFNE15.jpg,FN,3,num_2,32,num_4,0.100150779937,,,2017_Oct_05_1422,59.9322400795,MAFE4ImagesEEG,001,201920,
AFNE01.JPG,AFNE01.JPG,AFNE01.JPG,AFNE01.JPG,AFNE01.JPG,AFNE01.JPG,,,,,0,9,9,2,,,,,,,,,,,,,,,,,,,AFNE04.jpg,AFSA09.jpg,AFSA19.jpg,AFNE09.jpg,AFSA09.jpg,FS,4,num_6,32,num_8,0.683476976788,,,2017_Oct_05_1422,59.9322400795,MAFE4ImagesEEG,001,201920,
AFNE01.JPG,AFNE01.JPG,AFNE01.JPG,AFNE01.JPG,AFNE01.JPG,AFNE01.JPG,,,,,1,0,10,3,,,,,,,,,,,,,,,,,,,AFSA01.jpg,AFNE20.jpg,AFSA13.jpg,AFNE16.jpg,AFSA13.jpg,FS,4,num_2,16,num_2,2.5167392662,,,2017_Oct_05_1422,59.9322400795,MAFE4ImagesEEG,001,201920,
AFNE01.JPG,AFNE01.JPG,AFNE01.JPG,AFNE01.JPG,AFNE01.JPG,AFNE01.JPG,,,,,1,1,11,7,,,,,,,,,,,,,,,,,,,AFSA12.jpg,AFNE08.jpg,AFSA02.jpg,AFNE19.jpg,AFSA02.jpg,FS,4,num_2,32,num_8,0.733450531756,,,2017_Oct_05_1422,59.9322400795,MAFE4ImagesEEG,001,201920,
AFNE01.JPG,AFNE01.JPG,AFNE01.JPG,AFNE01.JPG,AFNE01.JPG,AFNE01.JPG,,,,,1,2,12,5,,,,,,,,,,,,,,,,,,,AFNE01.jpg,AFNE07.jpg,AFSA17.jpg,AFSA08.jpg,AFSA17.jpg,FS,4,num_2,32,num_4,0.816840074782,,,2017_Oct_05_1422,59.9322400795,MAFE4ImagesEEG,001,201920,
AFNE01.JPG,AFNE01.JPG,AFNE01.JPG,AFNE01.JPG,AFNE01.JPG,AFNE01.JPG,,,,,1,3,13,6,,,,,,,,,,,,,,,,,,,AFSA15.jpg,AFNE04.jpg,AFSA04.jpg,AFNE15.jpg,AFSA15.jpg,FS,4,num_8,32,num_6,0.800017255824,,,2017_Oct_05_1422,59.9322400795,MAFE4ImagesEEG,001,201920,
AFNE01.JPG,AFNE01.JPG,AFNE01.JPG,AFNE01.JPG,AFNE01.JPG,AFNE01.JPG,,,,,1,4,14,0,,,,,,,,,,,,,,,,,,,AFSA18.jpg,AFNE12.jpg,AFNE18.jpg,AFSA09.jpg,AFSA09.jpg,FS,4,num_4,32,num_8,0.966709100583,,,2017_Oct_05_1422,59.9322400795,MAFE4ImagesEEG,001,201920,
AFNE01.JPG,AFNE01.JPG,AFNE01.JPG,AFNE01.JPG,AFNE01.JPG,AFNE01.JPG,,,,,1,5,15,1,,,,,,,,,,,,,,,,,,,AFNE13.jpg,AFSA04.jpg,AFNE01.jpg,AFSA07.jpg,AFNE13.jpg,FN,3,num_8,32,num_6,1.33374708809,,,2017_Oct_05_1422,59.9322400795,MAFE4ImagesEEG,001,201920,
AFNE01.JPG,AFNE01.JPG,AFNE01.JPG,AFNE01.JPG,AFNE01.JPG,AFNE01.JPG,,,,,1,6,16,9,,,,,,,,,,,,,,,,,,,AFNE19.jpg,AFSA15.jpg,AFNE12.jpg,AFSA19.jpg,AFSA15.jpg,FS,4,num_6,16,num_6,0.25015162988,,,2017_Oct_05_1422,59.9322400795,MAFE4ImagesEEG,001,201920,
AFNE01.JPG,AFNE01.JPG,AFNE01.JPG,AFNE01.JPG,AFNE01.JPG,AFNE01.JPG,,,,,1,7,17,2,,,,,,,,,,,,,,,,,,,AFNE16.jpg,AFSA19.jpg,AFSA05.jpg,AFNE15.jpg,AFSA05.jpg,FS,4,num_2,32,num_6,0.000210405531107,,,2017_Oct_05_1422,59.9322400795,MAFE4ImagesEEG,001,201920,
AFNE01.JPG,AFNE01.JPG,AFNE01.JPG,AFNE01.JPG,AFNE01.JPG,AFNE01.JPG,,,,,1,8,18,8,,,,,,,,,,,,,,,,,,,AFNE16.jpg,AFSA16.jpg,AFNE03.jpg,AFSA09.jpg,AFSA09.jpg,FS,4,num_4,32,num_6,3.39991769809,,,2017_Oct_05_1422,59.9322400795,MAFE4ImagesEEG,001,201920,
AFNE01.JPG,AFNE01.JPG,AFNE01.JPG,AFNE01.JPG,AFNE01.JPG,AFNE01.JPG,,,,,1,9,19,4,,,,,,,,,,,,,,,,,,,AFSA18.jpg,AFNE15.jpg,AFSA02.jpg,AFNE12.jpg,AFSA18.jpg,FS,4,num_8,16,num_8,1.05007073921,,,2017_Oct_05_1422,59.9322400795,MAFE4ImagesEEG,001,201920,
AFNE01.JPG,AFNE01.JPG,AFNE01.JPG,AFNE01.JPG,AFNE01.JPG,AFNE01.JPG,,,,,2,0,20,7,,,,,,,,,,,,,,,,,,,AFSA12.jpg,AFNE13.jpg,AFSA16.jpg,AFNE02.jpg,AFSA16.jpg,FS,4,num_2,32,num_4,1.09998752322,,,2017_Oct_05_1422,59.9322400795,MAFE4ImagesEEG,001,201920,
AFNE01.JPG,AFNE01.JPG,AFNE01.JPG,AFNE01.JPG,AFNE01.JPG,AFNE01.JPG,,,,,2,1,21,4,,,,,,,,,,,,,,,,,,,AFSA01.jpg,AFNE08.jpg,AFNE12.jpg,AFSA06.jpg,AFNE12.jpg,FN,3,num_2,16,num_2,2.56665444645,,,2017_Oct_05_1422,59.9322400795,MAFE4ImagesEEG,001,201920,
AFNE01.JPG,AFNE01.JPG,AFNE01.JPG,AFNE01.JPG,AFNE01.JPG,AFNE01.JPG,,,,,2,2,22,0,,,,,,,,,,,,,,,,,,,AFSA05.jpg,AFNE10.jpg,AFSA18.jpg,AFNE04.jpg,AFSA05.jpg,FS,4,num_8,32,num_4,1.84972363428,,,2017_Oct_05_1422,59.9322400795,MAFE4ImagesEEG,001,201920,
AFNE01.JPG,AFNE01.JPG,AFNE01.JPG,AFNE01.JPG,AFNE01.JPG,AFNE01.JPG,,,,,2,3,23,8,,,,,,,,,,,,,,,,,,,AFSA08.jpg,AFSA05.jpg,AFNE12.jpg,AFNE08.jpg,AFSA08.jpg,FS,4,num_8,48,None,,,,2017_Oct_05_1422,59.9322400795,MAFE4ImagesEEG,001,201920,
AFNE01.JPG,AFNE01.JPG,AFNE01.JPG,AFNE01.JPG,AFNE01.JPG,AFNE01.JPG,,,,,2,4,24,1,,,,,,,,,,,,,,,,,,,AFSA09.jpg,AFNE09.jpg,AFSA04.jpg,AFNE04.jpg,AFSA04.jpg,FS,4,num_2,32,num_6,0.283509884728,,,2017_Oct_05_1422,59.9322400795,MAFE4ImagesEEG,001,201920,
AFNE01.JPG,AFNE01.JPG,AFNE01.JPG,AFNE01.JPG,AFNE01.JPG,AFNE01.JPG,,,,,2,5,25,3,,,,,,,,,,,,,,,,,,,AFNE20.jpg,AFSA14.jpg,AFSA17.jpg,AFNE15.jpg,AFNE15.jpg,FN,3,num_4,32,num_8,0.816774964565,,,2017_Oct_05_1422,59.9322400795,MAFE4ImagesEEG,001,201920,
AFNE01.JPG,AFNE01.JPG,AFNE01.JPG,AFNE01.JPG,AFNE01.JPG,AFNE01.JPG,,,,,2,6,26,2,,,,,,,,,,,,,,,,,,,AFSA08.jpg,AFSA19.jpg,AFNE12.jpg,AFNE07.jpg,AFNE07.jpg,FN,3,num_4,32,num_2,0.800124703761,,,2017_Oct_05_1422,59.9322400795,MAFE4ImagesEEG,001,201920,
AFNE01.JPG,AFNE01.JPG,AFNE01.JPG,AFNE01.JPG,AFNE01.JPG,AFNE01.JPG,,,,,2,7,27,6,,,,,,,,,,,,,,,,,,,AFSA18.jpg,AFNE01.jpg,AFNE13.jpg,AFSA06.jpg,AFNE13.jpg,FN,3,num_2,16,num_2,0.683483070869,,,2017_Oct_05_1422,59.9322400795,MAFE4ImagesEEG,001,201920,
AFNE01.JPG,AFNE01.JPG,AFNE01.JPG,AFNE01.JPG,AFNE01.JPG,AFNE01.JPG,,,,,2,8,28,5,,,,,,,,,,,,,,,,,,,AFSA16.jpg,AFSA07.jpg,AFNE19.jpg,AFNE07.jpg,AFNE07.jpg,FN,3,num_4,32,num_2,1.01674712432,,,2017_Oct_05_1422,59.9322400795,MAFE4ImagesEEG,001,201920,
AFNE01.JPG,AFNE01.JPG,AFNE01.JPG,AFNE01.JPG,AFNE01.JPG,AFNE01.JPG,,,,,2,9,29,9,,,,,,,,,,,,,,,,,,,AFSA10.jpg,AFSA04.jpg,AFNE20.jpg,AFNE09.jpg,AFSA10.jpg,FS,4,num_8,16,num_8,0.383504784957,,,2017_Oct_05_1422,59.9322400795,MAFE4ImagesEEG,001,201920,
AFNE01.JPG,AFNE01.JPG,AFNE01.JPG,AFNE01.JPG,AFNE01.JPG,AFNE01.JPG,,,,,3,0,30,7,,,,,,,,,,,,,,,,,,,AFNE20.jpg,AFSA03.jpg,AFSA09.jpg,AFNE05.jpg,AFNE05.jpg,FN,3,num_4,32,num_6,1.21676033881,,,2017_Oct_05_1422,59.9322400795,MAFE4ImagesEEG,001,201920,
AFNE01.JPG,AFNE01.JPG,AFNE01.JPG,AFNE01.JPG,AFNE01.JPG,AFNE01.JPG,,,,,3,1,31,3,,,,,,,,,,,,,,,,,,,AFNE02.jpg,AFSA03.jpg,AFSA08.jpg,AFNE17.jpg,AFSA08.jpg,FS,4,num_2,32,num_4,1.40046648443,,,2017_Oct_05_1422,59.9322400795,MAFE4ImagesEEG,001,201920,
AFNE01.JPG,AFNE01.JPG,AFNE01.JPG,AFNE01.JPG,AFNE01.JPG,AFNE01.JPG,,,,,3,2,32,9,,,,,,,,,,,,,,,,,,,AFSA05.jpg,AFSA04.jpg,AFNE15.jpg,AFNE20.jpg,AFSA04.jpg,FS,4,num_6,32,num_8,2.53330934196,,,2017_Oct_05_1422,59.9322400795,MAFE4ImagesEEG,001,201920,
AFNE01.JPG,AFNE01.JPG,AFNE01.JPG,AFNE01.JPG,AFNE01.JPG,AFNE01.JPG,,,,,3,3,33,1,,,,,,,,,,,,,,,,,,,AFSA14.jpg,AFSA08.jpg,AFNE12.jpg,AFNE20.jpg,AFSA14.jpg,FS,4,num_8,32,num_4,2.79998325737,,,2017_Oct_05_1422,59.9322400795,MAFE4ImagesEEG,001,201920,
AFNE01.JPG,AFNE01.JPG,AFNE01.JPG,AFNE01.JPG,AFNE01.JPG,AFNE01.JPG,,,,,3,4,34,6,,,,,,,,,,,,,,,,,,,AFSA19.jpg,AFSA06.jpg,AFNE09.jpg,AFNE11.jpg,AFSA19.jpg,FS,4,num_8,16,num_8,1.41682423025,,,2017_Oct_05_1422,59.9322400795,MAFE4ImagesEEG,001,201920,
AFNE01.JPG,AFNE01.JPG,AFNE01.JPG,AFNE01.JPG,AFNE01.JPG,AFNE01.JPG,,,,,3,5,35,4,,,,,,,,,,,,,,,,,,,AFSA20.jpg,AFNE06.jpg,AFSA04.jpg,AFNE11.jpg,AFNE11.jpg,FN,3,num_4,16,num_4,1.85001743224,,,2017_Oct_05_1422,59.9322400795,MAFE4ImagesEEG,001,201920,
AFNE01.JPG,AFNE01.JPG,AFNE01.JPG,AFNE01.JPG,AFNE01.JPG,AFNE01.JPG,,,,,3,6,36,8,,,,,,,,,,,,,,,,,,,AFNE04.jpg,AFSA09.jpg,AFSA08.jpg,AFNE16.jpg,AFSA09.jpg,FS,4,num_6,32,num_4,0.683625158737,,,2017_Oct_05_1422,59.9322400795,MAFE4ImagesEEG,001,201920,
AFNE01.JPG,AFNE01.JPG,AFNE01.JPG,AFNE01.JPG,AFNE01.JPG,AFNE01.JPG,,,,,3,7,37,5,,,,,,,,,,,,,,,,,,,AFNE15.jpg,AFNE09.jpg,AFSA15.jpg,AFSA08.jpg,AFNE09.jpg,FN,3,num_6,32,num_8,0.600161203969,,,2017_Oct_05_1422,59.9322400795,MAFE4ImagesEEG,001,201920,
AFNE01.JPG,AFNE01.JPG,AFNE01.JPG,AFNE01.JPG,AFNE01.JPG,AFNE01.JPG,,,,,3,8,38,2,,,,,,,,,,,,,,,,,,,AFSA08.jpg,AFNE12.jpg,AFNE14.jpg,AFSA01.jpg,AFSA01.jpg,FS,4,num_4,16,num_4,0.933445464092,,,2017_Oct_05_1422,59.9322400795,MAFE4ImagesEEG,001,201920,
AFNE01.JPG,AFNE01.JPG,AFNE01.JPG,AFNE01.JPG,AFNE01.JPG,AFNE01.JPG,,,,,3,9,39,0,,,,,,,,,,,,,,,,,,,AFSA02.jpg,AFNE13.jpg,AFNE19.jpg,AFSA01.jpg,AFNE19.jpg,FN,3,num_2,32,num_8,1.15017918145,,,2017_Oct_05_1422,59.9322400795,MAFE4ImagesEEG,001,201920,
AFNE01.JPG,AFNE01.JPG,AFNE01.JPG,AFNE01.JPG,AFNE01.JPG,AFNE01.JPG,,,,,4,0,40,3,,,,,,,,,,,,,,,,,,,AFSA07.jpg,AFSA11.jpg,AFNE13.jpg,AFNE20.jpg,AFSA11.jpg,FS,4,num_6,32,num_8,0.816780417168,,,2017_Oct_05_1422,59.9322400795,MAFE4ImagesEEG,001,201920,
AFNE01.JPG,AFNE01.JPG,AFNE01.JPG,AFNE01.JPG,AFNE01.JPG,AFNE01.JPG,,,,,4,1,41,1,,,,,,,,,,,,,,,,,,,AFNE14.jpg,AFSA16.jpg,AFSA18.jpg,AFNE16.jpg,AFSA18.jpg,FS,4,num_2,32,num_4,0.933485235844,,,2017_Oct_05_1422,59.9322400795,MAFE4ImagesEEG,001,201920,
AFNE01.JPG,AFNE01.JPG,AFNE01.JPG,AFNE01.JPG,AFNE01.JPG,AFNE01.JPG,,,,,4,2,42,2,,,,,,,,,,,,,,,,,,,AFSA07.jpg,AFSA18.jpg,AFNE06.jpg,AFNE02.jpg,AFNE02.jpg,FN,3,num_4,32,num_8,2.41661574919,,,2017_Oct_05_1422,59.9322400795,MAFE4ImagesEEG,001,201920,
AFNE01.JPG,AFNE01.JPG,AFNE01.JPG,AFNE01.JPG,AFNE01.JPG,AFNE01.JPG,,,,,4,3,43,5,,,,,,,,,,,,,,,,,,,AFSA12.jpg,AFSA20.jpg,AFNE13.jpg,AFNE12.jpg,AFSA20.jpg,FS,4,num_6,32,num_2,2.15007814835,,,2017_Oct_05_1422,59.9322400795,MAFE4ImagesEEG,001,201920,
AFNE01.JPG,AFNE01.JPG,AFNE01.JPG,AFNE01.JPG,AFNE01.JPG,AFNE01.JPG,,,,,4,4,44,6,,,,,,,,,,,,,,,,,,,AFSA16.jpg,AFNE02.jpg,AFNE04.jpg,AFSA17.jpg,AFSA17.jpg,FS,4,num_4,32,num_2,2.00000352814,,,2017_Oct_05_1422,59.9322400795,MAFE4ImagesEEG,001,201920,
AFNE01.JPG,AFNE01.JPG,AFNE01.JPG,AFNE01.JPG,AFNE01.JPG,AFNE01.JPG,,,,,4,5,45,8,,,,,,,,,,,,,,,,,,,AFSA06.jpg,AFSA20.jpg,AFNE01.jpg,AFNE14.jpg,AFNE01.jpg,FN,3,num_2,48,None,,,,2017_Oct_05_1422,59.9322400795,MAFE4ImagesEEG,001,201920,
AFNE01.JPG,AFNE01.JPG,AFNE01.JPG,AFNE01.JPG,AFNE01.JPG,AFNE01.JPG,,,,,4,6,46,0,,,,,,,,,,,,,,,,,,,AFSA12.jpg,AFSA07.jpg,AFNE16.jpg,AFNE03.jpg,AFNE16.jpg,FN,3,num_2,32,num_8,0.966767154547,,,2017_Oct_05_1422,59.9322400795,MAFE4ImagesEEG,001,201920,
AFNE01.JPG,AFNE01.JPG,AFNE01.JPG,AFNE01.JPG,AFNE01.JPG,AFNE01.JPG,,,,,4,7,47,4,,,,,,,,,,,,,,,,,,,AFNE05.jpg,AFSA04.jpg,AFNE02.jpg,AFSA17.jpg,AFNE05.jpg,FN,3,num_8,16,num_8,3.21678054545,,,2017_Oct_05_1422,59.9322400795,MAFE4ImagesEEG,001,201920,
AFNE01.JPG,AFNE01.JPG,AFNE01.JPG,AFNE01.JPG,AFNE01.JPG,AFNE01.JPG,,,,,4,8,48,9,,,,,,,,,,,,,,,,,,,AFSA18.jpg,AFNE19.jpg,AFNE11.jpg,AFSA10.jpg,AFNE11.jpg,FN,3,num_2,32,num_6,0.616783881123,,,2017_Oct_05_1422,59.9322400795,MAFE4ImagesEEG,001,201920,
AFNE01.JPG,AFNE01.JPG,AFNE01.JPG,AFNE01.JPG,AFNE01.JPG,AFNE01.JPG,,,,,4,9,49,7,,,,,,,,,,,,,,,,,,,AFSA02.jpg,AFNE15.jpg,AFSA17.jpg,AFNE13.jpg,AFNE13.jpg,FN,3,num_4,32,num_8,1.10007989637,,,2017_Oct_05_1422,59.9322400795,MAFE4ImagesEEG,001,201920,
AFNE01.JPG,AFNE01.JPG,AFNE01.JPG,AFNE01.JPG,AFNE01.JPG,AFNE01.JPG,,,,,5,0,50,8,,,,,,,,,,,,,,,,,,,AFSA10.jpg,AFNE10.jpg,AFNE12.jpg,AFSA19.jpg,AFSA10.jpg,FS,4,num_8,32,num_2,1.6000470205,,,2017_Oct_05_1422,59.9322400795,MAFE4ImagesEEG,001,201920,
AFNE01.JPG,AFNE01.JPG,AFNE01.JPG,AFNE01.JPG,AFNE01.JPG,AFNE01.JPG,,,,,5,1,51,5,,,,,,,,,,,,,,,,,,,AFSA10.jpg,AFNE03.jpg,AFSA14.jpg,AFNE06.jpg,AFNE06.jpg,FN,3,num_4,32,num_6,0.250164138764,,,2017_Oct_05_1422,59.9322400795,MAFE4ImagesEEG,001,201920,
AFNE01.JPG,AFNE01.JPG,AFNE01.JPG,AFNE01.JPG,AFNE01.JPG,AFNE01.JPG,,,,,5,2,52,6,,,,,,,,,,,,,,,,,,,AFNE04.jpg,AFNE18.jpg,AFSA01.jpg,AFSA02.jpg,AFNE18.jpg,FN,3,num_6,32,num_4,0.683478901221,,,2017_Oct_05_1422,59.9322400795,MAFE4ImagesEEG,001,201920,
AFNE01.JPG,AFNE01.JPG,AFNE01.JPG,AFNE01.JPG,AFNE01.JPG,AFNE01.JPG,,,,,5,3,53,1,,,,,,,,,,,,,,,,,,,AFNE20.jpg,AFNE14.jpg,AFSA13.jpg,AFSA11.jpg,AFNE14.jpg,FN,3,num_6,32,num_2,0.466820237052,,,2017_Oct_05_1422,59.9322400795,MAFE4ImagesEEG,001,201920,
AFNE01.JPG,AFNE01.JPG,AFNE01.JPG,AFNE01.JPG,AFNE01.JPG,AFNE01.JPG,,,,,5,4,54,0,,,,,,,,,,,,,,,,,,,AFNE06.jpg,AFNE13.jpg,AFSA08.jpg,AFSA03.jpg,AFNE06.jpg,FN,3,num_8,32,num_6,2.73363784401,,,2017_Oct_05_1422,59.9322400795,MAFE4ImagesEEG,001,201920,
AFNE01.JPG,AFNE01.JPG,AFNE01.JPG,AFNE01.JPG,AFNE01.JPG,AFNE01.JPG,,,,,5,5,55,9,,,,,,,,,,,,,,,,,,,AFSA14.jpg,AFSA16.jpg,AFNE02.jpg,AFNE11.jpg,AFSA16.jpg,FS,4,num_6,16,num_6,1.05021154415,,,2017_Oct_05_1422,59.9322400795,MAFE4ImagesEEG,001,201920,
AFNE01.JPG,AFNE01.JPG,AFNE01.JPG,AFNE01.JPG,AFNE01.JPG,AFNE01.JPG,,,,,5,6,56,2,,,,,,,,,,,,,,,,,,,AFSA12.jpg,AFSA08.jpg,AFNE08.jpg,AFNE03.jpg,AFNE08.jpg,FN,3,num_2,32,num_8,1.86679663058,,,2017_Oct_05_1422,59.9322400795,MAFE4ImagesEEG,001,201920,
AFNE01.JPG,AFNE01.JPG,AFNE01.JPG,AFNE01.JPG,AFNE01.JPG,AFNE01.JPG,,,,,5,7,57,4,,,,,,,,,,,,,,,,,,,AFSA03.jpg,AFNE10.jpg,AFSA07.jpg,AFNE06.jpg,AFNE06.jpg,FN,3,num_4,16,num_4,1.56678402546,,,2017_Oct_05_1422,59.9322400795,MAFE4ImagesEEG,001,201920,
AFNE01.JPG,AFNE01.JPG,AFNE01.JPG,AFNE01.JPG,AFNE01.JPG,AFNE01.JPG,,,,,5,8,58,3,,,,,,,,,,,,,,,,,,,AFSA12.jpg,AFNE16.jpg,AFSA07.jpg,AFNE01.jpg,AFSA07.jpg,FS,4,num_2,16,num_2,1.55018700752,,,2017_Oct_05_1422,59.9322400795,MAFE4ImagesEEG,001,201920,
AFNE01.JPG,AFNE01.JPG,AFNE01.JPG,AFNE01.JPG,AFNE01.JPG,AFNE01.JPG,,,,,5,9,59,7,,,,,,,,,,,,,,,,,,,AFSA07.jpg,AFNE06.jpg,AFNE13.jpg,AFSA14.jpg,AFSA14.jpg,FS,4,num_4,32,num_6,1.16681404674,,,2017_Oct_05_1422,59.9322400795,MAFE4ImagesEEG,001,201920,
,,,,,,,,,,,,,,,,,,,,,,,,,,,,,,,,,,,,,,,,,,,space,10.9993277287,2017_Oct_05_1422,59.9322400795,MAFE4ImagesEEG,001,201920,
AFNE01.JPG,AFNE01.JPG,AFNE01.JPG,AFNE01.JPG,AFNE01.JPG,AFNE01.JPG,,,,,,,,,0,0,0,6,,,,,,,,,,,,,,,AMSA15.jpg,AMNE02.jpg,AMSA17.jpg,AMNE14.jpg,AMNE02.jpg,MN,1,num_6,32,num_8,2.11665574546,,,2017_Oct_05_1422,59.9322400795,MAFE4ImagesEEG,001,201920,
AFNE01.JPG,AFNE01.JPG,AFNE01.JPG,AFNE01.JPG,AFNE01.JPG,AFNE01.JPG,,,,,,,,,0,1,1,3,,,,,,,,,,,,,,,AMSA17.jpg,AMNE10.jpg,AMSA11.jpg,AMNE14.jpg,AMSA17.jpg,MS,2,num_8,32,num_2,0.216833467566,,,2017_Oct_05_1422,59.9322400795,MAFE4ImagesEEG,001,201920,
AFNE01.JPG,AFNE01.JPG,AFNE01.JPG,AFNE01.JPG,AFNE01.JPG,AFNE01.JPG,,,,,,,,,0,2,2,1,,,,,,,,,,,,,,,AMSA06.jpg,AMSA13.jpg,AMNE20.jpg,AMNE07.jpg,AMNE07.jpg,MN,1,num_4,32,num_2,0.366819242743,,,2017_Oct_05_1422,59.9322400795,MAFE4ImagesEEG,001,201920,
AFNE01.JPG,AFNE01.JPG,AFNE01.JPG,AFNE01.JPG,AFNE01.JPG,AFNE01.JPG,,,,,,,,,0,3,3,2,,,,,,,,,,,,,,,AMSA19.jpg,AMSA18.jpg,AMNE09.jpg,AMNE19.jpg,AMSA18.jpg,MS,2,num_6,32,num_2,1.0167644443,,,2017_Oct_05_1422,59.9322400795,MAFE4ImagesEEG,001,201920,
AFNE01.JPG,AFNE01.JPG,AFNE01.JPG,AFNE01.JPG,AFNE01.JPG,AFNE01.JPG,,,,,,,,,0,4,4,4,,,,,,,,,,,,,,,AMSA08.jpg,AMNE09.jpg,AMSA19.jpg,AMNE05.jpg,AMNE05.jpg,MN,1,num_4,32,num_6,0.916776921105,,,2017_Oct_05_1422,59.9322400795,MAFE4ImagesEEG,001,201920,
AFNE01.JPG,AFNE01.JPG,AFNE01.JPG,AFNE01.JPG,AFNE01.JPG,AFNE01.JPG,,,,,,,,,0,5,5,0,,,,,,,,,,,,,,,AMSA20.jpg,AMNE10.jpg,AMNE20.jpg,AMSA03.jpg,AMSA20.jpg,MS,2,num_8,16,num_8,0.566821552056,,,2017_Oct_05_1422,59.9322400795,MAFE4ImagesEEG,001,201920,
AFNE01.JPG,AFNE01.JPG,AFNE01.JPG,AFNE01.JPG,AFNE01.JPG,AFNE01.JPG,,,,,,,,,0,6,6,9,,,,,,,,,,,,,,,AMSA15.jpg,AMSA09.jpg,AMNE10.jpg,AMNE06.jpg,AMSA15.jpg,MS,2,num_8,32,num_4,0.983461677504,,,2017_Oct_05_1422,59.9322400795,MAFE4ImagesEEG,001,201920,
AFNE01.JPG,AFNE01.JPG,AFNE01.JPG,AFNE01.JPG,AFNE01.JPG,AFNE01.JPG,,,,,,,,,0,7,7,5,,,,,,,,,,,,,,,AMSA03.jpg,AMNE13.jpg,AMNE14.jpg,AMSA13.jpg,AMNE13.jpg,MN,1,num_6,16,num_6,2.21662017537,,,2017_Oct_05_1422,59.9322400795,MAFE4ImagesEEG,001,201920,
AFNE01.JPG,AFNE01.JPG,AFNE01.JPG,AFNE01.JPG,AFNE01.JPG,AFNE01.JPG,,,,,,,,,0,8,8,8,,,,,,,,,,,,,,,AMNE04.jpg,AMNE20.jpg,AMSA19.jpg,AMSA14.jpg,AMSA14.jpg,MS,2,num_4,32,num_2,3.64991152385,,,2017_Oct_05_1422,59.9322400795,MAFE4ImagesEEG,001,201920,
AFNE01.JPG,AFNE01.JPG,AFNE01.JPG,AFNE01.JPG,AFNE01.JPG,AFNE01.JPG,,,,,,,,,0,9,9,7,,,,,,,,,,,,,,,AMNE05.jpg,AMNE16.jpg,AMSA02.jpg,AMSA19.jpg,AMSA19.jpg,MS,2,num_4,32,num_8,1.51668345739,,,2017_Oct_05_1422,59.9322400795,MAFE4ImagesEEG,001,201920,
AFNE01.JPG,AFNE01.JPG,AFNE01.JPG,AFNE01.JPG,AFNE01.JPG,AFNE01.JPG,,,,,,,,,1,0,10,5,,,,,,,,,,,,,,,AMSA17.jpg,AMNE14.jpg,AMSA06.jpg,AMNE05.jpg,AMSA17.jpg,MS,2,num_8,16,num_8,0.866752689151,,,2017_Oct_05_1422,59.9322400795,MAFE4ImagesEEG,001,201920,
AFNE01.JPG,AFNE01.JPG,AFNE01.JPG,AFNE01.JPG,AFNE01.JPG,AFNE01.JPG,,,,,,,,,1,1,11,9,,,,,,,,,,,,,,,AMNE01.jpg,AMSA13.jpg,AMNE18.jpg,AMSA04.jpg,AMSA04.jpg,MS,2,num_4,32,num_8,0.750014513498,,,2017_Oct_05_1422,59.9322400795,MAFE4ImagesEEG,001,201920,
AFNE01.JPG,AFNE01.JPG,AFNE01.JPG,AFNE01.JPG,AFNE01.JPG,AFNE01.JPG,,,,,,,,,1,2,12,6,,,,,,,,,,,,,,,AMNE20.jpg,AMSA18.jpg,AMSA15.jpg,AMNE02.jpg,AMSA18.jpg,MS,2,num_6,16,num_6,1.55005774923,,,2017_Oct_05_1422,59.9322400795,MAFE4ImagesEEG,001,201920,
AFNE01.JPG,AFNE01.JPG,AFNE01.JPG,AFNE01.JPG,AFNE01.JPG,AFNE01.JPG,,,,,,,,,1,3,13,0,,,,,,,,,,,,,,,AMNE01.jpg,AMNE15.jpg,AMSA19.jpg,AMSA18.jpg,AMSA19.jpg,MS,2,num_2,32,num_4,1.00011097608,,,2017_Oct_05_1422,59.9322400795,MAFE4ImagesEEG,001,201920,
AFNE01.JPG,AFNE01.JPG,AFNE01.JPG,AFNE01.JPG,AFNE01.JPG,AFNE01.JPG,,,,,,,,,1,4,14,2,,,,,,,,,,,,,,,AMSA01.jpg,AMNE19.jpg,AMNE01.jpg,AMSA18.jpg,AMNE19.jpg,MN,1,num_6,32,num_2,0.849818894116,,,2017_Oct_05_1422,59.9322400795,MAFE4ImagesEEG,001,201920,
AFNE01.JPG,AFNE01.JPG,AFNE01.JPG,AFNE01.JPG,AFNE01.JPG,AFNE01.JPG,,,,,,,,,1,5,15,3,,,,,,,,,,,,,,,AMSA05.jpg,AMNE20.jpg,AMNE01.jpg,AMSA03.jpg,AMNE01.jpg,MN,1,num_2,32,num_4,0.283523997292,,,2017_Oct_05_1422,59.9322400795,MAFE4ImagesEEG,001,201920,
AFNE01.JPG,AFNE01.JPG,AFNE01.JPG,AFNE01.JPG,AFNE01.JPG,AFNE01.JPG,,,,,,,,,1,6,16,1,,,,,,,,,,,,,,,AMSA03.jpg,AMNE13.jpg,AMSA13.jpg,AMNE18.jpg,AMNE13.jpg,MN,1,num_6,32,num_8,0.0335760373855,,,2017_Oct_05_1422,59.9322400795,MAFE4ImagesEEG,001,201920,
AFNE01.JPG,AFNE01.JPG,AFNE01.JPG,AFNE01.JPG,AFNE01.JPG,AFNE01.JPG,,,,,,,,,1,7,17,7,,,,,,,,,,,,,,,AMSA12.jpg,AMNE13.jpg,AMNE01.jpg,AMSA15.jpg,AMNE01.jpg,MN,1,num_2,32,num_6,1.50003800768,,,2017_Oct_05_1422,59.9322400795,MAFE4ImagesEEG,001,201920,
AFNE01.JPG,AFNE01.JPG,AFNE01.JPG,AFNE01.JPG,AFNE01.JPG,AFNE01.JPG,,,,,,,,,1,8,18,8,,,,,,,,,,,,,,,AMNE16.jpg,AMSA08.jpg,AMNE08.jpg,AMSA15.jpg,AMSA15.jpg,MS,2,num_4,32,num_8,0.433478981431,,,2017_Oct_05_1422,59.9322400795,MAFE4ImagesEEG,001,201920,
AFNE01.JPG,AFNE01.JPG,AFNE01.JPG,AFNE01.JPG,AFNE01.JPG,AFNE01.JPG,,,,,,,,,1,9,19,4,,,,,,,,,,,,,,,AMSA12.jpg,AMNE10.jpg,AMNE11.jpg,AMSA11.jpg,AMSA11.jpg,MS,2,num_4,16,num_4,0.533474843862,,,2017_Oct_05_1422,59.9322400795,MAFE4ImagesEEG,001,201920,
AFNE01.JPG,AFNE01.JPG,AFNE01.JPG,AFNE01.JPG,AFNE01.JPG,AFNE01.JPG,,,,,,,,,2,0,20,7,,,,,,,,,,,,,,,AMSA01.jpg,AMNE08.jpg,AMSA03.jpg,AMNE04.jpg,AMNE04.jpg,MN,1,num_4,32,num_6,1.40004663559,,,2017_Oct_05_1422,59.9322400795,MAFE4ImagesEEG,001,201920,
AFNE01.JPG,AFNE01.JPG,AFNE01.JPG,AFNE01.JPG,AFNE01.JPG,AFNE01.JPG,,,,,,,,,2,1,21,5,,,,,,,,,,,,,,,AMSA15.jpg,AMNE02.jpg,AMSA11.jpg,AMNE06.jpg,AMNE02.jpg,MN,1,num_6,16,num_6,0.716798346519,,,2017_Oct_05_1422,59.9322400795,MAFE4ImagesEEG,001,201920,
AFNE01.JPG,AFNE01.JPG,AFNE01.JPG,AFNE01.JPG,AFNE01.JPG,AFNE01.JPG,,,,,,,,,2,2,22,0,,,,,,,,,,,,,,,AMNE16.jpg,AMSA07.jpg,AMSA05.jpg,AMNE07.jpg,AMNE16.jpg,MN,1,num_8,32,num_2,0.466939552338,,,2017_Oct_05_1422,59.9322400795,MAFE4ImagesEEG,001,201920,
AFNE01.JPG,AFNE01.JPG,AFNE01.JPG,AFNE01.JPG,AFNE01.JPG,AFNE01.JPG,,,,,,,,,2,3,23,2,,,,,,,,,,,,,,,AMSA14.jpg,AMNE18.jpg,AMNE08.jpg,AMSA04.jpg,AMSA04.jpg,MS,2,num_4,32,num_2,0.55001861896,,,2017_Oct_05_1422,59.9322400795,MAFE4ImagesEEG,001,201920,
AFNE01.JPG,AFNE01.JPG,AFNE01.JPG,AFNE01.JPG,AFNE01.JPG,AFNE01.JPG,,,,,,,,,2,4,24,1,,,,,,,,,,,,,,,AMNE10.jpg,AMNE01.jpg,AMSA05.jpg,AMSA10.jpg,AMNE10.jpg,MN,1,num_8,32,num_2,0.433477056999,,,2017_Oct_05_1422,59.9322400795,MAFE4ImagesEEG,001,201920,
AFNE01.JPG,AFNE01.JPG,AFNE01.JPG,AFNE01.JPG,AFNE01.JPG,AFNE01.JPG,,,,,,,,,2,5,25,8,,,,,,,,,,,,,,,AMSA06.jpg,AMNE14.jpg,AMNE04.jpg,AMSA18.jpg,AMNE04.jpg,MN,1,num_2,32,num_4,1.66681773527,,,2017_Oct_05_1422,59.9322400795,MAFE4ImagesEEG,001,201920,
AFNE01.JPG,AFNE01.JPG,AFNE01.JPG,AFNE01.JPG,AFNE01.JPG,AFNE01.JPG,,,,,,,,,2,6,26,4,,,,,,,,,,,,,,,AMNE18.jpg,AMSA13.jpg,AMNE08.jpg,AMSA14.jpg,AMSA13.jpg,MS,2,num_6,32,num_8,2.65015464486,,,2017_Oct_05_1422,59.9322400795,MAFE4ImagesEEG,001,201920,
AFNE01.JPG,AFNE01.JPG,AFNE01.JPG,AFNE01.JPG,AFNE01.JPG,AFNE01.JPG,,,,,,,,,2,7,27,6,,,,,,,,,,,,,,,AMNE15.jpg,AMSA10.jpg,AMNE17.jpg,AMSA18.jpg,AMNE17.jpg,MN,1,num_2,32,num_4,1.06691953816,,,2017_Oct_05_1422,59.9322400795,MAFE4ImagesEEG,001,201920,
AFNE01.JPG,AFNE01.JPG,AFNE01.JPG,AFNE01.JPG,AFNE01.JPG,AFNE01.JPG,,,,,,,,,2,8,28,3,,,,,,,,,,,,,,,AMNE01.jpg,AMSA18.jpg,AMSA10.jpg,AMNE13.jpg,AMNE01.jpg,MN,1,num_8,16,num_8,1.78339297496,,,2017_Oct_05_1422,59.9322400795,MAFE4ImagesEEG,001,201920,
AFNE01.JPG,AFNE01.JPG,AFNE01.JPG,AFNE01.JPG,AFNE01.JPG,AFNE01.JPG,,,,,,,,,2,9,29,9,,,,,,,,,,,,,,,AMSA19.jpg,AMNE19.jpg,AMSA14.jpg,AMNE02.jpg,AMNE02.jpg,MN,1,num_4,32,num_8,0.633576229826,,,2017_Oct_05_1422,59.9322400795,MAFE4ImagesEEG,001,201920,
AFNE01.JPG,AFNE01.JPG,AFNE01.JPG,AFNE01.JPG,AFNE01.JPG,AFNE01.JPG,,,,,,,,,3,0,30,5,,,,,,,,,,,,,,,AMSA08.jpg,AMNE07.jpg,AMSA07.jpg,AMNE05.jpg,AMNE05.jpg,MN,1,num_4,32,num_6,0.833435489069,,,2017_Oct_05_1422,59.9322400795,MAFE4ImagesEEG,001,201920,
AFNE01.JPG,AFNE01.JPG,AFNE01.JPG,AFNE01.JPG,AFNE01.JPG,AFNE01.JPG,,,,,,,,,3,1,31,7,,,,,,,,,,,,,,,AMSA08.jpg,AMNE13.jpg,AMSA19.jpg,AMNE15.jpg,AMNE15.jpg,MN,1,num_4,32,num_6,0.316793727863,,,2017_Oct_05_1422,59.9322400795,MAFE4ImagesEEG,001,201920,
AFNE01.JPG,AFNE01.JPG,AFNE01.JPG,AFNE01.JPG,AFNE01.JPG,AFNE01.JPG,,,,,,,,,3,2,32,1,,,,,,,,,,,,,,,AMSA04.jpg,AMSA03.jpg,AMNE08.jpg,AMNE12.jpg,AMNE12.jpg,MN,1,num_4,16,num_4,2.54970365216,,,2017_Oct_05_1422,59.9322400795,MAFE4ImagesEEG,001,201920,
AFNE01.JPG,AFNE01.JPG,AFNE01.JPG,AFNE01.JPG,AFNE01.JPG,AFNE01.JPG,,,,,,,,,3,3,33,6,,,,,,,,,,,,,,,AMSA10.jpg,AMSA08.jpg,AMNE16.jpg,AMNE20.jpg,AMNE20.jpg,MN,1,num_4,32,num_8,1.3834101666,,,2017_Oct_05_1422,59.9322400795,MAFE4ImagesEEG,001,201920,
AFNE01.JPG,AFNE01.JPG,AFNE01.JPG,AFNE01.JPG,AFNE01.JPG,AFNE01.JPG,,,,,,,,,3,4,34,8,,,,,,,,,,,,,,,AMSA13.jpg,AMNE13.jpg,AMNE09.jpg,AMSA18.jpg,AMNE09.jpg,MN,1,num_2,16,num_2,1.45009492303,,,2017_Oct_05_1422,59.9322400795,MAFE4ImagesEEG,001,201920,
AFNE01.JPG,AFNE01.JPG,AFNE01.JPG,AFNE01.JPG,AFNE01.JPG,AFNE01.JPG,,,,,,,,,3,5,35,2,,,,,,,,,,,,,,,AMSA18.jpg,AMNE15.jpg,AMNE03.jpg,AMSA16.jpg,AMSA18.jpg,MS,2,num_8,32,num_6,3.11662816184,,,2017_Oct_05_1422,59.9322400795,MAFE4ImagesEEG,001,201920,
AFNE01.JPG,AFNE01.JPG,AFNE01.JPG,AFNE01.JPG,AFNE01.JPG,AFNE01.JPG,,,,,,,,,3,6,36,9,,,,,,,,,,,,,,,AMSA14.jpg,AMNE20.jpg,AMSA03.jpg,AMNE05.jpg,AMNE20.jpg,MN,1,num_6,32,num_4,1.55003369375,,,2017_Oct_05_1422,59.9322400795,MAFE4ImagesEEG,001,201920,
AFNE01.JPG,AFNE01.JPG,AFNE01.JPG,AFNE01.JPG,AFNE01.JPG,AFNE01.JPG,,,,,,,,,3,7,37,4,,,,,,,,,,,,,,,AMSA19.jpg,AMNE05.jpg,AMSA05.jpg,AMNE19.jpg,AMNE05.jpg,MN,1,num_6,16,num_6,1.50008547722,,,2017_Oct_05_1422,59.9322400795,MAFE4ImagesEEG,001,201920,
AFNE01.JPG,AFNE01.JPG,AFNE01.JPG,AFNE01.JPG,AFNE01.JPG,AFNE01.JPG,,,,,,,,,3,8,38,0,,,,,,,,,,,,,,,AMNE11.jpg,AMSA02.jpg,AMSA13.jpg,AMNE04.jpg,AMSA02.jpg,MS,2,num_6,32,num_8,2.0666574935,,,2017_Oct_05_1422,59.9322400795,MAFE4ImagesEEG,001,201920,
AFNE01.JPG,AFNE01.JPG,AFNE01.JPG,AFNE01.JPG,AFNE01.JPG,AFNE01.JPG,,,,,,,,,3,9,39,3,,,,,,,,,,,,,,,AMSA02.jpg,AMSA11.jpg,AMNE15.jpg,AMNE02.jpg,AMSA11.jpg,MS,2,num_6,32,num_4,0.633528118808,,,2017_Oct_05_1422,59.9322400795,MAFE4ImagesEEG,001,201920,
AFNE01.JPG,AFNE01.JPG,AFNE01.JPG,AFNE01.JPG,AFNE01.JPG,AFNE01.JPG,,,,,,,,,4,0,40,3,,,,,,,,,,,,,,,AMSA07.jpg,AMNE04.jpg,AMNE15.jpg,AMSA18.jpg,AMSA18.jpg,MS,2,num_4,16,num_4,0.36677850876,,,2017_Oct_05_1422,59.9322400795,MAFE4ImagesEEG,001,201920,
AFNE01.JPG,AFNE01.JPG,AFNE01.JPG,AFNE01.JPG,AFNE01.JPG,AFNE01.JPG,,,,,,,,,4,1,41,0,,,,,,,,,,,,,,,AMNE09.jpg,AMNE18.jpg,AMSA07.jpg,AMSA16.jpg,AMNE09.jpg,MN,1,num_8,32,num_4,0.749993344652,,,2017_Oct_05_1422,59.9322400795,MAFE4ImagesEEG,001,201920,
AFNE01.JPG,AFNE01.JPG,AFNE01.JPG,AFNE01.JPG,AFNE01.JPG,AFNE01.JPG,,,,,,,,,4,2,42,2,,,,,,,,,,,,,,,AMNE15.jpg,AMSA05.jpg,AMSA08.jpg,AMNE18.jpg,AMNE15.jpg,MN,1,num_8,32,num_6,3.31639376492,,,2017_Oct_05_1422,59.9322400795,MAFE4ImagesEEG,001,201920,
AFNE01.JPG,AFNE01.JPG,AFNE01.JPG,AFNE01.JPG,AFNE01.JPG,AFNE01.JPG,,,,,,,,,4,3,43,5,,,,,,,,,,,,,,,AMSA14.jpg,AMNE16.jpg,AMSA05.jpg,AMNE03.jpg,AMNE16.jpg,MN,1,num_6,16,num_6,1.51670783365,,,2017_Oct_05_1422,59.9322400795,MAFE4ImagesEEG,001,201920,
AFNE01.JPG,AFNE01.JPG,AFNE01.JPG,AFNE01.JPG,AFNE01.JPG,AFNE01.JPG,,,,,,,,,4,4,44,9,,,,,,,,,,,,,,,AMSA16.jpg,AMSA08.jpg,AMNE11.jpg,AMNE03.jpg,AMSA08.jpg,MS,2,num_6,32,num_8,2.21677862102,,,2017_Oct_05_1422,59.9322400795,MAFE4ImagesEEG,001,201920,
AFNE01.JPG,AFNE01.JPG,AFNE01.JPG,AFNE01.JPG,AFNE01.JPG,AFNE01.JPG,,,,,,,,,4,5,45,7,,,,,,,,,,,,,,,AMNE16.jpg,AMSA15.jpg,AMSA20.jpg,AMNE02.jpg,AMNE16.jpg,MN,1,num_8,32,num_2,1.55009527586,,,2017_Oct_05_1422,59.9322400795,MAFE4ImagesEEG,001,201920,
AFNE01.JPG,AFNE01.JPG,AFNE01.JPG,AFNE01.JPG,AFNE01.JPG,AFNE01.JPG,,,,,,,,,4,6,46,4,,,,,,,,,,,,,,,AMNE17.jpg,AMSA12.jpg,AMSA10.jpg,AMNE14.jpg,AMSA10.jpg,MS,2,num_2,32,num_4,1.96672257167,,,2017_Oct_05_1422,59.9322400795,MAFE4ImagesEEG,001,201920,
AFNE01.JPG,AFNE01.JPG,AFNE01.JPG,AFNE01.JPG,AFNE01.JPG,AFNE01.JPG,,,,,,,,,4,7,47,6,,,,,,,,,,,,,,,AMNE05.jpg,AMNE03.jpg,AMSA05.jpg,AMSA20.jpg,AMNE05.jpg,MN,1,num_8,32,num_6,1.28340115381,,,2017_Oct_05_1422,59.9322400795,MAFE4ImagesEEG,001,201920,
AFNE01.JPG,AFNE01.JPG,AFNE01.JPG,AFNE01.JPG,AFNE01.JPG,AFNE01.JPG,,,,,,,,,4,8,48,8,,,,,,,,,,,,,,,AMSA14.jpg,AMNE18.jpg,AMNE11.jpg,AMSA19.jpg,AMSA14.jpg,MS,2,num_8,16,num_8,0.833525617054,,,2017_Oct_05_1422,59.9322400795,MAFE4ImagesEEG,001,201920,
AFNE01.JPG,AFNE01.JPG,AFNE01.JPG,AFNE01.JPG,AFNE01.JPG,AFNE01.JPG,,,,,,,,,4,9,49,1,,,,,,,,,,,,,,,AMNE03.jpg,AMNE11.jpg,AMSA19.jpg,AMSA10.jpg,AMSA10.jpg,MS,2,num_4,16,num_4,0.750163016142,,,2017_Oct_05_1422,59.9322400795,MAFE4ImagesEEG,001,201920,
AFNE01.JPG,AFNE01.JPG,AFNE01.JPG,AFNE01.JPG,AFNE01.JPG,AFNE01.JPG,,,,,,,,,5,0,50,4,,,,,,,,,,,,,,,AMSA20.jpg,AMNE16.jpg,AMSA11.jpg,AMNE06.jpg,AMNE16.jpg,MN,1,num_6,16,num_6,0.783456802252,,,2017_Oct_05_1422,59.9322400795,MAFE4ImagesEEG,001,201920,
AFNE01.JPG,AFNE01.JPG,AFNE01.JPG,AFNE01.JPG,AFNE01.JPG,AFNE01.JPG,,,,,,,,,5,1,51,8,,,,,,,,,,,,,,,AMNE14.jpg,AMNE05.jpg,AMSA09.jpg,AMSA03.jpg,AMNE14.jpg,MN,1,num_8,16,num_8,0.666753587255,,,2017_Oct_05_1422,59.9322400795,MAFE4ImagesEEG,001,201920,
AFNE01.JPG,AFNE01.JPG,AFNE01.JPG,AFNE01.JPG,AFNE01.JPG,AFNE01.JPG,,,,,,,,,5,2,52,9,,,,,,,,,,,,,,,AMSA08.jpg,AMNE15.jpg,AMSA20.jpg,AMNE08.jpg,AMNE08.jpg,MN,1,num_4,16,num_4,0.983550522476,,,2017_Oct_05_1422,59.9322400795,MAFE4ImagesEEG,001,201920,
AFNE01.JPG,AFNE01.JPG,AFNE01.JPG,AFNE01.JPG,AFNE01.JPG,AFNE01.JPG,,,,,,,,,5,3,53,6,,,,,,,,,,,,,,,AMSA20.jpg,AMSA02.jpg,AMNE14.jpg,AMNE10.jpg,AMNE10.jpg,MN,1,num_4,16,num_4,1.38343101472,,,2017_Oct_05_1422,59.9322400795,MAFE4ImagesEEG,001,201920,
AFNE01.JPG,AFNE01.JPG,AFNE01.JPG,AFNE01.JPG,AFNE01.JPG,AFNE01.JPG,,,,,,,,,5,4,54,1,,,,,,,,,,,,,,,AMSA06.jpg,AMNE03.jpg,AMSA14.jpg,AMNE11.jpg,AMNE03.jpg,MN,1,num_6,16,num_6,1.38339894073,,,2017_Oct_05_1422,59.9322400795,MAFE4ImagesEEG,001,201920,
AFNE01.JPG,AFNE01.JPG,AFNE01.JPG,AFNE01.JPG,AFNE01.JPG,AFNE01.JPG,,,,,,,,,5,5,55,7,,,,,,,,,,,,,,,AMSA07.jpg,AMNE07.jpg,AMSA20.jpg,AMNE03.jpg,AMNE07.jpg,MN,1,num_6,16,num_6,1.7500536438,,,2017_Oct_05_1422,59.9322400795,MAFE4ImagesEEG,001,201920,
AFNE01.JPG,AFNE01.JPG,AFNE01.JPG,AFNE01.JPG,AFNE01.JPG,AFNE01.JPG,,,,,,,,,5,6,56,0,,,,,,,,,,,,,,,AMSA04.jpg,AMNE05.jpg,AMNE09.jpg,AMSA11.jpg,AMSA11.jpg,MS,2,num_4,32,num_2,1.60005311458,,,2017_Oct_05_1422,59.9322400795,MAFE4ImagesEEG,001,201920,
AFNE01.JPG,AFNE01.JPG,AFNE01.JPG,AFNE01.JPG,AFNE01.JPG,AFNE01.JPG,,,,,,,,,5,7,57,5,,,,,,,,,,,,,,,AMSA17.jpg,AMNE10.jpg,AMSA11.jpg,AMNE19.jpg,AMNE19.jpg,MN,1,num_4,16,num_4,1.28354292095,,,2017_Oct_05_1422,59.9322400795,MAFE4ImagesEEG,001,201920,
AFNE01.JPG,AFNE01.JPG,AFNE01.JPG,AFNE01.JPG,AFNE01.JPG,AFNE01.JPG,,,,,,,,,5,8,58,2,,,,,,,,,,,,,,,AMNE02.jpg,AMNE11.jpg,AMSA15.jpg,AMSA05.jpg,AMNE02.jpg,MN,1,num_8,32,num_4,0.733508585748,,,2017_Oct_05_1422,59.9322400795,MAFE4ImagesEEG,001,201920,
AFNE01.JPG,AFNE01.JPG,AFNE01.JPG,AFNE01.JPG,AFNE01.JPG,AFNE01.JPG,,,,,,,,,5,9,59,3,,,,,,,,,,,,,,,AMSA14.jpg,AMNE19.jpg,AMNE09.jpg,AMSA09.jpg,AMSA09.jpg,MS,2,num_4,32,num_6,3.03329378608,,,2017_Oct_05_1422,59.9322400795,MAFE4ImagesEEG,001,201920,
,,,,,,,,,,,,,,,,,,,,,,,,,,,,,,,,,,,,,,,,,,,space,32.0477511467,2017_Oct_05_1422,59.9322400795,MAFE4ImagesEEG,001,201920,
AFNE01.JPG,AFNE01.JPG,AFNE01.JPG,AFNE01.JPG,AFNE01.JPG,AFNE01.JPG,,,,,,,,,,,,,0,0,0,6,,,,,,,,,,,AFNE07.jpg,AFNE16.jpg,AFSA01.jpg,AFSA14.jpg,AFSA01.jpg,FS,4,num_2,32,num_8,0.900121849147,,,2017_Oct_05_1422,59.9322400795,MAFE4ImagesEEG,001,201920,
AFNE01.JPG,AFNE01.JPG,AFNE01.JPG,AFNE01.JPG,AFNE01.JPG,AFNE01.JPG,,,,,,,,,,,,,0,1,1,1,,,,,,,,,,,AFNE04.jpg,AFSA20.jpg,AFNE20.jpg,AFSA19.jpg,AFSA19.jpg,FS,4,num_4,16,num_4,0.283501866244,,,2017_Oct_05_1422,59.9322400795,MAFE4ImagesEEG,001,201920,
AFNE01.JPG,AFNE01.JPG,AFNE01.JPG,AFNE01.JPG,AFNE01.JPG,AFNE01.JPG,,,,,,,,,,,,,0,2,2,8,,,,,,,,,,,AFNE16.jpg,AFSA10.jpg,AFNE17.jpg,AFSA06.jpg,AFNE16.jpg,FN,3,num_8,32,num_6,0.266799966281,,,2017_Oct_05_1422,59.9322400795,MAFE4ImagesEEG,001,201920,
AFNE01.JPG,AFNE01.JPG,AFNE01.JPG,AFNE01.JPG,AFNE01.JPG,AFNE01.JPG,,,,,,,,,,,,,0,3,3,2,,,,,,,,,,,AFNE02.jpg,AFSA17.jpg,AFNE12.jpg,AFSA12.jpg,AFSA12.jpg,FS,4,num_4,32,num_2,0.516804055689,,,2017_Oct_05_1422,59.9322400795,MAFE4ImagesEEG,001,201920,
AFNE01.JPG,AFNE01.JPG,AFNE01.JPG,AFNE01.JPG,AFNE01.JPG,AFNE01.JPG,,,,,,,,,,,,,0,4,4,3,,,,,,,,,,,AFSA19.jpg,AFNE05.jpg,AFSA01.jpg,AFNE01.jpg,AFNE05.jpg,FN,3,num_6,32,num_8,1.25012019734,,,2017_Oct_05_1422,59.9322400795,MAFE4ImagesEEG,001,201920,
AFNE01.JPG,AFNE01.JPG,AFNE01.JPG,AFNE01.JPG,AFNE01.JPG,AFNE01.JPG,,,,,,,,,,,,,0,5,5,5,,,,,,,,,,,AFSA09.jpg,AFNE17.jpg,AFSA02.jpg,AFNE18.jpg,AFSA09.jpg,FS,4,num_8,32,num_6,1.05012815172,,,2017_Oct_05_1422,59.9322400795,MAFE4ImagesEEG,001,201920,
AFNE01.JPG,AFNE01.JPG,AFNE01.JPG,AFNE01.JPG,AFNE01.JPG,AFNE01.JPG,,,,,,,,,,,,,0,6,6,0,,,,,,,,,,,AFNE03.jpg,AFNE04.jpg,AFSA07.jpg,AFSA04.jpg,AFNE04.jpg,FN,3,num_6,16,num_6,1.21674462254,,,2017_Oct_05_1422,59.9322400795,MAFE4ImagesEEG,001,201920,
AFNE01.JPG,AFNE01.JPG,AFNE01.JPG,AFNE01.JPG,AFNE01.JPG,AFNE01.JPG,,,,,,,,,,,,,0,7,7,7,,,,,,,,,,,AFSA06.jpg,AFSA12.jpg,AFNE10.jpg,AFNE07.jpg,AFSA06.jpg,FS,4,num_8,16,num_8,1.25008587816,,,2017_Oct_05_1422,59.9322400795,MAFE4ImagesEEG,001,201920,
AFNE01.JPG,AFNE01.JPG,AFNE01.JPG,AFNE01.JPG,AFNE01.JPG,AFNE01.JPG,,,,,,,,,,,,,0,8,8,9,,,,,,,,,,,AFNE03.jpg,AFNE08.jpg,AFSA19.jpg,AFSA10.jpg,AFNE03.jpg,FN,3,num_8,32,num_6,1.38349323833,,,2017_Oct_05_1422,59.9322400795,MAFE4ImagesEEG,001,201920,
AFNE01.JPG,AFNE01.JPG,AFNE01.JPG,AFNE01.JPG,AFNE01.JPG,AFNE01.JPG,,,,,,,,,,,,,0,9,9,4,,,,,,,,,,,AFSA13.jpg,AFSA11.jpg,AFNE14.jpg,AFNE16.jpg,AFNE16.jpg,FN,3,num_4,32,num_8,1.11674202455,,,2017_Oct_05_1422,59.9322400795,MAFE4ImagesEEG,001,201920,
AFNE01.JPG,AFNE01.JPG,AFNE01.JPG,AFNE01.JPG,AFNE01.JPG,AFNE01.JPG,,,,,,,,,,,,,1,0,10,3,,,,,,,,,,,AFSA02.jpg,AFSA04.jpg,AFNE18.jpg,AFNE15.jpg,AFNE18.jpg,FN,3,num_2,32,num_4,0.533568179235,,,2017_Oct_05_1422,59.9322400795,MAFE4ImagesEEG,001,201920,
AFNE01.JPG,AFNE01.JPG,AFNE01.JPG,AFNE01.JPG,AFNE01.JPG,AFNE01.JPG,,,,,,,,,,,,,1,1,11,0,,,,,,,,,,,AFSA01.jpg,AFNE20.jpg,AFNE16.jpg,AFSA07.jpg,AFNE16.jpg,FN,3,num_2,32,num_8,0.866637864208,,,2017_Oct_05_1422,59.9322400795,MAFE4ImagesEEG,001,201920,
AFNE01.JPG,AFNE01.JPG,AFNE01.JPG,AFNE01.JPG,AFNE01.JPG,AFNE01.JPG,,,,,,,,,,,,,1,2,12,2,,,,,,,,,,,AFNE12.jpg,AFSA06.jpg,AFNE14.jpg,AFSA13.jpg,AFNE14.jpg,FN,3,num_2,32,num_6,1.0500624,,,2017_Oct_05_1422,59.9322400795,MAFE4ImagesEEG,001,201920,
AFNE01.JPG,AFNE01.JPG,AFNE01.JPG,AFNE01.JPG,AFNE01.JPG,AFNE01.JPG,,,,,,,,,,,,,1,3,13,8,,,,,,,,,,,AFNE09.jpg,AFSA17.jpg,AFNE19.jpg,AFSA19.jpg,AFNE19.jpg,FN,3,num_2,32,num_8,0.533498899371,,,2017_Oct_05_1422,59.9322400795,MAFE4ImagesEEG,001,201920,
AFNE01.JPG,AFNE01.JPG,AFNE01.JPG,AFNE01.JPG,AFNE01.JPG,AFNE01.JPG,,,,,,,,,,,,,1,4,14,1,,,,,,,,,,,AFNE12.jpg,AFNE19.jpg,AFSA10.jpg,AFSA08.jpg,AFSA10.jpg,FS,4,num_2,32,num_4,0.649990425911,,,2017_Oct_05_1422,59.9322400795,MAFE4ImagesEEG,001,201920,
AFNE01.JPG,AFNE01.JPG,AFNE01.JPG,AFNE01.JPG,AFNE01.JPG,AFNE01.JPG,,,,,,,,,,,,,1,5,15,4,,,,,,,,,,,AFNE09.jpg,AFNE14.jpg,AFSA17.jpg,AFSA20.jpg,AFNE09.jpg,FN,3,num_8,32,num_4,0.850129370519,,,2017_Oct_05_1422,59.9322400795,MAFE4ImagesEEG,001,201920,
AFNE01.JPG,AFNE01.JPG,AFNE01.JPG,AFNE01.JPG,AFNE01.JPG,AFNE01.JPG,,,,,,,,,,,,,1,6,16,5,,,,,,,,,,,AFNE12.jpg,AFSA14.jpg,AFSA05.jpg,AFNE01.jpg,AFSA05.jpg,FS,4,num_2,32,num_8,0.49999919816,,,2017_Oct_05_1422,59.9322400795,MAFE4ImagesEEG,001,201920,
AFNE01.JPG,AFNE01.JPG,AFNE01.JPG,AFNE01.JPG,AFNE01.JPG,AFNE01.JPG,,,,,,,,,,,,,1,7,17,9,,,,,,,,,,,AFNE12.jpg,AFNE19.jpg,AFSA16.jpg,AFSA18.jpg,AFSA16.jpg,FS,4,num_2,32,num_4,0.783431784512,,,2017_Oct_05_1422,59.9322400795,MAFE4ImagesEEG,001,201920,
AFNE01.JPG,AFNE01.JPG,AFNE01.JPG,AFNE01.JPG,AFNE01.JPG,AFNE01.JPG,,,,,,,,,,,,,1,8,18,7,,,,,,,,,,,AFSA13.jpg,AFNE06.jpg,AFNE19.jpg,AFSA05.jpg,AFSA05.jpg,FS,4,num_4,32,num_6,1.56625833243,,,2017_Oct_05_1422,59.9322400795,MAFE4ImagesEEG,001,201920,
AFNE01.JPG,AFNE01.JPG,AFNE01.JPG,AFNE01.JPG,AFNE01.JPG,AFNE01.JPG,,,,,,,,,,,,,1,9,19,6,,,,,,,,,,,AFNE14.jpg,AFSA05.jpg,AFSA06.jpg,AFNE04.jpg,AFSA06.jpg,FS,4,num_2,32,num_4,1.30007643238,,,2017_Oct_05_1422,59.9322400795,MAFE4ImagesEEG,001,201920,
AFNE01.JPG,AFNE01.JPG,AFNE01.JPG,AFNE01.JPG,AFNE01.JPG,AFNE01.JPG,,,,,,,,,,,,,2,0,20,3,,,,,,,,,,,AFSA07.jpg,AFNE06.jpg,AFNE05.jpg,AFSA11.jpg,AFNE06.jpg,FN,3,num_6,16,num_6,0.933442256675,,,2017_Oct_05_1422,59.9322400795,MAFE4ImagesEEG,001,201920,
AFNE01.JPG,AFNE01.JPG,AFNE01.JPG,AFNE01.JPG,AFNE01.JPG,AFNE01.JPG,,,,,,,,,,,,,2,1,21,6,,,,,,,,,,,AFSA14.jpg,AFSA12.jpg,AFNE12.jpg,AFNE05.jpg,AFSA12.jpg,FS,4,num_6,32,num_8,1.36671532295,,,2017_Oct_05_1422,59.9322400795,MAFE4ImagesEEG,001,201920,
AFNE01.JPG,AFNE01.JPG,AFNE01.JPG,AFNE01.JPG,AFNE01.JPG,AFNE01.JPG,,,,,,,,,,,,,2,2,22,5,,,,,,,,,,,AFSA07.jpg,AFSA08.jpg,AFNE10.jpg,AFNE04.jpg,AFNE10.jpg,FN,3,num_2,32,num_4,0.899969497608,,,2017_Oct_05_1422,59.9322400795,MAFE4ImagesEEG,001,201920,
AFNE01.JPG,AFNE01.JPG,AFNE01.JPG,AFNE01.JPG,AFNE01.JPG,AFNE01.JPG,,,,,,,,,,,,,2,3,23,0,,,,,,,,,,,AFSA01.jpg,AFNE09.jpg,AFSA11.jpg,AFNE18.jpg,AFSA01.jpg,FS,4,num_8,32,num_2,1.08330005655,,,2017_Oct_05_1422,59.9322400795,MAFE4ImagesEEG,001,201920,
AFNE01.JPG,AFNE01.JPG,AFNE01.JPG,AFNE01.JPG,AFNE01.JPG,AFNE01.JPG,,,,,,,,,,,,,2,4,24,1,,,,,,,,,,,AFNE03.jpg,AFSA20.jpg,AFNE09.jpg,AFSA14.jpg,AFNE09.jpg,FN,3,num_2,32,num_6,0.470734549395,,,2017_Oct_05_1422,59.9322400795,MAFE4ImagesEEG,001,201920,
AFNE01.JPG,AFNE01.JPG,AFNE01.JPG,AFNE01.JPG,AFNE01.JPG,AFNE01.JPG,,,,,,,,,,,,,2,5,25,9,,,,,,,,,,,AFSA19.jpg,AFNE14.jpg,AFSA14.jpg,AFNE18.jpg,AFSA19.jpg,FS,4,num_8,32,num_4,2.81672685355,,,2017_Oct_05_1422,59.9322400795,MAFE4ImagesEEG,001,201920,
AFNE01.JPG,AFNE01.JPG,AFNE01.JPG,AFNE01.JPG,AFNE01.JPG,AFNE01.JPG,,,,,,,,,,,,,2,6,26,7,,,,,,,,,,,AFSA06.jpg,AFNE05.jpg,AFNE20.jpg,AFSA19.jpg,AFNE05.jpg,FN,3,num_6,32,num_4,0.71679578058,,,2017_Oct_05_1422,59.9322400795,MAFE4ImagesEEG,001,201920,
AFNE01.JPG,AFNE01.JPG,AFNE01.JPG,AFNE01.JPG,AFNE01.JPG,AFNE01.JPG,,,,,,,,,,,,,2,7,27,8,,,,,,,,,,,AFNE13.jpg,AFNE16.jpg,AFSA10.jpg,AFSA06.jpg,AFNE16.jpg,FN,3,num_6,32,num_4,1.75004754972,,,2017_Oct_05_1422,59.9322400795,MAFE4ImagesEEG,001,201920,
AFNE01.JPG,AFNE01.JPG,AFNE01.JPG,AFNE01.JPG,AFNE01.JPG,AFNE01.JPG,,,,,,,,,,,,,2,8,28,4,,,,,,,,,,,AFSA18.jpg,AFSA11.jpg,AFNE01.jpg,AFNE04.jpg,AFNE04.jpg,FN,3,num_4,32,num_2,0.433526450943,,,2017_Oct_05_1422,59.9322400795,MAFE4ImagesEEG,001,201920,
AFNE01.JPG,AFNE01.JPG,AFNE01.JPG,AFNE01.JPG,AFNE01.JPG,AFNE01.JPG,,,,,,,,,,,,,2,9,29,2,,,,,,,,,,,AFSA15.jpg,AFSA04.jpg,AFNE05.jpg,AFNE02.jpg,AFSA04.jpg,FS,4,num_6,16,num_6,0.983426396095,,,2017_Oct_05_1422,59.9322400795,MAFE4ImagesEEG,001,201920,
AFNE01.JPG,AFNE01.JPG,AFNE01.JPG,AFNE01.JPG,AFNE01.JPG,AFNE01.JPG,,,,,,,,,,,,,3,0,30,8,,,,,,,,,,,AFSA06.jpg,AFNE13.jpg,AFNE12.jpg,AFSA04.jpg,AFNE13.jpg,FN,3,num_6,32,num_8,0.383535896748,,,2017_Oct_05_1422,59.9322400795,MAFE4ImagesEEG,001,201920,
AFNE01.JPG,AFNE01.JPG,AFNE01.JPG,AFNE01.JPG,AFNE01.JPG,AFNE01.JPG,,,,,,,,,,,,,3,1,31,3,,,,,,,,,,,AFNE06.jpg,AFSA10.jpg,AFNE02.jpg,AFSA20.jpg,AFSA10.jpg,FS,4,num_6,32,num_4,0.166871459252,,,2017_Oct_05_1422,59.9322400795,MAFE4ImagesEEG,001,201920,
AFNE01.JPG,AFNE01.JPG,AFNE01.JPG,AFNE01.JPG,AFNE01.JPG,AFNE01.JPG,,,,,,,,,,,,,3,2,32,5,,,,,,,,,,,AFNE07.jpg,AFSA20.jpg,AFNE11.jpg,AFSA11.jpg,AFSA20.jpg,FS,4,num_6,32,num_2,0.750147941377,,,2017_Oct_05_1422,59.9322400795,MAFE4ImagesEEG,001,201920,
AFNE01.JPG,AFNE01.JPG,AFNE01.JPG,AFNE01.JPG,AFNE01.JPG,AFNE01.JPG,,,,,,,,,,,,,3,3,33,0,,,,,,,,,,,AFSA03.jpg,AFNE14.jpg,AFSA06.jpg,AFNE17.jpg,AFNE17.jpg,FN,3,num_4,32,num_2,0.833486807474,,,2017_Oct_05_1422,59.9322400795,MAFE4ImagesEEG,001,201920,
AFNE01.JPG,AFNE01.JPG,AFNE01.JPG,AFNE01.JPG,AFNE01.JPG,AFNE01.JPG,,,,,,,,,,,,,3,4,34,1,,,,,,,,,,,AFSA10.jpg,AFNE18.jpg,AFSA12.jpg,AFNE07.jpg,AFNE18.jpg,FN,3,num_6,32,num_8,0.783409653435,,,2017_Oct_05_1422,59.9322400795,MAFE4ImagesEEG,001,201920,
AFNE01.JPG,AFNE01.JPG,AFNE01.JPG,AFNE01.JPG,AFNE01.JPG,AFNE01.JPG,,,,,,,,,,,,,3,5,35,6,,,,,,,,,,,AFSA11.jpg,AFNE13.jpg,AFSA17.jpg,AFNE20.jpg,AFNE13.jpg,FN,3,num_6,32,num_4,0.616745071573,,,2017_Oct_05_1422,59.9322400795,MAFE4ImagesEEG,001,201920,
AFNE01.JPG,AFNE01.JPG,AFNE01.JPG,AFNE01.JPG,AFNE01.JPG,AFNE01.JPG,,,,,,,,,,,,,3,6,36,9,,,,,,,,,,,AFNE02.jpg,AFSA13.jpg,AFNE09.jpg,AFSA06.jpg,AFSA06.jpg,FS,4,num_4,32,num_8,0.450498734863,,,2017_Oct_05_1422,59.9322400795,MAFE4ImagesEEG,001,201920,
AFNE01.JPG,AFNE01.JPG,AFNE01.JPG,AFNE01.JPG,AFNE01.JPG,AFNE01.JPG,,,,,,,,,,,,,3,7,37,4,,,,,,,,,,,AFNE14.jpg,AFNE20.jpg,AFSA11.jpg,AFSA04.jpg,AFNE20.jpg,FN,3,num_6,32,num_4,0.383454428782,,,2017_Oct_05_1422,59.9322400795,MAFE4ImagesEEG,001,201920,
AFNE01.JPG,AFNE01.JPG,AFNE01.JPG,AFNE01.JPG,AFNE01.JPG,AFNE01.JPG,,,,,,,,,,,,,3,8,38,2,,,,,,,,,,,AFNE20.jpg,AFSA19.jpg,AFSA13.jpg,AFNE11.jpg,AFNE20.jpg,FN,3,num_8,32,num_4,1.30009150718,,,2017_Oct_05_1422,59.9322400795,MAFE4ImagesEEG,001,201920,
AFNE01.JPG,AFNE01.JPG,AFNE01.JPG,AFNE01.JPG,AFNE01.JPG,AFNE01.JPG,,,,,,,,,,,,,3,9,39,7,,,,,,,,,,,AFNE11.jpg,AFSA16.jpg,AFNE20.jpg,AFSA10.jpg,AFNE11.jpg,FN,3,num_8,32,num_4,1.56666278571,,,2017_Oct_05_1422,59.9322400795,MAFE4ImagesEEG,001,201920,
AFNE01.JPG,AFNE01.JPG,AFNE01.JPG,AFNE01.JPG,AFNE01.JPG,AFNE01.JPG,,,,,,,,,,,,,4,0,40,0,,,,,,,,,,,AFNE10.jpg,AFSA03.jpg,AFSA17.jpg,AFNE02.jpg,AFSA17.jpg,FS,4,num_2,32,num_6,0.533498578647,,,2017_Oct_05_1422,59.9322400795,MAFE4ImagesEEG,001,201920,
AFNE01.JPG,AFNE01.JPG,AFNE01.JPG,AFNE01.JPG,AFNE01.JPG,AFNE01.JPG,,,,,,,,,,,,,4,1,41,8,,,,,,,,,,,AFNE07.jpg,AFSA19.jpg,AFSA12.jpg,AFNE11.jpg,AFNE07.jpg,FN,3,num_8,16,num_8,2.39996580911,,,2017_Oct_05_1422,59.9322400795,MAFE4ImagesEEG,001,201920,
AFNE01.JPG,AFNE01.JPG,AFNE01.JPG,AFNE01.JPG,AFNE01.JPG,AFNE01.JPG,,,,,,,,,,,,,4,2,42,9,,,,,,,,,,,AFNE16.jpg,AFNE15.jpg,AFSA08.jpg,AFSA15.jpg,AFSA15.jpg,FS,4,num_4,32,num_8,1.55006576775,,,2017_Oct_05_1422,59.9322400795,MAFE4ImagesEEG,001,201920,
AFNE01.JPG,AFNE01.JPG,AFNE01.JPG,AFNE01.JPG,AFNE01.JPG,AFNE01.JPG,,,,,,,,,,,,,4,3,43,6,,,,,,,,,,,AFSA15.jpg,AFSA12.jpg,AFNE15.jpg,AFNE06.jpg,AFSA15.jpg,FS,4,num_8,16,num_8,1.41653684713,,,2017_Oct_05_1422,59.9322400795,MAFE4ImagesEEG,001,201920,
AFNE01.JPG,AFNE01.JPG,AFNE01.JPG,AFNE01.JPG,AFNE01.JPG,AFNE01.JPG,,,,,,,,,,,,,4,4,44,5,,,,,,,,,,,AFSA11.jpg,AFSA09.jpg,AFNE03.jpg,AFNE02.jpg,AFSA09.jpg,FS,4,num_6,16,num_6,1.48338710543,,,2017_Oct_05_1422,59.9322400795,MAFE4ImagesEEG,001,201920,
AFNE01.JPG,AFNE01.JPG,AFNE01.JPG,AFNE01.JPG,AFNE01.JPG,AFNE01.JPG,,,,,,,,,,,,,4,5,45,1,,,,,,,,,,,AFSA13.jpg,AFSA09.jpg,AFNE18.jpg,AFNE12.jpg,AFSA09.jpg,FS,4,num_6,16,num_6,1.23342695736,,,2017_Oct_05_1422,59.9322400795,MAFE4ImagesEEG,001,201920,
AFNE01.JPG,AFNE01.JPG,AFNE01.JPG,AFNE01.JPG,AFNE01.JPG,AFNE01.JPG,,,,,,,,,,,,,4,6,46,2,,,,,,,,,,,AFNE07.jpg,AFSA19.jpg,AFSA12.jpg,AFNE05.jpg,AFNE07.jpg,FN,3,num_8,16,num_8,1.4000809548,,,2017_Oct_05_1422,59.9322400795,MAFE4ImagesEEG,001,201920,
AFNE01.JPG,AFNE01.JPG,AFNE01.JPG,AFNE01.JPG,AFNE01.JPG,AFNE01.JPG,,,,,,,,,,,,,4,7,47,4,,,,,,,,,,,AFNE01.jpg,AFSA09.jpg,AFNE07.jpg,AFSA12.jpg,AFSA09.jpg,FS,4,num_6,16,num_6,1.38356059373,,,2017_Oct_05_1422,59.9322400795,MAFE4ImagesEEG,001,201920,
AFNE01.JPG,AFNE01.JPG,AFNE01.JPG,AFNE01.JPG,AFNE01.JPG,AFNE01.JPG,,,,,,,,,,,,,4,8,48,3,,,,,,,,,,,AFNE07.jpg,AFSA17.jpg,AFNE06.jpg,AFSA07.jpg,AFSA07.jpg,FS,4,num_4,32,num_8,1.15010958083,,,2017_Oct_05_1422,59.9322400795,MAFE4ImagesEEG,001,201920,
AFNE01.JPG,AFNE01.JPG,AFNE01.JPG,AFNE01.JPG,AFNE01.JPG,AFNE01.JPG,,,,,,,,,,,,,4,9,49,7,,,,,,,,,,,AFSA01.jpg,AFNE14.jpg,AFSA15.jpg,AFNE01.jpg,AFSA01.jpg,FS,4,num_8,32,num_4,0.833565709559,,,2017_Oct_05_1422,59.9322400795,MAFE4ImagesEEG,001,201920,
AFNE01.JPG,AFNE01.JPG,AFNE01.JPG,AFNE01.JPG,AFNE01.JPG,AFNE01.JPG,,,,,,,,,,,,,5,0,50,6,,,,,,,,,,,AFSA18.jpg,AFNE06.jpg,AFNE13.jpg,AFSA20.jpg,AFNE06.jpg,FN,3,num_6,32,num_2,1.04996393278,,,2017_Oct_05_1422,59.9322400795,MAFE4ImagesEEG,001,201920,
AFNE01.JPG,AFNE01.JPG,AFNE01.JPG,AFNE01.JPG,AFNE01.JPG,AFNE01.JPG,,,,,,,,,,,,,5,1,51,0,,,,,,,,,,,AFNE20.jpg,AFSA14.jpg,AFNE10.jpg,AFSA10.jpg,AFSA10.jpg,FS,4,num_4,16,num_4,0.533628799138,,,2017_Oct_05_1422,59.9322400795,MAFE4ImagesEEG,001,201920,
AFNE01.JPG,AFNE01.JPG,AFNE01.JPG,AFNE01.JPG,AFNE01.JPG,AFNE01.JPG,,,,,,,,,,,,,5,2,52,3,,,,,,,,,,,AFNE12.jpg,AFSA14.jpg,AFNE05.jpg,AFSA08.jpg,AFSA08.jpg,FS,4,num_4,16,num_4,1.1668066697,,,2017_Oct_05_1422,59.9322400795,MAFE4ImagesEEG,001,201920,
AFNE01.JPG,AFNE01.JPG,AFNE01.JPG,AFNE01.JPG,AFNE01.JPG,AFNE01.JPG,,,,,,,,,,,,,5,3,53,1,,,,,,,,,,,AFNE13.jpg,AFSA17.jpg,AFSA14.jpg,AFNE14.jpg,AFSA14.jpg,FS,4,num_2,32,num_8,1.40007518147,,,2017_Oct_05_1422,59.9322400795,MAFE4ImagesEEG,001,201920,
AFNE01.JPG,AFNE01.JPG,AFNE01.JPG,AFNE01.JPG,AFNE01.JPG,AFNE01.JPG,,,,,,,,,,,,,5,4,54,2,,,,,,,,,,,AFSA15.jpg,AFSA20.jpg,AFNE14.jpg,AFNE10.jpg,AFSA15.jpg,FS,4,num_8,32,num_2,0.983537692897,,,2017_Oct_05_1422,59.9322400795,MAFE4ImagesEEG,001,201920,
AFNE01.JPG,AFNE01.JPG,AFNE01.JPG,AFNE01.JPG,AFNE01.JPG,AFNE01.JPG,,,,,,,,,,,,,5,5,55,8,,,,,,,,,,,AFSA19.jpg,AFSA08.jpg,AFNE17.jpg,AFNE04.jpg,AFNE04.jpg,FN,3,num_4,32,num_8,1.28332481769,,,2017_Oct_05_1422,59.9322400795,MAFE4ImagesEEG,001,201920,
AFNE01.JPG,AFNE01.JPG,AFNE01.JPG,AFNE01.JPG,AFNE01.JPG,AFNE01.JPG,,,,,,,,,,,,,5,6,56,9,,,,,,,,,,,AFSA05.jpg,AFNE20.jpg,AFSA14.jpg,AFNE14.jpg,AFSA05.jpg,FS,4,num_8,32,num_4,1.33350557077,,,2017_Oct_05_1422,59.9322400795,MAFE4ImagesEEG,001,201920,
AFNE01.JPG,AFNE01.JPG,AFNE01.JPG,AFNE01.JPG,AFNE01.JPG,AFNE01.JPG,,,,,,,,,,,,,5,7,57,4,,,,,,,,,,,AFNE06.jpg,AFNE12.jpg,AFSA04.jpg,AFSA11.jpg,AFNE06.jpg,FN,3,num_8,32,num_2,1.05018011163,,,2017_Oct_05_1422,59.9322400795,MAFE4ImagesEEG,001,201920,
AFNE01.JPG,AFNE01.JPG,AFNE01.JPG,AFNE01.JPG,AFNE01.JPG,AFNE01.JPG,,,,,,,,,,,,,5,8,58,7,,,,,,,,,,,AFSA02.jpg,AFNE17.jpg,AFSA01.jpg,AFNE19.jpg,AFSA02.jpg,FS,4,num_8,32,num_4,1.51677711355,,,2017_Oct_05_1422,59.9322400795,MAFE4ImagesEEG,001,201920,
AFNE01.JPG,AFNE01.JPG,AFNE01.JPG,AFNE01.JPG,AFNE01.JPG,AFNE01.JPG,,,,,,,,,,,,,5,9,59,5,,,,,,,,,,,AFNE11.jpg,AFSA03.jpg,AFNE08.jpg,AFSA18.jpg,AFNE11.jpg,FN,3,num_8,16,num_8,2.46672658093,,,2017_Oct_05_1422,59.9322400795,MAFE4ImagesEEG,001,201920,
,,,,,,,,,,,,,,,,,,,,,,,,,,,,,,,,,,,,,,,,,,,space,23.9483675772,2017_Oct_05_1422,59.9322400795,MAFE4ImagesEEG,001,201920,
AFNE01.JPG,AFNE01.JPG,AFNE01.JPG,AFNE01.JPG,AFNE01.JPG,AFNE01.JPG,,,,,,,,,,,,,,,,,0,0,0,0,,,,,,,AMNE01.jpg,AMNE16.jpg,AMSA06.jpg,AMSA10.jpg,AMNE16.jpg,MN,1,num_6,32,num_8,0.333481194539,,,2017_Oct_05_1422,59.9322400795,MAFE4ImagesEEG,001,201920,
AFNE01.JPG,AFNE01.JPG,AFNE01.JPG,AFNE01.JPG,AFNE01.JPG,AFNE01.JPG,,,,,,,,,,,,,,,,,0,1,1,4,,,,,,,AMNE02.jpg,AMSA18.jpg,AMSA17.jpg,AMNE17.jpg,AMNE02.jpg,MN,1,num_8,32,num_2,0.333520004089,,,2017_Oct_05_1422,59.9322400795,MAFE4ImagesEEG,001,201920,
AFNE01.JPG,AFNE01.JPG,AFNE01.JPG,AFNE01.JPG,AFNE01.JPG,AFNE01.JPG,,,,,,,,,,,,,,,,,0,2,2,7,,,,,,,AMNE18.jpg,AMSA08.jpg,AMNE09.jpg,AMSA17.jpg,AMSA08.jpg,MS,2,num_6,32,num_4,0.766746883746,,,2017_Oct_05_1422,59.9322400795,MAFE4ImagesEEG,001,201920,
AFNE01.JPG,AFNE01.JPG,AFNE01.JPG,AFNE01.JPG,AFNE01.JPG,AFNE01.JPG,,,,,,,,,,,,,,,,,0,3,3,1,,,,,,,AMSA12.jpg,AMNE15.jpg,AMSA11.jpg,AMNE02.jpg,AMSA12.jpg,MS,2,num_8,16,num_8,0.883498530515,,,2017_Oct_05_1422,59.9322400795,MAFE4ImagesEEG,001,201920,
AFNE01.JPG,AFNE01.JPG,AFNE01.JPG,AFNE01.JPG,AFNE01.JPG,AFNE01.JPG,,,,,,,,,,,,,,,,,0,4,4,3,,,,,,,AMNE19.jpg,AMNE15.jpg,AMSA10.jpg,AMSA08.jpg,AMNE15.jpg,MN,1,num_6,32,num_2,0.350227356626,,,2017_Oct_05_1422,59.9322400795,MAFE4ImagesEEG,001,201920,
AFNE01.JPG,AFNE01.JPG,AFNE01.JPG,AFNE01.JPG,AFNE01.JPG,AFNE01.JPG,,,,,,,,,,,,,,,,,0,5,5,9,,,,,,,AMNE05.jpg,AMNE07.jpg,AMSA19.jpg,AMSA12.jpg,AMNE05.jpg,MN,1,num_8,32,num_4,0.283620540053,,,2017_Oct_05_1422,59.9322400795,MAFE4ImagesEEG,001,201920,
AFNE01.JPG,AFNE01.JPG,AFNE01.JPG,AFNE01.JPG,AFNE01.JPG,AFNE01.JPG,,,,,,,,,,,,,,,,,0,6,6,5,,,,,,,AMNE11.jpg,AMNE12.jpg,AMSA19.jpg,AMSA10.jpg,AMSA19.jpg,MS,2,num_2,32,num_6,0.350316522381,,,2017_Oct_05_1422,59.9322400795,MAFE4ImagesEEG,001,201920,
AFNE01.JPG,AFNE01.JPG,AFNE01.JPG,AFNE01.JPG,AFNE01.JPG,AFNE01.JPG,,,,,,,,,,,,,,,,,0,7,7,6,,,,,,,AMSA14.jpg,AMNE18.jpg,AMSA12.jpg,AMNE02.jpg,AMSA12.jpg,MS,2,num_2,32,num_4,1.16681821638,,,2017_Oct_05_1422,59.9322400795,MAFE4ImagesEEG,001,201920,
AFNE01.JPG,AFNE01.JPG,AFNE01.JPG,AFNE01.JPG,AFNE01.JPG,AFNE01.JPG,,,,,,,,,,,,,,,,,0,8,8,8,,,,,,,AMSA16.jpg,AMNE11.jpg,AMNE12.jpg,AMSA14.jpg,AMSA14.jpg,MS,2,num_4,32,num_6,1.00009044871,,,2017_Oct_05_1422,59.9322400795,MAFE4ImagesEEG,001,201920,
AFNE01.JPG,AFNE01.JPG,AFNE01.JPG,AFNE01.JPG,AFNE01.JPG,AFNE01.JPG,,,,,,,,,,,,,,,,,0,9,9,2,,,,,,,AMNE14.jpg,AMSA19.jpg,AMSA09.jpg,AMNE19.jpg,AMNE14.jpg,MN,1,num_8,32,num_4,0.366917389212,,,2017_Oct_05_1422,59.9322400795,MAFE4ImagesEEG,001,201920,
AFNE01.JPG,AFNE01.JPG,AFNE01.JPG,AFNE01.JPG,AFNE01.JPG,AFNE01.JPG,,,,,,,,,,,,,,,,,1,0,10,5,,,,,,,AMSA03.jpg,AMNE06.jpg,AMNE11.jpg,AMSA06.jpg,AMSA06.jpg,MS,2,num_4,32,num_8,0.416882284218,,,2017_Oct_05_1422,59.9322400795,MAFE4ImagesEEG,001,201920,
AFNE01.JPG,AFNE01.JPG,AFNE01.JPG,AFNE01.JPG,AFNE01.JPG,AFNE01.JPG,,,,,,,,,,,,,,,,,1,1,11,1,,,,,,,AMSA02.jpg,AMSA03.jpg,AMNE11.jpg,AMNE17.jpg,AMSA02.jpg,MS,2,num_8,32,num_4,2.28346337742,,,2017_Oct_05_1422,59.9322400795,MAFE4ImagesEEG,001,201920,
AFNE01.JPG,AFNE01.JPG,AFNE01.JPG,AFNE01.JPG,AFNE01.JPG,AFNE01.JPG,,,,,,,,,,,,,,,,,1,2,12,0,,,,,,,AMSA15.jpg,AMSA02.jpg,AMNE10.jpg,AMNE14.jpg,AMNE14.jpg,MN,1,num_4,16,num_4,0.533564651123,,,2017_Oct_05_1422,59.9322400795,MAFE4ImagesEEG,001,201920,
AFNE01.JPG,AFNE01.JPG,AFNE01.JPG,AFNE01.JPG,AFNE01.JPG,AFNE01.JPG,,,,,,,,,,,,,,,,,1,3,13,7,,,,,,,AMSA12.jpg,AMNE09.jpg,AMNE13.jpg,AMSA18.jpg,AMSA12.jpg,MS,2,num_8,32,num_2,2.36671051185,,,2017_Oct_05_1422,59.9322400795,MAFE4ImagesEEG,001,201920,
AFNE01.JPG,AFNE01.JPG,AFNE01.JPG,AFNE01.JPG,AFNE01.JPG,AFNE01.JPG,,,,,,,,,,,,,,,,,1,4,14,2,,,,,,,AMSA08.jpg,AMSA12.jpg,AMNE09.jpg,AMNE05.jpg,AMNE05.jpg,MN,1,num_4,16,num_4,2.03341759177,,,2017_Oct_05_1422,59.9322400795,MAFE4ImagesEEG,001,201920,
AFNE01.JPG,AFNE01.JPG,AFNE01.JPG,AFNE01.JPG,AFNE01.JPG,AFNE01.JPG,,,,,,,,,,,,,,,,,1,5,15,8,,,,,,,AMSA09.jpg,AMSA03.jpg,AMNE16.jpg,AMNE17.jpg,AMSA03.jpg,MS,2,num_6,32,num_2,2.48343553717,,,2017_Oct_05_1422,59.9322400795,MAFE4ImagesEEG,001,201920,
AFNE01.JPG,AFNE01.JPG,AFNE01.JPG,AFNE01.JPG,AFNE01.JPG,AFNE01.JPG,,,,,,,,,,,,,,,,,1,6,16,4,,,,,,,AMSA14.jpg,AMSA06.jpg,AMNE05.jpg,AMNE16.jpg,AMSA06.jpg,MS,2,num_6,32,num_2,1.95004344423,,,2017_Oct_05_1422,59.9322400795,MAFE4ImagesEEG,001,201920,
AFNE01.JPG,AFNE01.JPG,AFNE01.JPG,AFNE01.JPG,AFNE01.JPG,AFNE01.JPG,,,,,,,,,,,,,,,,,1,7,17,6,,,,,,,AMSA12.jpg,AMNE11.jpg,AMSA11.jpg,AMNE09.jpg,AMSA11.jpg,MS,2,num_2,32,num_6,0.650169398898,,,2017_Oct_05_1422,59.9322400795,MAFE4ImagesEEG,001,201920,
AFNE01.JPG,AFNE01.JPG,AFNE01.JPG,AFNE01.JPG,AFNE01.JPG,AFNE01.JPG,,,,,,,,,,,,,,,,,1,8,18,9,,,,,,,AMNE09.jpg,AMNE02.jpg,AMSA12.jpg,AMSA20.jpg,AMNE02.jpg,MN,1,num_6,32,num_4,2.6833682459,,,2017_Oct_05_1422,59.9322400795,MAFE4ImagesEEG,001,201920,
AFNE01.JPG,AFNE01.JPG,AFNE01.JPG,AFNE01.JPG,AFNE01.JPG,AFNE01.JPG,,,,,,,,,,,,,,,,,1,9,19,3,,,,,,,AMNE06.jpg,AMNE17.jpg,AMSA09.jpg,AMSA03.jpg,AMNE17.jpg,MN,1,num_6,16,num_6,0.800113477861,,,2017_Oct_05_1422,59.9322400795,MAFE4ImagesEEG,001,201920,
AFNE01.JPG,AFNE01.JPG,AFNE01.JPG,AFNE01.JPG,AFNE01.JPG,AFNE01.JPG,,,,,,,,,,,,,,,,,2,0,20,1,,,,,,,AMNE05.jpg,AMSA09.jpg,AMNE10.jpg,AMSA19.jpg,AMNE10.jpg,MN,1,num_2,32,num_4,1.38371102084,,,2017_Oct_05_1422,59.9322400795,MAFE4ImagesEEG,001,201920,
AFNE01.JPG,AFNE01.JPG,AFNE01.JPG,AFNE01.JPG,AFNE01.JPG,AFNE01.JPG,,,,,,,,,,,,,,,,,2,1,21,5,,,,,,,AMSA06.jpg,AMNE14.jpg,AMSA07.jpg,AMNE05.jpg,AMNE14.jpg,MN,1,num_6,32,num_8,0.51684895932,,,2017_Oct_05_1422,59.9322400795,MAFE4ImagesEEG,001,201920,
AFNE01.JPG,AFNE01.JPG,AFNE01.JPG,AFNE01.JPG,AFNE01.JPG,AFNE01.JPG,,,,,,,,,,,,,,,,,2,2,22,2,,,,,,,AMNE10.jpg,AMSA20.jpg,AMNE05.jpg,AMSA15.jpg,AMSA15.jpg,MS,2,num_4,16,num_4,2.91668230275,,,2017_Oct_05_1422,59.9322400795,MAFE4ImagesEEG,001,201920,
AFNE01.JPG,AFNE01.JPG,AFNE01.JPG,AFNE01.JPG,AFNE01.JPG,AFNE01.JPG,,,,,,,,,,,,,,,,,2,3,23,6,,,,,,,AMSA04.jpg,AMNE13.jpg,AMNE03.jpg,AMSA03.jpg,AMSA03.jpg,MS,2,num_4,32,num_2,2.63335812654,,,2017_Oct_05_1422,59.9322400795,MAFE4ImagesEEG,001,201920,
AFNE01.JPG,AFNE01.JPG,AFNE01.JPG,AFNE01.JPG,AFNE01.JPG,AFNE01.JPG,,,,,,,,,,,,,,,,,2,4,24,3,,,,,,,AMNE08.jpg,AMNE03.jpg,AMSA14.jpg,AMSA20.jpg,AMNE08.jpg,MN,1,num_8,32,num_4,1.15015608817,,,2017_Oct_05_1422,59.9322400795,MAFE4ImagesEEG,001,201920,
AFNE01.JPG,AFNE01.JPG,AFNE01.JPG,AFNE01.JPG,AFNE01.JPG,AFNE01.JPG,,,,,,,,,,,,,,,,,2,5,25,8,,,,,,,AMSA08.jpg,AMNE15.jpg,AMSA03.jpg,AMNE19.jpg,AMSA08.jpg,MS,2,num_8,16,num_8,0.983502732211,,,2017_Oct_05_1422,59.9322400795,MAFE4ImagesEEG,001,201920,
AFNE01.JPG,AFNE01.JPG,AFNE01.JPG,AFNE01.JPG,AFNE01.JPG,AFNE01.JPG,,,,,,,,,,,,,,,,,2,6,26,9,,,,,,,AMNE16.jpg,AMSA03.jpg,AMSA08.jpg,AMNE09.jpg,AMSA03.jpg,MS,2,num_6,32,num_4,0.450218728714,,,2017_Oct_05_1422,59.9322400795,MAFE4ImagesEEG,001,201920,
AFNE01.JPG,AFNE01.JPG,AFNE01.JPG,AFNE01.JPG,AFNE01.JPG,AFNE01.JPG,,,,,,,,,,,,,,,,,2,7,27,0,,,,,,,AMSA17.jpg,AMSA01.jpg,AMNE18.jpg,AMNE01.jpg,AMSA01.jpg,MS,2,num_6,32,num_2,0.750209844206,,,2017_Oct_05_1422,59.9322400795,MAFE4ImagesEEG,001,201920,
AFNE01.JPG,AFNE01.JPG,AFNE01.JPG,AFNE01.JPG,AFNE01.JPG,AFNE01.JPG,,,,,,,,,,,,,,,,,2,8,28,7,,,,,,,AMSA02.jpg,AMNE13.jpg,AMNE04.jpg,AMSA01.jpg,AMSA02.jpg,MS,2,num_8,32,num_4,1.88349275719,,,2017_Oct_05_1422,59.9322400795,MAFE4ImagesEEG,001,201920,
AFNE01.JPG,AFNE01.JPG,AFNE01.JPG,AFNE01.JPG,AFNE01.JPG,AFNE01.JPG,,,,,,,,,,,,,,,,,2,9,29,4,,,,,,,AMSA07.jpg,AMSA10.jpg,AMNE04.jpg,AMNE19.jpg,AMNE04.jpg,MN,1,num_2,32,num_4,0.616914422368,,,2017_Oct_05_1422,59.9322400795,MAFE4ImagesEEG,001,201920,
AFNE01.JPG,AFNE01.JPG,AFNE01.JPG,AFNE01.JPG,AFNE01.JPG,AFNE01.JPG,,,,,,,,,,,,,,,,,3,0,30,2,,,,,,,AMNE19.jpg,AMSA01.jpg,AMSA10.jpg,AMNE05.jpg,AMSA01.jpg,MS,2,num_6,32,num_8,1.16683906448,,,2017_Oct_05_1422,59.9322400795,MAFE4ImagesEEG,001,201920,
AFNE01.JPG,AFNE01.JPG,AFNE01.JPG,AFNE01.JPG,AFNE01.JPG,AFNE01.JPG,,,,,,,,,,,,,,,,,3,1,31,7,,,,,,,AMSA07.jpg,AMNE09.jpg,AMSA15.jpg,AMNE19.jpg,AMSA15.jpg,MS,2,num_2,32,num_8,0.783584777528,,,2017_Oct_05_1422,59.9322400795,MAFE4ImagesEEG,001,201920,
AFNE01.JPG,AFNE01.JPG,AFNE01.JPG,AFNE01.JPG,AFNE01.JPG,AFNE01.JPG,,,,,,,,,,,,,,,,,3,2,32,1,,,,,,,AMNE17.jpg,AMNE09.jpg,AMSA07.jpg,AMSA20.jpg,AMNE09.jpg,MN,1,num_6,32,num_4,0.483550362143,,,2017_Oct_05_1422,59.9322400795,MAFE4ImagesEEG,001,201920,
AFNE01.JPG,AFNE01.JPG,AFNE01.JPG,AFNE01.JPG,AFNE01.JPG,AFNE01.JPG,,,,,,,,,,,,,,,,,3,3,33,6,,,,,,,AMSA14.jpg,AMSA01.jpg,AMNE09.jpg,AMNE07.jpg,AMNE07.jpg,MN,1,num_4,16,num_4,0.616810181818,,,2017_Oct_05_1422,59.9322400795,MAFE4ImagesEEG,001,201920,
AFNE01.JPG,AFNE01.JPG,AFNE01.JPG,AFNE01.JPG,AFNE01.JPG,AFNE01.JPG,,,,,,,,,,,,,,,,,3,4,34,3,,,,,,,AMSA18.jpg,AMNE12.jpg,AMSA04.jpg,AMNE07.jpg,AMNE07.jpg,MN,1,num_4,16,num_4,0.100289018912,,,2017_Oct_05_1422,59.9322400795,MAFE4ImagesEEG,001,201920,
AFNE01.JPG,AFNE01.JPG,AFNE01.JPG,AFNE01.JPG,AFNE01.JPG,AFNE01.JPG,,,,,,,,,,,,,,,,,3,5,35,4,,,,,,,AMSA14.jpg,AMSA16.jpg,AMNE01.jpg,AMNE03.jpg,AMNE03.jpg,MN,1,num_4,16,num_4,0.400247418933,,,2017_Oct_05_1422,59.9322400795,MAFE4ImagesEEG,001,201920,
AFNE01.JPG,AFNE01.JPG,AFNE01.JPG,AFNE01.JPG,AFNE01.JPG,AFNE01.JPG,,,,,,,,,,,,,,,,,3,6,36,9,,,,,,,AMSA05.jpg,AMSA01.jpg,AMNE09.jpg,AMNE14.jpg,AMNE14.jpg,MN,1,num_4,32,num_6,0.383454749506,,,2017_Oct_05_1422,59.9322400795,MAFE4ImagesEEG,001,201920,
AFNE01.JPG,AFNE01.JPG,AFNE01.JPG,AFNE01.JPG,AFNE01.JPG,AFNE01.JPG,,,,,,,,,,,,,,,,,3,7,37,0,,,,,,,AMSA02.jpg,AMNE09.jpg,AMNE06.jpg,AMSA19.jpg,AMNE09.jpg,MN,1,num_6,32,num_8,0.766795957024,,,2017_Oct_05_1422,59.9322400795,MAFE4ImagesEEG,001,201920,
AFNE01.JPG,AFNE01.JPG,AFNE01.JPG,AFNE01.JPG,AFNE01.JPG,AFNE01.JPG,,,,,,,,,,,,,,,,,3,8,38,5,,,,,,,AMSA20.jpg,AMNE13.jpg,AMNE17.jpg,AMSA19.jpg,AMNE13.jpg,MN,1,num_6,32,num_4,1.50017881262,,,2017_Oct_05_1422,59.9322400795,MAFE4ImagesEEG,001,201920,
AFNE01.JPG,AFNE01.JPG,AFNE01.JPG,AFNE01.JPG,AFNE01.JPG,AFNE01.JPG,,,,,,,,,,,,,,,,,3,9,39,8,,,,,,,AMNE15.jpg,AMSA09.jpg,AMSA05.jpg,AMNE11.jpg,AMSA09.jpg,MS,2,num_6,16,num_6,0.666781491629,,,2017_Oct_05_1422,59.9322400795,MAFE4ImagesEEG,001,201920,
AFNE01.JPG,AFNE01.JPG,AFNE01.JPG,AFNE01.JPG,AFNE01.JPG,AFNE01.JPG,,,,,,,,,,,,,,,,,4,0,40,1,,,,,,,AMSA03.jpg,AMSA20.jpg,AMNE15.jpg,AMNE09.jpg,AMSA03.jpg,MS,2,num_8,32,num_4,0.60001398428,,,2017_Oct_05_1422,59.9322400795,MAFE4ImagesEEG,001,201920,
AFNE01.JPG,AFNE01.JPG,AFNE01.JPG,AFNE01.JPG,AFNE01.JPG,AFNE01.JPG,,,,,,,,,,,,,,,,,4,1,41,7,,,,,,,AMSA09.jpg,AMSA19.jpg,AMNE16.jpg,AMNE01.jpg,AMSA19.jpg,MS,2,num_6,32,num_2,1.08345946437,,,2017_Oct_05_1422,59.9322400795,MAFE4ImagesEEG,001,201920,
AFNE01.JPG,AFNE01.JPG,AFNE01.JPG,AFNE01.JPG,AFNE01.JPG,AFNE01.JPG,,,,,,,,,,,,,,,,,4,2,42,3,,,,,,,AMNE07.jpg,AMSA14.jpg,AMNE18.jpg,AMSA20.jpg,AMNE07.jpg,MN,1,num_8,32,num_2,0.633488026273,,,2017_Oct_05_1422,59.9322400795,MAFE4ImagesEEG,001,201920,
AFNE01.JPG,AFNE01.JPG,AFNE01.JPG,AFNE01.JPG,AFNE01.JPG,AFNE01.JPG,,,,,,,,,,,,,,,,,4,3,43,2,,,,,,,AMNE13.jpg,AMNE01.jpg,AMSA12.jpg,AMSA18.jpg,AMNE01.jpg,MN,1,num_6,32,num_8,0.783439482271,,,2017_Oct_05_1422,59.9322400795,MAFE4ImagesEEG,001,201920,
AFNE01.JPG,AFNE01.JPG,AFNE01.JPG,AFNE01.JPG,AFNE01.JPG,AFNE01.JPG,,,,,,,,,,,,,,,,,4,4,44,8,,,,,,,AMNE18.jpg,AMSA03.jpg,AMSA13.jpg,AMNE01.jpg,AMNE18.jpg,MN,1,num_8,32,num_4,0.333588000969,,,2017_Oct_05_1422,59.9322400795,MAFE4ImagesEEG,001,201920,
AFNE01.JPG,AFNE01.JPG,AFNE01.JPG,AFNE01.JPG,AFNE01.JPG,AFNE01.JPG,,,,,,,,,,,,,,,,,4,5,45,5,,,,,,,AMNE08.jpg,AMSA02.jpg,AMNE19.jpg,AMSA20.jpg,AMNE19.jpg,MN,1,num_2,32,num_8,0.766868444276,,,2017_Oct_05_1422,59.9322400795,MAFE4ImagesEEG,001,201920,
AFNE01.JPG,AFNE01.JPG,AFNE01.JPG,AFNE01.JPG,AFNE01.JPG,AFNE01.JPG,,,,,,,,,,,,,,,,,4,6,46,0,,,,,,,AMSA08.jpg,AMNE11.jpg,AMNE14.jpg,AMSA15.jpg,AMNE11.jpg,MN,1,num_6,32,num_4,0.283686612529,,,2017_Oct_05_1422,59.9322400795,MAFE4ImagesEEG,001,201920,
AFNE01.JPG,AFNE01.JPG,AFNE01.JPG,AFNE01.JPG,AFNE01.JPG,AFNE01.JPG,,,,,,,,,,,,,,,,,4,7,47,6,,,,,,,AMSA16.jpg,AMSA14.jpg,AMNE10.jpg,AMNE20.jpg,AMNE10.jpg,MN,1,num_2,16,num_2,1.16660620715,,,2017_Oct_05_1422,59.9322400795,MAFE4ImagesEEG,001,201920,
AFNE01.JPG,AFNE01.JPG,AFNE01.JPG,AFNE01.JPG,AFNE01.JPG,AFNE01.JPG,,,,,,,,,,,,,,,,,4,8,48,9,,,,,,,AMSA17.jpg,AMNE15.jpg,AMSA10.jpg,AMNE20.jpg,AMSA10.jpg,MS,2,num_2,32,num_4,1.15023723544,,,2017_Oct_05_1422,59.9322400795,MAFE4ImagesEEG,001,201920,
AFNE01.JPG,AFNE01.JPG,AFNE01.JPG,AFNE01.JPG,AFNE01.JPG,AFNE01.JPG,,,,,,,,,,,,,,,,,4,9,49,4,,,,,,,AMSA14.jpg,AMSA16.jpg,AMNE14.jpg,AMNE13.jpg,AMNE14.jpg,MN,1,num_2,32,num_6,1.51871278012,,,2017_Oct_05_1422,59.9322400795,MAFE4ImagesEEG,001,201920,
AFNE01.JPG,AFNE01.JPG,AFNE01.JPG,AFNE01.JPG,AFNE01.JPG,AFNE01.JPG,,,,,,,,,,,,,,,,,5,0,50,8,,,,,,,AMNE16.jpg,AMSA18.jpg,AMSA15.jpg,AMNE05.jpg,AMNE05.jpg,MN,1,num_4,16,num_4,4.94955110818,,,2017_Oct_05_1422,59.9322400795,MAFE4ImagesEEG,001,201920,
AFNE01.JPG,AFNE01.JPG,AFNE01.JPG,AFNE01.JPG,AFNE01.JPG,AFNE01.JPG,,,,,,,,,,,,,,,,,5,1,51,7,,,,,,,AMNE16.jpg,AMSA02.jpg,AMSA10.jpg,AMNE15.jpg,AMSA02.jpg,MS,2,num_6,32,num_2,1.98336032362,,,2017_Oct_05_1422,59.9322400795,MAFE4ImagesEEG,001,201920,
AFNE01.JPG,AFNE01.JPG,AFNE01.JPG,AFNE01.JPG,AFNE01.JPG,AFNE01.JPG,,,,,,,,,,,,,,,,,5,2,52,1,,,,,,,AMNE12.jpg,AMSA05.jpg,AMSA01.jpg,AMNE18.jpg,AMSA05.jpg,MS,2,num_6,32,num_2,1.08340205191,,,2017_Oct_05_1422,59.9322400795,MAFE4ImagesEEG,001,201920,
AFNE01.JPG,AFNE01.JPG,AFNE01.JPG,AFNE01.JPG,AFNE01.JPG,AFNE01.JPG,,,,,,,,,,,,,,,,,5,3,53,5,,,,,,,AMSA18.jpg,AMNE14.jpg,AMSA12.jpg,AMNE15.jpg,AMSA12.jpg,MS,2,num_2,32,num_4,1.1501721252,,,2017_Oct_05_1422,59.9322400795,MAFE4ImagesEEG,001,201920,
AFNE01.JPG,AFNE01.JPG,AFNE01.JPG,AFNE01.JPG,AFNE01.JPG,AFNE01.JPG,,,,,,,,,,,,,,,,,5,4,54,6,,,,,,,AMNE11.jpg,AMSA18.jpg,AMNE01.jpg,AMSA19.jpg,AMNE01.jpg,MN,1,num_2,32,num_6,1.15007590316,,,2017_Oct_05_1422,59.9322400795,MAFE4ImagesEEG,001,201920,
AFNE01.JPG,AFNE01.JPG,AFNE01.JPG,AFNE01.JPG,AFNE01.JPG,AFNE01.JPG,,,,,,,,,,,,,,,,,5,5,55,3,,,,,,,AMNE19.jpg,AMSA20.jpg,AMNE12.jpg,AMSA06.jpg,AMSA20.jpg,MS,2,num_6,32,num_8,1.083488331,,,2017_Oct_05_1422,59.9322400795,MAFE4ImagesEEG,001,201920,
AFNE01.JPG,AFNE01.JPG,AFNE01.JPG,AFNE01.JPG,AFNE01.JPG,AFNE01.JPG,,,,,,,,,,,,,,,,,5,6,56,9,,,,,,,AMNE17.jpg,AMSA03.jpg,AMNE15.jpg,AMSA16.jpg,AMSA16.jpg,MS,2,num_4,32,num_2,1.06676590367,,,2017_Oct_05_1422,59.9322400795,MAFE4ImagesEEG,001,201920,
AFNE01.JPG,AFNE01.JPG,AFNE01.JPG,AFNE01.JPG,AFNE01.JPG,AFNE01.JPG,,,,,,,,,,,,,,,,,5,7,57,4,,,,,,,AMSA18.jpg,AMNE12.jpg,AMSA12.jpg,AMNE20.jpg,AMNE12.jpg,MN,1,num_6,32,num_4,1.31684793296,,,2017_Oct_05_1422,59.9322400795,MAFE4ImagesEEG,001,201920,
AFNE01.JPG,AFNE01.JPG,AFNE01.JPG,AFNE01.JPG,AFNE01.JPG,AFNE01.JPG,,,,,,,,,,,,,,,,,5,8,58,2,,,,,,,AMNE16.jpg,AMSA15.jpg,AMNE15.jpg,AMSA08.jpg,AMNE15.jpg,MN,1,num_2,32,num_4,0.550134406134,,,2017_Oct_05_1422,59.9322400795,MAFE4ImagesEEG,001,201920,
AFNE01.JPG,AFNE01.JPG,AFNE01.JPG,AFNE01.JPG,AFNE01.JPG,AFNE01.JPG,,,,,,,,,,,,,,,,,5,9,59,0,,,,,,,AMNE13.jpg,AMNE05.jpg,AMSA06.jpg,AMSA17.jpg,AMSA17.jpg,MS,2,num_4,16,num_4,0.500268299103,,,2017_Oct_05_1422,59.9322400795,MAFE4ImagesEEG,001,201920,
,,,,,,,,,,,,,,,,,,,,,,,,,,,,,,,,,,,,,,,,,,,space,30.1478400238,2017_Oct_05_1422,59.9322400795,MAFE4ImagesEEG,001,201920,
AFNE01.JPG,AFNE01.JPG,AFNE01.JPG,AFNE01.JPG,AFNE01.JPG,AFNE01.JPG,,,,,,,,,,,,,,,,,,,,,0,0,0,9,,,AFSA05.jpg,AFSA04.jpg,AFNE10.jpg,AFNE14.jpg,AFSA05.jpg,FS,4,num_8,32,num_6,0.550174177915,,,2017_Oct_05_1422,59.9322400795,MAFE4ImagesEEG,001,201920,
AFNE01.JPG,AFNE01.JPG,AFNE01.JPG,AFNE01.JPG,AFNE01.JPG,AFNE01.JPG,,,,,,,,,,,,,,,,,,,,,0,1,1,0,,,AFNE12.jpg,AFSA13.jpg,AFSA10.jpg,AFNE18.jpg,AFSA10.jpg,FS,4,num_2,32,num_4,0.400385657907,,,2017_Oct_05_1422,59.9322400795,MAFE4ImagesEEG,001,201920,
AFNE01.JPG,AFNE01.JPG,AFNE01.JPG,AFNE01.JPG,AFNE01.JPG,AFNE01.JPG,,,,,,,,,,,,,,,,,,,,,0,2,2,7,,,AFNE05.jpg,AFSA09.jpg,AFSA05.jpg,AFNE01.jpg,AFSA09.jpg,FS,4,num_6,32,num_2,0.40006620076,,,2017_Oct_05_1422,59.9322400795,MAFE4ImagesEEG,001,201920,
AFNE01.JPG,AFNE01.JPG,AFNE01.JPG,AFNE01.JPG,AFNE01.JPG,AFNE01.JPG,,,,,,,,,,,,,,,,,,,,,0,3,3,8,,,AFSA09.jpg,AFNE12.jpg,AFSA05.jpg,AFNE05.jpg,AFNE05.jpg,FN,3,num_4,16,num_4,0.416926225589,,,2017_Oct_05_1422,59.9322400795,MAFE4ImagesEEG,001,201920,
AFNE01.JPG,AFNE01.JPG,AFNE01.JPG,AFNE01.JPG,AFNE01.JPG,AFNE01.JPG,,,,,,,,,,,,,,,,,,,,,0,4,4,1,,,AFSA03.jpg,AFSA13.jpg,AFNE08.jpg,AFNE11.jpg,AFSA13.jpg,FS,4,num_6,32,num_2,0.950125232979,,,2017_Oct_05_1422,59.9322400795,MAFE4ImagesEEG,001,201920,
AFNE01.JPG,AFNE01.JPG,AFNE01.JPG,AFNE01.JPG,AFNE01.JPG,AFNE01.JPG,,,,,,,,,,,,,,,,,,,,,0,5,5,4,,,AFSA20.jpg,AFSA15.jpg,AFNE08.jpg,AFNE02.jpg,AFNE02.jpg,FN,3,num_4,32,num_8,0.866759103985,,,2017_Oct_05_1422,59.9322400795,MAFE4ImagesEEG,001,201920,
AFNE01.JPG,AFNE01.JPG,AFNE01.JPG,AFNE01.JPG,AFNE01.JPG,AFNE01.JPG,,,,,,,,,,,,,,,,,,,,,0,6,6,3,,,AFSA18.jpg,AFNE12.jpg,AFNE11.jpg,AFSA20.jpg,AFSA20.jpg,FS,4,num_4,16,num_4,0.600229521631,,,2017_Oct_05_1422,59.9322400795,MAFE4ImagesEEG,001,201920,
AFNE01.JPG,AFNE01.JPG,AFNE01.JPG,AFNE01.JPG,AFNE01.JPG,AFNE01.JPG,,,,,,,,,,,,,,,,,,,,,0,7,7,5,,,AFNE05.jpg,AFNE02.jpg,AFSA01.jpg,AFSA04.jpg,AFNE05.jpg,FN,3,num_8,32,num_6,0.783525119885,,,2017_Oct_05_1422,59.9322400795,MAFE4ImagesEEG,001,201920,
AFNE01.JPG,AFNE01.JPG,AFNE01.JPG,AFNE01.JPG,AFNE01.JPG,AFNE01.JPG,,,,,,,,,,,,,,,,,,,,,0,8,8,6,,,AFNE05.jpg,AFSA03.jpg,AFNE08.jpg,AFSA12.jpg,AFNE05.jpg,FN,3,num_8,32,num_4,0.88356107485,,,2017_Oct_05_1422,59.9322400795,MAFE4ImagesEEG,001,201920,
AFNE01.JPG,AFNE01.JPG,AFNE01.JPG,AFNE01.JPG,AFNE01.JPG,AFNE01.JPG,,,,,,,,,,,,,,,,,,,,,0,9,9,2,,,AFSA09.jpg,AFSA04.jpg,AFNE20.jpg,AFNE04.jpg,AFSA04.jpg,FS,4,num_6,16,num_6,0.71677172507,,,2017_Oct_05_1422,59.9322400795,MAFE4ImagesEEG,001,201920,
AFNE01.JPG,AFNE01.JPG,AFNE01.JPG,AFNE01.JPG,AFNE01.JPG,AFNE01.JPG,,,,,,,,,,,,,,,,,,,,,1,0,10,9,,,AFNE03.jpg,AFSA20.jpg,AFSA08.jpg,AFNE11.jpg,AFSA08.jpg,FS,4,num_2,32,num_4,0.416917565628,,,2017_Oct_05_1422,59.9322400795,MAFE4ImagesEEG,001,201920,
AFNE01.JPG,AFNE01.JPG,AFNE01.JPG,AFNE01.JPG,AFNE01.JPG,AFNE01.JPG,,,,,,,,,,,,,,,,,,,,,1,1,11,1,,,AFNE14.jpg,AFNE17.jpg,AFSA19.jpg,AFSA11.jpg,AFSA11.jpg,FS,4,num_4,16,num_4,1.73362693883,,,2017_Oct_05_1422,59.9322400795,MAFE4ImagesEEG,001,201920,
AFNE01.JPG,AFNE01.JPG,AFNE01.JPG,AFNE01.JPG,AFNE01.JPG,AFNE01.JPG,,,,,,,,,,,,,,,,,,,,,1,2,12,0,,,AFSA16.jpg,AFNE16.jpg,AFSA12.jpg,AFNE13.jpg,AFSA12.jpg,FS,4,num_2,32,num_4,1.2001363787,,,2017_Oct_05_1422,59.9322400795,MAFE4ImagesEEG,001,201920,
AFNE01.JPG,AFNE01.JPG,AFNE01.JPG,AFNE01.JPG,AFNE01.JPG,AFNE01.JPG,,,,,,,,,,,,,,,,,,,,,1,3,13,2,,,AFSA05.jpg,AFNE02.jpg,AFNE10.jpg,AFSA07.jpg,AFNE10.jpg,FN,3,num_2,32,num_4,0.950284640829,,,2017_Oct_05_1422,59.9322400795,MAFE4ImagesEEG,001,201920,
AFNE01.JPG,AFNE01.JPG,AFNE01.JPG,AFNE01.JPG,AFNE01.JPG,AFNE01.JPG,,,,,,,,,,,,,,,,,,,,,1,4,14,7,,,AFNE17.jpg,AFNE03.jpg,AFSA14.jpg,AFSA02.jpg,AFSA14.jpg,FS,4,num_2,32,num_8,1.56673527297,,,2017_Oct_05_1422,59.9322400795,MAFE4ImagesEEG,001,201920,
AFNE01.JPG,AFNE01.JPG,AFNE01.JPG,AFNE01.JPG,AFNE01.JPG,AFNE01.JPG,,,,,,,,,,,,,,,,,,,,,1,5,15,6,,,AFNE15.jpg,AFSA16.jpg,AFSA02.jpg,AFNE16.jpg,AFSA16.jpg,FS,4,num_6,16,num_6,3.4333452328,,,2017_Oct_05_1422,59.9322400795,MAFE4ImagesEEG,001,201920,
AFNE01.JPG,AFNE01.JPG,AFNE01.JPG,AFNE01.JPG,AFNE01.JPG,AFNE01.JPG,,,,,,,,,,,,,,,,,,,,,1,6,16,4,,,AFSA07.jpg,AFSA11.jpg,AFNE15.jpg,AFNE16.jpg,AFSA11.jpg,FS,4,num_6,32,num_4,0.833407905389,,,2017_Oct_05_1422,59.9322400795,MAFE4ImagesEEG,001,201920,
AFNE01.JPG,AFNE01.JPG,AFNE01.JPG,AFNE01.JPG,AFNE01.JPG,AFNE01.JPG,,,,,,,,,,,,,,,,,,,,,1,7,17,3,,,AFNE10.jpg,AFSA12.jpg,AFSA04.jpg,AFNE17.jpg,AFNE10.jpg,FN,3,num_8,32,num_6,0.166831366718,,,2017_Oct_05_1422,59.9322400795,MAFE4ImagesEEG,001,201920,
AFNE01.JPG,AFNE01.JPG,AFNE01.JPG,AFNE01.JPG,AFNE01.JPG,AFNE01.JPG,,,,,,,,,,,,,,,,,,,,,1,8,18,8,,,AFNE20.jpg,AFSA08.jpg,AFNE13.jpg,AFSA02.jpg,AFNE13.jpg,FN,3,num_2,32,num_6,2.81665276256,,,2017_Oct_05_1422,59.9322400795,MAFE4ImagesEEG,001,201920,
AFNE01.JPG,AFNE01.JPG,AFNE01.JPG,AFNE01.JPG,AFNE01.JPG,AFNE01.JPG,,,,,,,,,,,,,,,,,,,,,1,9,19,5,,,AFNE12.jpg,AFSA18.jpg,AFSA08.jpg,AFNE20.jpg,AFSA08.jpg,FS,4,num_2,32,num_4,0.966750476073,,,2017_Oct_05_1422,59.9322400795,MAFE4ImagesEEG,001,201920,
AFNE01.JPG,AFNE01.JPG,AFNE01.JPG,AFNE01.JPG,AFNE01.JPG,AFNE01.JPG,,,,,,,,,,,,,,,,,,,,,2,0,20,3,,,AFSA19.jpg,AFNE18.jpg,AFNE19.jpg,AFSA06.jpg,AFSA06.jpg,FS,4,num_4,16,num_4,0.800172814779,,,2017_Oct_05_1422,59.9322400795,MAFE4ImagesEEG,001,201920,
AFNE01.JPG,AFNE01.JPG,AFNE01.JPG,AFNE01.JPG,AFNE01.JPG,AFNE01.JPG,,,,,,,,,,,,,,,,,,,,,2,1,21,4,,,AFNE05.jpg,AFSA10.jpg,AFSA18.jpg,AFNE18.jpg,AFNE18.jpg,FN,3,num_4,32,num_8,0.616968627437,,,2017_Oct_05_1422,59.9322400795,MAFE4ImagesEEG,001,201920,
AFNE01.JPG,AFNE01.JPG,AFNE01.JPG,AFNE01.JPG,AFNE01.JPG,AFNE01.JPG,,,,,,,,,,,,,,,,,,,,,2,2,22,6,,,AFSA09.jpg,AFNE11.jpg,AFNE09.jpg,AFSA15.jpg,AFSA15.jpg,FS,4,num_4,32,num_2,1.65010140199,,,2017_Oct_05_1422,59.9322400795,MAFE4ImagesEEG,001,201920,
AFNE01.JPG,AFNE01.JPG,AFNE01.JPG,AFNE01.JPG,AFNE01.JPG,AFNE01.JPG,,,,,,,,,,,,,,,,,,,,,2,3,23,1,,,AFNE17.jpg,AFNE01.jpg,AFSA05.jpg,AFSA20.jpg,AFSA20.jpg,FS,4,num_4,16,num_4,0.499986368552,,,2017_Oct_05_1422,59.9322400795,MAFE4ImagesEEG,001,201920,
AFNE01.JPG,AFNE01.JPG,AFNE01.JPG,AFNE01.JPG,AFNE01.JPG,AFNE01.JPG,,,,,,,,,,,,,,,,,,,,,2,4,24,7,,,AFSA10.jpg,AFNE18.jpg,AFNE05.jpg,AFSA17.jpg,AFNE05.jpg,FN,3,num_2,16,num_2,1.21683795791,,,2017_Oct_05_1422,59.9322400795,MAFE4ImagesEEG,001,201920,
AFNE01.JPG,AFNE01.JPG,AFNE01.JPG,AFNE01.JPG,AFNE01.JPG,AFNE01.JPG,,,,,,,,,,,,,,,,,,,,,2,5,25,8,,,AFSA05.jpg,AFNE15.jpg,AFNE05.jpg,AFSA18.jpg,AFNE15.jpg,FN,3,num_6,32,num_4,1.01677631168,,,2017_Oct_05_1422,59.9322400795,MAFE4ImagesEEG,001,201920,
AFNE01.JPG,AFNE01.JPG,AFNE01.JPG,AFNE01.JPG,AFNE01.JPG,AFNE01.JPG,,,,,,,,,,,,,,,,,,,,,2,6,26,9,,,AFNE20.jpg,AFNE08.jpg,AFSA05.jpg,AFSA10.jpg,AFSA05.jpg,FS,4,num_2,32,num_8,0.483571210265,,,2017_Oct_05_1422,59.9322400795,MAFE4ImagesEEG,001,201920,
AFNE01.JPG,AFNE01.JPG,AFNE01.JPG,AFNE01.JPG,AFNE01.JPG,AFNE01.JPG,,,,,,,,,,,,,,,,,,,,,2,7,27,2,,,AFSA19.jpg,AFNE05.jpg,AFNE16.jpg,AFSA04.jpg,AFNE16.jpg,FN,3,num_2,32,num_6,1.03319114924,,,2017_Oct_05_1422,59.9322400795,MAFE4ImagesEEG,001,201920,
AFNE01.JPG,AFNE01.JPG,AFNE01.JPG,AFNE01.JPG,AFNE01.JPG,AFNE01.JPG,,,,,,,,,,,,,,,,,,,,,2,8,28,0,,,AFSA14.jpg,AFSA09.jpg,AFNE10.jpg,AFNE17.jpg,AFSA14.jpg,FS,4,num_8,32,num_4,1.01681640418,,,2017_Oct_05_1422,59.9322400795,MAFE4ImagesEEG,001,201920,
AFNE01.JPG,AFNE01.JPG,AFNE01.JPG,AFNE01.JPG,AFNE01.JPG,AFNE01.JPG,,,,,,,,,,,,,,,,,,,,,2,9,29,5,,,AFNE01.jpg,AFSA04.jpg,AFNE17.jpg,AFSA09.jpg,AFSA09.jpg,FS,4,num_4,16,num_4,1.31679372786,,,2017_Oct_05_1422,59.9322400795,MAFE4ImagesEEG,001,201920,
AFNE01.JPG,AFNE01.JPG,AFNE01.JPG,AFNE01.JPG,AFNE01.JPG,AFNE01.JPG,,,,,,,,,,,,,,,,,,,,,3,0,30,8,,,AFNE16.jpg,AFSA10.jpg,AFNE08.jpg,AFSA03.jpg,AFNE16.jpg,FN,3,num_8,16,num_8,2.00007537394,,,2017_Oct_05_1422,59.9322400795,MAFE4ImagesEEG,001,201920,
AFNE01.JPG,AFNE01.JPG,AFNE01.JPG,AFNE01.JPG,AFNE01.JPG,AFNE01.JPG,,,,,,,,,,,,,,,,,,,,,3,1,31,2,,,AFNE03.jpg,AFSA06.jpg,AFNE14.jpg,AFSA17.jpg,AFSA17.jpg,FS,4,num_4,16,num_4,1.06682075022,,,2017_Oct_05_1422,59.9322400795,MAFE4ImagesEEG,001,201920,
AFNE01.JPG,AFNE01.JPG,AFNE01.JPG,AFNE01.JPG,AFNE01.JPG,AFNE01.JPG,,,,,,,,,,,,,,,,,,,,,3,2,32,6,,,AFNE05.jpg,AFNE19.jpg,AFSA18.jpg,AFSA19.jpg,AFSA19.jpg,FS,4,num_4,32,num_6,0.566868059395,,,2017_Oct_05_1422,59.9322400795,MAFE4ImagesEEG,001,201920,
AFNE01.JPG,AFNE01.JPG,AFNE01.JPG,AFNE01.JPG,AFNE01.JPG,AFNE01.JPG,,,,,,,,,,,,,,,,,,,,,3,3,33,5,,,AFNE13.jpg,AFSA17.jpg,AFNE18.jpg,AFSA16.jpg,AFSA16.jpg,FS,4,num_4,32,num_8,0.416790552554,,,2017_Oct_05_1422,59.9322400795,MAFE4ImagesEEG,001,201920,
AFNE01.JPG,AFNE01.JPG,AFNE01.JPG,AFNE01.JPG,AFNE01.JPG,AFNE01.JPG,,,,,,,,,,,,,,,,,,,,,3,4,34,3,,,AFNE08.jpg,AFSA20.jpg,AFSA11.jpg,AFNE15.jpg,AFSA11.jpg,FS,4,num_2,16,num_2,0.250184986857,,,2017_Oct_05_1422,59.9322400795,MAFE4ImagesEEG,001,201920,
AFNE01.JPG,AFNE01.JPG,AFNE01.JPG,AFNE01.JPG,AFNE01.JPG,AFNE01.JPG,,,,,,,,,,,,,,,,,,,,,3,5,35,0,,,AFSA15.jpg,AFNE14.jpg,AFNE11.jpg,AFSA11.jpg,AFSA15.jpg,FS,4,num_8,32,num_4,2.35013241754,,,2017_Oct_05_1422,59.9322400795,MAFE4ImagesEEG,001,201920,
AFNE01.JPG,AFNE01.JPG,AFNE01.JPG,AFNE01.JPG,AFNE01.JPG,AFNE01.JPG,,,,,,,,,,,,,,,,,,,,,3,6,36,4,,,AFNE08.jpg,AFNE03.jpg,AFSA01.jpg,AFSA10.jpg,AFNE03.jpg,FN,3,num_6,16,num_6,0.366889164085,,,2017_Oct_05_1422,59.9322400795,MAFE4ImagesEEG,001,201920,
AFNE01.JPG,AFNE01.JPG,AFNE01.JPG,AFNE01.JPG,AFNE01.JPG,AFNE01.JPG,,,,,,,,,,,,,,,,,,,,,3,7,37,1,,,AFSA08.jpg,AFNE14.jpg,AFSA16.jpg,AFNE20.jpg,AFNE20.jpg,FN,3,num_4,16,num_4,0.316913684655,,,2017_Oct_05_1422,59.9322400795,MAFE4ImagesEEG,001,201920,
AFNE01.JPG,AFNE01.JPG,AFNE01.JPG,AFNE01.JPG,AFNE01.JPG,AFNE01.JPG,,,,,,,,,,,,,,,,,,,,,3,8,38,7,,,AFSA08.jpg,AFSA18.jpg,AFNE12.jpg,AFNE14.jpg,AFNE12.jpg,FN,3,num_2,32,num_6,0.36680865832,,,2017_Oct_05_1422,59.9322400795,MAFE4ImagesEEG,001,201920,
