IPosition2,IPosition3,IPosition1,IPosition6,IPosition4,IPosition5,TrialsF1.thisRepN,TrialsF1.thisTrialN,TrialsF1.thisN,TrialsF1.thisIndex,TrialsM1.thisRepN,TrialsM1.thisTrialN,TrialsM1.thisN,TrialsM1.thisIndex,TrialsF2.thisRepN,TrialsF2.thisTrialN,TrialsF2.thisN,TrialsF2.thisIndex,TrialsM2.thisRepN,TrialsM2.thisTrialN,TrialsM2.thisN,TrialsM2.thisIndex,TrialsF3.thisRepN,TrialsF3.thisTrialN,TrialsF3.thisN,TrialsF3.thisIndex,TrialsM3.thisRepN,TrialsM3.thisTrialN,TrialsM3.thisN,TrialsM3.thisIndex,InstrKey_resp.keys,InstrKey_resp.rt,Image0 _Position,Image1 _Position,Image2 _Position,Image3 _Position,Center_image,condition,code,correct_answer,accuracy,Key_Resp.keys,Key_Resp.rt,BreakKey_resp.keys,BreakKey_resp.rt,date,frameRate,expName,session,participant,
,,,,,,,,,,,,,,,,,,,,,,,,,,,,,,space,16.3993104101,,,,,,,,,,,,,,2017_Oct_23_1837,59.9986721823,FEMA4ImagesEEG,001,201916,
AFSA21.JPG,AFNE23.JPG,AFNE21.JPG,AFSA25.JPG,AFNE25.JPG,AFSA23.JPG,0,0,0,4,,,,,,,,,,,,,,,,,,,,,,,AFNE02.jpg,AFNE09.jpg,AFSA20.jpg,AFSA05.jpg,AFSA05.jpg,FS,4,num_4,16,num_4,0.733446554397,,,2017_Oct_23_1837,59.9986721823,FEMA4ImagesEEG,001,201916,
AFSA25.JPG,AFNE24.JPG,AFSA24.JPG,AFNE21.JPG,AFSA21.JPG,AFNE25.JPG,0,1,1,2,,,,,,,,,,,,,,,,,,,,,,,AFNE16.jpg,AFSA19.jpg,AFSA13.jpg,AFNE06.jpg,AFSA19.jpg,FS,4,num_6,16,num_6,0.850113301189,,,2017_Oct_23_1837,59.9986721823,FEMA4ImagesEEG,001,201916,
AMNE22.JPG,AMSA24.JPG,AMSA22.JPG,AMNE25.JPG,AMNE24.JPG,AMSA25.JPG,0,2,2,7,,,,,,,,,,,,,,,,,,,,,,,AFNE09.jpg,AFSA20.jpg,AFNE12.jpg,AFSA16.jpg,AFNE09.jpg,FN,3,num_8,16,num_8,0.550137837767,,,2017_Oct_23_1837,59.9986721823,FEMA4ImagesEEG,001,201916,
AFNE22.JPG,AFSA24.JPG,AFSA22.JPG,AFNE25.JPG,AFNE24.JPG,AFSA25.JPG,0,3,3,6,,,,,,,,,,,,,,,,,,,,,,,AFSA10.jpg,AFNE05.jpg,AFSA16.jpg,AFNE20.jpg,AFNE05.jpg,FN,3,num_6,16,num_6,0.650167185464,,,2017_Oct_23_1837,59.9986721823,FEMA4ImagesEEG,001,201916,
AMSA21.JPG,AMNE22.JPG,AMNE21.JPG,AMSA23.JPG,AMSA22.JPG,AMNE23.JPG,0,4,4,1,,,,,,,,,,,,,,,,,,,,,,,AFNE03.jpg,AFSA09.jpg,AFSA12.jpg,AFNE09.jpg,AFNE09.jpg,FN,3,num_4,16,num_4,0.550143290311,,,2017_Oct_23_1837,59.9986721823,FEMA4ImagesEEG,001,201916,
AMSA21.JPG,AMNE23.JPG,AMNE21.JPG,AMSA25.JPG,AMNE25.JPG,AMSA23.JPG,0,5,5,5,,,,,,,,,,,,,,,,,,,,,,,AFSA04.jpg,AFSA15.jpg,AFNE20.jpg,AFNE01.jpg,AFNE01.jpg,FN,3,num_4,32,num_6,0.716763289412,,,2017_Oct_23_1837,59.9986721823,FEMA4ImagesEEG,001,201916,
AFNE23.JPG,AFNE24.JPG,AFNE22.JPG,AFSA24.JPG,AFSA22.JPG,AFSA23.JPG,0,6,6,8,,,,,,,,,,,,,,,,,,,,,,,AFSA05.jpg,AFNE09.jpg,AFSA17.jpg,AFNE11.jpg,AFSA05.jpg,FS,4,num_8,32,num_2,0.550126932678,,,2017_Oct_23_1837,59.9986721823,FEMA4ImagesEEG,001,201916,
AFSA21.JPG,AFNE22.JPG,AFNE21.JPG,AFSA23.JPG,AFSA22.JPG,AFNE23.JPG,0,7,7,0,,,,,,,,,,,,,,,,,,,,,,,AFNE03.jpg,AFNE10.jpg,AFSA15.jpg,AFSA14.jpg,AFSA15.jpg,FS,4,num_2,16,num_2,1.03341816901,,,2017_Oct_23_1837,59.9986721823,FEMA4ImagesEEG,001,201916,
AMNE23.JPG,AMNE24.JPG,AMNE22.JPG,AMSA24.JPG,AMSA22.JPG,AMSA23.JPG,0,8,8,9,,,,,,,,,,,,,,,,,,,,,,,AFSA01.jpg,AFSA12.jpg,AFNE01.jpg,AFNE20.jpg,AFSA01.jpg,FS,4,num_8,32,num_6,0.583465558128,,,2017_Oct_23_1837,59.9986721823,FEMA4ImagesEEG,001,201916,
AMSA25.JPG,AMNE24.JPG,AMSA24.JPG,AMNE26.JPG,AMSA21.JPG,AMNE25.JPG,0,9,9,3,,,,,,,,,,,,,,,,,,,,,,,AFSA10.jpg,AFNE14.jpg,AFNE12.jpg,AFSA08.jpg,AFNE14.jpg,FN,3,num_6,32,num_8,0.850118433009,,,2017_Oct_23_1837,59.9986721823,FEMA4ImagesEEG,001,201916,
AMSA25.JPG,AMNE24.JPG,AMSA24.JPG,AMNE26.JPG,AMSA21.JPG,AMNE25.JPG,,,,,0,0,0,3,,,,,,,,,,,,,,,,,,,AMSA09.jpg,AMSA13.jpg,AMNE15.jpg,AMNE14.jpg,AMNE15.jpg,MN,1,num_2,32,num_6,0.800368850352,,,2017_Oct_23_1837,59.9986721823,FEMA4ImagesEEG,001,201916,
AMSA21.JPG,AMNE23.JPG,AMNE21.JPG,AMSA25.JPG,AMNE25.JPG,AMSA23.JPG,,,,,0,1,1,5,,,,,,,,,,,,,,,,,,,AMNE17.jpg,AMSA14.jpg,AMNE08.jpg,AMSA15.jpg,AMNE17.jpg,MN,1,num_8,32,num_2,0.81675992161,,,2017_Oct_23_1837,59.9986721823,FEMA4ImagesEEG,001,201916,
AFSA25.JPG,AFNE24.JPG,AFSA24.JPG,AFNE21.JPG,AFSA21.JPG,AFNE25.JPG,,,,,0,2,2,2,,,,,,,,,,,,,,,,,,,AMSA18.jpg,AMSA05.jpg,AMNE16.jpg,AMNE02.jpg,AMSA05.jpg,MS,2,num_6,16,num_6,0.933495627483,,,2017_Oct_23_1837,59.9986721823,FEMA4ImagesEEG,001,201916,
AFSA21.JPG,AFNE23.JPG,AFNE21.JPG,AFSA25.JPG,AFNE25.JPG,AFSA23.JPG,,,,,0,3,3,4,,,,,,,,,,,,,,,,,,,AMSA17.jpg,AMNE05.jpg,AMNE01.jpg,AMSA06.jpg,AMSA06.jpg,MS,2,num_4,16,num_4,0.666784378118,,,2017_Oct_23_1837,59.9986721823,FEMA4ImagesEEG,001,201916,
AMNE23.JPG,AMNE24.JPG,AMNE22.JPG,AMSA24.JPG,AMSA22.JPG,AMSA23.JPG,,,,,0,4,4,9,,,,,,,,,,,,,,,,,,,AMNE03.jpg,AMSA05.jpg,AMSA20.jpg,AMNE15.jpg,AMNE03.jpg,MN,1,num_8,16,num_8,0.60010744771,,,2017_Oct_23_1837,59.9986721823,FEMA4ImagesEEG,001,201916,
AFSA21.JPG,AFNE22.JPG,AFNE21.JPG,AFSA23.JPG,AFSA22.JPG,AFNE23.JPG,,,,,0,5,5,0,,,,,,,,,,,,,,,,,,,AMSA15.jpg,AMSA11.jpg,AMNE17.jpg,AMNE12.jpg,AMNE17.jpg,MN,1,num_2,32,num_4,0.90020126407,,,2017_Oct_23_1837,59.9986721823,FEMA4ImagesEEG,001,201916,
AFNE22.JPG,AFSA24.JPG,AFSA22.JPG,AFNE25.JPG,AFNE24.JPG,AFSA25.JPG,,,,,0,6,6,6,,,,,,,,,,,,,,,,,,,AMSA06.jpg,AMNE18.jpg,AMNE03.jpg,AMSA10.jpg,AMSA06.jpg,MS,2,num_8,16,num_8,1.0000705627,,,2017_Oct_23_1837,59.9986721823,FEMA4ImagesEEG,001,201916,
AMNE22.JPG,AMSA24.JPG,AMSA22.JPG,AMNE25.JPG,AMNE24.JPG,AMSA25.JPG,,,,,0,7,7,7,,,,,,,,,,,,,,,,,,,AMSA06.jpg,AMNE07.jpg,AMNE02.jpg,AMSA13.jpg,AMSA06.jpg,MS,2,num_8,32,num_4,0.816831125761,,,2017_Oct_23_1837,59.9986721823,FEMA4ImagesEEG,001,201916,
AMSA21.JPG,AMNE22.JPG,AMNE21.JPG,AMSA23.JPG,AMSA22.JPG,AMNE23.JPG,,,,,0,8,8,1,,,,,,,,,,,,,,,,,,,AMSA07.jpg,AMNE04.jpg,AMSA05.jpg,AMNE07.jpg,AMNE04.jpg,MN,1,num_6,16,num_6,0.500171435298,,,2017_Oct_23_1837,59.9986721823,FEMA4ImagesEEG,001,201916,
AFNE23.JPG,AFNE24.JPG,AFNE22.JPG,AFSA24.JPG,AFSA22.JPG,AFSA23.JPG,,,,,0,9,9,8,,,,,,,,,,,,,,,,,,,AMSA09.jpg,AMSA18.jpg,AMNE02.jpg,AMNE20.jpg,AMNE02.jpg,MN,1,num_2,16,num_2,0.833464034717,,,2017_Oct_23_1837,59.9986721823,FEMA4ImagesEEG,001,201916,
AFNE23.JPG,AFNE24.JPG,AFNE22.JPG,AFSA24.JPG,AFSA22.JPG,AFSA23.JPG,,,,,,,,,0,0,0,8,,,,,,,,,,,,,,,AFSA15.jpg,AFNE07.jpg,AFNE02.jpg,AFSA19.jpg,AFNE02.jpg,FN,3,num_2,32,num_6,0.58330198098,,,2017_Oct_23_1837,59.9986721823,FEMA4ImagesEEG,001,201916,
AMNE23.JPG,AMNE24.JPG,AMNE22.JPG,AMSA24.JPG,AMSA22.JPG,AMSA23.JPG,,,,,,,,,0,1,1,9,,,,,,,,,,,,,,,AFSA08.jpg,AFNE11.jpg,AFSA04.jpg,AFNE12.jpg,AFSA04.jpg,FS,4,num_2,32,num_8,0.867059251759,,,2017_Oct_23_1837,59.9986721823,FEMA4ImagesEEG,001,201916,
AFSA21.JPG,AFNE22.JPG,AFNE21.JPG,AFSA23.JPG,AFSA22.JPG,AFNE23.JPG,,,,,,,,,0,2,2,0,,,,,,,,,,,,,,,AFNE09.jpg,AFSA03.jpg,AFNE16.jpg,AFSA02.jpg,AFSA02.jpg,FS,4,num_4,32,num_6,1.03352016408,,,2017_Oct_23_1837,59.9986721823,FEMA4ImagesEEG,001,201916,
AFNE22.JPG,AFSA24.JPG,AFSA22.JPG,AFNE25.JPG,AFNE24.JPG,AFSA25.JPG,,,,,,,,,0,3,3,6,,,,,,,,,,,,,,,AFNE17.jpg,AFSA03.jpg,AFNE11.jpg,AFSA10.jpg,AFNE17.jpg,FN,3,num_8,32,num_6,0.750112178735,,,2017_Oct_23_1837,59.9986721823,FEMA4ImagesEEG,001,201916,
AMSA21.JPG,AMNE22.JPG,AMNE21.JPG,AMSA23.JPG,AMSA22.JPG,AMNE23.JPG,,,,,,,,,0,4,4,1,,,,,,,,,,,,,,,AFNE03.jpg,AFNE18.jpg,AFSA04.jpg,AFSA03.jpg,AFNE03.jpg,FN,3,num_8,32,num_6,1.00009269372,,,2017_Oct_23_1837,59.9986721823,FEMA4ImagesEEG,001,201916,
AMNE22.JPG,AMSA24.JPG,AMSA22.JPG,AMNE25.JPG,AMNE24.JPG,AMSA25.JPG,,,,,,,,,0,5,5,7,,,,,,,,,,,,,,,AFSA12.jpg,AFNE17.jpg,AFNE12.jpg,AFSA19.jpg,AFSA12.jpg,FS,4,num_8,16,num_8,0.88344647421,,,2017_Oct_23_1837,59.9986721823,FEMA4ImagesEEG,001,201916,
AMSA25.JPG,AMNE24.JPG,AMSA24.JPG,AMNE26.JPG,AMSA21.JPG,AMNE25.JPG,,,,,,,,,0,6,6,3,,,,,,,,,,,,,,,AFNE05.jpg,AFSA05.jpg,AFSA04.jpg,AFNE09.jpg,AFSA04.jpg,FS,4,num_2,16,num_2,0.516805627034,,,2017_Oct_23_1837,59.9986721823,FEMA4ImagesEEG,001,201916,
AFSA25.JPG,AFNE24.JPG,AFSA24.JPG,AFNE21.JPG,AFSA21.JPG,AFNE25.JPG,,,,,,,,,0,7,7,2,,,,,,,,,,,,,,,AFNE01.jpg,AFSA03.jpg,AFSA16.jpg,AFNE02.jpg,AFNE02.jpg,FN,3,num_4,16,num_4,1.0834188906,,,2017_Oct_23_1837,59.9986721823,FEMA4ImagesEEG,001,201916,
AFSA21.JPG,AFNE23.JPG,AFNE21.JPG,AFSA25.JPG,AFNE25.JPG,AFSA23.JPG,,,,,,,,,0,8,8,4,,,,,,,,,,,,,,,AFNE03.jpg,AFSA08.jpg,AFSA02.jpg,AFNE20.jpg,AFSA08.jpg,FS,4,num_6,32,num_2,0.716418173746,,,2017_Oct_23_1837,59.9986721823,FEMA4ImagesEEG,001,201916,
AMSA21.JPG,AMNE23.JPG,AMNE21.JPG,AMSA25.JPG,AMNE25.JPG,AMSA23.JPG,,,,,,,,,0,9,9,5,,,,,,,,,,,,,,,AFSA18.jpg,AFNE03.jpg,AFSA09.jpg,AFNE05.jpg,AFSA18.jpg,FS,4,num_8,16,num_8,1.20014304982,,,2017_Oct_23_1837,59.9986721823,FEMA4ImagesEEG,001,201916,
AMNE22.JPG,AMSA24.JPG,AMSA22.JPG,AMNE25.JPG,AMNE24.JPG,AMSA25.JPG,,,,,,,,,,,,,0,0,0,7,,,,,,,,,,,AMNE01.jpg,AMSA07.jpg,AMNE11.jpg,AMSA13.jpg,AMNE11.jpg,MN,1,num_2,32,num_6,0.983505971381,,,2017_Oct_23_1837,59.9986721823,FEMA4ImagesEEG,001,201916,
AMSA21.JPG,AMNE23.JPG,AMNE21.JPG,AMSA25.JPG,AMNE25.JPG,AMSA23.JPG,,,,,,,,,,,,,0,1,1,5,,,,,,,,,,,AMNE05.jpg,AMSA14.jpg,AMSA03.jpg,AMNE01.jpg,AMSA03.jpg,MS,2,num_2,32,num_4,0.916783816763,,,2017_Oct_23_1837,59.9986721823,FEMA4ImagesEEG,001,201916,
AFSA25.JPG,AFNE24.JPG,AFSA24.JPG,AFNE21.JPG,AFSA21.JPG,AFNE25.JPG,,,,,,,,,,,,,0,2,2,2,,,,,,,,,,,AMSA06.jpg,AMNE04.jpg,AMNE15.jpg,AMSA16.jpg,AMNE04.jpg,MN,1,num_6,16,num_6,0.650112339063,,,2017_Oct_23_1837,59.9986721823,FEMA4ImagesEEG,001,201916,
AFNE23.JPG,AFNE24.JPG,AFNE22.JPG,AFSA24.JPG,AFSA22.JPG,AFSA23.JPG,,,,,,,,,,,,,0,3,3,8,,,,,,,,,,,AMSA15.jpg,AMNE15.jpg,AMNE20.jpg,AMSA19.jpg,AMNE15.jpg,MN,1,num_6,32,num_8,1.16701964044,,,2017_Oct_23_1837,59.9986721823,FEMA4ImagesEEG,001,201916,
AFSA21.JPG,AFNE22.JPG,AFNE21.JPG,AFSA23.JPG,AFSA22.JPG,AFNE23.JPG,,,,,,,,,,,,,0,4,4,0,,,,,,,,,,,AMSA06.jpg,AMNE04.jpg,AMSA19.jpg,AMNE09.jpg,AMSA19.jpg,MS,2,num_2,32,num_8,0.916711329599,,,2017_Oct_23_1837,59.9986721823,FEMA4ImagesEEG,001,201916,
AMNE23.JPG,AMNE24.JPG,AMNE22.JPG,AMSA24.JPG,AMSA22.JPG,AMSA23.JPG,,,,,,,,,,,,,0,5,5,9,,,,,,,,,,,AMNE13.jpg,AMNE06.jpg,AMSA05.jpg,AMSA07.jpg,AMSA05.jpg,MS,2,num_2,32,num_8,0.950117951841,,,2017_Oct_23_1837,59.9986721823,FEMA4ImagesEEG,001,201916,
AMSA25.JPG,AMNE24.JPG,AMSA24.JPG,AMNE26.JPG,AMSA21.JPG,AMNE25.JPG,,,,,,,,,,,,,0,6,6,3,,,,,,,,,,,AMNE08.jpg,AMSA12.jpg,AMSA09.jpg,AMNE15.jpg,AMSA12.jpg,MS,2,num_6,16,num_6,0.500191641739,,,2017_Oct_23_1837,59.9986721823,FEMA4ImagesEEG,001,201916,
AFNE22.JPG,AFSA24.JPG,AFSA22.JPG,AFNE25.JPG,AFNE24.JPG,AFSA25.JPG,,,,,,,,,,,,,0,7,7,6,,,,,,,,,,,AMSA11.jpg,AMSA02.jpg,AMNE08.jpg,AMNE20.jpg,AMNE08.jpg,MN,1,num_2,32,num_4,0.783522649785,,,2017_Oct_23_1837,59.9986721823,FEMA4ImagesEEG,001,201916,
AMSA21.JPG,AMNE22.JPG,AMNE21.JPG,AMSA23.JPG,AMSA22.JPG,AMNE23.JPG,,,,,,,,,,,,,0,8,8,1,,,,,,,,,,,AMNE03.jpg,AMNE11.jpg,AMSA09.jpg,AMSA12.jpg,AMSA12.jpg,MS,2,num_4,32,num_6,1.28349041555,,,2017_Oct_23_1837,59.9986721823,FEMA4ImagesEEG,001,201916,
AFSA21.JPG,AFNE23.JPG,AFNE21.JPG,AFSA25.JPG,AFNE25.JPG,AFSA23.JPG,,,,,,,,,,,,,0,9,9,4,,,,,,,,,,,AMSA10.jpg,AMNE09.jpg,AMNE17.jpg,AMSA11.jpg,AMSA10.jpg,MS,2,num_8,32,num_6,0.733460025396,,,2017_Oct_23_1837,59.9986721823,FEMA4ImagesEEG,001,201916,
AFSA21.JPG,AFNE23.JPG,AFNE21.JPG,AFSA25.JPG,AFNE25.JPG,AFSA23.JPG,,,,,,,,,,,,,,,,,0,0,0,4,,,,,,,AFNE09.jpg,AFNE05.jpg,AFSA03.jpg,AFSA18.jpg,AFNE05.jpg,FN,3,num_6,16,num_6,0.666747813812,,,2017_Oct_23_1837,59.9986721823,FEMA4ImagesEEG,001,201916,
AMSA21.JPG,AMNE22.JPG,AMNE21.JPG,AMSA23.JPG,AMSA22.JPG,AMNE23.JPG,,,,,,,,,,,,,,,,,0,1,1,1,,,,,,,AFSA18.jpg,AFNE01.jpg,AFSA09.jpg,AFNE08.jpg,AFSA09.jpg,FS,4,num_2,16,num_2,0.666768341092,,,2017_Oct_23_1837,59.9986721823,FEMA4ImagesEEG,001,201916,
AFNE22.JPG,AFSA24.JPG,AFSA22.JPG,AFNE25.JPG,AFNE24.JPG,AFSA25.JPG,,,,,,,,,,,,,,,,,0,2,2,6,,,,,,,AFNE15.jpg,AFNE06.jpg,AFSA07.jpg,AFSA14.jpg,AFSA14.jpg,FS,4,num_4,16,num_4,0.70021505584,,,2017_Oct_23_1837,59.9986721823,FEMA4ImagesEEG,001,201916,
AFNE23.JPG,AFNE24.JPG,AFNE22.JPG,AFSA24.JPG,AFSA22.JPG,AFSA23.JPG,,,,,,,,,,,,,,,,,0,3,3,8,,,,,,,AFSA08.jpg,AFSA01.jpg,AFNE17.jpg,AFNE20.jpg,AFNE20.jpg,FN,3,num_4,16,num_4,0.750145535567,,,2017_Oct_23_1837,59.9986721823,FEMA4ImagesEEG,001,201916,
AFSA25.JPG,AFNE24.JPG,AFSA24.JPG,AFNE21.JPG,AFSA21.JPG,AFNE25.JPG,,,,,,,,,,,,,,,,,0,4,4,2,,,,,,,AFNE07.jpg,AFSA06.jpg,AFNE09.jpg,AFSA05.jpg,AFNE09.jpg,FN,3,num_2,32,num_8,0.566808273084,,,2017_Oct_23_1837,59.9986721823,FEMA4ImagesEEG,001,201916,
AMSA25.JPG,AMNE24.JPG,AMSA24.JPG,AMNE26.JPG,AMSA21.JPG,AMNE25.JPG,,,,,,,,,,,,,,,,,0,5,5,3,,,,,,,AFNE17.jpg,AFSA10.jpg,AFSA04.jpg,AFNE13.jpg,AFSA04.jpg,FS,4,num_2,16,num_2,1.28346828441,,,2017_Oct_23_1837,59.9986721823,FEMA4ImagesEEG,001,201916,
AMSA21.JPG,AMNE23.JPG,AMNE21.JPG,AMSA25.JPG,AMNE25.JPG,AMSA23.JPG,,,,,,,,,,,,,,,,,0,6,6,5,,,,,,,AFNE20.jpg,AFSA20.jpg,AFNE05.jpg,AFSA17.jpg,AFSA20.jpg,FS,4,num_6,16,num_6,0.833460506517,,,2017_Oct_23_1837,59.9986721823,FEMA4ImagesEEG,001,201916,
AMNE22.JPG,AMSA24.JPG,AMSA22.JPG,AMNE25.JPG,AMNE24.JPG,AMSA25.JPG,,,,,,,,,,,,,,,,,0,7,7,7,,,,,,,AFSA15.jpg,AFSA03.jpg,AFNE15.jpg,AFNE20.jpg,AFSA15.jpg,FS,4,num_8,32,num_2,0.783455294557,,,2017_Oct_23_1837,59.9986721823,FEMA4ImagesEEG,001,201916,
AFSA21.JPG,AFNE22.JPG,AFNE21.JPG,AFSA23.JPG,AFSA22.JPG,AFNE23.JPG,,,,,,,,,,,,,,,,,0,8,8,0,,,,,,,AFSA03.jpg,AFSA07.jpg,AFNE09.jpg,AFNE19.jpg,AFSA07.jpg,FS,4,num_6,16,num_6,0.900151228649,,,2017_Oct_23_1837,59.9986721823,FEMA4ImagesEEG,001,201916,
AMNE23.JPG,AMNE24.JPG,AMNE22.JPG,AMSA24.JPG,AMSA22.JPG,AMSA23.JPG,,,,,,,,,,,,,,,,,0,9,9,9,,,,,,,AFNE12.jpg,AFSA03.jpg,AFSA05.jpg,AFNE15.jpg,AFSA03.jpg,FS,4,num_6,16,num_6,0.866659610299,,,2017_Oct_23_1837,59.9986721823,FEMA4ImagesEEG,001,201916,
AMSA25.JPG,AMNE24.JPG,AMSA24.JPG,AMNE26.JPG,AMSA21.JPG,AMNE25.JPG,,,,,,,,,,,,,,,,,,,,,0,0,0,3,,,AMSA14.jpg,AMSA03.jpg,AMNE13.jpg,AMNE12.jpg,AMSA03.jpg,MS,2,num_6,16,num_6,0.750115065253,,,2017_Oct_23_1837,59.9986721823,FEMA4ImagesEEG,001,201916,
AMNE23.JPG,AMNE24.JPG,AMNE22.JPG,AMSA24.JPG,AMSA22.JPG,AMSA23.JPG,,,,,,,,,,,,,,,,,,,,,0,1,1,9,,,AMNE13.jpg,AMSA13.jpg,AMSA01.jpg,AMNE02.jpg,AMNE02.jpg,MN,1,num_4,32,num_2,0.666776680271,,,2017_Oct_23_1837,59.9986721823,FEMA4ImagesEEG,001,201916,
AFSA21.JPG,AFNE22.JPG,AFNE21.JPG,AFSA23.JPG,AFSA22.JPG,AFNE23.JPG,,,,,,,,,,,,,,,,,,,,,0,2,2,0,,,AMSA16.jpg,AMNE08.jpg,AMSA02.jpg,AMNE17.jpg,AMSA02.jpg,MS,2,num_2,16,num_2,0.566733861575,,,2017_Oct_23_1837,59.9986721823,FEMA4ImagesEEG,001,201916,
AMSA21.JPG,AMNE22.JPG,AMNE21.JPG,AMSA23.JPG,AMSA22.JPG,AMNE23.JPG,,,,,,,,,,,,,,,,,,,,,0,3,3,1,,,AMNE15.jpg,AMNE07.jpg,AMSA10.jpg,AMSA16.jpg,AMSA10.jpg,MS,2,num_2,32,num_6,0.916632748442,,,2017_Oct_23_1837,59.9986721823,FEMA4ImagesEEG,001,201916,
AMNE22.JPG,AMSA24.JPG,AMSA22.JPG,AMNE25.JPG,AMNE24.JPG,AMSA25.JPG,,,,,,,,,,,,,,,,,,,,,0,4,4,7,,,AMNE07.jpg,AMSA17.jpg,AMSA14.jpg,AMNE11.jpg,AMSA17.jpg,MS,2,num_6,16,num_6,0.783459784812,,,2017_Oct_23_1837,59.9986721823,FEMA4ImagesEEG,001,201916,
AFNE22.JPG,AFSA24.JPG,AFSA22.JPG,AFNE25.JPG,AFNE24.JPG,AFSA25.JPG,,,,,,,,,,,,,,,,,,,,,0,5,5,6,,,AMSA03.jpg,AMNE18.jpg,AMNE20.jpg,AMSA20.jpg,AMSA03.jpg,MS,2,num_8,32,num_4,0.966616150108,,,2017_Oct_23_1837,59.9986721823,FEMA4ImagesEEG,001,201916,
AFSA21.JPG,AFNE23.JPG,AFNE21.JPG,AFSA25.JPG,AFNE25.JPG,AFSA23.JPG,,,,,,,,,,,,,,,,,,,,,0,6,6,4,,,AMNE14.jpg,AMNE17.jpg,AMSA15.jpg,AMSA13.jpg,AMNE17.jpg,MN,1,num_6,32,num_8,1.11702244694,,,2017_Oct_23_1837,59.9986721823,FEMA4ImagesEEG,001,201916,
AFSA25.JPG,AFNE24.JPG,AFSA24.JPG,AFNE21.JPG,AFSA21.JPG,AFNE25.JPG,,,,,,,,,,,,,,,,,,,,,0,7,7,2,,,AMSA16.jpg,AMNE18.jpg,AMNE08.jpg,AMSA04.jpg,AMNE18.jpg,MN,1,num_6,32,num_2,0.95016702509,,,2017_Oct_23_1837,59.9986721823,FEMA4ImagesEEG,001,201916,
AFNE23.JPG,AFNE24.JPG,AFNE22.JPG,AFSA24.JPG,AFSA22.JPG,AFSA23.JPG,,,,,,,,,,,,,,,,,,,,,0,8,8,8,,,AMNE14.jpg,AMSA05.jpg,AMSA15.jpg,AMNE13.jpg,AMNE14.jpg,MN,1,num_8,16,num_8,0.750163496938,,,2017_Oct_23_1837,59.9986721823,FEMA4ImagesEEG,001,201916,
AMSA21.JPG,AMNE23.JPG,AMNE21.JPG,AMSA25.JPG,AMNE25.JPG,AMSA23.JPG,,,,,,,,,,,,,,,,,,,,,0,9,9,5,,,AMSA11.jpg,AMNE09.jpg,AMNE01.jpg,AMSA05.jpg,AMNE01.jpg,MN,1,num_2,16,num_2,1.01676697785,,,2017_Oct_23_1837,59.9986721823,FEMA4ImagesEEG,001,201916,
,,,,,,,,,,,,,,,,,,,,,,,,,,,,,,,,,,,,,,,,,,,space,22.0148377299,2017_Oct_23_1837,59.9986721823,FEMA4ImagesEEG,001,201916,
AFNE01.JPG,AFNE01.JPG,AFNE01.JPG,AFNE01.JPG,AFNE01.JPG,AFNE01.JPG,0,0,0,8,,,,,,,,,,,,,,,,,,,,,,,AFNE08.jpg,AFSA12.jpg,AFNE02.jpg,AFSA09.jpg,AFNE02.jpg,FN,3,num_2,32,num_8,1.0668424319,,,2017_Oct_23_1837,59.9986721823,FEMA4ImagesEEG,001,201916,
AFNE01.JPG,AFNE01.JPG,AFNE01.JPG,AFNE01.JPG,AFNE01.JPG,AFNE01.JPG,0,1,1,6,,,,,,,,,,,,,,,,,,,,,,,AFNE20.jpg,AFSA09.jpg,AFSA10.jpg,AFNE09.jpg,AFSA10.jpg,FS,4,num_2,32,num_4,0.733438215102,,,2017_Oct_23_1837,59.9986721823,FEMA4ImagesEEG,001,201916,
AFNE01.JPG,AFNE01.JPG,AFNE01.JPG,AFNE01.JPG,AFNE01.JPG,AFNE01.JPG,0,2,2,9,,,,,,,,,,,,,,,,,,,,,,,AFSA18.jpg,AFNE19.jpg,AFSA05.jpg,AFNE03.jpg,AFSA18.jpg,FS,4,num_8,32,num_2,1.1668887788,,,2017_Oct_23_1837,59.9986721823,FEMA4ImagesEEG,001,201916,
AFNE01.JPG,AFNE01.JPG,AFNE01.JPG,AFNE01.JPG,AFNE01.JPG,AFNE01.JPG,0,3,3,0,,,,,,,,,,,,,,,,,,,,,,,AFNE14.jpg,AFNE02.jpg,AFSA16.jpg,AFSA03.jpg,AFNE14.jpg,FN,3,num_8,32,num_6,0.516799853649,,,2017_Oct_23_1837,59.9986721823,FEMA4ImagesEEG,001,201916,
AFNE01.JPG,AFNE01.JPG,AFNE01.JPG,AFNE01.JPG,AFNE01.JPG,AFNE01.JPG,0,4,4,5,,,,,,,,,,,,,,,,,,,,,,,AFSA04.jpg,AFSA11.jpg,AFNE01.jpg,AFNE06.jpg,AFNE06.jpg,FN,3,num_4,32,num_2,0.633446714724,,,2017_Oct_23_1837,59.9986721823,FEMA4ImagesEEG,001,201916,
AFNE01.JPG,AFNE01.JPG,AFNE01.JPG,AFNE01.JPG,AFNE01.JPG,AFNE01.JPG,0,5,5,7,,,,,,,,,,,,,,,,,,,,,,,AFSA03.jpg,AFSA19.jpg,AFNE10.jpg,AFNE05.jpg,AFSA19.jpg,FS,4,num_6,16,num_6,0.883432682371,,,2017_Oct_23_1837,59.9986721823,FEMA4ImagesEEG,001,201916,
AFNE01.JPG,AFNE01.JPG,AFNE01.JPG,AFNE01.JPG,AFNE01.JPG,AFNE01.JPG,0,6,6,2,,,,,,,,,,,,,,,,,,,,,,,AFSA09.jpg,AFNE05.jpg,AFSA13.jpg,AFNE02.jpg,AFSA13.jpg,FS,4,num_2,16,num_2,1.21655817656,,,2017_Oct_23_1837,59.9986721823,FEMA4ImagesEEG,001,201916,
AFNE01.JPG,AFNE01.JPG,AFNE01.JPG,AFNE01.JPG,AFNE01.JPG,AFNE01.JPG,0,7,7,3,,,,,,,,,,,,,,,,,,,,,,,AFNE18.jpg,AFSA10.jpg,AFSA18.jpg,AFNE08.jpg,AFSA10.jpg,FS,4,num_6,16,num_6,0.849979232182,,,2017_Oct_23_1837,59.9986721823,FEMA4ImagesEEG,001,201916,
AFNE01.JPG,AFNE01.JPG,AFNE01.JPG,AFNE01.JPG,AFNE01.JPG,AFNE01.JPG,0,8,8,1,,,,,,,,,,,,,,,,,,,,,,,AFSA10.jpg,AFNE20.jpg,AFNE09.jpg,AFSA03.jpg,AFSA10.jpg,FS,4,num_8,16,num_8,0.566762407427,,,2017_Oct_23_1837,59.9986721823,FEMA4ImagesEEG,001,201916,
AFNE01.JPG,AFNE01.JPG,AFNE01.JPG,AFNE01.JPG,AFNE01.JPG,AFNE01.JPG,0,9,9,4,,,,,,,,,,,,,,,,,,,,,,,AFNE08.jpg,AFSA01.jpg,AFNE01.jpg,AFSA09.jpg,AFSA09.jpg,FS,4,num_4,32,num_2,0.983456577407,,,2017_Oct_23_1837,59.9986721823,FEMA4ImagesEEG,001,201916,
AFNE01.JPG,AFNE01.JPG,AFNE01.JPG,AFNE01.JPG,AFNE01.JPG,AFNE01.JPG,1,0,10,9,,,,,,,,,,,,,,,,,,,,,,,AFNE01.jpg,AFNE17.jpg,AFSA02.jpg,AFSA05.jpg,AFSA02.jpg,FS,4,num_2,16,num_2,1.08328001038,,,2017_Oct_23_1837,59.9986721823,FEMA4ImagesEEG,001,201916,
AFNE01.JPG,AFNE01.JPG,AFNE01.JPG,AFNE01.JPG,AFNE01.JPG,AFNE01.JPG,1,1,11,6,,,,,,,,,,,,,,,,,,,,,,,AFSA09.jpg,AFNE06.jpg,AFNE10.jpg,AFSA18.jpg,AFSA18.jpg,FS,4,num_4,16,num_4,0.783297169954,,,2017_Oct_23_1837,59.9986721823,FEMA4ImagesEEG,001,201916,
AFNE01.JPG,AFNE01.JPG,AFNE01.JPG,AFNE01.JPG,AFNE01.JPG,AFNE01.JPG,1,2,12,5,,,,,,,,,,,,,,,,,,,,,,,AFNE11.jpg,AFNE18.jpg,AFSA12.jpg,AFSA07.jpg,AFNE11.jpg,FN,3,num_8,32,num_6,1.10010440077,,,2017_Oct_23_1837,59.9986721823,FEMA4ImagesEEG,001,201916,
AFNE01.JPG,AFNE01.JPG,AFNE01.JPG,AFNE01.JPG,AFNE01.JPG,AFNE01.JPG,1,3,13,1,,,,,,,,,,,,,,,,,,,,,,,AFSA06.jpg,AFNE20.jpg,AFNE12.jpg,AFSA07.jpg,AFSA07.jpg,FS,4,num_4,32,num_6,1.06674941746,,,2017_Oct_23_1837,59.9986721823,FEMA4ImagesEEG,001,201916,
AFNE01.JPG,AFNE01.JPG,AFNE01.JPG,AFNE01.JPG,AFNE01.JPG,AFNE01.JPG,1,4,14,8,,,,,,,,,,,,,,,,,,,,,,,AFNE02.jpg,AFNE01.jpg,AFSA18.jpg,AFSA07.jpg,AFNE01.jpg,FN,3,num_6,32,num_2,1.4501319041,,,2017_Oct_23_1837,59.9986721823,FEMA4ImagesEEG,001,201916,
AFNE01.JPG,AFNE01.JPG,AFNE01.JPG,AFNE01.JPG,AFNE01.JPG,AFNE01.JPG,1,5,15,2,,,,,,,,,,,,,,,,,,,,,,,AFSA09.jpg,AFNE11.jpg,AFNE10.jpg,AFSA14.jpg,AFSA14.jpg,FS,4,num_4,32,num_6,0.566633149399,,,2017_Oct_23_1837,59.9986721823,FEMA4ImagesEEG,001,201916,
AFNE01.JPG,AFNE01.JPG,AFNE01.JPG,AFNE01.JPG,AFNE01.JPG,AFNE01.JPG,1,6,16,7,,,,,,,,,,,,,,,,,,,,,,,AFSA03.jpg,AFSA05.jpg,AFNE20.jpg,AFNE05.jpg,AFNE20.jpg,FN,3,num_2,16,num_2,1.14973242301,,,2017_Oct_23_1837,59.9986721823,FEMA4ImagesEEG,001,201916,
AFNE01.JPG,AFNE01.JPG,AFNE01.JPG,AFNE01.JPG,AFNE01.JPG,AFNE01.JPG,1,7,17,4,,,,,,,,,,,,,,,,,,,,,,,AFNE17.jpg,AFNE05.jpg,AFSA01.jpg,AFSA16.jpg,AFNE05.jpg,FN,3,num_6,16,num_6,0.783445672248,,,2017_Oct_23_1837,59.9986721823,FEMA4ImagesEEG,001,201916,
AFNE01.JPG,AFNE01.JPG,AFNE01.JPG,AFNE01.JPG,AFNE01.JPG,AFNE01.JPG,1,8,18,3,,,,,,,,,,,,,,,,,,,,,,,AFNE15.jpg,AFNE11.jpg,AFSA05.jpg,AFSA06.jpg,AFSA05.jpg,FS,4,num_2,16,num_2,0.583496669889,,,2017_Oct_23_1837,59.9986721823,FEMA4ImagesEEG,001,201916,
AFNE01.JPG,AFNE01.JPG,AFNE01.JPG,AFNE01.JPG,AFNE01.JPG,AFNE01.JPG,1,9,19,0,,,,,,,,,,,,,,,,,,,,,,,AFNE07.jpg,AFNE12.jpg,AFSA14.jpg,AFSA03.jpg,AFNE07.jpg,FN,3,num_8,16,num_8,0.550121159293,,,2017_Oct_23_1837,59.9986721823,FEMA4ImagesEEG,001,201916,
AFNE01.JPG,AFNE01.JPG,AFNE01.JPG,AFNE01.JPG,AFNE01.JPG,AFNE01.JPG,2,0,20,4,,,,,,,,,,,,,,,,,,,,,,,AFNE11.jpg,AFNE15.jpg,AFSA02.jpg,AFSA01.jpg,AFSA01.jpg,FS,4,num_4,16,num_4,1.06675679446,,,2017_Oct_23_1837,59.9986721823,FEMA4ImagesEEG,001,201916,
AFNE01.JPG,AFNE01.JPG,AFNE01.JPG,AFNE01.JPG,AFNE01.JPG,AFNE01.JPG,2,1,21,7,,,,,,,,,,,,,,,,,,,,,,,AFNE18.jpg,AFSA16.jpg,AFNE08.jpg,AFSA20.jpg,AFSA20.jpg,FS,4,num_4,32,num_2,0.750120838638,,,2017_Oct_23_1837,59.9986721823,FEMA4ImagesEEG,001,201916,
AFNE01.JPG,AFNE01.JPG,AFNE01.JPG,AFNE01.JPG,AFNE01.JPG,AFNE01.JPG,2,2,22,3,,,,,,,,,,,,,,,,,,,,,,,AFNE02.jpg,AFSA13.jpg,AFNE20.jpg,AFSA12.jpg,AFSA12.jpg,FS,4,num_4,16,num_4,0.500219866983,,,2017_Oct_23_1837,59.9986721823,FEMA4ImagesEEG,001,201916,
AFNE01.JPG,AFNE01.JPG,AFNE01.JPG,AFNE01.JPG,AFNE01.JPG,AFNE01.JPG,2,3,23,6,,,,,,,,,,,,,,,,,,,,,,,AFSA02.jpg,AFSA16.jpg,AFNE09.jpg,AFNE17.jpg,AFNE09.jpg,FN,3,num_2,16,num_2,0.750094217248,,,2017_Oct_23_1837,59.9986721823,FEMA4ImagesEEG,001,201916,
AFNE01.JPG,AFNE01.JPG,AFNE01.JPG,AFNE01.JPG,AFNE01.JPG,AFNE01.JPG,2,4,24,1,,,,,,,,,,,,,,,,,,,,,,,AFNE11.jpg,AFSA03.jpg,AFSA14.jpg,AFNE17.jpg,AFNE17.jpg,FN,3,num_4,32,num_6,0.566797367996,,,2017_Oct_23_1837,59.9986721823,FEMA4ImagesEEG,001,201916,
AFNE01.JPG,AFNE01.JPG,AFNE01.JPG,AFNE01.JPG,AFNE01.JPG,AFNE01.JPG,2,5,25,2,,,,,,,,,,,,,,,,,,,,,,,AFSA16.jpg,AFNE02.jpg,AFSA06.jpg,AFNE09.jpg,AFSA16.jpg,FS,4,num_8,16,num_8,1.03344960138,,,2017_Oct_23_1837,59.9986721823,FEMA4ImagesEEG,001,201916,
AFNE01.JPG,AFNE01.JPG,AFNE01.JPG,AFNE01.JPG,AFNE01.JPG,AFNE01.JPG,2,6,26,8,,,,,,,,,,,,,,,,,,,,,,,AFNE03.jpg,AFNE05.jpg,AFSA06.jpg,AFSA04.jpg,AFSA04.jpg,FS,4,num_4,32,num_8,0.900176567025,,,2017_Oct_23_1837,59.9986721823,FEMA4ImagesEEG,001,201916,
AFNE01.JPG,AFNE01.JPG,AFNE01.JPG,AFNE01.JPG,AFNE01.JPG,AFNE01.JPG,2,7,27,5,,,,,,,,,,,,,,,,,,,,,,,AFSA07.jpg,AFSA09.jpg,AFNE15.jpg,AFNE14.jpg,AFSA09.jpg,FS,4,num_6,32,num_4,0.983396599186,,,2017_Oct_23_1837,59.9986721823,FEMA4ImagesEEG,001,201916,
AFNE01.JPG,AFNE01.JPG,AFNE01.JPG,AFNE01.JPG,AFNE01.JPG,AFNE01.JPG,2,8,28,9,,,,,,,,,,,,,,,,,,,,,,,AFNE05.jpg,AFSA09.jpg,AFSA14.jpg,AFNE15.jpg,AFNE05.jpg,FN,3,num_8,16,num_8,0.833476222702,,,2017_Oct_23_1837,59.9986721823,FEMA4ImagesEEG,001,201916,
AFNE01.JPG,AFNE01.JPG,AFNE01.JPG,AFNE01.JPG,AFNE01.JPG,AFNE01.JPG,2,9,29,0,,,,,,,,,,,,,,,,,,,,,,,AFNE11.jpg,AFNE05.jpg,AFSA14.jpg,AFSA12.jpg,AFNE11.jpg,FN,3,num_8,16,num_8,0.516854058718,,,2017_Oct_23_1837,59.9986721823,FEMA4ImagesEEG,001,201916,
AFNE01.JPG,AFNE01.JPG,AFNE01.JPG,AFNE01.JPG,AFNE01.JPG,AFNE01.JPG,3,0,30,0,,,,,,,,,,,,,,,,,,,,,,,AFSA16.jpg,AFNE10.jpg,AFNE01.jpg,AFSA04.jpg,AFSA16.jpg,FS,4,num_8,32,num_4,0.850131262559,,,2017_Oct_23_1837,59.9986721823,FEMA4ImagesEEG,001,201916,
AFNE01.JPG,AFNE01.JPG,AFNE01.JPG,AFNE01.JPG,AFNE01.JPG,AFNE01.JPG,3,1,31,8,,,,,,,,,,,,,,,,,,,,,,,AFSA02.jpg,AFSA15.jpg,AFNE16.jpg,AFNE18.jpg,AFSA15.jpg,FS,4,num_6,16,num_6,0.883455454954,,,2017_Oct_23_1837,59.9986721823,FEMA4ImagesEEG,001,201916,
AFNE01.JPG,AFNE01.JPG,AFNE01.JPG,AFNE01.JPG,AFNE01.JPG,AFNE01.JPG,3,2,32,6,,,,,,,,,,,,,,,,,,,,,,,AFNE01.jpg,AFSA12.jpg,AFSA06.jpg,AFNE02.jpg,AFNE02.jpg,FN,3,num_4,16,num_4,1.01677243051,,,2017_Oct_23_1837,59.9986721823,FEMA4ImagesEEG,001,201916,
AFNE01.JPG,AFNE01.JPG,AFNE01.JPG,AFNE01.JPG,AFNE01.JPG,AFNE01.JPG,3,3,33,2,,,,,,,,,,,,,,,,,,,,,,,AFNE11.jpg,AFNE10.jpg,AFSA05.jpg,AFSA20.jpg,AFNE11.jpg,FN,3,num_8,16,num_8,1.16646444041,,,2017_Oct_23_1837,59.9986721823,FEMA4ImagesEEG,001,201916,
AFNE01.JPG,AFNE01.JPG,AFNE01.JPG,AFNE01.JPG,AFNE01.JPG,AFNE01.JPG,3,4,34,5,,,,,,,,,,,,,,,,,,,,,,,AFSA16.jpg,AFNE08.jpg,AFSA10.jpg,AFNE04.jpg,AFSA16.jpg,FS,4,num_8,32,num_4,0.750134630362,,,2017_Oct_23_1837,59.9986721823,FEMA4ImagesEEG,001,201916,
AFNE01.JPG,AFNE01.JPG,AFNE01.JPG,AFNE01.JPG,AFNE01.JPG,AFNE01.JPG,3,5,35,9,,,,,,,,,,,,,,,,,,,,,,,AFSA20.jpg,AFNE17.jpg,AFSA02.jpg,AFNE02.jpg,AFNE02.jpg,FN,3,num_4,16,num_4,0.550156440702,,,2017_Oct_23_1837,59.9986721823,FEMA4ImagesEEG,001,201916,
AFNE01.JPG,AFNE01.JPG,AFNE01.JPG,AFNE01.JPG,AFNE01.JPG,AFNE01.JPG,3,6,36,4,,,,,,,,,,,,,,,,,,,,,,,AFSA04.jpg,AFNE06.jpg,AFNE02.jpg,AFSA01.jpg,AFSA04.jpg,FS,4,num_8,32,num_2,1.31658431678,,,2017_Oct_23_1837,59.9986721823,FEMA4ImagesEEG,001,201916,
AFNE01.JPG,AFNE01.JPG,AFNE01.JPG,AFNE01.JPG,AFNE01.JPG,AFNE01.JPG,3,7,37,3,,,,,,,,,,,,,,,,,,,,,,,AFSA14.jpg,AFNE08.jpg,AFSA13.jpg,AFNE07.jpg,AFSA14.jpg,FS,4,num_8,32,num_4,0.78346170939,,,2017_Oct_23_1837,59.9986721823,FEMA4ImagesEEG,001,201916,
AFNE01.JPG,AFNE01.JPG,AFNE01.JPG,AFNE01.JPG,AFNE01.JPG,AFNE01.JPG,3,8,38,1,,,,,,,,,,,,,,,,,,,,,,,AFNE16.jpg,AFSA15.jpg,AFSA11.jpg,AFNE19.jpg,AFNE19.jpg,FN,3,num_4,16,num_4,0.766748294816,,,2017_Oct_23_1837,59.9986721823,FEMA4ImagesEEG,001,201916,
AFNE01.JPG,AFNE01.JPG,AFNE01.JPG,AFNE01.JPG,AFNE01.JPG,AFNE01.JPG,3,9,39,7,,,,,,,,,,,,,,,,,,,,,,,AFNE16.jpg,AFNE02.jpg,AFSA08.jpg,AFSA19.jpg,AFNE16.jpg,FN,3,num_8,16,num_8,1.06674300274,,,2017_Oct_23_1837,59.9986721823,FEMA4ImagesEEG,001,201916,
AFNE01.JPG,AFNE01.JPG,AFNE01.JPG,AFNE01.JPG,AFNE01.JPG,AFNE01.JPG,4,0,40,3,,,,,,,,,,,,,,,,,,,,,,,AFNE18.jpg,AFNE08.jpg,AFSA01.jpg,AFSA04.jpg,AFNE08.jpg,FN,3,num_6,32,num_2,1.36661358422,,,2017_Oct_23_1837,59.9986721823,FEMA4ImagesEEG,001,201916,
AFNE01.JPG,AFNE01.JPG,AFNE01.JPG,AFNE01.JPG,AFNE01.JPG,AFNE01.JPG,4,1,41,9,,,,,,,,,,,,,,,,,,,,,,,AFSA06.jpg,AFNE04.jpg,AFSA01.jpg,AFNE05.jpg,AFSA06.jpg,FS,4,num_8,32,num_2,1.15009678318,,,2017_Oct_23_1837,59.9986721823,FEMA4ImagesEEG,001,201916,
AFNE01.JPG,AFNE01.JPG,AFNE01.JPG,AFNE01.JPG,AFNE01.JPG,AFNE01.JPG,4,2,42,4,,,,,,,,,,,,,,,,,,,,,,,AFSA07.jpg,AFNE12.jpg,AFNE14.jpg,AFSA03.jpg,AFSA03.jpg,FS,4,num_4,32,num_6,0.600220347987,,,2017_Oct_23_1837,59.9986721823,FEMA4ImagesEEG,001,201916,
AFNE01.JPG,AFNE01.JPG,AFNE01.JPG,AFNE01.JPG,AFNE01.JPG,AFNE01.JPG,4,3,43,0,,,,,,,,,,,,,,,,,,,,,,,AFSA19.jpg,AFSA13.jpg,AFNE02.jpg,AFNE10.jpg,AFNE10.jpg,FN,3,num_4,16,num_4,0.80019212293,,,2017_Oct_23_1837,59.9986721823,FEMA4ImagesEEG,001,201916,
AFNE01.JPG,AFNE01.JPG,AFNE01.JPG,AFNE01.JPG,AFNE01.JPG,AFNE01.JPG,4,4,44,8,,,,,,,,,,,,,,,,,,,,,,,AFSA01.jpg,AFNE14.jpg,AFNE08.jpg,AFSA12.jpg,AFNE08.jpg,FN,3,num_2,16,num_2,1.03346852504,,,2017_Oct_23_1837,59.9986721823,FEMA4ImagesEEG,001,201916,
AFNE01.JPG,AFNE01.JPG,AFNE01.JPG,AFNE01.JPG,AFNE01.JPG,AFNE01.JPG,4,5,45,2,,,,,,,,,,,,,,,,,,,,,,,AFSA13.jpg,AFNE08.jpg,AFNE12.jpg,AFSA06.jpg,AFSA06.jpg,FS,4,num_4,32,num_2,1.16673546529,,,2017_Oct_23_1837,59.9986721823,FEMA4ImagesEEG,001,201916,
AFNE01.JPG,AFNE01.JPG,AFNE01.JPG,AFNE01.JPG,AFNE01.JPG,AFNE01.JPG,4,6,46,5,,,,,,,,,,,,,,,,,,,,,,,AFSA08.jpg,AFNE13.jpg,AFSA20.jpg,AFNE05.jpg,AFSA08.jpg,FS,4,num_8,32,num_2,0.78353868681,,,2017_Oct_23_1837,59.9986721823,FEMA4ImagesEEG,001,201916,
AFNE01.JPG,AFNE01.JPG,AFNE01.JPG,AFNE01.JPG,AFNE01.JPG,AFNE01.JPG,4,7,47,7,,,,,,,,,,,,,,,,,,,,,,,AFNE06.jpg,AFNE01.jpg,AFSA05.jpg,AFSA19.jpg,AFNE06.jpg,FN,3,num_8,16,num_8,0.866725682747,,,2017_Oct_23_1837,59.9986721823,FEMA4ImagesEEG,001,201916,
AFNE01.JPG,AFNE01.JPG,AFNE01.JPG,AFNE01.JPG,AFNE01.JPG,AFNE01.JPG,4,8,48,6,,,,,,,,,,,,,,,,,,,,,,,AFSA06.jpg,AFNE14.jpg,AFNE20.jpg,AFSA07.jpg,AFSA07.jpg,FS,4,num_4,16,num_4,0.933427951415,,,2017_Oct_23_1837,59.9986721823,FEMA4ImagesEEG,001,201916,
AFNE01.JPG,AFNE01.JPG,AFNE01.JPG,AFNE01.JPG,AFNE01.JPG,AFNE01.JPG,4,9,49,1,,,,,,,,,,,,,,,,,,,,,,,AFNE02.jpg,AFNE01.jpg,AFSA08.jpg,AFSA09.jpg,AFNE02.jpg,FN,3,num_8,32,num_6,0.650127734407,,,2017_Oct_23_1837,59.9986721823,FEMA4ImagesEEG,001,201916,
AFNE01.JPG,AFNE01.JPG,AFNE01.JPG,AFNE01.JPG,AFNE01.JPG,AFNE01.JPG,5,0,50,7,,,,,,,,,,,,,,,,,,,,,,,AFNE18.jpg,AFSA05.jpg,AFNE13.jpg,AFSA01.jpg,AFSA01.jpg,FS,4,num_4,32,num_6,0.816752865445,,,2017_Oct_23_1837,59.9986721823,FEMA4ImagesEEG,001,201916,
AFNE01.JPG,AFNE01.JPG,AFNE01.JPG,AFNE01.JPG,AFNE01.JPG,AFNE01.JPG,5,1,51,2,,,,,,,,,,,,,,,,,,,,,,,AFSA10.jpg,AFSA19.jpg,AFNE20.jpg,AFNE09.jpg,AFSA10.jpg,FS,4,num_8,16,num_8,0.716752063483,,,2017_Oct_23_1837,59.9986721823,FEMA4ImagesEEG,001,201916,
AFNE01.JPG,AFNE01.JPG,AFNE01.JPG,AFNE01.JPG,AFNE01.JPG,AFNE01.JPG,5,2,52,8,,,,,,,,,,,,,,,,,,,,,,,AFNE16.jpg,AFSA04.jpg,AFSA05.jpg,AFNE18.jpg,AFNE18.jpg,FN,3,num_4,32,num_8,0.950098066125,,,2017_Oct_23_1837,59.9986721823,FEMA4ImagesEEG,001,201916,
AFNE01.JPG,AFNE01.JPG,AFNE01.JPG,AFNE01.JPG,AFNE01.JPG,AFNE01.JPG,5,3,53,4,,,,,,,,,,,,,,,,,,,,,,,AFNE16.jpg,AFSA03.jpg,AFNE04.jpg,AFSA09.jpg,AFSA03.jpg,FS,4,num_6,16,num_6,0.6167724306,,,2017_Oct_23_1837,59.9986721823,FEMA4ImagesEEG,001,201916,
AFNE01.JPG,AFNE01.JPG,AFNE01.JPG,AFNE01.JPG,AFNE01.JPG,AFNE01.JPG,5,4,54,0,,,,,,,,,,,,,,,,,,,,,,,AFNE09.jpg,AFSA18.jpg,AFNE07.jpg,AFSA12.jpg,AFSA18.jpg,FS,4,num_6,16,num_6,0.966736427508,,,2017_Oct_23_1837,59.9986721823,FEMA4ImagesEEG,001,201916,
AFNE01.JPG,AFNE01.JPG,AFNE01.JPG,AFNE01.JPG,AFNE01.JPG,AFNE01.JPG,5,5,55,6,,,,,,,,,,,,,,,,,,,,,,,AFNE03.jpg,AFNE12.jpg,AFSA15.jpg,AFSA20.jpg,AFNE03.jpg,FN,3,num_8,32,num_4,0.650141847087,,,2017_Oct_23_1837,59.9986721823,FEMA4ImagesEEG,001,201916,
AFNE01.JPG,AFNE01.JPG,AFNE01.JPG,AFNE01.JPG,AFNE01.JPG,AFNE01.JPG,5,6,56,3,,,,,,,,,,,,,,,,,,,,,,,AFSA02.jpg,AFNE11.jpg,AFSA14.jpg,AFNE13.jpg,AFNE11.jpg,FN,3,num_6,32,num_8,0.899957822752,,,2017_Oct_23_1837,59.9986721823,FEMA4ImagesEEG,001,201916,
AFNE01.JPG,AFNE01.JPG,AFNE01.JPG,AFNE01.JPG,AFNE01.JPG,AFNE01.JPG,5,7,57,1,,,,,,,,,,,,,,,,,,,,,,,AFNE17.jpg,AFNE07.jpg,AFSA14.jpg,AFSA13.jpg,AFNE17.jpg,FN,3,num_8,32,num_2,1.16673257865,,,2017_Oct_23_1837,59.9986721823,FEMA4ImagesEEG,001,201916,
AFNE01.JPG,AFNE01.JPG,AFNE01.JPG,AFNE01.JPG,AFNE01.JPG,AFNE01.JPG,5,8,58,9,,,,,,,,,,,,,,,,,,,,,,,AFNE13.jpg,AFNE15.jpg,AFSA12.jpg,AFSA04.jpg,AFSA04.jpg,FS,4,num_4,32,num_6,0.583459784859,,,2017_Oct_23_1837,59.9986721823,FEMA4ImagesEEG,001,201916,
AFNE01.JPG,AFNE01.JPG,AFNE01.JPG,AFNE01.JPG,AFNE01.JPG,AFNE01.JPG,5,9,59,5,,,,,,,,,,,,,,,,,,,,,,,AFSA12.jpg,AFNE19.jpg,AFNE13.jpg,AFSA11.jpg,AFSA12.jpg,FS,4,num_8,32,num_6,0.817069114535,,,2017_Oct_23_1837,59.9986721823,FEMA4ImagesEEG,001,201916,
,,,,,,,,,,,,,,,,,,,,,,,,,,,,,,,,,,,,,,,,,,,space,37.2469562624,2017_Oct_23_1837,59.9986721823,FEMA4ImagesEEG,001,201916,
AFNE01.JPG,AFNE01.JPG,AFNE01.JPG,AFNE01.JPG,AFNE01.JPG,AFNE01.JPG,,,,,0,0,0,6,,,,,,,,,,,,,,,,,,,AMSA20.jpg,AMNE02.jpg,AMNE19.jpg,AMSA04.jpg,AMSA04.jpg,MS,2,num_4,32,num_6,0.650185146835,,,2017_Oct_23_1837,59.9986721823,FEMA4ImagesEEG,001,201916,
AFNE01.JPG,AFNE01.JPG,AFNE01.JPG,AFNE01.JPG,AFNE01.JPG,AFNE01.JPG,,,,,0,1,1,5,,,,,,,,,,,,,,,,,,,AMSA07.jpg,AMNE06.jpg,AMNE02.jpg,AMSA02.jpg,AMNE02.jpg,MN,1,num_2,16,num_2,0.716816532193,,,2017_Oct_23_1837,59.9986721823,FEMA4ImagesEEG,001,201916,
AFNE01.JPG,AFNE01.JPG,AFNE01.JPG,AFNE01.JPG,AFNE01.JPG,AFNE01.JPG,,,,,0,2,2,3,,,,,,,,,,,,,,,,,,,AMNE13.jpg,AMSA02.jpg,AMSA15.jpg,AMNE05.jpg,AMSA15.jpg,MS,2,num_2,16,num_2,1.01703511609,,,2017_Oct_23_1837,59.9986721823,FEMA4ImagesEEG,001,201916,
AFNE01.JPG,AFNE01.JPG,AFNE01.JPG,AFNE01.JPG,AFNE01.JPG,AFNE01.JPG,,,,,0,3,3,7,,,,,,,,,,,,,,,,,,,AMSA10.jpg,AMNE20.jpg,AMNE17.jpg,AMSA17.jpg,AMSA10.jpg,MS,2,num_8,32,num_6,0.800145615707,,,2017_Oct_23_1837,59.9986721823,FEMA4ImagesEEG,001,201916,
AFNE01.JPG,AFNE01.JPG,AFNE01.JPG,AFNE01.JPG,AFNE01.JPG,AFNE01.JPG,,,,,0,4,4,2,,,,,,,,,,,,,,,,,,,AMNE02.jpg,AMSA12.jpg,AMNE07.jpg,AMSA02.jpg,AMSA02.jpg,MS,2,num_4,32,num_8,0.500145134632,,,2017_Oct_23_1837,59.9986721823,FEMA4ImagesEEG,001,201916,
AFNE01.JPG,AFNE01.JPG,AFNE01.JPG,AFNE01.JPG,AFNE01.JPG,AFNE01.JPG,,,,,0,5,5,1,,,,,,,,,,,,,,,,,,,AMSA04.jpg,AMNE09.jpg,AMSA01.jpg,AMNE11.jpg,AMNE09.jpg,MN,1,num_6,32,num_8,1.30009317491,,,2017_Oct_23_1837,59.9986721823,FEMA4ImagesEEG,001,201916,
AFNE01.JPG,AFNE01.JPG,AFNE01.JPG,AFNE01.JPG,AFNE01.JPG,AFNE01.JPG,,,,,0,6,6,0,,,,,,,,,,,,,,,,,,,AMSA19.jpg,AMSA20.jpg,AMNE16.jpg,AMNE01.jpg,AMNE16.jpg,MN,1,num_2,16,num_2,0.766777802957,,,2017_Oct_23_1837,59.9986721823,FEMA4ImagesEEG,001,201916,
AFNE01.JPG,AFNE01.JPG,AFNE01.JPG,AFNE01.JPG,AFNE01.JPG,AFNE01.JPG,,,,,0,7,7,4,,,,,,,,,,,,,,,,,,,AMSA02.jpg,AMSA16.jpg,AMNE01.jpg,AMNE11.jpg,AMSA16.jpg,MS,2,num_6,16,num_6,0.783439257531,,,2017_Oct_23_1837,59.9986721823,FEMA4ImagesEEG,001,201916,
AFNE01.JPG,AFNE01.JPG,AFNE01.JPG,AFNE01.JPG,AFNE01.JPG,AFNE01.JPG,,,,,0,8,8,9,,,,,,,,,,,,,,,,,,,AMSA11.jpg,AMSA17.jpg,AMNE03.jpg,AMNE04.jpg,AMSA17.jpg,MS,2,num_6,16,num_6,0.633865600568,,,2017_Oct_23_1837,59.9986721823,FEMA4ImagesEEG,001,201916,
AFNE01.JPG,AFNE01.JPG,AFNE01.JPG,AFNE01.JPG,AFNE01.JPG,AFNE01.JPG,,,,,0,9,9,8,,,,,,,,,,,,,,,,,,,AMNE05.jpg,AMSA09.jpg,AMNE08.jpg,AMSA13.jpg,AMNE08.jpg,MN,1,num_2,32,num_8,1.01691066928,,,2017_Oct_23_1837,59.9986721823,FEMA4ImagesEEG,001,201916,
AFNE01.JPG,AFNE01.JPG,AFNE01.JPG,AFNE01.JPG,AFNE01.JPG,AFNE01.JPG,,,,,1,0,10,2,,,,,,,,,,,,,,,,,,,AMSA18.jpg,AMSA08.jpg,AMNE08.jpg,AMNE04.jpg,AMSA18.jpg,MS,2,num_8,32,num_6,0.999834819115,,,2017_Oct_23_1837,59.9986721823,FEMA4ImagesEEG,001,201916,
AFNE01.JPG,AFNE01.JPG,AFNE01.JPG,AFNE01.JPG,AFNE01.JPG,AFNE01.JPG,,,,,1,1,11,6,,,,,,,,,,,,,,,,,,,AMSA07.jpg,AMNE02.jpg,AMNE01.jpg,AMSA06.jpg,AMSA06.jpg,MS,2,num_4,16,num_4,0.766646299628,,,2017_Oct_23_1837,59.9986721823,FEMA4ImagesEEG,001,201916,
AFNE01.JPG,AFNE01.JPG,AFNE01.JPG,AFNE01.JPG,AFNE01.JPG,AFNE01.JPG,,,,,1,2,12,0,,,,,,,,,,,,,,,,,,,AMNE02.jpg,AMSA01.jpg,AMSA05.jpg,AMNE08.jpg,AMNE02.jpg,MN,1,num_8,32,num_6,0.650132224895,,,2017_Oct_23_1837,59.9986721823,FEMA4ImagesEEG,001,201916,
AFNE01.JPG,AFNE01.JPG,AFNE01.JPG,AFNE01.JPG,AFNE01.JPG,AFNE01.JPG,,,,,1,3,13,9,,,,,,,,,,,,,,,,,,,AMNE03.jpg,AMSA08.jpg,AMSA12.jpg,AMNE08.jpg,AMNE08.jpg,MN,1,num_4,32,num_8,0.850061341422,,,2017_Oct_23_1837,59.9986721823,FEMA4ImagesEEG,001,201916,
AFNE01.JPG,AFNE01.JPG,AFNE01.JPG,AFNE01.JPG,AFNE01.JPG,AFNE01.JPG,,,,,1,4,14,3,,,,,,,,,,,,,,,,,,,AMNE14.jpg,AMNE15.jpg,AMSA02.jpg,AMSA15.jpg,AMSA15.jpg,MS,2,num_4,32,num_6,1.1834482383,,,2017_Oct_23_1837,59.9986721823,FEMA4ImagesEEG,001,201916,
AFNE01.JPG,AFNE01.JPG,AFNE01.JPG,AFNE01.JPG,AFNE01.JPG,AFNE01.JPG,,,,,1,5,15,8,,,,,,,,,,,,,,,,,,,AMSA18.jpg,AMSA04.jpg,AMNE10.jpg,AMNE08.jpg,AMNE10.jpg,MN,1,num_2,16,num_2,0.750156761496,,,2017_Oct_23_1837,59.9986721823,FEMA4ImagesEEG,001,201916,
AFNE01.JPG,AFNE01.JPG,AFNE01.JPG,AFNE01.JPG,AFNE01.JPG,AFNE01.JPG,,,,,1,6,16,7,,,,,,,,,,,,,,,,,,,AMNE15.jpg,AMSA01.jpg,AMNE09.jpg,AMSA11.jpg,AMNE15.jpg,MN,1,num_8,16,num_8,0.566806348739,,,2017_Oct_23_1837,59.9986721823,FEMA4ImagesEEG,001,201916,
AFNE01.JPG,AFNE01.JPG,AFNE01.JPG,AFNE01.JPG,AFNE01.JPG,AFNE01.JPG,,,,,1,7,17,1,,,,,,,,,,,,,,,,,,,AMSA03.jpg,AMSA08.jpg,AMNE02.jpg,AMNE19.jpg,AMSA03.jpg,MS,2,num_8,32,num_6,0.850096622831,,,2017_Oct_23_1837,59.9986721823,FEMA4ImagesEEG,001,201916,
AFNE01.JPG,AFNE01.JPG,AFNE01.JPG,AFNE01.JPG,AFNE01.JPG,AFNE01.JPG,,,,,1,8,18,5,,,,,,,,,,,,,,,,,,,AMNE15.jpg,AMSA18.jpg,AMNE19.jpg,AMSA05.jpg,AMSA05.jpg,MS,2,num_4,32,num_6,0.700145776151,,,2017_Oct_23_1837,59.9986721823,FEMA4ImagesEEG,001,201916,
AFNE01.JPG,AFNE01.JPG,AFNE01.JPG,AFNE01.JPG,AFNE01.JPG,AFNE01.JPG,,,,,1,9,19,4,,,,,,,,,,,,,,,,,,,AMSA20.jpg,AMNE16.jpg,AMSA05.jpg,AMNE05.jpg,AMSA20.jpg,MS,2,num_8,16,num_8,1.01672592328,,,2017_Oct_23_1837,59.9986721823,FEMA4ImagesEEG,001,201916,
AFNE01.JPG,AFNE01.JPG,AFNE01.JPG,AFNE01.JPG,AFNE01.JPG,AFNE01.JPG,,,,,2,0,20,1,,,,,,,,,,,,,,,,,,,AMSA11.jpg,AMNE09.jpg,AMNE13.jpg,AMSA12.jpg,AMSA12.jpg,MS,2,num_4,32,num_6,1.06683569634,,,2017_Oct_23_1837,59.9986721823,FEMA4ImagesEEG,001,201916,
AFNE01.JPG,AFNE01.JPG,AFNE01.JPG,AFNE01.JPG,AFNE01.JPG,AFNE01.JPG,,,,,2,1,21,0,,,,,,,,,,,,,,,,,,,AMNE05.jpg,AMSA16.jpg,AMSA20.jpg,AMNE13.jpg,AMNE13.jpg,MN,1,num_4,16,num_4,0.800161011284,,,2017_Oct_23_1837,59.9986721823,FEMA4ImagesEEG,001,201916,
AFNE01.JPG,AFNE01.JPG,AFNE01.JPG,AFNE01.JPG,AFNE01.JPG,AFNE01.JPG,,,,,2,2,22,9,,,,,,,,,,,,,,,,,,,AMSA04.jpg,AMNE19.jpg,AMSA14.jpg,AMNE17.jpg,AMSA14.jpg,MS,2,num_2,16,num_2,0.566820140462,,,2017_Oct_23_1837,59.9986721823,FEMA4ImagesEEG,001,201916,
AFNE01.JPG,AFNE01.JPG,AFNE01.JPG,AFNE01.JPG,AFNE01.JPG,AFNE01.JPG,,,,,2,3,23,7,,,,,,,,,,,,,,,,,,,AMSA08.jpg,AMNE14.jpg,AMNE07.jpg,AMSA02.jpg,AMNE14.jpg,MN,1,num_6,16,num_6,0.666778604733,,,2017_Oct_23_1837,59.9986721823,FEMA4ImagesEEG,001,201916,
AFNE01.JPG,AFNE01.JPG,AFNE01.JPG,AFNE01.JPG,AFNE01.JPG,AFNE01.JPG,,,,,2,4,24,2,,,,,,,,,,,,,,,,,,,AMNE04.jpg,AMNE17.jpg,AMSA17.jpg,AMSA03.jpg,AMNE04.jpg,MN,1,num_8,32,num_4,0.733478949056,,,2017_Oct_23_1837,59.9986721823,FEMA4ImagesEEG,001,201916,
AFNE01.JPG,AFNE01.JPG,AFNE01.JPG,AFNE01.JPG,AFNE01.JPG,AFNE01.JPG,,,,,2,5,25,6,,,,,,,,,,,,,,,,,,,AMSA19.jpg,AMSA18.jpg,AMNE20.jpg,AMNE05.jpg,AMSA19.jpg,MS,2,num_8,16,num_8,1.51675559173,,,2017_Oct_23_1837,59.9986721823,FEMA4ImagesEEG,001,201916,
AFNE01.JPG,AFNE01.JPG,AFNE01.JPG,AFNE01.JPG,AFNE01.JPG,AFNE01.JPG,,,,,2,6,26,8,,,,,,,,,,,,,,,,,,,AMSA01.jpg,AMNE15.jpg,AMNE07.jpg,AMSA17.jpg,AMNE15.jpg,MN,1,num_6,16,num_6,0.533466440276,,,2017_Oct_23_1837,59.9986721823,FEMA4ImagesEEG,001,201916,
AFNE01.JPG,AFNE01.JPG,AFNE01.JPG,AFNE01.JPG,AFNE01.JPG,AFNE01.JPG,,,,,2,7,27,5,,,,,,,,,,,,,,,,,,,AMSA09.jpg,AMSA14.jpg,AMNE03.jpg,AMNE05.jpg,AMSA09.jpg,MS,2,num_8,16,num_8,0.51679760858,,,2017_Oct_23_1837,59.9986721823,FEMA4ImagesEEG,001,201916,
AFNE01.JPG,AFNE01.JPG,AFNE01.JPG,AFNE01.JPG,AFNE01.JPG,AFNE01.JPG,,,,,2,8,28,3,,,,,,,,,,,,,,,,,,,AMSA03.jpg,AMNE10.jpg,AMNE15.jpg,AMSA13.jpg,AMNE10.jpg,MN,1,num_6,32,num_2,0.600139842485,,,2017_Oct_23_1837,59.9986721823,FEMA4ImagesEEG,001,201916,
AFNE01.JPG,AFNE01.JPG,AFNE01.JPG,AFNE01.JPG,AFNE01.JPG,AFNE01.JPG,,,,,2,9,29,4,,,,,,,,,,,,,,,,,,,AMNE16.jpg,AMSA14.jpg,AMSA08.jpg,AMNE20.jpg,AMNE20.jpg,MN,1,num_4,16,num_4,0.883528904291,,,2017_Oct_23_1837,59.9986721823,FEMA4ImagesEEG,001,201916,
AFNE01.JPG,AFNE01.JPG,AFNE01.JPG,AFNE01.JPG,AFNE01.JPG,AFNE01.JPG,,,,,3,0,30,5,,,,,,,,,,,,,,,,,,,AMNE01.jpg,AMSA15.jpg,AMNE16.jpg,AMSA10.jpg,AMNE01.jpg,MN,1,num_8,16,num_8,0.483495868044,,,2017_Oct_23_1837,59.9986721823,FEMA4ImagesEEG,001,201916,
AFNE01.JPG,AFNE01.JPG,AFNE01.JPG,AFNE01.JPG,AFNE01.JPG,AFNE01.JPG,,,,,3,1,31,2,,,,,,,,,,,,,,,,,,,AMNE08.jpg,AMSA13.jpg,AMNE13.jpg,AMSA04.jpg,AMNE13.jpg,MN,1,num_2,32,num_6,1.10016085091,,,2017_Oct_23_1837,59.9986721823,FEMA4ImagesEEG,001,201916,
AFNE01.JPG,AFNE01.JPG,AFNE01.JPG,AFNE01.JPG,AFNE01.JPG,AFNE01.JPG,,,,,3,2,32,1,,,,,,,,,,,,,,,,,,,AMSA08.jpg,AMNE05.jpg,AMSA05.jpg,AMNE08.jpg,AMNE05.jpg,MN,1,num_6,16,num_6,1.58343540865,,,2017_Oct_23_1837,59.9986721823,FEMA4ImagesEEG,001,201916,
AFNE01.JPG,AFNE01.JPG,AFNE01.JPG,AFNE01.JPG,AFNE01.JPG,AFNE01.JPG,,,,,3,3,33,9,,,,,,,,,,,,,,,,,,,AMNE03.jpg,AMSA15.jpg,AMSA13.jpg,AMNE08.jpg,AMNE03.jpg,MN,1,num_8,32,num_4,0.966593377641,,,2017_Oct_23_1837,59.9986721823,FEMA4ImagesEEG,001,201916,
AFNE01.JPG,AFNE01.JPG,AFNE01.JPG,AFNE01.JPG,AFNE01.JPG,AFNE01.JPG,,,,,3,4,34,3,,,,,,,,,,,,,,,,,,,AMNE10.jpg,AMSA17.jpg,AMSA16.jpg,AMNE02.jpg,AMNE10.jpg,MN,1,num_8,16,num_8,0.783575571841,,,2017_Oct_23_1837,59.9986721823,FEMA4ImagesEEG,001,201916,
AFNE01.JPG,AFNE01.JPG,AFNE01.JPG,AFNE01.JPG,AFNE01.JPG,AFNE01.JPG,,,,,3,5,35,7,,,,,,,,,,,,,,,,,,,AMNE03.jpg,AMSA08.jpg,AMNE12.jpg,AMSA05.jpg,AMNE12.jpg,MN,1,num_2,32,num_6,1.03344831849,,,2017_Oct_23_1837,59.9986721823,FEMA4ImagesEEG,001,201916,
AFNE01.JPG,AFNE01.JPG,AFNE01.JPG,AFNE01.JPG,AFNE01.JPG,AFNE01.JPG,,,,,3,6,36,0,,,,,,,,,,,,,,,,,,,AMNE15.jpg,AMSA17.jpg,AMNE19.jpg,AMSA14.jpg,AMNE15.jpg,MN,1,num_8,32,num_2,1.10034206859,,,2017_Oct_23_1837,59.9986721823,FEMA4ImagesEEG,001,201916,
AFNE01.JPG,AFNE01.JPG,AFNE01.JPG,AFNE01.JPG,AFNE01.JPG,AFNE01.JPG,,,,,3,7,37,4,,,,,,,,,,,,,,,,,,,AMNE04.jpg,AMSA17.jpg,AMNE09.jpg,AMSA01.jpg,AMSA17.jpg,MS,2,num_6,32,num_8,0.883459624485,,,2017_Oct_23_1837,59.9986721823,FEMA4ImagesEEG,001,201916,
AFNE01.JPG,AFNE01.JPG,AFNE01.JPG,AFNE01.JPG,AFNE01.JPG,AFNE01.JPG,,,,,3,8,38,8,,,,,,,,,,,,,,,,,,,AMNE04.jpg,AMSA06.jpg,AMSA19.jpg,AMNE16.jpg,AMSA19.jpg,MS,2,num_2,32,num_4,1.15006310551,,,2017_Oct_23_1837,59.9986721823,FEMA4ImagesEEG,001,201916,
AFNE01.JPG,AFNE01.JPG,AFNE01.JPG,AFNE01.JPG,AFNE01.JPG,AFNE01.JPG,,,,,3,9,39,6,,,,,,,,,,,,,,,,,,,AMNE15.jpg,AMSA09.jpg,AMNE17.jpg,AMSA10.jpg,AMNE17.jpg,MN,1,num_2,16,num_2,0.700152190868,,,2017_Oct_23_1837,59.9986721823,FEMA4ImagesEEG,001,201916,
AFNE01.JPG,AFNE01.JPG,AFNE01.JPG,AFNE01.JPG,AFNE01.JPG,AFNE01.JPG,,,,,4,0,40,9,,,,,,,,,,,,,,,,,,,AMNE19.jpg,AMNE11.jpg,AMSA01.jpg,AMSA09.jpg,AMNE19.jpg,MN,1,num_8,16,num_8,0.633479430107,,,2017_Oct_23_1837,59.9986721823,FEMA4ImagesEEG,001,201916,
AFNE01.JPG,AFNE01.JPG,AFNE01.JPG,AFNE01.JPG,AFNE01.JPG,AFNE01.JPG,,,,,4,1,41,7,,,,,,,,,,,,,,,,,,,AMSA19.jpg,AMSA06.jpg,AMNE07.jpg,AMNE08.jpg,AMSA19.jpg,MS,2,num_8,16,num_8,0.483496509609,,,2017_Oct_23_1837,59.9986721823,FEMA4ImagesEEG,001,201916,
AFNE01.JPG,AFNE01.JPG,AFNE01.JPG,AFNE01.JPG,AFNE01.JPG,AFNE01.JPG,,,,,4,2,42,0,,,,,,,,,,,,,,,,,,,AMSA07.jpg,AMNE15.jpg,AMSA09.jpg,AMNE17.jpg,AMSA07.jpg,MS,2,num_8,32,num_4,1.3000726474,,,2017_Oct_23_1837,59.9986721823,FEMA4ImagesEEG,001,201916,
AFNE01.JPG,AFNE01.JPG,AFNE01.JPG,AFNE01.JPG,AFNE01.JPG,AFNE01.JPG,,,,,4,3,43,1,,,,,,,,,,,,,,,,,,,AMSA17.jpg,AMSA10.jpg,AMNE18.jpg,AMNE17.jpg,AMNE18.jpg,MN,1,num_2,32,num_8,0.866765775136,,,2017_Oct_23_1837,59.9986721823,FEMA4ImagesEEG,001,201916,
AFNE01.JPG,AFNE01.JPG,AFNE01.JPG,AFNE01.JPG,AFNE01.JPG,AFNE01.JPG,,,,,4,4,44,4,,,,,,,,,,,,,,,,,,,AMSA05.jpg,AMSA17.jpg,AMNE03.jpg,AMNE09.jpg,AMNE09.jpg,MN,1,num_4,16,num_4,0.916749818367,,,2017_Oct_23_1837,59.9986721823,FEMA4ImagesEEG,001,201916,
AFNE01.JPG,AFNE01.JPG,AFNE01.JPG,AFNE01.JPG,AFNE01.JPG,AFNE01.JPG,,,,,4,5,45,6,,,,,,,,,,,,,,,,,,,AMNE04.jpg,AMNE06.jpg,AMSA01.jpg,AMSA15.jpg,AMNE04.jpg,MN,1,num_8,32,num_2,0.766820461256,,,2017_Oct_23_1837,59.9986721823,FEMA4ImagesEEG,001,201916,
AFNE01.JPG,AFNE01.JPG,AFNE01.JPG,AFNE01.JPG,AFNE01.JPG,AFNE01.JPG,,,,,4,6,46,2,,,,,,,,,,,,,,,,,,,AMNE04.jpg,AMNE07.jpg,AMSA01.jpg,AMSA04.jpg,AMSA01.jpg,MS,2,num_2,16,num_2,0.5168027404,,,2017_Oct_23_1837,59.9986721823,FEMA4ImagesEEG,001,201916,
AFNE01.JPG,AFNE01.JPG,AFNE01.JPG,AFNE01.JPG,AFNE01.JPG,AFNE01.JPG,,,,,4,7,47,5,,,,,,,,,,,,,,,,,,,AMNE05.jpg,AMSA10.jpg,AMNE07.jpg,AMSA06.jpg,AMSA06.jpg,MS,2,num_4,16,num_4,0.750508291996,,,2017_Oct_23_1837,59.9986721823,FEMA4ImagesEEG,001,201916,
AFNE01.JPG,AFNE01.JPG,AFNE01.JPG,AFNE01.JPG,AFNE01.JPG,AFNE01.JPG,,,,,4,8,48,8,,,,,,,,,,,,,,,,,,,AMNE07.jpg,AMSA14.jpg,AMNE14.jpg,AMSA03.jpg,AMNE14.jpg,MN,1,num_2,16,num_2,0.666733701248,,,2017_Oct_23_1837,59.9986721823,FEMA4ImagesEEG,001,201916,
AFNE01.JPG,AFNE01.JPG,AFNE01.JPG,AFNE01.JPG,AFNE01.JPG,AFNE01.JPG,,,,,4,9,49,3,,,,,,,,,,,,,,,,,,,AMSA19.jpg,AMNE11.jpg,AMSA16.jpg,AMNE13.jpg,AMNE13.jpg,MN,1,num_4,16,num_4,0.533394915285,,,2017_Oct_23_1837,59.9986721823,FEMA4ImagesEEG,001,201916,
AFNE01.JPG,AFNE01.JPG,AFNE01.JPG,AFNE01.JPG,AFNE01.JPG,AFNE01.JPG,,,,,5,0,50,6,,,,,,,,,,,,,,,,,,,AMNE03.jpg,AMNE02.jpg,AMSA04.jpg,AMSA08.jpg,AMSA08.jpg,MS,2,num_4,32,num_2,1.1667197491,,,2017_Oct_23_1837,59.9986721823,FEMA4ImagesEEG,001,201916,
AFNE01.JPG,AFNE01.JPG,AFNE01.JPG,AFNE01.JPG,AFNE01.JPG,AFNE01.JPG,,,,,5,1,51,2,,,,,,,,,,,,,,,,,,,AMNE17.jpg,AMSA06.jpg,AMNE01.jpg,AMSA16.jpg,AMNE17.jpg,MN,1,num_8,32,num_4,0.866805867641,,,2017_Oct_23_1837,59.9986721823,FEMA4ImagesEEG,001,201916,
AFNE01.JPG,AFNE01.JPG,AFNE01.JPG,AFNE01.JPG,AFNE01.JPG,AFNE01.JPG,,,,,5,2,52,9,,,,,,,,,,,,,,,,,,,AMNE18.jpg,AMSA18.jpg,AMNE19.jpg,AMSA08.jpg,AMNE19.jpg,MN,1,num_2,32,num_8,1.25008379319,,,2017_Oct_23_1837,59.9986721823,FEMA4ImagesEEG,001,201916,
AFNE01.JPG,AFNE01.JPG,AFNE01.JPG,AFNE01.JPG,AFNE01.JPG,AFNE01.JPG,,,,,5,3,53,7,,,,,,,,,,,,,,,,,,,AMSA04.jpg,AMSA10.jpg,AMNE16.jpg,AMNE10.jpg,AMSA10.jpg,MS,2,num_6,32,num_8,0.916851492831,,,2017_Oct_23_1837,59.9986721823,FEMA4ImagesEEG,001,201916,
AFNE01.JPG,AFNE01.JPG,AFNE01.JPG,AFNE01.JPG,AFNE01.JPG,AFNE01.JPG,,,,,5,4,54,3,,,,,,,,,,,,,,,,,,,AMSA03.jpg,AMSA06.jpg,AMNE19.jpg,AMNE07.jpg,AMNE19.jpg,MN,1,num_2,32,num_6,0.966614546487,,,2017_Oct_23_1837,59.9986721823,FEMA4ImagesEEG,001,201916,
AFNE01.JPG,AFNE01.JPG,AFNE01.JPG,AFNE01.JPG,AFNE01.JPG,AFNE01.JPG,,,,,5,5,55,5,,,,,,,,,,,,,,,,,,,AMSA20.jpg,AMSA11.jpg,AMNE11.jpg,AMNE01.jpg,AMNE11.jpg,MN,1,num_2,32,num_4,1.48330566951,,,2017_Oct_23_1837,59.9986721823,FEMA4ImagesEEG,001,201916,
AFNE01.JPG,AFNE01.JPG,AFNE01.JPG,AFNE01.JPG,AFNE01.JPG,AFNE01.JPG,,,,,5,6,56,1,,,,,,,,,,,,,,,,,,,AMSA10.jpg,AMNE05.jpg,AMSA01.jpg,AMNE19.jpg,AMSA10.jpg,MS,2,num_8,32,num_4,0.816782694194,,,2017_Oct_23_1837,59.9986721823,FEMA4ImagesEEG,001,201916,
AFNE01.JPG,AFNE01.JPG,AFNE01.JPG,AFNE01.JPG,AFNE01.JPG,AFNE01.JPG,,,,,5,7,57,8,,,,,,,,,,,,,,,,,,,AMSA08.jpg,AMNE11.jpg,AMNE04.jpg,AMSA16.jpg,AMSA08.jpg,MS,2,num_8,32,num_2,1.05016269512,,,2017_Oct_23_1837,59.9986721823,FEMA4ImagesEEG,001,201916,
AFNE01.JPG,AFNE01.JPG,AFNE01.JPG,AFNE01.JPG,AFNE01.JPG,AFNE01.JPG,,,,,5,8,58,4,,,,,,,,,,,,,,,,,,,AMNE13.jpg,AMSA20.jpg,AMSA15.jpg,AMNE16.jpg,AMSA15.jpg,MS,2,num_2,32,num_8,1.01714320539,,,2017_Oct_23_1837,59.9986721823,FEMA4ImagesEEG,001,201916,
AFNE01.JPG,AFNE01.JPG,AFNE01.JPG,AFNE01.JPG,AFNE01.JPG,AFNE01.JPG,,,,,5,9,59,0,,,,,,,,,,,,,,,,,,,AMSA06.jpg,AMSA05.jpg,AMNE01.jpg,AMNE07.jpg,AMSA05.jpg,MS,2,num_6,16,num_6,1.06675583217,,,2017_Oct_23_1837,59.9986721823,FEMA4ImagesEEG,001,201916,
,,,,,,,,,,,,,,,,,,,,,,,,,,,,,,,,,,,,,,,,,,,space,15.6489021889,2017_Oct_23_1837,59.9986721823,FEMA4ImagesEEG,001,201916,
AFNE01.JPG,AFNE01.JPG,AFNE01.JPG,AFNE01.JPG,AFNE01.JPG,AFNE01.JPG,,,,,,,,,0,0,0,7,,,,,,,,,,,,,,,AFSA02.jpg,AFNE05.jpg,AFNE04.jpg,AFSA17.jpg,AFSA17.jpg,FS,4,num_4,16,num_4,0.850205032737,,,2017_Oct_23_1837,59.9986721823,FEMA4ImagesEEG,001,201916,
AFNE01.JPG,AFNE01.JPG,AFNE01.JPG,AFNE01.JPG,AFNE01.JPG,AFNE01.JPG,,,,,,,,,0,1,1,0,,,,,,,,,,,,,,,AFSA05.jpg,AFNE03.jpg,AFNE06.jpg,AFSA15.jpg,AFSA05.jpg,FS,4,num_8,16,num_8,0.783521046164,,,2017_Oct_23_1837,59.9986721823,FEMA4ImagesEEG,001,201916,
AFNE01.JPG,AFNE01.JPG,AFNE01.JPG,AFNE01.JPG,AFNE01.JPG,AFNE01.JPG,,,,,,,,,0,2,2,1,,,,,,,,,,,,,,,AFNE16.jpg,AFSA16.jpg,AFSA11.jpg,AFNE08.jpg,AFNE16.jpg,FN,3,num_8,16,num_8,0.550142328138,,,2017_Oct_23_1837,59.9986721823,FEMA4ImagesEEG,001,201916,
AFNE01.JPG,AFNE01.JPG,AFNE01.JPG,AFNE01.JPG,AFNE01.JPG,AFNE01.JPG,,,,,,,,,0,3,3,8,,,,,,,,,,,,,,,AFSA09.jpg,AFNE14.jpg,AFSA03.jpg,AFNE06.jpg,AFNE14.jpg,FN,3,num_6,16,num_6,0.716734422836,,,2017_Oct_23_1837,59.9986721823,FEMA4ImagesEEG,001,201916,
AFNE01.JPG,AFNE01.JPG,AFNE01.JPG,AFNE01.JPG,AFNE01.JPG,AFNE01.JPG,,,,,,,,,0,4,4,5,,,,,,,,,,,,,,,AFSA14.jpg,AFNE10.jpg,AFSA15.jpg,AFNE19.jpg,AFSA15.jpg,FS,4,num_2,32,num_4,0.700230130577,,,2017_Oct_23_1837,59.9986721823,FEMA4ImagesEEG,001,201916,
AFNE01.JPG,AFNE01.JPG,AFNE01.JPG,AFNE01.JPG,AFNE01.JPG,AFNE01.JPG,,,,,,,,,0,5,5,3,,,,,,,,,,,,,,,AFSA16.jpg,AFSA07.jpg,AFNE13.jpg,AFNE18.jpg,AFNE18.jpg,FN,3,num_4,32,num_6,1.25025955844,,,2017_Oct_23_1837,59.9986721823,FEMA4ImagesEEG,001,201916,
AFNE01.JPG,AFNE01.JPG,AFNE01.JPG,AFNE01.JPG,AFNE01.JPG,AFNE01.JPG,,,,,,,,,0,6,6,9,,,,,,,,,,,,,,,AFNE08.jpg,AFSA01.jpg,AFSA13.jpg,AFNE20.jpg,AFNE20.jpg,FN,3,num_4,16,num_4,0.750175043591,,,2017_Oct_23_1837,59.9986721823,FEMA4ImagesEEG,001,201916,
AFNE01.JPG,AFNE01.JPG,AFNE01.JPG,AFNE01.JPG,AFNE01.JPG,AFNE01.JPG,,,,,,,,,0,7,7,2,,,,,,,,,,,,,,,AFSA06.jpg,AFNE18.jpg,AFSA14.jpg,AFNE08.jpg,AFSA14.jpg,FS,4,num_2,16,num_2,0.95005797362,,,2017_Oct_23_1837,59.9986721823,FEMA4ImagesEEG,001,201916,
AFNE01.JPG,AFNE01.JPG,AFNE01.JPG,AFNE01.JPG,AFNE01.JPG,AFNE01.JPG,,,,,,,,,0,8,8,6,,,,,,,,,,,,,,,AFSA03.jpg,AFSA11.jpg,AFNE10.jpg,AFNE06.jpg,AFNE06.jpg,FN,3,num_4,16,num_4,1.10008355253,,,2017_Oct_23_1837,59.9986721823,FEMA4ImagesEEG,001,201916,
AFNE01.JPG,AFNE01.JPG,AFNE01.JPG,AFNE01.JPG,AFNE01.JPG,AFNE01.JPG,,,,,,,,,0,9,9,4,,,,,,,,,,,,,,,AFNE16.jpg,AFNE19.jpg,AFSA01.jpg,AFSA05.jpg,AFSA01.jpg,FS,4,num_2,16,num_2,0.700122682843,,,2017_Oct_23_1837,59.9986721823,FEMA4ImagesEEG,001,201916,
AFNE01.JPG,AFNE01.JPG,AFNE01.JPG,AFNE01.JPG,AFNE01.JPG,AFNE01.JPG,,,,,,,,,1,0,10,4,,,,,,,,,,,,,,,AFSA08.jpg,AFNE10.jpg,AFNE12.jpg,AFSA04.jpg,AFNE12.jpg,FN,3,num_2,16,num_2,0.550108009018,,,2017_Oct_23_1837,59.9986721823,FEMA4ImagesEEG,001,201916,
AFNE01.JPG,AFNE01.JPG,AFNE01.JPG,AFNE01.JPG,AFNE01.JPG,AFNE01.JPG,,,,,,,,,1,1,11,2,,,,,,,,,,,,,,,AFNE02.jpg,AFSA01.jpg,AFSA06.jpg,AFNE14.jpg,AFSA06.jpg,FS,4,num_2,16,num_2,1.15008363279,,,2017_Oct_23_1837,59.9986721823,FEMA4ImagesEEG,001,201916,
AFNE01.JPG,AFNE01.JPG,AFNE01.JPG,AFNE01.JPG,AFNE01.JPG,AFNE01.JPG,,,,,,,,,1,2,12,6,,,,,,,,,,,,,,,AFNE10.jpg,AFNE19.jpg,AFSA09.jpg,AFSA03.jpg,AFNE10.jpg,FN,3,num_8,16,num_8,0.900108570349,,,2017_Oct_23_1837,59.9986721823,FEMA4ImagesEEG,001,201916,
AFNE01.JPG,AFNE01.JPG,AFNE01.JPG,AFNE01.JPG,AFNE01.JPG,AFNE01.JPG,,,,,,,,,1,3,13,3,,,,,,,,,,,,,,,AFNE09.jpg,AFNE11.jpg,AFSA07.jpg,AFSA01.jpg,AFNE09.jpg,FN,3,num_8,32,num_2,0.616646059207,,,2017_Oct_23_1837,59.9986721823,FEMA4ImagesEEG,001,201916,
AFNE01.JPG,AFNE01.JPG,AFNE01.JPG,AFNE01.JPG,AFNE01.JPG,AFNE01.JPG,,,,,,,,,1,4,14,5,,,,,,,,,,,,,,,AFNE20.jpg,AFSA07.jpg,AFNE14.jpg,AFSA16.jpg,AFNE14.jpg,FN,3,num_2,32,num_8,0.916741479188,,,2017_Oct_23_1837,59.9986721823,FEMA4ImagesEEG,001,201916,
AFNE01.JPG,AFNE01.JPG,AFNE01.JPG,AFNE01.JPG,AFNE01.JPG,AFNE01.JPG,,,,,,,,,1,5,15,8,,,,,,,,,,,,,,,AFSA18.jpg,AFNE06.jpg,AFNE09.jpg,AFSA13.jpg,AFSA13.jpg,FS,4,num_4,16,num_4,0.700098948088,,,2017_Oct_23_1837,59.9986721823,FEMA4ImagesEEG,001,201916,
AFNE01.JPG,AFNE01.JPG,AFNE01.JPG,AFNE01.JPG,AFNE01.JPG,AFNE01.JPG,,,,,,,,,1,6,16,1,,,,,,,,,,,,,,,AFSA11.jpg,AFNE02.jpg,AFNE13.jpg,AFSA03.jpg,AFNE13.jpg,FN,3,num_2,32,num_4,1.28342145658,,,2017_Oct_23_1837,59.9986721823,FEMA4ImagesEEG,001,201916,
AFNE01.JPG,AFNE01.JPG,AFNE01.JPG,AFNE01.JPG,AFNE01.JPG,AFNE01.JPG,,,,,,,,,1,7,17,7,,,,,,,,,,,,,,,AFSA19.jpg,AFNE16.jpg,AFSA16.jpg,AFNE12.jpg,AFSA16.jpg,FS,4,num_2,32,num_8,0.750148742925,,,2017_Oct_23_1837,59.9986721823,FEMA4ImagesEEG,001,201916,
AFNE01.JPG,AFNE01.JPG,AFNE01.JPG,AFNE01.JPG,AFNE01.JPG,AFNE01.JPG,,,,,,,,,1,8,18,0,,,,,,,,,,,,,,,AFNE20.jpg,AFSA02.jpg,AFSA15.jpg,AFNE18.jpg,AFNE18.jpg,FN,3,num_4,16,num_4,0.933463553549,,,2017_Oct_23_1837,59.9986721823,FEMA4ImagesEEG,001,201916,
AFNE01.JPG,AFNE01.JPG,AFNE01.JPG,AFNE01.JPG,AFNE01.JPG,AFNE01.JPG,,,,,,,,,1,9,19,9,,,,,,,,,,,,,,,AFSA02.jpg,AFSA17.jpg,AFNE07.jpg,AFNE08.jpg,AFNE08.jpg,FN,3,num_4,16,num_4,0.550225720392,,,2017_Oct_23_1837,59.9986721823,FEMA4ImagesEEG,001,201916,
AFNE01.JPG,AFNE01.JPG,AFNE01.JPG,AFNE01.JPG,AFNE01.JPG,AFNE01.JPG,,,,,,,,,2,0,20,4,,,,,,,,,,,,,,,AFSA12.jpg,AFNE07.jpg,AFNE17.jpg,AFSA20.jpg,AFNE17.jpg,FN,3,num_2,32,num_8,1.23341207486,,,2017_Oct_23_1837,59.9986721823,FEMA4ImagesEEG,001,201916,
AFNE01.JPG,AFNE01.JPG,AFNE01.JPG,AFNE01.JPG,AFNE01.JPG,AFNE01.JPG,,,,,,,,,2,1,21,6,,,,,,,,,,,,,,,AFNE14.jpg,AFNE06.jpg,AFSA09.jpg,AFSA20.jpg,AFSA20.jpg,FS,4,num_4,32,num_2,1.4165469507,,,2017_Oct_23_1837,59.9986721823,FEMA4ImagesEEG,001,201916,
AFNE01.JPG,AFNE01.JPG,AFNE01.JPG,AFNE01.JPG,AFNE01.JPG,AFNE01.JPG,,,,,,,,,2,2,22,5,,,,,,,,,,,,,,,AFSA10.jpg,AFNE03.jpg,AFSA01.jpg,AFNE07.jpg,AFNE07.jpg,FN,3,num_4,32,num_8,0.783444710192,,,2017_Oct_23_1837,59.9986721823,FEMA4ImagesEEG,001,201916,
AFNE01.JPG,AFNE01.JPG,AFNE01.JPG,AFNE01.JPG,AFNE01.JPG,AFNE01.JPG,,,,,,,,,2,3,23,1,,,,,,,,,,,,,,,AFNE07.jpg,AFSA15.jpg,AFNE18.jpg,AFSA14.jpg,AFSA14.jpg,FS,4,num_4,32,num_2,1.21676377056,,,2017_Oct_23_1837,59.9986721823,FEMA4ImagesEEG,001,201916,
AFNE01.JPG,AFNE01.JPG,AFNE01.JPG,AFNE01.JPG,AFNE01.JPG,AFNE01.JPG,,,,,,,,,2,4,24,2,,,,,,,,,,,,,,,AFNE03.jpg,AFSA04.jpg,AFNE11.jpg,AFSA20.jpg,AFSA04.jpg,FS,4,num_6,16,num_6,1.06677796331,,,2017_Oct_23_1837,59.9986721823,FEMA4ImagesEEG,001,201916,
AFNE01.JPG,AFNE01.JPG,AFNE01.JPG,AFNE01.JPG,AFNE01.JPG,AFNE01.JPG,,,,,,,,,2,5,25,3,,,,,,,,,,,,,,,AFNE09.jpg,AFNE11.jpg,AFSA11.jpg,AFSA18.jpg,AFNE11.jpg,FN,3,num_6,32,num_2,1.40010584402,,,2017_Oct_23_1837,59.9986721823,FEMA4ImagesEEG,001,201916,
AFNE01.JPG,AFNE01.JPG,AFNE01.JPG,AFNE01.JPG,AFNE01.JPG,AFNE01.JPG,,,,,,,,,2,6,26,0,,,,,,,,,,,,,,,AFNE04.jpg,AFSA13.jpg,AFSA09.jpg,AFNE15.jpg,AFNE15.jpg,FN,3,num_4,16,num_4,1.31673602655,,,2017_Oct_23_1837,59.9986721823,FEMA4ImagesEEG,001,201916,
AFNE01.JPG,AFNE01.JPG,AFNE01.JPG,AFNE01.JPG,AFNE01.JPG,AFNE01.JPG,,,,,,,,,2,7,27,7,,,,,,,,,,,,,,,AFNE02.jpg,AFSA20.jpg,AFSA09.jpg,AFNE10.jpg,AFSA09.jpg,FS,4,num_2,32,num_6,0.800123805413,,,2017_Oct_23_1837,59.9986721823,FEMA4ImagesEEG,001,201916,
AFNE01.JPG,AFNE01.JPG,AFNE01.JPG,AFNE01.JPG,AFNE01.JPG,AFNE01.JPG,,,,,,,,,2,8,28,8,,,,,,,,,,,,,,,AFSA06.jpg,AFNE05.jpg,AFSA05.jpg,AFNE20.jpg,AFNE20.jpg,FN,3,num_4,32,num_8,0.950119234971,,,2017_Oct_23_1837,59.9986721823,FEMA4ImagesEEG,001,201916,
AFNE01.JPG,AFNE01.JPG,AFNE01.JPG,AFNE01.JPG,AFNE01.JPG,AFNE01.JPG,,,,,,,,,2,9,29,9,,,,,,,,,,,,,,,AFSA09.jpg,AFNE17.jpg,AFSA07.jpg,AFNE20.jpg,AFSA09.jpg,FS,4,num_8,32,num_2,1.28343653132,,,2017_Oct_23_1837,59.9986721823,FEMA4ImagesEEG,001,201916,
AFNE01.JPG,AFNE01.JPG,AFNE01.JPG,AFNE01.JPG,AFNE01.JPG,AFNE01.JPG,,,,,,,,,3,0,30,4,,,,,,,,,,,,,,,AFSA02.jpg,AFSA18.jpg,AFNE05.jpg,AFNE07.jpg,AFSA02.jpg,FS,4,num_8,16,num_8,1.1334135182,,,2017_Oct_23_1837,59.9986721823,FEMA4ImagesEEG,001,201916,
AFNE01.JPG,AFNE01.JPG,AFNE01.JPG,AFNE01.JPG,AFNE01.JPG,AFNE01.JPG,,,,,,,,,3,1,31,1,,,,,,,,,,,,,,,AFSA17.jpg,AFNE06.jpg,AFSA13.jpg,AFNE07.jpg,AFNE06.jpg,FN,3,num_6,16,num_6,0.850097905728,,,2017_Oct_23_1837,59.9986721823,FEMA4ImagesEEG,001,201916,
AFNE01.JPG,AFNE01.JPG,AFNE01.JPG,AFNE01.JPG,AFNE01.JPG,AFNE01.JPG,,,,,,,,,3,2,32,8,,,,,,,,,,,,,,,AFSA17.jpg,AFNE01.jpg,AFSA14.jpg,AFNE05.jpg,AFSA17.jpg,FS,4,num_8,32,num_4,1.10010215547,,,2017_Oct_23_1837,59.9986721823,FEMA4ImagesEEG,001,201916,
AFNE01.JPG,AFNE01.JPG,AFNE01.JPG,AFNE01.JPG,AFNE01.JPG,AFNE01.JPG,,,,,,,,,3,3,33,7,,,,,,,,,,,,,,,AFSA10.jpg,AFNE16.jpg,AFSA06.jpg,AFNE11.jpg,AFSA10.jpg,FS,4,num_8,16,num_8,0.966903532855,,,2017_Oct_23_1837,59.9986721823,FEMA4ImagesEEG,001,201916,
AFNE01.JPG,AFNE01.JPG,AFNE01.JPG,AFNE01.JPG,AFNE01.JPG,AFNE01.JPG,,,,,,,,,3,4,34,0,,,,,,,,,,,,,,,AFSA03.jpg,AFSA04.jpg,AFNE20.jpg,AFNE10.jpg,AFNE10.jpg,FN,3,num_4,32,num_2,1.11674917699,,,2017_Oct_23_1837,59.9986721823,FEMA4ImagesEEG,001,201916,
AFNE01.JPG,AFNE01.JPG,AFNE01.JPG,AFNE01.JPG,AFNE01.JPG,AFNE01.JPG,,,,,,,,,3,5,35,3,,,,,,,,,,,,,,,AFNE06.jpg,AFSA11.jpg,AFSA14.jpg,AFNE02.jpg,AFNE02.jpg,FN,3,num_4,16,num_4,0.70010632521,,,2017_Oct_23_1837,59.9986721823,FEMA4ImagesEEG,001,201916,
AFNE01.JPG,AFNE01.JPG,AFNE01.JPG,AFNE01.JPG,AFNE01.JPG,AFNE01.JPG,,,,,,,,,3,6,36,2,,,,,,,,,,,,,,,AFSA18.jpg,AFNE02.jpg,AFNE17.jpg,AFSA14.jpg,AFNE17.jpg,FN,3,num_2,32,num_8,0.900094137061,,,2017_Oct_23_1837,59.9986721823,FEMA4ImagesEEG,001,201916,
AFNE01.JPG,AFNE01.JPG,AFNE01.JPG,AFNE01.JPG,AFNE01.JPG,AFNE01.JPG,,,,,,,,,3,7,37,6,,,,,,,,,,,,,,,AFSA12.jpg,AFNE17.jpg,AFSA15.jpg,AFNE13.jpg,AFNE17.jpg,FN,3,num_6,32,num_8,1.18338954297,,,2017_Oct_23_1837,59.9986721823,FEMA4ImagesEEG,001,201916,
AFNE01.JPG,AFNE01.JPG,AFNE01.JPG,AFNE01.JPG,AFNE01.JPG,AFNE01.JPG,,,,,,,,,3,8,38,5,,,,,,,,,,,,,,,AFSA03.jpg,AFNE03.jpg,AFSA04.jpg,AFNE18.jpg,AFSA04.jpg,FS,4,num_2,16,num_2,0.733467402402,,,2017_Oct_23_1837,59.9986721823,FEMA4ImagesEEG,001,201916,
AFNE01.JPG,AFNE01.JPG,AFNE01.JPG,AFNE01.JPG,AFNE01.JPG,AFNE01.JPG,,,,,,,,,3,9,39,9,,,,,,,,,,,,,,,AFSA09.jpg,AFNE11.jpg,AFNE05.jpg,AFSA06.jpg,AFSA09.jpg,FS,4,num_8,32,num_2,1.43370298552,,,2017_Oct_23_1837,59.9986721823,FEMA4ImagesEEG,001,201916,
AFNE01.JPG,AFNE01.JPG,AFNE01.JPG,AFNE01.JPG,AFNE01.JPG,AFNE01.JPG,,,,,,,,,4,0,40,7,,,,,,,,,,,,,,,AFSA19.jpg,AFNE11.jpg,AFNE14.jpg,AFSA02.jpg,AFSA02.jpg,FS,4,num_4,32,num_2,1.50017496338,,,2017_Oct_23_1837,59.9986721823,FEMA4ImagesEEG,001,201916,
AFNE01.JPG,AFNE01.JPG,AFNE01.JPG,AFNE01.JPG,AFNE01.JPG,AFNE01.JPG,,,,,,,,,4,1,41,2,,,,,,,,,,,,,,,AFSA19.jpg,AFSA17.jpg,AFNE01.jpg,AFNE10.jpg,AFSA17.jpg,FS,4,num_6,32,num_2,1.050135753,,,2017_Oct_23_1837,59.9986721823,FEMA4ImagesEEG,001,201916,
AFNE01.JPG,AFNE01.JPG,AFNE01.JPG,AFNE01.JPG,AFNE01.JPG,AFNE01.JPG,,,,,,,,,4,2,42,3,,,,,,,,,,,,,,,AFSA09.jpg,AFNE15.jpg,AFNE08.jpg,AFSA08.jpg,AFNE08.jpg,FN,3,num_2,32,num_6,1.35007625585,,,2017_Oct_23_1837,59.9986721823,FEMA4ImagesEEG,001,201916,
AFNE01.JPG,AFNE01.JPG,AFNE01.JPG,AFNE01.JPG,AFNE01.JPG,AFNE01.JPG,,,,,,,,,4,3,43,9,,,,,,,,,,,,,,,AFSA04.jpg,AFSA09.jpg,AFNE13.jpg,AFNE02.jpg,AFNE02.jpg,FN,3,num_4,32,num_2,1.01673746994,,,2017_Oct_23_1837,59.9986721823,FEMA4ImagesEEG,001,201916,
AFNE01.JPG,AFNE01.JPG,AFNE01.JPG,AFNE01.JPG,AFNE01.JPG,AFNE01.JPG,,,,,,,,,4,4,44,0,,,,,,,,,,,,,,,AFNE07.jpg,AFSA04.jpg,AFSA10.jpg,AFNE10.jpg,AFSA04.jpg,FS,4,num_6,32,num_4,1.40006254427,,,2017_Oct_23_1837,59.9986721823,FEMA4ImagesEEG,001,201916,
AFNE01.JPG,AFNE01.JPG,AFNE01.JPG,AFNE01.JPG,AFNE01.JPG,AFNE01.JPG,,,,,,,,,4,5,45,6,,,,,,,,,,,,,,,AFSA02.jpg,AFNE01.jpg,AFNE20.jpg,AFSA14.jpg,AFNE20.jpg,FN,3,num_2,16,num_2,0.750102556543,,,2017_Oct_23_1837,59.9986721823,FEMA4ImagesEEG,001,201916,
AFNE01.JPG,AFNE01.JPG,AFNE01.JPG,AFNE01.JPG,AFNE01.JPG,AFNE01.JPG,,,,,,,,,4,6,46,8,,,,,,,,,,,,,,,AFSA03.jpg,AFSA17.jpg,AFNE06.jpg,AFNE10.jpg,AFNE06.jpg,FN,3,num_2,32,num_4,1.11666867137,,,2017_Oct_23_1837,59.9986721823,FEMA4ImagesEEG,001,201916,
AFNE01.JPG,AFNE01.JPG,AFNE01.JPG,AFNE01.JPG,AFNE01.JPG,AFNE01.JPG,,,,,,,,,4,7,47,4,,,,,,,,,,,,,,,AFSA12.jpg,AFNE15.jpg,AFSA08.jpg,AFNE17.jpg,AFNE17.jpg,FN,3,num_4,32,num_8,1.03342458373,,,2017_Oct_23_1837,59.9986721823,FEMA4ImagesEEG,001,201916,
AFNE01.JPG,AFNE01.JPG,AFNE01.JPG,AFNE01.JPG,AFNE01.JPG,AFNE01.JPG,,,,,,,,,4,8,48,1,,,,,,,,,,,,,,,AFNE15.jpg,AFSA05.jpg,AFSA19.jpg,AFNE08.jpg,AFSA19.jpg,FS,4,num_2,16,num_2,0.766773312469,,,2017_Oct_23_1837,59.9986721823,FEMA4ImagesEEG,001,201916,
AFNE01.JPG,AFNE01.JPG,AFNE01.JPG,AFNE01.JPG,AFNE01.JPG,AFNE01.JPG,,,,,,,,,4,9,49,5,,,,,,,,,,,,,,,AFNE07.jpg,AFSA17.jpg,AFNE11.jpg,AFSA03.jpg,AFNE07.jpg,FN,3,num_8,16,num_8,0.750156440656,,,2017_Oct_23_1837,59.9986721823,FEMA4ImagesEEG,001,201916,
AFNE01.JPG,AFNE01.JPG,AFNE01.JPG,AFNE01.JPG,AFNE01.JPG,AFNE01.JPG,,,,,,,,,5,0,50,3,,,,,,,,,,,,,,,AFNE01.jpg,AFNE08.jpg,AFSA02.jpg,AFSA20.jpg,AFSA02.jpg,FS,4,num_2,32,num_4,0.966806348646,,,2017_Oct_23_1837,59.9986721823,FEMA4ImagesEEG,001,201916,
AFNE01.JPG,AFNE01.JPG,AFNE01.JPG,AFNE01.JPG,AFNE01.JPG,AFNE01.JPG,,,,,,,,,5,1,51,7,,,,,,,,,,,,,,,AFSA03.jpg,AFSA07.jpg,AFNE18.jpg,AFNE10.jpg,AFNE18.jpg,FN,3,num_2,32,num_6,0.816347129992,,,2017_Oct_23_1837,59.9986721823,FEMA4ImagesEEG,001,201916,
AFNE01.JPG,AFNE01.JPG,AFNE01.JPG,AFNE01.JPG,AFNE01.JPG,AFNE01.JPG,,,,,,,,,5,2,52,9,,,,,,,,,,,,,,,AFSA16.jpg,AFNE11.jpg,AFSA15.jpg,AFNE20.jpg,AFNE11.jpg,FN,3,num_6,16,num_6,0.483449040097,,,2017_Oct_23_1837,59.9986721823,FEMA4ImagesEEG,001,201916,
AFNE01.JPG,AFNE01.JPG,AFNE01.JPG,AFNE01.JPG,AFNE01.JPG,AFNE01.JPG,,,,,,,,,5,3,53,1,,,,,,,,,,,,,,,AFSA17.jpg,AFNE13.jpg,AFNE03.jpg,AFSA03.jpg,AFNE13.jpg,FN,3,num_6,32,num_8,0.750154516194,,,2017_Oct_23_1837,59.9986721823,FEMA4ImagesEEG,001,201916,
AFNE01.JPG,AFNE01.JPG,AFNE01.JPG,AFNE01.JPG,AFNE01.JPG,AFNE01.JPG,,,,,,,,,5,4,54,0,,,,,,,,,,,,,,,AFNE06.jpg,AFSA11.jpg,AFNE03.jpg,AFSA05.jpg,AFSA05.jpg,FS,4,num_4,16,num_4,0.71677868499,,,2017_Oct_23_1837,59.9986721823,FEMA4ImagesEEG,001,201916,
AFNE01.JPG,AFNE01.JPG,AFNE01.JPG,AFNE01.JPG,AFNE01.JPG,AFNE01.JPG,,,,,,,,,5,5,55,8,,,,,,,,,,,,,,,AFSA08.jpg,AFNE19.jpg,AFSA01.jpg,AFNE03.jpg,AFNE19.jpg,FN,3,num_6,32,num_2,0.750124045997,,,2017_Oct_23_1837,59.9986721823,FEMA4ImagesEEG,001,201916,
AFNE01.JPG,AFNE01.JPG,AFNE01.JPG,AFNE01.JPG,AFNE01.JPG,AFNE01.JPG,,,,,,,,,5,6,56,5,,,,,,,,,,,,,,,AFSA05.jpg,AFSA09.jpg,AFNE10.jpg,AFNE01.jpg,AFNE01.jpg,FN,3,num_4,32,num_2,0.683470208896,,,2017_Oct_23_1837,59.9986721823,FEMA4ImagesEEG,001,201916,
AFNE01.JPG,AFNE01.JPG,AFNE01.JPG,AFNE01.JPG,AFNE01.JPG,AFNE01.JPG,,,,,,,,,5,7,57,2,,,,,,,,,,,,,,,AFSA14.jpg,AFNE12.jpg,AFNE02.jpg,AFSA12.jpg,AFSA12.jpg,FS,4,num_4,16,num_4,0.766996867955,,,2017_Oct_23_1837,59.9986721823,FEMA4ImagesEEG,001,201916,
AFNE01.JPG,AFNE01.JPG,AFNE01.JPG,AFNE01.JPG,AFNE01.JPG,AFNE01.JPG,,,,,,,,,5,8,58,4,,,,,,,,,,,,,,,AFSA02.jpg,AFSA17.jpg,AFNE02.jpg,AFNE14.jpg,AFSA17.jpg,FS,4,num_6,32,num_4,1.00011642836,,,2017_Oct_23_1837,59.9986721823,FEMA4ImagesEEG,001,201916,
AFNE01.JPG,AFNE01.JPG,AFNE01.JPG,AFNE01.JPG,AFNE01.JPG,AFNE01.JPG,,,,,,,,,5,9,59,6,,,,,,,,,,,,,,,AFSA13.jpg,AFNE14.jpg,AFSA07.jpg,AFNE20.jpg,AFNE20.jpg,FN,3,num_4,32,num_2,0.916422343347,,,2017_Oct_23_1837,59.9986721823,FEMA4ImagesEEG,001,201916,
,,,,,,,,,,,,,,,,,,,,,,,,,,,,,,,,,,,,,,,,,,,space,20.2822084198,2017_Oct_23_1837,59.9986721823,FEMA4ImagesEEG,001,201916,
AFNE01.JPG,AFNE01.JPG,AFNE01.JPG,AFNE01.JPG,AFNE01.JPG,AFNE01.JPG,,,,,,,,,,,,,0,0,0,0,,,,,,,,,,,AMSA05.jpg,AMSA19.jpg,AMNE03.jpg,AMNE15.jpg,AMSA19.jpg,MS,2,num_6,16,num_6,0.600134389824,,,2017_Oct_23_1837,59.9986721823,FEMA4ImagesEEG,001,201916,
AFNE01.JPG,AFNE01.JPG,AFNE01.JPG,AFNE01.JPG,AFNE01.JPG,AFNE01.JPG,,,,,,,,,,,,,0,1,1,2,,,,,,,,,,,AMNE03.jpg,AMNE05.jpg,AMSA15.jpg,AMSA10.jpg,AMSA10.jpg,MS,2,num_4,32,num_2,0.68345770007,,,2017_Oct_23_1837,59.9986721823,FEMA4ImagesEEG,001,201916,
AFNE01.JPG,AFNE01.JPG,AFNE01.JPG,AFNE01.JPG,AFNE01.JPG,AFNE01.JPG,,,,,,,,,,,,,0,2,2,7,,,,,,,,,,,AMNE12.jpg,AMSA11.jpg,AMNE03.jpg,AMSA09.jpg,AMNE12.jpg,MN,1,num_8,32,num_2,0.616597948247,,,2017_Oct_23_1837,59.9986721823,FEMA4ImagesEEG,001,201916,
AFNE01.JPG,AFNE01.JPG,AFNE01.JPG,AFNE01.JPG,AFNE01.JPG,AFNE01.JPG,,,,,,,,,,,,,0,3,3,4,,,,,,,,,,,AMSA07.jpg,AMSA17.jpg,AMNE13.jpg,AMNE06.jpg,AMSA07.jpg,MS,2,num_8,16,num_8,0.483471171232,,,2017_Oct_23_1837,59.9986721823,FEMA4ImagesEEG,001,201916,
AFNE01.JPG,AFNE01.JPG,AFNE01.JPG,AFNE01.JPG,AFNE01.JPG,AFNE01.JPG,,,,,,,,,,,,,0,4,4,8,,,,,,,,,,,AMSA18.jpg,AMSA19.jpg,AMNE03.jpg,AMNE13.jpg,AMNE13.jpg,MN,1,num_4,16,num_4,0.550161572522,,,2017_Oct_23_1837,59.9986721823,FEMA4ImagesEEG,001,201916,
AFNE01.JPG,AFNE01.JPG,AFNE01.JPG,AFNE01.JPG,AFNE01.JPG,AFNE01.JPG,,,,,,,,,,,,,0,5,5,5,,,,,,,,,,,AMNE04.jpg,AMNE17.jpg,AMSA04.jpg,AMSA16.jpg,AMSA04.jpg,MS,2,num_2,16,num_2,0.450181297958,,,2017_Oct_23_1837,59.9986721823,FEMA4ImagesEEG,001,201916,
AFNE01.JPG,AFNE01.JPG,AFNE01.JPG,AFNE01.JPG,AFNE01.JPG,AFNE01.JPG,,,,,,,,,,,,,0,6,6,1,,,,,,,,,,,AMNE12.jpg,AMSA05.jpg,AMNE11.jpg,AMSA18.jpg,AMNE12.jpg,MN,1,num_8,16,num_8,0.783153478638,,,2017_Oct_23_1837,59.9986721823,FEMA4ImagesEEG,001,201916,
AFNE01.JPG,AFNE01.JPG,AFNE01.JPG,AFNE01.JPG,AFNE01.JPG,AFNE01.JPG,,,,,,,,,,,,,0,7,7,9,,,,,,,,,,,AMSA06.jpg,AMSA10.jpg,AMNE15.jpg,AMNE11.jpg,AMNE15.jpg,MN,1,num_2,16,num_2,0.916791835334,,,2017_Oct_23_1837,59.9986721823,FEMA4ImagesEEG,001,201916,
AFNE01.JPG,AFNE01.JPG,AFNE01.JPG,AFNE01.JPG,AFNE01.JPG,AFNE01.JPG,,,,,,,,,,,,,0,8,8,3,,,,,,,,,,,AMNE03.jpg,AMNE07.jpg,AMSA13.jpg,AMSA11.jpg,AMNE03.jpg,MN,1,num_8,16,num_8,0.983444710029,,,2017_Oct_23_1837,59.9986721823,FEMA4ImagesEEG,001,201916,
AFNE01.JPG,AFNE01.JPG,AFNE01.JPG,AFNE01.JPG,AFNE01.JPG,AFNE01.JPG,,,,,,,,,,,,,0,9,9,6,,,,,,,,,,,AMNE08.jpg,AMSA11.jpg,AMNE19.jpg,AMSA15.jpg,AMNE08.jpg,MN,1,num_8,32,num_2,0.783436691621,,,2017_Oct_23_1837,59.9986721823,FEMA4ImagesEEG,001,201916,
AFNE01.JPG,AFNE01.JPG,AFNE01.JPG,AFNE01.JPG,AFNE01.JPG,AFNE01.JPG,,,,,,,,,,,,,1,0,10,8,,,,,,,,,,,AMSA11.jpg,AMNE15.jpg,AMSA12.jpg,AMNE19.jpg,AMNE15.jpg,MN,1,num_6,16,num_6,1.01673779055,,,2017_Oct_23_1837,59.9986721823,FEMA4ImagesEEG,001,201916,
AFNE01.JPG,AFNE01.JPG,AFNE01.JPG,AFNE01.JPG,AFNE01.JPG,AFNE01.JPG,,,,,,,,,,,,,1,1,11,1,,,,,,,,,,,AMSA08.jpg,AMNE02.jpg,AMSA04.jpg,AMNE15.jpg,AMNE15.jpg,MN,1,num_4,16,num_4,0.700109211844,,,2017_Oct_23_1837,59.9986721823,FEMA4ImagesEEG,001,201916,
AFNE01.JPG,AFNE01.JPG,AFNE01.JPG,AFNE01.JPG,AFNE01.JPG,AFNE01.JPG,,,,,,,,,,,,,1,2,12,2,,,,,,,,,,,AMSA14.jpg,AMSA11.jpg,AMNE17.jpg,AMNE13.jpg,AMNE13.jpg,MN,1,num_4,16,num_4,0.733407744905,,,2017_Oct_23_1837,59.9986721823,FEMA4ImagesEEG,001,201916,
AFNE01.JPG,AFNE01.JPG,AFNE01.JPG,AFNE01.JPG,AFNE01.JPG,AFNE01.JPG,,,,,,,,,,,,,1,3,13,5,,,,,,,,,,,AMNE13.jpg,AMSA01.jpg,AMSA06.jpg,AMNE16.jpg,AMSA06.jpg,MS,2,num_2,16,num_2,1.21673362108,,,2017_Oct_23_1837,59.9986721823,FEMA4ImagesEEG,001,201916,
AFNE01.JPG,AFNE01.JPG,AFNE01.JPG,AFNE01.JPG,AFNE01.JPG,AFNE01.JPG,,,,,,,,,,,,,1,4,14,4,,,,,,,,,,,AMSA02.jpg,AMNE04.jpg,AMSA16.jpg,AMNE19.jpg,AMSA02.jpg,MS,2,num_8,32,num_2,1.15010416007,,,2017_Oct_23_1837,59.9986721823,FEMA4ImagesEEG,001,201916,
AFNE01.JPG,AFNE01.JPG,AFNE01.JPG,AFNE01.JPG,AFNE01.JPG,AFNE01.JPG,,,,,,,,,,,,,1,5,15,9,,,,,,,,,,,AMSA05.jpg,AMNE05.jpg,AMSA01.jpg,AMNE09.jpg,AMSA01.jpg,MS,2,num_2,16,num_2,0.716859190492,,,2017_Oct_23_1837,59.9986721823,FEMA4ImagesEEG,001,201916,
AFNE01.JPG,AFNE01.JPG,AFNE01.JPG,AFNE01.JPG,AFNE01.JPG,AFNE01.JPG,,,,,,,,,,,,,1,6,16,0,,,,,,,,,,,AMSA10.jpg,AMSA09.jpg,AMNE03.jpg,AMNE17.jpg,AMSA10.jpg,MS,2,num_8,16,num_8,0.983458822593,,,2017_Oct_23_1837,59.9986721823,FEMA4ImagesEEG,001,201916,
AFNE01.JPG,AFNE01.JPG,AFNE01.JPG,AFNE01.JPG,AFNE01.JPG,AFNE01.JPG,,,,,,,,,,,,,1,7,17,7,,,,,,,,,,,AMNE20.jpg,AMNE04.jpg,AMSA06.jpg,AMSA18.jpg,AMSA06.jpg,MS,2,num_2,32,num_4,0.883428191999,,,2017_Oct_23_1837,59.9986721823,FEMA4ImagesEEG,001,201916,
AFNE01.JPG,AFNE01.JPG,AFNE01.JPG,AFNE01.JPG,AFNE01.JPG,AFNE01.JPG,,,,,,,,,,,,,1,8,18,3,,,,,,,,,,,AMSA10.jpg,AMSA08.jpg,AMNE08.jpg,AMNE05.jpg,AMSA08.jpg,MS,2,num_6,32,num_4,0.750170232495,,,2017_Oct_23_1837,59.9986721823,FEMA4ImagesEEG,001,201916,
AFNE01.JPG,AFNE01.JPG,AFNE01.JPG,AFNE01.JPG,AFNE01.JPG,AFNE01.JPG,,,,,,,,,,,,,1,9,19,6,,,,,,,,,,,AMSA09.jpg,AMSA17.jpg,AMNE08.jpg,AMNE01.jpg,AMSA09.jpg,MS,2,num_8,16,num_8,1.3500804255,,,2017_Oct_23_1837,59.9986721823,FEMA4ImagesEEG,001,201916,
AFNE01.JPG,AFNE01.JPG,AFNE01.JPG,AFNE01.JPG,AFNE01.JPG,AFNE01.JPG,,,,,,,,,,,,,2,0,20,4,,,,,,,,,,,AMSA05.jpg,AMNE08.jpg,AMSA16.jpg,AMNE16.jpg,AMSA16.jpg,MS,2,num_2,16,num_2,1.23343677178,,,2017_Oct_23_1837,59.9986721823,FEMA4ImagesEEG,001,201916,
AFNE01.JPG,AFNE01.JPG,AFNE01.JPG,AFNE01.JPG,AFNE01.JPG,AFNE01.JPG,,,,,,,,,,,,,2,1,21,9,,,,,,,,,,,AMNE17.jpg,AMSA13.jpg,AMNE14.jpg,AMSA08.jpg,AMSA13.jpg,MS,2,num_6,16,num_6,1.01674356405,,,2017_Oct_23_1837,59.9986721823,FEMA4ImagesEEG,001,201916,
AFNE01.JPG,AFNE01.JPG,AFNE01.JPG,AFNE01.JPG,AFNE01.JPG,AFNE01.JPG,,,,,,,,,,,,,2,2,22,1,,,,,,,,,,,AMSA18.jpg,AMNE03.jpg,AMSA12.jpg,AMNE07.jpg,AMNE03.jpg,MN,1,num_6,32,num_8,0.850148261874,,,2017_Oct_23_1837,59.9986721823,FEMA4ImagesEEG,001,201916,
AFNE01.JPG,AFNE01.JPG,AFNE01.JPG,AFNE01.JPG,AFNE01.JPG,AFNE01.JPG,,,,,,,,,,,,,2,3,23,8,,,,,,,,,,,AMNE06.jpg,AMNE04.jpg,AMSA03.jpg,AMSA08.jpg,AMNE04.jpg,MN,1,num_6,32,num_2,0.983420013101,,,2017_Oct_23_1837,59.9986721823,FEMA4ImagesEEG,001,201916,
AFNE01.JPG,AFNE01.JPG,AFNE01.JPG,AFNE01.JPG,AFNE01.JPG,AFNE01.JPG,,,,,,,,,,,,,2,4,24,3,,,,,,,,,,,AMNE07.jpg,AMSA05.jpg,AMSA03.jpg,AMNE18.jpg,AMNE07.jpg,MN,1,num_8,32,num_6,1.05007801985,,,2017_Oct_23_1837,59.9986721823,FEMA4ImagesEEG,001,201916,
AFNE01.JPG,AFNE01.JPG,AFNE01.JPG,AFNE01.JPG,AFNE01.JPG,AFNE01.JPG,,,,,,,,,,,,,2,5,25,6,,,,,,,,,,,AMSA16.jpg,AMNE09.jpg,AMSA02.jpg,AMNE14.jpg,AMNE14.jpg,MN,1,num_4,16,num_4,0.500166944927,,,2017_Oct_23_1837,59.9986721823,FEMA4ImagesEEG,001,201916,
AFNE01.JPG,AFNE01.JPG,AFNE01.JPG,AFNE01.JPG,AFNE01.JPG,AFNE01.JPG,,,,,,,,,,,,,2,6,26,0,,,,,,,,,,,AMNE19.jpg,AMSA05.jpg,AMSA02.jpg,AMNE04.jpg,AMSA05.jpg,MS,2,num_6,16,num_6,0.366792236222,,,2017_Oct_23_1837,59.9986721823,FEMA4ImagesEEG,001,201916,
AFNE01.JPG,AFNE01.JPG,AFNE01.JPG,AFNE01.JPG,AFNE01.JPG,AFNE01.JPG,,,,,,,,,,,,,2,7,27,2,,,,,,,,,,,AMNE13.jpg,AMSA03.jpg,AMNE17.jpg,AMSA12.jpg,AMSA03.jpg,MS,2,num_6,16,num_6,0.433350813575,,,2017_Oct_23_1837,59.9986721823,FEMA4ImagesEEG,001,201916,
AFNE01.JPG,AFNE01.JPG,AFNE01.JPG,AFNE01.JPG,AFNE01.JPG,AFNE01.JPG,,,,,,,,,,,,,2,8,28,5,,,,,,,,,,,AMSA08.jpg,AMNE05.jpg,AMNE08.jpg,AMSA14.jpg,AMSA14.jpg,MS,2,num_4,16,num_4,0.633536201087,,,2017_Oct_23_1837,59.9986721823,FEMA4ImagesEEG,001,201916,
AFNE01.JPG,AFNE01.JPG,AFNE01.JPG,AFNE01.JPG,AFNE01.JPG,AFNE01.JPG,,,,,,,,,,,,,2,9,29,7,,,,,,,,,,,AMSA07.jpg,AMSA06.jpg,AMNE02.jpg,AMNE20.jpg,AMNE20.jpg,MN,1,num_4,32,num_8,0.70013775758,,,2017_Oct_23_1837,59.9986721823,FEMA4ImagesEEG,001,201916,
AFNE01.JPG,AFNE01.JPG,AFNE01.JPG,AFNE01.JPG,AFNE01.JPG,AFNE01.JPG,,,,,,,,,,,,,3,0,30,6,,,,,,,,,,,AMSA15.jpg,AMNE06.jpg,AMNE15.jpg,AMSA18.jpg,AMNE15.jpg,MN,1,num_2,32,num_6,0.783448558999,,,2017_Oct_23_1837,59.9986721823,FEMA4ImagesEEG,001,201916,
AFNE01.JPG,AFNE01.JPG,AFNE01.JPG,AFNE01.JPG,AFNE01.JPG,AFNE01.JPG,,,,,,,,,,,,,3,1,31,1,,,,,,,,,,,AMSA08.jpg,AMSA06.jpg,AMNE17.jpg,AMNE11.jpg,AMNE17.jpg,MN,1,num_2,16,num_2,0.466831205995,,,2017_Oct_23_1837,59.9986721823,FEMA4ImagesEEG,001,201916,
AFNE01.JPG,AFNE01.JPG,AFNE01.JPG,AFNE01.JPG,AFNE01.JPG,AFNE01.JPG,,,,,,,,,,,,,3,2,32,7,,,,,,,,,,,AMNE06.jpg,AMSA11.jpg,AMNE05.jpg,AMSA18.jpg,AMSA18.jpg,MS,2,num_4,16,num_4,1.38374973333,,,2017_Oct_23_1837,59.9986721823,FEMA4ImagesEEG,001,201916,
AFNE01.JPG,AFNE01.JPG,AFNE01.JPG,AFNE01.JPG,AFNE01.JPG,AFNE01.JPG,,,,,,,,,,,,,3,3,33,0,,,,,,,,,,,AMSA06.jpg,AMNE01.jpg,AMSA16.jpg,AMNE10.jpg,AMNE01.jpg,MN,1,num_6,16,num_6,0.566708843922,,,2017_Oct_23_1837,59.9986721823,FEMA4ImagesEEG,001,201916,
AFNE01.JPG,AFNE01.JPG,AFNE01.JPG,AFNE01.JPG,AFNE01.JPG,AFNE01.JPG,,,,,,,,,,,,,3,4,34,2,,,,,,,,,,,AMNE05.jpg,AMSA07.jpg,AMSA12.jpg,AMNE08.jpg,AMSA07.jpg,MS,2,num_6,32,num_4,0.96670307056,,,2017_Oct_23_1837,59.9986721823,FEMA4ImagesEEG,001,201916,
AFNE01.JPG,AFNE01.JPG,AFNE01.JPG,AFNE01.JPG,AFNE01.JPG,AFNE01.JPG,,,,,,,,,,,,,3,5,35,3,,,,,,,,,,,AMNE02.jpg,AMSA15.jpg,AMSA16.jpg,AMNE12.jpg,AMSA16.jpg,MS,2,num_2,32,num_4,1.03340726381,,,2017_Oct_23_1837,59.9986721823,FEMA4ImagesEEG,001,201916,
AFNE01.JPG,AFNE01.JPG,AFNE01.JPG,AFNE01.JPG,AFNE01.JPG,AFNE01.JPG,,,,,,,,,,,,,3,6,36,8,,,,,,,,,,,AMSA01.jpg,AMNE01.jpg,AMSA17.jpg,AMNE19.jpg,AMSA17.jpg,MS,2,num_2,16,num_2,0.483553601196,,,2017_Oct_23_1837,59.9986721823,FEMA4ImagesEEG,001,201916,
AFNE01.JPG,AFNE01.JPG,AFNE01.JPG,AFNE01.JPG,AFNE01.JPG,AFNE01.JPG,,,,,,,,,,,,,3,7,37,5,,,,,,,,,,,AMSA08.jpg,AMSA12.jpg,AMNE03.jpg,AMNE05.jpg,AMSA12.jpg,MS,2,num_6,16,num_6,0.916731536156,,,2017_Oct_23_1837,59.9986721823,FEMA4ImagesEEG,001,201916,
AFNE01.JPG,AFNE01.JPG,AFNE01.JPG,AFNE01.JPG,AFNE01.JPG,AFNE01.JPG,,,,,,,,,,,,,3,8,38,4,,,,,,,,,,,AMSA08.jpg,AMNE20.jpg,AMNE06.jpg,AMSA20.jpg,AMSA20.jpg,MS,2,num_4,32,num_6,0.916832569172,,,2017_Oct_23_1837,59.9986721823,FEMA4ImagesEEG,001,201916,
AFNE01.JPG,AFNE01.JPG,AFNE01.JPG,AFNE01.JPG,AFNE01.JPG,AFNE01.JPG,,,,,,,,,,,,,3,9,39,9,,,,,,,,,,,AMNE04.jpg,AMSA05.jpg,AMNE06.jpg,AMSA07.jpg,AMNE06.jpg,MN,1,num_2,16,num_2,1.23341560306,,,2017_Oct_23_1837,59.9986721823,FEMA4ImagesEEG,001,201916,
AFNE01.JPG,AFNE01.JPG,AFNE01.JPG,AFNE01.JPG,AFNE01.JPG,AFNE01.JPG,,,,,,,,,,,,,4,0,40,6,,,,,,,,,,,AMNE13.jpg,AMNE18.jpg,AMSA04.jpg,AMSA14.jpg,AMSA14.jpg,MS,2,num_4,16,num_4,0.516821343335,,,2017_Oct_23_1837,59.9986721823,FEMA4ImagesEEG,001,201916,
AFNE01.JPG,AFNE01.JPG,AFNE01.JPG,AFNE01.JPG,AFNE01.JPG,AFNE01.JPG,,,,,,,,,,,,,4,1,41,4,,,,,,,,,,,AMNE09.jpg,AMSA19.jpg,AMSA12.jpg,AMNE18.jpg,AMNE09.jpg,MN,1,num_8,16,num_8,0.733449120307,,,2017_Oct_23_1837,59.9986721823,FEMA4ImagesEEG,001,201916,
AFNE01.JPG,AFNE01.JPG,AFNE01.JPG,AFNE01.JPG,AFNE01.JPG,AFNE01.JPG,,,,,,,,,,,,,4,2,42,7,,,,,,,,,,,AMSA03.jpg,AMSA11.jpg,AMNE12.jpg,AMNE06.jpg,AMSA03.jpg,MS,2,num_8,16,num_8,1.2833646856,,,2017_Oct_23_1837,59.9986721823,FEMA4ImagesEEG,001,201916,
AFNE01.JPG,AFNE01.JPG,AFNE01.JPG,AFNE01.JPG,AFNE01.JPG,AFNE01.JPG,,,,,,,,,,,,,4,3,43,9,,,,,,,,,,,AMSA13.jpg,AMNE08.jpg,AMNE11.jpg,AMSA05.jpg,AMSA05.jpg,MS,2,num_4,16,num_4,0.866746530752,,,2017_Oct_23_1837,59.9986721823,FEMA4ImagesEEG,001,201916,
AFNE01.JPG,AFNE01.JPG,AFNE01.JPG,AFNE01.JPG,AFNE01.JPG,AFNE01.JPG,,,,,,,,,,,,,4,4,44,5,,,,,,,,,,,AMNE12.jpg,AMNE18.jpg,AMSA06.jpg,AMSA20.jpg,AMNE18.jpg,MN,1,num_6,32,num_8,1.10012139985,,,2017_Oct_23_1837,59.9986721823,FEMA4ImagesEEG,001,201916,
AFNE01.JPG,AFNE01.JPG,AFNE01.JPG,AFNE01.JPG,AFNE01.JPG,AFNE01.JPG,,,,,,,,,,,,,4,5,45,2,,,,,,,,,,,AMSA16.jpg,AMNE04.jpg,AMSA13.jpg,AMNE08.jpg,AMSA13.jpg,MS,2,num_2,16,num_2,0.450171675766,,,2017_Oct_23_1837,59.9986721823,FEMA4ImagesEEG,001,201916,
AFNE01.JPG,AFNE01.JPG,AFNE01.JPG,AFNE01.JPG,AFNE01.JPG,AFNE01.JPG,,,,,,,,,,,,,4,6,46,1,,,,,,,,,,,AMSA16.jpg,AMSA08.jpg,AMNE14.jpg,AMNE17.jpg,AMSA16.jpg,MS,2,num_8,16,num_8,0.950097424677,,,2017_Oct_23_1837,59.9986721823,FEMA4ImagesEEG,001,201916,
AFNE01.JPG,AFNE01.JPG,AFNE01.JPG,AFNE01.JPG,AFNE01.JPG,AFNE01.JPG,,,,,,,,,,,,,4,7,47,8,,,,,,,,,,,AMSA04.jpg,AMNE07.jpg,AMNE16.jpg,AMSA13.jpg,AMSA13.jpg,MS,2,num_4,32,num_6,1.26674332342,,,2017_Oct_23_1837,59.9986721823,FEMA4ImagesEEG,001,201916,
AFNE01.JPG,AFNE01.JPG,AFNE01.JPG,AFNE01.JPG,AFNE01.JPG,AFNE01.JPG,,,,,,,,,,,,,4,8,48,3,,,,,,,,,,,AMSA12.jpg,AMNE11.jpg,AMNE01.jpg,AMSA20.jpg,AMNE01.jpg,MN,1,num_2,32,num_4,1.68337174191,,,2017_Oct_23_1837,59.9986721823,FEMA4ImagesEEG,001,201916,
AFNE01.JPG,AFNE01.JPG,AFNE01.JPG,AFNE01.JPG,AFNE01.JPG,AFNE01.JPG,,,,,,,,,,,,,4,9,49,0,,,,,,,,,,,AMNE16.jpg,AMSA05.jpg,AMNE04.jpg,AMSA04.jpg,AMSA04.jpg,MS,2,num_4,16,num_4,0.983402372454,,,2017_Oct_23_1837,59.9986721823,FEMA4ImagesEEG,001,201916,
AFNE01.JPG,AFNE01.JPG,AFNE01.JPG,AFNE01.JPG,AFNE01.JPG,AFNE01.JPG,,,,,,,,,,,,,5,0,50,9,,,,,,,,,,,AMSA02.jpg,AMNE14.jpg,AMSA09.jpg,AMNE12.jpg,AMSA02.jpg,MS,2,num_8,16,num_8,0.93343115889,,,2017_Oct_23_1837,59.9986721823,FEMA4ImagesEEG,001,201916,
AFNE01.JPG,AFNE01.JPG,AFNE01.JPG,AFNE01.JPG,AFNE01.JPG,AFNE01.JPG,,,,,,,,,,,,,5,1,51,6,,,,,,,,,,,AMNE19.jpg,AMSA01.jpg,AMSA14.jpg,AMNE20.jpg,AMSA14.jpg,MS,2,num_2,16,num_2,0.70013262576,,,2017_Oct_23_1837,59.9986721823,FEMA4ImagesEEG,001,201916,
AFNE01.JPG,AFNE01.JPG,AFNE01.JPG,AFNE01.JPG,AFNE01.JPG,AFNE01.JPG,,,,,,,,,,,,,5,2,52,5,,,,,,,,,,,AMSA17.jpg,AMNE08.jpg,AMNE11.jpg,AMSA09.jpg,AMSA17.jpg,MS,2,num_8,16,num_8,2.31665359647,,,2017_Oct_23_1837,59.9986721823,FEMA4ImagesEEG,001,201916,
AFNE01.JPG,AFNE01.JPG,AFNE01.JPG,AFNE01.JPG,AFNE01.JPG,AFNE01.JPG,,,,,,,,,,,,,5,3,53,2,,,,,,,,,,,AMSA14.jpg,AMNE12.jpg,AMNE01.jpg,AMSA10.jpg,AMSA14.jpg,MS,2,num_8,16,num_8,0.616794561502,,,2017_Oct_23_1837,59.9986721823,FEMA4ImagesEEG,001,201916,
AFNE01.JPG,AFNE01.JPG,AFNE01.JPG,AFNE01.JPG,AFNE01.JPG,AFNE01.JPG,,,,,,,,,,,,,5,4,54,7,,,,,,,,,,,AMSA04.jpg,AMNE06.jpg,AMSA02.jpg,AMNE14.jpg,AMNE06.jpg,MN,1,num_6,16,num_6,0.916837059543,,,2017_Oct_23_1837,59.9986721823,FEMA4ImagesEEG,001,201916,
AFNE01.JPG,AFNE01.JPG,AFNE01.JPG,AFNE01.JPG,AFNE01.JPG,AFNE01.JPG,,,,,,,,,,,,,5,5,55,4,,,,,,,,,,,AMSA07.jpg,AMSA09.jpg,AMNE06.jpg,AMNE03.jpg,AMSA07.jpg,MS,2,num_8,16,num_8,0.766740276362,,,2017_Oct_23_1837,59.9986721823,FEMA4ImagesEEG,001,201916,
AFNE01.JPG,AFNE01.JPG,AFNE01.JPG,AFNE01.JPG,AFNE01.JPG,AFNE01.JPG,,,,,,,,,,,,,5,6,56,3,,,,,,,,,,,AMNE19.jpg,AMNE08.jpg,AMSA16.jpg,AMSA14.jpg,AMSA16.jpg,MS,2,num_2,32,num_8,0.8501023961,,,2017_Oct_23_1837,59.9986721823,FEMA4ImagesEEG,001,201916,
AFNE01.JPG,AFNE01.JPG,AFNE01.JPG,AFNE01.JPG,AFNE01.JPG,AFNE01.JPG,,,,,,,,,,,,,5,7,57,1,,,,,,,,,,,AMNE14.jpg,AMSA06.jpg,AMNE04.jpg,AMSA14.jpg,AMSA14.jpg,MS,2,num_4,16,num_4,0.683088849648,,,2017_Oct_23_1837,59.9986721823,FEMA4ImagesEEG,001,201916,
AFNE01.JPG,AFNE01.JPG,AFNE01.JPG,AFNE01.JPG,AFNE01.JPG,AFNE01.JPG,,,,,,,,,,,,,5,8,58,8,,,,,,,,,,,AMNE20.jpg,AMNE12.jpg,AMSA18.jpg,AMSA06.jpg,AMNE20.jpg,MN,1,num_8,16,num_8,0.516795042553,,,2017_Oct_23_1837,59.9986721823,FEMA4ImagesEEG,001,201916,
AFNE01.JPG,AFNE01.JPG,AFNE01.JPG,AFNE01.JPG,AFNE01.JPG,AFNE01.JPG,,,,,,,,,,,,,5,9,59,0,,,,,,,,,,,AMSA09.jpg,AMSA05.jpg,AMNE14.jpg,AMNE15.jpg,AMNE14.jpg,MN,1,num_2,16,num_2,0.633508617524,,,2017_Oct_23_1837,59.9986721823,FEMA4ImagesEEG,001,201916,
,,,,,,,,,,,,,,,,,,,,,,,,,,,,,,,,,,,,,,,,,,,space,14.6324322157,2017_Oct_23_1837,59.9986721823,FEMA4ImagesEEG,001,201916,
AFNE01.JPG,AFNE01.JPG,AFNE01.JPG,AFNE01.JPG,AFNE01.JPG,AFNE01.JPG,,,,,,,,,,,,,,,,,0,0,0,9,,,,,,,AFNE18.jpg,AFSA11.jpg,AFNE20.jpg,AFSA10.jpg,AFSA10.jpg,FS,4,num_4,32,num_6,1.11675655388,,,2017_Oct_23_1837,59.9986721823,FEMA4ImagesEEG,001,201916,
AFNE01.JPG,AFNE01.JPG,AFNE01.JPG,AFNE01.JPG,AFNE01.JPG,AFNE01.JPG,,,,,,,,,,,,,,,,,0,1,1,4,,,,,,,AFSA18.jpg,AFSA08.jpg,AFNE11.jpg,AFNE15.jpg,AFSA08.jpg,FS,4,num_6,32,num_4,0.900121079176,,,2017_Oct_23_1837,59.9986721823,FEMA4ImagesEEG,001,201916,
AFNE01.JPG,AFNE01.JPG,AFNE01.JPG,AFNE01.JPG,AFNE01.JPG,AFNE01.JPG,,,,,,,,,,,,,,,,,0,2,2,6,,,,,,,AFNE08.jpg,AFSA12.jpg,AFSA08.jpg,AFNE18.jpg,AFNE18.jpg,FN,3,num_4,32,num_8,1.03342522518,,,2017_Oct_23_1837,59.9986721823,FEMA4ImagesEEG,001,201916,
AFNE01.JPG,AFNE01.JPG,AFNE01.JPG,AFNE01.JPG,AFNE01.JPG,AFNE01.JPG,,,,,,,,,,,,,,,,,0,3,3,0,,,,,,,AFSA17.jpg,AFNE18.jpg,AFSA08.jpg,AFNE15.jpg,AFSA17.jpg,FS,4,num_8,16,num_8,0.866751662688,,,2017_Oct_23_1837,59.9986721823,FEMA4ImagesEEG,001,201916,
AFNE01.JPG,AFNE01.JPG,AFNE01.JPG,AFNE01.JPG,AFNE01.JPG,AFNE01.JPG,,,,,,,,,,,,,,,,,0,4,4,1,,,,,,,AFSA09.jpg,AFNE11.jpg,AFSA05.jpg,AFNE17.jpg,AFSA09.jpg,FS,4,num_8,32,num_4,0.750115385978,,,2017_Oct_23_1837,59.9986721823,FEMA4ImagesEEG,001,201916,
AFNE01.JPG,AFNE01.JPG,AFNE01.JPG,AFNE01.JPG,AFNE01.JPG,AFNE01.JPG,,,,,,,,,,,,,,,,,0,5,5,8,,,,,,,AFNE20.jpg,AFSA04.jpg,AFNE17.jpg,AFSA20.jpg,AFSA20.jpg,FS,4,num_4,32,num_2,1.20007665677,,,2017_Oct_23_1837,59.9986721823,FEMA4ImagesEEG,001,201916,
AFNE01.JPG,AFNE01.JPG,AFNE01.JPG,AFNE01.JPG,AFNE01.JPG,AFNE01.JPG,,,,,,,,,,,,,,,,,0,6,6,3,,,,,,,AFSA19.jpg,AFNE18.jpg,AFNE13.jpg,AFSA07.jpg,AFNE13.jpg,FN,3,num_2,32,num_8,1.26671798504,,,2017_Oct_23_1837,59.9986721823,FEMA4ImagesEEG,001,201916,
AFNE01.JPG,AFNE01.JPG,AFNE01.JPG,AFNE01.JPG,AFNE01.JPG,AFNE01.JPG,,,,,,,,,,,,,,,,,0,7,7,5,,,,,,,AFSA16.jpg,AFNE04.jpg,AFSA13.jpg,AFNE05.jpg,AFNE05.jpg,FN,3,num_4,16,num_4,0.683460907429,,,2017_Oct_23_1837,59.9986721823,FEMA4ImagesEEG,001,201916,
AFNE01.JPG,AFNE01.JPG,AFNE01.JPG,AFNE01.JPG,AFNE01.JPG,AFNE01.JPG,,,,,,,,,,,,,,,,,0,8,8,7,,,,,,,AFNE09.jpg,AFSA08.jpg,AFNE10.jpg,AFSA01.jpg,AFNE10.jpg,FN,3,num_2,32,num_8,0.76674701192,,,2017_Oct_23_1837,59.9986721823,FEMA4ImagesEEG,001,201916,
AFNE01.JPG,AFNE01.JPG,AFNE01.JPG,AFNE01.JPG,AFNE01.JPG,AFNE01.JPG,,,,,,,,,,,,,,,,,0,9,9,2,,,,,,,AFNE08.jpg,AFNE09.jpg,AFSA17.jpg,AFSA08.jpg,AFSA17.jpg,FS,4,num_2,32,num_4,0.783464916749,,,2017_Oct_23_1837,59.9986721823,FEMA4ImagesEEG,001,201916,
AFNE01.JPG,AFNE01.JPG,AFNE01.JPG,AFNE01.JPG,AFNE01.JPG,AFNE01.JPG,,,,,,,,,,,,,,,,,1,0,10,6,,,,,,,AFNE11.jpg,AFSA02.jpg,AFNE08.jpg,AFSA01.jpg,AFSA01.jpg,FS,4,num_4,16,num_4,0.700140644214,,,2017_Oct_23_1837,59.9986721823,FEMA4ImagesEEG,001,201916,
AFNE01.JPG,AFNE01.JPG,AFNE01.JPG,AFNE01.JPG,AFNE01.JPG,AFNE01.JPG,,,,,,,,,,,,,,,,,1,1,11,0,,,,,,,AFNE20.jpg,AFNE05.jpg,AFSA15.jpg,AFSA02.jpg,AFNE05.jpg,FN,3,num_6,32,num_8,0.766636356711,,,2017_Oct_23_1837,59.9986721823,FEMA4ImagesEEG,001,201916,
AFNE01.JPG,AFNE01.JPG,AFNE01.JPG,AFNE01.JPG,AFNE01.JPG,AFNE01.JPG,,,,,,,,,,,,,,,,,1,2,12,3,,,,,,,AFNE02.jpg,AFNE16.jpg,AFSA03.jpg,AFSA05.jpg,AFNE16.jpg,FN,3,num_6,16,num_6,0.733478628332,,,2017_Oct_23_1837,59.9986721823,FEMA4ImagesEEG,001,201916,
AFNE01.JPG,AFNE01.JPG,AFNE01.JPG,AFNE01.JPG,AFNE01.JPG,AFNE01.JPG,,,,,,,,,,,,,,,,,1,3,13,1,,,,,,,AFSA17.jpg,AFNE07.jpg,AFNE09.jpg,AFSA03.jpg,AFNE07.jpg,FN,3,num_6,16,num_6,0.866747172317,,,2017_Oct_23_1837,59.9986721823,FEMA4ImagesEEG,001,201916,
AFNE01.JPG,AFNE01.JPG,AFNE01.JPG,AFNE01.JPG,AFNE01.JPG,AFNE01.JPG,,,,,,,,,,,,,,,,,1,4,14,7,,,,,,,AFNE10.jpg,AFSA13.jpg,AFSA10.jpg,AFNE06.jpg,AFNE10.jpg,FN,3,num_8,16,num_8,0.833450242877,,,2017_Oct_23_1837,59.9986721823,FEMA4ImagesEEG,001,201916,
AFNE01.JPG,AFNE01.JPG,AFNE01.JPG,AFNE01.JPG,AFNE01.JPG,AFNE01.JPG,,,,,,,,,,,,,,,,,1,5,15,2,,,,,,,AFSA17.jpg,AFSA12.jpg,AFNE12.jpg,AFNE01.jpg,AFSA12.jpg,FS,4,num_6,16,num_6,0.600271987147,,,2017_Oct_23_1837,59.9986721823,FEMA4ImagesEEG,001,201916,
AFNE01.JPG,AFNE01.JPG,AFNE01.JPG,AFNE01.JPG,AFNE01.JPG,AFNE01.JPG,,,,,,,,,,,,,,,,,1,6,16,8,,,,,,,AFSA18.jpg,AFNE10.jpg,AFSA04.jpg,AFNE15.jpg,AFSA18.jpg,FS,4,num_8,16,num_8,0.783454011544,,,2017_Oct_23_1837,59.9986721823,FEMA4ImagesEEG,001,201916,
AFNE01.JPG,AFNE01.JPG,AFNE01.JPG,AFNE01.JPG,AFNE01.JPG,AFNE01.JPG,,,,,,,,,,,,,,,,,1,7,17,9,,,,,,,AFNE02.jpg,AFSA03.jpg,AFSA08.jpg,AFNE18.jpg,AFSA08.jpg,FS,4,num_2,16,num_2,0.750152271125,,,2017_Oct_23_1837,59.9986721823,FEMA4ImagesEEG,001,201916,
AFNE01.JPG,AFNE01.JPG,AFNE01.JPG,AFNE01.JPG,AFNE01.JPG,AFNE01.JPG,,,,,,,,,,,,,,,,,1,8,18,4,,,,,,,AFNE20.jpg,AFNE09.jpg,AFSA14.jpg,AFSA04.jpg,AFSA04.jpg,FS,4,num_4,32,num_8,1.26677507663,,,2017_Oct_23_1837,59.9986721823,FEMA4ImagesEEG,001,201916,
AFNE01.JPG,AFNE01.JPG,AFNE01.JPG,AFNE01.JPG,AFNE01.JPG,AFNE01.JPG,,,,,,,,,,,,,,,,,1,9,19,5,,,,,,,AFSA07.jpg,AFNE09.jpg,AFSA14.jpg,AFNE01.jpg,AFNE01.jpg,FN,3,num_4,32,num_6,0.783527460881,,,2017_Oct_23_1837,59.9986721823,FEMA4ImagesEEG,001,201916,
AFNE01.JPG,AFNE01.JPG,AFNE01.JPG,AFNE01.JPG,AFNE01.JPG,AFNE01.JPG,,,,,,,,,,,,,,,,,2,0,20,0,,,,,,,AFSA07.jpg,AFNE15.jpg,AFSA03.jpg,AFNE20.jpg,AFSA07.jpg,FS,4,num_8,32,num_6,1.04998340178,,,2017_Oct_23_1837,59.9986721823,FEMA4ImagesEEG,001,201916,
AFNE01.JPG,AFNE01.JPG,AFNE01.JPG,AFNE01.JPG,AFNE01.JPG,AFNE01.JPG,,,,,,,,,,,,,,,,,2,1,21,4,,,,,,,AFNE12.jpg,AFSA04.jpg,AFSA01.jpg,AFNE05.jpg,AFNE05.jpg,FN,3,num_4,32,num_6,0.933449440985,,,2017_Oct_23_1837,59.9986721823,FEMA4ImagesEEG,001,201916,
AFNE01.JPG,AFNE01.JPG,AFNE01.JPG,AFNE01.JPG,AFNE01.JPG,AFNE01.JPG,,,,,,,,,,,,,,,,,2,2,22,8,,,,,,,AFNE06.jpg,AFSA18.jpg,AFSA07.jpg,AFNE02.jpg,AFSA07.jpg,FS,4,num_2,32,num_8,1.06686680811,,,2017_Oct_23_1837,59.9986721823,FEMA4ImagesEEG,001,201916,
AFNE01.JPG,AFNE01.JPG,AFNE01.JPG,AFNE01.JPG,AFNE01.JPG,AFNE01.JPG,,,,,,,,,,,,,,,,,2,3,23,6,,,,,,,AFNE20.jpg,AFSA07.jpg,AFNE09.jpg,AFSA03.jpg,AFNE09.jpg,FN,3,num_2,32,num_6,0.983442785684,,,2017_Oct_23_1837,59.9986721823,FEMA4ImagesEEG,001,201916,
AFNE01.JPG,AFNE01.JPG,AFNE01.JPG,AFNE01.JPG,AFNE01.JPG,AFNE01.JPG,,,,,,,,,,,,,,,,,2,4,24,2,,,,,,,AFNE03.jpg,AFNE07.jpg,AFSA06.jpg,AFSA13.jpg,AFNE03.jpg,FN,3,num_8,32,num_4,0.800138880266,,,2017_Oct_23_1837,59.9986721823,FEMA4ImagesEEG,001,201916,
AFNE01.JPG,AFNE01.JPG,AFNE01.JPG,AFNE01.JPG,AFNE01.JPG,AFNE01.JPG,,,,,,,,,,,,,,,,,2,5,25,3,,,,,,,AFNE10.jpg,AFSA13.jpg,AFSA06.jpg,AFNE12.jpg,AFSA13.jpg,FS,4,num_6,32,num_2,1.01714769576,,,2017_Oct_23_1837,59.9986721823,FEMA4ImagesEEG,001,201916,
AFNE01.JPG,AFNE01.JPG,AFNE01.JPG,AFNE01.JPG,AFNE01.JPG,AFNE01.JPG,,,,,,,,,,,,,,,,,2,6,26,5,,,,,,,AFNE18.jpg,AFSA17.jpg,AFSA20.jpg,AFNE10.jpg,AFNE10.jpg,FN,3,num_4,16,num_4,1.06674781383,,,2017_Oct_23_1837,59.9986721823,FEMA4ImagesEEG,001,201916,
AFNE01.JPG,AFNE01.JPG,AFNE01.JPG,AFNE01.JPG,AFNE01.JPG,AFNE01.JPG,,,,,,,,,,,,,,,,,2,7,27,9,,,,,,,AFNE14.jpg,AFSA20.jpg,AFNE16.jpg,AFSA02.jpg,AFNE16.jpg,FN,3,num_2,16,num_2,0.516725121415,,,2017_Oct_23_1837,59.9986721823,FEMA4ImagesEEG,001,201916,
AFNE01.JPG,AFNE01.JPG,AFNE01.JPG,AFNE01.JPG,AFNE01.JPG,AFNE01.JPG,,,,,,,,,,,,,,,,,2,8,28,7,,,,,,,AFSA07.jpg,AFNE11.jpg,AFNE16.jpg,AFSA06.jpg,AFSA07.jpg,FS,4,num_8,16,num_8,0.883428191999,,,2017_Oct_23_1837,59.9986721823,FEMA4ImagesEEG,001,201916,
AFNE01.JPG,AFNE01.JPG,AFNE01.JPG,AFNE01.JPG,AFNE01.JPG,AFNE01.JPG,,,,,,,,,,,,,,,,,2,9,29,1,,,,,,,AFSA20.jpg,AFNE20.jpg,AFNE08.jpg,AFSA08.jpg,AFNE20.jpg,FN,3,num_6,16,num_6,0.616678133141,,,2017_Oct_23_1837,59.9986721823,FEMA4ImagesEEG,001,201916,
AFNE01.JPG,AFNE01.JPG,AFNE01.JPG,AFNE01.JPG,AFNE01.JPG,AFNE01.JPG,,,,,,,,,,,,,,,,,3,0,30,9,,,,,,,AFNE06.jpg,AFSA08.jpg,AFNE12.jpg,AFSA06.jpg,AFNE06.jpg,FN,3,num_8,16,num_8,1.0834955473,,,2017_Oct_23_1837,59.9986721823,FEMA4ImagesEEG,001,201916,
AFNE01.JPG,AFNE01.JPG,AFNE01.JPG,AFNE01.JPG,AFNE01.JPG,AFNE01.JPG,,,,,,,,,,,,,,,,,3,1,31,1,,,,,,,AFNE02.jpg,AFSA03.jpg,AFSA05.jpg,AFNE13.jpg,AFNE02.jpg,FN,3,num_8,32,num_4,0.833452488063,,,2017_Oct_23_1837,59.9986721823,FEMA4ImagesEEG,001,201916,
AFNE01.JPG,AFNE01.JPG,AFNE01.JPG,AFNE01.JPG,AFNE01.JPG,AFNE01.JPG,,,,,,,,,,,,,,,,,3,2,32,3,,,,,,,AFNE08.jpg,AFSA17.jpg,AFNE16.jpg,AFSA20.jpg,AFNE08.jpg,FN,3,num_8,32,num_4,0.633425545995,,,2017_Oct_23_1837,59.9986721823,FEMA4ImagesEEG,001,201916,
AFNE01.JPG,AFNE01.JPG,AFNE01.JPG,AFNE01.JPG,AFNE01.JPG,AFNE01.JPG,,,,,,,,,,,,,,,,,3,3,33,6,,,,,,,AFSA05.jpg,AFSA18.jpg,AFNE03.jpg,AFNE16.jpg,AFSA05.jpg,FS,4,num_8,32,num_2,1.10010632512,,,2017_Oct_23_1837,59.9986721823,FEMA4ImagesEEG,001,201916,
AFNE01.JPG,AFNE01.JPG,AFNE01.JPG,AFNE01.JPG,AFNE01.JPG,AFNE01.JPG,,,,,,,,,,,,,,,,,3,4,34,8,,,,,,,AFNE05.jpg,AFSA04.jpg,AFSA05.jpg,AFNE07.jpg,AFNE05.jpg,FN,3,num_8,16,num_8,0.733475420973,,,2017_Oct_23_1837,59.9986721823,FEMA4ImagesEEG,001,201916,
AFNE01.JPG,AFNE01.JPG,AFNE01.JPG,AFNE01.JPG,AFNE01.JPG,AFNE01.JPG,,,,,,,,,,,,,,,,,3,5,35,2,,,,,,,AFSA14.jpg,AFSA01.jpg,AFNE12.jpg,AFNE03.jpg,AFSA14.jpg,FS,4,num_8,32,num_4,1.08343492751,,,2017_Oct_23_1837,59.9986721823,FEMA4ImagesEEG,001,201916,
AFNE01.JPG,AFNE01.JPG,AFNE01.JPG,AFNE01.JPG,AFNE01.JPG,AFNE01.JPG,,,,,,,,,,,,,,,,,3,6,36,5,,,,,,,AFNE06.jpg,AFSA03.jpg,AFNE19.jpg,AFSA09.jpg,AFNE06.jpg,FN,3,num_8,16,num_8,1.00011354184,,,2017_Oct_23_1837,59.9986721823,FEMA4ImagesEEG,001,201916,
AFNE01.JPG,AFNE01.JPG,AFNE01.JPG,AFNE01.JPG,AFNE01.JPG,AFNE01.JPG,,,,,,,,,,,,,,,,,3,7,37,7,,,,,,,AFNE09.jpg,AFSA19.jpg,AFNE04.jpg,AFSA10.jpg,AFNE09.jpg,FN,3,num_8,32,num_4,0.833459544345,,,2017_Oct_23_1837,59.9986721823,FEMA4ImagesEEG,001,201916,
AFNE01.JPG,AFNE01.JPG,AFNE01.JPG,AFNE01.JPG,AFNE01.JPG,AFNE01.JPG,,,,,,,,,,,,,,,,,3,8,38,4,,,,,,,AFSA13.jpg,AFNE20.jpg,AFNE19.jpg,AFSA07.jpg,AFSA13.jpg,FS,4,num_8,16,num_8,0.883411513641,,,2017_Oct_23_1837,59.9986721823,FEMA4ImagesEEG,001,201916,
AFNE01.JPG,AFNE01.JPG,AFNE01.JPG,AFNE01.JPG,AFNE01.JPG,AFNE01.JPG,,,,,,,,,,,,,,,,,3,9,39,0,,,,,,,AFNE16.jpg,AFSA07.jpg,AFNE11.jpg,AFSA12.jpg,AFSA12.jpg,FS,4,num_4,16,num_4,0.433491618256,,,2017_Oct_23_1837,59.9986721823,FEMA4ImagesEEG,001,201916,
AFNE01.JPG,AFNE01.JPG,AFNE01.JPG,AFNE01.JPG,AFNE01.JPG,AFNE01.JPG,,,,,,,,,,,,,,,,,4,0,40,0,,,,,,,AFNE07.jpg,AFSA07.jpg,AFNE04.jpg,AFSA19.jpg,AFSA19.jpg,FS,4,num_4,16,num_4,0.366838743445,,,2017_Oct_23_1837,59.9986721823,FEMA4ImagesEEG,001,201916,
AFNE01.JPG,AFNE01.JPG,AFNE01.JPG,AFNE01.JPG,AFNE01.JPG,AFNE01.JPG,,,,,,,,,,,,,,,,,4,1,41,9,,,,,,,AFSA15.jpg,AFNE12.jpg,AFNE10.jpg,AFSA13.jpg,AFSA13.jpg,FS,4,num_4,16,num_4,0.900101514068,,,2017_Oct_23_1837,59.9986721823,FEMA4ImagesEEG,001,201916,
AFNE01.JPG,AFNE01.JPG,AFNE01.JPG,AFNE01.JPG,AFNE01.JPG,AFNE01.JPG,,,,,,,,,,,,,,,,,4,2,42,6,,,,,,,AFNE11.jpg,AFNE19.jpg,AFSA10.jpg,AFSA11.jpg,AFNE19.jpg,FN,3,num_6,16,num_6,0.716758799041,,,2017_Oct_23_1837,59.9986721823,FEMA4ImagesEEG,001,201916,
AFNE01.JPG,AFNE01.JPG,AFNE01.JPG,AFNE01.JPG,AFNE01.JPG,AFNE01.JPG,,,,,,,,,,,,,,,,,4,3,43,8,,,,,,,AFSA02.jpg,AFNE09.jpg,AFNE11.jpg,AFSA12.jpg,AFNE11.jpg,FN,3,num_2,16,num_2,0.60008852405,,,2017_Oct_23_1837,59.9986721823,FEMA4ImagesEEG,001,201916,
AFNE01.JPG,AFNE01.JPG,AFNE01.JPG,AFNE01.JPG,AFNE01.JPG,AFNE01.JPG,,,,,,,,,,,,,,,,,4,4,44,2,,,,,,,AFNE16.jpg,AFNE12.jpg,AFSA06.jpg,AFSA02.jpg,AFSA02.jpg,FS,4,num_4,16,num_4,0.866769303335,,,2017_Oct_23_1837,59.9986721823,FEMA4ImagesEEG,001,201916,
AFNE01.JPG,AFNE01.JPG,AFNE01.JPG,AFNE01.JPG,AFNE01.JPG,AFNE01.JPG,,,,,,,,,,,,,,,,,4,5,45,5,,,,,,,AFSA08.jpg,AFNE01.jpg,AFSA17.jpg,AFNE15.jpg,AFNE15.jpg,FN,3,num_4,32,num_8,0.850098226452,,,2017_Oct_23_1837,59.9986721823,FEMA4ImagesEEG,001,201916,
AFNE01.JPG,AFNE01.JPG,AFNE01.JPG,AFNE01.JPG,AFNE01.JPG,AFNE01.JPG,,,,,,,,,,,,,,,,,4,6,46,1,,,,,,,AFNE02.jpg,AFSA05.jpg,AFNE13.jpg,AFSA06.jpg,AFNE02.jpg,FN,3,num_8,32,num_2,0.950073369197,,,2017_Oct_23_1837,59.9986721823,FEMA4ImagesEEG,001,201916,
AFNE01.JPG,AFNE01.JPG,AFNE01.JPG,AFNE01.JPG,AFNE01.JPG,AFNE01.JPG,,,,,,,,,,,,,,,,,4,7,47,7,,,,,,,AFNE01.jpg,AFSA03.jpg,AFNE05.jpg,AFSA16.jpg,AFNE01.jpg,FN,3,num_8,32,num_2,1.03344222438,,,2017_Oct_23_1837,59.9986721823,FEMA4ImagesEEG,001,201916,
AFNE01.JPG,AFNE01.JPG,AFNE01.JPG,AFNE01.JPG,AFNE01.JPG,AFNE01.JPG,,,,,,,,,,,,,,,,,4,8,48,4,,,,,,,AFSA01.jpg,AFNE08.jpg,AFSA10.jpg,AFNE06.jpg,AFSA10.jpg,FS,4,num_2,32,num_8,1.05010079243,,,2017_Oct_23_1837,59.9986721823,FEMA4ImagesEEG,001,201916,
AFNE01.JPG,AFNE01.JPG,AFNE01.JPG,AFNE01.JPG,AFNE01.JPG,AFNE01.JPG,,,,,,,,,,,,,,,,,4,9,49,3,,,,,,,AFNE01.jpg,AFSA18.jpg,AFSA19.jpg,AFNE03.jpg,AFSA19.jpg,FS,4,num_2,16,num_2,0.650173279573,,,2017_Oct_23_1837,59.9986721823,FEMA4ImagesEEG,001,201916,
AFNE01.JPG,AFNE01.JPG,AFNE01.JPG,AFNE01.JPG,AFNE01.JPG,AFNE01.JPG,,,,,,,,,,,,,,,,,5,0,50,0,,,,,,,AFNE15.jpg,AFSA20.jpg,AFSA17.jpg,AFNE07.jpg,AFNE07.jpg,FN,3,num_4,32,num_8,0.766738993465,,,2017_Oct_23_1837,59.9986721823,FEMA4ImagesEEG,001,201916,
AFNE01.JPG,AFNE01.JPG,AFNE01.JPG,AFNE01.JPG,AFNE01.JPG,AFNE01.JPG,,,,,,,,,,,,,,,,,5,1,51,8,,,,,,,AFSA06.jpg,AFNE06.jpg,AFNE02.jpg,AFSA16.jpg,AFNE06.jpg,FN,3,num_6,16,num_6,0.833486486459,,,2017_Oct_23_1837,59.9986721823,FEMA4ImagesEEG,001,201916,
AFNE01.JPG,AFNE01.JPG,AFNE01.JPG,AFNE01.JPG,AFNE01.JPG,AFNE01.JPG,,,,,,,,,,,,,,,,,5,2,52,1,,,,,,,AFNE01.jpg,AFNE19.jpg,AFSA18.jpg,AFSA15.jpg,AFNE01.jpg,FN,3,num_8,16,num_8,0.966744125239,,,2017_Oct_23_1837,59.9986721823,FEMA4ImagesEEG,001,201916,
AFNE01.JPG,AFNE01.JPG,AFNE01.JPG,AFNE01.JPG,AFNE01.JPG,AFNE01.JPG,,,,,,,,,,,,,,,,,5,3,53,4,,,,,,,AFNE16.jpg,AFSA10.jpg,AFSA14.jpg,AFNE03.jpg,AFSA10.jpg,FS,4,num_6,16,num_6,0.600117069902,,,2017_Oct_23_1837,59.9986721823,FEMA4ImagesEEG,001,201916,
AFNE01.JPG,AFNE01.JPG,AFNE01.JPG,AFNE01.JPG,AFNE01.JPG,AFNE01.JPG,,,,,,,,,,,,,,,,,5,4,54,6,,,,,,,AFNE13.jpg,AFSA11.jpg,AFSA15.jpg,AFNE09.jpg,AFSA11.jpg,FS,4,num_6,16,num_6,0.4335589736,,,2017_Oct_23_1837,59.9986721823,FEMA4ImagesEEG,001,201916,
AFNE01.JPG,AFNE01.JPG,AFNE01.JPG,AFNE01.JPG,AFNE01.JPG,AFNE01.JPG,,,,,,,,,,,,,,,,,5,5,55,2,,,,,,,AFNE04.jpg,AFSA16.jpg,AFNE09.jpg,AFSA12.jpg,AFNE09.jpg,FN,3,num_2,16,num_2,0.716781892348,,,2017_Oct_23_1837,59.9986721823,FEMA4ImagesEEG,001,201916,
AFNE01.JPG,AFNE01.JPG,AFNE01.JPG,AFNE01.JPG,AFNE01.JPG,AFNE01.JPG,,,,,,,,,,,,,,,,,5,6,56,3,,,,,,,AFSA18.jpg,AFNE10.jpg,AFNE07.jpg,AFSA08.jpg,AFNE10.jpg,FN,3,num_6,16,num_6,0.916744044982,,,2017_Oct_23_1837,59.9986721823,FEMA4ImagesEEG,001,201916,
AFNE01.JPG,AFNE01.JPG,AFNE01.JPG,AFNE01.JPG,AFNE01.JPG,AFNE01.JPG,,,,,,,,,,,,,,,,,5,7,57,5,,,,,,,AFSA05.jpg,AFNE08.jpg,AFNE03.jpg,AFSA20.jpg,AFSA05.jpg,FS,4,num_8,16,num_8,0.883441983839,,,2017_Oct_23_1837,59.9986721823,FEMA4ImagesEEG,001,201916,
AFNE01.JPG,AFNE01.JPG,AFNE01.JPG,AFNE01.JPG,AFNE01.JPG,AFNE01.JPG,,,,,,,,,,,,,,,,,5,8,58,9,,,,,,,AFSA10.jpg,AFNE20.jpg,AFNE06.jpg,AFSA06.jpg,AFNE06.jpg,FN,3,num_2,32,num_6,0.700089646736,,,2017_Oct_23_1837,59.9986721823,FEMA4ImagesEEG,001,201916,
AFNE01.JPG,AFNE01.JPG,AFNE01.JPG,AFNE01.JPG,AFNE01.JPG,AFNE01.JPG,,,,,,,,,,,,,,,,,5,9,59,7,,,,,,,AFSA11.jpg,AFNE11.jpg,AFSA05.jpg,AFNE10.jpg,AFSA11.jpg,FS,4,num_8,16,num_8,1.10016213381,,,2017_Oct_23_1837,59.9986721823,FEMA4ImagesEEG,001,201916,
,,,,,,,,,,,,,,,,,,,,,,,,,,,,,,,,,,,,,,,,,,,space,29.0148306736,2017_Oct_23_1837,59.9986721823,FEMA4ImagesEEG,001,201916,
AFNE01.JPG,AFNE01.JPG,AFNE01.JPG,AFNE01.JPG,AFNE01.JPG,AFNE01.JPG,,,,,,,,,,,,,,,,,,,,,0,0,0,5,,,AMSA18.jpg,AMNE11.jpg,AMNE12.jpg,AMSA15.jpg,AMNE11.jpg,MN,1,num_6,32,num_4,0.716416890849,,,2017_Oct_23_1837,59.9986721823,FEMA4ImagesEEG,001,201916,
AFNE01.JPG,AFNE01.JPG,AFNE01.JPG,AFNE01.JPG,AFNE01.JPG,AFNE01.JPG,,,,,,,,,,,,,,,,,,,,,0,1,1,6,,,AMSA19.jpg,AMNE18.jpg,AMSA07.jpg,AMNE11.jpg,AMNE11.jpg,MN,1,num_4,16,num_4,0.600114824716,,,2017_Oct_23_1837,59.9986721823,FEMA4ImagesEEG,001,201916,
AFNE01.JPG,AFNE01.JPG,AFNE01.JPG,AFNE01.JPG,AFNE01.JPG,AFNE01.JPG,,,,,,,,,,,,,,,,,,,,,0,2,2,0,,,AMSA14.jpg,AMNE09.jpg,AMNE04.jpg,AMSA11.jpg,AMNE09.jpg,MN,1,num_6,16,num_6,0.58353612083,,,2017_Oct_23_1837,59.9986721823,FEMA4ImagesEEG,001,201916,
AFNE01.JPG,AFNE01.JPG,AFNE01.JPG,AFNE01.JPG,AFNE01.JPG,AFNE01.JPG,,,,,,,,,,,,,,,,,,,,,0,3,3,3,,,AMNE12.jpg,AMSA07.jpg,AMSA08.jpg,AMNE09.jpg,AMNE12.jpg,MN,1,num_8,16,num_8,1.21650493378,,,2017_Oct_23_1837,59.9986721823,FEMA4ImagesEEG,001,201916,
AFNE01.JPG,AFNE01.JPG,AFNE01.JPG,AFNE01.JPG,AFNE01.JPG,AFNE01.JPG,,,,,,,,,,,,,,,,,,,,,0,4,4,9,,,AMNE08.jpg,AMSA04.jpg,AMNE11.jpg,AMSA06.jpg,AMNE08.jpg,MN,1,num_8,32,num_2,1.18344567239,,,2017_Oct_23_1837,59.9986721823,FEMA4ImagesEEG,001,201916,
AFNE01.JPG,AFNE01.JPG,AFNE01.JPG,AFNE01.JPG,AFNE01.JPG,AFNE01.JPG,,,,,,,,,,,,,,,,,,,,,0,5,5,4,,,AMNE13.jpg,AMNE02.jpg,AMSA17.jpg,AMSA05.jpg,AMSA05.jpg,MS,2,num_4,32,num_8,0.983425144921,,,2017_Oct_23_1837,59.9986721823,FEMA4ImagesEEG,001,201916,
AFNE01.JPG,AFNE01.JPG,AFNE01.JPG,AFNE01.JPG,AFNE01.JPG,AFNE01.JPG,,,,,,,,,,,,,,,,,,,,,0,6,6,2,,,AMNE02.jpg,AMSA12.jpg,AMNE08.jpg,AMSA11.jpg,AMNE08.jpg,MN,1,num_2,32,num_6,0.900101514068,,,2017_Oct_23_1837,59.9986721823,FEMA4ImagesEEG,001,201916,
AFNE01.JPG,AFNE01.JPG,AFNE01.JPG,AFNE01.JPG,AFNE01.JPG,AFNE01.JPG,,,,,,,,,,,,,,,,,,,,,0,7,7,1,,,AMSA04.jpg,AMNE03.jpg,AMSA02.jpg,AMNE02.jpg,AMNE02.jpg,MN,1,num_4,16,num_4,0.5668217442,,,2017_Oct_23_1837,59.9986721823,FEMA4ImagesEEG,001,201916,
AFNE01.JPG,AFNE01.JPG,AFNE01.JPG,AFNE01.JPG,AFNE01.JPG,AFNE01.JPG,,,,,,,,,,,,,,,,,,,,,0,8,8,8,,,AMNE10.jpg,AMNE08.jpg,AMSA11.jpg,AMSA10.jpg,AMNE08.jpg,MN,1,num_6,32,num_8,0.783422258333,,,2017_Oct_23_1837,59.9986721823,FEMA4ImagesEEG,001,201916,
AFNE01.JPG,AFNE01.JPG,AFNE01.JPG,AFNE01.JPG,AFNE01.JPG,AFNE01.JPG,,,,,,,,,,,,,,,,,,,,,0,9,9,7,,,AMSA13.jpg,AMSA08.jpg,AMNE05.jpg,AMNE15.jpg,AMSA13.jpg,MS,2,num_8,16,num_8,0.866762567777,,,2017_Oct_23_1837,59.9986721823,FEMA4ImagesEEG,001,201916,
AFNE01.JPG,AFNE01.JPG,AFNE01.JPG,AFNE01.JPG,AFNE01.JPG,AFNE01.JPG,,,,,,,,,,,,,,,,,,,,,1,0,10,1,,,AMNE15.jpg,AMSA15.jpg,AMNE11.jpg,AMSA06.jpg,AMNE11.jpg,MN,1,num_2,16,num_2,1.36680699012,,,2017_Oct_23_1837,59.9986721823,FEMA4ImagesEEG,001,201916,
AFNE01.JPG,AFNE01.JPG,AFNE01.JPG,AFNE01.JPG,AFNE01.JPG,AFNE01.JPG,,,,,,,,,,,,,,,,,,,,,1,1,11,2,,,AMSA20.jpg,AMNE01.jpg,AMNE18.jpg,AMSA15.jpg,AMSA15.jpg,MS,2,num_4,32,num_8,1.31673378136,,,2017_Oct_23_1837,59.9986721823,FEMA4ImagesEEG,001,201916,
AFNE01.JPG,AFNE01.JPG,AFNE01.JPG,AFNE01.JPG,AFNE01.JPG,AFNE01.JPG,,,,,,,,,,,,,,,,,,,,,1,2,12,6,,,AMSA09.jpg,AMSA07.jpg,AMNE11.jpg,AMNE09.jpg,AMNE11.jpg,MN,1,num_2,16,num_2,0.683514791774,,,2017_Oct_23_1837,59.9986721823,FEMA4ImagesEEG,001,201916,
AFNE01.JPG,AFNE01.JPG,AFNE01.JPG,AFNE01.JPG,AFNE01.JPG,AFNE01.JPG,,,,,,,,,,,,,,,,,,,,,1,3,13,9,,,AMNE16.jpg,AMNE07.jpg,AMSA06.jpg,AMSA01.jpg,AMNE07.jpg,MN,1,num_6,32,num_8,1.1167276873,,,2017_Oct_23_1837,59.9986721823,FEMA4ImagesEEG,001,201916,
AFNE01.JPG,AFNE01.JPG,AFNE01.JPG,AFNE01.JPG,AFNE01.JPG,AFNE01.JPG,,,,,,,,,,,,,,,,,,,,,1,4,14,7,,,AMSA08.jpg,AMSA18.jpg,AMNE13.jpg,AMNE16.jpg,AMSA18.jpg,MS,2,num_6,32,num_8,0.950144252623,,,2017_Oct_23_1837,59.9986721823,FEMA4ImagesEEG,001,201916,
AFNE01.JPG,AFNE01.JPG,AFNE01.JPG,AFNE01.JPG,AFNE01.JPG,AFNE01.JPG,,,,,,,,,,,,,,,,,,,,,1,5,15,5,,,AMNE12.jpg,AMSA09.jpg,AMSA17.jpg,AMNE17.jpg,AMNE12.jpg,MN,1,num_8,16,num_8,0.933438215172,,,2017_Oct_23_1837,59.9986721823,FEMA4ImagesEEG,001,201916,
AFNE01.JPG,AFNE01.JPG,AFNE01.JPG,AFNE01.JPG,AFNE01.JPG,AFNE01.JPG,,,,,,,,,,,,,,,,,,,,,1,6,16,8,,,AMSA10.jpg,AMNE12.jpg,AMSA05.jpg,AMNE08.jpg,AMNE08.jpg,MN,1,num_4,32,num_8,0.950118593406,,,2017_Oct_23_1837,59.9986721823,FEMA4ImagesEEG,001,201916,
AFNE01.JPG,AFNE01.JPG,AFNE01.JPG,AFNE01.JPG,AFNE01.JPG,AFNE01.JPG,,,,,,,,,,,,,,,,,,,,,1,7,17,4,,,AMSA16.jpg,AMNE10.jpg,AMNE19.jpg,AMSA01.jpg,AMSA16.jpg,MS,2,num_8,16,num_8,1.13344687503,,,2017_Oct_23_1837,59.9986721823,FEMA4ImagesEEG,001,201916,
AFNE01.JPG,AFNE01.JPG,AFNE01.JPG,AFNE01.JPG,AFNE01.JPG,AFNE01.JPG,,,,,,,,,,,,,,,,,,,,,1,8,18,3,,,AMNE06.jpg,AMNE03.jpg,AMSA12.jpg,AMSA04.jpg,AMSA04.jpg,MS,2,num_4,16,num_4,1.13345938397,,,2017_Oct_23_1837,59.9986721823,FEMA4ImagesEEG,001,201916,
AFNE01.JPG,AFNE01.JPG,AFNE01.JPG,AFNE01.JPG,AFNE01.JPG,AFNE01.JPG,,,,,,,,,,,,,,,,,,,,,1,9,19,0,,,AMSA03.jpg,AMNE18.jpg,AMSA20.jpg,AMNE09.jpg,AMSA20.jpg,MS,2,num_2,32,num_6,0.650035361527,,,2017_Oct_23_1837,59.9986721823,FEMA4ImagesEEG,001,201916,
AFNE01.JPG,AFNE01.JPG,AFNE01.JPG,AFNE01.JPG,AFNE01.JPG,AFNE01.JPG,,,,,,,,,,,,,,,,,,,,,2,0,20,7,,,AMNE07.jpg,AMSA20.jpg,AMNE10.jpg,AMSA14.jpg,AMSA14.jpg,MS,2,num_4,16,num_4,0.666775718099,,,2017_Oct_23_1837,59.9986721823,FEMA4ImagesEEG,001,201916,
AFNE01.JPG,AFNE01.JPG,AFNE01.JPG,AFNE01.JPG,AFNE01.JPG,AFNE01.JPG,,,,,,,,,,,,,,,,,,,,,2,1,21,3,,,AMNE18.jpg,AMSA06.jpg,AMSA05.jpg,AMNE08.jpg,AMNE08.jpg,MN,1,num_4,32,num_8,0.866815489833,,,2017_Oct_23_1837,59.9986721823,FEMA4ImagesEEG,001,201916,
AFNE01.JPG,AFNE01.JPG,AFNE01.JPG,AFNE01.JPG,AFNE01.JPG,AFNE01.JPG,,,,,,,,,,,,,,,,,,,,,2,2,22,0,,,AMSA06.jpg,AMNE16.jpg,AMNE05.jpg,AMSA13.jpg,AMNE16.jpg,MN,1,num_6,32,num_2,0.933536361437,,,2017_Oct_23_1837,59.9986721823,FEMA4ImagesEEG,001,201916,
AFNE01.JPG,AFNE01.JPG,AFNE01.JPG,AFNE01.JPG,AFNE01.JPG,AFNE01.JPG,,,,,,,,,,,,,,,,,,,,,2,3,23,4,,,AMNE18.jpg,AMNE12.jpg,AMSA20.jpg,AMSA09.jpg,AMSA09.jpg,MS,2,num_4,32,num_8,0.883445832646,,,2017_Oct_23_1837,59.9986721823,FEMA4ImagesEEG,001,201916,
AFNE01.JPG,AFNE01.JPG,AFNE01.JPG,AFNE01.JPG,AFNE01.JPG,AFNE01.JPG,,,,,,,,,,,,,,,,,,,,,2,4,24,1,,,AMNE04.jpg,AMNE02.jpg,AMSA20.jpg,AMSA16.jpg,AMSA16.jpg,MS,2,num_4,16,num_4,1.05009117024,,,2017_Oct_23_1837,59.9986721823,FEMA4ImagesEEG,001,201916,
AFNE01.JPG,AFNE01.JPG,AFNE01.JPG,AFNE01.JPG,AFNE01.JPG,AFNE01.JPG,,,,,,,,,,,,,,,,,,,,,2,5,25,9,,,AMSA19.jpg,AMSA15.jpg,AMNE15.jpg,AMNE11.jpg,AMNE15.jpg,MN,1,num_2,32,num_6,0.800127012888,,,2017_Oct_23_1837,59.9986721823,FEMA4ImagesEEG,001,201916,
AFNE01.JPG,AFNE01.JPG,AFNE01.JPG,AFNE01.JPG,AFNE01.JPG,AFNE01.JPG,,,,,,,,,,,,,,,,,,,,,2,6,26,2,,,AMSA19.jpg,AMNE01.jpg,AMNE03.jpg,AMSA14.jpg,AMNE03.jpg,MN,1,num_2,16,num_2,0.833462430979,,,2017_Oct_23_1837,59.9986721823,FEMA4ImagesEEG,001,201916,
AFNE01.JPG,AFNE01.JPG,AFNE01.JPG,AFNE01.JPG,AFNE01.JPG,AFNE01.JPG,,,,,,,,,,,,,,,,,,,,,2,7,27,5,,,AMNE12.jpg,AMSA09.jpg,AMSA10.jpg,AMNE19.jpg,AMNE12.jpg,MN,1,num_8,16,num_8,0.983414560673,,,2017_Oct_23_1837,59.9986721823,FEMA4ImagesEEG,001,201916,
AFNE01.JPG,AFNE01.JPG,AFNE01.JPG,AFNE01.JPG,AFNE01.JPG,AFNE01.JPG,,,,,,,,,,,,,,,,,,,,,2,8,28,8,,,AMSA15.jpg,AMSA04.jpg,AMNE05.jpg,AMNE06.jpg,AMNE06.jpg,MN,1,num_4,16,num_4,0.866754549323,,,2017_Oct_23_1837,59.9986721823,FEMA4ImagesEEG,001,201916,
AFNE01.JPG,AFNE01.JPG,AFNE01.JPG,AFNE01.JPG,AFNE01.JPG,AFNE01.JPG,,,,,,,,,,,,,,,,,,,,,2,9,29,6,,,AMNE17.jpg,AMNE11.jpg,AMSA08.jpg,AMSA05.jpg,AMSA05.jpg,MS,2,num_4,16,num_4,0.90012653172,,,2017_Oct_23_1837,59.9986721823,FEMA4ImagesEEG,001,201916,
AFNE01.JPG,AFNE01.JPG,AFNE01.JPG,AFNE01.JPG,AFNE01.JPG,AFNE01.JPG,,,,,,,,,,,,,,,,,,,,,3,0,30,6,,,AMNE20.jpg,AMSA12.jpg,AMNE03.jpg,AMSA04.jpg,AMNE20.jpg,MN,1,num_8,32,num_6,0.800197254866,,,2017_Oct_23_1837,59.9986721823,FEMA4ImagesEEG,001,201916,
AFNE01.JPG,AFNE01.JPG,AFNE01.JPG,AFNE01.JPG,AFNE01.JPG,AFNE01.JPG,,,,,,,,,,,,,,,,,,,,,3,1,31,2,,,AMNE04.jpg,AMSA09.jpg,AMSA04.jpg,AMNE06.jpg,AMNE04.jpg,MN,1,num_8,32,num_2,1.05013382854,,,2017_Oct_23_1837,59.9986721823,FEMA4ImagesEEG,001,201916,
AFNE01.JPG,AFNE01.JPG,AFNE01.JPG,AFNE01.JPG,AFNE01.JPG,AFNE01.JPG,,,,,,,,,,,,,,,,,,,,,3,2,32,7,,,AMNE07.jpg,AMNE08.jpg,AMSA09.jpg,AMSA19.jpg,AMSA19.jpg,MS,2,num_4,32,num_8,0.98345529451,,,2017_Oct_23_1837,59.9986721823,FEMA4ImagesEEG,001,201916,
AFNE01.JPG,AFNE01.JPG,AFNE01.JPG,AFNE01.JPG,AFNE01.JPG,AFNE01.JPG,,,,,,,,,,,,,,,,,,,,,3,3,33,3,,,AMSA03.jpg,AMNE17.jpg,AMNE16.jpg,AMSA20.jpg,AMNE17.jpg,MN,1,num_6,16,num_6,0.633473656839,,,2017_Oct_23_1837,59.9986721823,FEMA4ImagesEEG,001,201916,
AFNE01.JPG,AFNE01.JPG,AFNE01.JPG,AFNE01.JPG,AFNE01.JPG,AFNE01.JPG,,,,,,,,,,,,,,,,,,,,,3,4,34,9,,,AMNE19.jpg,AMSA19.jpg,AMSA03.jpg,AMNE10.jpg,AMNE19.jpg,MN,1,num_8,16,num_8,0.883526658989,,,2017_Oct_23_1837,59.9986721823,FEMA4ImagesEEG,001,201916,
AFNE01.JPG,AFNE01.JPG,AFNE01.JPG,AFNE01.JPG,AFNE01.JPG,AFNE01.JPG,,,,,,,,,,,,,,,,,,,,,3,5,35,4,,,AMSA15.jpg,AMNE06.jpg,AMSA08.jpg,AMNE01.jpg,AMSA08.jpg,MS,2,num_2,32,num_8,0.850133187021,,,2017_Oct_23_1837,59.9986721823,FEMA4ImagesEEG,001,201916,
AFNE01.JPG,AFNE01.JPG,AFNE01.JPG,AFNE01.JPG,AFNE01.JPG,AFNE01.JPG,,,,,,,,,,,,,,,,,,,,,3,6,36,8,,,AMNE10.jpg,AMSA01.jpg,AMNE07.jpg,AMSA07.jpg,AMSA01.jpg,MS,2,num_6,16,num_6,0.533473496558,,,2017_Oct_23_1837,59.9986721823,FEMA4ImagesEEG,001,201916,
AFNE01.JPG,AFNE01.JPG,AFNE01.JPG,AFNE01.JPG,AFNE01.JPG,AFNE01.JPG,,,,,,,,,,,,,,,,,,,,,3,7,37,5,,,AMSA06.jpg,AMSA03.jpg,AMNE14.jpg,AMNE02.jpg,AMSA03.jpg,MS,2,num_6,32,num_4,1.03342426301,,,2017_Oct_23_1837,59.9986721823,FEMA4ImagesEEG,001,201916,
AFNE01.JPG,AFNE01.JPG,AFNE01.JPG,AFNE01.JPG,AFNE01.JPG,AFNE01.JPG,,,,,,,,,,,,,,,,,,,,,3,8,38,1,,,AMSA05.jpg,AMNE14.jpg,AMSA18.jpg,AMNE20.jpg,AMNE14.jpg,MN,1,num_6,16,num_6,0.48331240518,,,2017_Oct_23_1837,59.9986721823,FEMA4ImagesEEG,001,201916,
