IPosition2,IPosition3,IPosition1,IPosition6,IPosition4,IPosition5,TrialsM1.thisRepN,TrialsM1.thisTrialN,TrialsM1.thisN,TrialsM1.thisIndex,TrialsF1.thisRepN,TrialsF1.thisTrialN,TrialsF1.thisN,TrialsF1.thisIndex,TrialsM2.thisRepN,TrialsM2.thisTrialN,TrialsM2.thisN,TrialsM2.thisIndex,TrialsF2.thisRepN,TrialsF2.thisTrialN,TrialsF2.thisN,TrialsF2.thisIndex,TrialsM3.thisRepN,TrialsM3.thisTrialN,TrialsM3.thisN,TrialsM3.thisIndex,TrialsF3.thisRepN,TrialsF3.thisTrialN,TrialsF3.thisN,TrialsF3.thisIndex,InstrKey_resp.keys,InstrKey_resp.rt,Image0 _Position,Image1 _Position,Image2 _Position,Image3 _Position,Center_image,condition,code,correct_answer,accuracy,Key_Resp.keys,Key_Resp.rt,BreakKey_resp.keys,BreakKey_resp.rt,date,frameRate,expName,session,participant,
,,,,,,,,,,,,,,,,,,,,,,,,,,,,,,space,10.2994741476,,,,,,,,,,,,,,2017_Oct_23_1532,60.0057160944,MAFE4ImagesEEG,001,201996,
AMSA21.JPG,AMNE23.JPG,AMNE21.JPG,AMSA25.JPG,AMNE25.JPG,AMSA23.JPG,0,0,0,5,,,,,,,,,,,,,,,,,,,,,,,AMSA20.jpg,AMNE10.jpg,AMSA09.jpg,AMNE05.jpg,AMSA09.jpg,MS,2,num_2,32,num_6,1.36680602795,,,2017_Oct_23_1532,60.0057160944,MAFE4ImagesEEG,001,201996,
AFNE22.JPG,AFSA24.JPG,AFSA22.JPG,AFNE25.JPG,AFNE24.JPG,AFSA25.JPG,0,1,1,6,,,,,,,,,,,,,,,,,,,,,,,AMNE14.jpg,AMSA20.jpg,AMNE05.jpg,AMSA13.jpg,AMNE14.jpg,MN,1,num_8,16,num_8,0.866747172317,,,2017_Oct_23_1532,60.0057160944,MAFE4ImagesEEG,001,201996,
AFNE23.JPG,AFNE24.JPG,AFNE22.JPG,AFSA24.JPG,AFSA22.JPG,AFSA23.JPG,0,2,2,8,,,,,,,,,,,,,,,,,,,,,,,AMSA18.jpg,AMNE14.jpg,AMNE07.jpg,AMSA17.jpg,AMNE07.jpg,MN,1,num_2,16,num_2,1.10012781469,,,2017_Oct_23_1532,60.0057160944,MAFE4ImagesEEG,001,201996,
AMNE23.JPG,AMNE24.JPG,AMNE22.JPG,AMSA24.JPG,AMSA22.JPG,AMSA23.JPG,0,3,3,9,,,,,,,,,,,,,,,,,,,,,,,AMNE18.jpg,AMSA19.jpg,AMSA11.jpg,AMNE14.jpg,AMNE18.jpg,MN,1,num_8,32,num_4,2.53330158012,,,2017_Oct_23_1532,60.0057160944,MAFE4ImagesEEG,001,201996,
AFSA25.JPG,AFNE24.JPG,AFSA24.JPG,AFNE21.JPG,AFSA21.JPG,AFNE25.JPG,0,4,4,2,,,,,,,,,,,,,,,,,,,,,,,AMNE20.jpg,AMSA01.jpg,AMNE17.jpg,AMSA07.jpg,AMNE20.jpg,MN,1,num_8,32,num_2,1.7835021225,,,2017_Oct_23_1532,60.0057160944,MAFE4ImagesEEG,001,201996,
AMSA21.JPG,AMNE22.JPG,AMNE21.JPG,AMSA23.JPG,AMSA22.JPG,AMNE23.JPG,0,5,5,1,,,,,,,,,,,,,,,,,,,,,,,AMSA01.jpg,AMSA07.jpg,AMNE14.jpg,AMNE18.jpg,AMNE14.jpg,MN,1,num_2,32,num_8,1.25009598129,,,2017_Oct_23_1532,60.0057160944,MAFE4ImagesEEG,001,201996,
AMSA25.JPG,AMNE24.JPG,AMSA24.JPG,AMNE26.JPG,AMSA21.JPG,AMNE25.JPG,0,6,6,3,,,,,,,,,,,,,,,,,,,,,,,AMNE07.jpg,AMSA20.jpg,AMNE11.jpg,AMSA07.jpg,AMNE07.jpg,MN,1,num_8,16,num_8,1.35004578554,,,2017_Oct_23_1532,60.0057160944,MAFE4ImagesEEG,001,201996,
AMNE22.JPG,AMSA24.JPG,AMSA22.JPG,AMNE25.JPG,AMNE24.JPG,AMSA25.JPG,0,7,7,7,,,,,,,,,,,,,,,,,,,,,,,AMNE14.jpg,AMNE16.jpg,AMSA13.jpg,AMSA17.jpg,AMSA13.jpg,MS,2,num_2,32,num_6,1.96680506575,,,2017_Oct_23_1532,60.0057160944,MAFE4ImagesEEG,001,201996,
AFSA21.JPG,AFNE22.JPG,AFNE21.JPG,AFSA23.JPG,AFSA22.JPG,AFNE23.JPG,0,8,8,0,,,,,,,,,,,,,,,,,,,,,,,AMNE15.jpg,AMSA04.jpg,AMNE09.jpg,AMSA18.jpg,AMNE15.jpg,MN,1,num_8,16,num_8,0.766799613251,,,2017_Oct_23_1532,60.0057160944,MAFE4ImagesEEG,001,201996,
AFSA21.JPG,AFNE23.JPG,AFNE21.JPG,AFSA25.JPG,AFNE25.JPG,AFSA23.JPG,0,9,9,4,,,,,,,,,,,,,,,,,,,,,,,AMNE17.jpg,AMSA18.jpg,AMNE16.jpg,AMSA03.jpg,AMNE17.jpg,MN,1,num_8,16,num_8,0.700123003568,,,2017_Oct_23_1532,60.0057160944,MAFE4ImagesEEG,001,201996,
AMSA21.JPG,AMNE23.JPG,AMNE21.JPG,AMSA25.JPG,AMNE25.JPG,AMSA23.JPG,,,,,0,0,0,5,,,,,,,,,,,,,,,,,,,AFNE19.jpg,AFSA07.jpg,AFNE07.jpg,AFSA12.jpg,AFNE07.jpg,FN,3,num_2,32,num_6,1.81644944579,,,2017_Oct_23_1532,60.0057160944,MAFE4ImagesEEG,001,201996,
AFSA25.JPG,AFNE24.JPG,AFSA24.JPG,AFNE21.JPG,AFSA21.JPG,AFNE25.JPG,,,,,0,1,1,2,,,,,,,,,,,,,,,,,,,AFNE05.jpg,AFSA20.jpg,AFNE02.jpg,AFSA14.jpg,AFSA20.jpg,FS,4,num_6,32,num_4,0.750258435844,,,2017_Oct_23_1532,60.0057160944,MAFE4ImagesEEG,001,201996,
AFSA21.JPG,AFNE23.JPG,AFNE21.JPG,AFSA25.JPG,AFNE25.JPG,AFSA23.JPG,,,,,0,2,2,4,,,,,,,,,,,,,,,,,,,AFNE10.jpg,AFNE15.jpg,AFSA09.jpg,AFSA19.jpg,AFNE10.jpg,FN,3,num_8,32,num_2,1.61667043529,,,2017_Oct_23_1532,60.0057160944,MAFE4ImagesEEG,001,201996,
AMNE22.JPG,AMSA24.JPG,AMSA22.JPG,AMNE25.JPG,AMNE24.JPG,AMSA25.JPG,,,,,0,3,3,7,,,,,,,,,,,,,,,,,,,AFSA13.jpg,AFNE08.jpg,AFSA14.jpg,AFNE09.jpg,AFSA14.jpg,FS,4,num_2,32,num_8,0.683431399404,,,2017_Oct_23_1532,60.0057160944,MAFE4ImagesEEG,001,201996,
AMSA21.JPG,AMNE22.JPG,AMNE21.JPG,AMSA23.JPG,AMSA22.JPG,AMNE23.JPG,,,,,0,4,4,1,,,,,,,,,,,,,,,,,,,AFSA02.jpg,AFSA16.jpg,AFNE07.jpg,AFNE09.jpg,AFNE07.jpg,FN,3,num_2,32,num_6,0.400219065137,,,2017_Oct_23_1532,60.0057160944,MAFE4ImagesEEG,001,201996,
AMNE23.JPG,AMNE24.JPG,AMNE22.JPG,AMSA24.JPG,AMSA22.JPG,AMSA23.JPG,,,,,0,5,5,9,,,,,,,,,,,,,,,,,,,AFSA16.jpg,AFNE09.jpg,AFNE05.jpg,AFSA06.jpg,AFNE05.jpg,FN,3,num_2,32,num_8,0.483459303738,,,2017_Oct_23_1532,60.0057160944,MAFE4ImagesEEG,001,201996,
AFSA21.JPG,AFNE22.JPG,AFNE21.JPG,AFSA23.JPG,AFSA22.JPG,AFNE23.JPG,,,,,0,6,6,0,,,,,,,,,,,,,,,,,,,AFNE02.jpg,AFSA20.jpg,AFNE14.jpg,AFSA02.jpg,AFSA20.jpg,FS,4,num_6,16,num_6,0.566937210388,,,2017_Oct_23_1532,60.0057160944,MAFE4ImagesEEG,001,201996,
AFNE22.JPG,AFSA24.JPG,AFSA22.JPG,AFNE25.JPG,AFNE24.JPG,AFSA25.JPG,,,,,0,7,7,6,,,,,,,,,,,,,,,,,,,AFSA11.jpg,AFNE10.jpg,AFSA18.jpg,AFNE08.jpg,AFSA11.jpg,FS,4,num_8,32,num_2,0.950085557182,,,2017_Oct_23_1532,60.0057160944,MAFE4ImagesEEG,001,201996,
AFNE23.JPG,AFNE24.JPG,AFNE22.JPG,AFSA24.JPG,AFSA22.JPG,AFSA23.JPG,,,,,0,8,8,8,,,,,,,,,,,,,,,,,,,AFSA13.jpg,AFNE05.jpg,AFNE10.jpg,AFSA07.jpg,AFSA13.jpg,FS,4,num_8,16,num_8,0.633462110301,,,2017_Oct_23_1532,60.0057160944,MAFE4ImagesEEG,001,201996,
AMSA25.JPG,AMNE24.JPG,AMSA24.JPG,AMNE26.JPG,AMSA21.JPG,AMNE25.JPG,,,,,0,9,9,3,,,,,,,,,,,,,,,,,,,AFSA11.jpg,AFNE05.jpg,AFNE07.jpg,AFSA03.jpg,AFNE07.jpg,FN,3,num_2,16,num_2,0.916819098173,,,2017_Oct_23_1532,60.0057160944,MAFE4ImagesEEG,001,201996,
AMNE22.JPG,AMSA24.JPG,AMSA22.JPG,AMNE25.JPG,AMNE24.JPG,AMSA25.JPG,,,,,,,,,0,0,0,7,,,,,,,,,,,,,,,AMNE16.jpg,AMSA19.jpg,AMSA17.jpg,AMNE03.jpg,AMNE03.jpg,MN,1,num_4,32,num_2,1.2835481487,,,2017_Oct_23_1532,60.0057160944,MAFE4ImagesEEG,001,201996,
AMSA21.JPG,AMNE23.JPG,AMNE21.JPG,AMSA25.JPG,AMNE25.JPG,AMSA23.JPG,,,,,,,,,0,1,1,5,,,,,,,,,,,,,,,AMNE18.jpg,AMSA08.jpg,AMSA02.jpg,AMNE20.jpg,AMSA08.jpg,MS,2,num_6,32,num_2,1.08354718646,,,2017_Oct_23_1532,60.0057160944,MAFE4ImagesEEG,001,201996,
AFSA21.JPG,AFNE23.JPG,AFNE21.JPG,AFSA25.JPG,AFNE25.JPG,AFSA23.JPG,,,,,,,,,0,2,2,4,,,,,,,,,,,,,,,AMNE17.jpg,AMSA09.jpg,AMNE06.jpg,AMSA08.jpg,AMSA08.jpg,MS,2,num_4,32,num_6,1.6833730248,,,2017_Oct_23_1532,60.0057160944,MAFE4ImagesEEG,001,201996,
AFNE23.JPG,AFNE24.JPG,AFNE22.JPG,AFSA24.JPG,AFSA22.JPG,AFSA23.JPG,,,,,,,,,0,3,3,8,,,,,,,,,,,,,,,AMSA10.jpg,AMSA02.jpg,AMNE11.jpg,AMNE01.jpg,AMNE01.jpg,MN,1,num_4,16,num_4,0.716629220289,,,2017_Oct_23_1532,60.0057160944,MAFE4ImagesEEG,001,201996,
AMSA21.JPG,AMNE22.JPG,AMNE21.JPG,AMSA23.JPG,AMSA22.JPG,AMNE23.JPG,,,,,,,,,0,4,4,1,,,,,,,,,,,,,,,AMNE07.jpg,AMSA06.jpg,AMNE12.jpg,AMSA09.jpg,AMSA06.jpg,MS,2,num_6,32,num_8,1.10015988862,,,2017_Oct_23_1532,60.0057160944,MAFE4ImagesEEG,001,201996,
AMNE23.JPG,AMNE24.JPG,AMNE22.JPG,AMSA24.JPG,AMSA22.JPG,AMSA23.JPG,,,,,,,,,0,5,5,9,,,,,,,,,,,,,,,AMSA08.jpg,AMNE02.jpg,AMNE10.jpg,AMSA02.jpg,AMSA02.jpg,MS,2,num_4,32,num_6,0.800107768504,,,2017_Oct_23_1532,60.0057160944,MAFE4ImagesEEG,001,201996,
AFNE22.JPG,AFSA24.JPG,AFSA22.JPG,AFNE25.JPG,AFNE24.JPG,AFSA25.JPG,,,,,,,,,0,6,6,6,,,,,,,,,,,,,,,AMNE01.jpg,AMSA20.jpg,AMNE14.jpg,AMSA11.jpg,AMNE01.jpg,MN,1,num_8,32,num_2,0.933439498185,,,2017_Oct_23_1532,60.0057160944,MAFE4ImagesEEG,001,201996,
AMSA25.JPG,AMNE24.JPG,AMSA24.JPG,AMNE26.JPG,AMSA21.JPG,AMNE25.JPG,,,,,,,,,0,7,7,3,,,,,,,,,,,,,,,AMSA18.jpg,AMNE06.jpg,AMNE18.jpg,AMSA13.jpg,AMNE18.jpg,MN,1,num_2,32,num_6,0.933539568912,,,2017_Oct_23_1532,60.0057160944,MAFE4ImagesEEG,001,201996,
AFSA25.JPG,AFNE24.JPG,AFSA24.JPG,AFNE21.JPG,AFSA21.JPG,AFNE25.JPG,,,,,,,,,0,8,8,2,,,,,,,,,,,,,,,AMNE06.jpg,AMSA16.jpg,AMNE15.jpg,AMSA09.jpg,AMNE06.jpg,MN,1,num_8,16,num_8,1.48201982491,,,2017_Oct_23_1532,60.0057160944,MAFE4ImagesEEG,001,201996,
AFSA21.JPG,AFNE22.JPG,AFNE21.JPG,AFSA23.JPG,AFSA22.JPG,AFNE23.JPG,,,,,,,,,0,9,9,0,,,,,,,,,,,,,,,AMSA15.jpg,AMNE18.jpg,AMNE12.jpg,AMSA08.jpg,AMSA15.jpg,MS,2,num_8,32,num_6,1.51672608359,,,2017_Oct_23_1532,60.0057160944,MAFE4ImagesEEG,001,201996,
AMSA25.JPG,AMNE24.JPG,AMSA24.JPG,AMNE26.JPG,AMSA21.JPG,AMNE25.JPG,,,,,,,,,,,,,0,0,0,3,,,,,,,,,,,AFSA01.jpg,AFSA09.jpg,AFNE17.jpg,AFNE20.jpg,AFSA01.jpg,FS,4,num_8,16,num_8,1.5666966557,,,2017_Oct_23_1532,60.0057160944,MAFE4ImagesEEG,001,201996,
AFNE23.JPG,AFNE24.JPG,AFNE22.JPG,AFSA24.JPG,AFSA22.JPG,AFSA23.JPG,,,,,,,,,,,,,0,1,1,8,,,,,,,,,,,AFSA19.jpg,AFNE07.jpg,AFNE16.jpg,AFSA12.jpg,AFNE16.jpg,FN,3,num_2,32,num_6,1.26684948825,,,2017_Oct_23_1532,60.0057160944,MAFE4ImagesEEG,001,201996,
AFSA25.JPG,AFNE24.JPG,AFSA24.JPG,AFNE21.JPG,AFSA21.JPG,AFNE25.JPG,,,,,,,,,,,,,0,2,2,2,,,,,,,,,,,AFSA09.jpg,AFNE14.jpg,AFSA03.jpg,AFNE10.jpg,AFNE10.jpg,FN,3,num_4,16,num_4,1.08345064381,,,2017_Oct_23_1532,60.0057160944,MAFE4ImagesEEG,001,201996,
AMSA21.JPG,AMNE22.JPG,AMNE21.JPG,AMSA23.JPG,AMSA22.JPG,AMNE23.JPG,,,,,,,,,,,,,0,3,3,1,,,,,,,,,,,AFNE08.jpg,AFSA01.jpg,AFSA13.jpg,AFNE02.jpg,AFNE08.jpg,FN,3,num_8,16,num_8,0.683499396197,,,2017_Oct_23_1532,60.0057160944,MAFE4ImagesEEG,001,201996,
AFSA21.JPG,AFNE22.JPG,AFNE21.JPG,AFSA23.JPG,AFSA22.JPG,AFNE23.JPG,,,,,,,,,,,,,0,4,4,0,,,,,,,,,,,AFSA01.jpg,AFSA03.jpg,AFNE10.jpg,AFNE19.jpg,AFSA01.jpg,FS,4,num_8,32,num_4,1.16689455207,,,2017_Oct_23_1532,60.0057160944,MAFE4ImagesEEG,001,201996,
AMSA21.JPG,AMNE23.JPG,AMNE21.JPG,AMSA25.JPG,AMNE25.JPG,AMSA23.JPG,,,,,,,,,,,,,0,5,5,5,,,,,,,,,,,AFNE05.jpg,AFSA02.jpg,AFSA16.jpg,AFNE09.jpg,AFSA02.jpg,FS,4,num_6,16,num_6,0.683503886568,,,2017_Oct_23_1532,60.0057160944,MAFE4ImagesEEG,001,201996,
AMNE22.JPG,AMSA24.JPG,AMSA22.JPG,AMNE25.JPG,AMNE24.JPG,AMSA25.JPG,,,,,,,,,,,,,0,6,6,7,,,,,,,,,,,AFNE11.jpg,AFSA20.jpg,AFNE01.jpg,AFSA05.jpg,AFNE11.jpg,FN,3,num_8,16,num_8,0.816756393528,,,2017_Oct_23_1532,60.0057160944,MAFE4ImagesEEG,001,201996,
AFSA21.JPG,AFNE23.JPG,AFNE21.JPG,AFSA25.JPG,AFNE25.JPG,AFSA23.JPG,,,,,,,,,,,,,0,7,7,4,,,,,,,,,,,AFSA20.jpg,AFSA19.jpg,AFNE06.jpg,AFNE04.jpg,AFNE06.jpg,FN,3,num_2,32,num_4,1.033330607,,,2017_Oct_23_1532,60.0057160944,MAFE4ImagesEEG,001,201996,
AFNE22.JPG,AFSA24.JPG,AFSA22.JPG,AFNE25.JPG,AFNE24.JPG,AFSA25.JPG,,,,,,,,,,,,,0,8,8,6,,,,,,,,,,,AFNE16.jpg,AFSA03.jpg,AFSA12.jpg,AFNE17.jpg,AFNE17.jpg,FN,3,num_4,32,num_2,1.03347846796,,,2017_Oct_23_1532,60.0057160944,MAFE4ImagesEEG,001,201996,
AMNE23.JPG,AMNE24.JPG,AMNE22.JPG,AMSA24.JPG,AMSA22.JPG,AMSA23.JPG,,,,,,,,,,,,,0,9,9,9,,,,,,,,,,,AFSA16.jpg,AFNE10.jpg,AFNE06.jpg,AFSA05.jpg,AFNE06.jpg,FN,3,num_2,32,num_6,0.650129979709,,,2017_Oct_23_1532,60.0057160944,MAFE4ImagesEEG,001,201996,
AFNE22.JPG,AFSA24.JPG,AFSA22.JPG,AFNE25.JPG,AFNE24.JPG,AFSA25.JPG,,,,,,,,,,,,,,,,,0,0,0,6,,,,,,,AMNE08.jpg,AMNE16.jpg,AMSA16.jpg,AMSA02.jpg,AMNE16.jpg,MN,1,num_6,16,num_6,0.750093896524,,,2017_Oct_23_1532,60.0057160944,MAFE4ImagesEEG,001,201996,
AFSA25.JPG,AFNE24.JPG,AFSA24.JPG,AFNE21.JPG,AFSA21.JPG,AFNE25.JPG,,,,,,,,,,,,,,,,,0,1,1,2,,,,,,,AMNE10.jpg,AMSA08.jpg,AMNE03.jpg,AMSA17.jpg,AMNE10.jpg,MN,1,num_8,16,num_8,0.716770666419,,,2017_Oct_23_1532,60.0057160944,MAFE4ImagesEEG,001,201996,
AMSA25.JPG,AMNE24.JPG,AMSA24.JPG,AMNE26.JPG,AMSA21.JPG,AMNE25.JPG,,,,,,,,,,,,,,,,,0,2,2,3,,,,,,,AMSA02.jpg,AMSA19.jpg,AMNE15.jpg,AMNE20.jpg,AMNE20.jpg,MN,1,num_4,16,num_4,0.866841790383,,,2017_Oct_23_1532,60.0057160944,MAFE4ImagesEEG,001,201996,
AFSA21.JPG,AFNE23.JPG,AFNE21.JPG,AFSA25.JPG,AFNE25.JPG,AFSA23.JPG,,,,,,,,,,,,,,,,,0,3,3,4,,,,,,,AMNE09.jpg,AMSA17.jpg,AMSA09.jpg,AMNE15.jpg,AMNE09.jpg,MN,1,num_8,16,num_8,1.01675831794,,,2017_Oct_23_1532,60.0057160944,MAFE4ImagesEEG,001,201996,
AMSA21.JPG,AMNE22.JPG,AMNE21.JPG,AMSA23.JPG,AMSA22.JPG,AMNE23.JPG,,,,,,,,,,,,,,,,,0,4,4,1,,,,,,,AMNE01.jpg,AMNE08.jpg,AMSA06.jpg,AMSA10.jpg,AMSA06.jpg,MS,2,num_2,32,num_4,1.15009100991,,,2017_Oct_23_1532,60.0057160944,MAFE4ImagesEEG,001,201996,
AFSA21.JPG,AFNE22.JPG,AFNE21.JPG,AFSA23.JPG,AFSA22.JPG,AFNE23.JPG,,,,,,,,,,,,,,,,,0,5,5,0,,,,,,,AMNE03.jpg,AMNE12.jpg,AMSA15.jpg,AMSA11.jpg,AMNE03.jpg,MN,1,num_8,16,num_8,0.766746691195,,,2017_Oct_23_1532,60.0057160944,MAFE4ImagesEEG,001,201996,
AFNE23.JPG,AFNE24.JPG,AFNE22.JPG,AFSA24.JPG,AFSA22.JPG,AFSA23.JPG,,,,,,,,,,,,,,,,,0,6,6,8,,,,,,,AMSA11.jpg,AMSA20.jpg,AMNE06.jpg,AMNE14.jpg,AMNE14.jpg,MN,1,num_4,16,num_4,0.700105683645,,,2017_Oct_23_1532,60.0057160944,MAFE4ImagesEEG,001,201996,
AMNE22.JPG,AMSA24.JPG,AMSA22.JPG,AMNE25.JPG,AMNE24.JPG,AMSA25.JPG,,,,,,,,,,,,,,,,,0,7,7,7,,,,,,,AMSA14.jpg,AMNE13.jpg,AMNE05.jpg,AMSA03.jpg,AMSA14.jpg,MS,2,num_8,16,num_8,0.50055632263,,,2017_Oct_23_1532,60.0057160944,MAFE4ImagesEEG,001,201996,
AMNE23.JPG,AMNE24.JPG,AMNE22.JPG,AMSA24.JPG,AMSA22.JPG,AMSA23.JPG,,,,,,,,,,,,,,,,,0,8,8,9,,,,,,,AMSA06.jpg,AMSA16.jpg,AMNE17.jpg,AMNE08.jpg,AMSA06.jpg,MS,2,num_8,16,num_8,0.600125409197,,,2017_Oct_23_1532,60.0057160944,MAFE4ImagesEEG,001,201996,
AMSA21.JPG,AMNE23.JPG,AMNE21.JPG,AMSA25.JPG,AMNE25.JPG,AMSA23.JPG,,,,,,,,,,,,,,,,,0,9,9,5,,,,,,,AMNE16.jpg,AMSA06.jpg,AMSA10.jpg,AMNE17.jpg,AMSA06.jpg,MS,2,num_6,16,num_6,0.56680795236,,,2017_Oct_23_1532,60.0057160944,MAFE4ImagesEEG,001,201996,
AFSA21.JPG,AFNE22.JPG,AFNE21.JPG,AFSA23.JPG,AFSA22.JPG,AFNE23.JPG,,,,,,,,,,,,,,,,,,,,,0,0,0,0,,,AFNE16.jpg,AFSA10.jpg,AFNE06.jpg,AFSA20.jpg,AFNE06.jpg,FN,3,num_2,16,num_2,2.13334776671,,,2017_Oct_23_1532,60.0057160944,MAFE4ImagesEEG,001,201996,
AFNE23.JPG,AFNE24.JPG,AFNE22.JPG,AFSA24.JPG,AFSA22.JPG,AFSA23.JPG,,,,,,,,,,,,,,,,,,,,,0,1,1,8,,,AFSA13.jpg,AFNE06.jpg,AFNE16.jpg,AFSA17.jpg,AFSA17.jpg,FS,4,num_4,16,num_4,1.30006430834,,,2017_Oct_23_1532,60.0057160944,MAFE4ImagesEEG,001,201996,
AMSA21.JPG,AMNE23.JPG,AMNE21.JPG,AMSA25.JPG,AMNE25.JPG,AMSA23.JPG,,,,,,,,,,,,,,,,,,,,,0,2,2,5,,,AFNE05.jpg,AFNE10.jpg,AFSA13.jpg,AFSA16.jpg,AFSA13.jpg,FS,4,num_2,32,num_6,0.800131182419,,,2017_Oct_23_1532,60.0057160944,MAFE4ImagesEEG,001,201996,
AMSA21.JPG,AMNE22.JPG,AMNE21.JPG,AMSA23.JPG,AMSA22.JPG,AMNE23.JPG,,,,,,,,,,,,,,,,,,,,,0,3,3,1,,,AFNE07.jpg,AFNE18.jpg,AFSA13.jpg,AFSA03.jpg,AFSA13.jpg,FS,4,num_2,32,num_4,1.05016301584,,,2017_Oct_23_1532,60.0057160944,MAFE4ImagesEEG,001,201996,
AMSA25.JPG,AMNE24.JPG,AMSA24.JPG,AMNE26.JPG,AMSA21.JPG,AMNE25.JPG,,,,,,,,,,,,,,,,,,,,,0,4,4,3,,,AFSA11.jpg,AFNE18.jpg,AFSA17.jpg,AFNE16.jpg,AFNE18.jpg,FN,3,num_6,16,num_6,0.617131658713,,,2017_Oct_23_1532,60.0057160944,MAFE4ImagesEEG,001,201996,
AFSA21.JPG,AFNE23.JPG,AFNE21.JPG,AFSA25.JPG,AFNE25.JPG,AFSA23.JPG,,,,,,,,,,,,,,,,,,,,,0,5,5,4,,,AFNE18.jpg,AFNE13.jpg,AFSA14.jpg,AFSA01.jpg,AFNE13.jpg,FN,3,num_6,32,num_8,0.916775798309,,,2017_Oct_23_1532,60.0057160944,MAFE4ImagesEEG,001,201996,
AFNE22.JPG,AFSA24.JPG,AFSA22.JPG,AFNE25.JPG,AFNE24.JPG,AFSA25.JPG,,,,,,,,,,,,,,,,,,,,,0,6,6,6,,,AFSA06.jpg,AFNE20.jpg,AFNE15.jpg,AFSA09.jpg,AFNE20.jpg,FN,3,num_6,32,num_2,4.18318298669,,,2017_Oct_23_1532,60.0057160944,MAFE4ImagesEEG,001,201996,
AMNE23.JPG,AMNE24.JPG,AMNE22.JPG,AMSA24.JPG,AMSA22.JPG,AMSA23.JPG,,,,,,,,,,,,,,,,,,,,,0,7,7,9,,,AFSA07.jpg,AFNE04.jpg,AFSA03.jpg,AFNE18.jpg,AFNE18.jpg,FN,3,num_4,32,num_6,0.75007721805,,,2017_Oct_23_1532,60.0057160944,MAFE4ImagesEEG,001,201996,
AMNE22.JPG,AMSA24.JPG,AMSA22.JPG,AMNE25.JPG,AMNE24.JPG,AMSA25.JPG,,,,,,,,,,,,,,,,,,,,,0,8,8,7,,,AFNE13.jpg,AFNE08.jpg,AFSA07.jpg,AFSA13.jpg,AFNE13.jpg,FN,3,num_8,32,num_2,1.01673682837,,,2017_Oct_23_1532,60.0057160944,MAFE4ImagesEEG,001,201996,
AFSA25.JPG,AFNE24.JPG,AFSA24.JPG,AFNE21.JPG,AFSA21.JPG,AFNE25.JPG,,,,,,,,,,,,,,,,,,,,,0,9,9,2,,,AFSA01.jpg,AFNE02.jpg,AFNE12.jpg,AFSA12.jpg,AFSA01.jpg,FS,4,num_8,16,num_8,0.583513027639,,,2017_Oct_23_1532,60.0057160944,MAFE4ImagesEEG,001,201996,
,,,,,,,,,,,,,,,,,,,,,,,,,,,,,,,,,,,,,,,,,,,space,59.3622072651,2017_Oct_23_1532,60.0057160944,MAFE4ImagesEEG,001,201996,
AFNE01.JPG,AFNE01.JPG,AFNE01.JPG,AFNE01.JPG,AFNE01.JPG,AFNE01.JPG,0,0,0,1,,,,,,,,,,,,,,,,,,,,,,,AMSA15.jpg,AMNE10.jpg,AMSA18.jpg,AMNE19.jpg,AMNE10.jpg,MN,1,num_6,32,num_8,1.16671910766,,,2017_Oct_23_1532,60.0057160944,MAFE4ImagesEEG,001,201996,
AFNE01.JPG,AFNE01.JPG,AFNE01.JPG,AFNE01.JPG,AFNE01.JPG,AFNE01.JPG,0,1,1,3,,,,,,,,,,,,,,,,,,,,,,,AMNE19.jpg,AMNE09.jpg,AMSA06.jpg,AMSA07.jpg,AMSA06.jpg,MS,2,num_2,32,num_8,1.01675703493,,,2017_Oct_23_1532,60.0057160944,MAFE4ImagesEEG,001,201996,
AFNE01.JPG,AFNE01.JPG,AFNE01.JPG,AFNE01.JPG,AFNE01.JPG,AFNE01.JPG,0,2,2,4,,,,,,,,,,,,,,,,,,,,,,,AMNE11.jpg,AMNE19.jpg,AMSA15.jpg,AMSA20.jpg,AMNE19.jpg,MN,1,num_6,16,num_6,0.733489854145,,,2017_Oct_23_1532,60.0057160944,MAFE4ImagesEEG,001,201996,
AFNE01.JPG,AFNE01.JPG,AFNE01.JPG,AFNE01.JPG,AFNE01.JPG,AFNE01.JPG,0,3,3,9,,,,,,,,,,,,,,,,,,,,,,,AMSA20.jpg,AMSA02.jpg,AMNE16.jpg,AMNE07.jpg,AMSA02.jpg,MS,2,num_6,16,num_6,0.600181859336,,,2017_Oct_23_1532,60.0057160944,MAFE4ImagesEEG,001,201996,
AFNE01.JPG,AFNE01.JPG,AFNE01.JPG,AFNE01.JPG,AFNE01.JPG,AFNE01.JPG,0,4,4,7,,,,,,,,,,,,,,,,,,,,,,,AMSA08.jpg,AMSA16.jpg,AMNE20.jpg,AMNE08.jpg,AMNE08.jpg,MN,1,num_4,16,num_4,1.03307561914,,,2017_Oct_23_1532,60.0057160944,MAFE4ImagesEEG,001,201996,
AFNE01.JPG,AFNE01.JPG,AFNE01.JPG,AFNE01.JPG,AFNE01.JPG,AFNE01.JPG,0,5,5,8,,,,,,,,,,,,,,,,,,,,,,,AMSA19.jpg,AMSA18.jpg,AMNE20.jpg,AMNE15.jpg,AMNE20.jpg,MN,1,num_2,32,num_4,0.96678902884,,,2017_Oct_23_1532,60.0057160944,MAFE4ImagesEEG,001,201996,
AFNE01.JPG,AFNE01.JPG,AFNE01.JPG,AFNE01.JPG,AFNE01.JPG,AFNE01.JPG,0,6,6,2,,,,,,,,,,,,,,,,,,,,,,,AMSA05.jpg,AMNE02.jpg,AMNE06.jpg,AMSA06.jpg,AMSA06.jpg,MS,2,num_4,16,num_4,0.600087241153,,,2017_Oct_23_1532,60.0057160944,MAFE4ImagesEEG,001,201996,
AFNE01.JPG,AFNE01.JPG,AFNE01.JPG,AFNE01.JPG,AFNE01.JPG,AFNE01.JPG,0,7,7,5,,,,,,,,,,,,,,,,,,,,,,,AMNE01.jpg,AMNE15.jpg,AMSA08.jpg,AMSA09.jpg,AMSA09.jpg,MS,2,num_4,32,num_6,1.58350565063,,,2017_Oct_23_1532,60.0057160944,MAFE4ImagesEEG,001,201996,
AFNE01.JPG,AFNE01.JPG,AFNE01.JPG,AFNE01.JPG,AFNE01.JPG,AFNE01.JPG,0,8,8,6,,,,,,,,,,,,,,,,,,,,,,,AMNE05.jpg,AMSA12.jpg,AMNE10.jpg,AMSA18.jpg,AMSA18.jpg,MS,2,num_4,16,num_4,0.650274312473,,,2017_Oct_23_1532,60.0057160944,MAFE4ImagesEEG,001,201996,
AFNE01.JPG,AFNE01.JPG,AFNE01.JPG,AFNE01.JPG,AFNE01.JPG,AFNE01.JPG,0,9,9,0,,,,,,,,,,,,,,,,,,,,,,,AMNE12.jpg,AMSA12.jpg,AMNE10.jpg,AMSA10.jpg,AMNE10.jpg,MN,1,num_2,32,num_8,0.750277359504,,,2017_Oct_23_1532,60.0057160944,MAFE4ImagesEEG,001,201996,
AFNE01.JPG,AFNE01.JPG,AFNE01.JPG,AFNE01.JPG,AFNE01.JPG,AFNE01.JPG,1,0,10,1,,,,,,,,,,,,,,,,,,,,,,,AMNE13.jpg,AMSA11.jpg,AMNE07.jpg,AMSA16.jpg,AMSA11.jpg,MS,2,num_6,16,num_6,0.500120116863,,,2017_Oct_23_1532,60.0057160944,MAFE4ImagesEEG,001,201996,
AFNE01.JPG,AFNE01.JPG,AFNE01.JPG,AFNE01.JPG,AFNE01.JPG,AFNE01.JPG,1,1,11,6,,,,,,,,,,,,,,,,,,,,,,,AMNE16.jpg,AMNE17.jpg,AMSA13.jpg,AMSA20.jpg,AMNE16.jpg,MN,1,num_8,32,num_2,1.33347926987,,,2017_Oct_23_1532,60.0057160944,MAFE4ImagesEEG,001,201996,
AFNE01.JPG,AFNE01.JPG,AFNE01.JPG,AFNE01.JPG,AFNE01.JPG,AFNE01.JPG,1,2,12,4,,,,,,,,,,,,,,,,,,,,,,,AMNE02.jpg,AMSA07.jpg,AMSA14.jpg,AMNE11.jpg,AMNE11.jpg,MN,1,num_4,16,num_4,1.08345834154,,,2017_Oct_23_1532,60.0057160944,MAFE4ImagesEEG,001,201996,
AFNE01.JPG,AFNE01.JPG,AFNE01.JPG,AFNE01.JPG,AFNE01.JPG,AFNE01.JPG,1,3,13,0,,,,,,,,,,,,,,,,,,,,,,,AMNE15.jpg,AMNE16.jpg,AMSA15.jpg,AMSA07.jpg,AMSA15.jpg,MS,2,num_2,16,num_2,1.4170578887,,,2017_Oct_23_1532,60.0057160944,MAFE4ImagesEEG,001,201996,
AFNE01.JPG,AFNE01.JPG,AFNE01.JPG,AFNE01.JPG,AFNE01.JPG,AFNE01.JPG,1,4,14,9,,,,,,,,,,,,,,,,,,,,,,,AMSA09.jpg,AMSA04.jpg,AMNE12.jpg,AMNE20.jpg,AMNE12.jpg,MN,1,num_2,16,num_2,0.900124286534,,,2017_Oct_23_1532,60.0057160944,MAFE4ImagesEEG,001,201996,
AFNE01.JPG,AFNE01.JPG,AFNE01.JPG,AFNE01.JPG,AFNE01.JPG,AFNE01.JPG,1,5,15,7,,,,,,,,,,,,,,,,,,,,,,,AMNE17.jpg,AMSA19.jpg,AMSA18.jpg,AMNE08.jpg,AMNE08.jpg,MN,1,num_4,16,num_4,1.05009758496,,,2017_Oct_23_1532,60.0057160944,MAFE4ImagesEEG,001,201996,
AFNE01.JPG,AFNE01.JPG,AFNE01.JPG,AFNE01.JPG,AFNE01.JPG,AFNE01.JPG,1,6,16,8,,,,,,,,,,,,,,,,,,,,,,,AMSA19.jpg,AMNE10.jpg,AMSA12.jpg,AMNE05.jpg,AMNE05.jpg,MN,1,num_4,32,num_6,0.80000256584,,,2017_Oct_23_1532,60.0057160944,MAFE4ImagesEEG,001,201996,
AFNE01.JPG,AFNE01.JPG,AFNE01.JPG,AFNE01.JPG,AFNE01.JPG,AFNE01.JPG,1,7,17,2,,,,,,,,,,,,,,,,,,,,,,,AMNE14.jpg,AMNE10.jpg,AMSA06.jpg,AMSA20.jpg,AMNE10.jpg,MN,1,num_6,16,num_6,1.40009814629,,,2017_Oct_23_1532,60.0057160944,MAFE4ImagesEEG,001,201996,
AFNE01.JPG,AFNE01.JPG,AFNE01.JPG,AFNE01.JPG,AFNE01.JPG,AFNE01.JPG,1,8,18,3,,,,,,,,,,,,,,,,,,,,,,,AMNE10.jpg,AMNE01.jpg,AMSA14.jpg,AMSA12.jpg,AMSA14.jpg,MS,2,num_2,16,num_2,1.51670106605,,,2017_Oct_23_1532,60.0057160944,MAFE4ImagesEEG,001,201996,
AFNE01.JPG,AFNE01.JPG,AFNE01.JPG,AFNE01.JPG,AFNE01.JPG,AFNE01.JPG,1,9,19,5,,,,,,,,,,,,,,,,,,,,,,,AMSA07.jpg,AMNE08.jpg,AMSA09.jpg,AMNE10.jpg,AMNE10.jpg,MN,1,num_4,16,num_4,0.750151629676,,,2017_Oct_23_1532,60.0057160944,MAFE4ImagesEEG,001,201996,
AFNE01.JPG,AFNE01.JPG,AFNE01.JPG,AFNE01.JPG,AFNE01.JPG,AFNE01.JPG,2,0,20,6,,,,,,,,,,,,,,,,,,,,,,,AMNE04.jpg,AMSA16.jpg,AMSA10.jpg,AMNE18.jpg,AMNE04.jpg,MN,1,num_8,16,num_8,0.883439417928,,,2017_Oct_23_1532,60.0057160944,MAFE4ImagesEEG,001,201996,
AFNE01.JPG,AFNE01.JPG,AFNE01.JPG,AFNE01.JPG,AFNE01.JPG,AFNE01.JPG,2,1,21,7,,,,,,,,,,,,,,,,,,,,,,,AMNE16.jpg,AMNE20.jpg,AMSA06.jpg,AMSA13.jpg,AMSA13.jpg,MS,2,num_4,16,num_4,1.06672279607,,,2017_Oct_23_1532,60.0057160944,MAFE4ImagesEEG,001,201996,
AFNE01.JPG,AFNE01.JPG,AFNE01.JPG,AFNE01.JPG,AFNE01.JPG,AFNE01.JPG,2,2,22,5,,,,,,,,,,,,,,,,,,,,,,,AMNE14.jpg,AMSA17.jpg,AMSA20.jpg,AMNE10.jpg,AMNE10.jpg,MN,1,num_4,16,num_4,0.733455214417,,,2017_Oct_23_1532,60.0057160944,MAFE4ImagesEEG,001,201996,
AFNE01.JPG,AFNE01.JPG,AFNE01.JPG,AFNE01.JPG,AFNE01.JPG,AFNE01.JPG,2,3,23,2,,,,,,,,,,,,,,,,,,,,,,,AMNE18.jpg,AMSA01.jpg,AMSA05.jpg,AMNE07.jpg,AMSA01.jpg,MS,2,num_6,16,num_6,0.68347662373,,,2017_Oct_23_1532,60.0057160944,MAFE4ImagesEEG,001,201996,
AFNE01.JPG,AFNE01.JPG,AFNE01.JPG,AFNE01.JPG,AFNE01.JPG,AFNE01.JPG,2,4,24,1,,,,,,,,,,,,,,,,,,,,,,,AMSA16.jpg,AMNE14.jpg,AMNE16.jpg,AMSA07.jpg,AMSA07.jpg,MS,2,num_4,16,num_4,0.766847724095,,,2017_Oct_23_1532,60.0057160944,MAFE4ImagesEEG,001,201996,
AFNE01.JPG,AFNE01.JPG,AFNE01.JPG,AFNE01.JPG,AFNE01.JPG,AFNE01.JPG,2,5,25,8,,,,,,,,,,,,,,,,,,,,,,,AMNE03.jpg,AMSA10.jpg,AMSA03.jpg,AMNE02.jpg,AMNE03.jpg,MN,1,num_8,32,num_4,0.63355255872,,,2017_Oct_23_1532,60.0057160944,MAFE4ImagesEEG,001,201996,
AFNE01.JPG,AFNE01.JPG,AFNE01.JPG,AFNE01.JPG,AFNE01.JPG,AFNE01.JPG,2,6,26,4,,,,,,,,,,,,,,,,,,,,,,,AMSA20.jpg,AMNE13.jpg,AMSA17.jpg,AMNE19.jpg,AMSA17.jpg,MS,2,num_2,16,num_2,1.40005741233,,,2017_Oct_23_1532,60.0057160944,MAFE4ImagesEEG,001,201996,
AFNE01.JPG,AFNE01.JPG,AFNE01.JPG,AFNE01.JPG,AFNE01.JPG,AFNE01.JPG,2,7,27,3,,,,,,,,,,,,,,,,,,,,,,,AMSA11.jpg,AMNE16.jpg,AMSA19.jpg,AMNE02.jpg,AMNE02.jpg,MN,1,num_4,16,num_4,0.783449521288,,,2017_Oct_23_1532,60.0057160944,MAFE4ImagesEEG,001,201996,
AFNE01.JPG,AFNE01.JPG,AFNE01.JPG,AFNE01.JPG,AFNE01.JPG,AFNE01.JPG,2,8,28,0,,,,,,,,,,,,,,,,,,,,,,,AMNE18.jpg,AMSA04.jpg,AMSA03.jpg,AMNE13.jpg,AMNE18.jpg,MN,1,num_8,32,num_4,1.03342971555,,,2017_Oct_23_1532,60.0057160944,MAFE4ImagesEEG,001,201996,
AFNE01.JPG,AFNE01.JPG,AFNE01.JPG,AFNE01.JPG,AFNE01.JPG,AFNE01.JPG,2,9,29,9,,,,,,,,,,,,,,,,,,,,,,,AMNE15.jpg,AMNE03.jpg,AMSA09.jpg,AMSA15.jpg,AMNE15.jpg,MN,1,num_8,16,num_8,0.766749257105,,,2017_Oct_23_1532,60.0057160944,MAFE4ImagesEEG,001,201996,
AFNE01.JPG,AFNE01.JPG,AFNE01.JPG,AFNE01.JPG,AFNE01.JPG,AFNE01.JPG,3,0,30,2,,,,,,,,,,,,,,,,,,,,,,,AMNE18.jpg,AMNE07.jpg,AMSA05.jpg,AMSA01.jpg,AMSA01.jpg,MS,2,num_4,16,num_4,0.600150747574,,,2017_Oct_23_1532,60.0057160944,MAFE4ImagesEEG,001,201996,
AFNE01.JPG,AFNE01.JPG,AFNE01.JPG,AFNE01.JPG,AFNE01.JPG,AFNE01.JPG,3,1,31,9,,,,,,,,,,,,,,,,,,,,,,,AMNE12.jpg,AMSA13.jpg,AMSA02.jpg,AMNE01.jpg,AMSA02.jpg,MS,2,num_2,16,num_2,0.650136073702,,,2017_Oct_23_1532,60.0057160944,MAFE4ImagesEEG,001,201996,
AFNE01.JPG,AFNE01.JPG,AFNE01.JPG,AFNE01.JPG,AFNE01.JPG,AFNE01.JPG,3,2,32,6,,,,,,,,,,,,,,,,,,,,,,,AMSA05.jpg,AMSA01.jpg,AMNE11.jpg,AMNE15.jpg,AMNE15.jpg,MN,1,num_4,16,num_4,0.783062067931,,,2017_Oct_23_1532,60.0057160944,MAFE4ImagesEEG,001,201996,
AFNE01.JPG,AFNE01.JPG,AFNE01.JPG,AFNE01.JPG,AFNE01.JPG,AFNE01.JPG,3,3,33,5,,,,,,,,,,,,,,,,,,,,,,,AMSA07.jpg,AMNE11.jpg,AMSA06.jpg,AMNE17.jpg,AMSA06.jpg,MS,2,num_2,32,num_8,0.733445271384,,,2017_Oct_23_1532,60.0057160944,MAFE4ImagesEEG,001,201996,
AFNE01.JPG,AFNE01.JPG,AFNE01.JPG,AFNE01.JPG,AFNE01.JPG,AFNE01.JPG,3,4,34,3,,,,,,,,,,,,,,,,,,,,,,,AMNE09.jpg,AMSA13.jpg,AMSA01.jpg,AMNE15.jpg,AMSA01.jpg,MS,2,num_2,16,num_2,0.800257874536,,,2017_Oct_23_1532,60.0057160944,MAFE4ImagesEEG,001,201996,
AFNE01.JPG,AFNE01.JPG,AFNE01.JPG,AFNE01.JPG,AFNE01.JPG,AFNE01.JPG,3,5,35,0,,,,,,,,,,,,,,,,,,,,,,,AMNE04.jpg,AMNE03.jpg,AMSA19.jpg,AMSA12.jpg,AMSA19.jpg,MS,2,num_2,16,num_2,1.64990706567,,,2017_Oct_23_1532,60.0057160944,MAFE4ImagesEEG,001,201996,
AFNE01.JPG,AFNE01.JPG,AFNE01.JPG,AFNE01.JPG,AFNE01.JPG,AFNE01.JPG,3,6,36,4,,,,,,,,,,,,,,,,,,,,,,,AMSA20.jpg,AMNE07.jpg,AMSA01.jpg,AMNE13.jpg,AMNE07.jpg,MN,1,num_6,16,num_6,0.766722956439,,,2017_Oct_23_1532,60.0057160944,MAFE4ImagesEEG,001,201996,
AFNE01.JPG,AFNE01.JPG,AFNE01.JPG,AFNE01.JPG,AFNE01.JPG,AFNE01.JPG,3,7,37,8,,,,,,,,,,,,,,,,,,,,,,,AMNE06.jpg,AMNE12.jpg,AMSA20.jpg,AMSA04.jpg,AMNE12.jpg,MN,1,num_6,16,num_6,0.716764251585,,,2017_Oct_23_1532,60.0057160944,MAFE4ImagesEEG,001,201996,
AFNE01.JPG,AFNE01.JPG,AFNE01.JPG,AFNE01.JPG,AFNE01.JPG,AFNE01.JPG,3,8,38,1,,,,,,,,,,,,,,,,,,,,,,,AMSA17.jpg,AMNE11.jpg,AMNE20.jpg,AMSA02.jpg,AMSA02.jpg,MS,2,num_4,16,num_4,0.816787826014,,,2017_Oct_23_1532,60.0057160944,MAFE4ImagesEEG,001,201996,
AFNE01.JPG,AFNE01.JPG,AFNE01.JPG,AFNE01.JPG,AFNE01.JPG,AFNE01.JPG,3,9,39,7,,,,,,,,,,,,,,,,,,,,,,,AMSA04.jpg,AMSA01.jpg,AMNE12.jpg,AMNE01.jpg,AMSA04.jpg,MS,2,num_8,16,num_8,0.633456978365,,,2017_Oct_23_1532,60.0057160944,MAFE4ImagesEEG,001,201996,
AFNE01.JPG,AFNE01.JPG,AFNE01.JPG,AFNE01.JPG,AFNE01.JPG,AFNE01.JPG,4,0,40,9,,,,,,,,,,,,,,,,,,,,,,,AMSA12.jpg,AMSA10.jpg,AMNE18.jpg,AMNE19.jpg,AMSA10.jpg,MS,2,num_6,16,num_6,0.933453610633,,,2017_Oct_23_1532,60.0057160944,MAFE4ImagesEEG,001,201996,
AFNE01.JPG,AFNE01.JPG,AFNE01.JPG,AFNE01.JPG,AFNE01.JPG,AFNE01.JPG,4,1,41,0,,,,,,,,,,,,,,,,,,,,,,,AMSA07.jpg,AMNE12.jpg,AMNE17.jpg,AMSA03.jpg,AMNE17.jpg,MN,1,num_2,16,num_2,1.51675462944,,,2017_Oct_23_1532,60.0057160944,MAFE4ImagesEEG,001,201996,
AFNE01.JPG,AFNE01.JPG,AFNE01.JPG,AFNE01.JPG,AFNE01.JPG,AFNE01.JPG,4,2,42,4,,,,,,,,,,,,,,,,,,,,,,,AMNE17.jpg,AMNE16.jpg,AMSA09.jpg,AMSA15.jpg,AMSA09.jpg,MS,2,num_2,32,num_4,1.15015547839,,,2017_Oct_23_1532,60.0057160944,MAFE4ImagesEEG,001,201996,
AFNE01.JPG,AFNE01.JPG,AFNE01.JPG,AFNE01.JPG,AFNE01.JPG,AFNE01.JPG,4,3,43,8,,,,,,,,,,,,,,,,,,,,,,,AMNE08.jpg,AMSA04.jpg,AMNE09.jpg,AMSA18.jpg,AMSA18.jpg,MS,2,num_4,16,num_4,0.733464515768,,,2017_Oct_23_1532,60.0057160944,MAFE4ImagesEEG,001,201996,
AFNE01.JPG,AFNE01.JPG,AFNE01.JPG,AFNE01.JPG,AFNE01.JPG,AFNE01.JPG,4,4,44,2,,,,,,,,,,,,,,,,,,,,,,,AMSA12.jpg,AMNE02.jpg,AMSA18.jpg,AMNE18.jpg,AMSA12.jpg,MS,2,num_8,16,num_8,0.566489458084,,,2017_Oct_23_1532,60.0057160944,MAFE4ImagesEEG,001,201996,
AFNE01.JPG,AFNE01.JPG,AFNE01.JPG,AFNE01.JPG,AFNE01.JPG,AFNE01.JPG,4,5,45,6,,,,,,,,,,,,,,,,,,,,,,,AMNE13.jpg,AMNE04.jpg,AMSA11.jpg,AMSA17.jpg,AMNE13.jpg,MN,1,num_8,16,num_8,0.850211447454,,,2017_Oct_23_1532,60.0057160944,MAFE4ImagesEEG,001,201996,
AFNE01.JPG,AFNE01.JPG,AFNE01.JPG,AFNE01.JPG,AFNE01.JPG,AFNE01.JPG,4,6,46,1,,,,,,,,,,,,,,,,,,,,,,,AMNE05.jpg,AMNE19.jpg,AMSA05.jpg,AMSA06.jpg,AMSA06.jpg,MS,2,num_4,16,num_4,0.550108329742,,,2017_Oct_23_1532,60.0057160944,MAFE4ImagesEEG,001,201996,
AFNE01.JPG,AFNE01.JPG,AFNE01.JPG,AFNE01.JPG,AFNE01.JPG,AFNE01.JPG,4,7,47,5,,,,,,,,,,,,,,,,,,,,,,,AMNE18.jpg,AMNE05.jpg,AMSA20.jpg,AMSA10.jpg,AMSA10.jpg,MS,2,num_4,16,num_4,0.650000400958,,,2017_Oct_23_1532,60.0057160944,MAFE4ImagesEEG,001,201996,
AFNE01.JPG,AFNE01.JPG,AFNE01.JPG,AFNE01.JPG,AFNE01.JPG,AFNE01.JPG,4,8,48,7,,,,,,,,,,,,,,,,,,,,,,,AMNE05.jpg,AMNE01.jpg,AMSA05.jpg,AMSA18.jpg,AMNE05.jpg,MN,1,num_8,16,num_8,0.716872661607,,,2017_Oct_23_1532,60.0057160944,MAFE4ImagesEEG,001,201996,
AFNE01.JPG,AFNE01.JPG,AFNE01.JPG,AFNE01.JPG,AFNE01.JPG,AFNE01.JPG,4,9,49,3,,,,,,,,,,,,,,,,,,,,,,,AMSA17.jpg,AMSA01.jpg,AMNE08.jpg,AMNE07.jpg,AMNE08.jpg,MN,1,num_2,16,num_2,1.00013438985,,,2017_Oct_23_1532,60.0057160944,MAFE4ImagesEEG,001,201996,
AFNE01.JPG,AFNE01.JPG,AFNE01.JPG,AFNE01.JPG,AFNE01.JPG,AFNE01.JPG,5,0,50,5,,,,,,,,,,,,,,,,,,,,,,,AMNE10.jpg,AMNE11.jpg,AMSA07.jpg,AMSA08.jpg,AMNE10.jpg,MN,1,num_8,16,num_8,0.783457219019,,,2017_Oct_23_1532,60.0057160944,MAFE4ImagesEEG,001,201996,
AFNE01.JPG,AFNE01.JPG,AFNE01.JPG,AFNE01.JPG,AFNE01.JPG,AFNE01.JPG,5,1,51,2,,,,,,,,,,,,,,,,,,,,,,,AMSA15.jpg,AMNE19.jpg,AMNE04.jpg,AMSA11.jpg,AMSA11.jpg,MS,2,num_4,16,num_4,1.35005957738,,,2017_Oct_23_1532,60.0057160944,MAFE4ImagesEEG,001,201996,
AFNE01.JPG,AFNE01.JPG,AFNE01.JPG,AFNE01.JPG,AFNE01.JPG,AFNE01.JPG,5,2,52,1,,,,,,,,,,,,,,,,,,,,,,,AMNE18.jpg,AMSA13.jpg,AMNE04.jpg,AMSA07.jpg,AMNE18.jpg,MN,1,num_8,16,num_8,0.900098306593,,,2017_Oct_23_1532,60.0057160944,MAFE4ImagesEEG,001,201996,
AFNE01.JPG,AFNE01.JPG,AFNE01.JPG,AFNE01.JPG,AFNE01.JPG,AFNE01.JPG,5,3,53,7,,,,,,,,,,,,,,,,,,,,,,,AMNE12.jpg,AMSA17.jpg,AMSA05.jpg,AMNE13.jpg,AMNE12.jpg,MN,1,num_8,32,num_4,0.983763204422,,,2017_Oct_23_1532,60.0057160944,MAFE4ImagesEEG,001,201996,
AFNE01.JPG,AFNE01.JPG,AFNE01.JPG,AFNE01.JPG,AFNE01.JPG,AFNE01.JPG,5,4,54,4,,,,,,,,,,,,,,,,,,,,,,,AMNE03.jpg,AMSA01.jpg,AMSA15.jpg,AMNE11.jpg,AMSA01.jpg,MS,2,num_6,16,num_6,0.966801216826,,,2017_Oct_23_1532,60.0057160944,MAFE4ImagesEEG,001,201996,
AFNE01.JPG,AFNE01.JPG,AFNE01.JPG,AFNE01.JPG,AFNE01.JPG,AFNE01.JPG,5,5,55,6,,,,,,,,,,,,,,,,,,,,,,,AMNE16.jpg,AMNE12.jpg,AMSA03.jpg,AMSA01.jpg,AMNE12.jpg,MN,1,num_6,32,num_8,1.78339499549,,,2017_Oct_23_1532,60.0057160944,MAFE4ImagesEEG,001,201996,
AFNE01.JPG,AFNE01.JPG,AFNE01.JPG,AFNE01.JPG,AFNE01.JPG,AFNE01.JPG,5,6,56,3,,,,,,,,,,,,,,,,,,,,,,,AMSA01.jpg,AMNE05.jpg,AMSA19.jpg,AMNE03.jpg,AMNE05.jpg,MN,1,num_6,16,num_6,0.600085316692,,,2017_Oct_23_1532,60.0057160944,MAFE4ImagesEEG,001,201996,
AFNE01.JPG,AFNE01.JPG,AFNE01.JPG,AFNE01.JPG,AFNE01.JPG,AFNE01.JPG,5,7,57,0,,,,,,,,,,,,,,,,,,,,,,,AMSA01.jpg,AMNE09.jpg,AMSA16.jpg,AMNE08.jpg,AMSA16.jpg,MS,2,num_2,32,num_4,0.883459303761,,,2017_Oct_23_1532,60.0057160944,MAFE4ImagesEEG,001,201996,
AFNE01.JPG,AFNE01.JPG,AFNE01.JPG,AFNE01.JPG,AFNE01.JPG,AFNE01.JPG,5,8,58,9,,,,,,,,,,,,,,,,,,,,,,,AMSA12.jpg,AMNE03.jpg,AMSA01.jpg,AMNE20.jpg,AMSA01.jpg,MS,2,num_2,16,num_2,0.600539483828,,,2017_Oct_23_1532,60.0057160944,MAFE4ImagesEEG,001,201996,
AFNE01.JPG,AFNE01.JPG,AFNE01.JPG,AFNE01.JPG,AFNE01.JPG,AFNE01.JPG,5,9,59,8,,,,,,,,,,,,,,,,,,,,,,,AMSA02.jpg,AMNE18.jpg,AMNE12.jpg,AMSA03.jpg,AMNE12.jpg,MN,1,num_2,16,num_2,0.566809876822,,,2017_Oct_23_1532,60.0057160944,MAFE4ImagesEEG,001,201996,
,,,,,,,,,,,,,,,,,,,,,,,,,,,,,,,,,,,,,,,,,,,space,41.263291525,2017_Oct_23_1532,60.0057160944,MAFE4ImagesEEG,001,201996,
AFNE01.JPG,AFNE01.JPG,AFNE01.JPG,AFNE01.JPG,AFNE01.JPG,AFNE01.JPG,,,,,0,0,0,9,,,,,,,,,,,,,,,,,,,AFSA05.jpg,AFNE11.jpg,AFSA12.jpg,AFNE08.jpg,AFSA12.jpg,FS,4,num_2,16,num_2,0.483458020841,,,2017_Oct_23_1532,60.0057160944,MAFE4ImagesEEG,001,201996,
AFNE01.JPG,AFNE01.JPG,AFNE01.JPG,AFNE01.JPG,AFNE01.JPG,AFNE01.JPG,,,,,0,1,1,7,,,,,,,,,,,,,,,,,,,AFSA15.jpg,AFNE13.jpg,AFNE17.jpg,AFSA16.jpg,AFSA15.jpg,FS,4,num_8,16,num_8,0.966790311737,,,2017_Oct_23_1532,60.0057160944,MAFE4ImagesEEG,001,201996,
AFNE01.JPG,AFNE01.JPG,AFNE01.JPG,AFNE01.JPG,AFNE01.JPG,AFNE01.JPG,,,,,0,2,2,5,,,,,,,,,,,,,,,,,,,AFSA16.jpg,AFNE11.jpg,AFSA03.jpg,AFNE08.jpg,AFNE11.jpg,FN,3,num_6,16,num_6,1.45009566052,,,2017_Oct_23_1532,60.0057160944,MAFE4ImagesEEG,001,201996,
AFNE01.JPG,AFNE01.JPG,AFNE01.JPG,AFNE01.JPG,AFNE01.JPG,AFNE01.JPG,,,,,0,3,3,4,,,,,,,,,,,,,,,,,,,AFNE18.jpg,AFSA16.jpg,AFSA10.jpg,AFNE19.jpg,AFSA10.jpg,FS,4,num_2,16,num_2,0.533487609122,,,2017_Oct_23_1532,60.0057160944,MAFE4ImagesEEG,001,201996,
AFNE01.JPG,AFNE01.JPG,AFNE01.JPG,AFNE01.JPG,AFNE01.JPG,AFNE01.JPG,,,,,0,4,4,3,,,,,,,,,,,,,,,,,,,AFNE03.jpg,AFSA01.jpg,AFSA16.jpg,AFNE15.jpg,AFSA01.jpg,FS,4,num_6,16,num_6,0.950207438204,,,2017_Oct_23_1532,60.0057160944,MAFE4ImagesEEG,001,201996,
AFNE01.JPG,AFNE01.JPG,AFNE01.JPG,AFNE01.JPG,AFNE01.JPG,AFNE01.JPG,,,,,0,5,5,0,,,,,,,,,,,,,,,,,,,AFNE18.jpg,AFSA09.jpg,AFSA17.jpg,AFNE04.jpg,AFNE18.jpg,FN,3,num_8,16,num_8,1.85006326588,,,2017_Oct_23_1532,60.0057160944,MAFE4ImagesEEG,001,201996,
AFNE01.JPG,AFNE01.JPG,AFNE01.JPG,AFNE01.JPG,AFNE01.JPG,AFNE01.JPG,,,,,0,6,6,6,,,,,,,,,,,,,,,,,,,AFSA03.jpg,AFNE04.jpg,AFSA14.jpg,AFNE01.jpg,AFNE01.jpg,FN,3,num_4,16,num_4,1.6833813641,,,2017_Oct_23_1532,60.0057160944,MAFE4ImagesEEG,001,201996,
AFNE01.JPG,AFNE01.JPG,AFNE01.JPG,AFNE01.JPG,AFNE01.JPG,AFNE01.JPG,,,,,0,7,7,1,,,,,,,,,,,,,,,,,,,AFSA14.jpg,AFSA20.jpg,AFNE12.jpg,AFNE03.jpg,AFNE03.jpg,FN,3,num_4,16,num_4,0.633530427702,,,2017_Oct_23_1532,60.0057160944,MAFE4ImagesEEG,001,201996,
AFNE01.JPG,AFNE01.JPG,AFNE01.JPG,AFNE01.JPG,AFNE01.JPG,AFNE01.JPG,,,,,0,8,8,8,,,,,,,,,,,,,,,,,,,AFSA02.jpg,AFSA11.jpg,AFNE19.jpg,AFNE17.jpg,AFSA11.jpg,FS,4,num_6,16,num_6,0.766795764212,,,2017_Oct_23_1532,60.0057160944,MAFE4ImagesEEG,001,201996,
AFNE01.JPG,AFNE01.JPG,AFNE01.JPG,AFNE01.JPG,AFNE01.JPG,AFNE01.JPG,,,,,0,9,9,2,,,,,,,,,,,,,,,,,,,AFNE01.jpg,AFSA20.jpg,AFNE11.jpg,AFSA05.jpg,AFNE01.jpg,FN,3,num_8,16,num_8,0.750396353891,,,2017_Oct_23_1532,60.0057160944,MAFE4ImagesEEG,001,201996,
AFNE01.JPG,AFNE01.JPG,AFNE01.JPG,AFNE01.JPG,AFNE01.JPG,AFNE01.JPG,,,,,1,0,10,6,,,,,,,,,,,,,,,,,,,AFSA19.jpg,AFSA03.jpg,AFNE14.jpg,AFNE06.jpg,AFNE14.jpg,FN,3,num_2,16,num_2,1.73325924249,,,2017_Oct_23_1532,60.0057160944,MAFE4ImagesEEG,001,201996,
AFNE01.JPG,AFNE01.JPG,AFNE01.JPG,AFNE01.JPG,AFNE01.JPG,AFNE01.JPG,,,,,1,1,11,8,,,,,,,,,,,,,,,,,,,AFNE18.jpg,AFNE10.jpg,AFSA06.jpg,AFSA02.jpg,AFSA02.jpg,FS,4,num_4,32,num_2,1.55011185794,,,2017_Oct_23_1532,60.0057160944,MAFE4ImagesEEG,001,201996,
AFNE01.JPG,AFNE01.JPG,AFNE01.JPG,AFNE01.JPG,AFNE01.JPG,AFNE01.JPG,,,,,1,2,12,7,,,,,,,,,,,,,,,,,,,AFNE04.jpg,AFSA12.jpg,AFNE05.jpg,AFSA20.jpg,AFSA12.jpg,FS,4,num_6,16,num_6,0.683544299682,,,2017_Oct_23_1532,60.0057160944,MAFE4ImagesEEG,001,201996,
AFNE01.JPG,AFNE01.JPG,AFNE01.JPG,AFNE01.JPG,AFNE01.JPG,AFNE01.JPG,,,,,1,3,13,2,,,,,,,,,,,,,,,,,,,AFNE17.jpg,AFSA03.jpg,AFSA16.jpg,AFNE08.jpg,AFNE17.jpg,FN,3,num_8,16,num_8,1.33339331159,,,2017_Oct_23_1532,60.0057160944,MAFE4ImagesEEG,001,201996,
AFNE01.JPG,AFNE01.JPG,AFNE01.JPG,AFNE01.JPG,AFNE01.JPG,AFNE01.JPG,,,,,1,4,14,4,,,,,,,,,,,,,,,,,,,AFSA02.jpg,AFSA13.jpg,AFNE10.jpg,AFNE19.jpg,AFSA13.jpg,FS,4,num_6,16,num_6,0.71675110131,,,2017_Oct_23_1532,60.0057160944,MAFE4ImagesEEG,001,201996,
AFNE01.JPG,AFNE01.JPG,AFNE01.JPG,AFNE01.JPG,AFNE01.JPG,AFNE01.JPG,,,,,1,5,15,3,,,,,,,,,,,,,,,,,,,AFNE09.jpg,AFSA01.jpg,AFNE06.jpg,AFSA09.jpg,AFNE09.jpg,FN,3,num_8,16,num_8,0.766792556969,,,2017_Oct_23_1532,60.0057160944,MAFE4ImagesEEG,001,201996,
AFNE01.JPG,AFNE01.JPG,AFNE01.JPG,AFNE01.JPG,AFNE01.JPG,AFNE01.JPG,,,,,1,6,16,0,,,,,,,,,,,,,,,,,,,AFNE07.jpg,AFSA08.jpg,AFSA02.jpg,AFNE11.jpg,AFNE11.jpg,FN,3,num_4,16,num_4,0.783458181191,,,2017_Oct_23_1532,60.0057160944,MAFE4ImagesEEG,001,201996,
AFNE01.JPG,AFNE01.JPG,AFNE01.JPG,AFNE01.JPG,AFNE01.JPG,AFNE01.JPG,,,,,1,7,17,5,,,,,,,,,,,,,,,,,,,AFNE08.jpg,AFNE07.jpg,AFSA13.jpg,AFSA02.jpg,AFSA13.jpg,FS,4,num_2,32,num_4,0.68329829257,,,2017_Oct_23_1532,60.0057160944,MAFE4ImagesEEG,001,201996,
AFNE01.JPG,AFNE01.JPG,AFNE01.JPG,AFNE01.JPG,AFNE01.JPG,AFNE01.JPG,,,,,1,8,18,1,,,,,,,,,,,,,,,,,,,AFNE16.jpg,AFSA09.jpg,AFSA13.jpg,AFNE04.jpg,AFSA13.jpg,FS,4,num_2,16,num_2,0.650116508594,,,2017_Oct_23_1532,60.0057160944,MAFE4ImagesEEG,001,201996,
AFNE01.JPG,AFNE01.JPG,AFNE01.JPG,AFNE01.JPG,AFNE01.JPG,AFNE01.JPG,,,,,1,9,19,9,,,,,,,,,,,,,,,,,,,AFNE16.jpg,AFSA16.jpg,AFSA19.jpg,AFNE06.jpg,AFNE06.jpg,FN,3,num_4,16,num_4,1.28343621059,,,2017_Oct_23_1532,60.0057160944,MAFE4ImagesEEG,001,201996,
AFNE01.JPG,AFNE01.JPG,AFNE01.JPG,AFNE01.JPG,AFNE01.JPG,AFNE01.JPG,,,,,2,0,20,6,,,,,,,,,,,,,,,,,,,AFSA03.jpg,AFNE10.jpg,AFSA13.jpg,AFNE19.jpg,AFSA13.jpg,FS,4,num_2,16,num_2,1.08345930371,,,2017_Oct_23_1532,60.0057160944,MAFE4ImagesEEG,001,201996,
AFNE01.JPG,AFNE01.JPG,AFNE01.JPG,AFNE01.JPG,AFNE01.JPG,AFNE01.JPG,,,,,2,1,21,0,,,,,,,,,,,,,,,,,,,AFNE13.jpg,AFNE06.jpg,AFSA16.jpg,AFSA01.jpg,AFNE13.jpg,FN,3,num_8,16,num_8,0.750100952806,,,2017_Oct_23_1532,60.0057160944,MAFE4ImagesEEG,001,201996,
AFNE01.JPG,AFNE01.JPG,AFNE01.JPG,AFNE01.JPG,AFNE01.JPG,AFNE01.JPG,,,,,2,2,22,3,,,,,,,,,,,,,,,,,,,AFSA08.jpg,AFNE10.jpg,AFNE17.jpg,AFSA18.jpg,AFNE17.jpg,FN,3,num_2,16,num_2,1.83349707094,,,2017_Oct_23_1532,60.0057160944,MAFE4ImagesEEG,001,201996,
AFNE01.JPG,AFNE01.JPG,AFNE01.JPG,AFNE01.JPG,AFNE01.JPG,AFNE01.JPG,,,,,2,3,23,5,,,,,,,,,,,,,,,,,,,AFSA14.jpg,AFNE07.jpg,AFSA04.jpg,AFNE02.jpg,AFNE07.jpg,FN,3,num_6,16,num_6,0.966745408252,,,2017_Oct_23_1532,60.0057160944,MAFE4ImagesEEG,001,201996,
AFNE01.JPG,AFNE01.JPG,AFNE01.JPG,AFNE01.JPG,AFNE01.JPG,AFNE01.JPG,,,,,2,4,24,4,,,,,,,,,,,,,,,,,,,AFNE01.jpg,AFNE12.jpg,AFSA14.jpg,AFSA13.jpg,AFSA14.jpg,FS,4,num_2,32,num_8,0.800105523318,,,2017_Oct_23_1532,60.0057160944,MAFE4ImagesEEG,001,201996,
AFNE01.JPG,AFNE01.JPG,AFNE01.JPG,AFNE01.JPG,AFNE01.JPG,AFNE01.JPG,,,,,2,5,25,9,,,,,,,,,,,,,,,,,,,AFSA16.jpg,AFNE07.jpg,AFSA15.jpg,AFNE11.jpg,AFSA15.jpg,FS,4,num_2,16,num_2,1.33342217817,,,2017_Oct_23_1532,60.0057160944,MAFE4ImagesEEG,001,201996,
AFNE01.JPG,AFNE01.JPG,AFNE01.JPG,AFNE01.JPG,AFNE01.JPG,AFNE01.JPG,,,,,2,6,26,1,,,,,,,,,,,,,,,,,,,AFSA11.jpg,AFNE07.jpg,AFSA02.jpg,AFNE09.jpg,AFNE09.jpg,FN,3,num_4,16,num_4,1.01672848919,,,2017_Oct_23_1532,60.0057160944,MAFE4ImagesEEG,001,201996,
AFNE01.JPG,AFNE01.JPG,AFNE01.JPG,AFNE01.JPG,AFNE01.JPG,AFNE01.JPG,,,,,2,7,27,7,,,,,,,,,,,,,,,,,,,AFNE03.jpg,AFSA09.jpg,AFNE05.jpg,AFSA17.jpg,AFSA09.jpg,FS,4,num_6,16,num_6,1.05010913161,,,2017_Oct_23_1532,60.0057160944,MAFE4ImagesEEG,001,201996,
AFNE01.JPG,AFNE01.JPG,AFNE01.JPG,AFNE01.JPG,AFNE01.JPG,AFNE01.JPG,,,,,2,8,28,8,,,,,,,,,,,,,,,,,,,AFNE05.jpg,AFNE04.jpg,AFSA12.jpg,AFSA08.jpg,AFSA12.jpg,FS,4,num_2,16,num_2,1.40017287852,,,2017_Oct_23_1532,60.0057160944,MAFE4ImagesEEG,001,201996,
AFNE01.JPG,AFNE01.JPG,AFNE01.JPG,AFNE01.JPG,AFNE01.JPG,AFNE01.JPG,,,,,2,9,29,2,,,,,,,,,,,,,,,,,,,AFNE07.jpg,AFSA18.jpg,AFSA05.jpg,AFNE13.jpg,AFNE07.jpg,FN,3,num_8,16,num_8,1.03345088428,,,2017_Oct_23_1532,60.0057160944,MAFE4ImagesEEG,001,201996,
AFNE01.JPG,AFNE01.JPG,AFNE01.JPG,AFNE01.JPG,AFNE01.JPG,AFNE01.JPG,,,,,3,0,30,0,,,,,,,,,,,,,,,,,,,AFNE03.jpg,AFNE13.jpg,AFSA06.jpg,AFSA03.jpg,AFNE13.jpg,FN,3,num_6,16,num_6,1.58309125528,,,2017_Oct_23_1532,60.0057160944,MAFE4ImagesEEG,001,201996,
AFNE01.JPG,AFNE01.JPG,AFNE01.JPG,AFNE01.JPG,AFNE01.JPG,AFNE01.JPG,,,,,3,1,31,7,,,,,,,,,,,,,,,,,,,AFSA17.jpg,AFNE01.jpg,AFNE10.jpg,AFSA09.jpg,AFNE10.jpg,FN,3,num_2,16,num_2,0.616777883144,,,2017_Oct_23_1532,60.0057160944,MAFE4ImagesEEG,001,201996,
AFNE01.JPG,AFNE01.JPG,AFNE01.JPG,AFNE01.JPG,AFNE01.JPG,AFNE01.JPG,,,,,3,2,32,3,,,,,,,,,,,,,,,,,,,AFNE05.jpg,AFSA03.jpg,AFSA04.jpg,AFNE12.jpg,AFNE05.jpg,FN,3,num_8,16,num_8,0.633476864197,,,2017_Oct_23_1532,60.0057160944,MAFE4ImagesEEG,001,201996,
AFNE01.JPG,AFNE01.JPG,AFNE01.JPG,AFNE01.JPG,AFNE01.JPG,AFNE01.JPG,,,,,3,3,33,2,,,,,,,,,,,,,,,,,,,AFSA14.jpg,AFNE17.jpg,AFNE16.jpg,AFSA17.jpg,AFNE17.jpg,FN,3,num_6,16,num_6,1.15007497289,,,2017_Oct_23_1532,60.0057160944,MAFE4ImagesEEG,001,201996,
AFNE01.JPG,AFNE01.JPG,AFNE01.JPG,AFNE01.JPG,AFNE01.JPG,AFNE01.JPG,,,,,3,4,34,5,,,,,,,,,,,,,,,,,,,AFSA07.jpg,AFSA16.jpg,AFNE02.jpg,AFNE19.jpg,AFNE02.jpg,FN,3,num_2,16,num_2,0.95011891413,,,2017_Oct_23_1532,60.0057160944,MAFE4ImagesEEG,001,201996,
AFNE01.JPG,AFNE01.JPG,AFNE01.JPG,AFNE01.JPG,AFNE01.JPG,AFNE01.JPG,,,,,3,5,35,9,,,,,,,,,,,,,,,,,,,AFNE03.jpg,AFNE08.jpg,AFSA04.jpg,AFSA20.jpg,AFSA04.jpg,FS,4,num_2,16,num_2,1.70007072308,,,2017_Oct_23_1532,60.0057160944,MAFE4ImagesEEG,001,201996,
AFNE01.JPG,AFNE01.JPG,AFNE01.JPG,AFNE01.JPG,AFNE01.JPG,AFNE01.JPG,,,,,3,6,36,8,,,,,,,,,,,,,,,,,,,AFNE05.jpg,AFSA12.jpg,AFSA06.jpg,AFNE02.jpg,AFSA12.jpg,FS,4,num_6,16,num_6,0.633516956703,,,2017_Oct_23_1532,60.0057160944,MAFE4ImagesEEG,001,201996,
AFNE01.JPG,AFNE01.JPG,AFNE01.JPG,AFNE01.JPG,AFNE01.JPG,AFNE01.JPG,,,,,3,7,37,6,,,,,,,,,,,,,,,,,,,AFNE20.jpg,AFSA19.jpg,AFNE17.jpg,AFSA17.jpg,AFNE20.jpg,FN,3,num_8,16,num_8,0.783478708472,,,2017_Oct_23_1532,60.0057160944,MAFE4ImagesEEG,001,201996,
AFNE01.JPG,AFNE01.JPG,AFNE01.JPG,AFNE01.JPG,AFNE01.JPG,AFNE01.JPG,,,,,3,8,38,4,,,,,,,,,,,,,,,,,,,AFSA02.jpg,AFNE10.jpg,AFSA20.jpg,AFNE19.jpg,AFSA20.jpg,FS,4,num_2,32,num_8,1.03349675005,,,2017_Oct_23_1532,60.0057160944,MAFE4ImagesEEG,001,201996,
AFNE01.JPG,AFNE01.JPG,AFNE01.JPG,AFNE01.JPG,AFNE01.JPG,AFNE01.JPG,,,,,3,9,39,1,,,,,,,,,,,,,,,,,,,AFSA07.jpg,AFNE07.jpg,AFSA09.jpg,AFNE09.jpg,AFNE07.jpg,FN,3,num_6,16,num_6,1.10015379463,,,2017_Oct_23_1532,60.0057160944,MAFE4ImagesEEG,001,201996,
AFNE01.JPG,AFNE01.JPG,AFNE01.JPG,AFNE01.JPG,AFNE01.JPG,AFNE01.JPG,,,,,4,0,40,5,,,,,,,,,,,,,,,,,,,AFSA09.jpg,AFNE19.jpg,AFSA10.jpg,AFNE05.jpg,AFSA09.jpg,FS,4,num_8,16,num_8,1.56671205128,,,2017_Oct_23_1532,60.0057160944,MAFE4ImagesEEG,001,201996,
AFNE01.JPG,AFNE01.JPG,AFNE01.JPG,AFNE01.JPG,AFNE01.JPG,AFNE01.JPG,,,,,4,1,41,3,,,,,,,,,,,,,,,,,,,AFSA16.jpg,AFNE09.jpg,AFSA03.jpg,AFNE01.jpg,AFSA16.jpg,FS,4,num_8,32,num_2,2.09967204381,,,2017_Oct_23_1532,60.0057160944,MAFE4ImagesEEG,001,201996,
AFNE01.JPG,AFNE01.JPG,AFNE01.JPG,AFNE01.JPG,AFNE01.JPG,AFNE01.JPG,,,,,4,2,42,9,,,,,,,,,,,,,,,,,,,AFSA04.jpg,AFSA08.jpg,AFNE06.jpg,AFNE10.jpg,AFSA08.jpg,FS,4,num_6,16,num_6,1.88351703691,,,2017_Oct_23_1532,60.0057160944,MAFE4ImagesEEG,001,201996,
AFNE01.JPG,AFNE01.JPG,AFNE01.JPG,AFNE01.JPG,AFNE01.JPG,AFNE01.JPG,,,,,4,3,43,6,,,,,,,,,,,,,,,,,,,AFSA13.jpg,AFSA01.jpg,AFNE07.jpg,AFNE04.jpg,AFNE04.jpg,FN,3,num_4,16,num_4,0.600110975909,,,2017_Oct_23_1532,60.0057160944,MAFE4ImagesEEG,001,201996,
AFNE01.JPG,AFNE01.JPG,AFNE01.JPG,AFNE01.JPG,AFNE01.JPG,AFNE01.JPG,,,,,4,4,44,4,,,,,,,,,,,,,,,,,,,AFNE14.jpg,AFNE05.jpg,AFSA16.jpg,AFSA03.jpg,AFNE05.jpg,FN,3,num_6,32,num_8,0.700394028565,,,2017_Oct_23_1532,60.0057160944,MAFE4ImagesEEG,001,201996,
AFNE01.JPG,AFNE01.JPG,AFNE01.JPG,AFNE01.JPG,AFNE01.JPG,AFNE01.JPG,,,,,4,5,45,8,,,,,,,,,,,,,,,,,,,AFSA09.jpg,AFNE01.jpg,AFNE16.jpg,AFSA05.jpg,AFSA09.jpg,FS,4,num_8,32,num_2,1.016718867,,,2017_Oct_23_1532,60.0057160944,MAFE4ImagesEEG,001,201996,
AFNE01.JPG,AFNE01.JPG,AFNE01.JPG,AFNE01.JPG,AFNE01.JPG,AFNE01.JPG,,,,,4,6,46,2,,,,,,,,,,,,,,,,,,,AFSA19.jpg,AFNE11.jpg,AFNE16.jpg,AFSA01.jpg,AFSA19.jpg,FS,4,num_8,32,num_2,1.9833468846,,,2017_Oct_23_1532,60.0057160944,MAFE4ImagesEEG,001,201996,
AFNE01.JPG,AFNE01.JPG,AFNE01.JPG,AFNE01.JPG,AFNE01.JPG,AFNE01.JPG,,,,,4,7,47,7,,,,,,,,,,,,,,,,,,,AFNE08.jpg,AFSA08.jpg,AFSA01.jpg,AFNE16.jpg,AFSA01.jpg,FS,4,num_2,32,num_4,1.20007665677,,,2017_Oct_23_1532,60.0057160944,MAFE4ImagesEEG,001,201996,
AFNE01.JPG,AFNE01.JPG,AFNE01.JPG,AFNE01.JPG,AFNE01.JPG,AFNE01.JPG,,,,,4,8,48,0,,,,,,,,,,,,,,,,,,,AFNE15.jpg,AFSA06.jpg,AFSA13.jpg,AFNE05.jpg,AFSA13.jpg,FS,4,num_2,32,num_6,0.950171836186,,,2017_Oct_23_1532,60.0057160944,MAFE4ImagesEEG,001,201996,
AFNE01.JPG,AFNE01.JPG,AFNE01.JPG,AFNE01.JPG,AFNE01.JPG,AFNE01.JPG,,,,,4,9,49,1,,,,,,,,,,,,,,,,,,,AFNE02.jpg,AFSA06.jpg,AFSA10.jpg,AFNE17.jpg,AFSA06.jpg,FS,4,num_6,16,num_6,0.816763129085,,,2017_Oct_23_1532,60.0057160944,MAFE4ImagesEEG,001,201996,
AFNE01.JPG,AFNE01.JPG,AFNE01.JPG,AFNE01.JPG,AFNE01.JPG,AFNE01.JPG,,,,,5,0,50,6,,,,,,,,,,,,,,,,,,,AFSA01.jpg,AFNE17.jpg,AFNE07.jpg,AFSA14.jpg,AFNE07.jpg,FN,3,num_2,16,num_2,1.85004722886,,,2017_Oct_23_1532,60.0057160944,MAFE4ImagesEEG,001,201996,
AFNE01.JPG,AFNE01.JPG,AFNE01.JPG,AFNE01.JPG,AFNE01.JPG,AFNE01.JPG,,,,,5,1,51,9,,,,,,,,,,,,,,,,,,,AFNE17.jpg,AFSA09.jpg,AFSA14.jpg,AFNE11.jpg,AFSA14.jpg,FS,4,num_2,32,num_8,0.816784939379,,,2017_Oct_23_1532,60.0057160944,MAFE4ImagesEEG,001,201996,
AFNE01.JPG,AFNE01.JPG,AFNE01.JPG,AFNE01.JPG,AFNE01.JPG,AFNE01.JPG,,,,,5,2,52,7,,,,,,,,,,,,,,,,,,,AFNE12.jpg,AFSA02.jpg,AFNE18.jpg,AFSA14.jpg,AFNE12.jpg,FN,3,num_8,16,num_8,0.550108650583,,,2017_Oct_23_1532,60.0057160944,MAFE4ImagesEEG,001,201996,
AFNE01.JPG,AFNE01.JPG,AFNE01.JPG,AFNE01.JPG,AFNE01.JPG,AFNE01.JPG,,,,,5,3,53,5,,,,,,,,,,,,,,,,,,,AFNE20.jpg,AFNE14.jpg,AFSA10.jpg,AFSA07.jpg,AFNE20.jpg,FN,3,num_8,16,num_8,0.733473496512,,,2017_Oct_23_1532,60.0057160944,MAFE4ImagesEEG,001,201996,
AFNE01.JPG,AFNE01.JPG,AFNE01.JPG,AFNE01.JPG,AFNE01.JPG,AFNE01.JPG,,,,,5,4,54,0,,,,,,,,,,,,,,,,,,,AFSA08.jpg,AFNE11.jpg,AFNE20.jpg,AFSA05.jpg,AFSA05.jpg,FS,4,num_4,16,num_4,1.25008186873,,,2017_Oct_23_1532,60.0057160944,MAFE4ImagesEEG,001,201996,
AFNE01.JPG,AFNE01.JPG,AFNE01.JPG,AFNE01.JPG,AFNE01.JPG,AFNE01.JPG,,,,,5,5,55,1,,,,,,,,,,,,,,,,,,,AFSA03.jpg,AFNE16.jpg,AFSA15.jpg,AFNE08.jpg,AFSA03.jpg,FS,4,num_8,16,num_8,1.51668438746,,,2017_Oct_23_1532,60.0057160944,MAFE4ImagesEEG,001,201996,
AFNE01.JPG,AFNE01.JPG,AFNE01.JPG,AFNE01.JPG,AFNE01.JPG,AFNE01.JPG,,,,,5,6,56,4,,,,,,,,,,,,,,,,,,,AFSA03.jpg,AFNE12.jpg,AFSA19.jpg,AFNE02.jpg,AFNE02.jpg,FN,3,num_4,16,num_4,1.05010528269,,,2017_Oct_23_1532,60.0057160944,MAFE4ImagesEEG,001,201996,
AFNE01.JPG,AFNE01.JPG,AFNE01.JPG,AFNE01.JPG,AFNE01.JPG,AFNE01.JPG,,,,,5,7,57,8,,,,,,,,,,,,,,,,,,,AFSA14.jpg,AFSA10.jpg,AFNE02.jpg,AFNE11.jpg,AFSA14.jpg,FS,4,num_8,16,num_8,2.10003030987,,,2017_Oct_23_1532,60.0057160944,MAFE4ImagesEEG,001,201996,
AFNE01.JPG,AFNE01.JPG,AFNE01.JPG,AFNE01.JPG,AFNE01.JPG,AFNE01.JPG,,,,,5,8,58,2,,,,,,,,,,,,,,,,,,,AFNE03.jpg,AFNE20.jpg,AFSA08.jpg,AFSA01.jpg,AFNE03.jpg,FN,3,num_8,32,num_4,1.90003063064,,,2017_Oct_23_1532,60.0057160944,MAFE4ImagesEEG,001,201996,
AFNE01.JPG,AFNE01.JPG,AFNE01.JPG,AFNE01.JPG,AFNE01.JPG,AFNE01.JPG,,,,,5,9,59,3,,,,,,,,,,,,,,,,,,,AFSA05.jpg,AFNE08.jpg,AFSA08.jpg,AFNE18.jpg,AFNE18.jpg,FN,3,num_4,16,num_4,0.750106726075,,,2017_Oct_23_1532,60.0057160944,MAFE4ImagesEEG,001,201996,
,,,,,,,,,,,,,,,,,,,,,,,,,,,,,,,,,,,,,,,,,,,space,29.5479603374,2017_Oct_23_1532,60.0057160944,MAFE4ImagesEEG,001,201996,
AFNE01.JPG,AFNE01.JPG,AFNE01.JPG,AFNE01.JPG,AFNE01.JPG,AFNE01.JPG,,,,,,,,,0,0,0,5,,,,,,,,,,,,,,,AMNE07.jpg,AMNE01.jpg,AMSA06.jpg,AMSA04.jpg,AMSA06.jpg,MS,2,num_2,32,num_6,2.01665728504,,,2017_Oct_23_1532,60.0057160944,MAFE4ImagesEEG,001,201996,
AFNE01.JPG,AFNE01.JPG,AFNE01.JPG,AFNE01.JPG,AFNE01.JPG,AFNE01.JPG,,,,,,,,,0,1,1,6,,,,,,,,,,,,,,,AMNE09.jpg,AMSA10.jpg,AMSA05.jpg,AMNE03.jpg,AMNE09.jpg,MN,1,num_8,16,num_8,0.583552157856,,,2017_Oct_23_1532,60.0057160944,MAFE4ImagesEEG,001,201996,
AFNE01.JPG,AFNE01.JPG,AFNE01.JPG,AFNE01.JPG,AFNE01.JPG,AFNE01.JPG,,,,,,,,,0,2,2,0,,,,,,,,,,,,,,,AMSA11.jpg,AMSA01.jpg,AMNE18.jpg,AMNE13.jpg,AMSA11.jpg,MS,2,num_8,16,num_8,0.583481595153,,,2017_Oct_23_1532,60.0057160944,MAFE4ImagesEEG,001,201996,
AFNE01.JPG,AFNE01.JPG,AFNE01.JPG,AFNE01.JPG,AFNE01.JPG,AFNE01.JPG,,,,,,,,,0,3,3,4,,,,,,,,,,,,,,,AMNE10.jpg,AMNE12.jpg,AMSA13.jpg,AMSA16.jpg,AMSA13.jpg,MS,2,num_2,16,num_2,0.500169831561,,,2017_Oct_23_1532,60.0057160944,MAFE4ImagesEEG,001,201996,
AFNE01.JPG,AFNE01.JPG,AFNE01.JPG,AFNE01.JPG,AFNE01.JPG,AFNE01.JPG,,,,,,,,,0,4,4,2,,,,,,,,,,,,,,,AMNE07.jpg,AMNE18.jpg,AMSA15.jpg,AMSA16.jpg,AMSA16.jpg,MS,2,num_4,16,num_4,0.633318418986,,,2017_Oct_23_1532,60.0057160944,MAFE4ImagesEEG,001,201996,
AFNE01.JPG,AFNE01.JPG,AFNE01.JPG,AFNE01.JPG,AFNE01.JPG,AFNE01.JPG,,,,,,,,,0,5,5,3,,,,,,,,,,,,,,,AMNE14.jpg,AMSA12.jpg,AMNE15.jpg,AMSA16.jpg,AMSA12.jpg,MS,2,num_6,16,num_6,0.683410230675,,,2017_Oct_23_1532,60.0057160944,MAFE4ImagesEEG,001,201996,
AFNE01.JPG,AFNE01.JPG,AFNE01.JPG,AFNE01.JPG,AFNE01.JPG,AFNE01.JPG,,,,,,,,,0,6,6,1,,,,,,,,,,,,,,,AMNE08.jpg,AMNE11.jpg,AMSA06.jpg,AMSA11.jpg,AMNE11.jpg,MN,1,num_6,32,num_8,0.700194849283,,,2017_Oct_23_1532,60.0057160944,MAFE4ImagesEEG,001,201996,
AFNE01.JPG,AFNE01.JPG,AFNE01.JPG,AFNE01.JPG,AFNE01.JPG,AFNE01.JPG,,,,,,,,,0,7,7,8,,,,,,,,,,,,,,,AMNE05.jpg,AMSA05.jpg,AMSA03.jpg,AMNE06.jpg,AMSA03.jpg,MS,2,num_2,16,num_2,0.766856384114,,,2017_Oct_23_1532,60.0057160944,MAFE4ImagesEEG,001,201996,
AFNE01.JPG,AFNE01.JPG,AFNE01.JPG,AFNE01.JPG,AFNE01.JPG,AFNE01.JPG,,,,,,,,,0,8,8,7,,,,,,,,,,,,,,,AMNE10.jpg,AMSA10.jpg,AMSA14.jpg,AMNE07.jpg,AMNE07.jpg,MN,1,num_4,32,num_6,0.60012893728,,,2017_Oct_23_1532,60.0057160944,MAFE4ImagesEEG,001,201996,
AFNE01.JPG,AFNE01.JPG,AFNE01.JPG,AFNE01.JPG,AFNE01.JPG,AFNE01.JPG,,,,,,,,,0,9,9,9,,,,,,,,,,,,,,,AMNE19.jpg,AMNE05.jpg,AMSA18.jpg,AMSA09.jpg,AMNE05.jpg,MN,1,num_6,16,num_6,1.01680931554,,,2017_Oct_23_1532,60.0057160944,MAFE4ImagesEEG,001,201996,
AFNE01.JPG,AFNE01.JPG,AFNE01.JPG,AFNE01.JPG,AFNE01.JPG,AFNE01.JPG,,,,,,,,,1,0,10,5,,,,,,,,,,,,,,,AMSA06.jpg,AMSA19.jpg,AMNE02.jpg,AMNE18.jpg,AMNE18.jpg,MN,1,num_4,16,num_4,0.850122923381,,,2017_Oct_23_1532,60.0057160944,MAFE4ImagesEEG,001,201996,
AFNE01.JPG,AFNE01.JPG,AFNE01.JPG,AFNE01.JPG,AFNE01.JPG,AFNE01.JPG,,,,,,,,,1,1,11,8,,,,,,,,,,,,,,,AMSA18.jpg,AMNE04.jpg,AMNE03.jpg,AMSA20.jpg,AMSA20.jpg,MS,2,num_4,16,num_4,2.5833311684,,,2017_Oct_23_1532,60.0057160944,MAFE4ImagesEEG,001,201996,
AFNE01.JPG,AFNE01.JPG,AFNE01.JPG,AFNE01.JPG,AFNE01.JPG,AFNE01.JPG,,,,,,,,,1,2,12,7,,,,,,,,,,,,,,,AMNE05.jpg,AMSA04.jpg,AMNE15.jpg,AMSA14.jpg,AMSA04.jpg,MS,2,num_6,16,num_6,1.90001780109,,,2017_Oct_23_1532,60.0057160944,MAFE4ImagesEEG,001,201996,
AFNE01.JPG,AFNE01.JPG,AFNE01.JPG,AFNE01.JPG,AFNE01.JPG,AFNE01.JPG,,,,,,,,,1,3,13,6,,,,,,,,,,,,,,,AMNE06.jpg,AMSA19.jpg,AMSA09.jpg,AMNE03.jpg,AMSA09.jpg,MS,2,num_2,16,num_2,1.00013118237,,,2017_Oct_23_1532,60.0057160944,MAFE4ImagesEEG,001,201996,
AFNE01.JPG,AFNE01.JPG,AFNE01.JPG,AFNE01.JPG,AFNE01.JPG,AFNE01.JPG,,,,,,,,,1,4,14,1,,,,,,,,,,,,,,,AMNE08.jpg,AMSA11.jpg,AMNE09.jpg,AMSA09.jpg,AMNE09.jpg,MN,1,num_2,32,num_8,0.733471892891,,,2017_Oct_23_1532,60.0057160944,MAFE4ImagesEEG,001,201996,
AFNE01.JPG,AFNE01.JPG,AFNE01.JPG,AFNE01.JPG,AFNE01.JPG,AFNE01.JPG,,,,,,,,,1,5,15,9,,,,,,,,,,,,,,,AMNE04.jpg,AMSA15.jpg,AMNE11.jpg,AMSA19.jpg,AMSA15.jpg,MS,2,num_6,16,num_6,0.833493222017,,,2017_Oct_23_1532,60.0057160944,MAFE4ImagesEEG,001,201996,
AFNE01.JPG,AFNE01.JPG,AFNE01.JPG,AFNE01.JPG,AFNE01.JPG,AFNE01.JPG,,,,,,,,,1,6,16,3,,,,,,,,,,,,,,,AMNE03.jpg,AMSA10.jpg,AMNE01.jpg,AMSA08.jpg,AMSA08.jpg,MS,2,num_4,32,num_8,1.18341295689,,,2017_Oct_23_1532,60.0057160944,MAFE4ImagesEEG,001,201996,
AFNE01.JPG,AFNE01.JPG,AFNE01.JPG,AFNE01.JPG,AFNE01.JPG,AFNE01.JPG,,,,,,,,,1,7,17,0,,,,,,,,,,,,,,,AMNE05.jpg,AMSA14.jpg,AMSA09.jpg,AMNE11.jpg,AMNE05.jpg,MN,1,num_8,16,num_8,1.03348552412,,,2017_Oct_23_1532,60.0057160944,MAFE4ImagesEEG,001,201996,
AFNE01.JPG,AFNE01.JPG,AFNE01.JPG,AFNE01.JPG,AFNE01.JPG,AFNE01.JPG,,,,,,,,,1,8,18,2,,,,,,,,,,,,,,,AMNE07.jpg,AMSA07.jpg,AMNE17.jpg,AMSA10.jpg,AMSA07.jpg,MS,2,num_6,32,num_4,1.05005556811,,,2017_Oct_23_1532,60.0057160944,MAFE4ImagesEEG,001,201996,
AFNE01.JPG,AFNE01.JPG,AFNE01.JPG,AFNE01.JPG,AFNE01.JPG,AFNE01.JPG,,,,,,,,,1,9,19,4,,,,,,,,,,,,,,,AMNE18.jpg,AMSA09.jpg,AMSA06.jpg,AMNE01.jpg,AMSA06.jpg,MS,2,num_2,32,num_6,1.90003319655,,,2017_Oct_23_1532,60.0057160944,MAFE4ImagesEEG,001,201996,
AFNE01.JPG,AFNE01.JPG,AFNE01.JPG,AFNE01.JPG,AFNE01.JPG,AFNE01.JPG,,,,,,,,,2,0,20,1,,,,,,,,,,,,,,,AMSA14.jpg,AMNE07.jpg,AMSA17.jpg,AMNE11.jpg,AMNE07.jpg,MN,1,num_6,32,num_4,0.78376256302,,,2017_Oct_23_1532,60.0057160944,MAFE4ImagesEEG,001,201996,
AFNE01.JPG,AFNE01.JPG,AFNE01.JPG,AFNE01.JPG,AFNE01.JPG,AFNE01.JPG,,,,,,,,,2,1,21,4,,,,,,,,,,,,,,,AMSA11.jpg,AMNE01.jpg,AMNE16.jpg,AMSA04.jpg,AMSA04.jpg,MS,2,num_4,16,num_4,2.06674075755,,,2017_Oct_23_1532,60.0057160944,MAFE4ImagesEEG,001,201996,
AFNE01.JPG,AFNE01.JPG,AFNE01.JPG,AFNE01.JPG,AFNE01.JPG,AFNE01.JPG,,,,,,,,,2,2,22,6,,,,,,,,,,,,,,,AMNE20.jpg,AMNE10.jpg,AMSA01.jpg,AMSA14.jpg,AMSA01.jpg,MS,2,num_2,16,num_2,1.11670491484,,,2017_Oct_23_1532,60.0057160944,MAFE4ImagesEEG,001,201996,
AFNE01.JPG,AFNE01.JPG,AFNE01.JPG,AFNE01.JPG,AFNE01.JPG,AFNE01.JPG,,,,,,,,,2,3,23,9,,,,,,,,,,,,,,,AMNE17.jpg,AMSA01.jpg,AMSA05.jpg,AMNE06.jpg,AMSA05.jpg,MS,2,num_2,32,num_4,0.683153639082,,,2017_Oct_23_1532,60.0057160944,MAFE4ImagesEEG,001,201996,
AFNE01.JPG,AFNE01.JPG,AFNE01.JPG,AFNE01.JPG,AFNE01.JPG,AFNE01.JPG,,,,,,,,,2,4,24,8,,,,,,,,,,,,,,,AMSA14.jpg,AMNE17.jpg,AMNE19.jpg,AMSA13.jpg,AMSA13.jpg,MS,2,num_4,16,num_4,1.26672504121,,,2017_Oct_23_1532,60.0057160944,MAFE4ImagesEEG,001,201996,
AFNE01.JPG,AFNE01.JPG,AFNE01.JPG,AFNE01.JPG,AFNE01.JPG,AFNE01.JPG,,,,,,,,,2,5,25,2,,,,,,,,,,,,,,,AMNE16.jpg,AMNE19.jpg,AMSA09.jpg,AMSA14.jpg,AMSA09.jpg,MS,2,num_2,32,num_6,0.883466680767,,,2017_Oct_23_1532,60.0057160944,MAFE4ImagesEEG,001,201996,
AFNE01.JPG,AFNE01.JPG,AFNE01.JPG,AFNE01.JPG,AFNE01.JPG,AFNE01.JPG,,,,,,,,,2,6,26,0,,,,,,,,,,,,,,,AMNE09.jpg,AMSA18.jpg,AMNE07.jpg,AMSA17.jpg,AMSA18.jpg,MS,2,num_6,16,num_6,1.00006799679,,,2017_Oct_23_1532,60.0057160944,MAFE4ImagesEEG,001,201996,
AFNE01.JPG,AFNE01.JPG,AFNE01.JPG,AFNE01.JPG,AFNE01.JPG,AFNE01.JPG,,,,,,,,,2,7,27,3,,,,,,,,,,,,,,,AMNE03.jpg,AMSA04.jpg,AMNE10.jpg,AMSA15.jpg,AMSA04.jpg,MS,2,num_6,16,num_6,0.716386099812,,,2017_Oct_23_1532,60.0057160944,MAFE4ImagesEEG,001,201996,
AFNE01.JPG,AFNE01.JPG,AFNE01.JPG,AFNE01.JPG,AFNE01.JPG,AFNE01.JPG,,,,,,,,,2,8,28,7,,,,,,,,,,,,,,,AMNE16.jpg,AMSA01.jpg,AMNE09.jpg,AMSA10.jpg,AMSA10.jpg,MS,2,num_4,16,num_4,1.26671221165,,,2017_Oct_23_1532,60.0057160944,MAFE4ImagesEEG,001,201996,
AFNE01.JPG,AFNE01.JPG,AFNE01.JPG,AFNE01.JPG,AFNE01.JPG,AFNE01.JPG,,,,,,,,,2,9,29,5,,,,,,,,,,,,,,,AMSA17.jpg,AMNE16.jpg,AMNE18.jpg,AMSA12.jpg,AMNE16.jpg,MN,1,num_6,16,num_6,0.833451525774,,,2017_Oct_23_1532,60.0057160944,MAFE4ImagesEEG,001,201996,
AFNE01.JPG,AFNE01.JPG,AFNE01.JPG,AFNE01.JPG,AFNE01.JPG,AFNE01.JPG,,,,,,,,,3,0,30,4,,,,,,,,,,,,,,,AMSA12.jpg,AMSA04.jpg,AMNE04.jpg,AMNE11.jpg,AMSA12.jpg,MS,2,num_8,32,num_4,1.31660388189,,,2017_Oct_23_1532,60.0057160944,MAFE4ImagesEEG,001,201996,
AFNE01.JPG,AFNE01.JPG,AFNE01.JPG,AFNE01.JPG,AFNE01.JPG,AFNE01.JPG,,,,,,,,,3,1,31,2,,,,,,,,,,,,,,,AMSA01.jpg,AMSA13.jpg,AMNE07.jpg,AMNE12.jpg,AMSA13.jpg,MS,2,num_6,32,num_4,1.30010600435,,,2017_Oct_23_1532,60.0057160944,MAFE4ImagesEEG,001,201996,
AFNE01.JPG,AFNE01.JPG,AFNE01.JPG,AFNE01.JPG,AFNE01.JPG,AFNE01.JPG,,,,,,,,,3,2,32,1,,,,,,,,,,,,,,,AMSA20.jpg,AMNE03.jpg,AMSA17.jpg,AMNE08.jpg,AMSA20.jpg,MS,2,num_8,16,num_8,1.95003199379,,,2017_Oct_23_1532,60.0057160944,MAFE4ImagesEEG,001,201996,
AFNE01.JPG,AFNE01.JPG,AFNE01.JPG,AFNE01.JPG,AFNE01.JPG,AFNE01.JPG,,,,,,,,,3,3,33,3,,,,,,,,,,,,,,,AMSA04.jpg,AMSA14.jpg,AMNE18.jpg,AMNE04.jpg,AMNE18.jpg,MN,1,num_2,32,num_4,1.8834025329,,,2017_Oct_23_1532,60.0057160944,MAFE4ImagesEEG,001,201996,
AFNE01.JPG,AFNE01.JPG,AFNE01.JPG,AFNE01.JPG,AFNE01.JPG,AFNE01.JPG,,,,,,,,,3,4,34,5,,,,,,,,,,,,,,,AMNE02.jpg,AMSA17.jpg,AMNE09.jpg,AMSA03.jpg,AMSA03.jpg,MS,2,num_4,16,num_4,0.683506773203,,,2017_Oct_23_1532,60.0057160944,MAFE4ImagesEEG,001,201996,
AFNE01.JPG,AFNE01.JPG,AFNE01.JPG,AFNE01.JPG,AFNE01.JPG,AFNE01.JPG,,,,,,,,,3,5,35,8,,,,,,,,,,,,,,,AMNE01.jpg,AMSA12.jpg,AMNE03.jpg,AMSA15.jpg,AMNE01.jpg,MN,1,num_8,16,num_8,0.50017592567,,,2017_Oct_23_1532,60.0057160944,MAFE4ImagesEEG,001,201996,
AFNE01.JPG,AFNE01.JPG,AFNE01.JPG,AFNE01.JPG,AFNE01.JPG,AFNE01.JPG,,,,,,,,,3,6,36,0,,,,,,,,,,,,,,,AMNE07.jpg,AMSA06.jpg,AMSA11.jpg,AMNE06.jpg,AMNE07.jpg,MN,1,num_8,32,num_4,0.966921173502,,,2017_Oct_23_1532,60.0057160944,MAFE4ImagesEEG,001,201996,
AFNE01.JPG,AFNE01.JPG,AFNE01.JPG,AFNE01.JPG,AFNE01.JPG,AFNE01.JPG,,,,,,,,,3,7,37,9,,,,,,,,,,,,,,,AMSA10.jpg,AMSA12.jpg,AMNE14.jpg,AMNE15.jpg,AMSA10.jpg,MS,2,num_8,16,num_8,0.483448398532,,,2017_Oct_23_1532,60.0057160944,MAFE4ImagesEEG,001,201996,
AFNE01.JPG,AFNE01.JPG,AFNE01.JPG,AFNE01.JPG,AFNE01.JPG,AFNE01.JPG,,,,,,,,,3,8,38,6,,,,,,,,,,,,,,,AMSA20.jpg,AMNE18.jpg,AMSA18.jpg,AMNE01.jpg,AMSA20.jpg,MS,2,num_8,32,num_6,0.950246568536,,,2017_Oct_23_1532,60.0057160944,MAFE4ImagesEEG,001,201996,
AFNE01.JPG,AFNE01.JPG,AFNE01.JPG,AFNE01.JPG,AFNE01.JPG,AFNE01.JPG,,,,,,,,,3,9,39,7,,,,,,,,,,,,,,,AMNE11.jpg,AMSA07.jpg,AMSA15.jpg,AMNE06.jpg,AMSA15.jpg,MS,2,num_2,16,num_2,0.73317328433,,,2017_Oct_23_1532,60.0057160944,MAFE4ImagesEEG,001,201996,
AFNE01.JPG,AFNE01.JPG,AFNE01.JPG,AFNE01.JPG,AFNE01.JPG,AFNE01.JPG,,,,,,,,,4,0,40,6,,,,,,,,,,,,,,,AMNE07.jpg,AMNE12.jpg,AMSA01.jpg,AMSA07.jpg,AMNE07.jpg,MN,1,num_8,16,num_8,1.20005099755,,,2017_Oct_23_1532,60.0057160944,MAFE4ImagesEEG,001,201996,
AFNE01.JPG,AFNE01.JPG,AFNE01.JPG,AFNE01.JPG,AFNE01.JPG,AFNE01.JPG,,,,,,,,,4,1,41,7,,,,,,,,,,,,,,,AMSA16.jpg,AMNE11.jpg,AMNE07.jpg,AMSA18.jpg,AMNE07.jpg,MN,1,num_2,16,num_2,2.41667524644,,,2017_Oct_23_1532,60.0057160944,MAFE4ImagesEEG,001,201996,
AFNE01.JPG,AFNE01.JPG,AFNE01.JPG,AFNE01.JPG,AFNE01.JPG,AFNE01.JPG,,,,,,,,,4,2,42,1,,,,,,,,,,,,,,,AMNE10.jpg,AMSA03.jpg,AMSA05.jpg,AMNE12.jpg,AMNE12.jpg,MN,1,num_4,32,num_8,0.733469968312,,,2017_Oct_23_1532,60.0057160944,MAFE4ImagesEEG,001,201996,
AFNE01.JPG,AFNE01.JPG,AFNE01.JPG,AFNE01.JPG,AFNE01.JPG,AFNE01.JPG,,,,,,,,,4,3,43,0,,,,,,,,,,,,,,,AMSA11.jpg,AMSA19.jpg,AMNE08.jpg,AMNE10.jpg,AMNE08.jpg,MN,1,num_2,32,num_8,0.566738672671,,,2017_Oct_23_1532,60.0057160944,MAFE4ImagesEEG,001,201996,
AFNE01.JPG,AFNE01.JPG,AFNE01.JPG,AFNE01.JPG,AFNE01.JPG,AFNE01.JPG,,,,,,,,,4,4,44,4,,,,,,,,,,,,,,,AMNE05.jpg,AMSA13.jpg,AMNE03.jpg,AMSA16.jpg,AMSA16.jpg,MS,2,num_4,16,num_4,0.716751742875,,,2017_Oct_23_1532,60.0057160944,MAFE4ImagesEEG,001,201996,
AFNE01.JPG,AFNE01.JPG,AFNE01.JPG,AFNE01.JPG,AFNE01.JPG,AFNE01.JPG,,,,,,,,,4,5,45,9,,,,,,,,,,,,,,,AMSA08.jpg,AMNE14.jpg,AMNE09.jpg,AMSA17.jpg,AMNE14.jpg,MN,1,num_6,16,num_6,0.78351206542,,,2017_Oct_23_1532,60.0057160944,MAFE4ImagesEEG,001,201996,
AFNE01.JPG,AFNE01.JPG,AFNE01.JPG,AFNE01.JPG,AFNE01.JPG,AFNE01.JPG,,,,,,,,,4,6,46,3,,,,,,,,,,,,,,,AMSA16.jpg,AMSA03.jpg,AMNE03.jpg,AMNE14.jpg,AMNE03.jpg,MN,1,num_2,32,num_8,0.966787425103,,,2017_Oct_23_1532,60.0057160944,MAFE4ImagesEEG,001,201996,
AFNE01.JPG,AFNE01.JPG,AFNE01.JPG,AFNE01.JPG,AFNE01.JPG,AFNE01.JPG,,,,,,,,,4,7,47,8,,,,,,,,,,,,,,,AMNE13.jpg,AMSA14.jpg,AMSA16.jpg,AMNE06.jpg,AMNE06.jpg,MN,1,num_4,16,num_4,0.566762728151,,,2017_Oct_23_1532,60.0057160944,MAFE4ImagesEEG,001,201996,
AFNE01.JPG,AFNE01.JPG,AFNE01.JPG,AFNE01.JPG,AFNE01.JPG,AFNE01.JPG,,,,,,,,,4,8,48,5,,,,,,,,,,,,,,,AMSA20.jpg,AMNE06.jpg,AMSA12.jpg,AMNE09.jpg,AMNE06.jpg,MN,1,num_6,16,num_6,0.550473652082,,,2017_Oct_23_1532,60.0057160944,MAFE4ImagesEEG,001,201996,
AFNE01.JPG,AFNE01.JPG,AFNE01.JPG,AFNE01.JPG,AFNE01.JPG,AFNE01.JPG,,,,,,,,,4,9,49,2,,,,,,,,,,,,,,,AMSA17.jpg,AMSA09.jpg,AMNE07.jpg,AMNE20.jpg,AMSA17.jpg,MS,2,num_8,16,num_8,0.500174642657,,,2017_Oct_23_1532,60.0057160944,MAFE4ImagesEEG,001,201996,
AFNE01.JPG,AFNE01.JPG,AFNE01.JPG,AFNE01.JPG,AFNE01.JPG,AFNE01.JPG,,,,,,,,,5,0,50,6,,,,,,,,,,,,,,,AMSA06.jpg,AMNE14.jpg,AMNE17.jpg,AMSA03.jpg,AMSA03.jpg,MS,2,num_4,32,num_8,0.633460827288,,,2017_Oct_23_1532,60.0057160944,MAFE4ImagesEEG,001,201996,
AFNE01.JPG,AFNE01.JPG,AFNE01.JPG,AFNE01.JPG,AFNE01.JPG,AFNE01.JPG,,,,,,,,,5,1,51,3,,,,,,,,,,,,,,,AMSA12.jpg,AMNE10.jpg,AMSA14.jpg,AMNE07.jpg,AMNE07.jpg,MN,1,num_4,32,num_6,1.93335931317,,,2017_Oct_23_1532,60.0057160944,MAFE4ImagesEEG,001,201996,
AFNE01.JPG,AFNE01.JPG,AFNE01.JPG,AFNE01.JPG,AFNE01.JPG,AFNE01.JPG,,,,,,,,,5,2,52,7,,,,,,,,,,,,,,,AMSA17.jpg,AMNE14.jpg,AMSA16.jpg,AMNE15.jpg,AMSA16.jpg,MS,2,num_2,16,num_2,1.01689944335,,,2017_Oct_23_1532,60.0057160944,MAFE4ImagesEEG,001,201996,
AFNE01.JPG,AFNE01.JPG,AFNE01.JPG,AFNE01.JPG,AFNE01.JPG,AFNE01.JPG,,,,,,,,,5,3,53,2,,,,,,,,,,,,,,,AMNE12.jpg,AMNE04.jpg,AMSA07.jpg,AMSA11.jpg,AMNE12.jpg,MN,1,num_8,16,num_8,1.30009157106,,,2017_Oct_23_1532,60.0057160944,MAFE4ImagesEEG,001,201996,
AFNE01.JPG,AFNE01.JPG,AFNE01.JPG,AFNE01.JPG,AFNE01.JPG,AFNE01.JPG,,,,,,,,,5,4,54,4,,,,,,,,,,,,,,,AMSA20.jpg,AMNE16.jpg,AMSA06.jpg,AMNE18.jpg,AMSA06.jpg,MS,2,num_2,16,num_2,0.450130621204,,,2017_Oct_23_1532,60.0057160944,MAFE4ImagesEEG,001,201996,
AFNE01.JPG,AFNE01.JPG,AFNE01.JPG,AFNE01.JPG,AFNE01.JPG,AFNE01.JPG,,,,,,,,,5,5,55,9,,,,,,,,,,,,,,,AMSA16.jpg,AMSA11.jpg,AMNE13.jpg,AMNE02.jpg,AMSA11.jpg,MS,2,num_6,16,num_6,0.466802018695,,,2017_Oct_23_1532,60.0057160944,MAFE4ImagesEEG,001,201996,
AFNE01.JPG,AFNE01.JPG,AFNE01.JPG,AFNE01.JPG,AFNE01.JPG,AFNE01.JPG,,,,,,,,,5,6,56,8,,,,,,,,,,,,,,,AMSA04.jpg,AMNE11.jpg,AMNE17.jpg,AMSA14.jpg,AMNE11.jpg,MN,1,num_6,16,num_6,0.700003367732,,,2017_Oct_23_1532,60.0057160944,MAFE4ImagesEEG,001,201996,
AFNE01.JPG,AFNE01.JPG,AFNE01.JPG,AFNE01.JPG,AFNE01.JPG,AFNE01.JPG,,,,,,,,,5,7,57,0,,,,,,,,,,,,,,,AMNE04.jpg,AMSA17.jpg,AMNE06.jpg,AMSA10.jpg,AMNE06.jpg,MN,1,num_2,16,num_2,1.16677972733,,,2017_Oct_23_1532,60.0057160944,MAFE4ImagesEEG,001,201996,
AFNE01.JPG,AFNE01.JPG,AFNE01.JPG,AFNE01.JPG,AFNE01.JPG,AFNE01.JPG,,,,,,,,,5,8,58,5,,,,,,,,,,,,,,,AMNE07.jpg,AMNE20.jpg,AMSA11.jpg,AMSA07.jpg,AMNE07.jpg,MN,1,num_8,32,num_6,0.950068878825,,,2017_Oct_23_1532,60.0057160944,MAFE4ImagesEEG,001,201996,
AFNE01.JPG,AFNE01.JPG,AFNE01.JPG,AFNE01.JPG,AFNE01.JPG,AFNE01.JPG,,,,,,,,,5,9,59,1,,,,,,,,,,,,,,,AMSA10.jpg,AMNE11.jpg,AMNE10.jpg,AMSA11.jpg,AMSA10.jpg,MS,2,num_8,16,num_8,2.18338024151,,,2017_Oct_23_1532,60.0057160944,MAFE4ImagesEEG,001,201996,
,,,,,,,,,,,,,,,,,,,,,,,,,,,,,,,,,,,,,,,,,,,space,55.779059239,2017_Oct_23_1532,60.0057160944,MAFE4ImagesEEG,001,201996,
AFNE01.JPG,AFNE01.JPG,AFNE01.JPG,AFNE01.JPG,AFNE01.JPG,AFNE01.JPG,,,,,,,,,,,,,0,0,0,0,,,,,,,,,,,AFSA11.jpg,AFNE05.jpg,AFNE02.jpg,AFSA08.jpg,AFSA11.jpg,FS,4,num_8,16,num_8,0.416632908746,,,2017_Oct_23_1532,60.0057160944,MAFE4ImagesEEG,001,201996,
AFNE01.JPG,AFNE01.JPG,AFNE01.JPG,AFNE01.JPG,AFNE01.JPG,AFNE01.JPG,,,,,,,,,,,,,0,1,1,2,,,,,,,,,,,AFSA14.jpg,AFNE02.jpg,AFSA09.jpg,AFNE19.jpg,AFNE02.jpg,FN,3,num_6,32,num_4,0.783499556594,,,2017_Oct_23_1532,60.0057160944,MAFE4ImagesEEG,001,201996,
AFNE01.JPG,AFNE01.JPG,AFNE01.JPG,AFNE01.JPG,AFNE01.JPG,AFNE01.JPG,,,,,,,,,,,,,0,2,2,1,,,,,,,,,,,AFSA14.jpg,AFNE18.jpg,AFNE04.jpg,AFSA13.jpg,AFNE18.jpg,FN,3,num_6,16,num_6,0.650015154853,,,2017_Oct_23_1532,60.0057160944,MAFE4ImagesEEG,001,201996,
AFNE01.JPG,AFNE01.JPG,AFNE01.JPG,AFNE01.JPG,AFNE01.JPG,AFNE01.JPG,,,,,,,,,,,,,0,3,3,6,,,,,,,,,,,AFNE03.jpg,AFNE19.jpg,AFSA06.jpg,AFSA04.jpg,AFNE19.jpg,FN,3,num_6,16,num_6,0.63345152582,,,2017_Oct_23_1532,60.0057160944,MAFE4ImagesEEG,001,201996,
AFNE01.JPG,AFNE01.JPG,AFNE01.JPG,AFNE01.JPG,AFNE01.JPG,AFNE01.JPG,,,,,,,,,,,,,0,4,4,7,,,,,,,,,,,AFNE12.jpg,AFNE03.jpg,AFSA18.jpg,AFSA08.jpg,AFNE12.jpg,FN,3,num_8,16,num_8,0.600118352915,,,2017_Oct_23_1532,60.0057160944,MAFE4ImagesEEG,001,201996,
AFNE01.JPG,AFNE01.JPG,AFNE01.JPG,AFNE01.JPG,AFNE01.JPG,AFNE01.JPG,,,,,,,,,,,,,0,5,5,3,,,,,,,,,,,AFNE13.jpg,AFSA11.jpg,AFSA20.jpg,AFNE19.jpg,AFSA20.jpg,FS,4,num_2,16,num_2,0.950082349824,,,2017_Oct_23_1532,60.0057160944,MAFE4ImagesEEG,001,201996,
AFNE01.JPG,AFNE01.JPG,AFNE01.JPG,AFNE01.JPG,AFNE01.JPG,AFNE01.JPG,,,,,,,,,,,,,0,6,6,8,,,,,,,,,,,AFNE05.jpg,AFNE06.jpg,AFSA06.jpg,AFSA18.jpg,AFSA18.jpg,FS,4,num_4,16,num_4,1.41676505352,,,2017_Oct_23_1532,60.0057160944,MAFE4ImagesEEG,001,201996,
AFNE01.JPG,AFNE01.JPG,AFNE01.JPG,AFNE01.JPG,AFNE01.JPG,AFNE01.JPG,,,,,,,,,,,,,0,7,7,5,,,,,,,,,,,AFNE16.jpg,AFSA13.jpg,AFSA01.jpg,AFNE10.jpg,AFSA01.jpg,FS,4,num_2,32,num_6,0.950106726028,,,2017_Oct_23_1532,60.0057160944,MAFE4ImagesEEG,001,201996,
AFNE01.JPG,AFNE01.JPG,AFNE01.JPG,AFNE01.JPG,AFNE01.JPG,AFNE01.JPG,,,,,,,,,,,,,0,8,8,4,,,,,,,,,,,AFNE05.jpg,AFSA15.jpg,AFSA13.jpg,AFNE14.jpg,AFSA15.jpg,FS,4,num_6,16,num_6,0.583445030847,,,2017_Oct_23_1532,60.0057160944,MAFE4ImagesEEG,001,201996,
AFNE01.JPG,AFNE01.JPG,AFNE01.JPG,AFNE01.JPG,AFNE01.JPG,AFNE01.JPG,,,,,,,,,,,,,0,9,9,9,,,,,,,,,,,AFSA15.jpg,AFNE07.jpg,AFNE14.jpg,AFSA17.jpg,AFSA15.jpg,FS,4,num_8,16,num_8,0.866767378873,,,2017_Oct_23_1532,60.0057160944,MAFE4ImagesEEG,001,201996,
AFNE01.JPG,AFNE01.JPG,AFNE01.JPG,AFNE01.JPG,AFNE01.JPG,AFNE01.JPG,,,,,,,,,,,,,1,0,10,4,,,,,,,,,,,AFNE07.jpg,AFNE10.jpg,AFSA09.jpg,AFSA01.jpg,AFSA01.jpg,FS,4,num_4,32,num_2,1.83341303712,,,2017_Oct_23_1532,60.0057160944,MAFE4ImagesEEG,001,201996,
AFNE01.JPG,AFNE01.JPG,AFNE01.JPG,AFNE01.JPG,AFNE01.JPG,AFNE01.JPG,,,,,,,,,,,,,1,1,11,6,,,,,,,,,,,AFSA02.jpg,AFNE12.jpg,AFNE11.jpg,AFSA17.jpg,AFSA02.jpg,FS,4,num_8,16,num_8,0.3834389369,,,2017_Oct_23_1532,60.0057160944,MAFE4ImagesEEG,001,201996,
AFNE01.JPG,AFNE01.JPG,AFNE01.JPG,AFNE01.JPG,AFNE01.JPG,AFNE01.JPG,,,,,,,,,,,,,1,2,12,2,,,,,,,,,,,AFNE16.jpg,AFSA18.jpg,AFNE08.jpg,AFSA09.jpg,AFNE16.jpg,FN,3,num_8,16,num_8,0.900147379842,,,2017_Oct_23_1532,60.0057160944,MAFE4ImagesEEG,001,201996,
AFNE01.JPG,AFNE01.JPG,AFNE01.JPG,AFNE01.JPG,AFNE01.JPG,AFNE01.JPG,,,,,,,,,,,,,1,3,13,8,,,,,,,,,,,AFSA15.jpg,AFSA06.jpg,AFNE08.jpg,AFNE09.jpg,AFSA15.jpg,FS,4,num_8,32,num_2,1.85001258901,,,2017_Oct_23_1532,60.0057160944,MAFE4ImagesEEG,001,201996,
AFNE01.JPG,AFNE01.JPG,AFNE01.JPG,AFNE01.JPG,AFNE01.JPG,AFNE01.JPG,,,,,,,,,,,,,1,4,14,1,,,,,,,,,,,AFNE12.jpg,AFSA11.jpg,AFSA20.jpg,AFNE20.jpg,AFSA20.jpg,FS,4,num_2,32,num_8,1.75005925668,,,2017_Oct_23_1532,60.0057160944,MAFE4ImagesEEG,001,201996,
AFNE01.JPG,AFNE01.JPG,AFNE01.JPG,AFNE01.JPG,AFNE01.JPG,AFNE01.JPG,,,,,,,,,,,,,1,5,15,5,,,,,,,,,,,AFSA12.jpg,AFNE15.jpg,AFSA15.jpg,AFNE06.jpg,AFSA15.jpg,FS,4,num_2,32,num_4,1.3834184095,,,2017_Oct_23_1532,60.0057160944,MAFE4ImagesEEG,001,201996,
AFNE01.JPG,AFNE01.JPG,AFNE01.JPG,AFNE01.JPG,AFNE01.JPG,AFNE01.JPG,,,,,,,,,,,,,1,6,16,0,,,,,,,,,,,AFSA05.jpg,AFNE02.jpg,AFNE14.jpg,AFSA02.jpg,AFNE02.jpg,FN,3,num_6,16,num_6,0.883482076344,,,2017_Oct_23_1532,60.0057160944,MAFE4ImagesEEG,001,201996,
AFNE01.JPG,AFNE01.JPG,AFNE01.JPG,AFNE01.JPG,AFNE01.JPG,AFNE01.JPG,,,,,,,,,,,,,1,7,17,9,,,,,,,,,,,AFSA13.jpg,AFSA19.jpg,AFNE10.jpg,AFNE07.jpg,AFSA13.jpg,FS,4,num_8,16,num_8,1.28344679496,,,2017_Oct_23_1532,60.0057160944,MAFE4ImagesEEG,001,201996,
AFNE01.JPG,AFNE01.JPG,AFNE01.JPG,AFNE01.JPG,AFNE01.JPG,AFNE01.JPG,,,,,,,,,,,,,1,8,18,3,,,,,,,,,,,AFNE16.jpg,AFNE03.jpg,AFSA11.jpg,AFSA19.jpg,AFNE03.jpg,FN,3,num_6,16,num_6,0.633667062852,,,2017_Oct_23_1532,60.0057160944,MAFE4ImagesEEG,001,201996,
AFNE01.JPG,AFNE01.JPG,AFNE01.JPG,AFNE01.JPG,AFNE01.JPG,AFNE01.JPG,,,,,,,,,,,,,1,9,19,7,,,,,,,,,,,AFNE13.jpg,AFSA19.jpg,AFNE08.jpg,AFSA04.jpg,AFNE08.jpg,FN,3,num_2,32,num_8,1.0834907362,,,2017_Oct_23_1532,60.0057160944,MAFE4ImagesEEG,001,201996,
AFNE01.JPG,AFNE01.JPG,AFNE01.JPG,AFNE01.JPG,AFNE01.JPG,AFNE01.JPG,,,,,,,,,,,,,2,0,20,7,,,,,,,,,,,AFSA15.jpg,AFSA07.jpg,AFNE05.jpg,AFNE12.jpg,AFNE05.jpg,FN,3,num_2,16,num_2,0.883488170337,,,2017_Oct_23_1532,60.0057160944,MAFE4ImagesEEG,001,201996,
AFNE01.JPG,AFNE01.JPG,AFNE01.JPG,AFNE01.JPG,AFNE01.JPG,AFNE01.JPG,,,,,,,,,,,,,2,1,21,9,,,,,,,,,,,AFSA17.jpg,AFSA12.jpg,AFNE05.jpg,AFNE10.jpg,AFSA17.jpg,FS,4,num_8,16,num_8,0.633479109383,,,2017_Oct_23_1532,60.0057160944,MAFE4ImagesEEG,001,201996,
AFNE01.JPG,AFNE01.JPG,AFNE01.JPG,AFNE01.JPG,AFNE01.JPG,AFNE01.JPG,,,,,,,,,,,,,2,2,22,4,,,,,,,,,,,AFSA12.jpg,AFSA08.jpg,AFNE14.jpg,AFNE03.jpg,AFNE03.jpg,FN,3,num_4,16,num_4,1.21644110663,,,2017_Oct_23_1532,60.0057160944,MAFE4ImagesEEG,001,201996,
AFNE01.JPG,AFNE01.JPG,AFNE01.JPG,AFNE01.JPG,AFNE01.JPG,AFNE01.JPG,,,,,,,,,,,,,2,3,23,3,,,,,,,,,,,AFNE14.jpg,AFSA03.jpg,AFNE10.jpg,AFSA10.jpg,AFSA10.jpg,FS,4,num_4,16,num_4,2.10001715948,,,2017_Oct_23_1532,60.0057160944,MAFE4ImagesEEG,001,201996,
AFNE01.JPG,AFNE01.JPG,AFNE01.JPG,AFNE01.JPG,AFNE01.JPG,AFNE01.JPG,,,,,,,,,,,,,2,4,24,5,,,,,,,,,,,AFSA06.jpg,AFSA07.jpg,AFNE19.jpg,AFNE20.jpg,AFNE19.jpg,FN,3,num_2,16,num_2,0.850241276203,,,2017_Oct_23_1532,60.0057160944,MAFE4ImagesEEG,001,201996,
AFNE01.JPG,AFNE01.JPG,AFNE01.JPG,AFNE01.JPG,AFNE01.JPG,AFNE01.JPG,,,,,,,,,,,,,2,5,25,8,,,,,,,,,,,AFSA07.jpg,AFNE08.jpg,AFNE14.jpg,AFSA02.jpg,AFNE08.jpg,FN,3,num_6,16,num_6,0.950407258933,,,2017_Oct_23_1532,60.0057160944,MAFE4ImagesEEG,001,201996,
AFNE01.JPG,AFNE01.JPG,AFNE01.JPG,AFNE01.JPG,AFNE01.JPG,AFNE01.JPG,,,,,,,,,,,,,2,6,26,0,,,,,,,,,,,AFSA16.jpg,AFNE08.jpg,AFSA20.jpg,AFNE12.jpg,AFNE08.jpg,FN,3,num_6,16,num_6,0.700111456914,,,2017_Oct_23_1532,60.0057160944,MAFE4ImagesEEG,001,201996,
AFNE01.JPG,AFNE01.JPG,AFNE01.JPG,AFNE01.JPG,AFNE01.JPG,AFNE01.JPG,,,,,,,,,,,,,2,7,27,2,,,,,,,,,,,AFSA03.jpg,AFNE13.jpg,AFNE17.jpg,AFSA10.jpg,AFSA03.jpg,FS,4,num_8,32,num_6,1.03343645111,,,2017_Oct_23_1532,60.0057160944,MAFE4ImagesEEG,001,201996,
AFNE01.JPG,AFNE01.JPG,AFNE01.JPG,AFNE01.JPG,AFNE01.JPG,AFNE01.JPG,,,,,,,,,,,,,2,8,28,6,,,,,,,,,,,AFSA06.jpg,AFNE18.jpg,AFNE16.jpg,AFSA16.jpg,AFNE16.jpg,FN,3,num_2,16,num_2,1.23338673648,,,2017_Oct_23_1532,60.0057160944,MAFE4ImagesEEG,001,201996,
AFNE01.JPG,AFNE01.JPG,AFNE01.JPG,AFNE01.JPG,AFNE01.JPG,AFNE01.JPG,,,,,,,,,,,,,2,9,29,1,,,,,,,,,,,AFNE07.jpg,AFSA09.jpg,AFNE10.jpg,AFSA10.jpg,AFSA10.jpg,FS,4,num_4,16,num_4,1.41668551008,,,2017_Oct_23_1532,60.0057160944,MAFE4ImagesEEG,001,201996,
AFNE01.JPG,AFNE01.JPG,AFNE01.JPG,AFNE01.JPG,AFNE01.JPG,AFNE01.JPG,,,,,,,,,,,,,3,0,30,6,,,,,,,,,,,AFSA11.jpg,AFNE10.jpg,AFNE14.jpg,AFSA09.jpg,AFNE14.jpg,FN,3,num_2,16,num_2,1.16672295646,,,2017_Oct_23_1532,60.0057160944,MAFE4ImagesEEG,001,201996,
AFNE01.JPG,AFNE01.JPG,AFNE01.JPG,AFNE01.JPG,AFNE01.JPG,AFNE01.JPG,,,,,,,,,,,,,3,1,31,9,,,,,,,,,,,AFSA05.jpg,AFNE06.jpg,AFNE19.jpg,AFSA06.jpg,AFNE19.jpg,FN,3,num_2,16,num_2,0.483491056948,,,2017_Oct_23_1532,60.0057160944,MAFE4ImagesEEG,001,201996,
AFNE01.JPG,AFNE01.JPG,AFNE01.JPG,AFNE01.JPG,AFNE01.JPG,AFNE01.JPG,,,,,,,,,,,,,3,2,32,8,,,,,,,,,,,AFNE12.jpg,AFNE10.jpg,AFSA07.jpg,AFSA03.jpg,AFSA03.jpg,FS,4,num_4,32,num_2,1.20014369127,,,2017_Oct_23_1532,60.0057160944,MAFE4ImagesEEG,001,201996,
AFNE01.JPG,AFNE01.JPG,AFNE01.JPG,AFNE01.JPG,AFNE01.JPG,AFNE01.JPG,,,,,,,,,,,,,3,3,33,7,,,,,,,,,,,AFNE11.jpg,AFSA05.jpg,AFSA04.jpg,AFNE15.jpg,AFNE15.jpg,FN,3,num_4,16,num_4,0.733474458684,,,2017_Oct_23_1532,60.0057160944,MAFE4ImagesEEG,001,201996,
AFNE01.JPG,AFNE01.JPG,AFNE01.JPG,AFNE01.JPG,AFNE01.JPG,AFNE01.JPG,,,,,,,,,,,,,3,4,34,5,,,,,,,,,,,AFNE17.jpg,AFSA19.jpg,AFNE20.jpg,AFSA15.jpg,AFSA15.jpg,FS,4,num_4,32,num_2,1.10011498502,,,2017_Oct_23_1532,60.0057160944,MAFE4ImagesEEG,001,201996,
AFNE01.JPG,AFNE01.JPG,AFNE01.JPG,AFNE01.JPG,AFNE01.JPG,AFNE01.JPG,,,,,,,,,,,,,3,5,35,2,,,,,,,,,,,AFNE09.jpg,AFSA02.jpg,AFSA09.jpg,AFNE11.jpg,AFSA02.jpg,FS,4,num_6,32,num_2,0.866802018718,,,2017_Oct_23_1532,60.0057160944,MAFE4ImagesEEG,001,201996,
AFNE01.JPG,AFNE01.JPG,AFNE01.JPG,AFNE01.JPG,AFNE01.JPG,AFNE01.JPG,,,,,,,,,,,,,3,6,36,0,,,,,,,,,,,AFNE17.jpg,AFNE18.jpg,AFSA09.jpg,AFSA11.jpg,AFNE18.jpg,FN,3,num_6,16,num_6,0.816819579224,,,2017_Oct_23_1532,60.0057160944,MAFE4ImagesEEG,001,201996,
AFNE01.JPG,AFNE01.JPG,AFNE01.JPG,AFNE01.JPG,AFNE01.JPG,AFNE01.JPG,,,,,,,,,,,,,3,7,37,4,,,,,,,,,,,AFSA15.jpg,AFNE08.jpg,AFSA10.jpg,AFNE15.jpg,AFNE08.jpg,FN,3,num_6,32,num_4,0.700103759184,,,2017_Oct_23_1532,60.0057160944,MAFE4ImagesEEG,001,201996,
AFNE01.JPG,AFNE01.JPG,AFNE01.JPG,AFNE01.JPG,AFNE01.JPG,AFNE01.JPG,,,,,,,,,,,,,3,8,38,3,,,,,,,,,,,AFNE01.jpg,AFSA16.jpg,AFNE08.jpg,AFSA17.jpg,AFNE08.jpg,FN,3,num_2,32,num_6,0.900112739881,,,2017_Oct_23_1532,60.0057160944,MAFE4ImagesEEG,001,201996,
AFNE01.JPG,AFNE01.JPG,AFNE01.JPG,AFNE01.JPG,AFNE01.JPG,AFNE01.JPG,,,,,,,,,,,,,3,9,39,1,,,,,,,,,,,AFNE11.jpg,AFNE16.jpg,AFSA20.jpg,AFSA13.jpg,AFNE11.jpg,FN,3,num_8,16,num_8,0.783489613677,,,2017_Oct_23_1532,60.0057160944,MAFE4ImagesEEG,001,201996,
AFNE01.JPG,AFNE01.JPG,AFNE01.JPG,AFNE01.JPG,AFNE01.JPG,AFNE01.JPG,,,,,,,,,,,,,4,0,40,0,,,,,,,,,,,AFSA04.jpg,AFNE11.jpg,AFSA20.jpg,AFNE08.jpg,AFNE08.jpg,FN,3,num_4,16,num_4,0.700288825901,,,2017_Oct_23_1532,60.0057160944,MAFE4ImagesEEG,001,201996,
AFNE01.JPG,AFNE01.JPG,AFNE01.JPG,AFNE01.JPG,AFNE01.JPG,AFNE01.JPG,,,,,,,,,,,,,4,1,41,1,,,,,,,,,,,AFNE15.jpg,AFSA18.jpg,AFSA14.jpg,AFNE07.jpg,AFNE07.jpg,FN,3,num_4,16,num_4,0.716858228319,,,2017_Oct_23_1532,60.0057160944,MAFE4ImagesEEG,001,201996,
AFNE01.JPG,AFNE01.JPG,AFNE01.JPG,AFNE01.JPG,AFNE01.JPG,AFNE01.JPG,,,,,,,,,,,,,4,2,42,4,,,,,,,,,,,AFSA14.jpg,AFSA16.jpg,AFNE15.jpg,AFNE03.jpg,AFNE15.jpg,FN,3,num_2,16,num_2,0.716801136732,,,2017_Oct_23_1532,60.0057160944,MAFE4ImagesEEG,001,201996,
AFNE01.JPG,AFNE01.JPG,AFNE01.JPG,AFNE01.JPG,AFNE01.JPG,AFNE01.JPG,,,,,,,,,,,,,4,3,43,7,,,,,,,,,,,AFSA04.jpg,AFNE05.jpg,AFSA06.jpg,AFNE06.jpg,AFNE06.jpg,FN,3,num_4,32,num_8,1.31671934808,,,2017_Oct_23_1532,60.0057160944,MAFE4ImagesEEG,001,201996,
AFNE01.JPG,AFNE01.JPG,AFNE01.JPG,AFNE01.JPG,AFNE01.JPG,AFNE01.JPG,,,,,,,,,,,,,4,4,44,5,,,,,,,,,,,AFNE07.jpg,AFSA07.jpg,AFSA04.jpg,AFNE04.jpg,AFNE07.jpg,FN,3,num_8,16,num_8,0.733473175787,,,2017_Oct_23_1532,60.0057160944,MAFE4ImagesEEG,001,201996,
AFNE01.JPG,AFNE01.JPG,AFNE01.JPG,AFNE01.JPG,AFNE01.JPG,AFNE01.JPG,,,,,,,,,,,,,4,5,45,2,,,,,,,,,,,AFNE08.jpg,AFSA13.jpg,AFNE06.jpg,AFSA20.jpg,AFSA13.jpg,FS,4,num_6,16,num_6,0.516811721027,,,2017_Oct_23_1532,60.0057160944,MAFE4ImagesEEG,001,201996,
AFNE01.JPG,AFNE01.JPG,AFNE01.JPG,AFNE01.JPG,AFNE01.JPG,AFNE01.JPG,,,,,,,,,,,,,4,6,46,3,,,,,,,,,,,AFNE11.jpg,AFSA09.jpg,AFNE01.jpg,AFSA11.jpg,AFNE11.jpg,FN,3,num_8,32,num_4,0.700131663587,,,2017_Oct_23_1532,60.0057160944,MAFE4ImagesEEG,001,201996,
AFNE01.JPG,AFNE01.JPG,AFNE01.JPG,AFNE01.JPG,AFNE01.JPG,AFNE01.JPG,,,,,,,,,,,,,4,7,47,9,,,,,,,,,,,AFSA07.jpg,AFNE09.jpg,AFSA08.jpg,AFNE13.jpg,AFSA07.jpg,FS,4,num_8,32,num_4,0.916799532948,,,2017_Oct_23_1532,60.0057160944,MAFE4ImagesEEG,001,201996,
AFNE01.JPG,AFNE01.JPG,AFNE01.JPG,AFNE01.JPG,AFNE01.JPG,AFNE01.JPG,,,,,,,,,,,,,4,8,48,8,,,,,,,,,,,AFSA19.jpg,AFNE13.jpg,AFSA02.jpg,AFNE19.jpg,AFSA19.jpg,FS,4,num_8,32,num_4,0.583466199692,,,2017_Oct_23_1532,60.0057160944,MAFE4ImagesEEG,001,201996,
AFNE01.JPG,AFNE01.JPG,AFNE01.JPG,AFNE01.JPG,AFNE01.JPG,AFNE01.JPG,,,,,,,,,,,,,4,9,49,6,,,,,,,,,,,AFSA01.jpg,AFNE14.jpg,AFSA13.jpg,AFNE05.jpg,AFNE05.jpg,FN,3,num_4,16,num_4,1.01666626567,,,2017_Oct_23_1532,60.0057160944,MAFE4ImagesEEG,001,201996,
AFNE01.JPG,AFNE01.JPG,AFNE01.JPG,AFNE01.JPG,AFNE01.JPG,AFNE01.JPG,,,,,,,,,,,,,5,0,50,2,,,,,,,,,,,AFNE14.jpg,AFSA06.jpg,AFNE01.jpg,AFSA05.jpg,AFNE14.jpg,FN,3,num_8,16,num_8,1.00009975,,,2017_Oct_23_1532,60.0057160944,MAFE4ImagesEEG,001,201996,
AFNE01.JPG,AFNE01.JPG,AFNE01.JPG,AFNE01.JPG,AFNE01.JPG,AFNE01.JPG,,,,,,,,,,,,,5,1,51,0,,,,,,,,,,,AFNE14.jpg,AFSA15.jpg,AFSA04.jpg,AFNE17.jpg,AFNE14.jpg,FN,3,num_8,16,num_8,1.31671549927,,,2017_Oct_23_1532,60.0057160944,MAFE4ImagesEEG,001,201996,
AFNE01.JPG,AFNE01.JPG,AFNE01.JPG,AFNE01.JPG,AFNE01.JPG,AFNE01.JPG,,,,,,,,,,,,,5,2,52,3,,,,,,,,,,,AFSA05.jpg,AFNE16.jpg,AFNE15.jpg,AFSA08.jpg,AFSA05.jpg,FS,4,num_8,16,num_8,2.00003143249,,,2017_Oct_23_1532,60.0057160944,MAFE4ImagesEEG,001,201996,
AFNE01.JPG,AFNE01.JPG,AFNE01.JPG,AFNE01.JPG,AFNE01.JPG,AFNE01.JPG,,,,,,,,,,,,,5,3,53,7,,,,,,,,,,,AFSA07.jpg,AFNE04.jpg,AFNE02.jpg,AFSA13.jpg,AFNE02.jpg,FN,3,num_2,16,num_2,1.10011947551,,,2017_Oct_23_1532,60.0057160944,MAFE4ImagesEEG,001,201996,
AFNE01.JPG,AFNE01.JPG,AFNE01.JPG,AFNE01.JPG,AFNE01.JPG,AFNE01.JPG,,,,,,,,,,,,,5,4,54,4,,,,,,,,,,,AFSA04.jpg,AFSA14.jpg,AFNE03.jpg,AFNE06.jpg,AFNE03.jpg,FN,3,num_2,32,num_4,0.733404216822,,,2017_Oct_23_1532,60.0057160944,MAFE4ImagesEEG,001,201996,
AFNE01.JPG,AFNE01.JPG,AFNE01.JPG,AFNE01.JPG,AFNE01.JPG,AFNE01.JPG,,,,,,,,,,,,,5,5,55,6,,,,,,,,,,,AFNE15.jpg,AFNE18.jpg,AFSA11.jpg,AFSA07.jpg,AFSA11.jpg,FS,4,num_2,16,num_2,0.567145049572,,,2017_Oct_23_1532,60.0057160944,MAFE4ImagesEEG,001,201996,
AFNE01.JPG,AFNE01.JPG,AFNE01.JPG,AFNE01.JPG,AFNE01.JPG,AFNE01.JPG,,,,,,,,,,,,,5,6,56,8,,,,,,,,,,,AFSA10.jpg,AFNE15.jpg,AFSA12.jpg,AFNE19.jpg,AFNE15.jpg,FN,3,num_6,16,num_6,0.783446634538,,,2017_Oct_23_1532,60.0057160944,MAFE4ImagesEEG,001,201996,
AFNE01.JPG,AFNE01.JPG,AFNE01.JPG,AFNE01.JPG,AFNE01.JPG,AFNE01.JPG,,,,,,,,,,,,,5,7,57,9,,,,,,,,,,,AFNE13.jpg,AFNE10.jpg,AFSA02.jpg,AFSA13.jpg,AFNE13.jpg,FN,3,num_8,32,num_2,1.05004658736,,,2017_Oct_23_1532,60.0057160944,MAFE4ImagesEEG,001,201996,
AFNE01.JPG,AFNE01.JPG,AFNE01.JPG,AFNE01.JPG,AFNE01.JPG,AFNE01.JPG,,,,,,,,,,,,,5,8,58,5,,,,,,,,,,,AFNE18.jpg,AFNE06.jpg,AFSA20.jpg,AFSA05.jpg,AFSA20.jpg,FS,4,num_2,32,num_4,1.10041551804,,,2017_Oct_23_1532,60.0057160944,MAFE4ImagesEEG,001,201996,
AFNE01.JPG,AFNE01.JPG,AFNE01.JPG,AFNE01.JPG,AFNE01.JPG,AFNE01.JPG,,,,,,,,,,,,,5,9,59,1,,,,,,,,,,,AFNE09.jpg,AFSA07.jpg,AFSA15.jpg,AFNE11.jpg,AFSA07.jpg,FS,4,num_6,16,num_6,0.800093335216,,,2017_Oct_23_1532,60.0057160944,MAFE4ImagesEEG,001,201996,
,,,,,,,,,,,,,,,,,,,,,,,,,,,,,,,,,,,,,,,,,,,space,34.480589006,2017_Oct_23_1532,60.0057160944,MAFE4ImagesEEG,001,201996,
AFNE01.JPG,AFNE01.JPG,AFNE01.JPG,AFNE01.JPG,AFNE01.JPG,AFNE01.JPG,,,,,,,,,,,,,,,,,0,0,0,0,,,,,,,AMNE20.jpg,AMNE19.jpg,AMSA19.jpg,AMSA05.jpg,AMSA19.jpg,MS,2,num_2,16,num_2,0.58346523752,,,2017_Oct_23_1532,60.0057160944,MAFE4ImagesEEG,001,201996,
AFNE01.JPG,AFNE01.JPG,AFNE01.JPG,AFNE01.JPG,AFNE01.JPG,AFNE01.JPG,,,,,,,,,,,,,,,,,0,1,1,7,,,,,,,AMSA18.jpg,AMSA06.jpg,AMNE09.jpg,AMNE11.jpg,AMNE09.jpg,MN,1,num_2,16,num_2,0.650148582645,,,2017_Oct_23_1532,60.0057160944,MAFE4ImagesEEG,001,201996,
AFNE01.JPG,AFNE01.JPG,AFNE01.JPG,AFNE01.JPG,AFNE01.JPG,AFNE01.JPG,,,,,,,,,,,,,,,,,0,2,2,9,,,,,,,AMNE08.jpg,AMNE20.jpg,AMSA16.jpg,AMSA20.jpg,AMNE08.jpg,MN,1,num_8,16,num_8,0.566806669463,,,2017_Oct_23_1532,60.0057160944,MAFE4ImagesEEG,001,201996,
AFNE01.JPG,AFNE01.JPG,AFNE01.JPG,AFNE01.JPG,AFNE01.JPG,AFNE01.JPG,,,,,,,,,,,,,,,,,0,3,3,5,,,,,,,AMSA15.jpg,AMSA03.jpg,AMNE09.jpg,AMNE15.jpg,AMSA15.jpg,MS,2,num_8,16,num_8,1.01673682849,,,2017_Oct_23_1532,60.0057160944,MAFE4ImagesEEG,001,201996,
AFNE01.JPG,AFNE01.JPG,AFNE01.JPG,AFNE01.JPG,AFNE01.JPG,AFNE01.JPG,,,,,,,,,,,,,,,,,0,4,4,8,,,,,,,AMSA20.jpg,AMNE10.jpg,AMNE16.jpg,AMSA10.jpg,AMSA10.jpg,MS,2,num_4,16,num_4,0.833455374697,,,2017_Oct_23_1532,60.0057160944,MAFE4ImagesEEG,001,201996,
AFNE01.JPG,AFNE01.JPG,AFNE01.JPG,AFNE01.JPG,AFNE01.JPG,AFNE01.JPG,,,,,,,,,,,,,,,,,0,5,5,3,,,,,,,AMSA05.jpg,AMNE19.jpg,AMNE01.jpg,AMSA19.jpg,AMNE01.jpg,MN,1,num_2,16,num_2,0.700106966658,,,2017_Oct_23_1532,60.0057160944,MAFE4ImagesEEG,001,201996,
AFNE01.JPG,AFNE01.JPG,AFNE01.JPG,AFNE01.JPG,AFNE01.JPG,AFNE01.JPG,,,,,,,,,,,,,,,,,0,6,6,6,,,,,,,AMNE01.jpg,AMNE17.jpg,AMSA14.jpg,AMSA04.jpg,AMNE17.jpg,MN,1,num_6,16,num_6,0.516759119811,,,2017_Oct_23_1532,60.0057160944,MAFE4ImagesEEG,001,201996,
AFNE01.JPG,AFNE01.JPG,AFNE01.JPG,AFNE01.JPG,AFNE01.JPG,AFNE01.JPG,,,,,,,,,,,,,,,,,0,7,7,4,,,,,,,AMSA20.jpg,AMSA03.jpg,AMNE19.jpg,AMNE17.jpg,AMNE17.jpg,MN,1,num_4,32,num_2,0.683512867312,,,2017_Oct_23_1532,60.0057160944,MAFE4ImagesEEG,001,201996,
AFNE01.JPG,AFNE01.JPG,AFNE01.JPG,AFNE01.JPG,AFNE01.JPG,AFNE01.JPG,,,,,,,,,,,,,,,,,0,8,8,1,,,,,,,AMSA20.jpg,AMNE02.jpg,AMSA16.jpg,AMNE07.jpg,AMSA16.jpg,MS,2,num_2,32,num_8,1.00008980697,,,2017_Oct_23_1532,60.0057160944,MAFE4ImagesEEG,001,201996,
AFNE01.JPG,AFNE01.JPG,AFNE01.JPG,AFNE01.JPG,AFNE01.JPG,AFNE01.JPG,,,,,,,,,,,,,,,,,0,9,9,2,,,,,,,AMNE02.jpg,AMSA11.jpg,AMNE01.jpg,AMSA06.jpg,AMSA11.jpg,MS,2,num_6,32,num_2,0.716744365869,,,2017_Oct_23_1532,60.0057160944,MAFE4ImagesEEG,001,201996,
AFNE01.JPG,AFNE01.JPG,AFNE01.JPG,AFNE01.JPG,AFNE01.JPG,AFNE01.JPG,,,,,,,,,,,,,,,,,1,0,10,7,,,,,,,AMNE14.jpg,AMSA17.jpg,AMNE05.jpg,AMSA09.jpg,AMSA09.jpg,MS,2,num_4,16,num_4,0.650325310067,,,2017_Oct_23_1532,60.0057160944,MAFE4ImagesEEG,001,201996,
AFNE01.JPG,AFNE01.JPG,AFNE01.JPG,AFNE01.JPG,AFNE01.JPG,AFNE01.JPG,,,,,,,,,,,,,,,,,1,1,11,5,,,,,,,AMNE20.jpg,AMSA13.jpg,AMNE12.jpg,AMSA15.jpg,AMNE12.jpg,MN,1,num_2,32,num_6,0.80006446864,,,2017_Oct_23_1532,60.0057160944,MAFE4ImagesEEG,001,201996,
AFNE01.JPG,AFNE01.JPG,AFNE01.JPG,AFNE01.JPG,AFNE01.JPG,AFNE01.JPG,,,,,,,,,,,,,,,,,1,2,12,6,,,,,,,AMNE01.jpg,AMSA05.jpg,AMSA09.jpg,AMNE16.jpg,AMSA05.jpg,MS,2,num_6,16,num_6,0.733513909625,,,2017_Oct_23_1532,60.0057160944,MAFE4ImagesEEG,001,201996,
AFNE01.JPG,AFNE01.JPG,AFNE01.JPG,AFNE01.JPG,AFNE01.JPG,AFNE01.JPG,,,,,,,,,,,,,,,,,1,3,13,4,,,,,,,AMSA18.jpg,AMNE10.jpg,AMSA08.jpg,AMNE17.jpg,AMSA08.jpg,MS,2,num_2,16,num_2,1.50003512099,,,2017_Oct_23_1532,60.0057160944,MAFE4ImagesEEG,001,201996,
AFNE01.JPG,AFNE01.JPG,AFNE01.JPG,AFNE01.JPG,AFNE01.JPG,AFNE01.JPG,,,,,,,,,,,,,,,,,1,4,14,2,,,,,,,AMNE08.jpg,AMNE14.jpg,AMSA04.jpg,AMSA17.jpg,AMSA04.jpg,MS,2,num_2,16,num_2,0.86696078477,,,2017_Oct_23_1532,60.0057160944,MAFE4ImagesEEG,001,201996,
AFNE01.JPG,AFNE01.JPG,AFNE01.JPG,AFNE01.JPG,AFNE01.JPG,AFNE01.JPG,,,,,,,,,,,,,,,,,1,5,15,1,,,,,,,AMNE06.jpg,AMSA08.jpg,AMSA17.jpg,AMNE12.jpg,AMSA08.jpg,MS,2,num_6,16,num_6,0.983419692377,,,2017_Oct_23_1532,60.0057160944,MAFE4ImagesEEG,001,201996,
AFNE01.JPG,AFNE01.JPG,AFNE01.JPG,AFNE01.JPG,AFNE01.JPG,AFNE01.JPG,,,,,,,,,,,,,,,,,1,6,16,8,,,,,,,AMSA13.jpg,AMSA02.jpg,AMNE05.jpg,AMNE20.jpg,AMNE20.jpg,MN,1,num_4,32,num_8,0.683494264376,,,2017_Oct_23_1532,60.0057160944,MAFE4ImagesEEG,001,201996,
AFNE01.JPG,AFNE01.JPG,AFNE01.JPG,AFNE01.JPG,AFNE01.JPG,AFNE01.JPG,,,,,,,,,,,,,,,,,1,7,17,3,,,,,,,AMSA15.jpg,AMNE02.jpg,AMSA03.jpg,AMNE16.jpg,AMNE02.jpg,MN,1,num_6,16,num_6,0.983837295207,,,2017_Oct_23_1532,60.0057160944,MAFE4ImagesEEG,001,201996,
AFNE01.JPG,AFNE01.JPG,AFNE01.JPG,AFNE01.JPG,AFNE01.JPG,AFNE01.JPG,,,,,,,,,,,,,,,,,1,8,18,0,,,,,,,AMSA18.jpg,AMSA03.jpg,AMNE14.jpg,AMNE04.jpg,AMSA18.jpg,MS,2,num_8,32,num_2,2.34995950665,,,2017_Oct_23_1532,60.0057160944,MAFE4ImagesEEG,001,201996,
AFNE01.JPG,AFNE01.JPG,AFNE01.JPG,AFNE01.JPG,AFNE01.JPG,AFNE01.JPG,,,,,,,,,,,,,,,,,1,9,19,9,,,,,,,AMNE19.jpg,AMSA17.jpg,AMNE12.jpg,AMSA13.jpg,AMSA17.jpg,MS,2,num_6,16,num_6,0.58343861613,,,2017_Oct_23_1532,60.0057160944,MAFE4ImagesEEG,001,201996,
AFNE01.JPG,AFNE01.JPG,AFNE01.JPG,AFNE01.JPG,AFNE01.JPG,AFNE01.JPG,,,,,,,,,,,,,,,,,2,0,20,7,,,,,,,AMNE03.jpg,AMNE20.jpg,AMSA07.jpg,AMSA09.jpg,AMSA09.jpg,MS,2,num_4,16,num_4,0.716917885933,,,2017_Oct_23_1532,60.0057160944,MAFE4ImagesEEG,001,201996,
AFNE01.JPG,AFNE01.JPG,AFNE01.JPG,AFNE01.JPG,AFNE01.JPG,AFNE01.JPG,,,,,,,,,,,,,,,,,2,1,21,5,,,,,,,AMNE19.jpg,AMSA11.jpg,AMNE09.jpg,AMSA15.jpg,AMSA11.jpg,MS,2,num_6,16,num_6,0.483452247456,,,2017_Oct_23_1532,60.0057160944,MAFE4ImagesEEG,001,201996,
AFNE01.JPG,AFNE01.JPG,AFNE01.JPG,AFNE01.JPG,AFNE01.JPG,AFNE01.JPG,,,,,,,,,,,,,,,,,2,2,22,2,,,,,,,AMNE04.jpg,AMNE13.jpg,AMSA01.jpg,AMSA17.jpg,AMSA01.jpg,MS,2,num_2,16,num_2,1.16674412531,,,2017_Oct_23_1532,60.0057160944,MAFE4ImagesEEG,001,201996,
AFNE01.JPG,AFNE01.JPG,AFNE01.JPG,AFNE01.JPG,AFNE01.JPG,AFNE01.JPG,,,,,,,,,,,,,,,,,2,3,23,3,,,,,,,AMSA03.jpg,AMNE05.jpg,AMNE17.jpg,AMSA05.jpg,AMNE17.jpg,MN,1,num_2,32,num_6,0.750128215645,,,2017_Oct_23_1532,60.0057160944,MAFE4ImagesEEG,001,201996,
AFNE01.JPG,AFNE01.JPG,AFNE01.JPG,AFNE01.JPG,AFNE01.JPG,AFNE01.JPG,,,,,,,,,,,,,,,,,2,4,24,9,,,,,,,AMSA12.jpg,AMNE12.jpg,AMSA04.jpg,AMNE04.jpg,AMNE12.jpg,MN,1,num_6,32,num_8,0.800113541773,,,2017_Oct_23_1532,60.0057160944,MAFE4ImagesEEG,001,201996,
AFNE01.JPG,AFNE01.JPG,AFNE01.JPG,AFNE01.JPG,AFNE01.JPG,AFNE01.JPG,,,,,,,,,,,,,,,,,2,5,25,4,,,,,,,AMSA11.jpg,AMSA17.jpg,AMNE05.jpg,AMNE02.jpg,AMNE02.jpg,MN,1,num_4,32,num_8,0.71704714396,,,2017_Oct_23_1532,60.0057160944,MAFE4ImagesEEG,001,201996,
AFNE01.JPG,AFNE01.JPG,AFNE01.JPG,AFNE01.JPG,AFNE01.JPG,AFNE01.JPG,,,,,,,,,,,,,,,,,2,6,26,0,,,,,,,AMSA13.jpg,AMSA14.jpg,AMNE09.jpg,AMNE19.jpg,AMNE09.jpg,MN,1,num_2,16,num_2,0.683477265178,,,2017_Oct_23_1532,60.0057160944,MAFE4ImagesEEG,001,201996,
AFNE01.JPG,AFNE01.JPG,AFNE01.JPG,AFNE01.JPG,AFNE01.JPG,AFNE01.JPG,,,,,,,,,,,,,,,,,2,7,27,6,,,,,,,AMNE20.jpg,AMSA09.jpg,AMNE12.jpg,AMSA04.jpg,AMSA04.jpg,MS,2,num_4,16,num_4,0.667017234955,,,2017_Oct_23_1532,60.0057160944,MAFE4ImagesEEG,001,201996,
AFNE01.JPG,AFNE01.JPG,AFNE01.JPG,AFNE01.JPG,AFNE01.JPG,AFNE01.JPG,,,,,,,,,,,,,,,,,2,8,28,1,,,,,,,AMNE17.jpg,AMNE02.jpg,AMSA03.jpg,AMSA18.jpg,AMSA18.jpg,MS,2,num_4,32,num_2,1.73338850052,,,2017_Oct_23_1532,60.0057160944,MAFE4ImagesEEG,001,201996,
AFNE01.JPG,AFNE01.JPG,AFNE01.JPG,AFNE01.JPG,AFNE01.JPG,AFNE01.JPG,,,,,,,,,,,,,,,,,2,9,29,8,,,,,,,AMNE13.jpg,AMNE19.jpg,AMSA12.jpg,AMSA11.jpg,AMNE13.jpg,MN,1,num_8,16,num_8,1.56672103202,,,2017_Oct_23_1532,60.0057160944,MAFE4ImagesEEG,001,201996,
AFNE01.JPG,AFNE01.JPG,AFNE01.JPG,AFNE01.JPG,AFNE01.JPG,AFNE01.JPG,,,,,,,,,,,,,,,,,3,0,30,4,,,,,,,AMNE01.jpg,AMNE15.jpg,AMSA18.jpg,AMSA04.jpg,AMSA04.jpg,MS,2,num_4,16,num_4,1.06673177681,,,2017_Oct_23_1532,60.0057160944,MAFE4ImagesEEG,001,201996,
AFNE01.JPG,AFNE01.JPG,AFNE01.JPG,AFNE01.JPG,AFNE01.JPG,AFNE01.JPG,,,,,,,,,,,,,,,,,3,1,31,6,,,,,,,AMNE15.jpg,AMNE14.jpg,AMSA04.jpg,AMSA03.jpg,AMNE14.jpg,MN,1,num_6,16,num_6,0.816904254491,,,2017_Oct_23_1532,60.0057160944,MAFE4ImagesEEG,001,201996,
AFNE01.JPG,AFNE01.JPG,AFNE01.JPG,AFNE01.JPG,AFNE01.JPG,AFNE01.JPG,,,,,,,,,,,,,,,,,3,2,32,7,,,,,,,AMNE09.jpg,AMSA02.jpg,AMSA13.jpg,AMNE20.jpg,AMSA02.jpg,MS,2,num_6,16,num_6,0.833555445424,,,2017_Oct_23_1532,60.0057160944,MAFE4ImagesEEG,001,201996,
AFNE01.JPG,AFNE01.JPG,AFNE01.JPG,AFNE01.JPG,AFNE01.JPG,AFNE01.JPG,,,,,,,,,,,,,,,,,3,3,33,5,,,,,,,AMSA03.jpg,AMNE02.jpg,AMNE10.jpg,AMSA19.jpg,AMNE10.jpg,MN,1,num_2,16,num_2,0.76674957783,,,2017_Oct_23_1532,60.0057160944,MAFE4ImagesEEG,001,201996,
AFNE01.JPG,AFNE01.JPG,AFNE01.JPG,AFNE01.JPG,AFNE01.JPG,AFNE01.JPG,,,,,,,,,,,,,,,,,3,4,34,0,,,,,,,AMSA15.jpg,AMNE12.jpg,AMSA06.jpg,AMNE17.jpg,AMSA06.jpg,MS,2,num_2,16,num_2,0.550162534695,,,2017_Oct_23_1532,60.0057160944,MAFE4ImagesEEG,001,201996,
AFNE01.JPG,AFNE01.JPG,AFNE01.JPG,AFNE01.JPG,AFNE01.JPG,AFNE01.JPG,,,,,,,,,,,,,,,,,3,5,35,8,,,,,,,AMSA11.jpg,AMNE12.jpg,AMNE11.jpg,AMSA01.jpg,AMSA01.jpg,MS,2,num_4,16,num_4,0.716817173641,,,2017_Oct_23_1532,60.0057160944,MAFE4ImagesEEG,001,201996,
AFNE01.JPG,AFNE01.JPG,AFNE01.JPG,AFNE01.JPG,AFNE01.JPG,AFNE01.JPG,,,,,,,,,,,,,,,,,3,6,36,3,,,,,,,AMNE12.jpg,AMNE20.jpg,AMSA18.jpg,AMSA19.jpg,AMSA19.jpg,MS,2,num_4,32,num_6,0.650306707132,,,2017_Oct_23_1532,60.0057160944,MAFE4ImagesEEG,001,201996,
AFNE01.JPG,AFNE01.JPG,AFNE01.JPG,AFNE01.JPG,AFNE01.JPG,AFNE01.JPG,,,,,,,,,,,,,,,,,3,7,37,2,,,,,,,AMSA17.jpg,AMSA01.jpg,AMNE18.jpg,AMNE03.jpg,AMNE18.jpg,MN,1,num_2,16,num_2,0.716921093292,,,2017_Oct_23_1532,60.0057160944,MAFE4ImagesEEG,001,201996,
AFNE01.JPG,AFNE01.JPG,AFNE01.JPG,AFNE01.JPG,AFNE01.JPG,AFNE01.JPG,,,,,,,,,,,,,,,,,3,8,38,9,,,,,,,AMNE19.jpg,AMNE20.jpg,AMSA17.jpg,AMSA11.jpg,AMNE19.jpg,MN,1,num_8,32,num_6,0.750202627154,,,2017_Oct_23_1532,60.0057160944,MAFE4ImagesEEG,001,201996,
AFNE01.JPG,AFNE01.JPG,AFNE01.JPG,AFNE01.JPG,AFNE01.JPG,AFNE01.JPG,,,,,,,,,,,,,,,,,3,9,39,1,,,,,,,AMSA09.jpg,AMSA17.jpg,AMNE04.jpg,AMNE15.jpg,AMNE15.jpg,MN,1,num_4,16,num_4,0.816761204624,,,2017_Oct_23_1532,60.0057160944,MAFE4ImagesEEG,001,201996,
AFNE01.JPG,AFNE01.JPG,AFNE01.JPG,AFNE01.JPG,AFNE01.JPG,AFNE01.JPG,,,,,,,,,,,,,,,,,4,0,40,4,,,,,,,AMNE14.jpg,AMSA03.jpg,AMSA01.jpg,AMNE16.jpg,AMSA03.jpg,MS,2,num_6,16,num_6,0.58353355492,,,2017_Oct_23_1532,60.0057160944,MAFE4ImagesEEG,001,201996,
AFNE01.JPG,AFNE01.JPG,AFNE01.JPG,AFNE01.JPG,AFNE01.JPG,AFNE01.JPG,,,,,,,,,,,,,,,,,4,1,41,3,,,,,,,AMNE17.jpg,AMNE06.jpg,AMSA16.jpg,AMSA08.jpg,AMSA16.jpg,MS,2,num_2,32,num_4,1.0167406773,,,2017_Oct_23_1532,60.0057160944,MAFE4ImagesEEG,001,201996,
AFNE01.JPG,AFNE01.JPG,AFNE01.JPG,AFNE01.JPG,AFNE01.JPG,AFNE01.JPG,,,,,,,,,,,,,,,,,4,2,42,9,,,,,,,AMNE06.jpg,AMSA15.jpg,AMSA16.jpg,AMNE11.jpg,AMSA15.jpg,MS,2,num_6,16,num_6,0.88352601754,,,2017_Oct_23_1532,60.0057160944,MAFE4ImagesEEG,001,201996,
AFNE01.JPG,AFNE01.JPG,AFNE01.JPG,AFNE01.JPG,AFNE01.JPG,AFNE01.JPG,,,,,,,,,,,,,,,,,4,3,43,0,,,,,,,AMNE17.jpg,AMSA11.jpg,AMSA10.jpg,AMNE11.jpg,AMNE11.jpg,MN,1,num_4,16,num_4,0.850103358272,,,2017_Oct_23_1532,60.0057160944,MAFE4ImagesEEG,001,201996,
AFNE01.JPG,AFNE01.JPG,AFNE01.JPG,AFNE01.JPG,AFNE01.JPG,AFNE01.JPG,,,,,,,,,,,,,,,,,4,4,44,5,,,,,,,AMNE09.jpg,AMSA01.jpg,AMNE16.jpg,AMSA03.jpg,AMSA03.jpg,MS,2,num_4,16,num_4,0.650120678241,,,2017_Oct_23_1532,60.0057160944,MAFE4ImagesEEG,001,201996,
AFNE01.JPG,AFNE01.JPG,AFNE01.JPG,AFNE01.JPG,AFNE01.JPG,AFNE01.JPG,,,,,,,,,,,,,,,,,4,5,45,7,,,,,,,AMNE12.jpg,AMSA09.jpg,AMNE16.jpg,AMSA07.jpg,AMNE16.jpg,MN,1,num_2,16,num_2,0.716877151979,,,2017_Oct_23_1532,60.0057160944,MAFE4ImagesEEG,001,201996,
AFNE01.JPG,AFNE01.JPG,AFNE01.JPG,AFNE01.JPG,AFNE01.JPG,AFNE01.JPG,,,,,,,,,,,,,,,,,4,6,46,8,,,,,,,AMSA11.jpg,AMNE12.jpg,AMNE15.jpg,AMSA08.jpg,AMSA08.jpg,MS,2,num_4,32,num_8,0.600103919627,,,2017_Oct_23_1532,60.0057160944,MAFE4ImagesEEG,001,201996,
AFNE01.JPG,AFNE01.JPG,AFNE01.JPG,AFNE01.JPG,AFNE01.JPG,AFNE01.JPG,,,,,,,,,,,,,,,,,4,7,47,6,,,,,,,AMNE20.jpg,AMNE17.jpg,AMSA01.jpg,AMSA18.jpg,AMNE17.jpg,MN,1,num_6,32,num_8,0.98346395453,,,2017_Oct_23_1532,60.0057160944,MAFE4ImagesEEG,001,201996,
AFNE01.JPG,AFNE01.JPG,AFNE01.JPG,AFNE01.JPG,AFNE01.JPG,AFNE01.JPG,,,,,,,,,,,,,,,,,4,8,48,1,,,,,,,AMSA11.jpg,AMNE10.jpg,AMSA13.jpg,AMNE16.jpg,AMNE16.jpg,MN,1,num_4,16,num_4,0.683721668669,,,2017_Oct_23_1532,60.0057160944,MAFE4ImagesEEG,001,201996,
AFNE01.JPG,AFNE01.JPG,AFNE01.JPG,AFNE01.JPG,AFNE01.JPG,AFNE01.JPG,,,,,,,,,,,,,,,,,4,9,49,2,,,,,,,AMNE19.jpg,AMSA11.jpg,AMNE01.jpg,AMSA02.jpg,AMNE19.jpg,MN,1,num_8,16,num_8,0.916804985609,,,2017_Oct_23_1532,60.0057160944,MAFE4ImagesEEG,001,201996,
AFNE01.JPG,AFNE01.JPG,AFNE01.JPG,AFNE01.JPG,AFNE01.JPG,AFNE01.JPG,,,,,,,,,,,,,,,,,5,0,50,8,,,,,,,AMNE04.jpg,AMSA08.jpg,AMNE06.jpg,AMSA15.jpg,AMNE06.jpg,MN,1,num_2,16,num_2,0.883470529574,,,2017_Oct_23_1532,60.0057160944,MAFE4ImagesEEG,001,201996,
AFNE01.JPG,AFNE01.JPG,AFNE01.JPG,AFNE01.JPG,AFNE01.JPG,AFNE01.JPG,,,,,,,,,,,,,,,,,5,1,51,6,,,,,,,AMNE17.jpg,AMNE20.jpg,AMSA20.jpg,AMSA10.jpg,AMNE20.jpg,MN,1,num_6,16,num_6,0.666754228529,,,2017_Oct_23_1532,60.0057160944,MAFE4ImagesEEG,001,201996,
AFNE01.JPG,AFNE01.JPG,AFNE01.JPG,AFNE01.JPG,AFNE01.JPG,AFNE01.JPG,,,,,,,,,,,,,,,,,5,2,52,7,,,,,,,AMSA10.jpg,AMNE12.jpg,AMNE10.jpg,AMSA13.jpg,AMSA13.jpg,MS,2,num_4,32,num_8,1.71657244954,,,2017_Oct_23_1532,60.0057160944,MAFE4ImagesEEG,001,201996,
AFNE01.JPG,AFNE01.JPG,AFNE01.JPG,AFNE01.JPG,AFNE01.JPG,AFNE01.JPG,,,,,,,,,,,,,,,,,5,3,53,5,,,,,,,AMSA07.jpg,AMNE04.jpg,AMNE18.jpg,AMSA04.jpg,AMNE18.jpg,MN,1,num_2,16,num_2,0.933496910497,,,2017_Oct_23_1532,60.0057160944,MAFE4ImagesEEG,001,201996,
AFNE01.JPG,AFNE01.JPG,AFNE01.JPG,AFNE01.JPG,AFNE01.JPG,AFNE01.JPG,,,,,,,,,,,,,,,,,5,4,54,2,,,,,,,AMSA10.jpg,AMNE18.jpg,AMNE17.jpg,AMSA03.jpg,AMSA03.jpg,MS,2,num_4,16,num_4,0.733458742383,,,2017_Oct_23_1532,60.0057160944,MAFE4ImagesEEG,001,201996,
AFNE01.JPG,AFNE01.JPG,AFNE01.JPG,AFNE01.JPG,AFNE01.JPG,AFNE01.JPG,,,,,,,,,,,,,,,,,5,5,55,1,,,,,,,AMNE17.jpg,AMSA18.jpg,AMSA07.jpg,AMNE13.jpg,AMSA07.jpg,MS,2,num_2,16,num_2,0.666781491367,,,2017_Oct_23_1532,60.0057160944,MAFE4ImagesEEG,001,201996,
AFNE01.JPG,AFNE01.JPG,AFNE01.JPG,AFNE01.JPG,AFNE01.JPG,AFNE01.JPG,,,,,,,,,,,,,,,,,5,6,56,4,,,,,,,AMSA12.jpg,AMNE17.jpg,AMSA20.jpg,AMNE15.jpg,AMNE17.jpg,MN,1,num_6,16,num_6,0.533317617024,,,2017_Oct_23_1532,60.0057160944,MAFE4ImagesEEG,001,201996,
AFNE01.JPG,AFNE01.JPG,AFNE01.JPG,AFNE01.JPG,AFNE01.JPG,AFNE01.JPG,,,,,,,,,,,,,,,,,5,7,57,0,,,,,,,AMSA16.jpg,AMSA19.jpg,AMNE10.jpg,AMNE15.jpg,AMNE10.jpg,MN,1,num_2,32,num_4,0.516858228366,,,2017_Oct_23_1532,60.0057160944,MAFE4ImagesEEG,001,201996,
AFNE01.JPG,AFNE01.JPG,AFNE01.JPG,AFNE01.JPG,AFNE01.JPG,AFNE01.JPG,,,,,,,,,,,,,,,,,5,8,58,3,,,,,,,AMSA01.jpg,AMSA08.jpg,AMNE08.jpg,AMNE15.jpg,AMNE15.jpg,MN,1,num_4,16,num_4,1.08341953205,,,2017_Oct_23_1532,60.0057160944,MAFE4ImagesEEG,001,201996,
AFNE01.JPG,AFNE01.JPG,AFNE01.JPG,AFNE01.JPG,AFNE01.JPG,AFNE01.JPG,,,,,,,,,,,,,,,,,5,9,59,9,,,,,,,AMNE06.jpg,AMNE05.jpg,AMSA14.jpg,AMSA04.jpg,AMNE05.jpg,MN,1,num_6,16,num_6,0.600173199316,,,2017_Oct_23_1532,60.0057160944,MAFE4ImagesEEG,001,201996,
,,,,,,,,,,,,,,,,,,,,,,,,,,,,,,,,,,,,,,,,,,,space,25.2981697001,2017_Oct_23_1532,60.0057160944,MAFE4ImagesEEG,001,201996,
AFNE01.JPG,AFNE01.JPG,AFNE01.JPG,AFNE01.JPG,AFNE01.JPG,AFNE01.JPG,,,,,,,,,,,,,,,,,,,,,0,0,0,5,,,AFNE03.jpg,AFSA16.jpg,AFSA01.jpg,AFNE19.jpg,AFSA16.jpg,FS,4,num_6,16,num_6,0.716756553971,,,2017_Oct_23_1532,60.0057160944,MAFE4ImagesEEG,001,201996,
AFNE01.JPG,AFNE01.JPG,AFNE01.JPG,AFNE01.JPG,AFNE01.JPG,AFNE01.JPG,,,,,,,,,,,,,,,,,,,,,0,1,1,3,,,AFNE17.jpg,AFSA07.jpg,AFSA08.jpg,AFNE13.jpg,AFSA07.jpg,FS,4,num_6,16,num_6,0.516769062844,,,2017_Oct_23_1532,60.0057160944,MAFE4ImagesEEG,001,201996,
AFNE01.JPG,AFNE01.JPG,AFNE01.JPG,AFNE01.JPG,AFNE01.JPG,AFNE01.JPG,,,,,,,,,,,,,,,,,,,,,0,2,2,4,,,AFNE12.jpg,AFSA17.jpg,AFSA04.jpg,AFNE03.jpg,AFSA17.jpg,FS,4,num_6,16,num_6,0.783463313128,,,2017_Oct_23_1532,60.0057160944,MAFE4ImagesEEG,001,201996,
AFNE01.JPG,AFNE01.JPG,AFNE01.JPG,AFNE01.JPG,AFNE01.JPG,AFNE01.JPG,,,,,,,,,,,,,,,,,,,,,0,3,3,9,,,AFSA07.jpg,AFSA06.jpg,AFNE19.jpg,AFNE01.jpg,AFNE01.jpg,FN,3,num_4,16,num_4,0.73344270559,,,2017_Oct_23_1532,60.0057160944,MAFE4ImagesEEG,001,201996,
AFNE01.JPG,AFNE01.JPG,AFNE01.JPG,AFNE01.JPG,AFNE01.JPG,AFNE01.JPG,,,,,,,,,,,,,,,,,,,,,0,4,4,7,,,AFSA15.jpg,AFSA18.jpg,AFNE09.jpg,AFNE10.jpg,AFNE10.jpg,FN,3,num_4,16,num_4,0.950160931097,,,2017_Oct_23_1532,60.0057160944,MAFE4ImagesEEG,001,201996,
AFNE01.JPG,AFNE01.JPG,AFNE01.JPG,AFNE01.JPG,AFNE01.JPG,AFNE01.JPG,,,,,,,,,,,,,,,,,,,,,0,5,5,6,,,AFSA04.jpg,AFNE13.jpg,AFNE09.jpg,AFSA03.jpg,AFSA03.jpg,FS,4,num_4,32,num_8,1.85034102632,,,2017_Oct_23_1532,60.0057160944,MAFE4ImagesEEG,001,201996,
AFNE01.JPG,AFNE01.JPG,AFNE01.JPG,AFNE01.JPG,AFNE01.JPG,AFNE01.JPG,,,,,,,,,,,,,,,,,,,,,0,6,6,8,,,AFSA09.jpg,AFSA02.jpg,AFNE12.jpg,AFNE17.jpg,AFSA02.jpg,FS,4,num_6,16,num_6,0.783444068744,,,2017_Oct_23_1532,60.0057160944,MAFE4ImagesEEG,001,201996,
AFNE01.JPG,AFNE01.JPG,AFNE01.JPG,AFNE01.JPG,AFNE01.JPG,AFNE01.JPG,,,,,,,,,,,,,,,,,,,,,0,7,7,2,,,AFNE07.jpg,AFNE06.jpg,AFSA05.jpg,AFSA16.jpg,AFSA05.jpg,FS,4,num_2,16,num_2,1.14999125979,,,2017_Oct_23_1532,60.0057160944,MAFE4ImagesEEG,001,201996,
AFNE01.JPG,AFNE01.JPG,AFNE01.JPG,AFNE01.JPG,AFNE01.JPG,AFNE01.JPG,,,,,,,,,,,,,,,,,,,,,0,8,8,1,,,AFNE14.jpg,AFSA07.jpg,AFNE02.jpg,AFSA14.jpg,AFSA14.jpg,FS,4,num_4,32,num_8,0.983268944896,,,2017_Oct_23_1532,60.0057160944,MAFE4ImagesEEG,001,201996,
AFNE01.JPG,AFNE01.JPG,AFNE01.JPG,AFNE01.JPG,AFNE01.JPG,AFNE01.JPG,,,,,,,,,,,,,,,,,,,,,0,9,9,0,,,AFNE18.jpg,AFSA10.jpg,AFSA09.jpg,AFNE01.jpg,AFNE01.jpg,FN,3,num_4,16,num_4,0.666768020368,,,2017_Oct_23_1532,60.0057160944,MAFE4ImagesEEG,001,201996,
AFNE01.JPG,AFNE01.JPG,AFNE01.JPG,AFNE01.JPG,AFNE01.JPG,AFNE01.JPG,,,,,,,,,,,,,,,,,,,,,1,0,10,8,,,AFNE01.jpg,AFSA07.jpg,AFNE02.jpg,AFSA13.jpg,AFNE01.jpg,FN,3,num_8,32,num_2,0.683480472537,,,2017_Oct_23_1532,60.0057160944,MAFE4ImagesEEG,001,201996,
AFNE01.JPG,AFNE01.JPG,AFNE01.JPG,AFNE01.JPG,AFNE01.JPG,AFNE01.JPG,,,,,,,,,,,,,,,,,,,,,1,1,11,7,,,AFSA03.jpg,AFSA17.jpg,AFNE18.jpg,AFNE20.jpg,AFSA03.jpg,FS,4,num_8,16,num_8,0.600204631803,,,2017_Oct_23_1532,60.0057160944,MAFE4ImagesEEG,001,201996,
AFNE01.JPG,AFNE01.JPG,AFNE01.JPG,AFNE01.JPG,AFNE01.JPG,AFNE01.JPG,,,,,,,,,,,,,,,,,,,,,1,2,12,3,,,AFSA09.jpg,AFNE09.jpg,AFNE07.jpg,AFSA06.jpg,AFSA09.jpg,FS,4,num_8,32,num_2,0.783446634538,,,2017_Oct_23_1532,60.0057160944,MAFE4ImagesEEG,001,201996,
AFNE01.JPG,AFNE01.JPG,AFNE01.JPG,AFNE01.JPG,AFNE01.JPG,AFNE01.JPG,,,,,,,,,,,,,,,,,,,,,1,3,13,6,,,AFSA14.jpg,AFSA03.jpg,AFNE20.jpg,AFNE09.jpg,AFNE09.jpg,FN,3,num_4,16,num_4,0.750115706702,,,2017_Oct_23_1532,60.0057160944,MAFE4ImagesEEG,001,201996,
AFNE01.JPG,AFNE01.JPG,AFNE01.JPG,AFNE01.JPG,AFNE01.JPG,AFNE01.JPG,,,,,,,,,,,,,,,,,,,,,1,4,14,4,,,AFNE08.jpg,AFSA19.jpg,AFSA05.jpg,AFNE05.jpg,AFSA19.jpg,FS,4,num_6,32,num_2,1.01675992168,,,2017_Oct_23_1532,60.0057160944,MAFE4ImagesEEG,001,201996,
AFNE01.JPG,AFNE01.JPG,AFNE01.JPG,AFNE01.JPG,AFNE01.JPG,AFNE01.JPG,,,,,,,,,,,,,,,,,,,,,1,5,15,0,,,AFNE12.jpg,AFSA04.jpg,AFSA15.jpg,AFNE20.jpg,AFSA15.jpg,FS,4,num_2,32,num_8,0.750193004962,,,2017_Oct_23_1532,60.0057160944,MAFE4ImagesEEG,001,201996,
AFNE01.JPG,AFNE01.JPG,AFNE01.JPG,AFNE01.JPG,AFNE01.JPG,AFNE01.JPG,,,,,,,,,,,,,,,,,,,,,1,6,16,5,,,AFSA07.jpg,AFSA06.jpg,AFNE06.jpg,AFNE14.jpg,AFSA06.jpg,FS,4,num_6,16,num_6,1.11669400975,,,2017_Oct_23_1532,60.0057160944,MAFE4ImagesEEG,001,201996,
AFNE01.JPG,AFNE01.JPG,AFNE01.JPG,AFNE01.JPG,AFNE01.JPG,AFNE01.JPG,,,,,,,,,,,,,,,,,,,,,1,7,17,2,,,AFSA07.jpg,AFNE03.jpg,AFNE15.jpg,AFSA17.jpg,AFSA07.jpg,FS,4,num_8,16,num_8,0.500152190914,,,2017_Oct_23_1532,60.0057160944,MAFE4ImagesEEG,001,201996,
AFNE01.JPG,AFNE01.JPG,AFNE01.JPG,AFNE01.JPG,AFNE01.JPG,AFNE01.JPG,,,,,,,,,,,,,,,,,,,,,1,8,18,1,,,AFSA03.jpg,AFNE13.jpg,AFNE19.jpg,AFSA17.jpg,AFSA17.jpg,FS,4,num_4,32,num_2,1.2001635771,,,2017_Oct_23_1532,60.0057160944,MAFE4ImagesEEG,001,201996,
AFNE01.JPG,AFNE01.JPG,AFNE01.JPG,AFNE01.JPG,AFNE01.JPG,AFNE01.JPG,,,,,,,,,,,,,,,,,,,,,1,9,19,9,,,AFSA19.jpg,AFNE13.jpg,AFNE06.jpg,AFSA09.jpg,AFNE06.jpg,FN,3,num_2,32,num_6,0.966838101856,,,2017_Oct_23_1532,60.0057160944,MAFE4ImagesEEG,001,201996,
AFNE01.JPG,AFNE01.JPG,AFNE01.JPG,AFNE01.JPG,AFNE01.JPG,AFNE01.JPG,,,,,,,,,,,,,,,,,,,,,2,0,20,5,,,AFNE15.jpg,AFSA03.jpg,AFNE02.jpg,AFSA15.jpg,AFSA03.jpg,FS,4,num_6,16,num_6,0.900119796279,,,2017_Oct_23_1532,60.0057160944,MAFE4ImagesEEG,001,201996,
AFNE01.JPG,AFNE01.JPG,AFNE01.JPG,AFNE01.JPG,AFNE01.JPG,AFNE01.JPG,,,,,,,,,,,,,,,,,,,,,2,1,21,9,,,AFSA02.jpg,AFSA14.jpg,AFNE12.jpg,AFNE05.jpg,AFNE05.jpg,FN,3,num_4,32,num_6,0.800132786157,,,2017_Oct_23_1532,60.0057160944,MAFE4ImagesEEG,001,201996,
AFNE01.JPG,AFNE01.JPG,AFNE01.JPG,AFNE01.JPG,AFNE01.JPG,AFNE01.JPG,,,,,,,,,,,,,,,,,,,,,2,2,22,0,,,AFSA08.jpg,AFNE06.jpg,AFSA13.jpg,AFNE15.jpg,AFSA08.jpg,FS,4,num_8,16,num_8,0.950256190728,,,2017_Oct_23_1532,60.0057160944,MAFE4ImagesEEG,001,201996,
AFNE01.JPG,AFNE01.JPG,AFNE01.JPG,AFNE01.JPG,AFNE01.JPG,AFNE01.JPG,,,,,,,,,,,,,,,,,,,,,2,3,23,7,,,AFNE10.jpg,AFSA16.jpg,AFSA10.jpg,AFNE01.jpg,AFSA16.jpg,FS,4,num_6,16,num_6,0.516814928502,,,2017_Oct_23_1532,60.0057160944,MAFE4ImagesEEG,001,201996,
AFNE01.JPG,AFNE01.JPG,AFNE01.JPG,AFNE01.JPG,AFNE01.JPG,AFNE01.JPG,,,,,,,,,,,,,,,,,,,,,2,4,24,6,,,AFNE20.jpg,AFSA05.jpg,AFNE15.jpg,AFSA01.jpg,AFNE15.jpg,FN,3,num_2,16,num_2,0.700119796093,,,2017_Oct_23_1532,60.0057160944,MAFE4ImagesEEG,001,201996,
AFNE01.JPG,AFNE01.JPG,AFNE01.JPG,AFNE01.JPG,AFNE01.JPG,AFNE01.JPG,,,,,,,,,,,,,,,,,,,,,2,5,25,8,,,AFNE17.jpg,AFNE18.jpg,AFSA13.jpg,AFSA18.jpg,AFSA13.jpg,FS,4,num_2,32,num_8,1.05039779714,,,2017_Oct_23_1532,60.0057160944,MAFE4ImagesEEG,001,201996,
AFNE01.JPG,AFNE01.JPG,AFNE01.JPG,AFNE01.JPG,AFNE01.JPG,AFNE01.JPG,,,,,,,,,,,,,,,,,,,,,2,6,26,1,,,AFNE08.jpg,AFSA06.jpg,AFSA12.jpg,AFNE09.jpg,AFNE09.jpg,FN,3,num_4,16,num_4,0.866974897333,,,2017_Oct_23_1532,60.0057160944,MAFE4ImagesEEG,001,201996,
AFNE01.JPG,AFNE01.JPG,AFNE01.JPG,AFNE01.JPG,AFNE01.JPG,AFNE01.JPG,,,,,,,,,,,,,,,,,,,,,2,7,27,2,,,AFNE01.jpg,AFSA03.jpg,AFSA09.jpg,AFNE02.jpg,AFNE01.jpg,FN,3,num_8,16,num_8,0.600018602912,,,2017_Oct_23_1532,60.0057160944,MAFE4ImagesEEG,001,201996,
AFNE01.JPG,AFNE01.JPG,AFNE01.JPG,AFNE01.JPG,AFNE01.JPG,AFNE01.JPG,,,,,,,,,,,,,,,,,,,,,2,8,28,4,,,AFNE20.jpg,AFNE12.jpg,AFSA02.jpg,AFSA13.jpg,AFNE20.jpg,FN,3,num_8,16,num_8,1.15001723974,,,2017_Oct_23_1532,60.0057160944,MAFE4ImagesEEG,001,201996,
AFNE01.JPG,AFNE01.JPG,AFNE01.JPG,AFNE01.JPG,AFNE01.JPG,AFNE01.JPG,,,,,,,,,,,,,,,,,,,,,2,9,29,3,,,AFSA05.jpg,AFNE06.jpg,AFNE02.jpg,AFSA01.jpg,AFSA05.jpg,FS,4,num_8,32,num_4,0.766761124367,,,2017_Oct_23_1532,60.0057160944,MAFE4ImagesEEG,001,201996,
AFNE01.JPG,AFNE01.JPG,AFNE01.JPG,AFNE01.JPG,AFNE01.JPG,AFNE01.JPG,,,,,,,,,,,,,,,,,,,,,3,0,30,9,,,AFSA07.jpg,AFNE16.jpg,AFNE19.jpg,AFSA13.jpg,AFNE16.jpg,FN,3,num_6,32,num_2,1.11670555628,,,2017_Oct_23_1532,60.0057160944,MAFE4ImagesEEG,001,201996,
AFNE01.JPG,AFNE01.JPG,AFNE01.JPG,AFNE01.JPG,AFNE01.JPG,AFNE01.JPG,,,,,,,,,,,,,,,,,,,,,3,1,31,0,,,AFNE14.jpg,AFSA06.jpg,AFNE02.jpg,AFSA16.jpg,AFNE14.jpg,FN,3,num_8,16,num_8,0.783450804185,,,2017_Oct_23_1532,60.0057160944,MAFE4ImagesEEG,001,201996,
AFNE01.JPG,AFNE01.JPG,AFNE01.JPG,AFNE01.JPG,AFNE01.JPG,AFNE01.JPG,,,,,,,,,,,,,,,,,,,,,3,2,32,3,,,AFSA15.jpg,AFSA02.jpg,AFNE13.jpg,AFNE03.jpg,AFSA15.jpg,FS,4,num_8,16,num_8,0.600155237946,,,2017_Oct_23_1532,60.0057160944,MAFE4ImagesEEG,001,201996,
AFNE01.JPG,AFNE01.JPG,AFNE01.JPG,AFNE01.JPG,AFNE01.JPG,AFNE01.JPG,,,,,,,,,,,,,,,,,,,,,3,3,33,6,,,AFSA15.jpg,AFSA20.jpg,AFNE17.jpg,AFNE05.jpg,AFSA15.jpg,FS,4,num_8,16,num_8,0.650117791491,,,2017_Oct_23_1532,60.0057160944,MAFE4ImagesEEG,001,201996,
AFNE01.JPG,AFNE01.JPG,AFNE01.JPG,AFNE01.JPG,AFNE01.JPG,AFNE01.JPG,,,,,,,,,,,,,,,,,,,,,3,4,34,8,,,AFSA03.jpg,AFSA10.jpg,AFNE01.jpg,AFNE11.jpg,AFSA03.jpg,FS,4,num_8,32,num_4,0.849996231264,,,2017_Oct_23_1532,60.0057160944,MAFE4ImagesEEG,001,201996,
AFNE01.JPG,AFNE01.JPG,AFNE01.JPG,AFNE01.JPG,AFNE01.JPG,AFNE01.JPG,,,,,,,,,,,,,,,,,,,,,3,5,35,4,,,AFNE04.jpg,AFSA11.jpg,AFNE05.jpg,AFSA20.jpg,AFNE05.jpg,FN,3,num_2,16,num_2,0.83344863914,,,2017_Oct_23_1532,60.0057160944,MAFE4ImagesEEG,001,201996,
AFNE01.JPG,AFNE01.JPG,AFNE01.JPG,AFNE01.JPG,AFNE01.JPG,AFNE01.JPG,,,,,,,,,,,,,,,,,,,,,3,6,36,1,,,AFNE06.jpg,AFNE18.jpg,AFSA06.jpg,AFSA11.jpg,AFSA06.jpg,FS,4,num_2,16,num_2,1.24975214852,,,2017_Oct_23_1532,60.0057160944,MAFE4ImagesEEG,001,201996,
AFNE01.JPG,AFNE01.JPG,AFNE01.JPG,AFNE01.JPG,AFNE01.JPG,AFNE01.JPG,,,,,,,,,,,,,,,,,,,,,3,7,37,5,,,AFSA15.jpg,AFSA10.jpg,AFNE20.jpg,AFNE02.jpg,AFNE20.jpg,FN,3,num_2,32,num_4,0.749982279143,,,2017_Oct_23_1532,60.0057160944,MAFE4ImagesEEG,001,201996,
AFNE01.JPG,AFNE01.JPG,AFNE01.JPG,AFNE01.JPG,AFNE01.JPG,AFNE01.JPG,,,,,,,,,,,,,,,,,,,,,3,8,38,7,,,AFSA13.jpg,AFSA12.jpg,AFNE03.jpg,AFNE16.jpg,AFNE03.jpg,FN,3,num_2,32,num_4,0.733471892774,,,2017_Oct_23_1532,60.0057160944,MAFE4ImagesEEG,001,201996,
