IPosition2,IPosition3,IPosition1,IPosition6,IPosition4,IPosition5,TrialsM1.thisRepN,TrialsM1.thisTrialN,TrialsM1.thisN,TrialsM1.thisIndex,TrialsF1.thisRepN,TrialsF1.thisTrialN,TrialsF1.thisN,TrialsF1.thisIndex,TrialsM2.thisRepN,TrialsM2.thisTrialN,TrialsM2.thisN,TrialsM2.thisIndex,TrialsF2.thisRepN,TrialsF2.thisTrialN,TrialsF2.thisN,TrialsF2.thisIndex,TrialsM3.thisRepN,TrialsM3.thisTrialN,TrialsM3.thisN,TrialsM3.thisIndex,TrialsF3.thisRepN,TrialsF3.thisTrialN,TrialsF3.thisN,TrialsF3.thisIndex,InstrKey_resp.keys,InstrKey_resp.rt,Image0 _Position,Image1 _Position,Image2 _Position,Image3 _Position,Center_image,condition,code,correct_answer,accuracy,Key_Resp.keys,Key_Resp.rt,BreakKey_resp.keys,BreakKey_resp.rt,date,frameRate,expName,session,participant,
,,,,,,,,,,,,,,,,,,,,,,,,,,,,,,space,16.4992784965,,,,,,,,,,,,,,2017_Nov_13_1208,60.0032909716,MAFE4ImagesEEG,001,201927,
AMNE22.JPG,AMSA24.JPG,AMSA22.JPG,AMNE25.JPG,AMNE24.JPG,AMSA25.JPG,0,0,0,7,,,,,,,,,,,,,,,,,,,,,,,AMSA17.jpg,AMSA02.jpg,AMNE11.jpg,AMNE15.jpg,AMNE15.jpg,MN,1,num_4,32,num_6,0.600144012365,,,2017_Nov_13_1208,60.0032909716,MAFE4ImagesEEG,001,201927,
AFSA21.JPG,AFNE22.JPG,AFNE21.JPG,AFSA23.JPG,AFSA22.JPG,AFNE23.JPG,0,1,1,0,,,,,,,,,,,,,,,,,,,,,,,AMNE08.jpg,AMNE14.jpg,AMSA13.jpg,AMSA14.jpg,AMSA13.jpg,MS,2,num_2,16,num_2,0.566759199835,,,2017_Nov_13_1208,60.0032909716,MAFE4ImagesEEG,001,201927,
AFSA25.JPG,AFNE24.JPG,AFSA24.JPG,AFNE21.JPG,AFSA21.JPG,AFNE25.JPG,0,2,2,2,,,,,,,,,,,,,,,,,,,,,,,AMNE09.jpg,AMSA03.jpg,AMNE20.jpg,AMSA06.jpg,AMSA03.jpg,MS,2,num_6,16,num_6,0.500167265534,,,2017_Nov_13_1208,60.0032909716,MAFE4ImagesEEG,001,201927,
AMSA21.JPG,AMNE22.JPG,AMNE21.JPG,AMSA23.JPG,AMSA22.JPG,AMNE23.JPG,0,3,3,1,,,,,,,,,,,,,,,,,,,,,,,AMNE13.jpg,AMSA07.jpg,AMNE03.jpg,AMSA06.jpg,AMSA07.jpg,MS,2,num_6,32,num_8,0.683483358938,,,2017_Nov_13_1208,60.0032909716,MAFE4ImagesEEG,001,201927,
AFNE22.JPG,AFSA24.JPG,AFSA22.JPG,AFNE25.JPG,AFNE24.JPG,AFSA25.JPG,0,4,4,6,,,,,,,,,,,,,,,,,,,,,,,AMNE02.jpg,AMSA01.jpg,AMNE03.jpg,AMSA20.jpg,AMSA01.jpg,MS,2,num_6,32,num_4,0.650280406233,,,2017_Nov_13_1208,60.0032909716,MAFE4ImagesEEG,001,201927,
AFSA21.JPG,AFNE23.JPG,AFNE21.JPG,AFSA25.JPG,AFNE25.JPG,AFSA23.JPG,0,5,5,4,,,,,,,,,,,,,,,,,,,,,,,AMSA09.jpg,AMSA07.jpg,AMNE15.jpg,AMNE14.jpg,AMNE15.jpg,MN,1,num_2,16,num_2,2.11668246286,,,2017_Nov_13_1208,60.0032909716,MAFE4ImagesEEG,001,201927,
AMNE23.JPG,AMNE24.JPG,AMNE22.JPG,AMSA24.JPG,AMSA22.JPG,AMSA23.JPG,0,6,6,9,,,,,,,,,,,,,,,,,,,,,,,AMNE03.jpg,AMSA02.jpg,AMSA12.jpg,AMNE14.jpg,AMSA12.jpg,MS,2,num_2,16,num_2,0.633156445343,,,2017_Nov_13_1208,60.0032909716,MAFE4ImagesEEG,001,201927,
AFNE23.JPG,AFNE24.JPG,AFNE22.JPG,AFSA24.JPG,AFSA22.JPG,AFSA23.JPG,0,7,7,8,,,,,,,,,,,,,,,,,,,,,,,AMSA01.jpg,AMNE16.jpg,AMSA04.jpg,AMNE07.jpg,AMSA04.jpg,MS,2,num_2,16,num_2,0.466827036347,,,2017_Nov_13_1208,60.0032909716,MAFE4ImagesEEG,001,201927,
AMSA21.JPG,AMNE23.JPG,AMNE21.JPG,AMSA25.JPG,AMNE25.JPG,AMSA23.JPG,0,8,8,5,,,,,,,,,,,,,,,,,,,,,,,AMSA13.jpg,AMSA12.jpg,AMNE16.jpg,AMNE07.jpg,AMNE07.jpg,MN,1,num_4,32,num_6,0.466850129887,,,2017_Nov_13_1208,60.0032909716,MAFE4ImagesEEG,001,201927,
AMSA25.JPG,AMNE24.JPG,AMSA24.JPG,AMNE26.JPG,AMSA21.JPG,AMNE25.JPG,0,9,9,3,,,,,,,,,,,,,,,,,,,,,,,AMSA06.jpg,AMNE13.jpg,AMNE17.jpg,AMSA02.jpg,AMSA06.jpg,MS,2,num_8,16,num_8,0.550152271055,,,2017_Nov_13_1208,60.0032909716,MAFE4ImagesEEG,001,201927,
AFSA21.JPG,AFNE23.JPG,AFNE21.JPG,AFSA25.JPG,AFNE25.JPG,AFSA23.JPG,,,,,0,0,0,4,,,,,,,,,,,,,,,,,,,AFNE11.jpg,AFSA15.jpg,AFSA10.jpg,AFNE05.jpg,AFNE05.jpg,FN,3,num_4,16,num_4,0.366806990001,,,2017_Nov_13_1208,60.0032909716,MAFE4ImagesEEG,001,201927,
AMNE22.JPG,AMSA24.JPG,AMSA22.JPG,AMNE25.JPG,AMNE24.JPG,AMSA25.JPG,,,,,0,1,1,7,,,,,,,,,,,,,,,,,,,AFSA20.jpg,AFNE15.jpg,AFNE20.jpg,AFSA11.jpg,AFSA11.jpg,FS,4,num_4,32,num_8,0.500165661797,,,2017_Nov_13_1208,60.0032909716,MAFE4ImagesEEG,001,201927,
AMNE23.JPG,AMNE24.JPG,AMNE22.JPG,AMSA24.JPG,AMSA22.JPG,AMSA23.JPG,,,,,0,2,2,9,,,,,,,,,,,,,,,,,,,AFNE08.jpg,AFSA04.jpg,AFSA05.jpg,AFNE05.jpg,AFNE08.jpg,FN,3,num_8,32,num_2,0.450113942847,,,2017_Nov_13_1208,60.0032909716,MAFE4ImagesEEG,001,201927,
AMSA21.JPG,AMNE22.JPG,AMNE21.JPG,AMSA23.JPG,AMSA22.JPG,AMNE23.JPG,,,,,0,3,3,1,,,,,,,,,,,,,,,,,,,AFSA16.jpg,AFSA06.jpg,AFNE04.jpg,AFNE17.jpg,AFSA16.jpg,FS,4,num_8,16,num_8,0.516811721027,,,2017_Nov_13_1208,60.0032909716,MAFE4ImagesEEG,001,201927,
AFSA21.JPG,AFNE22.JPG,AFNE21.JPG,AFSA23.JPG,AFSA22.JPG,AFNE23.JPG,,,,,0,4,4,0,,,,,,,,,,,,,,,,,,,AFNE11.jpg,AFSA19.jpg,AFNE17.jpg,AFSA01.jpg,AFSA19.jpg,FS,4,num_6,32,num_4,0.583541894332,,,2017_Nov_13_1208,60.0032909716,MAFE4ImagesEEG,001,201927,
AMSA25.JPG,AMNE24.JPG,AMSA24.JPG,AMNE26.JPG,AMSA21.JPG,AMNE25.JPG,,,,,0,5,5,3,,,,,,,,,,,,,,,,,,,AFNE01.jpg,AFNE03.jpg,AFSA16.jpg,AFSA18.jpg,AFNE03.jpg,FN,3,num_6,16,num_6,0.450146658346,,,2017_Nov_13_1208,60.0032909716,MAFE4ImagesEEG,001,201927,
AFNE23.JPG,AFNE24.JPG,AFNE22.JPG,AFSA24.JPG,AFSA22.JPG,AFSA23.JPG,,,,,0,6,6,8,,,,,,,,,,,,,,,,,,,AFSA14.jpg,AFNE18.jpg,AFSA05.jpg,AFNE08.jpg,AFSA14.jpg,FS,4,num_8,16,num_8,0.583452407736,,,2017_Nov_13_1208,60.0032909716,MAFE4ImagesEEG,001,201927,
AFSA25.JPG,AFNE24.JPG,AFSA24.JPG,AFNE21.JPG,AFSA21.JPG,AFNE25.JPG,,,,,0,7,7,2,,,,,,,,,,,,,,,,,,,AFSA15.jpg,AFNE19.jpg,AFNE01.jpg,AFSA13.jpg,AFSA15.jpg,FS,4,num_8,32,num_6,0.600131503306,,,2017_Nov_13_1208,60.0032909716,MAFE4ImagesEEG,001,201927,
AMSA21.JPG,AMNE23.JPG,AMNE21.JPG,AMSA25.JPG,AMNE25.JPG,AMSA23.JPG,,,,,0,8,8,5,,,,,,,,,,,,,,,,,,,AFSA10.jpg,AFSA08.jpg,AFNE14.jpg,AFNE11.jpg,AFSA10.jpg,FS,4,num_8,32,num_2,0.550101273227,,,2017_Nov_13_1208,60.0032909716,MAFE4ImagesEEG,001,201927,
AFNE22.JPG,AFSA24.JPG,AFSA22.JPG,AFNE25.JPG,AFNE24.JPG,AFSA25.JPG,,,,,0,9,9,6,,,,,,,,,,,,,,,,,,,AFNE09.jpg,AFSA08.jpg,AFSA01.jpg,AFNE14.jpg,AFSA08.jpg,FS,4,num_6,32,num_8,0.616834333166,,,2017_Nov_13_1208,60.0032909716,MAFE4ImagesEEG,001,201927,
AFSA25.JPG,AFNE24.JPG,AFSA24.JPG,AFNE21.JPG,AFSA21.JPG,AFNE25.JPG,,,,,,,,,0,0,0,2,,,,,,,,,,,,,,,AMNE16.jpg,AMSA11.jpg,AMSA16.jpg,AMNE11.jpg,AMSA16.jpg,MS,2,num_2,16,num_2,0.583505971357,,,2017_Nov_13_1208,60.0032909716,MAFE4ImagesEEG,001,201927,
AMSA25.JPG,AMNE24.JPG,AMSA24.JPG,AMNE26.JPG,AMSA21.JPG,AMNE25.JPG,,,,,,,,,0,1,1,3,,,,,,,,,,,,,,,AMNE15.jpg,AMSA10.jpg,AMNE07.jpg,AMSA06.jpg,AMNE15.jpg,MN,1,num_8,32,num_4,0.450138318818,,,2017_Nov_13_1208,60.0032909716,MAFE4ImagesEEG,001,201927,
AMSA21.JPG,AMNE22.JPG,AMNE21.JPG,AMSA23.JPG,AMSA22.JPG,AMNE23.JPG,,,,,,,,,0,2,2,1,,,,,,,,,,,,,,,AMNE15.jpg,AMSA20.jpg,AMSA13.jpg,AMNE08.jpg,AMSA20.jpg,MS,2,num_6,32,num_2,0.533450403251,,,2017_Nov_13_1208,60.0032909716,MAFE4ImagesEEG,001,201927,
AFNE23.JPG,AFNE24.JPG,AFNE22.JPG,AFSA24.JPG,AFSA22.JPG,AFSA23.JPG,,,,,,,,,0,3,3,8,,,,,,,,,,,,,,,AMSA08.jpg,AMNE12.jpg,AMSA13.jpg,AMNE16.jpg,AMSA13.jpg,MS,2,num_2,32,num_8,0.383473576512,,,2017_Nov_13_1208,60.0032909716,MAFE4ImagesEEG,001,201927,
AFSA21.JPG,AFNE22.JPG,AFNE21.JPG,AFSA23.JPG,AFSA22.JPG,AFNE23.JPG,,,,,,,,,0,4,4,0,,,,,,,,,,,,,,,AMSA15.jpg,AMNE11.jpg,AMSA09.jpg,AMNE01.jpg,AMSA15.jpg,MS,2,num_8,16,num_8,0.73350589117,,,2017_Nov_13_1208,60.0032909716,MAFE4ImagesEEG,001,201927,
AFNE22.JPG,AFSA24.JPG,AFSA22.JPG,AFNE25.JPG,AFNE24.JPG,AFSA25.JPG,,,,,,,,,0,5,5,6,,,,,,,,,,,,,,,AMNE19.jpg,AMSA12.jpg,AMNE17.jpg,AMSA20.jpg,AMNE19.jpg,MN,1,num_8,32,num_4,0.333492420148,,,2017_Nov_13_1208,60.0032909716,MAFE4ImagesEEG,001,201927,
AMSA21.JPG,AMNE23.JPG,AMNE21.JPG,AMSA25.JPG,AMNE25.JPG,AMSA23.JPG,,,,,,,,,0,6,6,5,,,,,,,,,,,,,,,AMNE03.jpg,AMNE09.jpg,AMSA03.jpg,AMSA16.jpg,AMSA16.jpg,MS,2,num_4,32,num_8,0.65014537517,,,2017_Nov_13_1208,60.0032909716,MAFE4ImagesEEG,001,201927,
AMNE22.JPG,AMSA24.JPG,AMSA22.JPG,AMNE25.JPG,AMNE24.JPG,AMSA25.JPG,,,,,,,,,0,7,7,7,,,,,,,,,,,,,,,AMSA12.jpg,AMNE14.jpg,AMSA16.jpg,AMNE06.jpg,AMNE06.jpg,MN,1,num_4,16,num_4,0.616776920855,,,2017_Nov_13_1208,60.0032909716,MAFE4ImagesEEG,001,201927,
AMNE23.JPG,AMNE24.JPG,AMNE22.JPG,AMSA24.JPG,AMSA22.JPG,AMSA23.JPG,,,,,,,,,0,8,8,9,,,,,,,,,,,,,,,AMSA03.jpg,AMSA07.jpg,AMNE03.jpg,AMNE07.jpg,AMSA03.jpg,MS,2,num_8,32,num_2,0.433484562207,,,2017_Nov_13_1208,60.0032909716,MAFE4ImagesEEG,001,201927,
AFSA21.JPG,AFNE23.JPG,AFNE21.JPG,AFSA25.JPG,AFNE25.JPG,AFSA23.JPG,,,,,,,,,0,9,9,4,,,,,,,,,,,,,,,AMSA09.jpg,AMNE20.jpg,AMNE03.jpg,AMSA11.jpg,AMNE20.jpg,MN,1,num_6,32,num_8,0.583505650982,,,2017_Nov_13_1208,60.0032909716,MAFE4ImagesEEG,001,201927,
AFNE23.JPG,AFNE24.JPG,AFNE22.JPG,AFSA24.JPG,AFSA22.JPG,AFSA23.JPG,,,,,,,,,,,,,0,0,0,8,,,,,,,,,,,AFNE20.jpg,AFSA09.jpg,AFNE16.jpg,AFSA14.jpg,AFSA14.jpg,FS,4,num_4,16,num_4,0.700101513881,,,2017_Nov_13_1208,60.0032909716,MAFE4ImagesEEG,001,201927,
AFSA21.JPG,AFNE22.JPG,AFNE21.JPG,AFSA23.JPG,AFSA22.JPG,AFNE23.JPG,,,,,,,,,,,,,0,1,1,0,,,,,,,,,,,AFSA12.jpg,AFNE10.jpg,AFSA09.jpg,AFNE01.jpg,AFSA12.jpg,FS,4,num_8,32,num_6,0.550123083871,,,2017_Nov_13_1208,60.0032909716,MAFE4ImagesEEG,001,201927,
AMNE23.JPG,AMNE24.JPG,AMNE22.JPG,AMSA24.JPG,AMSA22.JPG,AMSA23.JPG,,,,,,,,,,,,,0,2,2,9,,,,,,,,,,,AFNE16.jpg,AFNE19.jpg,AFSA05.jpg,AFSA20.jpg,AFNE19.jpg,FN,3,num_6,32,num_8,0.550127574243,,,2017_Nov_13_1208,60.0032909716,MAFE4ImagesEEG,001,201927,
AFSA21.JPG,AFNE23.JPG,AFNE21.JPG,AFSA25.JPG,AFNE25.JPG,AFSA23.JPG,,,,,,,,,,,,,0,3,3,4,,,,,,,,,,,AFSA20.jpg,AFNE07.jpg,AFNE03.jpg,AFSA10.jpg,AFNE03.jpg,FN,3,num_2,32,num_8,0.683516395278,,,2017_Nov_13_1208,60.0032909716,MAFE4ImagesEEG,001,201927,
AMSA25.JPG,AMNE24.JPG,AMSA24.JPG,AMNE26.JPG,AMSA21.JPG,AMNE25.JPG,,,,,,,,,,,,,0,4,4,3,,,,,,,,,,,AFNE11.jpg,AFSA11.jpg,AFNE10.jpg,AFSA12.jpg,AFSA12.jpg,FS,4,num_4,16,num_4,0.633498995099,,,2017_Nov_13_1208,60.0032909716,MAFE4ImagesEEG,001,201927,
AFSA25.JPG,AFNE24.JPG,AFSA24.JPG,AFNE21.JPG,AFSA21.JPG,AFNE25.JPG,,,,,,,,,,,,,0,5,5,2,,,,,,,,,,,AFSA15.jpg,AFSA14.jpg,AFNE13.jpg,AFNE03.jpg,AFSA15.jpg,FS,4,num_8,32,num_2,0.483446795028,,,2017_Nov_13_1208,60.0032909716,MAFE4ImagesEEG,001,201927,
AMNE22.JPG,AMSA24.JPG,AMSA22.JPG,AMNE25.JPG,AMNE24.JPG,AMSA25.JPG,,,,,,,,,,,,,0,6,6,7,,,,,,,,,,,AFNE03.jpg,AFNE12.jpg,AFSA03.jpg,AFSA14.jpg,AFNE12.jpg,FN,3,num_6,16,num_6,0.866776680574,,,2017_Nov_13_1208,60.0032909716,MAFE4ImagesEEG,001,201927,
AMSA21.JPG,AMNE23.JPG,AMNE21.JPG,AMSA25.JPG,AMNE25.JPG,AMSA23.JPG,,,,,,,,,,,,,0,7,7,5,,,,,,,,,,,AFNE18.jpg,AFSA04.jpg,AFNE09.jpg,AFSA12.jpg,AFNE18.jpg,FN,3,num_8,16,num_8,0.483462831937,,,2017_Nov_13_1208,60.0032909716,MAFE4ImagesEEG,001,201927,
AMSA21.JPG,AMNE22.JPG,AMNE21.JPG,AMSA23.JPG,AMSA22.JPG,AMNE23.JPG,,,,,,,,,,,,,0,8,8,1,,,,,,,,,,,AFNE15.jpg,AFSA01.jpg,AFNE07.jpg,AFSA17.jpg,AFSA01.jpg,FS,4,num_6,32,num_4,0.616791674867,,,2017_Nov_13_1208,60.0032909716,MAFE4ImagesEEG,001,201927,
AFNE22.JPG,AFSA24.JPG,AFSA22.JPG,AFNE25.JPG,AFNE24.JPG,AFSA25.JPG,,,,,,,,,,,,,0,9,9,6,,,,,,,,,,,AFSA18.jpg,AFNE13.jpg,AFNE02.jpg,AFSA10.jpg,AFNE13.jpg,FN,3,num_6,16,num_6,0.383541894145,,,2017_Nov_13_1208,60.0032909716,MAFE4ImagesEEG,001,201927,
AFNE23.JPG,AFNE24.JPG,AFNE22.JPG,AFSA24.JPG,AFSA22.JPG,AFSA23.JPG,,,,,,,,,,,,,,,,,0,0,0,8,,,,,,,AMNE20.jpg,AMNE19.jpg,AMSA14.jpg,AMSA16.jpg,AMNE19.jpg,MN,1,num_6,32,num_8,0.56680506561,,,2017_Nov_13_1208,60.0032909716,MAFE4ImagesEEG,001,201927,
AMSA21.JPG,AMNE23.JPG,AMNE21.JPG,AMSA25.JPG,AMNE25.JPG,AMSA23.JPG,,,,,,,,,,,,,,,,,0,1,1,5,,,,,,,AMSA01.jpg,AMNE02.jpg,AMNE06.jpg,AMSA09.jpg,AMNE02.jpg,MN,1,num_6,16,num_6,0.65012228163,,,2017_Nov_13_1208,60.0032909716,MAFE4ImagesEEG,001,201927,
AMNE22.JPG,AMSA24.JPG,AMSA22.JPG,AMNE25.JPG,AMNE24.JPG,AMSA25.JPG,,,,,,,,,,,,,,,,,0,2,2,7,,,,,,,AMNE11.jpg,AMSA18.jpg,AMNE20.jpg,AMSA15.jpg,AMNE20.jpg,MN,1,num_2,32,num_4,0.583449841943,,,2017_Nov_13_1208,60.0032909716,MAFE4ImagesEEG,001,201927,
AFSA21.JPG,AFNE22.JPG,AFNE21.JPG,AFSA23.JPG,AFSA22.JPG,AFNE23.JPG,,,,,,,,,,,,,,,,,0,3,3,0,,,,,,,AMSA07.jpg,AMSA04.jpg,AMNE03.jpg,AMNE05.jpg,AMSA04.jpg,MS,2,num_6,16,num_6,0.583470048383,,,2017_Nov_13_1208,60.0032909716,MAFE4ImagesEEG,001,201927,
AFSA25.JPG,AFNE24.JPG,AFSA24.JPG,AFNE21.JPG,AFSA21.JPG,AFNE25.JPG,,,,,,,,,,,,,,,,,0,4,4,2,,,,,,,AMNE14.jpg,AMSA18.jpg,AMSA20.jpg,AMNE02.jpg,AMSA18.jpg,MS,2,num_6,32,num_8,0.583456577267,,,2017_Nov_13_1208,60.0032909716,MAFE4ImagesEEG,001,201927,
AMNE23.JPG,AMNE24.JPG,AMNE22.JPG,AMSA24.JPG,AMSA22.JPG,AMSA23.JPG,,,,,,,,,,,,,,,,,0,5,5,9,,,,,,,AMNE12.jpg,AMSA15.jpg,AMSA09.jpg,AMNE10.jpg,AMSA09.jpg,MS,2,num_2,32,num_4,0.650140884798,,,2017_Nov_13_1208,60.0032909716,MAFE4ImagesEEG,001,201927,
AFNE22.JPG,AFSA24.JPG,AFSA22.JPG,AFNE25.JPG,AFNE24.JPG,AFSA25.JPG,,,,,,,,,,,,,,,,,0,6,6,6,,,,,,,AMSA16.jpg,AMNE20.jpg,AMNE09.jpg,AMSA17.jpg,AMNE20.jpg,MN,1,num_6,16,num_6,0.566790632438,,,2017_Nov_13_1208,60.0032909716,MAFE4ImagesEEG,001,201927,
AFSA21.JPG,AFNE23.JPG,AFNE21.JPG,AFSA25.JPG,AFNE25.JPG,AFSA23.JPG,,,,,,,,,,,,,,,,,0,7,7,4,,,,,,,AMNE01.jpg,AMSA12.jpg,AMNE02.jpg,AMSA10.jpg,AMNE01.jpg,MN,1,num_8,16,num_8,0.600121560507,,,2017_Nov_13_1208,60.0032909716,MAFE4ImagesEEG,001,201927,
AMSA25.JPG,AMNE24.JPG,AMSA24.JPG,AMNE26.JPG,AMSA21.JPG,AMNE25.JPG,,,,,,,,,,,,,,,,,0,8,8,3,,,,,,,AMNE01.jpg,AMNE16.jpg,AMSA17.jpg,AMSA07.jpg,AMNE01.jpg,MN,1,num_8,16,num_8,0.550141366199,,,2017_Nov_13_1208,60.0032909716,MAFE4ImagesEEG,001,201927,
AMSA21.JPG,AMNE22.JPG,AMNE21.JPG,AMSA23.JPG,AMSA22.JPG,AMNE23.JPG,,,,,,,,,,,,,,,,,0,9,9,1,,,,,,,AMSA01.jpg,AMSA11.jpg,AMNE06.jpg,AMNE04.jpg,AMNE04.jpg,MN,1,num_4,16,num_4,0.466866808478,,,2017_Nov_13_1208,60.0032909716,MAFE4ImagesEEG,001,201927,
AMSA25.JPG,AMNE24.JPG,AMSA24.JPG,AMNE26.JPG,AMSA21.JPG,AMNE25.JPG,,,,,,,,,,,,,,,,,,,,,0,0,0,3,,,AFNE06.jpg,AFSA01.jpg,AFNE18.jpg,AFSA14.jpg,AFNE18.jpg,FN,3,num_2,16,num_2,0.833529465366,,,2017_Nov_13_1208,60.0032909716,MAFE4ImagesEEG,001,201927,
AMNE22.JPG,AMSA24.JPG,AMSA22.JPG,AMNE25.JPG,AMNE24.JPG,AMSA25.JPG,,,,,,,,,,,,,,,,,,,,,0,1,1,7,,,AFSA12.jpg,AFNE18.jpg,AFSA13.jpg,AFNE03.jpg,AFNE18.jpg,FN,3,num_6,32,num_8,0.616815730464,,,2017_Nov_13_1208,60.0032909716,MAFE4ImagesEEG,001,201927,
AMSA21.JPG,AMNE22.JPG,AMNE21.JPG,AMSA23.JPG,AMSA22.JPG,AMNE23.JPG,,,,,,,,,,,,,,,,,,,,,0,2,2,1,,,AFNE12.jpg,AFSA05.jpg,AFNE11.jpg,AFSA02.jpg,AFSA05.jpg,FS,4,num_6,16,num_6,0.883436531294,,,2017_Nov_13_1208,60.0032909716,MAFE4ImagesEEG,001,201927,
AFSA21.JPG,AFNE22.JPG,AFNE21.JPG,AFSA23.JPG,AFSA22.JPG,AFNE23.JPG,,,,,,,,,,,,,,,,,,,,,0,3,3,0,,,AFSA19.jpg,AFNE15.jpg,AFSA17.jpg,AFNE13.jpg,AFSA19.jpg,FS,4,num_8,32,num_4,0.516855662689,,,2017_Nov_13_1208,60.0032909716,MAFE4ImagesEEG,001,201927,
AFSA21.JPG,AFNE23.JPG,AFNE21.JPG,AFSA25.JPG,AFNE25.JPG,AFSA23.JPG,,,,,,,,,,,,,,,,,,,,,0,4,4,4,,,AFSA02.jpg,AFSA19.jpg,AFNE01.jpg,AFNE04.jpg,AFSA19.jpg,FS,4,num_6,32,num_8,0.483515753876,,,2017_Nov_13_1208,60.0032909716,MAFE4ImagesEEG,001,201927,
AMNE23.JPG,AMNE24.JPG,AMNE22.JPG,AMSA24.JPG,AMSA22.JPG,AMSA23.JPG,,,,,,,,,,,,,,,,,,,,,0,5,5,9,,,AFNE03.jpg,AFNE05.jpg,AFSA10.jpg,AFSA08.jpg,AFSA08.jpg,FS,4,num_4,32,num_6,0.733559133951,,,2017_Nov_13_1208,60.0032909716,MAFE4ImagesEEG,001,201927,
AMSA21.JPG,AMNE23.JPG,AMNE21.JPG,AMSA25.JPG,AMNE25.JPG,AMSA23.JPG,,,,,,,,,,,,,,,,,,,,,0,6,6,5,,,AFSA03.jpg,AFNE11.jpg,AFNE14.jpg,AFSA09.jpg,AFNE11.jpg,FN,3,num_6,32,num_8,0.600136955734,,,2017_Nov_13_1208,60.0032909716,MAFE4ImagesEEG,001,201927,
AFNE22.JPG,AFSA24.JPG,AFSA22.JPG,AFNE25.JPG,AFNE24.JPG,AFSA25.JPG,,,,,,,,,,,,,,,,,,,,,0,7,7,6,,,AFSA20.jpg,AFNE03.jpg,AFSA08.jpg,AFNE05.jpg,AFNE03.jpg,FN,3,num_6,16,num_6,0.516878755298,,,2017_Nov_13_1208,60.0032909716,MAFE4ImagesEEG,001,201927,
AFSA25.JPG,AFNE24.JPG,AFSA24.JPG,AFNE21.JPG,AFSA21.JPG,AFNE25.JPG,,,,,,,,,,,,,,,,,,,,,0,8,8,2,,,AFNE01.jpg,AFSA04.jpg,AFNE20.jpg,AFSA09.jpg,AFNE01.jpg,FN,3,num_8,32,num_4,0.516793760005,,,2017_Nov_13_1208,60.0032909716,MAFE4ImagesEEG,001,201927,
AFNE23.JPG,AFNE24.JPG,AFNE22.JPG,AFSA24.JPG,AFSA22.JPG,AFSA23.JPG,,,,,,,,,,,,,,,,,,,,,0,9,9,8,,,AFNE03.jpg,AFNE13.jpg,AFSA19.jpg,AFSA10.jpg,AFNE13.jpg,FN,3,num_6,16,num_6,0.50023397943,,,2017_Nov_13_1208,60.0032909716,MAFE4ImagesEEG,001,201927,
,,,,,,,,,,,,,,,,,,,,,,,,,,,,,,,,,,,,,,,,,,,space,23.8982697707,2017_Nov_13_1208,60.0032909716,MAFE4ImagesEEG,001,201927,
AFNE01.JPG,AFNE01.JPG,AFNE01.JPG,AFNE01.JPG,AFNE01.JPG,AFNE01.JPG,0,0,0,9,,,,,,,,,,,,,,,,,,,,,,,AMNE17.jpg,AMSA05.jpg,AMSA16.jpg,AMNE05.jpg,AMSA05.jpg,MS,2,num_6,16,num_6,0.566815008875,,,2017_Nov_13_1208,60.0032909716,MAFE4ImagesEEG,001,201927,
AFNE01.JPG,AFNE01.JPG,AFNE01.JPG,AFNE01.JPG,AFNE01.JPG,AFNE01.JPG,0,1,1,8,,,,,,,,,,,,,,,,,,,,,,,AMSA07.jpg,AMNE15.jpg,AMSA04.jpg,AMNE18.jpg,AMSA07.jpg,MS,2,num_8,16,num_8,0.46682864055,,,2017_Nov_13_1208,60.0032909716,MAFE4ImagesEEG,001,201927,
AFNE01.JPG,AFNE01.JPG,AFNE01.JPG,AFNE01.JPG,AFNE01.JPG,AFNE01.JPG,0,2,2,7,,,,,,,,,,,,,,,,,,,,,,,AMNE18.jpg,AMNE02.jpg,AMSA20.jpg,AMSA15.jpg,AMNE02.jpg,MN,1,num_6,16,num_6,0.40014786087,,,2017_Nov_13_1208,60.0032909716,MAFE4ImagesEEG,001,201927,
AFNE01.JPG,AFNE01.JPG,AFNE01.JPG,AFNE01.JPG,AFNE01.JPG,AFNE01.JPG,0,3,3,3,,,,,,,,,,,,,,,,,,,,,,,AMSA11.jpg,AMSA04.jpg,AMNE02.jpg,AMNE17.jpg,AMSA11.jpg,MS,2,num_8,16,num_8,0.666788226925,,,2017_Nov_13_1208,60.0032909716,MAFE4ImagesEEG,001,201927,
AFNE01.JPG,AFNE01.JPG,AFNE01.JPG,AFNE01.JPG,AFNE01.JPG,AFNE01.JPG,0,4,4,6,,,,,,,,,,,,,,,,,,,,,,,AMNE20.jpg,AMSA07.jpg,AMSA20.jpg,AMNE04.jpg,AMSA07.jpg,MS,2,num_6,32,num_8,0.566830724943,,,2017_Nov_13_1208,60.0032909716,MAFE4ImagesEEG,001,201927,
AFNE01.JPG,AFNE01.JPG,AFNE01.JPG,AFNE01.JPG,AFNE01.JPG,AFNE01.JPG,0,5,5,5,,,,,,,,,,,,,,,,,,,,,,,AMNE13.jpg,AMSA20.jpg,AMNE02.jpg,AMSA19.jpg,AMNE02.jpg,MN,1,num_2,32,num_6,0.433497391641,,,2017_Nov_13_1208,60.0032909716,MAFE4ImagesEEG,001,201927,
AFNE01.JPG,AFNE01.JPG,AFNE01.JPG,AFNE01.JPG,AFNE01.JPG,AFNE01.JPG,0,6,6,4,,,,,,,,,,,,,,,,,,,,,,,AMNE11.jpg,AMSA10.jpg,AMSA02.jpg,AMNE14.jpg,AMNE14.jpg,MN,1,num_4,32,num_8,0.600139200687,,,2017_Nov_13_1208,60.0032909716,MAFE4ImagesEEG,001,201927,
AFNE01.JPG,AFNE01.JPG,AFNE01.JPG,AFNE01.JPG,AFNE01.JPG,AFNE01.JPG,0,7,7,1,,,,,,,,,,,,,,,,,,,,,,,AMSA05.jpg,AMSA04.jpg,AMNE17.jpg,AMNE13.jpg,AMSA05.jpg,MS,2,num_8,32,num_4,0.566816612147,,,2017_Nov_13_1208,60.0032909716,MAFE4ImagesEEG,001,201927,
AFNE01.JPG,AFNE01.JPG,AFNE01.JPG,AFNE01.JPG,AFNE01.JPG,AFNE01.JPG,0,8,8,2,,,,,,,,,,,,,,,,,,,,,,,AMNE09.jpg,AMSA08.jpg,AMSA09.jpg,AMNE07.jpg,AMSA09.jpg,MS,2,num_2,16,num_2,0.500231734477,,,2017_Nov_13_1208,60.0032909716,MAFE4ImagesEEG,001,201927,
AFNE01.JPG,AFNE01.JPG,AFNE01.JPG,AFNE01.JPG,AFNE01.JPG,AFNE01.JPG,0,9,9,0,,,,,,,,,,,,,,,,,,,,,,,AMNE08.jpg,AMSA15.jpg,AMNE07.jpg,AMSA03.jpg,AMSA03.jpg,MS,2,num_4,16,num_4,0.566939776298,,,2017_Nov_13_1208,60.0032909716,MAFE4ImagesEEG,001,201927,
AFNE01.JPG,AFNE01.JPG,AFNE01.JPG,AFNE01.JPG,AFNE01.JPG,AFNE01.JPG,1,0,10,3,,,,,,,,,,,,,,,,,,,,,,,AMNE20.jpg,AMSA09.jpg,AMSA01.jpg,AMNE17.jpg,AMNE20.jpg,MN,1,num_8,16,num_8,0.466778283939,,,2017_Nov_13_1208,60.0032909716,MAFE4ImagesEEG,001,201927,
AFNE01.JPG,AFNE01.JPG,AFNE01.JPG,AFNE01.JPG,AFNE01.JPG,AFNE01.JPG,1,1,11,8,,,,,,,,,,,,,,,,,,,,,,,AMSA19.jpg,AMSA13.jpg,AMNE07.jpg,AMNE04.jpg,AMNE07.jpg,MN,1,num_2,32,num_8,0.600138559472,,,2017_Nov_13_1208,60.0032909716,MAFE4ImagesEEG,001,201927,
AFNE01.JPG,AFNE01.JPG,AFNE01.JPG,AFNE01.JPG,AFNE01.JPG,AFNE01.JPG,1,2,12,9,,,,,,,,,,,,,,,,,,,,,,,AMNE07.jpg,AMSA20.jpg,AMNE15.jpg,AMSA06.jpg,AMNE15.jpg,MN,1,num_2,16,num_2,0.800207197666,,,2017_Nov_13_1208,60.0032909716,MAFE4ImagesEEG,001,201927,
AFNE01.JPG,AFNE01.JPG,AFNE01.JPG,AFNE01.JPG,AFNE01.JPG,AFNE01.JPG,1,3,13,0,,,,,,,,,,,,,,,,,,,,,,,AMNE14.jpg,AMNE15.jpg,AMSA01.jpg,AMSA09.jpg,AMNE14.jpg,MN,1,num_8,32,num_4,0.783584552817,,,2017_Nov_13_1208,60.0032909716,MAFE4ImagesEEG,001,201927,
AFNE01.JPG,AFNE01.JPG,AFNE01.JPG,AFNE01.JPG,AFNE01.JPG,AFNE01.JPG,1,4,14,2,,,,,,,,,,,,,,,,,,,,,,,AMNE19.jpg,AMSA16.jpg,AMSA10.jpg,AMNE09.jpg,AMNE19.jpg,MN,1,num_8,32,num_6,0.583589684218,,,2017_Nov_13_1208,60.0032909716,MAFE4ImagesEEG,001,201927,
AFNE01.JPG,AFNE01.JPG,AFNE01.JPG,AFNE01.JPG,AFNE01.JPG,AFNE01.JPG,1,5,15,5,,,,,,,,,,,,,,,,,,,,,,,AMNE11.jpg,AMSA17.jpg,AMSA14.jpg,AMNE09.jpg,AMNE09.jpg,MN,1,num_4,32,num_8,0.500193886925,,,2017_Nov_13_1208,60.0032909716,MAFE4ImagesEEG,001,201927,
AFNE01.JPG,AFNE01.JPG,AFNE01.JPG,AFNE01.JPG,AFNE01.JPG,AFNE01.JPG,1,6,16,1,,,,,,,,,,,,,,,,,,,,,,,AMSA18.jpg,AMSA04.jpg,AMNE18.jpg,AMNE15.jpg,AMSA04.jpg,MS,2,num_6,16,num_6,0.450163657311,,,2017_Nov_13_1208,60.0032909716,MAFE4ImagesEEG,001,201927,
AFNE01.JPG,AFNE01.JPG,AFNE01.JPG,AFNE01.JPG,AFNE01.JPG,AFNE01.JPG,1,7,17,7,,,,,,,,,,,,,,,,,,,,,,,AMSA18.jpg,AMNE16.jpg,AMSA05.jpg,AMNE06.jpg,AMSA05.jpg,MS,2,num_2,32,num_4,0.566734182648,,,2017_Nov_13_1208,60.0032909716,MAFE4ImagesEEG,001,201927,
AFNE01.JPG,AFNE01.JPG,AFNE01.JPG,AFNE01.JPG,AFNE01.JPG,AFNE01.JPG,1,8,18,4,,,,,,,,,,,,,,,,,,,,,,,AMSA18.jpg,AMNE11.jpg,AMNE03.jpg,AMSA05.jpg,AMSA18.jpg,MS,2,num_8,16,num_8,0.450157884043,,,2017_Nov_13_1208,60.0032909716,MAFE4ImagesEEG,001,201927,
AFNE01.JPG,AFNE01.JPG,AFNE01.JPG,AFNE01.JPG,AFNE01.JPG,AFNE01.JPG,1,9,19,6,,,,,,,,,,,,,,,,,,,,,,,AMSA20.jpg,AMNE03.jpg,AMNE16.jpg,AMSA06.jpg,AMSA06.jpg,MS,2,num_4,32,num_6,0.733293561731,,,2017_Nov_13_1208,60.0032909716,MAFE4ImagesEEG,001,201927,
AFNE01.JPG,AFNE01.JPG,AFNE01.JPG,AFNE01.JPG,AFNE01.JPG,AFNE01.JPG,2,0,20,7,,,,,,,,,,,,,,,,,,,,,,,AMNE19.jpg,AMNE18.jpg,AMSA01.jpg,AMSA11.jpg,AMSA01.jpg,MS,2,num_2,16,num_2,0.483034644742,,,2017_Nov_13_1208,60.0032909716,MAFE4ImagesEEG,001,201927,
AFNE01.JPG,AFNE01.JPG,AFNE01.JPG,AFNE01.JPG,AFNE01.JPG,AFNE01.JPG,2,1,21,1,,,,,,,,,,,,,,,,,,,,,,,AMSA12.jpg,AMSA20.jpg,AMNE04.jpg,AMNE20.jpg,AMSA20.jpg,MS,2,num_6,32,num_8,0.516783175059,,,2017_Nov_13_1208,60.0032909716,MAFE4ImagesEEG,001,201927,
AFNE01.JPG,AFNE01.JPG,AFNE01.JPG,AFNE01.JPG,AFNE01.JPG,AFNE01.JPG,2,2,22,4,,,,,,,,,,,,,,,,,,,,,,,AMSA20.jpg,AMNE01.jpg,AMNE06.jpg,AMSA11.jpg,AMSA11.jpg,MS,2,num_4,16,num_4,0.733511343598,,,2017_Nov_13_1208,60.0032909716,MAFE4ImagesEEG,001,201927,
AFNE01.JPG,AFNE01.JPG,AFNE01.JPG,AFNE01.JPG,AFNE01.JPG,AFNE01.JPG,2,3,23,9,,,,,,,,,,,,,,,,,,,,,,,AMNE06.jpg,AMNE19.jpg,AMSA14.jpg,AMSA16.jpg,AMSA14.jpg,MS,2,num_2,16,num_2,0.466883165762,,,2017_Nov_13_1208,60.0032909716,MAFE4ImagesEEG,001,201927,
AFNE01.JPG,AFNE01.JPG,AFNE01.JPG,AFNE01.JPG,AFNE01.JPG,AFNE01.JPG,2,4,24,5,,,,,,,,,,,,,,,,,,,,,,,AMSA01.jpg,AMNE02.jpg,AMSA07.jpg,AMNE10.jpg,AMNE02.jpg,MN,1,num_6,32,num_8,0.383519763127,,,2017_Nov_13_1208,60.0032909716,MAFE4ImagesEEG,001,201927,
AFNE01.JPG,AFNE01.JPG,AFNE01.JPG,AFNE01.JPG,AFNE01.JPG,AFNE01.JPG,2,5,25,6,,,,,,,,,,,,,,,,,,,,,,,AMSA20.jpg,AMNE06.jpg,AMNE05.jpg,AMSA09.jpg,AMSA09.jpg,MS,2,num_4,32,num_6,0.333441422787,,,2017_Nov_13_1208,60.0032909716,MAFE4ImagesEEG,001,201927,
AFNE01.JPG,AFNE01.JPG,AFNE01.JPG,AFNE01.JPG,AFNE01.JPG,AFNE01.JPG,2,6,26,2,,,,,,,,,,,,,,,,,,,,,,,AMNE07.jpg,AMSA17.jpg,AMSA16.jpg,AMNE03.jpg,AMNE07.jpg,MN,1,num_8,16,num_8,0.500164058525,,,2017_Nov_13_1208,60.0032909716,MAFE4ImagesEEG,001,201927,
AFNE01.JPG,AFNE01.JPG,AFNE01.JPG,AFNE01.JPG,AFNE01.JPG,AFNE01.JPG,2,7,27,3,,,,,,,,,,,,,,,,,,,,,,,AMNE06.jpg,AMSA13.jpg,AMNE20.jpg,AMSA04.jpg,AMSA04.jpg,MS,2,num_4,16,num_4,0.48349843407,,,2017_Nov_13_1208,60.0032909716,MAFE4ImagesEEG,001,201927,
AFNE01.JPG,AFNE01.JPG,AFNE01.JPG,AFNE01.JPG,AFNE01.JPG,AFNE01.JPG,2,8,28,0,,,,,,,,,,,,,,,,,,,,,,,AMNE17.jpg,AMSA03.jpg,AMNE07.jpg,AMSA17.jpg,AMSA03.jpg,MS,2,num_6,16,num_6,0.416814447381,,,2017_Nov_13_1208,60.0032909716,MAFE4ImagesEEG,001,201927,
AFNE01.JPG,AFNE01.JPG,AFNE01.JPG,AFNE01.JPG,AFNE01.JPG,AFNE01.JPG,2,9,29,8,,,,,,,,,,,,,,,,,,,,,,,AMSA01.jpg,AMNE10.jpg,AMNE17.jpg,AMSA19.jpg,AMNE17.jpg,MN,1,num_2,32,num_4,0.750143290497,,,2017_Nov_13_1208,60.0032909716,MAFE4ImagesEEG,001,201927,
AFNE01.JPG,AFNE01.JPG,AFNE01.JPG,AFNE01.JPG,AFNE01.JPG,AFNE01.JPG,3,0,30,7,,,,,,,,,,,,,,,,,,,,,,,AMSA12.jpg,AMNE08.jpg,AMSA07.jpg,AMNE14.jpg,AMSA07.jpg,MS,2,num_2,16,num_2,0.483507414814,,,2017_Nov_13_1208,60.0032909716,MAFE4ImagesEEG,001,201927,
AFNE01.JPG,AFNE01.JPG,AFNE01.JPG,AFNE01.JPG,AFNE01.JPG,AFNE01.JPG,3,1,31,1,,,,,,,,,,,,,,,,,,,,,,,AMSA10.jpg,AMNE11.jpg,AMSA19.jpg,AMNE19.jpg,AMNE11.jpg,MN,1,num_6,32,num_4,0.583476463333,,,2017_Nov_13_1208,60.0032909716,MAFE4ImagesEEG,001,201927,
AFNE01.JPG,AFNE01.JPG,AFNE01.JPG,AFNE01.JPG,AFNE01.JPG,AFNE01.JPG,3,2,32,8,,,,,,,,,,,,,,,,,,,,,,,AMNE02.jpg,AMNE01.jpg,AMSA11.jpg,AMSA16.jpg,AMNE02.jpg,MN,1,num_8,32,num_2,0.400259478483,,,2017_Nov_13_1208,60.0032909716,MAFE4ImagesEEG,001,201927,
AFNE01.JPG,AFNE01.JPG,AFNE01.JPG,AFNE01.JPG,AFNE01.JPG,AFNE01.JPG,3,3,33,6,,,,,,,,,,,,,,,,,,,,,,,AMSA13.jpg,AMNE10.jpg,AMNE14.jpg,AMSA17.jpg,AMNE10.jpg,MN,1,num_6,16,num_6,0.750302697532,,,2017_Nov_13_1208,60.0032909716,MAFE4ImagesEEG,001,201927,
AFNE01.JPG,AFNE01.JPG,AFNE01.JPG,AFNE01.JPG,AFNE01.JPG,AFNE01.JPG,3,4,34,0,,,,,,,,,,,,,,,,,,,,,,,AMNE09.jpg,AMSA18.jpg,AMSA08.jpg,AMNE08.jpg,AMNE09.jpg,MN,1,num_8,32,num_4,0.616643172689,,,2017_Nov_13_1208,60.0032909716,MAFE4ImagesEEG,001,201927,
AFNE01.JPG,AFNE01.JPG,AFNE01.JPG,AFNE01.JPG,AFNE01.JPG,AFNE01.JPG,3,5,35,2,,,,,,,,,,,,,,,,,,,,,,,AMNE02.jpg,AMSA18.jpg,AMNE13.jpg,AMSA04.jpg,AMNE13.jpg,MN,1,num_2,16,num_2,0.733491137158,,,2017_Nov_13_1208,60.0032909716,MAFE4ImagesEEG,001,201927,
AFNE01.JPG,AFNE01.JPG,AFNE01.JPG,AFNE01.JPG,AFNE01.JPG,AFNE01.JPG,3,6,36,5,,,,,,,,,,,,,,,,,,,,,,,AMNE17.jpg,AMSA18.jpg,AMSA13.jpg,AMNE08.jpg,AMSA13.jpg,MS,2,num_2,32,num_6,0.516801778227,,,2017_Nov_13_1208,60.0032909716,MAFE4ImagesEEG,001,201927,
AFNE01.JPG,AFNE01.JPG,AFNE01.JPG,AFNE01.JPG,AFNE01.JPG,AFNE01.JPG,3,7,37,4,,,,,,,,,,,,,,,,,,,,,,,AMSA16.jpg,AMSA04.jpg,AMNE12.jpg,AMNE05.jpg,AMSA04.jpg,MS,2,num_6,16,num_6,0.450090528931,,,2017_Nov_13_1208,60.0032909716,MAFE4ImagesEEG,001,201927,
AFNE01.JPG,AFNE01.JPG,AFNE01.JPG,AFNE01.JPG,AFNE01.JPG,AFNE01.JPG,3,8,38,3,,,,,,,,,,,,,,,,,,,,,,,AMNE20.jpg,AMNE19.jpg,AMSA12.jpg,AMSA07.jpg,AMNE20.jpg,MN,1,num_8,16,num_8,0.650142809376,,,2017_Nov_13_1208,60.0032909716,MAFE4ImagesEEG,001,201927,
AFNE01.JPG,AFNE01.JPG,AFNE01.JPG,AFNE01.JPG,AFNE01.JPG,AFNE01.JPG,3,9,39,9,,,,,,,,,,,,,,,,,,,,,,,AMNE03.jpg,AMNE18.jpg,AMSA04.jpg,AMSA19.jpg,AMNE03.jpg,MN,1,num_8,16,num_8,0.766809556168,,,2017_Nov_13_1208,60.0032909716,MAFE4ImagesEEG,001,201927,
AFNE01.JPG,AFNE01.JPG,AFNE01.JPG,AFNE01.JPG,AFNE01.JPG,AFNE01.JPG,4,0,40,5,,,,,,,,,,,,,,,,,,,,,,,AMSA19.jpg,AMNE15.jpg,AMNE01.jpg,AMSA04.jpg,AMNE01.jpg,MN,1,num_2,16,num_2,0.50017079385,,,2017_Nov_13_1208,60.0032909716,MAFE4ImagesEEG,001,201927,
AFNE01.JPG,AFNE01.JPG,AFNE01.JPG,AFNE01.JPG,AFNE01.JPG,AFNE01.JPG,4,1,41,1,,,,,,,,,,,,,,,,,,,,,,,AMSA04.jpg,AMNE06.jpg,AMNE03.jpg,AMSA02.jpg,AMSA04.jpg,MS,2,num_8,16,num_8,0.500015555881,,,2017_Nov_13_1208,60.0032909716,MAFE4ImagesEEG,001,201927,
AFNE01.JPG,AFNE01.JPG,AFNE01.JPG,AFNE01.JPG,AFNE01.JPG,AFNE01.JPG,4,2,42,7,,,,,,,,,,,,,,,,,,,,,,,AMSA09.jpg,AMNE01.jpg,AMNE19.jpg,AMSA07.jpg,AMSA09.jpg,MS,2,num_8,16,num_8,0.700131984428,,,2017_Nov_13_1208,60.0032909716,MAFE4ImagesEEG,001,201927,
AFNE01.JPG,AFNE01.JPG,AFNE01.JPG,AFNE01.JPG,AFNE01.JPG,AFNE01.JPG,4,3,43,6,,,,,,,,,,,,,,,,,,,,,,,AMSA19.jpg,AMNE18.jpg,AMNE02.jpg,AMSA11.jpg,AMSA19.jpg,MS,2,num_8,32,num_6,0.566786783747,,,2017_Nov_13_1208,60.0032909716,MAFE4ImagesEEG,001,201927,
AFNE01.JPG,AFNE01.JPG,AFNE01.JPG,AFNE01.JPG,AFNE01.JPG,AFNE01.JPG,4,4,44,8,,,,,,,,,,,,,,,,,,,,,,,AMNE17.jpg,AMSA10.jpg,AMSA04.jpg,AMNE14.jpg,AMNE17.jpg,MN,1,num_8,16,num_8,0.70013038069,,,2017_Nov_13_1208,60.0032909716,MAFE4ImagesEEG,001,201927,
AFNE01.JPG,AFNE01.JPG,AFNE01.JPG,AFNE01.JPG,AFNE01.JPG,AFNE01.JPG,4,5,45,9,,,,,,,,,,,,,,,,,,,,,,,AMSA09.jpg,AMNE19.jpg,AMSA02.jpg,AMNE01.jpg,AMNE01.jpg,MN,1,num_4,16,num_4,0.66679175524,,,2017_Nov_13_1208,60.0032909716,MAFE4ImagesEEG,001,201927,
AFNE01.JPG,AFNE01.JPG,AFNE01.JPG,AFNE01.JPG,AFNE01.JPG,AFNE01.JPG,4,6,46,0,,,,,,,,,,,,,,,,,,,,,,,AMNE14.jpg,AMSA09.jpg,AMSA11.jpg,AMNE07.jpg,AMSA09.jpg,MS,2,num_6,16,num_6,0.51683705952,,,2017_Nov_13_1208,60.0032909716,MAFE4ImagesEEG,001,201927,
AFNE01.JPG,AFNE01.JPG,AFNE01.JPG,AFNE01.JPG,AFNE01.JPG,AFNE01.JPG,4,7,47,3,,,,,,,,,,,,,,,,,,,,,,,AMNE06.jpg,AMNE12.jpg,AMSA17.jpg,AMSA18.jpg,AMSA17.jpg,MS,2,num_2,16,num_2,0.600182500668,,,2017_Nov_13_1208,60.0032909716,MAFE4ImagesEEG,001,201927,
AFNE01.JPG,AFNE01.JPG,AFNE01.JPG,AFNE01.JPG,AFNE01.JPG,AFNE01.JPG,4,8,48,4,,,,,,,,,,,,,,,,,,,,,,,AMNE04.jpg,AMNE02.jpg,AMSA12.jpg,AMSA10.jpg,AMSA10.jpg,MS,2,num_4,16,num_4,0.733507815283,,,2017_Nov_13_1208,60.0032909716,MAFE4ImagesEEG,001,201927,
AFNE01.JPG,AFNE01.JPG,AFNE01.JPG,AFNE01.JPG,AFNE01.JPG,AFNE01.JPG,4,9,49,2,,,,,,,,,,,,,,,,,,,,,,,AMSA01.jpg,AMNE17.jpg,AMSA11.jpg,AMNE12.jpg,AMSA01.jpg,MS,2,num_8,16,num_8,0.550129819661,,,2017_Nov_13_1208,60.0032909716,MAFE4ImagesEEG,001,201927,
AFNE01.JPG,AFNE01.JPG,AFNE01.JPG,AFNE01.JPG,AFNE01.JPG,AFNE01.JPG,5,0,50,4,,,,,,,,,,,,,,,,,,,,,,,AMNE10.jpg,AMSA13.jpg,AMNE17.jpg,AMSA17.jpg,AMNE17.jpg,MN,1,num_2,32,num_6,0.566808273084,,,2017_Nov_13_1208,60.0032909716,MAFE4ImagesEEG,001,201927,
AFNE01.JPG,AFNE01.JPG,AFNE01.JPG,AFNE01.JPG,AFNE01.JPG,AFNE01.JPG,5,1,51,0,,,,,,,,,,,,,,,,,,,,,,,AMSA02.jpg,AMNE11.jpg,AMNE06.jpg,AMSA06.jpg,AMNE11.jpg,MN,1,num_6,16,num_6,0.633460185956,,,2017_Nov_13_1208,60.0032909716,MAFE4ImagesEEG,001,201927,
AFNE01.JPG,AFNE01.JPG,AFNE01.JPG,AFNE01.JPG,AFNE01.JPG,AFNE01.JPG,5,2,52,3,,,,,,,,,,,,,,,,,,,,,,,AMNE15.jpg,AMNE06.jpg,AMSA12.jpg,AMSA02.jpg,AMSA12.jpg,MS,2,num_2,16,num_2,0.683499396313,,,2017_Nov_13_1208,60.0032909716,MAFE4ImagesEEG,001,201927,
AFNE01.JPG,AFNE01.JPG,AFNE01.JPG,AFNE01.JPG,AFNE01.JPG,AFNE01.JPG,5,3,53,8,,,,,,,,,,,,,,,,,,,,,,,AMNE05.jpg,AMNE04.jpg,AMSA03.jpg,AMSA06.jpg,AMNE05.jpg,MN,1,num_8,16,num_8,0.750142969657,,,2017_Nov_13_1208,60.0032909716,MAFE4ImagesEEG,001,201927,
AFNE01.JPG,AFNE01.JPG,AFNE01.JPG,AFNE01.JPG,AFNE01.JPG,AFNE01.JPG,5,4,54,9,,,,,,,,,,,,,,,,,,,,,,,AMSA04.jpg,AMNE04.jpg,AMSA07.jpg,AMNE03.jpg,AMNE03.jpg,MN,1,num_4,16,num_4,0.700163095724,,,2017_Nov_13_1208,60.0032909716,MAFE4ImagesEEG,001,201927,
AFNE01.JPG,AFNE01.JPG,AFNE01.JPG,AFNE01.JPG,AFNE01.JPG,AFNE01.JPG,5,5,55,2,,,,,,,,,,,,,,,,,,,,,,,AMSA16.jpg,AMNE09.jpg,AMSA02.jpg,AMNE02.jpg,AMNE02.jpg,MN,1,num_4,32,num_2,0.800127013121,,,2017_Nov_13_1208,60.0032909716,MAFE4ImagesEEG,001,201927,
AFNE01.JPG,AFNE01.JPG,AFNE01.JPG,AFNE01.JPG,AFNE01.JPG,AFNE01.JPG,5,6,56,6,,,,,,,,,,,,,,,,,,,,,,,AMSA05.jpg,AMSA18.jpg,AMNE14.jpg,AMNE05.jpg,AMNE14.jpg,MN,1,num_2,16,num_2,0.616778524593,,,2017_Nov_13_1208,60.0032909716,MAFE4ImagesEEG,001,201927,
AFNE01.JPG,AFNE01.JPG,AFNE01.JPG,AFNE01.JPG,AFNE01.JPG,AFNE01.JPG,5,7,57,1,,,,,,,,,,,,,,,,,,,,,,,AMSA04.jpg,AMNE10.jpg,AMSA06.jpg,AMNE17.jpg,AMNE17.jpg,MN,1,num_4,32,num_6,0.633346002549,,,2017_Nov_13_1208,60.0032909716,MAFE4ImagesEEG,001,201927,
AFNE01.JPG,AFNE01.JPG,AFNE01.JPG,AFNE01.JPG,AFNE01.JPG,AFNE01.JPG,5,8,58,5,,,,,,,,,,,,,,,,,,,,,,,AMNE07.jpg,AMSA18.jpg,AMNE19.jpg,AMSA02.jpg,AMNE07.jpg,MN,1,num_8,32,num_2,0.716761044227,,,2017_Nov_13_1208,60.0032909716,MAFE4ImagesEEG,001,201927,
AFNE01.JPG,AFNE01.JPG,AFNE01.JPG,AFNE01.JPG,AFNE01.JPG,AFNE01.JPG,5,9,59,7,,,,,,,,,,,,,,,,,,,,,,,AMSA20.jpg,AMSA14.jpg,AMNE10.jpg,AMNE03.jpg,AMNE10.jpg,MN,1,num_2,32,num_8,0.833519522566,,,2017_Nov_13_1208,60.0032909716,MAFE4ImagesEEG,001,201927,
,,,,,,,,,,,,,,,,,,,,,,,,,,,,,,,,,,,,,,,,,,,space,11.1323015145,2017_Nov_13_1208,60.0032909716,MAFE4ImagesEEG,001,201927,
AFNE01.JPG,AFNE01.JPG,AFNE01.JPG,AFNE01.JPG,AFNE01.JPG,AFNE01.JPG,,,,,0,0,0,0,,,,,,,,,,,,,,,,,,,AFNE18.jpg,AFSA06.jpg,AFNE10.jpg,AFSA19.jpg,AFNE10.jpg,FN,3,num_2,16,num_2,0.466805546544,,,2017_Nov_13_1208,60.0032909716,MAFE4ImagesEEG,001,201927,
AFNE01.JPG,AFNE01.JPG,AFNE01.JPG,AFNE01.JPG,AFNE01.JPG,AFNE01.JPG,,,,,0,1,1,5,,,,,,,,,,,,,,,,,,,AFSA18.jpg,AFSA13.jpg,AFNE11.jpg,AFNE12.jpg,AFNE12.jpg,FN,3,num_4,16,num_4,0.450180335902,,,2017_Nov_13_1208,60.0032909716,MAFE4ImagesEEG,001,201927,
AFNE01.JPG,AFNE01.JPG,AFNE01.JPG,AFNE01.JPG,AFNE01.JPG,AFNE01.JPG,,,,,0,2,2,3,,,,,,,,,,,,,,,,,,,AFSA14.jpg,AFNE05.jpg,AFSA03.jpg,AFNE18.jpg,AFNE18.jpg,FN,3,num_4,32,num_8,0.383356506936,,,2017_Nov_13_1208,60.0032909716,MAFE4ImagesEEG,001,201927,
AFNE01.JPG,AFNE01.JPG,AFNE01.JPG,AFNE01.JPG,AFNE01.JPG,AFNE01.JPG,,,,,0,3,3,7,,,,,,,,,,,,,,,,,,,AFSA07.jpg,AFSA17.jpg,AFNE07.jpg,AFNE01.jpg,AFSA07.jpg,FS,4,num_8,16,num_8,0.616798410192,,,2017_Nov_13_1208,60.0032909716,MAFE4ImagesEEG,001,201927,
AFNE01.JPG,AFNE01.JPG,AFNE01.JPG,AFNE01.JPG,AFNE01.JPG,AFNE01.JPG,,,,,0,4,4,9,,,,,,,,,,,,,,,,,,,AFSA04.jpg,AFNE05.jpg,AFSA06.jpg,AFNE12.jpg,AFNE12.jpg,FN,3,num_4,16,num_4,0.633570199367,,,2017_Nov_13_1208,60.0032909716,MAFE4ImagesEEG,001,201927,
AFNE01.JPG,AFNE01.JPG,AFNE01.JPG,AFNE01.JPG,AFNE01.JPG,AFNE01.JPG,,,,,0,5,5,4,,,,,,,,,,,,,,,,,,,AFNE01.jpg,AFNE05.jpg,AFSA01.jpg,AFSA20.jpg,AFSA01.jpg,FS,4,num_2,16,num_2,0.716801136732,,,2017_Nov_13_1208,60.0032909716,MAFE4ImagesEEG,001,201927,
AFNE01.JPG,AFNE01.JPG,AFNE01.JPG,AFNE01.JPG,AFNE01.JPG,AFNE01.JPG,,,,,0,6,6,1,,,,,,,,,,,,,,,,,,,AFSA11.jpg,AFNE11.jpg,AFNE16.jpg,AFSA09.jpg,AFSA11.jpg,FS,4,num_8,16,num_8,0.500187151134,,,2017_Nov_13_1208,60.0032909716,MAFE4ImagesEEG,001,201927,
AFNE01.JPG,AFNE01.JPG,AFNE01.JPG,AFNE01.JPG,AFNE01.JPG,AFNE01.JPG,,,,,0,7,7,8,,,,,,,,,,,,,,,,,,,AFNE15.jpg,AFSA04.jpg,AFSA03.jpg,AFNE11.jpg,AFNE11.jpg,FN,3,num_4,16,num_4,0.466750379652,,,2017_Nov_13_1208,60.0032909716,MAFE4ImagesEEG,001,201927,
AFNE01.JPG,AFNE01.JPG,AFNE01.JPG,AFNE01.JPG,AFNE01.JPG,AFNE01.JPG,,,,,0,8,8,2,,,,,,,,,,,,,,,,,,,AFSA03.jpg,AFNE01.jpg,AFSA17.jpg,AFNE12.jpg,AFSA03.jpg,FS,4,num_8,16,num_8,0.633523371536,,,2017_Nov_13_1208,60.0032909716,MAFE4ImagesEEG,001,201927,
AFNE01.JPG,AFNE01.JPG,AFNE01.JPG,AFNE01.JPG,AFNE01.JPG,AFNE01.JPG,,,,,0,9,9,6,,,,,,,,,,,,,,,,,,,AFNE08.jpg,AFNE18.jpg,AFSA06.jpg,AFSA14.jpg,AFNE08.jpg,FN,3,num_8,32,num_2,0.550062464084,,,2017_Nov_13_1208,60.0032909716,MAFE4ImagesEEG,001,201927,
AFNE01.JPG,AFNE01.JPG,AFNE01.JPG,AFNE01.JPG,AFNE01.JPG,AFNE01.JPG,,,,,1,0,10,6,,,,,,,,,,,,,,,,,,,AFSA07.jpg,AFSA18.jpg,AFNE05.jpg,AFNE19.jpg,AFSA07.jpg,FS,4,num_8,32,num_6,0.61679648608,,,2017_Nov_13_1208,60.0032909716,MAFE4ImagesEEG,001,201927,
AFNE01.JPG,AFNE01.JPG,AFNE01.JPG,AFNE01.JPG,AFNE01.JPG,AFNE01.JPG,,,,,1,1,11,2,,,,,,,,,,,,,,,,,,,AFSA09.jpg,AFNE09.jpg,AFSA18.jpg,AFNE13.jpg,AFSA18.jpg,FS,4,num_2,16,num_2,0.733331729658,,,2017_Nov_13_1208,60.0032909716,MAFE4ImagesEEG,001,201927,
AFNE01.JPG,AFNE01.JPG,AFNE01.JPG,AFNE01.JPG,AFNE01.JPG,AFNE01.JPG,,,,,1,2,12,7,,,,,,,,,,,,,,,,,,,AFSA07.jpg,AFNE09.jpg,AFNE19.jpg,AFSA02.jpg,AFNE19.jpg,FN,3,num_2,32,num_8,0.616848766338,,,2017_Nov_13_1208,60.0032909716,MAFE4ImagesEEG,001,201927,
AFNE01.JPG,AFNE01.JPG,AFNE01.JPG,AFNE01.JPG,AFNE01.JPG,AFNE01.JPG,,,,,1,3,13,8,,,,,,,,,,,,,,,,,,,AFSA13.jpg,AFNE16.jpg,AFSA03.jpg,AFNE13.jpg,AFSA03.jpg,FS,4,num_2,32,num_4,0.650099188555,,,2017_Nov_13_1208,60.0032909716,MAFE4ImagesEEG,001,201927,
AFNE01.JPG,AFNE01.JPG,AFNE01.JPG,AFNE01.JPG,AFNE01.JPG,AFNE01.JPG,,,,,1,4,14,5,,,,,,,,,,,,,,,,,,,AFNE13.jpg,AFNE08.jpg,AFSA11.jpg,AFSA02.jpg,AFSA11.jpg,FS,4,num_2,16,num_2,0.600443262141,,,2017_Nov_13_1208,60.0032909716,MAFE4ImagesEEG,001,201927,
AFNE01.JPG,AFNE01.JPG,AFNE01.JPG,AFNE01.JPG,AFNE01.JPG,AFNE01.JPG,,,,,1,5,15,4,,,,,,,,,,,,,,,,,,,AFNE13.jpg,AFSA11.jpg,AFSA08.jpg,AFNE04.jpg,AFNE04.jpg,FN,3,num_4,32,num_8,0.61676986469,,,2017_Nov_13_1208,60.0032909716,MAFE4ImagesEEG,001,201927,
AFNE01.JPG,AFNE01.JPG,AFNE01.JPG,AFNE01.JPG,AFNE01.JPG,AFNE01.JPG,,,,,1,6,16,1,,,,,,,,,,,,,,,,,,,AFNE07.jpg,AFSA18.jpg,AFSA12.jpg,AFNE20.jpg,AFNE20.jpg,FN,3,num_4,16,num_4,0.51683064457,,,2017_Nov_13_1208,60.0032909716,MAFE4ImagesEEG,001,201927,
AFNE01.JPG,AFNE01.JPG,AFNE01.JPG,AFNE01.JPG,AFNE01.JPG,AFNE01.JPG,,,,,1,7,17,9,,,,,,,,,,,,,,,,,,,AFSA12.jpg,AFSA20.jpg,AFNE17.jpg,AFNE14.jpg,AFSA12.jpg,FS,4,num_8,16,num_8,0.550201985519,,,2017_Nov_13_1208,60.0032909716,MAFE4ImagesEEG,001,201927,
AFNE01.JPG,AFNE01.JPG,AFNE01.JPG,AFNE01.JPG,AFNE01.JPG,AFNE01.JPG,,,,,1,8,18,0,,,,,,,,,,,,,,,,,,,AFNE10.jpg,AFSA19.jpg,AFNE09.jpg,AFSA15.jpg,AFSA19.jpg,FS,4,num_6,16,num_6,0.450157884043,,,2017_Nov_13_1208,60.0032909716,MAFE4ImagesEEG,001,201927,
AFNE01.JPG,AFNE01.JPG,AFNE01.JPG,AFNE01.JPG,AFNE01.JPG,AFNE01.JPG,,,,,1,9,19,3,,,,,,,,,,,,,,,,,,,AFNE02.jpg,AFSA01.jpg,AFSA03.jpg,AFNE06.jpg,AFNE02.jpg,FN,3,num_8,32,num_4,0.616800975986,,,2017_Nov_13_1208,60.0032909716,MAFE4ImagesEEG,001,201927,
AFNE01.JPG,AFNE01.JPG,AFNE01.JPG,AFNE01.JPG,AFNE01.JPG,AFNE01.JPG,,,,,2,0,20,6,,,,,,,,,,,,,,,,,,,AFNE07.jpg,AFSA06.jpg,AFSA20.jpg,AFNE09.jpg,AFNE07.jpg,FN,3,num_8,16,num_8,0.50042000832,,,2017_Nov_13_1208,60.0032909716,MAFE4ImagesEEG,001,201927,
AFNE01.JPG,AFNE01.JPG,AFNE01.JPG,AFNE01.JPG,AFNE01.JPG,AFNE01.JPG,,,,,2,1,21,3,,,,,,,,,,,,,,,,,,,AFNE14.jpg,AFSA03.jpg,AFSA04.jpg,AFNE20.jpg,AFNE14.jpg,FN,3,num_8,16,num_8,0.550123404246,,,2017_Nov_13_1208,60.0032909716,MAFE4ImagesEEG,001,201927,
AFNE01.JPG,AFNE01.JPG,AFNE01.JPG,AFNE01.JPG,AFNE01.JPG,AFNE01.JPG,,,,,2,2,22,1,,,,,,,,,,,,,,,,,,,AFNE09.jpg,AFSA13.jpg,AFSA03.jpg,AFNE01.jpg,AFNE01.jpg,FN,3,num_4,16,num_4,0.633505089674,,,2017_Nov_13_1208,60.0032909716,MAFE4ImagesEEG,001,201927,
AFNE01.JPG,AFNE01.JPG,AFNE01.JPG,AFNE01.JPG,AFNE01.JPG,AFNE01.JPG,,,,,2,3,23,0,,,,,,,,,,,,,,,,,,,AFSA16.jpg,AFNE19.jpg,AFSA01.jpg,AFNE17.jpg,AFNE17.jpg,FN,3,num_4,32,num_8,0.700079383329,,,2017_Nov_13_1208,60.0032909716,MAFE4ImagesEEG,001,201927,
AFNE01.JPG,AFNE01.JPG,AFNE01.JPG,AFNE01.JPG,AFNE01.JPG,AFNE01.JPG,,,,,2,4,24,7,,,,,,,,,,,,,,,,,,,AFSA06.jpg,AFSA07.jpg,AFNE11.jpg,AFNE16.jpg,AFNE11.jpg,FN,3,num_2,16,num_2,0.466814848129,,,2017_Nov_13_1208,60.0032909716,MAFE4ImagesEEG,001,201927,
AFNE01.JPG,AFNE01.JPG,AFNE01.JPG,AFNE01.JPG,AFNE01.JPG,AFNE01.JPG,,,,,2,5,25,2,,,,,,,,,,,,,,,,,,,AFNE14.jpg,AFSA19.jpg,AFSA15.jpg,AFNE17.jpg,AFNE14.jpg,FN,3,num_8,32,num_6,0.583523612004,,,2017_Nov_13_1208,60.0032909716,MAFE4ImagesEEG,001,201927,
AFNE01.JPG,AFNE01.JPG,AFNE01.JPG,AFNE01.JPG,AFNE01.JPG,AFNE01.JPG,,,,,2,6,26,4,,,,,,,,,,,,,,,,,,,AFSA14.jpg,AFNE18.jpg,AFSA17.jpg,AFNE12.jpg,AFNE12.jpg,FN,3,num_4,16,num_4,0.400177048054,,,2017_Nov_13_1208,60.0032909716,MAFE4ImagesEEG,001,201927,
AFNE01.JPG,AFNE01.JPG,AFNE01.JPG,AFNE01.JPG,AFNE01.JPG,AFNE01.JPG,,,,,2,7,27,5,,,,,,,,,,,,,,,,,,,AFNE11.jpg,AFSA11.jpg,AFSA02.jpg,AFNE16.jpg,AFNE16.jpg,FN,3,num_4,32,num_8,0.550400203094,,,2017_Nov_13_1208,60.0032909716,MAFE4ImagesEEG,001,201927,
AFNE01.JPG,AFNE01.JPG,AFNE01.JPG,AFNE01.JPG,AFNE01.JPG,AFNE01.JPG,,,,,2,8,28,9,,,,,,,,,,,,,,,,,,,AFSA20.jpg,AFSA11.jpg,AFNE05.jpg,AFNE18.jpg,AFSA11.jpg,FS,4,num_6,32,num_2,0.450179052539,,,2017_Nov_13_1208,60.0032909716,MAFE4ImagesEEG,001,201927,
AFNE01.JPG,AFNE01.JPG,AFNE01.JPG,AFNE01.JPG,AFNE01.JPG,AFNE01.JPG,,,,,2,9,29,8,,,,,,,,,,,,,,,,,,,AFNE18.jpg,AFSA16.jpg,AFSA08.jpg,AFNE15.jpg,AFNE18.jpg,FN,3,num_8,32,num_4,0.816762167029,,,2017_Nov_13_1208,60.0032909716,MAFE4ImagesEEG,001,201927,
AFNE01.JPG,AFNE01.JPG,AFNE01.JPG,AFNE01.JPG,AFNE01.JPG,AFNE01.JPG,,,,,3,0,30,4,,,,,,,,,,,,,,,,,,,AFNE13.jpg,AFNE15.jpg,AFSA09.jpg,AFSA15.jpg,AFNE13.jpg,FN,3,num_8,16,num_8,0.566772029735,,,2017_Nov_13_1208,60.0032909716,MAFE4ImagesEEG,001,201927,
AFNE01.JPG,AFNE01.JPG,AFNE01.JPG,AFNE01.JPG,AFNE01.JPG,AFNE01.JPG,,,,,3,1,31,9,,,,,,,,,,,,,,,,,,,AFNE14.jpg,AFSA03.jpg,AFNE04.jpg,AFSA15.jpg,AFSA03.jpg,FS,4,num_6,16,num_6,0.533520645462,,,2017_Nov_13_1208,60.0032909716,MAFE4ImagesEEG,001,201927,
AFNE01.JPG,AFNE01.JPG,AFNE01.JPG,AFNE01.JPG,AFNE01.JPG,AFNE01.JPG,,,,,3,2,32,8,,,,,,,,,,,,,,,,,,,AFSA08.jpg,AFNE04.jpg,AFSA15.jpg,AFNE13.jpg,AFNE13.jpg,FN,3,num_4,32,num_8,0.616808032617,,,2017_Nov_13_1208,60.0032909716,MAFE4ImagesEEG,001,201927,
AFNE01.JPG,AFNE01.JPG,AFNE01.JPG,AFNE01.JPG,AFNE01.JPG,AFNE01.JPG,,,,,3,3,33,3,,,,,,,,,,,,,,,,,,,AFSA19.jpg,AFNE10.jpg,AFNE20.jpg,AFSA16.jpg,AFNE10.jpg,FN,3,num_6,16,num_6,0.500180094969,,,2017_Nov_13_1208,60.0032909716,MAFE4ImagesEEG,001,201927,
AFNE01.JPG,AFNE01.JPG,AFNE01.JPG,AFNE01.JPG,AFNE01.JPG,AFNE01.JPG,,,,,3,4,34,1,,,,,,,,,,,,,,,,,,,AFNE08.jpg,AFNE09.jpg,AFSA13.jpg,AFSA19.jpg,AFSA19.jpg,FS,4,num_4,32,num_8,0.683455134276,,,2017_Nov_13_1208,60.0032909716,MAFE4ImagesEEG,001,201927,
AFNE01.JPG,AFNE01.JPG,AFNE01.JPG,AFNE01.JPG,AFNE01.JPG,AFNE01.JPG,,,,,3,5,35,6,,,,,,,,,,,,,,,,,,,AFSA05.jpg,AFSA16.jpg,AFNE04.jpg,AFNE20.jpg,AFSA16.jpg,FS,4,num_6,32,num_8,0.483485925011,,,2017_Nov_13_1208,60.0032909716,MAFE4ImagesEEG,001,201927,
AFNE01.JPG,AFNE01.JPG,AFNE01.JPG,AFNE01.JPG,AFNE01.JPG,AFNE01.JPG,,,,,3,6,36,5,,,,,,,,,,,,,,,,,,,AFSA03.jpg,AFNE05.jpg,AFSA09.jpg,AFNE18.jpg,AFSA03.jpg,FS,4,num_8,32,num_2,0.783538045362,,,2017_Nov_13_1208,60.0032909716,MAFE4ImagesEEG,001,201927,
AFNE01.JPG,AFNE01.JPG,AFNE01.JPG,AFNE01.JPG,AFNE01.JPG,AFNE01.JPG,,,,,3,7,37,0,,,,,,,,,,,,,,,,,,,AFSA04.jpg,AFNE08.jpg,AFSA17.jpg,AFNE06.jpg,AFSA17.jpg,FS,4,num_2,16,num_2,0.633512466215,,,2017_Nov_13_1208,60.0032909716,MAFE4ImagesEEG,001,201927,
AFNE01.JPG,AFNE01.JPG,AFNE01.JPG,AFNE01.JPG,AFNE01.JPG,AFNE01.JPG,,,,,3,8,38,2,,,,,,,,,,,,,,,,,,,AFSA07.jpg,AFNE07.jpg,AFNE16.jpg,AFSA17.jpg,AFSA07.jpg,FS,4,num_8,16,num_8,0.616893990897,,,2017_Nov_13_1208,60.0032909716,MAFE4ImagesEEG,001,201927,
AFNE01.JPG,AFNE01.JPG,AFNE01.JPG,AFNE01.JPG,AFNE01.JPG,AFNE01.JPG,,,,,3,9,39,7,,,,,,,,,,,,,,,,,,,AFNE09.jpg,AFSA07.jpg,AFSA04.jpg,AFNE08.jpg,AFSA04.jpg,FS,4,num_2,16,num_2,0.416799372528,,,2017_Nov_13_1208,60.0032909716,MAFE4ImagesEEG,001,201927,
AFNE01.JPG,AFNE01.JPG,AFNE01.JPG,AFNE01.JPG,AFNE01.JPG,AFNE01.JPG,,,,,4,0,40,4,,,,,,,,,,,,,,,,,,,AFSA15.jpg,AFNE02.jpg,AFNE20.jpg,AFSA01.jpg,AFSA01.jpg,FS,4,num_4,16,num_4,0.450004249811,,,2017_Nov_13_1208,60.0032909716,MAFE4ImagesEEG,001,201927,
AFNE01.JPG,AFNE01.JPG,AFNE01.JPG,AFNE01.JPG,AFNE01.JPG,AFNE01.JPG,,,,,4,1,41,8,,,,,,,,,,,,,,,,,,,AFNE11.jpg,AFSA01.jpg,AFNE08.jpg,AFSA14.jpg,AFNE11.jpg,FN,3,num_8,16,num_8,0.566820460837,,,2017_Nov_13_1208,60.0032909716,MAFE4ImagesEEG,001,201927,
AFNE01.JPG,AFNE01.JPG,AFNE01.JPG,AFNE01.JPG,AFNE01.JPG,AFNE01.JPG,,,,,4,2,42,9,,,,,,,,,,,,,,,,,,,AFNE06.jpg,AFNE04.jpg,AFSA17.jpg,AFSA01.jpg,AFNE04.jpg,FN,3,num_6,16,num_6,1.03343805484,,,2017_Nov_13_1208,60.0032909716,MAFE4ImagesEEG,001,201927,
AFNE01.JPG,AFNE01.JPG,AFNE01.JPG,AFNE01.JPG,AFNE01.JPG,AFNE01.JPG,,,,,4,3,43,6,,,,,,,,,,,,,,,,,,,AFNE03.jpg,AFNE04.jpg,AFSA06.jpg,AFSA07.jpg,AFSA06.jpg,FS,4,num_2,16,num_2,0.450130621437,,,2017_Nov_13_1208,60.0032909716,MAFE4ImagesEEG,001,201927,
AFNE01.JPG,AFNE01.JPG,AFNE01.JPG,AFNE01.JPG,AFNE01.JPG,AFNE01.JPG,,,,,4,4,44,7,,,,,,,,,,,,,,,,,,,AFSA13.jpg,AFNE01.jpg,AFNE05.jpg,AFSA15.jpg,AFSA13.jpg,FS,4,num_8,16,num_8,0.566793519072,,,2017_Nov_13_1208,60.0032909716,MAFE4ImagesEEG,001,201927,
AFNE01.JPG,AFNE01.JPG,AFNE01.JPG,AFNE01.JPG,AFNE01.JPG,AFNE01.JPG,,,,,4,5,45,1,,,,,,,,,,,,,,,,,,,AFNE01.jpg,AFNE05.jpg,AFSA12.jpg,AFSA02.jpg,AFSA02.jpg,FS,4,num_4,16,num_4,0.633497391362,,,2017_Nov_13_1208,60.0032909716,MAFE4ImagesEEG,001,201927,
AFNE01.JPG,AFNE01.JPG,AFNE01.JPG,AFNE01.JPG,AFNE01.JPG,AFNE01.JPG,,,,,4,6,46,2,,,,,,,,,,,,,,,,,,,AFNE06.jpg,AFSA12.jpg,AFNE16.jpg,AFSA05.jpg,AFSA12.jpg,FS,4,num_6,16,num_6,0.483491057064,,,2017_Nov_13_1208,60.0032909716,MAFE4ImagesEEG,001,201927,
AFNE01.JPG,AFNE01.JPG,AFNE01.JPG,AFNE01.JPG,AFNE01.JPG,AFNE01.JPG,,,,,4,7,47,3,,,,,,,,,,,,,,,,,,,AFNE04.jpg,AFSA19.jpg,AFNE16.jpg,AFSA17.jpg,AFSA17.jpg,FS,4,num_4,16,num_4,0.633493863512,,,2017_Nov_13_1208,60.0032909716,MAFE4ImagesEEG,001,201927,
AFNE01.JPG,AFNE01.JPG,AFNE01.JPG,AFNE01.JPG,AFNE01.JPG,AFNE01.JPG,,,,,4,8,48,5,,,,,,,,,,,,,,,,,,,AFSA09.jpg,AFNE11.jpg,AFSA13.jpg,AFNE05.jpg,AFNE05.jpg,FN,3,num_4,32,num_8,0.566772670951,,,2017_Nov_13_1208,60.0032909716,MAFE4ImagesEEG,001,201927,
AFNE01.JPG,AFNE01.JPG,AFNE01.JPG,AFNE01.JPG,AFNE01.JPG,AFNE01.JPG,,,,,4,9,49,0,,,,,,,,,,,,,,,,,,,AFSA03.jpg,AFSA08.jpg,AFNE06.jpg,AFNE13.jpg,AFNE06.jpg,FN,3,num_2,16,num_2,0.483480151743,,,2017_Nov_13_1208,60.0032909716,MAFE4ImagesEEG,001,201927,
AFNE01.JPG,AFNE01.JPG,AFNE01.JPG,AFNE01.JPG,AFNE01.JPG,AFNE01.JPG,,,,,5,0,50,8,,,,,,,,,,,,,,,,,,,AFNE10.jpg,AFSA08.jpg,AFSA09.jpg,AFNE12.jpg,AFSA09.jpg,FS,4,num_2,32,num_4,0.533515513409,,,2017_Nov_13_1208,60.0032909716,MAFE4ImagesEEG,001,201927,
AFNE01.JPG,AFNE01.JPG,AFNE01.JPG,AFNE01.JPG,AFNE01.JPG,AFNE01.JPG,,,,,5,1,51,0,,,,,,,,,,,,,,,,,,,AFSA04.jpg,AFSA02.jpg,AFNE14.jpg,AFNE11.jpg,AFNE11.jpg,FN,3,num_4,32,num_8,0.55017600581,,,2017_Nov_13_1208,60.0032909716,MAFE4ImagesEEG,001,201927,
AFNE01.JPG,AFNE01.JPG,AFNE01.JPG,AFNE01.JPG,AFNE01.JPG,AFNE01.JPG,,,,,5,2,52,4,,,,,,,,,,,,,,,,,,,AFNE07.jpg,AFSA09.jpg,AFSA07.jpg,AFNE04.jpg,AFSA09.jpg,FS,4,num_6,16,num_6,0.533502042294,,,2017_Nov_13_1208,60.0032909716,MAFE4ImagesEEG,001,201927,
AFNE01.JPG,AFNE01.JPG,AFNE01.JPG,AFNE01.JPG,AFNE01.JPG,AFNE01.JPG,,,,,5,3,53,7,,,,,,,,,,,,,,,,,,,AFNE15.jpg,AFSA10.jpg,AFSA12.jpg,AFNE11.jpg,AFNE11.jpg,FN,3,num_4,16,num_4,0.466763209552,,,2017_Nov_13_1208,60.0032909716,MAFE4ImagesEEG,001,201927,
AFNE01.JPG,AFNE01.JPG,AFNE01.JPG,AFNE01.JPG,AFNE01.JPG,AFNE01.JPG,,,,,5,4,54,5,,,,,,,,,,,,,,,,,,,AFNE16.jpg,AFSA05.jpg,AFSA15.jpg,AFNE20.jpg,AFNE16.jpg,FN,3,num_8,16,num_8,0.566770746373,,,2017_Nov_13_1208,60.0032909716,MAFE4ImagesEEG,001,201927,
AFNE01.JPG,AFNE01.JPG,AFNE01.JPG,AFNE01.JPG,AFNE01.JPG,AFNE01.JPG,,,,,5,5,55,2,,,,,,,,,,,,,,,,,,,AFSA10.jpg,AFSA08.jpg,AFNE01.jpg,AFNE08.jpg,AFNE08.jpg,FN,3,num_4,16,num_4,0.64996960992,,,2017_Nov_13_1208,60.0032909716,MAFE4ImagesEEG,001,201927,
AFNE01.JPG,AFNE01.JPG,AFNE01.JPG,AFNE01.JPG,AFNE01.JPG,AFNE01.JPG,,,,,5,6,56,6,,,,,,,,,,,,,,,,,,,AFSA10.jpg,AFSA09.jpg,AFNE14.jpg,AFNE19.jpg,AFNE14.jpg,FN,3,num_2,32,num_8,0.733521286398,,,2017_Nov_13_1208,60.0032909716,MAFE4ImagesEEG,001,201927,
AFNE01.JPG,AFNE01.JPG,AFNE01.JPG,AFNE01.JPG,AFNE01.JPG,AFNE01.JPG,,,,,5,7,57,9,,,,,,,,,,,,,,,,,,,AFNE18.jpg,AFSA08.jpg,AFSA19.jpg,AFNE17.jpg,AFNE18.jpg,FN,3,num_8,32,num_4,0.58346427558,,,2017_Nov_13_1208,60.0032909716,MAFE4ImagesEEG,001,201927,
AFNE01.JPG,AFNE01.JPG,AFNE01.JPG,AFNE01.JPG,AFNE01.JPG,AFNE01.JPG,,,,,5,8,58,1,,,,,,,,,,,,,,,,,,,AFNE07.jpg,AFSA18.jpg,AFSA08.jpg,AFNE19.jpg,AFNE19.jpg,FN,3,num_4,32,num_8,0.516849247739,,,2017_Nov_13_1208,60.0032909716,MAFE4ImagesEEG,001,201927,
AFNE01.JPG,AFNE01.JPG,AFNE01.JPG,AFNE01.JPG,AFNE01.JPG,AFNE01.JPG,,,,,5,9,59,3,,,,,,,,,,,,,,,,,,,AFNE13.jpg,AFSA02.jpg,AFSA15.jpg,AFNE16.jpg,AFNE13.jpg,FN,3,num_8,16,num_8,0.66681164084,,,2017_Nov_13_1208,60.0032909716,MAFE4ImagesEEG,001,201927,
,,,,,,,,,,,,,,,,,,,,,,,,,,,,,,,,,,,,,,,,,,,space,24.5315557951,2017_Nov_13_1208,60.0032909716,MAFE4ImagesEEG,001,201927,
AFNE01.JPG,AFNE01.JPG,AFNE01.JPG,AFNE01.JPG,AFNE01.JPG,AFNE01.JPG,,,,,,,,,0,0,0,7,,,,,,,,,,,,,,,AMSA11.jpg,AMSA10.jpg,AMNE09.jpg,AMNE20.jpg,AMNE09.jpg,MN,1,num_2,32,num_8,0.600138559472,,,2017_Nov_13_1208,60.0032909716,MAFE4ImagesEEG,001,201927,
AFNE01.JPG,AFNE01.JPG,AFNE01.JPG,AFNE01.JPG,AFNE01.JPG,AFNE01.JPG,,,,,,,,,0,1,1,5,,,,,,,,,,,,,,,AMSA02.jpg,AMNE08.jpg,AMNE15.jpg,AMSA06.jpg,AMSA02.jpg,MS,2,num_8,16,num_8,0.450160770677,,,2017_Nov_13_1208,60.0032909716,MAFE4ImagesEEG,001,201927,
AFNE01.JPG,AFNE01.JPG,AFNE01.JPG,AFNE01.JPG,AFNE01.JPG,AFNE01.JPG,,,,,,,,,0,2,2,9,,,,,,,,,,,,,,,AMSA17.jpg,AMSA15.jpg,AMNE16.jpg,AMNE15.jpg,AMNE16.jpg,MN,1,num_2,32,num_4,0.516803381965,,,2017_Nov_13_1208,60.0032909716,MAFE4ImagesEEG,001,201927,
AFNE01.JPG,AFNE01.JPG,AFNE01.JPG,AFNE01.JPG,AFNE01.JPG,AFNE01.JPG,,,,,,,,,0,3,3,3,,,,,,,,,,,,,,,AMNE15.jpg,AMNE20.jpg,AMSA12.jpg,AMSA10.jpg,AMSA12.jpg,MS,2,num_2,16,num_2,0.716754308436,,,2017_Nov_13_1208,60.0032909716,MAFE4ImagesEEG,001,201927,
AFNE01.JPG,AFNE01.JPG,AFNE01.JPG,AFNE01.JPG,AFNE01.JPG,AFNE01.JPG,,,,,,,,,0,4,4,6,,,,,,,,,,,,,,,AMSA10.jpg,AMNE07.jpg,AMSA05.jpg,AMNE10.jpg,AMSA10.jpg,MS,2,num_8,16,num_8,0.466782774311,,,2017_Nov_13_1208,60.0032909716,MAFE4ImagesEEG,001,201927,
AFNE01.JPG,AFNE01.JPG,AFNE01.JPG,AFNE01.JPG,AFNE01.JPG,AFNE01.JPG,,,,,,,,,0,5,5,4,,,,,,,,,,,,,,,AMSA11.jpg,AMNE07.jpg,AMNE18.jpg,AMSA10.jpg,AMSA10.jpg,MS,2,num_4,32,num_6,0.450163978152,,,2017_Nov_13_1208,60.0032909716,MAFE4ImagesEEG,001,201927,
AFNE01.JPG,AFNE01.JPG,AFNE01.JPG,AFNE01.JPG,AFNE01.JPG,AFNE01.JPG,,,,,,,,,0,6,6,1,,,,,,,,,,,,,,,AMNE19.jpg,AMSA11.jpg,AMSA03.jpg,AMNE02.jpg,AMSA03.jpg,MS,2,num_2,16,num_2,0.833508296404,,,2017_Nov_13_1208,60.0032909716,MAFE4ImagesEEG,001,201927,
AFNE01.JPG,AFNE01.JPG,AFNE01.JPG,AFNE01.JPG,AFNE01.JPG,AFNE01.JPG,,,,,,,,,0,7,7,2,,,,,,,,,,,,,,,AMNE17.jpg,AMNE09.jpg,AMSA11.jpg,AMSA13.jpg,AMSA13.jpg,MS,2,num_4,16,num_4,0.500328918453,,,2017_Nov_13_1208,60.0032909716,MAFE4ImagesEEG,001,201927,
AFNE01.JPG,AFNE01.JPG,AFNE01.JPG,AFNE01.JPG,AFNE01.JPG,AFNE01.JPG,,,,,,,,,0,8,8,0,,,,,,,,,,,,,,,AMSA04.jpg,AMSA07.jpg,AMNE17.jpg,AMNE12.jpg,AMSA07.jpg,MS,2,num_6,16,num_6,0.766932399478,,,2017_Nov_13_1208,60.0032909716,MAFE4ImagesEEG,001,201927,
AFNE01.JPG,AFNE01.JPG,AFNE01.JPG,AFNE01.JPG,AFNE01.JPG,AFNE01.JPG,,,,,,,,,0,9,9,8,,,,,,,,,,,,,,,AMNE02.jpg,AMNE20.jpg,AMSA17.jpg,AMSA04.jpg,AMSA17.jpg,MS,2,num_2,16,num_2,0.683558412362,,,2017_Nov_13_1208,60.0032909716,MAFE4ImagesEEG,001,201927,
AFNE01.JPG,AFNE01.JPG,AFNE01.JPG,AFNE01.JPG,AFNE01.JPG,AFNE01.JPG,,,,,,,,,1,0,10,8,,,,,,,,,,,,,,,AMSA17.jpg,AMNE16.jpg,AMNE20.jpg,AMSA04.jpg,AMSA04.jpg,MS,2,num_4,16,num_4,0.500123324338,,,2017_Nov_13_1208,60.0032909716,MAFE4ImagesEEG,001,201927,
AFNE01.JPG,AFNE01.JPG,AFNE01.JPG,AFNE01.JPG,AFNE01.JPG,AFNE01.JPG,,,,,,,,,1,1,11,3,,,,,,,,,,,,,,,AMNE18.jpg,AMSA10.jpg,AMSA18.jpg,AMNE12.jpg,AMSA10.jpg,MS,2,num_6,32,num_8,0.600167425815,,,2017_Nov_13_1208,60.0032909716,MAFE4ImagesEEG,001,201927,
AFNE01.JPG,AFNE01.JPG,AFNE01.JPG,AFNE01.JPG,AFNE01.JPG,AFNE01.JPG,,,,,,,,,1,2,12,5,,,,,,,,,,,,,,,AMSA11.jpg,AMNE15.jpg,AMNE06.jpg,AMSA15.jpg,AMSA11.jpg,MS,2,num_8,16,num_8,0.600143049844,,,2017_Nov_13_1208,60.0032909716,MAFE4ImagesEEG,001,201927,
AFNE01.JPG,AFNE01.JPG,AFNE01.JPG,AFNE01.JPG,AFNE01.JPG,AFNE01.JPG,,,,,,,,,1,3,13,2,,,,,,,,,,,,,,,AMSA20.jpg,AMNE14.jpg,AMNE19.jpg,AMSA03.jpg,AMSA03.jpg,MS,2,num_4,16,num_4,0.80011001369,,,2017_Nov_13_1208,60.0032909716,MAFE4ImagesEEG,001,201927,
AFNE01.JPG,AFNE01.JPG,AFNE01.JPG,AFNE01.JPG,AFNE01.JPG,AFNE01.JPG,,,,,,,,,1,4,14,7,,,,,,,,,,,,,,,AMNE13.jpg,AMNE10.jpg,AMSA03.jpg,AMSA01.jpg,AMNE10.jpg,MN,1,num_6,16,num_6,0.633447035681,,,2017_Nov_13_1208,60.0032909716,MAFE4ImagesEEG,001,201927,
AFNE01.JPG,AFNE01.JPG,AFNE01.JPG,AFNE01.JPG,AFNE01.JPG,AFNE01.JPG,,,,,,,,,1,5,15,1,,,,,,,,,,,,,,,AMSA20.jpg,AMNE15.jpg,AMSA11.jpg,AMNE03.jpg,AMNE03.jpg,MN,1,num_4,32,num_8,0.46679528337,,,2017_Nov_13_1208,60.0032909716,MAFE4ImagesEEG,001,201927,
AFNE01.JPG,AFNE01.JPG,AFNE01.JPG,AFNE01.JPG,AFNE01.JPG,AFNE01.JPG,,,,,,,,,1,6,16,4,,,,,,,,,,,,,,,AMNE14.jpg,AMSA18.jpg,AMSA13.jpg,AMNE12.jpg,AMNE12.jpg,MN,1,num_4,16,num_4,0.633505089674,,,2017_Nov_13_1208,60.0032909716,MAFE4ImagesEEG,001,201927,
AFNE01.JPG,AFNE01.JPG,AFNE01.JPG,AFNE01.JPG,AFNE01.JPG,AFNE01.JPG,,,,,,,,,1,7,17,9,,,,,,,,,,,,,,,AMSA02.jpg,AMNE05.jpg,AMSA15.jpg,AMNE02.jpg,AMNE02.jpg,MN,1,num_4,32,num_6,0.583529385738,,,2017_Nov_13_1208,60.0032909716,MAFE4ImagesEEG,001,201927,
AFNE01.JPG,AFNE01.JPG,AFNE01.JPG,AFNE01.JPG,AFNE01.JPG,AFNE01.JPG,,,,,,,,,1,8,18,0,,,,,,,,,,,,,,,AMNE12.jpg,AMSA05.jpg,AMNE09.jpg,AMSA04.jpg,AMSA04.jpg,MS,2,num_4,16,num_4,0.61681669252,,,2017_Nov_13_1208,60.0032909716,MAFE4ImagesEEG,001,201927,
AFNE01.JPG,AFNE01.JPG,AFNE01.JPG,AFNE01.JPG,AFNE01.JPG,AFNE01.JPG,,,,,,,,,1,9,19,6,,,,,,,,,,,,,,,AMSA12.jpg,AMNE03.jpg,AMSA13.jpg,AMNE05.jpg,AMSA13.jpg,MS,2,num_2,32,num_8,0.583519762848,,,2017_Nov_13_1208,60.0032909716,MAFE4ImagesEEG,001,201927,
AFNE01.JPG,AFNE01.JPG,AFNE01.JPG,AFNE01.JPG,AFNE01.JPG,AFNE01.JPG,,,,,,,,,2,0,20,5,,,,,,,,,,,,,,,AMNE17.jpg,AMNE05.jpg,AMSA07.jpg,AMSA11.jpg,AMNE17.jpg,MN,1,num_8,32,num_4,0.516769703943,,,2017_Nov_13_1208,60.0032909716,MAFE4ImagesEEG,001,201927,
AFNE01.JPG,AFNE01.JPG,AFNE01.JPG,AFNE01.JPG,AFNE01.JPG,AFNE01.JPG,,,,,,,,,2,1,21,6,,,,,,,,,,,,,,,AMNE15.jpg,AMSA12.jpg,AMNE16.jpg,AMSA16.jpg,AMSA16.jpg,MS,2,num_4,16,num_4,0.633800811134,,,2017_Nov_13_1208,60.0032909716,MAFE4ImagesEEG,001,201927,
AFNE01.JPG,AFNE01.JPG,AFNE01.JPG,AFNE01.JPG,AFNE01.JPG,AFNE01.JPG,,,,,,,,,2,2,22,4,,,,,,,,,,,,,,,AMSA01.jpg,AMSA14.jpg,AMNE13.jpg,AMNE10.jpg,AMNE13.jpg,MN,1,num_2,16,num_2,0.966732899658,,,2017_Nov_13_1208,60.0032909716,MAFE4ImagesEEG,001,201927,
AFNE01.JPG,AFNE01.JPG,AFNE01.JPG,AFNE01.JPG,AFNE01.JPG,AFNE01.JPG,,,,,,,,,2,3,23,8,,,,,,,,,,,,,,,AMSA18.jpg,AMNE11.jpg,AMNE03.jpg,AMSA19.jpg,AMNE11.jpg,MN,1,num_6,32,num_8,0.650190599263,,,2017_Nov_13_1208,60.0032909716,MAFE4ImagesEEG,001,201927,
AFNE01.JPG,AFNE01.JPG,AFNE01.JPG,AFNE01.JPG,AFNE01.JPG,AFNE01.JPG,,,,,,,,,2,4,24,1,,,,,,,,,,,,,,,AMSA17.jpg,AMSA07.jpg,AMNE06.jpg,AMNE04.jpg,AMSA07.jpg,MS,2,num_6,32,num_8,0.6667686617,,,2017_Nov_13_1208,60.0032909716,MAFE4ImagesEEG,001,201927,
AFNE01.JPG,AFNE01.JPG,AFNE01.JPG,AFNE01.JPG,AFNE01.JPG,AFNE01.JPG,,,,,,,,,2,5,25,9,,,,,,,,,,,,,,,AMNE20.jpg,AMSA11.jpg,AMNE09.jpg,AMSA09.jpg,AMNE09.jpg,MN,1,num_2,16,num_2,0.683502924163,,,2017_Nov_13_1208,60.0032909716,MAFE4ImagesEEG,001,201927,
AFNE01.JPG,AFNE01.JPG,AFNE01.JPG,AFNE01.JPG,AFNE01.JPG,AFNE01.JPG,,,,,,,,,2,6,26,3,,,,,,,,,,,,,,,AMNE08.jpg,AMNE17.jpg,AMSA05.jpg,AMSA17.jpg,AMNE17.jpg,MN,1,num_6,32,num_4,0.583546063397,,,2017_Nov_13_1208,60.0032909716,MAFE4ImagesEEG,001,201927,
AFNE01.JPG,AFNE01.JPG,AFNE01.JPG,AFNE01.JPG,AFNE01.JPG,AFNE01.JPG,,,,,,,,,2,7,27,7,,,,,,,,,,,,,,,AMSA04.jpg,AMNE12.jpg,AMSA01.jpg,AMNE06.jpg,AMSA01.jpg,MS,2,num_2,16,num_2,0.450165261049,,,2017_Nov_13_1208,60.0032909716,MAFE4ImagesEEG,001,201927,
AFNE01.JPG,AFNE01.JPG,AFNE01.JPG,AFNE01.JPG,AFNE01.JPG,AFNE01.JPG,,,,,,,,,2,8,28,2,,,,,,,,,,,,,,,AMSA12.jpg,AMSA04.jpg,AMNE12.jpg,AMNE17.jpg,AMNE17.jpg,MN,1,num_4,32,num_8,0.766759841237,,,2017_Nov_13_1208,60.0032909716,MAFE4ImagesEEG,001,201927,
AFNE01.JPG,AFNE01.JPG,AFNE01.JPG,AFNE01.JPG,AFNE01.JPG,AFNE01.JPG,,,,,,,,,2,9,29,0,,,,,,,,,,,,,,,AMSA11.jpg,AMNE08.jpg,AMSA07.jpg,AMNE07.jpg,AMSA11.jpg,MS,2,num_8,32,num_2,0.88346411474,,,2017_Nov_13_1208,60.0032909716,MAFE4ImagesEEG,001,201927,
AFNE01.JPG,AFNE01.JPG,AFNE01.JPG,AFNE01.JPG,AFNE01.JPG,AFNE01.JPG,,,,,,,,,3,0,30,9,,,,,,,,,,,,,,,AMNE16.jpg,AMNE01.jpg,AMSA07.jpg,AMSA06.jpg,AMSA06.jpg,MS,2,num_4,16,num_4,0.63313784264,,,2017_Nov_13_1208,60.0032909716,MAFE4ImagesEEG,001,201927,
AFNE01.JPG,AFNE01.JPG,AFNE01.JPG,AFNE01.JPG,AFNE01.JPG,AFNE01.JPG,,,,,,,,,3,1,31,4,,,,,,,,,,,,,,,AMNE04.jpg,AMSA09.jpg,AMSA20.jpg,AMNE11.jpg,AMSA20.jpg,MS,2,num_2,16,num_2,0.900127493776,,,2017_Nov_13_1208,60.0032909716,MAFE4ImagesEEG,001,201927,
AFNE01.JPG,AFNE01.JPG,AFNE01.JPG,AFNE01.JPG,AFNE01.JPG,AFNE01.JPG,,,,,,,,,3,2,32,2,,,,,,,,,,,,,,,AMNE14.jpg,AMSA07.jpg,AMSA11.jpg,AMNE15.jpg,AMSA11.jpg,MS,2,num_2,16,num_2,0.683478227351,,,2017_Nov_13_1208,60.0032909716,MAFE4ImagesEEG,001,201927,
AFNE01.JPG,AFNE01.JPG,AFNE01.JPG,AFNE01.JPG,AFNE01.JPG,AFNE01.JPG,,,,,,,,,3,3,33,7,,,,,,,,,,,,,,,AMSA17.jpg,AMNE08.jpg,AMNE05.jpg,AMSA15.jpg,AMSA17.jpg,MS,2,num_8,32,num_6,0.683474699501,,,2017_Nov_13_1208,60.0032909716,MAFE4ImagesEEG,001,201927,
AFNE01.JPG,AFNE01.JPG,AFNE01.JPG,AFNE01.JPG,AFNE01.JPG,AFNE01.JPG,,,,,,,,,3,4,34,0,,,,,,,,,,,,,,,AMSA12.jpg,AMNE02.jpg,AMSA07.jpg,AMNE18.jpg,AMSA07.jpg,MS,2,num_2,16,num_2,0.485096358228,,,2017_Nov_13_1208,60.0032909716,MAFE4ImagesEEG,001,201927,
AFNE01.JPG,AFNE01.JPG,AFNE01.JPG,AFNE01.JPG,AFNE01.JPG,AFNE01.JPG,,,,,,,,,3,5,35,3,,,,,,,,,,,,,,,AMSA17.jpg,AMNE11.jpg,AMNE14.jpg,AMSA06.jpg,AMNE14.jpg,MN,1,num_2,16,num_2,0.51679664664,,,2017_Nov_13_1208,60.0032909716,MAFE4ImagesEEG,001,201927,
AFNE01.JPG,AFNE01.JPG,AFNE01.JPG,AFNE01.JPG,AFNE01.JPG,AFNE01.JPG,,,,,,,,,3,6,36,5,,,,,,,,,,,,,,,AMNE09.jpg,AMNE18.jpg,AMSA20.jpg,AMSA16.jpg,AMNE18.jpg,MN,1,num_6,32,num_8,0.6667587189,,,2017_Nov_13_1208,60.0032909716,MAFE4ImagesEEG,001,201927,
AFNE01.JPG,AFNE01.JPG,AFNE01.JPG,AFNE01.JPG,AFNE01.JPG,AFNE01.JPG,,,,,,,,,3,7,37,8,,,,,,,,,,,,,,,AMSA16.jpg,AMNE09.jpg,AMNE10.jpg,AMSA05.jpg,AMSA16.jpg,MS,2,num_8,32,num_2,0.750163496938,,,2017_Nov_13_1208,60.0032909716,MAFE4ImagesEEG,001,201927,
AFNE01.JPG,AFNE01.JPG,AFNE01.JPG,AFNE01.JPG,AFNE01.JPG,AFNE01.JPG,,,,,,,,,3,8,38,1,,,,,,,,,,,,,,,AMNE03.jpg,AMSA16.jpg,AMNE11.jpg,AMSA10.jpg,AMNE11.jpg,MN,1,num_2,32,num_6,0.583505650982,,,2017_Nov_13_1208,60.0032909716,MAFE4ImagesEEG,001,201927,
AFNE01.JPG,AFNE01.JPG,AFNE01.JPG,AFNE01.JPG,AFNE01.JPG,AFNE01.JPG,,,,,,,,,3,9,39,6,,,,,,,,,,,,,,,AMSA03.jpg,AMNE08.jpg,AMNE03.jpg,AMSA19.jpg,AMNE03.jpg,MN,1,num_2,32,num_8,0.583522329107,,,2017_Nov_13_1208,60.0032909716,MAFE4ImagesEEG,001,201927,
AFNE01.JPG,AFNE01.JPG,AFNE01.JPG,AFNE01.JPG,AFNE01.JPG,AFNE01.JPG,,,,,,,,,4,0,40,4,,,,,,,,,,,,,,,AMNE18.jpg,AMSA03.jpg,AMSA07.jpg,AMNE19.jpg,AMNE19.jpg,MN,1,num_4,32,num_2,0.516840908676,,,2017_Nov_13_1208,60.0032909716,MAFE4ImagesEEG,001,201927,
AFNE01.JPG,AFNE01.JPG,AFNE01.JPG,AFNE01.JPG,AFNE01.JPG,AFNE01.JPG,,,,,,,,,4,1,41,8,,,,,,,,,,,,,,,AMNE14.jpg,AMSA19.jpg,AMSA14.jpg,AMNE09.jpg,AMNE09.jpg,MN,1,num_4,16,num_4,0.666754228529,,,2017_Nov_13_1208,60.0032909716,MAFE4ImagesEEG,001,201927,
AFNE01.JPG,AFNE01.JPG,AFNE01.JPG,AFNE01.JPG,AFNE01.JPG,AFNE01.JPG,,,,,,,,,4,2,42,6,,,,,,,,,,,,,,,AMNE13.jpg,AMSA09.jpg,AMSA02.jpg,AMNE18.jpg,AMNE13.jpg,MN,1,num_8,32,num_6,0.632986774202,,,2017_Nov_13_1208,60.0032909716,MAFE4ImagesEEG,001,201927,
AFNE01.JPG,AFNE01.JPG,AFNE01.JPG,AFNE01.JPG,AFNE01.JPG,AFNE01.JPG,,,,,,,,,4,3,43,7,,,,,,,,,,,,,,,AMSA05.jpg,AMNE11.jpg,AMNE15.jpg,AMSA19.jpg,AMSA19.jpg,MS,2,num_4,32,num_6,0.583494745661,,,2017_Nov_13_1208,60.0032909716,MAFE4ImagesEEG,001,201927,
AFNE01.JPG,AFNE01.JPG,AFNE01.JPG,AFNE01.JPG,AFNE01.JPG,AFNE01.JPG,,,,,,,,,4,4,44,9,,,,,,,,,,,,,,,AMNE17.jpg,AMNE13.jpg,AMSA13.jpg,AMSA15.jpg,AMNE17.jpg,MN,1,num_8,16,num_8,0.583522970788,,,2017_Nov_13_1208,60.0032909716,MAFE4ImagesEEG,001,201927,
AFNE01.JPG,AFNE01.JPG,AFNE01.JPG,AFNE01.JPG,AFNE01.JPG,AFNE01.JPG,,,,,,,,,4,5,45,2,,,,,,,,,,,,,,,AMSA11.jpg,AMNE15.jpg,AMSA12.jpg,AMNE04.jpg,AMSA12.jpg,MS,2,num_2,16,num_2,0.566820461303,,,2017_Nov_13_1208,60.0032909716,MAFE4ImagesEEG,001,201927,
AFNE01.JPG,AFNE01.JPG,AFNE01.JPG,AFNE01.JPG,AFNE01.JPG,AFNE01.JPG,,,,,,,,,4,6,46,0,,,,,,,,,,,,,,,AMSA12.jpg,AMNE12.jpg,AMSA01.jpg,AMNE13.jpg,AMSA01.jpg,MS,2,num_2,16,num_2,0.450141846668,,,2017_Nov_13_1208,60.0032909716,MAFE4ImagesEEG,001,201927,
AFNE01.JPG,AFNE01.JPG,AFNE01.JPG,AFNE01.JPG,AFNE01.JPG,AFNE01.JPG,,,,,,,,,4,7,47,3,,,,,,,,,,,,,,,AMNE14.jpg,AMSA07.jpg,AMSA05.jpg,AMNE13.jpg,AMSA07.jpg,MS,2,num_6,16,num_6,0.683472133707,,,2017_Nov_13_1208,60.0032909716,MAFE4ImagesEEG,001,201927,
AFNE01.JPG,AFNE01.JPG,AFNE01.JPG,AFNE01.JPG,AFNE01.JPG,AFNE01.JPG,,,,,,,,,4,8,48,1,,,,,,,,,,,,,,,AMSA19.jpg,AMNE17.jpg,AMNE05.jpg,AMSA07.jpg,AMNE05.jpg,MN,1,num_2,32,num_4,0.533469647635,,,2017_Nov_13_1208,60.0032909716,MAFE4ImagesEEG,001,201927,
AFNE01.JPG,AFNE01.JPG,AFNE01.JPG,AFNE01.JPG,AFNE01.JPG,AFNE01.JPG,,,,,,,,,4,9,49,5,,,,,,,,,,,,,,,AMSA02.jpg,AMNE08.jpg,AMSA19.jpg,AMNE14.jpg,AMSA19.jpg,MS,2,num_2,16,num_2,0.600139521528,,,2017_Nov_13_1208,60.0032909716,MAFE4ImagesEEG,001,201927,
AFNE01.JPG,AFNE01.JPG,AFNE01.JPG,AFNE01.JPG,AFNE01.JPG,AFNE01.JPG,,,,,,,,,5,0,50,0,,,,,,,,,,,,,,,AMNE10.jpg,AMSA10.jpg,AMSA01.jpg,AMNE07.jpg,AMNE10.jpg,MN,1,num_8,16,num_8,0.566806028131,,,2017_Nov_13_1208,60.0032909716,MAFE4ImagesEEG,001,201927,
AFNE01.JPG,AFNE01.JPG,AFNE01.JPG,AFNE01.JPG,AFNE01.JPG,AFNE01.JPG,,,,,,,,,5,1,51,2,,,,,,,,,,,,,,,AMNE13.jpg,AMNE09.jpg,AMSA16.jpg,AMSA13.jpg,AMNE09.jpg,MN,1,num_6,16,num_6,0.5668345741,,,2017_Nov_13_1208,60.0032909716,MAFE4ImagesEEG,001,201927,
AFNE01.JPG,AFNE01.JPG,AFNE01.JPG,AFNE01.JPG,AFNE01.JPG,AFNE01.JPG,,,,,,,,,5,2,52,3,,,,,,,,,,,,,,,AMSA16.jpg,AMNE02.jpg,AMSA07.jpg,AMNE08.jpg,AMNE02.jpg,MN,1,num_6,16,num_6,0.550128536299,,,2017_Nov_13_1208,60.0032909716,MAFE4ImagesEEG,001,201927,
AFNE01.JPG,AFNE01.JPG,AFNE01.JPG,AFNE01.JPG,AFNE01.JPG,AFNE01.JPG,,,,,,,,,5,3,53,6,,,,,,,,,,,,,,,AMSA08.jpg,AMNE06.jpg,AMSA15.jpg,AMNE08.jpg,AMNE06.jpg,MN,1,num_6,32,num_8,0.616867369041,,,2017_Nov_13_1208,60.0032909716,MAFE4ImagesEEG,001,201927,
AFNE01.JPG,AFNE01.JPG,AFNE01.JPG,AFNE01.JPG,AFNE01.JPG,AFNE01.JPG,,,,,,,,,5,4,54,7,,,,,,,,,,,,,,,AMNE13.jpg,AMSA11.jpg,AMNE08.jpg,AMSA06.jpg,AMNE13.jpg,MN,1,num_8,32,num_4,0.600127333775,,,2017_Nov_13_1208,60.0032909716,MAFE4ImagesEEG,001,201927,
AFNE01.JPG,AFNE01.JPG,AFNE01.JPG,AFNE01.JPG,AFNE01.JPG,AFNE01.JPG,,,,,,,,,5,5,55,1,,,,,,,,,,,,,,,AMSA16.jpg,AMNE15.jpg,AMSA13.jpg,AMNE14.jpg,AMSA16.jpg,MS,2,num_8,16,num_8,0.699895599391,,,2017_Nov_13_1208,60.0032909716,MAFE4ImagesEEG,001,201927,
AFNE01.JPG,AFNE01.JPG,AFNE01.JPG,AFNE01.JPG,AFNE01.JPG,AFNE01.JPG,,,,,,,,,5,6,56,5,,,,,,,,,,,,,,,AMNE11.jpg,AMSA11.jpg,AMSA07.jpg,AMNE17.jpg,AMSA11.jpg,MS,2,num_6,16,num_6,0.600152992643,,,2017_Nov_13_1208,60.0032909716,MAFE4ImagesEEG,001,201927,
AFNE01.JPG,AFNE01.JPG,AFNE01.JPG,AFNE01.JPG,AFNE01.JPG,AFNE01.JPG,,,,,,,,,5,7,57,9,,,,,,,,,,,,,,,AMSA14.jpg,AMSA03.jpg,AMNE16.jpg,AMNE08.jpg,AMNE16.jpg,MN,1,num_2,32,num_4,0.700230451301,,,2017_Nov_13_1208,60.0032909716,MAFE4ImagesEEG,001,201927,
AFNE01.JPG,AFNE01.JPG,AFNE01.JPG,AFNE01.JPG,AFNE01.JPG,AFNE01.JPG,,,,,,,,,5,8,58,8,,,,,,,,,,,,,,,AMSA06.jpg,AMNE05.jpg,AMSA03.jpg,AMNE01.jpg,AMNE05.jpg,MN,1,num_6,16,num_6,0.650187071413,,,2017_Nov_13_1208,60.0032909716,MAFE4ImagesEEG,001,201927,
AFNE01.JPG,AFNE01.JPG,AFNE01.JPG,AFNE01.JPG,AFNE01.JPG,AFNE01.JPG,,,,,,,,,5,9,59,4,,,,,,,,,,,,,,,AMNE11.jpg,AMSA19.jpg,AMSA04.jpg,AMNE05.jpg,AMSA04.jpg,MS,2,num_2,16,num_2,0.450166864786,,,2017_Nov_13_1208,60.0032909716,MAFE4ImagesEEG,001,201927,
,,,,,,,,,,,,,,,,,,,,,,,,,,,,,,,,,,,,,,,,,,,space,11.8159070755,2017_Nov_13_1208,60.0032909716,MAFE4ImagesEEG,001,201927,
AFNE01.JPG,AFNE01.JPG,AFNE01.JPG,AFNE01.JPG,AFNE01.JPG,AFNE01.JPG,,,,,,,,,,,,,0,0,0,7,,,,,,,,,,,AFSA16.jpg,AFNE13.jpg,AFNE17.jpg,AFSA01.jpg,AFSA01.jpg,FS,4,num_4,16,num_4,0.583446955308,,,2017_Nov_13_1208,60.0032909716,MAFE4ImagesEEG,001,201927,
AFNE01.JPG,AFNE01.JPG,AFNE01.JPG,AFNE01.JPG,AFNE01.JPG,AFNE01.JPG,,,,,,,,,,,,,0,1,1,8,,,,,,,,,,,AFSA11.jpg,AFSA16.jpg,AFNE10.jpg,AFNE12.jpg,AFSA11.jpg,FS,4,num_8,16,num_8,0.533547587227,,,2017_Nov_13_1208,60.0032909716,MAFE4ImagesEEG,001,201927,
AFNE01.JPG,AFNE01.JPG,AFNE01.JPG,AFNE01.JPG,AFNE01.JPG,AFNE01.JPG,,,,,,,,,,,,,0,2,2,3,,,,,,,,,,,AFSA19.jpg,AFNE10.jpg,AFSA05.jpg,AFNE07.jpg,AFSA19.jpg,FS,4,num_8,16,num_8,0.70015700208,,,2017_Nov_13_1208,60.0032909716,MAFE4ImagesEEG,001,201927,
AFNE01.JPG,AFNE01.JPG,AFNE01.JPG,AFNE01.JPG,AFNE01.JPG,AFNE01.JPG,,,,,,,,,,,,,0,3,3,9,,,,,,,,,,,AFNE11.jpg,AFSA18.jpg,AFSA17.jpg,AFNE15.jpg,AFNE11.jpg,FN,3,num_8,16,num_8,0.850206636358,,,2017_Nov_13_1208,60.0032909716,MAFE4ImagesEEG,001,201927,
AFNE01.JPG,AFNE01.JPG,AFNE01.JPG,AFNE01.JPG,AFNE01.JPG,AFNE01.JPG,,,,,,,,,,,,,0,4,4,2,,,,,,,,,,,AFNE01.jpg,AFNE18.jpg,AFSA03.jpg,AFSA06.jpg,AFSA06.jpg,FS,4,num_4,32,num_2,0.850142488722,,,2017_Nov_13_1208,60.0032909716,MAFE4ImagesEEG,001,201927,
AFNE01.JPG,AFNE01.JPG,AFNE01.JPG,AFNE01.JPG,AFNE01.JPG,AFNE01.JPG,,,,,,,,,,,,,0,5,5,0,,,,,,,,,,,AFNE10.jpg,AFSA17.jpg,AFNE11.jpg,AFSA18.jpg,AFNE11.jpg,FN,3,num_2,16,num_2,0.533564586658,,,2017_Nov_13_1208,60.0032909716,MAFE4ImagesEEG,001,201927,
AFNE01.JPG,AFNE01.JPG,AFNE01.JPG,AFNE01.JPG,AFNE01.JPG,AFNE01.JPG,,,,,,,,,,,,,0,6,6,1,,,,,,,,,,,AFSA17.jpg,AFNE14.jpg,AFNE18.jpg,AFSA20.jpg,AFNE14.jpg,FN,3,num_6,16,num_6,0.850128055084,,,2017_Nov_13_1208,60.0032909716,MAFE4ImagesEEG,001,201927,
AFNE01.JPG,AFNE01.JPG,AFNE01.JPG,AFNE01.JPG,AFNE01.JPG,AFNE01.JPG,,,,,,,,,,,,,0,7,7,5,,,,,,,,,,,AFNE01.jpg,AFNE08.jpg,AFSA08.jpg,AFSA20.jpg,AFNE01.jpg,FN,3,num_8,32,num_2,0.60014721984,,,2017_Nov_13_1208,60.0032909716,MAFE4ImagesEEG,001,201927,
AFNE01.JPG,AFNE01.JPG,AFNE01.JPG,AFNE01.JPG,AFNE01.JPG,AFNE01.JPG,,,,,,,,,,,,,0,8,8,4,,,,,,,,,,,AFSA18.jpg,AFSA19.jpg,AFNE14.jpg,AFNE02.jpg,AFNE02.jpg,FN,3,num_4,32,num_6,0.550187231507,,,2017_Nov_13_1208,60.0032909716,MAFE4ImagesEEG,001,201927,
AFNE01.JPG,AFNE01.JPG,AFNE01.JPG,AFNE01.JPG,AFNE01.JPG,AFNE01.JPG,,,,,,,,,,,,,0,9,9,6,,,,,,,,,,,AFNE04.jpg,AFSA04.jpg,AFSA05.jpg,AFNE15.jpg,AFSA04.jpg,FS,4,num_6,32,num_4,0.733466760721,,,2017_Nov_13_1208,60.0032909716,MAFE4ImagesEEG,001,201927,
AFNE01.JPG,AFNE01.JPG,AFNE01.JPG,AFNE01.JPG,AFNE01.JPG,AFNE01.JPG,,,,,,,,,,,,,1,0,10,0,,,,,,,,,,,AFSA09.jpg,AFNE04.jpg,AFSA10.jpg,AFNE10.jpg,AFSA09.jpg,FS,4,num_8,32,num_4,0.766762086656,,,2017_Nov_13_1208,60.0032909716,MAFE4ImagesEEG,001,201927,
AFNE01.JPG,AFNE01.JPG,AFNE01.JPG,AFNE01.JPG,AFNE01.JPG,AFNE01.JPG,,,,,,,,,,,,,1,1,11,9,,,,,,,,,,,AFNE12.jpg,AFNE14.jpg,AFSA08.jpg,AFSA01.jpg,AFNE12.jpg,FN,3,num_8,32,num_6,0.733487288468,,,2017_Nov_13_1208,60.0032909716,MAFE4ImagesEEG,001,201927,
AFNE01.JPG,AFNE01.JPG,AFNE01.JPG,AFNE01.JPG,AFNE01.JPG,AFNE01.JPG,,,,,,,,,,,,,1,2,12,4,,,,,,,,,,,AFNE17.jpg,AFSA15.jpg,AFSA09.jpg,AFNE03.jpg,AFSA09.jpg,FS,4,num_2,32,num_8,0.666812603362,,,2017_Nov_13_1208,60.0032909716,MAFE4ImagesEEG,001,201927,
AFNE01.JPG,AFNE01.JPG,AFNE01.JPG,AFNE01.JPG,AFNE01.JPG,AFNE01.JPG,,,,,,,,,,,,,1,3,13,1,,,,,,,,,,,AFSA11.jpg,AFSA12.jpg,AFNE06.jpg,AFNE03.jpg,AFSA11.jpg,FS,4,num_8,16,num_8,0.549954374786,,,2017_Nov_13_1208,60.0032909716,MAFE4ImagesEEG,001,201927,
AFNE01.JPG,AFNE01.JPG,AFNE01.JPG,AFNE01.JPG,AFNE01.JPG,AFNE01.JPG,,,,,,,,,,,,,1,4,14,6,,,,,,,,,,,AFNE12.jpg,AFSA11.jpg,AFSA14.jpg,AFNE06.jpg,AFNE06.jpg,FN,3,num_4,16,num_4,0.683473095763,,,2017_Nov_13_1208,60.0032909716,MAFE4ImagesEEG,001,201927,
AFNE01.JPG,AFNE01.JPG,AFNE01.JPG,AFNE01.JPG,AFNE01.JPG,AFNE01.JPG,,,,,,,,,,,,,1,5,15,7,,,,,,,,,,,AFNE05.jpg,AFSA08.jpg,AFNE08.jpg,AFSA02.jpg,AFSA08.jpg,FS,4,num_6,32,num_2,0.816778203472,,,2017_Nov_13_1208,60.0032909716,MAFE4ImagesEEG,001,201927,
AFNE01.JPG,AFNE01.JPG,AFNE01.JPG,AFNE01.JPG,AFNE01.JPG,AFNE01.JPG,,,,,,,,,,,,,1,6,16,5,,,,,,,,,,,AFSA09.jpg,AFSA05.jpg,AFNE02.jpg,AFNE14.jpg,AFNE14.jpg,FN,3,num_4,16,num_4,0.583376392722,,,2017_Nov_13_1208,60.0032909716,MAFE4ImagesEEG,001,201927,
AFNE01.JPG,AFNE01.JPG,AFNE01.JPG,AFNE01.JPG,AFNE01.JPG,AFNE01.JPG,,,,,,,,,,,,,1,7,17,3,,,,,,,,,,,AFSA16.jpg,AFNE02.jpg,AFNE07.jpg,AFSA10.jpg,AFNE02.jpg,FN,3,num_6,32,num_8,0.600056129042,,,2017_Nov_13_1208,60.0032909716,MAFE4ImagesEEG,001,201927,
AFNE01.JPG,AFNE01.JPG,AFNE01.JPG,AFNE01.JPG,AFNE01.JPG,AFNE01.JPG,,,,,,,,,,,,,1,8,18,8,,,,,,,,,,,AFNE07.jpg,AFNE18.jpg,AFSA12.jpg,AFSA04.jpg,AFSA04.jpg,FS,4,num_4,32,num_2,0.766816933174,,,2017_Nov_13_1208,60.0032909716,MAFE4ImagesEEG,001,201927,
AFNE01.JPG,AFNE01.JPG,AFNE01.JPG,AFNE01.JPG,AFNE01.JPG,AFNE01.JPG,,,,,,,,,,,,,1,9,19,2,,,,,,,,,,,AFNE12.jpg,AFSA09.jpg,AFNE15.jpg,AFSA01.jpg,AFSA01.jpg,FS,4,num_4,16,num_4,0.566755351145,,,2017_Nov_13_1208,60.0032909716,MAFE4ImagesEEG,001,201927,
AFNE01.JPG,AFNE01.JPG,AFNE01.JPG,AFNE01.JPG,AFNE01.JPG,AFNE01.JPG,,,,,,,,,,,,,2,0,20,8,,,,,,,,,,,AFNE13.jpg,AFSA16.jpg,AFSA20.jpg,AFNE19.jpg,AFSA16.jpg,FS,4,num_6,16,num_6,0.600091410801,,,2017_Nov_13_1208,60.0032909716,MAFE4ImagesEEG,001,201927,
AFNE01.JPG,AFNE01.JPG,AFNE01.JPG,AFNE01.JPG,AFNE01.JPG,AFNE01.JPG,,,,,,,,,,,,,2,1,21,2,,,,,,,,,,,AFNE03.jpg,AFSA09.jpg,AFNE15.jpg,AFSA12.jpg,AFSA09.jpg,FS,4,num_6,16,num_6,0.566868251655,,,2017_Nov_13_1208,60.0032909716,MAFE4ImagesEEG,001,201927,
AFNE01.JPG,AFNE01.JPG,AFNE01.JPG,AFNE01.JPG,AFNE01.JPG,AFNE01.JPG,,,,,,,,,,,,,2,2,22,0,,,,,,,,,,,AFNE10.jpg,AFSA11.jpg,AFNE08.jpg,AFSA12.jpg,AFSA11.jpg,FS,4,num_6,16,num_6,0.450102396309,,,2017_Nov_13_1208,60.0032909716,MAFE4ImagesEEG,001,201927,
AFNE01.JPG,AFNE01.JPG,AFNE01.JPG,AFNE01.JPG,AFNE01.JPG,AFNE01.JPG,,,,,,,,,,,,,2,3,23,9,,,,,,,,,,,AFSA05.jpg,AFSA08.jpg,AFNE07.jpg,AFNE15.jpg,AFSA05.jpg,FS,4,num_8,32,num_6,1.08338938234,,,2017_Nov_13_1208,60.0032909716,MAFE4ImagesEEG,001,201927,
AFNE01.JPG,AFNE01.JPG,AFNE01.JPG,AFNE01.JPG,AFNE01.JPG,AFNE01.JPG,,,,,,,,,,,,,2,4,24,5,,,,,,,,,,,AFNE01.jpg,AFSA11.jpg,AFNE03.jpg,AFSA02.jpg,AFNE01.jpg,FN,3,num_8,32,num_4,0.766814687755,,,2017_Nov_13_1208,60.0032909716,MAFE4ImagesEEG,001,201927,
AFNE01.JPG,AFNE01.JPG,AFNE01.JPG,AFNE01.JPG,AFNE01.JPG,AFNE01.JPG,,,,,,,,,,,,,2,5,25,4,,,,,,,,,,,AFSA13.jpg,AFNE20.jpg,AFSA09.jpg,AFNE09.jpg,AFSA13.jpg,FS,4,num_8,16,num_8,0.516778043471,,,2017_Nov_13_1208,60.0032909716,MAFE4ImagesEEG,001,201927,
AFNE01.JPG,AFNE01.JPG,AFNE01.JPG,AFNE01.JPG,AFNE01.JPG,AFNE01.JPG,,,,,,,,,,,,,2,6,26,3,,,,,,,,,,,AFSA14.jpg,AFNE17.jpg,AFSA08.jpg,AFNE18.jpg,AFSA08.jpg,FS,4,num_2,16,num_2,0.550020447001,,,2017_Nov_13_1208,60.0032909716,MAFE4ImagesEEG,001,201927,
AFNE01.JPG,AFNE01.JPG,AFNE01.JPG,AFNE01.JPG,AFNE01.JPG,AFNE01.JPG,,,,,,,,,,,,,2,7,27,6,,,,,,,,,,,AFNE20.jpg,AFNE08.jpg,AFSA10.jpg,AFSA02.jpg,AFNE08.jpg,FN,3,num_6,16,num_6,0.6833351776,,,2017_Nov_13_1208,60.0032909716,MAFE4ImagesEEG,001,201927,
AFNE01.JPG,AFNE01.JPG,AFNE01.JPG,AFNE01.JPG,AFNE01.JPG,AFNE01.JPG,,,,,,,,,,,,,2,8,28,1,,,,,,,,,,,AFSA01.jpg,AFNE20.jpg,AFNE05.jpg,AFSA17.jpg,AFSA17.jpg,FS,4,num_4,32,num_2,0.700153473765,,,2017_Nov_13_1208,60.0032909716,MAFE4ImagesEEG,001,201927,
AFNE01.JPG,AFNE01.JPG,AFNE01.JPG,AFNE01.JPG,AFNE01.JPG,AFNE01.JPG,,,,,,,,,,,,,2,9,29,7,,,,,,,,,,,AFSA12.jpg,AFSA15.jpg,AFNE11.jpg,AFNE14.jpg,AFNE11.jpg,FN,3,num_2,16,num_2,0.500142568722,,,2017_Nov_13_1208,60.0032909716,MAFE4ImagesEEG,001,201927,
AFNE01.JPG,AFNE01.JPG,AFNE01.JPG,AFNE01.JPG,AFNE01.JPG,AFNE01.JPG,,,,,,,,,,,,,3,0,30,8,,,,,,,,,,,AFSA09.jpg,AFNE03.jpg,AFNE12.jpg,AFSA16.jpg,AFNE12.jpg,FN,3,num_2,16,num_2,0.433824546169,,,2017_Nov_13_1208,60.0032909716,MAFE4ImagesEEG,001,201927,
AFNE01.JPG,AFNE01.JPG,AFNE01.JPG,AFNE01.JPG,AFNE01.JPG,AFNE01.JPG,,,,,,,,,,,,,3,1,31,1,,,,,,,,,,,AFNE18.jpg,AFNE17.jpg,AFSA01.jpg,AFSA04.jpg,AFSA04.jpg,FS,4,num_4,32,num_8,0.616742922459,,,2017_Nov_13_1208,60.0032909716,MAFE4ImagesEEG,001,201927,
AFNE01.JPG,AFNE01.JPG,AFNE01.JPG,AFNE01.JPG,AFNE01.JPG,AFNE01.JPG,,,,,,,,,,,,,3,2,32,2,,,,,,,,,,,AFSA06.jpg,AFSA18.jpg,AFNE17.jpg,AFNE06.jpg,AFNE17.jpg,FN,3,num_2,32,num_4,0.783492179587,,,2017_Nov_13_1208,60.0032909716,MAFE4ImagesEEG,001,201927,
AFNE01.JPG,AFNE01.JPG,AFNE01.JPG,AFNE01.JPG,AFNE01.JPG,AFNE01.JPG,,,,,,,,,,,,,3,3,33,4,,,,,,,,,,,AFSA08.jpg,AFNE17.jpg,AFNE06.jpg,AFSA20.jpg,AFSA08.jpg,FS,4,num_8,32,num_6,0.483453851193,,,2017_Nov_13_1208,60.0032909716,MAFE4ImagesEEG,001,201927,
AFNE01.JPG,AFNE01.JPG,AFNE01.JPG,AFNE01.JPG,AFNE01.JPG,AFNE01.JPG,,,,,,,,,,,,,3,4,34,6,,,,,,,,,,,AFSA18.jpg,AFSA04.jpg,AFNE19.jpg,AFNE01.jpg,AFSA04.jpg,FS,4,num_6,32,num_8,0.583547987975,,,2017_Nov_13_1208,60.0032909716,MAFE4ImagesEEG,001,201927,
AFNE01.JPG,AFNE01.JPG,AFNE01.JPG,AFNE01.JPG,AFNE01.JPG,AFNE01.JPG,,,,,,,,,,,,,3,5,35,0,,,,,,,,,,,AFNE08.jpg,AFNE15.jpg,AFSA15.jpg,AFSA03.jpg,AFNE08.jpg,FN,3,num_8,32,num_4,0.583455936052,,,2017_Nov_13_1208,60.0032909716,MAFE4ImagesEEG,001,201927,
AFNE01.JPG,AFNE01.JPG,AFNE01.JPG,AFNE01.JPG,AFNE01.JPG,AFNE01.JPG,,,,,,,,,,,,,3,6,36,7,,,,,,,,,,,AFSA13.jpg,AFSA15.jpg,AFNE13.jpg,AFNE01.jpg,AFNE01.jpg,FN,3,num_4,32,num_6,0.650146337226,,,2017_Nov_13_1208,60.0032909716,MAFE4ImagesEEG,001,201927,
AFNE01.JPG,AFNE01.JPG,AFNE01.JPG,AFNE01.JPG,AFNE01.JPG,AFNE01.JPG,,,,,,,,,,,,,3,7,37,5,,,,,,,,,,,AFSA11.jpg,AFNE08.jpg,AFSA08.jpg,AFNE02.jpg,AFNE08.jpg,FN,3,num_6,16,num_6,0.616770505905,,,2017_Nov_13_1208,60.0032909716,MAFE4ImagesEEG,001,201927,
AFNE01.JPG,AFNE01.JPG,AFNE01.JPG,AFNE01.JPG,AFNE01.JPG,AFNE01.JPG,,,,,,,,,,,,,3,8,38,3,,,,,,,,,,,AFNE14.jpg,AFSA06.jpg,AFSA09.jpg,AFNE09.jpg,AFSA06.jpg,FS,4,num_6,32,num_2,0.633474939968,,,2017_Nov_13_1208,60.0032909716,MAFE4ImagesEEG,001,201927,
AFNE01.JPG,AFNE01.JPG,AFNE01.JPG,AFNE01.JPG,AFNE01.JPG,AFNE01.JPG,,,,,,,,,,,,,3,9,39,9,,,,,,,,,,,AFNE02.jpg,AFNE08.jpg,AFSA17.jpg,AFSA15.jpg,AFNE02.jpg,FN,3,num_8,32,num_4,0.450195731129,,,2017_Nov_13_1208,60.0032909716,MAFE4ImagesEEG,001,201927,
AFNE01.JPG,AFNE01.JPG,AFNE01.JPG,AFNE01.JPG,AFNE01.JPG,AFNE01.JPG,,,,,,,,,,,,,4,0,40,9,,,,,,,,,,,AFNE08.jpg,AFNE05.jpg,AFSA05.jpg,AFSA19.jpg,AFSA19.jpg,FS,4,num_4,32,num_8,1.33340998972,,,2017_Nov_13_1208,60.0032909716,MAFE4ImagesEEG,001,201927,
AFNE01.JPG,AFNE01.JPG,AFNE01.JPG,AFNE01.JPG,AFNE01.JPG,AFNE01.JPG,,,,,,,,,,,,,4,1,41,7,,,,,,,,,,,AFNE04.jpg,AFSA04.jpg,AFSA13.jpg,AFNE09.jpg,AFNE04.jpg,FN,3,num_8,16,num_8,0.600126371253,,,2017_Nov_13_1208,60.0032909716,MAFE4ImagesEEG,001,201927,
AFNE01.JPG,AFNE01.JPG,AFNE01.JPG,AFNE01.JPG,AFNE01.JPG,AFNE01.JPG,,,,,,,,,,,,,4,2,42,5,,,,,,,,,,,AFNE15.jpg,AFSA01.jpg,AFNE20.jpg,AFSA08.jpg,AFNE15.jpg,FN,3,num_8,32,num_4,0.533522890415,,,2017_Nov_13_1208,60.0032909716,MAFE4ImagesEEG,001,201927,
AFNE01.JPG,AFNE01.JPG,AFNE01.JPG,AFNE01.JPG,AFNE01.JPG,AFNE01.JPG,,,,,,,,,,,,,4,3,43,8,,,,,,,,,,,AFNE03.jpg,AFSA09.jpg,AFNE09.jpg,AFSA02.jpg,AFSA02.jpg,FS,4,num_4,32,num_6,0.5001544361,,,2017_Nov_13_1208,60.0032909716,MAFE4ImagesEEG,001,201927,
AFNE01.JPG,AFNE01.JPG,AFNE01.JPG,AFNE01.JPG,AFNE01.JPG,AFNE01.JPG,,,,,,,,,,,,,4,4,44,0,,,,,,,,,,,AFSA16.jpg,AFNE12.jpg,AFNE07.jpg,AFSA05.jpg,AFNE12.jpg,FN,3,num_6,16,num_6,0.500142568722,,,2017_Nov_13_1208,60.0032909716,MAFE4ImagesEEG,001,201927,
AFNE01.JPG,AFNE01.JPG,AFNE01.JPG,AFNE01.JPG,AFNE01.JPG,AFNE01.JPG,,,,,,,,,,,,,4,5,45,6,,,,,,,,,,,AFSA17.jpg,AFNE06.jpg,AFSA12.jpg,AFNE20.jpg,AFNE20.jpg,FN,3,num_4,32,num_2,0.716758799274,,,2017_Nov_13_1208,60.0032909716,MAFE4ImagesEEG,001,201927,
AFNE01.JPG,AFNE01.JPG,AFNE01.JPG,AFNE01.JPG,AFNE01.JPG,AFNE01.JPG,,,,,,,,,,,,,4,6,46,4,,,,,,,,,,,AFSA12.jpg,AFNE04.jpg,AFNE19.jpg,AFSA19.jpg,AFNE04.jpg,FN,3,num_6,32,num_4,0.816749978811,,,2017_Nov_13_1208,60.0032909716,MAFE4ImagesEEG,001,201927,
AFNE01.JPG,AFNE01.JPG,AFNE01.JPG,AFNE01.JPG,AFNE01.JPG,AFNE01.JPG,,,,,,,,,,,,,4,7,47,1,,,,,,,,,,,AFSA13.jpg,AFNE20.jpg,AFSA04.jpg,AFNE08.jpg,AFSA13.jpg,FS,4,num_8,32,num_6,0.700122041162,,,2017_Nov_13_1208,60.0032909716,MAFE4ImagesEEG,001,201927,
AFNE01.JPG,AFNE01.JPG,AFNE01.JPG,AFNE01.JPG,AFNE01.JPG,AFNE01.JPG,,,,,,,,,,,,,4,8,48,2,,,,,,,,,,,AFNE14.jpg,AFSA04.jpg,AFSA15.jpg,AFNE20.jpg,AFNE14.jpg,FN,3,num_8,32,num_4,0.616805787664,,,2017_Nov_13_1208,60.0032909716,MAFE4ImagesEEG,001,201927,
AFNE01.JPG,AFNE01.JPG,AFNE01.JPG,AFNE01.JPG,AFNE01.JPG,AFNE01.JPG,,,,,,,,,,,,,4,9,49,3,,,,,,,,,,,AFSA02.jpg,AFNE12.jpg,AFNE20.jpg,AFSA09.jpg,AFSA02.jpg,FS,4,num_8,16,num_8,0.866763209458,,,2017_Nov_13_1208,60.0032909716,MAFE4ImagesEEG,001,201927,
AFNE01.JPG,AFNE01.JPG,AFNE01.JPG,AFNE01.JPG,AFNE01.JPG,AFNE01.JPG,,,,,,,,,,,,,5,0,50,9,,,,,,,,,,,AFSA17.jpg,AFNE12.jpg,AFSA04.jpg,AFNE08.jpg,AFSA17.jpg,FS,4,num_8,32,num_2,0.816714055836,,,2017_Nov_13_1208,60.0032909716,MAFE4ImagesEEG,001,201927,
AFNE01.JPG,AFNE01.JPG,AFNE01.JPG,AFNE01.JPG,AFNE01.JPG,AFNE01.JPG,,,,,,,,,,,,,5,1,51,7,,,,,,,,,,,AFSA07.jpg,AFSA13.jpg,AFNE16.jpg,AFNE10.jpg,AFSA07.jpg,FS,4,num_8,32,num_4,0.73323999811,,,2017_Nov_13_1208,60.0032909716,MAFE4ImagesEEG,001,201927,
AFNE01.JPG,AFNE01.JPG,AFNE01.JPG,AFNE01.JPG,AFNE01.JPG,AFNE01.JPG,,,,,,,,,,,,,5,2,52,2,,,,,,,,,,,AFSA12.jpg,AFNE08.jpg,AFNE20.jpg,AFSA04.jpg,AFSA04.jpg,FS,4,num_4,32,num_6,0.566797047388,,,2017_Nov_13_1208,60.0032909716,MAFE4ImagesEEG,001,201927,
AFNE01.JPG,AFNE01.JPG,AFNE01.JPG,AFNE01.JPG,AFNE01.JPG,AFNE01.JPG,,,,,,,,,,,,,5,3,53,1,,,,,,,,,,,AFSA13.jpg,AFSA20.jpg,AFNE19.jpg,AFNE10.jpg,AFSA13.jpg,FS,4,num_8,16,num_8,0.71677643992,,,2017_Nov_13_1208,60.0032909716,MAFE4ImagesEEG,001,201927,
AFNE01.JPG,AFNE01.JPG,AFNE01.JPG,AFNE01.JPG,AFNE01.JPG,AFNE01.JPG,,,,,,,,,,,,,5,4,54,0,,,,,,,,,,,AFNE01.jpg,AFSA11.jpg,AFSA03.jpg,AFNE14.jpg,AFSA11.jpg,FS,4,num_6,16,num_6,0.666787906084,,,2017_Nov_13_1208,60.0032909716,MAFE4ImagesEEG,001,201927,
AFNE01.JPG,AFNE01.JPG,AFNE01.JPG,AFNE01.JPG,AFNE01.JPG,AFNE01.JPG,,,,,,,,,,,,,5,5,55,5,,,,,,,,,,,AFNE20.jpg,AFSA02.jpg,AFNE13.jpg,AFSA11.jpg,AFSA11.jpg,FS,4,num_4,16,num_4,0.71682294691,,,2017_Nov_13_1208,60.0032909716,MAFE4ImagesEEG,001,201927,
AFNE01.JPG,AFNE01.JPG,AFNE01.JPG,AFNE01.JPG,AFNE01.JPG,AFNE01.JPG,,,,,,,,,,,,,5,6,56,4,,,,,,,,,,,AFSA14.jpg,AFSA19.jpg,AFNE19.jpg,AFNE07.jpg,AFSA14.jpg,FS,4,num_8,32,num_2,0.616803542245,,,2017_Nov_13_1208,60.0032909716,MAFE4ImagesEEG,001,201927,
AFNE01.JPG,AFNE01.JPG,AFNE01.JPG,AFNE01.JPG,AFNE01.JPG,AFNE01.JPG,,,,,,,,,,,,,5,7,57,6,,,,,,,,,,,AFSA18.jpg,AFNE16.jpg,AFSA02.jpg,AFNE01.jpg,AFSA18.jpg,FS,4,num_8,16,num_8,0.466781812254,,,2017_Nov_13_1208,60.0032909716,MAFE4ImagesEEG,001,201927,
AFNE01.JPG,AFNE01.JPG,AFNE01.JPG,AFNE01.JPG,AFNE01.JPG,AFNE01.JPG,,,,,,,,,,,,,5,8,58,3,,,,,,,,,,,AFNE09.jpg,AFNE12.jpg,AFSA20.jpg,AFSA15.jpg,AFSA15.jpg,FS,4,num_4,16,num_4,0.733547908254,,,2017_Nov_13_1208,60.0032909716,MAFE4ImagesEEG,001,201927,
AFNE01.JPG,AFNE01.JPG,AFNE01.JPG,AFNE01.JPG,AFNE01.JPG,AFNE01.JPG,,,,,,,,,,,,,5,9,59,8,,,,,,,,,,,AFSA18.jpg,AFNE18.jpg,AFNE14.jpg,AFSA06.jpg,AFNE14.jpg,FN,3,num_2,16,num_2,0.516789910849,,,2017_Nov_13_1208,60.0032909716,MAFE4ImagesEEG,001,201927,
,,,,,,,,,,,,,,,,,,,,,,,,,,,,,,,,,,,,,,,,,,,space,14.5323903589,2017_Nov_13_1208,60.0032909716,MAFE4ImagesEEG,001,201927,
AFNE01.JPG,AFNE01.JPG,AFNE01.JPG,AFNE01.JPG,AFNE01.JPG,AFNE01.JPG,,,,,,,,,,,,,,,,,0,0,0,7,,,,,,,AMNE10.jpg,AMNE17.jpg,AMSA06.jpg,AMSA01.jpg,AMSA01.jpg,MS,2,num_4,16,num_4,2.01664221007,,,2017_Nov_13_1208,60.0032909716,MAFE4ImagesEEG,001,201927,
AFNE01.JPG,AFNE01.JPG,AFNE01.JPG,AFNE01.JPG,AFNE01.JPG,AFNE01.JPG,,,,,,,,,,,,,,,,,0,1,1,5,,,,,,,AMSA03.jpg,AMNE13.jpg,AMNE10.jpg,AMSA20.jpg,AMSA03.jpg,MS,2,num_8,16,num_8,0.516837380361,,,2017_Nov_13_1208,60.0032909716,MAFE4ImagesEEG,001,201927,
AFNE01.JPG,AFNE01.JPG,AFNE01.JPG,AFNE01.JPG,AFNE01.JPG,AFNE01.JPG,,,,,,,,,,,,,,,,,0,2,2,9,,,,,,,AMNE18.jpg,AMSA15.jpg,AMNE08.jpg,AMSA13.jpg,AMNE08.jpg,MN,1,num_2,32,num_4,0.66689407127,,,2017_Nov_13_1208,60.0032909716,MAFE4ImagesEEG,001,201927,
AFNE01.JPG,AFNE01.JPG,AFNE01.JPG,AFNE01.JPG,AFNE01.JPG,AFNE01.JPG,,,,,,,,,,,,,,,,,0,3,3,6,,,,,,,AMNE16.jpg,AMSA08.jpg,AMSA16.jpg,AMNE04.jpg,AMSA16.jpg,MS,2,num_2,32,num_6,0.6667587189,,,2017_Nov_13_1208,60.0032909716,MAFE4ImagesEEG,001,201927,
AFNE01.JPG,AFNE01.JPG,AFNE01.JPG,AFNE01.JPG,AFNE01.JPG,AFNE01.JPG,,,,,,,,,,,,,,,,,0,4,4,3,,,,,,,AMNE19.jpg,AMNE10.jpg,AMSA10.jpg,AMSA05.jpg,AMSA10.jpg,MS,2,num_2,16,num_2,0.516787665896,,,2017_Nov_13_1208,60.0032909716,MAFE4ImagesEEG,001,201927,
AFNE01.JPG,AFNE01.JPG,AFNE01.JPG,AFNE01.JPG,AFNE01.JPG,AFNE01.JPG,,,,,,,,,,,,,,,,,0,5,5,8,,,,,,,AMSA06.jpg,AMNE13.jpg,AMNE02.jpg,AMSA05.jpg,AMSA06.jpg,MS,2,num_8,16,num_8,0.500112419017,,,2017_Nov_13_1208,60.0032909716,MAFE4ImagesEEG,001,201927,
AFNE01.JPG,AFNE01.JPG,AFNE01.JPG,AFNE01.JPG,AFNE01.JPG,AFNE01.JPG,,,,,,,,,,,,,,,,,0,6,6,0,,,,,,,AMNE14.jpg,AMSA04.jpg,AMSA03.jpg,AMNE03.jpg,AMNE03.jpg,MN,1,num_4,16,num_4,0.683476302773,,,2017_Nov_13_1208,60.0032909716,MAFE4ImagesEEG,001,201927,
AFNE01.JPG,AFNE01.JPG,AFNE01.JPG,AFNE01.JPG,AFNE01.JPG,AFNE01.JPG,,,,,,,,,,,,,,,,,0,7,7,2,,,,,,,AMSA11.jpg,AMNE14.jpg,AMNE07.jpg,AMSA03.jpg,AMNE07.jpg,MN,1,num_2,32,num_8,0.516613503918,,,2017_Nov_13_1208,60.0032909716,MAFE4ImagesEEG,001,201927,
AFNE01.JPG,AFNE01.JPG,AFNE01.JPG,AFNE01.JPG,AFNE01.JPG,AFNE01.JPG,,,,,,,,,,,,,,,,,0,8,8,1,,,,,,,AMSA16.jpg,AMSA07.jpg,AMNE06.jpg,AMNE10.jpg,AMNE10.jpg,MN,1,num_4,32,num_2,0.600168067496,,,2017_Nov_13_1208,60.0032909716,MAFE4ImagesEEG,001,201927,
AFNE01.JPG,AFNE01.JPG,AFNE01.JPG,AFNE01.JPG,AFNE01.JPG,AFNE01.JPG,,,,,,,,,,,,,,,,,0,9,9,4,,,,,,,AMSA19.jpg,AMNE18.jpg,AMSA07.jpg,AMNE16.jpg,AMSA19.jpg,MS,2,num_8,32,num_2,0.566878835671,,,2017_Nov_13_1208,60.0032909716,MAFE4ImagesEEG,001,201927,
AFNE01.JPG,AFNE01.JPG,AFNE01.JPG,AFNE01.JPG,AFNE01.JPG,AFNE01.JPG,,,,,,,,,,,,,,,,,1,0,10,2,,,,,,,AMSA14.jpg,AMNE20.jpg,AMSA15.jpg,AMNE05.jpg,AMNE05.jpg,MN,1,num_4,16,num_4,0.550155157689,,,2017_Nov_13_1208,60.0032909716,MAFE4ImagesEEG,001,201927,
AFNE01.JPG,AFNE01.JPG,AFNE01.JPG,AFNE01.JPG,AFNE01.JPG,AFNE01.JPG,,,,,,,,,,,,,,,,,1,1,11,8,,,,,,,AMNE04.jpg,AMSA03.jpg,AMSA17.jpg,AMNE09.jpg,AMNE04.jpg,MN,1,num_8,32,num_2,0.733450724278,,,2017_Nov_13_1208,60.0032909716,MAFE4ImagesEEG,001,201927,
AFNE01.JPG,AFNE01.JPG,AFNE01.JPG,AFNE01.JPG,AFNE01.JPG,AFNE01.JPG,,,,,,,,,,,,,,,,,1,2,12,5,,,,,,,AMSA15.jpg,AMNE07.jpg,AMSA02.jpg,AMNE09.jpg,AMSA15.jpg,MS,2,num_8,32,num_4,0.700143530965,,,2017_Nov_13_1208,60.0032909716,MAFE4ImagesEEG,001,201927,
AFNE01.JPG,AFNE01.JPG,AFNE01.JPG,AFNE01.JPG,AFNE01.JPG,AFNE01.JPG,,,,,,,,,,,,,,,,,1,3,13,6,,,,,,,AMSA09.jpg,AMNE10.jpg,AMNE05.jpg,AMSA10.jpg,AMSA09.jpg,MS,2,num_8,32,num_6,0.483582788613,,,2017_Nov_13_1208,60.0032909716,MAFE4ImagesEEG,001,201927,
AFNE01.JPG,AFNE01.JPG,AFNE01.JPG,AFNE01.JPG,AFNE01.JPG,AFNE01.JPG,,,,,,,,,,,,,,,,,1,4,14,7,,,,,,,AMNE10.jpg,AMSA14.jpg,AMSA17.jpg,AMNE19.jpg,AMSA17.jpg,MS,2,num_2,32,num_4,0.583454973996,,,2017_Nov_13_1208,60.0032909716,MAFE4ImagesEEG,001,201927,
AFNE01.JPG,AFNE01.JPG,AFNE01.JPG,AFNE01.JPG,AFNE01.JPG,AFNE01.JPG,,,,,,,,,,,,,,,,,1,5,15,4,,,,,,,AMNE12.jpg,AMSA03.jpg,AMSA18.jpg,AMNE19.jpg,AMNE12.jpg,MN,1,num_8,16,num_8,0.500179453753,,,2017_Nov_13_1208,60.0032909716,MAFE4ImagesEEG,001,201927,
AFNE01.JPG,AFNE01.JPG,AFNE01.JPG,AFNE01.JPG,AFNE01.JPG,AFNE01.JPG,,,,,,,,,,,,,,,,,1,6,16,1,,,,,,,AMNE13.jpg,AMNE16.jpg,AMSA10.jpg,AMSA06.jpg,AMSA10.jpg,MS,2,num_2,32,num_8,0.6501822602,,,2017_Nov_13_1208,60.0032909716,MAFE4ImagesEEG,001,201927,
AFNE01.JPG,AFNE01.JPG,AFNE01.JPG,AFNE01.JPG,AFNE01.JPG,AFNE01.JPG,,,,,,,,,,,,,,,,,1,7,17,9,,,,,,,AMSA16.jpg,AMSA06.jpg,AMNE06.jpg,AMNE16.jpg,AMNE06.jpg,MN,1,num_2,32,num_6,0.533447836991,,,2017_Nov_13_1208,60.0032909716,MAFE4ImagesEEG,001,201927,
AFNE01.JPG,AFNE01.JPG,AFNE01.JPG,AFNE01.JPG,AFNE01.JPG,AFNE01.JPG,,,,,,,,,,,,,,,,,1,8,18,3,,,,,,,AMSA04.jpg,AMNE16.jpg,AMSA15.jpg,AMNE09.jpg,AMNE16.jpg,MN,1,num_6,32,num_4,0.633571803104,,,2017_Nov_13_1208,60.0032909716,MAFE4ImagesEEG,001,201927,
AFNE01.JPG,AFNE01.JPG,AFNE01.JPG,AFNE01.JPG,AFNE01.JPG,AFNE01.JPG,,,,,,,,,,,,,,,,,1,9,19,0,,,,,,,AMSA12.jpg,AMNE01.jpg,AMSA18.jpg,AMNE15.jpg,AMSA18.jpg,MS,2,num_2,16,num_2,0.466802018695,,,2017_Nov_13_1208,60.0032909716,MAFE4ImagesEEG,001,201927,
AFNE01.JPG,AFNE01.JPG,AFNE01.JPG,AFNE01.JPG,AFNE01.JPG,AFNE01.JPG,,,,,,,,,,,,,,,,,2,0,20,0,,,,,,,AMSA17.jpg,AMNE08.jpg,AMNE07.jpg,AMSA13.jpg,AMSA17.jpg,MS,2,num_8,16,num_8,0.733482156415,,,2017_Nov_13_1208,60.0032909716,MAFE4ImagesEEG,001,201927,
AFNE01.JPG,AFNE01.JPG,AFNE01.JPG,AFNE01.JPG,AFNE01.JPG,AFNE01.JPG,,,,,,,,,,,,,,,,,2,1,21,7,,,,,,,AMNE17.jpg,AMNE15.jpg,AMSA02.jpg,AMSA09.jpg,AMNE15.jpg,MN,1,num_6,32,num_4,0.550156440586,,,2017_Nov_13_1208,60.0032909716,MAFE4ImagesEEG,001,201927,
AFNE01.JPG,AFNE01.JPG,AFNE01.JPG,AFNE01.JPG,AFNE01.JPG,AFNE01.JPG,,,,,,,,,,,,,,,,,2,2,22,9,,,,,,,AMNE18.jpg,AMSA12.jpg,AMNE17.jpg,AMSA03.jpg,AMNE18.jpg,MN,1,num_8,32,num_6,0.58346491633,,,2017_Nov_13_1208,60.0032909716,MAFE4ImagesEEG,001,201927,
AFNE01.JPG,AFNE01.JPG,AFNE01.JPG,AFNE01.JPG,AFNE01.JPG,AFNE01.JPG,,,,,,,,,,,,,,,,,2,3,23,5,,,,,,,AMSA02.jpg,AMNE17.jpg,AMNE10.jpg,AMSA03.jpg,AMSA03.jpg,MS,2,num_4,16,num_4,0.433497712482,,,2017_Nov_13_1208,60.0032909716,MAFE4ImagesEEG,001,201927,
AFNE01.JPG,AFNE01.JPG,AFNE01.JPG,AFNE01.JPG,AFNE01.JPG,AFNE01.JPG,,,,,,,,,,,,,,,,,2,4,24,6,,,,,,,AMNE10.jpg,AMSA15.jpg,AMNE17.jpg,AMSA10.jpg,AMSA15.jpg,MS,2,num_6,32,num_8,0.833479430061,,,2017_Nov_13_1208,60.0032909716,MAFE4ImagesEEG,001,201927,
AFNE01.JPG,AFNE01.JPG,AFNE01.JPG,AFNE01.JPG,AFNE01.JPG,AFNE01.JPG,,,,,,,,,,,,,,,,,2,5,25,1,,,,,,,AMSA13.jpg,AMSA08.jpg,AMNE05.jpg,AMNE16.jpg,AMSA08.jpg,MS,2,num_6,16,num_6,0.816813484766,,,2017_Nov_13_1208,60.0032909716,MAFE4ImagesEEG,001,201927,
AFNE01.JPG,AFNE01.JPG,AFNE01.JPG,AFNE01.JPG,AFNE01.JPG,AFNE01.JPG,,,,,,,,,,,,,,,,,2,6,26,4,,,,,,,AMSA04.jpg,AMNE16.jpg,AMSA15.jpg,AMNE10.jpg,AMNE10.jpg,MN,1,num_4,16,num_4,0.816810277756,,,2017_Nov_13_1208,60.0032909716,MAFE4ImagesEEG,001,201927,
AFNE01.JPG,AFNE01.JPG,AFNE01.JPG,AFNE01.JPG,AFNE01.JPG,AFNE01.JPG,,,,,,,,,,,,,,,,,2,7,27,3,,,,,,,AMSA06.jpg,AMNE12.jpg,AMNE05.jpg,AMSA14.jpg,AMNE12.jpg,MN,1,num_6,32,num_8,0.583479991648,,,2017_Nov_13_1208,60.0032909716,MAFE4ImagesEEG,001,201927,
AFNE01.JPG,AFNE01.JPG,AFNE01.JPG,AFNE01.JPG,AFNE01.JPG,AFNE01.JPG,,,,,,,,,,,,,,,,,2,8,28,8,,,,,,,AMNE04.jpg,AMSA15.jpg,AMSA03.jpg,AMNE18.jpg,AMSA03.jpg,MS,2,num_2,16,num_2,0.483520244248,,,2017_Nov_13_1208,60.0032909716,MAFE4ImagesEEG,001,201927,
AFNE01.JPG,AFNE01.JPG,AFNE01.JPG,AFNE01.JPG,AFNE01.JPG,AFNE01.JPG,,,,,,,,,,,,,,,,,2,9,29,2,,,,,,,AMNE18.jpg,AMSA07.jpg,AMNE17.jpg,AMSA13.jpg,AMSA13.jpg,MS,2,num_4,32,num_2,0.466790151317,,,2017_Nov_13_1208,60.0032909716,MAFE4ImagesEEG,001,201927,
AFNE01.JPG,AFNE01.JPG,AFNE01.JPG,AFNE01.JPG,AFNE01.JPG,AFNE01.JPG,,,,,,,,,,,,,,,,,3,0,30,1,,,,,,,AMNE16.jpg,AMSA20.jpg,AMSA07.jpg,AMNE09.jpg,AMSA07.jpg,MS,2,num_2,16,num_2,0.43357276544,,,2017_Nov_13_1208,60.0032909716,MAFE4ImagesEEG,001,201927,
AFNE01.JPG,AFNE01.JPG,AFNE01.JPG,AFNE01.JPG,AFNE01.JPG,AFNE01.JPG,,,,,,,,,,,,,,,,,3,1,31,7,,,,,,,AMNE06.jpg,AMNE13.jpg,AMSA12.jpg,AMSA04.jpg,AMSA12.jpg,MS,2,num_2,32,num_8,0.583449200261,,,2017_Nov_13_1208,60.0032909716,MAFE4ImagesEEG,001,201927,
AFNE01.JPG,AFNE01.JPG,AFNE01.JPG,AFNE01.JPG,AFNE01.JPG,AFNE01.JPG,,,,,,,,,,,,,,,,,3,2,32,2,,,,,,,AMSA15.jpg,AMNE20.jpg,AMNE14.jpg,AMSA20.jpg,AMSA20.jpg,MS,2,num_4,32,num_6,0.600126692094,,,2017_Nov_13_1208,60.0032909716,MAFE4ImagesEEG,001,201927,
AFNE01.JPG,AFNE01.JPG,AFNE01.JPG,AFNE01.JPG,AFNE01.JPG,AFNE01.JPG,,,,,,,,,,,,,,,,,3,3,33,3,,,,,,,AMNE20.jpg,AMNE19.jpg,AMSA01.jpg,AMSA17.jpg,AMSA17.jpg,MS,2,num_4,16,num_4,0.616644455586,,,2017_Nov_13_1208,60.0032909716,MAFE4ImagesEEG,001,201927,
AFNE01.JPG,AFNE01.JPG,AFNE01.JPG,AFNE01.JPG,AFNE01.JPG,AFNE01.JPG,,,,,,,,,,,,,,,,,3,4,34,4,,,,,,,AMSA19.jpg,AMSA07.jpg,AMNE18.jpg,AMNE16.jpg,AMSA19.jpg,MS,2,num_8,32,num_6,0.750196853653,,,2017_Nov_13_1208,60.0032909716,MAFE4ImagesEEG,001,201927,
AFNE01.JPG,AFNE01.JPG,AFNE01.JPG,AFNE01.JPG,AFNE01.JPG,AFNE01.JPG,,,,,,,,,,,,,,,,,3,5,35,5,,,,,,,AMNE12.jpg,AMSA05.jpg,AMNE07.jpg,AMSA18.jpg,AMSA18.jpg,MS,2,num_4,16,num_4,0.466795282904,,,2017_Nov_13_1208,60.0032909716,MAFE4ImagesEEG,001,201927,
AFNE01.JPG,AFNE01.JPG,AFNE01.JPG,AFNE01.JPG,AFNE01.JPG,AFNE01.JPG,,,,,,,,,,,,,,,,,3,6,36,6,,,,,,,AMSA18.jpg,AMNE17.jpg,AMNE07.jpg,AMSA07.jpg,AMNE07.jpg,MN,1,num_2,32,num_6,0.716802098788,,,2017_Nov_13_1208,60.0032909716,MAFE4ImagesEEG,001,201927,
AFNE01.JPG,AFNE01.JPG,AFNE01.JPG,AFNE01.JPG,AFNE01.JPG,AFNE01.JPG,,,,,,,,,,,,,,,,,3,7,37,9,,,,,,,AMNE02.jpg,AMNE09.jpg,AMSA01.jpg,AMSA18.jpg,AMSA18.jpg,MS,2,num_4,32,num_2,0.516768100671,,,2017_Nov_13_1208,60.0032909716,MAFE4ImagesEEG,001,201927,
AFNE01.JPG,AFNE01.JPG,AFNE01.JPG,AFNE01.JPG,AFNE01.JPG,AFNE01.JPG,,,,,,,,,,,,,,,,,3,8,38,8,,,,,,,AMNE17.jpg,AMSA03.jpg,AMNE18.jpg,AMSA09.jpg,AMSA09.jpg,MS,2,num_4,16,num_4,0.633459544275,,,2017_Nov_13_1208,60.0032909716,MAFE4ImagesEEG,001,201927,
AFNE01.JPG,AFNE01.JPG,AFNE01.JPG,AFNE01.JPG,AFNE01.JPG,AFNE01.JPG,,,,,,,,,,,,,,,,,3,9,39,0,,,,,,,AMNE16.jpg,AMSA04.jpg,AMNE19.jpg,AMSA13.jpg,AMSA04.jpg,MS,2,num_6,16,num_6,0.533741634805,,,2017_Nov_13_1208,60.0032909716,MAFE4ImagesEEG,001,201927,
AFNE01.JPG,AFNE01.JPG,AFNE01.JPG,AFNE01.JPG,AFNE01.JPG,AFNE01.JPG,,,,,,,,,,,,,,,,,4,0,40,1,,,,,,,AMSA15.jpg,AMNE09.jpg,AMNE18.jpg,AMSA08.jpg,AMNE18.jpg,MN,1,num_2,32,num_6,0.666768020019,,,2017_Nov_13_1208,60.0032909716,MAFE4ImagesEEG,001,201927,
AFNE01.JPG,AFNE01.JPG,AFNE01.JPG,AFNE01.JPG,AFNE01.JPG,AFNE01.JPG,,,,,,,,,,,,,,,,,4,1,41,8,,,,,,,AMNE13.jpg,AMSA17.jpg,AMNE17.jpg,AMSA02.jpg,AMNE13.jpg,MN,1,num_8,32,num_2,0.500177850015,,,2017_Nov_13_1208,60.0032909716,MAFE4ImagesEEG,001,201927,
AFNE01.JPG,AFNE01.JPG,AFNE01.JPG,AFNE01.JPG,AFNE01.JPG,AFNE01.JPG,,,,,,,,,,,,,,,,,4,2,42,5,,,,,,,AMSA18.jpg,AMNE15.jpg,AMNE14.jpg,AMSA19.jpg,AMSA19.jpg,MS,2,num_4,32,num_8,0.766753747128,,,2017_Nov_13_1208,60.0032909716,MAFE4ImagesEEG,001,201927,
AFNE01.JPG,AFNE01.JPG,AFNE01.JPG,AFNE01.JPG,AFNE01.JPG,AFNE01.JPG,,,,,,,,,,,,,,,,,4,3,43,2,,,,,,,AMNE01.jpg,AMNE05.jpg,AMSA01.jpg,AMSA07.jpg,AMNE05.jpg,MN,1,num_6,32,num_4,0.500142248347,,,2017_Nov_13_1208,60.0032909716,MAFE4ImagesEEG,001,201927,
AFNE01.JPG,AFNE01.JPG,AFNE01.JPG,AFNE01.JPG,AFNE01.JPG,AFNE01.JPG,,,,,,,,,,,,,,,,,4,4,44,6,,,,,,,AMSA14.jpg,AMSA13.jpg,AMNE09.jpg,AMNE18.jpg,AMSA13.jpg,MS,2,num_6,32,num_2,0.583490576129,,,2017_Nov_13_1208,60.0032909716,MAFE4ImagesEEG,001,201927,
AFNE01.JPG,AFNE01.JPG,AFNE01.JPG,AFNE01.JPG,AFNE01.JPG,AFNE01.JPG,,,,,,,,,,,,,,,,,4,5,45,3,,,,,,,AMNE03.jpg,AMSA10.jpg,AMSA09.jpg,AMNE07.jpg,AMSA10.jpg,MS,2,num_6,16,num_6,0.616780127864,,,2017_Nov_13_1208,60.0032909716,MAFE4ImagesEEG,001,201927,
AFNE01.JPG,AFNE01.JPG,AFNE01.JPG,AFNE01.JPG,AFNE01.JPG,AFNE01.JPG,,,,,,,,,,,,,,,,,4,6,46,9,,,,,,,AMNE06.jpg,AMNE04.jpg,AMSA06.jpg,AMSA09.jpg,AMNE06.jpg,MN,1,num_8,32,num_4,0.583502763882,,,2017_Nov_13_1208,60.0032909716,MAFE4ImagesEEG,001,201927,
AFNE01.JPG,AFNE01.JPG,AFNE01.JPG,AFNE01.JPG,AFNE01.JPG,AFNE01.JPG,,,,,,,,,,,,,,,,,4,7,47,0,,,,,,,AMSA02.jpg,AMNE11.jpg,AMSA05.jpg,AMNE08.jpg,AMNE08.jpg,MN,1,num_4,16,num_4,0.566791274119,,,2017_Nov_13_1208,60.0032909716,MAFE4ImagesEEG,001,201927,
AFNE01.JPG,AFNE01.JPG,AFNE01.JPG,AFNE01.JPG,AFNE01.JPG,AFNE01.JPG,,,,,,,,,,,,,,,,,4,8,48,4,,,,,,,AMSA17.jpg,AMNE05.jpg,AMNE17.jpg,AMSA16.jpg,AMSA16.jpg,MS,2,num_4,32,num_6,0.616746771615,,,2017_Nov_13_1208,60.0032909716,MAFE4ImagesEEG,001,201927,
AFNE01.JPG,AFNE01.JPG,AFNE01.JPG,AFNE01.JPG,AFNE01.JPG,AFNE01.JPG,,,,,,,,,,,,,,,,,4,9,49,7,,,,,,,AMNE19.jpg,AMSA12.jpg,AMSA01.jpg,AMNE12.jpg,AMSA01.jpg,MS,2,num_2,16,num_2,0.466807150748,,,2017_Nov_13_1208,60.0032909716,MAFE4ImagesEEG,001,201927,
AFNE01.JPG,AFNE01.JPG,AFNE01.JPG,AFNE01.JPG,AFNE01.JPG,AFNE01.JPG,,,,,,,,,,,,,,,,,5,0,50,9,,,,,,,AMSA17.jpg,AMSA13.jpg,AMNE03.jpg,AMNE01.jpg,AMNE01.jpg,MN,1,num_4,16,num_4,0.466885731556,,,2017_Nov_13_1208,60.0032909716,MAFE4ImagesEEG,001,201927,
AFNE01.JPG,AFNE01.JPG,AFNE01.JPG,AFNE01.JPG,AFNE01.JPG,AFNE01.JPG,,,,,,,,,,,,,,,,,5,1,51,1,,,,,,,AMSA14.jpg,AMSA18.jpg,AMNE08.jpg,AMNE15.jpg,AMSA18.jpg,MS,2,num_6,16,num_6,0.633471411653,,,2017_Nov_13_1208,60.0032909716,MAFE4ImagesEEG,001,201927,
AFNE01.JPG,AFNE01.JPG,AFNE01.JPG,AFNE01.JPG,AFNE01.JPG,AFNE01.JPG,,,,,,,,,,,,,,,,,5,2,52,7,,,,,,,AMSA16.jpg,AMNE17.jpg,AMNE09.jpg,AMSA06.jpg,AMNE09.jpg,MN,1,num_2,32,num_8,0.51680017449,,,2017_Nov_13_1208,60.0032909716,MAFE4ImagesEEG,001,201927,
AFNE01.JPG,AFNE01.JPG,AFNE01.JPG,AFNE01.JPG,AFNE01.JPG,AFNE01.JPG,,,,,,,,,,,,,,,,,5,3,53,3,,,,,,,AMNE08.jpg,AMSA11.jpg,AMSA14.jpg,AMNE19.jpg,AMNE19.jpg,MN,1,num_4,16,num_4,0.516813324764,,,2017_Nov_13_1208,60.0032909716,MAFE4ImagesEEG,001,201927,
AFNE01.JPG,AFNE01.JPG,AFNE01.JPG,AFNE01.JPG,AFNE01.JPG,AFNE01.JPG,,,,,,,,,,,,,,,,,5,4,54,2,,,,,,,AMSA20.jpg,AMSA16.jpg,AMNE15.jpg,AMNE07.jpg,AMSA16.jpg,MS,2,num_6,16,num_6,0.533479911275,,,2017_Nov_13_1208,60.0032909716,MAFE4ImagesEEG,001,201927,
AFNE01.JPG,AFNE01.JPG,AFNE01.JPG,AFNE01.JPG,AFNE01.JPG,AFNE01.JPG,,,,,,,,,,,,,,,,,5,5,55,6,,,,,,,AMNE04.jpg,AMNE01.jpg,AMSA02.jpg,AMSA09.jpg,AMSA02.jpg,MS,2,num_2,16,num_2,0.533489212859,,,2017_Nov_13_1208,60.0032909716,MAFE4ImagesEEG,001,201927,
AFNE01.JPG,AFNE01.JPG,AFNE01.JPG,AFNE01.JPG,AFNE01.JPG,AFNE01.JPG,,,,,,,,,,,,,,,,,5,6,56,5,,,,,,,AMNE01.jpg,AMSA07.jpg,AMSA19.jpg,AMNE05.jpg,AMNE05.jpg,MN,1,num_4,16,num_4,0.616797448136,,,2017_Nov_13_1208,60.0032909716,MAFE4ImagesEEG,001,201927,
AFNE01.JPG,AFNE01.JPG,AFNE01.JPG,AFNE01.JPG,AFNE01.JPG,AFNE01.JPG,,,,,,,,,,,,,,,,,5,7,57,4,,,,,,,AMNE15.jpg,AMNE05.jpg,AMSA18.jpg,AMSA13.jpg,AMSA13.jpg,MS,2,num_4,32,num_6,0.53353956854,,,2017_Nov_13_1208,60.0032909716,MAFE4ImagesEEG,001,201927,
AFNE01.JPG,AFNE01.JPG,AFNE01.JPG,AFNE01.JPG,AFNE01.JPG,AFNE01.JPG,,,,,,,,,,,,,,,,,5,8,58,0,,,,,,,AMSA15.jpg,AMSA18.jpg,AMNE19.jpg,AMNE08.jpg,AMSA18.jpg,MS,2,num_6,32,num_4,0.633448318113,,,2017_Nov_13_1208,60.0032909716,MAFE4ImagesEEG,001,201927,
AFNE01.JPG,AFNE01.JPG,AFNE01.JPG,AFNE01.JPG,AFNE01.JPG,AFNE01.JPG,,,,,,,,,,,,,,,,,5,9,59,8,,,,,,,AMNE01.jpg,AMNE07.jpg,AMSA07.jpg,AMSA16.jpg,AMSA16.jpg,MS,2,num_4,32,num_2,0.48349458538,,,2017_Nov_13_1208,60.0032909716,MAFE4ImagesEEG,001,201927,
,,,,,,,,,,,,,,,,,,,,,,,,,,,,,,,,,,,,,,,,,,,space,10.2990822038,2017_Nov_13_1208,60.0032909716,MAFE4ImagesEEG,001,201927,
AFNE01.JPG,AFNE01.JPG,AFNE01.JPG,AFNE01.JPG,AFNE01.JPG,AFNE01.JPG,,,,,,,,,,,,,,,,,,,,,0,0,0,3,,,AFNE20.jpg,AFNE10.jpg,AFSA16.jpg,AFSA07.jpg,AFSA07.jpg,FS,4,num_4,16,num_4,0.550127895083,,,2017_Nov_13_1208,60.0032909716,MAFE4ImagesEEG,001,201927,
AFNE01.JPG,AFNE01.JPG,AFNE01.JPG,AFNE01.JPG,AFNE01.JPG,AFNE01.JPG,,,,,,,,,,,,,,,,,,,,,0,1,1,8,,,AFNE11.jpg,AFNE13.jpg,AFSA11.jpg,AFSA12.jpg,AFSA11.jpg,FS,4,num_2,32,num_6,0.56681532925,,,2017_Nov_13_1208,60.0032909716,MAFE4ImagesEEG,001,201927,
AFNE01.JPG,AFNE01.JPG,AFNE01.JPG,AFNE01.JPG,AFNE01.JPG,AFNE01.JPG,,,,,,,,,,,,,,,,,,,,,0,2,2,0,,,AFSA05.jpg,AFNE03.jpg,AFNE19.jpg,AFSA13.jpg,AFSA05.jpg,FS,4,num_8,32,num_4,0.533465157263,,,2017_Nov_13_1208,60.0032909716,MAFE4ImagesEEG,001,201927,
AFNE01.JPG,AFNE01.JPG,AFNE01.JPG,AFNE01.JPG,AFNE01.JPG,AFNE01.JPG,,,,,,,,,,,,,,,,,,,,,0,3,3,5,,,AFNE01.jpg,AFSA15.jpg,AFNE12.jpg,AFSA09.jpg,AFSA09.jpg,FS,4,num_4,32,num_6,0.616905216593,,,2017_Nov_13_1208,60.0032909716,MAFE4ImagesEEG,001,201927,
AFNE01.JPG,AFNE01.JPG,AFNE01.JPG,AFNE01.JPG,AFNE01.JPG,AFNE01.JPG,,,,,,,,,,,,,,,,,,,,,0,4,4,2,,,AFNE16.jpg,AFNE06.jpg,AFSA04.jpg,AFSA14.jpg,AFNE16.jpg,FN,3,num_8,32,num_4,0.58350116061,,,2017_Nov_13_1208,60.0032909716,MAFE4ImagesEEG,001,201927,
AFNE01.JPG,AFNE01.JPG,AFNE01.JPG,AFNE01.JPG,AFNE01.JPG,AFNE01.JPG,,,,,,,,,,,,,,,,,,,,,0,5,5,1,,,AFSA02.jpg,AFSA12.jpg,AFNE07.jpg,AFNE18.jpg,AFSA02.jpg,FS,4,num_8,16,num_8,0.416809957009,,,2017_Nov_13_1208,60.0032909716,MAFE4ImagesEEG,001,201927,
AFNE01.JPG,AFNE01.JPG,AFNE01.JPG,AFNE01.JPG,AFNE01.JPG,AFNE01.JPG,,,,,,,,,,,,,,,,,,,,,0,6,6,6,,,AFSA04.jpg,AFNE20.jpg,AFNE15.jpg,AFSA03.jpg,AFSA04.jpg,FS,4,num_8,32,num_6,0.716766817495,,,2017_Nov_13_1208,60.0032909716,MAFE4ImagesEEG,001,201927,
AFNE01.JPG,AFNE01.JPG,AFNE01.JPG,AFNE01.JPG,AFNE01.JPG,AFNE01.JPG,,,,,,,,,,,,,,,,,,,,,0,7,7,4,,,AFNE08.jpg,AFSA11.jpg,AFNE03.jpg,AFSA10.jpg,AFSA11.jpg,FS,4,num_6,16,num_6,0.550144252833,,,2017_Nov_13_1208,60.0032909716,MAFE4ImagesEEG,001,201927,
AFNE01.JPG,AFNE01.JPG,AFNE01.JPG,AFNE01.JPG,AFNE01.JPG,AFNE01.JPG,,,,,,,,,,,,,,,,,,,,,0,8,8,9,,,AFSA18.jpg,AFNE05.jpg,AFNE01.jpg,AFSA09.jpg,AFSA09.jpg,FS,4,num_4,16,num_4,0.683565789368,,,2017_Nov_13_1208,60.0032909716,MAFE4ImagesEEG,001,201927,
AFNE01.JPG,AFNE01.JPG,AFNE01.JPG,AFNE01.JPG,AFNE01.JPG,AFNE01.JPG,,,,,,,,,,,,,,,,,,,,,0,9,9,7,,,AFSA02.jpg,AFSA20.jpg,AFNE01.jpg,AFNE02.jpg,AFNE01.jpg,FN,3,num_2,16,num_2,0.700131663587,,,2017_Nov_13_1208,60.0032909716,MAFE4ImagesEEG,001,201927,
AFNE01.JPG,AFNE01.JPG,AFNE01.JPG,AFNE01.JPG,AFNE01.JPG,AFNE01.JPG,,,,,,,,,,,,,,,,,,,,,1,0,10,1,,,AFSA20.jpg,AFNE15.jpg,AFNE17.jpg,AFSA05.jpg,AFSA05.jpg,FS,4,num_4,16,num_4,0.60012380546,,,2017_Nov_13_1208,60.0032909716,MAFE4ImagesEEG,001,201927,
AFNE01.JPG,AFNE01.JPG,AFNE01.JPG,AFNE01.JPG,AFNE01.JPG,AFNE01.JPG,,,,,,,,,,,,,,,,,,,,,1,1,11,2,,,AFSA18.jpg,AFNE06.jpg,AFNE07.jpg,AFSA12.jpg,AFSA18.jpg,FS,4,num_8,16,num_8,0.55017215712,,,2017_Nov_13_1208,60.0032909716,MAFE4ImagesEEG,001,201927,
AFNE01.JPG,AFNE01.JPG,AFNE01.JPG,AFNE01.JPG,AFNE01.JPG,AFNE01.JPG,,,,,,,,,,,,,,,,,,,,,1,2,12,0,,,AFNE03.jpg,AFNE01.jpg,AFSA09.jpg,AFSA05.jpg,AFNE01.jpg,FN,3,num_6,16,num_6,0.68346796371,,,2017_Nov_13_1208,60.0032909716,MAFE4ImagesEEG,001,201927,
AFNE01.JPG,AFNE01.JPG,AFNE01.JPG,AFNE01.JPG,AFNE01.JPG,AFNE01.JPG,,,,,,,,,,,,,,,,,,,,,1,3,13,9,,,AFNE20.jpg,AFSA18.jpg,AFNE02.jpg,AFSA07.jpg,AFSA18.jpg,FS,4,num_6,32,num_2,0.666828960646,,,2017_Nov_13_1208,60.0032909716,MAFE4ImagesEEG,001,201927,
AFNE01.JPG,AFNE01.JPG,AFNE01.JPG,AFNE01.JPG,AFNE01.JPG,AFNE01.JPG,,,,,,,,,,,,,,,,,,,,,1,4,14,8,,,AFSA12.jpg,AFNE16.jpg,AFNE18.jpg,AFSA20.jpg,AFSA12.jpg,FS,4,num_8,16,num_8,0.66678501945,,,2017_Nov_13_1208,60.0032909716,MAFE4ImagesEEG,001,201927,
AFNE01.JPG,AFNE01.JPG,AFNE01.JPG,AFNE01.JPG,AFNE01.JPG,AFNE01.JPG,,,,,,,,,,,,,,,,,,,,,1,5,15,7,,,AFSA04.jpg,AFSA07.jpg,AFNE18.jpg,AFNE17.jpg,AFSA07.jpg,FS,4,num_6,16,num_6,0.750160289463,,,2017_Nov_13_1208,60.0032909716,MAFE4ImagesEEG,001,201927,
AFNE01.JPG,AFNE01.JPG,AFNE01.JPG,AFNE01.JPG,AFNE01.JPG,AFNE01.JPG,,,,,,,,,,,,,,,,,,,,,1,6,16,3,,,AFSA02.jpg,AFSA01.jpg,AFNE03.jpg,AFNE05.jpg,AFNE05.jpg,FN,3,num_4,32,num_2,0.616774996743,,,2017_Nov_13_1208,60.0032909716,MAFE4ImagesEEG,001,201927,
AFNE01.JPG,AFNE01.JPG,AFNE01.JPG,AFNE01.JPG,AFNE01.JPG,AFNE01.JPG,,,,,,,,,,,,,,,,,,,,,1,7,17,4,,,AFSA13.jpg,AFSA09.jpg,AFNE01.jpg,AFNE14.jpg,AFNE01.jpg,FN,3,num_2,32,num_4,0.583577175159,,,2017_Nov_13_1208,60.0032909716,MAFE4ImagesEEG,001,201927,
AFNE01.JPG,AFNE01.JPG,AFNE01.JPG,AFNE01.JPG,AFNE01.JPG,AFNE01.JPG,,,,,,,,,,,,,,,,,,,,,1,8,18,6,,,AFNE13.jpg,AFNE14.jpg,AFSA15.jpg,AFSA03.jpg,AFNE14.jpg,FN,3,num_6,16,num_6,0.666839865968,,,2017_Nov_13_1208,60.0032909716,MAFE4ImagesEEG,001,201927,
AFNE01.JPG,AFNE01.JPG,AFNE01.JPG,AFNE01.JPG,AFNE01.JPG,AFNE01.JPG,,,,,,,,,,,,,,,,,,,,,1,9,19,5,,,AFSA02.jpg,AFSA07.jpg,AFNE14.jpg,AFNE10.jpg,AFNE14.jpg,FN,3,num_2,32,num_4,0.550213532522,,,2017_Nov_13_1208,60.0032909716,MAFE4ImagesEEG,001,201927,
AFNE01.JPG,AFNE01.JPG,AFNE01.JPG,AFNE01.JPG,AFNE01.JPG,AFNE01.JPG,,,,,,,,,,,,,,,,,,,,,2,0,20,4,,,AFSA14.jpg,AFNE09.jpg,AFSA08.jpg,AFNE06.jpg,AFNE06.jpg,FN,3,num_4,32,num_8,0.583505329676,,,2017_Nov_13_1208,60.0032909716,MAFE4ImagesEEG,001,201927,
AFNE01.JPG,AFNE01.JPG,AFNE01.JPG,AFNE01.JPG,AFNE01.JPG,AFNE01.JPG,,,,,,,,,,,,,,,,,,,,,2,1,21,5,,,AFNE14.jpg,AFNE20.jpg,AFSA02.jpg,AFSA03.jpg,AFSA03.jpg,FS,4,num_4,32,num_6,0.700281128287,,,2017_Nov_13_1208,60.0032909716,MAFE4ImagesEEG,001,201927,
AFNE01.JPG,AFNE01.JPG,AFNE01.JPG,AFNE01.JPG,AFNE01.JPG,AFNE01.JPG,,,,,,,,,,,,,,,,,,,,,2,2,22,8,,,AFSA16.jpg,AFSA18.jpg,AFNE20.jpg,AFNE11.jpg,AFNE11.jpg,FN,3,num_4,16,num_4,0.466847884469,,,2017_Nov_13_1208,60.0032909716,MAFE4ImagesEEG,001,201927,
AFNE01.JPG,AFNE01.JPG,AFNE01.JPG,AFNE01.JPG,AFNE01.JPG,AFNE01.JPG,,,,,,,,,,,,,,,,,,,,,2,3,23,6,,,AFSA18.jpg,AFSA15.jpg,AFNE17.jpg,AFNE07.jpg,AFSA15.jpg,FS,4,num_6,16,num_6,0.733467722777,,,2017_Nov_13_1208,60.0032909716,MAFE4ImagesEEG,001,201927,
AFNE01.JPG,AFNE01.JPG,AFNE01.JPG,AFNE01.JPG,AFNE01.JPG,AFNE01.JPG,,,,,,,,,,,,,,,,,,,,,2,4,24,0,,,AFNE09.jpg,AFNE06.jpg,AFSA04.jpg,AFSA10.jpg,AFNE06.jpg,FN,3,num_6,32,num_8,0.683423380833,,,2017_Nov_13_1208,60.0032909716,MAFE4ImagesEEG,001,201927,
AFNE01.JPG,AFNE01.JPG,AFNE01.JPG,AFNE01.JPG,AFNE01.JPG,AFNE01.JPG,,,,,,,,,,,,,,,,,,,,,2,5,25,2,,,AFNE20.jpg,AFSA17.jpg,AFNE07.jpg,AFSA02.jpg,AFNE07.jpg,FN,3,num_2,16,num_2,0.683798966929,,,2017_Nov_13_1208,60.0032909716,MAFE4ImagesEEG,001,201927,
AFNE01.JPG,AFNE01.JPG,AFNE01.JPG,AFNE01.JPG,AFNE01.JPG,AFNE01.JPG,,,,,,,,,,,,,,,,,,,,,2,6,26,1,,,AFSA14.jpg,AFNE20.jpg,AFNE01.jpg,AFSA10.jpg,AFNE01.jpg,FN,3,num_2,16,num_2,0.750111216214,,,2017_Nov_13_1208,60.0032909716,MAFE4ImagesEEG,001,201927,
AFNE01.JPG,AFNE01.JPG,AFNE01.JPG,AFNE01.JPG,AFNE01.JPG,AFNE01.JPG,,,,,,,,,,,,,,,,,,,,,2,7,27,7,,,AFSA09.jpg,AFNE06.jpg,AFNE07.jpg,AFSA19.jpg,AFSA09.jpg,FS,4,num_8,16,num_8,0.750128536485,,,2017_Nov_13_1208,60.0032909716,MAFE4ImagesEEG,001,201927,
AFNE01.JPG,AFNE01.JPG,AFNE01.JPG,AFNE01.JPG,AFNE01.JPG,AFNE01.JPG,,,,,,,,,,,,,,,,,,,,,2,8,28,9,,,AFSA04.jpg,AFNE07.jpg,AFSA11.jpg,AFNE20.jpg,AFNE07.jpg,FN,3,num_6,16,num_6,0.73354598321,,,2017_Nov_13_1208,60.0032909716,MAFE4ImagesEEG,001,201927,
AFNE01.JPG,AFNE01.JPG,AFNE01.JPG,AFNE01.JPG,AFNE01.JPG,AFNE01.JPG,,,,,,,,,,,,,,,,,,,,,2,9,29,3,,,AFNE04.jpg,AFNE09.jpg,AFSA08.jpg,AFSA16.jpg,AFSA16.jpg,FS,4,num_4,16,num_4,0.500122041442,,,2017_Nov_13_1208,60.0032909716,MAFE4ImagesEEG,001,201927,
AFNE01.JPG,AFNE01.JPG,AFNE01.JPG,AFNE01.JPG,AFNE01.JPG,AFNE01.JPG,,,,,,,,,,,,,,,,,,,,,3,0,30,6,,,AFSA14.jpg,AFNE09.jpg,AFNE20.jpg,AFSA09.jpg,AFSA14.jpg,FS,4,num_8,32,num_4,0.683404136449,,,2017_Nov_13_1208,60.0032909716,MAFE4ImagesEEG,001,201927,
AFNE01.JPG,AFNE01.JPG,AFNE01.JPG,AFNE01.JPG,AFNE01.JPG,AFNE01.JPG,,,,,,,,,,,,,,,,,,,,,3,1,31,2,,,AFSA16.jpg,AFSA02.jpg,AFNE08.jpg,AFNE14.jpg,AFSA16.jpg,FS,4,num_8,32,num_6,0.733443668112,,,2017_Nov_13_1208,60.0032909716,MAFE4ImagesEEG,001,201927,
AFNE01.JPG,AFNE01.JPG,AFNE01.JPG,AFNE01.JPG,AFNE01.JPG,AFNE01.JPG,,,,,,,,,,,,,,,,,,,,,3,2,32,4,,,AFSA17.jpg,AFNE06.jpg,AFSA16.jpg,AFNE04.jpg,AFNE06.jpg,FN,3,num_6,32,num_8,0.550244322978,,,2017_Nov_13_1208,60.0032909716,MAFE4ImagesEEG,001,201927,
AFNE01.JPG,AFNE01.JPG,AFNE01.JPG,AFNE01.JPG,AFNE01.JPG,AFNE01.JPG,,,,,,,,,,,,,,,,,,,,,3,3,33,1,,,AFNE20.jpg,AFSA01.jpg,AFSA13.jpg,AFNE17.jpg,AFNE17.jpg,FN,3,num_4,16,num_4,0.80016967142,,,2017_Nov_13_1208,60.0032909716,MAFE4ImagesEEG,001,201927,
AFNE01.JPG,AFNE01.JPG,AFNE01.JPG,AFNE01.JPG,AFNE01.JPG,AFNE01.JPG,,,,,,,,,,,,,,,,,,,,,3,4,34,7,,,AFNE09.jpg,AFNE17.jpg,AFSA15.jpg,AFSA03.jpg,AFSA15.jpg,FS,4,num_2,32,num_8,0.650152431335,,,2017_Nov_13_1208,60.0032909716,MAFE4ImagesEEG,001,201927,
AFNE01.JPG,AFNE01.JPG,AFNE01.JPG,AFNE01.JPG,AFNE01.JPG,AFNE01.JPG,,,,,,,,,,,,,,,,,,,,,3,5,35,0,,,AFSA03.jpg,AFNE04.jpg,AFSA05.jpg,AFNE05.jpg,AFNE05.jpg,FN,3,num_4,16,num_4,0.816826635506,,,2017_Nov_13_1208,60.0032909716,MAFE4ImagesEEG,001,201927,
AFNE01.JPG,AFNE01.JPG,AFNE01.JPG,AFNE01.JPG,AFNE01.JPG,AFNE01.JPG,,,,,,,,,,,,,,,,,,,,,3,6,36,5,,,AFNE16.jpg,AFSA15.jpg,AFSA14.jpg,AFNE11.jpg,AFSA14.jpg,FS,4,num_2,16,num_2,0.750196854118,,,2017_Nov_13_1208,60.0032909716,MAFE4ImagesEEG,001,201927,
AFNE01.JPG,AFNE01.JPG,AFNE01.JPG,AFNE01.JPG,AFNE01.JPG,AFNE01.JPG,,,,,,,,,,,,,,,,,,,,,3,7,37,9,,,AFSA20.jpg,AFNE19.jpg,AFSA14.jpg,AFNE20.jpg,AFNE20.jpg,FN,3,num_4,32,num_8,0.566813084297,,,2017_Nov_13_1208,60.0032909716,MAFE4ImagesEEG,001,201927,
AFNE01.JPG,AFNE01.JPG,AFNE01.JPG,AFNE01.JPG,AFNE01.JPG,AFNE01.JPG,,,,,,,,,,,,,,,,,,,,,3,8,38,8,,,AFSA04.jpg,AFNE12.jpg,AFNE05.jpg,AFSA20.jpg,AFNE12.jpg,FN,3,num_6,16,num_6,0.433347926941,,,2017_Nov_13_1208,60.0032909716,MAFE4ImagesEEG,001,201927,
