IPosition2,IPosition3,IPosition1,IPosition6,IPosition4,IPosition5,TrialsF1.thisRepN,TrialsF1.thisTrialN,TrialsF1.thisN,TrialsF1.thisIndex,TrialsM1.thisRepN,TrialsM1.thisTrialN,TrialsM1.thisN,TrialsM1.thisIndex,TrialsF2.thisRepN,TrialsF2.thisTrialN,TrialsF2.thisN,TrialsF2.thisIndex,TrialsM2.thisRepN,TrialsM2.thisTrialN,TrialsM2.thisN,TrialsM2.thisIndex,TrialsF3.thisRepN,TrialsF3.thisTrialN,TrialsF3.thisN,TrialsF3.thisIndex,TrialsM3.thisRepN,TrialsM3.thisTrialN,TrialsM3.thisN,TrialsM3.thisIndex,InstrKey_resp.keys,InstrKey_resp.rt,Image0 _Position,Image1 _Position,Image2 _Position,Image3 _Position,Center_image,condition,code,correct_answer,accuracy,Key_Resp.keys,Key_Resp.rt,BreakKey_resp.keys,BreakKey_resp.rt,date,frameRate,expName,session,participant,
,,,,,,,,,,,,,,,,,,,,,,,,,,,,,,space,6.96634865343,,,,,,,,,,,,,,2017_Oct_25_1501,59.994169542,FEMA4ImagesEEG,001,202061,
AFSA25.JPG,AFNE24.JPG,AFSA24.JPG,AFNE21.JPG,AFSA21.JPG,AFNE25.JPG,0,0,0,2,,,,,,,,,,,,,,,,,,,,,,,AFNE07.jpg,AFSA17.jpg,AFSA16.jpg,AFNE05.jpg,AFNE05.jpg,FN,3,num_4,32,num_8,0.883772024768,,,2017_Oct_25_1501,59.994169542,FEMA4ImagesEEG,001,202061,
AMSA21.JPG,AMNE22.JPG,AMNE21.JPG,AMSA23.JPG,AMSA22.JPG,AMNE23.JPG,0,1,1,1,,,,,,,,,,,,,,,,,,,,,,,AFNE19.jpg,AFSA05.jpg,AFSA15.jpg,AFNE03.jpg,AFNE19.jpg,FN,3,num_8,32,num_6,0.533462270629,,,2017_Oct_25_1501,59.994169542,FEMA4ImagesEEG,001,202061,
AMNE23.JPG,AMNE24.JPG,AMNE22.JPG,AMSA24.JPG,AMSA22.JPG,AMSA23.JPG,0,2,2,9,,,,,,,,,,,,,,,,,,,,,,,AFNE18.jpg,AFSA01.jpg,AFNE06.jpg,AFSA17.jpg,AFNE06.jpg,FN,3,num_2,32,num_8,0.73344751657,,,2017_Oct_25_1501,59.994169542,FEMA4ImagesEEG,001,202061,
AFNE23.JPG,AFNE24.JPG,AFNE22.JPG,AFSA24.JPG,AFSA22.JPG,AFSA23.JPG,0,3,3,8,,,,,,,,,,,,,,,,,,,,,,,AFSA16.jpg,AFNE05.jpg,AFSA15.jpg,AFNE04.jpg,AFNE05.jpg,FN,3,num_6,32,num_2,0.933435328538,,,2017_Oct_25_1501,59.994169542,FEMA4ImagesEEG,001,202061,
AMNE22.JPG,AMSA24.JPG,AMSA22.JPG,AMNE25.JPG,AMNE24.JPG,AMSA25.JPG,0,4,4,7,,,,,,,,,,,,,,,,,,,,,,,AFSA14.jpg,AFNE02.jpg,AFNE11.jpg,AFSA11.jpg,AFNE02.jpg,FN,3,num_6,32,num_2,1.24994651671,,,2017_Oct_25_1501,59.994169542,FEMA4ImagesEEG,001,202061,
AFNE22.JPG,AFSA24.JPG,AFSA22.JPG,AFNE25.JPG,AFNE24.JPG,AFSA25.JPG,0,5,5,6,,,,,,,,,,,,,,,,,,,,,,,AFSA03.jpg,AFNE14.jpg,AFSA19.jpg,AFNE08.jpg,AFSA03.jpg,FS,4,num_8,32,num_4,0.533476383076,,,2017_Oct_25_1501,59.994169542,FEMA4ImagesEEG,001,202061,
AMSA21.JPG,AMNE23.JPG,AMNE21.JPG,AMSA25.JPG,AMNE25.JPG,AMSA23.JPG,0,6,6,5,,,,,,,,,,,,,,,,,,,,,,,AFSA04.jpg,AFSA16.jpg,AFNE12.jpg,AFNE09.jpg,AFNE09.jpg,FN,3,num_4,32,num_2,1.35008555732,,,2017_Oct_25_1501,59.994169542,FEMA4ImagesEEG,001,202061,
AFSA21.JPG,AFNE23.JPG,AFNE21.JPG,AFSA25.JPG,AFNE25.JPG,AFSA23.JPG,0,7,7,4,,,,,,,,,,,,,,,,,,,,,,,AFNE01.jpg,AFSA06.jpg,AFSA08.jpg,AFNE04.jpg,AFNE01.jpg,FN,3,num_8,32,num_4,0.750159327406,,,2017_Oct_25_1501,59.994169542,FEMA4ImagesEEG,001,202061,
AFSA21.JPG,AFNE22.JPG,AFNE21.JPG,AFSA23.JPG,AFSA22.JPG,AFNE23.JPG,0,8,8,0,,,,,,,,,,,,,,,,,,,,,,,AFNE20.jpg,AFNE01.jpg,AFSA06.jpg,AFSA02.jpg,AFNE01.jpg,FN,3,num_6,32,num_8,0.700109211728,,,2017_Oct_25_1501,59.994169542,FEMA4ImagesEEG,001,202061,
AMSA25.JPG,AMNE24.JPG,AMSA24.JPG,AMNE26.JPG,AMSA21.JPG,AMNE25.JPG,0,9,9,3,,,,,,,,,,,,,,,,,,,,,,,AFSA03.jpg,AFSA14.jpg,AFNE17.jpg,AFNE02.jpg,AFNE17.jpg,FN,3,num_2,32,num_8,0.716782533797,,,2017_Oct_25_1501,59.994169542,FEMA4ImagesEEG,001,202061,
AFSA21.JPG,AFNE22.JPG,AFNE21.JPG,AFSA23.JPG,AFSA22.JPG,AFNE23.JPG,,,,,0,0,0,0,,,,,,,,,,,,,,,,,,,AMSA05.jpg,AMNE03.jpg,AMNE18.jpg,AMSA17.jpg,AMSA17.jpg,MS,2,num_4,16,num_4,0.550198778394,,,2017_Oct_25_1501,59.994169542,FEMA4ImagesEEG,001,202061,
AFNE22.JPG,AFSA24.JPG,AFSA22.JPG,AFNE25.JPG,AFNE24.JPG,AFSA25.JPG,,,,,0,1,1,6,,,,,,,,,,,,,,,,,,,AMNE09.jpg,AMSA13.jpg,AMSA19.jpg,AMNE01.jpg,AMSA13.jpg,MS,2,num_6,16,num_6,0.40049586317,,,2017_Oct_25_1501,59.994169542,FEMA4ImagesEEG,001,202061,
AFSA21.JPG,AFNE23.JPG,AFNE21.JPG,AFSA25.JPG,AFNE25.JPG,AFSA23.JPG,,,,,0,2,2,4,,,,,,,,,,,,,,,,,,,AMSA01.jpg,AMNE01.jpg,AMNE20.jpg,AMSA08.jpg,AMSA08.jpg,MS,2,num_4,16,num_4,0.550158685888,,,2017_Oct_25_1501,59.994169542,FEMA4ImagesEEG,001,202061,
AMNE22.JPG,AMSA24.JPG,AMSA22.JPG,AMNE25.JPG,AMNE24.JPG,AMSA25.JPG,,,,,0,3,3,7,,,,,,,,,,,,,,,,,,,AMNE03.jpg,AMNE10.jpg,AMSA11.jpg,AMSA03.jpg,AMSA03.jpg,MS,2,num_4,16,num_4,0.766796405776,,,2017_Oct_25_1501,59.994169542,FEMA4ImagesEEG,001,202061,
AFSA25.JPG,AFNE24.JPG,AFSA24.JPG,AFNE21.JPG,AFSA21.JPG,AFNE25.JPG,,,,,0,4,4,2,,,,,,,,,,,,,,,,,,,AMNE04.jpg,AMSA20.jpg,AMNE20.jpg,AMSA13.jpg,AMSA13.jpg,MS,2,num_4,32,num_2,1.56672391866,,,2017_Oct_25_1501,59.994169542,FEMA4ImagesEEG,001,202061,
AMSA25.JPG,AMNE24.JPG,AMSA24.JPG,AMNE26.JPG,AMSA21.JPG,AMNE25.JPG,,,,,0,5,5,3,,,,,,,,,,,,,,,,,,,AMSA12.jpg,AMNE03.jpg,AMNE07.jpg,AMSA01.jpg,AMSA01.jpg,MS,2,num_4,16,num_4,0.43351086264,,,2017_Oct_25_1501,59.994169542,FEMA4ImagesEEG,001,202061,
AMSA21.JPG,AMNE23.JPG,AMNE21.JPG,AMSA25.JPG,AMNE25.JPG,AMSA23.JPG,,,,,0,6,6,5,,,,,,,,,,,,,,,,,,,AMSA06.jpg,AMNE13.jpg,AMSA08.jpg,AMNE05.jpg,AMNE05.jpg,MN,1,num_4,32,num_6,0.550156119978,,,2017_Oct_25_1501,59.994169542,FEMA4ImagesEEG,001,202061,
AMNE23.JPG,AMNE24.JPG,AMNE22.JPG,AMSA24.JPG,AMSA22.JPG,AMSA23.JPG,,,,,0,7,7,9,,,,,,,,,,,,,,,,,,,AMSA07.jpg,AMNE16.jpg,AMSA11.jpg,AMNE15.jpg,AMSA11.jpg,MS,2,num_2,32,num_8,0.616773392772,,,2017_Oct_25_1501,59.994169542,FEMA4ImagesEEG,001,202061,
AFNE23.JPG,AFNE24.JPG,AFNE22.JPG,AFSA24.JPG,AFSA22.JPG,AFSA23.JPG,,,,,0,8,8,8,,,,,,,,,,,,,,,,,,,AMSA02.jpg,AMNE17.jpg,AMSA03.jpg,AMNE11.jpg,AMNE11.jpg,MN,1,num_4,32,num_8,0.816764411982,,,2017_Oct_25_1501,59.994169542,FEMA4ImagesEEG,001,202061,
AMSA21.JPG,AMNE22.JPG,AMNE21.JPG,AMSA23.JPG,AMSA22.JPG,AMNE23.JPG,,,,,0,9,9,1,,,,,,,,,,,,,,,,,,,AMNE07.jpg,AMSA02.jpg,AMNE17.jpg,AMSA19.jpg,AMSA02.jpg,MS,2,num_6,16,num_6,0.500185868586,,,2017_Oct_25_1501,59.994169542,FEMA4ImagesEEG,001,202061,
AFNE23.JPG,AFNE24.JPG,AFNE22.JPG,AFSA24.JPG,AFSA22.JPG,AFSA23.JPG,,,,,,,,,0,0,0,8,,,,,,,,,,,,,,,AFNE04.jpg,AFNE06.jpg,AFSA06.jpg,AFSA08.jpg,AFNE04.jpg,FN,3,num_8,16,num_8,1.04991636716,,,2017_Oct_25_1501,59.994169542,FEMA4ImagesEEG,001,202061,
AMSA21.JPG,AMNE23.JPG,AMNE21.JPG,AMSA25.JPG,AMNE25.JPG,AMSA23.JPG,,,,,,,,,0,1,1,5,,,,,,,,,,,,,,,AFSA07.jpg,AFSA04.jpg,AFNE16.jpg,AFNE08.jpg,AFSA04.jpg,FS,4,num_6,32,num_4,1.20010071213,,,2017_Oct_25_1501,59.994169542,FEMA4ImagesEEG,001,202061,
AMSA25.JPG,AMNE24.JPG,AMSA24.JPG,AMNE26.JPG,AMSA21.JPG,AMNE25.JPG,,,,,,,,,0,2,2,3,,,,,,,,,,,,,,,AFNE14.jpg,AFNE18.jpg,AFSA03.jpg,AFSA12.jpg,AFSA12.jpg,FS,4,num_4,16,num_4,2.76667035511,,,2017_Oct_25_1501,59.994169542,FEMA4ImagesEEG,001,202061,
AFSA21.JPG,AFNE23.JPG,AFNE21.JPG,AFSA25.JPG,AFNE25.JPG,AFSA23.JPG,,,,,,,,,0,3,3,4,,,,,,,,,,,,,,,AFSA04.jpg,AFNE09.jpg,AFSA17.jpg,AFNE17.jpg,AFSA04.jpg,FS,4,num_8,16,num_8,0.716738592484,,,2017_Oct_25_1501,59.994169542,FEMA4ImagesEEG,001,202061,
AFSA25.JPG,AFNE24.JPG,AFSA24.JPG,AFNE21.JPG,AFSA21.JPG,AFNE25.JPG,,,,,,,,,0,4,4,2,,,,,,,,,,,,,,,AFNE01.jpg,AFNE10.jpg,AFSA11.jpg,AFSA09.jpg,AFSA11.jpg,FS,4,num_2,32,num_8,0.700182981906,,,2017_Oct_25_1501,59.994169542,FEMA4ImagesEEG,001,202061,
AMNE23.JPG,AMNE24.JPG,AMNE22.JPG,AMSA24.JPG,AMSA22.JPG,AMSA23.JPG,,,,,,,,,0,5,5,9,,,,,,,,,,,,,,,AFSA09.jpg,AFNE07.jpg,AFNE14.jpg,AFSA01.jpg,AFNE14.jpg,FN,3,num_2,32,num_6,1.14997971326,,,2017_Oct_25_1501,59.994169542,FEMA4ImagesEEG,001,202061,
AMSA21.JPG,AMNE22.JPG,AMNE21.JPG,AMSA23.JPG,AMSA22.JPG,AMNE23.JPG,,,,,,,,,0,6,6,1,,,,,,,,,,,,,,,AFNE14.jpg,AFSA19.jpg,AFNE10.jpg,AFSA11.jpg,AFSA11.jpg,FS,4,num_4,32,num_8,0.71682551282,,,2017_Oct_25_1501,59.994169542,FEMA4ImagesEEG,001,202061,
AMNE22.JPG,AMSA24.JPG,AMSA22.JPG,AMNE25.JPG,AMNE24.JPG,AMSA25.JPG,,,,,,,,,0,7,7,7,,,,,,,,,,,,,,,AFNE09.jpg,AFSA08.jpg,AFNE04.jpg,AFSA11.jpg,AFSA08.jpg,FS,4,num_6,16,num_6,0.516806910047,,,2017_Oct_25_1501,59.994169542,FEMA4ImagesEEG,001,202061,
AFSA21.JPG,AFNE22.JPG,AFNE21.JPG,AFSA23.JPG,AFSA22.JPG,AFNE23.JPG,,,,,,,,,0,8,8,0,,,,,,,,,,,,,,,AFNE10.jpg,AFSA05.jpg,AFSA04.jpg,AFNE18.jpg,AFSA04.jpg,FS,4,num_2,32,num_4,0.45016173285,,,2017_Oct_25_1501,59.994169542,FEMA4ImagesEEG,001,202061,
AFNE22.JPG,AFSA24.JPG,AFSA22.JPG,AFNE25.JPG,AFNE24.JPG,AFSA25.JPG,,,,,,,,,0,9,9,6,,,,,,,,,,,,,,,AFSA02.jpg,AFNE08.jpg,AFSA06.jpg,AFNE16.jpg,AFSA06.jpg,FS,4,num_2,32,num_8,0.550168949529,,,2017_Oct_25_1501,59.994169542,FEMA4ImagesEEG,001,202061,
AFSA25.JPG,AFNE24.JPG,AFSA24.JPG,AFNE21.JPG,AFSA21.JPG,AFNE25.JPG,,,,,,,,,,,,,0,0,0,2,,,,,,,,,,,AMSA09.jpg,AMNE03.jpg,AMSA11.jpg,AMNE16.jpg,AMNE16.jpg,MN,1,num_4,16,num_4,1.11676361016,,,2017_Oct_25_1501,59.994169542,FEMA4ImagesEEG,001,202061,
AMNE23.JPG,AMNE24.JPG,AMNE22.JPG,AMSA24.JPG,AMSA22.JPG,AMSA23.JPG,,,,,,,,,,,,,0,1,1,9,,,,,,,,,,,AMSA04.jpg,AMNE07.jpg,AMSA17.jpg,AMNE04.jpg,AMNE07.jpg,MN,1,num_6,32,num_8,0.350159327383,,,2017_Oct_25_1501,59.994169542,FEMA4ImagesEEG,001,202061,
AMNE22.JPG,AMSA24.JPG,AMSA22.JPG,AMNE25.JPG,AMNE24.JPG,AMSA25.JPG,,,,,,,,,,,,,0,2,2,7,,,,,,,,,,,AMNE02.jpg,AMNE04.jpg,AMSA14.jpg,AMSA07.jpg,AMNE04.jpg,MN,1,num_6,32,num_2,0.366793519119,,,2017_Oct_25_1501,59.994169542,FEMA4ImagesEEG,001,202061,
AMSA25.JPG,AMNE24.JPG,AMSA24.JPG,AMNE26.JPG,AMSA21.JPG,AMNE25.JPG,,,,,,,,,,,,,0,3,3,3,,,,,,,,,,,AMSA04.jpg,AMSA18.jpg,AMNE14.jpg,AMNE20.jpg,AMNE20.jpg,MN,1,num_4,32,num_6,0.43348680716,,,2017_Oct_25_1501,59.994169542,FEMA4ImagesEEG,001,202061,
AFNE22.JPG,AFSA24.JPG,AFSA22.JPG,AFNE25.JPG,AFNE24.JPG,AFSA25.JPG,,,,,,,,,,,,,0,4,4,6,,,,,,,,,,,AMSA16.jpg,AMSA02.jpg,AMNE02.jpg,AMNE18.jpg,AMSA02.jpg,MS,2,num_6,32,num_4,0.583781807334,,,2017_Oct_25_1501,59.994169542,FEMA4ImagesEEG,001,202061,
AFNE23.JPG,AFNE24.JPG,AFNE22.JPG,AFSA24.JPG,AFSA22.JPG,AFSA23.JPG,,,,,,,,,,,,,0,5,5,8,,,,,,,,,,,AMSA03.jpg,AMNE06.jpg,AMNE14.jpg,AMSA13.jpg,AMNE06.jpg,MN,1,num_6,32,num_4,0.933557209442,,,2017_Oct_25_1501,59.994169542,FEMA4ImagesEEG,001,202061,
AMSA21.JPG,AMNE22.JPG,AMNE21.JPG,AMSA23.JPG,AMSA22.JPG,AMNE23.JPG,,,,,,,,,,,,,0,6,6,1,,,,,,,,,,,AMSA20.jpg,AMNE02.jpg,AMNE15.jpg,AMSA06.jpg,AMSA20.jpg,MS,2,num_8,16,num_8,1.08344647416,,,2017_Oct_25_1501,59.994169542,FEMA4ImagesEEG,001,202061,
AMSA21.JPG,AMNE23.JPG,AMNE21.JPG,AMSA25.JPG,AMNE25.JPG,AMSA23.JPG,,,,,,,,,,,,,0,7,7,5,,,,,,,,,,,AMNE05.jpg,AMSA09.jpg,AMSA05.jpg,AMNE17.jpg,AMSA05.jpg,MS,2,num_2,16,num_2,0.9501112164,,,2017_Oct_25_1501,59.994169542,FEMA4ImagesEEG,001,202061,
AFSA21.JPG,AFNE23.JPG,AFNE21.JPG,AFSA25.JPG,AFNE25.JPG,AFSA23.JPG,,,,,,,,,,,,,0,8,8,4,,,,,,,,,,,AMSA03.jpg,AMNE07.jpg,AMNE09.jpg,AMSA06.jpg,AMSA03.jpg,MS,2,num_8,32,num_4,0.666428998695,,,2017_Oct_25_1501,59.994169542,FEMA4ImagesEEG,001,202061,
AFSA21.JPG,AFNE22.JPG,AFNE21.JPG,AFSA23.JPG,AFSA22.JPG,AFNE23.JPG,,,,,,,,,,,,,0,9,9,0,,,,,,,,,,,AMSA01.jpg,AMNE19.jpg,AMNE12.jpg,AMSA15.jpg,AMSA15.jpg,MS,2,num_4,16,num_4,0.483565789298,,,2017_Oct_25_1501,59.994169542,FEMA4ImagesEEG,001,202061,
AMSA21.JPG,AMNE22.JPG,AMNE21.JPG,AMSA23.JPG,AMSA22.JPG,AMNE23.JPG,,,,,,,,,,,,,,,,,0,0,0,1,,,,,,,AFNE13.jpg,AFNE11.jpg,AFSA02.jpg,AFSA01.jpg,AFSA01.jpg,FS,4,num_4,32,num_2,0.650150507106,,,2017_Oct_25_1501,59.994169542,FEMA4ImagesEEG,001,202061,
AMNE22.JPG,AMSA24.JPG,AMSA22.JPG,AMNE25.JPG,AMNE24.JPG,AMSA25.JPG,,,,,,,,,,,,,,,,,0,1,1,7,,,,,,,AFSA13.jpg,AFSA05.jpg,AFNE01.jpg,AFNE02.jpg,AFSA05.jpg,FS,4,num_6,16,num_6,0.766742200707,,,2017_Oct_25_1501,59.994169542,FEMA4ImagesEEG,001,202061,
AFNE22.JPG,AFSA24.JPG,AFSA22.JPG,AFNE25.JPG,AFNE24.JPG,AFSA25.JPG,,,,,,,,,,,,,,,,,0,2,2,6,,,,,,,AFNE09.jpg,AFNE08.jpg,AFSA05.jpg,AFSA15.jpg,AFSA15.jpg,FS,4,num_4,16,num_4,0.566831366392,,,2017_Oct_25_1501,59.994169542,FEMA4ImagesEEG,001,202061,
AFSA21.JPG,AFNE22.JPG,AFNE21.JPG,AFSA23.JPG,AFSA22.JPG,AFNE23.JPG,,,,,,,,,,,,,,,,,0,3,3,0,,,,,,,AFSA02.jpg,AFNE19.jpg,AFNE05.jpg,AFSA16.jpg,AFNE05.jpg,FN,3,num_2,32,num_8,0.899815735174,,,2017_Oct_25_1501,59.994169542,FEMA4ImagesEEG,001,202061,
AFNE23.JPG,AFNE24.JPG,AFNE22.JPG,AFSA24.JPG,AFSA22.JPG,AFSA23.JPG,,,,,,,,,,,,,,,,,0,4,4,8,,,,,,,AFSA10.jpg,AFSA04.jpg,AFNE05.jpg,AFNE18.jpg,AFNE05.jpg,FN,3,num_2,16,num_2,1.30011723028,,,2017_Oct_25_1501,59.994169542,FEMA4ImagesEEG,001,202061,
AMSA25.JPG,AMNE24.JPG,AMSA24.JPG,AMNE26.JPG,AMSA21.JPG,AMNE25.JPG,,,,,,,,,,,,,,,,,0,5,5,3,,,,,,,AFSA02.jpg,AFSA19.jpg,AFNE12.jpg,AFNE10.jpg,AFSA02.jpg,FS,4,num_8,16,num_8,0.350206155214,,,2017_Oct_25_1501,59.994169542,FEMA4ImagesEEG,001,202061,
AMNE23.JPG,AMNE24.JPG,AMNE22.JPG,AMSA24.JPG,AMSA22.JPG,AMSA23.JPG,,,,,,,,,,,,,,,,,0,6,6,9,,,,,,,AFSA06.jpg,AFSA08.jpg,AFNE10.jpg,AFNE15.jpg,AFNE10.jpg,FN,3,num_2,32,num_6,0.433563463856,,,2017_Oct_25_1501,59.994169542,FEMA4ImagesEEG,001,202061,
AFSA21.JPG,AFNE23.JPG,AFNE21.JPG,AFSA25.JPG,AFNE25.JPG,AFSA23.JPG,,,,,,,,,,,,,,,,,0,7,7,4,,,,,,,AFNE05.jpg,AFNE16.jpg,AFSA03.jpg,AFSA20.jpg,AFSA20.jpg,FS,4,num_4,16,num_4,0.333514871891,,,2017_Oct_25_1501,59.994169542,FEMA4ImagesEEG,001,202061,
AFSA25.JPG,AFNE24.JPG,AFSA24.JPG,AFNE21.JPG,AFSA21.JPG,AFNE25.JPG,,,,,,,,,,,,,,,,,0,8,8,2,,,,,,,AFNE15.jpg,AFSA14.jpg,AFNE04.jpg,AFSA01.jpg,AFSA14.jpg,FS,4,num_6,32,num_4,0.483508697711,,,2017_Oct_25_1501,59.994169542,FEMA4ImagesEEG,001,202061,
AMSA21.JPG,AMNE23.JPG,AMNE21.JPG,AMSA25.JPG,AMNE25.JPG,AMSA23.JPG,,,,,,,,,,,,,,,,,0,9,9,5,,,,,,,AFNE19.jpg,AFSA01.jpg,AFSA08.jpg,AFNE08.jpg,AFSA08.jpg,FS,4,num_2,16,num_2,0.650101433857,,,2017_Oct_25_1501,59.994169542,FEMA4ImagesEEG,001,202061,
AFSA21.JPG,AFNE23.JPG,AFNE21.JPG,AFSA25.JPG,AFNE25.JPG,AFSA23.JPG,,,,,,,,,,,,,,,,,,,,,0,0,0,4,,,AMNE01.jpg,AMSA02.jpg,AMSA05.jpg,AMNE04.jpg,AMSA05.jpg,MS,2,num_2,32,num_4,0.416863520513,,,2017_Oct_25_1501,59.994169542,FEMA4ImagesEEG,001,202061,
AMNE23.JPG,AMNE24.JPG,AMNE22.JPG,AMSA24.JPG,AMSA22.JPG,AMSA23.JPG,,,,,,,,,,,,,,,,,,,,,0,1,1,9,,,AMNE19.jpg,AMSA03.jpg,AMNE05.jpg,AMSA09.jpg,AMNE05.jpg,MN,1,num_2,32,num_6,0.516798891593,,,2017_Oct_25_1501,59.994169542,FEMA4ImagesEEG,001,202061,
AFNE23.JPG,AFNE24.JPG,AFNE22.JPG,AFSA24.JPG,AFSA22.JPG,AFSA23.JPG,,,,,,,,,,,,,,,,,,,,,0,2,2,8,,,AMSA12.jpg,AMSA02.jpg,AMNE15.jpg,AMNE19.jpg,AMNE19.jpg,MN,1,num_4,16,num_4,0.383470689994,,,2017_Oct_25_1501,59.994169542,FEMA4ImagesEEG,001,202061,
AFNE22.JPG,AFSA24.JPG,AFSA22.JPG,AFNE25.JPG,AFNE24.JPG,AFSA25.JPG,,,,,,,,,,,,,,,,,,,,,0,3,3,6,,,AMSA16.jpg,AMNE01.jpg,AMNE04.jpg,AMSA03.jpg,AMNE04.jpg,MN,1,num_2,32,num_4,0.533519041492,,,2017_Oct_25_1501,59.994169542,FEMA4ImagesEEG,001,202061,
AFSA21.JPG,AFNE22.JPG,AFNE21.JPG,AFSA23.JPG,AFSA22.JPG,AFNE23.JPG,,,,,,,,,,,,,,,,,,,,,0,4,4,0,,,AMNE01.jpg,AMSA13.jpg,AMSA15.jpg,AMNE03.jpg,AMNE01.jpg,MN,1,num_8,32,num_2,0.500230130507,,,2017_Oct_25_1501,59.994169542,FEMA4ImagesEEG,001,202061,
AMSA25.JPG,AMNE24.JPG,AMSA24.JPG,AMNE26.JPG,AMSA21.JPG,AMNE25.JPG,,,,,,,,,,,,,,,,,,,,,0,5,5,3,,,AMSA12.jpg,AMNE03.jpg,AMNE15.jpg,AMSA08.jpg,AMNE15.jpg,MN,1,num_2,32,num_4,0.316797287785,,,2017_Oct_25_1501,59.994169542,FEMA4ImagesEEG,001,202061,
AFSA25.JPG,AFNE24.JPG,AFSA24.JPG,AFNE21.JPG,AFSA21.JPG,AFNE25.JPG,,,,,,,,,,,,,,,,,,,,,0,6,6,2,,,AMNE01.jpg,AMNE07.jpg,AMSA05.jpg,AMSA12.jpg,AMSA05.jpg,MS,2,num_2,32,num_4,0.383538686787,,,2017_Oct_25_1501,59.994169542,FEMA4ImagesEEG,001,202061,
AMNE22.JPG,AMSA24.JPG,AMSA22.JPG,AMNE25.JPG,AMNE24.JPG,AMSA25.JPG,,,,,,,,,,,,,,,,,,,,,0,7,7,7,,,AMSA11.jpg,AMNE17.jpg,AMSA20.jpg,AMNE04.jpg,AMNE04.jpg,MN,1,num_4,16,num_4,1.03347077023,,,2017_Oct_25_1501,59.994169542,FEMA4ImagesEEG,001,202061,
AMSA21.JPG,AMNE23.JPG,AMNE21.JPG,AMSA25.JPG,AMNE25.JPG,AMSA23.JPG,,,,,,,,,,,,,,,,,,,,,0,8,8,5,,,AMNE06.jpg,AMSA15.jpg,AMSA19.jpg,AMNE16.jpg,AMNE06.jpg,MN,1,num_8,16,num_8,1.56676657707,,,2017_Oct_25_1501,59.994169542,FEMA4ImagesEEG,001,202061,
AMSA21.JPG,AMNE22.JPG,AMNE21.JPG,AMSA23.JPG,AMSA22.JPG,AMNE23.JPG,,,,,,,,,,,,,,,,,,,,,0,9,9,1,,,AMNE09.jpg,AMSA10.jpg,AMSA08.jpg,AMNE08.jpg,AMNE09.jpg,MN,1,num_8,32,num_4,1.06672183378,,,2017_Oct_25_1501,59.994169542,FEMA4ImagesEEG,001,202061,
,,,,,,,,,,,,,,,,,,,,,,,,,,,,,,,,,,,,,,,,,,,space,5.91640085389,2017_Oct_25_1501,59.994169542,FEMA4ImagesEEG,001,202061,
AFNE01.JPG,AFNE01.JPG,AFNE01.JPG,AFNE01.JPG,AFNE01.JPG,AFNE01.JPG,0,0,0,2,,,,,,,,,,,,,,,,,,,,,,,AFNE13.jpg,AFSA07.jpg,AFSA01.jpg,AFNE14.jpg,AFSA01.jpg,FS,4,num_2,16,num_2,0.450141205569,,,2017_Oct_25_1501,59.994169542,FEMA4ImagesEEG,001,202061,
AFNE01.JPG,AFNE01.JPG,AFNE01.JPG,AFNE01.JPG,AFNE01.JPG,AFNE01.JPG,0,1,1,6,,,,,,,,,,,,,,,,,,,,,,,AFNE17.jpg,AFSA18.jpg,AFSA10.jpg,AFNE19.jpg,AFSA18.jpg,FS,4,num_6,16,num_6,1.28352697985,,,2017_Oct_25_1501,59.994169542,FEMA4ImagesEEG,001,202061,
AFNE01.JPG,AFNE01.JPG,AFNE01.JPG,AFNE01.JPG,AFNE01.JPG,AFNE01.JPG,0,2,2,8,,,,,,,,,,,,,,,,,,,,,,,AFNE14.jpg,AFSA16.jpg,AFNE18.jpg,AFSA17.jpg,AFNE14.jpg,FN,3,num_8,16,num_8,0.733443347039,,,2017_Oct_25_1501,59.994169542,FEMA4ImagesEEG,001,202061,
AFNE01.JPG,AFNE01.JPG,AFNE01.JPG,AFNE01.JPG,AFNE01.JPG,AFNE01.JPG,0,3,3,9,,,,,,,,,,,,,,,,,,,,,,,AFSA07.jpg,AFSA01.jpg,AFNE11.jpg,AFNE14.jpg,AFSA07.jpg,FS,4,num_8,16,num_8,0.516736668069,,,2017_Oct_25_1501,59.994169542,FEMA4ImagesEEG,001,202061,
AFNE01.JPG,AFNE01.JPG,AFNE01.JPG,AFNE01.JPG,AFNE01.JPG,AFNE01.JPG,0,4,4,3,,,,,,,,,,,,,,,,,,,,,,,AFSA03.jpg,AFNE06.jpg,AFNE17.jpg,AFSA04.jpg,AFNE06.jpg,FN,3,num_6,16,num_6,1.01675511058,,,2017_Oct_25_1501,59.994169542,FEMA4ImagesEEG,001,202061,
AFNE01.JPG,AFNE01.JPG,AFNE01.JPG,AFNE01.JPG,AFNE01.JPG,AFNE01.JPG,0,5,5,1,,,,,,,,,,,,,,,,,,,,,,,AFSA06.jpg,AFNE14.jpg,AFSA04.jpg,AFNE11.jpg,AFNE14.jpg,FN,3,num_6,32,num_2,1.31682390918,,,2017_Oct_25_1501,59.994169542,FEMA4ImagesEEG,001,202061,
AFNE01.JPG,AFNE01.JPG,AFNE01.JPG,AFNE01.JPG,AFNE01.JPG,AFNE01.JPG,0,6,6,0,,,,,,,,,,,,,,,,,,,,,,,AFSA06.jpg,AFNE12.jpg,AFSA16.jpg,AFNE17.jpg,AFNE12.jpg,FN,3,num_6,16,num_6,0.666817414225,,,2017_Oct_25_1501,59.994169542,FEMA4ImagesEEG,001,202061,
AFNE01.JPG,AFNE01.JPG,AFNE01.JPG,AFNE01.JPG,AFNE01.JPG,AFNE01.JPG,0,7,7,7,,,,,,,,,,,,,,,,,,,,,,,AFNE15.jpg,AFSA05.jpg,AFNE04.jpg,AFSA13.jpg,AFSA13.jpg,FS,4,num_4,32,num_8,0.66678020847,,,2017_Oct_25_1501,59.994169542,FEMA4ImagesEEG,001,202061,
AFNE01.JPG,AFNE01.JPG,AFNE01.JPG,AFNE01.JPG,AFNE01.JPG,AFNE01.JPG,0,8,8,4,,,,,,,,,,,,,,,,,,,,,,,AFSA13.jpg,AFNE20.jpg,AFNE15.jpg,AFSA07.jpg,AFSA13.jpg,FS,4,num_8,32,num_6,0.400227404316,,,2017_Oct_25_1501,59.994169542,FEMA4ImagesEEG,001,202061,
AFNE01.JPG,AFNE01.JPG,AFNE01.JPG,AFNE01.JPG,AFNE01.JPG,AFNE01.JPG,0,9,9,5,,,,,,,,,,,,,,,,,,,,,,,AFNE08.jpg,AFSA12.jpg,AFNE17.jpg,AFSA18.jpg,AFNE08.jpg,FN,3,num_8,16,num_8,0.683501641382,,,2017_Oct_25_1501,59.994169542,FEMA4ImagesEEG,001,202061,
AFNE01.JPG,AFNE01.JPG,AFNE01.JPG,AFNE01.JPG,AFNE01.JPG,AFNE01.JPG,1,0,10,2,,,,,,,,,,,,,,,,,,,,,,,AFNE17.jpg,AFNE16.jpg,AFSA01.jpg,AFSA05.jpg,AFNE16.jpg,FN,3,num_6,16,num_6,1.85004979477,,,2017_Oct_25_1501,59.994169542,FEMA4ImagesEEG,001,202061,
AFNE01.JPG,AFNE01.JPG,AFNE01.JPG,AFNE01.JPG,AFNE01.JPG,AFNE01.JPG,1,1,11,4,,,,,,,,,,,,,,,,,,,,,,,AFSA18.jpg,AFNE18.jpg,AFNE12.jpg,AFSA06.jpg,AFSA18.jpg,FS,4,num_8,16,num_8,0.50014417246,,,2017_Oct_25_1501,59.994169542,FEMA4ImagesEEG,001,202061,
AFNE01.JPG,AFNE01.JPG,AFNE01.JPG,AFNE01.JPG,AFNE01.JPG,AFNE01.JPG,1,2,12,5,,,,,,,,,,,,,,,,,,,,,,,AFSA17.jpg,AFNE04.jpg,AFNE10.jpg,AFSA08.jpg,AFNE10.jpg,FN,3,num_2,32,num_6,0.933483439498,,,2017_Oct_25_1501,59.994169542,FEMA4ImagesEEG,001,202061,
AFNE01.JPG,AFNE01.JPG,AFNE01.JPG,AFNE01.JPG,AFNE01.JPG,AFNE01.JPG,1,3,13,0,,,,,,,,,,,,,,,,,,,,,,,AFNE12.jpg,AFNE20.jpg,AFSA15.jpg,AFSA20.jpg,AFNE12.jpg,FN,3,num_8,32,num_2,0.850117150112,,,2017_Oct_25_1501,59.994169542,FEMA4ImagesEEG,001,202061,
AFNE01.JPG,AFNE01.JPG,AFNE01.JPG,AFNE01.JPG,AFNE01.JPG,AFNE01.JPG,1,4,14,1,,,,,,,,,,,,,,,,,,,,,,,AFNE08.jpg,AFSA09.jpg,AFSA18.jpg,AFNE06.jpg,AFNE08.jpg,FN,3,num_8,32,num_6,0.800167746842,,,2017_Oct_25_1501,59.994169542,FEMA4ImagesEEG,001,202061,
AFNE01.JPG,AFNE01.JPG,AFNE01.JPG,AFNE01.JPG,AFNE01.JPG,AFNE01.JPG,1,5,15,7,,,,,,,,,,,,,,,,,,,,,,,AFNE11.jpg,AFSA13.jpg,AFSA06.jpg,AFNE09.jpg,AFSA13.jpg,FS,4,num_6,16,num_6,0.650153714349,,,2017_Oct_25_1501,59.994169542,FEMA4ImagesEEG,001,202061,
AFNE01.JPG,AFNE01.JPG,AFNE01.JPG,AFNE01.JPG,AFNE01.JPG,AFNE01.JPG,1,6,16,8,,,,,,,,,,,,,,,,,,,,,,,AFSA14.jpg,AFNE02.jpg,AFNE13.jpg,AFSA04.jpg,AFSA14.jpg,FS,4,num_8,32,num_4,0.716787024168,,,2017_Oct_25_1501,59.994169542,FEMA4ImagesEEG,001,202061,
AFNE01.JPG,AFNE01.JPG,AFNE01.JPG,AFNE01.JPG,AFNE01.JPG,AFNE01.JPG,1,7,17,9,,,,,,,,,,,,,,,,,,,,,,,AFNE18.jpg,AFNE13.jpg,AFSA06.jpg,AFSA07.jpg,AFSA06.jpg,FS,4,num_2,16,num_2,0.949988052365,,,2017_Oct_25_1501,59.994169542,FEMA4ImagesEEG,001,202061,
AFNE01.JPG,AFNE01.JPG,AFNE01.JPG,AFNE01.JPG,AFNE01.JPG,AFNE01.JPG,1,8,18,3,,,,,,,,,,,,,,,,,,,,,,,AFNE03.jpg,AFNE08.jpg,AFSA11.jpg,AFSA09.jpg,AFSA09.jpg,FS,4,num_4,16,num_4,0.633482637582,,,2017_Oct_25_1501,59.994169542,FEMA4ImagesEEG,001,202061,
AFNE01.JPG,AFNE01.JPG,AFNE01.JPG,AFNE01.JPG,AFNE01.JPG,AFNE01.JPG,1,9,19,6,,,,,,,,,,,,,,,,,,,,,,,AFNE19.jpg,AFSA08.jpg,AFSA02.jpg,AFNE08.jpg,AFNE08.jpg,FN,3,num_4,32,num_6,2.16697249177,,,2017_Oct_25_1501,59.994169542,FEMA4ImagesEEG,001,202061,
AFNE01.JPG,AFNE01.JPG,AFNE01.JPG,AFNE01.JPG,AFNE01.JPG,AFNE01.JPG,2,0,20,0,,,,,,,,,,,,,,,,,,,,,,,AFNE05.jpg,AFSA19.jpg,AFNE03.jpg,AFSA14.jpg,AFSA19.jpg,FS,4,num_6,32,num_4,0.683469567448,,,2017_Oct_25_1501,59.994169542,FEMA4ImagesEEG,001,202061,
AFNE01.JPG,AFNE01.JPG,AFNE01.JPG,AFNE01.JPG,AFNE01.JPG,AFNE01.JPG,2,1,21,7,,,,,,,,,,,,,,,,,,,,,,,AFNE04.jpg,AFNE02.jpg,AFSA04.jpg,AFSA20.jpg,AFNE02.jpg,FN,3,num_6,16,num_6,0.950091009843,,,2017_Oct_25_1501,59.994169542,FEMA4ImagesEEG,001,202061,
AFNE01.JPG,AFNE01.JPG,AFNE01.JPG,AFNE01.JPG,AFNE01.JPG,AFNE01.JPG,2,2,22,8,,,,,,,,,,,,,,,,,,,,,,,AFNE09.jpg,AFNE07.jpg,AFSA19.jpg,AFSA18.jpg,AFSA18.jpg,FS,4,num_4,16,num_4,0.666798490565,,,2017_Oct_25_1501,59.994169542,FEMA4ImagesEEG,001,202061,
AFNE01.JPG,AFNE01.JPG,AFNE01.JPG,AFNE01.JPG,AFNE01.JPG,AFNE01.JPG,2,3,23,1,,,,,,,,,,,,,,,,,,,,,,,AFSA19.jpg,AFSA14.jpg,AFNE08.jpg,AFNE14.jpg,AFSA14.jpg,FS,4,num_6,32,num_8,0.600161973503,,,2017_Oct_25_1501,59.994169542,FEMA4ImagesEEG,001,202061,
AFNE01.JPG,AFNE01.JPG,AFNE01.JPG,AFNE01.JPG,AFNE01.JPG,AFNE01.JPG,2,4,24,5,,,,,,,,,,,,,,,,,,,,,,,AFNE06.jpg,AFSA07.jpg,AFNE10.jpg,AFSA16.jpg,AFSA07.jpg,FS,4,num_6,16,num_6,0.716815890744,,,2017_Oct_25_1501,59.994169542,FEMA4ImagesEEG,001,202061,
AFNE01.JPG,AFNE01.JPG,AFNE01.JPG,AFNE01.JPG,AFNE01.JPG,AFNE01.JPG,2,5,25,3,,,,,,,,,,,,,,,,,,,,,,,AFNE02.jpg,AFSA08.jpg,AFSA09.jpg,AFNE12.jpg,AFNE02.jpg,FN,3,num_8,32,num_2,0.550158685888,,,2017_Oct_25_1501,59.994169542,FEMA4ImagesEEG,001,202061,
AFNE01.JPG,AFNE01.JPG,AFNE01.JPG,AFNE01.JPG,AFNE01.JPG,AFNE01.JPG,2,6,26,4,,,,,,,,,,,,,,,,,,,,,,,AFNE12.jpg,AFSA07.jpg,AFNE09.jpg,AFSA05.jpg,AFNE12.jpg,FN,3,num_8,32,num_2,1.1167395548,,,2017_Oct_25_1501,59.994169542,FEMA4ImagesEEG,001,202061,
AFNE01.JPG,AFNE01.JPG,AFNE01.JPG,AFNE01.JPG,AFNE01.JPG,AFNE01.JPG,2,7,27,2,,,,,,,,,,,,,,,,,,,,,,,AFNE03.jpg,AFSA13.jpg,AFSA05.jpg,AFNE05.jpg,AFSA13.jpg,FS,4,num_6,16,num_6,0.450158525491,,,2017_Oct_25_1501,59.994169542,FEMA4ImagesEEG,001,202061,
AFNE01.JPG,AFNE01.JPG,AFNE01.JPG,AFNE01.JPG,AFNE01.JPG,AFNE01.JPG,2,8,28,6,,,,,,,,,,,,,,,,,,,,,,,AFNE15.jpg,AFSA04.jpg,AFNE08.jpg,AFSA18.jpg,AFNE08.jpg,FN,3,num_2,16,num_2,1.29984684684,,,2017_Oct_25_1501,59.994169542,FEMA4ImagesEEG,001,202061,
AFNE01.JPG,AFNE01.JPG,AFNE01.JPG,AFNE01.JPG,AFNE01.JPG,AFNE01.JPG,2,9,29,9,,,,,,,,,,,,,,,,,,,,,,,AFNE17.jpg,AFSA17.jpg,AFNE14.jpg,AFSA03.jpg,AFNE14.jpg,FN,3,num_2,32,num_8,0.866607971373,,,2017_Oct_25_1501,59.994169542,FEMA4ImagesEEG,001,202061,
AFNE01.JPG,AFNE01.JPG,AFNE01.JPG,AFNE01.JPG,AFNE01.JPG,AFNE01.JPG,3,0,30,0,,,,,,,,,,,,,,,,,,,,,,,AFSA05.jpg,AFSA17.jpg,AFNE19.jpg,AFNE01.jpg,AFSA05.jpg,FS,4,num_8,32,num_6,1.15008844389,,,2017_Oct_25_1501,59.994169542,FEMA4ImagesEEG,001,202061,
AFNE01.JPG,AFNE01.JPG,AFNE01.JPG,AFNE01.JPG,AFNE01.JPG,AFNE01.JPG,3,1,31,9,,,,,,,,,,,,,,,,,,,,,,,AFSA15.jpg,AFNE14.jpg,AFNE03.jpg,AFSA05.jpg,AFNE14.jpg,FN,3,num_6,16,num_6,1.08352281025,,,2017_Oct_25_1501,59.994169542,FEMA4ImagesEEG,001,202061,
AFNE01.JPG,AFNE01.JPG,AFNE01.JPG,AFNE01.JPG,AFNE01.JPG,AFNE01.JPG,3,2,32,1,,,,,,,,,,,,,,,,,,,,,,,AFNE18.jpg,AFSA05.jpg,AFNE14.jpg,AFSA17.jpg,AFNE18.jpg,FN,3,num_8,32,num_2,1.20009558043,,,2017_Oct_25_1501,59.994169542,FEMA4ImagesEEG,001,202061,
AFNE01.JPG,AFNE01.JPG,AFNE01.JPG,AFNE01.JPG,AFNE01.JPG,AFNE01.JPG,3,3,33,3,,,,,,,,,,,,,,,,,,,,,,,AFSA03.jpg,AFNE04.jpg,AFSA13.jpg,AFNE05.jpg,AFNE05.jpg,FN,3,num_4,16,num_4,0.933441743255,,,2017_Oct_25_1501,59.994169542,FEMA4ImagesEEG,001,202061,
AFNE01.JPG,AFNE01.JPG,AFNE01.JPG,AFNE01.JPG,AFNE01.JPG,AFNE01.JPG,3,4,34,5,,,,,,,,,,,,,,,,,,,,,,,AFSA09.jpg,AFNE09.jpg,AFSA11.jpg,AFNE08.jpg,AFNE08.jpg,FN,3,num_4,32,num_2,1.31672576291,,,2017_Oct_25_1501,59.994169542,FEMA4ImagesEEG,001,202061,
AFNE01.JPG,AFNE01.JPG,AFNE01.JPG,AFNE01.JPG,AFNE01.JPG,AFNE01.JPG,3,5,35,8,,,,,,,,,,,,,,,,,,,,,,,AFNE19.jpg,AFSA02.jpg,AFSA19.jpg,AFNE05.jpg,AFNE05.jpg,FN,3,num_4,16,num_4,1.00013342756,,,2017_Oct_25_1501,59.994169542,FEMA4ImagesEEG,001,202061,
AFNE01.JPG,AFNE01.JPG,AFNE01.JPG,AFNE01.JPG,AFNE01.JPG,AFNE01.JPG,3,6,36,7,,,,,,,,,,,,,,,,,,,,,,,AFSA07.jpg,AFNE10.jpg,AFNE02.jpg,AFSA02.jpg,AFSA02.jpg,FS,4,num_4,16,num_4,0.966760162264,,,2017_Oct_25_1501,59.994169542,FEMA4ImagesEEG,001,202061,
AFNE01.JPG,AFNE01.JPG,AFNE01.JPG,AFNE01.JPG,AFNE01.JPG,AFNE01.JPG,3,7,37,6,,,,,,,,,,,,,,,,,,,,,,,AFSA01.jpg,AFSA17.jpg,AFNE09.jpg,AFNE06.jpg,AFSA17.jpg,FS,4,num_6,16,num_6,0.883519281982,,,2017_Oct_25_1501,59.994169542,FEMA4ImagesEEG,001,202061,
AFNE01.JPG,AFNE01.JPG,AFNE01.JPG,AFNE01.JPG,AFNE01.JPG,AFNE01.JPG,3,8,38,4,,,,,,,,,,,,,,,,,,,,,,,AFSA15.jpg,AFNE08.jpg,AFSA07.jpg,AFNE16.jpg,AFSA15.jpg,FS,4,num_8,16,num_8,1.06672824861,,,2017_Oct_25_1501,59.994169542,FEMA4ImagesEEG,001,202061,
AFNE01.JPG,AFNE01.JPG,AFNE01.JPG,AFNE01.JPG,AFNE01.JPG,AFNE01.JPG,3,9,39,2,,,,,,,,,,,,,,,,,,,,,,,AFSA02.jpg,AFNE04.jpg,AFSA11.jpg,AFNE17.jpg,AFNE17.jpg,FN,3,num_4,32,num_2,0.61654855439,,,2017_Oct_25_1501,59.994169542,FEMA4ImagesEEG,001,202061,
AFNE01.JPG,AFNE01.JPG,AFNE01.JPG,AFNE01.JPG,AFNE01.JPG,AFNE01.JPG,4,0,40,9,,,,,,,,,,,,,,,,,,,,,,,AFNE13.jpg,AFSA18.jpg,AFNE01.jpg,AFSA15.jpg,AFSA18.jpg,FS,4,num_6,16,num_6,0.400063506444,,,2017_Oct_25_1501,59.994169542,FEMA4ImagesEEG,001,202061,
AFNE01.JPG,AFNE01.JPG,AFNE01.JPG,AFNE01.JPG,AFNE01.JPG,AFNE01.JPG,4,1,41,0,,,,,,,,,,,,,,,,,,,,,,,AFNE03.jpg,AFSA10.jpg,AFSA20.jpg,AFNE10.jpg,AFNE10.jpg,FN,3,num_4,32,num_8,1.30008676008,,,2017_Oct_25_1501,59.994169542,FEMA4ImagesEEG,001,202061,
AFNE01.JPG,AFNE01.JPG,AFNE01.JPG,AFNE01.JPG,AFNE01.JPG,AFNE01.JPG,4,2,42,3,,,,,,,,,,,,,,,,,,,,,,,AFSA19.jpg,AFSA08.jpg,AFNE08.jpg,AFNE20.jpg,AFNE20.jpg,FN,3,num_4,16,num_4,0.833494504914,,,2017_Oct_25_1501,59.994169542,FEMA4ImagesEEG,001,202061,
AFNE01.JPG,AFNE01.JPG,AFNE01.JPG,AFNE01.JPG,AFNE01.JPG,AFNE01.JPG,4,3,43,5,,,,,,,,,,,,,,,,,,,,,,,AFNE11.jpg,AFNE03.jpg,AFSA04.jpg,AFSA12.jpg,AFSA04.jpg,FS,4,num_2,32,num_4,0.450133507722,,,2017_Oct_25_1501,59.994169542,FEMA4ImagesEEG,001,202061,
AFNE01.JPG,AFNE01.JPG,AFNE01.JPG,AFNE01.JPG,AFNE01.JPG,AFNE01.JPG,4,4,44,7,,,,,,,,,,,,,,,,,,,,,,,AFNE06.jpg,AFSA11.jpg,AFSA02.jpg,AFNE05.jpg,AFSA02.jpg,FS,4,num_2,16,num_2,0.416775638005,,,2017_Oct_25_1501,59.994169542,FEMA4ImagesEEG,001,202061,
AFNE01.JPG,AFNE01.JPG,AFNE01.JPG,AFNE01.JPG,AFNE01.JPG,AFNE01.JPG,4,5,45,2,,,,,,,,,,,,,,,,,,,,,,,AFSA10.jpg,AFNE14.jpg,AFNE17.jpg,AFSA16.jpg,AFSA16.jpg,FS,4,num_4,16,num_4,0.550153233344,,,2017_Oct_25_1501,59.994169542,FEMA4ImagesEEG,001,202061,
AFNE01.JPG,AFNE01.JPG,AFNE01.JPG,AFNE01.JPG,AFNE01.JPG,AFNE01.JPG,4,6,46,1,,,,,,,,,,,,,,,,,,,,,,,AFSA03.jpg,AFNE20.jpg,AFNE01.jpg,AFSA15.jpg,AFNE20.jpg,FN,3,num_6,32,num_4,0.35012629116,,,2017_Oct_25_1501,59.994169542,FEMA4ImagesEEG,001,202061,
AFNE01.JPG,AFNE01.JPG,AFNE01.JPG,AFNE01.JPG,AFNE01.JPG,AFNE01.JPG,4,7,47,4,,,,,,,,,,,,,,,,,,,,,,,AFNE08.jpg,AFSA05.jpg,AFNE15.jpg,AFSA04.jpg,AFSA04.jpg,FS,4,num_4,32,num_6,0.433512466378,,,2017_Oct_25_1501,59.994169542,FEMA4ImagesEEG,001,202061,
AFNE01.JPG,AFNE01.JPG,AFNE01.JPG,AFNE01.JPG,AFNE01.JPG,AFNE01.JPG,4,8,48,6,,,,,,,,,,,,,,,,,,,,,,,AFSA15.jpg,AFNE18.jpg,AFNE10.jpg,AFSA02.jpg,AFNE10.jpg,FN,3,num_2,32,num_4,0.366823347867,,,2017_Oct_25_1501,59.994169542,FEMA4ImagesEEG,001,202061,
AFNE01.JPG,AFNE01.JPG,AFNE01.JPG,AFNE01.JPG,AFNE01.JPG,AFNE01.JPG,4,9,49,8,,,,,,,,,,,,,,,,,,,,,,,AFNE03.jpg,AFNE18.jpg,AFSA02.jpg,AFSA17.jpg,AFSA17.jpg,FS,4,num_4,16,num_4,0.466804905329,,,2017_Oct_25_1501,59.994169542,FEMA4ImagesEEG,001,202061,
AFNE01.JPG,AFNE01.JPG,AFNE01.JPG,AFNE01.JPG,AFNE01.JPG,AFNE01.JPG,5,0,50,5,,,,,,,,,,,,,,,,,,,,,,,AFSA03.jpg,AFNE18.jpg,AFNE07.jpg,AFSA02.jpg,AFSA02.jpg,FS,4,num_4,16,num_4,0.633488090127,,,2017_Oct_25_1501,59.994169542,FEMA4ImagesEEG,001,202061,
AFNE01.JPG,AFNE01.JPG,AFNE01.JPG,AFNE01.JPG,AFNE01.JPG,AFNE01.JPG,5,1,51,2,,,,,,,,,,,,,,,,,,,,,,,AFNE08.jpg,AFSA16.jpg,AFSA17.jpg,AFNE20.jpg,AFNE08.jpg,FN,3,num_8,16,num_8,1.03300730162,,,2017_Oct_25_1501,59.994169542,FEMA4ImagesEEG,001,202061,
AFNE01.JPG,AFNE01.JPG,AFNE01.JPG,AFNE01.JPG,AFNE01.JPG,AFNE01.JPG,5,2,52,0,,,,,,,,,,,,,,,,,,,,,,,AFSA19.jpg,AFSA07.jpg,AFNE05.jpg,AFNE14.jpg,AFNE14.jpg,FN,3,num_4,32,num_6,0.833467883524,,,2017_Oct_25_1501,59.994169542,FEMA4ImagesEEG,001,202061,
AFNE01.JPG,AFNE01.JPG,AFNE01.JPG,AFNE01.JPG,AFNE01.JPG,AFNE01.JPG,5,3,53,1,,,,,,,,,,,,,,,,,,,,,,,AFSA13.jpg,AFNE15.jpg,AFNE01.jpg,AFSA11.jpg,AFNE01.jpg,FN,3,num_2,32,num_8,0.400176406722,,,2017_Oct_25_1501,59.994169542,FEMA4ImagesEEG,001,202061,
AFNE01.JPG,AFNE01.JPG,AFNE01.JPG,AFNE01.JPG,AFNE01.JPG,AFNE01.JPG,5,4,54,3,,,,,,,,,,,,,,,,,,,,,,,AFSA12.jpg,AFNE13.jpg,AFSA19.jpg,AFNE20.jpg,AFNE13.jpg,FN,3,num_6,32,num_4,1.10021537659,,,2017_Oct_25_1501,59.994169542,FEMA4ImagesEEG,001,202061,
AFNE01.JPG,AFNE01.JPG,AFNE01.JPG,AFNE01.JPG,AFNE01.JPG,AFNE01.JPG,5,5,55,7,,,,,,,,,,,,,,,,,,,,,,,AFNE10.jpg,AFSA15.jpg,AFNE05.jpg,AFSA09.jpg,AFNE05.jpg,FN,3,num_2,32,num_8,0.600171274855,,,2017_Oct_25_1501,59.994169542,FEMA4ImagesEEG,001,202061,
AFNE01.JPG,AFNE01.JPG,AFNE01.JPG,AFNE01.JPG,AFNE01.JPG,AFNE01.JPG,5,6,56,6,,,,,,,,,,,,,,,,,,,,,,,AFSA15.jpg,AFSA08.jpg,AFNE04.jpg,AFNE12.jpg,AFSA15.jpg,FS,4,num_8,16,num_8,1.73339651898,,,2017_Oct_25_1501,59.994169542,FEMA4ImagesEEG,001,202061,
AFNE01.JPG,AFNE01.JPG,AFNE01.JPG,AFNE01.JPG,AFNE01.JPG,AFNE01.JPG,5,7,57,8,,,,,,,,,,,,,,,,,,,,,,,AFSA12.jpg,AFSA18.jpg,AFNE19.jpg,AFNE05.jpg,AFSA18.jpg,FS,4,num_6,16,num_6,0.633495146409,,,2017_Oct_25_1501,59.994169542,FEMA4ImagesEEG,001,202061,
AFNE01.JPG,AFNE01.JPG,AFNE01.JPG,AFNE01.JPG,AFNE01.JPG,AFNE01.JPG,5,8,58,9,,,,,,,,,,,,,,,,,,,,,,,AFNE16.jpg,AFNE18.jpg,AFSA07.jpg,AFSA08.jpg,AFSA07.jpg,FS,4,num_2,16,num_2,0.566773953964,,,2017_Oct_25_1501,59.994169542,FEMA4ImagesEEG,001,202061,
AFNE01.JPG,AFNE01.JPG,AFNE01.JPG,AFNE01.JPG,AFNE01.JPG,AFNE01.JPG,5,9,59,4,,,,,,,,,,,,,,,,,,,,,,,AFSA14.jpg,AFSA01.jpg,AFNE08.jpg,AFNE04.jpg,AFNE04.jpg,FN,3,num_4,32,num_8,0.866752304137,,,2017_Oct_25_1501,59.994169542,FEMA4ImagesEEG,001,202061,
,,,,,,,,,,,,,,,,,,,,,,,,,,,,,,,,,,,,,,,,,,,space,7.56621811248,2017_Oct_25_1501,59.994169542,FEMA4ImagesEEG,001,202061,
AFNE01.JPG,AFNE01.JPG,AFNE01.JPG,AFNE01.JPG,AFNE01.JPG,AFNE01.JPG,,,,,0,0,0,9,,,,,,,,,,,,,,,,,,,AMNE02.jpg,AMSA06.jpg,AMSA02.jpg,AMNE06.jpg,AMNE02.jpg,MN,1,num_8,32,num_6,0.26694314403,,,2017_Oct_25_1501,59.994169542,FEMA4ImagesEEG,001,202061,
AFNE01.JPG,AFNE01.JPG,AFNE01.JPG,AFNE01.JPG,AFNE01.JPG,AFNE01.JPG,,,,,0,1,1,7,,,,,,,,,,,,,,,,,,,AMNE05.jpg,AMSA05.jpg,AMNE01.jpg,AMSA17.jpg,AMSA05.jpg,MS,2,num_6,32,num_4,0.283152356045,,,2017_Oct_25_1501,59.994169542,FEMA4ImagesEEG,001,202061,
AFNE01.JPG,AFNE01.JPG,AFNE01.JPG,AFNE01.JPG,AFNE01.JPG,AFNE01.JPG,,,,,0,2,2,5,,,,,,,,,,,,,,,,,,,AMNE02.jpg,AMSA06.jpg,AMNE01.jpg,AMSA04.jpg,AMNE02.jpg,MN,1,num_8,16,num_8,0.783457539743,,,2017_Oct_25_1501,59.994169542,FEMA4ImagesEEG,001,202061,
AFNE01.JPG,AFNE01.JPG,AFNE01.JPG,AFNE01.JPG,AFNE01.JPG,AFNE01.JPG,,,,,0,3,3,3,,,,,,,,,,,,,,,,,,,AMNE12.jpg,AMNE17.jpg,AMSA20.jpg,AMSA12.jpg,AMSA20.jpg,MS,2,num_2,16,num_2,0.783465878922,,,2017_Oct_25_1501,59.994169542,FEMA4ImagesEEG,001,202061,
AFNE01.JPG,AFNE01.JPG,AFNE01.JPG,AFNE01.JPG,AFNE01.JPG,AFNE01.JPG,,,,,0,4,4,4,,,,,,,,,,,,,,,,,,,AMNE06.jpg,AMNE01.jpg,AMSA11.jpg,AMSA16.jpg,AMNE06.jpg,MN,1,num_8,16,num_8,0.900106325164,,,2017_Oct_25_1501,59.994169542,FEMA4ImagesEEG,001,202061,
AFNE01.JPG,AFNE01.JPG,AFNE01.JPG,AFNE01.JPG,AFNE01.JPG,AFNE01.JPG,,,,,0,5,5,2,,,,,,,,,,,,,,,,,,,AMSA16.jpg,AMSA08.jpg,AMNE03.jpg,AMNE04.jpg,AMSA16.jpg,MS,2,num_8,16,num_8,0.266824149759,,,2017_Oct_25_1501,59.994169542,FEMA4ImagesEEG,001,202061,
AFNE01.JPG,AFNE01.JPG,AFNE01.JPG,AFNE01.JPG,AFNE01.JPG,AFNE01.JPG,,,,,0,6,6,6,,,,,,,,,,,,,,,,,,,AMSA20.jpg,AMSA18.jpg,AMNE12.jpg,AMNE03.jpg,AMNE03.jpg,MN,1,num_4,16,num_4,1.09995974717,,,2017_Oct_25_1501,59.994169542,FEMA4ImagesEEG,001,202061,
AFNE01.JPG,AFNE01.JPG,AFNE01.JPG,AFNE01.JPG,AFNE01.JPG,AFNE01.JPG,,,,,0,7,7,8,,,,,,,,,,,,,,,,,,,AMNE01.jpg,AMSA18.jpg,AMNE09.jpg,AMSA16.jpg,AMNE01.jpg,MN,1,num_8,32,num_2,0.983450804139,,,2017_Oct_25_1501,59.994169542,FEMA4ImagesEEG,001,202061,
AFNE01.JPG,AFNE01.JPG,AFNE01.JPG,AFNE01.JPG,AFNE01.JPG,AFNE01.JPG,,,,,0,8,8,1,,,,,,,,,,,,,,,,,,,AMNE14.jpg,AMSA03.jpg,AMNE09.jpg,AMSA01.jpg,AMNE09.jpg,MN,1,num_2,32,num_8,0.716747252503,,,2017_Oct_25_1501,59.994169542,FEMA4ImagesEEG,001,202061,
AFNE01.JPG,AFNE01.JPG,AFNE01.JPG,AFNE01.JPG,AFNE01.JPG,AFNE01.JPG,,,,,0,9,9,0,,,,,,,,,,,,,,,,,,,AMNE05.jpg,AMSA03.jpg,AMSA02.jpg,AMNE02.jpg,AMSA02.jpg,MS,2,num_2,32,num_6,0.78347806714,,,2017_Oct_25_1501,59.994169542,FEMA4ImagesEEG,001,202061,
AFNE01.JPG,AFNE01.JPG,AFNE01.JPG,AFNE01.JPG,AFNE01.JPG,AFNE01.JPG,,,,,1,0,10,2,,,,,,,,,,,,,,,,,,,AMSA11.jpg,AMSA13.jpg,AMNE17.jpg,AMNE02.jpg,AMNE02.jpg,MN,1,num_4,32,num_8,0.633435809519,,,2017_Oct_25_1501,59.994169542,FEMA4ImagesEEG,001,202061,
AFNE01.JPG,AFNE01.JPG,AFNE01.JPG,AFNE01.JPG,AFNE01.JPG,AFNE01.JPG,,,,,1,1,11,6,,,,,,,,,,,,,,,,,,,AMSA03.jpg,AMNE18.jpg,AMNE02.jpg,AMSA07.jpg,AMSA07.jpg,MS,2,num_4,32,num_8,0.333545342204,,,2017_Oct_25_1501,59.994169542,FEMA4ImagesEEG,001,202061,
AFNE01.JPG,AFNE01.JPG,AFNE01.JPG,AFNE01.JPG,AFNE01.JPG,AFNE01.JPG,,,,,1,2,12,4,,,,,,,,,,,,,,,,,,,AMSA18.jpg,AMNE20.jpg,AMNE15.jpg,AMSA04.jpg,AMNE20.jpg,MN,1,num_6,32,num_4,0.750176326488,,,2017_Oct_25_1501,59.994169542,FEMA4ImagesEEG,001,202061,
AFNE01.JPG,AFNE01.JPG,AFNE01.JPG,AFNE01.JPG,AFNE01.JPG,AFNE01.JPG,,,,,1,3,13,1,,,,,,,,,,,,,,,,,,,AMNE03.jpg,AMSA13.jpg,AMSA17.jpg,AMNE11.jpg,AMNE11.jpg,MN,1,num_4,32,num_8,0.783493783325,,,2017_Oct_25_1501,59.994169542,FEMA4ImagesEEG,001,202061,
AFNE01.JPG,AFNE01.JPG,AFNE01.JPG,AFNE01.JPG,AFNE01.JPG,AFNE01.JPG,,,,,1,4,14,7,,,,,,,,,,,,,,,,,,,AMNE10.jpg,AMSA20.jpg,AMNE11.jpg,AMSA10.jpg,AMSA10.jpg,MS,2,num_4,16,num_4,1.50009253342,,,2017_Oct_25_1501,59.994169542,FEMA4ImagesEEG,001,202061,
AFNE01.JPG,AFNE01.JPG,AFNE01.JPG,AFNE01.JPG,AFNE01.JPG,AFNE01.JPG,,,,,1,5,15,8,,,,,,,,,,,,,,,,,,,AMNE10.jpg,AMNE14.jpg,AMSA20.jpg,AMSA02.jpg,AMSA20.jpg,MS,2,num_2,32,num_4,0.766779406578,,,2017_Oct_25_1501,59.994169542,FEMA4ImagesEEG,001,202061,
AFNE01.JPG,AFNE01.JPG,AFNE01.JPG,AFNE01.JPG,AFNE01.JPG,AFNE01.JPG,,,,,1,6,16,5,,,,,,,,,,,,,,,,,,,AMSA02.jpg,AMNE12.jpg,AMNE10.jpg,AMSA05.jpg,AMSA02.jpg,MS,2,num_8,16,num_8,0.533513588947,,,2017_Oct_25_1501,59.994169542,FEMA4ImagesEEG,001,202061,
AFNE01.JPG,AFNE01.JPG,AFNE01.JPG,AFNE01.JPG,AFNE01.JPG,AFNE01.JPG,,,,,1,7,17,3,,,,,,,,,,,,,,,,,,,AMSA01.jpg,AMNE06.jpg,AMSA18.jpg,AMNE20.jpg,AMNE20.jpg,MN,1,num_4,32,num_2,0.649972496554,,,2017_Oct_25_1501,59.994169542,FEMA4ImagesEEG,001,202061,
AFNE01.JPG,AFNE01.JPG,AFNE01.JPG,AFNE01.JPG,AFNE01.JPG,AFNE01.JPG,,,,,1,8,18,0,,,,,,,,,,,,,,,,,,,AMNE07.jpg,AMNE09.jpg,AMSA06.jpg,AMSA20.jpg,AMSA06.jpg,MS,2,num_2,32,num_8,0.766779085854,,,2017_Oct_25_1501,59.994169542,FEMA4ImagesEEG,001,202061,
AFNE01.JPG,AFNE01.JPG,AFNE01.JPG,AFNE01.JPG,AFNE01.JPG,AFNE01.JPG,,,,,1,9,19,9,,,,,,,,,,,,,,,,,,,AMNE09.jpg,AMSA08.jpg,AMSA03.jpg,AMNE02.jpg,AMSA08.jpg,MS,2,num_6,32,num_2,0.450189957977,,,2017_Oct_25_1501,59.994169542,FEMA4ImagesEEG,001,202061,
AFNE01.JPG,AFNE01.JPG,AFNE01.JPG,AFNE01.JPG,AFNE01.JPG,AFNE01.JPG,,,,,2,0,20,5,,,,,,,,,,,,,,,,,,,AMNE11.jpg,AMSA09.jpg,AMNE18.jpg,AMSA20.jpg,AMNE11.jpg,MN,1,num_8,32,num_4,0.516792156035,,,2017_Oct_25_1501,59.994169542,FEMA4ImagesEEG,001,202061,
AFNE01.JPG,AFNE01.JPG,AFNE01.JPG,AFNE01.JPG,AFNE01.JPG,AFNE01.JPG,,,,,2,1,21,7,,,,,,,,,,,,,,,,,,,AMNE02.jpg,AMSA17.jpg,AMSA11.jpg,AMNE19.jpg,AMNE02.jpg,MN,1,num_8,32,num_2,0.43350573082,,,2017_Oct_25_1501,59.994169542,FEMA4ImagesEEG,001,202061,
AFNE01.JPG,AFNE01.JPG,AFNE01.JPG,AFNE01.JPG,AFNE01.JPG,AFNE01.JPG,,,,,2,2,22,6,,,,,,,,,,,,,,,,,,,AMSA15.jpg,AMSA03.jpg,AMNE06.jpg,AMNE09.jpg,AMSA03.jpg,MS,2,num_6,32,num_8,0.416658888687,,,2017_Oct_25_1501,59.994169542,FEMA4ImagesEEG,001,202061,
AFNE01.JPG,AFNE01.JPG,AFNE01.JPG,AFNE01.JPG,AFNE01.JPG,AFNE01.JPG,,,,,2,3,23,9,,,,,,,,,,,,,,,,,,,AMNE10.jpg,AMNE12.jpg,AMSA15.jpg,AMSA13.jpg,AMNE12.jpg,MN,1,num_6,32,num_4,0.883518319926,,,2017_Oct_25_1501,59.994169542,FEMA4ImagesEEG,001,202061,
AFNE01.JPG,AFNE01.JPG,AFNE01.JPG,AFNE01.JPG,AFNE01.JPG,AFNE01.JPG,,,,,2,4,24,0,,,,,,,,,,,,,,,,,,,AMSA14.jpg,AMSA03.jpg,AMNE10.jpg,AMNE04.jpg,AMNE10.jpg,MN,1,num_2,16,num_2,0.90013166354,,,2017_Oct_25_1501,59.994169542,FEMA4ImagesEEG,001,202061,
AFNE01.JPG,AFNE01.JPG,AFNE01.JPG,AFNE01.JPG,AFNE01.JPG,AFNE01.JPG,,,,,2,5,25,8,,,,,,,,,,,,,,,,,,,AMSA10.jpg,AMNE09.jpg,AMNE13.jpg,AMSA11.jpg,AMSA10.jpg,MS,2,num_8,32,num_4,0.516770345741,,,2017_Oct_25_1501,59.994169542,FEMA4ImagesEEG,001,202061,
AFNE01.JPG,AFNE01.JPG,AFNE01.JPG,AFNE01.JPG,AFNE01.JPG,AFNE01.JPG,,,,,2,6,26,2,,,,,,,,,,,,,,,,,,,AMSA13.jpg,AMSA03.jpg,AMNE15.jpg,AMNE19.jpg,AMNE15.jpg,MN,1,num_2,32,num_4,1.40006446862,,,2017_Oct_25_1501,59.994169542,FEMA4ImagesEEG,001,202061,
AFNE01.JPG,AFNE01.JPG,AFNE01.JPG,AFNE01.JPG,AFNE01.JPG,AFNE01.JPG,,,,,2,7,27,3,,,,,,,,,,,,,,,,,,,AMNE19.jpg,AMSA16.jpg,AMNE12.jpg,AMSA12.jpg,AMSA16.jpg,MS,2,num_6,16,num_6,0.41681797558,,,2017_Oct_25_1501,59.994169542,FEMA4ImagesEEG,001,202061,
AFNE01.JPG,AFNE01.JPG,AFNE01.JPG,AFNE01.JPG,AFNE01.JPG,AFNE01.JPG,,,,,2,8,28,1,,,,,,,,,,,,,,,,,,,AMSA01.jpg,AMSA08.jpg,AMNE11.jpg,AMNE04.jpg,AMSA08.jpg,MS,2,num_6,32,num_4,0.33357164287,,,2017_Oct_25_1501,59.994169542,FEMA4ImagesEEG,001,202061,
AFNE01.JPG,AFNE01.JPG,AFNE01.JPG,AFNE01.JPG,AFNE01.JPG,AFNE01.JPG,,,,,2,9,29,4,,,,,,,,,,,,,,,,,,,AMSA08.jpg,AMNE19.jpg,AMNE16.jpg,AMSA14.jpg,AMNE16.jpg,MN,1,num_2,32,num_6,0.650195089751,,,2017_Oct_25_1501,59.994169542,FEMA4ImagesEEG,001,202061,
AFNE01.JPG,AFNE01.JPG,AFNE01.JPG,AFNE01.JPG,AFNE01.JPG,AFNE01.JPG,,,,,3,0,30,2,,,,,,,,,,,,,,,,,,,AMNE17.jpg,AMSA10.jpg,AMSA05.jpg,AMNE09.jpg,AMNE09.jpg,MN,1,num_4,16,num_4,1.000092373,,,2017_Oct_25_1501,59.994169542,FEMA4ImagesEEG,001,202061,
AFNE01.JPG,AFNE01.JPG,AFNE01.JPG,AFNE01.JPG,AFNE01.JPG,AFNE01.JPG,,,,,3,1,31,0,,,,,,,,,,,,,,,,,,,AMSA10.jpg,AMSA20.jpg,AMNE04.jpg,AMNE13.jpg,AMNE04.jpg,MN,1,num_2,16,num_2,1.31671325408,,,2017_Oct_25_1501,59.994169542,FEMA4ImagesEEG,001,202061,
AFNE01.JPG,AFNE01.JPG,AFNE01.JPG,AFNE01.JPG,AFNE01.JPG,AFNE01.JPG,,,,,3,2,32,7,,,,,,,,,,,,,,,,,,,AMSA14.jpg,AMNE06.jpg,AMSA05.jpg,AMNE20.jpg,AMSA05.jpg,MS,2,num_2,32,num_6,2.28336500633,,,2017_Oct_25_1501,59.994169542,FEMA4ImagesEEG,001,202061,
AFNE01.JPG,AFNE01.JPG,AFNE01.JPG,AFNE01.JPG,AFNE01.JPG,AFNE01.JPG,,,,,3,3,33,6,,,,,,,,,,,,,,,,,,,AMNE17.jpg,AMSA09.jpg,AMSA13.jpg,AMNE02.jpg,AMSA13.jpg,MS,2,num_2,32,num_8,0.633502202574,,,2017_Oct_25_1501,59.994169542,FEMA4ImagesEEG,001,202061,
AFNE01.JPG,AFNE01.JPG,AFNE01.JPG,AFNE01.JPG,AFNE01.JPG,AFNE01.JPG,,,,,3,4,34,4,,,,,,,,,,,,,,,,,,,AMNE01.jpg,AMSA07.jpg,AMNE18.jpg,AMSA06.jpg,AMNE01.jpg,MN,1,num_8,16,num_8,0.733461629134,,,2017_Oct_25_1501,59.994169542,FEMA4ImagesEEG,001,202061,
AFNE01.JPG,AFNE01.JPG,AFNE01.JPG,AFNE01.JPG,AFNE01.JPG,AFNE01.JPG,,,,,3,5,35,9,,,,,,,,,,,,,,,,,,,AMNE07.jpg,AMNE06.jpg,AMSA09.jpg,AMSA18.jpg,AMSA18.jpg,MS,2,num_4,16,num_4,1.08347534074,,,2017_Oct_25_1501,59.994169542,FEMA4ImagesEEG,001,202061,
AFNE01.JPG,AFNE01.JPG,AFNE01.JPG,AFNE01.JPG,AFNE01.JPG,AFNE01.JPG,,,,,3,6,36,3,,,,,,,,,,,,,,,,,,,AMSA04.jpg,AMNE17.jpg,AMSA05.jpg,AMNE13.jpg,AMSA05.jpg,MS,2,num_2,16,num_2,1.00022098946,,,2017_Oct_25_1501,59.994169542,FEMA4ImagesEEG,001,202061,
AFNE01.JPG,AFNE01.JPG,AFNE01.JPG,AFNE01.JPG,AFNE01.JPG,AFNE01.JPG,,,,,3,7,37,8,,,,,,,,,,,,,,,,,,,AMSA06.jpg,AMNE20.jpg,AMNE13.jpg,AMSA03.jpg,AMNE13.jpg,MN,1,num_2,32,num_6,0.98344246496,,,2017_Oct_25_1501,59.994169542,FEMA4ImagesEEG,001,202061,
AFNE01.JPG,AFNE01.JPG,AFNE01.JPG,AFNE01.JPG,AFNE01.JPG,AFNE01.JPG,,,,,3,8,38,1,,,,,,,,,,,,,,,,,,,AMSA02.jpg,AMNE05.jpg,AMSA08.jpg,AMNE14.jpg,AMNE05.jpg,MN,1,num_6,32,num_2,0.883472454152,,,2017_Oct_25_1501,59.994169542,FEMA4ImagesEEG,001,202061,
AFNE01.JPG,AFNE01.JPG,AFNE01.JPG,AFNE01.JPG,AFNE01.JPG,AFNE01.JPG,,,,,3,9,39,5,,,,,,,,,,,,,,,,,,,AMSA09.jpg,AMSA11.jpg,AMNE02.jpg,AMNE09.jpg,AMNE02.jpg,MN,1,num_2,32,num_6,0.983522970579,,,2017_Oct_25_1501,59.994169542,FEMA4ImagesEEG,001,202061,
AFNE01.JPG,AFNE01.JPG,AFNE01.JPG,AFNE01.JPG,AFNE01.JPG,AFNE01.JPG,,,,,4,0,40,3,,,,,,,,,,,,,,,,,,,AMSA05.jpg,AMSA19.jpg,AMNE14.jpg,AMNE01.jpg,AMSA05.jpg,MS,2,num_8,32,num_4,0.616788788233,,,2017_Oct_25_1501,59.994169542,FEMA4ImagesEEG,001,202061,
AFNE01.JPG,AFNE01.JPG,AFNE01.JPG,AFNE01.JPG,AFNE01.JPG,AFNE01.JPG,,,,,4,1,41,2,,,,,,,,,,,,,,,,,,,AMNE11.jpg,AMSA04.jpg,AMNE12.jpg,AMSA14.jpg,AMNE12.jpg,MN,1,num_2,32,num_8,0.416812202195,,,2017_Oct_25_1501,59.994169542,FEMA4ImagesEEG,001,202061,
AFNE01.JPG,AFNE01.JPG,AFNE01.JPG,AFNE01.JPG,AFNE01.JPG,AFNE01.JPG,,,,,4,2,42,4,,,,,,,,,,,,,,,,,,,AMNE06.jpg,AMSA06.jpg,AMNE07.jpg,AMSA07.jpg,AMSA07.jpg,MS,2,num_4,16,num_4,0.416805466753,,,2017_Oct_25_1501,59.994169542,FEMA4ImagesEEG,001,202061,
AFNE01.JPG,AFNE01.JPG,AFNE01.JPG,AFNE01.JPG,AFNE01.JPG,AFNE01.JPG,,,,,4,3,43,5,,,,,,,,,,,,,,,,,,,AMNE09.jpg,AMSA09.jpg,AMNE05.jpg,AMSA07.jpg,AMSA07.jpg,MS,2,num_4,16,num_4,0.366802179022,,,2017_Oct_25_1501,59.994169542,FEMA4ImagesEEG,001,202061,
AFNE01.JPG,AFNE01.JPG,AFNE01.JPG,AFNE01.JPG,AFNE01.JPG,AFNE01.JPG,,,,,4,4,44,1,,,,,,,,,,,,,,,,,,,AMNE07.jpg,AMSA03.jpg,AMNE15.jpg,AMSA13.jpg,AMNE15.jpg,MN,1,num_2,32,num_8,0.800162935629,,,2017_Oct_25_1501,59.994169542,FEMA4ImagesEEG,001,202061,
AFNE01.JPG,AFNE01.JPG,AFNE01.JPG,AFNE01.JPG,AFNE01.JPG,AFNE01.JPG,,,,,4,5,45,6,,,,,,,,,,,,,,,,,,,AMSA09.jpg,AMNE04.jpg,AMSA08.jpg,AMNE09.jpg,AMNE09.jpg,MN,1,num_4,32,num_8,0.85016943072,,,2017_Oct_25_1501,59.994169542,FEMA4ImagesEEG,001,202061,
AFNE01.JPG,AFNE01.JPG,AFNE01.JPG,AFNE01.JPG,AFNE01.JPG,AFNE01.JPG,,,,,4,6,46,8,,,,,,,,,,,,,,,,,,,AMNE03.jpg,AMSA20.jpg,AMSA01.jpg,AMNE19.jpg,AMSA20.jpg,MS,2,num_6,32,num_8,0.700185227091,,,2017_Oct_25_1501,59.994169542,FEMA4ImagesEEG,001,202061,
AFNE01.JPG,AFNE01.JPG,AFNE01.JPG,AFNE01.JPG,AFNE01.JPG,AFNE01.JPG,,,,,4,7,47,7,,,,,,,,,,,,,,,,,,,AMSA03.jpg,AMNE15.jpg,AMNE04.jpg,AMSA04.jpg,AMSA03.jpg,MS,2,num_8,32,num_4,0.750095500262,,,2017_Oct_25_1501,59.994169542,FEMA4ImagesEEG,001,202061,
AFNE01.JPG,AFNE01.JPG,AFNE01.JPG,AFNE01.JPG,AFNE01.JPG,AFNE01.JPG,,,,,4,8,48,0,,,,,,,,,,,,,,,,,,,AMNE10.jpg,AMSA12.jpg,AMNE20.jpg,AMSA11.jpg,AMSA12.jpg,MS,2,num_6,32,num_4,0.650153714349,,,2017_Oct_25_1501,59.994169542,FEMA4ImagesEEG,001,202061,
AFNE01.JPG,AFNE01.JPG,AFNE01.JPG,AFNE01.JPG,AFNE01.JPG,AFNE01.JPG,,,,,4,9,49,9,,,,,,,,,,,,,,,,,,,AMSA12.jpg,AMNE12.jpg,AMSA04.jpg,AMNE05.jpg,AMSA12.jpg,MS,2,num_8,32,num_2,0.566764973337,,,2017_Oct_25_1501,59.994169542,FEMA4ImagesEEG,001,202061,
AFNE01.JPG,AFNE01.JPG,AFNE01.JPG,AFNE01.JPG,AFNE01.JPG,AFNE01.JPG,,,,,5,0,50,8,,,,,,,,,,,,,,,,,,,AMSA12.jpg,AMNE13.jpg,AMNE11.jpg,AMSA10.jpg,AMSA12.jpg,MS,2,num_8,32,num_4,0.450170392869,,,2017_Oct_25_1501,59.994169542,FEMA4ImagesEEG,001,202061,
AFNE01.JPG,AFNE01.JPG,AFNE01.JPG,AFNE01.JPG,AFNE01.JPG,AFNE01.JPG,,,,,5,1,51,5,,,,,,,,,,,,,,,,,,,AMSA13.jpg,AMNE03.jpg,AMSA02.jpg,AMNE01.jpg,AMSA13.jpg,MS,2,num_8,16,num_8,1.08347758593,,,2017_Oct_25_1501,59.994169542,FEMA4ImagesEEG,001,202061,
AFNE01.JPG,AFNE01.JPG,AFNE01.JPG,AFNE01.JPG,AFNE01.JPG,AFNE01.JPG,,,,,5,2,52,3,,,,,,,,,,,,,,,,,,,AMSA17.jpg,AMNE17.jpg,AMSA20.jpg,AMNE06.jpg,AMSA20.jpg,MS,2,num_2,16,num_2,0.450175524689,,,2017_Oct_25_1501,59.994169542,FEMA4ImagesEEG,001,202061,
AFNE01.JPG,AFNE01.JPG,AFNE01.JPG,AFNE01.JPG,AFNE01.JPG,AFNE01.JPG,,,,,5,3,53,9,,,,,,,,,,,,,,,,,,,AMNE19.jpg,AMSA17.jpg,AMSA13.jpg,AMNE02.jpg,AMSA13.jpg,MS,2,num_2,32,num_4,0.666924861958,,,2017_Oct_25_1501,59.994169542,FEMA4ImagesEEG,001,202061,
AFNE01.JPG,AFNE01.JPG,AFNE01.JPG,AFNE01.JPG,AFNE01.JPG,AFNE01.JPG,,,,,5,4,54,0,,,,,,,,,,,,,,,,,,,AMSA20.jpg,AMNE12.jpg,AMNE15.jpg,AMSA18.jpg,AMNE12.jpg,MN,1,num_6,32,num_4,0.883433003211,,,2017_Oct_25_1501,59.994169542,FEMA4ImagesEEG,001,202061,
AFNE01.JPG,AFNE01.JPG,AFNE01.JPG,AFNE01.JPG,AFNE01.JPG,AFNE01.JPG,,,,,5,5,55,4,,,,,,,,,,,,,,,,,,,AMNE01.jpg,AMSA04.jpg,AMSA01.jpg,AMNE15.jpg,AMNE15.jpg,MN,1,num_4,32,num_6,0.550204872387,,,2017_Oct_25_1501,59.994169542,FEMA4ImagesEEG,001,202061,
AFNE01.JPG,AFNE01.JPG,AFNE01.JPG,AFNE01.JPG,AFNE01.JPG,AFNE01.JPG,,,,,5,6,56,6,,,,,,,,,,,,,,,,,,,AMNE15.jpg,AMNE19.jpg,AMSA01.jpg,AMSA07.jpg,AMSA07.jpg,MS,2,num_4,16,num_4,0.366810839041,,,2017_Oct_25_1501,59.994169542,FEMA4ImagesEEG,001,202061,
AFNE01.JPG,AFNE01.JPG,AFNE01.JPG,AFNE01.JPG,AFNE01.JPG,AFNE01.JPG,,,,,5,7,57,2,,,,,,,,,,,,,,,,,,,AMNE06.jpg,AMNE01.jpg,AMSA18.jpg,AMSA16.jpg,AMSA16.jpg,MS,2,num_4,16,num_4,0.733464195044,,,2017_Oct_25_1501,59.994169542,FEMA4ImagesEEG,001,202061,
AFNE01.JPG,AFNE01.JPG,AFNE01.JPG,AFNE01.JPG,AFNE01.JPG,AFNE01.JPG,,,,,5,8,58,7,,,,,,,,,,,,,,,,,,,AMSA05.jpg,AMNE20.jpg,AMNE09.jpg,AMSA17.jpg,AMNE09.jpg,MN,1,num_2,32,num_4,0.316816532169,,,2017_Oct_25_1501,59.994169542,FEMA4ImagesEEG,001,202061,
AFNE01.JPG,AFNE01.JPG,AFNE01.JPG,AFNE01.JPG,AFNE01.JPG,AFNE01.JPG,,,,,5,9,59,1,,,,,,,,,,,,,,,,,,,AMSA04.jpg,AMNE04.jpg,AMSA05.jpg,AMNE10.jpg,AMSA04.jpg,MS,2,num_8,32,num_6,0.88343364466,,,2017_Oct_25_1501,59.994169542,FEMA4ImagesEEG,001,202061,
,,,,,,,,,,,,,,,,,,,,,,,,,,,,,,,,,,,,,,,,,,,space,8.93251320242,2017_Oct_25_1501,59.994169542,FEMA4ImagesEEG,001,202061,
AFNE01.JPG,AFNE01.JPG,AFNE01.JPG,AFNE01.JPG,AFNE01.JPG,AFNE01.JPG,,,,,,,,,0,0,0,2,,,,,,,,,,,,,,,AFNE13.jpg,AFSA07.jpg,AFNE19.jpg,AFSA02.jpg,AFSA02.jpg,FS,4,num_4,16,num_4,0.53347413789,,,2017_Oct_25_1501,59.994169542,FEMA4ImagesEEG,001,202061,
AFNE01.JPG,AFNE01.JPG,AFNE01.JPG,AFNE01.JPG,AFNE01.JPG,AFNE01.JPG,,,,,,,,,0,1,1,0,,,,,,,,,,,,,,,AFNE17.jpg,AFSA14.jpg,AFSA04.jpg,AFNE11.jpg,AFNE17.jpg,FN,3,num_8,16,num_8,0.833449922153,,,2017_Oct_25_1501,59.994169542,FEMA4ImagesEEG,001,202061,
AFNE01.JPG,AFNE01.JPG,AFNE01.JPG,AFNE01.JPG,AFNE01.JPG,AFNE01.JPG,,,,,,,,,0,2,2,7,,,,,,,,,,,,,,,AFSA18.jpg,AFSA04.jpg,AFNE10.jpg,AFNE20.jpg,AFNE20.jpg,FN,3,num_4,32,num_2,1.06679367949,,,2017_Oct_25_1501,59.994169542,FEMA4ImagesEEG,001,202061,
AFNE01.JPG,AFNE01.JPG,AFNE01.JPG,AFNE01.JPG,AFNE01.JPG,AFNE01.JPG,,,,,,,,,0,3,3,8,,,,,,,,,,,,,,,AFNE15.jpg,AFSA16.jpg,AFNE02.jpg,AFSA03.jpg,AFSA03.jpg,FS,4,num_4,32,num_6,0.9001213999,,,2017_Oct_25_1501,59.994169542,FEMA4ImagesEEG,001,202061,
AFNE01.JPG,AFNE01.JPG,AFNE01.JPG,AFNE01.JPG,AFNE01.JPG,AFNE01.JPG,,,,,,,,,0,4,4,4,,,,,,,,,,,,,,,AFNE05.jpg,AFSA15.jpg,AFSA12.jpg,AFNE03.jpg,AFNE03.jpg,FN,3,num_4,32,num_2,1.01670988637,,,2017_Oct_25_1501,59.994169542,FEMA4ImagesEEG,001,202061,
AFNE01.JPG,AFNE01.JPG,AFNE01.JPG,AFNE01.JPG,AFNE01.JPG,AFNE01.JPG,,,,,,,,,0,5,5,3,,,,,,,,,,,,,,,AFNE14.jpg,AFNE07.jpg,AFSA18.jpg,AFSA03.jpg,AFNE07.jpg,FN,3,num_6,16,num_6,0.900120116887,,,2017_Oct_25_1501,59.994169542,FEMA4ImagesEEG,001,202061,
AFNE01.JPG,AFNE01.JPG,AFNE01.JPG,AFNE01.JPG,AFNE01.JPG,AFNE01.JPG,,,,,,,,,0,6,6,5,,,,,,,,,,,,,,,AFSA06.jpg,AFNE08.jpg,AFSA16.jpg,AFNE17.jpg,AFSA16.jpg,FS,4,num_2,16,num_2,0.46679656615,,,2017_Oct_25_1501,59.994169542,FEMA4ImagesEEG,001,202061,
AFNE01.JPG,AFNE01.JPG,AFNE01.JPG,AFNE01.JPG,AFNE01.JPG,AFNE01.JPG,,,,,,,,,0,7,7,1,,,,,,,,,,,,,,,AFNE19.jpg,AFNE17.jpg,AFSA11.jpg,AFSA01.jpg,AFSA01.jpg,FS,4,num_4,32,num_2,0.700134229497,,,2017_Oct_25_1501,59.994169542,FEMA4ImagesEEG,001,202061,
AFNE01.JPG,AFNE01.JPG,AFNE01.JPG,AFNE01.JPG,AFNE01.JPG,AFNE01.JPG,,,,,,,,,0,8,8,9,,,,,,,,,,,,,,,AFSA08.jpg,AFNE18.jpg,AFSA14.jpg,AFNE06.jpg,AFNE06.jpg,FN,3,num_4,32,num_6,0.733484722325,,,2017_Oct_25_1501,59.994169542,FEMA4ImagesEEG,001,202061,
AFNE01.JPG,AFNE01.JPG,AFNE01.JPG,AFNE01.JPG,AFNE01.JPG,AFNE01.JPG,,,,,,,,,0,9,9,6,,,,,,,,,,,,,,,AFSA20.jpg,AFSA17.jpg,AFNE14.jpg,AFNE06.jpg,AFNE14.jpg,FN,3,num_2,16,num_2,0.549834739068,,,2017_Oct_25_1501,59.994169542,FEMA4ImagesEEG,001,202061,
AFNE01.JPG,AFNE01.JPG,AFNE01.JPG,AFNE01.JPG,AFNE01.JPG,AFNE01.JPG,,,,,,,,,1,0,10,6,,,,,,,,,,,,,,,AFSA06.jpg,AFNE05.jpg,AFSA03.jpg,AFNE14.jpg,AFNE14.jpg,FN,3,num_4,16,num_4,0.550154516241,,,2017_Oct_25_1501,59.994169542,FEMA4ImagesEEG,001,202061,
AFNE01.JPG,AFNE01.JPG,AFNE01.JPG,AFNE01.JPG,AFNE01.JPG,AFNE01.JPG,,,,,,,,,1,1,11,4,,,,,,,,,,,,,,,AFNE20.jpg,AFSA07.jpg,AFNE13.jpg,AFSA13.jpg,AFSA13.jpg,FS,4,num_4,32,num_2,0.366878194269,,,2017_Oct_25_1501,59.994169542,FEMA4ImagesEEG,001,202061,
AFNE01.JPG,AFNE01.JPG,AFNE01.JPG,AFNE01.JPG,AFNE01.JPG,AFNE01.JPG,,,,,,,,,1,2,12,5,,,,,,,,,,,,,,,AFSA09.jpg,AFSA04.jpg,AFNE20.jpg,AFNE18.jpg,AFSA09.jpg,FS,4,num_8,32,num_6,0.533520003664,,,2017_Oct_25_1501,59.994169542,FEMA4ImagesEEG,001,202061,
AFNE01.JPG,AFNE01.JPG,AFNE01.JPG,AFNE01.JPG,AFNE01.JPG,AFNE01.JPG,,,,,,,,,1,3,13,1,,,,,,,,,,,,,,,AFSA08.jpg,AFNE15.jpg,AFSA06.jpg,AFNE14.jpg,AFSA06.jpg,FS,4,num_2,32,num_8,0.483458341565,,,2017_Oct_25_1501,59.994169542,FEMA4ImagesEEG,001,202061,
AFNE01.JPG,AFNE01.JPG,AFNE01.JPG,AFNE01.JPG,AFNE01.JPG,AFNE01.JPG,,,,,,,,,1,4,14,7,,,,,,,,,,,,,,,AFNE06.jpg,AFNE02.jpg,AFSA03.jpg,AFSA07.jpg,AFSA03.jpg,FS,4,num_2,16,num_2,0.466802018811,,,2017_Oct_25_1501,59.994169542,FEMA4ImagesEEG,001,202061,
AFNE01.JPG,AFNE01.JPG,AFNE01.JPG,AFNE01.JPG,AFNE01.JPG,AFNE01.JPG,,,,,,,,,1,5,15,3,,,,,,,,,,,,,,,AFSA07.jpg,AFNE04.jpg,AFNE16.jpg,AFSA06.jpg,AFSA06.jpg,FS,4,num_4,16,num_4,0.56687498698,,,2017_Oct_25_1501,59.994169542,FEMA4ImagesEEG,001,202061,
AFNE01.JPG,AFNE01.JPG,AFNE01.JPG,AFNE01.JPG,AFNE01.JPG,AFNE01.JPG,,,,,,,,,1,6,16,0,,,,,,,,,,,,,,,AFSA03.jpg,AFSA19.jpg,AFNE15.jpg,AFNE08.jpg,AFSA19.jpg,FS,4,num_6,32,num_4,0.650165581843,,,2017_Oct_25_1501,59.994169542,FEMA4ImagesEEG,001,202061,
AFNE01.JPG,AFNE01.JPG,AFNE01.JPG,AFNE01.JPG,AFNE01.JPG,AFNE01.JPG,,,,,,,,,1,7,17,9,,,,,,,,,,,,,,,AFSA03.jpg,AFNE08.jpg,AFNE14.jpg,AFSA12.jpg,AFNE08.jpg,FN,3,num_6,32,num_4,0.433444469585,,,2017_Oct_25_1501,59.994169542,FEMA4ImagesEEG,001,202061,
AFNE01.JPG,AFNE01.JPG,AFNE01.JPG,AFNE01.JPG,AFNE01.JPG,AFNE01.JPG,,,,,,,,,1,8,18,2,,,,,,,,,,,,,,,AFSA04.jpg,AFSA19.jpg,AFNE13.jpg,AFNE18.jpg,AFSA19.jpg,FS,4,num_6,16,num_6,0.583473255858,,,2017_Oct_25_1501,59.994169542,FEMA4ImagesEEG,001,202061,
AFNE01.JPG,AFNE01.JPG,AFNE01.JPG,AFNE01.JPG,AFNE01.JPG,AFNE01.JPG,,,,,,,,,1,9,19,8,,,,,,,,,,,,,,,AFSA17.jpg,AFNE12.jpg,AFNE08.jpg,AFSA05.jpg,AFNE12.jpg,FN,3,num_6,32,num_2,0.983906574897,,,2017_Oct_25_1501,59.994169542,FEMA4ImagesEEG,001,202061,
AFNE01.JPG,AFNE01.JPG,AFNE01.JPG,AFNE01.JPG,AFNE01.JPG,AFNE01.JPG,,,,,,,,,2,0,20,4,,,,,,,,,,,,,,,AFSA12.jpg,AFSA05.jpg,AFNE02.jpg,AFNE04.jpg,AFNE02.jpg,FN,3,num_2,32,num_8,2.53333108814,,,2017_Oct_25_1501,59.994169542,FEMA4ImagesEEG,001,202061,
AFNE01.JPG,AFNE01.JPG,AFNE01.JPG,AFNE01.JPG,AFNE01.JPG,AFNE01.JPG,,,,,,,,,2,1,21,9,,,,,,,,,,,,,,,AFSA05.jpg,AFNE05.jpg,AFNE12.jpg,AFSA01.jpg,AFSA05.jpg,FS,4,num_8,32,num_2,1.05013158335,,,2017_Oct_25_1501,59.994169542,FEMA4ImagesEEG,001,202061,
AFNE01.JPG,AFNE01.JPG,AFNE01.JPG,AFNE01.JPG,AFNE01.JPG,AFNE01.JPG,,,,,,,,,2,2,22,7,,,,,,,,,,,,,,,AFNE09.jpg,AFSA09.jpg,AFNE01.jpg,AFSA10.jpg,AFSA10.jpg,FS,4,num_4,32,num_8,1.00011899439,,,2017_Oct_25_1501,59.994169542,FEMA4ImagesEEG,001,202061,
AFNE01.JPG,AFNE01.JPG,AFNE01.JPG,AFNE01.JPG,AFNE01.JPG,AFNE01.JPG,,,,,,,,,2,3,23,5,,,,,,,,,,,,,,,AFSA01.jpg,AFSA07.jpg,AFNE15.jpg,AFNE09.jpg,AFNE15.jpg,FN,3,num_2,32,num_4,0.733474458684,,,2017_Oct_25_1501,59.994169542,FEMA4ImagesEEG,001,202061,
AFNE01.JPG,AFNE01.JPG,AFNE01.JPG,AFNE01.JPG,AFNE01.JPG,AFNE01.JPG,,,,,,,,,2,4,24,0,,,,,,,,,,,,,,,AFNE08.jpg,AFNE07.jpg,AFSA07.jpg,AFSA19.jpg,AFNE08.jpg,FN,3,num_8,32,num_4,0.316793438978,,,2017_Oct_25_1501,59.994169542,FEMA4ImagesEEG,001,202061,
AFNE01.JPG,AFNE01.JPG,AFNE01.JPG,AFNE01.JPG,AFNE01.JPG,AFNE01.JPG,,,,,,,,,2,5,25,8,,,,,,,,,,,,,,,AFSA17.jpg,AFNE11.jpg,AFNE01.jpg,AFSA01.jpg,AFNE01.jpg,FN,3,num_2,32,num_6,0.866727927933,,,2017_Oct_25_1501,59.994169542,FEMA4ImagesEEG,001,202061,
AFNE01.JPG,AFNE01.JPG,AFNE01.JPG,AFNE01.JPG,AFNE01.JPG,AFNE01.JPG,,,,,,,,,2,6,26,6,,,,,,,,,,,,,,,AFSA02.jpg,AFNE13.jpg,AFSA10.jpg,AFNE20.jpg,AFSA10.jpg,FS,4,num_2,32,num_4,0.333530267351,,,2017_Oct_25_1501,59.994169542,FEMA4ImagesEEG,001,202061,
AFNE01.JPG,AFNE01.JPG,AFNE01.JPG,AFNE01.JPG,AFNE01.JPG,AFNE01.JPG,,,,,,,,,2,7,27,1,,,,,,,,,,,,,,,AFNE13.jpg,AFSA10.jpg,AFNE04.jpg,AFSA02.jpg,AFNE04.jpg,FN,3,num_2,32,num_8,0.333492420148,,,2017_Oct_25_1501,59.994169542,FEMA4ImagesEEG,001,202061,
AFNE01.JPG,AFNE01.JPG,AFNE01.JPG,AFNE01.JPG,AFNE01.JPG,AFNE01.JPG,,,,,,,,,2,8,28,3,,,,,,,,,,,,,,,AFNE15.jpg,AFNE19.jpg,AFSA09.jpg,AFSA18.jpg,AFSA09.jpg,FS,4,num_2,32,num_4,0.25016205362,,,2017_Oct_25_1501,59.994169542,FEMA4ImagesEEG,001,202061,
AFNE01.JPG,AFNE01.JPG,AFNE01.JPG,AFNE01.JPG,AFNE01.JPG,AFNE01.JPG,,,,,,,,,2,9,29,2,,,,,,,,,,,,,,,AFSA12.jpg,AFSA03.jpg,AFNE08.jpg,AFNE14.jpg,AFNE08.jpg,FN,3,num_2,32,num_8,0.216779807466,,,2017_Oct_25_1501,59.994169542,FEMA4ImagesEEG,001,202061,
AFNE01.JPG,AFNE01.JPG,AFNE01.JPG,AFNE01.JPG,AFNE01.JPG,AFNE01.JPG,,,,,,,,,3,0,30,5,,,,,,,,,,,,,,,AFNE14.jpg,AFSA05.jpg,AFNE19.jpg,AFSA16.jpg,AFNE19.jpg,FN,3,num_2,32,num_4,0.483345120447,,,2017_Oct_25_1501,59.994169542,FEMA4ImagesEEG,001,202061,
AFNE01.JPG,AFNE01.JPG,AFNE01.JPG,AFNE01.JPG,AFNE01.JPG,AFNE01.JPG,,,,,,,,,3,1,31,7,,,,,,,,,,,,,,,AFNE07.jpg,AFSA10.jpg,AFNE11.jpg,AFSA20.jpg,AFSA20.jpg,FS,4,num_4,32,num_6,0.316790873068,,,2017_Oct_25_1501,59.994169542,FEMA4ImagesEEG,001,202061,
AFNE01.JPG,AFNE01.JPG,AFNE01.JPG,AFNE01.JPG,AFNE01.JPG,AFNE01.JPG,,,,,,,,,3,2,32,9,,,,,,,,,,,,,,,AFNE10.jpg,AFSA03.jpg,AFSA20.jpg,AFNE08.jpg,AFSA20.jpg,FS,4,num_2,32,num_4,0.433456336847,,,2017_Oct_25_1501,59.994169542,FEMA4ImagesEEG,001,202061,
AFNE01.JPG,AFNE01.JPG,AFNE01.JPG,AFNE01.JPG,AFNE01.JPG,AFNE01.JPG,,,,,,,,,3,3,33,3,,,,,,,,,,,,,,,AFSA20.jpg,AFSA15.jpg,AFNE11.jpg,AFNE01.jpg,AFNE01.jpg,FN,3,num_4,32,num_6,3.58291356557,,,2017_Oct_25_1501,59.994169542,FEMA4ImagesEEG,001,202061,
AFNE01.JPG,AFNE01.JPG,AFNE01.JPG,AFNE01.JPG,AFNE01.JPG,AFNE01.JPG,,,,,,,,,3,4,34,6,,,,,,,,,,,,,,,AFNE12.jpg,AFNE14.jpg,AFSA03.jpg,AFSA15.jpg,AFSA15.jpg,FS,4,num_4,16,num_4,0.316804985632,,,2017_Oct_25_1501,59.994169542,FEMA4ImagesEEG,001,202061,
AFNE01.JPG,AFNE01.JPG,AFNE01.JPG,AFNE01.JPG,AFNE01.JPG,AFNE01.JPG,,,,,,,,,3,5,35,1,,,,,,,,,,,,,,,AFNE07.jpg,AFNE02.jpg,AFSA02.jpg,AFSA06.jpg,AFNE07.jpg,FN,3,num_8,32,num_4,0.533466119436,,,2017_Oct_25_1501,59.994169542,FEMA4ImagesEEG,001,202061,
AFNE01.JPG,AFNE01.JPG,AFNE01.JPG,AFNE01.JPG,AFNE01.JPG,AFNE01.JPG,,,,,,,,,3,6,36,2,,,,,,,,,,,,,,,AFSA01.jpg,AFNE18.jpg,AFSA14.jpg,AFNE06.jpg,AFSA01.jpg,FS,4,num_8,16,num_8,0.26677635964,,,2017_Oct_25_1501,59.994169542,FEMA4ImagesEEG,001,202061,
AFNE01.JPG,AFNE01.JPG,AFNE01.JPG,AFNE01.JPG,AFNE01.JPG,AFNE01.JPG,,,,,,,,,3,7,37,8,,,,,,,,,,,,,,,AFSA08.jpg,AFNE16.jpg,AFSA19.jpg,AFNE20.jpg,AFNE20.jpg,FN,3,num_4,32,num_6,0.250193165382,,,2017_Oct_25_1501,59.994169542,FEMA4ImagesEEG,001,202061,
AFNE01.JPG,AFNE01.JPG,AFNE01.JPG,AFNE01.JPG,AFNE01.JPG,AFNE01.JPG,,,,,,,,,3,8,38,4,,,,,,,,,,,,,,,AFNE16.jpg,AFSA18.jpg,AFNE17.jpg,AFSA12.jpg,AFNE17.jpg,FN,3,num_2,32,num_4,0.300020046299,,,2017_Oct_25_1501,59.994169542,FEMA4ImagesEEG,001,202061,
AFNE01.JPG,AFNE01.JPG,AFNE01.JPG,AFNE01.JPG,AFNE01.JPG,AFNE01.JPG,,,,,,,,,3,9,39,0,,,,,,,,,,,,,,,AFNE08.jpg,AFSA04.jpg,AFNE18.jpg,AFSA14.jpg,AFNE18.jpg,FN,3,num_2,32,num_8,0.533498514211,,,2017_Oct_25_1501,59.994169542,FEMA4ImagesEEG,001,202061,
AFNE01.JPG,AFNE01.JPG,AFNE01.JPG,AFNE01.JPG,AFNE01.JPG,AFNE01.JPG,,,,,,,,,4,0,40,9,,,,,,,,,,,,,,,AFNE06.jpg,AFSA07.jpg,AFSA13.jpg,AFNE12.jpg,AFSA07.jpg,FS,4,num_6,16,num_6,0.333553360659,,,2017_Oct_25_1501,59.994169542,FEMA4ImagesEEG,001,202061,
AFNE01.JPG,AFNE01.JPG,AFNE01.JPG,AFNE01.JPG,AFNE01.JPG,AFNE01.JPG,,,,,,,,,4,1,41,2,,,,,,,,,,,,,,,AFNE05.jpg,AFSA04.jpg,AFSA12.jpg,AFNE14.jpg,AFNE14.jpg,FN,3,num_4,32,num_8,0.750142328208,,,2017_Oct_25_1501,59.994169542,FEMA4ImagesEEG,001,202061,
AFNE01.JPG,AFNE01.JPG,AFNE01.JPG,AFNE01.JPG,AFNE01.JPG,AFNE01.JPG,,,,,,,,,4,2,42,0,,,,,,,,,,,,,,,AFNE05.jpg,AFSA13.jpg,AFSA16.jpg,AFNE11.jpg,AFSA13.jpg,FS,4,num_6,32,num_2,0.550200702739,,,2017_Oct_25_1501,59.994169542,FEMA4ImagesEEG,001,202061,
AFNE01.JPG,AFNE01.JPG,AFNE01.JPG,AFNE01.JPG,AFNE01.JPG,AFNE01.JPG,,,,,,,,,4,3,43,3,,,,,,,,,,,,,,,AFSA16.jpg,AFNE05.jpg,AFSA03.jpg,AFNE13.jpg,AFSA16.jpg,FS,4,num_8,16,num_8,0.71677515679,,,2017_Oct_25_1501,59.994169542,FEMA4ImagesEEG,001,202061,
AFNE01.JPG,AFNE01.JPG,AFNE01.JPG,AFNE01.JPG,AFNE01.JPG,AFNE01.JPG,,,,,,,,,4,4,44,5,,,,,,,,,,,,,,,AFNE05.jpg,AFSA08.jpg,AFNE18.jpg,AFSA01.jpg,AFSA01.jpg,FS,4,num_4,32,num_2,0.699783982011,,,2017_Oct_25_1501,59.994169542,FEMA4ImagesEEG,001,202061,
AFNE01.JPG,AFNE01.JPG,AFNE01.JPG,AFNE01.JPG,AFNE01.JPG,AFNE01.JPG,,,,,,,,,4,5,45,1,,,,,,,,,,,,,,,AFSA16.jpg,AFNE18.jpg,AFSA08.jpg,AFNE16.jpg,AFSA16.jpg,FS,4,num_8,16,num_8,1.16677491623,,,2017_Oct_25_1501,59.994169542,FEMA4ImagesEEG,001,202061,
AFNE01.JPG,AFNE01.JPG,AFNE01.JPG,AFNE01.JPG,AFNE01.JPG,AFNE01.JPG,,,,,,,,,4,6,46,8,,,,,,,,,,,,,,,AFNE19.jpg,AFSA08.jpg,AFSA16.jpg,AFNE08.jpg,AFSA08.jpg,FS,4,num_6,16,num_6,0.85009117017,,,2017_Oct_25_1501,59.994169542,FEMA4ImagesEEG,001,202061,
AFNE01.JPG,AFNE01.JPG,AFNE01.JPG,AFNE01.JPG,AFNE01.JPG,AFNE01.JPG,,,,,,,,,4,7,47,4,,,,,,,,,,,,,,,AFSA03.jpg,AFNE09.jpg,AFNE06.jpg,AFSA01.jpg,AFNE06.jpg,FN,3,num_2,32,num_4,0.916794401128,,,2017_Oct_25_1501,59.994169542,FEMA4ImagesEEG,001,202061,
AFNE01.JPG,AFNE01.JPG,AFNE01.JPG,AFNE01.JPG,AFNE01.JPG,AFNE01.JPG,,,,,,,,,4,8,48,7,,,,,,,,,,,,,,,AFNE13.jpg,AFSA01.jpg,AFSA18.jpg,AFNE12.jpg,AFNE13.jpg,FN,3,num_8,16,num_8,0.600141125382,,,2017_Oct_25_1501,59.994169542,FEMA4ImagesEEG,001,202061,
AFNE01.JPG,AFNE01.JPG,AFNE01.JPG,AFNE01.JPG,AFNE01.JPG,AFNE01.JPG,,,,,,,,,4,9,49,6,,,,,,,,,,,,,,,AFSA01.jpg,AFSA02.jpg,AFNE11.jpg,AFNE12.jpg,AFSA01.jpg,FS,4,num_8,32,num_6,0.716808834462,,,2017_Oct_25_1501,59.994169542,FEMA4ImagesEEG,001,202061,
AFNE01.JPG,AFNE01.JPG,AFNE01.JPG,AFNE01.JPG,AFNE01.JPG,AFNE01.JPG,,,,,,,,,5,0,50,8,,,,,,,,,,,,,,,AFSA07.jpg,AFNE05.jpg,AFNE01.jpg,AFSA12.jpg,AFNE05.jpg,FN,3,num_6,32,num_4,0.516814928502,,,2017_Oct_25_1501,59.994169542,FEMA4ImagesEEG,001,202061,
AFNE01.JPG,AFNE01.JPG,AFNE01.JPG,AFNE01.JPG,AFNE01.JPG,AFNE01.JPG,,,,,,,,,5,1,51,7,,,,,,,,,,,,,,,AFNE19.jpg,AFSA05.jpg,AFSA04.jpg,AFNE08.jpg,AFSA05.jpg,FS,4,num_6,32,num_2,0.61680674972,,,2017_Oct_25_1501,59.994169542,FEMA4ImagesEEG,001,202061,
AFNE01.JPG,AFNE01.JPG,AFNE01.JPG,AFNE01.JPG,AFNE01.JPG,AFNE01.JPG,,,,,,,,,5,2,52,3,,,,,,,,,,,,,,,AFSA14.jpg,AFNE13.jpg,AFNE20.jpg,AFSA18.jpg,AFNE13.jpg,FN,3,num_6,16,num_6,0.516787024215,,,2017_Oct_25_1501,59.994169542,FEMA4ImagesEEG,001,202061,
AFNE01.JPG,AFNE01.JPG,AFNE01.JPG,AFNE01.JPG,AFNE01.JPG,AFNE01.JPG,,,,,,,,,5,3,53,4,,,,,,,,,,,,,,,AFSA16.jpg,AFNE20.jpg,AFNE02.jpg,AFSA18.jpg,AFSA16.jpg,FS,4,num_8,32,num_4,0.383520725416,,,2017_Oct_25_1501,59.994169542,FEMA4ImagesEEG,001,202061,
AFNE01.JPG,AFNE01.JPG,AFNE01.JPG,AFNE01.JPG,AFNE01.JPG,AFNE01.JPG,,,,,,,,,5,4,54,9,,,,,,,,,,,,,,,AFNE18.jpg,AFNE03.jpg,AFSA02.jpg,AFSA08.jpg,AFSA02.jpg,FS,4,num_2,32,num_4,0.683453530539,,,2017_Oct_25_1501,59.994169542,FEMA4ImagesEEG,001,202061,
AFNE01.JPG,AFNE01.JPG,AFNE01.JPG,AFNE01.JPG,AFNE01.JPG,AFNE01.JPG,,,,,,,,,5,5,55,5,,,,,,,,,,,,,,,AFSA03.jpg,AFSA16.jpg,AFNE03.jpg,AFNE04.jpg,AFNE03.jpg,FN,3,num_2,32,num_6,0.416797448182,,,2017_Oct_25_1501,59.994169542,FEMA4ImagesEEG,001,202061,
AFNE01.JPG,AFNE01.JPG,AFNE01.JPG,AFNE01.JPG,AFNE01.JPG,AFNE01.JPG,,,,,,,,,5,6,56,0,,,,,,,,,,,,,,,AFNE08.jpg,AFNE19.jpg,AFSA15.jpg,AFSA01.jpg,AFNE19.jpg,FN,3,num_6,32,num_8,0.300165982684,,,2017_Oct_25_1501,59.994169542,FEMA4ImagesEEG,001,202061,
AFNE01.JPG,AFNE01.JPG,AFNE01.JPG,AFNE01.JPG,AFNE01.JPG,AFNE01.JPG,,,,,,,,,5,7,57,6,,,,,,,,,,,,,,,AFNE04.jpg,AFNE20.jpg,AFSA07.jpg,AFSA15.jpg,AFSA15.jpg,FS,4,num_4,16,num_4,0.450178090599,,,2017_Oct_25_1501,59.994169542,FEMA4ImagesEEG,001,202061,
AFNE01.JPG,AFNE01.JPG,AFNE01.JPG,AFNE01.JPG,AFNE01.JPG,AFNE01.JPG,,,,,,,,,5,8,58,2,,,,,,,,,,,,,,,AFSA16.jpg,AFNE07.jpg,AFNE02.jpg,AFSA17.jpg,AFNE02.jpg,FN,3,num_2,32,num_4,0.43353491812,,,2017_Oct_25_1501,59.994169542,FEMA4ImagesEEG,001,202061,
AFNE01.JPG,AFNE01.JPG,AFNE01.JPG,AFNE01.JPG,AFNE01.JPG,AFNE01.JPG,,,,,,,,,5,9,59,1,,,,,,,,,,,,,,,AFSA20.jpg,AFNE18.jpg,AFSA06.jpg,AFNE12.jpg,AFSA06.jpg,FS,4,num_2,32,num_8,0.366879798123,,,2017_Oct_25_1501,59.994169542,FEMA4ImagesEEG,001,202061,
,,,,,,,,,,,,,,,,,,,,,,,,,,,,,,,,,,,,,,,,,,,space,8.56661871611,2017_Oct_25_1501,59.994169542,FEMA4ImagesEEG,001,202061,
AFNE01.JPG,AFNE01.JPG,AFNE01.JPG,AFNE01.JPG,AFNE01.JPG,AFNE01.JPG,,,,,,,,,,,,,0,0,0,1,,,,,,,,,,,AMSA19.jpg,AMSA11.jpg,AMNE07.jpg,AMNE06.jpg,AMSA19.jpg,MS,2,num_8,32,num_6,0.250205994933,,,2017_Oct_25_1501,59.994169542,FEMA4ImagesEEG,001,202061,
AFNE01.JPG,AFNE01.JPG,AFNE01.JPG,AFNE01.JPG,AFNE01.JPG,AFNE01.JPG,,,,,,,,,,,,,0,1,1,5,,,,,,,,,,,AMSA11.jpg,AMNE14.jpg,AMNE06.jpg,AMSA02.jpg,AMSA11.jpg,MS,2,num_8,32,num_4,0.733454572852,,,2017_Oct_25_1501,59.994169542,FEMA4ImagesEEG,001,202061,
AFNE01.JPG,AFNE01.JPG,AFNE01.JPG,AFNE01.JPG,AFNE01.JPG,AFNE01.JPG,,,,,,,,,,,,,0,2,2,8,,,,,,,,,,,AMSA16.jpg,AMSA08.jpg,AMNE11.jpg,AMNE03.jpg,AMNE03.jpg,MN,1,num_4,32,num_2,1.18345914339,,,2017_Oct_25_1501,59.994169542,FEMA4ImagesEEG,001,202061,
AFNE01.JPG,AFNE01.JPG,AFNE01.JPG,AFNE01.JPG,AFNE01.JPG,AFNE01.JPG,,,,,,,,,,,,,0,3,3,7,,,,,,,,,,,AMSA20.jpg,AMNE15.jpg,AMSA13.jpg,AMNE20.jpg,AMNE15.jpg,MN,1,num_6,16,num_6,0.533551756875,,,2017_Oct_25_1501,59.994169542,FEMA4ImagesEEG,001,202061,
AFNE01.JPG,AFNE01.JPG,AFNE01.JPG,AFNE01.JPG,AFNE01.JPG,AFNE01.JPG,,,,,,,,,,,,,0,4,4,4,,,,,,,,,,,AMNE04.jpg,AMSA01.jpg,AMNE20.jpg,AMSA15.jpg,AMSA15.jpg,MS,2,num_4,16,num_4,0.650184184662,,,2017_Oct_25_1501,59.994169542,FEMA4ImagesEEG,001,202061,
AFNE01.JPG,AFNE01.JPG,AFNE01.JPG,AFNE01.JPG,AFNE01.JPG,AFNE01.JPG,,,,,,,,,,,,,0,5,5,3,,,,,,,,,,,AMNE02.jpg,AMSA04.jpg,AMSA14.jpg,AMNE18.jpg,AMNE18.jpg,MN,1,num_4,16,num_4,0.633442545193,,,2017_Oct_25_1501,59.994169542,FEMA4ImagesEEG,001,202061,
AFNE01.JPG,AFNE01.JPG,AFNE01.JPG,AFNE01.JPG,AFNE01.JPG,AFNE01.JPG,,,,,,,,,,,,,0,6,6,2,,,,,,,,,,,AMSA10.jpg,AMNE09.jpg,AMSA07.jpg,AMNE01.jpg,AMNE01.jpg,MN,1,num_4,16,num_4,0.416633871035,,,2017_Oct_25_1501,59.994169542,FEMA4ImagesEEG,001,202061,
AFNE01.JPG,AFNE01.JPG,AFNE01.JPG,AFNE01.JPG,AFNE01.JPG,AFNE01.JPG,,,,,,,,,,,,,0,7,7,9,,,,,,,,,,,AMSA08.jpg,AMNE11.jpg,AMSA02.jpg,AMNE16.jpg,AMNE16.jpg,MN,1,num_4,32,num_8,0.566834253026,,,2017_Oct_25_1501,59.994169542,FEMA4ImagesEEG,001,202061,
AFNE01.JPG,AFNE01.JPG,AFNE01.JPG,AFNE01.JPG,AFNE01.JPG,AFNE01.JPG,,,,,,,,,,,,,0,8,8,0,,,,,,,,,,,AMNE16.jpg,AMSA01.jpg,AMNE11.jpg,AMSA02.jpg,AMSA02.jpg,MS,2,num_4,32,num_6,0.683436851948,,,2017_Oct_25_1501,59.994169542,FEMA4ImagesEEG,001,202061,
AFNE01.JPG,AFNE01.JPG,AFNE01.JPG,AFNE01.JPG,AFNE01.JPG,AFNE01.JPG,,,,,,,,,,,,,0,9,9,6,,,,,,,,,,,AMNE16.jpg,AMNE18.jpg,AMSA06.jpg,AMSA18.jpg,AMSA18.jpg,MS,2,num_4,16,num_4,0.283524093102,,,2017_Oct_25_1501,59.994169542,FEMA4ImagesEEG,001,202061,
AFNE01.JPG,AFNE01.JPG,AFNE01.JPG,AFNE01.JPG,AFNE01.JPG,AFNE01.JPG,,,,,,,,,,,,,1,0,10,6,,,,,,,,,,,AMNE16.jpg,AMSA12.jpg,AMNE08.jpg,AMSA15.jpg,AMNE08.jpg,MN,1,num_2,32,num_4,0.550098066102,,,2017_Oct_25_1501,59.994169542,FEMA4ImagesEEG,001,202061,
AFNE01.JPG,AFNE01.JPG,AFNE01.JPG,AFNE01.JPG,AFNE01.JPG,AFNE01.JPG,,,,,,,,,,,,,1,1,11,5,,,,,,,,,,,AMNE11.jpg,AMNE15.jpg,AMSA05.jpg,AMSA18.jpg,AMNE11.jpg,MN,1,num_8,32,num_4,0.333512947429,,,2017_Oct_25_1501,59.994169542,FEMA4ImagesEEG,001,202061,
AFNE01.JPG,AFNE01.JPG,AFNE01.JPG,AFNE01.JPG,AFNE01.JPG,AFNE01.JPG,,,,,,,,,,,,,1,2,12,4,,,,,,,,,,,AMNE06.jpg,AMNE13.jpg,AMSA20.jpg,AMSA02.jpg,AMNE06.jpg,MN,1,num_8,32,num_2,0.583489934448,,,2017_Oct_25_1501,59.994169542,FEMA4ImagesEEG,001,202061,
AFNE01.JPG,AFNE01.JPG,AFNE01.JPG,AFNE01.JPG,AFNE01.JPG,AFNE01.JPG,,,,,,,,,,,,,1,3,13,1,,,,,,,,,,,AMSA10.jpg,AMSA02.jpg,AMNE14.jpg,AMNE08.jpg,AMSA02.jpg,MS,2,num_6,16,num_6,0.333524814807,,,2017_Oct_25_1501,59.994169542,FEMA4ImagesEEG,001,202061,
AFNE01.JPG,AFNE01.JPG,AFNE01.JPG,AFNE01.JPG,AFNE01.JPG,AFNE01.JPG,,,,,,,,,,,,,1,4,14,8,,,,,,,,,,,AMSA03.jpg,AMNE12.jpg,AMNE07.jpg,AMSA05.jpg,AMNE07.jpg,MN,1,num_2,32,num_8,0.366820781957,,,2017_Oct_25_1501,59.994169542,FEMA4ImagesEEG,001,202061,
AFNE01.JPG,AFNE01.JPG,AFNE01.JPG,AFNE01.JPG,AFNE01.JPG,AFNE01.JPG,,,,,,,,,,,,,1,5,15,2,,,,,,,,,,,AMNE03.jpg,AMNE11.jpg,AMSA17.jpg,AMSA02.jpg,AMNE11.jpg,MN,1,num_6,32,num_4,0.35018466576,,,2017_Oct_25_1501,59.994169542,FEMA4ImagesEEG,001,202061,
AFNE01.JPG,AFNE01.JPG,AFNE01.JPG,AFNE01.JPG,AFNE01.JPG,AFNE01.JPG,,,,,,,,,,,,,1,6,16,0,,,,,,,,,,,AMSA04.jpg,AMSA09.jpg,AMNE16.jpg,AMNE19.jpg,AMNE19.jpg,MN,1,num_4,32,num_8,0.333523211069,,,2017_Oct_25_1501,59.994169542,FEMA4ImagesEEG,001,202061,
AFNE01.JPG,AFNE01.JPG,AFNE01.JPG,AFNE01.JPG,AFNE01.JPG,AFNE01.JPG,,,,,,,,,,,,,1,7,17,9,,,,,,,,,,,AMSA19.jpg,AMNE02.jpg,AMNE09.jpg,AMSA04.jpg,AMSA19.jpg,MS,2,num_8,32,num_4,0.450208240072,,,2017_Oct_25_1501,59.994169542,FEMA4ImagesEEG,001,202061,
AFNE01.JPG,AFNE01.JPG,AFNE01.JPG,AFNE01.JPG,AFNE01.JPG,AFNE01.JPG,,,,,,,,,,,,,1,8,18,7,,,,,,,,,,,AMSA13.jpg,AMNE20.jpg,AMNE01.jpg,AMSA14.jpg,AMSA13.jpg,MS,2,num_8,32,num_4,0.650210164487,,,2017_Oct_25_1501,59.994169542,FEMA4ImagesEEG,001,202061,
AFNE01.JPG,AFNE01.JPG,AFNE01.JPG,AFNE01.JPG,AFNE01.JPG,AFNE01.JPG,,,,,,,,,,,,,1,9,19,3,,,,,,,,,,,AMSA08.jpg,AMNE16.jpg,AMNE20.jpg,AMSA09.jpg,AMSA09.jpg,MS,2,num_4,32,num_8,0.0667269657133,,,2017_Oct_25_1501,59.994169542,FEMA4ImagesEEG,001,202061,
AFNE01.JPG,AFNE01.JPG,AFNE01.JPG,AFNE01.JPG,AFNE01.JPG,AFNE01.JPG,,,,,,,,,,,,,2,0,20,4,,,,,,,,,,,AMNE04.jpg,AMNE10.jpg,AMSA02.jpg,AMSA05.jpg,AMNE10.jpg,MN,1,num_6,32,num_2,0.533497552038,,,2017_Oct_25_1501,59.994169542,FEMA4ImagesEEG,001,202061,
AFNE01.JPG,AFNE01.JPG,AFNE01.JPG,AFNE01.JPG,AFNE01.JPG,AFNE01.JPG,,,,,,,,,,,,,2,1,21,5,,,,,,,,,,,AMNE07.jpg,AMSA10.jpg,AMSA01.jpg,AMNE02.jpg,AMSA01.jpg,MS,2,num_2,32,num_8,0.416810919298,,,2017_Oct_25_1501,59.994169542,FEMA4ImagesEEG,001,202061,
AFNE01.JPG,AFNE01.JPG,AFNE01.JPG,AFNE01.JPG,AFNE01.JPG,AFNE01.JPG,,,,,,,,,,,,,2,2,22,0,,,,,,,,,,,AMSA06.jpg,AMNE09.jpg,AMSA19.jpg,AMNE14.jpg,AMNE09.jpg,MN,1,num_6,32,num_2,0.366820461233,,,2017_Oct_25_1501,59.994169542,FEMA4ImagesEEG,001,202061,
AFNE01.JPG,AFNE01.JPG,AFNE01.JPG,AFNE01.JPG,AFNE01.JPG,AFNE01.JPG,,,,,,,,,,,,,2,3,23,8,,,,,,,,,,,AMSA01.jpg,AMNE07.jpg,AMSA04.jpg,AMNE15.jpg,AMNE15.jpg,MN,1,num_4,32,num_6,0.983699698001,,,2017_Oct_25_1501,59.994169542,FEMA4ImagesEEG,001,202061,
AFNE01.JPG,AFNE01.JPG,AFNE01.JPG,AFNE01.JPG,AFNE01.JPG,AFNE01.JPG,,,,,,,,,,,,,2,4,24,9,,,,,,,,,,,AMSA08.jpg,AMSA16.jpg,AMNE17.jpg,AMNE15.jpg,AMSA16.jpg,MS,2,num_6,32,num_2,0.800127654336,,,2017_Oct_25_1501,59.994169542,FEMA4ImagesEEG,001,202061,
AFNE01.JPG,AFNE01.JPG,AFNE01.JPG,AFNE01.JPG,AFNE01.JPG,AFNE01.JPG,,,,,,,,,,,,,2,5,25,6,,,,,,,,,,,AMSA04.jpg,AMNE07.jpg,AMSA09.jpg,AMNE03.jpg,AMSA09.jpg,MS,2,num_2,32,num_4,0.800142408349,,,2017_Oct_25_1501,59.994169542,FEMA4ImagesEEG,001,202061,
AFNE01.JPG,AFNE01.JPG,AFNE01.JPG,AFNE01.JPG,AFNE01.JPG,AFNE01.JPG,,,,,,,,,,,,,2,6,26,1,,,,,,,,,,,AMNE19.jpg,AMSA01.jpg,AMSA04.jpg,AMNE05.jpg,AMNE05.jpg,MN,1,num_4,16,num_4,1.23329500493,,,2017_Oct_25_1501,59.994169542,FEMA4ImagesEEG,001,202061,
AFNE01.JPG,AFNE01.JPG,AFNE01.JPG,AFNE01.JPG,AFNE01.JPG,AFNE01.JPG,,,,,,,,,,,,,2,7,27,7,,,,,,,,,,,AMSA02.jpg,AMSA06.jpg,AMNE12.jpg,AMNE06.jpg,AMSA06.jpg,MS,2,num_6,32,num_8,0.80012765422,,,2017_Oct_25_1501,59.994169542,FEMA4ImagesEEG,001,202061,
AFNE01.JPG,AFNE01.JPG,AFNE01.JPG,AFNE01.JPG,AFNE01.JPG,AFNE01.JPG,,,,,,,,,,,,,2,8,28,2,,,,,,,,,,,AMSA08.jpg,AMNE14.jpg,AMSA18.jpg,AMNE19.jpg,AMSA18.jpg,MS,2,num_2,32,num_6,0.816776600084,,,2017_Oct_25_1501,59.994169542,FEMA4ImagesEEG,001,202061,
AFNE01.JPG,AFNE01.JPG,AFNE01.JPG,AFNE01.JPG,AFNE01.JPG,AFNE01.JPG,,,,,,,,,,,,,2,9,29,3,,,,,,,,,,,AMSA10.jpg,AMSA09.jpg,AMNE17.jpg,AMNE01.jpg,AMNE01.jpg,MN,1,num_4,16,num_4,0.750153233297,,,2017_Oct_25_1501,59.994169542,FEMA4ImagesEEG,001,202061,
AFNE01.JPG,AFNE01.JPG,AFNE01.JPG,AFNE01.JPG,AFNE01.JPG,AFNE01.JPG,,,,,,,,,,,,,3,0,30,5,,,,,,,,,,,AMNE13.jpg,AMSA08.jpg,AMSA06.jpg,AMNE14.jpg,AMSA08.jpg,MS,2,num_6,16,num_6,0.766787425033,,,2017_Oct_25_1501,59.994169542,FEMA4ImagesEEG,001,202061,
AFNE01.JPG,AFNE01.JPG,AFNE01.JPG,AFNE01.JPG,AFNE01.JPG,AFNE01.JPG,,,,,,,,,,,,,3,1,31,7,,,,,,,,,,,AMNE02.jpg,AMNE07.jpg,AMSA14.jpg,AMSA03.jpg,AMSA14.jpg,MS,2,num_2,16,num_2,0.566767539247,,,2017_Oct_25_1501,59.994169542,FEMA4ImagesEEG,001,202061,
AFNE01.JPG,AFNE01.JPG,AFNE01.JPG,AFNE01.JPG,AFNE01.JPG,AFNE01.JPG,,,,,,,,,,,,,3,2,32,2,,,,,,,,,,,AMSA04.jpg,AMNE13.jpg,AMSA20.jpg,AMNE11.jpg,AMSA04.jpg,MS,2,num_8,32,num_4,0.650192203117,,,2017_Oct_25_1501,59.994169542,FEMA4ImagesEEG,001,202061,
AFNE01.JPG,AFNE01.JPG,AFNE01.JPG,AFNE01.JPG,AFNE01.JPG,AFNE01.JPG,,,,,,,,,,,,,3,3,33,0,,,,,,,,,,,AMSA04.jpg,AMNE03.jpg,AMNE18.jpg,AMSA20.jpg,AMSA04.jpg,MS,2,num_8,16,num_8,0.450165581773,,,2017_Oct_25_1501,59.994169542,FEMA4ImagesEEG,001,202061,
AFNE01.JPG,AFNE01.JPG,AFNE01.JPG,AFNE01.JPG,AFNE01.JPG,AFNE01.JPG,,,,,,,,,,,,,3,4,34,9,,,,,,,,,,,AMNE08.jpg,AMSA04.jpg,AMSA15.jpg,AMNE02.jpg,AMSA04.jpg,MS,2,num_6,16,num_6,0.383870331454,,,2017_Oct_25_1501,59.994169542,FEMA4ImagesEEG,001,202061,
AFNE01.JPG,AFNE01.JPG,AFNE01.JPG,AFNE01.JPG,AFNE01.JPG,AFNE01.JPG,,,,,,,,,,,,,3,5,35,1,,,,,,,,,,,AMNE07.jpg,AMSA07.jpg,AMNE15.jpg,AMSA15.jpg,AMSA07.jpg,MS,2,num_6,32,num_2,0.733541493304,,,2017_Oct_25_1501,59.994169542,FEMA4ImagesEEG,001,202061,
AFNE01.JPG,AFNE01.JPG,AFNE01.JPG,AFNE01.JPG,AFNE01.JPG,AFNE01.JPG,,,,,,,,,,,,,3,6,36,8,,,,,,,,,,,AMNE05.jpg,AMSA19.jpg,AMSA02.jpg,AMNE08.jpg,AMNE08.jpg,MN,1,num_4,16,num_4,0.666792717297,,,2017_Oct_25_1501,59.994169542,FEMA4ImagesEEG,001,202061,
AFNE01.JPG,AFNE01.JPG,AFNE01.JPG,AFNE01.JPG,AFNE01.JPG,AFNE01.JPG,,,,,,,,,,,,,3,7,37,4,,,,,,,,,,,AMNE11.jpg,AMSA01.jpg,AMSA13.jpg,AMNE16.jpg,AMSA01.jpg,MS,2,num_6,32,num_8,0.450157563202,,,2017_Oct_25_1501,59.994169542,FEMA4ImagesEEG,001,202061,
AFNE01.JPG,AFNE01.JPG,AFNE01.JPG,AFNE01.JPG,AFNE01.JPG,AFNE01.JPG,,,,,,,,,,,,,3,8,38,3,,,,,,,,,,,AMNE12.jpg,AMSA01.jpg,AMNE01.jpg,AMSA04.jpg,AMSA04.jpg,MS,2,num_4,32,num_6,0.700173359597,,,2017_Oct_25_1501,59.994169542,FEMA4ImagesEEG,001,202061,
AFNE01.JPG,AFNE01.JPG,AFNE01.JPG,AFNE01.JPG,AFNE01.JPG,AFNE01.JPG,,,,,,,,,,,,,3,9,39,6,,,,,,,,,,,AMNE19.jpg,AMSA02.jpg,AMNE03.jpg,AMSA05.jpg,AMNE19.jpg,MN,1,num_8,16,num_8,0.433472373872,,,2017_Oct_25_1501,59.994169542,FEMA4ImagesEEG,001,202061,
AFNE01.JPG,AFNE01.JPG,AFNE01.JPG,AFNE01.JPG,AFNE01.JPG,AFNE01.JPG,,,,,,,,,,,,,4,0,40,1,,,,,,,,,,,AMSA04.jpg,AMNE09.jpg,AMSA16.jpg,AMNE13.jpg,AMSA04.jpg,MS,2,num_8,32,num_2,0.683458662243,,,2017_Oct_25_1501,59.994169542,FEMA4ImagesEEG,001,202061,
AFNE01.JPG,AFNE01.JPG,AFNE01.JPG,AFNE01.JPG,AFNE01.JPG,AFNE01.JPG,,,,,,,,,,,,,4,1,41,8,,,,,,,,,,,AMSA03.jpg,AMNE17.jpg,AMSA13.jpg,AMNE04.jpg,AMNE17.jpg,MN,1,num_6,32,num_4,0.800128295901,,,2017_Oct_25_1501,59.994169542,FEMA4ImagesEEG,001,202061,
AFNE01.JPG,AFNE01.JPG,AFNE01.JPG,AFNE01.JPG,AFNE01.JPG,AFNE01.JPG,,,,,,,,,,,,,4,2,42,7,,,,,,,,,,,AMNE13.jpg,AMSA17.jpg,AMNE09.jpg,AMSA12.jpg,AMNE13.jpg,MN,1,num_8,16,num_8,0.300193886971,,,2017_Oct_25_1501,59.994169542,FEMA4ImagesEEG,001,202061,
AFNE01.JPG,AFNE01.JPG,AFNE01.JPG,AFNE01.JPG,AFNE01.JPG,AFNE01.JPG,,,,,,,,,,,,,4,3,43,2,,,,,,,,,,,AMNE19.jpg,AMNE08.jpg,AMSA15.jpg,AMSA14.jpg,AMSA15.jpg,MS,2,num_2,32,num_8,0.566774274805,,,2017_Oct_25_1501,59.994169542,FEMA4ImagesEEG,001,202061,
AFNE01.JPG,AFNE01.JPG,AFNE01.JPG,AFNE01.JPG,AFNE01.JPG,AFNE01.JPG,,,,,,,,,,,,,4,4,44,3,,,,,,,,,,,AMSA02.jpg,AMSA19.jpg,AMNE06.jpg,AMNE05.jpg,AMNE05.jpg,MN,1,num_4,32,num_2,0.333534436999,,,2017_Oct_25_1501,59.994169542,FEMA4ImagesEEG,001,202061,
AFNE01.JPG,AFNE01.JPG,AFNE01.JPG,AFNE01.JPG,AFNE01.JPG,AFNE01.JPG,,,,,,,,,,,,,4,5,45,0,,,,,,,,,,,AMSA14.jpg,AMNE19.jpg,AMSA08.jpg,AMNE20.jpg,AMNE20.jpg,MN,1,num_4,32,num_8,0.383504688391,,,2017_Oct_25_1501,59.994169542,FEMA4ImagesEEG,001,202061,
AFNE01.JPG,AFNE01.JPG,AFNE01.JPG,AFNE01.JPG,AFNE01.JPG,AFNE01.JPG,,,,,,,,,,,,,4,6,46,9,,,,,,,,,,,AMNE06.jpg,AMSA16.jpg,AMNE04.jpg,AMSA05.jpg,AMNE04.jpg,MN,1,num_2,32,num_4,0.333530267468,,,2017_Oct_25_1501,59.994169542,FEMA4ImagesEEG,001,202061,
AFNE01.JPG,AFNE01.JPG,AFNE01.JPG,AFNE01.JPG,AFNE01.JPG,AFNE01.JPG,,,,,,,,,,,,,4,7,47,6,,,,,,,,,,,AMNE14.jpg,AMSA11.jpg,AMNE07.jpg,AMSA03.jpg,AMSA11.jpg,MS,2,num_6,16,num_6,0.350461143185,,,2017_Oct_25_1501,59.994169542,FEMA4ImagesEEG,001,202061,
AFNE01.JPG,AFNE01.JPG,AFNE01.JPG,AFNE01.JPG,AFNE01.JPG,AFNE01.JPG,,,,,,,,,,,,,4,8,48,4,,,,,,,,,,,AMSA08.jpg,AMNE05.jpg,AMSA17.jpg,AMNE10.jpg,AMSA17.jpg,MS,2,num_2,32,num_4,0.350184345036,,,2017_Oct_25_1501,59.994169542,FEMA4ImagesEEG,001,202061,
AFNE01.JPG,AFNE01.JPG,AFNE01.JPG,AFNE01.JPG,AFNE01.JPG,AFNE01.JPG,,,,,,,,,,,,,4,9,49,5,,,,,,,,,,,AMNE02.jpg,AMSA09.jpg,AMSA01.jpg,AMNE06.jpg,AMNE06.jpg,MN,1,num_4,32,num_6,0.7668002547,,,2017_Oct_25_1501,59.994169542,FEMA4ImagesEEG,001,202061,
AFNE01.JPG,AFNE01.JPG,AFNE01.JPG,AFNE01.JPG,AFNE01.JPG,AFNE01.JPG,,,,,,,,,,,,,5,0,50,6,,,,,,,,,,,AMSA11.jpg,AMNE08.jpg,AMNE09.jpg,AMSA02.jpg,AMSA02.jpg,MS,2,num_4,32,num_6,0.550171194714,,,2017_Oct_25_1501,59.994169542,FEMA4ImagesEEG,001,202061,
AFNE01.JPG,AFNE01.JPG,AFNE01.JPG,AFNE01.JPG,AFNE01.JPG,AFNE01.JPG,,,,,,,,,,,,,5,1,51,2,,,,,,,,,,,AMSA11.jpg,AMNE01.jpg,AMNE13.jpg,AMSA03.jpg,AMNE13.jpg,MN,1,num_2,32,num_8,0.533520965953,,,2017_Oct_25_1501,59.994169542,FEMA4ImagesEEG,001,202061,
AFNE01.JPG,AFNE01.JPG,AFNE01.JPG,AFNE01.JPG,AFNE01.JPG,AFNE01.JPG,,,,,,,,,,,,,5,2,52,3,,,,,,,,,,,AMNE14.jpg,AMSA04.jpg,AMNE01.jpg,AMSA05.jpg,AMNE01.jpg,MN,1,num_2,32,num_8,0.68353467749,,,2017_Oct_25_1501,59.994169542,FEMA4ImagesEEG,001,202061,
AFNE01.JPG,AFNE01.JPG,AFNE01.JPG,AFNE01.JPG,AFNE01.JPG,AFNE01.JPG,,,,,,,,,,,,,5,3,53,9,,,,,,,,,,,AMNE09.jpg,AMSA02.jpg,AMNE20.jpg,AMSA07.jpg,AMSA07.jpg,MS,2,num_4,32,num_2,0.450119715999,,,2017_Oct_25_1501,59.994169542,FEMA4ImagesEEG,001,202061,
AFNE01.JPG,AFNE01.JPG,AFNE01.JPG,AFNE01.JPG,AFNE01.JPG,AFNE01.JPG,,,,,,,,,,,,,5,4,54,0,,,,,,,,,,,AMNE08.jpg,AMSA05.jpg,AMSA07.jpg,AMNE20.jpg,AMNE20.jpg,MN,1,num_4,16,num_4,0.516773873824,,,2017_Oct_25_1501,59.994169542,FEMA4ImagesEEG,001,202061,
AFNE01.JPG,AFNE01.JPG,AFNE01.JPG,AFNE01.JPG,AFNE01.JPG,AFNE01.JPG,,,,,,,,,,,,,5,5,55,4,,,,,,,,,,,AMSA03.jpg,AMNE05.jpg,AMNE07.jpg,AMSA08.jpg,AMSA08.jpg,MS,2,num_4,32,num_8,1.68344070087,,,2017_Oct_25_1501,59.994169542,FEMA4ImagesEEG,001,202061,
AFNE01.JPG,AFNE01.JPG,AFNE01.JPG,AFNE01.JPG,AFNE01.JPG,AFNE01.JPG,,,,,,,,,,,,,5,6,56,1,,,,,,,,,,,AMSA08.jpg,AMSA06.jpg,AMNE16.jpg,AMNE06.jpg,AMNE06.jpg,MN,1,num_4,32,num_2,0.300167907146,,,2017_Oct_25_1501,59.994169542,FEMA4ImagesEEG,001,202061,
AFNE01.JPG,AFNE01.JPG,AFNE01.JPG,AFNE01.JPG,AFNE01.JPG,AFNE01.JPG,,,,,,,,,,,,,5,7,57,7,,,,,,,,,,,AMSA08.jpg,AMNE11.jpg,AMNE12.jpg,AMSA05.jpg,AMSA05.jpg,MS,2,num_4,32,num_6,0.33346162911,,,2017_Oct_25_1501,59.994169542,FEMA4ImagesEEG,001,202061,
AFNE01.JPG,AFNE01.JPG,AFNE01.JPG,AFNE01.JPG,AFNE01.JPG,AFNE01.JPG,,,,,,,,,,,,,5,8,58,5,,,,,,,,,,,AMNE19.jpg,AMSA02.jpg,AMSA20.jpg,AMNE13.jpg,AMNE19.jpg,MN,1,num_8,16,num_8,0.316834814264,,,2017_Oct_25_1501,59.994169542,FEMA4ImagesEEG,001,202061,
AFNE01.JPG,AFNE01.JPG,AFNE01.JPG,AFNE01.JPG,AFNE01.JPG,AFNE01.JPG,,,,,,,,,,,,,5,9,59,8,,,,,,,,,,,AMNE06.jpg,AMSA18.jpg,AMSA13.jpg,AMNE09.jpg,AMNE06.jpg,MN,1,num_8,32,num_4,0.266904655378,,,2017_Oct_25_1501,59.994169542,FEMA4ImagesEEG,001,202061,
,,,,,,,,,,,,,,,,,,,,,,,,,,,,,,,,,,,,,,,,,,,space,7.94986553001,2017_Oct_25_1501,59.994169542,FEMA4ImagesEEG,001,202061,
AFNE01.JPG,AFNE01.JPG,AFNE01.JPG,AFNE01.JPG,AFNE01.JPG,AFNE01.JPG,,,,,,,,,,,,,,,,,0,0,0,5,,,,,,,AFNE09.jpg,AFSA03.jpg,AFNE03.jpg,AFSA02.jpg,AFNE09.jpg,FN,3,num_8,32,num_6,0.6668013772,,,2017_Oct_25_1501,59.994169542,FEMA4ImagesEEG,001,202061,
AFNE01.JPG,AFNE01.JPG,AFNE01.JPG,AFNE01.JPG,AFNE01.JPG,AFNE01.JPG,,,,,,,,,,,,,,,,,0,1,1,9,,,,,,,AFSA08.jpg,AFNE15.jpg,AFNE07.jpg,AFSA06.jpg,AFSA08.jpg,FS,4,num_8,32,num_4,1.15012917784,,,2017_Oct_25_1501,59.994169542,FEMA4ImagesEEG,001,202061,
AFNE01.JPG,AFNE01.JPG,AFNE01.JPG,AFNE01.JPG,AFNE01.JPG,AFNE01.JPG,,,,,,,,,,,,,,,,,0,2,2,8,,,,,,,AFSA09.jpg,AFSA10.jpg,AFNE08.jpg,AFNE05.jpg,AFSA09.jpg,FS,4,num_8,16,num_8,0.866745568579,,,2017_Oct_25_1501,59.994169542,FEMA4ImagesEEG,001,202061,
AFNE01.JPG,AFNE01.JPG,AFNE01.JPG,AFNE01.JPG,AFNE01.JPG,AFNE01.JPG,,,,,,,,,,,,,,,,,0,3,3,7,,,,,,,AFSA02.jpg,AFNE15.jpg,AFSA05.jpg,AFNE20.jpg,AFSA05.jpg,FS,4,num_2,32,num_6,0.583455615328,,,2017_Oct_25_1501,59.994169542,FEMA4ImagesEEG,001,202061,
AFNE01.JPG,AFNE01.JPG,AFNE01.JPG,AFNE01.JPG,AFNE01.JPG,AFNE01.JPG,,,,,,,,,,,,,,,,,0,4,4,1,,,,,,,AFNE15.jpg,AFSA19.jpg,AFNE10.jpg,AFSA14.jpg,AFSA14.jpg,FS,4,num_4,32,num_2,0.483514150139,,,2017_Oct_25_1501,59.994169542,FEMA4ImagesEEG,001,202061,
AFNE01.JPG,AFNE01.JPG,AFNE01.JPG,AFNE01.JPG,AFNE01.JPG,AFNE01.JPG,,,,,,,,,,,,,,,,,0,5,5,6,,,,,,,AFNE20.jpg,AFSA13.jpg,AFSA03.jpg,AFNE05.jpg,AFNE20.jpg,FN,3,num_8,16,num_8,0.416775637888,,,2017_Oct_25_1501,59.994169542,FEMA4ImagesEEG,001,202061,
AFNE01.JPG,AFNE01.JPG,AFNE01.JPG,AFNE01.JPG,AFNE01.JPG,AFNE01.JPG,,,,,,,,,,,,,,,,,0,6,6,2,,,,,,,AFNE09.jpg,AFSA09.jpg,AFNE04.jpg,AFSA08.jpg,AFNE09.jpg,FN,3,num_8,32,num_4,0.700102155446,,,2017_Oct_25_1501,59.994169542,FEMA4ImagesEEG,001,202061,
AFNE01.JPG,AFNE01.JPG,AFNE01.JPG,AFNE01.JPG,AFNE01.JPG,AFNE01.JPG,,,,,,,,,,,,,,,,,0,7,7,0,,,,,,,AFSA20.jpg,AFNE20.jpg,AFSA01.jpg,AFNE17.jpg,AFNE20.jpg,FN,3,num_6,32,num_4,0.250197014189,,,2017_Oct_25_1501,59.994169542,FEMA4ImagesEEG,001,202061,
AFNE01.JPG,AFNE01.JPG,AFNE01.JPG,AFNE01.JPG,AFNE01.JPG,AFNE01.JPG,,,,,,,,,,,,,,,,,0,8,8,3,,,,,,,AFNE18.jpg,AFNE09.jpg,AFSA06.jpg,AFSA14.jpg,AFSA06.jpg,FS,4,num_2,16,num_2,0.350146497716,,,2017_Oct_25_1501,59.994169542,FEMA4ImagesEEG,001,202061,
AFNE01.JPG,AFNE01.JPG,AFNE01.JPG,AFNE01.JPG,AFNE01.JPG,AFNE01.JPG,,,,,,,,,,,,,,,,,0,9,9,4,,,,,,,AFSA01.jpg,AFNE07.jpg,AFSA05.jpg,AFNE12.jpg,AFSA01.jpg,FS,4,num_8,32,num_2,0.80012027733,,,2017_Oct_25_1501,59.994169542,FEMA4ImagesEEG,001,202061,
AFNE01.JPG,AFNE01.JPG,AFNE01.JPG,AFNE01.JPG,AFNE01.JPG,AFNE01.JPG,,,,,,,,,,,,,,,,,1,0,10,5,,,,,,,AFSA17.jpg,AFNE16.jpg,AFSA08.jpg,AFNE17.jpg,AFSA08.jpg,FS,4,num_2,32,num_6,0.916806268506,,,2017_Oct_25_1501,59.994169542,FEMA4ImagesEEG,001,202061,
AFNE01.JPG,AFNE01.JPG,AFNE01.JPG,AFNE01.JPG,AFNE01.JPG,AFNE01.JPG,,,,,,,,,,,,,,,,,1,1,11,8,,,,,,,AFNE06.jpg,AFSA06.jpg,AFNE12.jpg,AFSA03.jpg,AFNE06.jpg,FN,3,num_8,16,num_8,0.86675871897,,,2017_Oct_25_1501,59.994169542,FEMA4ImagesEEG,001,202061,
AFNE01.JPG,AFNE01.JPG,AFNE01.JPG,AFNE01.JPG,AFNE01.JPG,AFNE01.JPG,,,,,,,,,,,,,,,,,1,2,12,2,,,,,,,AFNE13.jpg,AFSA03.jpg,AFNE09.jpg,AFSA15.jpg,AFNE13.jpg,FN,3,num_8,32,num_6,0.783474218217,,,2017_Oct_25_1501,59.994169542,FEMA4ImagesEEG,001,202061,
AFNE01.JPG,AFNE01.JPG,AFNE01.JPG,AFNE01.JPG,AFNE01.JPG,AFNE01.JPG,,,,,,,,,,,,,,,,,1,3,13,4,,,,,,,AFNE01.jpg,AFSA07.jpg,AFSA10.jpg,AFNE11.jpg,AFNE11.jpg,FN,3,num_4,32,num_6,0.666786623187,,,2017_Oct_25_1501,59.994169542,FEMA4ImagesEEG,001,202061,
AFNE01.JPG,AFNE01.JPG,AFNE01.JPG,AFNE01.JPG,AFNE01.JPG,AFNE01.JPG,,,,,,,,,,,,,,,,,1,4,14,1,,,,,,,AFSA03.jpg,AFSA04.jpg,AFNE07.jpg,AFNE01.jpg,AFSA03.jpg,FS,4,num_8,32,num_4,0.25005043624,,,2017_Oct_25_1501,59.994169542,FEMA4ImagesEEG,001,202061,
AFNE01.JPG,AFNE01.JPG,AFNE01.JPG,AFNE01.JPG,AFNE01.JPG,AFNE01.JPG,,,,,,,,,,,,,,,,,1,5,15,3,,,,,,,AFNE05.jpg,AFSA02.jpg,AFSA09.jpg,AFNE19.jpg,AFNE05.jpg,FN,3,num_8,32,num_2,0.633494825568,,,2017_Oct_25_1501,59.994169542,FEMA4ImagesEEG,001,202061,
AFNE01.JPG,AFNE01.JPG,AFNE01.JPG,AFNE01.JPG,AFNE01.JPG,AFNE01.JPG,,,,,,,,,,,,,,,,,1,6,16,0,,,,,,,AFSA03.jpg,AFNE13.jpg,AFSA18.jpg,AFNE15.jpg,AFSA03.jpg,FS,4,num_8,32,num_4,0.350228286348,,,2017_Oct_25_1501,59.994169542,FEMA4ImagesEEG,001,202061,
AFNE01.JPG,AFNE01.JPG,AFNE01.JPG,AFNE01.JPG,AFNE01.JPG,AFNE01.JPG,,,,,,,,,,,,,,,,,1,7,17,7,,,,,,,AFNE18.jpg,AFSA12.jpg,AFSA11.jpg,AFNE05.jpg,AFNE05.jpg,FN,3,num_4,32,num_2,0.383490255103,,,2017_Oct_25_1501,59.994169542,FEMA4ImagesEEG,001,202061,
AFNE01.JPG,AFNE01.JPG,AFNE01.JPG,AFNE01.JPG,AFNE01.JPG,AFNE01.JPG,,,,,,,,,,,,,,,,,1,8,18,6,,,,,,,AFSA04.jpg,AFNE08.jpg,AFNE02.jpg,AFSA11.jpg,AFSA04.jpg,FS,4,num_8,32,num_4,0.4998356211,,,2017_Oct_25_1501,59.994169542,FEMA4ImagesEEG,001,202061,
AFNE01.JPG,AFNE01.JPG,AFNE01.JPG,AFNE01.JPG,AFNE01.JPG,AFNE01.JPG,,,,,,,,,,,,,,,,,1,9,19,9,,,,,,,AFSA04.jpg,AFNE12.jpg,AFSA14.jpg,AFNE14.jpg,AFNE12.jpg,FN,3,num_6,32,num_4,0.483482397045,,,2017_Oct_25_1501,59.994169542,FEMA4ImagesEEG,001,202061,
AFNE01.JPG,AFNE01.JPG,AFNE01.JPG,AFNE01.JPG,AFNE01.JPG,AFNE01.JPG,,,,,,,,,,,,,,,,,2,0,20,6,,,,,,,AFNE16.jpg,AFSA16.jpg,AFSA13.jpg,AFNE08.jpg,AFNE08.jpg,FN,3,num_4,32,num_6,0.650159167009,,,2017_Oct_25_1501,59.994169542,FEMA4ImagesEEG,001,202061,
AFNE01.JPG,AFNE01.JPG,AFNE01.JPG,AFNE01.JPG,AFNE01.JPG,AFNE01.JPG,,,,,,,,,,,,,,,,,2,1,21,0,,,,,,,AFSA16.jpg,AFNE19.jpg,AFSA13.jpg,AFNE01.jpg,AFSA13.jpg,FS,4,num_2,16,num_2,0.466851733392,,,2017_Oct_25_1501,59.994169542,FEMA4ImagesEEG,001,202061,
AFNE01.JPG,AFNE01.JPG,AFNE01.JPG,AFNE01.JPG,AFNE01.JPG,AFNE01.JPG,,,,,,,,,,,,,,,,,2,2,22,7,,,,,,,AFSA11.jpg,AFSA20.jpg,AFNE04.jpg,AFNE01.jpg,AFNE01.jpg,FN,3,num_4,16,num_4,0.36676112446,,,2017_Oct_25_1501,59.994169542,FEMA4ImagesEEG,001,202061,
AFNE01.JPG,AFNE01.JPG,AFNE01.JPG,AFNE01.JPG,AFNE01.JPG,AFNE01.JPG,,,,,,,,,,,,,,,,,2,3,23,5,,,,,,,AFSA19.jpg,AFSA05.jpg,AFNE17.jpg,AFNE18.jpg,AFNE18.jpg,FN,3,num_4,32,num_6,0.533476062468,,,2017_Oct_25_1501,59.994169542,FEMA4ImagesEEG,001,202061,
AFNE01.JPG,AFNE01.JPG,AFNE01.JPG,AFNE01.JPG,AFNE01.JPG,AFNE01.JPG,,,,,,,,,,,,,,,,,2,4,24,3,,,,,,,AFNE19.jpg,AFSA12.jpg,AFSA01.jpg,AFNE17.jpg,AFSA12.jpg,FS,4,num_6,32,num_4,2.39998941566,,,2017_Oct_25_1501,59.994169542,FEMA4ImagesEEG,001,202061,
AFNE01.JPG,AFNE01.JPG,AFNE01.JPG,AFNE01.JPG,AFNE01.JPG,AFNE01.JPG,,,,,,,,,,,,,,,,,2,5,25,4,,,,,,,AFSA13.jpg,AFSA08.jpg,AFNE13.jpg,AFNE08.jpg,AFSA13.jpg,FS,4,num_8,16,num_8,0.416836578399,,,2017_Oct_25_1501,59.994169542,FEMA4ImagesEEG,001,202061,
AFNE01.JPG,AFNE01.JPG,AFNE01.JPG,AFNE01.JPG,AFNE01.JPG,AFNE01.JPG,,,,,,,,,,,,,,,,,2,6,26,1,,,,,,,AFSA20.jpg,AFNE06.jpg,AFNE13.jpg,AFSA09.jpg,AFSA20.jpg,FS,4,num_8,32,num_6,0.350179213216,,,2017_Oct_25_1501,59.994169542,FEMA4ImagesEEG,001,202061,
AFNE01.JPG,AFNE01.JPG,AFNE01.JPG,AFNE01.JPG,AFNE01.JPG,AFNE01.JPG,,,,,,,,,,,,,,,,,2,7,27,2,,,,,,,AFSA09.jpg,AFNE16.jpg,AFSA20.jpg,AFNE20.jpg,AFNE16.jpg,FN,3,num_6,32,num_4,0.350169270299,,,2017_Oct_25_1501,59.994169542,FEMA4ImagesEEG,001,202061,
AFNE01.JPG,AFNE01.JPG,AFNE01.JPG,AFNE01.JPG,AFNE01.JPG,AFNE01.JPG,,,,,,,,,,,,,,,,,2,8,28,9,,,,,,,AFSA01.jpg,AFSA14.jpg,AFNE13.jpg,AFNE14.jpg,AFNE13.jpg,FN,3,num_2,16,num_2,0.0335599357495,,,2017_Oct_25_1501,59.994169542,FEMA4ImagesEEG,001,202061,
AFNE01.JPG,AFNE01.JPG,AFNE01.JPG,AFNE01.JPG,AFNE01.JPG,AFNE01.JPG,,,,,,,,,,,,,,,,,2,9,29,8,,,,,,,AFNE15.jpg,AFSA08.jpg,AFNE06.jpg,AFSA13.jpg,AFNE15.jpg,FN,3,num_8,16,num_8,0.533490495756,,,2017_Oct_25_1501,59.994169542,FEMA4ImagesEEG,001,202061,
AFNE01.JPG,AFNE01.JPG,AFNE01.JPG,AFNE01.JPG,AFNE01.JPG,AFNE01.JPG,,,,,,,,,,,,,,,,,3,0,30,2,,,,,,,AFSA11.jpg,AFSA14.jpg,AFNE09.jpg,AFNE02.jpg,AFSA11.jpg,FS,4,num_8,32,num_6,0.350163817755,,,2017_Oct_25_1501,59.994169542,FEMA4ImagesEEG,001,202061,
AFNE01.JPG,AFNE01.JPG,AFNE01.JPG,AFNE01.JPG,AFNE01.JPG,AFNE01.JPG,,,,,,,,,,,,,,,,,3,1,31,9,,,,,,,AFSA11.jpg,AFSA02.jpg,AFNE02.jpg,AFNE10.jpg,AFSA11.jpg,FS,4,num_8,32,num_4,0.633547747624,,,2017_Oct_25_1501,59.994169542,FEMA4ImagesEEG,001,202061,
AFNE01.JPG,AFNE01.JPG,AFNE01.JPG,AFNE01.JPG,AFNE01.JPG,AFNE01.JPG,,,,,,,,,,,,,,,,,3,2,32,6,,,,,,,AFNE14.jpg,AFSA18.jpg,AFSA09.jpg,AFNE08.jpg,AFSA09.jpg,FS,4,num_2,32,num_8,0.300201584701,,,2017_Oct_25_1501,59.994169542,FEMA4ImagesEEG,001,202061,
AFNE01.JPG,AFNE01.JPG,AFNE01.JPG,AFNE01.JPG,AFNE01.JPG,AFNE01.JPG,,,,,,,,,,,,,,,,,3,3,33,7,,,,,,,AFSA13.jpg,AFSA15.jpg,AFNE12.jpg,AFNE08.jpg,AFSA15.jpg,FS,4,num_6,16,num_6,1.03348776943,,,2017_Oct_25_1501,59.994169542,FEMA4ImagesEEG,001,202061,
AFNE01.JPG,AFNE01.JPG,AFNE01.JPG,AFNE01.JPG,AFNE01.JPG,AFNE01.JPG,,,,,,,,,,,,,,,,,3,4,34,0,,,,,,,AFNE12.jpg,AFSA17.jpg,AFNE11.jpg,AFSA08.jpg,AFNE12.jpg,FN,3,num_8,16,num_8,0.150198136806,,,2017_Oct_25_1501,59.994169542,FEMA4ImagesEEG,001,202061,
AFNE01.JPG,AFNE01.JPG,AFNE01.JPG,AFNE01.JPG,AFNE01.JPG,AFNE01.JPG,,,,,,,,,,,,,,,,,3,5,35,8,,,,,,,AFNE08.jpg,AFNE07.jpg,AFSA03.jpg,AFSA14.jpg,AFSA03.jpg,FS,4,num_2,16,num_2,0.416804825189,,,2017_Oct_25_1501,59.994169542,FEMA4ImagesEEG,001,202061,
AFNE01.JPG,AFNE01.JPG,AFNE01.JPG,AFNE01.JPG,AFNE01.JPG,AFNE01.JPG,,,,,,,,,,,,,,,,,3,6,36,3,,,,,,,AFNE09.jpg,AFNE02.jpg,AFSA14.jpg,AFSA01.jpg,AFNE02.jpg,FN,3,num_6,32,num_4,0.400118352845,,,2017_Oct_25_1501,59.994169542,FEMA4ImagesEEG,001,202061,
AFNE01.JPG,AFNE01.JPG,AFNE01.JPG,AFNE01.JPG,AFNE01.JPG,AFNE01.JPG,,,,,,,,,,,,,,,,,3,7,37,1,,,,,,,AFNE08.jpg,AFNE14.jpg,AFSA13.jpg,AFSA19.jpg,AFNE14.jpg,FN,3,num_6,32,num_4,0.383484481717,,,2017_Oct_25_1501,59.994169542,FEMA4ImagesEEG,001,202061,
AFNE01.JPG,AFNE01.JPG,AFNE01.JPG,AFNE01.JPG,AFNE01.JPG,AFNE01.JPG,,,,,,,,,,,,,,,,,3,8,38,4,,,,,,,AFSA08.jpg,AFSA19.jpg,AFNE13.jpg,AFNE04.jpg,AFSA19.jpg,FS,4,num_6,16,num_6,1.64992887608,,,2017_Oct_25_1501,59.994169542,FEMA4ImagesEEG,001,202061,
AFNE01.JPG,AFNE01.JPG,AFNE01.JPG,AFNE01.JPG,AFNE01.JPG,AFNE01.JPG,,,,,,,,,,,,,,,,,3,9,39,5,,,,,,,AFSA03.jpg,AFSA18.jpg,AFNE20.jpg,AFNE15.jpg,AFSA03.jpg,FS,4,num_8,16,num_8,0.300561133656,,,2017_Oct_25_1501,59.994169542,FEMA4ImagesEEG,001,202061,
AFNE01.JPG,AFNE01.JPG,AFNE01.JPG,AFNE01.JPG,AFNE01.JPG,AFNE01.JPG,,,,,,,,,,,,,,,,,4,0,40,2,,,,,,,AFNE08.jpg,AFSA19.jpg,AFNE05.jpg,AFSA16.jpg,AFSA16.jpg,FS,4,num_4,16,num_4,0.766753426753,,,2017_Oct_25_1501,59.994169542,FEMA4ImagesEEG,001,202061,
AFNE01.JPG,AFNE01.JPG,AFNE01.JPG,AFNE01.JPG,AFNE01.JPG,AFNE01.JPG,,,,,,,,,,,,,,,,,4,1,41,6,,,,,,,AFNE10.jpg,AFSA15.jpg,AFNE13.jpg,AFSA03.jpg,AFNE10.jpg,FN,3,num_8,16,num_8,1.00007922272,,,2017_Oct_25_1501,59.994169542,FEMA4ImagesEEG,001,202061,
AFNE01.JPG,AFNE01.JPG,AFNE01.JPG,AFNE01.JPG,AFNE01.JPG,AFNE01.JPG,,,,,,,,,,,,,,,,,4,2,42,7,,,,,,,AFNE09.jpg,AFSA06.jpg,AFSA11.jpg,AFNE02.jpg,AFSA06.jpg,FS,4,num_6,32,num_8,1.74979560869,,,2017_Oct_25_1501,59.994169542,FEMA4ImagesEEG,001,202061,
AFNE01.JPG,AFNE01.JPG,AFNE01.JPG,AFNE01.JPG,AFNE01.JPG,AFNE01.JPG,,,,,,,,,,,,,,,,,4,3,43,8,,,,,,,AFSA12.jpg,AFNE18.jpg,AFSA09.jpg,AFNE12.jpg,AFSA12.jpg,FS,4,num_8,16,num_8,0.316863360116,,,2017_Oct_25_1501,59.994169542,FEMA4ImagesEEG,001,202061,
AFNE01.JPG,AFNE01.JPG,AFNE01.JPG,AFNE01.JPG,AFNE01.JPG,AFNE01.JPG,,,,,,,,,,,,,,,,,4,4,44,5,,,,,,,AFNE04.jpg,AFSA15.jpg,AFSA11.jpg,AFNE01.jpg,AFSA15.jpg,FS,4,num_6,32,num_2,0.683561940445,,,2017_Oct_25_1501,59.994169542,FEMA4ImagesEEG,001,202061,
AFNE01.JPG,AFNE01.JPG,AFNE01.JPG,AFNE01.JPG,AFNE01.JPG,AFNE01.JPG,,,,,,,,,,,,,,,,,4,5,45,1,,,,,,,AFSA19.jpg,AFNE10.jpg,AFNE03.jpg,AFSA20.jpg,AFNE03.jpg,FN,3,num_2,16,num_2,0.333484080853,,,2017_Oct_25_1501,59.994169542,FEMA4ImagesEEG,001,202061,
AFNE01.JPG,AFNE01.JPG,AFNE01.JPG,AFNE01.JPG,AFNE01.JPG,AFNE01.JPG,,,,,,,,,,,,,,,,,4,6,46,9,,,,,,,AFSA20.jpg,AFNE19.jpg,AFNE11.jpg,AFSA14.jpg,AFNE11.jpg,FN,3,num_2,32,num_4,0.350133347441,,,2017_Oct_25_1501,59.994169542,FEMA4ImagesEEG,001,202061,
AFNE01.JPG,AFNE01.JPG,AFNE01.JPG,AFNE01.JPG,AFNE01.JPG,AFNE01.JPG,,,,,,,,,,,,,,,,,4,7,47,3,,,,,,,AFSA05.jpg,AFNE13.jpg,AFNE16.jpg,AFSA01.jpg,AFNE16.jpg,FN,3,num_2,32,num_4,0.000229007913731,,,2017_Oct_25_1501,59.994169542,FEMA4ImagesEEG,001,202061,
AFNE01.JPG,AFNE01.JPG,AFNE01.JPG,AFNE01.JPG,AFNE01.JPG,AFNE01.JPG,,,,,,,,,,,,,,,,,4,8,48,4,,,,,,,AFNE09.jpg,AFSA07.jpg,AFSA03.jpg,AFNE03.jpg,AFSA07.jpg,FS,4,num_6,16,num_6,0.666783736553,,,2017_Oct_25_1501,59.994169542,FEMA4ImagesEEG,001,202061,
AFNE01.JPG,AFNE01.JPG,AFNE01.JPG,AFNE01.JPG,AFNE01.JPG,AFNE01.JPG,,,,,,,,,,,,,,,,,4,9,49,0,,,,,,,AFSA06.jpg,AFSA17.jpg,AFNE14.jpg,AFNE17.jpg,AFSA06.jpg,FS,4,num_8,16,num_8,0.300149945659,,,2017_Oct_25_1501,59.994169542,FEMA4ImagesEEG,001,202061,
AFNE01.JPG,AFNE01.JPG,AFNE01.JPG,AFNE01.JPG,AFNE01.JPG,AFNE01.JPG,,,,,,,,,,,,,,,,,5,0,50,6,,,,,,,AFNE14.jpg,AFSA11.jpg,AFNE13.jpg,AFSA20.jpg,AFSA20.jpg,FS,4,num_4,32,num_2,0.383551516337,,,2017_Oct_25_1501,59.994169542,FEMA4ImagesEEG,001,202061,
AFNE01.JPG,AFNE01.JPG,AFNE01.JPG,AFNE01.JPG,AFNE01.JPG,AFNE01.JPG,,,,,,,,,,,,,,,,,5,1,51,1,,,,,,,AFSA10.jpg,AFSA07.jpg,AFNE01.jpg,AFNE16.jpg,AFNE01.jpg,FN,3,num_2,32,num_8,0.300191321061,,,2017_Oct_25_1501,59.994169542,FEMA4ImagesEEG,001,202061,
AFNE01.JPG,AFNE01.JPG,AFNE01.JPG,AFNE01.JPG,AFNE01.JPG,AFNE01.JPG,,,,,,,,,,,,,,,,,5,2,52,3,,,,,,,AFSA02.jpg,AFSA20.jpg,AFNE17.jpg,AFNE01.jpg,AFNE17.jpg,FN,3,num_2,32,num_4,0.43352465448,,,2017_Oct_25_1501,59.994169542,FEMA4ImagesEEG,001,202061,
AFNE01.JPG,AFNE01.JPG,AFNE01.JPG,AFNE01.JPG,AFNE01.JPG,AFNE01.JPG,,,,,,,,,,,,,,,,,5,3,53,5,,,,,,,AFSA20.jpg,AFNE08.jpg,AFSA08.jpg,AFNE15.jpg,AFSA20.jpg,FS,4,num_8,16,num_8,0.0335801424226,,,2017_Oct_25_1501,59.994169542,FEMA4ImagesEEG,001,202061,
AFNE01.JPG,AFNE01.JPG,AFNE01.JPG,AFNE01.JPG,AFNE01.JPG,AFNE01.JPG,,,,,,,,,,,,,,,,,5,4,54,4,,,,,,,AFNE06.jpg,AFNE09.jpg,AFSA02.jpg,AFSA19.jpg,AFSA02.jpg,FS,4,num_2,32,num_6,0.483497471781,,,2017_Oct_25_1501,59.994169542,FEMA4ImagesEEG,001,202061,
AFNE01.JPG,AFNE01.JPG,AFNE01.JPG,AFNE01.JPG,AFNE01.JPG,AFNE01.JPG,,,,,,,,,,,,,,,,,5,5,55,7,,,,,,,AFSA01.jpg,AFSA08.jpg,AFNE03.jpg,AFNE01.jpg,AFNE03.jpg,FN,3,num_2,16,num_2,0.883505490259,,,2017_Oct_25_1501,59.994169542,FEMA4ImagesEEG,001,202061,
AFNE01.JPG,AFNE01.JPG,AFNE01.JPG,AFNE01.JPG,AFNE01.JPG,AFNE01.JPG,,,,,,,,,,,,,,,,,5,6,56,8,,,,,,,AFSA14.jpg,AFSA12.jpg,AFNE14.jpg,AFNE18.jpg,AFSA12.jpg,FS,4,num_6,32,num_4,0.400136955781,,,2017_Oct_25_1501,59.994169542,FEMA4ImagesEEG,001,202061,
AFNE01.JPG,AFNE01.JPG,AFNE01.JPG,AFNE01.JPG,AFNE01.JPG,AFNE01.JPG,,,,,,,,,,,,,,,,,5,7,57,9,,,,,,,AFSA20.jpg,AFNE13.jpg,AFSA16.jpg,AFNE07.jpg,AFSA20.jpg,FS,4,num_8,16,num_8,0.60017191642,,,2017_Oct_25_1501,59.994169542,FEMA4ImagesEEG,001,202061,
AFNE01.JPG,AFNE01.JPG,AFNE01.JPG,AFNE01.JPG,AFNE01.JPG,AFNE01.JPG,,,,,,,,,,,,,,,,,5,8,58,0,,,,,,,AFSA08.jpg,AFNE20.jpg,AFNE09.jpg,AFSA14.jpg,AFNE20.jpg,FN,3,num_6,32,num_4,1.16674348374,,,2017_Oct_25_1501,59.994169542,FEMA4ImagesEEG,001,202061,
AFNE01.JPG,AFNE01.JPG,AFNE01.JPG,AFNE01.JPG,AFNE01.JPG,AFNE01.JPG,,,,,,,,,,,,,,,,,5,9,59,2,,,,,,,AFNE06.jpg,AFNE09.jpg,AFSA14.jpg,AFSA08.jpg,AFSA14.jpg,FS,4,num_2,32,num_6,0.433479430154,,,2017_Oct_25_1501,59.994169542,FEMA4ImagesEEG,001,202061,
,,,,,,,,,,,,,,,,,,,,,,,,,,,,,,,,,,,,,,,,,,,space,2.18334977119,2017_Oct_25_1501,59.994169542,FEMA4ImagesEEG,001,202061,
AFNE01.JPG,AFNE01.JPG,AFNE01.JPG,AFNE01.JPG,AFNE01.JPG,AFNE01.JPG,,,,,,,,,,,,,,,,,,,,,0,0,0,3,,,AMNE13.jpg,AMNE08.jpg,AMSA02.jpg,AMSA17.jpg,AMNE08.jpg,MN,1,num_6,32,num_8,0.466764492216,,,2017_Oct_25_1501,59.994169542,FEMA4ImagesEEG,001,202061,
AFNE01.JPG,AFNE01.JPG,AFNE01.JPG,AFNE01.JPG,AFNE01.JPG,AFNE01.JPG,,,,,,,,,,,,,,,,,,,,,0,1,1,6,,,AMSA02.jpg,AMNE19.jpg,AMSA06.jpg,AMNE11.jpg,AMNE11.jpg,MN,1,num_4,16,num_4,0.350167987286,,,2017_Oct_25_1501,59.994169542,FEMA4ImagesEEG,001,202061,
AFNE01.JPG,AFNE01.JPG,AFNE01.JPG,AFNE01.JPG,AFNE01.JPG,AFNE01.JPG,,,,,,,,,,,,,,,,,,,,,0,2,2,8,,,AMNE10.jpg,AMSA06.jpg,AMNE05.jpg,AMSA02.jpg,AMNE05.jpg,MN,1,num_2,32,num_6,0.533504929044,,,2017_Oct_25_1501,59.994169542,FEMA4ImagesEEG,001,202061,
AFNE01.JPG,AFNE01.JPG,AFNE01.JPG,AFNE01.JPG,AFNE01.JPG,AFNE01.JPG,,,,,,,,,,,,,,,,,,,,,0,3,3,0,,,AMSA09.jpg,AMNE02.jpg,AMSA07.jpg,AMNE06.jpg,AMSA09.jpg,MS,2,num_8,32,num_4,0.716737951036,,,2017_Oct_25_1501,59.994169542,FEMA4ImagesEEG,001,202061,
AFNE01.JPG,AFNE01.JPG,AFNE01.JPG,AFNE01.JPG,AFNE01.JPG,AFNE01.JPG,,,,,,,,,,,,,,,,,,,,,0,4,4,2,,,AMSA12.jpg,AMNE09.jpg,AMNE04.jpg,AMSA05.jpg,AMSA12.jpg,MS,2,num_8,32,num_2,0.350158044486,,,2017_Oct_25_1501,59.994169542,FEMA4ImagesEEG,001,202061,
AFNE01.JPG,AFNE01.JPG,AFNE01.JPG,AFNE01.JPG,AFNE01.JPG,AFNE01.JPG,,,,,,,,,,,,,,,,,,,,,0,5,5,5,,,AMSA06.jpg,AMNE06.jpg,AMNE04.jpg,AMSA16.jpg,AMSA06.jpg,MS,2,num_8,32,num_6,0.316788307158,,,2017_Oct_25_1501,59.994169542,FEMA4ImagesEEG,001,202061,
AFNE01.JPG,AFNE01.JPG,AFNE01.JPG,AFNE01.JPG,AFNE01.JPG,AFNE01.JPG,,,,,,,,,,,,,,,,,,,,,0,6,6,1,,,AMSA12.jpg,AMNE04.jpg,AMSA04.jpg,AMNE08.jpg,AMSA12.jpg,MS,2,num_8,32,num_2,0.516763930907,,,2017_Oct_25_1501,59.994169542,FEMA4ImagesEEG,001,202061,
AFNE01.JPG,AFNE01.JPG,AFNE01.JPG,AFNE01.JPG,AFNE01.JPG,AFNE01.JPG,,,,,,,,,,,,,,,,,,,,,0,7,7,7,,,AMSA15.jpg,AMNE05.jpg,AMNE15.jpg,AMSA08.jpg,AMNE05.jpg,MN,1,num_6,32,num_8,0.383462029975,,,2017_Oct_25_1501,59.994169542,FEMA4ImagesEEG,001,202061,
AFNE01.JPG,AFNE01.JPG,AFNE01.JPG,AFNE01.JPG,AFNE01.JPG,AFNE01.JPG,,,,,,,,,,,,,,,,,,,,,0,8,8,4,,,AMSA15.jpg,AMSA17.jpg,AMNE01.jpg,AMNE08.jpg,AMSA17.jpg,MS,2,num_6,16,num_6,0.483541733818,,,2017_Oct_25_1501,59.994169542,FEMA4ImagesEEG,001,202061,
AFNE01.JPG,AFNE01.JPG,AFNE01.JPG,AFNE01.JPG,AFNE01.JPG,AFNE01.JPG,,,,,,,,,,,,,,,,,,,,,0,9,9,9,,,AMSA07.jpg,AMSA19.jpg,AMNE06.jpg,AMNE02.jpg,AMNE02.jpg,MN,1,num_4,32,num_8,0.200160049018,,,2017_Oct_25_1501,59.994169542,FEMA4ImagesEEG,001,202061,
AFNE01.JPG,AFNE01.JPG,AFNE01.JPG,AFNE01.JPG,AFNE01.JPG,AFNE01.JPG,,,,,,,,,,,,,,,,,,,,,1,0,10,5,,,AMSA20.jpg,AMSA19.jpg,AMNE02.jpg,AMNE07.jpg,AMNE02.jpg,MN,1,num_2,16,num_2,0.300432196469,,,2017_Oct_25_1501,59.994169542,FEMA4ImagesEEG,001,202061,
AFNE01.JPG,AFNE01.JPG,AFNE01.JPG,AFNE01.JPG,AFNE01.JPG,AFNE01.JPG,,,,,,,,,,,,,,,,,,,,,1,1,11,7,,,AMSA05.jpg,AMNE15.jpg,AMSA02.jpg,AMNE06.jpg,AMSA05.jpg,MS,2,num_8,32,num_2,0.266891825711,,,2017_Oct_25_1501,59.994169542,FEMA4ImagesEEG,001,202061,
AFNE01.JPG,AFNE01.JPG,AFNE01.JPG,AFNE01.JPG,AFNE01.JPG,AFNE01.JPG,,,,,,,,,,,,,,,,,,,,,1,2,12,8,,,AMNE20.jpg,AMSA11.jpg,AMNE08.jpg,AMSA03.jpg,AMNE20.jpg,MN,1,num_8,32,num_4,0.483490094775,,,2017_Oct_25_1501,59.994169542,FEMA4ImagesEEG,001,202061,
AFNE01.JPG,AFNE01.JPG,AFNE01.JPG,AFNE01.JPG,AFNE01.JPG,AFNE01.JPG,,,,,,,,,,,,,,,,,,,,,1,3,13,3,,,AMSA17.jpg,AMNE07.jpg,AMSA05.jpg,AMNE05.jpg,AMSA05.jpg,MS,2,num_2,32,num_6,0.850128376042,,,2017_Oct_25_1501,59.994169542,FEMA4ImagesEEG,001,202061,
AFNE01.JPG,AFNE01.JPG,AFNE01.JPG,AFNE01.JPG,AFNE01.JPG,AFNE01.JPG,,,,,,,,,,,,,,,,,,,,,1,4,14,1,,,AMSA13.jpg,AMNE12.jpg,AMNE15.jpg,AMSA20.jpg,AMNE12.jpg,MN,1,num_6,32,num_4,0.583498594468,,,2017_Oct_25_1501,59.994169542,FEMA4ImagesEEG,001,202061,
AFNE01.JPG,AFNE01.JPG,AFNE01.JPG,AFNE01.JPG,AFNE01.JPG,AFNE01.JPG,,,,,,,,,,,,,,,,,,,,,1,5,15,2,,,AMSA01.jpg,AMNE03.jpg,AMNE09.jpg,AMSA02.jpg,AMNE03.jpg,MN,1,num_6,16,num_6,0.80014401197,,,2017_Oct_25_1501,59.994169542,FEMA4ImagesEEG,001,202061,
AFNE01.JPG,AFNE01.JPG,AFNE01.JPG,AFNE01.JPG,AFNE01.JPG,AFNE01.JPG,,,,,,,,,,,,,,,,,,,,,1,6,16,4,,,AMNE04.jpg,AMSA13.jpg,AMNE18.jpg,AMSA15.jpg,AMSA13.jpg,MS,2,num_6,32,num_2,1.00015876605,,,2017_Oct_25_1501,59.994169542,FEMA4ImagesEEG,001,202061,
AFNE01.JPG,AFNE01.JPG,AFNE01.JPG,AFNE01.JPG,AFNE01.JPG,AFNE01.JPG,,,,,,,,,,,,,,,,,,,,,1,7,17,0,,,AMNE11.jpg,AMSA09.jpg,AMSA01.jpg,AMNE07.jpg,AMNE11.jpg,MN,1,num_8,32,num_4,0.466827357071,,,2017_Oct_25_1501,59.994169542,FEMA4ImagesEEG,001,202061,
AFNE01.JPG,AFNE01.JPG,AFNE01.JPG,AFNE01.JPG,AFNE01.JPG,AFNE01.JPG,,,,,,,,,,,,,,,,,,,,,1,8,18,6,,,AMSA18.jpg,AMNE07.jpg,AMNE16.jpg,AMSA16.jpg,AMNE16.jpg,MN,1,num_2,32,num_8,0.466785340221,,,2017_Oct_25_1501,59.994169542,FEMA4ImagesEEG,001,202061,
AFNE01.JPG,AFNE01.JPG,AFNE01.JPG,AFNE01.JPG,AFNE01.JPG,AFNE01.JPG,,,,,,,,,,,,,,,,,,,,,1,9,19,9,,,AMSA15.jpg,AMNE02.jpg,AMNE19.jpg,AMSA05.jpg,AMNE19.jpg,MN,1,num_2,32,num_6,0.916775798309,,,2017_Oct_25_1501,59.994169542,FEMA4ImagesEEG,001,202061,
AFNE01.JPG,AFNE01.JPG,AFNE01.JPG,AFNE01.JPG,AFNE01.JPG,AFNE01.JPG,,,,,,,,,,,,,,,,,,,,,2,0,20,9,,,AMSA07.jpg,AMNE16.jpg,AMNE06.jpg,AMSA09.jpg,AMNE16.jpg,MN,1,num_6,32,num_2,1.1500727277,,,2017_Oct_25_1501,59.994169542,FEMA4ImagesEEG,001,202061,
AFNE01.JPG,AFNE01.JPG,AFNE01.JPG,AFNE01.JPG,AFNE01.JPG,AFNE01.JPG,,,,,,,,,,,,,,,,,,,,,2,1,21,0,,,AMSA18.jpg,AMNE18.jpg,AMNE16.jpg,AMSA06.jpg,AMNE16.jpg,MN,1,num_2,32,num_8,0.316866246751,,,2017_Oct_25_1501,59.994169542,FEMA4ImagesEEG,001,202061,
AFNE01.JPG,AFNE01.JPG,AFNE01.JPG,AFNE01.JPG,AFNE01.JPG,AFNE01.JPG,,,,,,,,,,,,,,,,,,,,,2,2,22,1,,,AMNE10.jpg,AMSA17.jpg,AMSA07.jpg,AMNE02.jpg,AMNE10.jpg,MN,1,num_8,32,num_6,0.316809796612,,,2017_Oct_25_1501,59.994169542,FEMA4ImagesEEG,001,202061,
AFNE01.JPG,AFNE01.JPG,AFNE01.JPG,AFNE01.JPG,AFNE01.JPG,AFNE01.JPG,,,,,,,,,,,,,,,,,,,,,2,3,23,3,,,AMNE06.jpg,AMSA13.jpg,AMSA04.jpg,AMNE17.jpg,AMSA13.jpg,MS,2,num_6,32,num_4,0.433487448609,,,2017_Oct_25_1501,59.994169542,FEMA4ImagesEEG,001,202061,
AFNE01.JPG,AFNE01.JPG,AFNE01.JPG,AFNE01.JPG,AFNE01.JPG,AFNE01.JPG,,,,,,,,,,,,,,,,,,,,,2,4,24,2,,,AMNE18.jpg,AMNE11.jpg,AMSA14.jpg,AMSA04.jpg,AMSA04.jpg,MS,2,num_4,32,num_8,0.850126130739,,,2017_Oct_25_1501,59.994169542,FEMA4ImagesEEG,001,202061,
AFNE01.JPG,AFNE01.JPG,AFNE01.JPG,AFNE01.JPG,AFNE01.JPG,AFNE01.JPG,,,,,,,,,,,,,,,,,,,,,2,5,25,7,,,AMSA07.jpg,AMNE09.jpg,AMSA04.jpg,AMNE12.jpg,AMSA04.jpg,MS,2,num_2,32,num_4,0.38351334841,,,2017_Oct_25_1501,59.994169542,FEMA4ImagesEEG,001,202061,
AFNE01.JPG,AFNE01.JPG,AFNE01.JPG,AFNE01.JPG,AFNE01.JPG,AFNE01.JPG,,,,,,,,,,,,,,,,,,,,,2,6,26,8,,,AMSA04.jpg,AMNE19.jpg,AMSA03.jpg,AMNE01.jpg,AMSA04.jpg,MS,2,num_8,32,num_6,0.76677010511,,,2017_Oct_25_1501,59.994169542,FEMA4ImagesEEG,001,202061,
AFNE01.JPG,AFNE01.JPG,AFNE01.JPG,AFNE01.JPG,AFNE01.JPG,AFNE01.JPG,,,,,,,,,,,,,,,,,,,,,2,7,27,5,,,AMSA07.jpg,AMNE03.jpg,AMSA06.jpg,AMNE06.jpg,AMSA06.jpg,MS,2,num_2,32,num_8,0.600218102918,,,2017_Oct_25_1501,59.994169542,FEMA4ImagesEEG,001,202061,
AFNE01.JPG,AFNE01.JPG,AFNE01.JPG,AFNE01.JPG,AFNE01.JPG,AFNE01.JPG,,,,,,,,,,,,,,,,,,,,,2,8,28,4,,,AMSA09.jpg,AMNE06.jpg,AMSA12.jpg,AMNE12.jpg,AMNE06.jpg,MN,1,num_6,32,num_4,1.03344992211,,,2017_Oct_25_1501,59.994169542,FEMA4ImagesEEG,001,202061,
AFNE01.JPG,AFNE01.JPG,AFNE01.JPG,AFNE01.JPG,AFNE01.JPG,AFNE01.JPG,,,,,,,,,,,,,,,,,,,,,2,9,29,6,,,AMNE18.jpg,AMSA19.jpg,AMSA01.jpg,AMNE01.jpg,AMSA01.jpg,MS,2,num_2,16,num_2,0.383487368585,,,2017_Oct_25_1501,59.994169542,FEMA4ImagesEEG,001,202061,
AFNE01.JPG,AFNE01.JPG,AFNE01.JPG,AFNE01.JPG,AFNE01.JPG,AFNE01.JPG,,,,,,,,,,,,,,,,,,,,,3,0,30,4,,,AMNE04.jpg,AMSA20.jpg,AMNE13.jpg,AMSA13.jpg,AMSA13.jpg,MS,2,num_4,32,num_8,0.533466119552,,,2017_Oct_25_1501,59.994169542,FEMA4ImagesEEG,001,202061,
AFNE01.JPG,AFNE01.JPG,AFNE01.JPG,AFNE01.JPG,AFNE01.JPG,AFNE01.JPG,,,,,,,,,,,,,,,,,,,,,3,1,31,2,,,AMNE02.jpg,AMNE04.jpg,AMSA03.jpg,AMSA11.jpg,AMNE02.jpg,MN,1,num_8,32,num_4,0.333497551968,,,2017_Oct_25_1501,59.994169542,FEMA4ImagesEEG,001,202061,
AFNE01.JPG,AFNE01.JPG,AFNE01.JPG,AFNE01.JPG,AFNE01.JPG,AFNE01.JPG,,,,,,,,,,,,,,,,,,,,,3,2,32,8,,,AMSA13.jpg,AMNE04.jpg,AMNE07.jpg,AMSA04.jpg,AMNE04.jpg,MN,1,num_6,32,num_2,0.816759280278,,,2017_Oct_25_1501,59.994169542,FEMA4ImagesEEG,001,202061,
AFNE01.JPG,AFNE01.JPG,AFNE01.JPG,AFNE01.JPG,AFNE01.JPG,AFNE01.JPG,,,,,,,,,,,,,,,,,,,,,3,3,33,6,,,AMSA05.jpg,AMSA07.jpg,AMNE07.jpg,AMNE13.jpg,AMSA07.jpg,MS,2,num_6,16,num_6,0.666829923168,,,2017_Oct_25_1501,59.994169542,FEMA4ImagesEEG,001,202061,
AFNE01.JPG,AFNE01.JPG,AFNE01.JPG,AFNE01.JPG,AFNE01.JPG,AFNE01.JPG,,,,,,,,,,,,,,,,,,,,,3,4,34,9,,,AMSA02.jpg,AMNE09.jpg,AMNE05.jpg,AMSA07.jpg,AMNE09.jpg,MN,1,num_6,32,num_4,0.333494344493,,,2017_Oct_25_1501,59.994169542,FEMA4ImagesEEG,001,202061,
AFNE01.JPG,AFNE01.JPG,AFNE01.JPG,AFNE01.JPG,AFNE01.JPG,AFNE01.JPG,,,,,,,,,,,,,,,,,,,,,3,5,35,5,,,AMNE13.jpg,AMNE07.jpg,AMSA11.jpg,AMSA07.jpg,AMNE07.jpg,MN,1,num_6,32,num_4,0.350177930202,,,2017_Oct_25_1501,59.994169542,FEMA4ImagesEEG,001,202061,
AFNE01.JPG,AFNE01.JPG,AFNE01.JPG,AFNE01.JPG,AFNE01.JPG,AFNE01.JPG,,,,,,,,,,,,,,,,,,,,,3,6,36,1,,,AMSA02.jpg,AMNE17.jpg,AMSA04.jpg,AMNE16.jpg,AMSA04.jpg,MS,2,num_2,16,num_2,1.46670451388,,,2017_Oct_25_1501,59.994169542,FEMA4ImagesEEG,001,202061,
AFNE01.JPG,AFNE01.JPG,AFNE01.JPG,AFNE01.JPG,AFNE01.JPG,AFNE01.JPG,,,,,,,,,,,,,,,,,,,,,3,7,37,0,,,AMNE03.jpg,AMNE04.jpg,AMSA02.jpg,AMSA19.jpg,AMNE04.jpg,MN,1,num_6,16,num_6,0.283528904314,,,2017_Oct_25_1501,59.994169542,FEMA4ImagesEEG,001,202061,
AFNE01.JPG,AFNE01.JPG,AFNE01.JPG,AFNE01.JPG,AFNE01.JPG,AFNE01.JPG,,,,,,,,,,,,,,,,,,,,,3,8,38,7,,,AMNE06.jpg,AMSA08.jpg,AMSA12.jpg,AMNE01.jpg,AMNE06.jpg,MN,1,num_8,32,num_4,1.03335177584,,,2017_Oct_25_1501,59.994169542,FEMA4ImagesEEG,001,202061,
AFNE01.JPG,AFNE01.JPG,AFNE01.JPG,AFNE01.JPG,AFNE01.JPG,AFNE01.JPG,,,,,,,,,,,,,,,,,,,,,3,9,39,3,,,AMSA20.jpg,AMNE01.jpg,AMSA12.jpg,AMNE18.jpg,AMNE18.jpg,MN,1,num_4,32,num_8,0.283492019167,,,2017_Oct_25_1501,59.994169542,FEMA4ImagesEEG,001,202061,
