IPosition2,IPosition3,IPosition1,IPosition6,IPosition4,IPosition5,TrialsM1.thisRepN,TrialsM1.thisTrialN,TrialsM1.thisN,TrialsM1.thisIndex,TrialsF1.thisRepN,TrialsF1.thisTrialN,TrialsF1.thisN,TrialsF1.thisIndex,TrialsM2.thisRepN,TrialsM2.thisTrialN,TrialsM2.thisN,TrialsM2.thisIndex,TrialsF2.thisRepN,TrialsF2.thisTrialN,TrialsF2.thisN,TrialsF2.thisIndex,TrialsM3.thisRepN,TrialsM3.thisTrialN,TrialsM3.thisN,TrialsM3.thisIndex,TrialsF3.thisRepN,TrialsF3.thisTrialN,TrialsF3.thisN,TrialsF3.thisIndex,InstrKey_resp.keys,InstrKey_resp.rt,Image0 _Position,Image1 _Position,Image2 _Position,Image3 _Position,Center_image,condition,code,correct_answer,accuracy,Key_Resp.keys,Key_Resp.rt,BreakKey_resp.keys,BreakKey_resp.rt,date,frameRate,expName,session,participant,
,,,,,,,,,,,,,,,,,,,,,,,,,,,,,,space,7.16633229563,,,,,,,,,,,,,,2017_Nov_01_1101,60.0035219192,MAFE4ImagesEEG,001,202181,
AMSA25.JPG,AMNE24.JPG,AMSA24.JPG,AMNE26.JPG,AMSA21.JPG,AMNE25.JPG,0,0,0,3,,,,,,,,,,,,,,,,,,,,,,,AMSA05.jpg,AMNE05.jpg,AMSA03.jpg,AMNE11.jpg,AMSA03.jpg,MS,2,num_2,16,num_2,2.11665744544,,,2017_Nov_01_1101,60.0035219192,MAFE4ImagesEEG,001,202181,
AFNE22.JPG,AFSA24.JPG,AFSA22.JPG,AFNE25.JPG,AFNE24.JPG,AFSA25.JPG,0,1,1,6,,,,,,,,,,,,,,,,,,,,,,,AMSA11.jpg,AMNE12.jpg,AMNE07.jpg,AMSA14.jpg,AMSA14.jpg,MS,2,num_4,32,num_8,0.750201344257,,,2017_Nov_01_1101,60.0035219192,MAFE4ImagesEEG,001,202181,
AMSA21.JPG,AMNE23.JPG,AMNE21.JPG,AMSA25.JPG,AMNE25.JPG,AMSA23.JPG,0,2,2,5,,,,,,,,,,,,,,,,,,,,,,,AMNE06.jpg,AMSA02.jpg,AMNE19.jpg,AMSA11.jpg,AMSA11.jpg,MS,2,num_4,16,num_4,0.683472133242,,,2017_Nov_01_1101,60.0035219192,MAFE4ImagesEEG,001,202181,
AFSA25.JPG,AFNE24.JPG,AFSA24.JPG,AFNE21.JPG,AFSA21.JPG,AFNE25.JPG,0,3,3,2,,,,,,,,,,,,,,,,,,,,,,,AMSA19.jpg,AMSA09.jpg,AMNE01.jpg,AMNE03.jpg,AMNE01.jpg,MN,1,num_2,32,num_4,1.05008026492,,,2017_Nov_01_1101,60.0035219192,MAFE4ImagesEEG,001,202181,
AMNE22.JPG,AMSA24.JPG,AMSA22.JPG,AMNE25.JPG,AMNE24.JPG,AMSA25.JPG,0,4,4,7,,,,,,,,,,,,,,,,,,,,,,,AMSA02.jpg,AMNE04.jpg,AMNE15.jpg,AMSA13.jpg,AMSA13.jpg,MS,2,num_4,32,num_8,1.38342001312,,,2017_Nov_01_1101,60.0035219192,MAFE4ImagesEEG,001,202181,
AFSA21.JPG,AFNE22.JPG,AFNE21.JPG,AFSA23.JPG,AFSA22.JPG,AFNE23.JPG,0,5,5,0,,,,,,,,,,,,,,,,,,,,,,,AMSA03.jpg,AMSA15.jpg,AMNE18.jpg,AMNE12.jpg,AMNE12.jpg,MN,1,num_4,32,num_2,1.98335201642,,,2017_Nov_01_1101,60.0035219192,MAFE4ImagesEEG,001,202181,
AFNE23.JPG,AFNE24.JPG,AFNE22.JPG,AFSA24.JPG,AFSA22.JPG,AFSA23.JPG,0,6,6,8,,,,,,,,,,,,,,,,,,,,,,,AMSA04.jpg,AMNE18.jpg,AMSA12.jpg,AMNE03.jpg,AMSA04.jpg,MS,2,num_8,16,num_8,0.416753506986,,,2017_Nov_01_1101,60.0035219192,MAFE4ImagesEEG,001,202181,
AMNE23.JPG,AMNE24.JPG,AMNE22.JPG,AMSA24.JPG,AMSA22.JPG,AMSA23.JPG,0,7,7,9,,,,,,,,,,,,,,,,,,,,,,,AMNE02.jpg,AMNE17.jpg,AMSA05.jpg,AMSA16.jpg,AMSA05.jpg,MS,2,num_2,32,num_4,1.1667309748,,,2017_Nov_01_1101,60.0035219192,MAFE4ImagesEEG,001,202181,
AFSA21.JPG,AFNE23.JPG,AFNE21.JPG,AFSA25.JPG,AFNE25.JPG,AFSA23.JPG,0,8,8,4,,,,,,,,,,,,,,,,,,,,,,,AMSA07.jpg,AMNE09.jpg,AMNE17.jpg,AMSA11.jpg,AMSA07.jpg,MS,2,num_8,16,num_8,1.06688925996,,,2017_Nov_01_1101,60.0035219192,MAFE4ImagesEEG,001,202181,
AMSA21.JPG,AMNE22.JPG,AMNE21.JPG,AMSA23.JPG,AMSA22.JPG,AMNE23.JPG,0,9,9,1,,,,,,,,,,,,,,,,,,,,,,,AMSA01.jpg,AMSA18.jpg,AMNE12.jpg,AMNE18.jpg,AMNE12.jpg,MN,1,num_2,16,num_2,1.53336091689,,,2017_Nov_01_1101,60.0035219192,MAFE4ImagesEEG,001,202181,
AMNE23.JPG,AMNE24.JPG,AMNE22.JPG,AMSA24.JPG,AMSA22.JPG,AMSA23.JPG,,,,,0,0,0,9,,,,,,,,,,,,,,,,,,,AFNE14.jpg,AFSA12.jpg,AFSA10.jpg,AFNE03.jpg,AFSA12.jpg,FS,4,num_6,16,num_6,0.53348792973,,,2017_Nov_01_1101,60.0035219192,MAFE4ImagesEEG,001,202181,
AMSA21.JPG,AMNE22.JPG,AMNE21.JPG,AMSA23.JPG,AMSA22.JPG,AMNE23.JPG,,,,,0,1,1,1,,,,,,,,,,,,,,,,,,,AFNE01.jpg,AFSA14.jpg,AFSA20.jpg,AFNE06.jpg,AFSA20.jpg,FS,4,num_2,32,num_4,0.933455855818,,,2017_Nov_01_1101,60.0035219192,MAFE4ImagesEEG,001,202181,
AMSA25.JPG,AMNE24.JPG,AMSA24.JPG,AMNE26.JPG,AMSA21.JPG,AMNE25.JPG,,,,,0,2,2,3,,,,,,,,,,,,,,,,,,,AFSA11.jpg,AFSA07.jpg,AFNE19.jpg,AFNE02.jpg,AFSA11.jpg,FS,4,num_8,32,num_4,1.85003407858,,,2017_Nov_01_1101,60.0035219192,MAFE4ImagesEEG,001,202181,
AFNE23.JPG,AFNE24.JPG,AFNE22.JPG,AFSA24.JPG,AFSA22.JPG,AFSA23.JPG,,,,,0,3,3,8,,,,,,,,,,,,,,,,,,,AFSA01.jpg,AFNE05.jpg,AFSA17.jpg,AFNE20.jpg,AFSA17.jpg,FS,4,num_2,32,num_6,1.01678173197,,,2017_Nov_01_1101,60.0035219192,MAFE4ImagesEEG,001,202181,
AFSA21.JPG,AFNE22.JPG,AFNE21.JPG,AFSA23.JPG,AFSA22.JPG,AFNE23.JPG,,,,,0,4,4,0,,,,,,,,,,,,,,,,,,,AFNE14.jpg,AFSA19.jpg,AFSA14.jpg,AFNE01.jpg,AFNE14.jpg,FN,3,num_8,16,num_8,2.08339675958,,,2017_Nov_01_1101,60.0035219192,MAFE4ImagesEEG,001,202181,
AMSA21.JPG,AMNE23.JPG,AMNE21.JPG,AMSA25.JPG,AMNE25.JPG,AMSA23.JPG,,,,,0,5,5,5,,,,,,,,,,,,,,,,,,,AFNE08.jpg,AFSA18.jpg,AFNE15.jpg,AFSA15.jpg,AFSA18.jpg,FS,4,num_6,16,num_6,0.366765614832,,,2017_Nov_01_1101,60.0035219192,MAFE4ImagesEEG,001,202181,
AFSA21.JPG,AFNE23.JPG,AFNE21.JPG,AFSA25.JPG,AFNE25.JPG,AFSA23.JPG,,,,,0,6,6,4,,,,,,,,,,,,,,,,,,,AFNE10.jpg,AFSA19.jpg,AFSA14.jpg,AFNE19.jpg,AFNE19.jpg,FN,3,num_4,32,num_6,1.00009942916,,,2017_Nov_01_1101,60.0035219192,MAFE4ImagesEEG,001,202181,
AFSA25.JPG,AFNE24.JPG,AFSA24.JPG,AFNE21.JPG,AFSA21.JPG,AFNE25.JPG,,,,,0,7,7,2,,,,,,,,,,,,,,,,,,,AFSA08.jpg,AFNE07.jpg,AFNE03.jpg,AFSA18.jpg,AFNE03.jpg,FN,3,num_2,32,num_8,1.68335891236,,,2017_Nov_01_1101,60.0035219192,MAFE4ImagesEEG,001,202181,
AFNE22.JPG,AFSA24.JPG,AFSA22.JPG,AFNE25.JPG,AFNE24.JPG,AFSA25.JPG,,,,,0,8,8,6,,,,,,,,,,,,,,,,,,,AFNE17.jpg,AFSA12.jpg,AFNE06.jpg,AFSA09.jpg,AFSA09.jpg,FS,4,num_4,32,num_2,1.46641873498,,,2017_Nov_01_1101,60.0035219192,MAFE4ImagesEEG,001,202181,
AMNE22.JPG,AMSA24.JPG,AMSA22.JPG,AMNE25.JPG,AMNE24.JPG,AMSA25.JPG,,,,,0,9,9,7,,,,,,,,,,,,,,,,,,,AFNE14.jpg,AFSA09.jpg,AFNE07.jpg,AFSA19.jpg,AFNE14.jpg,FN,3,num_8,32,num_6,1.28341279668,,,2017_Nov_01_1101,60.0035219192,MAFE4ImagesEEG,001,202181,
AFSA21.JPG,AFNE23.JPG,AFNE21.JPG,AFSA25.JPG,AFNE25.JPG,AFSA23.JPG,,,,,,,,,0,0,0,4,,,,,,,,,,,,,,,AMNE03.jpg,AMSA03.jpg,AMNE04.jpg,AMSA05.jpg,AMNE03.jpg,MN,1,num_8,16,num_8,0.800127654104,,,2017_Nov_01_1101,60.0035219192,MAFE4ImagesEEG,001,202181,
AFSA21.JPG,AFNE22.JPG,AFNE21.JPG,AFSA23.JPG,AFSA22.JPG,AFNE23.JPG,,,,,,,,,0,1,1,0,,,,,,,,,,,,,,,AMNE11.jpg,AMSA12.jpg,AMNE03.jpg,AMSA19.jpg,AMSA19.jpg,MS,2,num_4,16,num_4,0.61669417005,,,2017_Nov_01_1101,60.0035219192,MAFE4ImagesEEG,001,202181,
AMSA21.JPG,AMNE22.JPG,AMNE21.JPG,AMSA23.JPG,AMSA22.JPG,AMNE23.JPG,,,,,,,,,0,2,2,1,,,,,,,,,,,,,,,AMNE06.jpg,AMSA16.jpg,AMSA05.jpg,AMNE07.jpg,AMNE07.jpg,MN,1,num_4,32,num_8,0.816765053431,,,2017_Nov_01_1101,60.0035219192,MAFE4ImagesEEG,001,202181,
AFNE22.JPG,AFSA24.JPG,AFSA22.JPG,AFNE25.JPG,AFNE24.JPG,AFSA25.JPG,,,,,,,,,0,3,3,6,,,,,,,,,,,,,,,AMSA20.jpg,AMSA06.jpg,AMNE19.jpg,AMNE07.jpg,AMSA06.jpg,MS,2,num_6,16,num_6,0.68346283189,,,2017_Nov_01_1101,60.0035219192,MAFE4ImagesEEG,001,202181,
AFSA25.JPG,AFNE24.JPG,AFSA24.JPG,AFNE21.JPG,AFSA21.JPG,AFNE25.JPG,,,,,,,,,0,4,4,2,,,,,,,,,,,,,,,AMSA17.jpg,AMSA14.jpg,AMNE02.jpg,AMNE14.jpg,AMNE02.jpg,MN,1,num_2,16,num_2,1.61667813314,,,2017_Nov_01_1101,60.0035219192,MAFE4ImagesEEG,001,202181,
AMNE23.JPG,AMNE24.JPG,AMNE22.JPG,AMSA24.JPG,AMSA22.JPG,AMSA23.JPG,,,,,,,,,0,5,5,9,,,,,,,,,,,,,,,AMSA09.jpg,AMSA12.jpg,AMNE09.jpg,AMNE18.jpg,AMNE09.jpg,MN,1,num_2,16,num_2,1.60005837469,,,2017_Nov_01_1101,60.0035219192,MAFE4ImagesEEG,001,202181,
AMNE22.JPG,AMSA24.JPG,AMSA22.JPG,AMNE25.JPG,AMNE24.JPG,AMSA25.JPG,,,,,,,,,0,6,6,7,,,,,,,,,,,,,,,AMNE19.jpg,AMSA15.jpg,AMNE20.jpg,AMSA09.jpg,AMNE19.jpg,MN,1,num_8,16,num_8,1.33339299075,,,2017_Nov_01_1101,60.0035219192,MAFE4ImagesEEG,001,202181,
AFNE23.JPG,AFNE24.JPG,AFNE22.JPG,AFSA24.JPG,AFSA22.JPG,AFSA23.JPG,,,,,,,,,0,7,7,8,,,,,,,,,,,,,,,AMNE07.jpg,AMSA01.jpg,AMNE10.jpg,AMSA11.jpg,AMNE10.jpg,MN,1,num_2,32,num_8,1.1667367483,,,2017_Nov_01_1101,60.0035219192,MAFE4ImagesEEG,001,202181,
AMSA21.JPG,AMNE23.JPG,AMNE21.JPG,AMSA25.JPG,AMNE25.JPG,AMSA23.JPG,,,,,,,,,0,8,8,5,,,,,,,,,,,,,,,AMSA20.jpg,AMSA09.jpg,AMNE17.jpg,AMNE10.jpg,AMSA09.jpg,MS,2,num_6,16,num_6,0.433477505809,,,2017_Nov_01_1101,60.0035219192,MAFE4ImagesEEG,001,202181,
AMSA25.JPG,AMNE24.JPG,AMSA24.JPG,AMNE26.JPG,AMSA21.JPG,AMNE25.JPG,,,,,,,,,0,9,9,3,,,,,,,,,,,,,,,AMNE01.jpg,AMNE10.jpg,AMSA05.jpg,AMSA12.jpg,AMSA12.jpg,MS,2,num_4,32,num_6,0.649819503771,,,2017_Nov_01_1101,60.0035219192,MAFE4ImagesEEG,001,202181,
AMSA21.JPG,AMNE22.JPG,AMNE21.JPG,AMSA23.JPG,AMSA22.JPG,AMNE23.JPG,,,,,,,,,,,,,0,0,0,1,,,,,,,,,,,AFNE02.jpg,AFSA17.jpg,AFNE07.jpg,AFSA02.jpg,AFSA17.jpg,FS,4,num_6,16,num_6,1.26679752837,,,2017_Nov_01_1101,60.0035219192,MAFE4ImagesEEG,001,202181,
AFSA21.JPG,AFNE23.JPG,AFNE21.JPG,AFSA25.JPG,AFNE25.JPG,AFSA23.JPG,,,,,,,,,,,,,0,1,1,4,,,,,,,,,,,AFNE08.jpg,AFSA15.jpg,AFSA09.jpg,AFNE12.jpg,AFNE08.jpg,FN,3,num_8,16,num_8,1.1167825337,,,2017_Nov_01_1101,60.0035219192,MAFE4ImagesEEG,001,202181,
AFNE23.JPG,AFNE24.JPG,AFNE22.JPG,AFSA24.JPG,AFSA22.JPG,AFSA23.JPG,,,,,,,,,,,,,0,2,2,8,,,,,,,,,,,AFSA17.jpg,AFSA04.jpg,AFNE04.jpg,AFNE12.jpg,AFNE04.jpg,FN,3,num_2,32,num_6,0.600123164011,,,2017_Nov_01_1101,60.0035219192,MAFE4ImagesEEG,001,202181,
AMNE22.JPG,AMSA24.JPG,AMSA22.JPG,AMNE25.JPG,AMNE24.JPG,AMSA25.JPG,,,,,,,,,,,,,0,3,3,7,,,,,,,,,,,AFSA16.jpg,AFNE01.jpg,AFSA05.jpg,AFNE13.jpg,AFSA05.jpg,FS,4,num_2,32,num_8,0.71682807873,,,2017_Nov_01_1101,60.0035219192,MAFE4ImagesEEG,001,202181,
AMSA25.JPG,AMNE24.JPG,AMSA24.JPG,AMNE26.JPG,AMSA21.JPG,AMNE25.JPG,,,,,,,,,,,,,0,4,4,3,,,,,,,,,,,AFNE06.jpg,AFSA07.jpg,AFSA04.jpg,AFNE19.jpg,AFNE19.jpg,FN,3,num_4,16,num_4,1.21669930196,,,2017_Nov_01_1101,60.0035219192,MAFE4ImagesEEG,001,202181,
AFSA25.JPG,AFNE24.JPG,AFSA24.JPG,AFNE21.JPG,AFSA21.JPG,AFNE25.JPG,,,,,,,,,,,,,0,5,5,2,,,,,,,,,,,AFNE04.jpg,AFSA20.jpg,AFSA18.jpg,AFNE18.jpg,AFNE04.jpg,FN,3,num_8,16,num_8,0.916759761283,,,2017_Nov_01_1101,60.0035219192,MAFE4ImagesEEG,001,202181,
AMNE23.JPG,AMNE24.JPG,AMNE22.JPG,AMSA24.JPG,AMSA22.JPG,AMSA23.JPG,,,,,,,,,,,,,0,6,6,9,,,,,,,,,,,AFSA16.jpg,AFNE03.jpg,AFNE08.jpg,AFSA15.jpg,AFSA15.jpg,FS,4,num_4,16,num_4,0.550127253169,,,2017_Nov_01_1101,60.0035219192,MAFE4ImagesEEG,001,202181,
AFNE22.JPG,AFSA24.JPG,AFSA22.JPG,AFNE25.JPG,AFNE24.JPG,AFSA25.JPG,,,,,,,,,,,,,0,7,7,6,,,,,,,,,,,AFSA06.jpg,AFNE11.jpg,AFSA20.jpg,AFNE13.jpg,AFSA06.jpg,FS,4,num_8,16,num_8,1.55005861516,,,2017_Nov_01_1101,60.0035219192,MAFE4ImagesEEG,001,202181,
AMSA21.JPG,AMNE23.JPG,AMNE21.JPG,AMSA25.JPG,AMNE25.JPG,AMSA23.JPG,,,,,,,,,,,,,0,8,8,5,,,,,,,,,,,AFNE17.jpg,AFNE15.jpg,AFSA02.jpg,AFSA04.jpg,AFSA02.jpg,FS,4,num_2,32,num_4,0.883549110964,,,2017_Nov_01_1101,60.0035219192,MAFE4ImagesEEG,001,202181,
AFSA21.JPG,AFNE22.JPG,AFNE21.JPG,AFSA23.JPG,AFSA22.JPG,AFNE23.JPG,,,,,,,,,,,,,0,9,9,0,,,,,,,,,,,AFSA19.jpg,AFNE05.jpg,AFSA07.jpg,AFNE15.jpg,AFNE05.jpg,FN,3,num_6,16,num_6,0.783491538139,,,2017_Nov_01_1101,60.0035219192,MAFE4ImagesEEG,001,202181,
AFNE22.JPG,AFSA24.JPG,AFSA22.JPG,AFNE25.JPG,AFNE24.JPG,AFSA25.JPG,,,,,,,,,,,,,,,,,0,0,0,6,,,,,,,AMNE15.jpg,AMSA16.jpg,AMNE12.jpg,AMSA19.jpg,AMNE15.jpg,MN,1,num_8,16,num_8,1.13309694827,,,2017_Nov_01_1101,60.0035219192,MAFE4ImagesEEG,001,202181,
AMNE22.JPG,AMSA24.JPG,AMSA22.JPG,AMNE25.JPG,AMNE24.JPG,AMSA25.JPG,,,,,,,,,,,,,,,,,0,1,1,7,,,,,,,AMSA12.jpg,AMSA06.jpg,AMNE12.jpg,AMNE09.jpg,AMNE09.jpg,MN,1,num_4,16,num_4,1.25007834076,,,2017_Nov_01_1101,60.0035219192,MAFE4ImagesEEG,001,202181,
AFSA25.JPG,AFNE24.JPG,AFSA24.JPG,AFNE21.JPG,AFSA21.JPG,AFNE25.JPG,,,,,,,,,,,,,,,,,0,2,2,2,,,,,,,AMNE03.jpg,AMNE18.jpg,AMSA18.jpg,AMSA03.jpg,AMSA18.jpg,MS,2,num_2,16,num_2,1.48343909718,,,2017_Nov_01_1101,60.0035219192,MAFE4ImagesEEG,001,202181,
AMSA25.JPG,AMNE24.JPG,AMSA24.JPG,AMNE26.JPG,AMSA21.JPG,AMNE25.JPG,,,,,,,,,,,,,,,,,0,3,3,3,,,,,,,AMSA09.jpg,AMNE18.jpg,AMSA02.jpg,AMNE13.jpg,AMNE18.jpg,MN,1,num_6,16,num_6,0.116677331273,,,2017_Nov_01_1101,60.0035219192,MAFE4ImagesEEG,001,202181,
AMSA21.JPG,AMNE23.JPG,AMNE21.JPG,AMSA25.JPG,AMNE25.JPG,AMSA23.JPG,,,,,,,,,,,,,,,,,0,4,4,5,,,,,,,AMSA12.jpg,AMNE01.jpg,AMSA16.jpg,AMNE18.jpg,AMNE18.jpg,MN,1,num_4,16,num_4,0.533459383994,,,2017_Nov_01_1101,60.0035219192,MAFE4ImagesEEG,001,202181,
AFNE23.JPG,AFNE24.JPG,AFNE22.JPG,AFSA24.JPG,AFSA22.JPG,AFSA23.JPG,,,,,,,,,,,,,,,,,0,5,5,8,,,,,,,AMSA03.jpg,AMNE10.jpg,AMNE09.jpg,AMSA04.jpg,AMNE09.jpg,MN,1,num_2,32,num_6,1.71668919874,,,2017_Nov_01_1101,60.0035219192,MAFE4ImagesEEG,001,202181,
AFSA21.JPG,AFNE22.JPG,AFNE21.JPG,AFSA23.JPG,AFSA22.JPG,AFNE23.JPG,,,,,,,,,,,,,,,,,0,6,6,0,,,,,,,AMNE08.jpg,AMSA05.jpg,AMSA20.jpg,AMNE07.jpg,AMSA20.jpg,MS,2,num_2,16,num_2,1.10015988862,,,2017_Nov_01_1101,60.0035219192,MAFE4ImagesEEG,001,202181,
AFSA21.JPG,AFNE23.JPG,AFNE21.JPG,AFSA25.JPG,AFNE25.JPG,AFSA23.JPG,,,,,,,,,,,,,,,,,0,7,7,4,,,,,,,AMNE09.jpg,AMSA07.jpg,AMNE05.jpg,AMSA08.jpg,AMSA07.jpg,MS,2,num_6,16,num_6,0.583529385272,,,2017_Nov_01_1101,60.0035219192,MAFE4ImagesEEG,001,202181,
AMSA21.JPG,AMNE22.JPG,AMNE21.JPG,AMSA23.JPG,AMSA22.JPG,AMNE23.JPG,,,,,,,,,,,,,,,,,0,8,8,1,,,,,,,AMNE18.jpg,AMSA01.jpg,AMNE13.jpg,AMSA04.jpg,AMSA01.jpg,MS,2,num_6,16,num_6,0.633336059749,,,2017_Nov_01_1101,60.0035219192,MAFE4ImagesEEG,001,202181,
AMNE23.JPG,AMNE24.JPG,AMNE22.JPG,AMSA24.JPG,AMSA22.JPG,AMSA23.JPG,,,,,,,,,,,,,,,,,0,9,9,9,,,,,,,AMNE14.jpg,AMSA11.jpg,AMSA20.jpg,AMNE11.jpg,AMSA20.jpg,MS,2,num_2,16,num_2,0.933471892728,,,2017_Nov_01_1101,60.0035219192,MAFE4ImagesEEG,001,202181,
AFSA21.JPG,AFNE22.JPG,AFNE21.JPG,AFSA23.JPG,AFSA22.JPG,AFNE23.JPG,,,,,,,,,,,,,,,,,,,,,0,0,0,0,,,AFNE06.jpg,AFSA10.jpg,AFSA04.jpg,AFNE18.jpg,AFNE18.jpg,FN,3,num_4,32,num_8,0.633438375546,,,2017_Nov_01_1101,60.0035219192,MAFE4ImagesEEG,001,202181,
AMSA25.JPG,AMNE24.JPG,AMSA24.JPG,AMNE26.JPG,AMSA21.JPG,AMNE25.JPG,,,,,,,,,,,,,,,,,,,,,0,1,1,3,,,AFNE03.jpg,AFSA03.jpg,AFSA11.jpg,AFNE19.jpg,AFSA03.jpg,FS,4,num_6,16,num_6,0.633410471259,,,2017_Nov_01_1101,60.0035219192,MAFE4ImagesEEG,001,202181,
AFSA21.JPG,AFNE23.JPG,AFNE21.JPG,AFSA25.JPG,AFNE25.JPG,AFSA23.JPG,,,,,,,,,,,,,,,,,,,,,0,2,2,4,,,AFSA04.jpg,AFNE10.jpg,AFNE12.jpg,AFSA09.jpg,AFSA09.jpg,FS,4,num_4,32,num_8,0.700240394101,,,2017_Nov_01_1101,60.0035219192,MAFE4ImagesEEG,001,202181,
AMNE22.JPG,AMSA24.JPG,AMSA22.JPG,AMNE25.JPG,AMNE24.JPG,AMSA25.JPG,,,,,,,,,,,,,,,,,,,,,0,3,3,7,,,AFNE20.jpg,AFNE18.jpg,AFSA01.jpg,AFSA20.jpg,AFSA01.jpg,FS,4,num_2,32,num_4,0.766822706442,,,2017_Nov_01_1101,60.0035219192,MAFE4ImagesEEG,001,202181,
AFSA25.JPG,AFNE24.JPG,AFSA24.JPG,AFNE21.JPG,AFSA21.JPG,AFNE25.JPG,,,,,,,,,,,,,,,,,,,,,0,4,4,2,,,AFNE10.jpg,AFSA19.jpg,AFSA06.jpg,AFNE12.jpg,AFNE10.jpg,FN,3,num_8,32,num_4,1.40000609402,,,2017_Nov_01_1101,60.0035219192,MAFE4ImagesEEG,001,202181,
AMSA21.JPG,AMNE23.JPG,AMNE21.JPG,AMSA25.JPG,AMNE25.JPG,AMSA23.JPG,,,,,,,,,,,,,,,,,,,,,0,5,5,5,,,AFNE17.jpg,AFSA20.jpg,AFNE10.jpg,AFSA09.jpg,AFNE10.jpg,FN,3,num_2,16,num_2,1.33340966934,,,2017_Nov_01_1101,60.0035219192,MAFE4ImagesEEG,001,202181,
AFNE22.JPG,AFSA24.JPG,AFSA22.JPG,AFNE25.JPG,AFNE24.JPG,AFSA25.JPG,,,,,,,,,,,,,,,,,,,,,0,6,6,6,,,AFSA09.jpg,AFNE06.jpg,AFSA16.jpg,AFNE10.jpg,AFSA16.jpg,FS,4,num_2,32,num_6,1.90004281863,,,2017_Nov_01_1101,60.0035219192,MAFE4ImagesEEG,001,202181,
AMSA21.JPG,AMNE22.JPG,AMNE21.JPG,AMSA23.JPG,AMSA22.JPG,AMNE23.JPG,,,,,,,,,,,,,,,,,,,,,0,7,7,1,,,AFSA15.jpg,AFSA14.jpg,AFNE06.jpg,AFNE04.jpg,AFSA14.jpg,FS,4,num_6,32,num_4,3.34999735374,,,2017_Nov_01_1101,60.0035219192,MAFE4ImagesEEG,001,202181,
AMNE23.JPG,AMNE24.JPG,AMNE22.JPG,AMSA24.JPG,AMSA22.JPG,AMSA23.JPG,,,,,,,,,,,,,,,,,,,,,0,8,8,9,,,AFSA10.jpg,AFNE01.jpg,AFSA05.jpg,AFNE17.jpg,AFNE17.jpg,FN,3,num_4,32,num_8,1.73340453743,,,2017_Nov_01_1101,60.0035219192,MAFE4ImagesEEG,001,202181,
AFNE23.JPG,AFNE24.JPG,AFNE22.JPG,AFSA24.JPG,AFSA22.JPG,AFSA23.JPG,,,,,,,,,,,,,,,,,,,,,0,9,9,8,,,AFSA11.jpg,AFSA17.jpg,AFNE05.jpg,AFNE12.jpg,AFSA17.jpg,FS,4,num_6,16,num_6,1.03344350751,,,2017_Nov_01_1101,60.0035219192,MAFE4ImagesEEG,001,202181,
,,,,,,,,,,,,,,,,,,,,,,,,,,,,,,,,,,,,,,,,,,,space,8.06618619896,2017_Nov_01_1101,60.0035219192,MAFE4ImagesEEG,001,202181,
AFNE01.JPG,AFNE01.JPG,AFNE01.JPG,AFNE01.JPG,AFNE01.JPG,AFNE01.JPG,0,0,0,8,,,,,,,,,,,,,,,,,,,,,,,AMSA02.jpg,AMSA13.jpg,AMNE12.jpg,AMNE15.jpg,AMNE12.jpg,MN,1,num_2,48,None,,,,2017_Nov_01_1101,60.0035219192,MAFE4ImagesEEG,001,202181,
AFNE01.JPG,AFNE01.JPG,AFNE01.JPG,AFNE01.JPG,AFNE01.JPG,AFNE01.JPG,0,1,1,9,,,,,,,,,,,,,,,,,,,,,,,AMSA19.jpg,AMNE19.jpg,AMSA10.jpg,AMNE03.jpg,AMNE03.jpg,MN,1,num_4,16,num_4,1.25008700066,,,2017_Nov_01_1101,60.0035219192,MAFE4ImagesEEG,001,202181,
AFNE01.JPG,AFNE01.JPG,AFNE01.JPG,AFNE01.JPG,AFNE01.JPG,AFNE01.JPG,0,2,2,0,,,,,,,,,,,,,,,,,,,,,,,AMSA14.jpg,AMNE03.jpg,AMNE16.jpg,AMSA02.jpg,AMNE16.jpg,MN,1,num_2,16,num_2,1.93340999028,,,2017_Nov_01_1101,60.0035219192,MAFE4ImagesEEG,001,202181,
AFNE01.JPG,AFNE01.JPG,AFNE01.JPG,AFNE01.JPG,AFNE01.JPG,AFNE01.JPG,0,3,3,7,,,,,,,,,,,,,,,,,,,,,,,AMSA06.jpg,AMNE17.jpg,AMNE16.jpg,AMSA14.jpg,AMSA06.jpg,MS,2,num_8,16,num_8,1.05012260261,,,2017_Nov_01_1101,60.0035219192,MAFE4ImagesEEG,001,202181,
AFNE01.JPG,AFNE01.JPG,AFNE01.JPG,AFNE01.JPG,AFNE01.JPG,AFNE01.JPG,0,4,4,6,,,,,,,,,,,,,,,,,,,,,,,AMNE10.jpg,AMSA02.jpg,AMNE03.jpg,AMSA19.jpg,AMNE03.jpg,MN,1,num_2,16,num_2,1.25011586724,,,2017_Nov_01_1101,60.0035219192,MAFE4ImagesEEG,001,202181,
AFNE01.JPG,AFNE01.JPG,AFNE01.JPG,AFNE01.JPG,AFNE01.JPG,AFNE01.JPG,0,5,5,1,,,,,,,,,,,,,,,,,,,,,,,AMSA13.jpg,AMNE16.jpg,AMSA18.jpg,AMNE05.jpg,AMSA13.jpg,MS,2,num_8,16,num_8,0.800142087508,,,2017_Nov_01_1101,60.0035219192,MAFE4ImagesEEG,001,202181,
AFNE01.JPG,AFNE01.JPG,AFNE01.JPG,AFNE01.JPG,AFNE01.JPG,AFNE01.JPG,0,6,6,3,,,,,,,,,,,,,,,,,,,,,,,AMSA04.jpg,AMNE01.jpg,AMSA18.jpg,AMNE07.jpg,AMNE07.jpg,MN,1,num_4,16,num_4,0.966752785025,,,2017_Nov_01_1101,60.0035219192,MAFE4ImagesEEG,001,202181,
AFNE01.JPG,AFNE01.JPG,AFNE01.JPG,AFNE01.JPG,AFNE01.JPG,AFNE01.JPG,0,7,7,2,,,,,,,,,,,,,,,,,,,,,,,AMSA15.jpg,AMNE05.jpg,AMNE03.jpg,AMSA18.jpg,AMSA18.jpg,MS,2,num_4,16,num_4,0.750131102279,,,2017_Nov_01_1101,60.0035219192,MAFE4ImagesEEG,001,202181,
AFNE01.JPG,AFNE01.JPG,AFNE01.JPG,AFNE01.JPG,AFNE01.JPG,AFNE01.JPG,0,8,8,4,,,,,,,,,,,,,,,,,,,,,,,AMSA09.jpg,AMNE12.jpg,AMSA10.jpg,AMNE04.jpg,AMSA09.jpg,MS,2,num_8,16,num_8,0.766743163113,,,2017_Nov_01_1101,60.0035219192,MAFE4ImagesEEG,001,202181,
AFNE01.JPG,AFNE01.JPG,AFNE01.JPG,AFNE01.JPG,AFNE01.JPG,AFNE01.JPG,0,9,9,5,,,,,,,,,,,,,,,,,,,,,,,AMNE19.jpg,AMSA15.jpg,AMNE04.jpg,AMSA08.jpg,AMSA15.jpg,MS,2,num_6,16,num_6,1.93335225689,,,2017_Nov_01_1101,60.0035219192,MAFE4ImagesEEG,001,202181,
AFNE01.JPG,AFNE01.JPG,AFNE01.JPG,AFNE01.JPG,AFNE01.JPG,AFNE01.JPG,1,0,10,1,,,,,,,,,,,,,,,,,,,,,,,AMSA16.jpg,AMNE03.jpg,AMNE16.jpg,AMSA04.jpg,AMNE16.jpg,MN,1,num_2,16,num_2,1.13343244186,,,2017_Nov_01_1101,60.0035219192,MAFE4ImagesEEG,001,202181,
AFNE01.JPG,AFNE01.JPG,AFNE01.JPG,AFNE01.JPG,AFNE01.JPG,AFNE01.JPG,1,1,11,8,,,,,,,,,,,,,,,,,,,,,,,AMSA17.jpg,AMNE11.jpg,AMSA08.jpg,AMNE01.jpg,AMSA08.jpg,MS,2,num_2,16,num_2,2.08335634647,,,2017_Nov_01_1101,60.0035219192,MAFE4ImagesEEG,001,202181,
AFNE01.JPG,AFNE01.JPG,AFNE01.JPG,AFNE01.JPG,AFNE01.JPG,AFNE01.JPG,1,2,12,2,,,,,,,,,,,,,,,,,,,,,,,AMNE07.jpg,AMSA09.jpg,AMSA12.jpg,AMNE06.jpg,AMSA12.jpg,MS,2,num_2,16,num_2,1.00019019842,,,2017_Nov_01_1101,60.0035219192,MAFE4ImagesEEG,001,202181,
AFNE01.JPG,AFNE01.JPG,AFNE01.JPG,AFNE01.JPG,AFNE01.JPG,AFNE01.JPG,1,3,13,5,,,,,,,,,,,,,,,,,,,,,,,AMSA14.jpg,AMNE11.jpg,AMSA11.jpg,AMNE01.jpg,AMSA11.jpg,MS,2,num_2,16,num_2,1.40007729828,,,2017_Nov_01_1101,60.0035219192,MAFE4ImagesEEG,001,202181,
AFNE01.JPG,AFNE01.JPG,AFNE01.JPG,AFNE01.JPG,AFNE01.JPG,AFNE01.JPG,1,4,14,3,,,,,,,,,,,,,,,,,,,,,,,AMNE01.jpg,AMNE10.jpg,AMSA01.jpg,AMSA20.jpg,AMSA01.jpg,MS,2,num_2,16,num_2,0.666830564616,,,2017_Nov_01_1101,60.0035219192,MAFE4ImagesEEG,001,202181,
AFNE01.JPG,AFNE01.JPG,AFNE01.JPG,AFNE01.JPG,AFNE01.JPG,AFNE01.JPG,1,5,15,0,,,,,,,,,,,,,,,,,,,,,,,AMSA06.jpg,AMSA03.jpg,AMNE15.jpg,AMNE03.jpg,AMSA03.jpg,MS,2,num_6,16,num_6,0.533459704835,,,2017_Nov_01_1101,60.0035219192,MAFE4ImagesEEG,001,202181,
AFNE01.JPG,AFNE01.JPG,AFNE01.JPG,AFNE01.JPG,AFNE01.JPG,AFNE01.JPG,1,6,16,7,,,,,,,,,,,,,,,,,,,,,,,AMNE07.jpg,AMSA18.jpg,AMNE13.jpg,AMSA09.jpg,AMSA18.jpg,MS,2,num_6,32,num_8,1.94998997683,,,2017_Nov_01_1101,60.0035219192,MAFE4ImagesEEG,001,202181,
AFNE01.JPG,AFNE01.JPG,AFNE01.JPG,AFNE01.JPG,AFNE01.JPG,AFNE01.JPG,1,7,17,4,,,,,,,,,,,,,,,,,,,,,,,AMSA05.jpg,AMSA02.jpg,AMNE17.jpg,AMNE10.jpg,AMSA05.jpg,MS,2,num_8,16,num_8,0.866815489717,,,2017_Nov_01_1101,60.0035219192,MAFE4ImagesEEG,001,202181,
AFNE01.JPG,AFNE01.JPG,AFNE01.JPG,AFNE01.JPG,AFNE01.JPG,AFNE01.JPG,1,8,18,6,,,,,,,,,,,,,,,,,,,,,,,AMNE12.jpg,AMSA18.jpg,AMNE20.jpg,AMSA12.jpg,AMSA12.jpg,MS,2,num_4,16,num_4,0.966748615494,,,2017_Nov_01_1101,60.0035219192,MAFE4ImagesEEG,001,202181,
AFNE01.JPG,AFNE01.JPG,AFNE01.JPG,AFNE01.JPG,AFNE01.JPG,AFNE01.JPG,1,9,19,9,,,,,,,,,,,,,,,,,,,,,,,AMNE01.jpg,AMSA07.jpg,AMNE15.jpg,AMSA03.jpg,AMNE15.jpg,MN,1,num_2,32,num_6,0.0501761662308,,,2017_Nov_01_1101,60.0035219192,MAFE4ImagesEEG,001,202181,
AFNE01.JPG,AFNE01.JPG,AFNE01.JPG,AFNE01.JPG,AFNE01.JPG,AFNE01.JPG,2,0,20,1,,,,,,,,,,,,,,,,,,,,,,,AMSA07.jpg,AMNE13.jpg,AMNE03.jpg,AMSA08.jpg,AMNE13.jpg,MN,1,num_6,48,None,,,,2017_Nov_01_1101,60.0035219192,MAFE4ImagesEEG,001,202181,
AFNE01.JPG,AFNE01.JPG,AFNE01.JPG,AFNE01.JPG,AFNE01.JPG,AFNE01.JPG,2,1,21,6,,,,,,,,,,,,,,,,,,,,,,,AMSA10.jpg,AMNE05.jpg,AMNE16.jpg,AMSA15.jpg,AMSA15.jpg,MS,2,num_4,16,num_4,1.31680626841,,,2017_Nov_01_1101,60.0035219192,MAFE4ImagesEEG,001,202181,
AFNE01.JPG,AFNE01.JPG,AFNE01.JPG,AFNE01.JPG,AFNE01.JPG,AFNE01.JPG,2,2,22,2,,,,,,,,,,,,,,,,,,,,,,,AMNE10.jpg,AMSA12.jpg,AMNE19.jpg,AMSA02.jpg,AMSA12.jpg,MS,2,num_6,16,num_6,0.566738031339,,,2017_Nov_01_1101,60.0035219192,MAFE4ImagesEEG,001,202181,
AFNE01.JPG,AFNE01.JPG,AFNE01.JPG,AFNE01.JPG,AFNE01.JPG,AFNE01.JPG,2,3,23,9,,,,,,,,,,,,,,,,,,,,,,,AMSA17.jpg,AMNE15.jpg,AMSA19.jpg,AMNE05.jpg,AMNE15.jpg,MN,1,num_6,16,num_6,0.933471892728,,,2017_Nov_01_1101,60.0035219192,MAFE4ImagesEEG,001,202181,
AFNE01.JPG,AFNE01.JPG,AFNE01.JPG,AFNE01.JPG,AFNE01.JPG,AFNE01.JPG,2,4,24,3,,,,,,,,,,,,,,,,,,,,,,,AMNE17.jpg,AMNE02.jpg,AMSA04.jpg,AMSA07.jpg,AMSA04.jpg,MS,2,num_2,32,num_6,1.40006254404,,,2017_Nov_01_1101,60.0035219192,MAFE4ImagesEEG,001,202181,
AFNE01.JPG,AFNE01.JPG,AFNE01.JPG,AFNE01.JPG,AFNE01.JPG,AFNE01.JPG,2,5,25,5,,,,,,,,,,,,,,,,,,,,,,,AMNE03.jpg,AMSA01.jpg,AMNE18.jpg,AMSA17.jpg,AMNE03.jpg,MN,1,num_8,32,num_2,1.60005260119,,,2017_Nov_01_1101,60.0035219192,MAFE4ImagesEEG,001,202181,
AFNE01.JPG,AFNE01.JPG,AFNE01.JPG,AFNE01.JPG,AFNE01.JPG,AFNE01.JPG,2,6,26,7,,,,,,,,,,,,,,,,,,,,,,,AMNE08.jpg,AMSA11.jpg,AMNE04.jpg,AMSA03.jpg,AMNE08.jpg,MN,1,num_8,16,num_8,1.33343147975,,,2017_Nov_01_1101,60.0035219192,MAFE4ImagesEEG,001,202181,
AFNE01.JPG,AFNE01.JPG,AFNE01.JPG,AFNE01.JPG,AFNE01.JPG,AFNE01.JPG,2,7,27,0,,,,,,,,,,,,,,,,,,,,,,,AMNE12.jpg,AMSA13.jpg,AMSA01.jpg,AMNE11.jpg,AMNE11.jpg,MN,1,num_4,32,num_8,1.30008996744,,,2017_Nov_01_1101,60.0035219192,MAFE4ImagesEEG,001,202181,
AFNE01.JPG,AFNE01.JPG,AFNE01.JPG,AFNE01.JPG,AFNE01.JPG,AFNE01.JPG,2,8,28,8,,,,,,,,,,,,,,,,,,,,,,,AMNE06.jpg,AMSA20.jpg,AMNE14.jpg,AMSA07.jpg,AMNE06.jpg,MN,1,num_8,16,num_8,1.20009846706,,,2017_Nov_01_1101,60.0035219192,MAFE4ImagesEEG,001,202181,
AFNE01.JPG,AFNE01.JPG,AFNE01.JPG,AFNE01.JPG,AFNE01.JPG,AFNE01.JPG,2,9,29,4,,,,,,,,,,,,,,,,,,,,,,,AMNE02.jpg,AMSA10.jpg,AMNE05.jpg,AMSA02.jpg,AMNE05.jpg,MN,1,num_2,16,num_2,2.38336997782,,,2017_Nov_01_1101,60.0035219192,MAFE4ImagesEEG,001,202181,
AFNE01.JPG,AFNE01.JPG,AFNE01.JPG,AFNE01.JPG,AFNE01.JPG,AFNE01.JPG,3,0,30,4,,,,,,,,,,,,,,,,,,,,,,,AMSA03.jpg,AMSA12.jpg,AMNE03.jpg,AMNE10.jpg,AMSA12.jpg,MS,2,num_6,16,num_6,1.43342394219,,,2017_Nov_01_1101,60.0035219192,MAFE4ImagesEEG,001,202181,
AFNE01.JPG,AFNE01.JPG,AFNE01.JPG,AFNE01.JPG,AFNE01.JPG,AFNE01.JPG,3,1,31,3,,,,,,,,,,,,,,,,,,,,,,,AMSA07.jpg,AMNE13.jpg,AMSA13.jpg,AMNE10.jpg,AMNE10.jpg,MN,1,num_4,32,num_6,2.78329941514,,,2017_Nov_01_1101,60.0035219192,MAFE4ImagesEEG,001,202181,
AFNE01.JPG,AFNE01.JPG,AFNE01.JPG,AFNE01.JPG,AFNE01.JPG,AFNE01.JPG,3,2,32,1,,,,,,,,,,,,,,,,,,,,,,,AMSA11.jpg,AMNE10.jpg,AMNE02.jpg,AMSA17.jpg,AMSA11.jpg,MS,2,num_8,32,num_4,2.5669468327,,,2017_Nov_01_1101,60.0035219192,MAFE4ImagesEEG,001,202181,
AFNE01.JPG,AFNE01.JPG,AFNE01.JPG,AFNE01.JPG,AFNE01.JPG,AFNE01.JPG,3,3,33,0,,,,,,,,,,,,,,,,,,,,,,,AMSA07.jpg,AMSA14.jpg,AMNE09.jpg,AMNE11.jpg,AMSA14.jpg,MS,2,num_6,16,num_6,0.466788547579,,,2017_Nov_01_1101,60.0035219192,MAFE4ImagesEEG,001,202181,
AFNE01.JPG,AFNE01.JPG,AFNE01.JPG,AFNE01.JPG,AFNE01.JPG,AFNE01.JPG,3,4,34,2,,,,,,,,,,,,,,,,,,,,,,,AMSA18.jpg,AMSA15.jpg,AMNE05.jpg,AMNE16.jpg,AMNE16.jpg,MN,1,num_4,16,num_4,0.916810758878,,,2017_Nov_01_1101,60.0035219192,MAFE4ImagesEEG,001,202181,
AFNE01.JPG,AFNE01.JPG,AFNE01.JPG,AFNE01.JPG,AFNE01.JPG,AFNE01.JPG,3,5,35,9,,,,,,,,,,,,,,,,,,,,,,,AMSA09.jpg,AMSA02.jpg,AMNE08.jpg,AMNE19.jpg,AMSA02.jpg,MS,2,num_6,32,num_4,1.45009245328,,,2017_Nov_01_1101,60.0035219192,MAFE4ImagesEEG,001,202181,
AFNE01.JPG,AFNE01.JPG,AFNE01.JPG,AFNE01.JPG,AFNE01.JPG,AFNE01.JPG,3,6,36,7,,,,,,,,,,,,,,,,,,,,,,,AMNE11.jpg,AMNE16.jpg,AMSA08.jpg,AMSA06.jpg,AMNE16.jpg,MN,1,num_6,32,num_8,1.6166993021,,,2017_Nov_01_1101,60.0035219192,MAFE4ImagesEEG,001,202181,
AFNE01.JPG,AFNE01.JPG,AFNE01.JPG,AFNE01.JPG,AFNE01.JPG,AFNE01.JPG,3,7,37,8,,,,,,,,,,,,,,,,,,,,,,,AMSA19.jpg,AMSA18.jpg,AMNE07.jpg,AMNE03.jpg,AMSA18.jpg,MS,2,num_6,16,num_6,0.650135111529,,,2017_Nov_01_1101,60.0035219192,MAFE4ImagesEEG,001,202181,
AFNE01.JPG,AFNE01.JPG,AFNE01.JPG,AFNE01.JPG,AFNE01.JPG,AFNE01.JPG,3,8,38,6,,,,,,,,,,,,,,,,,,,,,,,AMNE09.jpg,AMNE19.jpg,AMSA18.jpg,AMSA13.jpg,AMSA18.jpg,MS,2,num_2,16,num_2,1.30003832839,,,2017_Nov_01_1101,60.0035219192,MAFE4ImagesEEG,001,202181,
AFNE01.JPG,AFNE01.JPG,AFNE01.JPG,AFNE01.JPG,AFNE01.JPG,AFNE01.JPG,3,9,39,5,,,,,,,,,,,,,,,,,,,,,,,AMNE05.jpg,AMSA01.jpg,AMNE10.jpg,AMSA10.jpg,AMNE10.jpg,MN,1,num_2,32,num_8,1.13360596192,,,2017_Nov_01_1101,60.0035219192,MAFE4ImagesEEG,001,202181,
AFNE01.JPG,AFNE01.JPG,AFNE01.JPG,AFNE01.JPG,AFNE01.JPG,AFNE01.JPG,4,0,40,7,,,,,,,,,,,,,,,,,,,,,,,AMSA19.jpg,AMNE01.jpg,AMSA16.jpg,AMNE03.jpg,AMSA16.jpg,MS,2,num_2,16,num_2,1.19961607479,,,2017_Nov_01_1101,60.0035219192,MAFE4ImagesEEG,001,202181,
AFNE01.JPG,AFNE01.JPG,AFNE01.JPG,AFNE01.JPG,AFNE01.JPG,AFNE01.JPG,4,1,41,6,,,,,,,,,,,,,,,,,,,,,,,AMNE08.jpg,AMSA04.jpg,AMNE15.jpg,AMSA20.jpg,AMNE15.jpg,MN,1,num_2,48,None,,,,2017_Nov_01_1101,60.0035219192,MAFE4ImagesEEG,001,202181,
AFNE01.JPG,AFNE01.JPG,AFNE01.JPG,AFNE01.JPG,AFNE01.JPG,AFNE01.JPG,4,2,42,4,,,,,,,,,,,,,,,,,,,,,,,AMNE16.jpg,AMSA18.jpg,AMNE07.jpg,AMSA10.jpg,AMSA10.jpg,MS,2,num_4,32,num_6,1.20007761894,,,2017_Nov_01_1101,60.0035219192,MAFE4ImagesEEG,001,202181,
AFNE01.JPG,AFNE01.JPG,AFNE01.JPG,AFNE01.JPG,AFNE01.JPG,AFNE01.JPG,4,3,43,0,,,,,,,,,,,,,,,,,,,,,,,AMSA10.jpg,AMSA19.jpg,AMNE18.jpg,AMNE15.jpg,AMSA10.jpg,MS,2,num_8,16,num_8,1.08343236172,,,2017_Nov_01_1101,60.0035219192,MAFE4ImagesEEG,001,202181,
AFNE01.JPG,AFNE01.JPG,AFNE01.JPG,AFNE01.JPG,AFNE01.JPG,AFNE01.JPG,4,4,44,8,,,,,,,,,,,,,,,,,,,,,,,AMSA18.jpg,AMNE20.jpg,AMSA17.jpg,AMNE10.jpg,AMSA17.jpg,MS,2,num_2,32,num_4,1.13342891377,,,2017_Nov_01_1101,60.0035219192,MAFE4ImagesEEG,001,202181,
AFNE01.JPG,AFNE01.JPG,AFNE01.JPG,AFNE01.JPG,AFNE01.JPG,AFNE01.JPG,4,5,45,3,,,,,,,,,,,,,,,,,,,,,,,AMNE05.jpg,AMNE03.jpg,AMSA17.jpg,AMSA19.jpg,AMNE05.jpg,MN,1,num_8,16,num_8,1.73340999009,,,2017_Nov_01_1101,60.0035219192,MAFE4ImagesEEG,001,202181,
AFNE01.JPG,AFNE01.JPG,AFNE01.JPG,AFNE01.JPG,AFNE01.JPG,AFNE01.JPG,4,6,46,9,,,,,,,,,,,,,,,,,,,,,,,AMNE12.jpg,AMNE17.jpg,AMSA06.jpg,AMSA12.jpg,AMNE12.jpg,MN,1,num_8,16,num_8,1.70007232693,,,2017_Nov_01_1101,60.0035219192,MAFE4ImagesEEG,001,202181,
AFNE01.JPG,AFNE01.JPG,AFNE01.JPG,AFNE01.JPG,AFNE01.JPG,AFNE01.JPG,4,7,47,2,,,,,,,,,,,,,,,,,,,,,,,AMSA01.jpg,AMSA06.jpg,AMNE08.jpg,AMNE10.jpg,AMSA01.jpg,MS,2,num_8,32,num_4,2.03334664414,,,2017_Nov_01_1101,60.0035219192,MAFE4ImagesEEG,001,202181,
AFNE01.JPG,AFNE01.JPG,AFNE01.JPG,AFNE01.JPG,AFNE01.JPG,AFNE01.JPG,4,8,48,5,,,,,,,,,,,,,,,,,,,,,,,AMNE17.jpg,AMSA05.jpg,AMSA08.jpg,AMNE16.jpg,AMSA05.jpg,MS,2,num_6,16,num_6,0.666805867571,,,2017_Nov_01_1101,60.0035219192,MAFE4ImagesEEG,001,202181,
AFNE01.JPG,AFNE01.JPG,AFNE01.JPG,AFNE01.JPG,AFNE01.JPG,AFNE01.JPG,4,9,49,1,,,,,,,,,,,,,,,,,,,,,,,AMNE03.jpg,AMNE13.jpg,AMSA06.jpg,AMSA02.jpg,AMSA06.jpg,MS,2,num_2,16,num_2,0.950122121722,,,2017_Nov_01_1101,60.0035219192,MAFE4ImagesEEG,001,202181,
AFNE01.JPG,AFNE01.JPG,AFNE01.JPG,AFNE01.JPG,AFNE01.JPG,AFNE01.JPG,5,0,50,1,,,,,,,,,,,,,,,,,,,,,,,AMNE09.jpg,AMNE13.jpg,AMSA12.jpg,AMSA09.jpg,AMNE13.jpg,MN,1,num_6,32,num_8,1.06675807736,,,2017_Nov_01_1101,60.0035219192,MAFE4ImagesEEG,001,202181,
AFNE01.JPG,AFNE01.JPG,AFNE01.JPG,AFNE01.JPG,AFNE01.JPG,AFNE01.JPG,5,1,51,9,,,,,,,,,,,,,,,,,,,,,,,AMNE16.jpg,AMNE18.jpg,AMSA12.jpg,AMSA13.jpg,AMNE16.jpg,MN,1,num_8,16,num_8,1.00007441151,,,2017_Nov_01_1101,60.0035219192,MAFE4ImagesEEG,001,202181,
AFNE01.JPG,AFNE01.JPG,AFNE01.JPG,AFNE01.JPG,AFNE01.JPG,AFNE01.JPG,5,2,52,5,,,,,,,,,,,,,,,,,,,,,,,AMNE11.jpg,AMSA08.jpg,AMSA17.jpg,AMNE20.jpg,AMSA08.jpg,MS,2,num_6,16,num_6,0.93345040339,,,2017_Nov_01_1101,60.0035219192,MAFE4ImagesEEG,001,202181,
AFNE01.JPG,AFNE01.JPG,AFNE01.JPG,AFNE01.JPG,AFNE01.JPG,AFNE01.JPG,5,3,53,3,,,,,,,,,,,,,,,,,,,,,,,AMSA16.jpg,AMNE06.jpg,AMSA09.jpg,AMNE12.jpg,AMSA16.jpg,MS,2,num_8,32,num_6,1.38339788211,,,2017_Nov_01_1101,60.0035219192,MAFE4ImagesEEG,001,202181,
AFNE01.JPG,AFNE01.JPG,AFNE01.JPG,AFNE01.JPG,AFNE01.JPG,AFNE01.JPG,5,4,54,2,,,,,,,,,,,,,,,,,,,,,,,AMNE08.jpg,AMNE09.jpg,AMSA09.jpg,AMSA13.jpg,AMSA13.jpg,MS,2,num_4,16,num_4,1.06676320918,,,2017_Nov_01_1101,60.0035219192,MAFE4ImagesEEG,001,202181,
AFNE01.JPG,AFNE01.JPG,AFNE01.JPG,AFNE01.JPG,AFNE01.JPG,AFNE01.JPG,5,5,55,4,,,,,,,,,,,,,,,,,,,,,,,AMNE17.jpg,AMSA07.jpg,AMNE12.jpg,AMSA05.jpg,AMSA07.jpg,MS,2,num_6,16,num_6,0.450246728724,,,2017_Nov_01_1101,60.0035219192,MAFE4ImagesEEG,001,202181,
AFNE01.JPG,AFNE01.JPG,AFNE01.JPG,AFNE01.JPG,AFNE01.JPG,AFNE01.JPG,5,6,56,0,,,,,,,,,,,,,,,,,,,,,,,AMSA14.jpg,AMNE09.jpg,AMSA04.jpg,AMNE12.jpg,AMNE12.jpg,MN,1,num_4,16,num_4,1.76674444601,,,2017_Nov_01_1101,60.0035219192,MAFE4ImagesEEG,001,202181,
AFNE01.JPG,AFNE01.JPG,AFNE01.JPG,AFNE01.JPG,AFNE01.JPG,AFNE01.JPG,5,7,57,8,,,,,,,,,,,,,,,,,,,,,,,AMNE03.jpg,AMSA06.jpg,AMNE05.jpg,AMSA05.jpg,AMNE03.jpg,MN,1,num_8,32,num_4,1.33327175118,,,2017_Nov_01_1101,60.0035219192,MAFE4ImagesEEG,001,202181,
AFNE01.JPG,AFNE01.JPG,AFNE01.JPG,AFNE01.JPG,AFNE01.JPG,AFNE01.JPG,5,8,58,6,,,,,,,,,,,,,,,,,,,,,,,AMNE01.jpg,AMSA11.jpg,AMSA09.jpg,AMNE02.jpg,AMSA09.jpg,MS,2,num_2,32,num_6,0.600123164011,,,2017_Nov_01_1101,60.0035219192,MAFE4ImagesEEG,001,202181,
AFNE01.JPG,AFNE01.JPG,AFNE01.JPG,AFNE01.JPG,AFNE01.JPG,AFNE01.JPG,5,9,59,7,,,,,,,,,,,,,,,,,,,,,,,AMSA05.jpg,AMNE10.jpg,AMSA04.jpg,AMNE08.jpg,AMNE10.jpg,MN,1,num_6,16,num_6,1.01671694266,,,2017_Nov_01_1101,60.0035219192,MAFE4ImagesEEG,001,202181,
,,,,,,,,,,,,,,,,,,,,,,,,,,,,,,,,,,,,,,,,,,,space,2.15007785964,2017_Nov_01_1101,60.0035219192,MAFE4ImagesEEG,001,202181,
AFNE01.JPG,AFNE01.JPG,AFNE01.JPG,AFNE01.JPG,AFNE01.JPG,AFNE01.JPG,,,,,0,0,0,9,,,,,,,,,,,,,,,,,,,AFSA04.jpg,AFSA09.jpg,AFNE06.jpg,AFNE14.jpg,AFNE06.jpg,FN,3,num_2,16,num_2,1.54975166731,,,2017_Nov_01_1101,60.0035219192,MAFE4ImagesEEG,001,202181,
AFNE01.JPG,AFNE01.JPG,AFNE01.JPG,AFNE01.JPG,AFNE01.JPG,AFNE01.JPG,,,,,0,1,1,7,,,,,,,,,,,,,,,,,,,AFSA01.jpg,AFNE08.jpg,AFNE06.jpg,AFSA04.jpg,AFSA04.jpg,FS,4,num_4,16,num_4,0.800096542574,,,2017_Nov_01_1101,60.0035219192,MAFE4ImagesEEG,001,202181,
AFNE01.JPG,AFNE01.JPG,AFNE01.JPG,AFNE01.JPG,AFNE01.JPG,AFNE01.JPG,,,,,0,2,2,0,,,,,,,,,,,,,,,,,,,AFSA06.jpg,AFNE05.jpg,AFNE15.jpg,AFSA04.jpg,AFSA06.jpg,FS,4,num_8,16,num_8,1.10007649637,,,2017_Nov_01_1101,60.0035219192,MAFE4ImagesEEG,001,202181,
AFNE01.JPG,AFNE01.JPG,AFNE01.JPG,AFNE01.JPG,AFNE01.JPG,AFNE01.JPG,,,,,0,3,3,5,,,,,,,,,,,,,,,,,,,AFSA08.jpg,AFNE13.jpg,AFSA02.jpg,AFNE15.jpg,AFSA08.jpg,FS,4,num_8,16,num_8,0.716825192096,,,2017_Nov_01_1101,60.0035219192,MAFE4ImagesEEG,001,202181,
AFNE01.JPG,AFNE01.JPG,AFNE01.JPG,AFNE01.JPG,AFNE01.JPG,AFNE01.JPG,,,,,0,4,4,2,,,,,,,,,,,,,,,,,,,AFNE10.jpg,AFSA18.jpg,AFSA08.jpg,AFNE07.jpg,AFSA08.jpg,FS,4,num_2,16,num_2,1.10006494983,,,2017_Nov_01_1101,60.0035219192,MAFE4ImagesEEG,001,202181,
AFNE01.JPG,AFNE01.JPG,AFNE01.JPG,AFNE01.JPG,AFNE01.JPG,AFNE01.JPG,,,,,0,5,5,8,,,,,,,,,,,,,,,,,,,AFNE08.jpg,AFNE20.jpg,AFSA06.jpg,AFSA12.jpg,AFNE20.jpg,FN,3,num_6,32,num_8,1.21668679314,,,2017_Nov_01_1101,60.0035219192,MAFE4ImagesEEG,001,202181,
AFNE01.JPG,AFNE01.JPG,AFNE01.JPG,AFNE01.JPG,AFNE01.JPG,AFNE01.JPG,,,,,0,6,6,4,,,,,,,,,,,,,,,,,,,AFNE15.jpg,AFSA09.jpg,AFSA08.jpg,AFNE03.jpg,AFSA09.jpg,FS,4,num_6,16,num_6,0.750105763786,,,2017_Nov_01_1101,60.0035219192,MAFE4ImagesEEG,001,202181,
AFNE01.JPG,AFNE01.JPG,AFNE01.JPG,AFNE01.JPG,AFNE01.JPG,AFNE01.JPG,,,,,0,7,7,1,,,,,,,,,,,,,,,,,,,AFSA03.jpg,AFSA07.jpg,AFNE18.jpg,AFNE12.jpg,AFNE18.jpg,FN,3,num_2,32,num_6,1.15009678295,,,2017_Nov_01_1101,60.0035219192,MAFE4ImagesEEG,001,202181,
AFNE01.JPG,AFNE01.JPG,AFNE01.JPG,AFNE01.JPG,AFNE01.JPG,AFNE01.JPG,,,,,0,8,8,6,,,,,,,,,,,,,,,,,,,AFNE16.jpg,AFNE09.jpg,AFSA12.jpg,AFSA20.jpg,AFSA20.jpg,FS,4,num_4,16,num_4,0.783454973949,,,2017_Nov_01_1101,60.0035219192,MAFE4ImagesEEG,001,202181,
AFNE01.JPG,AFNE01.JPG,AFNE01.JPG,AFNE01.JPG,AFNE01.JPG,AFNE01.JPG,,,,,0,9,9,3,,,,,,,,,,,,,,,,,,,AFNE15.jpg,AFNE05.jpg,AFSA15.jpg,AFSA16.jpg,AFSA16.jpg,FS,4,num_4,16,num_4,1.16674540821,,,2017_Nov_01_1101,60.0035219192,MAFE4ImagesEEG,001,202181,
AFNE01.JPG,AFNE01.JPG,AFNE01.JPG,AFNE01.JPG,AFNE01.JPG,AFNE01.JPG,,,,,1,0,10,0,,,,,,,,,,,,,,,,,,,AFSA12.jpg,AFNE02.jpg,AFNE03.jpg,AFSA17.jpg,AFSA17.jpg,FS,4,num_4,16,num_4,0.850091811735,,,2017_Nov_01_1101,60.0035219192,MAFE4ImagesEEG,001,202181,
AFNE01.JPG,AFNE01.JPG,AFNE01.JPG,AFNE01.JPG,AFNE01.JPG,AFNE01.JPG,,,,,1,1,11,5,,,,,,,,,,,,,,,,,,,AFNE04.jpg,AFNE02.jpg,AFSA09.jpg,AFSA12.jpg,AFSA09.jpg,FS,4,num_2,16,num_2,1.18317496823,,,2017_Nov_01_1101,60.0035219192,MAFE4ImagesEEG,001,202181,
AFNE01.JPG,AFNE01.JPG,AFNE01.JPG,AFNE01.JPG,AFNE01.JPG,AFNE01.JPG,,,,,1,2,12,2,,,,,,,,,,,,,,,,,,,AFNE14.jpg,AFSA18.jpg,AFNE08.jpg,AFSA04.jpg,AFSA04.jpg,FS,4,num_4,16,num_4,0.700140965171,,,2017_Nov_01_1101,60.0035219192,MAFE4ImagesEEG,001,202181,
AFNE01.JPG,AFNE01.JPG,AFNE01.JPG,AFNE01.JPG,AFNE01.JPG,AFNE01.JPG,,,,,1,3,13,1,,,,,,,,,,,,,,,,,,,AFSA07.jpg,AFNE10.jpg,AFNE06.jpg,AFSA05.jpg,AFSA07.jpg,FS,4,num_8,16,num_8,0.800099749817,,,2017_Nov_01_1101,60.0035219192,MAFE4ImagesEEG,001,202181,
AFNE01.JPG,AFNE01.JPG,AFNE01.JPG,AFNE01.JPG,AFNE01.JPG,AFNE01.JPG,,,,,1,4,14,7,,,,,,,,,,,,,,,,,,,AFNE17.jpg,AFSA14.jpg,AFSA10.jpg,AFNE06.jpg,AFNE06.jpg,FN,3,num_4,16,num_4,1.75031905575,,,2017_Nov_01_1101,60.0035219192,MAFE4ImagesEEG,001,202181,
AFNE01.JPG,AFNE01.JPG,AFNE01.JPG,AFNE01.JPG,AFNE01.JPG,AFNE01.JPG,,,,,1,5,15,8,,,,,,,,,,,,,,,,,,,AFSA07.jpg,AFSA06.jpg,AFNE10.jpg,AFNE01.jpg,AFSA06.jpg,FS,4,num_6,16,num_6,0.683443587506,,,2017_Nov_01_1101,60.0035219192,MAFE4ImagesEEG,001,202181,
AFNE01.JPG,AFNE01.JPG,AFNE01.JPG,AFNE01.JPG,AFNE01.JPG,AFNE01.JPG,,,,,1,6,16,6,,,,,,,,,,,,,,,,,,,AFNE14.jpg,AFNE12.jpg,AFSA09.jpg,AFSA04.jpg,AFSA04.jpg,FS,4,num_4,16,num_4,0.633457299089,,,2017_Nov_01_1101,60.0035219192,MAFE4ImagesEEG,001,202181,
AFNE01.JPG,AFNE01.JPG,AFNE01.JPG,AFNE01.JPG,AFNE01.JPG,AFNE01.JPG,,,,,1,7,17,4,,,,,,,,,,,,,,,,,,,AFNE08.jpg,AFSA08.jpg,AFSA18.jpg,AFNE14.jpg,AFNE14.jpg,FN,3,num_4,32,num_6,1.48338553379,,,2017_Nov_01_1101,60.0035219192,MAFE4ImagesEEG,001,202181,
AFNE01.JPG,AFNE01.JPG,AFNE01.JPG,AFNE01.JPG,AFNE01.JPG,AFNE01.JPG,,,,,1,8,18,3,,,,,,,,,,,,,,,,,,,AFNE14.jpg,AFNE05.jpg,AFSA13.jpg,AFSA09.jpg,AFNE14.jpg,FN,3,num_8,32,num_6,2.76662930055,,,2017_Nov_01_1101,60.0035219192,MAFE4ImagesEEG,001,202181,
AFNE01.JPG,AFNE01.JPG,AFNE01.JPG,AFNE01.JPG,AFNE01.JPG,AFNE01.JPG,,,,,1,9,19,9,,,,,,,,,,,,,,,,,,,AFSA10.jpg,AFNE05.jpg,AFNE17.jpg,AFSA06.jpg,AFSA06.jpg,FS,4,num_4,16,num_4,1.55006278493,,,2017_Nov_01_1101,60.0035219192,MAFE4ImagesEEG,001,202181,
AFNE01.JPG,AFNE01.JPG,AFNE01.JPG,AFNE01.JPG,AFNE01.JPG,AFNE01.JPG,,,,,2,0,20,3,,,,,,,,,,,,,,,,,,,AFSA11.jpg,AFSA10.jpg,AFNE14.jpg,AFNE05.jpg,AFNE05.jpg,FN,3,num_4,32,num_6,0.866779246368,,,2017_Nov_01_1101,60.0035219192,MAFE4ImagesEEG,001,202181,
AFNE01.JPG,AFNE01.JPG,AFNE01.JPG,AFNE01.JPG,AFNE01.JPG,AFNE01.JPG,,,,,2,1,21,5,,,,,,,,,,,,,,,,,,,AFNE17.jpg,AFSA01.jpg,AFNE19.jpg,AFSA13.jpg,AFSA13.jpg,FS,4,num_4,32,num_6,0.583443747833,,,2017_Nov_01_1101,60.0035219192,MAFE4ImagesEEG,001,202181,
AFNE01.JPG,AFNE01.JPG,AFNE01.JPG,AFNE01.JPG,AFNE01.JPG,AFNE01.JPG,,,,,2,2,22,2,,,,,,,,,,,,,,,,,,,AFNE07.jpg,AFSA05.jpg,AFSA03.jpg,AFNE02.jpg,AFNE07.jpg,FN,3,num_8,16,num_8,0.966756954789,,,2017_Nov_01_1101,60.0035219192,MAFE4ImagesEEG,001,202181,
AFNE01.JPG,AFNE01.JPG,AFNE01.JPG,AFNE01.JPG,AFNE01.JPG,AFNE01.JPG,,,,,2,3,23,0,,,,,,,,,,,,,,,,,,,AFSA08.jpg,AFNE15.jpg,AFSA14.jpg,AFNE08.jpg,AFSA08.jpg,FS,4,num_8,16,num_8,1.13340806565,,,2017_Nov_01_1101,60.0035219192,MAFE4ImagesEEG,001,202181,
AFNE01.JPG,AFNE01.JPG,AFNE01.JPG,AFNE01.JPG,AFNE01.JPG,AFNE01.JPG,,,,,2,4,24,1,,,,,,,,,,,,,,,,,,,AFSA08.jpg,AFNE10.jpg,AFSA10.jpg,AFNE17.jpg,AFSA10.jpg,FS,4,num_2,32,num_6,0.683480472537,,,2017_Nov_01_1101,60.0035219192,MAFE4ImagesEEG,001,202181,
AFNE01.JPG,AFNE01.JPG,AFNE01.JPG,AFNE01.JPG,AFNE01.JPG,AFNE01.JPG,,,,,2,5,25,9,,,,,,,,,,,,,,,,,,,AFNE10.jpg,AFNE19.jpg,AFSA16.jpg,AFSA13.jpg,AFSA16.jpg,FS,4,num_2,16,num_2,1.05036604404,,,2017_Nov_01_1101,60.0035219192,MAFE4ImagesEEG,001,202181,
AFNE01.JPG,AFNE01.JPG,AFNE01.JPG,AFNE01.JPG,AFNE01.JPG,AFNE01.JPG,,,,,2,6,26,8,,,,,,,,,,,,,,,,,,,AFSA03.jpg,AFNE18.jpg,AFNE14.jpg,AFSA02.jpg,AFSA03.jpg,FS,4,num_8,32,num_4,1.95003520115,,,2017_Nov_01_1101,60.0035219192,MAFE4ImagesEEG,001,202181,
AFNE01.JPG,AFNE01.JPG,AFNE01.JPG,AFNE01.JPG,AFNE01.JPG,AFNE01.JPG,,,,,2,7,27,7,,,,,,,,,,,,,,,,,,,AFSA17.jpg,AFSA05.jpg,AFNE15.jpg,AFNE11.jpg,AFSA05.jpg,FS,4,num_6,16,num_6,0.55012789485,,,2017_Nov_01_1101,60.0035219192,MAFE4ImagesEEG,001,202181,
AFNE01.JPG,AFNE01.JPG,AFNE01.JPG,AFNE01.JPG,AFNE01.JPG,AFNE01.JPG,,,,,2,8,28,6,,,,,,,,,,,,,,,,,,,AFNE01.jpg,AFNE06.jpg,AFSA03.jpg,AFSA07.jpg,AFSA07.jpg,FS,4,num_4,16,num_4,1.38337318529,,,2017_Nov_01_1101,60.0035219192,MAFE4ImagesEEG,001,202181,
AFNE01.JPG,AFNE01.JPG,AFNE01.JPG,AFNE01.JPG,AFNE01.JPG,AFNE01.JPG,,,,,2,9,29,4,,,,,,,,,,,,,,,,,,,AFSA09.jpg,AFNE11.jpg,AFNE18.jpg,AFSA19.jpg,AFSA09.jpg,FS,4,num_8,32,num_6,1.6000901279,,,2017_Nov_01_1101,60.0035219192,MAFE4ImagesEEG,001,202181,
AFNE01.JPG,AFNE01.JPG,AFNE01.JPG,AFNE01.JPG,AFNE01.JPG,AFNE01.JPG,,,,,3,0,30,1,,,,,,,,,,,,,,,,,,,AFSA04.jpg,AFNE15.jpg,AFSA17.jpg,AFNE03.jpg,AFNE15.jpg,FN,3,num_6,32,num_8,2.19999935851,,,2017_Nov_01_1101,60.0035219192,MAFE4ImagesEEG,001,202181,
AFNE01.JPG,AFNE01.JPG,AFNE01.JPG,AFNE01.JPG,AFNE01.JPG,AFNE01.JPG,,,,,3,1,31,8,,,,,,,,,,,,,,,,,,,AFSA05.jpg,AFSA19.jpg,AFNE15.jpg,AFNE09.jpg,AFSA05.jpg,FS,4,num_8,16,num_8,2.20002533845,,,2017_Nov_01_1101,60.0035219192,MAFE4ImagesEEG,001,202181,
AFNE01.JPG,AFNE01.JPG,AFNE01.JPG,AFNE01.JPG,AFNE01.JPG,AFNE01.JPG,,,,,3,2,32,3,,,,,,,,,,,,,,,,,,,AFNE17.jpg,AFSA14.jpg,AFNE01.jpg,AFSA09.jpg,AFSA09.jpg,FS,4,num_4,48,None,,,,2017_Nov_01_1101,60.0035219192,MAFE4ImagesEEG,001,202181,
AFNE01.JPG,AFNE01.JPG,AFNE01.JPG,AFNE01.JPG,AFNE01.JPG,AFNE01.JPG,,,,,3,3,33,6,,,,,,,,,,,,,,,,,,,AFSA12.jpg,AFSA16.jpg,AFNE08.jpg,AFNE07.jpg,AFSA16.jpg,FS,4,num_6,32,num_8,1.26658904762,,,2017_Nov_01_1101,60.0035219192,MAFE4ImagesEEG,001,202181,
AFNE01.JPG,AFNE01.JPG,AFNE01.JPG,AFNE01.JPG,AFNE01.JPG,AFNE01.JPG,,,,,3,4,34,7,,,,,,,,,,,,,,,,,,,AFNE19.jpg,AFNE10.jpg,AFSA20.jpg,AFSA09.jpg,AFNE19.jpg,FN,3,num_8,32,num_4,0.316776119173,,,2017_Nov_01_1101,60.0035219192,MAFE4ImagesEEG,001,202181,
AFNE01.JPG,AFNE01.JPG,AFNE01.JPG,AFNE01.JPG,AFNE01.JPG,AFNE01.JPG,,,,,3,5,35,5,,,,,,,,,,,,,,,,,,,AFNE17.jpg,AFNE04.jpg,AFSA17.jpg,AFSA03.jpg,AFSA03.jpg,FS,4,num_4,32,num_6,0.266799452947,,,2017_Nov_01_1101,60.0035219192,MAFE4ImagesEEG,001,202181,
AFNE01.JPG,AFNE01.JPG,AFNE01.JPG,AFNE01.JPG,AFNE01.JPG,AFNE01.JPG,,,,,3,6,36,0,,,,,,,,,,,,,,,,,,,AFSA11.jpg,AFNE09.jpg,AFNE06.jpg,AFSA01.jpg,AFSA11.jpg,FS,4,num_8,16,num_8,0.616727847606,,,2017_Nov_01_1101,60.0035219192,MAFE4ImagesEEG,001,202181,
AFNE01.JPG,AFNE01.JPG,AFNE01.JPG,AFNE01.JPG,AFNE01.JPG,AFNE01.JPG,,,,,3,7,37,4,,,,,,,,,,,,,,,,,,,AFNE20.jpg,AFNE03.jpg,AFSA09.jpg,AFSA15.jpg,AFNE03.jpg,FN,3,num_6,16,num_6,0.700118192472,,,2017_Nov_01_1101,60.0035219192,MAFE4ImagesEEG,001,202181,
AFNE01.JPG,AFNE01.JPG,AFNE01.JPG,AFNE01.JPG,AFNE01.JPG,AFNE01.JPG,,,,,3,8,38,2,,,,,,,,,,,,,,,,,,,AFNE08.jpg,AFNE07.jpg,AFSA09.jpg,AFSA12.jpg,AFSA09.jpg,FS,4,num_2,16,num_2,0.816755110631,,,2017_Nov_01_1101,60.0035219192,MAFE4ImagesEEG,001,202181,
AFNE01.JPG,AFNE01.JPG,AFNE01.JPG,AFNE01.JPG,AFNE01.JPG,AFNE01.JPG,,,,,3,9,39,9,,,,,,,,,,,,,,,,,,,AFNE10.jpg,AFNE03.jpg,AFSA15.jpg,AFSA07.jpg,AFSA07.jpg,FS,4,num_4,16,num_4,0.716787024168,,,2017_Nov_01_1101,60.0035219192,MAFE4ImagesEEG,001,202181,
AFNE01.JPG,AFNE01.JPG,AFNE01.JPG,AFNE01.JPG,AFNE01.JPG,AFNE01.JPG,,,,,4,0,40,7,,,,,,,,,,,,,,,,,,,AFNE11.jpg,AFSA15.jpg,AFSA12.jpg,AFNE16.jpg,AFSA12.jpg,FS,4,num_2,16,num_2,0.933484401787,,,2017_Nov_01_1101,60.0035219192,MAFE4ImagesEEG,001,202181,
AFNE01.JPG,AFNE01.JPG,AFNE01.JPG,AFNE01.JPG,AFNE01.JPG,AFNE01.JPG,,,,,4,1,41,4,,,,,,,,,,,,,,,,,,,AFNE18.jpg,AFNE02.jpg,AFSA18.jpg,AFSA14.jpg,AFNE18.jpg,FN,3,num_8,32,num_6,0.716814607615,,,2017_Nov_01_1101,60.0035219192,MAFE4ImagesEEG,001,202181,
AFNE01.JPG,AFNE01.JPG,AFNE01.JPG,AFNE01.JPG,AFNE01.JPG,AFNE01.JPG,,,,,4,2,42,5,,,,,,,,,,,,,,,,,,,AFSA03.jpg,AFSA15.jpg,AFNE20.jpg,AFNE18.jpg,AFNE20.jpg,FN,3,num_2,32,num_8,0.266802339349,,,2017_Nov_01_1101,60.0035219192,MAFE4ImagesEEG,001,202181,
AFNE01.JPG,AFNE01.JPG,AFNE01.JPG,AFNE01.JPG,AFNE01.JPG,AFNE01.JPG,,,,,4,3,43,6,,,,,,,,,,,,,,,,,,,AFSA07.jpg,AFNE01.jpg,AFSA11.jpg,AFNE04.jpg,AFNE01.jpg,FN,3,num_6,32,num_2,0.800001924392,,,2017_Nov_01_1101,60.0035219192,MAFE4ImagesEEG,001,202181,
AFNE01.JPG,AFNE01.JPG,AFNE01.JPG,AFNE01.JPG,AFNE01.JPG,AFNE01.JPG,,,,,4,4,44,0,,,,,,,,,,,,,,,,,,,AFSA04.jpg,AFNE07.jpg,AFNE14.jpg,AFSA03.jpg,AFSA04.jpg,FS,4,num_8,16,num_8,0.683328442043,,,2017_Nov_01_1101,60.0035219192,MAFE4ImagesEEG,001,202181,
AFNE01.JPG,AFNE01.JPG,AFNE01.JPG,AFNE01.JPG,AFNE01.JPG,AFNE01.JPG,,,,,4,5,45,8,,,,,,,,,,,,,,,,,,,AFSA07.jpg,AFSA17.jpg,AFNE04.jpg,AFNE17.jpg,AFNE17.jpg,FN,3,num_4,32,num_2,2.01666979399,,,2017_Nov_01_1101,60.0035219192,MAFE4ImagesEEG,001,202181,
AFNE01.JPG,AFNE01.JPG,AFNE01.JPG,AFNE01.JPG,AFNE01.JPG,AFNE01.JPG,,,,,4,6,46,2,,,,,,,,,,,,,,,,,,,AFSA03.jpg,AFSA11.jpg,AFNE10.jpg,AFNE01.jpg,AFSA11.jpg,FS,4,num_6,16,num_6,0.56683200784,,,2017_Nov_01_1101,60.0035219192,MAFE4ImagesEEG,001,202181,
AFNE01.JPG,AFNE01.JPG,AFNE01.JPG,AFNE01.JPG,AFNE01.JPG,AFNE01.JPG,,,,,4,7,47,3,,,,,,,,,,,,,,,,,,,AFSA11.jpg,AFNE18.jpg,AFNE09.jpg,AFSA14.jpg,AFNE18.jpg,FN,3,num_6,16,num_6,1.00008563744,,,2017_Nov_01_1101,60.0035219192,MAFE4ImagesEEG,001,202181,
AFNE01.JPG,AFNE01.JPG,AFNE01.JPG,AFNE01.JPG,AFNE01.JPG,AFNE01.JPG,,,,,4,8,48,9,,,,,,,,,,,,,,,,,,,AFNE09.jpg,AFNE13.jpg,AFSA03.jpg,AFSA04.jpg,AFSA04.jpg,FS,4,num_4,32,num_8,4.34984468203,,,2017_Nov_01_1101,60.0035219192,MAFE4ImagesEEG,001,202181,
AFNE01.JPG,AFNE01.JPG,AFNE01.JPG,AFNE01.JPG,AFNE01.JPG,AFNE01.JPG,,,,,4,9,49,1,,,,,,,,,,,,,,,,,,,AFSA16.jpg,AFNE13.jpg,AFSA08.jpg,AFNE07.jpg,AFNE13.jpg,FN,3,num_6,16,num_6,0.700099910377,,,2017_Nov_01_1101,60.0035219192,MAFE4ImagesEEG,001,202181,
AFNE01.JPG,AFNE01.JPG,AFNE01.JPG,AFNE01.JPG,AFNE01.JPG,AFNE01.JPG,,,,,5,0,50,0,,,,,,,,,,,,,,,,,,,AFSA20.jpg,AFNE19.jpg,AFNE16.jpg,AFSA14.jpg,AFSA20.jpg,FS,4,num_8,32,num_6,0.816634833347,,,2017_Nov_01_1101,60.0035219192,MAFE4ImagesEEG,001,202181,
AFNE01.JPG,AFNE01.JPG,AFNE01.JPG,AFNE01.JPG,AFNE01.JPG,AFNE01.JPG,,,,,5,1,51,1,,,,,,,,,,,,,,,,,,,AFNE06.jpg,AFSA03.jpg,AFSA19.jpg,AFNE16.jpg,AFNE06.jpg,FN,3,num_8,48,None,,,,2017_Nov_01_1101,60.0035219192,MAFE4ImagesEEG,001,202181,
AFNE01.JPG,AFNE01.JPG,AFNE01.JPG,AFNE01.JPG,AFNE01.JPG,AFNE01.JPG,,,,,5,2,52,8,,,,,,,,,,,,,,,,,,,AFNE01.jpg,AFSA12.jpg,AFSA19.jpg,AFNE05.jpg,AFNE01.jpg,FN,3,num_8,16,num_8,1.64973065909,,,2017_Nov_01_1101,60.0035219192,MAFE4ImagesEEG,001,202181,
AFNE01.JPG,AFNE01.JPG,AFNE01.JPG,AFNE01.JPG,AFNE01.JPG,AFNE01.JPG,,,,,5,3,53,3,,,,,,,,,,,,,,,,,,,AFNE08.jpg,AFSA07.jpg,AFNE02.jpg,AFSA09.jpg,AFNE02.jpg,FN,3,num_2,48,None,,,,2017_Nov_01_1101,60.0035219192,MAFE4ImagesEEG,001,202181,
AFNE01.JPG,AFNE01.JPG,AFNE01.JPG,AFNE01.JPG,AFNE01.JPG,AFNE01.JPG,,,,,5,4,54,4,,,,,,,,,,,,,,,,,,,AFSA01.jpg,AFSA02.jpg,AFNE16.jpg,AFNE20.jpg,AFSA01.jpg,FS,4,num_8,16,num_8,0.650129017653,,,2017_Nov_01_1101,60.0035219192,MAFE4ImagesEEG,001,202181,
AFNE01.JPG,AFNE01.JPG,AFNE01.JPG,AFNE01.JPG,AFNE01.JPG,AFNE01.JPG,,,,,5,5,55,7,,,,,,,,,,,,,,,,,,,AFNE01.jpg,AFNE06.jpg,AFSA19.jpg,AFSA10.jpg,AFSA10.jpg,FS,4,num_4,32,num_6,1.31660227827,,,2017_Nov_01_1101,60.0035219192,MAFE4ImagesEEG,001,202181,
AFNE01.JPG,AFNE01.JPG,AFNE01.JPG,AFNE01.JPG,AFNE01.JPG,AFNE01.JPG,,,,,5,6,56,2,,,,,,,,,,,,,,,,,,,AFSA14.jpg,AFSA07.jpg,AFNE18.jpg,AFNE11.jpg,AFSA14.jpg,FS,4,num_8,16,num_8,1.3167244799,,,2017_Nov_01_1101,60.0035219192,MAFE4ImagesEEG,001,202181,
AFNE01.JPG,AFNE01.JPG,AFNE01.JPG,AFNE01.JPG,AFNE01.JPG,AFNE01.JPG,,,,,5,7,57,6,,,,,,,,,,,,,,,,,,,AFSA03.jpg,AFSA13.jpg,AFNE19.jpg,AFNE12.jpg,AFNE19.jpg,FN,3,num_2,32,num_4,1.78347229376,,,2017_Nov_01_1101,60.0035219192,MAFE4ImagesEEG,001,202181,
AFNE01.JPG,AFNE01.JPG,AFNE01.JPG,AFNE01.JPG,AFNE01.JPG,AFNE01.JPG,,,,,5,8,58,9,,,,,,,,,,,,,,,,,,,AFNE11.jpg,AFSA19.jpg,AFSA04.jpg,AFNE04.jpg,AFNE11.jpg,FN,3,num_8,32,num_6,0.716610938311,,,2017_Nov_01_1101,60.0035219192,MAFE4ImagesEEG,001,202181,
AFNE01.JPG,AFNE01.JPG,AFNE01.JPG,AFNE01.JPG,AFNE01.JPG,AFNE01.JPG,,,,,5,9,59,5,,,,,,,,,,,,,,,,,,,AFNE01.jpg,AFSA02.jpg,AFNE14.jpg,AFSA17.jpg,AFSA17.jpg,FS,4,num_4,32,num_6,2.96660909406,,,2017_Nov_01_1101,60.0035219192,MAFE4ImagesEEG,001,202181,
,,,,,,,,,,,,,,,,,,,,,,,,,,,,,,,,,,,,,,,,,,,space,1.80000032065,2017_Nov_01_1101,60.0035219192,MAFE4ImagesEEG,001,202181,
AFNE01.JPG,AFNE01.JPG,AFNE01.JPG,AFNE01.JPG,AFNE01.JPG,AFNE01.JPG,,,,,,,,,0,0,0,5,,,,,,,,,,,,,,,AMNE19.jpg,AMNE12.jpg,AMSA09.jpg,AMSA03.jpg,AMSA03.jpg,MS,2,num_4,16,num_4,0.566776840482,,,2017_Nov_01_1101,60.0035219192,MAFE4ImagesEEG,001,202181,
AFNE01.JPG,AFNE01.JPG,AFNE01.JPG,AFNE01.JPG,AFNE01.JPG,AFNE01.JPG,,,,,,,,,0,1,1,6,,,,,,,,,,,,,,,AMNE03.jpg,AMNE02.jpg,AMSA18.jpg,AMSA14.jpg,AMNE02.jpg,MN,1,num_6,16,num_6,0.816774996463,,,2017_Nov_01_1101,60.0035219192,MAFE4ImagesEEG,001,202181,
AFNE01.JPG,AFNE01.JPG,AFNE01.JPG,AFNE01.JPG,AFNE01.JPG,AFNE01.JPG,,,,,,,,,0,2,2,0,,,,,,,,,,,,,,,AMNE06.jpg,AMSA06.jpg,AMSA05.jpg,AMNE10.jpg,AMNE10.jpg,MN,1,num_4,32,num_2,2.39999069856,,,2017_Nov_01_1101,60.0035219192,MAFE4ImagesEEG,001,202181,
AFNE01.JPG,AFNE01.JPG,AFNE01.JPG,AFNE01.JPG,AFNE01.JPG,AFNE01.JPG,,,,,,,,,0,3,3,1,,,,,,,,,,,,,,,AMSA10.jpg,AMSA02.jpg,AMNE08.jpg,AMNE18.jpg,AMSA10.jpg,MS,2,num_8,16,num_8,1.2498621624,,,2017_Nov_01_1101,60.0035219192,MAFE4ImagesEEG,001,202181,
AFNE01.JPG,AFNE01.JPG,AFNE01.JPG,AFNE01.JPG,AFNE01.JPG,AFNE01.JPG,,,,,,,,,0,4,4,7,,,,,,,,,,,,,,,AMSA07.jpg,AMSA02.jpg,AMNE12.jpg,AMNE13.jpg,AMNE13.jpg,MN,1,num_4,32,num_2,3.949877718,,,2017_Nov_01_1101,60.0035219192,MAFE4ImagesEEG,001,202181,
AFNE01.JPG,AFNE01.JPG,AFNE01.JPG,AFNE01.JPG,AFNE01.JPG,AFNE01.JPG,,,,,,,,,0,5,5,9,,,,,,,,,,,,,,,AMNE17.jpg,AMSA19.jpg,AMNE15.jpg,AMSA03.jpg,AMNE15.jpg,MN,1,num_2,32,num_8,0.950095500099,,,2017_Nov_01_1101,60.0035219192,MAFE4ImagesEEG,001,202181,
AFNE01.JPG,AFNE01.JPG,AFNE01.JPG,AFNE01.JPG,AFNE01.JPG,AFNE01.JPG,,,,,,,,,0,6,6,8,,,,,,,,,,,,,,,AMSA08.jpg,AMNE12.jpg,AMSA18.jpg,AMNE18.jpg,AMSA08.jpg,MS,2,num_8,48,None,,,,2017_Nov_01_1101,60.0035219192,MAFE4ImagesEEG,001,202181,
AFNE01.JPG,AFNE01.JPG,AFNE01.JPG,AFNE01.JPG,AFNE01.JPG,AFNE01.JPG,,,,,,,,,0,7,7,3,,,,,,,,,,,,,,,AMNE07.jpg,AMSA10.jpg,AMNE06.jpg,AMSA01.jpg,AMNE06.jpg,MN,1,num_2,48,None,,,,2017_Nov_01_1101,60.0035219192,MAFE4ImagesEEG,001,202181,
AFNE01.JPG,AFNE01.JPG,AFNE01.JPG,AFNE01.JPG,AFNE01.JPG,AFNE01.JPG,,,,,,,,,0,8,8,4,,,,,,,,,,,,,,,AMSA05.jpg,AMNE06.jpg,AMSA11.jpg,AMNE14.jpg,AMSA11.jpg,MS,2,num_2,48,None,,,,2017_Nov_01_1101,60.0035219192,MAFE4ImagesEEG,001,202181,
AFNE01.JPG,AFNE01.JPG,AFNE01.JPG,AFNE01.JPG,AFNE01.JPG,AFNE01.JPG,,,,,,,,,0,9,9,2,,,,,,,,,,,,,,,AMNE10.jpg,AMSA18.jpg,AMNE14.jpg,AMSA15.jpg,AMNE10.jpg,MN,1,num_8,16,num_8,1.21676954394,,,2017_Nov_01_1101,60.0035219192,MAFE4ImagesEEG,001,202181,
AFNE01.JPG,AFNE01.JPG,AFNE01.JPG,AFNE01.JPG,AFNE01.JPG,AFNE01.JPG,,,,,,,,,1,0,10,2,,,,,,,,,,,,,,,AMSA17.jpg,AMNE05.jpg,AMNE02.jpg,AMSA19.jpg,AMNE05.jpg,MN,1,num_6,16,num_6,0.800099429209,,,2017_Nov_01_1101,60.0035219192,MAFE4ImagesEEG,001,202181,
AFNE01.JPG,AFNE01.JPG,AFNE01.JPG,AFNE01.JPG,AFNE01.JPG,AFNE01.JPG,,,,,,,,,1,1,11,8,,,,,,,,,,,,,,,AMNE18.jpg,AMSA07.jpg,AMNE19.jpg,AMSA11.jpg,AMNE18.jpg,MN,1,num_8,16,num_8,1.60005965759,,,2017_Nov_01_1101,60.0035219192,MAFE4ImagesEEG,001,202181,
AFNE01.JPG,AFNE01.JPG,AFNE01.JPG,AFNE01.JPG,AFNE01.JPG,AFNE01.JPG,,,,,,,,,1,2,12,5,,,,,,,,,,,,,,,AMSA03.jpg,AMNE10.jpg,AMNE17.jpg,AMSA13.jpg,AMNE17.jpg,MN,1,num_2,16,num_2,1.33340549981,,,2017_Nov_01_1101,60.0035219192,MAFE4ImagesEEG,001,202181,
AFNE01.JPG,AFNE01.JPG,AFNE01.JPG,AFNE01.JPG,AFNE01.JPG,AFNE01.JPG,,,,,,,,,1,3,13,1,,,,,,,,,,,,,,,AMSA07.jpg,AMSA12.jpg,AMNE08.jpg,AMNE20.jpg,AMNE08.jpg,MN,1,num_2,16,num_2,1.01670956542,,,2017_Nov_01_1101,60.0035219192,MAFE4ImagesEEG,001,202181,
AFNE01.JPG,AFNE01.JPG,AFNE01.JPG,AFNE01.JPG,AFNE01.JPG,AFNE01.JPG,,,,,,,,,1,4,14,4,,,,,,,,,,,,,,,AMNE08.jpg,AMSA16.jpg,AMNE05.jpg,AMSA09.jpg,AMSA16.jpg,MS,2,num_6,16,num_6,0.633480392396,,,2017_Nov_01_1101,60.0035219192,MAFE4ImagesEEG,001,202181,
AFNE01.JPG,AFNE01.JPG,AFNE01.JPG,AFNE01.JPG,AFNE01.JPG,AFNE01.JPG,,,,,,,,,1,5,15,9,,,,,,,,,,,,,,,AMNE02.jpg,AMSA03.jpg,AMNE19.jpg,AMSA07.jpg,AMSA03.jpg,MS,2,num_6,16,num_6,0.600133748492,,,2017_Nov_01_1101,60.0035219192,MAFE4ImagesEEG,001,202181,
AFNE01.JPG,AFNE01.JPG,AFNE01.JPG,AFNE01.JPG,AFNE01.JPG,AFNE01.JPG,,,,,,,,,1,6,16,6,,,,,,,,,,,,,,,AMNE06.jpg,AMSA19.jpg,AMSA05.jpg,AMNE16.jpg,AMNE16.jpg,MN,1,num_4,16,num_4,1.26671285322,,,2017_Nov_01_1101,60.0035219192,MAFE4ImagesEEG,001,202181,
AFNE01.JPG,AFNE01.JPG,AFNE01.JPG,AFNE01.JPG,AFNE01.JPG,AFNE01.JPG,,,,,,,,,1,7,17,0,,,,,,,,,,,,,,,AMNE16.jpg,AMSA06.jpg,AMSA13.jpg,AMNE14.jpg,AMSA06.jpg,MS,2,num_6,16,num_6,0.683466039365,,,2017_Nov_01_1101,60.0035219192,MAFE4ImagesEEG,001,202181,
AFNE01.JPG,AFNE01.JPG,AFNE01.JPG,AFNE01.JPG,AFNE01.JPG,AFNE01.JPG,,,,,,,,,1,8,18,3,,,,,,,,,,,,,,,AMSA05.jpg,AMNE17.jpg,AMSA16.jpg,AMNE14.jpg,AMNE14.jpg,MN,1,num_4,16,num_4,2.04998949589,,,2017_Nov_01_1101,60.0035219192,MAFE4ImagesEEG,001,202181,
AFNE01.JPG,AFNE01.JPG,AFNE01.JPG,AFNE01.JPG,AFNE01.JPG,AFNE01.JPG,,,,,,,,,1,9,19,7,,,,,,,,,,,,,,,AMNE03.jpg,AMSA11.jpg,AMSA18.jpg,AMNE01.jpg,AMNE03.jpg,MN,1,num_8,16,num_8,1.31671004673,,,2017_Nov_01_1101,60.0035219192,MAFE4ImagesEEG,001,202181,
AFNE01.JPG,AFNE01.JPG,AFNE01.JPG,AFNE01.JPG,AFNE01.JPG,AFNE01.JPG,,,,,,,,,2,0,20,5,,,,,,,,,,,,,,,AMSA06.jpg,AMSA16.jpg,AMNE08.jpg,AMNE12.jpg,AMSA16.jpg,MS,2,num_6,16,num_6,1.28341247584,,,2017_Nov_01_1101,60.0035219192,MAFE4ImagesEEG,001,202181,
AFNE01.JPG,AFNE01.JPG,AFNE01.JPG,AFNE01.JPG,AFNE01.JPG,AFNE01.JPG,,,,,,,,,2,1,21,3,,,,,,,,,,,,,,,AMNE10.jpg,AMSA18.jpg,AMNE03.jpg,AMSA10.jpg,AMSA10.jpg,MS,2,num_4,16,num_4,2.16671140981,,,2017_Nov_01_1101,60.0035219192,MAFE4ImagesEEG,001,202181,
AFNE01.JPG,AFNE01.JPG,AFNE01.JPG,AFNE01.JPG,AFNE01.JPG,AFNE01.JPG,,,,,,,,,2,2,22,0,,,,,,,,,,,,,,,AMSA07.jpg,AMSA05.jpg,AMNE20.jpg,AMNE06.jpg,AMSA05.jpg,MS,2,num_6,16,num_6,0.666840828257,,,2017_Nov_01_1101,60.0035219192,MAFE4ImagesEEG,001,202181,
AFNE01.JPG,AFNE01.JPG,AFNE01.JPG,AFNE01.JPG,AFNE01.JPG,AFNE01.JPG,,,,,,,,,2,3,23,8,,,,,,,,,,,,,,,AMSA15.jpg,AMNE20.jpg,AMSA08.jpg,AMNE12.jpg,AMSA08.jpg,MS,2,num_2,32,num_8,0.550149705028,,,2017_Nov_01_1101,60.0035219192,MAFE4ImagesEEG,001,202181,
AFNE01.JPG,AFNE01.JPG,AFNE01.JPG,AFNE01.JPG,AFNE01.JPG,AFNE01.JPG,,,,,,,,,2,4,24,1,,,,,,,,,,,,,,,AMNE16.jpg,AMSA20.jpg,AMSA07.jpg,AMNE07.jpg,AMNE16.jpg,MN,1,num_8,32,num_4,0.949947639368,,,2017_Nov_01_1101,60.0035219192,MAFE4ImagesEEG,001,202181,
AFNE01.JPG,AFNE01.JPG,AFNE01.JPG,AFNE01.JPG,AFNE01.JPG,AFNE01.JPG,,,,,,,,,2,5,25,9,,,,,,,,,,,,,,,AMSA04.jpg,AMSA20.jpg,AMNE08.jpg,AMNE20.jpg,AMNE20.jpg,MN,1,num_4,32,num_2,1.56669248617,,,2017_Nov_01_1101,60.0035219192,MAFE4ImagesEEG,001,202181,
AFNE01.JPG,AFNE01.JPG,AFNE01.JPG,AFNE01.JPG,AFNE01.JPG,AFNE01.JPG,,,,,,,,,2,6,26,6,,,,,,,,,,,,,,,AMSA11.jpg,AMNE06.jpg,AMSA16.jpg,AMNE11.jpg,AMNE06.jpg,MN,1,num_6,32,num_4,0.733473175904,,,2017_Nov_01_1101,60.0035219192,MAFE4ImagesEEG,001,202181,
AFNE01.JPG,AFNE01.JPG,AFNE01.JPG,AFNE01.JPG,AFNE01.JPG,AFNE01.JPG,,,,,,,,,2,7,27,4,,,,,,,,,,,,,,,AMSA19.jpg,AMNE16.jpg,AMNE12.jpg,AMSA12.jpg,AMSA12.jpg,MS,2,num_4,16,num_4,1.83341303701,,,2017_Nov_01_1101,60.0035219192,MAFE4ImagesEEG,001,202181,
AFNE01.JPG,AFNE01.JPG,AFNE01.JPG,AFNE01.JPG,AFNE01.JPG,AFNE01.JPG,,,,,,,,,2,8,28,2,,,,,,,,,,,,,,,AMNE14.jpg,AMSA17.jpg,AMSA11.jpg,AMNE18.jpg,AMNE18.jpg,MN,1,num_4,32,num_8,2.43328891089,,,2017_Nov_01_1101,60.0035219192,MAFE4ImagesEEG,001,202181,
AFNE01.JPG,AFNE01.JPG,AFNE01.JPG,AFNE01.JPG,AFNE01.JPG,AFNE01.JPG,,,,,,,,,2,9,29,7,,,,,,,,,,,,,,,AMNE04.jpg,AMSA20.jpg,AMSA14.jpg,AMNE17.jpg,AMNE04.jpg,MN,1,num_8,32,num_4,1.73341704626,,,2017_Nov_01_1101,60.0035219192,MAFE4ImagesEEG,001,202181,
AFNE01.JPG,AFNE01.JPG,AFNE01.JPG,AFNE01.JPG,AFNE01.JPG,AFNE01.JPG,,,,,,,,,3,0,30,2,,,,,,,,,,,,,,,AMNE19.jpg,AMSA04.jpg,AMNE10.jpg,AMSA20.jpg,AMSA20.jpg,MS,2,num_4,16,num_4,1.94997714716,,,2017_Nov_01_1101,60.0035219192,MAFE4ImagesEEG,001,202181,
AFNE01.JPG,AFNE01.JPG,AFNE01.JPG,AFNE01.JPG,AFNE01.JPG,AFNE01.JPG,,,,,,,,,3,1,31,9,,,,,,,,,,,,,,,AMNE08.jpg,AMNE12.jpg,AMSA08.jpg,AMSA17.jpg,AMNE12.jpg,MN,1,num_6,32,num_8,1.38340590056,,,2017_Nov_01_1101,60.0035219192,MAFE4ImagesEEG,001,202181,
AFNE01.JPG,AFNE01.JPG,AFNE01.JPG,AFNE01.JPG,AFNE01.JPG,AFNE01.JPG,,,,,,,,,3,2,32,8,,,,,,,,,,,,,,,AMNE20.jpg,AMSA08.jpg,AMNE06.jpg,AMSA03.jpg,AMNE06.jpg,MN,1,num_2,32,num_8,2.31664846465,,,2017_Nov_01_1101,60.0035219192,MAFE4ImagesEEG,001,202181,
AFNE01.JPG,AFNE01.JPG,AFNE01.JPG,AFNE01.JPG,AFNE01.JPG,AFNE01.JPG,,,,,,,,,3,3,33,1,,,,,,,,,,,,,,,AMSA20.jpg,AMNE07.jpg,AMSA06.jpg,AMNE16.jpg,AMSA20.jpg,MS,2,num_8,32,num_4,0.366829762701,,,2017_Nov_01_1101,60.0035219192,MAFE4ImagesEEG,001,202181,
AFNE01.JPG,AFNE01.JPG,AFNE01.JPG,AFNE01.JPG,AFNE01.JPG,AFNE01.JPG,,,,,,,,,3,4,34,5,,,,,,,,,,,,,,,AMNE17.jpg,AMSA11.jpg,AMNE14.jpg,AMSA15.jpg,AMNE17.jpg,MN,1,num_8,32,num_6,0.633465638384,,,2017_Nov_01_1101,60.0035219192,MAFE4ImagesEEG,001,202181,
AFNE01.JPG,AFNE01.JPG,AFNE01.JPG,AFNE01.JPG,AFNE01.JPG,AFNE01.JPG,,,,,,,,,3,5,35,7,,,,,,,,,,,,,,,AMSA17.jpg,AMNE19.jpg,AMSA11.jpg,AMNE08.jpg,AMSA17.jpg,MS,2,num_8,32,num_6,0.533480552724,,,2017_Nov_01_1101,60.0035219192,MAFE4ImagesEEG,001,202181,
AFNE01.JPG,AFNE01.JPG,AFNE01.JPG,AFNE01.JPG,AFNE01.JPG,AFNE01.JPG,,,,,,,,,3,6,36,0,,,,,,,,,,,,,,,AMNE14.jpg,AMSA07.jpg,AMNE11.jpg,AMSA14.jpg,AMSA07.jpg,MS,2,num_6,16,num_6,0.816629059846,,,2017_Nov_01_1101,60.0035219192,MAFE4ImagesEEG,001,202181,
AFNE01.JPG,AFNE01.JPG,AFNE01.JPG,AFNE01.JPG,AFNE01.JPG,AFNE01.JPG,,,,,,,,,3,7,37,4,,,,,,,,,,,,,,,AMSA03.jpg,AMSA11.jpg,AMNE04.jpg,AMNE12.jpg,AMNE12.jpg,MN,1,num_4,32,num_2,2.31663467293,,,2017_Nov_01_1101,60.0035219192,MAFE4ImagesEEG,001,202181,
AFNE01.JPG,AFNE01.JPG,AFNE01.JPG,AFNE01.JPG,AFNE01.JPG,AFNE01.JPG,,,,,,,,,3,8,38,3,,,,,,,,,,,,,,,AMNE10.jpg,AMSA08.jpg,AMNE11.jpg,AMSA05.jpg,AMNE11.jpg,MN,1,num_2,16,num_2,1.43345248816,,,2017_Nov_01_1101,60.0035219192,MAFE4ImagesEEG,001,202181,
AFNE01.JPG,AFNE01.JPG,AFNE01.JPG,AFNE01.JPG,AFNE01.JPG,AFNE01.JPG,,,,,,,,,3,9,39,6,,,,,,,,,,,,,,,AMSA10.jpg,AMNE01.jpg,AMNE05.jpg,AMSA03.jpg,AMNE05.jpg,MN,1,num_2,32,num_8,0.800083392067,,,2017_Nov_01_1101,60.0035219192,MAFE4ImagesEEG,001,202181,
AFNE01.JPG,AFNE01.JPG,AFNE01.JPG,AFNE01.JPG,AFNE01.JPG,AFNE01.JPG,,,,,,,,,4,0,40,3,,,,,,,,,,,,,,,AMNE15.jpg,AMNE14.jpg,AMSA10.jpg,AMSA17.jpg,AMNE14.jpg,MN,1,num_6,16,num_6,1.36641215999,,,2017_Nov_01_1101,60.0035219192,MAFE4ImagesEEG,001,202181,
AFNE01.JPG,AFNE01.JPG,AFNE01.JPG,AFNE01.JPG,AFNE01.JPG,AFNE01.JPG,,,,,,,,,4,1,41,4,,,,,,,,,,,,,,,AMNE06.jpg,AMSA09.jpg,AMSA07.jpg,AMNE02.jpg,AMSA07.jpg,MS,2,num_2,32,num_8,2.38333662087,,,2017_Nov_01_1101,60.0035219192,MAFE4ImagesEEG,001,202181,
AFNE01.JPG,AFNE01.JPG,AFNE01.JPG,AFNE01.JPG,AFNE01.JPG,AFNE01.JPG,,,,,,,,,4,2,42,5,,,,,,,,,,,,,,,AMSA12.jpg,AMNE09.jpg,AMSA15.jpg,AMNE06.jpg,AMSA15.jpg,MS,2,num_2,16,num_2,1.18339820299,,,2017_Nov_01_1101,60.0035219192,MAFE4ImagesEEG,001,202181,
AFNE01.JPG,AFNE01.JPG,AFNE01.JPG,AFNE01.JPG,AFNE01.JPG,AFNE01.JPG,,,,,,,,,4,3,43,9,,,,,,,,,,,,,,,AMSA16.jpg,AMNE15.jpg,AMNE09.jpg,AMSA12.jpg,AMNE09.jpg,MN,1,num_2,32,num_6,1.61673169676,,,2017_Nov_01_1101,60.0035219192,MAFE4ImagesEEG,001,202181,
AFNE01.JPG,AFNE01.JPG,AFNE01.JPG,AFNE01.JPG,AFNE01.JPG,AFNE01.JPG,,,,,,,,,4,4,44,8,,,,,,,,,,,,,,,AMSA04.jpg,AMNE14.jpg,AMSA09.jpg,AMNE15.jpg,AMNE14.jpg,MN,1,num_6,16,num_6,0.983477425529,,,2017_Nov_01_1101,60.0035219192,MAFE4ImagesEEG,001,202181,
AFNE01.JPG,AFNE01.JPG,AFNE01.JPG,AFNE01.JPG,AFNE01.JPG,AFNE01.JPG,,,,,,,,,4,5,45,0,,,,,,,,,,,,,,,AMNE18.jpg,AMNE19.jpg,AMSA13.jpg,AMSA17.jpg,AMSA13.jpg,MS,2,num_2,16,num_2,0.650138318771,,,2017_Nov_01_1101,60.0035219192,MAFE4ImagesEEG,001,202181,
AFNE01.JPG,AFNE01.JPG,AFNE01.JPG,AFNE01.JPG,AFNE01.JPG,AFNE01.JPG,,,,,,,,,4,6,46,7,,,,,,,,,,,,,,,AMNE05.jpg,AMNE17.jpg,AMSA10.jpg,AMSA17.jpg,AMSA10.jpg,MS,2,num_2,16,num_2,0.933427951531,,,2017_Nov_01_1101,60.0035219192,MAFE4ImagesEEG,001,202181,
AFNE01.JPG,AFNE01.JPG,AFNE01.JPG,AFNE01.JPG,AFNE01.JPG,AFNE01.JPG,,,,,,,,,4,7,47,1,,,,,,,,,,,,,,,AMSA12.jpg,AMNE19.jpg,AMSA18.jpg,AMNE07.jpg,AMNE07.jpg,MN,1,num_4,32,num_6,1.25009790575,,,2017_Nov_01_1101,60.0035219192,MAFE4ImagesEEG,001,202181,
AFNE01.JPG,AFNE01.JPG,AFNE01.JPG,AFNE01.JPG,AFNE01.JPG,AFNE01.JPG,,,,,,,,,4,8,48,6,,,,,,,,,,,,,,,AMNE07.jpg,AMSA08.jpg,AMNE13.jpg,AMSA01.jpg,AMNE13.jpg,MN,1,num_2,32,num_4,0.666753266472,,,2017_Nov_01_1101,60.0035219192,MAFE4ImagesEEG,001,202181,
AFNE01.JPG,AFNE01.JPG,AFNE01.JPG,AFNE01.JPG,AFNE01.JPG,AFNE01.JPG,,,,,,,,,4,9,49,2,,,,,,,,,,,,,,,AMNE11.jpg,AMSA02.jpg,AMSA06.jpg,AMNE05.jpg,AMSA02.jpg,MS,2,num_6,16,num_6,3.79989383509,,,2017_Nov_01_1101,60.0035219192,MAFE4ImagesEEG,001,202181,
AFNE01.JPG,AFNE01.JPG,AFNE01.JPG,AFNE01.JPG,AFNE01.JPG,AFNE01.JPG,,,,,,,,,5,0,50,4,,,,,,,,,,,,,,,AMNE20.jpg,AMSA17.jpg,AMSA02.jpg,AMNE13.jpg,AMNE20.jpg,MN,1,num_8,16,num_8,0.883158450248,,,2017_Nov_01_1101,60.0035219192,MAFE4ImagesEEG,001,202181,
AFNE01.JPG,AFNE01.JPG,AFNE01.JPG,AFNE01.JPG,AFNE01.JPG,AFNE01.JPG,,,,,,,,,5,1,51,1,,,,,,,,,,,,,,,AMNE14.jpg,AMNE04.jpg,AMSA09.jpg,AMSA20.jpg,AMSA09.jpg,MS,2,num_2,32,num_4,0.683487528935,,,2017_Nov_01_1101,60.0035219192,MAFE4ImagesEEG,001,202181,
AFNE01.JPG,AFNE01.JPG,AFNE01.JPG,AFNE01.JPG,AFNE01.JPG,AFNE01.JPG,,,,,,,,,5,2,52,6,,,,,,,,,,,,,,,AMSA14.jpg,AMNE11.jpg,AMSA11.jpg,AMNE01.jpg,AMNE01.jpg,MN,1,num_4,16,num_4,1.01678622235,,,2017_Nov_01_1101,60.0035219192,MAFE4ImagesEEG,001,202181,
AFNE01.JPG,AFNE01.JPG,AFNE01.JPG,AFNE01.JPG,AFNE01.JPG,AFNE01.JPG,,,,,,,,,5,3,53,8,,,,,,,,,,,,,,,AMNE14.jpg,AMSA10.jpg,AMSA06.jpg,AMNE09.jpg,AMNE14.jpg,MN,1,num_8,16,num_8,0.533479911275,,,2017_Nov_01_1101,60.0035219192,MAFE4ImagesEEG,001,202181,
AFNE01.JPG,AFNE01.JPG,AFNE01.JPG,AFNE01.JPG,AFNE01.JPG,AFNE01.JPG,,,,,,,,,5,4,54,3,,,,,,,,,,,,,,,AMSA12.jpg,AMNE04.jpg,AMSA18.jpg,AMNE07.jpg,AMNE04.jpg,MN,1,num_6,16,num_6,2.25000296696,,,2017_Nov_01_1101,60.0035219192,MAFE4ImagesEEG,001,202181,
AFNE01.JPG,AFNE01.JPG,AFNE01.JPG,AFNE01.JPG,AFNE01.JPG,AFNE01.JPG,,,,,,,,,5,5,55,0,,,,,,,,,,,,,,,AMSA20.jpg,AMNE02.jpg,AMSA01.jpg,AMNE19.jpg,AMNE19.jpg,MN,1,num_4,16,num_4,0.916794401128,,,2017_Nov_01_1101,60.0035219192,MAFE4ImagesEEG,001,202181,
AFNE01.JPG,AFNE01.JPG,AFNE01.JPG,AFNE01.JPG,AFNE01.JPG,AFNE01.JPG,,,,,,,,,5,6,56,2,,,,,,,,,,,,,,,AMSA04.jpg,AMSA20.jpg,AMNE01.jpg,AMNE06.jpg,AMSA04.jpg,MS,2,num_8,16,num_8,1.06675230409,,,2017_Nov_01_1101,60.0035219192,MAFE4ImagesEEG,001,202181,
AFNE01.JPG,AFNE01.JPG,AFNE01.JPG,AFNE01.JPG,AFNE01.JPG,AFNE01.JPG,,,,,,,,,5,7,57,5,,,,,,,,,,,,,,,AMSA19.jpg,AMNE06.jpg,AMSA05.jpg,AMNE14.jpg,AMNE14.jpg,MN,1,num_4,16,num_4,0.550113140838,,,2017_Nov_01_1101,60.0035219192,MAFE4ImagesEEG,001,202181,
AFNE01.JPG,AFNE01.JPG,AFNE01.JPG,AFNE01.JPG,AFNE01.JPG,AFNE01.JPG,,,,,,,,,5,8,58,9,,,,,,,,,,,,,,,AMSA11.jpg,AMNE20.jpg,AMNE01.jpg,AMSA15.jpg,AMSA11.jpg,MS,2,num_8,16,num_8,0.683446794981,,,2017_Nov_01_1101,60.0035219192,MAFE4ImagesEEG,001,202181,
AFNE01.JPG,AFNE01.JPG,AFNE01.JPG,AFNE01.JPG,AFNE01.JPG,AFNE01.JPG,,,,,,,,,5,9,59,7,,,,,,,,,,,,,,,AMSA09.jpg,AMNE01.jpg,AMNE11.jpg,AMSA05.jpg,AMNE01.jpg,MN,1,num_6,32,num_2,1.41672367812,,,2017_Nov_01_1101,60.0035219192,MAFE4ImagesEEG,001,202181,
,,,,,,,,,,,,,,,,,,,,,,,,,,,,,,,,,,,,,,,,,,,space,1.56654462521,2017_Nov_01_1101,60.0035219192,MAFE4ImagesEEG,001,202181,
AFNE01.JPG,AFNE01.JPG,AFNE01.JPG,AFNE01.JPG,AFNE01.JPG,AFNE01.JPG,,,,,,,,,,,,,0,0,0,0,,,,,,,,,,,AFNE03.jpg,AFSA18.jpg,AFNE07.jpg,AFSA09.jpg,AFNE03.jpg,FN,3,num_8,32,num_2,1.06675134203,,,2017_Nov_01_1101,60.0035219192,MAFE4ImagesEEG,001,202181,
AFNE01.JPG,AFNE01.JPG,AFNE01.JPG,AFNE01.JPG,AFNE01.JPG,AFNE01.JPG,,,,,,,,,,,,,0,1,1,7,,,,,,,,,,,AFNE20.jpg,AFNE15.jpg,AFSA04.jpg,AFSA01.jpg,AFNE20.jpg,FN,3,num_8,16,num_8,0.883429154288,,,2017_Nov_01_1101,60.0035219192,MAFE4ImagesEEG,001,202181,
AFNE01.JPG,AFNE01.JPG,AFNE01.JPG,AFNE01.JPG,AFNE01.JPG,AFNE01.JPG,,,,,,,,,,,,,0,2,2,1,,,,,,,,,,,AFSA05.jpg,AFNE02.jpg,AFSA03.jpg,AFNE18.jpg,AFNE18.jpg,FN,3,num_4,16,num_4,1.66655184189,,,2017_Nov_01_1101,60.0035219192,MAFE4ImagesEEG,001,202181,
AFNE01.JPG,AFNE01.JPG,AFNE01.JPG,AFNE01.JPG,AFNE01.JPG,AFNE01.JPG,,,,,,,,,,,,,0,3,3,3,,,,,,,,,,,AFSA10.jpg,AFNE13.jpg,AFSA08.jpg,AFNE08.jpg,AFSA10.jpg,FS,4,num_8,16,num_8,1.20014561573,,,2017_Nov_01_1101,60.0035219192,MAFE4ImagesEEG,001,202181,
AFNE01.JPG,AFNE01.JPG,AFNE01.JPG,AFNE01.JPG,AFNE01.JPG,AFNE01.JPG,,,,,,,,,,,,,0,4,4,6,,,,,,,,,,,AFSA08.jpg,AFNE02.jpg,AFNE07.jpg,AFSA05.jpg,AFNE02.jpg,FN,3,num_6,32,num_4,0.300139682135,,,2017_Nov_01_1101,60.0035219192,MAFE4ImagesEEG,001,202181,
AFNE01.JPG,AFNE01.JPG,AFNE01.JPG,AFNE01.JPG,AFNE01.JPG,AFNE01.JPG,,,,,,,,,,,,,0,5,5,4,,,,,,,,,,,AFSA18.jpg,AFNE18.jpg,AFNE10.jpg,AFSA01.jpg,AFSA01.jpg,FS,4,num_4,16,num_4,0.350201023277,,,2017_Nov_01_1101,60.0035219192,MAFE4ImagesEEG,001,202181,
AFNE01.JPG,AFNE01.JPG,AFNE01.JPG,AFNE01.JPG,AFNE01.JPG,AFNE01.JPG,,,,,,,,,,,,,0,6,6,2,,,,,,,,,,,AFSA08.jpg,AFNE15.jpg,AFNE02.jpg,AFSA17.jpg,AFSA17.jpg,FS,4,num_4,32,num_6,0.966760482872,,,2017_Nov_01_1101,60.0035219192,MAFE4ImagesEEG,001,202181,
AFNE01.JPG,AFNE01.JPG,AFNE01.JPG,AFNE01.JPG,AFNE01.JPG,AFNE01.JPG,,,,,,,,,,,,,0,7,7,5,,,,,,,,,,,AFSA05.jpg,AFSA20.jpg,AFNE08.jpg,AFNE05.jpg,AFNE08.jpg,FN,3,num_2,16,num_2,1.33339010435,,,2017_Nov_01_1101,60.0035219192,MAFE4ImagesEEG,001,202181,
AFNE01.JPG,AFNE01.JPG,AFNE01.JPG,AFNE01.JPG,AFNE01.JPG,AFNE01.JPG,,,,,,,,,,,,,0,8,8,8,,,,,,,,,,,AFNE10.jpg,AFNE03.jpg,AFSA04.jpg,AFSA01.jpg,AFSA04.jpg,FS,4,num_2,32,num_4,0.800081788562,,,2017_Nov_01_1101,60.0035219192,MAFE4ImagesEEG,001,202181,
AFNE01.JPG,AFNE01.JPG,AFNE01.JPG,AFNE01.JPG,AFNE01.JPG,AFNE01.JPG,,,,,,,,,,,,,0,9,9,9,,,,,,,,,,,AFNE20.jpg,AFSA11.jpg,AFNE17.jpg,AFSA14.jpg,AFSA11.jpg,FS,4,num_6,16,num_6,0.766625772463,,,2017_Nov_01_1101,60.0035219192,MAFE4ImagesEEG,001,202181,
AFNE01.JPG,AFNE01.JPG,AFNE01.JPG,AFNE01.JPG,AFNE01.JPG,AFNE01.JPG,,,,,,,,,,,,,1,0,10,0,,,,,,,,,,,AFNE15.jpg,AFSA13.jpg,AFNE18.jpg,AFSA02.jpg,AFSA13.jpg,FS,4,num_6,32,num_4,0.700099268928,,,2017_Nov_01_1101,60.0035219192,MAFE4ImagesEEG,001,202181,
AFNE01.JPG,AFNE01.JPG,AFNE01.JPG,AFNE01.JPG,AFNE01.JPG,AFNE01.JPG,,,,,,,,,,,,,1,1,11,3,,,,,,,,,,,AFNE09.jpg,AFSA05.jpg,AFSA18.jpg,AFNE11.jpg,AFNE11.jpg,FN,3,num_4,16,num_4,0.83341720677,,,2017_Nov_01_1101,60.0035219192,MAFE4ImagesEEG,001,202181,
AFNE01.JPG,AFNE01.JPG,AFNE01.JPG,AFNE01.JPG,AFNE01.JPG,AFNE01.JPG,,,,,,,,,,,,,1,2,12,2,,,,,,,,,,,AFSA03.jpg,AFNE17.jpg,AFSA10.jpg,AFNE15.jpg,AFNE17.jpg,FN,3,num_6,16,num_6,0.899757681414,,,2017_Nov_01_1101,60.0035219192,MAFE4ImagesEEG,001,202181,
AFNE01.JPG,AFNE01.JPG,AFNE01.JPG,AFNE01.JPG,AFNE01.JPG,AFNE01.JPG,,,,,,,,,,,,,1,3,13,9,,,,,,,,,,,AFNE06.jpg,AFNE19.jpg,AFSA04.jpg,AFSA10.jpg,AFSA10.jpg,FS,4,num_4,16,num_4,0.966741559329,,,2017_Nov_01_1101,60.0035219192,MAFE4ImagesEEG,001,202181,
AFNE01.JPG,AFNE01.JPG,AFNE01.JPG,AFNE01.JPG,AFNE01.JPG,AFNE01.JPG,,,,,,,,,,,,,1,4,14,8,,,,,,,,,,,AFNE18.jpg,AFSA07.jpg,AFSA11.jpg,AFNE12.jpg,AFSA11.jpg,FS,4,num_2,32,num_4,1.56672616396,,,2017_Nov_01_1101,60.0035219192,MAFE4ImagesEEG,001,202181,
AFNE01.JPG,AFNE01.JPG,AFNE01.JPG,AFNE01.JPG,AFNE01.JPG,AFNE01.JPG,,,,,,,,,,,,,1,5,15,1,,,,,,,,,,,AFSA06.jpg,AFNE17.jpg,AFNE04.jpg,AFSA04.jpg,AFNE04.jpg,FN,3,num_2,16,num_2,1.51715298789,,,2017_Nov_01_1101,60.0035219192,MAFE4ImagesEEG,001,202181,
AFNE01.JPG,AFNE01.JPG,AFNE01.JPG,AFNE01.JPG,AFNE01.JPG,AFNE01.JPG,,,,,,,,,,,,,1,6,16,7,,,,,,,,,,,AFNE19.jpg,AFSA03.jpg,AFSA06.jpg,AFNE20.jpg,AFSA06.jpg,FS,4,num_2,32,num_8,2.04999751435,,,2017_Nov_01_1101,60.0035219192,MAFE4ImagesEEG,001,202181,
AFNE01.JPG,AFNE01.JPG,AFNE01.JPG,AFNE01.JPG,AFNE01.JPG,AFNE01.JPG,,,,,,,,,,,,,1,7,17,4,,,,,,,,,,,AFNE04.jpg,AFSA19.jpg,AFSA14.jpg,AFNE03.jpg,AFNE03.jpg,FN,3,num_4,32,num_8,1.23342426284,,,2017_Nov_01_1101,60.0035219192,MAFE4ImagesEEG,001,202181,
AFNE01.JPG,AFNE01.JPG,AFNE01.JPG,AFNE01.JPG,AFNE01.JPG,AFNE01.JPG,,,,,,,,,,,,,1,8,18,5,,,,,,,,,,,AFSA11.jpg,AFNE04.jpg,AFSA04.jpg,AFNE05.jpg,AFSA04.jpg,FS,4,num_2,32,num_8,1.68343524821,,,2017_Nov_01_1101,60.0035219192,MAFE4ImagesEEG,001,202181,
AFNE01.JPG,AFNE01.JPG,AFNE01.JPG,AFNE01.JPG,AFNE01.JPG,AFNE01.JPG,,,,,,,,,,,,,1,9,19,6,,,,,,,,,,,AFSA08.jpg,AFNE01.jpg,AFNE12.jpg,AFSA19.jpg,AFSA08.jpg,FS,4,num_8,32,num_2,1.68340381584,,,2017_Nov_01_1101,60.0035219192,MAFE4ImagesEEG,001,202181,
AFNE01.JPG,AFNE01.JPG,AFNE01.JPG,AFNE01.JPG,AFNE01.JPG,AFNE01.JPG,,,,,,,,,,,,,2,0,20,8,,,,,,,,,,,AFSA05.jpg,AFNE09.jpg,AFNE20.jpg,AFSA18.jpg,AFNE20.jpg,FN,3,num_2,32,num_6,1.23341816873,,,2017_Nov_01_1101,60.0035219192,MAFE4ImagesEEG,001,202181,
AFNE01.JPG,AFNE01.JPG,AFNE01.JPG,AFNE01.JPG,AFNE01.JPG,AFNE01.JPG,,,,,,,,,,,,,2,1,21,1,,,,,,,,,,,AFSA12.jpg,AFSA06.jpg,AFNE11.jpg,AFNE14.jpg,AFSA12.jpg,FS,4,num_8,16,num_8,0.733475100249,,,2017_Nov_01_1101,60.0035219192,MAFE4ImagesEEG,001,202181,
AFNE01.JPG,AFNE01.JPG,AFNE01.JPG,AFNE01.JPG,AFNE01.JPG,AFNE01.JPG,,,,,,,,,,,,,2,2,22,5,,,,,,,,,,,AFNE15.jpg,AFSA01.jpg,AFNE11.jpg,AFSA06.jpg,AFSA01.jpg,FS,4,num_6,16,num_6,0.733457138762,,,2017_Nov_01_1101,60.0035219192,MAFE4ImagesEEG,001,202181,
AFNE01.JPG,AFNE01.JPG,AFNE01.JPG,AFNE01.JPG,AFNE01.JPG,AFNE01.JPG,,,,,,,,,,,,,2,3,23,4,,,,,,,,,,,AFNE01.jpg,AFSA06.jpg,AFSA16.jpg,AFNE04.jpg,AFSA06.jpg,FS,4,num_6,16,num_6,0.783450162737,,,2017_Nov_01_1101,60.0035219192,MAFE4ImagesEEG,001,202181,
AFNE01.JPG,AFNE01.JPG,AFNE01.JPG,AFNE01.JPG,AFNE01.JPG,AFNE01.JPG,,,,,,,,,,,,,2,4,24,0,,,,,,,,,,,AFNE19.jpg,AFSA13.jpg,AFNE04.jpg,AFSA18.jpg,AFNE19.jpg,FN,3,num_8,16,num_8,2.41670635808,,,2017_Nov_01_1101,60.0035219192,MAFE4ImagesEEG,001,202181,
AFNE01.JPG,AFNE01.JPG,AFNE01.JPG,AFNE01.JPG,AFNE01.JPG,AFNE01.JPG,,,,,,,,,,,,,2,5,25,9,,,,,,,,,,,AFSA17.jpg,AFNE08.jpg,AFSA09.jpg,AFNE03.jpg,AFSA09.jpg,FS,4,num_2,16,num_2,1.16672295658,,,2017_Nov_01_1101,60.0035219192,MAFE4ImagesEEG,001,202181,
AFNE01.JPG,AFNE01.JPG,AFNE01.JPG,AFNE01.JPG,AFNE01.JPG,AFNE01.JPG,,,,,,,,,,,,,2,6,26,6,,,,,,,,,,,AFNE03.jpg,AFSA10.jpg,AFSA09.jpg,AFNE04.jpg,AFNE04.jpg,FN,3,num_4,16,num_4,1.0834445497,,,2017_Nov_01_1101,60.0035219192,MAFE4ImagesEEG,001,202181,
AFNE01.JPG,AFNE01.JPG,AFNE01.JPG,AFNE01.JPG,AFNE01.JPG,AFNE01.JPG,,,,,,,,,,,,,2,7,27,3,,,,,,,,,,,AFNE17.jpg,AFSA18.jpg,AFNE10.jpg,AFSA19.jpg,AFNE17.jpg,FN,3,num_8,16,num_8,1.31675366731,,,2017_Nov_01_1101,60.0035219192,MAFE4ImagesEEG,001,202181,
AFNE01.JPG,AFNE01.JPG,AFNE01.JPG,AFNE01.JPG,AFNE01.JPG,AFNE01.JPG,,,,,,,,,,,,,2,8,28,7,,,,,,,,,,,AFNE19.jpg,AFSA14.jpg,AFSA20.jpg,AFNE06.jpg,AFSA20.jpg,FS,4,num_2,16,num_2,1.00012188102,,,2017_Nov_01_1101,60.0035219192,MAFE4ImagesEEG,001,202181,
AFNE01.JPG,AFNE01.JPG,AFNE01.JPG,AFNE01.JPG,AFNE01.JPG,AFNE01.JPG,,,,,,,,,,,,,2,9,29,2,,,,,,,,,,,AFSA02.jpg,AFSA03.jpg,AFNE01.jpg,AFNE07.jpg,AFNE01.jpg,FN,3,num_2,32,num_4,1.2167849394,,,2017_Nov_01_1101,60.0035219192,MAFE4ImagesEEG,001,202181,
AFNE01.JPG,AFNE01.JPG,AFNE01.JPG,AFNE01.JPG,AFNE01.JPG,AFNE01.JPG,,,,,,,,,,,,,3,0,30,4,,,,,,,,,,,AFSA19.jpg,AFNE18.jpg,AFSA07.jpg,AFNE02.jpg,AFSA19.jpg,FS,4,num_8,16,num_8,0.583431559615,,,2017_Nov_01_1101,60.0035219192,MAFE4ImagesEEG,001,202181,
AFNE01.JPG,AFNE01.JPG,AFNE01.JPG,AFNE01.JPG,AFNE01.JPG,AFNE01.JPG,,,,,,,,,,,,,3,1,31,5,,,,,,,,,,,AFSA10.jpg,AFNE19.jpg,AFNE12.jpg,AFSA13.jpg,AFNE12.jpg,FN,3,num_2,16,num_2,1.38338248665,,,2017_Nov_01_1101,60.0035219192,MAFE4ImagesEEG,001,202181,
AFNE01.JPG,AFNE01.JPG,AFNE01.JPG,AFNE01.JPG,AFNE01.JPG,AFNE01.JPG,,,,,,,,,,,,,3,2,32,7,,,,,,,,,,,AFNE01.jpg,AFSA11.jpg,AFNE06.jpg,AFSA05.jpg,AFNE06.jpg,FN,3,num_2,16,num_2,1.21671405574,,,2017_Nov_01_1101,60.0035219192,MAFE4ImagesEEG,001,202181,
AFNE01.JPG,AFNE01.JPG,AFNE01.JPG,AFNE01.JPG,AFNE01.JPG,AFNE01.JPG,,,,,,,,,,,,,3,3,33,6,,,,,,,,,,,AFSA13.jpg,AFSA12.jpg,AFNE17.jpg,AFNE10.jpg,AFNE10.jpg,FN,3,num_4,16,num_4,1.90008547693,,,2017_Nov_01_1101,60.0035219192,MAFE4ImagesEEG,001,202181,
AFNE01.JPG,AFNE01.JPG,AFNE01.JPG,AFNE01.JPG,AFNE01.JPG,AFNE01.JPG,,,,,,,,,,,,,3,4,34,3,,,,,,,,,,,AFNE04.jpg,AFSA02.jpg,AFNE16.jpg,AFSA16.jpg,AFSA16.jpg,FS,4,num_4,32,num_6,0.883440059377,,,2017_Nov_01_1101,60.0035219192,MAFE4ImagesEEG,001,202181,
AFNE01.JPG,AFNE01.JPG,AFNE01.JPG,AFNE01.JPG,AFNE01.JPG,AFNE01.JPG,,,,,,,,,,,,,3,5,35,1,,,,,,,,,,,AFNE07.jpg,AFSA11.jpg,AFNE11.jpg,AFSA20.jpg,AFSA20.jpg,FS,4,num_4,16,num_4,0.766771708848,,,2017_Nov_01_1101,60.0035219192,MAFE4ImagesEEG,001,202181,
AFNE01.JPG,AFNE01.JPG,AFNE01.JPG,AFNE01.JPG,AFNE01.JPG,AFNE01.JPG,,,,,,,,,,,,,3,6,36,0,,,,,,,,,,,AFNE13.jpg,AFNE05.jpg,AFSA01.jpg,AFSA03.jpg,AFNE13.jpg,FN,3,num_8,32,num_2,1.7836907173,,,2017_Nov_01_1101,60.0035219192,MAFE4ImagesEEG,001,202181,
AFNE01.JPG,AFNE01.JPG,AFNE01.JPG,AFNE01.JPG,AFNE01.JPG,AFNE01.JPG,,,,,,,,,,,,,3,7,37,8,,,,,,,,,,,AFSA15.jpg,AFNE13.jpg,AFSA02.jpg,AFNE09.jpg,AFNE13.jpg,FN,3,num_6,16,num_6,1.1167138957,,,2017_Nov_01_1101,60.0035219192,MAFE4ImagesEEG,001,202181,
AFNE01.JPG,AFNE01.JPG,AFNE01.JPG,AFNE01.JPG,AFNE01.JPG,AFNE01.JPG,,,,,,,,,,,,,3,8,38,9,,,,,,,,,,,AFNE13.jpg,AFSA18.jpg,AFSA07.jpg,AFNE11.jpg,AFNE11.jpg,FN,3,num_4,16,num_4,1.85005203984,,,2017_Nov_01_1101,60.0035219192,MAFE4ImagesEEG,001,202181,
AFNE01.JPG,AFNE01.JPG,AFNE01.JPG,AFNE01.JPG,AFNE01.JPG,AFNE01.JPG,,,,,,,,,,,,,3,9,39,2,,,,,,,,,,,AFNE09.jpg,AFNE20.jpg,AFSA06.jpg,AFSA01.jpg,AFSA01.jpg,FS,4,num_4,16,num_4,1.1833372626,,,2017_Nov_01_1101,60.0035219192,MAFE4ImagesEEG,001,202181,
AFNE01.JPG,AFNE01.JPG,AFNE01.JPG,AFNE01.JPG,AFNE01.JPG,AFNE01.JPG,,,,,,,,,,,,,4,0,40,7,,,,,,,,,,,AFSA05.jpg,AFNE17.jpg,AFNE12.jpg,AFSA16.jpg,AFNE12.jpg,FN,3,num_2,16,num_2,1.41671950859,,,2017_Nov_01_1101,60.0035219192,MAFE4ImagesEEG,001,202181,
AFNE01.JPG,AFNE01.JPG,AFNE01.JPG,AFNE01.JPG,AFNE01.JPG,AFNE01.JPG,,,,,,,,,,,,,4,1,41,4,,,,,,,,,,,AFSA09.jpg,AFSA07.jpg,AFNE11.jpg,AFNE06.jpg,AFNE06.jpg,FN,3,num_4,16,num_4,1.9666636195,,,2017_Nov_01_1101,60.0035219192,MAFE4ImagesEEG,001,202181,
AFNE01.JPG,AFNE01.JPG,AFNE01.JPG,AFNE01.JPG,AFNE01.JPG,AFNE01.JPG,,,,,,,,,,,,,4,2,42,9,,,,,,,,,,,AFSA06.jpg,AFSA02.jpg,AFNE09.jpg,AFNE12.jpg,AFNE12.jpg,FN,3,num_4,32,num_6,1.23327640211,,,2017_Nov_01_1101,60.0035219192,MAFE4ImagesEEG,001,202181,
AFNE01.JPG,AFNE01.JPG,AFNE01.JPG,AFNE01.JPG,AFNE01.JPG,AFNE01.JPG,,,,,,,,,,,,,4,3,43,3,,,,,,,,,,,AFSA08.jpg,AFNE16.jpg,AFNE01.jpg,AFSA05.jpg,AFNE01.jpg,FN,3,num_2,16,num_2,1.08313599834,,,2017_Nov_01_1101,60.0035219192,MAFE4ImagesEEG,001,202181,
AFNE01.JPG,AFNE01.JPG,AFNE01.JPG,AFNE01.JPG,AFNE01.JPG,AFNE01.JPG,,,,,,,,,,,,,4,4,44,1,,,,,,,,,,,AFNE19.jpg,AFSA05.jpg,AFNE11.jpg,AFSA13.jpg,AFSA05.jpg,FS,4,num_6,16,num_6,0.733460666845,,,2017_Nov_01_1101,60.0035219192,MAFE4ImagesEEG,001,202181,
AFNE01.JPG,AFNE01.JPG,AFNE01.JPG,AFNE01.JPG,AFNE01.JPG,AFNE01.JPG,,,,,,,,,,,,,4,5,45,2,,,,,,,,,,,AFNE15.jpg,AFNE19.jpg,AFSA11.jpg,AFSA09.jpg,AFNE15.jpg,FN,3,num_8,16,num_8,1.68343139952,,,2017_Nov_01_1101,60.0035219192,MAFE4ImagesEEG,001,202181,
AFNE01.JPG,AFNE01.JPG,AFNE01.JPG,AFNE01.JPG,AFNE01.JPG,AFNE01.JPG,,,,,,,,,,,,,4,6,46,8,,,,,,,,,,,AFNE19.jpg,AFSA03.jpg,AFNE12.jpg,AFSA14.jpg,AFSA03.jpg,FS,4,num_6,16,num_6,1.60032202257,,,2017_Nov_01_1101,60.0035219192,MAFE4ImagesEEG,001,202181,
AFNE01.JPG,AFNE01.JPG,AFNE01.JPG,AFNE01.JPG,AFNE01.JPG,AFNE01.JPG,,,,,,,,,,,,,4,7,47,6,,,,,,,,,,,AFNE08.jpg,AFSA18.jpg,AFSA09.jpg,AFNE16.jpg,AFSA18.jpg,FS,4,num_6,16,num_6,0.633501881966,,,2017_Nov_01_1101,60.0035219192,MAFE4ImagesEEG,001,202181,
AFNE01.JPG,AFNE01.JPG,AFNE01.JPG,AFNE01.JPG,AFNE01.JPG,AFNE01.JPG,,,,,,,,,,,,,4,8,48,0,,,,,,,,,,,AFSA08.jpg,AFSA14.jpg,AFNE15.jpg,AFNE05.jpg,AFSA14.jpg,FS,4,num_6,16,num_6,1.65004017274,,,2017_Nov_01_1101,60.0035219192,MAFE4ImagesEEG,001,202181,
AFNE01.JPG,AFNE01.JPG,AFNE01.JPG,AFNE01.JPG,AFNE01.JPG,AFNE01.JPG,,,,,,,,,,,,,4,9,49,5,,,,,,,,,,,AFSA15.jpg,AFNE05.jpg,AFSA08.jpg,AFNE08.jpg,AFNE05.jpg,FN,3,num_6,16,num_6,1.36671622097,,,2017_Nov_01_1101,60.0035219192,MAFE4ImagesEEG,001,202181,
AFNE01.JPG,AFNE01.JPG,AFNE01.JPG,AFNE01.JPG,AFNE01.JPG,AFNE01.JPG,,,,,,,,,,,,,5,0,50,5,,,,,,,,,,,AFSA13.jpg,AFNE14.jpg,AFSA02.jpg,AFNE01.jpg,AFNE14.jpg,FN,3,num_6,16,num_6,0.78343733307,,,2017_Nov_01_1101,60.0035219192,MAFE4ImagesEEG,001,202181,
AFNE01.JPG,AFNE01.JPG,AFNE01.JPG,AFNE01.JPG,AFNE01.JPG,AFNE01.JPG,,,,,,,,,,,,,5,1,51,8,,,,,,,,,,,AFSA20.jpg,AFSA07.jpg,AFNE06.jpg,AFNE02.jpg,AFSA07.jpg,FS,4,num_6,16,num_6,0.716824230039,,,2017_Nov_01_1101,60.0035219192,MAFE4ImagesEEG,001,202181,
AFNE01.JPG,AFNE01.JPG,AFNE01.JPG,AFNE01.JPG,AFNE01.JPG,AFNE01.JPG,,,,,,,,,,,,,5,2,52,1,,,,,,,,,,,AFSA17.jpg,AFNE04.jpg,AFNE20.jpg,AFSA19.jpg,AFNE04.jpg,FN,3,num_6,32,num_2,1.40003047022,,,2017_Nov_01_1101,60.0035219192,MAFE4ImagesEEG,001,202181,
AFNE01.JPG,AFNE01.JPG,AFNE01.JPG,AFNE01.JPG,AFNE01.JPG,AFNE01.JPG,,,,,,,,,,,,,5,3,53,7,,,,,,,,,,,AFNE09.jpg,AFNE14.jpg,AFSA01.jpg,AFSA09.jpg,AFSA09.jpg,FS,4,num_4,16,num_4,0.633454412455,,,2017_Nov_01_1101,60.0035219192,MAFE4ImagesEEG,001,202181,
AFNE01.JPG,AFNE01.JPG,AFNE01.JPG,AFNE01.JPG,AFNE01.JPG,AFNE01.JPG,,,,,,,,,,,,,5,4,54,6,,,,,,,,,,,AFSA03.jpg,AFSA05.jpg,AFNE11.jpg,AFNE18.jpg,AFNE11.jpg,FN,3,num_2,16,num_2,1.40008595819,,,2017_Nov_01_1101,60.0035219192,MAFE4ImagesEEG,001,202181,
AFNE01.JPG,AFNE01.JPG,AFNE01.JPG,AFNE01.JPG,AFNE01.JPG,AFNE01.JPG,,,,,,,,,,,,,5,5,55,4,,,,,,,,,,,AFNE14.jpg,AFNE07.jpg,AFSA08.jpg,AFSA17.jpg,AFNE14.jpg,FN,3,num_8,16,num_8,2.46669040155,,,2017_Nov_01_1101,60.0035219192,MAFE4ImagesEEG,001,202181,
AFNE01.JPG,AFNE01.JPG,AFNE01.JPG,AFNE01.JPG,AFNE01.JPG,AFNE01.JPG,,,,,,,,,,,,,5,6,56,2,,,,,,,,,,,AFSA20.jpg,AFNE04.jpg,AFNE05.jpg,AFSA02.jpg,AFNE05.jpg,FN,3,num_2,32,num_8,1.91688228375,,,2017_Nov_01_1101,60.0035219192,MAFE4ImagesEEG,001,202181,
AFNE01.JPG,AFNE01.JPG,AFNE01.JPG,AFNE01.JPG,AFNE01.JPG,AFNE01.JPG,,,,,,,,,,,,,5,7,57,9,,,,,,,,,,,AFNE01.jpg,AFSA07.jpg,AFNE05.jpg,AFSA19.jpg,AFNE05.jpg,FN,3,num_2,32,num_6,4.33321273536,,,2017_Nov_01_1101,60.0035219192,MAFE4ImagesEEG,001,202181,
AFNE01.JPG,AFNE01.JPG,AFNE01.JPG,AFNE01.JPG,AFNE01.JPG,AFNE01.JPG,,,,,,,,,,,,,5,8,58,3,,,,,,,,,,,AFSA11.jpg,AFSA14.jpg,AFNE16.jpg,AFNE04.jpg,AFSA11.jpg,FS,4,num_8,32,num_2,3.58326253016,,,2017_Nov_01_1101,60.0035219192,MAFE4ImagesEEG,001,202181,
AFNE01.JPG,AFNE01.JPG,AFNE01.JPG,AFNE01.JPG,AFNE01.JPG,AFNE01.JPG,,,,,,,,,,,,,5,9,59,0,,,,,,,,,,,AFNE19.jpg,AFSA11.jpg,AFNE01.jpg,AFSA19.jpg,AFSA11.jpg,FS,4,num_6,16,num_6,0.583574288758,,,2017_Nov_01_1101,60.0035219192,MAFE4ImagesEEG,001,202181,
,,,,,,,,,,,,,,,,,,,,,,,,,,,,,,,,,,,,,,,,,,,space,3.49992382433,2017_Nov_01_1101,60.0035219192,MAFE4ImagesEEG,001,202181,
AFNE01.JPG,AFNE01.JPG,AFNE01.JPG,AFNE01.JPG,AFNE01.JPG,AFNE01.JPG,,,,,,,,,,,,,,,,,0,0,0,1,,,,,,,AMSA15.jpg,AMNE09.jpg,AMNE15.jpg,AMSA12.jpg,AMNE09.jpg,MN,1,num_6,16,num_6,1.1834726145,,,2017_Nov_01_1101,60.0035219192,MAFE4ImagesEEG,001,202181,
AFNE01.JPG,AFNE01.JPG,AFNE01.JPG,AFNE01.JPG,AFNE01.JPG,AFNE01.JPG,,,,,,,,,,,,,,,,,0,1,1,2,,,,,,,AMNE19.jpg,AMNE02.jpg,AMSA11.jpg,AMSA08.jpg,AMNE02.jpg,MN,1,num_6,16,num_6,0.450222994201,,,2017_Nov_01_1101,60.0035219192,MAFE4ImagesEEG,001,202181,
AFNE01.JPG,AFNE01.JPG,AFNE01.JPG,AFNE01.JPG,AFNE01.JPG,AFNE01.JPG,,,,,,,,,,,,,,,,,0,2,2,9,,,,,,,AMNE05.jpg,AMNE15.jpg,AMSA08.jpg,AMSA05.jpg,AMSA08.jpg,MS,2,num_2,16,num_2,1.43306118599,,,2017_Nov_01_1101,60.0035219192,MAFE4ImagesEEG,001,202181,
AFNE01.JPG,AFNE01.JPG,AFNE01.JPG,AFNE01.JPG,AFNE01.JPG,AFNE01.JPG,,,,,,,,,,,,,,,,,0,3,3,4,,,,,,,AMNE19.jpg,AMSA03.jpg,AMNE17.jpg,AMSA12.jpg,AMNE17.jpg,MN,1,num_2,16,num_2,1.20007056277,,,2017_Nov_01_1101,60.0035219192,MAFE4ImagesEEG,001,202181,
AFNE01.JPG,AFNE01.JPG,AFNE01.JPG,AFNE01.JPG,AFNE01.JPG,AFNE01.JPG,,,,,,,,,,,,,,,,,0,4,4,6,,,,,,,AMSA19.jpg,AMSA13.jpg,AMNE11.jpg,AMNE17.jpg,AMNE17.jpg,MN,1,num_4,16,num_4,2.10002742312,,,2017_Nov_01_1101,60.0035219192,MAFE4ImagesEEG,001,202181,
AFNE01.JPG,AFNE01.JPG,AFNE01.JPG,AFNE01.JPG,AFNE01.JPG,AFNE01.JPG,,,,,,,,,,,,,,,,,0,5,5,8,,,,,,,AMNE19.jpg,AMNE14.jpg,AMSA11.jpg,AMSA13.jpg,AMNE14.jpg,MN,1,num_6,16,num_6,0.416799372761,,,2017_Nov_01_1101,60.0035219192,MAFE4ImagesEEG,001,202181,
AFNE01.JPG,AFNE01.JPG,AFNE01.JPG,AFNE01.JPG,AFNE01.JPG,AFNE01.JPG,,,,,,,,,,,,,,,,,0,6,6,5,,,,,,,AMNE08.jpg,AMSA07.jpg,AMSA17.jpg,AMNE10.jpg,AMSA17.jpg,MS,2,num_2,16,num_2,0.949597391766,,,2017_Nov_01_1101,60.0035219192,MAFE4ImagesEEG,001,202181,
AFNE01.JPG,AFNE01.JPG,AFNE01.JPG,AFNE01.JPG,AFNE01.JPG,AFNE01.JPG,,,,,,,,,,,,,,,,,0,7,7,7,,,,,,,AMNE15.jpg,AMSA02.jpg,AMSA16.jpg,AMNE17.jpg,AMNE17.jpg,MN,1,num_4,16,num_4,1.55009710393,,,2017_Nov_01_1101,60.0035219192,MAFE4ImagesEEG,001,202181,
AFNE01.JPG,AFNE01.JPG,AFNE01.JPG,AFNE01.JPG,AFNE01.JPG,AFNE01.JPG,,,,,,,,,,,,,,,,,0,8,8,0,,,,,,,AMSA16.jpg,AMNE08.jpg,AMSA12.jpg,AMNE10.jpg,AMSA16.jpg,MS,2,num_8,16,num_8,0.650105924346,,,2017_Nov_01_1101,60.0035219192,MAFE4ImagesEEG,001,202181,
AFNE01.JPG,AFNE01.JPG,AFNE01.JPG,AFNE01.JPG,AFNE01.JPG,AFNE01.JPG,,,,,,,,,,,,,,,,,0,9,9,3,,,,,,,AMNE01.jpg,AMNE17.jpg,AMSA20.jpg,AMSA10.jpg,AMNE01.jpg,MN,1,num_8,32,num_6,1.78340012743,,,2017_Nov_01_1101,60.0035219192,MAFE4ImagesEEG,001,202181,
AFNE01.JPG,AFNE01.JPG,AFNE01.JPG,AFNE01.JPG,AFNE01.JPG,AFNE01.JPG,,,,,,,,,,,,,,,,,1,0,10,5,,,,,,,AMSA13.jpg,AMNE16.jpg,AMNE12.jpg,AMSA17.jpg,AMSA13.jpg,MS,2,num_8,16,num_8,0.900101834675,,,2017_Nov_01_1101,60.0035219192,MAFE4ImagesEEG,001,202181,
AFNE01.JPG,AFNE01.JPG,AFNE01.JPG,AFNE01.JPG,AFNE01.JPG,AFNE01.JPG,,,,,,,,,,,,,,,,,1,1,11,9,,,,,,,AMSA08.jpg,AMNE02.jpg,AMSA12.jpg,AMNE13.jpg,AMSA12.jpg,MS,2,num_2,32,num_8,0.899970973143,,,2017_Nov_01_1101,60.0035219192,MAFE4ImagesEEG,001,202181,
AFNE01.JPG,AFNE01.JPG,AFNE01.JPG,AFNE01.JPG,AFNE01.JPG,AFNE01.JPG,,,,,,,,,,,,,,,,,1,2,12,0,,,,,,,AMSA20.jpg,AMSA05.jpg,AMNE17.jpg,AMNE16.jpg,AMSA20.jpg,MS,2,num_8,32,num_6,0.716761044227,,,2017_Nov_01_1101,60.0035219192,MAFE4ImagesEEG,001,202181,
AFNE01.JPG,AFNE01.JPG,AFNE01.JPG,AFNE01.JPG,AFNE01.JPG,AFNE01.JPG,,,,,,,,,,,,,,,,,1,3,13,6,,,,,,,AMNE17.jpg,AMSA05.jpg,AMSA12.jpg,AMNE07.jpg,AMSA12.jpg,MS,2,num_2,32,num_6,0.716781250667,,,2017_Nov_01_1101,60.0035219192,MAFE4ImagesEEG,001,202181,
AFNE01.JPG,AFNE01.JPG,AFNE01.JPG,AFNE01.JPG,AFNE01.JPG,AFNE01.JPG,,,,,,,,,,,,,,,,,1,4,14,1,,,,,,,AMNE02.jpg,AMSA19.jpg,AMSA12.jpg,AMNE03.jpg,AMNE02.jpg,MN,1,num_8,32,num_4,1.10008868435,,,2017_Nov_01_1101,60.0035219192,MAFE4ImagesEEG,001,202181,
AFNE01.JPG,AFNE01.JPG,AFNE01.JPG,AFNE01.JPG,AFNE01.JPG,AFNE01.JPG,,,,,,,,,,,,,,,,,1,5,15,3,,,,,,,AMNE06.jpg,AMNE01.jpg,AMSA15.jpg,AMSA12.jpg,AMSA12.jpg,MS,2,num_4,16,num_4,0.800160048995,,,2017_Nov_01_1101,60.0035219192,MAFE4ImagesEEG,001,202181,
AFNE01.JPG,AFNE01.JPG,AFNE01.JPG,AFNE01.JPG,AFNE01.JPG,AFNE01.JPG,,,,,,,,,,,,,,,,,1,6,16,7,,,,,,,AMSA07.jpg,AMSA16.jpg,AMNE02.jpg,AMNE16.jpg,AMNE02.jpg,MN,1,num_2,16,num_2,1.31669657561,,,2017_Nov_01_1101,60.0035219192,MAFE4ImagesEEG,001,202181,
AFNE01.JPG,AFNE01.JPG,AFNE01.JPG,AFNE01.JPG,AFNE01.JPG,AFNE01.JPG,,,,,,,,,,,,,,,,,1,7,17,2,,,,,,,AMSA01.jpg,AMNE06.jpg,AMNE04.jpg,AMSA05.jpg,AMSA01.jpg,MS,2,num_8,32,num_6,4.83328249631,,,2017_Nov_01_1101,60.0035219192,MAFE4ImagesEEG,001,202181,
AFNE01.JPG,AFNE01.JPG,AFNE01.JPG,AFNE01.JPG,AFNE01.JPG,AFNE01.JPG,,,,,,,,,,,,,,,,,1,8,18,4,,,,,,,AMSA10.jpg,AMSA17.jpg,AMNE03.jpg,AMNE07.jpg,AMNE03.jpg,MN,1,num_2,32,num_6,1.2334380548,,,2017_Nov_01_1101,60.0035219192,MAFE4ImagesEEG,001,202181,
AFNE01.JPG,AFNE01.JPG,AFNE01.JPG,AFNE01.JPG,AFNE01.JPG,AFNE01.JPG,,,,,,,,,,,,,,,,,1,9,19,8,,,,,,,AMSA01.jpg,AMNE16.jpg,AMSA14.jpg,AMNE01.jpg,AMNE16.jpg,MN,1,num_6,16,num_6,0.983449200401,,,2017_Nov_01_1101,60.0035219192,MAFE4ImagesEEG,001,202181,
AFNE01.JPG,AFNE01.JPG,AFNE01.JPG,AFNE01.JPG,AFNE01.JPG,AFNE01.JPG,,,,,,,,,,,,,,,,,2,0,20,1,,,,,,,AMSA04.jpg,AMNE03.jpg,AMSA11.jpg,AMNE17.jpg,AMNE17.jpg,MN,1,num_4,16,num_4,1.2667420404,,,2017_Nov_01_1101,60.0035219192,MAFE4ImagesEEG,001,202181,
AFNE01.JPG,AFNE01.JPG,AFNE01.JPG,AFNE01.JPG,AFNE01.JPG,AFNE01.JPG,,,,,,,,,,,,,,,,,2,1,21,6,,,,,,,AMNE16.jpg,AMNE18.jpg,AMSA09.jpg,AMSA11.jpg,AMNE18.jpg,MN,1,num_6,32,num_8,1.35014008312,,,2017_Nov_01_1101,60.0035219192,MAFE4ImagesEEG,001,202181,
AFNE01.JPG,AFNE01.JPG,AFNE01.JPG,AFNE01.JPG,AFNE01.JPG,AFNE01.JPG,,,,,,,,,,,,,,,,,2,2,22,7,,,,,,,AMNE01.jpg,AMNE06.jpg,AMSA03.jpg,AMSA02.jpg,AMSA02.jpg,MS,2,num_4,32,num_2,1.71669497178,,,2017_Nov_01_1101,60.0035219192,MAFE4ImagesEEG,001,202181,
AFNE01.JPG,AFNE01.JPG,AFNE01.JPG,AFNE01.JPG,AFNE01.JPG,AFNE01.JPG,,,,,,,,,,,,,,,,,2,3,23,0,,,,,,,AMSA06.jpg,AMSA16.jpg,AMNE05.jpg,AMNE19.jpg,AMSA16.jpg,MS,2,num_6,16,num_6,0.699990217574,,,2017_Nov_01_1101,60.0035219192,MAFE4ImagesEEG,001,202181,
AFNE01.JPG,AFNE01.JPG,AFNE01.JPG,AFNE01.JPG,AFNE01.JPG,AFNE01.JPG,,,,,,,,,,,,,,,,,2,4,24,4,,,,,,,AMSA07.jpg,AMSA20.jpg,AMNE20.jpg,AMNE18.jpg,AMNE20.jpg,MN,1,num_2,32,num_4,1.18347999151,,,2017_Nov_01_1101,60.0035219192,MAFE4ImagesEEG,001,202181,
AFNE01.JPG,AFNE01.JPG,AFNE01.JPG,AFNE01.JPG,AFNE01.JPG,AFNE01.JPG,,,,,,,,,,,,,,,,,2,5,25,9,,,,,,,AMNE17.jpg,AMNE18.jpg,AMSA13.jpg,AMSA15.jpg,AMNE17.jpg,MN,1,num_8,32,num_6,1.18321377761,,,2017_Nov_01_1101,60.0035219192,MAFE4ImagesEEG,001,202181,
AFNE01.JPG,AFNE01.JPG,AFNE01.JPG,AFNE01.JPG,AFNE01.JPG,AFNE01.JPG,,,,,,,,,,,,,,,,,2,6,26,2,,,,,,,AMSA04.jpg,AMSA15.jpg,AMNE18.jpg,AMNE05.jpg,AMNE05.jpg,MN,1,num_4,32,num_2,1.9836483798,,,2017_Nov_01_1101,60.0035219192,MAFE4ImagesEEG,001,202181,
AFNE01.JPG,AFNE01.JPG,AFNE01.JPG,AFNE01.JPG,AFNE01.JPG,AFNE01.JPG,,,,,,,,,,,,,,,,,2,7,27,5,,,,,,,AMSA16.jpg,AMNE04.jpg,AMNE18.jpg,AMSA20.jpg,AMSA20.jpg,MS,2,num_4,16,num_4,0.633513107896,,,2017_Nov_01_1101,60.0035219192,MAFE4ImagesEEG,001,202181,
AFNE01.JPG,AFNE01.JPG,AFNE01.JPG,AFNE01.JPG,AFNE01.JPG,AFNE01.JPG,,,,,,,,,,,,,,,,,2,8,28,8,,,,,,,AMSA08.jpg,AMNE01.jpg,AMSA02.jpg,AMNE19.jpg,AMNE19.jpg,MN,1,num_4,32,num_2,1.13343083812,,,2017_Nov_01_1101,60.0035219192,MAFE4ImagesEEG,001,202181,
AFNE01.JPG,AFNE01.JPG,AFNE01.JPG,AFNE01.JPG,AFNE01.JPG,AFNE01.JPG,,,,,,,,,,,,,,,,,2,9,29,3,,,,,,,AMSA14.jpg,AMSA07.jpg,AMNE03.jpg,AMNE13.jpg,AMNE13.jpg,MN,1,num_4,16,num_4,1.50017785002,,,2017_Nov_01_1101,60.0035219192,MAFE4ImagesEEG,001,202181,
AFNE01.JPG,AFNE01.JPG,AFNE01.JPG,AFNE01.JPG,AFNE01.JPG,AFNE01.JPG,,,,,,,,,,,,,,,,,3,0,30,1,,,,,,,AMNE10.jpg,AMSA20.jpg,AMNE07.jpg,AMSA13.jpg,AMSA13.jpg,MS,2,num_4,16,num_4,0.666760643246,,,2017_Nov_01_1101,60.0035219192,MAFE4ImagesEEG,001,202181,
AFNE01.JPG,AFNE01.JPG,AFNE01.JPG,AFNE01.JPG,AFNE01.JPG,AFNE01.JPG,,,,,,,,,,,,,,,,,3,1,31,0,,,,,,,AMNE04.jpg,AMNE02.jpg,AMSA15.jpg,AMSA12.jpg,AMNE02.jpg,MN,1,num_6,16,num_6,1.11671165028,,,2017_Nov_01_1101,60.0035219192,MAFE4ImagesEEG,001,202181,
AFNE01.JPG,AFNE01.JPG,AFNE01.JPG,AFNE01.JPG,AFNE01.JPG,AFNE01.JPG,,,,,,,,,,,,,,,,,3,2,32,3,,,,,,,AMSA15.jpg,AMNE15.jpg,AMSA04.jpg,AMNE09.jpg,AMNE09.jpg,MN,1,num_4,32,num_6,1.06661085808,,,2017_Nov_01_1101,60.0035219192,MAFE4ImagesEEG,001,202181,
AFNE01.JPG,AFNE01.JPG,AFNE01.JPG,AFNE01.JPG,AFNE01.JPG,AFNE01.JPG,,,,,,,,,,,,,,,,,3,3,33,6,,,,,,,AMSA08.jpg,AMSA20.jpg,AMNE02.jpg,AMNE20.jpg,AMSA08.jpg,MS,2,num_8,32,num_4,1.65006102063,,,2017_Nov_01_1101,60.0035219192,MAFE4ImagesEEG,001,202181,
AFNE01.JPG,AFNE01.JPG,AFNE01.JPG,AFNE01.JPG,AFNE01.JPG,AFNE01.JPG,,,,,,,,,,,,,,,,,3,4,34,8,,,,,,,AMNE20.jpg,AMNE18.jpg,AMSA18.jpg,AMSA11.jpg,AMNE18.jpg,MN,1,num_6,16,num_6,1.31673378148,,,2017_Nov_01_1101,60.0035219192,MAFE4ImagesEEG,001,202181,
AFNE01.JPG,AFNE01.JPG,AFNE01.JPG,AFNE01.JPG,AFNE01.JPG,AFNE01.JPG,,,,,,,,,,,,,,,,,3,5,35,5,,,,,,,AMNE07.jpg,AMSA18.jpg,AMNE20.jpg,AMSA12.jpg,AMSA12.jpg,MS,2,num_4,32,num_6,0.833463393152,,,2017_Nov_01_1101,60.0035219192,MAFE4ImagesEEG,001,202181,
AFNE01.JPG,AFNE01.JPG,AFNE01.JPG,AFNE01.JPG,AFNE01.JPG,AFNE01.JPG,,,,,,,,,,,,,,,,,3,6,36,2,,,,,,,AMSA13.jpg,AMNE11.jpg,AMSA02.jpg,AMNE18.jpg,AMNE18.jpg,MN,1,num_4,16,num_4,1.40041375393,,,2017_Nov_01_1101,60.0035219192,MAFE4ImagesEEG,001,202181,
AFNE01.JPG,AFNE01.JPG,AFNE01.JPG,AFNE01.JPG,AFNE01.JPG,AFNE01.JPG,,,,,,,,,,,,,,,,,3,7,37,4,,,,,,,AMNE09.jpg,AMNE16.jpg,AMSA15.jpg,AMSA05.jpg,AMNE16.jpg,MN,1,num_6,16,num_6,2.78316149721,,,2017_Nov_01_1101,60.0035219192,MAFE4ImagesEEG,001,202181,
AFNE01.JPG,AFNE01.JPG,AFNE01.JPG,AFNE01.JPG,AFNE01.JPG,AFNE01.JPG,,,,,,,,,,,,,,,,,3,8,38,9,,,,,,,AMNE14.jpg,AMSA17.jpg,AMNE03.jpg,AMSA12.jpg,AMNE14.jpg,MN,1,num_8,32,num_2,1.93338016141,,,2017_Nov_01_1101,60.0035219192,MAFE4ImagesEEG,001,202181,
AFNE01.JPG,AFNE01.JPG,AFNE01.JPG,AFNE01.JPG,AFNE01.JPG,AFNE01.JPG,,,,,,,,,,,,,,,,,3,9,39,7,,,,,,,AMNE19.jpg,AMSA19.jpg,AMNE07.jpg,AMSA14.jpg,AMNE19.jpg,MN,1,num_8,32,num_6,0.433539408492,,,2017_Nov_01_1101,60.0035219192,MAFE4ImagesEEG,001,202181,
AFNE01.JPG,AFNE01.JPG,AFNE01.JPG,AFNE01.JPG,AFNE01.JPG,AFNE01.JPG,,,,,,,,,,,,,,,,,4,0,40,1,,,,,,,AMNE16.jpg,AMSA03.jpg,AMNE10.jpg,AMSA10.jpg,AMSA10.jpg,MS,2,num_4,32,num_6,3.349934489,,,2017_Nov_01_1101,60.0035219192,MAFE4ImagesEEG,001,202181,
AFNE01.JPG,AFNE01.JPG,AFNE01.JPG,AFNE01.JPG,AFNE01.JPG,AFNE01.JPG,,,,,,,,,,,,,,,,,4,1,41,5,,,,,,,AMNE20.jpg,AMSA12.jpg,AMNE13.jpg,AMSA20.jpg,AMNE13.jpg,MN,1,num_2,16,num_2,1.28346251114,,,2017_Nov_01_1101,60.0035219192,MAFE4ImagesEEG,001,202181,
AFNE01.JPG,AFNE01.JPG,AFNE01.JPG,AFNE01.JPG,AFNE01.JPG,AFNE01.JPG,,,,,,,,,,,,,,,,,4,2,42,2,,,,,,,AMSA09.jpg,AMSA19.jpg,AMNE10.jpg,AMNE11.jpg,AMNE11.jpg,MN,1,num_4,16,num_4,1.43339090608,,,2017_Nov_01_1101,60.0035219192,MAFE4ImagesEEG,001,202181,
AFNE01.JPG,AFNE01.JPG,AFNE01.JPG,AFNE01.JPG,AFNE01.JPG,AFNE01.JPG,,,,,,,,,,,,,,,,,4,3,43,3,,,,,,,AMNE07.jpg,AMSA10.jpg,AMNE16.jpg,AMSA05.jpg,AMNE16.jpg,MN,1,num_2,16,num_2,1.18311915966,,,2017_Nov_01_1101,60.0035219192,MAFE4ImagesEEG,001,202181,
AFNE01.JPG,AFNE01.JPG,AFNE01.JPG,AFNE01.JPG,AFNE01.JPG,AFNE01.JPG,,,,,,,,,,,,,,,,,4,4,44,4,,,,,,,AMNE16.jpg,AMSA09.jpg,AMNE03.jpg,AMSA16.jpg,AMSA09.jpg,MS,2,num_6,16,num_6,0.833444790449,,,2017_Nov_01_1101,60.0035219192,MAFE4ImagesEEG,001,202181,
AFNE01.JPG,AFNE01.JPG,AFNE01.JPG,AFNE01.JPG,AFNE01.JPG,AFNE01.JPG,,,,,,,,,,,,,,,,,4,5,45,0,,,,,,,AMNE11.jpg,AMNE07.jpg,AMSA15.jpg,AMSA01.jpg,AMSA01.jpg,MS,2,num_4,32,num_6,1.35003648419,,,2017_Nov_01_1101,60.0035219192,MAFE4ImagesEEG,001,202181,
AFNE01.JPG,AFNE01.JPG,AFNE01.JPG,AFNE01.JPG,AFNE01.JPG,AFNE01.JPG,,,,,,,,,,,,,,,,,4,6,46,9,,,,,,,AMSA19.jpg,AMNE13.jpg,AMSA16.jpg,AMNE10.jpg,AMNE13.jpg,MN,1,num_6,32,num_4,1.10010857042,,,2017_Nov_01_1101,60.0035219192,MAFE4ImagesEEG,001,202181,
AFNE01.JPG,AFNE01.JPG,AFNE01.JPG,AFNE01.JPG,AFNE01.JPG,AFNE01.JPG,,,,,,,,,,,,,,,,,4,7,47,6,,,,,,,AMSA11.jpg,AMNE06.jpg,AMNE17.jpg,AMSA12.jpg,AMSA12.jpg,MS,2,num_4,32,num_6,2.15001018345,,,2017_Nov_01_1101,60.0035219192,MAFE4ImagesEEG,001,202181,
AFNE01.JPG,AFNE01.JPG,AFNE01.JPG,AFNE01.JPG,AFNE01.JPG,AFNE01.JPG,,,,,,,,,,,,,,,,,4,8,48,7,,,,,,,AMSA08.jpg,AMSA07.jpg,AMNE15.jpg,AMNE04.jpg,AMNE04.jpg,MN,1,num_4,16,num_4,0.9334337248,,,2017_Nov_01_1101,60.0035219192,MAFE4ImagesEEG,001,202181,
AFNE01.JPG,AFNE01.JPG,AFNE01.JPG,AFNE01.JPG,AFNE01.JPG,AFNE01.JPG,,,,,,,,,,,,,,,,,4,9,49,8,,,,,,,AMSA19.jpg,AMSA12.jpg,AMNE13.jpg,AMNE05.jpg,AMNE05.jpg,MN,1,num_4,32,num_2,1.10010600439,,,2017_Nov_01_1101,60.0035219192,MAFE4ImagesEEG,001,202181,
AFNE01.JPG,AFNE01.JPG,AFNE01.JPG,AFNE01.JPG,AFNE01.JPG,AFNE01.JPG,,,,,,,,,,,,,,,,,5,0,50,2,,,,,,,AMNE18.jpg,AMSA15.jpg,AMNE19.jpg,AMSA02.jpg,AMSA15.jpg,MS,2,num_6,16,num_6,0.900082269683,,,2017_Nov_01_1101,60.0035219192,MAFE4ImagesEEG,001,202181,
AFNE01.JPG,AFNE01.JPG,AFNE01.JPG,AFNE01.JPG,AFNE01.JPG,AFNE01.JPG,,,,,,,,,,,,,,,,,5,1,51,0,,,,,,,AMNE03.jpg,AMSA15.jpg,AMNE17.jpg,AMSA19.jpg,AMNE03.jpg,MN,1,num_8,32,num_2,0.866589047713,,,2017_Nov_01_1101,60.0035219192,MAFE4ImagesEEG,001,202181,
AFNE01.JPG,AFNE01.JPG,AFNE01.JPG,AFNE01.JPG,AFNE01.JPG,AFNE01.JPG,,,,,,,,,,,,,,,,,5,2,52,1,,,,,,,AMNE03.jpg,AMSA07.jpg,AMSA05.jpg,AMNE13.jpg,AMSA07.jpg,MS,2,num_6,32,num_2,2.30000240542,,,2017_Nov_01_1101,60.0035219192,MAFE4ImagesEEG,001,202181,
AFNE01.JPG,AFNE01.JPG,AFNE01.JPG,AFNE01.JPG,AFNE01.JPG,AFNE01.JPG,,,,,,,,,,,,,,,,,5,3,53,3,,,,,,,AMSA16.jpg,AMNE16.jpg,AMSA04.jpg,AMNE14.jpg,AMSA04.jpg,MS,2,num_2,16,num_2,0.650130300317,,,2017_Nov_01_1101,60.0035219192,MAFE4ImagesEEG,001,202181,
AFNE01.JPG,AFNE01.JPG,AFNE01.JPG,AFNE01.JPG,AFNE01.JPG,AFNE01.JPG,,,,,,,,,,,,,,,,,5,4,54,5,,,,,,,AMSA09.jpg,AMSA07.jpg,AMNE06.jpg,AMNE07.jpg,AMNE07.jpg,MN,1,num_4,16,num_4,1.08345385105,,,2017_Nov_01_1101,60.0035219192,MAFE4ImagesEEG,001,202181,
AFNE01.JPG,AFNE01.JPG,AFNE01.JPG,AFNE01.JPG,AFNE01.JPG,AFNE01.JPG,,,,,,,,,,,,,,,,,5,5,55,7,,,,,,,AMNE07.jpg,AMSA17.jpg,AMNE19.jpg,AMSA13.jpg,AMNE07.jpg,MN,1,num_8,32,num_6,0.566808273084,,,2017_Nov_01_1101,60.0035219192,MAFE4ImagesEEG,001,202181,
AFNE01.JPG,AFNE01.JPG,AFNE01.JPG,AFNE01.JPG,AFNE01.JPG,AFNE01.JPG,,,,,,,,,,,,,,,,,5,6,56,9,,,,,,,AMSA19.jpg,AMNE14.jpg,AMSA13.jpg,AMNE07.jpg,AMNE07.jpg,MN,1,num_4,16,num_4,1.73341865023,,,2017_Nov_01_1101,60.0035219192,MAFE4ImagesEEG,001,202181,
AFNE01.JPG,AFNE01.JPG,AFNE01.JPG,AFNE01.JPG,AFNE01.JPG,AFNE01.JPG,,,,,,,,,,,,,,,,,5,7,57,8,,,,,,,AMNE11.jpg,AMNE20.jpg,AMSA03.jpg,AMSA17.jpg,AMNE20.jpg,MN,1,num_6,32,num_8,1.0501335077,,,2017_Nov_01_1101,60.0035219192,MAFE4ImagesEEG,001,202181,
AFNE01.JPG,AFNE01.JPG,AFNE01.JPG,AFNE01.JPG,AFNE01.JPG,AFNE01.JPG,,,,,,,,,,,,,,,,,5,8,58,4,,,,,,,AMSA16.jpg,AMNE12.jpg,AMSA07.jpg,AMNE16.jpg,AMNE12.jpg,MN,1,num_6,32,num_2,0.233501240611,,,2017_Nov_01_1101,60.0035219192,MAFE4ImagesEEG,001,202181,
AFNE01.JPG,AFNE01.JPG,AFNE01.JPG,AFNE01.JPG,AFNE01.JPG,AFNE01.JPG,,,,,,,,,,,,,,,,,5,9,59,6,,,,,,,AMNE20.jpg,AMNE02.jpg,AMSA07.jpg,AMSA12.jpg,AMSA07.jpg,MS,2,num_2,16,num_2,0.316801778041,,,2017_Nov_01_1101,60.0035219192,MAFE4ImagesEEG,001,202181,
,,,,,,,,,,,,,,,,,,,,,,,,,,,,,,,,,,,,,,,,,,,space,1.60001218808,2017_Nov_01_1101,60.0035219192,MAFE4ImagesEEG,001,202181,
AFNE01.JPG,AFNE01.JPG,AFNE01.JPG,AFNE01.JPG,AFNE01.JPG,AFNE01.JPG,,,,,,,,,,,,,,,,,,,,,0,0,0,4,,,AFSA14.jpg,AFSA18.jpg,AFNE05.jpg,AFNE06.jpg,AFSA14.jpg,FS,4,num_8,16,num_8,0.600135031389,,,2017_Nov_01_1101,60.0035219192,MAFE4ImagesEEG,001,202181,
AFNE01.JPG,AFNE01.JPG,AFNE01.JPG,AFNE01.JPG,AFNE01.JPG,AFNE01.JPG,,,,,,,,,,,,,,,,,,,,,0,1,1,9,,,AFSA14.jpg,AFNE17.jpg,AFNE20.jpg,AFSA05.jpg,AFSA14.jpg,FS,4,num_8,32,num_6,0.300169831375,,,2017_Nov_01_1101,60.0035219192,MAFE4ImagesEEG,001,202181,
AFNE01.JPG,AFNE01.JPG,AFNE01.JPG,AFNE01.JPG,AFNE01.JPG,AFNE01.JPG,,,,,,,,,,,,,,,,,,,,,0,2,2,8,,,AFSA17.jpg,AFNE19.jpg,AFSA02.jpg,AFNE07.jpg,AFNE07.jpg,FN,3,num_4,16,num_4,1.10009991028,,,2017_Nov_01_1101,60.0035219192,MAFE4ImagesEEG,001,202181,
AFNE01.JPG,AFNE01.JPG,AFNE01.JPG,AFNE01.JPG,AFNE01.JPG,AFNE01.JPG,,,,,,,,,,,,,,,,,,,,,0,3,3,0,,,AFNE18.jpg,AFSA09.jpg,AFSA10.jpg,AFNE01.jpg,AFSA10.jpg,FS,4,num_2,16,num_2,0.749959185952,,,2017_Nov_01_1101,60.0035219192,MAFE4ImagesEEG,001,202181,
AFNE01.JPG,AFNE01.JPG,AFNE01.JPG,AFNE01.JPG,AFNE01.JPG,AFNE01.JPG,,,,,,,,,,,,,,,,,,,,,0,4,4,3,,,AFNE12.jpg,AFSA10.jpg,AFNE08.jpg,AFSA19.jpg,AFSA19.jpg,FS,4,num_4,16,num_4,0.600140483817,,,2017_Nov_01_1101,60.0035219192,MAFE4ImagesEEG,001,202181,
AFNE01.JPG,AFNE01.JPG,AFNE01.JPG,AFNE01.JPG,AFNE01.JPG,AFNE01.JPG,,,,,,,,,,,,,,,,,,,,,0,5,5,7,,,AFSA09.jpg,AFSA08.jpg,AFNE09.jpg,AFNE14.jpg,AFSA08.jpg,FS,4,num_6,16,num_6,0.499804509105,,,2017_Nov_01_1101,60.0035219192,MAFE4ImagesEEG,001,202181,
AFNE01.JPG,AFNE01.JPG,AFNE01.JPG,AFNE01.JPG,AFNE01.JPG,AFNE01.JPG,,,,,,,,,,,,,,,,,,,,,0,6,6,2,,,AFSA09.jpg,AFNE16.jpg,AFSA20.jpg,AFNE20.jpg,AFNE16.jpg,FN,3,num_6,16,num_6,1.03350059898,,,2017_Nov_01_1101,60.0035219192,MAFE4ImagesEEG,001,202181,
AFNE01.JPG,AFNE01.JPG,AFNE01.JPG,AFNE01.JPG,AFNE01.JPG,AFNE01.JPG,,,,,,,,,,,,,,,,,,,,,0,7,7,6,,,AFSA18.jpg,AFNE13.jpg,AFSA09.jpg,AFNE04.jpg,AFSA09.jpg,FS,4,num_2,16,num_2,1.11678285454,,,2017_Nov_01_1101,60.0035219192,MAFE4ImagesEEG,001,202181,
AFNE01.JPG,AFNE01.JPG,AFNE01.JPG,AFNE01.JPG,AFNE01.JPG,AFNE01.JPG,,,,,,,,,,,,,,,,,,,,,0,8,8,1,,,AFSA01.jpg,AFNE15.jpg,AFSA09.jpg,AFNE14.jpg,AFSA01.jpg,FS,4,num_8,32,num_2,1.03340694308,,,2017_Nov_01_1101,60.0035219192,MAFE4ImagesEEG,001,202181,
AFNE01.JPG,AFNE01.JPG,AFNE01.JPG,AFNE01.JPG,AFNE01.JPG,AFNE01.JPG,,,,,,,,,,,,,,,,,,,,,0,9,9,5,,,AFNE18.jpg,AFSA11.jpg,AFNE17.jpg,AFSA09.jpg,AFSA09.jpg,FS,4,num_4,16,num_4,0.766838743351,,,2017_Nov_01_1101,60.0035219192,MAFE4ImagesEEG,001,202181,
AFNE01.JPG,AFNE01.JPG,AFNE01.JPG,AFNE01.JPG,AFNE01.JPG,AFNE01.JPG,,,,,,,,,,,,,,,,,,,,,1,0,10,8,,,AFSA14.jpg,AFNE16.jpg,AFNE14.jpg,AFSA10.jpg,AFNE16.jpg,FN,3,num_6,32,num_2,1.50009542005,,,2017_Nov_01_1101,60.0035219192,MAFE4ImagesEEG,001,202181,
AFNE01.JPG,AFNE01.JPG,AFNE01.JPG,AFNE01.JPG,AFNE01.JPG,AFNE01.JPG,,,,,,,,,,,,,,,,,,,,,1,1,11,5,,,AFNE08.jpg,AFNE01.jpg,AFSA14.jpg,AFSA01.jpg,AFSA01.jpg,FS,4,num_4,32,num_2,2.69997899164,,,2017_Nov_01_1101,60.0035219192,MAFE4ImagesEEG,001,202181,
AFNE01.JPG,AFNE01.JPG,AFNE01.JPG,AFNE01.JPG,AFNE01.JPG,AFNE01.JPG,,,,,,,,,,,,,,,,,,,,,1,2,12,9,,,AFNE05.jpg,AFSA03.jpg,AFSA18.jpg,AFNE06.jpg,AFNE05.jpg,FN,3,num_8,16,num_8,1.10008451482,,,2017_Nov_01_1101,60.0035219192,MAFE4ImagesEEG,001,202181,
AFNE01.JPG,AFNE01.JPG,AFNE01.JPG,AFNE01.JPG,AFNE01.JPG,AFNE01.JPG,,,,,,,,,,,,,,,,,,,,,1,3,13,7,,,AFNE03.jpg,AFSA07.jpg,AFSA17.jpg,AFNE09.jpg,AFSA17.jpg,FS,4,num_2,16,num_2,0.750157723669,,,2017_Nov_01_1101,60.0035219192,MAFE4ImagesEEG,001,202181,
AFNE01.JPG,AFNE01.JPG,AFNE01.JPG,AFNE01.JPG,AFNE01.JPG,AFNE01.JPG,,,,,,,,,,,,,,,,,,,,,1,4,14,4,,,AFNE08.jpg,AFSA09.jpg,AFNE13.jpg,AFSA15.jpg,AFSA15.jpg,FS,4,num_4,32,num_6,0.666793037904,,,2017_Nov_01_1101,60.0035219192,MAFE4ImagesEEG,001,202181,
AFNE01.JPG,AFNE01.JPG,AFNE01.JPG,AFNE01.JPG,AFNE01.JPG,AFNE01.JPG,,,,,,,,,,,,,,,,,,,,,1,5,15,1,,,AFNE12.jpg,AFNE07.jpg,AFSA10.jpg,AFSA17.jpg,AFSA10.jpg,FS,4,num_2,16,num_2,1.03344382811,,,2017_Nov_01_1101,60.0035219192,MAFE4ImagesEEG,001,202181,
AFNE01.JPG,AFNE01.JPG,AFNE01.JPG,AFNE01.JPG,AFNE01.JPG,AFNE01.JPG,,,,,,,,,,,,,,,,,,,,,1,6,16,0,,,AFNE02.jpg,AFSA10.jpg,AFSA18.jpg,AFNE06.jpg,AFSA10.jpg,FS,4,num_6,32,num_2,1.20007826039,,,2017_Nov_01_1101,60.0035219192,MAFE4ImagesEEG,001,202181,
AFNE01.JPG,AFNE01.JPG,AFNE01.JPG,AFNE01.JPG,AFNE01.JPG,AFNE01.JPG,,,,,,,,,,,,,,,,,,,,,1,7,17,2,,,AFSA02.jpg,AFNE02.jpg,AFNE19.jpg,AFSA19.jpg,AFNE19.jpg,FN,3,num_2,32,num_4,1.73338016123,,,2017_Nov_01_1101,60.0035219192,MAFE4ImagesEEG,001,202181,
AFNE01.JPG,AFNE01.JPG,AFNE01.JPG,AFNE01.JPG,AFNE01.JPG,AFNE01.JPG,,,,,,,,,,,,,,,,,,,,,1,8,18,3,,,AFNE20.jpg,AFNE19.jpg,AFSA14.jpg,AFSA12.jpg,AFNE20.jpg,FN,3,num_8,16,num_8,2.45040453272,,,2017_Nov_01_1101,60.0035219192,MAFE4ImagesEEG,001,202181,
AFNE01.JPG,AFNE01.JPG,AFNE01.JPG,AFNE01.JPG,AFNE01.JPG,AFNE01.JPG,,,,,,,,,,,,,,,,,,,,,1,9,19,6,,,AFNE05.jpg,AFNE15.jpg,AFSA20.jpg,AFSA19.jpg,AFSA19.jpg,FS,4,num_4,16,num_4,1.01673362101,,,2017_Nov_01_1101,60.0035219192,MAFE4ImagesEEG,001,202181,
AFNE01.JPG,AFNE01.JPG,AFNE01.JPG,AFNE01.JPG,AFNE01.JPG,AFNE01.JPG,,,,,,,,,,,,,,,,,,,,,2,0,20,1,,,AFSA13.jpg,AFNE02.jpg,AFNE03.jpg,AFSA09.jpg,AFSA09.jpg,FS,4,num_4,16,num_4,0.833468524972,,,2017_Nov_01_1101,60.0035219192,MAFE4ImagesEEG,001,202181,
AFNE01.JPG,AFNE01.JPG,AFNE01.JPG,AFNE01.JPG,AFNE01.JPG,AFNE01.JPG,,,,,,,,,,,,,,,,,,,,,2,1,21,5,,,AFNE04.jpg,AFNE15.jpg,AFSA16.jpg,AFSA17.jpg,AFSA16.jpg,FS,4,num_2,32,num_4,4.18315828964,,,2017_Nov_01_1101,60.0035219192,MAFE4ImagesEEG,001,202181,
AFNE01.JPG,AFNE01.JPG,AFNE01.JPG,AFNE01.JPG,AFNE01.JPG,AFNE01.JPG,,,,,,,,,,,,,,,,,,,,,2,2,22,6,,,AFSA08.jpg,AFNE06.jpg,AFSA05.jpg,AFNE14.jpg,AFNE06.jpg,FN,3,num_6,16,num_6,1.00009814627,,,2017_Nov_01_1101,60.0035219192,MAFE4ImagesEEG,001,202181,
AFNE01.JPG,AFNE01.JPG,AFNE01.JPG,AFNE01.JPG,AFNE01.JPG,AFNE01.JPG,,,,,,,,,,,,,,,,,,,,,2,3,23,4,,,AFSA16.jpg,AFNE18.jpg,AFSA15.jpg,AFNE15.jpg,AFSA15.jpg,FS,4,num_2,32,num_6,1.53340646182,,,2017_Nov_01_1101,60.0035219192,MAFE4ImagesEEG,001,202181,
AFNE01.JPG,AFNE01.JPG,AFNE01.JPG,AFNE01.JPG,AFNE01.JPG,AFNE01.JPG,,,,,,,,,,,,,,,,,,,,,2,4,24,9,,,AFSA07.jpg,AFNE08.jpg,AFNE16.jpg,AFSA20.jpg,AFNE16.jpg,FN,3,num_2,16,num_2,1.11672512139,,,2017_Nov_01_1101,60.0035219192,MAFE4ImagesEEG,001,202181,
AFNE01.JPG,AFNE01.JPG,AFNE01.JPG,AFNE01.JPG,AFNE01.JPG,AFNE01.JPG,,,,,,,,,,,,,,,,,,,,,2,5,25,2,,,AFSA17.jpg,AFSA14.jpg,AFNE19.jpg,AFNE09.jpg,AFSA14.jpg,FS,4,num_6,16,num_6,0.650119716069,,,2017_Nov_01_1101,60.0035219192,MAFE4ImagesEEG,001,202181,
AFNE01.JPG,AFNE01.JPG,AFNE01.JPG,AFNE01.JPG,AFNE01.JPG,AFNE01.JPG,,,,,,,,,,,,,,,,,,,,,2,6,26,8,,,AFNE18.jpg,AFSA10.jpg,AFSA17.jpg,AFNE06.jpg,AFSA10.jpg,FS,4,num_6,16,num_6,0.650123564759,,,2017_Nov_01_1101,60.0035219192,MAFE4ImagesEEG,001,202181,
AFNE01.JPG,AFNE01.JPG,AFNE01.JPG,AFNE01.JPG,AFNE01.JPG,AFNE01.JPG,,,,,,,,,,,,,,,,,,,,,2,7,27,3,,,AFNE02.jpg,AFNE06.jpg,AFSA18.jpg,AFSA15.jpg,AFNE02.jpg,FN,3,num_8,16,num_8,1.36674669106,,,2017_Nov_01_1101,60.0035219192,MAFE4ImagesEEG,001,202181,
AFNE01.JPG,AFNE01.JPG,AFNE01.JPG,AFNE01.JPG,AFNE01.JPG,AFNE01.JPG,,,,,,,,,,,,,,,,,,,,,2,8,28,0,,,AFSA12.jpg,AFNE07.jpg,AFNE18.jpg,AFSA05.jpg,AFSA05.jpg,FS,4,num_4,16,num_4,1.00015331339,,,2017_Nov_01_1101,60.0035219192,MAFE4ImagesEEG,001,202181,
AFNE01.JPG,AFNE01.JPG,AFNE01.JPG,AFNE01.JPG,AFNE01.JPG,AFNE01.JPG,,,,,,,,,,,,,,,,,,,,,2,9,29,7,,,AFSA15.jpg,AFNE10.jpg,AFNE04.jpg,AFSA11.jpg,AFSA11.jpg,FS,4,num_4,16,num_4,0.43347654352,,,2017_Nov_01_1101,60.0035219192,MAFE4ImagesEEG,001,202181,
AFNE01.JPG,AFNE01.JPG,AFNE01.JPG,AFNE01.JPG,AFNE01.JPG,AFNE01.JPG,,,,,,,,,,,,,,,,,,,,,3,0,30,6,,,AFNE14.jpg,AFSA20.jpg,AFSA08.jpg,AFNE11.jpg,AFSA08.jpg,FS,4,num_2,16,num_2,0.900112419156,,,2017_Nov_01_1101,60.0035219192,MAFE4ImagesEEG,001,202181,
AFNE01.JPG,AFNE01.JPG,AFNE01.JPG,AFNE01.JPG,AFNE01.JPG,AFNE01.JPG,,,,,,,,,,,,,,,,,,,,,3,1,31,1,,,AFNE20.jpg,AFNE11.jpg,AFSA08.jpg,AFSA18.jpg,AFSA08.jpg,FS,4,num_2,32,num_6,0.450024456484,,,2017_Nov_01_1101,60.0035219192,MAFE4ImagesEEG,001,202181,
AFNE01.JPG,AFNE01.JPG,AFNE01.JPG,AFNE01.JPG,AFNE01.JPG,AFNE01.JPG,,,,,,,,,,,,,,,,,,,,,3,2,32,0,,,AFNE15.jpg,AFNE19.jpg,AFSA03.jpg,AFSA18.jpg,AFNE19.jpg,FN,3,num_6,32,num_8,2.08340381598,,,2017_Nov_01_1101,60.0035219192,MAFE4ImagesEEG,001,202181,
AFNE01.JPG,AFNE01.JPG,AFNE01.JPG,AFNE01.JPG,AFNE01.JPG,AFNE01.JPG,,,,,,,,,,,,,,,,,,,,,3,3,33,2,,,AFSA10.jpg,AFNE17.jpg,AFSA03.jpg,AFNE10.jpg,AFNE10.jpg,FN,3,num_4,16,num_4,0.983495386783,,,2017_Nov_01_1101,60.0035219192,MAFE4ImagesEEG,001,202181,
AFNE01.JPG,AFNE01.JPG,AFNE01.JPG,AFNE01.JPG,AFNE01.JPG,AFNE01.JPG,,,,,,,,,,,,,,,,,,,,,3,4,34,3,,,AFNE03.jpg,AFNE10.jpg,AFSA05.jpg,AFSA06.jpg,AFNE10.jpg,FN,3,num_6,16,num_6,1.18350019795,,,2017_Nov_01_1101,60.0035219192,MAFE4ImagesEEG,001,202181,
AFNE01.JPG,AFNE01.JPG,AFNE01.JPG,AFNE01.JPG,AFNE01.JPG,AFNE01.JPG,,,,,,,,,,,,,,,,,,,,,3,5,35,7,,,AFSA09.jpg,AFNE08.jpg,AFSA15.jpg,AFNE15.jpg,AFSA09.jpg,FS,4,num_8,16,num_8,1.33341127308,,,2017_Nov_01_1101,60.0035219192,MAFE4ImagesEEG,001,202181,
AFNE01.JPG,AFNE01.JPG,AFNE01.JPG,AFNE01.JPG,AFNE01.JPG,AFNE01.JPG,,,,,,,,,,,,,,,,,,,,,3,6,36,9,,,AFNE10.jpg,AFNE11.jpg,AFSA08.jpg,AFSA11.jpg,AFNE11.jpg,FN,3,num_6,32,num_4,1.38339339173,,,2017_Nov_01_1101,60.0035219192,MAFE4ImagesEEG,001,202181,
AFNE01.JPG,AFNE01.JPG,AFNE01.JPG,AFNE01.JPG,AFNE01.JPG,AFNE01.JPG,,,,,,,,,,,,,,,,,,,,,3,7,37,5,,,AFSA02.jpg,AFNE19.jpg,AFNE05.jpg,AFSA03.jpg,AFSA02.jpg,FS,4,num_8,16,num_8,0.883519281866,,,2017_Nov_01_1101,60.0035219192,MAFE4ImagesEEG,001,202181,
AFNE01.JPG,AFNE01.JPG,AFNE01.JPG,AFNE01.JPG,AFNE01.JPG,AFNE01.JPG,,,,,,,,,,,,,,,,,,,,,3,8,38,4,,,AFNE14.jpg,AFNE20.jpg,AFSA03.jpg,AFSA05.jpg,AFNE14.jpg,FN,3,num_8,16,num_8,2.40000256593,,,2017_Nov_01_1101,60.0035219192,MAFE4ImagesEEG,001,202181,
AFNE01.JPG,AFNE01.JPG,AFNE01.JPG,AFNE01.JPG,AFNE01.JPG,AFNE01.JPG,,,,,,,,,,,,,,,,,,,,,3,9,39,8,,,AFSA05.jpg,AFNE17.jpg,AFSA06.jpg,AFNE15.jpg,AFNE17.jpg,FN,3,num_6,16,num_6,0.700110494858,,,2017_Nov_01_1101,60.0035219192,MAFE4ImagesEEG,001,202181,
