IPosition2,IPosition3,IPosition1,IPosition6,IPosition4,IPosition5,TrialsM1.thisRepN,TrialsM1.thisTrialN,TrialsM1.thisN,TrialsM1.thisIndex,TrialsF1.thisRepN,TrialsF1.thisTrialN,TrialsF1.thisN,TrialsF1.thisIndex,TrialsM2.thisRepN,TrialsM2.thisTrialN,TrialsM2.thisN,TrialsM2.thisIndex,TrialsF2.thisRepN,TrialsF2.thisTrialN,TrialsF2.thisN,TrialsF2.thisIndex,TrialsM3.thisRepN,TrialsM3.thisTrialN,TrialsM3.thisN,TrialsM3.thisIndex,TrialsF3.thisRepN,TrialsF3.thisTrialN,TrialsF3.thisN,TrialsF3.thisIndex,InstrKey_resp.keys,InstrKey_resp.rt,Image0 _Position,Image1 _Position,Image2 _Position,Image3 _Position,Center_image,condition,code,correct_answer,accuracy,Key_Resp.keys,Key_Resp.rt,BreakKey_resp.keys,BreakKey_resp.rt,date,frameRate,expName,session,participant,
,,,,,,,,,,,,,,,,,,,,,,,,,,,,,,space,8.0329094762,,,,,,,,,,,,,,2017_Nov_10_1723,60.0046766842,MAFE4ImagesEEG,001,202296,
AMSA25.JPG,AMNE24.JPG,AMSA24.JPG,AMNE26.JPG,AMSA21.JPG,AMNE25.JPG,0,0,0,3,,,,,,,,,,,,,,,,,,,,,,,AMSA04.jpg,AMNE04.jpg,AMNE11.jpg,AMSA07.jpg,AMNE11.jpg,MN,1,num_2,32,num_4,0.800124767236,,,2017_Nov_10_1723,60.0046766842,MAFE4ImagesEEG,001,202296,
AMSA21.JPG,AMNE23.JPG,AMNE21.JPG,AMSA25.JPG,AMNE25.JPG,AMSA23.JPG,0,1,1,5,,,,,,,,,,,,,,,,,,,,,,,AMSA16.jpg,AMSA17.jpg,AMNE16.jpg,AMNE03.jpg,AMNE03.jpg,MN,1,num_4,32,num_8,0.750148422085,,,2017_Nov_10_1723,60.0046766842,MAFE4ImagesEEG,001,202296,
AMNE23.JPG,AMNE24.JPG,AMNE22.JPG,AMSA24.JPG,AMSA22.JPG,AMSA23.JPG,0,2,2,9,,,,,,,,,,,,,,,,,,,,,,,AMNE01.jpg,AMNE14.jpg,AMSA14.jpg,AMSA17.jpg,AMNE01.jpg,MN,1,num_8,16,num_8,1.16675952077,,,2017_Nov_10_1723,60.0046766842,MAFE4ImagesEEG,001,202296,
AFNE22.JPG,AFSA24.JPG,AFSA22.JPG,AFNE25.JPG,AFNE24.JPG,AFSA25.JPG,0,3,3,6,,,,,,,,,,,,,,,,,,,,,,,AMNE14.jpg,AMSA07.jpg,AMNE13.jpg,AMSA06.jpg,AMNE13.jpg,MN,1,num_2,16,num_2,1.10009317473,,,2017_Nov_10_1723,60.0046766842,MAFE4ImagesEEG,001,202296,
AMSA21.JPG,AMNE22.JPG,AMNE21.JPG,AMSA23.JPG,AMSA22.JPG,AMNE23.JPG,0,4,4,1,,,,,,,,,,,,,,,,,,,,,,,AMNE15.jpg,AMSA17.jpg,AMNE18.jpg,AMSA06.jpg,AMNE18.jpg,MN,1,num_2,16,num_2,0.850388816558,,,2017_Nov_10_1723,60.0046766842,MAFE4ImagesEEG,001,202296,
AFNE23.JPG,AFNE24.JPG,AFNE22.JPG,AFSA24.JPG,AFSA22.JPG,AFSA23.JPG,0,5,5,8,,,,,,,,,,,,,,,,,,,,,,,AMNE06.jpg,AMNE04.jpg,AMSA12.jpg,AMSA16.jpg,AMSA12.jpg,MS,2,num_2,16,num_2,0.600120597985,,,2017_Nov_10_1723,60.0046766842,MAFE4ImagesEEG,001,202296,
AFSA21.JPG,AFNE22.JPG,AFNE21.JPG,AFSA23.JPG,AFSA22.JPG,AFNE23.JPG,0,6,6,0,,,,,,,,,,,,,,,,,,,,,,,AMNE16.jpg,AMNE12.jpg,AMSA03.jpg,AMSA20.jpg,AMNE16.jpg,MN,1,num_8,16,num_8,0.966745087411,,,2017_Nov_10_1723,60.0046766842,MAFE4ImagesEEG,001,202296,
AFSA25.JPG,AFNE24.JPG,AFSA24.JPG,AFNE21.JPG,AFSA21.JPG,AFNE25.JPG,0,7,7,2,,,,,,,,,,,,,,,,,,,,,,,AMNE10.jpg,AMSA11.jpg,AMSA09.jpg,AMNE05.jpg,AMNE05.jpg,MN,1,num_4,16,num_4,1.2834166456,,,2017_Nov_10_1723,60.0046766842,MAFE4ImagesEEG,001,202296,
AFSA21.JPG,AFNE23.JPG,AFNE21.JPG,AFSA25.JPG,AFNE25.JPG,AFSA23.JPG,0,8,8,4,,,,,,,,,,,,,,,,,,,,,,,AMSA04.jpg,AMSA16.jpg,AMNE02.jpg,AMNE11.jpg,AMNE11.jpg,MN,1,num_4,32,num_2,0.966888778377,,,2017_Nov_10_1723,60.0046766842,MAFE4ImagesEEG,001,202296,
AMNE22.JPG,AMSA24.JPG,AMSA22.JPG,AMNE25.JPG,AMNE24.JPG,AMSA25.JPG,0,9,9,7,,,,,,,,,,,,,,,,,,,,,,,AMNE19.jpg,AMSA18.jpg,AMSA13.jpg,AMNE05.jpg,AMSA13.jpg,MS,2,num_2,32,num_6,0.866749417502,,,2017_Nov_10_1723,60.0046766842,MAFE4ImagesEEG,001,202296,
AFNE22.JPG,AFSA24.JPG,AFSA22.JPG,AFNE25.JPG,AFNE24.JPG,AFSA25.JPG,,,,,0,0,0,6,,,,,,,,,,,,,,,,,,,AFSA07.jpg,AFNE08.jpg,AFNE12.jpg,AFSA14.jpg,AFSA14.jpg,FS,4,num_4,16,num_4,1.06680137711,,,2017_Nov_10_1723,60.0046766842,MAFE4ImagesEEG,001,202296,
AMSA25.JPG,AMNE24.JPG,AMSA24.JPG,AMNE26.JPG,AMSA21.JPG,AMNE25.JPG,,,,,0,1,1,3,,,,,,,,,,,,,,,,,,,AFNE02.jpg,AFNE01.jpg,AFSA07.jpg,AFSA12.jpg,AFNE01.jpg,FN,3,num_6,32,num_8,0.783466199879,,,2017_Nov_10_1723,60.0046766842,MAFE4ImagesEEG,001,202296,
AMNE23.JPG,AMNE24.JPG,AMNE22.JPG,AMSA24.JPG,AMSA22.JPG,AMSA23.JPG,,,,,0,2,2,9,,,,,,,,,,,,,,,,,,,AFSA12.jpg,AFNE06.jpg,AFSA15.jpg,AFNE05.jpg,AFSA15.jpg,FS,4,num_2,16,num_2,0.500175604597,,,2017_Nov_10_1723,60.0046766842,MAFE4ImagesEEG,001,202296,
AFSA25.JPG,AFNE24.JPG,AFSA24.JPG,AFNE21.JPG,AFSA21.JPG,AFNE25.JPG,,,,,0,3,3,2,,,,,,,,,,,,,,,,,,,AFSA02.jpg,AFNE08.jpg,AFNE02.jpg,AFSA19.jpg,AFNE02.jpg,FN,3,num_2,32,num_4,0.68343492737,,,2017_Nov_10_1723,60.0046766842,MAFE4ImagesEEG,001,202296,
AFNE23.JPG,AFNE24.JPG,AFNE22.JPG,AFSA24.JPG,AFSA22.JPG,AFSA23.JPG,,,,,0,4,4,8,,,,,,,,,,,,,,,,,,,AFSA01.jpg,AFNE12.jpg,AFSA13.jpg,AFNE13.jpg,AFNE12.jpg,FN,3,num_6,16,num_6,0.516838663258,,,2017_Nov_10_1723,60.0046766842,MAFE4ImagesEEG,001,202296,
AMSA21.JPG,AMNE22.JPG,AMNE21.JPG,AMSA23.JPG,AMSA22.JPG,AMNE23.JPG,,,,,0,5,5,1,,,,,,,,,,,,,,,,,,,AFSA15.jpg,AFSA12.jpg,AFNE04.jpg,AFNE01.jpg,AFNE04.jpg,FN,3,num_2,32,num_8,1.05008732155,,,2017_Nov_10_1723,60.0046766842,MAFE4ImagesEEG,001,202296,
AMSA21.JPG,AMNE23.JPG,AMNE21.JPG,AMSA25.JPG,AMNE25.JPG,AMSA23.JPG,,,,,0,6,6,5,,,,,,,,,,,,,,,,,,,AFNE04.jpg,AFSA02.jpg,AFSA14.jpg,AFNE12.jpg,AFSA14.jpg,FS,4,num_2,16,num_2,0.700165341608,,,2017_Nov_10_1723,60.0046766842,MAFE4ImagesEEG,001,202296,
AMNE22.JPG,AMSA24.JPG,AMSA22.JPG,AMNE25.JPG,AMNE24.JPG,AMSA25.JPG,,,,,0,7,7,7,,,,,,,,,,,,,,,,,,,AFNE03.jpg,AFSA06.jpg,AFSA17.jpg,AFNE06.jpg,AFSA17.jpg,FS,4,num_2,32,num_4,0.733492740896,,,2017_Nov_10_1723,60.0046766842,MAFE4ImagesEEG,001,202296,
AFSA21.JPG,AFNE22.JPG,AFNE21.JPG,AFSA23.JPG,AFSA22.JPG,AFNE23.JPG,,,,,0,8,8,0,,,,,,,,,,,,,,,,,,,AFNE13.jpg,AFNE07.jpg,AFSA09.jpg,AFSA17.jpg,AFSA17.jpg,FS,4,num_4,32,num_8,0.750110574998,,,2017_Nov_10_1723,60.0046766842,MAFE4ImagesEEG,001,202296,
AFSA21.JPG,AFNE23.JPG,AFNE21.JPG,AFSA25.JPG,AFNE25.JPG,AFSA23.JPG,,,,,0,9,9,4,,,,,,,,,,,,,,,,,,,AFNE06.jpg,AFSA04.jpg,AFNE03.jpg,AFSA12.jpg,AFSA12.jpg,FS,4,num_4,32,num_2,0.766776840668,,,2017_Nov_10_1723,60.0046766842,MAFE4ImagesEEG,001,202296,
AMSA25.JPG,AMNE24.JPG,AMSA24.JPG,AMNE26.JPG,AMSA21.JPG,AMNE25.JPG,,,,,,,,,0,0,0,3,,,,,,,,,,,,,,,AMNE10.jpg,AMSA15.jpg,AMNE07.jpg,AMSA18.jpg,AMSA15.jpg,MS,2,num_6,16,num_6,0.833110258915,,,2017_Nov_10_1723,60.0046766842,MAFE4ImagesEEG,001,202296,
AMNE23.JPG,AMNE24.JPG,AMNE22.JPG,AMSA24.JPG,AMSA22.JPG,AMSA23.JPG,,,,,,,,,0,1,1,9,,,,,,,,,,,,,,,AMSA05.jpg,AMNE18.jpg,AMNE19.jpg,AMSA03.jpg,AMNE18.jpg,MN,1,num_6,32,num_8,0.683413438033,,,2017_Nov_10_1723,60.0046766842,MAFE4ImagesEEG,001,202296,
AMNE22.JPG,AMSA24.JPG,AMSA22.JPG,AMNE25.JPG,AMNE24.JPG,AMSA25.JPG,,,,,,,,,0,2,2,7,,,,,,,,,,,,,,,AMNE02.jpg,AMSA14.jpg,AMSA18.jpg,AMNE08.jpg,AMNE08.jpg,MN,1,num_4,16,num_4,0.766921814997,,,2017_Nov_10_1723,60.0046766842,MAFE4ImagesEEG,001,202296,
AMSA21.JPG,AMNE22.JPG,AMNE21.JPG,AMSA23.JPG,AMSA22.JPG,AMNE23.JPG,,,,,,,,,0,3,3,1,,,,,,,,,,,,,,,AMNE13.jpg,AMNE06.jpg,AMSA04.jpg,AMSA14.jpg,AMSA14.jpg,MS,2,num_4,16,num_4,0.633416885976,,,2017_Nov_10_1723,60.0046766842,MAFE4ImagesEEG,001,202296,
AMSA21.JPG,AMNE23.JPG,AMNE21.JPG,AMSA25.JPG,AMNE25.JPG,AMSA23.JPG,,,,,,,,,0,4,4,5,,,,,,,,,,,,,,,AMSA15.jpg,AMNE17.jpg,AMSA11.jpg,AMNE03.jpg,AMNE03.jpg,MN,1,num_4,16,num_4,0.633497391827,,,2017_Nov_10_1723,60.0046766842,MAFE4ImagesEEG,001,202296,
AFSA21.JPG,AFNE23.JPG,AFNE21.JPG,AFSA25.JPG,AFNE25.JPG,AFSA23.JPG,,,,,,,,,0,5,5,4,,,,,,,,,,,,,,,AMSA01.jpg,AMNE04.jpg,AMNE14.jpg,AMSA06.jpg,AMSA06.jpg,MS,2,num_4,32,num_6,0.800122201908,,,2017_Nov_10_1723,60.0046766842,MAFE4ImagesEEG,001,202296,
AFSA21.JPG,AFNE22.JPG,AFNE21.JPG,AFSA23.JPG,AFSA22.JPG,AFNE23.JPG,,,,,,,,,0,6,6,0,,,,,,,,,,,,,,,AMNE02.jpg,AMSA13.jpg,AMSA19.jpg,AMNE07.jpg,AMSA13.jpg,MS,2,num_6,32,num_4,0.983437012415,,,2017_Nov_10_1723,60.0046766842,MAFE4ImagesEEG,001,202296,
AFNE22.JPG,AFSA24.JPG,AFSA22.JPG,AFNE25.JPG,AFNE24.JPG,AFSA25.JPG,,,,,,,,,0,7,7,6,,,,,,,,,,,,,,,AMNE20.jpg,AMNE08.jpg,AMSA19.jpg,AMSA09.jpg,AMNE20.jpg,MN,1,num_8,16,num_8,0.700102155562,,,2017_Nov_10_1723,60.0046766842,MAFE4ImagesEEG,001,202296,
AFNE23.JPG,AFNE24.JPG,AFNE22.JPG,AFSA24.JPG,AFSA22.JPG,AFSA23.JPG,,,,,,,,,0,8,8,8,,,,,,,,,,,,,,,AMNE06.jpg,AMNE10.jpg,AMSA14.jpg,AMSA06.jpg,AMSA06.jpg,MS,2,num_4,16,num_4,1.00005997811,,,2017_Nov_10_1723,60.0046766842,MAFE4ImagesEEG,001,202296,
AFSA25.JPG,AFNE24.JPG,AFSA24.JPG,AFNE21.JPG,AFSA21.JPG,AFNE25.JPG,,,,,,,,,0,9,9,2,,,,,,,,,,,,,,,AMSA15.jpg,AMNE13.jpg,AMNE02.jpg,AMSA04.jpg,AMSA04.jpg,MS,2,num_4,32,num_2,0.950525291264,,,2017_Nov_10_1723,60.0046766842,MAFE4ImagesEEG,001,202296,
AFNE22.JPG,AFSA24.JPG,AFSA22.JPG,AFNE25.JPG,AFNE24.JPG,AFSA25.JPG,,,,,,,,,,,,,0,0,0,6,,,,,,,,,,,AFSA14.jpg,AFSA05.jpg,AFNE04.jpg,AFNE20.jpg,AFNE20.jpg,FN,3,num_4,16,num_4,0.800337738823,,,2017_Nov_10_1723,60.0046766842,MAFE4ImagesEEG,001,202296,
AFNE23.JPG,AFNE24.JPG,AFNE22.JPG,AFSA24.JPG,AFSA22.JPG,AFSA23.JPG,,,,,,,,,,,,,0,1,1,8,,,,,,,,,,,AFNE14.jpg,AFSA02.jpg,AFSA08.jpg,AFNE09.jpg,AFNE14.jpg,FN,3,num_8,16,num_8,0.733458101284,,,2017_Nov_10_1723,60.0046766842,MAFE4ImagesEEG,001,202296,
AMSA21.JPG,AMNE23.JPG,AMNE21.JPG,AMSA25.JPG,AMNE25.JPG,AMSA23.JPG,,,,,,,,,,,,,0,2,2,5,,,,,,,,,,,AFSA06.jpg,AFNE15.jpg,AFNE05.jpg,AFSA09.jpg,AFSA09.jpg,FS,4,num_4,16,num_4,0.966756633949,,,2017_Nov_10_1723,60.0046766842,MAFE4ImagesEEG,001,202296,
AMSA21.JPG,AMNE22.JPG,AMNE21.JPG,AMSA23.JPG,AMSA22.JPG,AMNE23.JPG,,,,,,,,,,,,,0,3,3,1,,,,,,,,,,,AFNE17.jpg,AFSA16.jpg,AFNE13.jpg,AFSA19.jpg,AFSA16.jpg,FS,4,num_6,16,num_6,0.56673546508,,,2017_Nov_10_1723,60.0046766842,MAFE4ImagesEEG,001,202296,
AFSA21.JPG,AFNE23.JPG,AFNE21.JPG,AFSA25.JPG,AFNE25.JPG,AFSA23.JPG,,,,,,,,,,,,,0,4,4,4,,,,,,,,,,,AFSA06.jpg,AFNE20.jpg,AFNE18.jpg,AFSA13.jpg,AFNE18.jpg,FN,3,num_2,16,num_2,1.08349843416,,,2017_Nov_10_1723,60.0046766842,MAFE4ImagesEEG,001,202296,
AMNE22.JPG,AMSA24.JPG,AMSA22.JPG,AMNE25.JPG,AMNE24.JPG,AMSA25.JPG,,,,,,,,,,,,,0,5,5,7,,,,,,,,,,,AFNE13.jpg,AFNE10.jpg,AFSA12.jpg,AFSA06.jpg,AFSA06.jpg,FS,4,num_4,16,num_4,0.633427791297,,,2017_Nov_10_1723,60.0046766842,MAFE4ImagesEEG,001,202296,
AMSA25.JPG,AMNE24.JPG,AMSA24.JPG,AMNE26.JPG,AMSA21.JPG,AMNE25.JPG,,,,,,,,,,,,,0,6,6,3,,,,,,,,,,,AFNE12.jpg,AFSA16.jpg,AFSA14.jpg,AFNE01.jpg,AFNE12.jpg,FN,3,num_8,32,num_2,0.666785981972,,,2017_Nov_10_1723,60.0046766842,MAFE4ImagesEEG,001,202296,
AMNE23.JPG,AMNE24.JPG,AMNE22.JPG,AMSA24.JPG,AMSA22.JPG,AMSA23.JPG,,,,,,,,,,,,,0,7,7,9,,,,,,,,,,,AFSA20.jpg,AFNE06.jpg,AFNE10.jpg,AFSA04.jpg,AFNE06.jpg,FN,3,num_6,32,num_8,0.980016967282,,,2017_Nov_10_1723,60.0046766842,MAFE4ImagesEEG,001,202296,
AFSA21.JPG,AFNE22.JPG,AFNE21.JPG,AFSA23.JPG,AFSA22.JPG,AFNE23.JPG,,,,,,,,,,,,,0,8,8,0,,,,,,,,,,,AFNE05.jpg,AFSA20.jpg,AFNE12.jpg,AFSA01.jpg,AFSA01.jpg,FS,4,num_4,16,num_4,0.666771869175,,,2017_Nov_10_1723,60.0046766842,MAFE4ImagesEEG,001,202296,
AFSA25.JPG,AFNE24.JPG,AFSA24.JPG,AFNE21.JPG,AFSA21.JPG,AFNE25.JPG,,,,,,,,,,,,,0,9,9,2,,,,,,,,,,,AFNE06.jpg,AFSA20.jpg,AFNE16.jpg,AFSA13.jpg,AFNE06.jpg,FN,3,num_8,32,num_6,0.950085236225,,,2017_Nov_10_1723,60.0046766842,MAFE4ImagesEEG,001,202296,
AFSA21.JPG,AFNE22.JPG,AFNE21.JPG,AFSA23.JPG,AFSA22.JPG,AFNE23.JPG,,,,,,,,,,,,,,,,,0,0,0,0,,,,,,,AMNE17.jpg,AMSA02.jpg,AMSA20.jpg,AMNE15.jpg,AMSA02.jpg,MS,2,num_6,16,num_6,0.616786222439,,,2017_Nov_10_1723,60.0046766842,MAFE4ImagesEEG,001,202296,
AFSA25.JPG,AFNE24.JPG,AFSA24.JPG,AFNE21.JPG,AFSA21.JPG,AFNE25.JPG,,,,,,,,,,,,,,,,,0,1,1,2,,,,,,,AMNE07.jpg,AMSA18.jpg,AMNE01.jpg,AMSA12.jpg,AMSA18.jpg,MS,2,num_6,32,num_2,0.966733861715,,,2017_Nov_10_1723,60.0046766842,MAFE4ImagesEEG,001,202296,
AFNE22.JPG,AFSA24.JPG,AFSA22.JPG,AFNE25.JPG,AFNE24.JPG,AFSA25.JPG,,,,,,,,,,,,,,,,,0,2,2,6,,,,,,,AMSA09.jpg,AMNE13.jpg,AMSA14.jpg,AMNE18.jpg,AMNE13.jpg,MN,1,num_6,32,num_4,0.783478708472,,,2017_Nov_10_1723,60.0046766842,MAFE4ImagesEEG,001,202296,
AMNE22.JPG,AMSA24.JPG,AMSA22.JPG,AMNE25.JPG,AMNE24.JPG,AMSA25.JPG,,,,,,,,,,,,,,,,,0,3,3,7,,,,,,,AMNE03.jpg,AMSA20.jpg,AMSA16.jpg,AMNE14.jpg,AMSA16.jpg,MS,2,num_2,32,num_8,1.06673177704,,,2017_Nov_10_1723,60.0046766842,MAFE4ImagesEEG,001,202296,
AMSA21.JPG,AMNE22.JPG,AMNE21.JPG,AMSA23.JPG,AMSA22.JPG,AMNE23.JPG,,,,,,,,,,,,,,,,,0,4,4,1,,,,,,,AMSA01.jpg,AMNE13.jpg,AMNE03.jpg,AMSA10.jpg,AMNE03.jpg,MN,1,num_2,16,num_2,0.899941785727,,,2017_Nov_10_1723,60.0046766842,MAFE4ImagesEEG,001,202296,
AMSA21.JPG,AMNE23.JPG,AMNE21.JPG,AMSA25.JPG,AMNE25.JPG,AMSA23.JPG,,,,,,,,,,,,,,,,,0,5,5,5,,,,,,,AMNE12.jpg,AMNE18.jpg,AMSA18.jpg,AMSA15.jpg,AMSA18.jpg,MS,2,num_2,16,num_2,0.683501320891,,,2017_Nov_10_1723,60.0046766842,MAFE4ImagesEEG,001,202296,
AFSA21.JPG,AFNE23.JPG,AFNE21.JPG,AFSA25.JPG,AFNE25.JPG,AFSA23.JPG,,,,,,,,,,,,,,,,,0,6,6,4,,,,,,,AMSA03.jpg,AMNE10.jpg,AMSA19.jpg,AMNE09.jpg,AMNE10.jpg,MN,1,num_6,16,num_6,0.733485363889,,,2017_Nov_10_1723,60.0046766842,MAFE4ImagesEEG,001,202296,
AFNE23.JPG,AFNE24.JPG,AFNE22.JPG,AFSA24.JPG,AFSA22.JPG,AFSA23.JPG,,,,,,,,,,,,,,,,,0,7,7,8,,,,,,,AMNE04.jpg,AMSA11.jpg,AMSA08.jpg,AMNE01.jpg,AMSA08.jpg,MS,2,num_2,16,num_2,0.900131022092,,,2017_Nov_10_1723,60.0046766842,MAFE4ImagesEEG,001,202296,
AMSA25.JPG,AMNE24.JPG,AMSA24.JPG,AMNE26.JPG,AMSA21.JPG,AMNE25.JPG,,,,,,,,,,,,,,,,,0,8,8,3,,,,,,,AMNE13.jpg,AMSA19.jpg,AMNE05.jpg,AMSA16.jpg,AMSA19.jpg,MS,2,num_6,16,num_6,0.583340790123,,,2017_Nov_10_1723,60.0046766842,MAFE4ImagesEEG,001,202296,
AMNE23.JPG,AMNE24.JPG,AMNE22.JPG,AMSA24.JPG,AMSA22.JPG,AMSA23.JPG,,,,,,,,,,,,,,,,,0,9,9,9,,,,,,,AMNE03.jpg,AMSA14.jpg,AMNE08.jpg,AMSA08.jpg,AMNE08.jpg,MN,1,num_2,16,num_2,0.966774915811,,,2017_Nov_10_1723,60.0046766842,MAFE4ImagesEEG,001,202296,
AFNE22.JPG,AFSA24.JPG,AFSA22.JPG,AFNE25.JPG,AFNE24.JPG,AFSA25.JPG,,,,,,,,,,,,,,,,,,,,,0,0,0,6,,,AFSA15.jpg,AFNE01.jpg,AFSA17.jpg,AFNE08.jpg,AFNE01.jpg,FN,3,num_6,16,num_6,0.600153634325,,,2017_Nov_10_1723,60.0046766842,MAFE4ImagesEEG,001,202296,
AFSA25.JPG,AFNE24.JPG,AFSA24.JPG,AFNE21.JPG,AFSA21.JPG,AFNE25.JPG,,,,,,,,,,,,,,,,,,,,,0,1,1,2,,,AFSA08.jpg,AFSA15.jpg,AFNE07.jpg,AFNE20.jpg,AFNE20.jpg,FN,3,num_4,16,num_4,0.850098547526,,,2017_Nov_10_1723,60.0046766842,MAFE4ImagesEEG,001,202296,
AFNE23.JPG,AFNE24.JPG,AFNE22.JPG,AFSA24.JPG,AFSA22.JPG,AFSA23.JPG,,,,,,,,,,,,,,,,,,,,,0,2,2,8,,,AFSA14.jpg,AFNE17.jpg,AFNE06.jpg,AFSA05.jpg,AFNE06.jpg,FN,3,num_2,32,num_8,0.700164058246,,,2017_Nov_10_1723,60.0046766842,MAFE4ImagesEEG,001,202296,
AFSA21.JPG,AFNE22.JPG,AFNE21.JPG,AFSA23.JPG,AFSA22.JPG,AFNE23.JPG,,,,,,,,,,,,,,,,,,,,,0,3,3,0,,,AFNE18.jpg,AFNE15.jpg,AFSA12.jpg,AFSA15.jpg,AFNE15.jpg,FN,3,num_6,16,num_6,0.816430201288,,,2017_Nov_10_1723,60.0046766842,MAFE4ImagesEEG,001,202296,
AFSA21.JPG,AFNE23.JPG,AFNE21.JPG,AFSA25.JPG,AFNE25.JPG,AFSA23.JPG,,,,,,,,,,,,,,,,,,,,,0,4,4,4,,,AFSA20.jpg,AFNE17.jpg,AFSA06.jpg,AFNE16.jpg,AFSA06.jpg,FS,4,num_2,32,num_4,0.73344238475,,,2017_Nov_10_1723,60.0046766842,MAFE4ImagesEEG,001,202296,
AMSA25.JPG,AMNE24.JPG,AMSA24.JPG,AMNE26.JPG,AMSA21.JPG,AMNE25.JPG,,,,,,,,,,,,,,,,,,,,,0,5,5,3,,,AFNE04.jpg,AFSA01.jpg,AFSA04.jpg,AFNE16.jpg,AFSA04.jpg,FS,4,num_2,16,num_2,0.716781250667,,,2017_Nov_10_1723,60.0046766842,MAFE4ImagesEEG,001,202296,
AMNE22.JPG,AMSA24.JPG,AMSA22.JPG,AMNE25.JPG,AMNE24.JPG,AMSA25.JPG,,,,,,,,,,,,,,,,,,,,,0,6,6,7,,,AFSA08.jpg,AFNE12.jpg,AFSA19.jpg,AFNE17.jpg,AFNE17.jpg,FN,3,num_4,16,num_4,1.00009141071,,,2017_Nov_10_1723,60.0046766842,MAFE4ImagesEEG,001,202296,
AMNE23.JPG,AMNE24.JPG,AMNE22.JPG,AMSA24.JPG,AMSA22.JPG,AMSA23.JPG,,,,,,,,,,,,,,,,,,,,,0,7,7,9,,,AFSA07.jpg,AFSA15.jpg,AFNE18.jpg,AFNE11.jpg,AFSA15.jpg,FS,4,num_6,32,num_4,0.833490014542,,,2017_Nov_10_1723,60.0046766842,MAFE4ImagesEEG,001,202296,
AMSA21.JPG,AMNE23.JPG,AMNE21.JPG,AMSA25.JPG,AMNE25.JPG,AMSA23.JPG,,,,,,,,,,,,,,,,,,,,,0,8,8,5,,,AFNE08.jpg,AFSA05.jpg,AFNE05.jpg,AFSA06.jpg,AFNE05.jpg,FN,3,num_2,32,num_6,0.700102476403,,,2017_Nov_10_1723,60.0046766842,MAFE4ImagesEEG,001,202296,
AMSA21.JPG,AMNE22.JPG,AMNE21.JPG,AMSA23.JPG,AMSA22.JPG,AMNE23.JPG,,,,,,,,,,,,,,,,,,,,,0,9,9,1,,,AFNE10.jpg,AFNE16.jpg,AFSA13.jpg,AFSA05.jpg,AFNE16.jpg,FN,3,num_6,32,num_8,1.03342618747,,,2017_Nov_10_1723,60.0046766842,MAFE4ImagesEEG,001,202296,
,,,,,,,,,,,,,,,,,,,,,,,,,,,,,,,,,,,,,,,,,,,space,9.26604603603,2017_Nov_10_1723,60.0046766842,MAFE4ImagesEEG,001,202296,
AFNE01.JPG,AFNE01.JPG,AFNE01.JPG,AFNE01.JPG,AFNE01.JPG,AFNE01.JPG,0,0,0,5,,,,,,,,,,,,,,,,,,,,,,,AMSA06.jpg,AMNE19.jpg,AMNE09.jpg,AMSA13.jpg,AMSA13.jpg,MS,2,num_4,16,num_4,0.683303424623,,,2017_Nov_10_1723,60.0046766842,MAFE4ImagesEEG,001,202296,
AFNE01.JPG,AFNE01.JPG,AFNE01.JPG,AFNE01.JPG,AFNE01.JPG,AFNE01.JPG,0,1,1,9,,,,,,,,,,,,,,,,,,,,,,,AMSA06.jpg,AMNE10.jpg,AMSA17.jpg,AMNE06.jpg,AMSA17.jpg,MS,2,num_2,32,num_8,1.45008988725,,,2017_Nov_10_1723,60.0046766842,MAFE4ImagesEEG,001,202296,
AFNE01.JPG,AFNE01.JPG,AFNE01.JPG,AFNE01.JPG,AFNE01.JPG,AFNE01.JPG,0,2,2,6,,,,,,,,,,,,,,,,,,,,,,,AMSA01.jpg,AMNE18.jpg,AMNE06.jpg,AMSA15.jpg,AMSA01.jpg,MS,2,num_8,32,num_4,0.750142327975,,,2017_Nov_10_1723,60.0046766842,MAFE4ImagesEEG,001,202296,
AFNE01.JPG,AFNE01.JPG,AFNE01.JPG,AFNE01.JPG,AFNE01.JPG,AFNE01.JPG,0,3,3,3,,,,,,,,,,,,,,,,,,,,,,,AMNE08.jpg,AMSA10.jpg,AMSA07.jpg,AMNE01.jpg,AMSA07.jpg,MS,2,num_2,16,num_2,0.733461308293,,,2017_Nov_10_1723,60.0046766842,MAFE4ImagesEEG,001,202296,
AFNE01.JPG,AFNE01.JPG,AFNE01.JPG,AFNE01.JPG,AFNE01.JPG,AFNE01.JPG,0,4,4,7,,,,,,,,,,,,,,,,,,,,,,,AMSA07.jpg,AMNE04.jpg,AMNE10.jpg,AMSA03.jpg,AMSA03.jpg,MS,2,num_4,32,num_2,0.916816852987,,,2017_Nov_10_1723,60.0046766842,MAFE4ImagesEEG,001,202296,
AFNE01.JPG,AFNE01.JPG,AFNE01.JPG,AFNE01.JPG,AFNE01.JPG,AFNE01.JPG,0,5,5,2,,,,,,,,,,,,,,,,,,,,,,,AMNE14.jpg,AMSA18.jpg,AMNE04.jpg,AMSA10.jpg,AMSA10.jpg,MS,2,num_4,32,num_8,0.633413999341,,,2017_Nov_10_1723,60.0046766842,MAFE4ImagesEEG,001,202296,
AFNE01.JPG,AFNE01.JPG,AFNE01.JPG,AFNE01.JPG,AFNE01.JPG,AFNE01.JPG,0,6,6,4,,,,,,,,,,,,,,,,,,,,,,,AMSA17.jpg,AMNE11.jpg,AMSA03.jpg,AMNE13.jpg,AMNE11.jpg,MN,1,num_6,16,num_6,0.716738913208,,,2017_Nov_10_1723,60.0046766842,MAFE4ImagesEEG,001,202296,
AFNE01.JPG,AFNE01.JPG,AFNE01.JPG,AFNE01.JPG,AFNE01.JPG,AFNE01.JPG,0,7,7,0,,,,,,,,,,,,,,,,,,,,,,,AMSA05.jpg,AMSA09.jpg,AMNE04.jpg,AMNE02.jpg,AMNE02.jpg,MN,1,num_4,16,num_4,0.616756714415,,,2017_Nov_10_1723,60.0046766842,MAFE4ImagesEEG,001,202296,
AFNE01.JPG,AFNE01.JPG,AFNE01.JPG,AFNE01.JPG,AFNE01.JPG,AFNE01.JPG,0,8,8,1,,,,,,,,,,,,,,,,,,,,,,,AMSA03.jpg,AMNE17.jpg,AMSA06.jpg,AMNE14.jpg,AMNE17.jpg,MN,1,num_6,32,num_8,1.58346267184,,,2017_Nov_10_1723,60.0046766842,MAFE4ImagesEEG,001,202296,
AFNE01.JPG,AFNE01.JPG,AFNE01.JPG,AFNE01.JPG,AFNE01.JPG,AFNE01.JPG,0,9,9,8,,,,,,,,,,,,,,,,,,,,,,,AMSA13.jpg,AMNE14.jpg,AMNE17.jpg,AMSA12.jpg,AMSA12.jpg,MS,2,num_4,32,num_6,0.750171836,,,2017_Nov_10_1723,60.0046766842,MAFE4ImagesEEG,001,202296,
AFNE01.JPG,AFNE01.JPG,AFNE01.JPG,AFNE01.JPG,AFNE01.JPG,AFNE01.JPG,1,0,10,4,,,,,,,,,,,,,,,,,,,,,,,AMNE07.jpg,AMNE20.jpg,AMSA06.jpg,AMSA20.jpg,AMSA06.jpg,MS,2,num_2,32,num_8,1.15009838669,,,2017_Nov_10_1723,60.0046766842,MAFE4ImagesEEG,001,202296,
AFNE01.JPG,AFNE01.JPG,AFNE01.JPG,AFNE01.JPG,AFNE01.JPG,AFNE01.JPG,1,1,11,7,,,,,,,,,,,,,,,,,,,,,,,AMSA13.jpg,AMNE16.jpg,AMSA14.jpg,AMNE09.jpg,AMSA13.jpg,MS,2,num_8,32,num_4,1.01674901647,,,2017_Nov_10_1723,60.0046766842,MAFE4ImagesEEG,001,202296,
AFNE01.JPG,AFNE01.JPG,AFNE01.JPG,AFNE01.JPG,AFNE01.JPG,AFNE01.JPG,1,2,12,2,,,,,,,,,,,,,,,,,,,,,,,AMSA11.jpg,AMNE16.jpg,AMNE18.jpg,AMSA17.jpg,AMNE18.jpg,MN,1,num_2,16,num_2,0.750122763216,,,2017_Nov_10_1723,60.0046766842,MAFE4ImagesEEG,001,202296,
AFNE01.JPG,AFNE01.JPG,AFNE01.JPG,AFNE01.JPG,AFNE01.JPG,AFNE01.JPG,1,3,13,0,,,,,,,,,,,,,,,,,,,,,,,AMNE08.jpg,AMSA20.jpg,AMNE03.jpg,AMSA19.jpg,AMNE03.jpg,MN,1,num_2,32,num_6,1.00018506683,,,2017_Nov_10_1723,60.0046766842,MAFE4ImagesEEG,001,202296,
AFNE01.JPG,AFNE01.JPG,AFNE01.JPG,AFNE01.JPG,AFNE01.JPG,AFNE01.JPG,1,4,14,1,,,,,,,,,,,,,,,,,,,,,,,AMNE07.jpg,AMNE17.jpg,AMSA19.jpg,AMSA04.jpg,AMNE07.jpg,MN,1,num_8,16,num_8,0.833450884558,,,2017_Nov_10_1723,60.0046766842,MAFE4ImagesEEG,001,202296,
AFNE01.JPG,AFNE01.JPG,AFNE01.JPG,AFNE01.JPG,AFNE01.JPG,AFNE01.JPG,1,5,15,3,,,,,,,,,,,,,,,,,,,,,,,AMNE05.jpg,AMSA13.jpg,AMSA09.jpg,AMNE02.jpg,AMSA09.jpg,MS,2,num_2,16,num_2,0.833341191523,,,2017_Nov_10_1723,60.0046766842,MAFE4ImagesEEG,001,202296,
AFNE01.JPG,AFNE01.JPG,AFNE01.JPG,AFNE01.JPG,AFNE01.JPG,AFNE01.JPG,1,6,16,5,,,,,,,,,,,,,,,,,,,,,,,AMSA02.jpg,AMNE08.jpg,AMNE07.jpg,AMSA01.jpg,AMSA01.jpg,MS,2,num_4,16,num_4,0.950093896594,,,2017_Nov_10_1723,60.0046766842,MAFE4ImagesEEG,001,202296,
AFNE01.JPG,AFNE01.JPG,AFNE01.JPG,AFNE01.JPG,AFNE01.JPG,AFNE01.JPG,1,7,17,8,,,,,,,,,,,,,,,,,,,,,,,AMSA02.jpg,AMNE04.jpg,AMSA12.jpg,AMNE18.jpg,AMSA12.jpg,MS,2,num_2,32,num_4,0.999955096748,,,2017_Nov_10_1723,60.0046766842,MAFE4ImagesEEG,001,202296,
AFNE01.JPG,AFNE01.JPG,AFNE01.JPG,AFNE01.JPG,AFNE01.JPG,AFNE01.JPG,1,8,18,9,,,,,,,,,,,,,,,,,,,,,,,AMSA14.jpg,AMNE16.jpg,AMNE18.jpg,AMSA06.jpg,AMSA06.jpg,MS,2,num_4,32,num_2,0.850396513939,,,2017_Nov_10_1723,60.0046766842,MAFE4ImagesEEG,001,202296,
AFNE01.JPG,AFNE01.JPG,AFNE01.JPG,AFNE01.JPG,AFNE01.JPG,AFNE01.JPG,1,9,19,6,,,,,,,,,,,,,,,,,,,,,,,AMSA12.jpg,AMSA09.jpg,AMNE12.jpg,AMNE07.jpg,AMSA09.jpg,MS,2,num_6,16,num_6,0.816824711394,,,2017_Nov_10_1723,60.0046766842,MAFE4ImagesEEG,001,202296,
AFNE01.JPG,AFNE01.JPG,AFNE01.JPG,AFNE01.JPG,AFNE01.JPG,AFNE01.JPG,2,0,20,8,,,,,,,,,,,,,,,,,,,,,,,AMNE07.jpg,AMSA20.jpg,AMNE08.jpg,AMSA11.jpg,AMSA20.jpg,MS,2,num_6,32,num_4,0.95010480145,,,2017_Nov_10_1723,60.0046766842,MAFE4ImagesEEG,001,202296,
AFNE01.JPG,AFNE01.JPG,AFNE01.JPG,AFNE01.JPG,AFNE01.JPG,AFNE01.JPG,2,1,21,1,,,,,,,,,,,,,,,,,,,,,,,AMSA15.jpg,AMSA16.jpg,AMNE15.jpg,AMNE16.jpg,AMNE16.jpg,MN,1,num_4,32,num_8,0.733496268746,,,2017_Nov_10_1723,60.0046766842,MAFE4ImagesEEG,001,202296,
AFNE01.JPG,AFNE01.JPG,AFNE01.JPG,AFNE01.JPG,AFNE01.JPG,AFNE01.JPG,2,2,22,4,,,,,,,,,,,,,,,,,,,,,,,AMNE13.jpg,AMSA20.jpg,AMSA15.jpg,AMNE17.jpg,AMNE13.jpg,MN,1,num_8,32,num_4,0.766778765246,,,2017_Nov_10_1723,60.0046766842,MAFE4ImagesEEG,001,202296,
AFNE01.JPG,AFNE01.JPG,AFNE01.JPG,AFNE01.JPG,AFNE01.JPG,AFNE01.JPG,2,3,23,2,,,,,,,,,,,,,,,,,,,,,,,AMNE17.jpg,AMNE16.jpg,AMSA14.jpg,AMSA13.jpg,AMSA14.jpg,MS,2,num_2,16,num_2,0.73330959864,,,2017_Nov_10_1723,60.0046766842,MAFE4ImagesEEG,001,202296,
AFNE01.JPG,AFNE01.JPG,AFNE01.JPG,AFNE01.JPG,AFNE01.JPG,AFNE01.JPG,2,4,24,9,,,,,,,,,,,,,,,,,,,,,,,AMNE15.jpg,AMNE01.jpg,AMSA18.jpg,AMSA15.jpg,AMNE01.jpg,MN,1,num_6,32,num_4,0.750075293705,,,2017_Nov_10_1723,60.0046766842,MAFE4ImagesEEG,001,202296,
AFNE01.JPG,AFNE01.JPG,AFNE01.JPG,AFNE01.JPG,AFNE01.JPG,AFNE01.JPG,2,5,25,6,,,,,,,,,,,,,,,,,,,,,,,AMNE12.jpg,AMNE14.jpg,AMSA11.jpg,AMSA01.jpg,AMNE12.jpg,MN,1,num_8,16,num_8,0.700117230415,,,2017_Nov_10_1723,60.0046766842,MAFE4ImagesEEG,001,202296,
AFNE01.JPG,AFNE01.JPG,AFNE01.JPG,AFNE01.JPG,AFNE01.JPG,AFNE01.JPG,2,6,26,0,,,,,,,,,,,,,,,,,,,,,,,AMNE05.jpg,AMSA01.jpg,AMNE20.jpg,AMSA15.jpg,AMSA01.jpg,MS,2,num_6,16,num_6,0.683473736979,,,2017_Nov_10_1723,60.0046766842,MAFE4ImagesEEG,001,202296,
AFNE01.JPG,AFNE01.JPG,AFNE01.JPG,AFNE01.JPG,AFNE01.JPG,AFNE01.JPG,2,7,27,7,,,,,,,,,,,,,,,,,,,,,,,AMNE19.jpg,AMNE09.jpg,AMSA04.jpg,AMSA20.jpg,AMSA20.jpg,MS,2,num_4,16,num_4,1.28343717242,,,2017_Nov_10_1723,60.0046766842,MAFE4ImagesEEG,001,202296,
AFNE01.JPG,AFNE01.JPG,AFNE01.JPG,AFNE01.JPG,AFNE01.JPG,AFNE01.JPG,2,8,28,3,,,,,,,,,,,,,,,,,,,,,,,AMSA20.jpg,AMNE18.jpg,AMSA10.jpg,AMNE12.jpg,AMSA20.jpg,MS,2,num_8,16,num_8,0.750126611907,,,2017_Nov_10_1723,60.0046766842,MAFE4ImagesEEG,001,202296,
AFNE01.JPG,AFNE01.JPG,AFNE01.JPG,AFNE01.JPG,AFNE01.JPG,AFNE01.JPG,2,9,29,5,,,,,,,,,,,,,,,,,,,,,,,AMNE15.jpg,AMNE12.jpg,AMSA15.jpg,AMSA19.jpg,AMSA19.jpg,MS,2,num_4,16,num_4,0.867094212677,,,2017_Nov_10_1723,60.0046766842,MAFE4ImagesEEG,001,202296,
AFNE01.JPG,AFNE01.JPG,AFNE01.JPG,AFNE01.JPG,AFNE01.JPG,AFNE01.JPG,3,0,30,2,,,,,,,,,,,,,,,,,,,,,,,AMNE18.jpg,AMSA07.jpg,AMNE11.jpg,AMSA18.jpg,AMSA18.jpg,MS,2,num_4,16,num_4,0.95012757415,,,2017_Nov_10_1723,60.0046766842,MAFE4ImagesEEG,001,202296,
AFNE01.JPG,AFNE01.JPG,AFNE01.JPG,AFNE01.JPG,AFNE01.JPG,AFNE01.JPG,3,1,31,3,,,,,,,,,,,,,,,,,,,,,,,AMSA01.jpg,AMSA09.jpg,AMNE16.jpg,AMNE02.jpg,AMSA09.jpg,MS,2,num_6,32,num_4,1.05011811247,,,2017_Nov_10_1723,60.0046766842,MAFE4ImagesEEG,001,202296,
AFNE01.JPG,AFNE01.JPG,AFNE01.JPG,AFNE01.JPG,AFNE01.JPG,AFNE01.JPG,3,2,32,0,,,,,,,,,,,,,,,,,,,,,,,AMSA02.jpg,AMNE05.jpg,AMSA01.jpg,AMNE13.jpg,AMNE13.jpg,MN,1,num_4,16,num_4,0.96679768851,,,2017_Nov_10_1723,60.0046766842,MAFE4ImagesEEG,001,202296,
AFNE01.JPG,AFNE01.JPG,AFNE01.JPG,AFNE01.JPG,AFNE01.JPG,AFNE01.JPG,3,3,33,1,,,,,,,,,,,,,,,,,,,,,,,AMSA14.jpg,AMNE16.jpg,AMNE08.jpg,AMSA03.jpg,AMNE08.jpg,MN,1,num_2,16,num_2,1.966635074,,,2017_Nov_10_1723,60.0046766842,MAFE4ImagesEEG,001,202296,
AFNE01.JPG,AFNE01.JPG,AFNE01.JPG,AFNE01.JPG,AFNE01.JPG,AFNE01.JPG,3,4,34,9,,,,,,,,,,,,,,,,,,,,,,,AMSA09.jpg,AMNE11.jpg,AMNE17.jpg,AMSA03.jpg,AMSA03.jpg,MS,2,num_4,32,num_6,0.500165020581,,,2017_Nov_10_1723,60.0046766842,MAFE4ImagesEEG,001,202296,
AFNE01.JPG,AFNE01.JPG,AFNE01.JPG,AFNE01.JPG,AFNE01.JPG,AFNE01.JPG,3,5,35,8,,,,,,,,,,,,,,,,,,,,,,,AMSA07.jpg,AMNE09.jpg,AMSA15.jpg,AMNE13.jpg,AMSA07.jpg,MS,2,num_8,32,num_4,0.70018362347,,,2017_Nov_10_1723,60.0046766842,MAFE4ImagesEEG,001,202296,
AFNE01.JPG,AFNE01.JPG,AFNE01.JPG,AFNE01.JPG,AFNE01.JPG,AFNE01.JPG,3,6,36,5,,,,,,,,,,,,,,,,,,,,,,,AMSA04.jpg,AMSA02.jpg,AMNE14.jpg,AMNE18.jpg,AMSA02.jpg,MS,2,num_6,32,num_4,0.93345521437,,,2017_Nov_10_1723,60.0046766842,MAFE4ImagesEEG,001,202296,
AFNE01.JPG,AFNE01.JPG,AFNE01.JPG,AFNE01.JPG,AFNE01.JPG,AFNE01.JPG,3,7,37,7,,,,,,,,,,,,,,,,,,,,,,,AMSA07.jpg,AMNE04.jpg,AMNE18.jpg,AMSA05.jpg,AMSA07.jpg,MS,2,num_8,32,num_4,0.666793037672,,,2017_Nov_10_1723,60.0046766842,MAFE4ImagesEEG,001,202296,
AFNE01.JPG,AFNE01.JPG,AFNE01.JPG,AFNE01.JPG,AFNE01.JPG,AFNE01.JPG,3,8,38,4,,,,,,,,,,,,,,,,,,,,,,,AMSA11.jpg,AMSA12.jpg,AMNE01.jpg,AMNE11.jpg,AMNE11.jpg,MN,1,num_4,32,num_8,0.733494023792,,,2017_Nov_10_1723,60.0046766842,MAFE4ImagesEEG,001,202296,
AFNE01.JPG,AFNE01.JPG,AFNE01.JPG,AFNE01.JPG,AFNE01.JPG,AFNE01.JPG,3,9,39,6,,,,,,,,,,,,,,,,,,,,,,,AMNE16.jpg,AMSA10.jpg,AMSA06.jpg,AMNE03.jpg,AMNE03.jpg,MN,1,num_4,16,num_4,1.70005789353,,,2017_Nov_10_1723,60.0046766842,MAFE4ImagesEEG,001,202296,
AFNE01.JPG,AFNE01.JPG,AFNE01.JPG,AFNE01.JPG,AFNE01.JPG,AFNE01.JPG,4,0,40,2,,,,,,,,,,,,,,,,,,,,,,,AMSA16.jpg,AMNE09.jpg,AMNE01.jpg,AMSA10.jpg,AMNE09.jpg,MN,1,num_6,16,num_6,0.566839384846,,,2017_Nov_10_1723,60.0046766842,MAFE4ImagesEEG,001,202296,
AFNE01.JPG,AFNE01.JPG,AFNE01.JPG,AFNE01.JPG,AFNE01.JPG,AFNE01.JPG,4,1,41,7,,,,,,,,,,,,,,,,,,,,,,,AMNE12.jpg,AMNE06.jpg,AMSA10.jpg,AMSA03.jpg,AMSA10.jpg,MS,2,num_2,32,num_8,0.700139040593,,,2017_Nov_10_1723,60.0046766842,MAFE4ImagesEEG,001,202296,
AFNE01.JPG,AFNE01.JPG,AFNE01.JPG,AFNE01.JPG,AFNE01.JPG,AFNE01.JPG,4,2,42,1,,,,,,,,,,,,,,,,,,,,,,,AMSA01.jpg,AMNE16.jpg,AMSA16.jpg,AMNE12.jpg,AMNE12.jpg,MN,1,num_4,16,num_4,0.766778765246,,,2017_Nov_10_1723,60.0046766842,MAFE4ImagesEEG,001,202296,
AFNE01.JPG,AFNE01.JPG,AFNE01.JPG,AFNE01.JPG,AFNE01.JPG,AFNE01.JPG,4,3,43,0,,,,,,,,,,,,,,,,,,,,,,,AMSA13.jpg,AMSA03.jpg,AMNE13.jpg,AMNE08.jpg,AMSA13.jpg,MS,2,num_8,16,num_8,0.750150988344,,,2017_Nov_10_1723,60.0046766842,MAFE4ImagesEEG,001,202296,
AFNE01.JPG,AFNE01.JPG,AFNE01.JPG,AFNE01.JPG,AFNE01.JPG,AFNE01.JPG,4,4,44,8,,,,,,,,,,,,,,,,,,,,,,,AMNE16.jpg,AMSA06.jpg,AMSA03.jpg,AMNE09.jpg,AMNE09.jpg,MN,1,num_4,16,num_4,1.1334555354,,,2017_Nov_10_1723,60.0046766842,MAFE4ImagesEEG,001,202296,
AFNE01.JPG,AFNE01.JPG,AFNE01.JPG,AFNE01.JPG,AFNE01.JPG,AFNE01.JPG,4,5,45,4,,,,,,,,,,,,,,,,,,,,,,,AMSA08.jpg,AMSA04.jpg,AMNE14.jpg,AMNE09.jpg,AMNE14.jpg,MN,1,num_2,32,num_8,1.10006879875,,,2017_Nov_10_1723,60.0046766842,MAFE4ImagesEEG,001,202296,
AFNE01.JPG,AFNE01.JPG,AFNE01.JPG,AFNE01.JPG,AFNE01.JPG,AFNE01.JPG,4,6,46,9,,,,,,,,,,,,,,,,,,,,,,,AMNE16.jpg,AMSA01.jpg,AMNE11.jpg,AMSA07.jpg,AMNE11.jpg,MN,1,num_2,32,num_4,0.68353371555,,,2017_Nov_10_1723,60.0046766842,MAFE4ImagesEEG,001,202296,
AFNE01.JPG,AFNE01.JPG,AFNE01.JPG,AFNE01.JPG,AFNE01.JPG,AFNE01.JPG,4,7,47,3,,,,,,,,,,,,,,,,,,,,,,,AMSA03.jpg,AMNE10.jpg,AMNE17.jpg,AMSA18.jpg,AMSA03.jpg,MS,2,num_8,32,num_4,0.666756152641,,,2017_Nov_10_1723,60.0046766842,MAFE4ImagesEEG,001,202296,
AFNE01.JPG,AFNE01.JPG,AFNE01.JPG,AFNE01.JPG,AFNE01.JPG,AFNE01.JPG,4,8,48,6,,,,,,,,,,,,,,,,,,,,,,,AMNE10.jpg,AMNE13.jpg,AMSA14.jpg,AMSA18.jpg,AMSA18.jpg,MS,2,num_4,16,num_4,0.783467161935,,,2017_Nov_10_1723,60.0046766842,MAFE4ImagesEEG,001,202296,
AFNE01.JPG,AFNE01.JPG,AFNE01.JPG,AFNE01.JPG,AFNE01.JPG,AFNE01.JPG,4,9,49,5,,,,,,,,,,,,,,,,,,,,,,,AMNE12.jpg,AMNE20.jpg,AMSA20.jpg,AMSA16.jpg,AMNE12.jpg,MN,1,num_8,32,num_6,1.03345601633,,,2017_Nov_10_1723,60.0046766842,MAFE4ImagesEEG,001,202296,
AFNE01.JPG,AFNE01.JPG,AFNE01.JPG,AFNE01.JPG,AFNE01.JPG,AFNE01.JPG,5,0,50,9,,,,,,,,,,,,,,,,,,,,,,,AMNE19.jpg,AMSA10.jpg,AMNE13.jpg,AMSA09.jpg,AMNE19.jpg,MN,1,num_8,32,num_4,1.26673722919,,,2017_Nov_10_1723,60.0046766842,MAFE4ImagesEEG,001,202296,
AFNE01.JPG,AFNE01.JPG,AFNE01.JPG,AFNE01.JPG,AFNE01.JPG,AFNE01.JPG,5,1,51,6,,,,,,,,,,,,,,,,,,,,,,,AMNE11.jpg,AMSA14.jpg,AMNE20.jpg,AMSA11.jpg,AMSA14.jpg,MS,2,num_6,16,num_6,0.600124125835,,,2017_Nov_10_1723,60.0046766842,MAFE4ImagesEEG,001,202296,
AFNE01.JPG,AFNE01.JPG,AFNE01.JPG,AFNE01.JPG,AFNE01.JPG,AFNE01.JPG,5,2,52,2,,,,,,,,,,,,,,,,,,,,,,,AMNE09.jpg,AMNE06.jpg,AMSA19.jpg,AMSA13.jpg,AMSA19.jpg,MS,2,num_2,16,num_2,1.35010095267,,,2017_Nov_10_1723,60.0046766842,MAFE4ImagesEEG,001,202296,
AFNE01.JPG,AFNE01.JPG,AFNE01.JPG,AFNE01.JPG,AFNE01.JPG,AFNE01.JPG,5,3,53,4,,,,,,,,,,,,,,,,,,,,,,,AMSA08.jpg,AMSA03.jpg,AMNE05.jpg,AMNE09.jpg,AMNE05.jpg,MN,1,num_2,32,num_8,0.900103117805,,,2017_Nov_10_1723,60.0046766842,MAFE4ImagesEEG,001,202296,
AFNE01.JPG,AFNE01.JPG,AFNE01.JPG,AFNE01.JPG,AFNE01.JPG,AFNE01.JPG,5,4,54,7,,,,,,,,,,,,,,,,,,,,,,,AMSA08.jpg,AMSA05.jpg,AMNE04.jpg,AMNE12.jpg,AMSA05.jpg,MS,2,num_6,32,num_4,1.36673931405,,,2017_Nov_10_1723,60.0046766842,MAFE4ImagesEEG,001,202296,
AFNE01.JPG,AFNE01.JPG,AFNE01.JPG,AFNE01.JPG,AFNE01.JPG,AFNE01.JPG,5,5,55,3,,,,,,,,,,,,,,,,,,,,,,,AMNE12.jpg,AMNE18.jpg,AMSA10.jpg,AMSA06.jpg,AMSA10.jpg,MS,2,num_2,32,num_6,0.766798009165,,,2017_Nov_10_1723,60.0046766842,MAFE4ImagesEEG,001,202296,
AFNE01.JPG,AFNE01.JPG,AFNE01.JPG,AFNE01.JPG,AFNE01.JPG,AFNE01.JPG,5,6,56,8,,,,,,,,,,,,,,,,,,,,,,,AMNE04.jpg,AMSA14.jpg,AMSA06.jpg,AMNE17.jpg,AMSA06.jpg,MS,2,num_2,16,num_2,1.01677756198,,,2017_Nov_10_1723,60.0046766842,MAFE4ImagesEEG,001,202296,
AFNE01.JPG,AFNE01.JPG,AFNE01.JPG,AFNE01.JPG,AFNE01.JPG,AFNE01.JPG,5,7,57,5,,,,,,,,,,,,,,,,,,,,,,,AMNE02.jpg,AMSA14.jpg,AMNE19.jpg,AMSA19.jpg,AMSA14.jpg,MS,2,num_6,16,num_6,0.700146096759,,,2017_Nov_10_1723,60.0046766842,MAFE4ImagesEEG,001,202296,
AFNE01.JPG,AFNE01.JPG,AFNE01.JPG,AFNE01.JPG,AFNE01.JPG,AFNE01.JPG,5,8,58,0,,,,,,,,,,,,,,,,,,,,,,,AMSA03.jpg,AMNE16.jpg,AMNE12.jpg,AMSA07.jpg,AMNE16.jpg,MN,1,num_6,32,num_8,0.68346411502,,,2017_Nov_10_1723,60.0046766842,MAFE4ImagesEEG,001,202296,
AFNE01.JPG,AFNE01.JPG,AFNE01.JPG,AFNE01.JPG,AFNE01.JPG,AFNE01.JPG,5,9,59,1,,,,,,,,,,,,,,,,,,,,,,,AMSA04.jpg,AMSA06.jpg,AMNE20.jpg,AMNE14.jpg,AMSA04.jpg,MS,2,num_8,32,num_6,1.05009566061,,,2017_Nov_10_1723,60.0046766842,MAFE4ImagesEEG,001,202296,
,,,,,,,,,,,,,,,,,,,,,,,,,,,,,,,,,,,,,,,,,,,space,2.00008627912,2017_Nov_10_1723,60.0046766842,MAFE4ImagesEEG,001,202296,
AFNE01.JPG,AFNE01.JPG,AFNE01.JPG,AFNE01.JPG,AFNE01.JPG,AFNE01.JPG,,,,,0,0,0,5,,,,,,,,,,,,,,,,,,,AFNE11.jpg,AFNE01.jpg,AFSA12.jpg,AFSA06.jpg,AFNE11.jpg,FN,3,num_8,32,num_4,0.566830083262,,,2017_Nov_10_1723,60.0046766842,MAFE4ImagesEEG,001,202296,
AFNE01.JPG,AFNE01.JPG,AFNE01.JPG,AFNE01.JPG,AFNE01.JPG,AFNE01.JPG,,,,,0,1,1,6,,,,,,,,,,,,,,,,,,,AFSA05.jpg,AFNE11.jpg,AFNE08.jpg,AFSA08.jpg,AFNE11.jpg,FN,3,num_6,16,num_6,0.650119394995,,,2017_Nov_10_1723,60.0046766842,MAFE4ImagesEEG,001,202296,
AFNE01.JPG,AFNE01.JPG,AFNE01.JPG,AFNE01.JPG,AFNE01.JPG,AFNE01.JPG,,,,,0,2,2,1,,,,,,,,,,,,,,,,,,,AFSA04.jpg,AFNE19.jpg,AFNE06.jpg,AFSA02.jpg,AFSA04.jpg,FS,4,num_8,32,num_4,0.76680153748,,,2017_Nov_10_1723,60.0046766842,MAFE4ImagesEEG,001,202296,
AFNE01.JPG,AFNE01.JPG,AFNE01.JPG,AFNE01.JPG,AFNE01.JPG,AFNE01.JPG,,,,,0,3,3,3,,,,,,,,,,,,,,,,,,,AFNE04.jpg,AFSA16.jpg,AFSA06.jpg,AFNE08.jpg,AFNE08.jpg,FN,3,num_4,32,num_8,1.01675895927,,,2017_Nov_10_1723,60.0046766842,MAFE4ImagesEEG,001,202296,
AFNE01.JPG,AFNE01.JPG,AFNE01.JPG,AFNE01.JPG,AFNE01.JPG,AFNE01.JPG,,,,,0,4,4,0,,,,,,,,,,,,,,,,,,,AFSA08.jpg,AFNE01.jpg,AFNE20.jpg,AFSA11.jpg,AFSA11.jpg,FS,4,num_4,16,num_4,0.566976661328,,,2017_Nov_10_1723,60.0046766842,MAFE4ImagesEEG,001,202296,
AFNE01.JPG,AFNE01.JPG,AFNE01.JPG,AFNE01.JPG,AFNE01.JPG,AFNE01.JPG,,,,,0,5,5,7,,,,,,,,,,,,,,,,,,,AFSA19.jpg,AFNE07.jpg,AFNE11.jpg,AFSA08.jpg,AFSA19.jpg,FS,4,num_8,16,num_8,0.8167894301,,,2017_Nov_10_1723,60.0046766842,MAFE4ImagesEEG,001,202296,
AFNE01.JPG,AFNE01.JPG,AFNE01.JPG,AFNE01.JPG,AFNE01.JPG,AFNE01.JPG,,,,,0,6,6,4,,,,,,,,,,,,,,,,,,,AFNE10.jpg,AFNE09.jpg,AFSA01.jpg,AFSA18.jpg,AFSA18.jpg,FS,4,num_4,16,num_4,0.800121880602,,,2017_Nov_10_1723,60.0046766842,MAFE4ImagesEEG,001,202296,
AFNE01.JPG,AFNE01.JPG,AFNE01.JPG,AFNE01.JPG,AFNE01.JPG,AFNE01.JPG,,,,,0,7,7,8,,,,,,,,,,,,,,,,,,,AFNE20.jpg,AFSA12.jpg,AFSA15.jpg,AFNE14.jpg,AFSA15.jpg,FS,4,num_2,16,num_2,0.58347133128,,,2017_Nov_10_1723,60.0046766842,MAFE4ImagesEEG,001,202296,
AFNE01.JPG,AFNE01.JPG,AFNE01.JPG,AFNE01.JPG,AFNE01.JPG,AFNE01.JPG,,,,,0,8,8,2,,,,,,,,,,,,,,,,,,,AFSA04.jpg,AFNE02.jpg,AFNE14.jpg,AFSA19.jpg,AFSA19.jpg,FS,4,num_4,16,num_4,1.20003913017,,,2017_Nov_10_1723,60.0046766842,MAFE4ImagesEEG,001,202296,
AFNE01.JPG,AFNE01.JPG,AFNE01.JPG,AFNE01.JPG,AFNE01.JPG,AFNE01.JPG,,,,,0,9,9,9,,,,,,,,,,,,,,,,,,,AFSA09.jpg,AFNE11.jpg,AFSA16.jpg,AFNE17.jpg,AFNE11.jpg,FN,3,num_6,32,num_8,1.10031576781,,,2017_Nov_10_1723,60.0046766842,MAFE4ImagesEEG,001,202296,
AFNE01.JPG,AFNE01.JPG,AFNE01.JPG,AFNE01.JPG,AFNE01.JPG,AFNE01.JPG,,,,,1,0,10,3,,,,,,,,,,,,,,,,,,,AFNE07.jpg,AFSA16.jpg,AFNE20.jpg,AFSA06.jpg,AFNE07.jpg,FN,3,num_8,16,num_8,0.550158044323,,,2017_Nov_10_1723,60.0046766842,MAFE4ImagesEEG,001,202296,
AFNE01.JPG,AFNE01.JPG,AFNE01.JPG,AFNE01.JPG,AFNE01.JPG,AFNE01.JPG,,,,,1,1,11,0,,,,,,,,,,,,,,,,,,,AFNE01.jpg,AFSA08.jpg,AFSA05.jpg,AFNE10.jpg,AFNE01.jpg,FN,3,num_8,16,num_8,1.51640117448,,,2017_Nov_10_1723,60.0046766842,MAFE4ImagesEEG,001,202296,
AFNE01.JPG,AFNE01.JPG,AFNE01.JPG,AFNE01.JPG,AFNE01.JPG,AFNE01.JPG,,,,,1,2,12,1,,,,,,,,,,,,,,,,,,,AFNE17.jpg,AFSA20.jpg,AFNE04.jpg,AFSA01.jpg,AFNE04.jpg,FN,3,num_2,32,num_8,0.983496348839,,,2017_Nov_10_1723,60.0046766842,MAFE4ImagesEEG,001,202296,
AFNE01.JPG,AFNE01.JPG,AFNE01.JPG,AFNE01.JPG,AFNE01.JPG,AFNE01.JPG,,,,,1,3,13,8,,,,,,,,,,,,,,,,,,,AFSA17.jpg,AFNE01.jpg,AFNE11.jpg,AFSA15.jpg,AFSA15.jpg,FS,4,num_4,16,num_4,0.616657926701,,,2017_Nov_10_1723,60.0046766842,MAFE4ImagesEEG,001,202296,
AFNE01.JPG,AFNE01.JPG,AFNE01.JPG,AFNE01.JPG,AFNE01.JPG,AFNE01.JPG,,,,,1,4,14,2,,,,,,,,,,,,,,,,,,,AFNE07.jpg,AFSA04.jpg,AFSA19.jpg,AFNE14.jpg,AFNE07.jpg,FN,3,num_8,16,num_8,0.633440299891,,,2017_Nov_10_1723,60.0046766842,MAFE4ImagesEEG,001,202296,
AFNE01.JPG,AFNE01.JPG,AFNE01.JPG,AFNE01.JPG,AFNE01.JPG,AFNE01.JPG,,,,,1,5,15,7,,,,,,,,,,,,,,,,,,,AFSA12.jpg,AFSA18.jpg,AFNE14.jpg,AFNE18.jpg,AFNE14.jpg,FN,3,num_2,32,num_4,0.700125890318,,,2017_Nov_10_1723,60.0046766842,MAFE4ImagesEEG,001,202296,
AFNE01.JPG,AFNE01.JPG,AFNE01.JPG,AFNE01.JPG,AFNE01.JPG,AFNE01.JPG,,,,,1,6,16,5,,,,,,,,,,,,,,,,,,,AFNE14.jpg,AFSA04.jpg,AFSA19.jpg,AFNE09.jpg,AFNE09.jpg,FN,3,num_4,32,num_8,0.933459383901,,,2017_Nov_10_1723,60.0046766842,MAFE4ImagesEEG,001,202296,
AFNE01.JPG,AFNE01.JPG,AFNE01.JPG,AFNE01.JPG,AFNE01.JPG,AFNE01.JPG,,,,,1,7,17,6,,,,,,,,,,,,,,,,,,,AFSA18.jpg,AFNE04.jpg,AFSA14.jpg,AFNE17.jpg,AFNE17.jpg,FN,3,num_4,16,num_4,2.01667813305,,,2017_Nov_10_1723,60.0046766842,MAFE4ImagesEEG,001,202296,
AFNE01.JPG,AFNE01.JPG,AFNE01.JPG,AFNE01.JPG,AFNE01.JPG,AFNE01.JPG,,,,,1,8,18,4,,,,,,,,,,,,,,,,,,,AFNE06.jpg,AFSA09.jpg,AFNE10.jpg,AFSA11.jpg,AFSA09.jpg,FS,4,num_6,32,num_2,1.05010015098,,,2017_Nov_10_1723,60.0046766842,MAFE4ImagesEEG,001,202296,
AFNE01.JPG,AFNE01.JPG,AFNE01.JPG,AFNE01.JPG,AFNE01.JPG,AFNE01.JPG,,,,,1,9,19,9,,,,,,,,,,,,,,,,,,,AFSA15.jpg,AFNE18.jpg,AFNE20.jpg,AFSA12.jpg,AFNE20.jpg,FN,3,num_2,32,num_6,1.26674268162,,,2017_Nov_10_1723,60.0046766842,MAFE4ImagesEEG,001,202296,
AFNE01.JPG,AFNE01.JPG,AFNE01.JPG,AFNE01.JPG,AFNE01.JPG,AFNE01.JPG,,,,,2,0,20,7,,,,,,,,,,,,,,,,,,,AFSA14.jpg,AFNE05.jpg,AFNE15.jpg,AFSA19.jpg,AFNE15.jpg,FN,3,num_2,16,num_2,0.666734984145,,,2017_Nov_10_1723,60.0046766842,MAFE4ImagesEEG,001,202296,
AFNE01.JPG,AFNE01.JPG,AFNE01.JPG,AFNE01.JPG,AFNE01.JPG,AFNE01.JPG,,,,,2,1,21,1,,,,,,,,,,,,,,,,,,,AFSA07.jpg,AFNE14.jpg,AFSA05.jpg,AFNE16.jpg,AFSA05.jpg,FS,4,num_2,32,num_4,1.03341528215,,,2017_Nov_10_1723,60.0046766842,MAFE4ImagesEEG,001,202296,
AFNE01.JPG,AFNE01.JPG,AFNE01.JPG,AFNE01.JPG,AFNE01.JPG,AFNE01.JPG,,,,,2,2,22,6,,,,,,,,,,,,,,,,,,,AFNE03.jpg,AFSA15.jpg,AFNE20.jpg,AFSA18.jpg,AFSA18.jpg,FS,4,num_4,32,num_6,0.683152356185,,,2017_Nov_10_1723,60.0046766842,MAFE4ImagesEEG,001,202296,
AFNE01.JPG,AFNE01.JPG,AFNE01.JPG,AFNE01.JPG,AFNE01.JPG,AFNE01.JPG,,,,,2,3,23,0,,,,,,,,,,,,,,,,,,,AFSA08.jpg,AFSA12.jpg,AFNE08.jpg,AFNE13.jpg,AFNE13.jpg,FN,3,num_4,16,num_4,0.816764732823,,,2017_Nov_10_1723,60.0046766842,MAFE4ImagesEEG,001,202296,
AFNE01.JPG,AFNE01.JPG,AFNE01.JPG,AFNE01.JPG,AFNE01.JPG,AFNE01.JPG,,,,,2,4,24,5,,,,,,,,,,,,,,,,,,,AFSA17.jpg,AFNE20.jpg,AFSA05.jpg,AFNE11.jpg,AFNE11.jpg,FN,3,num_4,16,num_4,0.583452728577,,,2017_Nov_10_1723,60.0046766842,MAFE4ImagesEEG,001,202296,
AFNE01.JPG,AFNE01.JPG,AFNE01.JPG,AFNE01.JPG,AFNE01.JPG,AFNE01.JPG,,,,,2,5,25,3,,,,,,,,,,,,,,,,,,,AFSA04.jpg,AFNE03.jpg,AFNE20.jpg,AFSA03.jpg,AFNE03.jpg,FN,3,num_6,32,num_2,1.71668182127,,,2017_Nov_10_1723,60.0046766842,MAFE4ImagesEEG,001,202296,
AFNE01.JPG,AFNE01.JPG,AFNE01.JPG,AFNE01.JPG,AFNE01.JPG,AFNE01.JPG,,,,,2,6,26,9,,,,,,,,,,,,,,,,,,,AFNE03.jpg,AFNE10.jpg,AFSA05.jpg,AFSA09.jpg,AFSA09.jpg,FS,4,num_4,16,num_4,0.966770425905,,,2017_Nov_10_1723,60.0046766842,MAFE4ImagesEEG,001,202296,
AFNE01.JPG,AFNE01.JPG,AFNE01.JPG,AFNE01.JPG,AFNE01.JPG,AFNE01.JPG,,,,,2,7,27,8,,,,,,,,,,,,,,,,,,,AFNE07.jpg,AFNE01.jpg,AFSA19.jpg,AFSA13.jpg,AFNE01.jpg,FN,3,num_6,32,num_4,1.06675775629,,,2017_Nov_10_1723,60.0046766842,MAFE4ImagesEEG,001,202296,
AFNE01.JPG,AFNE01.JPG,AFNE01.JPG,AFNE01.JPG,AFNE01.JPG,AFNE01.JPG,,,,,2,8,28,2,,,,,,,,,,,,,,,,,,,AFNE13.jpg,AFSA05.jpg,AFSA09.jpg,AFNE16.jpg,AFNE16.jpg,FN,3,num_4,16,num_4,0.566764973104,,,2017_Nov_10_1723,60.0046766842,MAFE4ImagesEEG,001,202296,
AFNE01.JPG,AFNE01.JPG,AFNE01.JPG,AFNE01.JPG,AFNE01.JPG,AFNE01.JPG,,,,,2,9,29,4,,,,,,,,,,,,,,,,,,,AFNE12.jpg,AFSA11.jpg,AFNE02.jpg,AFSA20.jpg,AFSA11.jpg,FS,4,num_6,16,num_6,0.766743804794,,,2017_Nov_10_1723,60.0046766842,MAFE4ImagesEEG,001,202296,
AFNE01.JPG,AFNE01.JPG,AFNE01.JPG,AFNE01.JPG,AFNE01.JPG,AFNE01.JPG,,,,,3,0,30,1,,,,,,,,,,,,,,,,,,,AFSA14.jpg,AFNE20.jpg,AFSA01.jpg,AFNE03.jpg,AFSA01.jpg,FS,4,num_2,16,num_2,0.850116508547,,,2017_Nov_10_1723,60.0046766842,MAFE4ImagesEEG,001,202296,
AFNE01.JPG,AFNE01.JPG,AFNE01.JPG,AFNE01.JPG,AFNE01.JPG,AFNE01.JPG,,,,,3,1,31,7,,,,,,,,,,,,,,,,,,,AFSA14.jpg,AFNE12.jpg,AFNE13.jpg,AFSA04.jpg,AFNE13.jpg,FN,3,num_2,32,num_4,0.800132786389,,,2017_Nov_10_1723,60.0046766842,MAFE4ImagesEEG,001,202296,
AFNE01.JPG,AFNE01.JPG,AFNE01.JPG,AFNE01.JPG,AFNE01.JPG,AFNE01.JPG,,,,,3,2,32,0,,,,,,,,,,,,,,,,,,,AFNE16.jpg,AFSA17.jpg,AFSA13.jpg,AFNE13.jpg,AFSA17.jpg,FS,4,num_6,32,num_2,1.20014593657,,,2017_Nov_10_1723,60.0046766842,MAFE4ImagesEEG,001,202296,
AFNE01.JPG,AFNE01.JPG,AFNE01.JPG,AFNE01.JPG,AFNE01.JPG,AFNE01.JPG,,,,,3,3,33,4,,,,,,,,,,,,,,,,,,,AFSA12.jpg,AFNE05.jpg,AFSA07.jpg,AFNE09.jpg,AFSA07.jpg,FS,4,num_2,16,num_2,1.50004442269,,,2017_Nov_10_1723,60.0046766842,MAFE4ImagesEEG,001,202296,
AFNE01.JPG,AFNE01.JPG,AFNE01.JPG,AFNE01.JPG,AFNE01.JPG,AFNE01.JPG,,,,,3,4,34,5,,,,,,,,,,,,,,,,,,,AFSA15.jpg,AFSA09.jpg,AFNE06.jpg,AFNE20.jpg,AFNE06.jpg,FN,3,num_2,32,num_4,0.683317216113,,,2017_Nov_10_1723,60.0046766842,MAFE4ImagesEEG,001,202296,
AFNE01.JPG,AFNE01.JPG,AFNE01.JPG,AFNE01.JPG,AFNE01.JPG,AFNE01.JPG,,,,,3,5,35,8,,,,,,,,,,,,,,,,,,,AFSA13.jpg,AFSA18.jpg,AFNE14.jpg,AFNE01.jpg,AFNE01.jpg,FN,3,num_4,32,num_6,0.833228291478,,,2017_Nov_10_1723,60.0046766842,MAFE4ImagesEEG,001,202296,
AFNE01.JPG,AFNE01.JPG,AFNE01.JPG,AFNE01.JPG,AFNE01.JPG,AFNE01.JPG,,,,,3,6,36,9,,,,,,,,,,,,,,,,,,,AFSA11.jpg,AFNE20.jpg,AFSA15.jpg,AFNE14.jpg,AFNE14.jpg,FN,3,num_4,32,num_8,1.21674484713,,,2017_Nov_10_1723,60.0046766842,MAFE4ImagesEEG,001,202296,
AFNE01.JPG,AFNE01.JPG,AFNE01.JPG,AFNE01.JPG,AFNE01.JPG,AFNE01.JPG,,,,,3,7,37,2,,,,,,,,,,,,,,,,,,,AFNE02.jpg,AFSA06.jpg,AFSA17.jpg,AFNE18.jpg,AFNE02.jpg,FN,3,num_8,32,num_4,0.766593377572,,,2017_Nov_10_1723,60.0046766842,MAFE4ImagesEEG,001,202296,
AFNE01.JPG,AFNE01.JPG,AFNE01.JPG,AFNE01.JPG,AFNE01.JPG,AFNE01.JPG,,,,,3,8,38,6,,,,,,,,,,,,,,,,,,,AFNE03.jpg,AFNE17.jpg,AFSA19.jpg,AFSA09.jpg,AFSA09.jpg,FS,4,num_4,32,num_6,0.716777401976,,,2017_Nov_10_1723,60.0046766842,MAFE4ImagesEEG,001,202296,
AFNE01.JPG,AFNE01.JPG,AFNE01.JPG,AFNE01.JPG,AFNE01.JPG,AFNE01.JPG,,,,,3,9,39,3,,,,,,,,,,,,,,,,,,,AFSA19.jpg,AFNE02.jpg,AFNE12.jpg,AFSA06.jpg,AFNE12.jpg,FN,3,num_2,16,num_2,0.650097905658,,,2017_Nov_10_1723,60.0046766842,MAFE4ImagesEEG,001,202296,
AFNE01.JPG,AFNE01.JPG,AFNE01.JPG,AFNE01.JPG,AFNE01.JPG,AFNE01.JPG,,,,,4,0,40,7,,,,,,,,,,,,,,,,,,,AFSA20.jpg,AFSA06.jpg,AFNE03.jpg,AFNE01.jpg,AFSA06.jpg,FS,4,num_6,32,num_4,0.666660572402,,,2017_Nov_10_1723,60.0046766842,MAFE4ImagesEEG,001,202296,
AFNE01.JPG,AFNE01.JPG,AFNE01.JPG,AFNE01.JPG,AFNE01.JPG,AFNE01.JPG,,,,,4,1,41,8,,,,,,,,,,,,,,,,,,,AFNE02.jpg,AFNE09.jpg,AFSA17.jpg,AFSA08.jpg,AFSA08.jpg,FS,4,num_4,32,num_6,0.666628498584,,,2017_Nov_10_1723,60.0046766842,MAFE4ImagesEEG,001,202296,
AFNE01.JPG,AFNE01.JPG,AFNE01.JPG,AFNE01.JPG,AFNE01.JPG,AFNE01.JPG,,,,,4,2,42,1,,,,,,,,,,,,,,,,,,,AFSA19.jpg,AFNE15.jpg,AFNE08.jpg,AFSA11.jpg,AFSA19.jpg,FS,4,num_8,32,num_2,1.13349370332,,,2017_Nov_10_1723,60.0046766842,MAFE4ImagesEEG,001,202296,
AFNE01.JPG,AFNE01.JPG,AFNE01.JPG,AFNE01.JPG,AFNE01.JPG,AFNE01.JPG,,,,,4,3,43,5,,,,,,,,,,,,,,,,,,,AFNE18.jpg,AFSA11.jpg,AFNE14.jpg,AFSA17.jpg,AFSA11.jpg,FS,4,num_6,16,num_6,0.500267656986,,,2017_Nov_10_1723,60.0046766842,MAFE4ImagesEEG,001,202296,
AFNE01.JPG,AFNE01.JPG,AFNE01.JPG,AFNE01.JPG,AFNE01.JPG,AFNE01.JPG,,,,,4,4,44,0,,,,,,,,,,,,,,,,,,,AFSA07.jpg,AFSA17.jpg,AFNE09.jpg,AFNE06.jpg,AFSA17.jpg,FS,4,num_6,32,num_2,1.25012131967,,,2017_Nov_10_1723,60.0046766842,MAFE4ImagesEEG,001,202296,
AFNE01.JPG,AFNE01.JPG,AFNE01.JPG,AFNE01.JPG,AFNE01.JPG,AFNE01.JPG,,,,,4,5,45,6,,,,,,,,,,,,,,,,,,,AFSA20.jpg,AFNE20.jpg,AFSA16.jpg,AFNE12.jpg,AFNE20.jpg,FN,3,num_6,32,num_2,0.866848526057,,,2017_Nov_10_1723,60.0046766842,MAFE4ImagesEEG,001,202296,
AFNE01.JPG,AFNE01.JPG,AFNE01.JPG,AFNE01.JPG,AFNE01.JPG,AFNE01.JPG,,,,,4,6,46,3,,,,,,,,,,,,,,,,,,,AFSA08.jpg,AFNE14.jpg,AFSA15.jpg,AFNE01.jpg,AFNE14.jpg,FN,3,num_6,32,num_4,0.750099028461,,,2017_Nov_10_1723,60.0046766842,MAFE4ImagesEEG,001,202296,
AFNE01.JPG,AFNE01.JPG,AFNE01.JPG,AFNE01.JPG,AFNE01.JPG,AFNE01.JPG,,,,,4,7,47,4,,,,,,,,,,,,,,,,,,,AFSA05.jpg,AFSA02.jpg,AFNE09.jpg,AFNE18.jpg,AFSA05.jpg,FS,4,num_8,32,num_6,0.93347542081,,,2017_Nov_10_1723,60.0046766842,MAFE4ImagesEEG,001,202296,
AFNE01.JPG,AFNE01.JPG,AFNE01.JPG,AFNE01.JPG,AFNE01.JPG,AFNE01.JPG,,,,,4,8,48,9,,,,,,,,,,,,,,,,,,,AFNE13.jpg,AFNE08.jpg,AFSA20.jpg,AFSA11.jpg,AFSA11.jpg,FS,4,num_4,16,num_4,0.550134309568,,,2017_Nov_10_1723,60.0046766842,MAFE4ImagesEEG,001,202296,
AFNE01.JPG,AFNE01.JPG,AFNE01.JPG,AFNE01.JPG,AFNE01.JPG,AFNE01.JPG,,,,,4,9,49,2,,,,,,,,,,,,,,,,,,,AFSA12.jpg,AFNE01.jpg,AFSA06.jpg,AFNE09.jpg,AFNE01.jpg,FN,3,num_6,16,num_6,0.93348183576,,,2017_Nov_10_1723,60.0046766842,MAFE4ImagesEEG,001,202296,
AFNE01.JPG,AFNE01.JPG,AFNE01.JPG,AFNE01.JPG,AFNE01.JPG,AFNE01.JPG,,,,,5,0,50,3,,,,,,,,,,,,,,,,,,,AFSA13.jpg,AFNE11.jpg,AFNE15.jpg,AFSA14.jpg,AFNE15.jpg,FN,3,num_2,16,num_2,0.783445351757,,,2017_Nov_10_1723,60.0046766842,MAFE4ImagesEEG,001,202296,
AFNE01.JPG,AFNE01.JPG,AFNE01.JPG,AFNE01.JPG,AFNE01.JPG,AFNE01.JPG,,,,,5,1,51,4,,,,,,,,,,,,,,,,,,,AFNE17.jpg,AFSA18.jpg,AFSA20.jpg,AFNE20.jpg,AFNE17.jpg,FN,3,num_8,32,num_4,0.816770185251,,,2017_Nov_10_1723,60.0046766842,MAFE4ImagesEEG,001,202296,
AFNE01.JPG,AFNE01.JPG,AFNE01.JPG,AFNE01.JPG,AFNE01.JPG,AFNE01.JPG,,,,,5,2,52,7,,,,,,,,,,,,,,,,,,,AFNE05.jpg,AFSA12.jpg,AFNE08.jpg,AFSA10.jpg,AFSA10.jpg,FS,4,num_4,32,num_8,0.75007208623,,,2017_Nov_10_1723,60.0046766842,MAFE4ImagesEEG,001,202296,
AFNE01.JPG,AFNE01.JPG,AFNE01.JPG,AFNE01.JPG,AFNE01.JPG,AFNE01.JPG,,,,,5,3,53,6,,,,,,,,,,,,,,,,,,,AFNE08.jpg,AFNE19.jpg,AFSA08.jpg,AFSA07.jpg,AFSA07.jpg,FS,4,num_4,16,num_4,0.833444469608,,,2017_Nov_10_1723,60.0046766842,MAFE4ImagesEEG,001,202296,
AFNE01.JPG,AFNE01.JPG,AFNE01.JPG,AFNE01.JPG,AFNE01.JPG,AFNE01.JPG,,,,,5,4,54,8,,,,,,,,,,,,,,,,,,,AFSA02.jpg,AFSA15.jpg,AFNE07.jpg,AFNE02.jpg,AFNE02.jpg,FN,3,num_4,16,num_4,0.616790712811,,,2017_Nov_10_1723,60.0046766842,MAFE4ImagesEEG,001,202296,
AFNE01.JPG,AFNE01.JPG,AFNE01.JPG,AFNE01.JPG,AFNE01.JPG,AFNE01.JPG,,,,,5,5,55,1,,,,,,,,,,,,,,,,,,,AFNE13.jpg,AFSA13.jpg,AFSA01.jpg,AFNE07.jpg,AFSA13.jpg,FS,4,num_6,16,num_6,1.03344158316,,,2017_Nov_10_1723,60.0046766842,MAFE4ImagesEEG,001,202296,
AFNE01.JPG,AFNE01.JPG,AFNE01.JPG,AFNE01.JPG,AFNE01.JPG,AFNE01.JPG,,,,,5,6,56,5,,,,,,,,,,,,,,,,,,,AFNE04.jpg,AFNE08.jpg,AFSA11.jpg,AFSA17.jpg,AFSA17.jpg,FS,4,num_4,16,num_4,1.2164462381,,,2017_Nov_10_1723,60.0046766842,MAFE4ImagesEEG,001,202296,
AFNE01.JPG,AFNE01.JPG,AFNE01.JPG,AFNE01.JPG,AFNE01.JPG,AFNE01.JPG,,,,,5,7,57,0,,,,,,,,,,,,,,,,,,,AFNE18.jpg,AFSA12.jpg,AFSA18.jpg,AFNE15.jpg,AFNE18.jpg,FN,3,num_8,16,num_8,0.833307834808,,,2017_Nov_10_1723,60.0046766842,MAFE4ImagesEEG,001,202296,
AFNE01.JPG,AFNE01.JPG,AFNE01.JPG,AFNE01.JPG,AFNE01.JPG,AFNE01.JPG,,,,,5,8,58,9,,,,,,,,,,,,,,,,,,,AFSA05.jpg,AFNE13.jpg,AFNE01.jpg,AFSA10.jpg,AFSA10.jpg,FS,4,num_4,32,num_8,1.00008788239,,,2017_Nov_10_1723,60.0046766842,MAFE4ImagesEEG,001,202296,
AFNE01.JPG,AFNE01.JPG,AFNE01.JPG,AFNE01.JPG,AFNE01.JPG,AFNE01.JPG,,,,,5,9,59,2,,,,,,,,,,,,,,,,,,,AFNE20.jpg,AFSA10.jpg,AFNE18.jpg,AFSA06.jpg,AFSA10.jpg,FS,4,num_6,32,num_2,1.01676088385,,,2017_Nov_10_1723,60.0046766842,MAFE4ImagesEEG,001,202296,
,,,,,,,,,,,,,,,,,,,,,,,,,,,,,,,,,,,,,,,,,,,space,5.04976529907,2017_Nov_10_1723,60.0046766842,MAFE4ImagesEEG,001,202296,
AFNE01.JPG,AFNE01.JPG,AFNE01.JPG,AFNE01.JPG,AFNE01.JPG,AFNE01.JPG,,,,,,,,,0,0,0,2,,,,,,,,,,,,,,,AMSA03.jpg,AMNE01.jpg,AMNE03.jpg,AMSA10.jpg,AMSA03.jpg,MS,2,num_8,32,num_2,0.800149144139,,,2017_Nov_10_1723,60.0046766842,MAFE4ImagesEEG,001,202296,
AFNE01.JPG,AFNE01.JPG,AFNE01.JPG,AFNE01.JPG,AFNE01.JPG,AFNE01.JPG,,,,,,,,,0,1,1,4,,,,,,,,,,,,,,,AMSA06.jpg,AMSA13.jpg,AMNE17.jpg,AMNE04.jpg,AMNE04.jpg,MN,1,num_4,16,num_4,0.666755511425,,,2017_Nov_10_1723,60.0046766842,MAFE4ImagesEEG,001,202296,
AFNE01.JPG,AFNE01.JPG,AFNE01.JPG,AFNE01.JPG,AFNE01.JPG,AFNE01.JPG,,,,,,,,,0,2,2,6,,,,,,,,,,,,,,,AMNE16.jpg,AMSA07.jpg,AMSA04.jpg,AMNE12.jpg,AMNE12.jpg,MN,1,num_4,32,num_8,0.600148823112,,,2017_Nov_10_1723,60.0046766842,MAFE4ImagesEEG,001,202296,
AFNE01.JPG,AFNE01.JPG,AFNE01.JPG,AFNE01.JPG,AFNE01.JPG,AFNE01.JPG,,,,,,,,,0,3,3,5,,,,,,,,,,,,,,,AMNE17.jpg,AMNE20.jpg,AMSA16.jpg,AMSA02.jpg,AMNE20.jpg,MN,1,num_6,32,num_2,0.900124928448,,,2017_Nov_10_1723,60.0046766842,MAFE4ImagesEEG,001,202296,
AFNE01.JPG,AFNE01.JPG,AFNE01.JPG,AFNE01.JPG,AFNE01.JPG,AFNE01.JPG,,,,,,,,,0,4,4,0,,,,,,,,,,,,,,,AMNE17.jpg,AMSA11.jpg,AMSA19.jpg,AMNE06.jpg,AMSA19.jpg,MS,2,num_2,32,num_8,0.683363402728,,,2017_Nov_10_1723,60.0046766842,MAFE4ImagesEEG,001,202296,
AFNE01.JPG,AFNE01.JPG,AFNE01.JPG,AFNE01.JPG,AFNE01.JPG,AFNE01.JPG,,,,,,,,,0,5,5,9,,,,,,,,,,,,,,,AMNE09.jpg,AMSA20.jpg,AMSA06.jpg,AMNE19.jpg,AMSA20.jpg,MS,2,num_6,32,num_8,0.783452728763,,,2017_Nov_10_1723,60.0046766842,MAFE4ImagesEEG,001,202296,
AFNE01.JPG,AFNE01.JPG,AFNE01.JPG,AFNE01.JPG,AFNE01.JPG,AFNE01.JPG,,,,,,,,,0,6,6,8,,,,,,,,,,,,,,,AMNE18.jpg,AMNE14.jpg,AMSA17.jpg,AMSA10.jpg,AMSA10.jpg,MS,2,num_4,16,num_4,0.516781892162,,,2017_Nov_10_1723,60.0046766842,MAFE4ImagesEEG,001,202296,
AFNE01.JPG,AFNE01.JPG,AFNE01.JPG,AFNE01.JPG,AFNE01.JPG,AFNE01.JPG,,,,,,,,,0,7,7,3,,,,,,,,,,,,,,,AMNE18.jpg,AMNE03.jpg,AMSA17.jpg,AMSA10.jpg,AMNE03.jpg,MN,1,num_6,32,num_2,0.900122041348,,,2017_Nov_10_1723,60.0046766842,MAFE4ImagesEEG,001,202296,
AFNE01.JPG,AFNE01.JPG,AFNE01.JPG,AFNE01.JPG,AFNE01.JPG,AFNE01.JPG,,,,,,,,,0,8,8,1,,,,,,,,,,,,,,,AMSA01.jpg,AMNE14.jpg,AMNE10.jpg,AMSA03.jpg,AMNE10.jpg,MN,1,num_2,32,num_4,1.26695244573,,,2017_Nov_10_1723,60.0046766842,MAFE4ImagesEEG,001,202296,
AFNE01.JPG,AFNE01.JPG,AFNE01.JPG,AFNE01.JPG,AFNE01.JPG,AFNE01.JPG,,,,,,,,,0,9,9,7,,,,,,,,,,,,,,,AMNE08.jpg,AMSA08.jpg,AMSA07.jpg,AMNE11.jpg,AMSA08.jpg,MS,2,num_6,32,num_2,1.15014906367,,,2017_Nov_10_1723,60.0046766842,MAFE4ImagesEEG,001,202296,
AFNE01.JPG,AFNE01.JPG,AFNE01.JPG,AFNE01.JPG,AFNE01.JPG,AFNE01.JPG,,,,,,,,,1,0,10,5,,,,,,,,,,,,,,,AMNE03.jpg,AMSA09.jpg,AMSA20.jpg,AMNE05.jpg,AMSA09.jpg,MS,2,num_6,16,num_6,0.616754468996,,,2017_Nov_10_1723,60.0046766842,MAFE4ImagesEEG,001,202296,
AFNE01.JPG,AFNE01.JPG,AFNE01.JPG,AFNE01.JPG,AFNE01.JPG,AFNE01.JPG,,,,,,,,,1,1,11,2,,,,,,,,,,,,,,,AMNE08.jpg,AMSA06.jpg,AMSA14.jpg,AMNE15.jpg,AMSA14.jpg,MS,2,num_2,32,num_4,0.833514069673,,,2017_Nov_10_1723,60.0046766842,MAFE4ImagesEEG,001,202296,
AFNE01.JPG,AFNE01.JPG,AFNE01.JPG,AFNE01.JPG,AFNE01.JPG,AFNE01.JPG,,,,,,,,,1,2,12,0,,,,,,,,,,,,,,,AMNE16.jpg,AMNE10.jpg,AMSA02.jpg,AMSA07.jpg,AMNE16.jpg,MN,1,num_8,32,num_6,0.850367968436,,,2017_Nov_10_1723,60.0046766842,MAFE4ImagesEEG,001,202296,
AFNE01.JPG,AFNE01.JPG,AFNE01.JPG,AFNE01.JPG,AFNE01.JPG,AFNE01.JPG,,,,,,,,,1,3,13,3,,,,,,,,,,,,,,,AMSA07.jpg,AMNE02.jpg,AMNE14.jpg,AMSA16.jpg,AMNE02.jpg,MN,1,num_6,32,num_4,0.883461869322,,,2017_Nov_10_1723,60.0046766842,MAFE4ImagesEEG,001,202296,
AFNE01.JPG,AFNE01.JPG,AFNE01.JPG,AFNE01.JPG,AFNE01.JPG,AFNE01.JPG,,,,,,,,,1,4,14,4,,,,,,,,,,,,,,,AMSA10.jpg,AMSA11.jpg,AMNE16.jpg,AMNE09.jpg,AMNE09.jpg,MN,1,num_4,32,num_8,0.650129979942,,,2017_Nov_10_1723,60.0046766842,MAFE4ImagesEEG,001,202296,
AFNE01.JPG,AFNE01.JPG,AFNE01.JPG,AFNE01.JPG,AFNE01.JPG,AFNE01.JPG,,,,,,,,,1,5,15,6,,,,,,,,,,,,,,,AMSA13.jpg,AMNE01.jpg,AMSA12.jpg,AMNE04.jpg,AMSA13.jpg,MS,2,num_8,16,num_8,0.800194368232,,,2017_Nov_10_1723,60.0046766842,MAFE4ImagesEEG,001,202296,
AFNE01.JPG,AFNE01.JPG,AFNE01.JPG,AFNE01.JPG,AFNE01.JPG,AFNE01.JPG,,,,,,,,,1,6,16,8,,,,,,,,,,,,,,,AMNE02.jpg,AMSA02.jpg,AMNE14.jpg,AMSA11.jpg,AMNE14.jpg,MN,1,num_2,32,num_4,0.816734262742,,,2017_Nov_10_1723,60.0046766842,MAFE4ImagesEEG,001,202296,
AFNE01.JPG,AFNE01.JPG,AFNE01.JPG,AFNE01.JPG,AFNE01.JPG,AFNE01.JPG,,,,,,,,,1,7,17,9,,,,,,,,,,,,,,,AMNE20.jpg,AMNE02.jpg,AMSA12.jpg,AMSA14.jpg,AMSA12.jpg,MS,2,num_2,32,num_8,0.766788066365,,,2017_Nov_10_1723,60.0046766842,MAFE4ImagesEEG,001,202296,
AFNE01.JPG,AFNE01.JPG,AFNE01.JPG,AFNE01.JPG,AFNE01.JPG,AFNE01.JPG,,,,,,,,,1,8,18,1,,,,,,,,,,,,,,,AMNE09.jpg,AMSA14.jpg,AMSA15.jpg,AMNE18.jpg,AMSA15.jpg,MS,2,num_2,32,num_4,0.716799532995,,,2017_Nov_10_1723,60.0046766842,MAFE4ImagesEEG,001,202296,
AFNE01.JPG,AFNE01.JPG,AFNE01.JPG,AFNE01.JPG,AFNE01.JPG,AFNE01.JPG,,,,,,,,,1,9,19,7,,,,,,,,,,,,,,,AMNE19.jpg,AMNE05.jpg,AMSA08.jpg,AMSA14.jpg,AMSA14.jpg,MS,2,num_4,16,num_4,0.733488571364,,,2017_Nov_10_1723,60.0046766842,MAFE4ImagesEEG,001,202296,
AFNE01.JPG,AFNE01.JPG,AFNE01.JPG,AFNE01.JPG,AFNE01.JPG,AFNE01.JPG,,,,,,,,,2,0,20,5,,,,,,,,,,,,,,,AMNE14.jpg,AMNE19.jpg,AMSA02.jpg,AMSA20.jpg,AMNE14.jpg,MN,1,num_8,16,num_8,0.61677371338,,,2017_Nov_10_1723,60.0046766842,MAFE4ImagesEEG,001,202296,
AFNE01.JPG,AFNE01.JPG,AFNE01.JPG,AFNE01.JPG,AFNE01.JPG,AFNE01.JPG,,,,,,,,,2,1,21,9,,,,,,,,,,,,,,,AMSA02.jpg,AMNE04.jpg,AMNE15.jpg,AMSA12.jpg,AMNE04.jpg,MN,1,num_6,32,num_8,0.816752865445,,,2017_Nov_10_1723,60.0046766842,MAFE4ImagesEEG,001,202296,
AFNE01.JPG,AFNE01.JPG,AFNE01.JPG,AFNE01.JPG,AFNE01.JPG,AFNE01.JPG,,,,,,,,,2,2,22,8,,,,,,,,,,,,,,,AMNE20.jpg,AMSA04.jpg,AMSA17.jpg,AMNE12.jpg,AMSA04.jpg,MS,2,num_6,16,num_6,0.816827276722,,,2017_Nov_10_1723,60.0046766842,MAFE4ImagesEEG,001,202296,
AFNE01.JPG,AFNE01.JPG,AFNE01.JPG,AFNE01.JPG,AFNE01.JPG,AFNE01.JPG,,,,,,,,,2,3,23,6,,,,,,,,,,,,,,,AMNE11.jpg,AMSA11.jpg,AMNE13.jpg,AMSA07.jpg,AMNE13.jpg,MN,1,num_2,32,num_4,0.633486486506,,,2017_Nov_10_1723,60.0046766842,MAFE4ImagesEEG,001,202296,
AFNE01.JPG,AFNE01.JPG,AFNE01.JPG,AFNE01.JPG,AFNE01.JPG,AFNE01.JPG,,,,,,,,,2,4,24,1,,,,,,,,,,,,,,,AMSA17.jpg,AMSA11.jpg,AMNE17.jpg,AMNE03.jpg,AMSA11.jpg,MS,2,num_6,16,num_6,1.93335867161,,,2017_Nov_10_1723,60.0046766842,MAFE4ImagesEEG,001,202296,
AFNE01.JPG,AFNE01.JPG,AFNE01.JPG,AFNE01.JPG,AFNE01.JPG,AFNE01.JPG,,,,,,,,,2,5,25,7,,,,,,,,,,,,,,,AMNE14.jpg,AMSA11.jpg,AMNE07.jpg,AMSA05.jpg,AMNE14.jpg,MN,1,num_8,16,num_8,0.700114343781,,,2017_Nov_10_1723,60.0046766842,MAFE4ImagesEEG,001,202296,
AFNE01.JPG,AFNE01.JPG,AFNE01.JPG,AFNE01.JPG,AFNE01.JPG,AFNE01.JPG,,,,,,,,,2,6,26,0,,,,,,,,,,,,,,,AMNE20.jpg,AMSA15.jpg,AMSA20.jpg,AMNE06.jpg,AMSA20.jpg,MS,2,num_2,32,num_8,0.716757836752,,,2017_Nov_10_1723,60.0046766842,MAFE4ImagesEEG,001,202296,
AFNE01.JPG,AFNE01.JPG,AFNE01.JPG,AFNE01.JPG,AFNE01.JPG,AFNE01.JPG,,,,,,,,,2,7,27,3,,,,,,,,,,,,,,,AMNE06.jpg,AMNE19.jpg,AMSA11.jpg,AMSA16.jpg,AMNE19.jpg,MN,1,num_6,32,num_8,0.700092853978,,,2017_Nov_10_1723,60.0046766842,MAFE4ImagesEEG,001,202296,
AFNE01.JPG,AFNE01.JPG,AFNE01.JPG,AFNE01.JPG,AFNE01.JPG,AFNE01.JPG,,,,,,,,,2,8,28,4,,,,,,,,,,,,,,,AMNE19.jpg,AMSA15.jpg,AMNE03.jpg,AMSA08.jpg,AMSA08.jpg,MS,2,num_4,16,num_4,0.866884128191,,,2017_Nov_10_1723,60.0046766842,MAFE4ImagesEEG,001,202296,
AFNE01.JPG,AFNE01.JPG,AFNE01.JPG,AFNE01.JPG,AFNE01.JPG,AFNE01.JPG,,,,,,,,,2,9,29,2,,,,,,,,,,,,,,,AMNE18.jpg,AMSA19.jpg,AMSA12.jpg,AMNE17.jpg,AMSA19.jpg,MS,2,num_6,16,num_6,0.533470930532,,,2017_Nov_10_1723,60.0046766842,MAFE4ImagesEEG,001,202296,
AFNE01.JPG,AFNE01.JPG,AFNE01.JPG,AFNE01.JPG,AFNE01.JPG,AFNE01.JPG,,,,,,,,,3,0,30,7,,,,,,,,,,,,,,,AMSA03.jpg,AMSA19.jpg,AMNE19.jpg,AMNE17.jpg,AMNE17.jpg,MN,1,num_4,32,num_2,1.35010031145,,,2017_Nov_10_1723,60.0046766842,MAFE4ImagesEEG,001,202296,
AFNE01.JPG,AFNE01.JPG,AFNE01.JPG,AFNE01.JPG,AFNE01.JPG,AFNE01.JPG,,,,,,,,,3,1,31,0,,,,,,,,,,,,,,,AMNE17.jpg,AMSA13.jpg,AMSA02.jpg,AMNE16.jpg,AMNE16.jpg,MN,1,num_4,16,num_4,0.866780529264,,,2017_Nov_10_1723,60.0046766842,MAFE4ImagesEEG,001,202296,
AFNE01.JPG,AFNE01.JPG,AFNE01.JPG,AFNE01.JPG,AFNE01.JPG,AFNE01.JPG,,,,,,,,,3,2,32,1,,,,,,,,,,,,,,,AMSA05.jpg,AMNE12.jpg,AMNE13.jpg,AMSA10.jpg,AMSA05.jpg,MS,2,num_8,16,num_8,0.866761605255,,,2017_Nov_10_1723,60.0046766842,MAFE4ImagesEEG,001,202296,
AFNE01.JPG,AFNE01.JPG,AFNE01.JPG,AFNE01.JPG,AFNE01.JPG,AFNE01.JPG,,,,,,,,,3,3,33,5,,,,,,,,,,,,,,,AMSA04.jpg,AMNE20.jpg,AMNE11.jpg,AMSA09.jpg,AMSA04.jpg,MS,2,num_8,16,num_8,0.550141686574,,,2017_Nov_10_1723,60.0046766842,MAFE4ImagesEEG,001,202296,
AFNE01.JPG,AFNE01.JPG,AFNE01.JPG,AFNE01.JPG,AFNE01.JPG,AFNE01.JPG,,,,,,,,,3,4,34,4,,,,,,,,,,,,,,,AMSA15.jpg,AMNE04.jpg,AMNE19.jpg,AMSA12.jpg,AMNE19.jpg,MN,1,num_2,32,num_4,0.766752464231,,,2017_Nov_10_1723,60.0046766842,MAFE4ImagesEEG,001,202296,
AFNE01.JPG,AFNE01.JPG,AFNE01.JPG,AFNE01.JPG,AFNE01.JPG,AFNE01.JPG,,,,,,,,,3,5,35,3,,,,,,,,,,,,,,,AMNE12.jpg,AMSA12.jpg,AMSA19.jpg,AMNE15.jpg,AMNE15.jpg,MN,1,num_4,32,num_6,1.08346026624,,,2017_Nov_10_1723,60.0046766842,MAFE4ImagesEEG,001,202296,
AFNE01.JPG,AFNE01.JPG,AFNE01.JPG,AFNE01.JPG,AFNE01.JPG,AFNE01.JPG,,,,,,,,,3,6,36,2,,,,,,,,,,,,,,,AMNE16.jpg,AMSA07.jpg,AMSA01.jpg,AMNE19.jpg,AMNE19.jpg,MN,1,num_4,16,num_4,0.80012669228,,,2017_Nov_10_1723,60.0046766842,MAFE4ImagesEEG,001,202296,
AFNE01.JPG,AFNE01.JPG,AFNE01.JPG,AFNE01.JPG,AFNE01.JPG,AFNE01.JPG,,,,,,,,,3,7,37,8,,,,,,,,,,,,,,,AMSA20.jpg,AMSA09.jpg,AMNE18.jpg,AMNE12.jpg,AMNE18.jpg,MN,1,num_2,16,num_2,0.933404858224,,,2017_Nov_10_1723,60.0046766842,MAFE4ImagesEEG,001,202296,
AFNE01.JPG,AFNE01.JPG,AFNE01.JPG,AFNE01.JPG,AFNE01.JPG,AFNE01.JPG,,,,,,,,,3,8,38,9,,,,,,,,,,,,,,,AMNE17.jpg,AMNE01.jpg,AMSA11.jpg,AMSA04.jpg,AMSA04.jpg,MS,2,num_4,16,num_4,0.6835273006,,,2017_Nov_10_1723,60.0046766842,MAFE4ImagesEEG,001,202296,
AFNE01.JPG,AFNE01.JPG,AFNE01.JPG,AFNE01.JPG,AFNE01.JPG,AFNE01.JPG,,,,,,,,,3,9,39,6,,,,,,,,,,,,,,,AMNE19.jpg,AMNE08.jpg,AMSA16.jpg,AMSA13.jpg,AMNE19.jpg,MN,1,num_8,32,num_4,1.83338609478,,,2017_Nov_10_1723,60.0046766842,MAFE4ImagesEEG,001,202296,
AFNE01.JPG,AFNE01.JPG,AFNE01.JPG,AFNE01.JPG,AFNE01.JPG,AFNE01.JPG,,,,,,,,,4,0,40,7,,,,,,,,,,,,,,,AMSA03.jpg,AMNE13.jpg,AMSA19.jpg,AMNE09.jpg,AMNE13.jpg,MN,1,num_6,16,num_6,0.766923097894,,,2017_Nov_10_1723,60.0046766842,MAFE4ImagesEEG,001,202296,
AFNE01.JPG,AFNE01.JPG,AFNE01.JPG,AFNE01.JPG,AFNE01.JPG,AFNE01.JPG,,,,,,,,,4,1,41,4,,,,,,,,,,,,,,,AMSA14.jpg,AMNE02.jpg,AMSA20.jpg,AMNE19.jpg,AMNE02.jpg,MN,1,num_6,32,num_2,0.866619838867,,,2017_Nov_10_1723,60.0046766842,MAFE4ImagesEEG,001,202296,
AFNE01.JPG,AFNE01.JPG,AFNE01.JPG,AFNE01.JPG,AFNE01.JPG,AFNE01.JPG,,,,,,,,,4,2,42,5,,,,,,,,,,,,,,,AMSA18.jpg,AMNE18.jpg,AMNE15.jpg,AMSA15.jpg,AMSA18.jpg,MS,2,num_8,16,num_8,1.26675422862,,,2017_Nov_10_1723,60.0046766842,MAFE4ImagesEEG,001,202296,
AFNE01.JPG,AFNE01.JPG,AFNE01.JPG,AFNE01.JPG,AFNE01.JPG,AFNE01.JPG,,,,,,,,,4,3,43,2,,,,,,,,,,,,,,,AMNE19.jpg,AMSA07.jpg,AMSA10.jpg,AMNE18.jpg,AMNE19.jpg,MN,1,num_8,32,num_4,1.0835186406,,,2017_Nov_10_1723,60.0046766842,MAFE4ImagesEEG,001,202296,
AFNE01.JPG,AFNE01.JPG,AFNE01.JPG,AFNE01.JPG,AFNE01.JPG,AFNE01.JPG,,,,,,,,,4,4,44,1,,,,,,,,,,,,,,,AMNE12.jpg,AMSA04.jpg,AMNE10.jpg,AMSA11.jpg,AMNE10.jpg,MN,1,num_2,16,num_2,0.700162454508,,,2017_Nov_10_1723,60.0046766842,MAFE4ImagesEEG,001,202296,
AFNE01.JPG,AFNE01.JPG,AFNE01.JPG,AFNE01.JPG,AFNE01.JPG,AFNE01.JPG,,,,,,,,,4,5,45,9,,,,,,,,,,,,,,,AMSA04.jpg,AMNE17.jpg,AMSA16.jpg,AMNE06.jpg,AMSA16.jpg,MS,2,num_2,32,num_6,1.26676288852,,,2017_Nov_10_1723,60.0046766842,MAFE4ImagesEEG,001,202296,
AFNE01.JPG,AFNE01.JPG,AFNE01.JPG,AFNE01.JPG,AFNE01.JPG,AFNE01.JPG,,,,,,,,,4,6,46,6,,,,,,,,,,,,,,,AMNE05.jpg,AMSA10.jpg,AMSA19.jpg,AMNE19.jpg,AMSA19.jpg,MS,2,num_2,32,num_4,0.80011739023,,,2017_Nov_10_1723,60.0046766842,MAFE4ImagesEEG,001,202296,
AFNE01.JPG,AFNE01.JPG,AFNE01.JPG,AFNE01.JPG,AFNE01.JPG,AFNE01.JPG,,,,,,,,,4,7,47,3,,,,,,,,,,,,,,,AMNE13.jpg,AMSA01.jpg,AMNE15.jpg,AMSA18.jpg,AMSA01.jpg,MS,2,num_6,32,num_4,0.833445752505,,,2017_Nov_10_1723,60.0046766842,MAFE4ImagesEEG,001,202296,
AFNE01.JPG,AFNE01.JPG,AFNE01.JPG,AFNE01.JPG,AFNE01.JPG,AFNE01.JPG,,,,,,,,,4,8,48,8,,,,,,,,,,,,,,,AMNE08.jpg,AMNE16.jpg,AMSA08.jpg,AMSA13.jpg,AMNE08.jpg,MN,1,num_8,16,num_8,0.966768501326,,,2017_Nov_10_1723,60.0046766842,MAFE4ImagesEEG,001,202296,
AFNE01.JPG,AFNE01.JPG,AFNE01.JPG,AFNE01.JPG,AFNE01.JPG,AFNE01.JPG,,,,,,,,,4,9,49,0,,,,,,,,,,,,,,,AMSA11.jpg,AMSA04.jpg,AMNE19.jpg,AMNE07.jpg,AMNE07.jpg,MN,1,num_4,16,num_4,0.950110895559,,,2017_Nov_10_1723,60.0046766842,MAFE4ImagesEEG,001,202296,
AFNE01.JPG,AFNE01.JPG,AFNE01.JPG,AFNE01.JPG,AFNE01.JPG,AFNE01.JPG,,,,,,,,,5,0,50,2,,,,,,,,,,,,,,,AMSA19.jpg,AMNE16.jpg,AMNE05.jpg,AMSA11.jpg,AMNE05.jpg,MN,1,num_2,32,num_6,0.700114985462,,,2017_Nov_10_1723,60.0046766842,MAFE4ImagesEEG,001,202296,
AFNE01.JPG,AFNE01.JPG,AFNE01.JPG,AFNE01.JPG,AFNE01.JPG,AFNE01.JPG,,,,,,,,,5,1,51,5,,,,,,,,,,,,,,,AMNE15.jpg,AMSA11.jpg,AMSA15.jpg,AMNE11.jpg,AMNE15.jpg,MN,1,num_8,16,num_8,0.550144252367,,,2017_Nov_10_1723,60.0046766842,MAFE4ImagesEEG,001,202296,
AFNE01.JPG,AFNE01.JPG,AFNE01.JPG,AFNE01.JPG,AFNE01.JPG,AFNE01.JPG,,,,,,,,,5,2,52,3,,,,,,,,,,,,,,,AMNE06.jpg,AMSA09.jpg,AMSA01.jpg,AMNE13.jpg,AMSA01.jpg,MS,2,num_2,16,num_2,0.550146176945,,,2017_Nov_10_1723,60.0046766842,MAFE4ImagesEEG,001,202296,
AFNE01.JPG,AFNE01.JPG,AFNE01.JPG,AFNE01.JPG,AFNE01.JPG,AFNE01.JPG,,,,,,,,,5,3,53,6,,,,,,,,,,,,,,,AMSA12.jpg,AMNE01.jpg,AMSA07.jpg,AMNE19.jpg,AMSA12.jpg,MS,2,num_8,32,num_4,0.950118914247,,,2017_Nov_10_1723,60.0046766842,MAFE4ImagesEEG,001,202296,
AFNE01.JPG,AFNE01.JPG,AFNE01.JPG,AFNE01.JPG,AFNE01.JPG,AFNE01.JPG,,,,,,,,,5,4,54,9,,,,,,,,,,,,,,,AMNE03.jpg,AMNE02.jpg,AMSA03.jpg,AMSA17.jpg,AMSA03.jpg,MS,2,num_2,16,num_2,0.950147138909,,,2017_Nov_10_1723,60.0046766842,MAFE4ImagesEEG,001,202296,
AFNE01.JPG,AFNE01.JPG,AFNE01.JPG,AFNE01.JPG,AFNE01.JPG,AFNE01.JPG,,,,,,,,,5,5,55,1,,,,,,,,,,,,,,,AMSA02.jpg,AMNE03.jpg,AMNE14.jpg,AMSA17.jpg,AMNE14.jpg,MN,1,num_2,32,num_4,0.733417687938,,,2017_Nov_10_1723,60.0046766842,MAFE4ImagesEEG,001,202296,
AFNE01.JPG,AFNE01.JPG,AFNE01.JPG,AFNE01.JPG,AFNE01.JPG,AFNE01.JPG,,,,,,,,,5,6,56,0,,,,,,,,,,,,,,,AMSA03.jpg,AMSA17.jpg,AMNE19.jpg,AMNE07.jpg,AMNE19.jpg,MN,1,num_2,32,num_6,2.4166656239,,,2017_Nov_10_1723,60.0046766842,MAFE4ImagesEEG,001,202296,
AFNE01.JPG,AFNE01.JPG,AFNE01.JPG,AFNE01.JPG,AFNE01.JPG,AFNE01.JPG,,,,,,,,,5,7,57,8,,,,,,,,,,,,,,,AMNE03.jpg,AMNE06.jpg,AMSA04.jpg,AMSA02.jpg,AMNE03.jpg,MN,1,num_8,32,num_4,0.600131823681,,,2017_Nov_10_1723,60.0046766842,MAFE4ImagesEEG,001,202296,
AFNE01.JPG,AFNE01.JPG,AFNE01.JPG,AFNE01.JPG,AFNE01.JPG,AFNE01.JPG,,,,,,,,,5,8,58,7,,,,,,,,,,,,,,,AMSA04.jpg,AMSA18.jpg,AMNE07.jpg,AMNE11.jpg,AMNE11.jpg,MN,1,num_4,16,num_4,0.683414079249,,,2017_Nov_10_1723,60.0046766842,MAFE4ImagesEEG,001,202296,
AFNE01.JPG,AFNE01.JPG,AFNE01.JPG,AFNE01.JPG,AFNE01.JPG,AFNE01.JPG,,,,,,,,,5,9,59,4,,,,,,,,,,,,,,,AMSA03.jpg,AMSA01.jpg,AMNE12.jpg,AMNE15.jpg,AMSA03.jpg,MS,2,num_8,32,num_6,0.516759761143,,,2017_Nov_10_1723,60.0046766842,MAFE4ImagesEEG,001,202296,
,,,,,,,,,,,,,,,,,,,,,,,,,,,,,,,,,,,,,,,,,,,space,8.81613223441,2017_Nov_10_1723,60.0046766842,MAFE4ImagesEEG,001,202296,
AFNE01.JPG,AFNE01.JPG,AFNE01.JPG,AFNE01.JPG,AFNE01.JPG,AFNE01.JPG,,,,,,,,,,,,,0,0,0,1,,,,,,,,,,,AFNE04.jpg,AFSA09.jpg,AFNE20.jpg,AFSA04.jpg,AFSA09.jpg,FS,4,num_6,16,num_6,0.783498273231,,,2017_Nov_10_1723,60.0046766842,MAFE4ImagesEEG,001,202296,
AFNE01.JPG,AFNE01.JPG,AFNE01.JPG,AFNE01.JPG,AFNE01.JPG,AFNE01.JPG,,,,,,,,,,,,,0,1,1,0,,,,,,,,,,,AFNE11.jpg,AFSA01.jpg,AFSA05.jpg,AFNE20.jpg,AFNE11.jpg,FN,3,num_8,16,num_8,0.566490740981,,,2017_Nov_10_1723,60.0046766842,MAFE4ImagesEEG,001,202296,
AFNE01.JPG,AFNE01.JPG,AFNE01.JPG,AFNE01.JPG,AFNE01.JPG,AFNE01.JPG,,,,,,,,,,,,,0,2,2,4,,,,,,,,,,,AFNE11.jpg,AFSA01.jpg,AFNE16.jpg,AFSA15.jpg,AFSA01.jpg,FS,4,num_6,32,num_2,0.816777562257,,,2017_Nov_10_1723,60.0046766842,MAFE4ImagesEEG,001,202296,
AFNE01.JPG,AFNE01.JPG,AFNE01.JPG,AFNE01.JPG,AFNE01.JPG,AFNE01.JPG,,,,,,,,,,,,,0,3,3,3,,,,,,,,,,,AFSA07.jpg,AFNE01.jpg,AFNE17.jpg,AFSA16.jpg,AFSA16.jpg,FS,4,num_4,16,num_4,0.700157964136,,,2017_Nov_10_1723,60.0046766842,MAFE4ImagesEEG,001,202296,
AFNE01.JPG,AFNE01.JPG,AFNE01.JPG,AFNE01.JPG,AFNE01.JPG,AFNE01.JPG,,,,,,,,,,,,,0,4,4,5,,,,,,,,,,,AFSA05.jpg,AFSA18.jpg,AFNE09.jpg,AFNE08.jpg,AFNE09.jpg,FN,3,num_2,32,num_8,0.800148823299,,,2017_Nov_10_1723,60.0046766842,MAFE4ImagesEEG,001,202296,
AFNE01.JPG,AFNE01.JPG,AFNE01.JPG,AFNE01.JPG,AFNE01.JPG,AFNE01.JPG,,,,,,,,,,,,,0,5,5,9,,,,,,,,,,,AFSA07.jpg,AFNE20.jpg,AFNE10.jpg,AFSA16.jpg,AFSA16.jpg,FS,4,num_4,16,num_4,0.683448078111,,,2017_Nov_10_1723,60.0046766842,MAFE4ImagesEEG,001,202296,
AFNE01.JPG,AFNE01.JPG,AFNE01.JPG,AFNE01.JPG,AFNE01.JPG,AFNE01.JPG,,,,,,,,,,,,,0,6,6,7,,,,,,,,,,,AFSA18.jpg,AFNE02.jpg,AFSA09.jpg,AFNE01.jpg,AFNE02.jpg,FN,3,num_6,16,num_6,0.93343885662,,,2017_Nov_10_1723,60.0046766842,MAFE4ImagesEEG,001,202296,
AFNE01.JPG,AFNE01.JPG,AFNE01.JPG,AFNE01.JPG,AFNE01.JPG,AFNE01.JPG,,,,,,,,,,,,,0,7,7,8,,,,,,,,,,,AFSA20.jpg,AFNE01.jpg,AFSA07.jpg,AFNE12.jpg,AFNE12.jpg,FN,3,num_4,16,num_4,0.816919008736,,,2017_Nov_10_1723,60.0046766842,MAFE4ImagesEEG,001,202296,
AFNE01.JPG,AFNE01.JPG,AFNE01.JPG,AFNE01.JPG,AFNE01.JPG,AFNE01.JPG,,,,,,,,,,,,,0,8,8,2,,,,,,,,,,,AFSA18.jpg,AFNE06.jpg,AFSA16.jpg,AFNE13.jpg,AFNE13.jpg,FN,3,num_4,16,num_4,0.783470689785,,,2017_Nov_10_1723,60.0046766842,MAFE4ImagesEEG,001,202296,
AFNE01.JPG,AFNE01.JPG,AFNE01.JPG,AFNE01.JPG,AFNE01.JPG,AFNE01.JPG,,,,,,,,,,,,,0,9,9,6,,,,,,,,,,,AFNE19.jpg,AFSA11.jpg,AFSA06.jpg,AFNE15.jpg,AFSA06.jpg,FS,4,num_2,32,num_6,0.583465879317,,,2017_Nov_10_1723,60.0046766842,MAFE4ImagesEEG,001,202296,
AFNE01.JPG,AFNE01.JPG,AFNE01.JPG,AFNE01.JPG,AFNE01.JPG,AFNE01.JPG,,,,,,,,,,,,,1,0,10,8,,,,,,,,,,,AFNE06.jpg,AFNE09.jpg,AFSA08.jpg,AFSA16.jpg,AFNE09.jpg,FN,3,num_6,32,num_8,0.800067996606,,,2017_Nov_10_1723,60.0046766842,MAFE4ImagesEEG,001,202296,
AFNE01.JPG,AFNE01.JPG,AFNE01.JPG,AFNE01.JPG,AFNE01.JPG,AFNE01.JPG,,,,,,,,,,,,,1,1,11,1,,,,,,,,,,,AFNE07.jpg,AFSA19.jpg,AFNE11.jpg,AFSA03.jpg,AFNE07.jpg,FN,3,num_8,16,num_8,0.716792797204,,,2017_Nov_10_1723,60.0046766842,MAFE4ImagesEEG,001,202296,
AFNE01.JPG,AFNE01.JPG,AFNE01.JPG,AFNE01.JPG,AFNE01.JPG,AFNE01.JPG,,,,,,,,,,,,,1,2,12,3,,,,,,,,,,,AFSA10.jpg,AFNE04.jpg,AFNE05.jpg,AFSA02.jpg,AFNE04.jpg,FN,3,num_6,32,num_8,0.966760162264,,,2017_Nov_10_1723,60.0046766842,MAFE4ImagesEEG,001,202296,
AFNE01.JPG,AFNE01.JPG,AFNE01.JPG,AFNE01.JPG,AFNE01.JPG,AFNE01.JPG,,,,,,,,,,,,,1,3,13,7,,,,,,,,,,,AFSA13.jpg,AFNE17.jpg,AFNE11.jpg,AFSA14.jpg,AFSA13.jpg,FS,4,num_8,16,num_8,1.15007401071,,,2017_Nov_10_1723,60.0046766842,MAFE4ImagesEEG,001,202296,
AFNE01.JPG,AFNE01.JPG,AFNE01.JPG,AFNE01.JPG,AFNE01.JPG,AFNE01.JPG,,,,,,,,,,,,,1,4,14,9,,,,,,,,,,,AFNE15.jpg,AFNE14.jpg,AFSA08.jpg,AFSA16.jpg,AFNE14.jpg,FN,3,num_6,32,num_2,1.26673370134,,,2017_Nov_10_1723,60.0046766842,MAFE4ImagesEEG,001,202296,
AFNE01.JPG,AFNE01.JPG,AFNE01.JPG,AFNE01.JPG,AFNE01.JPG,AFNE01.JPG,,,,,,,,,,,,,1,5,15,5,,,,,,,,,,,AFNE02.jpg,AFNE03.jpg,AFSA05.jpg,AFSA15.jpg,AFNE02.jpg,FN,3,num_8,16,num_8,0.967083467636,,,2017_Nov_10_1723,60.0046766842,MAFE4ImagesEEG,001,202296,
AFNE01.JPG,AFNE01.JPG,AFNE01.JPG,AFNE01.JPG,AFNE01.JPG,AFNE01.JPG,,,,,,,,,,,,,1,6,16,6,,,,,,,,,,,AFSA20.jpg,AFNE06.jpg,AFNE17.jpg,AFSA11.jpg,AFNE17.jpg,FN,3,num_2,32,num_8,1.3501506676,,,2017_Nov_10_1723,60.0046766842,MAFE4ImagesEEG,001,202296,
AFNE01.JPG,AFNE01.JPG,AFNE01.JPG,AFNE01.JPG,AFNE01.JPG,AFNE01.JPG,,,,,,,,,,,,,1,7,17,2,,,,,,,,,,,AFNE16.jpg,AFSA12.jpg,AFSA03.jpg,AFNE15.jpg,AFSA12.jpg,FS,4,num_6,16,num_6,0.633455053903,,,2017_Nov_10_1723,60.0046766842,MAFE4ImagesEEG,001,202296,
AFNE01.JPG,AFNE01.JPG,AFNE01.JPG,AFNE01.JPG,AFNE01.JPG,AFNE01.JPG,,,,,,,,,,,,,1,8,18,4,,,,,,,,,,,AFNE16.jpg,AFNE10.jpg,AFSA16.jpg,AFSA10.jpg,AFSA16.jpg,FS,4,num_2,32,num_8,0.716822305694,,,2017_Nov_10_1723,60.0046766842,MAFE4ImagesEEG,001,202296,
AFNE01.JPG,AFNE01.JPG,AFNE01.JPG,AFNE01.JPG,AFNE01.JPG,AFNE01.JPG,,,,,,,,,,,,,1,9,19,0,,,,,,,,,,,AFSA19.jpg,AFSA06.jpg,AFNE19.jpg,AFNE04.jpg,AFSA06.jpg,FS,4,num_6,32,num_4,1.65006454848,,,2017_Nov_10_1723,60.0046766842,MAFE4ImagesEEG,001,202296,
AFNE01.JPG,AFNE01.JPG,AFNE01.JPG,AFNE01.JPG,AFNE01.JPG,AFNE01.JPG,,,,,,,,,,,,,2,0,20,1,,,,,,,,,,,AFSA12.jpg,AFNE15.jpg,AFSA19.jpg,AFNE02.jpg,AFNE15.jpg,FN,3,num_6,32,num_2,1.31668599136,,,2017_Nov_10_1723,60.0046766842,MAFE4ImagesEEG,001,202296,
AFNE01.JPG,AFNE01.JPG,AFNE01.JPG,AFNE01.JPG,AFNE01.JPG,AFNE01.JPG,,,,,,,,,,,,,2,1,21,6,,,,,,,,,,,AFSA15.jpg,AFNE14.jpg,AFSA11.jpg,AFNE02.jpg,AFSA15.jpg,FS,4,num_8,32,num_2,0.933415121865,,,2017_Nov_10_1723,60.0046766842,MAFE4ImagesEEG,001,202296,
AFNE01.JPG,AFNE01.JPG,AFNE01.JPG,AFNE01.JPG,AFNE01.JPG,AFNE01.JPG,,,,,,,,,,,,,2,2,22,9,,,,,,,,,,,AFNE11.jpg,AFSA10.jpg,AFSA18.jpg,AFNE06.jpg,AFNE11.jpg,FN,3,num_8,16,num_8,0.950126932934,,,2017_Nov_10_1723,60.0046766842,MAFE4ImagesEEG,001,202296,
AFNE01.JPG,AFNE01.JPG,AFNE01.JPG,AFNE01.JPG,AFNE01.JPG,AFNE01.JPG,,,,,,,,,,,,,2,3,23,3,,,,,,,,,,,AFSA07.jpg,AFSA15.jpg,AFNE05.jpg,AFNE16.jpg,AFSA07.jpg,FS,4,num_8,16,num_8,0.816810277756,,,2017_Nov_10_1723,60.0046766842,MAFE4ImagesEEG,001,202296,
AFNE01.JPG,AFNE01.JPG,AFNE01.JPG,AFNE01.JPG,AFNE01.JPG,AFNE01.JPG,,,,,,,,,,,,,2,4,24,0,,,,,,,,,,,AFSA17.jpg,AFNE17.jpg,AFSA16.jpg,AFNE16.jpg,AFNE16.jpg,FN,3,num_4,16,num_4,0.750093896408,,,2017_Nov_10_1723,60.0046766842,MAFE4ImagesEEG,001,202296,
AFNE01.JPG,AFNE01.JPG,AFNE01.JPG,AFNE01.JPG,AFNE01.JPG,AFNE01.JPG,,,,,,,,,,,,,2,5,25,7,,,,,,,,,,,AFNE20.jpg,AFNE06.jpg,AFSA08.jpg,AFSA04.jpg,AFNE06.jpg,FN,3,num_6,16,num_6,0.666819017846,,,2017_Nov_10_1723,60.0046766842,MAFE4ImagesEEG,001,202296,
AFNE01.JPG,AFNE01.JPG,AFNE01.JPG,AFNE01.JPG,AFNE01.JPG,AFNE01.JPG,,,,,,,,,,,,,2,6,26,2,,,,,,,,,,,AFSA03.jpg,AFNE20.jpg,AFSA13.jpg,AFNE06.jpg,AFSA13.jpg,FS,4,num_2,16,num_2,1.50011594733,,,2017_Nov_10_1723,60.0046766842,MAFE4ImagesEEG,001,202296,
AFNE01.JPG,AFNE01.JPG,AFNE01.JPG,AFNE01.JPG,AFNE01.JPG,AFNE01.JPG,,,,,,,,,,,,,2,7,27,4,,,,,,,,,,,AFNE02.jpg,AFSA05.jpg,AFSA12.jpg,AFNE16.jpg,AFSA05.jpg,FS,4,num_6,32,num_2,0.833436130546,,,2017_Nov_10_1723,60.0046766842,MAFE4ImagesEEG,001,202296,
AFNE01.JPG,AFNE01.JPG,AFNE01.JPG,AFNE01.JPG,AFNE01.JPG,AFNE01.JPG,,,,,,,,,,,,,2,8,28,5,,,,,,,,,,,AFSA09.jpg,AFSA01.jpg,AFNE06.jpg,AFNE09.jpg,AFNE06.jpg,FN,3,num_2,32,num_8,1.05008603865,,,2017_Nov_10_1723,60.0046766842,MAFE4ImagesEEG,001,202296,
AFNE01.JPG,AFNE01.JPG,AFNE01.JPG,AFNE01.JPG,AFNE01.JPG,AFNE01.JPG,,,,,,,,,,,,,2,9,29,8,,,,,,,,,,,AFNE04.jpg,AFSA13.jpg,AFNE08.jpg,AFSA19.jpg,AFSA13.jpg,FS,4,num_6,32,num_8,0.866749097127,,,2017_Nov_10_1723,60.0046766842,MAFE4ImagesEEG,001,202296,
AFNE01.JPG,AFNE01.JPG,AFNE01.JPG,AFNE01.JPG,AFNE01.JPG,AFNE01.JPG,,,,,,,,,,,,,3,0,30,0,,,,,,,,,,,AFNE09.jpg,AFSA19.jpg,AFNE03.jpg,AFSA17.jpg,AFSA19.jpg,FS,4,num_6,32,num_8,1.10007008119,,,2017_Nov_10_1723,60.0046766842,MAFE4ImagesEEG,001,202296,
AFNE01.JPG,AFNE01.JPG,AFNE01.JPG,AFNE01.JPG,AFNE01.JPG,AFNE01.JPG,,,,,,,,,,,,,3,1,31,7,,,,,,,,,,,AFSA15.jpg,AFSA04.jpg,AFNE04.jpg,AFNE06.jpg,AFNE04.jpg,FN,3,num_2,32,num_8,0.750166383572,,,2017_Nov_10_1723,60.0046766842,MAFE4ImagesEEG,001,202296,
AFNE01.JPG,AFNE01.JPG,AFNE01.JPG,AFNE01.JPG,AFNE01.JPG,AFNE01.JPG,,,,,,,,,,,,,3,2,32,5,,,,,,,,,,,AFSA11.jpg,AFNE07.jpg,AFSA18.jpg,AFNE10.jpg,AFNE07.jpg,FN,3,num_6,16,num_6,0.649964477867,,,2017_Nov_10_1723,60.0046766842,MAFE4ImagesEEG,001,202296,
AFNE01.JPG,AFNE01.JPG,AFNE01.JPG,AFNE01.JPG,AFNE01.JPG,AFNE01.JPG,,,,,,,,,,,,,3,3,33,9,,,,,,,,,,,AFSA04.jpg,AFSA09.jpg,AFNE20.jpg,AFNE19.jpg,AFNE20.jpg,FN,3,num_2,16,num_2,1.30001812149,,,2017_Nov_10_1723,60.0046766842,MAFE4ImagesEEG,001,202296,
AFNE01.JPG,AFNE01.JPG,AFNE01.JPG,AFNE01.JPG,AFNE01.JPG,AFNE01.JPG,,,,,,,,,,,,,3,4,34,8,,,,,,,,,,,AFNE19.jpg,AFSA03.jpg,AFNE08.jpg,AFSA19.jpg,AFSA03.jpg,FS,4,num_6,16,num_6,0.933469326701,,,2017_Nov_10_1723,60.0046766842,MAFE4ImagesEEG,001,202296,
AFNE01.JPG,AFNE01.JPG,AFNE01.JPG,AFNE01.JPG,AFNE01.JPG,AFNE01.JPG,,,,,,,,,,,,,3,5,35,3,,,,,,,,,,,AFSA17.jpg,AFSA13.jpg,AFNE03.jpg,AFNE06.jpg,AFNE03.jpg,FN,3,num_2,32,num_8,0.583485764917,,,2017_Nov_10_1723,60.0046766842,MAFE4ImagesEEG,001,202296,
AFNE01.JPG,AFNE01.JPG,AFNE01.JPG,AFNE01.JPG,AFNE01.JPG,AFNE01.JPG,,,,,,,,,,,,,3,6,36,1,,,,,,,,,,,AFNE09.jpg,AFNE15.jpg,AFSA07.jpg,AFSA19.jpg,AFSA07.jpg,FS,4,num_2,16,num_2,0.533489533234,,,2017_Nov_10_1723,60.0046766842,MAFE4ImagesEEG,001,202296,
AFNE01.JPG,AFNE01.JPG,AFNE01.JPG,AFNE01.JPG,AFNE01.JPG,AFNE01.JPG,,,,,,,,,,,,,3,7,37,2,,,,,,,,,,,AFNE13.jpg,AFSA06.jpg,AFSA19.jpg,AFNE18.jpg,AFSA19.jpg,FS,4,num_2,32,num_4,1.11674693134,,,2017_Nov_10_1723,60.0046766842,MAFE4ImagesEEG,001,202296,
AFNE01.JPG,AFNE01.JPG,AFNE01.JPG,AFNE01.JPG,AFNE01.JPG,AFNE01.JPG,,,,,,,,,,,,,3,8,38,4,,,,,,,,,,,AFNE03.jpg,AFNE14.jpg,AFSA05.jpg,AFSA03.jpg,AFSA05.jpg,FS,4,num_2,16,num_2,0.516806268599,,,2017_Nov_10_1723,60.0046766842,MAFE4ImagesEEG,001,202296,
AFNE01.JPG,AFNE01.JPG,AFNE01.JPG,AFNE01.JPG,AFNE01.JPG,AFNE01.JPG,,,,,,,,,,,,,3,9,39,6,,,,,,,,,,,AFNE06.jpg,AFSA13.jpg,AFSA16.jpg,AFNE02.jpg,AFSA13.jpg,FS,4,num_6,16,num_6,1.06674685143,,,2017_Nov_10_1723,60.0046766842,MAFE4ImagesEEG,001,202296,
AFNE01.JPG,AFNE01.JPG,AFNE01.JPG,AFNE01.JPG,AFNE01.JPG,AFNE01.JPG,,,,,,,,,,,,,4,0,40,4,,,,,,,,,,,AFSA08.jpg,AFNE14.jpg,AFNE11.jpg,AFSA19.jpg,AFSA19.jpg,FS,4,num_4,16,num_4,0.549981637858,,,2017_Nov_10_1723,60.0046766842,MAFE4ImagesEEG,001,202296,
AFNE01.JPG,AFNE01.JPG,AFNE01.JPG,AFNE01.JPG,AFNE01.JPG,AFNE01.JPG,,,,,,,,,,,,,4,1,41,9,,,,,,,,,,,AFNE14.jpg,AFSA15.jpg,AFNE02.jpg,AFSA20.jpg,AFNE14.jpg,FN,3,num_8,16,num_8,0.766757275444,,,2017_Nov_10_1723,60.0046766842,MAFE4ImagesEEG,001,202296,
AFNE01.JPG,AFNE01.JPG,AFNE01.JPG,AFNE01.JPG,AFNE01.JPG,AFNE01.JPG,,,,,,,,,,,,,4,2,42,7,,,,,,,,,,,AFNE09.jpg,AFSA08.jpg,AFNE11.jpg,AFSA07.jpg,AFSA07.jpg,FS,4,num_4,16,num_4,0.633484561928,,,2017_Nov_10_1723,60.0046766842,MAFE4ImagesEEG,001,202296,
AFNE01.JPG,AFNE01.JPG,AFNE01.JPG,AFNE01.JPG,AFNE01.JPG,AFNE01.JPG,,,,,,,,,,,,,4,3,43,8,,,,,,,,,,,AFSA17.jpg,AFNE01.jpg,AFSA18.jpg,AFNE14.jpg,AFNE14.jpg,FN,3,num_4,32,num_6,0.633460827172,,,2017_Nov_10_1723,60.0046766842,MAFE4ImagesEEG,001,202296,
AFNE01.JPG,AFNE01.JPG,AFNE01.JPG,AFNE01.JPG,AFNE01.JPG,AFNE01.JPG,,,,,,,,,,,,,4,4,44,5,,,,,,,,,,,AFSA11.jpg,AFSA13.jpg,AFNE04.jpg,AFNE20.jpg,AFSA13.jpg,FS,4,num_6,32,num_4,0.883534998633,,,2017_Nov_10_1723,60.0046766842,MAFE4ImagesEEG,001,202296,
AFNE01.JPG,AFNE01.JPG,AFNE01.JPG,AFNE01.JPG,AFNE01.JPG,AFNE01.JPG,,,,,,,,,,,,,4,5,45,0,,,,,,,,,,,AFSA02.jpg,AFSA08.jpg,AFNE11.jpg,AFNE08.jpg,AFNE08.jpg,FN,3,num_4,32,num_8,0.63351246668,,,2017_Nov_10_1723,60.0046766842,MAFE4ImagesEEG,001,202296,
AFNE01.JPG,AFNE01.JPG,AFNE01.JPG,AFNE01.JPG,AFNE01.JPG,AFNE01.JPG,,,,,,,,,,,,,4,6,46,2,,,,,,,,,,,AFNE19.jpg,AFSA20.jpg,AFSA03.jpg,AFNE07.jpg,AFSA03.jpg,FS,4,num_2,32,num_6,0.683452889323,,,2017_Nov_10_1723,60.0046766842,MAFE4ImagesEEG,001,202296,
AFNE01.JPG,AFNE01.JPG,AFNE01.JPG,AFNE01.JPG,AFNE01.JPG,AFNE01.JPG,,,,,,,,,,,,,4,7,47,1,,,,,,,,,,,AFSA18.jpg,AFSA11.jpg,AFNE04.jpg,AFNE18.jpg,AFSA18.jpg,FS,4,num_8,16,num_8,0.766784217674,,,2017_Nov_10_1723,60.0046766842,MAFE4ImagesEEG,001,202296,
AFNE01.JPG,AFNE01.JPG,AFNE01.JPG,AFNE01.JPG,AFNE01.JPG,AFNE01.JPG,,,,,,,,,,,,,4,8,48,3,,,,,,,,,,,AFSA19.jpg,AFSA03.jpg,AFNE15.jpg,AFNE03.jpg,AFNE03.jpg,FN,3,num_4,16,num_4,0.916768741794,,,2017_Nov_10_1723,60.0046766842,MAFE4ImagesEEG,001,202296,
AFNE01.JPG,AFNE01.JPG,AFNE01.JPG,AFNE01.JPG,AFNE01.JPG,AFNE01.JPG,,,,,,,,,,,,,4,9,49,6,,,,,,,,,,,AFNE03.jpg,AFSA06.jpg,AFNE02.jpg,AFSA04.jpg,AFNE02.jpg,FN,3,num_2,32,num_4,0.916768741794,,,2017_Nov_10_1723,60.0046766842,MAFE4ImagesEEG,001,202296,
AFNE01.JPG,AFNE01.JPG,AFNE01.JPG,AFNE01.JPG,AFNE01.JPG,AFNE01.JPG,,,,,,,,,,,,,5,0,50,3,,,,,,,,,,,AFSA08.jpg,AFNE03.jpg,AFSA18.jpg,AFNE13.jpg,AFNE13.jpg,FN,3,num_4,32,num_6,0.75012885686,,,2017_Nov_10_1723,60.0046766842,MAFE4ImagesEEG,001,202296,
AFNE01.JPG,AFNE01.JPG,AFNE01.JPG,AFNE01.JPG,AFNE01.JPG,AFNE01.JPG,,,,,,,,,,,,,5,1,51,0,,,,,,,,,,,AFNE09.jpg,AFSA11.jpg,AFSA19.jpg,AFNE11.jpg,AFNE11.jpg,FN,3,num_4,32,num_6,0.900124927983,,,2017_Nov_10_1723,60.0046766842,MAFE4ImagesEEG,001,202296,
AFNE01.JPG,AFNE01.JPG,AFNE01.JPG,AFNE01.JPG,AFNE01.JPG,AFNE01.JPG,,,,,,,,,,,,,5,2,52,4,,,,,,,,,,,AFSA03.jpg,AFNE19.jpg,AFSA17.jpg,AFNE20.jpg,AFSA03.jpg,FS,4,num_8,32,num_4,1.11677002488,,,2017_Nov_10_1723,60.0046766842,MAFE4ImagesEEG,001,202296,
AFNE01.JPG,AFNE01.JPG,AFNE01.JPG,AFNE01.JPG,AFNE01.JPG,AFNE01.JPG,,,,,,,,,,,,,5,3,53,9,,,,,,,,,,,AFSA03.jpg,AFSA02.jpg,AFNE13.jpg,AFNE02.jpg,AFSA02.jpg,FS,4,num_6,32,num_4,1.00011033425,,,2017_Nov_10_1723,60.0046766842,MAFE4ImagesEEG,001,202296,
AFNE01.JPG,AFNE01.JPG,AFNE01.JPG,AFNE01.JPG,AFNE01.JPG,AFNE01.JPG,,,,,,,,,,,,,5,4,54,2,,,,,,,,,,,AFSA14.jpg,AFNE12.jpg,AFNE03.jpg,AFSA06.jpg,AFNE03.jpg,FN,3,num_2,32,num_8,0.700145455077,,,2017_Nov_10_1723,60.0046766842,MAFE4ImagesEEG,001,202296,
AFNE01.JPG,AFNE01.JPG,AFNE01.JPG,AFNE01.JPG,AFNE01.JPG,AFNE01.JPG,,,,,,,,,,,,,5,5,55,7,,,,,,,,,,,AFSA02.jpg,AFNE17.jpg,AFSA15.jpg,AFNE13.jpg,AFNE17.jpg,FN,3,num_6,32,num_2,0.933444950264,,,2017_Nov_10_1723,60.0046766842,MAFE4ImagesEEG,001,202296,
AFNE01.JPG,AFNE01.JPG,AFNE01.JPG,AFNE01.JPG,AFNE01.JPG,AFNE01.JPG,,,,,,,,,,,,,5,6,56,5,,,,,,,,,,,AFSA08.jpg,AFNE04.jpg,AFSA10.jpg,AFNE20.jpg,AFSA10.jpg,FS,4,num_2,16,num_2,0.866809716448,,,2017_Nov_10_1723,60.0046766842,MAFE4ImagesEEG,001,202296,
AFNE01.JPG,AFNE01.JPG,AFNE01.JPG,AFNE01.JPG,AFNE01.JPG,AFNE01.JPG,,,,,,,,,,,,,5,7,57,8,,,,,,,,,,,AFSA09.jpg,AFSA16.jpg,AFNE12.jpg,AFNE11.jpg,AFNE12.jpg,FN,3,num_2,32,num_4,0.91676970385,,,2017_Nov_10_1723,60.0046766842,MAFE4ImagesEEG,001,202296,
AFNE01.JPG,AFNE01.JPG,AFNE01.JPG,AFNE01.JPG,AFNE01.JPG,AFNE01.JPG,,,,,,,,,,,,,5,8,58,1,,,,,,,,,,,AFNE16.jpg,AFSA08.jpg,AFSA05.jpg,AFNE13.jpg,AFNE13.jpg,FN,3,num_4,32,num_6,0.966782934498,,,2017_Nov_10_1723,60.0046766842,MAFE4ImagesEEG,001,202296,
AFNE01.JPG,AFNE01.JPG,AFNE01.JPG,AFNE01.JPG,AFNE01.JPG,AFNE01.JPG,,,,,,,,,,,,,5,9,59,6,,,,,,,,,,,AFNE16.jpg,AFSA18.jpg,AFSA17.jpg,AFNE13.jpg,AFNE13.jpg,FN,3,num_4,32,num_8,0.733451044653,,,2017_Nov_10_1723,60.0046766842,MAFE4ImagesEEG,001,202296,
,,,,,,,,,,,,,,,,,,,,,,,,,,,,,,,,,,,,,,,,,,,space,8.86644856399,2017_Nov_10_1723,60.0046766842,MAFE4ImagesEEG,001,202296,
AFNE01.JPG,AFNE01.JPG,AFNE01.JPG,AFNE01.JPG,AFNE01.JPG,AFNE01.JPG,,,,,,,,,,,,,,,,,0,0,0,9,,,,,,,AMNE10.jpg,AMSA06.jpg,AMSA03.jpg,AMNE01.jpg,AMSA03.jpg,MS,2,num_2,16,num_2,0.933298051823,,,2017_Nov_10_1723,60.0046766842,MAFE4ImagesEEG,001,202296,
AFNE01.JPG,AFNE01.JPG,AFNE01.JPG,AFNE01.JPG,AFNE01.JPG,AFNE01.JPG,,,,,,,,,,,,,,,,,0,1,1,2,,,,,,,AMSA03.jpg,AMNE04.jpg,AMSA17.jpg,AMNE12.jpg,AMNE04.jpg,MN,1,num_6,32,num_4,1.35002622055,,,2017_Nov_10_1723,60.0046766842,MAFE4ImagesEEG,001,202296,
AFNE01.JPG,AFNE01.JPG,AFNE01.JPG,AFNE01.JPG,AFNE01.JPG,AFNE01.JPG,,,,,,,,,,,,,,,,,0,2,2,4,,,,,,,AMSA13.jpg,AMSA11.jpg,AMNE16.jpg,AMNE15.jpg,AMSA13.jpg,MS,2,num_8,32,num_6,0.716774194501,,,2017_Nov_10_1723,60.0046766842,MAFE4ImagesEEG,001,202296,
AFNE01.JPG,AFNE01.JPG,AFNE01.JPG,AFNE01.JPG,AFNE01.JPG,AFNE01.JPG,,,,,,,,,,,,,,,,,0,3,3,5,,,,,,,AMSA01.jpg,AMSA13.jpg,AMNE13.jpg,AMNE12.jpg,AMNE12.jpg,MN,1,num_4,16,num_4,0.616809315514,,,2017_Nov_10_1723,60.0046766842,MAFE4ImagesEEG,001,202296,
AFNE01.JPG,AFNE01.JPG,AFNE01.JPG,AFNE01.JPG,AFNE01.JPG,AFNE01.JPG,,,,,,,,,,,,,,,,,0,4,4,6,,,,,,,AMSA13.jpg,AMSA17.jpg,AMNE03.jpg,AMNE07.jpg,AMSA17.jpg,MS,2,num_6,32,num_2,0.7000938165,,,2017_Nov_10_1723,60.0046766842,MAFE4ImagesEEG,001,202296,
AFNE01.JPG,AFNE01.JPG,AFNE01.JPG,AFNE01.JPG,AFNE01.JPG,AFNE01.JPG,,,,,,,,,,,,,,,,,0,5,5,1,,,,,,,AMNE03.jpg,AMNE20.jpg,AMSA13.jpg,AMSA10.jpg,AMSA10.jpg,MS,2,num_4,32,num_6,0.633480071556,,,2017_Nov_10_1723,60.0046766842,MAFE4ImagesEEG,001,202296,
AFNE01.JPG,AFNE01.JPG,AFNE01.JPG,AFNE01.JPG,AFNE01.JPG,AFNE01.JPG,,,,,,,,,,,,,,,,,0,6,6,3,,,,,,,AMNE14.jpg,AMSA12.jpg,AMSA02.jpg,AMNE16.jpg,AMNE16.jpg,MN,1,num_4,32,num_8,0.750541007146,,,2017_Nov_10_1723,60.0046766842,MAFE4ImagesEEG,001,202296,
AFNE01.JPG,AFNE01.JPG,AFNE01.JPG,AFNE01.JPG,AFNE01.JPG,AFNE01.JPG,,,,,,,,,,,,,,,,,0,7,7,7,,,,,,,AMSA17.jpg,AMSA08.jpg,AMNE16.jpg,AMNE15.jpg,AMSA17.jpg,MS,2,num_8,32,num_6,0.850123244338,,,2017_Nov_10_1723,60.0046766842,MAFE4ImagesEEG,001,202296,
AFNE01.JPG,AFNE01.JPG,AFNE01.JPG,AFNE01.JPG,AFNE01.JPG,AFNE01.JPG,,,,,,,,,,,,,,,,,0,8,8,8,,,,,,,AMSA03.jpg,AMNE20.jpg,AMSA13.jpg,AMNE16.jpg,AMSA03.jpg,MS,2,num_8,32,num_4,0.616807391401,,,2017_Nov_10_1723,60.0046766842,MAFE4ImagesEEG,001,202296,
AFNE01.JPG,AFNE01.JPG,AFNE01.JPG,AFNE01.JPG,AFNE01.JPG,AFNE01.JPG,,,,,,,,,,,,,,,,,0,9,9,0,,,,,,,AMSA05.jpg,AMNE12.jpg,AMSA12.jpg,AMNE20.jpg,AMSA05.jpg,MS,2,num_8,16,num_8,0.650104640983,,,2017_Nov_10_1723,60.0046766842,MAFE4ImagesEEG,001,202296,
AFNE01.JPG,AFNE01.JPG,AFNE01.JPG,AFNE01.JPG,AFNE01.JPG,AFNE01.JPG,,,,,,,,,,,,,,,,,1,0,10,2,,,,,,,AMSA03.jpg,AMNE11.jpg,AMSA11.jpg,AMNE07.jpg,AMNE07.jpg,MN,1,num_4,32,num_2,0.500133908819,,,2017_Nov_10_1723,60.0046766842,MAFE4ImagesEEG,001,202296,
AFNE01.JPG,AFNE01.JPG,AFNE01.JPG,AFNE01.JPG,AFNE01.JPG,AFNE01.JPG,,,,,,,,,,,,,,,,,1,1,11,3,,,,,,,AMSA01.jpg,AMNE14.jpg,AMNE12.jpg,AMSA09.jpg,AMNE12.jpg,MN,1,num_2,32,num_6,0.650147299748,,,2017_Nov_10_1723,60.0046766842,MAFE4ImagesEEG,001,202296,
AFNE01.JPG,AFNE01.JPG,AFNE01.JPG,AFNE01.JPG,AFNE01.JPG,AFNE01.JPG,,,,,,,,,,,,,,,,,1,2,12,8,,,,,,,AMNE04.jpg,AMSA07.jpg,AMSA16.jpg,AMNE08.jpg,AMSA07.jpg,MS,2,num_6,32,num_4,0.633407905232,,,2017_Nov_10_1723,60.0046766842,MAFE4ImagesEEG,001,202296,
AFNE01.JPG,AFNE01.JPG,AFNE01.JPG,AFNE01.JPG,AFNE01.JPG,AFNE01.JPG,,,,,,,,,,,,,,,,,1,3,13,6,,,,,,,AMSA13.jpg,AMSA12.jpg,AMNE16.jpg,AMNE20.jpg,AMSA12.jpg,MS,2,num_6,32,num_8,0.700109853409,,,2017_Nov_10_1723,60.0046766842,MAFE4ImagesEEG,001,202296,
AFNE01.JPG,AFNE01.JPG,AFNE01.JPG,AFNE01.JPG,AFNE01.JPG,AFNE01.JPG,,,,,,,,,,,,,,,,,1,4,14,9,,,,,,,AMNE05.jpg,AMNE03.jpg,AMSA05.jpg,AMSA15.jpg,AMSA05.jpg,MS,2,num_2,32,num_4,0.616782694124,,,2017_Nov_10_1723,60.0046766842,MAFE4ImagesEEG,001,202296,
AFNE01.JPG,AFNE01.JPG,AFNE01.JPG,AFNE01.JPG,AFNE01.JPG,AFNE01.JPG,,,,,,,,,,,,,,,,,1,5,15,5,,,,,,,AMNE14.jpg,AMSA04.jpg,AMSA19.jpg,AMNE01.jpg,AMNE14.jpg,MN,1,num_8,16,num_8,0.616795524023,,,2017_Nov_10_1723,60.0046766842,MAFE4ImagesEEG,001,202296,
AFNE01.JPG,AFNE01.JPG,AFNE01.JPG,AFNE01.JPG,AFNE01.JPG,AFNE01.JPG,,,,,,,,,,,,,,,,,1,6,16,4,,,,,,,AMNE16.jpg,AMSA17.jpg,AMNE05.jpg,AMSA19.jpg,AMNE16.jpg,MN,1,num_8,16,num_8,0.550135272089,,,2017_Nov_10_1723,60.0046766842,MAFE4ImagesEEG,001,202296,
AFNE01.JPG,AFNE01.JPG,AFNE01.JPG,AFNE01.JPG,AFNE01.JPG,AFNE01.JPG,,,,,,,,,,,,,,,,,1,7,17,1,,,,,,,AMSA05.jpg,AMNE03.jpg,AMSA13.jpg,AMNE08.jpg,AMNE08.jpg,MN,1,num_4,32,num_2,0.666729852557,,,2017_Nov_10_1723,60.0046766842,MAFE4ImagesEEG,001,202296,
AFNE01.JPG,AFNE01.JPG,AFNE01.JPG,AFNE01.JPG,AFNE01.JPG,AFNE01.JPG,,,,,,,,,,,,,,,,,1,8,18,7,,,,,,,AMSA19.jpg,AMNE04.jpg,AMNE14.jpg,AMSA17.jpg,AMSA19.jpg,MS,2,num_8,32,num_4,0.783471652307,,,2017_Nov_10_1723,60.0046766842,MAFE4ImagesEEG,001,202296,
AFNE01.JPG,AFNE01.JPG,AFNE01.JPG,AFNE01.JPG,AFNE01.JPG,AFNE01.JPG,,,,,,,,,,,,,,,,,1,9,19,0,,,,,,,AMSA15.jpg,AMSA02.jpg,AMNE10.jpg,AMNE08.jpg,AMNE08.jpg,MN,1,num_4,32,num_8,0.833427791484,,,2017_Nov_10_1723,60.0046766842,MAFE4ImagesEEG,001,202296,
AFNE01.JPG,AFNE01.JPG,AFNE01.JPG,AFNE01.JPG,AFNE01.JPG,AFNE01.JPG,,,,,,,,,,,,,,,,,2,0,20,8,,,,,,,AMSA15.jpg,AMNE06.jpg,AMSA01.jpg,AMNE18.jpg,AMNE18.jpg,MN,1,num_4,16,num_4,1.25007673679,,,2017_Nov_10_1723,60.0046766842,MAFE4ImagesEEG,001,202296,
AFNE01.JPG,AFNE01.JPG,AFNE01.JPG,AFNE01.JPG,AFNE01.JPG,AFNE01.JPG,,,,,,,,,,,,,,,,,2,1,21,3,,,,,,,AMNE06.jpg,AMSA09.jpg,AMSA07.jpg,AMNE05.jpg,AMNE05.jpg,MN,1,num_4,32,num_6,0.883492981549,,,2017_Nov_10_1723,60.0046766842,MAFE4ImagesEEG,001,202296,
AFNE01.JPG,AFNE01.JPG,AFNE01.JPG,AFNE01.JPG,AFNE01.JPG,AFNE01.JPG,,,,,,,,,,,,,,,,,2,2,22,7,,,,,,,AMNE14.jpg,AMSA04.jpg,AMSA02.jpg,AMNE17.jpg,AMNE17.jpg,MN,1,num_4,16,num_4,0.733464195393,,,2017_Nov_10_1723,60.0046766842,MAFE4ImagesEEG,001,202296,
AFNE01.JPG,AFNE01.JPG,AFNE01.JPG,AFNE01.JPG,AFNE01.JPG,AFNE01.JPG,,,,,,,,,,,,,,,,,2,3,23,2,,,,,,,AMSA17.jpg,AMNE12.jpg,AMNE07.jpg,AMSA01.jpg,AMNE07.jpg,MN,1,num_2,32,num_6,0.716725442559,,,2017_Nov_10_1723,60.0046766842,MAFE4ImagesEEG,001,202296,
AFNE01.JPG,AFNE01.JPG,AFNE01.JPG,AFNE01.JPG,AFNE01.JPG,AFNE01.JPG,,,,,,,,,,,,,,,,,2,4,24,4,,,,,,,AMSA13.jpg,AMNE08.jpg,AMNE02.jpg,AMSA10.jpg,AMNE08.jpg,MN,1,num_6,32,num_8,0.566820461303,,,2017_Nov_10_1723,60.0046766842,MAFE4ImagesEEG,001,202296,
AFNE01.JPG,AFNE01.JPG,AFNE01.JPG,AFNE01.JPG,AFNE01.JPG,AFNE01.JPG,,,,,,,,,,,,,,,,,2,5,25,1,,,,,,,AMNE04.jpg,AMSA08.jpg,AMSA17.jpg,AMNE16.jpg,AMNE16.jpg,MN,1,num_4,16,num_4,0.933431479614,,,2017_Nov_10_1723,60.0046766842,MAFE4ImagesEEG,001,202296,
AFNE01.JPG,AFNE01.JPG,AFNE01.JPG,AFNE01.JPG,AFNE01.JPG,AFNE01.JPG,,,,,,,,,,,,,,,,,2,6,26,6,,,,,,,AMNE08.jpg,AMSA02.jpg,AMSA13.jpg,AMNE10.jpg,AMSA02.jpg,MS,2,num_6,16,num_6,0.56675887946,,,2017_Nov_10_1723,60.0046766842,MAFE4ImagesEEG,001,202296,
AFNE01.JPG,AFNE01.JPG,AFNE01.JPG,AFNE01.JPG,AFNE01.JPG,AFNE01.JPG,,,,,,,,,,,,,,,,,2,7,27,9,,,,,,,AMSA17.jpg,AMNE06.jpg,AMNE19.jpg,AMSA04.jpg,AMNE06.jpg,MN,1,num_6,32,num_4,0.68343749363,,,2017_Nov_10_1723,60.0046766842,MAFE4ImagesEEG,001,202296,
AFNE01.JPG,AFNE01.JPG,AFNE01.JPG,AFNE01.JPG,AFNE01.JPG,AFNE01.JPG,,,,,,,,,,,,,,,,,2,8,28,5,,,,,,,AMSA14.jpg,AMSA19.jpg,AMNE18.jpg,AMNE08.jpg,AMNE18.jpg,MN,1,num_2,32,num_6,0.716768421233,,,2017_Nov_10_1723,60.0046766842,MAFE4ImagesEEG,001,202296,
AFNE01.JPG,AFNE01.JPG,AFNE01.JPG,AFNE01.JPG,AFNE01.JPG,AFNE01.JPG,,,,,,,,,,,,,,,,,2,9,29,0,,,,,,,AMNE16.jpg,AMSA10.jpg,AMNE15.jpg,AMSA11.jpg,AMNE16.jpg,MN,1,num_8,16,num_8,0.61676633684,,,2017_Nov_10_1723,60.0046766842,MAFE4ImagesEEG,001,202296,
AFNE01.JPG,AFNE01.JPG,AFNE01.JPG,AFNE01.JPG,AFNE01.JPG,AFNE01.JPG,,,,,,,,,,,,,,,,,3,0,30,7,,,,,,,AMNE17.jpg,AMSA05.jpg,AMNE01.jpg,AMSA09.jpg,AMNE17.jpg,MN,1,num_8,16,num_8,0.550158685539,,,2017_Nov_10_1723,60.0046766842,MAFE4ImagesEEG,001,202296,
AFNE01.JPG,AFNE01.JPG,AFNE01.JPG,AFNE01.JPG,AFNE01.JPG,AFNE01.JPG,,,,,,,,,,,,,,,,,3,1,31,6,,,,,,,AMNE09.jpg,AMSA07.jpg,AMSA18.jpg,AMNE19.jpg,AMSA07.jpg,MS,2,num_6,32,num_4,0.783470048569,,,2017_Nov_10_1723,60.0046766842,MAFE4ImagesEEG,001,202296,
AFNE01.JPG,AFNE01.JPG,AFNE01.JPG,AFNE01.JPG,AFNE01.JPG,AFNE01.JPG,,,,,,,,,,,,,,,,,3,2,32,0,,,,,,,AMNE06.jpg,AMSA04.jpg,AMNE08.jpg,AMSA10.jpg,AMNE08.jpg,MN,1,num_2,32,num_8,0.700202867854,,,2017_Nov_10_1723,60.0046766842,MAFE4ImagesEEG,001,202296,
AFNE01.JPG,AFNE01.JPG,AFNE01.JPG,AFNE01.JPG,AFNE01.JPG,AFNE01.JPG,,,,,,,,,,,,,,,,,3,3,33,2,,,,,,,AMNE16.jpg,AMSA07.jpg,AMNE12.jpg,AMSA12.jpg,AMNE12.jpg,MN,1,num_2,32,num_4,0.816760562826,,,2017_Nov_10_1723,60.0046766842,MAFE4ImagesEEG,001,202296,
AFNE01.JPG,AFNE01.JPG,AFNE01.JPG,AFNE01.JPG,AFNE01.JPG,AFNE01.JPG,,,,,,,,,,,,,,,,,3,4,34,4,,,,,,,AMSA01.jpg,AMNE02.jpg,AMNE09.jpg,AMSA03.jpg,AMSA01.jpg,MS,2,num_8,16,num_8,0.583347525913,,,2017_Nov_10_1723,60.0046766842,MAFE4ImagesEEG,001,202296,
AFNE01.JPG,AFNE01.JPG,AFNE01.JPG,AFNE01.JPG,AFNE01.JPG,AFNE01.JPG,,,,,,,,,,,,,,,,,3,5,35,3,,,,,,,AMNE03.jpg,AMSA09.jpg,AMNE16.jpg,AMSA01.jpg,AMNE03.jpg,MN,1,num_8,16,num_8,0.716800495517,,,2017_Nov_10_1723,60.0046766842,MAFE4ImagesEEG,001,202296,
AFNE01.JPG,AFNE01.JPG,AFNE01.JPG,AFNE01.JPG,AFNE01.JPG,AFNE01.JPG,,,,,,,,,,,,,,,,,3,6,36,9,,,,,,,AMSA02.jpg,AMNE13.jpg,AMNE12.jpg,AMSA18.jpg,AMSA18.jpg,MS,2,num_4,32,num_8,0.716730894987,,,2017_Nov_10_1723,60.0046766842,MAFE4ImagesEEG,001,202296,
AFNE01.JPG,AFNE01.JPG,AFNE01.JPG,AFNE01.JPG,AFNE01.JPG,AFNE01.JPG,,,,,,,,,,,,,,,,,3,7,37,1,,,,,,,AMSA10.jpg,AMNE08.jpg,AMSA18.jpg,AMNE14.jpg,AMNE08.jpg,MN,1,num_6,32,num_4,0.816785260104,,,2017_Nov_10_1723,60.0046766842,MAFE4ImagesEEG,001,202296,
AFNE01.JPG,AFNE01.JPG,AFNE01.JPG,AFNE01.JPG,AFNE01.JPG,AFNE01.JPG,,,,,,,,,,,,,,,,,3,8,38,5,,,,,,,AMSA13.jpg,AMNE09.jpg,AMSA15.jpg,AMNE13.jpg,AMNE09.jpg,MN,1,num_6,16,num_6,2.2498567095,,,2017_Nov_10_1723,60.0046766842,MAFE4ImagesEEG,001,202296,
AFNE01.JPG,AFNE01.JPG,AFNE01.JPG,AFNE01.JPG,AFNE01.JPG,AFNE01.JPG,,,,,,,,,,,,,,,,,3,9,39,8,,,,,,,AMNE04.jpg,AMNE15.jpg,AMSA04.jpg,AMSA19.jpg,AMNE15.jpg,MN,1,num_6,16,num_6,0.533506853506,,,2017_Nov_10_1723,60.0046766842,MAFE4ImagesEEG,001,202296,
AFNE01.JPG,AFNE01.JPG,AFNE01.JPG,AFNE01.JPG,AFNE01.JPG,AFNE01.JPG,,,,,,,,,,,,,,,,,4,0,40,2,,,,,,,AMNE11.jpg,AMSA15.jpg,AMNE01.jpg,AMSA11.jpg,AMNE01.jpg,MN,1,num_2,16,num_2,0.63347654324,,,2017_Nov_10_1723,60.0046766842,MAFE4ImagesEEG,001,202296,
AFNE01.JPG,AFNE01.JPG,AFNE01.JPG,AFNE01.JPG,AFNE01.JPG,AFNE01.JPG,,,,,,,,,,,,,,,,,4,1,41,6,,,,,,,AMNE03.jpg,AMSA15.jpg,AMSA12.jpg,AMNE20.jpg,AMNE20.jpg,MN,1,num_4,16,num_4,0.816753507126,,,2017_Nov_10_1723,60.0046766842,MAFE4ImagesEEG,001,202296,
AFNE01.JPG,AFNE01.JPG,AFNE01.JPG,AFNE01.JPG,AFNE01.JPG,AFNE01.JPG,,,,,,,,,,,,,,,,,4,2,42,1,,,,,,,AMNE05.jpg,AMNE03.jpg,AMSA16.jpg,AMSA20.jpg,AMSA16.jpg,MS,2,num_2,32,num_6,0.583481915761,,,2017_Nov_10_1723,60.0046766842,MAFE4ImagesEEG,001,202296,
AFNE01.JPG,AFNE01.JPG,AFNE01.JPG,AFNE01.JPG,AFNE01.JPG,AFNE01.JPG,,,,,,,,,,,,,,,,,4,3,43,5,,,,,,,AMNE11.jpg,AMSA18.jpg,AMNE02.jpg,AMSA19.jpg,AMNE02.jpg,MN,1,num_2,16,num_2,0.583487368189,,,2017_Nov_10_1723,60.0046766842,MAFE4ImagesEEG,001,202296,
AFNE01.JPG,AFNE01.JPG,AFNE01.JPG,AFNE01.JPG,AFNE01.JPG,AFNE01.JPG,,,,,,,,,,,,,,,,,4,4,44,3,,,,,,,AMNE16.jpg,AMSA12.jpg,AMSA17.jpg,AMNE17.jpg,AMSA17.jpg,MS,2,num_2,32,num_8,0.966785500292,,,2017_Nov_10_1723,60.0046766842,MAFE4ImagesEEG,001,202296,
AFNE01.JPG,AFNE01.JPG,AFNE01.JPG,AFNE01.JPG,AFNE01.JPG,AFNE01.JPG,,,,,,,,,,,,,,,,,4,5,45,4,,,,,,,AMNE18.jpg,AMNE05.jpg,AMSA07.jpg,AMSA18.jpg,AMNE05.jpg,MN,1,num_6,32,num_8,0.950420730282,,,2017_Nov_10_1723,60.0046766842,MAFE4ImagesEEG,001,202296,
AFNE01.JPG,AFNE01.JPG,AFNE01.JPG,AFNE01.JPG,AFNE01.JPG,AFNE01.JPG,,,,,,,,,,,,,,,,,4,6,46,9,,,,,,,AMNE07.jpg,AMSA06.jpg,AMSA08.jpg,AMNE11.jpg,AMNE07.jpg,MN,1,num_8,32,num_6,0.583471972961,,,2017_Nov_10_1723,60.0046766842,MAFE4ImagesEEG,001,202296,
AFNE01.JPG,AFNE01.JPG,AFNE01.JPG,AFNE01.JPG,AFNE01.JPG,AFNE01.JPG,,,,,,,,,,,,,,,,,4,7,47,7,,,,,,,AMSA12.jpg,AMNE20.jpg,AMSA19.jpg,AMNE11.jpg,AMNE20.jpg,MN,1,num_6,16,num_6,0.583517838735,,,2017_Nov_10_1723,60.0046766842,MAFE4ImagesEEG,001,202296,
AFNE01.JPG,AFNE01.JPG,AFNE01.JPG,AFNE01.JPG,AFNE01.JPG,AFNE01.JPG,,,,,,,,,,,,,,,,,4,8,48,8,,,,,,,AMSA05.jpg,AMSA01.jpg,AMNE06.jpg,AMNE03.jpg,AMSA01.jpg,MS,2,num_6,16,num_6,0.56676240731,,,2017_Nov_10_1723,60.0046766842,MAFE4ImagesEEG,001,202296,
AFNE01.JPG,AFNE01.JPG,AFNE01.JPG,AFNE01.JPG,AFNE01.JPG,AFNE01.JPG,,,,,,,,,,,,,,,,,4,9,49,0,,,,,,,AMNE01.jpg,AMSA15.jpg,AMNE15.jpg,AMSA08.jpg,AMSA15.jpg,MS,2,num_6,32,num_4,0.866736587603,,,2017_Nov_10_1723,60.0046766842,MAFE4ImagesEEG,001,202296,
AFNE01.JPG,AFNE01.JPG,AFNE01.JPG,AFNE01.JPG,AFNE01.JPG,AFNE01.JPG,,,,,,,,,,,,,,,,,5,0,50,5,,,,,,,AMNE16.jpg,AMNE20.jpg,AMSA20.jpg,AMSA08.jpg,AMNE16.jpg,MN,1,num_8,16,num_8,0.683485283516,,,2017_Nov_10_1723,60.0046766842,MAFE4ImagesEEG,001,202296,
AFNE01.JPG,AFNE01.JPG,AFNE01.JPG,AFNE01.JPG,AFNE01.JPG,AFNE01.JPG,,,,,,,,,,,,,,,,,5,1,51,1,,,,,,,AMNE16.jpg,AMNE06.jpg,AMSA14.jpg,AMSA10.jpg,AMSA14.jpg,MS,2,num_2,32,num_8,0.783476463519,,,2017_Nov_10_1723,60.0046766842,MAFE4ImagesEEG,001,202296,
AFNE01.JPG,AFNE01.JPG,AFNE01.JPG,AFNE01.JPG,AFNE01.JPG,AFNE01.JPG,,,,,,,,,,,,,,,,,5,2,52,3,,,,,,,AMSA07.jpg,AMNE20.jpg,AMNE14.jpg,AMSA17.jpg,AMSA07.jpg,MS,2,num_8,32,num_4,1.21673073433,,,2017_Nov_10_1723,60.0046766842,MAFE4ImagesEEG,001,202296,
AFNE01.JPG,AFNE01.JPG,AFNE01.JPG,AFNE01.JPG,AFNE01.JPG,AFNE01.JPG,,,,,,,,,,,,,,,,,5,3,53,2,,,,,,,AMNE15.jpg,AMNE16.jpg,AMSA08.jpg,AMSA09.jpg,AMSA09.jpg,MS,2,num_4,16,num_4,0.683450002223,,,2017_Nov_10_1723,60.0046766842,MAFE4ImagesEEG,001,202296,
AFNE01.JPG,AFNE01.JPG,AFNE01.JPG,AFNE01.JPG,AFNE01.JPG,AFNE01.JPG,,,,,,,,,,,,,,,,,5,4,54,8,,,,,,,AMNE13.jpg,AMNE19.jpg,AMSA12.jpg,AMSA05.jpg,AMNE19.jpg,MN,1,num_6,16,num_6,0.616517763585,,,2017_Nov_10_1723,60.0046766842,MAFE4ImagesEEG,001,202296,
AFNE01.JPG,AFNE01.JPG,AFNE01.JPG,AFNE01.JPG,AFNE01.JPG,AFNE01.JPG,,,,,,,,,,,,,,,,,5,5,55,6,,,,,,,AMSA03.jpg,AMSA07.jpg,AMNE18.jpg,AMNE08.jpg,AMSA07.jpg,MS,2,num_6,32,num_4,0.633308154996,,,2017_Nov_10_1723,60.0046766842,MAFE4ImagesEEG,001,202296,
AFNE01.JPG,AFNE01.JPG,AFNE01.JPG,AFNE01.JPG,AFNE01.JPG,AFNE01.JPG,,,,,,,,,,,,,,,,,5,6,56,9,,,,,,,AMNE13.jpg,AMSA04.jpg,AMNE08.jpg,AMSA19.jpg,AMSA19.jpg,MS,2,num_4,16,num_4,0.666787585244,,,2017_Nov_10_1723,60.0046766842,MAFE4ImagesEEG,001,202296,
AFNE01.JPG,AFNE01.JPG,AFNE01.JPG,AFNE01.JPG,AFNE01.JPG,AFNE01.JPG,,,,,,,,,,,,,,,,,5,7,57,4,,,,,,,AMNE01.jpg,AMSA20.jpg,AMNE07.jpg,AMSA19.jpg,AMSA20.jpg,MS,2,num_6,32,num_2,0.86677764263,,,2017_Nov_10_1723,60.0046766842,MAFE4ImagesEEG,001,202296,
AFNE01.JPG,AFNE01.JPG,AFNE01.JPG,AFNE01.JPG,AFNE01.JPG,AFNE01.JPG,,,,,,,,,,,,,,,,,5,8,58,7,,,,,,,AMSA12.jpg,AMNE11.jpg,AMSA09.jpg,AMNE10.jpg,AMSA12.jpg,MS,2,num_8,16,num_8,0.816737149376,,,2017_Nov_10_1723,60.0046766842,MAFE4ImagesEEG,001,202296,
AFNE01.JPG,AFNE01.JPG,AFNE01.JPG,AFNE01.JPG,AFNE01.JPG,AFNE01.JPG,,,,,,,,,,,,,,,,,5,9,59,0,,,,,,,AMNE02.jpg,AMSA19.jpg,AMSA20.jpg,AMNE05.jpg,AMSA19.jpg,MS,2,num_6,32,num_4,0.650149545167,,,2017_Nov_10_1723,60.0046766842,MAFE4ImagesEEG,001,202296,
,,,,,,,,,,,,,,,,,,,,,,,,,,,,,,,,,,,,,,,,,,,space,17.5321642379,2017_Nov_10_1723,60.0046766842,MAFE4ImagesEEG,001,202296,
AFNE01.JPG,AFNE01.JPG,AFNE01.JPG,AFNE01.JPG,AFNE01.JPG,AFNE01.JPG,,,,,,,,,,,,,,,,,,,,,0,0,0,0,,,AFSA12.jpg,AFSA01.jpg,AFNE16.jpg,AFNE05.jpg,AFSA12.jpg,FS,4,num_8,16,num_8,0.700143530965,,,2017_Nov_10_1723,60.0046766842,MAFE4ImagesEEG,001,202296,
AFNE01.JPG,AFNE01.JPG,AFNE01.JPG,AFNE01.JPG,AFNE01.JPG,AFNE01.JPG,,,,,,,,,,,,,,,,,,,,,0,1,1,7,,,AFNE15.jpg,AFSA05.jpg,AFSA11.jpg,AFNE19.jpg,AFSA05.jpg,FS,4,num_6,32,num_4,0.616637719795,,,2017_Nov_10_1723,60.0046766842,MAFE4ImagesEEG,001,202296,
AFNE01.JPG,AFNE01.JPG,AFNE01.JPG,AFNE01.JPG,AFNE01.JPG,AFNE01.JPG,,,,,,,,,,,,,,,,,,,,,0,2,2,8,,,AFSA03.jpg,AFNE08.jpg,AFSA12.jpg,AFNE09.jpg,AFSA12.jpg,FS,4,num_2,32,num_4,0.683440379798,,,2017_Nov_10_1723,60.0046766842,MAFE4ImagesEEG,001,202296,
AFNE01.JPG,AFNE01.JPG,AFNE01.JPG,AFNE01.JPG,AFNE01.JPG,AFNE01.JPG,,,,,,,,,,,,,,,,,,,,,0,3,3,5,,,AFSA13.jpg,AFNE04.jpg,AFNE20.jpg,AFSA01.jpg,AFSA13.jpg,FS,4,num_8,32,num_4,0.700082269963,,,2017_Nov_10_1723,60.0046766842,MAFE4ImagesEEG,001,202296,
AFNE01.JPG,AFNE01.JPG,AFNE01.JPG,AFNE01.JPG,AFNE01.JPG,AFNE01.JPG,,,,,,,,,,,,,,,,,,,,,0,4,4,4,,,AFSA02.jpg,AFNE16.jpg,AFSA07.jpg,AFNE13.jpg,AFNE16.jpg,FN,3,num_6,16,num_6,0.683461869601,,,2017_Nov_10_1723,60.0046766842,MAFE4ImagesEEG,001,202296,
AFNE01.JPG,AFNE01.JPG,AFNE01.JPG,AFNE01.JPG,AFNE01.JPG,AFNE01.JPG,,,,,,,,,,,,,,,,,,,,,0,5,5,3,,,AFSA19.jpg,AFNE13.jpg,AFSA18.jpg,AFNE12.jpg,AFSA19.jpg,FS,4,num_8,16,num_8,0.766745728906,,,2017_Nov_10_1723,60.0046766842,MAFE4ImagesEEG,001,202296,
AFNE01.JPG,AFNE01.JPG,AFNE01.JPG,AFNE01.JPG,AFNE01.JPG,AFNE01.JPG,,,,,,,,,,,,,,,,,,,,,0,6,6,9,,,AFSA10.jpg,AFSA19.jpg,AFNE07.jpg,AFNE16.jpg,AFNE07.jpg,FN,3,num_2,16,num_2,0.750116027426,,,2017_Nov_10_1723,60.0046766842,MAFE4ImagesEEG,001,202296,
AFNE01.JPG,AFNE01.JPG,AFNE01.JPG,AFNE01.JPG,AFNE01.JPG,AFNE01.JPG,,,,,,,,,,,,,,,,,,,,,0,7,7,6,,,AFNE02.jpg,AFSA13.jpg,AFNE18.jpg,AFSA04.jpg,AFSA04.jpg,FS,4,num_4,32,num_8,0.616796165239,,,2017_Nov_10_1723,60.0046766842,MAFE4ImagesEEG,001,202296,
AFNE01.JPG,AFNE01.JPG,AFNE01.JPG,AFNE01.JPG,AFNE01.JPG,AFNE01.JPG,,,,,,,,,,,,,,,,,,,,,0,8,8,2,,,AFSA07.jpg,AFSA18.jpg,AFNE09.jpg,AFNE03.jpg,AFSA07.jpg,FS,4,num_8,16,num_8,0.800088845193,,,2017_Nov_10_1723,60.0046766842,MAFE4ImagesEEG,001,202296,
AFNE01.JPG,AFNE01.JPG,AFNE01.JPG,AFNE01.JPG,AFNE01.JPG,AFNE01.JPG,,,,,,,,,,,,,,,,,,,,,0,9,9,1,,,AFSA02.jpg,AFNE10.jpg,AFSA09.jpg,AFNE02.jpg,AFNE10.jpg,FN,3,num_6,32,num_4,0.700141927227,,,2017_Nov_10_1723,60.0046766842,MAFE4ImagesEEG,001,202296,
AFNE01.JPG,AFNE01.JPG,AFNE01.JPG,AFNE01.JPG,AFNE01.JPG,AFNE01.JPG,,,,,,,,,,,,,,,,,,,,,1,0,10,7,,,AFSA07.jpg,AFNE09.jpg,AFNE19.jpg,AFSA08.jpg,AFSA08.jpg,FS,4,num_4,32,num_2,0.866827998776,,,2017_Nov_10_1723,60.0046766842,MAFE4ImagesEEG,001,202296,
AFNE01.JPG,AFNE01.JPG,AFNE01.JPG,AFNE01.JPG,AFNE01.JPG,AFNE01.JPG,,,,,,,,,,,,,,,,,,,,,1,1,11,6,,,AFSA19.jpg,AFNE03.jpg,AFNE07.jpg,AFSA13.jpg,AFSA13.jpg,FS,4,num_4,16,num_4,0.816772109829,,,2017_Nov_10_1723,60.0046766842,MAFE4ImagesEEG,001,202296,
AFNE01.JPG,AFNE01.JPG,AFNE01.JPG,AFNE01.JPG,AFNE01.JPG,AFNE01.JPG,,,,,,,,,,,,,,,,,,,,,1,2,12,8,,,AFNE20.jpg,AFSA06.jpg,AFNE05.jpg,AFSA19.jpg,AFSA19.jpg,FS,4,num_4,32,num_8,0.883438776247,,,2017_Nov_10_1723,60.0046766842,MAFE4ImagesEEG,001,202296,
AFNE01.JPG,AFNE01.JPG,AFNE01.JPG,AFNE01.JPG,AFNE01.JPG,AFNE01.JPG,,,,,,,,,,,,,,,,,,,,,1,3,13,3,,,AFSA05.jpg,AFSA20.jpg,AFNE16.jpg,AFNE12.jpg,AFNE12.jpg,FN,3,num_4,16,num_4,1.06674171938,,,2017_Nov_10_1723,60.0046766842,MAFE4ImagesEEG,001,202296,
AFNE01.JPG,AFNE01.JPG,AFNE01.JPG,AFNE01.JPG,AFNE01.JPG,AFNE01.JPG,,,,,,,,,,,,,,,,,,,,,1,4,14,1,,,AFSA15.jpg,AFNE15.jpg,AFSA10.jpg,AFNE14.jpg,AFSA10.jpg,FS,4,num_2,16,num_2,1.04995068628,,,2017_Nov_10_1723,60.0046766842,MAFE4ImagesEEG,001,202296,
AFNE01.JPG,AFNE01.JPG,AFNE01.JPG,AFNE01.JPG,AFNE01.JPG,AFNE01.JPG,,,,,,,,,,,,,,,,,,,,,1,5,15,2,,,AFSA11.jpg,AFNE14.jpg,AFNE12.jpg,AFSA14.jpg,AFSA11.jpg,FS,4,num_8,32,num_4,0.750093896408,,,2017_Nov_10_1723,60.0046766842,MAFE4ImagesEEG,001,202296,
AFNE01.JPG,AFNE01.JPG,AFNE01.JPG,AFNE01.JPG,AFNE01.JPG,AFNE01.JPG,,,,,,,,,,,,,,,,,,,,,1,6,16,5,,,AFSA01.jpg,AFNE06.jpg,AFSA11.jpg,AFNE04.jpg,AFNE06.jpg,FN,3,num_6,32,num_8,0.86672824854,,,2017_Nov_10_1723,60.0046766842,MAFE4ImagesEEG,001,202296,
AFNE01.JPG,AFNE01.JPG,AFNE01.JPG,AFNE01.JPG,AFNE01.JPG,AFNE01.JPG,,,,,,,,,,,,,,,,,,,,,1,7,17,0,,,AFSA15.jpg,AFNE16.jpg,AFNE05.jpg,AFSA17.jpg,AFSA15.jpg,FS,4,num_8,16,num_8,0.716777722817,,,2017_Nov_10_1723,60.0046766842,MAFE4ImagesEEG,001,202296,
AFNE01.JPG,AFNE01.JPG,AFNE01.JPG,AFNE01.JPG,AFNE01.JPG,AFNE01.JPG,,,,,,,,,,,,,,,,,,,,,1,8,18,4,,,AFSA02.jpg,AFSA19.jpg,AFNE12.jpg,AFNE15.jpg,AFSA19.jpg,FS,4,num_6,16,num_6,0.816733941901,,,2017_Nov_10_1723,60.0046766842,MAFE4ImagesEEG,001,202296,
AFNE01.JPG,AFNE01.JPG,AFNE01.JPG,AFNE01.JPG,AFNE01.JPG,AFNE01.JPG,,,,,,,,,,,,,,,,,,,,,1,9,19,9,,,AFNE08.jpg,AFNE06.jpg,AFSA06.jpg,AFSA03.jpg,AFNE08.jpg,FN,3,num_8,32,num_4,0.800111296587,,,2017_Nov_10_1723,60.0046766842,MAFE4ImagesEEG,001,202296,
AFNE01.JPG,AFNE01.JPG,AFNE01.JPG,AFNE01.JPG,AFNE01.JPG,AFNE01.JPG,,,,,,,,,,,,,,,,,,,,,2,0,20,3,,,AFSA12.jpg,AFNE16.jpg,AFSA01.jpg,AFNE12.jpg,AFNE12.jpg,FN,3,num_4,32,num_8,0.750144572929,,,2017_Nov_10_1723,60.0046766842,MAFE4ImagesEEG,001,202296,
AFNE01.JPG,AFNE01.JPG,AFNE01.JPG,AFNE01.JPG,AFNE01.JPG,AFNE01.JPG,,,,,,,,,,,,,,,,,,,,,2,1,21,9,,,AFNE04.jpg,AFNE16.jpg,AFSA02.jpg,AFSA07.jpg,AFSA07.jpg,FS,4,num_4,16,num_4,0.9834235413,,,2017_Nov_10_1723,60.0046766842,MAFE4ImagesEEG,001,202296,
AFNE01.JPG,AFNE01.JPG,AFNE01.JPG,AFNE01.JPG,AFNE01.JPG,AFNE01.JPG,,,,,,,,,,,,,,,,,,,,,2,2,22,5,,,AFNE06.jpg,AFSA04.jpg,AFSA02.jpg,AFNE11.jpg,AFSA04.jpg,FS,4,num_6,16,num_6,0.583417768124,,,2017_Nov_10_1723,60.0046766842,MAFE4ImagesEEG,001,202296,
AFNE01.JPG,AFNE01.JPG,AFNE01.JPG,AFNE01.JPG,AFNE01.JPG,AFNE01.JPG,,,,,,,,,,,,,,,,,,,,,2,3,23,2,,,AFNE09.jpg,AFNE12.jpg,AFSA18.jpg,AFSA06.jpg,AFNE09.jpg,FN,3,num_8,32,num_4,1.05014505424,,,2017_Nov_10_1723,60.0046766842,MAFE4ImagesEEG,001,202296,
AFNE01.JPG,AFNE01.JPG,AFNE01.JPG,AFNE01.JPG,AFNE01.JPG,AFNE01.JPG,,,,,,,,,,,,,,,,,,,,,2,4,24,4,,,AFNE04.jpg,AFSA18.jpg,AFNE12.jpg,AFSA08.jpg,AFSA18.jpg,FS,4,num_6,32,num_8,0.833314570133,,,2017_Nov_10_1723,60.0046766842,MAFE4ImagesEEG,001,202296,
AFNE01.JPG,AFNE01.JPG,AFNE01.JPG,AFNE01.JPG,AFNE01.JPG,AFNE01.JPG,,,,,,,,,,,,,,,,,,,,,2,5,25,1,,,AFNE17.jpg,AFNE04.jpg,AFSA09.jpg,AFSA17.jpg,AFNE04.jpg,FN,3,num_6,16,num_6,0.750102556311,,,2017_Nov_10_1723,60.0046766842,MAFE4ImagesEEG,001,202296,
AFNE01.JPG,AFNE01.JPG,AFNE01.JPG,AFNE01.JPG,AFNE01.JPG,AFNE01.JPG,,,,,,,,,,,,,,,,,,,,,2,6,26,6,,,AFSA20.jpg,AFNE18.jpg,AFNE20.jpg,AFSA16.jpg,AFNE18.jpg,FN,3,num_6,32,num_4,0.916743724607,,,2017_Nov_10_1723,60.0046766842,MAFE4ImagesEEG,001,202296,
AFNE01.JPG,AFNE01.JPG,AFNE01.JPG,AFNE01.JPG,AFNE01.JPG,AFNE01.JPG,,,,,,,,,,,,,,,,,,,,,2,7,27,8,,,AFSA18.jpg,AFSA09.jpg,AFNE14.jpg,AFNE17.jpg,AFNE14.jpg,FN,3,num_2,32,num_6,0.650121319573,,,2017_Nov_10_1723,60.0046766842,MAFE4ImagesEEG,001,202296,
AFNE01.JPG,AFNE01.JPG,AFNE01.JPG,AFNE01.JPG,AFNE01.JPG,AFNE01.JPG,,,,,,,,,,,,,,,,,,,,,2,8,28,7,,,AFNE05.jpg,AFNE19.jpg,AFSA07.jpg,AFSA12.jpg,AFSA07.jpg,FS,4,num_2,16,num_2,0.550137196202,,,2017_Nov_10_1723,60.0046766842,MAFE4ImagesEEG,001,202296,
AFNE01.JPG,AFNE01.JPG,AFNE01.JPG,AFNE01.JPG,AFNE01.JPG,AFNE01.JPG,,,,,,,,,,,,,,,,,,,,,2,9,29,0,,,AFNE18.jpg,AFSA20.jpg,AFSA17.jpg,AFNE14.jpg,AFNE14.jpg,FN,3,num_4,16,num_4,0.666793038137,,,2017_Nov_10_1723,60.0046766842,MAFE4ImagesEEG,001,202296,
AFNE01.JPG,AFNE01.JPG,AFNE01.JPG,AFNE01.JPG,AFNE01.JPG,AFNE01.JPG,,,,,,,,,,,,,,,,,,,,,3,0,30,9,,,AFNE18.jpg,AFSA18.jpg,AFSA07.jpg,AFNE16.jpg,AFSA07.jpg,FS,4,num_2,16,num_2,0.61676729843,,,2017_Nov_10_1723,60.0046766842,MAFE4ImagesEEG,001,202296,
AFNE01.JPG,AFNE01.JPG,AFNE01.JPG,AFNE01.JPG,AFNE01.JPG,AFNE01.JPG,,,,,,,,,,,,,,,,,,,,,3,1,31,5,,,AFSA11.jpg,AFNE14.jpg,AFSA07.jpg,AFNE11.jpg,AFNE11.jpg,FN,3,num_4,16,num_4,0.600174482446,,,2017_Nov_10_1723,60.0046766842,MAFE4ImagesEEG,001,202296,
AFNE01.JPG,AFNE01.JPG,AFNE01.JPG,AFNE01.JPG,AFNE01.JPG,AFNE01.JPG,,,,,,,,,,,,,,,,,,,,,3,2,32,4,,,AFNE04.jpg,AFSA11.jpg,AFSA03.jpg,AFNE11.jpg,AFNE11.jpg,FN,3,num_4,16,num_4,0.633481034078,,,2017_Nov_10_1723,60.0046766842,MAFE4ImagesEEG,001,202296,
AFNE01.JPG,AFNE01.JPG,AFNE01.JPG,AFNE01.JPG,AFNE01.JPG,AFNE01.JPG,,,,,,,,,,,,,,,,,,,,,3,3,33,7,,,AFSA14.jpg,AFSA13.jpg,AFNE16.jpg,AFNE06.jpg,AFNE06.jpg,FN,3,num_4,16,num_4,0.566770105157,,,2017_Nov_10_1723,60.0046766842,MAFE4ImagesEEG,001,202296,
AFNE01.JPG,AFNE01.JPG,AFNE01.JPG,AFNE01.JPG,AFNE01.JPG,AFNE01.JPG,,,,,,,,,,,,,,,,,,,,,3,4,34,1,,,AFNE03.jpg,AFNE01.jpg,AFSA18.jpg,AFSA13.jpg,AFNE01.jpg,FN,3,num_6,32,num_8,1.20006511034,,,2017_Nov_10_1723,60.0046766842,MAFE4ImagesEEG,001,202296,
AFNE01.JPG,AFNE01.JPG,AFNE01.JPG,AFNE01.JPG,AFNE01.JPG,AFNE01.JPG,,,,,,,,,,,,,,,,,,,,,3,5,35,0,,,AFNE17.jpg,AFNE14.jpg,AFSA05.jpg,AFSA20.jpg,AFSA05.jpg,FS,4,num_2,16,num_2,0.516807551496,,,2017_Nov_10_1723,60.0046766842,MAFE4ImagesEEG,001,202296,
AFNE01.JPG,AFNE01.JPG,AFNE01.JPG,AFNE01.JPG,AFNE01.JPG,AFNE01.JPG,,,,,,,,,,,,,,,,,,,,,3,6,36,2,,,AFSA04.jpg,AFNE17.jpg,AFNE02.jpg,AFSA19.jpg,AFSA04.jpg,FS,4,num_8,32,num_6,0.7835069336,,,2017_Nov_10_1723,60.0046766842,MAFE4ImagesEEG,001,202296,
AFNE01.JPG,AFNE01.JPG,AFNE01.JPG,AFNE01.JPG,AFNE01.JPG,AFNE01.JPG,,,,,,,,,,,,,,,,,,,,,3,7,37,3,,,AFSA08.jpg,AFSA18.jpg,AFNE06.jpg,AFNE03.jpg,AFSA08.jpg,FS,4,num_8,32,num_4,0.716779968236,,,2017_Nov_10_1723,60.0046766842,MAFE4ImagesEEG,001,202296,
AFNE01.JPG,AFNE01.JPG,AFNE01.JPG,AFNE01.JPG,AFNE01.JPG,AFNE01.JPG,,,,,,,,,,,,,,,,,,,,,3,8,38,8,,,AFSA12.jpg,AFNE07.jpg,AFSA18.jpg,AFNE16.jpg,AFSA18.jpg,FS,4,num_2,32,num_4,0.78347036941,,,2017_Nov_10_1723,60.0046766842,MAFE4ImagesEEG,001,202296,
