IPosition2,IPosition3,IPosition1,IPosition6,IPosition4,IPosition5,TrialsF1.thisRepN,TrialsF1.thisTrialN,TrialsF1.thisN,TrialsF1.thisIndex,TrialsM1.thisRepN,TrialsM1.thisTrialN,TrialsM1.thisN,TrialsM1.thisIndex,TrialsF2.thisRepN,TrialsF2.thisTrialN,TrialsF2.thisN,TrialsF2.thisIndex,TrialsM2.thisRepN,TrialsM2.thisTrialN,TrialsM2.thisN,TrialsM2.thisIndex,TrialsF3.thisRepN,TrialsF3.thisTrialN,TrialsF3.thisN,TrialsF3.thisIndex,TrialsM3.thisRepN,TrialsM3.thisTrialN,TrialsM3.thisN,TrialsM3.thisIndex,InstrKey_resp.keys,InstrKey_resp.rt,Image0 _Position,Image1 _Position,Image2 _Position,Image3 _Position,Center_image,condition,code,correct_answer,accuracy,Key_Resp.keys,Key_Resp.rt,BreakKey_resp.keys,BreakKey_resp.rt,date,frameRate,expName,session,participant,
,,,,,,,,,,,,,,,,,,,,,,,,,,,,,,space,3.29986769496,,,,,,,,,,,,,,2017_Oct_26_1513,60.0062935974,FEMA4ImagesEEG,001,202220,
AFNE22.JPG,AFSA24.JPG,AFSA22.JPG,AFNE25.JPG,AFNE24.JPG,AFSA25.JPG,0,0,0,6,,,,,,,,,,,,,,,,,,,,,,,AFSA16.jpg,AFSA06.jpg,AFNE12.jpg,AFNE13.jpg,AFSA16.jpg,FS,4,num_8,32,num_2,2.10006142163,,,2017_Oct_26_1513,60.0062935974,FEMA4ImagesEEG,001,202220,
AMSA25.JPG,AMNE24.JPG,AMSA24.JPG,AMNE26.JPG,AMSA21.JPG,AMNE25.JPG,0,1,1,3,,,,,,,,,,,,,,,,,,,,,,,AFNE08.jpg,AFSA20.jpg,AFNE18.jpg,AFSA12.jpg,AFSA12.jpg,FS,4,num_4,32,num_8,1.29994852131,,,2017_Oct_26_1513,60.0062935974,FEMA4ImagesEEG,001,202220,
AFSA21.JPG,AFNE23.JPG,AFNE21.JPG,AFSA25.JPG,AFNE25.JPG,AFSA23.JPG,0,2,2,4,,,,,,,,,,,,,,,,,,,,,,,AFNE01.jpg,AFSA01.jpg,AFSA06.jpg,AFNE09.jpg,AFSA06.jpg,FS,4,num_2,32,num_4,0.650137356715,,,2017_Oct_26_1513,60.0062935974,FEMA4ImagesEEG,001,202220,
AMNE22.JPG,AMSA24.JPG,AMSA22.JPG,AMNE25.JPG,AMNE24.JPG,AMSA25.JPG,0,3,3,7,,,,,,,,,,,,,,,,,,,,,,,AFSA17.jpg,AFNE13.jpg,AFNE18.jpg,AFSA19.jpg,AFSA19.jpg,FS,4,num_4,16,num_4,0.616755110561,,,2017_Oct_26_1513,60.0062935974,FEMA4ImagesEEG,001,202220,
AMSA21.JPG,AMNE23.JPG,AMNE21.JPG,AMSA25.JPG,AMNE25.JPG,AMSA23.JPG,0,4,4,5,,,,,,,,,,,,,,,,,,,,,,,AFSA10.jpg,AFSA13.jpg,AFNE08.jpg,AFNE16.jpg,AFNE08.jpg,FN,3,num_2,32,num_8,0.90011883399,,,2017_Oct_26_1513,60.0062935974,FEMA4ImagesEEG,001,202220,
AMSA21.JPG,AMNE22.JPG,AMNE21.JPG,AMSA23.JPG,AMSA22.JPG,AMNE23.JPG,0,5,5,1,,,,,,,,,,,,,,,,,,,,,,,AFSA18.jpg,AFSA06.jpg,AFNE13.jpg,AFNE09.jpg,AFSA06.jpg,FS,4,num_6,16,num_6,0.750110254274,,,2017_Oct_26_1513,60.0062935974,FEMA4ImagesEEG,001,202220,
AMNE23.JPG,AMNE24.JPG,AMNE22.JPG,AMSA24.JPG,AMSA22.JPG,AMSA23.JPG,0,6,6,9,,,,,,,,,,,,,,,,,,,,,,,AFNE05.jpg,AFNE14.jpg,AFSA14.jpg,AFSA08.jpg,AFNE05.jpg,FN,3,num_8,16,num_8,0.950050917338,,,2017_Oct_26_1513,60.0062935974,FEMA4ImagesEEG,001,202220,
AFSA21.JPG,AFNE22.JPG,AFNE21.JPG,AFSA23.JPG,AFSA22.JPG,AFNE23.JPG,0,7,7,0,,,,,,,,,,,,,,,,,,,,,,,AFSA12.jpg,AFSA06.jpg,AFNE06.jpg,AFNE07.jpg,AFSA12.jpg,FS,4,num_8,32,num_6,0.850142167881,,,2017_Oct_26_1513,60.0062935974,FEMA4ImagesEEG,001,202220,
AFSA25.JPG,AFNE24.JPG,AFSA24.JPG,AFNE21.JPG,AFSA21.JPG,AFNE25.JPG,0,8,8,2,,,,,,,,,,,,,,,,,,,,,,,AFSA03.jpg,AFNE07.jpg,AFSA19.jpg,AFNE03.jpg,AFSA03.jpg,FS,4,num_8,16,num_8,1.30005917652,,,2017_Oct_26_1513,60.0062935974,FEMA4ImagesEEG,001,202220,
AFNE23.JPG,AFNE24.JPG,AFNE22.JPG,AFSA24.JPG,AFSA22.JPG,AFSA23.JPG,0,9,9,8,,,,,,,,,,,,,,,,,,,,,,,AFSA20.jpg,AFNE11.jpg,AFSA10.jpg,AFNE03.jpg,AFNE03.jpg,FN,3,num_4,32,num_8,0.866774435155,,,2017_Oct_26_1513,60.0062935974,FEMA4ImagesEEG,001,202220,
AMNE23.JPG,AMNE24.JPG,AMNE22.JPG,AMSA24.JPG,AMSA22.JPG,AMSA23.JPG,,,,,0,0,0,9,,,,,,,,,,,,,,,,,,,AMNE14.jpg,AMSA01.jpg,AMSA17.jpg,AMNE07.jpg,AMNE14.jpg,MN,1,num_8,16,num_8,0.833472053171,,,2017_Oct_26_1513,60.0062935974,FEMA4ImagesEEG,001,202220,
AFSA21.JPG,AFNE23.JPG,AFNE21.JPG,AFSA25.JPG,AFNE25.JPG,AFSA23.JPG,,,,,0,1,1,4,,,,,,,,,,,,,,,,,,,AMSA14.jpg,AMNE14.jpg,AMNE17.jpg,AMSA07.jpg,AMNE17.jpg,MN,1,num_2,32,num_6,1.11678125092,,,2017_Oct_26_1513,60.0062935974,FEMA4ImagesEEG,001,202220,
AFSA25.JPG,AFNE24.JPG,AFSA24.JPG,AFNE21.JPG,AFSA21.JPG,AFNE25.JPG,,,,,0,2,2,2,,,,,,,,,,,,,,,,,,,AMNE06.jpg,AMSA15.jpg,AMNE07.jpg,AMSA13.jpg,AMNE06.jpg,MN,1,num_8,16,num_8,0.716795042623,,,2017_Oct_26_1513,60.0062935974,FEMA4ImagesEEG,001,202220,
AMSA21.JPG,AMNE23.JPG,AMNE21.JPG,AMSA25.JPG,AMNE25.JPG,AMSA23.JPG,,,,,0,3,3,5,,,,,,,,,,,,,,,,,,,AMNE10.jpg,AMNE11.jpg,AMSA02.jpg,AMSA14.jpg,AMSA14.jpg,MS,2,num_4,16,num_4,0.683509980561,,,2017_Oct_26_1513,60.0062935974,FEMA4ImagesEEG,001,202220,
AMNE22.JPG,AMSA24.JPG,AMSA22.JPG,AMNE25.JPG,AMNE24.JPG,AMSA25.JPG,,,,,0,4,4,7,,,,,,,,,,,,,,,,,,,AMSA16.jpg,AMNE12.jpg,AMSA11.jpg,AMNE18.jpg,AMSA11.jpg,MS,2,num_2,16,num_2,1.5834357295,,,2017_Oct_26_1513,60.0062935974,FEMA4ImagesEEG,001,202220,
AMSA25.JPG,AMNE24.JPG,AMSA24.JPG,AMNE26.JPG,AMSA21.JPG,AMNE25.JPG,,,,,0,5,5,3,,,,,,,,,,,,,,,,,,,AMSA20.jpg,AMNE08.jpg,AMNE04.jpg,AMSA16.jpg,AMSA20.jpg,MS,2,num_8,16,num_8,1.23344479036,,,2017_Oct_26_1513,60.0062935974,FEMA4ImagesEEG,001,202220,
AFNE22.JPG,AFSA24.JPG,AFSA22.JPG,AFNE25.JPG,AFNE24.JPG,AFSA25.JPG,,,,,0,6,6,6,,,,,,,,,,,,,,,,,,,AMSA08.jpg,AMNE14.jpg,AMNE09.jpg,AMSA03.jpg,AMSA08.jpg,MS,2,num_8,32,num_6,0.966738031246,,,2017_Oct_26_1513,60.0062935974,FEMA4ImagesEEG,001,202220,
AFSA21.JPG,AFNE22.JPG,AFNE21.JPG,AFSA23.JPG,AFSA22.JPG,AFNE23.JPG,,,,,0,7,7,0,,,,,,,,,,,,,,,,,,,AMNE06.jpg,AMSA13.jpg,AMSA08.jpg,AMNE04.jpg,AMNE04.jpg,MN,1,num_4,32,num_2,2.78333277209,,,2017_Oct_26_1513,60.0062935974,FEMA4ImagesEEG,001,202220,
AMSA21.JPG,AMNE22.JPG,AMNE21.JPG,AMSA23.JPG,AMSA22.JPG,AMNE23.JPG,,,,,0,8,8,1,,,,,,,,,,,,,,,,,,,AMNE11.jpg,AMSA04.jpg,AMNE10.jpg,AMSA14.jpg,AMNE10.jpg,MN,1,num_2,32,num_6,2.78328658559,,,2017_Oct_26_1513,60.0062935974,FEMA4ImagesEEG,001,202220,
AFNE23.JPG,AFNE24.JPG,AFNE22.JPG,AFSA24.JPG,AFSA22.JPG,AFSA23.JPG,,,,,0,9,9,8,,,,,,,,,,,,,,,,,,,AMSA18.jpg,AMNE20.jpg,AMSA19.jpg,AMNE05.jpg,AMNE05.jpg,MN,1,num_4,16,num_4,1.43308973173,,,2017_Oct_26_1513,60.0062935974,FEMA4ImagesEEG,001,202220,
AMNE23.JPG,AMNE24.JPG,AMNE22.JPG,AMSA24.JPG,AMSA22.JPG,AMSA23.JPG,,,,,,,,,0,0,0,9,,,,,,,,,,,,,,,AFNE19.jpg,AFSA07.jpg,AFSA01.jpg,AFNE03.jpg,AFNE19.jpg,FN,3,num_8,32,num_6,1.05009052879,,,2017_Oct_26_1513,60.0062935974,FEMA4ImagesEEG,001,202220,
AMSA21.JPG,AMNE22.JPG,AMNE21.JPG,AMSA23.JPG,AMSA22.JPG,AMNE23.JPG,,,,,,,,,0,1,1,1,,,,,,,,,,,,,,,AFSA10.jpg,AFNE02.jpg,AFNE04.jpg,AFSA05.jpg,AFSA05.jpg,FS,4,num_4,16,num_4,0.800091410754,,,2017_Oct_26_1513,60.0062935974,FEMA4ImagesEEG,001,202220,
AFSA25.JPG,AFNE24.JPG,AFSA24.JPG,AFNE21.JPG,AFSA21.JPG,AFNE25.JPG,,,,,,,,,0,2,2,2,,,,,,,,,,,,,,,AFSA15.jpg,AFSA12.jpg,AFNE01.jpg,AFNE15.jpg,AFSA15.jpg,FS,4,num_8,16,num_8,0.78372696077,,,2017_Oct_26_1513,60.0062935974,FEMA4ImagesEEG,001,202220,
AFSA21.JPG,AFNE23.JPG,AFNE21.JPG,AFSA25.JPG,AFNE25.JPG,AFSA23.JPG,,,,,,,,,0,3,3,4,,,,,,,,,,,,,,,AFSA02.jpg,AFNE12.jpg,AFNE18.jpg,AFSA18.jpg,AFNE12.jpg,FN,3,num_6,32,num_4,1.85003632377,,,2017_Oct_26_1513,60.0062935974,FEMA4ImagesEEG,001,202220,
AFSA21.JPG,AFNE22.JPG,AFNE21.JPG,AFSA23.JPG,AFSA22.JPG,AFNE23.JPG,,,,,,,,,0,4,4,0,,,,,,,,,,,,,,,AFSA15.jpg,AFNE06.jpg,AFSA16.jpg,AFNE11.jpg,AFSA15.jpg,FS,4,num_8,16,num_8,0.966783576179,,,2017_Oct_26_1513,60.0062935974,FEMA4ImagesEEG,001,202220,
AMSA25.JPG,AMNE24.JPG,AMSA24.JPG,AMNE26.JPG,AMSA21.JPG,AMNE25.JPG,,,,,,,,,0,5,5,3,,,,,,,,,,,,,,,AFNE11.jpg,AFSA12.jpg,AFNE12.jpg,AFSA17.jpg,AFNE11.jpg,FN,3,num_8,16,num_8,0.900101834792,,,2017_Oct_26_1513,60.0062935974,FEMA4ImagesEEG,001,202220,
AMSA21.JPG,AMNE23.JPG,AMNE21.JPG,AMSA25.JPG,AMNE25.JPG,AMSA23.JPG,,,,,,,,,0,6,6,5,,,,,,,,,,,,,,,AFSA03.jpg,AFNE19.jpg,AFNE13.jpg,AFSA19.jpg,AFNE19.jpg,FN,3,num_6,16,num_6,2.05000424979,,,2017_Oct_26_1513,60.0062935974,FEMA4ImagesEEG,001,202220,
AFNE23.JPG,AFNE24.JPG,AFNE22.JPG,AFSA24.JPG,AFSA22.JPG,AFSA23.JPG,,,,,,,,,0,7,7,8,,,,,,,,,,,,,,,AFNE16.jpg,AFNE19.jpg,AFSA15.jpg,AFSA01.jpg,AFSA01.jpg,FS,4,num_4,16,num_4,1.06674171973,,,2017_Oct_26_1513,60.0062935974,FEMA4ImagesEEG,001,202220,
AFNE22.JPG,AFSA24.JPG,AFSA22.JPG,AFNE25.JPG,AFNE24.JPG,AFSA25.JPG,,,,,,,,,0,8,8,6,,,,,,,,,,,,,,,AFNE04.jpg,AFSA16.jpg,AFNE16.jpg,AFSA10.jpg,AFSA10.jpg,FS,4,num_4,16,num_4,0.58358423179,,,2017_Oct_26_1513,60.0062935974,FEMA4ImagesEEG,001,202220,
AMNE22.JPG,AMSA24.JPG,AMSA22.JPG,AMNE25.JPG,AMNE24.JPG,AMSA25.JPG,,,,,,,,,0,9,9,7,,,,,,,,,,,,,,,AFSA12.jpg,AFNE03.jpg,AFNE11.jpg,AFSA18.jpg,AFSA12.jpg,FS,4,num_8,32,num_6,0.833440299961,,,2017_Oct_26_1513,60.0062935974,FEMA4ImagesEEG,001,202220,
AFSA21.JPG,AFNE23.JPG,AFNE21.JPG,AFSA25.JPG,AFNE25.JPG,AFSA23.JPG,,,,,,,,,,,,,0,0,0,4,,,,,,,,,,,AMSA09.jpg,AMNE02.jpg,AMSA20.jpg,AMNE18.jpg,AMNE18.jpg,MN,1,num_4,16,num_4,0.933426668518,,,2017_Oct_26_1513,60.0062935974,FEMA4ImagesEEG,001,202220,
AMSA21.JPG,AMNE22.JPG,AMNE21.JPG,AMSA23.JPG,AMSA22.JPG,AMNE23.JPG,,,,,,,,,,,,,0,1,1,1,,,,,,,,,,,AMSA20.jpg,AMNE06.jpg,AMNE02.jpg,AMSA19.jpg,AMNE02.jpg,MN,1,num_2,16,num_2,1.43341399939,,,2017_Oct_26_1513,60.0062935974,FEMA4ImagesEEG,001,202220,
AFSA21.JPG,AFNE22.JPG,AFNE21.JPG,AFSA23.JPG,AFSA22.JPG,AFNE23.JPG,,,,,,,,,,,,,0,2,2,0,,,,,,,,,,,AMNE14.jpg,AMSA09.jpg,AMSA16.jpg,AMNE11.jpg,AMSA16.jpg,MS,2,num_2,16,num_2,1.10042257432,,,2017_Oct_26_1513,60.0062935974,FEMA4ImagesEEG,001,202220,
AMNE22.JPG,AMSA24.JPG,AMSA22.JPG,AMNE25.JPG,AMNE24.JPG,AMSA25.JPG,,,,,,,,,,,,,0,3,3,7,,,,,,,,,,,AMNE01.jpg,AMSA06.jpg,AMSA20.jpg,AMNE19.jpg,AMSA06.jpg,MS,2,num_6,16,num_6,1.23341977259,,,2017_Oct_26_1513,60.0062935974,FEMA4ImagesEEG,001,202220,
AFNE23.JPG,AFNE24.JPG,AFNE22.JPG,AFSA24.JPG,AFSA22.JPG,AFSA23.JPG,,,,,,,,,,,,,0,4,4,8,,,,,,,,,,,AMNE01.jpg,AMSA13.jpg,AMSA09.jpg,AMNE05.jpg,AMNE05.jpg,MN,1,num_4,16,num_4,1.28350356582,,,2017_Oct_26_1513,60.0062935974,FEMA4ImagesEEG,001,202220,
AFNE22.JPG,AFSA24.JPG,AFSA22.JPG,AFNE25.JPG,AFNE24.JPG,AFSA25.JPG,,,,,,,,,,,,,0,5,5,6,,,,,,,,,,,AMNE02.jpg,AMSA02.jpg,AMNE13.jpg,AMSA10.jpg,AMSA10.jpg,MS,2,num_4,32,num_6,0.883418249083,,,2017_Oct_26_1513,60.0062935974,FEMA4ImagesEEG,001,202220,
AFSA25.JPG,AFNE24.JPG,AFSA24.JPG,AFNE21.JPG,AFSA21.JPG,AFNE25.JPG,,,,,,,,,,,,,0,6,6,2,,,,,,,,,,,AMSA12.jpg,AMNE16.jpg,AMSA11.jpg,AMNE11.jpg,AMNE11.jpg,MN,1,num_4,16,num_4,1.08344871935,,,2017_Oct_26_1513,60.0062935974,FEMA4ImagesEEG,001,202220,
AMSA25.JPG,AMNE24.JPG,AMSA24.JPG,AMNE26.JPG,AMSA21.JPG,AMNE25.JPG,,,,,,,,,,,,,0,7,7,3,,,,,,,,,,,AMSA16.jpg,AMSA15.jpg,AMNE12.jpg,AMNE05.jpg,AMNE05.jpg,MN,1,num_4,16,num_4,1.38339980657,,,2017_Oct_26_1513,60.0062935974,FEMA4ImagesEEG,001,202220,
AMSA21.JPG,AMNE23.JPG,AMNE21.JPG,AMSA25.JPG,AMNE25.JPG,AMSA23.JPG,,,,,,,,,,,,,0,8,8,5,,,,,,,,,,,AMNE19.jpg,AMSA17.jpg,AMNE09.jpg,AMSA16.jpg,AMSA16.jpg,MS,2,num_4,16,num_4,1.53344591288,,,2017_Oct_26_1513,60.0062935974,FEMA4ImagesEEG,001,202220,
AMNE23.JPG,AMNE24.JPG,AMNE22.JPG,AMSA24.JPG,AMSA22.JPG,AMSA23.JPG,,,,,,,,,,,,,0,9,9,9,,,,,,,,,,,AMNE15.jpg,AMSA11.jpg,AMNE01.jpg,AMSA13.jpg,AMSA11.jpg,MS,2,num_6,16,num_6,0.583481274429,,,2017_Oct_26_1513,60.0062935974,FEMA4ImagesEEG,001,202220,
AMSA21.JPG,AMNE22.JPG,AMNE21.JPG,AMSA23.JPG,AMSA22.JPG,AMNE23.JPG,,,,,,,,,,,,,,,,,0,0,0,1,,,,,,,AFSA01.jpg,AFSA12.jpg,AFNE15.jpg,AFNE07.jpg,AFSA12.jpg,FS,4,num_6,32,num_8,0.966726163751,,,2017_Oct_26_1513,60.0062935974,FEMA4ImagesEEG,001,202220,
AFSA21.JPG,AFNE23.JPG,AFNE21.JPG,AFSA25.JPG,AFNE25.JPG,AFSA23.JPG,,,,,,,,,,,,,,,,,0,1,1,4,,,,,,,AFNE10.jpg,AFSA05.jpg,AFSA17.jpg,AFNE06.jpg,AFNE10.jpg,FN,3,num_8,32,num_6,3.26658006699,,,2017_Oct_26_1513,60.0062935974,FEMA4ImagesEEG,001,202220,
AFNE23.JPG,AFNE24.JPG,AFNE22.JPG,AFSA24.JPG,AFSA22.JPG,AFSA23.JPG,,,,,,,,,,,,,,,,,0,2,2,8,,,,,,,AFNE13.jpg,AFSA04.jpg,AFSA09.jpg,AFNE11.jpg,AFSA04.jpg,FS,4,num_6,32,num_2,1.8500392104,,,2017_Oct_26_1513,60.0062935974,FEMA4ImagesEEG,001,202220,
AMSA21.JPG,AMNE23.JPG,AMNE21.JPG,AMSA25.JPG,AMNE25.JPG,AMSA23.JPG,,,,,,,,,,,,,,,,,0,3,3,5,,,,,,,AFSA14.jpg,AFNE04.jpg,AFNE13.jpg,AFSA18.jpg,AFSA14.jpg,FS,4,num_8,32,num_6,1.30011915462,,,2017_Oct_26_1513,60.0062935974,FEMA4ImagesEEG,001,202220,
AMSA25.JPG,AMNE24.JPG,AMSA24.JPG,AMNE26.JPG,AMSA21.JPG,AMNE25.JPG,,,,,,,,,,,,,,,,,0,4,4,3,,,,,,,AFSA06.jpg,AFNE08.jpg,AFNE12.jpg,AFSA10.jpg,AFNE08.jpg,FN,3,num_6,32,num_2,1.23337198247,,,2017_Oct_26_1513,60.0062935974,FEMA4ImagesEEG,001,202220,
AMNE22.JPG,AMSA24.JPG,AMSA22.JPG,AMNE25.JPG,AMNE24.JPG,AMSA25.JPG,,,,,,,,,,,,,,,,,0,5,5,7,,,,,,,AFNE18.jpg,AFNE20.jpg,AFSA13.jpg,AFSA11.jpg,AFNE20.jpg,FN,3,num_6,16,num_6,0.900100872619,,,2017_Oct_26_1513,60.0062935974,FEMA4ImagesEEG,001,202220,
AFSA25.JPG,AFNE24.JPG,AFSA24.JPG,AFNE21.JPG,AFSA21.JPG,AFNE25.JPG,,,,,,,,,,,,,,,,,0,6,6,2,,,,,,,AFNE04.jpg,AFSA06.jpg,AFSA09.jpg,AFNE14.jpg,AFSA06.jpg,FS,4,num_6,32,num_2,0.566787425079,,,2017_Oct_26_1513,60.0062935974,FEMA4ImagesEEG,001,202220,
AFNE22.JPG,AFSA24.JPG,AFSA22.JPG,AFNE25.JPG,AFNE24.JPG,AFSA25.JPG,,,,,,,,,,,,,,,,,0,7,7,6,,,,,,,AFNE09.jpg,AFSA11.jpg,AFSA16.jpg,AFNE13.jpg,AFSA11.jpg,FS,4,num_6,32,num_2,1.03330719308,,,2017_Oct_26_1513,60.0062935974,FEMA4ImagesEEG,001,202220,
AFSA21.JPG,AFNE22.JPG,AFNE21.JPG,AFSA23.JPG,AFSA22.JPG,AFNE23.JPG,,,,,,,,,,,,,,,,,0,8,8,0,,,,,,,AFNE09.jpg,AFSA05.jpg,AFSA17.jpg,AFNE01.jpg,AFNE09.jpg,FN,3,num_8,32,num_4,1.13343244186,,,2017_Oct_26_1513,60.0062935974,FEMA4ImagesEEG,001,202220,
AMNE23.JPG,AMNE24.JPG,AMNE22.JPG,AMSA24.JPG,AMSA22.JPG,AMSA23.JPG,,,,,,,,,,,,,,,,,0,9,9,9,,,,,,,AFNE04.jpg,AFNE02.jpg,AFSA07.jpg,AFSA03.jpg,AFNE02.jpg,FN,3,num_6,32,num_8,1.00007088343,,,2017_Oct_26_1513,60.0062935974,FEMA4ImagesEEG,001,202220,
AFNE22.JPG,AFSA24.JPG,AFSA22.JPG,AFNE25.JPG,AFNE24.JPG,AFSA25.JPG,,,,,,,,,,,,,,,,,,,,,0,0,0,6,,,AMNE09.jpg,AMSA09.jpg,AMSA17.jpg,AMNE13.jpg,AMSA09.jpg,MS,2,num_6,16,num_6,1.41711016919,,,2017_Oct_26_1513,60.0062935974,FEMA4ImagesEEG,001,202220,
AFSA21.JPG,AFNE22.JPG,AFNE21.JPG,AFSA23.JPG,AFSA22.JPG,AFNE23.JPG,,,,,,,,,,,,,,,,,,,,,0,1,1,0,,,AMNE08.jpg,AMSA19.jpg,AMNE18.jpg,AMSA10.jpg,AMSA19.jpg,MS,2,num_6,16,num_6,0.733461949858,,,2017_Oct_26_1513,60.0062935974,FEMA4ImagesEEG,001,202220,
AMSA21.JPG,AMNE22.JPG,AMNE21.JPG,AMSA23.JPG,AMSA22.JPG,AMNE23.JPG,,,,,,,,,,,,,,,,,,,,,0,2,2,1,,,AMSA11.jpg,AMNE10.jpg,AMSA06.jpg,AMNE09.jpg,AMNE09.jpg,MN,1,num_4,16,num_4,1.68337110046,,,2017_Oct_26_1513,60.0062935974,FEMA4ImagesEEG,001,202220,
AFNE23.JPG,AFNE24.JPG,AFNE22.JPG,AFSA24.JPG,AFSA22.JPG,AFSA23.JPG,,,,,,,,,,,,,,,,,,,,,0,3,3,8,,,AMSA10.jpg,AMNE02.jpg,AMSA18.jpg,AMNE01.jpg,AMNE02.jpg,MN,1,num_6,16,num_6,0.967014508671,,,2017_Oct_26_1513,60.0062935974,FEMA4ImagesEEG,001,202220,
AMNE22.JPG,AMSA24.JPG,AMSA22.JPG,AMNE25.JPG,AMNE24.JPG,AMSA25.JPG,,,,,,,,,,,,,,,,,,,,,0,4,4,7,,,AMSA07.jpg,AMNE12.jpg,AMNE19.jpg,AMSA13.jpg,AMNE19.jpg,MN,1,num_2,48,None,,,,2017_Oct_26_1513,60.0062935974,FEMA4ImagesEEG,001,202220,
AMNE23.JPG,AMNE24.JPG,AMNE22.JPG,AMSA24.JPG,AMSA22.JPG,AMSA23.JPG,,,,,,,,,,,,,,,,,,,,,0,5,5,9,,,AMNE08.jpg,AMNE03.jpg,AMSA09.jpg,AMSA17.jpg,AMSA09.jpg,MS,2,num_2,48,None,,,,2017_Oct_26_1513,60.0062935974,FEMA4ImagesEEG,001,202220,
AFSA21.JPG,AFNE23.JPG,AFNE21.JPG,AFSA25.JPG,AFNE25.JPG,AFSA23.JPG,,,,,,,,,,,,,,,,,,,,,0,6,6,4,,,AMNE20.jpg,AMNE06.jpg,AMSA20.jpg,AMSA10.jpg,AMNE06.jpg,MN,1,num_6,32,num_2,1.66671413614,,,2017_Oct_26_1513,60.0062935974,FEMA4ImagesEEG,001,202220,
AMSA21.JPG,AMNE23.JPG,AMNE21.JPG,AMSA25.JPG,AMNE25.JPG,AMSA23.JPG,,,,,,,,,,,,,,,,,,,,,0,7,7,5,,,AMNE08.jpg,AMSA19.jpg,AMNE20.jpg,AMSA20.jpg,AMNE20.jpg,MN,1,num_2,32,num_8,1.00016197341,,,2017_Oct_26_1513,60.0062935974,FEMA4ImagesEEG,001,202220,
AFSA25.JPG,AFNE24.JPG,AFSA24.JPG,AFNE21.JPG,AFSA21.JPG,AFNE25.JPG,,,,,,,,,,,,,,,,,,,,,0,8,8,2,,,AMNE19.jpg,AMNE09.jpg,AMSA15.jpg,AMSA05.jpg,AMNE19.jpg,MN,1,num_8,16,num_8,0.883458983037,,,2017_Oct_26_1513,60.0062935974,FEMA4ImagesEEG,001,202220,
AMSA25.JPG,AMNE24.JPG,AMSA24.JPG,AMNE26.JPG,AMSA21.JPG,AMNE25.JPG,,,,,,,,,,,,,,,,,,,,,0,9,9,3,,,AMNE02.jpg,AMNE17.jpg,AMSA06.jpg,AMSA07.jpg,AMNE02.jpg,MN,1,num_8,16,num_8,0.816776600084,,,2017_Oct_26_1513,60.0062935974,FEMA4ImagesEEG,001,202220,
,,,,,,,,,,,,,,,,,,,,,,,,,,,,,,,,,,,,,,,,,,,space,3.0829044244,2017_Oct_26_1513,60.0062935974,FEMA4ImagesEEG,001,202220,
AFNE01.JPG,AFNE01.JPG,AFNE01.JPG,AFNE01.JPG,AFNE01.JPG,AFNE01.JPG,0,0,0,0,,,,,,,,,,,,,,,,,,,,,,,AFNE05.jpg,AFSA13.jpg,AFNE15.jpg,AFSA07.jpg,AFSA13.jpg,FS,4,num_6,32,num_4,1.0498900665,,,2017_Oct_26_1513,60.0062935974,FEMA4ImagesEEG,001,202220,
AFNE01.JPG,AFNE01.JPG,AFNE01.JPG,AFNE01.JPG,AFNE01.JPG,AFNE01.JPG,0,1,1,6,,,,,,,,,,,,,,,,,,,,,,,AFNE01.jpg,AFNE14.jpg,AFSA06.jpg,AFSA05.jpg,AFNE01.jpg,FN,3,num_8,32,num_6,1.13342698931,,,2017_Oct_26_1513,60.0062935974,FEMA4ImagesEEG,001,202220,
AFNE01.JPG,AFNE01.JPG,AFNE01.JPG,AFNE01.JPG,AFNE01.JPG,AFNE01.JPG,0,2,2,1,,,,,,,,,,,,,,,,,,,,,,,AFSA07.jpg,AFNE03.jpg,AFSA12.jpg,AFNE19.jpg,AFNE19.jpg,FN,3,num_4,16,num_4,1.00041118811,,,2017_Oct_26_1513,60.0062935974,FEMA4ImagesEEG,001,202220,
AFNE01.JPG,AFNE01.JPG,AFNE01.JPG,AFNE01.JPG,AFNE01.JPG,AFNE01.JPG,0,3,3,8,,,,,,,,,,,,,,,,,,,,,,,AFNE10.jpg,AFSA04.jpg,AFNE18.jpg,AFSA09.jpg,AFSA04.jpg,FS,4,num_6,16,num_6,2.3166818216,,,2017_Oct_26_1513,60.0062935974,FEMA4ImagesEEG,001,202220,
AFNE01.JPG,AFNE01.JPG,AFNE01.JPG,AFNE01.JPG,AFNE01.JPG,AFNE01.JPG,0,4,4,9,,,,,,,,,,,,,,,,,,,,,,,AFNE01.jpg,AFSA20.jpg,AFNE18.jpg,AFSA17.jpg,AFNE01.jpg,FN,3,num_8,16,num_8,2.41662424884,,,2017_Oct_26_1513,60.0062935974,FEMA4ImagesEEG,001,202220,
AFNE01.JPG,AFNE01.JPG,AFNE01.JPG,AFNE01.JPG,AFNE01.JPG,AFNE01.JPG,0,5,5,3,,,,,,,,,,,,,,,,,,,,,,,AFSA09.jpg,AFSA16.jpg,AFNE05.jpg,AFNE17.jpg,AFNE05.jpg,FN,3,num_2,32,num_4,1.11671389558,,,2017_Oct_26_1513,60.0062935974,FEMA4ImagesEEG,001,202220,
AFNE01.JPG,AFNE01.JPG,AFNE01.JPG,AFNE01.JPG,AFNE01.JPG,AFNE01.JPG,0,6,6,5,,,,,,,,,,,,,,,,,,,,,,,AFNE14.jpg,AFSA11.jpg,AFSA13.jpg,AFNE06.jpg,AFSA13.jpg,FS,4,num_2,32,num_6,1.15007080324,,,2017_Oct_26_1513,60.0062935974,FEMA4ImagesEEG,001,202220,
AFNE01.JPG,AFNE01.JPG,AFNE01.JPG,AFNE01.JPG,AFNE01.JPG,AFNE01.JPG,0,7,7,7,,,,,,,,,,,,,,,,,,,,,,,AFSA04.jpg,AFNE05.jpg,AFNE19.jpg,AFSA14.jpg,AFNE05.jpg,FN,3,num_6,32,num_4,2.28331144282,,,2017_Oct_26_1513,60.0062935974,FEMA4ImagesEEG,001,202220,
AFNE01.JPG,AFNE01.JPG,AFNE01.JPG,AFNE01.JPG,AFNE01.JPG,AFNE01.JPG,0,8,8,2,,,,,,,,,,,,,,,,,,,,,,,AFNE18.jpg,AFSA09.jpg,AFSA06.jpg,AFNE01.jpg,AFSA09.jpg,FS,4,num_6,16,num_6,0.666797849117,,,2017_Oct_26_1513,60.0062935974,FEMA4ImagesEEG,001,202220,
AFNE01.JPG,AFNE01.JPG,AFNE01.JPG,AFNE01.JPG,AFNE01.JPG,AFNE01.JPG,0,9,9,4,,,,,,,,,,,,,,,,,,,,,,,AFNE01.jpg,AFSA19.jpg,AFNE19.jpg,AFSA16.jpg,AFSA19.jpg,FS,4,num_6,16,num_6,0.716806589277,,,2017_Oct_26_1513,60.0062935974,FEMA4ImagesEEG,001,202220,
AFNE01.JPG,AFNE01.JPG,AFNE01.JPG,AFNE01.JPG,AFNE01.JPG,AFNE01.JPG,1,0,10,2,,,,,,,,,,,,,,,,,,,,,,,AFNE17.jpg,AFNE18.jpg,AFSA10.jpg,AFSA14.jpg,AFSA14.jpg,FS,4,num_4,32,num_2,0.650107207242,,,2017_Oct_26_1513,60.0062935974,FEMA4ImagesEEG,001,202220,
AFNE01.JPG,AFNE01.JPG,AFNE01.JPG,AFNE01.JPG,AFNE01.JPG,AFNE01.JPG,1,1,11,6,,,,,,,,,,,,,,,,,,,,,,,AFSA03.jpg,AFNE10.jpg,AFNE03.jpg,AFSA15.jpg,AFSA15.jpg,FS,4,num_4,16,num_4,1.08340926841,,,2017_Oct_26_1513,60.0062935974,FEMA4ImagesEEG,001,202220,
AFNE01.JPG,AFNE01.JPG,AFNE01.JPG,AFNE01.JPG,AFNE01.JPG,AFNE01.JPG,1,2,12,9,,,,,,,,,,,,,,,,,,,,,,,AFNE01.jpg,AFSA04.jpg,AFNE17.jpg,AFSA08.jpg,AFSA04.jpg,FS,4,num_6,16,num_6,0.700133587932,,,2017_Oct_26_1513,60.0062935974,FEMA4ImagesEEG,001,202220,
AFNE01.JPG,AFNE01.JPG,AFNE01.JPG,AFNE01.JPG,AFNE01.JPG,AFNE01.JPG,1,3,13,4,,,,,,,,,,,,,,,,,,,,,,,AFSA04.jpg,AFNE17.jpg,AFSA19.jpg,AFNE16.jpg,AFSA19.jpg,FS,4,num_2,16,num_2,0.98344759678,,,2017_Oct_26_1513,60.0062935974,FEMA4ImagesEEG,001,202220,
AFNE01.JPG,AFNE01.JPG,AFNE01.JPG,AFNE01.JPG,AFNE01.JPG,AFNE01.JPG,1,4,14,1,,,,,,,,,,,,,,,,,,,,,,,AFSA16.jpg,AFSA09.jpg,AFNE06.jpg,AFNE16.jpg,AFNE06.jpg,FN,3,num_2,32,num_6,1.91665744537,,,2017_Oct_26_1513,60.0062935974,FEMA4ImagesEEG,001,202220,
AFNE01.JPG,AFNE01.JPG,AFNE01.JPG,AFNE01.JPG,AFNE01.JPG,AFNE01.JPG,1,5,15,5,,,,,,,,,,,,,,,,,,,,,,,AFSA18.jpg,AFNE11.jpg,AFSA06.jpg,AFNE10.jpg,AFNE11.jpg,FN,3,num_6,32,num_8,1.73339619825,,,2017_Oct_26_1513,60.0062935974,FEMA4ImagesEEG,001,202220,
AFNE01.JPG,AFNE01.JPG,AFNE01.JPG,AFNE01.JPG,AFNE01.JPG,AFNE01.JPG,1,6,16,7,,,,,,,,,,,,,,,,,,,,,,,AFNE01.jpg,AFSA04.jpg,AFNE15.jpg,AFSA19.jpg,AFSA19.jpg,FS,4,num_4,16,num_4,1.00010007073,,,2017_Oct_26_1513,60.0062935974,FEMA4ImagesEEG,001,202220,
AFNE01.JPG,AFNE01.JPG,AFNE01.JPG,AFNE01.JPG,AFNE01.JPG,AFNE01.JPG,1,7,17,3,,,,,,,,,,,,,,,,,,,,,,,AFSA04.jpg,AFSA16.jpg,AFNE20.jpg,AFNE18.jpg,AFNE18.jpg,FN,3,num_4,16,num_4,2.69999374554,,,2017_Oct_26_1513,60.0062935974,FEMA4ImagesEEG,001,202220,
AFNE01.JPG,AFNE01.JPG,AFNE01.JPG,AFNE01.JPG,AFNE01.JPG,AFNE01.JPG,1,8,18,8,,,,,,,,,,,,,,,,,,,,,,,AFSA20.jpg,AFNE20.jpg,AFSA05.jpg,AFNE15.jpg,AFNE20.jpg,FN,3,num_6,16,num_6,1.00018763263,,,2017_Oct_26_1513,60.0062935974,FEMA4ImagesEEG,001,202220,
AFNE01.JPG,AFNE01.JPG,AFNE01.JPG,AFNE01.JPG,AFNE01.JPG,AFNE01.JPG,1,9,19,0,,,,,,,,,,,,,,,,,,,,,,,AFNE14.jpg,AFSA18.jpg,AFNE02.jpg,AFSA01.jpg,AFNE02.jpg,FN,3,num_2,32,num_8,1.10014802124,,,2017_Oct_26_1513,60.0062935974,FEMA4ImagesEEG,001,202220,
AFNE01.JPG,AFNE01.JPG,AFNE01.JPG,AFNE01.JPG,AFNE01.JPG,AFNE01.JPG,2,0,20,1,,,,,,,,,,,,,,,,,,,,,,,AFNE12.jpg,AFNE13.jpg,AFSA14.jpg,AFSA06.jpg,AFSA14.jpg,FS,4,num_2,32,num_4,0.350125649711,,,2017_Oct_26_1513,60.0062935974,FEMA4ImagesEEG,001,202220,
AFNE01.JPG,AFNE01.JPG,AFNE01.JPG,AFNE01.JPG,AFNE01.JPG,AFNE01.JPG,2,1,21,0,,,,,,,,,,,,,,,,,,,,,,,AFNE06.jpg,AFNE02.jpg,AFSA13.jpg,AFSA14.jpg,AFSA13.jpg,FS,4,num_2,16,num_2,0.883405419532,,,2017_Oct_26_1513,60.0062935974,FEMA4ImagesEEG,001,202220,
AFNE01.JPG,AFNE01.JPG,AFNE01.JPG,AFNE01.JPG,AFNE01.JPG,AFNE01.JPG,2,2,22,6,,,,,,,,,,,,,,,,,,,,,,,AFSA06.jpg,AFSA16.jpg,AFNE15.jpg,AFNE19.jpg,AFSA06.jpg,FS,4,num_8,16,num_8,0.766735786106,,,2017_Oct_26_1513,60.0062935974,FEMA4ImagesEEG,001,202220,
AFNE01.JPG,AFNE01.JPG,AFNE01.JPG,AFNE01.JPG,AFNE01.JPG,AFNE01.JPG,2,3,23,5,,,,,,,,,,,,,,,,,,,,,,,AFNE09.jpg,AFSA19.jpg,AFSA20.jpg,AFNE17.jpg,AFNE09.jpg,FN,3,num_8,32,num_4,0.667049629614,,,2017_Oct_26_1513,60.0062935974,FEMA4ImagesEEG,001,202220,
AFNE01.JPG,AFNE01.JPG,AFNE01.JPG,AFNE01.JPG,AFNE01.JPG,AFNE01.JPG,2,4,24,4,,,,,,,,,,,,,,,,,,,,,,,AFSA10.jpg,AFSA07.jpg,AFNE08.jpg,AFNE20.jpg,AFNE08.jpg,FN,3,num_2,16,num_2,0.983429314685,,,2017_Oct_26_1513,60.0062935974,FEMA4ImagesEEG,001,202220,
AFNE01.JPG,AFNE01.JPG,AFNE01.JPG,AFNE01.JPG,AFNE01.JPG,AFNE01.JPG,2,5,25,2,,,,,,,,,,,,,,,,,,,,,,,AFNE17.jpg,AFSA11.jpg,AFNE04.jpg,AFSA08.jpg,AFNE04.jpg,FN,3,num_2,32,num_4,0.733431800385,,,2017_Oct_26_1513,60.0062935974,FEMA4ImagesEEG,001,202220,
AFNE01.JPG,AFNE01.JPG,AFNE01.JPG,AFNE01.JPG,AFNE01.JPG,AFNE01.JPG,2,6,26,7,,,,,,,,,,,,,,,,,,,,,,,AFNE10.jpg,AFSA04.jpg,AFSA09.jpg,AFNE19.jpg,AFSA04.jpg,FS,4,num_6,16,num_6,1.15008459508,,,2017_Oct_26_1513,60.0062935974,FEMA4ImagesEEG,001,202220,
AFNE01.JPG,AFNE01.JPG,AFNE01.JPG,AFNE01.JPG,AFNE01.JPG,AFNE01.JPG,2,7,27,3,,,,,,,,,,,,,,,,,,,,,,,AFNE14.jpg,AFSA03.jpg,AFSA02.jpg,AFNE03.jpg,AFSA02.jpg,FS,4,num_2,32,num_4,1.15007785952,,,2017_Oct_26_1513,60.0062935974,FEMA4ImagesEEG,001,202220,
AFNE01.JPG,AFNE01.JPG,AFNE01.JPG,AFNE01.JPG,AFNE01.JPG,AFNE01.JPG,2,8,28,8,,,,,,,,,,,,,,,,,,,,,,,AFSA17.jpg,AFNE04.jpg,AFNE09.jpg,AFSA02.jpg,AFNE09.jpg,FN,3,num_2,32,num_8,0.583509820164,,,2017_Oct_26_1513,60.0062935974,FEMA4ImagesEEG,001,202220,
AFNE01.JPG,AFNE01.JPG,AFNE01.JPG,AFNE01.JPG,AFNE01.JPG,AFNE01.JPG,2,9,29,9,,,,,,,,,,,,,,,,,,,,,,,AFNE20.jpg,AFSA09.jpg,AFSA13.jpg,AFNE04.jpg,AFSA13.jpg,FS,4,num_2,32,num_4,0.516789590125,,,2017_Oct_26_1513,60.0062935974,FEMA4ImagesEEG,001,202220,
AFNE01.JPG,AFNE01.JPG,AFNE01.JPG,AFNE01.JPG,AFNE01.JPG,AFNE01.JPG,3,0,30,5,,,,,,,,,,,,,,,,,,,,,,,AFSA07.jpg,AFNE14.jpg,AFNE10.jpg,AFSA09.jpg,AFSA07.jpg,FS,4,num_8,32,num_4,0.633512145607,,,2017_Oct_26_1513,60.0062935974,FEMA4ImagesEEG,001,202220,
AFNE01.JPG,AFNE01.JPG,AFNE01.JPG,AFNE01.JPG,AFNE01.JPG,AFNE01.JPG,3,1,31,1,,,,,,,,,,,,,,,,,,,,,,,AFNE17.jpg,AFNE18.jpg,AFSA20.jpg,AFSA07.jpg,AFNE17.jpg,FN,3,num_8,32,num_6,1.11674917699,,,2017_Oct_26_1513,60.0062935974,FEMA4ImagesEEG,001,202220,
AFNE01.JPG,AFNE01.JPG,AFNE01.JPG,AFNE01.JPG,AFNE01.JPG,AFNE01.JPG,3,2,32,7,,,,,,,,,,,,,,,,,,,,,,,AFSA04.jpg,AFNE19.jpg,AFNE03.jpg,AFSA10.jpg,AFNE03.jpg,FN,3,num_2,32,num_6,0.966790632461,,,2017_Oct_26_1513,60.0062935974,FEMA4ImagesEEG,001,202220,
AFNE01.JPG,AFNE01.JPG,AFNE01.JPG,AFNE01.JPG,AFNE01.JPG,AFNE01.JPG,3,3,33,6,,,,,,,,,,,,,,,,,,,,,,,AFSA03.jpg,AFNE03.jpg,AFSA18.jpg,AFNE07.jpg,AFSA18.jpg,FS,4,num_2,32,num_4,1.18339756143,,,2017_Oct_26_1513,60.0062935974,FEMA4ImagesEEG,001,202220,
AFNE01.JPG,AFNE01.JPG,AFNE01.JPG,AFNE01.JPG,AFNE01.JPG,AFNE01.JPG,3,4,34,0,,,,,,,,,,,,,,,,,,,,,,,AFSA10.jpg,AFNE07.jpg,AFNE04.jpg,AFSA05.jpg,AFNE04.jpg,FN,3,num_2,16,num_2,1.08344262536,,,2017_Oct_26_1513,60.0062935974,FEMA4ImagesEEG,001,202220,
AFNE01.JPG,AFNE01.JPG,AFNE01.JPG,AFNE01.JPG,AFNE01.JPG,AFNE01.JPG,3,5,35,3,,,,,,,,,,,,,,,,,,,,,,,AFSA18.jpg,AFNE19.jpg,AFNE03.jpg,AFSA06.jpg,AFNE19.jpg,FN,3,num_6,32,num_4,3.33339363232,,,2017_Oct_26_1513,60.0062935974,FEMA4ImagesEEG,001,202220,
AFNE01.JPG,AFNE01.JPG,AFNE01.JPG,AFNE01.JPG,AFNE01.JPG,AFNE01.JPG,3,6,36,9,,,,,,,,,,,,,,,,,,,,,,,AFNE09.jpg,AFNE17.jpg,AFSA08.jpg,AFSA11.jpg,AFSA08.jpg,FS,4,num_2,16,num_2,1.15019909898,,,2017_Oct_26_1513,60.0062935974,FEMA4ImagesEEG,001,202220,
AFNE01.JPG,AFNE01.JPG,AFNE01.JPG,AFNE01.JPG,AFNE01.JPG,AFNE01.JPG,3,7,37,8,,,,,,,,,,,,,,,,,,,,,,,AFNE12.jpg,AFSA18.jpg,AFSA16.jpg,AFNE03.jpg,AFNE12.jpg,FN,3,num_8,32,num_4,2.59996215277,,,2017_Oct_26_1513,60.0062935974,FEMA4ImagesEEG,001,202220,
AFNE01.JPG,AFNE01.JPG,AFNE01.JPG,AFNE01.JPG,AFNE01.JPG,AFNE01.JPG,3,8,38,2,,,,,,,,,,,,,,,,,,,,,,,AFSA09.jpg,AFNE07.jpg,AFSA11.jpg,AFNE16.jpg,AFNE07.jpg,FN,3,num_6,32,num_4,1.15004963439,,,2017_Oct_26_1513,60.0062935974,FEMA4ImagesEEG,001,202220,
AFNE01.JPG,AFNE01.JPG,AFNE01.JPG,AFNE01.JPG,AFNE01.JPG,AFNE01.JPG,3,9,39,4,,,,,,,,,,,,,,,,,,,,,,,AFSA17.jpg,AFNE02.jpg,AFSA01.jpg,AFNE04.jpg,AFNE02.jpg,FN,3,num_6,16,num_6,1.30007649632,,,2017_Oct_26_1513,60.0062935974,FEMA4ImagesEEG,001,202220,
AFNE01.JPG,AFNE01.JPG,AFNE01.JPG,AFNE01.JPG,AFNE01.JPG,AFNE01.JPG,4,0,40,3,,,,,,,,,,,,,,,,,,,,,,,AFNE03.jpg,AFSA08.jpg,AFNE16.jpg,AFSA02.jpg,AFNE03.jpg,FN,3,num_8,48,None,,,,2017_Oct_26_1513,60.0062935974,FEMA4ImagesEEG,001,202220,
AFNE01.JPG,AFNE01.JPG,AFNE01.JPG,AFNE01.JPG,AFNE01.JPG,AFNE01.JPG,4,1,41,6,,,,,,,,,,,,,,,,,,,,,,,AFNE13.jpg,AFSA06.jpg,AFSA18.jpg,AFNE20.jpg,AFNE13.jpg,FN,3,num_8,32,num_6,1.08347085037,,,2017_Oct_26_1513,60.0062935974,FEMA4ImagesEEG,001,202220,
AFNE01.JPG,AFNE01.JPG,AFNE01.JPG,AFNE01.JPG,AFNE01.JPG,AFNE01.JPG,4,2,42,0,,,,,,,,,,,,,,,,,,,,,,,AFSA14.jpg,AFNE09.jpg,AFSA09.jpg,AFNE04.jpg,AFNE04.jpg,FN,3,num_4,16,num_4,0.783487047767,,,2017_Oct_26_1513,60.0062935974,FEMA4ImagesEEG,001,202220,
AFNE01.JPG,AFNE01.JPG,AFNE01.JPG,AFNE01.JPG,AFNE01.JPG,AFNE01.JPG,4,3,43,2,,,,,,,,,,,,,,,,,,,,,,,AFSA17.jpg,AFSA19.jpg,AFNE11.jpg,AFNE04.jpg,AFSA17.jpg,FS,4,num_8,16,num_8,1.00010969292,,,2017_Oct_26_1513,60.0062935974,FEMA4ImagesEEG,001,202220,
AFNE01.JPG,AFNE01.JPG,AFNE01.JPG,AFNE01.JPG,AFNE01.JPG,AFNE01.JPG,4,4,44,8,,,,,,,,,,,,,,,,,,,,,,,AFSA10.jpg,AFNE02.jpg,AFSA19.jpg,AFNE10.jpg,AFSA10.jpg,FS,4,num_8,16,num_8,1.06691620196,,,2017_Oct_26_1513,60.0062935974,FEMA4ImagesEEG,001,202220,
AFNE01.JPG,AFNE01.JPG,AFNE01.JPG,AFNE01.JPG,AFNE01.JPG,AFNE01.JPG,4,5,45,5,,,,,,,,,,,,,,,,,,,,,,,AFSA02.jpg,AFSA10.jpg,AFNE01.jpg,AFNE03.jpg,AFSA02.jpg,FS,4,num_8,32,num_2,1.76673610683,,,2017_Oct_26_1513,60.0062935974,FEMA4ImagesEEG,001,202220,
AFNE01.JPG,AFNE01.JPG,AFNE01.JPG,AFNE01.JPG,AFNE01.JPG,AFNE01.JPG,4,6,46,7,,,,,,,,,,,,,,,,,,,,,,,AFNE18.jpg,AFSA17.jpg,AFNE06.jpg,AFSA12.jpg,AFNE18.jpg,FN,3,num_8,32,num_4,0.466858789674,,,2017_Oct_26_1513,60.0062935974,FEMA4ImagesEEG,001,202220,
AFNE01.JPG,AFNE01.JPG,AFNE01.JPG,AFNE01.JPG,AFNE01.JPG,AFNE01.JPG,4,7,47,4,,,,,,,,,,,,,,,,,,,,,,,AFNE07.jpg,AFNE20.jpg,AFSA13.jpg,AFSA01.jpg,AFSA13.jpg,FS,4,num_2,32,num_4,0.43356121867,,,2017_Oct_26_1513,60.0062935974,FEMA4ImagesEEG,001,202220,
AFNE01.JPG,AFNE01.JPG,AFNE01.JPG,AFNE01.JPG,AFNE01.JPG,AFNE01.JPG,4,8,48,1,,,,,,,,,,,,,,,,,,,,,,,AFNE16.jpg,AFNE17.jpg,AFSA15.jpg,AFSA08.jpg,AFSA15.jpg,FS,4,num_2,32,num_4,0.316838342464,,,2017_Oct_26_1513,60.0062935974,FEMA4ImagesEEG,001,202220,
AFNE01.JPG,AFNE01.JPG,AFNE01.JPG,AFNE01.JPG,AFNE01.JPG,AFNE01.JPG,4,9,49,9,,,,,,,,,,,,,,,,,,,,,,,AFNE02.jpg,AFSA20.jpg,AFSA17.jpg,AFNE06.jpg,AFNE02.jpg,FN,3,num_8,32,num_4,3.11658239237,,,2017_Oct_26_1513,60.0062935974,FEMA4ImagesEEG,001,202220,
AFNE01.JPG,AFNE01.JPG,AFNE01.JPG,AFNE01.JPG,AFNE01.JPG,AFNE01.JPG,5,0,50,2,,,,,,,,,,,,,,,,,,,,,,,AFNE04.jpg,AFSA09.jpg,AFSA14.jpg,AFNE03.jpg,AFSA09.jpg,FS,4,num_6,16,num_6,0.666764171445,,,2017_Oct_26_1513,60.0062935974,FEMA4ImagesEEG,001,202220,
AFNE01.JPG,AFNE01.JPG,AFNE01.JPG,AFNE01.JPG,AFNE01.JPG,AFNE01.JPG,5,1,51,1,,,,,,,,,,,,,,,,,,,,,,,AFSA01.jpg,AFNE05.jpg,AFSA11.jpg,AFNE12.jpg,AFNE05.jpg,FN,3,num_6,32,num_8,0.383762242272,,,2017_Oct_26_1513,60.0062935974,FEMA4ImagesEEG,001,202220,
AFNE01.JPG,AFNE01.JPG,AFNE01.JPG,AFNE01.JPG,AFNE01.JPG,AFNE01.JPG,5,2,52,6,,,,,,,,,,,,,,,,,,,,,,,AFNE14.jpg,AFSA15.jpg,AFSA07.jpg,AFNE18.jpg,AFSA07.jpg,FS,4,num_2,16,num_2,0.650257633999,,,2017_Oct_26_1513,60.0062935974,FEMA4ImagesEEG,001,202220,
AFNE01.JPG,AFNE01.JPG,AFNE01.JPG,AFNE01.JPG,AFNE01.JPG,AFNE01.JPG,5,3,53,8,,,,,,,,,,,,,,,,,,,,,,,AFSA05.jpg,AFNE13.jpg,AFSA18.jpg,AFNE11.jpg,AFNE13.jpg,FN,3,num_6,32,num_4,0.483400929254,,,2017_Oct_26_1513,60.0062935974,FEMA4ImagesEEG,001,202220,
AFNE01.JPG,AFNE01.JPG,AFNE01.JPG,AFNE01.JPG,AFNE01.JPG,AFNE01.JPG,5,4,54,5,,,,,,,,,,,,,,,,,,,,,,,AFSA05.jpg,AFSA01.jpg,AFNE07.jpg,AFNE20.jpg,AFNE20.jpg,FN,3,num_4,16,num_4,0.700206395937,,,2017_Oct_26_1513,60.0062935974,FEMA4ImagesEEG,001,202220,
AFNE01.JPG,AFNE01.JPG,AFNE01.JPG,AFNE01.JPG,AFNE01.JPG,AFNE01.JPG,5,5,55,7,,,,,,,,,,,,,,,,,,,,,,,AFSA11.jpg,AFNE13.jpg,AFNE15.jpg,AFSA15.jpg,AFSA15.jpg,FS,4,num_4,32,num_6,0.516773232375,,,2017_Oct_26_1513,60.0062935974,FEMA4ImagesEEG,001,202220,
AFNE01.JPG,AFNE01.JPG,AFNE01.JPG,AFNE01.JPG,AFNE01.JPG,AFNE01.JPG,5,6,56,9,,,,,,,,,,,,,,,,,,,,,,,AFSA09.jpg,AFNE20.jpg,AFNE10.jpg,AFSA01.jpg,AFSA01.jpg,FS,4,num_4,16,num_4,0.416688717552,,,2017_Oct_26_1513,60.0062935974,FEMA4ImagesEEG,001,202220,
AFNE01.JPG,AFNE01.JPG,AFNE01.JPG,AFNE01.JPG,AFNE01.JPG,AFNE01.JPG,5,7,57,4,,,,,,,,,,,,,,,,,,,,,,,AFNE19.jpg,AFNE07.jpg,AFSA17.jpg,AFSA18.jpg,AFNE19.jpg,FN,3,num_8,32,num_4,0.61675350694,,,2017_Oct_26_1513,60.0062935974,FEMA4ImagesEEG,001,202220,
AFNE01.JPG,AFNE01.JPG,AFNE01.JPG,AFNE01.JPG,AFNE01.JPG,AFNE01.JPG,5,8,58,3,,,,,,,,,,,,,,,,,,,,,,,AFNE03.jpg,AFNE15.jpg,AFSA02.jpg,AFSA17.jpg,AFNE03.jpg,FN,3,num_8,16,num_8,0.500144813908,,,2017_Oct_26_1513,60.0062935974,FEMA4ImagesEEG,001,202220,
AFNE01.JPG,AFNE01.JPG,AFNE01.JPG,AFNE01.JPG,AFNE01.JPG,AFNE01.JPG,5,9,59,0,,,,,,,,,,,,,,,,,,,,,,,AFSA18.jpg,AFNE09.jpg,AFSA01.jpg,AFNE12.jpg,AFNE12.jpg,FN,3,num_4,32,num_6,0.416842672392,,,2017_Oct_26_1513,60.0062935974,FEMA4ImagesEEG,001,202220,
,,,,,,,,,,,,,,,,,,,,,,,,,,,,,,,,,,,,,,,,,,,space,1.58336516668,2017_Oct_26_1513,60.0062935974,FEMA4ImagesEEG,001,202220,
AFNE01.JPG,AFNE01.JPG,AFNE01.JPG,AFNE01.JPG,AFNE01.JPG,AFNE01.JPG,,,,,0,0,0,2,,,,,,,,,,,,,,,,,,,AMSA07.jpg,AMNE16.jpg,AMSA06.jpg,AMNE03.jpg,AMSA06.jpg,MS,2,num_2,32,num_6,4.74984404037,,,2017_Oct_26_1513,60.0062935974,FEMA4ImagesEEG,001,202220,
AFNE01.JPG,AFNE01.JPG,AFNE01.JPG,AFNE01.JPG,AFNE01.JPG,AFNE01.JPG,,,,,0,1,1,9,,,,,,,,,,,,,,,,,,,AMNE03.jpg,AMNE06.jpg,AMSA18.jpg,AMSA13.jpg,AMNE06.jpg,MN,1,num_6,32,num_4,0.650226842961,,,2017_Oct_26_1513,60.0062935974,FEMA4ImagesEEG,001,202220,
AFNE01.JPG,AFNE01.JPG,AFNE01.JPG,AFNE01.JPG,AFNE01.JPG,AFNE01.JPG,,,,,0,2,2,1,,,,,,,,,,,,,,,,,,,AMSA20.jpg,AMNE12.jpg,AMSA02.jpg,AMNE09.jpg,AMNE12.jpg,MN,1,num_6,32,num_8,0.233491297462,,,2017_Oct_26_1513,60.0062935974,FEMA4ImagesEEG,001,202220,
AFNE01.JPG,AFNE01.JPG,AFNE01.JPG,AFNE01.JPG,AFNE01.JPG,AFNE01.JPG,,,,,0,3,3,5,,,,,,,,,,,,,,,,,,,AMSA15.jpg,AMNE12.jpg,AMSA20.jpg,AMNE15.jpg,AMSA20.jpg,MS,2,num_2,16,num_2,1.2001841045,,,2017_Oct_26_1513,60.0062935974,FEMA4ImagesEEG,001,202220,
AFNE01.JPG,AFNE01.JPG,AFNE01.JPG,AFNE01.JPG,AFNE01.JPG,AFNE01.JPG,,,,,0,4,4,6,,,,,,,,,,,,,,,,,,,AMNE02.jpg,AMNE04.jpg,AMSA04.jpg,AMSA20.jpg,AMNE04.jpg,MN,1,num_6,16,num_6,1.01676088385,,,2017_Oct_26_1513,60.0062935974,FEMA4ImagesEEG,001,202220,
AFNE01.JPG,AFNE01.JPG,AFNE01.JPG,AFNE01.JPG,AFNE01.JPG,AFNE01.JPG,,,,,0,5,5,7,,,,,,,,,,,,,,,,,,,AMSA14.jpg,AMNE11.jpg,AMSA04.jpg,AMNE10.jpg,AMNE11.jpg,MN,1,num_6,32,num_4,1.36671044759,,,2017_Oct_26_1513,60.0062935974,FEMA4ImagesEEG,001,202220,
AFNE01.JPG,AFNE01.JPG,AFNE01.JPG,AFNE01.JPG,AFNE01.JPG,AFNE01.JPG,,,,,0,6,6,4,,,,,,,,,,,,,,,,,,,AMSA18.jpg,AMNE06.jpg,AMSA10.jpg,AMNE20.jpg,AMNE20.jpg,MN,1,num_4,32,num_8,0.766721673543,,,2017_Oct_26_1513,60.0062935974,FEMA4ImagesEEG,001,202220,
AFNE01.JPG,AFNE01.JPG,AFNE01.JPG,AFNE01.JPG,AFNE01.JPG,AFNE01.JPG,,,,,0,7,7,8,,,,,,,,,,,,,,,,,,,AMNE18.jpg,AMSA05.jpg,AMNE05.jpg,AMSA08.jpg,AMSA08.jpg,MS,2,num_4,32,num_8,0.900109211798,,,2017_Oct_26_1513,60.0062935974,FEMA4ImagesEEG,001,202220,
AFNE01.JPG,AFNE01.JPG,AFNE01.JPG,AFNE01.JPG,AFNE01.JPG,AFNE01.JPG,,,,,0,8,8,0,,,,,,,,,,,,,,,,,,,AMSA03.jpg,AMNE11.jpg,AMNE14.jpg,AMSA13.jpg,AMNE11.jpg,MN,1,num_6,16,num_6,0.900148342014,,,2017_Oct_26_1513,60.0062935974,FEMA4ImagesEEG,001,202220,
AFNE01.JPG,AFNE01.JPG,AFNE01.JPG,AFNE01.JPG,AFNE01.JPG,AFNE01.JPG,,,,,0,9,9,3,,,,,,,,,,,,,,,,,,,AMSA15.jpg,AMNE09.jpg,AMSA01.jpg,AMNE03.jpg,AMSA01.jpg,MS,2,num_2,32,num_8,0.916770987213,,,2017_Oct_26_1513,60.0062935974,FEMA4ImagesEEG,001,202220,
AFNE01.JPG,AFNE01.JPG,AFNE01.JPG,AFNE01.JPG,AFNE01.JPG,AFNE01.JPG,,,,,1,0,10,8,,,,,,,,,,,,,,,,,,,AMNE17.jpg,AMNE20.jpg,AMSA05.jpg,AMSA08.jpg,AMSA08.jpg,MS,2,num_4,16,num_4,0.64999109949,,,2017_Oct_26_1513,60.0062935974,FEMA4ImagesEEG,001,202220,
AFNE01.JPG,AFNE01.JPG,AFNE01.JPG,AFNE01.JPG,AFNE01.JPG,AFNE01.JPG,,,,,1,1,11,6,,,,,,,,,,,,,,,,,,,AMNE05.jpg,AMSA17.jpg,AMNE01.jpg,AMSA20.jpg,AMSA17.jpg,MS,2,num_6,16,num_6,0.750151308835,,,2017_Oct_26_1513,60.0062935974,FEMA4ImagesEEG,001,202220,
AFNE01.JPG,AFNE01.JPG,AFNE01.JPG,AFNE01.JPG,AFNE01.JPG,AFNE01.JPG,,,,,1,2,12,9,,,,,,,,,,,,,,,,,,,AMNE19.jpg,AMSA16.jpg,AMSA18.jpg,AMNE12.jpg,AMSA18.jpg,MS,2,num_2,16,num_2,1.58337318525,,,2017_Oct_26_1513,60.0062935974,FEMA4ImagesEEG,001,202220,
AFNE01.JPG,AFNE01.JPG,AFNE01.JPG,AFNE01.JPG,AFNE01.JPG,AFNE01.JPG,,,,,1,3,13,1,,,,,,,,,,,,,,,,,,,AMSA20.jpg,AMNE07.jpg,AMNE14.jpg,AMSA10.jpg,AMNE07.jpg,MN,1,num_6,16,num_6,3.74958648661,,,2017_Oct_26_1513,60.0062935974,FEMA4ImagesEEG,001,202220,
AFNE01.JPG,AFNE01.JPG,AFNE01.JPG,AFNE01.JPG,AFNE01.JPG,AFNE01.JPG,,,,,1,4,14,5,,,,,,,,,,,,,,,,,,,AMSA20.jpg,AMNE12.jpg,AMNE06.jpg,AMSA15.jpg,AMSA15.jpg,MS,2,num_4,16,num_4,3.53324737516,,,2017_Oct_26_1513,60.0062935974,FEMA4ImagesEEG,001,202220,
AFNE01.JPG,AFNE01.JPG,AFNE01.JPG,AFNE01.JPG,AFNE01.JPG,AFNE01.JPG,,,,,1,5,15,2,,,,,,,,,,,,,,,,,,,AMSA18.jpg,AMNE11.jpg,AMNE20.jpg,AMSA04.jpg,AMNE20.jpg,MN,1,num_2,32,num_4,2.36650709878,,,2017_Oct_26_1513,60.0062935974,FEMA4ImagesEEG,001,202220,
AFNE01.JPG,AFNE01.JPG,AFNE01.JPG,AFNE01.JPG,AFNE01.JPG,AFNE01.JPG,,,,,1,6,16,3,,,,,,,,,,,,,,,,,,,AMNE14.jpg,AMNE02.jpg,AMSA08.jpg,AMSA09.jpg,AMNE14.jpg,MN,1,num_8,32,num_4,0.783435088,,,2017_Oct_26_1513,60.0062935974,FEMA4ImagesEEG,001,202220,
AFNE01.JPG,AFNE01.JPG,AFNE01.JPG,AFNE01.JPG,AFNE01.JPG,AFNE01.JPG,,,,,1,7,17,0,,,,,,,,,,,,,,,,,,,AMNE09.jpg,AMNE06.jpg,AMSA07.jpg,AMSA11.jpg,AMNE09.jpg,MN,1,num_8,32,num_6,1.83340854675,,,2017_Oct_26_1513,60.0062935974,FEMA4ImagesEEG,001,202220,
AFNE01.JPG,AFNE01.JPG,AFNE01.JPG,AFNE01.JPG,AFNE01.JPG,AFNE01.JPG,,,,,1,8,18,4,,,,,,,,,,,,,,,,,,,AMNE10.jpg,AMNE11.jpg,AMSA12.jpg,AMSA10.jpg,AMSA12.jpg,MS,2,num_2,32,num_4,0.900097665144,,,2017_Oct_26_1513,60.0062935974,FEMA4ImagesEEG,001,202220,
AFNE01.JPG,AFNE01.JPG,AFNE01.JPG,AFNE01.JPG,AFNE01.JPG,AFNE01.JPG,,,,,1,9,19,7,,,,,,,,,,,,,,,,,,,AMNE12.jpg,AMSA19.jpg,AMSA10.jpg,AMNE08.jpg,AMSA19.jpg,MS,2,num_6,32,num_2,0.916719668778,,,2017_Oct_26_1513,60.0062935974,FEMA4ImagesEEG,001,202220,
AFNE01.JPG,AFNE01.JPG,AFNE01.JPG,AFNE01.JPG,AFNE01.JPG,AFNE01.JPG,,,,,2,0,20,1,,,,,,,,,,,,,,,,,,,AMNE05.jpg,AMSA06.jpg,AMSA03.jpg,AMNE12.jpg,AMNE05.jpg,MN,1,num_8,16,num_8,0.966770746629,,,2017_Oct_26_1513,60.0062935974,FEMA4ImagesEEG,001,202220,
AFNE01.JPG,AFNE01.JPG,AFNE01.JPG,AFNE01.JPG,AFNE01.JPG,AFNE01.JPG,,,,,2,1,21,8,,,,,,,,,,,,,,,,,,,AMSA16.jpg,AMNE01.jpg,AMSA01.jpg,AMNE10.jpg,AMNE10.jpg,MN,1,num_4,16,num_4,0.983452087152,,,2017_Oct_26_1513,60.0062935974,FEMA4ImagesEEG,001,202220,
AFNE01.JPG,AFNE01.JPG,AFNE01.JPG,AFNE01.JPG,AFNE01.JPG,AFNE01.JPG,,,,,2,2,22,2,,,,,,,,,,,,,,,,,,,AMNE17.jpg,AMSA17.jpg,AMNE15.jpg,AMSA01.jpg,AMNE15.jpg,MN,1,num_2,32,num_6,1.11666257726,,,2017_Oct_26_1513,60.0062935974,FEMA4ImagesEEG,001,202220,
AFNE01.JPG,AFNE01.JPG,AFNE01.JPG,AFNE01.JPG,AFNE01.JPG,AFNE01.JPG,,,,,2,3,23,7,,,,,,,,,,,,,,,,,,,AMNE02.jpg,AMSA11.jpg,AMSA12.jpg,AMNE10.jpg,AMNE10.jpg,MN,1,num_4,16,num_4,1.3667300127,,,2017_Oct_26_1513,60.0062935974,FEMA4ImagesEEG,001,202220,
AFNE01.JPG,AFNE01.JPG,AFNE01.JPG,AFNE01.JPG,AFNE01.JPG,AFNE01.JPG,,,,,2,4,24,5,,,,,,,,,,,,,,,,,,,AMSA17.jpg,AMNE16.jpg,AMNE09.jpg,AMSA16.jpg,AMNE09.jpg,MN,1,num_2,16,num_2,2.83330430638,,,2017_Oct_26_1513,60.0062935974,FEMA4ImagesEEG,001,202220,
AFNE01.JPG,AFNE01.JPG,AFNE01.JPG,AFNE01.JPG,AFNE01.JPG,AFNE01.JPG,,,,,2,5,25,0,,,,,,,,,,,,,,,,,,,AMNE03.jpg,AMSA01.jpg,AMNE06.jpg,AMSA17.jpg,AMNE03.jpg,MN,1,num_8,32,num_6,0.366811159765,,,2017_Oct_26_1513,60.0062935974,FEMA4ImagesEEG,001,202220,
AFNE01.JPG,AFNE01.JPG,AFNE01.JPG,AFNE01.JPG,AFNE01.JPG,AFNE01.JPG,,,,,2,6,26,3,,,,,,,,,,,,,,,,,,,AMNE09.jpg,AMSA18.jpg,AMSA09.jpg,AMNE14.jpg,AMSA18.jpg,MS,2,num_6,32,num_8,0.716775798355,,,2017_Oct_26_1513,60.0062935974,FEMA4ImagesEEG,001,202220,
AFNE01.JPG,AFNE01.JPG,AFNE01.JPG,AFNE01.JPG,AFNE01.JPG,AFNE01.JPG,,,,,2,7,27,6,,,,,,,,,,,,,,,,,,,AMNE07.jpg,AMSA05.jpg,AMNE03.jpg,AMSA15.jpg,AMNE03.jpg,MN,1,num_2,32,num_8,0.833490656107,,,2017_Oct_26_1513,60.0062935974,FEMA4ImagesEEG,001,202220,
AFNE01.JPG,AFNE01.JPG,AFNE01.JPG,AFNE01.JPG,AFNE01.JPG,AFNE01.JPG,,,,,2,8,28,4,,,,,,,,,,,,,,,,,,,AMNE13.jpg,AMSA16.jpg,AMSA18.jpg,AMNE12.jpg,AMSA16.jpg,MS,2,num_6,32,num_2,1.25007769908,,,2017_Oct_26_1513,60.0062935974,FEMA4ImagesEEG,001,202220,
AFNE01.JPG,AFNE01.JPG,AFNE01.JPG,AFNE01.JPG,AFNE01.JPG,AFNE01.JPG,,,,,2,9,29,9,,,,,,,,,,,,,,,,,,,AMNE08.jpg,AMSA07.jpg,AMNE14.jpg,AMSA13.jpg,AMSA13.jpg,MS,2,num_4,16,num_4,0.783468765556,,,2017_Oct_26_1513,60.0062935974,FEMA4ImagesEEG,001,202220,
AFNE01.JPG,AFNE01.JPG,AFNE01.JPG,AFNE01.JPG,AFNE01.JPG,AFNE01.JPG,,,,,3,0,30,4,,,,,,,,,,,,,,,,,,,AMSA02.jpg,AMSA11.jpg,AMNE11.jpg,AMNE10.jpg,AMNE10.jpg,MN,1,num_4,32,num_2,1.25009662274,,,2017_Oct_26_1513,60.0062935974,FEMA4ImagesEEG,001,202220,
AFNE01.JPG,AFNE01.JPG,AFNE01.JPG,AFNE01.JPG,AFNE01.JPG,AFNE01.JPG,,,,,3,1,31,5,,,,,,,,,,,,,,,,,,,AMNE06.jpg,AMSA04.jpg,AMNE04.jpg,AMSA05.jpg,AMSA04.jpg,MS,2,num_6,16,num_6,0.766815329436,,,2017_Oct_26_1513,60.0062935974,FEMA4ImagesEEG,001,202220,
AFNE01.JPG,AFNE01.JPG,AFNE01.JPG,AFNE01.JPG,AFNE01.JPG,AFNE01.JPG,,,,,3,2,32,9,,,,,,,,,,,,,,,,,,,AMNE16.jpg,AMSA18.jpg,AMSA02.jpg,AMNE10.jpg,AMSA18.jpg,MS,2,num_6,16,num_6,0.666777963284,,,2017_Oct_26_1513,60.0062935974,FEMA4ImagesEEG,001,202220,
AFNE01.JPG,AFNE01.JPG,AFNE01.JPG,AFNE01.JPG,AFNE01.JPG,AFNE01.JPG,,,,,3,3,33,2,,,,,,,,,,,,,,,,,,,AMNE06.jpg,AMSA20.jpg,AMSA18.jpg,AMNE18.jpg,AMNE18.jpg,MN,1,num_4,16,num_4,1.18347101077,,,2017_Oct_26_1513,60.0062935974,FEMA4ImagesEEG,001,202220,
AFNE01.JPG,AFNE01.JPG,AFNE01.JPG,AFNE01.JPG,AFNE01.JPG,AFNE01.JPG,,,,,3,4,34,3,,,,,,,,,,,,,,,,,,,AMSA20.jpg,AMNE16.jpg,AMNE06.jpg,AMSA09.jpg,AMNE06.jpg,MN,1,num_2,32,num_6,1.35006406764,,,2017_Oct_26_1513,60.0062935974,FEMA4ImagesEEG,001,202220,
AFNE01.JPG,AFNE01.JPG,AFNE01.JPG,AFNE01.JPG,AFNE01.JPG,AFNE01.JPG,,,,,3,5,35,6,,,,,,,,,,,,,,,,,,,AMNE12.jpg,AMSA11.jpg,AMSA09.jpg,AMNE05.jpg,AMNE12.jpg,MN,1,num_8,16,num_8,1.10011723032,,,2017_Oct_26_1513,60.0062935974,FEMA4ImagesEEG,001,202220,
AFNE01.JPG,AFNE01.JPG,AFNE01.JPG,AFNE01.JPG,AFNE01.JPG,AFNE01.JPG,,,,,3,6,36,1,,,,,,,,,,,,,,,,,,,AMNE15.jpg,AMSA04.jpg,AMSA13.jpg,AMNE17.jpg,AMSA13.jpg,MS,2,num_2,32,num_8,0.700116268126,,,2017_Oct_26_1513,60.0062935974,FEMA4ImagesEEG,001,202220,
AFNE01.JPG,AFNE01.JPG,AFNE01.JPG,AFNE01.JPG,AFNE01.JPG,AFNE01.JPG,,,,,3,7,37,0,,,,,,,,,,,,,,,,,,,AMNE19.jpg,AMNE11.jpg,AMSA08.jpg,AMSA18.jpg,AMNE19.jpg,MN,1,num_8,16,num_8,0.783281453652,,,2017_Oct_26_1513,60.0062935974,FEMA4ImagesEEG,001,202220,
AFNE01.JPG,AFNE01.JPG,AFNE01.JPG,AFNE01.JPG,AFNE01.JPG,AFNE01.JPG,,,,,3,8,38,7,,,,,,,,,,,,,,,,,,,AMSA17.jpg,AMNE05.jpg,AMNE11.jpg,AMSA14.jpg,AMSA14.jpg,MS,2,num_4,32,num_2,1.48306383204,,,2017_Oct_26_1513,60.0062935974,FEMA4ImagesEEG,001,202220,
AFNE01.JPG,AFNE01.JPG,AFNE01.JPG,AFNE01.JPG,AFNE01.JPG,AFNE01.JPG,,,,,3,9,39,8,,,,,,,,,,,,,,,,,,,AMSA13.jpg,AMNE01.jpg,AMNE07.jpg,AMSA10.jpg,AMSA10.jpg,MS,2,num_4,16,num_4,1.20012252254,,,2017_Oct_26_1513,60.0062935974,FEMA4ImagesEEG,001,202220,
AFNE01.JPG,AFNE01.JPG,AFNE01.JPG,AFNE01.JPG,AFNE01.JPG,AFNE01.JPG,,,,,4,0,40,9,,,,,,,,,,,,,,,,,,,AMSA04.jpg,AMSA08.jpg,AMNE02.jpg,AMNE06.jpg,AMNE06.jpg,MN,1,num_4,16,num_4,1.51668150094,,,2017_Oct_26_1513,60.0062935974,FEMA4ImagesEEG,001,202220,
AFNE01.JPG,AFNE01.JPG,AFNE01.JPG,AFNE01.JPG,AFNE01.JPG,AFNE01.JPG,,,,,4,1,41,2,,,,,,,,,,,,,,,,,,,AMSA10.jpg,AMNE09.jpg,AMSA08.jpg,AMNE01.jpg,AMSA08.jpg,MS,2,num_2,16,num_2,1.03344960138,,,2017_Oct_26_1513,60.0062935974,FEMA4ImagesEEG,001,202220,
AFNE01.JPG,AFNE01.JPG,AFNE01.JPG,AFNE01.JPG,AFNE01.JPG,AFNE01.JPG,,,,,4,2,42,3,,,,,,,,,,,,,,,,,,,AMSA01.jpg,AMNE11.jpg,AMSA07.jpg,AMNE12.jpg,AMNE11.jpg,MN,1,num_6,16,num_6,1.8167316966,,,2017_Oct_26_1513,60.0062935974,FEMA4ImagesEEG,001,202220,
AFNE01.JPG,AFNE01.JPG,AFNE01.JPG,AFNE01.JPG,AFNE01.JPG,AFNE01.JPG,,,,,4,3,43,0,,,,,,,,,,,,,,,,,,,AMSA19.jpg,AMSA18.jpg,AMNE19.jpg,AMNE01.jpg,AMSA19.jpg,MS,2,num_8,32,num_4,2.54997586436,,,2017_Oct_26_1513,60.0062935974,FEMA4ImagesEEG,001,202220,
AFNE01.JPG,AFNE01.JPG,AFNE01.JPG,AFNE01.JPG,AFNE01.JPG,AFNE01.JPG,,,,,4,4,44,4,,,,,,,,,,,,,,,,,,,AMNE14.jpg,AMNE04.jpg,AMSA09.jpg,AMSA08.jpg,AMSA08.jpg,MS,2,num_4,32,num_8,1.70004474325,,,2017_Oct_26_1513,60.0062935974,FEMA4ImagesEEG,001,202220,
AFNE01.JPG,AFNE01.JPG,AFNE01.JPG,AFNE01.JPG,AFNE01.JPG,AFNE01.JPG,,,,,4,5,45,7,,,,,,,,,,,,,,,,,,,AMSA12.jpg,AMSA11.jpg,AMNE08.jpg,AMNE06.jpg,AMSA11.jpg,MS,2,num_6,32,num_2,0.550150667317,,,2017_Oct_26_1513,60.0062935974,FEMA4ImagesEEG,001,202220,
AFNE01.JPG,AFNE01.JPG,AFNE01.JPG,AFNE01.JPG,AFNE01.JPG,AFNE01.JPG,,,,,4,6,46,6,,,,,,,,,,,,,,,,,,,AMNE17.jpg,AMSA05.jpg,AMSA13.jpg,AMNE13.jpg,AMSA13.jpg,MS,2,num_2,32,num_4,0.816849728697,,,2017_Oct_26_1513,60.0062935974,FEMA4ImagesEEG,001,202220,
AFNE01.JPG,AFNE01.JPG,AFNE01.JPG,AFNE01.JPG,AFNE01.JPG,AFNE01.JPG,,,,,4,7,47,5,,,,,,,,,,,,,,,,,,,AMSA02.jpg,AMNE13.jpg,AMNE18.jpg,AMSA01.jpg,AMSA02.jpg,MS,2,num_8,16,num_8,1.33342634782,,,2017_Oct_26_1513,60.0062935974,FEMA4ImagesEEG,001,202220,
AFNE01.JPG,AFNE01.JPG,AFNE01.JPG,AFNE01.JPG,AFNE01.JPG,AFNE01.JPG,,,,,4,8,48,8,,,,,,,,,,,,,,,,,,,AMSA01.jpg,AMSA02.jpg,AMNE17.jpg,AMNE18.jpg,AMSA02.jpg,MS,2,num_6,32,num_8,1.01674388477,,,2017_Oct_26_1513,60.0062935974,FEMA4ImagesEEG,001,202220,
AFNE01.JPG,AFNE01.JPG,AFNE01.JPG,AFNE01.JPG,AFNE01.JPG,AFNE01.JPG,,,,,4,9,49,1,,,,,,,,,,,,,,,,,,,AMSA19.jpg,AMSA06.jpg,AMNE19.jpg,AMNE05.jpg,AMNE19.jpg,MN,1,num_2,16,num_2,1.41670892411,,,2017_Oct_26_1513,60.0062935974,FEMA4ImagesEEG,001,202220,
AFNE01.JPG,AFNE01.JPG,AFNE01.JPG,AFNE01.JPG,AFNE01.JPG,AFNE01.JPG,,,,,5,0,50,6,,,,,,,,,,,,,,,,,,,AMNE04.jpg,AMSA12.jpg,AMSA10.jpg,AMNE10.jpg,AMSA12.jpg,MS,2,num_6,16,num_6,1.20008403366,,,2017_Oct_26_1513,60.0062935974,FEMA4ImagesEEG,001,202220,
AFNE01.JPG,AFNE01.JPG,AFNE01.JPG,AFNE01.JPG,AFNE01.JPG,AFNE01.JPG,,,,,5,1,51,5,,,,,,,,,,,,,,,,,,,AMSA01.jpg,AMSA09.jpg,AMNE16.jpg,AMNE01.jpg,AMNE16.jpg,MN,1,num_2,16,num_2,1.25008315174,,,2017_Oct_26_1513,60.0062935974,FEMA4ImagesEEG,001,202220,
AFNE01.JPG,AFNE01.JPG,AFNE01.JPG,AFNE01.JPG,AFNE01.JPG,AFNE01.JPG,,,,,5,2,52,4,,,,,,,,,,,,,,,,,,,AMSA13.jpg,AMNE08.jpg,AMNE14.jpg,AMSA07.jpg,AMNE08.jpg,MN,1,num_6,32,num_2,1.03361253708,,,2017_Oct_26_1513,60.0062935974,FEMA4ImagesEEG,001,202220,
AFNE01.JPG,AFNE01.JPG,AFNE01.JPG,AFNE01.JPG,AFNE01.JPG,AFNE01.JPG,,,,,5,3,53,2,,,,,,,,,,,,,,,,,,,AMNE13.jpg,AMSA02.jpg,AMSA01.jpg,AMNE10.jpg,AMSA01.jpg,MS,2,num_2,16,num_2,1.21673233807,,,2017_Oct_26_1513,60.0062935974,FEMA4ImagesEEG,001,202220,
AFNE01.JPG,AFNE01.JPG,AFNE01.JPG,AFNE01.JPG,AFNE01.JPG,AFNE01.JPG,,,,,5,4,54,7,,,,,,,,,,,,,,,,,,,AMSA18.jpg,AMNE02.jpg,AMNE12.jpg,AMSA11.jpg,AMNE02.jpg,MN,1,num_6,32,num_8,1.83337358618,,,2017_Oct_26_1513,60.0062935974,FEMA4ImagesEEG,001,202220,
AFNE01.JPG,AFNE01.JPG,AFNE01.JPG,AFNE01.JPG,AFNE01.JPG,AFNE01.JPG,,,,,5,5,55,0,,,,,,,,,,,,,,,,,,,AMNE04.jpg,AMNE05.jpg,AMSA10.jpg,AMSA11.jpg,AMSA10.jpg,MS,2,num_2,32,num_6,0.900091891875,,,2017_Oct_26_1513,60.0062935974,FEMA4ImagesEEG,001,202220,
AFNE01.JPG,AFNE01.JPG,AFNE01.JPG,AFNE01.JPG,AFNE01.JPG,AFNE01.JPG,,,,,5,6,56,3,,,,,,,,,,,,,,,,,,,AMNE14.jpg,AMNE15.jpg,AMSA17.jpg,AMSA07.jpg,AMNE14.jpg,MN,1,num_8,32,num_2,3.48320688179,,,2017_Oct_26_1513,60.0062935974,FEMA4ImagesEEG,001,202220,
AFNE01.JPG,AFNE01.JPG,AFNE01.JPG,AFNE01.JPG,AFNE01.JPG,AFNE01.JPG,,,,,5,7,57,1,,,,,,,,,,,,,,,,,,,AMSA16.jpg,AMSA12.jpg,AMNE18.jpg,AMNE02.jpg,AMSA12.jpg,MS,2,num_6,32,num_8,1.80004297907,,,2017_Oct_26_1513,60.0062935974,FEMA4ImagesEEG,001,202220,
AFNE01.JPG,AFNE01.JPG,AFNE01.JPG,AFNE01.JPG,AFNE01.JPG,AFNE01.JPG,,,,,5,8,58,8,,,,,,,,,,,,,,,,,,,AMSA12.jpg,AMNE10.jpg,AMNE11.jpg,AMSA02.jpg,AMNE11.jpg,MN,1,num_2,32,num_6,2.26670162717,,,2017_Oct_26_1513,60.0062935974,FEMA4ImagesEEG,001,202220,
AFNE01.JPG,AFNE01.JPG,AFNE01.JPG,AFNE01.JPG,AFNE01.JPG,AFNE01.JPG,,,,,5,9,59,9,,,,,,,,,,,,,,,,,,,AMSA01.jpg,AMSA11.jpg,AMNE01.jpg,AMNE20.jpg,AMNE01.jpg,MN,1,num_2,32,num_4,0.916749176919,,,2017_Oct_26_1513,60.0062935974,FEMA4ImagesEEG,001,202220,
,,,,,,,,,,,,,,,,,,,,,,,,,,,,,,,,,,,,,,,,,,,space,5.53309438238,2017_Oct_26_1513,60.0062935974,FEMA4ImagesEEG,001,202220,
AFNE01.JPG,AFNE01.JPG,AFNE01.JPG,AFNE01.JPG,AFNE01.JPG,AFNE01.JPG,,,,,,,,,0,0,0,5,,,,,,,,,,,,,,,AFNE03.jpg,AFSA05.jpg,AFNE08.jpg,AFSA17.jpg,AFSA17.jpg,FS,4,num_4,32,num_8,1.0001167492,,,2017_Oct_26_1513,60.0062935974,FEMA4ImagesEEG,001,202220,
AFNE01.JPG,AFNE01.JPG,AFNE01.JPG,AFNE01.JPG,AFNE01.JPG,AFNE01.JPG,,,,,,,,,0,1,1,3,,,,,,,,,,,,,,,AFNE04.jpg,AFNE10.jpg,AFSA02.jpg,AFSA12.jpg,AFSA12.jpg,FS,4,num_4,16,num_4,0.633547427016,,,2017_Oct_26_1513,60.0062935974,FEMA4ImagesEEG,001,202220,
AFNE01.JPG,AFNE01.JPG,AFNE01.JPG,AFNE01.JPG,AFNE01.JPG,AFNE01.JPG,,,,,,,,,0,2,2,7,,,,,,,,,,,,,,,AFNE08.jpg,AFNE15.jpg,AFSA02.jpg,AFSA15.jpg,AFSA02.jpg,FS,4,num_2,16,num_2,1.01681284374,,,2017_Oct_26_1513,60.0062935974,FEMA4ImagesEEG,001,202220,
AFNE01.JPG,AFNE01.JPG,AFNE01.JPG,AFNE01.JPG,AFNE01.JPG,AFNE01.JPG,,,,,,,,,0,3,3,8,,,,,,,,,,,,,,,AFSA12.jpg,AFNE13.jpg,AFNE08.jpg,AFSA11.jpg,AFNE08.jpg,FN,3,num_2,32,num_8,1.10015251162,,,2017_Oct_26_1513,60.0062935974,FEMA4ImagesEEG,001,202220,
AFNE01.JPG,AFNE01.JPG,AFNE01.JPG,AFNE01.JPG,AFNE01.JPG,AFNE01.JPG,,,,,,,,,0,4,4,0,,,,,,,,,,,,,,,AFNE03.jpg,AFSA05.jpg,AFSA11.jpg,AFNE14.jpg,AFNE03.jpg,FN,3,num_8,32,num_6,4.13323743222,,,2017_Oct_26_1513,60.0062935974,FEMA4ImagesEEG,001,202220,
AFNE01.JPG,AFNE01.JPG,AFNE01.JPG,AFNE01.JPG,AFNE01.JPG,AFNE01.JPG,,,,,,,,,0,5,5,9,,,,,,,,,,,,,,,AFSA02.jpg,AFNE11.jpg,AFSA03.jpg,AFNE06.jpg,AFNE11.jpg,FN,3,num_6,32,num_4,1.68366650143,,,2017_Oct_26_1513,60.0062935974,FEMA4ImagesEEG,001,202220,
AFNE01.JPG,AFNE01.JPG,AFNE01.JPG,AFNE01.JPG,AFNE01.JPG,AFNE01.JPG,,,,,,,,,0,6,6,1,,,,,,,,,,,,,,,AFSA01.jpg,AFNE19.jpg,AFNE13.jpg,AFSA10.jpg,AFNE19.jpg,FN,3,num_6,16,num_6,0.966599471751,,,2017_Oct_26_1513,60.0062935974,FEMA4ImagesEEG,001,202220,
AFNE01.JPG,AFNE01.JPG,AFNE01.JPG,AFNE01.JPG,AFNE01.JPG,AFNE01.JPG,,,,,,,,,0,7,7,2,,,,,,,,,,,,,,,AFNE02.jpg,AFSA17.jpg,AFSA02.jpg,AFNE18.jpg,AFSA02.jpg,FS,4,num_2,32,num_8,0.483373666299,,,2017_Oct_26_1513,60.0062935974,FEMA4ImagesEEG,001,202220,
AFNE01.JPG,AFNE01.JPG,AFNE01.JPG,AFNE01.JPG,AFNE01.JPG,AFNE01.JPG,,,,,,,,,0,8,8,4,,,,,,,,,,,,,,,AFSA16.jpg,AFNE08.jpg,AFSA11.jpg,AFNE14.jpg,AFSA16.jpg,FS,4,num_8,32,num_2,0.900131342816,,,2017_Oct_26_1513,60.0062935974,FEMA4ImagesEEG,001,202220,
AFNE01.JPG,AFNE01.JPG,AFNE01.JPG,AFNE01.JPG,AFNE01.JPG,AFNE01.JPG,,,,,,,,,0,9,9,6,,,,,,,,,,,,,,,AFSA18.jpg,AFSA09.jpg,AFNE10.jpg,AFNE05.jpg,AFNE10.jpg,FN,3,num_2,32,num_4,0.86673690856,,,2017_Oct_26_1513,60.0062935974,FEMA4ImagesEEG,001,202220,
AFNE01.JPG,AFNE01.JPG,AFNE01.JPG,AFNE01.JPG,AFNE01.JPG,AFNE01.JPG,,,,,,,,,1,0,10,2,,,,,,,,,,,,,,,AFNE02.jpg,AFNE15.jpg,AFSA06.jpg,AFSA15.jpg,AFSA15.jpg,FS,4,num_4,32,num_6,1.05009181169,,,2017_Oct_26_1513,60.0062935974,FEMA4ImagesEEG,001,202220,
AFNE01.JPG,AFNE01.JPG,AFNE01.JPG,AFNE01.JPG,AFNE01.JPG,AFNE01.JPG,,,,,,,,,1,1,11,1,,,,,,,,,,,,,,,AFNE15.jpg,AFSA14.jpg,AFNE02.jpg,AFSA08.jpg,AFSA14.jpg,FS,4,num_6,32,num_4,0.650132224895,,,2017_Oct_26_1513,60.0062935974,FEMA4ImagesEEG,001,202220,
AFNE01.JPG,AFNE01.JPG,AFNE01.JPG,AFNE01.JPG,AFNE01.JPG,AFNE01.JPG,,,,,,,,,1,2,12,8,,,,,,,,,,,,,,,AFNE09.jpg,AFSA17.jpg,AFSA02.jpg,AFNE16.jpg,AFSA02.jpg,FS,4,num_2,16,num_2,0.633481354569,,,2017_Oct_26_1513,60.0062935974,FEMA4ImagesEEG,001,202220,
AFNE01.JPG,AFNE01.JPG,AFNE01.JPG,AFNE01.JPG,AFNE01.JPG,AFNE01.JPG,,,,,,,,,1,3,13,3,,,,,,,,,,,,,,,AFSA03.jpg,AFNE09.jpg,AFNE02.jpg,AFSA14.jpg,AFNE02.jpg,FN,3,num_2,32,num_4,1.31681268325,,,2017_Oct_26_1513,60.0062935974,FEMA4ImagesEEG,001,202220,
AFNE01.JPG,AFNE01.JPG,AFNE01.JPG,AFNE01.JPG,AFNE01.JPG,AFNE01.JPG,,,,,,,,,1,4,14,5,,,,,,,,,,,,,,,AFNE09.jpg,AFSA18.jpg,AFNE15.jpg,AFSA09.jpg,AFSA18.jpg,FS,4,num_6,32,num_4,2.26664357353,,,2017_Oct_26_1513,60.0062935974,FEMA4ImagesEEG,001,202220,
AFNE01.JPG,AFNE01.JPG,AFNE01.JPG,AFNE01.JPG,AFNE01.JPG,AFNE01.JPG,,,,,,,,,1,5,15,0,,,,,,,,,,,,,,,AFSA17.jpg,AFSA12.jpg,AFNE03.jpg,AFNE05.jpg,AFSA17.jpg,FS,4,num_8,32,num_4,0.916831286275,,,2017_Oct_26_1513,60.0062935974,FEMA4ImagesEEG,001,202220,
AFNE01.JPG,AFNE01.JPG,AFNE01.JPG,AFNE01.JPG,AFNE01.JPG,AFNE01.JPG,,,,,,,,,1,6,16,6,,,,,,,,,,,,,,,AFSA02.jpg,AFNE16.jpg,AFNE13.jpg,AFSA10.jpg,AFSA02.jpg,FS,4,num_8,32,num_4,3.95024143672,,,2017_Oct_26_1513,60.0062935974,FEMA4ImagesEEG,001,202220,
AFNE01.JPG,AFNE01.JPG,AFNE01.JPG,AFNE01.JPG,AFNE01.JPG,AFNE01.JPG,,,,,,,,,1,7,17,4,,,,,,,,,,,,,,,AFNE20.jpg,AFSA15.jpg,AFSA20.jpg,AFNE08.jpg,AFSA15.jpg,FS,4,num_6,48,None,,,,2017_Oct_26_1513,60.0062935974,FEMA4ImagesEEG,001,202220,
AFNE01.JPG,AFNE01.JPG,AFNE01.JPG,AFNE01.JPG,AFNE01.JPG,AFNE01.JPG,,,,,,,,,1,8,18,7,,,,,,,,,,,,,,,AFNE15.jpg,AFNE20.jpg,AFSA10.jpg,AFSA01.jpg,AFSA10.jpg,FS,4,num_2,32,num_4,0.583520083921,,,2017_Oct_26_1513,60.0062935974,FEMA4ImagesEEG,001,202220,
AFNE01.JPG,AFNE01.JPG,AFNE01.JPG,AFNE01.JPG,AFNE01.JPG,AFNE01.JPG,,,,,,,,,1,9,19,9,,,,,,,,,,,,,,,AFNE01.jpg,AFNE02.jpg,AFSA08.jpg,AFSA20.jpg,AFSA20.jpg,FS,4,num_4,16,num_4,0.733427630737,,,2017_Oct_26_1513,60.0062935974,FEMA4ImagesEEG,001,202220,
AFNE01.JPG,AFNE01.JPG,AFNE01.JPG,AFNE01.JPG,AFNE01.JPG,AFNE01.JPG,,,,,,,,,2,0,20,5,,,,,,,,,,,,,,,AFSA12.jpg,AFSA10.jpg,AFNE03.jpg,AFNE07.jpg,AFNE03.jpg,FN,3,num_2,32,num_6,1.96666458191,,,2017_Oct_26_1513,60.0062935974,FEMA4ImagesEEG,001,202220,
AFNE01.JPG,AFNE01.JPG,AFNE01.JPG,AFNE01.JPG,AFNE01.JPG,AFNE01.JPG,,,,,,,,,2,1,21,1,,,,,,,,,,,,,,,AFNE18.jpg,AFSA17.jpg,AFNE01.jpg,AFSA06.jpg,AFNE01.jpg,FN,3,num_2,32,num_8,0.750155478367,,,2017_Oct_26_1513,60.0062935974,FEMA4ImagesEEG,001,202220,
AFNE01.JPG,AFNE01.JPG,AFNE01.JPG,AFNE01.JPG,AFNE01.JPG,AFNE01.JPG,,,,,,,,,2,2,22,6,,,,,,,,,,,,,,,AFNE10.jpg,AFNE04.jpg,AFSA13.jpg,AFSA18.jpg,AFNE10.jpg,FN,3,num_8,16,num_8,1.0667439648,,,2017_Oct_26_1513,60.0062935974,FEMA4ImagesEEG,001,202220,
AFNE01.JPG,AFNE01.JPG,AFNE01.JPG,AFNE01.JPG,AFNE01.JPG,AFNE01.JPG,,,,,,,,,2,3,23,9,,,,,,,,,,,,,,,AFNE01.jpg,AFNE19.jpg,AFSA04.jpg,AFSA06.jpg,AFNE01.jpg,FN,3,num_8,16,num_8,0.716947073233,,,2017_Oct_26_1513,60.0062935974,FEMA4ImagesEEG,001,202220,
AFNE01.JPG,AFNE01.JPG,AFNE01.JPG,AFNE01.JPG,AFNE01.JPG,AFNE01.JPG,,,,,,,,,2,4,24,3,,,,,,,,,,,,,,,AFNE15.jpg,AFSA09.jpg,AFSA20.jpg,AFNE18.jpg,AFNE18.jpg,FN,3,num_4,16,num_4,0.783462671447,,,2017_Oct_26_1513,60.0062935974,FEMA4ImagesEEG,001,202220,
AFNE01.JPG,AFNE01.JPG,AFNE01.JPG,AFNE01.JPG,AFNE01.JPG,AFNE01.JPG,,,,,,,,,2,5,25,2,,,,,,,,,,,,,,,AFNE09.jpg,AFSA06.jpg,AFSA07.jpg,AFNE07.jpg,AFSA06.jpg,FS,4,num_6,16,num_6,1.06671734352,,,2017_Oct_26_1513,60.0062935974,FEMA4ImagesEEG,001,202220,
AFNE01.JPG,AFNE01.JPG,AFNE01.JPG,AFNE01.JPG,AFNE01.JPG,AFNE01.JPG,,,,,,,,,2,6,26,7,,,,,,,,,,,,,,,AFSA17.jpg,AFSA10.jpg,AFNE08.jpg,AFNE15.jpg,AFSA17.jpg,FS,4,num_8,32,num_6,1.43333605956,,,2017_Oct_26_1513,60.0062935974,FEMA4ImagesEEG,001,202220,
AFNE01.JPG,AFNE01.JPG,AFNE01.JPG,AFNE01.JPG,AFNE01.JPG,AFNE01.JPG,,,,,,,,,2,7,27,8,,,,,,,,,,,,,,,AFSA13.jpg,AFNE11.jpg,AFNE02.jpg,AFSA09.jpg,AFNE02.jpg,FN,3,num_2,16,num_2,1.11676681763,,,2017_Oct_26_1513,60.0062935974,FEMA4ImagesEEG,001,202220,
AFNE01.JPG,AFNE01.JPG,AFNE01.JPG,AFNE01.JPG,AFNE01.JPG,AFNE01.JPG,,,,,,,,,2,8,28,0,,,,,,,,,,,,,,,AFNE18.jpg,AFSA12.jpg,AFSA02.jpg,AFNE10.jpg,AFSA02.jpg,FS,4,num_2,16,num_2,1.15008074616,,,2017_Oct_26_1513,60.0062935974,FEMA4ImagesEEG,001,202220,
AFNE01.JPG,AFNE01.JPG,AFNE01.JPG,AFNE01.JPG,AFNE01.JPG,AFNE01.JPG,,,,,,,,,2,9,29,4,,,,,,,,,,,,,,,AFNE18.jpg,AFSA03.jpg,AFSA02.jpg,AFNE02.jpg,AFSA02.jpg,FS,4,num_2,16,num_2,0.916763289482,,,2017_Oct_26_1513,60.0062935974,FEMA4ImagesEEG,001,202220,
AFNE01.JPG,AFNE01.JPG,AFNE01.JPG,AFNE01.JPG,AFNE01.JPG,AFNE01.JPG,,,,,,,,,3,0,30,3,,,,,,,,,,,,,,,AFSA16.jpg,AFNE06.jpg,AFSA19.jpg,AFNE10.jpg,AFSA16.jpg,FS,4,num_8,16,num_8,1.78339050512,,,2017_Oct_26_1513,60.0062935974,FEMA4ImagesEEG,001,202220,
AFNE01.JPG,AFNE01.JPG,AFNE01.JPG,AFNE01.JPG,AFNE01.JPG,AFNE01.JPG,,,,,,,,,3,1,31,8,,,,,,,,,,,,,,,AFSA02.jpg,AFNE09.jpg,AFNE17.jpg,AFSA17.jpg,AFNE09.jpg,FN,3,num_6,32,num_2,1.00012669212,,,2017_Oct_26_1513,60.0062935974,FEMA4ImagesEEG,001,202220,
AFNE01.JPG,AFNE01.JPG,AFNE01.JPG,AFNE01.JPG,AFNE01.JPG,AFNE01.JPG,,,,,,,,,3,2,32,9,,,,,,,,,,,,,,,AFSA13.jpg,AFSA17.jpg,AFNE01.jpg,AFNE18.jpg,AFSA13.jpg,FS,4,num_8,16,num_8,0.816784618655,,,2017_Oct_26_1513,60.0062935974,FEMA4ImagesEEG,001,202220,
AFNE01.JPG,AFNE01.JPG,AFNE01.JPG,AFNE01.JPG,AFNE01.JPG,AFNE01.JPG,,,,,,,,,3,3,33,7,,,,,,,,,,,,,,,AFSA01.jpg,AFSA20.jpg,AFNE18.jpg,AFNE04.jpg,AFSA01.jpg,FS,4,num_8,16,num_8,0.650113621959,,,2017_Oct_26_1513,60.0062935974,FEMA4ImagesEEG,001,202220,
AFNE01.JPG,AFNE01.JPG,AFNE01.JPG,AFNE01.JPG,AFNE01.JPG,AFNE01.JPG,,,,,,,,,3,4,34,2,,,,,,,,,,,,,,,AFSA11.jpg,AFNE12.jpg,AFSA12.jpg,AFNE16.jpg,AFNE16.jpg,FN,3,num_4,32,num_6,1.65002221125,,,2017_Oct_26_1513,60.0062935974,FEMA4ImagesEEG,001,202220,
AFNE01.JPG,AFNE01.JPG,AFNE01.JPG,AFNE01.JPG,AFNE01.JPG,AFNE01.JPG,,,,,,,,,3,5,35,4,,,,,,,,,,,,,,,AFNE07.jpg,AFSA14.jpg,AFNE19.jpg,AFSA01.jpg,AFSA14.jpg,FS,4,num_6,32,num_8,1.13341768784,,,2017_Oct_26_1513,60.0062935974,FEMA4ImagesEEG,001,202220,
AFNE01.JPG,AFNE01.JPG,AFNE01.JPG,AFNE01.JPG,AFNE01.JPG,AFNE01.JPG,,,,,,,,,3,6,36,0,,,,,,,,,,,,,,,AFNE16.jpg,AFSA01.jpg,AFNE05.jpg,AFSA19.jpg,AFSA19.jpg,FS,4,num_4,16,num_4,0.583456898225,,,2017_Oct_26_1513,60.0062935974,FEMA4ImagesEEG,001,202220,
AFNE01.JPG,AFNE01.JPG,AFNE01.JPG,AFNE01.JPG,AFNE01.JPG,AFNE01.JPG,,,,,,,,,3,7,37,5,,,,,,,,,,,,,,,AFSA14.jpg,AFNE07.jpg,AFSA07.jpg,AFNE02.jpg,AFSA14.jpg,FS,4,num_8,16,num_8,0.733087005443,,,2017_Oct_26_1513,60.0062935974,FEMA4ImagesEEG,001,202220,
AFNE01.JPG,AFNE01.JPG,AFNE01.JPG,AFNE01.JPG,AFNE01.JPG,AFNE01.JPG,,,,,,,,,3,8,38,1,,,,,,,,,,,,,,,AFSA05.jpg,AFSA13.jpg,AFNE16.jpg,AFNE18.jpg,AFNE16.jpg,FN,3,num_2,32,num_8,1.86668591108,,,2017_Oct_26_1513,60.0062935974,FEMA4ImagesEEG,001,202220,
AFNE01.JPG,AFNE01.JPG,AFNE01.JPG,AFNE01.JPG,AFNE01.JPG,AFNE01.JPG,,,,,,,,,3,9,39,6,,,,,,,,,,,,,,,AFSA07.jpg,AFSA01.jpg,AFNE06.jpg,AFNE12.jpg,AFSA07.jpg,FS,4,num_8,32,num_2,1.53339042503,,,2017_Oct_26_1513,60.0062935974,FEMA4ImagesEEG,001,202220,
AFNE01.JPG,AFNE01.JPG,AFNE01.JPG,AFNE01.JPG,AFNE01.JPG,AFNE01.JPG,,,,,,,,,4,0,40,9,,,,,,,,,,,,,,,AFNE05.jpg,AFNE08.jpg,AFSA06.jpg,AFSA20.jpg,AFSA20.jpg,FS,4,num_4,16,num_4,1.08343781414,,,2017_Oct_26_1513,60.0062935974,FEMA4ImagesEEG,001,202220,
AFNE01.JPG,AFNE01.JPG,AFNE01.JPG,AFNE01.JPG,AFNE01.JPG,AFNE01.JPG,,,,,,,,,4,1,41,1,,,,,,,,,,,,,,,AFSA20.jpg,AFSA07.jpg,AFNE05.jpg,AFNE04.jpg,AFSA07.jpg,FS,4,num_6,32,num_2,0.700162133784,,,2017_Oct_26_1513,60.0062935974,FEMA4ImagesEEG,001,202220,
AFNE01.JPG,AFNE01.JPG,AFNE01.JPG,AFNE01.JPG,AFNE01.JPG,AFNE01.JPG,,,,,,,,,4,2,42,7,,,,,,,,,,,,,,,AFNE19.jpg,AFSA18.jpg,AFNE08.jpg,AFSA02.jpg,AFSA18.jpg,FS,4,num_6,16,num_6,0.633467562846,,,2017_Oct_26_1513,60.0062935974,FEMA4ImagesEEG,001,202220,
AFNE01.JPG,AFNE01.JPG,AFNE01.JPG,AFNE01.JPG,AFNE01.JPG,AFNE01.JPG,,,,,,,,,4,3,43,0,,,,,,,,,,,,,,,AFSA14.jpg,AFNE03.jpg,AFNE13.jpg,AFSA17.jpg,AFNE03.jpg,FN,3,num_6,32,num_2,1.1167068393,,,2017_Oct_26_1513,60.0062935974,FEMA4ImagesEEG,001,202220,
AFNE01.JPG,AFNE01.JPG,AFNE01.JPG,AFNE01.JPG,AFNE01.JPG,AFNE01.JPG,,,,,,,,,4,4,44,5,,,,,,,,,,,,,,,AFSA08.jpg,AFSA04.jpg,AFNE10.jpg,AFNE04.jpg,AFNE04.jpg,FN,3,num_4,16,num_4,0.816756714252,,,2017_Oct_26_1513,60.0062935974,FEMA4ImagesEEG,001,202220,
AFNE01.JPG,AFNE01.JPG,AFNE01.JPG,AFNE01.JPG,AFNE01.JPG,AFNE01.JPG,,,,,,,,,4,5,45,4,,,,,,,,,,,,,,,AFSA11.jpg,AFNE06.jpg,AFNE08.jpg,AFSA01.jpg,AFNE06.jpg,FN,3,num_6,32,num_8,2.78337895859,,,2017_Oct_26_1513,60.0062935974,FEMA4ImagesEEG,001,202220,
AFNE01.JPG,AFNE01.JPG,AFNE01.JPG,AFNE01.JPG,AFNE01.JPG,AFNE01.JPG,,,,,,,,,4,6,46,3,,,,,,,,,,,,,,,AFSA08.jpg,AFNE18.jpg,AFNE11.jpg,AFSA16.jpg,AFNE11.jpg,FN,3,num_2,32,num_8,0.800136314356,,,2017_Oct_26_1513,60.0062935974,FEMA4ImagesEEG,001,202220,
AFNE01.JPG,AFNE01.JPG,AFNE01.JPG,AFNE01.JPG,AFNE01.JPG,AFNE01.JPG,,,,,,,,,4,7,47,2,,,,,,,,,,,,,,,AFNE01.jpg,AFSA20.jpg,AFSA19.jpg,AFNE09.jpg,AFSA19.jpg,FS,4,num_2,16,num_2,0.433551596478,,,2017_Oct_26_1513,60.0062935974,FEMA4ImagesEEG,001,202220,
AFNE01.JPG,AFNE01.JPG,AFNE01.JPG,AFNE01.JPG,AFNE01.JPG,AFNE01.JPG,,,,,,,,,4,8,48,6,,,,,,,,,,,,,,,AFNE09.jpg,AFSA18.jpg,AFSA04.jpg,AFNE04.jpg,AFNE04.jpg,FN,3,num_4,32,num_8,1.93340870703,,,2017_Oct_26_1513,60.0062935974,FEMA4ImagesEEG,001,202220,
AFNE01.JPG,AFNE01.JPG,AFNE01.JPG,AFNE01.JPG,AFNE01.JPG,AFNE01.JPG,,,,,,,,,4,9,49,8,,,,,,,,,,,,,,,AFSA14.jpg,AFNE07.jpg,AFNE14.jpg,AFSA08.jpg,AFSA08.jpg,FS,4,num_4,16,num_4,1.15014393185,,,2017_Oct_26_1513,60.0062935974,FEMA4ImagesEEG,001,202220,
AFNE01.JPG,AFNE01.JPG,AFNE01.JPG,AFNE01.JPG,AFNE01.JPG,AFNE01.JPG,,,,,,,,,5,0,50,0,,,,,,,,,,,,,,,AFNE07.jpg,AFNE11.jpg,AFSA06.jpg,AFSA07.jpg,AFSA07.jpg,FS,4,num_4,16,num_4,0.733506532735,,,2017_Oct_26_1513,60.0062935974,FEMA4ImagesEEG,001,202220,
AFNE01.JPG,AFNE01.JPG,AFNE01.JPG,AFNE01.JPG,AFNE01.JPG,AFNE01.JPG,,,,,,,,,5,1,51,3,,,,,,,,,,,,,,,AFNE08.jpg,AFSA18.jpg,AFNE03.jpg,AFSA02.jpg,AFSA02.jpg,FS,4,num_4,32,num_6,1.35010416014,,,2017_Oct_26_1513,60.0062935974,FEMA4ImagesEEG,001,202220,
AFNE01.JPG,AFNE01.JPG,AFNE01.JPG,AFNE01.JPG,AFNE01.JPG,AFNE01.JPG,,,,,,,,,5,2,52,6,,,,,,,,,,,,,,,AFSA04.jpg,AFNE18.jpg,AFSA10.jpg,AFNE12.jpg,AFSA04.jpg,FS,4,num_8,16,num_8,0.633415602962,,,2017_Oct_26_1513,60.0062935974,FEMA4ImagesEEG,001,202220,
AFNE01.JPG,AFNE01.JPG,AFNE01.JPG,AFNE01.JPG,AFNE01.JPG,AFNE01.JPG,,,,,,,,,5,3,53,2,,,,,,,,,,,,,,,AFNE20.jpg,AFSA06.jpg,AFSA20.jpg,AFNE19.jpg,AFSA20.jpg,FS,4,num_2,32,num_6,1.31672640436,,,2017_Oct_26_1513,60.0062935974,FEMA4ImagesEEG,001,202220,
AFNE01.JPG,AFNE01.JPG,AFNE01.JPG,AFNE01.JPG,AFNE01.JPG,AFNE01.JPG,,,,,,,,,5,4,54,5,,,,,,,,,,,,,,,AFSA04.jpg,AFSA12.jpg,AFNE14.jpg,AFNE09.jpg,AFNE09.jpg,FN,3,num_4,16,num_4,0.900139682111,,,2017_Oct_26_1513,60.0062935974,FEMA4ImagesEEG,001,202220,
AFNE01.JPG,AFNE01.JPG,AFNE01.JPG,AFNE01.JPG,AFNE01.JPG,AFNE01.JPG,,,,,,,,,5,5,55,1,,,,,,,,,,,,,,,AFSA19.jpg,AFNE03.jpg,AFSA07.jpg,AFNE07.jpg,AFNE03.jpg,FN,3,num_6,32,num_4,0.883442946011,,,2017_Oct_26_1513,60.0062935974,FEMA4ImagesEEG,001,202220,
AFNE01.JPG,AFNE01.JPG,AFNE01.JPG,AFNE01.JPG,AFNE01.JPG,AFNE01.JPG,,,,,,,,,5,6,56,4,,,,,,,,,,,,,,,AFSA06.jpg,AFNE12.jpg,AFSA07.jpg,AFNE06.jpg,AFSA06.jpg,FS,4,num_8,16,num_8,0.850102395983,,,2017_Oct_26_1513,60.0062935974,FEMA4ImagesEEG,001,202220,
AFNE01.JPG,AFNE01.JPG,AFNE01.JPG,AFNE01.JPG,AFNE01.JPG,AFNE01.JPG,,,,,,,,,5,7,57,8,,,,,,,,,,,,,,,AFNE09.jpg,AFSA08.jpg,AFNE02.jpg,AFSA10.jpg,AFNE09.jpg,FN,3,num_8,16,num_8,0.816800976289,,,2017_Oct_26_1513,60.0062935974,FEMA4ImagesEEG,001,202220,
AFNE01.JPG,AFNE01.JPG,AFNE01.JPG,AFNE01.JPG,AFNE01.JPG,AFNE01.JPG,,,,,,,,,5,8,58,9,,,,,,,,,,,,,,,AFSA19.jpg,AFNE01.jpg,AFNE02.jpg,AFSA05.jpg,AFSA19.jpg,FS,4,num_8,16,num_8,0.650133828516,,,2017_Oct_26_1513,60.0062935974,FEMA4ImagesEEG,001,202220,
AFNE01.JPG,AFNE01.JPG,AFNE01.JPG,AFNE01.JPG,AFNE01.JPG,AFNE01.JPG,,,,,,,,,5,9,59,7,,,,,,,,,,,,,,,AFNE15.jpg,AFNE10.jpg,AFSA15.jpg,AFSA20.jpg,AFNE15.jpg,FN,3,num_8,32,num_6,1.15010416019,,,2017_Oct_26_1513,60.0062935974,FEMA4ImagesEEG,001,202220,
,,,,,,,,,,,,,,,,,,,,,,,,,,,,,,,,,,,,,,,,,,,space,1.20013086172,2017_Oct_26_1513,60.0062935974,FEMA4ImagesEEG,001,202220,
AFNE01.JPG,AFNE01.JPG,AFNE01.JPG,AFNE01.JPG,AFNE01.JPG,AFNE01.JPG,,,,,,,,,,,,,0,0,0,0,,,,,,,,,,,AMSA02.jpg,AMNE13.jpg,AMNE08.jpg,AMSA09.jpg,AMSA09.jpg,MS,2,num_4,16,num_4,0.883313046535,,,2017_Oct_26_1513,60.0062935974,FEMA4ImagesEEG,001,202220,
AFNE01.JPG,AFNE01.JPG,AFNE01.JPG,AFNE01.JPG,AFNE01.JPG,AFNE01.JPG,,,,,,,,,,,,,0,1,1,8,,,,,,,,,,,AMSA19.jpg,AMSA11.jpg,AMNE10.jpg,AMNE07.jpg,AMSA11.jpg,MS,2,num_6,32,num_8,0.900146417553,,,2017_Oct_26_1513,60.0062935974,FEMA4ImagesEEG,001,202220,
AFNE01.JPG,AFNE01.JPG,AFNE01.JPG,AFNE01.JPG,AFNE01.JPG,AFNE01.JPG,,,,,,,,,,,,,0,2,2,4,,,,,,,,,,,AMSA13.jpg,AMNE02.jpg,AMSA16.jpg,AMNE07.jpg,AMNE07.jpg,MN,1,num_4,32,num_6,1.26671702275,,,2017_Oct_26_1513,60.0062935974,FEMA4ImagesEEG,001,202220,
AFNE01.JPG,AFNE01.JPG,AFNE01.JPG,AFNE01.JPG,AFNE01.JPG,AFNE01.JPG,,,,,,,,,,,,,0,3,3,7,,,,,,,,,,,AMSA04.jpg,AMNE17.jpg,AMNE12.jpg,AMSA01.jpg,AMNE17.jpg,MN,1,num_6,32,num_4,1.58340718364,,,2017_Oct_26_1513,60.0062935974,FEMA4ImagesEEG,001,202220,
AFNE01.JPG,AFNE01.JPG,AFNE01.JPG,AFNE01.JPG,AFNE01.JPG,AFNE01.JPG,,,,,,,,,,,,,0,4,4,2,,,,,,,,,,,AMNE04.jpg,AMSA13.jpg,AMSA12.jpg,AMNE08.jpg,AMNE08.jpg,MN,1,num_4,16,num_4,0.73365246912,,,2017_Oct_26_1513,60.0062935974,FEMA4ImagesEEG,001,202220,
AFNE01.JPG,AFNE01.JPG,AFNE01.JPG,AFNE01.JPG,AFNE01.JPG,AFNE01.JPG,,,,,,,,,,,,,0,5,5,9,,,,,,,,,,,AMSA18.jpg,AMNE13.jpg,AMSA10.jpg,AMNE20.jpg,AMSA10.jpg,MS,2,num_2,16,num_2,1.4500430593,,,2017_Oct_26_1513,60.0062935974,FEMA4ImagesEEG,001,202220,
AFNE01.JPG,AFNE01.JPG,AFNE01.JPG,AFNE01.JPG,AFNE01.JPG,AFNE01.JPG,,,,,,,,,,,,,0,6,6,1,,,,,,,,,,,AMNE15.jpg,AMSA04.jpg,AMNE02.jpg,AMSA01.jpg,AMSA01.jpg,MS,2,num_4,16,num_4,1.13311426819,,,2017_Oct_26_1513,60.0062935974,FEMA4ImagesEEG,001,202220,
AFNE01.JPG,AFNE01.JPG,AFNE01.JPG,AFNE01.JPG,AFNE01.JPG,AFNE01.JPG,,,,,,,,,,,,,0,7,7,6,,,,,,,,,,,AMNE09.jpg,AMSA01.jpg,AMSA04.jpg,AMNE08.jpg,AMSA04.jpg,MS,2,num_2,32,num_6,1.16678133106,,,2017_Oct_26_1513,60.0062935974,FEMA4ImagesEEG,001,202220,
AFNE01.JPG,AFNE01.JPG,AFNE01.JPG,AFNE01.JPG,AFNE01.JPG,AFNE01.JPG,,,,,,,,,,,,,0,8,8,3,,,,,,,,,,,AMSA10.jpg,AMNE08.jpg,AMSA07.jpg,AMNE04.jpg,AMNE04.jpg,MN,1,num_4,16,num_4,4.01678397704,,,2017_Oct_26_1513,60.0062935974,FEMA4ImagesEEG,001,202220,
AFNE01.JPG,AFNE01.JPG,AFNE01.JPG,AFNE01.JPG,AFNE01.JPG,AFNE01.JPG,,,,,,,,,,,,,0,9,9,5,,,,,,,,,,,AMSA03.jpg,AMNE18.jpg,AMNE09.jpg,AMSA17.jpg,AMNE09.jpg,MN,1,num_2,32,num_8,0.566796405707,,,2017_Oct_26_1513,60.0062935974,FEMA4ImagesEEG,001,202220,
AFNE01.JPG,AFNE01.JPG,AFNE01.JPG,AFNE01.JPG,AFNE01.JPG,AFNE01.JPG,,,,,,,,,,,,,1,0,10,2,,,,,,,,,,,AMNE02.jpg,AMNE15.jpg,AMSA08.jpg,AMSA10.jpg,AMNE02.jpg,MN,1,num_8,32,num_6,0.916816532263,,,2017_Oct_26_1513,60.0062935974,FEMA4ImagesEEG,001,202220,
AFNE01.JPG,AFNE01.JPG,AFNE01.JPG,AFNE01.JPG,AFNE01.JPG,AFNE01.JPG,,,,,,,,,,,,,1,1,11,0,,,,,,,,,,,AMNE06.jpg,AMNE02.jpg,AMSA13.jpg,AMSA05.jpg,AMNE06.jpg,MN,1,num_8,16,num_8,0.833526899572,,,2017_Oct_26_1513,60.0062935974,FEMA4ImagesEEG,001,202220,
AFNE01.JPG,AFNE01.JPG,AFNE01.JPG,AFNE01.JPG,AFNE01.JPG,AFNE01.JPG,,,,,,,,,,,,,1,2,12,6,,,,,,,,,,,AMNE03.jpg,AMSA05.jpg,AMNE04.jpg,AMSA17.jpg,AMNE03.jpg,MN,1,num_8,32,num_2,1.08342049434,,,2017_Oct_26_1513,60.0062935974,FEMA4ImagesEEG,001,202220,
AFNE01.JPG,AFNE01.JPG,AFNE01.JPG,AFNE01.JPG,AFNE01.JPG,AFNE01.JPG,,,,,,,,,,,,,1,3,13,7,,,,,,,,,,,AMSA12.jpg,AMNE13.jpg,AMNE03.jpg,AMSA11.jpg,AMNE13.jpg,MN,1,num_6,16,num_6,0.883468605229,,,2017_Oct_26_1513,60.0062935974,FEMA4ImagesEEG,001,202220,
AFNE01.JPG,AFNE01.JPG,AFNE01.JPG,AFNE01.JPG,AFNE01.JPG,AFNE01.JPG,,,,,,,,,,,,,1,4,14,5,,,,,,,,,,,AMSA12.jpg,AMSA02.jpg,AMNE11.jpg,AMNE07.jpg,AMSA12.jpg,MS,2,num_8,32,num_6,0.733465157216,,,2017_Oct_26_1513,60.0062935974,FEMA4ImagesEEG,001,202220,
AFNE01.JPG,AFNE01.JPG,AFNE01.JPG,AFNE01.JPG,AFNE01.JPG,AFNE01.JPG,,,,,,,,,,,,,1,5,15,9,,,,,,,,,,,AMSA15.jpg,AMSA02.jpg,AMNE16.jpg,AMNE19.jpg,AMSA15.jpg,MS,2,num_8,16,num_8,0.500140323536,,,2017_Oct_26_1513,60.0062935974,FEMA4ImagesEEG,001,202220,
AFNE01.JPG,AFNE01.JPG,AFNE01.JPG,AFNE01.JPG,AFNE01.JPG,AFNE01.JPG,,,,,,,,,,,,,1,6,16,4,,,,,,,,,,,AMNE19.jpg,AMNE18.jpg,AMSA17.jpg,AMSA07.jpg,AMNE18.jpg,MN,1,num_6,16,num_6,1.76670499507,,,2017_Oct_26_1513,60.0062935974,FEMA4ImagesEEG,001,202220,
AFNE01.JPG,AFNE01.JPG,AFNE01.JPG,AFNE01.JPG,AFNE01.JPG,AFNE01.JPG,,,,,,,,,,,,,1,7,17,8,,,,,,,,,,,AMSA18.jpg,AMNE03.jpg,AMNE09.jpg,AMSA04.jpg,AMSA18.jpg,MS,2,num_8,16,num_8,0.566815970931,,,2017_Oct_26_1513,60.0062935974,FEMA4ImagesEEG,001,202220,
AFNE01.JPG,AFNE01.JPG,AFNE01.JPG,AFNE01.JPG,AFNE01.JPG,AFNE01.JPG,,,,,,,,,,,,,1,8,18,3,,,,,,,,,,,AMNE04.jpg,AMSA17.jpg,AMSA15.jpg,AMNE11.jpg,AMSA17.jpg,MS,2,num_6,16,num_6,0.766811801237,,,2017_Oct_26_1513,60.0062935974,FEMA4ImagesEEG,001,202220,
AFNE01.JPG,AFNE01.JPG,AFNE01.JPG,AFNE01.JPG,AFNE01.JPG,AFNE01.JPG,,,,,,,,,,,,,1,9,19,1,,,,,,,,,,,AMNE08.jpg,AMSA05.jpg,AMNE02.jpg,AMSA19.jpg,AMNE08.jpg,MN,1,num_8,32,num_2,1.43355031358,,,2017_Oct_26_1513,60.0062935974,FEMA4ImagesEEG,001,202220,
AFNE01.JPG,AFNE01.JPG,AFNE01.JPG,AFNE01.JPG,AFNE01.JPG,AFNE01.JPG,,,,,,,,,,,,,2,0,20,4,,,,,,,,,,,AMNE20.jpg,AMSA15.jpg,AMNE10.jpg,AMSA17.jpg,AMSA17.jpg,MS,2,num_4,16,num_4,0.833422017749,,,2017_Oct_26_1513,60.0062935974,FEMA4ImagesEEG,001,202220,
AFNE01.JPG,AFNE01.JPG,AFNE01.JPG,AFNE01.JPG,AFNE01.JPG,AFNE01.JPG,,,,,,,,,,,,,2,1,21,9,,,,,,,,,,,AMSA13.jpg,AMSA14.jpg,AMNE17.jpg,AMNE04.jpg,AMSA14.jpg,MS,2,num_6,48,None,,,,2017_Oct_26_1513,60.0062935974,FEMA4ImagesEEG,001,202220,
AFNE01.JPG,AFNE01.JPG,AFNE01.JPG,AFNE01.JPG,AFNE01.JPG,AFNE01.JPG,,,,,,,,,,,,,2,2,22,0,,,,,,,,,,,AMSA08.jpg,AMNE10.jpg,AMSA10.jpg,AMNE18.jpg,AMSA08.jpg,MS,2,num_8,32,num_4,2.0500103439,,,2017_Oct_26_1513,60.0062935974,FEMA4ImagesEEG,001,202220,
AFNE01.JPG,AFNE01.JPG,AFNE01.JPG,AFNE01.JPG,AFNE01.JPG,AFNE01.JPG,,,,,,,,,,,,,2,3,23,7,,,,,,,,,,,AMSA01.jpg,AMNE19.jpg,AMSA08.jpg,AMNE15.jpg,AMSA08.jpg,MS,2,num_2,16,num_2,0.533476383192,,,2017_Oct_26_1513,60.0062935974,FEMA4ImagesEEG,001,202220,
AFNE01.JPG,AFNE01.JPG,AFNE01.JPG,AFNE01.JPG,AFNE01.JPG,AFNE01.JPG,,,,,,,,,,,,,2,4,24,5,,,,,,,,,,,AMSA06.jpg,AMNE20.jpg,AMSA17.jpg,AMNE14.jpg,AMNE14.jpg,MN,1,num_4,32,num_8,1.41672624403,,,2017_Oct_26_1513,60.0062935974,FEMA4ImagesEEG,001,202220,
AFNE01.JPG,AFNE01.JPG,AFNE01.JPG,AFNE01.JPG,AFNE01.JPG,AFNE01.JPG,,,,,,,,,,,,,2,5,25,2,,,,,,,,,,,AMNE09.jpg,AMNE15.jpg,AMSA06.jpg,AMSA11.jpg,AMSA06.jpg,MS,2,num_2,32,num_8,1.23350284412,,,2017_Oct_26_1513,60.0062935974,FEMA4ImagesEEG,001,202220,
AFNE01.JPG,AFNE01.JPG,AFNE01.JPG,AFNE01.JPG,AFNE01.JPG,AFNE01.JPG,,,,,,,,,,,,,2,6,26,6,,,,,,,,,,,AMSA14.jpg,AMNE13.jpg,AMNE02.jpg,AMSA11.jpg,AMSA11.jpg,MS,2,num_4,16,num_4,0.666750058881,,,2017_Oct_26_1513,60.0062935974,FEMA4ImagesEEG,001,202220,
AFNE01.JPG,AFNE01.JPG,AFNE01.JPG,AFNE01.JPG,AFNE01.JPG,AFNE01.JPG,,,,,,,,,,,,,2,7,27,1,,,,,,,,,,,AMNE02.jpg,AMSA12.jpg,AMNE13.jpg,AMSA04.jpg,AMNE13.jpg,MN,1,num_2,32,num_8,0.816803863039,,,2017_Oct_26_1513,60.0062935974,FEMA4ImagesEEG,001,202220,
AFNE01.JPG,AFNE01.JPG,AFNE01.JPG,AFNE01.JPG,AFNE01.JPG,AFNE01.JPG,,,,,,,,,,,,,2,8,28,8,,,,,,,,,,,AMNE08.jpg,AMNE16.jpg,AMSA01.jpg,AMSA15.jpg,AMNE16.jpg,MN,1,num_6,32,num_8,1.33342955518,,,2017_Oct_26_1513,60.0062935974,FEMA4ImagesEEG,001,202220,
AFNE01.JPG,AFNE01.JPG,AFNE01.JPG,AFNE01.JPG,AFNE01.JPG,AFNE01.JPG,,,,,,,,,,,,,2,9,29,3,,,,,,,,,,,AMSA17.jpg,AMNE05.jpg,AMSA15.jpg,AMNE16.jpg,AMSA15.jpg,MS,2,num_2,32,num_8,0.816784618539,,,2017_Oct_26_1513,60.0062935974,FEMA4ImagesEEG,001,202220,
AFNE01.JPG,AFNE01.JPG,AFNE01.JPG,AFNE01.JPG,AFNE01.JPG,AFNE01.JPG,,,,,,,,,,,,,3,0,30,7,,,,,,,,,,,AMSA11.jpg,AMNE16.jpg,AMNE13.jpg,AMSA08.jpg,AMSA08.jpg,MS,2,num_4,32,num_8,0.683527621208,,,2017_Oct_26_1513,60.0062935974,FEMA4ImagesEEG,001,202220,
AFNE01.JPG,AFNE01.JPG,AFNE01.JPG,AFNE01.JPG,AFNE01.JPG,AFNE01.JPG,,,,,,,,,,,,,3,1,31,8,,,,,,,,,,,AMNE15.jpg,AMSA15.jpg,AMSA16.jpg,AMNE20.jpg,AMNE20.jpg,MN,1,num_4,32,num_8,1.11674500722,,,2017_Oct_26_1513,60.0062935974,FEMA4ImagesEEG,001,202220,
AFNE01.JPG,AFNE01.JPG,AFNE01.JPG,AFNE01.JPG,AFNE01.JPG,AFNE01.JPG,,,,,,,,,,,,,3,2,32,4,,,,,,,,,,,AMSA04.jpg,AMNE14.jpg,AMSA08.jpg,AMNE04.jpg,AMNE04.jpg,MN,1,num_4,32,num_6,0.483473737026,,,2017_Oct_26_1513,60.0062935974,FEMA4ImagesEEG,001,202220,
AFNE01.JPG,AFNE01.JPG,AFNE01.JPG,AFNE01.JPG,AFNE01.JPG,AFNE01.JPG,,,,,,,,,,,,,3,3,33,2,,,,,,,,,,,AMSA15.jpg,AMSA17.jpg,AMNE19.jpg,AMNE08.jpg,AMSA17.jpg,MS,2,num_6,32,num_8,0.866718947189,,,2017_Oct_26_1513,60.0062935974,FEMA4ImagesEEG,001,202220,
AFNE01.JPG,AFNE01.JPG,AFNE01.JPG,AFNE01.JPG,AFNE01.JPG,AFNE01.JPG,,,,,,,,,,,,,3,4,34,6,,,,,,,,,,,AMSA10.jpg,AMSA04.jpg,AMNE04.jpg,AMNE20.jpg,AMSA04.jpg,MS,2,num_6,16,num_6,1.23342971562,,,2017_Oct_26_1513,60.0062935974,FEMA4ImagesEEG,001,202220,
AFNE01.JPG,AFNE01.JPG,AFNE01.JPG,AFNE01.JPG,AFNE01.JPG,AFNE01.JPG,,,,,,,,,,,,,3,5,35,3,,,,,,,,,,,AMSA12.jpg,AMNE16.jpg,AMNE13.jpg,AMSA13.jpg,AMSA12.jpg,MS,2,num_8,16,num_8,0.633471732377,,,2017_Oct_26_1513,60.0062935974,FEMA4ImagesEEG,001,202220,
AFNE01.JPG,AFNE01.JPG,AFNE01.JPG,AFNE01.JPG,AFNE01.JPG,AFNE01.JPG,,,,,,,,,,,,,3,6,36,0,,,,,,,,,,,AMSA15.jpg,AMSA14.jpg,AMNE09.jpg,AMNE02.jpg,AMSA14.jpg,MS,2,num_6,16,num_6,0.883454171941,,,2017_Oct_26_1513,60.0062935974,FEMA4ImagesEEG,001,202220,
AFNE01.JPG,AFNE01.JPG,AFNE01.JPG,AFNE01.JPG,AFNE01.JPG,AFNE01.JPG,,,,,,,,,,,,,3,7,37,9,,,,,,,,,,,AMNE17.jpg,AMSA20.jpg,AMSA15.jpg,AMNE03.jpg,AMNE17.jpg,MN,1,num_8,32,num_2,1.33343051746,,,2017_Oct_26_1513,60.0062935974,FEMA4ImagesEEG,001,202220,
AFNE01.JPG,AFNE01.JPG,AFNE01.JPG,AFNE01.JPG,AFNE01.JPG,AFNE01.JPG,,,,,,,,,,,,,3,8,38,5,,,,,,,,,,,AMNE05.jpg,AMSA18.jpg,AMSA11.jpg,AMNE10.jpg,AMNE10.jpg,MN,1,num_4,32,num_8,1.15010416019,,,2017_Oct_26_1513,60.0062935974,FEMA4ImagesEEG,001,202220,
AFNE01.JPG,AFNE01.JPG,AFNE01.JPG,AFNE01.JPG,AFNE01.JPG,AFNE01.JPG,,,,,,,,,,,,,3,9,39,1,,,,,,,,,,,AMSA18.jpg,AMNE20.jpg,AMNE03.jpg,AMSA02.jpg,AMSA02.jpg,MS,2,num_4,48,None,,,,2017_Oct_26_1513,60.0062935974,FEMA4ImagesEEG,001,202220,
AFNE01.JPG,AFNE01.JPG,AFNE01.JPG,AFNE01.JPG,AFNE01.JPG,AFNE01.JPG,,,,,,,,,,,,,4,0,40,0,,,,,,,,,,,AMSA09.jpg,AMSA02.jpg,AMNE10.jpg,AMNE02.jpg,AMNE02.jpg,MN,1,num_4,48,None,,,,2017_Oct_26_1513,60.0062935974,FEMA4ImagesEEG,001,202220,
AFNE01.JPG,AFNE01.JPG,AFNE01.JPG,AFNE01.JPG,AFNE01.JPG,AFNE01.JPG,,,,,,,,,,,,,4,1,41,5,,,,,,,,,,,AMNE12.jpg,AMSA08.jpg,AMSA10.jpg,AMNE19.jpg,AMSA08.jpg,MS,2,num_6,32,num_8,2.93333525769,,,2017_Oct_26_1513,60.0062935974,FEMA4ImagesEEG,001,202220,
AFNE01.JPG,AFNE01.JPG,AFNE01.JPG,AFNE01.JPG,AFNE01.JPG,AFNE01.JPG,,,,,,,,,,,,,4,2,42,1,,,,,,,,,,,AMSA10.jpg,AMSA15.jpg,AMNE04.jpg,AMNE03.jpg,AMNE04.jpg,MN,1,num_2,16,num_2,1.23340918822,,,2017_Oct_26_1513,60.0062935974,FEMA4ImagesEEG,001,202220,
AFNE01.JPG,AFNE01.JPG,AFNE01.JPG,AFNE01.JPG,AFNE01.JPG,AFNE01.JPG,,,,,,,,,,,,,4,3,43,7,,,,,,,,,,,AMSA14.jpg,AMSA11.jpg,AMNE06.jpg,AMNE13.jpg,AMSA14.jpg,MS,2,num_8,48,None,,,,2017_Oct_26_1513,60.0062935974,FEMA4ImagesEEG,001,202220,
AFNE01.JPG,AFNE01.JPG,AFNE01.JPG,AFNE01.JPG,AFNE01.JPG,AFNE01.JPG,,,,,,,,,,,,,4,4,44,8,,,,,,,,,,,AMSA08.jpg,AMSA02.jpg,AMNE20.jpg,AMNE14.jpg,AMSA08.jpg,MS,2,num_8,16,num_8,0.550120517844,,,2017_Oct_26_1513,60.0062935974,FEMA4ImagesEEG,001,202220,
AFNE01.JPG,AFNE01.JPG,AFNE01.JPG,AFNE01.JPG,AFNE01.JPG,AFNE01.JPG,,,,,,,,,,,,,4,5,45,6,,,,,,,,,,,AMNE10.jpg,AMSA08.jpg,AMNE08.jpg,AMSA03.jpg,AMSA08.jpg,MS,2,num_6,32,num_4,0.633474298287,,,2017_Oct_26_1513,60.0062935974,FEMA4ImagesEEG,001,202220,
AFNE01.JPG,AFNE01.JPG,AFNE01.JPG,AFNE01.JPG,AFNE01.JPG,AFNE01.JPG,,,,,,,,,,,,,4,6,46,4,,,,,,,,,,,AMNE02.jpg,AMSA11.jpg,AMSA14.jpg,AMNE14.jpg,AMNE14.jpg,MN,1,num_4,32,num_2,0.633441903628,,,2017_Oct_26_1513,60.0062935974,FEMA4ImagesEEG,001,202220,
AFNE01.JPG,AFNE01.JPG,AFNE01.JPG,AFNE01.JPG,AFNE01.JPG,AFNE01.JPG,,,,,,,,,,,,,4,7,47,9,,,,,,,,,,,AMSA03.jpg,AMSA01.jpg,AMNE14.jpg,AMNE02.jpg,AMSA01.jpg,MS,2,num_6,32,num_8,0.600142729119,,,2017_Oct_26_1513,60.0062935974,FEMA4ImagesEEG,001,202220,
AFNE01.JPG,AFNE01.JPG,AFNE01.JPG,AFNE01.JPG,AFNE01.JPG,AFNE01.JPG,,,,,,,,,,,,,4,8,48,3,,,,,,,,,,,AMSA20.jpg,AMSA18.jpg,AMNE11.jpg,AMNE16.jpg,AMNE16.jpg,MN,1,num_4,32,num_2,1.10008579784,,,2017_Oct_26_1513,60.0062935974,FEMA4ImagesEEG,001,202220,
AFNE01.JPG,AFNE01.JPG,AFNE01.JPG,AFNE01.JPG,AFNE01.JPG,AFNE01.JPG,,,,,,,,,,,,,4,9,49,2,,,,,,,,,,,AMNE03.jpg,AMSA02.jpg,AMNE13.jpg,AMSA01.jpg,AMNE13.jpg,MN,1,num_2,32,num_4,0.850089245825,,,2017_Oct_26_1513,60.0062935974,FEMA4ImagesEEG,001,202220,
AFNE01.JPG,AFNE01.JPG,AFNE01.JPG,AFNE01.JPG,AFNE01.JPG,AFNE01.JPG,,,,,,,,,,,,,5,0,50,9,,,,,,,,,,,AMNE15.jpg,AMSA10.jpg,AMSA12.jpg,AMNE09.jpg,AMNE09.jpg,MN,1,num_4,32,num_8,0.950100632035,,,2017_Oct_26_1513,60.0062935974,FEMA4ImagesEEG,001,202220,
AFNE01.JPG,AFNE01.JPG,AFNE01.JPG,AFNE01.JPG,AFNE01.JPG,AFNE01.JPG,,,,,,,,,,,,,5,1,51,8,,,,,,,,,,,AMNE10.jpg,AMNE18.jpg,AMSA15.jpg,AMSA08.jpg,AMNE18.jpg,MN,1,num_6,16,num_6,1.21674709208,,,2017_Oct_26_1513,60.0062935974,FEMA4ImagesEEG,001,202220,
AFNE01.JPG,AFNE01.JPG,AFNE01.JPG,AFNE01.JPG,AFNE01.JPG,AFNE01.JPG,,,,,,,,,,,,,5,2,52,7,,,,,,,,,,,AMSA03.jpg,AMNE18.jpg,AMNE13.jpg,AMSA16.jpg,AMNE18.jpg,MN,1,num_6,32,num_2,0.683478548191,,,2017_Oct_26_1513,60.0062935974,FEMA4ImagesEEG,001,202220,
AFNE01.JPG,AFNE01.JPG,AFNE01.JPG,AFNE01.JPG,AFNE01.JPG,AFNE01.JPG,,,,,,,,,,,,,5,3,53,0,,,,,,,,,,,AMSA13.jpg,AMNE10.jpg,AMNE15.jpg,AMSA08.jpg,AMSA13.jpg,MS,2,num_8,32,num_4,1.08344102162,,,2017_Oct_26_1513,60.0062935974,FEMA4ImagesEEG,001,202220,
AFNE01.JPG,AFNE01.JPG,AFNE01.JPG,AFNE01.JPG,AFNE01.JPG,AFNE01.JPG,,,,,,,,,,,,,5,4,54,1,,,,,,,,,,,AMNE11.jpg,AMSA16.jpg,AMNE07.jpg,AMSA10.jpg,AMSA10.jpg,MS,2,num_4,16,num_4,0.533510702313,,,2017_Oct_26_1513,60.0062935974,FEMA4ImagesEEG,001,202220,
AFNE01.JPG,AFNE01.JPG,AFNE01.JPG,AFNE01.JPG,AFNE01.JPG,AFNE01.JPG,,,,,,,,,,,,,5,5,55,5,,,,,,,,,,,AMSA09.jpg,AMNE08.jpg,AMSA03.jpg,AMNE16.jpg,AMNE08.jpg,MN,1,num_6,32,num_4,1.41671373521,,,2017_Oct_26_1513,60.0062935974,FEMA4ImagesEEG,001,202220,
AFNE01.JPG,AFNE01.JPG,AFNE01.JPG,AFNE01.JPG,AFNE01.JPG,AFNE01.JPG,,,,,,,,,,,,,5,6,56,3,,,,,,,,,,,AMNE14.jpg,AMSA09.jpg,AMSA14.jpg,AMNE02.jpg,AMNE14.jpg,MN,1,num_8,32,num_4,1.35022090934,,,2017_Oct_26_1513,60.0062935974,FEMA4ImagesEEG,001,202220,
AFNE01.JPG,AFNE01.JPG,AFNE01.JPG,AFNE01.JPG,AFNE01.JPG,AFNE01.JPG,,,,,,,,,,,,,5,7,57,4,,,,,,,,,,,AMSA16.jpg,AMNE15.jpg,AMSA14.jpg,AMNE18.jpg,AMSA16.jpg,MS,2,num_8,16,num_8,0.750146818464,,,2017_Oct_26_1513,60.0062935974,FEMA4ImagesEEG,001,202220,
AFNE01.JPG,AFNE01.JPG,AFNE01.JPG,AFNE01.JPG,AFNE01.JPG,AFNE01.JPG,,,,,,,,,,,,,5,8,58,2,,,,,,,,,,,AMSA12.jpg,AMSA06.jpg,AMNE13.jpg,AMNE20.jpg,AMSA06.jpg,MS,2,num_6,16,num_6,0.566942663048,,,2017_Oct_26_1513,60.0062935974,FEMA4ImagesEEG,001,202220,
AFNE01.JPG,AFNE01.JPG,AFNE01.JPG,AFNE01.JPG,AFNE01.JPG,AFNE01.JPG,,,,,,,,,,,,,5,9,59,6,,,,,,,,,,,AMSA14.jpg,AMSA09.jpg,AMNE18.jpg,AMNE06.jpg,AMNE06.jpg,MN,1,num_4,16,num_4,1.03338513279,,,2017_Oct_26_1513,60.0062935974,FEMA4ImagesEEG,001,202220,
,,,,,,,,,,,,,,,,,,,,,,,,,,,,,,,,,,,,,,,,,,,space,1.60006671376,2017_Oct_26_1513,60.0062935974,FEMA4ImagesEEG,001,202220,
AFNE01.JPG,AFNE01.JPG,AFNE01.JPG,AFNE01.JPG,AFNE01.JPG,AFNE01.JPG,,,,,,,,,,,,,,,,,0,0,0,7,,,,,,,AFNE09.jpg,AFNE13.jpg,AFSA16.jpg,AFSA07.jpg,AFNE09.jpg,FN,3,num_8,32,num_2,3.33325443137,,,2017_Oct_26_1513,60.0062935974,FEMA4ImagesEEG,001,202220,
AFNE01.JPG,AFNE01.JPG,AFNE01.JPG,AFNE01.JPG,AFNE01.JPG,AFNE01.JPG,,,,,,,,,,,,,,,,,0,1,1,0,,,,,,,AFSA15.jpg,AFNE09.jpg,AFNE14.jpg,AFSA05.jpg,AFSA15.jpg,FS,4,num_8,32,num_6,0.450038568932,,,2017_Oct_26_1513,60.0062935974,FEMA4ImagesEEG,001,202220,
AFNE01.JPG,AFNE01.JPG,AFNE01.JPG,AFNE01.JPG,AFNE01.JPG,AFNE01.JPG,,,,,,,,,,,,,,,,,0,2,2,8,,,,,,,AFNE05.jpg,AFSA11.jpg,AFSA03.jpg,AFNE04.jpg,AFNE04.jpg,FN,3,num_4,32,num_8,1.30007457198,,,2017_Oct_26_1513,60.0062935974,FEMA4ImagesEEG,001,202220,
AFNE01.JPG,AFNE01.JPG,AFNE01.JPG,AFNE01.JPG,AFNE01.JPG,AFNE01.JPG,,,,,,,,,,,,,,,,,0,3,3,1,,,,,,,AFNE09.jpg,AFSA14.jpg,AFNE07.jpg,AFSA20.jpg,AFNE07.jpg,FN,3,num_2,16,num_2,1.00011418317,,,2017_Oct_26_1513,60.0062935974,FEMA4ImagesEEG,001,202220,
AFNE01.JPG,AFNE01.JPG,AFNE01.JPG,AFNE01.JPG,AFNE01.JPG,AFNE01.JPG,,,,,,,,,,,,,,,,,0,4,4,2,,,,,,,AFSA01.jpg,AFNE06.jpg,AFNE10.jpg,AFSA13.jpg,AFNE10.jpg,FN,3,num_2,32,num_6,0.933475420927,,,2017_Oct_26_1513,60.0062935974,FEMA4ImagesEEG,001,202220,
AFNE01.JPG,AFNE01.JPG,AFNE01.JPG,AFNE01.JPG,AFNE01.JPG,AFNE01.JPG,,,,,,,,,,,,,,,,,0,5,5,3,,,,,,,AFSA05.jpg,AFNE05.jpg,AFNE13.jpg,AFSA14.jpg,AFNE05.jpg,FN,3,num_6,16,num_6,0.650163657381,,,2017_Oct_26_1513,60.0062935974,FEMA4ImagesEEG,001,202220,
AFNE01.JPG,AFNE01.JPG,AFNE01.JPG,AFNE01.JPG,AFNE01.JPG,AFNE01.JPG,,,,,,,,,,,,,,,,,0,6,6,9,,,,,,,AFNE03.jpg,AFSA11.jpg,AFNE13.jpg,AFSA12.jpg,AFSA12.jpg,FS,4,num_4,32,num_2,1.2834073439,,,2017_Oct_26_1513,60.0062935974,FEMA4ImagesEEG,001,202220,
AFNE01.JPG,AFNE01.JPG,AFNE01.JPG,AFNE01.JPG,AFNE01.JPG,AFNE01.JPG,,,,,,,,,,,,,,,,,0,7,7,5,,,,,,,AFSA07.jpg,AFSA15.jpg,AFNE09.jpg,AFNE06.jpg,AFSA07.jpg,FS,4,num_8,32,num_4,0.46676224703,,,2017_Oct_26_1513,60.0062935974,FEMA4ImagesEEG,001,202220,
AFNE01.JPG,AFNE01.JPG,AFNE01.JPG,AFNE01.JPG,AFNE01.JPG,AFNE01.JPG,,,,,,,,,,,,,,,,,0,8,8,6,,,,,,,AFSA11.jpg,AFNE11.jpg,AFNE05.jpg,AFSA03.jpg,AFSA03.jpg,FS,4,num_4,32,num_6,0.483469567494,,,2017_Oct_26_1513,60.0062935974,FEMA4ImagesEEG,001,202220,
AFNE01.JPG,AFNE01.JPG,AFNE01.JPG,AFNE01.JPG,AFNE01.JPG,AFNE01.JPG,,,,,,,,,,,,,,,,,0,9,9,4,,,,,,,AFNE10.jpg,AFSA16.jpg,AFNE19.jpg,AFSA12.jpg,AFSA12.jpg,FS,4,num_4,16,num_4,0.650133507792,,,2017_Oct_26_1513,60.0062935974,FEMA4ImagesEEG,001,202220,
AFNE01.JPG,AFNE01.JPG,AFNE01.JPG,AFNE01.JPG,AFNE01.JPG,AFNE01.JPG,,,,,,,,,,,,,,,,,1,0,10,0,,,,,,,AFSA05.jpg,AFNE07.jpg,AFNE15.jpg,AFSA19.jpg,AFSA05.jpg,FS,4,num_8,16,num_8,0.300035441644,,,2017_Oct_26_1513,60.0062935974,FEMA4ImagesEEG,001,202220,
AFNE01.JPG,AFNE01.JPG,AFNE01.JPG,AFNE01.JPG,AFNE01.JPG,AFNE01.JPG,,,,,,,,,,,,,,,,,1,1,11,6,,,,,,,AFNE19.jpg,AFNE02.jpg,AFSA15.jpg,AFSA03.jpg,AFSA15.jpg,FS,4,num_2,16,num_2,0.366783896927,,,2017_Oct_26_1513,60.0062935974,FEMA4ImagesEEG,001,202220,
AFNE01.JPG,AFNE01.JPG,AFNE01.JPG,AFNE01.JPG,AFNE01.JPG,AFNE01.JPG,,,,,,,,,,,,,,,,,1,2,12,7,,,,,,,AFSA02.jpg,AFNE20.jpg,AFNE09.jpg,AFSA07.jpg,AFSA07.jpg,FS,4,num_4,32,num_8,0.5667925569,,,2017_Oct_26_1513,60.0062935974,FEMA4ImagesEEG,001,202220,
AFNE01.JPG,AFNE01.JPG,AFNE01.JPG,AFNE01.JPG,AFNE01.JPG,AFNE01.JPG,,,,,,,,,,,,,,,,,1,3,13,2,,,,,,,AFNE19.jpg,AFSA03.jpg,AFNE07.jpg,AFSA19.jpg,AFSA19.jpg,FS,4,num_4,32,num_6,0.533464836539,,,2017_Oct_26_1513,60.0062935974,FEMA4ImagesEEG,001,202220,
AFNE01.JPG,AFNE01.JPG,AFNE01.JPG,AFNE01.JPG,AFNE01.JPG,AFNE01.JPG,,,,,,,,,,,,,,,,,1,4,14,3,,,,,,,AFNE01.jpg,AFNE15.jpg,AFSA09.jpg,AFSA15.jpg,AFSA15.jpg,FS,4,num_4,16,num_4,0.516781892395,,,2017_Oct_26_1513,60.0062935974,FEMA4ImagesEEG,001,202220,
AFNE01.JPG,AFNE01.JPG,AFNE01.JPG,AFNE01.JPG,AFNE01.JPG,AFNE01.JPG,,,,,,,,,,,,,,,,,1,5,15,5,,,,,,,AFSA16.jpg,AFNE20.jpg,AFSA10.jpg,AFNE01.jpg,AFSA10.jpg,FS,4,num_2,32,num_4,1.10011755105,,,2017_Oct_26_1513,60.0062935974,FEMA4ImagesEEG,001,202220,
AFNE01.JPG,AFNE01.JPG,AFNE01.JPG,AFNE01.JPG,AFNE01.JPG,AFNE01.JPG,,,,,,,,,,,,,,,,,1,6,16,1,,,,,,,AFNE18.jpg,AFSA15.jpg,AFSA13.jpg,AFNE12.jpg,AFNE18.jpg,FN,3,num_8,32,num_2,0.583472614409,,,2017_Oct_26_1513,60.0062935974,FEMA4ImagesEEG,001,202220,
AFNE01.JPG,AFNE01.JPG,AFNE01.JPG,AFNE01.JPG,AFNE01.JPG,AFNE01.JPG,,,,,,,,,,,,,,,,,1,7,17,9,,,,,,,AFSA07.jpg,AFNE11.jpg,AFSA11.jpg,AFNE05.jpg,AFSA11.jpg,FS,4,num_2,16,num_2,0.650147299631,,,2017_Oct_26_1513,60.0062935974,FEMA4ImagesEEG,001,202220,
AFNE01.JPG,AFNE01.JPG,AFNE01.JPG,AFNE01.JPG,AFNE01.JPG,AFNE01.JPG,,,,,,,,,,,,,,,,,1,8,18,4,,,,,,,AFNE02.jpg,AFSA03.jpg,AFSA05.jpg,AFNE17.jpg,AFSA03.jpg,FS,4,num_6,16,num_6,0.483336781268,,,2017_Oct_26_1513,60.0062935974,FEMA4ImagesEEG,001,202220,
AFNE01.JPG,AFNE01.JPG,AFNE01.JPG,AFNE01.JPG,AFNE01.JPG,AFNE01.JPG,,,,,,,,,,,,,,,,,1,9,19,8,,,,,,,AFNE04.jpg,AFSA02.jpg,AFNE05.jpg,AFSA18.jpg,AFSA18.jpg,FS,4,num_4,48,None,,,,2017_Oct_26_1513,60.0062935974,FEMA4ImagesEEG,001,202220,
AFNE01.JPG,AFNE01.JPG,AFNE01.JPG,AFNE01.JPG,AFNE01.JPG,AFNE01.JPG,,,,,,,,,,,,,,,,,2,0,20,0,,,,,,,AFNE02.jpg,AFSA07.jpg,AFSA13.jpg,AFNE05.jpg,AFSA13.jpg,FS,4,num_2,16,num_2,0.850146016572,,,2017_Oct_26_1513,60.0062935974,FEMA4ImagesEEG,001,202220,
AFNE01.JPG,AFNE01.JPG,AFNE01.JPG,AFNE01.JPG,AFNE01.JPG,AFNE01.JPG,,,,,,,,,,,,,,,,,2,1,21,5,,,,,,,AFSA11.jpg,AFSA06.jpg,AFNE17.jpg,AFNE03.jpg,AFSA11.jpg,FS,4,num_8,32,num_6,0.683492339915,,,2017_Oct_26_1513,60.0062935974,FEMA4ImagesEEG,001,202220,
AFNE01.JPG,AFNE01.JPG,AFNE01.JPG,AFNE01.JPG,AFNE01.JPG,AFNE01.JPG,,,,,,,,,,,,,,,,,2,2,22,8,,,,,,,AFNE01.jpg,AFSA13.jpg,AFSA04.jpg,AFNE11.jpg,AFSA13.jpg,FS,4,num_6,16,num_6,0.983431880479,,,2017_Oct_26_1513,60.0062935974,FEMA4ImagesEEG,001,202220,
AFNE01.JPG,AFNE01.JPG,AFNE01.JPG,AFNE01.JPG,AFNE01.JPG,AFNE01.JPG,,,,,,,,,,,,,,,,,2,3,23,9,,,,,,,AFSA10.jpg,AFSA14.jpg,AFNE05.jpg,AFNE01.jpg,AFNE05.jpg,FN,3,num_2,16,num_2,1.36668703356,,,2017_Oct_26_1513,60.0062935974,FEMA4ImagesEEG,001,202220,
AFNE01.JPG,AFNE01.JPG,AFNE01.JPG,AFNE01.JPG,AFNE01.JPG,AFNE01.JPG,,,,,,,,,,,,,,,,,2,4,24,7,,,,,,,AFSA02.jpg,AFSA20.jpg,AFNE01.jpg,AFNE07.jpg,AFNE01.jpg,FN,3,num_2,32,num_4,0.950079783914,,,2017_Oct_26_1513,60.0062935974,FEMA4ImagesEEG,001,202220,
AFNE01.JPG,AFNE01.JPG,AFNE01.JPG,AFNE01.JPG,AFNE01.JPG,AFNE01.JPG,,,,,,,,,,,,,,,,,2,5,25,1,,,,,,,AFSA04.jpg,AFNE13.jpg,AFNE19.jpg,AFSA08.jpg,AFSA04.jpg,FS,4,num_8,32,num_4,0.81676601572,,,2017_Oct_26_1513,60.0062935974,FEMA4ImagesEEG,001,202220,
AFNE01.JPG,AFNE01.JPG,AFNE01.JPG,AFNE01.JPG,AFNE01.JPG,AFNE01.JPG,,,,,,,,,,,,,,,,,2,6,26,2,,,,,,,AFNE10.jpg,AFNE17.jpg,AFSA08.jpg,AFSA17.jpg,AFSA17.jpg,FS,4,num_4,32,num_2,0.666743002599,,,2017_Oct_26_1513,60.0062935974,FEMA4ImagesEEG,001,202220,
AFNE01.JPG,AFNE01.JPG,AFNE01.JPG,AFNE01.JPG,AFNE01.JPG,AFNE01.JPG,,,,,,,,,,,,,,,,,2,7,27,6,,,,,,,AFSA19.jpg,AFSA13.jpg,AFNE20.jpg,AFNE19.jpg,AFSA13.jpg,FS,4,num_6,32,num_8,0.766638281173,,,2017_Oct_26_1513,60.0062935974,FEMA4ImagesEEG,001,202220,
AFNE01.JPG,AFNE01.JPG,AFNE01.JPG,AFNE01.JPG,AFNE01.JPG,AFNE01.JPG,,,,,,,,,,,,,,,,,2,8,28,3,,,,,,,AFNE08.jpg,AFSA05.jpg,AFNE14.jpg,AFSA18.jpg,AFNE14.jpg,FN,3,num_2,32,num_8,0.716840587673,,,2017_Oct_26_1513,60.0062935974,FEMA4ImagesEEG,001,202220,
AFNE01.JPG,AFNE01.JPG,AFNE01.JPG,AFNE01.JPG,AFNE01.JPG,AFNE01.JPG,,,,,,,,,,,,,,,,,2,9,29,4,,,,,,,AFSA14.jpg,AFNE15.jpg,AFNE01.jpg,AFSA05.jpg,AFSA14.jpg,FS,4,num_8,16,num_8,0.433474619174,,,2017_Oct_26_1513,60.0062935974,FEMA4ImagesEEG,001,202220,
AFNE01.JPG,AFNE01.JPG,AFNE01.JPG,AFNE01.JPG,AFNE01.JPG,AFNE01.JPG,,,,,,,,,,,,,,,,,3,0,30,2,,,,,,,AFNE16.jpg,AFSA04.jpg,AFSA16.jpg,AFNE04.jpg,AFSA04.jpg,FS,4,num_6,32,num_8,0.749923263094,,,2017_Oct_26_1513,60.0062935974,FEMA4ImagesEEG,001,202220,
AFNE01.JPG,AFNE01.JPG,AFNE01.JPG,AFNE01.JPG,AFNE01.JPG,AFNE01.JPG,,,,,,,,,,,,,,,,,3,1,31,6,,,,,,,AFSA01.jpg,AFNE12.jpg,AFNE09.jpg,AFSA04.jpg,AFSA04.jpg,FS,4,num_4,16,num_4,0.400160049088,,,2017_Oct_26_1513,60.0062935974,FEMA4ImagesEEG,001,202220,
AFNE01.JPG,AFNE01.JPG,AFNE01.JPG,AFNE01.JPG,AFNE01.JPG,AFNE01.JPG,,,,,,,,,,,,,,,,,3,2,32,5,,,,,,,AFSA05.jpg,AFNE06.jpg,AFNE08.jpg,AFSA01.jpg,AFNE08.jpg,FN,3,num_2,32,num_8,1.68338425073,,,2017_Oct_26_1513,60.0062935974,FEMA4ImagesEEG,001,202220,
AFNE01.JPG,AFNE01.JPG,AFNE01.JPG,AFNE01.JPG,AFNE01.JPG,AFNE01.JPG,,,,,,,,,,,,,,,,,3,3,33,9,,,,,,,AFSA17.jpg,AFSA14.jpg,AFNE09.jpg,AFNE01.jpg,AFSA14.jpg,FS,4,num_6,32,num_8,0.983439898933,,,2017_Oct_26_1513,60.0062935974,FEMA4ImagesEEG,001,202220,
AFNE01.JPG,AFNE01.JPG,AFNE01.JPG,AFNE01.JPG,AFNE01.JPG,AFNE01.JPG,,,,,,,,,,,,,,,,,3,4,34,7,,,,,,,AFSA15.jpg,AFNE09.jpg,AFNE20.jpg,AFSA06.jpg,AFSA15.jpg,FS,4,num_8,16,num_8,0.750110254157,,,2017_Oct_26_1513,60.0062935974,FEMA4ImagesEEG,001,202220,
AFNE01.JPG,AFNE01.JPG,AFNE01.JPG,AFNE01.JPG,AFNE01.JPG,AFNE01.JPG,,,,,,,,,,,,,,,,,3,5,35,3,,,,,,,AFSA10.jpg,AFSA11.jpg,AFNE07.jpg,AFNE15.jpg,AFSA11.jpg,FS,4,num_6,16,num_6,0.700131663471,,,2017_Oct_26_1513,60.0062935974,FEMA4ImagesEEG,001,202220,
AFNE01.JPG,AFNE01.JPG,AFNE01.JPG,AFNE01.JPG,AFNE01.JPG,AFNE01.JPG,,,,,,,,,,,,,,,,,3,6,36,4,,,,,,,AFSA12.jpg,AFNE12.jpg,AFSA09.jpg,AFNE17.jpg,AFSA09.jpg,FS,4,num_2,16,num_2,1.43339860381,,,2017_Oct_26_1513,60.0062935974,FEMA4ImagesEEG,001,202220,
AFNE01.JPG,AFNE01.JPG,AFNE01.JPG,AFNE01.JPG,AFNE01.JPG,AFNE01.JPG,,,,,,,,,,,,,,,,,3,7,37,0,,,,,,,AFSA12.jpg,AFNE12.jpg,AFSA06.jpg,AFNE02.jpg,AFNE02.jpg,FN,3,num_4,16,num_4,0.783423541347,,,2017_Oct_26_1513,60.0062935974,FEMA4ImagesEEG,001,202220,
AFNE01.JPG,AFNE01.JPG,AFNE01.JPG,AFNE01.JPG,AFNE01.JPG,AFNE01.JPG,,,,,,,,,,,,,,,,,3,8,38,8,,,,,,,AFNE19.jpg,AFNE08.jpg,AFSA01.jpg,AFSA16.jpg,AFNE19.jpg,FN,3,num_8,32,num_4,0.733484722325,,,2017_Oct_26_1513,60.0062935974,FEMA4ImagesEEG,001,202220,
AFNE01.JPG,AFNE01.JPG,AFNE01.JPG,AFNE01.JPG,AFNE01.JPG,AFNE01.JPG,,,,,,,,,,,,,,,,,3,9,39,1,,,,,,,AFNE09.jpg,AFNE20.jpg,AFSA08.jpg,AFSA09.jpg,AFNE09.jpg,FN,3,num_8,16,num_8,0.700109853293,,,2017_Oct_26_1513,60.0062935974,FEMA4ImagesEEG,001,202220,
AFNE01.JPG,AFNE01.JPG,AFNE01.JPG,AFNE01.JPG,AFNE01.JPG,AFNE01.JPG,,,,,,,,,,,,,,,,,4,0,40,2,,,,,,,AFSA12.jpg,AFNE06.jpg,AFSA20.jpg,AFNE03.jpg,AFNE03.jpg,FN,3,num_4,32,num_6,0.533334616339,,,2017_Oct_26_1513,60.0062935974,FEMA4ImagesEEG,001,202220,
AFNE01.JPG,AFNE01.JPG,AFNE01.JPG,AFNE01.JPG,AFNE01.JPG,AFNE01.JPG,,,,,,,,,,,,,,,,,4,1,41,6,,,,,,,AFNE20.jpg,AFSA08.jpg,AFSA02.jpg,AFNE03.jpg,AFNE03.jpg,FN,3,num_4,16,num_4,1.06659610395,,,2017_Oct_26_1513,60.0062935974,FEMA4ImagesEEG,001,202220,
AFNE01.JPG,AFNE01.JPG,AFNE01.JPG,AFNE01.JPG,AFNE01.JPG,AFNE01.JPG,,,,,,,,,,,,,,,,,4,2,42,9,,,,,,,AFSA02.jpg,AFSA01.jpg,AFNE16.jpg,AFNE05.jpg,AFNE05.jpg,FN,3,num_4,32,num_2,1.63336524693,,,2017_Oct_26_1513,60.0062935974,FEMA4ImagesEEG,001,202220,
AFNE01.JPG,AFNE01.JPG,AFNE01.JPG,AFNE01.JPG,AFNE01.JPG,AFNE01.JPG,,,,,,,,,,,,,,,,,4,3,43,1,,,,,,,AFNE03.jpg,AFNE10.jpg,AFSA20.jpg,AFSA05.jpg,AFSA20.jpg,FS,4,num_2,32,num_4,0.533342955518,,,2017_Oct_26_1513,60.0062935974,FEMA4ImagesEEG,001,202220,
AFNE01.JPG,AFNE01.JPG,AFNE01.JPG,AFNE01.JPG,AFNE01.JPG,AFNE01.JPG,,,,,,,,,,,,,,,,,4,4,44,0,,,,,,,AFSA04.jpg,AFSA14.jpg,AFNE17.jpg,AFNE11.jpg,AFSA04.jpg,FS,4,num_8,16,num_8,0.416771788965,,,2017_Oct_26_1513,60.0062935974,FEMA4ImagesEEG,001,202220,
AFNE01.JPG,AFNE01.JPG,AFNE01.JPG,AFNE01.JPG,AFNE01.JPG,AFNE01.JPG,,,,,,,,,,,,,,,,,4,5,45,8,,,,,,,AFSA16.jpg,AFNE03.jpg,AFSA09.jpg,AFNE13.jpg,AFNE13.jpg,FN,3,num_4,16,num_4,1.23345184652,,,2017_Oct_26_1513,60.0062935974,FEMA4ImagesEEG,001,202220,
AFNE01.JPG,AFNE01.JPG,AFNE01.JPG,AFNE01.JPG,AFNE01.JPG,AFNE01.JPG,,,,,,,,,,,,,,,,,4,6,46,7,,,,,,,AFSA19.jpg,AFNE09.jpg,AFSA15.jpg,AFNE05.jpg,AFSA19.jpg,FS,4,num_8,32,num_4,1.16671557946,,,2017_Oct_26_1513,60.0062935974,FEMA4ImagesEEG,001,202220,
AFNE01.JPG,AFNE01.JPG,AFNE01.JPG,AFNE01.JPG,AFNE01.JPG,AFNE01.JPG,,,,,,,,,,,,,,,,,4,7,47,3,,,,,,,AFSA18.jpg,AFNE19.jpg,AFNE17.jpg,AFSA11.jpg,AFSA18.jpg,FS,4,num_8,48,None,,,,2017_Oct_26_1513,60.0062935974,FEMA4ImagesEEG,001,202220,
AFNE01.JPG,AFNE01.JPG,AFNE01.JPG,AFNE01.JPG,AFNE01.JPG,AFNE01.JPG,,,,,,,,,,,,,,,,,4,8,48,4,,,,,,,AFSA08.jpg,AFSA10.jpg,AFNE04.jpg,AFNE07.jpg,AFNE07.jpg,FN,3,num_4,32,num_8,1.40013631433,,,2017_Oct_26_1513,60.0062935974,FEMA4ImagesEEG,001,202220,
AFNE01.JPG,AFNE01.JPG,AFNE01.JPG,AFNE01.JPG,AFNE01.JPG,AFNE01.JPG,,,,,,,,,,,,,,,,,4,9,49,5,,,,,,,AFNE18.jpg,AFSA03.jpg,AFSA15.jpg,AFNE04.jpg,AFNE18.jpg,FN,3,num_8,32,num_6,0.383469086257,,,2017_Oct_26_1513,60.0062935974,FEMA4ImagesEEG,001,202220,
AFNE01.JPG,AFNE01.JPG,AFNE01.JPG,AFNE01.JPG,AFNE01.JPG,AFNE01.JPG,,,,,,,,,,,,,,,,,5,0,50,8,,,,,,,AFNE12.jpg,AFSA12.jpg,AFNE02.jpg,AFSA03.jpg,AFSA03.jpg,FS,4,num_4,16,num_4,0.433515032288,,,2017_Oct_26_1513,60.0062935974,FEMA4ImagesEEG,001,202220,
AFNE01.JPG,AFNE01.JPG,AFNE01.JPG,AFNE01.JPG,AFNE01.JPG,AFNE01.JPG,,,,,,,,,,,,,,,,,5,1,51,7,,,,,,,AFSA16.jpg,AFNE01.jpg,AFNE02.jpg,AFSA19.jpg,AFSA16.jpg,FS,4,num_8,16,num_8,0.833458582056,,,2017_Oct_26_1513,60.0062935974,FEMA4ImagesEEG,001,202220,
AFNE01.JPG,AFNE01.JPG,AFNE01.JPG,AFNE01.JPG,AFNE01.JPG,AFNE01.JPG,,,,,,,,,,,,,,,,,5,2,52,4,,,,,,,AFNE03.jpg,AFNE06.jpg,AFSA02.jpg,AFSA17.jpg,AFNE03.jpg,FN,3,num_8,32,num_2,1.11675238423,,,2017_Oct_26_1513,60.0062935974,FEMA4ImagesEEG,001,202220,
AFNE01.JPG,AFNE01.JPG,AFNE01.JPG,AFNE01.JPG,AFNE01.JPG,AFNE01.JPG,,,,,,,,,,,,,,,,,5,3,53,1,,,,,,,AFSA01.jpg,AFSA08.jpg,AFNE01.jpg,AFNE05.jpg,AFNE05.jpg,FN,3,num_4,32,num_6,3.24989968876,,,2017_Oct_26_1513,60.0062935974,FEMA4ImagesEEG,001,202220,
AFNE01.JPG,AFNE01.JPG,AFNE01.JPG,AFNE01.JPG,AFNE01.JPG,AFNE01.JPG,,,,,,,,,,,,,,,,,5,4,54,3,,,,,,,AFNE10.jpg,AFSA01.jpg,AFNE14.jpg,AFSA08.jpg,AFNE10.jpg,FN,3,num_8,32,num_4,3.56682110275,,,2017_Oct_26_1513,60.0062935974,FEMA4ImagesEEG,001,202220,
AFNE01.JPG,AFNE01.JPG,AFNE01.JPG,AFNE01.JPG,AFNE01.JPG,AFNE01.JPG,,,,,,,,,,,,,,,,,5,5,55,0,,,,,,,AFNE11.jpg,AFNE07.jpg,AFSA01.jpg,AFSA17.jpg,AFNE07.jpg,FN,3,num_6,32,num_2,0.683446474141,,,2017_Oct_26_1513,60.0062935974,FEMA4ImagesEEG,001,202220,
AFNE01.JPG,AFNE01.JPG,AFNE01.JPG,AFNE01.JPG,AFNE01.JPG,AFNE01.JPG,,,,,,,,,,,,,,,,,5,6,56,9,,,,,,,AFSA11.jpg,AFNE19.jpg,AFSA18.jpg,AFNE18.jpg,AFNE19.jpg,FN,3,num_6,32,num_4,0.866773793707,,,2017_Oct_26_1513,60.0062935974,FEMA4ImagesEEG,001,202220,
AFNE01.JPG,AFNE01.JPG,AFNE01.JPG,AFNE01.JPG,AFNE01.JPG,AFNE01.JPG,,,,,,,,,,,,,,,,,5,7,57,2,,,,,,,AFNE15.jpg,AFSA07.jpg,AFNE18.jpg,AFSA03.jpg,AFSA07.jpg,FS,4,num_6,32,num_8,1.48348400067,,,2017_Oct_26_1513,60.0062935974,FEMA4ImagesEEG,001,202220,
AFNE01.JPG,AFNE01.JPG,AFNE01.JPG,AFNE01.JPG,AFNE01.JPG,AFNE01.JPG,,,,,,,,,,,,,,,,,5,8,58,5,,,,,,,AFNE15.jpg,AFNE07.jpg,AFSA01.jpg,AFSA17.jpg,AFSA17.jpg,FS,4,num_4,16,num_4,1.81668294419,,,2017_Oct_26_1513,60.0062935974,FEMA4ImagesEEG,001,202220,
AFNE01.JPG,AFNE01.JPG,AFNE01.JPG,AFNE01.JPG,AFNE01.JPG,AFNE01.JPG,,,,,,,,,,,,,,,,,5,9,59,6,,,,,,,AFSA16.jpg,AFNE19.jpg,AFSA07.jpg,AFNE11.jpg,AFNE11.jpg,FN,3,num_4,32,num_2,0.483490736224,,,2017_Oct_26_1513,60.0062935974,FEMA4ImagesEEG,001,202220,
,,,,,,,,,,,,,,,,,,,,,,,,,,,,,,,,,,,,,,,,,,,space,2.38333886606,2017_Oct_26_1513,60.0062935974,FEMA4ImagesEEG,001,202220,
AFNE01.JPG,AFNE01.JPG,AFNE01.JPG,AFNE01.JPG,AFNE01.JPG,AFNE01.JPG,,,,,,,,,,,,,,,,,,,,,0,0,0,5,,,AMSA15.jpg,AMNE20.jpg,AMSA04.jpg,AMNE14.jpg,AMSA04.jpg,MS,2,num_2,16,num_2,2.61663932365,,,2017_Oct_26_1513,60.0062935974,FEMA4ImagesEEG,001,202220,
AFNE01.JPG,AFNE01.JPG,AFNE01.JPG,AFNE01.JPG,AFNE01.JPG,AFNE01.JPG,,,,,,,,,,,,,,,,,,,,,0,1,1,2,,,AMSA20.jpg,AMNE08.jpg,AMNE04.jpg,AMSA11.jpg,AMSA11.jpg,MS,2,num_4,32,num_8,1.73339459451,,,2017_Oct_26_1513,60.0062935974,FEMA4ImagesEEG,001,202220,
AFNE01.JPG,AFNE01.JPG,AFNE01.JPG,AFNE01.JPG,AFNE01.JPG,AFNE01.JPG,,,,,,,,,,,,,,,,,,,,,0,2,2,0,,,AMNE18.jpg,AMNE20.jpg,AMSA18.jpg,AMSA07.jpg,AMNE18.jpg,MN,1,num_8,16,num_8,0.700193886994,,,2017_Oct_26_1513,60.0062935974,FEMA4ImagesEEG,001,202220,
AFNE01.JPG,AFNE01.JPG,AFNE01.JPG,AFNE01.JPG,AFNE01.JPG,AFNE01.JPG,,,,,,,,,,,,,,,,,,,,,0,3,3,4,,,AMNE04.jpg,AMNE05.jpg,AMSA20.jpg,AMSA07.jpg,AMSA20.jpg,MS,2,num_2,16,num_2,1.20039964141,,,2017_Oct_26_1513,60.0062935974,FEMA4ImagesEEG,001,202220,
AFNE01.JPG,AFNE01.JPG,AFNE01.JPG,AFNE01.JPG,AFNE01.JPG,AFNE01.JPG,,,,,,,,,,,,,,,,,,,,,0,4,4,1,,,AMSA01.jpg,AMNE19.jpg,AMNE09.jpg,AMSA06.jpg,AMNE09.jpg,MN,1,num_2,32,num_6,1.13347477943,,,2017_Oct_26_1513,60.0062935974,FEMA4ImagesEEG,001,202220,
AFNE01.JPG,AFNE01.JPG,AFNE01.JPG,AFNE01.JPG,AFNE01.JPG,AFNE01.JPG,,,,,,,,,,,,,,,,,,,,,0,5,5,6,,,AMSA15.jpg,AMNE17.jpg,AMSA16.jpg,AMNE10.jpg,AMSA16.jpg,MS,2,num_2,32,num_8,0.333458421752,,,2017_Oct_26_1513,60.0062935974,FEMA4ImagesEEG,001,202220,
AFNE01.JPG,AFNE01.JPG,AFNE01.JPG,AFNE01.JPG,AFNE01.JPG,AFNE01.JPG,,,,,,,,,,,,,,,,,,,,,0,6,6,7,,,AMNE12.jpg,AMSA03.jpg,AMNE15.jpg,AMSA04.jpg,AMSA04.jpg,MS,2,num_4,16,num_4,0.63352850324,,,2017_Oct_26_1513,60.0062935974,FEMA4ImagesEEG,001,202220,
AFNE01.JPG,AFNE01.JPG,AFNE01.JPG,AFNE01.JPG,AFNE01.JPG,AFNE01.JPG,,,,,,,,,,,,,,,,,,,,,0,7,7,8,,,AMNE11.jpg,AMSA08.jpg,AMNE15.jpg,AMSA15.jpg,AMNE15.jpg,MN,1,num_2,32,num_8,0.800131182419,,,2017_Oct_26_1513,60.0062935974,FEMA4ImagesEEG,001,202220,
AFNE01.JPG,AFNE01.JPG,AFNE01.JPG,AFNE01.JPG,AFNE01.JPG,AFNE01.JPG,,,,,,,,,,,,,,,,,,,,,0,8,8,9,,,AMNE02.jpg,AMNE20.jpg,AMSA13.jpg,AMSA03.jpg,AMNE20.jpg,MN,1,num_6,16,num_6,0.950176968006,,,2017_Oct_26_1513,60.0062935974,FEMA4ImagesEEG,001,202220,
AFNE01.JPG,AFNE01.JPG,AFNE01.JPG,AFNE01.JPG,AFNE01.JPG,AFNE01.JPG,,,,,,,,,,,,,,,,,,,,,0,9,9,3,,,AMSA11.jpg,AMNE07.jpg,AMSA02.jpg,AMNE19.jpg,AMSA02.jpg,MS,2,num_2,16,num_2,1.06677411438,,,2017_Oct_26_1513,60.0062935974,FEMA4ImagesEEG,001,202220,
AFNE01.JPG,AFNE01.JPG,AFNE01.JPG,AFNE01.JPG,AFNE01.JPG,AFNE01.JPG,,,,,,,,,,,,,,,,,,,,,1,0,10,8,,,AMNE10.jpg,AMSA17.jpg,AMNE03.jpg,AMSA05.jpg,AMSA17.jpg,MS,2,num_6,32,num_4,0.800294118118,,,2017_Oct_26_1513,60.0062935974,FEMA4ImagesEEG,001,202220,
AFNE01.JPG,AFNE01.JPG,AFNE01.JPG,AFNE01.JPG,AFNE01.JPG,AFNE01.JPG,,,,,,,,,,,,,,,,,,,,,1,1,11,2,,,AMNE07.jpg,AMSA19.jpg,AMSA11.jpg,AMNE03.jpg,AMNE07.jpg,MN,1,num_8,16,num_8,1.05013318709,,,2017_Oct_26_1513,60.0062935974,FEMA4ImagesEEG,001,202220,
AFNE01.JPG,AFNE01.JPG,AFNE01.JPG,AFNE01.JPG,AFNE01.JPG,AFNE01.JPG,,,,,,,,,,,,,,,,,,,,,1,2,12,7,,,AMNE10.jpg,AMSA14.jpg,AMSA15.jpg,AMNE14.jpg,AMNE10.jpg,MN,1,num_8,32,num_4,0.683506131754,,,2017_Oct_26_1513,60.0062935974,FEMA4ImagesEEG,001,202220,
AFNE01.JPG,AFNE01.JPG,AFNE01.JPG,AFNE01.JPG,AFNE01.JPG,AFNE01.JPG,,,,,,,,,,,,,,,,,,,,,1,3,13,0,,,AMNE18.jpg,AMNE16.jpg,AMSA02.jpg,AMSA07.jpg,AMSA02.jpg,MS,2,num_2,32,num_8,0.766790632508,,,2017_Oct_26_1513,60.0062935974,FEMA4ImagesEEG,001,202220,
AFNE01.JPG,AFNE01.JPG,AFNE01.JPG,AFNE01.JPG,AFNE01.JPG,AFNE01.JPG,,,,,,,,,,,,,,,,,,,,,1,4,14,3,,,AMSA12.jpg,AMNE05.jpg,AMNE12.jpg,AMSA14.jpg,AMNE12.jpg,MN,1,num_2,32,num_6,0.983415202005,,,2017_Oct_26_1513,60.0062935974,FEMA4ImagesEEG,001,202220,
AFNE01.JPG,AFNE01.JPG,AFNE01.JPG,AFNE01.JPG,AFNE01.JPG,AFNE01.JPG,,,,,,,,,,,,,,,,,,,,,1,5,15,6,,,AMSA09.jpg,AMSA13.jpg,AMNE01.jpg,AMNE02.jpg,AMSA09.jpg,MS,2,num_8,32,num_2,0.883815003908,,,2017_Oct_26_1513,60.0062935974,FEMA4ImagesEEG,001,202220,
AFNE01.JPG,AFNE01.JPG,AFNE01.JPG,AFNE01.JPG,AFNE01.JPG,AFNE01.JPG,,,,,,,,,,,,,,,,,,,,,1,6,16,4,,,AMSA10.jpg,AMSA17.jpg,AMNE03.jpg,AMNE15.jpg,AMNE15.jpg,MN,1,num_4,32,num_8,0.316809796728,,,2017_Oct_26_1513,60.0062935974,FEMA4ImagesEEG,001,202220,
AFNE01.JPG,AFNE01.JPG,AFNE01.JPG,AFNE01.JPG,AFNE01.JPG,AFNE01.JPG,,,,,,,,,,,,,,,,,,,,,1,7,17,5,,,AMSA11.jpg,AMNE09.jpg,AMSA17.jpg,AMNE13.jpg,AMSA17.jpg,MS,2,num_2,48,None,,,,2017_Oct_26_1513,60.0062935974,FEMA4ImagesEEG,001,202220,
AFNE01.JPG,AFNE01.JPG,AFNE01.JPG,AFNE01.JPG,AFNE01.JPG,AFNE01.JPG,,,,,,,,,,,,,,,,,,,,,1,8,18,1,,,AMNE04.jpg,AMNE12.jpg,AMSA20.jpg,AMSA10.jpg,AMNE04.jpg,MN,1,num_8,32,num_4,0.583538366132,,,2017_Oct_26_1513,60.0062935974,FEMA4ImagesEEG,001,202220,
AFNE01.JPG,AFNE01.JPG,AFNE01.JPG,AFNE01.JPG,AFNE01.JPG,AFNE01.JPG,,,,,,,,,,,,,,,,,,,,,1,9,19,9,,,AMNE07.jpg,AMSA15.jpg,AMNE06.jpg,AMSA05.jpg,AMNE07.jpg,MN,1,num_8,16,num_8,0.366803462151,,,2017_Oct_26_1513,60.0062935974,FEMA4ImagesEEG,001,202220,
AFNE01.JPG,AFNE01.JPG,AFNE01.JPG,AFNE01.JPG,AFNE01.JPG,AFNE01.JPG,,,,,,,,,,,,,,,,,,,,,2,0,20,0,,,AMSA12.jpg,AMSA02.jpg,AMNE20.jpg,AMNE12.jpg,AMNE20.jpg,MN,1,num_2,16,num_2,0.316771628684,,,2017_Oct_26_1513,60.0062935974,FEMA4ImagesEEG,001,202220,
AFNE01.JPG,AFNE01.JPG,AFNE01.JPG,AFNE01.JPG,AFNE01.JPG,AFNE01.JPG,,,,,,,,,,,,,,,,,,,,,2,1,21,1,,,AMNE17.jpg,AMNE15.jpg,AMSA07.jpg,AMSA18.jpg,AMSA07.jpg,MS,2,num_2,16,num_2,0.300155719044,,,2017_Oct_26_1513,60.0062935974,FEMA4ImagesEEG,001,202220,
AFNE01.JPG,AFNE01.JPG,AFNE01.JPG,AFNE01.JPG,AFNE01.JPG,AFNE01.JPG,,,,,,,,,,,,,,,,,,,,,2,2,22,7,,,AMNE06.jpg,AMSA06.jpg,AMSA07.jpg,AMNE15.jpg,AMSA07.jpg,MS,2,num_2,32,num_8,0.58348031214,,,2017_Oct_26_1513,60.0062935974,FEMA4ImagesEEG,001,202220,
AFNE01.JPG,AFNE01.JPG,AFNE01.JPG,AFNE01.JPG,AFNE01.JPG,AFNE01.JPG,,,,,,,,,,,,,,,,,,,,,2,3,23,8,,,AMSA08.jpg,AMSA07.jpg,AMNE14.jpg,AMNE19.jpg,AMNE14.jpg,MN,1,num_2,16,num_2,0.799822631059,,,2017_Oct_26_1513,60.0062935974,FEMA4ImagesEEG,001,202220,
AFNE01.JPG,AFNE01.JPG,AFNE01.JPG,AFNE01.JPG,AFNE01.JPG,AFNE01.JPG,,,,,,,,,,,,,,,,,,,,,2,4,24,5,,,AMNE17.jpg,AMNE10.jpg,AMSA16.jpg,AMSA15.jpg,AMSA15.jpg,MS,2,num_4,16,num_4,0.733475741697,,,2017_Oct_26_1513,60.0062935974,FEMA4ImagesEEG,001,202220,
AFNE01.JPG,AFNE01.JPG,AFNE01.JPG,AFNE01.JPG,AFNE01.JPG,AFNE01.JPG,,,,,,,,,,,,,,,,,,,,,2,5,25,3,,,AMNE14.jpg,AMSA17.jpg,AMSA07.jpg,AMNE12.jpg,AMNE12.jpg,MN,1,num_4,32,num_8,0.816823748872,,,2017_Oct_26_1513,60.0062935974,FEMA4ImagesEEG,001,202220,
AFNE01.JPG,AFNE01.JPG,AFNE01.JPG,AFNE01.JPG,AFNE01.JPG,AFNE01.JPG,,,,,,,,,,,,,,,,,,,,,2,6,26,2,,,AMSA14.jpg,AMNE03.jpg,AMSA02.jpg,AMNE14.jpg,AMSA14.jpg,MS,2,num_8,32,num_4,0.816917404765,,,2017_Oct_26_1513,60.0062935974,FEMA4ImagesEEG,001,202220,
AFNE01.JPG,AFNE01.JPG,AFNE01.JPG,AFNE01.JPG,AFNE01.JPG,AFNE01.JPG,,,,,,,,,,,,,,,,,,,,,2,7,27,9,,,AMSA12.jpg,AMSA01.jpg,AMNE13.jpg,AMNE09.jpg,AMNE09.jpg,MN,1,num_4,16,num_4,0.800180897,,,2017_Oct_26_1513,60.0062935974,FEMA4ImagesEEG,001,202220,
AFNE01.JPG,AFNE01.JPG,AFNE01.JPG,AFNE01.JPG,AFNE01.JPG,AFNE01.JPG,,,,,,,,,,,,,,,,,,,,,2,8,28,4,,,AMSA01.jpg,AMSA13.jpg,AMNE13.jpg,AMNE05.jpg,AMSA01.jpg,MS,2,num_8,32,num_6,1.00011995656,,,2017_Oct_26_1513,60.0062935974,FEMA4ImagesEEG,001,202220,
AFNE01.JPG,AFNE01.JPG,AFNE01.JPG,AFNE01.JPG,AFNE01.JPG,AFNE01.JPG,,,,,,,,,,,,,,,,,,,,,2,9,29,6,,,AMNE07.jpg,AMSA10.jpg,AMSA16.jpg,AMNE19.jpg,AMSA16.jpg,MS,2,num_2,32,num_6,0.516753987991,,,2017_Oct_26_1513,60.0062935974,FEMA4ImagesEEG,001,202220,
AFNE01.JPG,AFNE01.JPG,AFNE01.JPG,AFNE01.JPG,AFNE01.JPG,AFNE01.JPG,,,,,,,,,,,,,,,,,,,,,3,0,30,7,,,AMSA13.jpg,AMNE04.jpg,AMSA18.jpg,AMNE03.jpg,AMNE04.jpg,MN,1,num_6,32,num_2,0.366781331017,,,2017_Oct_26_1513,60.0062935974,FEMA4ImagesEEG,001,202220,
AFNE01.JPG,AFNE01.JPG,AFNE01.JPG,AFNE01.JPG,AFNE01.JPG,AFNE01.JPG,,,,,,,,,,,,,,,,,,,,,3,1,31,0,,,AMNE10.jpg,AMNE02.jpg,AMSA13.jpg,AMSA11.jpg,AMSA13.jpg,MS,2,num_2,16,num_2,0.449994948343,,,2017_Oct_26_1513,60.0062935974,FEMA4ImagesEEG,001,202220,
AFNE01.JPG,AFNE01.JPG,AFNE01.JPG,AFNE01.JPG,AFNE01.JPG,AFNE01.JPG,,,,,,,,,,,,,,,,,,,,,3,2,32,5,,,AMNE01.jpg,AMNE11.jpg,AMSA16.jpg,AMSA01.jpg,AMNE01.jpg,MN,1,num_8,32,num_6,0.90009734442,,,2017_Oct_26_1513,60.0062935974,FEMA4ImagesEEG,001,202220,
AFNE01.JPG,AFNE01.JPG,AFNE01.JPG,AFNE01.JPG,AFNE01.JPG,AFNE01.JPG,,,,,,,,,,,,,,,,,,,,,3,3,33,2,,,AMSA08.jpg,AMNE06.jpg,AMSA19.jpg,AMNE14.jpg,AMSA19.jpg,MS,2,num_2,48,None,,,,2017_Oct_26_1513,60.0062935974,FEMA4ImagesEEG,001,202220,
AFNE01.JPG,AFNE01.JPG,AFNE01.JPG,AFNE01.JPG,AFNE01.JPG,AFNE01.JPG,,,,,,,,,,,,,,,,,,,,,3,4,34,8,,,AMSA03.jpg,AMNE07.jpg,AMNE05.jpg,AMSA13.jpg,AMNE05.jpg,MN,1,num_2,32,num_4,1.4001019951,,,2017_Oct_26_1513,60.0062935974,FEMA4ImagesEEG,001,202220,
AFNE01.JPG,AFNE01.JPG,AFNE01.JPG,AFNE01.JPG,AFNE01.JPG,AFNE01.JPG,,,,,,,,,,,,,,,,,,,,,3,5,35,9,,,AMNE19.jpg,AMSA15.jpg,AMNE02.jpg,AMSA17.jpg,AMSA17.jpg,MS,2,num_4,32,num_2,0.666808754206,,,2017_Oct_26_1513,60.0062935974,FEMA4ImagesEEG,001,202220,
AFNE01.JPG,AFNE01.JPG,AFNE01.JPG,AFNE01.JPG,AFNE01.JPG,AFNE01.JPG,,,,,,,,,,,,,,,,,,,,,3,6,36,4,,,AMSA18.jpg,AMNE05.jpg,AMSA03.jpg,AMNE14.jpg,AMSA18.jpg,MS,2,num_8,16,num_8,0.616822145064,,,2017_Oct_26_1513,60.0062935974,FEMA4ImagesEEG,001,202220,
AFNE01.JPG,AFNE01.JPG,AFNE01.JPG,AFNE01.JPG,AFNE01.JPG,AFNE01.JPG,,,,,,,,,,,,,,,,,,,,,3,7,37,1,,,AMNE03.jpg,AMNE13.jpg,AMSA08.jpg,AMSA05.jpg,AMSA08.jpg,MS,2,num_2,16,num_2,0.300369652337,,,2017_Oct_26_1513,60.0062935974,FEMA4ImagesEEG,001,202220,
AFNE01.JPG,AFNE01.JPG,AFNE01.JPG,AFNE01.JPG,AFNE01.JPG,AFNE01.JPG,,,,,,,,,,,,,,,,,,,,,3,8,38,3,,,AMSA16.jpg,AMSA12.jpg,AMNE10.jpg,AMNE14.jpg,AMNE10.jpg,MN,1,num_2,32,num_4,0.516795042669,,,2017_Oct_26_1513,60.0062935974,FEMA4ImagesEEG,001,202220,
AFNE01.JPG,AFNE01.JPG,AFNE01.JPG,AFNE01.JPG,AFNE01.JPG,AFNE01.JPG,,,,,,,,,,,,,,,,,,,,,3,9,39,6,,,AMNE10.jpg,AMNE20.jpg,AMSA06.jpg,AMSA10.jpg,AMNE10.jpg,MN,1,num_8,32,num_4,0.566756634158,,,2017_Oct_26_1513,60.0062935974,FEMA4ImagesEEG,001,202220,
