IPosition2,IPosition3,IPosition1,IPosition6,IPosition4,IPosition5,TrialsF1.thisRepN,TrialsF1.thisTrialN,TrialsF1.thisN,TrialsF1.thisIndex,TrialsM1.thisRepN,TrialsM1.thisTrialN,TrialsM1.thisN,TrialsM1.thisIndex,TrialsF2.thisRepN,TrialsF2.thisTrialN,TrialsF2.thisN,TrialsF2.thisIndex,TrialsM2.thisRepN,TrialsM2.thisTrialN,TrialsM2.thisN,TrialsM2.thisIndex,TrialsF3.thisRepN,TrialsF3.thisTrialN,TrialsF3.thisN,TrialsF3.thisIndex,TrialsM3.thisRepN,TrialsM3.thisTrialN,TrialsM3.thisN,TrialsM3.thisIndex,InstrKey_resp.keys,InstrKey_resp.rt,Image0 _Position,Image1 _Position,Image2 _Position,Image3 _Position,Center_image,condition,code,correct_answer,accuracy,Key_Resp.keys,Key_Resp.rt,BreakKey_resp.keys,BreakKey_resp.rt,date,frameRate,expName,session,participant,
,,,,,,,,,,,,,,,,,,,,,,,,,,,,,,space,21.3655407107,,,,,,,,,,,,,,2017_Nov_07_1207,59.9991340501,FEMA4ImagesEEG,001,202275,
AFSA21.JPG,AFNE23.JPG,AFNE21.JPG,AFSA25.JPG,AFNE25.JPG,AFSA23.JPG,0,0,0,4,,,,,,,,,,,,,,,,,,,,,,,AFNE10.jpg,AFSA08.jpg,AFSA16.jpg,AFNE14.jpg,AFNE10.jpg,FN,3,num_8,16,num_8,1.61669801897,,,2017_Nov_07_1207,59.9991340501,FEMA4ImagesEEG,001,202275,
AFNE22.JPG,AFSA24.JPG,AFSA22.JPG,AFNE25.JPG,AFNE24.JPG,AFSA25.JPG,0,1,1,6,,,,,,,,,,,,,,,,,,,,,,,AFSA13.jpg,AFSA09.jpg,AFNE14.jpg,AFNE05.jpg,AFSA09.jpg,FS,4,num_6,32,num_2,0.866786943981,,,2017_Nov_07_1207,59.9991340501,FEMA4ImagesEEG,001,202275,
AMNE23.JPG,AMNE24.JPG,AMNE22.JPG,AMSA24.JPG,AMSA22.JPG,AMSA23.JPG,0,2,2,9,,,,,,,,,,,,,,,,,,,,,,,AFNE17.jpg,AFSA10.jpg,AFSA12.jpg,AFNE08.jpg,AFNE08.jpg,FN,3,num_4,32,num_6,1.51657020417,,,2017_Nov_07_1207,59.9991340501,FEMA4ImagesEEG,001,202275,
AMSA21.JPG,AMNE22.JPG,AMNE21.JPG,AMSA23.JPG,AMSA22.JPG,AMNE23.JPG,0,3,3,1,,,,,,,,,,,,,,,,,,,,,,,AFSA18.jpg,AFSA03.jpg,AFNE04.jpg,AFNE13.jpg,AFNE13.jpg,FN,3,num_4,32,num_8,1.20012156037,,,2017_Nov_07_1207,59.9991340501,FEMA4ImagesEEG,001,202275,
AFSA25.JPG,AFNE24.JPG,AFSA24.JPG,AFNE21.JPG,AFSA21.JPG,AFNE25.JPG,0,4,4,2,,,,,,,,,,,,,,,,,,,,,,,AFNE15.jpg,AFNE03.jpg,AFSA03.jpg,AFSA05.jpg,AFSA05.jpg,FS,4,num_4,32,num_2,1.46672055102,,,2017_Nov_07_1207,59.9991340501,FEMA4ImagesEEG,001,202275,
AFSA21.JPG,AFNE22.JPG,AFNE21.JPG,AFSA23.JPG,AFSA22.JPG,AFNE23.JPG,0,5,5,0,,,,,,,,,,,,,,,,,,,,,,,AFNE19.jpg,AFNE18.jpg,AFSA17.jpg,AFSA03.jpg,AFSA17.jpg,FS,4,num_2,16,num_2,2.9166311447,,,2017_Nov_07_1207,59.9991340501,FEMA4ImagesEEG,001,202275,
AFNE23.JPG,AFNE24.JPG,AFNE22.JPG,AFSA24.JPG,AFSA22.JPG,AFSA23.JPG,0,6,6,8,,,,,,,,,,,,,,,,,,,,,,,AFNE07.jpg,AFNE13.jpg,AFSA13.jpg,AFSA08.jpg,AFNE07.jpg,FN,3,num_8,32,num_6,0.933603075333,,,2017_Nov_07_1207,59.9991340501,FEMA4ImagesEEG,001,202275,
AMSA25.JPG,AMNE24.JPG,AMSA24.JPG,AMNE26.JPG,AMSA21.JPG,AMNE25.JPG,0,7,7,3,,,,,,,,,,,,,,,,,,,,,,,AFNE14.jpg,AFSA12.jpg,AFNE10.jpg,AFSA20.jpg,AFNE14.jpg,FN,3,num_8,16,num_8,1.06701017846,,,2017_Nov_07_1207,59.9991340501,FEMA4ImagesEEG,001,202275,
AMSA21.JPG,AMNE23.JPG,AMNE21.JPG,AMSA25.JPG,AMNE25.JPG,AMSA23.JPG,0,8,8,5,,,,,,,,,,,,,,,,,,,,,,,AFNE12.jpg,AFSA05.jpg,AFNE09.jpg,AFSA14.jpg,AFSA05.jpg,FS,4,num_6,32,num_2,0.900080986787,,,2017_Nov_07_1207,59.9991340501,FEMA4ImagesEEG,001,202275,
AMNE22.JPG,AMSA24.JPG,AMSA22.JPG,AMNE25.JPG,AMNE24.JPG,AMSA25.JPG,0,9,9,7,,,,,,,,,,,,,,,,,,,,,,,AFNE01.jpg,AFSA11.jpg,AFNE18.jpg,AFSA18.jpg,AFNE01.jpg,FN,3,num_8,32,num_6,1.25008315174,,,2017_Nov_07_1207,59.9991340501,FEMA4ImagesEEG,001,202275,
AMSA21.JPG,AMNE23.JPG,AMNE21.JPG,AMSA25.JPG,AMNE25.JPG,AMSA23.JPG,,,,,0,0,0,5,,,,,,,,,,,,,,,,,,,AMSA01.jpg,AMNE04.jpg,AMNE16.jpg,AMSA14.jpg,AMSA01.jpg,MS,2,num_8,16,num_8,1.00009205239,,,2017_Nov_07_1207,59.9991340501,FEMA4ImagesEEG,001,202275,
AMSA21.JPG,AMNE22.JPG,AMNE21.JPG,AMSA23.JPG,AMSA22.JPG,AMNE23.JPG,,,,,0,1,1,1,,,,,,,,,,,,,,,,,,,AMNE14.jpg,AMSA15.jpg,AMNE20.jpg,AMSA01.jpg,AMNE14.jpg,MN,1,num_8,32,num_6,1.25008379319,,,2017_Nov_07_1207,59.9991340501,FEMA4ImagesEEG,001,202275,
AFSA21.JPG,AFNE23.JPG,AFNE21.JPG,AFSA25.JPG,AFNE25.JPG,AFSA23.JPG,,,,,0,2,2,4,,,,,,,,,,,,,,,,,,,AMNE03.jpg,AMNE10.jpg,AMSA17.jpg,AMSA14.jpg,AMNE03.jpg,MN,1,num_8,16,num_8,1.41678814683,,,2017_Nov_07_1207,59.9991340501,FEMA4ImagesEEG,001,202275,
AFSA25.JPG,AFNE24.JPG,AFSA24.JPG,AFNE21.JPG,AFSA21.JPG,AFNE25.JPG,,,,,0,3,3,2,,,,,,,,,,,,,,,,,,,AMSA09.jpg,AMNE20.jpg,AMNE07.jpg,AMSA15.jpg,AMNE07.jpg,MN,1,num_2,32,num_8,1.15011731046,,,2017_Nov_07_1207,59.9991340501,FEMA4ImagesEEG,001,202275,
AMSA25.JPG,AMNE24.JPG,AMSA24.JPG,AMNE26.JPG,AMSA21.JPG,AMNE25.JPG,,,,,0,4,4,3,,,,,,,,,,,,,,,,,,,AMSA20.jpg,AMSA04.jpg,AMNE03.jpg,AMNE11.jpg,AMSA04.jpg,MS,2,num_6,32,num_8,0.966618716251,,,2017_Nov_07_1207,59.9991340501,FEMA4ImagesEEG,001,202275,
AFNE23.JPG,AFNE24.JPG,AFNE22.JPG,AFSA24.JPG,AFSA22.JPG,AFSA23.JPG,,,,,0,5,5,8,,,,,,,,,,,,,,,,,,,AMNE19.jpg,AMNE13.jpg,AMSA19.jpg,AMSA03.jpg,AMNE19.jpg,MN,1,num_8,32,num_2,1.35008491576,,,2017_Nov_07_1207,59.9991340501,FEMA4ImagesEEG,001,202275,
AMNE22.JPG,AMSA24.JPG,AMSA22.JPG,AMNE25.JPG,AMNE24.JPG,AMSA25.JPG,,,,,0,6,6,7,,,,,,,,,,,,,,,,,,,AMSA13.jpg,AMNE03.jpg,AMSA17.jpg,AMNE15.jpg,AMNE03.jpg,MN,1,num_6,32,num_2,1.88337783585,,,2017_Nov_07_1207,59.9991340501,FEMA4ImagesEEG,001,202275,
AMNE23.JPG,AMNE24.JPG,AMNE22.JPG,AMSA24.JPG,AMSA22.JPG,AMSA23.JPG,,,,,0,7,7,9,,,,,,,,,,,,,,,,,,,AMNE05.jpg,AMNE20.jpg,AMSA18.jpg,AMSA17.jpg,AMNE05.jpg,MN,1,num_8,32,num_4,1.10009991028,,,2017_Nov_07_1207,59.9991340501,FEMA4ImagesEEG,001,202275,
AFNE22.JPG,AFSA24.JPG,AFSA22.JPG,AFNE25.JPG,AFNE24.JPG,AFSA25.JPG,,,,,0,8,8,6,,,,,,,,,,,,,,,,,,,AMSA16.jpg,AMNE06.jpg,AMNE15.jpg,AMSA09.jpg,AMSA09.jpg,MS,2,num_4,16,num_4,0.966747332597,,,2017_Nov_07_1207,59.9991340501,FEMA4ImagesEEG,001,202275,
AFSA21.JPG,AFNE22.JPG,AFNE21.JPG,AFSA23.JPG,AFSA22.JPG,AFNE23.JPG,,,,,0,9,9,0,,,,,,,,,,,,,,,,,,,AMSA06.jpg,AMNE02.jpg,AMNE10.jpg,AMSA14.jpg,AMNE02.jpg,MN,1,num_6,16,num_6,1.03344158293,,,2017_Nov_07_1207,59.9991340501,FEMA4ImagesEEG,001,202275,
AFSA25.JPG,AFNE24.JPG,AFSA24.JPG,AFNE21.JPG,AFSA21.JPG,AFNE25.JPG,,,,,,,,,0,0,0,2,,,,,,,,,,,,,,,AFNE08.jpg,AFSA15.jpg,AFSA09.jpg,AFNE16.jpg,AFNE16.jpg,FN,3,num_4,16,num_4,0.633473977447,,,2017_Nov_07_1207,59.9991340501,FEMA4ImagesEEG,001,202275,
AMSA21.JPG,AMNE23.JPG,AMNE21.JPG,AMSA25.JPG,AMNE25.JPG,AMSA23.JPG,,,,,,,,,0,1,1,5,,,,,,,,,,,,,,,AFNE16.jpg,AFSA05.jpg,AFSA14.jpg,AFNE06.jpg,AFSA05.jpg,FS,4,num_6,16,num_6,0.516766817542,,,2017_Nov_07_1207,59.9991340501,FEMA4ImagesEEG,001,202275,
AFNE22.JPG,AFSA24.JPG,AFSA22.JPG,AFNE25.JPG,AFNE24.JPG,AFSA25.JPG,,,,,,,,,0,2,2,6,,,,,,,,,,,,,,,AFSA06.jpg,AFSA19.jpg,AFNE10.jpg,AFNE17.jpg,AFNE10.jpg,FN,3,num_2,16,num_2,1.80022804579,,,2017_Nov_07_1207,59.9991340501,FEMA4ImagesEEG,001,202275,
AMSA21.JPG,AMNE22.JPG,AMNE21.JPG,AMSA23.JPG,AMSA22.JPG,AMNE23.JPG,,,,,,,,,0,3,3,1,,,,,,,,,,,,,,,AFSA15.jpg,AFSA12.jpg,AFNE20.jpg,AFNE19.jpg,AFSA12.jpg,FS,4,num_6,16,num_6,1.11671165028,,,2017_Nov_07_1207,59.9991340501,FEMA4ImagesEEG,001,202275,
AFSA21.JPG,AFNE22.JPG,AFNE21.JPG,AFSA23.JPG,AFSA22.JPG,AFNE23.JPG,,,,,,,,,0,4,4,0,,,,,,,,,,,,,,,AFNE04.jpg,AFSA12.jpg,AFSA06.jpg,AFNE10.jpg,AFNE10.jpg,FN,3,num_4,32,num_8,0.916748535354,,,2017_Nov_07_1207,59.9991340501,FEMA4ImagesEEG,001,202275,
AMNE23.JPG,AMNE24.JPG,AMNE22.JPG,AMSA24.JPG,AMSA22.JPG,AMSA23.JPG,,,,,,,,,0,5,5,9,,,,,,,,,,,,,,,AFSA07.jpg,AFNE19.jpg,AFNE10.jpg,AFSA12.jpg,AFNE19.jpg,FN,3,num_6,32,num_2,1.06675551157,,,2017_Nov_07_1207,59.9991340501,FEMA4ImagesEEG,001,202275,
AFSA21.JPG,AFNE23.JPG,AFNE21.JPG,AFSA25.JPG,AFNE25.JPG,AFSA23.JPG,,,,,,,,,0,6,6,4,,,,,,,,,,,,,,,AFNE18.jpg,AFNE04.jpg,AFSA05.jpg,AFSA18.jpg,AFNE04.jpg,FN,3,num_6,32,num_8,0.883437493583,,,2017_Nov_07_1207,59.9991340501,FEMA4ImagesEEG,001,202275,
AMSA25.JPG,AMNE24.JPG,AMSA24.JPG,AMNE26.JPG,AMSA21.JPG,AMNE25.JPG,,,,,,,,,0,7,7,3,,,,,,,,,,,,,,,AFSA07.jpg,AFNE10.jpg,AFNE09.jpg,AFSA03.jpg,AFNE09.jpg,FN,3,num_2,16,num_2,1.23338994384,,,2017_Nov_07_1207,59.9991340501,FEMA4ImagesEEG,001,202275,
AMNE22.JPG,AMSA24.JPG,AMSA22.JPG,AMNE25.JPG,AMNE24.JPG,AMSA25.JPG,,,,,,,,,0,8,8,7,,,,,,,,,,,,,,,AFNE19.jpg,AFNE11.jpg,AFSA13.jpg,AFSA12.jpg,AFSA13.jpg,FS,4,num_2,16,num_2,1.53368935431,,,2017_Nov_07_1207,59.9991340501,FEMA4ImagesEEG,001,202275,
AFNE23.JPG,AFNE24.JPG,AFNE22.JPG,AFSA24.JPG,AFSA22.JPG,AFSA23.JPG,,,,,,,,,0,9,9,8,,,,,,,,,,,,,,,AFNE11.jpg,AFSA15.jpg,AFSA18.jpg,AFNE04.jpg,AFNE04.jpg,FN,3,num_4,16,num_4,0.850089566549,,,2017_Nov_07_1207,59.9991340501,FEMA4ImagesEEG,001,202275,
AFSA21.JPG,AFNE23.JPG,AFNE21.JPG,AFSA25.JPG,AFNE25.JPG,AFSA23.JPG,,,,,,,,,,,,,0,0,0,4,,,,,,,,,,,AMNE19.jpg,AMSA03.jpg,AMSA12.jpg,AMNE09.jpg,AMNE09.jpg,MN,1,num_4,16,num_4,0.733323390363,,,2017_Nov_07_1207,59.9991340501,FEMA4ImagesEEG,001,202275,
AFSA21.JPG,AFNE22.JPG,AFNE21.JPG,AFSA23.JPG,AFSA22.JPG,AFNE23.JPG,,,,,,,,,,,,,0,1,1,0,,,,,,,,,,,AMSA13.jpg,AMNE11.jpg,AMSA09.jpg,AMNE02.jpg,AMNE11.jpg,MN,1,num_6,32,num_8,0.866850450402,,,2017_Nov_07_1207,59.9991340501,FEMA4ImagesEEG,001,202275,
AMSA21.JPG,AMNE23.JPG,AMNE21.JPG,AMSA25.JPG,AMNE25.JPG,AMSA23.JPG,,,,,,,,,,,,,0,2,2,5,,,,,,,,,,,AMSA20.jpg,AMSA19.jpg,AMNE06.jpg,AMNE14.jpg,AMSA20.jpg,MS,2,num_8,32,num_6,1.11671421607,,,2017_Nov_07_1207,59.9991340501,FEMA4ImagesEEG,001,202275,
AFNE23.JPG,AFNE24.JPG,AFNE22.JPG,AFSA24.JPG,AFSA22.JPG,AFSA23.JPG,,,,,,,,,,,,,0,3,3,8,,,,,,,,,,,AMNE17.jpg,AMSA01.jpg,AMSA07.jpg,AMNE16.jpg,AMSA07.jpg,MS,2,num_2,32,num_6,0.716770345578,,,2017_Nov_07_1207,59.9991340501,FEMA4ImagesEEG,001,202275,
AMNE23.JPG,AMNE24.JPG,AMNE22.JPG,AMSA24.JPG,AMSA22.JPG,AMSA23.JPG,,,,,,,,,,,,,0,4,4,9,,,,,,,,,,,AMSA09.jpg,AMSA10.jpg,AMNE04.jpg,AMNE05.jpg,AMSA09.jpg,MS,2,num_8,16,num_8,1.46688124142,,,2017_Nov_07_1207,59.9991340501,FEMA4ImagesEEG,001,202275,
AMSA25.JPG,AMNE24.JPG,AMSA24.JPG,AMNE26.JPG,AMSA21.JPG,AMNE25.JPG,,,,,,,,,,,,,0,5,5,3,,,,,,,,,,,AMSA13.jpg,AMSA03.jpg,AMNE07.jpg,AMNE14.jpg,AMSA03.jpg,MS,2,num_6,16,num_6,1.43338801945,,,2017_Nov_07_1207,59.9991340501,FEMA4ImagesEEG,001,202275,
AMSA21.JPG,AMNE22.JPG,AMNE21.JPG,AMSA23.JPG,AMSA22.JPG,AMNE23.JPG,,,,,,,,,,,,,0,6,6,1,,,,,,,,,,,AMSA20.jpg,AMNE20.jpg,AMSA03.jpg,AMNE10.jpg,AMSA03.jpg,MS,2,num_2,32,num_8,1.16674540821,,,2017_Nov_07_1207,59.9991340501,FEMA4ImagesEEG,001,202275,
AFNE22.JPG,AFSA24.JPG,AFSA22.JPG,AFNE25.JPG,AFNE24.JPG,AFSA25.JPG,,,,,,,,,,,,,0,7,7,6,,,,,,,,,,,AMNE07.jpg,AMSA12.jpg,AMNE08.jpg,AMSA03.jpg,AMSA03.jpg,MS,2,num_4,32,num_2,0.96676721843,,,2017_Nov_07_1207,59.9991340501,FEMA4ImagesEEG,001,202275,
AMNE22.JPG,AMSA24.JPG,AMSA22.JPG,AMNE25.JPG,AMNE24.JPG,AMSA25.JPG,,,,,,,,,,,,,0,8,8,7,,,,,,,,,,,AMNE10.jpg,AMNE11.jpg,AMSA09.jpg,AMSA03.jpg,AMNE11.jpg,MN,1,num_6,16,num_6,0.950108971214,,,2017_Nov_07_1207,59.9991340501,FEMA4ImagesEEG,001,202275,
AFSA25.JPG,AFNE24.JPG,AFSA24.JPG,AFNE21.JPG,AFSA21.JPG,AFNE25.JPG,,,,,,,,,,,,,0,9,9,2,,,,,,,,,,,AMNE18.jpg,AMSA04.jpg,AMSA16.jpg,AMNE05.jpg,AMSA04.jpg,MS,2,num_6,32,num_8,0.800110655138,,,2017_Nov_07_1207,59.9991340501,FEMA4ImagesEEG,001,202275,
AFNE22.JPG,AFSA24.JPG,AFSA22.JPG,AFNE25.JPG,AFNE24.JPG,AFSA25.JPG,,,,,,,,,,,,,,,,,0,0,0,6,,,,,,,AFNE01.jpg,AFSA05.jpg,AFNE20.jpg,AFSA15.jpg,AFSA15.jpg,FS,4,num_4,16,num_4,0.733460666845,,,2017_Nov_07_1207,59.9991340501,FEMA4ImagesEEG,001,202275,
AMSA21.JPG,AMNE23.JPG,AMNE21.JPG,AMSA25.JPG,AMNE25.JPG,AMSA23.JPG,,,,,,,,,,,,,,,,,0,1,1,5,,,,,,,AFNE05.jpg,AFSA04.jpg,AFSA19.jpg,AFNE18.jpg,AFSA19.jpg,FS,4,num_2,16,num_2,0.699872826692,,,2017_Nov_07_1207,59.9991340501,FEMA4ImagesEEG,001,202275,
AFNE23.JPG,AFNE24.JPG,AFNE22.JPG,AFSA24.JPG,AFSA22.JPG,AFSA23.JPG,,,,,,,,,,,,,,,,,0,2,2,8,,,,,,,AFSA17.jpg,AFNE09.jpg,AFSA16.jpg,AFNE02.jpg,AFNE09.jpg,FN,3,num_6,16,num_6,0.950098707573,,,2017_Nov_07_1207,59.9991340501,FEMA4ImagesEEG,001,202275,
AMSA21.JPG,AMNE22.JPG,AMNE21.JPG,AMSA23.JPG,AMSA22.JPG,AMNE23.JPG,,,,,,,,,,,,,,,,,0,3,3,1,,,,,,,AFNE17.jpg,AFNE16.jpg,AFSA07.jpg,AFSA06.jpg,AFNE17.jpg,FN,3,num_8,16,num_8,0.866738512414,,,2017_Nov_07_1207,59.9991340501,FEMA4ImagesEEG,001,202275,
AMNE22.JPG,AMSA24.JPG,AMSA22.JPG,AMNE25.JPG,AMNE24.JPG,AMSA25.JPG,,,,,,,,,,,,,,,,,0,4,4,7,,,,,,,AFNE06.jpg,AFSA18.jpg,AFNE08.jpg,AFSA20.jpg,AFSA18.jpg,FS,4,num_6,32,num_2,1.16673738975,,,2017_Nov_07_1207,59.9991340501,FEMA4ImagesEEG,001,202275,
AMSA25.JPG,AMNE24.JPG,AMSA24.JPG,AMNE26.JPG,AMSA21.JPG,AMNE25.JPG,,,,,,,,,,,,,,,,,0,5,5,3,,,,,,,AFNE12.jpg,AFNE02.jpg,AFSA07.jpg,AFSA19.jpg,AFNE02.jpg,FN,3,num_6,32,num_8,1.85008539702,,,2017_Nov_07_1207,59.9991340501,FEMA4ImagesEEG,001,202275,
AFSA25.JPG,AFNE24.JPG,AFSA24.JPG,AFNE21.JPG,AFSA21.JPG,AFNE25.JPG,,,,,,,,,,,,,,,,,0,6,6,2,,,,,,,AFSA12.jpg,AFNE16.jpg,AFSA16.jpg,AFNE04.jpg,AFNE16.jpg,FN,3,num_6,16,num_6,1.00008435454,,,2017_Nov_07_1207,59.9991340501,FEMA4ImagesEEG,001,202275,
AFSA21.JPG,AFNE22.JPG,AFNE21.JPG,AFSA23.JPG,AFSA22.JPG,AFNE23.JPG,,,,,,,,,,,,,,,,,0,7,7,0,,,,,,,AFSA09.jpg,AFNE17.jpg,AFNE03.jpg,AFSA15.jpg,AFNE17.jpg,FN,3,num_6,32,num_8,1.21672848915,,,2017_Nov_07_1207,59.9991340501,FEMA4ImagesEEG,001,202275,
AMNE23.JPG,AMNE24.JPG,AMNE22.JPG,AMSA24.JPG,AMSA22.JPG,AMSA23.JPG,,,,,,,,,,,,,,,,,0,8,8,9,,,,,,,AFSA06.jpg,AFNE11.jpg,AFNE17.jpg,AFSA04.jpg,AFSA04.jpg,FS,4,num_4,32,num_8,0.633471411653,,,2017_Nov_07_1207,59.9991340501,FEMA4ImagesEEG,001,202275,
AFSA21.JPG,AFNE23.JPG,AFNE21.JPG,AFSA25.JPG,AFNE25.JPG,AFSA23.JPG,,,,,,,,,,,,,,,,,0,9,9,4,,,,,,,AFSA11.jpg,AFNE16.jpg,AFSA10.jpg,AFNE04.jpg,AFNE04.jpg,FN,3,num_4,16,num_4,1.60008146777,,,2017_Nov_07_1207,59.9991340501,FEMA4ImagesEEG,001,202275,
AFNE23.JPG,AFNE24.JPG,AFNE22.JPG,AFSA24.JPG,AFSA22.JPG,AFSA23.JPG,,,,,,,,,,,,,,,,,,,,,0,0,0,8,,,AMSA15.jpg,AMNE06.jpg,AMSA01.jpg,AMNE16.jpg,AMNE06.jpg,MN,1,num_6,32,num_2,0.88351831981,,,2017_Nov_07_1207,59.9991340501,FEMA4ImagesEEG,001,202275,
AFSA21.JPG,AFNE23.JPG,AFNE21.JPG,AFSA25.JPG,AFNE25.JPG,AFSA23.JPG,,,,,,,,,,,,,,,,,,,,,0,1,1,4,,,AMNE18.jpg,AMNE06.jpg,AMSA07.jpg,AMSA13.jpg,AMNE06.jpg,MN,1,num_6,32,num_2,2.25001226831,,,2017_Nov_07_1207,59.9991340501,FEMA4ImagesEEG,001,202275,
AMSA21.JPG,AMNE22.JPG,AMNE21.JPG,AMSA23.JPG,AMSA22.JPG,AMNE23.JPG,,,,,,,,,,,,,,,,,,,,,0,2,2,1,,,AMNE18.jpg,AMSA14.jpg,AMNE17.jpg,AMSA05.jpg,AMNE17.jpg,MN,1,num_2,32,num_8,1.00012091873,,,2017_Nov_07_1207,59.9991340501,FEMA4ImagesEEG,001,202275,
AMNE22.JPG,AMSA24.JPG,AMSA22.JPG,AMNE25.JPG,AMNE24.JPG,AMSA25.JPG,,,,,,,,,,,,,,,,,,,,,0,3,3,7,,,AMNE18.jpg,AMSA07.jpg,AMSA08.jpg,AMNE02.jpg,AMNE02.jpg,MN,1,num_4,16,num_4,0.833438054891,,,2017_Nov_07_1207,59.9991340501,FEMA4ImagesEEG,001,202275,
AMNE23.JPG,AMNE24.JPG,AMNE22.JPG,AMSA24.JPG,AMSA22.JPG,AMSA23.JPG,,,,,,,,,,,,,,,,,,,,,0,4,4,9,,,AMNE03.jpg,AMSA09.jpg,AMNE14.jpg,AMSA13.jpg,AMSA13.jpg,MS,2,num_4,16,num_4,0.666793679353,,,2017_Nov_07_1207,59.9991340501,FEMA4ImagesEEG,001,202275,
AMSA25.JPG,AMNE24.JPG,AMSA24.JPG,AMNE26.JPG,AMSA21.JPG,AMNE25.JPG,,,,,,,,,,,,,,,,,,,,,0,5,5,3,,,AMSA01.jpg,AMSA09.jpg,AMNE04.jpg,AMNE14.jpg,AMNE14.jpg,MN,1,num_4,32,num_6,0.966747011989,,,2017_Nov_07_1207,59.9991340501,FEMA4ImagesEEG,001,202275,
AMSA21.JPG,AMNE23.JPG,AMNE21.JPG,AMSA25.JPG,AMNE25.JPG,AMSA23.JPG,,,,,,,,,,,,,,,,,,,,,0,6,6,5,,,AMNE18.jpg,AMSA18.jpg,AMNE04.jpg,AMSA01.jpg,AMNE18.jpg,MN,1,num_8,16,num_8,1.03342490457,,,2017_Nov_07_1207,59.9991340501,FEMA4ImagesEEG,001,202275,
AFSA21.JPG,AFNE22.JPG,AFNE21.JPG,AFSA23.JPG,AFSA22.JPG,AFNE23.JPG,,,,,,,,,,,,,,,,,,,,,0,7,7,0,,,AMSA14.jpg,AMSA04.jpg,AMNE17.jpg,AMNE02.jpg,AMNE17.jpg,MN,1,num_2,32,num_6,0.800254025729,,,2017_Nov_07_1207,59.9991340501,FEMA4ImagesEEG,001,202275,
AFNE22.JPG,AFSA24.JPG,AFSA22.JPG,AFNE25.JPG,AFNE24.JPG,AFSA25.JPG,,,,,,,,,,,,,,,,,,,,,0,8,8,6,,,AMSA19.jpg,AMSA09.jpg,AMNE12.jpg,AMNE15.jpg,AMNE15.jpg,MN,1,num_4,32,num_2,1.26641264092,,,2017_Nov_07_1207,59.9991340501,FEMA4ImagesEEG,001,202275,
AFSA25.JPG,AFNE24.JPG,AFSA24.JPG,AFNE21.JPG,AFSA21.JPG,AFNE25.JPG,,,,,,,,,,,,,,,,,,,,,0,9,9,2,,,AMSA01.jpg,AMNE04.jpg,AMNE13.jpg,AMSA17.jpg,AMSA01.jpg,MS,2,num_8,16,num_8,0.966769784456,,,2017_Nov_07_1207,59.9991340501,FEMA4ImagesEEG,001,202275,
,,,,,,,,,,,,,,,,,,,,,,,,,,,,,,,,,,,,,,,,,,,space,5.54971574456,2017_Nov_07_1207,59.9991340501,FEMA4ImagesEEG,001,202275,
AFNE01.JPG,AFNE01.JPG,AFNE01.JPG,AFNE01.JPG,AFNE01.JPG,AFNE01.JPG,0,0,0,5,,,,,,,,,,,,,,,,,,,,,,,AFSA04.jpg,AFNE05.jpg,AFSA03.jpg,AFNE10.jpg,AFSA04.jpg,FS,4,num_8,16,num_8,1.38376095914,,,2017_Nov_07_1207,59.9991340501,FEMA4ImagesEEG,001,202275,
AFNE01.JPG,AFNE01.JPG,AFNE01.JPG,AFNE01.JPG,AFNE01.JPG,AFNE01.JPG,0,1,1,1,,,,,,,,,,,,,,,,,,,,,,,AFNE06.jpg,AFSA10.jpg,AFNE13.jpg,AFSA20.jpg,AFSA20.jpg,FS,4,num_4,32,num_6,1.71662152256,,,2017_Nov_07_1207,59.9991340501,FEMA4ImagesEEG,001,202275,
AFNE01.JPG,AFNE01.JPG,AFNE01.JPG,AFNE01.JPG,AFNE01.JPG,AFNE01.JPG,0,2,2,2,,,,,,,,,,,,,,,,,,,,,,,AFNE14.jpg,AFSA14.jpg,AFSA15.jpg,AFNE01.jpg,AFNE14.jpg,FN,3,num_8,16,num_8,1.61676729866,,,2017_Nov_07_1207,59.9991340501,FEMA4ImagesEEG,001,202275,
AFNE01.JPG,AFNE01.JPG,AFNE01.JPG,AFNE01.JPG,AFNE01.JPG,AFNE01.JPG,0,3,3,0,,,,,,,,,,,,,,,,,,,,,,,AFSA07.jpg,AFSA05.jpg,AFNE05.jpg,AFNE09.jpg,AFSA05.jpg,FS,4,num_6,16,num_6,0.550105122384,,,2017_Nov_07_1207,59.9991340501,FEMA4ImagesEEG,001,202275,
AFNE01.JPG,AFNE01.JPG,AFNE01.JPG,AFNE01.JPG,AFNE01.JPG,AFNE01.JPG,0,4,4,9,,,,,,,,,,,,,,,,,,,,,,,AFNE18.jpg,AFNE17.jpg,AFSA11.jpg,AFSA09.jpg,AFSA11.jpg,FS,4,num_2,16,num_2,0.500148662832,,,2017_Nov_07_1207,59.9991340501,FEMA4ImagesEEG,001,202275,
AFNE01.JPG,AFNE01.JPG,AFNE01.JPG,AFNE01.JPG,AFNE01.JPG,AFNE01.JPG,0,5,5,4,,,,,,,,,,,,,,,,,,,,,,,AFNE03.jpg,AFSA03.jpg,AFSA08.jpg,AFNE07.jpg,AFNE07.jpg,FN,3,num_4,16,num_4,0.700129739242,,,2017_Nov_07_1207,59.9991340501,FEMA4ImagesEEG,001,202275,
AFNE01.JPG,AFNE01.JPG,AFNE01.JPG,AFNE01.JPG,AFNE01.JPG,AFNE01.JPG,0,6,6,3,,,,,,,,,,,,,,,,,,,,,,,AFSA05.jpg,AFNE06.jpg,AFSA12.jpg,AFNE13.jpg,AFSA12.jpg,FS,4,num_2,16,num_2,0.950117951958,,,2017_Nov_07_1207,59.9991340501,FEMA4ImagesEEG,001,202275,
AFNE01.JPG,AFNE01.JPG,AFNE01.JPG,AFNE01.JPG,AFNE01.JPG,AFNE01.JPG,0,7,7,7,,,,,,,,,,,,,,,,,,,,,,,AFSA14.jpg,AFNE04.jpg,AFSA05.jpg,AFNE08.jpg,AFNE04.jpg,FN,3,num_6,16,num_6,1.2668456391,,,2017_Nov_07_1207,59.9991340501,FEMA4ImagesEEG,001,202275,
AFNE01.JPG,AFNE01.JPG,AFNE01.JPG,AFNE01.JPG,AFNE01.JPG,AFNE01.JPG,0,8,8,8,,,,,,,,,,,,,,,,,,,,,,,AFSA19.jpg,AFNE13.jpg,AFNE09.jpg,AFSA13.jpg,AFSA13.jpg,FS,4,num_4,32,num_2,1.38342867326,,,2017_Nov_07_1207,59.9991340501,FEMA4ImagesEEG,001,202275,
AFNE01.JPG,AFNE01.JPG,AFNE01.JPG,AFNE01.JPG,AFNE01.JPG,AFNE01.JPG,0,9,9,6,,,,,,,,,,,,,,,,,,,,,,,AFSA19.jpg,AFNE06.jpg,AFSA12.jpg,AFNE13.jpg,AFSA19.jpg,FS,4,num_8,32,num_6,1.38341007032,,,2017_Nov_07_1207,59.9991340501,FEMA4ImagesEEG,001,202275,
AFNE01.JPG,AFNE01.JPG,AFNE01.JPG,AFNE01.JPG,AFNE01.JPG,AFNE01.JPG,1,0,10,6,,,,,,,,,,,,,,,,,,,,,,,AFSA19.jpg,AFNE20.jpg,AFSA07.jpg,AFNE09.jpg,AFNE20.jpg,FN,3,num_6,32,num_8,1.11708627408,,,2017_Nov_07_1207,59.9991340501,FEMA4ImagesEEG,001,202275,
AFNE01.JPG,AFNE01.JPG,AFNE01.JPG,AFNE01.JPG,AFNE01.JPG,AFNE01.JPG,1,1,11,7,,,,,,,,,,,,,,,,,,,,,,,AFNE07.jpg,AFSA02.jpg,AFNE18.jpg,AFSA08.jpg,AFSA08.jpg,FS,4,num_4,16,num_4,0.950261001708,,,2017_Nov_07_1207,59.9991340501,FEMA4ImagesEEG,001,202275,
AFNE01.JPG,AFNE01.JPG,AFNE01.JPG,AFNE01.JPG,AFNE01.JPG,AFNE01.JPG,1,2,12,2,,,,,,,,,,,,,,,,,,,,,,,AFSA04.jpg,AFNE19.jpg,AFSA02.jpg,AFNE10.jpg,AFSA02.jpg,FS,4,num_2,32,num_8,2.46665030881,,,2017_Nov_07_1207,59.9991340501,FEMA4ImagesEEG,001,202275,
AFNE01.JPG,AFNE01.JPG,AFNE01.JPG,AFNE01.JPG,AFNE01.JPG,AFNE01.JPG,1,3,13,4,,,,,,,,,,,,,,,,,,,,,,,AFSA07.jpg,AFNE01.jpg,AFSA19.jpg,AFNE08.jpg,AFNE01.jpg,FN,3,num_6,32,num_4,0.783519763267,,,2017_Nov_07_1207,59.9991340501,FEMA4ImagesEEG,001,202275,
AFNE01.JPG,AFNE01.JPG,AFNE01.JPG,AFNE01.JPG,AFNE01.JPG,AFNE01.JPG,1,4,14,5,,,,,,,,,,,,,,,,,,,,,,,AFNE01.jpg,AFNE03.jpg,AFSA12.jpg,AFSA05.jpg,AFNE03.jpg,FN,3,num_6,32,num_8,2.23333285213,,,2017_Nov_07_1207,59.9991340501,FEMA4ImagesEEG,001,202275,
AFNE01.JPG,AFNE01.JPG,AFNE01.JPG,AFNE01.JPG,AFNE01.JPG,AFNE01.JPG,1,5,15,1,,,,,,,,,,,,,,,,,,,,,,,AFNE20.jpg,AFSA13.jpg,AFNE11.jpg,AFSA01.jpg,AFNE11.jpg,FN,3,num_2,32,num_4,3.03324978077,,,2017_Nov_07_1207,59.9991340501,FEMA4ImagesEEG,001,202275,
AFNE01.JPG,AFNE01.JPG,AFNE01.JPG,AFNE01.JPG,AFNE01.JPG,AFNE01.JPG,1,6,16,9,,,,,,,,,,,,,,,,,,,,,,,AFSA12.jpg,AFNE08.jpg,AFNE07.jpg,AFSA17.jpg,AFSA12.jpg,FS,4,num_8,32,num_6,0.883411513641,,,2017_Nov_07_1207,59.9991340501,FEMA4ImagesEEG,001,202275,
AFNE01.JPG,AFNE01.JPG,AFNE01.JPG,AFNE01.JPG,AFNE01.JPG,AFNE01.JPG,1,7,17,0,,,,,,,,,,,,,,,,,,,,,,,AFSA13.jpg,AFNE10.jpg,AFNE02.jpg,AFSA20.jpg,AFNE10.jpg,FN,3,num_6,32,num_8,2.59997209557,,,2017_Nov_07_1207,59.9991340501,FEMA4ImagesEEG,001,202275,
AFNE01.JPG,AFNE01.JPG,AFNE01.JPG,AFNE01.JPG,AFNE01.JPG,AFNE01.JPG,1,8,18,3,,,,,,,,,,,,,,,,,,,,,,,AFSA16.jpg,AFNE13.jpg,AFSA02.jpg,AFNE15.jpg,AFSA02.jpg,FS,4,num_2,16,num_2,1.6833024621,,,2017_Nov_07_1207,59.9991340501,FEMA4ImagesEEG,001,202275,
AFNE01.JPG,AFNE01.JPG,AFNE01.JPG,AFNE01.JPG,AFNE01.JPG,AFNE01.JPG,1,9,19,8,,,,,,,,,,,,,,,,,,,,,,,AFNE15.jpg,AFSA07.jpg,AFNE09.jpg,AFSA20.jpg,AFNE09.jpg,FN,3,num_2,32,num_8,1.05009854725,,,2017_Nov_07_1207,59.9991340501,FEMA4ImagesEEG,001,202275,
AFNE01.JPG,AFNE01.JPG,AFNE01.JPG,AFNE01.JPG,AFNE01.JPG,AFNE01.JPG,2,0,20,0,,,,,,,,,,,,,,,,,,,,,,,AFSA15.jpg,AFNE09.jpg,AFNE03.jpg,AFSA01.jpg,AFNE03.jpg,FN,3,num_2,32,num_6,1.16678550071,,,2017_Nov_07_1207,59.9991340501,FEMA4ImagesEEG,001,202275,
AFNE01.JPG,AFNE01.JPG,AFNE01.JPG,AFNE01.JPG,AFNE01.JPG,AFNE01.JPG,2,1,21,1,,,,,,,,,,,,,,,,,,,,,,,AFNE19.jpg,AFSA12.jpg,AFSA05.jpg,AFNE03.jpg,AFSA12.jpg,FS,4,num_6,16,num_6,0.566792557016,,,2017_Nov_07_1207,59.9991340501,FEMA4ImagesEEG,001,202275,
AFNE01.JPG,AFNE01.JPG,AFNE01.JPG,AFNE01.JPG,AFNE01.JPG,AFNE01.JPG,2,2,22,2,,,,,,,,,,,,,,,,,,,,,,,AFNE16.jpg,AFSA17.jpg,AFNE17.jpg,AFSA10.jpg,AFSA10.jpg,FS,4,num_4,16,num_4,0.583462671377,,,2017_Nov_07_1207,59.9991340501,FEMA4ImagesEEG,001,202275,
AFNE01.JPG,AFNE01.JPG,AFNE01.JPG,AFNE01.JPG,AFNE01.JPG,AFNE01.JPG,2,3,23,9,,,,,,,,,,,,,,,,,,,,,,,AFSA02.jpg,AFSA10.jpg,AFNE08.jpg,AFNE09.jpg,AFSA10.jpg,FS,4,num_6,16,num_6,0.950141045265,,,2017_Nov_07_1207,59.9991340501,FEMA4ImagesEEG,001,202275,
AFNE01.JPG,AFNE01.JPG,AFNE01.JPG,AFNE01.JPG,AFNE01.JPG,AFNE01.JPG,2,4,24,3,,,,,,,,,,,,,,,,,,,,,,,AFSA08.jpg,AFNE11.jpg,AFNE16.jpg,AFSA10.jpg,AFNE16.jpg,FN,3,num_2,32,num_8,1.21673586615,,,2017_Nov_07_1207,59.9991340501,FEMA4ImagesEEG,001,202275,
AFNE01.JPG,AFNE01.JPG,AFNE01.JPG,AFNE01.JPG,AFNE01.JPG,AFNE01.JPG,2,5,25,4,,,,,,,,,,,,,,,,,,,,,,,AFNE03.jpg,AFSA06.jpg,AFNE08.jpg,AFSA11.jpg,AFSA11.jpg,FS,4,num_4,16,num_4,1.2335791802,,,2017_Nov_07_1207,59.9991340501,FEMA4ImagesEEG,001,202275,
AFNE01.JPG,AFNE01.JPG,AFNE01.JPG,AFNE01.JPG,AFNE01.JPG,AFNE01.JPG,2,6,26,5,,,,,,,,,,,,,,,,,,,,,,,AFSA06.jpg,AFNE06.jpg,AFNE18.jpg,AFSA01.jpg,AFSA06.jpg,FS,4,num_8,32,num_6,0.950118593406,,,2017_Nov_07_1207,59.9991340501,FEMA4ImagesEEG,001,202275,
AFNE01.JPG,AFNE01.JPG,AFNE01.JPG,AFNE01.JPG,AFNE01.JPG,AFNE01.JPG,2,7,27,8,,,,,,,,,,,,,,,,,,,,,,,AFNE02.jpg,AFSA08.jpg,AFNE10.jpg,AFSA18.jpg,AFSA18.jpg,FS,4,num_4,32,num_6,0.983585835434,,,2017_Nov_07_1207,59.9991340501,FEMA4ImagesEEG,001,202275,
AFNE01.JPG,AFNE01.JPG,AFNE01.JPG,AFNE01.JPG,AFNE01.JPG,AFNE01.JPG,2,8,28,7,,,,,,,,,,,,,,,,,,,,,,,AFNE01.jpg,AFNE20.jpg,AFSA13.jpg,AFSA11.jpg,AFSA11.jpg,FS,4,num_4,16,num_4,0.950107367476,,,2017_Nov_07_1207,59.9991340501,FEMA4ImagesEEG,001,202275,
AFNE01.JPG,AFNE01.JPG,AFNE01.JPG,AFNE01.JPG,AFNE01.JPG,AFNE01.JPG,2,9,29,6,,,,,,,,,,,,,,,,,,,,,,,AFSA08.jpg,AFNE06.jpg,AFSA16.jpg,AFNE12.jpg,AFSA16.jpg,FS,4,num_2,32,num_8,1.06653131475,,,2017_Nov_07_1207,59.9991340501,FEMA4ImagesEEG,001,202275,
AFNE01.JPG,AFNE01.JPG,AFNE01.JPG,AFNE01.JPG,AFNE01.JPG,AFNE01.JPG,3,0,30,8,,,,,,,,,,,,,,,,,,,,,,,AFNE11.jpg,AFNE01.jpg,AFSA12.jpg,AFSA16.jpg,AFNE01.jpg,FN,3,num_6,16,num_6,1.50006238394,,,2017_Nov_07_1207,59.9991340501,FEMA4ImagesEEG,001,202275,
AFNE01.JPG,AFNE01.JPG,AFNE01.JPG,AFNE01.JPG,AFNE01.JPG,AFNE01.JPG,3,1,31,6,,,,,,,,,,,,,,,,,,,,,,,AFSA04.jpg,AFNE15.jpg,AFNE08.jpg,AFSA01.jpg,AFNE15.jpg,FN,3,num_6,16,num_6,1.60008018487,,,2017_Nov_07_1207,59.9991340501,FEMA4ImagesEEG,001,202275,
AFNE01.JPG,AFNE01.JPG,AFNE01.JPG,AFNE01.JPG,AFNE01.JPG,AFNE01.JPG,3,2,32,0,,,,,,,,,,,,,,,,,,,,,,,AFSA15.jpg,AFSA09.jpg,AFNE06.jpg,AFNE17.jpg,AFNE06.jpg,FN,3,num_2,16,num_2,1.25005941698,,,2017_Nov_07_1207,59.9991340501,FEMA4ImagesEEG,001,202275,
AFNE01.JPG,AFNE01.JPG,AFNE01.JPG,AFNE01.JPG,AFNE01.JPG,AFNE01.JPG,3,3,33,1,,,,,,,,,,,,,,,,,,,,,,,AFNE12.jpg,AFNE20.jpg,AFSA03.jpg,AFSA11.jpg,AFNE20.jpg,FN,3,num_6,16,num_6,0.866744927131,,,2017_Nov_07_1207,59.9991340501,FEMA4ImagesEEG,001,202275,
AFNE01.JPG,AFNE01.JPG,AFNE01.JPG,AFNE01.JPG,AFNE01.JPG,AFNE01.JPG,3,4,34,5,,,,,,,,,,,,,,,,,,,,,,,AFNE10.jpg,AFSA20.jpg,AFNE13.jpg,AFSA03.jpg,AFNE13.jpg,FN,3,num_2,32,num_8,0.71677002497,,,2017_Nov_07_1207,59.9991340501,FEMA4ImagesEEG,001,202275,
AFNE01.JPG,AFNE01.JPG,AFNE01.JPG,AFNE01.JPG,AFNE01.JPG,AFNE01.JPG,3,5,35,9,,,,,,,,,,,,,,,,,,,,,,,AFNE05.jpg,AFSA20.jpg,AFNE09.jpg,AFSA01.jpg,AFSA20.jpg,FS,4,num_6,32,num_2,1.35010063206,,,2017_Nov_07_1207,59.9991340501,FEMA4ImagesEEG,001,202275,
AFNE01.JPG,AFNE01.JPG,AFNE01.JPG,AFNE01.JPG,AFNE01.JPG,AFNE01.JPG,3,6,36,2,,,,,,,,,,,,,,,,,,,,,,,AFNE06.jpg,AFNE20.jpg,AFSA06.jpg,AFSA16.jpg,AFNE06.jpg,FN,3,num_8,32,num_6,0.866763209226,,,2017_Nov_07_1207,59.9991340501,FEMA4ImagesEEG,001,202275,
AFNE01.JPG,AFNE01.JPG,AFNE01.JPG,AFNE01.JPG,AFNE01.JPG,AFNE01.JPG,3,7,37,7,,,,,,,,,,,,,,,,,,,,,,,AFSA04.jpg,AFNE17.jpg,AFSA01.jpg,AFNE08.jpg,AFNE17.jpg,FN,3,num_6,16,num_6,1.33338817977,,,2017_Nov_07_1207,59.9991340501,FEMA4ImagesEEG,001,202275,
AFNE01.JPG,AFNE01.JPG,AFNE01.JPG,AFNE01.JPG,AFNE01.JPG,AFNE01.JPG,3,8,38,4,,,,,,,,,,,,,,,,,,,,,,,AFSA20.jpg,AFSA16.jpg,AFNE07.jpg,AFNE13.jpg,AFNE13.jpg,FN,3,num_4,32,num_2,1.05010399967,,,2017_Nov_07_1207,59.9991340501,FEMA4ImagesEEG,001,202275,
AFNE01.JPG,AFNE01.JPG,AFNE01.JPG,AFNE01.JPG,AFNE01.JPG,AFNE01.JPG,3,9,39,3,,,,,,,,,,,,,,,,,,,,,,,AFNE13.jpg,AFSA03.jpg,AFNE07.jpg,AFSA17.jpg,AFSA03.jpg,FS,4,num_6,32,num_8,1.79976136982,,,2017_Nov_07_1207,59.9991340501,FEMA4ImagesEEG,001,202275,
AFNE01.JPG,AFNE01.JPG,AFNE01.JPG,AFNE01.JPG,AFNE01.JPG,AFNE01.JPG,4,0,40,9,,,,,,,,,,,,,,,,,,,,,,,AFNE16.jpg,AFNE19.jpg,AFSA18.jpg,AFSA16.jpg,AFNE19.jpg,FN,3,num_6,16,num_6,0.583475501044,,,2017_Nov_07_1207,59.9991340501,FEMA4ImagesEEG,001,202275,
AFNE01.JPG,AFNE01.JPG,AFNE01.JPG,AFNE01.JPG,AFNE01.JPG,AFNE01.JPG,4,1,41,2,,,,,,,,,,,,,,,,,,,,,,,AFNE06.jpg,AFSA05.jpg,AFNE05.jpg,AFSA18.jpg,AFSA05.jpg,FS,4,num_6,16,num_6,0.450167185394,,,2017_Nov_07_1207,59.9991340501,FEMA4ImagesEEG,001,202275,
AFNE01.JPG,AFNE01.JPG,AFNE01.JPG,AFNE01.JPG,AFNE01.JPG,AFNE01.JPG,4,2,42,5,,,,,,,,,,,,,,,,,,,,,,,AFNE17.jpg,AFSA01.jpg,AFNE03.jpg,AFSA09.jpg,AFNE17.jpg,FN,3,num_8,16,num_8,1.10036772769,,,2017_Nov_07_1207,59.9991340501,FEMA4ImagesEEG,001,202275,
AFNE01.JPG,AFNE01.JPG,AFNE01.JPG,AFNE01.JPG,AFNE01.JPG,AFNE01.JPG,4,3,43,4,,,,,,,,,,,,,,,,,,,,,,,AFSA18.jpg,AFNE04.jpg,AFSA16.jpg,AFNE02.jpg,AFNE02.jpg,FN,3,num_4,32,num_2,1.68341632467,,,2017_Nov_07_1207,59.9991340501,FEMA4ImagesEEG,001,202275,
AFNE01.JPG,AFNE01.JPG,AFNE01.JPG,AFNE01.JPG,AFNE01.JPG,AFNE01.JPG,4,4,44,7,,,,,,,,,,,,,,,,,,,,,,,AFSA06.jpg,AFNE17.jpg,AFNE06.jpg,AFSA20.jpg,AFSA20.jpg,FS,4,num_4,32,num_8,1.18346203002,,,2017_Nov_07_1207,59.9991340501,FEMA4ImagesEEG,001,202275,
AFNE01.JPG,AFNE01.JPG,AFNE01.JPG,AFNE01.JPG,AFNE01.JPG,AFNE01.JPG,4,5,45,6,,,,,,,,,,,,,,,,,,,,,,,AFNE15.jpg,AFSA16.jpg,AFNE16.jpg,AFSA08.jpg,AFNE16.jpg,FN,3,num_2,16,num_2,1.51672576298,,,2017_Nov_07_1207,59.9991340501,FEMA4ImagesEEG,001,202275,
AFNE01.JPG,AFNE01.JPG,AFNE01.JPG,AFNE01.JPG,AFNE01.JPG,AFNE01.JPG,4,6,46,1,,,,,,,,,,,,,,,,,,,,,,,AFSA04.jpg,AFSA18.jpg,AFNE08.jpg,AFNE14.jpg,AFNE08.jpg,FN,3,num_2,32,num_4,0.800149143673,,,2017_Nov_07_1207,59.9991340501,FEMA4ImagesEEG,001,202275,
AFNE01.JPG,AFNE01.JPG,AFNE01.JPG,AFNE01.JPG,AFNE01.JPG,AFNE01.JPG,4,7,47,0,,,,,,,,,,,,,,,,,,,,,,,AFSA18.jpg,AFSA04.jpg,AFNE04.jpg,AFNE16.jpg,AFNE16.jpg,FN,3,num_4,32,num_8,0.950141365873,,,2017_Nov_07_1207,59.9991340501,FEMA4ImagesEEG,001,202275,
AFNE01.JPG,AFNE01.JPG,AFNE01.JPG,AFNE01.JPG,AFNE01.JPG,AFNE01.JPG,4,8,48,8,,,,,,,,,,,,,,,,,,,,,,,AFSA02.jpg,AFNE12.jpg,AFNE02.jpg,AFSA10.jpg,AFSA10.jpg,FS,4,num_4,32,num_6,1.53323294176,,,2017_Nov_07_1207,59.9991340501,FEMA4ImagesEEG,001,202275,
AFNE01.JPG,AFNE01.JPG,AFNE01.JPG,AFNE01.JPG,AFNE01.JPG,AFNE01.JPG,4,9,49,3,,,,,,,,,,,,,,,,,,,,,,,AFNE13.jpg,AFNE09.jpg,AFSA10.jpg,AFSA18.jpg,AFNE09.jpg,FN,3,num_6,32,num_8,1.40005516727,,,2017_Nov_07_1207,59.9991340501,FEMA4ImagesEEG,001,202275,
AFNE01.JPG,AFNE01.JPG,AFNE01.JPG,AFNE01.JPG,AFNE01.JPG,AFNE01.JPG,5,0,50,7,,,,,,,,,,,,,,,,,,,,,,,AFSA01.jpg,AFNE06.jpg,AFNE13.jpg,AFSA04.jpg,AFSA04.jpg,FS,4,num_4,16,num_4,1.21674612979,,,2017_Nov_07_1207,59.9991340501,FEMA4ImagesEEG,001,202275,
AFNE01.JPG,AFNE01.JPG,AFNE01.JPG,AFNE01.JPG,AFNE01.JPG,AFNE01.JPG,5,1,51,8,,,,,,,,,,,,,,,,,,,,,,,AFNE15.jpg,AFNE14.jpg,AFSA13.jpg,AFSA14.jpg,AFNE15.jpg,FN,3,num_8,32,num_6,0.85013799835,,,2017_Nov_07_1207,59.9991340501,FEMA4ImagesEEG,001,202275,
AFNE01.JPG,AFNE01.JPG,AFNE01.JPG,AFNE01.JPG,AFNE01.JPG,AFNE01.JPG,5,2,52,4,,,,,,,,,,,,,,,,,,,,,,,AFSA06.jpg,AFNE04.jpg,AFSA17.jpg,AFNE16.jpg,AFNE16.jpg,FN,3,num_4,16,num_4,4.36679383973,,,2017_Nov_07_1207,59.9991340501,FEMA4ImagesEEG,001,202275,
AFNE01.JPG,AFNE01.JPG,AFNE01.JPG,AFNE01.JPG,AFNE01.JPG,AFNE01.JPG,5,3,53,1,,,,,,,,,,,,,,,,,,,,,,,AFNE15.jpg,AFNE17.jpg,AFSA14.jpg,AFSA10.jpg,AFSA14.jpg,FS,4,num_2,32,num_8,0.800162614789,,,2017_Nov_07_1207,59.9991340501,FEMA4ImagesEEG,001,202275,
AFNE01.JPG,AFNE01.JPG,AFNE01.JPG,AFNE01.JPG,AFNE01.JPG,AFNE01.JPG,5,4,54,3,,,,,,,,,,,,,,,,,,,,,,,AFNE09.jpg,AFSA04.jpg,AFNE03.jpg,AFSA07.jpg,AFSA07.jpg,FS,4,num_4,32,num_2,1.66670130659,,,2017_Nov_07_1207,59.9991340501,FEMA4ImagesEEG,001,202275,
AFNE01.JPG,AFNE01.JPG,AFNE01.JPG,AFNE01.JPG,AFNE01.JPG,AFNE01.JPG,5,5,55,0,,,,,,,,,,,,,,,,,,,,,,,AFNE09.jpg,AFNE04.jpg,AFSA11.jpg,AFSA18.jpg,AFNE09.jpg,FN,3,num_8,16,num_8,0.800162935629,,,2017_Nov_07_1207,59.9991340501,FEMA4ImagesEEG,001,202275,
AFNE01.JPG,AFNE01.JPG,AFNE01.JPG,AFNE01.JPG,AFNE01.JPG,AFNE01.JPG,5,6,56,9,,,,,,,,,,,,,,,,,,,,,,,AFNE19.jpg,AFSA04.jpg,AFNE04.jpg,AFSA17.jpg,AFNE19.jpg,FN,3,num_8,32,num_2,0.93342346116,,,2017_Nov_07_1207,59.9991340501,FEMA4ImagesEEG,001,202275,
AFNE01.JPG,AFNE01.JPG,AFNE01.JPG,AFNE01.JPG,AFNE01.JPG,AFNE01.JPG,5,7,57,6,,,,,,,,,,,,,,,,,,,,,,,AFNE17.jpg,AFSA06.jpg,AFSA17.jpg,AFNE14.jpg,AFNE14.jpg,FN,3,num_4,16,num_4,0.666789509822,,,2017_Nov_07_1207,59.9991340501,FEMA4ImagesEEG,001,202275,
AFNE01.JPG,AFNE01.JPG,AFNE01.JPG,AFNE01.JPG,AFNE01.JPG,AFNE01.JPG,5,8,58,2,,,,,,,,,,,,,,,,,,,,,,,AFNE06.jpg,AFSA15.jpg,AFNE16.jpg,AFSA12.jpg,AFSA15.jpg,FS,4,num_6,32,num_8,1.13349370309,,,2017_Nov_07_1207,59.9991340501,FEMA4ImagesEEG,001,202275,
AFNE01.JPG,AFNE01.JPG,AFNE01.JPG,AFNE01.JPG,AFNE01.JPG,AFNE01.JPG,5,9,59,5,,,,,,,,,,,,,,,,,,,,,,,AFNE07.jpg,AFSA03.jpg,AFNE08.jpg,AFSA18.jpg,AFSA18.jpg,FS,4,num_4,32,num_6,1.36671269266,,,2017_Nov_07_1207,59.9991340501,FEMA4ImagesEEG,001,202275,
,,,,,,,,,,,,,,,,,,,,,,,,,,,,,,,,,,,,,,,,,,,space,2.46662657405,2017_Nov_07_1207,59.9991340501,FEMA4ImagesEEG,001,202275,
AFNE01.JPG,AFNE01.JPG,AFNE01.JPG,AFNE01.JPG,AFNE01.JPG,AFNE01.JPG,,,,,0,0,0,8,,,,,,,,,,,,,,,,,,,AMSA14.jpg,AMNE17.jpg,AMNE01.jpg,AMSA15.jpg,AMNE17.jpg,MN,1,num_6,16,num_6,0.6834461533,,,2017_Nov_07_1207,59.9991340501,FEMA4ImagesEEG,001,202275,
AFNE01.JPG,AFNE01.JPG,AFNE01.JPG,AFNE01.JPG,AFNE01.JPG,AFNE01.JPG,,,,,0,1,1,3,,,,,,,,,,,,,,,,,,,AMSA08.jpg,AMSA19.jpg,AMNE12.jpg,AMNE13.jpg,AMNE12.jpg,MN,1,num_2,32,num_6,0.616840106435,,,2017_Nov_07_1207,59.9991340501,FEMA4ImagesEEG,001,202275,
AFNE01.JPG,AFNE01.JPG,AFNE01.JPG,AFNE01.JPG,AFNE01.JPG,AFNE01.JPG,,,,,0,2,2,2,,,,,,,,,,,,,,,,,,,AMSA04.jpg,AMNE01.jpg,AMSA02.jpg,AMNE14.jpg,AMSA02.jpg,MS,2,num_2,32,num_8,1.05015660101,,,2017_Nov_07_1207,59.9991340501,FEMA4ImagesEEG,001,202275,
AFNE01.JPG,AFNE01.JPG,AFNE01.JPG,AFNE01.JPG,AFNE01.JPG,AFNE01.JPG,,,,,0,3,3,6,,,,,,,,,,,,,,,,,,,AMSA08.jpg,AMSA05.jpg,AMNE18.jpg,AMNE16.jpg,AMSA05.jpg,MS,2,num_6,32,num_8,1.16676336969,,,2017_Nov_07_1207,59.9991340501,FEMA4ImagesEEG,001,202275,
AFNE01.JPG,AFNE01.JPG,AFNE01.JPG,AFNE01.JPG,AFNE01.JPG,AFNE01.JPG,,,,,0,4,4,0,,,,,,,,,,,,,,,,,,,AMSA10.jpg,AMNE11.jpg,AMNE09.jpg,AMSA13.jpg,AMSA10.jpg,MS,2,num_8,32,num_6,1.25011939532,,,2017_Nov_07_1207,59.9991340501,FEMA4ImagesEEG,001,202275,
AFNE01.JPG,AFNE01.JPG,AFNE01.JPG,AFNE01.JPG,AFNE01.JPG,AFNE01.JPG,,,,,0,5,5,9,,,,,,,,,,,,,,,,,,,AMNE15.jpg,AMNE11.jpg,AMSA02.jpg,AMSA13.jpg,AMNE11.jpg,MN,1,num_6,16,num_6,0.550153233111,,,2017_Nov_07_1207,59.9991340501,FEMA4ImagesEEG,001,202275,
AFNE01.JPG,AFNE01.JPG,AFNE01.JPG,AFNE01.JPG,AFNE01.JPG,AFNE01.JPG,,,,,0,6,6,4,,,,,,,,,,,,,,,,,,,AMNE05.jpg,AMNE15.jpg,AMSA20.jpg,AMSA12.jpg,AMSA20.jpg,MS,2,num_2,16,num_2,2.63330558944,,,2017_Nov_07_1207,59.9991340501,FEMA4ImagesEEG,001,202275,
AFNE01.JPG,AFNE01.JPG,AFNE01.JPG,AFNE01.JPG,AFNE01.JPG,AFNE01.JPG,,,,,0,7,7,1,,,,,,,,,,,,,,,,,,,AMSA19.jpg,AMNE18.jpg,AMSA09.jpg,AMNE16.jpg,AMNE16.jpg,MN,1,num_4,16,num_4,0.816757997265,,,2017_Nov_07_1207,59.9991340501,FEMA4ImagesEEG,001,202275,
AFNE01.JPG,AFNE01.JPG,AFNE01.JPG,AFNE01.JPG,AFNE01.JPG,AFNE01.JPG,,,,,0,8,8,7,,,,,,,,,,,,,,,,,,,AMNE11.jpg,AMSA14.jpg,AMSA06.jpg,AMNE13.jpg,AMSA14.jpg,MS,2,num_6,16,num_6,0.416836578399,,,2017_Nov_07_1207,59.9991340501,FEMA4ImagesEEG,001,202275,
AFNE01.JPG,AFNE01.JPG,AFNE01.JPG,AFNE01.JPG,AFNE01.JPG,AFNE01.JPG,,,,,0,9,9,5,,,,,,,,,,,,,,,,,,,AMNE06.jpg,AMSA02.jpg,AMSA14.jpg,AMNE19.jpg,AMNE06.jpg,MN,1,num_8,32,num_4,1.00008820347,,,2017_Nov_07_1207,59.9991340501,FEMA4ImagesEEG,001,202275,
AFNE01.JPG,AFNE01.JPG,AFNE01.JPG,AFNE01.JPG,AFNE01.JPG,AFNE01.JPG,,,,,1,0,10,2,,,,,,,,,,,,,,,,,,,AMSA07.jpg,AMNE15.jpg,AMSA05.jpg,AMNE13.jpg,AMNE13.jpg,MN,1,num_4,16,num_4,1.1001887552,,,2017_Nov_07_1207,59.9991340501,FEMA4ImagesEEG,001,202275,
AFNE01.JPG,AFNE01.JPG,AFNE01.JPG,AFNE01.JPG,AFNE01.JPG,AFNE01.JPG,,,,,1,1,11,7,,,,,,,,,,,,,,,,,,,AMNE14.jpg,AMNE17.jpg,AMSA13.jpg,AMSA06.jpg,AMSA06.jpg,MS,2,num_4,32,num_6,1.38355632732,,,2017_Nov_07_1207,59.9991340501,FEMA4ImagesEEG,001,202275,
AFNE01.JPG,AFNE01.JPG,AFNE01.JPG,AFNE01.JPG,AFNE01.JPG,AFNE01.JPG,,,,,1,2,12,1,,,,,,,,,,,,,,,,,,,AMNE05.jpg,AMSA08.jpg,AMNE19.jpg,AMSA06.jpg,AMNE19.jpg,MN,1,num_2,32,num_8,1.75002076779,,,2017_Nov_07_1207,59.9991340501,FEMA4ImagesEEG,001,202275,
AFNE01.JPG,AFNE01.JPG,AFNE01.JPG,AFNE01.JPG,AFNE01.JPG,AFNE01.JPG,,,,,1,3,13,0,,,,,,,,,,,,,,,,,,,AMNE16.jpg,AMSA02.jpg,AMNE04.jpg,AMSA05.jpg,AMSA02.jpg,MS,2,num_6,16,num_6,1.10009574075,,,2017_Nov_07_1207,59.9991340501,FEMA4ImagesEEG,001,202275,
AFNE01.JPG,AFNE01.JPG,AFNE01.JPG,AFNE01.JPG,AFNE01.JPG,AFNE01.JPG,,,,,1,4,14,8,,,,,,,,,,,,,,,,,,,AMSA02.jpg,AMSA06.jpg,AMNE01.jpg,AMNE11.jpg,AMNE11.jpg,MN,1,num_4,16,num_4,1.01672784775,,,2017_Nov_07_1207,59.9991340501,FEMA4ImagesEEG,001,202275,
AFNE01.JPG,AFNE01.JPG,AFNE01.JPG,AFNE01.JPG,AFNE01.JPG,AFNE01.JPG,,,,,1,5,15,4,,,,,,,,,,,,,,,,,,,AMSA20.jpg,AMNE09.jpg,AMNE18.jpg,AMSA09.jpg,AMNE09.jpg,MN,1,num_6,32,num_4,0.850102075376,,,2017_Nov_07_1207,59.9991340501,FEMA4ImagesEEG,001,202275,
AFNE01.JPG,AFNE01.JPG,AFNE01.JPG,AFNE01.JPG,AFNE01.JPG,AFNE01.JPG,,,,,1,6,16,9,,,,,,,,,,,,,,,,,,,AMNE06.jpg,AMSA19.jpg,AMNE15.jpg,AMSA04.jpg,AMNE06.jpg,MN,1,num_8,16,num_8,1.50006559119,,,2017_Nov_07_1207,59.9991340501,FEMA4ImagesEEG,001,202275,
AFNE01.JPG,AFNE01.JPG,AFNE01.JPG,AFNE01.JPG,AFNE01.JPG,AFNE01.JPG,,,,,1,7,17,5,,,,,,,,,,,,,,,,,,,AMNE02.jpg,AMSA14.jpg,AMNE06.jpg,AMSA03.jpg,AMSA03.jpg,MS,2,num_4,16,num_4,0.650126772234,,,2017_Nov_07_1207,59.9991340501,FEMA4ImagesEEG,001,202275,
AFNE01.JPG,AFNE01.JPG,AFNE01.JPG,AFNE01.JPG,AFNE01.JPG,AFNE01.JPG,,,,,1,8,18,3,,,,,,,,,,,,,,,,,,,AMSA02.jpg,AMSA11.jpg,AMNE09.jpg,AMNE03.jpg,AMSA11.jpg,MS,2,num_6,16,num_6,0.466783095151,,,2017_Nov_07_1207,59.9991340501,FEMA4ImagesEEG,001,202275,
AFNE01.JPG,AFNE01.JPG,AFNE01.JPG,AFNE01.JPG,AFNE01.JPG,AFNE01.JPG,,,,,1,9,19,6,,,,,,,,,,,,,,,,,,,AMNE06.jpg,AMNE14.jpg,AMSA14.jpg,AMSA12.jpg,AMSA14.jpg,MS,2,num_2,32,num_8,1.68337174179,,,2017_Nov_07_1207,59.9991340501,FEMA4ImagesEEG,001,202275,
AFNE01.JPG,AFNE01.JPG,AFNE01.JPG,AFNE01.JPG,AFNE01.JPG,AFNE01.JPG,,,,,2,0,20,8,,,,,,,,,,,,,,,,,,,AMSA20.jpg,AMSA16.jpg,AMNE09.jpg,AMNE07.jpg,AMNE07.jpg,MN,1,num_4,32,num_8,0.750171194784,,,2017_Nov_07_1207,59.9991340501,FEMA4ImagesEEG,001,202275,
AFNE01.JPG,AFNE01.JPG,AFNE01.JPG,AFNE01.JPG,AFNE01.JPG,AFNE01.JPG,,,,,2,1,21,0,,,,,,,,,,,,,,,,,,,AMSA11.jpg,AMNE03.jpg,AMNE17.jpg,AMSA14.jpg,AMNE17.jpg,MN,1,num_2,16,num_2,1.08320527803,,,2017_Nov_07_1207,59.9991340501,FEMA4ImagesEEG,001,202275,
AFNE01.JPG,AFNE01.JPG,AFNE01.JPG,AFNE01.JPG,AFNE01.JPG,AFNE01.JPG,,,,,2,2,22,5,,,,,,,,,,,,,,,,,,,AMNE11.jpg,AMSA17.jpg,AMSA01.jpg,AMNE16.jpg,AMNE11.jpg,MN,1,num_8,16,num_8,1.15003520134,,,2017_Nov_07_1207,59.9991340501,FEMA4ImagesEEG,001,202275,
AFNE01.JPG,AFNE01.JPG,AFNE01.JPG,AFNE01.JPG,AFNE01.JPG,AFNE01.JPG,,,,,2,3,23,4,,,,,,,,,,,,,,,,,,,AMSA10.jpg,AMSA06.jpg,AMNE18.jpg,AMNE06.jpg,AMNE06.jpg,MN,1,num_4,32,num_8,0.81685710582,,,2017_Nov_07_1207,59.9991340501,FEMA4ImagesEEG,001,202275,
AFNE01.JPG,AFNE01.JPG,AFNE01.JPG,AFNE01.JPG,AFNE01.JPG,AFNE01.JPG,,,,,2,4,24,2,,,,,,,,,,,,,,,,,,,AMSA01.jpg,AMNE18.jpg,AMNE19.jpg,AMSA05.jpg,AMSA01.jpg,MS,2,num_8,16,num_8,0.7670799396,,,2017_Nov_07_1207,59.9991340501,FEMA4ImagesEEG,001,202275,
AFNE01.JPG,AFNE01.JPG,AFNE01.JPG,AFNE01.JPG,AFNE01.JPG,AFNE01.JPG,,,,,2,5,25,9,,,,,,,,,,,,,,,,,,,AMSA09.jpg,AMNE18.jpg,AMNE15.jpg,AMSA20.jpg,AMNE15.jpg,MN,1,num_2,16,num_2,1.45004113484,,,2017_Nov_07_1207,59.9991340501,FEMA4ImagesEEG,001,202275,
AFNE01.JPG,AFNE01.JPG,AFNE01.JPG,AFNE01.JPG,AFNE01.JPG,AFNE01.JPG,,,,,2,6,26,3,,,,,,,,,,,,,,,,,,,AMNE02.jpg,AMSA06.jpg,AMSA15.jpg,AMNE10.jpg,AMSA15.jpg,MS,2,num_2,32,num_4,1.00009814627,,,2017_Nov_07_1207,59.9991340501,FEMA4ImagesEEG,001,202275,
AFNE01.JPG,AFNE01.JPG,AFNE01.JPG,AFNE01.JPG,AFNE01.JPG,AFNE01.JPG,,,,,2,7,27,7,,,,,,,,,,,,,,,,,,,AMSA09.jpg,AMNE13.jpg,AMSA17.jpg,AMNE20.jpg,AMSA09.jpg,MS,2,num_8,32,num_6,1.20009814622,,,2017_Nov_07_1207,59.9991340501,FEMA4ImagesEEG,001,202275,
AFNE01.JPG,AFNE01.JPG,AFNE01.JPG,AFNE01.JPG,AFNE01.JPG,AFNE01.JPG,,,,,2,8,28,1,,,,,,,,,,,,,,,,,,,AMSA13.jpg,AMNE10.jpg,AMNE16.jpg,AMSA06.jpg,AMSA06.jpg,MS,2,num_4,32,num_8,1.40009044856,,,2017_Nov_07_1207,59.9991340501,FEMA4ImagesEEG,001,202275,
AFNE01.JPG,AFNE01.JPG,AFNE01.JPG,AFNE01.JPG,AFNE01.JPG,AFNE01.JPG,,,,,2,9,29,6,,,,,,,,,,,,,,,,,,,AMSA20.jpg,AMSA06.jpg,AMNE16.jpg,AMNE03.jpg,AMSA20.jpg,MS,2,num_8,16,num_8,1.03350701369,,,2017_Nov_07_1207,59.9991340501,FEMA4ImagesEEG,001,202275,
AFNE01.JPG,AFNE01.JPG,AFNE01.JPG,AFNE01.JPG,AFNE01.JPG,AFNE01.JPG,,,,,3,0,30,3,,,,,,,,,,,,,,,,,,,AMSA10.jpg,AMNE11.jpg,AMNE10.jpg,AMSA13.jpg,AMSA13.jpg,MS,2,num_4,32,num_6,0.850115546258,,,2017_Nov_07_1207,59.9991340501,FEMA4ImagesEEG,001,202275,
AFNE01.JPG,AFNE01.JPG,AFNE01.JPG,AFNE01.JPG,AFNE01.JPG,AFNE01.JPG,,,,,3,1,31,7,,,,,,,,,,,,,,,,,,,AMNE18.jpg,AMNE08.jpg,AMSA19.jpg,AMSA07.jpg,AMSA07.jpg,MS,2,num_4,16,num_4,0.450154997408,,,2017_Nov_07_1207,59.9991340501,FEMA4ImagesEEG,001,202275,
AFNE01.JPG,AFNE01.JPG,AFNE01.JPG,AFNE01.JPG,AFNE01.JPG,AFNE01.JPG,,,,,3,2,32,4,,,,,,,,,,,,,,,,,,,AMSA09.jpg,AMNE19.jpg,AMSA02.jpg,AMNE03.jpg,AMSA09.jpg,MS,2,num_8,32,num_2,1.05009437772,,,2017_Nov_07_1207,59.9991340501,FEMA4ImagesEEG,001,202275,
AFNE01.JPG,AFNE01.JPG,AFNE01.JPG,AFNE01.JPG,AFNE01.JPG,AFNE01.JPG,,,,,3,3,33,5,,,,,,,,,,,,,,,,,,,AMNE17.jpg,AMSA18.jpg,AMSA13.jpg,AMNE01.jpg,AMSA13.jpg,MS,2,num_2,32,num_8,0.816775958519,,,2017_Nov_07_1207,59.9991340501,FEMA4ImagesEEG,001,202275,
AFNE01.JPG,AFNE01.JPG,AFNE01.JPG,AFNE01.JPG,AFNE01.JPG,AFNE01.JPG,,,,,3,4,34,0,,,,,,,,,,,,,,,,,,,AMNE09.jpg,AMSA14.jpg,AMNE01.jpg,AMSA01.jpg,AMSA14.jpg,MS,2,num_6,16,num_6,0.883429475129,,,2017_Nov_07_1207,59.9991340501,FEMA4ImagesEEG,001,202275,
AFNE01.JPG,AFNE01.JPG,AFNE01.JPG,AFNE01.JPG,AFNE01.JPG,AFNE01.JPG,,,,,3,5,35,8,,,,,,,,,,,,,,,,,,,AMNE20.jpg,AMSA15.jpg,AMSA20.jpg,AMNE04.jpg,AMSA20.jpg,MS,2,num_2,16,num_2,0.833426508354,,,2017_Nov_07_1207,59.9991340501,FEMA4ImagesEEG,001,202275,
AFNE01.JPG,AFNE01.JPG,AFNE01.JPG,AFNE01.JPG,AFNE01.JPG,AFNE01.JPG,,,,,3,6,36,9,,,,,,,,,,,,,,,,,,,AMNE09.jpg,AMSA01.jpg,AMSA15.jpg,AMNE13.jpg,AMNE09.jpg,MN,1,num_8,16,num_8,0.583453690866,,,2017_Nov_07_1207,59.9991340501,FEMA4ImagesEEG,001,202275,
AFNE01.JPG,AFNE01.JPG,AFNE01.JPG,AFNE01.JPG,AFNE01.JPG,AFNE01.JPG,,,,,3,7,37,2,,,,,,,,,,,,,,,,,,,AMSA15.jpg,AMNE08.jpg,AMNE20.jpg,AMSA09.jpg,AMNE20.jpg,MN,1,num_2,32,num_6,0.733489212813,,,2017_Nov_07_1207,59.9991340501,FEMA4ImagesEEG,001,202275,
AFNE01.JPG,AFNE01.JPG,AFNE01.JPG,AFNE01.JPG,AFNE01.JPG,AFNE01.JPG,,,,,3,8,38,1,,,,,,,,,,,,,,,,,,,AMNE13.jpg,AMSA12.jpg,AMSA08.jpg,AMNE04.jpg,AMSA12.jpg,MS,2,num_6,32,num_2,0.500157001894,,,2017_Nov_07_1207,59.9991340501,FEMA4ImagesEEG,001,202275,
AFNE01.JPG,AFNE01.JPG,AFNE01.JPG,AFNE01.JPG,AFNE01.JPG,AFNE01.JPG,,,,,3,9,39,6,,,,,,,,,,,,,,,,,,,AMSA12.jpg,AMNE10.jpg,AMNE16.jpg,AMSA20.jpg,AMSA12.jpg,MS,2,num_8,32,num_6,1.01672175364,,,2017_Nov_07_1207,59.9991340501,FEMA4ImagesEEG,001,202275,
AFNE01.JPG,AFNE01.JPG,AFNE01.JPG,AFNE01.JPG,AFNE01.JPG,AFNE01.JPG,,,,,4,0,40,0,,,,,,,,,,,,,,,,,,,AMSA10.jpg,AMNE20.jpg,AMSA15.jpg,AMNE11.jpg,AMSA10.jpg,MS,2,num_8,16,num_8,1.25007898221,,,2017_Nov_07_1207,59.9991340501,FEMA4ImagesEEG,001,202275,
AFNE01.JPG,AFNE01.JPG,AFNE01.JPG,AFNE01.JPG,AFNE01.JPG,AFNE01.JPG,,,,,4,1,41,6,,,,,,,,,,,,,,,,,,,AMSA08.jpg,AMSA16.jpg,AMNE09.jpg,AMNE12.jpg,AMSA16.jpg,MS,2,num_6,16,num_6,1.00010263664,,,2017_Nov_07_1207,59.9991340501,FEMA4ImagesEEG,001,202275,
AFNE01.JPG,AFNE01.JPG,AFNE01.JPG,AFNE01.JPG,AFNE01.JPG,AFNE01.JPG,,,,,4,2,42,8,,,,,,,,,,,,,,,,,,,AMNE08.jpg,AMNE16.jpg,AMSA06.jpg,AMSA01.jpg,AMSA06.jpg,MS,2,num_2,32,num_6,0.950463709189,,,2017_Nov_07_1207,59.9991340501,FEMA4ImagesEEG,001,202275,
AFNE01.JPG,AFNE01.JPG,AFNE01.JPG,AFNE01.JPG,AFNE01.JPG,AFNE01.JPG,,,,,4,3,43,4,,,,,,,,,,,,,,,,,,,AMNE13.jpg,AMSA10.jpg,AMNE10.jpg,AMSA15.jpg,AMNE10.jpg,MN,1,num_2,32,num_8,0.816637719981,,,2017_Nov_07_1207,59.9991340501,FEMA4ImagesEEG,001,202275,
AFNE01.JPG,AFNE01.JPG,AFNE01.JPG,AFNE01.JPG,AFNE01.JPG,AFNE01.JPG,,,,,4,4,44,9,,,,,,,,,,,,,,,,,,,AMNE09.jpg,AMSA20.jpg,AMSA03.jpg,AMNE13.jpg,AMNE13.jpg,MN,1,num_4,32,num_2,2.06667372305,,,2017_Nov_07_1207,59.9991340501,FEMA4ImagesEEG,001,202275,
AFNE01.JPG,AFNE01.JPG,AFNE01.JPG,AFNE01.JPG,AFNE01.JPG,AFNE01.JPG,,,,,4,5,45,3,,,,,,,,,,,,,,,,,,,AMSA16.jpg,AMNE08.jpg,AMNE20.jpg,AMSA08.jpg,AMSA16.jpg,MS,2,num_8,32,num_6,0.983458181145,,,2017_Nov_07_1207,59.9991340501,FEMA4ImagesEEG,001,202275,
AFNE01.JPG,AFNE01.JPG,AFNE01.JPG,AFNE01.JPG,AFNE01.JPG,AFNE01.JPG,,,,,4,6,46,5,,,,,,,,,,,,,,,,,,,AMSA02.jpg,AMSA05.jpg,AMNE12.jpg,AMNE10.jpg,AMSA05.jpg,MS,2,num_6,16,num_6,0.5168219849,,,2017_Nov_07_1207,59.9991340501,FEMA4ImagesEEG,001,202275,
AFNE01.JPG,AFNE01.JPG,AFNE01.JPG,AFNE01.JPG,AFNE01.JPG,AFNE01.JPG,,,,,4,7,47,2,,,,,,,,,,,,,,,,,,,AMSA09.jpg,AMSA04.jpg,AMNE11.jpg,AMNE12.jpg,AMNE11.jpg,MN,1,num_2,32,num_8,2.06659963215,,,2017_Nov_07_1207,59.9991340501,FEMA4ImagesEEG,001,202275,
AFNE01.JPG,AFNE01.JPG,AFNE01.JPG,AFNE01.JPG,AFNE01.JPG,AFNE01.JPG,,,,,4,8,48,7,,,,,,,,,,,,,,,,,,,AMNE12.jpg,AMSA10.jpg,AMSA06.jpg,AMNE09.jpg,AMNE12.jpg,MN,1,num_8,32,num_2,1.61670635827,,,2017_Nov_07_1207,59.9991340501,FEMA4ImagesEEG,001,202275,
AFNE01.JPG,AFNE01.JPG,AFNE01.JPG,AFNE01.JPG,AFNE01.JPG,AFNE01.JPG,,,,,4,9,49,1,,,,,,,,,,,,,,,,,,,AMSA12.jpg,AMSA01.jpg,AMNE04.jpg,AMNE18.jpg,AMSA01.jpg,MS,2,num_6,16,num_6,0.733453289839,,,2017_Nov_07_1207,59.9991340501,FEMA4ImagesEEG,001,202275,
AFNE01.JPG,AFNE01.JPG,AFNE01.JPG,AFNE01.JPG,AFNE01.JPG,AFNE01.JPG,,,,,5,0,50,4,,,,,,,,,,,,,,,,,,,AMSA16.jpg,AMNE09.jpg,AMNE17.jpg,AMSA06.jpg,AMSA16.jpg,MS,2,num_8,32,num_4,1.31670523551,,,2017_Nov_07_1207,59.9991340501,FEMA4ImagesEEG,001,202275,
AFNE01.JPG,AFNE01.JPG,AFNE01.JPG,AFNE01.JPG,AFNE01.JPG,AFNE01.JPG,,,,,5,1,51,3,,,,,,,,,,,,,,,,,,,AMNE03.jpg,AMSA08.jpg,AMSA13.jpg,AMNE06.jpg,AMNE06.jpg,MN,1,num_4,32,num_2,1.45006679394,,,2017_Nov_07_1207,59.9991340501,FEMA4ImagesEEG,001,202275,
AFNE01.JPG,AFNE01.JPG,AFNE01.JPG,AFNE01.JPG,AFNE01.JPG,AFNE01.JPG,,,,,5,2,52,5,,,,,,,,,,,,,,,,,,,AMNE17.jpg,AMNE03.jpg,AMSA10.jpg,AMSA01.jpg,AMSA10.jpg,MS,2,num_2,32,num_8,1.73337374651,,,2017_Nov_07_1207,59.9991340501,FEMA4ImagesEEG,001,202275,
AFNE01.JPG,AFNE01.JPG,AFNE01.JPG,AFNE01.JPG,AFNE01.JPG,AFNE01.JPG,,,,,5,3,53,2,,,,,,,,,,,,,,,,,,,AMNE01.jpg,AMSA01.jpg,AMSA06.jpg,AMNE18.jpg,AMNE18.jpg,MN,1,num_4,32,num_2,1.28338296781,,,2017_Nov_07_1207,59.9991340501,FEMA4ImagesEEG,001,202275,
AFNE01.JPG,AFNE01.JPG,AFNE01.JPG,AFNE01.JPG,AFNE01.JPG,AFNE01.JPG,,,,,5,4,54,8,,,,,,,,,,,,,,,,,,,AMSA01.jpg,AMSA17.jpg,AMNE08.jpg,AMNE09.jpg,AMSA17.jpg,MS,2,num_6,16,num_6,0.583473576698,,,2017_Nov_07_1207,59.9991340501,FEMA4ImagesEEG,001,202275,
AFNE01.JPG,AFNE01.JPG,AFNE01.JPG,AFNE01.JPG,AFNE01.JPG,AFNE01.JPG,,,,,5,5,55,9,,,,,,,,,,,,,,,,,,,AMSA05.jpg,AMNE12.jpg,AMSA13.jpg,AMNE01.jpg,AMSA13.jpg,MS,2,num_2,16,num_2,1.20008756197,,,2017_Nov_07_1207,59.9991340501,FEMA4ImagesEEG,001,202275,
AFNE01.JPG,AFNE01.JPG,AFNE01.JPG,AFNE01.JPG,AFNE01.JPG,AFNE01.JPG,,,,,5,6,56,0,,,,,,,,,,,,,,,,,,,AMNE05.jpg,AMSA07.jpg,AMNE11.jpg,AMSA09.jpg,AMSA07.jpg,MS,2,num_6,16,num_6,0.766896797111,,,2017_Nov_07_1207,59.9991340501,FEMA4ImagesEEG,001,202275,
AFNE01.JPG,AFNE01.JPG,AFNE01.JPG,AFNE01.JPG,AFNE01.JPG,AFNE01.JPG,,,,,5,7,57,7,,,,,,,,,,,,,,,,,,,AMSA18.jpg,AMNE14.jpg,AMSA20.jpg,AMNE18.jpg,AMSA20.jpg,MS,2,num_2,16,num_2,0.749962393194,,,2017_Nov_07_1207,59.9991340501,FEMA4ImagesEEG,001,202275,
AFNE01.JPG,AFNE01.JPG,AFNE01.JPG,AFNE01.JPG,AFNE01.JPG,AFNE01.JPG,,,,,5,8,58,1,,,,,,,,,,,,,,,,,,,AMNE20.jpg,AMSA20.jpg,AMNE07.jpg,AMSA09.jpg,AMNE20.jpg,MN,1,num_8,16,num_8,1.50009349547,,,2017_Nov_07_1207,59.9991340501,FEMA4ImagesEEG,001,202275,
AFNE01.JPG,AFNE01.JPG,AFNE01.JPG,AFNE01.JPG,AFNE01.JPG,AFNE01.JPG,,,,,5,9,59,6,,,,,,,,,,,,,,,,,,,AMNE02.jpg,AMNE11.jpg,AMSA04.jpg,AMSA13.jpg,AMSA13.jpg,MS,2,num_4,32,num_2,2.36669152393,,,2017_Nov_07_1207,59.9991340501,FEMA4ImagesEEG,001,202275,
,,,,,,,,,,,,,,,,,,,,,,,,,,,,,,,,,,,,,,,,,,,space,1.38335682731,2017_Nov_07_1207,59.9991340501,FEMA4ImagesEEG,001,202275,
AFNE01.JPG,AFNE01.JPG,AFNE01.JPG,AFNE01.JPG,AFNE01.JPG,AFNE01.JPG,,,,,,,,,0,0,0,3,,,,,,,,,,,,,,,AFSA18.jpg,AFSA12.jpg,AFNE18.jpg,AFNE10.jpg,AFSA12.jpg,FS,4,num_6,16,num_6,0.716798891546,,,2017_Nov_07_1207,59.9991340501,FEMA4ImagesEEG,001,202275,
AFNE01.JPG,AFNE01.JPG,AFNE01.JPG,AFNE01.JPG,AFNE01.JPG,AFNE01.JPG,,,,,,,,,0,1,1,5,,,,,,,,,,,,,,,AFNE09.jpg,AFSA07.jpg,AFNE14.jpg,AFSA17.jpg,AFSA07.jpg,FS,4,num_6,16,num_6,0.68354879017,,,2017_Nov_07_1207,59.9991340501,FEMA4ImagesEEG,001,202275,
AFNE01.JPG,AFNE01.JPG,AFNE01.JPG,AFNE01.JPG,AFNE01.JPG,AFNE01.JPG,,,,,,,,,0,2,2,7,,,,,,,,,,,,,,,AFNE05.jpg,AFSA15.jpg,AFSA08.jpg,AFNE20.jpg,AFSA08.jpg,FS,4,num_2,32,num_6,1.21671277308,,,2017_Nov_07_1207,59.9991340501,FEMA4ImagesEEG,001,202275,
AFNE01.JPG,AFNE01.JPG,AFNE01.JPG,AFNE01.JPG,AFNE01.JPG,AFNE01.JPG,,,,,,,,,0,3,3,1,,,,,,,,,,,,,,,AFSA15.jpg,AFNE11.jpg,AFNE07.jpg,AFSA13.jpg,AFSA15.jpg,FS,4,num_8,32,num_2,1.86676930333,,,2017_Nov_07_1207,59.9991340501,FEMA4ImagesEEG,001,202275,
AFNE01.JPG,AFNE01.JPG,AFNE01.JPG,AFNE01.JPG,AFNE01.JPG,AFNE01.JPG,,,,,,,,,0,4,4,8,,,,,,,,,,,,,,,AFSA16.jpg,AFSA03.jpg,AFNE19.jpg,AFNE15.jpg,AFNE19.jpg,FN,3,num_2,32,num_8,0.800059016095,,,2017_Nov_07_1207,59.9991340501,FEMA4ImagesEEG,001,202275,
AFNE01.JPG,AFNE01.JPG,AFNE01.JPG,AFNE01.JPG,AFNE01.JPG,AFNE01.JPG,,,,,,,,,0,5,5,6,,,,,,,,,,,,,,,AFNE05.jpg,AFSA20.jpg,AFNE16.jpg,AFSA13.jpg,AFSA20.jpg,FS,4,num_6,32,num_2,1.4665646716,,,2017_Nov_07_1207,59.9991340501,FEMA4ImagesEEG,001,202275,
AFNE01.JPG,AFNE01.JPG,AFNE01.JPG,AFNE01.JPG,AFNE01.JPG,AFNE01.JPG,,,,,,,,,0,6,6,2,,,,,,,,,,,,,,,AFNE17.jpg,AFSA17.jpg,AFSA19.jpg,AFNE19.jpg,AFNE19.jpg,FN,3,num_4,32,num_8,0.98343380494,,,2017_Nov_07_1207,59.9991340501,FEMA4ImagesEEG,001,202275,
AFNE01.JPG,AFNE01.JPG,AFNE01.JPG,AFNE01.JPG,AFNE01.JPG,AFNE01.JPG,,,,,,,,,0,7,7,9,,,,,,,,,,,,,,,AFNE14.jpg,AFNE16.jpg,AFSA20.jpg,AFSA01.jpg,AFSA20.jpg,FS,4,num_2,16,num_2,0.700387934456,,,2017_Nov_07_1207,59.9991340501,FEMA4ImagesEEG,001,202275,
AFNE01.JPG,AFNE01.JPG,AFNE01.JPG,AFNE01.JPG,AFNE01.JPG,AFNE01.JPG,,,,,,,,,0,8,8,0,,,,,,,,,,,,,,,AFNE06.jpg,AFSA13.jpg,AFNE03.jpg,AFSA07.jpg,AFNE03.jpg,FN,3,num_2,32,num_8,1.33337984071,,,2017_Nov_07_1207,59.9991340501,FEMA4ImagesEEG,001,202275,
AFNE01.JPG,AFNE01.JPG,AFNE01.JPG,AFNE01.JPG,AFNE01.JPG,AFNE01.JPG,,,,,,,,,0,9,9,4,,,,,,,,,,,,,,,AFSA20.jpg,AFSA05.jpg,AFNE06.jpg,AFNE14.jpg,AFNE14.jpg,FN,3,num_4,32,num_2,1.8499962315,,,2017_Nov_07_1207,59.9991340501,FEMA4ImagesEEG,001,202275,
AFNE01.JPG,AFNE01.JPG,AFNE01.JPG,AFNE01.JPG,AFNE01.JPG,AFNE01.JPG,,,,,,,,,1,0,10,0,,,,,,,,,,,,,,,AFNE15.jpg,AFNE10.jpg,AFSA20.jpg,AFSA08.jpg,AFNE10.jpg,FN,3,num_6,32,num_8,1.83339539659,,,2017_Nov_07_1207,59.9991340501,FEMA4ImagesEEG,001,202275,
AFNE01.JPG,AFNE01.JPG,AFNE01.JPG,AFNE01.JPG,AFNE01.JPG,AFNE01.JPG,,,,,,,,,1,1,11,9,,,,,,,,,,,,,,,AFNE13.jpg,AFNE17.jpg,AFSA01.jpg,AFSA17.jpg,AFNE13.jpg,FN,3,num_8,16,num_8,0.966830083402,,,2017_Nov_07_1207,59.9991340501,FEMA4ImagesEEG,001,202275,
AFNE01.JPG,AFNE01.JPG,AFNE01.JPG,AFNE01.JPG,AFNE01.JPG,AFNE01.JPG,,,,,,,,,1,2,12,6,,,,,,,,,,,,,,,AFSA16.jpg,AFNE12.jpg,AFSA03.jpg,AFNE09.jpg,AFSA16.jpg,FS,4,num_8,32,num_2,0.816766978009,,,2017_Nov_07_1207,59.9991340501,FEMA4ImagesEEG,001,202275,
AFNE01.JPG,AFNE01.JPG,AFNE01.JPG,AFNE01.JPG,AFNE01.JPG,AFNE01.JPG,,,,,,,,,1,3,13,3,,,,,,,,,,,,,,,AFSA08.jpg,AFNE19.jpg,AFSA11.jpg,AFNE09.jpg,AFNE09.jpg,FN,3,num_4,32,num_8,3.66655601142,,,2017_Nov_07_1207,59.9991340501,FEMA4ImagesEEG,001,202275,
AFNE01.JPG,AFNE01.JPG,AFNE01.JPG,AFNE01.JPG,AFNE01.JPG,AFNE01.JPG,,,,,,,,,1,4,14,7,,,,,,,,,,,,,,,AFSA06.jpg,AFSA19.jpg,AFNE10.jpg,AFNE01.jpg,AFSA06.jpg,FS,4,num_8,32,num_6,0.633443827974,,,2017_Nov_07_1207,59.9991340501,FEMA4ImagesEEG,001,202275,
AFNE01.JPG,AFNE01.JPG,AFNE01.JPG,AFNE01.JPG,AFNE01.JPG,AFNE01.JPG,,,,,,,,,1,5,15,1,,,,,,,,,,,,,,,AFNE09.jpg,AFSA09.jpg,AFNE13.jpg,AFSA04.jpg,AFNE09.jpg,FN,3,num_8,16,num_8,1.30007072305,,,2017_Nov_07_1207,59.9991340501,FEMA4ImagesEEG,001,202275,
AFNE01.JPG,AFNE01.JPG,AFNE01.JPG,AFNE01.JPG,AFNE01.JPG,AFNE01.JPG,,,,,,,,,1,6,16,4,,,,,,,,,,,,,,,AFNE20.jpg,AFSA09.jpg,AFSA12.jpg,AFNE10.jpg,AFNE10.jpg,FN,3,num_4,16,num_4,1.00009910855,,,2017_Nov_07_1207,59.9991340501,FEMA4ImagesEEG,001,202275,
AFNE01.JPG,AFNE01.JPG,AFNE01.JPG,AFNE01.JPG,AFNE01.JPG,AFNE01.JPG,,,,,,,,,1,7,17,2,,,,,,,,,,,,,,,AFSA07.jpg,AFNE07.jpg,AFSA02.jpg,AFNE10.jpg,AFNE10.jpg,FN,3,num_4,16,num_4,0.633459544508,,,2017_Nov_07_1207,59.9991340501,FEMA4ImagesEEG,001,202275,
AFNE01.JPG,AFNE01.JPG,AFNE01.JPG,AFNE01.JPG,AFNE01.JPG,AFNE01.JPG,,,,,,,,,1,8,18,5,,,,,,,,,,,,,,,AFNE12.jpg,AFSA12.jpg,AFNE02.jpg,AFSA13.jpg,AFSA13.jpg,FS,4,num_4,16,num_4,0.650322423317,,,2017_Nov_07_1207,59.9991340501,FEMA4ImagesEEG,001,202275,
AFNE01.JPG,AFNE01.JPG,AFNE01.JPG,AFNE01.JPG,AFNE01.JPG,AFNE01.JPG,,,,,,,,,1,9,19,8,,,,,,,,,,,,,,,AFNE16.jpg,AFSA10.jpg,AFSA14.jpg,AFNE04.jpg,AFNE04.jpg,FN,3,num_4,32,num_8,1.01672656462,,,2017_Nov_07_1207,59.9991340501,FEMA4ImagesEEG,001,202275,
AFNE01.JPG,AFNE01.JPG,AFNE01.JPG,AFNE01.JPG,AFNE01.JPG,AFNE01.JPG,,,,,,,,,2,0,20,9,,,,,,,,,,,,,,,AFSA17.jpg,AFNE07.jpg,AFNE02.jpg,AFSA16.jpg,AFSA17.jpg,FS,4,num_8,16,num_8,0.966716541676,,,2017_Nov_07_1207,59.9991340501,FEMA4ImagesEEG,001,202275,
AFNE01.JPG,AFNE01.JPG,AFNE01.JPG,AFNE01.JPG,AFNE01.JPG,AFNE01.JPG,,,,,,,,,2,1,21,7,,,,,,,,,,,,,,,AFSA05.jpg,AFNE06.jpg,AFNE12.jpg,AFSA13.jpg,AFSA05.jpg,FS,4,num_8,16,num_8,0.533522890182,,,2017_Nov_07_1207,59.9991340501,FEMA4ImagesEEG,001,202275,
AFNE01.JPG,AFNE01.JPG,AFNE01.JPG,AFNE01.JPG,AFNE01.JPG,AFNE01.JPG,,,,,,,,,2,2,22,2,,,,,,,,,,,,,,,AFNE09.jpg,AFSA09.jpg,AFSA16.jpg,AFNE07.jpg,AFNE09.jpg,FN,3,num_8,32,num_2,1.86666442151,,,2017_Nov_07_1207,59.9991340501,FEMA4ImagesEEG,001,202275,
AFNE01.JPG,AFNE01.JPG,AFNE01.JPG,AFNE01.JPG,AFNE01.JPG,AFNE01.JPG,,,,,,,,,2,3,23,0,,,,,,,,,,,,,,,AFSA14.jpg,AFNE17.jpg,AFNE10.jpg,AFSA05.jpg,AFNE10.jpg,FN,3,num_2,32,num_8,1.11672800826,,,2017_Nov_07_1207,59.9991340501,FEMA4ImagesEEG,001,202275,
AFNE01.JPG,AFNE01.JPG,AFNE01.JPG,AFNE01.JPG,AFNE01.JPG,AFNE01.JPG,,,,,,,,,2,4,24,4,,,,,,,,,,,,,,,AFNE20.jpg,AFSA16.jpg,AFNE01.jpg,AFSA18.jpg,AFSA18.jpg,FS,4,num_4,32,num_8,1.66671413602,,,2017_Nov_07_1207,59.9991340501,FEMA4ImagesEEG,001,202275,
AFNE01.JPG,AFNE01.JPG,AFNE01.JPG,AFNE01.JPG,AFNE01.JPG,AFNE01.JPG,,,,,,,,,2,5,25,5,,,,,,,,,,,,,,,AFSA17.jpg,AFNE09.jpg,AFSA05.jpg,AFNE13.jpg,AFSA05.jpg,FS,4,num_2,16,num_2,0.450214334298,,,2017_Nov_07_1207,59.9991340501,FEMA4ImagesEEG,001,202275,
AFNE01.JPG,AFNE01.JPG,AFNE01.JPG,AFNE01.JPG,AFNE01.JPG,AFNE01.JPG,,,,,,,,,2,6,26,8,,,,,,,,,,,,,,,AFSA12.jpg,AFNE07.jpg,AFNE04.jpg,AFSA13.jpg,AFSA13.jpg,FS,4,num_4,16,num_4,0.766799613135,,,2017_Nov_07_1207,59.9991340501,FEMA4ImagesEEG,001,202275,
AFNE01.JPG,AFNE01.JPG,AFNE01.JPG,AFNE01.JPG,AFNE01.JPG,AFNE01.JPG,,,,,,,,,2,7,27,3,,,,,,,,,,,,,,,AFNE06.jpg,AFSA05.jpg,AFSA18.jpg,AFNE17.jpg,AFNE17.jpg,FN,3,num_4,32,num_8,1.13348119427,,,2017_Nov_07_1207,59.9991340501,FEMA4ImagesEEG,001,202275,
AFNE01.JPG,AFNE01.JPG,AFNE01.JPG,AFNE01.JPG,AFNE01.JPG,AFNE01.JPG,,,,,,,,,2,8,28,6,,,,,,,,,,,,,,,AFNE06.jpg,AFSA20.jpg,AFNE05.jpg,AFSA04.jpg,AFSA20.jpg,FS,4,num_6,32,num_4,1.11672704574,,,2017_Nov_07_1207,59.9991340501,FEMA4ImagesEEG,001,202275,
AFNE01.JPG,AFNE01.JPG,AFNE01.JPG,AFNE01.JPG,AFNE01.JPG,AFNE01.JPG,,,,,,,,,2,9,29,1,,,,,,,,,,,,,,,AFSA13.jpg,AFSA14.jpg,AFNE03.jpg,AFNE16.jpg,AFSA13.jpg,FS,4,num_8,16,num_8,0.400181538425,,,2017_Nov_07_1207,59.9991340501,FEMA4ImagesEEG,001,202275,
AFNE01.JPG,AFNE01.JPG,AFNE01.JPG,AFNE01.JPG,AFNE01.JPG,AFNE01.JPG,,,,,,,,,3,0,30,0,,,,,,,,,,,,,,,AFNE01.jpg,AFSA18.jpg,AFNE07.jpg,AFSA17.jpg,AFNE07.jpg,FN,3,num_2,32,num_8,1.00012252247,,,2017_Nov_07_1207,59.9991340501,FEMA4ImagesEEG,001,202275,
AFNE01.JPG,AFNE01.JPG,AFNE01.JPG,AFNE01.JPG,AFNE01.JPG,AFNE01.JPG,,,,,,,,,3,1,31,9,,,,,,,,,,,,,,,AFSA17.jpg,AFNE10.jpg,AFNE20.jpg,AFSA15.jpg,AFSA15.jpg,FS,4,num_4,32,num_6,0.966743483674,,,2017_Nov_07_1207,59.9991340501,FEMA4ImagesEEG,001,202275,
AFNE01.JPG,AFNE01.JPG,AFNE01.JPG,AFNE01.JPG,AFNE01.JPG,AFNE01.JPG,,,,,,,,,3,2,32,8,,,,,,,,,,,,,,,AFSA08.jpg,AFSA15.jpg,AFNE12.jpg,AFNE07.jpg,AFNE07.jpg,FN,3,num_4,16,num_4,1.64991861233,,,2017_Nov_07_1207,59.9991340501,FEMA4ImagesEEG,001,202275,
AFNE01.JPG,AFNE01.JPG,AFNE01.JPG,AFNE01.JPG,AFNE01.JPG,AFNE01.JPG,,,,,,,,,3,3,33,2,,,,,,,,,,,,,,,AFSA01.jpg,AFNE04.jpg,AFNE19.jpg,AFSA13.jpg,AFNE04.jpg,FN,3,num_6,16,num_6,1.30013711611,,,2017_Nov_07_1207,59.9991340501,FEMA4ImagesEEG,001,202275,
AFNE01.JPG,AFNE01.JPG,AFNE01.JPG,AFNE01.JPG,AFNE01.JPG,AFNE01.JPG,,,,,,,,,3,4,34,1,,,,,,,,,,,,,,,AFNE02.jpg,AFSA03.jpg,AFNE05.jpg,AFSA07.jpg,AFNE05.jpg,FN,3,num_2,32,num_8,0.916750139091,,,2017_Nov_07_1207,59.9991340501,FEMA4ImagesEEG,001,202275,
AFNE01.JPG,AFNE01.JPG,AFNE01.JPG,AFNE01.JPG,AFNE01.JPG,AFNE01.JPG,,,,,,,,,3,5,35,4,,,,,,,,,,,,,,,AFNE14.jpg,AFSA07.jpg,AFSA11.jpg,AFNE04.jpg,AFNE04.jpg,FN,3,num_4,32,num_2,1.11672608368,,,2017_Nov_07_1207,59.9991340501,FEMA4ImagesEEG,001,202275,
AFNE01.JPG,AFNE01.JPG,AFNE01.JPG,AFNE01.JPG,AFNE01.JPG,AFNE01.JPG,,,,,,,,,3,6,36,7,,,,,,,,,,,,,,,AFNE20.jpg,AFNE02.jpg,AFSA01.jpg,AFSA11.jpg,AFNE02.jpg,FN,3,num_6,16,num_6,0.766358596506,,,2017_Nov_07_1207,59.9991340501,FEMA4ImagesEEG,001,202275,
AFNE01.JPG,AFNE01.JPG,AFNE01.JPG,AFNE01.JPG,AFNE01.JPG,AFNE01.JPG,,,,,,,,,3,7,37,3,,,,,,,,,,,,,,,AFSA03.jpg,AFNE16.jpg,AFSA13.jpg,AFNE15.jpg,AFNE16.jpg,FN,3,num_6,32,num_8,1.1834155228,,,2017_Nov_07_1207,59.9991340501,FEMA4ImagesEEG,001,202275,
AFNE01.JPG,AFNE01.JPG,AFNE01.JPG,AFNE01.JPG,AFNE01.JPG,AFNE01.JPG,,,,,,,,,3,8,38,5,,,,,,,,,,,,,,,AFSA09.jpg,AFNE13.jpg,AFSA13.jpg,AFNE08.jpg,AFNE08.jpg,FN,3,num_4,32,num_6,0.633454412455,,,2017_Nov_07_1207,59.9991340501,FEMA4ImagesEEG,001,202275,
AFNE01.JPG,AFNE01.JPG,AFNE01.JPG,AFNE01.JPG,AFNE01.JPG,AFNE01.JPG,,,,,,,,,3,9,39,6,,,,,,,,,,,,,,,AFSA10.jpg,AFNE13.jpg,AFSA05.jpg,AFNE14.jpg,AFSA05.jpg,FS,4,num_2,16,num_2,1.56669441052,,,2017_Nov_07_1207,59.9991340501,FEMA4ImagesEEG,001,202275,
AFNE01.JPG,AFNE01.JPG,AFNE01.JPG,AFNE01.JPG,AFNE01.JPG,AFNE01.JPG,,,,,,,,,4,0,40,7,,,,,,,,,,,,,,,AFNE19.jpg,AFNE08.jpg,AFSA03.jpg,AFSA07.jpg,AFNE08.jpg,FN,3,num_6,32,num_4,1.01671726326,,,2017_Nov_07_1207,59.9991340501,FEMA4ImagesEEG,001,202275,
AFNE01.JPG,AFNE01.JPG,AFNE01.JPG,AFNE01.JPG,AFNE01.JPG,AFNE01.JPG,,,,,,,,,4,1,41,3,,,,,,,,,,,,,,,AFNE15.jpg,AFSA15.jpg,AFSA08.jpg,AFNE11.jpg,AFSA08.jpg,FS,4,num_2,32,num_6,1.01678526006,,,2017_Nov_07_1207,59.9991340501,FEMA4ImagesEEG,001,202275,
AFNE01.JPG,AFNE01.JPG,AFNE01.JPG,AFNE01.JPG,AFNE01.JPG,AFNE01.JPG,,,,,,,,,4,2,42,4,,,,,,,,,,,,,,,AFNE02.jpg,AFSA01.jpg,AFSA16.jpg,AFNE09.jpg,AFNE02.jpg,FN,3,num_8,16,num_8,0.766747974325,,,2017_Nov_07_1207,59.9991340501,FEMA4ImagesEEG,001,202275,
AFNE01.JPG,AFNE01.JPG,AFNE01.JPG,AFNE01.JPG,AFNE01.JPG,AFNE01.JPG,,,,,,,,,4,3,43,9,,,,,,,,,,,,,,,AFNE04.jpg,AFSA02.jpg,AFNE19.jpg,AFSA09.jpg,AFSA09.jpg,FS,4,num_4,32,num_6,1.06675936049,,,2017_Nov_07_1207,59.9991340501,FEMA4ImagesEEG,001,202275,
AFNE01.JPG,AFNE01.JPG,AFNE01.JPG,AFNE01.JPG,AFNE01.JPG,AFNE01.JPG,,,,,,,,,4,4,44,1,,,,,,,,,,,,,,,AFNE09.jpg,AFSA16.jpg,AFSA11.jpg,AFNE08.jpg,AFSA11.jpg,FS,4,num_2,16,num_2,1.14993705484,,,2017_Nov_07_1207,59.9991340501,FEMA4ImagesEEG,001,202275,
AFNE01.JPG,AFNE01.JPG,AFNE01.JPG,AFNE01.JPG,AFNE01.JPG,AFNE01.JPG,,,,,,,,,4,5,45,0,,,,,,,,,,,,,,,AFNE09.jpg,AFSA14.jpg,AFSA16.jpg,AFNE16.jpg,AFSA16.jpg,FS,4,num_2,16,num_2,0.78354895045,,,2017_Nov_07_1207,59.9991340501,FEMA4ImagesEEG,001,202275,
AFNE01.JPG,AFNE01.JPG,AFNE01.JPG,AFNE01.JPG,AFNE01.JPG,AFNE01.JPG,,,,,,,,,4,6,46,5,,,,,,,,,,,,,,,AFNE18.jpg,AFSA08.jpg,AFNE19.jpg,AFSA15.jpg,AFSA08.jpg,FS,4,num_6,16,num_6,0.783323791344,,,2017_Nov_07_1207,59.9991340501,FEMA4ImagesEEG,001,202275,
AFNE01.JPG,AFNE01.JPG,AFNE01.JPG,AFNE01.JPG,AFNE01.JPG,AFNE01.JPG,,,,,,,,,4,7,47,6,,,,,,,,,,,,,,,AFNE14.jpg,AFNE18.jpg,AFSA02.jpg,AFSA12.jpg,AFSA12.jpg,FS,4,num_4,16,num_4,0.33343244181,,,2017_Nov_07_1207,59.9991340501,FEMA4ImagesEEG,001,202275,
AFNE01.JPG,AFNE01.JPG,AFNE01.JPG,AFNE01.JPG,AFNE01.JPG,AFNE01.JPG,,,,,,,,,4,8,48,8,,,,,,,,,,,,,,,AFNE02.jpg,AFNE08.jpg,AFSA17.jpg,AFSA04.jpg,AFNE08.jpg,FN,3,num_6,16,num_6,0.616988288239,,,2017_Nov_07_1207,59.9991340501,FEMA4ImagesEEG,001,202275,
AFNE01.JPG,AFNE01.JPG,AFNE01.JPG,AFNE01.JPG,AFNE01.JPG,AFNE01.JPG,,,,,,,,,4,9,49,2,,,,,,,,,,,,,,,AFNE04.jpg,AFSA07.jpg,AFNE18.jpg,AFSA09.jpg,AFNE18.jpg,FN,3,num_2,16,num_2,1.35009614169,,,2017_Nov_07_1207,59.9991340501,FEMA4ImagesEEG,001,202275,
AFNE01.JPG,AFNE01.JPG,AFNE01.JPG,AFNE01.JPG,AFNE01.JPG,AFNE01.JPG,,,,,,,,,5,0,50,8,,,,,,,,,,,,,,,AFNE05.jpg,AFSA10.jpg,AFSA12.jpg,AFNE14.jpg,AFNE05.jpg,FN,3,num_8,16,num_8,0.750138800126,,,2017_Nov_07_1207,59.9991340501,FEMA4ImagesEEG,001,202275,
AFNE01.JPG,AFNE01.JPG,AFNE01.JPG,AFNE01.JPG,AFNE01.JPG,AFNE01.JPG,,,,,,,,,5,1,51,7,,,,,,,,,,,,,,,AFSA10.jpg,AFNE17.jpg,AFSA12.jpg,AFNE14.jpg,AFNE14.jpg,FN,3,num_4,32,num_8,0.950119876536,,,2017_Nov_07_1207,59.9991340501,FEMA4ImagesEEG,001,202275,
AFNE01.JPG,AFNE01.JPG,AFNE01.JPG,AFNE01.JPG,AFNE01.JPG,AFNE01.JPG,,,,,,,,,5,2,52,4,,,,,,,,,,,,,,,AFNE04.jpg,AFSA03.jpg,AFSA17.jpg,AFNE02.jpg,AFNE04.jpg,FN,3,num_8,32,num_2,0.800147861009,,,2017_Nov_07_1207,59.9991340501,FEMA4ImagesEEG,001,202275,
AFNE01.JPG,AFNE01.JPG,AFNE01.JPG,AFNE01.JPG,AFNE01.JPG,AFNE01.JPG,,,,,,,,,5,3,53,3,,,,,,,,,,,,,,,AFNE18.jpg,AFNE05.jpg,AFSA18.jpg,AFSA13.jpg,AFSA18.jpg,FS,4,num_2,32,num_6,1.11657758127,,,2017_Nov_07_1207,59.9991340501,FEMA4ImagesEEG,001,202275,
AFNE01.JPG,AFNE01.JPG,AFNE01.JPG,AFNE01.JPG,AFNE01.JPG,AFNE01.JPG,,,,,,,,,5,4,54,9,,,,,,,,,,,,,,,AFNE16.jpg,AFSA12.jpg,AFNE14.jpg,AFSA02.jpg,AFSA02.jpg,FS,4,num_4,16,num_4,0.716751101427,,,2017_Nov_07_1207,59.9991340501,FEMA4ImagesEEG,001,202275,
AFNE01.JPG,AFNE01.JPG,AFNE01.JPG,AFNE01.JPG,AFNE01.JPG,AFNE01.JPG,,,,,,,,,5,5,55,0,,,,,,,,,,,,,,,AFSA12.jpg,AFSA16.jpg,AFNE20.jpg,AFNE09.jpg,AFSA16.jpg,FS,4,num_6,16,num_6,0.833325475221,,,2017_Nov_07_1207,59.9991340501,FEMA4ImagesEEG,001,202275,
AFNE01.JPG,AFNE01.JPG,AFNE01.JPG,AFNE01.JPG,AFNE01.JPG,AFNE01.JPG,,,,,,,,,5,6,56,2,,,,,,,,,,,,,,,AFNE19.jpg,AFSA19.jpg,AFNE12.jpg,AFSA18.jpg,AFSA18.jpg,FS,4,num_4,32,num_6,1.31668823655,,,2017_Nov_07_1207,59.9991340501,FEMA4ImagesEEG,001,202275,
AFNE01.JPG,AFNE01.JPG,AFNE01.JPG,AFNE01.JPG,AFNE01.JPG,AFNE01.JPG,,,,,,,,,5,7,57,1,,,,,,,,,,,,,,,AFNE10.jpg,AFSA17.jpg,AFSA02.jpg,AFNE11.jpg,AFNE10.jpg,FN,3,num_8,32,num_6,0.766877552727,,,2017_Nov_07_1207,59.9991340501,FEMA4ImagesEEG,001,202275,
AFNE01.JPG,AFNE01.JPG,AFNE01.JPG,AFNE01.JPG,AFNE01.JPG,AFNE01.JPG,,,,,,,,,5,8,58,6,,,,,,,,,,,,,,,AFSA15.jpg,AFNE16.jpg,AFNE03.jpg,AFSA16.jpg,AFSA16.jpg,FS,4,num_4,32,num_6,0.866782132769,,,2017_Nov_07_1207,59.9991340501,FEMA4ImagesEEG,001,202275,
AFNE01.JPG,AFNE01.JPG,AFNE01.JPG,AFNE01.JPG,AFNE01.JPG,AFNE01.JPG,,,,,,,,,5,9,59,5,,,,,,,,,,,,,,,AFNE05.jpg,AFSA19.jpg,AFSA05.jpg,AFNE20.jpg,AFNE05.jpg,FN,3,num_8,32,num_4,0.966620319989,,,2017_Nov_07_1207,59.9991340501,FEMA4ImagesEEG,001,202275,
,,,,,,,,,,,,,,,,,,,,,,,,,,,,,,,,,,,,,,,,,,,space,3.08333325293,2017_Nov_07_1207,59.9991340501,FEMA4ImagesEEG,001,202275,
AFNE01.JPG,AFNE01.JPG,AFNE01.JPG,AFNE01.JPG,AFNE01.JPG,AFNE01.JPG,,,,,,,,,,,,,0,0,0,5,,,,,,,,,,,AMSA01.jpg,AMSA04.jpg,AMNE04.jpg,AMNE06.jpg,AMSA01.jpg,MS,2,num_8,32,num_6,0.833465638338,,,2017_Nov_07_1207,59.9991340501,FEMA4ImagesEEG,001,202275,
AFNE01.JPG,AFNE01.JPG,AFNE01.JPG,AFNE01.JPG,AFNE01.JPG,AFNE01.JPG,,,,,,,,,,,,,0,1,1,1,,,,,,,,,,,AMNE17.jpg,AMNE01.jpg,AMSA06.jpg,AMSA20.jpg,AMSA06.jpg,MS,2,num_2,32,num_4,0.883716216078,,,2017_Nov_07_1207,59.9991340501,FEMA4ImagesEEG,001,202275,
AFNE01.JPG,AFNE01.JPG,AFNE01.JPG,AFNE01.JPG,AFNE01.JPG,AFNE01.JPG,,,,,,,,,,,,,0,2,2,2,,,,,,,,,,,AMSA08.jpg,AMSA11.jpg,AMNE01.jpg,AMNE20.jpg,AMNE20.jpg,MN,1,num_4,16,num_4,0.866826715646,,,2017_Nov_07_1207,59.9991340501,FEMA4ImagesEEG,001,202275,
AFNE01.JPG,AFNE01.JPG,AFNE01.JPG,AFNE01.JPG,AFNE01.JPG,AFNE01.JPG,,,,,,,,,,,,,0,3,3,8,,,,,,,,,,,AMNE20.jpg,AMSA14.jpg,AMNE07.jpg,AMSA15.jpg,AMNE07.jpg,MN,1,num_2,32,num_8,0.9999900572,,,2017_Nov_07_1207,59.9991340501,FEMA4ImagesEEG,001,202275,
AFNE01.JPG,AFNE01.JPG,AFNE01.JPG,AFNE01.JPG,AFNE01.JPG,AFNE01.JPG,,,,,,,,,,,,,0,4,4,3,,,,,,,,,,,AMSA07.jpg,AMNE01.jpg,AMNE11.jpg,AMSA11.jpg,AMNE11.jpg,MN,1,num_2,32,num_8,0.883550714469,,,2017_Nov_07_1207,59.9991340501,FEMA4ImagesEEG,001,202275,
AFNE01.JPG,AFNE01.JPG,AFNE01.JPG,AFNE01.JPG,AFNE01.JPG,AFNE01.JPG,,,,,,,,,,,,,0,5,5,4,,,,,,,,,,,AMSA04.jpg,AMNE10.jpg,AMSA07.jpg,AMNE07.jpg,AMNE10.jpg,MN,1,num_6,32,num_2,1.66655248334,,,2017_Nov_07_1207,59.9991340501,FEMA4ImagesEEG,001,202275,
AFNE01.JPG,AFNE01.JPG,AFNE01.JPG,AFNE01.JPG,AFNE01.JPG,AFNE01.JPG,,,,,,,,,,,,,0,6,6,9,,,,,,,,,,,AMSA14.jpg,AMSA11.jpg,AMNE07.jpg,AMNE05.jpg,AMSA14.jpg,MS,2,num_8,16,num_8,0.566777161323,,,2017_Nov_07_1207,59.9991340501,FEMA4ImagesEEG,001,202275,
AFNE01.JPG,AFNE01.JPG,AFNE01.JPG,AFNE01.JPG,AFNE01.JPG,AFNE01.JPG,,,,,,,,,,,,,0,7,7,0,,,,,,,,,,,AMSA12.jpg,AMSA14.jpg,AMNE07.jpg,AMNE15.jpg,AMNE07.jpg,MN,1,num_2,16,num_2,1.26673113531,,,2017_Nov_07_1207,59.9991340501,FEMA4ImagesEEG,001,202275,
AFNE01.JPG,AFNE01.JPG,AFNE01.JPG,AFNE01.JPG,AFNE01.JPG,AFNE01.JPG,,,,,,,,,,,,,0,8,8,6,,,,,,,,,,,AMSA08.jpg,AMSA09.jpg,AMNE07.jpg,AMNE13.jpg,AMNE13.jpg,MN,1,num_4,32,num_8,1.05013831891,,,2017_Nov_07_1207,59.9991340501,FEMA4ImagesEEG,001,202275,
AFNE01.JPG,AFNE01.JPG,AFNE01.JPG,AFNE01.JPG,AFNE01.JPG,AFNE01.JPG,,,,,,,,,,,,,0,9,9,7,,,,,,,,,,,AMNE14.jpg,AMSA19.jpg,AMSA01.jpg,AMNE12.jpg,AMNE12.jpg,MN,1,num_4,16,num_4,0.900099589722,,,2017_Nov_07_1207,59.9991340501,FEMA4ImagesEEG,001,202275,
AFNE01.JPG,AFNE01.JPG,AFNE01.JPG,AFNE01.JPG,AFNE01.JPG,AFNE01.JPG,,,,,,,,,,,,,1,0,10,2,,,,,,,,,,,AMNE12.jpg,AMSA14.jpg,AMNE05.jpg,AMSA16.jpg,AMSA14.jpg,MS,2,num_6,16,num_6,0.950104160002,,,2017_Nov_07_1207,59.9991340501,FEMA4ImagesEEG,001,202275,
AFNE01.JPG,AFNE01.JPG,AFNE01.JPG,AFNE01.JPG,AFNE01.JPG,AFNE01.JPG,,,,,,,,,,,,,1,1,11,5,,,,,,,,,,,AMNE11.jpg,AMSA11.jpg,AMNE16.jpg,AMSA03.jpg,AMSA11.jpg,MS,2,num_6,32,num_4,1.20011225878,,,2017_Nov_07_1207,59.9991340501,FEMA4ImagesEEG,001,202275,
AFNE01.JPG,AFNE01.JPG,AFNE01.JPG,AFNE01.JPG,AFNE01.JPG,AFNE01.JPG,,,,,,,,,,,,,1,2,12,9,,,,,,,,,,,AMSA19.jpg,AMNE08.jpg,AMNE13.jpg,AMSA03.jpg,AMSA19.jpg,MS,2,num_8,32,num_2,1.08344807802,,,2017_Nov_07_1207,59.9991340501,FEMA4ImagesEEG,001,202275,
AFNE01.JPG,AFNE01.JPG,AFNE01.JPG,AFNE01.JPG,AFNE01.JPG,AFNE01.JPG,,,,,,,,,,,,,1,3,13,7,,,,,,,,,,,AMSA02.jpg,AMNE13.jpg,AMNE04.jpg,AMSA10.jpg,AMNE13.jpg,MN,1,num_6,32,num_2,1.26679656608,,,2017_Nov_07_1207,59.9991340501,FEMA4ImagesEEG,001,202275,
AFNE01.JPG,AFNE01.JPG,AFNE01.JPG,AFNE01.JPG,AFNE01.JPG,AFNE01.JPG,,,,,,,,,,,,,1,4,14,3,,,,,,,,,,,AMNE07.jpg,AMSA06.jpg,AMNE10.jpg,AMSA01.jpg,AMNE07.jpg,MN,1,num_8,32,num_6,1.16638682131,,,2017_Nov_07_1207,59.9991340501,FEMA4ImagesEEG,001,202275,
AFNE01.JPG,AFNE01.JPG,AFNE01.JPG,AFNE01.JPG,AFNE01.JPG,AFNE01.JPG,,,,,,,,,,,,,1,5,15,1,,,,,,,,,,,AMSA03.jpg,AMSA12.jpg,AMNE19.jpg,AMNE01.jpg,AMSA03.jpg,MS,2,num_8,16,num_8,1.2999289562,,,2017_Nov_07_1207,59.9991340501,FEMA4ImagesEEG,001,202275,
AFNE01.JPG,AFNE01.JPG,AFNE01.JPG,AFNE01.JPG,AFNE01.JPG,AFNE01.JPG,,,,,,,,,,,,,1,6,16,8,,,,,,,,,,,AMNE14.jpg,AMSA06.jpg,AMSA14.jpg,AMNE13.jpg,AMSA06.jpg,MS,2,num_6,16,num_6,0.750098386779,,,2017_Nov_07_1207,59.9991340501,FEMA4ImagesEEG,001,202275,
AFNE01.JPG,AFNE01.JPG,AFNE01.JPG,AFNE01.JPG,AFNE01.JPG,AFNE01.JPG,,,,,,,,,,,,,1,7,17,0,,,,,,,,,,,AMSA05.jpg,AMSA18.jpg,AMNE06.jpg,AMNE04.jpg,AMSA05.jpg,MS,2,num_8,32,num_6,1.70001908392,,,2017_Nov_07_1207,59.9991340501,FEMA4ImagesEEG,001,202275,
AFNE01.JPG,AFNE01.JPG,AFNE01.JPG,AFNE01.JPG,AFNE01.JPG,AFNE01.JPG,,,,,,,,,,,,,1,8,18,6,,,,,,,,,,,AMSA02.jpg,AMSA13.jpg,AMNE19.jpg,AMNE06.jpg,AMNE06.jpg,MN,1,num_4,16,num_4,2.34998131683,,,2017_Nov_07_1207,59.9991340501,FEMA4ImagesEEG,001,202275,
AFNE01.JPG,AFNE01.JPG,AFNE01.JPG,AFNE01.JPG,AFNE01.JPG,AFNE01.JPG,,,,,,,,,,,,,1,9,19,4,,,,,,,,,,,AMNE19.jpg,AMSA11.jpg,AMSA12.jpg,AMNE06.jpg,AMNE19.jpg,MN,1,num_8,32,num_2,1.01674901647,,,2017_Nov_07_1207,59.9991340501,FEMA4ImagesEEG,001,202275,
AFNE01.JPG,AFNE01.JPG,AFNE01.JPG,AFNE01.JPG,AFNE01.JPG,AFNE01.JPG,,,,,,,,,,,,,2,0,20,9,,,,,,,,,,,AMSA17.jpg,AMNE03.jpg,AMNE09.jpg,AMSA14.jpg,AMNE03.jpg,MN,1,num_6,16,num_6,1.31673121545,,,2017_Nov_07_1207,59.9991340501,FEMA4ImagesEEG,001,202275,
AFNE01.JPG,AFNE01.JPG,AFNE01.JPG,AFNE01.JPG,AFNE01.JPG,AFNE01.JPG,,,,,,,,,,,,,2,1,21,1,,,,,,,,,,,AMSA08.jpg,AMNE17.jpg,AMNE20.jpg,AMSA10.jpg,AMSA10.jpg,MS,2,num_4,32,num_8,0.816803221591,,,2017_Nov_07_1207,59.9991340501,FEMA4ImagesEEG,001,202275,
AFNE01.JPG,AFNE01.JPG,AFNE01.JPG,AFNE01.JPG,AFNE01.JPG,AFNE01.JPG,,,,,,,,,,,,,2,2,22,5,,,,,,,,,,,AMSA01.jpg,AMNE10.jpg,AMSA05.jpg,AMNE11.jpg,AMSA05.jpg,MS,2,num_2,32,num_6,1.13343853573,,,2017_Nov_07_1207,59.9991340501,FEMA4ImagesEEG,001,202275,
AFNE01.JPG,AFNE01.JPG,AFNE01.JPG,AFNE01.JPG,AFNE01.JPG,AFNE01.JPG,,,,,,,,,,,,,2,3,23,0,,,,,,,,,,,AMSA16.jpg,AMNE01.jpg,AMSA05.jpg,AMNE13.jpg,AMNE13.jpg,MN,1,num_4,16,num_4,0.833468524972,,,2017_Nov_07_1207,59.9991340501,FEMA4ImagesEEG,001,202275,
AFNE01.JPG,AFNE01.JPG,AFNE01.JPG,AFNE01.JPG,AFNE01.JPG,AFNE01.JPG,,,,,,,,,,,,,2,4,24,3,,,,,,,,,,,AMNE19.jpg,AMSA16.jpg,AMSA07.jpg,AMNE20.jpg,AMSA16.jpg,MS,2,num_6,32,num_2,1.23341015051,,,2017_Nov_07_1207,59.9991340501,FEMA4ImagesEEG,001,202275,
AFNE01.JPG,AFNE01.JPG,AFNE01.JPG,AFNE01.JPG,AFNE01.JPG,AFNE01.JPG,,,,,,,,,,,,,2,5,25,8,,,,,,,,,,,AMNE04.jpg,AMSA08.jpg,AMSA14.jpg,AMNE09.jpg,AMSA14.jpg,MS,2,num_2,16,num_2,0.816741318908,,,2017_Nov_07_1207,59.9991340501,FEMA4ImagesEEG,001,202275,
AFNE01.JPG,AFNE01.JPG,AFNE01.JPG,AFNE01.JPG,AFNE01.JPG,AFNE01.JPG,,,,,,,,,,,,,2,6,26,2,,,,,,,,,,,AMNE04.jpg,AMSA19.jpg,AMNE14.jpg,AMSA10.jpg,AMNE04.jpg,MN,1,num_8,16,num_8,0.900140965125,,,2017_Nov_07_1207,59.9991340501,FEMA4ImagesEEG,001,202275,
AFNE01.JPG,AFNE01.JPG,AFNE01.JPG,AFNE01.JPG,AFNE01.JPG,AFNE01.JPG,,,,,,,,,,,,,2,7,27,7,,,,,,,,,,,AMSA10.jpg,AMNE03.jpg,AMSA14.jpg,AMNE15.jpg,AMSA10.jpg,MS,2,num_8,16,num_8,0.73346932698,,,2017_Nov_07_1207,59.9991340501,FEMA4ImagesEEG,001,202275,
AFNE01.JPG,AFNE01.JPG,AFNE01.JPG,AFNE01.JPG,AFNE01.JPG,AFNE01.JPG,,,,,,,,,,,,,2,8,28,6,,,,,,,,,,,AMSA04.jpg,AMSA05.jpg,AMNE05.jpg,AMNE16.jpg,AMSA05.jpg,MS,2,num_6,16,num_6,1.60006382712,,,2017_Nov_07_1207,59.9991340501,FEMA4ImagesEEG,001,202275,
AFNE01.JPG,AFNE01.JPG,AFNE01.JPG,AFNE01.JPG,AFNE01.JPG,AFNE01.JPG,,,,,,,,,,,,,2,9,29,4,,,,,,,,,,,AMNE12.jpg,AMSA10.jpg,AMSA08.jpg,AMNE09.jpg,AMSA10.jpg,MS,2,num_6,16,num_6,0.60014561587,,,2017_Nov_07_1207,59.9991340501,FEMA4ImagesEEG,001,202275,
AFNE01.JPG,AFNE01.JPG,AFNE01.JPG,AFNE01.JPG,AFNE01.JPG,AFNE01.JPG,,,,,,,,,,,,,3,0,30,3,,,,,,,,,,,AMSA01.jpg,AMSA11.jpg,AMNE02.jpg,AMNE05.jpg,AMSA11.jpg,MS,2,num_6,16,num_6,0.550017881207,,,2017_Nov_07_1207,59.9991340501,FEMA4ImagesEEG,001,202275,
AFNE01.JPG,AFNE01.JPG,AFNE01.JPG,AFNE01.JPG,AFNE01.JPG,AFNE01.JPG,,,,,,,,,,,,,3,1,31,6,,,,,,,,,,,AMSA19.jpg,AMSA06.jpg,AMNE11.jpg,AMNE19.jpg,AMNE11.jpg,MN,1,num_2,16,num_2,1.50006976072,,,2017_Nov_07_1207,59.9991340501,FEMA4ImagesEEG,001,202275,
AFNE01.JPG,AFNE01.JPG,AFNE01.JPG,AFNE01.JPG,AFNE01.JPG,AFNE01.JPG,,,,,,,,,,,,,3,2,32,5,,,,,,,,,,,AMSA16.jpg,AMNE16.jpg,AMSA01.jpg,AMNE13.jpg,AMNE13.jpg,MN,1,num_4,16,num_4,1.06675519072,,,2017_Nov_07_1207,59.9991340501,FEMA4ImagesEEG,001,202275,
AFNE01.JPG,AFNE01.JPG,AFNE01.JPG,AFNE01.JPG,AFNE01.JPG,AFNE01.JPG,,,,,,,,,,,,,3,3,33,8,,,,,,,,,,,AMSA01.jpg,AMNE20.jpg,AMSA03.jpg,AMNE13.jpg,AMNE20.jpg,MN,1,num_6,16,num_6,1.65006486955,,,2017_Nov_07_1207,59.9991340501,FEMA4ImagesEEG,001,202275,
AFNE01.JPG,AFNE01.JPG,AFNE01.JPG,AFNE01.JPG,AFNE01.JPG,AFNE01.JPG,,,,,,,,,,,,,3,4,34,1,,,,,,,,,,,AMNE18.jpg,AMNE08.jpg,AMSA17.jpg,AMSA15.jpg,AMSA17.jpg,MS,2,num_2,32,num_8,2.69997770851,,,2017_Nov_07_1207,59.9991340501,FEMA4ImagesEEG,001,202275,
AFNE01.JPG,AFNE01.JPG,AFNE01.JPG,AFNE01.JPG,AFNE01.JPG,AFNE01.JPG,,,,,,,,,,,,,3,5,35,7,,,,,,,,,,,AMNE01.jpg,AMNE16.jpg,AMSA12.jpg,AMSA05.jpg,AMNE16.jpg,MN,1,num_6,16,num_6,0.833471090999,,,2017_Nov_07_1207,59.9991340501,FEMA4ImagesEEG,001,202275,
AFNE01.JPG,AFNE01.JPG,AFNE01.JPG,AFNE01.JPG,AFNE01.JPG,AFNE01.JPG,,,,,,,,,,,,,3,6,36,0,,,,,,,,,,,AMNE14.jpg,AMNE09.jpg,AMSA20.jpg,AMSA10.jpg,AMSA20.jpg,MS,2,num_2,16,num_2,2.13334744587,,,2017_Nov_07_1207,59.9991340501,FEMA4ImagesEEG,001,202275,
AFNE01.JPG,AFNE01.JPG,AFNE01.JPG,AFNE01.JPG,AFNE01.JPG,AFNE01.JPG,,,,,,,,,,,,,3,7,37,2,,,,,,,,,,,AMNE12.jpg,AMSA10.jpg,AMNE15.jpg,AMSA17.jpg,AMSA17.jpg,MS,2,num_4,16,num_4,0.683454492595,,,2017_Nov_07_1207,59.9991340501,FEMA4ImagesEEG,001,202275,
AFNE01.JPG,AFNE01.JPG,AFNE01.JPG,AFNE01.JPG,AFNE01.JPG,AFNE01.JPG,,,,,,,,,,,,,3,8,38,4,,,,,,,,,,,AMSA15.jpg,AMSA07.jpg,AMNE07.jpg,AMNE19.jpg,AMNE19.jpg,MN,1,num_4,16,num_4,0.967116824584,,,2017_Nov_07_1207,59.9991340501,FEMA4ImagesEEG,001,202275,
AFNE01.JPG,AFNE01.JPG,AFNE01.JPG,AFNE01.JPG,AFNE01.JPG,AFNE01.JPG,,,,,,,,,,,,,3,9,39,9,,,,,,,,,,,AMSA01.jpg,AMNE11.jpg,AMSA12.jpg,AMNE17.jpg,AMSA01.jpg,MS,2,num_8,32,num_2,0.916715499246,,,2017_Nov_07_1207,59.9991340501,FEMA4ImagesEEG,001,202275,
AFNE01.JPG,AFNE01.JPG,AFNE01.JPG,AFNE01.JPG,AFNE01.JPG,AFNE01.JPG,,,,,,,,,,,,,4,0,40,3,,,,,,,,,,,AMNE01.jpg,AMSA16.jpg,AMNE08.jpg,AMSA01.jpg,AMNE08.jpg,MN,1,num_2,32,num_8,0.933479911415,,,2017_Nov_07_1207,59.9991340501,FEMA4ImagesEEG,001,202275,
AFNE01.JPG,AFNE01.JPG,AFNE01.JPG,AFNE01.JPG,AFNE01.JPG,AFNE01.JPG,,,,,,,,,,,,,4,1,41,7,,,,,,,,,,,AMNE19.jpg,AMNE16.jpg,AMSA13.jpg,AMSA08.jpg,AMNE16.jpg,MN,1,num_6,16,num_6,0.916931036161,,,2017_Nov_07_1207,59.9991340501,FEMA4ImagesEEG,001,202275,
AFNE01.JPG,AFNE01.JPG,AFNE01.JPG,AFNE01.JPG,AFNE01.JPG,AFNE01.JPG,,,,,,,,,,,,,4,2,42,2,,,,,,,,,,,AMSA14.jpg,AMSA01.jpg,AMNE13.jpg,AMNE04.jpg,AMSA14.jpg,MS,2,num_8,16,num_8,0.433520164108,,,2017_Nov_07_1207,59.9991340501,FEMA4ImagesEEG,001,202275,
AFNE01.JPG,AFNE01.JPG,AFNE01.JPG,AFNE01.JPG,AFNE01.JPG,AFNE01.JPG,,,,,,,,,,,,,4,3,43,9,,,,,,,,,,,AMNE09.jpg,AMSA12.jpg,AMSA04.jpg,AMNE16.jpg,AMSA12.jpg,MS,2,num_6,16,num_6,1.23341335775,,,2017_Nov_07_1207,59.9991340501,FEMA4ImagesEEG,001,202275,
AFNE01.JPG,AFNE01.JPG,AFNE01.JPG,AFNE01.JPG,AFNE01.JPG,AFNE01.JPG,,,,,,,,,,,,,4,4,44,6,,,,,,,,,,,AMNE14.jpg,AMSA05.jpg,AMNE13.jpg,AMSA12.jpg,AMSA12.jpg,MS,2,num_4,32,num_6,1.00039322674,,,2017_Nov_07_1207,59.9991340501,FEMA4ImagesEEG,001,202275,
AFNE01.JPG,AFNE01.JPG,AFNE01.JPG,AFNE01.JPG,AFNE01.JPG,AFNE01.JPG,,,,,,,,,,,,,4,5,45,4,,,,,,,,,,,AMSA04.jpg,AMSA18.jpg,AMNE17.jpg,AMNE13.jpg,AMSA04.jpg,MS,2,num_8,32,num_6,0.716766496887,,,2017_Nov_07_1207,59.9991340501,FEMA4ImagesEEG,001,202275,
AFNE01.JPG,AFNE01.JPG,AFNE01.JPG,AFNE01.JPG,AFNE01.JPG,AFNE01.JPG,,,,,,,,,,,,,4,6,46,8,,,,,,,,,,,AMNE03.jpg,AMNE11.jpg,AMSA02.jpg,AMSA06.jpg,AMSA02.jpg,MS,2,num_2,16,num_2,1.05012613093,,,2017_Nov_07_1207,59.9991340501,FEMA4ImagesEEG,001,202275,
AFNE01.JPG,AFNE01.JPG,AFNE01.JPG,AFNE01.JPG,AFNE01.JPG,AFNE01.JPG,,,,,,,,,,,,,4,7,47,1,,,,,,,,,,,AMNE02.jpg,AMSA14.jpg,AMSA11.jpg,AMNE17.jpg,AMNE02.jpg,MN,1,num_8,16,num_8,1.38340910804,,,2017_Nov_07_1207,59.9991340501,FEMA4ImagesEEG,001,202275,
AFNE01.JPG,AFNE01.JPG,AFNE01.JPG,AFNE01.JPG,AFNE01.JPG,AFNE01.JPG,,,,,,,,,,,,,4,8,48,0,,,,,,,,,,,AMNE18.jpg,AMSA06.jpg,AMNE05.jpg,AMSA17.jpg,AMSA06.jpg,MS,2,num_6,16,num_6,0.816771788988,,,2017_Nov_07_1207,59.9991340501,FEMA4ImagesEEG,001,202275,
AFNE01.JPG,AFNE01.JPG,AFNE01.JPG,AFNE01.JPG,AFNE01.JPG,AFNE01.JPG,,,,,,,,,,,,,4,9,49,5,,,,,,,,,,,AMNE04.jpg,AMNE06.jpg,AMSA01.jpg,AMSA14.jpg,AMNE06.jpg,MN,1,num_6,16,num_6,1.40005163895,,,2017_Nov_07_1207,59.9991340501,FEMA4ImagesEEG,001,202275,
AFNE01.JPG,AFNE01.JPG,AFNE01.JPG,AFNE01.JPG,AFNE01.JPG,AFNE01.JPG,,,,,,,,,,,,,5,0,50,0,,,,,,,,,,,AMNE19.jpg,AMSA06.jpg,AMSA15.jpg,AMNE10.jpg,AMSA15.jpg,MS,2,num_2,16,num_2,2.99994771951,,,2017_Nov_07_1207,59.9991340501,FEMA4ImagesEEG,001,202275,
AFNE01.JPG,AFNE01.JPG,AFNE01.JPG,AFNE01.JPG,AFNE01.JPG,AFNE01.JPG,,,,,,,,,,,,,5,1,51,4,,,,,,,,,,,AMSA08.jpg,AMNE20.jpg,AMSA02.jpg,AMNE02.jpg,AMNE02.jpg,MN,1,num_4,32,num_8,1.20009782538,,,2017_Nov_07_1207,59.9991340501,FEMA4ImagesEEG,001,202275,
AFNE01.JPG,AFNE01.JPG,AFNE01.JPG,AFNE01.JPG,AFNE01.JPG,AFNE01.JPG,,,,,,,,,,,,,5,2,52,5,,,,,,,,,,,AMSA17.jpg,AMNE06.jpg,AMSA07.jpg,AMNE05.jpg,AMNE05.jpg,MN,1,num_4,32,num_6,0.933499155566,,,2017_Nov_07_1207,59.9991340501,FEMA4ImagesEEG,001,202275,
AFNE01.JPG,AFNE01.JPG,AFNE01.JPG,AFNE01.JPG,AFNE01.JPG,AFNE01.JPG,,,,,,,,,,,,,5,3,53,3,,,,,,,,,,,AMNE02.jpg,AMNE05.jpg,AMSA08.jpg,AMSA15.jpg,AMSA15.jpg,MS,2,num_4,16,num_4,0.933471251279,,,2017_Nov_07_1207,59.9991340501,FEMA4ImagesEEG,001,202275,
AFNE01.JPG,AFNE01.JPG,AFNE01.JPG,AFNE01.JPG,AFNE01.JPG,AFNE01.JPG,,,,,,,,,,,,,5,4,54,7,,,,,,,,,,,AMSA15.jpg,AMSA20.jpg,AMNE19.jpg,AMNE13.jpg,AMNE19.jpg,MN,1,num_2,32,num_4,0.966765294084,,,2017_Nov_07_1207,59.9991340501,FEMA4ImagesEEG,001,202275,
AFNE01.JPG,AFNE01.JPG,AFNE01.JPG,AFNE01.JPG,AFNE01.JPG,AFNE01.JPG,,,,,,,,,,,,,5,5,55,9,,,,,,,,,,,AMNE09.jpg,AMNE15.jpg,AMSA01.jpg,AMSA04.jpg,AMSA04.jpg,MS,2,num_4,32,num_2,0.866753907874,,,2017_Nov_07_1207,59.9991340501,FEMA4ImagesEEG,001,202275,
AFNE01.JPG,AFNE01.JPG,AFNE01.JPG,AFNE01.JPG,AFNE01.JPG,AFNE01.JPG,,,,,,,,,,,,,5,6,56,1,,,,,,,,,,,AMSA05.jpg,AMNE19.jpg,AMSA20.jpg,AMNE15.jpg,AMSA20.jpg,MS,2,num_2,16,num_2,1.40005195979,,,2017_Nov_07_1207,59.9991340501,FEMA4ImagesEEG,001,202275,
AFNE01.JPG,AFNE01.JPG,AFNE01.JPG,AFNE01.JPG,AFNE01.JPG,AFNE01.JPG,,,,,,,,,,,,,5,7,57,8,,,,,,,,,,,AMSA17.jpg,AMSA06.jpg,AMNE20.jpg,AMNE16.jpg,AMNE16.jpg,MN,1,num_4,16,num_4,1.01676601567,,,2017_Nov_07_1207,59.9991340501,FEMA4ImagesEEG,001,202275,
AFNE01.JPG,AFNE01.JPG,AFNE01.JPG,AFNE01.JPG,AFNE01.JPG,AFNE01.JPG,,,,,,,,,,,,,5,8,58,6,,,,,,,,,,,AMSA07.jpg,AMNE06.jpg,AMSA19.jpg,AMNE02.jpg,AMNE02.jpg,MN,1,num_4,16,num_4,1.06672536186,,,2017_Nov_07_1207,59.9991340501,FEMA4ImagesEEG,001,202275,
AFNE01.JPG,AFNE01.JPG,AFNE01.JPG,AFNE01.JPG,AFNE01.JPG,AFNE01.JPG,,,,,,,,,,,,,5,9,59,2,,,,,,,,,,,AMSA12.jpg,AMSA07.jpg,AMNE20.jpg,AMNE16.jpg,AMNE20.jpg,MN,1,num_2,16,num_2,1.95017985487,,,2017_Nov_07_1207,59.9991340501,FEMA4ImagesEEG,001,202275,
,,,,,,,,,,,,,,,,,,,,,,,,,,,,,,,,,,,,,,,,,,,space,1.76670307061,2017_Nov_07_1207,59.9991340501,FEMA4ImagesEEG,001,202275,
AFNE01.JPG,AFNE01.JPG,AFNE01.JPG,AFNE01.JPG,AFNE01.JPG,AFNE01.JPG,,,,,,,,,,,,,,,,,0,0,0,0,,,,,,,AFNE02.jpg,AFNE16.jpg,AFSA15.jpg,AFSA16.jpg,AFSA16.jpg,FS,4,num_4,16,num_4,0.716829682468,,,2017_Nov_07_1207,59.9991340501,FEMA4ImagesEEG,001,202275,
AFNE01.JPG,AFNE01.JPG,AFNE01.JPG,AFNE01.JPG,AFNE01.JPG,AFNE01.JPG,,,,,,,,,,,,,,,,,0,1,1,1,,,,,,,AFNE03.jpg,AFSA14.jpg,AFSA03.jpg,AFNE01.jpg,AFNE03.jpg,FN,3,num_8,16,num_8,1.53339555673,,,2017_Nov_07_1207,59.9991340501,FEMA4ImagesEEG,001,202275,
AFNE01.JPG,AFNE01.JPG,AFNE01.JPG,AFNE01.JPG,AFNE01.JPG,AFNE01.JPG,,,,,,,,,,,,,,,,,0,2,2,4,,,,,,,AFNE07.jpg,AFNE02.jpg,AFSA05.jpg,AFSA15.jpg,AFNE07.jpg,FN,3,num_8,32,num_6,0.866793679539,,,2017_Nov_07_1207,59.9991340501,FEMA4ImagesEEG,001,202275,
AFNE01.JPG,AFNE01.JPG,AFNE01.JPG,AFNE01.JPG,AFNE01.JPG,AFNE01.JPG,,,,,,,,,,,,,,,,,0,3,3,8,,,,,,,AFNE03.jpg,AFSA04.jpg,AFSA03.jpg,AFNE10.jpg,AFSA04.jpg,FS,4,num_6,16,num_6,0.766794160707,,,2017_Nov_07_1207,59.9991340501,FEMA4ImagesEEG,001,202275,
AFNE01.JPG,AFNE01.JPG,AFNE01.JPG,AFNE01.JPG,AFNE01.JPG,AFNE01.JPG,,,,,,,,,,,,,,,,,0,4,4,5,,,,,,,AFNE01.jpg,AFNE07.jpg,AFSA07.jpg,AFSA16.jpg,AFNE01.jpg,FN,3,num_8,32,num_6,0.783467161702,,,2017_Nov_07_1207,59.9991340501,FEMA4ImagesEEG,001,202275,
AFNE01.JPG,AFNE01.JPG,AFNE01.JPG,AFNE01.JPG,AFNE01.JPG,AFNE01.JPG,,,,,,,,,,,,,,,,,0,5,5,2,,,,,,,AFSA14.jpg,AFNE06.jpg,AFNE18.jpg,AFSA19.jpg,AFSA14.jpg,FS,4,num_8,32,num_4,1.53339683963,,,2017_Nov_07_1207,59.9991340501,FEMA4ImagesEEG,001,202275,
AFNE01.JPG,AFNE01.JPG,AFNE01.JPG,AFNE01.JPG,AFNE01.JPG,AFNE01.JPG,,,,,,,,,,,,,,,,,0,6,6,7,,,,,,,AFNE05.jpg,AFSA17.jpg,AFSA20.jpg,AFNE09.jpg,AFNE09.jpg,FN,3,num_4,16,num_4,1.28333293227,,,2017_Nov_07_1207,59.9991340501,FEMA4ImagesEEG,001,202275,
AFNE01.JPG,AFNE01.JPG,AFNE01.JPG,AFNE01.JPG,AFNE01.JPG,AFNE01.JPG,,,,,,,,,,,,,,,,,0,7,7,6,,,,,,,AFNE01.jpg,AFNE19.jpg,AFSA09.jpg,AFSA13.jpg,AFSA09.jpg,FS,4,num_2,32,num_4,1.03373473883,,,2017_Nov_07_1207,59.9991340501,FEMA4ImagesEEG,001,202275,
AFNE01.JPG,AFNE01.JPG,AFNE01.JPG,AFNE01.JPG,AFNE01.JPG,AFNE01.JPG,,,,,,,,,,,,,,,,,0,8,8,9,,,,,,,AFNE14.jpg,AFSA19.jpg,AFSA16.jpg,AFNE09.jpg,AFSA16.jpg,FS,4,num_2,32,num_6,0.950111858081,,,2017_Nov_07_1207,59.9991340501,FEMA4ImagesEEG,001,202275,
AFNE01.JPG,AFNE01.JPG,AFNE01.JPG,AFNE01.JPG,AFNE01.JPG,AFNE01.JPG,,,,,,,,,,,,,,,,,0,9,9,3,,,,,,,AFSA06.jpg,AFSA20.jpg,AFNE01.jpg,AFNE15.jpg,AFNE01.jpg,FN,3,num_2,32,num_4,1.26681420673,,,2017_Nov_07_1207,59.9991340501,FEMA4ImagesEEG,001,202275,
AFNE01.JPG,AFNE01.JPG,AFNE01.JPG,AFNE01.JPG,AFNE01.JPG,AFNE01.JPG,,,,,,,,,,,,,,,,,1,0,10,2,,,,,,,AFNE20.jpg,AFSA16.jpg,AFNE11.jpg,AFSA13.jpg,AFNE11.jpg,FN,3,num_2,16,num_2,1.3500951794,,,2017_Nov_07_1207,59.9991340501,FEMA4ImagesEEG,001,202275,
AFNE01.JPG,AFNE01.JPG,AFNE01.JPG,AFNE01.JPG,AFNE01.JPG,AFNE01.JPG,,,,,,,,,,,,,,,,,1,1,11,1,,,,,,,AFSA19.jpg,AFNE01.jpg,AFNE03.jpg,AFSA01.jpg,AFNE01.jpg,FN,3,num_6,16,num_6,0.766870175721,,,2017_Nov_07_1207,59.9991340501,FEMA4ImagesEEG,001,202275,
AFNE01.JPG,AFNE01.JPG,AFNE01.JPG,AFNE01.JPG,AFNE01.JPG,AFNE01.JPG,,,,,,,,,,,,,,,,,1,2,12,4,,,,,,,AFSA04.jpg,AFNE13.jpg,AFSA17.jpg,AFNE14.jpg,AFNE14.jpg,FN,3,num_4,32,num_6,0.933516796213,,,2017_Nov_07_1207,59.9991340501,FEMA4ImagesEEG,001,202275,
AFNE01.JPG,AFNE01.JPG,AFNE01.JPG,AFNE01.JPG,AFNE01.JPG,AFNE01.JPG,,,,,,,,,,,,,,,,,1,3,13,6,,,,,,,AFNE20.jpg,AFSA19.jpg,AFSA02.jpg,AFNE01.jpg,AFSA19.jpg,FS,4,num_6,16,num_6,1.53340261313,,,2017_Nov_07_1207,59.9991340501,FEMA4ImagesEEG,001,202275,
AFNE01.JPG,AFNE01.JPG,AFNE01.JPG,AFNE01.JPG,AFNE01.JPG,AFNE01.JPG,,,,,,,,,,,,,,,,,1,4,14,9,,,,,,,AFSA12.jpg,AFNE06.jpg,AFNE11.jpg,AFSA03.jpg,AFNE06.jpg,FN,3,num_6,32,num_2,2.18339242972,,,2017_Nov_07_1207,59.9991340501,FEMA4ImagesEEG,001,202275,
AFNE01.JPG,AFNE01.JPG,AFNE01.JPG,AFNE01.JPG,AFNE01.JPG,AFNE01.JPG,,,,,,,,,,,,,,,,,1,5,15,3,,,,,,,AFSA06.jpg,AFNE09.jpg,AFSA19.jpg,AFNE02.jpg,AFSA19.jpg,FS,4,num_2,32,num_4,1.10013871989,,,2017_Nov_07_1207,59.9991340501,FEMA4ImagesEEG,001,202275,
AFNE01.JPG,AFNE01.JPG,AFNE01.JPG,AFNE01.JPG,AFNE01.JPG,AFNE01.JPG,,,,,,,,,,,,,,,,,1,6,16,5,,,,,,,AFNE14.jpg,AFSA16.jpg,AFSA08.jpg,AFNE02.jpg,AFSA08.jpg,FS,4,num_2,32,num_6,0.666737550171,,,2017_Nov_07_1207,59.9991340501,FEMA4ImagesEEG,001,202275,
AFNE01.JPG,AFNE01.JPG,AFNE01.JPG,AFNE01.JPG,AFNE01.JPG,AFNE01.JPG,,,,,,,,,,,,,,,,,1,7,17,7,,,,,,,AFNE14.jpg,AFSA05.jpg,AFNE01.jpg,AFSA09.jpg,AFSA05.jpg,FS,4,num_6,16,num_6,0.633443186525,,,2017_Nov_07_1207,59.9991340501,FEMA4ImagesEEG,001,202275,
AFNE01.JPG,AFNE01.JPG,AFNE01.JPG,AFNE01.JPG,AFNE01.JPG,AFNE01.JPG,,,,,,,,,,,,,,,,,1,8,18,0,,,,,,,AFSA12.jpg,AFNE18.jpg,AFNE08.jpg,AFSA03.jpg,AFNE08.jpg,FN,3,num_2,32,num_6,1.45006005839,,,2017_Nov_07_1207,59.9991340501,FEMA4ImagesEEG,001,202275,
AFNE01.JPG,AFNE01.JPG,AFNE01.JPG,AFNE01.JPG,AFNE01.JPG,AFNE01.JPG,,,,,,,,,,,,,,,,,1,9,19,8,,,,,,,AFSA15.jpg,AFNE14.jpg,AFNE01.jpg,AFSA03.jpg,AFSA15.jpg,FS,4,num_8,32,num_4,0.550161893247,,,2017_Nov_07_1207,59.9991340501,FEMA4ImagesEEG,001,202275,
AFNE01.JPG,AFNE01.JPG,AFNE01.JPG,AFNE01.JPG,AFNE01.JPG,AFNE01.JPG,,,,,,,,,,,,,,,,,2,0,20,5,,,,,,,AFNE04.jpg,AFNE15.jpg,AFSA10.jpg,AFSA11.jpg,AFNE04.jpg,FN,3,num_8,16,num_8,0.58346299245,,,2017_Nov_07_1207,59.9991340501,FEMA4ImagesEEG,001,202275,
AFNE01.JPG,AFNE01.JPG,AFNE01.JPG,AFNE01.JPG,AFNE01.JPG,AFNE01.JPG,,,,,,,,,,,,,,,,,2,1,21,0,,,,,,,AFSA13.jpg,AFNE13.jpg,AFNE03.jpg,AFSA01.jpg,AFNE03.jpg,FN,3,num_2,32,num_6,1.00040284893,,,2017_Nov_07_1207,59.9991340501,FEMA4ImagesEEG,001,202275,
AFNE01.JPG,AFNE01.JPG,AFNE01.JPG,AFNE01.JPG,AFNE01.JPG,AFNE01.JPG,,,,,,,,,,,,,,,,,2,2,22,9,,,,,,,AFSA03.jpg,AFSA15.jpg,AFNE17.jpg,AFNE06.jpg,AFNE17.jpg,FN,3,num_2,16,num_2,1.35008106683,,,2017_Nov_07_1207,59.9991340501,FEMA4ImagesEEG,001,202275,
AFNE01.JPG,AFNE01.JPG,AFNE01.JPG,AFNE01.JPG,AFNE01.JPG,AFNE01.JPG,,,,,,,,,,,,,,,,,2,3,23,8,,,,,,,AFSA16.jpg,AFSA08.jpg,AFNE07.jpg,AFNE18.jpg,AFNE18.jpg,FN,3,num_4,16,num_4,0.916770345764,,,2017_Nov_07_1207,59.9991340501,FEMA4ImagesEEG,001,202275,
AFNE01.JPG,AFNE01.JPG,AFNE01.JPG,AFNE01.JPG,AFNE01.JPG,AFNE01.JPG,,,,,,,,,,,,,,,,,2,4,24,4,,,,,,,AFNE14.jpg,AFSA04.jpg,AFSA13.jpg,AFNE19.jpg,AFNE14.jpg,FN,3,num_8,16,num_8,1.10008676001,,,2017_Nov_07_1207,59.9991340501,FEMA4ImagesEEG,001,202275,
AFNE01.JPG,AFNE01.JPG,AFNE01.JPG,AFNE01.JPG,AFNE01.JPG,AFNE01.JPG,,,,,,,,,,,,,,,,,2,5,25,7,,,,,,,AFNE13.jpg,AFNE16.jpg,AFSA19.jpg,AFSA10.jpg,AFNE13.jpg,FN,3,num_8,32,num_6,0.783639398869,,,2017_Nov_07_1207,59.9991340501,FEMA4ImagesEEG,001,202275,
AFNE01.JPG,AFNE01.JPG,AFNE01.JPG,AFNE01.JPG,AFNE01.JPG,AFNE01.JPG,,,,,,,,,,,,,,,,,2,6,26,1,,,,,,,AFSA06.jpg,AFNE16.jpg,AFSA02.jpg,AFNE18.jpg,AFNE16.jpg,FN,3,num_6,16,num_6,0.883434286108,,,2017_Nov_07_1207,59.9991340501,FEMA4ImagesEEG,001,202275,
AFNE01.JPG,AFNE01.JPG,AFNE01.JPG,AFNE01.JPG,AFNE01.JPG,AFNE01.JPG,,,,,,,,,,,,,,,,,2,7,27,3,,,,,,,AFSA10.jpg,AFNE06.jpg,AFNE15.jpg,AFSA15.jpg,AFSA10.jpg,FS,4,num_8,16,num_8,1.43339699996,,,2017_Nov_07_1207,59.9991340501,FEMA4ImagesEEG,001,202275,
AFNE01.JPG,AFNE01.JPG,AFNE01.JPG,AFNE01.JPG,AFNE01.JPG,AFNE01.JPG,,,,,,,,,,,,,,,,,2,8,28,2,,,,,,,AFSA06.jpg,AFNE05.jpg,AFSA12.jpg,AFNE17.jpg,AFSA12.jpg,FS,4,num_2,16,num_2,0.500119154807,,,2017_Nov_07_1207,59.9991340501,FEMA4ImagesEEG,001,202275,
AFNE01.JPG,AFNE01.JPG,AFNE01.JPG,AFNE01.JPG,AFNE01.JPG,AFNE01.JPG,,,,,,,,,,,,,,,,,2,9,29,6,,,,,,,AFSA01.jpg,AFNE03.jpg,AFSA16.jpg,AFNE20.jpg,AFSA16.jpg,FS,4,num_2,16,num_2,1.31673827185,,,2017_Nov_07_1207,59.9991340501,FEMA4ImagesEEG,001,202275,
AFNE01.JPG,AFNE01.JPG,AFNE01.JPG,AFNE01.JPG,AFNE01.JPG,AFNE01.JPG,,,,,,,,,,,,,,,,,3,0,30,7,,,,,,,AFNE16.jpg,AFNE07.jpg,AFSA12.jpg,AFSA09.jpg,AFNE16.jpg,FN,3,num_8,32,num_6,1.53339683963,,,2017_Nov_07_1207,59.9991340501,FEMA4ImagesEEG,001,202275,
AFNE01.JPG,AFNE01.JPG,AFNE01.JPG,AFNE01.JPG,AFNE01.JPG,AFNE01.JPG,,,,,,,,,,,,,,,,,3,1,31,1,,,,,,,AFSA02.jpg,AFNE09.jpg,AFSA19.jpg,AFNE07.jpg,AFNE07.jpg,FN,3,num_4,32,num_8,0.88343236153,,,2017_Nov_07_1207,59.9991340501,FEMA4ImagesEEG,001,202275,
AFNE01.JPG,AFNE01.JPG,AFNE01.JPG,AFNE01.JPG,AFNE01.JPG,AFNE01.JPG,,,,,,,,,,,,,,,,,3,2,32,3,,,,,,,AFNE16.jpg,AFNE14.jpg,AFSA19.jpg,AFSA17.jpg,AFSA19.jpg,FS,4,num_2,32,num_4,1.03343741316,,,2017_Nov_07_1207,59.9991340501,FEMA4ImagesEEG,001,202275,
AFNE01.JPG,AFNE01.JPG,AFNE01.JPG,AFNE01.JPG,AFNE01.JPG,AFNE01.JPG,,,,,,,,,,,,,,,,,3,3,33,8,,,,,,,AFNE08.jpg,AFSA14.jpg,AFNE02.jpg,AFSA05.jpg,AFSA14.jpg,FS,4,num_6,32,num_4,1.33338914183,,,2017_Nov_07_1207,59.9991340501,FEMA4ImagesEEG,001,202275,
AFNE01.JPG,AFNE01.JPG,AFNE01.JPG,AFNE01.JPG,AFNE01.JPG,AFNE01.JPG,,,,,,,,,,,,,,,,,3,4,34,0,,,,,,,AFSA13.jpg,AFNE09.jpg,AFNE05.jpg,AFSA11.jpg,AFSA13.jpg,FS,4,num_8,16,num_8,0.466763209319,,,2017_Nov_07_1207,59.9991340501,FEMA4ImagesEEG,001,202275,
AFNE01.JPG,AFNE01.JPG,AFNE01.JPG,AFNE01.JPG,AFNE01.JPG,AFNE01.JPG,,,,,,,,,,,,,,,,,3,5,35,6,,,,,,,AFSA04.jpg,AFSA20.jpg,AFNE08.jpg,AFNE10.jpg,AFSA04.jpg,FS,4,num_8,32,num_6,1.06674556853,,,2017_Nov_07_1207,59.9991340501,FEMA4ImagesEEG,001,202275,
AFNE01.JPG,AFNE01.JPG,AFNE01.JPG,AFNE01.JPG,AFNE01.JPG,AFNE01.JPG,,,,,,,,,,,,,,,,,3,6,36,5,,,,,,,AFSA18.jpg,AFSA08.jpg,AFNE07.jpg,AFNE04.jpg,AFSA08.jpg,FS,4,num_6,16,num_6,1.26675262488,,,2017_Nov_07_1207,59.9991340501,FEMA4ImagesEEG,001,202275,
AFNE01.JPG,AFNE01.JPG,AFNE01.JPG,AFNE01.JPG,AFNE01.JPG,AFNE01.JPG,,,,,,,,,,,,,,,,,3,7,37,9,,,,,,,AFNE01.jpg,AFSA13.jpg,AFNE15.jpg,AFSA01.jpg,AFNE15.jpg,FN,3,num_2,16,num_2,1.90004827129,,,2017_Nov_07_1207,59.9991340501,FEMA4ImagesEEG,001,202275,
AFNE01.JPG,AFNE01.JPG,AFNE01.JPG,AFNE01.JPG,AFNE01.JPG,AFNE01.JPG,,,,,,,,,,,,,,,,,3,8,38,2,,,,,,,AFNE07.jpg,AFSA14.jpg,AFSA06.jpg,AFNE04.jpg,AFSA14.jpg,FS,4,num_6,16,num_6,1.46675070049,,,2017_Nov_07_1207,59.9991340501,FEMA4ImagesEEG,001,202275,
AFNE01.JPG,AFNE01.JPG,AFNE01.JPG,AFNE01.JPG,AFNE01.JPG,AFNE01.JPG,,,,,,,,,,,,,,,,,3,9,39,4,,,,,,,AFSA07.jpg,AFSA06.jpg,AFNE14.jpg,AFNE10.jpg,AFNE10.jpg,FN,3,num_4,32,num_2,1.61670956551,,,2017_Nov_07_1207,59.9991340501,FEMA4ImagesEEG,001,202275,
AFNE01.JPG,AFNE01.JPG,AFNE01.JPG,AFNE01.JPG,AFNE01.JPG,AFNE01.JPG,,,,,,,,,,,,,,,,,4,0,40,6,,,,,,,AFSA14.jpg,AFNE01.jpg,AFNE15.jpg,AFSA12.jpg,AFSA12.jpg,FS,4,num_4,16,num_4,0.75021000416,,,2017_Nov_07_1207,59.9991340501,FEMA4ImagesEEG,001,202275,
AFNE01.JPG,AFNE01.JPG,AFNE01.JPG,AFNE01.JPG,AFNE01.JPG,AFNE01.JPG,,,,,,,,,,,,,,,,,4,1,41,4,,,,,,,AFNE05.jpg,AFSA17.jpg,AFSA12.jpg,AFNE01.jpg,AFSA12.jpg,FS,4,num_2,16,num_2,2.4166332297,,,2017_Nov_07_1207,59.9991340501,FEMA4ImagesEEG,001,202275,
AFNE01.JPG,AFNE01.JPG,AFNE01.JPG,AFNE01.JPG,AFNE01.JPG,AFNE01.JPG,,,,,,,,,,,,,,,,,4,2,42,5,,,,,,,AFNE15.jpg,AFNE19.jpg,AFSA18.jpg,AFSA13.jpg,AFNE15.jpg,FN,3,num_8,32,num_6,1.53355753026,,,2017_Nov_07_1207,59.9991340501,FEMA4ImagesEEG,001,202275,
AFNE01.JPG,AFNE01.JPG,AFNE01.JPG,AFNE01.JPG,AFNE01.JPG,AFNE01.JPG,,,,,,,,,,,,,,,,,4,3,43,8,,,,,,,AFSA03.jpg,AFNE07.jpg,AFNE06.jpg,AFSA08.jpg,AFSA08.jpg,FS,4,num_4,16,num_4,0.933436932042,,,2017_Nov_07_1207,59.9991340501,FEMA4ImagesEEG,001,202275,
AFNE01.JPG,AFNE01.JPG,AFNE01.JPG,AFNE01.JPG,AFNE01.JPG,AFNE01.JPG,,,,,,,,,,,,,,,,,4,4,44,3,,,,,,,AFSA12.jpg,AFSA18.jpg,AFNE19.jpg,AFNE05.jpg,AFSA18.jpg,FS,4,num_6,16,num_6,0.633912107674,,,2017_Nov_07_1207,59.9991340501,FEMA4ImagesEEG,001,202275,
AFNE01.JPG,AFNE01.JPG,AFNE01.JPG,AFNE01.JPG,AFNE01.JPG,AFNE01.JPG,,,,,,,,,,,,,,,,,4,5,45,2,,,,,,,AFNE02.jpg,AFSA06.jpg,AFSA14.jpg,AFNE07.jpg,AFNE02.jpg,FN,3,num_8,16,num_8,0.900095419958,,,2017_Nov_07_1207,59.9991340501,FEMA4ImagesEEG,001,202275,
AFNE01.JPG,AFNE01.JPG,AFNE01.JPG,AFNE01.JPG,AFNE01.JPG,AFNE01.JPG,,,,,,,,,,,,,,,,,4,6,46,9,,,,,,,AFNE19.jpg,AFSA08.jpg,AFSA17.jpg,AFNE20.jpg,AFNE20.jpg,FN,3,num_4,16,num_4,0.683433323866,,,2017_Nov_07_1207,59.9991340501,FEMA4ImagesEEG,001,202275,
AFNE01.JPG,AFNE01.JPG,AFNE01.JPG,AFNE01.JPG,AFNE01.JPG,AFNE01.JPG,,,,,,,,,,,,,,,,,4,7,47,0,,,,,,,AFSA10.jpg,AFNE01.jpg,AFNE08.jpg,AFSA03.jpg,AFSA03.jpg,FS,4,num_4,32,num_8,2.41669192491,,,2017_Nov_07_1207,59.9991340501,FEMA4ImagesEEG,001,202275,
AFNE01.JPG,AFNE01.JPG,AFNE01.JPG,AFNE01.JPG,AFNE01.JPG,AFNE01.JPG,,,,,,,,,,,,,,,,,4,8,48,1,,,,,,,AFSA03.jpg,AFSA10.jpg,AFNE07.jpg,AFNE03.jpg,AFNE07.jpg,FN,3,num_2,16,num_2,1.48340894771,,,2017_Nov_07_1207,59.9991340501,FEMA4ImagesEEG,001,202275,
AFNE01.JPG,AFNE01.JPG,AFNE01.JPG,AFNE01.JPG,AFNE01.JPG,AFNE01.JPG,,,,,,,,,,,,,,,,,4,9,49,7,,,,,,,AFSA20.jpg,AFNE03.jpg,AFNE06.jpg,AFSA14.jpg,AFNE03.jpg,FN,3,num_6,16,num_6,0.933418649947,,,2017_Nov_07_1207,59.9991340501,FEMA4ImagesEEG,001,202275,
AFNE01.JPG,AFNE01.JPG,AFNE01.JPG,AFNE01.JPG,AFNE01.JPG,AFNE01.JPG,,,,,,,,,,,,,,,,,5,0,50,8,,,,,,,AFNE19.jpg,AFSA03.jpg,AFNE17.jpg,AFSA19.jpg,AFSA19.jpg,FS,4,num_4,32,num_2,1.05016846838,,,2017_Nov_07_1207,59.9991340501,FEMA4ImagesEEG,001,202275,
AFNE01.JPG,AFNE01.JPG,AFNE01.JPG,AFNE01.JPG,AFNE01.JPG,AFNE01.JPG,,,,,,,,,,,,,,,,,5,1,51,2,,,,,,,AFNE18.jpg,AFNE01.jpg,AFSA20.jpg,AFSA12.jpg,AFSA20.jpg,FS,4,num_2,32,num_8,0.983439257368,,,2017_Nov_07_1207,59.9991340501,FEMA4ImagesEEG,001,202275,
AFNE01.JPG,AFNE01.JPG,AFNE01.JPG,AFNE01.JPG,AFNE01.JPG,AFNE01.JPG,,,,,,,,,,,,,,,,,5,2,52,0,,,,,,,AFNE12.jpg,AFSA03.jpg,AFSA14.jpg,AFNE11.jpg,AFSA14.jpg,FS,4,num_2,16,num_2,0.983422258403,,,2017_Nov_07_1207,59.9991340501,FEMA4ImagesEEG,001,202275,
AFNE01.JPG,AFNE01.JPG,AFNE01.JPG,AFNE01.JPG,AFNE01.JPG,AFNE01.JPG,,,,,,,,,,,,,,,,,5,3,53,3,,,,,,,AFNE11.jpg,AFSA03.jpg,AFSA04.jpg,AFNE18.jpg,AFSA03.jpg,FS,4,num_6,16,num_6,1.05010881089,,,2017_Nov_07_1207,59.9991340501,FEMA4ImagesEEG,001,202275,
AFNE01.JPG,AFNE01.JPG,AFNE01.JPG,AFNE01.JPG,AFNE01.JPG,AFNE01.JPG,,,,,,,,,,,,,,,,,5,4,54,9,,,,,,,AFNE14.jpg,AFNE03.jpg,AFSA03.jpg,AFSA17.jpg,AFNE03.jpg,FN,3,num_6,16,num_6,1.61667845398,,,2017_Nov_07_1207,59.9991340501,FEMA4ImagesEEG,001,202275,
AFNE01.JPG,AFNE01.JPG,AFNE01.JPG,AFNE01.JPG,AFNE01.JPG,AFNE01.JPG,,,,,,,,,,,,,,,,,5,5,55,5,,,,,,,AFSA16.jpg,AFNE12.jpg,AFSA20.jpg,AFNE16.jpg,AFSA16.jpg,FS,4,num_8,16,num_8,0.799806914758,,,2017_Nov_07_1207,59.9991340501,FEMA4ImagesEEG,001,202275,
AFNE01.JPG,AFNE01.JPG,AFNE01.JPG,AFNE01.JPG,AFNE01.JPG,AFNE01.JPG,,,,,,,,,,,,,,,,,5,6,56,1,,,,,,,AFSA01.jpg,AFSA18.jpg,AFNE14.jpg,AFNE20.jpg,AFNE20.jpg,FN,3,num_4,32,num_2,0.966738352086,,,2017_Nov_07_1207,59.9991340501,FEMA4ImagesEEG,001,202275,
AFNE01.JPG,AFNE01.JPG,AFNE01.JPG,AFNE01.JPG,AFNE01.JPG,AFNE01.JPG,,,,,,,,,,,,,,,,,5,7,57,4,,,,,,,AFNE16.jpg,AFNE15.jpg,AFSA14.jpg,AFSA10.jpg,AFSA14.jpg,FS,4,num_2,32,num_8,1.45006968058,,,2017_Nov_07_1207,59.9991340501,FEMA4ImagesEEG,001,202275,
AFNE01.JPG,AFNE01.JPG,AFNE01.JPG,AFNE01.JPG,AFNE01.JPG,AFNE01.JPG,,,,,,,,,,,,,,,,,5,8,58,7,,,,,,,AFNE20.jpg,AFNE19.jpg,AFSA16.jpg,AFSA05.jpg,AFSA05.jpg,FS,4,num_4,16,num_4,1.08343364461,,,2017_Nov_07_1207,59.9991340501,FEMA4ImagesEEG,001,202275,
AFNE01.JPG,AFNE01.JPG,AFNE01.JPG,AFNE01.JPG,AFNE01.JPG,AFNE01.JPG,,,,,,,,,,,,,,,,,5,9,59,6,,,,,,,AFNE03.jpg,AFSA14.jpg,AFNE09.jpg,AFSA01.jpg,AFSA01.jpg,FS,4,num_4,16,num_4,0.5001544361,,,2017_Nov_07_1207,59.9991340501,FEMA4ImagesEEG,001,202275,
,,,,,,,,,,,,,,,,,,,,,,,,,,,,,,,,,,,,,,,,,,,space,26.34816529,2017_Nov_07_1207,59.9991340501,FEMA4ImagesEEG,001,202275,
AFNE01.JPG,AFNE01.JPG,AFNE01.JPG,AFNE01.JPG,AFNE01.JPG,AFNE01.JPG,,,,,,,,,,,,,,,,,,,,,0,0,0,7,,,AMNE20.jpg,AMSA01.jpg,AMSA14.jpg,AMNE06.jpg,AMNE06.jpg,MN,1,num_4,16,num_4,1.56673225784,,,2017_Nov_07_1207,59.9991340501,FEMA4ImagesEEG,001,202275,
AFNE01.JPG,AFNE01.JPG,AFNE01.JPG,AFNE01.JPG,AFNE01.JPG,AFNE01.JPG,,,,,,,,,,,,,,,,,,,,,0,1,1,0,,,AMSA08.jpg,AMSA06.jpg,AMNE17.jpg,AMNE16.jpg,AMNE16.jpg,MN,1,num_4,32,num_8,0.8333046271,,,2017_Nov_07_1207,59.9991340501,FEMA4ImagesEEG,001,202275,
AFNE01.JPG,AFNE01.JPG,AFNE01.JPG,AFNE01.JPG,AFNE01.JPG,AFNE01.JPG,,,,,,,,,,,,,,,,,,,,,0,2,2,3,,,AMNE07.jpg,AMSA15.jpg,AMNE19.jpg,AMSA11.jpg,AMSA15.jpg,MS,2,num_6,16,num_6,0.500281769782,,,2017_Nov_07_1207,59.9991340501,FEMA4ImagesEEG,001,202275,
AFNE01.JPG,AFNE01.JPG,AFNE01.JPG,AFNE01.JPG,AFNE01.JPG,AFNE01.JPG,,,,,,,,,,,,,,,,,,,,,0,3,3,9,,,AMSA13.jpg,AMNE18.jpg,AMNE10.jpg,AMSA08.jpg,AMSA13.jpg,MS,2,num_8,32,num_6,1.30014834204,,,2017_Nov_07_1207,59.9991340501,FEMA4ImagesEEG,001,202275,
AFNE01.JPG,AFNE01.JPG,AFNE01.JPG,AFNE01.JPG,AFNE01.JPG,AFNE01.JPG,,,,,,,,,,,,,,,,,,,,,0,4,4,1,,,AMSA08.jpg,AMNE12.jpg,AMNE10.jpg,AMSA19.jpg,AMNE12.jpg,MN,1,num_6,16,num_6,0.983445672551,,,2017_Nov_07_1207,59.9991340501,FEMA4ImagesEEG,001,202275,
AFNE01.JPG,AFNE01.JPG,AFNE01.JPG,AFNE01.JPG,AFNE01.JPG,AFNE01.JPG,,,,,,,,,,,,,,,,,,,,,0,5,5,5,,,AMSA10.jpg,AMNE01.jpg,AMNE15.jpg,AMSA20.jpg,AMNE15.jpg,MN,1,num_2,16,num_2,1.63346563838,,,2017_Nov_07_1207,59.9991340501,FEMA4ImagesEEG,001,202275,
AFNE01.JPG,AFNE01.JPG,AFNE01.JPG,AFNE01.JPG,AFNE01.JPG,AFNE01.JPG,,,,,,,,,,,,,,,,,,,,,0,6,6,6,,,AMSA01.jpg,AMSA04.jpg,AMNE10.jpg,AMNE07.jpg,AMSA01.jpg,MS,2,num_8,32,num_6,0.750166704413,,,2017_Nov_07_1207,59.9991340501,FEMA4ImagesEEG,001,202275,
AFNE01.JPG,AFNE01.JPG,AFNE01.JPG,AFNE01.JPG,AFNE01.JPG,AFNE01.JPG,,,,,,,,,,,,,,,,,,,,,0,7,7,4,,,AMSA19.jpg,AMNE16.jpg,AMNE01.jpg,AMSA06.jpg,AMSA06.jpg,MS,2,num_4,16,num_4,0.600013150368,,,2017_Nov_07_1207,59.9991340501,FEMA4ImagesEEG,001,202275,
AFNE01.JPG,AFNE01.JPG,AFNE01.JPG,AFNE01.JPG,AFNE01.JPG,AFNE01.JPG,,,,,,,,,,,,,,,,,,,,,0,8,8,8,,,AMNE10.jpg,AMNE11.jpg,AMSA17.jpg,AMSA15.jpg,AMNE10.jpg,MN,1,num_8,16,num_8,1.23337615211,,,2017_Nov_07_1207,59.9991340501,FEMA4ImagesEEG,001,202275,
AFNE01.JPG,AFNE01.JPG,AFNE01.JPG,AFNE01.JPG,AFNE01.JPG,AFNE01.JPG,,,,,,,,,,,,,,,,,,,,,0,9,9,2,,,AMNE11.jpg,AMSA11.jpg,AMSA13.jpg,AMNE15.jpg,AMNE15.jpg,MN,1,num_4,16,num_4,0.583471331513,,,2017_Nov_07_1207,59.9991340501,FEMA4ImagesEEG,001,202275,
AFNE01.JPG,AFNE01.JPG,AFNE01.JPG,AFNE01.JPG,AFNE01.JPG,AFNE01.JPG,,,,,,,,,,,,,,,,,,,,,1,0,10,9,,,AMNE13.jpg,AMNE05.jpg,AMSA04.jpg,AMSA10.jpg,AMNE13.jpg,MN,1,num_8,32,num_6,1.46670451388,,,2017_Nov_07_1207,59.9991340501,FEMA4ImagesEEG,001,202275,
AFNE01.JPG,AFNE01.JPG,AFNE01.JPG,AFNE01.JPG,AFNE01.JPG,AFNE01.JPG,,,,,,,,,,,,,,,,,,,,,1,1,11,8,,,AMNE19.jpg,AMNE14.jpg,AMSA02.jpg,AMSA15.jpg,AMNE19.jpg,MN,1,num_8,32,num_6,1.09995686053,,,2017_Nov_07_1207,59.9991340501,FEMA4ImagesEEG,001,202275,
AFNE01.JPG,AFNE01.JPG,AFNE01.JPG,AFNE01.JPG,AFNE01.JPG,AFNE01.JPG,,,,,,,,,,,,,,,,,,,,,1,2,12,3,,,AMSA18.jpg,AMNE16.jpg,AMNE07.jpg,AMSA09.jpg,AMNE07.jpg,MN,1,num_2,32,num_6,1.05020374991,,,2017_Nov_07_1207,59.9991340501,FEMA4ImagesEEG,001,202275,
AFNE01.JPG,AFNE01.JPG,AFNE01.JPG,AFNE01.JPG,AFNE01.JPG,AFNE01.JPG,,,,,,,,,,,,,,,,,,,,,1,3,13,0,,,AMSA16.jpg,AMNE09.jpg,AMSA12.jpg,AMNE03.jpg,AMSA12.jpg,MS,2,num_2,32,num_8,1.18337671342,,,2017_Nov_07_1207,59.9991340501,FEMA4ImagesEEG,001,202275,
AFNE01.JPG,AFNE01.JPG,AFNE01.JPG,AFNE01.JPG,AFNE01.JPG,AFNE01.JPG,,,,,,,,,,,,,,,,,,,,,1,4,14,2,,,AMNE16.jpg,AMSA12.jpg,AMNE05.jpg,AMSA17.jpg,AMSA17.jpg,MS,2,num_4,32,num_6,0.733477345202,,,2017_Nov_07_1207,59.9991340501,FEMA4ImagesEEG,001,202275,
AFNE01.JPG,AFNE01.JPG,AFNE01.JPG,AFNE01.JPG,AFNE01.JPG,AFNE01.JPG,,,,,,,,,,,,,,,,,,,,,1,5,15,5,,,AMNE02.jpg,AMNE07.jpg,AMSA05.jpg,AMSA20.jpg,AMNE07.jpg,MN,1,num_6,16,num_6,0.833421376301,,,2017_Nov_07_1207,59.9991340501,FEMA4ImagesEEG,001,202275,
AFNE01.JPG,AFNE01.JPG,AFNE01.JPG,AFNE01.JPG,AFNE01.JPG,AFNE01.JPG,,,,,,,,,,,,,,,,,,,,,1,6,16,1,,,AMNE12.jpg,AMNE19.jpg,AMSA16.jpg,AMSA13.jpg,AMNE19.jpg,MN,1,num_6,32,num_8,0.966736748349,,,2017_Nov_07_1207,59.9991340501,FEMA4ImagesEEG,001,202275,
AFNE01.JPG,AFNE01.JPG,AFNE01.JPG,AFNE01.JPG,AFNE01.JPG,AFNE01.JPG,,,,,,,,,,,,,,,,,,,,,1,7,17,7,,,AMNE12.jpg,AMSA07.jpg,AMNE20.jpg,AMSA05.jpg,AMNE12.jpg,MN,1,num_8,16,num_8,0.966784859309,,,2017_Nov_07_1207,59.9991340501,FEMA4ImagesEEG,001,202275,
AFNE01.JPG,AFNE01.JPG,AFNE01.JPG,AFNE01.JPG,AFNE01.JPG,AFNE01.JPG,,,,,,,,,,,,,,,,,,,,,1,8,18,6,,,AMSA03.jpg,AMNE01.jpg,AMNE08.jpg,AMSA18.jpg,AMSA18.jpg,MS,2,num_4,32,num_8,2.31660388201,,,2017_Nov_07_1207,59.9991340501,FEMA4ImagesEEG,001,202275,
AFNE01.JPG,AFNE01.JPG,AFNE01.JPG,AFNE01.JPG,AFNE01.JPG,AFNE01.JPG,,,,,,,,,,,,,,,,,,,,,1,9,19,4,,,AMNE06.jpg,AMNE11.jpg,AMSA17.jpg,AMSA07.jpg,AMNE11.jpg,MN,1,num_6,32,num_8,1.11681428691,,,2017_Nov_07_1207,59.9991340501,FEMA4ImagesEEG,001,202275,
AFNE01.JPG,AFNE01.JPG,AFNE01.JPG,AFNE01.JPG,AFNE01.JPG,AFNE01.JPG,,,,,,,,,,,,,,,,,,,,,2,0,20,0,,,AMNE09.jpg,AMNE16.jpg,AMSA10.jpg,AMSA02.jpg,AMSA02.jpg,MS,2,num_4,16,num_4,0.650147299515,,,2017_Nov_07_1207,59.9991340501,FEMA4ImagesEEG,001,202275,
AFNE01.JPG,AFNE01.JPG,AFNE01.JPG,AFNE01.JPG,AFNE01.JPG,AFNE01.JPG,,,,,,,,,,,,,,,,,,,,,2,1,21,6,,,AMSA04.jpg,AMNE13.jpg,AMSA02.jpg,AMNE20.jpg,AMNE13.jpg,MN,1,num_6,16,num_6,0.916717423592,,,2017_Nov_07_1207,59.9991340501,FEMA4ImagesEEG,001,202275,
AFNE01.JPG,AFNE01.JPG,AFNE01.JPG,AFNE01.JPG,AFNE01.JPG,AFNE01.JPG,,,,,,,,,,,,,,,,,,,,,2,2,22,5,,,AMSA20.jpg,AMNE01.jpg,AMSA15.jpg,AMNE19.jpg,AMNE01.jpg,MN,1,num_6,16,num_6,1.24979192019,,,2017_Nov_07_1207,59.9991340501,FEMA4ImagesEEG,001,202275,
AFNE01.JPG,AFNE01.JPG,AFNE01.JPG,AFNE01.JPG,AFNE01.JPG,AFNE01.JPG,,,,,,,,,,,,,,,,,,,,,2,3,23,3,,,AMSA06.jpg,AMNE02.jpg,AMSA12.jpg,AMNE04.jpg,AMSA06.jpg,MS,2,num_8,16,num_8,0.833468525205,,,2017_Nov_07_1207,59.9991340501,FEMA4ImagesEEG,001,202275,
AFNE01.JPG,AFNE01.JPG,AFNE01.JPG,AFNE01.JPG,AFNE01.JPG,AFNE01.JPG,,,,,,,,,,,,,,,,,,,,,2,4,24,9,,,AMSA15.jpg,AMNE10.jpg,AMNE03.jpg,AMSA07.jpg,AMSA07.jpg,MS,2,num_4,16,num_4,0.916789269308,,,2017_Nov_07_1207,59.9991340501,FEMA4ImagesEEG,001,202275,
AFNE01.JPG,AFNE01.JPG,AFNE01.JPG,AFNE01.JPG,AFNE01.JPG,AFNE01.JPG,,,,,,,,,,,,,,,,,,,,,2,5,25,2,,,AMNE16.jpg,AMSA02.jpg,AMNE08.jpg,AMSA09.jpg,AMNE08.jpg,MN,1,num_2,32,num_8,0.916817815276,,,2017_Nov_07_1207,59.9991340501,FEMA4ImagesEEG,001,202275,
AFNE01.JPG,AFNE01.JPG,AFNE01.JPG,AFNE01.JPG,AFNE01.JPG,AFNE01.JPG,,,,,,,,,,,,,,,,,,,,,2,6,26,7,,,AMSA06.jpg,AMSA09.jpg,AMNE19.jpg,AMNE13.jpg,AMSA06.jpg,MS,2,num_8,16,num_8,1.41667652945,,,2017_Nov_07_1207,59.9991340501,FEMA4ImagesEEG,001,202275,
AFNE01.JPG,AFNE01.JPG,AFNE01.JPG,AFNE01.JPG,AFNE01.JPG,AFNE01.JPG,,,,,,,,,,,,,,,,,,,,,2,7,27,4,,,AMNE12.jpg,AMNE07.jpg,AMSA07.jpg,AMSA17.jpg,AMNE12.jpg,MN,1,num_8,16,num_8,0.8334540918,,,2017_Nov_07_1207,59.9991340501,FEMA4ImagesEEG,001,202275,
AFNE01.JPG,AFNE01.JPG,AFNE01.JPG,AFNE01.JPG,AFNE01.JPG,AFNE01.JPG,,,,,,,,,,,,,,,,,,,,,2,8,28,1,,,AMNE20.jpg,AMNE01.jpg,AMSA14.jpg,AMSA08.jpg,AMSA14.jpg,MS,2,num_2,32,num_8,2.26660348102,,,2017_Nov_07_1207,59.9991340501,FEMA4ImagesEEG,001,202275,
AFNE01.JPG,AFNE01.JPG,AFNE01.JPG,AFNE01.JPG,AFNE01.JPG,AFNE01.JPG,,,,,,,,,,,,,,,,,,,,,2,9,29,8,,,AMSA18.jpg,AMNE06.jpg,AMNE12.jpg,AMSA15.jpg,AMNE06.jpg,MN,1,num_6,16,num_6,1.01676441217,,,2017_Nov_07_1207,59.9991340501,FEMA4ImagesEEG,001,202275,
AFNE01.JPG,AFNE01.JPG,AFNE01.JPG,AFNE01.JPG,AFNE01.JPG,AFNE01.JPG,,,,,,,,,,,,,,,,,,,,,3,0,30,2,,,AMSA17.jpg,AMNE16.jpg,AMNE20.jpg,AMSA16.jpg,AMSA16.jpg,MS,2,num_4,16,num_4,1.00007441151,,,2017_Nov_07_1207,59.9991340501,FEMA4ImagesEEG,001,202275,
AFNE01.JPG,AFNE01.JPG,AFNE01.JPG,AFNE01.JPG,AFNE01.JPG,AFNE01.JPG,,,,,,,,,,,,,,,,,,,,,3,1,31,7,,,AMSA17.jpg,AMSA19.jpg,AMNE18.jpg,AMNE12.jpg,AMNE18.jpg,MN,1,num_2,16,num_2,1.08354654489,,,2017_Nov_07_1207,59.9991340501,FEMA4ImagesEEG,001,202275,
AFNE01.JPG,AFNE01.JPG,AFNE01.JPG,AFNE01.JPG,AFNE01.JPG,AFNE01.JPG,,,,,,,,,,,,,,,,,,,,,3,2,32,1,,,AMNE09.jpg,AMNE08.jpg,AMSA16.jpg,AMSA08.jpg,AMNE09.jpg,MN,1,num_8,16,num_8,0.91674596956,,,2017_Nov_07_1207,59.9991340501,FEMA4ImagesEEG,001,202275,
AFNE01.JPG,AFNE01.JPG,AFNE01.JPG,AFNE01.JPG,AFNE01.JPG,AFNE01.JPG,,,,,,,,,,,,,,,,,,,,,3,3,33,8,,,AMNE03.jpg,AMSA18.jpg,AMSA12.jpg,AMNE20.jpg,AMSA12.jpg,MS,2,num_2,32,num_6,1.21680225921,,,2017_Nov_07_1207,59.9991340501,FEMA4ImagesEEG,001,202275,
AFNE01.JPG,AFNE01.JPG,AFNE01.JPG,AFNE01.JPG,AFNE01.JPG,AFNE01.JPG,,,,,,,,,,,,,,,,,,,,,3,4,34,4,,,AMSA14.jpg,AMSA15.jpg,AMNE12.jpg,AMNE02.jpg,AMSA14.jpg,MS,2,num_8,16,num_8,0.36702830065,,,2017_Nov_07_1207,59.9991340501,FEMA4ImagesEEG,001,202275,
AFNE01.JPG,AFNE01.JPG,AFNE01.JPG,AFNE01.JPG,AFNE01.JPG,AFNE01.JPG,,,,,,,,,,,,,,,,,,,,,3,5,35,3,,,AMSA09.jpg,AMSA07.jpg,AMNE11.jpg,AMNE19.jpg,AMNE19.jpg,MN,1,num_4,16,num_4,1.33346162899,,,2017_Nov_07_1207,59.9991340501,FEMA4ImagesEEG,001,202275,
AFNE01.JPG,AFNE01.JPG,AFNE01.JPG,AFNE01.JPG,AFNE01.JPG,AFNE01.JPG,,,,,,,,,,,,,,,,,,,,,3,6,36,5,,,AMSA01.jpg,AMNE02.jpg,AMNE17.jpg,AMSA04.jpg,AMNE17.jpg,MN,1,num_2,32,num_6,1.73368390161,,,2017_Nov_07_1207,59.9991340501,FEMA4ImagesEEG,001,202275,
AFNE01.JPG,AFNE01.JPG,AFNE01.JPG,AFNE01.JPG,AFNE01.JPG,AFNE01.JPG,,,,,,,,,,,,,,,,,,,,,3,7,37,6,,,AMNE18.jpg,AMSA15.jpg,AMSA16.jpg,AMNE07.jpg,AMSA16.jpg,MS,2,num_2,32,num_6,2.05007320899,,,2017_Nov_07_1207,59.9991340501,FEMA4ImagesEEG,001,202275,
AFNE01.JPG,AFNE01.JPG,AFNE01.JPG,AFNE01.JPG,AFNE01.JPG,AFNE01.JPG,,,,,,,,,,,,,,,,,,,,,3,8,38,0,,,AMSA14.jpg,AMSA20.jpg,AMNE06.jpg,AMNE01.jpg,AMSA14.jpg,MS,2,num_8,16,num_8,0.400208480656,,,2017_Nov_07_1207,59.9991340501,FEMA4ImagesEEG,001,202275,
