IPosition2,IPosition3,IPosition1,IPosition6,IPosition4,IPosition5,TrialsF1.thisRepN,TrialsF1.thisTrialN,TrialsF1.thisN,TrialsF1.thisIndex,TrialsM1.thisRepN,TrialsM1.thisTrialN,TrialsM1.thisN,TrialsM1.thisIndex,TrialsF2.thisRepN,TrialsF2.thisTrialN,TrialsF2.thisN,TrialsF2.thisIndex,TrialsM2.thisRepN,TrialsM2.thisTrialN,TrialsM2.thisN,TrialsM2.thisIndex,TrialsF3.thisRepN,TrialsF3.thisTrialN,TrialsF3.thisN,TrialsF3.thisIndex,TrialsM3.thisRepN,TrialsM3.thisTrialN,TrialsM3.thisN,TrialsM3.thisIndex,InstrKey_resp.keys,InstrKey_resp.rt,Image0 _Position,Image1 _Position,Image2 _Position,Image3 _Position,Center_image,condition,code,correct_answer,accuracy,Key_Resp.keys,Key_Resp.rt,BreakKey_resp.keys,BreakKey_resp.rt,date,frameRate,expName,session,participant,
,,,,,,,,,,,,,,,,,,,,,,,,,,,,,,space,8.88291372592,,,,,,,,,,,,,,2017_Nov_17_1424,60.0000577234,FEMA4ImagesEEG,001,202264,
AMSA21.JPG,AMNE23.JPG,AMNE21.JPG,AMSA25.JPG,AMNE25.JPG,AMSA23.JPG,0,0,0,5,,,,,,,,,,,,,,,,,,,,,,,AFSA17.jpg,AFNE16.jpg,AFSA12.jpg,AFNE06.jpg,AFNE16.jpg,FN,3,num_6,32,num_8,1.55019813683,,,2017_Nov_17_1424,60.0000577234,FEMA4ImagesEEG,001,202264,
AMSA21.JPG,AMNE22.JPG,AMNE21.JPG,AMSA23.JPG,AMSA22.JPG,AMNE23.JPG,0,1,1,1,,,,,,,,,,,,,,,,,,,,,,,AFNE17.jpg,AFNE07.jpg,AFSA03.jpg,AFSA07.jpg,AFSA03.jpg,FS,4,num_2,16,num_2,1.46675968124,,,2017_Nov_17_1424,60.0000577234,FEMA4ImagesEEG,001,202264,
AMSA25.JPG,AMNE24.JPG,AMSA24.JPG,AMNE26.JPG,AMSA21.JPG,AMNE25.JPG,0,2,2,3,,,,,,,,,,,,,,,,,,,,,,,AFNE19.jpg,AFNE07.jpg,AFSA12.jpg,AFSA13.jpg,AFSA12.jpg,FS,4,num_2,32,num_4,0.883449681569,,,2017_Nov_17_1424,60.0000577234,FEMA4ImagesEEG,001,202264,
AMNE22.JPG,AMSA24.JPG,AMSA22.JPG,AMNE25.JPG,AMNE24.JPG,AMSA25.JPG,0,3,3,7,,,,,,,,,,,,,,,,,,,,,,,AFNE15.jpg,AFSA18.jpg,AFNE17.jpg,AFSA20.jpg,AFSA20.jpg,FS,4,num_4,32,num_2,1.48341407953,,,2017_Nov_17_1424,60.0000577234,FEMA4ImagesEEG,001,202264,
AFNE23.JPG,AFNE24.JPG,AFNE22.JPG,AFSA24.JPG,AFSA22.JPG,AFSA23.JPG,0,4,4,8,,,,,,,,,,,,,,,,,,,,,,,AFNE01.jpg,AFNE09.jpg,AFSA15.jpg,AFSA04.jpg,AFNE09.jpg,FN,3,num_6,32,num_8,1.00013246527,,,2017_Nov_17_1424,60.0000577234,FEMA4ImagesEEG,001,202264,
AFSA21.JPG,AFNE22.JPG,AFNE21.JPG,AFSA23.JPG,AFSA22.JPG,AFNE23.JPG,0,5,5,0,,,,,,,,,,,,,,,,,,,,,,,AFSA19.jpg,AFNE05.jpg,AFNE04.jpg,AFSA17.jpg,AFSA17.jpg,FS,4,num_4,16,num_4,0.7834742181,,,2017_Nov_17_1424,60.0000577234,FEMA4ImagesEEG,001,202264,
AFSA25.JPG,AFNE24.JPG,AFSA24.JPG,AFNE21.JPG,AFSA21.JPG,AFNE25.JPG,0,6,6,2,,,,,,,,,,,,,,,,,,,,,,,AFSA08.jpg,AFNE09.jpg,AFNE02.jpg,AFSA02.jpg,AFNE09.jpg,FN,3,num_6,16,num_6,2.50002389494,,,2017_Nov_17_1424,60.0000577234,FEMA4ImagesEEG,001,202264,
AFSA21.JPG,AFNE23.JPG,AFNE21.JPG,AFSA25.JPG,AFNE25.JPG,AFSA23.JPG,0,7,7,4,,,,,,,,,,,,,,,,,,,,,,,AFSA08.jpg,AFNE05.jpg,AFSA13.jpg,AFNE16.jpg,AFNE05.jpg,FN,3,num_6,32,num_4,1.06714168191,,,2017_Nov_17_1424,60.0000577234,FEMA4ImagesEEG,001,202264,
AMNE23.JPG,AMNE24.JPG,AMNE22.JPG,AMSA24.JPG,AMSA22.JPG,AMSA23.JPG,0,8,8,9,,,,,,,,,,,,,,,,,,,,,,,AFNE08.jpg,AFSA02.jpg,AFNE05.jpg,AFSA10.jpg,AFNE05.jpg,FN,3,num_2,32,num_4,2.38334848825,,,2017_Nov_17_1424,60.0000577234,FEMA4ImagesEEG,001,202264,
AFNE22.JPG,AFSA24.JPG,AFSA22.JPG,AFNE25.JPG,AFNE24.JPG,AFSA25.JPG,0,9,9,6,,,,,,,,,,,,,,,,,,,,,,,AFSA14.jpg,AFSA15.jpg,AFNE06.jpg,AFNE20.jpg,AFNE06.jpg,FN,3,num_2,16,num_2,1.26677635964,,,2017_Nov_17_1424,60.0000577234,FEMA4ImagesEEG,001,202264,
AFNE22.JPG,AFSA24.JPG,AFSA22.JPG,AFNE25.JPG,AFNE24.JPG,AFSA25.JPG,,,,,0,0,0,6,,,,,,,,,,,,,,,,,,,AMNE11.jpg,AMSA01.jpg,AMSA06.jpg,AMNE01.jpg,AMSA06.jpg,MS,2,num_2,32,num_8,0.650458096061,,,2017_Nov_17_1424,60.0000577234,FEMA4ImagesEEG,001,202264,
AMNE23.JPG,AMNE24.JPG,AMNE22.JPG,AMSA24.JPG,AMSA22.JPG,AMSA23.JPG,,,,,0,1,1,9,,,,,,,,,,,,,,,,,,,AMNE13.jpg,AMNE12.jpg,AMSA05.jpg,AMSA01.jpg,AMNE12.jpg,MN,1,num_6,16,num_6,0.683466039598,,,2017_Nov_17_1424,60.0000577234,FEMA4ImagesEEG,001,202264,
AMSA21.JPG,AMNE22.JPG,AMNE21.JPG,AMSA23.JPG,AMSA22.JPG,AMNE23.JPG,,,,,0,2,2,1,,,,,,,,,,,,,,,,,,,AMSA20.jpg,AMSA07.jpg,AMNE14.jpg,AMNE03.jpg,AMSA20.jpg,MS,2,num_8,32,num_2,1.96664309269,,,2017_Nov_17_1424,60.0000577234,FEMA4ImagesEEG,001,202264,
AFSA21.JPG,AFNE23.JPG,AFNE21.JPG,AFSA25.JPG,AFNE25.JPG,AFSA23.JPG,,,,,0,3,3,4,,,,,,,,,,,,,,,,,,,AMSA14.jpg,AMNE15.jpg,AMNE04.jpg,AMSA11.jpg,AMNE04.jpg,MN,1,num_2,32,num_4,1.11677098693,,,2017_Nov_17_1424,60.0000577234,FEMA4ImagesEEG,001,202264,
AFSA25.JPG,AFNE24.JPG,AFSA24.JPG,AFNE21.JPG,AFSA21.JPG,AFNE25.JPG,,,,,0,4,4,2,,,,,,,,,,,,,,,,,,,AMSA19.jpg,AMNE20.jpg,AMSA04.jpg,AMNE07.jpg,AMSA19.jpg,MS,2,num_8,32,num_2,2.61671277275,,,2017_Nov_17_1424,60.0000577234,FEMA4ImagesEEG,001,202264,
AMSA21.JPG,AMNE23.JPG,AMNE21.JPG,AMSA25.JPG,AMNE25.JPG,AMSA23.JPG,,,,,0,5,5,5,,,,,,,,,,,,,,,,,,,AMNE19.jpg,AMNE14.jpg,AMSA04.jpg,AMSA01.jpg,AMNE14.jpg,MN,1,num_6,16,num_6,0.500203188509,,,2017_Nov_17_1424,60.0000577234,FEMA4ImagesEEG,001,202264,
AMNE22.JPG,AMSA24.JPG,AMSA22.JPG,AMNE25.JPG,AMNE24.JPG,AMSA25.JPG,,,,,0,6,6,7,,,,,,,,,,,,,,,,,,,AMNE13.jpg,AMSA17.jpg,AMSA10.jpg,AMNE03.jpg,AMSA10.jpg,MS,2,num_2,32,num_8,0.766792235896,,,2017_Nov_17_1424,60.0000577234,FEMA4ImagesEEG,001,202264,
AFSA21.JPG,AFNE22.JPG,AFNE21.JPG,AFSA23.JPG,AFSA22.JPG,AFNE23.JPG,,,,,0,7,7,0,,,,,,,,,,,,,,,,,,,AMNE16.jpg,AMSA07.jpg,AMNE15.jpg,AMSA04.jpg,AMNE15.jpg,MN,1,num_2,16,num_2,1.20011257986,,,2017_Nov_17_1424,60.0000577234,FEMA4ImagesEEG,001,202264,
AFNE23.JPG,AFNE24.JPG,AFNE22.JPG,AFSA24.JPG,AFSA22.JPG,AFSA23.JPG,,,,,0,8,8,8,,,,,,,,,,,,,,,,,,,AMSA02.jpg,AMSA07.jpg,AMNE20.jpg,AMNE04.jpg,AMNE20.jpg,MN,1,num_2,16,num_2,1.26677956712,,,2017_Nov_17_1424,60.0000577234,FEMA4ImagesEEG,001,202264,
AMSA25.JPG,AMNE24.JPG,AMSA24.JPG,AMNE26.JPG,AMSA21.JPG,AMNE25.JPG,,,,,0,9,9,3,,,,,,,,,,,,,,,,,,,AMSA05.jpg,AMNE13.jpg,AMSA14.jpg,AMNE12.jpg,AMSA14.jpg,MS,2,num_2,16,num_2,0.950128215365,,,2017_Nov_17_1424,60.0000577234,FEMA4ImagesEEG,001,202264,
AMNE23.JPG,AMNE24.JPG,AMNE22.JPG,AMSA24.JPG,AMSA22.JPG,AMSA23.JPG,,,,,,,,,0,0,0,9,,,,,,,,,,,,,,,AFNE20.jpg,AFNE09.jpg,AFSA18.jpg,AFSA16.jpg,AFNE09.jpg,FN,3,num_6,16,num_6,0.950490651187,,,2017_Nov_17_1424,60.0000577234,FEMA4ImagesEEG,001,202264,
AFSA21.JPG,AFNE22.JPG,AFNE21.JPG,AFSA23.JPG,AFSA22.JPG,AFNE23.JPG,,,,,,,,,0,1,1,0,,,,,,,,,,,,,,,AFSA03.jpg,AFNE05.jpg,AFNE04.jpg,AFSA16.jpg,AFNE04.jpg,FN,3,num_2,32,num_8,1.68340381607,,,2017_Nov_17_1424,60.0000577234,FEMA4ImagesEEG,001,202264,
AFSA21.JPG,AFNE23.JPG,AFNE21.JPG,AFSA25.JPG,AFNE25.JPG,AFSA23.JPG,,,,,,,,,0,2,2,4,,,,,,,,,,,,,,,AFNE08.jpg,AFSA19.jpg,AFNE12.jpg,AFSA02.jpg,AFSA19.jpg,FS,4,num_6,32,num_4,1.48355071433,,,2017_Nov_17_1424,60.0000577234,FEMA4ImagesEEG,001,202264,
AFNE23.JPG,AFNE24.JPG,AFNE22.JPG,AFSA24.JPG,AFSA22.JPG,AFSA23.JPG,,,,,,,,,0,3,3,8,,,,,,,,,,,,,,,AFSA05.jpg,AFNE14.jpg,AFNE12.jpg,AFSA10.jpg,AFSA10.jpg,FS,4,num_4,32,num_6,1.41672816873,,,2017_Nov_17_1424,60.0000577234,FEMA4ImagesEEG,001,202264,
AMNE22.JPG,AMSA24.JPG,AMSA22.JPG,AMNE25.JPG,AMNE24.JPG,AMSA25.JPG,,,,,,,,,0,4,4,7,,,,,,,,,,,,,,,AFSA20.jpg,AFNE03.jpg,AFSA18.jpg,AFNE07.jpg,AFSA18.jpg,FS,4,num_2,32,num_6,0.783565628808,,,2017_Nov_17_1424,60.0000577234,FEMA4ImagesEEG,001,202264,
AMSA21.JPG,AMNE23.JPG,AMNE21.JPG,AMSA25.JPG,AMNE25.JPG,AMSA23.JPG,,,,,,,,,0,5,5,5,,,,,,,,,,,,,,,AFNE06.jpg,AFNE03.jpg,AFSA10.jpg,AFSA17.jpg,AFNE03.jpg,FN,3,num_6,32,num_8,1.00012925779,,,2017_Nov_17_1424,60.0000577234,FEMA4ImagesEEG,001,202264,
AFSA25.JPG,AFNE24.JPG,AFSA24.JPG,AFNE21.JPG,AFSA21.JPG,AFNE25.JPG,,,,,,,,,0,6,6,2,,,,,,,,,,,,,,,AFNE15.jpg,AFSA10.jpg,AFNE04.jpg,AFSA05.jpg,AFNE15.jpg,FN,3,num_8,32,num_2,2.71649899986,,,2017_Nov_17_1424,60.0000577234,FEMA4ImagesEEG,001,202264,
AMSA25.JPG,AMNE24.JPG,AMSA24.JPG,AMNE26.JPG,AMSA21.JPG,AMNE25.JPG,,,,,,,,,0,7,7,3,,,,,,,,,,,,,,,AFSA18.jpg,AFNE15.jpg,AFNE18.jpg,AFSA06.jpg,AFNE18.jpg,FN,3,num_2,32,num_4,1.18346748268,,,2017_Nov_17_1424,60.0000577234,FEMA4ImagesEEG,001,202264,
AFNE22.JPG,AFSA24.JPG,AFSA22.JPG,AFNE25.JPG,AFNE24.JPG,AFSA25.JPG,,,,,,,,,0,8,8,6,,,,,,,,,,,,,,,AFSA07.jpg,AFNE02.jpg,AFSA09.jpg,AFNE13.jpg,AFSA07.jpg,FS,4,num_8,32,num_2,1.43338096328,,,2017_Nov_17_1424,60.0000577234,FEMA4ImagesEEG,001,202264,
AMSA21.JPG,AMNE22.JPG,AMNE21.JPG,AMSA23.JPG,AMSA22.JPG,AMNE23.JPG,,,,,,,,,0,9,9,1,,,,,,,,,,,,,,,AFSA10.jpg,AFNE10.jpg,AFNE20.jpg,AFSA14.jpg,AFSA10.jpg,FS,4,num_8,16,num_8,0.63349963678,,,2017_Nov_17_1424,60.0000577234,FEMA4ImagesEEG,001,202264,
AFSA25.JPG,AFNE24.JPG,AFSA24.JPG,AFNE21.JPG,AFSA21.JPG,AFNE25.JPG,,,,,,,,,,,,,0,0,0,2,,,,,,,,,,,AMSA17.jpg,AMNE04.jpg,AMNE13.jpg,AMSA10.jpg,AMSA17.jpg,MS,2,num_8,32,num_2,0.816778845154,,,2017_Nov_17_1424,60.0000577234,FEMA4ImagesEEG,001,202264,
AFNE22.JPG,AFSA24.JPG,AFSA22.JPG,AFNE25.JPG,AFNE24.JPG,AFSA25.JPG,,,,,,,,,,,,,0,1,1,6,,,,,,,,,,,AMNE08.jpg,AMSA09.jpg,AMNE18.jpg,AMSA18.jpg,AMSA18.jpg,MS,2,num_4,16,num_4,0.833771624137,,,2017_Nov_17_1424,60.0000577234,FEMA4ImagesEEG,001,202264,
AFSA21.JPG,AFNE22.JPG,AFNE21.JPG,AFSA23.JPG,AFSA22.JPG,AFNE23.JPG,,,,,,,,,,,,,0,2,2,0,,,,,,,,,,,AMNE17.jpg,AMSA17.jpg,AMSA08.jpg,AMNE09.jpg,AMSA17.jpg,MS,2,num_6,16,num_6,0.666877392679,,,2017_Nov_17_1424,60.0000577234,FEMA4ImagesEEG,001,202264,
AMSA25.JPG,AMNE24.JPG,AMSA24.JPG,AMNE26.JPG,AMSA21.JPG,AMNE25.JPG,,,,,,,,,,,,,0,3,3,3,,,,,,,,,,,AMSA02.jpg,AMNE11.jpg,AMSA19.jpg,AMNE04.jpg,AMNE04.jpg,MN,1,num_4,32,num_8,2.00002309354,,,2017_Nov_17_1424,60.0000577234,FEMA4ImagesEEG,001,202264,
AMSA21.JPG,AMNE22.JPG,AMNE21.JPG,AMSA23.JPG,AMSA22.JPG,AMNE23.JPG,,,,,,,,,,,,,0,4,4,1,,,,,,,,,,,AMSA11.jpg,AMNE12.jpg,AMSA08.jpg,AMNE08.jpg,AMSA08.jpg,MS,2,num_2,32,num_6,0.70016341703,,,2017_Nov_17_1424,60.0000577234,FEMA4ImagesEEG,001,202264,
AFSA21.JPG,AFNE23.JPG,AFNE21.JPG,AFSA25.JPG,AFNE25.JPG,AFSA23.JPG,,,,,,,,,,,,,0,5,5,4,,,,,,,,,,,AMNE05.jpg,AMSA17.jpg,AMSA13.jpg,AMNE13.jpg,AMNE05.jpg,MN,1,num_8,16,num_8,1.18344054045,,,2017_Nov_17_1424,60.0000577234,FEMA4ImagesEEG,001,202264,
AFNE23.JPG,AFNE24.JPG,AFNE22.JPG,AFSA24.JPG,AFSA22.JPG,AFSA23.JPG,,,,,,,,,,,,,0,6,6,8,,,,,,,,,,,AMNE16.jpg,AMNE18.jpg,AMSA14.jpg,AMSA06.jpg,AMNE16.jpg,MN,1,num_8,32,num_2,1.51674051676,,,2017_Nov_17_1424,60.0000577234,FEMA4ImagesEEG,001,202264,
AMSA21.JPG,AMNE23.JPG,AMNE21.JPG,AMSA25.JPG,AMNE25.JPG,AMSA23.JPG,,,,,,,,,,,,,0,7,7,5,,,,,,,,,,,AMNE06.jpg,AMNE20.jpg,AMSA19.jpg,AMSA08.jpg,AMSA08.jpg,MS,2,num_4,32,num_2,1.15023438074,,,2017_Nov_17_1424,60.0000577234,FEMA4ImagesEEG,001,202264,
AMNE23.JPG,AMNE24.JPG,AMNE22.JPG,AMSA24.JPG,AMSA22.JPG,AMSA23.JPG,,,,,,,,,,,,,0,8,8,9,,,,,,,,,,,AMSA18.jpg,AMNE19.jpg,AMNE07.jpg,AMSA20.jpg,AMNE19.jpg,MN,1,num_6,32,num_8,0.650164298713,,,2017_Nov_17_1424,60.0000577234,FEMA4ImagesEEG,001,202264,
AMNE22.JPG,AMSA24.JPG,AMSA22.JPG,AMNE25.JPG,AMNE24.JPG,AMSA25.JPG,,,,,,,,,,,,,0,9,9,7,,,,,,,,,,,AMSA18.jpg,AMNE07.jpg,AMNE13.jpg,AMSA03.jpg,AMNE07.jpg,MN,1,num_6,16,num_6,1.20015363395,,,2017_Nov_17_1424,60.0000577234,FEMA4ImagesEEG,001,202264,
AFNE23.JPG,AFNE24.JPG,AFNE22.JPG,AFSA24.JPG,AFSA22.JPG,AFSA23.JPG,,,,,,,,,,,,,,,,,0,0,0,8,,,,,,,AFSA18.jpg,AFSA20.jpg,AFNE07.jpg,AFNE19.jpg,AFSA20.jpg,FS,4,num_6,32,num_4,0.900123965926,,,2017_Nov_17_1424,60.0000577234,FEMA4ImagesEEG,001,202264,
AFSA25.JPG,AFNE24.JPG,AFSA24.JPG,AFNE21.JPG,AFSA21.JPG,AFNE25.JPG,,,,,,,,,,,,,,,,,0,1,1,2,,,,,,,AFNE11.jpg,AFSA20.jpg,AFNE10.jpg,AFSA01.jpg,AFNE10.jpg,FN,3,num_2,32,num_8,0.900215697475,,,2017_Nov_17_1424,60.0000577234,FEMA4ImagesEEG,001,202264,
AFNE22.JPG,AFSA24.JPG,AFSA22.JPG,AFNE25.JPG,AFNE24.JPG,AFSA25.JPG,,,,,,,,,,,,,,,,,0,2,2,6,,,,,,,AFSA09.jpg,AFNE16.jpg,AFSA03.jpg,AFNE03.jpg,AFNE16.jpg,FN,3,num_6,32,num_2,1.46680233954,,,2017_Nov_17_1424,60.0000577234,FEMA4ImagesEEG,001,202264,
AMNE23.JPG,AMNE24.JPG,AMNE22.JPG,AMSA24.JPG,AMSA22.JPG,AMSA23.JPG,,,,,,,,,,,,,,,,,0,3,3,9,,,,,,,AFNE10.jpg,AFSA10.jpg,AFNE01.jpg,AFSA07.jpg,AFSA07.jpg,FS,4,num_4,32,num_2,1.48352986621,,,2017_Nov_17_1424,60.0000577234,FEMA4ImagesEEG,001,202264,
AFSA21.JPG,AFNE22.JPG,AFNE21.JPG,AFSA23.JPG,AFSA22.JPG,AFNE23.JPG,,,,,,,,,,,,,,,,,0,4,4,0,,,,,,,AFSA12.jpg,AFNE01.jpg,AFNE03.jpg,AFSA14.jpg,AFSA14.jpg,FS,4,num_4,32,num_2,1.90004249802,,,2017_Nov_17_1424,60.0000577234,FEMA4ImagesEEG,001,202264,
AMSA25.JPG,AMNE24.JPG,AMSA24.JPG,AMNE26.JPG,AMSA21.JPG,AMNE25.JPG,,,,,,,,,,,,,,,,,0,5,5,3,,,,,,,AFNE16.jpg,AFSA08.jpg,AFSA16.jpg,AFNE17.jpg,AFNE17.jpg,FN,3,num_4,32,num_6,0.650176166557,,,2017_Nov_17_1424,60.0000577234,FEMA4ImagesEEG,001,202264,
AMNE22.JPG,AMSA24.JPG,AMSA22.JPG,AMNE25.JPG,AMNE24.JPG,AMSA25.JPG,,,,,,,,,,,,,,,,,0,6,6,7,,,,,,,AFNE20.jpg,AFSA19.jpg,AFNE03.jpg,AFSA17.jpg,AFNE03.jpg,FN,3,num_2,16,num_2,1.05009822641,,,2017_Nov_17_1424,60.0000577234,FEMA4ImagesEEG,001,202264,
AFSA21.JPG,AFNE23.JPG,AFNE21.JPG,AFSA25.JPG,AFNE25.JPG,AFSA23.JPG,,,,,,,,,,,,,,,,,0,7,7,4,,,,,,,AFSA03.jpg,AFSA05.jpg,AFNE15.jpg,AFNE04.jpg,AFSA03.jpg,FS,4,num_8,16,num_8,1.13344495092,,,2017_Nov_17_1424,60.0000577234,FEMA4ImagesEEG,001,202264,
AMSA21.JPG,AMNE23.JPG,AMNE21.JPG,AMSA25.JPG,AMNE25.JPG,AMSA23.JPG,,,,,,,,,,,,,,,,,0,8,8,5,,,,,,,AFSA06.jpg,AFNE17.jpg,AFSA08.jpg,AFNE20.jpg,AFSA08.jpg,FS,4,num_2,16,num_2,1.2334210556,,,2017_Nov_17_1424,60.0000577234,FEMA4ImagesEEG,001,202264,
AMSA21.JPG,AMNE22.JPG,AMNE21.JPG,AMSA23.JPG,AMSA22.JPG,AMNE23.JPG,,,,,,,,,,,,,,,,,0,9,9,1,,,,,,,AFNE13.jpg,AFNE19.jpg,AFSA01.jpg,AFSA14.jpg,AFSA01.jpg,FS,4,num_2,32,num_8,0.600195009727,,,2017_Nov_17_1424,60.0000577234,FEMA4ImagesEEG,001,202264,
AMNE22.JPG,AMSA24.JPG,AMSA22.JPG,AMNE25.JPG,AMNE24.JPG,AMSA25.JPG,,,,,,,,,,,,,,,,,,,,,0,0,0,7,,,AMSA06.jpg,AMSA14.jpg,AMNE03.jpg,AMNE06.jpg,AMSA14.jpg,MS,2,num_6,32,num_8,1.01681156037,,,2017_Nov_17_1424,60.0000577234,FEMA4ImagesEEG,001,202264,
AFNE22.JPG,AFSA24.JPG,AFSA22.JPG,AFNE25.JPG,AFNE24.JPG,AFSA25.JPG,,,,,,,,,,,,,,,,,,,,,0,1,1,6,,,AMNE19.jpg,AMSA17.jpg,AMNE04.jpg,AMSA06.jpg,AMNE19.jpg,MN,1,num_8,32,num_4,3.83324368671,,,2017_Nov_17_1424,60.0000577234,FEMA4ImagesEEG,001,202264,
AFSA21.JPG,AFNE22.JPG,AFNE21.JPG,AFSA23.JPG,AFSA22.JPG,AFNE23.JPG,,,,,,,,,,,,,,,,,,,,,0,2,2,0,,,AMNE03.jpg,AMSA07.jpg,AMNE05.jpg,AMSA15.jpg,AMNE03.jpg,MN,1,num_8,16,num_8,1.63355384162,,,2017_Nov_17_1424,60.0000577234,FEMA4ImagesEEG,001,202264,
AMSA21.JPG,AMNE22.JPG,AMNE21.JPG,AMSA23.JPG,AMSA22.JPG,AMNE23.JPG,,,,,,,,,,,,,,,,,,,,,0,3,3,1,,,AMNE11.jpg,AMSA19.jpg,AMSA08.jpg,AMNE03.jpg,AMNE03.jpg,MN,1,num_4,16,num_4,0.850133507978,,,2017_Nov_17_1424,60.0000577234,FEMA4ImagesEEG,001,202264,
AMSA21.JPG,AMNE23.JPG,AMNE21.JPG,AMSA25.JPG,AMNE25.JPG,AMSA23.JPG,,,,,,,,,,,,,,,,,,,,,0,4,4,5,,,AMSA01.jpg,AMNE20.jpg,AMNE03.jpg,AMSA12.jpg,AMSA12.jpg,MS,2,num_4,32,num_8,1.31672736676,,,2017_Nov_17_1424,60.0000577234,FEMA4ImagesEEG,001,202264,
AFSA25.JPG,AFNE24.JPG,AFSA24.JPG,AFNE21.JPG,AFSA21.JPG,AFNE25.JPG,,,,,,,,,,,,,,,,,,,,,0,5,5,2,,,AMNE02.jpg,AMSA14.jpg,AMNE10.jpg,AMSA16.jpg,AMSA16.jpg,MS,2,num_4,32,num_2,0.933477666229,,,2017_Nov_17_1424,60.0000577234,FEMA4ImagesEEG,001,202264,
AFNE23.JPG,AFNE24.JPG,AFNE22.JPG,AFSA24.JPG,AFSA22.JPG,AFSA23.JPG,,,,,,,,,,,,,,,,,,,,,0,6,6,8,,,AMSA04.jpg,AMNE09.jpg,AMSA17.jpg,AMNE18.jpg,AMSA04.jpg,MS,2,num_8,32,num_2,1.45012003696,,,2017_Nov_17_1424,60.0000577234,FEMA4ImagesEEG,001,202264,
AFSA21.JPG,AFNE23.JPG,AFNE21.JPG,AFSA25.JPG,AFNE25.JPG,AFSA23.JPG,,,,,,,,,,,,,,,,,,,,,0,7,7,4,,,AMNE03.jpg,AMNE08.jpg,AMSA13.jpg,AMSA06.jpg,AMSA06.jpg,MS,2,num_4,32,num_6,0.583388259634,,,2017_Nov_17_1424,60.0000577234,FEMA4ImagesEEG,001,202264,
AMNE23.JPG,AMNE24.JPG,AMNE22.JPG,AMSA24.JPG,AMSA22.JPG,AMSA23.JPG,,,,,,,,,,,,,,,,,,,,,0,8,8,9,,,AMNE19.jpg,AMNE01.jpg,AMSA05.jpg,AMSA09.jpg,AMSA09.jpg,MS,2,num_4,32,num_2,1.48339419346,,,2017_Nov_17_1424,60.0000577234,FEMA4ImagesEEG,001,202264,
AMSA25.JPG,AMNE24.JPG,AMSA24.JPG,AMNE26.JPG,AMSA21.JPG,AMNE25.JPG,,,,,,,,,,,,,,,,,,,,,0,9,9,3,,,AMNE02.jpg,AMNE11.jpg,AMSA17.jpg,AMSA18.jpg,AMSA18.jpg,MS,2,num_4,16,num_4,0.883505169768,,,2017_Nov_17_1424,60.0000577234,FEMA4ImagesEEG,001,202264,
,,,,,,,,,,,,,,,,,,,,,,,,,,,,,,,,,,,,,,,,,,,space,3.01628875546,2017_Nov_17_1424,60.0000577234,FEMA4ImagesEEG,001,202264,
AFNE01.JPG,AFNE01.JPG,AFNE01.JPG,AFNE01.JPG,AFNE01.JPG,AFNE01.JPG,0,0,0,6,,,,,,,,,,,,,,,,,,,,,,,AFNE18.jpg,AFNE07.jpg,AFSA07.jpg,AFSA15.jpg,AFNE07.jpg,FN,3,num_6,16,num_6,0.616846200544,,,2017_Nov_17_1424,60.0000577234,FEMA4ImagesEEG,001,202264,
AFNE01.JPG,AFNE01.JPG,AFNE01.JPG,AFNE01.JPG,AFNE01.JPG,AFNE01.JPG,0,1,1,1,,,,,,,,,,,,,,,,,,,,,,,AFSA05.jpg,AFNE02.jpg,AFNE01.jpg,AFSA12.jpg,AFSA12.jpg,FS,4,num_4,16,num_4,0.766811159905,,,2017_Nov_17_1424,60.0000577234,FEMA4ImagesEEG,001,202264,
AFNE01.JPG,AFNE01.JPG,AFNE01.JPG,AFNE01.JPG,AFNE01.JPG,AFNE01.JPG,0,2,2,4,,,,,,,,,,,,,,,,,,,,,,,AFSA20.jpg,AFSA18.jpg,AFNE01.jpg,AFNE18.jpg,AFNE18.jpg,FN,3,num_4,32,num_8,0.916789590381,,,2017_Nov_17_1424,60.0000577234,FEMA4ImagesEEG,001,202264,
AFNE01.JPG,AFNE01.JPG,AFNE01.JPG,AFNE01.JPG,AFNE01.JPG,AFNE01.JPG,0,3,3,3,,,,,,,,,,,,,,,,,,,,,,,AFNE02.jpg,AFSA03.jpg,AFSA15.jpg,AFNE06.jpg,AFSA15.jpg,FS,4,num_2,16,num_2,1.28344743652,,,2017_Nov_17_1424,60.0000577234,FEMA4ImagesEEG,001,202264,
AFNE01.JPG,AFNE01.JPG,AFNE01.JPG,AFNE01.JPG,AFNE01.JPG,AFNE01.JPG,0,4,4,2,,,,,,,,,,,,,,,,,,,,,,,AFSA04.jpg,AFNE08.jpg,AFNE02.jpg,AFSA19.jpg,AFSA19.jpg,FS,4,num_4,16,num_4,1.71682455111,,,2017_Nov_17_1424,60.0000577234,FEMA4ImagesEEG,001,202264,
AFNE01.JPG,AFNE01.JPG,AFNE01.JPG,AFNE01.JPG,AFNE01.JPG,AFNE01.JPG,0,5,5,8,,,,,,,,,,,,,,,,,,,,,,,AFNE04.jpg,AFNE18.jpg,AFSA19.jpg,AFSA03.jpg,AFNE04.jpg,FN,3,num_8,32,num_6,1.31679247646,,,2017_Nov_17_1424,60.0000577234,FEMA4ImagesEEG,001,202264,
AFNE01.JPG,AFNE01.JPG,AFNE01.JPG,AFNE01.JPG,AFNE01.JPG,AFNE01.JPG,0,6,6,5,,,,,,,,,,,,,,,,,,,,,,,AFNE07.jpg,AFNE10.jpg,AFSA17.jpg,AFSA06.jpg,AFSA06.jpg,FS,4,num_4,16,num_4,0.583529064432,,,2017_Nov_17_1424,60.0000577234,FEMA4ImagesEEG,001,202264,
AFNE01.JPG,AFNE01.JPG,AFNE01.JPG,AFNE01.JPG,AFNE01.JPG,AFNE01.JPG,0,7,7,9,,,,,,,,,,,,,,,,,,,,,,,AFNE17.jpg,AFSA08.jpg,AFSA17.jpg,AFNE04.jpg,AFSA08.jpg,FS,4,num_6,16,num_6,0.983475501183,,,2017_Nov_17_1424,60.0000577234,FEMA4ImagesEEG,001,202264,
AFNE01.JPG,AFNE01.JPG,AFNE01.JPG,AFNE01.JPG,AFNE01.JPG,AFNE01.JPG,0,8,8,7,,,,,,,,,,,,,,,,,,,,,,,AFNE03.jpg,AFSA18.jpg,AFSA05.jpg,AFNE13.jpg,AFNE03.jpg,FN,3,num_8,16,num_8,0.916783817112,,,2017_Nov_17_1424,60.0000577234,FEMA4ImagesEEG,001,202264,
AFNE01.JPG,AFNE01.JPG,AFNE01.JPG,AFNE01.JPG,AFNE01.JPG,AFNE01.JPG,0,9,9,0,,,,,,,,,,,,,,,,,,,,,,,AFNE03.jpg,AFSA04.jpg,AFNE12.jpg,AFSA10.jpg,AFSA10.jpg,FS,4,num_4,32,num_6,0.41678750515,,,2017_Nov_17_1424,60.0000577234,FEMA4ImagesEEG,001,202264,
AFNE01.JPG,AFNE01.JPG,AFNE01.JPG,AFNE01.JPG,AFNE01.JPG,AFNE01.JPG,1,0,10,9,,,,,,,,,,,,,,,,,,,,,,,AFSA16.jpg,AFSA02.jpg,AFNE20.jpg,AFNE18.jpg,AFSA02.jpg,FS,4,num_6,32,num_4,0.533544059377,,,2017_Nov_17_1424,60.0000577234,FEMA4ImagesEEG,001,202264,
AFNE01.JPG,AFNE01.JPG,AFNE01.JPG,AFNE01.JPG,AFNE01.JPG,AFNE01.JPG,1,1,11,7,,,,,,,,,,,,,,,,,,,,,,,AFSA18.jpg,AFNE13.jpg,AFNE10.jpg,AFSA04.jpg,AFSA18.jpg,FS,4,num_8,16,num_8,0.966761445161,,,2017_Nov_17_1424,60.0000577234,FEMA4ImagesEEG,001,202264,
AFNE01.JPG,AFNE01.JPG,AFNE01.JPG,AFNE01.JPG,AFNE01.JPG,AFNE01.JPG,1,2,12,3,,,,,,,,,,,,,,,,,,,,,,,AFNE03.jpg,AFSA03.jpg,AFNE13.jpg,AFSA14.jpg,AFSA03.jpg,FS,4,num_6,16,num_6,0.850144091994,,,2017_Nov_17_1424,60.0000577234,FEMA4ImagesEEG,001,202264,
AFNE01.JPG,AFNE01.JPG,AFNE01.JPG,AFNE01.JPG,AFNE01.JPG,AFNE01.JPG,1,3,13,8,,,,,,,,,,,,,,,,,,,,,,,AFNE16.jpg,AFNE18.jpg,AFSA17.jpg,AFSA02.jpg,AFSA02.jpg,FS,4,num_4,16,num_4,1.00015042676,,,2017_Nov_17_1424,60.0000577234,FEMA4ImagesEEG,001,202264,
AFNE01.JPG,AFNE01.JPG,AFNE01.JPG,AFNE01.JPG,AFNE01.JPG,AFNE01.JPG,1,4,14,5,,,,,,,,,,,,,,,,,,,,,,,AFNE03.jpg,AFSA05.jpg,AFSA09.jpg,AFNE17.jpg,AFNE03.jpg,FN,3,num_8,32,num_2,0.700174001511,,,2017_Nov_17_1424,60.0000577234,FEMA4ImagesEEG,001,202264,
AFNE01.JPG,AFNE01.JPG,AFNE01.JPG,AFNE01.JPG,AFNE01.JPG,AFNE01.JPG,1,5,15,0,,,,,,,,,,,,,,,,,,,,,,,AFNE19.jpg,AFNE03.jpg,AFSA17.jpg,AFSA16.jpg,AFNE19.jpg,FN,3,num_8,16,num_8,0.816778524779,,,2017_Nov_17_1424,60.0000577234,FEMA4ImagesEEG,001,202264,
AFNE01.JPG,AFNE01.JPG,AFNE01.JPG,AFNE01.JPG,AFNE01.JPG,AFNE01.JPG,1,6,16,6,,,,,,,,,,,,,,,,,,,,,,,AFNE04.jpg,AFSA19.jpg,AFNE16.jpg,AFSA17.jpg,AFSA17.jpg,FS,4,num_4,32,num_8,1.20021425374,,,2017_Nov_17_1424,60.0000577234,FEMA4ImagesEEG,001,202264,
AFNE01.JPG,AFNE01.JPG,AFNE01.JPG,AFNE01.JPG,AFNE01.JPG,AFNE01.JPG,1,7,17,4,,,,,,,,,,,,,,,,,,,,,,,AFSA04.jpg,AFSA20.jpg,AFNE02.jpg,AFNE06.jpg,AFNE02.jpg,FN,3,num_2,32,num_4,0.850213051308,,,2017_Nov_17_1424,60.0000577234,FEMA4ImagesEEG,001,202264,
AFNE01.JPG,AFNE01.JPG,AFNE01.JPG,AFNE01.JPG,AFNE01.JPG,AFNE01.JPG,1,8,18,2,,,,,,,,,,,,,,,,,,,,,,,AFSA06.jpg,AFSA08.jpg,AFNE07.jpg,AFNE02.jpg,AFSA08.jpg,FS,4,num_6,32,num_8,1.98334880918,,,2017_Nov_17_1424,60.0000577234,FEMA4ImagesEEG,001,202264,
AFNE01.JPG,AFNE01.JPG,AFNE01.JPG,AFNE01.JPG,AFNE01.JPG,AFNE01.JPG,1,9,19,1,,,,,,,,,,,,,,,,,,,,,,,AFNE06.jpg,AFNE02.jpg,AFSA01.jpg,AFSA08.jpg,AFSA08.jpg,FS,4,num_4,32,num_6,0.333511664532,,,2017_Nov_17_1424,60.0000577234,FEMA4ImagesEEG,001,202264,
AFNE01.JPG,AFNE01.JPG,AFNE01.JPG,AFNE01.JPG,AFNE01.JPG,AFNE01.JPG,2,0,20,3,,,,,,,,,,,,,,,,,,,,,,,AFNE14.jpg,AFSA10.jpg,AFNE19.jpg,AFSA13.jpg,AFSA13.jpg,FS,4,num_4,32,num_2,1.35010704678,,,2017_Nov_17_1424,60.0000577234,FEMA4ImagesEEG,001,202264,
AFNE01.JPG,AFNE01.JPG,AFNE01.JPG,AFNE01.JPG,AFNE01.JPG,AFNE01.JPG,2,1,21,8,,,,,,,,,,,,,,,,,,,,,,,AFNE10.jpg,AFSA13.jpg,AFSA17.jpg,AFNE18.jpg,AFSA13.jpg,FS,4,num_6,32,num_4,0.816865123808,,,2017_Nov_17_1424,60.0000577234,FEMA4ImagesEEG,001,202264,
AFNE01.JPG,AFNE01.JPG,AFNE01.JPG,AFNE01.JPG,AFNE01.JPG,AFNE01.JPG,2,2,22,4,,,,,,,,,,,,,,,,,,,,,,,AFNE02.jpg,AFSA19.jpg,AFSA14.jpg,AFNE07.jpg,AFNE07.jpg,FN,3,num_4,16,num_4,0.900137436576,,,2017_Nov_17_1424,60.0000577234,FEMA4ImagesEEG,001,202264,
AFNE01.JPG,AFNE01.JPG,AFNE01.JPG,AFNE01.JPG,AFNE01.JPG,AFNE01.JPG,2,3,23,5,,,,,,,,,,,,,,,,,,,,,,,AFNE12.jpg,AFSA12.jpg,AFSA10.jpg,AFNE09.jpg,AFNE12.jpg,FN,3,num_8,16,num_8,1.80004426232,,,2017_Nov_17_1424,60.0000577234,FEMA4ImagesEEG,001,202264,
AFNE01.JPG,AFNE01.JPG,AFNE01.JPG,AFNE01.JPG,AFNE01.JPG,AFNE01.JPG,2,4,24,1,,,,,,,,,,,,,,,,,,,,,,,AFSA02.jpg,AFNE11.jpg,AFNE10.jpg,AFSA16.jpg,AFNE11.jpg,FN,3,num_6,32,num_4,1.03341111308,,,2017_Nov_17_1424,60.0000577234,FEMA4ImagesEEG,001,202264,
AFNE01.JPG,AFNE01.JPG,AFNE01.JPG,AFNE01.JPG,AFNE01.JPG,AFNE01.JPG,2,5,25,9,,,,,,,,,,,,,,,,,,,,,,,AFSA09.jpg,AFNE13.jpg,AFNE11.jpg,AFSA13.jpg,AFSA09.jpg,FS,4,num_8,32,num_2,0.750142327975,,,2017_Nov_17_1424,60.0000577234,FEMA4ImagesEEG,001,202264,
AFNE01.JPG,AFNE01.JPG,AFNE01.JPG,AFNE01.JPG,AFNE01.JPG,AFNE01.JPG,2,6,26,0,,,,,,,,,,,,,,,,,,,,,,,AFNE04.jpg,AFSA17.jpg,AFNE11.jpg,AFSA06.jpg,AFNE04.jpg,FN,3,num_8,16,num_8,0.766445195768,,,2017_Nov_17_1424,60.0000577234,FEMA4ImagesEEG,001,202264,
AFNE01.JPG,AFNE01.JPG,AFNE01.JPG,AFNE01.JPG,AFNE01.JPG,AFNE01.JPG,2,7,27,7,,,,,,,,,,,,,,,,,,,,,,,AFSA01.jpg,AFNE13.jpg,AFNE08.jpg,AFSA09.jpg,AFNE08.jpg,FN,3,num_2,32,num_6,0.533559775446,,,2017_Nov_17_1424,60.0000577234,FEMA4ImagesEEG,001,202264,
AFNE01.JPG,AFNE01.JPG,AFNE01.JPG,AFNE01.JPG,AFNE01.JPG,AFNE01.JPG,2,8,28,2,,,,,,,,,,,,,,,,,,,,,,,AFNE17.jpg,AFNE16.jpg,AFSA11.jpg,AFSA02.jpg,AFSA11.jpg,FS,4,num_2,32,num_8,0.700156360399,,,2017_Nov_17_1424,60.0000577234,FEMA4ImagesEEG,001,202264,
AFNE01.JPG,AFNE01.JPG,AFNE01.JPG,AFNE01.JPG,AFNE01.JPG,AFNE01.JPG,2,9,29,6,,,,,,,,,,,,,,,,,,,,,,,AFNE17.jpg,AFSA08.jpg,AFSA10.jpg,AFNE12.jpg,AFNE12.jpg,FN,3,num_4,16,num_4,1.23344414867,,,2017_Nov_17_1424,60.0000577234,FEMA4ImagesEEG,001,202264,
AFNE01.JPG,AFNE01.JPG,AFNE01.JPG,AFNE01.JPG,AFNE01.JPG,AFNE01.JPG,3,0,30,3,,,,,,,,,,,,,,,,,,,,,,,AFSA03.jpg,AFNE12.jpg,AFSA14.jpg,AFNE16.jpg,AFSA03.jpg,FS,4,num_8,32,num_2,0.78347678436,,,2017_Nov_17_1424,60.0000577234,FEMA4ImagesEEG,001,202264,
AFNE01.JPG,AFNE01.JPG,AFNE01.JPG,AFNE01.JPG,AFNE01.JPG,AFNE01.JPG,3,1,31,8,,,,,,,,,,,,,,,,,,,,,,,AFSA07.jpg,AFNE16.jpg,AFSA11.jpg,AFNE04.jpg,AFSA07.jpg,FS,4,num_8,48,None,,,,2017_Nov_17_1424,60.0000577234,FEMA4ImagesEEG,001,202264,
AFNE01.JPG,AFNE01.JPG,AFNE01.JPG,AFNE01.JPG,AFNE01.JPG,AFNE01.JPG,3,2,32,5,,,,,,,,,,,,,,,,,,,,,,,AFNE10.jpg,AFSA14.jpg,AFNE19.jpg,AFSA08.jpg,AFSA14.jpg,FS,4,num_6,32,num_8,1.28341504186,,,2017_Nov_17_1424,60.0000577234,FEMA4ImagesEEG,001,202264,
AFNE01.JPG,AFNE01.JPG,AFNE01.JPG,AFNE01.JPG,AFNE01.JPG,AFNE01.JPG,3,3,33,6,,,,,,,,,,,,,,,,,,,,,,,AFSA07.jpg,AFSA09.jpg,AFNE11.jpg,AFNE07.jpg,AFNE11.jpg,FN,3,num_2,16,num_2,0.516805627383,,,2017_Nov_17_1424,60.0000577234,FEMA4ImagesEEG,001,202264,
AFNE01.JPG,AFNE01.JPG,AFNE01.JPG,AFNE01.JPG,AFNE01.JPG,AFNE01.JPG,3,4,34,7,,,,,,,,,,,,,,,,,,,,,,,AFNE12.jpg,AFNE09.jpg,AFSA15.jpg,AFSA17.jpg,AFSA17.jpg,FS,4,num_4,48,None,,,,2017_Nov_17_1424,60.0000577234,FEMA4ImagesEEG,001,202264,
AFNE01.JPG,AFNE01.JPG,AFNE01.JPG,AFNE01.JPG,AFNE01.JPG,AFNE01.JPG,3,5,35,2,,,,,,,,,,,,,,,,,,,,,,,AFSA19.jpg,AFNE12.jpg,AFSA14.jpg,AFNE15.jpg,AFNE15.jpg,FN,3,num_4,32,num_6,1.16688492987,,,2017_Nov_17_1424,60.0000577234,FEMA4ImagesEEG,001,202264,
AFNE01.JPG,AFNE01.JPG,AFNE01.JPG,AFNE01.JPG,AFNE01.JPG,AFNE01.JPG,3,6,36,1,,,,,,,,,,,,,,,,,,,,,,,AFSA12.jpg,AFNE03.jpg,AFNE12.jpg,AFSA16.jpg,AFSA12.jpg,FS,4,num_8,32,num_2,1.30005468614,,,2017_Nov_17_1424,60.0000577234,FEMA4ImagesEEG,001,202264,
AFNE01.JPG,AFNE01.JPG,AFNE01.JPG,AFNE01.JPG,AFNE01.JPG,AFNE01.JPG,3,7,37,4,,,,,,,,,,,,,,,,,,,,,,,AFNE07.jpg,AFSA17.jpg,AFNE16.jpg,AFSA08.jpg,AFNE07.jpg,FN,3,num_8,16,num_8,1.59994002152,,,2017_Nov_17_1424,60.0000577234,FEMA4ImagesEEG,001,202264,
AFNE01.JPG,AFNE01.JPG,AFNE01.JPG,AFNE01.JPG,AFNE01.JPG,AFNE01.JPG,3,8,38,9,,,,,,,,,,,,,,,,,,,,,,,AFNE05.jpg,AFSA01.jpg,AFNE16.jpg,AFSA15.jpg,AFSA15.jpg,FS,4,num_4,16,num_4,0.933437252883,,,2017_Nov_17_1424,60.0000577234,FEMA4ImagesEEG,001,202264,
AFNE01.JPG,AFNE01.JPG,AFNE01.JPG,AFNE01.JPG,AFNE01.JPG,AFNE01.JPG,3,9,39,0,,,,,,,,,,,,,,,,,,,,,,,AFSA08.jpg,AFSA17.jpg,AFNE10.jpg,AFNE14.jpg,AFSA17.jpg,FS,4,num_6,32,num_2,0.800099108368,,,2017_Nov_17_1424,60.0000577234,FEMA4ImagesEEG,001,202264,
AFNE01.JPG,AFNE01.JPG,AFNE01.JPG,AFNE01.JPG,AFNE01.JPG,AFNE01.JPG,4,0,40,8,,,,,,,,,,,,,,,,,,,,,,,AFSA14.jpg,AFNE10.jpg,AFNE08.jpg,AFSA16.jpg,AFNE10.jpg,FN,3,num_6,32,num_8,0.933434366249,,,2017_Nov_17_1424,60.0000577234,FEMA4ImagesEEG,001,202264,
AFNE01.JPG,AFNE01.JPG,AFNE01.JPG,AFNE01.JPG,AFNE01.JPG,AFNE01.JPG,4,1,41,3,,,,,,,,,,,,,,,,,,,,,,,AFSA06.jpg,AFNE06.jpg,AFNE09.jpg,AFSA17.jpg,AFNE09.jpg,FN,3,num_2,16,num_2,0.850126451813,,,2017_Nov_17_1424,60.0000577234,FEMA4ImagesEEG,001,202264,
AFNE01.JPG,AFNE01.JPG,AFNE01.JPG,AFNE01.JPG,AFNE01.JPG,AFNE01.JPG,4,2,42,9,,,,,,,,,,,,,,,,,,,,,,,AFSA01.jpg,AFNE02.jpg,AFNE06.jpg,AFSA05.jpg,AFSA05.jpg,FS,4,num_4,32,num_8,0.916782212909,,,2017_Nov_17_1424,60.0000577234,FEMA4ImagesEEG,001,202264,
AFNE01.JPG,AFNE01.JPG,AFNE01.JPG,AFNE01.JPG,AFNE01.JPG,AFNE01.JPG,4,3,43,1,,,,,,,,,,,,,,,,,,,,,,,AFNE13.jpg,AFSA15.jpg,AFSA20.jpg,AFNE05.jpg,AFSA15.jpg,FS,4,num_6,16,num_6,0.500140323304,,,2017_Nov_17_1424,60.0000577234,FEMA4ImagesEEG,001,202264,
AFNE01.JPG,AFNE01.JPG,AFNE01.JPG,AFNE01.JPG,AFNE01.JPG,AFNE01.JPG,4,4,44,2,,,,,,,,,,,,,,,,,,,,,,,AFSA18.jpg,AFNE04.jpg,AFSA13.jpg,AFNE08.jpg,AFSA18.jpg,FS,4,num_8,16,num_8,2.5336899953,,,2017_Nov_17_1424,60.0000577234,FEMA4ImagesEEG,001,202264,
AFNE01.JPG,AFNE01.JPG,AFNE01.JPG,AFNE01.JPG,AFNE01.JPG,AFNE01.JPG,4,5,45,7,,,,,,,,,,,,,,,,,,,,,,,AFNE16.jpg,AFNE01.jpg,AFSA14.jpg,AFSA20.jpg,AFSA14.jpg,FS,4,num_2,16,num_2,1.56672937144,,,2017_Nov_17_1424,60.0000577234,FEMA4ImagesEEG,001,202264,
AFNE01.JPG,AFNE01.JPG,AFNE01.JPG,AFNE01.JPG,AFNE01.JPG,AFNE01.JPG,4,6,46,5,,,,,,,,,,,,,,,,,,,,,,,AFSA05.jpg,AFNE10.jpg,AFSA06.jpg,AFNE01.jpg,AFNE10.jpg,FN,3,num_6,32,num_8,0.750167987309,,,2017_Nov_17_1424,60.0000577234,FEMA4ImagesEEG,001,202264,
AFNE01.JPG,AFNE01.JPG,AFNE01.JPG,AFNE01.JPG,AFNE01.JPG,AFNE01.JPG,4,7,47,4,,,,,,,,,,,,,,,,,,,,,,,AFNE04.jpg,AFSA07.jpg,AFSA17.jpg,AFNE13.jpg,AFSA07.jpg,FS,4,num_6,32,num_2,0.633492580615,,,2017_Nov_17_1424,60.0000577234,FEMA4ImagesEEG,001,202264,
AFNE01.JPG,AFNE01.JPG,AFNE01.JPG,AFNE01.JPG,AFNE01.JPG,AFNE01.JPG,4,8,48,0,,,,,,,,,,,,,,,,,,,,,,,AFSA04.jpg,AFNE11.jpg,AFNE14.jpg,AFSA13.jpg,AFSA13.jpg,FS,4,num_4,32,num_8,0.73350204248,,,2017_Nov_17_1424,60.0000577234,FEMA4ImagesEEG,001,202264,
AFNE01.JPG,AFNE01.JPG,AFNE01.JPG,AFNE01.JPG,AFNE01.JPG,AFNE01.JPG,4,9,49,6,,,,,,,,,,,,,,,,,,,,,,,AFSA07.jpg,AFNE11.jpg,AFNE19.jpg,AFSA16.jpg,AFSA16.jpg,FS,4,num_4,32,num_8,0.683464435861,,,2017_Nov_17_1424,60.0000577234,FEMA4ImagesEEG,001,202264,
AFNE01.JPG,AFNE01.JPG,AFNE01.JPG,AFNE01.JPG,AFNE01.JPG,AFNE01.JPG,5,0,50,5,,,,,,,,,,,,,,,,,,,,,,,AFSA03.jpg,AFSA13.jpg,AFNE03.jpg,AFNE09.jpg,AFNE03.jpg,FN,3,num_2,16,num_2,0.750154837035,,,2017_Nov_17_1424,60.0000577234,FEMA4ImagesEEG,001,202264,
AFNE01.JPG,AFNE01.JPG,AFNE01.JPG,AFNE01.JPG,AFNE01.JPG,AFNE01.JPG,5,1,51,6,,,,,,,,,,,,,,,,,,,,,,,AFSA09.jpg,AFNE06.jpg,AFSA11.jpg,AFNE20.jpg,AFSA11.jpg,FS,4,num_2,32,num_8,1.24999943888,,,2017_Nov_17_1424,60.0000577234,FEMA4ImagesEEG,001,202264,
AFNE01.JPG,AFNE01.JPG,AFNE01.JPG,AFNE01.JPG,AFNE01.JPG,AFNE01.JPG,5,2,52,1,,,,,,,,,,,,,,,,,,,,,,,AFSA10.jpg,AFSA18.jpg,AFNE19.jpg,AFNE12.jpg,AFNE19.jpg,FN,3,num_2,32,num_6,0.466817735229,,,2017_Nov_17_1424,60.0000577234,FEMA4ImagesEEG,001,202264,
AFNE01.JPG,AFNE01.JPG,AFNE01.JPG,AFNE01.JPG,AFNE01.JPG,AFNE01.JPG,5,3,53,2,,,,,,,,,,,,,,,,,,,,,,,AFNE09.jpg,AFNE05.jpg,AFSA13.jpg,AFSA16.jpg,AFSA13.jpg,FS,4,num_2,16,num_2,0.966752464417,,,2017_Nov_17_1424,60.0000577234,FEMA4ImagesEEG,001,202264,
AFNE01.JPG,AFNE01.JPG,AFNE01.JPG,AFNE01.JPG,AFNE01.JPG,AFNE01.JPG,5,4,54,3,,,,,,,,,,,,,,,,,,,,,,,AFSA10.jpg,AFNE17.jpg,AFSA09.jpg,AFNE11.jpg,AFSA09.jpg,FS,4,num_2,32,num_8,0.833444469608,,,2017_Nov_17_1424,60.0000577234,FEMA4ImagesEEG,001,202264,
AFNE01.JPG,AFNE01.JPG,AFNE01.JPG,AFNE01.JPG,AFNE01.JPG,AFNE01.JPG,5,5,55,7,,,,,,,,,,,,,,,,,,,,,,,AFNE17.jpg,AFSA14.jpg,AFNE10.jpg,AFSA05.jpg,AFNE17.jpg,FN,3,num_8,32,num_2,1.58345753979,,,2017_Nov_17_1424,60.0000577234,FEMA4ImagesEEG,001,202264,
AFNE01.JPG,AFNE01.JPG,AFNE01.JPG,AFNE01.JPG,AFNE01.JPG,AFNE01.JPG,5,6,56,4,,,,,,,,,,,,,,,,,,,,,,,AFNE08.jpg,AFNE09.jpg,AFSA06.jpg,AFSA19.jpg,AFNE09.jpg,FN,3,num_6,32,num_8,1.01677275123,,,2017_Nov_17_1424,60.0000577234,FEMA4ImagesEEG,001,202264,
AFNE01.JPG,AFNE01.JPG,AFNE01.JPG,AFNE01.JPG,AFNE01.JPG,AFNE01.JPG,5,7,57,0,,,,,,,,,,,,,,,,,,,,,,,AFSA17.jpg,AFNE20.jpg,AFSA18.jpg,AFNE06.jpg,AFNE06.jpg,FN,3,num_4,32,num_2,2.61662104167,,,2017_Nov_17_1424,60.0000577234,FEMA4ImagesEEG,001,202264,
AFNE01.JPG,AFNE01.JPG,AFNE01.JPG,AFNE01.JPG,AFNE01.JPG,AFNE01.JPG,5,8,58,8,,,,,,,,,,,,,,,,,,,,,,,AFNE20.jpg,AFNE06.jpg,AFSA09.jpg,AFSA02.jpg,AFSA09.jpg,FS,4,num_2,32,num_8,0.716778364498,,,2017_Nov_17_1424,60.0000577234,FEMA4ImagesEEG,001,202264,
AFNE01.JPG,AFNE01.JPG,AFNE01.JPG,AFNE01.JPG,AFNE01.JPG,AFNE01.JPG,5,9,59,9,,,,,,,,,,,,,,,,,,,,,,,AFNE12.jpg,AFSA13.jpg,AFNE16.jpg,AFSA17.jpg,AFNE12.jpg,FN,3,num_8,32,num_2,1.08347052988,,,2017_Nov_17_1424,60.0000577234,FEMA4ImagesEEG,001,202264,
,,,,,,,,,,,,,,,,,,,,,,,,,,,,,,,,,,,,,,,,,,,space,9.39940663194,2017_Nov_17_1424,60.0000577234,FEMA4ImagesEEG,001,202264,
AFNE01.JPG,AFNE01.JPG,AFNE01.JPG,AFNE01.JPG,AFNE01.JPG,AFNE01.JPG,,,,,0,0,0,3,,,,,,,,,,,,,,,,,,,AMSA02.jpg,AMNE20.jpg,AMSA04.jpg,AMNE08.jpg,AMSA02.jpg,MS,2,num_8,16,num_8,0.683498755097,,,2017_Nov_17_1424,60.0000577234,FEMA4ImagesEEG,001,202264,
AFNE01.JPG,AFNE01.JPG,AFNE01.JPG,AFNE01.JPG,AFNE01.JPG,AFNE01.JPG,,,,,0,1,1,2,,,,,,,,,,,,,,,,,,,AMNE11.jpg,AMNE06.jpg,AMSA07.jpg,AMSA11.jpg,AMNE06.jpg,MN,1,num_6,32,num_4,0.483546865638,,,2017_Nov_17_1424,60.0000577234,FEMA4ImagesEEG,001,202264,
AFNE01.JPG,AFNE01.JPG,AFNE01.JPG,AFNE01.JPG,AFNE01.JPG,AFNE01.JPG,,,,,0,2,2,6,,,,,,,,,,,,,,,,,,,AMNE18.jpg,AMNE02.jpg,AMSA17.jpg,AMSA16.jpg,AMSA17.jpg,MS,2,num_2,16,num_2,0.816834975034,,,2017_Nov_17_1424,60.0000577234,FEMA4ImagesEEG,001,202264,
AFNE01.JPG,AFNE01.JPG,AFNE01.JPG,AFNE01.JPG,AFNE01.JPG,AFNE01.JPG,,,,,0,3,3,9,,,,,,,,,,,,,,,,,,,AMNE16.jpg,AMNE05.jpg,AMSA07.jpg,AMSA16.jpg,AMSA07.jpg,MS,2,num_2,32,num_6,2.63332675816,,,2017_Nov_17_1424,60.0000577234,FEMA4ImagesEEG,001,202264,
AFNE01.JPG,AFNE01.JPG,AFNE01.JPG,AFNE01.JPG,AFNE01.JPG,AFNE01.JPG,,,,,0,4,4,7,,,,,,,,,,,,,,,,,,,AMSA01.jpg,AMSA11.jpg,AMNE20.jpg,AMNE15.jpg,AMNE20.jpg,MN,1,num_2,16,num_2,0.583508537151,,,2017_Nov_17_1424,60.0000577234,FEMA4ImagesEEG,001,202264,
AFNE01.JPG,AFNE01.JPG,AFNE01.JPG,AFNE01.JPG,AFNE01.JPG,AFNE01.JPG,,,,,0,5,5,1,,,,,,,,,,,,,,,,,,,AMNE02.jpg,AMSA03.jpg,AMSA11.jpg,AMNE14.jpg,AMSA11.jpg,MS,2,num_2,32,num_6,0.683565468527,,,2017_Nov_17_1424,60.0000577234,FEMA4ImagesEEG,001,202264,
AFNE01.JPG,AFNE01.JPG,AFNE01.JPG,AFNE01.JPG,AFNE01.JPG,AFNE01.JPG,,,,,0,6,6,5,,,,,,,,,,,,,,,,,,,AMNE09.jpg,AMSA12.jpg,AMNE19.jpg,AMSA04.jpg,AMSA12.jpg,MS,2,num_6,32,num_4,0.666806509253,,,2017_Nov_17_1424,60.0000577234,FEMA4ImagesEEG,001,202264,
AFNE01.JPG,AFNE01.JPG,AFNE01.JPG,AFNE01.JPG,AFNE01.JPG,AFNE01.JPG,,,,,0,7,7,0,,,,,,,,,,,,,,,,,,,AMNE02.jpg,AMSA18.jpg,AMSA11.jpg,AMNE11.jpg,AMNE11.jpg,MN,1,num_4,32,num_8,0.717167100403,,,2017_Nov_17_1424,60.0000577234,FEMA4ImagesEEG,001,202264,
AFNE01.JPG,AFNE01.JPG,AFNE01.JPG,AFNE01.JPG,AFNE01.JPG,AFNE01.JPG,,,,,0,8,8,8,,,,,,,,,,,,,,,,,,,AMSA13.jpg,AMSA20.jpg,AMNE08.jpg,AMNE03.jpg,AMSA20.jpg,MS,2,num_6,16,num_6,0.383520083968,,,2017_Nov_17_1424,60.0000577234,FEMA4ImagesEEG,001,202264,
AFNE01.JPG,AFNE01.JPG,AFNE01.JPG,AFNE01.JPG,AFNE01.JPG,AFNE01.JPG,,,,,0,9,9,4,,,,,,,,,,,,,,,,,,,AMNE06.jpg,AMSA19.jpg,AMNE12.jpg,AMSA17.jpg,AMNE12.jpg,MN,1,num_2,16,num_2,2.65004915325,,,2017_Nov_17_1424,60.0000577234,FEMA4ImagesEEG,001,202264,
AFNE01.JPG,AFNE01.JPG,AFNE01.JPG,AFNE01.JPG,AFNE01.JPG,AFNE01.JPG,,,,,1,0,10,3,,,,,,,,,,,,,,,,,,,AMNE17.jpg,AMNE06.jpg,AMSA07.jpg,AMSA13.jpg,AMSA13.jpg,MS,2,num_4,32,num_8,1.2000888451,,,2017_Nov_17_1424,60.0000577234,FEMA4ImagesEEG,001,202264,
AFNE01.JPG,AFNE01.JPG,AFNE01.JPG,AFNE01.JPG,AFNE01.JPG,AFNE01.JPG,,,,,1,1,11,2,,,,,,,,,,,,,,,,,,,AMNE01.jpg,AMSA16.jpg,AMNE18.jpg,AMSA07.jpg,AMNE01.jpg,MN,1,num_8,16,num_8,0.616792316549,,,2017_Nov_17_1424,60.0000577234,FEMA4ImagesEEG,001,202264,
AFNE01.JPG,AFNE01.JPG,AFNE01.JPG,AFNE01.JPG,AFNE01.JPG,AFNE01.JPG,,,,,1,2,12,5,,,,,,,,,,,,,,,,,,,AMSA16.jpg,AMNE13.jpg,AMNE20.jpg,AMSA07.jpg,AMNE20.jpg,MN,1,num_2,32,num_4,1.2166325883,,,2017_Nov_17_1424,60.0000577234,FEMA4ImagesEEG,001,202264,
AFNE01.JPG,AFNE01.JPG,AFNE01.JPG,AFNE01.JPG,AFNE01.JPG,AFNE01.JPG,,,,,1,3,13,6,,,,,,,,,,,,,,,,,,,AMNE08.jpg,AMNE06.jpg,AMSA05.jpg,AMSA07.jpg,AMNE06.jpg,MN,1,num_6,32,num_2,0.533546946011,,,2017_Nov_17_1424,60.0000577234,FEMA4ImagesEEG,001,202264,
AFNE01.JPG,AFNE01.JPG,AFNE01.JPG,AFNE01.JPG,AFNE01.JPG,AFNE01.JPG,,,,,1,4,14,7,,,,,,,,,,,,,,,,,,,AMSA18.jpg,AMNE19.jpg,AMNE17.jpg,AMSA13.jpg,AMSA13.jpg,MS,2,num_4,16,num_4,1.03345473297,,,2017_Nov_17_1424,60.0000577234,FEMA4ImagesEEG,001,202264,
AFNE01.JPG,AFNE01.JPG,AFNE01.JPG,AFNE01.JPG,AFNE01.JPG,AFNE01.JPG,,,,,1,5,15,1,,,,,,,,,,,,,,,,,,,AMSA17.jpg,AMNE09.jpg,AMNE16.jpg,AMSA14.jpg,AMNE16.jpg,MN,1,num_2,16,num_2,0.45002028672,,,2017_Nov_17_1424,60.0000577234,FEMA4ImagesEEG,001,202264,
AFNE01.JPG,AFNE01.JPG,AFNE01.JPG,AFNE01.JPG,AFNE01.JPG,AFNE01.JPG,,,,,1,6,16,9,,,,,,,,,,,,,,,,,,,AMNE11.jpg,AMNE14.jpg,AMSA08.jpg,AMSA15.jpg,AMNE14.jpg,MN,1,num_6,32,num_8,0.36680538673,,,2017_Nov_17_1424,60.0000577234,FEMA4ImagesEEG,001,202264,
AFNE01.JPG,AFNE01.JPG,AFNE01.JPG,AFNE01.JPG,AFNE01.JPG,AFNE01.JPG,,,,,1,7,17,4,,,,,,,,,,,,,,,,,,,AMSA19.jpg,AMSA13.jpg,AMNE12.jpg,AMNE13.jpg,AMSA13.jpg,MS,2,num_6,32,num_4,0.616818296257,,,2017_Nov_17_1424,60.0000577234,FEMA4ImagesEEG,001,202264,
AFNE01.JPG,AFNE01.JPG,AFNE01.JPG,AFNE01.JPG,AFNE01.JPG,AFNE01.JPG,,,,,1,8,18,0,,,,,,,,,,,,,,,,,,,AMNE16.jpg,AMNE05.jpg,AMSA16.jpg,AMSA15.jpg,AMSA16.jpg,MS,2,num_2,32,num_4,0.566820140462,,,2017_Nov_17_1424,60.0000577234,FEMA4ImagesEEG,001,202264,
AFNE01.JPG,AFNE01.JPG,AFNE01.JPG,AFNE01.JPG,AFNE01.JPG,AFNE01.JPG,,,,,1,9,19,8,,,,,,,,,,,,,,,,,,,AMNE20.jpg,AMSA14.jpg,AMSA05.jpg,AMNE16.jpg,AMSA14.jpg,MS,2,num_6,32,num_2,1.1667309748,,,2017_Nov_17_1424,60.0000577234,FEMA4ImagesEEG,001,202264,
AFNE01.JPG,AFNE01.JPG,AFNE01.JPG,AFNE01.JPG,AFNE01.JPG,AFNE01.JPG,,,,,2,0,20,1,,,,,,,,,,,,,,,,,,,AMSA02.jpg,AMNE18.jpg,AMNE14.jpg,AMSA07.jpg,AMNE18.jpg,MN,1,num_6,16,num_6,0.583525856957,,,2017_Nov_17_1424,60.0000577234,FEMA4ImagesEEG,001,202264,
AFNE01.JPG,AFNE01.JPG,AFNE01.JPG,AFNE01.JPG,AFNE01.JPG,AFNE01.JPG,,,,,2,1,21,5,,,,,,,,,,,,,,,,,,,AMSA19.jpg,AMNE12.jpg,AMNE10.jpg,AMSA16.jpg,AMNE12.jpg,MN,1,num_6,32,num_4,0.75023790868,,,2017_Nov_17_1424,60.0000577234,FEMA4ImagesEEG,001,202264,
AFNE01.JPG,AFNE01.JPG,AFNE01.JPG,AFNE01.JPG,AFNE01.JPG,AFNE01.JPG,,,,,2,2,22,6,,,,,,,,,,,,,,,,,,,AMSA16.jpg,AMNE17.jpg,AMSA02.jpg,AMNE10.jpg,AMNE10.jpg,MN,1,num_4,32,num_8,0.283512867521,,,2017_Nov_17_1424,60.0000577234,FEMA4ImagesEEG,001,202264,
AFNE01.JPG,AFNE01.JPG,AFNE01.JPG,AFNE01.JPG,AFNE01.JPG,AFNE01.JPG,,,,,2,3,23,0,,,,,,,,,,,,,,,,,,,AMNE03.jpg,AMNE18.jpg,AMSA02.jpg,AMSA08.jpg,AMNE18.jpg,MN,1,num_6,32,num_2,0.466771227773,,,2017_Nov_17_1424,60.0000577234,FEMA4ImagesEEG,001,202264,
AFNE01.JPG,AFNE01.JPG,AFNE01.JPG,AFNE01.JPG,AFNE01.JPG,AFNE01.JPG,,,,,2,4,24,2,,,,,,,,,,,,,,,,,,,AMSA03.jpg,AMNE02.jpg,AMSA11.jpg,AMNE16.jpg,AMNE16.jpg,MN,1,num_4,32,num_6,0.416831446812,,,2017_Nov_17_1424,60.0000577234,FEMA4ImagesEEG,001,202264,
AFNE01.JPG,AFNE01.JPG,AFNE01.JPG,AFNE01.JPG,AFNE01.JPG,AFNE01.JPG,,,,,2,5,25,4,,,,,,,,,,,,,,,,,,,AMSA12.jpg,AMSA04.jpg,AMNE17.jpg,AMNE11.jpg,AMNE11.jpg,MN,1,num_4,32,num_8,0.600158445071,,,2017_Nov_17_1424,60.0000577234,FEMA4ImagesEEG,001,202264,
AFNE01.JPG,AFNE01.JPG,AFNE01.JPG,AFNE01.JPG,AFNE01.JPG,AFNE01.JPG,,,,,2,6,26,3,,,,,,,,,,,,,,,,,,,AMSA11.jpg,AMNE15.jpg,AMNE01.jpg,AMSA16.jpg,AMSA16.jpg,MS,2,num_4,16,num_4,0.716777081136,,,2017_Nov_17_1424,60.0000577234,FEMA4ImagesEEG,001,202264,
AFNE01.JPG,AFNE01.JPG,AFNE01.JPG,AFNE01.JPG,AFNE01.JPG,AFNE01.JPG,,,,,2,7,27,9,,,,,,,,,,,,,,,,,,,AMNE10.jpg,AMNE11.jpg,AMSA15.jpg,AMSA08.jpg,AMSA08.jpg,MS,2,num_4,32,num_8,0.533573887777,,,2017_Nov_17_1424,60.0000577234,FEMA4ImagesEEG,001,202264,
AFNE01.JPG,AFNE01.JPG,AFNE01.JPG,AFNE01.JPG,AFNE01.JPG,AFNE01.JPG,,,,,2,8,28,7,,,,,,,,,,,,,,,,,,,AMNE13.jpg,AMSA15.jpg,AMNE12.jpg,AMSA10.jpg,AMNE13.jpg,MN,1,num_8,32,num_2,0.833456336986,,,2017_Nov_17_1424,60.0000577234,FEMA4ImagesEEG,001,202264,
AFNE01.JPG,AFNE01.JPG,AFNE01.JPG,AFNE01.JPG,AFNE01.JPG,AFNE01.JPG,,,,,2,9,29,8,,,,,,,,,,,,,,,,,,,AMSA02.jpg,AMSA05.jpg,AMNE13.jpg,AMNE12.jpg,AMNE12.jpg,MN,1,num_4,32,num_8,0.766798650846,,,2017_Nov_17_1424,60.0000577234,FEMA4ImagesEEG,001,202264,
AFNE01.JPG,AFNE01.JPG,AFNE01.JPG,AFNE01.JPG,AFNE01.JPG,AFNE01.JPG,,,,,3,0,30,6,,,,,,,,,,,,,,,,,,,AMNE12.jpg,AMSA01.jpg,AMSA04.jpg,AMNE04.jpg,AMNE04.jpg,MN,1,num_4,32,num_6,0.666660252027,,,2017_Nov_17_1424,60.0000577234,FEMA4ImagesEEG,001,202264,
AFNE01.JPG,AFNE01.JPG,AFNE01.JPG,AFNE01.JPG,AFNE01.JPG,AFNE01.JPG,,,,,3,1,31,9,,,,,,,,,,,,,,,,,,,AMSA06.jpg,AMNE02.jpg,AMNE14.jpg,AMSA17.jpg,AMSA17.jpg,MS,2,num_4,32,num_2,0.550161893014,,,2017_Nov_17_1424,60.0000577234,FEMA4ImagesEEG,001,202264,
AFNE01.JPG,AFNE01.JPG,AFNE01.JPG,AFNE01.JPG,AFNE01.JPG,AFNE01.JPG,,,,,3,2,32,0,,,,,,,,,,,,,,,,,,,AMNE06.jpg,AMSA11.jpg,AMNE05.jpg,AMSA13.jpg,AMNE06.jpg,MN,1,num_8,16,num_8,0.367191877682,,,2017_Nov_17_1424,60.0000577234,FEMA4ImagesEEG,001,202264,
AFNE01.JPG,AFNE01.JPG,AFNE01.JPG,AFNE01.JPG,AFNE01.JPG,AFNE01.JPG,,,,,3,3,33,5,,,,,,,,,,,,,,,,,,,AMSA17.jpg,AMNE08.jpg,AMNE16.jpg,AMSA11.jpg,AMSA17.jpg,MS,2,num_8,32,num_4,0.466744606383,,,2017_Nov_17_1424,60.0000577234,FEMA4ImagesEEG,001,202264,
AFNE01.JPG,AFNE01.JPG,AFNE01.JPG,AFNE01.JPG,AFNE01.JPG,AFNE01.JPG,,,,,3,4,34,1,,,,,,,,,,,,,,,,,,,AMNE12.jpg,AMSA14.jpg,AMNE20.jpg,AMSA15.jpg,AMNE20.jpg,MN,1,num_2,32,num_4,0.783466199879,,,2017_Nov_17_1424,60.0000577234,FEMA4ImagesEEG,001,202264,
AFNE01.JPG,AFNE01.JPG,AFNE01.JPG,AFNE01.JPG,AFNE01.JPG,AFNE01.JPG,,,,,3,5,35,3,,,,,,,,,,,,,,,,,,,AMSA14.jpg,AMSA08.jpg,AMNE12.jpg,AMNE09.jpg,AMNE09.jpg,MN,1,num_4,16,num_4,0.800018923357,,,2017_Nov_17_1424,60.0000577234,FEMA4ImagesEEG,001,202264,
AFNE01.JPG,AFNE01.JPG,AFNE01.JPG,AFNE01.JPG,AFNE01.JPG,AFNE01.JPG,,,,,3,6,36,7,,,,,,,,,,,,,,,,,,,AMNE05.jpg,AMNE09.jpg,AMSA11.jpg,AMSA07.jpg,AMSA07.jpg,MS,2,num_4,16,num_4,0.500162775163,,,2017_Nov_17_1424,60.0000577234,FEMA4ImagesEEG,001,202264,
AFNE01.JPG,AFNE01.JPG,AFNE01.JPG,AFNE01.JPG,AFNE01.JPG,AFNE01.JPG,,,,,3,7,37,2,,,,,,,,,,,,,,,,,,,AMNE06.jpg,AMSA20.jpg,AMNE08.jpg,AMSA03.jpg,AMSA03.jpg,MS,2,num_4,32,num_2,1.11678060936,,,2017_Nov_17_1424,60.0000577234,FEMA4ImagesEEG,001,202264,
AFNE01.JPG,AFNE01.JPG,AFNE01.JPG,AFNE01.JPG,AFNE01.JPG,AFNE01.JPG,,,,,3,8,38,8,,,,,,,,,,,,,,,,,,,AMNE15.jpg,AMNE18.jpg,AMSA03.jpg,AMSA11.jpg,AMSA11.jpg,MS,2,num_4,16,num_4,0.833423301112,,,2017_Nov_17_1424,60.0000577234,FEMA4ImagesEEG,001,202264,
AFNE01.JPG,AFNE01.JPG,AFNE01.JPG,AFNE01.JPG,AFNE01.JPG,AFNE01.JPG,,,,,3,9,39,4,,,,,,,,,,,,,,,,,,,AMNE15.jpg,AMSA04.jpg,AMNE19.jpg,AMSA07.jpg,AMSA04.jpg,MS,2,num_6,32,num_8,0.916740196291,,,2017_Nov_17_1424,60.0000577234,FEMA4ImagesEEG,001,202264,
AFNE01.JPG,AFNE01.JPG,AFNE01.JPG,AFNE01.JPG,AFNE01.JPG,AFNE01.JPG,,,,,4,0,40,2,,,,,,,,,,,,,,,,,,,AMSA12.jpg,AMSA10.jpg,AMNE17.jpg,AMNE06.jpg,AMSA10.jpg,MS,2,num_6,32,num_8,0.900143531151,,,2017_Nov_17_1424,60.0000577234,FEMA4ImagesEEG,001,202264,
AFNE01.JPG,AFNE01.JPG,AFNE01.JPG,AFNE01.JPG,AFNE01.JPG,AFNE01.JPG,,,,,4,1,41,1,,,,,,,,,,,,,,,,,,,AMNE05.jpg,AMSA18.jpg,AMNE15.jpg,AMSA14.jpg,AMNE15.jpg,MN,1,num_2,32,num_8,0.783312886488,,,2017_Nov_17_1424,60.0000577234,FEMA4ImagesEEG,001,202264,
AFNE01.JPG,AFNE01.JPG,AFNE01.JPG,AFNE01.JPG,AFNE01.JPG,AFNE01.JPG,,,,,4,2,42,8,,,,,,,,,,,,,,,,,,,AMSA16.jpg,AMNE02.jpg,AMSA05.jpg,AMNE09.jpg,AMSA05.jpg,MS,2,num_2,16,num_2,1.23340437748,,,2017_Nov_17_1424,60.0000577234,FEMA4ImagesEEG,001,202264,
AFNE01.JPG,AFNE01.JPG,AFNE01.JPG,AFNE01.JPG,AFNE01.JPG,AFNE01.JPG,,,,,4,3,43,6,,,,,,,,,,,,,,,,,,,AMSA14.jpg,AMNE01.jpg,AMSA03.jpg,AMNE17.jpg,AMSA14.jpg,MS,2,num_8,32,num_6,1.63340149075,,,2017_Nov_17_1424,60.0000577234,FEMA4ImagesEEG,001,202264,
AFNE01.JPG,AFNE01.JPG,AFNE01.JPG,AFNE01.JPG,AFNE01.JPG,AFNE01.JPG,,,,,4,4,44,4,,,,,,,,,,,,,,,,,,,AMSA09.jpg,AMNE05.jpg,AMNE13.jpg,AMSA11.jpg,AMNE05.jpg,MN,1,num_6,32,num_2,4.58319325,,,2017_Nov_17_1424,60.0000577234,FEMA4ImagesEEG,001,202264,
AFNE01.JPG,AFNE01.JPG,AFNE01.JPG,AFNE01.JPG,AFNE01.JPG,AFNE01.JPG,,,,,4,5,45,5,,,,,,,,,,,,,,,,,,,AMNE11.jpg,AMSA10.jpg,AMSA14.jpg,AMNE17.jpg,AMSA10.jpg,MS,2,num_6,32,num_4,2.55002974859,,,2017_Nov_17_1424,60.0000577234,FEMA4ImagesEEG,001,202264,
AFNE01.JPG,AFNE01.JPG,AFNE01.JPG,AFNE01.JPG,AFNE01.JPG,AFNE01.JPG,,,,,4,6,46,0,,,,,,,,,,,,,,,,,,,AMNE02.jpg,AMNE20.jpg,AMSA08.jpg,AMSA07.jpg,AMNE20.jpg,MN,1,num_6,32,num_8,1.78311434854,,,2017_Nov_17_1424,60.0000577234,FEMA4ImagesEEG,001,202264,
AFNE01.JPG,AFNE01.JPG,AFNE01.JPG,AFNE01.JPG,AFNE01.JPG,AFNE01.JPG,,,,,4,7,47,9,,,,,,,,,,,,,,,,,,,AMNE06.jpg,AMNE10.jpg,AMSA17.jpg,AMSA11.jpg,AMNE06.jpg,MN,1,num_8,32,num_4,1.80006414792,,,2017_Nov_17_1424,60.0000577234,FEMA4ImagesEEG,001,202264,
AFNE01.JPG,AFNE01.JPG,AFNE01.JPG,AFNE01.JPG,AFNE01.JPG,AFNE01.JPG,,,,,4,8,48,7,,,,,,,,,,,,,,,,,,,AMNE10.jpg,AMSA20.jpg,AMSA02.jpg,AMNE20.jpg,AMNE20.jpg,MN,1,num_4,32,num_2,1.93346900633,,,2017_Nov_17_1424,60.0000577234,FEMA4ImagesEEG,001,202264,
AFNE01.JPG,AFNE01.JPG,AFNE01.JPG,AFNE01.JPG,AFNE01.JPG,AFNE01.JPG,,,,,4,9,49,3,,,,,,,,,,,,,,,,,,,AMSA20.jpg,AMNE17.jpg,AMSA14.jpg,AMNE08.jpg,AMSA20.jpg,MS,2,num_8,16,num_8,1.0334576196,,,2017_Nov_17_1424,60.0000577234,FEMA4ImagesEEG,001,202264,
AFNE01.JPG,AFNE01.JPG,AFNE01.JPG,AFNE01.JPG,AFNE01.JPG,AFNE01.JPG,,,,,5,0,50,0,,,,,,,,,,,,,,,,,,,AMNE07.jpg,AMNE13.jpg,AMSA10.jpg,AMSA06.jpg,AMSA06.jpg,MS,2,num_4,16,num_4,0.466844356153,,,2017_Nov_17_1424,60.0000577234,FEMA4ImagesEEG,001,202264,
AFNE01.JPG,AFNE01.JPG,AFNE01.JPG,AFNE01.JPG,AFNE01.JPG,AFNE01.JPG,,,,,5,1,51,2,,,,,,,,,,,,,,,,,,,AMNE10.jpg,AMSA20.jpg,AMNE05.jpg,AMSA04.jpg,AMNE05.jpg,MN,1,num_2,32,num_6,0.383475180715,,,2017_Nov_17_1424,60.0000577234,FEMA4ImagesEEG,001,202264,
AFNE01.JPG,AFNE01.JPG,AFNE01.JPG,AFNE01.JPG,AFNE01.JPG,AFNE01.JPG,,,,,5,2,52,9,,,,,,,,,,,,,,,,,,,AMSA01.jpg,AMNE10.jpg,AMNE20.jpg,AMSA15.jpg,AMSA01.jpg,MS,2,num_8,32,num_2,0.500176567119,,,2017_Nov_17_1424,60.0000577234,FEMA4ImagesEEG,001,202264,
AFNE01.JPG,AFNE01.JPG,AFNE01.JPG,AFNE01.JPG,AFNE01.JPG,AFNE01.JPG,,,,,5,3,53,8,,,,,,,,,,,,,,,,,,,AMNE16.jpg,AMNE18.jpg,AMSA14.jpg,AMSA07.jpg,AMNE18.jpg,MN,1,num_6,32,num_8,1.1834068629,,,2017_Nov_17_1424,60.0000577234,FEMA4ImagesEEG,001,202264,
AFNE01.JPG,AFNE01.JPG,AFNE01.JPG,AFNE01.JPG,AFNE01.JPG,AFNE01.JPG,,,,,5,4,54,7,,,,,,,,,,,,,,,,,,,AMNE17.jpg,AMSA11.jpg,AMNE19.jpg,AMSA06.jpg,AMNE19.jpg,MN,1,num_2,32,num_8,1.96667388314,,,2017_Nov_17_1424,60.0000577234,FEMA4ImagesEEG,001,202264,
AFNE01.JPG,AFNE01.JPG,AFNE01.JPG,AFNE01.JPG,AFNE01.JPG,AFNE01.JPG,,,,,5,5,55,1,,,,,,,,,,,,,,,,,,,AMNE16.jpg,AMNE05.jpg,AMSA13.jpg,AMSA18.jpg,AMNE16.jpg,MN,1,num_8,32,num_4,1.05008860445,,,2017_Nov_17_1424,60.0000577234,FEMA4ImagesEEG,001,202264,
AFNE01.JPG,AFNE01.JPG,AFNE01.JPG,AFNE01.JPG,AFNE01.JPG,AFNE01.JPG,,,,,5,6,56,3,,,,,,,,,,,,,,,,,,,AMSA10.jpg,AMNE05.jpg,AMSA07.jpg,AMNE04.jpg,AMNE04.jpg,MN,1,num_4,32,num_8,0.966778764967,,,2017_Nov_17_1424,60.0000577234,FEMA4ImagesEEG,001,202264,
AFNE01.JPG,AFNE01.JPG,AFNE01.JPG,AFNE01.JPG,AFNE01.JPG,AFNE01.JPG,,,,,5,7,57,6,,,,,,,,,,,,,,,,,,,AMNE11.jpg,AMSA15.jpg,AMSA04.jpg,AMNE17.jpg,AMSA04.jpg,MS,2,num_2,32,num_8,0.433574689552,,,2017_Nov_17_1424,60.0000577234,FEMA4ImagesEEG,001,202264,
AFNE01.JPG,AFNE01.JPG,AFNE01.JPG,AFNE01.JPG,AFNE01.JPG,AFNE01.JPG,,,,,5,8,58,4,,,,,,,,,,,,,,,,,,,AMSA03.jpg,AMSA15.jpg,AMNE10.jpg,AMNE14.jpg,AMSA15.jpg,MS,2,num_6,32,num_4,0.666808433365,,,2017_Nov_17_1424,60.0000577234,FEMA4ImagesEEG,001,202264,
AFNE01.JPG,AFNE01.JPG,AFNE01.JPG,AFNE01.JPG,AFNE01.JPG,AFNE01.JPG,,,,,5,9,59,5,,,,,,,,,,,,,,,,,,,AMSA16.jpg,AMNE15.jpg,AMNE06.jpg,AMSA08.jpg,AMSA16.jpg,MS,2,num_8,32,num_4,1.33343372494,,,2017_Nov_17_1424,60.0000577234,FEMA4ImagesEEG,001,202264,
,,,,,,,,,,,,,,,,,,,,,,,,,,,,,,,,,,,,,,,,,,,space,3.35022507887,2017_Nov_17_1424,60.0000577234,FEMA4ImagesEEG,001,202264,
AFNE01.JPG,AFNE01.JPG,AFNE01.JPG,AFNE01.JPG,AFNE01.JPG,AFNE01.JPG,,,,,,,,,0,0,0,6,,,,,,,,,,,,,,,AFNE17.jpg,AFSA09.jpg,AFNE18.jpg,AFSA08.jpg,AFSA08.jpg,FS,4,num_4,32,num_8,1.43339218898,,,2017_Nov_17_1424,60.0000577234,FEMA4ImagesEEG,001,202264,
AFNE01.JPG,AFNE01.JPG,AFNE01.JPG,AFNE01.JPG,AFNE01.JPG,AFNE01.JPG,,,,,,,,,0,1,1,7,,,,,,,,,,,,,,,AFNE18.jpg,AFNE16.jpg,AFSA04.jpg,AFSA13.jpg,AFSA13.jpg,FS,4,num_4,32,num_8,1.0501450547,,,2017_Nov_17_1424,60.0000577234,FEMA4ImagesEEG,001,202264,
AFNE01.JPG,AFNE01.JPG,AFNE01.JPG,AFNE01.JPG,AFNE01.JPG,AFNE01.JPG,,,,,,,,,0,2,2,0,,,,,,,,,,,,,,,AFSA15.jpg,AFNE08.jpg,AFNE02.jpg,AFSA03.jpg,AFNE08.jpg,FN,3,num_6,32,num_4,0.550174081232,,,2017_Nov_17_1424,60.0000577234,FEMA4ImagesEEG,001,202264,
AFNE01.JPG,AFNE01.JPG,AFNE01.JPG,AFNE01.JPG,AFNE01.JPG,AFNE01.JPG,,,,,,,,,0,3,3,4,,,,,,,,,,,,,,,AFSA19.jpg,AFNE09.jpg,AFNE19.jpg,AFSA06.jpg,AFNE09.jpg,FN,3,num_6,16,num_6,0.516872019973,,,2017_Nov_17_1424,60.0000577234,FEMA4ImagesEEG,001,202264,
AFNE01.JPG,AFNE01.JPG,AFNE01.JPG,AFNE01.JPG,AFNE01.JPG,AFNE01.JPG,,,,,,,,,0,4,4,3,,,,,,,,,,,,,,,AFNE14.jpg,AFSA03.jpg,AFNE10.jpg,AFSA02.jpg,AFSA02.jpg,FS,4,num_4,16,num_4,1.21672399854,,,2017_Nov_17_1424,60.0000577234,FEMA4ImagesEEG,001,202264,
AFNE01.JPG,AFNE01.JPG,AFNE01.JPG,AFNE01.JPG,AFNE01.JPG,AFNE01.JPG,,,,,,,,,0,5,5,2,,,,,,,,,,,,,,,AFNE09.jpg,AFNE14.jpg,AFSA02.jpg,AFSA10.jpg,AFNE14.jpg,FN,3,num_6,32,num_4,1.43346050614,,,2017_Nov_17_1424,60.0000577234,FEMA4ImagesEEG,001,202264,
AFNE01.JPG,AFNE01.JPG,AFNE01.JPG,AFNE01.JPG,AFNE01.JPG,AFNE01.JPG,,,,,,,,,0,6,6,8,,,,,,,,,,,,,,,AFSA03.jpg,AFNE09.jpg,AFSA17.jpg,AFNE02.jpg,AFSA03.jpg,FS,4,num_8,32,num_4,0.883495868184,,,2017_Nov_17_1424,60.0000577234,FEMA4ImagesEEG,001,202264,
AFNE01.JPG,AFNE01.JPG,AFNE01.JPG,AFNE01.JPG,AFNE01.JPG,AFNE01.JPG,,,,,,,,,0,7,7,5,,,,,,,,,,,,,,,AFNE16.jpg,AFSA06.jpg,AFSA07.jpg,AFNE20.jpg,AFNE16.jpg,FN,3,num_8,16,num_8,0.949597391766,,,2017_Nov_17_1424,60.0000577234,FEMA4ImagesEEG,001,202264,
AFNE01.JPG,AFNE01.JPG,AFNE01.JPG,AFNE01.JPG,AFNE01.JPG,AFNE01.JPG,,,,,,,,,0,8,8,9,,,,,,,,,,,,,,,AFSA04.jpg,AFNE13.jpg,AFSA15.jpg,AFNE15.jpg,AFSA04.jpg,FS,4,num_8,32,num_6,0.700149624608,,,2017_Nov_17_1424,60.0000577234,FEMA4ImagesEEG,001,202264,
AFNE01.JPG,AFNE01.JPG,AFNE01.JPG,AFNE01.JPG,AFNE01.JPG,AFNE01.JPG,,,,,,,,,0,9,9,1,,,,,,,,,,,,,,,AFSA09.jpg,AFSA05.jpg,AFNE11.jpg,AFNE20.jpg,AFNE20.jpg,FN,3,num_4,16,num_4,1.21682663541,,,2017_Nov_17_1424,60.0000577234,FEMA4ImagesEEG,001,202264,
AFNE01.JPG,AFNE01.JPG,AFNE01.JPG,AFNE01.JPG,AFNE01.JPG,AFNE01.JPG,,,,,,,,,1,0,10,9,,,,,,,,,,,,,,,AFSA05.jpg,AFNE11.jpg,AFSA02.jpg,AFNE02.jpg,AFSA05.jpg,FS,4,num_8,16,num_8,0.516829361673,,,2017_Nov_17_1424,60.0000577234,FEMA4ImagesEEG,001,202264,
AFNE01.JPG,AFNE01.JPG,AFNE01.JPG,AFNE01.JPG,AFNE01.JPG,AFNE01.JPG,,,,,,,,,1,1,11,7,,,,,,,,,,,,,,,AFNE05.jpg,AFSA13.jpg,AFSA18.jpg,AFNE11.jpg,AFSA18.jpg,FS,4,num_2,32,num_4,0.750165100675,,,2017_Nov_17_1424,60.0000577234,FEMA4ImagesEEG,001,202264,
AFNE01.JPG,AFNE01.JPG,AFNE01.JPG,AFNE01.JPG,AFNE01.JPG,AFNE01.JPG,,,,,,,,,1,2,12,1,,,,,,,,,,,,,,,AFNE02.jpg,AFNE15.jpg,AFSA17.jpg,AFSA20.jpg,AFSA20.jpg,FS,4,num_4,32,num_2,1.20010648575,,,2017_Nov_17_1424,60.0000577234,FEMA4ImagesEEG,001,202264,
AFNE01.JPG,AFNE01.JPG,AFNE01.JPG,AFNE01.JPG,AFNE01.JPG,AFNE01.JPG,,,,,,,,,1,3,13,8,,,,,,,,,,,,,,,AFNE01.jpg,AFSA10.jpg,AFSA01.jpg,AFNE05.jpg,AFNE05.jpg,FN,3,num_4,16,num_4,0.783481274266,,,2017_Nov_17_1424,60.0000577234,FEMA4ImagesEEG,001,202264,
AFNE01.JPG,AFNE01.JPG,AFNE01.JPG,AFNE01.JPG,AFNE01.JPG,AFNE01.JPG,,,,,,,,,1,4,14,5,,,,,,,,,,,,,,,AFNE12.jpg,AFSA19.jpg,AFSA08.jpg,AFNE09.jpg,AFNE09.jpg,FN,3,num_4,32,num_2,0.850149224047,,,2017_Nov_17_1424,60.0000577234,FEMA4ImagesEEG,001,202264,
AFNE01.JPG,AFNE01.JPG,AFNE01.JPG,AFNE01.JPG,AFNE01.JPG,AFNE01.JPG,,,,,,,,,1,5,15,3,,,,,,,,,,,,,,,AFNE04.jpg,AFNE01.jpg,AFSA10.jpg,AFSA14.jpg,AFSA10.jpg,FS,4,num_2,32,num_8,0.700161491986,,,2017_Nov_17_1424,60.0000577234,FEMA4ImagesEEG,001,202264,
AFNE01.JPG,AFNE01.JPG,AFNE01.JPG,AFNE01.JPG,AFNE01.JPG,AFNE01.JPG,,,,,,,,,1,6,16,4,,,,,,,,,,,,,,,AFNE14.jpg,AFNE17.jpg,AFSA09.jpg,AFSA15.jpg,AFNE17.jpg,FN,3,num_6,32,num_2,0.666764171794,,,2017_Nov_17_1424,60.0000577234,FEMA4ImagesEEG,001,202264,
AFNE01.JPG,AFNE01.JPG,AFNE01.JPG,AFNE01.JPG,AFNE01.JPG,AFNE01.JPG,,,,,,,,,1,7,17,2,,,,,,,,,,,,,,,AFSA09.jpg,AFNE07.jpg,AFNE19.jpg,AFSA12.jpg,AFSA09.jpg,FS,4,num_8,32,num_6,0.800136634614,,,2017_Nov_17_1424,60.0000577234,FEMA4ImagesEEG,001,202264,
AFNE01.JPG,AFNE01.JPG,AFNE01.JPG,AFNE01.JPG,AFNE01.JPG,AFNE01.JPG,,,,,,,,,1,8,18,6,,,,,,,,,,,,,,,AFSA07.jpg,AFSA19.jpg,AFNE16.jpg,AFNE06.jpg,AFSA07.jpg,FS,4,num_8,16,num_8,1.69994852133,,,2017_Nov_17_1424,60.0000577234,FEMA4ImagesEEG,001,202264,
AFNE01.JPG,AFNE01.JPG,AFNE01.JPG,AFNE01.JPG,AFNE01.JPG,AFNE01.JPG,,,,,,,,,1,9,19,0,,,,,,,,,,,,,,,AFSA03.jpg,AFSA16.jpg,AFNE07.jpg,AFNE02.jpg,AFSA03.jpg,FS,4,num_8,32,num_4,0.550157402642,,,2017_Nov_17_1424,60.0000577234,FEMA4ImagesEEG,001,202264,
AFNE01.JPG,AFNE01.JPG,AFNE01.JPG,AFNE01.JPG,AFNE01.JPG,AFNE01.JPG,,,,,,,,,2,0,20,5,,,,,,,,,,,,,,,AFSA16.jpg,AFNE17.jpg,AFNE11.jpg,AFSA04.jpg,AFSA04.jpg,FS,4,num_4,32,num_2,0.500323145185,,,2017_Nov_17_1424,60.0000577234,FEMA4ImagesEEG,001,202264,
AFNE01.JPG,AFNE01.JPG,AFNE01.JPG,AFNE01.JPG,AFNE01.JPG,AFNE01.JPG,,,,,,,,,2,1,21,3,,,,,,,,,,,,,,,AFSA09.jpg,AFSA07.jpg,AFNE10.jpg,AFNE01.jpg,AFNE01.jpg,FN,3,num_4,32,num_2,0.316835135221,,,2017_Nov_17_1424,60.0000577234,FEMA4ImagesEEG,001,202264,
AFNE01.JPG,AFNE01.JPG,AFNE01.JPG,AFNE01.JPG,AFNE01.JPG,AFNE01.JPG,,,,,,,,,2,2,22,0,,,,,,,,,,,,,,,AFNE01.jpg,AFSA10.jpg,AFSA06.jpg,AFNE18.jpg,AFNE01.jpg,FN,3,num_8,32,num_2,1.40007697791,,,2017_Nov_17_1424,60.0000577234,FEMA4ImagesEEG,001,202264,
AFNE01.JPG,AFNE01.JPG,AFNE01.JPG,AFNE01.JPG,AFNE01.JPG,AFNE01.JPG,,,,,,,,,2,3,23,1,,,,,,,,,,,,,,,AFSA10.jpg,AFSA16.jpg,AFNE05.jpg,AFNE13.jpg,AFSA10.jpg,FS,4,num_8,16,num_8,1.11670587724,,,2017_Nov_17_1424,60.0000577234,FEMA4ImagesEEG,001,202264,
AFNE01.JPG,AFNE01.JPG,AFNE01.JPG,AFNE01.JPG,AFNE01.JPG,AFNE01.JPG,,,,,,,,,2,4,24,4,,,,,,,,,,,,,,,AFSA15.jpg,AFSA07.jpg,AFNE07.jpg,AFNE13.jpg,AFSA07.jpg,FS,4,num_6,16,num_6,1.65010111313,,,2017_Nov_17_1424,60.0000577234,FEMA4ImagesEEG,001,202264,
AFNE01.JPG,AFNE01.JPG,AFNE01.JPG,AFNE01.JPG,AFNE01.JPG,AFNE01.JPG,,,,,,,,,2,5,25,7,,,,,,,,,,,,,,,AFNE14.jpg,AFSA01.jpg,AFSA12.jpg,AFNE07.jpg,AFNE14.jpg,FN,3,num_8,32,num_4,0.816838502884,,,2017_Nov_17_1424,60.0000577234,FEMA4ImagesEEG,001,202264,
AFNE01.JPG,AFNE01.JPG,AFNE01.JPG,AFNE01.JPG,AFNE01.JPG,AFNE01.JPG,,,,,,,,,2,6,26,2,,,,,,,,,,,,,,,AFSA11.jpg,AFSA04.jpg,AFNE16.jpg,AFNE18.jpg,AFSA04.jpg,FS,4,num_6,32,num_8,1.63340052823,,,2017_Nov_17_1424,60.0000577234,FEMA4ImagesEEG,001,202264,
AFNE01.JPG,AFNE01.JPG,AFNE01.JPG,AFNE01.JPG,AFNE01.JPG,AFNE01.JPG,,,,,,,,,2,7,27,9,,,,,,,,,,,,,,,AFNE11.jpg,AFSA11.jpg,AFNE20.jpg,AFSA06.jpg,AFSA06.jpg,FS,4,num_4,32,num_6,0.933474137913,,,2017_Nov_17_1424,60.0000577234,FEMA4ImagesEEG,001,202264,
AFNE01.JPG,AFNE01.JPG,AFNE01.JPG,AFNE01.JPG,AFNE01.JPG,AFNE01.JPG,,,,,,,,,2,8,28,6,,,,,,,,,,,,,,,AFSA05.jpg,AFNE16.jpg,AFSA18.jpg,AFNE04.jpg,AFNE16.jpg,FN,3,num_6,32,num_2,0.950087481644,,,2017_Nov_17_1424,60.0000577234,FEMA4ImagesEEG,001,202264,
AFNE01.JPG,AFNE01.JPG,AFNE01.JPG,AFNE01.JPG,AFNE01.JPG,AFNE01.JPG,,,,,,,,,2,9,29,8,,,,,,,,,,,,,,,AFNE08.jpg,AFNE15.jpg,AFSA07.jpg,AFSA13.jpg,AFNE15.jpg,FN,3,num_6,16,num_6,0.666779567022,,,2017_Nov_17_1424,60.0000577234,FEMA4ImagesEEG,001,202264,
AFNE01.JPG,AFNE01.JPG,AFNE01.JPG,AFNE01.JPG,AFNE01.JPG,AFNE01.JPG,,,,,,,,,3,0,30,4,,,,,,,,,,,,,,,AFSA13.jpg,AFNE20.jpg,AFSA18.jpg,AFNE08.jpg,AFNE08.jpg,FN,3,num_4,32,num_2,0.90011626808,,,2017_Nov_17_1424,60.0000577234,FEMA4ImagesEEG,001,202264,
AFNE01.JPG,AFNE01.JPG,AFNE01.JPG,AFNE01.JPG,AFNE01.JPG,AFNE01.JPG,,,,,,,,,3,1,31,3,,,,,,,,,,,,,,,AFNE17.jpg,AFNE08.jpg,AFSA17.jpg,AFSA08.jpg,AFNE17.jpg,FN,3,num_8,16,num_8,0.800151709933,,,2017_Nov_17_1424,60.0000577234,FEMA4ImagesEEG,001,202264,
AFNE01.JPG,AFNE01.JPG,AFNE01.JPG,AFNE01.JPG,AFNE01.JPG,AFNE01.JPG,,,,,,,,,3,2,32,5,,,,,,,,,,,,,,,AFNE10.jpg,AFSA08.jpg,AFNE03.jpg,AFSA14.jpg,AFSA08.jpg,FS,4,num_6,32,num_2,0.300200301688,,,2017_Nov_17_1424,60.0000577234,FEMA4ImagesEEG,001,202264,
AFNE01.JPG,AFNE01.JPG,AFNE01.JPG,AFNE01.JPG,AFNE01.JPG,AFNE01.JPG,,,,,,,,,3,3,33,8,,,,,,,,,,,,,,,AFSA05.jpg,AFSA06.jpg,AFNE14.jpg,AFNE04.jpg,AFSA06.jpg,FS,4,num_6,32,num_8,0.650252501946,,,2017_Nov_17_1424,60.0000577234,FEMA4ImagesEEG,001,202264,
AFNE01.JPG,AFNE01.JPG,AFNE01.JPG,AFNE01.JPG,AFNE01.JPG,AFNE01.JPG,,,,,,,,,3,4,34,2,,,,,,,,,,,,,,,AFNE05.jpg,AFNE03.jpg,AFSA13.jpg,AFSA18.jpg,AFNE05.jpg,FN,3,num_8,32,num_6,1.26673081471,,,2017_Nov_17_1424,60.0000577234,FEMA4ImagesEEG,001,202264,
AFNE01.JPG,AFNE01.JPG,AFNE01.JPG,AFNE01.JPG,AFNE01.JPG,AFNE01.JPG,,,,,,,,,3,5,35,0,,,,,,,,,,,,,,,AFNE02.jpg,AFNE13.jpg,AFSA17.jpg,AFSA10.jpg,AFNE02.jpg,FN,3,num_8,16,num_8,1.58340333495,,,2017_Nov_17_1424,60.0000577234,FEMA4ImagesEEG,001,202264,
AFNE01.JPG,AFNE01.JPG,AFNE01.JPG,AFNE01.JPG,AFNE01.JPG,AFNE01.JPG,,,,,,,,,3,6,36,6,,,,,,,,,,,,,,,AFNE09.jpg,AFNE04.jpg,AFSA12.jpg,AFSA20.jpg,AFSA20.jpg,FS,4,num_4,16,num_4,0.500108890701,,,2017_Nov_17_1424,60.0000577234,FEMA4ImagesEEG,001,202264,
AFNE01.JPG,AFNE01.JPG,AFNE01.JPG,AFNE01.JPG,AFNE01.JPG,AFNE01.JPG,,,,,,,,,3,7,37,9,,,,,,,,,,,,,,,AFSA04.jpg,AFSA19.jpg,AFNE03.jpg,AFNE15.jpg,AFNE15.jpg,FN,3,num_4,32,num_6,0.300039290451,,,2017_Nov_17_1424,60.0000577234,FEMA4ImagesEEG,001,202264,
AFNE01.JPG,AFNE01.JPG,AFNE01.JPG,AFNE01.JPG,AFNE01.JPG,AFNE01.JPG,,,,,,,,,3,8,38,1,,,,,,,,,,,,,,,AFNE04.jpg,AFNE17.jpg,AFSA19.jpg,AFSA13.jpg,AFSA19.jpg,FS,4,num_2,16,num_2,0.483580222353,,,2017_Nov_17_1424,60.0000577234,FEMA4ImagesEEG,001,202264,
AFNE01.JPG,AFNE01.JPG,AFNE01.JPG,AFNE01.JPG,AFNE01.JPG,AFNE01.JPG,,,,,,,,,3,9,39,7,,,,,,,,,,,,,,,AFSA02.jpg,AFSA01.jpg,AFNE08.jpg,AFNE14.jpg,AFNE14.jpg,FN,3,num_4,32,num_2,0.183822220657,,,2017_Nov_17_1424,60.0000577234,FEMA4ImagesEEG,001,202264,
AFNE01.JPG,AFNE01.JPG,AFNE01.JPG,AFNE01.JPG,AFNE01.JPG,AFNE01.JPG,,,,,,,,,4,0,40,3,,,,,,,,,,,,,,,AFNE10.jpg,AFSA04.jpg,AFSA11.jpg,AFNE20.jpg,AFNE10.jpg,FN,3,num_8,32,num_4,0.533547908068,,,2017_Nov_17_1424,60.0000577234,FEMA4ImagesEEG,001,202264,
AFNE01.JPG,AFNE01.JPG,AFNE01.JPG,AFNE01.JPG,AFNE01.JPG,AFNE01.JPG,,,,,,,,,4,1,41,1,,,,,,,,,,,,,,,AFSA09.jpg,AFNE19.jpg,AFNE17.jpg,AFSA20.jpg,AFNE17.jpg,FN,3,num_2,32,num_6,0.566774595529,,,2017_Nov_17_1424,60.0000577234,FEMA4ImagesEEG,001,202264,
AFNE01.JPG,AFNE01.JPG,AFNE01.JPG,AFNE01.JPG,AFNE01.JPG,AFNE01.JPG,,,,,,,,,4,2,42,2,,,,,,,,,,,,,,,AFNE06.jpg,AFSA04.jpg,AFSA14.jpg,AFNE12.jpg,AFNE12.jpg,FN,3,num_4,32,num_8,0.616871539038,,,2017_Nov_17_1424,60.0000577234,FEMA4ImagesEEG,001,202264,
AFNE01.JPG,AFNE01.JPG,AFNE01.JPG,AFNE01.JPG,AFNE01.JPG,AFNE01.JPG,,,,,,,,,4,3,43,0,,,,,,,,,,,,,,,AFSA11.jpg,AFNE05.jpg,AFSA16.jpg,AFNE01.jpg,AFSA16.jpg,FS,4,num_2,32,num_8,0.966845479328,,,2017_Nov_17_1424,60.0000577234,FEMA4ImagesEEG,001,202264,
AFNE01.JPG,AFNE01.JPG,AFNE01.JPG,AFNE01.JPG,AFNE01.JPG,AFNE01.JPG,,,,,,,,,4,4,44,5,,,,,,,,,,,,,,,AFSA12.jpg,AFNE18.jpg,AFNE20.jpg,AFSA08.jpg,AFNE18.jpg,FN,3,num_6,32,num_2,1.4337732275,,,2017_Nov_17_1424,60.0000577234,FEMA4ImagesEEG,001,202264,
AFNE01.JPG,AFNE01.JPG,AFNE01.JPG,AFNE01.JPG,AFNE01.JPG,AFNE01.JPG,,,,,,,,,4,5,45,4,,,,,,,,,,,,,,,AFSA18.jpg,AFNE11.jpg,AFSA20.jpg,AFNE19.jpg,AFNE11.jpg,FN,3,num_6,16,num_6,0.966854779981,,,2017_Nov_17_1424,60.0000577234,FEMA4ImagesEEG,001,202264,
AFNE01.JPG,AFNE01.JPG,AFNE01.JPG,AFNE01.JPG,AFNE01.JPG,AFNE01.JPG,,,,,,,,,4,6,46,7,,,,,,,,,,,,,,,AFNE11.jpg,AFSA18.jpg,AFNE06.jpg,AFSA07.jpg,AFSA07.jpg,FS,4,num_4,32,num_8,1.83345345035,,,2017_Nov_17_1424,60.0000577234,FEMA4ImagesEEG,001,202264,
AFNE01.JPG,AFNE01.JPG,AFNE01.JPG,AFNE01.JPG,AFNE01.JPG,AFNE01.JPG,,,,,,,,,4,7,47,6,,,,,,,,,,,,,,,AFNE17.jpg,AFSA03.jpg,AFSA01.jpg,AFNE01.jpg,AFSA01.jpg,FS,4,num_2,32,num_8,0.950149705168,,,2017_Nov_17_1424,60.0000577234,FEMA4ImagesEEG,001,202264,
AFNE01.JPG,AFNE01.JPG,AFNE01.JPG,AFNE01.JPG,AFNE01.JPG,AFNE01.JPG,,,,,,,,,4,8,48,8,,,,,,,,,,,,,,,AFSA09.jpg,AFNE17.jpg,AFNE07.jpg,AFSA12.jpg,AFSA09.jpg,FS,4,num_8,16,num_8,0.816781410947,,,2017_Nov_17_1424,60.0000577234,FEMA4ImagesEEG,001,202264,
AFNE01.JPG,AFNE01.JPG,AFNE01.JPG,AFNE01.JPG,AFNE01.JPG,AFNE01.JPG,,,,,,,,,4,9,49,9,,,,,,,,,,,,,,,AFSA03.jpg,AFNE15.jpg,AFSA15.jpg,AFNE03.jpg,AFNE03.jpg,FN,3,num_4,32,num_8,1.11670748051,,,2017_Nov_17_1424,60.0000577234,FEMA4ImagesEEG,001,202264,
AFNE01.JPG,AFNE01.JPG,AFNE01.JPG,AFNE01.JPG,AFNE01.JPG,AFNE01.JPG,,,,,,,,,5,0,50,3,,,,,,,,,,,,,,,AFSA10.jpg,AFNE17.jpg,AFNE07.jpg,AFSA02.jpg,AFNE17.jpg,FN,3,num_6,16,num_6,0.616786864121,,,2017_Nov_17_1424,60.0000577234,FEMA4ImagesEEG,001,202264,
AFNE01.JPG,AFNE01.JPG,AFNE01.JPG,AFNE01.JPG,AFNE01.JPG,AFNE01.JPG,,,,,,,,,5,1,51,1,,,,,,,,,,,,,,,AFSA11.jpg,AFSA02.jpg,AFNE17.jpg,AFNE14.jpg,AFSA11.jpg,FS,4,num_8,16,num_8,0.850116829388,,,2017_Nov_17_1424,60.0000577234,FEMA4ImagesEEG,001,202264,
AFNE01.JPG,AFNE01.JPG,AFNE01.JPG,AFNE01.JPG,AFNE01.JPG,AFNE01.JPG,,,,,,,,,5,2,52,0,,,,,,,,,,,,,,,AFSA03.jpg,AFNE07.jpg,AFSA01.jpg,AFNE15.jpg,AFNE07.jpg,FN,3,num_6,16,num_6,1.10010375921,,,2017_Nov_17_1424,60.0000577234,FEMA4ImagesEEG,001,202264,
AFNE01.JPG,AFNE01.JPG,AFNE01.JPG,AFNE01.JPG,AFNE01.JPG,AFNE01.JPG,,,,,,,,,5,3,53,5,,,,,,,,,,,,,,,AFSA16.jpg,AFNE08.jpg,AFSA06.jpg,AFNE06.jpg,AFNE08.jpg,FN,3,num_6,32,num_4,0.783544139471,,,2017_Nov_17_1424,60.0000577234,FEMA4ImagesEEG,001,202264,
AFNE01.JPG,AFNE01.JPG,AFNE01.JPG,AFNE01.JPG,AFNE01.JPG,AFNE01.JPG,,,,,,,,,5,4,54,7,,,,,,,,,,,,,,,AFSA20.jpg,AFSA02.jpg,AFNE14.jpg,AFNE07.jpg,AFNE14.jpg,FN,3,num_2,32,num_8,0.433426508214,,,2017_Nov_17_1424,60.0000577234,FEMA4ImagesEEG,001,202264,
AFNE01.JPG,AFNE01.JPG,AFNE01.JPG,AFNE01.JPG,AFNE01.JPG,AFNE01.JPG,,,,,,,,,5,5,55,2,,,,,,,,,,,,,,,AFNE10.jpg,AFNE04.jpg,AFSA18.jpg,AFSA09.jpg,AFSA18.jpg,FS,4,num_2,16,num_2,0.316850530449,,,2017_Nov_17_1424,60.0000577234,FEMA4ImagesEEG,001,202264,
AFNE01.JPG,AFNE01.JPG,AFNE01.JPG,AFNE01.JPG,AFNE01.JPG,AFNE01.JPG,,,,,,,,,5,6,56,4,,,,,,,,,,,,,,,AFSA09.jpg,AFSA04.jpg,AFNE15.jpg,AFNE13.jpg,AFNE13.jpg,FN,3,num_4,32,num_6,0.333528663963,,,2017_Nov_17_1424,60.0000577234,FEMA4ImagesEEG,001,202264,
AFNE01.JPG,AFNE01.JPG,AFNE01.JPG,AFNE01.JPG,AFNE01.JPG,AFNE01.JPG,,,,,,,,,5,7,57,9,,,,,,,,,,,,,,,AFNE16.jpg,AFSA17.jpg,AFSA03.jpg,AFNE08.jpg,AFSA17.jpg,FS,4,num_6,32,num_4,0.483512546401,,,2017_Nov_17_1424,60.0000577234,FEMA4ImagesEEG,001,202264,
AFNE01.JPG,AFNE01.JPG,AFNE01.JPG,AFNE01.JPG,AFNE01.JPG,AFNE01.JPG,,,,,,,,,5,8,58,8,,,,,,,,,,,,,,,AFSA18.jpg,AFNE02.jpg,AFSA14.jpg,AFNE07.jpg,AFNE02.jpg,FN,3,num_6,32,num_2,0.350164459553,,,2017_Nov_17_1424,60.0000577234,FEMA4ImagesEEG,001,202264,
AFNE01.JPG,AFNE01.JPG,AFNE01.JPG,AFNE01.JPG,AFNE01.JPG,AFNE01.JPG,,,,,,,,,5,9,59,6,,,,,,,,,,,,,,,AFNE12.jpg,AFNE08.jpg,AFSA17.jpg,AFSA18.jpg,AFSA17.jpg,FS,4,num_2,16,num_2,0.916617673822,,,2017_Nov_17_1424,60.0000577234,FEMA4ImagesEEG,001,202264,
,,,,,,,,,,,,,,,,,,,,,,,,,,,,,,,,,,,,,,,,,,,space,9.31620295718,2017_Nov_17_1424,60.0000577234,FEMA4ImagesEEG,001,202264,
AFNE01.JPG,AFNE01.JPG,AFNE01.JPG,AFNE01.JPG,AFNE01.JPG,AFNE01.JPG,,,,,,,,,,,,,0,0,0,1,,,,,,,,,,,AMNE01.jpg,AMSA20.jpg,AMSA11.jpg,AMNE02.jpg,AMSA20.jpg,MS,2,num_6,32,num_8,0.88346700184,,,2017_Nov_17_1424,60.0000577234,FEMA4ImagesEEG,001,202264,
AFNE01.JPG,AFNE01.JPG,AFNE01.JPG,AFNE01.JPG,AFNE01.JPG,AFNE01.JPG,,,,,,,,,,,,,0,1,1,8,,,,,,,,,,,AMNE14.jpg,AMSA16.jpg,AMSA19.jpg,AMNE13.jpg,AMSA19.jpg,MS,2,num_2,32,num_4,1.08340477804,,,2017_Nov_17_1424,60.0000577234,FEMA4ImagesEEG,001,202264,
AFNE01.JPG,AFNE01.JPG,AFNE01.JPG,AFNE01.JPG,AFNE01.JPG,AFNE01.JPG,,,,,,,,,,,,,0,2,2,7,,,,,,,,,,,AMSA13.jpg,AMSA17.jpg,AMNE15.jpg,AMNE13.jpg,AMNE15.jpg,MN,1,num_2,32,num_4,1.09985229932,,,2017_Nov_17_1424,60.0000577234,FEMA4ImagesEEG,001,202264,
AFNE01.JPG,AFNE01.JPG,AFNE01.JPG,AFNE01.JPG,AFNE01.JPG,AFNE01.JPG,,,,,,,,,,,,,0,3,3,9,,,,,,,,,,,AMNE07.jpg,AMNE01.jpg,AMSA14.jpg,AMSA17.jpg,AMNE07.jpg,MN,1,num_8,32,num_4,1.00014850218,,,2017_Nov_17_1424,60.0000577234,FEMA4ImagesEEG,001,202264,
AFNE01.JPG,AFNE01.JPG,AFNE01.JPG,AFNE01.JPG,AFNE01.JPG,AFNE01.JPG,,,,,,,,,,,,,0,4,4,4,,,,,,,,,,,AMSA11.jpg,AMSA20.jpg,AMNE19.jpg,AMNE16.jpg,AMSA20.jpg,MS,2,num_6,32,num_4,0.983423220459,,,2017_Nov_17_1424,60.0000577234,FEMA4ImagesEEG,001,202264,
AFNE01.JPG,AFNE01.JPG,AFNE01.JPG,AFNE01.JPG,AFNE01.JPG,AFNE01.JPG,,,,,,,,,,,,,0,5,5,6,,,,,,,,,,,AMSA04.jpg,AMNE12.jpg,AMSA02.jpg,AMNE06.jpg,AMNE06.jpg,MN,1,num_4,32,num_8,0.433477184735,,,2017_Nov_17_1424,60.0000577234,FEMA4ImagesEEG,001,202264,
AFNE01.JPG,AFNE01.JPG,AFNE01.JPG,AFNE01.JPG,AFNE01.JPG,AFNE01.JPG,,,,,,,,,,,,,0,6,6,2,,,,,,,,,,,AMSA07.jpg,AMNE16.jpg,AMNE13.jpg,AMSA04.jpg,AMSA07.jpg,MS,2,num_8,32,num_2,0.916856945027,,,2017_Nov_17_1424,60.0000577234,FEMA4ImagesEEG,001,202264,
AFNE01.JPG,AFNE01.JPG,AFNE01.JPG,AFNE01.JPG,AFNE01.JPG,AFNE01.JPG,,,,,,,,,,,,,0,7,7,3,,,,,,,,,,,AMSA04.jpg,AMNE20.jpg,AMSA17.jpg,AMNE09.jpg,AMSA04.jpg,MS,2,num_8,16,num_8,1.13353924826,,,2017_Nov_17_1424,60.0000577234,FEMA4ImagesEEG,001,202264,
AFNE01.JPG,AFNE01.JPG,AFNE01.JPG,AFNE01.JPG,AFNE01.JPG,AFNE01.JPG,,,,,,,,,,,,,0,8,8,5,,,,,,,,,,,AMSA08.jpg,AMNE06.jpg,AMSA17.jpg,AMNE09.jpg,AMSA08.jpg,MS,2,num_8,16,num_8,0.850081868935,,,2017_Nov_17_1424,60.0000577234,FEMA4ImagesEEG,001,202264,
AFNE01.JPG,AFNE01.JPG,AFNE01.JPG,AFNE01.JPG,AFNE01.JPG,AFNE01.JPG,,,,,,,,,,,,,0,9,9,0,,,,,,,,,,,AMSA07.jpg,AMNE01.jpg,AMSA15.jpg,AMNE12.jpg,AMSA15.jpg,MS,2,num_2,32,num_4,0.900167907123,,,2017_Nov_17_1424,60.0000577234,FEMA4ImagesEEG,001,202264,
AFNE01.JPG,AFNE01.JPG,AFNE01.JPG,AFNE01.JPG,AFNE01.JPG,AFNE01.JPG,,,,,,,,,,,,,1,0,10,9,,,,,,,,,,,AMNE05.jpg,AMSA02.jpg,AMSA13.jpg,AMNE17.jpg,AMNE05.jpg,MN,1,num_8,16,num_8,0.916722555645,,,2017_Nov_17_1424,60.0000577234,FEMA4ImagesEEG,001,202264,
AFNE01.JPG,AFNE01.JPG,AFNE01.JPG,AFNE01.JPG,AFNE01.JPG,AFNE01.JPG,,,,,,,,,,,,,1,1,11,3,,,,,,,,,,,AMNE16.jpg,AMNE07.jpg,AMSA04.jpg,AMSA19.jpg,AMSA19.jpg,MS,2,num_4,16,num_4,4.33316109655,,,2017_Nov_17_1424,60.0000577234,FEMA4ImagesEEG,001,202264,
AFNE01.JPG,AFNE01.JPG,AFNE01.JPG,AFNE01.JPG,AFNE01.JPG,AFNE01.JPG,,,,,,,,,,,,,1,2,12,8,,,,,,,,,,,AMSA07.jpg,AMNE03.jpg,AMNE05.jpg,AMSA05.jpg,AMNE05.jpg,MN,1,num_2,32,num_4,2.41661847569,,,2017_Nov_17_1424,60.0000577234,FEMA4ImagesEEG,001,202264,
AFNE01.JPG,AFNE01.JPG,AFNE01.JPG,AFNE01.JPG,AFNE01.JPG,AFNE01.JPG,,,,,,,,,,,,,1,3,13,1,,,,,,,,,,,AMSA01.jpg,AMSA02.jpg,AMNE16.jpg,AMNE07.jpg,AMSA01.jpg,MS,2,num_8,32,num_4,2.08337077964,,,2017_Nov_17_1424,60.0000577234,FEMA4ImagesEEG,001,202264,
AFNE01.JPG,AFNE01.JPG,AFNE01.JPG,AFNE01.JPG,AFNE01.JPG,AFNE01.JPG,,,,,,,,,,,,,1,4,14,5,,,,,,,,,,,AMNE12.jpg,AMNE15.jpg,AMSA12.jpg,AMSA20.jpg,AMSA12.jpg,MS,2,num_2,32,num_4,1.25009437744,,,2017_Nov_17_1424,60.0000577234,FEMA4ImagesEEG,001,202264,
AFNE01.JPG,AFNE01.JPG,AFNE01.JPG,AFNE01.JPG,AFNE01.JPG,AFNE01.JPG,,,,,,,,,,,,,1,5,15,0,,,,,,,,,,,AMSA13.jpg,AMNE18.jpg,AMSA19.jpg,AMNE09.jpg,AMSA13.jpg,MS,2,num_8,32,num_4,0.833800169639,,,2017_Nov_17_1424,60.0000577234,FEMA4ImagesEEG,001,202264,
AFNE01.JPG,AFNE01.JPG,AFNE01.JPG,AFNE01.JPG,AFNE01.JPG,AFNE01.JPG,,,,,,,,,,,,,1,6,16,2,,,,,,,,,,,AMNE08.jpg,AMSA10.jpg,AMSA17.jpg,AMNE11.jpg,AMSA17.jpg,MS,2,num_2,32,num_8,0.350164459087,,,2017_Nov_17_1424,60.0000577234,FEMA4ImagesEEG,001,202264,
AFNE01.JPG,AFNE01.JPG,AFNE01.JPG,AFNE01.JPG,AFNE01.JPG,AFNE01.JPG,,,,,,,,,,,,,1,7,17,7,,,,,,,,,,,AMNE09.jpg,AMSA17.jpg,AMNE12.jpg,AMSA06.jpg,AMSA17.jpg,MS,2,num_6,32,num_4,0.516814287286,,,2017_Nov_17_1424,60.0000577234,FEMA4ImagesEEG,001,202264,
AFNE01.JPG,AFNE01.JPG,AFNE01.JPG,AFNE01.JPG,AFNE01.JPG,AFNE01.JPG,,,,,,,,,,,,,1,8,18,4,,,,,,,,,,,AMSA08.jpg,AMSA17.jpg,AMNE05.jpg,AMNE17.jpg,AMSA08.jpg,MS,2,num_8,32,num_2,0.816794561688,,,2017_Nov_17_1424,60.0000577234,FEMA4ImagesEEG,001,202264,
AFNE01.JPG,AFNE01.JPG,AFNE01.JPG,AFNE01.JPG,AFNE01.JPG,AFNE01.JPG,,,,,,,,,,,,,1,9,19,6,,,,,,,,,,,AMSA05.jpg,AMNE16.jpg,AMNE01.jpg,AMSA07.jpg,AMNE16.jpg,MN,1,num_6,32,num_4,0.633536521811,,,2017_Nov_17_1424,60.0000577234,FEMA4ImagesEEG,001,202264,
AFNE01.JPG,AFNE01.JPG,AFNE01.JPG,AFNE01.JPG,AFNE01.JPG,AFNE01.JPG,,,,,,,,,,,,,2,0,20,3,,,,,,,,,,,AMNE13.jpg,AMSA12.jpg,AMSA10.jpg,AMNE16.jpg,AMSA10.jpg,MS,2,num_2,32,num_8,0.750152912922,,,2017_Nov_17_1424,60.0000577234,FEMA4ImagesEEG,001,202264,
AFNE01.JPG,AFNE01.JPG,AFNE01.JPG,AFNE01.JPG,AFNE01.JPG,AFNE01.JPG,,,,,,,,,,,,,2,1,21,5,,,,,,,,,,,AMNE16.jpg,AMSA10.jpg,AMSA20.jpg,AMNE17.jpg,AMSA20.jpg,MS,2,num_2,32,num_6,0.950004730839,,,2017_Nov_17_1424,60.0000577234,FEMA4ImagesEEG,001,202264,
AFNE01.JPG,AFNE01.JPG,AFNE01.JPG,AFNE01.JPG,AFNE01.JPG,AFNE01.JPG,,,,,,,,,,,,,2,2,22,2,,,,,,,,,,,AMSA12.jpg,AMNE16.jpg,AMSA18.jpg,AMNE06.jpg,AMSA12.jpg,MS,2,num_8,32,num_4,0.68340189103,,,2017_Nov_17_1424,60.0000577234,FEMA4ImagesEEG,001,202264,
AFNE01.JPG,AFNE01.JPG,AFNE01.JPG,AFNE01.JPG,AFNE01.JPG,AFNE01.JPG,,,,,,,,,,,,,2,3,23,4,,,,,,,,,,,AMSA10.jpg,AMSA02.jpg,AMNE06.jpg,AMNE02.jpg,AMSA10.jpg,MS,2,num_8,32,num_4,1.00011290051,,,2017_Nov_17_1424,60.0000577234,FEMA4ImagesEEG,001,202264,
AFNE01.JPG,AFNE01.JPG,AFNE01.JPG,AFNE01.JPG,AFNE01.JPG,AFNE01.JPG,,,,,,,,,,,,,2,4,24,8,,,,,,,,,,,AMNE03.jpg,AMNE10.jpg,AMSA17.jpg,AMSA13.jpg,AMNE10.jpg,MN,1,num_6,32,num_4,0.933552719187,,,2017_Nov_17_1424,60.0000577234,FEMA4ImagesEEG,001,202264,
AFNE01.JPG,AFNE01.JPG,AFNE01.JPG,AFNE01.JPG,AFNE01.JPG,AFNE01.JPG,,,,,,,,,,,,,2,5,25,9,,,,,,,,,,,AMSA09.jpg,AMSA03.jpg,AMNE09.jpg,AMNE19.jpg,AMSA03.jpg,MS,2,num_6,16,num_6,0.433747247793,,,2017_Nov_17_1424,60.0000577234,FEMA4ImagesEEG,001,202264,
AFNE01.JPG,AFNE01.JPG,AFNE01.JPG,AFNE01.JPG,AFNE01.JPG,AFNE01.JPG,,,,,,,,,,,,,2,6,26,1,,,,,,,,,,,AMSA13.jpg,AMSA03.jpg,AMNE16.jpg,AMNE19.jpg,AMSA03.jpg,MS,2,num_6,32,num_8,0.883560336661,,,2017_Nov_17_1424,60.0000577234,FEMA4ImagesEEG,001,202264,
AFNE01.JPG,AFNE01.JPG,AFNE01.JPG,AFNE01.JPG,AFNE01.JPG,AFNE01.JPG,,,,,,,,,,,,,2,7,27,6,,,,,,,,,,,AMSA13.jpg,AMNE06.jpg,AMNE01.jpg,AMSA01.jpg,AMSA01.jpg,MS,2,num_4,32,num_2,1.30009349529,,,2017_Nov_17_1424,60.0000577234,FEMA4ImagesEEG,001,202264,
AFNE01.JPG,AFNE01.JPG,AFNE01.JPG,AFNE01.JPG,AFNE01.JPG,AFNE01.JPG,,,,,,,,,,,,,2,8,28,7,,,,,,,,,,,AMNE11.jpg,AMNE06.jpg,AMSA19.jpg,AMSA02.jpg,AMSA02.jpg,MS,2,num_4,32,num_6,0.933426989242,,,2017_Nov_17_1424,60.0000577234,FEMA4ImagesEEG,001,202264,
AFNE01.JPG,AFNE01.JPG,AFNE01.JPG,AFNE01.JPG,AFNE01.JPG,AFNE01.JPG,,,,,,,,,,,,,2,9,29,0,,,,,,,,,,,AMSA14.jpg,AMSA01.jpg,AMNE14.jpg,AMNE03.jpg,AMNE03.jpg,MN,1,num_4,32,num_8,0.650006494951,,,2017_Nov_17_1424,60.0000577234,FEMA4ImagesEEG,001,202264,
AFNE01.JPG,AFNE01.JPG,AFNE01.JPG,AFNE01.JPG,AFNE01.JPG,AFNE01.JPG,,,,,,,,,,,,,3,0,30,1,,,,,,,,,,,AMSA17.jpg,AMNE19.jpg,AMSA18.jpg,AMNE05.jpg,AMSA18.jpg,MS,2,num_2,32,num_8,1.80006158166,,,2017_Nov_17_1424,60.0000577234,FEMA4ImagesEEG,001,202264,
AFNE01.JPG,AFNE01.JPG,AFNE01.JPG,AFNE01.JPG,AFNE01.JPG,AFNE01.JPG,,,,,,,,,,,,,3,1,31,5,,,,,,,,,,,AMNE16.jpg,AMSA11.jpg,AMSA12.jpg,AMNE15.jpg,AMSA11.jpg,MS,2,num_6,32,num_8,0.350186269265,,,2017_Nov_17_1424,60.0000577234,FEMA4ImagesEEG,001,202264,
AFNE01.JPG,AFNE01.JPG,AFNE01.JPG,AFNE01.JPG,AFNE01.JPG,AFNE01.JPG,,,,,,,,,,,,,3,2,32,2,,,,,,,,,,,AMSA01.jpg,AMNE20.jpg,AMSA14.jpg,AMNE09.jpg,AMSA14.jpg,MS,2,num_2,16,num_2,1.25006037904,,,2017_Nov_17_1424,60.0000577234,FEMA4ImagesEEG,001,202264,
AFNE01.JPG,AFNE01.JPG,AFNE01.JPG,AFNE01.JPG,AFNE01.JPG,AFNE01.JPG,,,,,,,,,,,,,3,3,33,6,,,,,,,,,,,AMSA11.jpg,AMNE06.jpg,AMSA14.jpg,AMNE03.jpg,AMNE06.jpg,MN,1,num_6,16,num_6,0.666811641306,,,2017_Nov_17_1424,60.0000577234,FEMA4ImagesEEG,001,202264,
AFNE01.JPG,AFNE01.JPG,AFNE01.JPG,AFNE01.JPG,AFNE01.JPG,AFNE01.JPG,,,,,,,,,,,,,3,4,34,0,,,,,,,,,,,AMNE19.jpg,AMNE12.jpg,AMSA03.jpg,AMSA01.jpg,AMSA03.jpg,MS,2,num_2,32,num_4,1.4048701087,,,2017_Nov_17_1424,60.0000577234,FEMA4ImagesEEG,001,202264,
AFNE01.JPG,AFNE01.JPG,AFNE01.JPG,AFNE01.JPG,AFNE01.JPG,AFNE01.JPG,,,,,,,,,,,,,3,5,35,3,,,,,,,,,,,AMNE07.jpg,AMNE04.jpg,AMSA17.jpg,AMSA12.jpg,AMNE04.jpg,MN,1,num_6,32,num_2,0.550183382817,,,2017_Nov_17_1424,60.0000577234,FEMA4ImagesEEG,001,202264,
AFNE01.JPG,AFNE01.JPG,AFNE01.JPG,AFNE01.JPG,AFNE01.JPG,AFNE01.JPG,,,,,,,,,,,,,3,6,36,4,,,,,,,,,,,AMNE06.jpg,AMSA07.jpg,AMSA19.jpg,AMNE08.jpg,AMNE06.jpg,MN,1,num_8,32,num_6,0.683640521485,,,2017_Nov_17_1424,60.0000577234,FEMA4ImagesEEG,001,202264,
AFNE01.JPG,AFNE01.JPG,AFNE01.JPG,AFNE01.JPG,AFNE01.JPG,AFNE01.JPG,,,,,,,,,,,,,3,7,37,8,,,,,,,,,,,AMNE14.jpg,AMNE18.jpg,AMSA07.jpg,AMSA20.jpg,AMNE18.jpg,MN,1,num_6,32,num_8,0.50015411526,,,2017_Nov_17_1424,60.0000577234,FEMA4ImagesEEG,001,202264,
AFNE01.JPG,AFNE01.JPG,AFNE01.JPG,AFNE01.JPG,AFNE01.JPG,AFNE01.JPG,,,,,,,,,,,,,3,8,38,7,,,,,,,,,,,AMSA03.jpg,AMSA09.jpg,AMNE18.jpg,AMNE03.jpg,AMSA03.jpg,MS,2,num_8,32,num_2,1.16718289675,,,2017_Nov_17_1424,60.0000577234,FEMA4ImagesEEG,001,202264,
AFNE01.JPG,AFNE01.JPG,AFNE01.JPG,AFNE01.JPG,AFNE01.JPG,AFNE01.JPG,,,,,,,,,,,,,3,9,39,9,,,,,,,,,,,AMSA13.jpg,AMNE14.jpg,AMSA19.jpg,AMNE15.jpg,AMNE15.jpg,MN,1,num_4,32,num_8,0.533519362099,,,2017_Nov_17_1424,60.0000577234,FEMA4ImagesEEG,001,202264,
AFNE01.JPG,AFNE01.JPG,AFNE01.JPG,AFNE01.JPG,AFNE01.JPG,AFNE01.JPG,,,,,,,,,,,,,4,0,40,4,,,,,,,,,,,AMNE10.jpg,AMSA08.jpg,AMSA19.jpg,AMNE14.jpg,AMNE10.jpg,MN,1,num_8,32,num_4,0.783459784929,,,2017_Nov_17_1424,60.0000577234,FEMA4ImagesEEG,001,202264,
AFNE01.JPG,AFNE01.JPG,AFNE01.JPG,AFNE01.JPG,AFNE01.JPG,AFNE01.JPG,,,,,,,,,,,,,4,1,41,2,,,,,,,,,,,AMNE03.jpg,AMSA13.jpg,AMNE10.jpg,AMSA11.jpg,AMSA11.jpg,MS,2,num_4,32,num_6,1.20023510233,,,2017_Nov_17_1424,60.0000577234,FEMA4ImagesEEG,001,202264,
AFNE01.JPG,AFNE01.JPG,AFNE01.JPG,AFNE01.JPG,AFNE01.JPG,AFNE01.JPG,,,,,,,,,,,,,4,2,42,7,,,,,,,,,,,AMSA10.jpg,AMNE15.jpg,AMNE16.jpg,AMSA01.jpg,AMSA01.jpg,MS,2,num_4,32,num_2,1.46674107807,,,2017_Nov_17_1424,60.0000577234,FEMA4ImagesEEG,001,202264,
AFNE01.JPG,AFNE01.JPG,AFNE01.JPG,AFNE01.JPG,AFNE01.JPG,AFNE01.JPG,,,,,,,,,,,,,4,3,43,3,,,,,,,,,,,AMNE14.jpg,AMNE05.jpg,AMSA18.jpg,AMSA02.jpg,AMSA02.jpg,MS,2,num_4,32,num_8,0.700131342746,,,2017_Nov_17_1424,60.0000577234,FEMA4ImagesEEG,001,202264,
AFNE01.JPG,AFNE01.JPG,AFNE01.JPG,AFNE01.JPG,AFNE01.JPG,AFNE01.JPG,,,,,,,,,,,,,4,4,44,8,,,,,,,,,,,AMSA15.jpg,AMNE17.jpg,AMSA17.jpg,AMNE02.jpg,AMNE02.jpg,MN,1,num_4,32,num_2,1.10013968218,,,2017_Nov_17_1424,60.0000577234,FEMA4ImagesEEG,001,202264,
AFNE01.JPG,AFNE01.JPG,AFNE01.JPG,AFNE01.JPG,AFNE01.JPG,AFNE01.JPG,,,,,,,,,,,,,4,5,45,1,,,,,,,,,,,AMNE03.jpg,AMNE02.jpg,AMSA14.jpg,AMSA11.jpg,AMNE03.jpg,MN,1,num_8,32,num_4,0.633860147558,,,2017_Nov_17_1424,60.0000577234,FEMA4ImagesEEG,001,202264,
AFNE01.JPG,AFNE01.JPG,AFNE01.JPG,AFNE01.JPG,AFNE01.JPG,AFNE01.JPG,,,,,,,,,,,,,4,6,46,5,,,,,,,,,,,AMSA04.jpg,AMNE02.jpg,AMNE05.jpg,AMSA02.jpg,AMSA02.jpg,MS,2,num_4,32,num_8,1.1332092071,,,2017_Nov_17_1424,60.0000577234,FEMA4ImagesEEG,001,202264,
AFNE01.JPG,AFNE01.JPG,AFNE01.JPG,AFNE01.JPG,AFNE01.JPG,AFNE01.JPG,,,,,,,,,,,,,4,7,47,6,,,,,,,,,,,AMNE10.jpg,AMNE15.jpg,AMSA08.jpg,AMSA17.jpg,AMSA08.jpg,MS,2,num_2,16,num_2,0.600167426281,,,2017_Nov_17_1424,60.0000577234,FEMA4ImagesEEG,001,202264,
AFNE01.JPG,AFNE01.JPG,AFNE01.JPG,AFNE01.JPG,AFNE01.JPG,AFNE01.JPG,,,,,,,,,,,,,4,8,48,0,,,,,,,,,,,AMNE01.jpg,AMSA20.jpg,AMNE19.jpg,AMSA07.jpg,AMNE19.jpg,MN,1,num_2,32,num_8,0.866788547486,,,2017_Nov_17_1424,60.0000577234,FEMA4ImagesEEG,001,202264,
AFNE01.JPG,AFNE01.JPG,AFNE01.JPG,AFNE01.JPG,AFNE01.JPG,AFNE01.JPG,,,,,,,,,,,,,4,9,49,9,,,,,,,,,,,AMSA01.jpg,AMNE03.jpg,AMNE10.jpg,AMSA11.jpg,AMSA01.jpg,MS,2,num_8,32,num_2,0.866762888618,,,2017_Nov_17_1424,60.0000577234,FEMA4ImagesEEG,001,202264,
AFNE01.JPG,AFNE01.JPG,AFNE01.JPG,AFNE01.JPG,AFNE01.JPG,AFNE01.JPG,,,,,,,,,,,,,5,0,50,4,,,,,,,,,,,AMNE14.jpg,AMSA19.jpg,AMSA12.jpg,AMNE06.jpg,AMSA12.jpg,MS,2,num_2,16,num_2,1.40009429771,,,2017_Nov_17_1424,60.0000577234,FEMA4ImagesEEG,001,202264,
AFNE01.JPG,AFNE01.JPG,AFNE01.JPG,AFNE01.JPG,AFNE01.JPG,AFNE01.JPG,,,,,,,,,,,,,5,1,51,0,,,,,,,,,,,AMSA19.jpg,AMNE02.jpg,AMNE19.jpg,AMSA16.jpg,AMNE19.jpg,MN,1,num_2,32,num_8,1.18342386186,,,2017_Nov_17_1424,60.0000577234,FEMA4ImagesEEG,001,202264,
AFNE01.JPG,AFNE01.JPG,AFNE01.JPG,AFNE01.JPG,AFNE01.JPG,AFNE01.JPG,,,,,,,,,,,,,5,2,52,2,,,,,,,,,,,AMNE03.jpg,AMNE02.jpg,AMSA19.jpg,AMSA01.jpg,AMSA01.jpg,MS,2,num_4,32,num_2,0.633494504727,,,2017_Nov_17_1424,60.0000577234,FEMA4ImagesEEG,001,202264,
AFNE01.JPG,AFNE01.JPG,AFNE01.JPG,AFNE01.JPG,AFNE01.JPG,AFNE01.JPG,,,,,,,,,,,,,5,3,53,7,,,,,,,,,,,AMNE03.jpg,AMSA04.jpg,AMSA20.jpg,AMNE18.jpg,AMSA04.jpg,MS,2,num_6,32,num_4,0.633476864081,,,2017_Nov_17_1424,60.0000577234,FEMA4ImagesEEG,001,202264,
AFNE01.JPG,AFNE01.JPG,AFNE01.JPG,AFNE01.JPG,AFNE01.JPG,AFNE01.JPG,,,,,,,,,,,,,5,4,54,8,,,,,,,,,,,AMSA18.jpg,AMSA07.jpg,AMNE15.jpg,AMNE10.jpg,AMNE15.jpg,MN,1,num_2,16,num_2,0.366679656319,,,2017_Nov_17_1424,60.0000577234,FEMA4ImagesEEG,001,202264,
AFNE01.JPG,AFNE01.JPG,AFNE01.JPG,AFNE01.JPG,AFNE01.JPG,AFNE01.JPG,,,,,,,,,,,,,5,5,55,9,,,,,,,,,,,AMNE07.jpg,AMSA17.jpg,AMNE18.jpg,AMSA10.jpg,AMNE07.jpg,MN,1,num_8,32,num_6,0.866736908443,,,2017_Nov_17_1424,60.0000577234,FEMA4ImagesEEG,001,202264,
AFNE01.JPG,AFNE01.JPG,AFNE01.JPG,AFNE01.JPG,AFNE01.JPG,AFNE01.JPG,,,,,,,,,,,,,5,6,56,3,,,,,,,,,,,AMNE03.jpg,AMNE05.jpg,AMSA10.jpg,AMSA12.jpg,AMNE03.jpg,MN,1,num_8,32,num_4,1.29843334807,,,2017_Nov_17_1424,60.0000577234,FEMA4ImagesEEG,001,202264,
AFNE01.JPG,AFNE01.JPG,AFNE01.JPG,AFNE01.JPG,AFNE01.JPG,AFNE01.JPG,,,,,,,,,,,,,5,7,57,6,,,,,,,,,,,AMNE16.jpg,AMSA12.jpg,AMNE05.jpg,AMSA09.jpg,AMNE16.jpg,MN,1,num_8,16,num_8,2.01639812766,,,2017_Nov_17_1424,60.0000577234,FEMA4ImagesEEG,001,202264,
AFNE01.JPG,AFNE01.JPG,AFNE01.JPG,AFNE01.JPG,AFNE01.JPG,AFNE01.JPG,,,,,,,,,,,,,5,8,58,5,,,,,,,,,,,AMSA08.jpg,AMSA16.jpg,AMNE09.jpg,AMNE06.jpg,AMSA16.jpg,MS,2,num_6,32,num_4,0.90014321031,,,2017_Nov_17_1424,60.0000577234,FEMA4ImagesEEG,001,202264,
AFNE01.JPG,AFNE01.JPG,AFNE01.JPG,AFNE01.JPG,AFNE01.JPG,AFNE01.JPG,,,,,,,,,,,,,5,9,59,1,,,,,,,,,,,AMSA03.jpg,AMNE05.jpg,AMSA13.jpg,AMNE01.jpg,AMNE01.jpg,MN,1,num_4,16,num_4,1.86668751435,,,2017_Nov_17_1424,60.0000577234,FEMA4ImagesEEG,001,202264,
,,,,,,,,,,,,,,,,,,,,,,,,,,,,,,,,,,,,,,,,,,,space,23.4986459981,2017_Nov_17_1424,60.0000577234,FEMA4ImagesEEG,001,202264,
AFNE01.JPG,AFNE01.JPG,AFNE01.JPG,AFNE01.JPG,AFNE01.JPG,AFNE01.JPG,,,,,,,,,,,,,,,,,0,0,0,5,,,,,,,AFSA05.jpg,AFNE05.jpg,AFSA07.jpg,AFNE13.jpg,AFSA07.jpg,FS,4,num_2,32,num_8,0.700164699927,,,2017_Nov_17_1424,60.0000577234,FEMA4ImagesEEG,001,202264,
AFNE01.JPG,AFNE01.JPG,AFNE01.JPG,AFNE01.JPG,AFNE01.JPG,AFNE01.JPG,,,,,,,,,,,,,,,,,0,1,1,6,,,,,,,AFNE10.jpg,AFSA14.jpg,AFSA03.jpg,AFNE01.jpg,AFNE01.jpg,FN,3,num_4,32,num_6,1.39994419133,,,2017_Nov_17_1424,60.0000577234,FEMA4ImagesEEG,001,202264,
AFNE01.JPG,AFNE01.JPG,AFNE01.JPG,AFNE01.JPG,AFNE01.JPG,AFNE01.JPG,,,,,,,,,,,,,,,,,0,2,2,7,,,,,,,AFNE17.jpg,AFSA07.jpg,AFNE08.jpg,AFSA05.jpg,AFSA05.jpg,FS,4,num_4,16,num_4,1.1001576432,,,2017_Nov_17_1424,60.0000577234,FEMA4ImagesEEG,001,202264,
AFNE01.JPG,AFNE01.JPG,AFNE01.JPG,AFNE01.JPG,AFNE01.JPG,AFNE01.JPG,,,,,,,,,,,,,,,,,0,3,3,8,,,,,,,AFNE18.jpg,AFNE20.jpg,AFSA12.jpg,AFSA08.jpg,AFNE18.jpg,FN,3,num_8,32,num_6,1.50008226978,,,2017_Nov_17_1424,60.0000577234,FEMA4ImagesEEG,001,202264,
AFNE01.JPG,AFNE01.JPG,AFNE01.JPG,AFNE01.JPG,AFNE01.JPG,AFNE01.JPG,,,,,,,,,,,,,,,,,0,4,4,1,,,,,,,AFSA08.jpg,AFNE02.jpg,AFSA02.jpg,AFNE11.jpg,AFSA08.jpg,FS,4,num_8,16,num_8,0.816785260104,,,2017_Nov_17_1424,60.0000577234,FEMA4ImagesEEG,001,202264,
AFNE01.JPG,AFNE01.JPG,AFNE01.JPG,AFNE01.JPG,AFNE01.JPG,AFNE01.JPG,,,,,,,,,,,,,,,,,0,5,5,4,,,,,,,AFSA01.jpg,AFNE04.jpg,AFSA16.jpg,AFNE02.jpg,AFSA16.jpg,FS,4,num_2,16,num_2,0.500147059094,,,2017_Nov_17_1424,60.0000577234,FEMA4ImagesEEG,001,202264,
AFNE01.JPG,AFNE01.JPG,AFNE01.JPG,AFNE01.JPG,AFNE01.JPG,AFNE01.JPG,,,,,,,,,,,,,,,,,0,6,6,9,,,,,,,AFSA05.jpg,AFSA06.jpg,AFNE10.jpg,AFNE02.jpg,AFSA05.jpg,FS,4,num_8,16,num_8,1.53340966953,,,2017_Nov_17_1424,60.0000577234,FEMA4ImagesEEG,001,202264,
AFNE01.JPG,AFNE01.JPG,AFNE01.JPG,AFNE01.JPG,AFNE01.JPG,AFNE01.JPG,,,,,,,,,,,,,,,,,0,7,7,2,,,,,,,AFNE07.jpg,AFNE18.jpg,AFSA10.jpg,AFSA05.jpg,AFSA10.jpg,FS,4,num_2,16,num_2,0.800050035119,,,2017_Nov_17_1424,60.0000577234,FEMA4ImagesEEG,001,202264,
AFNE01.JPG,AFNE01.JPG,AFNE01.JPG,AFNE01.JPG,AFNE01.JPG,AFNE01.JPG,,,,,,,,,,,,,,,,,0,8,8,0,,,,,,,AFNE19.jpg,AFSA13.jpg,AFSA05.jpg,AFNE01.jpg,AFSA05.jpg,FS,4,num_2,32,num_8,1.43341047131,,,2017_Nov_17_1424,60.0000577234,FEMA4ImagesEEG,001,202264,
AFNE01.JPG,AFNE01.JPG,AFNE01.JPG,AFNE01.JPG,AFNE01.JPG,AFNE01.JPG,,,,,,,,,,,,,,,,,0,9,9,3,,,,,,,AFSA07.jpg,AFNE12.jpg,AFSA11.jpg,AFNE04.jpg,AFNE04.jpg,FN,3,num_4,32,num_2,1.16672905022,,,2017_Nov_17_1424,60.0000577234,FEMA4ImagesEEG,001,202264,
AFNE01.JPG,AFNE01.JPG,AFNE01.JPG,AFNE01.JPG,AFNE01.JPG,AFNE01.JPG,,,,,,,,,,,,,,,,,1,0,10,3,,,,,,,AFNE03.jpg,AFNE13.jpg,AFSA07.jpg,AFSA17.jpg,AFNE03.jpg,FN,3,num_8,16,num_8,1.75009004772,,,2017_Nov_17_1424,60.0000577234,FEMA4ImagesEEG,001,202264,
AFNE01.JPG,AFNE01.JPG,AFNE01.JPG,AFNE01.JPG,AFNE01.JPG,AFNE01.JPG,,,,,,,,,,,,,,,,,1,1,11,4,,,,,,,AFNE12.jpg,AFSA16.jpg,AFSA18.jpg,AFNE18.jpg,AFSA16.jpg,FS,4,num_6,32,num_4,0.516849888954,,,2017_Nov_17_1424,60.0000577234,FEMA4ImagesEEG,001,202264,
AFNE01.JPG,AFNE01.JPG,AFNE01.JPG,AFNE01.JPG,AFNE01.JPG,AFNE01.JPG,,,,,,,,,,,,,,,,,1,2,12,7,,,,,,,AFSA02.jpg,AFNE03.jpg,AFNE11.jpg,AFSA10.jpg,AFNE11.jpg,FN,3,num_2,32,num_8,0.683406381868,,,2017_Nov_17_1424,60.0000577234,FEMA4ImagesEEG,001,202264,
AFNE01.JPG,AFNE01.JPG,AFNE01.JPG,AFNE01.JPG,AFNE01.JPG,AFNE01.JPG,,,,,,,,,,,,,,,,,1,3,13,0,,,,,,,AFNE06.jpg,AFSA10.jpg,AFSA14.jpg,AFNE03.jpg,AFNE06.jpg,FN,3,num_8,32,num_2,0.833489694167,,,2017_Nov_17_1424,60.0000577234,FEMA4ImagesEEG,001,202264,
AFNE01.JPG,AFNE01.JPG,AFNE01.JPG,AFNE01.JPG,AFNE01.JPG,AFNE01.JPG,,,,,,,,,,,,,,,,,1,4,14,1,,,,,,,AFSA16.jpg,AFSA02.jpg,AFNE09.jpg,AFNE17.jpg,AFSA16.jpg,FS,4,num_8,16,num_8,1.35008844407,,,2017_Nov_17_1424,60.0000577234,FEMA4ImagesEEG,001,202264,
AFNE01.JPG,AFNE01.JPG,AFNE01.JPG,AFNE01.JPG,AFNE01.JPG,AFNE01.JPG,,,,,,,,,,,,,,,,,1,5,15,8,,,,,,,AFSA13.jpg,AFNE08.jpg,AFNE11.jpg,AFSA14.jpg,AFNE11.jpg,FN,3,num_2,16,num_2,2.21667203913,,,2017_Nov_17_1424,60.0000577234,FEMA4ImagesEEG,001,202264,
AFNE01.JPG,AFNE01.JPG,AFNE01.JPG,AFNE01.JPG,AFNE01.JPG,AFNE01.JPG,,,,,,,,,,,,,,,,,1,6,16,5,,,,,,,AFNE08.jpg,AFSA19.jpg,AFNE04.jpg,AFSA13.jpg,AFNE08.jpg,FN,3,num_8,32,num_2,1.66677732207,,,2017_Nov_17_1424,60.0000577234,FEMA4ImagesEEG,001,202264,
AFNE01.JPG,AFNE01.JPG,AFNE01.JPG,AFNE01.JPG,AFNE01.JPG,AFNE01.JPG,,,,,,,,,,,,,,,,,1,7,17,9,,,,,,,AFNE20.jpg,AFSA11.jpg,AFSA16.jpg,AFNE18.jpg,AFSA11.jpg,FS,4,num_6,32,num_8,0.633508938365,,,2017_Nov_17_1424,60.0000577234,FEMA4ImagesEEG,001,202264,
AFNE01.JPG,AFNE01.JPG,AFNE01.JPG,AFNE01.JPG,AFNE01.JPG,AFNE01.JPG,,,,,,,,,,,,,,,,,1,8,18,6,,,,,,,AFSA04.jpg,AFNE01.jpg,AFSA13.jpg,AFNE10.jpg,AFSA04.jpg,FS,4,num_8,32,num_6,1.26676128479,,,2017_Nov_17_1424,60.0000577234,FEMA4ImagesEEG,001,202264,
AFNE01.JPG,AFNE01.JPG,AFNE01.JPG,AFNE01.JPG,AFNE01.JPG,AFNE01.JPG,,,,,,,,,,,,,,,,,1,9,19,2,,,,,,,AFSA10.jpg,AFSA16.jpg,AFNE11.jpg,AFNE14.jpg,AFNE14.jpg,FN,3,num_4,16,num_4,1.33346162923,,,2017_Nov_17_1424,60.0000577234,FEMA4ImagesEEG,001,202264,
AFNE01.JPG,AFNE01.JPG,AFNE01.JPG,AFNE01.JPG,AFNE01.JPG,AFNE01.JPG,,,,,,,,,,,,,,,,,2,0,20,6,,,,,,,AFNE02.jpg,AFSA07.jpg,AFSA19.jpg,AFNE05.jpg,AFNE05.jpg,FN,3,num_4,32,num_8,1.00011867378,,,2017_Nov_17_1424,60.0000577234,FEMA4ImagesEEG,001,202264,
AFNE01.JPG,AFNE01.JPG,AFNE01.JPG,AFNE01.JPG,AFNE01.JPG,AFNE01.JPG,,,,,,,,,,,,,,,,,2,1,21,9,,,,,,,AFSA07.jpg,AFNE08.jpg,AFSA10.jpg,AFNE14.jpg,AFNE14.jpg,FN,3,num_4,32,num_6,0.383502763696,,,2017_Nov_17_1424,60.0000577234,FEMA4ImagesEEG,001,202264,
AFNE01.JPG,AFNE01.JPG,AFNE01.JPG,AFNE01.JPG,AFNE01.JPG,AFNE01.JPG,,,,,,,,,,,,,,,,,2,2,22,4,,,,,,,AFSA03.jpg,AFNE20.jpg,AFSA14.jpg,AFNE12.jpg,AFNE12.jpg,FN,3,num_4,32,num_2,0.700071043801,,,2017_Nov_17_1424,60.0000577234,FEMA4ImagesEEG,001,202264,
AFNE01.JPG,AFNE01.JPG,AFNE01.JPG,AFNE01.JPG,AFNE01.JPG,AFNE01.JPG,,,,,,,,,,,,,,,,,2,3,23,5,,,,,,,AFSA08.jpg,AFNE02.jpg,AFSA20.jpg,AFNE08.jpg,AFNE02.jpg,FN,3,num_6,16,num_6,1.21672014985,,,2017_Nov_17_1424,60.0000577234,FEMA4ImagesEEG,001,202264,
AFNE01.JPG,AFNE01.JPG,AFNE01.JPG,AFNE01.JPG,AFNE01.JPG,AFNE01.JPG,,,,,,,,,,,,,,,,,2,4,24,0,,,,,,,AFNE08.jpg,AFSA20.jpg,AFNE05.jpg,AFSA02.jpg,AFSA02.jpg,FS,4,num_4,32,num_2,1.53325443109,,,2017_Nov_17_1424,60.0000577234,FEMA4ImagesEEG,001,202264,
AFNE01.JPG,AFNE01.JPG,AFNE01.JPG,AFNE01.JPG,AFNE01.JPG,AFNE01.JPG,,,,,,,,,,,,,,,,,2,5,25,8,,,,,,,AFSA08.jpg,AFNE19.jpg,AFSA10.jpg,AFNE17.jpg,AFNE19.jpg,FN,3,num_6,32,num_8,1.75003167288,,,2017_Nov_17_1424,60.0000577234,FEMA4ImagesEEG,001,202264,
AFNE01.JPG,AFNE01.JPG,AFNE01.JPG,AFNE01.JPG,AFNE01.JPG,AFNE01.JPG,,,,,,,,,,,,,,,,,2,6,26,3,,,,,,,AFNE02.jpg,AFSA06.jpg,AFSA03.jpg,AFNE15.jpg,AFNE02.jpg,FN,3,num_8,32,num_4,1.30007585511,,,2017_Nov_17_1424,60.0000577234,FEMA4ImagesEEG,001,202264,
AFNE01.JPG,AFNE01.JPG,AFNE01.JPG,AFNE01.JPG,AFNE01.JPG,AFNE01.JPG,,,,,,,,,,,,,,,,,2,7,27,2,,,,,,,AFNE03.jpg,AFSA05.jpg,AFSA18.jpg,AFNE18.jpg,AFNE18.jpg,FN,3,num_4,32,num_6,0.783500198275,,,2017_Nov_17_1424,60.0000577234,FEMA4ImagesEEG,001,202264,
AFNE01.JPG,AFNE01.JPG,AFNE01.JPG,AFNE01.JPG,AFNE01.JPG,AFNE01.JPG,,,,,,,,,,,,,,,,,2,8,28,7,,,,,,,AFSA19.jpg,AFSA07.jpg,AFNE18.jpg,AFNE15.jpg,AFSA19.jpg,FS,4,num_8,32,num_6,0.666795603931,,,2017_Nov_17_1424,60.0000577234,FEMA4ImagesEEG,001,202264,
AFNE01.JPG,AFNE01.JPG,AFNE01.JPG,AFNE01.JPG,AFNE01.JPG,AFNE01.JPG,,,,,,,,,,,,,,,,,2,9,29,1,,,,,,,AFSA19.jpg,AFNE20.jpg,AFNE16.jpg,AFSA03.jpg,AFNE20.jpg,FN,3,num_6,32,num_2,1.68337462842,,,2017_Nov_17_1424,60.0000577234,FEMA4ImagesEEG,001,202264,
AFNE01.JPG,AFNE01.JPG,AFNE01.JPG,AFNE01.JPG,AFNE01.JPG,AFNE01.JPG,,,,,,,,,,,,,,,,,3,0,30,6,,,,,,,AFSA18.jpg,AFNE07.jpg,AFSA11.jpg,AFNE08.jpg,AFNE08.jpg,FN,3,num_4,32,num_2,1.33344463026,,,2017_Nov_17_1424,60.0000577234,FEMA4ImagesEEG,001,202264,
AFNE01.JPG,AFNE01.JPG,AFNE01.JPG,AFNE01.JPG,AFNE01.JPG,AFNE01.JPG,,,,,,,,,,,,,,,,,3,1,31,4,,,,,,,AFNE08.jpg,AFSA11.jpg,AFSA20.jpg,AFNE17.jpg,AFNE17.jpg,FN,3,num_4,32,num_6,1.98334528087,,,2017_Nov_17_1424,60.0000577234,FEMA4ImagesEEG,001,202264,
AFNE01.JPG,AFNE01.JPG,AFNE01.JPG,AFNE01.JPG,AFNE01.JPG,AFNE01.JPG,,,,,,,,,,,,,,,,,3,2,32,9,,,,,,,AFSA15.jpg,AFNE17.jpg,AFNE08.jpg,AFSA02.jpg,AFSA15.jpg,FS,4,num_8,32,num_2,4.38322628662,,,2017_Nov_17_1424,60.0000577234,FEMA4ImagesEEG,001,202264,
AFNE01.JPG,AFNE01.JPG,AFNE01.JPG,AFNE01.JPG,AFNE01.JPG,AFNE01.JPG,,,,,,,,,,,,,,,,,3,3,33,2,,,,,,,AFSA20.jpg,AFNE20.jpg,AFSA14.jpg,AFNE08.jpg,AFNE20.jpg,FN,3,num_6,32,num_8,1.45008635893,,,2017_Nov_17_1424,60.0000577234,FEMA4ImagesEEG,001,202264,
AFNE01.JPG,AFNE01.JPG,AFNE01.JPG,AFNE01.JPG,AFNE01.JPG,AFNE01.JPG,,,,,,,,,,,,,,,,,3,4,34,3,,,,,,,AFSA14.jpg,AFSA17.jpg,AFNE11.jpg,AFNE14.jpg,AFSA17.jpg,FS,4,num_6,16,num_6,1.55008106679,,,2017_Nov_17_1424,60.0000577234,FEMA4ImagesEEG,001,202264,
AFNE01.JPG,AFNE01.JPG,AFNE01.JPG,AFNE01.JPG,AFNE01.JPG,AFNE01.JPG,,,,,,,,,,,,,,,,,3,5,35,1,,,,,,,AFNE01.jpg,AFSA07.jpg,AFNE09.jpg,AFSA19.jpg,AFSA07.jpg,FS,4,num_6,32,num_8,0.450122923125,,,2017_Nov_17_1424,60.0000577234,FEMA4ImagesEEG,001,202264,
AFNE01.JPG,AFNE01.JPG,AFNE01.JPG,AFNE01.JPG,AFNE01.JPG,AFNE01.JPG,,,,,,,,,,,,,,,,,3,6,36,8,,,,,,,AFSA16.jpg,AFNE02.jpg,AFSA12.jpg,AFNE07.jpg,AFNE02.jpg,FN,3,num_6,32,num_2,1.6833919487,,,2017_Nov_17_1424,60.0000577234,FEMA4ImagesEEG,001,202264,
AFNE01.JPG,AFNE01.JPG,AFNE01.JPG,AFNE01.JPG,AFNE01.JPG,AFNE01.JPG,,,,,,,,,,,,,,,,,3,7,37,7,,,,,,,AFNE15.jpg,AFSA19.jpg,AFSA16.jpg,AFNE18.jpg,AFNE15.jpg,FN,3,num_8,16,num_8,0.716773553286,,,2017_Nov_17_1424,60.0000577234,FEMA4ImagesEEG,001,202264,
AFNE01.JPG,AFNE01.JPG,AFNE01.JPG,AFNE01.JPG,AFNE01.JPG,AFNE01.JPG,,,,,,,,,,,,,,,,,3,8,38,0,,,,,,,AFNE11.jpg,AFSA09.jpg,AFSA16.jpg,AFNE06.jpg,AFNE06.jpg,FN,3,num_4,32,num_6,0.71675687423,,,2017_Nov_17_1424,60.0000577234,FEMA4ImagesEEG,001,202264,
AFNE01.JPG,AFNE01.JPG,AFNE01.JPG,AFNE01.JPG,AFNE01.JPG,AFNE01.JPG,,,,,,,,,,,,,,,,,3,9,39,5,,,,,,,AFNE11.jpg,AFSA14.jpg,AFSA16.jpg,AFNE05.jpg,AFSA16.jpg,FS,4,num_2,32,num_8,0.700227564666,,,2017_Nov_17_1424,60.0000577234,FEMA4ImagesEEG,001,202264,
AFNE01.JPG,AFNE01.JPG,AFNE01.JPG,AFNE01.JPG,AFNE01.JPG,AFNE01.JPG,,,,,,,,,,,,,,,,,4,0,40,0,,,,,,,AFNE17.jpg,AFNE19.jpg,AFSA14.jpg,AFSA07.jpg,AFSA14.jpg,FS,4,num_2,16,num_2,1.01669737743,,,2017_Nov_17_1424,60.0000577234,FEMA4ImagesEEG,001,202264,
AFNE01.JPG,AFNE01.JPG,AFNE01.JPG,AFNE01.JPG,AFNE01.JPG,AFNE01.JPG,,,,,,,,,,,,,,,,,4,1,41,2,,,,,,,AFSA15.jpg,AFNE06.jpg,AFNE17.jpg,AFSA05.jpg,AFNE06.jpg,FN,3,num_6,32,num_8,0.450194127858,,,2017_Nov_17_1424,60.0000577234,FEMA4ImagesEEG,001,202264,
AFNE01.JPG,AFNE01.JPG,AFNE01.JPG,AFNE01.JPG,AFNE01.JPG,AFNE01.JPG,,,,,,,,,,,,,,,,,4,2,42,5,,,,,,,AFSA02.jpg,AFNE11.jpg,AFSA09.jpg,AFNE08.jpg,AFNE11.jpg,FN,3,num_6,32,num_8,0.783450483344,,,2017_Nov_17_1424,60.0000577234,FEMA4ImagesEEG,001,202264,
AFNE01.JPG,AFNE01.JPG,AFNE01.JPG,AFNE01.JPG,AFNE01.JPG,AFNE01.JPG,,,,,,,,,,,,,,,,,4,3,43,1,,,,,,,AFNE17.jpg,AFSA07.jpg,AFSA14.jpg,AFNE04.jpg,AFSA14.jpg,FS,4,num_2,32,num_4,0.516775798518,,,2017_Nov_17_1424,60.0000577234,FEMA4ImagesEEG,001,202264,
AFNE01.JPG,AFNE01.JPG,AFNE01.JPG,AFNE01.JPG,AFNE01.JPG,AFNE01.JPG,,,,,,,,,,,,,,,,,4,4,44,6,,,,,,,AFSA08.jpg,AFNE06.jpg,AFSA20.jpg,AFNE19.jpg,AFNE19.jpg,FN,3,num_4,32,num_2,0.716792155989,,,2017_Nov_17_1424,60.0000577234,FEMA4ImagesEEG,001,202264,
AFNE01.JPG,AFNE01.JPG,AFNE01.JPG,AFNE01.JPG,AFNE01.JPG,AFNE01.JPG,,,,,,,,,,,,,,,,,4,5,45,3,,,,,,,AFNE01.jpg,AFNE02.jpg,AFSA17.jpg,AFSA14.jpg,AFSA14.jpg,FS,4,num_4,32,num_8,0.833500278182,,,2017_Nov_17_1424,60.0000577234,FEMA4ImagesEEG,001,202264,
AFNE01.JPG,AFNE01.JPG,AFNE01.JPG,AFNE01.JPG,AFNE01.JPG,AFNE01.JPG,,,,,,,,,,,,,,,,,4,6,46,9,,,,,,,AFNE04.jpg,AFNE09.jpg,AFSA07.jpg,AFSA16.jpg,AFSA07.jpg,FS,4,num_2,16,num_2,0.416823748965,,,2017_Nov_17_1424,60.0000577234,FEMA4ImagesEEG,001,202264,
AFNE01.JPG,AFNE01.JPG,AFNE01.JPG,AFNE01.JPG,AFNE01.JPG,AFNE01.JPG,,,,,,,,,,,,,,,,,4,7,47,7,,,,,,,AFSA10.jpg,AFNE04.jpg,AFSA06.jpg,AFNE18.jpg,AFNE04.jpg,FN,3,num_6,32,num_4,0.350207438227,,,2017_Nov_17_1424,60.0000577234,FEMA4ImagesEEG,001,202264,
AFNE01.JPG,AFNE01.JPG,AFNE01.JPG,AFNE01.JPG,AFNE01.JPG,AFNE01.JPG,,,,,,,,,,,,,,,,,4,8,48,8,,,,,,,AFSA12.jpg,AFNE07.jpg,AFNE19.jpg,AFSA10.jpg,AFSA10.jpg,FS,4,num_4,32,num_2,0.600042979233,,,2017_Nov_17_1424,60.0000577234,FEMA4ImagesEEG,001,202264,
AFNE01.JPG,AFNE01.JPG,AFNE01.JPG,AFNE01.JPG,AFNE01.JPG,AFNE01.JPG,,,,,,,,,,,,,,,,,4,9,49,4,,,,,,,AFSA06.jpg,AFSA12.jpg,AFNE10.jpg,AFNE16.jpg,AFSA06.jpg,FS,4,num_8,32,num_6,0.383538045455,,,2017_Nov_17_1424,60.0000577234,FEMA4ImagesEEG,001,202264,
AFNE01.JPG,AFNE01.JPG,AFNE01.JPG,AFNE01.JPG,AFNE01.JPG,AFNE01.JPG,,,,,,,,,,,,,,,,,5,0,50,4,,,,,,,AFSA05.jpg,AFNE13.jpg,AFSA17.jpg,AFNE15.jpg,AFNE13.jpg,FN,3,num_6,32,num_8,0.450171996374,,,2017_Nov_17_1424,60.0000577234,FEMA4ImagesEEG,001,202264,
AFNE01.JPG,AFNE01.JPG,AFNE01.JPG,AFNE01.JPG,AFNE01.JPG,AFNE01.JPG,,,,,,,,,,,,,,,,,5,1,51,9,,,,,,,AFNE02.jpg,AFNE18.jpg,AFSA10.jpg,AFSA08.jpg,AFNE18.jpg,FN,3,num_6,16,num_6,0.916798250284,,,2017_Nov_17_1424,60.0000577234,FEMA4ImagesEEG,001,202264,
AFNE01.JPG,AFNE01.JPG,AFNE01.JPG,AFNE01.JPG,AFNE01.JPG,AFNE01.JPG,,,,,,,,,,,,,,,,,5,2,52,2,,,,,,,AFSA13.jpg,AFNE11.jpg,AFNE07.jpg,AFSA01.jpg,AFSA01.jpg,FS,4,num_4,32,num_2,1.95003648382,,,2017_Nov_17_1424,60.0000577234,FEMA4ImagesEEG,001,202264,
AFNE01.JPG,AFNE01.JPG,AFNE01.JPG,AFNE01.JPG,AFNE01.JPG,AFNE01.JPG,,,,,,,,,,,,,,,,,5,3,53,3,,,,,,,AFNE11.jpg,AFSA18.jpg,AFSA02.jpg,AFNE05.jpg,AFNE11.jpg,FN,3,num_8,32,num_2,0.766764011234,,,2017_Nov_17_1424,60.0000577234,FEMA4ImagesEEG,001,202264,
AFNE01.JPG,AFNE01.JPG,AFNE01.JPG,AFNE01.JPG,AFNE01.JPG,AFNE01.JPG,,,,,,,,,,,,,,,,,5,4,54,6,,,,,,,AFNE10.jpg,AFSA01.jpg,AFSA14.jpg,AFNE16.jpg,AFSA14.jpg,FS,4,num_2,32,num_8,0.933475742117,,,2017_Nov_17_1424,60.0000577234,FEMA4ImagesEEG,001,202264,
AFNE01.JPG,AFNE01.JPG,AFNE01.JPG,AFNE01.JPG,AFNE01.JPG,AFNE01.JPG,,,,,,,,,,,,,,,,,5,5,55,7,,,,,,,AFSA18.jpg,AFSA19.jpg,AFNE13.jpg,AFNE20.jpg,AFSA18.jpg,FS,4,num_8,16,num_8,1.40014625713,,,2017_Nov_17_1424,60.0000577234,FEMA4ImagesEEG,001,202264,
AFNE01.JPG,AFNE01.JPG,AFNE01.JPG,AFNE01.JPG,AFNE01.JPG,AFNE01.JPG,,,,,,,,,,,,,,,,,5,6,56,5,,,,,,,AFSA13.jpg,AFSA06.jpg,AFNE07.jpg,AFNE06.jpg,AFNE07.jpg,FN,3,num_2,32,num_4,1.05017199647,,,2017_Nov_17_1424,60.0000577234,FEMA4ImagesEEG,001,202264,
AFNE01.JPG,AFNE01.JPG,AFNE01.JPG,AFNE01.JPG,AFNE01.JPG,AFNE01.JPG,,,,,,,,,,,,,,,,,5,7,57,1,,,,,,,AFNE10.jpg,AFSA14.jpg,AFSA02.jpg,AFNE15.jpg,AFSA02.jpg,FS,4,num_2,32,num_6,0.666804905515,,,2017_Nov_17_1424,60.0000577234,FEMA4ImagesEEG,001,202264,
AFNE01.JPG,AFNE01.JPG,AFNE01.JPG,AFNE01.JPG,AFNE01.JPG,AFNE01.JPG,,,,,,,,,,,,,,,,,5,8,58,8,,,,,,,AFSA17.jpg,AFSA14.jpg,AFNE17.jpg,AFNE19.jpg,AFSA14.jpg,FS,4,num_6,32,num_2,1.08354462031,,,2017_Nov_17_1424,60.0000577234,FEMA4ImagesEEG,001,202264,
AFNE01.JPG,AFNE01.JPG,AFNE01.JPG,AFNE01.JPG,AFNE01.JPG,AFNE01.JPG,,,,,,,,,,,,,,,,,5,9,59,0,,,,,,,AFSA01.jpg,AFSA14.jpg,AFNE02.jpg,AFNE13.jpg,AFNE02.jpg,FN,3,num_2,32,num_8,0.983423862141,,,2017_Nov_17_1424,60.0000577234,FEMA4ImagesEEG,001,202264,
,,,,,,,,,,,,,,,,,,,,,,,,,,,,,,,,,,,,,,,,,,,space,8.91644415352,2017_Nov_17_1424,60.0000577234,FEMA4ImagesEEG,001,202264,
AFNE01.JPG,AFNE01.JPG,AFNE01.JPG,AFNE01.JPG,AFNE01.JPG,AFNE01.JPG,,,,,,,,,,,,,,,,,,,,,0,0,0,0,,,AMNE08.jpg,AMSA14.jpg,AMSA10.jpg,AMNE19.jpg,AMSA10.jpg,MS,2,num_2,32,num_8,0.50017817039,,,2017_Nov_17_1424,60.0000577234,FEMA4ImagesEEG,001,202264,
AFNE01.JPG,AFNE01.JPG,AFNE01.JPG,AFNE01.JPG,AFNE01.JPG,AFNE01.JPG,,,,,,,,,,,,,,,,,,,,,0,1,1,6,,,AMNE01.jpg,AMNE07.jpg,AMSA02.jpg,AMSA06.jpg,AMSA02.jpg,MS,2,num_2,32,num_8,0.816770506091,,,2017_Nov_17_1424,60.0000577234,FEMA4ImagesEEG,001,202264,
AFNE01.JPG,AFNE01.JPG,AFNE01.JPG,AFNE01.JPG,AFNE01.JPG,AFNE01.JPG,,,,,,,,,,,,,,,,,,,,,0,2,2,8,,,AMNE19.jpg,AMNE11.jpg,AMSA17.jpg,AMSA18.jpg,AMNE11.jpg,MN,1,num_6,32,num_8,1.2001074478,,,2017_Nov_17_1424,60.0000577234,FEMA4ImagesEEG,001,202264,
AFNE01.JPG,AFNE01.JPG,AFNE01.JPG,AFNE01.JPG,AFNE01.JPG,AFNE01.JPG,,,,,,,,,,,,,,,,,,,,,0,3,3,7,,,AMNE03.jpg,AMSA06.jpg,AMSA05.jpg,AMNE01.jpg,AMSA05.jpg,MS,2,num_2,32,num_4,2.21668583062,,,2017_Nov_17_1424,60.0000577234,FEMA4ImagesEEG,001,202264,
AFNE01.JPG,AFNE01.JPG,AFNE01.JPG,AFNE01.JPG,AFNE01.JPG,AFNE01.JPG,,,,,,,,,,,,,,,,,,,,,0,4,4,2,,,AMNE12.jpg,AMSA15.jpg,AMNE08.jpg,AMSA13.jpg,AMSA15.jpg,MS,2,num_6,32,num_8,0.883429795504,,,2017_Nov_17_1424,60.0000577234,FEMA4ImagesEEG,001,202264,
AFNE01.JPG,AFNE01.JPG,AFNE01.JPG,AFNE01.JPG,AFNE01.JPG,AFNE01.JPG,,,,,,,,,,,,,,,,,,,,,0,5,5,1,,,AMNE06.jpg,AMSA18.jpg,AMNE11.jpg,AMSA08.jpg,AMSA18.jpg,MS,2,num_6,32,num_2,1.9834222584,,,2017_Nov_17_1424,60.0000577234,FEMA4ImagesEEG,001,202264,
AFNE01.JPG,AFNE01.JPG,AFNE01.JPG,AFNE01.JPG,AFNE01.JPG,AFNE01.JPG,,,,,,,,,,,,,,,,,,,,,0,6,6,3,,,AMSA04.jpg,AMNE11.jpg,AMSA11.jpg,AMNE16.jpg,AMNE11.jpg,MN,1,num_6,32,num_8,1.40008980688,,,2017_Nov_17_1424,60.0000577234,FEMA4ImagesEEG,001,202264,
AFNE01.JPG,AFNE01.JPG,AFNE01.JPG,AFNE01.JPG,AFNE01.JPG,AFNE01.JPG,,,,,,,,,,,,,,,,,,,,,0,7,7,5,,,AMNE12.jpg,AMSA03.jpg,AMSA20.jpg,AMNE15.jpg,AMSA03.jpg,MS,2,num_6,32,num_4,0.666798811406,,,2017_Nov_17_1424,60.0000577234,FEMA4ImagesEEG,001,202264,
AFNE01.JPG,AFNE01.JPG,AFNE01.JPG,AFNE01.JPG,AFNE01.JPG,AFNE01.JPG,,,,,,,,,,,,,,,,,,,,,0,8,8,4,,,AMNE03.jpg,AMSA19.jpg,AMNE15.jpg,AMSA01.jpg,AMSA19.jpg,MS,2,num_6,32,num_2,0.3501564404,,,2017_Nov_17_1424,60.0000577234,FEMA4ImagesEEG,001,202264,
AFNE01.JPG,AFNE01.JPG,AFNE01.JPG,AFNE01.JPG,AFNE01.JPG,AFNE01.JPG,,,,,,,,,,,,,,,,,,,,,0,9,9,9,,,AMNE13.jpg,AMSA15.jpg,AMNE20.jpg,AMSA01.jpg,AMNE13.jpg,MN,1,num_8,16,num_8,0.350157402921,,,2017_Nov_17_1424,60.0000577234,FEMA4ImagesEEG,001,202264,
AFNE01.JPG,AFNE01.JPG,AFNE01.JPG,AFNE01.JPG,AFNE01.JPG,AFNE01.JPG,,,,,,,,,,,,,,,,,,,,,1,0,10,9,,,AMSA18.jpg,AMNE07.jpg,AMSA08.jpg,AMNE15.jpg,AMSA08.jpg,MS,2,num_2,32,num_4,0.366793840192,,,2017_Nov_17_1424,60.0000577234,FEMA4ImagesEEG,001,202264,
AFNE01.JPG,AFNE01.JPG,AFNE01.JPG,AFNE01.JPG,AFNE01.JPG,AFNE01.JPG,,,,,,,,,,,,,,,,,,,,,1,1,11,4,,,AMNE08.jpg,AMSA18.jpg,AMNE12.jpg,AMSA04.jpg,AMSA18.jpg,MS,2,num_6,32,num_8,0.55012244219,,,2017_Nov_17_1424,60.0000577234,FEMA4ImagesEEG,001,202264,
AFNE01.JPG,AFNE01.JPG,AFNE01.JPG,AFNE01.JPG,AFNE01.JPG,AFNE01.JPG,,,,,,,,,,,,,,,,,,,,,1,2,12,8,,,AMSA17.jpg,AMNE08.jpg,AMSA19.jpg,AMNE04.jpg,AMSA19.jpg,MS,2,num_2,16,num_2,0.916776439641,,,2017_Nov_17_1424,60.0000577234,FEMA4ImagesEEG,001,202264,
AFNE01.JPG,AFNE01.JPG,AFNE01.JPG,AFNE01.JPG,AFNE01.JPG,AFNE01.JPG,,,,,,,,,,,,,,,,,,,,,1,3,13,6,,,AMSA12.jpg,AMNE05.jpg,AMNE16.jpg,AMSA13.jpg,AMSA12.jpg,MS,2,num_8,16,num_8,0.366671638098,,,2017_Nov_17_1424,60.0000577234,FEMA4ImagesEEG,001,202264,
AFNE01.JPG,AFNE01.JPG,AFNE01.JPG,AFNE01.JPG,AFNE01.JPG,AFNE01.JPG,,,,,,,,,,,,,,,,,,,,,1,4,14,1,,,AMNE10.jpg,AMNE02.jpg,AMSA10.jpg,AMSA20.jpg,AMSA10.jpg,MS,2,num_2,16,num_2,0.58351431042,,,2017_Nov_17_1424,60.0000577234,FEMA4ImagesEEG,001,202264,
AFNE01.JPG,AFNE01.JPG,AFNE01.JPG,AFNE01.JPG,AFNE01.JPG,AFNE01.JPG,,,,,,,,,,,,,,,,,,,,,1,5,15,3,,,AMNE01.jpg,AMSA13.jpg,AMNE16.jpg,AMSA15.jpg,AMSA13.jpg,MS,2,num_6,32,num_8,1.13347734557,,,2017_Nov_17_1424,60.0000577234,FEMA4ImagesEEG,001,202264,
AFNE01.JPG,AFNE01.JPG,AFNE01.JPG,AFNE01.JPG,AFNE01.JPG,AFNE01.JPG,,,,,,,,,,,,,,,,,,,,,1,6,16,7,,,AMSA02.jpg,AMNE12.jpg,AMNE08.jpg,AMSA04.jpg,AMSA02.jpg,MS,2,num_8,16,num_8,3.34993929975,,,2017_Nov_17_1424,60.0000577234,FEMA4ImagesEEG,001,202264,
AFNE01.JPG,AFNE01.JPG,AFNE01.JPG,AFNE01.JPG,AFNE01.JPG,AFNE01.JPG,,,,,,,,,,,,,,,,,,,,,1,7,17,0,,,AMSA13.jpg,AMNE08.jpg,AMSA03.jpg,AMNE13.jpg,AMNE13.jpg,MN,1,num_4,32,num_6,0.65011554677,,,2017_Nov_17_1424,60.0000577234,FEMA4ImagesEEG,001,202264,
AFNE01.JPG,AFNE01.JPG,AFNE01.JPG,AFNE01.JPG,AFNE01.JPG,AFNE01.JPG,,,,,,,,,,,,,,,,,,,,,1,8,18,2,,,AMSA06.jpg,AMNE13.jpg,AMSA05.jpg,AMNE08.jpg,AMNE08.jpg,MN,1,num_4,32,num_2,1.58336869488,,,2017_Nov_17_1424,60.0000577234,FEMA4ImagesEEG,001,202264,
AFNE01.JPG,AFNE01.JPG,AFNE01.JPG,AFNE01.JPG,AFNE01.JPG,AFNE01.JPG,,,,,,,,,,,,,,,,,,,,,1,9,19,5,,,AMNE16.jpg,AMSA03.jpg,AMNE11.jpg,AMSA05.jpg,AMNE11.jpg,MN,1,num_2,32,num_6,0.833469487261,,,2017_Nov_17_1424,60.0000577234,FEMA4ImagesEEG,001,202264,
AFNE01.JPG,AFNE01.JPG,AFNE01.JPG,AFNE01.JPG,AFNE01.JPG,AFNE01.JPG,,,,,,,,,,,,,,,,,,,,,2,0,20,6,,,AMSA02.jpg,AMSA04.jpg,AMNE03.jpg,AMNE01.jpg,AMSA02.jpg,MS,2,num_8,32,num_6,0.783367091324,,,2017_Nov_17_1424,60.0000577234,FEMA4ImagesEEG,001,202264,
AFNE01.JPG,AFNE01.JPG,AFNE01.JPG,AFNE01.JPG,AFNE01.JPG,AFNE01.JPG,,,,,,,,,,,,,,,,,,,,,2,1,21,7,,,AMSA10.jpg,AMNE14.jpg,AMNE11.jpg,AMSA03.jpg,AMSA10.jpg,MS,2,num_8,32,num_6,0.78352361219,,,2017_Nov_17_1424,60.0000577234,FEMA4ImagesEEG,001,202264,
AFNE01.JPG,AFNE01.JPG,AFNE01.JPG,AFNE01.JPG,AFNE01.JPG,AFNE01.JPG,,,,,,,,,,,,,,,,,,,,,2,2,22,0,,,AMNE11.jpg,AMSA19.jpg,AMSA08.jpg,AMNE09.jpg,AMNE09.jpg,MN,1,num_4,16,num_4,0.83351856051,,,2017_Nov_17_1424,60.0000577234,FEMA4ImagesEEG,001,202264,
AFNE01.JPG,AFNE01.JPG,AFNE01.JPG,AFNE01.JPG,AFNE01.JPG,AFNE01.JPG,,,,,,,,,,,,,,,,,,,,,2,3,23,3,,,AMSA14.jpg,AMNE13.jpg,AMNE09.jpg,AMSA07.jpg,AMNE13.jpg,MN,1,num_6,32,num_2,1.63340598065,,,2017_Nov_17_1424,60.0000577234,FEMA4ImagesEEG,001,202264,
AFNE01.JPG,AFNE01.JPG,AFNE01.JPG,AFNE01.JPG,AFNE01.JPG,AFNE01.JPG,,,,,,,,,,,,,,,,,,,,,2,4,24,8,,,AMNE17.jpg,AMNE13.jpg,AMSA07.jpg,AMSA05.jpg,AMNE17.jpg,MN,1,num_8,16,num_8,4.04968832154,,,2017_Nov_17_1424,60.0000577234,FEMA4ImagesEEG,001,202264,
AFNE01.JPG,AFNE01.JPG,AFNE01.JPG,AFNE01.JPG,AFNE01.JPG,AFNE01.JPG,,,,,,,,,,,,,,,,,,,,,2,5,25,2,,,AMNE17.jpg,AMSA17.jpg,AMNE09.jpg,AMSA01.jpg,AMNE17.jpg,MN,1,num_8,16,num_8,1.33345008222,,,2017_Nov_17_1424,60.0000577234,FEMA4ImagesEEG,001,202264,
AFNE01.JPG,AFNE01.JPG,AFNE01.JPG,AFNE01.JPG,AFNE01.JPG,AFNE01.JPG,,,,,,,,,,,,,,,,,,,,,2,6,26,5,,,AMSA08.jpg,AMNE18.jpg,AMSA06.jpg,AMNE10.jpg,AMNE10.jpg,MN,1,num_4,16,num_4,0.833487448748,,,2017_Nov_17_1424,60.0000577234,FEMA4ImagesEEG,001,202264,
AFNE01.JPG,AFNE01.JPG,AFNE01.JPG,AFNE01.JPG,AFNE01.JPG,AFNE01.JPG,,,,,,,,,,,,,,,,,,,,,2,7,27,4,,,AMNE05.jpg,AMSA16.jpg,AMNE17.jpg,AMSA07.jpg,AMNE17.jpg,MN,1,num_2,16,num_2,0.816487614065,,,2017_Nov_17_1424,60.0000577234,FEMA4ImagesEEG,001,202264,
AFNE01.JPG,AFNE01.JPG,AFNE01.JPG,AFNE01.JPG,AFNE01.JPG,AFNE01.JPG,,,,,,,,,,,,,,,,,,,,,2,8,28,1,,,AMSA05.jpg,AMNE18.jpg,AMNE14.jpg,AMSA11.jpg,AMNE14.jpg,MN,1,num_2,32,num_8,0.766781651415,,,2017_Nov_17_1424,60.0000577234,FEMA4ImagesEEG,001,202264,
AFNE01.JPG,AFNE01.JPG,AFNE01.JPG,AFNE01.JPG,AFNE01.JPG,AFNE01.JPG,,,,,,,,,,,,,,,,,,,,,2,9,29,9,,,AMSA17.jpg,AMNE17.jpg,AMNE07.jpg,AMSA08.jpg,AMNE17.jpg,MN,1,num_6,32,num_4,0.683467643335,,,2017_Nov_17_1424,60.0000577234,FEMA4ImagesEEG,001,202264,
AFNE01.JPG,AFNE01.JPG,AFNE01.JPG,AFNE01.JPG,AFNE01.JPG,AFNE01.JPG,,,,,,,,,,,,,,,,,,,,,3,0,30,1,,,AMSA01.jpg,AMNE06.jpg,AMSA19.jpg,AMNE10.jpg,AMSA19.jpg,MS,2,num_2,32,num_6,1.1667976887,,,2017_Nov_17_1424,60.0000577234,FEMA4ImagesEEG,001,202264,
AFNE01.JPG,AFNE01.JPG,AFNE01.JPG,AFNE01.JPG,AFNE01.JPG,AFNE01.JPG,,,,,,,,,,,,,,,,,,,,,3,1,31,0,,,AMSA13.jpg,AMNE14.jpg,AMSA01.jpg,AMNE09.jpg,AMNE14.jpg,MN,1,num_6,32,num_8,0.000190519262105,,,2017_Nov_17_1424,60.0000577234,FEMA4ImagesEEG,001,202264,
AFNE01.JPG,AFNE01.JPG,AFNE01.JPG,AFNE01.JPG,AFNE01.JPG,AFNE01.JPG,,,,,,,,,,,,,,,,,,,,,3,2,32,5,,,AMSA11.jpg,AMSA09.jpg,AMNE06.jpg,AMNE13.jpg,AMSA09.jpg,MS,2,num_6,32,num_2,0.766778444406,,,2017_Nov_17_1424,60.0000577234,FEMA4ImagesEEG,001,202264,
AFNE01.JPG,AFNE01.JPG,AFNE01.JPG,AFNE01.JPG,AFNE01.JPG,AFNE01.JPG,,,,,,,,,,,,,,,,,,,,,3,3,33,7,,,AMSA20.jpg,AMNE05.jpg,AMNE17.jpg,AMSA15.jpg,AMSA15.jpg,MS,2,num_4,16,num_4,1.05014152639,,,2017_Nov_17_1424,60.0000577234,FEMA4ImagesEEG,001,202264,
AFNE01.JPG,AFNE01.JPG,AFNE01.JPG,AFNE01.JPG,AFNE01.JPG,AFNE01.JPG,,,,,,,,,,,,,,,,,,,,,3,4,34,3,,,AMSA03.jpg,AMNE12.jpg,AMSA13.jpg,AMNE11.jpg,AMSA13.jpg,MS,2,num_2,16,num_2,1.31671806518,,,2017_Nov_17_1424,60.0000577234,FEMA4ImagesEEG,001,202264,
AFNE01.JPG,AFNE01.JPG,AFNE01.JPG,AFNE01.JPG,AFNE01.JPG,AFNE01.JPG,,,,,,,,,,,,,,,,,,,,,3,5,35,2,,,AMNE20.jpg,AMSA15.jpg,AMSA18.jpg,AMNE07.jpg,AMSA15.jpg,MS,2,num_6,32,num_4,1.10014545545,,,2017_Nov_17_1424,60.0000577234,FEMA4ImagesEEG,001,202264,
AFNE01.JPG,AFNE01.JPG,AFNE01.JPG,AFNE01.JPG,AFNE01.JPG,AFNE01.JPG,,,,,,,,,,,,,,,,,,,,,3,6,36,6,,,AMSA10.jpg,AMSA12.jpg,AMNE08.jpg,AMNE09.jpg,AMSA12.jpg,MS,2,num_6,16,num_6,2.73335033283,,,2017_Nov_17_1424,60.0000577234,FEMA4ImagesEEG,001,202264,
AFNE01.JPG,AFNE01.JPG,AFNE01.JPG,AFNE01.JPG,AFNE01.JPG,AFNE01.JPG,,,,,,,,,,,,,,,,,,,,,3,7,37,4,,,AMSA05.jpg,AMNE13.jpg,AMNE17.jpg,AMSA04.jpg,AMSA04.jpg,MS,2,num_4,16,num_4,0.716807872057,,,2017_Nov_17_1424,60.0000577234,FEMA4ImagesEEG,001,202264,
AFNE01.JPG,AFNE01.JPG,AFNE01.JPG,AFNE01.JPG,AFNE01.JPG,AFNE01.JPG,,,,,,,,,,,,,,,,,,,,,3,8,38,8,,,AMSA03.jpg,AMNE08.jpg,AMNE19.jpg,AMSA08.jpg,AMNE08.jpg,MN,1,num_6,32,num_2,1.43310448574,,,2017_Nov_17_1424,60.0000577234,FEMA4ImagesEEG,001,202264,
