IPosition2,IPosition3,IPosition1,IPosition6,IPosition4,IPosition5,TrialsM1.thisRepN,TrialsM1.thisTrialN,TrialsM1.thisN,TrialsM1.thisIndex,TrialsF1.thisRepN,TrialsF1.thisTrialN,TrialsF1.thisN,TrialsF1.thisIndex,TrialsM2.thisRepN,TrialsM2.thisTrialN,TrialsM2.thisN,TrialsM2.thisIndex,TrialsF2.thisRepN,TrialsF2.thisTrialN,TrialsF2.thisN,TrialsF2.thisIndex,TrialsM3.thisRepN,TrialsM3.thisTrialN,TrialsM3.thisN,TrialsM3.thisIndex,TrialsF3.thisRepN,TrialsF3.thisTrialN,TrialsF3.thisN,TrialsF3.thisIndex,InstrKey_resp.keys,InstrKey_resp.rt,Image0 _Position,Image1 _Position,Image2 _Position,Image3 _Position,Center_image,condition,code,correct_answer,accuracy,Key_Resp.keys,Key_Resp.rt,BreakKey_resp.keys,BreakKey_resp.rt,date,frameRate,expName,session,participant,
,,,,,,,,,,,,,,,,,,,,,,,,,,,,,,space,12.8328783643,,,,,,,,,,,,,,2017_Nov_13_1450,59.9923225445,MAFE4ImagesEEG,001,202348,
AMSA21.JPG,AMNE22.JPG,AMNE21.JPG,AMSA23.JPG,AMSA22.JPG,AMNE23.JPG,0,0,0,1,,,,,,,,,,,,,,,,,,,,,,,AMNE16.jpg,AMSA09.jpg,AMSA16.jpg,AMNE12.jpg,AMSA16.jpg,MS,2,num_2,16,num_2,0.866784698796,,,2017_Nov_13_1450,59.9923225445,MAFE4ImagesEEG,001,202348,
AFNE23.JPG,AFNE24.JPG,AFNE22.JPG,AFSA24.JPG,AFSA22.JPG,AFSA23.JPG,0,1,1,8,,,,,,,,,,,,,,,,,,,,,,,AMNE20.jpg,AMSA10.jpg,AMNE14.jpg,AMSA04.jpg,AMNE20.jpg,MN,1,num_8,16,num_8,0.750090689398,,,2017_Nov_13_1450,59.9923225445,MAFE4ImagesEEG,001,202348,
AFSA21.JPG,AFNE23.JPG,AFNE21.JPG,AFSA25.JPG,AFNE25.JPG,AFSA23.JPG,0,2,2,4,,,,,,,,,,,,,,,,,,,,,,,AMSA14.jpg,AMSA10.jpg,AMNE12.jpg,AMNE02.jpg,AMNE02.jpg,MN,1,num_4,32,num_2,1.06677379366,,,2017_Nov_13_1450,59.9923225445,MAFE4ImagesEEG,001,202348,
AMNE22.JPG,AMSA24.JPG,AMSA22.JPG,AMNE25.JPG,AMNE24.JPG,AMSA25.JPG,0,3,3,7,,,,,,,,,,,,,,,,,,,,,,,AMSA03.jpg,AMNE13.jpg,AMSA18.jpg,AMNE12.jpg,AMNE13.jpg,MN,1,num_6,16,num_6,0.75012148032,,,2017_Nov_13_1450,59.9923225445,MAFE4ImagesEEG,001,202348,
AFNE22.JPG,AFSA24.JPG,AFSA22.JPG,AFNE25.JPG,AFNE24.JPG,AFSA25.JPG,0,4,4,6,,,,,,,,,,,,,,,,,,,,,,,AMNE20.jpg,AMNE09.jpg,AMSA17.jpg,AMSA06.jpg,AMNE20.jpg,MN,1,num_8,16,num_8,0.666811961681,,,2017_Nov_13_1450,59.9923225445,MAFE4ImagesEEG,001,202348,
AMNE23.JPG,AMNE24.JPG,AMNE22.JPG,AMSA24.JPG,AMSA22.JPG,AMSA23.JPG,0,5,5,9,,,,,,,,,,,,,,,,,,,,,,,AMNE08.jpg,AMSA08.jpg,AMNE07.jpg,AMSA07.jpg,AMNE08.jpg,MN,1,num_8,32,num_6,0.800152351148,,,2017_Nov_13_1450,59.9923225445,MAFE4ImagesEEG,001,202348,
AFSA25.JPG,AFNE24.JPG,AFSA24.JPG,AFNE21.JPG,AFSA21.JPG,AFNE25.JPG,0,6,6,2,,,,,,,,,,,,,,,,,,,,,,,AMSA05.jpg,AMNE15.jpg,AMSA02.jpg,AMNE01.jpg,AMSA02.jpg,MS,2,num_2,16,num_2,0.716873623896,,,2017_Nov_13_1450,59.9923225445,MAFE4ImagesEEG,001,202348,
AMSA25.JPG,AMNE24.JPG,AMSA24.JPG,AMNE26.JPG,AMSA21.JPG,AMNE25.JPG,0,7,7,3,,,,,,,,,,,,,,,,,,,,,,,AMNE09.jpg,AMSA20.jpg,AMNE05.jpg,AMSA15.jpg,AMNE09.jpg,MN,1,num_8,16,num_8,0.68344743643,,,2017_Nov_13_1450,59.9923225445,MAFE4ImagesEEG,001,202348,
AMSA21.JPG,AMNE23.JPG,AMNE21.JPG,AMSA25.JPG,AMNE25.JPG,AMSA23.JPG,0,8,8,5,,,,,,,,,,,,,,,,,,,,,,,AMSA17.jpg,AMNE17.jpg,AMNE05.jpg,AMSA10.jpg,AMSA10.jpg,MS,2,num_4,32,num_6,0.866814848036,,,2017_Nov_13_1450,59.9923225445,MAFE4ImagesEEG,001,202348,
AFSA21.JPG,AFNE22.JPG,AFNE21.JPG,AFSA23.JPG,AFSA22.JPG,AFNE23.JPG,0,9,9,0,,,,,,,,,,,,,,,,,,,,,,,AMNE04.jpg,AMSA20.jpg,AMNE16.jpg,AMSA03.jpg,AMNE04.jpg,MN,1,num_8,32,num_2,0.483475661371,,,2017_Nov_13_1450,59.9923225445,MAFE4ImagesEEG,001,202348,
AMSA21.JPG,AMNE23.JPG,AMNE21.JPG,AMSA25.JPG,AMNE25.JPG,AMSA23.JPG,,,,,0,0,0,5,,,,,,,,,,,,,,,,,,,AFNE18.jpg,AFSA11.jpg,AFSA19.jpg,AFNE16.jpg,AFSA19.jpg,FS,4,num_2,32,num_6,0.683475340717,,,2017_Nov_13_1450,59.9923225445,MAFE4ImagesEEG,001,202348,
AFNE22.JPG,AFSA24.JPG,AFSA22.JPG,AFNE25.JPG,AFNE24.JPG,AFSA25.JPG,,,,,0,1,1,6,,,,,,,,,,,,,,,,,,,AFSA19.jpg,AFNE03.jpg,AFNE12.jpg,AFSA05.jpg,AFSA05.jpg,FS,4,num_4,32,num_2,0.500149304047,,,2017_Nov_13_1450,59.9923225445,MAFE4ImagesEEG,001,202348,
AFSA21.JPG,AFNE22.JPG,AFNE21.JPG,AFSA23.JPG,AFSA22.JPG,AFNE23.JPG,,,,,0,2,2,0,,,,,,,,,,,,,,,,,,,AFNE09.jpg,AFNE18.jpg,AFSA06.jpg,AFSA20.jpg,AFNE18.jpg,FN,3,num_6,32,num_8,0.516780609265,,,2017_Nov_13_1450,59.9923225445,MAFE4ImagesEEG,001,202348,
AMNE23.JPG,AMNE24.JPG,AMNE22.JPG,AMSA24.JPG,AMSA22.JPG,AMSA23.JPG,,,,,0,3,3,9,,,,,,,,,,,,,,,,,,,AFSA07.jpg,AFSA04.jpg,AFNE10.jpg,AFNE07.jpg,AFNE10.jpg,FN,3,num_2,32,num_4,0.533509098459,,,2017_Nov_13_1450,59.9923225445,MAFE4ImagesEEG,001,202348,
AMSA25.JPG,AMNE24.JPG,AMSA24.JPG,AMNE26.JPG,AMSA21.JPG,AMNE25.JPG,,,,,0,4,4,3,,,,,,,,,,,,,,,,,,,AFNE07.jpg,AFSA02.jpg,AFNE18.jpg,AFSA03.jpg,AFSA02.jpg,FS,4,num_6,32,num_8,0.483512867708,,,2017_Nov_13_1450,59.9923225445,MAFE4ImagesEEG,001,202348,
AFSA21.JPG,AFNE23.JPG,AFNE21.JPG,AFSA25.JPG,AFNE25.JPG,AFSA23.JPG,,,,,0,5,5,4,,,,,,,,,,,,,,,,,,,AFSA01.jpg,AFNE08.jpg,AFSA12.jpg,AFNE01.jpg,AFSA12.jpg,FS,4,num_2,16,num_2,0.350048030727,,,2017_Nov_13_1450,59.9923225445,MAFE4ImagesEEG,001,202348,
AFSA25.JPG,AFNE24.JPG,AFSA24.JPG,AFNE21.JPG,AFSA21.JPG,AFNE25.JPG,,,,,0,6,6,2,,,,,,,,,,,,,,,,,,,AFNE20.jpg,AFSA18.jpg,AFSA14.jpg,AFNE11.jpg,AFNE20.jpg,FN,3,num_8,32,num_6,0.383473576512,,,2017_Nov_13_1450,59.9923225445,MAFE4ImagesEEG,001,202348,
AMSA21.JPG,AMNE22.JPG,AMNE21.JPG,AMSA23.JPG,AMSA22.JPG,AMNE23.JPG,,,,,0,7,7,1,,,,,,,,,,,,,,,,,,,AFNE15.jpg,AFNE16.jpg,AFSA20.jpg,AFSA17.jpg,AFSA17.jpg,FS,4,num_4,32,num_2,0.366927908733,,,2017_Nov_13_1450,59.9923225445,MAFE4ImagesEEG,001,202348,
AMNE22.JPG,AMSA24.JPG,AMSA22.JPG,AMNE25.JPG,AMNE24.JPG,AMSA25.JPG,,,,,0,8,8,7,,,,,,,,,,,,,,,,,,,AFSA17.jpg,AFSA03.jpg,AFNE05.jpg,AFNE18.jpg,AFNE05.jpg,FN,3,num_2,32,num_6,0.350159006659,,,2017_Nov_13_1450,59.9923225445,MAFE4ImagesEEG,001,202348,
AFNE23.JPG,AFNE24.JPG,AFNE22.JPG,AFSA24.JPG,AFSA22.JPG,AFSA23.JPG,,,,,0,9,9,8,,,,,,,,,,,,,,,,,,,AFSA14.jpg,AFSA07.jpg,AFNE01.jpg,AFNE18.jpg,AFNE01.jpg,FN,3,num_2,32,num_4,3.06634336105,,,2017_Nov_13_1450,59.9923225445,MAFE4ImagesEEG,001,202348,
AMNE23.JPG,AMNE24.JPG,AMNE22.JPG,AMSA24.JPG,AMSA22.JPG,AMSA23.JPG,,,,,,,,,0,0,0,9,,,,,,,,,,,,,,,AMNE01.jpg,AMSA06.jpg,AMNE10.jpg,AMSA16.jpg,AMSA16.jpg,MS,2,num_4,32,num_8,0.316813966259,,,2017_Nov_13_1450,59.9923225445,MAFE4ImagesEEG,001,202348,
AFNE22.JPG,AFSA24.JPG,AFSA22.JPG,AFNE25.JPG,AFNE24.JPG,AFSA25.JPG,,,,,,,,,0,1,1,6,,,,,,,,,,,,,,,AMNE12.jpg,AMNE14.jpg,AMSA06.jpg,AMSA01.jpg,AMSA06.jpg,MS,2,num_2,16,num_2,0.550167025067,,,2017_Nov_13_1450,59.9923225445,MAFE4ImagesEEG,001,202348,
AMNE22.JPG,AMSA24.JPG,AMSA22.JPG,AMNE25.JPG,AMNE24.JPG,AMSA25.JPG,,,,,,,,,0,2,2,7,,,,,,,,,,,,,,,AMNE09.jpg,AMSA05.jpg,AMNE06.jpg,AMSA08.jpg,AMNE09.jpg,MN,1,num_8,32,num_6,0.633487128187,,,2017_Nov_13_1450,59.9923225445,MAFE4ImagesEEG,001,202348,
AFSA25.JPG,AFNE24.JPG,AFSA24.JPG,AFNE21.JPG,AFSA21.JPG,AFNE25.JPG,,,,,,,,,0,3,3,2,,,,,,,,,,,,,,,AMSA12.jpg,AMNE03.jpg,AMSA03.jpg,AMNE05.jpg,AMNE05.jpg,MN,1,num_4,16,num_4,0.750332205556,,,2017_Nov_13_1450,59.9923225445,MAFE4ImagesEEG,001,202348,
AFSA21.JPG,AFNE23.JPG,AFNE21.JPG,AFSA25.JPG,AFNE25.JPG,AFSA23.JPG,,,,,,,,,0,4,4,4,,,,,,,,,,,,,,,AMSA14.jpg,AMNE13.jpg,AMSA04.jpg,AMNE12.jpg,AMNE13.jpg,MN,1,num_6,16,num_6,0.933497872669,,,2017_Nov_13_1450,59.9923225445,MAFE4ImagesEEG,001,202348,
AFSA21.JPG,AFNE22.JPG,AFNE21.JPG,AFSA23.JPG,AFSA22.JPG,AFNE23.JPG,,,,,,,,,0,5,5,0,,,,,,,,,,,,,,,AMSA17.jpg,AMSA03.jpg,AMNE18.jpg,AMNE08.jpg,AMSA17.jpg,MS,2,num_8,32,num_2,1.01679199561,,,2017_Nov_13_1450,59.9923225445,MAFE4ImagesEEG,001,202348,
AMSA21.JPG,AMNE23.JPG,AMNE21.JPG,AMSA25.JPG,AMNE25.JPG,AMSA23.JPG,,,,,,,,,0,6,6,5,,,,,,,,,,,,,,,AMSA02.jpg,AMSA16.jpg,AMNE08.jpg,AMNE17.jpg,AMSA02.jpg,MS,2,num_8,16,num_8,0.766831366345,,,2017_Nov_13_1450,59.9923225445,MAFE4ImagesEEG,001,202348,
AFNE23.JPG,AFNE24.JPG,AFNE22.JPG,AFSA24.JPG,AFSA22.JPG,AFSA23.JPG,,,,,,,,,0,7,7,8,,,,,,,,,,,,,,,AMNE14.jpg,AMSA16.jpg,AMSA01.jpg,AMNE09.jpg,AMSA01.jpg,MS,2,num_2,16,num_2,0.400178331416,,,2017_Nov_13_1450,59.9923225445,MAFE4ImagesEEG,001,202348,
AMSA25.JPG,AMNE24.JPG,AMSA24.JPG,AMNE26.JPG,AMSA21.JPG,AMNE25.JPG,,,,,,,,,0,8,8,3,,,,,,,,,,,,,,,AMSA08.jpg,AMNE18.jpg,AMSA18.jpg,AMNE01.jpg,AMNE01.jpg,MN,1,num_4,16,num_4,0.683471812401,,,2017_Nov_13_1450,59.9923225445,MAFE4ImagesEEG,001,202348,
AMSA21.JPG,AMNE22.JPG,AMNE21.JPG,AMSA23.JPG,AMSA22.JPG,AMNE23.JPG,,,,,,,,,0,9,9,1,,,,,,,,,,,,,,,AMSA03.jpg,AMSA06.jpg,AMNE18.jpg,AMNE03.jpg,AMNE03.jpg,MN,1,num_4,32,num_8,1.06680073589,,,2017_Nov_13_1450,59.9923225445,MAFE4ImagesEEG,001,202348,
AFSA21.JPG,AFNE23.JPG,AFNE21.JPG,AFSA25.JPG,AFNE25.JPG,AFSA23.JPG,,,,,,,,,,,,,0,0,0,4,,,,,,,,,,,AFSA04.jpg,AFNE19.jpg,AFNE10.jpg,AFSA06.jpg,AFNE10.jpg,FN,3,num_2,16,num_2,0.450127093121,,,2017_Nov_13_1450,59.9923225445,MAFE4ImagesEEG,001,202348,
AMSA21.JPG,AMNE23.JPG,AMNE21.JPG,AMSA25.JPG,AMNE25.JPG,AMSA23.JPG,,,,,,,,,,,,,0,1,1,5,,,,,,,,,,,AFNE18.jpg,AFSA11.jpg,AFSA20.jpg,AFNE06.jpg,AFNE18.jpg,FN,3,num_8,32,num_2,1.13343404559,,,2017_Nov_13_1450,59.9923225445,MAFE4ImagesEEG,001,202348,
AFNE22.JPG,AFSA24.JPG,AFSA22.JPG,AFNE25.JPG,AFNE24.JPG,AFSA25.JPG,,,,,,,,,,,,,0,2,2,6,,,,,,,,,,,AFSA11.jpg,AFNE15.jpg,AFNE18.jpg,AFSA07.jpg,AFSA11.jpg,FS,4,num_8,16,num_8,0.616681019776,,,2017_Nov_13_1450,59.9923225445,MAFE4ImagesEEG,001,202348,
AFNE23.JPG,AFNE24.JPG,AFNE22.JPG,AFSA24.JPG,AFSA22.JPG,AFSA23.JPG,,,,,,,,,,,,,0,3,3,8,,,,,,,,,,,AFSA14.jpg,AFNE08.jpg,AFSA11.jpg,AFNE03.jpg,AFNE08.jpg,FN,3,num_6,32,num_2,0.983478708658,,,2017_Nov_13_1450,59.9923225445,MAFE4ImagesEEG,001,202348,
AMSA25.JPG,AMNE24.JPG,AMSA24.JPG,AMNE26.JPG,AMSA21.JPG,AMNE25.JPG,,,,,,,,,,,,,0,4,4,3,,,,,,,,,,,AFNE03.jpg,AFSA08.jpg,AFNE13.jpg,AFSA12.jpg,AFNE03.jpg,FN,3,num_8,32,num_6,1.23340213206,,,2017_Nov_13_1450,59.9923225445,MAFE4ImagesEEG,001,202348,
AMSA21.JPG,AMNE22.JPG,AMNE21.JPG,AMSA23.JPG,AMSA22.JPG,AMNE23.JPG,,,,,,,,,,,,,0,5,5,1,,,,,,,,,,,AFNE10.jpg,AFNE06.jpg,AFSA14.jpg,AFSA19.jpg,AFNE06.jpg,FN,3,num_6,32,num_8,0.583501801826,,,2017_Nov_13_1450,59.9923225445,MAFE4ImagesEEG,001,202348,
AFSA21.JPG,AFNE22.JPG,AFNE21.JPG,AFSA23.JPG,AFSA22.JPG,AFNE23.JPG,,,,,,,,,,,,,0,6,6,0,,,,,,,,,,,AFSA01.jpg,AFSA02.jpg,AFNE12.jpg,AFNE02.jpg,AFNE02.jpg,FN,3,num_4,16,num_4,0.416445276234,,,2017_Nov_13_1450,59.9923225445,MAFE4ImagesEEG,001,202348,
AFSA25.JPG,AFNE24.JPG,AFSA24.JPG,AFNE21.JPG,AFSA21.JPG,AFNE25.JPG,,,,,,,,,,,,,0,7,7,2,,,,,,,,,,,AFSA16.jpg,AFNE02.jpg,AFNE09.jpg,AFSA15.jpg,AFSA16.jpg,FS,4,num_8,32,num_2,0.600116749294,,,2017_Nov_13_1450,59.9923225445,MAFE4ImagesEEG,001,202348,
AMNE22.JPG,AMSA24.JPG,AMSA22.JPG,AMNE25.JPG,AMNE24.JPG,AMSA25.JPG,,,,,,,,,,,,,0,8,8,7,,,,,,,,,,,AFNE18.jpg,AFNE15.jpg,AFSA04.jpg,AFSA19.jpg,AFNE18.jpg,FN,3,num_8,16,num_8,1.10013390891,,,2017_Nov_13_1450,59.9923225445,MAFE4ImagesEEG,001,202348,
AMNE23.JPG,AMNE24.JPG,AMNE22.JPG,AMSA24.JPG,AMSA22.JPG,AMSA23.JPG,,,,,,,,,,,,,0,9,9,9,,,,,,,,,,,AFNE03.jpg,AFSA12.jpg,AFSA09.jpg,AFNE07.jpg,AFSA12.jpg,FS,4,num_6,16,num_6,0.950183703564,,,2017_Nov_13_1450,59.9923225445,MAFE4ImagesEEG,001,202348,
AMNE22.JPG,AMSA24.JPG,AMSA22.JPG,AMNE25.JPG,AMNE24.JPG,AMSA25.JPG,,,,,,,,,,,,,,,,,0,0,0,7,,,,,,,AMNE14.jpg,AMSA19.jpg,AMSA04.jpg,AMNE07.jpg,AMSA19.jpg,MS,2,num_6,32,num_8,0.400186029263,,,2017_Nov_13_1450,59.9923225445,MAFE4ImagesEEG,001,202348,
AFSA25.JPG,AFNE24.JPG,AFSA24.JPG,AFNE21.JPG,AFSA21.JPG,AFNE25.JPG,,,,,,,,,,,,,,,,,0,1,1,2,,,,,,,AMNE19.jpg,AMSA15.jpg,AMNE03.jpg,AMSA04.jpg,AMSA15.jpg,MS,2,num_6,32,num_2,4.13321465999,,,2017_Nov_13_1450,59.9923225445,MAFE4ImagesEEG,001,202348,
AMSA25.JPG,AMNE24.JPG,AMSA24.JPG,AMNE26.JPG,AMSA21.JPG,AMNE25.JPG,,,,,,,,,,,,,,,,,0,2,2,3,,,,,,,AMSA17.jpg,AMNE11.jpg,AMNE14.jpg,AMSA08.jpg,AMNE14.jpg,MN,1,num_2,32,num_6,0.566804424394,,,2017_Nov_13_1450,59.9923225445,MAFE4ImagesEEG,001,202348,
AFSA21.JPG,AFNE23.JPG,AFNE21.JPG,AFSA25.JPG,AFNE25.JPG,AFSA23.JPG,,,,,,,,,,,,,,,,,0,3,3,4,,,,,,,AMSA09.jpg,AMNE02.jpg,AMNE10.jpg,AMSA04.jpg,AMSA09.jpg,MS,2,num_8,32,num_2,0.683469567448,,,2017_Nov_13_1450,59.9923225445,MAFE4ImagesEEG,001,202348,
AFSA21.JPG,AFNE22.JPG,AFNE21.JPG,AFSA23.JPG,AFSA22.JPG,AFNE23.JPG,,,,,,,,,,,,,,,,,0,4,4,0,,,,,,,AMSA12.jpg,AMNE08.jpg,AMSA18.jpg,AMNE02.jpg,AMSA18.jpg,MS,2,num_2,32,num_8,0.383528423496,,,2017_Nov_13_1450,59.9923225445,MAFE4ImagesEEG,001,202348,
AFNE22.JPG,AFSA24.JPG,AFSA22.JPG,AFNE25.JPG,AFNE24.JPG,AFSA25.JPG,,,,,,,,,,,,,,,,,0,5,5,6,,,,,,,AMSA04.jpg,AMSA05.jpg,AMNE11.jpg,AMNE04.jpg,AMNE11.jpg,MN,1,num_2,32,num_8,0.716777722817,,,2017_Nov_13_1450,59.9923225445,MAFE4ImagesEEG,001,202348,
AMNE23.JPG,AMNE24.JPG,AMNE22.JPG,AMSA24.JPG,AMSA22.JPG,AMSA23.JPG,,,,,,,,,,,,,,,,,0,6,6,9,,,,,,,AMNE17.jpg,AMSA20.jpg,AMNE10.jpg,AMSA09.jpg,AMNE17.jpg,MN,1,num_8,32,num_2,0.483476944733,,,2017_Nov_13_1450,59.9923225445,MAFE4ImagesEEG,001,202348,
AMSA21.JPG,AMNE22.JPG,AMNE21.JPG,AMSA23.JPG,AMSA22.JPG,AMNE23.JPG,,,,,,,,,,,,,,,,,0,7,7,1,,,,,,,AMSA05.jpg,AMNE10.jpg,AMNE01.jpg,AMSA03.jpg,AMSA03.jpg,MS,2,num_4,32,num_6,0.40018089721,,,2017_Nov_13_1450,59.9923225445,MAFE4ImagesEEG,001,202348,
AMSA21.JPG,AMNE23.JPG,AMNE21.JPG,AMSA25.JPG,AMNE25.JPG,AMSA23.JPG,,,,,,,,,,,,,,,,,0,8,8,5,,,,,,,AMSA10.jpg,AMNE02.jpg,AMNE19.jpg,AMSA16.jpg,AMNE19.jpg,MN,1,num_2,32,num_8,0.366677411366,,,2017_Nov_13_1450,59.9923225445,MAFE4ImagesEEG,001,202348,
AFNE23.JPG,AFNE24.JPG,AFNE22.JPG,AFSA24.JPG,AFSA22.JPG,AFSA23.JPG,,,,,,,,,,,,,,,,,0,9,9,8,,,,,,,AMNE13.jpg,AMNE07.jpg,AMSA15.jpg,AMSA11.jpg,AMNE07.jpg,MN,1,num_6,32,num_4,0.683518961072,,,2017_Nov_13_1450,59.9923225445,MAFE4ImagesEEG,001,202348,
AMSA25.JPG,AMNE24.JPG,AMSA24.JPG,AMNE26.JPG,AMSA21.JPG,AMNE25.JPG,,,,,,,,,,,,,,,,,,,,,0,0,0,3,,,AFSA17.jpg,AFNE17.jpg,AFNE11.jpg,AFSA04.jpg,AFNE11.jpg,FN,3,num_2,32,num_6,0.483459945302,,,2017_Nov_13_1450,59.9923225445,MAFE4ImagesEEG,001,202348,
AFSA21.JPG,AFNE23.JPG,AFNE21.JPG,AFSA25.JPG,AFNE25.JPG,AFSA23.JPG,,,,,,,,,,,,,,,,,,,,,0,1,1,4,,,AFSA17.jpg,AFSA15.jpg,AFNE15.jpg,AFNE05.jpg,AFNE15.jpg,FN,3,num_2,16,num_2,0.733422178309,,,2017_Nov_13_1450,59.9923225445,MAFE4ImagesEEG,001,202348,
AMNE22.JPG,AMSA24.JPG,AMSA22.JPG,AMNE25.JPG,AMNE24.JPG,AMSA25.JPG,,,,,,,,,,,,,,,,,,,,,0,2,2,7,,,AFSA06.jpg,AFNE04.jpg,AFNE06.jpg,AFSA18.jpg,AFNE04.jpg,FN,3,num_6,32,num_4,0.833496750332,,,2017_Nov_13_1450,59.9923225445,MAFE4ImagesEEG,001,202348,
AMSA21.JPG,AMNE22.JPG,AMNE21.JPG,AMSA23.JPG,AMSA22.JPG,AMNE23.JPG,,,,,,,,,,,,,,,,,,,,,0,3,3,1,,,AFSA03.jpg,AFNE10.jpg,AFNE05.jpg,AFSA12.jpg,AFSA12.jpg,FS,4,num_4,32,num_6,0.333482477348,,,2017_Nov_13_1450,59.9923225445,MAFE4ImagesEEG,001,202348,
AFSA25.JPG,AFNE24.JPG,AFSA24.JPG,AFNE21.JPG,AFSA21.JPG,AFNE25.JPG,,,,,,,,,,,,,,,,,,,,,0,4,4,2,,,AFNE20.jpg,AFNE05.jpg,AFSA15.jpg,AFSA13.jpg,AFNE20.jpg,FN,3,num_8,32,num_2,0.516879076604,,,2017_Nov_13_1450,59.9923225445,MAFE4ImagesEEG,001,202348,
AFSA21.JPG,AFNE22.JPG,AFNE21.JPG,AFSA23.JPG,AFSA22.JPG,AFNE23.JPG,,,,,,,,,,,,,,,,,,,,,0,5,5,0,,,AFNE01.jpg,AFNE11.jpg,AFSA03.jpg,AFSA12.jpg,AFSA12.jpg,FS,4,num_4,16,num_4,0.616753186099,,,2017_Nov_13_1450,59.9923225445,MAFE4ImagesEEG,001,202348,
AMNE23.JPG,AMNE24.JPG,AMNE22.JPG,AMSA24.JPG,AMSA22.JPG,AMSA23.JPG,,,,,,,,,,,,,,,,,,,,,0,6,6,9,,,AFSA12.jpg,AFSA06.jpg,AFNE05.jpg,AFNE02.jpg,AFNE05.jpg,FN,3,num_2,32,num_6,0.833471090533,,,2017_Nov_13_1450,59.9923225445,MAFE4ImagesEEG,001,202348,
AFNE23.JPG,AFNE24.JPG,AFNE22.JPG,AFSA24.JPG,AFSA22.JPG,AFSA23.JPG,,,,,,,,,,,,,,,,,,,,,0,7,7,8,,,AFNE19.jpg,AFSA19.jpg,AFNE12.jpg,AFSA04.jpg,AFNE12.jpg,FN,3,num_2,16,num_2,0.466834734194,,,2017_Nov_13_1450,59.9923225445,MAFE4ImagesEEG,001,202348,
AFNE22.JPG,AFSA24.JPG,AFSA22.JPG,AFNE25.JPG,AFNE24.JPG,AFSA25.JPG,,,,,,,,,,,,,,,,,,,,,0,8,8,6,,,AFNE06.jpg,AFSA20.jpg,AFNE17.jpg,AFSA02.jpg,AFNE06.jpg,FN,3,num_8,32,num_4,0.616876029409,,,2017_Nov_13_1450,59.9923225445,MAFE4ImagesEEG,001,202348,
AMSA21.JPG,AMNE23.JPG,AMNE21.JPG,AMSA25.JPG,AMNE25.JPG,AMSA23.JPG,,,,,,,,,,,,,,,,,,,,,0,9,9,5,,,AFSA08.jpg,AFSA14.jpg,AFNE14.jpg,AFNE09.jpg,AFNE09.jpg,FN,3,num_4,32,num_8,0.350151629653,,,2017_Nov_13_1450,59.9923225445,MAFE4ImagesEEG,001,202348,
,,,,,,,,,,,,,,,,,,,,,,,,,,,,,,,,,,,,,,,,,,,space,8.26613808796,2017_Nov_13_1450,59.9923225445,MAFE4ImagesEEG,001,202348,
AFNE01.JPG,AFNE01.JPG,AFNE01.JPG,AFNE01.JPG,AFNE01.JPG,AFNE01.JPG,0,0,0,2,,,,,,,,,,,,,,,,,,,,,,,AMSA19.jpg,AMNE17.jpg,AMNE12.jpg,AMSA10.jpg,AMSA19.jpg,MS,2,num_8,32,num_6,0.433488731273,,,2017_Nov_13_1450,59.9923225445,MAFE4ImagesEEG,001,202348,
AFNE01.JPG,AFNE01.JPG,AFNE01.JPG,AFNE01.JPG,AFNE01.JPG,AFNE01.JPG,0,1,1,9,,,,,,,,,,,,,,,,,,,,,,,AMNE12.jpg,AMNE01.jpg,AMSA04.jpg,AMSA10.jpg,AMNE12.jpg,MN,1,num_8,32,num_4,0.583479670808,,,2017_Nov_13_1450,59.9923225445,MAFE4ImagesEEG,001,202348,
AFNE01.JPG,AFNE01.JPG,AFNE01.JPG,AFNE01.JPG,AFNE01.JPG,AFNE01.JPG,0,2,2,0,,,,,,,,,,,,,,,,,,,,,,,AMSA10.jpg,AMNE12.jpg,AMSA14.jpg,AMNE19.jpg,AMSA14.jpg,MS,2,num_2,16,num_2,0.666817734949,,,2017_Nov_13_1450,59.9923225445,MAFE4ImagesEEG,001,202348,
AFNE01.JPG,AFNE01.JPG,AFNE01.JPG,AFNE01.JPG,AFNE01.JPG,AFNE01.JPG,0,3,3,1,,,,,,,,,,,,,,,,,,,,,,,AMNE11.jpg,AMNE04.jpg,AMSA19.jpg,AMSA08.jpg,AMNE11.jpg,MN,1,num_8,16,num_8,0.500204471406,,,2017_Nov_13_1450,59.9923225445,MAFE4ImagesEEG,001,202348,
AFNE01.JPG,AFNE01.JPG,AFNE01.JPG,AFNE01.JPG,AFNE01.JPG,AFNE01.JPG,0,4,4,4,,,,,,,,,,,,,,,,,,,,,,,AMSA18.jpg,AMSA20.jpg,AMNE05.jpg,AMNE04.jpg,AMSA18.jpg,MS,2,num_8,32,num_2,0.516785099637,,,2017_Nov_13_1450,59.9923225445,MAFE4ImagesEEG,001,202348,
AFNE01.JPG,AFNE01.JPG,AFNE01.JPG,AFNE01.JPG,AFNE01.JPG,AFNE01.JPG,0,5,5,5,,,,,,,,,,,,,,,,,,,,,,,AMNE18.jpg,AMSA08.jpg,AMNE17.jpg,AMSA09.jpg,AMNE17.jpg,MN,1,num_2,32,num_6,0.300199981313,,,2017_Nov_13_1450,59.9923225445,MAFE4ImagesEEG,001,202348,
AFNE01.JPG,AFNE01.JPG,AFNE01.JPG,AFNE01.JPG,AFNE01.JPG,AFNE01.JPG,0,6,6,3,,,,,,,,,,,,,,,,,,,,,,,AMSA07.jpg,AMNE01.jpg,AMSA09.jpg,AMNE03.jpg,AMNE03.jpg,MN,1,num_4,32,num_6,0.600040733814,,,2017_Nov_13_1450,59.9923225445,MAFE4ImagesEEG,001,202348,
AFNE01.JPG,AFNE01.JPG,AFNE01.JPG,AFNE01.JPG,AFNE01.JPG,AFNE01.JPG,0,7,7,6,,,,,,,,,,,,,,,,,,,,,,,AMNE04.jpg,AMNE03.jpg,AMSA03.jpg,AMSA15.jpg,AMSA03.jpg,MS,2,num_2,32,num_8,0.466796887107,,,2017_Nov_13_1450,59.9923225445,MAFE4ImagesEEG,001,202348,
AFNE01.JPG,AFNE01.JPG,AFNE01.JPG,AFNE01.JPG,AFNE01.JPG,AFNE01.JPG,0,8,8,7,,,,,,,,,,,,,,,,,,,,,,,AMSA11.jpg,AMNE09.jpg,AMSA03.jpg,AMNE13.jpg,AMSA03.jpg,MS,2,num_2,32,num_6,0.850161091425,,,2017_Nov_13_1450,59.9923225445,MAFE4ImagesEEG,001,202348,
AFNE01.JPG,AFNE01.JPG,AFNE01.JPG,AFNE01.JPG,AFNE01.JPG,AFNE01.JPG,0,9,9,8,,,,,,,,,,,,,,,,,,,,,,,AMSA20.jpg,AMNE09.jpg,AMSA01.jpg,AMNE13.jpg,AMNE09.jpg,MN,1,num_6,32,num_2,1.00013503153,,,2017_Nov_13_1450,59.9923225445,MAFE4ImagesEEG,001,202348,
AFNE01.JPG,AFNE01.JPG,AFNE01.JPG,AFNE01.JPG,AFNE01.JPG,AFNE01.JPG,1,0,10,3,,,,,,,,,,,,,,,,,,,,,,,AMNE02.jpg,AMSA12.jpg,AMSA17.jpg,AMNE05.jpg,AMSA12.jpg,MS,2,num_6,32,num_8,0.600182821508,,,2017_Nov_13_1450,59.9923225445,MAFE4ImagesEEG,001,202348,
AFNE01.JPG,AFNE01.JPG,AFNE01.JPG,AFNE01.JPG,AFNE01.JPG,AFNE01.JPG,1,1,11,7,,,,,,,,,,,,,,,,,,,,,,,AMSA10.jpg,AMNE15.jpg,AMSA03.jpg,AMNE17.jpg,AMSA03.jpg,MS,2,num_2,16,num_2,0.783429314382,,,2017_Nov_13_1450,59.9923225445,MAFE4ImagesEEG,001,202348,
AFNE01.JPG,AFNE01.JPG,AFNE01.JPG,AFNE01.JPG,AFNE01.JPG,AFNE01.JPG,1,2,12,5,,,,,,,,,,,,,,,,,,,,,,,AMSA13.jpg,AMNE12.jpg,AMNE18.jpg,AMSA08.jpg,AMSA13.jpg,MS,2,num_8,32,num_4,0.366796726827,,,2017_Nov_13_1450,59.9923225445,MAFE4ImagesEEG,001,202348,
AFNE01.JPG,AFNE01.JPG,AFNE01.JPG,AFNE01.JPG,AFNE01.JPG,AFNE01.JPG,1,3,13,8,,,,,,,,,,,,,,,,,,,,,,,AMNE08.jpg,AMSA15.jpg,AMNE09.jpg,AMSA04.jpg,AMSA15.jpg,MS,2,num_6,16,num_6,0.700201905333,,,2017_Nov_13_1450,59.9923225445,MAFE4ImagesEEG,001,202348,
AFNE01.JPG,AFNE01.JPG,AFNE01.JPG,AFNE01.JPG,AFNE01.JPG,AFNE01.JPG,1,4,14,6,,,,,,,,,,,,,,,,,,,,,,,AMSA03.jpg,AMSA18.jpg,AMNE03.jpg,AMNE02.jpg,AMNE03.jpg,MN,1,num_2,16,num_2,0.55012917798,,,2017_Nov_13_1450,59.9923225445,MAFE4ImagesEEG,001,202348,
AFNE01.JPG,AFNE01.JPG,AFNE01.JPG,AFNE01.JPG,AFNE01.JPG,AFNE01.JPG,1,5,15,4,,,,,,,,,,,,,,,,,,,,,,,AMNE20.jpg,AMNE18.jpg,AMSA02.jpg,AMSA18.jpg,AMSA18.jpg,MS,2,num_4,32,num_8,0.666794000193,,,2017_Nov_13_1450,59.9923225445,MAFE4ImagesEEG,001,202348,
AFNE01.JPG,AFNE01.JPG,AFNE01.JPG,AFNE01.JPG,AFNE01.JPG,AFNE01.JPG,1,6,16,2,,,,,,,,,,,,,,,,,,,,,,,AMNE08.jpg,AMSA20.jpg,AMSA14.jpg,AMNE02.jpg,AMSA20.jpg,MS,2,num_6,16,num_6,1.46672247536,,,2017_Nov_13_1450,59.9923225445,MAFE4ImagesEEG,001,202348,
AFNE01.JPG,AFNE01.JPG,AFNE01.JPG,AFNE01.JPG,AFNE01.JPG,AFNE01.JPG,1,7,17,0,,,,,,,,,,,,,,,,,,,,,,,AMSA19.jpg,AMNE02.jpg,AMSA08.jpg,AMNE15.jpg,AMSA08.jpg,MS,2,num_2,16,num_2,0.450219145045,,,2017_Nov_13_1450,59.9923225445,MAFE4ImagesEEG,001,202348,
AFNE01.JPG,AFNE01.JPG,AFNE01.JPG,AFNE01.JPG,AFNE01.JPG,AFNE01.JPG,1,8,18,9,,,,,,,,,,,,,,,,,,,,,,,AMNE04.jpg,AMSA10.jpg,AMNE05.jpg,AMSA04.jpg,AMSA10.jpg,MS,2,num_6,32,num_8,0.616770826746,,,2017_Nov_13_1450,59.9923225445,MAFE4ImagesEEG,001,202348,
AFNE01.JPG,AFNE01.JPG,AFNE01.JPG,AFNE01.JPG,AFNE01.JPG,AFNE01.JPG,1,9,19,1,,,,,,,,,,,,,,,,,,,,,,,AMSA04.jpg,AMNE14.jpg,AMNE08.jpg,AMSA09.jpg,AMSA04.jpg,MS,2,num_8,32,num_2,0.717066388112,,,2017_Nov_13_1450,59.9923225445,MAFE4ImagesEEG,001,202348,
AFNE01.JPG,AFNE01.JPG,AFNE01.JPG,AFNE01.JPG,AFNE01.JPG,AFNE01.JPG,2,0,20,2,,,,,,,,,,,,,,,,,,,,,,,AMSA03.jpg,AMSA17.jpg,AMNE06.jpg,AMNE13.jpg,AMSA17.jpg,MS,2,num_6,16,num_6,0.500150586944,,,2017_Nov_13_1450,59.9923225445,MAFE4ImagesEEG,001,202348,
AFNE01.JPG,AFNE01.JPG,AFNE01.JPG,AFNE01.JPG,AFNE01.JPG,AFNE01.JPG,2,1,21,3,,,,,,,,,,,,,,,,,,,,,,,AMSA14.jpg,AMNE04.jpg,AMNE17.jpg,AMSA17.jpg,AMNE04.jpg,MN,1,num_6,32,num_4,0.866755511146,,,2017_Nov_13_1450,59.9923225445,MAFE4ImagesEEG,001,202348,
AFNE01.JPG,AFNE01.JPG,AFNE01.JPG,AFNE01.JPG,AFNE01.JPG,AFNE01.JPG,2,2,22,5,,,,,,,,,,,,,,,,,,,,,,,AMSA14.jpg,AMNE19.jpg,AMNE02.jpg,AMSA18.jpg,AMNE19.jpg,MN,1,num_6,32,num_8,0.950130460784,,,2017_Nov_13_1450,59.9923225445,MAFE4ImagesEEG,001,202348,
AFNE01.JPG,AFNE01.JPG,AFNE01.JPG,AFNE01.JPG,AFNE01.JPG,AFNE01.JPG,2,3,23,1,,,,,,,,,,,,,,,,,,,,,,,AMSA14.jpg,AMNE02.jpg,AMSA13.jpg,AMNE01.jpg,AMNE01.jpg,MN,1,num_4,16,num_4,0.483549110591,,,2017_Nov_13_1450,59.9923225445,MAFE4ImagesEEG,001,202348,
AFNE01.JPG,AFNE01.JPG,AFNE01.JPG,AFNE01.JPG,AFNE01.JPG,AFNE01.JPG,2,4,24,0,,,,,,,,,,,,,,,,,,,,,,,AMSA18.jpg,AMNE02.jpg,AMNE07.jpg,AMSA04.jpg,AMNE07.jpg,MN,1,num_2,16,num_2,1.1166327484,,,2017_Nov_13_1450,59.9923225445,MAFE4ImagesEEG,001,202348,
AFNE01.JPG,AFNE01.JPG,AFNE01.JPG,AFNE01.JPG,AFNE01.JPG,AFNE01.JPG,2,5,25,7,,,,,,,,,,,,,,,,,,,,,,,AMNE15.jpg,AMNE09.jpg,AMSA20.jpg,AMSA07.jpg,AMSA07.jpg,MS,2,num_4,32,num_6,4.16650068387,,,2017_Nov_13_1450,59.9923225445,MAFE4ImagesEEG,001,202348,
AFNE01.JPG,AFNE01.JPG,AFNE01.JPG,AFNE01.JPG,AFNE01.JPG,AFNE01.JPG,2,6,26,6,,,,,,,,,,,,,,,,,,,,,,,AMNE06.jpg,AMSA11.jpg,AMNE05.jpg,AMSA01.jpg,AMSA01.jpg,MS,2,num_4,16,num_4,0.683534035925,,,2017_Nov_13_1450,59.9923225445,MAFE4ImagesEEG,001,202348,
AFNE01.JPG,AFNE01.JPG,AFNE01.JPG,AFNE01.JPG,AFNE01.JPG,AFNE01.JPG,2,7,27,9,,,,,,,,,,,,,,,,,,,,,,,AMSA06.jpg,AMNE19.jpg,AMNE09.jpg,AMSA10.jpg,AMSA10.jpg,MS,2,num_4,32,num_8,0.350218343548,,,2017_Nov_13_1450,59.9923225445,MAFE4ImagesEEG,001,202348,
AFNE01.JPG,AFNE01.JPG,AFNE01.JPG,AFNE01.JPG,AFNE01.JPG,AFNE01.JPG,2,8,28,8,,,,,,,,,,,,,,,,,,,,,,,AMSA06.jpg,AMNE15.jpg,AMSA08.jpg,AMNE09.jpg,AMSA08.jpg,MS,2,num_2,16,num_2,1.23347686417,,,2017_Nov_13_1450,59.9923225445,MAFE4ImagesEEG,001,202348,
AFNE01.JPG,AFNE01.JPG,AFNE01.JPG,AFNE01.JPG,AFNE01.JPG,AFNE01.JPG,2,9,29,4,,,,,,,,,,,,,,,,,,,,,,,AMNE15.jpg,AMNE18.jpg,AMSA05.jpg,AMSA15.jpg,AMSA05.jpg,MS,2,num_2,32,num_6,0.350183062255,,,2017_Nov_13_1450,59.9923225445,MAFE4ImagesEEG,001,202348,
AFNE01.JPG,AFNE01.JPG,AFNE01.JPG,AFNE01.JPG,AFNE01.JPG,AFNE01.JPG,3,0,30,7,,,,,,,,,,,,,,,,,,,,,,,AMNE19.jpg,AMNE12.jpg,AMSA06.jpg,AMSA10.jpg,AMSA10.jpg,MS,2,num_4,16,num_4,0.867051233537,,,2017_Nov_13_1450,59.9923225445,MAFE4ImagesEEG,001,202348,
AFNE01.JPG,AFNE01.JPG,AFNE01.JPG,AFNE01.JPG,AFNE01.JPG,AFNE01.JPG,3,1,31,1,,,,,,,,,,,,,,,,,,,,,,,AMNE20.jpg,AMSA14.jpg,AMNE16.jpg,AMSA05.jpg,AMNE20.jpg,MN,1,num_8,32,num_2,0.766796085052,,,2017_Nov_13_1450,59.9923225445,MAFE4ImagesEEG,001,202348,
AFNE01.JPG,AFNE01.JPG,AFNE01.JPG,AFNE01.JPG,AFNE01.JPG,AFNE01.JPG,3,2,32,4,,,,,,,,,,,,,,,,,,,,,,,AMNE12.jpg,AMNE20.jpg,AMSA04.jpg,AMSA13.jpg,AMSA04.jpg,MS,2,num_2,16,num_2,0.466796886642,,,2017_Nov_13_1450,59.9923225445,MAFE4ImagesEEG,001,202348,
AFNE01.JPG,AFNE01.JPG,AFNE01.JPG,AFNE01.JPG,AFNE01.JPG,AFNE01.JPG,3,3,33,3,,,,,,,,,,,,,,,,,,,,,,,AMNE17.jpg,AMSA19.jpg,AMNE12.jpg,AMSA20.jpg,AMSA20.jpg,MS,2,num_4,32,num_6,0.583526499104,,,2017_Nov_13_1450,59.9923225445,MAFE4ImagesEEG,001,202348,
AFNE01.JPG,AFNE01.JPG,AFNE01.JPG,AFNE01.JPG,AFNE01.JPG,AFNE01.JPG,3,4,34,6,,,,,,,,,,,,,,,,,,,,,,,AMNE05.jpg,AMSA18.jpg,AMNE02.jpg,AMSA16.jpg,AMSA16.jpg,MS,2,num_4,16,num_4,0.550181458704,,,2017_Nov_13_1450,59.9923225445,MAFE4ImagesEEG,001,202348,
AFNE01.JPG,AFNE01.JPG,AFNE01.JPG,AFNE01.JPG,AFNE01.JPG,AFNE01.JPG,3,5,35,2,,,,,,,,,,,,,,,,,,,,,,,AMNE19.jpg,AMSA06.jpg,AMSA08.jpg,AMNE11.jpg,AMSA06.jpg,MS,2,num_6,32,num_2,0.816791675054,,,2017_Nov_13_1450,59.9923225445,MAFE4ImagesEEG,001,202348,
AFNE01.JPG,AFNE01.JPG,AFNE01.JPG,AFNE01.JPG,AFNE01.JPG,AFNE01.JPG,3,6,36,8,,,,,,,,,,,,,,,,,,,,,,,AMNE05.jpg,AMNE10.jpg,AMSA16.jpg,AMSA17.jpg,AMSA17.jpg,MS,2,num_4,32,num_6,0.416824069805,,,2017_Nov_13_1450,59.9923225445,MAFE4ImagesEEG,001,202348,
AFNE01.JPG,AFNE01.JPG,AFNE01.JPG,AFNE01.JPG,AFNE01.JPG,AFNE01.JPG,3,7,37,9,,,,,,,,,,,,,,,,,,,,,,,AMSA08.jpg,AMNE08.jpg,AMNE14.jpg,AMSA19.jpg,AMSA19.jpg,MS,2,num_4,32,num_8,0.6835273006,,,2017_Nov_13_1450,59.9923225445,MAFE4ImagesEEG,001,202348,
AFNE01.JPG,AFNE01.JPG,AFNE01.JPG,AFNE01.JPG,AFNE01.JPG,AFNE01.JPG,3,8,38,0,,,,,,,,,,,,,,,,,,,,,,,AMNE19.jpg,AMNE07.jpg,AMSA19.jpg,AMSA15.jpg,AMNE07.jpg,MN,1,num_6,16,num_6,0.383510141168,,,2017_Nov_13_1450,59.9923225445,MAFE4ImagesEEG,001,202348,
AFNE01.JPG,AFNE01.JPG,AFNE01.JPG,AFNE01.JPG,AFNE01.JPG,AFNE01.JPG,3,9,39,5,,,,,,,,,,,,,,,,,,,,,,,AMSA04.jpg,AMSA06.jpg,AMNE09.jpg,AMNE11.jpg,AMSA06.jpg,MS,2,num_6,32,num_2,0.316833852325,,,2017_Nov_13_1450,59.9923225445,MAFE4ImagesEEG,001,202348,
AFNE01.JPG,AFNE01.JPG,AFNE01.JPG,AFNE01.JPG,AFNE01.JPG,AFNE01.JPG,4,0,40,3,,,,,,,,,,,,,,,,,,,,,,,AMNE17.jpg,AMSA19.jpg,AMSA12.jpg,AMNE08.jpg,AMSA12.jpg,MS,2,num_2,32,num_8,0.350183383096,,,2017_Nov_13_1450,59.9923225445,MAFE4ImagesEEG,001,202348,
AFNE01.JPG,AFNE01.JPG,AFNE01.JPG,AFNE01.JPG,AFNE01.JPG,AFNE01.JPG,4,1,41,0,,,,,,,,,,,,,,,,,,,,,,,AMNE03.jpg,AMSA07.jpg,AMNE07.jpg,AMSA09.jpg,AMSA07.jpg,MS,2,num_6,32,num_4,0.450184184592,,,2017_Nov_13_1450,59.9923225445,MAFE4ImagesEEG,001,202348,
AFNE01.JPG,AFNE01.JPG,AFNE01.JPG,AFNE01.JPG,AFNE01.JPG,AFNE01.JPG,4,2,42,5,,,,,,,,,,,,,,,,,,,,,,,AMNE06.jpg,AMNE16.jpg,AMSA10.jpg,AMSA07.jpg,AMNE06.jpg,MN,1,num_8,32,num_2,0.533486326225,,,2017_Nov_13_1450,59.9923225445,MAFE4ImagesEEG,001,202348,
AFNE01.JPG,AFNE01.JPG,AFNE01.JPG,AFNE01.JPG,AFNE01.JPG,AFNE01.JPG,4,3,43,4,,,,,,,,,,,,,,,,,,,,,,,AMNE08.jpg,AMSA03.jpg,AMNE09.jpg,AMSA09.jpg,AMNE09.jpg,MN,1,num_2,16,num_2,1.26675326657,,,2017_Nov_13_1450,59.9923225445,MAFE4ImagesEEG,001,202348,
AFNE01.JPG,AFNE01.JPG,AFNE01.JPG,AFNE01.JPG,AFNE01.JPG,AFNE01.JPG,4,4,44,1,,,,,,,,,,,,,,,,,,,,,,,AMNE16.jpg,AMNE20.jpg,AMSA04.jpg,AMSA01.jpg,AMSA04.jpg,MS,2,num_2,32,num_8,0.433484561741,,,2017_Nov_13_1450,59.9923225445,MAFE4ImagesEEG,001,202348,
AFNE01.JPG,AFNE01.JPG,AFNE01.JPG,AFNE01.JPG,AFNE01.JPG,AFNE01.JPG,4,5,45,7,,,,,,,,,,,,,,,,,,,,,,,AMSA12.jpg,AMNE11.jpg,AMNE10.jpg,AMSA15.jpg,AMNE11.jpg,MN,1,num_6,16,num_6,0.383529705927,,,2017_Nov_13_1450,59.9923225445,MAFE4ImagesEEG,001,202348,
AFNE01.JPG,AFNE01.JPG,AFNE01.JPG,AFNE01.JPG,AFNE01.JPG,AFNE01.JPG,4,6,46,2,,,,,,,,,,,,,,,,,,,,,,,AMSA20.jpg,AMNE02.jpg,AMNE09.jpg,AMSA14.jpg,AMNE09.jpg,MN,1,num_2,16,num_2,0.733439498115,,,2017_Nov_13_1450,59.9923225445,MAFE4ImagesEEG,001,202348,
AFNE01.JPG,AFNE01.JPG,AFNE01.JPG,AFNE01.JPG,AFNE01.JPG,AFNE01.JPG,4,7,47,6,,,,,,,,,,,,,,,,,,,,,,,AMNE17.jpg,AMSA02.jpg,AMNE07.jpg,AMSA06.jpg,AMSA02.jpg,MS,2,num_6,16,num_6,0.933450723998,,,2017_Nov_13_1450,59.9923225445,MAFE4ImagesEEG,001,202348,
AFNE01.JPG,AFNE01.JPG,AFNE01.JPG,AFNE01.JPG,AFNE01.JPG,AFNE01.JPG,4,8,48,9,,,,,,,,,,,,,,,,,,,,,,,AMNE09.jpg,AMSA15.jpg,AMNE17.jpg,AMSA13.jpg,AMSA15.jpg,MS,2,num_6,32,num_8,0.466768340673,,,2017_Nov_13_1450,59.9923225445,MAFE4ImagesEEG,001,202348,
AFNE01.JPG,AFNE01.JPG,AFNE01.JPG,AFNE01.JPG,AFNE01.JPG,AFNE01.JPG,4,9,49,8,,,,,,,,,,,,,,,,,,,,,,,AMSA10.jpg,AMSA06.jpg,AMNE19.jpg,AMNE13.jpg,AMNE13.jpg,MN,1,num_4,16,num_4,0.350145215169,,,2017_Nov_13_1450,59.9923225445,MAFE4ImagesEEG,001,202348,
AFNE01.JPG,AFNE01.JPG,AFNE01.JPG,AFNE01.JPG,AFNE01.JPG,AFNE01.JPG,5,0,50,7,,,,,,,,,,,,,,,,,,,,,,,AMSA10.jpg,AMSA15.jpg,AMNE10.jpg,AMNE19.jpg,AMSA10.jpg,MS,2,num_8,16,num_8,1.11673217779,,,2017_Nov_13_1450,59.9923225445,MAFE4ImagesEEG,001,202348,
AFNE01.JPG,AFNE01.JPG,AFNE01.JPG,AFNE01.JPG,AFNE01.JPG,AFNE01.JPG,5,1,51,0,,,,,,,,,,,,,,,,,,,,,,,AMSA09.jpg,AMNE04.jpg,AMNE09.jpg,AMSA12.jpg,AMNE04.jpg,MN,1,num_6,32,num_2,0.533474138007,,,2017_Nov_13_1450,59.9923225445,MAFE4ImagesEEG,001,202348,
AFNE01.JPG,AFNE01.JPG,AFNE01.JPG,AFNE01.JPG,AFNE01.JPG,AFNE01.JPG,5,2,52,6,,,,,,,,,,,,,,,,,,,,,,,AMNE13.jpg,AMSA02.jpg,AMNE19.jpg,AMSA09.jpg,AMNE19.jpg,MN,1,num_2,32,num_6,0.516875548288,,,2017_Nov_13_1450,59.9923225445,MAFE4ImagesEEG,001,202348,
AFNE01.JPG,AFNE01.JPG,AFNE01.JPG,AFNE01.JPG,AFNE01.JPG,AFNE01.JPG,5,3,53,3,,,,,,,,,,,,,,,,,,,,,,,AMSA02.jpg,AMNE15.jpg,AMSA12.jpg,AMNE11.jpg,AMNE15.jpg,MN,1,num_6,32,num_8,0.966741879936,,,2017_Nov_13_1450,59.9923225445,MAFE4ImagesEEG,001,202348,
AFNE01.JPG,AFNE01.JPG,AFNE01.JPG,AFNE01.JPG,AFNE01.JPG,AFNE01.JPG,5,4,54,4,,,,,,,,,,,,,,,,,,,,,,,AMNE03.jpg,AMSA03.jpg,AMNE06.jpg,AMSA20.jpg,AMSA03.jpg,MS,2,num_6,32,num_2,0.466794641688,,,2017_Nov_13_1450,59.9923225445,MAFE4ImagesEEG,001,202348,
AFNE01.JPG,AFNE01.JPG,AFNE01.JPG,AFNE01.JPG,AFNE01.JPG,AFNE01.JPG,5,5,55,2,,,,,,,,,,,,,,,,,,,,,,,AMSA09.jpg,AMNE10.jpg,AMNE08.jpg,AMSA18.jpg,AMNE10.jpg,MN,1,num_6,32,num_8,0.583355544601,,,2017_Nov_13_1450,59.9923225445,MAFE4ImagesEEG,001,202348,
AFNE01.JPG,AFNE01.JPG,AFNE01.JPG,AFNE01.JPG,AFNE01.JPG,AFNE01.JPG,5,6,56,9,,,,,,,,,,,,,,,,,,,,,,,AMNE09.jpg,AMSA12.jpg,AMNE03.jpg,AMSA01.jpg,AMSA12.jpg,MS,2,num_6,16,num_6,0.433521767613,,,2017_Nov_13_1450,59.9923225445,MAFE4ImagesEEG,001,202348,
AFNE01.JPG,AFNE01.JPG,AFNE01.JPG,AFNE01.JPG,AFNE01.JPG,AFNE01.JPG,5,7,57,8,,,,,,,,,,,,,,,,,,,,,,,AMSA02.jpg,AMNE05.jpg,AMNE14.jpg,AMSA08.jpg,AMNE05.jpg,MN,1,num_6,32,num_4,1.15007850109,,,2017_Nov_13_1450,59.9923225445,MAFE4ImagesEEG,001,202348,
AFNE01.JPG,AFNE01.JPG,AFNE01.JPG,AFNE01.JPG,AFNE01.JPG,AFNE01.JPG,5,8,58,1,,,,,,,,,,,,,,,,,,,,,,,AMNE03.jpg,AMSA14.jpg,AMSA17.jpg,AMNE19.jpg,AMSA14.jpg,MS,2,num_6,16,num_6,0.733493703417,,,2017_Nov_13_1450,59.9923225445,MAFE4ImagesEEG,001,202348,
AFNE01.JPG,AFNE01.JPG,AFNE01.JPG,AFNE01.JPG,AFNE01.JPG,AFNE01.JPG,5,9,59,5,,,,,,,,,,,,,,,,,,,,,,,AMNE10.jpg,AMSA16.jpg,AMSA08.jpg,AMNE01.jpg,AMSA16.jpg,MS,2,num_6,32,num_8,0.366701787338,,,2017_Nov_13_1450,59.9923225445,MAFE4ImagesEEG,001,202348,
,,,,,,,,,,,,,,,,,,,,,,,,,,,,,,,,,,,,,,,,,,,space,26.2978072641,2017_Nov_13_1450,59.9923225445,MAFE4ImagesEEG,001,202348,
AFNE01.JPG,AFNE01.JPG,AFNE01.JPG,AFNE01.JPG,AFNE01.JPG,AFNE01.JPG,,,,,0,0,0,1,,,,,,,,,,,,,,,,,,,AFNE19.jpg,AFSA10.jpg,AFNE09.jpg,AFSA13.jpg,AFSA13.jpg,FS,4,num_4,32,num_8,0.4668292813,,,2017_Nov_13_1450,59.9923225445,MAFE4ImagesEEG,001,202348,
AFNE01.JPG,AFNE01.JPG,AFNE01.JPG,AFNE01.JPG,AFNE01.JPG,AFNE01.JPG,,,,,0,1,1,7,,,,,,,,,,,,,,,,,,,AFSA19.jpg,AFSA17.jpg,AFNE11.jpg,AFNE17.jpg,AFNE17.jpg,FN,3,num_4,32,num_6,0.416643493343,,,2017_Nov_13_1450,59.9923225445,MAFE4ImagesEEG,001,202348,
AFNE01.JPG,AFNE01.JPG,AFNE01.JPG,AFNE01.JPG,AFNE01.JPG,AFNE01.JPG,,,,,0,2,2,5,,,,,,,,,,,,,,,,,,,AFNE14.jpg,AFSA09.jpg,AFSA03.jpg,AFNE16.jpg,AFSA09.jpg,FS,4,num_6,32,num_2,0.33350685332,,,2017_Nov_13_1450,59.9923225445,MAFE4ImagesEEG,001,202348,
AFNE01.JPG,AFNE01.JPG,AFNE01.JPG,AFNE01.JPG,AFNE01.JPG,AFNE01.JPG,,,,,0,3,3,6,,,,,,,,,,,,,,,,,,,AFSA04.jpg,AFNE19.jpg,AFNE11.jpg,AFSA11.jpg,AFSA04.jpg,FS,4,num_8,16,num_8,0.650152431335,,,2017_Nov_13_1450,59.9923225445,MAFE4ImagesEEG,001,202348,
AFNE01.JPG,AFNE01.JPG,AFNE01.JPG,AFNE01.JPG,AFNE01.JPG,AFNE01.JPG,,,,,0,4,4,4,,,,,,,,,,,,,,,,,,,AFNE14.jpg,AFSA07.jpg,AFSA10.jpg,AFNE05.jpg,AFNE05.jpg,FN,3,num_4,16,num_4,0.266830243636,,,2017_Nov_13_1450,59.9923225445,MAFE4ImagesEEG,001,202348,
AFNE01.JPG,AFNE01.JPG,AFNE01.JPG,AFNE01.JPG,AFNE01.JPG,AFNE01.JPG,,,,,0,5,5,3,,,,,,,,,,,,,,,,,,,AFNE08.jpg,AFNE07.jpg,AFSA17.jpg,AFSA07.jpg,AFSA17.jpg,FS,4,num_2,16,num_2,0.350178250577,,,2017_Nov_13_1450,59.9923225445,MAFE4ImagesEEG,001,202348,
AFNE01.JPG,AFNE01.JPG,AFNE01.JPG,AFNE01.JPG,AFNE01.JPG,AFNE01.JPG,,,,,0,6,6,9,,,,,,,,,,,,,,,,,,,AFSA11.jpg,AFNE09.jpg,AFNE04.jpg,AFSA06.jpg,AFNE09.jpg,FN,3,num_6,16,num_6,0.650164940394,,,2017_Nov_13_1450,59.9923225445,MAFE4ImagesEEG,001,202348,
AFNE01.JPG,AFNE01.JPG,AFNE01.JPG,AFNE01.JPG,AFNE01.JPG,AFNE01.JPG,,,,,0,7,7,8,,,,,,,,,,,,,,,,,,,AFSA05.jpg,AFSA07.jpg,AFNE15.jpg,AFNE04.jpg,AFNE15.jpg,FN,3,num_2,16,num_2,0.533456818201,,,2017_Nov_13_1450,59.9923225445,MAFE4ImagesEEG,001,202348,
AFNE01.JPG,AFNE01.JPG,AFNE01.JPG,AFNE01.JPG,AFNE01.JPG,AFNE01.JPG,,,,,0,8,8,0,,,,,,,,,,,,,,,,,,,AFNE19.jpg,AFSA01.jpg,AFSA08.jpg,AFNE05.jpg,AFNE19.jpg,FN,3,num_8,32,num_4,0.350044823252,,,2017_Nov_13_1450,59.9923225445,MAFE4ImagesEEG,001,202348,
AFNE01.JPG,AFNE01.JPG,AFNE01.JPG,AFNE01.JPG,AFNE01.JPG,AFNE01.JPG,,,,,0,9,9,2,,,,,,,,,,,,,,,,,,,AFSA03.jpg,AFNE05.jpg,AFSA20.jpg,AFNE04.jpg,AFSA03.jpg,FS,4,num_8,16,num_8,0.733450724278,,,2017_Nov_13_1450,59.9923225445,MAFE4ImagesEEG,001,202348,
AFNE01.JPG,AFNE01.JPG,AFNE01.JPG,AFNE01.JPG,AFNE01.JPG,AFNE01.JPG,,,,,1,0,10,0,,,,,,,,,,,,,,,,,,,AFSA15.jpg,AFNE10.jpg,AFSA11.jpg,AFNE03.jpg,AFSA15.jpg,FS,4,num_8,32,num_6,0.800165181048,,,2017_Nov_13_1450,59.9923225445,MAFE4ImagesEEG,001,202348,
AFNE01.JPG,AFNE01.JPG,AFNE01.JPG,AFNE01.JPG,AFNE01.JPG,AFNE01.JPG,,,,,1,1,11,5,,,,,,,,,,,,,,,,,,,AFSA11.jpg,AFSA18.jpg,AFNE14.jpg,AFNE16.jpg,AFNE16.jpg,FN,3,num_4,32,num_8,1.43341175374,,,2017_Nov_13_1450,59.9923225445,MAFE4ImagesEEG,001,202348,
AFNE01.JPG,AFNE01.JPG,AFNE01.JPG,AFNE01.JPG,AFNE01.JPG,AFNE01.JPG,,,,,1,2,12,8,,,,,,,,,,,,,,,,,,,AFSA10.jpg,AFSA02.jpg,AFNE06.jpg,AFNE15.jpg,AFNE06.jpg,FN,3,num_2,32,num_6,0.583497632295,,,2017_Nov_13_1450,59.9923225445,MAFE4ImagesEEG,001,202348,
AFNE01.JPG,AFNE01.JPG,AFNE01.JPG,AFNE01.JPG,AFNE01.JPG,AFNE01.JPG,,,,,1,3,13,2,,,,,,,,,,,,,,,,,,,AFNE08.jpg,AFSA12.jpg,AFSA19.jpg,AFNE10.jpg,AFSA12.jpg,FS,4,num_6,32,num_8,0.333498514257,,,2017_Nov_13_1450,59.9923225445,MAFE4ImagesEEG,001,202348,
AFNE01.JPG,AFNE01.JPG,AFNE01.JPG,AFNE01.JPG,AFNE01.JPG,AFNE01.JPG,,,,,1,4,14,1,,,,,,,,,,,,,,,,,,,AFSA14.jpg,AFNE11.jpg,AFSA19.jpg,AFNE19.jpg,AFSA14.jpg,FS,4,num_8,32,num_2,0.516797287855,,,2017_Nov_13_1450,59.9923225445,MAFE4ImagesEEG,001,202348,
AFNE01.JPG,AFNE01.JPG,AFNE01.JPG,AFNE01.JPG,AFNE01.JPG,AFNE01.JPG,,,,,1,5,15,7,,,,,,,,,,,,,,,,,,,AFNE13.jpg,AFNE02.jpg,AFSA13.jpg,AFSA08.jpg,AFNE02.jpg,FN,3,num_6,32,num_4,0.500005613081,,,2017_Nov_13_1450,59.9923225445,MAFE4ImagesEEG,001,202348,
AFNE01.JPG,AFNE01.JPG,AFNE01.JPG,AFNE01.JPG,AFNE01.JPG,AFNE01.JPG,,,,,1,6,16,9,,,,,,,,,,,,,,,,,,,AFNE12.jpg,AFSA05.jpg,AFNE03.jpg,AFSA13.jpg,AFSA05.jpg,FS,4,num_6,32,num_2,0.950122121256,,,2017_Nov_13_1450,59.9923225445,MAFE4ImagesEEG,001,202348,
AFNE01.JPG,AFNE01.JPG,AFNE01.JPG,AFNE01.JPG,AFNE01.JPG,AFNE01.JPG,,,,,1,7,17,6,,,,,,,,,,,,,,,,,,,AFSA19.jpg,AFNE08.jpg,AFNE07.jpg,AFSA13.jpg,AFNE08.jpg,FN,3,num_6,16,num_6,0.350176968146,,,2017_Nov_13_1450,59.9923225445,MAFE4ImagesEEG,001,202348,
AFNE01.JPG,AFNE01.JPG,AFNE01.JPG,AFNE01.JPG,AFNE01.JPG,AFNE01.JPG,,,,,1,8,18,4,,,,,,,,,,,,,,,,,,,AFSA12.jpg,AFNE02.jpg,AFSA08.jpg,AFNE18.jpg,AFNE18.jpg,FN,3,num_4,32,num_2,0.800144653302,,,2017_Nov_13_1450,59.9923225445,MAFE4ImagesEEG,001,202348,
AFNE01.JPG,AFNE01.JPG,AFNE01.JPG,AFNE01.JPG,AFNE01.JPG,AFNE01.JPG,,,,,1,9,19,3,,,,,,,,,,,,,,,,,,,AFSA06.jpg,AFNE07.jpg,AFSA10.jpg,AFNE04.jpg,AFSA10.jpg,FS,4,num_2,32,num_8,0.316803702619,,,2017_Nov_13_1450,59.9923225445,MAFE4ImagesEEG,001,202348,
AFNE01.JPG,AFNE01.JPG,AFNE01.JPG,AFNE01.JPG,AFNE01.JPG,AFNE01.JPG,,,,,2,0,20,8,,,,,,,,,,,,,,,,,,,AFSA06.jpg,AFNE20.jpg,AFNE17.jpg,AFSA08.jpg,AFNE20.jpg,FN,3,num_6,16,num_6,0.400176406372,,,2017_Nov_13_1450,59.9923225445,MAFE4ImagesEEG,001,202348,
AFNE01.JPG,AFNE01.JPG,AFNE01.JPG,AFNE01.JPG,AFNE01.JPG,AFNE01.JPG,,,,,2,1,21,5,,,,,,,,,,,,,,,,,,,AFSA15.jpg,AFNE14.jpg,AFSA19.jpg,AFNE20.jpg,AFNE20.jpg,FN,3,num_4,32,num_2,0.350180496462,,,2017_Nov_13_1450,59.9923225445,MAFE4ImagesEEG,001,202348,
AFNE01.JPG,AFNE01.JPG,AFNE01.JPG,AFNE01.JPG,AFNE01.JPG,AFNE01.JPG,,,,,2,2,22,3,,,,,,,,,,,,,,,,,,,AFNE08.jpg,AFSA20.jpg,AFNE10.jpg,AFSA12.jpg,AFNE08.jpg,FN,3,num_8,16,num_8,0.30014545517,,,2017_Nov_13_1450,59.9923225445,MAFE4ImagesEEG,001,202348,
AFNE01.JPG,AFNE01.JPG,AFNE01.JPG,AFNE01.JPG,AFNE01.JPG,AFNE01.JPG,,,,,2,3,23,0,,,,,,,,,,,,,,,,,,,AFSA02.jpg,AFNE17.jpg,AFSA01.jpg,AFNE01.jpg,AFSA01.jpg,FS,4,num_2,32,num_4,0.433514390606,,,2017_Nov_13_1450,59.9923225445,MAFE4ImagesEEG,001,202348,
AFNE01.JPG,AFNE01.JPG,AFNE01.JPG,AFNE01.JPG,AFNE01.JPG,AFNE01.JPG,,,,,2,4,24,4,,,,,,,,,,,,,,,,,,,AFSA05.jpg,AFSA03.jpg,AFNE08.jpg,AFNE05.jpg,AFSA05.jpg,FS,4,num_8,16,num_8,0.350130460691,,,2017_Nov_13_1450,59.9923225445,MAFE4ImagesEEG,001,202348,
AFNE01.JPG,AFNE01.JPG,AFNE01.JPG,AFNE01.JPG,AFNE01.JPG,AFNE01.JPG,,,,,2,5,25,9,,,,,,,,,,,,,,,,,,,AFSA15.jpg,AFSA02.jpg,AFNE07.jpg,AFNE10.jpg,AFNE07.jpg,FN,3,num_2,16,num_2,0.766766256187,,,2017_Nov_13_1450,59.9923225445,MAFE4ImagesEEG,001,202348,
AFNE01.JPG,AFNE01.JPG,AFNE01.JPG,AFNE01.JPG,AFNE01.JPG,AFNE01.JPG,,,,,2,6,26,1,,,,,,,,,,,,,,,,,,,AFNE17.jpg,AFNE03.jpg,AFSA05.jpg,AFSA18.jpg,AFNE17.jpg,FN,3,num_8,32,num_6,0.400015716441,,,2017_Nov_13_1450,59.9923225445,MAFE4ImagesEEG,001,202348,
AFNE01.JPG,AFNE01.JPG,AFNE01.JPG,AFNE01.JPG,AFNE01.JPG,AFNE01.JPG,,,,,2,7,27,2,,,,,,,,,,,,,,,,,,,AFSA04.jpg,AFNE16.jpg,AFNE15.jpg,AFSA17.jpg,AFSA17.jpg,FS,4,num_4,32,num_6,0.883495547343,,,2017_Nov_13_1450,59.9923225445,MAFE4ImagesEEG,001,202348,
AFNE01.JPG,AFNE01.JPG,AFNE01.JPG,AFNE01.JPG,AFNE01.JPG,AFNE01.JPG,,,,,2,8,28,7,,,,,,,,,,,,,,,,,,,AFNE04.jpg,AFNE09.jpg,AFSA14.jpg,AFSA07.jpg,AFSA14.jpg,FS,4,num_2,32,num_4,0.616783014964,,,2017_Nov_13_1450,59.9923225445,MAFE4ImagesEEG,001,202348,
AFNE01.JPG,AFNE01.JPG,AFNE01.JPG,AFNE01.JPG,AFNE01.JPG,AFNE01.JPG,,,,,2,9,29,6,,,,,,,,,,,,,,,,,,,AFSA09.jpg,AFNE16.jpg,AFSA05.jpg,AFNE04.jpg,AFNE04.jpg,FN,3,num_4,32,num_2,0.600152671803,,,2017_Nov_13_1450,59.9923225445,MAFE4ImagesEEG,001,202348,
AFNE01.JPG,AFNE01.JPG,AFNE01.JPG,AFNE01.JPG,AFNE01.JPG,AFNE01.JPG,,,,,3,0,30,1,,,,,,,,,,,,,,,,,,,AFSA17.jpg,AFNE07.jpg,AFSA08.jpg,AFNE08.jpg,AFNE07.jpg,FN,3,num_6,16,num_6,0.766806669068,,,2017_Nov_13_1450,59.9923225445,MAFE4ImagesEEG,001,202348,
AFNE01.JPG,AFNE01.JPG,AFNE01.JPG,AFNE01.JPG,AFNE01.JPG,AFNE01.JPG,,,,,3,1,31,3,,,,,,,,,,,,,,,,,,,AFNE07.jpg,AFSA16.jpg,AFSA12.jpg,AFNE15.jpg,AFNE07.jpg,FN,3,num_8,16,num_8,0.433488731738,,,2017_Nov_13_1450,59.9923225445,MAFE4ImagesEEG,001,202348,
AFNE01.JPG,AFNE01.JPG,AFNE01.JPG,AFNE01.JPG,AFNE01.JPG,AFNE01.JPG,,,,,3,2,32,4,,,,,,,,,,,,,,,,,,,AFNE02.jpg,AFSA06.jpg,AFSA07.jpg,AFNE20.jpg,AFSA06.jpg,FS,4,num_6,32,num_2,0.266843393911,,,2017_Nov_13_1450,59.9923225445,MAFE4ImagesEEG,001,202348,
AFNE01.JPG,AFNE01.JPG,AFNE01.JPG,AFNE01.JPG,AFNE01.JPG,AFNE01.JPG,,,,,3,3,33,7,,,,,,,,,,,,,,,,,,,AFSA07.jpg,AFNE11.jpg,AFSA02.jpg,AFNE02.jpg,AFSA07.jpg,FS,4,num_8,16,num_8,0.549817739986,,,2017_Nov_13_1450,59.9923225445,MAFE4ImagesEEG,001,202348,
AFNE01.JPG,AFNE01.JPG,AFNE01.JPG,AFNE01.JPG,AFNE01.JPG,AFNE01.JPG,,,,,3,4,34,0,,,,,,,,,,,,,,,,,,,AFNE14.jpg,AFNE10.jpg,AFSA12.jpg,AFSA08.jpg,AFSA12.jpg,FS,4,num_2,32,num_8,0.516806268599,,,2017_Nov_13_1450,59.9923225445,MAFE4ImagesEEG,001,202348,
AFNE01.JPG,AFNE01.JPG,AFNE01.JPG,AFNE01.JPG,AFNE01.JPG,AFNE01.JPG,,,,,3,5,35,9,,,,,,,,,,,,,,,,,,,AFNE19.jpg,AFSA09.jpg,AFNE05.jpg,AFSA04.jpg,AFSA09.jpg,FS,4,num_6,32,num_4,0.350148422178,,,2017_Nov_13_1450,59.9923225445,MAFE4ImagesEEG,001,202348,
AFNE01.JPG,AFNE01.JPG,AFNE01.JPG,AFNE01.JPG,AFNE01.JPG,AFNE01.JPG,,,,,3,6,36,5,,,,,,,,,,,,,,,,,,,AFSA19.jpg,AFNE08.jpg,AFNE14.jpg,AFSA04.jpg,AFNE14.jpg,FN,3,num_2,32,num_8,0.56699141534,,,2017_Nov_13_1450,59.9923225445,MAFE4ImagesEEG,001,202348,
AFNE01.JPG,AFNE01.JPG,AFNE01.JPG,AFNE01.JPG,AFNE01.JPG,AFNE01.JPG,,,,,3,7,37,8,,,,,,,,,,,,,,,,,,,AFNE01.jpg,AFSA14.jpg,AFSA06.jpg,AFNE07.jpg,AFNE01.jpg,FN,3,num_8,32,num_6,0.583512065466,,,2017_Nov_13_1450,59.9923225445,MAFE4ImagesEEG,001,202348,
AFNE01.JPG,AFNE01.JPG,AFNE01.JPG,AFNE01.JPG,AFNE01.JPG,AFNE01.JPG,,,,,3,8,38,6,,,,,,,,,,,,,,,,,,,AFNE15.jpg,AFSA14.jpg,AFNE07.jpg,AFSA11.jpg,AFSA14.jpg,FS,4,num_6,32,num_8,0.850180656649,,,2017_Nov_13_1450,59.9923225445,MAFE4ImagesEEG,001,202348,
AFNE01.JPG,AFNE01.JPG,AFNE01.JPG,AFNE01.JPG,AFNE01.JPG,AFNE01.JPG,,,,,3,9,39,2,,,,,,,,,,,,,,,,,,,AFNE07.jpg,AFSA19.jpg,AFNE19.jpg,AFSA11.jpg,AFSA11.jpg,FS,4,num_4,16,num_4,0.550159968901,,,2017_Nov_13_1450,59.9923225445,MAFE4ImagesEEG,001,202348,
AFNE01.JPG,AFNE01.JPG,AFNE01.JPG,AFNE01.JPG,AFNE01.JPG,AFNE01.JPG,,,,,4,0,40,6,,,,,,,,,,,,,,,,,,,AFNE12.jpg,AFSA09.jpg,AFNE07.jpg,AFSA14.jpg,AFSA14.jpg,FS,4,num_4,32,num_2,0.333598905709,,,2017_Nov_13_1450,59.9923225445,MAFE4ImagesEEG,001,202348,
AFNE01.JPG,AFNE01.JPG,AFNE01.JPG,AFNE01.JPG,AFNE01.JPG,AFNE01.JPG,,,,,4,1,41,9,,,,,,,,,,,,,,,,,,,AFNE05.jpg,AFNE20.jpg,AFSA11.jpg,AFSA13.jpg,AFNE05.jpg,FN,3,num_8,32,num_4,0.550163176376,,,2017_Nov_13_1450,59.9923225445,MAFE4ImagesEEG,001,202348,
AFNE01.JPG,AFNE01.JPG,AFNE01.JPG,AFNE01.JPG,AFNE01.JPG,AFNE01.JPG,,,,,4,2,42,7,,,,,,,,,,,,,,,,,,,AFNE13.jpg,AFNE19.jpg,AFSA13.jpg,AFSA02.jpg,AFSA02.jpg,FS,4,num_4,32,num_8,0.700167586561,,,2017_Nov_13_1450,59.9923225445,MAFE4ImagesEEG,001,202348,
AFNE01.JPG,AFNE01.JPG,AFNE01.JPG,AFNE01.JPG,AFNE01.JPG,AFNE01.JPG,,,,,4,3,43,2,,,,,,,,,,,,,,,,,,,AFSA02.jpg,AFNE10.jpg,AFNE15.jpg,AFSA10.jpg,AFSA10.jpg,FS,4,num_4,32,num_6,0.583483199123,,,2017_Nov_13_1450,59.9923225445,MAFE4ImagesEEG,001,202348,
AFNE01.JPG,AFNE01.JPG,AFNE01.JPG,AFNE01.JPG,AFNE01.JPG,AFNE01.JPG,,,,,4,4,44,0,,,,,,,,,,,,,,,,,,,AFNE14.jpg,AFSA14.jpg,AFSA07.jpg,AFNE19.jpg,AFSA14.jpg,FS,4,num_6,32,num_8,0.366858308669,,,2017_Nov_13_1450,59.9923225445,MAFE4ImagesEEG,001,202348,
AFNE01.JPG,AFNE01.JPG,AFNE01.JPG,AFNE01.JPG,AFNE01.JPG,AFNE01.JPG,,,,,4,5,45,3,,,,,,,,,,,,,,,,,,,AFSA08.jpg,AFNE02.jpg,AFSA20.jpg,AFNE17.jpg,AFSA08.jpg,FS,4,num_8,32,num_2,0.400162935723,,,2017_Nov_13_1450,59.9923225445,MAFE4ImagesEEG,001,202348,
AFNE01.JPG,AFNE01.JPG,AFNE01.JPG,AFNE01.JPG,AFNE01.JPG,AFNE01.JPG,,,,,4,6,46,8,,,,,,,,,,,,,,,,,,,AFNE16.jpg,AFSA08.jpg,AFNE14.jpg,AFSA07.jpg,AFSA07.jpg,FS,4,num_4,32,num_6,0.400176085997,,,2017_Nov_13_1450,59.9923225445,MAFE4ImagesEEG,001,202348,
AFNE01.JPG,AFNE01.JPG,AFNE01.JPG,AFNE01.JPG,AFNE01.JPG,AFNE01.JPG,,,,,4,7,47,5,,,,,,,,,,,,,,,,,,,AFSA08.jpg,AFNE11.jpg,AFNE20.jpg,AFSA20.jpg,AFNE11.jpg,FN,3,num_6,32,num_8,0.316720310599,,,2017_Nov_13_1450,59.9923225445,MAFE4ImagesEEG,001,202348,
AFNE01.JPG,AFNE01.JPG,AFNE01.JPG,AFNE01.JPG,AFNE01.JPG,AFNE01.JPG,,,,,4,8,48,4,,,,,,,,,,,,,,,,,,,AFSA19.jpg,AFNE12.jpg,AFSA15.jpg,AFNE13.jpg,AFNE12.jpg,FN,3,num_6,32,num_4,0.500201263931,,,2017_Nov_13_1450,59.9923225445,MAFE4ImagesEEG,001,202348,
AFNE01.JPG,AFNE01.JPG,AFNE01.JPG,AFNE01.JPG,AFNE01.JPG,AFNE01.JPG,,,,,4,9,49,1,,,,,,,,,,,,,,,,,,,AFSA18.jpg,AFSA07.jpg,AFNE01.jpg,AFNE14.jpg,AFNE14.jpg,FN,3,num_4,32,num_2,0.316826474853,,,2017_Nov_13_1450,59.9923225445,MAFE4ImagesEEG,001,202348,
AFNE01.JPG,AFNE01.JPG,AFNE01.JPG,AFNE01.JPG,AFNE01.JPG,AFNE01.JPG,,,,,5,0,50,8,,,,,,,,,,,,,,,,,,,AFNE04.jpg,AFNE20.jpg,AFSA03.jpg,AFSA13.jpg,AFNE04.jpg,FN,3,num_8,16,num_8,0.483502282761,,,2017_Nov_13_1450,59.9923225445,MAFE4ImagesEEG,001,202348,
AFNE01.JPG,AFNE01.JPG,AFNE01.JPG,AFNE01.JPG,AFNE01.JPG,AFNE01.JPG,,,,,5,1,51,3,,,,,,,,,,,,,,,,,,,AFSA12.jpg,AFSA08.jpg,AFNE07.jpg,AFNE01.jpg,AFNE01.jpg,FN,3,num_4,32,num_2,0.883468605112,,,2017_Nov_13_1450,59.9923225445,MAFE4ImagesEEG,001,202348,
AFNE01.JPG,AFNE01.JPG,AFNE01.JPG,AFNE01.JPG,AFNE01.JPG,AFNE01.JPG,,,,,5,2,52,5,,,,,,,,,,,,,,,,,,,AFNE19.jpg,AFSA07.jpg,AFSA09.jpg,AFNE18.jpg,AFNE18.jpg,FN,3,num_4,32,num_8,0.383521687239,,,2017_Nov_13_1450,59.9923225445,MAFE4ImagesEEG,001,202348,
AFNE01.JPG,AFNE01.JPG,AFNE01.JPG,AFNE01.JPG,AFNE01.JPG,AFNE01.JPG,,,,,5,3,53,7,,,,,,,,,,,,,,,,,,,AFSA16.jpg,AFNE10.jpg,AFSA05.jpg,AFNE08.jpg,AFNE10.jpg,FN,3,num_6,16,num_6,0.533562341239,,,2017_Nov_13_1450,59.9923225445,MAFE4ImagesEEG,001,202348,
AFNE01.JPG,AFNE01.JPG,AFNE01.JPG,AFNE01.JPG,AFNE01.JPG,AFNE01.JPG,,,,,5,4,54,6,,,,,,,,,,,,,,,,,,,AFNE09.jpg,AFSA17.jpg,AFSA18.jpg,AFNE10.jpg,AFNE10.jpg,FN,3,num_4,16,num_4,0.583478387911,,,2017_Nov_13_1450,59.9923225445,MAFE4ImagesEEG,001,202348,
AFNE01.JPG,AFNE01.JPG,AFNE01.JPG,AFNE01.JPG,AFNE01.JPG,AFNE01.JPG,,,,,5,5,55,4,,,,,,,,,,,,,,,,,,,AFNE18.jpg,AFSA10.jpg,AFSA11.jpg,AFNE12.jpg,AFNE12.jpg,FN,3,num_4,16,num_4,0.683484001085,,,2017_Nov_13_1450,59.9923225445,MAFE4ImagesEEG,001,202348,
AFNE01.JPG,AFNE01.JPG,AFNE01.JPG,AFNE01.JPG,AFNE01.JPG,AFNE01.JPG,,,,,5,6,56,2,,,,,,,,,,,,,,,,,,,AFSA12.jpg,AFNE17.jpg,AFSA15.jpg,AFNE07.jpg,AFNE17.jpg,FN,3,num_6,16,num_6,0.566810838878,,,2017_Nov_13_1450,59.9923225445,MAFE4ImagesEEG,001,202348,
AFNE01.JPG,AFNE01.JPG,AFNE01.JPG,AFNE01.JPG,AFNE01.JPG,AFNE01.JPG,,,,,5,7,57,9,,,,,,,,,,,,,,,,,,,AFSA19.jpg,AFNE11.jpg,AFNE09.jpg,AFSA09.jpg,AFSA19.jpg,FS,4,num_8,32,num_6,0.76678133104,,,2017_Nov_13_1450,59.9923225445,MAFE4ImagesEEG,001,202348,
AFNE01.JPG,AFNE01.JPG,AFNE01.JPG,AFNE01.JPG,AFNE01.JPG,AFNE01.JPG,,,,,5,8,58,0,,,,,,,,,,,,,,,,,,,AFNE18.jpg,AFSA16.jpg,AFSA04.jpg,AFNE17.jpg,AFSA16.jpg,FS,4,num_6,32,num_4,0.383616947569,,,2017_Nov_13_1450,59.9923225445,MAFE4ImagesEEG,001,202348,
AFNE01.JPG,AFNE01.JPG,AFNE01.JPG,AFNE01.JPG,AFNE01.JPG,AFNE01.JPG,,,,,5,9,59,1,,,,,,,,,,,,,,,,,,,AFSA03.jpg,AFNE06.jpg,AFSA20.jpg,AFNE14.jpg,AFSA20.jpg,FS,4,num_2,32,num_8,0.416733941529,,,2017_Nov_13_1450,59.9923225445,MAFE4ImagesEEG,001,202348,
,,,,,,,,,,,,,,,,,,,,,,,,,,,,,,,,,,,,,,,,,,,space,23.682259738,2017_Nov_13_1450,59.9923225445,MAFE4ImagesEEG,001,202348,
AFNE01.JPG,AFNE01.JPG,AFNE01.JPG,AFNE01.JPG,AFNE01.JPG,AFNE01.JPG,,,,,,,,,0,0,0,0,,,,,,,,,,,,,,,AMNE17.jpg,AMNE01.jpg,AMSA05.jpg,AMSA02.jpg,AMSA02.jpg,MS,2,num_4,32,num_8,3.54996143142,,,2017_Nov_13_1450,59.9923225445,MAFE4ImagesEEG,001,202348,
AFNE01.JPG,AFNE01.JPG,AFNE01.JPG,AFNE01.JPG,AFNE01.JPG,AFNE01.JPG,,,,,,,,,0,1,1,3,,,,,,,,,,,,,,,AMSA11.jpg,AMNE14.jpg,AMSA09.jpg,AMNE12.jpg,AMNE14.jpg,MN,1,num_6,16,num_6,0.366767860018,,,2017_Nov_13_1450,59.9923225445,MAFE4ImagesEEG,001,202348,
AFNE01.JPG,AFNE01.JPG,AFNE01.JPG,AFNE01.JPG,AFNE01.JPG,AFNE01.JPG,,,,,,,,,0,2,2,9,,,,,,,,,,,,,,,AMSA14.jpg,AMNE03.jpg,AMSA01.jpg,AMNE11.jpg,AMNE03.jpg,MN,1,num_6,32,num_2,0.300202547107,,,2017_Nov_13_1450,59.9923225445,MAFE4ImagesEEG,001,202348,
AFNE01.JPG,AFNE01.JPG,AFNE01.JPG,AFNE01.JPG,AFNE01.JPG,AFNE01.JPG,,,,,,,,,0,3,3,4,,,,,,,,,,,,,,,AMSA11.jpg,AMNE12.jpg,AMNE05.jpg,AMSA04.jpg,AMSA04.jpg,MS,2,num_4,16,num_4,0.599999679253,,,2017_Nov_13_1450,59.9923225445,MAFE4ImagesEEG,001,202348,
AFNE01.JPG,AFNE01.JPG,AFNE01.JPG,AFNE01.JPG,AFNE01.JPG,AFNE01.JPG,,,,,,,,,0,4,4,1,,,,,,,,,,,,,,,AMSA14.jpg,AMNE18.jpg,AMSA06.jpg,AMNE11.jpg,AMNE18.jpg,MN,1,num_6,32,num_4,0.850259237923,,,2017_Nov_13_1450,59.9923225445,MAFE4ImagesEEG,001,202348,
AFNE01.JPG,AFNE01.JPG,AFNE01.JPG,AFNE01.JPG,AFNE01.JPG,AFNE01.JPG,,,,,,,,,0,5,5,7,,,,,,,,,,,,,,,AMNE08.jpg,AMSA18.jpg,AMNE03.jpg,AMSA12.jpg,AMNE03.jpg,MN,1,num_2,16,num_2,0.500140644144,,,2017_Nov_13_1450,59.9923225445,MAFE4ImagesEEG,001,202348,
AFNE01.JPG,AFNE01.JPG,AFNE01.JPG,AFNE01.JPG,AFNE01.JPG,AFNE01.JPG,,,,,,,,,0,6,6,8,,,,,,,,,,,,,,,AMSA18.jpg,AMNE01.jpg,AMNE14.jpg,AMSA19.jpg,AMNE14.jpg,MN,1,num_2,32,num_8,0.416784939356,,,2017_Nov_13_1450,59.9923225445,MAFE4ImagesEEG,001,202348,
AFNE01.JPG,AFNE01.JPG,AFNE01.JPG,AFNE01.JPG,AFNE01.JPG,AFNE01.JPG,,,,,,,,,0,7,7,2,,,,,,,,,,,,,,,AMSA12.jpg,AMSA20.jpg,AMNE04.jpg,AMNE13.jpg,AMSA20.jpg,MS,2,num_6,32,num_4,0.800112259109,,,2017_Nov_13_1450,59.9923225445,MAFE4ImagesEEG,001,202348,
AFNE01.JPG,AFNE01.JPG,AFNE01.JPG,AFNE01.JPG,AFNE01.JPG,AFNE01.JPG,,,,,,,,,0,8,8,6,,,,,,,,,,,,,,,AMNE20.jpg,AMNE01.jpg,AMSA06.jpg,AMSA05.jpg,AMSA06.jpg,MS,2,num_2,16,num_2,0.91672287602,,,2017_Nov_13_1450,59.9923225445,MAFE4ImagesEEG,001,202348,
AFNE01.JPG,AFNE01.JPG,AFNE01.JPG,AFNE01.JPG,AFNE01.JPG,AFNE01.JPG,,,,,,,,,0,9,9,5,,,,,,,,,,,,,,,AMNE20.jpg,AMSA05.jpg,AMNE17.jpg,AMSA15.jpg,AMNE17.jpg,MN,1,num_2,32,num_8,0.583562100772,,,2017_Nov_13_1450,59.9923225445,MAFE4ImagesEEG,001,202348,
AFNE01.JPG,AFNE01.JPG,AFNE01.JPG,AFNE01.JPG,AFNE01.JPG,AFNE01.JPG,,,,,,,,,1,0,10,7,,,,,,,,,,,,,,,AMNE06.jpg,AMNE15.jpg,AMSA07.jpg,AMSA11.jpg,AMNE15.jpg,MN,1,num_6,16,num_6,0.616932479199,,,2017_Nov_13_1450,59.9923225445,MAFE4ImagesEEG,001,202348,
AFNE01.JPG,AFNE01.JPG,AFNE01.JPG,AFNE01.JPG,AFNE01.JPG,AFNE01.JPG,,,,,,,,,1,1,11,6,,,,,,,,,,,,,,,AMNE19.jpg,AMSA05.jpg,AMNE01.jpg,AMSA04.jpg,AMSA05.jpg,MS,2,num_6,16,num_6,0.73349851463,,,2017_Nov_13_1450,59.9923225445,MAFE4ImagesEEG,001,202348,
AFNE01.JPG,AFNE01.JPG,AFNE01.JPG,AFNE01.JPG,AFNE01.JPG,AFNE01.JPG,,,,,,,,,1,2,12,9,,,,,,,,,,,,,,,AMNE11.jpg,AMNE16.jpg,AMSA05.jpg,AMSA09.jpg,AMSA09.jpg,MS,2,num_4,32,num_6,0.666775717866,,,2017_Nov_13_1450,59.9923225445,MAFE4ImagesEEG,001,202348,
AFNE01.JPG,AFNE01.JPG,AFNE01.JPG,AFNE01.JPG,AFNE01.JPG,AFNE01.JPG,,,,,,,,,1,3,13,0,,,,,,,,,,,,,,,AMSA19.jpg,AMSA20.jpg,AMNE04.jpg,AMNE13.jpg,AMSA20.jpg,MS,2,num_6,32,num_8,0.466836337931,,,2017_Nov_13_1450,59.9923225445,MAFE4ImagesEEG,001,202348,
AFNE01.JPG,AFNE01.JPG,AFNE01.JPG,AFNE01.JPG,AFNE01.JPG,AFNE01.JPG,,,,,,,,,1,4,14,5,,,,,,,,,,,,,,,AMNE18.jpg,AMSA13.jpg,AMSA01.jpg,AMNE10.jpg,AMSA13.jpg,MS,2,num_6,32,num_2,0.466841469519,,,2017_Nov_13_1450,59.9923225445,MAFE4ImagesEEG,001,202348,
AFNE01.JPG,AFNE01.JPG,AFNE01.JPG,AFNE01.JPG,AFNE01.JPG,AFNE01.JPG,,,,,,,,,1,5,15,8,,,,,,,,,,,,,,,AMNE04.jpg,AMNE15.jpg,AMSA09.jpg,AMSA17.jpg,AMNE04.jpg,MN,1,num_8,32,num_4,0.31683064485,,,2017_Nov_13_1450,59.9923225445,MAFE4ImagesEEG,001,202348,
AFNE01.JPG,AFNE01.JPG,AFNE01.JPG,AFNE01.JPG,AFNE01.JPG,AFNE01.JPG,,,,,,,,,1,6,16,2,,,,,,,,,,,,,,,AMSA07.jpg,AMNE08.jpg,AMSA15.jpg,AMNE18.jpg,AMSA15.jpg,MS,2,num_2,32,num_8,0.333528663963,,,2017_Nov_13_1450,59.9923225445,MAFE4ImagesEEG,001,202348,
AFNE01.JPG,AFNE01.JPG,AFNE01.JPG,AFNE01.JPG,AFNE01.JPG,AFNE01.JPG,,,,,,,,,1,7,17,3,,,,,,,,,,,,,,,AMSA05.jpg,AMNE19.jpg,AMNE08.jpg,AMSA03.jpg,AMNE08.jpg,MN,1,num_2,16,num_2,0.266806829721,,,2017_Nov_13_1450,59.9923225445,MAFE4ImagesEEG,001,202348,
AFNE01.JPG,AFNE01.JPG,AFNE01.JPG,AFNE01.JPG,AFNE01.JPG,AFNE01.JPG,,,,,,,,,1,8,18,1,,,,,,,,,,,,,,,AMSA03.jpg,AMSA04.jpg,AMNE01.jpg,AMNE07.jpg,AMSA04.jpg,MS,2,num_6,32,num_8,0.966760483105,,,2017_Nov_13_1450,59.9923225445,MAFE4ImagesEEG,001,202348,
AFNE01.JPG,AFNE01.JPG,AFNE01.JPG,AFNE01.JPG,AFNE01.JPG,AFNE01.JPG,,,,,,,,,1,9,19,4,,,,,,,,,,,,,,,AMSA15.jpg,AMSA12.jpg,AMNE14.jpg,AMNE13.jpg,AMSA12.jpg,MS,2,num_6,16,num_6,0.600153955165,,,2017_Nov_13_1450,59.9923225445,MAFE4ImagesEEG,001,202348,
AFNE01.JPG,AFNE01.JPG,AFNE01.JPG,AFNE01.JPG,AFNE01.JPG,AFNE01.JPG,,,,,,,,,2,0,20,0,,,,,,,,,,,,,,,AMNE11.jpg,AMNE14.jpg,AMSA01.jpg,AMSA03.jpg,AMNE14.jpg,MN,1,num_6,32,num_4,0.716783175245,,,2017_Nov_13_1450,59.9923225445,MAFE4ImagesEEG,001,202348,
AFNE01.JPG,AFNE01.JPG,AFNE01.JPG,AFNE01.JPG,AFNE01.JPG,AFNE01.JPG,,,,,,,,,2,1,21,1,,,,,,,,,,,,,,,AMNE05.jpg,AMSA11.jpg,AMSA16.jpg,AMNE17.jpg,AMSA11.jpg,MS,2,num_6,32,num_8,0.566856704652,,,2017_Nov_13_1450,59.9923225445,MAFE4ImagesEEG,001,202348,
AFNE01.JPG,AFNE01.JPG,AFNE01.JPG,AFNE01.JPG,AFNE01.JPG,AFNE01.JPG,,,,,,,,,2,2,22,2,,,,,,,,,,,,,,,AMNE02.jpg,AMSA15.jpg,AMNE16.jpg,AMSA20.jpg,AMNE16.jpg,MN,1,num_2,16,num_2,0.783530989196,,,2017_Nov_13_1450,59.9923225445,MAFE4ImagesEEG,001,202348,
AFNE01.JPG,AFNE01.JPG,AFNE01.JPG,AFNE01.JPG,AFNE01.JPG,AFNE01.JPG,,,,,,,,,2,3,23,4,,,,,,,,,,,,,,,AMNE17.jpg,AMSA20.jpg,AMNE07.jpg,AMSA17.jpg,AMSA20.jpg,MS,2,num_6,16,num_6,0.450208881404,,,2017_Nov_13_1450,59.9923225445,MAFE4ImagesEEG,001,202348,
AFNE01.JPG,AFNE01.JPG,AFNE01.JPG,AFNE01.JPG,AFNE01.JPG,AFNE01.JPG,,,,,,,,,2,4,24,6,,,,,,,,,,,,,,,AMNE19.jpg,AMSA11.jpg,AMSA08.jpg,AMNE02.jpg,AMSA08.jpg,MS,2,num_2,32,num_4,0.650147620123,,,2017_Nov_13_1450,59.9923225445,MAFE4ImagesEEG,001,202348,
AFNE01.JPG,AFNE01.JPG,AFNE01.JPG,AFNE01.JPG,AFNE01.JPG,AFNE01.JPG,,,,,,,,,2,5,25,8,,,,,,,,,,,,,,,AMNE03.jpg,AMSA09.jpg,AMSA12.jpg,AMNE01.jpg,AMNE01.jpg,MN,1,num_4,16,num_4,0.700140002649,,,2017_Nov_13_1450,59.9923225445,MAFE4ImagesEEG,001,202348,
AFNE01.JPG,AFNE01.JPG,AFNE01.JPG,AFNE01.JPG,AFNE01.JPG,AFNE01.JPG,,,,,,,,,2,6,26,7,,,,,,,,,,,,,,,AMNE11.jpg,AMNE08.jpg,AMSA02.jpg,AMSA17.jpg,AMNE11.jpg,MN,1,num_8,32,num_2,0.733458421659,,,2017_Nov_13_1450,59.9923225445,MAFE4ImagesEEG,001,202348,
AFNE01.JPG,AFNE01.JPG,AFNE01.JPG,AFNE01.JPG,AFNE01.JPG,AFNE01.JPG,,,,,,,,,2,7,27,5,,,,,,,,,,,,,,,AMSA10.jpg,AMNE05.jpg,AMSA09.jpg,AMNE07.jpg,AMSA10.jpg,MS,2,num_8,32,num_4,0.733465798665,,,2017_Nov_13_1450,59.9923225445,MAFE4ImagesEEG,001,202348,
AFNE01.JPG,AFNE01.JPG,AFNE01.JPG,AFNE01.JPG,AFNE01.JPG,AFNE01.JPG,,,,,,,,,2,8,28,3,,,,,,,,,,,,,,,AMSA07.jpg,AMSA15.jpg,AMNE17.jpg,AMNE08.jpg,AMSA15.jpg,MS,2,num_6,16,num_6,0.333509098273,,,2017_Nov_13_1450,59.9923225445,MAFE4ImagesEEG,001,202348,
AFNE01.JPG,AFNE01.JPG,AFNE01.JPG,AFNE01.JPG,AFNE01.JPG,AFNE01.JPG,,,,,,,,,2,9,29,9,,,,,,,,,,,,,,,AMSA08.jpg,AMNE09.jpg,AMNE14.jpg,AMSA13.jpg,AMSA13.jpg,MS,2,num_4,16,num_4,0.616815088782,,,2017_Nov_13_1450,59.9923225445,MAFE4ImagesEEG,001,202348,
AFNE01.JPG,AFNE01.JPG,AFNE01.JPG,AFNE01.JPG,AFNE01.JPG,AFNE01.JPG,,,,,,,,,3,0,30,5,,,,,,,,,,,,,,,AMSA07.jpg,AMNE18.jpg,AMSA19.jpg,AMNE14.jpg,AMSA07.jpg,MS,2,num_8,16,num_8,0.700163737405,,,2017_Nov_13_1450,59.9923225445,MAFE4ImagesEEG,001,202348,
AFNE01.JPG,AFNE01.JPG,AFNE01.JPG,AFNE01.JPG,AFNE01.JPG,AFNE01.JPG,,,,,,,,,3,1,31,7,,,,,,,,,,,,,,,AMNE10.jpg,AMNE11.jpg,AMSA15.jpg,AMSA08.jpg,AMSA15.jpg,MS,2,num_2,16,num_2,0.500125248451,,,2017_Nov_13_1450,59.9923225445,MAFE4ImagesEEG,001,202348,
AFNE01.JPG,AFNE01.JPG,AFNE01.JPG,AFNE01.JPG,AFNE01.JPG,AFNE01.JPG,,,,,,,,,3,2,32,6,,,,,,,,,,,,,,,AMSA14.jpg,AMNE01.jpg,AMSA19.jpg,AMNE10.jpg,AMNE01.jpg,MN,1,num_6,32,num_4,0.433512786869,,,2017_Nov_13_1450,59.9923225445,MAFE4ImagesEEG,001,202348,
AFNE01.JPG,AFNE01.JPG,AFNE01.JPG,AFNE01.JPG,AFNE01.JPG,AFNE01.JPG,,,,,,,,,3,3,33,8,,,,,,,,,,,,,,,AMNE05.jpg,AMNE19.jpg,AMSA03.jpg,AMSA08.jpg,AMSA03.jpg,MS,2,num_2,32,num_8,0.450165260583,,,2017_Nov_13_1450,59.9923225445,MAFE4ImagesEEG,001,202348,
AFNE01.JPG,AFNE01.JPG,AFNE01.JPG,AFNE01.JPG,AFNE01.JPG,AFNE01.JPG,,,,,,,,,3,4,34,4,,,,,,,,,,,,,,,AMSA07.jpg,AMNE09.jpg,AMSA12.jpg,AMNE10.jpg,AMNE10.jpg,MN,1,num_4,32,num_6,0.533488571178,,,2017_Nov_13_1450,59.9923225445,MAFE4ImagesEEG,001,202348,
AFNE01.JPG,AFNE01.JPG,AFNE01.JPG,AFNE01.JPG,AFNE01.JPG,AFNE01.JPG,,,,,,,,,3,5,35,3,,,,,,,,,,,,,,,AMNE03.jpg,AMSA09.jpg,AMSA12.jpg,AMNE04.jpg,AMNE03.jpg,MN,1,num_8,32,num_4,0.383538366295,,,2017_Nov_13_1450,59.9923225445,MAFE4ImagesEEG,001,202348,
AFNE01.JPG,AFNE01.JPG,AFNE01.JPG,AFNE01.JPG,AFNE01.JPG,AFNE01.JPG,,,,,,,,,3,6,36,9,,,,,,,,,,,,,,,AMNE01.jpg,AMNE08.jpg,AMSA05.jpg,AMSA02.jpg,AMNE01.jpg,MN,1,num_8,32,num_4,0.633468525019,,,2017_Nov_13_1450,59.9923225445,MAFE4ImagesEEG,001,202348,
AFNE01.JPG,AFNE01.JPG,AFNE01.JPG,AFNE01.JPG,AFNE01.JPG,AFNE01.JPG,,,,,,,,,3,7,37,1,,,,,,,,,,,,,,,AMNE18.jpg,AMSA20.jpg,AMNE09.jpg,AMSA13.jpg,AMNE09.jpg,MN,1,num_2,32,num_8,0.383638757281,,,2017_Nov_13_1450,59.9923225445,MAFE4ImagesEEG,001,202348,
AFNE01.JPG,AFNE01.JPG,AFNE01.JPG,AFNE01.JPG,AFNE01.JPG,AFNE01.JPG,,,,,,,,,3,8,38,2,,,,,,,,,,,,,,,AMSA03.jpg,AMNE19.jpg,AMSA17.jpg,AMNE15.jpg,AMNE15.jpg,MN,1,num_4,16,num_4,0.866756794043,,,2017_Nov_13_1450,59.9923225445,MAFE4ImagesEEG,001,202348,
AFNE01.JPG,AFNE01.JPG,AFNE01.JPG,AFNE01.JPG,AFNE01.JPG,AFNE01.JPG,,,,,,,,,3,9,39,0,,,,,,,,,,,,,,,AMNE11.jpg,AMNE14.jpg,AMSA03.jpg,AMSA10.jpg,AMSA03.jpg,MS,2,num_2,16,num_2,0.650143450592,,,2017_Nov_13_1450,59.9923225445,MAFE4ImagesEEG,001,202348,
AFNE01.JPG,AFNE01.JPG,AFNE01.JPG,AFNE01.JPG,AFNE01.JPG,AFNE01.JPG,,,,,,,,,4,0,40,7,,,,,,,,,,,,,,,AMNE18.jpg,AMSA05.jpg,AMSA18.jpg,AMNE13.jpg,AMSA05.jpg,MS,2,num_6,16,num_6,0.400161652826,,,2017_Nov_13_1450,59.9923225445,MAFE4ImagesEEG,001,202348,
AFNE01.JPG,AFNE01.JPG,AFNE01.JPG,AFNE01.JPG,AFNE01.JPG,AFNE01.JPG,,,,,,,,,4,1,41,5,,,,,,,,,,,,,,,AMNE02.jpg,AMNE09.jpg,AMSA15.jpg,AMSA10.jpg,AMSA10.jpg,MS,2,num_4,16,num_4,0.600154276006,,,2017_Nov_13_1450,59.9923225445,MAFE4ImagesEEG,001,202348,
AFNE01.JPG,AFNE01.JPG,AFNE01.JPG,AFNE01.JPG,AFNE01.JPG,AFNE01.JPG,,,,,,,,,4,2,42,0,,,,,,,,,,,,,,,AMNE18.jpg,AMSA18.jpg,AMSA03.jpg,AMNE09.jpg,AMSA18.jpg,MS,2,num_6,32,num_8,2.41668679286,,,2017_Nov_13_1450,59.9923225445,MAFE4ImagesEEG,001,202348,
AFNE01.JPG,AFNE01.JPG,AFNE01.JPG,AFNE01.JPG,AFNE01.JPG,AFNE01.JPG,,,,,,,,,4,3,43,3,,,,,,,,,,,,,,,AMNE07.jpg,AMNE10.jpg,AMSA20.jpg,AMSA10.jpg,AMSA10.jpg,MS,2,num_4,16,num_4,0.366812122054,,,2017_Nov_13_1450,59.9923225445,MAFE4ImagesEEG,001,202348,
AFNE01.JPG,AFNE01.JPG,AFNE01.JPG,AFNE01.JPG,AFNE01.JPG,AFNE01.JPG,,,,,,,,,4,4,44,9,,,,,,,,,,,,,,,AMNE08.jpg,AMNE18.jpg,AMSA10.jpg,AMSA13.jpg,AMNE08.jpg,MN,1,num_8,32,num_4,0.783605721314,,,2017_Nov_13_1450,59.9923225445,MAFE4ImagesEEG,001,202348,
AFNE01.JPG,AFNE01.JPG,AFNE01.JPG,AFNE01.JPG,AFNE01.JPG,AFNE01.JPG,,,,,,,,,4,5,45,4,,,,,,,,,,,,,,,AMNE01.jpg,AMSA04.jpg,AMSA02.jpg,AMNE18.jpg,AMSA02.jpg,MS,2,num_2,16,num_2,0.416823748499,,,2017_Nov_13_1450,59.9923225445,MAFE4ImagesEEG,001,202348,
AFNE01.JPG,AFNE01.JPG,AFNE01.JPG,AFNE01.JPG,AFNE01.JPG,AFNE01.JPG,,,,,,,,,4,6,46,1,,,,,,,,,,,,,,,AMSA18.jpg,AMNE12.jpg,AMNE15.jpg,AMSA04.jpg,AMNE12.jpg,MN,1,num_6,32,num_8,0.283459303435,,,2017_Nov_13_1450,59.9923225445,MAFE4ImagesEEG,001,202348,
AFNE01.JPG,AFNE01.JPG,AFNE01.JPG,AFNE01.JPG,AFNE01.JPG,AFNE01.JPG,,,,,,,,,4,7,47,6,,,,,,,,,,,,,,,AMNE17.jpg,AMSA17.jpg,AMNE13.jpg,AMSA15.jpg,AMNE13.jpg,MN,1,num_2,32,num_4,0.433525616769,,,2017_Nov_13_1450,59.9923225445,MAFE4ImagesEEG,001,202348,
AFNE01.JPG,AFNE01.JPG,AFNE01.JPG,AFNE01.JPG,AFNE01.JPG,AFNE01.JPG,,,,,,,,,4,8,48,2,,,,,,,,,,,,,,,AMSA15.jpg,AMNE11.jpg,AMSA11.jpg,AMNE07.jpg,AMNE11.jpg,MN,1,num_6,32,num_2,0.51666770922,,,2017_Nov_13_1450,59.9923225445,MAFE4ImagesEEG,001,202348,
AFNE01.JPG,AFNE01.JPG,AFNE01.JPG,AFNE01.JPG,AFNE01.JPG,AFNE01.JPG,,,,,,,,,4,9,49,8,,,,,,,,,,,,,,,AMSA13.jpg,AMSA19.jpg,AMNE18.jpg,AMNE07.jpg,AMNE07.jpg,MN,1,num_4,16,num_4,0.466824791394,,,2017_Nov_13_1450,59.9923225445,MAFE4ImagesEEG,001,202348,
AFNE01.JPG,AFNE01.JPG,AFNE01.JPG,AFNE01.JPG,AFNE01.JPG,AFNE01.JPG,,,,,,,,,5,0,50,8,,,,,,,,,,,,,,,AMSA06.jpg,AMNE06.jpg,AMNE16.jpg,AMSA03.jpg,AMNE16.jpg,MN,1,num_2,32,num_8,0.283517678268,,,2017_Nov_13_1450,59.9923225445,MAFE4ImagesEEG,001,202348,
AFNE01.JPG,AFNE01.JPG,AFNE01.JPG,AFNE01.JPG,AFNE01.JPG,AFNE01.JPG,,,,,,,,,5,1,51,4,,,,,,,,,,,,,,,AMNE12.jpg,AMNE15.jpg,AMSA18.jpg,AMSA20.jpg,AMSA18.jpg,MS,2,num_2,16,num_2,0.416774355341,,,2017_Nov_13_1450,59.9923225445,MAFE4ImagesEEG,001,202348,
AFNE01.JPG,AFNE01.JPG,AFNE01.JPG,AFNE01.JPG,AFNE01.JPG,AFNE01.JPG,,,,,,,,,5,2,52,0,,,,,,,,,,,,,,,AMNE15.jpg,AMSA18.jpg,AMSA05.jpg,AMNE11.jpg,AMSA18.jpg,MS,2,num_6,16,num_6,1.18349217949,,,2017_Nov_13_1450,59.9923225445,MAFE4ImagesEEG,001,202348,
AFNE01.JPG,AFNE01.JPG,AFNE01.JPG,AFNE01.JPG,AFNE01.JPG,AFNE01.JPG,,,,,,,,,5,3,53,5,,,,,,,,,,,,,,,AMNE13.jpg,AMSA04.jpg,AMSA06.jpg,AMNE19.jpg,AMSA04.jpg,MS,2,num_6,16,num_6,0.78348031221,,,2017_Nov_13_1450,59.9923225445,MAFE4ImagesEEG,001,202348,
AFNE01.JPG,AFNE01.JPG,AFNE01.JPG,AFNE01.JPG,AFNE01.JPG,AFNE01.JPG,,,,,,,,,5,4,54,7,,,,,,,,,,,,,,,AMNE11.jpg,AMSA12.jpg,AMNE18.jpg,AMSA01.jpg,AMNE18.jpg,MN,1,num_2,32,num_8,0.783488651272,,,2017_Nov_13_1450,59.9923225445,MAFE4ImagesEEG,001,202348,
AFNE01.JPG,AFNE01.JPG,AFNE01.JPG,AFNE01.JPG,AFNE01.JPG,AFNE01.JPG,,,,,,,,,5,5,55,9,,,,,,,,,,,,,,,AMNE20.jpg,AMSA02.jpg,AMSA13.jpg,AMNE17.jpg,AMNE20.jpg,MN,1,num_8,32,num_2,0.500148983672,,,2017_Nov_13_1450,59.9923225445,MAFE4ImagesEEG,001,202348,
AFNE01.JPG,AFNE01.JPG,AFNE01.JPG,AFNE01.JPG,AFNE01.JPG,AFNE01.JPG,,,,,,,,,5,6,56,3,,,,,,,,,,,,,,,AMSA16.jpg,AMNE12.jpg,AMNE09.jpg,AMSA01.jpg,AMNE12.jpg,MN,1,num_6,32,num_4,3.28330727341,,,2017_Nov_13_1450,59.9923225445,MAFE4ImagesEEG,001,202348,
AFNE01.JPG,AFNE01.JPG,AFNE01.JPG,AFNE01.JPG,AFNE01.JPG,AFNE01.JPG,,,,,,,,,5,7,57,6,,,,,,,,,,,,,,,AMSA16.jpg,AMSA11.jpg,AMNE04.jpg,AMNE15.jpg,AMSA16.jpg,MS,2,num_8,16,num_8,0.266840186901,,,2017_Nov_13_1450,59.9923225445,MAFE4ImagesEEG,001,202348,
AFNE01.JPG,AFNE01.JPG,AFNE01.JPG,AFNE01.JPG,AFNE01.JPG,AFNE01.JPG,,,,,,,,,5,8,58,1,,,,,,,,,,,,,,,AMNE14.jpg,AMNE17.jpg,AMSA07.jpg,AMSA11.jpg,AMSA07.jpg,MS,2,num_2,16,num_2,0.233540049754,,,2017_Nov_13_1450,59.9923225445,MAFE4ImagesEEG,001,202348,
AFNE01.JPG,AFNE01.JPG,AFNE01.JPG,AFNE01.JPG,AFNE01.JPG,AFNE01.JPG,,,,,,,,,5,9,59,2,,,,,,,,,,,,,,,AMNE12.jpg,AMSA16.jpg,AMSA12.jpg,AMNE02.jpg,AMNE12.jpg,MN,1,num_8,32,num_6,0.516812041868,,,2017_Nov_13_1450,59.9923225445,MAFE4ImagesEEG,001,202348,
,,,,,,,,,,,,,,,,,,,,,,,,,,,,,,,,,,,,,,,,,,,space,1.21685357764,2017_Nov_13_1450,59.9923225445,MAFE4ImagesEEG,001,202348,
AFNE01.JPG,AFNE01.JPG,AFNE01.JPG,AFNE01.JPG,AFNE01.JPG,AFNE01.JPG,,,,,,,,,,,,,0,0,0,5,,,,,,,,,,,AFSA20.jpg,AFNE16.jpg,AFNE11.jpg,AFSA08.jpg,AFSA20.jpg,FS,4,num_8,32,num_6,0.583571081515,,,2017_Nov_13_1450,59.9923225445,MAFE4ImagesEEG,001,202348,
AFNE01.JPG,AFNE01.JPG,AFNE01.JPG,AFNE01.JPG,AFNE01.JPG,AFNE01.JPG,,,,,,,,,,,,,0,1,1,4,,,,,,,,,,,AFNE11.jpg,AFNE20.jpg,AFSA17.jpg,AFSA03.jpg,AFSA17.jpg,FS,4,num_2,32,num_8,0.316860473715,,,2017_Nov_13_1450,59.9923225445,MAFE4ImagesEEG,001,202348,
AFNE01.JPG,AFNE01.JPG,AFNE01.JPG,AFNE01.JPG,AFNE01.JPG,AFNE01.JPG,,,,,,,,,,,,,0,2,2,6,,,,,,,,,,,AFSA02.jpg,AFNE11.jpg,AFSA09.jpg,AFNE01.jpg,AFSA09.jpg,FS,4,num_2,32,num_4,0.500178170856,,,2017_Nov_13_1450,59.9923225445,MAFE4ImagesEEG,001,202348,
AFNE01.JPG,AFNE01.JPG,AFNE01.JPG,AFNE01.JPG,AFNE01.JPG,AFNE01.JPG,,,,,,,,,,,,,0,3,3,0,,,,,,,,,,,AFSA08.jpg,AFSA09.jpg,AFNE15.jpg,AFNE13.jpg,AFSA09.jpg,FS,4,num_6,32,num_2,0.433447998017,,,2017_Nov_13_1450,59.9923225445,MAFE4ImagesEEG,001,202348,
AFNE01.JPG,AFNE01.JPG,AFNE01.JPG,AFNE01.JPG,AFNE01.JPG,AFNE01.JPG,,,,,,,,,,,,,0,4,4,9,,,,,,,,,,,AFNE02.jpg,AFNE17.jpg,AFSA15.jpg,AFSA16.jpg,AFNE02.jpg,FN,3,num_8,32,num_4,0.666946993209,,,2017_Nov_13_1450,59.9923225445,MAFE4ImagesEEG,001,202348,
AFNE01.JPG,AFNE01.JPG,AFNE01.JPG,AFNE01.JPG,AFNE01.JPG,AFNE01.JPG,,,,,,,,,,,,,0,5,5,1,,,,,,,,,,,AFSA13.jpg,AFNE04.jpg,AFSA19.jpg,AFNE14.jpg,AFSA19.jpg,FS,4,num_2,32,num_6,0.516813645605,,,2017_Nov_13_1450,59.9923225445,MAFE4ImagesEEG,001,202348,
AFNE01.JPG,AFNE01.JPG,AFNE01.JPG,AFNE01.JPG,AFNE01.JPG,AFNE01.JPG,,,,,,,,,,,,,0,6,6,2,,,,,,,,,,,AFSA02.jpg,AFNE18.jpg,AFSA15.jpg,AFNE14.jpg,AFNE14.jpg,FN,3,num_4,32,num_8,0.483528904151,,,2017_Nov_13_1450,59.9923225445,MAFE4ImagesEEG,001,202348,
AFNE01.JPG,AFNE01.JPG,AFNE01.JPG,AFNE01.JPG,AFNE01.JPG,AFNE01.JPG,,,,,,,,,,,,,0,7,7,7,,,,,,,,,,,AFSA10.jpg,AFSA08.jpg,AFNE15.jpg,AFNE02.jpg,AFSA10.jpg,FS,4,num_8,32,num_2,0.316805627197,,,2017_Nov_13_1450,59.9923225445,MAFE4ImagesEEG,001,202348,
AFNE01.JPG,AFNE01.JPG,AFNE01.JPG,AFNE01.JPG,AFNE01.JPG,AFNE01.JPG,,,,,,,,,,,,,0,8,8,3,,,,,,,,,,,AFNE14.jpg,AFNE05.jpg,AFSA16.jpg,AFSA04.jpg,AFSA04.jpg,FS,4,num_4,16,num_4,0.55004289886,,,2017_Nov_13_1450,59.9923225445,MAFE4ImagesEEG,001,202348,
AFNE01.JPG,AFNE01.JPG,AFNE01.JPG,AFNE01.JPG,AFNE01.JPG,AFNE01.JPG,,,,,,,,,,,,,0,9,9,8,,,,,,,,,,,AFNE07.jpg,AFNE08.jpg,AFSA17.jpg,AFSA11.jpg,AFSA17.jpg,FS,4,num_2,32,num_6,0.100174963474,,,2017_Nov_13_1450,59.9923225445,MAFE4ImagesEEG,001,202348,
AFNE01.JPG,AFNE01.JPG,AFNE01.JPG,AFNE01.JPG,AFNE01.JPG,AFNE01.JPG,,,,,,,,,,,,,1,0,10,6,,,,,,,,,,,AFSA17.jpg,AFNE09.jpg,AFSA15.jpg,AFNE10.jpg,AFSA17.jpg,FS,4,num_8,16,num_8,0.366823668592,,,2017_Nov_13_1450,59.9923225445,MAFE4ImagesEEG,001,202348,
AFNE01.JPG,AFNE01.JPG,AFNE01.JPG,AFNE01.JPG,AFNE01.JPG,AFNE01.JPG,,,,,,,,,,,,,1,1,11,4,,,,,,,,,,,AFNE02.jpg,AFNE09.jpg,AFSA08.jpg,AFSA02.jpg,AFNE09.jpg,FN,3,num_6,32,num_4,0.666785981972,,,2017_Nov_13_1450,59.9923225445,MAFE4ImagesEEG,001,202348,
AFNE01.JPG,AFNE01.JPG,AFNE01.JPG,AFNE01.JPG,AFNE01.JPG,AFNE01.JPG,,,,,,,,,,,,,1,2,12,3,,,,,,,,,,,AFNE08.jpg,AFNE12.jpg,AFSA05.jpg,AFSA08.jpg,AFSA08.jpg,FS,4,num_4,16,num_4,0.550149705261,,,2017_Nov_13_1450,59.9923225445,MAFE4ImagesEEG,001,202348,
AFNE01.JPG,AFNE01.JPG,AFNE01.JPG,AFNE01.JPG,AFNE01.JPG,AFNE01.JPG,,,,,,,,,,,,,1,3,13,1,,,,,,,,,,,AFNE05.jpg,AFSA05.jpg,AFSA20.jpg,AFNE09.jpg,AFNE05.jpg,FN,3,num_8,16,num_8,0.566754709464,,,2017_Nov_13_1450,59.9923225445,MAFE4ImagesEEG,001,202348,
AFNE01.JPG,AFNE01.JPG,AFNE01.JPG,AFNE01.JPG,AFNE01.JPG,AFNE01.JPG,,,,,,,,,,,,,1,4,14,2,,,,,,,,,,,AFNE09.jpg,AFNE06.jpg,AFSA04.jpg,AFSA14.jpg,AFSA04.jpg,FS,4,num_2,16,num_2,0.318158506416,,,2017_Nov_13_1450,59.9923225445,MAFE4ImagesEEG,001,202348,
AFNE01.JPG,AFNE01.JPG,AFNE01.JPG,AFNE01.JPG,AFNE01.JPG,AFNE01.JPG,,,,,,,,,,,,,1,5,15,7,,,,,,,,,,,AFNE05.jpg,AFSA08.jpg,AFNE04.jpg,AFSA20.jpg,AFNE05.jpg,FN,3,num_8,32,num_4,0.350009862799,,,2017_Nov_13_1450,59.9923225445,MAFE4ImagesEEG,001,202348,
AFNE01.JPG,AFNE01.JPG,AFNE01.JPG,AFNE01.JPG,AFNE01.JPG,AFNE01.JPG,,,,,,,,,,,,,1,6,16,0,,,,,,,,,,,AFNE01.jpg,AFSA20.jpg,AFSA01.jpg,AFNE12.jpg,AFNE01.jpg,FN,3,num_8,32,num_2,0.783489613328,,,2017_Nov_13_1450,59.9923225445,MAFE4ImagesEEG,001,202348,
AFNE01.JPG,AFNE01.JPG,AFNE01.JPG,AFNE01.JPG,AFNE01.JPG,AFNE01.JPG,,,,,,,,,,,,,1,7,17,5,,,,,,,,,,,AFSA13.jpg,AFNE20.jpg,AFSA12.jpg,AFNE04.jpg,AFSA13.jpg,FS,4,num_8,16,num_8,0.633484882768,,,2017_Nov_13_1450,59.9923225445,MAFE4ImagesEEG,001,202348,
AFNE01.JPG,AFNE01.JPG,AFNE01.JPG,AFNE01.JPG,AFNE01.JPG,AFNE01.JPG,,,,,,,,,,,,,1,8,18,9,,,,,,,,,,,AFSA09.jpg,AFSA03.jpg,AFNE01.jpg,AFNE07.jpg,AFNE07.jpg,FN,3,num_4,32,num_6,0.416802259628,,,2017_Nov_13_1450,59.9923225445,MAFE4ImagesEEG,001,202348,
AFNE01.JPG,AFNE01.JPG,AFNE01.JPG,AFNE01.JPG,AFNE01.JPG,AFNE01.JPG,,,,,,,,,,,,,1,9,19,8,,,,,,,,,,,AFSA04.jpg,AFNE14.jpg,AFSA08.jpg,AFNE17.jpg,AFSA04.jpg,FS,4,num_8,16,num_8,0.433557048906,,,2017_Nov_13_1450,59.9923225445,MAFE4ImagesEEG,001,202348,
AFNE01.JPG,AFNE01.JPG,AFNE01.JPG,AFNE01.JPG,AFNE01.JPG,AFNE01.JPG,,,,,,,,,,,,,2,0,20,6,,,,,,,,,,,AFSA15.jpg,AFNE12.jpg,AFSA02.jpg,AFNE16.jpg,AFNE12.jpg,FN,3,num_6,32,num_4,0.350141686853,,,2017_Nov_13_1450,59.9923225445,MAFE4ImagesEEG,001,202348,
AFNE01.JPG,AFNE01.JPG,AFNE01.JPG,AFNE01.JPG,AFNE01.JPG,AFNE01.JPG,,,,,,,,,,,,,2,1,21,4,,,,,,,,,,,AFNE01.jpg,AFSA11.jpg,AFNE16.jpg,AFSA10.jpg,AFSA11.jpg,FS,4,num_6,16,num_6,0.383464596234,,,2017_Nov_13_1450,59.9923225445,MAFE4ImagesEEG,001,202348,
AFNE01.JPG,AFNE01.JPG,AFNE01.JPG,AFNE01.JPG,AFNE01.JPG,AFNE01.JPG,,,,,,,,,,,,,2,2,22,0,,,,,,,,,,,AFSA09.jpg,AFNE08.jpg,AFSA13.jpg,AFNE20.jpg,AFNE08.jpg,FN,3,num_6,32,num_2,0.500224998686,,,2017_Nov_13_1450,59.9923225445,MAFE4ImagesEEG,001,202348,
AFNE01.JPG,AFNE01.JPG,AFNE01.JPG,AFNE01.JPG,AFNE01.JPG,AFNE01.JPG,,,,,,,,,,,,,2,3,23,5,,,,,,,,,,,AFSA20.jpg,AFSA11.jpg,AFNE17.jpg,AFNE06.jpg,AFNE06.jpg,FN,3,num_4,32,num_8,0.500279203989,,,2017_Nov_13_1450,59.9923225445,MAFE4ImagesEEG,001,202348,
AFNE01.JPG,AFNE01.JPG,AFNE01.JPG,AFNE01.JPG,AFNE01.JPG,AFNE01.JPG,,,,,,,,,,,,,2,4,24,7,,,,,,,,,,,AFNE18.jpg,AFSA16.jpg,AFNE05.jpg,AFSA11.jpg,AFSA16.jpg,FS,4,num_6,32,num_2,0.383543497883,,,2017_Nov_13_1450,59.9923225445,MAFE4ImagesEEG,001,202348,
AFNE01.JPG,AFNE01.JPG,AFNE01.JPG,AFNE01.JPG,AFNE01.JPG,AFNE01.JPG,,,,,,,,,,,,,2,5,25,2,,,,,,,,,,,AFSA11.jpg,AFSA18.jpg,AFNE05.jpg,AFNE12.jpg,AFNE12.jpg,FN,3,num_4,16,num_4,0.466827357188,,,2017_Nov_13_1450,59.9923225445,MAFE4ImagesEEG,001,202348,
AFNE01.JPG,AFNE01.JPG,AFNE01.JPG,AFNE01.JPG,AFNE01.JPG,AFNE01.JPG,,,,,,,,,,,,,2,6,26,8,,,,,,,,,,,AFNE14.jpg,AFNE12.jpg,AFSA16.jpg,AFSA01.jpg,AFSA16.jpg,FS,4,num_2,32,num_8,0.650126772467,,,2017_Nov_13_1450,59.9923225445,MAFE4ImagesEEG,001,202348,
AFNE01.JPG,AFNE01.JPG,AFNE01.JPG,AFNE01.JPG,AFNE01.JPG,AFNE01.JPG,,,,,,,,,,,,,2,7,27,1,,,,,,,,,,,AFSA14.jpg,AFSA20.jpg,AFNE15.jpg,AFNE20.jpg,AFSA14.jpg,FS,4,num_8,32,num_2,0.383547025733,,,2017_Nov_13_1450,59.9923225445,MAFE4ImagesEEG,001,202348,
AFNE01.JPG,AFNE01.JPG,AFNE01.JPG,AFNE01.JPG,AFNE01.JPG,AFNE01.JPG,,,,,,,,,,,,,2,8,28,9,,,,,,,,,,,AFSA09.jpg,AFNE04.jpg,AFNE20.jpg,AFSA15.jpg,AFSA15.jpg,FS,4,num_4,32,num_6,0.31681781495,,,2017_Nov_13_1450,59.9923225445,MAFE4ImagesEEG,001,202348,
AFNE01.JPG,AFNE01.JPG,AFNE01.JPG,AFNE01.JPG,AFNE01.JPG,AFNE01.JPG,,,,,,,,,,,,,2,9,29,3,,,,,,,,,,,AFNE12.jpg,AFNE18.jpg,AFSA07.jpg,AFSA01.jpg,AFNE12.jpg,FN,3,num_8,16,num_8,0.500118833967,,,2017_Nov_13_1450,59.9923225445,MAFE4ImagesEEG,001,202348,
AFNE01.JPG,AFNE01.JPG,AFNE01.JPG,AFNE01.JPG,AFNE01.JPG,AFNE01.JPG,,,,,,,,,,,,,3,0,30,2,,,,,,,,,,,AFSA02.jpg,AFNE02.jpg,AFNE19.jpg,AFSA15.jpg,AFSA15.jpg,FS,4,num_4,16,num_4,0.33350685332,,,2017_Nov_13_1450,59.9923225445,MAFE4ImagesEEG,001,202348,
AFNE01.JPG,AFNE01.JPG,AFNE01.JPG,AFNE01.JPG,AFNE01.JPG,AFNE01.JPG,,,,,,,,,,,,,3,1,31,4,,,,,,,,,,,AFSA01.jpg,AFSA08.jpg,AFNE17.jpg,AFNE03.jpg,AFSA01.jpg,FS,4,num_8,32,num_6,0.466814206913,,,2017_Nov_13_1450,59.9923225445,MAFE4ImagesEEG,001,202348,
AFNE01.JPG,AFNE01.JPG,AFNE01.JPG,AFNE01.JPG,AFNE01.JPG,AFNE01.JPG,,,,,,,,,,,,,3,2,32,9,,,,,,,,,,,AFNE19.jpg,AFSA11.jpg,AFNE18.jpg,AFSA07.jpg,AFNE19.jpg,FN,3,num_8,16,num_8,0.283533715177,,,2017_Nov_13_1450,59.9923225445,MAFE4ImagesEEG,001,202348,
AFNE01.JPG,AFNE01.JPG,AFNE01.JPG,AFNE01.JPG,AFNE01.JPG,AFNE01.JPG,,,,,,,,,,,,,3,3,33,5,,,,,,,,,,,AFNE02.jpg,AFSA06.jpg,AFNE20.jpg,AFSA07.jpg,AFNE02.jpg,FN,3,num_8,32,num_2,0.716787665617,,,2017_Nov_13_1450,59.9923225445,MAFE4ImagesEEG,001,202348,
AFNE01.JPG,AFNE01.JPG,AFNE01.JPG,AFNE01.JPG,AFNE01.JPG,AFNE01.JPG,,,,,,,,,,,,,3,4,34,3,,,,,,,,,,,AFSA13.jpg,AFNE18.jpg,AFSA08.jpg,AFNE09.jpg,AFSA13.jpg,FS,4,num_8,32,num_6,0.700214414392,,,2017_Nov_13_1450,59.9923225445,MAFE4ImagesEEG,001,202348,
AFNE01.JPG,AFNE01.JPG,AFNE01.JPG,AFNE01.JPG,AFNE01.JPG,AFNE01.JPG,,,,,,,,,,,,,3,5,35,1,,,,,,,,,,,AFSA19.jpg,AFNE16.jpg,AFNE10.jpg,AFSA04.jpg,AFSA04.jpg,FS,4,num_4,32,num_8,0.466882524081,,,2017_Nov_13_1450,59.9923225445,MAFE4ImagesEEG,001,202348,
AFNE01.JPG,AFNE01.JPG,AFNE01.JPG,AFNE01.JPG,AFNE01.JPG,AFNE01.JPG,,,,,,,,,,,,,3,6,36,6,,,,,,,,,,,AFSA15.jpg,AFSA03.jpg,AFNE03.jpg,AFNE17.jpg,AFNE17.jpg,FN,3,num_4,32,num_2,0.683511263691,,,2017_Nov_13_1450,59.9923225445,MAFE4ImagesEEG,001,202348,
AFNE01.JPG,AFNE01.JPG,AFNE01.JPG,AFNE01.JPG,AFNE01.JPG,AFNE01.JPG,,,,,,,,,,,,,3,7,37,7,,,,,,,,,,,AFNE10.jpg,AFSA03.jpg,AFNE05.jpg,AFSA19.jpg,AFSA19.jpg,FS,4,num_4,32,num_6,0.483509659767,,,2017_Nov_13_1450,59.9923225445,MAFE4ImagesEEG,001,202348,
AFNE01.JPG,AFNE01.JPG,AFNE01.JPG,AFNE01.JPG,AFNE01.JPG,AFNE01.JPG,,,,,,,,,,,,,3,8,38,8,,,,,,,,,,,AFSA05.jpg,AFNE03.jpg,AFSA13.jpg,AFNE02.jpg,AFNE02.jpg,FN,3,num_4,16,num_4,0.616796165239,,,2017_Nov_13_1450,59.9923225445,MAFE4ImagesEEG,001,202348,
AFNE01.JPG,AFNE01.JPG,AFNE01.JPG,AFNE01.JPG,AFNE01.JPG,AFNE01.JPG,,,,,,,,,,,,,3,9,39,0,,,,,,,,,,,AFNE07.jpg,AFSA15.jpg,AFNE04.jpg,AFSA08.jpg,AFSA15.jpg,FS,4,num_6,16,num_6,0.717163572088,,,2017_Nov_13_1450,59.9923225445,MAFE4ImagesEEG,001,202348,
AFNE01.JPG,AFNE01.JPG,AFNE01.JPG,AFNE01.JPG,AFNE01.JPG,AFNE01.JPG,,,,,,,,,,,,,4,0,40,4,,,,,,,,,,,AFNE14.jpg,AFSA18.jpg,AFNE17.jpg,AFSA16.jpg,AFNE17.jpg,FN,3,num_2,16,num_2,0.766726163682,,,2017_Nov_13_1450,59.9923225445,MAFE4ImagesEEG,001,202348,
AFNE01.JPG,AFNE01.JPG,AFNE01.JPG,AFNE01.JPG,AFNE01.JPG,AFNE01.JPG,,,,,,,,,,,,,4,1,41,9,,,,,,,,,,,AFNE03.jpg,AFNE06.jpg,AFSA18.jpg,AFSA13.jpg,AFNE06.jpg,FN,3,num_6,32,num_8,1.03345216718,,,2017_Nov_13_1450,59.9923225445,MAFE4ImagesEEG,001,202348,
AFNE01.JPG,AFNE01.JPG,AFNE01.JPG,AFNE01.JPG,AFNE01.JPG,AFNE01.JPG,,,,,,,,,,,,,4,2,42,5,,,,,,,,,,,AFNE10.jpg,AFSA12.jpg,AFSA10.jpg,AFNE01.jpg,AFNE10.jpg,FN,3,num_8,32,num_4,0.766747011803,,,2017_Nov_13_1450,59.9923225445,MAFE4ImagesEEG,001,202348,
AFNE01.JPG,AFNE01.JPG,AFNE01.JPG,AFNE01.JPG,AFNE01.JPG,AFNE01.JPG,,,,,,,,,,,,,4,3,43,1,,,,,,,,,,,AFNE12.jpg,AFSA05.jpg,AFSA09.jpg,AFNE08.jpg,AFSA05.jpg,FS,4,num_6,32,num_2,0.466827036813,,,2017_Nov_13_1450,59.9923225445,MAFE4ImagesEEG,001,202348,
AFNE01.JPG,AFNE01.JPG,AFNE01.JPG,AFNE01.JPG,AFNE01.JPG,AFNE01.JPG,,,,,,,,,,,,,4,4,44,6,,,,,,,,,,,AFSA07.jpg,AFNE19.jpg,AFNE03.jpg,AFSA17.jpg,AFSA07.jpg,FS,4,num_8,16,num_8,0.283493943512,,,2017_Nov_13_1450,59.9923225445,MAFE4ImagesEEG,001,202348,
AFNE01.JPG,AFNE01.JPG,AFNE01.JPG,AFNE01.JPG,AFNE01.JPG,AFNE01.JPG,,,,,,,,,,,,,4,5,45,0,,,,,,,,,,,AFNE02.jpg,AFNE04.jpg,AFSA13.jpg,AFSA20.jpg,AFSA20.jpg,FS,4,num_4,32,num_2,0.31683449354,,,2017_Nov_13_1450,59.9923225445,MAFE4ImagesEEG,001,202348,
AFNE01.JPG,AFNE01.JPG,AFNE01.JPG,AFNE01.JPG,AFNE01.JPG,AFNE01.JPG,,,,,,,,,,,,,4,6,46,7,,,,,,,,,,,AFNE02.jpg,AFNE17.jpg,AFSA19.jpg,AFSA04.jpg,AFSA04.jpg,FS,4,num_4,32,num_8,0.0835465453565,,,2017_Nov_13_1450,59.9923225445,MAFE4ImagesEEG,001,202348,
AFNE01.JPG,AFNE01.JPG,AFNE01.JPG,AFNE01.JPG,AFNE01.JPG,AFNE01.JPG,,,,,,,,,,,,,4,7,47,8,,,,,,,,,,,AFSA12.jpg,AFSA17.jpg,AFNE03.jpg,AFNE09.jpg,AFNE09.jpg,FN,3,num_4,32,num_2,0.766810518224,,,2017_Nov_13_1450,59.9923225445,MAFE4ImagesEEG,001,202348,
AFNE01.JPG,AFNE01.JPG,AFNE01.JPG,AFNE01.JPG,AFNE01.JPG,AFNE01.JPG,,,,,,,,,,,,,4,8,48,3,,,,,,,,,,,AFSA17.jpg,AFNE13.jpg,AFNE05.jpg,AFSA10.jpg,AFSA17.jpg,FS,4,num_8,32,num_4,0.516784779262,,,2017_Nov_13_1450,59.9923225445,MAFE4ImagesEEG,001,202348,
AFNE01.JPG,AFNE01.JPG,AFNE01.JPG,AFNE01.JPG,AFNE01.JPG,AFNE01.JPG,,,,,,,,,,,,,4,9,49,2,,,,,,,,,,,AFNE15.jpg,AFSA05.jpg,AFNE01.jpg,AFSA10.jpg,AFNE15.jpg,FN,3,num_8,32,num_2,0.316857265774,,,2017_Nov_13_1450,59.9923225445,MAFE4ImagesEEG,001,202348,
AFNE01.JPG,AFNE01.JPG,AFNE01.JPG,AFNE01.JPG,AFNE01.JPG,AFNE01.JPG,,,,,,,,,,,,,5,0,50,2,,,,,,,,,,,AFSA06.jpg,AFNE17.jpg,AFSA02.jpg,AFNE15.jpg,AFSA02.jpg,FS,4,num_2,32,num_8,0.450214013457,,,2017_Nov_13_1450,59.9923225445,MAFE4ImagesEEG,001,202348,
AFNE01.JPG,AFNE01.JPG,AFNE01.JPG,AFNE01.JPG,AFNE01.JPG,AFNE01.JPG,,,,,,,,,,,,,5,1,51,1,,,,,,,,,,,AFSA06.jpg,AFNE03.jpg,AFNE13.jpg,AFSA04.jpg,AFSA06.jpg,FS,4,num_8,32,num_4,0.433493863326,,,2017_Nov_13_1450,59.9923225445,MAFE4ImagesEEG,001,202348,
AFNE01.JPG,AFNE01.JPG,AFNE01.JPG,AFNE01.JPG,AFNE01.JPG,AFNE01.JPG,,,,,,,,,,,,,5,2,52,9,,,,,,,,,,,AFSA07.jpg,AFSA14.jpg,AFNE04.jpg,AFNE14.jpg,AFSA07.jpg,FS,4,num_8,16,num_8,0.283468605019,,,2017_Nov_13_1450,59.9923225445,MAFE4ImagesEEG,001,202348,
AFNE01.JPG,AFNE01.JPG,AFNE01.JPG,AFNE01.JPG,AFNE01.JPG,AFNE01.JPG,,,,,,,,,,,,,5,3,53,7,,,,,,,,,,,AFNE01.jpg,AFSA09.jpg,AFNE16.jpg,AFSA05.jpg,AFNE16.jpg,FN,3,num_2,32,num_6,0.850116187707,,,2017_Nov_13_1450,59.9923225445,MAFE4ImagesEEG,001,202348,
AFNE01.JPG,AFNE01.JPG,AFNE01.JPG,AFNE01.JPG,AFNE01.JPG,AFNE01.JPG,,,,,,,,,,,,,5,4,54,3,,,,,,,,,,,AFSA16.jpg,AFNE16.jpg,AFSA20.jpg,AFNE10.jpg,AFSA20.jpg,FS,4,num_2,16,num_2,0.300341106486,,,2017_Nov_13_1450,59.9923225445,MAFE4ImagesEEG,001,202348,
AFNE01.JPG,AFNE01.JPG,AFNE01.JPG,AFNE01.JPG,AFNE01.JPG,AFNE01.JPG,,,,,,,,,,,,,5,5,55,6,,,,,,,,,,,AFNE11.jpg,AFSA14.jpg,AFSA12.jpg,AFNE16.jpg,AFSA14.jpg,FS,4,num_6,32,num_4,0.300263487268,,,2017_Nov_13_1450,59.9923225445,MAFE4ImagesEEG,001,202348,
AFNE01.JPG,AFNE01.JPG,AFNE01.JPG,AFNE01.JPG,AFNE01.JPG,AFNE01.JPG,,,,,,,,,,,,,5,6,56,0,,,,,,,,,,,AFNE08.jpg,AFSA03.jpg,AFNE18.jpg,AFSA02.jpg,AFSA02.jpg,FS,4,num_4,32,num_2,0.316817494575,,,2017_Nov_13_1450,59.9923225445,MAFE4ImagesEEG,001,202348,
AFNE01.JPG,AFNE01.JPG,AFNE01.JPG,AFNE01.JPG,AFNE01.JPG,AFNE01.JPG,,,,,,,,,,,,,5,7,57,5,,,,,,,,,,,AFNE19.jpg,AFSA16.jpg,AFSA17.jpg,AFNE14.jpg,AFSA17.jpg,FS,4,num_2,32,num_8,0.183502443135,,,2017_Nov_13_1450,59.9923225445,MAFE4ImagesEEG,001,202348,
AFNE01.JPG,AFNE01.JPG,AFNE01.JPG,AFNE01.JPG,AFNE01.JPG,AFNE01.JPG,,,,,,,,,,,,,5,8,58,8,,,,,,,,,,,AFNE02.jpg,AFSA18.jpg,AFNE16.jpg,AFSA01.jpg,AFSA01.jpg,FS,4,num_4,32,num_6,0.333471572027,,,2017_Nov_13_1450,59.9923225445,MAFE4ImagesEEG,001,202348,
AFNE01.JPG,AFNE01.JPG,AFNE01.JPG,AFNE01.JPG,AFNE01.JPG,AFNE01.JPG,,,,,,,,,,,,,5,9,59,4,,,,,,,,,,,AFSA16.jpg,AFNE01.jpg,AFNE11.jpg,AFSA06.jpg,AFSA16.jpg,FS,4,num_8,32,num_2,0.533510060515,,,2017_Nov_13_1450,59.9923225445,MAFE4ImagesEEG,001,202348,
,,,,,,,,,,,,,,,,,,,,,,,,,,,,,,,,,,,,,,,,,,,space,37.8802326643,2017_Nov_13_1450,59.9923225445,MAFE4ImagesEEG,001,202348,
AFNE01.JPG,AFNE01.JPG,AFNE01.JPG,AFNE01.JPG,AFNE01.JPG,AFNE01.JPG,,,,,,,,,,,,,,,,,0,0,0,4,,,,,,,AMSA14.jpg,AMNE19.jpg,AMNE01.jpg,AMSA03.jpg,AMNE19.jpg,MN,1,num_6,16,num_6,0.883477586322,,,2017_Nov_13_1450,59.9923225445,MAFE4ImagesEEG,001,202348,
AFNE01.JPG,AFNE01.JPG,AFNE01.JPG,AFNE01.JPG,AFNE01.JPG,AFNE01.JPG,,,,,,,,,,,,,,,,,0,1,1,9,,,,,,,AMSA16.jpg,AMSA12.jpg,AMNE11.jpg,AMNE19.jpg,AMSA12.jpg,MS,2,num_6,32,num_2,0.450253785122,,,2017_Nov_13_1450,59.9923225445,MAFE4ImagesEEG,001,202348,
AFNE01.JPG,AFNE01.JPG,AFNE01.JPG,AFNE01.JPG,AFNE01.JPG,AFNE01.JPG,,,,,,,,,,,,,,,,,0,2,2,3,,,,,,,AMNE03.jpg,AMNE05.jpg,AMSA17.jpg,AMSA08.jpg,AMNE03.jpg,MN,1,num_8,16,num_8,0.283487208188,,,2017_Nov_13_1450,59.9923225445,MAFE4ImagesEEG,001,202348,
AFNE01.JPG,AFNE01.JPG,AFNE01.JPG,AFNE01.JPG,AFNE01.JPG,AFNE01.JPG,,,,,,,,,,,,,,,,,0,3,3,0,,,,,,,AMNE12.jpg,AMSA10.jpg,AMNE15.jpg,AMSA18.jpg,AMNE12.jpg,MN,1,num_8,32,num_4,0.350150667131,,,2017_Nov_13_1450,59.9923225445,MAFE4ImagesEEG,001,202348,
AFNE01.JPG,AFNE01.JPG,AFNE01.JPG,AFNE01.JPG,AFNE01.JPG,AFNE01.JPG,,,,,,,,,,,,,,,,,0,4,4,1,,,,,,,AMSA08.jpg,AMNE08.jpg,AMSA19.jpg,AMNE14.jpg,AMSA19.jpg,MS,2,num_2,16,num_2,0.36675984133,,,2017_Nov_13_1450,59.9923225445,MAFE4ImagesEEG,001,202348,
AFNE01.JPG,AFNE01.JPG,AFNE01.JPG,AFNE01.JPG,AFNE01.JPG,AFNE01.JPG,,,,,,,,,,,,,,,,,0,5,5,2,,,,,,,AMNE07.jpg,AMSA14.jpg,AMSA07.jpg,AMNE09.jpg,AMSA14.jpg,MS,2,num_6,16,num_6,0.366817574482,,,2017_Nov_13_1450,59.9923225445,MAFE4ImagesEEG,001,202348,
AFNE01.JPG,AFNE01.JPG,AFNE01.JPG,AFNE01.JPG,AFNE01.JPG,AFNE01.JPG,,,,,,,,,,,,,,,,,0,6,6,5,,,,,,,AMNE05.jpg,AMSA13.jpg,AMNE18.jpg,AMSA06.jpg,AMSA06.jpg,MS,2,num_4,32,num_8,0.350197816268,,,2017_Nov_13_1450,59.9923225445,MAFE4ImagesEEG,001,202348,
AFNE01.JPG,AFNE01.JPG,AFNE01.JPG,AFNE01.JPG,AFNE01.JPG,AFNE01.JPG,,,,,,,,,,,,,,,,,0,7,7,6,,,,,,,AMNE11.jpg,AMSA08.jpg,AMNE18.jpg,AMSA05.jpg,AMNE11.jpg,MN,1,num_8,32,num_2,0.450270142872,,,2017_Nov_13_1450,59.9923225445,MAFE4ImagesEEG,001,202348,
AFNE01.JPG,AFNE01.JPG,AFNE01.JPG,AFNE01.JPG,AFNE01.JPG,AFNE01.JPG,,,,,,,,,,,,,,,,,0,8,8,8,,,,,,,AMSA19.jpg,AMSA17.jpg,AMNE18.jpg,AMNE20.jpg,AMNE18.jpg,MN,1,num_2,32,num_4,0.283493943512,,,2017_Nov_13_1450,59.9923225445,MAFE4ImagesEEG,001,202348,
AFNE01.JPG,AFNE01.JPG,AFNE01.JPG,AFNE01.JPG,AFNE01.JPG,AFNE01.JPG,,,,,,,,,,,,,,,,,0,9,9,7,,,,,,,AMNE01.jpg,AMSA05.jpg,AMNE18.jpg,AMSA03.jpg,AMNE18.jpg,MN,1,num_2,16,num_2,0.683513187803,,,2017_Nov_13_1450,59.9923225445,MAFE4ImagesEEG,001,202348,
AFNE01.JPG,AFNE01.JPG,AFNE01.JPG,AFNE01.JPG,AFNE01.JPG,AFNE01.JPG,,,,,,,,,,,,,,,,,1,0,10,9,,,,,,,AMSA16.jpg,AMNE20.jpg,AMSA07.jpg,AMNE05.jpg,AMSA16.jpg,MS,2,num_8,16,num_8,0.316877793521,,,2017_Nov_13_1450,59.9923225445,MAFE4ImagesEEG,001,202348,
AFNE01.JPG,AFNE01.JPG,AFNE01.JPG,AFNE01.JPG,AFNE01.JPG,AFNE01.JPG,,,,,,,,,,,,,,,,,1,1,11,4,,,,,,,AMNE01.jpg,AMSA08.jpg,AMNE15.jpg,AMSA10.jpg,AMNE15.jpg,MN,1,num_2,32,num_6,0.283476302866,,,2017_Nov_13_1450,59.9923225445,MAFE4ImagesEEG,001,202348,
AFNE01.JPG,AFNE01.JPG,AFNE01.JPG,AFNE01.JPG,AFNE01.JPG,AFNE01.JPG,,,,,,,,,,,,,,,,,1,2,12,3,,,,,,,AMNE14.jpg,AMNE06.jpg,AMSA01.jpg,AMSA03.jpg,AMNE14.jpg,MN,1,num_8,32,num_4,0.383489613421,,,2017_Nov_13_1450,59.9923225445,MAFE4ImagesEEG,001,202348,
AFNE01.JPG,AFNE01.JPG,AFNE01.JPG,AFNE01.JPG,AFNE01.JPG,AFNE01.JPG,,,,,,,,,,,,,,,,,1,3,13,5,,,,,,,AMSA01.jpg,AMNE12.jpg,AMNE13.jpg,AMSA14.jpg,AMSA14.jpg,MS,2,num_4,16,num_4,0.550026220735,,,2017_Nov_13_1450,59.9923225445,MAFE4ImagesEEG,001,202348,
AFNE01.JPG,AFNE01.JPG,AFNE01.JPG,AFNE01.JPG,AFNE01.JPG,AFNE01.JPG,,,,,,,,,,,,,,,,,1,4,14,0,,,,,,,AMSA16.jpg,AMNE16.jpg,AMSA18.jpg,AMNE15.jpg,AMSA16.jpg,MS,2,num_8,32,num_2,0.400196934119,,,2017_Nov_13_1450,59.9923225445,MAFE4ImagesEEG,001,202348,
AFNE01.JPG,AFNE01.JPG,AFNE01.JPG,AFNE01.JPG,AFNE01.JPG,AFNE01.JPG,,,,,,,,,,,,,,,,,1,5,15,2,,,,,,,AMNE09.jpg,AMSA10.jpg,AMNE05.jpg,AMSA11.jpg,AMSA11.jpg,MS,2,num_4,32,num_8,0.300221150275,,,2017_Nov_13_1450,59.9923225445,MAFE4ImagesEEG,001,202348,
AFNE01.JPG,AFNE01.JPG,AFNE01.JPG,AFNE01.JPG,AFNE01.JPG,AFNE01.JPG,,,,,,,,,,,,,,,,,1,6,16,1,,,,,,,AMSA07.jpg,AMNE18.jpg,AMSA01.jpg,AMNE10.jpg,AMSA01.jpg,MS,2,num_2,16,num_2,0.866741719656,,,2017_Nov_13_1450,59.9923225445,MAFE4ImagesEEG,001,202348,
AFNE01.JPG,AFNE01.JPG,AFNE01.JPG,AFNE01.JPG,AFNE01.JPG,AFNE01.JPG,,,,,,,,,,,,,,,,,1,7,17,7,,,,,,,AMNE14.jpg,AMSA09.jpg,AMNE15.jpg,AMSA07.jpg,AMSA07.jpg,MS,2,num_4,16,num_4,0.616807070561,,,2017_Nov_13_1450,59.9923225445,MAFE4ImagesEEG,001,202348,
AFNE01.JPG,AFNE01.JPG,AFNE01.JPG,AFNE01.JPG,AFNE01.JPG,AFNE01.JPG,,,,,,,,,,,,,,,,,1,8,18,8,,,,,,,AMSA06.jpg,AMSA12.jpg,AMNE04.jpg,AMNE10.jpg,AMNE10.jpg,MN,1,num_4,32,num_8,0.500150266569,,,2017_Nov_13_1450,59.9923225445,MAFE4ImagesEEG,001,202348,
AFNE01.JPG,AFNE01.JPG,AFNE01.JPG,AFNE01.JPG,AFNE01.JPG,AFNE01.JPG,,,,,,,,,,,,,,,,,1,9,19,6,,,,,,,AMNE12.jpg,AMSA13.jpg,AMNE01.jpg,AMSA19.jpg,AMNE01.jpg,MN,1,num_2,16,num_2,0.333497551735,,,2017_Nov_13_1450,59.9923225445,MAFE4ImagesEEG,001,202348,
AFNE01.JPG,AFNE01.JPG,AFNE01.JPG,AFNE01.JPG,AFNE01.JPG,AFNE01.JPG,,,,,,,,,,,,,,,,,2,0,20,2,,,,,,,AMSA14.jpg,AMSA16.jpg,AMNE17.jpg,AMNE04.jpg,AMNE17.jpg,MN,1,num_2,32,num_4,0.350178892259,,,2017_Nov_13_1450,59.9923225445,MAFE4ImagesEEG,001,202348,
AFNE01.JPG,AFNE01.JPG,AFNE01.JPG,AFNE01.JPG,AFNE01.JPG,AFNE01.JPG,,,,,,,,,,,,,,,,,2,1,21,6,,,,,,,AMNE07.jpg,AMSA19.jpg,AMNE10.jpg,AMSA13.jpg,AMSA19.jpg,MS,2,num_6,32,num_8,0.333488891833,,,2017_Nov_13_1450,59.9923225445,MAFE4ImagesEEG,001,202348,
AFNE01.JPG,AFNE01.JPG,AFNE01.JPG,AFNE01.JPG,AFNE01.JPG,AFNE01.JPG,,,,,,,,,,,,,,,,,2,2,22,8,,,,,,,AMSA03.jpg,AMNE18.jpg,AMSA19.jpg,AMNE17.jpg,AMNE17.jpg,MN,1,num_4,32,num_2,0.466843394097,,,2017_Nov_13_1450,59.9923225445,MAFE4ImagesEEG,001,202348,
AFNE01.JPG,AFNE01.JPG,AFNE01.JPG,AFNE01.JPG,AFNE01.JPG,AFNE01.JPG,,,,,,,,,,,,,,,,,2,3,23,0,,,,,,,AMNE19.jpg,AMSA19.jpg,AMNE04.jpg,AMSA10.jpg,AMSA19.jpg,MS,2,num_6,16,num_6,0.383496028371,,,2017_Nov_13_1450,59.9923225445,MAFE4ImagesEEG,001,202348,
AFNE01.JPG,AFNE01.JPG,AFNE01.JPG,AFNE01.JPG,AFNE01.JPG,AFNE01.JPG,,,,,,,,,,,,,,,,,2,4,24,5,,,,,,,AMNE19.jpg,AMNE03.jpg,AMSA06.jpg,AMSA11.jpg,AMSA11.jpg,MS,2,num_4,32,num_8,0.483549431432,,,2017_Nov_13_1450,59.9923225445,MAFE4ImagesEEG,001,202348,
AFNE01.JPG,AFNE01.JPG,AFNE01.JPG,AFNE01.JPG,AFNE01.JPG,AFNE01.JPG,,,,,,,,,,,,,,,,,2,5,25,3,,,,,,,AMSA15.jpg,AMNE13.jpg,AMNE19.jpg,AMSA05.jpg,AMSA15.jpg,MS,2,num_8,32,num_2,0.316823267378,,,2017_Nov_13_1450,59.9923225445,MAFE4ImagesEEG,001,202348,
AFNE01.JPG,AFNE01.JPG,AFNE01.JPG,AFNE01.JPG,AFNE01.JPG,AFNE01.JPG,,,,,,,,,,,,,,,,,2,6,26,7,,,,,,,AMSA08.jpg,AMNE17.jpg,AMNE15.jpg,AMSA16.jpg,AMSA08.jpg,MS,2,num_8,16,num_8,0.366840668023,,,2017_Nov_13_1450,59.9923225445,MAFE4ImagesEEG,001,202348,
AFNE01.JPG,AFNE01.JPG,AFNE01.JPG,AFNE01.JPG,AFNE01.JPG,AFNE01.JPG,,,,,,,,,,,,,,,,,2,7,27,4,,,,,,,AMNE03.jpg,AMSA06.jpg,AMNE20.jpg,AMSA17.jpg,AMSA06.jpg,MS,2,num_6,32,num_4,0.366813404951,,,2017_Nov_13_1450,59.9923225445,MAFE4ImagesEEG,001,202348,
AFNE01.JPG,AFNE01.JPG,AFNE01.JPG,AFNE01.JPG,AFNE01.JPG,AFNE01.JPG,,,,,,,,,,,,,,,,,2,8,28,9,,,,,,,AMNE16.jpg,AMSA20.jpg,AMSA06.jpg,AMNE14.jpg,AMSA20.jpg,MS,2,num_6,32,num_2,0.233565388247,,,2017_Nov_13_1450,59.9923225445,MAFE4ImagesEEG,001,202348,
AFNE01.JPG,AFNE01.JPG,AFNE01.JPG,AFNE01.JPG,AFNE01.JPG,AFNE01.JPG,,,,,,,,,,,,,,,,,2,9,29,1,,,,,,,AMNE20.jpg,AMSA07.jpg,AMSA17.jpg,AMNE15.jpg,AMNE20.jpg,MN,1,num_8,16,num_8,0.416825031862,,,2017_Nov_13_1450,59.9923225445,MAFE4ImagesEEG,001,202348,
AFNE01.JPG,AFNE01.JPG,AFNE01.JPG,AFNE01.JPG,AFNE01.JPG,AFNE01.JPG,,,,,,,,,,,,,,,,,3,0,30,3,,,,,,,AMSA19.jpg,AMNE07.jpg,AMNE05.jpg,AMSA13.jpg,AMNE05.jpg,MN,1,num_2,32,num_4,0.466792717576,,,2017_Nov_13_1450,59.9923225445,MAFE4ImagesEEG,001,202348,
AFNE01.JPG,AFNE01.JPG,AFNE01.JPG,AFNE01.JPG,AFNE01.JPG,AFNE01.JPG,,,,,,,,,,,,,,,,,3,1,31,1,,,,,,,AMNE20.jpg,AMSA13.jpg,AMSA12.jpg,AMNE07.jpg,AMSA12.jpg,MS,2,num_2,16,num_2,0.550157402642,,,2017_Nov_13_1450,59.9923225445,MAFE4ImagesEEG,001,202348,
AFNE01.JPG,AFNE01.JPG,AFNE01.JPG,AFNE01.JPG,AFNE01.JPG,AFNE01.JPG,,,,,,,,,,,,,,,,,3,2,32,8,,,,,,,AMSA18.jpg,AMNE02.jpg,AMNE07.jpg,AMSA10.jpg,AMNE07.jpg,MN,1,num_2,32,num_8,0.450028946623,,,2017_Nov_13_1450,59.9923225445,MAFE4ImagesEEG,001,202348,
AFNE01.JPG,AFNE01.JPG,AFNE01.JPG,AFNE01.JPG,AFNE01.JPG,AFNE01.JPG,,,,,,,,,,,,,,,,,3,3,33,6,,,,,,,AMNE07.jpg,AMSA14.jpg,AMSA03.jpg,AMNE03.jpg,AMSA03.jpg,MS,2,num_2,16,num_2,0.500123645179,,,2017_Nov_13_1450,59.9923225445,MAFE4ImagesEEG,001,202348,
AFNE01.JPG,AFNE01.JPG,AFNE01.JPG,AFNE01.JPG,AFNE01.JPG,AFNE01.JPG,,,,,,,,,,,,,,,,,3,4,34,0,,,,,,,AMSA19.jpg,AMNE03.jpg,AMSA02.jpg,AMNE15.jpg,AMNE15.jpg,MN,1,num_4,32,num_8,0.550155478064,,,2017_Nov_13_1450,59.9923225445,MAFE4ImagesEEG,001,202348,
AFNE01.JPG,AFNE01.JPG,AFNE01.JPG,AFNE01.JPG,AFNE01.JPG,AFNE01.JPG,,,,,,,,,,,,,,,,,3,5,35,2,,,,,,,AMNE04.jpg,AMSA09.jpg,AMNE05.jpg,AMSA19.jpg,AMSA09.jpg,MS,2,num_6,32,num_4,0.433563463856,,,2017_Nov_13_1450,59.9923225445,MAFE4ImagesEEG,001,202348,
AFNE01.JPG,AFNE01.JPG,AFNE01.JPG,AFNE01.JPG,AFNE01.JPG,AFNE01.JPG,,,,,,,,,,,,,,,,,3,6,36,9,,,,,,,AMNE13.jpg,AMNE17.jpg,AMSA08.jpg,AMSA09.jpg,AMNE13.jpg,MN,1,num_8,16,num_8,0.466807792429,,,2017_Nov_13_1450,59.9923225445,MAFE4ImagesEEG,001,202348,
AFNE01.JPG,AFNE01.JPG,AFNE01.JPG,AFNE01.JPG,AFNE01.JPG,AFNE01.JPG,,,,,,,,,,,,,,,,,3,7,37,4,,,,,,,AMSA10.jpg,AMNE10.jpg,AMNE06.jpg,AMSA03.jpg,AMNE06.jpg,MN,1,num_2,16,num_2,0.350241115782,,,2017_Nov_13_1450,59.9923225445,MAFE4ImagesEEG,001,202348,
AFNE01.JPG,AFNE01.JPG,AFNE01.JPG,AFNE01.JPG,AFNE01.JPG,AFNE01.JPG,,,,,,,,,,,,,,,,,3,8,38,7,,,,,,,AMSA10.jpg,AMSA01.jpg,AMNE07.jpg,AMNE14.jpg,AMNE14.jpg,MN,1,num_4,32,num_8,0.800143370405,,,2017_Nov_13_1450,59.9923225445,MAFE4ImagesEEG,001,202348,
AFNE01.JPG,AFNE01.JPG,AFNE01.JPG,AFNE01.JPG,AFNE01.JPG,AFNE01.JPG,,,,,,,,,,,,,,,,,3,9,39,5,,,,,,,AMSA06.jpg,AMNE05.jpg,AMSA19.jpg,AMNE08.jpg,AMNE05.jpg,MN,1,num_6,32,num_4,0.450150186196,,,2017_Nov_13_1450,59.9923225445,MAFE4ImagesEEG,001,202348,
AFNE01.JPG,AFNE01.JPG,AFNE01.JPG,AFNE01.JPG,AFNE01.JPG,AFNE01.JPG,,,,,,,,,,,,,,,,,4,0,40,4,,,,,,,AMSA11.jpg,AMNE12.jpg,AMNE04.jpg,AMSA16.jpg,AMNE04.jpg,MN,1,num_2,32,num_8,0.333517758176,,,2017_Nov_13_1450,59.9923225445,MAFE4ImagesEEG,001,202348,
AFNE01.JPG,AFNE01.JPG,AFNE01.JPG,AFNE01.JPG,AFNE01.JPG,AFNE01.JPG,,,,,,,,,,,,,,,,,4,1,41,8,,,,,,,AMNE01.jpg,AMNE13.jpg,AMSA05.jpg,AMSA17.jpg,AMSA17.jpg,MS,2,num_4,32,num_6,0.616793278139,,,2017_Nov_13_1450,59.9923225445,MAFE4ImagesEEG,001,202348,
AFNE01.JPG,AFNE01.JPG,AFNE01.JPG,AFNE01.JPG,AFNE01.JPG,AFNE01.JPG,,,,,,,,,,,,,,,,,4,2,42,1,,,,,,,AMSA15.jpg,AMNE19.jpg,AMNE06.jpg,AMSA10.jpg,AMNE19.jpg,MN,1,num_6,32,num_2,0.350140403956,,,2017_Nov_13_1450,59.9923225445,MAFE4ImagesEEG,001,202348,
AFNE01.JPG,AFNE01.JPG,AFNE01.JPG,AFNE01.JPG,AFNE01.JPG,AFNE01.JPG,,,,,,,,,,,,,,,,,4,3,43,0,,,,,,,AMNE09.jpg,AMNE14.jpg,AMSA20.jpg,AMSA07.jpg,AMSA20.jpg,MS,2,num_2,32,num_8,0.949801061302,,,2017_Nov_13_1450,59.9923225445,MAFE4ImagesEEG,001,202348,
AFNE01.JPG,AFNE01.JPG,AFNE01.JPG,AFNE01.JPG,AFNE01.JPG,AFNE01.JPG,,,,,,,,,,,,,,,,,4,4,44,7,,,,,,,AMSA10.jpg,AMSA01.jpg,AMNE02.jpg,AMNE03.jpg,AMNE03.jpg,MN,1,num_4,32,num_6,0.716815249529,,,2017_Nov_13_1450,59.9923225445,MAFE4ImagesEEG,001,202348,
AFNE01.JPG,AFNE01.JPG,AFNE01.JPG,AFNE01.JPG,AFNE01.JPG,AFNE01.JPG,,,,,,,,,,,,,,,,,4,5,45,5,,,,,,,AMSA19.jpg,AMNE03.jpg,AMNE16.jpg,AMSA16.jpg,AMSA19.jpg,MS,2,num_8,16,num_8,0.583543176763,,,2017_Nov_13_1450,59.9923225445,MAFE4ImagesEEG,001,202348,
AFNE01.JPG,AFNE01.JPG,AFNE01.JPG,AFNE01.JPG,AFNE01.JPG,AFNE01.JPG,,,,,,,,,,,,,,,,,4,6,46,2,,,,,,,AMNE02.jpg,AMSA08.jpg,AMSA10.jpg,AMNE07.jpg,AMSA08.jpg,MS,2,num_6,32,num_2,0.516779647209,,,2017_Nov_13_1450,59.9923225445,MAFE4ImagesEEG,001,202348,
AFNE01.JPG,AFNE01.JPG,AFNE01.JPG,AFNE01.JPG,AFNE01.JPG,AFNE01.JPG,,,,,,,,,,,,,,,,,4,7,47,3,,,,,,,AMSA16.jpg,AMNE09.jpg,AMNE08.jpg,AMSA17.jpg,AMNE09.jpg,MN,1,num_6,32,num_4,0.450114584528,,,2017_Nov_13_1450,59.9923225445,MAFE4ImagesEEG,001,202348,
AFNE01.JPG,AFNE01.JPG,AFNE01.JPG,AFNE01.JPG,AFNE01.JPG,AFNE01.JPG,,,,,,,,,,,,,,,,,4,8,48,6,,,,,,,AMSA01.jpg,AMNE09.jpg,AMNE02.jpg,AMSA16.jpg,AMSA01.jpg,MS,2,num_8,16,num_8,0.583502443507,,,2017_Nov_13_1450,59.9923225445,MAFE4ImagesEEG,001,202348,
AFNE01.JPG,AFNE01.JPG,AFNE01.JPG,AFNE01.JPG,AFNE01.JPG,AFNE01.JPG,,,,,,,,,,,,,,,,,4,9,49,9,,,,,,,AMNE01.jpg,AMSA05.jpg,AMNE02.jpg,AMSA08.jpg,AMSA08.jpg,MS,2,num_4,32,num_2,0.600435564294,,,2017_Nov_13_1450,59.9923225445,MAFE4ImagesEEG,001,202348,
AFNE01.JPG,AFNE01.JPG,AFNE01.JPG,AFNE01.JPG,AFNE01.JPG,AFNE01.JPG,,,,,,,,,,,,,,,,,5,0,50,0,,,,,,,AMNE05.jpg,AMSA17.jpg,AMNE01.jpg,AMSA01.jpg,AMSA17.jpg,MS,2,num_6,16,num_6,0.700177208986,,,2017_Nov_13_1450,59.9923225445,MAFE4ImagesEEG,001,202348,
AFNE01.JPG,AFNE01.JPG,AFNE01.JPG,AFNE01.JPG,AFNE01.JPG,AFNE01.JPG,,,,,,,,,,,,,,,,,5,1,51,8,,,,,,,AMNE07.jpg,AMSA06.jpg,AMSA16.jpg,AMNE02.jpg,AMSA06.jpg,MS,2,num_6,32,num_8,2.16670467425,,,2017_Nov_13_1450,59.9923225445,MAFE4ImagesEEG,001,202348,
AFNE01.JPG,AFNE01.JPG,AFNE01.JPG,AFNE01.JPG,AFNE01.JPG,AFNE01.JPG,,,,,,,,,,,,,,,,,5,2,52,3,,,,,,,AMSA04.jpg,AMNE09.jpg,AMNE18.jpg,AMSA05.jpg,AMNE09.jpg,MN,1,num_6,32,num_2,0.400138238911,,,2017_Nov_13_1450,59.9923225445,MAFE4ImagesEEG,001,202348,
AFNE01.JPG,AFNE01.JPG,AFNE01.JPG,AFNE01.JPG,AFNE01.JPG,AFNE01.JPG,,,,,,,,,,,,,,,,,5,3,53,2,,,,,,,AMNE04.jpg,AMSA20.jpg,AMSA12.jpg,AMNE15.jpg,AMSA20.jpg,MS,2,num_6,16,num_6,0.333520966116,,,2017_Nov_13_1450,59.9923225445,MAFE4ImagesEEG,001,202348,
AFNE01.JPG,AFNE01.JPG,AFNE01.JPG,AFNE01.JPG,AFNE01.JPG,AFNE01.JPG,,,,,,,,,,,,,,,,,5,4,54,7,,,,,,,AMSA09.jpg,AMNE02.jpg,AMSA01.jpg,AMNE12.jpg,AMNE02.jpg,MN,1,num_6,32,num_8,0.300190038513,,,2017_Nov_13_1450,59.9923225445,MAFE4ImagesEEG,001,202348,
AFNE01.JPG,AFNE01.JPG,AFNE01.JPG,AFNE01.JPG,AFNE01.JPG,AFNE01.JPG,,,,,,,,,,,,,,,,,5,5,55,9,,,,,,,AMNE06.jpg,AMSA03.jpg,AMNE04.jpg,AMSA12.jpg,AMSA12.jpg,MS,2,num_4,32,num_2,0.516805947758,,,2017_Nov_13_1450,59.9923225445,MAFE4ImagesEEG,001,202348,
AFNE01.JPG,AFNE01.JPG,AFNE01.JPG,AFNE01.JPG,AFNE01.JPG,AFNE01.JPG,,,,,,,,,,,,,,,,,5,6,56,1,,,,,,,AMNE13.jpg,AMNE01.jpg,AMSA05.jpg,AMSA19.jpg,AMSA05.jpg,MS,2,num_2,32,num_4,0.533487609122,,,2017_Nov_13_1450,59.9923225445,MAFE4ImagesEEG,001,202348,
AFNE01.JPG,AFNE01.JPG,AFNE01.JPG,AFNE01.JPG,AFNE01.JPG,AFNE01.JPG,,,,,,,,,,,,,,,,,5,7,57,5,,,,,,,AMSA05.jpg,AMNE17.jpg,AMNE05.jpg,AMSA02.jpg,AMNE05.jpg,MN,1,num_2,32,num_6,0.650110414252,,,2017_Nov_13_1450,59.9923225445,MAFE4ImagesEEG,001,202348,
AFNE01.JPG,AFNE01.JPG,AFNE01.JPG,AFNE01.JPG,AFNE01.JPG,AFNE01.JPG,,,,,,,,,,,,,,,,,5,8,58,6,,,,,,,AMNE04.jpg,AMNE06.jpg,AMSA07.jpg,AMSA04.jpg,AMSA07.jpg,MS,2,num_2,32,num_8,0.383570439648,,,2017_Nov_13_1450,59.9923225445,MAFE4ImagesEEG,001,202348,
AFNE01.JPG,AFNE01.JPG,AFNE01.JPG,AFNE01.JPG,AFNE01.JPG,AFNE01.JPG,,,,,,,,,,,,,,,,,5,9,59,4,,,,,,,AMNE10.jpg,AMSA20.jpg,AMNE06.jpg,AMSA03.jpg,AMNE06.jpg,MN,1,num_2,32,num_8,0.80014657788,,,2017_Nov_13_1450,59.9923225445,MAFE4ImagesEEG,001,202348,
,,,,,,,,,,,,,,,,,,,,,,,,,,,,,,,,,,,,,,,,,,,space,40.1307067974,2017_Nov_13_1450,59.9923225445,MAFE4ImagesEEG,001,202348,
AFNE01.JPG,AFNE01.JPG,AFNE01.JPG,AFNE01.JPG,AFNE01.JPG,AFNE01.JPG,,,,,,,,,,,,,,,,,,,,,0,0,0,0,,,AFSA08.jpg,AFNE08.jpg,AFNE14.jpg,AFSA06.jpg,AFSA08.jpg,FS,4,num_8,16,num_8,1.78328369884,,,2017_Nov_13_1450,59.9923225445,MAFE4ImagesEEG,001,202348,
AFNE01.JPG,AFNE01.JPG,AFNE01.JPG,AFNE01.JPG,AFNE01.JPG,AFNE01.JPG,,,,,,,,,,,,,,,,,,,,,0,1,1,2,,,AFSA10.jpg,AFNE08.jpg,AFNE09.jpg,AFSA03.jpg,AFSA10.jpg,FS,4,num_8,32,num_2,0.666820621584,,,2017_Nov_13_1450,59.9923225445,MAFE4ImagesEEG,001,202348,
AFNE01.JPG,AFNE01.JPG,AFNE01.JPG,AFNE01.JPG,AFNE01.JPG,AFNE01.JPG,,,,,,,,,,,,,,,,,,,,,0,2,2,7,,,AFSA03.jpg,AFNE14.jpg,AFSA12.jpg,AFNE13.jpg,AFNE13.jpg,FN,3,num_4,32,num_6,0.533489854541,,,2017_Nov_13_1450,59.9923225445,MAFE4ImagesEEG,001,202348,
AFNE01.JPG,AFNE01.JPG,AFNE01.JPG,AFNE01.JPG,AFNE01.JPG,AFNE01.JPG,,,,,,,,,,,,,,,,,,,,,0,3,3,5,,,AFSA11.jpg,AFNE08.jpg,AFSA05.jpg,AFNE19.jpg,AFSA05.jpg,FS,4,num_2,32,num_4,0.750207117293,,,2017_Nov_13_1450,59.9923225445,MAFE4ImagesEEG,001,202348,
AFNE01.JPG,AFNE01.JPG,AFNE01.JPG,AFNE01.JPG,AFNE01.JPG,AFNE01.JPG,,,,,,,,,,,,,,,,,,,,,0,4,4,1,,,AFSA05.jpg,AFSA02.jpg,AFNE11.jpg,AFNE15.jpg,AFNE15.jpg,FN,3,num_4,16,num_4,0.833463393152,,,2017_Nov_13_1450,59.9923225445,MAFE4ImagesEEG,001,202348,
AFNE01.JPG,AFNE01.JPG,AFNE01.JPG,AFNE01.JPG,AFNE01.JPG,AFNE01.JPG,,,,,,,,,,,,,,,,,,,,,0,5,5,3,,,AFSA06.jpg,AFSA18.jpg,AFNE20.jpg,AFNE02.jpg,AFSA18.jpg,FS,4,num_6,16,num_6,0.583471652586,,,2017_Nov_13_1450,59.9923225445,MAFE4ImagesEEG,001,202348,
AFNE01.JPG,AFNE01.JPG,AFNE01.JPG,AFNE01.JPG,AFNE01.JPG,AFNE01.JPG,,,,,,,,,,,,,,,,,,,,,0,6,6,8,,,AFSA04.jpg,AFNE04.jpg,AFNE17.jpg,AFSA20.jpg,AFSA20.jpg,FS,4,num_4,32,num_8,0.666806830093,,,2017_Nov_13_1450,59.9923225445,MAFE4ImagesEEG,001,202348,
AFNE01.JPG,AFNE01.JPG,AFNE01.JPG,AFNE01.JPG,AFNE01.JPG,AFNE01.JPG,,,,,,,,,,,,,,,,,,,,,0,7,7,6,,,AFNE11.jpg,AFNE18.jpg,AFSA06.jpg,AFSA08.jpg,AFSA06.jpg,FS,4,num_2,16,num_2,0.716785099823,,,2017_Nov_13_1450,59.9923225445,MAFE4ImagesEEG,001,202348,
AFNE01.JPG,AFNE01.JPG,AFNE01.JPG,AFNE01.JPG,AFNE01.JPG,AFNE01.JPG,,,,,,,,,,,,,,,,,,,,,0,8,8,4,,,AFNE03.jpg,AFSA11.jpg,AFNE18.jpg,AFSA05.jpg,AFNE18.jpg,FN,3,num_2,32,num_8,0.450008098502,,,2017_Nov_13_1450,59.9923225445,MAFE4ImagesEEG,001,202348,
AFNE01.JPG,AFNE01.JPG,AFNE01.JPG,AFNE01.JPG,AFNE01.JPG,AFNE01.JPG,,,,,,,,,,,,,,,,,,,,,0,9,9,9,,,AFNE15.jpg,AFSA04.jpg,AFNE01.jpg,AFSA17.jpg,AFSA04.jpg,FS,4,num_6,32,num_4,0.48350196192,,,2017_Nov_13_1450,59.9923225445,MAFE4ImagesEEG,001,202348,
AFNE01.JPG,AFNE01.JPG,AFNE01.JPG,AFNE01.JPG,AFNE01.JPG,AFNE01.JPG,,,,,,,,,,,,,,,,,,,,,1,0,10,9,,,AFSA07.jpg,AFSA17.jpg,AFNE01.jpg,AFNE08.jpg,AFSA07.jpg,FS,4,num_8,16,num_8,0.683495226782,,,2017_Nov_13_1450,59.9923225445,MAFE4ImagesEEG,001,202348,
AFNE01.JPG,AFNE01.JPG,AFNE01.JPG,AFNE01.JPG,AFNE01.JPG,AFNE01.JPG,,,,,,,,,,,,,,,,,,,,,1,1,11,4,,,AFNE19.jpg,AFNE05.jpg,AFSA04.jpg,AFSA13.jpg,AFNE19.jpg,FN,3,num_8,32,num_6,0.766779727302,,,2017_Nov_13_1450,59.9923225445,MAFE4ImagesEEG,001,202348,
AFNE01.JPG,AFNE01.JPG,AFNE01.JPG,AFNE01.JPG,AFNE01.JPG,AFNE01.JPG,,,,,,,,,,,,,,,,,,,,,1,2,12,6,,,AFNE05.jpg,AFSA05.jpg,AFNE16.jpg,AFSA08.jpg,AFSA08.jpg,FS,4,num_4,16,num_4,0.6001568418,,,2017_Nov_13_1450,59.9923225445,MAFE4ImagesEEG,001,202348,
AFNE01.JPG,AFNE01.JPG,AFNE01.JPG,AFNE01.JPG,AFNE01.JPG,AFNE01.JPG,,,,,,,,,,,,,,,,,,,,,1,3,13,5,,,AFSA20.jpg,AFNE08.jpg,AFNE03.jpg,AFSA17.jpg,AFSA17.jpg,FS,4,num_4,32,num_2,0.233638837468,,,2017_Nov_13_1450,59.9923225445,MAFE4ImagesEEG,001,202348,
AFNE01.JPG,AFNE01.JPG,AFNE01.JPG,AFNE01.JPG,AFNE01.JPG,AFNE01.JPG,,,,,,,,,,,,,,,,,,,,,1,4,14,7,,,AFSA05.jpg,AFNE13.jpg,AFNE12.jpg,AFSA16.jpg,AFSA05.jpg,FS,4,num_8,32,num_6,0.566831366625,,,2017_Nov_13_1450,59.9923225445,MAFE4ImagesEEG,001,202348,
AFNE01.JPG,AFNE01.JPG,AFNE01.JPG,AFNE01.JPG,AFNE01.JPG,AFNE01.JPG,,,,,,,,,,,,,,,,,,,,,1,5,15,8,,,AFNE19.jpg,AFNE16.jpg,AFSA11.jpg,AFSA14.jpg,AFSA14.jpg,FS,4,num_4,32,num_8,0.483832003083,,,2017_Nov_13_1450,59.9923225445,MAFE4ImagesEEG,001,202348,
AFNE01.JPG,AFNE01.JPG,AFNE01.JPG,AFNE01.JPG,AFNE01.JPG,AFNE01.JPG,,,,,,,,,,,,,,,,,,,,,1,6,16,3,,,AFSA19.jpg,AFNE18.jpg,AFNE15.jpg,AFSA03.jpg,AFSA03.jpg,FS,4,num_4,16,num_4,0.316833852325,,,2017_Nov_13_1450,59.9923225445,MAFE4ImagesEEG,001,202348,
AFNE01.JPG,AFNE01.JPG,AFNE01.JPG,AFNE01.JPG,AFNE01.JPG,AFNE01.JPG,,,,,,,,,,,,,,,,,,,,,1,7,17,1,,,AFNE03.jpg,AFNE08.jpg,AFSA20.jpg,AFSA18.jpg,AFSA20.jpg,FS,4,num_2,16,num_2,0.416814447381,,,2017_Nov_13_1450,59.9923225445,MAFE4ImagesEEG,001,202348,
AFNE01.JPG,AFNE01.JPG,AFNE01.JPG,AFNE01.JPG,AFNE01.JPG,AFNE01.JPG,,,,,,,,,,,,,,,,,,,,,1,8,18,2,,,AFNE09.jpg,AFSA04.jpg,AFSA20.jpg,AFNE19.jpg,AFSA04.jpg,FS,4,num_6,32,num_8,0.25021978654,,,2017_Nov_13_1450,59.9923225445,MAFE4ImagesEEG,001,202348,
AFNE01.JPG,AFNE01.JPG,AFNE01.JPG,AFNE01.JPG,AFNE01.JPG,AFNE01.JPG,,,,,,,,,,,,,,,,,,,,,1,9,19,0,,,AFSA03.jpg,AFNE20.jpg,AFSA01.jpg,AFNE12.jpg,AFNE12.jpg,FN,3,num_4,32,num_2,0.50019067945,,,2017_Nov_13_1450,59.9923225445,MAFE4ImagesEEG,001,202348,
AFNE01.JPG,AFNE01.JPG,AFNE01.JPG,AFNE01.JPG,AFNE01.JPG,AFNE01.JPG,,,,,,,,,,,,,,,,,,,,,2,0,20,5,,,AFNE18.jpg,AFSA14.jpg,AFSA09.jpg,AFNE09.jpg,AFSA09.jpg,FS,4,num_2,16,num_2,0.333523852751,,,2017_Nov_13_1450,59.9923225445,MAFE4ImagesEEG,001,202348,
AFNE01.JPG,AFNE01.JPG,AFNE01.JPG,AFNE01.JPG,AFNE01.JPG,AFNE01.JPG,,,,,,,,,,,,,,,,,,,,,2,1,21,1,,,AFNE13.jpg,AFSA08.jpg,AFSA15.jpg,AFNE11.jpg,AFNE13.jpg,FN,3,num_8,16,num_8,0.333380161319,,,2017_Nov_13_1450,59.9923225445,MAFE4ImagesEEG,001,202348,
AFNE01.JPG,AFNE01.JPG,AFNE01.JPG,AFNE01.JPG,AFNE01.JPG,AFNE01.JPG,,,,,,,,,,,,,,,,,,,,,2,2,22,7,,,AFSA20.jpg,AFNE01.jpg,AFNE19.jpg,AFSA06.jpg,AFNE01.jpg,FN,3,num_6,32,num_2,0.366818216164,,,2017_Nov_13_1450,59.9923225445,MAFE4ImagesEEG,001,202348,
AFNE01.JPG,AFNE01.JPG,AFNE01.JPG,AFNE01.JPG,AFNE01.JPG,AFNE01.JPG,,,,,,,,,,,,,,,,,,,,,2,3,23,4,,,AFNE16.jpg,AFSA09.jpg,AFSA08.jpg,AFNE12.jpg,AFSA08.jpg,FS,4,num_2,32,num_4,1.05035802582,,,2017_Nov_13_1450,59.9923225445,MAFE4ImagesEEG,001,202348,
AFNE01.JPG,AFNE01.JPG,AFNE01.JPG,AFNE01.JPG,AFNE01.JPG,AFNE01.JPG,,,,,,,,,,,,,,,,,,,,,2,4,24,9,,,AFNE14.jpg,AFNE17.jpg,AFSA06.jpg,AFSA15.jpg,AFSA06.jpg,FS,4,num_2,32,num_8,0.633473977447,,,2017_Nov_13_1450,59.9923225445,MAFE4ImagesEEG,001,202348,
AFNE01.JPG,AFNE01.JPG,AFNE01.JPG,AFNE01.JPG,AFNE01.JPG,AFNE01.JPG,,,,,,,,,,,,,,,,,,,,,2,5,25,8,,,AFNE06.jpg,AFSA13.jpg,AFSA14.jpg,AFNE10.jpg,AFSA14.jpg,FS,4,num_2,32,num_6,0.91680530645,,,2017_Nov_13_1450,59.9923225445,MAFE4ImagesEEG,001,202348,
AFNE01.JPG,AFNE01.JPG,AFNE01.JPG,AFNE01.JPG,AFNE01.JPG,AFNE01.JPG,,,,,,,,,,,,,,,,,,,,,2,6,26,2,,,AFNE16.jpg,AFNE09.jpg,AFSA14.jpg,AFSA12.jpg,AFNE09.jpg,FN,3,num_6,32,num_4,0.466852374841,,,2017_Nov_13_1450,59.9923225445,MAFE4ImagesEEG,001,202348,
AFNE01.JPG,AFNE01.JPG,AFNE01.JPG,AFNE01.JPG,AFNE01.JPG,AFNE01.JPG,,,,,,,,,,,,,,,,,,,,,2,7,27,6,,,AFNE18.jpg,AFSA20.jpg,AFNE10.jpg,AFSA06.jpg,AFSA20.jpg,FS,4,num_6,32,num_8,0.283546865918,,,2017_Nov_13_1450,59.9923225445,MAFE4ImagesEEG,001,202348,
AFNE01.JPG,AFNE01.JPG,AFNE01.JPG,AFNE01.JPG,AFNE01.JPG,AFNE01.JPG,,,,,,,,,,,,,,,,,,,,,2,8,28,0,,,AFSA06.jpg,AFSA15.jpg,AFNE05.jpg,AFNE15.jpg,AFNE05.jpg,FN,3,num_2,16,num_2,0.683532432187,,,2017_Nov_13_1450,59.9923225445,MAFE4ImagesEEG,001,202348,
AFNE01.JPG,AFNE01.JPG,AFNE01.JPG,AFNE01.JPG,AFNE01.JPG,AFNE01.JPG,,,,,,,,,,,,,,,,,,,,,2,9,29,3,,,AFNE13.jpg,AFSA13.jpg,AFSA19.jpg,AFNE10.jpg,AFSA13.jpg,FS,4,num_6,32,num_8,0.10020864103,,,2017_Nov_13_1450,59.9923225445,MAFE4ImagesEEG,001,202348,
AFNE01.JPG,AFNE01.JPG,AFNE01.JPG,AFNE01.JPG,AFNE01.JPG,AFNE01.JPG,,,,,,,,,,,,,,,,,,,,,3,0,30,9,,,AFNE02.jpg,AFNE11.jpg,AFSA05.jpg,AFSA20.jpg,AFNE11.jpg,FN,3,num_6,16,num_6,0.466797849163,,,2017_Nov_13_1450,59.9923225445,MAFE4ImagesEEG,001,202348,
AFNE01.JPG,AFNE01.JPG,AFNE01.JPG,AFNE01.JPG,AFNE01.JPG,AFNE01.JPG,,,,,,,,,,,,,,,,,,,,,3,1,31,2,,,AFNE16.jpg,AFNE15.jpg,AFSA03.jpg,AFSA18.jpg,AFNE16.jpg,FN,3,num_8,32,num_2,0.91677259095,,,2017_Nov_13_1450,59.9923225445,MAFE4ImagesEEG,001,202348,
AFNE01.JPG,AFNE01.JPG,AFNE01.JPG,AFNE01.JPG,AFNE01.JPG,AFNE01.JPG,,,,,,,,,,,,,,,,,,,,,3,2,32,1,,,AFSA06.jpg,AFSA11.jpg,AFNE16.jpg,AFNE01.jpg,AFNE16.jpg,FN,3,num_2,16,num_2,0.500177529175,,,2017_Nov_13_1450,59.9923225445,MAFE4ImagesEEG,001,202348,
AFNE01.JPG,AFNE01.JPG,AFNE01.JPG,AFNE01.JPG,AFNE01.JPG,AFNE01.JPG,,,,,,,,,,,,,,,,,,,,,3,3,33,6,,,AFSA10.jpg,AFSA08.jpg,AFNE05.jpg,AFNE14.jpg,AFSA10.jpg,FS,4,num_8,32,num_4,0.683433324099,,,2017_Nov_13_1450,59.9923225445,MAFE4ImagesEEG,001,202348,
AFNE01.JPG,AFNE01.JPG,AFNE01.JPG,AFNE01.JPG,AFNE01.JPG,AFNE01.JPG,,,,,,,,,,,,,,,,,,,,,3,4,34,4,,,AFSA08.jpg,AFNE14.jpg,AFSA06.jpg,AFNE10.jpg,AFSA06.jpg,FS,4,num_2,32,num_8,0.366792557295,,,2017_Nov_13_1450,59.9923225445,MAFE4ImagesEEG,001,202348,
AFNE01.JPG,AFNE01.JPG,AFNE01.JPG,AFNE01.JPG,AFNE01.JPG,AFNE01.JPG,,,,,,,,,,,,,,,,,,,,,3,5,35,7,,,AFNE19.jpg,AFSA17.jpg,AFNE20.jpg,AFSA20.jpg,AFSA20.jpg,FS,4,num_4,16,num_4,0.350185628049,,,2017_Nov_13_1450,59.9923225445,MAFE4ImagesEEG,001,202348,
AFNE01.JPG,AFNE01.JPG,AFNE01.JPG,AFNE01.JPG,AFNE01.JPG,AFNE01.JPG,,,,,,,,,,,,,,,,,,,,,3,6,36,0,,,AFSA08.jpg,AFSA04.jpg,AFNE14.jpg,AFNE04.jpg,AFSA08.jpg,FS,4,num_8,32,num_2,0.483501962386,,,2017_Nov_13_1450,59.9923225445,MAFE4ImagesEEG,001,202348,
AFNE01.JPG,AFNE01.JPG,AFNE01.JPG,AFNE01.JPG,AFNE01.JPG,AFNE01.JPG,,,,,,,,,,,,,,,,,,,,,3,7,37,8,,,AFNE17.jpg,AFSA08.jpg,AFSA16.jpg,AFNE08.jpg,AFNE17.jpg,FN,3,num_8,16,num_8,0.366489458364,,,2017_Nov_13_1450,59.9923225445,MAFE4ImagesEEG,001,202348,
AFNE01.JPG,AFNE01.JPG,AFNE01.JPG,AFNE01.JPG,AFNE01.JPG,AFNE01.JPG,,,,,,,,,,,,,,,,,,,,,3,8,38,3,,,AFNE13.jpg,AFSA11.jpg,AFNE04.jpg,AFSA08.jpg,AFNE04.jpg,FN,3,num_2,32,num_6,0.250199580099,,,2017_Nov_13_1450,59.9923225445,MAFE4ImagesEEG,001,202348,
