IPosition2,IPosition3,IPosition1,IPosition6,IPosition4,IPosition5,TrialsM1.thisRepN,TrialsM1.thisTrialN,TrialsM1.thisN,TrialsM1.thisIndex,TrialsF1.thisRepN,TrialsF1.thisTrialN,TrialsF1.thisN,TrialsF1.thisIndex,TrialsM2.thisRepN,TrialsM2.thisTrialN,TrialsM2.thisN,TrialsM2.thisIndex,TrialsF2.thisRepN,TrialsF2.thisTrialN,TrialsF2.thisN,TrialsF2.thisIndex,TrialsM3.thisRepN,TrialsM3.thisTrialN,TrialsM3.thisN,TrialsM3.thisIndex,TrialsF3.thisRepN,TrialsF3.thisTrialN,TrialsF3.thisN,TrialsF3.thisIndex,InstrKey_resp.keys,InstrKey_resp.rt,Image0 _Position,Image1 _Position,Image2 _Position,Image3 _Position,Center_image,condition,code,correct_answer,accuracy,Key_Resp.keys,Key_Resp.rt,BreakKey_resp.keys,BreakKey_resp.rt,date,frameRate,expName,session,participant,
,,,,,,,,,,,,,,,,,,,,,,,,,,,,,,space,7.8163534007,,,,,,,,,,,,,,2017_Nov_21_1154,60.0031177463,MAFE4ImagesEEG,001,202330,
AFNE23.JPG,AFNE24.JPG,AFNE22.JPG,AFSA24.JPG,AFSA22.JPG,AFSA23.JPG,0,0,0,8,,,,,,,,,,,,,,,,,,,,,,,AMSA05.jpg,AMSA11.jpg,AMNE11.jpg,AMNE12.jpg,AMNE11.jpg,MN,1,num_2,32,num_4,0.833579981772,,,2017_Nov_21_1154,60.0031177463,MAFE4ImagesEEG,001,202330,
AMSA25.JPG,AMNE24.JPG,AMSA24.JPG,AMNE26.JPG,AMSA21.JPG,AMNE25.JPG,0,1,1,3,,,,,,,,,,,,,,,,,,,,,,,AMSA18.jpg,AMNE19.jpg,AMSA04.jpg,AMNE17.jpg,AMNE17.jpg,MN,1,num_4,16,num_4,1.08346627971,,,2017_Nov_21_1154,60.0031177463,MAFE4ImagesEEG,001,202330,
AFSA21.JPG,AFNE22.JPG,AFNE21.JPG,AFSA23.JPG,AFSA22.JPG,AFNE23.JPG,0,2,2,0,,,,,,,,,,,,,,,,,,,,,,,AMNE10.jpg,AMNE15.jpg,AMSA14.jpg,AMSA01.jpg,AMNE10.jpg,MN,1,num_8,16,num_8,0.83352417314,,,2017_Nov_21_1154,60.0031177463,MAFE4ImagesEEG,001,202330,
AFSA21.JPG,AFNE23.JPG,AFNE21.JPG,AFSA25.JPG,AFNE25.JPG,AFSA23.JPG,0,3,3,4,,,,,,,,,,,,,,,,,,,,,,,AMSA06.jpg,AMNE19.jpg,AMNE12.jpg,AMSA17.jpg,AMNE19.jpg,MN,1,num_6,16,num_6,0.716814559506,,,2017_Nov_21_1154,60.0031177463,MAFE4ImagesEEG,001,202330,
AFNE22.JPG,AFSA24.JPG,AFSA22.JPG,AFNE25.JPG,AFNE24.JPG,AFSA25.JPG,0,4,4,6,,,,,,,,,,,,,,,,,,,,,,,AMNE05.jpg,AMSA12.jpg,AMNE10.jpg,AMSA03.jpg,AMSA12.jpg,MS,2,num_6,32,num_4,0.633584023089,,,2017_Nov_21_1154,60.0031177463,MAFE4ImagesEEG,001,202330,
AMNE23.JPG,AMNE24.JPG,AMNE22.JPG,AMSA24.JPG,AMSA22.JPG,AMSA23.JPG,0,5,5,9,,,,,,,,,,,,,,,,,,,,,,,AMSA12.jpg,AMSA02.jpg,AMNE12.jpg,AMNE18.jpg,AMNE12.jpg,MN,1,num_2,16,num_2,0.600139264963,,,2017_Nov_21_1154,60.0031177463,MAFE4ImagesEEG,001,202330,
AMSA21.JPG,AMNE23.JPG,AMNE21.JPG,AMSA25.JPG,AMNE25.JPG,AMSA23.JPG,0,6,6,5,,,,,,,,,,,,,,,,,,,,,,,AMSA03.jpg,AMNE06.jpg,AMSA06.jpg,AMNE09.jpg,AMNE09.jpg,MN,1,num_4,32,num_6,1.13346342515,,,2017_Nov_21_1154,60.0031177463,MAFE4ImagesEEG,001,202330,
AFSA25.JPG,AFNE24.JPG,AFSA24.JPG,AFNE21.JPG,AFSA21.JPG,AFNE25.JPG,0,7,7,2,,,,,,,,,,,,,,,,,,,,,,,AMNE04.jpg,AMNE16.jpg,AMSA19.jpg,AMSA09.jpg,AMSA19.jpg,MS,2,num_2,32,num_4,0.966756024602,,,2017_Nov_21_1154,60.0031177463,MAFE4ImagesEEG,001,202330,
AMSA21.JPG,AMNE22.JPG,AMNE21.JPG,AMSA23.JPG,AMSA22.JPG,AMNE23.JPG,0,8,8,1,,,,,,,,,,,,,,,,,,,,,,,AMSA12.jpg,AMNE17.jpg,AMNE04.jpg,AMSA07.jpg,AMNE17.jpg,MN,1,num_6,32,num_8,0.616608580793,,,2017_Nov_21_1154,60.0031177463,MAFE4ImagesEEG,001,202330,
AMNE22.JPG,AMSA24.JPG,AMSA22.JPG,AMNE25.JPG,AMNE24.JPG,AMSA25.JPG,0,9,9,7,,,,,,,,,,,,,,,,,,,,,,,AMNE01.jpg,AMSA10.jpg,AMSA15.jpg,AMNE09.jpg,AMSA10.jpg,MS,2,num_6,32,num_4,0.833482156318,,,2017_Nov_21_1154,60.0031177463,MAFE4ImagesEEG,001,202330,
AFSA21.JPG,AFNE23.JPG,AFNE21.JPG,AFSA25.JPG,AFNE25.JPG,AFSA23.JPG,,,,,0,0,0,4,,,,,,,,,,,,,,,,,,,AFSA12.jpg,AFNE05.jpg,AFNE20.jpg,AFSA15.jpg,AFNE20.jpg,FN,3,num_2,32,num_6,0.583499957342,,,2017_Nov_21_1154,60.0031177463,MAFE4ImagesEEG,001,202330,
AMSA21.JPG,AMNE23.JPG,AMNE21.JPG,AMSA25.JPG,AMNE25.JPG,AMSA23.JPG,,,,,0,1,1,5,,,,,,,,,,,,,,,,,,,AFNE14.jpg,AFSA04.jpg,AFSA08.jpg,AFNE04.jpg,AFNE14.jpg,FN,3,num_8,32,num_2,0.683511568102,,,2017_Nov_21_1154,60.0031177463,MAFE4ImagesEEG,001,202330,
AMNE22.JPG,AMSA24.JPG,AMSA22.JPG,AMNE25.JPG,AMNE24.JPG,AMSA25.JPG,,,,,0,2,2,7,,,,,,,,,,,,,,,,,,,AFSA13.jpg,AFSA09.jpg,AFNE16.jpg,AFNE17.jpg,AFSA09.jpg,FS,4,num_6,16,num_6,0.550206908854,,,2017_Nov_21_1154,60.0031177463,MAFE4ImagesEEG,001,202330,
AMSA21.JPG,AMNE22.JPG,AMNE21.JPG,AMSA23.JPG,AMSA22.JPG,AMNE23.JPG,,,,,0,3,3,1,,,,,,,,,,,,,,,,,,,AFSA12.jpg,AFNE16.jpg,AFNE05.jpg,AFSA04.jpg,AFNE05.jpg,FN,3,num_2,32,num_8,1.05011966779,,,2017_Nov_21_1154,60.0031177463,MAFE4ImagesEEG,001,202330,
AFSA21.JPG,AFNE22.JPG,AFNE21.JPG,AFSA23.JPG,AFSA22.JPG,AFNE23.JPG,,,,,0,4,4,0,,,,,,,,,,,,,,,,,,,AFNE10.jpg,AFNE07.jpg,AFSA03.jpg,AFSA13.jpg,AFNE10.jpg,FN,3,num_8,16,num_8,0.600138302732,,,2017_Nov_21_1154,60.0031177463,MAFE4ImagesEEG,001,202330,
AFNE22.JPG,AFSA24.JPG,AFSA22.JPG,AFNE25.JPG,AFNE24.JPG,AFSA25.JPG,,,,,0,5,5,6,,,,,,,,,,,,,,,,,,,AFNE15.jpg,AFSA01.jpg,AFSA11.jpg,AFNE07.jpg,AFNE15.jpg,FN,3,num_8,32,num_6,0.800142279899,,,2017_Nov_21_1154,60.0031177463,MAFE4ImagesEEG,001,202330,
AFSA25.JPG,AFNE24.JPG,AFSA24.JPG,AFNE21.JPG,AFSA21.JPG,AFNE25.JPG,,,,,0,6,6,2,,,,,,,,,,,,,,,,,,,AFNE16.jpg,AFSA16.jpg,AFSA18.jpg,AFNE18.jpg,AFNE16.jpg,FN,3,num_8,16,num_8,0.466858661151,,,2017_Nov_21_1154,60.0031177463,MAFE4ImagesEEG,001,202330,
AMNE23.JPG,AMNE24.JPG,AMNE22.JPG,AMSA24.JPG,AMSA22.JPG,AMSA23.JPG,,,,,0,7,7,9,,,,,,,,,,,,,,,,,,,AFSA19.jpg,AFSA01.jpg,AFNE04.jpg,AFNE02.jpg,AFSA01.jpg,FS,4,num_6,32,num_4,0.600209506825,,,2017_Nov_21_1154,60.0031177463,MAFE4ImagesEEG,001,202330,
AMSA25.JPG,AMNE24.JPG,AMSA24.JPG,AMNE26.JPG,AMSA21.JPG,AMNE25.JPG,,,,,0,8,8,3,,,,,,,,,,,,,,,,,,,AFSA14.jpg,AFNE07.jpg,AFNE12.jpg,AFSA20.jpg,AFNE12.jpg,FN,3,num_2,32,num_8,1.16678149129,,,2017_Nov_21_1154,60.0031177463,MAFE4ImagesEEG,001,202330,
AFNE23.JPG,AFNE24.JPG,AFNE22.JPG,AFSA24.JPG,AFSA22.JPG,AFSA23.JPG,,,,,0,9,9,8,,,,,,,,,,,,,,,,,,,AFNE12.jpg,AFSA14.jpg,AFNE19.jpg,AFSA02.jpg,AFSA14.jpg,FS,4,num_6,16,num_6,1.65005301819,,,2017_Nov_21_1154,60.0031177463,MAFE4ImagesEEG,001,202330,
AMSA25.JPG,AMNE24.JPG,AMSA24.JPG,AMNE26.JPG,AMSA21.JPG,AMNE25.JPG,,,,,,,,,0,0,0,3,,,,,,,,,,,,,,,AMNE05.jpg,AMSA07.jpg,AMNE09.jpg,AMSA03.jpg,AMSA07.jpg,MS,2,num_6,32,num_8,0.933472277553,,,2017_Nov_21_1154,60.0031177463,MAFE4ImagesEEG,001,202330,
AMNE23.JPG,AMNE24.JPG,AMNE22.JPG,AMSA24.JPG,AMSA22.JPG,AMSA23.JPG,,,,,,,,,0,1,1,9,,,,,,,,,,,,,,,AMSA18.jpg,AMNE14.jpg,AMNE05.jpg,AMSA16.jpg,AMNE14.jpg,MN,1,num_6,16,num_6,0.633491329456,,,2017_Nov_21_1154,60.0031177463,MAFE4ImagesEEG,001,202330,
AFSA25.JPG,AFNE24.JPG,AFSA24.JPG,AFNE21.JPG,AFSA21.JPG,AFNE25.JPG,,,,,,,,,0,2,2,2,,,,,,,,,,,,,,,AMSA13.jpg,AMNE02.jpg,AMSA08.jpg,AMNE13.jpg,AMNE13.jpg,MN,1,num_4,32,num_8,0.800192315219,,,2017_Nov_21_1154,60.0031177463,MAFE4ImagesEEG,001,202330,
AMNE22.JPG,AMSA24.JPG,AMSA22.JPG,AMNE25.JPG,AMNE24.JPG,AMSA25.JPG,,,,,,,,,0,3,3,7,,,,,,,,,,,,,,,AMSA05.jpg,AMNE17.jpg,AMSA18.jpg,AMNE18.jpg,AMNE17.jpg,MN,1,num_6,16,num_6,0.800145487301,,,2017_Nov_21_1154,60.0031177463,MAFE4ImagesEEG,001,202330,
AMSA21.JPG,AMNE23.JPG,AMNE21.JPG,AMSA25.JPG,AMNE25.JPG,AMSA23.JPG,,,,,,,,,0,4,4,5,,,,,,,,,,,,,,,AMSA10.jpg,AMNE13.jpg,AMNE17.jpg,AMSA08.jpg,AMNE13.jpg,MN,1,num_6,32,num_8,0.833500117704,,,2017_Nov_21_1154,60.0031177463,MAFE4ImagesEEG,001,202330,
AFSA21.JPG,AFNE22.JPG,AFNE21.JPG,AFSA23.JPG,AFSA22.JPG,AFNE23.JPG,,,,,,,,,0,5,5,0,,,,,,,,,,,,,,,AMSA12.jpg,AMSA01.jpg,AMNE01.jpg,AMNE07.jpg,AMNE01.jpg,MN,1,num_2,16,num_2,0.600171659607,,,2017_Nov_21_1154,60.0031177463,MAFE4ImagesEEG,001,202330,
AFNE22.JPG,AFSA24.JPG,AFSA22.JPG,AFNE25.JPG,AFNE24.JPG,AFSA25.JPG,,,,,,,,,0,6,6,6,,,,,,,,,,,,,,,AMNE19.jpg,AMSA19.jpg,AMNE01.jpg,AMSA05.jpg,AMSA05.jpg,MS,2,num_4,32,num_6,0.816784794908,,,2017_Nov_21_1154,60.0031177463,MAFE4ImagesEEG,001,202330,
AFNE23.JPG,AFNE24.JPG,AFNE22.JPG,AFSA24.JPG,AFSA22.JPG,AFSA23.JPG,,,,,,,,,0,7,7,8,,,,,,,,,,,,,,,AMNE10.jpg,AMNE09.jpg,AMSA16.jpg,AMSA07.jpg,AMSA07.jpg,MS,2,num_4,16,num_4,0.933489276722,,,2017_Nov_21_1154,60.0031177463,MAFE4ImagesEEG,001,202330,
AFSA21.JPG,AFNE23.JPG,AFNE21.JPG,AFSA25.JPG,AFNE25.JPG,AFSA23.JPG,,,,,,,,,0,8,8,4,,,,,,,,,,,,,,,AMNE12.jpg,AMSA11.jpg,AMSA10.jpg,AMNE04.jpg,AMSA10.jpg,MS,2,num_2,16,num_2,0.850110238069,,,2017_Nov_21_1154,60.0031177463,MAFE4ImagesEEG,001,202330,
AMSA21.JPG,AMNE22.JPG,AMNE21.JPG,AMSA23.JPG,AMSA22.JPG,AMNE23.JPG,,,,,,,,,0,9,9,1,,,,,,,,,,,,,,,AMNE15.jpg,AMSA17.jpg,AMNE18.jpg,AMSA11.jpg,AMSA17.jpg,MS,2,num_6,32,num_8,0.550181570448,,,2017_Nov_21_1154,60.0031177463,MAFE4ImagesEEG,001,202330,
AFSA25.JPG,AFNE24.JPG,AFSA24.JPG,AFNE21.JPG,AFSA21.JPG,AFNE25.JPG,,,,,,,,,,,,,0,0,0,2,,,,,,,,,,,AFNE13.jpg,AFNE06.jpg,AFSA09.jpg,AFSA19.jpg,AFSA09.jpg,FS,4,num_2,32,num_6,0.683496172627,,,2017_Nov_21_1154,60.0031177463,MAFE4ImagesEEG,001,202330,
AFSA21.JPG,AFNE22.JPG,AFNE21.JPG,AFSA23.JPG,AFSA22.JPG,AFNE23.JPG,,,,,,,,,,,,,0,1,1,0,,,,,,,,,,,AFNE08.jpg,AFSA07.jpg,AFNE17.jpg,AFSA08.jpg,AFSA08.jpg,FS,4,num_4,16,num_4,0.650119090453,,,2017_Nov_21_1154,60.0031177463,MAFE4ImagesEEG,001,202330,
AFNE23.JPG,AFNE24.JPG,AFNE22.JPG,AFSA24.JPG,AFSA22.JPG,AFSA23.JPG,,,,,,,,,,,,,0,2,2,8,,,,,,,,,,,AFNE10.jpg,AFNE14.jpg,AFSA19.jpg,AFSA03.jpg,AFSA03.jpg,FS,4,num_4,32,num_8,0.833460666792,,,2017_Nov_21_1154,60.0031177463,MAFE4ImagesEEG,001,202330,
AFNE22.JPG,AFSA24.JPG,AFSA22.JPG,AFNE25.JPG,AFNE24.JPG,AFSA25.JPG,,,,,,,,,,,,,0,3,3,6,,,,,,,,,,,AFNE05.jpg,AFNE07.jpg,AFSA14.jpg,AFSA08.jpg,AFNE05.jpg,FN,3,num_8,16,num_8,0.949480691183,,,2017_Nov_21_1154,60.0031177463,MAFE4ImagesEEG,001,202330,
AMSA21.JPG,AMNE22.JPG,AMNE21.JPG,AMSA23.JPG,AMSA22.JPG,AMNE23.JPG,,,,,,,,,,,,,0,4,4,1,,,,,,,,,,,AFNE14.jpg,AFSA08.jpg,AFNE08.jpg,AFSA11.jpg,AFNE14.jpg,FN,3,num_8,32,num_2,1.23344360347,,,2017_Nov_21_1154,60.0031177463,MAFE4ImagesEEG,001,202330,
AMSA25.JPG,AMNE24.JPG,AMSA24.JPG,AMNE26.JPG,AMSA21.JPG,AMNE25.JPG,,,,,,,,,,,,,0,5,5,3,,,,,,,,,,,AFNE09.jpg,AFNE03.jpg,AFSA18.jpg,AFSA11.jpg,AFNE03.jpg,FN,3,num_6,16,num_6,0.433466183502,,,2017_Nov_21_1154,60.0031177463,MAFE4ImagesEEG,001,202330,
AFSA21.JPG,AFNE23.JPG,AFNE21.JPG,AFSA25.JPG,AFNE25.JPG,AFSA23.JPG,,,,,,,,,,,,,0,6,6,4,,,,,,,,,,,AFSA05.jpg,AFNE08.jpg,AFSA06.jpg,AFNE18.jpg,AFNE08.jpg,FN,3,num_6,16,num_6,0.933462976114,,,2017_Nov_21_1154,60.0031177463,MAFE4ImagesEEG,001,202330,
AMNE22.JPG,AMSA24.JPG,AMSA22.JPG,AMNE25.JPG,AMNE24.JPG,AMSA25.JPG,,,,,,,,,,,,,0,7,7,7,,,,,,,,,,,AFSA10.jpg,AFNE05.jpg,AFSA02.jpg,AFNE09.jpg,AFNE05.jpg,FN,3,num_6,32,num_8,0.833494023667,,,2017_Nov_21_1154,60.0031177463,MAFE4ImagesEEG,001,202330,
AMSA21.JPG,AMNE23.JPG,AMNE21.JPG,AMSA25.JPG,AMNE25.JPG,AMSA23.JPG,,,,,,,,,,,,,0,8,8,5,,,,,,,,,,,AFNE01.jpg,AFSA13.jpg,AFNE08.jpg,AFSA10.jpg,AFNE08.jpg,FN,3,num_2,32,num_6,1.3667636582,,,2017_Nov_21_1154,60.0031177463,MAFE4ImagesEEG,001,202330,
AMNE23.JPG,AMNE24.JPG,AMNE22.JPG,AMSA24.JPG,AMSA22.JPG,AMSA23.JPG,,,,,,,,,,,,,0,9,9,9,,,,,,,,,,,AFSA10.jpg,AFNE15.jpg,AFNE08.jpg,AFSA12.jpg,AFNE08.jpg,FN,3,num_2,16,num_2,0.850114086934,,,2017_Nov_21_1154,60.0031177463,MAFE4ImagesEEG,001,202330,
AMNE23.JPG,AMNE24.JPG,AMNE22.JPG,AMSA24.JPG,AMSA22.JPG,AMSA23.JPG,,,,,,,,,,,,,,,,,0,0,0,9,,,,,,,AMSA15.jpg,AMNE01.jpg,AMNE14.jpg,AMSA12.jpg,AMNE14.jpg,MN,1,num_2,32,num_6,0.916772670971,,,2017_Nov_21_1154,60.0031177463,MAFE4ImagesEEG,001,202330,
AFSA21.JPG,AFNE22.JPG,AFNE21.JPG,AFSA23.JPG,AFSA22.JPG,AFNE23.JPG,,,,,,,,,,,,,,,,,0,1,1,0,,,,,,,AMNE15.jpg,AMNE14.jpg,AMSA13.jpg,AMSA08.jpg,AMSA13.jpg,MS,2,num_2,32,num_8,1.98337576713,,,2017_Nov_21_1154,60.0031177463,MAFE4ImagesEEG,001,202330,
AMSA21.JPG,AMNE23.JPG,AMNE21.JPG,AMSA25.JPG,AMNE25.JPG,AMSA23.JPG,,,,,,,,,,,,,,,,,0,2,2,5,,,,,,,AMSA08.jpg,AMNE13.jpg,AMSA06.jpg,AMNE03.jpg,AMSA08.jpg,MS,2,num_8,32,num_2,1.74984139447,,,2017_Nov_21_1154,60.0031177463,MAFE4ImagesEEG,001,202330,
AMNE22.JPG,AMSA24.JPG,AMSA22.JPG,AMNE25.JPG,AMNE24.JPG,AMSA25.JPG,,,,,,,,,,,,,,,,,0,3,3,7,,,,,,,AMNE15.jpg,AMSA15.jpg,AMSA04.jpg,AMNE19.jpg,AMSA04.jpg,MS,2,num_2,32,num_4,3.19993790488,,,2017_Nov_21_1154,60.0031177463,MAFE4ImagesEEG,001,202330,
AMSA25.JPG,AMNE24.JPG,AMSA24.JPG,AMNE26.JPG,AMSA21.JPG,AMNE25.JPG,,,,,,,,,,,,,,,,,0,4,4,3,,,,,,,AMNE03.jpg,AMNE08.jpg,AMSA06.jpg,AMSA03.jpg,AMSA06.jpg,MS,2,num_2,16,num_2,1.43331254943,,,2017_Nov_21_1154,60.0031177463,MAFE4ImagesEEG,001,202330,
AMSA21.JPG,AMNE22.JPG,AMNE21.JPG,AMSA23.JPG,AMSA22.JPG,AMNE23.JPG,,,,,,,,,,,,,,,,,0,5,5,1,,,,,,,AMSA07.jpg,AMNE06.jpg,AMSA06.jpg,AMNE13.jpg,AMNE13.jpg,MN,1,num_4,32,num_6,1.26663722281,,,2017_Nov_21_1154,60.0031177463,MAFE4ImagesEEG,001,202330,
AFSA25.JPG,AFNE24.JPG,AFSA24.JPG,AFNE21.JPG,AFSA21.JPG,AFNE25.JPG,,,,,,,,,,,,,,,,,0,6,6,2,,,,,,,AMNE12.jpg,AMNE03.jpg,AMSA20.jpg,AMSA12.jpg,AMNE03.jpg,MN,1,num_6,16,num_6,0.716931629315,,,2017_Nov_21_1154,60.0031177463,MAFE4ImagesEEG,001,202330,
AFSA21.JPG,AFNE23.JPG,AFNE21.JPG,AFSA25.JPG,AFNE25.JPG,AFSA23.JPG,,,,,,,,,,,,,,,,,0,7,7,4,,,,,,,AMNE13.jpg,AMNE14.jpg,AMSA07.jpg,AMSA06.jpg,AMSA06.jpg,MS,2,num_4,16,num_4,0.866751790847,,,2017_Nov_21_1154,60.0031177463,MAFE4ImagesEEG,001,202330,
AFNE22.JPG,AFSA24.JPG,AFSA22.JPG,AFNE25.JPG,AFNE24.JPG,AFSA25.JPG,,,,,,,,,,,,,,,,,0,8,8,6,,,,,,,AMNE14.jpg,AMNE19.jpg,AMSA12.jpg,AMSA14.jpg,AMNE14.jpg,MN,1,num_8,16,num_8,0.566780464942,,,2017_Nov_21_1154,60.0031177463,MAFE4ImagesEEG,001,202330,
AFNE23.JPG,AFNE24.JPG,AFNE22.JPG,AFSA24.JPG,AFSA22.JPG,AFSA23.JPG,,,,,,,,,,,,,,,,,0,9,9,8,,,,,,,AMSA11.jpg,AMNE07.jpg,AMSA02.jpg,AMNE05.jpg,AMSA02.jpg,MS,2,num_2,32,num_6,0.816796662257,,,2017_Nov_21_1154,60.0031177463,MAFE4ImagesEEG,001,202330,
AFNE23.JPG,AFNE24.JPG,AFNE22.JPG,AFSA24.JPG,AFSA22.JPG,AFSA23.JPG,,,,,,,,,,,,,,,,,,,,,0,0,0,8,,,AFNE14.jpg,AFSA18.jpg,AFSA06.jpg,AFNE20.jpg,AFSA06.jpg,FS,4,num_2,16,num_2,0.750110173918,,,2017_Nov_21_1154,60.0031177463,MAFE4ImagesEEG,001,202330,
AFSA25.JPG,AFNE24.JPG,AFSA24.JPG,AFNE21.JPG,AFSA21.JPG,AFNE25.JPG,,,,,,,,,,,,,,,,,,,,,0,1,1,2,,,AFNE04.jpg,AFSA20.jpg,AFNE01.jpg,AFSA07.jpg,AFSA07.jpg,FS,4,num_4,16,num_4,0.96678970223,,,2017_Nov_21_1154,60.0031177463,MAFE4ImagesEEG,001,202330,
AMNE23.JPG,AMNE24.JPG,AMNE22.JPG,AMSA24.JPG,AMSA22.JPG,AMSA23.JPG,,,,,,,,,,,,,,,,,,,,,0,2,2,9,,,AFNE14.jpg,AFSA10.jpg,AFSA03.jpg,AFNE12.jpg,AFSA03.jpg,FS,4,num_2,16,num_2,1.56671375118,,,2017_Nov_21_1154,60.0031177463,MAFE4ImagesEEG,001,202330,
AFNE22.JPG,AFSA24.JPG,AFSA22.JPG,AFNE25.JPG,AFNE24.JPG,AFSA25.JPG,,,,,,,,,,,,,,,,,,,,,0,3,3,6,,,AFSA14.jpg,AFSA12.jpg,AFNE01.jpg,AFNE07.jpg,AFNE07.jpg,FN,3,num_4,32,num_8,1.16674749294,,,2017_Nov_21_1154,60.0031177463,MAFE4ImagesEEG,001,202330,
AMNE22.JPG,AMSA24.JPG,AMSA22.JPG,AMNE25.JPG,AMNE24.JPG,AMSA25.JPG,,,,,,,,,,,,,,,,,,,,,0,4,4,7,,,AFSA10.jpg,AFNE10.jpg,AFNE19.jpg,AFSA07.jpg,AFNE19.jpg,FN,3,num_2,32,num_6,1.30010635711,,,2017_Nov_21_1154,60.0031177463,MAFE4ImagesEEG,001,202330,
AMSA25.JPG,AMNE24.JPG,AMSA24.JPG,AMNE26.JPG,AMSA21.JPG,AMNE25.JPG,,,,,,,,,,,,,,,,,,,,,0,5,5,3,,,AFSA10.jpg,AFNE12.jpg,AFSA04.jpg,AFNE09.jpg,AFSA10.jpg,FS,4,num_8,16,num_8,0.883759307049,,,2017_Nov_21_1154,60.0031177463,MAFE4ImagesEEG,001,202330,
AMSA21.JPG,AMNE22.JPG,AMNE21.JPG,AMSA23.JPG,AMSA22.JPG,AMNE23.JPG,,,,,,,,,,,,,,,,,,,,,0,6,6,1,,,AFSA17.jpg,AFNE19.jpg,AFNE16.jpg,AFSA15.jpg,AFNE16.jpg,FN,3,num_2,16,num_2,0.950142055386,,,2017_Nov_21_1154,60.0031177463,MAFE4ImagesEEG,001,202330,
AFSA21.JPG,AFNE22.JPG,AFNE21.JPG,AFSA23.JPG,AFSA22.JPG,AFNE23.JPG,,,,,,,,,,,,,,,,,,,,,0,7,7,0,,,AFNE18.jpg,AFNE01.jpg,AFSA04.jpg,AFSA17.jpg,AFNE01.jpg,FN,3,num_6,16,num_6,0.65016720134,,,2017_Nov_21_1154,60.0031177463,MAFE4ImagesEEG,001,202330,
AMSA21.JPG,AMNE23.JPG,AMNE21.JPG,AMSA25.JPG,AMNE25.JPG,AMSA23.JPG,,,,,,,,,,,,,,,,,,,,,0,8,8,5,,,AFSA15.jpg,AFNE06.jpg,AFNE04.jpg,AFSA19.jpg,AFSA15.jpg,FS,4,num_8,16,num_8,0.483491874722,,,2017_Nov_21_1154,60.0031177463,MAFE4ImagesEEG,001,202330,
AFSA21.JPG,AFNE23.JPG,AFNE21.JPG,AFSA25.JPG,AFNE25.JPG,AFSA23.JPG,,,,,,,,,,,,,,,,,,,,,0,9,9,4,,,AFSA09.jpg,AFNE06.jpg,AFSA03.jpg,AFNE17.jpg,AFSA09.jpg,FS,4,num_8,32,num_2,1.03345822918,,,2017_Nov_21_1154,60.0031177463,MAFE4ImagesEEG,001,202330,
,,,,,,,,,,,,,,,,,,,,,,,,,,,,,,,,,,,,,,,,,,,space,8.7994302389,2017_Nov_21_1154,60.0031177463,MAFE4ImagesEEG,001,202330,
AFNE01.JPG,AFNE01.JPG,AFNE01.JPG,AFNE01.JPG,AFNE01.JPG,AFNE01.JPG,0,0,0,7,,,,,,,,,,,,,,,,,,,,,,,AMNE20.jpg,AMSA11.jpg,AMSA05.jpg,AMNE16.jpg,AMNE20.jpg,MN,1,num_8,16,num_8,0.483505025026,,,2017_Nov_21_1154,60.0031177463,MAFE4ImagesEEG,001,202330,
AFNE01.JPG,AFNE01.JPG,AFNE01.JPG,AFNE01.JPG,AFNE01.JPG,AFNE01.JPG,0,1,1,2,,,,,,,,,,,,,,,,,,,,,,,AMNE08.jpg,AMSA16.jpg,AMSA03.jpg,AMNE06.jpg,AMSA16.jpg,MS,2,num_6,16,num_6,0.799994098401,,,2017_Nov_21_1154,60.0031177463,MAFE4ImagesEEG,001,202330,
AFNE01.JPG,AFNE01.JPG,AFNE01.JPG,AFNE01.JPG,AFNE01.JPG,AFNE01.JPG,0,2,2,8,,,,,,,,,,,,,,,,,,,,,,,AMNE06.jpg,AMSA02.jpg,AMSA20.jpg,AMNE12.jpg,AMSA20.jpg,MS,2,num_2,16,num_2,0.566523232104,,,2017_Nov_21_1154,60.0031177463,MAFE4ImagesEEG,001,202330,
AFNE01.JPG,AFNE01.JPG,AFNE01.JPG,AFNE01.JPG,AFNE01.JPG,AFNE01.JPG,0,3,3,5,,,,,,,,,,,,,,,,,,,,,,,AMNE18.jpg,AMNE17.jpg,AMSA19.jpg,AMSA05.jpg,AMSA05.jpg,MS,2,num_4,16,num_4,0.683476928272,,,2017_Nov_21_1154,60.0031177463,MAFE4ImagesEEG,001,202330,
AFNE01.JPG,AFNE01.JPG,AFNE01.JPG,AFNE01.JPG,AFNE01.JPG,AFNE01.JPG,0,4,4,3,,,,,,,,,,,,,,,,,,,,,,,AMNE07.jpg,AMSA06.jpg,AMSA03.jpg,AMNE02.jpg,AMNE02.jpg,MN,1,num_4,16,num_4,0.916787745708,,,2017_Nov_21_1154,60.0031177463,MAFE4ImagesEEG,001,202330,
AFNE01.JPG,AFNE01.JPG,AFNE01.JPG,AFNE01.JPG,AFNE01.JPG,AFNE01.JPG,0,5,5,1,,,,,,,,,,,,,,,,,,,,,,,AMSA08.jpg,AMNE01.jpg,AMNE19.jpg,AMSA18.jpg,AMNE19.jpg,MN,1,num_2,32,num_6,1.06675608875,,,2017_Nov_21_1154,60.0031177463,MAFE4ImagesEEG,001,202330,
AFNE01.JPG,AFNE01.JPG,AFNE01.JPG,AFNE01.JPG,AFNE01.JPG,AFNE01.JPG,0,6,6,6,,,,,,,,,,,,,,,,,,,,,,,AMNE04.jpg,AMSA02.jpg,AMSA17.jpg,AMNE11.jpg,AMNE11.jpg,MN,1,num_4,32,num_2,0.733447131599,,,2017_Nov_21_1154,60.0031177463,MAFE4ImagesEEG,001,202330,
AFNE01.JPG,AFNE01.JPG,AFNE01.JPG,AFNE01.JPG,AFNE01.JPG,AFNE01.JPG,0,7,7,9,,,,,,,,,,,,,,,,,,,,,,,AMSA14.jpg,AMNE12.jpg,AMNE16.jpg,AMSA03.jpg,AMNE12.jpg,MN,1,num_6,16,num_6,1.94999964719,,,2017_Nov_21_1154,60.0031177463,MAFE4ImagesEEG,001,202330,
AFNE01.JPG,AFNE01.JPG,AFNE01.JPG,AFNE01.JPG,AFNE01.JPG,AFNE01.JPG,0,8,8,4,,,,,,,,,,,,,,,,,,,,,,,AMSA09.jpg,AMSA07.jpg,AMNE13.jpg,AMNE08.jpg,AMSA09.jpg,MS,2,num_8,16,num_8,0.81680211483,,,2017_Nov_21_1154,60.0031177463,MAFE4ImagesEEG,001,202330,
AFNE01.JPG,AFNE01.JPG,AFNE01.JPG,AFNE01.JPG,AFNE01.JPG,AFNE01.JPG,0,9,9,0,,,,,,,,,,,,,,,,,,,,,,,AMNE17.jpg,AMSA18.jpg,AMSA20.jpg,AMNE03.jpg,AMSA20.jpg,MS,2,num_2,16,num_2,0.633497423492,,,2017_Nov_21_1154,60.0031177463,MAFE4ImagesEEG,001,202330,
AFNE01.JPG,AFNE01.JPG,AFNE01.JPG,AFNE01.JPG,AFNE01.JPG,AFNE01.JPG,1,0,10,1,,,,,,,,,,,,,,,,,,,,,,,AMSA04.jpg,AMSA17.jpg,AMNE14.jpg,AMNE13.jpg,AMSA17.jpg,MS,2,num_6,16,num_6,0.833757350541,,,2017_Nov_21_1154,60.0031177463,MAFE4ImagesEEG,001,202330,
AFNE01.JPG,AFNE01.JPG,AFNE01.JPG,AFNE01.JPG,AFNE01.JPG,AFNE01.JPG,1,1,11,8,,,,,,,,,,,,,,,,,,,,,,,AMSA18.jpg,AMSA04.jpg,AMNE07.jpg,AMNE01.jpg,AMNE01.jpg,MN,1,num_4,16,num_4,0.566649924076,,,2017_Nov_21_1154,60.0031177463,MAFE4ImagesEEG,001,202330,
AFNE01.JPG,AFNE01.JPG,AFNE01.JPG,AFNE01.JPG,AFNE01.JPG,AFNE01.JPG,1,2,12,3,,,,,,,,,,,,,,,,,,,,,,,AMNE16.jpg,AMNE12.jpg,AMSA02.jpg,AMSA18.jpg,AMNE16.jpg,MN,1,num_8,16,num_8,0.933464259069,,,2017_Nov_21_1154,60.0031177463,MAFE4ImagesEEG,001,202330,
AFNE01.JPG,AFNE01.JPG,AFNE01.JPG,AFNE01.JPG,AFNE01.JPG,AFNE01.JPG,1,3,13,0,,,,,,,,,,,,,,,,,,,,,,,AMSA01.jpg,AMSA11.jpg,AMNE01.jpg,AMNE19.jpg,AMNE19.jpg,MN,1,num_4,16,num_4,0.916741559267,,,2017_Nov_21_1154,60.0031177463,MAFE4ImagesEEG,001,202330,
AFNE01.JPG,AFNE01.JPG,AFNE01.JPG,AFNE01.JPG,AFNE01.JPG,AFNE01.JPG,1,4,14,5,,,,,,,,,,,,,,,,,,,,,,,AMSA11.jpg,AMNE17.jpg,AMSA20.jpg,AMNE14.jpg,AMNE14.jpg,MN,1,num_4,16,num_4,0.550156552796,,,2017_Nov_21_1154,60.0031177463,MAFE4ImagesEEG,001,202330,
AFNE01.JPG,AFNE01.JPG,AFNE01.JPG,AFNE01.JPG,AFNE01.JPG,AFNE01.JPG,1,5,15,4,,,,,,,,,,,,,,,,,,,,,,,AMSA06.jpg,AMSA18.jpg,AMNE18.jpg,AMNE07.jpg,AMSA06.jpg,MS,2,num_8,32,num_2,0.833450403137,,,2017_Nov_21_1154,60.0031177463,MAFE4ImagesEEG,001,202330,
AFNE01.JPG,AFNE01.JPG,AFNE01.JPG,AFNE01.JPG,AFNE01.JPG,AFNE01.JPG,1,6,16,7,,,,,,,,,,,,,,,,,,,,,,,AMNE13.jpg,AMSA11.jpg,AMNE09.jpg,AMSA04.jpg,AMSA11.jpg,MS,2,num_6,16,num_6,1.13379603169,,,2017_Nov_21_1154,60.0031177463,MAFE4ImagesEEG,001,202330,
AFNE01.JPG,AFNE01.JPG,AFNE01.JPG,AFNE01.JPG,AFNE01.JPG,AFNE01.JPG,1,7,17,9,,,,,,,,,,,,,,,,,,,,,,,AMSA04.jpg,AMSA20.jpg,AMNE05.jpg,AMNE20.jpg,AMNE20.jpg,MN,1,num_4,16,num_4,0.700139008375,,,2017_Nov_21_1154,60.0031177463,MAFE4ImagesEEG,001,202330,
AFNE01.JPG,AFNE01.JPG,AFNE01.JPG,AFNE01.JPG,AFNE01.JPG,AFNE01.JPG,1,8,18,6,,,,,,,,,,,,,,,,,,,,,,,AMSA04.jpg,AMNE18.jpg,AMNE09.jpg,AMSA13.jpg,AMSA04.jpg,MS,2,num_8,16,num_8,0.849987715686,,,2017_Nov_21_1154,60.0031177463,MAFE4ImagesEEG,001,202330,
AFNE01.JPG,AFNE01.JPG,AFNE01.JPG,AFNE01.JPG,AFNE01.JPG,AFNE01.JPG,1,9,19,2,,,,,,,,,,,,,,,,,,,,,,,AMNE16.jpg,AMSA09.jpg,AMSA10.jpg,AMNE08.jpg,AMNE08.jpg,MN,1,num_4,16,num_4,1.33346964749,,,2017_Nov_21_1154,60.0031177463,MAFE4ImagesEEG,001,202330,
AFNE01.JPG,AFNE01.JPG,AFNE01.JPG,AFNE01.JPG,AFNE01.JPG,AFNE01.JPG,2,0,20,6,,,,,,,,,,,,,,,,,,,,,,,AMNE13.jpg,AMSA04.jpg,AMNE11.jpg,AMSA14.jpg,AMNE13.jpg,MN,1,num_8,16,num_8,0.783493670853,,,2017_Nov_21_1154,60.0031177463,MAFE4ImagesEEG,001,202330,
AFNE01.JPG,AFNE01.JPG,AFNE01.JPG,AFNE01.JPG,AFNE01.JPG,AFNE01.JPG,2,1,21,7,,,,,,,,,,,,,,,,,,,,,,,AMSA14.jpg,AMNE06.jpg,AMSA08.jpg,AMNE13.jpg,AMNE06.jpg,MN,1,num_6,16,num_6,1.76670938914,,,2017_Nov_21_1154,60.0031177463,MAFE4ImagesEEG,001,202330,
AFNE01.JPG,AFNE01.JPG,AFNE01.JPG,AFNE01.JPG,AFNE01.JPG,AFNE01.JPG,2,2,22,5,,,,,,,,,,,,,,,,,,,,,,,AMNE12.jpg,AMSA02.jpg,AMSA04.jpg,AMNE16.jpg,AMSA02.jpg,MS,2,num_6,16,num_6,0.683480456399,,,2017_Nov_21_1154,60.0031177463,MAFE4ImagesEEG,001,202330,
AFNE01.JPG,AFNE01.JPG,AFNE01.JPG,AFNE01.JPG,AFNE01.JPG,AFNE01.JPG,2,3,23,4,,,,,,,,,,,,,,,,,,,,,,,AMNE07.jpg,AMSA15.jpg,AMSA02.jpg,AMNE13.jpg,AMNE07.jpg,MN,1,num_8,32,num_4,0.91679865084,,,2017_Nov_21_1154,60.0031177463,MAFE4ImagesEEG,001,202330,
AFNE01.JPG,AFNE01.JPG,AFNE01.JPG,AFNE01.JPG,AFNE01.JPG,AFNE01.JPG,2,4,24,2,,,,,,,,,,,,,,,,,,,,,,,AMNE18.jpg,AMSA10.jpg,AMNE13.jpg,AMSA12.jpg,AMSA10.jpg,MS,2,num_6,16,num_6,1.08345120498,,,2017_Nov_21_1154,60.0031177463,MAFE4ImagesEEG,001,202330,
AFNE01.JPG,AFNE01.JPG,AFNE01.JPG,AFNE01.JPG,AFNE01.JPG,AFNE01.JPG,2,5,25,3,,,,,,,,,,,,,,,,,,,,,,,AMNE03.jpg,AMSA04.jpg,AMSA17.jpg,AMNE01.jpg,AMSA04.jpg,MS,2,num_6,16,num_6,1.06675769245,,,2017_Nov_21_1154,60.0031177463,MAFE4ImagesEEG,001,202330,
AFNE01.JPG,AFNE01.JPG,AFNE01.JPG,AFNE01.JPG,AFNE01.JPG,AFNE01.JPG,2,6,26,0,,,,,,,,,,,,,,,,,,,,,,,AMSA07.jpg,AMSA08.jpg,AMNE08.jpg,AMNE11.jpg,AMSA08.jpg,MS,2,num_6,32,num_8,0.783461276194,,,2017_Nov_21_1154,60.0031177463,MAFE4ImagesEEG,001,202330,
AFNE01.JPG,AFNE01.JPG,AFNE01.JPG,AFNE01.JPG,AFNE01.JPG,AFNE01.JPG,2,7,27,8,,,,,,,,,,,,,,,,,,,,,,,AMNE11.jpg,AMSA08.jpg,AMSA16.jpg,AMNE03.jpg,AMNE03.jpg,MN,1,num_4,16,num_4,0.966796437744,,,2017_Nov_21_1154,60.0031177463,MAFE4ImagesEEG,001,202330,
AFNE01.JPG,AFNE01.JPG,AFNE01.JPG,AFNE01.JPG,AFNE01.JPG,AFNE01.JPG,2,8,28,1,,,,,,,,,,,,,,,,,,,,,,,AMNE16.jpg,AMSA13.jpg,AMNE01.jpg,AMSA14.jpg,AMNE16.jpg,MN,1,num_8,32,num_6,0.783499444165,,,2017_Nov_21_1154,60.0031177463,MAFE4ImagesEEG,001,202330,
AFNE01.JPG,AFNE01.JPG,AFNE01.JPG,AFNE01.JPG,AFNE01.JPG,AFNE01.JPG,2,9,29,9,,,,,,,,,,,,,,,,,,,,,,,AMSA03.jpg,AMSA17.jpg,AMNE14.jpg,AMNE08.jpg,AMSA03.jpg,MS,2,num_8,16,num_8,0.566773087936,,,2017_Nov_21_1154,60.0031177463,MAFE4ImagesEEG,001,202330,
AFNE01.JPG,AFNE01.JPG,AFNE01.JPG,AFNE01.JPG,AFNE01.JPG,AFNE01.JPG,3,0,30,1,,,,,,,,,,,,,,,,,,,,,,,AMNE15.jpg,AMSA09.jpg,AMSA03.jpg,AMNE03.jpg,AMSA03.jpg,MS,2,num_2,16,num_2,1.13343263419,,,2017_Nov_21_1154,60.0031177463,MAFE4ImagesEEG,001,202330,
AFNE01.JPG,AFNE01.JPG,AFNE01.JPG,AFNE01.JPG,AFNE01.JPG,AFNE01.JPG,3,1,31,8,,,,,,,,,,,,,,,,,,,,,,,AMSA14.jpg,AMNE10.jpg,AMSA05.jpg,AMNE07.jpg,AMSA14.jpg,MS,2,num_8,16,num_8,0.833510381359,,,2017_Nov_21_1154,60.0031177463,MAFE4ImagesEEG,001,202330,
AFNE01.JPG,AFNE01.JPG,AFNE01.JPG,AFNE01.JPG,AFNE01.JPG,AFNE01.JPG,3,2,32,5,,,,,,,,,,,,,,,,,,,,,,,AMNE01.jpg,AMNE04.jpg,AMSA02.jpg,AMSA17.jpg,AMSA17.jpg,MS,2,num_4,32,num_6,0.900156135831,,,2017_Nov_21_1154,60.0031177463,MAFE4ImagesEEG,001,202330,
AFNE01.JPG,AFNE01.JPG,AFNE01.JPG,AFNE01.JPG,AFNE01.JPG,AFNE01.JPG,3,3,33,4,,,,,,,,,,,,,,,,,,,,,,,AMNE04.jpg,AMNE08.jpg,AMSA05.jpg,AMSA16.jpg,AMNE08.jpg,MN,1,num_6,32,num_4,1.0167332842,,,2017_Nov_21_1154,60.0031177463,MAFE4ImagesEEG,001,202330,
AFNE01.JPG,AFNE01.JPG,AFNE01.JPG,AFNE01.JPG,AFNE01.JPG,AFNE01.JPG,3,4,34,7,,,,,,,,,,,,,,,,,,,,,,,AMSA12.jpg,AMNE06.jpg,AMSA18.jpg,AMNE05.jpg,AMNE05.jpg,MN,1,num_4,32,num_8,0.83343436617,,,2017_Nov_21_1154,60.0031177463,MAFE4ImagesEEG,001,202330,
AFNE01.JPG,AFNE01.JPG,AFNE01.JPG,AFNE01.JPG,AFNE01.JPG,AFNE01.JPG,3,5,35,9,,,,,,,,,,,,,,,,,,,,,,,AMSA02.jpg,AMSA11.jpg,AMNE20.jpg,AMNE05.jpg,AMNE20.jpg,MN,1,num_2,32,num_4,0.800111809687,,,2017_Nov_21_1154,60.0031177463,MAFE4ImagesEEG,001,202330,
AFNE01.JPG,AFNE01.JPG,AFNE01.JPG,AFNE01.JPG,AFNE01.JPG,AFNE01.JPG,3,6,36,0,,,,,,,,,,,,,,,,,,,,,,,AMNE14.jpg,AMNE17.jpg,AMSA15.jpg,AMSA06.jpg,AMSA15.jpg,MS,2,num_2,32,num_6,1.10011007769,,,2017_Nov_21_1154,60.0031177463,MAFE4ImagesEEG,001,202330,
AFNE01.JPG,AFNE01.JPG,AFNE01.JPG,AFNE01.JPG,AFNE01.JPG,AFNE01.JPG,3,7,37,3,,,,,,,,,,,,,,,,,,,,,,,AMNE12.jpg,AMSA12.jpg,AMNE16.jpg,AMSA15.jpg,AMNE12.jpg,MN,1,num_8,32,num_4,1.83336989761,,,2017_Nov_21_1154,60.0031177463,MAFE4ImagesEEG,001,202330,
AFNE01.JPG,AFNE01.JPG,AFNE01.JPG,AFNE01.JPG,AFNE01.JPG,AFNE01.JPG,3,8,38,6,,,,,,,,,,,,,,,,,,,,,,,AMSA12.jpg,AMSA06.jpg,AMNE18.jpg,AMNE01.jpg,AMNE01.jpg,MN,1,num_4,16,num_4,0.51664379795,,,2017_Nov_21_1154,60.0031177463,MAFE4ImagesEEG,001,202330,
AFNE01.JPG,AFNE01.JPG,AFNE01.JPG,AFNE01.JPG,AFNE01.JPG,AFNE01.JPG,3,9,39,2,,,,,,,,,,,,,,,,,,,,,,,AMSA17.jpg,AMSA16.jpg,AMNE13.jpg,AMNE12.jpg,AMNE12.jpg,MN,1,num_4,16,num_4,0.800097055675,,,2017_Nov_21_1154,60.0031177463,MAFE4ImagesEEG,001,202330,
AFNE01.JPG,AFNE01.JPG,AFNE01.JPG,AFNE01.JPG,AFNE01.JPG,AFNE01.JPG,4,0,40,6,,,,,,,,,,,,,,,,,,,,,,,AMNE05.jpg,AMSA10.jpg,AMNE17.jpg,AMSA01.jpg,AMNE17.jpg,MN,1,num_2,16,num_2,0.783470898372,,,2017_Nov_21_1154,60.0031177463,MAFE4ImagesEEG,001,202330,
AFNE01.JPG,AFNE01.JPG,AFNE01.JPG,AFNE01.JPG,AFNE01.JPG,AFNE01.JPG,4,1,41,2,,,,,,,,,,,,,,,,,,,,,,,AMSA19.jpg,AMNE07.jpg,AMNE03.jpg,AMSA09.jpg,AMSA09.jpg,MS,2,num_4,16,num_4,0.700173327452,,,2017_Nov_21_1154,60.0031177463,MAFE4ImagesEEG,001,202330,
AFNE01.JPG,AFNE01.JPG,AFNE01.JPG,AFNE01.JPG,AFNE01.JPG,AFNE01.JPG,4,2,42,1,,,,,,,,,,,,,,,,,,,,,,,AMSA01.jpg,AMSA19.jpg,AMNE13.jpg,AMNE18.jpg,AMNE13.jpg,MN,1,num_2,32,num_4,0.866831654901,,,2017_Nov_21_1154,60.0031177463,MAFE4ImagesEEG,001,202330,
AFNE01.JPG,AFNE01.JPG,AFNE01.JPG,AFNE01.JPG,AFNE01.JPG,AFNE01.JPG,4,3,43,4,,,,,,,,,,,,,,,,,,,,,,,AMNE05.jpg,AMSA11.jpg,AMNE15.jpg,AMSA16.jpg,AMNE15.jpg,MN,1,num_2,32,num_8,0.783446842921,,,2017_Nov_21_1154,60.0031177463,MAFE4ImagesEEG,001,202330,
AFNE01.JPG,AFNE01.JPG,AFNE01.JPG,AFNE01.JPG,AFNE01.JPG,AFNE01.JPG,4,4,44,8,,,,,,,,,,,,,,,,,,,,,,,AMSA18.jpg,AMNE18.jpg,AMNE12.jpg,AMSA12.jpg,AMSA18.jpg,MS,2,num_8,32,num_2,0.866749545676,,,2017_Nov_21_1154,60.0031177463,MAFE4ImagesEEG,001,202330,
AFNE01.JPG,AFNE01.JPG,AFNE01.JPG,AFNE01.JPG,AFNE01.JPG,AFNE01.JPG,4,5,45,9,,,,,,,,,,,,,,,,,,,,,,,AMNE03.jpg,AMSA17.jpg,AMNE08.jpg,AMSA06.jpg,AMNE08.jpg,MN,1,num_2,32,num_8,0.583476222644,,,2017_Nov_21_1154,60.0031177463,MAFE4ImagesEEG,001,202330,
AFNE01.JPG,AFNE01.JPG,AFNE01.JPG,AFNE01.JPG,AFNE01.JPG,AFNE01.JPG,4,6,46,3,,,,,,,,,,,,,,,,,,,,,,,AMNE06.jpg,AMNE04.jpg,AMSA11.jpg,AMSA05.jpg,AMSA11.jpg,MS,2,num_2,32,num_6,0.450183110006,,,2017_Nov_21_1154,60.0031177463,MAFE4ImagesEEG,001,202330,
AFNE01.JPG,AFNE01.JPG,AFNE01.JPG,AFNE01.JPG,AFNE01.JPG,AFNE01.JPG,4,7,47,5,,,,,,,,,,,,,,,,,,,,,,,AMNE14.jpg,AMSA20.jpg,AMNE09.jpg,AMSA04.jpg,AMNE09.jpg,MN,1,num_2,16,num_2,0.866766865583,,,2017_Nov_21_1154,60.0031177463,MAFE4ImagesEEG,001,202330,
AFNE01.JPG,AFNE01.JPG,AFNE01.JPG,AFNE01.JPG,AFNE01.JPG,AFNE01.JPG,4,8,48,7,,,,,,,,,,,,,,,,,,,,,,,AMNE19.jpg,AMNE12.jpg,AMSA15.jpg,AMSA01.jpg,AMNE19.jpg,MN,1,num_8,16,num_8,0.900117967874,,,2017_Nov_21_1154,60.0031177463,MAFE4ImagesEEG,001,202330,
AFNE01.JPG,AFNE01.JPG,AFNE01.JPG,AFNE01.JPG,AFNE01.JPG,AFNE01.JPG,4,9,49,0,,,,,,,,,,,,,,,,,,,,,,,AMSA05.jpg,AMNE08.jpg,AMSA03.jpg,AMNE12.jpg,AMSA05.jpg,MS,2,num_8,32,num_4,1.25010696652,,,2017_Nov_21_1154,60.0031177463,MAFE4ImagesEEG,001,202330,
AFNE01.JPG,AFNE01.JPG,AFNE01.JPG,AFNE01.JPG,AFNE01.JPG,AFNE01.JPG,5,0,50,5,,,,,,,,,,,,,,,,,,,,,,,AMSA14.jpg,AMNE07.jpg,AMNE12.jpg,AMSA03.jpg,AMNE12.jpg,MN,1,num_2,16,num_2,1.1500809225,,,2017_Nov_21_1154,60.0031177463,MAFE4ImagesEEG,001,202330,
AFNE01.JPG,AFNE01.JPG,AFNE01.JPG,AFNE01.JPG,AFNE01.JPG,AFNE01.JPG,5,1,51,3,,,,,,,,,,,,,,,,,,,,,,,AMSA01.jpg,AMNE08.jpg,AMNE15.jpg,AMSA14.jpg,AMSA14.jpg,MS,2,num_4,32,num_8,1.28343818297,,,2017_Nov_21_1154,60.0031177463,MAFE4ImagesEEG,001,202330,
AFNE01.JPG,AFNE01.JPG,AFNE01.JPG,AFNE01.JPG,AFNE01.JPG,AFNE01.JPG,5,2,52,8,,,,,,,,,,,,,,,,,,,,,,,AMNE13.jpg,AMNE18.jpg,AMSA06.jpg,AMSA14.jpg,AMSA14.jpg,MS,2,num_4,16,num_4,0.683480777137,,,2017_Nov_21_1154,60.0031177463,MAFE4ImagesEEG,001,202330,
AFNE01.JPG,AFNE01.JPG,AFNE01.JPG,AFNE01.JPG,AFNE01.JPG,AFNE01.JPG,5,3,53,7,,,,,,,,,,,,,,,,,,,,,,,AMSA10.jpg,AMNE16.jpg,AMNE09.jpg,AMSA15.jpg,AMNE16.jpg,MN,1,num_6,16,num_6,0.550118705563,,,2017_Nov_21_1154,60.0031177463,MAFE4ImagesEEG,001,202330,
AFNE01.JPG,AFNE01.JPG,AFNE01.JPG,AFNE01.JPG,AFNE01.JPG,AFNE01.JPG,5,4,54,1,,,,,,,,,,,,,,,,,,,,,,,AMNE20.jpg,AMSA09.jpg,AMSA14.jpg,AMNE08.jpg,AMNE20.jpg,MN,1,num_8,32,num_6,1.30007364172,,,2017_Nov_21_1154,60.0031177463,MAFE4ImagesEEG,001,202330,
AFNE01.JPG,AFNE01.JPG,AFNE01.JPG,AFNE01.JPG,AFNE01.JPG,AFNE01.JPG,5,5,55,6,,,,,,,,,,,,,,,,,,,,,,,AMNE07.jpg,AMNE13.jpg,AMSA13.jpg,AMSA19.jpg,AMSA19.jpg,MS,2,num_4,16,num_4,0.833492419973,,,2017_Nov_21_1154,60.0031177463,MAFE4ImagesEEG,001,202330,
AFNE01.JPG,AFNE01.JPG,AFNE01.JPG,AFNE01.JPG,AFNE01.JPG,AFNE01.JPG,5,6,56,2,,,,,,,,,,,,,,,,,,,,,,,AMNE05.jpg,AMNE14.jpg,AMSA17.jpg,AMSA04.jpg,AMNE05.jpg,MN,1,num_8,16,num_8,1.10010173847,,,2017_Nov_21_1154,60.0031177463,MAFE4ImagesEEG,001,202330,
AFNE01.JPG,AFNE01.JPG,AFNE01.JPG,AFNE01.JPG,AFNE01.JPG,AFNE01.JPG,5,7,57,9,,,,,,,,,,,,,,,,,,,,,,,AMSA13.jpg,AMSA14.jpg,AMNE02.jpg,AMNE12.jpg,AMNE02.jpg,MN,1,num_2,16,num_2,0.61678370439,,,2017_Nov_21_1154,60.0031177463,MAFE4ImagesEEG,001,202330,
AFNE01.JPG,AFNE01.JPG,AFNE01.JPG,AFNE01.JPG,AFNE01.JPG,AFNE01.JPG,5,8,58,0,,,,,,,,,,,,,,,,,,,,,,,AMNE06.jpg,AMSA05.jpg,AMNE12.jpg,AMSA17.jpg,AMSA05.jpg,MS,2,num_6,32,num_8,1.21673982727,,,2017_Nov_21_1154,60.0031177463,MAFE4ImagesEEG,001,202330,
AFNE01.JPG,AFNE01.JPG,AFNE01.JPG,AFNE01.JPG,AFNE01.JPG,AFNE01.JPG,5,9,59,4,,,,,,,,,,,,,,,,,,,,,,,AMNE10.jpg,AMSA13.jpg,AMSA02.jpg,AMNE18.jpg,AMSA13.jpg,MS,2,num_6,32,num_4,0.983409124005,,,2017_Nov_21_1154,60.0031177463,MAFE4ImagesEEG,001,202330,
,,,,,,,,,,,,,,,,,,,,,,,,,,,,,,,,,,,,,,,,,,,space,26.2816847018,2017_Nov_21_1154,60.0031177463,MAFE4ImagesEEG,001,202330,
AFNE01.JPG,AFNE01.JPG,AFNE01.JPG,AFNE01.JPG,AFNE01.JPG,AFNE01.JPG,,,,,0,0,0,7,,,,,,,,,,,,,,,,,,,AFNE20.jpg,AFNE02.jpg,AFSA08.jpg,AFSA14.jpg,AFSA14.jpg,FS,4,num_4,16,num_4,0.866763337457,,,2017_Nov_21_1154,60.0031177463,MAFE4ImagesEEG,001,202330,
AFNE01.JPG,AFNE01.JPG,AFNE01.JPG,AFNE01.JPG,AFNE01.JPG,AFNE01.JPG,,,,,0,1,1,6,,,,,,,,,,,,,,,,,,,AFNE02.jpg,AFSA06.jpg,AFNE15.jpg,AFSA01.jpg,AFSA06.jpg,FS,4,num_6,32,num_4,0.733416661373,,,2017_Nov_21_1154,60.0031177463,MAFE4ImagesEEG,001,202330,
AFNE01.JPG,AFNE01.JPG,AFNE01.JPG,AFNE01.JPG,AFNE01.JPG,AFNE01.JPG,,,,,0,2,2,0,,,,,,,,,,,,,,,,,,,AFSA04.jpg,AFNE14.jpg,AFSA11.jpg,AFNE06.jpg,AFNE06.jpg,FN,3,num_4,16,num_4,0.883443058206,,,2017_Nov_21_1154,60.0031177463,MAFE4ImagesEEG,001,202330,
AFNE01.JPG,AFNE01.JPG,AFNE01.JPG,AFNE01.JPG,AFNE01.JPG,AFNE01.JPG,,,,,0,3,3,9,,,,,,,,,,,,,,,,,,,AFSA11.jpg,AFNE03.jpg,AFNE10.jpg,AFSA02.jpg,AFNE10.jpg,FN,3,num_2,16,num_2,1.00010873059,,,2017_Nov_21_1154,60.0031177463,MAFE4ImagesEEG,001,202330,
AFNE01.JPG,AFNE01.JPG,AFNE01.JPG,AFNE01.JPG,AFNE01.JPG,AFNE01.JPG,,,,,0,4,4,8,,,,,,,,,,,,,,,,,,,AFSA05.jpg,AFNE08.jpg,AFSA11.jpg,AFNE09.jpg,AFSA05.jpg,FS,4,num_8,16,num_8,0.866435221265,,,2017_Nov_21_1154,60.0031177463,MAFE4ImagesEEG,001,202330,
AFNE01.JPG,AFNE01.JPG,AFNE01.JPG,AFNE01.JPG,AFNE01.JPG,AFNE01.JPG,,,,,0,5,5,4,,,,,,,,,,,,,,,,,,,AFSA16.jpg,AFNE03.jpg,AFNE18.jpg,AFSA19.jpg,AFNE03.jpg,FN,3,num_6,16,num_6,1.73338394599,,,2017_Nov_21_1154,60.0031177463,MAFE4ImagesEEG,001,202330,
AFNE01.JPG,AFNE01.JPG,AFNE01.JPG,AFNE01.JPG,AFNE01.JPG,AFNE01.JPG,,,,,0,6,6,5,,,,,,,,,,,,,,,,,,,AFSA06.jpg,AFSA17.jpg,AFNE16.jpg,AFNE14.jpg,AFSA06.jpg,FS,4,num_8,16,num_8,1.05013506327,,,2017_Nov_21_1154,60.0031177463,MAFE4ImagesEEG,001,202330,
AFNE01.JPG,AFNE01.JPG,AFNE01.JPG,AFNE01.JPG,AFNE01.JPG,AFNE01.JPG,,,,,0,7,7,1,,,,,,,,,,,,,,,,,,,AFSA17.jpg,AFSA13.jpg,AFNE09.jpg,AFNE03.jpg,AFSA13.jpg,FS,4,num_6,16,num_6,1.01673360493,,,2017_Nov_21_1154,60.0031177463,MAFE4ImagesEEG,001,202330,
AFNE01.JPG,AFNE01.JPG,AFNE01.JPG,AFNE01.JPG,AFNE01.JPG,AFNE01.JPG,,,,,0,8,8,3,,,,,,,,,,,,,,,,,,,AFSA09.jpg,AFNE07.jpg,AFSA10.jpg,AFNE19.jpg,AFSA10.jpg,FS,4,num_2,16,num_2,0.8667768085,,,2017_Nov_21_1154,60.0031177463,MAFE4ImagesEEG,001,202330,
AFNE01.JPG,AFNE01.JPG,AFNE01.JPG,AFNE01.JPG,AFNE01.JPG,AFNE01.JPG,,,,,0,9,9,2,,,,,,,,,,,,,,,,,,,AFSA14.jpg,AFSA16.jpg,AFNE14.jpg,AFNE20.jpg,AFNE20.jpg,FN,3,num_4,16,num_4,1.08334471956,,,2017_Nov_21_1154,60.0031177463,MAFE4ImagesEEG,001,202330,
AFNE01.JPG,AFNE01.JPG,AFNE01.JPG,AFNE01.JPG,AFNE01.JPG,AFNE01.JPG,,,,,1,0,10,0,,,,,,,,,,,,,,,,,,,AFSA08.jpg,AFSA09.jpg,AFNE10.jpg,AFNE09.jpg,AFSA09.jpg,FS,4,num_6,32,num_2,1.08343420581,,,2017_Nov_21_1154,60.0031177463,MAFE4ImagesEEG,001,202330,
AFNE01.JPG,AFNE01.JPG,AFNE01.JPG,AFNE01.JPG,AFNE01.JPG,AFNE01.JPG,,,,,1,1,11,9,,,,,,,,,,,,,,,,,,,AFSA18.jpg,AFSA12.jpg,AFNE04.jpg,AFNE07.jpg,AFNE07.jpg,FN,3,num_4,16,num_4,1.23346060264,,,2017_Nov_21_1154,60.0031177463,MAFE4ImagesEEG,001,202330,
AFNE01.JPG,AFNE01.JPG,AFNE01.JPG,AFNE01.JPG,AFNE01.JPG,AFNE01.JPG,,,,,1,2,12,6,,,,,,,,,,,,,,,,,,,AFNE19.jpg,AFNE02.jpg,AFSA02.jpg,AFSA11.jpg,AFNE02.jpg,FN,3,num_6,16,num_6,1.08342779103,,,2017_Nov_21_1154,60.0031177463,MAFE4ImagesEEG,001,202330,
AFNE01.JPG,AFNE01.JPG,AFNE01.JPG,AFNE01.JPG,AFNE01.JPG,AFNE01.JPG,,,,,1,3,13,8,,,,,,,,,,,,,,,,,,,AFNE16.jpg,AFNE09.jpg,AFSA08.jpg,AFSA14.jpg,AFNE16.jpg,FN,3,num_8,16,num_8,0.550126082569,,,2017_Nov_21_1154,60.0031177463,MAFE4ImagesEEG,001,202330,
AFNE01.JPG,AFNE01.JPG,AFNE01.JPG,AFNE01.JPG,AFNE01.JPG,AFNE01.JPG,,,,,1,4,14,1,,,,,,,,,,,,,,,,,,,AFNE11.jpg,AFSA16.jpg,AFSA19.jpg,AFNE12.jpg,AFSA16.jpg,FS,4,num_6,16,num_6,1.0334691343,,,2017_Nov_21_1154,60.0031177463,MAFE4ImagesEEG,001,202330,
AFNE01.JPG,AFNE01.JPG,AFNE01.JPG,AFNE01.JPG,AFNE01.JPG,AFNE01.JPG,,,,,1,5,15,4,,,,,,,,,,,,,,,,,,,AFNE13.jpg,AFSA13.jpg,AFNE05.jpg,AFSA18.jpg,AFNE13.jpg,FN,3,num_8,32,num_6,1.6833970642,,,2017_Nov_21_1154,60.0031177463,MAFE4ImagesEEG,001,202330,
AFNE01.JPG,AFNE01.JPG,AFNE01.JPG,AFNE01.JPG,AFNE01.JPG,AFNE01.JPG,,,,,1,6,16,7,,,,,,,,,,,,,,,,,,,AFSA14.jpg,AFNE09.jpg,AFSA04.jpg,AFNE15.jpg,AFSA04.jpg,FS,4,num_2,32,num_8,1.16674332334,,,2017_Nov_21_1154,60.0031177463,MAFE4ImagesEEG,001,202330,
AFNE01.JPG,AFNE01.JPG,AFNE01.JPG,AFNE01.JPG,AFNE01.JPG,AFNE01.JPG,,,,,1,7,17,2,,,,,,,,,,,,,,,,,,,AFSA01.jpg,AFSA03.jpg,AFNE10.jpg,AFNE01.jpg,AFSA03.jpg,FS,4,num_6,16,num_6,1.08348937295,,,2017_Nov_21_1154,60.0031177463,MAFE4ImagesEEG,001,202330,
AFNE01.JPG,AFNE01.JPG,AFNE01.JPG,AFNE01.JPG,AFNE01.JPG,AFNE01.JPG,,,,,1,8,18,3,,,,,,,,,,,,,,,,,,,AFNE02.jpg,AFSA14.jpg,AFSA18.jpg,AFNE16.jpg,AFNE16.jpg,FN,3,num_4,16,num_4,1.33345040314,,,2017_Nov_21_1154,60.0031177463,MAFE4ImagesEEG,001,202330,
AFNE01.JPG,AFNE01.JPG,AFNE01.JPG,AFNE01.JPG,AFNE01.JPG,AFNE01.JPG,,,,,1,9,19,5,,,,,,,,,,,,,,,,,,,AFSA01.jpg,AFNE19.jpg,AFNE09.jpg,AFSA07.jpg,AFNE19.jpg,FN,3,num_6,16,num_6,1.46678777778,,,2017_Nov_21_1154,60.0031177463,MAFE4ImagesEEG,001,202330,
AFNE01.JPG,AFNE01.JPG,AFNE01.JPG,AFNE01.JPG,AFNE01.JPG,AFNE01.JPG,,,,,2,0,20,5,,,,,,,,,,,,,,,,,,,AFSA14.jpg,AFNE10.jpg,AFSA08.jpg,AFNE13.jpg,AFSA08.jpg,FS,4,num_2,32,num_4,1.50005516714,,,2017_Nov_21_1154,60.0031177463,MAFE4ImagesEEG,001,202330,
AFNE01.JPG,AFNE01.JPG,AFNE01.JPG,AFNE01.JPG,AFNE01.JPG,AFNE01.JPG,,,,,2,1,21,2,,,,,,,,,,,,,,,,,,,AFNE14.jpg,AFSA19.jpg,AFNE03.jpg,AFSA14.jpg,AFNE03.jpg,FN,3,num_2,16,num_2,1.21672346957,,,2017_Nov_21_1154,60.0031177463,MAFE4ImagesEEG,001,202330,
AFNE01.JPG,AFNE01.JPG,AFNE01.JPG,AFNE01.JPG,AFNE01.JPG,AFNE01.JPG,,,,,2,2,22,1,,,,,,,,,,,,,,,,,,,AFNE14.jpg,AFSA19.jpg,AFNE15.jpg,AFSA18.jpg,AFSA18.jpg,FS,4,num_4,16,num_4,1.00011482464,,,2017_Nov_21_1154,60.0031177463,MAFE4ImagesEEG,001,202330,
AFNE01.JPG,AFNE01.JPG,AFNE01.JPG,AFNE01.JPG,AFNE01.JPG,AFNE01.JPG,,,,,2,3,23,0,,,,,,,,,,,,,,,,,,,AFSA03.jpg,AFNE05.jpg,AFNE15.jpg,AFSA08.jpg,AFSA03.jpg,FS,4,num_8,16,num_8,1.18345223134,,,2017_Nov_21_1154,60.0031177463,MAFE4ImagesEEG,001,202330,
AFNE01.JPG,AFNE01.JPG,AFNE01.JPG,AFNE01.JPG,AFNE01.JPG,AFNE01.JPG,,,,,2,4,24,8,,,,,,,,,,,,,,,,,,,AFNE05.jpg,AFSA19.jpg,AFNE17.jpg,AFSA20.jpg,AFNE05.jpg,FN,3,num_8,32,num_6,1.50018089691,,,2017_Nov_21_1154,60.0031177463,MAFE4ImagesEEG,001,202330,
AFNE01.JPG,AFNE01.JPG,AFNE01.JPG,AFNE01.JPG,AFNE01.JPG,AFNE01.JPG,,,,,2,5,25,6,,,,,,,,,,,,,,,,,,,AFSA16.jpg,AFSA12.jpg,AFNE07.jpg,AFNE12.jpg,AFNE12.jpg,FN,3,num_4,16,num_4,0.916774595404,,,2017_Nov_21_1154,60.0031177463,MAFE4ImagesEEG,001,202330,
AFNE01.JPG,AFNE01.JPG,AFNE01.JPG,AFNE01.JPG,AFNE01.JPG,AFNE01.JPG,,,,,2,6,26,3,,,,,,,,,,,,,,,,,,,AFNE13.jpg,AFNE05.jpg,AFSA14.jpg,AFSA12.jpg,AFSA12.jpg,FS,4,num_4,16,num_4,0.733527957869,,,2017_Nov_21_1154,60.0031177463,MAFE4ImagesEEG,001,202330,
AFNE01.JPG,AFNE01.JPG,AFNE01.JPG,AFNE01.JPG,AFNE01.JPG,AFNE01.JPG,,,,,2,7,27,4,,,,,,,,,,,,,,,,,,,AFSA11.jpg,AFSA10.jpg,AFNE11.jpg,AFNE08.jpg,AFNE08.jpg,FN,3,num_4,32,num_2,1.01686382505,,,2017_Nov_21_1154,60.0031177463,MAFE4ImagesEEG,001,202330,
AFNE01.JPG,AFNE01.JPG,AFNE01.JPG,AFNE01.JPG,AFNE01.JPG,AFNE01.JPG,,,,,2,8,28,9,,,,,,,,,,,,,,,,,,,AFNE08.jpg,AFSA08.jpg,AFSA20.jpg,AFNE20.jpg,AFSA08.jpg,FS,4,num_6,16,num_6,1.13372643129,,,2017_Nov_21_1154,60.0031177463,MAFE4ImagesEEG,001,202330,
AFNE01.JPG,AFNE01.JPG,AFNE01.JPG,AFNE01.JPG,AFNE01.JPG,AFNE01.JPG,,,,,2,9,29,7,,,,,,,,,,,,,,,,,,,AFNE17.jpg,AFSA02.jpg,AFNE09.jpg,AFSA04.jpg,AFSA02.jpg,FS,4,num_6,16,num_6,1.3667293391,,,2017_Nov_21_1154,60.0031177463,MAFE4ImagesEEG,001,202330,
AFNE01.JPG,AFNE01.JPG,AFNE01.JPG,AFNE01.JPG,AFNE01.JPG,AFNE01.JPG,,,,,3,0,30,5,,,,,,,,,,,,,,,,,,,AFNE07.jpg,AFNE18.jpg,AFSA19.jpg,AFSA09.jpg,AFSA09.jpg,FS,4,num_4,16,num_4,0.683450627665,,,2017_Nov_21_1154,60.0031177463,MAFE4ImagesEEG,001,202330,
AFNE01.JPG,AFNE01.JPG,AFNE01.JPG,AFNE01.JPG,AFNE01.JPG,AFNE01.JPG,,,,,3,1,31,2,,,,,,,,,,,,,,,,,,,AFSA08.jpg,AFNE15.jpg,AFNE01.jpg,AFSA15.jpg,AFNE01.jpg,FN,3,num_2,32,num_8,1.49993553142,,,2017_Nov_21_1154,60.0031177463,MAFE4ImagesEEG,001,202330,
AFNE01.JPG,AFNE01.JPG,AFNE01.JPG,AFNE01.JPG,AFNE01.JPG,AFNE01.JPG,,,,,3,2,32,7,,,,,,,,,,,,,,,,,,,AFNE20.jpg,AFSA05.jpg,AFSA17.jpg,AFNE14.jpg,AFSA17.jpg,FS,4,num_2,32,num_6,0.683474683101,,,2017_Nov_21_1154,60.0031177463,MAFE4ImagesEEG,001,202330,
AFNE01.JPG,AFNE01.JPG,AFNE01.JPG,AFNE01.JPG,AFNE01.JPG,AFNE01.JPG,,,,,3,3,33,9,,,,,,,,,,,,,,,,,,,AFSA09.jpg,AFNE01.jpg,AFSA03.jpg,AFNE12.jpg,AFSA03.jpg,FS,4,num_2,16,num_2,0.566898496952,,,2017_Nov_21_1154,60.0031177463,MAFE4ImagesEEG,001,202330,
AFNE01.JPG,AFNE01.JPG,AFNE01.JPG,AFNE01.JPG,AFNE01.JPG,AFNE01.JPG,,,,,3,4,34,6,,,,,,,,,,,,,,,,,,,AFNE05.jpg,AFSA09.jpg,AFSA13.jpg,AFNE06.jpg,AFNE06.jpg,FN,3,num_4,32,num_6,0.916780368716,,,2017_Nov_21_1154,60.0031177463,MAFE4ImagesEEG,001,202330,
AFNE01.JPG,AFNE01.JPG,AFNE01.JPG,AFNE01.JPG,AFNE01.JPG,AFNE01.JPG,,,,,3,5,35,0,,,,,,,,,,,,,,,,,,,AFSA13.jpg,AFSA18.jpg,AFNE20.jpg,AFNE06.jpg,AFSA13.jpg,FS,4,num_8,32,num_6,1.26674563265,,,2017_Nov_21_1154,60.0031177463,MAFE4ImagesEEG,001,202330,
AFNE01.JPG,AFNE01.JPG,AFNE01.JPG,AFNE01.JPG,AFNE01.JPG,AFNE01.JPG,,,,,3,6,36,1,,,,,,,,,,,,,,,,,,,AFNE09.jpg,AFSA08.jpg,AFSA18.jpg,AFNE20.jpg,AFNE09.jpg,FN,3,num_8,16,num_8,0.816757532084,,,2017_Nov_21_1154,60.0031177463,MAFE4ImagesEEG,001,202330,
AFNE01.JPG,AFNE01.JPG,AFNE01.JPG,AFNE01.JPG,AFNE01.JPG,AFNE01.JPG,,,,,3,7,37,8,,,,,,,,,,,,,,,,,,,AFSA03.jpg,AFNE19.jpg,AFNE16.jpg,AFSA14.jpg,AFSA03.jpg,FS,4,num_8,16,num_8,0.500145615588,,,2017_Nov_21_1154,60.0031177463,MAFE4ImagesEEG,001,202330,
AFNE01.JPG,AFNE01.JPG,AFNE01.JPG,AFNE01.JPG,AFNE01.JPG,AFNE01.JPG,,,,,3,8,38,4,,,,,,,,,,,,,,,,,,,AFSA05.jpg,AFNE07.jpg,AFNE03.jpg,AFSA17.jpg,AFSA05.jpg,FS,4,num_8,32,num_4,1.21677222193,,,2017_Nov_21_1154,60.0031177463,MAFE4ImagesEEG,001,202330,
AFNE01.JPG,AFNE01.JPG,AFNE01.JPG,AFNE01.JPG,AFNE01.JPG,AFNE01.JPG,,,,,3,9,39,3,,,,,,,,,,,,,,,,,,,AFNE04.jpg,AFSA09.jpg,AFNE01.jpg,AFSA01.jpg,AFSA01.jpg,FS,4,num_4,16,num_4,0.566797464111,,,2017_Nov_21_1154,60.0031177463,MAFE4ImagesEEG,001,202330,
AFNE01.JPG,AFNE01.JPG,AFNE01.JPG,AFNE01.JPG,AFNE01.JPG,AFNE01.JPG,,,,,4,0,40,4,,,,,,,,,,,,,,,,,,,AFNE12.jpg,AFSA06.jpg,AFNE09.jpg,AFSA09.jpg,AFSA09.jpg,FS,4,num_4,16,num_4,0.750132625646,,,2017_Nov_21_1154,60.0031177463,MAFE4ImagesEEG,001,202330,
AFNE01.JPG,AFNE01.JPG,AFNE01.JPG,AFNE01.JPG,AFNE01.JPG,AFNE01.JPG,,,,,4,1,41,2,,,,,,,,,,,,,,,,,,,AFSA20.jpg,AFNE16.jpg,AFSA13.jpg,AFNE14.jpg,AFNE16.jpg,FN,3,num_6,16,num_6,0.883466151427,,,2017_Nov_21_1154,60.0031177463,MAFE4ImagesEEG,001,202330,
AFNE01.JPG,AFNE01.JPG,AFNE01.JPG,AFNE01.JPG,AFNE01.JPG,AFNE01.JPG,,,,,4,2,42,8,,,,,,,,,,,,,,,,,,,AFSA05.jpg,AFNE05.jpg,AFNE14.jpg,AFSA19.jpg,AFSA05.jpg,FS,4,num_8,16,num_8,0.383470000306,,,2017_Nov_21_1154,60.0031177463,MAFE4ImagesEEG,001,202330,
AFNE01.JPG,AFNE01.JPG,AFNE01.JPG,AFNE01.JPG,AFNE01.JPG,AFNE01.JPG,,,,,4,3,43,9,,,,,,,,,,,,,,,,,,,AFNE17.jpg,AFSA03.jpg,AFNE05.jpg,AFSA17.jpg,AFNE17.jpg,FN,3,num_8,32,num_2,1.21673501619,,,2017_Nov_21_1154,60.0031177463,MAFE4ImagesEEG,001,202330,
AFNE01.JPG,AFNE01.JPG,AFNE01.JPG,AFNE01.JPG,AFNE01.JPG,AFNE01.JPG,,,,,4,4,44,3,,,,,,,,,,,,,,,,,,,AFSA04.jpg,AFSA05.jpg,AFNE08.jpg,AFNE19.jpg,AFSA04.jpg,FS,4,num_8,16,num_8,0.500112258713,,,2017_Nov_21_1154,60.0031177463,MAFE4ImagesEEG,001,202330,
AFNE01.JPG,AFNE01.JPG,AFNE01.JPG,AFNE01.JPG,AFNE01.JPG,AFNE01.JPG,,,,,4,5,45,6,,,,,,,,,,,,,,,,,,,AFNE12.jpg,AFSA04.jpg,AFSA08.jpg,AFNE06.jpg,AFNE06.jpg,FN,3,num_4,32,num_2,1.21674303466,,,2017_Nov_21_1154,60.0031177463,MAFE4ImagesEEG,001,202330,
AFNE01.JPG,AFNE01.JPG,AFNE01.JPG,AFNE01.JPG,AFNE01.JPG,AFNE01.JPG,,,,,4,6,46,5,,,,,,,,,,,,,,,,,,,AFSA10.jpg,AFSA17.jpg,AFNE03.jpg,AFNE06.jpg,AFSA10.jpg,FS,4,num_8,32,num_2,1.2834317682,,,2017_Nov_21_1154,60.0031177463,MAFE4ImagesEEG,001,202330,
AFNE01.JPG,AFNE01.JPG,AFNE01.JPG,AFNE01.JPG,AFNE01.JPG,AFNE01.JPG,,,,,4,7,47,7,,,,,,,,,,,,,,,,,,,AFNE16.jpg,AFSA16.jpg,AFNE03.jpg,AFSA12.jpg,AFNE03.jpg,FN,3,num_2,16,num_2,1.01677081067,,,2017_Nov_21_1154,60.0031177463,MAFE4ImagesEEG,001,202330,
AFNE01.JPG,AFNE01.JPG,AFNE01.JPG,AFNE01.JPG,AFNE01.JPG,AFNE01.JPG,,,,,4,8,48,0,,,,,,,,,,,,,,,,,,,AFNE19.jpg,AFSA10.jpg,AFSA14.jpg,AFNE13.jpg,AFNE19.jpg,FN,3,num_8,32,num_2,2.13352179968,,,2017_Nov_21_1154,60.0031177463,MAFE4ImagesEEG,001,202330,
AFNE01.JPG,AFNE01.JPG,AFNE01.JPG,AFNE01.JPG,AFNE01.JPG,AFNE01.JPG,,,,,4,9,49,1,,,,,,,,,,,,,,,,,,,AFNE17.jpg,AFSA14.jpg,AFNE07.jpg,AFSA11.jpg,AFSA11.jpg,FS,4,num_4,16,num_4,0.633530780382,,,2017_Nov_21_1154,60.0031177463,MAFE4ImagesEEG,001,202330,
AFNE01.JPG,AFNE01.JPG,AFNE01.JPG,AFNE01.JPG,AFNE01.JPG,AFNE01.JPG,,,,,5,0,50,3,,,,,,,,,,,,,,,,,,,AFNE02.jpg,AFNE04.jpg,AFSA20.jpg,AFSA09.jpg,AFSA20.jpg,FS,4,num_2,16,num_2,0.716830596459,,,2017_Nov_21_1154,60.0031177463,MAFE4ImagesEEG,001,202330,
AFNE01.JPG,AFNE01.JPG,AFNE01.JPG,AFNE01.JPG,AFNE01.JPG,AFNE01.JPG,,,,,5,1,51,7,,,,,,,,,,,,,,,,,,,AFNE07.jpg,AFSA06.jpg,AFNE12.jpg,AFSA03.jpg,AFSA06.jpg,FS,4,num_6,16,num_6,0.633542326977,,,2017_Nov_21_1154,60.0031177463,MAFE4ImagesEEG,001,202330,
AFNE01.JPG,AFNE01.JPG,AFNE01.JPG,AFNE01.JPG,AFNE01.JPG,AFNE01.JPG,,,,,5,2,52,8,,,,,,,,,,,,,,,,,,,AFSA16.jpg,AFSA06.jpg,AFNE20.jpg,AFNE15.jpg,AFSA06.jpg,FS,4,num_6,16,num_6,1.4168368188,,,2017_Nov_21_1154,60.0031177463,MAFE4ImagesEEG,001,202330,
AFNE01.JPG,AFNE01.JPG,AFNE01.JPG,AFNE01.JPG,AFNE01.JPG,AFNE01.JPG,,,,,5,3,53,9,,,,,,,,,,,,,,,,,,,AFSA15.jpg,AFNE02.jpg,AFSA03.jpg,AFNE18.jpg,AFNE18.jpg,FN,3,num_4,32,num_8,1.45015103607,,,2017_Nov_21_1154,60.0031177463,MAFE4ImagesEEG,001,202330,
AFNE01.JPG,AFNE01.JPG,AFNE01.JPG,AFNE01.JPG,AFNE01.JPG,AFNE01.JPG,,,,,5,4,54,0,,,,,,,,,,,,,,,,,,,AFSA02.jpg,AFNE03.jpg,AFNE19.jpg,AFSA12.jpg,AFNE03.jpg,FN,3,num_6,16,num_6,0.833455214219,,,2017_Nov_21_1154,60.0031177463,MAFE4ImagesEEG,001,202330,
AFNE01.JPG,AFNE01.JPG,AFNE01.JPG,AFNE01.JPG,AFNE01.JPG,AFNE01.JPG,,,,,5,5,55,5,,,,,,,,,,,,,,,,,,,AFNE19.jpg,AFSA19.jpg,AFNE14.jpg,AFSA12.jpg,AFSA19.jpg,FS,4,num_6,16,num_6,1.08351471134,,,2017_Nov_21_1154,60.0031177463,MAFE4ImagesEEG,001,202330,
AFNE01.JPG,AFNE01.JPG,AFNE01.JPG,AFNE01.JPG,AFNE01.JPG,AFNE01.JPG,,,,,5,6,56,1,,,,,,,,,,,,,,,,,,,AFSA11.jpg,AFSA08.jpg,AFNE16.jpg,AFNE13.jpg,AFNE16.jpg,FN,3,num_2,16,num_2,2.51672526573,,,2017_Nov_21_1154,60.0031177463,MAFE4ImagesEEG,001,202330,
AFNE01.JPG,AFNE01.JPG,AFNE01.JPG,AFNE01.JPG,AFNE01.JPG,AFNE01.JPG,,,,,5,7,57,2,,,,,,,,,,,,,,,,,,,AFNE06.jpg,AFSA12.jpg,AFSA19.jpg,AFNE18.jpg,AFSA19.jpg,FS,4,num_2,32,num_6,0.85009452184,,,2017_Nov_21_1154,60.0031177463,MAFE4ImagesEEG,001,202330,
AFNE01.JPG,AFNE01.JPG,AFNE01.JPG,AFNE01.JPG,AFNE01.JPG,AFNE01.JPG,,,,,5,8,58,4,,,,,,,,,,,,,,,,,,,AFNE07.jpg,AFSA16.jpg,AFSA09.jpg,AFNE20.jpg,AFSA16.jpg,FS,4,num_6,16,num_6,0.800113413366,,,2017_Nov_21_1154,60.0031177463,MAFE4ImagesEEG,001,202330,
AFNE01.JPG,AFNE01.JPG,AFNE01.JPG,AFNE01.JPG,AFNE01.JPG,AFNE01.JPG,,,,,5,9,59,6,,,,,,,,,,,,,,,,,,,AFSA05.jpg,AFSA18.jpg,AFNE14.jpg,AFNE04.jpg,AFSA05.jpg,FS,4,num_8,16,num_8,0.416756954757,,,2017_Nov_21_1154,60.0031177463,MAFE4ImagesEEG,001,202330,
,,,,,,,,,,,,,,,,,,,,,,,,,,,,,,,,,,,,,,,,,,,space,16.3490906082,2017_Nov_21_1154,60.0031177463,MAFE4ImagesEEG,001,202330,
AFNE01.JPG,AFNE01.JPG,AFNE01.JPG,AFNE01.JPG,AFNE01.JPG,AFNE01.JPG,,,,,,,,,0,0,0,5,,,,,,,,,,,,,,,AMSA07.jpg,AMSA13.jpg,AMNE18.jpg,AMNE07.jpg,AMNE07.jpg,MN,1,num_4,32,num_6,0.583484882605,,,2017_Nov_21_1154,60.0031177463,MAFE4ImagesEEG,001,202330,
AFNE01.JPG,AFNE01.JPG,AFNE01.JPG,AFNE01.JPG,AFNE01.JPG,AFNE01.JPG,,,,,,,,,0,1,1,3,,,,,,,,,,,,,,,AMNE14.jpg,AMNE01.jpg,AMSA08.jpg,AMSA06.jpg,AMSA08.jpg,MS,2,num_2,16,num_2,1.06660309616,,,2017_Nov_21_1154,60.0031177463,MAFE4ImagesEEG,001,202330,
AFNE01.JPG,AFNE01.JPG,AFNE01.JPG,AFNE01.JPG,AFNE01.JPG,AFNE01.JPG,,,,,,,,,0,2,2,7,,,,,,,,,,,,,,,AMNE09.jpg,AMNE05.jpg,AMSA05.jpg,AMSA11.jpg,AMSA11.jpg,MS,2,num_4,16,num_4,0.88341900277,,,2017_Nov_21_1154,60.0031177463,MAFE4ImagesEEG,001,202330,
AFNE01.JPG,AFNE01.JPG,AFNE01.JPG,AFNE01.JPG,AFNE01.JPG,AFNE01.JPG,,,,,,,,,0,3,3,4,,,,,,,,,,,,,,,AMSA09.jpg,AMNE14.jpg,AMNE20.jpg,AMSA06.jpg,AMNE20.jpg,MN,1,num_2,16,num_2,0.666791113472,,,2017_Nov_21_1154,60.0031177463,MAFE4ImagesEEG,001,202330,
AFNE01.JPG,AFNE01.JPG,AFNE01.JPG,AFNE01.JPG,AFNE01.JPG,AFNE01.JPG,,,,,,,,,0,4,4,6,,,,,,,,,,,,,,,AMNE02.jpg,AMNE17.jpg,AMSA04.jpg,AMSA19.jpg,AMNE17.jpg,MN,1,num_6,16,num_6,1.8667367161,,,2017_Nov_21_1154,60.0031177463,MAFE4ImagesEEG,001,202330,
AFNE01.JPG,AFNE01.JPG,AFNE01.JPG,AFNE01.JPG,AFNE01.JPG,AFNE01.JPG,,,,,,,,,0,5,5,1,,,,,,,,,,,,,,,AMSA17.jpg,AMSA12.jpg,AMNE12.jpg,AMNE01.jpg,AMSA17.jpg,MS,2,num_8,32,num_2,1.21671160222,,,2017_Nov_21_1154,60.0031177463,MAFE4ImagesEEG,001,202330,
AFNE01.JPG,AFNE01.JPG,AFNE01.JPG,AFNE01.JPG,AFNE01.JPG,AFNE01.JPG,,,,,,,,,0,6,6,9,,,,,,,,,,,,,,,AMNE19.jpg,AMSA13.jpg,AMNE05.jpg,AMSA08.jpg,AMSA13.jpg,MS,2,num_6,32,num_8,1.11673591426,,,2017_Nov_21_1154,60.0031177463,MAFE4ImagesEEG,001,202330,
AFNE01.JPG,AFNE01.JPG,AFNE01.JPG,AFNE01.JPG,AFNE01.JPG,AFNE01.JPG,,,,,,,,,0,7,7,2,,,,,,,,,,,,,,,AMSA10.jpg,AMNE02.jpg,AMSA03.jpg,AMNE05.jpg,AMSA03.jpg,MS,2,num_2,16,num_2,0.71666220839,,,2017_Nov_21_1154,60.0031177463,MAFE4ImagesEEG,001,202330,
AFNE01.JPG,AFNE01.JPG,AFNE01.JPG,AFNE01.JPG,AFNE01.JPG,AFNE01.JPG,,,,,,,,,0,8,8,8,,,,,,,,,,,,,,,AMNE10.jpg,AMNE05.jpg,AMSA08.jpg,AMSA12.jpg,AMNE10.jpg,MN,1,num_8,16,num_8,0.750087401437,,,2017_Nov_21_1154,60.0031177463,MAFE4ImagesEEG,001,202330,
AFNE01.JPG,AFNE01.JPG,AFNE01.JPG,AFNE01.JPG,AFNE01.JPG,AFNE01.JPG,,,,,,,,,0,9,9,0,,,,,,,,,,,,,,,AMSA04.jpg,AMNE20.jpg,AMNE12.jpg,AMSA01.jpg,AMSA01.jpg,MS,2,num_4,16,num_4,0.600357688338,,,2017_Nov_21_1154,60.0031177463,MAFE4ImagesEEG,001,202330,
AFNE01.JPG,AFNE01.JPG,AFNE01.JPG,AFNE01.JPG,AFNE01.JPG,AFNE01.JPG,,,,,,,,,1,0,10,0,,,,,,,,,,,,,,,AMSA01.jpg,AMNE19.jpg,AMSA13.jpg,AMNE04.jpg,AMSA01.jpg,MS,2,num_8,32,num_4,0.916794160497,,,2017_Nov_21_1154,60.0031177463,MAFE4ImagesEEG,001,202330,
AFNE01.JPG,AFNE01.JPG,AFNE01.JPG,AFNE01.JPG,AFNE01.JPG,AFNE01.JPG,,,,,,,,,1,1,11,8,,,,,,,,,,,,,,,AMNE18.jpg,AMNE03.jpg,AMSA18.jpg,AMSA08.jpg,AMNE03.jpg,MN,1,num_6,32,num_2,1.00004041313,,,2017_Nov_21_1154,60.0031177463,MAFE4ImagesEEG,001,202330,
AFNE01.JPG,AFNE01.JPG,AFNE01.JPG,AFNE01.JPG,AFNE01.JPG,AFNE01.JPG,,,,,,,,,1,2,12,9,,,,,,,,,,,,,,,AMNE09.jpg,AMSA12.jpg,AMSA20.jpg,AMNE10.jpg,AMNE09.jpg,MN,1,num_8,32,num_4,0.90012438265,,,2017_Nov_21_1154,60.0031177463,MAFE4ImagesEEG,001,202330,
AFNE01.JPG,AFNE01.JPG,AFNE01.JPG,AFNE01.JPG,AFNE01.JPG,AFNE01.JPG,,,,,,,,,1,3,13,4,,,,,,,,,,,,,,,AMNE20.jpg,AMSA05.jpg,AMNE01.jpg,AMSA09.jpg,AMNE20.jpg,MN,1,num_8,16,num_8,1.08333734258,,,2017_Nov_21_1154,60.0031177463,MAFE4ImagesEEG,001,202330,
AFNE01.JPG,AFNE01.JPG,AFNE01.JPG,AFNE01.JPG,AFNE01.JPG,AFNE01.JPG,,,,,,,,,1,4,14,5,,,,,,,,,,,,,,,AMNE03.jpg,AMNE08.jpg,AMSA05.jpg,AMSA20.jpg,AMSA20.jpg,MS,2,num_4,32,num_2,0.650195747134,,,2017_Nov_21_1154,60.0031177463,MAFE4ImagesEEG,001,202330,
AFNE01.JPG,AFNE01.JPG,AFNE01.JPG,AFNE01.JPG,AFNE01.JPG,AFNE01.JPG,,,,,,,,,1,5,15,6,,,,,,,,,,,,,,,AMSA03.jpg,AMNE02.jpg,AMNE05.jpg,AMSA08.jpg,AMSA03.jpg,MS,2,num_8,16,num_8,0.733434622758,,,2017_Nov_21_1154,60.0031177463,MAFE4ImagesEEG,001,202330,
AFNE01.JPG,AFNE01.JPG,AFNE01.JPG,AFNE01.JPG,AFNE01.JPG,AFNE01.JPG,,,,,,,,,1,6,16,2,,,,,,,,,,,,,,,AMSA03.jpg,AMSA01.jpg,AMNE03.jpg,AMNE19.jpg,AMNE19.jpg,MN,1,num_4,16,num_4,0.90009327096,,,2017_Nov_21_1154,60.0031177463,MAFE4ImagesEEG,001,202330,
AFNE01.JPG,AFNE01.JPG,AFNE01.JPG,AFNE01.JPG,AFNE01.JPG,AFNE01.JPG,,,,,,,,,1,7,17,7,,,,,,,,,,,,,,,AMNE09.jpg,AMSA05.jpg,AMSA02.jpg,AMNE20.jpg,AMNE20.jpg,MN,1,num_4,32,num_8,0.866851861472,,,2017_Nov_21_1154,60.0031177463,MAFE4ImagesEEG,001,202330,
AFNE01.JPG,AFNE01.JPG,AFNE01.JPG,AFNE01.JPG,AFNE01.JPG,AFNE01.JPG,,,,,,,,,1,8,18,1,,,,,,,,,,,,,,,AMNE06.jpg,AMNE08.jpg,AMSA09.jpg,AMSA13.jpg,AMSA13.jpg,MS,2,num_4,16,num_4,1.03334340455,,,2017_Nov_21_1154,60.0031177463,MAFE4ImagesEEG,001,202330,
AFNE01.JPG,AFNE01.JPG,AFNE01.JPG,AFNE01.JPG,AFNE01.JPG,AFNE01.JPG,,,,,,,,,1,9,19,3,,,,,,,,,,,,,,,AMNE18.jpg,AMNE19.jpg,AMSA12.jpg,AMSA19.jpg,AMSA12.jpg,MS,2,num_2,32,num_8,0.900114439733,,,2017_Nov_21_1154,60.0031177463,MAFE4ImagesEEG,001,202330,
AFNE01.JPG,AFNE01.JPG,AFNE01.JPG,AFNE01.JPG,AFNE01.JPG,AFNE01.JPG,,,,,,,,,2,0,20,8,,,,,,,,,,,,,,,AMSA05.jpg,AMSA18.jpg,AMNE19.jpg,AMNE11.jpg,AMNE11.jpg,MN,1,num_4,32,num_8,2.38333528984,,,2017_Nov_21_1154,60.0031177463,MAFE4ImagesEEG,001,202330,
AFNE01.JPG,AFNE01.JPG,AFNE01.JPG,AFNE01.JPG,AFNE01.JPG,AFNE01.JPG,,,,,,,,,2,1,21,3,,,,,,,,,,,,,,,AMNE15.jpg,AMSA02.jpg,AMNE12.jpg,AMSA15.jpg,AMSA15.jpg,MS,2,num_4,16,num_4,0.700160177163,,,2017_Nov_21_1154,60.0031177463,MAFE4ImagesEEG,001,202330,
AFNE01.JPG,AFNE01.JPG,AFNE01.JPG,AFNE01.JPG,AFNE01.JPG,AFNE01.JPG,,,,,,,,,2,2,22,9,,,,,,,,,,,,,,,AMSA03.jpg,AMNE02.jpg,AMNE01.jpg,AMSA02.jpg,AMSA03.jpg,MS,2,num_8,16,num_8,0.983463008175,,,2017_Nov_21_1154,60.0031177463,MAFE4ImagesEEG,001,202330,
AFNE01.JPG,AFNE01.JPG,AFNE01.JPG,AFNE01.JPG,AFNE01.JPG,AFNE01.JPG,,,,,,,,,2,3,23,1,,,,,,,,,,,,,,,AMSA03.jpg,AMSA05.jpg,AMNE19.jpg,AMNE15.jpg,AMSA05.jpg,MS,2,num_6,16,num_6,1.18352022805,,,2017_Nov_21_1154,60.0031177463,MAFE4ImagesEEG,001,202330,
AFNE01.JPG,AFNE01.JPG,AFNE01.JPG,AFNE01.JPG,AFNE01.JPG,AFNE01.JPG,,,,,,,,,2,4,24,2,,,,,,,,,,,,,,,AMNE15.jpg,AMNE11.jpg,AMSA06.jpg,AMSA17.jpg,AMSA06.jpg,MS,2,num_2,16,num_2,1.28340161871,,,2017_Nov_21_1154,60.0031177463,MAFE4ImagesEEG,001,202330,
AFNE01.JPG,AFNE01.JPG,AFNE01.JPG,AFNE01.JPG,AFNE01.JPG,AFNE01.JPG,,,,,,,,,2,5,25,7,,,,,,,,,,,,,,,AMSA13.jpg,AMNE12.jpg,AMSA03.jpg,AMNE07.jpg,AMNE07.jpg,MN,1,num_4,16,num_4,0.750209923805,,,2017_Nov_21_1154,60.0031177463,MAFE4ImagesEEG,001,202330,
AFNE01.JPG,AFNE01.JPG,AFNE01.JPG,AFNE01.JPG,AFNE01.JPG,AFNE01.JPG,,,,,,,,,2,6,26,4,,,,,,,,,,,,,,,AMSA20.jpg,AMNE09.jpg,AMSA07.jpg,AMNE08.jpg,AMSA20.jpg,MS,2,num_8,16,num_8,0.983438311261,,,2017_Nov_21_1154,60.0031177463,MAFE4ImagesEEG,001,202330,
AFNE01.JPG,AFNE01.JPG,AFNE01.JPG,AFNE01.JPG,AFNE01.JPG,AFNE01.JPG,,,,,,,,,2,7,27,6,,,,,,,,,,,,,,,AMSA20.jpg,AMSA05.jpg,AMNE16.jpg,AMNE06.jpg,AMSA20.jpg,MS,2,num_8,32,num_4,1.28344203184,,,2017_Nov_21_1154,60.0031177463,MAFE4ImagesEEG,001,202330,
AFNE01.JPG,AFNE01.JPG,AFNE01.JPG,AFNE01.JPG,AFNE01.JPG,AFNE01.JPG,,,,,,,,,2,8,28,5,,,,,,,,,,,,,,,AMSA18.jpg,AMNE10.jpg,AMSA15.jpg,AMNE03.jpg,AMNE10.jpg,MN,1,num_6,16,num_6,0.966757307557,,,2017_Nov_21_1154,60.0031177463,MAFE4ImagesEEG,001,202330,
AFNE01.JPG,AFNE01.JPG,AFNE01.JPG,AFNE01.JPG,AFNE01.JPG,AFNE01.JPG,,,,,,,,,2,9,29,0,,,,,,,,,,,,,,,AMNE08.jpg,AMNE04.jpg,AMSA02.jpg,AMSA13.jpg,AMSA13.jpg,MS,2,num_4,16,num_4,0.600171980346,,,2017_Nov_21_1154,60.0031177463,MAFE4ImagesEEG,001,202330,
AFNE01.JPG,AFNE01.JPG,AFNE01.JPG,AFNE01.JPG,AFNE01.JPG,AFNE01.JPG,,,,,,,,,3,0,30,3,,,,,,,,,,,,,,,AMNE08.jpg,AMSA17.jpg,AMNE13.jpg,AMSA05.jpg,AMNE13.jpg,MN,1,num_2,16,num_2,0.883411946503,,,2017_Nov_21_1154,60.0031177463,MAFE4ImagesEEG,001,202330,
AFNE01.JPG,AFNE01.JPG,AFNE01.JPG,AFNE01.JPG,AFNE01.JPG,AFNE01.JPG,,,,,,,,,3,1,31,8,,,,,,,,,,,,,,,AMSA06.jpg,AMSA10.jpg,AMNE18.jpg,AMNE04.jpg,AMSA10.jpg,MS,2,num_6,16,num_6,1.06676089983,,,2017_Nov_21_1154,60.0031177463,MAFE4ImagesEEG,001,202330,
AFNE01.JPG,AFNE01.JPG,AFNE01.JPG,AFNE01.JPG,AFNE01.JPG,AFNE01.JPG,,,,,,,,,3,2,32,4,,,,,,,,,,,,,,,AMSA06.jpg,AMNE10.jpg,AMSA15.jpg,AMNE08.jpg,AMSA06.jpg,MS,2,num_8,16,num_8,0.683469872005,,,2017_Nov_21_1154,60.0031177463,MAFE4ImagesEEG,001,202330,
AFNE01.JPG,AFNE01.JPG,AFNE01.JPG,AFNE01.JPG,AFNE01.JPG,AFNE01.JPG,,,,,,,,,3,3,33,5,,,,,,,,,,,,,,,AMNE12.jpg,AMSA09.jpg,AMNE03.jpg,AMSA06.jpg,AMSA09.jpg,MS,2,num_6,16,num_6,0.983447933453,,,2017_Nov_21_1154,60.0031177463,MAFE4ImagesEEG,001,202330,
AFNE01.JPG,AFNE01.JPG,AFNE01.JPG,AFNE01.JPG,AFNE01.JPG,AFNE01.JPG,,,,,,,,,3,4,34,6,,,,,,,,,,,,,,,AMNE14.jpg,AMNE07.jpg,AMSA12.jpg,AMSA07.jpg,AMSA07.jpg,MS,2,num_4,16,num_4,0.700165950446,,,2017_Nov_21_1154,60.0031177463,MAFE4ImagesEEG,001,202330,
AFNE01.JPG,AFNE01.JPG,AFNE01.JPG,AFNE01.JPG,AFNE01.JPG,AFNE01.JPG,,,,,,,,,3,5,35,2,,,,,,,,,,,,,,,AMNE03.jpg,AMSA14.jpg,AMNE11.jpg,AMSA04.jpg,AMSA14.jpg,MS,2,num_6,16,num_6,1.01671500206,,,2017_Nov_21_1154,60.0031177463,MAFE4ImagesEEG,001,202330,
AFNE01.JPG,AFNE01.JPG,AFNE01.JPG,AFNE01.JPG,AFNE01.JPG,AFNE01.JPG,,,,,,,,,3,6,36,7,,,,,,,,,,,,,,,AMSA05.jpg,AMSA19.jpg,AMNE06.jpg,AMNE12.jpg,AMSA05.jpg,MS,2,num_8,32,num_4,1.00014048375,,,2017_Nov_21_1154,60.0031177463,MAFE4ImagesEEG,001,202330,
AFNE01.JPG,AFNE01.JPG,AFNE01.JPG,AFNE01.JPG,AFNE01.JPG,AFNE01.JPG,,,,,,,,,3,7,37,1,,,,,,,,,,,,,,,AMSA16.jpg,AMNE04.jpg,AMNE02.jpg,AMSA13.jpg,AMNE04.jpg,MN,1,num_6,16,num_6,0.883454284078,,,2017_Nov_21_1154,60.0031177463,MAFE4ImagesEEG,001,202330,
AFNE01.JPG,AFNE01.JPG,AFNE01.JPG,AFNE01.JPG,AFNE01.JPG,AFNE01.JPG,,,,,,,,,3,8,38,9,,,,,,,,,,,,,,,AMNE12.jpg,AMSA19.jpg,AMSA05.jpg,AMNE18.jpg,AMNE18.jpg,MN,1,num_4,16,num_4,0.850123709097,,,2017_Nov_21_1154,60.0031177463,MAFE4ImagesEEG,001,202330,
AFNE01.JPG,AFNE01.JPG,AFNE01.JPG,AFNE01.JPG,AFNE01.JPG,AFNE01.JPG,,,,,,,,,3,9,39,0,,,,,,,,,,,,,,,AMNE02.jpg,AMSA07.jpg,AMNE17.jpg,AMSA02.jpg,AMSA07.jpg,MS,2,num_6,16,num_6,0.783484690168,,,2017_Nov_21_1154,60.0031177463,MAFE4ImagesEEG,001,202330,
AFNE01.JPG,AFNE01.JPG,AFNE01.JPG,AFNE01.JPG,AFNE01.JPG,AFNE01.JPG,,,,,,,,,4,0,40,4,,,,,,,,,,,,,,,AMNE08.jpg,AMSA02.jpg,AMSA11.jpg,AMNE07.jpg,AMSA11.jpg,MS,2,num_2,16,num_2,0.750097985831,,,2017_Nov_21_1154,60.0031177463,MAFE4ImagesEEG,001,202330,
AFNE01.JPG,AFNE01.JPG,AFNE01.JPG,AFNE01.JPG,AFNE01.JPG,AFNE01.JPG,,,,,,,,,4,1,41,1,,,,,,,,,,,,,,,AMNE04.jpg,AMNE07.jpg,AMSA10.jpg,AMSA16.jpg,AMSA10.jpg,MS,2,num_2,16,num_2,1.10000006415,,,2017_Nov_21_1154,60.0031177463,MAFE4ImagesEEG,001,202330,
AFNE01.JPG,AFNE01.JPG,AFNE01.JPG,AFNE01.JPG,AFNE01.JPG,AFNE01.JPG,,,,,,,,,4,2,42,0,,,,,,,,,,,,,,,AMSA12.jpg,AMNE04.jpg,AMNE08.jpg,AMSA16.jpg,AMNE04.jpg,MN,1,num_6,16,num_6,0.583526899441,,,2017_Nov_21_1154,60.0031177463,MAFE4ImagesEEG,001,202330,
AFNE01.JPG,AFNE01.JPG,AFNE01.JPG,AFNE01.JPG,AFNE01.JPG,AFNE01.JPG,,,,,,,,,4,3,43,7,,,,,,,,,,,,,,,AMSA20.jpg,AMNE04.jpg,AMNE08.jpg,AMSA09.jpg,AMNE08.jpg,MN,1,num_2,32,num_8,1.16668366584,,,2017_Nov_21_1154,60.0031177463,MAFE4ImagesEEG,001,202330,
AFNE01.JPG,AFNE01.JPG,AFNE01.JPG,AFNE01.JPG,AFNE01.JPG,AFNE01.JPG,,,,,,,,,4,4,44,2,,,,,,,,,,,,,,,AMNE10.jpg,AMNE01.jpg,AMSA15.jpg,AMSA11.jpg,AMNE10.jpg,MN,1,num_8,16,num_8,0.45014109317,,,2017_Nov_21_1154,60.0031177463,MAFE4ImagesEEG,001,202330,
AFNE01.JPG,AFNE01.JPG,AFNE01.JPG,AFNE01.JPG,AFNE01.JPG,AFNE01.JPG,,,,,,,,,4,5,45,5,,,,,,,,,,,,,,,AMNE06.jpg,AMSA05.jpg,AMNE13.jpg,AMSA07.jpg,AMNE06.jpg,MN,1,num_8,32,num_6,1.05023096429,,,2017_Nov_21_1154,60.0031177463,MAFE4ImagesEEG,001,202330,
AFNE01.JPG,AFNE01.JPG,AFNE01.JPG,AFNE01.JPG,AFNE01.JPG,AFNE01.JPG,,,,,,,,,4,6,46,9,,,,,,,,,,,,,,,AMSA05.jpg,AMNE03.jpg,AMNE06.jpg,AMSA20.jpg,AMSA20.jpg,MS,2,num_4,32,num_2,1.11675547935,,,2017_Nov_21_1154,60.0031177463,MAFE4ImagesEEG,001,202330,
AFNE01.JPG,AFNE01.JPG,AFNE01.JPG,AFNE01.JPG,AFNE01.JPG,AFNE01.JPG,,,,,,,,,4,7,47,6,,,,,,,,,,,,,,,AMSA06.jpg,AMNE13.jpg,AMSA09.jpg,AMNE20.jpg,AMNE13.jpg,MN,1,num_6,16,num_6,0.583513428384,,,2017_Nov_21_1154,60.0031177463,MAFE4ImagesEEG,001,202330,
AFNE01.JPG,AFNE01.JPG,AFNE01.JPG,AFNE01.JPG,AFNE01.JPG,AFNE01.JPG,,,,,,,,,4,8,48,8,,,,,,,,,,,,,,,AMNE14.jpg,AMSA20.jpg,AMNE20.jpg,AMSA06.jpg,AMSA06.jpg,MS,2,num_4,32,num_2,1.03344026777,,,2017_Nov_21_1154,60.0031177463,MAFE4ImagesEEG,001,202330,
AFNE01.JPG,AFNE01.JPG,AFNE01.JPG,AFNE01.JPG,AFNE01.JPG,AFNE01.JPG,,,,,,,,,4,9,49,3,,,,,,,,,,,,,,,AMNE07.jpg,AMSA02.jpg,AMSA06.jpg,AMNE19.jpg,AMNE19.jpg,MN,1,num_4,32,num_8,0.483476799971,,,2017_Nov_21_1154,60.0031177463,MAFE4ImagesEEG,001,202330,
AFNE01.JPG,AFNE01.JPG,AFNE01.JPG,AFNE01.JPG,AFNE01.JPG,AFNE01.JPG,,,,,,,,,5,0,50,1,,,,,,,,,,,,,,,AMSA07.jpg,AMSA12.jpg,AMNE14.jpg,AMNE06.jpg,AMSA12.jpg,MS,2,num_6,16,num_6,1.43343186441,,,2017_Nov_21_1154,60.0031177463,MAFE4ImagesEEG,001,202330,
AFNE01.JPG,AFNE01.JPG,AFNE01.JPG,AFNE01.JPG,AFNE01.JPG,AFNE01.JPG,,,,,,,,,5,1,51,4,,,,,,,,,,,,,,,AMNE16.jpg,AMSA06.jpg,AMNE15.jpg,AMSA05.jpg,AMNE15.jpg,MN,1,num_2,16,num_2,0.90650420585,,,2017_Nov_21_1154,60.0031177463,MAFE4ImagesEEG,001,202330,
AFNE01.JPG,AFNE01.JPG,AFNE01.JPG,AFNE01.JPG,AFNE01.JPG,AFNE01.JPG,,,,,,,,,5,2,52,0,,,,,,,,,,,,,,,AMSA20.jpg,AMNE05.jpg,AMNE06.jpg,AMSA16.jpg,AMSA16.jpg,MS,2,num_4,16,num_4,1.25010632504,,,2017_Nov_21_1154,60.0031177463,MAFE4ImagesEEG,001,202330,
AFNE01.JPG,AFNE01.JPG,AFNE01.JPG,AFNE01.JPG,AFNE01.JPG,AFNE01.JPG,,,,,,,,,5,3,53,9,,,,,,,,,,,,,,,AMSA12.jpg,AMNE02.jpg,AMNE16.jpg,AMSA01.jpg,AMNE16.jpg,MN,1,num_2,16,num_2,0.966772061569,,,2017_Nov_21_1154,60.0031177463,MAFE4ImagesEEG,001,202330,
AFNE01.JPG,AFNE01.JPG,AFNE01.JPG,AFNE01.JPG,AFNE01.JPG,AFNE01.JPG,,,,,,,,,5,4,54,5,,,,,,,,,,,,,,,AMNE03.jpg,AMSA14.jpg,AMNE06.jpg,AMSA16.jpg,AMSA14.jpg,MS,2,num_6,16,num_6,1.85002075182,,,2017_Nov_21_1154,60.0031177463,MAFE4ImagesEEG,001,202330,
AFNE01.JPG,AFNE01.JPG,AFNE01.JPG,AFNE01.JPG,AFNE01.JPG,AFNE01.JPG,,,,,,,,,5,5,55,6,,,,,,,,,,,,,,,AMSA20.jpg,AMNE02.jpg,AMNE16.jpg,AMSA01.jpg,AMNE16.jpg,MN,1,num_2,16,num_2,2.11665252206,,,2017_Nov_21_1154,60.0031177463,MAFE4ImagesEEG,001,202330,
AFNE01.JPG,AFNE01.JPG,AFNE01.JPG,AFNE01.JPG,AFNE01.JPG,AFNE01.JPG,,,,,,,,,5,6,56,3,,,,,,,,,,,,,,,AMSA02.jpg,AMNE14.jpg,AMSA04.jpg,AMNE20.jpg,AMSA04.jpg,MS,2,num_2,32,num_8,4.88329070709,,,2017_Nov_21_1154,60.0031177463,MAFE4ImagesEEG,001,202330,
AFNE01.JPG,AFNE01.JPG,AFNE01.JPG,AFNE01.JPG,AFNE01.JPG,AFNE01.JPG,,,,,,,,,5,7,57,7,,,,,,,,,,,,,,,AMSA12.jpg,AMSA05.jpg,AMNE01.jpg,AMNE18.jpg,AMNE01.jpg,MN,1,num_2,16,num_2,0.766808818269,,,2017_Nov_21_1154,60.0031177463,MAFE4ImagesEEG,001,202330,
AFNE01.JPG,AFNE01.JPG,AFNE01.JPG,AFNE01.JPG,AFNE01.JPG,AFNE01.JPG,,,,,,,,,5,8,58,8,,,,,,,,,,,,,,,AMNE18.jpg,AMSA01.jpg,AMNE07.jpg,AMSA13.jpg,AMSA01.jpg,MS,2,num_6,32,num_8,1.75009349547,,,2017_Nov_21_1154,60.0031177463,MAFE4ImagesEEG,001,202330,
AFNE01.JPG,AFNE01.JPG,AFNE01.JPG,AFNE01.JPG,AFNE01.JPG,AFNE01.JPG,,,,,,,,,5,9,59,2,,,,,,,,,,,,,,,AMSA06.jpg,AMNE11.jpg,AMNE06.jpg,AMSA11.jpg,AMSA06.jpg,MS,2,num_8,16,num_8,3.98275802344,,,2017_Nov_21_1154,60.0031177463,MAFE4ImagesEEG,001,202330,
,,,,,,,,,,,,,,,,,,,,,,,,,,,,,,,,,,,,,,,,,,,space,24.0819106947,2017_Nov_21_1154,60.0031177463,MAFE4ImagesEEG,001,202330,
AFNE01.JPG,AFNE01.JPG,AFNE01.JPG,AFNE01.JPG,AFNE01.JPG,AFNE01.JPG,,,,,,,,,,,,,0,0,0,0,,,,,,,,,,,AFNE09.jpg,AFSA02.jpg,AFNE02.jpg,AFSA03.jpg,AFNE09.jpg,FN,3,num_8,16,num_8,0.933486710812,,,2017_Nov_21_1154,60.0031177463,MAFE4ImagesEEG,001,202330,
AFNE01.JPG,AFNE01.JPG,AFNE01.JPG,AFNE01.JPG,AFNE01.JPG,AFNE01.JPG,,,,,,,,,,,,,0,1,1,1,,,,,,,,,,,AFSA10.jpg,AFSA16.jpg,AFNE16.jpg,AFNE04.jpg,AFSA16.jpg,FS,4,num_6,16,num_6,0.516832713343,,,2017_Nov_21_1154,60.0031177463,MAFE4ImagesEEG,001,202330,
AFNE01.JPG,AFNE01.JPG,AFNE01.JPG,AFNE01.JPG,AFNE01.JPG,AFNE01.JPG,,,,,,,,,,,,,0,2,2,5,,,,,,,,,,,AFSA04.jpg,AFSA08.jpg,AFNE12.jpg,AFNE02.jpg,AFNE02.jpg,FN,3,num_4,16,num_4,0.400173776492,,,2017_Nov_21_1154,60.0031177463,MAFE4ImagesEEG,001,202330,
AFNE01.JPG,AFNE01.JPG,AFNE01.JPG,AFNE01.JPG,AFNE01.JPG,AFNE01.JPG,,,,,,,,,,,,,0,3,3,2,,,,,,,,,,,AFSA06.jpg,AFNE20.jpg,AFSA03.jpg,AFNE05.jpg,AFNE05.jpg,FN,3,num_4,16,num_4,1.0501697031,,,2017_Nov_21_1154,60.0031177463,MAFE4ImagesEEG,001,202330,
AFNE01.JPG,AFNE01.JPG,AFNE01.JPG,AFNE01.JPG,AFNE01.JPG,AFNE01.JPG,,,,,,,,,,,,,0,4,4,7,,,,,,,,,,,AFSA10.jpg,AFNE03.jpg,AFSA11.jpg,AFNE12.jpg,AFNE12.jpg,FN,3,num_4,16,num_4,0.516759905557,,,2017_Nov_21_1154,60.0031177463,MAFE4ImagesEEG,001,202330,
AFNE01.JPG,AFNE01.JPG,AFNE01.JPG,AFNE01.JPG,AFNE01.JPG,AFNE01.JPG,,,,,,,,,,,,,0,5,5,9,,,,,,,,,,,AFSA02.jpg,AFNE13.jpg,AFSA14.jpg,AFNE17.jpg,AFSA14.jpg,FS,4,num_2,16,num_2,0.583491618119,,,2017_Nov_21_1154,60.0031177463,MAFE4ImagesEEG,001,202330,
AFNE01.JPG,AFNE01.JPG,AFNE01.JPG,AFNE01.JPG,AFNE01.JPG,AFNE01.JPG,,,,,,,,,,,,,0,6,6,3,,,,,,,,,,,AFSA05.jpg,AFNE04.jpg,AFSA02.jpg,AFNE16.jpg,AFNE04.jpg,FN,3,num_6,16,num_6,1.01679614908,,,2017_Nov_21_1154,60.0031177463,MAFE4ImagesEEG,001,202330,
AFNE01.JPG,AFNE01.JPG,AFNE01.JPG,AFNE01.JPG,AFNE01.JPG,AFNE01.JPG,,,,,,,,,,,,,0,7,7,8,,,,,,,,,,,AFNE02.jpg,AFSA16.jpg,AFNE01.jpg,AFSA18.jpg,AFSA18.jpg,FS,4,num_4,32,num_6,0.666820942206,,,2017_Nov_21_1154,60.0031177463,MAFE4ImagesEEG,001,202330,
AFNE01.JPG,AFNE01.JPG,AFNE01.JPG,AFNE01.JPG,AFNE01.JPG,AFNE01.JPG,,,,,,,,,,,,,0,8,8,6,,,,,,,,,,,AFSA16.jpg,AFSA08.jpg,AFNE15.jpg,AFNE10.jpg,AFSA16.jpg,FS,4,num_8,16,num_8,0.450164507143,,,2017_Nov_21_1154,60.0031177463,MAFE4ImagesEEG,001,202330,
AFNE01.JPG,AFNE01.JPG,AFNE01.JPG,AFNE01.JPG,AFNE01.JPG,AFNE01.JPG,,,,,,,,,,,,,0,9,9,4,,,,,,,,,,,AFNE04.jpg,AFSA04.jpg,AFNE19.jpg,AFSA08.jpg,AFNE04.jpg,FN,3,num_8,16,num_8,0.533506981534,,,2017_Nov_21_1154,60.0031177463,MAFE4ImagesEEG,001,202330,
AFNE01.JPG,AFNE01.JPG,AFNE01.JPG,AFNE01.JPG,AFNE01.JPG,AFNE01.JPG,,,,,,,,,,,,,1,0,10,2,,,,,,,,,,,AFSA16.jpg,AFSA18.jpg,AFNE08.jpg,AFNE05.jpg,AFNE08.jpg,FN,3,num_2,16,num_2,0.650138976285,,,2017_Nov_21_1154,60.0031177463,MAFE4ImagesEEG,001,202330,
AFNE01.JPG,AFNE01.JPG,AFNE01.JPG,AFNE01.JPG,AFNE01.JPG,AFNE01.JPG,,,,,,,,,,,,,1,1,11,5,,,,,,,,,,,AFNE11.jpg,AFSA05.jpg,AFNE20.jpg,AFSA13.jpg,AFNE11.jpg,FN,3,num_8,32,num_4,0.533478115001,,,2017_Nov_21_1154,60.0031177463,MAFE4ImagesEEG,001,202330,
AFNE01.JPG,AFNE01.JPG,AFNE01.JPG,AFNE01.JPG,AFNE01.JPG,AFNE01.JPG,,,,,,,,,,,,,1,2,12,4,,,,,,,,,,,AFSA06.jpg,AFNE20.jpg,AFNE07.jpg,AFSA16.jpg,AFNE07.jpg,FN,3,num_2,16,num_2,0.700138046144,,,2017_Nov_21_1154,60.0031177463,MAFE4ImagesEEG,001,202330,
AFNE01.JPG,AFNE01.JPG,AFNE01.JPG,AFNE01.JPG,AFNE01.JPG,AFNE01.JPG,,,,,,,,,,,,,1,3,13,0,,,,,,,,,,,AFSA18.jpg,AFNE05.jpg,AFNE16.jpg,AFSA05.jpg,AFNE05.jpg,FN,3,num_6,32,num_4,0.933481258253,,,2017_Nov_21_1154,60.0031177463,MAFE4ImagesEEG,001,202330,
AFNE01.JPG,AFNE01.JPG,AFNE01.JPG,AFNE01.JPG,AFNE01.JPG,AFNE01.JPG,,,,,,,,,,,,,1,4,14,8,,,,,,,,,,,AFNE16.jpg,AFSA10.jpg,AFNE04.jpg,AFSA20.jpg,AFSA10.jpg,FS,4,num_6,32,num_2,0.983430613531,,,2017_Nov_21_1154,60.0031177463,MAFE4ImagesEEG,001,202330,
AFNE01.JPG,AFNE01.JPG,AFNE01.JPG,AFNE01.JPG,AFNE01.JPG,AFNE01.JPG,,,,,,,,,,,,,1,5,15,7,,,,,,,,,,,AFNE11.jpg,AFSA08.jpg,AFNE12.jpg,AFSA09.jpg,AFNE12.jpg,FN,3,num_2,16,num_2,0.866734470925,,,2017_Nov_21_1154,60.0031177463,MAFE4ImagesEEG,001,202330,
AFNE01.JPG,AFNE01.JPG,AFNE01.JPG,AFNE01.JPG,AFNE01.JPG,AFNE01.JPG,,,,,,,,,,,,,1,6,16,3,,,,,,,,,,,AFNE13.jpg,AFSA04.jpg,AFSA10.jpg,AFNE14.jpg,AFNE14.jpg,FN,3,num_4,32,num_2,0.966776551912,,,2017_Nov_21_1154,60.0031177463,MAFE4ImagesEEG,001,202330,
AFNE01.JPG,AFNE01.JPG,AFNE01.JPG,AFNE01.JPG,AFNE01.JPG,AFNE01.JPG,,,,,,,,,,,,,1,7,17,6,,,,,,,,,,,AFSA03.jpg,AFSA15.jpg,AFNE02.jpg,AFNE10.jpg,AFSA15.jpg,FS,4,num_6,16,num_6,0.883444020423,,,2017_Nov_21_1154,60.0031177463,MAFE4ImagesEEG,001,202330,
AFNE01.JPG,AFNE01.JPG,AFNE01.JPG,AFNE01.JPG,AFNE01.JPG,AFNE01.JPG,,,,,,,,,,,,,1,8,18,9,,,,,,,,,,,AFNE19.jpg,AFSA06.jpg,AFNE16.jpg,AFSA18.jpg,AFSA06.jpg,FS,4,num_6,16,num_6,1.06676314502,,,2017_Nov_21_1154,60.0031177463,MAFE4ImagesEEG,001,202330,
AFNE01.JPG,AFNE01.JPG,AFNE01.JPG,AFNE01.JPG,AFNE01.JPG,AFNE01.JPG,,,,,,,,,,,,,1,9,19,1,,,,,,,,,,,AFNE06.jpg,AFNE03.jpg,AFSA19.jpg,AFSA09.jpg,AFSA09.jpg,FS,4,num_4,16,num_4,2.08335113435,,,2017_Nov_21_1154,60.0031177463,MAFE4ImagesEEG,001,202330,
AFNE01.JPG,AFNE01.JPG,AFNE01.JPG,AFNE01.JPG,AFNE01.JPG,AFNE01.JPG,,,,,,,,,,,,,2,0,20,4,,,,,,,,,,,AFSA15.jpg,AFNE02.jpg,AFSA12.jpg,AFNE17.jpg,AFSA12.jpg,FS,4,num_2,32,num_6,0.816824245834,,,2017_Nov_21_1154,60.0031177463,MAFE4ImagesEEG,001,202330,
AFNE01.JPG,AFNE01.JPG,AFNE01.JPG,AFNE01.JPG,AFNE01.JPG,AFNE01.JPG,,,,,,,,,,,,,2,1,21,5,,,,,,,,,,,AFSA20.jpg,AFNE07.jpg,AFSA13.jpg,AFNE15.jpg,AFSA13.jpg,FS,4,num_2,32,num_4,0.833316975637,,,2017_Nov_21_1154,60.0031177463,MAFE4ImagesEEG,001,202330,
AFNE01.JPG,AFNE01.JPG,AFNE01.JPG,AFNE01.JPG,AFNE01.JPG,AFNE01.JPG,,,,,,,,,,,,,2,2,22,3,,,,,,,,,,,AFSA10.jpg,AFNE11.jpg,AFSA18.jpg,AFNE02.jpg,AFNE11.jpg,FN,3,num_6,16,num_6,1.08328826948,,,2017_Nov_21_1154,60.0031177463,MAFE4ImagesEEG,001,202330,
AFNE01.JPG,AFNE01.JPG,AFNE01.JPG,AFNE01.JPG,AFNE01.JPG,AFNE01.JPG,,,,,,,,,,,,,2,3,23,7,,,,,,,,,,,AFSA13.jpg,AFSA19.jpg,AFNE10.jpg,AFNE12.jpg,AFSA19.jpg,FS,4,num_6,32,num_8,1.81668376207,,,2017_Nov_21_1154,60.0031177463,MAFE4ImagesEEG,001,202330,
AFNE01.JPG,AFNE01.JPG,AFNE01.JPG,AFNE01.JPG,AFNE01.JPG,AFNE01.JPG,,,,,,,,,,,,,2,4,24,1,,,,,,,,,,,AFSA14.jpg,AFNE08.jpg,AFNE15.jpg,AFSA09.jpg,AFSA14.jpg,FS,4,num_8,32,num_4,0.366800222459,,,2017_Nov_21_1154,60.0031177463,MAFE4ImagesEEG,001,202330,
AFNE01.JPG,AFNE01.JPG,AFNE01.JPG,AFNE01.JPG,AFNE01.JPG,AFNE01.JPG,,,,,,,,,,,,,2,5,25,9,,,,,,,,,,,AFSA04.jpg,AFSA09.jpg,AFNE08.jpg,AFNE15.jpg,AFNE08.jpg,FN,3,num_2,32,num_8,0.883461340345,,,2017_Nov_21_1154,60.0031177463,MAFE4ImagesEEG,001,202330,
AFNE01.JPG,AFNE01.JPG,AFNE01.JPG,AFNE01.JPG,AFNE01.JPG,AFNE01.JPG,,,,,,,,,,,,,2,6,26,8,,,,,,,,,,,AFNE06.jpg,AFSA07.jpg,AFNE15.jpg,AFSA06.jpg,AFNE06.jpg,FN,3,num_8,16,num_8,0.433481258253,,,2017_Nov_21_1154,60.0031177463,MAFE4ImagesEEG,001,202330,
AFNE01.JPG,AFNE01.JPG,AFNE01.JPG,AFNE01.JPG,AFNE01.JPG,AFNE01.JPG,,,,,,,,,,,,,2,7,27,6,,,,,,,,,,,AFSA12.jpg,AFNE06.jpg,AFNE10.jpg,AFSA16.jpg,AFSA16.jpg,FS,4,num_4,32,num_6,1.43342801555,,,2017_Nov_21_1154,60.0031177463,MAFE4ImagesEEG,001,202330,
AFNE01.JPG,AFNE01.JPG,AFNE01.JPG,AFNE01.JPG,AFNE01.JPG,AFNE01.JPG,,,,,,,,,,,,,2,8,28,0,,,,,,,,,,,AFSA04.jpg,AFNE04.jpg,AFSA02.jpg,AFNE01.jpg,AFSA04.jpg,FS,4,num_8,32,num_6,0.883499829055,,,2017_Nov_21_1154,60.0031177463,MAFE4ImagesEEG,001,202330,
AFNE01.JPG,AFNE01.JPG,AFNE01.JPG,AFNE01.JPG,AFNE01.JPG,AFNE01.JPG,,,,,,,,,,,,,2,9,29,2,,,,,,,,,,,AFSA08.jpg,AFSA14.jpg,AFNE05.jpg,AFNE09.jpg,AFNE05.jpg,FN,3,num_2,16,num_2,1.06676025837,,,2017_Nov_21_1154,60.0031177463,MAFE4ImagesEEG,001,202330,
AFNE01.JPG,AFNE01.JPG,AFNE01.JPG,AFNE01.JPG,AFNE01.JPG,AFNE01.JPG,,,,,,,,,,,,,3,0,30,4,,,,,,,,,,,AFSA15.jpg,AFNE10.jpg,AFNE02.jpg,AFSA04.jpg,AFSA15.jpg,FS,4,num_8,16,num_8,0.683516379184,,,2017_Nov_21_1154,60.0031177463,MAFE4ImagesEEG,001,202330,
AFNE01.JPG,AFNE01.JPG,AFNE01.JPG,AFNE01.JPG,AFNE01.JPG,AFNE01.JPG,,,,,,,,,,,,,3,1,31,5,,,,,,,,,,,AFSA09.jpg,AFSA18.jpg,AFNE18.jpg,AFNE03.jpg,AFNE03.jpg,FN,3,num_4,16,num_4,0.483441197925,,,2017_Nov_21_1154,60.0031177463,MAFE4ImagesEEG,001,202330,
AFNE01.JPG,AFNE01.JPG,AFNE01.JPG,AFNE01.JPG,AFNE01.JPG,AFNE01.JPG,,,,,,,,,,,,,3,2,32,1,,,,,,,,,,,AFNE03.jpg,AFNE14.jpg,AFSA17.jpg,AFSA15.jpg,AFSA17.jpg,FS,4,num_2,16,num_2,1.36674665903,,,2017_Nov_21_1154,60.0031177463,MAFE4ImagesEEG,001,202330,
AFNE01.JPG,AFNE01.JPG,AFNE01.JPG,AFNE01.JPG,AFNE01.JPG,AFNE01.JPG,,,,,,,,,,,,,3,3,33,3,,,,,,,,,,,AFSA02.jpg,AFSA08.jpg,AFNE18.jpg,AFNE12.jpg,AFNE12.jpg,FN,3,num_4,16,num_4,0.683483022309,,,2017_Nov_21_1154,60.0031177463,MAFE4ImagesEEG,001,202330,
AFNE01.JPG,AFNE01.JPG,AFNE01.JPG,AFNE01.JPG,AFNE01.JPG,AFNE01.JPG,,,,,,,,,,,,,3,4,34,7,,,,,,,,,,,AFSA01.jpg,AFNE14.jpg,AFSA18.jpg,AFNE18.jpg,AFNE14.jpg,FN,3,num_6,16,num_6,1.65005301819,,,2017_Nov_21_1154,60.0031177463,MAFE4ImagesEEG,001,202330,
AFNE01.JPG,AFNE01.JPG,AFNE01.JPG,AFNE01.JPG,AFNE01.JPG,AFNE01.JPG,,,,,,,,,,,,,3,5,35,8,,,,,,,,,,,AFNE16.jpg,AFNE07.jpg,AFSA04.jpg,AFSA02.jpg,AFSA04.jpg,FS,4,num_2,16,num_2,0.916730012657,,,2017_Nov_21_1154,60.0031177463,MAFE4ImagesEEG,001,202330,
AFNE01.JPG,AFNE01.JPG,AFNE01.JPG,AFNE01.JPG,AFNE01.JPG,AFNE01.JPG,,,,,,,,,,,,,3,6,36,0,,,,,,,,,,,AFSA06.jpg,AFSA09.jpg,AFNE06.jpg,AFNE19.jpg,AFSA09.jpg,FS,4,num_6,16,num_6,0.616798779141,,,2017_Nov_21_1154,60.0031177463,MAFE4ImagesEEG,001,202330,
AFNE01.JPG,AFNE01.JPG,AFNE01.JPG,AFNE01.JPG,AFNE01.JPG,AFNE01.JPG,,,,,,,,,,,,,3,7,37,6,,,,,,,,,,,AFSA11.jpg,AFSA10.jpg,AFNE01.jpg,AFNE05.jpg,AFNE05.jpg,FN,3,num_4,16,num_4,0.700112707738,,,2017_Nov_21_1154,60.0031177463,MAFE4ImagesEEG,001,202330,
AFNE01.JPG,AFNE01.JPG,AFNE01.JPG,AFNE01.JPG,AFNE01.JPG,AFNE01.JPG,,,,,,,,,,,,,3,8,38,9,,,,,,,,,,,AFNE05.jpg,AFNE07.jpg,AFSA02.jpg,AFSA20.jpg,AFNE07.jpg,FN,3,num_6,16,num_6,0.599988196787,,,2017_Nov_21_1154,60.0031177463,MAFE4ImagesEEG,001,202330,
AFNE01.JPG,AFNE01.JPG,AFNE01.JPG,AFNE01.JPG,AFNE01.JPG,AFNE01.JPG,,,,,,,,,,,,,3,9,39,2,,,,,,,,,,,AFSA17.jpg,AFNE07.jpg,AFNE12.jpg,AFSA12.jpg,AFNE07.jpg,FN,3,num_6,32,num_2,0.899885111212,,,2017_Nov_21_1154,60.0031177463,MAFE4ImagesEEG,001,202330,
AFNE01.JPG,AFNE01.JPG,AFNE01.JPG,AFNE01.JPG,AFNE01.JPG,AFNE01.JPG,,,,,,,,,,,,,4,0,40,9,,,,,,,,,,,AFNE13.jpg,AFNE20.jpg,AFSA13.jpg,AFSA19.jpg,AFNE13.jpg,FN,3,num_8,32,num_4,1.08342554585,,,2017_Nov_21_1154,60.0031177463,MAFE4ImagesEEG,001,202330,
AFNE01.JPG,AFNE01.JPG,AFNE01.JPG,AFNE01.JPG,AFNE01.JPG,AFNE01.JPG,,,,,,,,,,,,,4,1,41,7,,,,,,,,,,,AFSA07.jpg,AFSA01.jpg,AFNE20.jpg,AFNE09.jpg,AFSA07.jpg,FS,4,num_8,16,num_8,1.18339257386,,,2017_Nov_21_1154,60.0031177463,MAFE4ImagesEEG,001,202330,
AFNE01.JPG,AFNE01.JPG,AFNE01.JPG,AFNE01.JPG,AFNE01.JPG,AFNE01.JPG,,,,,,,,,,,,,4,2,42,0,,,,,,,,,,,AFNE06.jpg,AFNE10.jpg,AFSA07.jpg,AFSA18.jpg,AFSA18.jpg,FS,4,num_4,32,num_2,2.53357754415,,,2017_Nov_21_1154,60.0031177463,MAFE4ImagesEEG,001,202330,
AFNE01.JPG,AFNE01.JPG,AFNE01.JPG,AFNE01.JPG,AFNE01.JPG,AFNE01.JPG,,,,,,,,,,,,,4,3,43,8,,,,,,,,,,,AFSA05.jpg,AFSA07.jpg,AFNE06.jpg,AFNE04.jpg,AFNE06.jpg,FN,3,num_2,32,num_4,1.49990089159,,,2017_Nov_21_1154,60.0031177463,MAFE4ImagesEEG,001,202330,
AFNE01.JPG,AFNE01.JPG,AFNE01.JPG,AFNE01.JPG,AFNE01.JPG,AFNE01.JPG,,,,,,,,,,,,,4,4,44,2,,,,,,,,,,,AFSA10.jpg,AFNE16.jpg,AFSA15.jpg,AFNE14.jpg,AFSA10.jpg,FS,4,num_8,32,num_4,0.983513684972,,,2017_Nov_21_1154,60.0031177463,MAFE4ImagesEEG,001,202330,
AFNE01.JPG,AFNE01.JPG,AFNE01.JPG,AFNE01.JPG,AFNE01.JPG,AFNE01.JPG,,,,,,,,,,,,,4,5,45,6,,,,,,,,,,,AFSA16.jpg,AFSA11.jpg,AFNE13.jpg,AFNE04.jpg,AFNE13.jpg,FN,3,num_2,32,num_8,1.66669360876,,,2017_Nov_21_1154,60.0031177463,MAFE4ImagesEEG,001,202330,
AFNE01.JPG,AFNE01.JPG,AFNE01.JPG,AFNE01.JPG,AFNE01.JPG,AFNE01.JPG,,,,,,,,,,,,,4,6,46,4,,,,,,,,,,,AFSA04.jpg,AFSA10.jpg,AFNE06.jpg,AFNE07.jpg,AFSA10.jpg,FS,4,num_6,16,num_6,1.58337486906,,,2017_Nov_21_1154,60.0031177463,MAFE4ImagesEEG,001,202330,
AFNE01.JPG,AFNE01.JPG,AFNE01.JPG,AFNE01.JPG,AFNE01.JPG,AFNE01.JPG,,,,,,,,,,,,,4,7,47,5,,,,,,,,,,,AFNE14.jpg,AFSA14.jpg,AFSA13.jpg,AFNE11.jpg,AFSA13.jpg,FS,4,num_2,16,num_2,0.983432217225,,,2017_Nov_21_1154,60.0031177463,MAFE4ImagesEEG,001,202330,
AFNE01.JPG,AFNE01.JPG,AFNE01.JPG,AFNE01.JPG,AFNE01.JPG,AFNE01.JPG,,,,,,,,,,,,,4,8,48,3,,,,,,,,,,,AFNE15.jpg,AFSA20.jpg,AFNE13.jpg,AFSA04.jpg,AFSA20.jpg,FS,4,num_6,16,num_6,1.50015748294,,,2017_Nov_21_1154,60.0031177463,MAFE4ImagesEEG,001,202330,
AFNE01.JPG,AFNE01.JPG,AFNE01.JPG,AFNE01.JPG,AFNE01.JPG,AFNE01.JPG,,,,,,,,,,,,,4,9,49,1,,,,,,,,,,,AFSA08.jpg,AFNE02.jpg,AFSA11.jpg,AFNE11.jpg,AFNE11.jpg,FN,3,num_4,16,num_4,1.26670842692,,,2017_Nov_21_1154,60.0031177463,MAFE4ImagesEEG,001,202330,
AFNE01.JPG,AFNE01.JPG,AFNE01.JPG,AFNE01.JPG,AFNE01.JPG,AFNE01.JPG,,,,,,,,,,,,,5,0,50,6,,,,,,,,,,,AFNE15.jpg,AFSA08.jpg,AFSA07.jpg,AFNE16.jpg,AFNE15.jpg,FN,3,num_8,16,num_8,3.76656698092,,,2017_Nov_21_1154,60.0031177463,MAFE4ImagesEEG,001,202330,
AFNE01.JPG,AFNE01.JPG,AFNE01.JPG,AFNE01.JPG,AFNE01.JPG,AFNE01.JPG,,,,,,,,,,,,,5,1,51,5,,,,,,,,,,,AFNE14.jpg,AFNE07.jpg,AFSA12.jpg,AFSA01.jpg,AFNE14.jpg,FN,3,num_8,16,num_8,0.83346772306,,,2017_Nov_21_1154,60.0031177463,MAFE4ImagesEEG,001,202330,
AFNE01.JPG,AFNE01.JPG,AFNE01.JPG,AFNE01.JPG,AFNE01.JPG,AFNE01.JPG,,,,,,,,,,,,,5,2,52,2,,,,,,,,,,,AFNE01.jpg,AFSA06.jpg,AFNE04.jpg,AFSA04.jpg,AFSA04.jpg,FS,4,num_4,16,num_4,1.08343452655,,,2017_Nov_21_1154,60.0031177463,MAFE4ImagesEEG,001,202330,
AFNE01.JPG,AFNE01.JPG,AFNE01.JPG,AFNE01.JPG,AFNE01.JPG,AFNE01.JPG,,,,,,,,,,,,,5,3,53,0,,,,,,,,,,,AFNE14.jpg,AFSA16.jpg,AFSA14.jpg,AFNE01.jpg,AFSA16.jpg,FS,4,num_6,16,num_6,0.883117828664,,,2017_Nov_21_1154,60.0031177463,MAFE4ImagesEEG,001,202330,
AFNE01.JPG,AFNE01.JPG,AFNE01.JPG,AFNE01.JPG,AFNE01.JPG,AFNE01.JPG,,,,,,,,,,,,,5,4,54,7,,,,,,,,,,,AFSA18.jpg,AFNE19.jpg,AFSA08.jpg,AFNE01.jpg,AFSA08.jpg,FS,4,num_2,16,num_2,1.4833828234,,,2017_Nov_21_1154,60.0031177463,MAFE4ImagesEEG,001,202330,
AFNE01.JPG,AFNE01.JPG,AFNE01.JPG,AFNE01.JPG,AFNE01.JPG,AFNE01.JPG,,,,,,,,,,,,,5,5,55,3,,,,,,,,,,,AFNE03.jpg,AFSA10.jpg,AFSA15.jpg,AFNE04.jpg,AFSA10.jpg,FS,4,num_6,32,num_2,0.900107062742,,,2017_Nov_21_1154,60.0031177463,MAFE4ImagesEEG,001,202330,
AFNE01.JPG,AFNE01.JPG,AFNE01.JPG,AFNE01.JPG,AFNE01.JPG,AFNE01.JPG,,,,,,,,,,,,,5,6,56,9,,,,,,,,,,,AFNE05.jpg,AFSA03.jpg,AFNE06.jpg,AFSA16.jpg,AFNE05.jpg,FN,3,num_8,32,num_4,2.15001164284,,,2017_Nov_21_1154,60.0031177463,MAFE4ImagesEEG,001,202330,
AFNE01.JPG,AFNE01.JPG,AFNE01.JPG,AFNE01.JPG,AFNE01.JPG,AFNE01.JPG,,,,,,,,,,,,,5,7,57,8,,,,,,,,,,,AFNE20.jpg,AFSA20.jpg,AFNE14.jpg,AFSA03.jpg,AFSA20.jpg,FS,4,num_6,48,None,,,,2017_Nov_21_1154,60.0031177463,MAFE4ImagesEEG,001,202330,
AFNE01.JPG,AFNE01.JPG,AFNE01.JPG,AFNE01.JPG,AFNE01.JPG,AFNE01.JPG,,,,,,,,,,,,,5,8,58,4,,,,,,,,,,,AFNE09.jpg,AFSA08.jpg,AFSA16.jpg,AFNE16.jpg,AFNE16.jpg,FN,3,num_4,32,num_8,0.716801088463,,,2017_Nov_21_1154,60.0031177463,MAFE4ImagesEEG,001,202330,
AFNE01.JPG,AFNE01.JPG,AFNE01.JPG,AFNE01.JPG,AFNE01.JPG,AFNE01.JPG,,,,,,,,,,,,,5,9,59,1,,,,,,,,,,,AFNE01.jpg,AFSA13.jpg,AFNE02.jpg,AFSA15.jpg,AFNE01.jpg,FN,3,num_8,32,num_2,0.95012954656,,,2017_Nov_21_1154,60.0031177463,MAFE4ImagesEEG,001,202330,
,,,,,,,,,,,,,,,,,,,,,,,,,,,,,,,,,,,,,,,,,,,space,16.515781651,2017_Nov_21_1154,60.0031177463,MAFE4ImagesEEG,001,202330,
AFNE01.JPG,AFNE01.JPG,AFNE01.JPG,AFNE01.JPG,AFNE01.JPG,AFNE01.JPG,,,,,,,,,,,,,,,,,0,0,0,2,,,,,,,AMSA07.jpg,AMSA14.jpg,AMNE09.jpg,AMNE01.jpg,AMNE01.jpg,MN,1,num_4,16,num_4,0.466899395018,,,2017_Nov_21_1154,60.0031177463,MAFE4ImagesEEG,001,202330,
AFNE01.JPG,AFNE01.JPG,AFNE01.JPG,AFNE01.JPG,AFNE01.JPG,AFNE01.JPG,,,,,,,,,,,,,,,,,0,1,1,5,,,,,,,AMSA16.jpg,AMSA07.jpg,AMNE08.jpg,AMNE12.jpg,AMNE08.jpg,MN,1,num_2,16,num_2,0.583473335995,,,2017_Nov_21_1154,60.0031177463,MAFE4ImagesEEG,001,202330,
AFNE01.JPG,AFNE01.JPG,AFNE01.JPG,AFNE01.JPG,AFNE01.JPG,AFNE01.JPG,,,,,,,,,,,,,,,,,0,2,2,4,,,,,,,AMSA02.jpg,AMSA07.jpg,AMNE10.jpg,AMNE07.jpg,AMSA02.jpg,MS,2,num_8,16,num_8,0.749944031006,,,2017_Nov_21_1154,60.0031177463,MAFE4ImagesEEG,001,202330,
AFNE01.JPG,AFNE01.JPG,AFNE01.JPG,AFNE01.JPG,AFNE01.JPG,AFNE01.JPG,,,,,,,,,,,,,,,,,0,3,3,1,,,,,,,AMSA13.jpg,AMNE17.jpg,AMSA12.jpg,AMNE07.jpg,AMSA13.jpg,MS,2,num_8,32,num_6,0.750179453578,,,2017_Nov_21_1154,60.0031177463,MAFE4ImagesEEG,001,202330,
AFNE01.JPG,AFNE01.JPG,AFNE01.JPG,AFNE01.JPG,AFNE01.JPG,AFNE01.JPG,,,,,,,,,,,,,,,,,0,4,4,7,,,,,,,AMSA08.jpg,AMSA10.jpg,AMNE01.jpg,AMNE13.jpg,AMSA10.jpg,MS,2,num_6,32,num_8,0.833424102515,,,2017_Nov_21_1154,60.0031177463,MAFE4ImagesEEG,001,202330,
AFNE01.JPG,AFNE01.JPG,AFNE01.JPG,AFNE01.JPG,AFNE01.JPG,AFNE01.JPG,,,,,,,,,,,,,,,,,0,5,5,9,,,,,,,AMNE05.jpg,AMSA14.jpg,AMNE13.jpg,AMSA02.jpg,AMNE05.jpg,MN,1,num_8,32,num_2,1.73344360347,,,2017_Nov_21_1154,60.0031177463,MAFE4ImagesEEG,001,202330,
AFNE01.JPG,AFNE01.JPG,AFNE01.JPG,AFNE01.JPG,AFNE01.JPG,AFNE01.JPG,,,,,,,,,,,,,,,,,0,6,6,0,,,,,,,AMNE01.jpg,AMSA09.jpg,AMSA13.jpg,AMNE13.jpg,AMNE13.jpg,MN,1,num_4,16,num_4,0.633472726578,,,2017_Nov_21_1154,60.0031177463,MAFE4ImagesEEG,001,202330,
AFNE01.JPG,AFNE01.JPG,AFNE01.JPG,AFNE01.JPG,AFNE01.JPG,AFNE01.JPG,,,,,,,,,,,,,,,,,0,7,7,6,,,,,,,AMNE20.jpg,AMSA05.jpg,AMSA09.jpg,AMNE07.jpg,AMNE20.jpg,MN,1,num_8,16,num_8,0.583527540904,,,2017_Nov_21_1154,60.0031177463,MAFE4ImagesEEG,001,202330,
AFNE01.JPG,AFNE01.JPG,AFNE01.JPG,AFNE01.JPG,AFNE01.JPG,AFNE01.JPG,,,,,,,,,,,,,,,,,0,8,8,8,,,,,,,AMNE05.jpg,AMSA06.jpg,AMNE15.jpg,AMSA05.jpg,AMSA06.jpg,MS,2,num_6,16,num_6,0.733501015784,,,2017_Nov_21_1154,60.0031177463,MAFE4ImagesEEG,001,202330,
AFNE01.JPG,AFNE01.JPG,AFNE01.JPG,AFNE01.JPG,AFNE01.JPG,AFNE01.JPG,,,,,,,,,,,,,,,,,0,9,9,3,,,,,,,AMSA17.jpg,AMSA08.jpg,AMNE10.jpg,AMNE18.jpg,AMSA08.jpg,MS,2,num_6,16,num_6,0.96677430674,,,2017_Nov_21_1154,60.0031177463,MAFE4ImagesEEG,001,202330,
AFNE01.JPG,AFNE01.JPG,AFNE01.JPG,AFNE01.JPG,AFNE01.JPG,AFNE01.JPG,,,,,,,,,,,,,,,,,1,0,10,6,,,,,,,AMSA01.jpg,AMNE02.jpg,AMNE07.jpg,AMSA19.jpg,AMSA01.jpg,MS,2,num_8,16,num_8,0.45020780692,,,2017_Nov_21_1154,60.0031177463,MAFE4ImagesEEG,001,202330,
AFNE01.JPG,AFNE01.JPG,AFNE01.JPG,AFNE01.JPG,AFNE01.JPG,AFNE01.JPG,,,,,,,,,,,,,,,,,1,1,11,2,,,,,,,AMSA10.jpg,AMNE13.jpg,AMSA14.jpg,AMNE19.jpg,AMSA10.jpg,MS,2,num_8,16,num_8,0.900173135014,,,2017_Nov_21_1154,60.0031177463,MAFE4ImagesEEG,001,202330,
AFNE01.JPG,AFNE01.JPG,AFNE01.JPG,AFNE01.JPG,AFNE01.JPG,AFNE01.JPG,,,,,,,,,,,,,,,,,1,2,12,9,,,,,,,AMNE14.jpg,AMSA11.jpg,AMSA12.jpg,AMNE08.jpg,AMSA12.jpg,MS,2,num_2,16,num_2,0.850172782215,,,2017_Nov_21_1154,60.0031177463,MAFE4ImagesEEG,001,202330,
AFNE01.JPG,AFNE01.JPG,AFNE01.JPG,AFNE01.JPG,AFNE01.JPG,AFNE01.JPG,,,,,,,,,,,,,,,,,1,3,13,5,,,,,,,AMNE15.jpg,AMNE13.jpg,AMSA06.jpg,AMSA09.jpg,AMNE15.jpg,MN,1,num_8,32,num_6,0.916732257829,,,2017_Nov_21_1154,60.0031177463,MAFE4ImagesEEG,001,202330,
AFNE01.JPG,AFNE01.JPG,AFNE01.JPG,AFNE01.JPG,AFNE01.JPG,AFNE01.JPG,,,,,,,,,,,,,,,,,1,4,14,4,,,,,,,AMSA19.jpg,AMNE06.jpg,AMNE10.jpg,AMSA15.jpg,AMSA15.jpg,MS,2,num_4,32,num_2,0.916747011826,,,2017_Nov_21_1154,60.0031177463,MAFE4ImagesEEG,001,202330,
AFNE01.JPG,AFNE01.JPG,AFNE01.JPG,AFNE01.JPG,AFNE01.JPG,AFNE01.JPG,,,,,,,,,,,,,,,,,1,5,15,0,,,,,,,AMSA17.jpg,AMNE19.jpg,AMNE02.jpg,AMSA13.jpg,AMNE02.jpg,MN,1,num_2,16,num_2,0.900127590052,,,2017_Nov_21_1154,60.0031177463,MAFE4ImagesEEG,001,202330,
AFNE01.JPG,AFNE01.JPG,AFNE01.JPG,AFNE01.JPG,AFNE01.JPG,AFNE01.JPG,,,,,,,,,,,,,,,,,1,6,16,8,,,,,,,AMNE14.jpg,AMNE19.jpg,AMSA02.jpg,AMSA04.jpg,AMSA02.jpg,MS,2,num_2,16,num_2,1.15012165638,,,2017_Nov_21_1154,60.0031177463,MAFE4ImagesEEG,001,202330,
AFNE01.JPG,AFNE01.JPG,AFNE01.JPG,AFNE01.JPG,AFNE01.JPG,AFNE01.JPG,,,,,,,,,,,,,,,,,1,7,17,7,,,,,,,AMNE06.jpg,AMNE13.jpg,AMSA03.jpg,AMSA08.jpg,AMNE06.jpg,MN,1,num_8,32,num_4,3.18298298992,,,2017_Nov_21_1154,60.0031177463,MAFE4ImagesEEG,001,202330,
AFNE01.JPG,AFNE01.JPG,AFNE01.JPG,AFNE01.JPG,AFNE01.JPG,AFNE01.JPG,,,,,,,,,,,,,,,,,1,8,18,3,,,,,,,AMNE20.jpg,AMSA17.jpg,AMNE06.jpg,AMSA03.jpg,AMNE06.jpg,MN,1,num_2,32,num_8,1.11674264979,,,2017_Nov_21_1154,60.0031177463,MAFE4ImagesEEG,001,202330,
AFNE01.JPG,AFNE01.JPG,AFNE01.JPG,AFNE01.JPG,AFNE01.JPG,AFNE01.JPG,,,,,,,,,,,,,,,,,1,9,19,1,,,,,,,AMNE10.jpg,AMSA04.jpg,AMSA09.jpg,AMNE01.jpg,AMNE10.jpg,MN,1,num_8,16,num_8,1.05011485671,,,2017_Nov_21_1154,60.0031177463,MAFE4ImagesEEG,001,202330,
AFNE01.JPG,AFNE01.JPG,AFNE01.JPG,AFNE01.JPG,AFNE01.JPG,AFNE01.JPG,,,,,,,,,,,,,,,,,2,0,20,4,,,,,,,AMNE01.jpg,AMSA20.jpg,AMSA08.jpg,AMNE13.jpg,AMNE13.jpg,MN,1,num_4,16,num_4,0.650174257593,,,2017_Nov_21_1154,60.0031177463,MAFE4ImagesEEG,001,202330,
AFNE01.JPG,AFNE01.JPG,AFNE01.JPG,AFNE01.JPG,AFNE01.JPG,AFNE01.JPG,,,,,,,,,,,,,,,,,2,1,21,9,,,,,,,AMSA06.jpg,AMNE19.jpg,AMSA12.jpg,AMNE11.jpg,AMSA12.jpg,MS,2,num_2,16,num_2,0.666766095819,,,2017_Nov_21_1154,60.0031177463,MAFE4ImagesEEG,001,202330,
AFNE01.JPG,AFNE01.JPG,AFNE01.JPG,AFNE01.JPG,AFNE01.JPG,AFNE01.JPG,,,,,,,,,,,,,,,,,2,2,22,6,,,,,,,AMSA13.jpg,AMNE09.jpg,AMSA14.jpg,AMNE17.jpg,AMNE17.jpg,MN,1,num_4,32,num_6,0.866755639712,,,2017_Nov_21_1154,60.0031177463,MAFE4ImagesEEG,001,202330,
AFNE01.JPG,AFNE01.JPG,AFNE01.JPG,AFNE01.JPG,AFNE01.JPG,AFNE01.JPG,,,,,,,,,,,,,,,,,2,3,23,5,,,,,,,AMNE03.jpg,AMNE02.jpg,AMSA18.jpg,AMSA07.jpg,AMNE03.jpg,MN,1,num_8,32,num_2,0.966790664432,,,2017_Nov_21_1154,60.0031177463,MAFE4ImagesEEG,001,202330,
AFNE01.JPG,AFNE01.JPG,AFNE01.JPG,AFNE01.JPG,AFNE01.JPG,AFNE01.JPG,,,,,,,,,,,,,,,,,2,4,24,0,,,,,,,AMNE14.jpg,AMSA03.jpg,AMSA11.jpg,AMNE01.jpg,AMSA11.jpg,MS,2,num_2,32,num_6,0.633442256367,,,2017_Nov_21_1154,60.0031177463,MAFE4ImagesEEG,001,202330,
AFNE01.JPG,AFNE01.JPG,AFNE01.JPG,AFNE01.JPG,AFNE01.JPG,AFNE01.JPG,,,,,,,,,,,,,,,,,2,5,25,2,,,,,,,AMNE04.jpg,AMSA15.jpg,AMNE19.jpg,AMSA19.jpg,AMNE04.jpg,MN,1,num_8,16,num_8,0.333486646676,,,2017_Nov_21_1154,60.0031177463,MAFE4ImagesEEG,001,202330,
AFNE01.JPG,AFNE01.JPG,AFNE01.JPG,AFNE01.JPG,AFNE01.JPG,AFNE01.JPG,,,,,,,,,,,,,,,,,2,6,26,7,,,,,,,AMSA17.jpg,AMNE16.jpg,AMNE12.jpg,AMSA13.jpg,AMSA17.jpg,MS,2,num_8,32,num_4,0.583547105998,,,2017_Nov_21_1154,60.0031177463,MAFE4ImagesEEG,001,202330,
AFNE01.JPG,AFNE01.JPG,AFNE01.JPG,AFNE01.JPG,AFNE01.JPG,AFNE01.JPG,,,,,,,,,,,,,,,,,2,7,27,3,,,,,,,AMSA17.jpg,AMNE18.jpg,AMNE09.jpg,AMSA16.jpg,AMSA17.jpg,MS,2,num_8,16,num_8,1.18340444121,,,2017_Nov_21_1154,60.0031177463,MAFE4ImagesEEG,001,202330,
AFNE01.JPG,AFNE01.JPG,AFNE01.JPG,AFNE01.JPG,AFNE01.JPG,AFNE01.JPG,,,,,,,,,,,,,,,,,2,8,28,1,,,,,,,AMSA12.jpg,AMNE20.jpg,AMNE18.jpg,AMSA13.jpg,AMSA13.jpg,MS,2,num_4,32,num_6,0.633459897013,,,2017_Nov_21_1154,60.0031177463,MAFE4ImagesEEG,001,202330,
AFNE01.JPG,AFNE01.JPG,AFNE01.JPG,AFNE01.JPG,AFNE01.JPG,AFNE01.JPG,,,,,,,,,,,,,,,,,2,9,29,8,,,,,,,AMSA04.jpg,AMNE08.jpg,AMSA10.jpg,AMNE18.jpg,AMSA04.jpg,MS,2,num_8,16,num_8,1.60003342103,,,2017_Nov_21_1154,60.0031177463,MAFE4ImagesEEG,001,202330,
AFNE01.JPG,AFNE01.JPG,AFNE01.JPG,AFNE01.JPG,AFNE01.JPG,AFNE01.JPG,,,,,,,,,,,,,,,,,3,0,30,7,,,,,,,AMNE08.jpg,AMSA08.jpg,AMSA02.jpg,AMNE19.jpg,AMSA02.jpg,MS,2,num_2,16,num_2,0.75009958951,,,2017_Nov_21_1154,60.0031177463,MAFE4ImagesEEG,001,202330,
AFNE01.JPG,AFNE01.JPG,AFNE01.JPG,AFNE01.JPG,AFNE01.JPG,AFNE01.JPG,,,,,,,,,,,,,,,,,3,1,31,5,,,,,,,AMNE20.jpg,AMSA06.jpg,AMNE17.jpg,AMSA10.jpg,AMNE20.jpg,MN,1,num_8,16,num_8,0.550158477228,,,2017_Nov_21_1154,60.0031177463,MAFE4ImagesEEG,001,202330,
AFNE01.JPG,AFNE01.JPG,AFNE01.JPG,AFNE01.JPG,AFNE01.JPG,AFNE01.JPG,,,,,,,,,,,,,,,,,3,2,32,4,,,,,,,AMNE08.jpg,AMNE16.jpg,AMSA02.jpg,AMSA19.jpg,AMSA19.jpg,MS,2,num_4,16,num_4,0.483500855407,,,2017_Nov_21_1154,60.0031177463,MAFE4ImagesEEG,001,202330,
AFNE01.JPG,AFNE01.JPG,AFNE01.JPG,AFNE01.JPG,AFNE01.JPG,AFNE01.JPG,,,,,,,,,,,,,,,,,3,3,33,6,,,,,,,AMSA18.jpg,AMNE13.jpg,AMNE20.jpg,AMSA04.jpg,AMNE20.jpg,MN,1,num_2,16,num_2,1.11674778161,,,2017_Nov_21_1154,60.0031177463,MAFE4ImagesEEG,001,202330,
AFNE01.JPG,AFNE01.JPG,AFNE01.JPG,AFNE01.JPG,AFNE01.JPG,AFNE01.JPG,,,,,,,,,,,,,,,,,3,4,34,0,,,,,,,AMNE19.jpg,AMSA18.jpg,AMNE07.jpg,AMSA07.jpg,AMNE19.jpg,MN,1,num_8,16,num_8,1.43344597695,,,2017_Nov_21_1154,60.0031177463,MAFE4ImagesEEG,001,202330,
AFNE01.JPG,AFNE01.JPG,AFNE01.JPG,AFNE01.JPG,AFNE01.JPG,AFNE01.JPG,,,,,,,,,,,,,,,,,3,5,35,9,,,,,,,AMSA06.jpg,AMNE14.jpg,AMNE10.jpg,AMSA03.jpg,AMSA06.jpg,MS,2,num_8,16,num_8,0.883456208525,,,2017_Nov_21_1154,60.0031177463,MAFE4ImagesEEG,001,202330,
AFNE01.JPG,AFNE01.JPG,AFNE01.JPG,AFNE01.JPG,AFNE01.JPG,AFNE01.JPG,,,,,,,,,,,,,,,,,3,6,36,8,,,,,,,AMSA12.jpg,AMNE08.jpg,AMSA05.jpg,AMNE05.jpg,AMSA05.jpg,MS,2,num_2,32,num_6,0.900109307913,,,2017_Nov_21_1154,60.0031177463,MAFE4ImagesEEG,001,202330,
AFNE01.JPG,AFNE01.JPG,AFNE01.JPG,AFNE01.JPG,AFNE01.JPG,AFNE01.JPG,,,,,,,,,,,,,,,,,3,7,37,2,,,,,,,AMSA13.jpg,AMNE10.jpg,AMSA06.jpg,AMNE06.jpg,AMNE06.jpg,MN,1,num_4,16,num_4,1.81671936411,,,2017_Nov_21_1154,60.0031177463,MAFE4ImagesEEG,001,202330,
AFNE01.JPG,AFNE01.JPG,AFNE01.JPG,AFNE01.JPG,AFNE01.JPG,AFNE01.JPG,,,,,,,,,,,,,,,,,3,8,38,3,,,,,,,AMNE11.jpg,AMSA13.jpg,AMNE17.jpg,AMSA15.jpg,AMSA15.jpg,MS,2,num_4,16,num_4,0.450176374492,,,2017_Nov_21_1154,60.0031177463,MAFE4ImagesEEG,001,202330,
AFNE01.JPG,AFNE01.JPG,AFNE01.JPG,AFNE01.JPG,AFNE01.JPG,AFNE01.JPG,,,,,,,,,,,,,,,,,3,9,39,1,,,,,,,AMSA02.jpg,AMSA09.jpg,AMNE19.jpg,AMNE15.jpg,AMSA02.jpg,MS,2,num_8,16,num_8,0.366850899256,,,2017_Nov_21_1154,60.0031177463,MAFE4ImagesEEG,001,202330,
AFNE01.JPG,AFNE01.JPG,AFNE01.JPG,AFNE01.JPG,AFNE01.JPG,AFNE01.JPG,,,,,,,,,,,,,,,,,4,0,40,3,,,,,,,AMSA04.jpg,AMSA15.jpg,AMNE02.jpg,AMNE16.jpg,AMNE02.jpg,MN,1,num_2,16,num_2,0.883446907072,,,2017_Nov_21_1154,60.0031177463,MAFE4ImagesEEG,001,202330,
AFNE01.JPG,AFNE01.JPG,AFNE01.JPG,AFNE01.JPG,AFNE01.JPG,AFNE01.JPG,,,,,,,,,,,,,,,,,4,1,41,6,,,,,,,AMNE19.jpg,AMSA04.jpg,AMSA18.jpg,AMNE06.jpg,AMSA18.jpg,MS,2,num_2,16,num_2,0.583516956525,,,2017_Nov_21_1154,60.0031177463,MAFE4ImagesEEG,001,202330,
AFNE01.JPG,AFNE01.JPG,AFNE01.JPG,AFNE01.JPG,AFNE01.JPG,AFNE01.JPG,,,,,,,,,,,,,,,,,4,2,42,8,,,,,,,AMNE01.jpg,AMSA16.jpg,AMNE08.jpg,AMSA18.jpg,AMNE01.jpg,MN,1,num_8,16,num_8,0.616834701927,,,2017_Nov_21_1154,60.0031177463,MAFE4ImagesEEG,001,202330,
AFNE01.JPG,AFNE01.JPG,AFNE01.JPG,AFNE01.JPG,AFNE01.JPG,AFNE01.JPG,,,,,,,,,,,,,,,,,4,3,43,1,,,,,,,AMSA16.jpg,AMSA02.jpg,AMNE20.jpg,AMNE15.jpg,AMSA16.jpg,MS,2,num_8,16,num_8,0.616782100711,,,2017_Nov_21_1154,60.0031177463,MAFE4ImagesEEG,001,202330,
AFNE01.JPG,AFNE01.JPG,AFNE01.JPG,AFNE01.JPG,AFNE01.JPG,AFNE01.JPG,,,,,,,,,,,,,,,,,4,4,44,7,,,,,,,AMSA14.jpg,AMSA18.jpg,AMNE19.jpg,AMNE10.jpg,AMNE19.jpg,MN,1,num_2,16,num_2,0.700192571807,,,2017_Nov_21_1154,60.0031177463,MAFE4ImagesEEG,001,202330,
AFNE01.JPG,AFNE01.JPG,AFNE01.JPG,AFNE01.JPG,AFNE01.JPG,AFNE01.JPG,,,,,,,,,,,,,,,,,4,5,45,4,,,,,,,AMSA01.jpg,AMSA07.jpg,AMNE10.jpg,AMNE19.jpg,AMNE10.jpg,MN,1,num_2,16,num_2,0.950106453325,,,2017_Nov_21_1154,60.0031177463,MAFE4ImagesEEG,001,202330,
AFNE01.JPG,AFNE01.JPG,AFNE01.JPG,AFNE01.JPG,AFNE01.JPG,AFNE01.JPG,,,,,,,,,,,,,,,,,4,6,46,9,,,,,,,AMNE04.jpg,AMSA16.jpg,AMNE17.jpg,AMSA04.jpg,AMNE04.jpg,MN,1,num_8,16,num_8,0.550174193457,,,2017_Nov_21_1154,60.0031177463,MAFE4ImagesEEG,001,202330,
AFNE01.JPG,AFNE01.JPG,AFNE01.JPG,AFNE01.JPG,AFNE01.JPG,AFNE01.JPG,,,,,,,,,,,,,,,,,4,7,47,0,,,,,,,AMSA04.jpg,AMNE05.jpg,AMSA14.jpg,AMNE11.jpg,AMNE05.jpg,MN,1,num_6,16,num_6,0.933491521893,,,2017_Nov_21_1154,60.0031177463,MAFE4ImagesEEG,001,202330,
AFNE01.JPG,AFNE01.JPG,AFNE01.JPG,AFNE01.JPG,AFNE01.JPG,AFNE01.JPG,,,,,,,,,,,,,,,,,4,8,48,2,,,,,,,AMNE16.jpg,AMSA20.jpg,AMNE01.jpg,AMSA19.jpg,AMNE16.jpg,MN,1,num_8,16,num_8,0.683337406721,,,2017_Nov_21_1154,60.0031177463,MAFE4ImagesEEG,001,202330,
AFNE01.JPG,AFNE01.JPG,AFNE01.JPG,AFNE01.JPG,AFNE01.JPG,AFNE01.JPG,,,,,,,,,,,,,,,,,4,9,49,5,,,,,,,AMNE19.jpg,AMSA11.jpg,AMSA12.jpg,AMNE18.jpg,AMSA11.jpg,MS,2,num_6,32,num_8,4.53320516595,,,2017_Nov_21_1154,60.0031177463,MAFE4ImagesEEG,001,202330,
AFNE01.JPG,AFNE01.JPG,AFNE01.JPG,AFNE01.JPG,AFNE01.JPG,AFNE01.JPG,,,,,,,,,,,,,,,,,5,0,50,8,,,,,,,AMSA15.jpg,AMNE03.jpg,AMNE12.jpg,AMSA04.jpg,AMSA15.jpg,MS,2,num_8,16,num_8,1.0667458251,,,2017_Nov_21_1154,60.0031177463,MAFE4ImagesEEG,001,202330,
AFNE01.JPG,AFNE01.JPG,AFNE01.JPG,AFNE01.JPG,AFNE01.JPG,AFNE01.JPG,,,,,,,,,,,,,,,,,5,1,51,6,,,,,,,AMSA09.jpg,AMNE06.jpg,AMNE20.jpg,AMSA17.jpg,AMSA17.jpg,MS,2,num_4,48,None,,,,2017_Nov_21_1154,60.0031177463,MAFE4ImagesEEG,001,202330,
AFNE01.JPG,AFNE01.JPG,AFNE01.JPG,AFNE01.JPG,AFNE01.JPG,AFNE01.JPG,,,,,,,,,,,,,,,,,5,2,52,7,,,,,,,AMNE02.jpg,AMSA10.jpg,AMSA20.jpg,AMNE08.jpg,AMSA10.jpg,MS,2,num_6,16,num_6,1.18341887447,,,2017_Nov_21_1154,60.0031177463,MAFE4ImagesEEG,001,202330,
AFNE01.JPG,AFNE01.JPG,AFNE01.JPG,AFNE01.JPG,AFNE01.JPG,AFNE01.JPG,,,,,,,,,,,,,,,,,5,3,53,4,,,,,,,AMNE18.jpg,AMSA11.jpg,AMNE15.jpg,AMSA03.jpg,AMNE18.jpg,MN,1,num_8,16,num_8,0.633372335215,,,2017_Nov_21_1154,60.0031177463,MAFE4ImagesEEG,001,202330,
AFNE01.JPG,AFNE01.JPG,AFNE01.JPG,AFNE01.JPG,AFNE01.JPG,AFNE01.JPG,,,,,,,,,,,,,,,,,5,4,54,1,,,,,,,AMNE15.jpg,AMNE03.jpg,AMSA20.jpg,AMSA15.jpg,AMNE15.jpg,MN,1,num_8,32,num_4,0.633463104416,,,2017_Nov_21_1154,60.0031177463,MAFE4ImagesEEG,001,202330,
AFNE01.JPG,AFNE01.JPG,AFNE01.JPG,AFNE01.JPG,AFNE01.JPG,AFNE01.JPG,,,,,,,,,,,,,,,,,5,5,55,0,,,,,,,AMNE10.jpg,AMSA17.jpg,AMNE02.jpg,AMSA06.jpg,AMNE10.jpg,MN,1,num_8,16,num_8,0.833473817096,,,2017_Nov_21_1154,60.0031177463,MAFE4ImagesEEG,001,202330,
AFNE01.JPG,AFNE01.JPG,AFNE01.JPG,AFNE01.JPG,AFNE01.JPG,AFNE01.JPG,,,,,,,,,,,,,,,,,5,6,56,3,,,,,,,AMNE03.jpg,AMSA18.jpg,AMSA20.jpg,AMNE12.jpg,AMNE12.jpg,MN,1,num_4,32,num_8,0.666768661729,,,2017_Nov_21_1154,60.0031177463,MAFE4ImagesEEG,001,202330,
AFNE01.JPG,AFNE01.JPG,AFNE01.JPG,AFNE01.JPG,AFNE01.JPG,AFNE01.JPG,,,,,,,,,,,,,,,,,5,7,57,5,,,,,,,AMNE17.jpg,AMSA20.jpg,AMNE13.jpg,AMSA04.jpg,AMNE13.jpg,MN,1,num_2,16,num_2,0.900106742003,,,2017_Nov_21_1154,60.0031177463,MAFE4ImagesEEG,001,202330,
AFNE01.JPG,AFNE01.JPG,AFNE01.JPG,AFNE01.JPG,AFNE01.JPG,AFNE01.JPG,,,,,,,,,,,,,,,,,5,8,58,2,,,,,,,AMSA08.jpg,AMSA15.jpg,AMNE04.jpg,AMNE14.jpg,AMNE14.jpg,MN,1,num_4,16,num_4,0.650148598463,,,2017_Nov_21_1154,60.0031177463,MAFE4ImagesEEG,001,202330,
AFNE01.JPG,AFNE01.JPG,AFNE01.JPG,AFNE01.JPG,AFNE01.JPG,AFNE01.JPG,,,,,,,,,,,,,,,,,5,9,59,9,,,,,,,AMSA07.jpg,AMNE03.jpg,AMSA05.jpg,AMNE08.jpg,AMNE03.jpg,MN,1,num_6,16,num_6,0.600153698222,,,2017_Nov_21_1154,60.0031177463,MAFE4ImagesEEG,001,202330,
,,,,,,,,,,,,,,,,,,,,,,,,,,,,,,,,,,,,,,,,,,,space,32.9142215115,2017_Nov_21_1154,60.0031177463,MAFE4ImagesEEG,001,202330,
AFNE01.JPG,AFNE01.JPG,AFNE01.JPG,AFNE01.JPG,AFNE01.JPG,AFNE01.JPG,,,,,,,,,,,,,,,,,,,,,0,0,0,6,,,AFSA13.jpg,AFNE03.jpg,AFNE02.jpg,AFSA14.jpg,AFSA14.jpg,FS,4,num_4,16,num_4,0.550148855051,,,2017_Nov_21_1154,60.0031177463,MAFE4ImagesEEG,001,202330,
AFNE01.JPG,AFNE01.JPG,AFNE01.JPG,AFNE01.JPG,AFNE01.JPG,AFNE01.JPG,,,,,,,,,,,,,,,,,,,,,0,1,1,9,,,AFNE14.jpg,AFSA11.jpg,AFNE03.jpg,AFSA02.jpg,AFNE14.jpg,FN,3,num_8,32,num_2,0.766773216223,,,2017_Nov_21_1154,60.0031177463,MAFE4ImagesEEG,001,202330,
AFNE01.JPG,AFNE01.JPG,AFNE01.JPG,AFNE01.JPG,AFNE01.JPG,AFNE01.JPG,,,,,,,,,,,,,,,,,,,,,0,2,2,2,,,AFSA06.jpg,AFNE06.jpg,AFSA05.jpg,AFNE01.jpg,AFSA06.jpg,FS,4,num_8,16,num_8,1.18344677878,,,2017_Nov_21_1154,60.0031177463,MAFE4ImagesEEG,001,202330,
AFNE01.JPG,AFNE01.JPG,AFNE01.JPG,AFNE01.JPG,AFNE01.JPG,AFNE01.JPG,,,,,,,,,,,,,,,,,,,,,0,3,3,5,,,AFNE13.jpg,AFNE05.jpg,AFSA14.jpg,AFSA16.jpg,AFNE13.jpg,FN,3,num_8,16,num_8,0.850082654491,,,2017_Nov_21_1154,60.0031177463,MAFE4ImagesEEG,001,202330,
AFNE01.JPG,AFNE01.JPG,AFNE01.JPG,AFNE01.JPG,AFNE01.JPG,AFNE01.JPG,,,,,,,,,,,,,,,,,,,,,0,4,4,8,,,AFSA07.jpg,AFNE12.jpg,AFNE06.jpg,AFSA06.jpg,AFNE06.jpg,FN,3,num_2,16,num_2,0.600135416084,,,2017_Nov_21_1154,60.0031177463,MAFE4ImagesEEG,001,202330,
AFNE01.JPG,AFNE01.JPG,AFNE01.JPG,AFNE01.JPG,AFNE01.JPG,AFNE01.JPG,,,,,,,,,,,,,,,,,,,,,0,5,5,0,,,AFNE18.jpg,AFNE04.jpg,AFSA12.jpg,AFSA19.jpg,AFSA19.jpg,FS,4,num_4,16,num_4,0.666802018604,,,2017_Nov_21_1154,60.0031177463,MAFE4ImagesEEG,001,202330,
AFNE01.JPG,AFNE01.JPG,AFNE01.JPG,AFNE01.JPG,AFNE01.JPG,AFNE01.JPG,,,,,,,,,,,,,,,,,,,,,0,6,6,7,,,AFSA15.jpg,AFNE12.jpg,AFNE02.jpg,AFSA05.jpg,AFSA05.jpg,FS,4,num_4,16,num_4,0.516804488288,,,2017_Nov_21_1154,60.0031177463,MAFE4ImagesEEG,001,202330,
AFNE01.JPG,AFNE01.JPG,AFNE01.JPG,AFNE01.JPG,AFNE01.JPG,AFNE01.JPG,,,,,,,,,,,,,,,,,,,,,0,7,7,3,,,AFNE12.jpg,AFNE07.jpg,AFSA08.jpg,AFSA03.jpg,AFSA08.jpg,FS,4,num_2,16,num_2,0.583471732301,,,2017_Nov_21_1154,60.0031177463,MAFE4ImagesEEG,001,202330,
AFNE01.JPG,AFNE01.JPG,AFNE01.JPG,AFNE01.JPG,AFNE01.JPG,AFNE01.JPG,,,,,,,,,,,,,,,,,,,,,0,8,8,4,,,AFSA12.jpg,AFNE02.jpg,AFSA14.jpg,AFNE03.jpg,AFNE02.jpg,FN,3,num_6,16,num_6,0.567057583583,,,2017_Nov_21_1154,60.0031177463,MAFE4ImagesEEG,001,202330,
AFNE01.JPG,AFNE01.JPG,AFNE01.JPG,AFNE01.JPG,AFNE01.JPG,AFNE01.JPG,,,,,,,,,,,,,,,,,,,,,0,9,9,1,,,AFSA10.jpg,AFNE20.jpg,AFSA11.jpg,AFNE16.jpg,AFSA11.jpg,FS,4,num_2,16,num_2,0.549995541733,,,2017_Nov_21_1154,60.0031177463,MAFE4ImagesEEG,001,202330,
AFNE01.JPG,AFNE01.JPG,AFNE01.JPG,AFNE01.JPG,AFNE01.JPG,AFNE01.JPG,,,,,,,,,,,,,,,,,,,,,1,0,10,1,,,AFSA02.jpg,AFNE04.jpg,AFNE18.jpg,AFSA03.jpg,AFSA02.jpg,FS,4,num_8,16,num_8,0.933421600756,,,2017_Nov_21_1154,60.0031177463,MAFE4ImagesEEG,001,202330,
AFNE01.JPG,AFNE01.JPG,AFNE01.JPG,AFNE01.JPG,AFNE01.JPG,AFNE01.JPG,,,,,,,,,,,,,,,,,,,,,1,1,11,3,,,AFSA20.jpg,AFSA19.jpg,AFNE15.jpg,AFNE08.jpg,AFNE15.jpg,FN,3,num_2,16,num_2,1.08343869615,,,2017_Nov_21_1154,60.0031177463,MAFE4ImagesEEG,001,202330,
AFNE01.JPG,AFNE01.JPG,AFNE01.JPG,AFNE01.JPG,AFNE01.JPG,AFNE01.JPG,,,,,,,,,,,,,,,,,,,,,1,2,12,4,,,AFNE05.jpg,AFNE07.jpg,AFSA15.jpg,AFSA03.jpg,AFNE07.jpg,FN,3,num_6,16,num_6,1.03344828625,,,2017_Nov_21_1154,60.0031177463,MAFE4ImagesEEG,001,202330,
AFNE01.JPG,AFNE01.JPG,AFNE01.JPG,AFNE01.JPG,AFNE01.JPG,AFNE01.JPG,,,,,,,,,,,,,,,,,,,,,1,3,13,8,,,AFNE14.jpg,AFSA05.jpg,AFNE03.jpg,AFSA17.jpg,AFSA17.jpg,FS,4,num_4,16,num_4,0.733421793193,,,2017_Nov_21_1154,60.0031177463,MAFE4ImagesEEG,001,202330,
AFNE01.JPG,AFNE01.JPG,AFNE01.JPG,AFNE01.JPG,AFNE01.JPG,AFNE01.JPG,,,,,,,,,,,,,,,,,,,,,1,4,14,5,,,AFSA19.jpg,AFNE06.jpg,AFSA11.jpg,AFNE16.jpg,AFSA19.jpg,FS,4,num_8,32,num_4,1.11675483787,,,2017_Nov_21_1154,60.0031177463,MAFE4ImagesEEG,001,202330,
AFNE01.JPG,AFNE01.JPG,AFNE01.JPG,AFNE01.JPG,AFNE01.JPG,AFNE01.JPG,,,,,,,,,,,,,,,,,,,,,1,5,15,6,,,AFSA10.jpg,AFNE11.jpg,AFNE05.jpg,AFSA06.jpg,AFSA06.jpg,FS,4,num_4,32,num_6,0.800120148895,,,2017_Nov_21_1154,60.0031177463,MAFE4ImagesEEG,001,202330,
AFNE01.JPG,AFNE01.JPG,AFNE01.JPG,AFNE01.JPG,AFNE01.JPG,AFNE01.JPG,,,,,,,,,,,,,,,,,,,,,1,6,16,7,,,AFSA16.jpg,AFSA17.jpg,AFNE11.jpg,AFNE17.jpg,AFSA17.jpg,FS,4,num_6,16,num_6,0.733504864649,,,2017_Nov_21_1154,60.0031177463,MAFE4ImagesEEG,001,202330,
AFNE01.JPG,AFNE01.JPG,AFNE01.JPG,AFNE01.JPG,AFNE01.JPG,AFNE01.JPG,,,,,,,,,,,,,,,,,,,,,1,7,17,2,,,AFNE20.jpg,AFNE18.jpg,AFSA18.jpg,AFSA14.jpg,AFNE18.jpg,FN,3,num_6,16,num_6,1.03345470104,,,2017_Nov_21_1154,60.0031177463,MAFE4ImagesEEG,001,202330,
AFNE01.JPG,AFNE01.JPG,AFNE01.JPG,AFNE01.JPG,AFNE01.JPG,AFNE01.JPG,,,,,,,,,,,,,,,,,,,,,1,8,18,0,,,AFSA20.jpg,AFSA02.jpg,AFNE11.jpg,AFNE19.jpg,AFNE19.jpg,FN,3,num_4,16,num_4,0.800156392434,,,2017_Nov_21_1154,60.0031177463,MAFE4ImagesEEG,001,202330,
AFNE01.JPG,AFNE01.JPG,AFNE01.JPG,AFNE01.JPG,AFNE01.JPG,AFNE01.JPG,,,,,,,,,,,,,,,,,,,,,1,9,19,9,,,AFNE18.jpg,AFSA01.jpg,AFNE07.jpg,AFSA08.jpg,AFNE18.jpg,FN,3,num_8,16,num_8,0.550184457097,,,2017_Nov_21_1154,60.0031177463,MAFE4ImagesEEG,001,202330,
AFNE01.JPG,AFNE01.JPG,AFNE01.JPG,AFNE01.JPG,AFNE01.JPG,AFNE01.JPG,,,,,,,,,,,,,,,,,,,,,2,0,20,2,,,AFSA06.jpg,AFNE17.jpg,AFSA14.jpg,AFNE10.jpg,AFSA06.jpg,FS,4,num_8,16,num_8,0.53345277661,,,2017_Nov_21_1154,60.0031177463,MAFE4ImagesEEG,001,202330,
AFNE01.JPG,AFNE01.JPG,AFNE01.JPG,AFNE01.JPG,AFNE01.JPG,AFNE01.JPG,,,,,,,,,,,,,,,,,,,,,2,1,21,0,,,AFNE15.jpg,AFSA02.jpg,AFSA18.jpg,AFNE01.jpg,AFNE15.jpg,FN,3,num_8,16,num_8,0.616748423083,,,2017_Nov_21_1154,60.0031177463,MAFE4ImagesEEG,001,202330,
AFNE01.JPG,AFNE01.JPG,AFNE01.JPG,AFNE01.JPG,AFNE01.JPG,AFNE01.JPG,,,,,,,,,,,,,,,,,,,,,2,2,22,8,,,AFNE15.jpg,AFNE10.jpg,AFSA06.jpg,AFSA18.jpg,AFSA18.jpg,FS,4,num_4,16,num_4,1.20013740467,,,2017_Nov_21_1154,60.0031177463,MAFE4ImagesEEG,001,202330,
AFNE01.JPG,AFNE01.JPG,AFNE01.JPG,AFNE01.JPG,AFNE01.JPG,AFNE01.JPG,,,,,,,,,,,,,,,,,,,,,2,3,23,4,,,AFSA09.jpg,AFNE12.jpg,AFNE05.jpg,AFSA03.jpg,AFNE05.jpg,FN,3,num_2,16,num_2,0.733439433854,,,2017_Nov_21_1154,60.0031177463,MAFE4ImagesEEG,001,202330,
AFNE01.JPG,AFNE01.JPG,AFNE01.JPG,AFNE01.JPG,AFNE01.JPG,AFNE01.JPG,,,,,,,,,,,,,,,,,,,,,2,4,24,5,,,AFNE20.jpg,AFNE12.jpg,AFSA04.jpg,AFSA15.jpg,AFSA15.jpg,FS,4,num_4,32,num_2,1.0001841043,,,2017_Nov_21_1154,60.0031177463,MAFE4ImagesEEG,001,202330,
AFNE01.JPG,AFNE01.JPG,AFNE01.JPG,AFNE01.JPG,AFNE01.JPG,AFNE01.JPG,,,,,,,,,,,,,,,,,,,,,2,5,25,1,,,AFSA10.jpg,AFNE18.jpg,AFSA02.jpg,AFNE14.jpg,AFNE14.jpg,FN,3,num_4,16,num_4,1.31676747499,,,2017_Nov_21_1154,60.0031177463,MAFE4ImagesEEG,001,202330,
AFNE01.JPG,AFNE01.JPG,AFNE01.JPG,AFNE01.JPG,AFNE01.JPG,AFNE01.JPG,,,,,,,,,,,,,,,,,,,,,2,6,26,9,,,AFSA20.jpg,AFNE17.jpg,AFSA02.jpg,AFNE13.jpg,AFSA02.jpg,FS,4,num_2,32,num_4,1.15013737261,,,2017_Nov_21_1154,60.0031177463,MAFE4ImagesEEG,001,202330,
AFNE01.JPG,AFNE01.JPG,AFNE01.JPG,AFNE01.JPG,AFNE01.JPG,AFNE01.JPG,,,,,,,,,,,,,,,,,,,,,2,7,27,7,,,AFSA06.jpg,AFNE11.jpg,AFSA08.jpg,AFNE16.jpg,AFNE11.jpg,FN,3,num_6,32,num_2,0.733501015784,,,2017_Nov_21_1154,60.0031177463,MAFE4ImagesEEG,001,202330,
AFNE01.JPG,AFNE01.JPG,AFNE01.JPG,AFNE01.JPG,AFNE01.JPG,AFNE01.JPG,,,,,,,,,,,,,,,,,,,,,2,8,28,3,,,AFSA08.jpg,AFNE20.jpg,AFNE18.jpg,AFSA20.jpg,AFSA20.jpg,FS,4,num_4,32,num_8,0.500193084983,,,2017_Nov_21_1154,60.0031177463,MAFE4ImagesEEG,001,202330,
AFNE01.JPG,AFNE01.JPG,AFNE01.JPG,AFNE01.JPG,AFNE01.JPG,AFNE01.JPG,,,,,,,,,,,,,,,,,,,,,2,9,29,6,,,AFNE04.jpg,AFSA14.jpg,AFNE18.jpg,AFSA06.jpg,AFNE04.jpg,FN,3,num_8,32,num_6,1.06677244644,,,2017_Nov_21_1154,60.0031177463,MAFE4ImagesEEG,001,202330,
AFNE01.JPG,AFNE01.JPG,AFNE01.JPG,AFNE01.JPG,AFNE01.JPG,AFNE01.JPG,,,,,,,,,,,,,,,,,,,,,3,0,30,6,,,AFSA08.jpg,AFSA11.jpg,AFNE13.jpg,AFNE14.jpg,AFSA08.jpg,FS,4,num_8,16,num_8,0.766813629365,,,2017_Nov_21_1154,60.0031177463,MAFE4ImagesEEG,001,202330,
AFNE01.JPG,AFNE01.JPG,AFNE01.JPG,AFNE01.JPG,AFNE01.JPG,AFNE01.JPG,,,,,,,,,,,,,,,,,,,,,3,1,31,5,,,AFNE07.jpg,AFSA10.jpg,AFSA06.jpg,AFNE08.jpg,AFSA10.jpg,FS,4,num_6,32,num_8,0.550155590579,,,2017_Nov_21_1154,60.0031177463,MAFE4ImagesEEG,001,202330,
AFNE01.JPG,AFNE01.JPG,AFNE01.JPG,AFNE01.JPG,AFNE01.JPG,AFNE01.JPG,,,,,,,,,,,,,,,,,,,,,3,2,32,4,,,AFSA13.jpg,AFSA09.jpg,AFNE09.jpg,AFNE17.jpg,AFSA09.jpg,FS,4,num_6,32,num_4,1.08340726372,,,2017_Nov_21_1154,60.0031177463,MAFE4ImagesEEG,001,202330,
AFNE01.JPG,AFNE01.JPG,AFNE01.JPG,AFNE01.JPG,AFNE01.JPG,AFNE01.JPG,,,,,,,,,,,,,,,,,,,,,3,3,33,7,,,AFSA06.jpg,AFNE20.jpg,AFSA04.jpg,AFNE08.jpg,AFSA06.jpg,FS,4,num_8,32,num_4,0.883450755951,,,2017_Nov_21_1154,60.0031177463,MAFE4ImagesEEG,001,202330,
AFNE01.JPG,AFNE01.JPG,AFNE01.JPG,AFNE01.JPG,AFNE01.JPG,AFNE01.JPG,,,,,,,,,,,,,,,,,,,,,3,4,34,9,,,AFNE10.jpg,AFSA03.jpg,AFSA01.jpg,AFNE13.jpg,AFSA03.jpg,FS,4,num_6,16,num_6,0.783476350945,,,2017_Nov_21_1154,60.0031177463,MAFE4ImagesEEG,001,202330,
AFNE01.JPG,AFNE01.JPG,AFNE01.JPG,AFNE01.JPG,AFNE01.JPG,AFNE01.JPG,,,,,,,,,,,,,,,,,,,,,3,5,35,1,,,AFNE18.jpg,AFSA10.jpg,AFNE05.jpg,AFSA12.jpg,AFSA10.jpg,FS,4,num_6,16,num_6,0.933450467288,,,2017_Nov_21_1154,60.0031177463,MAFE4ImagesEEG,001,202330,
AFNE01.JPG,AFNE01.JPG,AFNE01.JPG,AFNE01.JPG,AFNE01.JPG,AFNE01.JPG,,,,,,,,,,,,,,,,,,,,,3,6,36,0,,,AFNE04.jpg,AFSA16.jpg,AFNE09.jpg,AFSA14.jpg,AFNE09.jpg,FN,3,num_2,16,num_2,1.65003986788,,,2017_Nov_21_1154,60.0031177463,MAFE4ImagesEEG,001,202330,
AFNE01.JPG,AFNE01.JPG,AFNE01.JPG,AFNE01.JPG,AFNE01.JPG,AFNE01.JPG,,,,,,,,,,,,,,,,,,,,,3,7,37,3,,,AFSA13.jpg,AFSA01.jpg,AFNE05.jpg,AFNE20.jpg,AFSA13.jpg,FS,4,num_8,16,num_8,1.18342464778,,,2017_Nov_21_1154,60.0031177463,MAFE4ImagesEEG,001,202330,
AFNE01.JPG,AFNE01.JPG,AFNE01.JPG,AFNE01.JPG,AFNE01.JPG,AFNE01.JPG,,,,,,,,,,,,,,,,,,,,,3,8,38,2,,,AFSA09.jpg,AFSA06.jpg,AFNE11.jpg,AFNE18.jpg,AFSA06.jpg,FS,4,num_6,16,num_6,1.23348337512,,,2017_Nov_21_1154,60.0031177463,MAFE4ImagesEEG,001,202330,
