IPosition2,IPosition3,IPosition1,IPosition6,IPosition4,IPosition5,TrialsM1.thisRepN,TrialsM1.thisTrialN,TrialsM1.thisN,TrialsM1.thisIndex,TrialsF1.thisRepN,TrialsF1.thisTrialN,TrialsF1.thisN,TrialsF1.thisIndex,TrialsM2.thisRepN,TrialsM2.thisTrialN,TrialsM2.thisN,TrialsM2.thisIndex,TrialsF2.thisRepN,TrialsF2.thisTrialN,TrialsF2.thisN,TrialsF2.thisIndex,TrialsM3.thisRepN,TrialsM3.thisTrialN,TrialsM3.thisN,TrialsM3.thisIndex,TrialsF3.thisRepN,TrialsF3.thisTrialN,TrialsF3.thisN,TrialsF3.thisIndex,InstrKey_resp.keys,InstrKey_resp.rt,Image0 _Position,Image1 _Position,Image2 _Position,Image3 _Position,Center_image,condition,code,correct_answer,accuracy,Key_Resp.keys,Key_Resp.rt,BreakKey_resp.keys,BreakKey_resp.rt,date,frameRate,expName,session,participant,
,,,,,,,,,,,,,,,,,,,,,,,,,,,,,,space,22.765381208,,,,,,,,,,,,,,2017_Nov_30_1631,60.0072752564,MAFE4ImagesEEG,001,202397,
AFSA21.JPG,AFNE23.JPG,AFNE21.JPG,AFSA25.JPG,AFNE25.JPG,AFSA23.JPG,0,0,0,4,,,,,,,,,,,,,,,,,,,,,,,AMSA07.jpg,AMNE09.jpg,AMNE05.jpg,AMSA04.jpg,AMSA04.jpg,MS,2,num_4,32,num_8,0.550177080091,,,2017_Nov_30_1631,60.0072752564,MAFE4ImagesEEG,001,202397,
AMSA21.JPG,AMNE22.JPG,AMNE21.JPG,AMSA23.JPG,AMSA22.JPG,AMNE23.JPG,0,1,1,1,,,,,,,,,,,,,,,,,,,,,,,AMSA05.jpg,AMSA11.jpg,AMNE08.jpg,AMNE09.jpg,AMSA11.jpg,MS,2,num_6,32,num_4,0.366776166949,,,2017_Nov_30_1631,60.0072752564,MAFE4ImagesEEG,001,202397,
AMSA21.JPG,AMNE23.JPG,AMNE21.JPG,AMSA25.JPG,AMNE25.JPG,AMSA23.JPG,0,2,2,5,,,,,,,,,,,,,,,,,,,,,,,AMSA05.jpg,AMNE16.jpg,AMSA06.jpg,AMNE20.jpg,AMSA06.jpg,MS,2,num_2,32,num_4,0.450191449141,,,2017_Nov_30_1631,60.0072752564,MAFE4ImagesEEG,001,202397,
AMNE23.JPG,AMNE24.JPG,AMNE22.JPG,AMSA24.JPG,AMSA22.JPG,AMSA23.JPG,0,3,3,9,,,,,,,,,,,,,,,,,,,,,,,AMNE15.jpg,AMSA16.jpg,AMSA05.jpg,AMNE13.jpg,AMNE15.jpg,MN,1,num_8,32,num_6,0.533454700955,,,2017_Nov_30_1631,60.0072752564,MAFE4ImagesEEG,001,202397,
AMNE22.JPG,AMSA24.JPG,AMSA22.JPG,AMNE25.JPG,AMNE24.JPG,AMSA25.JPG,0,4,4,7,,,,,,,,,,,,,,,,,,,,,,,AMNE06.jpg,AMSA04.jpg,AMSA09.jpg,AMNE16.jpg,AMSA09.jpg,MS,2,num_2,32,num_4,0.633461500751,,,2017_Nov_30_1631,60.0072752564,MAFE4ImagesEEG,001,202397,
AFNE22.JPG,AFSA24.JPG,AFSA22.JPG,AFNE25.JPG,AFNE24.JPG,AFSA25.JPG,0,5,5,6,,,,,,,,,,,,,,,,,,,,,,,AMSA12.jpg,AMSA07.jpg,AMNE17.jpg,AMNE11.jpg,AMNE11.jpg,MN,1,num_4,16,num_4,0.700135480263,,,2017_Nov_30_1631,60.0072752564,MAFE4ImagesEEG,001,202397,
AFSA21.JPG,AFNE22.JPG,AFNE21.JPG,AFSA23.JPG,AFSA22.JPG,AFNE23.JPG,0,6,6,0,,,,,,,,,,,,,,,,,,,,,,,AMSA10.jpg,AMSA19.jpg,AMNE06.jpg,AMNE02.jpg,AMSA19.jpg,MS,2,num_6,16,num_6,0.750168869155,,,2017_Nov_30_1631,60.0072752564,MAFE4ImagesEEG,001,202397,
AMSA25.JPG,AMNE24.JPG,AMSA24.JPG,AMNE26.JPG,AMSA21.JPG,AMNE25.JPG,0,7,7,3,,,,,,,,,,,,,,,,,,,,,,,AMSA09.jpg,AMNE14.jpg,AMSA19.jpg,AMNE09.jpg,AMNE09.jpg,MN,1,num_4,32,num_2,0.716816804721,,,2017_Nov_30_1631,60.0072752564,MAFE4ImagesEEG,001,202397,
AFSA25.JPG,AFNE24.JPG,AFSA24.JPG,AFNE21.JPG,AFSA21.JPG,AFNE25.JPG,0,8,8,2,,,,,,,,,,,,,,,,,,,,,,,AMNE06.jpg,AMSA13.jpg,AMSA07.jpg,AMNE19.jpg,AMSA07.jpg,MS,2,num_2,16,num_2,0.750154435867,,,2017_Nov_30_1631,60.0072752564,MAFE4ImagesEEG,001,202397,
AFNE23.JPG,AFNE24.JPG,AFNE22.JPG,AFSA24.JPG,AFSA22.JPG,AFSA23.JPG,0,9,9,8,,,,,,,,,,,,,,,,,,,,,,,AMNE17.jpg,AMNE07.jpg,AMSA18.jpg,AMSA17.jpg,AMSA18.jpg,MS,2,num_2,32,num_8,0.816782228998,,,2017_Nov_30_1631,60.0072752564,MAFE4ImagesEEG,001,202397,
AMSA21.JPG,AMNE22.JPG,AMNE21.JPG,AMSA23.JPG,AMSA22.JPG,AMNE23.JPG,,,,,0,0,0,1,,,,,,,,,,,,,,,,,,,AFSA18.jpg,AFSA01.jpg,AFNE09.jpg,AFNE02.jpg,AFSA18.jpg,FS,4,num_8,32,num_6,0.48344151862,,,2017_Nov_30_1631,60.0072752564,MAFE4ImagesEEG,001,202397,
AFSA21.JPG,AFNE23.JPG,AFNE21.JPG,AFSA25.JPG,AFNE25.JPG,AFSA23.JPG,,,,,0,1,1,4,,,,,,,,,,,,,,,,,,,AFSA01.jpg,AFNE08.jpg,AFSA15.jpg,AFNE05.jpg,AFNE05.jpg,FN,3,num_4,32,num_2,0.416816291516,,,2017_Nov_30_1631,60.0072752564,MAFE4ImagesEEG,001,202397,
AFSA21.JPG,AFNE22.JPG,AFNE21.JPG,AFSA23.JPG,AFSA22.JPG,AFNE23.JPG,,,,,0,2,2,0,,,,,,,,,,,,,,,,,,,AFNE05.jpg,AFSA12.jpg,AFSA20.jpg,AFNE11.jpg,AFSA20.jpg,FS,4,num_2,32,num_8,0.56680452032,,,2017_Nov_30_1631,60.0072752564,MAFE4ImagesEEG,001,202397,
AMSA21.JPG,AMNE23.JPG,AMNE21.JPG,AMSA25.JPG,AMNE25.JPG,AMSA23.JPG,,,,,0,3,3,5,,,,,,,,,,,,,,,,,,,AFSA19.jpg,AFNE13.jpg,AFSA14.jpg,AFNE06.jpg,AFSA14.jpg,FS,4,num_2,32,num_6,0.633508649422,,,2017_Nov_30_1631,60.0072752564,MAFE4ImagesEEG,001,202397,
AMSA25.JPG,AMNE24.JPG,AMSA24.JPG,AMNE26.JPG,AMSA21.JPG,AMNE25.JPG,,,,,0,4,4,3,,,,,,,,,,,,,,,,,,,AFSA04.jpg,AFNE06.jpg,AFNE05.jpg,AFSA03.jpg,AFSA04.jpg,FS,4,num_8,32,num_2,0.350185611751,,,2017_Nov_30_1631,60.0072752564,MAFE4ImagesEEG,001,202397,
AFNE22.JPG,AFSA24.JPG,AFSA22.JPG,AFNE25.JPG,AFNE24.JPG,AFSA25.JPG,,,,,0,5,5,6,,,,,,,,,,,,,,,,,,,AFSA06.jpg,AFNE13.jpg,AFSA09.jpg,AFNE12.jpg,AFSA06.jpg,FS,4,num_8,16,num_8,0.516768886242,,,2017_Nov_30_1631,60.0072752564,MAFE4ImagesEEG,001,202397,
AMNE22.JPG,AMSA24.JPG,AMSA22.JPG,AMNE25.JPG,AMNE24.JPG,AMSA25.JPG,,,,,0,6,6,7,,,,,,,,,,,,,,,,,,,AFNE20.jpg,AFNE09.jpg,AFSA02.jpg,AFSA13.jpg,AFNE09.jpg,FN,3,num_6,32,num_2,0.550238341209,,,2017_Nov_30_1631,60.0072752564,MAFE4ImagesEEG,001,202397,
AMNE23.JPG,AMNE24.JPG,AMNE22.JPG,AMSA24.JPG,AMSA22.JPG,AMSA23.JPG,,,,,0,7,7,9,,,,,,,,,,,,,,,,,,,AFNE18.jpg,AFSA06.jpg,AFSA02.jpg,AFNE17.jpg,AFNE17.jpg,FN,3,num_4,32,num_6,0.683479814907,,,2017_Nov_30_1631,60.0072752564,MAFE4ImagesEEG,001,202397,
AFNE23.JPG,AFNE24.JPG,AFNE22.JPG,AFSA24.JPG,AFSA22.JPG,AFSA23.JPG,,,,,0,8,8,8,,,,,,,,,,,,,,,,,,,AFSA16.jpg,AFNE05.jpg,AFSA02.jpg,AFNE01.jpg,AFNE05.jpg,FN,3,num_6,32,num_4,0.766776423668,,,2017_Nov_30_1631,60.0072752564,MAFE4ImagesEEG,001,202397,
AFSA25.JPG,AFNE24.JPG,AFSA24.JPG,AFNE21.JPG,AFSA21.JPG,AFNE25.JPG,,,,,0,9,9,2,,,,,,,,,,,,,,,,,,,AFSA15.jpg,AFNE08.jpg,AFNE20.jpg,AFSA19.jpg,AFSA15.jpg,FS,4,num_8,32,num_6,0.750152511522,,,2017_Nov_30_1631,60.0072752564,MAFE4ImagesEEG,001,202397,
AFNE23.JPG,AFNE24.JPG,AFNE22.JPG,AFSA24.JPG,AFSA22.JPG,AFSA23.JPG,,,,,,,,,0,0,0,8,,,,,,,,,,,,,,,AMSA19.jpg,AMNE09.jpg,AMNE07.jpg,AMSA07.jpg,AMSA19.jpg,MS,2,num_8,16,num_8,1.00015331327,,,2017_Nov_30_1631,60.0072752564,MAFE4ImagesEEG,001,202397,
AMNE23.JPG,AMNE24.JPG,AMNE22.JPG,AMSA24.JPG,AMSA22.JPG,AMSA23.JPG,,,,,,,,,0,1,1,9,,,,,,,,,,,,,,,AMSA10.jpg,AMSA14.jpg,AMNE03.jpg,AMNE08.jpg,AMSA14.jpg,MS,2,num_6,16,num_6,0.633536232985,,,2017_Nov_30_1631,60.0072752564,MAFE4ImagesEEG,001,202397,
AFSA21.JPG,AFNE23.JPG,AFNE21.JPG,AFSA25.JPG,AFNE25.JPG,AFSA23.JPG,,,,,,,,,0,2,2,4,,,,,,,,,,,,,,,AMSA02.jpg,AMNE13.jpg,AMNE05.jpg,AMSA08.jpg,AMNE05.jpg,MN,1,num_2,32,num_4,0.633506083512,,,2017_Nov_30_1631,60.0072752564,MAFE4ImagesEEG,001,202397,
AMSA21.JPG,AMNE23.JPG,AMNE21.JPG,AMSA25.JPG,AMNE25.JPG,AMSA23.JPG,,,,,,,,,0,3,3,5,,,,,,,,,,,,,,,AMSA18.jpg,AMNE07.jpg,AMSA05.jpg,AMNE01.jpg,AMNE07.jpg,MN,1,num_6,16,num_6,0.450181826949,,,2017_Nov_30_1631,60.0072752564,MAFE4ImagesEEG,001,202397,
AFNE22.JPG,AFSA24.JPG,AFSA22.JPG,AFNE25.JPG,AFNE24.JPG,AFSA25.JPG,,,,,,,,,0,4,4,6,,,,,,,,,,,,,,,AMNE05.jpg,AMSA19.jpg,AMSA15.jpg,AMNE19.jpg,AMNE05.jpg,MN,1,num_8,16,num_8,0.250052761636,,,2017_Nov_30_1631,60.0072752564,MAFE4ImagesEEG,001,202397,
AMSA25.JPG,AMNE24.JPG,AMSA24.JPG,AMNE26.JPG,AMSA21.JPG,AMNE25.JPG,,,,,,,,,0,5,5,3,,,,,,,,,,,,,,,AMNE09.jpg,AMSA19.jpg,AMNE03.jpg,AMSA01.jpg,AMSA19.jpg,MS,2,num_6,32,num_4,0.316815265105,,,2017_Nov_30_1631,60.0072752564,MAFE4ImagesEEG,001,202397,
AMNE22.JPG,AMSA24.JPG,AMSA22.JPG,AMNE25.JPG,AMNE24.JPG,AMSA25.JPG,,,,,,,,,0,6,6,7,,,,,,,,,,,,,,,AMSA12.jpg,AMSA06.jpg,AMNE09.jpg,AMNE18.jpg,AMNE18.jpg,MN,1,num_4,32,num_8,0.466772703105,,,2017_Nov_30_1631,60.0072752564,MAFE4ImagesEEG,001,202397,
AFSA21.JPG,AFNE22.JPG,AFNE21.JPG,AFSA23.JPG,AFSA22.JPG,AFNE23.JPG,,,,,,,,,0,7,7,0,,,,,,,,,,,,,,,AMSA15.jpg,AMSA12.jpg,AMNE09.jpg,AMNE19.jpg,AMSA15.jpg,MS,2,num_8,32,num_2,0.350155462278,,,2017_Nov_30_1631,60.0072752564,MAFE4ImagesEEG,001,202397,
AMSA21.JPG,AMNE22.JPG,AMNE21.JPG,AMSA23.JPG,AMSA22.JPG,AMNE23.JPG,,,,,,,,,0,8,8,1,,,,,,,,,,,,,,,AMNE16.jpg,AMSA18.jpg,AMNE18.jpg,AMSA13.jpg,AMSA18.jpg,MS,2,num_6,32,num_8,0.433532255702,,,2017_Nov_30_1631,60.0072752564,MAFE4ImagesEEG,001,202397,
AFSA25.JPG,AFNE24.JPG,AFSA24.JPG,AFNE21.JPG,AFSA21.JPG,AFNE25.JPG,,,,,,,,,0,9,9,2,,,,,,,,,,,,,,,AMSA09.jpg,AMNE16.jpg,AMNE14.jpg,AMSA03.jpg,AMNE16.jpg,MN,1,num_6,32,num_4,0.700153762358,,,2017_Nov_30_1631,60.0072752564,MAFE4ImagesEEG,001,202397,
AFNE22.JPG,AFSA24.JPG,AFSA22.JPG,AFNE25.JPG,AFNE24.JPG,AFSA25.JPG,,,,,,,,,,,,,0,0,0,6,,,,,,,,,,,AFNE06.jpg,AFSA10.jpg,AFSA19.jpg,AFNE18.jpg,AFSA10.jpg,FS,4,num_6,32,num_8,0.683471796452,,,2017_Nov_30_1631,60.0072752564,MAFE4ImagesEEG,001,202397,
AFSA21.JPG,AFNE23.JPG,AFNE21.JPG,AFSA25.JPG,AFNE25.JPG,AFSA23.JPG,,,,,,,,,,,,,0,1,1,4,,,,,,,,,,,AFNE13.jpg,AFSA06.jpg,AFNE04.jpg,AFSA16.jpg,AFSA06.jpg,FS,4,num_6,16,num_6,0.583486165619,,,2017_Nov_30_1631,60.0072752564,MAFE4ImagesEEG,001,202397,
AFSA25.JPG,AFNE24.JPG,AFSA24.JPG,AFNE21.JPG,AFSA21.JPG,AFNE25.JPG,,,,,,,,,,,,,0,2,2,2,,,,,,,,,,,AFSA09.jpg,AFNE15.jpg,AFSA10.jpg,AFNE13.jpg,AFNE13.jpg,FN,3,num_4,32,num_8,0.733496525441,,,2017_Nov_30_1631,60.0072752564,MAFE4ImagesEEG,001,202397,
AFNE23.JPG,AFNE24.JPG,AFNE22.JPG,AFSA24.JPG,AFSA22.JPG,AFSA23.JPG,,,,,,,,,,,,,0,3,3,8,,,,,,,,,,,AFSA05.jpg,AFNE14.jpg,AFSA17.jpg,AFNE15.jpg,AFSA05.jpg,FS,4,num_8,16,num_8,0.800363269169,,,2017_Nov_30_1631,60.0072752564,MAFE4ImagesEEG,001,202397,
AMNE23.JPG,AMNE24.JPG,AMNE22.JPG,AMSA24.JPG,AMSA22.JPG,AMSA23.JPG,,,,,,,,,,,,,0,4,4,9,,,,,,,,,,,AFNE04.jpg,AFNE01.jpg,AFSA09.jpg,AFSA06.jpg,AFNE01.jpg,FN,3,num_6,32,num_4,0.550154628349,,,2017_Nov_30_1631,60.0072752564,MAFE4ImagesEEG,001,202397,
AMNE22.JPG,AMSA24.JPG,AMSA22.JPG,AMNE25.JPG,AMNE24.JPG,AMSA25.JPG,,,,,,,,,,,,,0,5,5,7,,,,,,,,,,,AFSA04.jpg,AFSA07.jpg,AFNE06.jpg,AFNE09.jpg,AFNE09.jpg,FN,3,num_4,32,num_6,0.516810261644,,,2017_Nov_30_1631,60.0072752564,MAFE4ImagesEEG,001,202397,
AMSA21.JPG,AMNE23.JPG,AMNE21.JPG,AMSA25.JPG,AMNE25.JPG,AMSA23.JPG,,,,,,,,,,,,,0,6,6,5,,,,,,,,,,,AFSA20.jpg,AFNE17.jpg,AFSA05.jpg,AFNE18.jpg,AFSA20.jpg,FS,4,num_8,32,num_2,0.683491040836,,,2017_Nov_30_1631,60.0072752564,MAFE4ImagesEEG,001,202397,
AMSA25.JPG,AMNE24.JPG,AMSA24.JPG,AMNE26.JPG,AMSA21.JPG,AMNE25.JPG,,,,,,,,,,,,,0,7,7,3,,,,,,,,,,,AFNE02.jpg,AFSA17.jpg,AFNE01.jpg,AFSA19.jpg,AFNE02.jpg,FN,3,num_8,32,num_4,0.350037430297,,,2017_Nov_30_1631,60.0072752564,MAFE4ImagesEEG,001,202397,
AFSA21.JPG,AFNE22.JPG,AFNE21.JPG,AFSA23.JPG,AFSA22.JPG,AFNE23.JPG,,,,,,,,,,,,,0,8,8,0,,,,,,,,,,,AFSA16.jpg,AFNE16.jpg,AFSA11.jpg,AFNE02.jpg,AFNE02.jpg,FN,3,num_4,32,num_8,0.583520484623,,,2017_Nov_30_1631,60.0072752564,MAFE4ImagesEEG,001,202397,
AMSA21.JPG,AMNE22.JPG,AMNE21.JPG,AMSA23.JPG,AMSA22.JPG,AMNE23.JPG,,,,,,,,,,,,,0,9,9,1,,,,,,,,,,,AFNE03.jpg,AFNE20.jpg,AFSA20.jpg,AFSA03.jpg,AFNE20.jpg,FN,3,num_6,16,num_6,0.600109756924,,,2017_Nov_30_1631,60.0072752564,MAFE4ImagesEEG,001,202397,
AFSA25.JPG,AFNE24.JPG,AFSA24.JPG,AFNE21.JPG,AFSA21.JPG,AFNE25.JPG,,,,,,,,,,,,,,,,,0,0,0,2,,,,,,,AMSA04.jpg,AMNE18.jpg,AMSA17.jpg,AMNE08.jpg,AMSA17.jpg,MS,2,num_2,32,num_8,0.783502972336,,,2017_Nov_30_1631,60.0072752564,MAFE4ImagesEEG,001,202397,
AFSA21.JPG,AFNE22.JPG,AFNE21.JPG,AFSA23.JPG,AFSA22.JPG,AFNE23.JPG,,,,,,,,,,,,,,,,,0,1,1,0,,,,,,,AMSA05.jpg,AMNE10.jpg,AMSA19.jpg,AMNE06.jpg,AMNE06.jpg,MN,1,num_4,32,num_6,0.400205850485,,,2017_Nov_30_1631,60.0072752564,MAFE4ImagesEEG,001,202397,
AFNE22.JPG,AFSA24.JPG,AFSA22.JPG,AFNE25.JPG,AFNE24.JPG,AFSA25.JPG,,,,,,,,,,,,,,,,,0,2,2,6,,,,,,,AMSA15.jpg,AMSA02.jpg,AMNE13.jpg,AMNE17.jpg,AMSA15.jpg,MS,2,num_8,32,num_4,0.733486903249,,,2017_Nov_30_1631,60.0072752564,MAFE4ImagesEEG,001,202397,
AFSA21.JPG,AFNE23.JPG,AFNE21.JPG,AFSA25.JPG,AFNE25.JPG,AFSA23.JPG,,,,,,,,,,,,,,,,,0,3,3,4,,,,,,,AMSA07.jpg,AMNE02.jpg,AMSA05.jpg,AMNE13.jpg,AMSA07.jpg,MS,2,num_8,32,num_6,0.549999390612,,,2017_Nov_30_1631,60.0072752564,MAFE4ImagesEEG,001,202397,
AMSA21.JPG,AMNE23.JPG,AMNE21.JPG,AMSA25.JPG,AMNE25.JPG,AMSA23.JPG,,,,,,,,,,,,,,,,,0,4,4,5,,,,,,,AMSA07.jpg,AMSA05.jpg,AMNE06.jpg,AMNE04.jpg,AMNE04.jpg,MN,1,num_4,32,num_6,0.366775525501,,,2017_Nov_30_1631,60.0072752564,MAFE4ImagesEEG,001,202397,
AMNE23.JPG,AMNE24.JPG,AMNE22.JPG,AMSA24.JPG,AMSA22.JPG,AMSA23.JPG,,,,,,,,,,,,,,,,,0,5,5,9,,,,,,,AMNE20.jpg,AMNE08.jpg,AMSA16.jpg,AMSA13.jpg,AMNE20.jpg,MN,1,num_8,16,num_8,0.483511119033,,,2017_Nov_30_1631,60.0072752564,MAFE4ImagesEEG,001,202397,
AMNE22.JPG,AMSA24.JPG,AMSA22.JPG,AMNE25.JPG,AMNE24.JPG,AMSA25.JPG,,,,,,,,,,,,,,,,,0,6,6,7,,,,,,,AMSA20.jpg,AMSA02.jpg,AMNE10.jpg,AMNE17.jpg,AMNE17.jpg,MN,1,num_4,16,num_4,0.366833258537,,,2017_Nov_30_1631,60.0072752564,MAFE4ImagesEEG,001,202397,
AMSA25.JPG,AMNE24.JPG,AMSA24.JPG,AMNE26.JPG,AMSA21.JPG,AMNE25.JPG,,,,,,,,,,,,,,,,,0,7,7,3,,,,,,,AMNE01.jpg,AMSA13.jpg,AMNE12.jpg,AMSA10.jpg,AMSA13.jpg,MS,2,num_6,32,num_8,0.566788162687,,,2017_Nov_30_1631,60.0072752564,MAFE4ImagesEEG,001,202397,
AMSA21.JPG,AMNE22.JPG,AMNE21.JPG,AMSA23.JPG,AMSA22.JPG,AMNE23.JPG,,,,,,,,,,,,,,,,,0,8,8,1,,,,,,,AMNE09.jpg,AMNE01.jpg,AMSA19.jpg,AMSA18.jpg,AMSA18.jpg,MS,2,num_4,32,num_6,0.433509804076,,,2017_Nov_30_1631,60.0072752564,MAFE4ImagesEEG,001,202397,
AFNE23.JPG,AFNE24.JPG,AFNE22.JPG,AFSA24.JPG,AFSA22.JPG,AFSA23.JPG,,,,,,,,,,,,,,,,,0,9,9,8,,,,,,,AMSA09.jpg,AMNE08.jpg,AMSA13.jpg,AMNE17.jpg,AMNE08.jpg,MN,1,num_6,32,num_8,0.266824534396,,,2017_Nov_30_1631,60.0072752564,MAFE4ImagesEEG,001,202397,
AMNE23.JPG,AMNE24.JPG,AMNE22.JPG,AMSA24.JPG,AMSA22.JPG,AMSA23.JPG,,,,,,,,,,,,,,,,,,,,,0,0,0,9,,,AFSA13.jpg,AFNE07.jpg,AFNE06.jpg,AFSA07.jpg,AFNE06.jpg,FN,3,num_2,32,num_4,0.766750764451,,,2017_Nov_30_1631,60.0072752564,MAFE4ImagesEEG,001,202397,
AFSA25.JPG,AFNE24.JPG,AFSA24.JPG,AFNE21.JPG,AFSA21.JPG,AFNE25.JPG,,,,,,,,,,,,,,,,,,,,,0,1,1,2,,,AFSA10.jpg,AFSA08.jpg,AFNE04.jpg,AFNE09.jpg,AFNE09.jpg,FN,3,num_4,32,num_6,0.350128199439,,,2017_Nov_30_1631,60.0072752564,MAFE4ImagesEEG,001,202397,
AMSA21.JPG,AMNE22.JPG,AMNE21.JPG,AMSA23.JPG,AMSA22.JPG,AMNE23.JPG,,,,,,,,,,,,,,,,,,,,,0,2,2,1,,,AFNE17.jpg,AFSA12.jpg,AFNE07.jpg,AFSA08.jpg,AFNE07.jpg,FN,3,num_2,16,num_2,0.666765775066,,,2017_Nov_30_1631,60.0072752564,MAFE4ImagesEEG,001,202397,
AFSA21.JPG,AFNE23.JPG,AFNE21.JPG,AFSA25.JPG,AFNE25.JPG,AFSA23.JPG,,,,,,,,,,,,,,,,,,,,,0,3,3,4,,,AFSA20.jpg,AFNE03.jpg,AFNE04.jpg,AFSA05.jpg,AFSA05.jpg,FS,4,num_4,16,num_4,0.716809106874,,,2017_Nov_30_1631,60.0072752564,MAFE4ImagesEEG,001,202397,
AFSA21.JPG,AFNE22.JPG,AFNE21.JPG,AFSA23.JPG,AFSA22.JPG,AFNE23.JPG,,,,,,,,,,,,,,,,,,,,,0,4,4,0,,,AFSA15.jpg,AFSA10.jpg,AFNE04.jpg,AFNE12.jpg,AFNE04.jpg,FN,3,num_2,32,num_8,0.683449344593,,,2017_Nov_30_1631,60.0072752564,MAFE4ImagesEEG,001,202397,
AFNE23.JPG,AFNE24.JPG,AFNE22.JPG,AFSA24.JPG,AFSA22.JPG,AFSA23.JPG,,,,,,,,,,,,,,,,,,,,,0,5,5,8,,,AFSA13.jpg,AFSA09.jpg,AFNE13.jpg,AFNE05.jpg,AFSA13.jpg,FS,4,num_8,32,num_6,0.633468236192,,,2017_Nov_30_1631,60.0072752564,MAFE4ImagesEEG,001,202397,
AFNE22.JPG,AFSA24.JPG,AFSA22.JPG,AFNE25.JPG,AFNE24.JPG,AFSA25.JPG,,,,,,,,,,,,,,,,,,,,,0,6,6,6,,,AFNE14.jpg,AFSA05.jpg,AFSA02.jpg,AFNE11.jpg,AFNE11.jpg,FN,3,num_4,32,num_2,0.500151709653,,,2017_Nov_30_1631,60.0072752564,MAFE4ImagesEEG,001,202397,
AMSA25.JPG,AMNE24.JPG,AMSA24.JPG,AMNE26.JPG,AMSA21.JPG,AMNE25.JPG,,,,,,,,,,,,,,,,,,,,,0,7,7,3,,,AFNE15.jpg,AFSA15.jpg,AFNE19.jpg,AFSA18.jpg,AFNE15.jpg,FN,3,num_8,16,num_8,0.633488122025,,,2017_Nov_30_1631,60.0072752564,MAFE4ImagesEEG,001,202397,
AMSA21.JPG,AMNE23.JPG,AMNE21.JPG,AMSA25.JPG,AMNE25.JPG,AMSA23.JPG,,,,,,,,,,,,,,,,,,,,,0,8,8,5,,,AFSA19.jpg,AFNE10.jpg,AFSA15.jpg,AFNE17.jpg,AFNE10.jpg,FN,3,num_6,32,num_4,0.533474586904,,,2017_Nov_30_1631,60.0072752564,MAFE4ImagesEEG,001,202397,
AMNE22.JPG,AMSA24.JPG,AMSA22.JPG,AMNE25.JPG,AMNE24.JPG,AMSA25.JPG,,,,,,,,,,,,,,,,,,,,,0,9,9,7,,,AFNE04.jpg,AFSA14.jpg,AFSA12.jpg,AFNE06.jpg,AFNE04.jpg,FN,3,num_8,32,num_6,0.583499957342,,,2017_Nov_30_1631,60.0072752564,MAFE4ImagesEEG,001,202397,
,,,,,,,,,,,,,,,,,,,,,,,,,,,,,,,,,,,,,,,,,,,space,3.98319102137,2017_Nov_30_1631,60.0072752564,MAFE4ImagesEEG,001,202397,
AFNE01.JPG,AFNE01.JPG,AFNE01.JPG,AFNE01.JPG,AFNE01.JPG,AFNE01.JPG,0,0,0,7,,,,,,,,,,,,,,,,,,,,,,,AMSA09.jpg,AMNE18.jpg,AMSA03.jpg,AMNE03.jpg,AMSA03.jpg,MS,2,num_2,32,num_6,0.18348622974,,,2017_Nov_30_1631,60.0072752564,MAFE4ImagesEEG,001,202397,
AFNE01.JPG,AFNE01.JPG,AFNE01.JPG,AFNE01.JPG,AFNE01.JPG,AFNE01.JPG,0,1,1,8,,,,,,,,,,,,,,,,,,,,,,,AMNE09.jpg,AMSA18.jpg,AMNE17.jpg,AMSA08.jpg,AMSA08.jpg,MS,2,num_4,16,num_4,0.633519554511,,,2017_Nov_30_1631,60.0072752564,MAFE4ImagesEEG,001,202397,
AFNE01.JPG,AFNE01.JPG,AFNE01.JPG,AFNE01.JPG,AFNE01.JPG,AFNE01.JPG,0,2,2,2,,,,,,,,,,,,,,,,,,,,,,,AMSA10.jpg,AMNE14.jpg,AMNE19.jpg,AMSA17.jpg,AMNE19.jpg,MN,1,num_2,16,num_2,0.550131855882,,,2017_Nov_30_1631,60.0072752564,MAFE4ImagesEEG,001,202397,
AFNE01.JPG,AFNE01.JPG,AFNE01.JPG,AFNE01.JPG,AFNE01.JPG,AFNE01.JPG,0,3,3,4,,,,,,,,,,,,,,,,,,,,,,,AMSA11.jpg,AMNE08.jpg,AMNE12.jpg,AMSA07.jpg,AMSA11.jpg,MS,2,num_8,16,num_8,0.650107223075,,,2017_Nov_30_1631,60.0072752564,MAFE4ImagesEEG,001,202397,
AFNE01.JPG,AFNE01.JPG,AFNE01.JPG,AFNE01.JPG,AFNE01.JPG,AFNE01.JPG,0,4,4,5,,,,,,,,,,,,,,,,,,,,,,,AMSA15.jpg,AMNE19.jpg,AMNE06.jpg,AMSA05.jpg,AMSA15.jpg,MS,2,num_8,16,num_8,0.583469807869,,,2017_Nov_30_1631,60.0072752564,MAFE4ImagesEEG,001,202397,
AFNE01.JPG,AFNE01.JPG,AFNE01.JPG,AFNE01.JPG,AFNE01.JPG,AFNE01.JPG,0,5,5,0,,,,,,,,,,,,,,,,,,,,,,,AMSA01.jpg,AMNE15.jpg,AMSA10.jpg,AMNE14.jpg,AMNE14.jpg,MN,1,num_4,16,num_4,0.516776263248,,,2017_Nov_30_1631,60.0072752564,MAFE4ImagesEEG,001,202397,
AFNE01.JPG,AFNE01.JPG,AFNE01.JPG,AFNE01.JPG,AFNE01.JPG,AFNE01.JPG,0,6,6,9,,,,,,,,,,,,,,,,,,,,,,,AMSA16.jpg,AMSA07.jpg,AMNE08.jpg,AMNE04.jpg,AMSA07.jpg,MS,2,num_6,32,num_8,0.733476960333,,,2017_Nov_30_1631,60.0072752564,MAFE4ImagesEEG,001,202397,
AFNE01.JPG,AFNE01.JPG,AFNE01.JPG,AFNE01.JPG,AFNE01.JPG,AFNE01.JPG,0,7,7,3,,,,,,,,,,,,,,,,,,,,,,,AMNE20.jpg,AMSA17.jpg,AMSA09.jpg,AMNE14.jpg,AMSA09.jpg,MS,2,num_2,32,num_6,0.583700740011,,,2017_Nov_30_1631,60.0072752564,MAFE4ImagesEEG,001,202397,
AFNE01.JPG,AFNE01.JPG,AFNE01.JPG,AFNE01.JPG,AFNE01.JPG,AFNE01.JPG,0,8,8,1,,,,,,,,,,,,,,,,,,,,,,,AMNE14.jpg,AMSA02.jpg,AMSA19.jpg,AMNE09.jpg,AMSA02.jpg,MS,2,num_6,32,num_4,0.550154949073,,,2017_Nov_30_1631,60.0072752564,MAFE4ImagesEEG,001,202397,
AFNE01.JPG,AFNE01.JPG,AFNE01.JPG,AFNE01.JPG,AFNE01.JPG,AFNE01.JPG,0,9,9,6,,,,,,,,,,,,,,,,,,,,,,,AMSA10.jpg,AMSA12.jpg,AMNE06.jpg,AMNE05.jpg,AMNE06.jpg,MN,1,num_2,32,num_8,0.500173199107,,,2017_Nov_30_1631,60.0072752564,MAFE4ImagesEEG,001,202397,
AFNE01.JPG,AFNE01.JPG,AFNE01.JPG,AFNE01.JPG,AFNE01.JPG,AFNE01.JPG,1,0,10,7,,,,,,,,,,,,,,,,,,,,,,,AMSA19.jpg,AMNE09.jpg,AMNE20.jpg,AMSA10.jpg,AMNE09.jpg,MN,1,num_6,32,num_4,1.0002581951,,,2017_Nov_30_1631,60.0072752564,MAFE4ImagesEEG,001,202397,
AFNE01.JPG,AFNE01.JPG,AFNE01.JPG,AFNE01.JPG,AFNE01.JPG,AFNE01.JPG,1,1,11,3,,,,,,,,,,,,,,,,,,,,,,,AMNE17.jpg,AMSA10.jpg,AMNE05.jpg,AMSA06.jpg,AMSA06.jpg,MS,2,num_4,32,num_6,0.866762696067,,,2017_Nov_30_1631,60.0072752564,MAFE4ImagesEEG,001,202397,
AFNE01.JPG,AFNE01.JPG,AFNE01.JPG,AFNE01.JPG,AFNE01.JPG,AFNE01.JPG,1,2,12,6,,,,,,,,,,,,,,,,,,,,,,,AMNE20.jpg,AMSA10.jpg,AMSA12.jpg,AMNE12.jpg,AMNE20.jpg,MN,1,num_8,32,num_4,0.700128423981,,,2017_Nov_30_1631,60.0072752564,MAFE4ImagesEEG,001,202397,
AFNE01.JPG,AFNE01.JPG,AFNE01.JPG,AFNE01.JPG,AFNE01.JPG,AFNE01.JPG,1,3,13,0,,,,,,,,,,,,,,,,,,,,,,,AMNE04.jpg,AMSA08.jpg,AMNE20.jpg,AMSA04.jpg,AMSA04.jpg,MS,2,num_4,16,num_4,0.483559550717,,,2017_Nov_30_1631,60.0072752564,MAFE4ImagesEEG,001,202397,
AFNE01.JPG,AFNE01.JPG,AFNE01.JPG,AFNE01.JPG,AFNE01.JPG,AFNE01.JPG,1,4,14,5,,,,,,,,,,,,,,,,,,,,,,,AMSA16.jpg,AMSA11.jpg,AMNE07.jpg,AMNE08.jpg,AMSA11.jpg,MS,2,num_6,16,num_6,0.633509290754,,,2017_Nov_30_1631,60.0072752564,MAFE4ImagesEEG,001,202397,
AFNE01.JPG,AFNE01.JPG,AFNE01.JPG,AFNE01.JPG,AFNE01.JPG,AFNE01.JPG,1,5,15,8,,,,,,,,,,,,,,,,,,,,,,,AMNE13.jpg,AMSA20.jpg,AMSA05.jpg,AMNE03.jpg,AMSA05.jpg,MS,2,num_2,32,num_8,0.78346544574,,,2017_Nov_30_1631,60.0072752564,MAFE4ImagesEEG,001,202397,
AFNE01.JPG,AFNE01.JPG,AFNE01.JPG,AFNE01.JPG,AFNE01.JPG,AFNE01.JPG,1,6,16,9,,,,,,,,,,,,,,,,,,,,,,,AMSA20.jpg,AMNE11.jpg,AMSA18.jpg,AMNE15.jpg,AMNE15.jpg,MN,1,num_4,16,num_4,0.633508649305,,,2017_Nov_30_1631,60.0072752564,MAFE4ImagesEEG,001,202397,
AFNE01.JPG,AFNE01.JPG,AFNE01.JPG,AFNE01.JPG,AFNE01.JPG,AFNE01.JPG,1,7,17,2,,,,,,,,,,,,,,,,,,,,,,,AMSA08.jpg,AMSA02.jpg,AMNE17.jpg,AMNE18.jpg,AMSA08.jpg,MS,2,num_8,32,num_2,0.516803205363,,,2017_Nov_30_1631,60.0072752564,MAFE4ImagesEEG,001,202397,
AFNE01.JPG,AFNE01.JPG,AFNE01.JPG,AFNE01.JPG,AFNE01.JPG,AFNE01.JPG,1,8,18,1,,,,,,,,,,,,,,,,,,,,,,,AMSA18.jpg,AMSA13.jpg,AMNE20.jpg,AMNE18.jpg,AMNE20.jpg,MN,1,num_2,16,num_2,0.766689182492,,,2017_Nov_30_1631,60.0072752564,MAFE4ImagesEEG,001,202397,
AFNE01.JPG,AFNE01.JPG,AFNE01.JPG,AFNE01.JPG,AFNE01.JPG,AFNE01.JPG,1,9,19,4,,,,,,,,,,,,,,,,,,,,,,,AMNE05.jpg,AMNE02.jpg,AMSA08.jpg,AMSA07.jpg,AMNE02.jpg,MN,1,num_6,32,num_8,0.516819242388,,,2017_Nov_30_1631,60.0072752564,MAFE4ImagesEEG,001,202397,
AFNE01.JPG,AFNE01.JPG,AFNE01.JPG,AFNE01.JPG,AFNE01.JPG,AFNE01.JPG,2,0,20,3,,,,,,,,,,,,,,,,,,,,,,,AMNE08.jpg,AMSA04.jpg,AMNE01.jpg,AMSA18.jpg,AMNE01.jpg,MN,1,num_2,16,num_2,0.733756003436,,,2017_Nov_30_1631,60.0072752564,MAFE4ImagesEEG,001,202397,
AFNE01.JPG,AFNE01.JPG,AFNE01.JPG,AFNE01.JPG,AFNE01.JPG,AFNE01.JPG,2,1,21,6,,,,,,,,,,,,,,,,,,,,,,,AMNE08.jpg,AMNE13.jpg,AMSA05.jpg,AMSA02.jpg,AMSA02.jpg,MS,2,num_4,32,num_8,0.633435841533,,,2017_Nov_30_1631,60.0072752564,MAFE4ImagesEEG,001,202397,
AFNE01.JPG,AFNE01.JPG,AFNE01.JPG,AFNE01.JPG,AFNE01.JPG,AFNE01.JPG,2,2,22,1,,,,,,,,,,,,,,,,,,,,,,,AMSA15.jpg,AMNE16.jpg,AMNE09.jpg,AMSA03.jpg,AMSA03.jpg,MS,2,num_4,32,num_8,0.850112483255,,,2017_Nov_30_1631,60.0072752564,MAFE4ImagesEEG,001,202397,
AFNE01.JPG,AFNE01.JPG,AFNE01.JPG,AFNE01.JPG,AFNE01.JPG,AFNE01.JPG,2,3,23,8,,,,,,,,,,,,,,,,,,,,,,,AMNE02.jpg,AMSA11.jpg,AMSA12.jpg,AMNE17.jpg,AMNE02.jpg,MN,1,num_8,16,num_8,1.08345280879,,,2017_Nov_30_1631,60.0072752564,MAFE4ImagesEEG,001,202397,
AFNE01.JPG,AFNE01.JPG,AFNE01.JPG,AFNE01.JPG,AFNE01.JPG,AFNE01.JPG,2,4,24,0,,,,,,,,,,,,,,,,,,,,,,,AMNE15.jpg,AMSA08.jpg,AMNE02.jpg,AMSA03.jpg,AMNE02.jpg,MN,1,num_2,32,num_4,0.816763626062,,,2017_Nov_30_1631,60.0072752564,MAFE4ImagesEEG,001,202397,
AFNE01.JPG,AFNE01.JPG,AFNE01.JPG,AFNE01.JPG,AFNE01.JPG,AFNE01.JPG,2,5,25,2,,,,,,,,,,,,,,,,,,,,,,,AMNE04.jpg,AMNE01.jpg,AMSA10.jpg,AMSA06.jpg,AMNE01.jpg,MN,1,num_6,32,num_8,0.833488250384,,,2017_Nov_30_1631,60.0072752564,MAFE4ImagesEEG,001,202397,
AFNE01.JPG,AFNE01.JPG,AFNE01.JPG,AFNE01.JPG,AFNE01.JPG,AFNE01.JPG,2,6,26,4,,,,,,,,,,,,,,,,,,,,,,,AMNE17.jpg,AMSA10.jpg,AMSA04.jpg,AMNE13.jpg,AMSA04.jpg,MS,2,num_2,16,num_2,1.1000824942,,,2017_Nov_30_1631,60.0072752564,MAFE4ImagesEEG,001,202397,
AFNE01.JPG,AFNE01.JPG,AFNE01.JPG,AFNE01.JPG,AFNE01.JPG,AFNE01.JPG,2,7,27,7,,,,,,,,,,,,,,,,,,,,,,,AMSA16.jpg,AMSA05.jpg,AMNE02.jpg,AMNE17.jpg,AMNE02.jpg,MN,1,num_2,32,num_8,0.750143210054,,,2017_Nov_30_1631,60.0072752564,MAFE4ImagesEEG,001,202397,
AFNE01.JPG,AFNE01.JPG,AFNE01.JPG,AFNE01.JPG,AFNE01.JPG,AFNE01.JPG,2,8,28,5,,,,,,,,,,,,,,,,,,,,,,,AMSA19.jpg,AMNE06.jpg,AMSA17.jpg,AMNE08.jpg,AMNE06.jpg,MN,1,num_6,32,num_8,0.450190487085,,,2017_Nov_30_1631,60.0072752564,MAFE4ImagesEEG,001,202397,
AFNE01.JPG,AFNE01.JPG,AFNE01.JPG,AFNE01.JPG,AFNE01.JPG,AFNE01.JPG,2,9,29,9,,,,,,,,,,,,,,,,,,,,,,,AMNE15.jpg,AMNE08.jpg,AMSA09.jpg,AMSA16.jpg,AMSA16.jpg,MS,2,num_4,32,num_2,0.850129803177,,,2017_Nov_30_1631,60.0072752564,MAFE4ImagesEEG,001,202397,
AFNE01.JPG,AFNE01.JPG,AFNE01.JPG,AFNE01.JPG,AFNE01.JPG,AFNE01.JPG,3,0,30,5,,,,,,,,,,,,,,,,,,,,,,,AMNE05.jpg,AMSA20.jpg,AMNE18.jpg,AMSA11.jpg,AMNE05.jpg,MN,1,num_8,16,num_8,0.766803686391,,,2017_Nov_30_1631,60.0072752564,MAFE4ImagesEEG,001,202397,
AFNE01.JPG,AFNE01.JPG,AFNE01.JPG,AFNE01.JPG,AFNE01.JPG,AFNE01.JPG,3,1,31,8,,,,,,,,,,,,,,,,,,,,,,,AMSA19.jpg,AMNE02.jpg,AMSA03.jpg,AMNE03.jpg,AMSA19.jpg,MS,2,num_8,32,num_2,0.733472149237,,,2017_Nov_30_1631,60.0072752564,MAFE4ImagesEEG,001,202397,
AFNE01.JPG,AFNE01.JPG,AFNE01.JPG,AFNE01.JPG,AFNE01.JPG,AFNE01.JPG,3,2,32,3,,,,,,,,,,,,,,,,,,,,,,,AMNE16.jpg,AMSA02.jpg,AMSA12.jpg,AMNE19.jpg,AMSA12.jpg,MS,2,num_2,16,num_2,0.666798169725,,,2017_Nov_30_1631,60.0072752564,MAFE4ImagesEEG,001,202397,
AFNE01.JPG,AFNE01.JPG,AFNE01.JPG,AFNE01.JPG,AFNE01.JPG,AFNE01.JPG,3,3,33,6,,,,,,,,,,,,,,,,,,,,,,,AMSA20.jpg,AMSA03.jpg,AMNE05.jpg,AMNE19.jpg,AMSA03.jpg,MS,2,num_6,32,num_4,0.900107704219,,,2017_Nov_30_1631,60.0072752564,MAFE4ImagesEEG,001,202397,
AFNE01.JPG,AFNE01.JPG,AFNE01.JPG,AFNE01.JPG,AFNE01.JPG,AFNE01.JPG,3,4,34,2,,,,,,,,,,,,,,,,,,,,,,,AMNE06.jpg,AMNE08.jpg,AMSA06.jpg,AMSA02.jpg,AMSA06.jpg,MS,2,num_2,32,num_8,0.750174642541,,,2017_Nov_30_1631,60.0072752564,MAFE4ImagesEEG,001,202397,
AFNE01.JPG,AFNE01.JPG,AFNE01.JPG,AFNE01.JPG,AFNE01.JPG,AFNE01.JPG,3,5,35,7,,,,,,,,,,,,,,,,,,,,,,,AMNE08.jpg,AMSA14.jpg,AMNE03.jpg,AMSA20.jpg,AMNE03.jpg,MN,1,num_2,32,num_4,0.66678501945,,,2017_Nov_30_1631,60.0072752564,MAFE4ImagesEEG,001,202397,
AFNE01.JPG,AFNE01.JPG,AFNE01.JPG,AFNE01.JPG,AFNE01.JPG,AFNE01.JPG,3,6,36,0,,,,,,,,,,,,,,,,,,,,,,,AMSA14.jpg,AMSA20.jpg,AMNE12.jpg,AMNE15.jpg,AMSA20.jpg,MS,2,num_6,32,num_8,0.866762054502,,,2017_Nov_30_1631,60.0072752564,MAFE4ImagesEEG,001,202397,
AFNE01.JPG,AFNE01.JPG,AFNE01.JPG,AFNE01.JPG,AFNE01.JPG,AFNE01.JPG,3,7,37,9,,,,,,,,,,,,,,,,,,,,,,,AMNE05.jpg,AMSA17.jpg,AMSA11.jpg,AMNE18.jpg,AMNE18.jpg,MN,1,num_4,32,num_2,0.850152896368,,,2017_Nov_30_1631,60.0072752564,MAFE4ImagesEEG,001,202397,
AFNE01.JPG,AFNE01.JPG,AFNE01.JPG,AFNE01.JPG,AFNE01.JPG,AFNE01.JPG,3,8,38,1,,,,,,,,,,,,,,,,,,,,,,,AMSA07.jpg,AMNE09.jpg,AMSA03.jpg,AMNE10.jpg,AMSA07.jpg,MS,2,num_8,32,num_4,0.933452391648,,,2017_Nov_30_1631,60.0072752564,MAFE4ImagesEEG,001,202397,
AFNE01.JPG,AFNE01.JPG,AFNE01.JPG,AFNE01.JPG,AFNE01.JPG,AFNE01.JPG,3,9,39,4,,,,,,,,,,,,,,,,,,,,,,,AMNE02.jpg,AMSA07.jpg,AMSA04.jpg,AMNE19.jpg,AMNE19.jpg,MN,1,num_4,32,num_6,0.266770008835,,,2017_Nov_30_1631,60.0072752564,MAFE4ImagesEEG,001,202397,
AFNE01.JPG,AFNE01.JPG,AFNE01.JPG,AFNE01.JPG,AFNE01.JPG,AFNE01.JPG,4,0,40,7,,,,,,,,,,,,,,,,,,,,,,,AMNE03.jpg,AMNE09.jpg,AMSA01.jpg,AMSA08.jpg,AMNE03.jpg,MN,1,num_8,16,num_8,0.583451846382,,,2017_Nov_30_1631,60.0072752564,MAFE4ImagesEEG,001,202397,
AFNE01.JPG,AFNE01.JPG,AFNE01.JPG,AFNE01.JPG,AFNE01.JPG,AFNE01.JPG,4,1,41,2,,,,,,,,,,,,,,,,,,,,,,,AMSA04.jpg,AMSA03.jpg,AMNE19.jpg,AMNE08.jpg,AMNE08.jpg,MN,1,num_4,16,num_4,0.65013705194,,,2017_Nov_30_1631,60.0072752564,MAFE4ImagesEEG,001,202397,
AFNE01.JPG,AFNE01.JPG,AFNE01.JPG,AFNE01.JPG,AFNE01.JPG,AFNE01.JPG,4,2,42,4,,,,,,,,,,,,,,,,,,,,,,,AMSA14.jpg,AMNE10.jpg,AMNE02.jpg,AMSA13.jpg,AMNE02.jpg,MN,1,num_2,32,num_8,0.600147283403,,,2017_Nov_30_1631,60.0072752564,MAFE4ImagesEEG,001,202397,
AFNE01.JPG,AFNE01.JPG,AFNE01.JPG,AFNE01.JPG,AFNE01.JPG,AFNE01.JPG,4,3,43,9,,,,,,,,,,,,,,,,,,,,,,,AMSA07.jpg,AMNE19.jpg,AMSA10.jpg,AMNE09.jpg,AMSA07.jpg,MS,2,num_8,32,num_2,0.466831077589,,,2017_Nov_30_1631,60.0072752564,MAFE4ImagesEEG,001,202397,
AFNE01.JPG,AFNE01.JPG,AFNE01.JPG,AFNE01.JPG,AFNE01.JPG,AFNE01.JPG,4,4,44,1,,,,,,,,,,,,,,,,,,,,,,,AMNE19.jpg,AMSA06.jpg,AMSA10.jpg,AMNE18.jpg,AMNE18.jpg,MN,1,num_4,32,num_6,0.383549543563,,,2017_Nov_30_1631,60.0072752564,MAFE4ImagesEEG,001,202397,
AFNE01.JPG,AFNE01.JPG,AFNE01.JPG,AFNE01.JPG,AFNE01.JPG,AFNE01.JPG,4,5,45,8,,,,,,,,,,,,,,,,,,,,,,,AMNE19.jpg,AMSA12.jpg,AMNE05.jpg,AMSA10.jpg,AMNE05.jpg,MN,1,num_2,32,num_4,0.283544347622,,,2017_Nov_30_1631,60.0072752564,MAFE4ImagesEEG,001,202397,
AFNE01.JPG,AFNE01.JPG,AFNE01.JPG,AFNE01.JPG,AFNE01.JPG,AFNE01.JPG,4,6,46,3,,,,,,,,,,,,,,,,,,,,,,,AMSA07.jpg,AMSA03.jpg,AMNE09.jpg,AMNE07.jpg,AMNE07.jpg,MN,1,num_4,32,num_8,0.316797945299,,,2017_Nov_30_1631,60.0072752564,MAFE4ImagesEEG,001,202397,
AFNE01.JPG,AFNE01.JPG,AFNE01.JPG,AFNE01.JPG,AFNE01.JPG,AFNE01.JPG,4,7,47,6,,,,,,,,,,,,,,,,,,,,,,,AMSA06.jpg,AMSA08.jpg,AMNE10.jpg,AMNE18.jpg,AMSA08.jpg,MS,2,num_6,32,num_2,0.316793775535,,,2017_Nov_30_1631,60.0072752564,MAFE4ImagesEEG,001,202397,
AFNE01.JPG,AFNE01.JPG,AFNE01.JPG,AFNE01.JPG,AFNE01.JPG,AFNE01.JPG,4,8,48,5,,,,,,,,,,,,,,,,,,,,,,,AMNE16.jpg,AMSA13.jpg,AMNE04.jpg,AMSA08.jpg,AMSA13.jpg,MS,2,num_6,32,num_4,0.833442705451,,,2017_Nov_30_1631,60.0072752564,MAFE4ImagesEEG,001,202397,
AFNE01.JPG,AFNE01.JPG,AFNE01.JPG,AFNE01.JPG,AFNE01.JPG,AFNE01.JPG,4,9,49,0,,,,,,,,,,,,,,,,,,,,,,,AMNE06.jpg,AMNE20.jpg,AMSA03.jpg,AMSA11.jpg,AMNE06.jpg,MN,1,num_8,16,num_8,0.616825400502,,,2017_Nov_30_1631,60.0072752564,MAFE4ImagesEEG,001,202397,
AFNE01.JPG,AFNE01.JPG,AFNE01.JPG,AFNE01.JPG,AFNE01.JPG,AFNE01.JPG,5,0,50,7,,,,,,,,,,,,,,,,,,,,,,,AMNE11.jpg,AMSA06.jpg,AMSA12.jpg,AMNE19.jpg,AMSA12.jpg,MS,2,num_2,32,num_6,0.550123195862,,,2017_Nov_30_1631,60.0072752564,MAFE4ImagesEEG,001,202397,
AFNE01.JPG,AFNE01.JPG,AFNE01.JPG,AFNE01.JPG,AFNE01.JPG,AFNE01.JPG,5,1,51,0,,,,,,,,,,,,,,,,,,,,,,,AMSA09.jpg,AMNE03.jpg,AMSA04.jpg,AMNE06.jpg,AMSA09.jpg,MS,2,num_8,16,num_8,0.500168388011,,,2017_Nov_30_1631,60.0072752564,MAFE4ImagesEEG,001,202397,
AFNE01.JPG,AFNE01.JPG,AFNE01.JPG,AFNE01.JPG,AFNE01.JPG,AFNE01.JPG,5,2,52,1,,,,,,,,,,,,,,,,,,,,,,,AMSA11.jpg,AMNE03.jpg,AMSA10.jpg,AMNE13.jpg,AMSA10.jpg,MS,2,num_2,16,num_2,0.416802499676,,,2017_Nov_30_1631,60.0072752564,MAFE4ImagesEEG,001,202397,
AFNE01.JPG,AFNE01.JPG,AFNE01.JPG,AFNE01.JPG,AFNE01.JPG,AFNE01.JPG,5,3,53,9,,,,,,,,,,,,,,,,,,,,,,,AMSA15.jpg,AMNE07.jpg,AMNE20.jpg,AMSA12.jpg,AMSA12.jpg,MS,2,num_4,32,num_6,0.649865706451,,,2017_Nov_30_1631,60.0072752564,MAFE4ImagesEEG,001,202397,
AFNE01.JPG,AFNE01.JPG,AFNE01.JPG,AFNE01.JPG,AFNE01.JPG,AFNE01.JPG,5,4,54,5,,,,,,,,,,,,,,,,,,,,,,,AMNE15.jpg,AMSA19.jpg,AMSA03.jpg,AMNE16.jpg,AMNE15.jpg,MN,1,num_8,16,num_8,1.45008111489,,,2017_Nov_30_1631,60.0072752564,MAFE4ImagesEEG,001,202397,
AFNE01.JPG,AFNE01.JPG,AFNE01.JPG,AFNE01.JPG,AFNE01.JPG,AFNE01.JPG,5,5,55,8,,,,,,,,,,,,,,,,,,,,,,,AMNE10.jpg,AMSA13.jpg,AMNE03.jpg,AMSA03.jpg,AMNE03.jpg,MN,1,num_2,32,num_4,0.716840860085,,,2017_Nov_30_1631,60.0072752564,MAFE4ImagesEEG,001,202397,
AFNE01.JPG,AFNE01.JPG,AFNE01.JPG,AFNE01.JPG,AFNE01.JPG,AFNE01.JPG,5,6,56,3,,,,,,,,,,,,,,,,,,,,,,,AMSA05.jpg,AMSA04.jpg,AMNE16.jpg,AMNE14.jpg,AMNE14.jpg,MN,1,num_4,16,num_4,0.600157867884,,,2017_Nov_30_1631,60.0072752564,MAFE4ImagesEEG,001,202397,
AFNE01.JPG,AFNE01.JPG,AFNE01.JPG,AFNE01.JPG,AFNE01.JPG,AFNE01.JPG,5,7,57,6,,,,,,,,,,,,,,,,,,,,,,,AMSA11.jpg,AMSA09.jpg,AMNE12.jpg,AMNE04.jpg,AMNE12.jpg,MN,1,num_2,32,num_6,0.55021204066,,,2017_Nov_30_1631,60.0072752564,MAFE4ImagesEEG,001,202397,
AFNE01.JPG,AFNE01.JPG,AFNE01.JPG,AFNE01.JPG,AFNE01.JPG,AFNE01.JPG,5,8,58,4,,,,,,,,,,,,,,,,,,,,,,,AMSA10.jpg,AMNE13.jpg,AMNE14.jpg,AMSA06.jpg,AMNE13.jpg,MN,1,num_6,32,num_2,0.433482861845,,,2017_Nov_30_1631,60.0072752564,MAFE4ImagesEEG,001,202397,
AFNE01.JPG,AFNE01.JPG,AFNE01.JPG,AFNE01.JPG,AFNE01.JPG,AFNE01.JPG,5,9,59,2,,,,,,,,,,,,,,,,,,,,,,,AMNE08.jpg,AMNE01.jpg,AMSA01.jpg,AMSA14.jpg,AMNE01.jpg,MN,1,num_6,16,num_6,0.733521543094,,,2017_Nov_30_1631,60.0072752564,MAFE4ImagesEEG,001,202397,
,,,,,,,,,,,,,,,,,,,,,,,,,,,,,,,,,,,,,,,,,,,space,1.48346621555,2017_Nov_30_1631,60.0072752564,MAFE4ImagesEEG,001,202397,
AFNE01.JPG,AFNE01.JPG,AFNE01.JPG,AFNE01.JPG,AFNE01.JPG,AFNE01.JPG,,,,,0,0,0,2,,,,,,,,,,,,,,,,,,,AFSA19.jpg,AFNE03.jpg,AFNE14.jpg,AFSA12.jpg,AFSA12.jpg,FS,4,num_4,16,num_4,0.54999233433,,,2017_Nov_30_1631,60.0072752564,MAFE4ImagesEEG,001,202397,
AFNE01.JPG,AFNE01.JPG,AFNE01.JPG,AFNE01.JPG,AFNE01.JPG,AFNE01.JPG,,,,,0,1,1,3,,,,,,,,,,,,,,,,,,,AFNE07.jpg,AFSA12.jpg,AFNE01.jpg,AFSA06.jpg,AFSA06.jpg,FS,4,num_4,32,num_2,0.766823572339,,,2017_Nov_30_1631,60.0072752564,MAFE4ImagesEEG,001,202397,
AFNE01.JPG,AFNE01.JPG,AFNE01.JPG,AFNE01.JPG,AFNE01.JPG,AFNE01.JPG,,,,,0,2,2,4,,,,,,,,,,,,,,,,,,,AFNE02.jpg,AFSA04.jpg,AFNE18.jpg,AFSA01.jpg,AFSA04.jpg,FS,4,num_6,16,num_6,0.600130605046,,,2017_Nov_30_1631,60.0072752564,MAFE4ImagesEEG,001,202397,
AFNE01.JPG,AFNE01.JPG,AFNE01.JPG,AFNE01.JPG,AFNE01.JPG,AFNE01.JPG,,,,,0,3,3,8,,,,,,,,,,,,,,,,,,,AFNE12.jpg,AFSA10.jpg,AFSA04.jpg,AFNE20.jpg,AFNE20.jpg,FN,3,num_4,16,num_4,0.716774146305,,,2017_Nov_30_1631,60.0072752564,MAFE4ImagesEEG,001,202397,
AFNE01.JPG,AFNE01.JPG,AFNE01.JPG,AFNE01.JPG,AFNE01.JPG,AFNE01.JPG,,,,,0,4,4,6,,,,,,,,,,,,,,,,,,,AFNE02.jpg,AFSA16.jpg,AFSA17.jpg,AFNE12.jpg,AFNE02.jpg,FN,3,num_8,16,num_8,0.600124510936,,,2017_Nov_30_1631,60.0072752564,MAFE4ImagesEEG,001,202397,
AFNE01.JPG,AFNE01.JPG,AFNE01.JPG,AFNE01.JPG,AFNE01.JPG,AFNE01.JPG,,,,,0,5,5,9,,,,,,,,,,,,,,,,,,,AFNE17.jpg,AFSA01.jpg,AFNE10.jpg,AFSA19.jpg,AFSA01.jpg,FS,4,num_6,16,num_6,0.516812506714,,,2017_Nov_30_1631,60.0072752564,MAFE4ImagesEEG,001,202397,
AFNE01.JPG,AFNE01.JPG,AFNE01.JPG,AFNE01.JPG,AFNE01.JPG,AFNE01.JPG,,,,,0,6,6,7,,,,,,,,,,,,,,,,,,,AFNE19.jpg,AFNE03.jpg,AFSA08.jpg,AFSA17.jpg,AFNE03.jpg,FN,3,num_6,16,num_6,0.633268094971,,,2017_Nov_30_1631,60.0072752564,MAFE4ImagesEEG,001,202397,
AFNE01.JPG,AFNE01.JPG,AFNE01.JPG,AFNE01.JPG,AFNE01.JPG,AFNE01.JPG,,,,,0,7,7,1,,,,,,,,,,,,,,,,,,,AFNE12.jpg,AFSA09.jpg,AFSA16.jpg,AFNE17.jpg,AFSA09.jpg,FS,4,num_6,32,num_4,1.01677690481,,,2017_Nov_30_1631,60.0072752564,MAFE4ImagesEEG,001,202397,
AFNE01.JPG,AFNE01.JPG,AFNE01.JPG,AFNE01.JPG,AFNE01.JPG,AFNE01.JPG,,,,,0,8,8,0,,,,,,,,,,,,,,,,,,,AFNE01.jpg,AFSA01.jpg,AFNE15.jpg,AFSA07.jpg,AFSA01.jpg,FS,4,num_6,32,num_8,0.616780176293,,,2017_Nov_30_1631,60.0072752564,MAFE4ImagesEEG,001,202397,
AFNE01.JPG,AFNE01.JPG,AFNE01.JPG,AFNE01.JPG,AFNE01.JPG,AFNE01.JPG,,,,,0,9,9,5,,,,,,,,,,,,,,,,,,,AFSA13.jpg,AFNE10.jpg,AFSA08.jpg,AFNE03.jpg,AFNE10.jpg,FN,3,num_6,32,num_2,1.20005401247,,,2017_Nov_30_1631,60.0072752564,MAFE4ImagesEEG,001,202397,
AFNE01.JPG,AFNE01.JPG,AFNE01.JPG,AFNE01.JPG,AFNE01.JPG,AFNE01.JPG,,,,,1,0,10,4,,,,,,,,,,,,,,,,,,,AFSA20.jpg,AFSA14.jpg,AFNE10.jpg,AFNE19.jpg,AFNE19.jpg,FN,3,num_4,32,num_8,0.700162743102,,,2017_Nov_30_1631,60.0072752564,MAFE4ImagesEEG,001,202397,
AFNE01.JPG,AFNE01.JPG,AFNE01.JPG,AFNE01.JPG,AFNE01.JPG,AFNE01.JPG,,,,,1,1,11,0,,,,,,,,,,,,,,,,,,,AFNE05.jpg,AFSA07.jpg,AFSA19.jpg,AFNE14.jpg,AFSA07.jpg,FS,4,num_6,32,num_4,0.983445367543,,,2017_Nov_30_1631,60.0072752564,MAFE4ImagesEEG,001,202397,
AFNE01.JPG,AFNE01.JPG,AFNE01.JPG,AFNE01.JPG,AFNE01.JPG,AFNE01.JPG,,,,,1,2,12,3,,,,,,,,,,,,,,,,,,,AFNE17.jpg,AFSA13.jpg,AFSA17.jpg,AFNE02.jpg,AFNE02.jpg,FN,3,num_4,32,num_6,0.850150971906,,,2017_Nov_30_1631,60.0072752564,MAFE4ImagesEEG,001,202397,
AFNE01.JPG,AFNE01.JPG,AFNE01.JPG,AFNE01.JPG,AFNE01.JPG,AFNE01.JPG,,,,,1,3,13,9,,,,,,,,,,,,,,,,,,,AFSA14.jpg,AFSA10.jpg,AFNE05.jpg,AFNE16.jpg,AFSA10.jpg,FS,4,num_6,32,num_2,1.15015244728,,,2017_Nov_30_1631,60.0072752564,MAFE4ImagesEEG,001,202397,
AFNE01.JPG,AFNE01.JPG,AFNE01.JPG,AFNE01.JPG,AFNE01.JPG,AFNE01.JPG,,,,,1,4,14,5,,,,,,,,,,,,,,,,,,,AFSA12.jpg,AFNE04.jpg,AFNE19.jpg,AFSA18.jpg,AFNE19.jpg,FN,3,num_2,16,num_2,0.750114343478,,,2017_Nov_30_1631,60.0072752564,MAFE4ImagesEEG,001,202397,
AFNE01.JPG,AFNE01.JPG,AFNE01.JPG,AFNE01.JPG,AFNE01.JPG,AFNE01.JPG,,,,,1,5,15,2,,,,,,,,,,,,,,,,,,,AFSA20.jpg,AFSA05.jpg,AFNE13.jpg,AFNE03.jpg,AFSA20.jpg,FS,4,num_8,16,num_8,0.383733006427,,,2017_Nov_30_1631,60.0072752564,MAFE4ImagesEEG,001,202397,
AFNE01.JPG,AFNE01.JPG,AFNE01.JPG,AFNE01.JPG,AFNE01.JPG,AFNE01.JPG,,,,,1,6,16,6,,,,,,,,,,,,,,,,,,,AFNE14.jpg,AFNE03.jpg,AFSA15.jpg,AFSA14.jpg,AFSA14.jpg,FS,4,num_4,32,num_6,0.733180918032,,,2017_Nov_30_1631,60.0072752564,MAFE4ImagesEEG,001,202397,
AFNE01.JPG,AFNE01.JPG,AFNE01.JPG,AFNE01.JPG,AFNE01.JPG,AFNE01.JPG,,,,,1,7,17,1,,,,,,,,,,,,,,,,,,,AFNE04.jpg,AFSA16.jpg,AFNE12.jpg,AFSA13.jpg,AFNE04.jpg,FN,3,num_8,32,num_6,0.433541236445,,,2017_Nov_30_1631,60.0072752564,MAFE4ImagesEEG,001,202397,
AFNE01.JPG,AFNE01.JPG,AFNE01.JPG,AFNE01.JPG,AFNE01.JPG,AFNE01.JPG,,,,,1,8,18,7,,,,,,,,,,,,,,,,,,,AFSA04.jpg,AFNE20.jpg,AFNE12.jpg,AFSA09.jpg,AFNE20.jpg,FN,3,num_6,16,num_6,0.316660027369,,,2017_Nov_30_1631,60.0072752564,MAFE4ImagesEEG,001,202397,
AFNE01.JPG,AFNE01.JPG,AFNE01.JPG,AFNE01.JPG,AFNE01.JPG,AFNE01.JPG,,,,,1,9,19,8,,,,,,,,,,,,,,,,,,,AFNE10.jpg,AFNE03.jpg,AFSA01.jpg,AFSA05.jpg,AFNE03.jpg,FN,3,num_6,32,num_2,0.283577063004,,,2017_Nov_30_1631,60.0072752564,MAFE4ImagesEEG,001,202397,
AFNE01.JPG,AFNE01.JPG,AFNE01.JPG,AFNE01.JPG,AFNE01.JPG,AFNE01.JPG,,,,,2,0,20,2,,,,,,,,,,,,,,,,,,,AFNE18.jpg,AFNE09.jpg,AFSA10.jpg,AFSA07.jpg,AFSA07.jpg,FS,4,num_4,32,num_8,0.316853753873,,,2017_Nov_30_1631,60.0072752564,MAFE4ImagesEEG,001,202397,
AFNE01.JPG,AFNE01.JPG,AFNE01.JPG,AFNE01.JPG,AFNE01.JPG,AFNE01.JPG,,,,,2,1,21,8,,,,,,,,,,,,,,,,,,,AFNE03.jpg,AFNE18.jpg,AFSA16.jpg,AFSA13.jpg,AFSA13.jpg,FS,4,num_4,16,num_4,0.450234428281,,,2017_Nov_30_1631,60.0072752564,MAFE4ImagesEEG,001,202397,
AFNE01.JPG,AFNE01.JPG,AFNE01.JPG,AFNE01.JPG,AFNE01.JPG,AFNE01.JPG,,,,,2,2,22,7,,,,,,,,,,,,,,,,,,,AFSA16.jpg,AFNE17.jpg,AFNE10.jpg,AFSA08.jpg,AFSA08.jpg,FS,4,num_4,32,num_8,0.30016409012,,,2017_Nov_30_1631,60.0072752564,MAFE4ImagesEEG,001,202397,
AFNE01.JPG,AFNE01.JPG,AFNE01.JPG,AFNE01.JPG,AFNE01.JPG,AFNE01.JPG,,,,,2,3,23,4,,,,,,,,,,,,,,,,,,,AFSA14.jpg,AFSA20.jpg,AFNE04.jpg,AFNE10.jpg,AFNE10.jpg,FN,3,num_4,16,num_4,0.683471475728,,,2017_Nov_30_1631,60.0072752564,MAFE4ImagesEEG,001,202397,
AFNE01.JPG,AFNE01.JPG,AFNE01.JPG,AFNE01.JPG,AFNE01.JPG,AFNE01.JPG,,,,,2,4,24,1,,,,,,,,,,,,,,,,,,,AFSA14.jpg,AFNE10.jpg,AFSA15.jpg,AFNE20.jpg,AFSA14.jpg,FS,4,num_8,32,num_6,0.300210918067,,,2017_Nov_30_1631,60.0072752564,MAFE4ImagesEEG,001,202397,
AFNE01.JPG,AFNE01.JPG,AFNE01.JPG,AFNE01.JPG,AFNE01.JPG,AFNE01.JPG,,,,,2,5,25,9,,,,,,,,,,,,,,,,,,,AFNE05.jpg,AFSA04.jpg,AFSA07.jpg,AFNE04.jpg,AFNE04.jpg,FN,3,num_4,32,num_2,0.416809235234,,,2017_Nov_30_1631,60.0072752564,MAFE4ImagesEEG,001,202397,
AFNE01.JPG,AFNE01.JPG,AFNE01.JPG,AFNE01.JPG,AFNE01.JPG,AFNE01.JPG,,,,,2,6,26,0,,,,,,,,,,,,,,,,,,,AFNE05.jpg,AFSA10.jpg,AFNE20.jpg,AFSA05.jpg,AFSA10.jpg,FS,4,num_6,32,num_4,0.433455919847,,,2017_Nov_30_1631,60.0072752564,MAFE4ImagesEEG,001,202397,
AFNE01.JPG,AFNE01.JPG,AFNE01.JPG,AFNE01.JPG,AFNE01.JPG,AFNE01.JPG,,,,,2,7,27,3,,,,,,,,,,,,,,,,,,,AFNE15.jpg,AFSA04.jpg,AFNE05.jpg,AFSA08.jpg,AFSA04.jpg,FS,4,num_6,32,num_8,1.06677533314,,,2017_Nov_30_1631,60.0072752564,MAFE4ImagesEEG,001,202397,
AFNE01.JPG,AFNE01.JPG,AFNE01.JPG,AFNE01.JPG,AFNE01.JPG,AFNE01.JPG,,,,,2,8,28,6,,,,,,,,,,,,,,,,,,,AFSA03.jpg,AFSA13.jpg,AFNE11.jpg,AFNE20.jpg,AFSA13.jpg,FS,4,num_6,16,num_6,1.30011533783,,,2017_Nov_30_1631,60.0072752564,MAFE4ImagesEEG,001,202397,
AFNE01.JPG,AFNE01.JPG,AFNE01.JPG,AFNE01.JPG,AFNE01.JPG,AFNE01.JPG,,,,,2,9,29,5,,,,,,,,,,,,,,,,,,,AFNE03.jpg,AFNE05.jpg,AFSA18.jpg,AFSA04.jpg,AFSA18.jpg,FS,4,num_2,32,num_8,0.849980980158,,,2017_Nov_30_1631,60.0072752564,MAFE4ImagesEEG,001,202397,
AFNE01.JPG,AFNE01.JPG,AFNE01.JPG,AFNE01.JPG,AFNE01.JPG,AFNE01.JPG,,,,,3,0,30,2,,,,,,,,,,,,,,,,,,,AFNE20.jpg,AFSA19.jpg,AFNE08.jpg,AFSA03.jpg,AFNE20.jpg,FN,3,num_8,32,num_6,0.883497904637,,,2017_Nov_30_1631,60.0072752564,MAFE4ImagesEEG,001,202397,
AFNE01.JPG,AFNE01.JPG,AFNE01.JPG,AFNE01.JPG,AFNE01.JPG,AFNE01.JPG,,,,,3,1,31,6,,,,,,,,,,,,,,,,,,,AFSA14.jpg,AFNE03.jpg,AFSA10.jpg,AFNE09.jpg,AFNE09.jpg,FN,3,num_4,16,num_4,0.917079939158,,,2017_Nov_30_1631,60.0072752564,MAFE4ImagesEEG,001,202397,
AFNE01.JPG,AFNE01.JPG,AFNE01.JPG,AFNE01.JPG,AFNE01.JPG,AFNE01.JPG,,,,,3,2,32,9,,,,,,,,,,,,,,,,,,,AFNE18.jpg,AFSA19.jpg,AFNE04.jpg,AFSA06.jpg,AFSA06.jpg,FS,4,num_4,32,num_8,0.766773536918,,,2017_Nov_30_1631,60.0072752564,MAFE4ImagesEEG,001,202397,
AFNE01.JPG,AFNE01.JPG,AFNE01.JPG,AFNE01.JPG,AFNE01.JPG,AFNE01.JPG,,,,,3,3,33,3,,,,,,,,,,,,,,,,,,,AFSA02.jpg,AFSA14.jpg,AFNE01.jpg,AFNE08.jpg,AFNE08.jpg,FN,3,num_4,32,num_6,0.600129963481,,,2017_Nov_30_1631,60.0072752564,MAFE4ImagesEEG,001,202397,
AFNE01.JPG,AFNE01.JPG,AFNE01.JPG,AFNE01.JPG,AFNE01.JPG,AFNE01.JPG,,,,,3,4,34,5,,,,,,,,,,,,,,,,,,,AFSA06.jpg,AFNE16.jpg,AFSA07.jpg,AFNE09.jpg,AFNE16.jpg,FN,3,num_6,32,num_4,0.48352908052,,,2017_Nov_30_1631,60.0072752564,MAFE4ImagesEEG,001,202397,
AFNE01.JPG,AFNE01.JPG,AFNE01.JPG,AFNE01.JPG,AFNE01.JPG,AFNE01.JPG,,,,,3,5,35,4,,,,,,,,,,,,,,,,,,,AFSA09.jpg,AFSA17.jpg,AFNE06.jpg,AFNE18.jpg,AFNE06.jpg,FN,3,num_2,32,num_6,0.43346457975,,,2017_Nov_30_1631,60.0072752564,MAFE4ImagesEEG,001,202397,
AFNE01.JPG,AFNE01.JPG,AFNE01.JPG,AFNE01.JPG,AFNE01.JPG,AFNE01.JPG,,,,,3,6,36,1,,,,,,,,,,,,,,,,,,,AFNE05.jpg,AFSA09.jpg,AFNE13.jpg,AFSA18.jpg,AFNE13.jpg,FN,3,num_2,32,num_8,0.450112226652,,,2017_Nov_30_1631,60.0072752564,MAFE4ImagesEEG,001,202397,
AFNE01.JPG,AFNE01.JPG,AFNE01.JPG,AFNE01.JPG,AFNE01.JPG,AFNE01.JPG,,,,,3,7,37,0,,,,,,,,,,,,,,,,,,,AFSA05.jpg,AFNE11.jpg,AFSA15.jpg,AFNE10.jpg,AFSA15.jpg,FS,4,num_2,16,num_2,0.400197190465,,,2017_Nov_30_1631,60.0072752564,MAFE4ImagesEEG,001,202397,
AFNE01.JPG,AFNE01.JPG,AFNE01.JPG,AFNE01.JPG,AFNE01.JPG,AFNE01.JPG,,,,,3,8,38,8,,,,,,,,,,,,,,,,,,,AFSA18.jpg,AFNE02.jpg,AFSA12.jpg,AFNE12.jpg,AFSA12.jpg,FS,4,num_2,32,num_4,0.583482316695,,,2017_Nov_30_1631,60.0072752564,MAFE4ImagesEEG,001,202397,
AFNE01.JPG,AFNE01.JPG,AFNE01.JPG,AFNE01.JPG,AFNE01.JPG,AFNE01.JPG,,,,,3,9,39,7,,,,,,,,,,,,,,,,,,,AFSA12.jpg,AFNE16.jpg,AFNE02.jpg,AFSA11.jpg,AFNE16.jpg,FN,3,num_6,32,num_2,0.566819915897,,,2017_Nov_30_1631,60.0072752564,MAFE4ImagesEEG,001,202397,
AFNE01.JPG,AFNE01.JPG,AFNE01.JPG,AFNE01.JPG,AFNE01.JPG,AFNE01.JPG,,,,,4,0,40,0,,,,,,,,,,,,,,,,,,,AFNE05.jpg,AFNE15.jpg,AFSA01.jpg,AFSA07.jpg,AFSA01.jpg,FS,4,num_2,32,num_6,0.25018201943,,,2017_Nov_30_1631,60.0072752564,MAFE4ImagesEEG,001,202397,
AFNE01.JPG,AFNE01.JPG,AFNE01.JPG,AFNE01.JPG,AFNE01.JPG,AFNE01.JPG,,,,,4,1,41,2,,,,,,,,,,,,,,,,,,,AFNE09.jpg,AFSA15.jpg,AFNE12.jpg,AFSA11.jpg,AFSA11.jpg,FS,4,num_4,16,num_4,0.500177368755,,,2017_Nov_30_1631,60.0072752564,MAFE4ImagesEEG,001,202397,
AFNE01.JPG,AFNE01.JPG,AFNE01.JPG,AFNE01.JPG,AFNE01.JPG,AFNE01.JPG,,,,,4,2,42,9,,,,,,,,,,,,,,,,,,,AFNE08.jpg,AFNE05.jpg,AFSA12.jpg,AFSA10.jpg,AFNE08.jpg,FN,3,num_8,16,num_8,0.650141542195,,,2017_Nov_30_1631,60.0072752564,MAFE4ImagesEEG,001,202397,
AFNE01.JPG,AFNE01.JPG,AFNE01.JPG,AFNE01.JPG,AFNE01.JPG,AFNE01.JPG,,,,,4,3,43,7,,,,,,,,,,,,,,,,,,,AFSA01.jpg,AFSA07.jpg,AFNE10.jpg,AFNE17.jpg,AFNE10.jpg,FN,3,num_2,32,num_6,0.666802339372,,,2017_Nov_30_1631,60.0072752564,MAFE4ImagesEEG,001,202397,
AFNE01.JPG,AFNE01.JPG,AFNE01.JPG,AFNE01.JPG,AFNE01.JPG,AFNE01.JPG,,,,,4,4,44,5,,,,,,,,,,,,,,,,,,,AFNE01.jpg,AFNE10.jpg,AFSA11.jpg,AFSA04.jpg,AFSA04.jpg,FS,4,num_4,32,num_2,0.650162711041,,,2017_Nov_30_1631,60.0072752564,MAFE4ImagesEEG,001,202397,
AFNE01.JPG,AFNE01.JPG,AFNE01.JPG,AFNE01.JPG,AFNE01.JPG,AFNE01.JPG,,,,,4,5,45,8,,,,,,,,,,,,,,,,,,,AFNE03.jpg,AFSA03.jpg,AFNE11.jpg,AFSA12.jpg,AFNE11.jpg,FN,3,num_2,16,num_2,0.566825689166,,,2017_Nov_30_1631,60.0072752564,MAFE4ImagesEEG,001,202397,
AFNE01.JPG,AFNE01.JPG,AFNE01.JPG,AFNE01.JPG,AFNE01.JPG,AFNE01.JPG,,,,,4,6,46,3,,,,,,,,,,,,,,,,,,,AFNE05.jpg,AFSA15.jpg,AFSA02.jpg,AFNE06.jpg,AFNE05.jpg,FN,3,num_8,32,num_4,0.716830596444,,,2017_Nov_30_1631,60.0072752564,MAFE4ImagesEEG,001,202397,
AFNE01.JPG,AFNE01.JPG,AFNE01.JPG,AFNE01.JPG,AFNE01.JPG,AFNE01.JPG,,,,,4,7,47,1,,,,,,,,,,,,,,,,,,,AFNE05.jpg,AFSA16.jpg,AFNE03.jpg,AFSA09.jpg,AFNE03.jpg,FN,3,num_2,32,num_8,0.68343811878,,,2017_Nov_30_1631,60.0072752564,MAFE4ImagesEEG,001,202397,
AFNE01.JPG,AFNE01.JPG,AFNE01.JPG,AFNE01.JPG,AFNE01.JPG,AFNE01.JPG,,,,,4,8,48,4,,,,,,,,,,,,,,,,,,,AFSA10.jpg,AFSA05.jpg,AFNE10.jpg,AFNE11.jpg,AFNE11.jpg,FN,3,num_4,16,num_4,0.71679114562,,,2017_Nov_30_1631,60.0072752564,MAFE4ImagesEEG,001,202397,
AFNE01.JPG,AFNE01.JPG,AFNE01.JPG,AFNE01.JPG,AFNE01.JPG,AFNE01.JPG,,,,,4,9,49,6,,,,,,,,,,,,,,,,,,,AFSA07.jpg,AFSA06.jpg,AFNE09.jpg,AFNE04.jpg,AFSA06.jpg,FS,4,num_6,16,num_6,0.300142921391,,,2017_Nov_30_1631,60.0072752564,MAFE4ImagesEEG,001,202397,
AFNE01.JPG,AFNE01.JPG,AFNE01.JPG,AFNE01.JPG,AFNE01.JPG,AFNE01.JPG,,,,,5,0,50,4,,,,,,,,,,,,,,,,,,,AFSA18.jpg,AFSA10.jpg,AFNE02.jpg,AFNE15.jpg,AFNE15.jpg,FN,3,num_4,32,num_6,0.800124318572,,,2017_Nov_30_1631,60.0072752564,MAFE4ImagesEEG,001,202397,
AFNE01.JPG,AFNE01.JPG,AFNE01.JPG,AFNE01.JPG,AFNE01.JPG,AFNE01.JPG,,,,,5,1,51,3,,,,,,,,,,,,,,,,,,,AFSA20.jpg,AFNE20.jpg,AFNE08.jpg,AFSA05.jpg,AFSA05.jpg,FS,4,num_4,32,num_2,0.316821359098,,,2017_Nov_30_1631,60.0072752564,MAFE4ImagesEEG,001,202397,
AFNE01.JPG,AFNE01.JPG,AFNE01.JPG,AFNE01.JPG,AFNE01.JPG,AFNE01.JPG,,,,,5,2,52,6,,,,,,,,,,,,,,,,,,,AFNE02.jpg,AFSA13.jpg,AFNE16.jpg,AFSA20.jpg,AFSA20.jpg,FS,4,num_4,16,num_4,0.383539921371,,,2017_Nov_30_1631,60.0072752564,MAFE4ImagesEEG,001,202397,
AFNE01.JPG,AFNE01.JPG,AFNE01.JPG,AFNE01.JPG,AFNE01.JPG,AFNE01.JPG,,,,,5,3,53,7,,,,,,,,,,,,,,,,,,,AFNE09.jpg,AFNE18.jpg,AFSA08.jpg,AFSA05.jpg,AFNE18.jpg,FN,3,num_6,32,num_2,0.433496974409,,,2017_Nov_30_1631,60.0072752564,MAFE4ImagesEEG,001,202397,
AFNE01.JPG,AFNE01.JPG,AFNE01.JPG,AFNE01.JPG,AFNE01.JPG,AFNE01.JPG,,,,,5,4,54,5,,,,,,,,,,,,,,,,,,,AFNE11.jpg,AFSA02.jpg,AFSA12.jpg,AFNE01.jpg,AFSA02.jpg,FS,4,num_6,32,num_8,0.383518752642,,,2017_Nov_30_1631,60.0072752564,MAFE4ImagesEEG,001,202397,
AFNE01.JPG,AFNE01.JPG,AFNE01.JPG,AFNE01.JPG,AFNE01.JPG,AFNE01.JPG,,,,,5,5,55,0,,,,,,,,,,,,,,,,,,,AFSA13.jpg,AFNE09.jpg,AFSA07.jpg,AFNE05.jpg,AFSA13.jpg,FS,4,num_8,16,num_8,0.483500213944,,,2017_Nov_30_1631,60.0072752564,MAFE4ImagesEEG,001,202397,
AFNE01.JPG,AFNE01.JPG,AFNE01.JPG,AFNE01.JPG,AFNE01.JPG,AFNE01.JPG,,,,,5,6,56,8,,,,,,,,,,,,,,,,,,,AFSA12.jpg,AFNE02.jpg,AFNE05.jpg,AFSA06.jpg,AFSA06.jpg,FS,4,num_4,32,num_6,0.366809203173,,,2017_Nov_30_1631,60.0072752564,MAFE4ImagesEEG,001,202397,
AFNE01.JPG,AFNE01.JPG,AFNE01.JPG,AFNE01.JPG,AFNE01.JPG,AFNE01.JPG,,,,,5,7,57,1,,,,,,,,,,,,,,,,,,,AFNE19.jpg,AFSA04.jpg,AFNE01.jpg,AFSA18.jpg,AFSA18.jpg,FS,4,num_4,16,num_4,0.700114632258,,,2017_Nov_30_1631,60.0072752564,MAFE4ImagesEEG,001,202397,
AFNE01.JPG,AFNE01.JPG,AFNE01.JPG,AFNE01.JPG,AFNE01.JPG,AFNE01.JPG,,,,,5,8,58,2,,,,,,,,,,,,,,,,,,,AFNE18.jpg,AFSA06.jpg,AFSA16.jpg,AFNE01.jpg,AFSA06.jpg,FS,4,num_6,32,num_2,0.950101642287,,,2017_Nov_30_1631,60.0072752564,MAFE4ImagesEEG,001,202397,
AFNE01.JPG,AFNE01.JPG,AFNE01.JPG,AFNE01.JPG,AFNE01.JPG,AFNE01.JPG,,,,,5,9,59,9,,,,,,,,,,,,,,,,,,,AFNE16.jpg,AFNE20.jpg,AFSA15.jpg,AFSA04.jpg,AFSA15.jpg,FS,4,num_2,16,num_2,0.64997539937,,,2017_Nov_30_1631,60.0072752564,MAFE4ImagesEEG,001,202397,
,,,,,,,,,,,,,,,,,,,,,,,,,,,,,,,,,,,,,,,,,,,space,2.1666454979,2017_Nov_30_1631,60.0072752564,MAFE4ImagesEEG,001,202397,
AFNE01.JPG,AFNE01.JPG,AFNE01.JPG,AFNE01.JPG,AFNE01.JPG,AFNE01.JPG,,,,,,,,,0,0,0,8,,,,,,,,,,,,,,,AMNE05.jpg,AMSA01.jpg,AMNE09.jpg,AMSA19.jpg,AMSA01.jpg,MS,2,num_6,16,num_6,0.400197831914,,,2017_Nov_30_1631,60.0072752564,MAFE4ImagesEEG,001,202397,
AFNE01.JPG,AFNE01.JPG,AFNE01.JPG,AFNE01.JPG,AFNE01.JPG,AFNE01.JPG,,,,,,,,,0,1,1,3,,,,,,,,,,,,,,,AMNE19.jpg,AMSA18.jpg,AMSA15.jpg,AMNE18.jpg,AMSA15.jpg,MS,2,num_2,32,num_4,0.533483567648,,,2017_Nov_30_1631,60.0072752564,MAFE4ImagesEEG,001,202397,
AFNE01.JPG,AFNE01.JPG,AFNE01.JPG,AFNE01.JPG,AFNE01.JPG,AFNE01.JPG,,,,,,,,,0,2,2,6,,,,,,,,,,,,,,,AMSA12.jpg,AMNE18.jpg,AMSA06.jpg,AMNE09.jpg,AMSA06.jpg,MS,2,num_2,16,num_2,0.816746626981,,,2017_Nov_30_1631,60.0072752564,MAFE4ImagesEEG,001,202397,
AFNE01.JPG,AFNE01.JPG,AFNE01.JPG,AFNE01.JPG,AFNE01.JPG,AFNE01.JPG,,,,,,,,,0,3,3,5,,,,,,,,,,,,,,,AMNE15.jpg,AMNE17.jpg,AMSA11.jpg,AMSA01.jpg,AMNE15.jpg,MN,1,num_8,16,num_8,0.600135736866,,,2017_Nov_30_1631,60.0072752564,MAFE4ImagesEEG,001,202397,
AFNE01.JPG,AFNE01.JPG,AFNE01.JPG,AFNE01.JPG,AFNE01.JPG,AFNE01.JPG,,,,,,,,,0,4,4,9,,,,,,,,,,,,,,,AMNE05.jpg,AMNE10.jpg,AMSA04.jpg,AMSA13.jpg,AMSA13.jpg,MS,2,num_4,16,num_4,0.500101994956,,,2017_Nov_30_1631,60.0072752564,MAFE4ImagesEEG,001,202397,
AFNE01.JPG,AFNE01.JPG,AFNE01.JPG,AFNE01.JPG,AFNE01.JPG,AFNE01.JPG,,,,,,,,,0,5,5,1,,,,,,,,,,,,,,,AMSA14.jpg,AMSA16.jpg,AMNE07.jpg,AMNE11.jpg,AMSA16.jpg,MS,2,num_6,32,num_2,0.700124254334,,,2017_Nov_30_1631,60.0072752564,MAFE4ImagesEEG,001,202397,
AFNE01.JPG,AFNE01.JPG,AFNE01.JPG,AFNE01.JPG,AFNE01.JPG,AFNE01.JPG,,,,,,,,,0,6,6,0,,,,,,,,,,,,,,,AMSA17.jpg,AMNE02.jpg,AMSA09.jpg,AMNE13.jpg,AMNE02.jpg,MN,1,num_6,16,num_6,0.633502876037,,,2017_Nov_30_1631,60.0072752564,MAFE4ImagesEEG,001,202397,
AFNE01.JPG,AFNE01.JPG,AFNE01.JPG,AFNE01.JPG,AFNE01.JPG,AFNE01.JPG,,,,,,,,,0,7,7,4,,,,,,,,,,,,,,,AMSA07.jpg,AMNE18.jpg,AMNE12.jpg,AMSA18.jpg,AMNE12.jpg,MN,1,num_2,16,num_2,0.633409861708,,,2017_Nov_30_1631,60.0072752564,MAFE4ImagesEEG,001,202397,
AFNE01.JPG,AFNE01.JPG,AFNE01.JPG,AFNE01.JPG,AFNE01.JPG,AFNE01.JPG,,,,,,,,,0,8,8,7,,,,,,,,,,,,,,,AMNE15.jpg,AMNE02.jpg,AMSA04.jpg,AMSA12.jpg,AMSA04.jpg,MS,2,num_2,32,num_6,0.350199724315,,,2017_Nov_30_1631,60.0072752564,MAFE4ImagesEEG,001,202397,
AFNE01.JPG,AFNE01.JPG,AFNE01.JPG,AFNE01.JPG,AFNE01.JPG,AFNE01.JPG,,,,,,,,,0,9,9,2,,,,,,,,,,,,,,,AMNE04.jpg,AMSA15.jpg,AMNE14.jpg,AMSA07.jpg,AMSA15.jpg,MS,2,num_6,32,num_4,0.616788194748,,,2017_Nov_30_1631,60.0072752564,MAFE4ImagesEEG,001,202397,
AFNE01.JPG,AFNE01.JPG,AFNE01.JPG,AFNE01.JPG,AFNE01.JPG,AFNE01.JPG,,,,,,,,,1,0,10,4,,,,,,,,,,,,,,,AMSA04.jpg,AMSA19.jpg,AMNE18.jpg,AMNE13.jpg,AMSA04.jpg,MS,2,num_8,32,num_6,0.566816387698,,,2017_Nov_30_1631,60.0072752564,MAFE4ImagesEEG,001,202397,
AFNE01.JPG,AFNE01.JPG,AFNE01.JPG,AFNE01.JPG,AFNE01.JPG,AFNE01.JPG,,,,,,,,,1,1,11,9,,,,,,,,,,,,,,,AMSA09.jpg,AMNE20.jpg,AMSA18.jpg,AMNE08.jpg,AMSA09.jpg,MS,2,num_8,16,num_8,0.400142664788,,,2017_Nov_30_1631,60.0072752564,MAFE4ImagesEEG,001,202397,
AFNE01.JPG,AFNE01.JPG,AFNE01.JPG,AFNE01.JPG,AFNE01.JPG,AFNE01.JPG,,,,,,,,,1,2,12,3,,,,,,,,,,,,,,,AMNE04.jpg,AMSA20.jpg,AMNE06.jpg,AMSA12.jpg,AMSA12.jpg,MS,2,num_4,32,num_2,1.75002870616,,,2017_Nov_30_1631,60.0072752564,MAFE4ImagesEEG,001,202397,
AFNE01.JPG,AFNE01.JPG,AFNE01.JPG,AFNE01.JPG,AFNE01.JPG,AFNE01.JPG,,,,,,,,,1,3,13,8,,,,,,,,,,,,,,,AMSA07.jpg,AMNE20.jpg,AMSA08.jpg,AMNE19.jpg,AMSA08.jpg,MS,2,num_2,16,num_2,0.566783351591,,,2017_Nov_30_1631,60.0072752564,MAFE4ImagesEEG,001,202397,
AFNE01.JPG,AFNE01.JPG,AFNE01.JPG,AFNE01.JPG,AFNE01.JPG,AFNE01.JPG,,,,,,,,,1,4,14,0,,,,,,,,,,,,,,,AMNE15.jpg,AMSA16.jpg,AMNE05.jpg,AMSA14.jpg,AMNE15.jpg,MN,1,num_8,16,num_8,0.533523339313,,,2017_Nov_30_1631,60.0072752564,MAFE4ImagesEEG,001,202397,
AFNE01.JPG,AFNE01.JPG,AFNE01.JPG,AFNE01.JPG,AFNE01.JPG,AFNE01.JPG,,,,,,,,,1,5,15,2,,,,,,,,,,,,,,,AMNE14.jpg,AMSA20.jpg,AMSA05.jpg,AMNE02.jpg,AMSA05.jpg,MS,2,num_2,16,num_2,0.566764107323,,,2017_Nov_30_1631,60.0072752564,MAFE4ImagesEEG,001,202397,
AFNE01.JPG,AFNE01.JPG,AFNE01.JPG,AFNE01.JPG,AFNE01.JPG,AFNE01.JPG,,,,,,,,,1,6,16,1,,,,,,,,,,,,,,,AMNE02.jpg,AMNE19.jpg,AMSA09.jpg,AMSA16.jpg,AMNE19.jpg,MN,1,num_6,16,num_6,0.55016136379,,,2017_Nov_30_1631,60.0072752564,MAFE4ImagesEEG,001,202397,
AFNE01.JPG,AFNE01.JPG,AFNE01.JPG,AFNE01.JPG,AFNE01.JPG,AFNE01.JPG,,,,,,,,,1,7,17,5,,,,,,,,,,,,,,,AMNE13.jpg,AMSA03.jpg,AMSA16.jpg,AMNE02.jpg,AMNE02.jpg,MN,1,num_4,16,num_4,0.650129674817,,,2017_Nov_30_1631,60.0072752564,MAFE4ImagesEEG,001,202397,
AFNE01.JPG,AFNE01.JPG,AFNE01.JPG,AFNE01.JPG,AFNE01.JPG,AFNE01.JPG,,,,,,,,,1,8,18,6,,,,,,,,,,,,,,,AMSA15.jpg,AMSA20.jpg,AMNE02.jpg,AMNE18.jpg,AMSA20.jpg,MS,2,num_6,32,num_2,0.433537066798,,,2017_Nov_30_1631,60.0072752564,MAFE4ImagesEEG,001,202397,
AFNE01.JPG,AFNE01.JPG,AFNE01.JPG,AFNE01.JPG,AFNE01.JPG,AFNE01.JPG,,,,,,,,,1,9,19,7,,,,,,,,,,,,,,,AMNE19.jpg,AMNE03.jpg,AMSA13.jpg,AMSA17.jpg,AMSA17.jpg,MS,2,num_4,32,num_6,0.60045070271,,,2017_Nov_30_1631,60.0072752564,MAFE4ImagesEEG,001,202397,
AFNE01.JPG,AFNE01.JPG,AFNE01.JPG,AFNE01.JPG,AFNE01.JPG,AFNE01.JPG,,,,,,,,,2,0,20,0,,,,,,,,,,,,,,,AMNE05.jpg,AMSA09.jpg,AMSA11.jpg,AMNE19.jpg,AMNE05.jpg,MN,1,num_8,32,num_4,0.350200045039,,,2017_Nov_30_1631,60.0072752564,MAFE4ImagesEEG,001,202397,
AFNE01.JPG,AFNE01.JPG,AFNE01.JPG,AFNE01.JPG,AFNE01.JPG,AFNE01.JPG,,,,,,,,,2,1,21,6,,,,,,,,,,,,,,,AMSA03.jpg,AMNE18.jpg,AMSA14.jpg,AMNE01.jpg,AMNE01.jpg,MN,1,num_4,16,num_4,1.1834381189,,,2017_Nov_30_1631,60.0072752564,MAFE4ImagesEEG,001,202397,
AFNE01.JPG,AFNE01.JPG,AFNE01.JPG,AFNE01.JPG,AFNE01.JPG,AFNE01.JPG,,,,,,,,,2,2,22,5,,,,,,,,,,,,,,,AMNE18.jpg,AMSA07.jpg,AMNE15.jpg,AMSA06.jpg,AMSA07.jpg,MS,2,num_6,16,num_6,0.616459437064,,,2017_Nov_30_1631,60.0072752564,MAFE4ImagesEEG,001,202397,
AFNE01.JPG,AFNE01.JPG,AFNE01.JPG,AFNE01.JPG,AFNE01.JPG,AFNE01.JPG,,,,,,,,,2,3,23,8,,,,,,,,,,,,,,,AMNE09.jpg,AMSA18.jpg,AMNE16.jpg,AMSA17.jpg,AMNE16.jpg,MN,1,num_2,16,num_2,0.433510124683,,,2017_Nov_30_1631,60.0072752564,MAFE4ImagesEEG,001,202397,
AFNE01.JPG,AFNE01.JPG,AFNE01.JPG,AFNE01.JPG,AFNE01.JPG,AFNE01.JPG,,,,,,,,,2,4,24,3,,,,,,,,,,,,,,,AMNE18.jpg,AMNE05.jpg,AMSA01.jpg,AMSA17.jpg,AMNE05.jpg,MN,1,num_6,16,num_6,0.766773857642,,,2017_Nov_30_1631,60.0072752564,MAFE4ImagesEEG,001,202397,
AFNE01.JPG,AFNE01.JPG,AFNE01.JPG,AFNE01.JPG,AFNE01.JPG,AFNE01.JPG,,,,,,,,,2,5,25,1,,,,,,,,,,,,,,,AMSA19.jpg,AMSA20.jpg,AMNE04.jpg,AMNE10.jpg,AMNE10.jpg,MN,1,num_4,16,num_4,0.866749224951,,,2017_Nov_30_1631,60.0072752564,MAFE4ImagesEEG,001,202397,
AFNE01.JPG,AFNE01.JPG,AFNE01.JPG,AFNE01.JPG,AFNE01.JPG,AFNE01.JPG,,,,,,,,,2,6,26,2,,,,,,,,,,,,,,,AMNE16.jpg,AMNE05.jpg,AMSA18.jpg,AMSA06.jpg,AMNE05.jpg,MN,1,num_6,16,num_6,0.600208865362,,,2017_Nov_30_1631,60.0072752564,MAFE4ImagesEEG,001,202397,
AFNE01.JPG,AFNE01.JPG,AFNE01.JPG,AFNE01.JPG,AFNE01.JPG,AFNE01.JPG,,,,,,,,,2,7,27,4,,,,,,,,,,,,,,,AMNE15.jpg,AMSA20.jpg,AMSA08.jpg,AMNE01.jpg,AMSA20.jpg,MS,2,num_6,32,num_4,0.700162422378,,,2017_Nov_30_1631,60.0072752564,MAFE4ImagesEEG,001,202397,
AFNE01.JPG,AFNE01.JPG,AFNE01.JPG,AFNE01.JPG,AFNE01.JPG,AFNE01.JPG,,,,,,,,,2,8,28,7,,,,,,,,,,,,,,,AMSA07.jpg,AMSA15.jpg,AMNE12.jpg,AMNE04.jpg,AMSA15.jpg,MS,2,num_6,32,num_2,0.700165629736,,,2017_Nov_30_1631,60.0072752564,MAFE4ImagesEEG,001,202397,
AFNE01.JPG,AFNE01.JPG,AFNE01.JPG,AFNE01.JPG,AFNE01.JPG,AFNE01.JPG,,,,,,,,,2,9,29,9,,,,,,,,,,,,,,,AMNE04.jpg,AMNE18.jpg,AMSA02.jpg,AMSA13.jpg,AMSA13.jpg,MS,2,num_4,32,num_2,0.500169991865,,,2017_Nov_30_1631,60.0072752564,MAFE4ImagesEEG,001,202397,
AFNE01.JPG,AFNE01.JPG,AFNE01.JPG,AFNE01.JPG,AFNE01.JPG,AFNE01.JPG,,,,,,,,,3,0,30,3,,,,,,,,,,,,,,,AMSA16.jpg,AMSA14.jpg,AMNE19.jpg,AMNE04.jpg,AMSA16.jpg,MS,2,num_8,32,num_4,0.650201520533,,,2017_Nov_30_1631,60.0072752564,MAFE4ImagesEEG,001,202397,
AFNE01.JPG,AFNE01.JPG,AFNE01.JPG,AFNE01.JPG,AFNE01.JPG,AFNE01.JPG,,,,,,,,,3,1,31,5,,,,,,,,,,,,,,,AMNE14.jpg,AMSA07.jpg,AMSA18.jpg,AMNE10.jpg,AMSA18.jpg,MS,2,num_2,16,num_2,1.08351503208,,,2017_Nov_30_1631,60.0072752564,MAFE4ImagesEEG,001,202397,
AFNE01.JPG,AFNE01.JPG,AFNE01.JPG,AFNE01.JPG,AFNE01.JPG,AFNE01.JPG,,,,,,,,,3,2,32,1,,,,,,,,,,,,,,,AMSA07.jpg,AMNE20.jpg,AMSA01.jpg,AMNE01.jpg,AMNE01.jpg,MN,1,num_4,16,num_4,0.683495851816,,,2017_Nov_30_1631,60.0072752564,MAFE4ImagesEEG,001,202397,
AFNE01.JPG,AFNE01.JPG,AFNE01.JPG,AFNE01.JPG,AFNE01.JPG,AFNE01.JPG,,,,,,,,,3,3,33,2,,,,,,,,,,,,,,,AMNE07.jpg,AMNE15.jpg,AMSA12.jpg,AMSA16.jpg,AMSA16.jpg,MS,2,num_4,16,num_4,0.666817734833,,,2017_Nov_30_1631,60.0072752564,MAFE4ImagesEEG,001,202397,
AFNE01.JPG,AFNE01.JPG,AFNE01.JPG,AFNE01.JPG,AFNE01.JPG,AFNE01.JPG,,,,,,,,,3,4,34,7,,,,,,,,,,,,,,,AMSA14.jpg,AMNE10.jpg,AMSA18.jpg,AMNE20.jpg,AMNE10.jpg,MN,1,num_6,16,num_6,0.433609553846,,,2017_Nov_30_1631,60.0072752564,MAFE4ImagesEEG,001,202397,
AFNE01.JPG,AFNE01.JPG,AFNE01.JPG,AFNE01.JPG,AFNE01.JPG,AFNE01.JPG,,,,,,,,,3,5,35,9,,,,,,,,,,,,,,,AMSA16.jpg,AMSA08.jpg,AMNE12.jpg,AMNE01.jpg,AMSA16.jpg,MS,2,num_8,16,num_8,0.766784762731,,,2017_Nov_30_1631,60.0072752564,MAFE4ImagesEEG,001,202397,
AFNE01.JPG,AFNE01.JPG,AFNE01.JPG,AFNE01.JPG,AFNE01.JPG,AFNE01.JPG,,,,,,,,,3,6,36,8,,,,,,,,,,,,,,,AMNE07.jpg,AMSA02.jpg,AMNE01.jpg,AMSA09.jpg,AMNE07.jpg,MN,1,num_8,32,num_4,0.33347413782,,,2017_Nov_30_1631,60.0072752564,MAFE4ImagesEEG,001,202397,
AFNE01.JPG,AFNE01.JPG,AFNE01.JPG,AFNE01.JPG,AFNE01.JPG,AFNE01.JPG,,,,,,,,,3,7,37,0,,,,,,,,,,,,,,,AMNE18.jpg,AMSA15.jpg,AMNE12.jpg,AMSA09.jpg,AMSA15.jpg,MS,2,num_6,32,num_2,0.366790279513,,,2017_Nov_30_1631,60.0072752564,MAFE4ImagesEEG,001,202397,
AFNE01.JPG,AFNE01.JPG,AFNE01.JPG,AFNE01.JPG,AFNE01.JPG,AFNE01.JPG,,,,,,,,,3,8,38,6,,,,,,,,,,,,,,,AMNE06.jpg,AMSA09.jpg,AMSA19.jpg,AMNE09.jpg,AMSA19.jpg,MS,2,num_2,32,num_6,0.466752175824,,,2017_Nov_30_1631,60.0072752564,MAFE4ImagesEEG,001,202397,
AFNE01.JPG,AFNE01.JPG,AFNE01.JPG,AFNE01.JPG,AFNE01.JPG,AFNE01.JPG,,,,,,,,,3,9,39,4,,,,,,,,,,,,,,,AMNE11.jpg,AMSA05.jpg,AMNE08.jpg,AMSA11.jpg,AMNE11.jpg,MN,1,num_8,16,num_8,0.100256655482,,,2017_Nov_30_1631,60.0072752564,MAFE4ImagesEEG,001,202397,
AFNE01.JPG,AFNE01.JPG,AFNE01.JPG,AFNE01.JPG,AFNE01.JPG,AFNE01.JPG,,,,,,,,,4,0,40,5,,,,,,,,,,,,,,,AMSA17.jpg,AMSA01.jpg,AMNE17.jpg,AMNE15.jpg,AMSA17.jpg,MS,2,num_8,32,num_4,0.333488571108,,,2017_Nov_30_1631,60.0072752564,MAFE4ImagesEEG,001,202397,
AFNE01.JPG,AFNE01.JPG,AFNE01.JPG,AFNE01.JPG,AFNE01.JPG,AFNE01.JPG,,,,,,,,,4,1,41,3,,,,,,,,,,,,,,,AMNE11.jpg,AMNE07.jpg,AMSA08.jpg,AMSA05.jpg,AMNE11.jpg,MN,1,num_8,16,num_8,0.516837524367,,,2017_Nov_30_1631,60.0072752564,MAFE4ImagesEEG,001,202397,
AFNE01.JPG,AFNE01.JPG,AFNE01.JPG,AFNE01.JPG,AFNE01.JPG,AFNE01.JPG,,,,,,,,,4,2,42,9,,,,,,,,,,,,,,,AMSA14.jpg,AMNE10.jpg,AMNE16.jpg,AMSA20.jpg,AMSA14.jpg,MS,2,num_8,16,num_8,0.450330970809,,,2017_Nov_30_1631,60.0072752564,MAFE4ImagesEEG,001,202397,
AFNE01.JPG,AFNE01.JPG,AFNE01.JPG,AFNE01.JPG,AFNE01.JPG,AFNE01.JPG,,,,,,,,,4,3,43,0,,,,,,,,,,,,,,,AMSA15.jpg,AMSA10.jpg,AMNE05.jpg,AMNE09.jpg,AMNE05.jpg,MN,1,num_2,32,num_4,0.616816740483,,,2017_Nov_30_1631,60.0072752564,MAFE4ImagesEEG,001,202397,
AFNE01.JPG,AFNE01.JPG,AFNE01.JPG,AFNE01.JPG,AFNE01.JPG,AFNE01.JPG,,,,,,,,,4,4,44,7,,,,,,,,,,,,,,,AMSA12.jpg,AMNE17.jpg,AMSA10.jpg,AMNE05.jpg,AMNE17.jpg,MN,1,num_6,16,num_6,0.383622672176,,,2017_Nov_30_1631,60.0072752564,MAFE4ImagesEEG,001,202397,
AFNE01.JPG,AFNE01.JPG,AFNE01.JPG,AFNE01.JPG,AFNE01.JPG,AFNE01.JPG,,,,,,,,,4,5,45,8,,,,,,,,,,,,,,,AMSA12.jpg,AMNE20.jpg,AMNE07.jpg,AMSA20.jpg,AMNE20.jpg,MN,1,num_6,32,num_4,0.316809812561,,,2017_Nov_30_1631,60.0072752564,MAFE4ImagesEEG,001,202397,
AFNE01.JPG,AFNE01.JPG,AFNE01.JPG,AFNE01.JPG,AFNE01.JPG,AFNE01.JPG,,,,,,,,,4,6,46,6,,,,,,,,,,,,,,,AMSA14.jpg,AMNE07.jpg,AMSA11.jpg,AMNE17.jpg,AMNE17.jpg,MN,1,num_4,16,num_4,0.433486710768,,,2017_Nov_30_1631,60.0072752564,MAFE4ImagesEEG,001,202397,
AFNE01.JPG,AFNE01.JPG,AFNE01.JPG,AFNE01.JPG,AFNE01.JPG,AFNE01.JPG,,,,,,,,,4,7,47,2,,,,,,,,,,,,,,,AMSA01.jpg,AMSA12.jpg,AMNE18.jpg,AMNE09.jpg,AMSA01.jpg,MS,2,num_8,32,num_2,0.40020520892,,,2017_Nov_30_1631,60.0072752564,MAFE4ImagesEEG,001,202397,
AFNE01.JPG,AFNE01.JPG,AFNE01.JPG,AFNE01.JPG,AFNE01.JPG,AFNE01.JPG,,,,,,,,,4,8,48,1,,,,,,,,,,,,,,,AMSA15.jpg,AMNE19.jpg,AMSA11.jpg,AMNE14.jpg,AMSA11.jpg,MS,2,num_2,32,num_6,0.566791370045,,,2017_Nov_30_1631,60.0072752564,MAFE4ImagesEEG,001,202397,
AFNE01.JPG,AFNE01.JPG,AFNE01.JPG,AFNE01.JPG,AFNE01.JPG,AFNE01.JPG,,,,,,,,,4,9,49,4,,,,,,,,,,,,,,,AMNE04.jpg,AMSA19.jpg,AMSA15.jpg,AMNE10.jpg,AMSA15.jpg,MS,2,num_2,32,num_6,0.850129803061,,,2017_Nov_30_1631,60.0072752564,MAFE4ImagesEEG,001,202397,
AFNE01.JPG,AFNE01.JPG,AFNE01.JPG,AFNE01.JPG,AFNE01.JPG,AFNE01.JPG,,,,,,,,,5,0,50,0,,,,,,,,,,,,,,,AMNE08.jpg,AMSA03.jpg,AMNE11.jpg,AMSA06.jpg,AMSA03.jpg,MS,2,num_6,32,num_4,0.300147732487,,,2017_Nov_30_1631,60.0072752564,MAFE4ImagesEEG,001,202397,
AFNE01.JPG,AFNE01.JPG,AFNE01.JPG,AFNE01.JPG,AFNE01.JPG,AFNE01.JPG,,,,,,,,,5,1,51,2,,,,,,,,,,,,,,,AMSA17.jpg,AMNE15.jpg,AMSA16.jpg,AMNE02.jpg,AMNE02.jpg,MN,1,num_4,32,num_8,0.416796726407,,,2017_Nov_30_1631,60.0072752564,MAFE4ImagesEEG,001,202397,
AFNE01.JPG,AFNE01.JPG,AFNE01.JPG,AFNE01.JPG,AFNE01.JPG,AFNE01.JPG,,,,,,,,,5,2,52,4,,,,,,,,,,,,,,,AMNE11.jpg,AMSA01.jpg,AMNE05.jpg,AMSA05.jpg,AMSA01.jpg,MS,2,num_6,32,num_2,0.366782902507,,,2017_Nov_30_1631,60.0072752564,MAFE4ImagesEEG,001,202397,
AFNE01.JPG,AFNE01.JPG,AFNE01.JPG,AFNE01.JPG,AFNE01.JPG,AFNE01.JPG,,,,,,,,,5,3,53,5,,,,,,,,,,,,,,,AMNE11.jpg,AMNE05.jpg,AMSA16.jpg,AMSA17.jpg,AMNE05.jpg,MN,1,num_6,32,num_8,0.766846024082,,,2017_Nov_30_1631,60.0072752564,MAFE4ImagesEEG,001,202397,
AFNE01.JPG,AFNE01.JPG,AFNE01.JPG,AFNE01.JPG,AFNE01.JPG,AFNE01.JPG,,,,,,,,,5,4,54,1,,,,,,,,,,,,,,,AMSA10.jpg,AMSA01.jpg,AMNE10.jpg,AMNE02.jpg,AMNE02.jpg,MN,1,num_4,32,num_6,0.533453738783,,,2017_Nov_30_1631,60.0072752564,MAFE4ImagesEEG,001,202397,
AFNE01.JPG,AFNE01.JPG,AFNE01.JPG,AFNE01.JPG,AFNE01.JPG,AFNE01.JPG,,,,,,,,,5,5,55,7,,,,,,,,,,,,,,,AMNE16.jpg,AMSA18.jpg,AMSA09.jpg,AMNE02.jpg,AMSA09.jpg,MS,2,num_2,32,num_4,0.41683040408,,,2017_Nov_30_1631,60.0072752564,MAFE4ImagesEEG,001,202397,
AFNE01.JPG,AFNE01.JPG,AFNE01.JPG,AFNE01.JPG,AFNE01.JPG,AFNE01.JPG,,,,,,,,,5,6,56,8,,,,,,,,,,,,,,,AMSA14.jpg,AMSA13.jpg,AMNE05.jpg,AMNE15.jpg,AMSA13.jpg,MS,2,num_6,32,num_4,0.633487480576,,,2017_Nov_30_1631,60.0072752564,MAFE4ImagesEEG,001,202397,
AFNE01.JPG,AFNE01.JPG,AFNE01.JPG,AFNE01.JPG,AFNE01.JPG,AFNE01.JPG,,,,,,,,,5,7,57,6,,,,,,,,,,,,,,,AMSA11.jpg,AMNE06.jpg,AMSA15.jpg,AMNE11.jpg,AMSA11.jpg,MS,2,num_8,32,num_4,0.516799998004,,,2017_Nov_30_1631,60.0072752564,MAFE4ImagesEEG,001,202397,
AFNE01.JPG,AFNE01.JPG,AFNE01.JPG,AFNE01.JPG,AFNE01.JPG,AFNE01.JPG,,,,,,,,,5,8,58,9,,,,,,,,,,,,,,,AMSA15.jpg,AMNE10.jpg,AMNE14.jpg,AMSA09.jpg,AMNE14.jpg,MN,1,num_2,16,num_2,0.483520099777,,,2017_Nov_30_1631,60.0072752564,MAFE4ImagesEEG,001,202397,
AFNE01.JPG,AFNE01.JPG,AFNE01.JPG,AFNE01.JPG,AFNE01.JPG,AFNE01.JPG,,,,,,,,,5,9,59,3,,,,,,,,,,,,,,,AMSA07.jpg,AMNE11.jpg,AMSA19.jpg,AMNE17.jpg,AMNE11.jpg,MN,1,num_6,32,num_8,0.700127141085,,,2017_Nov_30_1631,60.0072752564,MAFE4ImagesEEG,001,202397,
,,,,,,,,,,,,,,,,,,,,,,,,,,,,,,,,,,,,,,,,,,,space,2.23332845815,2017_Nov_30_1631,60.0072752564,MAFE4ImagesEEG,001,202397,
AFNE01.JPG,AFNE01.JPG,AFNE01.JPG,AFNE01.JPG,AFNE01.JPG,AFNE01.JPG,,,,,,,,,,,,,0,0,0,1,,,,,,,,,,,AFSA11.jpg,AFNE04.jpg,AFNE14.jpg,AFSA09.jpg,AFSA09.jpg,FS,4,num_4,16,num_4,0.50016421848,,,2017_Nov_30_1631,60.0072752564,MAFE4ImagesEEG,001,202397,
AFNE01.JPG,AFNE01.JPG,AFNE01.JPG,AFNE01.JPG,AFNE01.JPG,AFNE01.JPG,,,,,,,,,,,,,0,1,1,6,,,,,,,,,,,AFNE17.jpg,AFNE11.jpg,AFSA03.jpg,AFSA17.jpg,AFSA17.jpg,FS,4,num_4,32,num_6,0.350153217092,,,2017_Nov_30_1631,60.0072752564,MAFE4ImagesEEG,001,202397,
AFNE01.JPG,AFNE01.JPG,AFNE01.JPG,AFNE01.JPG,AFNE01.JPG,AFNE01.JPG,,,,,,,,,,,,,0,2,2,3,,,,,,,,,,,AFSA12.jpg,AFSA10.jpg,AFNE19.jpg,AFNE06.jpg,AFSA10.jpg,FS,4,num_6,32,num_4,0.566806444782,,,2017_Nov_30_1631,60.0072752564,MAFE4ImagesEEG,001,202397,
AFNE01.JPG,AFNE01.JPG,AFNE01.JPG,AFNE01.JPG,AFNE01.JPG,AFNE01.JPG,,,,,,,,,,,,,0,3,3,8,,,,,,,,,,,AFSA06.jpg,AFSA16.jpg,AFNE16.jpg,AFNE20.jpg,AFSA06.jpg,FS,4,num_8,32,num_6,0.816754324595,,,2017_Nov_30_1631,60.0072752564,MAFE4ImagesEEG,001,202397,
AFNE01.JPG,AFNE01.JPG,AFNE01.JPG,AFNE01.JPG,AFNE01.JPG,AFNE01.JPG,,,,,,,,,,,,,0,4,4,7,,,,,,,,,,,AFSA12.jpg,AFNE06.jpg,AFNE04.jpg,AFSA02.jpg,AFNE04.jpg,FN,3,num_2,32,num_4,0.650162390317,,,2017_Nov_30_1631,60.0072752564,MAFE4ImagesEEG,001,202397,
AFNE01.JPG,AFNE01.JPG,AFNE01.JPG,AFNE01.JPG,AFNE01.JPG,AFNE01.JPG,,,,,,,,,,,,,0,5,5,9,,,,,,,,,,,AFSA10.jpg,AFNE11.jpg,AFNE10.jpg,AFSA06.jpg,AFNE11.jpg,FN,3,num_6,32,num_8,1.01676920697,,,2017_Nov_30_1631,60.0072752564,MAFE4ImagesEEG,001,202397,
AFNE01.JPG,AFNE01.JPG,AFNE01.JPG,AFNE01.JPG,AFNE01.JPG,AFNE01.JPG,,,,,,,,,,,,,0,6,6,2,,,,,,,,,,,AFNE18.jpg,AFSA07.jpg,AFSA16.jpg,AFNE06.jpg,AFSA16.jpg,FS,4,num_2,16,num_2,0.71677735378,,,2017_Nov_30_1631,60.0072752564,MAFE4ImagesEEG,001,202397,
AFNE01.JPG,AFNE01.JPG,AFNE01.JPG,AFNE01.JPG,AFNE01.JPG,AFNE01.JPG,,,,,,,,,,,,,0,7,7,0,,,,,,,,,,,AFNE13.jpg,AFSA01.jpg,AFNE08.jpg,AFSA07.jpg,AFNE13.jpg,FN,3,num_8,16,num_8,0.616793968016,,,2017_Nov_30_1631,60.0072752564,MAFE4ImagesEEG,001,202397,
AFNE01.JPG,AFNE01.JPG,AFNE01.JPG,AFNE01.JPG,AFNE01.JPG,AFNE01.JPG,,,,,,,,,,,,,0,8,8,4,,,,,,,,,,,AFSA06.jpg,AFNE12.jpg,AFNE19.jpg,AFSA16.jpg,AFSA06.jpg,FS,4,num_8,32,num_4,0.716752336128,,,2017_Nov_30_1631,60.0072752564,MAFE4ImagesEEG,001,202397,
AFNE01.JPG,AFNE01.JPG,AFNE01.JPG,AFNE01.JPG,AFNE01.JPG,AFNE01.JPG,,,,,,,,,,,,,0,9,9,5,,,,,,,,,,,AFSA05.jpg,AFNE20.jpg,AFNE07.jpg,AFSA15.jpg,AFSA05.jpg,FS,4,num_8,16,num_8,0.600205978728,,,2017_Nov_30_1631,60.0072752564,MAFE4ImagesEEG,001,202397,
AFNE01.JPG,AFNE01.JPG,AFNE01.JPG,AFNE01.JPG,AFNE01.JPG,AFNE01.JPG,,,,,,,,,,,,,1,0,10,2,,,,,,,,,,,AFSA08.jpg,AFSA01.jpg,AFNE01.jpg,AFNE05.jpg,AFSA01.jpg,FS,4,num_6,32,num_4,0.650221085525,,,2017_Nov_30_1631,60.0072752564,MAFE4ImagesEEG,001,202397,
AFNE01.JPG,AFNE01.JPG,AFNE01.JPG,AFNE01.JPG,AFNE01.JPG,AFNE01.JPG,,,,,,,,,,,,,1,1,11,1,,,,,,,,,,,AFSA05.jpg,AFSA04.jpg,AFNE04.jpg,AFNE19.jpg,AFSA05.jpg,FS,4,num_8,16,num_8,0.366807599436,,,2017_Nov_30_1631,60.0072752564,MAFE4ImagesEEG,001,202397,
AFNE01.JPG,AFNE01.JPG,AFNE01.JPG,AFNE01.JPG,AFNE01.JPG,AFNE01.JPG,,,,,,,,,,,,,1,2,12,0,,,,,,,,,,,AFNE02.jpg,AFSA16.jpg,AFNE15.jpg,AFSA05.jpg,AFSA05.jpg,FS,4,num_4,32,num_6,0.633478820557,,,2017_Nov_30_1631,60.0072752564,MAFE4ImagesEEG,001,202397,
AFNE01.JPG,AFNE01.JPG,AFNE01.JPG,AFNE01.JPG,AFNE01.JPG,AFNE01.JPG,,,,,,,,,,,,,1,3,13,9,,,,,,,,,,,AFNE02.jpg,AFNE08.jpg,AFSA17.jpg,AFSA12.jpg,AFNE08.jpg,FN,3,num_6,32,num_4,0.983422274352,,,2017_Nov_30_1631,60.0072752564,MAFE4ImagesEEG,001,202397,
AFNE01.JPG,AFNE01.JPG,AFNE01.JPG,AFNE01.JPG,AFNE01.JPG,AFNE01.JPG,,,,,,,,,,,,,1,4,14,7,,,,,,,,,,,AFNE03.jpg,AFSA17.jpg,AFNE05.jpg,AFSA12.jpg,AFSA12.jpg,FS,4,num_4,32,num_6,0.633523403434,,,2017_Nov_30_1631,60.0072752564,MAFE4ImagesEEG,001,202397,
AFNE01.JPG,AFNE01.JPG,AFNE01.JPG,AFNE01.JPG,AFNE01.JPG,AFNE01.JPG,,,,,,,,,,,,,1,5,15,6,,,,,,,,,,,AFSA05.jpg,AFSA13.jpg,AFNE02.jpg,AFNE12.jpg,AFSA05.jpg,FS,4,num_8,32,num_6,3.9165699638,,,2017_Nov_30_1631,60.0072752564,MAFE4ImagesEEG,001,202397,
AFNE01.JPG,AFNE01.JPG,AFNE01.JPG,AFNE01.JPG,AFNE01.JPG,AFNE01.JPG,,,,,,,,,,,,,1,6,16,5,,,,,,,,,,,AFNE17.jpg,AFSA04.jpg,AFNE20.jpg,AFSA10.jpg,AFNE20.jpg,FN,3,num_2,32,num_4,0.716783768614,,,2017_Nov_30_1631,60.0072752564,MAFE4ImagesEEG,001,202397,
AFNE01.JPG,AFNE01.JPG,AFNE01.JPG,AFNE01.JPG,AFNE01.JPG,AFNE01.JPG,,,,,,,,,,,,,1,7,17,3,,,,,,,,,,,AFSA15.jpg,AFSA17.jpg,AFNE17.jpg,AFNE05.jpg,AFNE05.jpg,FN,3,num_4,16,num_4,0.583462110138,,,2017_Nov_30_1631,60.0072752564,MAFE4ImagesEEG,001,202397,
AFNE01.JPG,AFNE01.JPG,AFNE01.JPG,AFNE01.JPG,AFNE01.JPG,AFNE01.JPG,,,,,,,,,,,,,1,8,18,8,,,,,,,,,,,AFSA19.jpg,AFNE20.jpg,AFNE02.jpg,AFSA02.jpg,AFNE20.jpg,FN,3,num_6,16,num_6,0.750167906983,,,2017_Nov_30_1631,60.0072752564,MAFE4ImagesEEG,001,202397,
AFNE01.JPG,AFNE01.JPG,AFNE01.JPG,AFNE01.JPG,AFNE01.JPG,AFNE01.JPG,,,,,,,,,,,,,1,9,19,4,,,,,,,,,,,AFNE11.jpg,AFSA15.jpg,AFSA01.jpg,AFNE01.jpg,AFSA01.jpg,FS,4,num_2,16,num_2,0.683596884715,,,2017_Nov_30_1631,60.0072752564,MAFE4ImagesEEG,001,202397,
AFNE01.JPG,AFNE01.JPG,AFNE01.JPG,AFNE01.JPG,AFNE01.JPG,AFNE01.JPG,,,,,,,,,,,,,2,0,20,0,,,,,,,,,,,AFSA15.jpg,AFNE14.jpg,AFNE09.jpg,AFSA09.jpg,AFNE14.jpg,FN,3,num_6,32,num_8,0.683455438819,,,2017_Nov_30_1631,60.0072752564,MAFE4ImagesEEG,001,202397,
AFNE01.JPG,AFNE01.JPG,AFNE01.JPG,AFNE01.JPG,AFNE01.JPG,AFNE01.JPG,,,,,,,,,,,,,2,1,21,4,,,,,,,,,,,AFSA07.jpg,AFNE16.jpg,AFNE10.jpg,AFSA12.jpg,AFSA12.jpg,FS,4,num_4,16,num_4,0.683476286824,,,2017_Nov_30_1631,60.0072752564,MAFE4ImagesEEG,001,202397,
AFNE01.JPG,AFNE01.JPG,AFNE01.JPG,AFNE01.JPG,AFNE01.JPG,AFNE01.JPG,,,,,,,,,,,,,2,2,22,6,,,,,,,,,,,AFNE03.jpg,AFSA19.jpg,AFNE19.jpg,AFSA13.jpg,AFNE03.jpg,FN,3,num_8,16,num_8,0.750140964868,,,2017_Nov_30_1631,60.0072752564,MAFE4ImagesEEG,001,202397,
AFNE01.JPG,AFNE01.JPG,AFNE01.JPG,AFNE01.JPG,AFNE01.JPG,AFNE01.JPG,,,,,,,,,,,,,2,3,23,7,,,,,,,,,,,AFNE18.jpg,AFSA01.jpg,AFSA15.jpg,AFNE15.jpg,AFSA15.jpg,FS,4,num_2,32,num_6,0.950150073855,,,2017_Nov_30_1631,60.0072752564,MAFE4ImagesEEG,001,202397,
AFNE01.JPG,AFNE01.JPG,AFNE01.JPG,AFNE01.JPG,AFNE01.JPG,AFNE01.JPG,,,,,,,,,,,,,2,4,24,2,,,,,,,,,,,AFSA12.jpg,AFNE09.jpg,AFNE05.jpg,AFSA18.jpg,AFNE09.jpg,FN,3,num_6,32,num_4,0.316844452405,,,2017_Nov_30_1631,60.0072752564,MAFE4ImagesEEG,001,202397,
AFNE01.JPG,AFNE01.JPG,AFNE01.JPG,AFNE01.JPG,AFNE01.JPG,AFNE01.JPG,,,,,,,,,,,,,2,5,25,1,,,,,,,,,,,AFNE15.jpg,AFNE03.jpg,AFSA19.jpg,AFSA18.jpg,AFSA18.jpg,FS,4,num_4,32,num_2,0.31683739624,,,2017_Nov_30_1631,60.0072752564,MAFE4ImagesEEG,001,202397,
AFNE01.JPG,AFNE01.JPG,AFNE01.JPG,AFNE01.JPG,AFNE01.JPG,AFNE01.JPG,,,,,,,,,,,,,2,6,26,9,,,,,,,,,,,AFNE14.jpg,AFSA06.jpg,AFNE19.jpg,AFSA07.jpg,AFSA07.jpg,FS,4,num_4,16,num_4,0.566812218167,,,2017_Nov_30_1631,60.0072752564,MAFE4ImagesEEG,001,202397,
AFNE01.JPG,AFNE01.JPG,AFNE01.JPG,AFNE01.JPG,AFNE01.JPG,AFNE01.JPG,,,,,,,,,,,,,2,7,27,3,,,,,,,,,,,AFNE04.jpg,AFSA19.jpg,AFNE11.jpg,AFSA15.jpg,AFSA15.jpg,FS,4,num_4,32,num_8,0.316820397042,,,2017_Nov_30_1631,60.0072752564,MAFE4ImagesEEG,001,202397,
AFNE01.JPG,AFNE01.JPG,AFNE01.JPG,AFNE01.JPG,AFNE01.JPG,AFNE01.JPG,,,,,,,,,,,,,2,8,28,8,,,,,,,,,,,AFSA17.jpg,AFNE15.jpg,AFNE10.jpg,AFSA04.jpg,AFSA17.jpg,FS,4,num_8,32,num_6,0.383507205988,,,2017_Nov_30_1631,60.0072752564,MAFE4ImagesEEG,001,202397,
AFNE01.JPG,AFNE01.JPG,AFNE01.JPG,AFNE01.JPG,AFNE01.JPG,AFNE01.JPG,,,,,,,,,,,,,2,9,29,5,,,,,,,,,,,AFNE10.jpg,AFSA12.jpg,AFNE16.jpg,AFSA14.jpg,AFSA12.jpg,FS,4,num_6,32,num_2,0.800096093444,,,2017_Nov_30_1631,60.0072752564,MAFE4ImagesEEG,001,202397,
AFNE01.JPG,AFNE01.JPG,AFNE01.JPG,AFNE01.JPG,AFNE01.JPG,AFNE01.JPG,,,,,,,,,,,,,3,0,30,6,,,,,,,,,,,AFSA03.jpg,AFSA06.jpg,AFNE18.jpg,AFNE11.jpg,AFNE11.jpg,FN,3,num_4,32,num_8,0.600122907315,,,2017_Nov_30_1631,60.0072752564,MAFE4ImagesEEG,001,202397,
AFNE01.JPG,AFNE01.JPG,AFNE01.JPG,AFNE01.JPG,AFNE01.JPG,AFNE01.JPG,,,,,,,,,,,,,3,1,31,7,,,,,,,,,,,AFNE04.jpg,AFNE14.jpg,AFSA04.jpg,AFSA17.jpg,AFSA17.jpg,FS,4,num_4,16,num_4,0.633450595546,,,2017_Nov_30_1631,60.0072752564,MAFE4ImagesEEG,001,202397,
AFNE01.JPG,AFNE01.JPG,AFNE01.JPG,AFNE01.JPG,AFNE01.JPG,AFNE01.JPG,,,,,,,,,,,,,3,2,32,4,,,,,,,,,,,AFNE09.jpg,AFNE20.jpg,AFSA18.jpg,AFSA10.jpg,AFSA10.jpg,FS,4,num_4,16,num_4,0.800168580608,,,2017_Nov_30_1631,60.0072752564,MAFE4ImagesEEG,001,202397,
AFNE01.JPG,AFNE01.JPG,AFNE01.JPG,AFNE01.JPG,AFNE01.JPG,AFNE01.JPG,,,,,,,,,,,,,3,3,33,2,,,,,,,,,,,AFNE05.jpg,AFSA14.jpg,AFSA01.jpg,AFNE17.jpg,AFSA14.jpg,FS,4,num_6,32,num_4,0.616793968016,,,2017_Nov_30_1631,60.0072752564,MAFE4ImagesEEG,001,202397,
AFNE01.JPG,AFNE01.JPG,AFNE01.JPG,AFNE01.JPG,AFNE01.JPG,AFNE01.JPG,,,,,,,,,,,,,3,4,34,9,,,,,,,,,,,AFNE06.jpg,AFNE03.jpg,AFSA15.jpg,AFSA03.jpg,AFSA15.jpg,FS,4,num_2,32,num_8,0.350135576446,,,2017_Nov_30_1631,60.0072752564,MAFE4ImagesEEG,001,202397,
AFNE01.JPG,AFNE01.JPG,AFNE01.JPG,AFNE01.JPG,AFNE01.JPG,AFNE01.JPG,,,,,,,,,,,,,3,5,35,3,,,,,,,,,,,AFSA02.jpg,AFSA06.jpg,AFNE19.jpg,AFNE12.jpg,AFSA02.jpg,FS,4,num_8,32,num_6,0.900105138309,,,2017_Nov_30_1631,60.0072752564,MAFE4ImagesEEG,001,202397,
AFNE01.JPG,AFNE01.JPG,AFNE01.JPG,AFNE01.JPG,AFNE01.JPG,AFNE01.JPG,,,,,,,,,,,,,3,6,36,1,,,,,,,,,,,AFSA17.jpg,AFNE19.jpg,AFNE14.jpg,AFSA05.jpg,AFSA17.jpg,FS,4,num_8,16,num_8,0.750273750862,,,2017_Nov_30_1631,60.0072752564,MAFE4ImagesEEG,001,202397,
AFNE01.JPG,AFNE01.JPG,AFNE01.JPG,AFNE01.JPG,AFNE01.JPG,AFNE01.JPG,,,,,,,,,,,,,3,7,37,8,,,,,,,,,,,AFNE16.jpg,AFSA04.jpg,AFSA17.jpg,AFNE09.jpg,AFNE09.jpg,FN,3,num_4,32,num_6,1.18342721369,,,2017_Nov_30_1631,60.0072752564,MAFE4ImagesEEG,001,202397,
AFNE01.JPG,AFNE01.JPG,AFNE01.JPG,AFNE01.JPG,AFNE01.JPG,AFNE01.JPG,,,,,,,,,,,,,3,8,38,0,,,,,,,,,,,AFSA15.jpg,AFSA06.jpg,AFNE02.jpg,AFNE12.jpg,AFSA06.jpg,FS,4,num_6,32,num_2,0.983489308739,,,2017_Nov_30_1631,60.0072752564,MAFE4ImagesEEG,001,202397,
AFNE01.JPG,AFNE01.JPG,AFNE01.JPG,AFNE01.JPG,AFNE01.JPG,AFNE01.JPG,,,,,,,,,,,,,3,9,39,5,,,,,,,,,,,AFSA18.jpg,AFNE16.jpg,AFSA08.jpg,AFNE18.jpg,AFNE18.jpg,FN,3,num_4,16,num_4,0.616779534728,,,2017_Nov_30_1631,60.0072752564,MAFE4ImagesEEG,001,202397,
AFNE01.JPG,AFNE01.JPG,AFNE01.JPG,AFNE01.JPG,AFNE01.JPG,AFNE01.JPG,,,,,,,,,,,,,4,0,40,8,,,,,,,,,,,AFNE17.jpg,AFSA01.jpg,AFNE13.jpg,AFSA16.jpg,AFNE17.jpg,FN,3,num_8,32,num_6,0.433491521981,,,2017_Nov_30_1631,60.0072752564,MAFE4ImagesEEG,001,202397,
AFNE01.JPG,AFNE01.JPG,AFNE01.JPG,AFNE01.JPG,AFNE01.JPG,AFNE01.JPG,,,,,,,,,,,,,4,1,41,7,,,,,,,,,,,AFSA06.jpg,AFNE04.jpg,AFNE15.jpg,AFSA07.jpg,AFNE15.jpg,FN,3,num_2,32,num_8,0.600169735262,,,2017_Nov_30_1631,60.0072752564,MAFE4ImagesEEG,001,202397,
AFNE01.JPG,AFNE01.JPG,AFNE01.JPG,AFNE01.JPG,AFNE01.JPG,AFNE01.JPG,,,,,,,,,,,,,4,2,42,9,,,,,,,,,,,AFSA14.jpg,AFNE16.jpg,AFNE07.jpg,AFSA17.jpg,AFSA17.jpg,FS,4,num_4,32,num_6,1.28346897394,,,2017_Nov_30_1631,60.0072752564,MAFE4ImagesEEG,001,202397,
AFNE01.JPG,AFNE01.JPG,AFNE01.JPG,AFNE01.JPG,AFNE01.JPG,AFNE01.JPG,,,,,,,,,,,,,4,3,43,3,,,,,,,,,,,AFNE03.jpg,AFSA18.jpg,AFNE09.jpg,AFSA12.jpg,AFSA12.jpg,FS,4,num_4,32,num_8,0.500056129415,,,2017_Nov_30_1631,60.0072752564,MAFE4ImagesEEG,001,202397,
AFNE01.JPG,AFNE01.JPG,AFNE01.JPG,AFNE01.JPG,AFNE01.JPG,AFNE01.JPG,,,,,,,,,,,,,4,4,44,0,,,,,,,,,,,AFNE17.jpg,AFSA11.jpg,AFNE01.jpg,AFSA17.jpg,AFSA11.jpg,FS,4,num_6,16,num_6,0.416787104215,,,2017_Nov_30_1631,60.0072752564,MAFE4ImagesEEG,001,202397,
AFNE01.JPG,AFNE01.JPG,AFNE01.JPG,AFNE01.JPG,AFNE01.JPG,AFNE01.JPG,,,,,,,,,,,,,4,5,45,4,,,,,,,,,,,AFNE12.jpg,AFSA05.jpg,AFNE10.jpg,AFSA16.jpg,AFNE10.jpg,FN,3,num_2,32,num_4,0.300021040486,,,2017_Nov_30_1631,60.0072752564,MAFE4ImagesEEG,001,202397,
AFNE01.JPG,AFNE01.JPG,AFNE01.JPG,AFNE01.JPG,AFNE01.JPG,AFNE01.JPG,,,,,,,,,,,,,4,6,46,1,,,,,,,,,,,AFSA13.jpg,AFNE18.jpg,AFNE08.jpg,AFSA03.jpg,AFNE08.jpg,FN,3,num_2,32,num_4,0.316848622053,,,2017_Nov_30_1631,60.0072752564,MAFE4ImagesEEG,001,202397,
AFNE01.JPG,AFNE01.JPG,AFNE01.JPG,AFNE01.JPG,AFNE01.JPG,AFNE01.JPG,,,,,,,,,,,,,4,7,47,2,,,,,,,,,,,AFSA08.jpg,AFNE02.jpg,AFSA19.jpg,AFNE05.jpg,AFSA19.jpg,FS,4,num_2,32,num_8,0.433352641761,,,2017_Nov_30_1631,60.0072752564,MAFE4ImagesEEG,001,202397,
AFNE01.JPG,AFNE01.JPG,AFNE01.JPG,AFNE01.JPG,AFNE01.JPG,AFNE01.JPG,,,,,,,,,,,,,4,8,48,6,,,,,,,,,,,AFNE20.jpg,AFSA06.jpg,AFSA15.jpg,AFNE06.jpg,AFNE06.jpg,FN,3,num_4,32,num_2,0.41682174406,,,2017_Nov_30_1631,60.0072752564,MAFE4ImagesEEG,001,202397,
AFNE01.JPG,AFNE01.JPG,AFNE01.JPG,AFNE01.JPG,AFNE01.JPG,AFNE01.JPG,,,,,,,,,,,,,4,9,49,5,,,,,,,,,,,AFSA02.jpg,AFNE18.jpg,AFSA07.jpg,AFNE05.jpg,AFSA07.jpg,FS,4,num_2,32,num_6,0.350168291829,,,2017_Nov_30_1631,60.0072752564,MAFE4ImagesEEG,001,202397,
AFNE01.JPG,AFNE01.JPG,AFNE01.JPG,AFNE01.JPG,AFNE01.JPG,AFNE01.JPG,,,,,,,,,,,,,5,0,50,1,,,,,,,,,,,AFNE07.jpg,AFNE01.jpg,AFSA12.jpg,AFSA06.jpg,AFNE07.jpg,FN,3,num_8,32,num_4,0.683503549662,,,2017_Nov_30_1631,60.0072752564,MAFE4ImagesEEG,001,202397,
AFNE01.JPG,AFNE01.JPG,AFNE01.JPG,AFNE01.JPG,AFNE01.JPG,AFNE01.JPG,,,,,,,,,,,,,5,1,51,4,,,,,,,,,,,AFSA16.jpg,AFNE03.jpg,AFSA14.jpg,AFNE17.jpg,AFSA16.jpg,FS,4,num_8,16,num_8,0.683452552068,,,2017_Nov_30_1631,60.0072752564,MAFE4ImagesEEG,001,202397,
AFNE01.JPG,AFNE01.JPG,AFNE01.JPG,AFNE01.JPG,AFNE01.JPG,AFNE01.JPG,,,,,,,,,,,,,5,2,52,7,,,,,,,,,,,AFNE06.jpg,AFNE04.jpg,AFSA05.jpg,AFSA09.jpg,AFSA09.jpg,FS,4,num_4,16,num_4,0.466816644417,,,2017_Nov_30_1631,60.0072752564,MAFE4ImagesEEG,001,202397,
AFNE01.JPG,AFNE01.JPG,AFNE01.JPG,AFNE01.JPG,AFNE01.JPG,AFNE01.JPG,,,,,,,,,,,,,5,3,53,3,,,,,,,,,,,AFNE17.jpg,AFNE18.jpg,AFSA14.jpg,AFSA10.jpg,AFSA14.jpg,FS,4,num_2,32,num_4,0.533479398,,,2017_Nov_30_1631,60.0072752564,MAFE4ImagesEEG,001,202397,
AFNE01.JPG,AFNE01.JPG,AFNE01.JPG,AFNE01.JPG,AFNE01.JPG,AFNE01.JPG,,,,,,,,,,,,,5,4,54,6,,,,,,,,,,,AFSA18.jpg,AFNE16.jpg,AFNE10.jpg,AFSA14.jpg,AFNE16.jpg,FN,3,num_6,16,num_6,0.283485010848,,,2017_Nov_30_1631,60.0072752564,MAFE4ImagesEEG,001,202397,
AFNE01.JPG,AFNE01.JPG,AFNE01.JPG,AFNE01.JPG,AFNE01.JPG,AFNE01.JPG,,,,,,,,,,,,,5,5,55,9,,,,,,,,,,,AFNE05.jpg,AFSA11.jpg,AFSA05.jpg,AFNE09.jpg,AFNE09.jpg,FN,3,num_4,32,num_8,0.333494344493,,,2017_Nov_30_1631,60.0072752564,MAFE4ImagesEEG,001,202397,
AFNE01.JPG,AFNE01.JPG,AFNE01.JPG,AFNE01.JPG,AFNE01.JPG,AFNE01.JPG,,,,,,,,,,,,,5,6,56,5,,,,,,,,,,,AFNE07.jpg,AFSA11.jpg,AFNE06.jpg,AFSA03.jpg,AFNE07.jpg,FN,3,num_8,32,num_4,0.733448735322,,,2017_Nov_30_1631,60.0072752564,MAFE4ImagesEEG,001,202397,
AFNE01.JPG,AFNE01.JPG,AFNE01.JPG,AFNE01.JPG,AFNE01.JPG,AFNE01.JPG,,,,,,,,,,,,,5,7,57,8,,,,,,,,,,,AFNE18.jpg,AFSA10.jpg,AFSA15.jpg,AFNE20.jpg,AFSA10.jpg,FS,4,num_6,32,num_2,0.666781170643,,,2017_Nov_30_1631,60.0072752564,MAFE4ImagesEEG,001,202397,
AFNE01.JPG,AFNE01.JPG,AFNE01.JPG,AFNE01.JPG,AFNE01.JPG,AFNE01.JPG,,,,,,,,,,,,,5,8,58,2,,,,,,,,,,,AFSA13.jpg,AFSA02.jpg,AFNE15.jpg,AFNE12.jpg,AFNE15.jpg,FN,3,num_2,16,num_2,0.283503613784,,,2017_Nov_30_1631,60.0072752564,MAFE4ImagesEEG,001,202397,
AFNE01.JPG,AFNE01.JPG,AFNE01.JPG,AFNE01.JPG,AFNE01.JPG,AFNE01.JPG,,,,,,,,,,,,,5,9,59,0,,,,,,,,,,,AFNE03.jpg,AFSA06.jpg,AFNE13.jpg,AFSA11.jpg,AFNE03.jpg,FN,3,num_8,16,num_8,0.650011001388,,,2017_Nov_30_1631,60.0072752564,MAFE4ImagesEEG,001,202397,
,,,,,,,,,,,,,,,,,,,,,,,,,,,,,,,,,,,,,,,,,,,space,1.90001052024,2017_Nov_30_1631,60.0072752564,MAFE4ImagesEEG,001,202397,
AFNE01.JPG,AFNE01.JPG,AFNE01.JPG,AFNE01.JPG,AFNE01.JPG,AFNE01.JPG,,,,,,,,,,,,,,,,,0,0,0,1,,,,,,,AMSA16.jpg,AMNE05.jpg,AMSA19.jpg,AMNE18.jpg,AMSA19.jpg,MS,2,num_2,32,num_8,0.749971614568,,,2017_Nov_30_1631,60.0072752564,MAFE4ImagesEEG,001,202397,
AFNE01.JPG,AFNE01.JPG,AFNE01.JPG,AFNE01.JPG,AFNE01.JPG,AFNE01.JPG,,,,,,,,,,,,,,,,,0,1,1,7,,,,,,,AMSA08.jpg,AMNE08.jpg,AMNE09.jpg,AMSA18.jpg,AMNE09.jpg,MN,1,num_2,16,num_2,0.483496365021,,,2017_Nov_30_1631,60.0072752564,MAFE4ImagesEEG,001,202397,
AFNE01.JPG,AFNE01.JPG,AFNE01.JPG,AFNE01.JPG,AFNE01.JPG,AFNE01.JPG,,,,,,,,,,,,,,,,,0,2,2,6,,,,,,,AMNE12.jpg,AMNE20.jpg,AMSA08.jpg,AMSA03.jpg,AMNE12.jpg,MN,1,num_8,32,num_6,0.28339456243,,,2017_Nov_30_1631,60.0072752564,MAFE4ImagesEEG,001,202397,
AFNE01.JPG,AFNE01.JPG,AFNE01.JPG,AFNE01.JPG,AFNE01.JPG,AFNE01.JPG,,,,,,,,,,,,,,,,,0,3,3,2,,,,,,,AMNE06.jpg,AMNE10.jpg,AMSA07.jpg,AMSA19.jpg,AMNE06.jpg,MN,1,num_8,16,num_8,0.33349562739,,,2017_Nov_30_1631,60.0072752564,MAFE4ImagesEEG,001,202397,
AFNE01.JPG,AFNE01.JPG,AFNE01.JPG,AFNE01.JPG,AFNE01.JPG,AFNE01.JPG,,,,,,,,,,,,,,,,,0,4,4,9,,,,,,,AMSA04.jpg,AMSA02.jpg,AMNE11.jpg,AMNE09.jpg,AMSA04.jpg,MS,2,num_8,32,num_4,0.400157098076,,,2017_Nov_30_1631,60.0072752564,MAFE4ImagesEEG,001,202397,
AFNE01.JPG,AFNE01.JPG,AFNE01.JPG,AFNE01.JPG,AFNE01.JPG,AFNE01.JPG,,,,,,,,,,,,,,,,,0,5,5,5,,,,,,,AMSA05.jpg,AMNE09.jpg,AMSA19.jpg,AMNE15.jpg,AMNE09.jpg,MN,1,num_6,32,num_2,0.333555605612,,,2017_Nov_30_1631,60.0072752564,MAFE4ImagesEEG,001,202397,
AFNE01.JPG,AFNE01.JPG,AFNE01.JPG,AFNE01.JPG,AFNE01.JPG,AFNE01.JPG,,,,,,,,,,,,,,,,,0,6,6,0,,,,,,,AMNE20.jpg,AMNE19.jpg,AMSA07.jpg,AMSA16.jpg,AMSA16.jpg,MS,2,num_4,32,num_6,0.350198120577,,,2017_Nov_30_1631,60.0072752564,MAFE4ImagesEEG,001,202397,
AFNE01.JPG,AFNE01.JPG,AFNE01.JPG,AFNE01.JPG,AFNE01.JPG,AFNE01.JPG,,,,,,,,,,,,,,,,,0,7,7,8,,,,,,,AMSA02.jpg,AMNE01.jpg,AMSA06.jpg,AMNE16.jpg,AMSA02.jpg,MS,2,num_8,16,num_8,1.00011803198,,,2017_Nov_30_1631,60.0072752564,MAFE4ImagesEEG,001,202397,
AFNE01.JPG,AFNE01.JPG,AFNE01.JPG,AFNE01.JPG,AFNE01.JPG,AFNE01.JPG,,,,,,,,,,,,,,,,,0,8,8,4,,,,,,,AMNE01.jpg,AMSA03.jpg,AMNE09.jpg,AMSA14.jpg,AMSA14.jpg,MS,2,num_4,32,num_2,0.45020107145,,,2017_Nov_30_1631,60.0072752564,MAFE4ImagesEEG,001,202397,
AFNE01.JPG,AFNE01.JPG,AFNE01.JPG,AFNE01.JPG,AFNE01.JPG,AFNE01.JPG,,,,,,,,,,,,,,,,,0,9,9,3,,,,,,,AMSA11.jpg,AMNE10.jpg,AMSA08.jpg,AMNE07.jpg,AMSA08.jpg,MS,2,num_2,32,num_4,0.700157931889,,,2017_Nov_30_1631,60.0072752564,MAFE4ImagesEEG,001,202397,
AFNE01.JPG,AFNE01.JPG,AFNE01.JPG,AFNE01.JPG,AFNE01.JPG,AFNE01.JPG,,,,,,,,,,,,,,,,,1,0,10,1,,,,,,,AMSA06.jpg,AMNE05.jpg,AMSA16.jpg,AMNE08.jpg,AMNE05.jpg,MN,1,num_6,32,num_2,1.0501417988,,,2017_Nov_30_1631,60.0072752564,MAFE4ImagesEEG,001,202397,
AFNE01.JPG,AFNE01.JPG,AFNE01.JPG,AFNE01.JPG,AFNE01.JPG,AFNE01.JPG,,,,,,,,,,,,,,,,,1,1,11,9,,,,,,,AMNE14.jpg,AMNE08.jpg,AMSA04.jpg,AMSA03.jpg,AMSA04.jpg,MS,2,num_2,32,num_8,0.516823091195,,,2017_Nov_30_1631,60.0072752564,MAFE4ImagesEEG,001,202397,
AFNE01.JPG,AFNE01.JPG,AFNE01.JPG,AFNE01.JPG,AFNE01.JPG,AFNE01.JPG,,,,,,,,,,,,,,,,,1,2,12,6,,,,,,,AMNE09.jpg,AMSA17.jpg,AMNE13.jpg,AMSA10.jpg,AMNE09.jpg,MN,1,num_8,32,num_6,0.45014301769,,,2017_Nov_30_1631,60.0072752564,MAFE4ImagesEEG,001,202397,
AFNE01.JPG,AFNE01.JPG,AFNE01.JPG,AFNE01.JPG,AFNE01.JPG,AFNE01.JPG,,,,,,,,,,,,,,,,,1,3,13,3,,,,,,,AMNE08.jpg,AMSA16.jpg,AMNE12.jpg,AMSA05.jpg,AMNE08.jpg,MN,1,num_8,16,num_8,0.500157482922,,,2017_Nov_30_1631,60.0072752564,MAFE4ImagesEEG,001,202397,
AFNE01.JPG,AFNE01.JPG,AFNE01.JPG,AFNE01.JPG,AFNE01.JPG,AFNE01.JPG,,,,,,,,,,,,,,,,,1,4,14,8,,,,,,,AMSA16.jpg,AMNE03.jpg,AMNE04.jpg,AMSA08.jpg,AMSA16.jpg,MS,2,num_8,32,num_6,0.583517277264,,,2017_Nov_30_1631,60.0072752564,MAFE4ImagesEEG,001,202397,
AFNE01.JPG,AFNE01.JPG,AFNE01.JPG,AFNE01.JPG,AFNE01.JPG,AFNE01.JPG,,,,,,,,,,,,,,,,,1,5,15,4,,,,,,,AMNE18.jpg,AMSA06.jpg,AMNE12.jpg,AMSA14.jpg,AMSA14.jpg,MS,2,num_4,16,num_4,0.433466183487,,,2017_Nov_30_1631,60.0072752564,MAFE4ImagesEEG,001,202397,
AFNE01.JPG,AFNE01.JPG,AFNE01.JPG,AFNE01.JPG,AFNE01.JPG,AFNE01.JPG,,,,,,,,,,,,,,,,,1,6,16,0,,,,,,,AMNE04.jpg,AMSA12.jpg,AMSA14.jpg,AMNE15.jpg,AMNE04.jpg,MN,1,num_8,16,num_8,0.516811544541,,,2017_Nov_30_1631,60.0072752564,MAFE4ImagesEEG,001,202397,
AFNE01.JPG,AFNE01.JPG,AFNE01.JPG,AFNE01.JPG,AFNE01.JPG,AFNE01.JPG,,,,,,,,,,,,,,,,,1,7,17,2,,,,,,,AMSA04.jpg,AMNE01.jpg,AMNE03.jpg,AMSA08.jpg,AMNE01.jpg,MN,1,num_6,16,num_6,0.583549671923,,,2017_Nov_30_1631,60.0072752564,MAFE4ImagesEEG,001,202397,
AFNE01.JPG,AFNE01.JPG,AFNE01.JPG,AFNE01.JPG,AFNE01.JPG,AFNE01.JPG,,,,,,,,,,,,,,,,,1,8,18,5,,,,,,,AMNE14.jpg,AMSA09.jpg,AMSA06.jpg,AMNE07.jpg,AMNE07.jpg,MN,1,num_4,32,num_8,0.733489789884,,,2017_Nov_30_1631,60.0072752564,MAFE4ImagesEEG,001,202397,
AFNE01.JPG,AFNE01.JPG,AFNE01.JPG,AFNE01.JPG,AFNE01.JPG,AFNE01.JPG,,,,,,,,,,,,,,,,,1,9,19,7,,,,,,,AMNE08.jpg,AMSA08.jpg,AMNE06.jpg,AMSA19.jpg,AMNE06.jpg,MN,1,num_2,32,num_8,0.71683027572,,,2017_Nov_30_1631,60.0072752564,MAFE4ImagesEEG,001,202397,
AFNE01.JPG,AFNE01.JPG,AFNE01.JPG,AFNE01.JPG,AFNE01.JPG,AFNE01.JPG,,,,,,,,,,,,,,,,,2,0,20,5,,,,,,,AMSA09.jpg,AMNE01.jpg,AMSA12.jpg,AMNE15.jpg,AMNE01.jpg,MN,1,num_6,32,num_8,0.700278209173,,,2017_Nov_30_1631,60.0072752564,MAFE4ImagesEEG,001,202397,
AFNE01.JPG,AFNE01.JPG,AFNE01.JPG,AFNE01.JPG,AFNE01.JPG,AFNE01.JPG,,,,,,,,,,,,,,,,,2,1,21,6,,,,,,,AMSA20.jpg,AMSA14.jpg,AMNE08.jpg,AMNE03.jpg,AMNE03.jpg,MN,1,num_4,32,num_8,0.566753202118,,,2017_Nov_30_1631,60.0072752564,MAFE4ImagesEEG,001,202397,
AFNE01.JPG,AFNE01.JPG,AFNE01.JPG,AFNE01.JPG,AFNE01.JPG,AFNE01.JPG,,,,,,,,,,,,,,,,,2,2,22,3,,,,,,,AMNE16.jpg,AMSA17.jpg,AMSA03.jpg,AMNE04.jpg,AMSA03.jpg,MS,2,num_2,16,num_2,0.683436194318,,,2017_Nov_30_1631,60.0072752564,MAFE4ImagesEEG,001,202397,
AFNE01.JPG,AFNE01.JPG,AFNE01.JPG,AFNE01.JPG,AFNE01.JPG,AFNE01.JPG,,,,,,,,,,,,,,,,,2,3,23,8,,,,,,,AMSA04.jpg,AMNE02.jpg,AMNE20.jpg,AMSA19.jpg,AMNE02.jpg,MN,1,num_6,32,num_4,0.333491457743,,,2017_Nov_30_1631,60.0072752564,MAFE4ImagesEEG,001,202397,
AFNE01.JPG,AFNE01.JPG,AFNE01.JPG,AFNE01.JPG,AFNE01.JPG,AFNE01.JPG,,,,,,,,,,,,,,,,,2,4,24,4,,,,,,,AMSA16.jpg,AMNE14.jpg,AMNE20.jpg,AMSA07.jpg,AMSA07.jpg,MS,2,num_4,32,num_6,0.416800575331,,,2017_Nov_30_1631,60.0072752564,MAFE4ImagesEEG,001,202397,
AFNE01.JPG,AFNE01.JPG,AFNE01.JPG,AFNE01.JPG,AFNE01.JPG,AFNE01.JPG,,,,,,,,,,,,,,,,,2,5,25,2,,,,,,,AMNE06.jpg,AMSA12.jpg,AMSA08.jpg,AMNE14.jpg,AMSA12.jpg,MS,2,num_6,32,num_8,0.566846858012,,,2017_Nov_30_1631,60.0072752564,MAFE4ImagesEEG,001,202397,
AFNE01.JPG,AFNE01.JPG,AFNE01.JPG,AFNE01.JPG,AFNE01.JPG,AFNE01.JPG,,,,,,,,,,,,,,,,,2,6,26,1,,,,,,,AMNE01.jpg,AMSA10.jpg,AMSA19.jpg,AMNE20.jpg,AMSA10.jpg,MS,2,num_6,32,num_4,0.900139778154,,,2017_Nov_30_1631,60.0072752564,MAFE4ImagesEEG,001,202397,
AFNE01.JPG,AFNE01.JPG,AFNE01.JPG,AFNE01.JPG,AFNE01.JPG,AFNE01.JPG,,,,,,,,,,,,,,,,,2,7,27,0,,,,,,,AMSA11.jpg,AMNE01.jpg,AMSA02.jpg,AMNE18.jpg,AMNE01.jpg,MN,1,num_6,32,num_8,0.566804841161,,,2017_Nov_30_1631,60.0072752564,MAFE4ImagesEEG,001,202397,
AFNE01.JPG,AFNE01.JPG,AFNE01.JPG,AFNE01.JPG,AFNE01.JPG,AFNE01.JPG,,,,,,,,,,,,,,,,,2,8,28,9,,,,,,,AMSA17.jpg,AMNE02.jpg,AMSA18.jpg,AMNE19.jpg,AMSA17.jpg,MS,2,num_8,16,num_8,0.699812175124,,,2017_Nov_30_1631,60.0072752564,MAFE4ImagesEEG,001,202397,
AFNE01.JPG,AFNE01.JPG,AFNE01.JPG,AFNE01.JPG,AFNE01.JPG,AFNE01.JPG,,,,,,,,,,,,,,,,,2,9,29,7,,,,,,,AMSA07.jpg,AMNE10.jpg,AMNE17.jpg,AMSA03.jpg,AMNE10.jpg,MN,1,num_6,16,num_6,0.400096157682,,,2017_Nov_30_1631,60.0072752564,MAFE4ImagesEEG,001,202397,
AFNE01.JPG,AFNE01.JPG,AFNE01.JPG,AFNE01.JPG,AFNE01.JPG,AFNE01.JPG,,,,,,,,,,,,,,,,,3,0,30,0,,,,,,,AMNE18.jpg,AMSA02.jpg,AMNE14.jpg,AMSA06.jpg,AMSA06.jpg,MS,2,num_4,16,num_4,0.333520644926,,,2017_Nov_30_1631,60.0072752564,MAFE4ImagesEEG,001,202397,
AFNE01.JPG,AFNE01.JPG,AFNE01.JPG,AFNE01.JPG,AFNE01.JPG,AFNE01.JPG,,,,,,,,,,,,,,,,,3,1,31,5,,,,,,,AMNE08.jpg,AMSA06.jpg,AMSA18.jpg,AMNE02.jpg,AMSA18.jpg,MS,2,num_2,16,num_2,0.500148823019,,,2017_Nov_30_1631,60.0072752564,MAFE4ImagesEEG,001,202397,
AFNE01.JPG,AFNE01.JPG,AFNE01.JPG,AFNE01.JPG,AFNE01.JPG,AFNE01.JPG,,,,,,,,,,,,,,,,,3,2,32,7,,,,,,,AMSA07.jpg,AMNE03.jpg,AMNE01.jpg,AMSA03.jpg,AMNE03.jpg,MN,1,num_6,32,num_4,0.866756281233,,,2017_Nov_30_1631,60.0072752564,MAFE4ImagesEEG,001,202397,
AFNE01.JPG,AFNE01.JPG,AFNE01.JPG,AFNE01.JPG,AFNE01.JPG,AFNE01.JPG,,,,,,,,,,,,,,,,,3,3,33,9,,,,,,,AMSA11.jpg,AMNE18.jpg,AMNE12.jpg,AMSA13.jpg,AMSA13.jpg,MS,2,num_4,16,num_4,0.816753041814,,,2017_Nov_30_1631,60.0072752564,MAFE4ImagesEEG,001,202397,
AFNE01.JPG,AFNE01.JPG,AFNE01.JPG,AFNE01.JPG,AFNE01.JPG,AFNE01.JPG,,,,,,,,,,,,,,,,,3,4,34,8,,,,,,,AMNE16.jpg,AMSA18.jpg,AMNE13.jpg,AMSA05.jpg,AMNE16.jpg,MN,1,num_8,16,num_8,0.550187985296,,,2017_Nov_30_1631,60.0072752564,MAFE4ImagesEEG,001,202397,
AFNE01.JPG,AFNE01.JPG,AFNE01.JPG,AFNE01.JPG,AFNE01.JPG,AFNE01.JPG,,,,,,,,,,,,,,,,,3,5,35,1,,,,,,,AMSA13.jpg,AMNE10.jpg,AMNE12.jpg,AMSA04.jpg,AMNE12.jpg,MN,1,num_2,16,num_2,0.250150586944,,,2017_Nov_30_1631,60.0072752564,MAFE4ImagesEEG,001,202397,
AFNE01.JPG,AFNE01.JPG,AFNE01.JPG,AFNE01.JPG,AFNE01.JPG,AFNE01.JPG,,,,,,,,,,,,,,,,,3,6,36,2,,,,,,,AMSA02.jpg,AMSA17.jpg,AMNE18.jpg,AMNE07.jpg,AMNE18.jpg,MN,1,num_2,32,num_4,0.750125248567,,,2017_Nov_30_1631,60.0072752564,MAFE4ImagesEEG,001,202397,
AFNE01.JPG,AFNE01.JPG,AFNE01.JPG,AFNE01.JPG,AFNE01.JPG,AFNE01.JPG,,,,,,,,,,,,,,,,,3,7,37,6,,,,,,,AMSA13.jpg,AMNE09.jpg,AMNE06.jpg,AMSA01.jpg,AMSA13.jpg,MS,2,num_8,32,num_4,0.383567825658,,,2017_Nov_30_1631,60.0072752564,MAFE4ImagesEEG,001,202397,
AFNE01.JPG,AFNE01.JPG,AFNE01.JPG,AFNE01.JPG,AFNE01.JPG,AFNE01.JPG,,,,,,,,,,,,,,,,,3,8,38,3,,,,,,,AMNE02.jpg,AMSA09.jpg,AMNE03.jpg,AMSA12.jpg,AMSA09.jpg,MS,2,num_6,32,num_8,0.633443218656,,,2017_Nov_30_1631,60.0072752564,MAFE4ImagesEEG,001,202397,
AFNE01.JPG,AFNE01.JPG,AFNE01.JPG,AFNE01.JPG,AFNE01.JPG,AFNE01.JPG,,,,,,,,,,,,,,,,,3,9,39,4,,,,,,,AMSA13.jpg,AMNE05.jpg,AMNE08.jpg,AMSA14.jpg,AMNE08.jpg,MN,1,num_2,32,num_4,0.750119475415,,,2017_Nov_30_1631,60.0072752564,MAFE4ImagesEEG,001,202397,
AFNE01.JPG,AFNE01.JPG,AFNE01.JPG,AFNE01.JPG,AFNE01.JPG,AFNE01.JPG,,,,,,,,,,,,,,,,,4,0,40,0,,,,,,,AMNE06.jpg,AMSA16.jpg,AMNE13.jpg,AMSA12.jpg,AMSA16.jpg,MS,2,num_6,32,num_2,0.966537921922,,,2017_Nov_30_1631,60.0072752564,MAFE4ImagesEEG,001,202397,
AFNE01.JPG,AFNE01.JPG,AFNE01.JPG,AFNE01.JPG,AFNE01.JPG,AFNE01.JPG,,,,,,,,,,,,,,,,,4,1,41,9,,,,,,,AMSA10.jpg,AMNE18.jpg,AMNE01.jpg,AMSA14.jpg,AMSA14.jpg,MS,2,num_4,32,num_2,0.700152800186,,,2017_Nov_30_1631,60.0072752564,MAFE4ImagesEEG,001,202397,
AFNE01.JPG,AFNE01.JPG,AFNE01.JPG,AFNE01.JPG,AFNE01.JPG,AFNE01.JPG,,,,,,,,,,,,,,,,,4,2,42,5,,,,,,,AMSA05.jpg,AMNE01.jpg,AMNE20.jpg,AMSA04.jpg,AMNE01.jpg,MN,1,num_6,16,num_6,0.800060812151,,,2017_Nov_30_1631,60.0072752564,MAFE4ImagesEEG,001,202397,
AFNE01.JPG,AFNE01.JPG,AFNE01.JPG,AFNE01.JPG,AFNE01.JPG,AFNE01.JPG,,,,,,,,,,,,,,,,,4,3,43,4,,,,,,,AMNE11.jpg,AMNE08.jpg,AMSA09.jpg,AMSA11.jpg,AMNE11.jpg,MN,1,num_8,32,num_4,0.766762311105,,,2017_Nov_30_1631,60.0072752564,MAFE4ImagesEEG,001,202397,
AFNE01.JPG,AFNE01.JPG,AFNE01.JPG,AFNE01.JPG,AFNE01.JPG,AFNE01.JPG,,,,,,,,,,,,,,,,,4,4,44,7,,,,,,,AMSA02.jpg,AMNE20.jpg,AMSA16.jpg,AMNE02.jpg,AMNE20.jpg,MN,1,num_6,32,num_2,0.283512915252,,,2017_Nov_30_1631,60.0072752564,MAFE4ImagesEEG,001,202397,
AFNE01.JPG,AFNE01.JPG,AFNE01.JPG,AFNE01.JPG,AFNE01.JPG,AFNE01.JPG,,,,,,,,,,,,,,,,,4,5,45,3,,,,,,,AMNE18.jpg,AMSA07.jpg,AMSA18.jpg,AMNE13.jpg,AMSA18.jpg,MS,2,num_2,16,num_2,0.45015809231,,,2017_Nov_30_1631,60.0072752564,MAFE4ImagesEEG,001,202397,
AFNE01.JPG,AFNE01.JPG,AFNE01.JPG,AFNE01.JPG,AFNE01.JPG,AFNE01.JPG,,,,,,,,,,,,,,,,,4,6,46,1,,,,,,,AMSA05.jpg,AMSA02.jpg,AMNE09.jpg,AMNE14.jpg,AMSA02.jpg,MS,2,num_6,32,num_8,0.583469807869,,,2017_Nov_30_1631,60.0072752564,MAFE4ImagesEEG,001,202397,
AFNE01.JPG,AFNE01.JPG,AFNE01.JPG,AFNE01.JPG,AFNE01.JPG,AFNE01.JPG,,,,,,,,,,,,,,,,,4,7,47,2,,,,,,,AMSA12.jpg,AMNE10.jpg,AMSA14.jpg,AMNE12.jpg,AMSA12.jpg,MS,2,num_8,32,num_6,0.55016168463,,,2017_Nov_30_1631,60.0072752564,MAFE4ImagesEEG,001,202397,
AFNE01.JPG,AFNE01.JPG,AFNE01.JPG,AFNE01.JPG,AFNE01.JPG,AFNE01.JPG,,,,,,,,,,,,,,,,,4,8,48,8,,,,,,,AMSA03.jpg,AMNE07.jpg,AMSA08.jpg,AMNE15.jpg,AMSA03.jpg,MS,2,num_8,16,num_8,0.500222592964,,,2017_Nov_30_1631,60.0072752564,MAFE4ImagesEEG,001,202397,
AFNE01.JPG,AFNE01.JPG,AFNE01.JPG,AFNE01.JPG,AFNE01.JPG,AFNE01.JPG,,,,,,,,,,,,,,,,,4,9,49,6,,,,,,,AMSA10.jpg,AMSA03.jpg,AMNE16.jpg,AMNE15.jpg,AMNE16.jpg,MN,1,num_2,32,num_8,0.533493510447,,,2017_Nov_30_1631,60.0072752564,MAFE4ImagesEEG,001,202397,
AFNE01.JPG,AFNE01.JPG,AFNE01.JPG,AFNE01.JPG,AFNE01.JPG,AFNE01.JPG,,,,,,,,,,,,,,,,,5,0,50,6,,,,,,,AMNE02.jpg,AMSA19.jpg,AMSA02.jpg,AMNE11.jpg,AMSA02.jpg,MS,2,num_2,32,num_8,0.716787938145,,,2017_Nov_30_1631,60.0072752564,MAFE4ImagesEEG,001,202397,
AFNE01.JPG,AFNE01.JPG,AFNE01.JPG,AFNE01.JPG,AFNE01.JPG,AFNE01.JPG,,,,,,,,,,,,,,,,,5,1,51,7,,,,,,,AMSA10.jpg,AMSA12.jpg,AMNE20.jpg,AMNE13.jpg,AMNE20.jpg,MN,1,num_2,16,num_2,0.633131780778,,,2017_Nov_30_1631,60.0072752564,MAFE4ImagesEEG,001,202397,
AFNE01.JPG,AFNE01.JPG,AFNE01.JPG,AFNE01.JPG,AFNE01.JPG,AFNE01.JPG,,,,,,,,,,,,,,,,,5,2,52,1,,,,,,,AMSA19.jpg,AMSA15.jpg,AMNE03.jpg,AMNE09.jpg,AMNE03.jpg,MN,1,num_2,32,num_4,0.716760675306,,,2017_Nov_30_1631,60.0072752564,MAFE4ImagesEEG,001,202397,
AFNE01.JPG,AFNE01.JPG,AFNE01.JPG,AFNE01.JPG,AFNE01.JPG,AFNE01.JPG,,,,,,,,,,,,,,,,,5,3,53,9,,,,,,,AMNE15.jpg,AMSA20.jpg,AMSA05.jpg,AMNE05.jpg,AMNE15.jpg,MN,1,num_8,16,num_8,0.350151934079,,,2017_Nov_30_1631,60.0072752564,MAFE4ImagesEEG,001,202397,
AFNE01.JPG,AFNE01.JPG,AFNE01.JPG,AFNE01.JPG,AFNE01.JPG,AFNE01.JPG,,,,,,,,,,,,,,,,,5,4,54,3,,,,,,,AMSA09.jpg,AMSA18.jpg,AMNE05.jpg,AMNE13.jpg,AMSA18.jpg,MS,2,num_6,16,num_6,0.366848333389,,,2017_Nov_30_1631,60.0072752564,MAFE4ImagesEEG,001,202397,
AFNE01.JPG,AFNE01.JPG,AFNE01.JPG,AFNE01.JPG,AFNE01.JPG,AFNE01.JPG,,,,,,,,,,,,,,,,,5,5,55,8,,,,,,,AMSA15.jpg,AMSA07.jpg,AMNE14.jpg,AMNE07.jpg,AMSA07.jpg,MS,2,num_6,32,num_4,0.767037505284,,,2017_Nov_30_1631,60.0072752564,MAFE4ImagesEEG,001,202397,
AFNE01.JPG,AFNE01.JPG,AFNE01.JPG,AFNE01.JPG,AFNE01.JPG,AFNE01.JPG,,,,,,,,,,,,,,,,,5,6,56,4,,,,,,,AMNE08.jpg,AMSA13.jpg,AMNE11.jpg,AMSA14.jpg,AMSA13.jpg,MS,2,num_6,32,num_8,0.700149271986,,,2017_Nov_30_1631,60.0072752564,MAFE4ImagesEEG,001,202397,
AFNE01.JPG,AFNE01.JPG,AFNE01.JPG,AFNE01.JPG,AFNE01.JPG,AFNE01.JPG,,,,,,,,,,,,,,,,,5,7,57,5,,,,,,,AMSA18.jpg,AMNE16.jpg,AMSA11.jpg,AMNE04.jpg,AMSA18.jpg,MS,2,num_8,16,num_8,0.65013063699,,,2017_Nov_30_1631,60.0072752564,MAFE4ImagesEEG,001,202397,
AFNE01.JPG,AFNE01.JPG,AFNE01.JPG,AFNE01.JPG,AFNE01.JPG,AFNE01.JPG,,,,,,,,,,,,,,,,,5,8,58,2,,,,,,,AMSA03.jpg,AMNE12.jpg,AMNE13.jpg,AMSA18.jpg,AMSA03.jpg,MS,2,num_8,16,num_8,0.700149271986,,,2017_Nov_30_1631,60.0072752564,MAFE4ImagesEEG,001,202397,
AFNE01.JPG,AFNE01.JPG,AFNE01.JPG,AFNE01.JPG,AFNE01.JPG,AFNE01.JPG,,,,,,,,,,,,,,,,,5,9,59,0,,,,,,,AMSA09.jpg,AMSA11.jpg,AMNE19.jpg,AMNE07.jpg,AMSA09.jpg,MS,2,num_8,16,num_8,0.583478467772,,,2017_Nov_30_1631,60.0072752564,MAFE4ImagesEEG,001,202397,
,,,,,,,,,,,,,,,,,,,,,,,,,,,,,,,,,,,,,,,,,,,space,1.71676709014,2017_Nov_30_1631,60.0072752564,MAFE4ImagesEEG,001,202397,
AFNE01.JPG,AFNE01.JPG,AFNE01.JPG,AFNE01.JPG,AFNE01.JPG,AFNE01.JPG,,,,,,,,,,,,,,,,,,,,,0,0,0,8,,,AFSA02.jpg,AFSA16.jpg,AFNE10.jpg,AFNE17.jpg,AFSA02.jpg,FS,4,num_8,32,num_2,0.266806573141,,,2017_Nov_30_1631,60.0072752564,MAFE4ImagesEEG,001,202397,
AFNE01.JPG,AFNE01.JPG,AFNE01.JPG,AFNE01.JPG,AFNE01.JPG,AFNE01.JPG,,,,,,,,,,,,,,,,,,,,,0,1,1,2,,,AFSA11.jpg,AFSA03.jpg,AFNE14.jpg,AFNE02.jpg,AFNE14.jpg,FN,3,num_2,32,num_4,0.716772863409,,,2017_Nov_30_1631,60.0072752564,MAFE4ImagesEEG,001,202397,
AFNE01.JPG,AFNE01.JPG,AFNE01.JPG,AFNE01.JPG,AFNE01.JPG,AFNE01.JPG,,,,,,,,,,,,,,,,,,,,,0,2,2,7,,,AFNE01.jpg,AFSA13.jpg,AFSA16.jpg,AFNE16.jpg,AFSA13.jpg,FS,4,num_6,16,num_6,0.516855806462,,,2017_Nov_30_1631,60.0072752564,MAFE4ImagesEEG,001,202397,
AFNE01.JPG,AFNE01.JPG,AFNE01.JPG,AFNE01.JPG,AFNE01.JPG,AFNE01.JPG,,,,,,,,,,,,,,,,,,,,,0,3,3,5,,,AFSA12.jpg,AFNE17.jpg,AFNE02.jpg,AFSA10.jpg,AFNE17.jpg,FN,3,num_6,32,num_4,0.350136859459,,,2017_Nov_30_1631,60.0072752564,MAFE4ImagesEEG,001,202397,
AFNE01.JPG,AFNE01.JPG,AFNE01.JPG,AFNE01.JPG,AFNE01.JPG,AFNE01.JPG,,,,,,,,,,,,,,,,,,,,,0,4,4,6,,,AFSA15.jpg,AFNE04.jpg,AFNE16.jpg,AFSA17.jpg,AFSA15.jpg,FS,4,num_8,16,num_8,0.399885752704,,,2017_Nov_30_1631,60.0072752564,MAFE4ImagesEEG,001,202397,
AFNE01.JPG,AFNE01.JPG,AFNE01.JPG,AFNE01.JPG,AFNE01.JPG,AFNE01.JPG,,,,,,,,,,,,,,,,,,,,,0,5,5,9,,,AFSA08.jpg,AFSA20.jpg,AFNE12.jpg,AFNE06.jpg,AFSA20.jpg,FS,4,num_6,16,num_6,0.416824630694,,,2017_Nov_30_1631,60.0072752564,MAFE4ImagesEEG,001,202397,
AFNE01.JPG,AFNE01.JPG,AFNE01.JPG,AFNE01.JPG,AFNE01.JPG,AFNE01.JPG,,,,,,,,,,,,,,,,,,,,,0,6,6,4,,,AFNE13.jpg,AFNE14.jpg,AFSA19.jpg,AFSA05.jpg,AFNE13.jpg,FN,3,num_8,32,num_4,0.70013163134,,,2017_Nov_30_1631,60.0072752564,MAFE4ImagesEEG,001,202397,
AFNE01.JPG,AFNE01.JPG,AFNE01.JPG,AFNE01.JPG,AFNE01.JPG,AFNE01.JPG,,,,,,,,,,,,,,,,,,,,,0,7,7,0,,,AFNE18.jpg,AFSA07.jpg,AFSA17.jpg,AFNE20.jpg,AFSA07.jpg,FS,4,num_6,32,num_4,0.466852567042,,,2017_Nov_30_1631,60.0072752564,MAFE4ImagesEEG,001,202397,
AFNE01.JPG,AFNE01.JPG,AFNE01.JPG,AFNE01.JPG,AFNE01.JPG,AFNE01.JPG,,,,,,,,,,,,,,,,,,,,,0,8,8,3,,,AFNE02.jpg,AFSA14.jpg,AFSA01.jpg,AFNE10.jpg,AFNE10.jpg,FN,3,num_4,32,num_2,0.21683027572,,,2017_Nov_30_1631,60.0072752564,MAFE4ImagesEEG,001,202397,
AFNE01.JPG,AFNE01.JPG,AFNE01.JPG,AFNE01.JPG,AFNE01.JPG,AFNE01.JPG,,,,,,,,,,,,,,,,,,,,,0,9,9,1,,,AFNE12.jpg,AFSA04.jpg,AFNE03.jpg,AFSA03.jpg,AFNE03.jpg,FN,3,num_2,32,num_6,0.616881529917,,,2017_Nov_30_1631,60.0072752564,MAFE4ImagesEEG,001,202397,
AFNE01.JPG,AFNE01.JPG,AFNE01.JPG,AFNE01.JPG,AFNE01.JPG,AFNE01.JPG,,,,,,,,,,,,,,,,,,,,,1,0,10,4,,,AFNE02.jpg,AFSA10.jpg,AFSA08.jpg,AFNE06.jpg,AFSA10.jpg,FS,4,num_6,16,num_6,0.616673690849,,,2017_Nov_30_1631,60.0072752564,MAFE4ImagesEEG,001,202397,
AFNE01.JPG,AFNE01.JPG,AFNE01.JPG,AFNE01.JPG,AFNE01.JPG,AFNE01.JPG,,,,,,,,,,,,,,,,,,,,,1,1,11,9,,,AFNE01.jpg,AFNE20.jpg,AFSA10.jpg,AFSA14.jpg,AFSA10.jpg,FS,4,num_2,32,num_4,0.433462655405,,,2017_Nov_30_1631,60.0072752564,MAFE4ImagesEEG,001,202397,
AFNE01.JPG,AFNE01.JPG,AFNE01.JPG,AFNE01.JPG,AFNE01.JPG,AFNE01.JPG,,,,,,,,,,,,,,,,,,,,,1,2,12,1,,,AFSA06.jpg,AFNE09.jpg,AFNE15.jpg,AFSA10.jpg,AFSA06.jpg,FS,4,num_8,16,num_8,0.533470417256,,,2017_Nov_30_1631,60.0072752564,MAFE4ImagesEEG,001,202397,
AFNE01.JPG,AFNE01.JPG,AFNE01.JPG,AFNE01.JPG,AFNE01.JPG,AFNE01.JPG,,,,,,,,,,,,,,,,,,,,,1,3,13,5,,,AFSA01.jpg,AFNE08.jpg,AFSA13.jpg,AFNE06.jpg,AFNE08.jpg,FN,3,num_6,16,num_6,0.783502010047,,,2017_Nov_30_1631,60.0072752564,MAFE4ImagesEEG,001,202397,
AFNE01.JPG,AFNE01.JPG,AFNE01.JPG,AFNE01.JPG,AFNE01.JPG,AFNE01.JPG,,,,,,,,,,,,,,,,,,,,,1,4,14,3,,,AFNE02.jpg,AFSA17.jpg,AFSA16.jpg,AFNE17.jpg,AFSA16.jpg,FS,4,num_2,16,num_2,0.600150490762,,,2017_Nov_30_1631,60.0072752564,MAFE4ImagesEEG,001,202397,
AFNE01.JPG,AFNE01.JPG,AFNE01.JPG,AFNE01.JPG,AFNE01.JPG,AFNE01.JPG,,,,,,,,,,,,,,,,,,,,,1,5,15,2,,,AFNE12.jpg,AFSA14.jpg,AFNE05.jpg,AFSA20.jpg,AFSA14.jpg,FS,4,num_6,32,num_8,0.650144108105,,,2017_Nov_30_1631,60.0072752564,MAFE4ImagesEEG,001,202397,
AFNE01.JPG,AFNE01.JPG,AFNE01.JPG,AFNE01.JPG,AFNE01.JPG,AFNE01.JPG,,,,,,,,,,,,,,,,,,,,,1,6,16,6,,,AFNE12.jpg,AFSA08.jpg,AFSA10.jpg,AFNE20.jpg,AFNE12.jpg,FN,3,num_8,32,num_2,0.500156200025,,,2017_Nov_30_1631,60.0072752564,MAFE4ImagesEEG,001,202397,
AFNE01.JPG,AFNE01.JPG,AFNE01.JPG,AFNE01.JPG,AFNE01.JPG,AFNE01.JPG,,,,,,,,,,,,,,,,,,,,,1,7,17,8,,,AFSA09.jpg,AFSA13.jpg,AFNE16.jpg,AFNE08.jpg,AFNE16.jpg,FN,3,num_2,32,num_6,0.950128263561,,,2017_Nov_30_1631,60.0072752564,MAFE4ImagesEEG,001,202397,
AFNE01.JPG,AFNE01.JPG,AFNE01.JPG,AFNE01.JPG,AFNE01.JPG,AFNE01.JPG,,,,,,,,,,,,,,,,,,,,,1,8,18,7,,,AFNE10.jpg,AFSA16.jpg,AFSA13.jpg,AFNE14.jpg,AFSA13.jpg,FS,4,num_2,16,num_2,0.633483311045,,,2017_Nov_30_1631,60.0072752564,MAFE4ImagesEEG,001,202397,
AFNE01.JPG,AFNE01.JPG,AFNE01.JPG,AFNE01.JPG,AFNE01.JPG,AFNE01.JPG,,,,,,,,,,,,,,,,,,,,,1,9,19,0,,,AFSA20.jpg,AFSA17.jpg,AFNE04.jpg,AFNE12.jpg,AFSA20.jpg,FS,4,num_8,16,num_8,0.567100562621,,,2017_Nov_30_1631,60.0072752564,MAFE4ImagesEEG,001,202397,
AFNE01.JPG,AFNE01.JPG,AFNE01.JPG,AFNE01.JPG,AFNE01.JPG,AFNE01.JPG,,,,,,,,,,,,,,,,,,,,,2,0,20,5,,,AFNE06.jpg,AFSA09.jpg,AFSA03.jpg,AFNE05.jpg,AFSA03.jpg,FS,4,num_2,16,num_2,0.500138879986,,,2017_Nov_30_1631,60.0072752564,MAFE4ImagesEEG,001,202397,
AFNE01.JPG,AFNE01.JPG,AFNE01.JPG,AFNE01.JPG,AFNE01.JPG,AFNE01.JPG,,,,,,,,,,,,,,,,,,,,,2,1,21,1,,,AFSA18.jpg,AFNE19.jpg,AFSA19.jpg,AFNE13.jpg,AFSA18.jpg,FS,4,num_8,32,num_6,0.566851989832,,,2017_Nov_30_1631,60.0072752564,MAFE4ImagesEEG,001,202397,
AFNE01.JPG,AFNE01.JPG,AFNE01.JPG,AFNE01.JPG,AFNE01.JPG,AFNE01.JPG,,,,,,,,,,,,,,,,,,,,,2,2,22,7,,,AFSA03.jpg,AFNE18.jpg,AFNE04.jpg,AFSA17.jpg,AFSA03.jpg,FS,4,num_8,32,num_4,0.333493702929,,,2017_Nov_30_1631,60.0072752564,MAFE4ImagesEEG,001,202397,
AFNE01.JPG,AFNE01.JPG,AFNE01.JPG,AFNE01.JPG,AFNE01.JPG,AFNE01.JPG,,,,,,,,,,,,,,,,,,,,,2,3,23,8,,,AFSA17.jpg,AFNE01.jpg,AFNE14.jpg,AFSA02.jpg,AFSA02.jpg,FS,4,num_4,32,num_2,0.33353988931,,,2017_Nov_30_1631,60.0072752564,MAFE4ImagesEEG,001,202397,
AFNE01.JPG,AFNE01.JPG,AFNE01.JPG,AFNE01.JPG,AFNE01.JPG,AFNE01.JPG,,,,,,,,,,,,,,,,,,,,,2,4,24,0,,,AFNE01.jpg,AFSA19.jpg,AFSA15.jpg,AFNE09.jpg,AFNE09.jpg,FN,3,num_4,32,num_6,0.900113798212,,,2017_Nov_30_1631,60.0072752564,MAFE4ImagesEEG,001,202397,
AFNE01.JPG,AFNE01.JPG,AFNE01.JPG,AFNE01.JPG,AFNE01.JPG,AFNE01.JPG,,,,,,,,,,,,,,,,,,,,,2,5,25,6,,,AFSA10.jpg,AFSA15.jpg,AFNE07.jpg,AFNE11.jpg,AFSA15.jpg,FS,4,num_6,32,num_8,0.53346560616,,,2017_Nov_30_1631,60.0072752564,MAFE4ImagesEEG,001,202397,
AFNE01.JPG,AFNE01.JPG,AFNE01.JPG,AFNE01.JPG,AFNE01.JPG,AFNE01.JPG,,,,,,,,,,,,,,,,,,,,,2,6,26,4,,,AFNE18.jpg,AFSA11.jpg,AFSA16.jpg,AFNE13.jpg,AFNE18.jpg,FN,3,num_8,16,num_8,0.583345681778,,,2017_Nov_30_1631,60.0072752564,MAFE4ImagesEEG,001,202397,
AFNE01.JPG,AFNE01.JPG,AFNE01.JPG,AFNE01.JPG,AFNE01.JPG,AFNE01.JPG,,,,,,,,,,,,,,,,,,,,,2,7,27,9,,,AFNE02.jpg,AFSA01.jpg,AFNE15.jpg,AFSA11.jpg,AFNE15.jpg,FN,3,num_2,16,num_2,0.66664998827,,,2017_Nov_30_1631,60.0072752564,MAFE4ImagesEEG,001,202397,
AFNE01.JPG,AFNE01.JPG,AFNE01.JPG,AFNE01.JPG,AFNE01.JPG,AFNE01.JPG,,,,,,,,,,,,,,,,,,,,,2,8,28,2,,,AFNE07.jpg,AFSA13.jpg,AFSA11.jpg,AFNE17.jpg,AFSA11.jpg,FS,4,num_2,16,num_2,0.75012749387,,,2017_Nov_30_1631,60.0072752564,MAFE4ImagesEEG,001,202397,
AFNE01.JPG,AFNE01.JPG,AFNE01.JPG,AFNE01.JPG,AFNE01.JPG,AFNE01.JPG,,,,,,,,,,,,,,,,,,,,,2,9,29,3,,,AFNE10.jpg,AFSA02.jpg,AFNE14.jpg,AFSA20.jpg,AFSA02.jpg,FS,4,num_6,16,num_6,0.516784602543,,,2017_Nov_30_1631,60.0072752564,MAFE4ImagesEEG,001,202397,
AFNE01.JPG,AFNE01.JPG,AFNE01.JPG,AFNE01.JPG,AFNE01.JPG,AFNE01.JPG,,,,,,,,,,,,,,,,,,,,,3,0,30,6,,,AFSA11.jpg,AFNE15.jpg,AFNE03.jpg,AFSA16.jpg,AFNE03.jpg,FN,3,num_2,16,num_2,0.783442673273,,,2017_Nov_30_1631,60.0072752564,MAFE4ImagesEEG,001,202397,
AFNE01.JPG,AFNE01.JPG,AFNE01.JPG,AFNE01.JPG,AFNE01.JPG,AFNE01.JPG,,,,,,,,,,,,,,,,,,,,,3,1,31,1,,,AFNE04.jpg,AFSA03.jpg,AFSA11.jpg,AFNE16.jpg,AFSA11.jpg,FS,4,num_2,16,num_2,0.600153056788,,,2017_Nov_30_1631,60.0072752564,MAFE4ImagesEEG,001,202397,
AFNE01.JPG,AFNE01.JPG,AFNE01.JPG,AFNE01.JPG,AFNE01.JPG,AFNE01.JPG,,,,,,,,,,,,,,,,,,,,,3,2,32,4,,,AFNE13.jpg,AFNE20.jpg,AFSA11.jpg,AFSA08.jpg,AFSA08.jpg,FS,4,num_4,16,num_4,0.86676622415,,,2017_Nov_30_1631,60.0072752564,MAFE4ImagesEEG,001,202397,
AFNE01.JPG,AFNE01.JPG,AFNE01.JPG,AFNE01.JPG,AFNE01.JPG,AFNE01.JPG,,,,,,,,,,,,,,,,,,,,,3,3,33,0,,,AFNE01.jpg,AFNE17.jpg,AFSA01.jpg,AFSA18.jpg,AFSA01.jpg,FS,4,num_2,32,num_8,1.21678665513,,,2017_Nov_30_1631,60.0072752564,MAFE4ImagesEEG,001,202397,
AFNE01.JPG,AFNE01.JPG,AFNE01.JPG,AFNE01.JPG,AFNE01.JPG,AFNE01.JPG,,,,,,,,,,,,,,,,,,,,,3,4,34,7,,,AFNE17.jpg,AFSA09.jpg,AFSA04.jpg,AFNE18.jpg,AFSA04.jpg,FS,4,num_2,16,num_2,0.862588916905,,,2017_Nov_30_1631,60.0072752564,MAFE4ImagesEEG,001,202397,
AFNE01.JPG,AFNE01.JPG,AFNE01.JPG,AFNE01.JPG,AFNE01.JPG,AFNE01.JPG,,,,,,,,,,,,,,,,,,,,,3,5,35,5,,,AFNE11.jpg,AFNE14.jpg,AFSA02.jpg,AFSA06.jpg,AFNE14.jpg,FN,3,num_6,32,num_4,0.783514518989,,,2017_Nov_30_1631,60.0072752564,MAFE4ImagesEEG,001,202397,
AFNE01.JPG,AFNE01.JPG,AFNE01.JPG,AFNE01.JPG,AFNE01.JPG,AFNE01.JPG,,,,,,,,,,,,,,,,,,,,,3,6,36,2,,,AFNE19.jpg,AFSA05.jpg,AFNE05.jpg,AFSA19.jpg,AFSA05.jpg,FS,4,num_6,16,num_6,0.733440716867,,,2017_Nov_30_1631,60.0072752564,MAFE4ImagesEEG,001,202397,
AFNE01.JPG,AFNE01.JPG,AFNE01.JPG,AFNE01.JPG,AFNE01.JPG,AFNE01.JPG,,,,,,,,,,,,,,,,,,,,,3,7,37,3,,,AFSA13.jpg,AFSA16.jpg,AFNE15.jpg,AFNE05.jpg,AFNE05.jpg,FN,3,num_4,16,num_4,0.800128808827,,,2017_Nov_30_1631,60.0072752564,MAFE4ImagesEEG,001,202397,
AFNE01.JPG,AFNE01.JPG,AFNE01.JPG,AFNE01.JPG,AFNE01.JPG,AFNE01.JPG,,,,,,,,,,,,,,,,,,,,,3,8,38,9,,,AFSA12.jpg,AFNE10.jpg,AFNE09.jpg,AFSA17.jpg,AFSA12.jpg,FS,4,num_8,32,num_2,0.65015212656,,,2017_Nov_30_1631,60.0072752564,MAFE4ImagesEEG,001,202397,
