IPosition2,IPosition3,IPosition1,IPosition6,IPosition4,IPosition5,TrialsM1.thisRepN,TrialsM1.thisTrialN,TrialsM1.thisN,TrialsM1.thisIndex,TrialsF1.thisRepN,TrialsF1.thisTrialN,TrialsF1.thisN,TrialsF1.thisIndex,TrialsM2.thisRepN,TrialsM2.thisTrialN,TrialsM2.thisN,TrialsM2.thisIndex,TrialsF2.thisRepN,TrialsF2.thisTrialN,TrialsF2.thisN,TrialsF2.thisIndex,TrialsM3.thisRepN,TrialsM3.thisTrialN,TrialsM3.thisN,TrialsM3.thisIndex,TrialsF3.thisRepN,TrialsF3.thisTrialN,TrialsF3.thisN,TrialsF3.thisIndex,InstrKey_resp.keys,InstrKey_resp.rt,Image0 _Position,Image1 _Position,Image2 _Position,Image3 _Position,Center_image,condition,code,correct_answer,accuracy,Key_Resp.keys,Key_Resp.rt,BreakKey_resp.keys,BreakKey_resp.rt,date,frameRate,expName,session,participant,
,,,,,,,,,,,,,,,,,,,,,,,,,,,,,,space,3.66661406541,,,,,,,,,,,,,,2017_Dec_07_1122,59.9960744807,MAFE4ImagesEEG,001,202379,
AMSA21.JPG,AMNE23.JPG,AMNE21.JPG,AMSA25.JPG,AMNE25.JPG,AMSA23.JPG,0,0,0,5,,,,,,,,,,,,,,,,,,,,,,,AMNE20.jpg,AMSA20.jpg,AMNE17.jpg,AMSA18.jpg,AMSA20.jpg,MS,2,num_6,16,num_6,1.66673434246,,,2017_Dec_07_1122,59.9960744807,MAFE4ImagesEEG,001,202379,
AFSA21.JPG,AFNE22.JPG,AFNE21.JPG,AFSA23.JPG,AFSA22.JPG,AFNE23.JPG,0,1,1,0,,,,,,,,,,,,,,,,,,,,,,,AMSA01.jpg,AMNE11.jpg,AMSA11.jpg,AMNE03.jpg,AMNE03.jpg,MN,1,num_4,16,num_4,1.08332387148,,,2017_Dec_07_1122,59.9960744807,MAFE4ImagesEEG,001,202379,
AFSA25.JPG,AFNE24.JPG,AFSA24.JPG,AFNE21.JPG,AFSA21.JPG,AFNE25.JPG,0,2,2,2,,,,,,,,,,,,,,,,,,,,,,,AMSA15.jpg,AMSA02.jpg,AMNE10.jpg,AMNE14.jpg,AMNE14.jpg,MN,1,num_4,16,num_4,0.616884095827,,,2017_Dec_07_1122,59.9960744807,MAFE4ImagesEEG,001,202379,
AFSA21.JPG,AFNE23.JPG,AFNE21.JPG,AFSA25.JPG,AFNE25.JPG,AFSA23.JPG,0,3,3,4,,,,,,,,,,,,,,,,,,,,,,,AMNE19.jpg,AMNE09.jpg,AMSA13.jpg,AMSA20.jpg,AMSA13.jpg,MS,2,num_2,16,num_2,0.566785917617,,,2017_Dec_07_1122,59.9960744807,MAFE4ImagesEEG,001,202379,
AMNE22.JPG,AMSA24.JPG,AMSA22.JPG,AMNE25.JPG,AMNE24.JPG,AMSA25.JPG,0,4,4,7,,,,,,,,,,,,,,,,,,,,,,,AMSA16.jpg,AMSA14.jpg,AMNE16.jpg,AMNE19.jpg,AMNE19.jpg,MN,1,num_4,16,num_4,0.966744157253,,,2017_Dec_07_1122,59.9960744807,MAFE4ImagesEEG,001,202379,
AMSA21.JPG,AMNE22.JPG,AMNE21.JPG,AMSA23.JPG,AMSA22.JPG,AMNE23.JPG,0,5,5,1,,,,,,,,,,,,,,,,,,,,,,,AMSA10.jpg,AMNE06.jpg,AMSA14.jpg,AMNE04.jpg,AMSA10.jpg,MS,2,num_8,16,num_8,0.633479141397,,,2017_Dec_07_1122,59.9960744807,MAFE4ImagesEEG,001,202379,
AFNE23.JPG,AFNE24.JPG,AFNE22.JPG,AFSA24.JPG,AFSA22.JPG,AFSA23.JPG,0,6,6,8,,,,,,,,,,,,,,,,,,,,,,,AMNE19.jpg,AMNE14.jpg,AMSA20.jpg,AMSA18.jpg,AMNE14.jpg,MN,1,num_6,16,num_6,0.950124735478,,,2017_Dec_07_1122,59.9960744807,MAFE4ImagesEEG,001,202379,
AMSA25.JPG,AMNE24.JPG,AMSA24.JPG,AMNE26.JPG,AMSA21.JPG,AMNE25.JPG,0,7,7,3,,,,,,,,,,,,,,,,,,,,,,,AMNE06.jpg,AMNE15.jpg,AMSA12.jpg,AMSA20.jpg,AMSA20.jpg,MS,2,num_4,16,num_4,0.800116941566,,,2017_Dec_07_1122,59.9960744807,MAFE4ImagesEEG,001,202379,
AMNE23.JPG,AMNE24.JPG,AMNE22.JPG,AMSA24.JPG,AMSA22.JPG,AMSA23.JPG,0,8,8,9,,,,,,,,,,,,,,,,,,,,,,,AMSA09.jpg,AMNE11.jpg,AMNE06.jpg,AMSA10.jpg,AMSA09.jpg,MS,2,num_8,16,num_8,0.733470866224,,,2017_Dec_07_1122,59.9960744807,MAFE4ImagesEEG,001,202379,
AFNE22.JPG,AFSA24.JPG,AFSA22.JPG,AFNE25.JPG,AFNE24.JPG,AFSA25.JPG,0,9,9,6,,,,,,,,,,,,,,,,,,,,,,,AMSA16.jpg,AMNE06.jpg,AMNE02.jpg,AMSA06.jpg,AMSA16.jpg,MS,2,num_8,16,num_8,0.816793775652,,,2017_Dec_07_1122,59.9960744807,MAFE4ImagesEEG,001,202379,
AMSA21.JPG,AMNE23.JPG,AMNE21.JPG,AMSA25.JPG,AMNE25.JPG,AMSA23.JPG,,,,,0,0,0,5,,,,,,,,,,,,,,,,,,,AFNE15.jpg,AFNE04.jpg,AFSA08.jpg,AFSA13.jpg,AFNE04.jpg,FN,3,num_6,16,num_6,0.83343757363,,,2017_Dec_07_1122,59.9960744807,MAFE4ImagesEEG,001,202379,
AMNE22.JPG,AMSA24.JPG,AMSA22.JPG,AMNE25.JPG,AMNE24.JPG,AMSA25.JPG,,,,,0,1,1,7,,,,,,,,,,,,,,,,,,,AFNE11.jpg,AFSA03.jpg,AFSA05.jpg,AFNE13.jpg,AFSA03.jpg,FS,4,num_6,16,num_6,0.633340261178,,,2017_Dec_07_1122,59.9960744807,MAFE4ImagesEEG,001,202379,
AFSA21.JPG,AFNE22.JPG,AFNE21.JPG,AFSA23.JPG,AFSA22.JPG,AFNE23.JPG,,,,,0,2,2,0,,,,,,,,,,,,,,,,,,,AFNE04.jpg,AFNE17.jpg,AFSA20.jpg,AFSA18.jpg,AFNE04.jpg,FN,3,num_8,16,num_8,0.866905104369,,,2017_Dec_07_1122,59.9960744807,MAFE4ImagesEEG,001,202379,
AFNE23.JPG,AFNE24.JPG,AFNE22.JPG,AFSA24.JPG,AFSA22.JPG,AFSA23.JPG,,,,,0,3,3,8,,,,,,,,,,,,,,,,,,,AFSA19.jpg,AFSA03.jpg,AFNE02.jpg,AFNE13.jpg,AFNE02.jpg,FN,3,num_2,32,num_4,0.71674560057,,,2017_Dec_07_1122,59.9960744807,MAFE4ImagesEEG,001,202379,
AMSA25.JPG,AMNE24.JPG,AMSA24.JPG,AMNE26.JPG,AMSA21.JPG,AMNE25.JPG,,,,,0,4,4,3,,,,,,,,,,,,,,,,,,,AFNE08.jpg,AFSA01.jpg,AFNE12.jpg,AFSA07.jpg,AFNE08.jpg,FN,3,num_8,16,num_8,0.800125601469,,,2017_Dec_07_1122,59.9960744807,MAFE4ImagesEEG,001,202379,
AMNE23.JPG,AMNE24.JPG,AMNE22.JPG,AMSA24.JPG,AMSA22.JPG,AMSA23.JPG,,,,,0,5,5,9,,,,,,,,,,,,,,,,,,,AFNE02.jpg,AFSA03.jpg,AFNE11.jpg,AFSA17.jpg,AFSA17.jpg,FS,4,num_4,16,num_4,0.883445624262,,,2017_Dec_07_1122,59.9960744807,MAFE4ImagesEEG,001,202379,
AFNE22.JPG,AFSA24.JPG,AFSA22.JPG,AFNE25.JPG,AFNE24.JPG,AFSA25.JPG,,,,,0,6,6,6,,,,,,,,,,,,,,,,,,,AFSA04.jpg,AFSA01.jpg,AFNE19.jpg,AFNE20.jpg,AFSA04.jpg,FS,4,num_8,16,num_8,0.666775076417,,,2017_Dec_07_1122,59.9960744807,MAFE4ImagesEEG,001,202379,
AMSA21.JPG,AMNE22.JPG,AMNE21.JPG,AMSA23.JPG,AMSA22.JPG,AMNE23.JPG,,,,,0,7,7,1,,,,,,,,,,,,,,,,,,,AFSA04.jpg,AFNE04.jpg,AFSA02.jpg,AFNE02.jpg,AFNE04.jpg,FN,3,num_6,32,num_8,0.833470288897,,,2017_Dec_07_1122,59.9960744807,MAFE4ImagesEEG,001,202379,
AFSA25.JPG,AFNE24.JPG,AFSA24.JPG,AFNE21.JPG,AFSA21.JPG,AFNE25.JPG,,,,,0,8,8,2,,,,,,,,,,,,,,,,,,,AFNE17.jpg,AFSA03.jpg,AFSA01.jpg,AFNE02.jpg,AFSA03.jpg,FS,4,num_6,32,num_2,1.1501280712,,,2017_Dec_07_1122,59.9960744807,MAFE4ImagesEEG,001,202379,
AFSA21.JPG,AFNE23.JPG,AFNE21.JPG,AFSA25.JPG,AFNE25.JPG,AFSA23.JPG,,,,,0,9,9,4,,,,,,,,,,,,,,,,,,,AFSA05.jpg,AFNE20.jpg,AFSA14.jpg,AFNE11.jpg,AFNE20.jpg,FN,3,num_6,32,num_4,0.700108858757,,,2017_Dec_07_1122,59.9960744807,MAFE4ImagesEEG,001,202379,
AFNE23.JPG,AFNE24.JPG,AFNE22.JPG,AFSA24.JPG,AFSA22.JPG,AFSA23.JPG,,,,,,,,,0,0,0,8,,,,,,,,,,,,,,,AMNE15.jpg,AMNE20.jpg,AMSA16.jpg,AMSA01.jpg,AMSA01.jpg,MS,2,num_4,32,num_6,1.03342551389,,,2017_Dec_07_1122,59.9960744807,MAFE4ImagesEEG,001,202379,
AMSA21.JPG,AMNE23.JPG,AMNE21.JPG,AMSA25.JPG,AMNE25.JPG,AMSA23.JPG,,,,,,,,,0,1,1,5,,,,,,,,,,,,,,,AMNE04.jpg,AMNE06.jpg,AMSA13.jpg,AMSA15.jpg,AMNE06.jpg,MN,1,num_6,32,num_8,1.26681074267,,,2017_Dec_07_1122,59.9960744807,MAFE4ImagesEEG,001,202379,
AFNE22.JPG,AFSA24.JPG,AFSA22.JPG,AFNE25.JPG,AFNE24.JPG,AFSA25.JPG,,,,,,,,,0,2,2,6,,,,,,,,,,,,,,,AMNE04.jpg,AMSA18.jpg,AMNE01.jpg,AMSA11.jpg,AMSA11.jpg,MS,2,num_4,16,num_4,1.58339603781,,,2017_Dec_07_1122,59.9960744807,MAFE4ImagesEEG,001,202379,
AFSA21.JPG,AFNE23.JPG,AFNE21.JPG,AFSA25.JPG,AFNE25.JPG,AFSA23.JPG,,,,,,,,,0,3,3,4,,,,,,,,,,,,,,,AMSA02.jpg,AMNE08.jpg,AMNE04.jpg,AMSA06.jpg,AMSA06.jpg,MS,2,num_4,16,num_4,0.650132240728,,,2017_Dec_07_1122,59.9960744807,MAFE4ImagesEEG,001,202379,
AMNE22.JPG,AMSA24.JPG,AMSA22.JPG,AMNE25.JPG,AMNE24.JPG,AMSA25.JPG,,,,,,,,,0,4,4,7,,,,,,,,,,,,,,,AMSA09.jpg,AMSA06.jpg,AMNE07.jpg,AMNE02.jpg,AMNE07.jpg,MN,1,num_2,16,num_2,1.25011883397,,,2017_Dec_07_1122,59.9960744807,MAFE4ImagesEEG,001,202379,
AMNE23.JPG,AMNE24.JPG,AMNE22.JPG,AMSA24.JPG,AMSA22.JPG,AMSA23.JPG,,,,,,,,,0,5,5,9,,,,,,,,,,,,,,,AMSA01.jpg,AMNE20.jpg,AMNE18.jpg,AMSA07.jpg,AMNE20.jpg,MN,1,num_6,16,num_6,1.91671461728,,,2017_Dec_07_1122,59.9960744807,MAFE4ImagesEEG,001,202379,
AMSA25.JPG,AMNE24.JPG,AMSA24.JPG,AMNE26.JPG,AMSA21.JPG,AMNE25.JPG,,,,,,,,,0,6,6,3,,,,,,,,,,,,,,,AMSA15.jpg,AMNE02.jpg,AMSA08.jpg,AMNE11.jpg,AMSA15.jpg,MS,2,num_8,16,num_8,1.08340405626,,,2017_Dec_07_1122,59.9960744807,MAFE4ImagesEEG,001,202379,
AFSA25.JPG,AFNE24.JPG,AFSA24.JPG,AFNE21.JPG,AFSA21.JPG,AFNE25.JPG,,,,,,,,,0,7,7,2,,,,,,,,,,,,,,,AMSA08.jpg,AMSA13.jpg,AMNE10.jpg,AMNE09.jpg,AMSA08.jpg,MS,2,num_8,16,num_8,0.883527412778,,,2017_Dec_07_1122,59.9960744807,MAFE4ImagesEEG,001,202379,
AMSA21.JPG,AMNE22.JPG,AMNE21.JPG,AMSA23.JPG,AMSA22.JPG,AMNE23.JPG,,,,,,,,,0,8,8,1,,,,,,,,,,,,,,,AMNE10.jpg,AMSA10.jpg,AMNE17.jpg,AMSA04.jpg,AMSA10.jpg,MS,2,num_6,16,num_6,0.700126178795,,,2017_Dec_07_1122,59.9960744807,MAFE4ImagesEEG,001,202379,
AFSA21.JPG,AFNE22.JPG,AFNE21.JPG,AFSA23.JPG,AFSA22.JPG,AFNE23.JPG,,,,,,,,,0,9,9,0,,,,,,,,,,,,,,,AMSA19.jpg,AMSA03.jpg,AMNE13.jpg,AMNE04.jpg,AMNE04.jpg,MN,1,num_4,16,num_4,0.700121688424,,,2017_Dec_07_1122,59.9960744807,MAFE4ImagesEEG,001,202379,
AFSA21.JPG,AFNE23.JPG,AFNE21.JPG,AFSA25.JPG,AFNE25.JPG,AFSA23.JPG,,,,,,,,,,,,,0,0,0,4,,,,,,,,,,,AFNE01.jpg,AFSA17.jpg,AFSA16.jpg,AFNE10.jpg,AFNE10.jpg,FN,3,num_4,16,num_4,1.35005603312,,,2017_Dec_07_1122,59.9960744807,MAFE4ImagesEEG,001,202379,
AMSA21.JPG,AMNE23.JPG,AMNE21.JPG,AMSA25.JPG,AMNE25.JPG,AMSA23.JPG,,,,,,,,,,,,,0,1,1,5,,,,,,,,,,,AFNE06.jpg,AFSA04.jpg,AFNE10.jpg,AFSA09.jpg,AFSA09.jpg,FS,4,num_4,16,num_4,0.650126146851,,,2017_Dec_07_1122,59.9960744807,MAFE4ImagesEEG,001,202379,
AMNE22.JPG,AMSA24.JPG,AMSA22.JPG,AMNE25.JPG,AMNE24.JPG,AMSA25.JPG,,,,,,,,,,,,,0,2,2,7,,,,,,,,,,,AFNE04.jpg,AFSA16.jpg,AFSA10.jpg,AFNE06.jpg,AFSA16.jpg,FS,4,num_6,32,num_2,0.566807407187,,,2017_Dec_07_1122,59.9960744807,MAFE4ImagesEEG,001,202379,
AMSA21.JPG,AMNE22.JPG,AMNE21.JPG,AMSA23.JPG,AMSA22.JPG,AMNE23.JPG,,,,,,,,,,,,,0,3,3,1,,,,,,,,,,,AFNE03.jpg,AFSA09.jpg,AFNE09.jpg,AFSA13.jpg,AFNE03.jpg,FN,3,num_8,32,num_2,1.05011293222,,,2017_Dec_07_1122,59.9960744807,MAFE4ImagesEEG,001,202379,
AMNE23.JPG,AMNE24.JPG,AMNE22.JPG,AMSA24.JPG,AMSA22.JPG,AMSA23.JPG,,,,,,,,,,,,,0,4,4,9,,,,,,,,,,,AFSA10.jpg,AFSA12.jpg,AFNE05.jpg,AFNE10.jpg,AFNE05.jpg,FN,3,num_2,16,num_2,1.08340245252,,,2017_Dec_07_1122,59.9960744807,MAFE4ImagesEEG,001,202379,
AMSA25.JPG,AMNE24.JPG,AMSA24.JPG,AMNE26.JPG,AMSA21.JPG,AMNE25.JPG,,,,,,,,,,,,,0,5,5,3,,,,,,,,,,,AFSA14.jpg,AFNE10.jpg,AFSA08.jpg,AFNE04.jpg,AFSA14.jpg,FS,4,num_8,16,num_8,0.65016720118,,,2017_Dec_07_1122,59.9960744807,MAFE4ImagesEEG,001,202379,
AFNE23.JPG,AFNE24.JPG,AFNE22.JPG,AFSA24.JPG,AFSA22.JPG,AFSA23.JPG,,,,,,,,,,,,,0,6,6,8,,,,,,,,,,,AFSA20.jpg,AFSA11.jpg,AFNE05.jpg,AFNE20.jpg,AFNE05.jpg,FN,3,num_2,16,num_2,0.85015482083,,,2017_Dec_07_1122,59.9960744807,MAFE4ImagesEEG,001,202379,
AFNE22.JPG,AFSA24.JPG,AFSA22.JPG,AFNE25.JPG,AFNE24.JPG,AFSA25.JPG,,,,,,,,,,,,,0,7,7,6,,,,,,,,,,,AFSA11.jpg,AFNE14.jpg,AFNE05.jpg,AFSA19.jpg,AFSA11.jpg,FS,4,num_8,16,num_8,0.73353116517,,,2017_Dec_07_1122,59.9960744807,MAFE4ImagesEEG,001,202379,
AFSA25.JPG,AFNE24.JPG,AFSA24.JPG,AFNE21.JPG,AFSA21.JPG,AFNE25.JPG,,,,,,,,,,,,,0,8,8,2,,,,,,,,,,,AFSA04.jpg,AFSA07.jpg,AFNE13.jpg,AFNE12.jpg,AFSA04.jpg,FS,4,num_8,16,num_8,0.966830756748,,,2017_Dec_07_1122,59.9960744807,MAFE4ImagesEEG,001,202379,
AFSA21.JPG,AFNE22.JPG,AFNE21.JPG,AFSA23.JPG,AFSA22.JPG,AFNE23.JPG,,,,,,,,,,,,,0,9,9,0,,,,,,,,,,,AFSA15.jpg,AFNE03.jpg,AFNE13.jpg,AFSA04.jpg,AFSA04.jpg,FS,4,num_4,16,num_4,0.516768244794,,,2017_Dec_07_1122,59.9960744807,MAFE4ImagesEEG,001,202379,
AMSA21.JPG,AMNE23.JPG,AMNE21.JPG,AMSA25.JPG,AMNE25.JPG,AMSA23.JPG,,,,,,,,,,,,,,,,,0,0,0,5,,,,,,,AMNE04.jpg,AMSA08.jpg,AMSA15.jpg,AMNE16.jpg,AMNE16.jpg,MN,1,num_4,32,num_6,1.18342721369,,,2017_Dec_07_1122,59.9960744807,MAFE4ImagesEEG,001,202379,
AFNE23.JPG,AFNE24.JPG,AFNE22.JPG,AFSA24.JPG,AFSA22.JPG,AFSA23.JPG,,,,,,,,,,,,,,,,,0,1,1,8,,,,,,,AMNE14.jpg,AMSA09.jpg,AMNE05.jpg,AMSA03.jpg,AMNE14.jpg,MN,1,num_8,16,num_8,0.566658904776,,,2017_Dec_07_1122,59.9960744807,MAFE4ImagesEEG,001,202379,
AMNE22.JPG,AMSA24.JPG,AMSA22.JPG,AMNE25.JPG,AMNE24.JPG,AMSA25.JPG,,,,,,,,,,,,,,,,,0,2,2,7,,,,,,,AMSA03.jpg,AMSA20.jpg,AMNE02.jpg,AMNE14.jpg,AMSA03.jpg,MS,2,num_8,32,num_6,1.70007967157,,,2017_Dec_07_1122,59.9960744807,MAFE4ImagesEEG,001,202379,
AFNE22.JPG,AFSA24.JPG,AFSA22.JPG,AFNE25.JPG,AFNE24.JPG,AFSA25.JPG,,,,,,,,,,,,,,,,,0,3,3,6,,,,,,,AMNE14.jpg,AMSA20.jpg,AMNE20.jpg,AMSA08.jpg,AMSA20.jpg,MS,2,num_6,16,num_6,1.45006475714,,,2017_Dec_07_1122,59.9960744807,MAFE4ImagesEEG,001,202379,
AFSA21.JPG,AFNE22.JPG,AFNE21.JPG,AFSA23.JPG,AFSA22.JPG,AFNE23.JPG,,,,,,,,,,,,,,,,,0,4,4,0,,,,,,,AMNE17.jpg,AMSA03.jpg,AMSA02.jpg,AMNE11.jpg,AMNE17.jpg,MN,1,num_8,16,num_8,0.566800671397,,,2017_Dec_07_1122,59.9960744807,MAFE4ImagesEEG,001,202379,
AFSA25.JPG,AFNE24.JPG,AFSA24.JPG,AFNE21.JPG,AFSA21.JPG,AFNE25.JPG,,,,,,,,,,,,,,,,,0,5,5,2,,,,,,,AMNE01.jpg,AMSA15.jpg,AMNE18.jpg,AMSA12.jpg,AMNE01.jpg,MN,1,num_8,16,num_8,0.833518079016,,,2017_Dec_07_1122,59.9960744807,MAFE4ImagesEEG,001,202379,
AMNE23.JPG,AMNE24.JPG,AMNE22.JPG,AMSA24.JPG,AMSA22.JPG,AMSA23.JPG,,,,,,,,,,,,,,,,,0,6,6,9,,,,,,,AMSA19.jpg,AMNE12.jpg,AMSA11.jpg,AMNE10.jpg,AMSA11.jpg,MS,2,num_2,16,num_2,0.850111520849,,,2017_Dec_07_1122,59.9960744807,MAFE4ImagesEEG,001,202379,
AMSA21.JPG,AMNE22.JPG,AMNE21.JPG,AMSA23.JPG,AMSA22.JPG,AMNE23.JPG,,,,,,,,,,,,,,,,,0,7,7,1,,,,,,,AMSA16.jpg,AMNE15.jpg,AMSA09.jpg,AMNE17.jpg,AMNE17.jpg,MN,1,num_4,16,num_4,1.05015013786,,,2017_Dec_07_1122,59.9960744807,MAFE4ImagesEEG,001,202379,
AMSA25.JPG,AMNE24.JPG,AMSA24.JPG,AMNE26.JPG,AMSA21.JPG,AMNE25.JPG,,,,,,,,,,,,,,,,,0,8,8,3,,,,,,,AMNE08.jpg,AMSA20.jpg,AMNE19.jpg,AMSA05.jpg,AMSA20.jpg,MS,2,num_6,16,num_6,0.683342859149,,,2017_Dec_07_1122,59.9960744807,MAFE4ImagesEEG,001,202379,
AFSA21.JPG,AFNE23.JPG,AFNE21.JPG,AFSA25.JPG,AFNE25.JPG,AFSA23.JPG,,,,,,,,,,,,,,,,,0,9,9,4,,,,,,,AMSA07.jpg,AMNE01.jpg,AMNE15.jpg,AMSA01.jpg,AMSA07.jpg,MS,2,num_8,16,num_8,0.500197896035,,,2017_Dec_07_1122,59.9960744807,MAFE4ImagesEEG,001,202379,
AFSA21.JPG,AFNE23.JPG,AFNE21.JPG,AFSA25.JPG,AFNE25.JPG,AFSA23.JPG,,,,,,,,,,,,,,,,,,,,,0,0,0,4,,,AFNE20.jpg,AFSA06.jpg,AFSA02.jpg,AFNE09.jpg,AFNE09.jpg,FN,3,num_4,32,num_2,1.41673033335,,,2017_Dec_07_1122,59.9960744807,MAFE4ImagesEEG,001,202379,
AFSA21.JPG,AFNE22.JPG,AFNE21.JPG,AFSA23.JPG,AFSA22.JPG,AFNE23.JPG,,,,,,,,,,,,,,,,,,,,,0,1,1,0,,,AFNE20.jpg,AFSA06.jpg,AFSA17.jpg,AFNE19.jpg,AFNE20.jpg,FN,3,num_8,16,num_8,0.566780464957,,,2017_Dec_07_1122,59.9960744807,MAFE4ImagesEEG,001,202379,
AMSA21.JPG,AMNE23.JPG,AMNE21.JPG,AMSA25.JPG,AMNE25.JPG,AMSA23.JPG,,,,,,,,,,,,,,,,,,,,,0,2,2,5,,,AFSA15.jpg,AFNE12.jpg,AFNE04.jpg,AFSA03.jpg,AFNE12.jpg,FN,3,num_6,16,num_6,0.816640462261,,,2017_Dec_07_1122,59.9960744807,MAFE4ImagesEEG,001,202379,
AMNE22.JPG,AMSA24.JPG,AMSA22.JPG,AMNE25.JPG,AMNE24.JPG,AMSA25.JPG,,,,,,,,,,,,,,,,,,,,,0,3,3,7,,,AFSA10.jpg,AFNE03.jpg,AFSA16.jpg,AFNE02.jpg,AFNE03.jpg,FN,3,num_6,32,num_4,0.783434654819,,,2017_Dec_07_1122,59.9960744807,MAFE4ImagesEEG,001,202379,
AFNE22.JPG,AFSA24.JPG,AFSA22.JPG,AFNE25.JPG,AFNE24.JPG,AFSA25.JPG,,,,,,,,,,,,,,,,,,,,,0,4,4,6,,,AFNE06.jpg,AFSA17.jpg,AFNE02.jpg,AFSA08.jpg,AFNE02.jpg,FN,3,num_2,32,num_4,0.700086086523,,,2017_Dec_07_1122,59.9960744807,MAFE4ImagesEEG,001,202379,
AMSA21.JPG,AMNE22.JPG,AMNE21.JPG,AMSA23.JPG,AMSA22.JPG,AMNE23.JPG,,,,,,,,,,,,,,,,,,,,,0,5,5,1,,,AFNE20.jpg,AFNE16.jpg,AFSA14.jpg,AFSA17.jpg,AFSA14.jpg,FS,4,num_2,32,num_4,0.800117262173,,,2017_Dec_07_1122,59.9960744807,MAFE4ImagesEEG,001,202379,
AFSA25.JPG,AFNE24.JPG,AFSA24.JPG,AFNE21.JPG,AFSA21.JPG,AFNE25.JPG,,,,,,,,,,,,,,,,,,,,,0,6,6,2,,,AFSA02.jpg,AFNE04.jpg,AFNE18.jpg,AFSA10.jpg,AFSA02.jpg,FS,4,num_8,16,num_8,0.78345037112,,,2017_Dec_07_1122,59.9960744807,MAFE4ImagesEEG,001,202379,
AMNE23.JPG,AMNE24.JPG,AMNE22.JPG,AMSA24.JPG,AMSA22.JPG,AMSA23.JPG,,,,,,,,,,,,,,,,,,,,,0,7,7,9,,,AFNE16.jpg,AFSA02.jpg,AFNE02.jpg,AFSA20.jpg,AFSA20.jpg,FS,4,num_4,16,num_4,0.666797207436,,,2017_Dec_07_1122,59.9960744807,MAFE4ImagesEEG,001,202379,
AFNE23.JPG,AFNE24.JPG,AFNE22.JPG,AFSA24.JPG,AFSA22.JPG,AFSA23.JPG,,,,,,,,,,,,,,,,,,,,,0,8,8,8,,,AFNE12.jpg,AFNE02.jpg,AFSA06.jpg,AFSA14.jpg,AFSA14.jpg,FS,4,num_4,16,num_4,1.03342936258,,,2017_Dec_07_1122,59.9960744807,MAFE4ImagesEEG,001,202379,
AMSA25.JPG,AMNE24.JPG,AMSA24.JPG,AMNE26.JPG,AMSA21.JPG,AMNE25.JPG,,,,,,,,,,,,,,,,,,,,,0,9,9,3,,,AFNE04.jpg,AFNE01.jpg,AFSA15.jpg,AFSA03.jpg,AFSA03.jpg,FS,4,num_4,32,num_6,0.700156648876,,,2017_Dec_07_1122,59.9960744807,MAFE4ImagesEEG,001,202379,
,,,,,,,,,,,,,,,,,,,,,,,,,,,,,,,,,,,,,,,,,,,space,8.33284837566,2017_Dec_07_1122,59.9960744807,MAFE4ImagesEEG,001,202379,
AFNE01.JPG,AFNE01.JPG,AFNE01.JPG,AFNE01.JPG,AFNE01.JPG,AFNE01.JPG,0,0,0,6,,,,,,,,,,,,,,,,,,,,,,,AMSA05.jpg,AMSA07.jpg,AMNE02.jpg,AMNE18.jpg,AMSA07.jpg,MS,2,num_6,16,num_6,0.766781234881,,,2017_Dec_07_1122,59.9960744807,MAFE4ImagesEEG,001,202379,
AFNE01.JPG,AFNE01.JPG,AFNE01.JPG,AFNE01.JPG,AFNE01.JPG,AFNE01.JPG,0,1,1,8,,,,,,,,,,,,,,,,,,,,,,,AMSA09.jpg,AMSA15.jpg,AMNE15.jpg,AMNE03.jpg,AMNE03.jpg,MN,1,num_4,16,num_4,0.866774563212,,,2017_Dec_07_1122,59.9960744807,MAFE4ImagesEEG,001,202379,
AFNE01.JPG,AFNE01.JPG,AFNE01.JPG,AFNE01.JPG,AFNE01.JPG,AFNE01.JPG,0,2,2,1,,,,,,,,,,,,,,,,,,,,,,,AMSA11.jpg,AMNE04.jpg,AMSA20.jpg,AMNE03.jpg,AMNE03.jpg,MN,1,num_4,32,num_6,1.0500920841,,,2017_Dec_07_1122,59.9960744807,MAFE4ImagesEEG,001,202379,
AFNE01.JPG,AFNE01.JPG,AFNE01.JPG,AFNE01.JPG,AFNE01.JPG,AFNE01.JPG,0,3,3,5,,,,,,,,,,,,,,,,,,,,,,,AMSA17.jpg,AMSA16.jpg,AMNE11.jpg,AMNE06.jpg,AMSA17.jpg,MS,2,num_8,16,num_8,0.883451397531,,,2017_Dec_07_1122,59.9960744807,MAFE4ImagesEEG,001,202379,
AFNE01.JPG,AFNE01.JPG,AFNE01.JPG,AFNE01.JPG,AFNE01.JPG,AFNE01.JPG,0,4,4,3,,,,,,,,,,,,,,,,,,,,,,,AMNE04.jpg,AMNE05.jpg,AMSA09.jpg,AMSA13.jpg,AMNE05.jpg,MN,1,num_6,16,num_6,0.816760098096,,,2017_Dec_07_1122,59.9960744807,MAFE4ImagesEEG,001,202379,
AFNE01.JPG,AFNE01.JPG,AFNE01.JPG,AFNE01.JPG,AFNE01.JPG,AFNE01.JPG,0,5,5,9,,,,,,,,,,,,,,,,,,,,,,,AMNE20.jpg,AMNE07.jpg,AMSA12.jpg,AMSA06.jpg,AMNE07.jpg,MN,1,num_6,16,num_6,0.850161877228,,,2017_Dec_07_1122,59.9960744807,MAFE4ImagesEEG,001,202379,
AFNE01.JPG,AFNE01.JPG,AFNE01.JPG,AFNE01.JPG,AFNE01.JPG,AFNE01.JPG,0,6,6,4,,,,,,,,,,,,,,,,,,,,,,,AMSA16.jpg,AMSA05.jpg,AMNE12.jpg,AMNE17.jpg,AMSA16.jpg,MS,2,num_8,16,num_8,0.616589977872,,,2017_Dec_07_1122,59.9960744807,MAFE4ImagesEEG,001,202379,
AFNE01.JPG,AFNE01.JPG,AFNE01.JPG,AFNE01.JPG,AFNE01.JPG,AFNE01.JPG,0,7,7,2,,,,,,,,,,,,,,,,,,,,,,,AMNE03.jpg,AMSA14.jpg,AMNE16.jpg,AMSA03.jpg,AMSA14.jpg,MS,2,num_6,16,num_6,0.849982583895,,,2017_Dec_07_1122,59.9960744807,MAFE4ImagesEEG,001,202379,
AFNE01.JPG,AFNE01.JPG,AFNE01.JPG,AFNE01.JPG,AFNE01.JPG,AFNE01.JPG,0,8,8,0,,,,,,,,,,,,,,,,,,,,,,,AMNE08.jpg,AMSA11.jpg,AMSA17.jpg,AMNE01.jpg,AMNE01.jpg,MN,1,num_4,16,num_4,1.50008627865,,,2017_Dec_07_1122,59.9960744807,MAFE4ImagesEEG,001,202379,
AFNE01.JPG,AFNE01.JPG,AFNE01.JPG,AFNE01.JPG,AFNE01.JPG,AFNE01.JPG,0,9,9,7,,,,,,,,,,,,,,,,,,,,,,,AMSA02.jpg,AMNE20.jpg,AMNE03.jpg,AMSA11.jpg,AMNE03.jpg,MN,1,num_2,32,num_8,1.06677821977,,,2017_Dec_07_1122,59.9960744807,MAFE4ImagesEEG,001,202379,
AFNE01.JPG,AFNE01.JPG,AFNE01.JPG,AFNE01.JPG,AFNE01.JPG,AFNE01.JPG,1,0,10,9,,,,,,,,,,,,,,,,,,,,,,,AMSA05.jpg,AMNE19.jpg,AMNE18.jpg,AMSA14.jpg,AMSA05.jpg,MS,2,num_8,16,num_8,0.666802018648,,,2017_Dec_07_1122,59.9960744807,MAFE4ImagesEEG,001,202379,
AFNE01.JPG,AFNE01.JPG,AFNE01.JPG,AFNE01.JPG,AFNE01.JPG,AFNE01.JPG,1,1,11,3,,,,,,,,,,,,,,,,,,,,,,,AMSA20.jpg,AMSA10.jpg,AMNE11.jpg,AMNE02.jpg,AMNE11.jpg,MN,1,num_2,16,num_2,0.966765005374,,,2017_Dec_07_1122,59.9960744807,MAFE4ImagesEEG,001,202379,
AFNE01.JPG,AFNE01.JPG,AFNE01.JPG,AFNE01.JPG,AFNE01.JPG,AFNE01.JPG,1,2,12,4,,,,,,,,,,,,,,,,,,,,,,,AMNE02.jpg,AMNE04.jpg,AMSA09.jpg,AMSA13.jpg,AMNE04.jpg,MN,1,num_6,16,num_6,0.883463264676,,,2017_Dec_07_1122,59.9960744807,MAFE4ImagesEEG,001,202379,
AFNE01.JPG,AFNE01.JPG,AFNE01.JPG,AFNE01.JPG,AFNE01.JPG,AFNE01.JPG,1,3,13,2,,,,,,,,,,,,,,,,,,,,,,,AMNE01.jpg,AMSA04.jpg,AMNE18.jpg,AMSA06.jpg,AMSA06.jpg,MS,2,num_4,16,num_4,0.700183911715,,,2017_Dec_07_1122,59.9960744807,MAFE4ImagesEEG,001,202379,
AFNE01.JPG,AFNE01.JPG,AFNE01.JPG,AFNE01.JPG,AFNE01.JPG,AFNE01.JPG,1,4,14,6,,,,,,,,,,,,,,,,,,,,,,,AMNE17.jpg,AMSA15.jpg,AMNE03.jpg,AMSA16.jpg,AMSA15.jpg,MS,2,num_6,16,num_6,0.633490687935,,,2017_Dec_07_1122,59.9960744807,MAFE4ImagesEEG,001,202379,
AFNE01.JPG,AFNE01.JPG,AFNE01.JPG,AFNE01.JPG,AFNE01.JPG,AFNE01.JPG,1,5,15,8,,,,,,,,,,,,,,,,,,,,,,,AMSA02.jpg,AMSA18.jpg,AMNE15.jpg,AMNE08.jpg,AMSA18.jpg,MS,2,num_6,16,num_6,0.666810037103,,,2017_Dec_07_1122,59.9960744807,MAFE4ImagesEEG,001,202379,
AFNE01.JPG,AFNE01.JPG,AFNE01.JPG,AFNE01.JPG,AFNE01.JPG,AFNE01.JPG,1,6,16,1,,,,,,,,,,,,,,,,,,,,,,,AMSA18.jpg,AMNE12.jpg,AMSA02.jpg,AMNE08.jpg,AMSA18.jpg,MS,2,num_8,16,num_8,0.616649955977,,,2017_Dec_07_1122,59.9960744807,MAFE4ImagesEEG,001,202379,
AFNE01.JPG,AFNE01.JPG,AFNE01.JPG,AFNE01.JPG,AFNE01.JPG,AFNE01.JPG,1,7,17,5,,,,,,,,,,,,,,,,,,,,,,,AMSA19.jpg,AMNE09.jpg,AMNE04.jpg,AMSA18.jpg,AMSA19.jpg,MS,2,num_8,16,num_8,0.866667115595,,,2017_Dec_07_1122,59.9960744807,MAFE4ImagesEEG,001,202379,
AFNE01.JPG,AFNE01.JPG,AFNE01.JPG,AFNE01.JPG,AFNE01.JPG,AFNE01.JPG,1,8,18,0,,,,,,,,,,,,,,,,,,,,,,,AMSA02.jpg,AMNE11.jpg,AMSA03.jpg,AMNE18.jpg,AMSA02.jpg,MS,2,num_8,16,num_8,0.75012107892,,,2017_Dec_07_1122,59.9960744807,MAFE4ImagesEEG,001,202379,
AFNE01.JPG,AFNE01.JPG,AFNE01.JPG,AFNE01.JPG,AFNE01.JPG,AFNE01.JPG,1,9,19,7,,,,,,,,,,,,,,,,,,,,,,,AMNE09.jpg,AMSA07.jpg,AMSA17.jpg,AMNE11.jpg,AMNE09.jpg,MN,1,num_8,32,num_4,1.08341848967,,,2017_Dec_07_1122,59.9960744807,MAFE4ImagesEEG,001,202379,
AFNE01.JPG,AFNE01.JPG,AFNE01.JPG,AFNE01.JPG,AFNE01.JPG,AFNE01.JPG,2,0,20,0,,,,,,,,,,,,,,,,,,,,,,,AMSA09.jpg,AMNE05.jpg,AMSA02.jpg,AMNE20.jpg,AMNE20.jpg,MN,1,num_4,16,num_4,0.766639788635,,,2017_Dec_07_1122,59.9960744807,MAFE4ImagesEEG,001,202379,
AFNE01.JPG,AFNE01.JPG,AFNE01.JPG,AFNE01.JPG,AFNE01.JPG,AFNE01.JPG,2,1,21,9,,,,,,,,,,,,,,,,,,,,,,,AMNE15.jpg,AMSA14.jpg,AMSA02.jpg,AMNE09.jpg,AMSA02.jpg,MS,2,num_2,32,num_4,1.26675878279,,,2017_Dec_07_1122,59.9960744807,MAFE4ImagesEEG,001,202379,
AFNE01.JPG,AFNE01.JPG,AFNE01.JPG,AFNE01.JPG,AFNE01.JPG,AFNE01.JPG,2,2,22,2,,,,,,,,,,,,,,,,,,,,,,,AMSA20.jpg,AMNE03.jpg,AMSA07.jpg,AMNE19.jpg,AMNE03.jpg,MN,1,num_6,32,num_4,1.05013891216,,,2017_Dec_07_1122,59.9960744807,MAFE4ImagesEEG,001,202379,
AFNE01.JPG,AFNE01.JPG,AFNE01.JPG,AFNE01.JPG,AFNE01.JPG,AFNE01.JPG,2,3,23,6,,,,,,,,,,,,,,,,,,,,,,,AMSA19.jpg,AMNE18.jpg,AMSA04.jpg,AMNE11.jpg,AMSA04.jpg,MS,2,num_2,16,num_2,0.600179998903,,,2017_Dec_07_1122,59.9960744807,MAFE4ImagesEEG,001,202379,
AFNE01.JPG,AFNE01.JPG,AFNE01.JPG,AFNE01.JPG,AFNE01.JPG,AFNE01.JPG,2,4,24,8,,,,,,,,,,,,,,,,,,,,,,,AMSA19.jpg,AMNE09.jpg,AMNE07.jpg,AMSA14.jpg,AMNE09.jpg,MN,1,num_6,16,num_6,0.900113156764,,,2017_Dec_07_1122,59.9960744807,MAFE4ImagesEEG,001,202379,
AFNE01.JPG,AFNE01.JPG,AFNE01.JPG,AFNE01.JPG,AFNE01.JPG,AFNE01.JPG,2,5,25,4,,,,,,,,,,,,,,,,,,,,,,,AMSA04.jpg,AMNE04.jpg,AMNE13.jpg,AMSA20.jpg,AMNE04.jpg,MN,1,num_6,32,num_2,0.900086214766,,,2017_Dec_07_1122,59.9960744807,MAFE4ImagesEEG,001,202379,
AFNE01.JPG,AFNE01.JPG,AFNE01.JPG,AFNE01.JPG,AFNE01.JPG,AFNE01.JPG,2,6,26,7,,,,,,,,,,,,,,,,,,,,,,,AMSA01.jpg,AMSA06.jpg,AMNE01.jpg,AMNE13.jpg,AMSA06.jpg,MS,2,num_6,32,num_8,0.733491714345,,,2017_Dec_07_1122,59.9960744807,MAFE4ImagesEEG,001,202379,
AFNE01.JPG,AFNE01.JPG,AFNE01.JPG,AFNE01.JPG,AFNE01.JPG,AFNE01.JPG,2,7,27,5,,,,,,,,,,,,,,,,,,,,,,,AMNE20.jpg,AMSA13.jpg,AMNE12.jpg,AMSA07.jpg,AMSA13.jpg,MS,2,num_6,16,num_6,0.550200814614,,,2017_Dec_07_1122,59.9960744807,MAFE4ImagesEEG,001,202379,
AFNE01.JPG,AFNE01.JPG,AFNE01.JPG,AFNE01.JPG,AFNE01.JPG,AFNE01.JPG,2,8,28,1,,,,,,,,,,,,,,,,,,,,,,,AMSA10.jpg,AMNE20.jpg,AMSA08.jpg,AMNE18.jpg,AMNE18.jpg,MN,1,num_4,32,num_2,1.73342147237,,,2017_Dec_07_1122,59.9960744807,MAFE4ImagesEEG,001,202379,
AFNE01.JPG,AFNE01.JPG,AFNE01.JPG,AFNE01.JPG,AFNE01.JPG,AFNE01.JPG,2,9,29,3,,,,,,,,,,,,,,,,,,,,,,,AMNE08.jpg,AMNE14.jpg,AMSA08.jpg,AMSA11.jpg,AMSA08.jpg,MS,2,num_2,32,num_8,0.983444726095,,,2017_Dec_07_1122,59.9960744807,MAFE4ImagesEEG,001,202379,
AFNE01.JPG,AFNE01.JPG,AFNE01.JPG,AFNE01.JPG,AFNE01.JPG,AFNE01.JPG,3,0,30,9,,,,,,,,,,,,,,,,,,,,,,,AMSA09.jpg,AMNE01.jpg,AMSA13.jpg,AMNE06.jpg,AMSA13.jpg,MS,2,num_2,16,num_2,0.733518335735,,,2017_Dec_07_1122,59.9960744807,MAFE4ImagesEEG,001,202379,
AFNE01.JPG,AFNE01.JPG,AFNE01.JPG,AFNE01.JPG,AFNE01.JPG,AFNE01.JPG,3,1,31,4,,,,,,,,,,,,,,,,,,,,,,,AMSA04.jpg,AMNE08.jpg,AMNE17.jpg,AMSA11.jpg,AMSA04.jpg,MS,2,num_8,16,num_8,1.80004990706,,,2017_Dec_07_1122,59.9960744807,MAFE4ImagesEEG,001,202379,
AFNE01.JPG,AFNE01.JPG,AFNE01.JPG,AFNE01.JPG,AFNE01.JPG,AFNE01.JPG,3,2,32,7,,,,,,,,,,,,,,,,,,,,,,,AMNE04.jpg,AMNE13.jpg,AMSA05.jpg,AMSA04.jpg,AMSA05.jpg,MS,2,num_2,16,num_2,1.51673873677,,,2017_Dec_07_1122,59.9960744807,MAFE4ImagesEEG,001,202379,
AFNE01.JPG,AFNE01.JPG,AFNE01.JPG,AFNE01.JPG,AFNE01.JPG,AFNE01.JPG,3,3,33,0,,,,,,,,,,,,,,,,,,,,,,,AMNE04.jpg,AMSA11.jpg,AMSA02.jpg,AMNE15.jpg,AMNE04.jpg,MN,1,num_8,32,num_2,1.36671939632,,,2017_Dec_07_1122,59.9960744807,MAFE4ImagesEEG,001,202379,
AFNE01.JPG,AFNE01.JPG,AFNE01.JPG,AFNE01.JPG,AFNE01.JPG,AFNE01.JPG,3,4,34,6,,,,,,,,,,,,,,,,,,,,,,,AMNE08.jpg,AMSA08.jpg,AMSA17.jpg,AMNE06.jpg,AMNE06.jpg,MN,1,num_4,32,num_8,0.550165854394,,,2017_Dec_07_1122,59.9960744807,MAFE4ImagesEEG,001,202379,
AFNE01.JPG,AFNE01.JPG,AFNE01.JPG,AFNE01.JPG,AFNE01.JPG,AFNE01.JPG,3,5,35,2,,,,,,,,,,,,,,,,,,,,,,,AMSA01.jpg,AMSA16.jpg,AMNE09.jpg,AMNE08.jpg,AMNE09.jpg,MN,1,num_2,16,num_2,0.83347028913,,,2017_Dec_07_1122,59.9960744807,MAFE4ImagesEEG,001,202379,
AFNE01.JPG,AFNE01.JPG,AFNE01.JPG,AFNE01.JPG,AFNE01.JPG,AFNE01.JPG,3,6,36,8,,,,,,,,,,,,,,,,,,,,,,,AMNE13.jpg,AMSA03.jpg,AMNE06.jpg,AMSA11.jpg,AMNE13.jpg,MN,1,num_8,16,num_8,1.15013384447,,,2017_Dec_07_1122,59.9960744807,MAFE4ImagesEEG,001,202379,
AFNE01.JPG,AFNE01.JPG,AFNE01.JPG,AFNE01.JPG,AFNE01.JPG,AFNE01.JPG,3,7,37,3,,,,,,,,,,,,,,,,,,,,,,,AMNE10.jpg,AMNE05.jpg,AMSA19.jpg,AMSA06.jpg,AMNE05.jpg,MN,1,num_6,32,num_8,0.816486828262,,,2017_Dec_07_1122,59.9960744807,MAFE4ImagesEEG,001,202379,
AFNE01.JPG,AFNE01.JPG,AFNE01.JPG,AFNE01.JPG,AFNE01.JPG,AFNE01.JPG,3,8,38,5,,,,,,,,,,,,,,,,,,,,,,,AMNE11.jpg,AMSA13.jpg,AMNE15.jpg,AMSA06.jpg,AMNE11.jpg,MN,1,num_8,32,num_6,0.666793037904,,,2017_Dec_07_1122,59.9960744807,MAFE4ImagesEEG,001,202379,
AFNE01.JPG,AFNE01.JPG,AFNE01.JPG,AFNE01.JPG,AFNE01.JPG,AFNE01.JPG,3,9,39,1,,,,,,,,,,,,,,,,,,,,,,,AMNE12.jpg,AMNE18.jpg,AMSA08.jpg,AMSA11.jpg,AMSA11.jpg,MS,2,num_4,16,num_4,0.583497712156,,,2017_Dec_07_1122,59.9960744807,MAFE4ImagesEEG,001,202379,
AFNE01.JPG,AFNE01.JPG,AFNE01.JPG,AFNE01.JPG,AFNE01.JPG,AFNE01.JPG,4,0,40,9,,,,,,,,,,,,,,,,,,,,,,,AMNE18.jpg,AMSA11.jpg,AMNE13.jpg,AMSA15.jpg,AMNE13.jpg,MN,1,num_2,32,num_8,0.667078816565,,,2017_Dec_07_1122,59.9960744807,MAFE4ImagesEEG,001,202379,
AFNE01.JPG,AFNE01.JPG,AFNE01.JPG,AFNE01.JPG,AFNE01.JPG,AFNE01.JPG,4,1,41,6,,,,,,,,,,,,,,,,,,,,,,,AMSA17.jpg,AMNE18.jpg,AMNE02.jpg,AMSA10.jpg,AMNE02.jpg,MN,1,num_2,16,num_2,0.800167938927,,,2017_Dec_07_1122,59.9960744807,MAFE4ImagesEEG,001,202379,
AFNE01.JPG,AFNE01.JPG,AFNE01.JPG,AFNE01.JPG,AFNE01.JPG,AFNE01.JPG,4,2,42,7,,,,,,,,,,,,,,,,,,,,,,,AMSA16.jpg,AMNE18.jpg,AMSA18.jpg,AMNE01.jpg,AMSA16.jpg,MS,2,num_8,32,num_2,0.866648512892,,,2017_Dec_07_1122,59.9960744807,MAFE4ImagesEEG,001,202379,
AFNE01.JPG,AFNE01.JPG,AFNE01.JPG,AFNE01.JPG,AFNE01.JPG,AFNE01.JPG,4,3,43,3,,,,,,,,,,,,,,,,,,,,,,,AMSA19.jpg,AMNE05.jpg,AMNE01.jpg,AMSA16.jpg,AMNE01.jpg,MN,1,num_2,32,num_6,0.783425674075,,,2017_Dec_07_1122,59.9960744807,MAFE4ImagesEEG,001,202379,
AFNE01.JPG,AFNE01.JPG,AFNE01.JPG,AFNE01.JPG,AFNE01.JPG,AFNE01.JPG,4,4,44,8,,,,,,,,,,,,,,,,,,,,,,,AMNE15.jpg,AMSA08.jpg,AMSA10.jpg,AMNE10.jpg,AMNE10.jpg,MN,1,num_4,16,num_4,1.38351875264,,,2017_Dec_07_1122,59.9960744807,MAFE4ImagesEEG,001,202379,
AFNE01.JPG,AFNE01.JPG,AFNE01.JPG,AFNE01.JPG,AFNE01.JPG,AFNE01.JPG,4,5,45,1,,,,,,,,,,,,,,,,,,,,,,,AMSA19.jpg,AMNE07.jpg,AMNE17.jpg,AMSA20.jpg,AMNE17.jpg,MN,1,num_2,16,num_2,1.18339546048,,,2017_Dec_07_1122,59.9960744807,MAFE4ImagesEEG,001,202379,
AFNE01.JPG,AFNE01.JPG,AFNE01.JPG,AFNE01.JPG,AFNE01.JPG,AFNE01.JPG,4,6,46,2,,,,,,,,,,,,,,,,,,,,,,,AMNE04.jpg,AMNE09.jpg,AMSA04.jpg,AMSA12.jpg,AMNE09.jpg,MN,1,num_6,32,num_8,0.933459127089,,,2017_Dec_07_1122,59.9960744807,MAFE4ImagesEEG,001,202379,
AFNE01.JPG,AFNE01.JPG,AFNE01.JPG,AFNE01.JPG,AFNE01.JPG,AFNE01.JPG,4,7,47,5,,,,,,,,,,,,,,,,,,,,,,,AMSA18.jpg,AMNE14.jpg,AMNE04.jpg,AMSA05.jpg,AMSA05.jpg,MS,2,num_4,16,num_4,1.50005741254,,,2017_Dec_07_1122,59.9960744807,MAFE4ImagesEEG,001,202379,
AFNE01.JPG,AFNE01.JPG,AFNE01.JPG,AFNE01.JPG,AFNE01.JPG,AFNE01.JPG,4,8,48,4,,,,,,,,,,,,,,,,,,,,,,,AMNE12.jpg,AMSA02.jpg,AMSA04.jpg,AMNE18.jpg,AMSA02.jpg,MS,2,num_6,16,num_6,0.533532319823,,,2017_Dec_07_1122,59.9960744807,MAFE4ImagesEEG,001,202379,
AFNE01.JPG,AFNE01.JPG,AFNE01.JPG,AFNE01.JPG,AFNE01.JPG,AFNE01.JPG,4,9,49,0,,,,,,,,,,,,,,,,,,,,,,,AMNE17.jpg,AMNE20.jpg,AMSA18.jpg,AMSA14.jpg,AMNE17.jpg,MN,1,num_8,16,num_8,1.2001091796,,,2017_Dec_07_1122,59.9960744807,MAFE4ImagesEEG,001,202379,
AFNE01.JPG,AFNE01.JPG,AFNE01.JPG,AFNE01.JPG,AFNE01.JPG,AFNE01.JPG,5,0,50,0,,,,,,,,,,,,,,,,,,,,,,,AMNE09.jpg,AMSA15.jpg,AMNE02.jpg,AMSA13.jpg,AMNE09.jpg,MN,1,num_8,16,num_8,1.28344748425,,,2017_Dec_07_1122,59.9960744807,MAFE4ImagesEEG,001,202379,
AFNE01.JPG,AFNE01.JPG,AFNE01.JPG,AFNE01.JPG,AFNE01.JPG,AFNE01.JPG,5,1,51,4,,,,,,,,,,,,,,,,,,,,,,,AMSA05.jpg,AMNE14.jpg,AMSA01.jpg,AMNE07.jpg,AMSA05.jpg,MS,2,num_8,16,num_8,0.700166591909,,,2017_Dec_07_1122,59.9960744807,MAFE4ImagesEEG,001,202379,
AFNE01.JPG,AFNE01.JPG,AFNE01.JPG,AFNE01.JPG,AFNE01.JPG,AFNE01.JPG,5,2,52,5,,,,,,,,,,,,,,,,,,,,,,,AMNE11.jpg,AMNE02.jpg,AMSA12.jpg,AMSA05.jpg,AMNE02.jpg,MN,1,num_6,16,num_6,1.15012197709,,,2017_Dec_07_1122,59.9960744807,MAFE4ImagesEEG,001,202379,
AFNE01.JPG,AFNE01.JPG,AFNE01.JPG,AFNE01.JPG,AFNE01.JPG,AFNE01.JPG,5,3,53,7,,,,,,,,,,,,,,,,,,,,,,,AMSA10.jpg,AMSA02.jpg,AMNE06.jpg,AMNE03.jpg,AMSA02.jpg,MS,2,num_6,16,num_6,0.666789509822,,,2017_Dec_07_1122,59.9960744807,MAFE4ImagesEEG,001,202379,
AFNE01.JPG,AFNE01.JPG,AFNE01.JPG,AFNE01.JPG,AFNE01.JPG,AFNE01.JPG,5,4,54,3,,,,,,,,,,,,,,,,,,,,,,,AMNE14.jpg,AMNE20.jpg,AMSA06.jpg,AMSA07.jpg,AMNE20.jpg,MN,1,num_6,32,num_8,1.56672593928,,,2017_Dec_07_1122,59.9960744807,MAFE4ImagesEEG,001,202379,
AFNE01.JPG,AFNE01.JPG,AFNE01.JPG,AFNE01.JPG,AFNE01.JPG,AFNE01.JPG,5,5,55,1,,,,,,,,,,,,,,,,,,,,,,,AMSA13.jpg,AMSA15.jpg,AMNE20.jpg,AMNE15.jpg,AMSA13.jpg,MS,2,num_8,16,num_8,0.733464451507,,,2017_Dec_07_1122,59.9960744807,MAFE4ImagesEEG,001,202379,
AFNE01.JPG,AFNE01.JPG,AFNE01.JPG,AFNE01.JPG,AFNE01.JPG,AFNE01.JPG,5,6,56,8,,,,,,,,,,,,,,,,,,,,,,,AMSA01.jpg,AMNE18.jpg,AMSA03.jpg,AMNE10.jpg,AMSA03.jpg,MS,2,num_2,16,num_2,0.616816419875,,,2017_Dec_07_1122,59.9960744807,MAFE4ImagesEEG,001,202379,
AFNE01.JPG,AFNE01.JPG,AFNE01.JPG,AFNE01.JPG,AFNE01.JPG,AFNE01.JPG,5,7,57,6,,,,,,,,,,,,,,,,,,,,,,,AMNE17.jpg,AMSA12.jpg,AMNE18.jpg,AMSA02.jpg,AMSA12.jpg,MS,2,num_6,32,num_4,0.566785276169,,,2017_Dec_07_1122,59.9960744807,MAFE4ImagesEEG,001,202379,
AFNE01.JPG,AFNE01.JPG,AFNE01.JPG,AFNE01.JPG,AFNE01.JPG,AFNE01.JPG,5,8,58,2,,,,,,,,,,,,,,,,,,,,,,,AMSA10.jpg,AMSA03.jpg,AMNE17.jpg,AMNE15.jpg,AMSA03.jpg,MS,2,num_6,16,num_6,0.583487769356,,,2017_Dec_07_1122,59.9960744807,MAFE4ImagesEEG,001,202379,
AFNE01.JPG,AFNE01.JPG,AFNE01.JPG,AFNE01.JPG,AFNE01.JPG,AFNE01.JPG,5,9,59,9,,,,,,,,,,,,,,,,,,,,,,,AMNE19.jpg,AMNE04.jpg,AMSA13.jpg,AMSA19.jpg,AMSA13.jpg,MS,2,num_2,32,num_4,0.650166239124,,,2017_Dec_07_1122,59.9960744807,MAFE4ImagesEEG,001,202379,
,,,,,,,,,,,,,,,,,,,,,,,,,,,,,,,,,,,,,,,,,,,space,5.76612853049,2017_Dec_07_1122,59.9960744807,MAFE4ImagesEEG,001,202379,
AFNE01.JPG,AFNE01.JPG,AFNE01.JPG,AFNE01.JPG,AFNE01.JPG,AFNE01.JPG,,,,,0,0,0,6,,,,,,,,,,,,,,,,,,,AFNE19.jpg,AFNE16.jpg,AFSA15.jpg,AFSA19.jpg,AFNE16.jpg,FN,3,num_6,32,num_8,0.800163769396,,,2017_Dec_07_1122,59.9960744807,MAFE4ImagesEEG,001,202379,
AFNE01.JPG,AFNE01.JPG,AFNE01.JPG,AFNE01.JPG,AFNE01.JPG,AFNE01.JPG,,,,,0,1,1,9,,,,,,,,,,,,,,,,,,,AFNE09.jpg,AFNE07.jpg,AFSA02.jpg,AFSA17.jpg,AFSA17.jpg,FS,4,num_4,32,num_2,0.266834798269,,,2017_Dec_07_1122,59.9960744807,MAFE4ImagesEEG,001,202379,
AFNE01.JPG,AFNE01.JPG,AFNE01.JPG,AFNE01.JPG,AFNE01.JPG,AFNE01.JPG,,,,,0,2,2,4,,,,,,,,,,,,,,,,,,,AFSA04.jpg,AFSA08.jpg,AFNE09.jpg,AFNE04.jpg,AFSA08.jpg,FS,4,num_6,32,num_2,0.916746049654,,,2017_Dec_07_1122,59.9960744807,MAFE4ImagesEEG,001,202379,
AFNE01.JPG,AFNE01.JPG,AFNE01.JPG,AFNE01.JPG,AFNE01.JPG,AFNE01.JPG,,,,,0,3,3,0,,,,,,,,,,,,,,,,,,,AFSA10.jpg,AFNE08.jpg,AFSA18.jpg,AFNE07.jpg,AFSA18.jpg,FS,4,num_2,16,num_2,0.61666021985,,,2017_Dec_07_1122,59.9960744807,MAFE4ImagesEEG,001,202379,
AFNE01.JPG,AFNE01.JPG,AFNE01.JPG,AFNE01.JPG,AFNE01.JPG,AFNE01.JPG,,,,,0,4,4,7,,,,,,,,,,,,,,,,,,,AFNE02.jpg,AFSA06.jpg,AFNE18.jpg,AFSA03.jpg,AFSA06.jpg,FS,4,num_6,16,num_6,0.650159824407,,,2017_Dec_07_1122,59.9960744807,MAFE4ImagesEEG,001,202379,
AFNE01.JPG,AFNE01.JPG,AFNE01.JPG,AFNE01.JPG,AFNE01.JPG,AFNE01.JPG,,,,,0,5,5,8,,,,,,,,,,,,,,,,,,,AFSA03.jpg,AFSA16.jpg,AFNE17.jpg,AFNE09.jpg,AFNE09.jpg,FN,3,num_4,16,num_4,1.66667725099,,,2017_Dec_07_1122,59.9960744807,MAFE4ImagesEEG,001,202379,
AFNE01.JPG,AFNE01.JPG,AFNE01.JPG,AFNE01.JPG,AFNE01.JPG,AFNE01.JPG,,,,,0,6,6,1,,,,,,,,,,,,,,,,,,,AFSA18.jpg,AFSA08.jpg,AFNE18.jpg,AFNE06.jpg,AFSA18.jpg,FS,4,num_8,16,num_8,0.716754581314,,,2017_Dec_07_1122,59.9960744807,MAFE4ImagesEEG,001,202379,
AFNE01.JPG,AFNE01.JPG,AFNE01.JPG,AFNE01.JPG,AFNE01.JPG,AFNE01.JPG,,,,,0,7,7,2,,,,,,,,,,,,,,,,,,,AFSA10.jpg,AFSA19.jpg,AFNE12.jpg,AFNE20.jpg,AFNE12.jpg,FN,3,num_2,16,num_2,0.81678415346,,,2017_Dec_07_1122,59.9960744807,MAFE4ImagesEEG,001,202379,
AFNE01.JPG,AFNE01.JPG,AFNE01.JPG,AFNE01.JPG,AFNE01.JPG,AFNE01.JPG,,,,,0,8,8,3,,,,,,,,,,,,,,,,,,,AFNE09.jpg,AFNE15.jpg,AFSA14.jpg,AFSA09.jpg,AFSA09.jpg,FS,4,num_4,16,num_4,0.700128423981,,,2017_Dec_07_1122,59.9960744807,MAFE4ImagesEEG,001,202379,
AFNE01.JPG,AFNE01.JPG,AFNE01.JPG,AFNE01.JPG,AFNE01.JPG,AFNE01.JPG,,,,,0,9,9,5,,,,,,,,,,,,,,,,,,,AFNE09.jpg,AFSA10.jpg,AFNE02.jpg,AFSA19.jpg,AFSA10.jpg,FS,4,num_6,16,num_6,0.583518239437,,,2017_Dec_07_1122,59.9960744807,MAFE4ImagesEEG,001,202379,
AFNE01.JPG,AFNE01.JPG,AFNE01.JPG,AFNE01.JPG,AFNE01.JPG,AFNE01.JPG,,,,,1,0,10,8,,,,,,,,,,,,,,,,,,,AFSA14.jpg,AFSA15.jpg,AFNE15.jpg,AFNE19.jpg,AFNE19.jpg,FN,3,num_4,16,num_4,1.13343295502,,,2017_Dec_07_1122,59.9960744807,MAFE4ImagesEEG,001,202379,
AFNE01.JPG,AFNE01.JPG,AFNE01.JPG,AFNE01.JPG,AFNE01.JPG,AFNE01.JPG,,,,,1,1,11,1,,,,,,,,,,,,,,,,,,,AFSA07.jpg,AFNE17.jpg,AFSA09.jpg,AFNE02.jpg,AFNE17.jpg,FN,3,num_6,32,num_4,1.18342015753,,,2017_Dec_07_1122,59.9960744807,MAFE4ImagesEEG,001,202379,
AFNE01.JPG,AFNE01.JPG,AFNE01.JPG,AFNE01.JPG,AFNE01.JPG,AFNE01.JPG,,,,,1,2,12,0,,,,,,,,,,,,,,,,,,,AFNE01.jpg,AFNE08.jpg,AFSA02.jpg,AFSA11.jpg,AFNE01.jpg,FN,3,num_8,32,num_6,0.58350701374,,,2017_Dec_07_1122,59.9960744807,MAFE4ImagesEEG,001,202379,
AFNE01.JPG,AFNE01.JPG,AFNE01.JPG,AFNE01.JPG,AFNE01.JPG,AFNE01.JPG,,,,,1,3,13,6,,,,,,,,,,,,,,,,,,,AFNE03.jpg,AFSA16.jpg,AFNE15.jpg,AFSA18.jpg,AFNE03.jpg,FN,3,num_8,16,num_8,0.65038466244,,,2017_Dec_07_1122,59.9960744807,MAFE4ImagesEEG,001,202379,
AFNE01.JPG,AFNE01.JPG,AFNE01.JPG,AFNE01.JPG,AFNE01.JPG,AFNE01.JPG,,,,,1,4,14,2,,,,,,,,,,,,,,,,,,,AFNE06.jpg,AFNE17.jpg,AFSA02.jpg,AFSA20.jpg,AFSA02.jpg,FS,4,num_2,16,num_2,1.69990101969,,,2017_Dec_07_1122,59.9960744807,MAFE4ImagesEEG,001,202379,
AFNE01.JPG,AFNE01.JPG,AFNE01.JPG,AFNE01.JPG,AFNE01.JPG,AFNE01.JPG,,,,,1,5,15,9,,,,,,,,,,,,,,,,,,,AFNE20.jpg,AFSA18.jpg,AFNE16.jpg,AFSA09.jpg,AFNE20.jpg,FN,3,num_8,16,num_8,0.683357934002,,,2017_Dec_07_1122,59.9960744807,MAFE4ImagesEEG,001,202379,
AFNE01.JPG,AFNE01.JPG,AFNE01.JPG,AFNE01.JPG,AFNE01.JPG,AFNE01.JPG,,,,,1,6,16,5,,,,,,,,,,,,,,,,,,,AFSA12.jpg,AFNE20.jpg,AFSA19.jpg,AFNE07.jpg,AFNE07.jpg,FN,3,num_4,16,num_4,1.08358623623,,,2017_Dec_07_1122,59.9960744807,MAFE4ImagesEEG,001,202379,
AFNE01.JPG,AFNE01.JPG,AFNE01.JPG,AFNE01.JPG,AFNE01.JPG,AFNE01.JPG,,,,,1,7,17,3,,,,,,,,,,,,,,,,,,,AFSA11.jpg,AFSA14.jpg,AFNE07.jpg,AFNE20.jpg,AFNE20.jpg,FN,3,num_4,32,num_6,1.31672930694,,,2017_Dec_07_1122,59.9960744807,MAFE4ImagesEEG,001,202379,
AFNE01.JPG,AFNE01.JPG,AFNE01.JPG,AFNE01.JPG,AFNE01.JPG,AFNE01.JPG,,,,,1,8,18,7,,,,,,,,,,,,,,,,,,,AFSA17.jpg,AFNE09.jpg,AFSA04.jpg,AFNE16.jpg,AFNE09.jpg,FN,3,num_6,32,num_4,0.850114087109,,,2017_Dec_07_1122,59.9960744807,MAFE4ImagesEEG,001,202379,
AFNE01.JPG,AFNE01.JPG,AFNE01.JPG,AFNE01.JPG,AFNE01.JPG,AFNE01.JPG,,,,,1,9,19,4,,,,,,,,,,,,,,,,,,,AFSA12.jpg,AFSA19.jpg,AFNE04.jpg,AFNE09.jpg,AFSA19.jpg,FS,4,num_6,16,num_6,0.550143402535,,,2017_Dec_07_1122,59.9960744807,MAFE4ImagesEEG,001,202379,
AFNE01.JPG,AFNE01.JPG,AFNE01.JPG,AFNE01.JPG,AFNE01.JPG,AFNE01.JPG,,,,,2,0,20,0,,,,,,,,,,,,,,,,,,,AFSA09.jpg,AFSA17.jpg,AFNE09.jpg,AFNE06.jpg,AFSA09.jpg,FS,4,num_8,16,num_8,0.583466921235,,,2017_Dec_07_1122,59.9960744807,MAFE4ImagesEEG,001,202379,
AFNE01.JPG,AFNE01.JPG,AFNE01.JPG,AFNE01.JPG,AFNE01.JPG,AFNE01.JPG,,,,,2,1,21,9,,,,,,,,,,,,,,,,,,,AFSA18.jpg,AFNE08.jpg,AFSA05.jpg,AFNE02.jpg,AFSA05.jpg,FS,4,num_2,16,num_2,0.649876290699,,,2017_Dec_07_1122,59.9960744807,MAFE4ImagesEEG,001,202379,
AFNE01.JPG,AFNE01.JPG,AFNE01.JPG,AFNE01.JPG,AFNE01.JPG,AFNE01.JPG,,,,,2,2,22,1,,,,,,,,,,,,,,,,,,,AFNE16.jpg,AFNE13.jpg,AFSA01.jpg,AFSA16.jpg,AFSA01.jpg,FS,4,num_2,32,num_4,0.583473977633,,,2017_Dec_07_1122,59.9960744807,MAFE4ImagesEEG,001,202379,
AFNE01.JPG,AFNE01.JPG,AFNE01.JPG,AFNE01.JPG,AFNE01.JPG,AFNE01.JPG,,,,,2,3,23,4,,,,,,,,,,,,,,,,,,,AFNE02.jpg,AFNE18.jpg,AFSA07.jpg,AFSA16.jpg,AFNE18.jpg,FN,3,num_6,32,num_2,0.650122618536,,,2017_Dec_07_1122,59.9960744807,MAFE4ImagesEEG,001,202379,
AFNE01.JPG,AFNE01.JPG,AFNE01.JPG,AFNE01.JPG,AFNE01.JPG,AFNE01.JPG,,,,,2,4,24,6,,,,,,,,,,,,,,,,,,,AFNE10.jpg,AFNE16.jpg,AFSA10.jpg,AFSA17.jpg,AFNE16.jpg,FN,3,num_6,16,num_6,0.483528759796,,,2017_Dec_07_1122,59.9960744807,MAFE4ImagesEEG,001,202379,
AFNE01.JPG,AFNE01.JPG,AFNE01.JPG,AFNE01.JPG,AFNE01.JPG,AFNE01.JPG,,,,,2,5,25,5,,,,,,,,,,,,,,,,,,,AFSA06.jpg,AFNE06.jpg,AFNE10.jpg,AFSA13.jpg,AFNE06.jpg,FN,3,num_6,16,num_6,0.783444277011,,,2017_Dec_07_1122,59.9960744807,MAFE4ImagesEEG,001,202379,
AFNE01.JPG,AFNE01.JPG,AFNE01.JPG,AFNE01.JPG,AFNE01.JPG,AFNE01.JPG,,,,,2,6,26,2,,,,,,,,,,,,,,,,,,,AFSA05.jpg,AFNE15.jpg,AFSA06.jpg,AFNE14.jpg,AFNE14.jpg,FN,3,num_4,16,num_4,0.900216114009,,,2017_Dec_07_1122,59.9960744807,MAFE4ImagesEEG,001,202379,
AFNE01.JPG,AFNE01.JPG,AFNE01.JPG,AFNE01.JPG,AFNE01.JPG,AFNE01.JPG,,,,,2,7,27,3,,,,,,,,,,,,,,,,,,,AFNE20.jpg,AFSA18.jpg,AFNE03.jpg,AFSA08.jpg,AFSA08.jpg,FS,4,num_4,32,num_6,0.800117262173,,,2017_Dec_07_1122,59.9960744807,MAFE4ImagesEEG,001,202379,
AFNE01.JPG,AFNE01.JPG,AFNE01.JPG,AFNE01.JPG,AFNE01.JPG,AFNE01.JPG,,,,,2,8,28,8,,,,,,,,,,,,,,,,,,,AFNE11.jpg,AFSA19.jpg,AFSA06.jpg,AFNE06.jpg,AFNE11.jpg,FN,3,num_8,16,num_8,1.05010844185,,,2017_Dec_07_1122,59.9960744807,MAFE4ImagesEEG,001,202379,
AFNE01.JPG,AFNE01.JPG,AFNE01.JPG,AFNE01.JPG,AFNE01.JPG,AFNE01.JPG,,,,,2,9,29,7,,,,,,,,,,,,,,,,,,,AFSA06.jpg,AFNE06.jpg,AFNE15.jpg,AFSA09.jpg,AFSA06.jpg,FS,4,num_8,32,num_4,0.716802371433,,,2017_Dec_07_1122,59.9960744807,MAFE4ImagesEEG,001,202379,
AFNE01.JPG,AFNE01.JPG,AFNE01.JPG,AFNE01.JPG,AFNE01.JPG,AFNE01.JPG,,,,,3,0,30,3,,,,,,,,,,,,,,,,,,,AFNE05.jpg,AFSA03.jpg,AFNE06.jpg,AFSA14.jpg,AFSA03.jpg,FS,4,num_6,16,num_6,1.20011238707,,,2017_Dec_07_1122,59.9960744807,MAFE4ImagesEEG,001,202379,
AFNE01.JPG,AFNE01.JPG,AFNE01.JPG,AFNE01.JPG,AFNE01.JPG,AFNE01.JPG,,,,,3,1,31,9,,,,,,,,,,,,,,,,,,,AFSA14.jpg,AFSA03.jpg,AFNE02.jpg,AFNE04.jpg,AFSA03.jpg,FS,4,num_6,32,num_8,0.93345463695,,,2017_Dec_07_1122,59.9960744807,MAFE4ImagesEEG,001,202379,
AFNE01.JPG,AFNE01.JPG,AFNE01.JPG,AFNE01.JPG,AFNE01.JPG,AFNE01.JPG,,,,,3,2,32,2,,,,,,,,,,,,,,,,,,,AFNE07.jpg,AFNE01.jpg,AFSA16.jpg,AFSA02.jpg,AFNE01.jpg,FN,3,num_6,16,num_6,0.600139585789,,,2017_Dec_07_1122,59.9960744807,MAFE4ImagesEEG,001,202379,
AFNE01.JPG,AFNE01.JPG,AFNE01.JPG,AFNE01.JPG,AFNE01.JPG,AFNE01.JPG,,,,,3,3,33,8,,,,,,,,,,,,,,,,,,,AFNE12.jpg,AFSA09.jpg,AFSA14.jpg,AFNE20.jpg,AFNE12.jpg,FN,3,num_8,32,num_2,1.25004666741,,,2017_Dec_07_1122,59.9960744807,MAFE4ImagesEEG,001,202379,
AFNE01.JPG,AFNE01.JPG,AFNE01.JPG,AFNE01.JPG,AFNE01.JPG,AFNE01.JPG,,,,,3,4,34,7,,,,,,,,,,,,,,,,,,,AFSA04.jpg,AFNE05.jpg,AFSA07.jpg,AFNE07.jpg,AFSA07.jpg,FS,4,num_2,16,num_2,2.23345354642,,,2017_Dec_07_1122,59.9960744807,MAFE4ImagesEEG,001,202379,
AFNE01.JPG,AFNE01.JPG,AFNE01.JPG,AFNE01.JPG,AFNE01.JPG,AFNE01.JPG,,,,,3,5,35,6,,,,,,,,,,,,,,,,,,,AFSA09.jpg,AFSA18.jpg,AFNE05.jpg,AFNE03.jpg,AFNE05.jpg,FN,3,num_2,32,num_4,1.09998659324,,,2017_Dec_07_1122,59.9960744807,MAFE4ImagesEEG,001,202379,
AFNE01.JPG,AFNE01.JPG,AFNE01.JPG,AFNE01.JPG,AFNE01.JPG,AFNE01.JPG,,,,,3,6,36,5,,,,,,,,,,,,,,,,,,,AFNE19.jpg,AFNE05.jpg,AFSA20.jpg,AFSA04.jpg,AFSA20.jpg,FS,4,num_2,16,num_2,0.816730269231,,,2017_Dec_07_1122,59.9960744807,MAFE4ImagesEEG,001,202379,
AFNE01.JPG,AFNE01.JPG,AFNE01.JPG,AFNE01.JPG,AFNE01.JPG,AFNE01.JPG,,,,,3,7,37,4,,,,,,,,,,,,,,,,,,,AFNE01.jpg,AFSA01.jpg,AFNE02.jpg,AFSA14.jpg,AFSA14.jpg,FS,4,num_4,16,num_4,0.650254763197,,,2017_Dec_07_1122,59.9960744807,MAFE4ImagesEEG,001,202379,
AFNE01.JPG,AFNE01.JPG,AFNE01.JPG,AFNE01.JPG,AFNE01.JPG,AFNE01.JPG,,,,,3,8,38,1,,,,,,,,,,,,,,,,,,,AFNE19.jpg,AFSA10.jpg,AFSA05.jpg,AFNE11.jpg,AFNE11.jpg,FN,3,num_4,32,num_6,0.933467466617,,,2017_Dec_07_1122,59.9960744807,MAFE4ImagesEEG,001,202379,
AFNE01.JPG,AFNE01.JPG,AFNE01.JPG,AFNE01.JPG,AFNE01.JPG,AFNE01.JPG,,,,,3,9,39,0,,,,,,,,,,,,,,,,,,,AFNE17.jpg,AFSA12.jpg,AFSA19.jpg,AFNE14.jpg,AFNE14.jpg,FN,3,num_4,32,num_8,0.71674046875,,,2017_Dec_07_1122,59.9960744807,MAFE4ImagesEEG,001,202379,
AFNE01.JPG,AFNE01.JPG,AFNE01.JPG,AFNE01.JPG,AFNE01.JPG,AFNE01.JPG,,,,,4,0,40,4,,,,,,,,,,,,,,,,,,,AFSA05.jpg,AFNE05.jpg,AFNE04.jpg,AFSA01.jpg,AFSA01.jpg,FS,4,num_4,16,num_4,1.00009590108,,,2017_Dec_07_1122,59.9960744807,MAFE4ImagesEEG,001,202379,
AFNE01.JPG,AFNE01.JPG,AFNE01.JPG,AFNE01.JPG,AFNE01.JPG,AFNE01.JPG,,,,,4,1,41,5,,,,,,,,,,,,,,,,,,,AFNE18.jpg,AFSA08.jpg,AFNE20.jpg,AFSA18.jpg,AFNE18.jpg,FN,3,num_8,32,num_2,0.816754966276,,,2017_Dec_07_1122,59.9960744807,MAFE4ImagesEEG,001,202379,
AFNE01.JPG,AFNE01.JPG,AFNE01.JPG,AFNE01.JPG,AFNE01.JPG,AFNE01.JPG,,,,,4,2,42,2,,,,,,,,,,,,,,,,,,,AFNE07.jpg,AFSA07.jpg,AFNE04.jpg,AFSA18.jpg,AFSA18.jpg,FS,4,num_4,16,num_4,0.783292246517,,,2017_Dec_07_1122,59.9960744807,MAFE4ImagesEEG,001,202379,
AFNE01.JPG,AFNE01.JPG,AFNE01.JPG,AFNE01.JPG,AFNE01.JPG,AFNE01.JPG,,,,,4,3,43,7,,,,,,,,,,,,,,,,,,,AFNE09.jpg,AFSA16.jpg,AFSA19.jpg,AFNE13.jpg,AFSA16.jpg,FS,4,num_6,16,num_6,0.616800703574,,,2017_Dec_07_1122,59.9960744807,MAFE4ImagesEEG,001,202379,
AFNE01.JPG,AFNE01.JPG,AFNE01.JPG,AFNE01.JPG,AFNE01.JPG,AFNE01.JPG,,,,,4,4,44,8,,,,,,,,,,,,,,,,,,,AFSA03.jpg,AFSA06.jpg,AFNE02.jpg,AFNE11.jpg,AFSA06.jpg,FS,4,num_6,32,num_4,0.933466824936,,,2017_Dec_07_1122,59.9960744807,MAFE4ImagesEEG,001,202379,
AFNE01.JPG,AFNE01.JPG,AFNE01.JPG,AFNE01.JPG,AFNE01.JPG,AFNE01.JPG,,,,,4,5,45,6,,,,,,,,,,,,,,,,,,,AFNE05.jpg,AFNE10.jpg,AFSA19.jpg,AFSA04.jpg,AFNE05.jpg,FN,3,num_8,16,num_8,1.28327749274,,,2017_Dec_07_1122,59.9960744807,MAFE4ImagesEEG,001,202379,
AFNE01.JPG,AFNE01.JPG,AFNE01.JPG,AFNE01.JPG,AFNE01.JPG,AFNE01.JPG,,,,,4,6,46,0,,,,,,,,,,,,,,,,,,,AFNE03.jpg,AFNE18.jpg,AFSA03.jpg,AFSA05.jpg,AFNE03.jpg,FN,3,num_8,16,num_8,0.666861355538,,,2017_Dec_07_1122,59.9960744807,MAFE4ImagesEEG,001,202379,
AFNE01.JPG,AFNE01.JPG,AFNE01.JPG,AFNE01.JPG,AFNE01.JPG,AFNE01.JPG,,,,,4,7,47,1,,,,,,,,,,,,,,,,,,,AFNE02.jpg,AFSA09.jpg,AFSA20.jpg,AFNE04.jpg,AFSA20.jpg,FS,4,num_2,32,num_4,0.833461628994,,,2017_Dec_07_1122,59.9960744807,MAFE4ImagesEEG,001,202379,
AFNE01.JPG,AFNE01.JPG,AFNE01.JPG,AFNE01.JPG,AFNE01.JPG,AFNE01.JPG,,,,,4,8,48,3,,,,,,,,,,,,,,,,,,,AFNE06.jpg,AFSA02.jpg,AFNE10.jpg,AFSA06.jpg,AFSA06.jpg,FS,4,num_4,16,num_4,0.850115690613,,,2017_Dec_07_1122,59.9960744807,MAFE4ImagesEEG,001,202379,
AFNE01.JPG,AFNE01.JPG,AFNE01.JPG,AFNE01.JPG,AFNE01.JPG,AFNE01.JPG,,,,,4,9,49,9,,,,,,,,,,,,,,,,,,,AFSA18.jpg,AFNE14.jpg,AFNE05.jpg,AFSA16.jpg,AFSA16.jpg,FS,4,num_4,32,num_8,0.683494889643,,,2017_Dec_07_1122,59.9960744807,MAFE4ImagesEEG,001,202379,
AFNE01.JPG,AFNE01.JPG,AFNE01.JPG,AFNE01.JPG,AFNE01.JPG,AFNE01.JPG,,,,,5,0,50,3,,,,,,,,,,,,,,,,,,,AFSA07.jpg,AFSA01.jpg,AFNE17.jpg,AFNE18.jpg,AFNE17.jpg,FN,3,num_2,32,num_4,0.817121891771,,,2017_Dec_07_1122,59.9960744807,MAFE4ImagesEEG,001,202379,
AFNE01.JPG,AFNE01.JPG,AFNE01.JPG,AFNE01.JPG,AFNE01.JPG,AFNE01.JPG,,,,,5,1,51,7,,,,,,,,,,,,,,,,,,,AFNE20.jpg,AFSA12.jpg,AFNE11.jpg,AFSA13.jpg,AFSA12.jpg,FS,4,num_6,16,num_6,0.450166110881,,,2017_Dec_07_1122,59.9960744807,MAFE4ImagesEEG,001,202379,
AFNE01.JPG,AFNE01.JPG,AFNE01.JPG,AFNE01.JPG,AFNE01.JPG,AFNE01.JPG,,,,,5,2,52,6,,,,,,,,,,,,,,,,,,,AFSA20.jpg,AFNE09.jpg,AFNE08.jpg,AFSA19.jpg,AFSA19.jpg,FS,4,num_4,32,num_8,1.70006299322,,,2017_Dec_07_1122,59.9960744807,MAFE4ImagesEEG,001,202379,
AFNE01.JPG,AFNE01.JPG,AFNE01.JPG,AFNE01.JPG,AFNE01.JPG,AFNE01.JPG,,,,,5,3,53,1,,,,,,,,,,,,,,,,,,,AFNE20.jpg,AFNE15.jpg,AFSA01.jpg,AFSA03.jpg,AFSA01.jpg,FS,4,num_2,32,num_6,0.583550313488,,,2017_Dec_07_1122,59.9960744807,MAFE4ImagesEEG,001,202379,
AFNE01.JPG,AFNE01.JPG,AFNE01.JPG,AFNE01.JPG,AFNE01.JPG,AFNE01.JPG,,,,,5,4,54,8,,,,,,,,,,,,,,,,,,,AFNE08.jpg,AFSA13.jpg,AFSA03.jpg,AFNE01.jpg,AFSA03.jpg,FS,4,num_2,32,num_4,1.01671532285,,,2017_Dec_07_1122,59.9960744807,MAFE4ImagesEEG,001,202379,
AFNE01.JPG,AFNE01.JPG,AFNE01.JPG,AFNE01.JPG,AFNE01.JPG,AFNE01.JPG,,,,,5,5,55,4,,,,,,,,,,,,,,,,,,,AFSA13.jpg,AFNE06.jpg,AFNE08.jpg,AFSA11.jpg,AFNE08.jpg,FN,3,num_2,32,num_8,0.53322793846,,,2017_Dec_07_1122,59.9960744807,MAFE4ImagesEEG,001,202379,
AFNE01.JPG,AFNE01.JPG,AFNE01.JPG,AFNE01.JPG,AFNE01.JPG,AFNE01.JPG,,,,,5,6,56,2,,,,,,,,,,,,,,,,,,,AFSA20.jpg,AFNE07.jpg,AFNE10.jpg,AFSA19.jpg,AFNE10.jpg,FN,3,num_2,16,num_2,0.550143081928,,,2017_Dec_07_1122,59.9960744807,MAFE4ImagesEEG,001,202379,
AFNE01.JPG,AFNE01.JPG,AFNE01.JPG,AFNE01.JPG,AFNE01.JPG,AFNE01.JPG,,,,,5,7,57,5,,,,,,,,,,,,,,,,,,,AFSA09.jpg,AFSA15.jpg,AFNE11.jpg,AFNE04.jpg,AFNE11.jpg,FN,3,num_2,32,num_4,0.916852855589,,,2017_Dec_07_1122,59.9960744807,MAFE4ImagesEEG,001,202379,
AFNE01.JPG,AFNE01.JPG,AFNE01.JPG,AFNE01.JPG,AFNE01.JPG,AFNE01.JPG,,,,,5,8,58,9,,,,,,,,,,,,,,,,,,,AFSA03.jpg,AFNE10.jpg,AFNE11.jpg,AFSA16.jpg,AFSA16.jpg,FS,4,num_4,16,num_4,0.96679868293,,,2017_Dec_07_1122,59.9960744807,MAFE4ImagesEEG,001,202379,
AFNE01.JPG,AFNE01.JPG,AFNE01.JPG,AFNE01.JPG,AFNE01.JPG,AFNE01.JPG,,,,,5,9,59,0,,,,,,,,,,,,,,,,,,,AFNE07.jpg,AFSA06.jpg,AFSA18.jpg,AFNE15.jpg,AFNE07.jpg,FN,3,num_8,32,num_2,0.883470641915,,,2017_Dec_07_1122,59.9960744807,MAFE4ImagesEEG,001,202379,
,,,,,,,,,,,,,,,,,,,,,,,,,,,,,,,,,,,,,,,,,,,space,9.76608170266,2017_Dec_07_1122,59.9960744807,MAFE4ImagesEEG,001,202379,
AFNE01.JPG,AFNE01.JPG,AFNE01.JPG,AFNE01.JPG,AFNE01.JPG,AFNE01.JPG,,,,,,,,,0,0,0,4,,,,,,,,,,,,,,,AMSA17.jpg,AMNE14.jpg,AMNE04.jpg,AMSA16.jpg,AMNE04.jpg,MN,1,num_2,32,num_6,0.500213612337,,,2017_Dec_07_1122,59.9960744807,MAFE4ImagesEEG,001,202379,
AFNE01.JPG,AFNE01.JPG,AFNE01.JPG,AFNE01.JPG,AFNE01.JPG,AFNE01.JPG,,,,,,,,,0,1,1,2,,,,,,,,,,,,,,,AMSA11.jpg,AMSA10.jpg,AMNE11.jpg,AMNE01.jpg,AMSA11.jpg,MS,2,num_8,32,num_2,0.83346387418,,,2017_Dec_07_1122,59.9960744807,MAFE4ImagesEEG,001,202379,
AFNE01.JPG,AFNE01.JPG,AFNE01.JPG,AFNE01.JPG,AFNE01.JPG,AFNE01.JPG,,,,,,,,,0,2,2,3,,,,,,,,,,,,,,,AMNE01.jpg,AMSA06.jpg,AMNE15.jpg,AMSA19.jpg,AMNE01.jpg,MN,1,num_8,16,num_8,0.733433339978,,,2017_Dec_07_1122,59.9960744807,MAFE4ImagesEEG,001,202379,
AFNE01.JPG,AFNE01.JPG,AFNE01.JPG,AFNE01.JPG,AFNE01.JPG,AFNE01.JPG,,,,,,,,,0,3,3,1,,,,,,,,,,,,,,,AMNE15.jpg,AMSA04.jpg,AMNE01.jpg,AMSA17.jpg,AMSA04.jpg,MS,2,num_6,16,num_6,0.68348109792,,,2017_Dec_07_1122,59.9960744807,MAFE4ImagesEEG,001,202379,
AFNE01.JPG,AFNE01.JPG,AFNE01.JPG,AFNE01.JPG,AFNE01.JPG,AFNE01.JPG,,,,,,,,,0,4,4,0,,,,,,,,,,,,,,,AMSA19.jpg,AMSA20.jpg,AMNE06.jpg,AMNE03.jpg,AMSA19.jpg,MS,2,num_8,16,num_8,0.833454893436,,,2017_Dec_07_1122,59.9960744807,MAFE4ImagesEEG,001,202379,
AFNE01.JPG,AFNE01.JPG,AFNE01.JPG,AFNE01.JPG,AFNE01.JPG,AFNE01.JPG,,,,,,,,,0,5,5,6,,,,,,,,,,,,,,,AMNE01.jpg,AMSA16.jpg,AMSA04.jpg,AMNE04.jpg,AMNE01.jpg,MN,1,num_8,32,num_4,0.833469647449,,,2017_Dec_07_1122,59.9960744807,MAFE4ImagesEEG,001,202379,
AFNE01.JPG,AFNE01.JPG,AFNE01.JPG,AFNE01.JPG,AFNE01.JPG,AFNE01.JPG,,,,,,,,,0,6,6,8,,,,,,,,,,,,,,,AMSA19.jpg,AMNE04.jpg,AMSA10.jpg,AMNE01.jpg,AMNE01.jpg,MN,1,num_4,16,num_4,0.416851252085,,,2017_Dec_07_1122,59.9960744807,MAFE4ImagesEEG,001,202379,
AFNE01.JPG,AFNE01.JPG,AFNE01.JPG,AFNE01.JPG,AFNE01.JPG,AFNE01.JPG,,,,,,,,,0,7,7,5,,,,,,,,,,,,,,,AMSA05.jpg,AMNE04.jpg,AMNE06.jpg,AMSA08.jpg,AMNE06.jpg,MN,1,num_2,32,num_4,0.8336383563,,,2017_Dec_07_1122,59.9960744807,MAFE4ImagesEEG,001,202379,
AFNE01.JPG,AFNE01.JPG,AFNE01.JPG,AFNE01.JPG,AFNE01.JPG,AFNE01.JPG,,,,,,,,,0,8,8,9,,,,,,,,,,,,,,,AMNE04.jpg,AMNE19.jpg,AMSA19.jpg,AMSA12.jpg,AMNE19.jpg,MN,1,num_6,32,num_2,1.46690452681,,,2017_Dec_07_1122,59.9960744807,MAFE4ImagesEEG,001,202379,
AFNE01.JPG,AFNE01.JPG,AFNE01.JPG,AFNE01.JPG,AFNE01.JPG,AFNE01.JPG,,,,,,,,,0,9,9,7,,,,,,,,,,,,,,,AMNE12.jpg,AMSA12.jpg,AMSA06.jpg,AMNE16.jpg,AMSA12.jpg,MS,2,num_6,32,num_4,1.68336563162,,,2017_Dec_07_1122,59.9960744807,MAFE4ImagesEEG,001,202379,
AFNE01.JPG,AFNE01.JPG,AFNE01.JPG,AFNE01.JPG,AFNE01.JPG,AFNE01.JPG,,,,,,,,,1,0,10,0,,,,,,,,,,,,,,,AMSA20.jpg,AMSA16.jpg,AMNE01.jpg,AMNE04.jpg,AMSA16.jpg,MS,2,num_6,32,num_8,0.81666291412,,,2017_Dec_07_1122,59.9960744807,MAFE4ImagesEEG,001,202379,
AFNE01.JPG,AFNE01.JPG,AFNE01.JPG,AFNE01.JPG,AFNE01.JPG,AFNE01.JPG,,,,,,,,,1,1,11,4,,,,,,,,,,,,,,,AMNE04.jpg,AMSA07.jpg,AMNE06.jpg,AMSA14.jpg,AMSA14.jpg,MS,2,num_4,16,num_4,0.600128680468,,,2017_Dec_07_1122,59.9960744807,MAFE4ImagesEEG,001,202379,
AFNE01.JPG,AFNE01.JPG,AFNE01.JPG,AFNE01.JPG,AFNE01.JPG,AFNE01.JPG,,,,,,,,,1,2,12,2,,,,,,,,,,,,,,,AMNE17.jpg,AMNE03.jpg,AMSA09.jpg,AMSA11.jpg,AMSA09.jpg,MS,2,num_2,16,num_2,0.766778027173,,,2017_Dec_07_1122,59.9960744807,MAFE4ImagesEEG,001,202379,
AFNE01.JPG,AFNE01.JPG,AFNE01.JPG,AFNE01.JPG,AFNE01.JPG,AFNE01.JPG,,,,,,,,,1,3,13,5,,,,,,,,,,,,,,,AMNE11.jpg,AMNE17.jpg,AMSA20.jpg,AMSA17.jpg,AMSA20.jpg,MS,2,num_2,16,num_2,0.516808337066,,,2017_Dec_07_1122,59.9960744807,MAFE4ImagesEEG,001,202379,
AFNE01.JPG,AFNE01.JPG,AFNE01.JPG,AFNE01.JPG,AFNE01.JPG,AFNE01.JPG,,,,,,,,,1,4,14,8,,,,,,,,,,,,,,,AMSA15.jpg,AMSA04.jpg,AMNE16.jpg,AMNE07.jpg,AMSA04.jpg,MS,2,num_6,16,num_6,0.600137982052,,,2017_Dec_07_1122,59.9960744807,MAFE4ImagesEEG,001,202379,
AFNE01.JPG,AFNE01.JPG,AFNE01.JPG,AFNE01.JPG,AFNE01.JPG,AFNE01.JPG,,,,,,,,,1,5,15,9,,,,,,,,,,,,,,,AMSA12.jpg,AMNE13.jpg,AMNE19.jpg,AMSA04.jpg,AMSA12.jpg,MS,2,num_8,16,num_8,0.766764556058,,,2017_Dec_07_1122,59.9960744807,MAFE4ImagesEEG,001,202379,
AFNE01.JPG,AFNE01.JPG,AFNE01.JPG,AFNE01.JPG,AFNE01.JPG,AFNE01.JPG,,,,,,,,,1,6,16,6,,,,,,,,,,,,,,,AMNE09.jpg,AMSA16.jpg,AMNE12.jpg,AMSA12.jpg,AMSA16.jpg,MS,2,num_6,32,num_4,0.766884833574,,,2017_Dec_07_1122,59.9960744807,MAFE4ImagesEEG,001,202379,
AFNE01.JPG,AFNE01.JPG,AFNE01.JPG,AFNE01.JPG,AFNE01.JPG,AFNE01.JPG,,,,,,,,,1,7,17,1,,,,,,,,,,,,,,,AMNE06.jpg,AMNE05.jpg,AMSA11.jpg,AMSA02.jpg,AMNE06.jpg,MN,1,num_8,32,num_6,1.36674826266,,,2017_Dec_07_1122,59.9960744807,MAFE4ImagesEEG,001,202379,
AFNE01.JPG,AFNE01.JPG,AFNE01.JPG,AFNE01.JPG,AFNE01.JPG,AFNE01.JPG,,,,,,,,,1,8,18,3,,,,,,,,,,,,,,,AMNE18.jpg,AMSA14.jpg,AMSA17.jpg,AMNE06.jpg,AMNE06.jpg,MN,1,num_4,32,num_8,0.850162518676,,,2017_Dec_07_1122,59.9960744807,MAFE4ImagesEEG,001,202379,
AFNE01.JPG,AFNE01.JPG,AFNE01.JPG,AFNE01.JPG,AFNE01.JPG,AFNE01.JPG,,,,,,,,,1,9,19,7,,,,,,,,,,,,,,,AMNE05.jpg,AMSA14.jpg,AMSA18.jpg,AMNE09.jpg,AMSA18.jpg,MS,2,num_2,16,num_2,0.93369230465,,,2017_Dec_07_1122,59.9960744807,MAFE4ImagesEEG,001,202379,
AFNE01.JPG,AFNE01.JPG,AFNE01.JPG,AFNE01.JPG,AFNE01.JPG,AFNE01.JPG,,,,,,,,,2,0,20,6,,,,,,,,,,,,,,,AMSA04.jpg,AMNE04.jpg,AMNE06.jpg,AMSA18.jpg,AMSA04.jpg,MS,2,num_8,16,num_8,0.583480392117,,,2017_Dec_07_1122,59.9960744807,MAFE4ImagesEEG,001,202379,
AFNE01.JPG,AFNE01.JPG,AFNE01.JPG,AFNE01.JPG,AFNE01.JPG,AFNE01.JPG,,,,,,,,,2,1,21,9,,,,,,,,,,,,,,,AMNE06.jpg,AMNE12.jpg,AMSA01.jpg,AMSA16.jpg,AMNE06.jpg,MN,1,num_8,32,num_6,0.750115626492,,,2017_Dec_07_1122,59.9960744807,MAFE4ImagesEEG,001,202379,
AFNE01.JPG,AFNE01.JPG,AFNE01.JPG,AFNE01.JPG,AFNE01.JPG,AFNE01.JPG,,,,,,,,,2,2,22,5,,,,,,,,,,,,,,,AMSA17.jpg,AMNE10.jpg,AMNE11.jpg,AMSA16.jpg,AMSA16.jpg,MS,2,num_4,16,num_4,0.4501555264,,,2017_Dec_07_1122,59.9960744807,MAFE4ImagesEEG,001,202379,
AFNE01.JPG,AFNE01.JPG,AFNE01.JPG,AFNE01.JPG,AFNE01.JPG,AFNE01.JPG,,,,,,,,,2,3,23,3,,,,,,,,,,,,,,,AMSA09.jpg,AMSA13.jpg,AMNE12.jpg,AMNE03.jpg,AMNE12.jpg,MN,1,num_2,16,num_2,1.01676215068,,,2017_Dec_07_1122,59.9960744807,MAFE4ImagesEEG,001,202379,
AFNE01.JPG,AFNE01.JPG,AFNE01.JPG,AFNE01.JPG,AFNE01.JPG,AFNE01.JPG,,,,,,,,,2,4,24,0,,,,,,,,,,,,,,,AMNE13.jpg,AMSA07.jpg,AMNE14.jpg,AMSA08.jpg,AMSA07.jpg,MS,2,num_6,32,num_2,0.683443892282,,,2017_Dec_07_1122,59.9960744807,MAFE4ImagesEEG,001,202379,
AFNE01.JPG,AFNE01.JPG,AFNE01.JPG,AFNE01.JPG,AFNE01.JPG,AFNE01.JPG,,,,,,,,,2,5,25,7,,,,,,,,,,,,,,,AMSA02.jpg,AMNE14.jpg,AMSA20.jpg,AMNE05.jpg,AMNE14.jpg,MN,1,num_6,16,num_6,0.883571033133,,,2017_Dec_07_1122,59.9960744807,MAFE4ImagesEEG,001,202379,
AFNE01.JPG,AFNE01.JPG,AFNE01.JPG,AFNE01.JPG,AFNE01.JPG,AFNE01.JPG,,,,,,,,,2,6,26,2,,,,,,,,,,,,,,,AMSA03.jpg,AMNE15.jpg,AMSA10.jpg,AMNE12.jpg,AMSA10.jpg,MS,2,num_2,16,num_2,0.983450178523,,,2017_Dec_07_1122,59.9960744807,MAFE4ImagesEEG,001,202379,
AFNE01.JPG,AFNE01.JPG,AFNE01.JPG,AFNE01.JPG,AFNE01.JPG,AFNE01.JPG,,,,,,,,,2,7,27,1,,,,,,,,,,,,,,,AMNE14.jpg,AMSA07.jpg,AMSA11.jpg,AMNE18.jpg,AMSA07.jpg,MS,2,num_6,16,num_6,1.83307802491,,,2017_Dec_07_1122,59.9960744807,MAFE4ImagesEEG,001,202379,
AFNE01.JPG,AFNE01.JPG,AFNE01.JPG,AFNE01.JPG,AFNE01.JPG,AFNE01.JPG,,,,,,,,,2,8,28,8,,,,,,,,,,,,,,,AMSA17.jpg,AMSA11.jpg,AMNE02.jpg,AMNE16.jpg,AMSA17.jpg,MS,2,num_8,32,num_4,1.31667349837,,,2017_Dec_07_1122,59.9960744807,MAFE4ImagesEEG,001,202379,
AFNE01.JPG,AFNE01.JPG,AFNE01.JPG,AFNE01.JPG,AFNE01.JPG,AFNE01.JPG,,,,,,,,,2,9,29,4,,,,,,,,,,,,,,,AMNE17.jpg,AMSA02.jpg,AMNE05.jpg,AMSA17.jpg,AMNE17.jpg,MN,1,num_8,16,num_8,0.483499251539,,,2017_Dec_07_1122,59.9960744807,MAFE4ImagesEEG,001,202379,
AFNE01.JPG,AFNE01.JPG,AFNE01.JPG,AFNE01.JPG,AFNE01.JPG,AFNE01.JPG,,,,,,,,,3,0,30,5,,,,,,,,,,,,,,,AMSA14.jpg,AMNE13.jpg,AMNE05.jpg,AMSA12.jpg,AMSA14.jpg,MS,2,num_8,32,num_4,0.966799324611,,,2017_Dec_07_1122,59.9960744807,MAFE4ImagesEEG,001,202379,
AFNE01.JPG,AFNE01.JPG,AFNE01.JPG,AFNE01.JPG,AFNE01.JPG,AFNE01.JPG,,,,,,,,,3,1,31,4,,,,,,,,,,,,,,,AMSA20.jpg,AMNE10.jpg,AMNE12.jpg,AMSA03.jpg,AMSA20.jpg,MS,2,num_8,32,num_4,1.06679682271,,,2017_Dec_07_1122,59.9960744807,MAFE4ImagesEEG,001,202379,
AFNE01.JPG,AFNE01.JPG,AFNE01.JPG,AFNE01.JPG,AFNE01.JPG,AFNE01.JPG,,,,,,,,,3,2,32,7,,,,,,,,,,,,,,,AMNE16.jpg,AMSA19.jpg,AMSA13.jpg,AMNE17.jpg,AMNE17.jpg,MN,1,num_4,32,num_6,0.483342089457,,,2017_Dec_07_1122,59.9960744807,MAFE4ImagesEEG,001,202379,
AFNE01.JPG,AFNE01.JPG,AFNE01.JPG,AFNE01.JPG,AFNE01.JPG,AFNE01.JPG,,,,,,,,,3,3,33,1,,,,,,,,,,,,,,,AMNE14.jpg,AMSA07.jpg,AMSA18.jpg,AMNE01.jpg,AMSA18.jpg,MS,2,num_2,32,num_6,1.26679502637,,,2017_Dec_07_1122,59.9960744807,MAFE4ImagesEEG,001,202379,
AFNE01.JPG,AFNE01.JPG,AFNE01.JPG,AFNE01.JPG,AFNE01.JPG,AFNE01.JPG,,,,,,,,,3,4,34,8,,,,,,,,,,,,,,,AMNE10.jpg,AMSA10.jpg,AMNE11.jpg,AMSA17.jpg,AMNE10.jpg,MN,1,num_8,32,num_2,1.13347304729,,,2017_Dec_07_1122,59.9960744807,MAFE4ImagesEEG,001,202379,
AFNE01.JPG,AFNE01.JPG,AFNE01.JPG,AFNE01.JPG,AFNE01.JPG,AFNE01.JPG,,,,,,,,,3,5,35,3,,,,,,,,,,,,,,,AMNE04.jpg,AMSA12.jpg,AMSA16.jpg,AMNE15.jpg,AMSA12.jpg,MS,2,num_6,32,num_4,0.733467658749,,,2017_Dec_07_1122,59.9960744807,MAFE4ImagesEEG,001,202379,
AFNE01.JPG,AFNE01.JPG,AFNE01.JPG,AFNE01.JPG,AFNE01.JPG,AFNE01.JPG,,,,,,,,,3,6,36,2,,,,,,,,,,,,,,,AMNE07.jpg,AMSA01.jpg,AMSA08.jpg,AMNE17.jpg,AMNE17.jpg,MN,1,num_4,32,num_8,0.666791434167,,,2017_Dec_07_1122,59.9960744807,MAFE4ImagesEEG,001,202379,
AFNE01.JPG,AFNE01.JPG,AFNE01.JPG,AFNE01.JPG,AFNE01.JPG,AFNE01.JPG,,,,,,,,,3,7,37,0,,,,,,,,,,,,,,,AMSA09.jpg,AMNE03.jpg,AMNE05.jpg,AMSA17.jpg,AMSA09.jpg,MS,2,num_8,16,num_8,0.583495146362,,,2017_Dec_07_1122,59.9960744807,MAFE4ImagesEEG,001,202379,
AFNE01.JPG,AFNE01.JPG,AFNE01.JPG,AFNE01.JPG,AFNE01.JPG,AFNE01.JPG,,,,,,,,,3,8,38,6,,,,,,,,,,,,,,,AMSA13.jpg,AMSA16.jpg,AMNE01.jpg,AMNE09.jpg,AMSA16.jpg,MS,2,num_6,32,num_8,0.633495499147,,,2017_Dec_07_1122,59.9960744807,MAFE4ImagesEEG,001,202379,
AFNE01.JPG,AFNE01.JPG,AFNE01.JPG,AFNE01.JPG,AFNE01.JPG,AFNE01.JPG,,,,,,,,,3,9,39,9,,,,,,,,,,,,,,,AMNE12.jpg,AMSA12.jpg,AMNE10.jpg,AMSA14.jpg,AMSA12.jpg,MS,2,num_6,16,num_6,0.883438247023,,,2017_Dec_07_1122,59.9960744807,MAFE4ImagesEEG,001,202379,
AFNE01.JPG,AFNE01.JPG,AFNE01.JPG,AFNE01.JPG,AFNE01.JPG,AFNE01.JPG,,,,,,,,,4,0,40,8,,,,,,,,,,,,,,,AMSA01.jpg,AMNE14.jpg,AMSA07.jpg,AMNE12.jpg,AMSA07.jpg,MS,2,num_2,16,num_2,0.899973955937,,,2017_Dec_07_1122,59.9960744807,MAFE4ImagesEEG,001,202379,
AFNE01.JPG,AFNE01.JPG,AFNE01.JPG,AFNE01.JPG,AFNE01.JPG,AFNE01.JPG,,,,,,,,,4,1,41,4,,,,,,,,,,,,,,,AMNE11.jpg,AMNE19.jpg,AMSA11.jpg,AMSA02.jpg,AMSA02.jpg,MS,2,num_4,32,num_8,1.31686433824,,,2017_Dec_07_1122,59.9960744807,MAFE4ImagesEEG,001,202379,
AFNE01.JPG,AFNE01.JPG,AFNE01.JPG,AFNE01.JPG,AFNE01.JPG,AFNE01.JPG,,,,,,,,,4,2,42,9,,,,,,,,,,,,,,,AMNE19.jpg,AMSA15.jpg,AMSA04.jpg,AMNE02.jpg,AMSA15.jpg,MS,2,num_6,16,num_6,0.616653163452,,,2017_Dec_07_1122,59.9960744807,MAFE4ImagesEEG,001,202379,
AFNE01.JPG,AFNE01.JPG,AFNE01.JPG,AFNE01.JPG,AFNE01.JPG,AFNE01.JPG,,,,,,,,,4,3,43,6,,,,,,,,,,,,,,,AMNE09.jpg,AMSA03.jpg,AMNE06.jpg,AMSA19.jpg,AMNE09.jpg,MN,1,num_8,32,num_2,1.16671573976,,,2017_Dec_07_1122,59.9960744807,MAFE4ImagesEEG,001,202379,
AFNE01.JPG,AFNE01.JPG,AFNE01.JPG,AFNE01.JPG,AFNE01.JPG,AFNE01.JPG,,,,,,,,,4,4,44,5,,,,,,,,,,,,,,,AMSA19.jpg,AMNE20.jpg,AMSA11.jpg,AMNE06.jpg,AMNE06.jpg,MN,1,num_4,16,num_4,0.700113990577,,,2017_Dec_07_1122,59.9960744807,MAFE4ImagesEEG,001,202379,
AFNE01.JPG,AFNE01.JPG,AFNE01.JPG,AFNE01.JPG,AFNE01.JPG,AFNE01.JPG,,,,,,,,,4,5,45,7,,,,,,,,,,,,,,,AMSA16.jpg,AMNE10.jpg,AMNE15.jpg,AMSA08.jpg,AMSA08.jpg,MS,2,num_4,32,num_6,0.916780368658,,,2017_Dec_07_1122,59.9960744807,MAFE4ImagesEEG,001,202379,
AFNE01.JPG,AFNE01.JPG,AFNE01.JPG,AFNE01.JPG,AFNE01.JPG,AFNE01.JPG,,,,,,,,,4,6,46,2,,,,,,,,,,,,,,,AMNE13.jpg,AMNE18.jpg,AMSA01.jpg,AMSA08.jpg,AMSA01.jpg,MS,2,num_2,32,num_4,0.566765390104,,,2017_Dec_07_1122,59.9960744807,MAFE4ImagesEEG,001,202379,
AFNE01.JPG,AFNE01.JPG,AFNE01.JPG,AFNE01.JPG,AFNE01.JPG,AFNE01.JPG,,,,,,,,,4,7,47,0,,,,,,,,,,,,,,,AMNE01.jpg,AMSA06.jpg,AMSA11.jpg,AMNE18.jpg,AMNE01.jpg,MN,1,num_8,16,num_8,0.966740308562,,,2017_Dec_07_1122,59.9960744807,MAFE4ImagesEEG,001,202379,
AFNE01.JPG,AFNE01.JPG,AFNE01.JPG,AFNE01.JPG,AFNE01.JPG,AFNE01.JPG,,,,,,,,,4,8,48,1,,,,,,,,,,,,,,,AMSA04.jpg,AMNE13.jpg,AMSA17.jpg,AMNE18.jpg,AMSA04.jpg,MS,2,num_8,16,num_8,1.08347461908,,,2017_Dec_07_1122,59.9960744807,MAFE4ImagesEEG,001,202379,
AFNE01.JPG,AFNE01.JPG,AFNE01.JPG,AFNE01.JPG,AFNE01.JPG,AFNE01.JPG,,,,,,,,,4,9,49,3,,,,,,,,,,,,,,,AMNE02.jpg,AMSA01.jpg,AMNE10.jpg,AMSA02.jpg,AMSA02.jpg,MS,2,num_4,16,num_4,0.733331024181,,,2017_Dec_07_1122,59.9960744807,MAFE4ImagesEEG,001,202379,
AFNE01.JPG,AFNE01.JPG,AFNE01.JPG,AFNE01.JPG,AFNE01.JPG,AFNE01.JPG,,,,,,,,,5,0,50,4,,,,,,,,,,,,,,,AMNE19.jpg,AMSA10.jpg,AMSA16.jpg,AMNE15.jpg,AMNE15.jpg,MN,1,num_4,32,num_2,0.583550313488,,,2017_Dec_07_1122,59.9960744807,MAFE4ImagesEEG,001,202379,
AFNE01.JPG,AFNE01.JPG,AFNE01.JPG,AFNE01.JPG,AFNE01.JPG,AFNE01.JPG,,,,,,,,,5,1,51,5,,,,,,,,,,,,,,,AMNE13.jpg,AMNE05.jpg,AMSA18.jpg,AMSA01.jpg,AMSA18.jpg,MS,2,num_2,16,num_2,0.616923867259,,,2017_Dec_07_1122,59.9960744807,MAFE4ImagesEEG,001,202379,
AFNE01.JPG,AFNE01.JPG,AFNE01.JPG,AFNE01.JPG,AFNE01.JPG,AFNE01.JPG,,,,,,,,,5,2,52,6,,,,,,,,,,,,,,,AMNE17.jpg,AMNE05.jpg,AMSA05.jpg,AMSA16.jpg,AMNE17.jpg,MN,1,num_8,32,num_6,0.916776840575,,,2017_Dec_07_1122,59.9960744807,MAFE4ImagesEEG,001,202379,
AFNE01.JPG,AFNE01.JPG,AFNE01.JPG,AFNE01.JPG,AFNE01.JPG,AFNE01.JPG,,,,,,,,,5,3,53,8,,,,,,,,,,,,,,,AMNE20.jpg,AMNE01.jpg,AMSA01.jpg,AMSA09.jpg,AMNE01.jpg,MN,1,num_6,16,num_6,0.550139553612,,,2017_Dec_07_1122,59.9960744807,MAFE4ImagesEEG,001,202379,
AFNE01.JPG,AFNE01.JPG,AFNE01.JPG,AFNE01.JPG,AFNE01.JPG,AFNE01.JPG,,,,,,,,,5,4,54,9,,,,,,,,,,,,,,,AMNE19.jpg,AMSA15.jpg,AMSA08.jpg,AMNE20.jpg,AMNE19.jpg,MN,1,num_8,32,num_2,0.666825111955,,,2017_Dec_07_1122,59.9960744807,MAFE4ImagesEEG,001,202379,
AFNE01.JPG,AFNE01.JPG,AFNE01.JPG,AFNE01.JPG,AFNE01.JPG,AFNE01.JPG,,,,,,,,,5,5,55,2,,,,,,,,,,,,,,,AMSA19.jpg,AMSA16.jpg,AMNE19.jpg,AMNE13.jpg,AMNE19.jpg,MN,1,num_2,32,num_4,0.950176374288,,,2017_Dec_07_1122,59.9960744807,MAFE4ImagesEEG,001,202379,
AFNE01.JPG,AFNE01.JPG,AFNE01.JPG,AFNE01.JPG,AFNE01.JPG,AFNE01.JPG,,,,,,,,,5,6,56,0,,,,,,,,,,,,,,,AMNE19.jpg,AMSA06.jpg,AMSA07.jpg,AMNE02.jpg,AMNE02.jpg,MN,1,num_4,32,num_8,1.16685718577,,,2017_Dec_07_1122,59.9960744807,MAFE4ImagesEEG,001,202379,
AFNE01.JPG,AFNE01.JPG,AFNE01.JPG,AFNE01.JPG,AFNE01.JPG,AFNE01.JPG,,,,,,,,,5,7,57,3,,,,,,,,,,,,,,,AMSA06.jpg,AMSA17.jpg,AMNE15.jpg,AMNE08.jpg,AMSA06.jpg,MS,2,num_8,16,num_8,0.516785243992,,,2017_Dec_07_1122,59.9960744807,MAFE4ImagesEEG,001,202379,
AFNE01.JPG,AFNE01.JPG,AFNE01.JPG,AFNE01.JPG,AFNE01.JPG,AFNE01.JPG,,,,,,,,,5,8,58,1,,,,,,,,,,,,,,,AMNE05.jpg,AMSA04.jpg,AMNE04.jpg,AMSA13.jpg,AMSA13.jpg,MS,2,num_4,16,num_4,0.850209025899,,,2017_Dec_07_1122,59.9960744807,MAFE4ImagesEEG,001,202379,
AFNE01.JPG,AFNE01.JPG,AFNE01.JPG,AFNE01.JPG,AFNE01.JPG,AFNE01.JPG,,,,,,,,,5,9,59,7,,,,,,,,,,,,,,,AMSA15.jpg,AMNE13.jpg,AMSA20.jpg,AMNE09.jpg,AMNE13.jpg,MN,1,num_6,16,num_6,3.21655700589,,,2017_Dec_07_1122,59.9960744807,MAFE4ImagesEEG,001,202379,
,,,,,,,,,,,,,,,,,,,,,,,,,,,,,,,,,,,,,,,,,,,space,3.19998056302,2017_Dec_07_1122,59.9960744807,MAFE4ImagesEEG,001,202379,
AFNE01.JPG,AFNE01.JPG,AFNE01.JPG,AFNE01.JPG,AFNE01.JPG,AFNE01.JPG,,,,,,,,,,,,,0,0,0,5,,,,,,,,,,,AFNE13.jpg,AFSA06.jpg,AFSA20.jpg,AFNE16.jpg,AFNE13.jpg,FN,3,num_8,32,num_6,0.916482081171,,,2017_Dec_07_1122,59.9960744807,MAFE4ImagesEEG,001,202379,
AFNE01.JPG,AFNE01.JPG,AFNE01.JPG,AFNE01.JPG,AFNE01.JPG,AFNE01.JPG,,,,,,,,,,,,,0,1,1,0,,,,,,,,,,,AFNE15.jpg,AFSA11.jpg,AFSA17.jpg,AFNE12.jpg,AFNE12.jpg,FN,3,num_4,32,num_2,0.750173359411,,,2017_Dec_07_1122,59.9960744807,MAFE4ImagesEEG,001,202379,
AFNE01.JPG,AFNE01.JPG,AFNE01.JPG,AFNE01.JPG,AFNE01.JPG,AFNE01.JPG,,,,,,,,,,,,,0,2,2,8,,,,,,,,,,,AFSA09.jpg,AFSA07.jpg,AFNE09.jpg,AFNE17.jpg,AFSA09.jpg,FS,4,num_8,16,num_8,0.433504030807,,,2017_Dec_07_1122,59.9960744807,MAFE4ImagesEEG,001,202379,
AFNE01.JPG,AFNE01.JPG,AFNE01.JPG,AFNE01.JPG,AFNE01.JPG,AFNE01.JPG,,,,,,,,,,,,,0,3,3,6,,,,,,,,,,,AFNE10.jpg,AFSA17.jpg,AFNE13.jpg,AFSA18.jpg,AFSA18.jpg,FS,4,num_4,16,num_4,0.499994547339,,,2017_Dec_07_1122,59.9960744807,MAFE4ImagesEEG,001,202379,
AFNE01.JPG,AFNE01.JPG,AFNE01.JPG,AFNE01.JPG,AFNE01.JPG,AFNE01.JPG,,,,,,,,,,,,,0,4,4,4,,,,,,,,,,,AFSA03.jpg,AFNE19.jpg,AFSA13.jpg,AFNE18.jpg,AFNE18.jpg,FN,3,num_4,32,num_6,0.883452038746,,,2017_Dec_07_1122,59.9960744807,MAFE4ImagesEEG,001,202379,
AFNE01.JPG,AFNE01.JPG,AFNE01.JPG,AFNE01.JPG,AFNE01.JPG,AFNE01.JPG,,,,,,,,,,,,,0,5,5,3,,,,,,,,,,,AFNE12.jpg,AFSA06.jpg,AFSA20.jpg,AFNE20.jpg,AFSA20.jpg,FS,4,num_2,32,num_4,0.283556856448,,,2017_Dec_07_1122,59.9960744807,MAFE4ImagesEEG,001,202379,
AFNE01.JPG,AFNE01.JPG,AFNE01.JPG,AFNE01.JPG,AFNE01.JPG,AFNE01.JPG,,,,,,,,,,,,,0,6,6,7,,,,,,,,,,,AFSA08.jpg,AFNE02.jpg,AFNE16.jpg,AFSA15.jpg,AFSA15.jpg,FS,4,num_4,16,num_4,0.88352580904,,,2017_Dec_07_1122,59.9960744807,MAFE4ImagesEEG,001,202379,
AFNE01.JPG,AFNE01.JPG,AFNE01.JPG,AFNE01.JPG,AFNE01.JPG,AFNE01.JPG,,,,,,,,,,,,,0,7,7,2,,,,,,,,,,,AFSA12.jpg,AFNE02.jpg,AFSA02.jpg,AFNE19.jpg,AFNE19.jpg,FN,3,num_4,32,num_8,1.98336646566,,,2017_Dec_07_1122,59.9960744807,MAFE4ImagesEEG,001,202379,
AFNE01.JPG,AFNE01.JPG,AFNE01.JPG,AFNE01.JPG,AFNE01.JPG,AFNE01.JPG,,,,,,,,,,,,,0,8,8,1,,,,,,,,,,,AFNE17.jpg,AFSA04.jpg,AFSA13.jpg,AFNE01.jpg,AFNE17.jpg,FN,3,num_8,32,num_2,0.866783543956,,,2017_Dec_07_1122,59.9960744807,MAFE4ImagesEEG,001,202379,
AFNE01.JPG,AFNE01.JPG,AFNE01.JPG,AFNE01.JPG,AFNE01.JPG,AFNE01.JPG,,,,,,,,,,,,,0,9,9,9,,,,,,,,,,,AFNE19.jpg,AFSA16.jpg,AFNE09.jpg,AFSA13.jpg,AFNE09.jpg,FN,3,num_2,16,num_2,0.833396839676,,,2017_Dec_07_1122,59.9960744807,MAFE4ImagesEEG,001,202379,
AFNE01.JPG,AFNE01.JPG,AFNE01.JPG,AFNE01.JPG,AFNE01.JPG,AFNE01.JPG,,,,,,,,,,,,,1,0,10,2,,,,,,,,,,,AFNE11.jpg,AFSA18.jpg,AFSA15.jpg,AFNE06.jpg,AFSA18.jpg,FS,4,num_6,32,num_2,1.0168169972,,,2017_Dec_07_1122,59.9960744807,MAFE4ImagesEEG,001,202379,
AFNE01.JPG,AFNE01.JPG,AFNE01.JPG,AFNE01.JPG,AFNE01.JPG,AFNE01.JPG,,,,,,,,,,,,,1,1,11,7,,,,,,,,,,,AFSA01.jpg,AFNE20.jpg,AFSA02.jpg,AFNE15.jpg,AFSA02.jpg,FS,4,num_2,16,num_2,1.86667866237,,,2017_Dec_07_1122,59.9960744807,MAFE4ImagesEEG,001,202379,
AFNE01.JPG,AFNE01.JPG,AFNE01.JPG,AFNE01.JPG,AFNE01.JPG,AFNE01.JPG,,,,,,,,,,,,,1,2,12,8,,,,,,,,,,,AFSA20.jpg,AFNE17.jpg,AFNE10.jpg,AFSA18.jpg,AFNE10.jpg,FN,3,num_2,16,num_2,1.25011562649,,,2017_Dec_07_1122,59.9960744807,MAFE4ImagesEEG,001,202379,
AFNE01.JPG,AFNE01.JPG,AFNE01.JPG,AFNE01.JPG,AFNE01.JPG,AFNE01.JPG,,,,,,,,,,,,,1,3,13,5,,,,,,,,,,,AFSA17.jpg,AFNE11.jpg,AFNE18.jpg,AFSA06.jpg,AFSA17.jpg,FS,4,num_8,32,num_4,1.53340979759,,,2017_Dec_07_1122,59.9960744807,MAFE4ImagesEEG,001,202379,
AFNE01.JPG,AFNE01.JPG,AFNE01.JPG,AFNE01.JPG,AFNE01.JPG,AFNE01.JPG,,,,,,,,,,,,,1,4,14,6,,,,,,,,,,,AFSA06.jpg,AFNE01.jpg,AFNE12.jpg,AFSA17.jpg,AFSA06.jpg,FS,4,num_8,16,num_8,1.18344806181,,,2017_Dec_07_1122,59.9960744807,MAFE4ImagesEEG,001,202379,
AFNE01.JPG,AFNE01.JPG,AFNE01.JPG,AFNE01.JPG,AFNE01.JPG,AFNE01.JPG,,,,,,,,,,,,,1,5,15,3,,,,,,,,,,,AFNE07.jpg,AFNE14.jpg,AFSA03.jpg,AFSA16.jpg,AFNE07.jpg,FN,3,num_8,32,num_6,0.883512658533,,,2017_Dec_07_1122,59.9960744807,MAFE4ImagesEEG,001,202379,
AFNE01.JPG,AFNE01.JPG,AFNE01.JPG,AFNE01.JPG,AFNE01.JPG,AFNE01.JPG,,,,,,,,,,,,,1,6,16,9,,,,,,,,,,,AFSA14.jpg,AFSA11.jpg,AFNE10.jpg,AFNE16.jpg,AFSA14.jpg,FS,4,num_8,16,num_8,1.1666916844,,,2017_Dec_07_1122,59.9960744807,MAFE4ImagesEEG,001,202379,
AFNE01.JPG,AFNE01.JPG,AFNE01.JPG,AFNE01.JPG,AFNE01.JPG,AFNE01.JPG,,,,,,,,,,,,,1,7,17,0,,,,,,,,,,,AFSA15.jpg,AFNE01.jpg,AFNE12.jpg,AFSA10.jpg,AFSA10.jpg,FS,4,num_4,16,num_4,0.83346387418,,,2017_Dec_07_1122,59.9960744807,MAFE4ImagesEEG,001,202379,
AFNE01.JPG,AFNE01.JPG,AFNE01.JPG,AFNE01.JPG,AFNE01.JPG,AFNE01.JPG,,,,,,,,,,,,,1,8,18,4,,,,,,,,,,,AFSA17.jpg,AFNE06.jpg,AFSA06.jpg,AFNE02.jpg,AFNE06.jpg,FN,3,num_6,32,num_2,1.01668870146,,,2017_Dec_07_1122,59.9960744807,MAFE4ImagesEEG,001,202379,
AFNE01.JPG,AFNE01.JPG,AFNE01.JPG,AFNE01.JPG,AFNE01.JPG,AFNE01.JPG,,,,,,,,,,,,,1,9,19,1,,,,,,,,,,,AFNE13.jpg,AFSA10.jpg,AFNE08.jpg,AFSA09.jpg,AFSA10.jpg,FS,4,num_6,16,num_6,3.93331703986,,,2017_Dec_07_1122,59.9960744807,MAFE4ImagesEEG,001,202379,
AFNE01.JPG,AFNE01.JPG,AFNE01.JPG,AFNE01.JPG,AFNE01.JPG,AFNE01.JPG,,,,,,,,,,,,,2,0,20,7,,,,,,,,,,,AFNE15.jpg,AFSA13.jpg,AFNE02.jpg,AFSA15.jpg,AFSA13.jpg,FS,4,num_6,16,num_6,0.700145423179,,,2017_Dec_07_1122,59.9960744807,MAFE4ImagesEEG,001,202379,
AFNE01.JPG,AFNE01.JPG,AFNE01.JPG,AFNE01.JPG,AFNE01.JPG,AFNE01.JPG,,,,,,,,,,,,,2,1,21,0,,,,,,,,,,,AFNE19.jpg,AFSA15.jpg,AFNE18.jpg,AFSA04.jpg,AFNE18.jpg,FN,3,num_2,16,num_2,0.933441486675,,,2017_Dec_07_1122,59.9960744807,MAFE4ImagesEEG,001,202379,
AFNE01.JPG,AFNE01.JPG,AFNE01.JPG,AFNE01.JPG,AFNE01.JPG,AFNE01.JPG,,,,,,,,,,,,,2,2,22,3,,,,,,,,,,,AFNE14.jpg,AFSA14.jpg,AFSA20.jpg,AFNE16.jpg,AFSA14.jpg,FS,4,num_6,16,num_6,0.633469840046,,,2017_Dec_07_1122,59.9960744807,MAFE4ImagesEEG,001,202379,
AFNE01.JPG,AFNE01.JPG,AFNE01.JPG,AFNE01.JPG,AFNE01.JPG,AFNE01.JPG,,,,,,,,,,,,,2,3,23,4,,,,,,,,,,,AFSA13.jpg,AFNE14.jpg,AFSA09.jpg,AFNE10.jpg,AFNE14.jpg,FN,3,num_6,32,num_4,0.833425064804,,,2017_Dec_07_1122,59.9960744807,MAFE4ImagesEEG,001,202379,
AFNE01.JPG,AFNE01.JPG,AFNE01.JPG,AFNE01.JPG,AFNE01.JPG,AFNE01.JPG,,,,,,,,,,,,,2,4,24,6,,,,,,,,,,,AFNE11.jpg,AFNE15.jpg,AFSA19.jpg,AFSA05.jpg,AFSA19.jpg,FS,4,num_2,32,num_4,1.0001436912,,,2017_Dec_07_1122,59.9960744807,MAFE4ImagesEEG,001,202379,
AFNE01.JPG,AFNE01.JPG,AFNE01.JPG,AFNE01.JPG,AFNE01.JPG,AFNE01.JPG,,,,,,,,,,,,,2,5,25,1,,,,,,,,,,,AFNE18.jpg,AFSA02.jpg,AFNE02.jpg,AFSA01.jpg,AFSA01.jpg,FS,4,num_4,16,num_4,1.16673755017,,,2017_Dec_07_1122,59.9960744807,MAFE4ImagesEEG,001,202379,
AFNE01.JPG,AFNE01.JPG,AFNE01.JPG,AFNE01.JPG,AFNE01.JPG,AFNE01.JPG,,,,,,,,,,,,,2,6,26,9,,,,,,,,,,,AFNE12.jpg,AFSA14.jpg,AFSA17.jpg,AFNE13.jpg,AFSA17.jpg,FS,4,num_2,32,num_6,0.566780464957,,,2017_Dec_07_1122,59.9960744807,MAFE4ImagesEEG,001,202379,
AFNE01.JPG,AFNE01.JPG,AFNE01.JPG,AFNE01.JPG,AFNE01.JPG,AFNE01.JPG,,,,,,,,,,,,,2,7,27,5,,,,,,,,,,,AFSA13.jpg,AFSA10.jpg,AFNE12.jpg,AFNE05.jpg,AFNE05.jpg,FN,3,num_4,32,num_2,0.983458838426,,,2017_Dec_07_1122,59.9960744807,MAFE4ImagesEEG,001,202379,
AFNE01.JPG,AFNE01.JPG,AFNE01.JPG,AFNE01.JPG,AFNE01.JPG,AFNE01.JPG,,,,,,,,,,,,,2,8,28,2,,,,,,,,,,,AFSA12.jpg,AFSA02.jpg,AFNE09.jpg,AFNE13.jpg,AFNE09.jpg,FN,3,num_2,32,num_4,0.983442160068,,,2017_Dec_07_1122,59.9960744807,MAFE4ImagesEEG,001,202379,
AFNE01.JPG,AFNE01.JPG,AFNE01.JPG,AFNE01.JPG,AFNE01.JPG,AFNE01.JPG,,,,,,,,,,,,,2,9,29,8,,,,,,,,,,,AFNE16.jpg,AFSA18.jpg,AFNE07.jpg,AFSA08.jpg,AFNE07.jpg,FN,3,num_2,16,num_2,0.866759167751,,,2017_Dec_07_1122,59.9960744807,MAFE4ImagesEEG,001,202379,
AFNE01.JPG,AFNE01.JPG,AFNE01.JPG,AFNE01.JPG,AFNE01.JPG,AFNE01.JPG,,,,,,,,,,,,,3,0,30,2,,,,,,,,,,,AFNE09.jpg,AFSA10.jpg,AFNE14.jpg,AFSA18.jpg,AFNE14.jpg,FN,3,num_2,32,num_8,1.16673017293,,,2017_Dec_07_1122,59.9960744807,MAFE4ImagesEEG,001,202379,
AFNE01.JPG,AFNE01.JPG,AFNE01.JPG,AFNE01.JPG,AFNE01.JPG,AFNE01.JPG,,,,,,,,,,,,,3,1,31,6,,,,,,,,,,,AFNE13.jpg,AFSA12.jpg,AFNE09.jpg,AFSA11.jpg,AFSA12.jpg,FS,4,num_6,32,num_4,1.36676750705,,,2017_Dec_07_1122,59.9960744807,MAFE4ImagesEEG,001,202379,
AFNE01.JPG,AFNE01.JPG,AFNE01.JPG,AFNE01.JPG,AFNE01.JPG,AFNE01.JPG,,,,,,,,,,,,,3,2,32,4,,,,,,,,,,,AFNE03.jpg,AFSA08.jpg,AFSA04.jpg,AFNE04.jpg,AFNE03.jpg,FN,3,num_8,32,num_6,0.700130990008,,,2017_Dec_07_1122,59.9960744807,MAFE4ImagesEEG,001,202379,
AFNE01.JPG,AFNE01.JPG,AFNE01.JPG,AFNE01.JPG,AFNE01.JPG,AFNE01.JPG,,,,,,,,,,,,,3,3,33,3,,,,,,,,,,,AFSA11.jpg,AFNE12.jpg,AFNE10.jpg,AFSA08.jpg,AFSA11.jpg,FS,4,num_8,32,num_4,1.01679262077,,,2017_Dec_07_1122,59.9960744807,MAFE4ImagesEEG,001,202379,
AFNE01.JPG,AFNE01.JPG,AFNE01.JPG,AFNE01.JPG,AFNE01.JPG,AFNE01.JPG,,,,,,,,,,,,,3,4,34,8,,,,,,,,,,,AFNE04.jpg,AFNE17.jpg,AFSA12.jpg,AFSA09.jpg,AFSA09.jpg,FS,4,num_4,16,num_4,0.716786334291,,,2017_Dec_07_1122,59.9960744807,MAFE4ImagesEEG,001,202379,
AFNE01.JPG,AFNE01.JPG,AFNE01.JPG,AFNE01.JPG,AFNE01.JPG,AFNE01.JPG,,,,,,,,,,,,,3,5,35,9,,,,,,,,,,,AFNE09.jpg,AFSA07.jpg,AFNE17.jpg,AFSA02.jpg,AFSA07.jpg,FS,4,num_6,16,num_6,0.700126178795,,,2017_Dec_07_1122,59.9960744807,MAFE4ImagesEEG,001,202379,
AFNE01.JPG,AFNE01.JPG,AFNE01.JPG,AFNE01.JPG,AFNE01.JPG,AFNE01.JPG,,,,,,,,,,,,,3,6,36,7,,,,,,,,,,,AFNE08.jpg,AFNE06.jpg,AFSA10.jpg,AFSA16.jpg,AFSA10.jpg,FS,4,num_2,16,num_2,0.900379049592,,,2017_Dec_07_1122,59.9960744807,MAFE4ImagesEEG,001,202379,
AFNE01.JPG,AFNE01.JPG,AFNE01.JPG,AFNE01.JPG,AFNE01.JPG,AFNE01.JPG,,,,,,,,,,,,,3,7,37,5,,,,,,,,,,,AFSA19.jpg,AFNE01.jpg,AFSA06.jpg,AFNE17.jpg,AFNE01.jpg,FN,3,num_6,32,num_4,1.11661627842,,,2017_Dec_07_1122,59.9960744807,MAFE4ImagesEEG,001,202379,
AFNE01.JPG,AFNE01.JPG,AFNE01.JPG,AFNE01.JPG,AFNE01.JPG,AFNE01.JPG,,,,,,,,,,,,,3,8,38,0,,,,,,,,,,,AFNE08.jpg,AFNE13.jpg,AFSA11.jpg,AFSA02.jpg,AFSA02.jpg,FS,4,num_4,16,num_4,1.00013471046,,,2017_Dec_07_1122,59.9960744807,MAFE4ImagesEEG,001,202379,
AFNE01.JPG,AFNE01.JPG,AFNE01.JPG,AFNE01.JPG,AFNE01.JPG,AFNE01.JPG,,,,,,,,,,,,,3,9,39,1,,,,,,,,,,,AFSA01.jpg,AFNE04.jpg,AFNE20.jpg,AFSA05.jpg,AFNE04.jpg,FN,3,num_6,16,num_6,0.933413261548,,,2017_Dec_07_1122,59.9960744807,MAFE4ImagesEEG,001,202379,
AFNE01.JPG,AFNE01.JPG,AFNE01.JPG,AFNE01.JPG,AFNE01.JPG,AFNE01.JPG,,,,,,,,,,,,,4,0,40,0,,,,,,,,,,,AFSA18.jpg,AFNE01.jpg,AFSA13.jpg,AFNE16.jpg,AFSA13.jpg,FS,4,num_2,32,num_8,0.966738063376,,,2017_Dec_07_1122,59.9960744807,MAFE4ImagesEEG,001,202379,
AFNE01.JPG,AFNE01.JPG,AFNE01.JPG,AFNE01.JPG,AFNE01.JPG,AFNE01.JPG,,,,,,,,,,,,,4,1,41,2,,,,,,,,,,,AFNE02.jpg,AFNE06.jpg,AFSA11.jpg,AFSA15.jpg,AFNE06.jpg,FN,3,num_6,16,num_6,0.900176021503,,,2017_Dec_07_1122,59.9960744807,MAFE4ImagesEEG,001,202379,
AFNE01.JPG,AFNE01.JPG,AFNE01.JPG,AFNE01.JPG,AFNE01.JPG,AFNE01.JPG,,,,,,,,,,,,,4,2,42,8,,,,,,,,,,,AFSA18.jpg,AFNE04.jpg,AFSA02.jpg,AFNE02.jpg,AFSA18.jpg,FS,4,num_8,16,num_8,0.766858211951,,,2017_Dec_07_1122,59.9960744807,MAFE4ImagesEEG,001,202379,
AFNE01.JPG,AFNE01.JPG,AFNE01.JPG,AFNE01.JPG,AFNE01.JPG,AFNE01.JPG,,,,,,,,,,,,,4,3,43,4,,,,,,,,,,,AFNE05.jpg,AFNE03.jpg,AFSA01.jpg,AFSA04.jpg,AFNE03.jpg,FN,3,num_6,16,num_6,0.683534661308,,,2017_Dec_07_1122,59.9960744807,MAFE4ImagesEEG,001,202379,
AFNE01.JPG,AFNE01.JPG,AFNE01.JPG,AFNE01.JPG,AFNE01.JPG,AFNE01.JPG,,,,,,,,,,,,,4,4,44,3,,,,,,,,,,,AFNE17.jpg,AFSA10.jpg,AFNE04.jpg,AFSA16.jpg,AFNE17.jpg,FN,3,num_8,16,num_8,2.09972839803,,,2017_Dec_07_1122,59.9960744807,MAFE4ImagesEEG,001,202379,
AFNE01.JPG,AFNE01.JPG,AFNE01.JPG,AFNE01.JPG,AFNE01.JPG,AFNE01.JPG,,,,,,,,,,,,,4,5,45,5,,,,,,,,,,,AFNE05.jpg,AFSA13.jpg,AFNE15.jpg,AFSA06.jpg,AFNE15.jpg,FN,3,num_2,32,num_6,0.700150234159,,,2017_Dec_07_1122,59.9960744807,MAFE4ImagesEEG,001,202379,
AFNE01.JPG,AFNE01.JPG,AFNE01.JPG,AFNE01.JPG,AFNE01.JPG,AFNE01.JPG,,,,,,,,,,,,,4,6,46,6,,,,,,,,,,,AFNE08.jpg,AFSA05.jpg,AFSA18.jpg,AFNE15.jpg,AFNE15.jpg,FN,3,num_4,32,num_6,2.26704295794,,,2017_Dec_07_1122,59.9960744807,MAFE4ImagesEEG,001,202379,
AFNE01.JPG,AFNE01.JPG,AFNE01.JPG,AFNE01.JPG,AFNE01.JPG,AFNE01.JPG,,,,,,,,,,,,,4,7,47,1,,,,,,,,,,,AFSA16.jpg,AFSA11.jpg,AFNE11.jpg,AFNE16.jpg,AFSA11.jpg,FS,4,num_6,32,num_2,0.800224389182,,,2017_Dec_07_1122,59.9960744807,MAFE4ImagesEEG,001,202379,
AFNE01.JPG,AFNE01.JPG,AFNE01.JPG,AFNE01.JPG,AFNE01.JPG,AFNE01.JPG,,,,,,,,,,,,,4,8,48,9,,,,,,,,,,,AFNE16.jpg,AFSA18.jpg,AFNE13.jpg,AFSA04.jpg,AFNE13.jpg,FN,3,num_2,32,num_8,1.01677786699,,,2017_Dec_07_1122,59.9960744807,MAFE4ImagesEEG,001,202379,
AFNE01.JPG,AFNE01.JPG,AFNE01.JPG,AFNE01.JPG,AFNE01.JPG,AFNE01.JPG,,,,,,,,,,,,,4,9,49,7,,,,,,,,,,,AFNE03.jpg,AFNE10.jpg,AFSA19.jpg,AFSA15.jpg,AFNE03.jpg,FN,3,num_8,32,num_2,0.683440363966,,,2017_Dec_07_1122,59.9960744807,MAFE4ImagesEEG,001,202379,
AFNE01.JPG,AFNE01.JPG,AFNE01.JPG,AFNE01.JPG,AFNE01.JPG,AFNE01.JPG,,,,,,,,,,,,,5,0,50,2,,,,,,,,,,,AFSA05.jpg,AFNE20.jpg,AFSA07.jpg,AFNE10.jpg,AFSA07.jpg,FS,4,num_2,32,num_8,1.06673492002,,,2017_Dec_07_1122,59.9960744807,MAFE4ImagesEEG,001,202379,
AFNE01.JPG,AFNE01.JPG,AFNE01.JPG,AFNE01.JPG,AFNE01.JPG,AFNE01.JPG,,,,,,,,,,,,,5,1,51,3,,,,,,,,,,,AFSA07.jpg,AFSA05.jpg,AFNE19.jpg,AFNE20.jpg,AFNE20.jpg,FN,3,num_4,32,num_2,1.03344058851,,,2017_Dec_07_1122,59.9960744807,MAFE4ImagesEEG,001,202379,
AFNE01.JPG,AFNE01.JPG,AFNE01.JPG,AFNE01.JPG,AFNE01.JPG,AFNE01.JPG,,,,,,,,,,,,,5,2,52,4,,,,,,,,,,,AFSA12.jpg,AFNE15.jpg,AFSA04.jpg,AFNE14.jpg,AFSA04.jpg,FS,4,num_2,16,num_2,1.80005664262,,,2017_Dec_07_1122,59.9960744807,MAFE4ImagesEEG,001,202379,
AFNE01.JPG,AFNE01.JPG,AFNE01.JPG,AFNE01.JPG,AFNE01.JPG,AFNE01.JPG,,,,,,,,,,,,,5,3,53,5,,,,,,,,,,,AFSA15.jpg,AFNE18.jpg,AFNE14.jpg,AFSA17.jpg,AFNE18.jpg,FN,3,num_6,16,num_6,1.43347259844,,,2017_Dec_07_1122,59.9960744807,MAFE4ImagesEEG,001,202379,
AFNE01.JPG,AFNE01.JPG,AFNE01.JPG,AFNE01.JPG,AFNE01.JPG,AFNE01.JPG,,,,,,,,,,,,,5,4,54,9,,,,,,,,,,,AFNE13.jpg,AFNE19.jpg,AFSA03.jpg,AFSA11.jpg,AFSA03.jpg,FS,4,num_2,32,num_6,0.750120437471,,,2017_Dec_07_1122,59.9960744807,MAFE4ImagesEEG,001,202379,
AFNE01.JPG,AFNE01.JPG,AFNE01.JPG,AFNE01.JPG,AFNE01.JPG,AFNE01.JPG,,,,,,,,,,,,,5,5,55,7,,,,,,,,,,,AFNE03.jpg,AFSA13.jpg,AFNE13.jpg,AFSA05.jpg,AFSA13.jpg,FS,4,num_6,32,num_4,0.566775974585,,,2017_Dec_07_1122,59.9960744807,MAFE4ImagesEEG,001,202379,
AFNE01.JPG,AFNE01.JPG,AFNE01.JPG,AFNE01.JPG,AFNE01.JPG,AFNE01.JPG,,,,,,,,,,,,,5,6,56,6,,,,,,,,,,,AFNE09.jpg,AFSA05.jpg,AFSA17.jpg,AFNE01.jpg,AFSA05.jpg,FS,4,num_6,16,num_6,0.600161395967,,,2017_Dec_07_1122,59.9960744807,MAFE4ImagesEEG,001,202379,
AFNE01.JPG,AFNE01.JPG,AFNE01.JPG,AFNE01.JPG,AFNE01.JPG,AFNE01.JPG,,,,,,,,,,,,,5,7,57,8,,,,,,,,,,,AFSA10.jpg,AFNE09.jpg,AFNE20.jpg,AFSA15.jpg,AFSA15.jpg,FS,4,num_4,32,num_8,1.1667247205,,,2017_Dec_07_1122,59.9960744807,MAFE4ImagesEEG,001,202379,
AFNE01.JPG,AFNE01.JPG,AFNE01.JPG,AFNE01.JPG,AFNE01.JPG,AFNE01.JPG,,,,,,,,,,,,,5,8,58,1,,,,,,,,,,,AFNE19.jpg,AFSA02.jpg,AFSA07.jpg,AFNE02.jpg,AFNE02.jpg,FN,3,num_4,32,num_2,2.95008592587,,,2017_Dec_07_1122,59.9960744807,MAFE4ImagesEEG,001,202379,
AFNE01.JPG,AFNE01.JPG,AFNE01.JPG,AFNE01.JPG,AFNE01.JPG,AFNE01.JPG,,,,,,,,,,,,,5,9,59,0,,,,,,,,,,,AFNE18.jpg,AFSA20.jpg,AFSA11.jpg,AFNE13.jpg,AFNE18.jpg,FN,3,num_8,32,num_2,1.80001366348,,,2017_Dec_07_1122,59.9960744807,MAFE4ImagesEEG,001,202379,
,,,,,,,,,,,,,,,,,,,,,,,,,,,,,,,,,,,,,,,,,,,space,3.29988953751,2017_Dec_07_1122,59.9960744807,MAFE4ImagesEEG,001,202379,
AFNE01.JPG,AFNE01.JPG,AFNE01.JPG,AFNE01.JPG,AFNE01.JPG,AFNE01.JPG,,,,,,,,,,,,,,,,,0,0,0,7,,,,,,,AMSA06.jpg,AMNE04.jpg,AMNE02.jpg,AMSA19.jpg,AMSA06.jpg,MS,2,num_8,32,num_4,0.983441197779,,,2017_Dec_07_1122,59.9960744807,MAFE4ImagesEEG,001,202379,
AFNE01.JPG,AFNE01.JPG,AFNE01.JPG,AFNE01.JPG,AFNE01.JPG,AFNE01.JPG,,,,,,,,,,,,,,,,,0,1,1,6,,,,,,,AMNE18.jpg,AMSA15.jpg,AMNE07.jpg,AMSA01.jpg,AMSA15.jpg,MS,2,num_6,16,num_6,0.550082141301,,,2017_Dec_07_1122,59.9960744807,MAFE4ImagesEEG,001,202379,
AFNE01.JPG,AFNE01.JPG,AFNE01.JPG,AFNE01.JPG,AFNE01.JPG,AFNE01.JPG,,,,,,,,,,,,,,,,,0,2,2,2,,,,,,,AMNE13.jpg,AMSA03.jpg,AMSA20.jpg,AMNE11.jpg,AMNE11.jpg,MN,1,num_4,32,num_8,1.08343869611,,,2017_Dec_07_1122,59.9960744807,MAFE4ImagesEEG,001,202379,
AFNE01.JPG,AFNE01.JPG,AFNE01.JPG,AFNE01.JPG,AFNE01.JPG,AFNE01.JPG,,,,,,,,,,,,,,,,,0,3,3,1,,,,,,,AMSA01.jpg,AMNE19.jpg,AMNE18.jpg,AMSA15.jpg,AMSA15.jpg,MS,2,num_4,16,num_4,0.450149753131,,,2017_Dec_07_1122,59.9960744807,MAFE4ImagesEEG,001,202379,
AFNE01.JPG,AFNE01.JPG,AFNE01.JPG,AFNE01.JPG,AFNE01.JPG,AFNE01.JPG,,,,,,,,,,,,,,,,,0,4,4,8,,,,,,,AMSA05.jpg,AMNE16.jpg,AMNE11.jpg,AMSA13.jpg,AMNE16.jpg,MN,1,num_6,32,num_2,0.900126307039,,,2017_Dec_07_1122,59.9960744807,MAFE4ImagesEEG,001,202379,
AFNE01.JPG,AFNE01.JPG,AFNE01.JPG,AFNE01.JPG,AFNE01.JPG,AFNE01.JPG,,,,,,,,,,,,,,,,,0,5,5,4,,,,,,,AMNE16.jpg,AMSA16.jpg,AMNE17.jpg,AMSA17.jpg,AMSA17.jpg,MS,2,num_4,16,num_4,0.766804648796,,,2017_Dec_07_1122,59.9960744807,MAFE4ImagesEEG,001,202379,
AFNE01.JPG,AFNE01.JPG,AFNE01.JPG,AFNE01.JPG,AFNE01.JPG,AFNE01.JPG,,,,,,,,,,,,,,,,,0,6,6,9,,,,,,,AMNE06.jpg,AMSA01.jpg,AMNE07.jpg,AMSA05.jpg,AMSA05.jpg,MS,2,num_4,16,num_4,0.616798137547,,,2017_Dec_07_1122,59.9960744807,MAFE4ImagesEEG,001,202379,
AFNE01.JPG,AFNE01.JPG,AFNE01.JPG,AFNE01.JPG,AFNE01.JPG,AFNE01.JPG,,,,,,,,,,,,,,,,,0,7,7,5,,,,,,,AMNE17.jpg,AMNE11.jpg,AMSA11.jpg,AMSA02.jpg,AMSA11.jpg,MS,2,num_2,16,num_2,0.833321786718,,,2017_Dec_07_1122,59.9960744807,MAFE4ImagesEEG,001,202379,
AFNE01.JPG,AFNE01.JPG,AFNE01.JPG,AFNE01.JPG,AFNE01.JPG,AFNE01.JPG,,,,,,,,,,,,,,,,,0,8,8,3,,,,,,,AMSA17.jpg,AMNE18.jpg,AMSA10.jpg,AMNE12.jpg,AMNE18.jpg,MN,1,num_6,16,num_6,1.00010039122,,,2017_Dec_07_1122,59.9960744807,MAFE4ImagesEEG,001,202379,
AFNE01.JPG,AFNE01.JPG,AFNE01.JPG,AFNE01.JPG,AFNE01.JPG,AFNE01.JPG,,,,,,,,,,,,,,,,,0,9,9,0,,,,,,,AMSA08.jpg,AMNE12.jpg,AMNE03.jpg,AMSA16.jpg,AMSA16.jpg,MS,2,num_4,16,num_4,0.416809876682,,,2017_Dec_07_1122,59.9960744807,MAFE4ImagesEEG,001,202379,
AFNE01.JPG,AFNE01.JPG,AFNE01.JPG,AFNE01.JPG,AFNE01.JPG,AFNE01.JPG,,,,,,,,,,,,,,,,,1,0,10,1,,,,,,,AMSA05.jpg,AMNE05.jpg,AMNE13.jpg,AMSA17.jpg,AMSA05.jpg,MS,2,num_8,16,num_8,0.900162230013,,,2017_Dec_07_1122,59.9960744807,MAFE4ImagesEEG,001,202379,
AFNE01.JPG,AFNE01.JPG,AFNE01.JPG,AFNE01.JPG,AFNE01.JPG,AFNE01.JPG,,,,,,,,,,,,,,,,,1,1,11,0,,,,,,,AMNE16.jpg,AMNE09.jpg,AMSA10.jpg,AMSA15.jpg,AMNE09.jpg,MN,1,num_6,16,num_6,1.1165085102,,,2017_Dec_07_1122,59.9960744807,MAFE4ImagesEEG,001,202379,
AFNE01.JPG,AFNE01.JPG,AFNE01.JPG,AFNE01.JPG,AFNE01.JPG,AFNE01.JPG,,,,,,,,,,,,,,,,,1,2,12,3,,,,,,,AMSA10.jpg,AMSA19.jpg,AMNE20.jpg,AMNE18.jpg,AMSA19.jpg,MS,2,num_6,16,num_6,1.20009121811,,,2017_Dec_07_1122,59.9960744807,MAFE4ImagesEEG,001,202379,
AFNE01.JPG,AFNE01.JPG,AFNE01.JPG,AFNE01.JPG,AFNE01.JPG,AFNE01.JPG,,,,,,,,,,,,,,,,,1,3,13,5,,,,,,,AMSA18.jpg,AMNE03.jpg,AMSA07.jpg,AMNE14.jpg,AMNE14.jpg,MN,1,num_4,16,num_4,0.88345107669,,,2017_Dec_07_1122,59.9960744807,MAFE4ImagesEEG,001,202379,
AFNE01.JPG,AFNE01.JPG,AFNE01.JPG,AFNE01.JPG,AFNE01.JPG,AFNE01.JPG,,,,,,,,,,,,,,,,,1,4,14,7,,,,,,,AMSA19.jpg,AMNE13.jpg,AMSA14.jpg,AMNE06.jpg,AMSA19.jpg,MS,2,num_8,16,num_8,1.93337477301,,,2017_Dec_07_1122,59.9960744807,MAFE4ImagesEEG,001,202379,
AFNE01.JPG,AFNE01.JPG,AFNE01.JPG,AFNE01.JPG,AFNE01.JPG,AFNE01.JPG,,,,,,,,,,,,,,,,,1,5,15,8,,,,,,,AMNE06.jpg,AMNE07.jpg,AMSA14.jpg,AMSA02.jpg,AMNE06.jpg,MN,1,num_8,32,num_6,0.783456465229,,,2017_Dec_07_1122,59.9960744807,MAFE4ImagesEEG,001,202379,
AFNE01.JPG,AFNE01.JPG,AFNE01.JPG,AFNE01.JPG,AFNE01.JPG,AFNE01.JPG,,,,,,,,,,,,,,,,,1,6,16,9,,,,,,,AMSA20.jpg,AMNE07.jpg,AMNE08.jpg,AMSA18.jpg,AMNE08.jpg,MN,1,num_2,32,num_4,0.750099910423,,,2017_Dec_07_1122,59.9960744807,MAFE4ImagesEEG,001,202379,
AFNE01.JPG,AFNE01.JPG,AFNE01.JPG,AFNE01.JPG,AFNE01.JPG,AFNE01.JPG,,,,,,,,,,,,,,,,,1,7,17,6,,,,,,,AMSA04.jpg,AMSA19.jpg,AMNE04.jpg,AMNE17.jpg,AMSA04.jpg,MS,2,num_8,16,num_8,0.866796373622,,,2017_Dec_07_1122,59.9960744807,MAFE4ImagesEEG,001,202379,
AFNE01.JPG,AFNE01.JPG,AFNE01.JPG,AFNE01.JPG,AFNE01.JPG,AFNE01.JPG,,,,,,,,,,,,,,,,,1,8,18,4,,,,,,,AMSA10.jpg,AMSA03.jpg,AMNE18.jpg,AMNE08.jpg,AMSA10.jpg,MS,2,num_8,16,num_8,0.983451782493,,,2017_Dec_07_1122,59.9960744807,MAFE4ImagesEEG,001,202379,
AFNE01.JPG,AFNE01.JPG,AFNE01.JPG,AFNE01.JPG,AFNE01.JPG,AFNE01.JPG,,,,,,,,,,,,,,,,,1,9,19,2,,,,,,,AMNE17.jpg,AMSA04.jpg,AMSA08.jpg,AMNE02.jpg,AMNE02.jpg,MN,1,num_4,32,num_8,0.750373821706,,,2017_Dec_07_1122,59.9960744807,MAFE4ImagesEEG,001,202379,
AFNE01.JPG,AFNE01.JPG,AFNE01.JPG,AFNE01.JPG,AFNE01.JPG,AFNE01.JPG,,,,,,,,,,,,,,,,,2,0,20,5,,,,,,,AMSA07.jpg,AMNE04.jpg,AMSA11.jpg,AMNE07.jpg,AMNE07.jpg,MN,1,num_4,16,num_4,0.916788387112,,,2017_Dec_07_1122,59.9960744807,MAFE4ImagesEEG,001,202379,
AFNE01.JPG,AFNE01.JPG,AFNE01.JPG,AFNE01.JPG,AFNE01.JPG,AFNE01.JPG,,,,,,,,,,,,,,,,,2,1,21,1,,,,,,,AMSA01.jpg,AMSA12.jpg,AMNE11.jpg,AMNE13.jpg,AMSA12.jpg,MS,2,num_6,32,num_2,0.766789894551,,,2017_Dec_07_1122,59.9960744807,MAFE4ImagesEEG,001,202379,
AFNE01.JPG,AFNE01.JPG,AFNE01.JPG,AFNE01.JPG,AFNE01.JPG,AFNE01.JPG,,,,,,,,,,,,,,,,,2,2,22,2,,,,,,,AMSA08.jpg,AMNE04.jpg,AMSA09.jpg,AMNE16.jpg,AMNE16.jpg,MN,1,num_4,16,num_4,0.766840250697,,,2017_Dec_07_1122,59.9960744807,MAFE4ImagesEEG,001,202379,
AFNE01.JPG,AFNE01.JPG,AFNE01.JPG,AFNE01.JPG,AFNE01.JPG,AFNE01.JPG,,,,,,,,,,,,,,,,,2,3,23,7,,,,,,,AMNE10.jpg,AMSA08.jpg,AMSA13.jpg,AMNE01.jpg,AMNE01.jpg,MN,1,num_4,32,num_2,0.80005535949,,,2017_Dec_07_1122,59.9960744807,MAFE4ImagesEEG,001,202379,
AFNE01.JPG,AFNE01.JPG,AFNE01.JPG,AFNE01.JPG,AFNE01.JPG,AFNE01.JPG,,,,,,,,,,,,,,,,,2,4,24,3,,,,,,,AMSA07.jpg,AMSA16.jpg,AMNE11.jpg,AMNE20.jpg,AMSA07.jpg,MS,2,num_8,16,num_8,0.666750058997,,,2017_Dec_07_1122,59.9960744807,MAFE4ImagesEEG,001,202379,
AFNE01.JPG,AFNE01.JPG,AFNE01.JPG,AFNE01.JPG,AFNE01.JPG,AFNE01.JPG,,,,,,,,,,,,,,,,,2,5,25,8,,,,,,,AMNE01.jpg,AMSA19.jpg,AMNE16.jpg,AMSA03.jpg,AMSA03.jpg,MS,2,num_4,32,num_8,1.13345123711,,,2017_Dec_07_1122,59.9960744807,MAFE4ImagesEEG,001,202379,
AFNE01.JPG,AFNE01.JPG,AFNE01.JPG,AFNE01.JPG,AFNE01.JPG,AFNE01.JPG,,,,,,,,,,,,,,,,,2,6,26,4,,,,,,,AMNE08.jpg,AMSA06.jpg,AMNE05.jpg,AMSA12.jpg,AMSA12.jpg,MS,2,num_4,32,num_6,0.683455117978,,,2017_Dec_07_1122,59.9960744807,MAFE4ImagesEEG,001,202379,
AFNE01.JPG,AFNE01.JPG,AFNE01.JPG,AFNE01.JPG,AFNE01.JPG,AFNE01.JPG,,,,,,,,,,,,,,,,,2,7,27,9,,,,,,,AMNE14.jpg,AMSA04.jpg,AMSA20.jpg,AMNE08.jpg,AMNE08.jpg,MN,1,num_4,32,num_2,0.883412587922,,,2017_Dec_07_1122,59.9960744807,MAFE4ImagesEEG,001,202379,
AFNE01.JPG,AFNE01.JPG,AFNE01.JPG,AFNE01.JPG,AFNE01.JPG,AFNE01.JPG,,,,,,,,,,,,,,,,,2,8,28,0,,,,,,,AMNE04.jpg,AMSA04.jpg,AMSA16.jpg,AMNE10.jpg,AMNE10.jpg,MN,1,num_4,16,num_4,0.833448478719,,,2017_Dec_07_1122,59.9960744807,MAFE4ImagesEEG,001,202379,
AFNE01.JPG,AFNE01.JPG,AFNE01.JPG,AFNE01.JPG,AFNE01.JPG,AFNE01.JPG,,,,,,,,,,,,,,,,,2,9,29,6,,,,,,,AMNE13.jpg,AMSA19.jpg,AMSA14.jpg,AMNE18.jpg,AMNE13.jpg,MN,1,num_8,16,num_8,1.18342368538,,,2017_Dec_07_1122,59.9960744807,MAFE4ImagesEEG,001,202379,
AFNE01.JPG,AFNE01.JPG,AFNE01.JPG,AFNE01.JPG,AFNE01.JPG,AFNE01.JPG,,,,,,,,,,,,,,,,,3,0,30,8,,,,,,,AMSA09.jpg,AMNE19.jpg,AMSA10.jpg,AMNE05.jpg,AMSA10.jpg,MS,2,num_2,32,num_8,0.500024055364,,,2017_Dec_07_1122,59.9960744807,MAFE4ImagesEEG,001,202379,
AFNE01.JPG,AFNE01.JPG,AFNE01.JPG,AFNE01.JPG,AFNE01.JPG,AFNE01.JPG,,,,,,,,,,,,,,,,,3,1,31,5,,,,,,,AMSA12.jpg,AMNE17.jpg,AMSA16.jpg,AMNE05.jpg,AMNE17.jpg,MN,1,num_6,32,num_4,0.950076624751,,,2017_Dec_07_1122,59.9960744807,MAFE4ImagesEEG,001,202379,
AFNE01.JPG,AFNE01.JPG,AFNE01.JPG,AFNE01.JPG,AFNE01.JPG,AFNE01.JPG,,,,,,,,,,,,,,,,,3,2,32,6,,,,,,,AMSA17.jpg,AMNE15.jpg,AMSA06.jpg,AMNE08.jpg,AMNE15.jpg,MN,1,num_6,16,num_6,1.10015883017,,,2017_Dec_07_1122,59.9960744807,MAFE4ImagesEEG,001,202379,
AFNE01.JPG,AFNE01.JPG,AFNE01.JPG,AFNE01.JPG,AFNE01.JPG,AFNE01.JPG,,,,,,,,,,,,,,,,,3,3,33,9,,,,,,,AMNE15.jpg,AMSA08.jpg,AMSA06.jpg,AMNE20.jpg,AMSA08.jpg,MS,2,num_6,32,num_2,0.683492965298,,,2017_Dec_07_1122,59.9960744807,MAFE4ImagesEEG,001,202379,
AFNE01.JPG,AFNE01.JPG,AFNE01.JPG,AFNE01.JPG,AFNE01.JPG,AFNE01.JPG,,,,,,,,,,,,,,,,,3,4,34,4,,,,,,,AMNE13.jpg,AMNE05.jpg,AMSA09.jpg,AMSA16.jpg,AMNE05.jpg,MN,1,num_6,32,num_8,1.50007986417,,,2017_Dec_07_1122,59.9960744807,MAFE4ImagesEEG,001,202379,
AFNE01.JPG,AFNE01.JPG,AFNE01.JPG,AFNE01.JPG,AFNE01.JPG,AFNE01.JPG,,,,,,,,,,,,,,,,,3,5,35,3,,,,,,,AMSA12.jpg,AMSA08.jpg,AMNE20.jpg,AMNE07.jpg,AMNE20.jpg,MN,1,num_2,32,num_6,1.10012611467,,,2017_Dec_07_1122,59.9960744807,MAFE4ImagesEEG,001,202379,
AFNE01.JPG,AFNE01.JPG,AFNE01.JPG,AFNE01.JPG,AFNE01.JPG,AFNE01.JPG,,,,,,,,,,,,,,,,,3,6,36,1,,,,,,,AMSA09.jpg,AMNE04.jpg,AMSA12.jpg,AMNE15.jpg,AMNE04.jpg,MN,1,num_6,32,num_2,1.1334207668,,,2017_Dec_07_1122,59.9960744807,MAFE4ImagesEEG,001,202379,
AFNE01.JPG,AFNE01.JPG,AFNE01.JPG,AFNE01.JPG,AFNE01.JPG,AFNE01.JPG,,,,,,,,,,,,,,,,,3,7,37,7,,,,,,,AMSA01.jpg,AMSA09.jpg,AMNE11.jpg,AMNE10.jpg,AMNE10.jpg,MN,1,num_4,16,num_4,1.0666300382,,,2017_Dec_07_1122,59.9960744807,MAFE4ImagesEEG,001,202379,
AFNE01.JPG,AFNE01.JPG,AFNE01.JPG,AFNE01.JPG,AFNE01.JPG,AFNE01.JPG,,,,,,,,,,,,,,,,,3,8,38,0,,,,,,,AMSA12.jpg,AMSA17.jpg,AMNE08.jpg,AMNE20.jpg,AMSA17.jpg,MS,2,num_6,16,num_6,1.0501504587,,,2017_Dec_07_1122,59.9960744807,MAFE4ImagesEEG,001,202379,
AFNE01.JPG,AFNE01.JPG,AFNE01.JPG,AFNE01.JPG,AFNE01.JPG,AFNE01.JPG,,,,,,,,,,,,,,,,,3,9,39,2,,,,,,,AMSA02.jpg,AMSA17.jpg,AMNE08.jpg,AMNE17.jpg,AMNE17.jpg,MN,1,num_4,16,num_4,2.33333621989,,,2017_Dec_07_1122,59.9960744807,MAFE4ImagesEEG,001,202379,
AFNE01.JPG,AFNE01.JPG,AFNE01.JPG,AFNE01.JPG,AFNE01.JPG,AFNE01.JPG,,,,,,,,,,,,,,,,,4,0,40,8,,,,,,,AMSA09.jpg,AMNE18.jpg,AMNE10.jpg,AMSA05.jpg,AMSA09.jpg,MS,2,num_8,16,num_8,0.533491906943,,,2017_Dec_07_1122,59.9960744807,MAFE4ImagesEEG,001,202379,
AFNE01.JPG,AFNE01.JPG,AFNE01.JPG,AFNE01.JPG,AFNE01.JPG,AFNE01.JPG,,,,,,,,,,,,,,,,,4,1,41,2,,,,,,,AMSA10.jpg,AMNE02.jpg,AMSA09.jpg,AMNE04.jpg,AMNE04.jpg,MN,1,num_4,16,num_4,0.966853529215,,,2017_Dec_07_1122,59.9960744807,MAFE4ImagesEEG,001,202379,
AFNE01.JPG,AFNE01.JPG,AFNE01.JPG,AFNE01.JPG,AFNE01.JPG,AFNE01.JPG,,,,,,,,,,,,,,,,,4,2,42,6,,,,,,,AMSA04.jpg,AMNE14.jpg,AMNE08.jpg,AMSA07.jpg,AMNE08.jpg,MN,1,num_2,16,num_2,0.950092982268,,,2017_Dec_07_1122,59.9960744807,MAFE4ImagesEEG,001,202379,
AFNE01.JPG,AFNE01.JPG,AFNE01.JPG,AFNE01.JPG,AFNE01.JPG,AFNE01.JPG,,,,,,,,,,,,,,,,,4,3,43,5,,,,,,,AMSA04.jpg,AMNE08.jpg,AMNE01.jpg,AMSA06.jpg,AMSA06.jpg,MS,2,num_4,16,num_4,1.01674451004,,,2017_Dec_07_1122,59.9960744807,MAFE4ImagesEEG,001,202379,
AFNE01.JPG,AFNE01.JPG,AFNE01.JPG,AFNE01.JPG,AFNE01.JPG,AFNE01.JPG,,,,,,,,,,,,,,,,,4,4,44,9,,,,,,,AMSA04.jpg,AMNE15.jpg,AMNE17.jpg,AMSA05.jpg,AMSA05.jpg,MS,2,num_4,16,num_4,0.583481354406,,,2017_Dec_07_1122,59.9960744807,MAFE4ImagesEEG,001,202379,
AFNE01.JPG,AFNE01.JPG,AFNE01.JPG,AFNE01.JPG,AFNE01.JPG,AFNE01.JPG,,,,,,,,,,,,,,,,,4,5,45,1,,,,,,,AMNE20.jpg,AMNE17.jpg,AMSA10.jpg,AMSA20.jpg,AMSA20.jpg,MS,2,num_4,16,num_4,0.683470513439,,,2017_Dec_07_1122,59.9960744807,MAFE4ImagesEEG,001,202379,
AFNE01.JPG,AFNE01.JPG,AFNE01.JPG,AFNE01.JPG,AFNE01.JPG,AFNE01.JPG,,,,,,,,,,,,,,,,,4,6,46,4,,,,,,,AMNE13.jpg,AMNE06.jpg,AMSA04.jpg,AMSA09.jpg,AMSA04.jpg,MS,2,num_2,32,num_4,1.2501300599,,,2017_Dec_07_1122,59.9960744807,MAFE4ImagesEEG,001,202379,
AFNE01.JPG,AFNE01.JPG,AFNE01.JPG,AFNE01.JPG,AFNE01.JPG,AFNE01.JPG,,,,,,,,,,,,,,,,,4,7,47,7,,,,,,,AMSA08.jpg,AMSA07.jpg,AMNE09.jpg,AMNE06.jpg,AMSA08.jpg,MS,2,num_8,16,num_8,0.733592747012,,,2017_Dec_07_1122,59.9960744807,MAFE4ImagesEEG,001,202379,
AFNE01.JPG,AFNE01.JPG,AFNE01.JPG,AFNE01.JPG,AFNE01.JPG,AFNE01.JPG,,,,,,,,,,,,,,,,,4,8,48,0,,,,,,,AMNE11.jpg,AMSA10.jpg,AMNE09.jpg,AMSA20.jpg,AMSA20.jpg,MS,2,num_4,16,num_4,0.733465734636,,,2017_Dec_07_1122,59.9960744807,MAFE4ImagesEEG,001,202379,
AFNE01.JPG,AFNE01.JPG,AFNE01.JPG,AFNE01.JPG,AFNE01.JPG,AFNE01.JPG,,,,,,,,,,,,,,,,,4,9,49,3,,,,,,,AMNE19.jpg,AMNE14.jpg,AMSA11.jpg,AMSA17.jpg,AMNE19.jpg,MN,1,num_8,16,num_8,0.850242703222,,,2017_Dec_07_1122,59.9960744807,MAFE4ImagesEEG,001,202379,
AFNE01.JPG,AFNE01.JPG,AFNE01.JPG,AFNE01.JPG,AFNE01.JPG,AFNE01.JPG,,,,,,,,,,,,,,,,,5,0,50,3,,,,,,,AMSA07.jpg,AMNE12.jpg,AMNE15.jpg,AMSA09.jpg,AMSA07.jpg,MS,2,num_8,32,num_4,1.98339821887,,,2017_Dec_07_1122,59.9960744807,MAFE4ImagesEEG,001,202379,
AFNE01.JPG,AFNE01.JPG,AFNE01.JPG,AFNE01.JPG,AFNE01.JPG,AFNE01.JPG,,,,,,,,,,,,,,,,,5,1,51,9,,,,,,,AMSA14.jpg,AMNE12.jpg,AMNE01.jpg,AMSA01.jpg,AMNE01.jpg,MN,1,num_2,32,num_6,1.00007793959,,,2017_Dec_07_1122,59.9960744807,MAFE4ImagesEEG,001,202379,
AFNE01.JPG,AFNE01.JPG,AFNE01.JPG,AFNE01.JPG,AFNE01.JPG,AFNE01.JPG,,,,,,,,,,,,,,,,,5,2,52,1,,,,,,,AMSA18.jpg,AMNE16.jpg,AMSA08.jpg,AMNE10.jpg,AMNE16.jpg,MN,1,num_6,32,num_4,0.866768148495,,,2017_Dec_07_1122,59.9960744807,MAFE4ImagesEEG,001,202379,
AFNE01.JPG,AFNE01.JPG,AFNE01.JPG,AFNE01.JPG,AFNE01.JPG,AFNE01.JPG,,,,,,,,,,,,,,,,,5,3,53,5,,,,,,,AMNE08.jpg,AMNE02.jpg,AMSA09.jpg,AMSA17.jpg,AMNE02.jpg,MN,1,num_6,16,num_6,0.683482380817,,,2017_Dec_07_1122,59.9960744807,MAFE4ImagesEEG,001,202379,
AFNE01.JPG,AFNE01.JPG,AFNE01.JPG,AFNE01.JPG,AFNE01.JPG,AFNE01.JPG,,,,,,,,,,,,,,,,,5,4,54,7,,,,,,,AMNE15.jpg,AMSA08.jpg,AMSA12.jpg,AMNE08.jpg,AMSA12.jpg,MS,2,num_2,16,num_2,0.850044807186,,,2017_Dec_07_1122,59.9960744807,MAFE4ImagesEEG,001,202379,
AFNE01.JPG,AFNE01.JPG,AFNE01.JPG,AFNE01.JPG,AFNE01.JPG,AFNE01.JPG,,,,,,,,,,,,,,,,,5,5,55,8,,,,,,,AMSA04.jpg,AMNE20.jpg,AMSA12.jpg,AMNE07.jpg,AMSA12.jpg,MS,2,num_2,32,num_6,0.950087850448,,,2017_Dec_07_1122,59.9960744807,MAFE4ImagesEEG,001,202379,
AFNE01.JPG,AFNE01.JPG,AFNE01.JPG,AFNE01.JPG,AFNE01.JPG,AFNE01.JPG,,,,,,,,,,,,,,,,,5,6,56,2,,,,,,,AMNE02.jpg,AMSA10.jpg,AMNE18.jpg,AMSA20.jpg,AMSA20.jpg,MS,2,num_4,16,num_4,0.700081916759,,,2017_Dec_07_1122,59.9960744807,MAFE4ImagesEEG,001,202379,
AFNE01.JPG,AFNE01.JPG,AFNE01.JPG,AFNE01.JPG,AFNE01.JPG,AFNE01.JPG,,,,,,,,,,,,,,,,,5,7,57,4,,,,,,,AMNE06.jpg,AMSA11.jpg,AMSA02.jpg,AMNE07.jpg,AMNE07.jpg,MN,1,num_4,32,num_2,0.650223651435,,,2017_Dec_07_1122,59.9960744807,MAFE4ImagesEEG,001,202379,
AFNE01.JPG,AFNE01.JPG,AFNE01.JPG,AFNE01.JPG,AFNE01.JPG,AFNE01.JPG,,,,,,,,,,,,,,,,,5,8,58,6,,,,,,,AMNE18.jpg,AMNE15.jpg,AMSA16.jpg,AMSA09.jpg,AMSA16.jpg,MS,2,num_2,16,num_2,0.583465958945,,,2017_Dec_07_1122,59.9960744807,MAFE4ImagesEEG,001,202379,
AFNE01.JPG,AFNE01.JPG,AFNE01.JPG,AFNE01.JPG,AFNE01.JPG,AFNE01.JPG,,,,,,,,,,,,,,,,,5,9,59,0,,,,,,,AMNE12.jpg,AMSA06.jpg,AMNE13.jpg,AMSA02.jpg,AMNE12.jpg,MN,1,num_8,16,num_8,0.816781266825,,,2017_Dec_07_1122,59.9960744807,MAFE4ImagesEEG,001,202379,
,,,,,,,,,,,,,,,,,,,,,,,,,,,,,,,,,,,,,,,,,,,space,10.498995445,2017_Dec_07_1122,59.9960744807,MAFE4ImagesEEG,001,202379,
AFNE01.JPG,AFNE01.JPG,AFNE01.JPG,AFNE01.JPG,AFNE01.JPG,AFNE01.JPG,,,,,,,,,,,,,,,,,,,,,0,0,0,1,,,AFNE02.jpg,AFNE15.jpg,AFSA12.jpg,AFSA11.jpg,AFSA12.jpg,FS,4,num_2,32,num_4,0.716786655132,,,2017_Dec_07_1122,59.9960744807,MAFE4ImagesEEG,001,202379,
AFNE01.JPG,AFNE01.JPG,AFNE01.JPG,AFNE01.JPG,AFNE01.JPG,AFNE01.JPG,,,,,,,,,,,,,,,,,,,,,0,1,1,6,,,AFSA01.jpg,AFSA17.jpg,AFNE14.jpg,AFNE13.jpg,AFNE14.jpg,FN,3,num_2,32,num_8,0.516806412721,,,2017_Dec_07_1122,59.9960744807,MAFE4ImagesEEG,001,202379,
AFNE01.JPG,AFNE01.JPG,AFNE01.JPG,AFNE01.JPG,AFNE01.JPG,AFNE01.JPG,,,,,,,,,,,,,,,,,,,,,0,2,2,3,,,AFNE15.jpg,AFSA08.jpg,AFNE11.jpg,AFSA15.jpg,AFSA15.jpg,FS,4,num_4,32,num_6,0.666802980704,,,2017_Dec_07_1122,59.9960744807,MAFE4ImagesEEG,001,202379,
AFNE01.JPG,AFNE01.JPG,AFNE01.JPG,AFNE01.JPG,AFNE01.JPG,AFNE01.JPG,,,,,,,,,,,,,,,,,,,,,0,3,3,2,,,AFNE14.jpg,AFSA15.jpg,AFNE08.jpg,AFSA14.jpg,AFSA15.jpg,FS,4,num_6,32,num_4,0.633480745135,,,2017_Dec_07_1122,59.9960744807,MAFE4ImagesEEG,001,202379,
AFNE01.JPG,AFNE01.JPG,AFNE01.JPG,AFNE01.JPG,AFNE01.JPG,AFNE01.JPG,,,,,,,,,,,,,,,,,,,,,0,4,4,7,,,AFSA01.jpg,AFSA03.jpg,AFNE09.jpg,AFNE12.jpg,AFNE09.jpg,FN,3,num_2,32,num_8,0.866746659158,,,2017_Dec_07_1122,59.9960744807,MAFE4ImagesEEG,001,202379,
AFNE01.JPG,AFNE01.JPG,AFNE01.JPG,AFNE01.JPG,AFNE01.JPG,AFNE01.JPG,,,,,,,,,,,,,,,,,,,,,0,5,5,8,,,AFSA17.jpg,AFNE06.jpg,AFNE08.jpg,AFSA02.jpg,AFNE06.jpg,FN,3,num_6,32,num_2,1.15010209125,,,2017_Dec_07_1122,59.9960744807,MAFE4ImagesEEG,001,202379,
AFNE01.JPG,AFNE01.JPG,AFNE01.JPG,AFNE01.JPG,AFNE01.JPG,AFNE01.JPG,,,,,,,,,,,,,,,,,,,,,0,6,6,5,,,AFSA01.jpg,AFSA02.jpg,AFNE03.jpg,AFNE05.jpg,AFNE05.jpg,FN,3,num_4,32,num_6,0.666791113559,,,2017_Dec_07_1122,59.9960744807,MAFE4ImagesEEG,001,202379,
AFNE01.JPG,AFNE01.JPG,AFNE01.JPG,AFNE01.JPG,AFNE01.JPG,AFNE01.JPG,,,,,,,,,,,,,,,,,,,,,0,7,7,9,,,AFSA20.jpg,AFNE16.jpg,AFNE11.jpg,AFSA16.jpg,AFSA20.jpg,FS,4,num_8,16,num_8,0.633509932319,,,2017_Dec_07_1122,59.9960744807,MAFE4ImagesEEG,001,202379,
AFNE01.JPG,AFNE01.JPG,AFNE01.JPG,AFNE01.JPG,AFNE01.JPG,AFNE01.JPG,,,,,,,,,,,,,,,,,,,,,0,8,8,4,,,AFNE09.jpg,AFSA10.jpg,AFSA15.jpg,AFNE18.jpg,AFNE18.jpg,FN,3,num_4,16,num_4,0.866802467499,,,2017_Dec_07_1122,59.9960744807,MAFE4ImagesEEG,001,202379,
AFNE01.JPG,AFNE01.JPG,AFNE01.JPG,AFNE01.JPG,AFNE01.JPG,AFNE01.JPG,,,,,,,,,,,,,,,,,,,,,0,9,9,0,,,AFNE03.jpg,AFNE06.jpg,AFSA08.jpg,AFSA01.jpg,AFSA01.jpg,FS,4,num_4,32,num_6,0.750143209938,,,2017_Dec_07_1122,59.9960744807,MAFE4ImagesEEG,001,202379,
AFNE01.JPG,AFNE01.JPG,AFNE01.JPG,AFNE01.JPG,AFNE01.JPG,AFNE01.JPG,,,,,,,,,,,,,,,,,,,,,1,0,10,5,,,AFNE19.jpg,AFNE15.jpg,AFSA18.jpg,AFSA13.jpg,AFSA18.jpg,FS,4,num_2,16,num_2,0.550452915952,,,2017_Dec_07_1122,59.9960744807,MAFE4ImagesEEG,001,202379,
AFNE01.JPG,AFNE01.JPG,AFNE01.JPG,AFNE01.JPG,AFNE01.JPG,AFNE01.JPG,,,,,,,,,,,,,,,,,,,,,1,1,11,4,,,AFSA08.jpg,AFNE06.jpg,AFNE17.jpg,AFSA19.jpg,AFNE06.jpg,FN,3,num_6,32,num_2,1.46693884605,,,2017_Dec_07_1122,59.9960744807,MAFE4ImagesEEG,001,202379,
AFNE01.JPG,AFNE01.JPG,AFNE01.JPG,AFNE01.JPG,AFNE01.JPG,AFNE01.JPG,,,,,,,,,,,,,,,,,,,,,1,2,12,7,,,AFSA16.jpg,AFNE09.jpg,AFSA12.jpg,AFNE12.jpg,AFSA16.jpg,FS,4,num_8,16,num_8,0.650194143411,,,2017_Dec_07_1122,59.9960744807,MAFE4ImagesEEG,001,202379,
AFNE01.JPG,AFNE01.JPG,AFNE01.JPG,AFNE01.JPG,AFNE01.JPG,AFNE01.JPG,,,,,,,,,,,,,,,,,,,,,1,3,13,2,,,AFNE08.jpg,AFNE14.jpg,AFSA09.jpg,AFSA08.jpg,AFNE14.jpg,FN,3,num_6,32,num_4,2.73359819991,,,2017_Dec_07_1122,59.9960744807,MAFE4ImagesEEG,001,202379,
AFNE01.JPG,AFNE01.JPG,AFNE01.JPG,AFNE01.JPG,AFNE01.JPG,AFNE01.JPG,,,,,,,,,,,,,,,,,,,,,1,4,14,1,,,AFNE19.jpg,AFSA02.jpg,AFSA08.jpg,AFNE10.jpg,AFSA08.jpg,FS,4,num_2,16,num_2,1.2667793103,,,2017_Dec_07_1122,59.9960744807,MAFE4ImagesEEG,001,202379,
AFNE01.JPG,AFNE01.JPG,AFNE01.JPG,AFNE01.JPG,AFNE01.JPG,AFNE01.JPG,,,,,,,,,,,,,,,,,,,,,1,5,15,9,,,AFSA07.jpg,AFNE14.jpg,AFNE02.jpg,AFSA11.jpg,AFSA07.jpg,FS,4,num_8,16,num_8,0.883457170799,,,2017_Dec_07_1122,59.9960744807,MAFE4ImagesEEG,001,202379,
AFNE01.JPG,AFNE01.JPG,AFNE01.JPG,AFNE01.JPG,AFNE01.JPG,AFNE01.JPG,,,,,,,,,,,,,,,,,,,,,1,6,16,0,,,AFSA16.jpg,AFNE14.jpg,AFSA06.jpg,AFNE20.jpg,AFNE14.jpg,FN,3,num_6,32,num_8,0.700126820244,,,2017_Dec_07_1122,59.9960744807,MAFE4ImagesEEG,001,202379,
AFNE01.JPG,AFNE01.JPG,AFNE01.JPG,AFNE01.JPG,AFNE01.JPG,AFNE01.JPG,,,,,,,,,,,,,,,,,,,,,1,7,17,6,,,AFNE07.jpg,AFSA06.jpg,AFNE12.jpg,AFSA10.jpg,AFSA10.jpg,FS,4,num_4,16,num_4,0.816679592477,,,2017_Dec_07_1122,59.9960744807,MAFE4ImagesEEG,001,202379,
AFNE01.JPG,AFNE01.JPG,AFNE01.JPG,AFNE01.JPG,AFNE01.JPG,AFNE01.JPG,,,,,,,,,,,,,,,,,,,,,1,8,18,8,,,AFSA12.jpg,AFNE20.jpg,AFNE16.jpg,AFSA06.jpg,AFNE20.jpg,FN,3,num_6,16,num_6,1.13348523551,,,2017_Dec_07_1122,59.9960744807,MAFE4ImagesEEG,001,202379,
AFNE01.JPG,AFNE01.JPG,AFNE01.JPG,AFNE01.JPG,AFNE01.JPG,AFNE01.JPG,,,,,,,,,,,,,,,,,,,,,1,9,19,3,,,AFSA10.jpg,AFNE09.jpg,AFNE02.jpg,AFSA01.jpg,AFSA10.jpg,FS,4,num_8,16,num_8,1.11678242125,,,2017_Dec_07_1122,59.9960744807,MAFE4ImagesEEG,001,202379,
AFNE01.JPG,AFNE01.JPG,AFNE01.JPG,AFNE01.JPG,AFNE01.JPG,AFNE01.JPG,,,,,,,,,,,,,,,,,,,,,2,0,20,2,,,AFSA02.jpg,AFNE16.jpg,AFSA16.jpg,AFNE06.jpg,AFNE06.jpg,FN,3,num_4,16,num_4,0.800128808944,,,2017_Dec_07_1122,59.9960744807,MAFE4ImagesEEG,001,202379,
AFNE01.JPG,AFNE01.JPG,AFNE01.JPG,AFNE01.JPG,AFNE01.JPG,AFNE01.JPG,,,,,,,,,,,,,,,,,,,,,2,1,21,9,,,AFNE05.jpg,AFSA12.jpg,AFSA05.jpg,AFNE13.jpg,AFSA12.jpg,FS,4,num_6,16,num_6,0.583461147733,,,2017_Dec_07_1122,59.9960744807,MAFE4ImagesEEG,001,202379,
AFNE01.JPG,AFNE01.JPG,AFNE01.JPG,AFNE01.JPG,AFNE01.JPG,AFNE01.JPG,,,,,,,,,,,,,,,,,,,,,2,2,22,0,,,AFSA18.jpg,AFNE01.jpg,AFSA01.jpg,AFNE06.jpg,AFNE06.jpg,FN,3,num_4,16,num_4,0.916564831976,,,2017_Dec_07_1122,59.9960744807,MAFE4ImagesEEG,001,202379,
AFNE01.JPG,AFNE01.JPG,AFNE01.JPG,AFNE01.JPG,AFNE01.JPG,AFNE01.JPG,,,,,,,,,,,,,,,,,,,,,2,3,23,8,,,AFSA18.jpg,AFNE05.jpg,AFNE07.jpg,AFSA09.jpg,AFSA18.jpg,FS,4,num_8,32,num_4,0.550135384081,,,2017_Dec_07_1122,59.9960744807,MAFE4ImagesEEG,001,202379,
AFNE01.JPG,AFNE01.JPG,AFNE01.JPG,AFNE01.JPG,AFNE01.JPG,AFNE01.JPG,,,,,,,,,,,,,,,,,,,,,2,4,24,1,,,AFNE19.jpg,AFNE12.jpg,AFSA05.jpg,AFSA03.jpg,AFSA05.jpg,FS,4,num_2,16,num_2,0.700392071623,,,2017_Dec_07_1122,59.9960744807,MAFE4ImagesEEG,001,202379,
AFNE01.JPG,AFNE01.JPG,AFNE01.JPG,AFNE01.JPG,AFNE01.JPG,AFNE01.JPG,,,,,,,,,,,,,,,,,,,,,2,5,25,5,,,AFSA15.jpg,AFNE18.jpg,AFSA09.jpg,AFNE08.jpg,AFSA09.jpg,FS,4,num_2,16,num_2,0.866750187241,,,2017_Dec_07_1122,59.9960744807,MAFE4ImagesEEG,001,202379,
AFNE01.JPG,AFNE01.JPG,AFNE01.JPG,AFNE01.JPG,AFNE01.JPG,AFNE01.JPG,,,,,,,,,,,,,,,,,,,,,2,6,26,6,,,AFSA12.jpg,AFNE04.jpg,AFNE07.jpg,AFSA04.jpg,AFSA12.jpg,FS,4,num_8,16,num_8,0.816765550524,,,2017_Dec_07_1122,59.9960744807,MAFE4ImagesEEG,001,202379,
AFNE01.JPG,AFNE01.JPG,AFNE01.JPG,AFNE01.JPG,AFNE01.JPG,AFNE01.JPG,,,,,,,,,,,,,,,,,,,,,2,7,27,7,,,AFSA14.jpg,AFSA10.jpg,AFNE17.jpg,AFNE14.jpg,AFSA14.jpg,FS,4,num_8,32,num_2,1.91666490259,,,2017_Dec_07_1122,59.9960744807,MAFE4ImagesEEG,001,202379,
AFNE01.JPG,AFNE01.JPG,AFNE01.JPG,AFNE01.JPG,AFNE01.JPG,AFNE01.JPG,,,,,,,,,,,,,,,,,,,,,2,8,28,4,,,AFNE13.jpg,AFNE17.jpg,AFSA15.jpg,AFSA12.jpg,AFSA12.jpg,FS,4,num_4,16,num_4,0.650134486146,,,2017_Dec_07_1122,59.9960744807,MAFE4ImagesEEG,001,202379,
AFNE01.JPG,AFNE01.JPG,AFNE01.JPG,AFNE01.JPG,AFNE01.JPG,AFNE01.JPG,,,,,,,,,,,,,,,,,,,,,2,9,29,3,,,AFNE10.jpg,AFNE01.jpg,AFSA14.jpg,AFSA19.jpg,AFNE01.jpg,FN,3,num_6,16,num_6,0.700170761673,,,2017_Dec_07_1122,59.9960744807,MAFE4ImagesEEG,001,202379,
AFNE01.JPG,AFNE01.JPG,AFNE01.JPG,AFNE01.JPG,AFNE01.JPG,AFNE01.JPG,,,,,,,,,,,,,,,,,,,,,3,0,30,0,,,AFSA02.jpg,AFSA15.jpg,AFNE06.jpg,AFNE04.jpg,AFNE04.jpg,FN,3,num_4,16,num_4,1.63332133763,,,2017_Dec_07_1122,59.9960744807,MAFE4ImagesEEG,001,202379,
AFNE01.JPG,AFNE01.JPG,AFNE01.JPG,AFNE01.JPG,AFNE01.JPG,AFNE01.JPG,,,,,,,,,,,,,,,,,,,,,3,1,31,9,,,AFSA08.jpg,AFNE02.jpg,AFSA12.jpg,AFNE20.jpg,AFNE02.jpg,FN,3,num_6,32,num_8,1.01678011217,,,2017_Dec_07_1122,59.9960744807,MAFE4ImagesEEG,001,202379,
AFNE01.JPG,AFNE01.JPG,AFNE01.JPG,AFNE01.JPG,AFNE01.JPG,AFNE01.JPG,,,,,,,,,,,,,,,,,,,,,3,2,32,7,,,AFSA10.jpg,AFSA03.jpg,AFNE07.jpg,AFNE09.jpg,AFSA10.jpg,FS,4,num_8,16,num_8,0.716669585556,,,2017_Dec_07_1122,59.9960744807,MAFE4ImagesEEG,001,202379,
AFNE01.JPG,AFNE01.JPG,AFNE01.JPG,AFNE01.JPG,AFNE01.JPG,AFNE01.JPG,,,,,,,,,,,,,,,,,,,,,3,3,33,6,,,AFSA10.jpg,AFNE10.jpg,AFSA13.jpg,AFNE09.jpg,AFNE09.jpg,FN,3,num_4,16,num_4,0.716942855157,,,2017_Dec_07_1122,59.9960744807,MAFE4ImagesEEG,001,202379,
AFNE01.JPG,AFNE01.JPG,AFNE01.JPG,AFNE01.JPG,AFNE01.JPG,AFNE01.JPG,,,,,,,,,,,,,,,,,,,,,3,4,34,4,,,AFNE14.jpg,AFSA18.jpg,AFNE17.jpg,AFSA07.jpg,AFNE14.jpg,FN,3,num_8,32,num_2,1.10015049088,,,2017_Dec_07_1122,59.9960744807,MAFE4ImagesEEG,001,202379,
AFNE01.JPG,AFNE01.JPG,AFNE01.JPG,AFNE01.JPG,AFNE01.JPG,AFNE01.JPG,,,,,,,,,,,,,,,,,,,,,3,5,35,8,,,AFNE12.jpg,AFSA13.jpg,AFNE05.jpg,AFSA11.jpg,AFSA13.jpg,FS,4,num_6,16,num_6,0.800128167495,,,2017_Dec_07_1122,59.9960744807,MAFE4ImagesEEG,001,202379,
AFNE01.JPG,AFNE01.JPG,AFNE01.JPG,AFNE01.JPG,AFNE01.JPG,AFNE01.JPG,,,,,,,,,,,,,,,,,,,,,3,6,36,3,,,AFNE14.jpg,AFSA19.jpg,AFNE02.jpg,AFSA17.jpg,AFSA17.jpg,FS,4,num_4,16,num_4,0.816743740113,,,2017_Dec_07_1122,59.9960744807,MAFE4ImagesEEG,001,202379,
AFNE01.JPG,AFNE01.JPG,AFNE01.JPG,AFNE01.JPG,AFNE01.JPG,AFNE01.JPG,,,,,,,,,,,,,,,,,,,,,3,7,37,5,,,AFSA16.jpg,AFNE14.jpg,AFSA18.jpg,AFNE12.jpg,AFSA16.jpg,FS,4,num_8,16,num_8,0.683477569604,,,2017_Dec_07_1122,59.9960744807,MAFE4ImagesEEG,001,202379,
AFNE01.JPG,AFNE01.JPG,AFNE01.JPG,AFNE01.JPG,AFNE01.JPG,AFNE01.JPG,,,,,,,,,,,,,,,,,,,,,3,8,38,1,,,AFNE12.jpg,AFNE06.jpg,AFSA04.jpg,AFSA18.jpg,AFNE06.jpg,FN,3,num_6,32,num_8,1.83335514343,,,2017_Dec_07_1122,59.9960744807,MAFE4ImagesEEG,001,202379,
