IPosition2,IPosition3,IPosition1,IPosition6,IPosition4,IPosition5,TrialsF1.thisRepN,TrialsF1.thisTrialN,TrialsF1.thisN,TrialsF1.thisIndex,TrialsM1.thisRepN,TrialsM1.thisTrialN,TrialsM1.thisN,TrialsM1.thisIndex,TrialsF2.thisRepN,TrialsF2.thisTrialN,TrialsF2.thisN,TrialsF2.thisIndex,TrialsM2.thisRepN,TrialsM2.thisTrialN,TrialsM2.thisN,TrialsM2.thisIndex,TrialsF3.thisRepN,TrialsF3.thisTrialN,TrialsF3.thisN,TrialsF3.thisIndex,TrialsM3.thisRepN,TrialsM3.thisTrialN,TrialsM3.thisN,TrialsM3.thisIndex,InstrKey_resp.keys,InstrKey_resp.rt,Image0 _Position,Image1 _Position,Image2 _Position,Image3 _Position,Center_image,condition,code,correct_answer,accuracy,Key_Resp.keys,Key_Resp.rt,BreakKey_resp.keys,BreakKey_resp.rt,date,frameRate,expName,session,participant,
,,,,,,,,,,,,,,,,,,,,,,,,,,,,,,space,6.59974796315,,,,,,,,,,,,,,2017_Nov_20_1530,60.0027713146,FEMA4ImagesEEG,001,202344,
AFSA21.JPG,AFNE22.JPG,AFNE21.JPG,AFSA23.JPG,AFSA22.JPG,AFNE23.JPG,0,0,0,0,,,,,,,,,,,,,,,,,,,,,,,AFNE10.jpg,AFNE18.jpg,AFSA13.jpg,AFSA05.jpg,AFNE10.jpg,FN,3,num_8,16,num_8,1.33372303145,,,2017_Nov_20_1530,60.0027713146,FEMA4ImagesEEG,001,202344,
AMSA25.JPG,AMNE24.JPG,AMSA24.JPG,AMNE26.JPG,AMSA21.JPG,AMNE25.JPG,0,1,1,3,,,,,,,,,,,,,,,,,,,,,,,AFSA16.jpg,AFSA03.jpg,AFNE15.jpg,AFNE14.jpg,AFSA03.jpg,FS,4,num_6,32,num_2,1.91672199418,,,2017_Nov_20_1530,60.0027713146,FEMA4ImagesEEG,001,202344,
AFSA21.JPG,AFNE23.JPG,AFNE21.JPG,AFSA25.JPG,AFNE25.JPG,AFSA23.JPG,0,2,2,4,,,,,,,,,,,,,,,,,,,,,,,AFSA19.jpg,AFSA15.jpg,AFNE08.jpg,AFNE10.jpg,AFSA15.jpg,FS,4,num_6,16,num_6,1.15013897629,,,2017_Nov_20_1530,60.0027713146,FEMA4ImagesEEG,001,202344,
AMNE22.JPG,AMSA24.JPG,AMSA22.JPG,AMNE25.JPG,AMNE24.JPG,AMSA25.JPG,0,3,3,7,,,,,,,,,,,,,,,,,,,,,,,AFSA10.jpg,AFSA02.jpg,AFNE09.jpg,AFNE17.jpg,AFSA10.jpg,FS,4,num_8,16,num_8,1.4334055638,,,2017_Nov_20_1530,60.0027713146,FEMA4ImagesEEG,001,202344,
AMSA21.JPG,AMNE23.JPG,AMNE21.JPG,AMSA25.JPG,AMNE25.JPG,AMSA23.JPG,0,4,4,5,,,,,,,,,,,,,,,,,,,,,,,AFSA01.jpg,AFNE14.jpg,AFNE06.jpg,AFSA20.jpg,AFNE06.jpg,FN,3,num_2,16,num_2,1.40008621469,,,2017_Nov_20_1530,60.0027713146,FEMA4ImagesEEG,001,202344,
AFNE22.JPG,AFSA24.JPG,AFSA22.JPG,AFNE25.JPG,AFNE24.JPG,AFSA25.JPG,0,5,5,6,,,,,,,,,,,,,,,,,,,,,,,AFNE17.jpg,AFSA05.jpg,AFNE10.jpg,AFSA12.jpg,AFSA05.jpg,FS,4,num_6,16,num_6,1.00012701272,,,2017_Nov_20_1530,60.0027713146,FEMA4ImagesEEG,001,202344,
AFSA25.JPG,AFNE24.JPG,AFSA24.JPG,AFNE21.JPG,AFSA21.JPG,AFNE25.JPG,0,6,6,2,,,,,,,,,,,,,,,,,,,,,,,AFNE19.jpg,AFSA10.jpg,AFSA20.jpg,AFNE17.jpg,AFSA10.jpg,FS,4,num_6,16,num_6,1.50008114702,,,2017_Nov_20_1530,60.0027713146,FEMA4ImagesEEG,001,202344,
AMNE23.JPG,AMNE24.JPG,AMNE22.JPG,AMSA24.JPG,AMSA22.JPG,AMSA23.JPG,0,7,7,9,,,,,,,,,,,,,,,,,,,,,,,AFNE14.jpg,AFSA13.jpg,AFNE06.jpg,AFSA10.jpg,AFSA10.jpg,FS,4,num_4,16,num_4,0.78352285812,,,2017_Nov_20_1530,60.0027713146,FEMA4ImagesEEG,001,202344,
AMSA21.JPG,AMNE22.JPG,AMNE21.JPG,AMSA23.JPG,AMSA22.JPG,AMNE23.JPG,0,8,8,1,,,,,,,,,,,,,,,,,,,,,,,AFSA16.jpg,AFSA12.jpg,AFNE06.jpg,AFNE12.jpg,AFSA12.jpg,FS,4,num_6,32,num_2,1.60007640007,,,2017_Nov_20_1530,60.0027713146,FEMA4ImagesEEG,001,202344,
AFNE23.JPG,AFNE24.JPG,AFNE22.JPG,AFSA24.JPG,AFSA22.JPG,AFSA23.JPG,0,9,9,8,,,,,,,,,,,,,,,,,,,,,,,AFSA10.jpg,AFNE17.jpg,AFSA20.jpg,AFNE15.jpg,AFNE17.jpg,FN,3,num_6,16,num_6,2.1167272543,,,2017_Nov_20_1530,60.0027713146,FEMA4ImagesEEG,001,202344,
AFSA25.JPG,AFNE24.JPG,AFSA24.JPG,AFNE21.JPG,AFSA21.JPG,AFNE25.JPG,,,,,0,0,0,2,,,,,,,,,,,,,,,,,,,AMNE13.jpg,AMSA09.jpg,AMSA14.jpg,AMNE10.jpg,AMNE13.jpg,MN,1,num_8,16,num_8,1.58339347193,,,2017_Nov_20_1530,60.0027713146,FEMA4ImagesEEG,001,202344,
AMSA25.JPG,AMNE24.JPG,AMSA24.JPG,AMNE26.JPG,AMSA21.JPG,AMNE25.JPG,,,,,0,1,1,3,,,,,,,,,,,,,,,,,,,AMNE16.jpg,AMSA07.jpg,AMSA01.jpg,AMNE11.jpg,AMSA01.jpg,MS,2,num_2,32,num_4,1.65003858492,,,2017_Nov_20_1530,60.0027713146,FEMA4ImagesEEG,001,202344,
AMNE23.JPG,AMNE24.JPG,AMNE22.JPG,AMSA24.JPG,AMSA22.JPG,AMSA23.JPG,,,,,0,2,2,9,,,,,,,,,,,,,,,,,,,AMNE02.jpg,AMSA14.jpg,AMNE05.jpg,AMSA07.jpg,AMSA14.jpg,MS,2,num_6,16,num_6,1.68340861082,,,2017_Nov_20_1530,60.0027713146,FEMA4ImagesEEG,001,202344,
AFNE22.JPG,AFSA24.JPG,AFSA22.JPG,AFNE25.JPG,AFNE24.JPG,AFSA25.JPG,,,,,0,3,3,6,,,,,,,,,,,,,,,,,,,AMSA18.jpg,AMNE13.jpg,AMSA12.jpg,AMNE11.jpg,AMSA18.jpg,MS,2,num_8,32,num_2,1.70007806792,,,2017_Nov_20_1530,60.0027713146,FEMA4ImagesEEG,001,202344,
AMNE22.JPG,AMSA24.JPG,AMSA22.JPG,AMNE25.JPG,AMNE24.JPG,AMSA25.JPG,,,,,0,4,4,7,,,,,,,,,,,,,,,,,,,AMSA03.jpg,AMNE03.jpg,AMSA20.jpg,AMNE10.jpg,AMSA03.jpg,MS,2,num_8,32,num_6,2.50004458275,,,2017_Nov_20_1530,60.0027713146,FEMA4ImagesEEG,001,202344,
AFSA21.JPG,AFNE22.JPG,AFNE21.JPG,AFSA23.JPG,AFSA22.JPG,AFNE23.JPG,,,,,0,5,5,0,,,,,,,,,,,,,,,,,,,AMSA14.jpg,AMNE07.jpg,AMSA05.jpg,AMNE13.jpg,AMNE13.jpg,MN,1,num_4,16,num_4,1.78324156985,,,2017_Nov_20_1530,60.0027713146,FEMA4ImagesEEG,001,202344,
AFNE23.JPG,AFNE24.JPG,AFNE22.JPG,AFSA24.JPG,AFSA22.JPG,AFSA23.JPG,,,,,0,6,6,8,,,,,,,,,,,,,,,,,,,AMSA13.jpg,AMNE15.jpg,AMNE01.jpg,AMSA18.jpg,AMSA18.jpg,MS,2,num_4,32,num_8,1.26674851931,,,2017_Nov_20_1530,60.0027713146,FEMA4ImagesEEG,001,202344,
AFSA21.JPG,AFNE23.JPG,AFNE21.JPG,AFSA25.JPG,AFNE25.JPG,AFSA23.JPG,,,,,0,7,7,4,,,,,,,,,,,,,,,,,,,AMSA17.jpg,AMSA19.jpg,AMNE15.jpg,AMNE14.jpg,AMSA17.jpg,MS,2,num_8,32,num_6,1.98339533222,,,2017_Nov_20_1530,60.0027713146,FEMA4ImagesEEG,001,202344,
AMSA21.JPG,AMNE23.JPG,AMNE21.JPG,AMSA25.JPG,AMNE25.JPG,AMSA23.JPG,,,,,0,8,8,5,,,,,,,,,,,,,,,,,,,AMSA08.jpg,AMSA04.jpg,AMNE19.jpg,AMNE06.jpg,AMSA04.jpg,MS,2,num_6,16,num_6,0.833445592049,,,2017_Nov_20_1530,60.0027713146,FEMA4ImagesEEG,001,202344,
AMSA21.JPG,AMNE22.JPG,AMNE21.JPG,AMSA23.JPG,AMSA22.JPG,AMNE23.JPG,,,,,0,9,9,1,,,,,,,,,,,,,,,,,,,AMNE08.jpg,AMNE03.jpg,AMSA03.jpg,AMSA10.jpg,AMSA10.jpg,MS,2,num_4,16,num_4,1.03344764478,,,2017_Nov_20_1530,60.0027713146,FEMA4ImagesEEG,001,202344,
AFNE22.JPG,AFSA24.JPG,AFSA22.JPG,AFNE25.JPG,AFNE24.JPG,AFSA25.JPG,,,,,,,,,0,0,0,6,,,,,,,,,,,,,,,AFNE18.jpg,AFSA08.jpg,AFNE19.jpg,AFSA09.jpg,AFNE18.jpg,FN,3,num_8,16,num_8,1.15014571181,,,2017_Nov_20_1530,60.0027713146,FEMA4ImagesEEG,001,202344,
AFSA21.JPG,AFNE23.JPG,AFNE21.JPG,AFSA25.JPG,AFNE25.JPG,AFSA23.JPG,,,,,,,,,0,1,1,4,,,,,,,,,,,,,,,AFNE08.jpg,AFNE18.jpg,AFSA14.jpg,AFSA15.jpg,AFNE08.jpg,FN,3,num_8,32,num_6,1.90003746234,,,2017_Nov_20_1530,60.0027713146,FEMA4ImagesEEG,001,202344,
AFSA25.JPG,AFNE24.JPG,AFSA24.JPG,AFNE21.JPG,AFSA21.JPG,AFNE25.JPG,,,,,,,,,0,2,2,2,,,,,,,,,,,,,,,AFSA08.jpg,AFNE17.jpg,AFNE19.jpg,AFSA17.jpg,AFNE19.jpg,FN,3,num_2,16,num_2,1.36658083686,,,2017_Nov_20_1530,60.0027713146,FEMA4ImagesEEG,001,202344,
AFSA21.JPG,AFNE22.JPG,AFNE21.JPG,AFSA23.JPG,AFSA22.JPG,AFNE23.JPG,,,,,,,,,0,3,3,0,,,,,,,,,,,,,,,AFNE17.jpg,AFNE11.jpg,AFSA14.jpg,AFSA18.jpg,AFNE11.jpg,FN,3,num_6,32,num_4,0.650144108117,,,2017_Nov_20_1530,60.0027713146,FEMA4ImagesEEG,001,202344,
AMNE22.JPG,AMSA24.JPG,AMSA22.JPG,AMNE25.JPG,AMNE24.JPG,AMSA25.JPG,,,,,,,,,0,4,4,7,,,,,,,,,,,,,,,AFSA08.jpg,AFNE12.jpg,AFNE03.jpg,AFSA18.jpg,AFNE12.jpg,FN,3,num_6,32,num_8,0.516806412731,,,2017_Nov_20_1530,60.0027713146,FEMA4ImagesEEG,001,202344,
AMSA25.JPG,AMNE24.JPG,AMSA24.JPG,AMNE26.JPG,AMSA21.JPG,AMNE25.JPG,,,,,,,,,0,5,5,3,,,,,,,,,,,,,,,AFSA09.jpg,AFSA07.jpg,AFNE16.jpg,AFNE18.jpg,AFSA09.jpg,FS,4,num_8,32,num_6,0.900112836046,,,2017_Nov_20_1530,60.0027713146,FEMA4ImagesEEG,001,202344,
AMSA21.JPG,AMNE23.JPG,AMNE21.JPG,AMSA25.JPG,AMNE25.JPG,AMSA23.JPG,,,,,,,,,0,6,6,5,,,,,,,,,,,,,,,AFNE03.jpg,AFSA08.jpg,AFSA11.jpg,AFNE10.jpg,AFSA11.jpg,FS,4,num_2,16,num_2,0.983492195453,,,2017_Nov_20_1530,60.0027713146,FEMA4ImagesEEG,001,202344,
AFNE23.JPG,AFNE24.JPG,AFNE22.JPG,AFSA24.JPG,AFSA22.JPG,AFSA23.JPG,,,,,,,,,0,7,7,8,,,,,,,,,,,,,,,AFNE03.jpg,AFNE18.jpg,AFSA19.jpg,AFSA06.jpg,AFNE18.jpg,FN,3,num_6,16,num_6,1.55001799347,,,2017_Nov_20_1530,60.0027713146,FEMA4ImagesEEG,001,202344,
AMSA21.JPG,AMNE22.JPG,AMNE21.JPG,AMSA23.JPG,AMSA22.JPG,AMNE23.JPG,,,,,,,,,0,8,8,1,,,,,,,,,,,,,,,AFNE06.jpg,AFSA05.jpg,AFSA19.jpg,AFNE04.jpg,AFSA19.jpg,FS,4,num_2,16,num_2,0.850001828214,,,2017_Nov_20_1530,60.0027713146,FEMA4ImagesEEG,001,202344,
AMNE23.JPG,AMNE24.JPG,AMNE22.JPG,AMSA24.JPG,AMSA22.JPG,AMSA23.JPG,,,,,,,,,0,9,9,9,,,,,,,,,,,,,,,AFNE10.jpg,AFNE06.jpg,AFSA03.jpg,AFSA08.jpg,AFSA03.jpg,FS,4,num_2,32,num_4,0.900148758836,,,2017_Nov_20_1530,60.0027713146,FEMA4ImagesEEG,001,202344,
AFNE23.JPG,AFNE24.JPG,AFNE22.JPG,AFSA24.JPG,AFSA22.JPG,AFSA23.JPG,,,,,,,,,,,,,0,0,0,8,,,,,,,,,,,AMNE02.jpg,AMSA20.jpg,AMNE16.jpg,AMSA03.jpg,AMSA03.jpg,MS,2,num_4,16,num_4,1.30285509196,,,2017_Nov_20_1530,60.0027713146,FEMA4ImagesEEG,001,202344,
AFSA21.JPG,AFNE23.JPG,AFNE21.JPG,AFSA25.JPG,AFNE25.JPG,AFSA23.JPG,,,,,,,,,,,,,0,1,1,4,,,,,,,,,,,AMNE07.jpg,AMSA10.jpg,AMSA20.jpg,AMNE19.jpg,AMNE19.jpg,MN,1,num_4,32,num_6,0.700148309801,,,2017_Nov_20_1530,60.0027713146,FEMA4ImagesEEG,001,202344,
AMSA25.JPG,AMNE24.JPG,AMSA24.JPG,AMNE26.JPG,AMSA21.JPG,AMNE25.JPG,,,,,,,,,,,,,0,2,2,3,,,,,,,,,,,AMSA02.jpg,AMNE19.jpg,AMSA12.jpg,AMNE05.jpg,AMSA12.jpg,MS,2,num_2,16,num_2,1.35013653867,,,2017_Nov_20_1530,60.0027713146,FEMA4ImagesEEG,001,202344,
AMNE23.JPG,AMNE24.JPG,AMNE22.JPG,AMSA24.JPG,AMSA22.JPG,AMSA23.JPG,,,,,,,,,,,,,0,3,3,9,,,,,,,,,,,AMSA03.jpg,AMSA01.jpg,AMNE14.jpg,AMNE03.jpg,AMNE03.jpg,MN,1,num_4,16,num_4,0.566811255893,,,2017_Nov_20_1530,60.0027713146,FEMA4ImagesEEG,001,202344,
AMNE22.JPG,AMSA24.JPG,AMSA22.JPG,AMNE25.JPG,AMNE24.JPG,AMSA25.JPG,,,,,,,,,,,,,0,4,4,7,,,,,,,,,,,AMSA04.jpg,AMNE16.jpg,AMSA02.jpg,AMNE12.jpg,AMNE12.jpg,MN,1,num_4,32,num_2,1.80004958628,,,2017_Nov_20_1530,60.0027713146,FEMA4ImagesEEG,001,202344,
AMSA21.JPG,AMNE23.JPG,AMNE21.JPG,AMSA25.JPG,AMNE25.JPG,AMSA23.JPG,,,,,,,,,,,,,0,5,5,5,,,,,,,,,,,AMNE15.jpg,AMSA03.jpg,AMNE20.jpg,AMSA05.jpg,AMSA05.jpg,MS,2,num_4,16,num_4,1.29998223105,,,2017_Nov_20_1530,60.0027713146,FEMA4ImagesEEG,001,202344,
AMSA21.JPG,AMNE22.JPG,AMNE21.JPG,AMSA23.JPG,AMSA22.JPG,AMNE23.JPG,,,,,,,,,,,,,0,6,6,1,,,,,,,,,,,AMNE11.jpg,AMNE20.jpg,AMSA10.jpg,AMSA13.jpg,AMSA13.jpg,MS,2,num_4,16,num_4,2.90001501059,,,2017_Nov_20_1530,60.0027713146,FEMA4ImagesEEG,001,202344,
AFSA25.JPG,AFNE24.JPG,AFSA24.JPG,AFNE21.JPG,AFSA21.JPG,AFNE25.JPG,,,,,,,,,,,,,0,7,7,2,,,,,,,,,,,AMNE02.jpg,AMSA02.jpg,AMNE07.jpg,AMSA10.jpg,AMNE02.jpg,MN,1,num_8,16,num_8,1.10011841691,,,2017_Nov_20_1530,60.0027713146,FEMA4ImagesEEG,001,202344,
AFSA21.JPG,AFNE22.JPG,AFNE21.JPG,AFSA23.JPG,AFSA22.JPG,AFNE23.JPG,,,,,,,,,,,,,0,8,8,0,,,,,,,,,,,AMSA07.jpg,AMSA20.jpg,AMNE02.jpg,AMNE15.jpg,AMNE02.jpg,MN,1,num_2,16,num_2,0.733192143943,,,2017_Nov_20_1530,60.0027713146,FEMA4ImagesEEG,001,202344,
AFNE22.JPG,AFSA24.JPG,AFSA22.JPG,AFNE25.JPG,AFNE24.JPG,AFSA25.JPG,,,,,,,,,,,,,0,9,9,6,,,,,,,,,,,AMSA10.jpg,AMSA15.jpg,AMNE15.jpg,AMNE12.jpg,AMNE15.jpg,MN,1,num_2,32,num_4,0.916803461931,,,2017_Nov_20_1530,60.0027713146,FEMA4ImagesEEG,001,202344,
AFNE22.JPG,AFSA24.JPG,AFSA22.JPG,AFNE25.JPG,AFNE24.JPG,AFSA25.JPG,,,,,,,,,,,,,,,,,0,0,0,6,,,,,,,AFSA11.jpg,AFNE19.jpg,AFSA13.jpg,AFNE05.jpg,AFSA11.jpg,FS,4,num_8,32,num_6,1.53341108051,,,2017_Nov_20_1530,60.0027713146,FEMA4ImagesEEG,001,202344,
AMSA21.JPG,AMNE23.JPG,AMNE21.JPG,AMSA25.JPG,AMNE25.JPG,AMSA23.JPG,,,,,,,,,,,,,,,,,0,1,1,5,,,,,,,AFSA02.jpg,AFNE20.jpg,AFSA05.jpg,AFNE03.jpg,AFNE20.jpg,FN,3,num_6,32,num_4,0.633565740949,,,2017_Nov_20_1530,60.0027713146,FEMA4ImagesEEG,001,202344,
AMSA25.JPG,AMNE24.JPG,AMSA24.JPG,AMNE26.JPG,AMSA21.JPG,AMNE25.JPG,,,,,,,,,,,,,,,,,0,2,2,3,,,,,,,AFNE20.jpg,AFNE09.jpg,AFSA09.jpg,AFSA14.jpg,AFSA09.jpg,FS,4,num_2,32,num_8,0.966822096878,,,2017_Nov_20_1530,60.0027713146,FEMA4ImagesEEG,001,202344,
AMSA21.JPG,AMNE22.JPG,AMNE21.JPG,AMSA23.JPG,AMSA22.JPG,AMNE23.JPG,,,,,,,,,,,,,,,,,0,3,3,1,,,,,,,AFSA17.jpg,AFSA16.jpg,AFNE13.jpg,AFNE16.jpg,AFNE13.jpg,FN,3,num_2,32,num_6,1.05013923288,,,2017_Nov_20_1530,60.0027713146,FEMA4ImagesEEG,001,202344,
AFSA21.JPG,AFNE23.JPG,AFNE21.JPG,AFSA25.JPG,AFNE25.JPG,AFSA23.JPG,,,,,,,,,,,,,,,,,0,4,4,4,,,,,,,AFSA14.jpg,AFNE19.jpg,AFNE03.jpg,AFSA05.jpg,AFSA14.jpg,FS,4,num_8,32,num_2,2.51668036223,,,2017_Nov_20_1530,60.0027713146,FEMA4ImagesEEG,001,202344,
AMNE22.JPG,AMSA24.JPG,AMSA22.JPG,AMNE25.JPG,AMNE24.JPG,AMSA25.JPG,,,,,,,,,,,,,,,,,0,5,5,7,,,,,,,AFNE05.jpg,AFNE16.jpg,AFSA12.jpg,AFSA15.jpg,AFSA12.jpg,FS,4,num_2,32,num_8,1.40007979991,,,2017_Nov_20_1530,60.0027713146,FEMA4ImagesEEG,001,202344,
AFSA25.JPG,AFNE24.JPG,AFSA24.JPG,AFNE21.JPG,AFSA21.JPG,AFNE25.JPG,,,,,,,,,,,,,,,,,0,6,6,2,,,,,,,AFSA04.jpg,AFNE19.jpg,AFSA06.jpg,AFNE01.jpg,AFNE19.jpg,FN,3,num_6,32,num_4,0.716787617415,,,2017_Nov_20_1530,60.0027713146,FEMA4ImagesEEG,001,202344,
AMNE23.JPG,AMNE24.JPG,AMNE22.JPG,AMSA24.JPG,AMSA22.JPG,AMSA23.JPG,,,,,,,,,,,,,,,,,0,7,7,9,,,,,,,AFSA07.jpg,AFNE17.jpg,AFSA09.jpg,AFNE01.jpg,AFSA09.jpg,FS,4,num_2,32,num_6,0.850179517724,,,2017_Nov_20_1530,60.0027713146,FEMA4ImagesEEG,001,202344,
AFSA21.JPG,AFNE22.JPG,AFNE21.JPG,AFSA23.JPG,AFSA22.JPG,AFNE23.JPG,,,,,,,,,,,,,,,,,0,8,8,0,,,,,,,AFNE05.jpg,AFNE14.jpg,AFSA03.jpg,AFSA09.jpg,AFSA03.jpg,FS,4,num_2,16,num_2,0.86684993704,,,2017_Nov_20_1530,60.0027713146,FEMA4ImagesEEG,001,202344,
AFNE23.JPG,AFNE24.JPG,AFNE22.JPG,AFSA24.JPG,AFSA22.JPG,AFSA23.JPG,,,,,,,,,,,,,,,,,0,9,9,8,,,,,,,AFSA13.jpg,AFNE01.jpg,AFNE08.jpg,AFSA07.jpg,AFSA13.jpg,FS,4,num_8,16,num_8,0.79997004296,,,2017_Nov_20_1530,60.0027713146,FEMA4ImagesEEG,001,202344,
AFSA25.JPG,AFNE24.JPG,AFSA24.JPG,AFNE21.JPG,AFSA21.JPG,AFNE25.JPG,,,,,,,,,,,,,,,,,,,,,0,0,0,2,,,AMNE14.jpg,AMNE09.jpg,AMSA20.jpg,AMSA17.jpg,AMNE09.jpg,MN,1,num_6,32,num_4,1.06678623824,,,2017_Nov_20_1530,60.0027713146,FEMA4ImagesEEG,001,202344,
AMNE23.JPG,AMNE24.JPG,AMNE22.JPG,AMSA24.JPG,AMSA22.JPG,AMSA23.JPG,,,,,,,,,,,,,,,,,,,,,0,1,1,9,,,AMSA18.jpg,AMNE03.jpg,AMSA04.jpg,AMNE01.jpg,AMSA04.jpg,MS,2,num_2,16,num_2,1.3167642676,,,2017_Nov_20_1530,60.0027713146,FEMA4ImagesEEG,001,202344,
AFNE23.JPG,AFNE24.JPG,AFNE22.JPG,AFSA24.JPG,AFSA22.JPG,AFSA23.JPG,,,,,,,,,,,,,,,,,,,,,0,2,2,8,,,AMSA10.jpg,AMNE06.jpg,AMNE01.jpg,AMSA07.jpg,AMNE06.jpg,MN,1,num_6,32,num_4,0.550161043147,,,2017_Nov_20_1530,60.0027713146,FEMA4ImagesEEG,001,202344,
AFSA21.JPG,AFNE23.JPG,AFNE21.JPG,AFSA25.JPG,AFNE25.JPG,AFSA23.JPG,,,,,,,,,,,,,,,,,,,,,0,3,3,4,,,AMSA16.jpg,AMNE09.jpg,AMNE04.jpg,AMSA09.jpg,AMSA09.jpg,MS,2,num_4,32,num_6,0.783403222403,,,2017_Nov_20_1530,60.0027713146,FEMA4ImagesEEG,001,202344,
AMNE22.JPG,AMSA24.JPG,AMSA22.JPG,AMNE25.JPG,AMNE24.JPG,AMSA25.JPG,,,,,,,,,,,,,,,,,,,,,0,4,4,7,,,AMSA07.jpg,AMSA14.jpg,AMNE02.jpg,AMNE03.jpg,AMSA14.jpg,MS,2,num_6,16,num_6,0.766832232235,,,2017_Nov_20_1530,60.0027713146,FEMA4ImagesEEG,001,202344,
AFSA21.JPG,AFNE22.JPG,AFNE21.JPG,AFSA23.JPG,AFSA22.JPG,AFNE23.JPG,,,,,,,,,,,,,,,,,,,,,0,5,5,0,,,AMNE01.jpg,AMSA12.jpg,AMSA08.jpg,AMNE05.jpg,AMSA08.jpg,MS,2,num_2,32,num_4,0.933461693156,,,2017_Nov_20_1530,60.0027713146,FEMA4ImagesEEG,001,202344,
AMSA21.JPG,AMNE22.JPG,AMNE21.JPG,AMSA23.JPG,AMSA22.JPG,AMNE23.JPG,,,,,,,,,,,,,,,,,,,,,0,6,6,1,,,AMNE03.jpg,AMSA14.jpg,AMNE18.jpg,AMSA09.jpg,AMSA09.jpg,MS,2,num_4,32,num_8,1.11680455244,,,2017_Nov_20_1530,60.0027713146,FEMA4ImagesEEG,001,202344,
AMSA21.JPG,AMNE23.JPG,AMNE21.JPG,AMSA25.JPG,AMNE25.JPG,AMSA23.JPG,,,,,,,,,,,,,,,,,,,,,0,7,7,5,,,AMSA01.jpg,AMNE12.jpg,AMNE04.jpg,AMSA13.jpg,AMNE12.jpg,MN,1,num_6,32,num_2,1.0834390169,,,2017_Nov_20_1530,60.0027713146,FEMA4ImagesEEG,001,202344,
AMSA25.JPG,AMNE24.JPG,AMSA24.JPG,AMNE26.JPG,AMSA21.JPG,AMNE25.JPG,,,,,,,,,,,,,,,,,,,,,0,8,8,3,,,AMSA03.jpg,AMNE12.jpg,AMSA09.jpg,AMNE10.jpg,AMNE10.jpg,MN,1,num_4,16,num_4,0.266788611707,,,2017_Nov_20_1530,60.0027713146,FEMA4ImagesEEG,001,202344,
AFNE22.JPG,AFSA24.JPG,AFSA22.JPG,AFNE25.JPG,AFNE24.JPG,AFSA25.JPG,,,,,,,,,,,,,,,,,,,,,0,9,9,6,,,AMNE18.jpg,AMSA10.jpg,AMNE01.jpg,AMSA11.jpg,AMNE01.jpg,MN,1,num_2,16,num_2,0.883496300915,,,2017_Nov_20_1530,60.0027713146,FEMA4ImagesEEG,001,202344,
,,,,,,,,,,,,,,,,,,,,,,,,,,,,,,,,,,,,,,,,,,,space,15.3986537935,2017_Nov_20_1530,60.0027713146,FEMA4ImagesEEG,001,202344,
AFNE01.JPG,AFNE01.JPG,AFNE01.JPG,AFNE01.JPG,AFNE01.JPG,AFNE01.JPG,0,0,0,4,,,,,,,,,,,,,,,,,,,,,,,AFNE06.jpg,AFSA13.jpg,AFNE16.jpg,AFSA09.jpg,AFSA13.jpg,FS,4,num_6,16,num_6,1.48342997205,,,2017_Nov_20_1530,60.0027713146,FEMA4ImagesEEG,001,202344,
AFNE01.JPG,AFNE01.JPG,AFNE01.JPG,AFNE01.JPG,AFNE01.JPG,AFNE01.JPG,0,1,1,2,,,,,,,,,,,,,,,,,,,,,,,AFNE20.jpg,AFSA14.jpg,AFNE05.jpg,AFSA09.jpg,AFNE05.jpg,FN,3,num_2,32,num_4,0.950188562569,,,2017_Nov_20_1530,60.0027713146,FEMA4ImagesEEG,001,202344,
AFNE01.JPG,AFNE01.JPG,AFNE01.JPG,AFNE01.JPG,AFNE01.JPG,AFNE01.JPG,0,2,2,7,,,,,,,,,,,,,,,,,,,,,,,AFSA07.jpg,AFNE02.jpg,AFSA17.jpg,AFNE15.jpg,AFNE02.jpg,FN,3,num_6,16,num_6,1.68340219604,,,2017_Nov_20_1530,60.0027713146,FEMA4ImagesEEG,001,202344,
AFNE01.JPG,AFNE01.JPG,AFNE01.JPG,AFNE01.JPG,AFNE01.JPG,AFNE01.JPG,0,3,3,9,,,,,,,,,,,,,,,,,,,,,,,AFNE06.jpg,AFNE16.jpg,AFSA07.jpg,AFSA09.jpg,AFSA09.jpg,FS,4,num_4,32,num_2,1.06677340867,,,2017_Nov_20_1530,60.0027713146,FEMA4ImagesEEG,001,202344,
AFNE01.JPG,AFNE01.JPG,AFNE01.JPG,AFNE01.JPG,AFNE01.JPG,AFNE01.JPG,0,4,4,1,,,,,,,,,,,,,,,,,,,,,,,AFNE04.jpg,AFNE17.jpg,AFSA19.jpg,AFSA05.jpg,AFNE17.jpg,FN,3,num_6,32,num_8,1.60011937913,,,2017_Nov_20_1530,60.0027713146,FEMA4ImagesEEG,001,202344,
AFNE01.JPG,AFNE01.JPG,AFNE01.JPG,AFNE01.JPG,AFNE01.JPG,AFNE01.JPG,0,5,5,8,,,,,,,,,,,,,,,,,,,,,,,AFSA16.jpg,AFNE17.jpg,AFNE05.jpg,AFSA13.jpg,AFNE17.jpg,FN,3,num_6,32,num_2,1.48338635152,,,2017_Nov_20_1530,60.0027713146,FEMA4ImagesEEG,001,202344,
AFNE01.JPG,AFNE01.JPG,AFNE01.JPG,AFNE01.JPG,AFNE01.JPG,AFNE01.JPG,0,6,6,3,,,,,,,,,,,,,,,,,,,,,,,AFNE14.jpg,AFNE20.jpg,AFSA06.jpg,AFSA19.jpg,AFSA06.jpg,FS,4,num_2,32,num_4,1.16676577508,,,2017_Nov_20_1530,60.0027713146,FEMA4ImagesEEG,001,202344,
AFNE01.JPG,AFNE01.JPG,AFNE01.JPG,AFNE01.JPG,AFNE01.JPG,AFNE01.JPG,0,7,7,5,,,,,,,,,,,,,,,,,,,,,,,AFNE16.jpg,AFNE02.jpg,AFSA16.jpg,AFSA09.jpg,AFSA09.jpg,FS,4,num_4,32,num_6,0.800112130421,,,2017_Nov_20_1530,60.0027713146,FEMA4ImagesEEG,001,202344,
AFNE01.JPG,AFNE01.JPG,AFNE01.JPG,AFNE01.JPG,AFNE01.JPG,AFNE01.JPG,0,8,8,0,,,,,,,,,,,,,,,,,,,,,,,AFSA08.jpg,AFSA01.jpg,AFNE10.jpg,AFNE15.jpg,AFNE10.jpg,FN,3,num_2,16,num_2,0.933323454566,,,2017_Nov_20_1530,60.0027713146,FEMA4ImagesEEG,001,202344,
AFNE01.JPG,AFNE01.JPG,AFNE01.JPG,AFNE01.JPG,AFNE01.JPG,AFNE01.JPG,0,9,9,6,,,,,,,,,,,,,,,,,,,,,,,AFNE01.jpg,AFSA04.jpg,AFNE06.jpg,AFSA17.jpg,AFNE01.jpg,FN,3,num_8,32,num_2,1.51695844311,,,2017_Nov_20_1530,60.0027713146,FEMA4ImagesEEG,001,202344,
AFNE01.JPG,AFNE01.JPG,AFNE01.JPG,AFNE01.JPG,AFNE01.JPG,AFNE01.JPG,1,0,10,7,,,,,,,,,,,,,,,,,,,,,,,AFNE17.jpg,AFSA16.jpg,AFSA08.jpg,AFNE20.jpg,AFNE20.jpg,FN,3,num_4,16,num_4,1.00014593633,,,2017_Nov_20_1530,60.0027713146,FEMA4ImagesEEG,001,202344,
AFNE01.JPG,AFNE01.JPG,AFNE01.JPG,AFNE01.JPG,AFNE01.JPG,AFNE01.JPG,1,1,11,6,,,,,,,,,,,,,,,,,,,,,,,AFNE19.jpg,AFNE06.jpg,AFSA12.jpg,AFSA01.jpg,AFNE06.jpg,FN,3,num_6,16,num_6,1.50009141067,,,2017_Nov_20_1530,60.0027713146,FEMA4ImagesEEG,001,202344,
AFNE01.JPG,AFNE01.JPG,AFNE01.JPG,AFNE01.JPG,AFNE01.JPG,AFNE01.JPG,1,2,12,4,,,,,,,,,,,,,,,,,,,,,,,AFNE20.jpg,AFSA12.jpg,AFNE01.jpg,AFSA07.jpg,AFSA07.jpg,FS,4,num_4,32,num_2,1.18341951595,,,2017_Nov_20_1530,60.0027713146,FEMA4ImagesEEG,001,202344,
AFNE01.JPG,AFNE01.JPG,AFNE01.JPG,AFNE01.JPG,AFNE01.JPG,AFNE01.JPG,1,3,13,9,,,,,,,,,,,,,,,,,,,,,,,AFSA10.jpg,AFNE13.jpg,AFSA05.jpg,AFNE06.jpg,AFSA10.jpg,FS,4,num_8,16,num_8,1.30008101872,,,2017_Nov_20_1530,60.0027713146,FEMA4ImagesEEG,001,202344,
AFNE01.JPG,AFNE01.JPG,AFNE01.JPG,AFNE01.JPG,AFNE01.JPG,AFNE01.JPG,1,4,14,8,,,,,,,,,,,,,,,,,,,,,,,AFSA15.jpg,AFNE02.jpg,AFSA14.jpg,AFNE12.jpg,AFSA14.jpg,FS,4,num_2,32,num_4,0.900120854526,,,2017_Nov_20_1530,60.0027713146,FEMA4ImagesEEG,001,202344,
AFNE01.JPG,AFNE01.JPG,AFNE01.JPG,AFNE01.JPG,AFNE01.JPG,AFNE01.JPG,1,5,15,1,,,,,,,,,,,,,,,,,,,,,,,AFSA16.jpg,AFSA07.jpg,AFNE14.jpg,AFNE09.jpg,AFNE14.jpg,FN,3,num_2,32,num_4,0.833479590403,,,2017_Nov_20_1530,60.0027713146,FEMA4ImagesEEG,001,202344,
AFNE01.JPG,AFNE01.JPG,AFNE01.JPG,AFNE01.JPG,AFNE01.JPG,AFNE01.JPG,1,6,16,2,,,,,,,,,,,,,,,,,,,,,,,AFNE13.jpg,AFNE02.jpg,AFSA08.jpg,AFSA14.jpg,AFNE13.jpg,FN,3,num_8,16,num_8,1.16676000177,,,2017_Nov_20_1530,60.0027713146,FEMA4ImagesEEG,001,202344,
AFNE01.JPG,AFNE01.JPG,AFNE01.JPG,AFNE01.JPG,AFNE01.JPG,AFNE01.JPG,1,7,17,3,,,,,,,,,,,,,,,,,,,,,,,AFSA13.jpg,AFNE01.jpg,AFSA12.jpg,AFNE05.jpg,AFSA13.jpg,FS,4,num_8,32,num_2,1.45007790755,,,2017_Nov_20_1530,60.0027713146,FEMA4ImagesEEG,001,202344,
AFNE01.JPG,AFNE01.JPG,AFNE01.JPG,AFNE01.JPG,AFNE01.JPG,AFNE01.JPG,1,8,18,5,,,,,,,,,,,,,,,,,,,,,,,AFSA11.jpg,AFNE14.jpg,AFNE08.jpg,AFSA03.jpg,AFNE08.jpg,FN,3,num_2,32,num_4,0.500183142077,,,2017_Nov_20_1530,60.0027713146,FEMA4ImagesEEG,001,202344,
AFNE01.JPG,AFNE01.JPG,AFNE01.JPG,AFNE01.JPG,AFNE01.JPG,AFNE01.JPG,1,9,19,0,,,,,,,,,,,,,,,,,,,,,,,AFNE13.jpg,AFNE02.jpg,AFSA14.jpg,AFSA10.jpg,AFSA10.jpg,FS,4,num_4,32,num_6,0.733493959519,,,2017_Nov_20_1530,60.0027713146,FEMA4ImagesEEG,001,202344,
AFNE01.JPG,AFNE01.JPG,AFNE01.JPG,AFNE01.JPG,AFNE01.JPG,AFNE01.JPG,2,0,20,7,,,,,,,,,,,,,,,,,,,,,,,AFNE02.jpg,AFSA18.jpg,AFSA20.jpg,AFNE11.jpg,AFSA20.jpg,FS,4,num_2,16,num_2,1.0001408045,,,2017_Nov_20_1530,60.0027713146,FEMA4ImagesEEG,001,202344,
AFNE01.JPG,AFNE01.JPG,AFNE01.JPG,AFNE01.JPG,AFNE01.JPG,AFNE01.JPG,2,1,21,6,,,,,,,,,,,,,,,,,,,,,,,AFSA19.jpg,AFSA20.jpg,AFNE18.jpg,AFNE11.jpg,AFNE11.jpg,FN,3,num_4,16,num_4,1.01675798111,,,2017_Nov_20_1530,60.0027713146,FEMA4ImagesEEG,001,202344,
AFNE01.JPG,AFNE01.JPG,AFNE01.JPG,AFNE01.JPG,AFNE01.JPG,AFNE01.JPG,2,2,22,3,,,,,,,,,,,,,,,,,,,,,,,AFSA06.jpg,AFNE16.jpg,AFNE20.jpg,AFSA13.jpg,AFNE16.jpg,FN,3,num_6,32,num_2,1.0834595442,,,2017_Nov_20_1530,60.0027713146,FEMA4ImagesEEG,001,202344,
AFNE01.JPG,AFNE01.JPG,AFNE01.JPG,AFNE01.JPG,AFNE01.JPG,AFNE01.JPG,2,3,23,0,,,,,,,,,,,,,,,,,,,,,,,AFSA12.jpg,AFSA10.jpg,AFNE02.jpg,AFNE04.jpg,AFSA12.jpg,FS,4,num_8,16,num_8,1.01669287106,,,2017_Nov_20_1530,60.0027713146,FEMA4ImagesEEG,001,202344,
AFNE01.JPG,AFNE01.JPG,AFNE01.JPG,AFNE01.JPG,AFNE01.JPG,AFNE01.JPG,2,4,24,8,,,,,,,,,,,,,,,,,,,,,,,AFNE20.jpg,AFSA10.jpg,AFSA05.jpg,AFNE14.jpg,AFSA10.jpg,FS,4,num_6,16,num_6,0.983518175328,,,2017_Nov_20_1530,60.0027713146,FEMA4ImagesEEG,001,202344,
AFNE01.JPG,AFNE01.JPG,AFNE01.JPG,AFNE01.JPG,AFNE01.JPG,AFNE01.JPG,2,5,25,1,,,,,,,,,,,,,,,,,,,,,,,AFNE05.jpg,AFSA19.jpg,AFNE16.jpg,AFSA11.jpg,AFSA11.jpg,FS,4,num_4,16,num_4,1.06673395775,,,2017_Nov_20_1530,60.0027713146,FEMA4ImagesEEG,001,202344,
AFNE01.JPG,AFNE01.JPG,AFNE01.JPG,AFNE01.JPG,AFNE01.JPG,AFNE01.JPG,2,6,26,5,,,,,,,,,,,,,,,,,,,,,,,AFSA02.jpg,AFNE02.jpg,AFSA19.jpg,AFNE09.jpg,AFNE02.jpg,FN,3,num_6,32,num_4,0.700153762366,,,2017_Nov_20_1530,60.0027713146,FEMA4ImagesEEG,001,202344,
AFNE01.JPG,AFNE01.JPG,AFNE01.JPG,AFNE01.JPG,AFNE01.JPG,AFNE01.JPG,2,7,27,2,,,,,,,,,,,,,,,,,,,,,,,AFSA03.jpg,AFNE11.jpg,AFSA12.jpg,AFNE09.jpg,AFSA12.jpg,FS,4,num_2,32,num_8,1.05013762919,,,2017_Nov_20_1530,60.0027713146,FEMA4ImagesEEG,001,202344,
AFNE01.JPG,AFNE01.JPG,AFNE01.JPG,AFNE01.JPG,AFNE01.JPG,AFNE01.JPG,2,8,28,9,,,,,,,,,,,,,,,,,,,,,,,AFSA15.jpg,AFNE13.jpg,AFNE12.jpg,AFSA11.jpg,AFNE13.jpg,FN,3,num_6,32,num_2,0.950104528902,,,2017_Nov_20_1530,60.0027713146,FEMA4ImagesEEG,001,202344,
AFNE01.JPG,AFNE01.JPG,AFNE01.JPG,AFNE01.JPG,AFNE01.JPG,AFNE01.JPG,2,9,29,4,,,,,,,,,,,,,,,,,,,,,,,AFSA10.jpg,AFNE04.jpg,AFSA20.jpg,AFNE05.jpg,AFSA10.jpg,FS,4,num_8,16,num_8,1.29974231814,,,2017_Nov_20_1530,60.0027713146,FEMA4ImagesEEG,001,202344,
AFNE01.JPG,AFNE01.JPG,AFNE01.JPG,AFNE01.JPG,AFNE01.JPG,AFNE01.JPG,3,0,30,7,,,,,,,,,,,,,,,,,,,,,,,AFNE13.jpg,AFNE10.jpg,AFSA10.jpg,AFSA13.jpg,AFSA13.jpg,FS,4,num_4,16,num_4,1.13345059558,,,2017_Nov_20_1530,60.0027713146,FEMA4ImagesEEG,001,202344,
AFNE01.JPG,AFNE01.JPG,AFNE01.JPG,AFNE01.JPG,AFNE01.JPG,AFNE01.JPG,3,1,31,3,,,,,,,,,,,,,,,,,,,,,,,AFNE03.jpg,AFSA20.jpg,AFNE06.jpg,AFSA03.jpg,AFSA20.jpg,FS,4,num_6,16,num_6,0.850135576455,,,2017_Nov_20_1530,60.0027713146,FEMA4ImagesEEG,001,202344,
AFNE01.JPG,AFNE01.JPG,AFNE01.JPG,AFNE01.JPG,AFNE01.JPG,AFNE01.JPG,3,2,32,8,,,,,,,,,,,,,,,,,,,,,,,AFNE08.jpg,AFSA17.jpg,AFNE06.jpg,AFSA03.jpg,AFNE06.jpg,FN,3,num_2,32,num_8,1.15013127855,,,2017_Nov_20_1530,60.0027713146,FEMA4ImagesEEG,001,202344,
AFNE01.JPG,AFNE01.JPG,AFNE01.JPG,AFNE01.JPG,AFNE01.JPG,AFNE01.JPG,3,3,33,9,,,,,,,,,,,,,,,,,,,,,,,AFSA06.jpg,AFSA01.jpg,AFNE06.jpg,AFNE12.jpg,AFNE06.jpg,FN,3,num_2,16,num_2,1.13340376766,,,2017_Nov_20_1530,60.0027713146,FEMA4ImagesEEG,001,202344,
AFNE01.JPG,AFNE01.JPG,AFNE01.JPG,AFNE01.JPG,AFNE01.JPG,AFNE01.JPG,3,4,34,5,,,,,,,,,,,,,,,,,,,,,,,AFNE15.jpg,AFSA17.jpg,AFNE01.jpg,AFSA06.jpg,AFSA06.jpg,FS,4,num_4,32,num_6,1.06675288136,,,2017_Nov_20_1530,60.0027713146,FEMA4ImagesEEG,001,202344,
AFNE01.JPG,AFNE01.JPG,AFNE01.JPG,AFNE01.JPG,AFNE01.JPG,AFNE01.JPG,3,5,35,2,,,,,,,,,,,,,,,,,,,,,,,AFNE15.jpg,AFSA13.jpg,AFNE02.jpg,AFSA17.jpg,AFSA13.jpg,FS,4,num_6,32,num_4,0.983478082929,,,2017_Nov_20_1530,60.0027713146,FEMA4ImagesEEG,001,202344,
AFNE01.JPG,AFNE01.JPG,AFNE01.JPG,AFNE01.JPG,AFNE01.JPG,AFNE01.JPG,3,6,36,4,,,,,,,,,,,,,,,,,,,,,,,AFSA06.jpg,AFSA02.jpg,AFNE16.jpg,AFNE03.jpg,AFNE03.jpg,FN,3,num_4,32,num_2,1.1335048005,,,2017_Nov_20_1530,60.0027713146,FEMA4ImagesEEG,001,202344,
AFNE01.JPG,AFNE01.JPG,AFNE01.JPG,AFNE01.JPG,AFNE01.JPG,AFNE01.JPG,3,7,37,6,,,,,,,,,,,,,,,,,,,,,,,AFNE20.jpg,AFSA16.jpg,AFNE17.jpg,AFSA01.jpg,AFNE20.jpg,FN,3,num_8,32,num_4,0.950115113294,,,2017_Nov_20_1530,60.0027713146,FEMA4ImagesEEG,001,202344,
AFNE01.JPG,AFNE01.JPG,AFNE01.JPG,AFNE01.JPG,AFNE01.JPG,AFNE01.JPG,3,8,38,1,,,,,,,,,,,,,,,,,,,,,,,AFSA03.jpg,AFSA04.jpg,AFNE04.jpg,AFNE02.jpg,AFNE04.jpg,FN,3,num_2,32,num_8,0.800164731648,,,2017_Nov_20_1530,60.0027713146,FEMA4ImagesEEG,001,202344,
AFNE01.JPG,AFNE01.JPG,AFNE01.JPG,AFNE01.JPG,AFNE01.JPG,AFNE01.JPG,3,9,39,0,,,,,,,,,,,,,,,,,,,,,,,AFNE19.jpg,AFNE07.jpg,AFSA03.jpg,AFSA08.jpg,AFSA08.jpg,FS,4,num_4,32,num_2,0.983438952748,,,2017_Nov_20_1530,60.0027713146,FEMA4ImagesEEG,001,202344,
AFNE01.JPG,AFNE01.JPG,AFNE01.JPG,AFNE01.JPG,AFNE01.JPG,AFNE01.JPG,4,0,40,3,,,,,,,,,,,,,,,,,,,,,,,AFSA08.jpg,AFNE06.jpg,AFSA02.jpg,AFNE07.jpg,AFSA02.jpg,FS,4,num_2,16,num_2,0.833243526361,,,2017_Nov_20_1530,60.0027713146,FEMA4ImagesEEG,001,202344,
AFNE01.JPG,AFNE01.JPG,AFNE01.JPG,AFNE01.JPG,AFNE01.JPG,AFNE01.JPG,4,1,41,2,,,,,,,,,,,,,,,,,,,,,,,AFSA18.jpg,AFNE18.jpg,AFNE19.jpg,AFSA15.jpg,AFNE19.jpg,FN,3,num_2,32,num_6,0.850146160848,,,2017_Nov_20_1530,60.0027713146,FEMA4ImagesEEG,001,202344,
AFNE01.JPG,AFNE01.JPG,AFNE01.JPG,AFNE01.JPG,AFNE01.JPG,AFNE01.JPG,4,2,42,6,,,,,,,,,,,,,,,,,,,,,,,AFNE16.jpg,AFNE07.jpg,AFSA20.jpg,AFSA17.jpg,AFNE07.jpg,FN,3,num_6,16,num_6,1.33346836453,,,2017_Nov_20_1530,60.0027713146,FEMA4ImagesEEG,001,202344,
AFNE01.JPG,AFNE01.JPG,AFNE01.JPG,AFNE01.JPG,AFNE01.JPG,AFNE01.JPG,4,3,43,9,,,,,,,,,,,,,,,,,,,,,,,AFNE03.jpg,AFSA03.jpg,AFSA10.jpg,AFNE20.jpg,AFSA03.jpg,FS,4,num_6,32,num_8,1.16675551142,,,2017_Nov_20_1530,60.0027713146,FEMA4ImagesEEG,001,202344,
AFNE01.JPG,AFNE01.JPG,AFNE01.JPG,AFNE01.JPG,AFNE01.JPG,AFNE01.JPG,4,4,44,0,,,,,,,,,,,,,,,,,,,,,,,AFNE01.jpg,AFSA04.jpg,AFNE20.jpg,AFSA13.jpg,AFNE01.jpg,FN,3,num_8,16,num_8,1.36676301672,,,2017_Nov_20_1530,60.0027713146,FEMA4ImagesEEG,001,202344,
AFNE01.JPG,AFNE01.JPG,AFNE01.JPG,AFNE01.JPG,AFNE01.JPG,AFNE01.JPG,4,5,45,1,,,,,,,,,,,,,,,,,,,,,,,AFSA12.jpg,AFSA13.jpg,AFNE08.jpg,AFNE03.jpg,AFNE03.jpg,FN,3,num_4,16,num_4,0.933468749418,,,2017_Nov_20_1530,60.0027713146,FEMA4ImagesEEG,001,202344,
AFNE01.JPG,AFNE01.JPG,AFNE01.JPG,AFNE01.JPG,AFNE01.JPG,AFNE01.JPG,4,6,46,4,,,,,,,,,,,,,,,,,,,,,,,AFSA12.jpg,AFSA09.jpg,AFNE12.jpg,AFNE14.jpg,AFSA09.jpg,FS,4,num_6,16,num_6,0.616749064564,,,2017_Nov_20_1530,60.0027713146,FEMA4ImagesEEG,001,202344,
AFNE01.JPG,AFNE01.JPG,AFNE01.JPG,AFNE01.JPG,AFNE01.JPG,AFNE01.JPG,4,7,47,8,,,,,,,,,,,,,,,,,,,,,,,AFNE09.jpg,AFSA16.jpg,AFNE06.jpg,AFSA11.jpg,AFNE09.jpg,FN,3,num_8,16,num_8,1.20010853814,,,2017_Nov_20_1530,60.0027713146,FEMA4ImagesEEG,001,202344,
AFNE01.JPG,AFNE01.JPG,AFNE01.JPG,AFNE01.JPG,AFNE01.JPG,AFNE01.JPG,4,8,48,7,,,,,,,,,,,,,,,,,,,,,,,AFNE08.jpg,AFSA04.jpg,AFNE18.jpg,AFSA13.jpg,AFNE18.jpg,FN,3,num_2,16,num_2,1.41668575065,,,2017_Nov_20_1530,60.0027713146,FEMA4ImagesEEG,001,202344,
AFNE01.JPG,AFNE01.JPG,AFNE01.JPG,AFNE01.JPG,AFNE01.JPG,AFNE01.JPG,4,9,49,5,,,,,,,,,,,,,,,,,,,,,,,AFSA10.jpg,AFNE17.jpg,AFSA07.jpg,AFNE06.jpg,AFNE06.jpg,FN,3,num_4,16,num_4,0.833497872537,,,2017_Nov_20_1530,60.0027713146,FEMA4ImagesEEG,001,202344,
AFNE01.JPG,AFNE01.JPG,AFNE01.JPG,AFNE01.JPG,AFNE01.JPG,AFNE01.JPG,5,0,50,5,,,,,,,,,,,,,,,,,,,,,,,AFNE18.jpg,AFSA13.jpg,AFSA03.jpg,AFNE08.jpg,AFSA13.jpg,FS,4,num_6,32,num_8,1.28343080597,,,2017_Nov_20_1530,60.0027713146,FEMA4ImagesEEG,001,202344,
AFNE01.JPG,AFNE01.JPG,AFNE01.JPG,AFNE01.JPG,AFNE01.JPG,AFNE01.JPG,5,1,51,3,,,,,,,,,,,,,,,,,,,,,,,AFSA01.jpg,AFSA02.jpg,AFNE15.jpg,AFNE17.jpg,AFSA01.jpg,FS,4,num_8,32,num_6,0.966822417617,,,2017_Nov_20_1530,60.0027713146,FEMA4ImagesEEG,001,202344,
AFNE01.JPG,AFNE01.JPG,AFNE01.JPG,AFNE01.JPG,AFNE01.JPG,AFNE01.JPG,5,2,52,9,,,,,,,,,,,,,,,,,,,,,,,AFNE10.jpg,AFSA16.jpg,AFNE18.jpg,AFSA15.jpg,AFNE10.jpg,FN,3,num_8,16,num_8,1.21673533693,,,2017_Nov_20_1530,60.0027713146,FEMA4ImagesEEG,001,202344,
AFNE01.JPG,AFNE01.JPG,AFNE01.JPG,AFNE01.JPG,AFNE01.JPG,AFNE01.JPG,5,3,53,1,,,,,,,,,,,,,,,,,,,,,,,AFSA08.jpg,AFSA02.jpg,AFNE16.jpg,AFNE17.jpg,AFNE16.jpg,FN,3,num_2,32,num_8,1.40013977814,,,2017_Nov_20_1530,60.0027713146,FEMA4ImagesEEG,001,202344,
AFNE01.JPG,AFNE01.JPG,AFNE01.JPG,AFNE01.JPG,AFNE01.JPG,AFNE01.JPG,5,4,54,2,,,,,,,,,,,,,,,,,,,,,,,AFNE19.jpg,AFNE14.jpg,AFSA11.jpg,AFSA13.jpg,AFSA13.jpg,FS,4,num_4,32,num_6,1.25011594722,,,2017_Nov_20_1530,60.0027713146,FEMA4ImagesEEG,001,202344,
AFNE01.JPG,AFNE01.JPG,AFNE01.JPG,AFNE01.JPG,AFNE01.JPG,AFNE01.JPG,5,5,55,4,,,,,,,,,,,,,,,,,,,,,,,AFSA16.jpg,AFNE10.jpg,AFSA15.jpg,AFNE11.jpg,AFNE11.jpg,FN,3,num_4,16,num_4,0.833491778492,,,2017_Nov_20_1530,60.0027713146,FEMA4ImagesEEG,001,202344,
AFNE01.JPG,AFNE01.JPG,AFNE01.JPG,AFNE01.JPG,AFNE01.JPG,AFNE01.JPG,5,6,56,7,,,,,,,,,,,,,,,,,,,,,,,AFSA10.jpg,AFNE03.jpg,AFSA17.jpg,AFNE12.jpg,AFSA10.jpg,FS,4,num_8,16,num_8,1.68338166873,,,2017_Nov_20_1530,60.0027713146,FEMA4ImagesEEG,001,202344,
AFNE01.JPG,AFNE01.JPG,AFNE01.JPG,AFNE01.JPG,AFNE01.JPG,AFNE01.JPG,5,7,57,0,,,,,,,,,,,,,,,,,,,,,,,AFNE04.jpg,AFNE05.jpg,AFSA03.jpg,AFSA13.jpg,AFNE04.jpg,FN,3,num_8,32,num_6,0.933479013072,,,2017_Nov_20_1530,60.0027713146,FEMA4ImagesEEG,001,202344,
AFNE01.JPG,AFNE01.JPG,AFNE01.JPG,AFNE01.JPG,AFNE01.JPG,AFNE01.JPG,5,8,58,6,,,,,,,,,,,,,,,,,,,,,,,AFNE17.jpg,AFSA10.jpg,AFSA14.jpg,AFNE03.jpg,AFSA14.jpg,FS,4,num_2,16,num_2,1.86667802083,,,2017_Nov_20_1530,60.0027713146,FEMA4ImagesEEG,001,202344,
AFNE01.JPG,AFNE01.JPG,AFNE01.JPG,AFNE01.JPG,AFNE01.JPG,AFNE01.JPG,5,9,59,8,,,,,,,,,,,,,,,,,,,,,,,AFSA10.jpg,AFNE07.jpg,AFSA14.jpg,AFNE20.jpg,AFNE20.jpg,FN,3,num_4,16,num_4,1.01675862259,,,2017_Nov_20_1530,60.0027713146,FEMA4ImagesEEG,001,202344,
,,,,,,,,,,,,,,,,,,,,,,,,,,,,,,,,,,,,,,,,,,,space,15.0820752339,2017_Nov_20_1530,60.0027713146,FEMA4ImagesEEG,001,202344,
AFNE01.JPG,AFNE01.JPG,AFNE01.JPG,AFNE01.JPG,AFNE01.JPG,AFNE01.JPG,,,,,0,0,0,8,,,,,,,,,,,,,,,,,,,AMSA09.jpg,AMSA16.jpg,AMNE11.jpg,AMNE01.jpg,AMSA09.jpg,MS,2,num_8,16,num_8,1.50014144598,,,2017_Nov_20_1530,60.0027713146,FEMA4ImagesEEG,001,202344,
AFNE01.JPG,AFNE01.JPG,AFNE01.JPG,AFNE01.JPG,AFNE01.JPG,AFNE01.JPG,,,,,0,1,1,2,,,,,,,,,,,,,,,,,,,AMNE15.jpg,AMSA18.jpg,AMSA16.jpg,AMNE14.jpg,AMNE14.jpg,MN,1,num_4,32,num_2,1.21672250736,,,2017_Nov_20_1530,60.0027713146,FEMA4ImagesEEG,001,202344,
AFNE01.JPG,AFNE01.JPG,AFNE01.JPG,AFNE01.JPG,AFNE01.JPG,AFNE01.JPG,,,,,0,2,2,1,,,,,,,,,,,,,,,,,,,AMSA05.jpg,AMNE12.jpg,AMNE18.jpg,AMSA02.jpg,AMNE12.jpg,MN,1,num_6,16,num_6,0.816820396959,,,2017_Nov_20_1530,60.0027713146,FEMA4ImagesEEG,001,202344,
AFNE01.JPG,AFNE01.JPG,AFNE01.JPG,AFNE01.JPG,AFNE01.JPG,AFNE01.JPG,,,,,0,3,3,4,,,,,,,,,,,,,,,,,,,AMSA02.jpg,AMNE08.jpg,AMNE12.jpg,AMSA09.jpg,AMNE08.jpg,MN,1,num_6,32,num_4,1.35009227666,,,2017_Nov_20_1530,60.0027713146,FEMA4ImagesEEG,001,202344,
AFNE01.JPG,AFNE01.JPG,AFNE01.JPG,AFNE01.JPG,AFNE01.JPG,AFNE01.JPG,,,,,0,4,4,9,,,,,,,,,,,,,,,,,,,AMNE08.jpg,AMNE13.jpg,AMSA03.jpg,AMSA16.jpg,AMSA03.jpg,MS,2,num_2,32,num_8,1.06677340867,,,2017_Nov_20_1530,60.0027713146,FEMA4ImagesEEG,001,202344,
AFNE01.JPG,AFNE01.JPG,AFNE01.JPG,AFNE01.JPG,AFNE01.JPG,AFNE01.JPG,,,,,0,5,5,6,,,,,,,,,,,,,,,,,,,AMNE07.jpg,AMSA11.jpg,AMNE09.jpg,AMSA18.jpg,AMNE07.jpg,MN,1,num_8,16,num_8,1.15010177054,,,2017_Nov_20_1530,60.0027713146,FEMA4ImagesEEG,001,202344,
AFNE01.JPG,AFNE01.JPG,AFNE01.JPG,AFNE01.JPG,AFNE01.JPG,AFNE01.JPG,,,,,0,6,6,7,,,,,,,,,,,,,,,,,,,AMSA20.jpg,AMSA04.jpg,AMNE19.jpg,AMNE10.jpg,AMNE10.jpg,MN,1,num_4,32,num_2,2.00003624353,,,2017_Nov_20_1530,60.0027713146,FEMA4ImagesEEG,001,202344,
AFNE01.JPG,AFNE01.JPG,AFNE01.JPG,AFNE01.JPG,AFNE01.JPG,AFNE01.JPG,,,,,0,7,7,3,,,,,,,,,,,,,,,,,,,AMSA18.jpg,AMNE11.jpg,AMNE10.jpg,AMSA12.jpg,AMSA18.jpg,MS,2,num_8,32,num_4,0.733514807566,,,2017_Nov_20_1530,60.0027713146,FEMA4ImagesEEG,001,202344,
AFNE01.JPG,AFNE01.JPG,AFNE01.JPG,AFNE01.JPG,AFNE01.JPG,AFNE01.JPG,,,,,0,8,8,0,,,,,,,,,,,,,,,,,,,AMSA18.jpg,AMNE14.jpg,AMNE09.jpg,AMSA17.jpg,AMSA18.jpg,MS,2,num_8,32,num_4,2.25001619733,,,2017_Nov_20_1530,60.0027713146,FEMA4ImagesEEG,001,202344,
AFNE01.JPG,AFNE01.JPG,AFNE01.JPG,AFNE01.JPG,AFNE01.JPG,AFNE01.JPG,,,,,0,9,9,5,,,,,,,,,,,,,,,,,,,AMSA11.jpg,AMNE20.jpg,AMSA03.jpg,AMNE09.jpg,AMNE09.jpg,MN,1,num_4,32,num_2,1.38342221016,,,2017_Nov_20_1530,60.0027713146,FEMA4ImagesEEG,001,202344,
AFNE01.JPG,AFNE01.JPG,AFNE01.JPG,AFNE01.JPG,AFNE01.JPG,AFNE01.JPG,,,,,1,0,10,6,,,,,,,,,,,,,,,,,,,AMSA08.jpg,AMNE05.jpg,AMNE16.jpg,AMSA10.jpg,AMSA10.jpg,MS,2,num_4,32,num_8,1.40006408369,,,2017_Nov_20_1530,60.0027713146,FEMA4ImagesEEG,001,202344,
AFNE01.JPG,AFNE01.JPG,AFNE01.JPG,AFNE01.JPG,AFNE01.JPG,AFNE01.JPG,,,,,1,1,11,0,,,,,,,,,,,,,,,,,,,AMNE19.jpg,AMNE01.jpg,AMSA07.jpg,AMSA19.jpg,AMSA19.jpg,MS,2,num_4,16,num_4,0.850148406023,,,2017_Nov_20_1530,60.0027713146,FEMA4ImagesEEG,001,202344,
AFNE01.JPG,AFNE01.JPG,AFNE01.JPG,AFNE01.JPG,AFNE01.JPG,AFNE01.JPG,,,,,1,2,12,4,,,,,,,,,,,,,,,,,,,AMNE04.jpg,AMNE01.jpg,AMSA12.jpg,AMSA07.jpg,AMNE04.jpg,MN,1,num_8,32,num_6,0.966713045553,,,2017_Nov_20_1530,60.0027713146,FEMA4ImagesEEG,001,202344,
AFNE01.JPG,AFNE01.JPG,AFNE01.JPG,AFNE01.JPG,AFNE01.JPG,AFNE01.JPG,,,,,1,3,13,1,,,,,,,,,,,,,,,,,,,AMNE11.jpg,AMSA04.jpg,AMSA02.jpg,AMNE10.jpg,AMSA04.jpg,MS,2,num_6,16,num_6,0.750127493828,,,2017_Nov_20_1530,60.0027713146,FEMA4ImagesEEG,001,202344,
AFNE01.JPG,AFNE01.JPG,AFNE01.JPG,AFNE01.JPG,AFNE01.JPG,AFNE01.JPG,,,,,1,4,14,2,,,,,,,,,,,,,,,,,,,AMNE08.jpg,AMSA15.jpg,AMSA06.jpg,AMNE14.jpg,AMNE08.jpg,MN,1,num_8,32,num_6,0.58349258034,,,2017_Nov_20_1530,60.0027713146,FEMA4ImagesEEG,001,202344,
AFNE01.JPG,AFNE01.JPG,AFNE01.JPG,AFNE01.JPG,AFNE01.JPG,AFNE01.JPG,,,,,1,5,15,8,,,,,,,,,,,,,,,,,,,AMNE01.jpg,AMSA18.jpg,AMSA02.jpg,AMNE16.jpg,AMSA18.jpg,MS,2,num_6,32,num_2,1.4834107277,,,2017_Nov_20_1530,60.0027713146,FEMA4ImagesEEG,001,202344,
AFNE01.JPG,AFNE01.JPG,AFNE01.JPG,AFNE01.JPG,AFNE01.JPG,AFNE01.JPG,,,,,1,6,16,5,,,,,,,,,,,,,,,,,,,AMSA03.jpg,AMSA04.jpg,AMNE10.jpg,AMNE12.jpg,AMNE12.jpg,MN,1,num_4,16,num_4,0.866781619592,,,2017_Nov_20_1530,60.0027713146,FEMA4ImagesEEG,001,202344,
AFNE01.JPG,AFNE01.JPG,AFNE01.JPG,AFNE01.JPG,AFNE01.JPG,AFNE01.JPG,,,,,1,7,17,7,,,,,,,,,,,,,,,,,,,AMNE09.jpg,AMNE02.jpg,AMSA19.jpg,AMSA12.jpg,AMSA12.jpg,MS,2,num_4,32,num_8,1.05013057292,,,2017_Nov_20_1530,60.0027713146,FEMA4ImagesEEG,001,202344,
AFNE01.JPG,AFNE01.JPG,AFNE01.JPG,AFNE01.JPG,AFNE01.JPG,AFNE01.JPG,,,,,1,8,18,9,,,,,,,,,,,,,,,,,,,AMNE16.jpg,AMSA20.jpg,AMSA15.jpg,AMNE12.jpg,AMNE16.jpg,MN,1,num_8,16,num_8,1.70011110406,,,2017_Nov_20_1530,60.0027713146,FEMA4ImagesEEG,001,202344,
AFNE01.JPG,AFNE01.JPG,AFNE01.JPG,AFNE01.JPG,AFNE01.JPG,AFNE01.JPG,,,,,1,9,19,3,,,,,,,,,,,,,,,,,,,AMSA19.jpg,AMNE11.jpg,AMNE14.jpg,AMSA15.jpg,AMSA15.jpg,MS,2,num_4,16,num_4,0.950136602821,,,2017_Nov_20_1530,60.0027713146,FEMA4ImagesEEG,001,202344,
AFNE01.JPG,AFNE01.JPG,AFNE01.JPG,AFNE01.JPG,AFNE01.JPG,AFNE01.JPG,,,,,2,0,20,4,,,,,,,,,,,,,,,,,,,AMNE09.jpg,AMNE06.jpg,AMSA07.jpg,AMSA06.jpg,AMSA07.jpg,MS,2,num_2,32,num_4,0.833490816275,,,2017_Nov_20_1530,60.0027713146,FEMA4ImagesEEG,001,202344,
AFNE01.JPG,AFNE01.JPG,AFNE01.JPG,AFNE01.JPG,AFNE01.JPG,AFNE01.JPG,,,,,2,1,21,5,,,,,,,,,,,,,,,,,,,AMNE07.jpg,AMNE13.jpg,AMSA16.jpg,AMSA17.jpg,AMSA16.jpg,MS,2,num_2,32,num_6,1.01677947064,,,2017_Nov_20_1530,60.0027713146,FEMA4ImagesEEG,001,202344,
AFNE01.JPG,AFNE01.JPG,AFNE01.JPG,AFNE01.JPG,AFNE01.JPG,AFNE01.JPG,,,,,2,2,22,9,,,,,,,,,,,,,,,,,,,AMNE04.jpg,AMNE12.jpg,AMSA12.jpg,AMSA20.jpg,AMNE04.jpg,MN,1,num_8,16,num_8,0.966790343698,,,2017_Nov_20_1530,60.0027713146,FEMA4ImagesEEG,001,202344,
AFNE01.JPG,AFNE01.JPG,AFNE01.JPG,AFNE01.JPG,AFNE01.JPG,AFNE01.JPG,,,,,2,3,23,2,,,,,,,,,,,,,,,,,,,AMNE18.jpg,AMSA18.jpg,AMSA10.jpg,AMNE06.jpg,AMSA10.jpg,MS,2,num_2,16,num_2,0.983474234058,,,2017_Nov_20_1530,60.0027713146,FEMA4ImagesEEG,001,202344,
AFNE01.JPG,AFNE01.JPG,AFNE01.JPG,AFNE01.JPG,AFNE01.JPG,AFNE01.JPG,,,,,2,4,24,1,,,,,,,,,,,,,,,,,,,AMSA05.jpg,AMNE18.jpg,AMSA01.jpg,AMNE19.jpg,AMSA01.jpg,MS,2,num_2,32,num_8,1.40010738348,,,2017_Nov_20_1530,60.0027713146,FEMA4ImagesEEG,001,202344,
AFNE01.JPG,AFNE01.JPG,AFNE01.JPG,AFNE01.JPG,AFNE01.JPG,AFNE01.JPG,,,,,2,5,25,0,,,,,,,,,,,,,,,,,,,AMSA17.jpg,AMNE04.jpg,AMNE16.jpg,AMSA12.jpg,AMNE04.jpg,MN,1,num_6,16,num_6,0.583506051386,,,2017_Nov_20_1530,60.0027713146,FEMA4ImagesEEG,001,202344,
AFNE01.JPG,AFNE01.JPG,AFNE01.JPG,AFNE01.JPG,AFNE01.JPG,AFNE01.JPG,,,,,2,6,26,8,,,,,,,,,,,,,,,,,,,AMSA08.jpg,AMNE20.jpg,AMNE16.jpg,AMSA15.jpg,AMSA08.jpg,MS,2,num_8,32,num_4,1.06674774953,,,2017_Nov_20_1530,60.0027713146,FEMA4ImagesEEG,001,202344,
AFNE01.JPG,AFNE01.JPG,AFNE01.JPG,AFNE01.JPG,AFNE01.JPG,AFNE01.JPG,,,,,2,7,27,7,,,,,,,,,,,,,,,,,,,AMNE01.jpg,AMNE05.jpg,AMSA06.jpg,AMSA15.jpg,AMSA15.jpg,MS,2,num_4,32,num_2,1.7500601386,,,2017_Nov_20_1530,60.0027713146,FEMA4ImagesEEG,001,202344,
AFNE01.JPG,AFNE01.JPG,AFNE01.JPG,AFNE01.JPG,AFNE01.JPG,AFNE01.JPG,,,,,2,8,28,6,,,,,,,,,,,,,,,,,,,AMNE08.jpg,AMNE09.jpg,AMSA01.jpg,AMSA04.jpg,AMNE08.jpg,MN,1,num_8,16,num_8,0.83346098753,,,2017_Nov_20_1530,60.0027713146,FEMA4ImagesEEG,001,202344,
AFNE01.JPG,AFNE01.JPG,AFNE01.JPG,AFNE01.JPG,AFNE01.JPG,AFNE01.JPG,,,,,2,9,29,3,,,,,,,,,,,,,,,,,,,AMNE12.jpg,AMSA17.jpg,AMSA14.jpg,AMNE18.jpg,AMSA14.jpg,MS,2,num_2,16,num_2,0.633512177506,,,2017_Nov_20_1530,60.0027713146,FEMA4ImagesEEG,001,202344,
AFNE01.JPG,AFNE01.JPG,AFNE01.JPG,AFNE01.JPG,AFNE01.JPG,AFNE01.JPG,,,,,3,0,30,1,,,,,,,,,,,,,,,,,,,AMNE10.jpg,AMSA09.jpg,AMNE03.jpg,AMSA17.jpg,AMSA09.jpg,MS,2,num_6,16,num_6,0.766757820744,,,2017_Nov_20_1530,60.0027713146,FEMA4ImagesEEG,001,202344,
AFNE01.JPG,AFNE01.JPG,AFNE01.JPG,AFNE01.JPG,AFNE01.JPG,AFNE01.JPG,,,,,3,1,31,4,,,,,,,,,,,,,,,,,,,AMSA01.jpg,AMNE06.jpg,AMSA03.jpg,AMNE20.jpg,AMSA03.jpg,MS,2,num_2,32,num_6,0.71684470899,,,2017_Nov_20_1530,60.0027713146,FEMA4ImagesEEG,001,202344,
AFNE01.JPG,AFNE01.JPG,AFNE01.JPG,AFNE01.JPG,AFNE01.JPG,AFNE01.JPG,,,,,3,2,32,5,,,,,,,,,,,,,,,,,,,AMNE17.jpg,AMSA04.jpg,AMNE03.jpg,AMSA10.jpg,AMNE03.jpg,MN,1,num_2,32,num_8,1.11678627031,,,2017_Nov_20_1530,60.0027713146,FEMA4ImagesEEG,001,202344,
AFNE01.JPG,AFNE01.JPG,AFNE01.JPG,AFNE01.JPG,AFNE01.JPG,AFNE01.JPG,,,,,3,3,33,2,,,,,,,,,,,,,,,,,,,AMNE03.jpg,AMSA11.jpg,AMSA12.jpg,AMNE04.jpg,AMSA11.jpg,MS,2,num_6,16,num_6,0.817019255257,,,2017_Nov_20_1530,60.0027713146,FEMA4ImagesEEG,001,202344,
AFNE01.JPG,AFNE01.JPG,AFNE01.JPG,AFNE01.JPG,AFNE01.JPG,AFNE01.JPG,,,,,3,4,34,6,,,,,,,,,,,,,,,,,,,AMNE20.jpg,AMNE04.jpg,AMSA10.jpg,AMSA16.jpg,AMNE04.jpg,MN,1,num_6,16,num_6,0.716812635072,,,2017_Nov_20_1530,60.0027713146,FEMA4ImagesEEG,001,202344,
AFNE01.JPG,AFNE01.JPG,AFNE01.JPG,AFNE01.JPG,AFNE01.JPG,AFNE01.JPG,,,,,3,5,35,3,,,,,,,,,,,,,,,,,,,AMSA04.jpg,AMNE10.jpg,AMSA08.jpg,AMNE11.jpg,AMSA08.jpg,MS,2,num_2,16,num_2,0.833440139482,,,2017_Nov_20_1530,60.0027713146,FEMA4ImagesEEG,001,202344,
AFNE01.JPG,AFNE01.JPG,AFNE01.JPG,AFNE01.JPG,AFNE01.JPG,AFNE01.JPG,,,,,3,6,36,8,,,,,,,,,,,,,,,,,,,AMSA12.jpg,AMNE15.jpg,AMNE13.jpg,AMSA09.jpg,AMSA09.jpg,MS,2,num_4,32,num_2,2.88333368615,,,2017_Nov_20_1530,60.0027713146,FEMA4ImagesEEG,001,202344,
AFNE01.JPG,AFNE01.JPG,AFNE01.JPG,AFNE01.JPG,AFNE01.JPG,AFNE01.JPG,,,,,3,7,37,7,,,,,,,,,,,,,,,,,,,AMSA07.jpg,AMNE14.jpg,AMSA09.jpg,AMNE03.jpg,AMSA07.jpg,MS,2,num_8,32,num_4,0.749033452455,,,2017_Nov_20_1530,60.0027713146,FEMA4ImagesEEG,001,202344,
AFNE01.JPG,AFNE01.JPG,AFNE01.JPG,AFNE01.JPG,AFNE01.JPG,AFNE01.JPG,,,,,3,8,38,0,,,,,,,,,,,,,,,,,,,AMSA09.jpg,AMNE11.jpg,AMNE09.jpg,AMSA03.jpg,AMSA09.jpg,MS,2,num_8,32,num_6,1.03345117291,,,2017_Nov_20_1530,60.0027713146,FEMA4ImagesEEG,001,202344,
AFNE01.JPG,AFNE01.JPG,AFNE01.JPG,AFNE01.JPG,AFNE01.JPG,AFNE01.JPG,,,,,3,9,39,9,,,,,,,,,,,,,,,,,,,AMNE16.jpg,AMSA12.jpg,AMSA08.jpg,AMNE06.jpg,AMNE16.jpg,MN,1,num_8,32,num_6,0.866756922675,,,2017_Nov_20_1530,60.0027713146,FEMA4ImagesEEG,001,202344,
AFNE01.JPG,AFNE01.JPG,AFNE01.JPG,AFNE01.JPG,AFNE01.JPG,AFNE01.JPG,,,,,4,0,40,2,,,,,,,,,,,,,,,,,,,AMSA16.jpg,AMNE18.jpg,AMNE08.jpg,AMSA03.jpg,AMNE18.jpg,MN,1,num_6,32,num_4,0.80014356286,,,2017_Nov_20_1530,60.0027713146,FEMA4ImagesEEG,001,202344,
AFNE01.JPG,AFNE01.JPG,AFNE01.JPG,AFNE01.JPG,AFNE01.JPG,AFNE01.JPG,,,,,4,1,41,0,,,,,,,,,,,,,,,,,,,AMNE12.jpg,AMSA17.jpg,AMNE09.jpg,AMSA01.jpg,AMSA17.jpg,MS,2,num_6,32,num_8,1.08350284399,,,2017_Nov_20_1530,60.0027713146,FEMA4ImagesEEG,001,202344,
AFNE01.JPG,AFNE01.JPG,AFNE01.JPG,AFNE01.JPG,AFNE01.JPG,AFNE01.JPG,,,,,4,2,42,8,,,,,,,,,,,,,,,,,,,AMSA13.jpg,AMNE11.jpg,AMSA19.jpg,AMNE07.jpg,AMSA13.jpg,MS,2,num_8,16,num_8,1.43345046728,,,2017_Nov_20_1530,60.0027713146,FEMA4ImagesEEG,001,202344,
AFNE01.JPG,AFNE01.JPG,AFNE01.JPG,AFNE01.JPG,AFNE01.JPG,AFNE01.JPG,,,,,4,3,43,3,,,,,,,,,,,,,,,,,,,AMSA12.jpg,AMNE15.jpg,AMNE06.jpg,AMSA02.jpg,AMNE15.jpg,MN,1,num_6,16,num_6,0.716721865881,,,2017_Nov_20_1530,60.0027713146,FEMA4ImagesEEG,001,202344,
AFNE01.JPG,AFNE01.JPG,AFNE01.JPG,AFNE01.JPG,AFNE01.JPG,AFNE01.JPG,,,,,4,4,44,9,,,,,,,,,,,,,,,,,,,AMSA19.jpg,AMNE04.jpg,AMSA14.jpg,AMNE20.jpg,AMNE20.jpg,MN,1,num_4,32,num_8,1.2001008404,,,2017_Nov_20_1530,60.0027713146,FEMA4ImagesEEG,001,202344,
AFNE01.JPG,AFNE01.JPG,AFNE01.JPG,AFNE01.JPG,AFNE01.JPG,AFNE01.JPG,,,,,4,5,45,7,,,,,,,,,,,,,,,,,,,AMNE05.jpg,AMNE03.jpg,AMSA06.jpg,AMSA16.jpg,AMSA06.jpg,MS,2,num_2,32,num_8,1.28343914519,,,2017_Nov_20_1530,60.0027713146,FEMA4ImagesEEG,001,202344,
AFNE01.JPG,AFNE01.JPG,AFNE01.JPG,AFNE01.JPG,AFNE01.JPG,AFNE01.JPG,,,,,4,6,46,5,,,,,,,,,,,,,,,,,,,AMSA02.jpg,AMSA01.jpg,AMNE11.jpg,AMNE02.jpg,AMSA01.jpg,MS,2,num_6,32,num_8,1.25009638213,,,2017_Nov_20_1530,60.0027713146,FEMA4ImagesEEG,001,202344,
AFNE01.JPG,AFNE01.JPG,AFNE01.JPG,AFNE01.JPG,AFNE01.JPG,AFNE01.JPG,,,,,4,7,47,1,,,,,,,,,,,,,,,,,,,AMSA19.jpg,AMSA11.jpg,AMNE11.jpg,AMNE09.jpg,AMSA11.jpg,MS,2,num_6,32,num_2,1.55008791461,,,2017_Nov_20_1530,60.0027713146,FEMA4ImagesEEG,001,202344,
AFNE01.JPG,AFNE01.JPG,AFNE01.JPG,AFNE01.JPG,AFNE01.JPG,AFNE01.JPG,,,,,4,8,48,6,,,,,,,,,,,,,,,,,,,AMSA11.jpg,AMNE17.jpg,AMSA17.jpg,AMNE13.jpg,AMSA11.jpg,MS,2,num_8,32,num_4,0.766795667968,,,2017_Nov_20_1530,60.0027713146,FEMA4ImagesEEG,001,202344,
AFNE01.JPG,AFNE01.JPG,AFNE01.JPG,AFNE01.JPG,AFNE01.JPG,AFNE01.JPG,,,,,4,9,49,4,,,,,,,,,,,,,,,,,,,AMNE17.jpg,AMNE05.jpg,AMSA15.jpg,AMSA02.jpg,AMSA02.jpg,MS,2,num_4,32,num_8,1.40007947917,,,2017_Nov_20_1530,60.0027713146,FEMA4ImagesEEG,001,202344,
AFNE01.JPG,AFNE01.JPG,AFNE01.JPG,AFNE01.JPG,AFNE01.JPG,AFNE01.JPG,,,,,5,0,50,1,,,,,,,,,,,,,,,,,,,AMSA09.jpg,AMSA02.jpg,AMNE04.jpg,AMNE11.jpg,AMSA02.jpg,MS,2,num_6,16,num_6,0.750136153786,,,2017_Nov_20_1530,60.0027713146,FEMA4ImagesEEG,001,202344,
AFNE01.JPG,AFNE01.JPG,AFNE01.JPG,AFNE01.JPG,AFNE01.JPG,AFNE01.JPG,,,,,5,1,51,8,,,,,,,,,,,,,,,,,,,AMNE15.jpg,AMSA07.jpg,AMNE14.jpg,AMSA17.jpg,AMSA07.jpg,MS,2,num_6,16,num_6,0.650071300322,,,2017_Nov_20_1530,60.0027713146,FEMA4ImagesEEG,001,202344,
AFNE01.JPG,AFNE01.JPG,AFNE01.JPG,AFNE01.JPG,AFNE01.JPG,AFNE01.JPG,,,,,5,2,52,3,,,,,,,,,,,,,,,,,,,AMNE16.jpg,AMNE08.jpg,AMSA20.jpg,AMSA09.jpg,AMNE16.jpg,MN,1,num_8,32,num_4,0.649943325385,,,2017_Nov_20_1530,60.0027713146,FEMA4ImagesEEG,001,202344,
AFNE01.JPG,AFNE01.JPG,AFNE01.JPG,AFNE01.JPG,AFNE01.JPG,AFNE01.JPG,,,,,5,3,53,5,,,,,,,,,,,,,,,,,,,AMSA01.jpg,AMNE17.jpg,AMSA20.jpg,AMNE01.jpg,AMSA20.jpg,MS,2,num_2,32,num_6,0.700218872422,,,2017_Nov_20_1530,60.0027713146,FEMA4ImagesEEG,001,202344,
AFNE01.JPG,AFNE01.JPG,AFNE01.JPG,AFNE01.JPG,AFNE01.JPG,AFNE01.JPG,,,,,5,4,54,7,,,,,,,,,,,,,,,,,,,AMSA05.jpg,AMNE10.jpg,AMNE17.jpg,AMSA13.jpg,AMNE17.jpg,MN,1,num_2,32,num_4,1.01679326242,,,2017_Nov_20_1530,60.0027713146,FEMA4ImagesEEG,001,202344,
AFNE01.JPG,AFNE01.JPG,AFNE01.JPG,AFNE01.JPG,AFNE01.JPG,AFNE01.JPG,,,,,5,5,55,4,,,,,,,,,,,,,,,,,,,AMSA12.jpg,AMSA10.jpg,AMNE09.jpg,AMNE12.jpg,AMNE09.jpg,MN,1,num_2,16,num_2,1.15010722311,,,2017_Nov_20_1530,60.0027713146,FEMA4ImagesEEG,001,202344,
AFNE01.JPG,AFNE01.JPG,AFNE01.JPG,AFNE01.JPG,AFNE01.JPG,AFNE01.JPG,,,,,5,6,56,6,,,,,,,,,,,,,,,,,,,AMSA13.jpg,AMNE11.jpg,AMNE17.jpg,AMSA20.jpg,AMSA13.jpg,MS,2,num_8,32,num_2,1.300206107,,,2017_Nov_20_1530,60.0027713146,FEMA4ImagesEEG,001,202344,
AFNE01.JPG,AFNE01.JPG,AFNE01.JPG,AFNE01.JPG,AFNE01.JPG,AFNE01.JPG,,,,,5,7,57,9,,,,,,,,,,,,,,,,,,,AMNE18.jpg,AMNE01.jpg,AMSA19.jpg,AMSA06.jpg,AMSA19.jpg,MS,2,num_2,32,num_4,1.0667932945,,,2017_Nov_20_1530,60.0027713146,FEMA4ImagesEEG,001,202344,
AFNE01.JPG,AFNE01.JPG,AFNE01.JPG,AFNE01.JPG,AFNE01.JPG,AFNE01.JPG,,,,,5,8,58,2,,,,,,,,,,,,,,,,,,,AMNE17.jpg,AMSA20.jpg,AMNE14.jpg,AMSA03.jpg,AMSA20.jpg,MS,2,num_6,32,num_4,1.10017422553,,,2017_Nov_20_1530,60.0027713146,FEMA4ImagesEEG,001,202344,
AFNE01.JPG,AFNE01.JPG,AFNE01.JPG,AFNE01.JPG,AFNE01.JPG,AFNE01.JPG,,,,,5,9,59,0,,,,,,,,,,,,,,,,,,,AMSA09.jpg,AMNE12.jpg,AMSA02.jpg,AMNE06.jpg,AMSA02.jpg,MS,2,num_2,32,num_8,0.900144909965,,,2017_Nov_20_1530,60.0027713146,FEMA4ImagesEEG,001,202344,
,,,,,,,,,,,,,,,,,,,,,,,,,,,,,,,,,,,,,,,,,,,space,36.1639503265,2017_Nov_20_1530,60.0027713146,FEMA4ImagesEEG,001,202344,
AFNE01.JPG,AFNE01.JPG,AFNE01.JPG,AFNE01.JPG,AFNE01.JPG,AFNE01.JPG,,,,,,,,,0,0,0,2,,,,,,,,,,,,,,,AFNE14.jpg,AFSA15.jpg,AFNE10.jpg,AFSA05.jpg,AFNE10.jpg,FN,3,num_2,16,num_2,0.750129739002,,,2017_Nov_20_1530,60.0027713146,FEMA4ImagesEEG,001,202344,
AFNE01.JPG,AFNE01.JPG,AFNE01.JPG,AFNE01.JPG,AFNE01.JPG,AFNE01.JPG,,,,,,,,,0,1,1,8,,,,,,,,,,,,,,,AFNE16.jpg,AFSA17.jpg,AFNE19.jpg,AFSA15.jpg,AFNE16.jpg,FN,3,num_8,32,num_6,1.31675143803,,,2017_Nov_20_1530,60.0027713146,FEMA4ImagesEEG,001,202344,
AFNE01.JPG,AFNE01.JPG,AFNE01.JPG,AFNE01.JPG,AFNE01.JPG,AFNE01.JPG,,,,,,,,,0,2,2,1,,,,,,,,,,,,,,,AFSA11.jpg,AFNE20.jpg,AFSA20.jpg,AFNE14.jpg,AFNE20.jpg,FN,3,num_6,32,num_2,0.850164122243,,,2017_Nov_20_1530,60.0027713146,FEMA4ImagesEEG,001,202344,
AFNE01.JPG,AFNE01.JPG,AFNE01.JPG,AFNE01.JPG,AFNE01.JPG,AFNE01.JPG,,,,,,,,,0,3,3,5,,,,,,,,,,,,,,,AFNE16.jpg,AFSA02.jpg,AFNE17.jpg,AFSA05.jpg,AFSA05.jpg,FS,4,num_4,32,num_6,1.61671634917,,,2017_Nov_20_1530,60.0027713146,FEMA4ImagesEEG,001,202344,
AFNE01.JPG,AFNE01.JPG,AFNE01.JPG,AFNE01.JPG,AFNE01.JPG,AFNE01.JPG,,,,,,,,,0,4,4,3,,,,,,,,,,,,,,,AFSA02.jpg,AFNE10.jpg,AFSA14.jpg,AFNE09.jpg,AFSA14.jpg,FS,4,num_2,16,num_2,1.06676122058,,,2017_Nov_20_1530,60.0027713146,FEMA4ImagesEEG,001,202344,
AFNE01.JPG,AFNE01.JPG,AFNE01.JPG,AFNE01.JPG,AFNE01.JPG,AFNE01.JPG,,,,,,,,,0,5,5,6,,,,,,,,,,,,,,,AFSA06.jpg,AFNE02.jpg,AFNE13.jpg,AFSA04.jpg,AFNE02.jpg,FN,3,num_6,32,num_8,0.883496300915,,,2017_Nov_20_1530,60.0027713146,FEMA4ImagesEEG,001,202344,
AFNE01.JPG,AFNE01.JPG,AFNE01.JPG,AFNE01.JPG,AFNE01.JPG,AFNE01.JPG,,,,,,,,,0,6,6,9,,,,,,,,,,,,,,,AFSA16.jpg,AFNE04.jpg,AFSA01.jpg,AFNE12.jpg,AFNE12.jpg,FN,3,num_4,32,num_2,0.96647730225,,,2017_Nov_20_1530,60.0027713146,FEMA4ImagesEEG,001,202344,
AFNE01.JPG,AFNE01.JPG,AFNE01.JPG,AFNE01.JPG,AFNE01.JPG,AFNE01.JPG,,,,,,,,,0,7,7,4,,,,,,,,,,,,,,,AFNE04.jpg,AFNE16.jpg,AFSA19.jpg,AFSA18.jpg,AFNE04.jpg,FN,3,num_8,16,num_8,1.68348398453,,,2017_Nov_20_1530,60.0027713146,FEMA4ImagesEEG,001,202344,
AFNE01.JPG,AFNE01.JPG,AFNE01.JPG,AFNE01.JPG,AFNE01.JPG,AFNE01.JPG,,,,,,,,,0,8,8,7,,,,,,,,,,,,,,,AFSA19.jpg,AFSA06.jpg,AFNE01.jpg,AFNE08.jpg,AFNE08.jpg,FN,3,num_4,32,num_6,1.25008900513,,,2017_Nov_20_1530,60.0027713146,FEMA4ImagesEEG,001,202344,
AFNE01.JPG,AFNE01.JPG,AFNE01.JPG,AFNE01.JPG,AFNE01.JPG,AFNE01.JPG,,,,,,,,,0,9,9,0,,,,,,,,,,,,,,,AFSA19.jpg,AFNE15.jpg,AFSA14.jpg,AFNE18.jpg,AFSA19.jpg,FS,4,num_8,32,num_2,1.5003560205,,,2017_Nov_20_1530,60.0027713146,FEMA4ImagesEEG,001,202344,
AFNE01.JPG,AFNE01.JPG,AFNE01.JPG,AFNE01.JPG,AFNE01.JPG,AFNE01.JPG,,,,,,,,,1,0,10,1,,,,,,,,,,,,,,,AFSA14.jpg,AFSA13.jpg,AFNE06.jpg,AFNE18.jpg,AFNE06.jpg,FN,3,num_2,32,num_8,1.28327107786,,,2017_Nov_20_1530,60.0027713146,FEMA4ImagesEEG,001,202344,
AFNE01.JPG,AFNE01.JPG,AFNE01.JPG,AFNE01.JPG,AFNE01.JPG,AFNE01.JPG,,,,,,,,,1,1,11,6,,,,,,,,,,,,,,,AFNE20.jpg,AFSA10.jpg,AFSA12.jpg,AFNE16.jpg,AFNE20.jpg,FN,3,num_8,32,num_2,1.25010728726,,,2017_Nov_20_1530,60.0027713146,FEMA4ImagesEEG,001,202344,
AFNE01.JPG,AFNE01.JPG,AFNE01.JPG,AFNE01.JPG,AFNE01.JPG,AFNE01.JPG,,,,,,,,,1,2,12,2,,,,,,,,,,,,,,,AFNE10.jpg,AFNE08.jpg,AFSA02.jpg,AFSA04.jpg,AFSA04.jpg,FS,4,num_4,16,num_4,1.1000266855,,,2017_Nov_20_1530,60.0027713146,FEMA4ImagesEEG,001,202344,
AFNE01.JPG,AFNE01.JPG,AFNE01.JPG,AFNE01.JPG,AFNE01.JPG,AFNE01.JPG,,,,,,,,,1,3,13,8,,,,,,,,,,,,,,,AFNE04.jpg,AFSA06.jpg,AFSA16.jpg,AFNE01.jpg,AFNE01.jpg,FN,3,num_4,32,num_6,0.950181185567,,,2017_Nov_20_1530,60.0027713146,FEMA4ImagesEEG,001,202344,
AFNE01.JPG,AFNE01.JPG,AFNE01.JPG,AFNE01.JPG,AFNE01.JPG,AFNE01.JPG,,,,,,,,,1,4,14,7,,,,,,,,,,,,,,,AFSA10.jpg,AFNE14.jpg,AFNE04.jpg,AFSA06.jpg,AFNE04.jpg,FN,3,num_2,32,num_6,1.13346406663,,,2017_Nov_20_1530,60.0027713146,FEMA4ImagesEEG,001,202344,
AFNE01.JPG,AFNE01.JPG,AFNE01.JPG,AFNE01.JPG,AFNE01.JPG,AFNE01.JPG,,,,,,,,,1,5,15,0,,,,,,,,,,,,,,,AFNE17.jpg,AFNE08.jpg,AFSA04.jpg,AFSA20.jpg,AFSA04.jpg,FS,4,num_2,32,num_8,1.15001645392,,,2017_Nov_20_1530,60.0027713146,FEMA4ImagesEEG,001,202344,
AFNE01.JPG,AFNE01.JPG,AFNE01.JPG,AFNE01.JPG,AFNE01.JPG,AFNE01.JPG,,,,,,,,,1,6,16,4,,,,,,,,,,,,,,,AFNE03.jpg,AFSA05.jpg,AFSA12.jpg,AFNE01.jpg,AFSA12.jpg,FS,4,num_2,32,num_6,1.56670380826,,,2017_Nov_20_1530,60.0027713146,FEMA4ImagesEEG,001,202344,
AFNE01.JPG,AFNE01.JPG,AFNE01.JPG,AFNE01.JPG,AFNE01.JPG,AFNE01.JPG,,,,,,,,,1,7,17,9,,,,,,,,,,,,,,,AFSA08.jpg,AFNE19.jpg,AFSA09.jpg,AFNE13.jpg,AFSA09.jpg,FS,4,num_2,32,num_4,1.31675753208,,,2017_Nov_20_1530,60.0027713146,FEMA4ImagesEEG,001,202344,
AFNE01.JPG,AFNE01.JPG,AFNE01.JPG,AFNE01.JPG,AFNE01.JPG,AFNE01.JPG,,,,,,,,,1,8,18,5,,,,,,,,,,,,,,,AFSA10.jpg,AFNE19.jpg,AFSA18.jpg,AFNE13.jpg,AFNE13.jpg,FN,3,num_4,16,num_4,1.20012232993,,,2017_Nov_20_1530,60.0027713146,FEMA4ImagesEEG,001,202344,
AFNE01.JPG,AFNE01.JPG,AFNE01.JPG,AFNE01.JPG,AFNE01.JPG,AFNE01.JPG,,,,,,,,,1,9,19,3,,,,,,,,,,,,,,,AFSA11.jpg,AFNE02.jpg,AFSA17.jpg,AFNE04.jpg,AFSA11.jpg,FS,4,num_8,32,num_2,1.31673508034,,,2017_Nov_20_1530,60.0027713146,FEMA4ImagesEEG,001,202344,
AFNE01.JPG,AFNE01.JPG,AFNE01.JPG,AFNE01.JPG,AFNE01.JPG,AFNE01.JPG,,,,,,,,,2,0,20,3,,,,,,,,,,,,,,,AFSA16.jpg,AFNE11.jpg,AFNE03.jpg,AFSA04.jpg,AFSA16.jpg,FS,4,num_8,16,num_8,1.28347314355,,,2017_Nov_20_1530,60.0027713146,FEMA4ImagesEEG,001,202344,
AFNE01.JPG,AFNE01.JPG,AFNE01.JPG,AFNE01.JPG,AFNE01.JPG,AFNE01.JPG,,,,,,,,,2,1,21,0,,,,,,,,,,,,,,,AFNE16.jpg,AFSA08.jpg,AFNE20.jpg,AFSA13.jpg,AFSA08.jpg,FS,4,num_6,32,num_4,0.916760482879,,,2017_Nov_20_1530,60.0027713146,FEMA4ImagesEEG,001,202344,
AFNE01.JPG,AFNE01.JPG,AFNE01.JPG,AFNE01.JPG,AFNE01.JPG,AFNE01.JPG,,,,,,,,,2,2,22,6,,,,,,,,,,,,,,,AFSA07.jpg,AFNE16.jpg,AFNE08.jpg,AFSA06.jpg,AFNE08.jpg,FN,3,num_2,32,num_8,1.48343221722,,,2017_Nov_20_1530,60.0027713146,FEMA4ImagesEEG,001,202344,
AFNE01.JPG,AFNE01.JPG,AFNE01.JPG,AFNE01.JPG,AFNE01.JPG,AFNE01.JPG,,,,,,,,,2,3,23,2,,,,,,,,,,,,,,,AFSA13.jpg,AFNE07.jpg,AFNE06.jpg,AFSA10.jpg,AFNE06.jpg,FN,3,num_2,32,num_8,1.35011184176,,,2017_Nov_20_1530,60.0027713146,FEMA4ImagesEEG,001,202344,
AFNE01.JPG,AFNE01.JPG,AFNE01.JPG,AFNE01.JPG,AFNE01.JPG,AFNE01.JPG,,,,,,,,,2,4,24,4,,,,,,,,,,,,,,,AFSA12.jpg,AFNE05.jpg,AFSA02.jpg,AFNE16.jpg,AFSA02.jpg,FS,4,num_2,16,num_2,1.05011613966,,,2017_Nov_20_1530,60.0027713146,FEMA4ImagesEEG,001,202344,
AFNE01.JPG,AFNE01.JPG,AFNE01.JPG,AFNE01.JPG,AFNE01.JPG,AFNE01.JPG,,,,,,,,,2,5,25,7,,,,,,,,,,,,,,,AFSA10.jpg,AFNE14.jpg,AFSA20.jpg,AFNE06.jpg,AFNE14.jpg,FN,3,num_6,16,num_6,1.00010584393,,,2017_Nov_20_1530,60.0027713146,FEMA4ImagesEEG,001,202344,
AFNE01.JPG,AFNE01.JPG,AFNE01.JPG,AFNE01.JPG,AFNE01.JPG,AFNE01.JPG,,,,,,,,,2,6,26,5,,,,,,,,,,,,,,,AFSA11.jpg,AFSA13.jpg,AFNE01.jpg,AFNE10.jpg,AFSA13.jpg,FS,4,num_6,32,num_4,0.850149368241,,,2017_Nov_20_1530,60.0027713146,FEMA4ImagesEEG,001,202344,
AFNE01.JPG,AFNE01.JPG,AFNE01.JPG,AFNE01.JPG,AFNE01.JPG,AFNE01.JPG,,,,,,,,,2,7,27,8,,,,,,,,,,,,,,,AFNE16.jpg,AFSA13.jpg,AFSA18.jpg,AFNE08.jpg,AFNE16.jpg,FN,3,num_8,32,num_2,1.34983055349,,,2017_Nov_20_1530,60.0027713146,FEMA4ImagesEEG,001,202344,
AFNE01.JPG,AFNE01.JPG,AFNE01.JPG,AFNE01.JPG,AFNE01.JPG,AFNE01.JPG,,,,,,,,,2,8,28,1,,,,,,,,,,,,,,,AFSA07.jpg,AFSA08.jpg,AFNE18.jpg,AFNE03.jpg,AFNE18.jpg,FN,3,num_2,32,num_6,2.06666948917,,,2017_Nov_20_1530,60.0027713146,FEMA4ImagesEEG,001,202344,
AFNE01.JPG,AFNE01.JPG,AFNE01.JPG,AFNE01.JPG,AFNE01.JPG,AFNE01.JPG,,,,,,,,,2,9,29,9,,,,,,,,,,,,,,,AFSA12.jpg,AFNE10.jpg,AFSA03.jpg,AFNE16.jpg,AFSA03.jpg,FS,4,num_2,32,num_4,1.35012114319,,,2017_Nov_20_1530,60.0027713146,FEMA4ImagesEEG,001,202344,
AFNE01.JPG,AFNE01.JPG,AFNE01.JPG,AFNE01.JPG,AFNE01.JPG,AFNE01.JPG,,,,,,,,,3,0,30,2,,,,,,,,,,,,,,,AFNE10.jpg,AFNE14.jpg,AFSA10.jpg,AFSA04.jpg,AFNE14.jpg,FN,3,num_6,32,num_4,1.41673065413,,,2017_Nov_20_1530,60.0027713146,FEMA4ImagesEEG,001,202344,
AFNE01.JPG,AFNE01.JPG,AFNE01.JPG,AFNE01.JPG,AFNE01.JPG,AFNE01.JPG,,,,,,,,,3,1,31,8,,,,,,,,,,,,,,,AFNE02.jpg,AFSA05.jpg,AFSA14.jpg,AFNE17.jpg,AFSA14.jpg,FS,4,num_2,16,num_2,0.717062811638,,,2017_Nov_20_1530,60.0027713146,FEMA4ImagesEEG,001,202344,
AFNE01.JPG,AFNE01.JPG,AFNE01.JPG,AFNE01.JPG,AFNE01.JPG,AFNE01.JPG,,,,,,,,,3,2,32,3,,,,,,,,,,,,,,,AFSA12.jpg,AFNE01.jpg,AFNE14.jpg,AFSA04.jpg,AFNE01.jpg,FN,3,num_6,16,num_6,0.850178234768,,,2017_Nov_20_1530,60.0027713146,FEMA4ImagesEEG,001,202344,
AFNE01.JPG,AFNE01.JPG,AFNE01.JPG,AFNE01.JPG,AFNE01.JPG,AFNE01.JPG,,,,,,,,,3,3,33,1,,,,,,,,,,,,,,,AFSA08.jpg,AFSA16.jpg,AFNE14.jpg,AFNE15.jpg,AFNE14.jpg,FN,3,num_2,16,num_2,0.783492708636,,,2017_Nov_20_1530,60.0027713146,FEMA4ImagesEEG,001,202344,
AFNE01.JPG,AFNE01.JPG,AFNE01.JPG,AFNE01.JPG,AFNE01.JPG,AFNE01.JPG,,,,,,,,,3,4,34,9,,,,,,,,,,,,,,,AFNE20.jpg,AFSA17.jpg,AFNE12.jpg,AFSA02.jpg,AFSA17.jpg,FS,4,num_6,16,num_6,0.783439145192,,,2017_Nov_20_1530,60.0027713146,FEMA4ImagesEEG,001,202344,
AFNE01.JPG,AFNE01.JPG,AFNE01.JPG,AFNE01.JPG,AFNE01.JPG,AFNE01.JPG,,,,,,,,,3,5,35,5,,,,,,,,,,,,,,,AFNE12.jpg,AFSA10.jpg,AFNE15.jpg,AFSA04.jpg,AFNE15.jpg,FN,3,num_2,16,num_2,0.900123741179,,,2017_Nov_20_1530,60.0027713146,FEMA4ImagesEEG,001,202344,
AFNE01.JPG,AFNE01.JPG,AFNE01.JPG,AFNE01.JPG,AFNE01.JPG,AFNE01.JPG,,,,,,,,,3,6,36,4,,,,,,,,,,,,,,,AFSA07.jpg,AFSA18.jpg,AFNE15.jpg,AFNE02.jpg,AFNE15.jpg,FN,3,num_2,16,num_2,0.683434911434,,,2017_Nov_20_1530,60.0027713146,FEMA4ImagesEEG,001,202344,
AFNE01.JPG,AFNE01.JPG,AFNE01.JPG,AFNE01.JPG,AFNE01.JPG,AFNE01.JPG,,,,,,,,,3,7,37,0,,,,,,,,,,,,,,,AFSA04.jpg,AFNE11.jpg,AFNE04.jpg,AFSA09.jpg,AFSA04.jpg,FS,4,num_8,32,num_6,1.0667753331,,,2017_Nov_20_1530,60.0027713146,FEMA4ImagesEEG,001,202344,
AFNE01.JPG,AFNE01.JPG,AFNE01.JPG,AFNE01.JPG,AFNE01.JPG,AFNE01.JPG,,,,,,,,,3,8,38,7,,,,,,,,,,,,,,,AFNE15.jpg,AFSA13.jpg,AFSA14.jpg,AFNE14.jpg,AFSA13.jpg,FS,4,num_6,32,num_8,1.63330113112,,,2017_Nov_20_1530,60.0027713146,FEMA4ImagesEEG,001,202344,
AFNE01.JPG,AFNE01.JPG,AFNE01.JPG,AFNE01.JPG,AFNE01.JPG,AFNE01.JPG,,,,,,,,,3,9,39,6,,,,,,,,,,,,,,,AFSA20.jpg,AFSA15.jpg,AFNE10.jpg,AFNE05.jpg,AFNE10.jpg,FN,3,num_2,16,num_2,1.13344321858,,,2017_Nov_20_1530,60.0027713146,FEMA4ImagesEEG,001,202344,
AFNE01.JPG,AFNE01.JPG,AFNE01.JPG,AFNE01.JPG,AFNE01.JPG,AFNE01.JPG,,,,,,,,,4,0,40,8,,,,,,,,,,,,,,,AFSA05.jpg,AFNE07.jpg,AFNE19.jpg,AFSA11.jpg,AFSA11.jpg,FS,4,num_4,16,num_4,0.750124607175,,,2017_Nov_20_1530,60.0027713146,FEMA4ImagesEEG,001,202344,
AFNE01.JPG,AFNE01.JPG,AFNE01.JPG,AFNE01.JPG,AFNE01.JPG,AFNE01.JPG,,,,,,,,,4,1,41,0,,,,,,,,,,,,,,,AFSA19.jpg,AFSA09.jpg,AFNE08.jpg,AFNE03.jpg,AFSA19.jpg,FS,4,num_8,16,num_8,0.866824598644,,,2017_Nov_20_1530,60.0027713146,FEMA4ImagesEEG,001,202344,
AFNE01.JPG,AFNE01.JPG,AFNE01.JPG,AFNE01.JPG,AFNE01.JPG,AFNE01.JPG,,,,,,,,,4,2,42,6,,,,,,,,,,,,,,,AFSA18.jpg,AFNE11.jpg,AFSA16.jpg,AFNE16.jpg,AFSA16.jpg,FS,4,num_2,32,num_4,0.666775717991,,,2017_Nov_20_1530,60.0027713146,FEMA4ImagesEEG,001,202344,
AFNE01.JPG,AFNE01.JPG,AFNE01.JPG,AFNE01.JPG,AFNE01.JPG,AFNE01.JPG,,,,,,,,,4,3,43,1,,,,,,,,,,,,,,,AFSA16.jpg,AFSA17.jpg,AFNE20.jpg,AFNE05.jpg,AFNE05.jpg,FN,3,num_4,32,num_6,0.81678511565,,,2017_Nov_20_1530,60.0027713146,FEMA4ImagesEEG,001,202344,
AFNE01.JPG,AFNE01.JPG,AFNE01.JPG,AFNE01.JPG,AFNE01.JPG,AFNE01.JPG,,,,,,,,,4,4,44,2,,,,,,,,,,,,,,,AFNE14.jpg,AFSA09.jpg,AFSA17.jpg,AFNE18.jpg,AFSA17.jpg,FS,4,num_2,32,num_4,1.36674505532,,,2017_Nov_20_1530,60.0027713146,FEMA4ImagesEEG,001,202344,
AFNE01.JPG,AFNE01.JPG,AFNE01.JPG,AFNE01.JPG,AFNE01.JPG,AFNE01.JPG,,,,,,,,,4,5,45,7,,,,,,,,,,,,,,,AFSA04.jpg,AFNE18.jpg,AFNE04.jpg,AFSA16.jpg,AFSA16.jpg,FS,4,num_4,16,num_4,1.43340780897,,,2017_Nov_20_1530,60.0027713146,FEMA4ImagesEEG,001,202344,
AFNE01.JPG,AFNE01.JPG,AFNE01.JPG,AFNE01.JPG,AFNE01.JPG,AFNE01.JPG,,,,,,,,,4,6,46,5,,,,,,,,,,,,,,,AFNE09.jpg,AFSA13.jpg,AFNE12.jpg,AFSA06.jpg,AFSA06.jpg,FS,4,num_4,32,num_2,1.01673969898,,,2017_Nov_20_1530,60.0027713146,FEMA4ImagesEEG,001,202344,
AFNE01.JPG,AFNE01.JPG,AFNE01.JPG,AFNE01.JPG,AFNE01.JPG,AFNE01.JPG,,,,,,,,,4,7,47,4,,,,,,,,,,,,,,,AFNE10.jpg,AFSA01.jpg,AFSA19.jpg,AFNE16.jpg,AFSA19.jpg,FS,4,num_2,32,num_4,0.933465862766,,,2017_Nov_20_1530,60.0027713146,FEMA4ImagesEEG,001,202344,
AFNE01.JPG,AFNE01.JPG,AFNE01.JPG,AFNE01.JPG,AFNE01.JPG,AFNE01.JPG,,,,,,,,,4,8,48,3,,,,,,,,,,,,,,,AFNE03.jpg,AFSA20.jpg,AFNE10.jpg,AFSA13.jpg,AFNE03.jpg,FN,3,num_8,32,num_2,1.88341707834,,,2017_Nov_20_1530,60.0027713146,FEMA4ImagesEEG,001,202344,
AFNE01.JPG,AFNE01.JPG,AFNE01.JPG,AFNE01.JPG,AFNE01.JPG,AFNE01.JPG,,,,,,,,,4,9,49,9,,,,,,,,,,,,,,,AFNE04.jpg,AFNE18.jpg,AFSA06.jpg,AFSA02.jpg,AFSA06.jpg,FS,4,num_2,16,num_2,0.600129001302,,,2017_Nov_20_1530,60.0027713146,FEMA4ImagesEEG,001,202344,
AFNE01.JPG,AFNE01.JPG,AFNE01.JPG,AFNE01.JPG,AFNE01.JPG,AFNE01.JPG,,,,,,,,,5,0,50,1,,,,,,,,,,,,,,,AFSA08.jpg,AFNE01.jpg,AFNE17.jpg,AFSA01.jpg,AFSA08.jpg,FS,4,num_8,32,num_4,1.06678848341,,,2017_Nov_20_1530,60.0027713146,FEMA4ImagesEEG,001,202344,
AFNE01.JPG,AFNE01.JPG,AFNE01.JPG,AFNE01.JPG,AFNE01.JPG,AFNE01.JPG,,,,,,,,,5,1,51,8,,,,,,,,,,,,,,,AFNE04.jpg,AFNE03.jpg,AFSA02.jpg,AFSA04.jpg,AFSA04.jpg,FS,4,num_4,16,num_4,0.733458357468,,,2017_Nov_20_1530,60.0027713146,FEMA4ImagesEEG,001,202344,
AFNE01.JPG,AFNE01.JPG,AFNE01.JPG,AFNE01.JPG,AFNE01.JPG,AFNE01.JPG,,,,,,,,,5,2,52,6,,,,,,,,,,,,,,,AFSA13.jpg,AFNE18.jpg,AFNE15.jpg,AFSA12.jpg,AFNE15.jpg,FN,3,num_2,16,num_2,1.03349383122,,,2017_Nov_20_1530,60.0027713146,FEMA4ImagesEEG,001,202344,
AFNE01.JPG,AFNE01.JPG,AFNE01.JPG,AFNE01.JPG,AFNE01.JPG,AFNE01.JPG,,,,,,,,,5,3,53,3,,,,,,,,,,,,,,,AFSA14.jpg,AFNE15.jpg,AFSA13.jpg,AFNE19.jpg,AFNE19.jpg,FN,3,num_4,32,num_8,1.11673912165,,,2017_Nov_20_1530,60.0027713146,FEMA4ImagesEEG,001,202344,
AFNE01.JPG,AFNE01.JPG,AFNE01.JPG,AFNE01.JPG,AFNE01.JPG,AFNE01.JPG,,,,,,,,,5,4,54,0,,,,,,,,,,,,,,,AFNE12.jpg,AFSA03.jpg,AFNE04.jpg,AFSA12.jpg,AFNE12.jpg,FN,3,num_8,32,num_4,0.783358960394,,,2017_Nov_20_1530,60.0027713146,FEMA4ImagesEEG,001,202344,
AFNE01.JPG,AFNE01.JPG,AFNE01.JPG,AFNE01.JPG,AFNE01.JPG,AFNE01.JPG,,,,,,,,,5,5,55,4,,,,,,,,,,,,,,,AFSA02.jpg,AFSA03.jpg,AFNE18.jpg,AFNE10.jpg,AFNE10.jpg,FN,3,num_4,16,num_4,0.96678938148,,,2017_Nov_20_1530,60.0027713146,FEMA4ImagesEEG,001,202344,
AFNE01.JPG,AFNE01.JPG,AFNE01.JPG,AFNE01.JPG,AFNE01.JPG,AFNE01.JPG,,,,,,,,,5,6,56,5,,,,,,,,,,,,,,,AFSA19.jpg,AFNE20.jpg,AFSA20.jpg,AFNE15.jpg,AFNE20.jpg,FN,3,num_6,16,num_6,0.700131952102,,,2017_Nov_20_1530,60.0027713146,FEMA4ImagesEEG,001,202344,
AFNE01.JPG,AFNE01.JPG,AFNE01.JPG,AFNE01.JPG,AFNE01.JPG,AFNE01.JPG,,,,,,,,,5,7,57,7,,,,,,,,,,,,,,,AFNE14.jpg,AFSA11.jpg,AFNE18.jpg,AFSA10.jpg,AFSA11.jpg,FS,4,num_6,16,num_6,0.750142889308,,,2017_Nov_20_1530,60.0027713146,FEMA4ImagesEEG,001,202344,
AFNE01.JPG,AFNE01.JPG,AFNE01.JPG,AFNE01.JPG,AFNE01.JPG,AFNE01.JPG,,,,,,,,,5,8,58,2,,,,,,,,,,,,,,,AFNE03.jpg,AFSA06.jpg,AFSA10.jpg,AFNE13.jpg,AFNE03.jpg,FN,3,num_8,16,num_8,1.05013666697,,,2017_Nov_20_1530,60.0027713146,FEMA4ImagesEEG,001,202344,
AFNE01.JPG,AFNE01.JPG,AFNE01.JPG,AFNE01.JPG,AFNE01.JPG,AFNE01.JPG,,,,,,,,,5,9,59,9,,,,,,,,,,,,,,,AFSA06.jpg,AFNE20.jpg,AFNE01.jpg,AFSA17.jpg,AFSA17.jpg,FS,4,num_4,32,num_8,1.05043944476,,,2017_Nov_20_1530,60.0027713146,FEMA4ImagesEEG,001,202344,
,,,,,,,,,,,,,,,,,,,,,,,,,,,,,,,,,,,,,,,,,,,space,8.79923170135,2017_Nov_20_1530,60.0027713146,FEMA4ImagesEEG,001,202344,
AFNE01.JPG,AFNE01.JPG,AFNE01.JPG,AFNE01.JPG,AFNE01.JPG,AFNE01.JPG,,,,,,,,,,,,,0,0,0,4,,,,,,,,,,,AMNE13.jpg,AMNE09.jpg,AMSA09.jpg,AMSA06.jpg,AMNE13.jpg,MN,1,num_8,32,num_6,0.833517758367,,,2017_Nov_20_1530,60.0027713146,FEMA4ImagesEEG,001,202344,
AFNE01.JPG,AFNE01.JPG,AFNE01.JPG,AFNE01.JPG,AFNE01.JPG,AFNE01.JPG,,,,,,,,,,,,,0,1,1,1,,,,,,,,,,,AMSA06.jpg,AMNE14.jpg,AMSA15.jpg,AMNE02.jpg,AMSA15.jpg,MS,2,num_2,32,num_6,0.900128231528,,,2017_Nov_20_1530,60.0027713146,FEMA4ImagesEEG,001,202344,
AFNE01.JPG,AFNE01.JPG,AFNE01.JPG,AFNE01.JPG,AFNE01.JPG,AFNE01.JPG,,,,,,,,,,,,,0,2,2,8,,,,,,,,,,,AMNE20.jpg,AMSA01.jpg,AMSA14.jpg,AMNE14.jpg,AMSA14.jpg,MS,2,num_2,32,num_4,0.783473785024,,,2017_Nov_20_1530,60.0027713146,FEMA4ImagesEEG,001,202344,
AFNE01.JPG,AFNE01.JPG,AFNE01.JPG,AFNE01.JPG,AFNE01.JPG,AFNE01.JPG,,,,,,,,,,,,,0,3,3,6,,,,,,,,,,,AMSA06.jpg,AMNE16.jpg,AMSA04.jpg,AMNE06.jpg,AMNE16.jpg,MN,1,num_6,32,num_2,0.916812442628,,,2017_Nov_20_1530,60.0027713146,FEMA4ImagesEEG,001,202344,
AFNE01.JPG,AFNE01.JPG,AFNE01.JPG,AFNE01.JPG,AFNE01.JPG,AFNE01.JPG,,,,,,,,,,,,,0,4,4,0,,,,,,,,,,,AMSA10.jpg,AMSA09.jpg,AMNE03.jpg,AMNE10.jpg,AMSA10.jpg,MS,2,num_8,16,num_8,0.883417719814,,,2017_Nov_20_1530,60.0027713146,FEMA4ImagesEEG,001,202344,
AFNE01.JPG,AFNE01.JPG,AFNE01.JPG,AFNE01.JPG,AFNE01.JPG,AFNE01.JPG,,,,,,,,,,,,,0,5,5,9,,,,,,,,,,,AMSA17.jpg,AMSA02.jpg,AMNE04.jpg,AMNE19.jpg,AMNE04.jpg,MN,1,num_2,16,num_2,0.733515769783,,,2017_Nov_20_1530,60.0027713146,FEMA4ImagesEEG,001,202344,
AFNE01.JPG,AFNE01.JPG,AFNE01.JPG,AFNE01.JPG,AFNE01.JPG,AFNE01.JPG,,,,,,,,,,,,,0,6,6,2,,,,,,,,,,,AMNE20.jpg,AMSA06.jpg,AMSA13.jpg,AMNE10.jpg,AMSA13.jpg,MS,2,num_2,32,num_8,0.966852246361,,,2017_Nov_20_1530,60.0027713146,FEMA4ImagesEEG,001,202344,
AFNE01.JPG,AFNE01.JPG,AFNE01.JPG,AFNE01.JPG,AFNE01.JPG,AFNE01.JPG,,,,,,,,,,,,,0,7,7,7,,,,,,,,,,,AMNE03.jpg,AMSA04.jpg,AMSA17.jpg,AMNE12.jpg,AMSA04.jpg,MS,2,num_6,32,num_2,1.31671583598,,,2017_Nov_20_1530,60.0027713146,FEMA4ImagesEEG,001,202344,
AFNE01.JPG,AFNE01.JPG,AFNE01.JPG,AFNE01.JPG,AFNE01.JPG,AFNE01.JPG,,,,,,,,,,,,,0,8,8,5,,,,,,,,,,,AMSA04.jpg,AMNE13.jpg,AMNE11.jpg,AMSA20.jpg,AMSA20.jpg,MS,2,num_4,16,num_4,0.716811672854,,,2017_Nov_20_1530,60.0027713146,FEMA4ImagesEEG,001,202344,
AFNE01.JPG,AFNE01.JPG,AFNE01.JPG,AFNE01.JPG,AFNE01.JPG,AFNE01.JPG,,,,,,,,,,,,,0,9,9,3,,,,,,,,,,,AMSA14.jpg,AMNE02.jpg,AMNE06.jpg,AMSA05.jpg,AMNE06.jpg,MN,1,num_2,32,num_6,1.31648650746,,,2017_Nov_20_1530,60.0027713146,FEMA4ImagesEEG,001,202344,
AFNE01.JPG,AFNE01.JPG,AFNE01.JPG,AFNE01.JPG,AFNE01.JPG,AFNE01.JPG,,,,,,,,,,,,,1,0,10,2,,,,,,,,,,,AMNE15.jpg,AMSA01.jpg,AMNE08.jpg,AMSA14.jpg,AMSA14.jpg,MS,2,num_4,16,num_4,0.600114888778,,,2017_Nov_20_1530,60.0027713146,FEMA4ImagesEEG,001,202344,
AFNE01.JPG,AFNE01.JPG,AFNE01.JPG,AFNE01.JPG,AFNE01.JPG,AFNE01.JPG,,,,,,,,,,,,,1,1,11,0,,,,,,,,,,,AMSA04.jpg,AMNE15.jpg,AMNE02.jpg,AMSA06.jpg,AMSA06.jpg,MS,2,num_4,32,num_2,1.2168103899,,,2017_Nov_20_1530,60.0027713146,FEMA4ImagesEEG,001,202344,
AFNE01.JPG,AFNE01.JPG,AFNE01.JPG,AFNE01.JPG,AFNE01.JPG,AFNE01.JPG,,,,,,,,,,,,,1,2,12,5,,,,,,,,,,,AMSA11.jpg,AMNE07.jpg,AMSA05.jpg,AMNE19.jpg,AMNE19.jpg,MN,1,num_4,16,num_4,0.733463810035,,,2017_Nov_20_1530,60.0027713146,FEMA4ImagesEEG,001,202344,
AFNE01.JPG,AFNE01.JPG,AFNE01.JPG,AFNE01.JPG,AFNE01.JPG,AFNE01.JPG,,,,,,,,,,,,,1,3,13,8,,,,,,,,,,,AMNE17.jpg,AMSA20.jpg,AMSA03.jpg,AMNE07.jpg,AMNE07.jpg,MN,1,num_4,16,num_4,0.966768212694,,,2017_Nov_20_1530,60.0027713146,FEMA4ImagesEEG,001,202344,
AFNE01.JPG,AFNE01.JPG,AFNE01.JPG,AFNE01.JPG,AFNE01.JPG,AFNE01.JPG,,,,,,,,,,,,,1,4,14,6,,,,,,,,,,,AMNE12.jpg,AMNE09.jpg,AMSA15.jpg,AMSA17.jpg,AMNE12.jpg,MN,1,num_8,16,num_8,1.16675358699,,,2017_Nov_20_1530,60.0027713146,FEMA4ImagesEEG,001,202344,
AFNE01.JPG,AFNE01.JPG,AFNE01.JPG,AFNE01.JPG,AFNE01.JPG,AFNE01.JPG,,,,,,,,,,,,,1,5,15,4,,,,,,,,,,,AMNE03.jpg,AMSA14.jpg,AMSA12.jpg,AMNE12.jpg,AMSA14.jpg,MS,2,num_6,16,num_6,0.550192154848,,,2017_Nov_20_1530,60.0027713146,FEMA4ImagesEEG,001,202344,
AFNE01.JPG,AFNE01.JPG,AFNE01.JPG,AFNE01.JPG,AFNE01.JPG,AFNE01.JPG,,,,,,,,,,,,,1,6,16,9,,,,,,,,,,,AMSA19.jpg,AMNE03.jpg,AMNE10.jpg,AMSA16.jpg,AMSA16.jpg,MS,2,num_4,16,num_4,1.16674524777,,,2017_Nov_20_1530,60.0027713146,FEMA4ImagesEEG,001,202344,
AFNE01.JPG,AFNE01.JPG,AFNE01.JPG,AFNE01.JPG,AFNE01.JPG,AFNE01.JPG,,,,,,,,,,,,,1,7,17,7,,,,,,,,,,,AMSA08.jpg,AMNE15.jpg,AMNE13.jpg,AMSA11.jpg,AMNE15.jpg,MN,1,num_6,32,num_2,1.10013220869,,,2017_Nov_20_1530,60.0027713146,FEMA4ImagesEEG,001,202344,
AFNE01.JPG,AFNE01.JPG,AFNE01.JPG,AFNE01.JPG,AFNE01.JPG,AFNE01.JPG,,,,,,,,,,,,,1,8,18,3,,,,,,,,,,,AMNE17.jpg,AMSA08.jpg,AMSA19.jpg,AMNE05.jpg,AMNE17.jpg,MN,1,num_8,32,num_2,1.08345922347,,,2017_Nov_20_1530,60.0027713146,FEMA4ImagesEEG,001,202344,
AFNE01.JPG,AFNE01.JPG,AFNE01.JPG,AFNE01.JPG,AFNE01.JPG,AFNE01.JPG,,,,,,,,,,,,,1,9,19,1,,,,,,,,,,,AMNE15.jpg,AMSA07.jpg,AMNE09.jpg,AMSA11.jpg,AMNE15.jpg,MN,1,num_8,16,num_8,1.41660556585,,,2017_Nov_20_1530,60.0027713146,FEMA4ImagesEEG,001,202344,
AFNE01.JPG,AFNE01.JPG,AFNE01.JPG,AFNE01.JPG,AFNE01.JPG,AFNE01.JPG,,,,,,,,,,,,,2,0,20,3,,,,,,,,,,,AMSA14.jpg,AMNE12.jpg,AMNE07.jpg,AMSA03.jpg,AMSA03.jpg,MS,2,num_4,16,num_4,0.733508392783,,,2017_Nov_20_1530,60.0027713146,FEMA4ImagesEEG,001,202344,
AFNE01.JPG,AFNE01.JPG,AFNE01.JPG,AFNE01.JPG,AFNE01.JPG,AFNE01.JPG,,,,,,,,,,,,,2,1,21,1,,,,,,,,,,,AMSA10.jpg,AMNE07.jpg,AMSA15.jpg,AMNE12.jpg,AMSA15.jpg,MS,2,num_2,32,num_6,0.650223972175,,,2017_Nov_20_1530,60.0027713146,FEMA4ImagesEEG,001,202344,
AFNE01.JPG,AFNE01.JPG,AFNE01.JPG,AFNE01.JPG,AFNE01.JPG,AFNE01.JPG,,,,,,,,,,,,,2,2,22,7,,,,,,,,,,,AMNE02.jpg,AMSA01.jpg,AMNE06.jpg,AMSA14.jpg,AMNE02.jpg,MN,1,num_8,32,num_2,1.05011421522,,,2017_Nov_20_1530,60.0027713146,FEMA4ImagesEEG,001,202344,
AFNE01.JPG,AFNE01.JPG,AFNE01.JPG,AFNE01.JPG,AFNE01.JPG,AFNE01.JPG,,,,,,,,,,,,,2,3,23,5,,,,,,,,,,,AMSA12.jpg,AMNE16.jpg,AMNE04.jpg,AMSA20.jpg,AMSA20.jpg,MS,2,num_4,32,num_2,0.883472886954,,,2017_Nov_20_1530,60.0027713146,FEMA4ImagesEEG,001,202344,
AFNE01.JPG,AFNE01.JPG,AFNE01.JPG,AFNE01.JPG,AFNE01.JPG,AFNE01.JPG,,,,,,,,,,,,,2,4,24,0,,,,,,,,,,,AMSA13.jpg,AMSA17.jpg,AMNE13.jpg,AMNE12.jpg,AMSA17.jpg,MS,2,num_6,16,num_6,1.25013583305,,,2017_Nov_20_1530,60.0027713146,FEMA4ImagesEEG,001,202344,
AFNE01.JPG,AFNE01.JPG,AFNE01.JPG,AFNE01.JPG,AFNE01.JPG,AFNE01.JPG,,,,,,,,,,,,,2,5,25,2,,,,,,,,,,,AMNE12.jpg,AMSA15.jpg,AMSA19.jpg,AMNE19.jpg,AMNE12.jpg,MN,1,num_8,16,num_8,1.08341079185,,,2017_Nov_20_1530,60.0027713146,FEMA4ImagesEEG,001,202344,
AFNE01.JPG,AFNE01.JPG,AFNE01.JPG,AFNE01.JPG,AFNE01.JPG,AFNE01.JPG,,,,,,,,,,,,,2,6,26,9,,,,,,,,,,,AMSA13.jpg,AMSA16.jpg,AMNE10.jpg,AMNE14.jpg,AMNE14.jpg,MN,1,num_4,16,num_4,1.13347753767,,,2017_Nov_20_1530,60.0027713146,FEMA4ImagesEEG,001,202344,
AFNE01.JPG,AFNE01.JPG,AFNE01.JPG,AFNE01.JPG,AFNE01.JPG,AFNE01.JPG,,,,,,,,,,,,,2,7,27,8,,,,,,,,,,,AMNE20.jpg,AMNE06.jpg,AMSA19.jpg,AMSA15.jpg,AMNE06.jpg,MN,1,num_6,16,num_6,0.7001409328,,,2017_Nov_20_1530,60.0027713146,FEMA4ImagesEEG,001,202344,
AFNE01.JPG,AFNE01.JPG,AFNE01.JPG,AFNE01.JPG,AFNE01.JPG,AFNE01.JPG,,,,,,,,,,,,,2,8,28,6,,,,,,,,,,,AMSA15.jpg,AMSA07.jpg,AMNE17.jpg,AMNE14.jpg,AMSA15.jpg,MS,2,num_8,32,num_2,0.800169221996,,,2017_Nov_20_1530,60.0027713146,FEMA4ImagesEEG,001,202344,
AFNE01.JPG,AFNE01.JPG,AFNE01.JPG,AFNE01.JPG,AFNE01.JPG,AFNE01.JPG,,,,,,,,,,,,,2,9,29,4,,,,,,,,,,,AMSA11.jpg,AMNE13.jpg,AMSA02.jpg,AMNE14.jpg,AMNE14.jpg,MN,1,num_4,16,num_4,1.31671391155,,,2017_Nov_20_1530,60.0027713146,FEMA4ImagesEEG,001,202344,
AFNE01.JPG,AFNE01.JPG,AFNE01.JPG,AFNE01.JPG,AFNE01.JPG,AFNE01.JPG,,,,,,,,,,,,,3,0,30,2,,,,,,,,,,,AMSA20.jpg,AMSA07.jpg,AMNE16.jpg,AMNE06.jpg,AMSA07.jpg,MS,2,num_6,16,num_6,0.483508873892,,,2017_Nov_20_1530,60.0027713146,FEMA4ImagesEEG,001,202344,
AFNE01.JPG,AFNE01.JPG,AFNE01.JPG,AFNE01.JPG,AFNE01.JPG,AFNE01.JPG,,,,,,,,,,,,,3,1,31,1,,,,,,,,,,,AMSA08.jpg,AMNE18.jpg,AMNE01.jpg,AMSA01.jpg,AMSA08.jpg,MS,2,num_8,32,num_6,1.03345919139,,,2017_Nov_20_1530,60.0027713146,FEMA4ImagesEEG,001,202344,
AFNE01.JPG,AFNE01.JPG,AFNE01.JPG,AFNE01.JPG,AFNE01.JPG,AFNE01.JPG,,,,,,,,,,,,,3,2,32,6,,,,,,,,,,,AMSA13.jpg,AMSA02.jpg,AMNE10.jpg,AMNE16.jpg,AMNE10.jpg,MN,1,num_2,32,num_4,1.65011524159,,,2017_Nov_20_1530,60.0027713146,FEMA4ImagesEEG,001,202344,
AFNE01.JPG,AFNE01.JPG,AFNE01.JPG,AFNE01.JPG,AFNE01.JPG,AFNE01.JPG,,,,,,,,,,,,,3,3,33,9,,,,,,,,,,,AMNE01.jpg,AMNE08.jpg,AMSA08.jpg,AMSA06.jpg,AMSA06.jpg,MS,2,num_4,16,num_4,0.516770169203,,,2017_Nov_20_1530,60.0027713146,FEMA4ImagesEEG,001,202344,
AFNE01.JPG,AFNE01.JPG,AFNE01.JPG,AFNE01.JPG,AFNE01.JPG,AFNE01.JPG,,,,,,,,,,,,,3,4,34,7,,,,,,,,,,,AMNE20.jpg,AMNE02.jpg,AMSA07.jpg,AMSA19.jpg,AMSA19.jpg,MS,2,num_4,32,num_2,0.766790536141,,,2017_Nov_20_1530,60.0027713146,FEMA4ImagesEEG,001,202344,
AFNE01.JPG,AFNE01.JPG,AFNE01.JPG,AFNE01.JPG,AFNE01.JPG,AFNE01.JPG,,,,,,,,,,,,,3,5,35,5,,,,,,,,,,,AMSA14.jpg,AMNE04.jpg,AMNE11.jpg,AMSA20.jpg,AMNE11.jpg,MN,1,num_2,32,num_4,0.783520933685,,,2017_Nov_20_1530,60.0027713146,FEMA4ImagesEEG,001,202344,
AFNE01.JPG,AFNE01.JPG,AFNE01.JPG,AFNE01.JPG,AFNE01.JPG,AFNE01.JPG,,,,,,,,,,,,,3,6,36,4,,,,,,,,,,,AMNE07.jpg,AMNE17.jpg,AMSA08.jpg,AMSA09.jpg,AMNE17.jpg,MN,1,num_6,32,num_4,0.950143979822,,,2017_Nov_20_1530,60.0027713146,FEMA4ImagesEEG,001,202344,
AFNE01.JPG,AFNE01.JPG,AFNE01.JPG,AFNE01.JPG,AFNE01.JPG,AFNE01.JPG,,,,,,,,,,,,,3,7,37,8,,,,,,,,,,,AMSA08.jpg,AMNE07.jpg,AMNE05.jpg,AMSA19.jpg,AMSA08.jpg,MS,2,num_8,16,num_8,1.23342467985,,,2017_Nov_20_1530,60.0027713146,FEMA4ImagesEEG,001,202344,
AFNE01.JPG,AFNE01.JPG,AFNE01.JPG,AFNE01.JPG,AFNE01.JPG,AFNE01.JPG,,,,,,,,,,,,,3,8,38,3,,,,,,,,,,,AMSA17.jpg,AMNE20.jpg,AMNE12.jpg,AMSA03.jpg,AMSA03.jpg,MS,2,num_4,16,num_4,0.616802948748,,,2017_Nov_20_1530,60.0027713146,FEMA4ImagesEEG,001,202344,
AFNE01.JPG,AFNE01.JPG,AFNE01.JPG,AFNE01.JPG,AFNE01.JPG,AFNE01.JPG,,,,,,,,,,,,,3,9,39,0,,,,,,,,,,,AMSA04.jpg,AMSA05.jpg,AMNE08.jpg,AMNE03.jpg,AMNE08.jpg,MN,1,num_2,32,num_6,1.28343657928,,,2017_Nov_20_1530,60.0027713146,FEMA4ImagesEEG,001,202344,
AFNE01.JPG,AFNE01.JPG,AFNE01.JPG,AFNE01.JPG,AFNE01.JPG,AFNE01.JPG,,,,,,,,,,,,,4,0,40,9,,,,,,,,,,,AMNE11.jpg,AMSA10.jpg,AMSA16.jpg,AMNE18.jpg,AMNE18.jpg,MN,1,num_4,16,num_4,0.733485299561,,,2017_Nov_20_1530,60.0027713146,FEMA4ImagesEEG,001,202344,
AFNE01.JPG,AFNE01.JPG,AFNE01.JPG,AFNE01.JPG,AFNE01.JPG,AFNE01.JPG,,,,,,,,,,,,,4,1,41,7,,,,,,,,,,,AMNE17.jpg,AMSA14.jpg,AMSA18.jpg,AMNE19.jpg,AMNE17.jpg,MN,1,num_8,32,num_4,0.749817018293,,,2017_Nov_20_1530,60.0027713146,FEMA4ImagesEEG,001,202344,
AFNE01.JPG,AFNE01.JPG,AFNE01.JPG,AFNE01.JPG,AFNE01.JPG,AFNE01.JPG,,,,,,,,,,,,,4,2,42,1,,,,,,,,,,,AMNE19.jpg,AMSA09.jpg,AMSA20.jpg,AMNE17.jpg,AMNE17.jpg,MN,1,num_4,16,num_4,0.466784570393,,,2017_Nov_20_1530,60.0027713146,FEMA4ImagesEEG,001,202344,
AFNE01.JPG,AFNE01.JPG,AFNE01.JPG,AFNE01.JPG,AFNE01.JPG,AFNE01.JPG,,,,,,,,,,,,,4,3,43,2,,,,,,,,,,,AMNE06.jpg,AMSA06.jpg,AMNE05.jpg,AMSA20.jpg,AMNE06.jpg,MN,1,num_8,16,num_8,0.566864819337,,,2017_Nov_20_1530,60.0027713146,FEMA4ImagesEEG,001,202344,
AFNE01.JPG,AFNE01.JPG,AFNE01.JPG,AFNE01.JPG,AFNE01.JPG,AFNE01.JPG,,,,,,,,,,,,,4,4,44,0,,,,,,,,,,,AMSA10.jpg,AMNE04.jpg,AMSA08.jpg,AMNE20.jpg,AMNE20.jpg,MN,1,num_4,16,num_4,0.64996128678,,,2017_Nov_20_1530,60.0027713146,FEMA4ImagesEEG,001,202344,
AFNE01.JPG,AFNE01.JPG,AFNE01.JPG,AFNE01.JPG,AFNE01.JPG,AFNE01.JPG,,,,,,,,,,,,,4,5,45,3,,,,,,,,,,,AMNE15.jpg,AMNE10.jpg,AMSA20.jpg,AMSA11.jpg,AMSA20.jpg,MS,2,num_2,32,num_6,0.750166303269,,,2017_Nov_20_1530,60.0027713146,FEMA4ImagesEEG,001,202344,
AFNE01.JPG,AFNE01.JPG,AFNE01.JPG,AFNE01.JPG,AFNE01.JPG,AFNE01.JPG,,,,,,,,,,,,,4,6,46,4,,,,,,,,,,,AMSA16.jpg,AMSA07.jpg,AMNE01.jpg,AMNE13.jpg,AMSA07.jpg,MS,2,num_6,32,num_2,0.950440022093,,,2017_Nov_20_1530,60.0027713146,FEMA4ImagesEEG,001,202344,
AFNE01.JPG,AFNE01.JPG,AFNE01.JPG,AFNE01.JPG,AFNE01.JPG,AFNE01.JPG,,,,,,,,,,,,,4,7,47,5,,,,,,,,,,,AMNE06.jpg,AMSA06.jpg,AMSA08.jpg,AMNE19.jpg,AMSA06.jpg,MS,2,num_6,32,num_4,0.783434334104,,,2017_Nov_20_1530,60.0027713146,FEMA4ImagesEEG,001,202344,
AFNE01.JPG,AFNE01.JPG,AFNE01.JPG,AFNE01.JPG,AFNE01.JPG,AFNE01.JPG,,,,,,,,,,,,,4,8,48,6,,,,,,,,,,,AMNE20.jpg,AMSA19.jpg,AMSA09.jpg,AMNE06.jpg,AMNE06.jpg,MN,1,num_4,16,num_4,1.100152736,,,2017_Nov_20_1530,60.0027713146,FEMA4ImagesEEG,001,202344,
AFNE01.JPG,AFNE01.JPG,AFNE01.JPG,AFNE01.JPG,AFNE01.JPG,AFNE01.JPG,,,,,,,,,,,,,4,9,49,8,,,,,,,,,,,AMSA13.jpg,AMNE13.jpg,AMNE04.jpg,AMSA10.jpg,AMNE13.jpg,MN,1,num_6,32,num_4,0.650136410377,,,2017_Nov_20_1530,60.0027713146,FEMA4ImagesEEG,001,202344,
AFNE01.JPG,AFNE01.JPG,AFNE01.JPG,AFNE01.JPG,AFNE01.JPG,AFNE01.JPG,,,,,,,,,,,,,5,0,50,4,,,,,,,,,,,AMNE10.jpg,AMNE09.jpg,AMSA16.jpg,AMSA07.jpg,AMNE09.jpg,MN,1,num_6,32,num_8,1.15010594015,,,2017_Nov_20_1530,60.0027713146,FEMA4ImagesEEG,001,202344,
AFNE01.JPG,AFNE01.JPG,AFNE01.JPG,AFNE01.JPG,AFNE01.JPG,AFNE01.JPG,,,,,,,,,,,,,5,1,51,8,,,,,,,,,,,AMSA15.jpg,AMSA02.jpg,AMNE05.jpg,AMNE01.jpg,AMSA15.jpg,MS,2,num_8,32,num_4,1.08347943003,,,2017_Nov_20_1530,60.0027713146,FEMA4ImagesEEG,001,202344,
AFNE01.JPG,AFNE01.JPG,AFNE01.JPG,AFNE01.JPG,AFNE01.JPG,AFNE01.JPG,,,,,,,,,,,,,5,2,52,6,,,,,,,,,,,AMSA07.jpg,AMNE04.jpg,AMSA20.jpg,AMNE05.jpg,AMNE05.jpg,MN,1,num_4,16,num_4,0.733470224819,,,2017_Nov_20_1530,60.0027713146,FEMA4ImagesEEG,001,202344,
AFNE01.JPG,AFNE01.JPG,AFNE01.JPG,AFNE01.JPG,AFNE01.JPG,AFNE01.JPG,,,,,,,,,,,,,5,3,53,1,,,,,,,,,,,AMNE15.jpg,AMNE19.jpg,AMSA04.jpg,AMSA18.jpg,AMSA04.jpg,MS,2,num_2,16,num_2,1.33343789431,,,2017_Nov_20_1530,60.0027713146,FEMA4ImagesEEG,001,202344,
AFNE01.JPG,AFNE01.JPG,AFNE01.JPG,AFNE01.JPG,AFNE01.JPG,AFNE01.JPG,,,,,,,,,,,,,5,4,54,0,,,,,,,,,,,AMNE09.jpg,AMSA03.jpg,AMSA07.jpg,AMNE14.jpg,AMNE14.jpg,MN,1,num_4,16,num_4,1.01648823946,,,2017_Nov_20_1530,60.0027713146,FEMA4ImagesEEG,001,202344,
AFNE01.JPG,AFNE01.JPG,AFNE01.JPG,AFNE01.JPG,AFNE01.JPG,AFNE01.JPG,,,,,,,,,,,,,5,5,55,7,,,,,,,,,,,AMNE02.jpg,AMSA02.jpg,AMSA07.jpg,AMNE11.jpg,AMNE02.jpg,MN,1,num_8,32,num_6,0.916747011834,,,2017_Nov_20_1530,60.0027713146,FEMA4ImagesEEG,001,202344,
AFNE01.JPG,AFNE01.JPG,AFNE01.JPG,AFNE01.JPG,AFNE01.JPG,AFNE01.JPG,,,,,,,,,,,,,5,6,56,2,,,,,,,,,,,AMNE08.jpg,AMSA16.jpg,AMNE05.jpg,AMSA07.jpg,AMNE08.jpg,MN,1,num_8,32,num_4,0.800131054032,,,2017_Nov_20_1530,60.0027713146,FEMA4ImagesEEG,001,202344,
AFNE01.JPG,AFNE01.JPG,AFNE01.JPG,AFNE01.JPG,AFNE01.JPG,AFNE01.JPG,,,,,,,,,,,,,5,7,57,3,,,,,,,,,,,AMSA09.jpg,AMSA16.jpg,AMNE07.jpg,AMNE02.jpg,AMNE02.jpg,MN,1,num_4,16,num_4,0.550145006187,,,2017_Nov_20_1530,60.0027713146,FEMA4ImagesEEG,001,202344,
AFNE01.JPG,AFNE01.JPG,AFNE01.JPG,AFNE01.JPG,AFNE01.JPG,AFNE01.JPG,,,,,,,,,,,,,5,8,58,5,,,,,,,,,,,AMNE12.jpg,AMSA08.jpg,AMSA17.jpg,AMNE14.jpg,AMNE12.jpg,MN,1,num_8,16,num_8,0.800134261424,,,2017_Nov_20_1530,60.0027713146,FEMA4ImagesEEG,001,202344,
AFNE01.JPG,AFNE01.JPG,AFNE01.JPG,AFNE01.JPG,AFNE01.JPG,AFNE01.JPG,,,,,,,,,,,,,5,9,59,9,,,,,,,,,,,AMSA10.jpg,AMNE17.jpg,AMSA05.jpg,AMNE16.jpg,AMSA05.jpg,MS,2,num_2,16,num_2,0.983470705928,,,2017_Nov_20_1530,60.0027713146,FEMA4ImagesEEG,001,202344,
,,,,,,,,,,,,,,,,,,,,,,,,,,,,,,,,,,,,,,,,,,,space,20.9152042563,2017_Nov_20_1530,60.0027713146,FEMA4ImagesEEG,001,202344,
AFNE01.JPG,AFNE01.JPG,AFNE01.JPG,AFNE01.JPG,AFNE01.JPG,AFNE01.JPG,,,,,,,,,,,,,,,,,0,0,0,1,,,,,,,AFSA03.jpg,AFNE14.jpg,AFNE10.jpg,AFSA04.jpg,AFSA03.jpg,FS,4,num_8,16,num_8,1.01675477372,,,2017_Nov_20_1530,60.0027713146,FEMA4ImagesEEG,001,202344,
AFNE01.JPG,AFNE01.JPG,AFNE01.JPG,AFNE01.JPG,AFNE01.JPG,AFNE01.JPG,,,,,,,,,,,,,,,,,0,1,1,3,,,,,,,AFNE02.jpg,AFSA05.jpg,AFNE17.jpg,AFSA18.jpg,AFSA18.jpg,FS,4,num_4,32,num_8,1.16665479932,,,2017_Nov_20_1530,60.0027713146,FEMA4ImagesEEG,001,202344,
AFNE01.JPG,AFNE01.JPG,AFNE01.JPG,AFNE01.JPG,AFNE01.JPG,AFNE01.JPG,,,,,,,,,,,,,,,,,0,2,2,7,,,,,,,AFNE14.jpg,AFNE15.jpg,AFSA16.jpg,AFSA04.jpg,AFNE14.jpg,FN,3,num_8,32,num_6,0.683545887194,,,2017_Nov_20_1530,60.0027713146,FEMA4ImagesEEG,001,202344,
AFNE01.JPG,AFNE01.JPG,AFNE01.JPG,AFNE01.JPG,AFNE01.JPG,AFNE01.JPG,,,,,,,,,,,,,,,,,0,3,3,9,,,,,,,AFNE05.jpg,AFSA09.jpg,AFNE15.jpg,AFSA01.jpg,AFSA01.jpg,FS,4,num_4,16,num_4,0.950102925206,,,2017_Nov_20_1530,60.0027713146,FEMA4ImagesEEG,001,202344,
AFNE01.JPG,AFNE01.JPG,AFNE01.JPG,AFNE01.JPG,AFNE01.JPG,AFNE01.JPG,,,,,,,,,,,,,,,,,0,4,4,4,,,,,,,AFSA04.jpg,AFNE05.jpg,AFNE16.jpg,AFSA17.jpg,AFSA04.jpg,FS,4,num_8,32,num_2,1.2834612762,,,2017_Nov_20_1530,60.0027713146,FEMA4ImagesEEG,001,202344,
AFNE01.JPG,AFNE01.JPG,AFNE01.JPG,AFNE01.JPG,AFNE01.JPG,AFNE01.JPG,,,,,,,,,,,,,,,,,0,5,5,6,,,,,,,AFNE01.jpg,AFSA05.jpg,AFSA18.jpg,AFNE04.jpg,AFSA05.jpg,FS,4,num_6,32,num_2,1.23342083098,,,2017_Nov_20_1530,60.0027713146,FEMA4ImagesEEG,001,202344,
AFNE01.JPG,AFNE01.JPG,AFNE01.JPG,AFNE01.JPG,AFNE01.JPG,AFNE01.JPG,,,,,,,,,,,,,,,,,0,6,6,8,,,,,,,AFSA11.jpg,AFNE05.jpg,AFSA09.jpg,AFNE01.jpg,AFSA11.jpg,FS,4,num_8,16,num_8,0.833450723876,,,2017_Nov_20_1530,60.0027713146,FEMA4ImagesEEG,001,202344,
AFNE01.JPG,AFNE01.JPG,AFNE01.JPG,AFNE01.JPG,AFNE01.JPG,AFNE01.JPG,,,,,,,,,,,,,,,,,0,7,7,5,,,,,,,AFSA02.jpg,AFNE17.jpg,AFNE16.jpg,AFSA12.jpg,AFSA12.jpg,FS,4,num_4,16,num_4,1.16672921081,,,2017_Nov_20_1530,60.0027713146,FEMA4ImagesEEG,001,202344,
AFNE01.JPG,AFNE01.JPG,AFNE01.JPG,AFNE01.JPG,AFNE01.JPG,AFNE01.JPG,,,,,,,,,,,,,,,,,0,8,8,2,,,,,,,AFSA08.jpg,AFNE15.jpg,AFSA06.jpg,AFNE10.jpg,AFNE10.jpg,FN,3,num_4,32,num_8,1.03349190679,,,2017_Nov_20_1530,60.0027713146,FEMA4ImagesEEG,001,202344,
AFNE01.JPG,AFNE01.JPG,AFNE01.JPG,AFNE01.JPG,AFNE01.JPG,AFNE01.JPG,,,,,,,,,,,,,,,,,0,9,9,0,,,,,,,AFSA18.jpg,AFSA15.jpg,AFNE08.jpg,AFNE17.jpg,AFNE17.jpg,FN,3,num_4,16,num_4,0.983479365886,,,2017_Nov_20_1530,60.0027713146,FEMA4ImagesEEG,001,202344,
AFNE01.JPG,AFNE01.JPG,AFNE01.JPG,AFNE01.JPG,AFNE01.JPG,AFNE01.JPG,,,,,,,,,,,,,,,,,1,0,10,8,,,,,,,AFSA11.jpg,AFNE11.jpg,AFSA18.jpg,AFNE15.jpg,AFSA18.jpg,FS,4,num_2,16,num_2,1.56671920375,,,2017_Nov_20_1530,60.0027713146,FEMA4ImagesEEG,001,202344,
AFNE01.JPG,AFNE01.JPG,AFNE01.JPG,AFNE01.JPG,AFNE01.JPG,AFNE01.JPG,,,,,,,,,,,,,,,,,1,1,11,3,,,,,,,AFSA03.jpg,AFSA19.jpg,AFNE03.jpg,AFNE19.jpg,AFNE03.jpg,FN,3,num_2,16,num_2,1.31678704008,,,2017_Nov_20_1530,60.0027713146,FEMA4ImagesEEG,001,202344,
AFNE01.JPG,AFNE01.JPG,AFNE01.JPG,AFNE01.JPG,AFNE01.JPG,AFNE01.JPG,,,,,,,,,,,,,,,,,1,2,12,6,,,,,,,AFNE03.jpg,AFNE19.jpg,AFSA18.jpg,AFSA19.jpg,AFSA18.jpg,FS,4,num_2,32,num_4,0.683435552913,,,2017_Nov_20_1530,60.0027713146,FEMA4ImagesEEG,001,202344,
AFNE01.JPG,AFNE01.JPG,AFNE01.JPG,AFNE01.JPG,AFNE01.JPG,AFNE01.JPG,,,,,,,,,,,,,,,,,1,3,13,7,,,,,,,AFSA19.jpg,AFSA17.jpg,AFNE05.jpg,AFNE19.jpg,AFSA17.jpg,FS,4,num_6,32,num_8,1.10014567974,,,2017_Nov_20_1530,60.0027713146,FEMA4ImagesEEG,001,202344,
AFNE01.JPG,AFNE01.JPG,AFNE01.JPG,AFNE01.JPG,AFNE01.JPG,AFNE01.JPG,,,,,,,,,,,,,,,,,1,4,14,2,,,,,,,AFNE15.jpg,AFSA16.jpg,AFNE19.jpg,AFSA05.jpg,AFNE15.jpg,FN,3,num_8,32,num_4,0.900407595361,,,2017_Nov_20_1530,60.0027713146,FEMA4ImagesEEG,001,202344,
AFNE01.JPG,AFNE01.JPG,AFNE01.JPG,AFNE01.JPG,AFNE01.JPG,AFNE01.JPG,,,,,,,,,,,,,,,,,1,5,15,1,,,,,,,AFSA01.jpg,AFNE16.jpg,AFNE02.jpg,AFSA17.jpg,AFSA17.jpg,FS,4,num_4,16,num_4,0.866795732116,,,2017_Nov_20_1530,60.0027713146,FEMA4ImagesEEG,001,202344,
AFNE01.JPG,AFNE01.JPG,AFNE01.JPG,AFNE01.JPG,AFNE01.JPG,AFNE01.JPG,,,,,,,,,,,,,,,,,1,6,16,4,,,,,,,AFSA02.jpg,AFNE13.jpg,AFSA07.jpg,AFNE15.jpg,AFSA02.jpg,FS,4,num_8,16,num_8,0.733407039199,,,2017_Nov_20_1530,60.0027713146,FEMA4ImagesEEG,001,202344,
AFNE01.JPG,AFNE01.JPG,AFNE01.JPG,AFNE01.JPG,AFNE01.JPG,AFNE01.JPG,,,,,,,,,,,,,,,,,1,7,17,9,,,,,,,AFNE07.jpg,AFNE02.jpg,AFSA12.jpg,AFSA15.jpg,AFNE07.jpg,FN,3,num_8,32,num_2,1.03346207804,,,2017_Nov_20_1530,60.0027713146,FEMA4ImagesEEG,001,202344,
AFNE01.JPG,AFNE01.JPG,AFNE01.JPG,AFNE01.JPG,AFNE01.JPG,AFNE01.JPG,,,,,,,,,,,,,,,,,1,8,18,0,,,,,,,AFSA08.jpg,AFNE13.jpg,AFSA04.jpg,AFNE19.jpg,AFSA04.jpg,FS,4,num_2,16,num_2,0.800181410085,,,2017_Nov_20_1530,60.0027713146,FEMA4ImagesEEG,001,202344,
AFNE01.JPG,AFNE01.JPG,AFNE01.JPG,AFNE01.JPG,AFNE01.JPG,AFNE01.JPG,,,,,,,,,,,,,,,,,1,9,19,5,,,,,,,AFNE04.jpg,AFNE16.jpg,AFSA07.jpg,AFSA12.jpg,AFSA07.jpg,FS,4,num_2,16,num_2,0.883464868474,,,2017_Nov_20_1530,60.0027713146,FEMA4ImagesEEG,001,202344,
AFNE01.JPG,AFNE01.JPG,AFNE01.JPG,AFNE01.JPG,AFNE01.JPG,AFNE01.JPG,,,,,,,,,,,,,,,,,2,0,20,0,,,,,,,AFSA12.jpg,AFNE11.jpg,AFNE20.jpg,AFSA06.jpg,AFSA06.jpg,FS,4,num_4,32,num_8,1.58337230314,,,2017_Nov_20_1530,60.0027713146,FEMA4ImagesEEG,001,202344,
AFNE01.JPG,AFNE01.JPG,AFNE01.JPG,AFNE01.JPG,AFNE01.JPG,AFNE01.JPG,,,,,,,,,,,,,,,,,2,1,21,8,,,,,,,AFNE08.jpg,AFNE12.jpg,AFSA13.jpg,AFSA08.jpg,AFNE12.jpg,FN,3,num_6,16,num_6,0.866820108295,,,2017_Nov_20_1530,60.0027713146,FEMA4ImagesEEG,001,202344,
AFNE01.JPG,AFNE01.JPG,AFNE01.JPG,AFNE01.JPG,AFNE01.JPG,AFNE01.JPG,,,,,,,,,,,,,,,,,2,2,22,7,,,,,,,AFNE09.jpg,AFNE12.jpg,AFSA02.jpg,AFSA04.jpg,AFSA02.jpg,FS,4,num_2,32,num_4,0.650223972175,,,2017_Nov_20_1530,60.0027713146,FEMA4ImagesEEG,001,202344,
AFNE01.JPG,AFNE01.JPG,AFNE01.JPG,AFNE01.JPG,AFNE01.JPG,AFNE01.JPG,,,,,,,,,,,,,,,,,2,3,23,4,,,,,,,AFSA13.jpg,AFNE01.jpg,AFSA10.jpg,AFNE04.jpg,AFNE04.jpg,FN,3,num_4,16,num_4,0.516870881308,,,2017_Nov_20_1530,60.0027713146,FEMA4ImagesEEG,001,202344,
AFNE01.JPG,AFNE01.JPG,AFNE01.JPG,AFNE01.JPG,AFNE01.JPG,AFNE01.JPG,,,,,,,,,,,,,,,,,2,4,24,1,,,,,,,AFNE01.jpg,AFSA13.jpg,AFSA17.jpg,AFNE18.jpg,AFNE01.jpg,FN,3,num_8,16,num_8,0.950151356823,,,2017_Nov_20_1530,60.0027713146,FEMA4ImagesEEG,001,202344,
AFNE01.JPG,AFNE01.JPG,AFNE01.JPG,AFNE01.JPG,AFNE01.JPG,AFNE01.JPG,,,,,,,,,,,,,,,,,2,5,25,5,,,,,,,AFNE03.jpg,AFNE18.jpg,AFSA11.jpg,AFSA10.jpg,AFSA10.jpg,FS,4,num_4,32,num_2,0.933478371594,,,2017_Nov_20_1530,60.0027713146,FEMA4ImagesEEG,001,202344,
AFNE01.JPG,AFNE01.JPG,AFNE01.JPG,AFNE01.JPG,AFNE01.JPG,AFNE01.JPG,,,,,,,,,,,,,,,,,2,6,26,3,,,,,,,AFNE19.jpg,AFSA20.jpg,AFNE04.jpg,AFSA15.jpg,AFSA15.jpg,FS,4,num_4,32,num_6,0.60015722635,,,2017_Nov_20_1530,60.0027713146,FEMA4ImagesEEG,001,202344,
AFNE01.JPG,AFNE01.JPG,AFNE01.JPG,AFNE01.JPG,AFNE01.JPG,AFNE01.JPG,,,,,,,,,,,,,,,,,2,7,27,2,,,,,,,AFSA09.jpg,AFSA03.jpg,AFNE11.jpg,AFNE04.jpg,AFNE11.jpg,FN,3,num_2,32,num_4,0.600133491651,,,2017_Nov_20_1530,60.0027713146,FEMA4ImagesEEG,001,202344,
AFNE01.JPG,AFNE01.JPG,AFNE01.JPG,AFNE01.JPG,AFNE01.JPG,AFNE01.JPG,,,,,,,,,,,,,,,,,2,8,28,6,,,,,,,AFNE11.jpg,AFSA05.jpg,AFNE01.jpg,AFSA12.jpg,AFSA12.jpg,FS,4,num_4,32,num_8,0.916761765836,,,2017_Nov_20_1530,60.0027713146,FEMA4ImagesEEG,001,202344,
AFNE01.JPG,AFNE01.JPG,AFNE01.JPG,AFNE01.JPG,AFNE01.JPG,AFNE01.JPG,,,,,,,,,,,,,,,,,2,9,29,9,,,,,,,AFNE15.jpg,AFNE06.jpg,AFSA03.jpg,AFSA15.jpg,AFNE15.jpg,FN,3,num_8,32,num_4,0.900132721876,,,2017_Nov_20_1530,60.0027713146,FEMA4ImagesEEG,001,202344,
AFNE01.JPG,AFNE01.JPG,AFNE01.JPG,AFNE01.JPG,AFNE01.JPG,AFNE01.JPG,,,,,,,,,,,,,,,,,3,0,30,5,,,,,,,AFNE10.jpg,AFSA02.jpg,AFSA01.jpg,AFNE09.jpg,AFNE10.jpg,FN,3,num_8,32,num_4,0.733467979645,,,2017_Nov_20_1530,60.0027713146,FEMA4ImagesEEG,001,202344,
AFNE01.JPG,AFNE01.JPG,AFNE01.JPG,AFNE01.JPG,AFNE01.JPG,AFNE01.JPG,,,,,,,,,,,,,,,,,3,1,31,4,,,,,,,AFNE03.jpg,AFSA15.jpg,AFNE04.jpg,AFSA10.jpg,AFSA15.jpg,FS,4,num_6,32,num_4,0.549997466161,,,2017_Nov_20_1530,60.0027713146,FEMA4ImagesEEG,001,202344,
AFNE01.JPG,AFNE01.JPG,AFNE01.JPG,AFNE01.JPG,AFNE01.JPG,AFNE01.JPG,,,,,,,,,,,,,,,,,3,2,32,6,,,,,,,AFSA20.jpg,AFNE09.jpg,AFNE20.jpg,AFSA19.jpg,AFSA19.jpg,FS,4,num_4,32,num_8,1.0001039195,,,2017_Nov_20_1530,60.0027713146,FEMA4ImagesEEG,001,202344,
AFNE01.JPG,AFNE01.JPG,AFNE01.JPG,AFNE01.JPG,AFNE01.JPG,AFNE01.JPG,,,,,,,,,,,,,,,,,3,3,33,7,,,,,,,AFSA05.jpg,AFNE08.jpg,AFNE04.jpg,AFSA03.jpg,AFNE08.jpg,FN,3,num_6,16,num_6,0.883430228642,,,2017_Nov_20_1530,60.0027713146,FEMA4ImagesEEG,001,202344,
AFNE01.JPG,AFNE01.JPG,AFNE01.JPG,AFNE01.JPG,AFNE01.JPG,AFNE01.JPG,,,,,,,,,,,,,,,,,3,4,34,1,,,,,,,AFSA12.jpg,AFSA14.jpg,AFNE03.jpg,AFNE15.jpg,AFSA12.jpg,FS,4,num_8,32,num_4,1.76641623351,,,2017_Nov_20_1530,60.0027713146,FEMA4ImagesEEG,001,202344,
AFNE01.JPG,AFNE01.JPG,AFNE01.JPG,AFNE01.JPG,AFNE01.JPG,AFNE01.JPG,,,,,,,,,,,,,,,,,3,5,35,0,,,,,,,AFSA19.jpg,AFNE06.jpg,AFNE03.jpg,AFSA08.jpg,AFNE06.jpg,FN,3,num_6,16,num_6,0.833467402314,,,2017_Nov_20_1530,60.0027713146,FEMA4ImagesEEG,001,202344,
AFNE01.JPG,AFNE01.JPG,AFNE01.JPG,AFNE01.JPG,AFNE01.JPG,AFNE01.JPG,,,,,,,,,,,,,,,,,3,6,36,3,,,,,,,AFSA01.jpg,AFNE15.jpg,AFNE19.jpg,AFSA15.jpg,AFNE15.jpg,FN,3,num_6,16,num_6,0.583627611539,,,2017_Nov_20_1530,60.0027713146,FEMA4ImagesEEG,001,202344,
AFNE01.JPG,AFNE01.JPG,AFNE01.JPG,AFNE01.JPG,AFNE01.JPG,AFNE01.JPG,,,,,,,,,,,,,,,,,3,7,37,9,,,,,,,AFNE14.jpg,AFSA18.jpg,AFNE18.jpg,AFSA11.jpg,AFSA11.jpg,FS,4,num_4,16,num_4,0.500153634071,,,2017_Nov_20_1530,60.0027713146,FEMA4ImagesEEG,001,202344,
AFNE01.JPG,AFNE01.JPG,AFNE01.JPG,AFNE01.JPG,AFNE01.JPG,AFNE01.JPG,,,,,,,,,,,,,,,,,3,8,38,8,,,,,,,AFSA07.jpg,AFNE15.jpg,AFNE20.jpg,AFSA02.jpg,AFNE20.jpg,FN,3,num_2,32,num_6,0.933489276727,,,2017_Nov_20_1530,60.0027713146,FEMA4ImagesEEG,001,202344,
AFNE01.JPG,AFNE01.JPG,AFNE01.JPG,AFNE01.JPG,AFNE01.JPG,AFNE01.JPG,,,,,,,,,,,,,,,,,3,9,39,2,,,,,,,AFSA01.jpg,AFNE13.jpg,AFSA05.jpg,AFNE17.jpg,AFNE17.jpg,FN,3,num_4,16,num_4,0.733494600997,,,2017_Nov_20_1530,60.0027713146,FEMA4ImagesEEG,001,202344,
AFNE01.JPG,AFNE01.JPG,AFNE01.JPG,AFNE01.JPG,AFNE01.JPG,AFNE01.JPG,,,,,,,,,,,,,,,,,4,0,40,3,,,,,,,AFNE10.jpg,AFNE11.jpg,AFSA03.jpg,AFSA07.jpg,AFSA03.jpg,FS,4,num_2,32,num_8,1.16675422846,,,2017_Nov_20_1530,60.0027713146,FEMA4ImagesEEG,001,202344,
AFNE01.JPG,AFNE01.JPG,AFNE01.JPG,AFNE01.JPG,AFNE01.JPG,AFNE01.JPG,,,,,,,,,,,,,,,,,4,1,41,4,,,,,,,AFSA14.jpg,AFNE04.jpg,AFNE02.jpg,AFSA12.jpg,AFNE04.jpg,FN,3,num_6,32,num_4,0.766769046615,,,2017_Nov_20_1530,60.0027713146,FEMA4ImagesEEG,001,202344,
AFNE01.JPG,AFNE01.JPG,AFNE01.JPG,AFNE01.JPG,AFNE01.JPG,AFNE01.JPG,,,,,,,,,,,,,,,,,4,2,42,6,,,,,,,AFNE20.jpg,AFSA06.jpg,AFNE17.jpg,AFSA19.jpg,AFNE17.jpg,FN,3,num_2,32,num_4,1.3000563218,,,2017_Nov_20_1530,60.0027713146,FEMA4ImagesEEG,001,202344,
AFNE01.JPG,AFNE01.JPG,AFNE01.JPG,AFNE01.JPG,AFNE01.JPG,AFNE01.JPG,,,,,,,,,,,,,,,,,4,3,43,0,,,,,,,AFNE19.jpg,AFSA06.jpg,AFNE07.jpg,AFSA08.jpg,AFSA06.jpg,FS,4,num_6,16,num_6,0.650139297029,,,2017_Nov_20_1530,60.0027713146,FEMA4ImagesEEG,001,202344,
AFNE01.JPG,AFNE01.JPG,AFNE01.JPG,AFNE01.JPG,AFNE01.JPG,AFNE01.JPG,,,,,,,,,,,,,,,,,4,4,44,9,,,,,,,AFNE20.jpg,AFSA01.jpg,AFNE01.jpg,AFSA11.jpg,AFNE01.jpg,FN,3,num_2,16,num_2,0.733470866297,,,2017_Nov_20_1530,60.0027713146,FEMA4ImagesEEG,001,202344,
AFNE01.JPG,AFNE01.JPG,AFNE01.JPG,AFNE01.JPG,AFNE01.JPG,AFNE01.JPG,,,,,,,,,,,,,,,,,4,5,45,1,,,,,,,AFNE11.jpg,AFNE01.jpg,AFSA18.jpg,AFSA01.jpg,AFSA18.jpg,FS,4,num_2,16,num_2,0.916783576101,,,2017_Nov_20_1530,60.0027713146,FEMA4ImagesEEG,001,202344,
AFNE01.JPG,AFNE01.JPG,AFNE01.JPG,AFNE01.JPG,AFNE01.JPG,AFNE01.JPG,,,,,,,,,,,,,,,,,4,6,46,8,,,,,,,AFNE15.jpg,AFNE02.jpg,AFSA04.jpg,AFSA14.jpg,AFSA14.jpg,FS,4,num_4,16,num_4,0.65015501325,,,2017_Nov_20_1530,60.0027713146,FEMA4ImagesEEG,001,202344,
AFNE01.JPG,AFNE01.JPG,AFNE01.JPG,AFNE01.JPG,AFNE01.JPG,AFNE01.JPG,,,,,,,,,,,,,,,,,4,7,47,2,,,,,,,AFSA10.jpg,AFSA18.jpg,AFNE09.jpg,AFNE16.jpg,AFNE09.jpg,FN,3,num_2,32,num_4,1.01676182998,,,2017_Nov_20_1530,60.0027713146,FEMA4ImagesEEG,001,202344,
AFNE01.JPG,AFNE01.JPG,AFNE01.JPG,AFNE01.JPG,AFNE01.JPG,AFNE01.JPG,,,,,,,,,,,,,,,,,4,8,48,5,,,,,,,AFSA03.jpg,AFNE18.jpg,AFNE07.jpg,AFSA17.jpg,AFNE18.jpg,FN,3,num_6,16,num_6,0.950163224173,,,2017_Nov_20_1530,60.0027713146,FEMA4ImagesEEG,001,202344,
AFNE01.JPG,AFNE01.JPG,AFNE01.JPG,AFNE01.JPG,AFNE01.JPG,AFNE01.JPG,,,,,,,,,,,,,,,,,4,9,49,7,,,,,,,AFSA20.jpg,AFNE10.jpg,AFNE20.jpg,AFSA19.jpg,AFSA20.jpg,FS,4,num_8,32,num_2,1.116750989,,,2017_Nov_20_1530,60.0027713146,FEMA4ImagesEEG,001,202344,
AFNE01.JPG,AFNE01.JPG,AFNE01.JPG,AFNE01.JPG,AFNE01.JPG,AFNE01.JPG,,,,,,,,,,,,,,,,,5,0,50,0,,,,,,,AFSA04.jpg,AFSA10.jpg,AFNE16.jpg,AFNE02.jpg,AFNE02.jpg,FN,3,num_4,16,num_4,0.750182981707,,,2017_Nov_20_1530,60.0027713146,FEMA4ImagesEEG,001,202344,
AFNE01.JPG,AFNE01.JPG,AFNE01.JPG,AFNE01.JPG,AFNE01.JPG,AFNE01.JPG,,,,,,,,,,,,,,,,,5,1,51,8,,,,,,,AFSA07.jpg,AFNE07.jpg,AFSA12.jpg,AFNE17.jpg,AFSA12.jpg,FS,4,num_2,32,num_4,1.03349960453,,,2017_Nov_20_1530,60.0027713146,FEMA4ImagesEEG,001,202344,
AFNE01.JPG,AFNE01.JPG,AFNE01.JPG,AFNE01.JPG,AFNE01.JPG,AFNE01.JPG,,,,,,,,,,,,,,,,,5,2,52,9,,,,,,,AFSA05.jpg,AFSA17.jpg,AFNE02.jpg,AFNE18.jpg,AFNE02.jpg,FN,3,num_2,16,num_2,0.916754068096,,,2017_Nov_20_1530,60.0027713146,FEMA4ImagesEEG,001,202344,
AFNE01.JPG,AFNE01.JPG,AFNE01.JPG,AFNE01.JPG,AFNE01.JPG,AFNE01.JPG,,,,,,,,,,,,,,,,,5,3,53,6,,,,,,,AFSA19.jpg,AFNE16.jpg,AFSA11.jpg,AFNE09.jpg,AFNE16.jpg,FN,3,num_6,32,num_8,0.83348472223,,,2017_Nov_20_1530,60.0027713146,FEMA4ImagesEEG,001,202344,
AFNE01.JPG,AFNE01.JPG,AFNE01.JPG,AFNE01.JPG,AFNE01.JPG,AFNE01.JPG,,,,,,,,,,,,,,,,,5,4,54,7,,,,,,,AFNE17.jpg,AFSA15.jpg,AFNE12.jpg,AFSA13.jpg,AFSA13.jpg,FS,4,num_4,16,num_4,0.783510349292,,,2017_Nov_20_1530,60.0027713146,FEMA4ImagesEEG,001,202344,
AFNE01.JPG,AFNE01.JPG,AFNE01.JPG,AFNE01.JPG,AFNE01.JPG,AFNE01.JPG,,,,,,,,,,,,,,,,,5,5,55,4,,,,,,,AFNE11.jpg,AFNE19.jpg,AFSA08.jpg,AFSA07.jpg,AFSA08.jpg,FS,4,num_2,16,num_2,1.25012364496,,,2017_Nov_20_1530,60.0027713146,FEMA4ImagesEEG,001,202344,
AFNE01.JPG,AFNE01.JPG,AFNE01.JPG,AFNE01.JPG,AFNE01.JPG,AFNE01.JPG,,,,,,,,,,,,,,,,,5,6,56,2,,,,,,,AFNE16.jpg,AFSA16.jpg,AFSA02.jpg,AFNE20.jpg,AFNE20.jpg,FN,3,num_4,32,num_8,0.783497840463,,,2017_Nov_20_1530,60.0027713146,FEMA4ImagesEEG,001,202344,
AFNE01.JPG,AFNE01.JPG,AFNE01.JPG,AFNE01.JPG,AFNE01.JPG,AFNE01.JPG,,,,,,,,,,,,,,,,,5,7,57,5,,,,,,,AFSA11.jpg,AFNE18.jpg,AFSA08.jpg,AFNE04.jpg,AFNE04.jpg,FN,3,num_4,16,num_4,0.816820717699,,,2017_Nov_20_1530,60.0027713146,FEMA4ImagesEEG,001,202344,
AFNE01.JPG,AFNE01.JPG,AFNE01.JPG,AFNE01.JPG,AFNE01.JPG,AFNE01.JPG,,,,,,,,,,,,,,,,,5,8,58,3,,,,,,,AFSA05.jpg,AFNE01.jpg,AFNE05.jpg,AFSA16.jpg,AFSA16.jpg,FS,4,num_4,16,num_4,0.800114054855,,,2017_Nov_20_1530,60.0027713146,FEMA4ImagesEEG,001,202344,
AFNE01.JPG,AFNE01.JPG,AFNE01.JPG,AFNE01.JPG,AFNE01.JPG,AFNE01.JPG,,,,,,,,,,,,,,,,,5,9,59,1,,,,,,,AFSA15.jpg,AFNE02.jpg,AFNE03.jpg,AFSA09.jpg,AFSA09.jpg,FS,4,num_4,32,num_2,0.883486999479,,,2017_Nov_20_1530,60.0027713146,FEMA4ImagesEEG,001,202344,
,,,,,,,,,,,,,,,,,,,,,,,,,,,,,,,,,,,,,,,,,,,space,36.5641837605,2017_Nov_20_1530,60.0027713146,FEMA4ImagesEEG,001,202344,
AFNE01.JPG,AFNE01.JPG,AFNE01.JPG,AFNE01.JPG,AFNE01.JPG,AFNE01.JPG,,,,,,,,,,,,,,,,,,,,,0,0,0,4,,,AMNE09.jpg,AMSA17.jpg,AMSA06.jpg,AMNE17.jpg,AMSA17.jpg,MS,2,num_6,16,num_6,1.01679775277,,,2017_Nov_20_1530,60.0027713146,FEMA4ImagesEEG,001,202344,
AFNE01.JPG,AFNE01.JPG,AFNE01.JPG,AFNE01.JPG,AFNE01.JPG,AFNE01.JPG,,,,,,,,,,,,,,,,,,,,,0,1,1,3,,,AMNE05.jpg,AMNE08.jpg,AMSA03.jpg,AMSA12.jpg,AMNE05.jpg,MN,1,num_8,32,num_4,1.11677921405,,,2017_Nov_20_1530,60.0027713146,FEMA4ImagesEEG,001,202344,
AFNE01.JPG,AFNE01.JPG,AFNE01.JPG,AFNE01.JPG,AFNE01.JPG,AFNE01.JPG,,,,,,,,,,,,,,,,,,,,,0,2,2,7,,,AMNE08.jpg,AMSA17.jpg,AMSA03.jpg,AMNE10.jpg,AMSA03.jpg,MS,2,num_2,32,num_8,1.48345114084,,,2017_Nov_20_1530,60.0027713146,FEMA4ImagesEEG,001,202344,
AFNE01.JPG,AFNE01.JPG,AFNE01.JPG,AFNE01.JPG,AFNE01.JPG,AFNE01.JPG,,,,,,,,,,,,,,,,,,,,,0,3,3,2,,,AMSA03.jpg,AMSA17.jpg,AMNE03.jpg,AMNE20.jpg,AMSA03.jpg,MS,2,num_8,16,num_8,1.91671108904,,,2017_Nov_20_1530,60.0027713146,FEMA4ImagesEEG,001,202344,
AFNE01.JPG,AFNE01.JPG,AFNE01.JPG,AFNE01.JPG,AFNE01.JPG,AFNE01.JPG,,,,,,,,,,,,,,,,,,,,,0,4,4,8,,,AMSA17.jpg,AMNE09.jpg,AMSA10.jpg,AMNE06.jpg,AMNE06.jpg,MN,1,num_4,16,num_4,1.70008929379,,,2017_Nov_20_1530,60.0027713146,FEMA4ImagesEEG,001,202344,
AFNE01.JPG,AFNE01.JPG,AFNE01.JPG,AFNE01.JPG,AFNE01.JPG,AFNE01.JPG,,,,,,,,,,,,,,,,,,,,,0,5,5,5,,,AMNE07.jpg,AMNE06.jpg,AMSA04.jpg,AMSA02.jpg,AMNE06.jpg,MN,1,num_6,16,num_6,0.583489372949,,,2017_Nov_20_1530,60.0027713146,FEMA4ImagesEEG,001,202344,
AFNE01.JPG,AFNE01.JPG,AFNE01.JPG,AFNE01.JPG,AFNE01.JPG,AFNE01.JPG,,,,,,,,,,,,,,,,,,,,,0,6,6,6,,,AMNE12.jpg,AMSA12.jpg,AMNE11.jpg,AMSA14.jpg,AMSA14.jpg,MS,2,num_4,16,num_4,0.716782164848,,,2017_Nov_20_1530,60.0027713146,FEMA4ImagesEEG,001,202344,
AFNE01.JPG,AFNE01.JPG,AFNE01.JPG,AFNE01.JPG,AFNE01.JPG,AFNE01.JPG,,,,,,,,,,,,,,,,,,,,,0,7,7,9,,,AMSA01.jpg,AMSA11.jpg,AMNE20.jpg,AMNE14.jpg,AMNE20.jpg,MN,1,num_2,16,num_2,0.933617893141,,,2017_Nov_20_1530,60.0027713146,FEMA4ImagesEEG,001,202344,
AFNE01.JPG,AFNE01.JPG,AFNE01.JPG,AFNE01.JPG,AFNE01.JPG,AFNE01.JPG,,,,,,,,,,,,,,,,,,,,,0,8,8,1,,,AMSA20.jpg,AMSA01.jpg,AMNE10.jpg,AMNE04.jpg,AMSA01.jpg,MS,2,num_6,16,num_6,0.583525295738,,,2017_Nov_20_1530,60.0027713146,FEMA4ImagesEEG,001,202344,
AFNE01.JPG,AFNE01.JPG,AFNE01.JPG,AFNE01.JPG,AFNE01.JPG,AFNE01.JPG,,,,,,,,,,,,,,,,,,,,,0,9,9,0,,,AMSA19.jpg,AMSA15.jpg,AMNE16.jpg,AMNE17.jpg,AMNE16.jpg,MN,1,num_2,32,num_4,0.616879284675,,,2017_Nov_20_1530,60.0027713146,FEMA4ImagesEEG,001,202344,
AFNE01.JPG,AFNE01.JPG,AFNE01.JPG,AFNE01.JPG,AFNE01.JPG,AFNE01.JPG,,,,,,,,,,,,,,,,,,,,,1,0,10,7,,,AMNE07.jpg,AMNE16.jpg,AMSA10.jpg,AMSA04.jpg,AMSA04.jpg,MS,2,num_4,32,num_2,0.716779919674,,,2017_Nov_20_1530,60.0027713146,FEMA4ImagesEEG,001,202344,
AFNE01.JPG,AFNE01.JPG,AFNE01.JPG,AFNE01.JPG,AFNE01.JPG,AFNE01.JPG,,,,,,,,,,,,,,,,,,,,,1,1,11,5,,,AMNE16.jpg,AMSA19.jpg,AMNE19.jpg,AMSA15.jpg,AMNE16.jpg,MN,1,num_8,32,num_4,0.83346098753,,,2017_Nov_20_1530,60.0027713146,FEMA4ImagesEEG,001,202344,
AFNE01.JPG,AFNE01.JPG,AFNE01.JPG,AFNE01.JPG,AFNE01.JPG,AFNE01.JPG,,,,,,,,,,,,,,,,,,,,,1,2,12,4,,,AMSA16.jpg,AMNE02.jpg,AMNE05.jpg,AMSA09.jpg,AMNE02.jpg,MN,1,num_6,16,num_6,0.750120437565,,,2017_Nov_20_1530,60.0027713146,FEMA4ImagesEEG,001,202344,
AFNE01.JPG,AFNE01.JPG,AFNE01.JPG,AFNE01.JPG,AFNE01.JPG,AFNE01.JPG,,,,,,,,,,,,,,,,,,,,,1,3,13,1,,,AMNE02.jpg,AMSA14.jpg,AMNE14.jpg,AMSA03.jpg,AMNE02.jpg,MN,1,num_8,16,num_8,0.95025944593,,,2017_Nov_20_1530,60.0027713146,FEMA4ImagesEEG,001,202344,
AFNE01.JPG,AFNE01.JPG,AFNE01.JPG,AFNE01.JPG,AFNE01.JPG,AFNE01.JPG,,,,,,,,,,,,,,,,,,,,,1,4,14,8,,,AMSA06.jpg,AMNE19.jpg,AMSA09.jpg,AMNE17.jpg,AMNE17.jpg,MN,1,num_4,32,num_8,1.11677119557,,,2017_Nov_20_1530,60.0027713146,FEMA4ImagesEEG,001,202344,
AFNE01.JPG,AFNE01.JPG,AFNE01.JPG,AFNE01.JPG,AFNE01.JPG,AFNE01.JPG,,,,,,,,,,,,,,,,,,,,,1,5,15,2,,,AMNE18.jpg,AMNE06.jpg,AMSA01.jpg,AMSA16.jpg,AMSA01.jpg,MS,2,num_2,16,num_2,0.73346573447,,,2017_Nov_20_1530,60.0027713146,FEMA4ImagesEEG,001,202344,
AFNE01.JPG,AFNE01.JPG,AFNE01.JPG,AFNE01.JPG,AFNE01.JPG,AFNE01.JPG,,,,,,,,,,,,,,,,,,,,,1,6,16,6,,,AMSA12.jpg,AMNE20.jpg,AMNE09.jpg,AMSA03.jpg,AMNE20.jpg,MN,1,num_6,32,num_2,1.06672626001,,,2017_Nov_20_1530,60.0027713146,FEMA4ImagesEEG,001,202344,
AFNE01.JPG,AFNE01.JPG,AFNE01.JPG,AFNE01.JPG,AFNE01.JPG,AFNE01.JPG,,,,,,,,,,,,,,,,,,,,,1,7,17,0,,,AMNE17.jpg,AMNE01.jpg,AMSA18.jpg,AMSA08.jpg,AMSA18.jpg,MS,2,num_2,32,num_8,1.35012018097,,,2017_Nov_20_1530,60.0027713146,FEMA4ImagesEEG,001,202344,
AFNE01.JPG,AFNE01.JPG,AFNE01.JPG,AFNE01.JPG,AFNE01.JPG,AFNE01.JPG,,,,,,,,,,,,,,,,,,,,,1,8,18,3,,,AMSA13.jpg,AMNE01.jpg,AMSA19.jpg,AMNE20.jpg,AMSA19.jpg,MS,2,num_2,32,num_6,0.800119507421,,,2017_Nov_20_1530,60.0027713146,FEMA4ImagesEEG,001,202344,
AFNE01.JPG,AFNE01.JPG,AFNE01.JPG,AFNE01.JPG,AFNE01.JPG,AFNE01.JPG,,,,,,,,,,,,,,,,,,,,,1,9,19,9,,,AMNE08.jpg,AMSA02.jpg,AMNE20.jpg,AMSA13.jpg,AMNE20.jpg,MN,1,num_2,32,num_4,0.800130412554,,,2017_Nov_20_1530,60.0027713146,FEMA4ImagesEEG,001,202344,
AFNE01.JPG,AFNE01.JPG,AFNE01.JPG,AFNE01.JPG,AFNE01.JPG,AFNE01.JPG,,,,,,,,,,,,,,,,,,,,,2,0,20,5,,,AMSA12.jpg,AMNE19.jpg,AMSA11.jpg,AMNE17.jpg,AMSA12.jpg,MS,2,num_8,16,num_8,1.31673026925,,,2017_Nov_20_1530,60.0027713146,FEMA4ImagesEEG,001,202344,
AFNE01.JPG,AFNE01.JPG,AFNE01.JPG,AFNE01.JPG,AFNE01.JPG,AFNE01.JPG,,,,,,,,,,,,,,,,,,,,,2,1,21,9,,,AMSA15.jpg,AMNE09.jpg,AMNE15.jpg,AMSA16.jpg,AMNE09.jpg,MN,1,num_6,32,num_4,0.633447067449,,,2017_Nov_20_1530,60.0027713146,FEMA4ImagesEEG,001,202344,
AFNE01.JPG,AFNE01.JPG,AFNE01.JPG,AFNE01.JPG,AFNE01.JPG,AFNE01.JPG,,,,,,,,,,,,,,,,,,,,,2,2,22,3,,,AMSA06.jpg,AMSA01.jpg,AMNE02.jpg,AMNE01.jpg,AMSA06.jpg,MS,2,num_8,16,num_8,1.33345200683,,,2017_Nov_20_1530,60.0027713146,FEMA4ImagesEEG,001,202344,
AFNE01.JPG,AFNE01.JPG,AFNE01.JPG,AFNE01.JPG,AFNE01.JPG,AFNE01.JPG,,,,,,,,,,,,,,,,,,,,,2,3,23,6,,,AMSA10.jpg,AMSA09.jpg,AMNE08.jpg,AMNE17.jpg,AMNE08.jpg,MN,1,num_2,16,num_2,0.566845574986,,,2017_Nov_20_1530,60.0027713146,FEMA4ImagesEEG,001,202344,
AFNE01.JPG,AFNE01.JPG,AFNE01.JPG,AFNE01.JPG,AFNE01.JPG,AFNE01.JPG,,,,,,,,,,,,,,,,,,,,,2,4,24,1,,,AMSA10.jpg,AMSA17.jpg,AMNE18.jpg,AMNE05.jpg,AMNE18.jpg,MN,1,num_2,16,num_2,0.800061132889,,,2017_Nov_20_1530,60.0027713146,FEMA4ImagesEEG,001,202344,
AFNE01.JPG,AFNE01.JPG,AFNE01.JPG,AFNE01.JPG,AFNE01.JPG,AFNE01.JPG,,,,,,,,,,,,,,,,,,,,,2,5,25,2,,,AMSA10.jpg,AMNE09.jpg,AMSA11.jpg,AMNE06.jpg,AMSA10.jpg,MS,2,num_8,32,num_4,0.917231007269,,,2017_Nov_20_1530,60.0027713146,FEMA4ImagesEEG,001,202344,
AFNE01.JPG,AFNE01.JPG,AFNE01.JPG,AFNE01.JPG,AFNE01.JPG,AFNE01.JPG,,,,,,,,,,,,,,,,,,,,,2,6,26,0,,,AMNE11.jpg,AMNE07.jpg,AMSA06.jpg,AMSA09.jpg,AMNE11.jpg,MN,1,num_8,32,num_6,0.850123709104,,,2017_Nov_20_1530,60.0027713146,FEMA4ImagesEEG,001,202344,
AFNE01.JPG,AFNE01.JPG,AFNE01.JPG,AFNE01.JPG,AFNE01.JPG,AFNE01.JPG,,,,,,,,,,,,,,,,,,,,,2,7,27,8,,,AMNE18.jpg,AMNE01.jpg,AMSA06.jpg,AMSA02.jpg,AMSA06.jpg,MS,2,num_2,16,num_2,1.33344174318,,,2017_Nov_20_1530,60.0027713146,FEMA4ImagesEEG,001,202344,
AFNE01.JPG,AFNE01.JPG,AFNE01.JPG,AFNE01.JPG,AFNE01.JPG,AFNE01.JPG,,,,,,,,,,,,,,,,,,,,,2,8,28,4,,,AMNE12.jpg,AMSA11.jpg,AMNE16.jpg,AMSA12.jpg,AMSA11.jpg,MS,2,num_6,32,num_4,0.700162101586,,,2017_Nov_20_1530,60.0027713146,FEMA4ImagesEEG,001,202344,
AFNE01.JPG,AFNE01.JPG,AFNE01.JPG,AFNE01.JPG,AFNE01.JPG,AFNE01.JPG,,,,,,,,,,,,,,,,,,,,,2,9,29,7,,,AMSA11.jpg,AMNE18.jpg,AMSA03.jpg,AMNE03.jpg,AMNE18.jpg,MN,1,num_6,16,num_6,0.900150041793,,,2017_Nov_20_1530,60.0027713146,FEMA4ImagesEEG,001,202344,
AFNE01.JPG,AFNE01.JPG,AFNE01.JPG,AFNE01.JPG,AFNE01.JPG,AFNE01.JPG,,,,,,,,,,,,,,,,,,,,,3,0,30,4,,,AMNE07.jpg,AMSA05.jpg,AMNE06.jpg,AMSA06.jpg,AMSA06.jpg,MS,2,num_4,32,num_8,1.05008727313,,,2017_Nov_20_1530,60.0027713146,FEMA4ImagesEEG,001,202344,
AFNE01.JPG,AFNE01.JPG,AFNE01.JPG,AFNE01.JPG,AFNE01.JPG,AFNE01.JPG,,,,,,,,,,,,,,,,,,,,,3,1,31,0,,,AMSA04.jpg,AMNE05.jpg,AMSA12.jpg,AMNE04.jpg,AMNE04.jpg,MN,1,num_4,32,num_2,1.83338914195,,,2017_Nov_20_1530,60.0027713146,FEMA4ImagesEEG,001,202344,
AFNE01.JPG,AFNE01.JPG,AFNE01.JPG,AFNE01.JPG,AFNE01.JPG,AFNE01.JPG,,,,,,,,,,,,,,,,,,,,,3,2,32,3,,,AMNE03.jpg,AMNE11.jpg,AMSA02.jpg,AMSA11.jpg,AMNE03.jpg,MN,1,num_8,16,num_8,0.41679576419,,,2017_Nov_20_1530,60.0027713146,FEMA4ImagesEEG,001,202344,
AFNE01.JPG,AFNE01.JPG,AFNE01.JPG,AFNE01.JPG,AFNE01.JPG,AFNE01.JPG,,,,,,,,,,,,,,,,,,,,,3,3,33,7,,,AMSA01.jpg,AMSA16.jpg,AMNE10.jpg,AMNE01.jpg,AMNE01.jpg,MN,1,num_4,16,num_4,0.916496193789,,,2017_Nov_20_1530,60.0027713146,FEMA4ImagesEEG,001,202344,
AFNE01.JPG,AFNE01.JPG,AFNE01.JPG,AFNE01.JPG,AFNE01.JPG,AFNE01.JPG,,,,,,,,,,,,,,,,,,,,,3,4,34,9,,,AMSA09.jpg,AMNE04.jpg,AMNE16.jpg,AMSA02.jpg,AMSA09.jpg,MS,2,num_8,16,num_8,0.81681237848,,,2017_Nov_20_1530,60.0027713146,FEMA4ImagesEEG,001,202344,
AFNE01.JPG,AFNE01.JPG,AFNE01.JPG,AFNE01.JPG,AFNE01.JPG,AFNE01.JPG,,,,,,,,,,,,,,,,,,,,,3,5,35,8,,,AMSA12.jpg,AMSA11.jpg,AMNE02.jpg,AMNE12.jpg,AMSA11.jpg,MS,2,num_6,16,num_6,0.600186734356,,,2017_Nov_20_1530,60.0027713146,FEMA4ImagesEEG,001,202344,
AFNE01.JPG,AFNE01.JPG,AFNE01.JPG,AFNE01.JPG,AFNE01.JPG,AFNE01.JPG,,,,,,,,,,,,,,,,,,,,,3,6,36,6,,,AMNE14.jpg,AMSA19.jpg,AMNE17.jpg,AMSA07.jpg,AMNE17.jpg,MN,1,num_2,32,num_4,0.683485588226,,,2017_Nov_20_1530,60.0027713146,FEMA4ImagesEEG,001,202344,
AFNE01.JPG,AFNE01.JPG,AFNE01.JPG,AFNE01.JPG,AFNE01.JPG,AFNE01.JPG,,,,,,,,,,,,,,,,,,,,,3,7,37,2,,,AMSA19.jpg,AMSA09.jpg,AMNE07.jpg,AMNE05.jpg,AMNE05.jpg,MN,1,num_4,16,num_4,1.16678341573,,,2017_Nov_20_1530,60.0027713146,FEMA4ImagesEEG,001,202344,
AFNE01.JPG,AFNE01.JPG,AFNE01.JPG,AFNE01.JPG,AFNE01.JPG,AFNE01.JPG,,,,,,,,,,,,,,,,,,,,,3,8,38,5,,,AMNE15.jpg,AMNE01.jpg,AMSA19.jpg,AMSA13.jpg,AMSA19.jpg,MS,2,num_2,32,num_6,0.633491970936,,,2017_Nov_20_1530,60.0027713146,FEMA4ImagesEEG,001,202344,
