IPosition2,IPosition3,IPosition1,IPosition6,IPosition4,IPosition5,TrialsM1.thisRepN,TrialsM1.thisTrialN,TrialsM1.thisN,TrialsM1.thisIndex,TrialsF1.thisRepN,TrialsF1.thisTrialN,TrialsF1.thisN,TrialsF1.thisIndex,TrialsM2.thisRepN,TrialsM2.thisTrialN,TrialsM2.thisN,TrialsM2.thisIndex,TrialsF2.thisRepN,TrialsF2.thisTrialN,TrialsF2.thisN,TrialsF2.thisIndex,TrialsM3.thisRepN,TrialsM3.thisTrialN,TrialsM3.thisN,TrialsM3.thisIndex,TrialsF3.thisRepN,TrialsF3.thisTrialN,TrialsF3.thisN,TrialsF3.thisIndex,InstrKey_resp.keys,InstrKey_resp.rt,Image0 _Position,Image1 _Position,Image2 _Position,Image3 _Position,Center_image,condition,code,correct_answer,accuracy,Key_Resp.keys,Key_Resp.rt,BreakKey_resp.keys,BreakKey_resp.rt,date,frameRate,expName,session,participant,
,,,,,,,,,,,,,,,,,,,,,,,,,,,,,,space,9.51616204769,,,,,,,,,,,,,,2017_Nov_22_1229,60.0204444676,MAFE4ImagesEEG,001,202414,
AFSA25.JPG,AFNE24.JPG,AFSA24.JPG,AFNE21.JPG,AFSA21.JPG,AFNE25.JPG,0,0,0,2,,,,,,,,,,,,,,,,,,,,,,,AMSA04.jpg,AMNE05.jpg,AMNE08.jpg,AMSA05.jpg,AMNE05.jpg,MN,1,num_6,16,num_6,1.03344475813,,,2017_Nov_22_1229,60.0204444676,MAFE4ImagesEEG,001,202414,
AMSA21.JPG,AMNE22.JPG,AMNE21.JPG,AMSA23.JPG,AMSA22.JPG,AMNE23.JPG,0,1,1,1,,,,,,,,,,,,,,,,,,,,,,,AMNE02.jpg,AMSA08.jpg,AMNE18.jpg,AMSA16.jpg,AMNE18.jpg,MN,1,num_2,16,num_2,0.500184745761,,,2017_Nov_22_1229,60.0204444676,MAFE4ImagesEEG,001,202414,
AMSA21.JPG,AMNE23.JPG,AMNE21.JPG,AMSA25.JPG,AMNE25.JPG,AMSA23.JPG,0,2,2,5,,,,,,,,,,,,,,,,,,,,,,,AMNE14.jpg,AMSA13.jpg,AMSA15.jpg,AMNE12.jpg,AMSA15.jpg,MS,2,num_2,32,num_4,1.10010270067,,,2017_Nov_22_1229,60.0204444676,MAFE4ImagesEEG,001,202414,
AMNE22.JPG,AMSA24.JPG,AMSA22.JPG,AMNE25.JPG,AMNE24.JPG,AMSA25.JPG,0,3,3,7,,,,,,,,,,,,,,,,,,,,,,,AMNE14.jpg,AMNE10.jpg,AMSA01.jpg,AMSA05.jpg,AMSA05.jpg,MS,2,num_4,16,num_4,0.666806508932,,,2017_Nov_22_1229,60.0204444676,MAFE4ImagesEEG,001,202414,
AFSA21.JPG,AFNE23.JPG,AFNE21.JPG,AFSA25.JPG,AFNE25.JPG,AFSA23.JPG,0,4,4,4,,,,,,,,,,,,,,,,,,,,,,,AMSA09.jpg,AMNE13.jpg,AMNE11.jpg,AMSA14.jpg,AMNE13.jpg,MN,1,num_6,32,num_8,1.00011001353,,,2017_Nov_22_1229,60.0204444676,MAFE4ImagesEEG,001,202414,
AFNE22.JPG,AFSA24.JPG,AFSA22.JPG,AFNE25.JPG,AFNE24.JPG,AFSA25.JPG,0,5,5,6,,,,,,,,,,,,,,,,,,,,,,,AMNE17.jpg,AMSA16.jpg,AMNE15.jpg,AMSA01.jpg,AMNE17.jpg,MN,1,num_8,32,num_6,1.00010327803,,,2017_Nov_22_1229,60.0204444676,MAFE4ImagesEEG,001,202414,
AFSA21.JPG,AFNE22.JPG,AFNE21.JPG,AFSA23.JPG,AFSA22.JPG,AFNE23.JPG,0,6,6,0,,,,,,,,,,,,,,,,,,,,,,,AMNE01.jpg,AMNE02.jpg,AMSA07.jpg,AMSA08.jpg,AMNE02.jpg,MN,1,num_6,32,num_4,0.816771644604,,,2017_Nov_22_1229,60.0204444676,MAFE4ImagesEEG,001,202414,
AMSA25.JPG,AMNE24.JPG,AMSA24.JPG,AMNE26.JPG,AMSA21.JPG,AMNE25.JPG,0,7,7,3,,,,,,,,,,,,,,,,,,,,,,,AMSA06.jpg,AMSA20.jpg,AMNE20.jpg,AMNE15.jpg,AMNE15.jpg,MN,1,num_4,32,num_8,1.19998056319,,,2017_Nov_22_1229,60.0204444676,MAFE4ImagesEEG,001,202414,
AMNE23.JPG,AMNE24.JPG,AMNE22.JPG,AMSA24.JPG,AMSA22.JPG,AMSA23.JPG,0,8,8,9,,,,,,,,,,,,,,,,,,,,,,,AMSA10.jpg,AMNE06.jpg,AMNE18.jpg,AMSA18.jpg,AMNE06.jpg,MN,1,num_6,32,num_2,0.916784538334,,,2017_Nov_22_1229,60.0204444676,MAFE4ImagesEEG,001,202414,
AFNE23.JPG,AFNE24.JPG,AFNE22.JPG,AFSA24.JPG,AFSA22.JPG,AFSA23.JPG,0,9,9,8,,,,,,,,,,,,,,,,,,,,,,,AMSA17.jpg,AMNE01.jpg,AMSA04.jpg,AMNE18.jpg,AMNE01.jpg,MN,1,num_6,32,num_4,0.816810774792,,,2017_Nov_22_1229,60.0204444676,MAFE4ImagesEEG,001,202414,
AMSA25.JPG,AMNE24.JPG,AMSA24.JPG,AMNE26.JPG,AMSA21.JPG,AMNE25.JPG,,,,,0,0,0,3,,,,,,,,,,,,,,,,,,,AFNE15.jpg,AFSA20.jpg,AFNE03.jpg,AFSA05.jpg,AFNE15.jpg,FN,3,num_8,32,num_6,1.16681516892,,,2017_Nov_22_1229,60.0204444676,MAFE4ImagesEEG,001,202414,
AFSA21.JPG,AFNE22.JPG,AFNE21.JPG,AFSA23.JPG,AFSA22.JPG,AFNE23.JPG,,,,,0,1,1,0,,,,,,,,,,,,,,,,,,,AFNE20.jpg,AFSA02.jpg,AFSA11.jpg,AFNE16.jpg,AFNE16.jpg,FN,3,num_4,32,num_6,0.800103791204,,,2017_Nov_22_1229,60.0204444676,MAFE4ImagesEEG,001,202414,
AMSA21.JPG,AMNE23.JPG,AMNE21.JPG,AMSA25.JPG,AMNE25.JPG,AMSA23.JPG,,,,,0,2,2,5,,,,,,,,,,,,,,,,,,,AFNE02.jpg,AFSA01.jpg,AFNE09.jpg,AFSA05.jpg,AFSA05.jpg,FS,4,num_4,16,num_4,0.766911454819,,,2017_Nov_22_1229,60.0204444676,MAFE4ImagesEEG,001,202414,
AFSA21.JPG,AFNE23.JPG,AFNE21.JPG,AFSA25.JPG,AFNE25.JPG,AFSA23.JPG,,,,,0,3,3,4,,,,,,,,,,,,,,,,,,,AFNE03.jpg,AFNE15.jpg,AFSA07.jpg,AFSA11.jpg,AFNE15.jpg,FN,3,num_6,16,num_6,0.73353405192,,,2017_Nov_22_1229,60.0204444676,MAFE4ImagesEEG,001,202414,
AMSA21.JPG,AMNE22.JPG,AMNE21.JPG,AMSA23.JPG,AMSA22.JPG,AMNE23.JPG,,,,,0,4,4,1,,,,,,,,,,,,,,,,,,,AFNE15.jpg,AFNE13.jpg,AFSA06.jpg,AFSA08.jpg,AFSA06.jpg,FS,4,num_2,32,num_8,0.583510541735,,,2017_Nov_22_1229,60.0204444676,MAFE4ImagesEEG,001,202414,
AFNE23.JPG,AFNE24.JPG,AFNE22.JPG,AFSA24.JPG,AFSA22.JPG,AFSA23.JPG,,,,,0,5,5,8,,,,,,,,,,,,,,,,,,,AFSA14.jpg,AFNE08.jpg,AFSA15.jpg,AFNE17.jpg,AFSA15.jpg,FS,4,num_2,16,num_2,0.650164635415,,,2017_Nov_22_1229,60.0204444676,MAFE4ImagesEEG,001,202414,
AFSA25.JPG,AFNE24.JPG,AFSA24.JPG,AFNE21.JPG,AFSA21.JPG,AFNE25.JPG,,,,,0,6,6,2,,,,,,,,,,,,,,,,,,,AFNE02.jpg,AFSA16.jpg,AFNE19.jpg,AFSA10.jpg,AFNE19.jpg,FN,3,num_2,32,num_6,0.666779566847,,,2017_Nov_22_1229,60.0204444676,MAFE4ImagesEEG,001,202414,
AMNE23.JPG,AMNE24.JPG,AMNE22.JPG,AMSA24.JPG,AMSA22.JPG,AMSA23.JPG,,,,,0,7,7,9,,,,,,,,,,,,,,,,,,,AFNE03.jpg,AFSA09.jpg,AFNE02.jpg,AFSA11.jpg,AFNE02.jpg,FN,3,num_2,16,num_2,0.516850354004,,,2017_Nov_22_1229,60.0204444676,MAFE4ImagesEEG,001,202414,
AFNE22.JPG,AFSA24.JPG,AFSA22.JPG,AFNE25.JPG,AFNE24.JPG,AFSA25.JPG,,,,,0,8,8,6,,,,,,,,,,,,,,,,,,,AFSA16.jpg,AFNE15.jpg,AFSA05.jpg,AFNE02.jpg,AFSA05.jpg,FS,4,num_2,16,num_2,1.10006645715,,,2017_Nov_22_1229,60.0204444676,MAFE4ImagesEEG,001,202414,
AMNE22.JPG,AMSA24.JPG,AMSA22.JPG,AMNE25.JPG,AMNE24.JPG,AMSA25.JPG,,,,,0,9,9,7,,,,,,,,,,,,,,,,,,,AFNE06.jpg,AFNE15.jpg,AFSA18.jpg,AFSA06.jpg,AFSA06.jpg,FS,4,num_4,16,num_4,1.46650648952,,,2017_Nov_22_1229,60.0204444676,MAFE4ImagesEEG,001,202414,
AFNE23.JPG,AFNE24.JPG,AFNE22.JPG,AFSA24.JPG,AFSA22.JPG,AFSA23.JPG,,,,,,,,,0,0,0,8,,,,,,,,,,,,,,,AMNE12.jpg,AMSA07.jpg,AMNE19.jpg,AMSA16.jpg,AMSA07.jpg,MS,2,num_6,16,num_6,0.500139842305,,,2017_Nov_22_1229,60.0204444676,MAFE4ImagesEEG,001,202414,
AFSA25.JPG,AFNE24.JPG,AFSA24.JPG,AFNE21.JPG,AFSA21.JPG,AFNE25.JPG,,,,,,,,,0,1,1,2,,,,,,,,,,,,,,,AMNE08.jpg,AMNE19.jpg,AMSA19.jpg,AMSA14.jpg,AMNE19.jpg,MN,1,num_6,16,num_6,0.633502876066,,,2017_Nov_22_1229,60.0204444676,MAFE4ImagesEEG,001,202414,
AFSA21.JPG,AFNE22.JPG,AFNE21.JPG,AFSA23.JPG,AFSA22.JPG,AFNE23.JPG,,,,,,,,,0,2,2,0,,,,,,,,,,,,,,,AMNE08.jpg,AMSA20.jpg,AMNE06.jpg,AMSA17.jpg,AMNE08.jpg,MN,1,num_8,32,num_4,0.850149047503,,,2017_Nov_22_1229,60.0204444676,MAFE4ImagesEEG,001,202414,
AFNE22.JPG,AFSA24.JPG,AFSA22.JPG,AFNE25.JPG,AFNE24.JPG,AFSA25.JPG,,,,,,,,,0,3,3,6,,,,,,,,,,,,,,,AMNE14.jpg,AMSA08.jpg,AMSA09.jpg,AMNE18.jpg,AMSA09.jpg,MS,2,num_2,16,num_2,0.666619518015,,,2017_Nov_22_1229,60.0204444676,MAFE4ImagesEEG,001,202414,
AMSA21.JPG,AMNE23.JPG,AMNE21.JPG,AMSA25.JPG,AMNE25.JPG,AMSA23.JPG,,,,,,,,,0,4,4,5,,,,,,,,,,,,,,,AMNE04.jpg,AMNE20.jpg,AMSA07.jpg,AMSA20.jpg,AMSA20.jpg,MS,2,num_4,32,num_6,0.933482541208,,,2017_Nov_22_1229,60.0204444676,MAFE4ImagesEEG,001,202414,
AMNE22.JPG,AMSA24.JPG,AMSA22.JPG,AMNE25.JPG,AMNE24.JPG,AMSA25.JPG,,,,,,,,,0,5,5,7,,,,,,,,,,,,,,,AMSA14.jpg,AMNE08.jpg,AMNE04.jpg,AMSA10.jpg,AMNE04.jpg,MN,1,num_2,16,num_2,0.583471090824,,,2017_Nov_22_1229,60.0204444676,MAFE4ImagesEEG,001,202414,
AMNE23.JPG,AMNE24.JPG,AMNE22.JPG,AMSA24.JPG,AMSA22.JPG,AMSA23.JPG,,,,,,,,,0,6,6,9,,,,,,,,,,,,,,,AMNE07.jpg,AMSA15.jpg,AMNE20.jpg,AMSA17.jpg,AMSA15.jpg,MS,2,num_6,16,num_6,0.650162069505,,,2017_Nov_22_1229,60.0204444676,MAFE4ImagesEEG,001,202414,
AMSA21.JPG,AMNE22.JPG,AMNE21.JPG,AMSA23.JPG,AMSA22.JPG,AMNE23.JPG,,,,,,,,,0,7,7,1,,,,,,,,,,,,,,,AMSA20.jpg,AMNE07.jpg,AMSA05.jpg,AMNE14.jpg,AMNE14.jpg,MN,1,num_4,16,num_4,0.933484465641,,,2017_Nov_22_1229,60.0204444676,MAFE4ImagesEEG,001,202414,
AFSA21.JPG,AFNE23.JPG,AFNE21.JPG,AFSA25.JPG,AFNE25.JPG,AFSA23.JPG,,,,,,,,,0,8,8,4,,,,,,,,,,,,,,,AMSA06.jpg,AMNE17.jpg,AMSA05.jpg,AMNE20.jpg,AMSA06.jpg,MS,2,num_8,32,num_4,0.700213099102,,,2017_Nov_22_1229,60.0204444676,MAFE4ImagesEEG,001,202414,
AMSA25.JPG,AMNE24.JPG,AMSA24.JPG,AMNE26.JPG,AMSA21.JPG,AMNE25.JPG,,,,,,,,,0,9,9,3,,,,,,,,,,,,,,,AMSA05.jpg,AMSA19.jpg,AMNE02.jpg,AMNE20.jpg,AMSA05.jpg,MS,2,num_8,32,num_6,0.666789509763,,,2017_Nov_22_1229,60.0204444676,MAFE4ImagesEEG,001,202414,
AFNE23.JPG,AFNE24.JPG,AFNE22.JPG,AFSA24.JPG,AFSA22.JPG,AFSA23.JPG,,,,,,,,,,,,,0,0,0,8,,,,,,,,,,,AFNE09.jpg,AFNE08.jpg,AFSA07.jpg,AFSA17.jpg,AFNE09.jpg,FN,3,num_8,16,num_8,1.20008352047,,,2017_Nov_22_1229,60.0204444676,MAFE4ImagesEEG,001,202414,
AFNE22.JPG,AFSA24.JPG,AFSA22.JPG,AFNE25.JPG,AFNE24.JPG,AFSA25.JPG,,,,,,,,,,,,,0,1,1,6,,,,,,,,,,,AFSA13.jpg,AFSA11.jpg,AFNE07.jpg,AFNE17.jpg,AFNE17.jpg,FN,3,num_4,16,num_4,0.833418649971,,,2017_Nov_22_1229,60.0204444676,MAFE4ImagesEEG,001,202414,
AFSA25.JPG,AFNE24.JPG,AFSA24.JPG,AFNE21.JPG,AFSA21.JPG,AFNE25.JPG,,,,,,,,,,,,,0,2,2,2,,,,,,,,,,,AFNE02.jpg,AFSA09.jpg,AFSA01.jpg,AFNE16.jpg,AFNE02.jpg,FN,3,num_8,16,num_8,1.15006616851,,,2017_Nov_22_1229,60.0204444676,MAFE4ImagesEEG,001,202414,
AMSA21.JPG,AMNE22.JPG,AMNE21.JPG,AMSA23.JPG,AMSA22.JPG,AMNE23.JPG,,,,,,,,,,,,,0,3,3,1,,,,,,,,,,,AFNE15.jpg,AFNE06.jpg,AFSA03.jpg,AFSA07.jpg,AFNE06.jpg,FN,3,num_6,16,num_6,0.716855293373,,,2017_Nov_22_1229,60.0204444676,MAFE4ImagesEEG,001,202414,
AMSA21.JPG,AMNE23.JPG,AMNE21.JPG,AMSA25.JPG,AMNE25.JPG,AMSA23.JPG,,,,,,,,,,,,,0,4,4,5,,,,,,,,,,,AFNE20.jpg,AFSA03.jpg,AFSA06.jpg,AFNE18.jpg,AFSA03.jpg,FS,4,num_6,32,num_8,0.583511824691,,,2017_Nov_22_1229,60.0204444676,MAFE4ImagesEEG,001,202414,
AFSA21.JPG,AFNE23.JPG,AFNE21.JPG,AFSA25.JPG,AFNE25.JPG,AFSA23.JPG,,,,,,,,,,,,,0,5,5,4,,,,,,,,,,,AFSA12.jpg,AFNE03.jpg,AFNE13.jpg,AFSA06.jpg,AFSA12.jpg,FS,4,num_8,32,num_6,0.683488154144,,,2017_Nov_22_1229,60.0204444676,MAFE4ImagesEEG,001,202414,
AMNE22.JPG,AMSA24.JPG,AMSA22.JPG,AMNE25.JPG,AMNE24.JPG,AMSA25.JPG,,,,,,,,,,,,,0,6,6,7,,,,,,,,,,,AFSA02.jpg,AFNE03.jpg,AFNE17.jpg,AFSA12.jpg,AFNE03.jpg,FN,3,num_6,16,num_6,0.850138783862,,,2017_Nov_22_1229,60.0204444676,MAFE4ImagesEEG,001,202414,
AFSA21.JPG,AFNE22.JPG,AFNE21.JPG,AFSA23.JPG,AFSA22.JPG,AFNE23.JPG,,,,,,,,,,,,,0,7,7,0,,,,,,,,,,,AFNE03.jpg,AFSA20.jpg,AFNE13.jpg,AFSA02.jpg,AFNE13.jpg,FN,3,num_2,16,num_2,0.616842399642,,,2017_Nov_22_1229,60.0204444676,MAFE4ImagesEEG,001,202414,
AMNE23.JPG,AMNE24.JPG,AMNE22.JPG,AMSA24.JPG,AMSA22.JPG,AMSA23.JPG,,,,,,,,,,,,,0,8,8,9,,,,,,,,,,,AFNE10.jpg,AFSA18.jpg,AFNE01.jpg,AFSA19.jpg,AFNE10.jpg,FN,3,num_8,32,num_6,0.666825432563,,,2017_Nov_22_1229,60.0204444676,MAFE4ImagesEEG,001,202414,
AMSA25.JPG,AMNE24.JPG,AMSA24.JPG,AMNE26.JPG,AMSA21.JPG,AMNE25.JPG,,,,,,,,,,,,,0,9,9,3,,,,,,,,,,,AFSA19.jpg,AFNE20.jpg,AFSA04.jpg,AFNE19.jpg,AFNE20.jpg,FN,3,num_6,16,num_6,0.800154147262,,,2017_Nov_22_1229,60.0204444676,MAFE4ImagesEEG,001,202414,
AFSA25.JPG,AFNE24.JPG,AFSA24.JPG,AFNE21.JPG,AFSA21.JPG,AFNE25.JPG,,,,,,,,,,,,,,,,,0,0,0,2,,,,,,,AMSA01.jpg,AMNE08.jpg,AMSA16.jpg,AMNE19.jpg,AMSA01.jpg,MS,2,num_8,16,num_8,0.850150009705,,,2017_Nov_22_1229,60.0204444676,MAFE4ImagesEEG,001,202414,
AMSA25.JPG,AMNE24.JPG,AMSA24.JPG,AMNE26.JPG,AMSA21.JPG,AMNE25.JPG,,,,,,,,,,,,,,,,,0,1,1,3,,,,,,,AMNE07.jpg,AMNE06.jpg,AMSA05.jpg,AMSA19.jpg,AMNE06.jpg,MN,1,num_6,16,num_6,1.18346634388,,,2017_Nov_22_1229,60.0204444676,MAFE4ImagesEEG,001,202414,
AFNE23.JPG,AFNE24.JPG,AFNE22.JPG,AFSA24.JPG,AFSA22.JPG,AFSA23.JPG,,,,,,,,,,,,,,,,,0,2,2,8,,,,,,,AMSA12.jpg,AMSA20.jpg,AMNE11.jpg,AMNE06.jpg,AMNE11.jpg,MN,1,num_2,16,num_2,0.84979302701,,,2017_Nov_22_1229,60.0204444676,MAFE4ImagesEEG,001,202414,
AFSA21.JPG,AFNE22.JPG,AFNE21.JPG,AFSA23.JPG,AFSA22.JPG,AFNE23.JPG,,,,,,,,,,,,,,,,,0,3,3,0,,,,,,,AMSA19.jpg,AMNE02.jpg,AMNE11.jpg,AMSA04.jpg,AMNE02.jpg,MN,1,num_6,32,num_4,0.766813950089,,,2017_Nov_22_1229,60.0204444676,MAFE4ImagesEEG,001,202414,
AMSA21.JPG,AMNE22.JPG,AMNE21.JPG,AMSA23.JPG,AMSA22.JPG,AMNE23.JPG,,,,,,,,,,,,,,,,,0,4,4,1,,,,,,,AMSA06.jpg,AMNE09.jpg,AMNE13.jpg,AMSA13.jpg,AMNE13.jpg,MN,1,num_2,32,num_6,0.850114407658,,,2017_Nov_22_1229,60.0204444676,MAFE4ImagesEEG,001,202414,
AFNE22.JPG,AFSA24.JPG,AFSA22.JPG,AFNE25.JPG,AFNE24.JPG,AFSA25.JPG,,,,,,,,,,,,,,,,,0,5,5,6,,,,,,,AMSA03.jpg,AMSA08.jpg,AMNE13.jpg,AMNE17.jpg,AMNE17.jpg,MN,1,num_4,32,num_6,0.783485010877,,,2017_Nov_22_1229,60.0204444676,MAFE4ImagesEEG,001,202414,
AFSA21.JPG,AFNE23.JPG,AFNE21.JPG,AFSA25.JPG,AFNE25.JPG,AFSA23.JPG,,,,,,,,,,,,,,,,,0,6,6,4,,,,,,,AMNE08.jpg,AMSA14.jpg,AMSA12.jpg,AMNE05.jpg,AMNE08.jpg,MN,1,num_8,16,num_8,0.866784185491,,,2017_Nov_22_1229,60.0204444676,MAFE4ImagesEEG,001,202414,
AMNE22.JPG,AMSA24.JPG,AMSA22.JPG,AMNE25.JPG,AMNE24.JPG,AMSA25.JPG,,,,,,,,,,,,,,,,,0,7,7,7,,,,,,,AMNE05.jpg,AMNE15.jpg,AMSA02.jpg,AMSA05.jpg,AMSA05.jpg,MS,2,num_4,32,num_6,0.700206684327,,,2017_Nov_22_1229,60.0204444676,MAFE4ImagesEEG,001,202414,
AMSA21.JPG,AMNE23.JPG,AMNE21.JPG,AMSA25.JPG,AMNE25.JPG,AMSA23.JPG,,,,,,,,,,,,,,,,,0,8,8,5,,,,,,,AMNE19.jpg,AMSA10.jpg,AMSA02.jpg,AMNE02.jpg,AMNE19.jpg,MN,1,num_8,16,num_8,0.783480199811,,,2017_Nov_22_1229,60.0204444676,MAFE4ImagesEEG,001,202414,
AMNE23.JPG,AMNE24.JPG,AMNE22.JPG,AMSA24.JPG,AMSA22.JPG,AMSA23.JPG,,,,,,,,,,,,,,,,,0,9,9,9,,,,,,,AMNE17.jpg,AMSA06.jpg,AMSA11.jpg,AMNE02.jpg,AMSA11.jpg,MS,2,num_2,16,num_2,0.466837492364,,,2017_Nov_22_1229,60.0204444676,MAFE4ImagesEEG,001,202414,
AMNE22.JPG,AMSA24.JPG,AMSA22.JPG,AMNE25.JPG,AMNE24.JPG,AMSA25.JPG,,,,,,,,,,,,,,,,,,,,,0,0,0,7,,,AFSA09.jpg,AFNE17.jpg,AFSA01.jpg,AFNE06.jpg,AFSA01.jpg,FS,4,num_2,32,num_4,0.883458132972,,,2017_Nov_22_1229,60.0204444676,MAFE4ImagesEEG,001,202414,
AMSA21.JPG,AMNE23.JPG,AMNE21.JPG,AMSA25.JPG,AMNE25.JPG,AMSA23.JPG,,,,,,,,,,,,,,,,,,,,,0,1,1,5,,,AFNE18.jpg,AFNE11.jpg,AFSA16.jpg,AFSA01.jpg,AFNE18.jpg,FN,3,num_8,16,num_8,1.30011148893,,,2017_Nov_22_1229,60.0204444676,MAFE4ImagesEEG,001,202414,
AFSA21.JPG,AFNE23.JPG,AFNE21.JPG,AFSA25.JPG,AFNE25.JPG,AFSA23.JPG,,,,,,,,,,,,,,,,,,,,,0,2,2,4,,,AFSA03.jpg,AFNE16.jpg,AFSA12.jpg,AFNE05.jpg,AFNE16.jpg,FN,3,num_6,16,num_6,1.51689429526,,,2017_Nov_22_1229,60.0204444676,MAFE4ImagesEEG,001,202414,
AMNE23.JPG,AMNE24.JPG,AMNE22.JPG,AMSA24.JPG,AMSA22.JPG,AMSA23.JPG,,,,,,,,,,,,,,,,,,,,,0,3,3,9,,,AFNE05.jpg,AFSA01.jpg,AFSA19.jpg,AFNE14.jpg,AFNE05.jpg,FN,3,num_8,32,num_6,0.900150041794,,,2017_Nov_22_1229,60.0204444676,MAFE4ImagesEEG,001,202414,
AFSA21.JPG,AFNE22.JPG,AFNE21.JPG,AFSA23.JPG,AFSA22.JPG,AFNE23.JPG,,,,,,,,,,,,,,,,,,,,,0,4,4,0,,,AFNE15.jpg,AFSA06.jpg,AFNE10.jpg,AFSA11.jpg,AFSA06.jpg,FS,4,num_6,16,num_6,1.03347619055,,,2017_Nov_22_1229,60.0204444676,MAFE4ImagesEEG,001,202414,
AFNE22.JPG,AFSA24.JPG,AFSA22.JPG,AFNE25.JPG,AFNE24.JPG,AFSA25.JPG,,,,,,,,,,,,,,,,,,,,,0,5,5,6,,,AFNE02.jpg,AFSA20.jpg,AFSA16.jpg,AFNE16.jpg,AFSA20.jpg,FS,4,num_6,32,num_8,0.716814559506,,,2017_Nov_22_1229,60.0204444676,MAFE4ImagesEEG,001,202414,
AMSA21.JPG,AMNE22.JPG,AMNE21.JPG,AMSA23.JPG,AMSA22.JPG,AMNE23.JPG,,,,,,,,,,,,,,,,,,,,,0,6,6,1,,,AFNE11.jpg,AFNE13.jpg,AFSA05.jpg,AFSA14.jpg,AFNE13.jpg,FN,3,num_6,32,num_2,0.783448446629,,,2017_Nov_22_1229,60.0204444676,MAFE4ImagesEEG,001,202414,
AMSA25.JPG,AMNE24.JPG,AMSA24.JPG,AMNE26.JPG,AMSA21.JPG,AMNE25.JPG,,,,,,,,,,,,,,,,,,,,,0,7,7,3,,,AFNE02.jpg,AFNE19.jpg,AFSA20.jpg,AFSA01.jpg,AFNE02.jpg,FN,3,num_8,16,num_8,0.483451782318,,,2017_Nov_22_1229,60.0204444676,MAFE4ImagesEEG,001,202414,
AFNE23.JPG,AFNE24.JPG,AFNE22.JPG,AFSA24.JPG,AFSA22.JPG,AFSA23.JPG,,,,,,,,,,,,,,,,,,,,,0,8,8,8,,,AFNE15.jpg,AFSA02.jpg,AFNE18.jpg,AFSA18.jpg,AFNE15.jpg,FN,3,num_8,32,num_4,0.766774499178,,,2017_Nov_22_1229,60.0204444676,MAFE4ImagesEEG,001,202414,
AFSA25.JPG,AFNE24.JPG,AFSA24.JPG,AFNE21.JPG,AFSA21.JPG,AFNE25.JPG,,,,,,,,,,,,,,,,,,,,,0,9,9,2,,,AFSA03.jpg,AFNE08.jpg,AFSA12.jpg,AFNE19.jpg,AFNE19.jpg,FN,3,num_4,32,num_6,0.700167233415,,,2017_Nov_22_1229,60.0204444676,MAFE4ImagesEEG,001,202414,
,,,,,,,,,,,,,,,,,,,,,,,,,,,,,,,,,,,,,,,,,,,space,19.8153244694,2017_Nov_22_1229,60.0204444676,MAFE4ImagesEEG,001,202414,
AFNE01.JPG,AFNE01.JPG,AFNE01.JPG,AFNE01.JPG,AFNE01.JPG,AFNE01.JPG,0,0,0,9,,,,,,,,,,,,,,,,,,,,,,,AMNE13.jpg,AMNE05.jpg,AMSA16.jpg,AMSA07.jpg,AMNE05.jpg,MN,1,num_6,32,num_2,0.583533955709,,,2017_Nov_22_1229,60.0204444676,MAFE4ImagesEEG,001,202414,
AFNE01.JPG,AFNE01.JPG,AFNE01.JPG,AFNE01.JPG,AFNE01.JPG,AFNE01.JPG,0,1,1,3,,,,,,,,,,,,,,,,,,,,,,,AMSA03.jpg,AMNE15.jpg,AMSA16.jpg,AMNE18.jpg,AMNE15.jpg,MN,1,num_6,16,num_6,0.816652650392,,,2017_Nov_22_1229,60.0204444676,MAFE4ImagesEEG,001,202414,
AFNE01.JPG,AFNE01.JPG,AFNE01.JPG,AFNE01.JPG,AFNE01.JPG,AFNE01.JPG,0,2,2,0,,,,,,,,,,,,,,,,,,,,,,,AMNE09.jpg,AMSA13.jpg,AMNE08.jpg,AMSA16.jpg,AMNE08.jpg,MN,1,num_2,32,num_4,0.850145519391,,,2017_Nov_22_1229,60.0204444676,MAFE4ImagesEEG,001,202414,
AFNE01.JPG,AFNE01.JPG,AFNE01.JPG,AFNE01.JPG,AFNE01.JPG,AFNE01.JPG,0,3,3,2,,,,,,,,,,,,,,,,,,,,,,,AMNE18.jpg,AMSA08.jpg,AMSA05.jpg,AMNE06.jpg,AMSA08.jpg,MS,2,num_6,16,num_6,0.80047809385,,,2017_Nov_22_1229,60.0204444676,MAFE4ImagesEEG,001,202414,
AFNE01.JPG,AFNE01.JPG,AFNE01.JPG,AFNE01.JPG,AFNE01.JPG,AFNE01.JPG,0,4,4,1,,,,,,,,,,,,,,,,,,,,,,,AMSA10.jpg,AMNE13.jpg,AMSA09.jpg,AMNE19.jpg,AMNE19.jpg,MN,1,num_4,32,num_8,0.666788868286,,,2017_Nov_22_1229,60.0204444676,MAFE4ImagesEEG,001,202414,
AFNE01.JPG,AFNE01.JPG,AFNE01.JPG,AFNE01.JPG,AFNE01.JPG,AFNE01.JPG,0,5,5,8,,,,,,,,,,,,,,,,,,,,,,,AMSA02.jpg,AMSA17.jpg,AMNE15.jpg,AMNE19.jpg,AMSA17.jpg,MS,2,num_6,16,num_6,0.64982465186,,,2017_Nov_22_1229,60.0204444676,MAFE4ImagesEEG,001,202414,
AFNE01.JPG,AFNE01.JPG,AFNE01.JPG,AFNE01.JPG,AFNE01.JPG,AFNE01.JPG,0,6,6,5,,,,,,,,,,,,,,,,,,,,,,,AMNE14.jpg,AMSA12.jpg,AMNE07.jpg,AMSA16.jpg,AMNE07.jpg,MN,1,num_2,16,num_2,1.85000535633,,,2017_Nov_22_1229,60.0204444676,MAFE4ImagesEEG,001,202414,
AFNE01.JPG,AFNE01.JPG,AFNE01.JPG,AFNE01.JPG,AFNE01.JPG,AFNE01.JPG,0,7,7,4,,,,,,,,,,,,,,,,,,,,,,,AMSA12.jpg,AMSA17.jpg,AMNE11.jpg,AMNE09.jpg,AMNE09.jpg,MN,1,num_4,16,num_4,1.01662102548,,,2017_Nov_22_1229,60.0204444676,MAFE4ImagesEEG,001,202414,
AFNE01.JPG,AFNE01.JPG,AFNE01.JPG,AFNE01.JPG,AFNE01.JPG,AFNE01.JPG,0,8,8,7,,,,,,,,,,,,,,,,,,,,,,,AMNE19.jpg,AMNE09.jpg,AMSA19.jpg,AMSA13.jpg,AMNE09.jpg,MN,1,num_6,16,num_6,1.26660033781,,,2017_Nov_22_1229,60.0204444676,MAFE4ImagesEEG,001,202414,
AFNE01.JPG,AFNE01.JPG,AFNE01.JPG,AFNE01.JPG,AFNE01.JPG,AFNE01.JPG,0,9,9,6,,,,,,,,,,,,,,,,,,,,,,,AMSA18.jpg,AMSA19.jpg,AMNE07.jpg,AMNE01.jpg,AMSA19.jpg,MS,2,num_6,32,num_4,0.750113702059,,,2017_Nov_22_1229,60.0204444676,MAFE4ImagesEEG,001,202414,
AFNE01.JPG,AFNE01.JPG,AFNE01.JPG,AFNE01.JPG,AFNE01.JPG,AFNE01.JPG,1,0,10,2,,,,,,,,,,,,,,,,,,,,,,,AMNE07.jpg,AMNE12.jpg,AMSA01.jpg,AMSA10.jpg,AMNE12.jpg,MN,1,num_6,32,num_8,0.91680891448,,,2017_Nov_22_1229,60.0204444676,MAFE4ImagesEEG,001,202414,
AFNE01.JPG,AFNE01.JPG,AFNE01.JPG,AFNE01.JPG,AFNE01.JPG,AFNE01.JPG,1,1,11,0,,,,,,,,,,,,,,,,,,,,,,,AMSA15.jpg,AMNE11.jpg,AMNE10.jpg,AMSA20.jpg,AMSA15.jpg,MS,2,num_8,32,num_4,0.933780828636,,,2017_Nov_22_1229,60.0204444676,MAFE4ImagesEEG,001,202414,
AFNE01.JPG,AFNE01.JPG,AFNE01.JPG,AFNE01.JPG,AFNE01.JPG,AFNE01.JPG,1,2,12,1,,,,,,,,,,,,,,,,,,,,,,,AMNE04.jpg,AMSA19.jpg,AMSA10.jpg,AMNE09.jpg,AMNE04.jpg,MN,1,num_8,16,num_8,1.63342654012,,,2017_Nov_22_1229,60.0204444676,MAFE4ImagesEEG,001,202414,
AFNE01.JPG,AFNE01.JPG,AFNE01.JPG,AFNE01.JPG,AFNE01.JPG,AFNE01.JPG,1,3,13,5,,,,,,,,,,,,,,,,,,,,,,,AMSA01.jpg,AMSA05.jpg,AMNE01.jpg,AMNE17.jpg,AMNE01.jpg,MN,1,num_2,32,num_8,0.833455855696,,,2017_Nov_22_1229,60.0204444676,MAFE4ImagesEEG,001,202414,
AFNE01.JPG,AFNE01.JPG,AFNE01.JPG,AFNE01.JPG,AFNE01.JPG,AFNE01.JPG,1,4,14,8,,,,,,,,,,,,,,,,,,,,,,,AMNE03.jpg,AMSA17.jpg,AMSA12.jpg,AMNE15.jpg,AMNE15.jpg,MN,1,num_4,16,num_4,0.51683207188,,,2017_Nov_22_1229,60.0204444676,MAFE4ImagesEEG,001,202414,
AFNE01.JPG,AFNE01.JPG,AFNE01.JPG,AFNE01.JPG,AFNE01.JPG,AFNE01.JPG,1,5,15,6,,,,,,,,,,,,,,,,,,,,,,,AMSA06.jpg,AMNE16.jpg,AMNE11.jpg,AMSA14.jpg,AMSA06.jpg,MS,2,num_8,32,num_6,0.766779631027,,,2017_Nov_22_1229,60.0204444676,MAFE4ImagesEEG,001,202414,
AFNE01.JPG,AFNE01.JPG,AFNE01.JPG,AFNE01.JPG,AFNE01.JPG,AFNE01.JPG,1,6,16,9,,,,,,,,,,,,,,,,,,,,,,,AMNE10.jpg,AMSA11.jpg,AMNE03.jpg,AMSA18.jpg,AMNE10.jpg,MN,1,num_8,32,num_6,1.05012896925,,,2017_Nov_22_1229,60.0204444676,MAFE4ImagesEEG,001,202414,
AFNE01.JPG,AFNE01.JPG,AFNE01.JPG,AFNE01.JPG,AFNE01.JPG,AFNE01.JPG,1,7,17,3,,,,,,,,,,,,,,,,,,,,,,,AMSA04.jpg,AMSA17.jpg,AMNE06.jpg,AMNE09.jpg,AMNE09.jpg,MN,1,num_4,32,num_2,1.08346467602,,,2017_Nov_22_1229,60.0204444676,MAFE4ImagesEEG,001,202414,
AFNE01.JPG,AFNE01.JPG,AFNE01.JPG,AFNE01.JPG,AFNE01.JPG,AFNE01.JPG,1,8,18,4,,,,,,,,,,,,,,,,,,,,,,,AMNE05.jpg,AMNE01.jpg,AMSA19.jpg,AMSA11.jpg,AMNE05.jpg,MN,1,num_8,32,num_2,1.80006754768,,,2017_Nov_22_1229,60.0204444676,MAFE4ImagesEEG,001,202414,
AFNE01.JPG,AFNE01.JPG,AFNE01.JPG,AFNE01.JPG,AFNE01.JPG,AFNE01.JPG,1,9,19,7,,,,,,,,,,,,,,,,,,,,,,,AMNE06.jpg,AMSA12.jpg,AMNE12.jpg,AMSA03.jpg,AMSA12.jpg,MS,2,num_6,32,num_2,1.96670695153,,,2017_Nov_22_1229,60.0204444676,MAFE4ImagesEEG,001,202414,
AFNE01.JPG,AFNE01.JPG,AFNE01.JPG,AFNE01.JPG,AFNE01.JPG,AFNE01.JPG,2,0,20,8,,,,,,,,,,,,,,,,,,,,,,,AMSA05.jpg,AMNE08.jpg,AMNE14.jpg,AMSA01.jpg,AMNE08.jpg,MN,1,num_6,32,num_8,0.766847627732,,,2017_Nov_22_1229,60.0204444676,MAFE4ImagesEEG,001,202414,
AFNE01.JPG,AFNE01.JPG,AFNE01.JPG,AFNE01.JPG,AFNE01.JPG,AFNE01.JPG,2,1,21,6,,,,,,,,,,,,,,,,,,,,,,,AMSA09.jpg,AMNE02.jpg,AMNE13.jpg,AMSA10.jpg,AMNE13.jpg,MN,1,num_2,32,num_6,0.650121014914,,,2017_Nov_22_1229,60.0204444676,MAFE4ImagesEEG,001,202414,
AFNE01.JPG,AFNE01.JPG,AFNE01.JPG,AFNE01.JPG,AFNE01.JPG,AFNE01.JPG,2,2,22,2,,,,,,,,,,,,,,,,,,,,,,,AMSA15.jpg,AMNE20.jpg,AMSA10.jpg,AMNE14.jpg,AMSA15.jpg,MS,2,num_8,16,num_8,0.600110077707,,,2017_Nov_22_1229,60.0204444676,MAFE4ImagesEEG,001,202414,
AFNE01.JPG,AFNE01.JPG,AFNE01.JPG,AFNE01.JPG,AFNE01.JPG,AFNE01.JPG,2,3,23,7,,,,,,,,,,,,,,,,,,,,,,,AMNE02.jpg,AMSA18.jpg,AMSA15.jpg,AMNE13.jpg,AMNE13.jpg,MN,1,num_4,32,num_8,0.650148598477,,,2017_Nov_22_1229,60.0204444676,MAFE4ImagesEEG,001,202414,
AFNE01.JPG,AFNE01.JPG,AFNE01.JPG,AFNE01.JPG,AFNE01.JPG,AFNE01.JPG,2,4,24,5,,,,,,,,,,,,,,,,,,,,,,,AMNE15.jpg,AMSA15.jpg,AMSA05.jpg,AMNE02.jpg,AMSA05.jpg,MS,2,num_2,16,num_2,0.666832488816,,,2017_Nov_22_1229,60.0204444676,MAFE4ImagesEEG,001,202414,
AFNE01.JPG,AFNE01.JPG,AFNE01.JPG,AFNE01.JPG,AFNE01.JPG,AFNE01.JPG,2,5,25,0,,,,,,,,,,,,,,,,,,,,,,,AMNE17.jpg,AMSA08.jpg,AMSA09.jpg,AMNE09.jpg,AMNE09.jpg,MN,1,num_4,32,num_8,0.966930185998,,,2017_Nov_22_1229,60.0204444676,MAFE4ImagesEEG,001,202414,
AFNE01.JPG,AFNE01.JPG,AFNE01.JPG,AFNE01.JPG,AFNE01.JPG,AFNE01.JPG,2,6,26,3,,,,,,,,,,,,,,,,,,,,,,,AMSA16.jpg,AMNE05.jpg,AMNE10.jpg,AMSA03.jpg,AMNE05.jpg,MN,1,num_6,16,num_6,1.11676029043,,,2017_Nov_22_1229,60.0204444676,MAFE4ImagesEEG,001,202414,
AFNE01.JPG,AFNE01.JPG,AFNE01.JPG,AFNE01.JPG,AFNE01.JPG,AFNE01.JPG,2,7,27,4,,,,,,,,,,,,,,,,,,,,,,,AMNE01.jpg,AMSA20.jpg,AMSA10.jpg,AMNE20.jpg,AMSA10.jpg,MS,2,num_2,16,num_2,0.783521575184,,,2017_Nov_22_1229,60.0204444676,MAFE4ImagesEEG,001,202414,
AFNE01.JPG,AFNE01.JPG,AFNE01.JPG,AFNE01.JPG,AFNE01.JPG,AFNE01.JPG,2,8,28,9,,,,,,,,,,,,,,,,,,,,,,,AMNE07.jpg,AMSA20.jpg,AMSA08.jpg,AMNE11.jpg,AMSA08.jpg,MS,2,num_2,32,num_6,0.916794801975,,,2017_Nov_22_1229,60.0204444676,MAFE4ImagesEEG,001,202414,
AFNE01.JPG,AFNE01.JPG,AFNE01.JPG,AFNE01.JPG,AFNE01.JPG,AFNE01.JPG,2,9,29,1,,,,,,,,,,,,,,,,,,,,,,,AMNE19.jpg,AMNE11.jpg,AMSA19.jpg,AMSA09.jpg,AMNE19.jpg,MN,1,num_8,32,num_4,0.816783832677,,,2017_Nov_22_1229,60.0204444676,MAFE4ImagesEEG,001,202414,
AFNE01.JPG,AFNE01.JPG,AFNE01.JPG,AFNE01.JPG,AFNE01.JPG,AFNE01.JPG,3,0,30,6,,,,,,,,,,,,,,,,,,,,,,,AMNE17.jpg,AMNE19.jpg,AMSA11.jpg,AMSA04.jpg,AMNE19.jpg,MN,1,num_6,32,num_8,0.633514743444,,,2017_Nov_22_1229,60.0204444676,MAFE4ImagesEEG,001,202414,
AFNE01.JPG,AFNE01.JPG,AFNE01.JPG,AFNE01.JPG,AFNE01.JPG,AFNE01.JPG,3,1,31,4,,,,,,,,,,,,,,,,,,,,,,,AMSA13.jpg,AMNE07.jpg,AMSA02.jpg,AMNE01.jpg,AMNE01.jpg,MN,1,num_4,16,num_4,0.516800960177,,,2017_Nov_22_1229,60.0204444676,MAFE4ImagesEEG,001,202414,
AFNE01.JPG,AFNE01.JPG,AFNE01.JPG,AFNE01.JPG,AFNE01.JPG,AFNE01.JPG,3,2,32,9,,,,,,,,,,,,,,,,,,,,,,,AMSA06.jpg,AMNE03.jpg,AMSA20.jpg,AMNE05.jpg,AMSA20.jpg,MS,2,num_2,32,num_6,1.0666098317,,,2017_Nov_22_1229,60.0204444676,MAFE4ImagesEEG,001,202414,
AFNE01.JPG,AFNE01.JPG,AFNE01.JPG,AFNE01.JPG,AFNE01.JPG,AFNE01.JPG,3,3,33,8,,,,,,,,,,,,,,,,,,,,,,,AMSA15.jpg,AMNE15.jpg,AMNE04.jpg,AMSA13.jpg,AMSA15.jpg,MS,2,num_8,32,num_4,1.83345296906,,,2017_Nov_22_1229,60.0204444676,MAFE4ImagesEEG,001,202414,
AFNE01.JPG,AFNE01.JPG,AFNE01.JPG,AFNE01.JPG,AFNE01.JPG,AFNE01.JPG,3,4,34,5,,,,,,,,,,,,,,,,,,,,,,,AMSA09.jpg,AMNE20.jpg,AMNE11.jpg,AMSA15.jpg,AMSA09.jpg,MS,2,num_8,16,num_8,0.900201680808,,,2017_Nov_22_1229,60.0204444676,MAFE4ImagesEEG,001,202414,
AFNE01.JPG,AFNE01.JPG,AFNE01.JPG,AFNE01.JPG,AFNE01.JPG,AFNE01.JPG,3,5,35,2,,,,,,,,,,,,,,,,,,,,,,,AMNE17.jpg,AMNE19.jpg,AMSA17.jpg,AMSA19.jpg,AMNE19.jpg,MN,1,num_6,16,num_6,0.78347923758,,,2017_Nov_22_1229,60.0204444676,MAFE4ImagesEEG,001,202414,
AFNE01.JPG,AFNE01.JPG,AFNE01.JPG,AFNE01.JPG,AFNE01.JPG,AFNE01.JPG,3,6,36,3,,,,,,,,,,,,,,,,,,,,,,,AMSA16.jpg,AMNE20.jpg,AMSA20.jpg,AMNE19.jpg,AMSA20.jpg,MS,2,num_2,16,num_2,0.900162550621,,,2017_Nov_22_1229,60.0204444676,MAFE4ImagesEEG,001,202414,
AFNE01.JPG,AFNE01.JPG,AFNE01.JPG,AFNE01.JPG,AFNE01.JPG,AFNE01.JPG,3,7,37,7,,,,,,,,,,,,,,,,,,,,,,,AMNE14.jpg,AMNE08.jpg,AMSA10.jpg,AMSA07.jpg,AMNE14.jpg,MN,1,num_8,16,num_8,0.800174033066,,,2017_Nov_22_1229,60.0204444676,MAFE4ImagesEEG,001,202414,
AFNE01.JPG,AFNE01.JPG,AFNE01.JPG,AFNE01.JPG,AFNE01.JPG,AFNE01.JPG,3,8,38,1,,,,,,,,,,,,,,,,,,,,,,,AMNE18.jpg,AMSA03.jpg,AMNE03.jpg,AMSA17.jpg,AMSA17.jpg,MS,2,num_4,32,num_2,0.933537066856,,,2017_Nov_22_1229,60.0204444676,MAFE4ImagesEEG,001,202414,
AFNE01.JPG,AFNE01.JPG,AFNE01.JPG,AFNE01.JPG,AFNE01.JPG,AFNE01.JPG,3,9,39,0,,,,,,,,,,,,,,,,,,,,,,,AMSA06.jpg,AMNE01.jpg,AMSA07.jpg,AMNE17.jpg,AMNE01.jpg,MN,1,num_6,16,num_6,0.500145936356,,,2017_Nov_22_1229,60.0204444676,MAFE4ImagesEEG,001,202414,
AFNE01.JPG,AFNE01.JPG,AFNE01.JPG,AFNE01.JPG,AFNE01.JPG,AFNE01.JPG,4,0,40,0,,,,,,,,,,,,,,,,,,,,,,,AMNE03.jpg,AMNE07.jpg,AMSA15.jpg,AMSA18.jpg,AMSA18.jpg,MS,2,num_4,16,num_4,0.900134004827,,,2017_Nov_22_1229,60.0204444676,MAFE4ImagesEEG,001,202414,
AFNE01.JPG,AFNE01.JPG,AFNE01.JPG,AFNE01.JPG,AFNE01.JPG,AFNE01.JPG,4,1,41,1,,,,,,,,,,,,,,,,,,,,,,,AMSA20.jpg,AMNE15.jpg,AMNE10.jpg,AMSA14.jpg,AMNE15.jpg,MN,1,num_6,16,num_6,0.91676529398,,,2017_Nov_22_1229,60.0204444676,MAFE4ImagesEEG,001,202414,
AFNE01.JPG,AFNE01.JPG,AFNE01.JPG,AFNE01.JPG,AFNE01.JPG,AFNE01.JPG,4,2,42,2,,,,,,,,,,,,,,,,,,,,,,,AMNE19.jpg,AMNE05.jpg,AMSA20.jpg,AMSA07.jpg,AMNE05.jpg,MN,1,num_6,32,num_8,0.81681494441,,,2017_Nov_22_1229,60.0204444676,MAFE4ImagesEEG,001,202414,
AFNE01.JPG,AFNE01.JPG,AFNE01.JPG,AFNE01.JPG,AFNE01.JPG,AFNE01.JPG,4,3,43,4,,,,,,,,,,,,,,,,,,,,,,,AMSA04.jpg,AMNE01.jpg,AMSA13.jpg,AMNE11.jpg,AMNE11.jpg,MN,1,num_4,32,num_6,0.833465157135,,,2017_Nov_22_1229,60.0204444676,MAFE4ImagesEEG,001,202414,
AFNE01.JPG,AFNE01.JPG,AFNE01.JPG,AFNE01.JPG,AFNE01.JPG,AFNE01.JPG,4,4,44,3,,,,,,,,,,,,,,,,,,,,,,,AMNE15.jpg,AMSA14.jpg,AMSA19.jpg,AMNE17.jpg,AMNE15.jpg,MN,1,num_8,32,num_4,1.20008608638,,,2017_Nov_22_1229,60.0204444676,MAFE4ImagesEEG,001,202414,
AFNE01.JPG,AFNE01.JPG,AFNE01.JPG,AFNE01.JPG,AFNE01.JPG,AFNE01.JPG,4,5,45,9,,,,,,,,,,,,,,,,,,,,,,,AMNE13.jpg,AMSA18.jpg,AMSA10.jpg,AMNE14.jpg,AMSA18.jpg,MS,2,num_6,16,num_6,0.949992911657,,,2017_Nov_22_1229,60.0204444676,MAFE4ImagesEEG,001,202414,
AFNE01.JPG,AFNE01.JPG,AFNE01.JPG,AFNE01.JPG,AFNE01.JPG,AFNE01.JPG,4,6,46,7,,,,,,,,,,,,,,,,,,,,,,,AMSA10.jpg,AMNE18.jpg,AMNE09.jpg,AMSA13.jpg,AMNE09.jpg,MN,1,num_2,16,num_2,0.616820589406,,,2017_Nov_22_1229,60.0204444676,MAFE4ImagesEEG,001,202414,
AFNE01.JPG,AFNE01.JPG,AFNE01.JPG,AFNE01.JPG,AFNE01.JPG,AFNE01.JPG,4,7,47,6,,,,,,,,,,,,,,,,,,,,,,,AMNE14.jpg,AMSA10.jpg,AMSA12.jpg,AMNE11.jpg,AMNE11.jpg,MN,1,num_4,32,num_2,1.40009455392,,,2017_Nov_22_1229,60.0204444676,MAFE4ImagesEEG,001,202414,
AFNE01.JPG,AFNE01.JPG,AFNE01.JPG,AFNE01.JPG,AFNE01.JPG,AFNE01.JPG,4,8,48,8,,,,,,,,,,,,,,,,,,,,,,,AMNE09.jpg,AMNE01.jpg,AMSA18.jpg,AMSA05.jpg,AMSA18.jpg,MS,2,num_2,32,num_8,0.783475709468,,,2017_Nov_22_1229,60.0204444676,MAFE4ImagesEEG,001,202414,
AFNE01.JPG,AFNE01.JPG,AFNE01.JPG,AFNE01.JPG,AFNE01.JPG,AFNE01.JPG,4,9,49,5,,,,,,,,,,,,,,,,,,,,,,,AMSA02.jpg,AMSA05.jpg,AMNE20.jpg,AMNE05.jpg,AMNE05.jpg,MN,1,num_4,32,num_6,0.600182564725,,,2017_Nov_22_1229,60.0204444676,MAFE4ImagesEEG,001,202414,
AFNE01.JPG,AFNE01.JPG,AFNE01.JPG,AFNE01.JPG,AFNE01.JPG,AFNE01.JPG,5,0,50,1,,,,,,,,,,,,,,,,,,,,,,,AMSA15.jpg,AMNE02.jpg,AMNE13.jpg,AMSA18.jpg,AMSA18.jpg,MS,2,num_4,16,num_4,0.600133812404,,,2017_Nov_22_1229,60.0204444676,MAFE4ImagesEEG,001,202414,
AFNE01.JPG,AFNE01.JPG,AFNE01.JPG,AFNE01.JPG,AFNE01.JPG,AFNE01.JPG,5,1,51,8,,,,,,,,,,,,,,,,,,,,,,,AMSA19.jpg,AMSA13.jpg,AMNE08.jpg,AMNE18.jpg,AMNE08.jpg,MN,1,num_2,32,num_6,0.800146770256,,,2017_Nov_22_1229,60.0204444676,MAFE4ImagesEEG,001,202414,
AFNE01.JPG,AFNE01.JPG,AFNE01.JPG,AFNE01.JPG,AFNE01.JPG,AFNE01.JPG,5,2,52,0,,,,,,,,,,,,,,,,,,,,,,,AMSA16.jpg,AMNE14.jpg,AMSA20.jpg,AMNE09.jpg,AMSA20.jpg,MS,2,num_2,16,num_2,0.883438888588,,,2017_Nov_22_1229,60.0204444676,MAFE4ImagesEEG,001,202414,
AFNE01.JPG,AFNE01.JPG,AFNE01.JPG,AFNE01.JPG,AFNE01.JPG,AFNE01.JPG,5,3,53,9,,,,,,,,,,,,,,,,,,,,,,,AMSA14.jpg,AMNE14.jpg,AMNE04.jpg,AMSA11.jpg,AMNE04.jpg,MN,1,num_2,32,num_6,0.650155013253,,,2017_Nov_22_1229,60.0204444676,MAFE4ImagesEEG,001,202414,
AFNE01.JPG,AFNE01.JPG,AFNE01.JPG,AFNE01.JPG,AFNE01.JPG,AFNE01.JPG,5,4,54,7,,,,,,,,,,,,,,,,,,,,,,,AMSA03.jpg,AMSA18.jpg,AMNE06.jpg,AMNE17.jpg,AMSA03.jpg,MS,2,num_8,32,num_6,0.766538114403,,,2017_Nov_22_1229,60.0204444676,MAFE4ImagesEEG,001,202414,
AFNE01.JPG,AFNE01.JPG,AFNE01.JPG,AFNE01.JPG,AFNE01.JPG,AFNE01.JPG,5,5,55,2,,,,,,,,,,,,,,,,,,,,,,,AMSA09.jpg,AMNE10.jpg,AMSA16.jpg,AMNE18.jpg,AMNE18.jpg,MN,1,num_4,32,num_8,0.716767090111,,,2017_Nov_22_1229,60.0204444676,MAFE4ImagesEEG,001,202414,
AFNE01.JPG,AFNE01.JPG,AFNE01.JPG,AFNE01.JPG,AFNE01.JPG,AFNE01.JPG,5,6,56,5,,,,,,,,,,,,,,,,,,,,,,,AMSA02.jpg,AMSA19.jpg,AMNE07.jpg,AMNE09.jpg,AMSA02.jpg,MS,2,num_8,32,num_6,0.650135768898,,,2017_Nov_22_1229,60.0204444676,MAFE4ImagesEEG,001,202414,
AFNE01.JPG,AFNE01.JPG,AFNE01.JPG,AFNE01.JPG,AFNE01.JPG,AFNE01.JPG,5,7,57,3,,,,,,,,,,,,,,,,,,,,,,,AMNE15.jpg,AMSA08.jpg,AMSA03.jpg,AMNE05.jpg,AMNE05.jpg,MN,1,num_4,32,num_6,0.766660316032,,,2017_Nov_22_1229,60.0204444676,MAFE4ImagesEEG,001,202414,
AFNE01.JPG,AFNE01.JPG,AFNE01.JPG,AFNE01.JPG,AFNE01.JPG,AFNE01.JPG,5,8,58,6,,,,,,,,,,,,,,,,,,,,,,,AMNE18.jpg,AMNE20.jpg,AMSA17.jpg,AMSA09.jpg,AMNE18.jpg,MN,1,num_8,16,num_8,1.31681975548,,,2017_Nov_22_1229,60.0204444676,MAFE4ImagesEEG,001,202414,
AFNE01.JPG,AFNE01.JPG,AFNE01.JPG,AFNE01.JPG,AFNE01.JPG,AFNE01.JPG,5,9,59,4,,,,,,,,,,,,,,,,,,,,,,,AMNE09.jpg,AMSA04.jpg,AMNE12.jpg,AMSA11.jpg,AMNE09.jpg,MN,1,num_8,16,num_8,0.800119507418,,,2017_Nov_22_1229,60.0204444676,MAFE4ImagesEEG,001,202414,
,,,,,,,,,,,,,,,,,,,,,,,,,,,,,,,,,,,,,,,,,,,space,22.6319986093,2017_Nov_22_1229,60.0204444676,MAFE4ImagesEEG,001,202414,
AFNE01.JPG,AFNE01.JPG,AFNE01.JPG,AFNE01.JPG,AFNE01.JPG,AFNE01.JPG,,,,,0,0,0,5,,,,,,,,,,,,,,,,,,,AFNE02.jpg,AFSA08.jpg,AFSA13.jpg,AFNE15.jpg,AFSA08.jpg,FS,4,num_6,16,num_6,1.15018804939,,,2017_Nov_22_1229,60.0204444676,MAFE4ImagesEEG,001,202414,
AFNE01.JPG,AFNE01.JPG,AFNE01.JPG,AFNE01.JPG,AFNE01.JPG,AFNE01.JPG,,,,,0,1,1,3,,,,,,,,,,,,,,,,,,,AFNE08.jpg,AFSA14.jpg,AFSA03.jpg,AFNE07.jpg,AFNE07.jpg,FN,3,num_4,32,num_8,0.716783447802,,,2017_Nov_22_1229,60.0204444676,MAFE4ImagesEEG,001,202414,
AFNE01.JPG,AFNE01.JPG,AFNE01.JPG,AFNE01.JPG,AFNE01.JPG,AFNE01.JPG,,,,,0,2,2,2,,,,,,,,,,,,,,,,,,,AFNE08.jpg,AFSA17.jpg,AFSA04.jpg,AFNE01.jpg,AFSA04.jpg,FS,4,num_2,32,num_6,1.86665396541,,,2017_Nov_22_1229,60.0204444676,MAFE4ImagesEEG,001,202414,
AFNE01.JPG,AFNE01.JPG,AFNE01.JPG,AFNE01.JPG,AFNE01.JPG,AFNE01.JPG,,,,,0,3,3,4,,,,,,,,,,,,,,,,,,,AFNE15.jpg,AFSA18.jpg,AFNE20.jpg,AFSA07.jpg,AFSA07.jpg,FS,4,num_4,32,num_8,0.633436803793,,,2017_Nov_22_1229,60.0204444676,MAFE4ImagesEEG,001,202414,
AFNE01.JPG,AFNE01.JPG,AFNE01.JPG,AFNE01.JPG,AFNE01.JPG,AFNE01.JPG,,,,,0,4,4,1,,,,,,,,,,,,,,,,,,,AFSA01.jpg,AFSA06.jpg,AFNE08.jpg,AFNE01.jpg,AFSA06.jpg,FS,4,num_6,32,num_2,0.616890831268,,,2017_Nov_22_1229,60.0204444676,MAFE4ImagesEEG,001,202414,
AFNE01.JPG,AFNE01.JPG,AFNE01.JPG,AFNE01.JPG,AFNE01.JPG,AFNE01.JPG,,,,,0,5,5,6,,,,,,,,,,,,,,,,,,,AFNE11.jpg,AFSA16.jpg,AFNE06.jpg,AFSA14.jpg,AFSA14.jpg,FS,4,num_4,32,num_6,0.666782774264,,,2017_Nov_22_1229,60.0204444676,MAFE4ImagesEEG,001,202414,
AFNE01.JPG,AFNE01.JPG,AFNE01.JPG,AFNE01.JPG,AFNE01.JPG,AFNE01.JPG,,,,,0,6,6,9,,,,,,,,,,,,,,,,,,,AFNE10.jpg,AFSA12.jpg,AFNE02.jpg,AFSA11.jpg,AFNE10.jpg,FN,3,num_8,16,num_8,0.750162133656,,,2017_Nov_22_1229,60.0204444676,MAFE4ImagesEEG,001,202414,
AFNE01.JPG,AFNE01.JPG,AFNE01.JPG,AFNE01.JPG,AFNE01.JPG,AFNE01.JPG,,,,,0,7,7,0,,,,,,,,,,,,,,,,,,,AFNE06.jpg,AFNE17.jpg,AFSA09.jpg,AFSA05.jpg,AFSA09.jpg,FS,4,num_2,16,num_2,0.600172621838,,,2017_Nov_22_1229,60.0204444676,MAFE4ImagesEEG,001,202414,
AFNE01.JPG,AFNE01.JPG,AFNE01.JPG,AFNE01.JPG,AFNE01.JPG,AFNE01.JPG,,,,,0,8,8,7,,,,,,,,,,,,,,,,,,,AFNE19.jpg,AFSA17.jpg,AFSA14.jpg,AFNE10.jpg,AFNE10.jpg,FN,3,num_4,16,num_4,0.750110815396,,,2017_Nov_22_1229,60.0204444676,MAFE4ImagesEEG,001,202414,
AFNE01.JPG,AFNE01.JPG,AFNE01.JPG,AFNE01.JPG,AFNE01.JPG,AFNE01.JPG,,,,,0,9,9,8,,,,,,,,,,,,,,,,,,,AFSA14.jpg,AFSA11.jpg,AFNE13.jpg,AFNE15.jpg,AFSA14.jpg,FS,4,num_8,16,num_8,0.93348703158,,,2017_Nov_22_1229,60.0204444676,MAFE4ImagesEEG,001,202414,
AFNE01.JPG,AFNE01.JPG,AFNE01.JPG,AFNE01.JPG,AFNE01.JPG,AFNE01.JPG,,,,,1,0,10,0,,,,,,,,,,,,,,,,,,,AFNE07.jpg,AFNE08.jpg,AFSA02.jpg,AFSA03.jpg,AFSA02.jpg,FS,4,num_2,32,num_6,1.13349806497,,,2017_Nov_22_1229,60.0204444676,MAFE4ImagesEEG,001,202414,
AFNE01.JPG,AFNE01.JPG,AFNE01.JPG,AFNE01.JPG,AFNE01.JPG,AFNE01.JPG,,,,,1,1,11,5,,,,,,,,,,,,,,,,,,,AFNE01.jpg,AFSA19.jpg,AFSA10.jpg,AFNE03.jpg,AFNE01.jpg,FN,3,num_8,32,num_2,0.80018557969,,,2017_Nov_22_1229,60.0204444676,MAFE4ImagesEEG,001,202414,
AFNE01.JPG,AFNE01.JPG,AFNE01.JPG,AFNE01.JPG,AFNE01.JPG,AFNE01.JPG,,,,,1,2,12,1,,,,,,,,,,,,,,,,,,,AFSA01.jpg,AFSA13.jpg,AFNE10.jpg,AFNE16.jpg,AFNE10.jpg,FN,3,num_2,16,num_2,0.600190583209,,,2017_Nov_22_1229,60.0204444676,MAFE4ImagesEEG,001,202414,
AFNE01.JPG,AFNE01.JPG,AFNE01.JPG,AFNE01.JPG,AFNE01.JPG,AFNE01.JPG,,,,,1,3,13,4,,,,,,,,,,,,,,,,,,,AFSA20.jpg,AFNE20.jpg,AFSA12.jpg,AFNE05.jpg,AFNE05.jpg,FN,3,num_4,16,num_4,0.916789670126,,,2017_Nov_22_1229,60.0204444676,MAFE4ImagesEEG,001,202414,
AFNE01.JPG,AFNE01.JPG,AFNE01.JPG,AFNE01.JPG,AFNE01.JPG,AFNE01.JPG,,,,,1,4,14,6,,,,,,,,,,,,,,,,,,,AFNE06.jpg,AFSA15.jpg,AFSA20.jpg,AFNE09.jpg,AFSA15.jpg,FS,4,num_6,16,num_6,1.15018163458,,,2017_Nov_22_1229,60.0204444676,MAFE4ImagesEEG,001,202414,
AFNE01.JPG,AFNE01.JPG,AFNE01.JPG,AFNE01.JPG,AFNE01.JPG,AFNE01.JPG,,,,,1,5,15,2,,,,,,,,,,,,,,,,,,,AFNE13.jpg,AFNE18.jpg,AFSA16.jpg,AFSA18.jpg,AFSA18.jpg,FS,4,num_4,16,num_4,0.68346217426,,,2017_Nov_22_1229,60.0204444676,MAFE4ImagesEEG,001,202414,
AFNE01.JPG,AFNE01.JPG,AFNE01.JPG,AFNE01.JPG,AFNE01.JPG,AFNE01.JPG,,,,,1,6,16,7,,,,,,,,,,,,,,,,,,,AFSA19.jpg,AFNE12.jpg,AFSA11.jpg,AFNE09.jpg,AFSA11.jpg,FS,4,num_2,16,num_2,1.01676054703,,,2017_Nov_22_1229,60.0204444676,MAFE4ImagesEEG,001,202414,
AFNE01.JPG,AFNE01.JPG,AFNE01.JPG,AFNE01.JPG,AFNE01.JPG,AFNE01.JPG,,,,,1,7,17,9,,,,,,,,,,,,,,,,,,,AFSA06.jpg,AFSA11.jpg,AFNE14.jpg,AFNE01.jpg,AFSA06.jpg,FS,4,num_8,32,num_4,0.783482765721,,,2017_Nov_22_1229,60.0204444676,MAFE4ImagesEEG,001,202414,
AFNE01.JPG,AFNE01.JPG,AFNE01.JPG,AFNE01.JPG,AFNE01.JPG,AFNE01.JPG,,,,,1,8,18,3,,,,,,,,,,,,,,,,,,,AFSA09.jpg,AFSA10.jpg,AFNE06.jpg,AFNE07.jpg,AFSA09.jpg,FS,4,num_8,16,num_8,1.13337618409,,,2017_Nov_22_1229,60.0204444676,MAFE4ImagesEEG,001,202414,
AFNE01.JPG,AFNE01.JPG,AFNE01.JPG,AFNE01.JPG,AFNE01.JPG,AFNE01.JPG,,,,,1,9,19,8,,,,,,,,,,,,,,,,,,,AFNE19.jpg,AFSA04.jpg,AFSA15.jpg,AFNE16.jpg,AFSA04.jpg,FS,4,num_6,32,num_2,1.33345874236,,,2017_Nov_22_1229,60.0204444676,MAFE4ImagesEEG,001,202414,
AFNE01.JPG,AFNE01.JPG,AFNE01.JPG,AFNE01.JPG,AFNE01.JPG,AFNE01.JPG,,,,,2,0,20,0,,,,,,,,,,,,,,,,,,,AFSA04.jpg,AFNE16.jpg,AFNE02.jpg,AFSA06.jpg,AFNE02.jpg,FN,3,num_2,32,num_6,0.500211046397,,,2017_Nov_22_1229,60.0204444676,MAFE4ImagesEEG,001,202414,
AFNE01.JPG,AFNE01.JPG,AFNE01.JPG,AFNE01.JPG,AFNE01.JPG,AFNE01.JPG,,,,,2,1,21,7,,,,,,,,,,,,,,,,,,,AFNE13.jpg,AFNE19.jpg,AFSA16.jpg,AFSA03.jpg,AFNE19.jpg,FN,3,num_6,32,num_4,0.850159311143,,,2017_Nov_22_1229,60.0204444676,MAFE4ImagesEEG,001,202414,
AFNE01.JPG,AFNE01.JPG,AFNE01.JPG,AFNE01.JPG,AFNE01.JPG,AFNE01.JPG,,,,,2,2,22,6,,,,,,,,,,,,,,,,,,,AFSA05.jpg,AFSA19.jpg,AFNE12.jpg,AFNE16.jpg,AFNE16.jpg,FN,3,num_4,32,num_8,0.466807342862,,,2017_Nov_22_1229,60.0204444676,MAFE4ImagesEEG,001,202414,
AFNE01.JPG,AFNE01.JPG,AFNE01.JPG,AFNE01.JPG,AFNE01.JPG,AFNE01.JPG,,,,,2,3,23,5,,,,,,,,,,,,,,,,,,,AFSA09.jpg,AFNE14.jpg,AFSA19.jpg,AFNE02.jpg,AFSA09.jpg,FS,4,num_8,32,num_2,0.783481482766,,,2017_Nov_22_1229,60.0204444676,MAFE4ImagesEEG,001,202414,
AFNE01.JPG,AFNE01.JPG,AFNE01.JPG,AFNE01.JPG,AFNE01.JPG,AFNE01.JPG,,,,,2,4,24,8,,,,,,,,,,,,,,,,,,,AFSA01.jpg,AFNE11.jpg,AFSA13.jpg,AFNE07.jpg,AFNE07.jpg,FN,3,num_4,32,num_6,1.26673568974,,,2017_Nov_22_1229,60.0204444676,MAFE4ImagesEEG,001,202414,
AFNE01.JPG,AFNE01.JPG,AFNE01.JPG,AFNE01.JPG,AFNE01.JPG,AFNE01.JPG,,,,,2,5,25,3,,,,,,,,,,,,,,,,,,,AFSA08.jpg,AFNE09.jpg,AFSA04.jpg,AFNE08.jpg,AFNE08.jpg,FN,3,num_4,32,num_8,0.766751726711,,,2017_Nov_22_1229,60.0204444676,MAFE4ImagesEEG,001,202414,
AFNE01.JPG,AFNE01.JPG,AFNE01.JPG,AFNE01.JPG,AFNE01.JPG,AFNE01.JPG,,,,,2,6,26,1,,,,,,,,,,,,,,,,,,,AFSA18.jpg,AFNE08.jpg,AFSA07.jpg,AFNE06.jpg,AFNE06.jpg,FN,3,num_4,32,num_2,0.600155943393,,,2017_Nov_22_1229,60.0204444676,MAFE4ImagesEEG,001,202414,
AFNE01.JPG,AFNE01.JPG,AFNE01.JPG,AFNE01.JPG,AFNE01.JPG,AFNE01.JPG,,,,,2,7,27,2,,,,,,,,,,,,,,,,,,,AFNE07.jpg,AFSA20.jpg,AFSA06.jpg,AFNE17.jpg,AFNE17.jpg,FN,3,num_4,16,num_4,1.0334312871,,,2017_Nov_22_1229,60.0204444676,MAFE4ImagesEEG,001,202414,
AFNE01.JPG,AFNE01.JPG,AFNE01.JPG,AFNE01.JPG,AFNE01.JPG,AFNE01.JPG,,,,,2,8,28,9,,,,,,,,,,,,,,,,,,,AFSA12.jpg,AFNE12.jpg,AFNE07.jpg,AFSA08.jpg,AFSA08.jpg,FS,4,num_4,32,num_6,0.916778765008,,,2017_Nov_22_1229,60.0204444676,MAFE4ImagesEEG,001,202414,
AFNE01.JPG,AFNE01.JPG,AFNE01.JPG,AFNE01.JPG,AFNE01.JPG,AFNE01.JPG,,,,,2,9,29,4,,,,,,,,,,,,,,,,,,,AFSA09.jpg,AFNE08.jpg,AFSA10.jpg,AFNE18.jpg,AFSA09.jpg,FS,4,num_8,16,num_8,0.583497070678,,,2017_Nov_22_1229,60.0204444676,MAFE4ImagesEEG,001,202414,
AFNE01.JPG,AFNE01.JPG,AFNE01.JPG,AFNE01.JPG,AFNE01.JPG,AFNE01.JPG,,,,,3,0,30,9,,,,,,,,,,,,,,,,,,,AFSA18.jpg,AFNE12.jpg,AFNE13.jpg,AFSA03.jpg,AFNE12.jpg,FN,3,num_6,16,num_6,0.583478788554,,,2017_Nov_22_1229,60.0204444676,MAFE4ImagesEEG,001,202414,
AFNE01.JPG,AFNE01.JPG,AFNE01.JPG,AFNE01.JPG,AFNE01.JPG,AFNE01.JPG,,,,,3,1,31,6,,,,,,,,,,,,,,,,,,,AFSA14.jpg,AFNE17.jpg,AFSA12.jpg,AFNE06.jpg,AFSA14.jpg,FS,4,num_8,16,num_8,1.31671615673,,,2017_Nov_22_1229,60.0204444676,MAFE4ImagesEEG,001,202414,
AFNE01.JPG,AFNE01.JPG,AFNE01.JPG,AFNE01.JPG,AFNE01.JPG,AFNE01.JPG,,,,,3,2,32,4,,,,,,,,,,,,,,,,,,,AFSA05.jpg,AFNE08.jpg,AFNE13.jpg,AFSA15.jpg,AFSA05.jpg,FS,4,num_8,16,num_8,0.666787264607,,,2017_Nov_22_1229,60.0204444676,MAFE4ImagesEEG,001,202414,
AFNE01.JPG,AFNE01.JPG,AFNE01.JPG,AFNE01.JPG,AFNE01.JPG,AFNE01.JPG,,,,,3,3,33,5,,,,,,,,,,,,,,,,,,,AFSA18.jpg,AFNE13.jpg,AFSA03.jpg,AFNE08.jpg,AFSA18.jpg,FS,4,num_8,32,num_6,0.816746626922,,,2017_Nov_22_1229,60.0204444676,MAFE4ImagesEEG,001,202414,
AFNE01.JPG,AFNE01.JPG,AFNE01.JPG,AFNE01.JPG,AFNE01.JPG,AFNE01.JPG,,,,,3,4,34,3,,,,,,,,,,,,,,,,,,,AFNE07.jpg,AFNE09.jpg,AFSA07.jpg,AFSA10.jpg,AFNE09.jpg,FN,3,num_6,32,num_8,1.166797849,,,2017_Nov_22_1229,60.0204444676,MAFE4ImagesEEG,001,202414,
AFNE01.JPG,AFNE01.JPG,AFNE01.JPG,AFNE01.JPG,AFNE01.JPG,AFNE01.JPG,,,,,3,5,35,1,,,,,,,,,,,,,,,,,,,AFSA10.jpg,AFNE01.jpg,AFNE06.jpg,AFSA01.jpg,AFNE01.jpg,FN,3,num_6,16,num_6,0.816746947676,,,2017_Nov_22_1229,60.0204444676,MAFE4ImagesEEG,001,202414,
AFNE01.JPG,AFNE01.JPG,AFNE01.JPG,AFNE01.JPG,AFNE01.JPG,AFNE01.JPG,,,,,3,6,36,2,,,,,,,,,,,,,,,,,,,AFNE20.jpg,AFSA09.jpg,AFNE13.jpg,AFSA15.jpg,AFNE13.jpg,FN,3,num_2,32,num_6,1.1501299956,,,2017_Nov_22_1229,60.0204444676,MAFE4ImagesEEG,001,202414,
AFNE01.JPG,AFNE01.JPG,AFNE01.JPG,AFNE01.JPG,AFNE01.JPG,AFNE01.JPG,,,,,3,7,37,0,,,,,,,,,,,,,,,,,,,AFNE16.jpg,AFNE05.jpg,AFSA14.jpg,AFSA11.jpg,AFNE05.jpg,FN,3,num_6,32,num_4,0.750190358696,,,2017_Nov_22_1229,60.0204444676,MAFE4ImagesEEG,001,202414,
AFNE01.JPG,AFNE01.JPG,AFNE01.JPG,AFNE01.JPG,AFNE01.JPG,AFNE01.JPG,,,,,3,8,38,7,,,,,,,,,,,,,,,,,,,AFSA03.jpg,AFNE08.jpg,AFNE07.jpg,AFSA07.jpg,AFSA07.jpg,FS,4,num_4,32,num_8,0.600250240735,,,2017_Nov_22_1229,60.0204444676,MAFE4ImagesEEG,001,202414,
AFNE01.JPG,AFNE01.JPG,AFNE01.JPG,AFNE01.JPG,AFNE01.JPG,AFNE01.JPG,,,,,3,9,39,8,,,,,,,,,,,,,,,,,,,AFNE08.jpg,AFSA19.jpg,AFSA01.jpg,AFNE18.jpg,AFNE18.jpg,FN,3,num_4,16,num_4,0.700175572652,,,2017_Nov_22_1229,60.0204444676,MAFE4ImagesEEG,001,202414,
AFNE01.JPG,AFNE01.JPG,AFNE01.JPG,AFNE01.JPG,AFNE01.JPG,AFNE01.JPG,,,,,4,0,40,5,,,,,,,,,,,,,,,,,,,AFSA09.jpg,AFSA07.jpg,AFNE05.jpg,AFNE04.jpg,AFNE04.jpg,FN,3,num_4,32,num_8,0.450180223357,,,2017_Nov_22_1229,60.0204444676,MAFE4ImagesEEG,001,202414,
AFNE01.JPG,AFNE01.JPG,AFNE01.JPG,AFNE01.JPG,AFNE01.JPG,AFNE01.JPG,,,,,4,1,41,0,,,,,,,,,,,,,,,,,,,AFNE18.jpg,AFSA16.jpg,AFSA04.jpg,AFNE08.jpg,AFSA16.jpg,FS,4,num_6,16,num_6,0.550132818113,,,2017_Nov_22_1229,60.0204444676,MAFE4ImagesEEG,001,202414,
AFNE01.JPG,AFNE01.JPG,AFNE01.JPG,AFNE01.JPG,AFNE01.JPG,AFNE01.JPG,,,,,4,2,42,1,,,,,,,,,,,,,,,,,,,AFSA08.jpg,AFNE08.jpg,AFSA20.jpg,AFNE15.jpg,AFNE15.jpg,FN,3,num_4,16,num_4,0.733484978817,,,2017_Nov_22_1229,60.0204444676,MAFE4ImagesEEG,001,202414,
AFNE01.JPG,AFNE01.JPG,AFNE01.JPG,AFNE01.JPG,AFNE01.JPG,AFNE01.JPG,,,,,4,3,43,2,,,,,,,,,,,,,,,,,,,AFSA11.jpg,AFNE05.jpg,AFNE10.jpg,AFSA08.jpg,AFSA08.jpg,FS,4,num_4,32,num_8,0.65007354549,,,2017_Nov_22_1229,60.0204444676,MAFE4ImagesEEG,001,202414,
AFNE01.JPG,AFNE01.JPG,AFNE01.JPG,AFNE01.JPG,AFNE01.JPG,AFNE01.JPG,,,,,4,4,44,7,,,,,,,,,,,,,,,,,,,AFNE02.jpg,AFSA19.jpg,AFSA03.jpg,AFNE08.jpg,AFSA19.jpg,FS,4,num_6,16,num_6,0.716849840828,,,2017_Nov_22_1229,60.0204444676,MAFE4ImagesEEG,001,202414,
AFNE01.JPG,AFNE01.JPG,AFNE01.JPG,AFNE01.JPG,AFNE01.JPG,AFNE01.JPG,,,,,4,5,45,6,,,,,,,,,,,,,,,,,,,AFNE09.jpg,AFSA06.jpg,AFSA08.jpg,AFNE03.jpg,AFNE09.jpg,FN,3,num_8,16,num_8,0.500201424205,,,2017_Nov_22_1229,60.0204444676,MAFE4ImagesEEG,001,202414,
AFNE01.JPG,AFNE01.JPG,AFNE01.JPG,AFNE01.JPG,AFNE01.JPG,AFNE01.JPG,,,,,4,6,46,4,,,,,,,,,,,,,,,,,,,AFSA20.jpg,AFNE07.jpg,AFNE15.jpg,AFSA10.jpg,AFNE07.jpg,FN,3,num_6,32,num_2,0.900209057814,,,2017_Nov_22_1229,60.0204444676,MAFE4ImagesEEG,001,202414,
AFNE01.JPG,AFNE01.JPG,AFNE01.JPG,AFNE01.JPG,AFNE01.JPG,AFNE01.JPG,,,,,4,7,47,9,,,,,,,,,,,,,,,,,,,AFNE12.jpg,AFSA12.jpg,AFNE05.jpg,AFSA05.jpg,AFSA12.jpg,FS,4,num_6,32,num_4,0.683509964409,,,2017_Nov_22_1229,60.0204444676,MAFE4ImagesEEG,001,202414,
AFNE01.JPG,AFNE01.JPG,AFNE01.JPG,AFNE01.JPG,AFNE01.JPG,AFNE01.JPG,,,,,4,8,48,8,,,,,,,,,,,,,,,,,,,AFNE08.jpg,AFSA11.jpg,AFNE11.jpg,AFSA04.jpg,AFSA11.jpg,FS,4,num_6,16,num_6,0.466814399144,,,2017_Nov_22_1229,60.0204444676,MAFE4ImagesEEG,001,202414,
AFNE01.JPG,AFNE01.JPG,AFNE01.JPG,AFNE01.JPG,AFNE01.JPG,AFNE01.JPG,,,,,4,9,49,3,,,,,,,,,,,,,,,,,,,AFSA11.jpg,AFNE19.jpg,AFNE08.jpg,AFSA08.jpg,AFSA11.jpg,FS,4,num_8,16,num_8,0.933339491545,,,2017_Nov_22_1229,60.0204444676,MAFE4ImagesEEG,001,202414,
AFNE01.JPG,AFNE01.JPG,AFNE01.JPG,AFNE01.JPG,AFNE01.JPG,AFNE01.JPG,,,,,5,0,50,5,,,,,,,,,,,,,,,,,,,AFNE16.jpg,AFNE12.jpg,AFSA03.jpg,AFSA07.jpg,AFSA03.jpg,FS,4,num_2,16,num_2,2.68328288107,,,2017_Nov_22_1229,60.0204444676,MAFE4ImagesEEG,001,202414,
AFNE01.JPG,AFNE01.JPG,AFNE01.JPG,AFNE01.JPG,AFNE01.JPG,AFNE01.JPG,,,,,5,1,51,0,,,,,,,,,,,,,,,,,,,AFNE18.jpg,AFNE17.jpg,AFSA12.jpg,AFSA19.jpg,AFSA12.jpg,FS,4,num_2,32,num_6,0.866785147722,,,2017_Nov_22_1229,60.0204444676,MAFE4ImagesEEG,001,202414,
AFNE01.JPG,AFNE01.JPG,AFNE01.JPG,AFNE01.JPG,AFNE01.JPG,AFNE01.JPG,,,,,5,2,52,6,,,,,,,,,,,,,,,,,,,AFNE11.jpg,AFSA02.jpg,AFNE17.jpg,AFSA08.jpg,AFSA08.jpg,FS,4,num_4,32,num_2,1.50006158193,,,2017_Nov_22_1229,60.0204444676,MAFE4ImagesEEG,001,202414,
AFNE01.JPG,AFNE01.JPG,AFNE01.JPG,AFNE01.JPG,AFNE01.JPG,AFNE01.JPG,,,,,5,3,53,9,,,,,,,,,,,,,,,,,,,AFSA03.jpg,AFNE11.jpg,AFSA02.jpg,AFNE02.jpg,AFNE11.jpg,FN,3,num_6,32,num_8,0.716798843292,,,2017_Nov_22_1229,60.0204444676,MAFE4ImagesEEG,001,202414,
AFNE01.JPG,AFNE01.JPG,AFNE01.JPG,AFNE01.JPG,AFNE01.JPG,AFNE01.JPG,,,,,5,4,54,4,,,,,,,,,,,,,,,,,,,AFSA05.jpg,AFSA06.jpg,AFNE18.jpg,AFNE14.jpg,AFSA06.jpg,FS,4,num_6,16,num_6,0.716805578821,,,2017_Nov_22_1229,60.0204444676,MAFE4ImagesEEG,001,202414,
AFNE01.JPG,AFNE01.JPG,AFNE01.JPG,AFNE01.JPG,AFNE01.JPG,AFNE01.JPG,,,,,5,5,55,7,,,,,,,,,,,,,,,,,,,AFNE11.jpg,AFSA20.jpg,AFNE19.jpg,AFSA05.jpg,AFSA05.jpg,FS,4,num_4,32,num_2,0.600174546271,,,2017_Nov_22_1229,60.0204444676,MAFE4ImagesEEG,001,202414,
AFNE01.JPG,AFNE01.JPG,AFNE01.JPG,AFNE01.JPG,AFNE01.JPG,AFNE01.JPG,,,,,5,6,56,3,,,,,,,,,,,,,,,,,,,AFNE03.jpg,AFNE08.jpg,AFSA13.jpg,AFSA08.jpg,AFNE08.jpg,FN,3,num_6,32,num_4,0.800135865109,,,2017_Nov_22_1229,60.0204444676,MAFE4ImagesEEG,001,202414,
AFNE01.JPG,AFNE01.JPG,AFNE01.JPG,AFNE01.JPG,AFNE01.JPG,AFNE01.JPG,,,,,5,7,57,1,,,,,,,,,,,,,,,,,,,AFNE05.jpg,AFNE13.jpg,AFSA03.jpg,AFSA10.jpg,AFNE05.jpg,FN,3,num_8,32,num_6,0.600149849372,,,2017_Nov_22_1229,60.0204444676,MAFE4ImagesEEG,001,202414,
AFNE01.JPG,AFNE01.JPG,AFNE01.JPG,AFNE01.JPG,AFNE01.JPG,AFNE01.JPG,,,,,5,8,58,2,,,,,,,,,,,,,,,,,,,AFSA13.jpg,AFNE19.jpg,AFSA18.jpg,AFNE06.jpg,AFSA13.jpg,FS,4,num_8,32,num_2,0.800207389955,,,2017_Nov_22_1229,60.0204444676,MAFE4ImagesEEG,001,202414,
AFNE01.JPG,AFNE01.JPG,AFNE01.JPG,AFNE01.JPG,AFNE01.JPG,AFNE01.JPG,,,,,5,9,59,8,,,,,,,,,,,,,,,,,,,AFNE07.jpg,AFNE18.jpg,AFSA07.jpg,AFSA17.jpg,AFSA07.jpg,FS,4,num_2,32,num_4,0.750120116834,,,2017_Nov_22_1229,60.0204444676,MAFE4ImagesEEG,001,202414,
,,,,,,,,,,,,,,,,,,,,,,,,,,,,,,,,,,,,,,,,,,,space,17.4988033221,2017_Nov_22_1229,60.0204444676,MAFE4ImagesEEG,001,202414,
AFNE01.JPG,AFNE01.JPG,AFNE01.JPG,AFNE01.JPG,AFNE01.JPG,AFNE01.JPG,,,,,,,,,0,0,0,4,,,,,,,,,,,,,,,AMSA03.jpg,AMNE04.jpg,AMSA18.jpg,AMNE15.jpg,AMNE04.jpg,MN,1,num_6,32,num_8,0.850190102123,,,2017_Nov_22_1229,60.0204444676,MAFE4ImagesEEG,001,202414,
AFNE01.JPG,AFNE01.JPG,AFNE01.JPG,AFNE01.JPG,AFNE01.JPG,AFNE01.JPG,,,,,,,,,0,1,1,9,,,,,,,,,,,,,,,AMSA17.jpg,AMSA14.jpg,AMNE02.jpg,AMNE19.jpg,AMSA17.jpg,MS,2,num_8,32,num_2,0.600170376652,,,2017_Nov_22_1229,60.0204444676,MAFE4ImagesEEG,001,202414,
AFNE01.JPG,AFNE01.JPG,AFNE01.JPG,AFNE01.JPG,AFNE01.JPG,AFNE01.JPG,,,,,,,,,0,2,2,0,,,,,,,,,,,,,,,AMSA07.jpg,AMNE12.jpg,AMSA09.jpg,AMNE01.jpg,AMSA07.jpg,MS,2,num_8,32,num_2,1.06672401485,,,2017_Nov_22_1229,60.0204444676,MAFE4ImagesEEG,001,202414,
AFNE01.JPG,AFNE01.JPG,AFNE01.JPG,AFNE01.JPG,AFNE01.JPG,AFNE01.JPG,,,,,,,,,0,3,3,1,,,,,,,,,,,,,,,AMSA13.jpg,AMSA05.jpg,AMNE15.jpg,AMNE08.jpg,AMSA13.jpg,MS,2,num_8,32,num_4,0.983174342924,,,2017_Nov_22_1229,60.0204444676,MAFE4ImagesEEG,001,202414,
AFNE01.JPG,AFNE01.JPG,AFNE01.JPG,AFNE01.JPG,AFNE01.JPG,AFNE01.JPG,,,,,,,,,0,4,4,7,,,,,,,,,,,,,,,AMNE20.jpg,AMSA17.jpg,AMSA11.jpg,AMNE17.jpg,AMNE17.jpg,MN,1,num_4,16,num_4,0.733503902418,,,2017_Nov_22_1229,60.0204444676,MAFE4ImagesEEG,001,202414,
AFNE01.JPG,AFNE01.JPG,AFNE01.JPG,AFNE01.JPG,AFNE01.JPG,AFNE01.JPG,,,,,,,,,0,5,5,3,,,,,,,,,,,,,,,AMSA10.jpg,AMNE02.jpg,AMNE16.jpg,AMSA08.jpg,AMSA10.jpg,MS,2,num_8,16,num_8,0.933461051696,,,2017_Nov_22_1229,60.0204444676,MAFE4ImagesEEG,001,202414,
AFNE01.JPG,AFNE01.JPG,AFNE01.JPG,AFNE01.JPG,AFNE01.JPG,AFNE01.JPG,,,,,,,,,0,6,6,8,,,,,,,,,,,,,,,AMSA18.jpg,AMSA20.jpg,AMNE07.jpg,AMNE19.jpg,AMNE07.jpg,MN,1,num_2,16,num_2,0.716823860945,,,2017_Nov_22_1229,60.0204444676,MAFE4ImagesEEG,001,202414,
AFNE01.JPG,AFNE01.JPG,AFNE01.JPG,AFNE01.JPG,AFNE01.JPG,AFNE01.JPG,,,,,,,,,0,7,7,6,,,,,,,,,,,,,,,AMSA02.jpg,AMNE18.jpg,AMNE19.jpg,AMSA03.jpg,AMSA02.jpg,MS,2,num_8,16,num_8,0.950076624576,,,2017_Nov_22_1229,60.0204444676,MAFE4ImagesEEG,001,202414,
AFNE01.JPG,AFNE01.JPG,AFNE01.JPG,AFNE01.JPG,AFNE01.JPG,AFNE01.JPG,,,,,,,,,0,8,8,5,,,,,,,,,,,,,,,AMSA05.jpg,AMNE13.jpg,AMNE20.jpg,AMSA06.jpg,AMNE13.jpg,MN,1,num_6,16,num_6,0.86677295962,,,2017_Nov_22_1229,60.0204444676,MAFE4ImagesEEG,001,202414,
AFNE01.JPG,AFNE01.JPG,AFNE01.JPG,AFNE01.JPG,AFNE01.JPG,AFNE01.JPG,,,,,,,,,0,9,9,2,,,,,,,,,,,,,,,AMSA14.jpg,AMNE06.jpg,AMSA01.jpg,AMNE15.jpg,AMSA14.jpg,MS,2,num_8,16,num_8,0.78346897391,,,2017_Nov_22_1229,60.0204444676,MAFE4ImagesEEG,001,202414,
AFNE01.JPG,AFNE01.JPG,AFNE01.JPG,AFNE01.JPG,AFNE01.JPG,AFNE01.JPG,,,,,,,,,1,0,10,2,,,,,,,,,,,,,,,AMNE19.jpg,AMSA05.jpg,AMNE20.jpg,AMSA04.jpg,AMSA04.jpg,MS,2,num_4,16,num_4,0.716861387424,,,2017_Nov_22_1229,60.0204444676,MAFE4ImagesEEG,001,202414,
AFNE01.JPG,AFNE01.JPG,AFNE01.JPG,AFNE01.JPG,AFNE01.JPG,AFNE01.JPG,,,,,,,,,1,1,11,8,,,,,,,,,,,,,,,AMSA04.jpg,AMSA19.jpg,AMNE11.jpg,AMNE12.jpg,AMSA04.jpg,MS,2,num_8,16,num_8,0.9167524644,,,2017_Nov_22_1229,60.0204444676,MAFE4ImagesEEG,001,202414,
AFNE01.JPG,AFNE01.JPG,AFNE01.JPG,AFNE01.JPG,AFNE01.JPG,AFNE01.JPG,,,,,,,,,1,2,12,0,,,,,,,,,,,,,,,AMNE16.jpg,AMSA08.jpg,AMSA17.jpg,AMNE06.jpg,AMNE06.jpg,MN,1,num_4,16,num_4,0.766785404325,,,2017_Nov_22_1229,60.0204444676,MAFE4ImagesEEG,001,202414,
AFNE01.JPG,AFNE01.JPG,AFNE01.JPG,AFNE01.JPG,AFNE01.JPG,AFNE01.JPG,,,,,,,,,1,3,13,5,,,,,,,,,,,,,,,AMSA17.jpg,AMNE10.jpg,AMNE19.jpg,AMSA06.jpg,AMNE10.jpg,MN,1,num_6,16,num_6,1.18330661577,,,2017_Nov_22_1229,60.0204444676,MAFE4ImagesEEG,001,202414,
AFNE01.JPG,AFNE01.JPG,AFNE01.JPG,AFNE01.JPG,AFNE01.JPG,AFNE01.JPG,,,,,,,,,1,4,14,7,,,,,,,,,,,,,,,AMSA11.jpg,AMNE11.jpg,AMNE05.jpg,AMSA12.jpg,AMNE11.jpg,MN,1,num_6,16,num_6,1.60007704154,,,2017_Nov_22_1229,60.0204444676,MAFE4ImagesEEG,001,202414,
AFNE01.JPG,AFNE01.JPG,AFNE01.JPG,AFNE01.JPG,AFNE01.JPG,AFNE01.JPG,,,,,,,,,1,5,15,4,,,,,,,,,,,,,,,AMSA10.jpg,AMNE04.jpg,AMSA12.jpg,AMNE17.jpg,AMNE04.jpg,MN,1,num_6,16,num_6,1.133482028,,,2017_Nov_22_1229,60.0204444676,MAFE4ImagesEEG,001,202414,
AFNE01.JPG,AFNE01.JPG,AFNE01.JPG,AFNE01.JPG,AFNE01.JPG,AFNE01.JPG,,,,,,,,,1,6,16,6,,,,,,,,,,,,,,,AMNE13.jpg,AMSA03.jpg,AMSA14.jpg,AMNE09.jpg,AMSA03.jpg,MS,2,num_6,16,num_6,0.533499283774,,,2017_Nov_22_1229,60.0204444676,MAFE4ImagesEEG,001,202414,
AFNE01.JPG,AFNE01.JPG,AFNE01.JPG,AFNE01.JPG,AFNE01.JPG,AFNE01.JPG,,,,,,,,,1,7,17,9,,,,,,,,,,,,,,,AMNE20.jpg,AMSA19.jpg,AMNE19.jpg,AMSA15.jpg,AMNE19.jpg,MN,1,num_2,32,num_8,0.833183868875,,,2017_Nov_22_1229,60.0204444676,MAFE4ImagesEEG,001,202414,
AFNE01.JPG,AFNE01.JPG,AFNE01.JPG,AFNE01.JPG,AFNE01.JPG,AFNE01.JPG,,,,,,,,,1,8,18,3,,,,,,,,,,,,,,,AMSA10.jpg,AMNE14.jpg,AMSA11.jpg,AMNE08.jpg,AMNE08.jpg,MN,1,num_4,32,num_8,0.966742553544,,,2017_Nov_22_1229,60.0204444676,MAFE4ImagesEEG,001,202414,
AFNE01.JPG,AFNE01.JPG,AFNE01.JPG,AFNE01.JPG,AFNE01.JPG,AFNE01.JPG,,,,,,,,,1,9,19,1,,,,,,,,,,,,,,,AMNE01.jpg,AMSA20.jpg,AMSA11.jpg,AMNE03.jpg,AMSA11.jpg,MS,2,num_2,16,num_2,0.700108538149,,,2017_Nov_22_1229,60.0204444676,MAFE4ImagesEEG,001,202414,
AFNE01.JPG,AFNE01.JPG,AFNE01.JPG,AFNE01.JPG,AFNE01.JPG,AFNE01.JPG,,,,,,,,,2,0,20,8,,,,,,,,,,,,,,,AMNE10.jpg,AMSA03.jpg,AMSA08.jpg,AMNE13.jpg,AMNE10.jpg,MN,1,num_8,32,num_4,0.600131246494,,,2017_Nov_22_1229,60.0204444676,MAFE4ImagesEEG,001,202414,
AFNE01.JPG,AFNE01.JPG,AFNE01.JPG,AFNE01.JPG,AFNE01.JPG,AFNE01.JPG,,,,,,,,,2,1,21,1,,,,,,,,,,,,,,,AMSA06.jpg,AMNE01.jpg,AMNE12.jpg,AMSA04.jpg,AMSA06.jpg,MS,2,num_8,16,num_8,0.933443731745,,,2017_Nov_22_1229,60.0204444676,MAFE4ImagesEEG,001,202414,
AFNE01.JPG,AFNE01.JPG,AFNE01.JPG,AFNE01.JPG,AFNE01.JPG,AFNE01.JPG,,,,,,,,,2,2,22,9,,,,,,,,,,,,,,,AMSA08.jpg,AMNE12.jpg,AMSA10.jpg,AMNE20.jpg,AMSA08.jpg,MS,2,num_8,16,num_8,1.18348173937,,,2017_Nov_22_1229,60.0204444676,MAFE4ImagesEEG,001,202414,
AFNE01.JPG,AFNE01.JPG,AFNE01.JPG,AFNE01.JPG,AFNE01.JPG,AFNE01.JPG,,,,,,,,,2,3,23,6,,,,,,,,,,,,,,,AMSA16.jpg,AMSA03.jpg,AMNE18.jpg,AMNE01.jpg,AMSA16.jpg,MS,2,num_8,32,num_6,1.43340620527,,,2017_Nov_22_1229,60.0204444676,MAFE4ImagesEEG,001,202414,
AFNE01.JPG,AFNE01.JPG,AFNE01.JPG,AFNE01.JPG,AFNE01.JPG,AFNE01.JPG,,,,,,,,,2,4,24,0,,,,,,,,,,,,,,,AMNE03.jpg,AMSA04.jpg,AMSA15.jpg,AMNE15.jpg,AMNE15.jpg,MN,1,num_4,16,num_4,0.866791562497,,,2017_Nov_22_1229,60.0204444676,MAFE4ImagesEEG,001,202414,
AFNE01.JPG,AFNE01.JPG,AFNE01.JPG,AFNE01.JPG,AFNE01.JPG,AFNE01.JPG,,,,,,,,,2,5,25,5,,,,,,,,,,,,,,,AMSA08.jpg,AMNE10.jpg,AMNE03.jpg,AMSA01.jpg,AMSA08.jpg,MS,2,num_8,32,num_2,0.91684996913,,,2017_Nov_22_1229,60.0204444676,MAFE4ImagesEEG,001,202414,
AFNE01.JPG,AFNE01.JPG,AFNE01.JPG,AFNE01.JPG,AFNE01.JPG,AFNE01.JPG,,,,,,,,,2,6,26,4,,,,,,,,,,,,,,,AMSA12.jpg,AMSA13.jpg,AMNE16.jpg,AMNE09.jpg,AMSA13.jpg,MS,2,num_6,16,num_6,0.800168580521,,,2017_Nov_22_1229,60.0204444676,MAFE4ImagesEEG,001,202414,
AFNE01.JPG,AFNE01.JPG,AFNE01.JPG,AFNE01.JPG,AFNE01.JPG,AFNE01.JPG,,,,,,,,,2,7,27,2,,,,,,,,,,,,,,,AMSA12.jpg,AMNE05.jpg,AMSA20.jpg,AMNE17.jpg,AMNE17.jpg,MN,1,num_4,16,num_4,0.500177368784,,,2017_Nov_22_1229,60.0204444676,MAFE4ImagesEEG,001,202414,
AFNE01.JPG,AFNE01.JPG,AFNE01.JPG,AFNE01.JPG,AFNE01.JPG,AFNE01.JPG,,,,,,,,,2,8,28,3,,,,,,,,,,,,,,,AMSA19.jpg,AMNE08.jpg,AMNE07.jpg,AMSA02.jpg,AMSA19.jpg,MS,2,num_8,16,num_8,0.750170472893,,,2017_Nov_22_1229,60.0204444676,MAFE4ImagesEEG,001,202414,
AFNE01.JPG,AFNE01.JPG,AFNE01.JPG,AFNE01.JPG,AFNE01.JPG,AFNE01.JPG,,,,,,,,,2,9,29,7,,,,,,,,,,,,,,,AMSA09.jpg,AMNE10.jpg,AMSA15.jpg,AMNE18.jpg,AMSA09.jpg,MS,2,num_8,32,num_6,0.650185804232,,,2017_Nov_22_1229,60.0204444676,MAFE4ImagesEEG,001,202414,
AFNE01.JPG,AFNE01.JPG,AFNE01.JPG,AFNE01.JPG,AFNE01.JPG,AFNE01.JPG,,,,,,,,,3,0,30,6,,,,,,,,,,,,,,,AMSA14.jpg,AMSA09.jpg,AMNE16.jpg,AMNE03.jpg,AMNE16.jpg,MN,1,num_2,16,num_2,1.90002912312,,,2017_Nov_22_1229,60.0204444676,MAFE4ImagesEEG,001,202414,
AFNE01.JPG,AFNE01.JPG,AFNE01.JPG,AFNE01.JPG,AFNE01.JPG,AFNE01.JPG,,,,,,,,,3,1,31,9,,,,,,,,,,,,,,,AMSA07.jpg,AMSA19.jpg,AMNE02.jpg,AMNE17.jpg,AMSA19.jpg,MS,2,num_6,16,num_6,0.883514262299,,,2017_Nov_22_1229,60.0204444676,MAFE4ImagesEEG,001,202414,
AFNE01.JPG,AFNE01.JPG,AFNE01.JPG,AFNE01.JPG,AFNE01.JPG,AFNE01.JPG,,,,,,,,,3,2,32,5,,,,,,,,,,,,,,,AMSA12.jpg,AMNE13.jpg,AMSA11.jpg,AMNE05.jpg,AMNE13.jpg,MN,1,num_6,32,num_8,0.666800414911,,,2017_Nov_22_1229,60.0204444676,MAFE4ImagesEEG,001,202414,
AFNE01.JPG,AFNE01.JPG,AFNE01.JPG,AFNE01.JPG,AFNE01.JPG,AFNE01.JPG,,,,,,,,,3,3,33,7,,,,,,,,,,,,,,,AMSA04.jpg,AMSA17.jpg,AMNE05.jpg,AMNE10.jpg,AMNE10.jpg,MN,1,num_4,32,num_8,1.71698872087,,,2017_Nov_22_1229,60.0204444676,MAFE4ImagesEEG,001,202414,
AFNE01.JPG,AFNE01.JPG,AFNE01.JPG,AFNE01.JPG,AFNE01.JPG,AFNE01.JPG,,,,,,,,,3,4,34,3,,,,,,,,,,,,,,,AMSA09.jpg,AMNE01.jpg,AMSA12.jpg,AMNE11.jpg,AMSA09.jpg,MS,2,num_8,32,num_4,0.983468781487,,,2017_Nov_22_1229,60.0204444676,MAFE4ImagesEEG,001,202414,
AFNE01.JPG,AFNE01.JPG,AFNE01.JPG,AFNE01.JPG,AFNE01.JPG,AFNE01.JPG,,,,,,,,,3,5,35,4,,,,,,,,,,,,,,,AMSA07.jpg,AMNE08.jpg,AMNE13.jpg,AMSA01.jpg,AMNE08.jpg,MN,1,num_6,16,num_6,0.71678152337,,,2017_Nov_22_1229,60.0204444676,MAFE4ImagesEEG,001,202414,
AFNE01.JPG,AFNE01.JPG,AFNE01.JPG,AFNE01.JPG,AFNE01.JPG,AFNE01.JPG,,,,,,,,,3,6,36,2,,,,,,,,,,,,,,,AMNE07.jpg,AMSA09.jpg,AMSA02.jpg,AMNE12.jpg,AMSA02.jpg,MS,2,num_2,16,num_2,0.516850995482,,,2017_Nov_22_1229,60.0204444676,MAFE4ImagesEEG,001,202414,
AFNE01.JPG,AFNE01.JPG,AFNE01.JPG,AFNE01.JPG,AFNE01.JPG,AFNE01.JPG,,,,,,,,,3,7,37,1,,,,,,,,,,,,,,,AMNE05.jpg,AMSA13.jpg,AMNE14.jpg,AMSA10.jpg,AMNE14.jpg,MN,1,num_2,16,num_2,0.833586396562,,,2017_Nov_22_1229,60.0204444676,MAFE4ImagesEEG,001,202414,
AFNE01.JPG,AFNE01.JPG,AFNE01.JPG,AFNE01.JPG,AFNE01.JPG,AFNE01.JPG,,,,,,,,,3,8,38,8,,,,,,,,,,,,,,,AMNE13.jpg,AMSA11.jpg,AMSA04.jpg,AMNE16.jpg,AMNE13.jpg,MN,1,num_8,16,num_8,0.666791434196,,,2017_Nov_22_1229,60.0204444676,MAFE4ImagesEEG,001,202414,
AFNE01.JPG,AFNE01.JPG,AFNE01.JPG,AFNE01.JPG,AFNE01.JPG,AFNE01.JPG,,,,,,,,,3,9,39,0,,,,,,,,,,,,,,,AMNE11.jpg,AMNE09.jpg,AMSA05.jpg,AMSA12.jpg,AMNE09.jpg,MN,1,num_6,16,num_6,0.500171274733,,,2017_Nov_22_1229,60.0204444676,MAFE4ImagesEEG,001,202414,
AFNE01.JPG,AFNE01.JPG,AFNE01.JPG,AFNE01.JPG,AFNE01.JPG,AFNE01.JPG,,,,,,,,,4,0,40,1,,,,,,,,,,,,,,,AMNE07.jpg,AMSA10.jpg,AMNE10.jpg,AMSA16.jpg,AMSA16.jpg,MS,2,num_4,32,num_6,1.16671413608,,,2017_Nov_22_1229,60.0204444676,MAFE4ImagesEEG,001,202414,
AFNE01.JPG,AFNE01.JPG,AFNE01.JPG,AFNE01.JPG,AFNE01.JPG,AFNE01.JPG,,,,,,,,,4,1,41,9,,,,,,,,,,,,,,,AMNE13.jpg,AMSA13.jpg,AMNE16.jpg,AMSA06.jpg,AMSA13.jpg,MS,2,num_6,32,num_2,0.616509793123,,,2017_Nov_22_1229,60.0204444676,MAFE4ImagesEEG,001,202414,
AFNE01.JPG,AFNE01.JPG,AFNE01.JPG,AFNE01.JPG,AFNE01.JPG,AFNE01.JPG,,,,,,,,,4,2,42,7,,,,,,,,,,,,,,,AMNE04.jpg,AMNE10.jpg,AMSA01.jpg,AMSA14.jpg,AMSA01.jpg,MS,2,num_2,32,num_8,0.983490591752,,,2017_Nov_22_1229,60.0204444676,MAFE4ImagesEEG,001,202414,
AFNE01.JPG,AFNE01.JPG,AFNE01.JPG,AFNE01.JPG,AFNE01.JPG,AFNE01.JPG,,,,,,,,,4,3,43,0,,,,,,,,,,,,,,,AMNE02.jpg,AMSA02.jpg,AMNE20.jpg,AMSA10.jpg,AMNE20.jpg,MN,1,num_2,32,num_8,0.700236192351,,,2017_Nov_22_1229,60.0204444676,MAFE4ImagesEEG,001,202414,
AFNE01.JPG,AFNE01.JPG,AFNE01.JPG,AFNE01.JPG,AFNE01.JPG,AFNE01.JPG,,,,,,,,,4,4,44,2,,,,,,,,,,,,,,,AMSA16.jpg,AMNE02.jpg,AMSA13.jpg,AMNE19.jpg,AMNE02.jpg,MN,1,num_6,16,num_6,0.816760739457,,,2017_Nov_22_1229,60.0204444676,MAFE4ImagesEEG,001,202414,
AFNE01.JPG,AFNE01.JPG,AFNE01.JPG,AFNE01.JPG,AFNE01.JPG,AFNE01.JPG,,,,,,,,,4,5,45,6,,,,,,,,,,,,,,,AMSA12.jpg,AMNE10.jpg,AMNE03.jpg,AMSA01.jpg,AMSA12.jpg,MS,2,num_8,16,num_8,0.866754677496,,,2017_Nov_22_1229,60.0204444676,MAFE4ImagesEEG,001,202414,
AFNE01.JPG,AFNE01.JPG,AFNE01.JPG,AFNE01.JPG,AFNE01.JPG,AFNE01.JPG,,,,,,,,,4,6,46,5,,,,,,,,,,,,,,,AMSA01.jpg,AMNE07.jpg,AMNE06.jpg,AMSA17.jpg,AMSA17.jpg,MS,2,num_4,16,num_4,0.966714328504,,,2017_Nov_22_1229,60.0204444676,MAFE4ImagesEEG,001,202414,
AFNE01.JPG,AFNE01.JPG,AFNE01.JPG,AFNE01.JPG,AFNE01.JPG,AFNE01.JPG,,,,,,,,,4,7,47,3,,,,,,,,,,,,,,,AMSA17.jpg,AMNE09.jpg,AMNE12.jpg,AMSA08.jpg,AMSA17.jpg,MS,2,num_8,16,num_8,0.750159888499,,,2017_Nov_22_1229,60.0204444676,MAFE4ImagesEEG,001,202414,
AFNE01.JPG,AFNE01.JPG,AFNE01.JPG,AFNE01.JPG,AFNE01.JPG,AFNE01.JPG,,,,,,,,,4,8,48,4,,,,,,,,,,,,,,,AMSA15.jpg,AMNE13.jpg,AMSA05.jpg,AMNE11.jpg,AMNE11.jpg,MN,1,num_4,16,num_4,0.916761124361,,,2017_Nov_22_1229,60.0204444676,MAFE4ImagesEEG,001,202414,
AFNE01.JPG,AFNE01.JPG,AFNE01.JPG,AFNE01.JPG,AFNE01.JPG,AFNE01.JPG,,,,,,,,,4,9,49,8,,,,,,,,,,,,,,,AMSA08.jpg,AMNE18.jpg,AMSA02.jpg,AMNE08.jpg,AMNE08.jpg,MN,1,num_4,16,num_4,1.1833993094,,,2017_Nov_22_1229,60.0204444676,MAFE4ImagesEEG,001,202414,
AFNE01.JPG,AFNE01.JPG,AFNE01.JPG,AFNE01.JPG,AFNE01.JPG,AFNE01.JPG,,,,,,,,,5,0,50,7,,,,,,,,,,,,,,,AMNE11.jpg,AMNE15.jpg,AMSA07.jpg,AMSA02.jpg,AMSA02.jpg,MS,2,num_4,16,num_4,0.783471219096,,,2017_Nov_22_1229,60.0204444676,MAFE4ImagesEEG,001,202414,
AFNE01.JPG,AFNE01.JPG,AFNE01.JPG,AFNE01.JPG,AFNE01.JPG,AFNE01.JPG,,,,,,,,,5,1,51,0,,,,,,,,,,,,,,,AMNE14.jpg,AMNE18.jpg,AMSA08.jpg,AMSA19.jpg,AMSA08.jpg,MS,2,num_2,32,num_6,0.900137853692,,,2017_Nov_22_1229,60.0204444676,MAFE4ImagesEEG,001,202414,
AFNE01.JPG,AFNE01.JPG,AFNE01.JPG,AFNE01.JPG,AFNE01.JPG,AFNE01.JPG,,,,,,,,,5,2,52,1,,,,,,,,,,,,,,,AMSA05.jpg,AMSA16.jpg,AMNE11.jpg,AMNE07.jpg,AMNE11.jpg,MN,1,num_2,32,num_8,0.766790536145,,,2017_Nov_22_1229,60.0204444676,MAFE4ImagesEEG,001,202414,
AFNE01.JPG,AFNE01.JPG,AFNE01.JPG,AFNE01.JPG,AFNE01.JPG,AFNE01.JPG,,,,,,,,,5,3,53,5,,,,,,,,,,,,,,,AMSA04.jpg,AMNE11.jpg,AMSA16.jpg,AMNE10.jpg,AMNE11.jpg,MN,1,num_6,32,num_8,0.600203412789,,,2017_Nov_22_1229,60.0204444676,MAFE4ImagesEEG,001,202414,
AFNE01.JPG,AFNE01.JPG,AFNE01.JPG,AFNE01.JPG,AFNE01.JPG,AFNE01.JPG,,,,,,,,,5,4,54,9,,,,,,,,,,,,,,,AMSA16.jpg,AMNE17.jpg,AMSA02.jpg,AMNE05.jpg,AMNE17.jpg,MN,1,num_6,16,num_6,0.816788964526,,,2017_Nov_22_1229,60.0204444676,MAFE4ImagesEEG,001,202414,
AFNE01.JPG,AFNE01.JPG,AFNE01.JPG,AFNE01.JPG,AFNE01.JPG,AFNE01.JPG,,,,,,,,,5,5,55,2,,,,,,,,,,,,,,,AMSA18.jpg,AMNE11.jpg,AMSA01.jpg,AMNE05.jpg,AMNE05.jpg,MN,1,num_4,32,num_8,0.4501487909,,,2017_Nov_22_1229,60.0204444676,MAFE4ImagesEEG,001,202414,
AFNE01.JPG,AFNE01.JPG,AFNE01.JPG,AFNE01.JPG,AFNE01.JPG,AFNE01.JPG,,,,,,,,,5,6,56,8,,,,,,,,,,,,,,,AMSA04.jpg,AMNE02.jpg,AMSA17.jpg,AMNE08.jpg,AMNE02.jpg,MN,1,num_6,16,num_6,0.717109318823,,,2017_Nov_22_1229,60.0204444676,MAFE4ImagesEEG,001,202414,
AFNE01.JPG,AFNE01.JPG,AFNE01.JPG,AFNE01.JPG,AFNE01.JPG,AFNE01.JPG,,,,,,,,,5,7,57,4,,,,,,,,,,,,,,,AMNE10.jpg,AMSA09.jpg,AMSA01.jpg,AMNE13.jpg,AMSA01.jpg,MS,2,num_2,32,num_8,0.866782581812,,,2017_Nov_22_1229,60.0204444676,MAFE4ImagesEEG,001,202414,
AFNE01.JPG,AFNE01.JPG,AFNE01.JPG,AFNE01.JPG,AFNE01.JPG,AFNE01.JPG,,,,,,,,,5,8,58,6,,,,,,,,,,,,,,,AMNE04.jpg,AMSA15.jpg,AMNE01.jpg,AMSA04.jpg,AMSA04.jpg,MS,2,num_4,32,num_8,0.750118833879,,,2017_Nov_22_1229,60.0204444676,MAFE4ImagesEEG,001,202414,
AFNE01.JPG,AFNE01.JPG,AFNE01.JPG,AFNE01.JPG,AFNE01.JPG,AFNE01.JPG,,,,,,,,,5,9,59,3,,,,,,,,,,,,,,,AMNE16.jpg,AMSA05.jpg,AMSA02.jpg,AMNE19.jpg,AMSA02.jpg,MS,2,num_2,16,num_2,0.666817734833,,,2017_Nov_22_1229,60.0204444676,MAFE4ImagesEEG,001,202414,
,,,,,,,,,,,,,,,,,,,,,,,,,,,,,,,,,,,,,,,,,,,space,30.7140767298,2017_Nov_22_1229,60.0204444676,MAFE4ImagesEEG,001,202414,
AFNE01.JPG,AFNE01.JPG,AFNE01.JPG,AFNE01.JPG,AFNE01.JPG,AFNE01.JPG,,,,,,,,,,,,,0,0,0,6,,,,,,,,,,,AFNE02.jpg,AFSA11.jpg,AFNE10.jpg,AFSA18.jpg,AFNE10.jpg,FN,3,num_2,32,num_8,0.750104079867,,,2017_Nov_22_1229,60.0204444676,MAFE4ImagesEEG,001,202414,
AFNE01.JPG,AFNE01.JPG,AFNE01.JPG,AFNE01.JPG,AFNE01.JPG,AFNE01.JPG,,,,,,,,,,,,,0,1,1,8,,,,,,,,,,,AFSA03.jpg,AFNE12.jpg,AFSA09.jpg,AFNE07.jpg,AFNE07.jpg,FN,3,num_4,32,num_6,0.600170055928,,,2017_Nov_22_1229,60.0204444676,MAFE4ImagesEEG,001,202414,
AFNE01.JPG,AFNE01.JPG,AFNE01.JPG,AFNE01.JPG,AFNE01.JPG,AFNE01.JPG,,,,,,,,,,,,,0,2,2,5,,,,,,,,,,,AFNE07.jpg,AFNE14.jpg,AFSA09.jpg,AFSA01.jpg,AFSA01.jpg,FS,4,num_4,16,num_4,1.23341666139,,,2017_Nov_22_1229,60.0204444676,MAFE4ImagesEEG,001,202414,
AFNE01.JPG,AFNE01.JPG,AFNE01.JPG,AFNE01.JPG,AFNE01.JPG,AFNE01.JPG,,,,,,,,,,,,,0,3,3,1,,,,,,,,,,,AFNE10.jpg,AFSA01.jpg,AFSA03.jpg,AFNE14.jpg,AFNE14.jpg,FN,3,num_4,16,num_4,1.01663866613,,,2017_Nov_22_1229,60.0204444676,MAFE4ImagesEEG,001,202414,
AFNE01.JPG,AFNE01.JPG,AFNE01.JPG,AFNE01.JPG,AFNE01.JPG,AFNE01.JPG,,,,,,,,,,,,,0,4,4,3,,,,,,,,,,,AFSA05.jpg,AFSA06.jpg,AFNE05.jpg,AFNE11.jpg,AFNE11.jpg,FN,3,num_4,16,num_4,0.516820525256,,,2017_Nov_22_1229,60.0204444676,MAFE4ImagesEEG,001,202414,
AFNE01.JPG,AFNE01.JPG,AFNE01.JPG,AFNE01.JPG,AFNE01.JPG,AFNE01.JPG,,,,,,,,,,,,,0,5,5,4,,,,,,,,,,,AFSA13.jpg,AFSA12.jpg,AFNE19.jpg,AFNE18.jpg,AFNE19.jpg,FN,3,num_2,16,num_2,0.450173167104,,,2017_Nov_22_1229,60.0204444676,MAFE4ImagesEEG,001,202414,
AFNE01.JPG,AFNE01.JPG,AFNE01.JPG,AFNE01.JPG,AFNE01.JPG,AFNE01.JPG,,,,,,,,,,,,,0,6,6,0,,,,,,,,,,,AFNE15.jpg,AFSA13.jpg,AFNE20.jpg,AFSA20.jpg,AFSA20.jpg,FS,4,num_4,32,num_8,0.900122778956,,,2017_Nov_22_1229,60.0204444676,MAFE4ImagesEEG,001,202414,
AFNE01.JPG,AFNE01.JPG,AFNE01.JPG,AFNE01.JPG,AFNE01.JPG,AFNE01.JPG,,,,,,,,,,,,,0,7,7,9,,,,,,,,,,,AFSA09.jpg,AFNE14.jpg,AFNE01.jpg,AFSA03.jpg,AFSA03.jpg,FS,4,num_4,16,num_4,0.766788290959,,,2017_Nov_22_1229,60.0204444676,MAFE4ImagesEEG,001,202414,
AFNE01.JPG,AFNE01.JPG,AFNE01.JPG,AFNE01.JPG,AFNE01.JPG,AFNE01.JPG,,,,,,,,,,,,,0,8,8,7,,,,,,,,,,,AFNE12.jpg,AFSA03.jpg,AFNE04.jpg,AFSA01.jpg,AFSA01.jpg,FS,4,num_4,16,num_4,1.06678976637,,,2017_Nov_22_1229,60.0204444676,MAFE4ImagesEEG,001,202414,
AFNE01.JPG,AFNE01.JPG,AFNE01.JPG,AFNE01.JPG,AFNE01.JPG,AFNE01.JPG,,,,,,,,,,,,,0,9,9,2,,,,,,,,,,,AFSA06.jpg,AFNE04.jpg,AFNE07.jpg,AFSA20.jpg,AFNE04.jpg,FN,3,num_6,32,num_4,0.916865685344,,,2017_Nov_22_1229,60.0204444676,MAFE4ImagesEEG,001,202414,
AFNE01.JPG,AFNE01.JPG,AFNE01.JPG,AFNE01.JPG,AFNE01.JPG,AFNE01.JPG,,,,,,,,,,,,,1,0,10,2,,,,,,,,,,,AFSA05.jpg,AFNE09.jpg,AFNE18.jpg,AFSA20.jpg,AFNE09.jpg,FN,3,num_6,16,num_6,0.483498610236,,,2017_Nov_22_1229,60.0204444676,MAFE4ImagesEEG,001,202414,
AFNE01.JPG,AFNE01.JPG,AFNE01.JPG,AFNE01.JPG,AFNE01.JPG,AFNE01.JPG,,,,,,,,,,,,,1,1,11,6,,,,,,,,,,,AFNE07.jpg,AFNE05.jpg,AFSA11.jpg,AFSA12.jpg,AFNE07.jpg,FN,3,num_8,16,num_8,0.683497455582,,,2017_Nov_22_1229,60.0204444676,MAFE4ImagesEEG,001,202414,
AFNE01.JPG,AFNE01.JPG,AFNE01.JPG,AFNE01.JPG,AFNE01.JPG,AFNE01.JPG,,,,,,,,,,,,,1,2,12,0,,,,,,,,,,,AFNE16.jpg,AFNE06.jpg,AFSA10.jpg,AFSA01.jpg,AFSA01.jpg,FS,4,num_4,16,num_4,0.733814057225,,,2017_Nov_22_1229,60.0204444676,MAFE4ImagesEEG,001,202414,
AFNE01.JPG,AFNE01.JPG,AFNE01.JPG,AFNE01.JPG,AFNE01.JPG,AFNE01.JPG,,,,,,,,,,,,,1,3,13,1,,,,,,,,,,,AFNE13.jpg,AFSA08.jpg,AFSA09.jpg,AFNE15.jpg,AFSA08.jpg,FS,4,num_6,16,num_6,1.11675708304,,,2017_Nov_22_1229,60.0204444676,MAFE4ImagesEEG,001,202414,
AFNE01.JPG,AFNE01.JPG,AFNE01.JPG,AFNE01.JPG,AFNE01.JPG,AFNE01.JPG,,,,,,,,,,,,,1,4,14,4,,,,,,,,,,,AFSA08.jpg,AFSA17.jpg,AFNE20.jpg,AFNE15.jpg,AFSA08.jpg,FS,4,num_8,16,num_8,0.850169254089,,,2017_Nov_22_1229,60.0204444676,MAFE4ImagesEEG,001,202414,
AFNE01.JPG,AFNE01.JPG,AFNE01.JPG,AFNE01.JPG,AFNE01.JPG,AFNE01.JPG,,,,,,,,,,,,,1,5,15,9,,,,,,,,,,,AFSA01.jpg,AFSA02.jpg,AFNE14.jpg,AFNE03.jpg,AFSA02.jpg,FS,4,num_6,16,num_6,0.583493542537,,,2017_Nov_22_1229,60.0204444676,MAFE4ImagesEEG,001,202414,
AFNE01.JPG,AFNE01.JPG,AFNE01.JPG,AFNE01.JPG,AFNE01.JPG,AFNE01.JPG,,,,,,,,,,,,,1,6,16,7,,,,,,,,,,,AFSA10.jpg,AFNE04.jpg,AFSA08.jpg,AFNE07.jpg,AFNE07.jpg,FN,3,num_4,16,num_4,1.01678139507,,,2017_Nov_22_1229,60.0204444676,MAFE4ImagesEEG,001,202414,
AFNE01.JPG,AFNE01.JPG,AFNE01.JPG,AFNE01.JPG,AFNE01.JPG,AFNE01.JPG,,,,,,,,,,,,,1,7,17,3,,,,,,,,,,,AFNE01.jpg,AFSA17.jpg,AFNE13.jpg,AFSA06.jpg,AFSA17.jpg,FS,4,num_6,16,num_6,0.850160273374,,,2017_Nov_22_1229,60.0204444676,MAFE4ImagesEEG,001,202414,
AFNE01.JPG,AFNE01.JPG,AFNE01.JPG,AFNE01.JPG,AFNE01.JPG,AFNE01.JPG,,,,,,,,,,,,,1,8,18,8,,,,,,,,,,,AFSA01.jpg,AFSA12.jpg,AFNE01.jpg,AFNE20.jpg,AFNE20.jpg,FN,3,num_4,32,num_6,2.25001683881,,,2017_Nov_22_1229,60.0204444676,MAFE4ImagesEEG,001,202414,
AFNE01.JPG,AFNE01.JPG,AFNE01.JPG,AFNE01.JPG,AFNE01.JPG,AFNE01.JPG,,,,,,,,,,,,,1,9,19,5,,,,,,,,,,,AFNE09.jpg,AFSA10.jpg,AFSA14.jpg,AFNE01.jpg,AFSA10.jpg,FS,4,num_6,32,num_8,0.750145775964,,,2017_Nov_22_1229,60.0204444676,MAFE4ImagesEEG,001,202414,
AFNE01.JPG,AFNE01.JPG,AFNE01.JPG,AFNE01.JPG,AFNE01.JPG,AFNE01.JPG,,,,,,,,,,,,,2,0,20,1,,,,,,,,,,,AFSA20.jpg,AFNE03.jpg,AFNE04.jpg,AFSA19.jpg,AFNE04.jpg,FN,3,num_2,32,num_6,0.733542070404,,,2017_Nov_22_1229,60.0204444676,MAFE4ImagesEEG,001,202414,
AFNE01.JPG,AFNE01.JPG,AFNE01.JPG,AFNE01.JPG,AFNE01.JPG,AFNE01.JPG,,,,,,,,,,,,,2,1,21,3,,,,,,,,,,,AFNE07.jpg,AFNE03.jpg,AFSA03.jpg,AFSA20.jpg,AFSA03.jpg,FS,4,num_2,32,num_8,0.466894263198,,,2017_Nov_22_1229,60.0204444676,MAFE4ImagesEEG,001,202414,
AFNE01.JPG,AFNE01.JPG,AFNE01.JPG,AFNE01.JPG,AFNE01.JPG,AFNE01.JPG,,,,,,,,,,,,,2,2,22,6,,,,,,,,,,,AFSA18.jpg,AFNE01.jpg,AFSA10.jpg,AFNE08.jpg,AFSA18.jpg,FS,4,num_8,32,num_2,0.550146289141,,,2017_Nov_22_1229,60.0204444676,MAFE4ImagesEEG,001,202414,
AFNE01.JPG,AFNE01.JPG,AFNE01.JPG,AFNE01.JPG,AFNE01.JPG,AFNE01.JPG,,,,,,,,,,,,,2,3,23,2,,,,,,,,,,,AFSA10.jpg,AFNE14.jpg,AFSA04.jpg,AFNE17.jpg,AFSA04.jpg,FS,4,num_2,32,num_8,0.666774435056,,,2017_Nov_22_1229,60.0204444676,MAFE4ImagesEEG,001,202414,
AFNE01.JPG,AFNE01.JPG,AFNE01.JPG,AFNE01.JPG,AFNE01.JPG,AFNE01.JPG,,,,,,,,,,,,,2,4,24,8,,,,,,,,,,,AFSA03.jpg,AFNE04.jpg,AFNE18.jpg,AFSA11.jpg,AFSA11.jpg,FS,4,num_4,16,num_4,0.533535848081,,,2017_Nov_22_1229,60.0204444676,MAFE4ImagesEEG,001,202414,
AFNE01.JPG,AFNE01.JPG,AFNE01.JPG,AFNE01.JPG,AFNE01.JPG,AFNE01.JPG,,,,,,,,,,,,,2,5,25,5,,,,,,,,,,,AFNE05.jpg,AFSA12.jpg,AFSA11.jpg,AFNE03.jpg,AFNE05.jpg,FN,3,num_8,32,num_6,1.10011136063,,,2017_Nov_22_1229,60.0204444676,MAFE4ImagesEEG,001,202414,
AFNE01.JPG,AFNE01.JPG,AFNE01.JPG,AFNE01.JPG,AFNE01.JPG,AFNE01.JPG,,,,,,,,,,,,,2,6,26,7,,,,,,,,,,,AFNE01.jpg,AFSA07.jpg,AFSA03.jpg,AFNE05.jpg,AFSA07.jpg,FS,4,num_6,16,num_6,1.03343834332,,,2017_Nov_22_1229,60.0204444676,MAFE4ImagesEEG,001,202414,
AFNE01.JPG,AFNE01.JPG,AFNE01.JPG,AFNE01.JPG,AFNE01.JPG,AFNE01.JPG,,,,,,,,,,,,,2,7,27,4,,,,,,,,,,,AFNE14.jpg,AFSA13.jpg,AFNE15.jpg,AFSA11.jpg,AFSA13.jpg,FS,4,num_6,32,num_4,1.25012909752,,,2017_Nov_22_1229,60.0204444676,MAFE4ImagesEEG,001,202414,
AFNE01.JPG,AFNE01.JPG,AFNE01.JPG,AFNE01.JPG,AFNE01.JPG,AFNE01.JPG,,,,,,,,,,,,,2,8,28,0,,,,,,,,,,,AFNE07.jpg,AFSA08.jpg,AFNE12.jpg,AFSA13.jpg,AFSA13.jpg,FS,4,num_4,32,num_6,0.716825785377,,,2017_Nov_22_1229,60.0204444676,MAFE4ImagesEEG,001,202414,
AFNE01.JPG,AFNE01.JPG,AFNE01.JPG,AFNE01.JPG,AFNE01.JPG,AFNE01.JPG,,,,,,,,,,,,,2,9,29,9,,,,,,,,,,,AFSA16.jpg,AFNE09.jpg,AFNE20.jpg,AFSA13.jpg,AFNE20.jpg,FN,3,num_2,32,num_8,0.900170889829,,,2017_Nov_22_1229,60.0204444676,MAFE4ImagesEEG,001,202414,
AFNE01.JPG,AFNE01.JPG,AFNE01.JPG,AFNE01.JPG,AFNE01.JPG,AFNE01.JPG,,,,,,,,,,,,,3,0,30,7,,,,,,,,,,,AFNE11.jpg,AFSA12.jpg,AFSA18.jpg,AFNE15.jpg,AFSA12.jpg,FS,4,num_6,32,num_2,0.71677895746,,,2017_Nov_22_1229,60.0204444676,MAFE4ImagesEEG,001,202414,
AFNE01.JPG,AFNE01.JPG,AFNE01.JPG,AFNE01.JPG,AFNE01.JPG,AFNE01.JPG,,,,,,,,,,,,,3,1,31,5,,,,,,,,,,,AFNE04.jpg,AFNE19.jpg,AFSA03.jpg,AFSA11.jpg,AFSA03.jpg,FS,4,num_2,32,num_8,1.0334976801,,,2017_Nov_22_1229,60.0204444676,MAFE4ImagesEEG,001,202414,
AFNE01.JPG,AFNE01.JPG,AFNE01.JPG,AFNE01.JPG,AFNE01.JPG,AFNE01.JPG,,,,,,,,,,,,,3,2,32,1,,,,,,,,,,,AFSA05.jpg,AFNE14.jpg,AFNE08.jpg,AFSA12.jpg,AFNE14.jpg,FN,3,num_6,32,num_8,1.46679162665,,,2017_Nov_22_1229,60.0204444676,MAFE4ImagesEEG,001,202414,
AFNE01.JPG,AFNE01.JPG,AFNE01.JPG,AFNE01.JPG,AFNE01.JPG,AFNE01.JPG,,,,,,,,,,,,,3,3,33,2,,,,,,,,,,,AFSA18.jpg,AFNE08.jpg,AFSA11.jpg,AFNE04.jpg,AFSA11.jpg,FS,4,num_2,16,num_2,0.783437541511,,,2017_Nov_22_1229,60.0204444676,MAFE4ImagesEEG,001,202414,
AFNE01.JPG,AFNE01.JPG,AFNE01.JPG,AFNE01.JPG,AFNE01.JPG,AFNE01.JPG,,,,,,,,,,,,,3,4,34,9,,,,,,,,,,,AFNE14.jpg,AFSA01.jpg,AFNE15.jpg,AFSA05.jpg,AFNE15.jpg,FN,3,num_2,32,num_6,1.00018474576,,,2017_Nov_22_1229,60.0204444676,MAFE4ImagesEEG,001,202414,
AFNE01.JPG,AFNE01.JPG,AFNE01.JPG,AFNE01.JPG,AFNE01.JPG,AFNE01.JPG,,,,,,,,,,,,,3,5,35,0,,,,,,,,,,,AFNE06.jpg,AFSA08.jpg,AFSA03.jpg,AFNE03.jpg,AFSA03.jpg,FS,4,num_2,16,num_2,0.616774402937,,,2017_Nov_22_1229,60.0204444676,MAFE4ImagesEEG,001,202414,
AFNE01.JPG,AFNE01.JPG,AFNE01.JPG,AFNE01.JPG,AFNE01.JPG,AFNE01.JPG,,,,,,,,,,,,,3,6,36,6,,,,,,,,,,,AFNE12.jpg,AFSA20.jpg,AFNE20.jpg,AFSA13.jpg,AFSA20.jpg,FS,4,num_6,32,num_4,1.93339850754,,,2017_Nov_22_1229,60.0204444676,MAFE4ImagesEEG,001,202414,
AFNE01.JPG,AFNE01.JPG,AFNE01.JPG,AFNE01.JPG,AFNE01.JPG,AFNE01.JPG,,,,,,,,,,,,,3,7,37,3,,,,,,,,,,,AFSA17.jpg,AFSA16.jpg,AFNE01.jpg,AFNE14.jpg,AFNE14.jpg,FN,3,num_4,16,num_4,0.916772029508,,,2017_Nov_22_1229,60.0204444676,MAFE4ImagesEEG,001,202414,
AFNE01.JPG,AFNE01.JPG,AFNE01.JPG,AFNE01.JPG,AFNE01.JPG,AFNE01.JPG,,,,,,,,,,,,,3,8,38,4,,,,,,,,,,,AFSA03.jpg,AFNE18.jpg,AFNE06.jpg,AFSA02.jpg,AFSA03.jpg,FS,4,num_8,16,num_8,0.650172653928,,,2017_Nov_22_1229,60.0204444676,MAFE4ImagesEEG,001,202414,
AFNE01.JPG,AFNE01.JPG,AFNE01.JPG,AFNE01.JPG,AFNE01.JPG,AFNE01.JPG,,,,,,,,,,,,,3,9,39,8,,,,,,,,,,,AFSA05.jpg,AFSA11.jpg,AFNE11.jpg,AFNE12.jpg,AFSA11.jpg,FS,4,num_6,32,num_2,0.966774306726,,,2017_Nov_22_1229,60.0204444676,MAFE4ImagesEEG,001,202414,
AFNE01.JPG,AFNE01.JPG,AFNE01.JPG,AFNE01.JPG,AFNE01.JPG,AFNE01.JPG,,,,,,,,,,,,,4,0,40,7,,,,,,,,,,,AFNE20.jpg,AFSA07.jpg,AFSA03.jpg,AFNE11.jpg,AFNE11.jpg,FN,3,num_4,16,num_4,0.68347500384,,,2017_Nov_22_1229,60.0204444676,MAFE4ImagesEEG,001,202414,
AFNE01.JPG,AFNE01.JPG,AFNE01.JPG,AFNE01.JPG,AFNE01.JPG,AFNE01.JPG,,,,,,,,,,,,,4,1,41,9,,,,,,,,,,,AFSA05.jpg,AFSA16.jpg,AFNE13.jpg,AFNE09.jpg,AFSA05.jpg,FS,4,num_8,32,num_6,1.10014760419,,,2017_Nov_22_1229,60.0204444676,MAFE4ImagesEEG,001,202414,
AFNE01.JPG,AFNE01.JPG,AFNE01.JPG,AFNE01.JPG,AFNE01.JPG,AFNE01.JPG,,,,,,,,,,,,,4,2,42,3,,,,,,,,,,,AFSA03.jpg,AFNE15.jpg,AFNE19.jpg,AFSA16.jpg,AFSA03.jpg,FS,4,num_8,32,num_2,1.41674925701,,,2017_Nov_22_1229,60.0204444676,MAFE4ImagesEEG,001,202414,
AFNE01.JPG,AFNE01.JPG,AFNE01.JPG,AFNE01.JPG,AFNE01.JPG,AFNE01.JPG,,,,,,,,,,,,,4,3,43,8,,,,,,,,,,,AFNE14.jpg,AFNE11.jpg,AFSA20.jpg,AFSA19.jpg,AFSA19.jpg,FS,4,num_4,32,num_2,1.38339975843,,,2017_Nov_22_1229,60.0204444676,MAFE4ImagesEEG,001,202414,
AFNE01.JPG,AFNE01.JPG,AFNE01.JPG,AFNE01.JPG,AFNE01.JPG,AFNE01.JPG,,,,,,,,,,,,,4,4,44,2,,,,,,,,,,,AFNE16.jpg,AFSA07.jpg,AFNE02.jpg,AFSA10.jpg,AFSA10.jpg,FS,4,num_4,32,num_8,0.716793711472,,,2017_Nov_22_1229,60.0204444676,MAFE4ImagesEEG,001,202414,
AFNE01.JPG,AFNE01.JPG,AFNE01.JPG,AFNE01.JPG,AFNE01.JPG,AFNE01.JPG,,,,,,,,,,,,,4,5,45,0,,,,,,,,,,,AFSA09.jpg,AFSA02.jpg,AFNE09.jpg,AFNE19.jpg,AFNE09.jpg,FN,3,num_2,32,num_8,0.716856897081,,,2017_Nov_22_1229,60.0204444676,MAFE4ImagesEEG,001,202414,
AFNE01.JPG,AFNE01.JPG,AFNE01.JPG,AFNE01.JPG,AFNE01.JPG,AFNE01.JPG,,,,,,,,,,,,,4,6,46,4,,,,,,,,,,,AFNE02.jpg,AFNE04.jpg,AFSA15.jpg,AFSA06.jpg,AFSA06.jpg,FS,4,num_4,16,num_4,0.6501299956,,,2017_Nov_22_1229,60.0204444676,MAFE4ImagesEEG,001,202414,
AFNE01.JPG,AFNE01.JPG,AFNE01.JPG,AFNE01.JPG,AFNE01.JPG,AFNE01.JPG,,,,,,,,,,,,,4,7,47,1,,,,,,,,,,,AFNE05.jpg,AFSA04.jpg,AFSA15.jpg,AFNE16.jpg,AFSA04.jpg,FS,4,num_6,32,num_8,0.650177144271,,,2017_Nov_22_1229,60.0204444676,MAFE4ImagesEEG,001,202414,
AFNE01.JPG,AFNE01.JPG,AFNE01.JPG,AFNE01.JPG,AFNE01.JPG,AFNE01.JPG,,,,,,,,,,,,,4,8,48,5,,,,,,,,,,,AFSA05.jpg,AFSA13.jpg,AFNE02.jpg,AFNE14.jpg,AFNE02.jpg,FN,3,num_2,16,num_2,0.733444565674,,,2017_Nov_22_1229,60.0204444676,MAFE4ImagesEEG,001,202414,
AFNE01.JPG,AFNE01.JPG,AFNE01.JPG,AFNE01.JPG,AFNE01.JPG,AFNE01.JPG,,,,,,,,,,,,,4,9,49,6,,,,,,,,,,,AFNE16.jpg,AFNE15.jpg,AFSA03.jpg,AFSA14.jpg,AFNE16.jpg,FN,3,num_8,32,num_4,0.750113702059,,,2017_Nov_22_1229,60.0204444676,MAFE4ImagesEEG,001,202414,
AFNE01.JPG,AFNE01.JPG,AFNE01.JPG,AFNE01.JPG,AFNE01.JPG,AFNE01.JPG,,,,,,,,,,,,,5,0,50,7,,,,,,,,,,,AFSA05.jpg,AFNE18.jpg,AFSA11.jpg,AFNE01.jpg,AFNE01.jpg,FN,3,num_4,32,num_2,0.583524333517,,,2017_Nov_22_1229,60.0204444676,MAFE4ImagesEEG,001,202414,
AFNE01.JPG,AFNE01.JPG,AFNE01.JPG,AFNE01.JPG,AFNE01.JPG,AFNE01.JPG,,,,,,,,,,,,,5,1,51,0,,,,,,,,,,,AFNE20.jpg,AFSA01.jpg,AFNE05.jpg,AFSA05.jpg,AFNE20.jpg,FN,3,num_8,32,num_6,0.833526739065,,,2017_Nov_22_1229,60.0204444676,MAFE4ImagesEEG,001,202414,
AFNE01.JPG,AFNE01.JPG,AFNE01.JPG,AFNE01.JPG,AFNE01.JPG,AFNE01.JPG,,,,,,,,,,,,,5,2,52,2,,,,,,,,,,,AFNE04.jpg,AFNE03.jpg,AFSA16.jpg,AFSA02.jpg,AFSA02.jpg,FS,4,num_4,32,num_8,1.55007412282,,,2017_Nov_22_1229,60.0204444676,MAFE4ImagesEEG,001,202414,
AFNE01.JPG,AFNE01.JPG,AFNE01.JPG,AFNE01.JPG,AFNE01.JPG,AFNE01.JPG,,,,,,,,,,,,,5,3,53,6,,,,,,,,,,,AFNE09.jpg,AFSA09.jpg,AFNE04.jpg,AFSA13.jpg,AFSA13.jpg,FS,4,num_4,16,num_4,0.666808754118,,,2017_Nov_22_1229,60.0204444676,MAFE4ImagesEEG,001,202414,
AFNE01.JPG,AFNE01.JPG,AFNE01.JPG,AFNE01.JPG,AFNE01.JPG,AFNE01.JPG,,,,,,,,,,,,,5,4,54,4,,,,,,,,,,,AFSA20.jpg,AFNE14.jpg,AFNE12.jpg,AFSA01.jpg,AFSA20.jpg,FS,4,num_8,16,num_8,1.50011899424,,,2017_Nov_22_1229,60.0204444676,MAFE4ImagesEEG,001,202414,
AFNE01.JPG,AFNE01.JPG,AFNE01.JPG,AFNE01.JPG,AFNE01.JPG,AFNE01.JPG,,,,,,,,,,,,,5,5,55,3,,,,,,,,,,,AFNE12.jpg,AFSA12.jpg,AFSA10.jpg,AFNE05.jpg,AFNE05.jpg,FN,3,num_4,32,num_8,0.566789445613,,,2017_Nov_22_1229,60.0204444676,MAFE4ImagesEEG,001,202414,
AFNE01.JPG,AFNE01.JPG,AFNE01.JPG,AFNE01.JPG,AFNE01.JPG,AFNE01.JPG,,,,,,,,,,,,,5,6,56,9,,,,,,,,,,,AFSA07.jpg,AFSA20.jpg,AFNE15.jpg,AFNE07.jpg,AFSA20.jpg,FS,4,num_6,16,num_6,0.683481739339,,,2017_Nov_22_1229,60.0204444676,MAFE4ImagesEEG,001,202414,
AFNE01.JPG,AFNE01.JPG,AFNE01.JPG,AFNE01.JPG,AFNE01.JPG,AFNE01.JPG,,,,,,,,,,,,,5,7,57,1,,,,,,,,,,,AFSA19.jpg,AFNE17.jpg,AFSA16.jpg,AFNE08.jpg,AFSA19.jpg,FS,4,num_8,32,num_2,0.600199884677,,,2017_Nov_22_1229,60.0204444676,MAFE4ImagesEEG,001,202414,
AFNE01.JPG,AFNE01.JPG,AFNE01.JPG,AFNE01.JPG,AFNE01.JPG,AFNE01.JPG,,,,,,,,,,,,,5,8,58,5,,,,,,,,,,,AFNE19.jpg,AFSA10.jpg,AFSA08.jpg,AFNE05.jpg,AFSA10.jpg,FS,4,num_6,16,num_6,0.683503870387,,,2017_Nov_22_1229,60.0204444676,MAFE4ImagesEEG,001,202414,
AFNE01.JPG,AFNE01.JPG,AFNE01.JPG,AFNE01.JPG,AFNE01.JPG,AFNE01.JPG,,,,,,,,,,,,,5,9,59,8,,,,,,,,,,,AFNE16.jpg,AFSA02.jpg,AFSA03.jpg,AFNE15.jpg,AFSA03.jpg,FS,4,num_2,32,num_8,0.616818344221,,,2017_Nov_22_1229,60.0204444676,MAFE4ImagesEEG,001,202414,
,,,,,,,,,,,,,,,,,,,,,,,,,,,,,,,,,,,,,,,,,,,space,47.8463630421,2017_Nov_22_1229,60.0204444676,MAFE4ImagesEEG,001,202414,
AFNE01.JPG,AFNE01.JPG,AFNE01.JPG,AFNE01.JPG,AFNE01.JPG,AFNE01.JPG,,,,,,,,,,,,,,,,,0,0,0,2,,,,,,,AMNE20.jpg,AMSA01.jpg,AMNE03.jpg,AMSA11.jpg,AMSA11.jpg,MS,2,num_4,16,num_4,0.783525103296,,,2017_Nov_22_1229,60.0204444676,MAFE4ImagesEEG,001,202414,
AFNE01.JPG,AFNE01.JPG,AFNE01.JPG,AFNE01.JPG,AFNE01.JPG,AFNE01.JPG,,,,,,,,,,,,,,,,,0,1,1,7,,,,,,,AMSA18.jpg,AMNE13.jpg,AMSA08.jpg,AMNE14.jpg,AMNE14.jpg,MN,1,num_4,32,num_2,0.883540242183,,,2017_Nov_22_1229,60.0204444676,MAFE4ImagesEEG,001,202414,
AFNE01.JPG,AFNE01.JPG,AFNE01.JPG,AFNE01.JPG,AFNE01.JPG,AFNE01.JPG,,,,,,,,,,,,,,,,,0,2,2,6,,,,,,,AMSA01.jpg,AMNE02.jpg,AMNE10.jpg,AMSA06.jpg,AMSA06.jpg,MS,2,num_4,16,num_4,0.900134967058,,,2017_Nov_22_1229,60.0204444676,MAFE4ImagesEEG,001,202414,
AFNE01.JPG,AFNE01.JPG,AFNE01.JPG,AFNE01.JPG,AFNE01.JPG,AFNE01.JPG,,,,,,,,,,,,,,,,,0,3,3,4,,,,,,,AMNE02.jpg,AMSA02.jpg,AMSA06.jpg,AMNE01.jpg,AMSA06.jpg,MS,2,num_2,32,num_8,0.866756601929,,,2017_Nov_22_1229,60.0204444676,MAFE4ImagesEEG,001,202414,
AFNE01.JPG,AFNE01.JPG,AFNE01.JPG,AFNE01.JPG,AFNE01.JPG,AFNE01.JPG,,,,,,,,,,,,,,,,,0,4,4,5,,,,,,,AMSA19.jpg,AMNE14.jpg,AMSA06.jpg,AMNE09.jpg,AMNE09.jpg,MN,1,num_4,32,num_2,0.700157931977,,,2017_Nov_22_1229,60.0204444676,MAFE4ImagesEEG,001,202414,
AFNE01.JPG,AFNE01.JPG,AFNE01.JPG,AFNE01.JPG,AFNE01.JPG,AFNE01.JPG,,,,,,,,,,,,,,,,,0,5,5,0,,,,,,,AMNE18.jpg,AMNE15.jpg,AMSA20.jpg,AMSA14.jpg,AMSA20.jpg,MS,2,num_2,32,num_8,0.833523531677,,,2017_Nov_22_1229,60.0204444676,MAFE4ImagesEEG,001,202414,
AFNE01.JPG,AFNE01.JPG,AFNE01.JPG,AFNE01.JPG,AFNE01.JPG,AFNE01.JPG,,,,,,,,,,,,,,,,,0,6,6,9,,,,,,,AMSA10.jpg,AMNE01.jpg,AMSA17.jpg,AMNE12.jpg,AMNE01.jpg,MN,1,num_6,16,num_6,0.916770746553,,,2017_Nov_22_1229,60.0204444676,MAFE4ImagesEEG,001,202414,
AFNE01.JPG,AFNE01.JPG,AFNE01.JPG,AFNE01.JPG,AFNE01.JPG,AFNE01.JPG,,,,,,,,,,,,,,,,,0,7,7,3,,,,,,,AMNE02.jpg,AMNE19.jpg,AMSA20.jpg,AMSA13.jpg,AMSA20.jpg,MS,2,num_2,32,num_6,1.0168192423,,,2017_Nov_22_1229,60.0204444676,MAFE4ImagesEEG,001,202414,
AFNE01.JPG,AFNE01.JPG,AFNE01.JPG,AFNE01.JPG,AFNE01.JPG,AFNE01.JPG,,,,,,,,,,,,,,,,,0,8,8,8,,,,,,,AMNE06.jpg,AMNE04.jpg,AMSA03.jpg,AMSA13.jpg,AMSA03.jpg,MS,2,num_2,32,num_6,1.36673062207,,,2017_Nov_22_1229,60.0204444676,MAFE4ImagesEEG,001,202414,
AFNE01.JPG,AFNE01.JPG,AFNE01.JPG,AFNE01.JPG,AFNE01.JPG,AFNE01.JPG,,,,,,,,,,,,,,,,,0,9,9,1,,,,,,,AMNE12.jpg,AMNE15.jpg,AMSA08.jpg,AMSA01.jpg,AMSA08.jpg,MS,2,num_2,16,num_2,0.733511279424,,,2017_Nov_22_1229,60.0204444676,MAFE4ImagesEEG,001,202414,
AFNE01.JPG,AFNE01.JPG,AFNE01.JPG,AFNE01.JPG,AFNE01.JPG,AFNE01.JPG,,,,,,,,,,,,,,,,,1,0,10,6,,,,,,,AMSA13.jpg,AMNE11.jpg,AMSA10.jpg,AMNE10.jpg,AMSA13.jpg,MS,2,num_8,16,num_8,1.48340655811,,,2017_Nov_22_1229,60.0204444676,MAFE4ImagesEEG,001,202414,
AFNE01.JPG,AFNE01.JPG,AFNE01.JPG,AFNE01.JPG,AFNE01.JPG,AFNE01.JPG,,,,,,,,,,,,,,,,,1,1,11,8,,,,,,,AMNE14.jpg,AMNE03.jpg,AMSA07.jpg,AMSA17.jpg,AMSA17.jpg,MS,2,num_4,16,num_4,1.10013285017,,,2017_Nov_22_1229,60.0204444676,MAFE4ImagesEEG,001,202414,
AFNE01.JPG,AFNE01.JPG,AFNE01.JPG,AFNE01.JPG,AFNE01.JPG,AFNE01.JPG,,,,,,,,,,,,,,,,,1,2,12,3,,,,,,,AMNE01.jpg,AMNE05.jpg,AMSA20.jpg,AMSA04.jpg,AMNE05.jpg,MN,1,num_6,32,num_8,1.48339597369,,,2017_Nov_22_1229,60.0204444676,MAFE4ImagesEEG,001,202414,
AFNE01.JPG,AFNE01.JPG,AFNE01.JPG,AFNE01.JPG,AFNE01.JPG,AFNE01.JPG,,,,,,,,,,,,,,,,,1,3,13,4,,,,,,,AMSA04.jpg,AMSA15.jpg,AMNE13.jpg,AMNE04.jpg,AMSA04.jpg,MS,2,num_8,32,num_4,0.966642482934,,,2017_Nov_22_1229,60.0204444676,MAFE4ImagesEEG,001,202414,
AFNE01.JPG,AFNE01.JPG,AFNE01.JPG,AFNE01.JPG,AFNE01.JPG,AFNE01.JPG,,,,,,,,,,,,,,,,,1,4,14,1,,,,,,,AMSA05.jpg,AMNE18.jpg,AMSA03.jpg,AMNE08.jpg,AMNE08.jpg,MN,1,num_4,16,num_4,0.483438952768,,,2017_Nov_22_1229,60.0204444676,MAFE4ImagesEEG,001,202414,
AFNE01.JPG,AFNE01.JPG,AFNE01.JPG,AFNE01.JPG,AFNE01.JPG,AFNE01.JPG,,,,,,,,,,,,,,,,,1,5,15,7,,,,,,,AMSA03.jpg,AMNE09.jpg,AMSA10.jpg,AMNE11.jpg,AMSA03.jpg,MS,2,num_8,16,num_8,0.966780721501,,,2017_Nov_22_1229,60.0204444676,MAFE4ImagesEEG,001,202414,
AFNE01.JPG,AFNE01.JPG,AFNE01.JPG,AFNE01.JPG,AFNE01.JPG,AFNE01.JPG,,,,,,,,,,,,,,,,,1,6,16,9,,,,,,,AMNE20.jpg,AMNE04.jpg,AMSA12.jpg,AMSA20.jpg,AMSA12.jpg,MS,2,num_2,32,num_6,1.05006738732,,,2017_Nov_22_1229,60.0204444676,MAFE4ImagesEEG,001,202414,
AFNE01.JPG,AFNE01.JPG,AFNE01.JPG,AFNE01.JPG,AFNE01.JPG,AFNE01.JPG,,,,,,,,,,,,,,,,,1,7,17,2,,,,,,,AMNE12.jpg,AMSA08.jpg,AMNE06.jpg,AMSA07.jpg,AMNE12.jpg,MN,1,num_8,16,num_8,0.833464515657,,,2017_Nov_22_1229,60.0204444676,MAFE4ImagesEEG,001,202414,
AFNE01.JPG,AFNE01.JPG,AFNE01.JPG,AFNE01.JPG,AFNE01.JPG,AFNE01.JPG,,,,,,,,,,,,,,,,,1,8,18,5,,,,,,,AMNE13.jpg,AMNE04.jpg,AMSA13.jpg,AMSA19.jpg,AMNE13.jpg,MN,1,num_8,32,num_6,0.983462045959,,,2017_Nov_22_1229,60.0204444676,MAFE4ImagesEEG,001,202414,
AFNE01.JPG,AFNE01.JPG,AFNE01.JPG,AFNE01.JPG,AFNE01.JPG,AFNE01.JPG,,,,,,,,,,,,,,,,,1,9,19,0,,,,,,,AMNE01.jpg,AMSA11.jpg,AMSA04.jpg,AMNE20.jpg,AMNE20.jpg,MN,1,num_4,32,num_2,2.28365436121,,,2017_Nov_22_1229,60.0204444676,MAFE4ImagesEEG,001,202414,
AFNE01.JPG,AFNE01.JPG,AFNE01.JPG,AFNE01.JPG,AFNE01.JPG,AFNE01.JPG,,,,,,,,,,,,,,,,,2,0,20,1,,,,,,,AMNE02.jpg,AMNE15.jpg,AMSA07.jpg,AMSA04.jpg,AMNE15.jpg,MN,1,num_6,16,num_6,0.750099589524,,,2017_Nov_22_1229,60.0204444676,MAFE4ImagesEEG,001,202414,
AFNE01.JPG,AFNE01.JPG,AFNE01.JPG,AFNE01.JPG,AFNE01.JPG,AFNE01.JPG,,,,,,,,,,,,,,,,,2,1,21,8,,,,,,,AMNE12.jpg,AMSA01.jpg,AMNE14.jpg,AMSA13.jpg,AMNE12.jpg,MN,1,num_8,32,num_6,0.800133619952,,,2017_Nov_22_1229,60.0204444676,MAFE4ImagesEEG,001,202414,
AFNE01.JPG,AFNE01.JPG,AFNE01.JPG,AFNE01.JPG,AFNE01.JPG,AFNE01.JPG,,,,,,,,,,,,,,,,,2,2,22,4,,,,,,,AMNE08.jpg,AMSA01.jpg,AMNE11.jpg,AMSA09.jpg,AMNE08.jpg,MN,1,num_8,16,num_8,0.666769303207,,,2017_Nov_22_1229,60.0204444676,MAFE4ImagesEEG,001,202414,
AFNE01.JPG,AFNE01.JPG,AFNE01.JPG,AFNE01.JPG,AFNE01.JPG,AFNE01.JPG,,,,,,,,,,,,,,,,,2,3,23,0,,,,,,,AMSA15.jpg,AMSA11.jpg,AMNE09.jpg,AMNE20.jpg,AMNE09.jpg,MN,1,num_2,16,num_2,1.33341608406,,,2017_Nov_22_1229,60.0204444676,MAFE4ImagesEEG,001,202414,
AFNE01.JPG,AFNE01.JPG,AFNE01.JPG,AFNE01.JPG,AFNE01.JPG,AFNE01.JPG,,,,,,,,,,,,,,,,,2,4,24,5,,,,,,,AMSA18.jpg,AMSA16.jpg,AMNE08.jpg,AMNE15.jpg,AMSA18.jpg,MS,2,num_8,32,num_4,0.816815585888,,,2017_Nov_22_1229,60.0204444676,MAFE4ImagesEEG,001,202414,
AFNE01.JPG,AFNE01.JPG,AFNE01.JPG,AFNE01.JPG,AFNE01.JPG,AFNE01.JPG,,,,,,,,,,,,,,,,,2,5,25,7,,,,,,,AMSA15.jpg,AMNE20.jpg,AMSA08.jpg,AMNE16.jpg,AMSA08.jpg,MS,2,num_2,32,num_6,0.883435360476,,,2017_Nov_22_1229,60.0204444676,MAFE4ImagesEEG,001,202414,
AFNE01.JPG,AFNE01.JPG,AFNE01.JPG,AFNE01.JPG,AFNE01.JPG,AFNE01.JPG,,,,,,,,,,,,,,,,,2,6,26,6,,,,,,,AMSA14.jpg,AMSA04.jpg,AMNE01.jpg,AMNE09.jpg,AMSA14.jpg,MS,2,num_8,32,num_2,1.38348603726,,,2017_Nov_22_1229,60.0204444676,MAFE4ImagesEEG,001,202414,
AFNE01.JPG,AFNE01.JPG,AFNE01.JPG,AFNE01.JPG,AFNE01.JPG,AFNE01.JPG,,,,,,,,,,,,,,,,,2,7,27,3,,,,,,,AMSA12.jpg,AMNE10.jpg,AMSA18.jpg,AMNE02.jpg,AMSA18.jpg,MS,2,num_2,32,num_6,0.933498898899,,,2017_Nov_22_1229,60.0204444676,MAFE4ImagesEEG,001,202414,
AFNE01.JPG,AFNE01.JPG,AFNE01.JPG,AFNE01.JPG,AFNE01.JPG,AFNE01.JPG,,,,,,,,,,,,,,,,,2,8,28,9,,,,,,,AMSA16.jpg,AMSA11.jpg,AMNE12.jpg,AMNE03.jpg,AMSA16.jpg,MS,2,num_8,16,num_8,0.816583370703,,,2017_Nov_22_1229,60.0204444676,MAFE4ImagesEEG,001,202414,
AFNE01.JPG,AFNE01.JPG,AFNE01.JPG,AFNE01.JPG,AFNE01.JPG,AFNE01.JPG,,,,,,,,,,,,,,,,,2,9,29,2,,,,,,,AMNE09.jpg,AMNE03.jpg,AMSA13.jpg,AMSA10.jpg,AMSA13.jpg,MS,2,num_2,32,num_6,0.900125986373,,,2017_Nov_22_1229,60.0204444676,MAFE4ImagesEEG,001,202414,
AFNE01.JPG,AFNE01.JPG,AFNE01.JPG,AFNE01.JPG,AFNE01.JPG,AFNE01.JPG,,,,,,,,,,,,,,,,,3,0,30,5,,,,,,,AMSA09.jpg,AMSA17.jpg,AMNE17.jpg,AMNE08.jpg,AMSA17.jpg,MS,2,num_6,32,num_4,0.783407392009,,,2017_Nov_22_1229,60.0204444676,MAFE4ImagesEEG,001,202414,
AFNE01.JPG,AFNE01.JPG,AFNE01.JPG,AFNE01.JPG,AFNE01.JPG,AFNE01.JPG,,,,,,,,,,,,,,,,,3,1,31,0,,,,,,,AMNE05.jpg,AMSA16.jpg,AMNE04.jpg,AMSA10.jpg,AMNE05.jpg,MN,1,num_8,32,num_6,0.950131471007,,,2017_Nov_22_1229,60.0204444676,MAFE4ImagesEEG,001,202414,
AFNE01.JPG,AFNE01.JPG,AFNE01.JPG,AFNE01.JPG,AFNE01.JPG,AFNE01.JPG,,,,,,,,,,,,,,,,,3,2,32,2,,,,,,,AMNE19.jpg,AMSA09.jpg,AMSA14.jpg,AMNE12.jpg,AMNE12.jpg,MN,1,num_4,32,num_8,0.700189364405,,,2017_Nov_22_1229,60.0204444676,MAFE4ImagesEEG,001,202414,
AFNE01.JPG,AFNE01.JPG,AFNE01.JPG,AFNE01.JPG,AFNE01.JPG,AFNE01.JPG,,,,,,,,,,,,,,,,,3,3,33,1,,,,,,,AMSA02.jpg,AMSA11.jpg,AMNE07.jpg,AMNE11.jpg,AMSA11.jpg,MS,2,num_6,16,num_6,0.733807321696,,,2017_Nov_22_1229,60.0204444676,MAFE4ImagesEEG,001,202414,
AFNE01.JPG,AFNE01.JPG,AFNE01.JPG,AFNE01.JPG,AFNE01.JPG,AFNE01.JPG,,,,,,,,,,,,,,,,,3,4,34,9,,,,,,,AMNE02.jpg,AMSA18.jpg,AMNE05.jpg,AMSA09.jpg,AMSA09.jpg,MS,2,num_4,32,num_2,1.4501847137,,,2017_Nov_22_1229,60.0204444676,MAFE4ImagesEEG,001,202414,
AFNE01.JPG,AFNE01.JPG,AFNE01.JPG,AFNE01.JPG,AFNE01.JPG,AFNE01.JPG,,,,,,,,,,,,,,,,,3,5,35,7,,,,,,,AMNE03.jpg,AMSA15.jpg,AMSA04.jpg,AMNE01.jpg,AMNE01.jpg,MN,1,num_4,32,num_2,0.583492901089,,,2017_Nov_22_1229,60.0204444676,MAFE4ImagesEEG,001,202414,
AFNE01.JPG,AFNE01.JPG,AFNE01.JPG,AFNE01.JPG,AFNE01.JPG,AFNE01.JPG,,,,,,,,,,,,,,,,,3,6,36,6,,,,,,,AMNE10.jpg,AMNE06.jpg,AMSA06.jpg,AMSA04.jpg,AMNE10.jpg,MN,1,num_8,32,num_6,0.633618021442,,,2017_Nov_22_1229,60.0204444676,MAFE4ImagesEEG,001,202414,
AFNE01.JPG,AFNE01.JPG,AFNE01.JPG,AFNE01.JPG,AFNE01.JPG,AFNE01.JPG,,,,,,,,,,,,,,,,,3,7,37,8,,,,,,,AMNE09.jpg,AMNE18.jpg,AMSA11.jpg,AMSA19.jpg,AMSA11.jpg,MS,2,num_2,32,num_4,0.850117615046,,,2017_Nov_22_1229,60.0204444676,MAFE4ImagesEEG,001,202414,
AFNE01.JPG,AFNE01.JPG,AFNE01.JPG,AFNE01.JPG,AFNE01.JPG,AFNE01.JPG,,,,,,,,,,,,,,,,,3,8,38,4,,,,,,,AMNE06.jpg,AMSA17.jpg,AMSA16.jpg,AMNE15.jpg,AMNE15.jpg,MN,1,num_4,16,num_4,0.80015222283,,,2017_Nov_22_1229,60.0204444676,MAFE4ImagesEEG,001,202414,
AFNE01.JPG,AFNE01.JPG,AFNE01.JPG,AFNE01.JPG,AFNE01.JPG,AFNE01.JPG,,,,,,,,,,,,,,,,,3,9,39,3,,,,,,,AMNE14.jpg,AMNE01.jpg,AMSA12.jpg,AMSA03.jpg,AMSA12.jpg,MS,2,num_2,32,num_6,0.716797239613,,,2017_Nov_22_1229,60.0204444676,MAFE4ImagesEEG,001,202414,
AFNE01.JPG,AFNE01.JPG,AFNE01.JPG,AFNE01.JPG,AFNE01.JPG,AFNE01.JPG,,,,,,,,,,,,,,,,,4,0,40,4,,,,,,,AMSA09.jpg,AMNE16.jpg,AMSA07.jpg,AMNE02.jpg,AMNE02.jpg,MN,1,num_4,32,num_6,0.900182757177,,,2017_Nov_22_1229,60.0204444676,MAFE4ImagesEEG,001,202414,
AFNE01.JPG,AFNE01.JPG,AFNE01.JPG,AFNE01.JPG,AFNE01.JPG,AFNE01.JPG,,,,,,,,,,,,,,,,,4,1,41,6,,,,,,,AMSA17.jpg,AMNE03.jpg,AMSA13.jpg,AMNE02.jpg,AMSA17.jpg,MS,2,num_8,32,num_4,0.700188402203,,,2017_Nov_22_1229,60.0204444676,MAFE4ImagesEEG,001,202414,
AFNE01.JPG,AFNE01.JPG,AFNE01.JPG,AFNE01.JPG,AFNE01.JPG,AFNE01.JPG,,,,,,,,,,,,,,,,,4,2,42,2,,,,,,,AMNE01.jpg,AMSA12.jpg,AMNE16.jpg,AMSA10.jpg,AMNE16.jpg,MN,1,num_2,32,num_8,0.500181217649,,,2017_Nov_22_1229,60.0204444676,MAFE4ImagesEEG,001,202414,
AFNE01.JPG,AFNE01.JPG,AFNE01.JPG,AFNE01.JPG,AFNE01.JPG,AFNE01.JPG,,,,,,,,,,,,,,,,,4,3,43,9,,,,,,,AMSA11.jpg,AMNE08.jpg,AMNE13.jpg,AMSA07.jpg,AMSA07.jpg,MS,2,num_4,16,num_4,0.583556728176,,,2017_Nov_22_1229,60.0204444676,MAFE4ImagesEEG,001,202414,
AFNE01.JPG,AFNE01.JPG,AFNE01.JPG,AFNE01.JPG,AFNE01.JPG,AFNE01.JPG,,,,,,,,,,,,,,,,,4,4,44,1,,,,,,,AMSA18.jpg,AMNE12.jpg,AMSA07.jpg,AMNE08.jpg,AMSA07.jpg,MS,2,num_2,16,num_2,0.483493478416,,,2017_Nov_22_1229,60.0204444676,MAFE4ImagesEEG,001,202414,
AFNE01.JPG,AFNE01.JPG,AFNE01.JPG,AFNE01.JPG,AFNE01.JPG,AFNE01.JPG,,,,,,,,,,,,,,,,,4,5,45,3,,,,,,,AMSA18.jpg,AMNE18.jpg,AMNE05.jpg,AMSA10.jpg,AMNE05.jpg,MN,1,num_2,16,num_2,0.583471411548,,,2017_Nov_22_1229,60.0204444676,MAFE4ImagesEEG,001,202414,
AFNE01.JPG,AFNE01.JPG,AFNE01.JPG,AFNE01.JPG,AFNE01.JPG,AFNE01.JPG,,,,,,,,,,,,,,,,,4,6,46,7,,,,,,,AMSA14.jpg,AMNE02.jpg,AMSA18.jpg,AMNE20.jpg,AMNE02.jpg,MN,1,num_6,32,num_8,0.966729403241,,,2017_Nov_22_1229,60.0204444676,MAFE4ImagesEEG,001,202414,
AFNE01.JPG,AFNE01.JPG,AFNE01.JPG,AFNE01.JPG,AFNE01.JPG,AFNE01.JPG,,,,,,,,,,,,,,,,,4,7,47,5,,,,,,,AMSA09.jpg,AMNE09.jpg,AMNE14.jpg,AMSA14.jpg,AMSA14.jpg,MS,2,num_4,32,num_2,1.53339889241,,,2017_Nov_22_1229,60.0204444676,MAFE4ImagesEEG,001,202414,
AFNE01.JPG,AFNE01.JPG,AFNE01.JPG,AFNE01.JPG,AFNE01.JPG,AFNE01.JPG,,,,,,,,,,,,,,,,,4,8,48,0,,,,,,,AMNE15.jpg,AMSA01.jpg,AMSA06.jpg,AMNE18.jpg,AMNE15.jpg,MN,1,num_8,32,num_4,0.683447099524,,,2017_Nov_22_1229,60.0204444676,MAFE4ImagesEEG,001,202414,
AFNE01.JPG,AFNE01.JPG,AFNE01.JPG,AFNE01.JPG,AFNE01.JPG,AFNE01.JPG,,,,,,,,,,,,,,,,,4,9,49,8,,,,,,,AMSA16.jpg,AMSA01.jpg,AMNE16.jpg,AMNE06.jpg,AMNE06.jpg,MN,1,num_4,16,num_4,0.816761380935,,,2017_Nov_22_1229,60.0204444676,MAFE4ImagesEEG,001,202414,
AFNE01.JPG,AFNE01.JPG,AFNE01.JPG,AFNE01.JPG,AFNE01.JPG,AFNE01.JPG,,,,,,,,,,,,,,,,,5,0,50,3,,,,,,,AMSA15.jpg,AMNE11.jpg,AMSA18.jpg,AMNE16.jpg,AMNE16.jpg,MN,1,num_4,16,num_4,0.950235711236,,,2017_Nov_22_1229,60.0204444676,MAFE4ImagesEEG,001,202414,
AFNE01.JPG,AFNE01.JPG,AFNE01.JPG,AFNE01.JPG,AFNE01.JPG,AFNE01.JPG,,,,,,,,,,,,,,,,,5,1,51,5,,,,,,,AMSA11.jpg,AMSA17.jpg,AMNE12.jpg,AMNE15.jpg,AMSA11.jpg,MS,2,num_8,16,num_8,0.716760675306,,,2017_Nov_22_1229,60.0204444676,MAFE4ImagesEEG,001,202414,
AFNE01.JPG,AFNE01.JPG,AFNE01.JPG,AFNE01.JPG,AFNE01.JPG,AFNE01.JPG,,,,,,,,,,,,,,,,,5,2,52,9,,,,,,,AMSA16.jpg,AMNE12.jpg,AMNE18.jpg,AMSA17.jpg,AMNE12.jpg,MN,1,num_6,32,num_8,0.650143145904,,,2017_Nov_22_1229,60.0204444676,MAFE4ImagesEEG,001,202414,
AFNE01.JPG,AFNE01.JPG,AFNE01.JPG,AFNE01.JPG,AFNE01.JPG,AFNE01.JPG,,,,,,,,,,,,,,,,,5,3,53,2,,,,,,,AMSA17.jpg,AMNE19.jpg,AMSA10.jpg,AMNE20.jpg,AMSA17.jpg,MS,2,num_8,32,num_6,0.633433275652,,,2017_Nov_22_1229,60.0204444676,MAFE4ImagesEEG,001,202414,
AFNE01.JPG,AFNE01.JPG,AFNE01.JPG,AFNE01.JPG,AFNE01.JPG,AFNE01.JPG,,,,,,,,,,,,,,,,,5,4,54,0,,,,,,,AMSA14.jpg,AMNE05.jpg,AMNE18.jpg,AMSA20.jpg,AMSA14.jpg,MS,2,num_8,16,num_8,0.633465349587,,,2017_Nov_22_1229,60.0204444676,MAFE4ImagesEEG,001,202414,
AFNE01.JPG,AFNE01.JPG,AFNE01.JPG,AFNE01.JPG,AFNE01.JPG,AFNE01.JPG,,,,,,,,,,,,,,,,,5,5,55,8,,,,,,,AMSA04.jpg,AMSA11.jpg,AMNE12.jpg,AMNE03.jpg,AMSA11.jpg,MS,2,num_6,32,num_4,0.916894872615,,,2017_Nov_22_1229,60.0204444676,MAFE4ImagesEEG,001,202414,
AFNE01.JPG,AFNE01.JPG,AFNE01.JPG,AFNE01.JPG,AFNE01.JPG,AFNE01.JPG,,,,,,,,,,,,,,,,,5,6,56,6,,,,,,,AMSA02.jpg,AMSA18.jpg,AMNE04.jpg,AMNE03.jpg,AMNE04.jpg,MN,1,num_2,32,num_6,1.13344674671,,,2017_Nov_22_1229,60.0204444676,MAFE4ImagesEEG,001,202414,
AFNE01.JPG,AFNE01.JPG,AFNE01.JPG,AFNE01.JPG,AFNE01.JPG,AFNE01.JPG,,,,,,,,,,,,,,,,,5,7,57,7,,,,,,,AMNE20.jpg,AMSA15.jpg,AMNE05.jpg,AMSA08.jpg,AMNE20.jpg,MN,1,num_8,16,num_8,0.983533891529,,,2017_Nov_22_1229,60.0204444676,MAFE4ImagesEEG,001,202414,
AFNE01.JPG,AFNE01.JPG,AFNE01.JPG,AFNE01.JPG,AFNE01.JPG,AFNE01.JPG,,,,,,,,,,,,,,,,,5,8,58,4,,,,,,,AMNE18.jpg,AMNE10.jpg,AMSA08.jpg,AMSA02.jpg,AMSA02.jpg,MS,2,num_4,16,num_4,1.13354489292,,,2017_Nov_22_1229,60.0204444676,MAFE4ImagesEEG,001,202414,
AFNE01.JPG,AFNE01.JPG,AFNE01.JPG,AFNE01.JPG,AFNE01.JPG,AFNE01.JPG,,,,,,,,,,,,,,,,,5,9,59,1,,,,,,,AMNE03.jpg,AMSA17.jpg,AMSA14.jpg,AMNE18.jpg,AMSA14.jpg,MS,2,num_2,16,num_2,0.550233850925,,,2017_Nov_22_1229,60.0204444676,MAFE4ImagesEEG,001,202414,
,,,,,,,,,,,,,,,,,,,,,,,,,,,,,,,,,,,,,,,,,,,space,33.5974726393,2017_Nov_22_1229,60.0204444676,MAFE4ImagesEEG,001,202414,
AFNE01.JPG,AFNE01.JPG,AFNE01.JPG,AFNE01.JPG,AFNE01.JPG,AFNE01.JPG,,,,,,,,,,,,,,,,,,,,,0,0,0,4,,,AFSA17.jpg,AFNE17.jpg,AFSA02.jpg,AFNE15.jpg,AFNE17.jpg,FN,3,num_6,16,num_6,0.933496653743,,,2017_Nov_22_1229,60.0204444676,MAFE4ImagesEEG,001,202414,
AFNE01.JPG,AFNE01.JPG,AFNE01.JPG,AFNE01.JPG,AFNE01.JPG,AFNE01.JPG,,,,,,,,,,,,,,,,,,,,,0,1,1,3,,,AFSA01.jpg,AFSA08.jpg,AFNE17.jpg,AFNE03.jpg,AFSA08.jpg,FS,4,num_6,32,num_8,0.85028055057,,,2017_Nov_22_1229,60.0204444676,MAFE4ImagesEEG,001,202414,
AFNE01.JPG,AFNE01.JPG,AFNE01.JPG,AFNE01.JPG,AFNE01.JPG,AFNE01.JPG,,,,,,,,,,,,,,,,,,,,,0,2,2,1,,,AFNE02.jpg,AFNE20.jpg,AFSA09.jpg,AFSA12.jpg,AFSA09.jpg,FS,4,num_2,16,num_2,0.466769174905,,,2017_Nov_22_1229,60.0204444676,MAFE4ImagesEEG,001,202414,
AFNE01.JPG,AFNE01.JPG,AFNE01.JPG,AFNE01.JPG,AFNE01.JPG,AFNE01.JPG,,,,,,,,,,,,,,,,,,,,,0,3,3,0,,,AFNE20.jpg,AFNE06.jpg,AFSA14.jpg,AFSA05.jpg,AFNE06.jpg,FN,3,num_6,32,num_8,0.750132625661,,,2017_Nov_22_1229,60.0204444676,MAFE4ImagesEEG,001,202414,
AFNE01.JPG,AFNE01.JPG,AFNE01.JPG,AFNE01.JPG,AFNE01.JPG,AFNE01.JPG,,,,,,,,,,,,,,,,,,,,,0,4,4,9,,,AFSA12.jpg,AFSA04.jpg,AFNE17.jpg,AFNE07.jpg,AFSA12.jpg,FS,4,num_8,32,num_2,0.700158573454,,,2017_Nov_22_1229,60.0204444676,MAFE4ImagesEEG,001,202414,
AFNE01.JPG,AFNE01.JPG,AFNE01.JPG,AFNE01.JPG,AFNE01.JPG,AFNE01.JPG,,,,,,,,,,,,,,,,,,,,,0,5,5,5,,,AFSA20.jpg,AFNE16.jpg,AFSA01.jpg,AFNE08.jpg,AFSA01.jpg,FS,4,num_2,32,num_6,0.783469936141,,,2017_Nov_22_1229,60.0204444676,MAFE4ImagesEEG,001,202414,
AFNE01.JPG,AFNE01.JPG,AFNE01.JPG,AFNE01.JPG,AFNE01.JPG,AFNE01.JPG,,,,,,,,,,,,,,,,,,,,,0,6,6,8,,,AFNE03.jpg,AFSA17.jpg,AFSA13.jpg,AFNE20.jpg,AFSA13.jpg,FS,4,num_2,32,num_6,0.750320578809,,,2017_Nov_22_1229,60.0204444676,MAFE4ImagesEEG,001,202414,
AFNE01.JPG,AFNE01.JPG,AFNE01.JPG,AFNE01.JPG,AFNE01.JPG,AFNE01.JPG,,,,,,,,,,,,,,,,,,,,,0,7,7,2,,,AFSA09.jpg,AFSA14.jpg,AFNE03.jpg,AFNE19.jpg,AFSA14.jpg,FS,4,num_6,16,num_6,1.28345518216,,,2017_Nov_22_1229,60.0204444676,MAFE4ImagesEEG,001,202414,
AFNE01.JPG,AFNE01.JPG,AFNE01.JPG,AFNE01.JPG,AFNE01.JPG,AFNE01.JPG,,,,,,,,,,,,,,,,,,,,,0,8,8,7,,,AFSA14.jpg,AFNE15.jpg,AFSA12.jpg,AFNE05.jpg,AFNE05.jpg,FN,3,num_4,32,num_8,0.700129706907,,,2017_Nov_22_1229,60.0204444676,MAFE4ImagesEEG,001,202414,
AFNE01.JPG,AFNE01.JPG,AFNE01.JPG,AFNE01.JPG,AFNE01.JPG,AFNE01.JPG,,,,,,,,,,,,,,,,,,,,,0,9,9,6,,,AFNE13.jpg,AFNE16.jpg,AFSA11.jpg,AFSA17.jpg,AFNE13.jpg,FN,3,num_8,32,num_6,0.916788066446,,,2017_Nov_22_1229,60.0204444676,MAFE4ImagesEEG,001,202414,
AFNE01.JPG,AFNE01.JPG,AFNE01.JPG,AFNE01.JPG,AFNE01.JPG,AFNE01.JPG,,,,,,,,,,,,,,,,,,,,,1,0,10,2,,,AFNE07.jpg,AFNE05.jpg,AFSA06.jpg,AFSA02.jpg,AFSA02.jpg,FS,4,num_4,32,num_8,0.600219129003,,,2017_Nov_22_1229,60.0204444676,MAFE4ImagesEEG,001,202414,
AFNE01.JPG,AFNE01.JPG,AFNE01.JPG,AFNE01.JPG,AFNE01.JPG,AFNE01.JPG,,,,,,,,,,,,,,,,,,,,,1,1,11,3,,,AFSA01.jpg,AFNE15.jpg,AFSA04.jpg,AFNE02.jpg,AFSA04.jpg,FS,4,num_2,32,num_8,1.33340133005,,,2017_Nov_22_1229,60.0204444676,MAFE4ImagesEEG,001,202414,
AFNE01.JPG,AFNE01.JPG,AFNE01.JPG,AFNE01.JPG,AFNE01.JPG,AFNE01.JPG,,,,,,,,,,,,,,,,,,,,,1,2,12,7,,,AFNE06.jpg,AFNE12.jpg,AFSA05.jpg,AFSA12.jpg,AFSA05.jpg,FS,4,num_2,16,num_2,0.449995156843,,,2017_Nov_22_1229,60.0204444676,MAFE4ImagesEEG,001,202414,
AFNE01.JPG,AFNE01.JPG,AFNE01.JPG,AFNE01.JPG,AFNE01.JPG,AFNE01.JPG,,,,,,,,,,,,,,,,,,,,,1,3,13,9,,,AFSA10.jpg,AFSA09.jpg,AFNE11.jpg,AFNE06.jpg,AFNE06.jpg,FN,3,num_4,16,num_4,0.81678415343,,,2017_Nov_22_1229,60.0204444676,MAFE4ImagesEEG,001,202414,
AFNE01.JPG,AFNE01.JPG,AFNE01.JPG,AFNE01.JPG,AFNE01.JPG,AFNE01.JPG,,,,,,,,,,,,,,,,,,,,,1,4,14,6,,,AFSA02.jpg,AFNE19.jpg,AFSA18.jpg,AFNE10.jpg,AFNE19.jpg,FN,3,num_6,16,num_6,0.600133812375,,,2017_Nov_22_1229,60.0204444676,MAFE4ImagesEEG,001,202414,
AFNE01.JPG,AFNE01.JPG,AFNE01.JPG,AFNE01.JPG,AFNE01.JPG,AFNE01.JPG,,,,,,,,,,,,,,,,,,,,,1,5,15,0,,,AFSA07.jpg,AFNE08.jpg,AFNE04.jpg,AFSA09.jpg,AFSA07.jpg,FS,4,num_8,16,num_8,0.666813565214,,,2017_Nov_22_1229,60.0204444676,MAFE4ImagesEEG,001,202414,
AFNE01.JPG,AFNE01.JPG,AFNE01.JPG,AFNE01.JPG,AFNE01.JPG,AFNE01.JPG,,,,,,,,,,,,,,,,,,,,,1,6,16,5,,,AFSA16.jpg,AFSA18.jpg,AFNE02.jpg,AFNE05.jpg,AFNE05.jpg,FN,3,num_4,32,num_8,0.716799805523,,,2017_Nov_22_1229,60.0204444676,MAFE4ImagesEEG,001,202414,
AFNE01.JPG,AFNE01.JPG,AFNE01.JPG,AFNE01.JPG,AFNE01.JPG,AFNE01.JPG,,,,,,,,,,,,,,,,,,,,,1,7,17,8,,,AFNE13.jpg,AFNE09.jpg,AFSA09.jpg,AFSA06.jpg,AFSA09.jpg,FS,4,num_2,32,num_4,0.833474779327,,,2017_Nov_22_1229,60.0204444676,MAFE4ImagesEEG,001,202414,
AFNE01.JPG,AFNE01.JPG,AFNE01.JPG,AFNE01.JPG,AFNE01.JPG,AFNE01.JPG,,,,,,,,,,,,,,,,,,,,,1,8,18,4,,,AFSA10.jpg,AFNE02.jpg,AFSA04.jpg,AFNE16.jpg,AFSA04.jpg,FS,4,num_2,32,num_6,0.816718722635,,,2017_Nov_22_1229,60.0204444676,MAFE4ImagesEEG,001,202414,
AFNE01.JPG,AFNE01.JPG,AFNE01.JPG,AFNE01.JPG,AFNE01.JPG,AFNE01.JPG,,,,,,,,,,,,,,,,,,,,,1,9,19,1,,,AFNE16.jpg,AFSA19.jpg,AFNE11.jpg,AFSA03.jpg,AFNE16.jpg,FN,3,num_8,32,num_4,0.750146738195,,,2017_Nov_22_1229,60.0204444676,MAFE4ImagesEEG,001,202414,
AFNE01.JPG,AFNE01.JPG,AFNE01.JPG,AFNE01.JPG,AFNE01.JPG,AFNE01.JPG,,,,,,,,,,,,,,,,,,,,,2,0,20,3,,,AFSA14.jpg,AFNE12.jpg,AFSA15.jpg,AFNE11.jpg,AFSA15.jpg,FS,4,num_2,16,num_2,0.583460827154,,,2017_Nov_22_1229,60.0204444676,MAFE4ImagesEEG,001,202414,
AFNE01.JPG,AFNE01.JPG,AFNE01.JPG,AFNE01.JPG,AFNE01.JPG,AFNE01.JPG,,,,,,,,,,,,,,,,,,,,,2,1,21,8,,,AFNE02.jpg,AFSA17.jpg,AFNE10.jpg,AFSA13.jpg,AFNE10.jpg,FN,3,num_2,32,num_6,0.75012492793,,,2017_Nov_22_1229,60.0204444676,MAFE4ImagesEEG,001,202414,
AFNE01.JPG,AFNE01.JPG,AFNE01.JPG,AFNE01.JPG,AFNE01.JPG,AFNE01.JPG,,,,,,,,,,,,,,,,,,,,,2,2,22,6,,,AFSA02.jpg,AFNE17.jpg,AFSA06.jpg,AFNE14.jpg,AFSA02.jpg,FS,4,num_8,16,num_8,0.58354774749,,,2017_Nov_22_1229,60.0204444676,MAFE4ImagesEEG,001,202414,
AFNE01.JPG,AFNE01.JPG,AFNE01.JPG,AFNE01.JPG,AFNE01.JPG,AFNE01.JPG,,,,,,,,,,,,,,,,,,,,,2,3,23,1,,,AFSA15.jpg,AFNE02.jpg,AFSA11.jpg,AFNE12.jpg,AFNE12.jpg,FN,3,num_4,16,num_4,0.900156777323,,,2017_Nov_22_1229,60.0204444676,MAFE4ImagesEEG,001,202414,
AFNE01.JPG,AFNE01.JPG,AFNE01.JPG,AFNE01.JPG,AFNE01.JPG,AFNE01.JPG,,,,,,,,,,,,,,,,,,,,,2,4,24,7,,,AFNE16.jpg,AFNE18.jpg,AFSA20.jpg,AFSA01.jpg,AFNE18.jpg,FN,3,num_6,16,num_6,0.616792043613,,,2017_Nov_22_1229,60.0204444676,MAFE4ImagesEEG,001,202414,
AFNE01.JPG,AFNE01.JPG,AFNE01.JPG,AFNE01.JPG,AFNE01.JPG,AFNE01.JPG,,,,,,,,,,,,,,,,,,,,,2,5,25,9,,,AFNE19.jpg,AFNE09.jpg,AFSA06.jpg,AFSA04.jpg,AFNE19.jpg,FN,3,num_8,32,num_6,1.23345354639,,,2017_Nov_22_1229,60.0204444676,MAFE4ImagesEEG,001,202414,
AFNE01.JPG,AFNE01.JPG,AFNE01.JPG,AFNE01.JPG,AFNE01.JPG,AFNE01.JPG,,,,,,,,,,,,,,,,,,,,,2,6,26,0,,,AFNE11.jpg,AFNE13.jpg,AFSA04.jpg,AFSA05.jpg,AFNE13.jpg,FN,3,num_6,32,num_8,0.650176823518,,,2017_Nov_22_1229,60.0204444676,MAFE4ImagesEEG,001,202414,
AFNE01.JPG,AFNE01.JPG,AFNE01.JPG,AFNE01.JPG,AFNE01.JPG,AFNE01.JPG,,,,,,,,,,,,,,,,,,,,,2,7,27,4,,,AFSA18.jpg,AFNE10.jpg,AFNE16.jpg,AFSA12.jpg,AFNE16.jpg,FN,3,num_2,32,num_4,0.850161235576,,,2017_Nov_22_1229,60.0204444676,MAFE4ImagesEEG,001,202414,
AFNE01.JPG,AFNE01.JPG,AFNE01.JPG,AFNE01.JPG,AFNE01.JPG,AFNE01.JPG,,,,,,,,,,,,,,,,,,,,,2,8,28,5,,,AFNE02.jpg,AFNE08.jpg,AFSA16.jpg,AFSA13.jpg,AFNE02.jpg,FN,3,num_8,16,num_8,0.766801441292,,,2017_Nov_22_1229,60.0204444676,MAFE4ImagesEEG,001,202414,
AFNE01.JPG,AFNE01.JPG,AFNE01.JPG,AFNE01.JPG,AFNE01.JPG,AFNE01.JPG,,,,,,,,,,,,,,,,,,,,,2,9,29,2,,,AFNE18.jpg,AFSA08.jpg,AFNE16.jpg,AFSA17.jpg,AFNE18.jpg,FN,3,num_8,32,num_6,1.23325436734,,,2017_Nov_22_1229,60.0204444676,MAFE4ImagesEEG,001,202414,
AFNE01.JPG,AFNE01.JPG,AFNE01.JPG,AFNE01.JPG,AFNE01.JPG,AFNE01.JPG,,,,,,,,,,,,,,,,,,,,,3,0,30,8,,,AFNE09.jpg,AFNE12.jpg,AFSA09.jpg,AFSA12.jpg,AFSA12.jpg,FS,4,num_4,32,num_8,0.700142536487,,,2017_Nov_22_1229,60.0204444676,MAFE4ImagesEEG,001,202414,
AFNE01.JPG,AFNE01.JPG,AFNE01.JPG,AFNE01.JPG,AFNE01.JPG,AFNE01.JPG,,,,,,,,,,,,,,,,,,,,,3,1,31,3,,,AFSA11.jpg,AFNE09.jpg,AFNE15.jpg,AFSA06.jpg,AFNE15.jpg,FN,3,num_2,16,num_2,0.633395107696,,,2017_Nov_22_1229,60.0204444676,MAFE4ImagesEEG,001,202414,
AFNE01.JPG,AFNE01.JPG,AFNE01.JPG,AFNE01.JPG,AFNE01.JPG,AFNE01.JPG,,,,,,,,,,,,,,,,,,,,,3,2,32,6,,,AFSA18.jpg,AFSA15.jpg,AFNE09.jpg,AFNE03.jpg,AFNE09.jpg,FN,3,num_2,16,num_2,0.683557754557,,,2017_Nov_22_1229,60.0204444676,MAFE4ImagesEEG,001,202414,
AFNE01.JPG,AFNE01.JPG,AFNE01.JPG,AFNE01.JPG,AFNE01.JPG,AFNE01.JPG,,,,,,,,,,,,,,,,,,,,,3,3,33,7,,,AFNE04.jpg,AFNE08.jpg,AFSA13.jpg,AFSA06.jpg,AFNE08.jpg,FN,3,num_6,32,num_8,0.700156007544,,,2017_Nov_22_1229,60.0204444676,MAFE4ImagesEEG,001,202414,
AFNE01.JPG,AFNE01.JPG,AFNE01.JPG,AFNE01.JPG,AFNE01.JPG,AFNE01.JPG,,,,,,,,,,,,,,,,,,,,,3,4,34,2,,,AFSA10.jpg,AFSA15.jpg,AFNE08.jpg,AFNE02.jpg,AFSA15.jpg,FS,4,num_6,16,num_6,1.13358145716,,,2017_Nov_22_1229,60.0204444676,MAFE4ImagesEEG,001,202414,
AFNE01.JPG,AFNE01.JPG,AFNE01.JPG,AFNE01.JPG,AFNE01.JPG,AFNE01.JPG,,,,,,,,,,,,,,,,,,,,,3,5,35,0,,,AFSA19.jpg,AFSA06.jpg,AFNE20.jpg,AFNE02.jpg,AFSA06.jpg,FS,4,num_6,32,num_8,0.683519265847,,,2017_Nov_22_1229,60.0204444676,MAFE4ImagesEEG,001,202414,
AFNE01.JPG,AFNE01.JPG,AFNE01.JPG,AFNE01.JPG,AFNE01.JPG,AFNE01.JPG,,,,,,,,,,,,,,,,,,,,,3,6,36,1,,,AFSA07.jpg,AFSA08.jpg,AFNE07.jpg,AFNE03.jpg,AFSA07.jpg,FS,4,num_8,32,num_6,0.883437605633,,,2017_Nov_22_1229,60.0204444676,MAFE4ImagesEEG,001,202414,
AFNE01.JPG,AFNE01.JPG,AFNE01.JPG,AFNE01.JPG,AFNE01.JPG,AFNE01.JPG,,,,,,,,,,,,,,,,,,,,,3,7,37,5,,,AFSA19.jpg,AFSA04.jpg,AFNE02.jpg,AFNE09.jpg,AFSA19.jpg,FS,4,num_8,16,num_8,0.700096991524,,,2017_Nov_22_1229,60.0204444676,MAFE4ImagesEEG,001,202414,
AFNE01.JPG,AFNE01.JPG,AFNE01.JPG,AFNE01.JPG,AFNE01.JPG,AFNE01.JPG,,,,,,,,,,,,,,,,,,,,,3,8,38,4,,,AFNE20.jpg,AFNE10.jpg,AFSA04.jpg,AFSA19.jpg,AFNE10.jpg,FN,3,num_6,16,num_6,0.766859174328,,,2017_Nov_22_1229,60.0204444676,MAFE4ImagesEEG,001,202414,
