IPosition2,IPosition3,IPosition1,IPosition6,IPosition4,IPosition5,TrialsM1.thisRepN,TrialsM1.thisTrialN,TrialsM1.thisN,TrialsM1.thisIndex,TrialsF1.thisRepN,TrialsF1.thisTrialN,TrialsF1.thisN,TrialsF1.thisIndex,TrialsM2.thisRepN,TrialsM2.thisTrialN,TrialsM2.thisN,TrialsM2.thisIndex,TrialsF2.thisRepN,TrialsF2.thisTrialN,TrialsF2.thisN,TrialsF2.thisIndex,TrialsM3.thisRepN,TrialsM3.thisTrialN,TrialsM3.thisN,TrialsM3.thisIndex,TrialsF3.thisRepN,TrialsF3.thisTrialN,TrialsF3.thisN,TrialsF3.thisIndex,InstrKey_resp.keys,InstrKey_resp.rt,Image0 _Position,Image1 _Position,Image2 _Position,Image3 _Position,Center_image,condition,code,correct_answer,accuracy,Key_Resp.keys,Key_Resp.rt,BreakKey_resp.keys,BreakKey_resp.rt,date,frameRate,expName,session,participant,
,,,,,,,,,,,,,,,,,,,,,,,,,,,,,,space,5.66645112983,,,,,,,,,,,,,,2017_Dec_11_1224,59.9942272403,MAFE4ImagesEEG,001,202427,
AMSA21.JPG,AMNE23.JPG,AMNE21.JPG,AMSA25.JPG,AMNE25.JPG,AMSA23.JPG,0,0,0,5,,,,,,,,,,,,,,,,,,,,,,,AMSA02.jpg,AMSA03.jpg,AMNE13.jpg,AMNE12.jpg,AMSA03.jpg,MS,2,num_6,16,num_6,1.91695549223,,,2017_Dec_11_1224,59.9942272403,MAFE4ImagesEEG,001,202427,
AMNE22.JPG,AMSA24.JPG,AMSA22.JPG,AMNE25.JPG,AMNE24.JPG,AMSA25.JPG,0,1,1,7,,,,,,,,,,,,,,,,,,,,,,,AMNE02.jpg,AMSA15.jpg,AMSA10.jpg,AMNE07.jpg,AMSA10.jpg,MS,2,num_2,16,num_2,1.13352019596,,,2017_Dec_11_1224,59.9942272403,MAFE4ImagesEEG,001,202427,
AFNE22.JPG,AFSA24.JPG,AFSA22.JPG,AFNE25.JPG,AFNE24.JPG,AFSA25.JPG,0,2,2,6,,,,,,,,,,,,,,,,,,,,,,,AMSA01.jpg,AMSA06.jpg,AMNE13.jpg,AMNE16.jpg,AMSA01.jpg,MS,2,num_8,16,num_8,1.26675525494,,,2017_Dec_11_1224,59.9942272403,MAFE4ImagesEEG,001,202427,
AFSA25.JPG,AFNE24.JPG,AFSA24.JPG,AFNE21.JPG,AFSA21.JPG,AFNE25.JPG,0,3,3,2,,,,,,,,,,,,,,,,,,,,,,,AMNE06.jpg,AMSA11.jpg,AMSA13.jpg,AMNE11.jpg,AMNE06.jpg,MN,1,num_8,32,num_4,1.53336040373,,,2017_Dec_11_1224,59.9942272403,MAFE4ImagesEEG,001,202427,
AFSA21.JPG,AFNE23.JPG,AFNE21.JPG,AFSA25.JPG,AFNE25.JPG,AFSA23.JPG,0,4,4,4,,,,,,,,,,,,,,,,,,,,,,,AMNE16.jpg,AMSA20.jpg,AMSA01.jpg,AMNE09.jpg,AMNE09.jpg,MN,1,num_4,32,num_8,1.08344671479,,,2017_Dec_11_1224,59.9942272403,MAFE4ImagesEEG,001,202427,
AMSA21.JPG,AMNE22.JPG,AMNE21.JPG,AMSA23.JPG,AMSA22.JPG,AMNE23.JPG,0,5,5,1,,,,,,,,,,,,,,,,,,,,,,,AMSA19.jpg,AMNE05.jpg,AMNE11.jpg,AMSA07.jpg,AMSA19.jpg,MS,2,num_8,32,num_2,1.3334276306,,,2017_Dec_11_1224,59.9942272403,MAFE4ImagesEEG,001,202427,
AMNE23.JPG,AMNE24.JPG,AMNE22.JPG,AMSA24.JPG,AMSA22.JPG,AMSA23.JPG,0,6,6,9,,,,,,,,,,,,,,,,,,,,,,,AMSA11.jpg,AMNE03.jpg,AMNE14.jpg,AMSA12.jpg,AMSA11.jpg,MS,2,num_8,16,num_8,1.26669912529,,,2017_Dec_11_1224,59.9942272403,MAFE4ImagesEEG,001,202427,
AMSA25.JPG,AMNE24.JPG,AMSA24.JPG,AMNE26.JPG,AMSA21.JPG,AMNE25.JPG,0,7,7,3,,,,,,,,,,,,,,,,,,,,,,,AMSA05.jpg,AMSA18.jpg,AMNE17.jpg,AMNE08.jpg,AMSA05.jpg,MS,2,num_8,32,num_4,2.51662679878,,,2017_Dec_11_1224,59.9942272403,MAFE4ImagesEEG,001,202427,
AFNE23.JPG,AFNE24.JPG,AFNE22.JPG,AFSA24.JPG,AFSA22.JPG,AFSA23.JPG,0,8,8,8,,,,,,,,,,,,,,,,,,,,,,,AMNE17.jpg,AMSA18.jpg,AMSA03.jpg,AMNE10.jpg,AMSA03.jpg,MS,2,num_2,32,num_6,1.18346955138,,,2017_Dec_11_1224,59.9942272403,MAFE4ImagesEEG,001,202427,
AFSA21.JPG,AFNE22.JPG,AFNE21.JPG,AFSA23.JPG,AFSA22.JPG,AFNE23.JPG,0,9,9,0,,,,,,,,,,,,,,,,,,,,,,,AMNE09.jpg,AMSA04.jpg,AMNE19.jpg,AMSA02.jpg,AMNE09.jpg,MN,1,num_8,16,num_8,0.933428977849,,,2017_Dec_11_1224,59.9942272403,MAFE4ImagesEEG,001,202427,
AFNE23.JPG,AFNE24.JPG,AFNE22.JPG,AFSA24.JPG,AFSA22.JPG,AFSA23.JPG,,,,,0,0,0,8,,,,,,,,,,,,,,,,,,,AFNE18.jpg,AFSA17.jpg,AFSA06.jpg,AFNE07.jpg,AFSA17.jpg,FS,4,num_6,32,num_4,1.15008380916,,,2017_Dec_11_1224,59.9942272403,MAFE4ImagesEEG,001,202427,
AMNE22.JPG,AMSA24.JPG,AMSA22.JPG,AMNE25.JPG,AMNE24.JPG,AMSA25.JPG,,,,,0,1,1,7,,,,,,,,,,,,,,,,,,,AFNE13.jpg,AFSA05.jpg,AFNE06.jpg,AFSA09.jpg,AFNE06.jpg,FN,3,num_2,16,num_2,1.0001096928,,,2017_Dec_11_1224,59.9942272403,MAFE4ImagesEEG,001,202427,
AFSA21.JPG,AFNE22.JPG,AFNE21.JPG,AFSA23.JPG,AFSA22.JPG,AFNE23.JPG,,,,,0,2,2,0,,,,,,,,,,,,,,,,,,,AFSA14.jpg,AFSA09.jpg,AFNE17.jpg,AFNE14.jpg,AFSA09.jpg,FS,4,num_6,32,num_2,1.15015308862,,,2017_Dec_11_1224,59.9942272403,MAFE4ImagesEEG,001,202427,
AMSA21.JPG,AMNE22.JPG,AMNE21.JPG,AMSA23.JPG,AMSA22.JPG,AMNE23.JPG,,,,,0,3,3,1,,,,,,,,,,,,,,,,,,,AFNE16.jpg,AFSA18.jpg,AFSA08.jpg,AFNE19.jpg,AFNE19.jpg,FN,3,num_4,32,num_8,1.16673338041,,,2017_Dec_11_1224,59.9942272403,MAFE4ImagesEEG,001,202427,
AFSA21.JPG,AFNE23.JPG,AFNE21.JPG,AFSA25.JPG,AFNE25.JPG,AFSA23.JPG,,,,,0,4,4,4,,,,,,,,,,,,,,,,,,,AFNE14.jpg,AFNE09.jpg,AFSA04.jpg,AFSA05.jpg,AFSA04.jpg,FS,4,num_2,32,num_4,1.15010722331,,,2017_Dec_11_1224,59.9942272403,MAFE4ImagesEEG,001,202427,
AMSA21.JPG,AMNE23.JPG,AMNE21.JPG,AMSA25.JPG,AMNE25.JPG,AMSA23.JPG,,,,,0,5,5,5,,,,,,,,,,,,,,,,,,,AFNE10.jpg,AFSA17.jpg,AFNE01.jpg,AFSA06.jpg,AFSA17.jpg,FS,4,num_6,32,num_2,2.45008656732,,,2017_Dec_11_1224,59.9942272403,MAFE4ImagesEEG,001,202427,
AFSA25.JPG,AFNE24.JPG,AFSA24.JPG,AFNE21.JPG,AFSA21.JPG,AFNE25.JPG,,,,,0,6,6,2,,,,,,,,,,,,,,,,,,,AFSA09.jpg,AFNE06.jpg,AFSA02.jpg,AFNE10.jpg,AFSA09.jpg,FS,4,num_8,32,num_4,0.966725875158,,,2017_Dec_11_1224,59.9942272403,MAFE4ImagesEEG,001,202427,
AMSA25.JPG,AMNE24.JPG,AMSA24.JPG,AMNE26.JPG,AMSA21.JPG,AMNE25.JPG,,,,,0,7,7,3,,,,,,,,,,,,,,,,,,,AFSA17.jpg,AFNE02.jpg,AFNE15.jpg,AFSA03.jpg,AFNE15.jpg,FN,3,num_2,16,num_2,1.13342814404,,,2017_Dec_11_1224,59.9942272403,MAFE4ImagesEEG,001,202427,
AMNE23.JPG,AMNE24.JPG,AMNE22.JPG,AMSA24.JPG,AMSA22.JPG,AMSA23.JPG,,,,,0,8,8,9,,,,,,,,,,,,,,,,,,,AFSA04.jpg,AFNE11.jpg,AFSA08.jpg,AFNE17.jpg,AFNE11.jpg,FN,3,num_6,16,num_6,2.55000805063,,,2017_Dec_11_1224,59.9942272403,MAFE4ImagesEEG,001,202427,
AFNE22.JPG,AFSA24.JPG,AFSA22.JPG,AFNE25.JPG,AFNE24.JPG,AFSA25.JPG,,,,,0,9,9,6,,,,,,,,,,,,,,,,,,,AFNE12.jpg,AFNE13.jpg,AFSA10.jpg,AFSA16.jpg,AFSA10.jpg,FS,4,num_2,32,num_4,1.16677892534,,,2017_Dec_11_1224,59.9942272403,MAFE4ImagesEEG,001,202427,
AFSA21.JPG,AFNE23.JPG,AFNE21.JPG,AFSA25.JPG,AFNE25.JPG,AFSA23.JPG,,,,,,,,,0,0,0,4,,,,,,,,,,,,,,,AMNE06.jpg,AMSA06.jpg,AMSA18.jpg,AMNE08.jpg,AMSA06.jpg,MS,2,num_6,32,num_8,1.01707936171,,,2017_Dec_11_1224,59.9942272403,MAFE4ImagesEEG,001,202427,
AFSA25.JPG,AFNE24.JPG,AFSA24.JPG,AFNE21.JPG,AFSA21.JPG,AFNE25.JPG,,,,,,,,,0,1,1,2,,,,,,,,,,,,,,,AMNE04.jpg,AMSA16.jpg,AMSA04.jpg,AMNE11.jpg,AMSA04.jpg,MS,2,num_2,16,num_2,2.05003114371,,,2017_Dec_11_1224,59.9942272403,MAFE4ImagesEEG,001,202427,
AMNE22.JPG,AMSA24.JPG,AMSA22.JPG,AMNE25.JPG,AMNE24.JPG,AMSA25.JPG,,,,,,,,,0,2,2,7,,,,,,,,,,,,,,,AMNE02.jpg,AMSA13.jpg,AMSA05.jpg,AMNE01.jpg,AMSA05.jpg,MS,2,num_2,32,num_6,2.09990704991,,,2017_Dec_11_1224,59.9942272403,MAFE4ImagesEEG,001,202427,
AMSA21.JPG,AMNE23.JPG,AMNE21.JPG,AMSA25.JPG,AMNE25.JPG,AMSA23.JPG,,,,,,,,,0,3,3,5,,,,,,,,,,,,,,,AMNE08.jpg,AMSA20.jpg,AMSA06.jpg,AMNE20.jpg,AMSA20.jpg,MS,2,num_6,16,num_6,1.18341791234,,,2017_Dec_11_1224,59.9942272403,MAFE4ImagesEEG,001,202427,
AFSA21.JPG,AFNE22.JPG,AFNE21.JPG,AFSA23.JPG,AFSA22.JPG,AFNE23.JPG,,,,,,,,,0,4,4,0,,,,,,,,,,,,,,,AMSA03.jpg,AMNE19.jpg,AMNE12.jpg,AMSA14.jpg,AMNE12.jpg,MN,1,num_2,16,num_2,1.68338263105,,,2017_Dec_11_1224,59.9942272403,MAFE4ImagesEEG,001,202427,
AMSA21.JPG,AMNE22.JPG,AMNE21.JPG,AMSA23.JPG,AMSA22.JPG,AMNE23.JPG,,,,,,,,,0,5,5,1,,,,,,,,,,,,,,,AMSA08.jpg,AMNE03.jpg,AMNE09.jpg,AMSA18.jpg,AMSA18.jpg,MS,2,num_4,16,num_4,0.749678458786,,,2017_Dec_11_1224,59.9942272403,MAFE4ImagesEEG,001,202427,
AFNE22.JPG,AFSA24.JPG,AFSA22.JPG,AFNE25.JPG,AFNE24.JPG,AFSA25.JPG,,,,,,,,,0,6,6,6,,,,,,,,,,,,,,,AMSA11.jpg,AMSA15.jpg,AMNE19.jpg,AMNE06.jpg,AMNE19.jpg,MN,1,num_2,16,num_2,1.2834538992,,,2017_Dec_11_1224,59.9942272403,MAFE4ImagesEEG,001,202427,
AFNE23.JPG,AFNE24.JPG,AFNE22.JPG,AFSA24.JPG,AFSA22.JPG,AFSA23.JPG,,,,,,,,,0,7,7,8,,,,,,,,,,,,,,,AMSA08.jpg,AMNE20.jpg,AMSA04.jpg,AMNE15.jpg,AMNE15.jpg,MN,1,num_4,32,num_6,2.61660729791,,,2017_Dec_11_1224,59.9942272403,MAFE4ImagesEEG,001,202427,
AMNE23.JPG,AMNE24.JPG,AMNE22.JPG,AMSA24.JPG,AMSA22.JPG,AMSA23.JPG,,,,,,,,,0,8,8,9,,,,,,,,,,,,,,,AMNE05.jpg,AMNE16.jpg,AMSA02.jpg,AMSA18.jpg,AMNE16.jpg,MN,1,num_6,32,num_4,2.03335527191,,,2017_Dec_11_1224,59.9942272403,MAFE4ImagesEEG,001,202427,
AMSA25.JPG,AMNE24.JPG,AMSA24.JPG,AMNE26.JPG,AMSA21.JPG,AMNE25.JPG,,,,,,,,,0,9,9,3,,,,,,,,,,,,,,,AMSA11.jpg,AMNE03.jpg,AMSA20.jpg,AMNE13.jpg,AMNE03.jpg,MN,1,num_6,32,num_2,2.14999336074,,,2017_Dec_11_1224,59.9942272403,MAFE4ImagesEEG,001,202427,
AFNE23.JPG,AFNE24.JPG,AFNE22.JPG,AFSA24.JPG,AFSA22.JPG,AFSA23.JPG,,,,,,,,,,,,,0,0,0,8,,,,,,,,,,,AFSA14.jpg,AFNE20.jpg,AFNE01.jpg,AFSA19.jpg,AFNE01.jpg,FN,3,num_2,32,num_6,1.40034473035,,,2017_Dec_11_1224,59.9942272403,MAFE4ImagesEEG,001,202427,
AFNE22.JPG,AFSA24.JPG,AFSA22.JPG,AFNE25.JPG,AFNE24.JPG,AFSA25.JPG,,,,,,,,,,,,,0,1,1,6,,,,,,,,,,,AFSA06.jpg,AFNE17.jpg,AFSA14.jpg,AFNE04.jpg,AFNE04.jpg,FN,3,num_4,16,num_4,0.716820653528,,,2017_Dec_11_1224,59.9942272403,MAFE4ImagesEEG,001,202427,
AMSA21.JPG,AMNE23.JPG,AMNE21.JPG,AMSA25.JPG,AMNE25.JPG,AMSA23.JPG,,,,,,,,,,,,,0,2,2,5,,,,,,,,,,,AFNE07.jpg,AFSA14.jpg,AFSA12.jpg,AFNE10.jpg,AFNE07.jpg,FN,3,num_8,16,num_8,0.96676692972,,,2017_Dec_11_1224,59.9942272403,MAFE4ImagesEEG,001,202427,
AFSA21.JPG,AFNE23.JPG,AFNE21.JPG,AFSA25.JPG,AFNE25.JPG,AFSA23.JPG,,,,,,,,,,,,,0,3,3,4,,,,,,,,,,,AFNE18.jpg,AFSA06.jpg,AFSA05.jpg,AFNE19.jpg,AFNE19.jpg,FN,3,num_4,32,num_8,3.5165536704,,,2017_Dec_11_1224,59.9942272403,MAFE4ImagesEEG,001,202427,
AMNE23.JPG,AMNE24.JPG,AMNE22.JPG,AMSA24.JPG,AMSA22.JPG,AMSA23.JPG,,,,,,,,,,,,,0,4,4,9,,,,,,,,,,,AFSA20.jpg,AFNE04.jpg,AFSA02.jpg,AFNE11.jpg,AFNE04.jpg,FN,3,num_6,16,num_6,1.46675121365,,,2017_Dec_11_1224,59.9942272403,MAFE4ImagesEEG,001,202427,
AMSA21.JPG,AMNE22.JPG,AMNE21.JPG,AMSA23.JPG,AMSA22.JPG,AMNE23.JPG,,,,,,,,,,,,,0,5,5,1,,,,,,,,,,,AFNE17.jpg,AFSA04.jpg,AFNE03.jpg,AFSA17.jpg,AFNE17.jpg,FN,3,num_8,32,num_2,2.15001420886,,,2017_Dec_11_1224,59.9942272403,MAFE4ImagesEEG,001,202427,
AFSA21.JPG,AFNE22.JPG,AFNE21.JPG,AFSA23.JPG,AFSA22.JPG,AFNE23.JPG,,,,,,,,,,,,,0,6,6,0,,,,,,,,,,,AFNE17.jpg,AFNE20.jpg,AFSA06.jpg,AFSA10.jpg,AFNE17.jpg,FN,3,num_8,32,num_6,1.08349931589,,,2017_Dec_11_1224,59.9942272403,MAFE4ImagesEEG,001,202427,
AMSA25.JPG,AMNE24.JPG,AMSA24.JPG,AMNE26.JPG,AMSA21.JPG,AMNE25.JPG,,,,,,,,,,,,,0,7,7,3,,,,,,,,,,,AFNE02.jpg,AFSA10.jpg,AFSA07.jpg,AFNE06.jpg,AFNE02.jpg,FN,3,num_8,16,num_8,0.849803932011,,,2017_Dec_11_1224,59.9942272403,MAFE4ImagesEEG,001,202427,
AMNE22.JPG,AMSA24.JPG,AMSA22.JPG,AMNE25.JPG,AMNE24.JPG,AMSA25.JPG,,,,,,,,,,,,,0,8,8,7,,,,,,,,,,,AFNE11.jpg,AFNE19.jpg,AFSA12.jpg,AFSA03.jpg,AFNE11.jpg,FN,3,num_8,32,num_6,1.66668430739,,,2017_Dec_11_1224,59.9942272403,MAFE4ImagesEEG,001,202427,
AFSA25.JPG,AFNE24.JPG,AFSA24.JPG,AFNE21.JPG,AFSA21.JPG,AFNE25.JPG,,,,,,,,,,,,,0,9,9,2,,,,,,,,,,,AFNE19.jpg,AFSA20.jpg,AFNE04.jpg,AFSA17.jpg,AFNE04.jpg,FN,3,num_2,32,num_8,2.06670444971,,,2017_Dec_11_1224,59.9942272403,MAFE4ImagesEEG,001,202427,
AFSA21.JPG,AFNE22.JPG,AFNE21.JPG,AFSA23.JPG,AFSA22.JPG,AFNE23.JPG,,,,,,,,,,,,,,,,,0,0,0,0,,,,,,,AMNE08.jpg,AMSA09.jpg,AMSA19.jpg,AMNE09.jpg,AMSA09.jpg,MS,2,num_6,16,num_6,1.05009432929,,,2017_Dec_11_1224,59.9942272403,MAFE4ImagesEEG,001,202427,
AFNE22.JPG,AFSA24.JPG,AFSA22.JPG,AFNE25.JPG,AFNE24.JPG,AFSA25.JPG,,,,,,,,,,,,,,,,,0,1,1,6,,,,,,,AMNE13.jpg,AMSA17.jpg,AMSA02.jpg,AMNE15.jpg,AMNE15.jpg,MN,1,num_4,16,num_4,0.966752496548,,,2017_Dec_11_1224,59.9942272403,MAFE4ImagesEEG,001,202427,
AFSA25.JPG,AFNE24.JPG,AFSA24.JPG,AFNE21.JPG,AFSA21.JPG,AFNE25.JPG,,,,,,,,,,,,,,,,,0,2,2,2,,,,,,,AMSA02.jpg,AMNE10.jpg,AMNE08.jpg,AMSA13.jpg,AMSA13.jpg,MS,2,num_4,32,num_2,1.45006956835,,,2017_Dec_11_1224,59.9942272403,MAFE4ImagesEEG,001,202427,
AMSA25.JPG,AMNE24.JPG,AMSA24.JPG,AMNE26.JPG,AMSA21.JPG,AMNE25.JPG,,,,,,,,,,,,,,,,,0,3,3,3,,,,,,,AMSA10.jpg,AMNE19.jpg,AMSA06.jpg,AMNE09.jpg,AMNE09.jpg,MN,1,num_4,16,num_4,2.05000067363,,,2017_Dec_11_1224,59.9942272403,MAFE4ImagesEEG,001,202427,
AMSA21.JPG,AMNE23.JPG,AMNE21.JPG,AMSA25.JPG,AMNE25.JPG,AMSA23.JPG,,,,,,,,,,,,,,,,,0,4,4,5,,,,,,,AMSA15.jpg,AMNE18.jpg,AMSA19.jpg,AMNE03.jpg,AMSA19.jpg,MS,2,num_2,32,num_6,1.0334418714,,,2017_Dec_11_1224,59.9942272403,MAFE4ImagesEEG,001,202427,
AMNE23.JPG,AMNE24.JPG,AMNE22.JPG,AMSA24.JPG,AMSA22.JPG,AMSA23.JPG,,,,,,,,,,,,,,,,,0,5,5,9,,,,,,,AMNE16.jpg,AMSA02.jpg,AMSA09.jpg,AMNE12.jpg,AMSA09.jpg,MS,2,num_2,16,num_2,0.950143338414,,,2017_Dec_11_1224,59.9942272403,MAFE4ImagesEEG,001,202427,
AMSA21.JPG,AMNE22.JPG,AMNE21.JPG,AMSA23.JPG,AMSA22.JPG,AMNE23.JPG,,,,,,,,,,,,,,,,,0,6,6,1,,,,,,,AMNE08.jpg,AMSA13.jpg,AMNE17.jpg,AMSA02.jpg,AMNE17.jpg,MN,1,num_2,32,num_4,1.96671497007,,,2017_Dec_11_1224,59.9942272403,MAFE4ImagesEEG,001,202427,
AFNE23.JPG,AFNE24.JPG,AFNE22.JPG,AFSA24.JPG,AFSA22.JPG,AFSA23.JPG,,,,,,,,,,,,,,,,,0,7,7,8,,,,,,,AMNE16.jpg,AMSA20.jpg,AMSA10.jpg,AMNE17.jpg,AMSA10.jpg,MS,2,num_2,16,num_2,0.933454957558,,,2017_Dec_11_1224,59.9942272403,MAFE4ImagesEEG,001,202427,
AMNE22.JPG,AMSA24.JPG,AMSA22.JPG,AMNE25.JPG,AMNE24.JPG,AMSA25.JPG,,,,,,,,,,,,,,,,,0,8,8,7,,,,,,,AMNE17.jpg,AMSA03.jpg,AMSA11.jpg,AMNE02.jpg,AMSA03.jpg,MS,2,num_6,16,num_6,0.700162422378,,,2017_Dec_11_1224,59.9942272403,MAFE4ImagesEEG,001,202427,
AFSA21.JPG,AFNE23.JPG,AFNE21.JPG,AFSA25.JPG,AFNE25.JPG,AFSA23.JPG,,,,,,,,,,,,,,,,,0,9,9,4,,,,,,,AMSA17.jpg,AMSA06.jpg,AMNE17.jpg,AMNE19.jpg,AMNE17.jpg,MN,1,num_2,32,num_4,1.00008307141,,,2017_Dec_11_1224,59.9942272403,MAFE4ImagesEEG,001,202427,
AFSA25.JPG,AFNE24.JPG,AFSA24.JPG,AFNE21.JPG,AFSA21.JPG,AFNE25.JPG,,,,,,,,,,,,,,,,,,,,,0,0,0,2,,,AFSA03.jpg,AFNE20.jpg,AFSA15.jpg,AFNE06.jpg,AFSA03.jpg,FS,4,num_8,32,num_2,1.03340851469,,,2017_Dec_11_1224,59.9942272403,MAFE4ImagesEEG,001,202427,
AFNE23.JPG,AFNE24.JPG,AFNE22.JPG,AFSA24.JPG,AFSA22.JPG,AFSA23.JPG,,,,,,,,,,,,,,,,,,,,,0,1,1,8,,,AFSA15.jpg,AFSA02.jpg,AFNE11.jpg,AFNE18.jpg,AFSA02.jpg,FS,4,num_6,32,num_8,0.650165276835,,,2017_Dec_11_1224,59.9942272403,MAFE4ImagesEEG,001,202427,
AFSA21.JPG,AFNE23.JPG,AFNE21.JPG,AFSA25.JPG,AFNE25.JPG,AFSA23.JPG,,,,,,,,,,,,,,,,,,,,,0,2,2,4,,,AFSA07.jpg,AFNE10.jpg,AFSA14.jpg,AFNE17.jpg,AFSA07.jpg,FS,4,num_8,32,num_4,0.950140130939,,,2017_Dec_11_1224,59.9942272403,MAFE4ImagesEEG,001,202427,
AMNE23.JPG,AMNE24.JPG,AMNE22.JPG,AMSA24.JPG,AMSA22.JPG,AMSA23.JPG,,,,,,,,,,,,,,,,,,,,,0,3,3,9,,,AFNE09.jpg,AFNE16.jpg,AFSA18.jpg,AFSA10.jpg,AFSA18.jpg,FS,4,num_2,32,num_8,1.55012736563,,,2017_Dec_11_1224,59.9942272403,MAFE4ImagesEEG,001,202427,
AFSA21.JPG,AFNE22.JPG,AFNE21.JPG,AFSA23.JPG,AFSA22.JPG,AFNE23.JPG,,,,,,,,,,,,,,,,,,,,,0,4,4,0,,,AFSA06.jpg,AFSA20.jpg,AFNE02.jpg,AFNE12.jpg,AFNE12.jpg,FN,3,num_4,16,num_4,1.55008759373,,,2017_Dec_11_1224,59.9942272403,MAFE4ImagesEEG,001,202427,
AMSA25.JPG,AMNE24.JPG,AMSA24.JPG,AMNE26.JPG,AMSA21.JPG,AMNE25.JPG,,,,,,,,,,,,,,,,,,,,,0,5,5,3,,,AFNE19.jpg,AFSA12.jpg,AFSA17.jpg,AFNE17.jpg,AFSA12.jpg,FS,4,num_6,16,num_6,0.833475420717,,,2017_Dec_11_1224,59.9942272403,MAFE4ImagesEEG,001,202427,
AMSA21.JPG,AMNE23.JPG,AMNE21.JPG,AMSA25.JPG,AMNE25.JPG,AMSA23.JPG,,,,,,,,,,,,,,,,,,,,,0,6,6,5,,,AFSA03.jpg,AFNE12.jpg,AFSA18.jpg,AFNE08.jpg,AFSA03.jpg,FS,4,num_8,16,num_8,1.18349841773,,,2017_Dec_11_1224,59.9942272403,MAFE4ImagesEEG,001,202427,
AFNE22.JPG,AFSA24.JPG,AFSA22.JPG,AFNE25.JPG,AFNE24.JPG,AFSA25.JPG,,,,,,,,,,,,,,,,,,,,,0,7,7,6,,,AFSA07.jpg,AFNE06.jpg,AFSA20.jpg,AFNE17.jpg,AFNE06.jpg,FN,3,num_6,32,num_2,0.983424519422,,,2017_Dec_11_1224,59.9942272403,MAFE4ImagesEEG,001,202427,
AMSA21.JPG,AMNE22.JPG,AMNE21.JPG,AMSA23.JPG,AMSA22.JPG,AMNE23.JPG,,,,,,,,,,,,,,,,,,,,,0,8,8,1,,,AFSA11.jpg,AFNE03.jpg,AFSA15.jpg,AFNE01.jpg,AFNE01.jpg,FN,3,num_4,16,num_4,1.2497843029,,,2017_Dec_11_1224,59.9942272403,MAFE4ImagesEEG,001,202427,
AMNE22.JPG,AMSA24.JPG,AMSA22.JPG,AMNE25.JPG,AMNE24.JPG,AMSA25.JPG,,,,,,,,,,,,,,,,,,,,,0,9,9,7,,,AFSA10.jpg,AFNE14.jpg,AFSA13.jpg,AFNE05.jpg,AFNE05.jpg,FN,3,num_4,32,num_6,0.733489148552,,,2017_Dec_11_1224,59.9942272403,MAFE4ImagesEEG,001,202427,
,,,,,,,,,,,,,,,,,,,,,,,,,,,,,,,,,,,,,,,,,,,space,10.6996607862,2017_Dec_11_1224,59.9942272403,MAFE4ImagesEEG,001,202427,
AFNE01.JPG,AFNE01.JPG,AFNE01.JPG,AFNE01.JPG,AFNE01.JPG,AFNE01.JPG,0,0,0,3,,,,,,,,,,,,,,,,,,,,,,,AMSA16.jpg,AMSA19.jpg,AMNE11.jpg,AMNE17.jpg,AMSA16.jpg,MS,2,num_8,16,num_8,0.816779983696,,,2017_Dec_11_1224,59.9942272403,MAFE4ImagesEEG,001,202427,
AFNE01.JPG,AFNE01.JPG,AFNE01.JPG,AFNE01.JPG,AFNE01.JPG,AFNE01.JPG,0,1,1,6,,,,,,,,,,,,,,,,,,,,,,,AMNE11.jpg,AMSA09.jpg,AMNE13.jpg,AMSA19.jpg,AMSA19.jpg,MS,2,num_4,16,num_4,0.633446426131,,,2017_Dec_11_1224,59.9942272403,MAFE4ImagesEEG,001,202427,
AFNE01.JPG,AFNE01.JPG,AFNE01.JPG,AFNE01.JPG,AFNE01.JPG,AFNE01.JPG,0,2,2,0,,,,,,,,,,,,,,,,,,,,,,,AMSA03.jpg,AMSA12.jpg,AMNE14.jpg,AMNE02.jpg,AMNE02.jpg,MN,1,num_4,16,num_4,0.833481193986,,,2017_Dec_11_1224,59.9942272403,MAFE4ImagesEEG,001,202427,
AFNE01.JPG,AFNE01.JPG,AFNE01.JPG,AFNE01.JPG,AFNE01.JPG,AFNE01.JPG,0,3,3,9,,,,,,,,,,,,,,,,,,,,,,,AMNE07.jpg,AMNE04.jpg,AMSA14.jpg,AMSA09.jpg,AMNE04.jpg,MN,1,num_6,16,num_6,1.11677440302,,,2017_Dec_11_1224,59.9942272403,MAFE4ImagesEEG,001,202427,
AFNE01.JPG,AFNE01.JPG,AFNE01.JPG,AFNE01.JPG,AFNE01.JPG,AFNE01.JPG,0,4,4,8,,,,,,,,,,,,,,,,,,,,,,,AMSA07.jpg,AMNE13.jpg,AMSA09.jpg,AMNE05.jpg,AMNE05.jpg,MN,1,num_4,32,num_6,1.23340800125,,,2017_Dec_11_1224,59.9942272403,MAFE4ImagesEEG,001,202427,
AFNE01.JPG,AFNE01.JPG,AFNE01.JPG,AFNE01.JPG,AFNE01.JPG,AFNE01.JPG,0,5,5,1,,,,,,,,,,,,,,,,,,,,,,,AMNE16.jpg,AMSA01.jpg,AMNE08.jpg,AMSA08.jpg,AMNE08.jpg,MN,1,num_2,16,num_2,1.53339889226,,,2017_Dec_11_1224,59.9942272403,MAFE4ImagesEEG,001,202427,
AFNE01.JPG,AFNE01.JPG,AFNE01.JPG,AFNE01.JPG,AFNE01.JPG,AFNE01.JPG,0,6,6,4,,,,,,,,,,,,,,,,,,,,,,,AMNE17.jpg,AMSA04.jpg,AMNE01.jpg,AMSA16.jpg,AMSA04.jpg,MS,2,num_6,16,num_6,2.00000288663,,,2017_Dec_11_1224,59.9942272403,MAFE4ImagesEEG,001,202427,
AFNE01.JPG,AFNE01.JPG,AFNE01.JPG,AFNE01.JPG,AFNE01.JPG,AFNE01.JPG,0,7,7,5,,,,,,,,,,,,,,,,,,,,,,,AMSA07.jpg,AMSA15.jpg,AMNE19.jpg,AMNE05.jpg,AMSA07.jpg,MS,2,num_8,32,num_4,1.36661804281,,,2017_Dec_11_1224,59.9942272403,MAFE4ImagesEEG,001,202427,
AFNE01.JPG,AFNE01.JPG,AFNE01.JPG,AFNE01.JPG,AFNE01.JPG,AFNE01.JPG,0,8,8,2,,,,,,,,,,,,,,,,,,,,,,,AMSA12.jpg,AMNE07.jpg,AMNE02.jpg,AMSA20.jpg,AMNE02.jpg,MN,1,num_2,32,num_8,1.13349197083,,,2017_Dec_11_1224,59.9942272403,MAFE4ImagesEEG,001,202427,
AFNE01.JPG,AFNE01.JPG,AFNE01.JPG,AFNE01.JPG,AFNE01.JPG,AFNE01.JPG,0,9,9,7,,,,,,,,,,,,,,,,,,,,,,,AMNE18.jpg,AMNE01.jpg,AMSA13.jpg,AMSA11.jpg,AMNE01.jpg,MN,1,num_6,16,num_6,0.900138495024,,,2017_Dec_11_1224,59.9942272403,MAFE4ImagesEEG,001,202427,
AFNE01.JPG,AFNE01.JPG,AFNE01.JPG,AFNE01.JPG,AFNE01.JPG,AFNE01.JPG,1,0,10,8,,,,,,,,,,,,,,,,,,,,,,,AMSA16.jpg,AMNE13.jpg,AMSA19.jpg,AMNE12.jpg,AMNE12.jpg,MN,1,num_4,32,num_6,2.0333405179,,,2017_Dec_11_1224,59.9942272403,MAFE4ImagesEEG,001,202427,
AFNE01.JPG,AFNE01.JPG,AFNE01.JPG,AFNE01.JPG,AFNE01.JPG,AFNE01.JPG,1,1,11,1,,,,,,,,,,,,,,,,,,,,,,,AMNE19.jpg,AMSA01.jpg,AMNE12.jpg,AMSA16.jpg,AMSA16.jpg,MS,2,num_4,16,num_4,1.6166865204,,,2017_Dec_11_1224,59.9942272403,MAFE4ImagesEEG,001,202427,
AFNE01.JPG,AFNE01.JPG,AFNE01.JPG,AFNE01.JPG,AFNE01.JPG,AFNE01.JPG,1,2,12,0,,,,,,,,,,,,,,,,,,,,,,,AMSA14.jpg,AMSA04.jpg,AMNE13.jpg,AMNE17.jpg,AMNE17.jpg,MN,1,num_4,16,num_4,2.84995949059,,,2017_Dec_11_1224,59.9942272403,MAFE4ImagesEEG,001,202427,
AFNE01.JPG,AFNE01.JPG,AFNE01.JPG,AFNE01.JPG,AFNE01.JPG,AFNE01.JPG,1,3,13,7,,,,,,,,,,,,,,,,,,,,,,,AMNE13.jpg,AMNE06.jpg,AMSA14.jpg,AMSA10.jpg,AMSA14.jpg,MS,2,num_2,16,num_2,0.616789798485,,,2017_Dec_11_1224,59.9942272403,MAFE4ImagesEEG,001,202427,
AFNE01.JPG,AFNE01.JPG,AFNE01.JPG,AFNE01.JPG,AFNE01.JPG,AFNE01.JPG,1,4,14,6,,,,,,,,,,,,,,,,,,,,,,,AMSA06.jpg,AMSA05.jpg,AMNE07.jpg,AMNE13.jpg,AMSA06.jpg,MS,2,num_8,16,num_8,1.48336967314,,,2017_Dec_11_1224,59.9942272403,MAFE4ImagesEEG,001,202427,
AFNE01.JPG,AFNE01.JPG,AFNE01.JPG,AFNE01.JPG,AFNE01.JPG,AFNE01.JPG,1,5,15,5,,,,,,,,,,,,,,,,,,,,,,,AMNE05.jpg,AMNE12.jpg,AMSA12.jpg,AMSA04.jpg,AMSA04.jpg,MS,2,num_4,16,num_4,0.666755832033,,,2017_Dec_11_1224,59.9942272403,MAFE4ImagesEEG,001,202427,
AFNE01.JPG,AFNE01.JPG,AFNE01.JPG,AFNE01.JPG,AFNE01.JPG,AFNE01.JPG,1,6,16,2,,,,,,,,,,,,,,,,,,,,,,,AMNE10.jpg,AMSA15.jpg,AMSA17.jpg,AMNE16.jpg,AMSA15.jpg,MS,2,num_6,16,num_6,0.716796277324,,,2017_Dec_11_1224,59.9942272403,MAFE4ImagesEEG,001,202427,
AFNE01.JPG,AFNE01.JPG,AFNE01.JPG,AFNE01.JPG,AFNE01.JPG,AFNE01.JPG,1,7,17,4,,,,,,,,,,,,,,,,,,,,,,,AMSA08.jpg,AMNE15.jpg,AMSA01.jpg,AMNE16.jpg,AMNE16.jpg,MN,1,num_4,16,num_4,0.933294588234,,,2017_Dec_11_1224,59.9942272403,MAFE4ImagesEEG,001,202427,
AFNE01.JPG,AFNE01.JPG,AFNE01.JPG,AFNE01.JPG,AFNE01.JPG,AFNE01.JPG,1,8,18,9,,,,,,,,,,,,,,,,,,,,,,,AMSA15.jpg,AMSA17.jpg,AMNE04.jpg,AMNE16.jpg,AMNE04.jpg,MN,1,num_2,32,num_8,1.56680997298,,,2017_Dec_11_1224,59.9942272403,MAFE4ImagesEEG,001,202427,
AFNE01.JPG,AFNE01.JPG,AFNE01.JPG,AFNE01.JPG,AFNE01.JPG,AFNE01.JPG,1,9,19,3,,,,,,,,,,,,,,,,,,,,,,,AMNE14.jpg,AMSA13.jpg,AMNE04.jpg,AMSA17.jpg,AMSA13.jpg,MS,2,num_6,16,num_6,0.600159471389,,,2017_Dec_11_1224,59.9942272403,MAFE4ImagesEEG,001,202427,
AFNE01.JPG,AFNE01.JPG,AFNE01.JPG,AFNE01.JPG,AFNE01.JPG,AFNE01.JPG,2,0,20,9,,,,,,,,,,,,,,,,,,,,,,,AMSA13.jpg,AMSA07.jpg,AMNE07.jpg,AMNE12.jpg,AMSA13.jpg,MS,2,num_8,32,num_6,0.633482028032,,,2017_Dec_11_1224,59.9942272403,MAFE4ImagesEEG,001,202427,
AFNE01.JPG,AFNE01.JPG,AFNE01.JPG,AFNE01.JPG,AFNE01.JPG,AFNE01.JPG,2,1,21,7,,,,,,,,,,,,,,,,,,,,,,,AMNE06.jpg,AMSA19.jpg,AMSA02.jpg,AMNE13.jpg,AMSA02.jpg,MS,2,num_2,16,num_2,0.900103213731,,,2017_Dec_11_1224,59.9942272403,MAFE4ImagesEEG,001,202427,
AFNE01.JPG,AFNE01.JPG,AFNE01.JPG,AFNE01.JPG,AFNE01.JPG,AFNE01.JPG,2,2,22,6,,,,,,,,,,,,,,,,,,,,,,,AMSA13.jpg,AMSA15.jpg,AMNE19.jpg,AMNE01.jpg,AMSA13.jpg,MS,2,num_8,32,num_6,0.916751502082,,,2017_Dec_11_1224,59.9942272403,MAFE4ImagesEEG,001,202427,
AFNE01.JPG,AFNE01.JPG,AFNE01.JPG,AFNE01.JPG,AFNE01.JPG,AFNE01.JPG,2,3,23,2,,,,,,,,,,,,,,,,,,,,,,,AMNE15.jpg,AMSA20.jpg,AMSA01.jpg,AMNE02.jpg,AMSA01.jpg,MS,2,num_2,16,num_2,0.800128167262,,,2017_Dec_11_1224,59.9942272403,MAFE4ImagesEEG,001,202427,
AFNE01.JPG,AFNE01.JPG,AFNE01.JPG,AFNE01.JPG,AFNE01.JPG,AFNE01.JPG,2,4,24,0,,,,,,,,,,,,,,,,,,,,,,,AMSA03.jpg,AMNE04.jpg,AMNE03.jpg,AMSA17.jpg,AMSA17.jpg,MS,2,num_4,16,num_4,1.15010497789,,,2017_Dec_11_1224,59.9942272403,MAFE4ImagesEEG,001,202427,
AFNE01.JPG,AFNE01.JPG,AFNE01.JPG,AFNE01.JPG,AFNE01.JPG,AFNE01.JPG,2,5,25,3,,,,,,,,,,,,,,,,,,,,,,,AMSA14.jpg,AMNE01.jpg,AMSA15.jpg,AMNE15.jpg,AMNE01.jpg,MN,1,num_6,16,num_6,0.850092918146,,,2017_Dec_11_1224,59.9942272403,MAFE4ImagesEEG,001,202427,
AFNE01.JPG,AFNE01.JPG,AFNE01.JPG,AFNE01.JPG,AFNE01.JPG,AFNE01.JPG,2,6,26,1,,,,,,,,,,,,,,,,,,,,,,,AMNE11.jpg,AMNE12.jpg,AMSA15.jpg,AMSA19.jpg,AMNE11.jpg,MN,1,num_8,32,num_6,0.950144942151,,,2017_Dec_11_1224,59.9942272403,MAFE4ImagesEEG,001,202427,
AFNE01.JPG,AFNE01.JPG,AFNE01.JPG,AFNE01.JPG,AFNE01.JPG,AFNE01.JPG,2,7,27,8,,,,,,,,,,,,,,,,,,,,,,,AMSA14.jpg,AMSA16.jpg,AMNE01.jpg,AMNE05.jpg,AMSA16.jpg,MS,2,num_6,32,num_2,2.43334141583,,,2017_Dec_11_1224,59.9942272403,MAFE4ImagesEEG,001,202427,
AFNE01.JPG,AFNE01.JPG,AFNE01.JPG,AFNE01.JPG,AFNE01.JPG,AFNE01.JPG,2,8,28,5,,,,,,,,,,,,,,,,,,,,,,,AMNE16.jpg,AMNE03.jpg,AMSA19.jpg,AMSA14.jpg,AMNE03.jpg,MN,1,num_6,16,num_6,2.51662262902,,,2017_Dec_11_1224,59.9942272403,MAFE4ImagesEEG,001,202427,
AFNE01.JPG,AFNE01.JPG,AFNE01.JPG,AFNE01.JPG,AFNE01.JPG,AFNE01.JPG,2,9,29,4,,,,,,,,,,,,,,,,,,,,,,,AMNE09.jpg,AMSA18.jpg,AMSA06.jpg,AMNE20.jpg,AMSA18.jpg,MS,2,num_6,16,num_6,1.65007033804,,,2017_Dec_11_1224,59.9942272403,MAFE4ImagesEEG,001,202427,
AFNE01.JPG,AFNE01.JPG,AFNE01.JPG,AFNE01.JPG,AFNE01.JPG,AFNE01.JPG,3,0,30,5,,,,,,,,,,,,,,,,,,,,,,,AMSA18.jpg,AMNE08.jpg,AMSA01.jpg,AMNE18.jpg,AMSA01.jpg,MS,2,num_2,16,num_2,0.816791209625,,,2017_Dec_11_1224,59.9942272403,MAFE4ImagesEEG,001,202427,
AFNE01.JPG,AFNE01.JPG,AFNE01.JPG,AFNE01.JPG,AFNE01.JPG,AFNE01.JPG,3,1,31,8,,,,,,,,,,,,,,,,,,,,,,,AMSA16.jpg,AMNE01.jpg,AMSA10.jpg,AMNE12.jpg,AMNE01.jpg,MN,1,num_6,16,num_6,0.683475003811,,,2017_Dec_11_1224,59.9942272403,MAFE4ImagesEEG,001,202427,
AFNE01.JPG,AFNE01.JPG,AFNE01.JPG,AFNE01.JPG,AFNE01.JPG,AFNE01.JPG,3,2,32,9,,,,,,,,,,,,,,,,,,,,,,,AMNE17.jpg,AMSA16.jpg,AMSA20.jpg,AMNE01.jpg,AMSA20.jpg,MS,2,num_2,16,num_2,1.56670829863,,,2017_Dec_11_1224,59.9942272403,MAFE4ImagesEEG,001,202427,
AFNE01.JPG,AFNE01.JPG,AFNE01.JPG,AFNE01.JPG,AFNE01.JPG,AFNE01.JPG,3,3,33,7,,,,,,,,,,,,,,,,,,,,,,,AMNE09.jpg,AMSA05.jpg,AMNE14.jpg,AMSA01.jpg,AMSA01.jpg,MS,2,num_4,32,num_2,1.40006825328,,,2017_Dec_11_1224,59.9942272403,MAFE4ImagesEEG,001,202427,
AFNE01.JPG,AFNE01.JPG,AFNE01.JPG,AFNE01.JPG,AFNE01.JPG,AFNE01.JPG,3,4,34,2,,,,,,,,,,,,,,,,,,,,,,,AMSA06.jpg,AMSA08.jpg,AMNE02.jpg,AMNE12.jpg,AMNE12.jpg,MN,1,num_4,16,num_4,1.28342888155,,,2017_Dec_11_1224,59.9942272403,MAFE4ImagesEEG,001,202427,
AFNE01.JPG,AFNE01.JPG,AFNE01.JPG,AFNE01.JPG,AFNE01.JPG,AFNE01.JPG,3,5,35,6,,,,,,,,,,,,,,,,,,,,,,,AMNE13.jpg,AMNE15.jpg,AMSA06.jpg,AMSA07.jpg,AMSA06.jpg,MS,2,num_2,32,num_6,2.31668664864,,,2017_Dec_11_1224,59.9942272403,MAFE4ImagesEEG,001,202427,
AFNE01.JPG,AFNE01.JPG,AFNE01.JPG,AFNE01.JPG,AFNE01.JPG,AFNE01.JPG,3,6,36,0,,,,,,,,,,,,,,,,,,,,,,,AMSA12.jpg,AMNE13.jpg,AMSA02.jpg,AMNE09.jpg,AMSA02.jpg,MS,2,num_2,16,num_2,0.500146577833,,,2017_Dec_11_1224,59.9942272403,MAFE4ImagesEEG,001,202427,
AFNE01.JPG,AFNE01.JPG,AFNE01.JPG,AFNE01.JPG,AFNE01.JPG,AFNE01.JPG,3,7,37,4,,,,,,,,,,,,,,,,,,,,,,,AMNE02.jpg,AMSA11.jpg,AMNE12.jpg,AMSA20.jpg,AMSA20.jpg,MS,2,num_4,32,num_6,0.6834432506,,,2017_Dec_11_1224,59.9942272403,MAFE4ImagesEEG,001,202427,
AFNE01.JPG,AFNE01.JPG,AFNE01.JPG,AFNE01.JPG,AFNE01.JPG,AFNE01.JPG,3,8,38,1,,,,,,,,,,,,,,,,,,,,,,,AMSA09.jpg,AMNE10.jpg,AMNE02.jpg,AMSA15.jpg,AMNE02.jpg,MN,1,num_2,16,num_2,0.599827506579,,,2017_Dec_11_1224,59.9942272403,MAFE4ImagesEEG,001,202427,
AFNE01.JPG,AFNE01.JPG,AFNE01.JPG,AFNE01.JPG,AFNE01.JPG,AFNE01.JPG,3,9,39,3,,,,,,,,,,,,,,,,,,,,,,,AMNE01.jpg,AMSA07.jpg,AMSA08.jpg,AMNE09.jpg,AMSA07.jpg,MS,2,num_6,32,num_4,1.2000835205,,,2017_Dec_11_1224,59.9942272403,MAFE4ImagesEEG,001,202427,
AFNE01.JPG,AFNE01.JPG,AFNE01.JPG,AFNE01.JPG,AFNE01.JPG,AFNE01.JPG,4,0,40,0,,,,,,,,,,,,,,,,,,,,,,,AMSA14.jpg,AMNE15.jpg,AMSA19.jpg,AMNE18.jpg,AMSA19.jpg,MS,2,num_2,32,num_6,0.233503260883,,,2017_Dec_11_1224,59.9942272403,MAFE4ImagesEEG,001,202427,
AFNE01.JPG,AFNE01.JPG,AFNE01.JPG,AFNE01.JPG,AFNE01.JPG,AFNE01.JPG,4,1,41,7,,,,,,,,,,,,,,,,,,,,,,,AMNE12.jpg,AMSA13.jpg,AMSA02.jpg,AMNE02.jpg,AMSA13.jpg,MS,2,num_6,16,num_6,0.883464547805,,,2017_Dec_11_1224,59.9942272403,MAFE4ImagesEEG,001,202427,
AFNE01.JPG,AFNE01.JPG,AFNE01.JPG,AFNE01.JPG,AFNE01.JPG,AFNE01.JPG,4,2,42,2,,,,,,,,,,,,,,,,,,,,,,,AMSA10.jpg,AMNE17.jpg,AMNE07.jpg,AMSA11.jpg,AMNE07.jpg,MN,1,num_2,16,num_2,0.983422915684,,,2017_Dec_11_1224,59.9942272403,MAFE4ImagesEEG,001,202427,
AFNE01.JPG,AFNE01.JPG,AFNE01.JPG,AFNE01.JPG,AFNE01.JPG,AFNE01.JPG,4,3,43,3,,,,,,,,,,,,,,,,,,,,,,,AMNE06.jpg,AMNE03.jpg,AMSA06.jpg,AMSA15.jpg,AMSA15.jpg,MS,2,num_4,16,num_4,0.866825561039,,,2017_Dec_11_1224,59.9942272403,MAFE4ImagesEEG,001,202427,
AFNE01.JPG,AFNE01.JPG,AFNE01.JPG,AFNE01.JPG,AFNE01.JPG,AFNE01.JPG,4,4,44,6,,,,,,,,,,,,,,,,,,,,,,,AMNE01.jpg,AMNE09.jpg,AMSA12.jpg,AMSA16.jpg,AMSA12.jpg,MS,2,num_2,32,num_6,1.61671570758,,,2017_Dec_11_1224,59.9942272403,MAFE4ImagesEEG,001,202427,
AFNE01.JPG,AFNE01.JPG,AFNE01.JPG,AFNE01.JPG,AFNE01.JPG,AFNE01.JPG,4,5,45,8,,,,,,,,,,,,,,,,,,,,,,,AMNE10.jpg,AMSA01.jpg,AMSA15.jpg,AMNE09.jpg,AMSA01.jpg,MS,2,num_6,32,num_2,1.46671753586,,,2017_Dec_11_1224,59.9942272403,MAFE4ImagesEEG,001,202427,
AFNE01.JPG,AFNE01.JPG,AFNE01.JPG,AFNE01.JPG,AFNE01.JPG,AFNE01.JPG,4,6,46,9,,,,,,,,,,,,,,,,,,,,,,,AMSA07.jpg,AMNE15.jpg,AMNE18.jpg,AMSA18.jpg,AMNE15.jpg,MN,1,num_6,16,num_6,0.783449408831,,,2017_Dec_11_1224,59.9942272403,MAFE4ImagesEEG,001,202427,
AFNE01.JPG,AFNE01.JPG,AFNE01.JPG,AFNE01.JPG,AFNE01.JPG,AFNE01.JPG,4,7,47,5,,,,,,,,,,,,,,,,,,,,,,,AMSA20.jpg,AMNE05.jpg,AMSA05.jpg,AMNE17.jpg,AMSA05.jpg,MS,2,num_2,32,num_8,3.09992757696,,,2017_Dec_11_1224,59.9942272403,MAFE4ImagesEEG,001,202427,
AFNE01.JPG,AFNE01.JPG,AFNE01.JPG,AFNE01.JPG,AFNE01.JPG,AFNE01.JPG,4,8,48,4,,,,,,,,,,,,,,,,,,,,,,,AMNE02.jpg,AMSA19.jpg,AMNE20.jpg,AMSA06.jpg,AMSA06.jpg,MS,2,num_4,32,num_2,1.00012508826,,,2017_Dec_11_1224,59.9942272403,MAFE4ImagesEEG,001,202427,
AFNE01.JPG,AFNE01.JPG,AFNE01.JPG,AFNE01.JPG,AFNE01.JPG,AFNE01.JPG,4,9,49,1,,,,,,,,,,,,,,,,,,,,,,,AMNE17.jpg,AMSA16.jpg,AMNE03.jpg,AMSA08.jpg,AMNE03.jpg,MN,1,num_2,32,num_4,1.15011363779,,,2017_Dec_11_1224,59.9942272403,MAFE4ImagesEEG,001,202427,
AFNE01.JPG,AFNE01.JPG,AFNE01.JPG,AFNE01.JPG,AFNE01.JPG,AFNE01.JPG,5,0,50,2,,,,,,,,,,,,,,,,,,,,,,,AMSA03.jpg,AMSA04.jpg,AMNE20.jpg,AMNE15.jpg,AMSA03.jpg,MS,2,num_8,32,num_6,0.633324224269,,,2017_Dec_11_1224,59.9942272403,MAFE4ImagesEEG,001,202427,
AFNE01.JPG,AFNE01.JPG,AFNE01.JPG,AFNE01.JPG,AFNE01.JPG,AFNE01.JPG,5,1,51,8,,,,,,,,,,,,,,,,,,,,,,,AMSA16.jpg,AMSA05.jpg,AMNE20.jpg,AMNE05.jpg,AMNE20.jpg,MN,1,num_2,16,num_2,1.066732354,,,2017_Dec_11_1224,59.9942272403,MAFE4ImagesEEG,001,202427,
AFNE01.JPG,AFNE01.JPG,AFNE01.JPG,AFNE01.JPG,AFNE01.JPG,AFNE01.JPG,5,2,52,7,,,,,,,,,,,,,,,,,,,,,,,AMNE04.jpg,AMSA13.jpg,AMSA05.jpg,AMNE06.jpg,AMNE04.jpg,MN,1,num_8,16,num_8,0.96684037894,,,2017_Dec_11_1224,59.9942272403,MAFE4ImagesEEG,001,202427,
AFNE01.JPG,AFNE01.JPG,AFNE01.JPG,AFNE01.JPG,AFNE01.JPG,AFNE01.JPG,5,3,53,9,,,,,,,,,,,,,,,,,,,,,,,AMNE18.jpg,AMSA13.jpg,AMNE02.jpg,AMSA10.jpg,AMSA10.jpg,MS,2,num_4,32,num_8,1.16673562559,,,2017_Dec_11_1224,59.9942272403,MAFE4ImagesEEG,001,202427,
AFNE01.JPG,AFNE01.JPG,AFNE01.JPG,AFNE01.JPG,AFNE01.JPG,AFNE01.JPG,5,4,54,6,,,,,,,,,,,,,,,,,,,,,,,AMSA16.jpg,AMNE15.jpg,AMNE05.jpg,AMSA04.jpg,AMSA16.jpg,MS,2,num_8,32,num_2,1.66667725123,,,2017_Dec_11_1224,59.9942272403,MAFE4ImagesEEG,001,202427,
AFNE01.JPG,AFNE01.JPG,AFNE01.JPG,AFNE01.JPG,AFNE01.JPG,AFNE01.JPG,5,5,55,3,,,,,,,,,,,,,,,,,,,,,,,AMNE04.jpg,AMSA02.jpg,AMSA13.jpg,AMNE20.jpg,AMNE20.jpg,MN,1,num_4,16,num_4,0.766768725822,,,2017_Dec_11_1224,59.9942272403,MAFE4ImagesEEG,001,202427,
AFNE01.JPG,AFNE01.JPG,AFNE01.JPG,AFNE01.JPG,AFNE01.JPG,AFNE01.JPG,5,6,56,4,,,,,,,,,,,,,,,,,,,,,,,AMNE01.jpg,AMSA08.jpg,AMNE05.jpg,AMSA14.jpg,AMSA08.jpg,MS,2,num_6,16,num_6,1.98337833304,,,2017_Dec_11_1224,59.9942272403,MAFE4ImagesEEG,001,202427,
AFNE01.JPG,AFNE01.JPG,AFNE01.JPG,AFNE01.JPG,AFNE01.JPG,AFNE01.JPG,5,7,57,1,,,,,,,,,,,,,,,,,,,,,,,AMSA02.jpg,AMSA06.jpg,AMNE01.jpg,AMNE03.jpg,AMSA02.jpg,MS,2,num_8,32,num_2,0.566793615231,,,2017_Dec_11_1224,59.9942272403,MAFE4ImagesEEG,001,202427,
AFNE01.JPG,AFNE01.JPG,AFNE01.JPG,AFNE01.JPG,AFNE01.JPG,AFNE01.JPG,5,8,58,5,,,,,,,,,,,,,,,,,,,,,,,AMNE10.jpg,AMNE01.jpg,AMSA02.jpg,AMSA16.jpg,AMNE01.jpg,MN,1,num_6,16,num_6,1.18342913827,,,2017_Dec_11_1224,59.9942272403,MAFE4ImagesEEG,001,202427,
AFNE01.JPG,AFNE01.JPG,AFNE01.JPG,AFNE01.JPG,AFNE01.JPG,AFNE01.JPG,5,9,59,0,,,,,,,,,,,,,,,,,,,,,,,AMSA06.jpg,AMNE15.jpg,AMNE17.jpg,AMSA14.jpg,AMNE17.jpg,MN,1,num_2,16,num_2,2.08339667926,,,2017_Dec_11_1224,59.9942272403,MAFE4ImagesEEG,001,202427,
,,,,,,,,,,,,,,,,,,,,,,,,,,,,,,,,,,,,,,,,,,,space,5.482800361,2017_Dec_11_1224,59.9942272403,MAFE4ImagesEEG,001,202427,
AFNE01.JPG,AFNE01.JPG,AFNE01.JPG,AFNE01.JPG,AFNE01.JPG,AFNE01.JPG,,,,,0,0,0,1,,,,,,,,,,,,,,,,,,,AFSA19.jpg,AFNE01.jpg,AFSA13.jpg,AFNE02.jpg,AFNE01.jpg,FN,3,num_6,16,num_6,0.933440844994,,,2017_Dec_11_1224,59.9942272403,MAFE4ImagesEEG,001,202427,
AFNE01.JPG,AFNE01.JPG,AFNE01.JPG,AFNE01.JPG,AFNE01.JPG,AFNE01.JPG,,,,,0,1,1,0,,,,,,,,,,,,,,,,,,,AFSA13.jpg,AFNE06.jpg,AFSA15.jpg,AFNE16.jpg,AFSA13.jpg,FS,4,num_8,16,num_8,0.566812218167,,,2017_Dec_11_1224,59.9942272403,MAFE4ImagesEEG,001,202427,
AFNE01.JPG,AFNE01.JPG,AFNE01.JPG,AFNE01.JPG,AFNE01.JPG,AFNE01.JPG,,,,,0,2,2,7,,,,,,,,,,,,,,,,,,,AFNE05.jpg,AFSA06.jpg,AFSA08.jpg,AFNE09.jpg,AFNE09.jpg,FN,3,num_4,16,num_4,0.816662593279,,,2017_Dec_11_1224,59.9942272403,MAFE4ImagesEEG,001,202427,
AFNE01.JPG,AFNE01.JPG,AFNE01.JPG,AFNE01.JPG,AFNE01.JPG,AFNE01.JPG,,,,,0,3,3,8,,,,,,,,,,,,,,,,,,,AFNE16.jpg,AFSA07.jpg,AFSA03.jpg,AFNE14.jpg,AFSA07.jpg,FS,4,num_6,16,num_6,0.666605405509,,,2017_Dec_11_1224,59.9942272403,MAFE4ImagesEEG,001,202427,
AFNE01.JPG,AFNE01.JPG,AFNE01.JPG,AFNE01.JPG,AFNE01.JPG,AFNE01.JPG,,,,,0,4,4,4,,,,,,,,,,,,,,,,,,,AFSA02.jpg,AFNE14.jpg,AFSA13.jpg,AFNE08.jpg,AFNE14.jpg,FN,3,num_6,16,num_6,1.98337191832,,,2017_Dec_11_1224,59.9942272403,MAFE4ImagesEEG,001,202427,
AFNE01.JPG,AFNE01.JPG,AFNE01.JPG,AFNE01.JPG,AFNE01.JPG,AFNE01.JPG,,,,,0,5,5,2,,,,,,,,,,,,,,,,,,,AFNE11.jpg,AFSA06.jpg,AFNE18.jpg,AFSA15.jpg,AFSA15.jpg,FS,4,num_4,16,num_4,1.58326100651,,,2017_Dec_11_1224,59.9942272403,MAFE4ImagesEEG,001,202427,
AFNE01.JPG,AFNE01.JPG,AFNE01.JPG,AFNE01.JPG,AFNE01.JPG,AFNE01.JPG,,,,,0,6,6,6,,,,,,,,,,,,,,,,,,,AFSA03.jpg,AFSA12.jpg,AFNE16.jpg,AFNE10.jpg,AFSA03.jpg,FS,4,num_8,16,num_8,1.21672763908,,,2017_Dec_11_1224,59.9942272403,MAFE4ImagesEEG,001,202427,
AFNE01.JPG,AFNE01.JPG,AFNE01.JPG,AFNE01.JPG,AFNE01.JPG,AFNE01.JPG,,,,,0,7,7,5,,,,,,,,,,,,,,,,,,,AFSA18.jpg,AFNE15.jpg,AFSA15.jpg,AFNE13.jpg,AFSA15.jpg,FS,4,num_2,16,num_2,0.933365471195,,,2017_Dec_11_1224,59.9942272403,MAFE4ImagesEEG,001,202427,
AFNE01.JPG,AFNE01.JPG,AFNE01.JPG,AFNE01.JPG,AFNE01.JPG,AFNE01.JPG,,,,,0,8,8,3,,,,,,,,,,,,,,,,,,,AFNE03.jpg,AFNE08.jpg,AFSA14.jpg,AFSA13.jpg,AFNE03.jpg,FN,3,num_8,32,num_6,4.43289494701,,,2017_Dec_11_1224,59.9942272403,MAFE4ImagesEEG,001,202427,
AFNE01.JPG,AFNE01.JPG,AFNE01.JPG,AFNE01.JPG,AFNE01.JPG,AFNE01.JPG,,,,,0,9,9,9,,,,,,,,,,,,,,,,,,,AFNE05.jpg,AFSA07.jpg,AFNE02.jpg,AFSA14.jpg,AFSA07.jpg,FS,4,num_6,16,num_6,0.600154660642,,,2017_Dec_11_1224,59.9942272403,MAFE4ImagesEEG,001,202427,
AFNE01.JPG,AFNE01.JPG,AFNE01.JPG,AFNE01.JPG,AFNE01.JPG,AFNE01.JPG,,,,,1,0,10,0,,,,,,,,,,,,,,,,,,,AFSA06.jpg,AFNE19.jpg,AFSA17.jpg,AFNE14.jpg,AFNE19.jpg,FN,3,num_6,32,num_4,0.800115658436,,,2017_Dec_11_1224,59.9942272403,MAFE4ImagesEEG,001,202427,
AFNE01.JPG,AFNE01.JPG,AFNE01.JPG,AFNE01.JPG,AFNE01.JPG,AFNE01.JPG,,,,,1,1,11,9,,,,,,,,,,,,,,,,,,,AFSA19.jpg,AFNE02.jpg,AFSA10.jpg,AFNE14.jpg,AFNE14.jpg,FN,3,num_4,32,num_6,1.51671660575,,,2017_Dec_11_1224,59.9942272403,MAFE4ImagesEEG,001,202427,
AFNE01.JPG,AFNE01.JPG,AFNE01.JPG,AFNE01.JPG,AFNE01.JPG,AFNE01.JPG,,,,,1,2,12,3,,,,,,,,,,,,,,,,,,,AFNE07.jpg,AFSA20.jpg,AFSA15.jpg,AFNE16.jpg,AFNE07.jpg,FN,3,num_8,16,num_8,0.916776199127,,,2017_Dec_11_1224,59.9942272403,MAFE4ImagesEEG,001,202427,
AFNE01.JPG,AFNE01.JPG,AFNE01.JPG,AFNE01.JPG,AFNE01.JPG,AFNE01.JPG,,,,,1,3,13,2,,,,,,,,,,,,,,,,,,,AFSA10.jpg,AFSA08.jpg,AFNE01.jpg,AFNE19.jpg,AFNE19.jpg,FN,3,num_4,16,num_4,1.31672577886,,,2017_Dec_11_1224,59.9942272403,MAFE4ImagesEEG,001,202427,
AFNE01.JPG,AFNE01.JPG,AFNE01.JPG,AFNE01.JPG,AFNE01.JPG,AFNE01.JPG,,,,,1,4,14,1,,,,,,,,,,,,,,,,,,,AFNE11.jpg,AFNE14.jpg,AFSA10.jpg,AFSA13.jpg,AFNE11.jpg,FN,3,num_8,16,num_8,1.46674544038,,,2017_Dec_11_1224,59.9942272403,MAFE4ImagesEEG,001,202427,
AFNE01.JPG,AFNE01.JPG,AFNE01.JPG,AFNE01.JPG,AFNE01.JPG,AFNE01.JPG,,,,,1,5,15,5,,,,,,,,,,,,,,,,,,,AFSA19.jpg,AFNE18.jpg,AFSA08.jpg,AFNE03.jpg,AFSA19.jpg,FS,4,num_8,16,num_8,0.966796758585,,,2017_Dec_11_1224,59.9942272403,MAFE4ImagesEEG,001,202427,
AFNE01.JPG,AFNE01.JPG,AFNE01.JPG,AFNE01.JPG,AFNE01.JPG,AFNE01.JPG,,,,,1,6,16,7,,,,,,,,,,,,,,,,,,,AFSA15.jpg,AFNE20.jpg,AFSA11.jpg,AFNE19.jpg,AFSA11.jpg,FS,4,num_2,16,num_2,0.833462270442,,,2017_Dec_11_1224,59.9942272403,MAFE4ImagesEEG,001,202427,
AFNE01.JPG,AFNE01.JPG,AFNE01.JPG,AFNE01.JPG,AFNE01.JPG,AFNE01.JPG,,,,,1,7,17,8,,,,,,,,,,,,,,,,,,,AFSA05.jpg,AFSA14.jpg,AFNE17.jpg,AFNE16.jpg,AFNE17.jpg,FN,3,num_2,32,num_6,1.65002832119,,,2017_Dec_11_1224,59.9942272403,MAFE4ImagesEEG,001,202427,
AFNE01.JPG,AFNE01.JPG,AFNE01.JPG,AFNE01.JPG,AFNE01.JPG,AFNE01.JPG,,,,,1,8,18,6,,,,,,,,,,,,,,,,,,,AFNE11.jpg,AFSA06.jpg,AFNE20.jpg,AFSA14.jpg,AFNE11.jpg,FN,3,num_8,16,num_8,0.866773601156,,,2017_Dec_11_1224,59.9942272403,MAFE4ImagesEEG,001,202427,
AFNE01.JPG,AFNE01.JPG,AFNE01.JPG,AFNE01.JPG,AFNE01.JPG,AFNE01.JPG,,,,,1,9,19,4,,,,,,,,,,,,,,,,,,,AFSA16.jpg,AFSA17.jpg,AFNE04.jpg,AFNE11.jpg,AFSA16.jpg,FS,4,num_8,32,num_6,1.03344572033,,,2017_Dec_11_1224,59.9942272403,MAFE4ImagesEEG,001,202427,
AFNE01.JPG,AFNE01.JPG,AFNE01.JPG,AFNE01.JPG,AFNE01.JPG,AFNE01.JPG,,,,,2,0,20,0,,,,,,,,,,,,,,,,,,,AFNE03.jpg,AFSA13.jpg,AFNE17.jpg,AFSA05.jpg,AFNE03.jpg,FN,3,num_8,32,num_4,1.68342208187,,,2017_Dec_11_1224,59.9942272403,MAFE4ImagesEEG,001,202427,
AFNE01.JPG,AFNE01.JPG,AFNE01.JPG,AFNE01.JPG,AFNE01.JPG,AFNE01.JPG,,,,,2,1,21,4,,,,,,,,,,,,,,,,,,,AFSA01.jpg,AFNE17.jpg,AFNE19.jpg,AFSA13.jpg,AFSA01.jpg,FS,4,num_8,16,num_8,0.983295582468,,,2017_Dec_11_1224,59.9942272403,MAFE4ImagesEEG,001,202427,
AFNE01.JPG,AFNE01.JPG,AFNE01.JPG,AFNE01.JPG,AFNE01.JPG,AFNE01.JPG,,,,,2,2,22,7,,,,,,,,,,,,,,,,,,,AFSA07.jpg,AFNE13.jpg,AFNE17.jpg,AFSA12.jpg,AFSA07.jpg,FS,4,num_8,16,num_8,1.38362555881,,,2017_Dec_11_1224,59.9942272403,MAFE4ImagesEEG,001,202427,
AFNE01.JPG,AFNE01.JPG,AFNE01.JPG,AFNE01.JPG,AFNE01.JPG,AFNE01.JPG,,,,,2,3,23,9,,,,,,,,,,,,,,,,,,,AFNE03.jpg,AFSA08.jpg,AFNE04.jpg,AFSA15.jpg,AFSA08.jpg,FS,4,num_6,32,num_4,0.600154018961,,,2017_Dec_11_1224,59.9942272403,MAFE4ImagesEEG,001,202427,
AFNE01.JPG,AFNE01.JPG,AFNE01.JPG,AFNE01.JPG,AFNE01.JPG,AFNE01.JPG,,,,,2,4,24,5,,,,,,,,,,,,,,,,,,,AFSA17.jpg,AFSA13.jpg,AFNE20.jpg,AFNE17.jpg,AFSA13.jpg,FS,4,num_6,16,num_6,0.850109275896,,,2017_Dec_11_1224,59.9942272403,MAFE4ImagesEEG,001,202427,
AFNE01.JPG,AFNE01.JPG,AFNE01.JPG,AFNE01.JPG,AFNE01.JPG,AFNE01.JPG,,,,,2,5,25,1,,,,,,,,,,,,,,,,,,,AFSA14.jpg,AFNE08.jpg,AFNE01.jpg,AFSA02.jpg,AFSA14.jpg,FS,4,num_8,16,num_8,2.21673629922,,,2017_Dec_11_1224,59.9942272403,MAFE4ImagesEEG,001,202427,
AFNE01.JPG,AFNE01.JPG,AFNE01.JPG,AFNE01.JPG,AFNE01.JPG,AFNE01.JPG,,,,,2,6,26,8,,,,,,,,,,,,,,,,,,,AFSA06.jpg,AFSA19.jpg,AFNE01.jpg,AFNE20.jpg,AFSA19.jpg,FS,4,num_6,16,num_6,0.150175861316,,,2017_Dec_11_1224,59.9942272403,MAFE4ImagesEEG,001,202427,
AFNE01.JPG,AFNE01.JPG,AFNE01.JPG,AFNE01.JPG,AFNE01.JPG,AFNE01.JPG,,,,,2,7,27,6,,,,,,,,,,,,,,,,,,,AFNE04.jpg,AFSA01.jpg,AFSA08.jpg,AFNE18.jpg,AFNE18.jpg,FN,3,num_4,32,num_8,0.849949547555,,,2017_Dec_11_1224,59.9942272403,MAFE4ImagesEEG,001,202427,
AFNE01.JPG,AFNE01.JPG,AFNE01.JPG,AFNE01.JPG,AFNE01.JPG,AFNE01.JPG,,,,,2,8,28,2,,,,,,,,,,,,,,,,,,,AFNE01.jpg,AFSA14.jpg,AFSA18.jpg,AFNE06.jpg,AFSA18.jpg,FS,4,num_2,32,num_4,2.03334885696,,,2017_Dec_11_1224,59.9942272403,MAFE4ImagesEEG,001,202427,
AFNE01.JPG,AFNE01.JPG,AFNE01.JPG,AFNE01.JPG,AFNE01.JPG,AFNE01.JPG,,,,,2,9,29,3,,,,,,,,,,,,,,,,,,,AFNE05.jpg,AFSA01.jpg,AFSA17.jpg,AFNE06.jpg,AFNE05.jpg,FN,3,num_8,16,num_8,1.26675782073,,,2017_Dec_11_1224,59.9942272403,MAFE4ImagesEEG,001,202427,
AFNE01.JPG,AFNE01.JPG,AFNE01.JPG,AFNE01.JPG,AFNE01.JPG,AFNE01.JPG,,,,,3,0,30,9,,,,,,,,,,,,,,,,,,,AFSA12.jpg,AFNE09.jpg,AFSA11.jpg,AFNE12.jpg,AFSA11.jpg,FS,4,num_2,16,num_2,0.750136153772,,,2017_Dec_11_1224,59.9942272403,MAFE4ImagesEEG,001,202427,
AFNE01.JPG,AFNE01.JPG,AFNE01.JPG,AFNE01.JPG,AFNE01.JPG,AFNE01.JPG,,,,,3,1,31,4,,,,,,,,,,,,,,,,,,,AFNE11.jpg,AFNE20.jpg,AFSA03.jpg,AFSA12.jpg,AFSA12.jpg,FS,4,num_4,16,num_4,0.666820621584,,,2017_Dec_11_1224,59.9942272403,MAFE4ImagesEEG,001,202427,
AFNE01.JPG,AFNE01.JPG,AFNE01.JPG,AFNE01.JPG,AFNE01.JPG,AFNE01.JPG,,,,,3,2,32,1,,,,,,,,,,,,,,,,,,,AFSA19.jpg,AFNE05.jpg,AFSA02.jpg,AFNE03.jpg,AFSA19.jpg,FS,4,num_8,32,num_2,0.833523210837,,,2017_Dec_11_1224,59.9942272403,MAFE4ImagesEEG,001,202427,
AFNE01.JPG,AFNE01.JPG,AFNE01.JPG,AFNE01.JPG,AFNE01.JPG,AFNE01.JPG,,,,,3,3,33,7,,,,,,,,,,,,,,,,,,,AFSA13.jpg,AFSA10.jpg,AFNE13.jpg,AFNE04.jpg,AFNE13.jpg,FN,3,num_2,32,num_4,1.20015953574,,,2017_Dec_11_1224,59.9942272403,MAFE4ImagesEEG,001,202427,
AFNE01.JPG,AFNE01.JPG,AFNE01.JPG,AFNE01.JPG,AFNE01.JPG,AFNE01.JPG,,,,,3,4,34,3,,,,,,,,,,,,,,,,,,,AFSA20.jpg,AFSA13.jpg,AFNE12.jpg,AFNE07.jpg,AFSA20.jpg,FS,4,num_8,32,num_2,2.0333478949,,,2017_Dec_11_1224,59.9942272403,MAFE4ImagesEEG,001,202427,
AFNE01.JPG,AFNE01.JPG,AFNE01.JPG,AFNE01.JPG,AFNE01.JPG,AFNE01.JPG,,,,,3,5,35,5,,,,,,,,,,,,,,,,,,,AFSA04.jpg,AFNE12.jpg,AFNE13.jpg,AFSA09.jpg,AFNE13.jpg,FN,3,num_2,32,num_6,1.01676022634,,,2017_Dec_11_1224,59.9942272403,MAFE4ImagesEEG,001,202427,
AFNE01.JPG,AFNE01.JPG,AFNE01.JPG,AFNE01.JPG,AFNE01.JPG,AFNE01.JPG,,,,,3,6,36,8,,,,,,,,,,,,,,,,,,,AFSA18.jpg,AFNE12.jpg,AFSA04.jpg,AFNE02.jpg,AFNE02.jpg,FN,3,num_4,16,num_4,1.25009349547,,,2017_Dec_11_1224,59.9942272403,MAFE4ImagesEEG,001,202427,
AFNE01.JPG,AFNE01.JPG,AFNE01.JPG,AFNE01.JPG,AFNE01.JPG,AFNE01.JPG,,,,,3,7,37,6,,,,,,,,,,,,,,,,,,,AFNE14.jpg,AFSA15.jpg,AFNE11.jpg,AFSA13.jpg,AFSA13.jpg,FS,4,num_4,16,num_4,0.616755800089,,,2017_Dec_11_1224,59.9942272403,MAFE4ImagesEEG,001,202427,
AFNE01.JPG,AFNE01.JPG,AFNE01.JPG,AFNE01.JPG,AFNE01.JPG,AFNE01.JPG,,,,,3,8,38,0,,,,,,,,,,,,,,,,,,,AFNE05.jpg,AFSA12.jpg,AFNE16.jpg,AFSA17.jpg,AFNE05.jpg,FN,3,num_8,32,num_6,1.21706313244,,,2017_Dec_11_1224,59.9942272403,MAFE4ImagesEEG,001,202427,
AFNE01.JPG,AFNE01.JPG,AFNE01.JPG,AFNE01.JPG,AFNE01.JPG,AFNE01.JPG,,,,,3,9,39,2,,,,,,,,,,,,,,,,,,,AFSA11.jpg,AFSA10.jpg,AFNE01.jpg,AFNE03.jpg,AFSA11.jpg,FS,4,num_8,16,num_8,1.01658542361,,,2017_Dec_11_1224,59.9942272403,MAFE4ImagesEEG,001,202427,
AFNE01.JPG,AFNE01.JPG,AFNE01.JPG,AFNE01.JPG,AFNE01.JPG,AFNE01.JPG,,,,,4,0,40,6,,,,,,,,,,,,,,,,,,,AFSA06.jpg,AFNE18.jpg,AFNE09.jpg,AFSA02.jpg,AFSA02.jpg,FS,4,num_4,16,num_4,0.816770040896,,,2017_Dec_11_1224,59.9942272403,MAFE4ImagesEEG,001,202427,
AFNE01.JPG,AFNE01.JPG,AFNE01.JPG,AFNE01.JPG,AFNE01.JPG,AFNE01.JPG,,,,,4,1,41,9,,,,,,,,,,,,,,,,,,,AFSA06.jpg,AFNE03.jpg,AFNE06.jpg,AFSA18.jpg,AFSA06.jpg,FS,4,num_8,32,num_4,1.13345059566,,,2017_Dec_11_1224,59.9942272403,MAFE4ImagesEEG,001,202427,
AFNE01.JPG,AFNE01.JPG,AFNE01.JPG,AFNE01.JPG,AFNE01.JPG,AFNE01.JPG,,,,,4,2,42,7,,,,,,,,,,,,,,,,,,,AFNE13.jpg,AFSA01.jpg,AFSA19.jpg,AFNE17.jpg,AFNE17.jpg,FN,3,num_4,32,num_8,1.21674078959,,,2017_Dec_11_1224,59.9942272403,MAFE4ImagesEEG,001,202427,
AFNE01.JPG,AFNE01.JPG,AFNE01.JPG,AFNE01.JPG,AFNE01.JPG,AFNE01.JPG,,,,,4,3,43,1,,,,,,,,,,,,,,,,,,,AFNE18.jpg,AFSA12.jpg,AFNE19.jpg,AFSA13.jpg,AFSA13.jpg,FS,4,num_4,32,num_8,1.51680512982,,,2017_Dec_11_1224,59.9942272403,MAFE4ImagesEEG,001,202427,
AFNE01.JPG,AFNE01.JPG,AFNE01.JPG,AFNE01.JPG,AFNE01.JPG,AFNE01.JPG,,,,,4,4,44,3,,,,,,,,,,,,,,,,,,,AFNE12.jpg,AFSA05.jpg,AFSA06.jpg,AFNE16.jpg,AFNE16.jpg,FN,3,num_4,16,num_4,1.48338763462,,,2017_Dec_11_1224,59.9942272403,MAFE4ImagesEEG,001,202427,
AFNE01.JPG,AFNE01.JPG,AFNE01.JPG,AFNE01.JPG,AFNE01.JPG,AFNE01.JPG,,,,,4,5,45,0,,,,,,,,,,,,,,,,,,,AFNE02.jpg,AFSA01.jpg,AFSA11.jpg,AFNE09.jpg,AFNE02.jpg,FN,3,num_8,32,num_6,4.43316051899,,,2017_Dec_11_1224,59.9942272403,MAFE4ImagesEEG,001,202427,
AFNE01.JPG,AFNE01.JPG,AFNE01.JPG,AFNE01.JPG,AFNE01.JPG,AFNE01.JPG,,,,,4,6,46,2,,,,,,,,,,,,,,,,,,,AFNE16.jpg,AFNE20.jpg,AFSA16.jpg,AFSA12.jpg,AFNE20.jpg,FN,3,num_6,32,num_2,0.916750860633,,,2017_Dec_11_1224,59.9942272403,MAFE4ImagesEEG,001,202427,
AFNE01.JPG,AFNE01.JPG,AFNE01.JPG,AFNE01.JPG,AFNE01.JPG,AFNE01.JPG,,,,,4,7,47,5,,,,,,,,,,,,,,,,,,,AFNE09.jpg,AFNE11.jpg,AFSA06.jpg,AFSA14.jpg,AFNE09.jpg,FN,3,num_8,16,num_8,1.4333786217,,,2017_Dec_11_1224,59.9942272403,MAFE4ImagesEEG,001,202427,
AFNE01.JPG,AFNE01.JPG,AFNE01.JPG,AFNE01.JPG,AFNE01.JPG,AFNE01.JPG,,,,,4,8,48,8,,,,,,,,,,,,,,,,,,,AFNE07.jpg,AFSA09.jpg,AFSA02.jpg,AFNE13.jpg,AFNE07.jpg,FN,3,num_8,32,num_2,3.36664530542,,,2017_Dec_11_1224,59.9942272403,MAFE4ImagesEEG,001,202427,
AFNE01.JPG,AFNE01.JPG,AFNE01.JPG,AFNE01.JPG,AFNE01.JPG,AFNE01.JPG,,,,,4,9,49,4,,,,,,,,,,,,,,,,,,,AFSA16.jpg,AFNE12.jpg,AFNE06.jpg,AFSA05.jpg,AFSA16.jpg,FS,4,num_8,32,num_4,1.64992792974,,,2017_Dec_11_1224,59.9942272403,MAFE4ImagesEEG,001,202427,
AFNE01.JPG,AFNE01.JPG,AFNE01.JPG,AFNE01.JPG,AFNE01.JPG,AFNE01.JPG,,,,,5,0,50,9,,,,,,,,,,,,,,,,,,,AFNE06.jpg,AFSA12.jpg,AFNE13.jpg,AFSA14.jpg,AFSA14.jpg,FS,4,num_4,32,num_2,1.35017695185,,,2017_Dec_11_1224,59.9942272403,MAFE4ImagesEEG,001,202427,
AFNE01.JPG,AFNE01.JPG,AFNE01.JPG,AFNE01.JPG,AFNE01.JPG,AFNE01.JPG,,,,,5,1,51,8,,,,,,,,,,,,,,,,,,,AFSA20.jpg,AFSA02.jpg,AFNE11.jpg,AFNE19.jpg,AFNE11.jpg,FN,3,num_2,16,num_2,1.23343430203,,,2017_Dec_11_1224,59.9942272403,MAFE4ImagesEEG,001,202427,
AFNE01.JPG,AFNE01.JPG,AFNE01.JPG,AFNE01.JPG,AFNE01.JPG,AFNE01.JPG,,,,,5,2,52,0,,,,,,,,,,,,,,,,,,,AFSA18.jpg,AFSA07.jpg,AFNE11.jpg,AFNE01.jpg,AFNE01.jpg,FN,3,num_4,16,num_4,1.0004541669,,,2017_Dec_11_1224,59.9942272403,MAFE4ImagesEEG,001,202427,
AFNE01.JPG,AFNE01.JPG,AFNE01.JPG,AFNE01.JPG,AFNE01.JPG,AFNE01.JPG,,,,,5,3,53,7,,,,,,,,,,,,,,,,,,,AFNE15.jpg,AFSA14.jpg,AFNE11.jpg,AFSA18.jpg,AFNE15.jpg,FN,3,num_8,16,num_8,0.866759167751,,,2017_Dec_11_1224,59.9942272403,MAFE4ImagesEEG,001,202427,
AFNE01.JPG,AFNE01.JPG,AFNE01.JPG,AFNE01.JPG,AFNE01.JPG,AFNE01.JPG,,,,,5,4,54,5,,,,,,,,,,,,,,,,,,,AFSA06.jpg,AFSA17.jpg,AFNE18.jpg,AFNE04.jpg,AFNE04.jpg,FN,3,num_4,16,num_4,0.883564618416,,,2017_Dec_11_1224,59.9942272403,MAFE4ImagesEEG,001,202427,
AFNE01.JPG,AFNE01.JPG,AFNE01.JPG,AFNE01.JPG,AFNE01.JPG,AFNE01.JPG,,,,,5,5,55,4,,,,,,,,,,,,,,,,,,,AFSA16.jpg,AFNE01.jpg,AFNE03.jpg,AFSA10.jpg,AFNE01.jpg,FN,3,num_6,32,num_8,0.966756345471,,,2017_Dec_11_1224,59.9942272403,MAFE4ImagesEEG,001,202427,
AFNE01.JPG,AFNE01.JPG,AFNE01.JPG,AFNE01.JPG,AFNE01.JPG,AFNE01.JPG,,,,,5,6,56,2,,,,,,,,,,,,,,,,,,,AFNE04.jpg,AFSA10.jpg,AFSA05.jpg,AFNE07.jpg,AFNE07.jpg,FN,3,num_4,16,num_4,0.633449633373,,,2017_Dec_11_1224,59.9942272403,MAFE4ImagesEEG,001,202427,
AFNE01.JPG,AFNE01.JPG,AFNE01.JPG,AFNE01.JPG,AFNE01.JPG,AFNE01.JPG,,,,,5,7,57,6,,,,,,,,,,,,,,,,,,,AFSA15.jpg,AFSA07.jpg,AFNE13.jpg,AFNE09.jpg,AFNE09.jpg,FN,3,num_4,32,num_2,1.15006167814,,,2017_Dec_11_1224,59.9942272403,MAFE4ImagesEEG,001,202427,
AFNE01.JPG,AFNE01.JPG,AFNE01.JPG,AFNE01.JPG,AFNE01.JPG,AFNE01.JPG,,,,,5,8,58,1,,,,,,,,,,,,,,,,,,,AFNE11.jpg,AFSA08.jpg,AFNE06.jpg,AFSA10.jpg,AFNE06.jpg,FN,3,num_2,16,num_2,1.00002213102,,,2017_Dec_11_1224,59.9942272403,MAFE4ImagesEEG,001,202427,
AFNE01.JPG,AFNE01.JPG,AFNE01.JPG,AFNE01.JPG,AFNE01.JPG,AFNE01.JPG,,,,,5,9,59,3,,,,,,,,,,,,,,,,,,,AFNE03.jpg,AFSA18.jpg,AFNE10.jpg,AFSA16.jpg,AFSA16.jpg,FS,4,num_4,32,num_6,1.21671897918,,,2017_Dec_11_1224,59.9942272403,MAFE4ImagesEEG,001,202427,
,,,,,,,,,,,,,,,,,,,,,,,,,,,,,,,,,,,,,,,,,,,space,29.131158914,2017_Dec_11_1224,59.9942272403,MAFE4ImagesEEG,001,202427,
AFNE01.JPG,AFNE01.JPG,AFNE01.JPG,AFNE01.JPG,AFNE01.JPG,AFNE01.JPG,,,,,,,,,0,0,0,9,,,,,,,,,,,,,,,AMNE12.jpg,AMSA05.jpg,AMNE16.jpg,AMSA06.jpg,AMSA05.jpg,MS,2,num_6,16,num_6,1.05013666698,,,2017_Dec_11_1224,59.9942272403,MAFE4ImagesEEG,001,202427,
AFNE01.JPG,AFNE01.JPG,AFNE01.JPG,AFNE01.JPG,AFNE01.JPG,AFNE01.JPG,,,,,,,,,0,1,1,4,,,,,,,,,,,,,,,AMSA13.jpg,AMSA01.jpg,AMNE05.jpg,AMNE19.jpg,AMSA01.jpg,MS,2,num_6,16,num_6,0.55017804238,,,2017_Dec_11_1224,59.9942272403,MAFE4ImagesEEG,001,202427,
AFNE01.JPG,AFNE01.JPG,AFNE01.JPG,AFNE01.JPG,AFNE01.JPG,AFNE01.JPG,,,,,,,,,0,2,2,3,,,,,,,,,,,,,,,AMNE01.jpg,AMSA20.jpg,AMNE16.jpg,AMSA10.jpg,AMSA10.jpg,MS,2,num_4,16,num_4,2.43341839337,,,2017_Dec_11_1224,59.9942272403,MAFE4ImagesEEG,001,202427,
AFNE01.JPG,AFNE01.JPG,AFNE01.JPG,AFNE01.JPG,AFNE01.JPG,AFNE01.JPG,,,,,,,,,0,3,3,0,,,,,,,,,,,,,,,AMSA15.jpg,AMNE17.jpg,AMNE07.jpg,AMSA18.jpg,AMNE07.jpg,MN,1,num_2,16,num_2,1.41674123867,,,2017_Dec_11_1224,59.9942272403,MAFE4ImagesEEG,001,202427,
AFNE01.JPG,AFNE01.JPG,AFNE01.JPG,AFNE01.JPG,AFNE01.JPG,AFNE01.JPG,,,,,,,,,0,4,4,6,,,,,,,,,,,,,,,AMNE19.jpg,AMSA20.jpg,AMSA09.jpg,AMNE20.jpg,AMNE19.jpg,MN,1,num_8,32,num_4,1.03343994706,,,2017_Dec_11_1224,59.9942272403,MAFE4ImagesEEG,001,202427,
AFNE01.JPG,AFNE01.JPG,AFNE01.JPG,AFNE01.JPG,AFNE01.JPG,AFNE01.JPG,,,,,,,,,0,5,5,5,,,,,,,,,,,,,,,AMNE07.jpg,AMSA16.jpg,AMNE06.jpg,AMSA19.jpg,AMNE07.jpg,MN,1,num_8,16,num_8,0.600145359058,,,2017_Dec_11_1224,59.9942272403,MAFE4ImagesEEG,001,202427,
AFNE01.JPG,AFNE01.JPG,AFNE01.JPG,AFNE01.JPG,AFNE01.JPG,AFNE01.JPG,,,,,,,,,0,6,6,8,,,,,,,,,,,,,,,AMNE10.jpg,AMNE12.jpg,AMSA02.jpg,AMSA17.jpg,AMSA02.jpg,MS,2,num_2,16,num_2,0.550136666978,,,2017_Dec_11_1224,59.9942272403,MAFE4ImagesEEG,001,202427,
AFNE01.JPG,AFNE01.JPG,AFNE01.JPG,AFNE01.JPG,AFNE01.JPG,AFNE01.JPG,,,,,,,,,0,7,7,1,,,,,,,,,,,,,,,AMNE12.jpg,AMSA15.jpg,AMSA02.jpg,AMNE02.jpg,AMSA02.jpg,MS,2,num_2,32,num_4,0.983516892185,,,2017_Dec_11_1224,59.9942272403,MAFE4ImagesEEG,001,202427,
AFNE01.JPG,AFNE01.JPG,AFNE01.JPG,AFNE01.JPG,AFNE01.JPG,AFNE01.JPG,,,,,,,,,0,8,8,7,,,,,,,,,,,,,,,AMSA13.jpg,AMNE12.jpg,AMSA19.jpg,AMNE15.jpg,AMNE12.jpg,MN,1,num_6,32,num_8,1.56670156308,,,2017_Dec_11_1224,59.9942272403,MAFE4ImagesEEG,001,202427,
AFNE01.JPG,AFNE01.JPG,AFNE01.JPG,AFNE01.JPG,AFNE01.JPG,AFNE01.JPG,,,,,,,,,0,9,9,2,,,,,,,,,,,,,,,AMNE07.jpg,AMSA07.jpg,AMNE12.jpg,AMSA09.jpg,AMNE07.jpg,MN,1,num_8,32,num_2,1.73327264935,,,2017_Dec_11_1224,59.9942272403,MAFE4ImagesEEG,001,202427,
AFNE01.JPG,AFNE01.JPG,AFNE01.JPG,AFNE01.JPG,AFNE01.JPG,AFNE01.JPG,,,,,,,,,1,0,10,2,,,,,,,,,,,,,,,AMSA19.jpg,AMNE16.jpg,AMSA15.jpg,AMNE02.jpg,AMNE02.jpg,MN,1,num_4,16,num_4,1.06675897539,,,2017_Dec_11_1224,59.9942272403,MAFE4ImagesEEG,001,202427,
AFNE01.JPG,AFNE01.JPG,AFNE01.JPG,AFNE01.JPG,AFNE01.JPG,AFNE01.JPG,,,,,,,,,1,1,11,1,,,,,,,,,,,,,,,AMNE03.jpg,AMSA06.jpg,AMNE20.jpg,AMSA03.jpg,AMNE03.jpg,MN,1,num_8,32,num_4,0.866746659158,,,2017_Dec_11_1224,59.9942272403,MAFE4ImagesEEG,001,202427,
AFNE01.JPG,AFNE01.JPG,AFNE01.JPG,AFNE01.JPG,AFNE01.JPG,AFNE01.JPG,,,,,,,,,1,2,12,8,,,,,,,,,,,,,,,AMSA14.jpg,AMNE19.jpg,AMSA16.jpg,AMNE02.jpg,AMSA14.jpg,MS,2,num_8,16,num_8,0.683500983519,,,2017_Dec_11_1224,59.9942272403,MAFE4ImagesEEG,001,202427,
AFNE01.JPG,AFNE01.JPG,AFNE01.JPG,AFNE01.JPG,AFNE01.JPG,AFNE01.JPG,,,,,,,,,1,3,13,7,,,,,,,,,,,,,,,AMSA04.jpg,AMSA06.jpg,AMNE07.jpg,AMNE01.jpg,AMSA04.jpg,MS,2,num_8,16,num_8,0.750170472777,,,2017_Dec_11_1224,59.9942272403,MAFE4ImagesEEG,001,202427,
AFNE01.JPG,AFNE01.JPG,AFNE01.JPG,AFNE01.JPG,AFNE01.JPG,AFNE01.JPG,,,,,,,,,1,4,14,4,,,,,,,,,,,,,,,AMNE11.jpg,AMSA17.jpg,AMNE20.jpg,AMSA09.jpg,AMNE20.jpg,MN,1,num_2,32,num_6,2.01672430336,,,2017_Dec_11_1224,59.9942272403,MAFE4ImagesEEG,001,202427,
AFNE01.JPG,AFNE01.JPG,AFNE01.JPG,AFNE01.JPG,AFNE01.JPG,AFNE01.JPG,,,,,,,,,1,5,15,5,,,,,,,,,,,,,,,AMNE02.jpg,AMNE12.jpg,AMSA19.jpg,AMSA09.jpg,AMNE12.jpg,MN,1,num_6,32,num_2,1.05009176349,,,2017_Dec_11_1224,59.9942272403,MAFE4ImagesEEG,001,202427,
AFNE01.JPG,AFNE01.JPG,AFNE01.JPG,AFNE01.JPG,AFNE01.JPG,AFNE01.JPG,,,,,,,,,1,6,16,0,,,,,,,,,,,,,,,AMSA05.jpg,AMNE08.jpg,AMSA09.jpg,AMNE06.jpg,AMNE06.jpg,MN,1,num_4,32,num_2,1.0834884108,,,2017_Dec_11_1224,59.9942272403,MAFE4ImagesEEG,001,202427,
AFNE01.JPG,AFNE01.JPG,AFNE01.JPG,AFNE01.JPG,AFNE01.JPG,AFNE01.JPG,,,,,,,,,1,7,17,6,,,,,,,,,,,,,,,AMNE18.jpg,AMNE10.jpg,AMSA15.jpg,AMSA08.jpg,AMSA08.jpg,MS,2,num_4,32,num_8,1.03341300506,,,2017_Dec_11_1224,59.9942272403,MAFE4ImagesEEG,001,202427,
AFNE01.JPG,AFNE01.JPG,AFNE01.JPG,AFNE01.JPG,AFNE01.JPG,AFNE01.JPG,,,,,,,,,1,8,18,9,,,,,,,,,,,,,,,AMSA03.jpg,AMNE01.jpg,AMNE10.jpg,AMSA02.jpg,AMNE01.jpg,MN,1,num_6,16,num_6,1.08342298004,,,2017_Dec_11_1224,59.9942272403,MAFE4ImagesEEG,001,202427,
AFNE01.JPG,AFNE01.JPG,AFNE01.JPG,AFNE01.JPG,AFNE01.JPG,AFNE01.JPG,,,,,,,,,1,9,19,3,,,,,,,,,,,,,,,AMNE12.jpg,AMNE14.jpg,AMSA13.jpg,AMSA03.jpg,AMNE12.jpg,MN,1,num_8,16,num_8,1.31673732563,,,2017_Dec_11_1224,59.9942272403,MAFE4ImagesEEG,001,202427,
AFNE01.JPG,AFNE01.JPG,AFNE01.JPG,AFNE01.JPG,AFNE01.JPG,AFNE01.JPG,,,,,,,,,2,0,20,6,,,,,,,,,,,,,,,AMNE15.jpg,AMNE08.jpg,AMSA15.jpg,AMSA19.jpg,AMSA15.jpg,MS,2,num_2,32,num_4,0.966768212616,,,2017_Dec_11_1224,59.9942272403,MAFE4ImagesEEG,001,202427,
AFNE01.JPG,AFNE01.JPG,AFNE01.JPG,AFNE01.JPG,AFNE01.JPG,AFNE01.JPG,,,,,,,,,2,1,21,9,,,,,,,,,,,,,,,AMSA04.jpg,AMNE19.jpg,AMSA06.jpg,AMNE16.jpg,AMSA06.jpg,MS,2,num_2,16,num_2,0.78347186069,,,2017_Dec_11_1224,59.9942272403,MAFE4ImagesEEG,001,202427,
AFNE01.JPG,AFNE01.JPG,AFNE01.JPG,AFNE01.JPG,AFNE01.JPG,AFNE01.JPG,,,,,,,,,2,2,22,0,,,,,,,,,,,,,,,AMNE05.jpg,AMNE18.jpg,AMSA18.jpg,AMSA08.jpg,AMNE05.jpg,MN,1,num_8,32,num_6,1.08341656509,,,2017_Dec_11_1224,59.9942272403,MAFE4ImagesEEG,001,202427,
AFNE01.JPG,AFNE01.JPG,AFNE01.JPG,AFNE01.JPG,AFNE01.JPG,AFNE01.JPG,,,,,,,,,2,3,23,4,,,,,,,,,,,,,,,AMNE09.jpg,AMSA03.jpg,AMNE02.jpg,AMSA16.jpg,AMNE02.jpg,MN,1,num_2,16,num_2,0.750120437704,,,2017_Dec_11_1224,59.9942272403,MAFE4ImagesEEG,001,202427,
AFNE01.JPG,AFNE01.JPG,AFNE01.JPG,AFNE01.JPG,AFNE01.JPG,AFNE01.JPG,,,,,,,,,2,4,24,2,,,,,,,,,,,,,,,AMNE15.jpg,AMNE03.jpg,AMSA19.jpg,AMSA20.jpg,AMNE15.jpg,MN,1,num_8,16,num_8,0.866826843936,,,2017_Dec_11_1224,59.9942272403,MAFE4ImagesEEG,001,202427,
AFNE01.JPG,AFNE01.JPG,AFNE01.JPG,AFNE01.JPG,AFNE01.JPG,AFNE01.JPG,,,,,,,,,2,5,25,5,,,,,,,,,,,,,,,AMSA06.jpg,AMSA17.jpg,AMNE20.jpg,AMNE14.jpg,AMNE20.jpg,MN,1,num_2,16,num_2,1.2004052219,,,2017_Dec_11_1224,59.9942272403,MAFE4ImagesEEG,001,202427,
AFNE01.JPG,AFNE01.JPG,AFNE01.JPG,AFNE01.JPG,AFNE01.JPG,AFNE01.JPG,,,,,,,,,2,6,26,3,,,,,,,,,,,,,,,AMNE14.jpg,AMSA09.jpg,AMSA19.jpg,AMNE17.jpg,AMNE14.jpg,MN,1,num_8,16,num_8,0.683441005647,,,2017_Dec_11_1224,59.9942272403,MAFE4ImagesEEG,001,202427,
AFNE01.JPG,AFNE01.JPG,AFNE01.JPG,AFNE01.JPG,AFNE01.JPG,AFNE01.JPG,,,,,,,,,2,7,27,8,,,,,,,,,,,,,,,AMNE11.jpg,AMSA08.jpg,AMNE18.jpg,AMSA20.jpg,AMNE11.jpg,MN,1,num_8,32,num_2,1.03342358931,,,2017_Dec_11_1224,59.9942272403,MAFE4ImagesEEG,001,202427,
AFNE01.JPG,AFNE01.JPG,AFNE01.JPG,AFNE01.JPG,AFNE01.JPG,AFNE01.JPG,,,,,,,,,2,8,28,1,,,,,,,,,,,,,,,AMSA01.jpg,AMSA04.jpg,AMNE16.jpg,AMNE02.jpg,AMSA04.jpg,MS,2,num_6,32,num_4,1.28341508983,,,2017_Dec_11_1224,59.9942272403,MAFE4ImagesEEG,001,202427,
AFNE01.JPG,AFNE01.JPG,AFNE01.JPG,AFNE01.JPG,AFNE01.JPG,AFNE01.JPG,,,,,,,,,2,9,29,7,,,,,,,,,,,,,,,AMSA06.jpg,AMSA02.jpg,AMNE07.jpg,AMNE03.jpg,AMNE03.jpg,MN,1,num_4,32,num_2,1.10012771818,,,2017_Dec_11_1224,59.9942272403,MAFE4ImagesEEG,001,202427,
AFNE01.JPG,AFNE01.JPG,AFNE01.JPG,AFNE01.JPG,AFNE01.JPG,AFNE01.JPG,,,,,,,,,3,0,30,8,,,,,,,,,,,,,,,AMNE02.jpg,AMNE14.jpg,AMSA16.jpg,AMSA03.jpg,AMNE02.jpg,MN,1,num_8,16,num_8,0.766798233846,,,2017_Dec_11_1224,59.9942272403,MAFE4ImagesEEG,001,202427,
AFNE01.JPG,AFNE01.JPG,AFNE01.JPG,AFNE01.JPG,AFNE01.JPG,AFNE01.JPG,,,,,,,,,3,1,31,2,,,,,,,,,,,,,,,AMNE18.jpg,AMSA12.jpg,AMSA20.jpg,AMNE06.jpg,AMNE06.jpg,MN,1,num_4,32,num_2,1.16671990929,,,2017_Dec_11_1224,59.9942272403,MAFE4ImagesEEG,001,202427,
AFNE01.JPG,AFNE01.JPG,AFNE01.JPG,AFNE01.JPG,AFNE01.JPG,AFNE01.JPG,,,,,,,,,3,2,32,9,,,,,,,,,,,,,,,AMNE15.jpg,AMSA02.jpg,AMNE13.jpg,AMSA10.jpg,AMNE13.jpg,MN,1,num_2,32,num_4,0.850074956892,,,2017_Dec_11_1224,59.9942272403,MAFE4ImagesEEG,001,202427,
AFNE01.JPG,AFNE01.JPG,AFNE01.JPG,AFNE01.JPG,AFNE01.JPG,AFNE01.JPG,,,,,,,,,3,3,33,7,,,,,,,,,,,,,,,AMNE06.jpg,AMSA10.jpg,AMNE18.jpg,AMSA03.jpg,AMSA03.jpg,MS,2,num_4,16,num_4,0.76679598866,,,2017_Dec_11_1224,59.9942272403,MAFE4ImagesEEG,001,202427,
AFNE01.JPG,AFNE01.JPG,AFNE01.JPG,AFNE01.JPG,AFNE01.JPG,AFNE01.JPG,,,,,,,,,3,4,34,3,,,,,,,,,,,,,,,AMNE04.jpg,AMSA16.jpg,AMSA11.jpg,AMNE19.jpg,AMSA11.jpg,MS,2,num_2,32,num_6,0.716772542801,,,2017_Dec_11_1224,59.9942272403,MAFE4ImagesEEG,001,202427,
AFNE01.JPG,AFNE01.JPG,AFNE01.JPG,AFNE01.JPG,AFNE01.JPG,AFNE01.JPG,,,,,,,,,3,5,35,5,,,,,,,,,,,,,,,AMSA05.jpg,AMNE04.jpg,AMSA18.jpg,AMNE07.jpg,AMSA05.jpg,MS,2,num_8,16,num_8,1.0001096928,,,2017_Dec_11_1224,59.9942272403,MAFE4ImagesEEG,001,202427,
AFNE01.JPG,AFNE01.JPG,AFNE01.JPG,AFNE01.JPG,AFNE01.JPG,AFNE01.JPG,,,,,,,,,3,6,36,1,,,,,,,,,,,,,,,AMSA06.jpg,AMNE15.jpg,AMSA14.jpg,AMNE09.jpg,AMNE15.jpg,MN,1,num_6,16,num_6,0.950120886788,,,2017_Dec_11_1224,59.9942272403,MAFE4ImagesEEG,001,202427,
AFNE01.JPG,AFNE01.JPG,AFNE01.JPG,AFNE01.JPG,AFNE01.JPG,AFNE01.JPG,,,,,,,,,3,7,37,0,,,,,,,,,,,,,,,AMNE04.jpg,AMNE11.jpg,AMSA15.jpg,AMSA14.jpg,AMNE11.jpg,MN,1,num_6,32,num_8,1.4834521031,,,2017_Dec_11_1224,59.9942272403,MAFE4ImagesEEG,001,202427,
AFNE01.JPG,AFNE01.JPG,AFNE01.JPG,AFNE01.JPG,AFNE01.JPG,AFNE01.JPG,,,,,,,,,3,8,38,6,,,,,,,,,,,,,,,AMNE14.jpg,AMNE02.jpg,AMSA12.jpg,AMSA05.jpg,AMNE14.jpg,MN,1,num_8,32,num_2,1.98344729189,,,2017_Dec_11_1224,59.9942272403,MAFE4ImagesEEG,001,202427,
AFNE01.JPG,AFNE01.JPG,AFNE01.JPG,AFNE01.JPG,AFNE01.JPG,AFNE01.JPG,,,,,,,,,3,9,39,4,,,,,,,,,,,,,,,AMSA15.jpg,AMSA11.jpg,AMNE03.jpg,AMNE20.jpg,AMSA11.jpg,MS,2,num_6,32,num_2,0.800170504954,,,2017_Dec_11_1224,59.9942272403,MAFE4ImagesEEG,001,202427,
AFNE01.JPG,AFNE01.JPG,AFNE01.JPG,AFNE01.JPG,AFNE01.JPG,AFNE01.JPG,,,,,,,,,4,0,40,6,,,,,,,,,,,,,,,AMSA03.jpg,AMNE09.jpg,AMSA14.jpg,AMNE19.jpg,AMSA03.jpg,MS,2,num_8,32,num_2,0.833477986744,,,2017_Dec_11_1224,59.9942272403,MAFE4ImagesEEG,001,202427,
AFNE01.JPG,AFNE01.JPG,AFNE01.JPG,AFNE01.JPG,AFNE01.JPG,AFNE01.JPG,,,,,,,,,4,1,41,2,,,,,,,,,,,,,,,AMSA13.jpg,AMNE16.jpg,AMNE05.jpg,AMSA02.jpg,AMSA02.jpg,MS,2,num_4,16,num_4,0.600154660409,,,2017_Dec_11_1224,59.9942272403,MAFE4ImagesEEG,001,202427,
AFNE01.JPG,AFNE01.JPG,AFNE01.JPG,AFNE01.JPG,AFNE01.JPG,AFNE01.JPG,,,,,,,,,4,2,42,9,,,,,,,,,,,,,,,AMNE06.jpg,AMNE15.jpg,AMSA12.jpg,AMSA07.jpg,AMSA12.jpg,MS,2,num_2,32,num_6,1.050100744,,,2017_Dec_11_1224,59.9942272403,MAFE4ImagesEEG,001,202427,
AFNE01.JPG,AFNE01.JPG,AFNE01.JPG,AFNE01.JPG,AFNE01.JPG,AFNE01.JPG,,,,,,,,,4,3,43,5,,,,,,,,,,,,,,,AMSA05.jpg,AMSA16.jpg,AMNE20.jpg,AMNE07.jpg,AMNE07.jpg,MN,1,num_4,32,num_2,1.65010177065,,,2017_Dec_11_1224,59.9942272403,MAFE4ImagesEEG,001,202427,
AFNE01.JPG,AFNE01.JPG,AFNE01.JPG,AFNE01.JPG,AFNE01.JPG,AFNE01.JPG,,,,,,,,,4,4,44,1,,,,,,,,,,,,,,,AMSA16.jpg,AMNE16.jpg,AMNE01.jpg,AMSA04.jpg,AMNE01.jpg,MN,1,num_2,16,num_2,0.800127846655,,,2017_Dec_11_1224,59.9942272403,MAFE4ImagesEEG,001,202427,
AFNE01.JPG,AFNE01.JPG,AFNE01.JPG,AFNE01.JPG,AFNE01.JPG,AFNE01.JPG,,,,,,,,,4,5,45,3,,,,,,,,,,,,,,,AMNE19.jpg,AMNE04.jpg,AMSA04.jpg,AMSA08.jpg,AMNE04.jpg,MN,1,num_6,32,num_2,2.39985881047,,,2017_Dec_11_1224,59.9942272403,MAFE4ImagesEEG,001,202427,
AFNE01.JPG,AFNE01.JPG,AFNE01.JPG,AFNE01.JPG,AFNE01.JPG,AFNE01.JPG,,,,,,,,,4,6,46,7,,,,,,,,,,,,,,,AMNE15.jpg,AMSA05.jpg,AMNE16.jpg,AMSA09.jpg,AMNE16.jpg,MN,1,num_2,32,num_8,0.766760386759,,,2017_Dec_11_1224,59.9942272403,MAFE4ImagesEEG,001,202427,
AFNE01.JPG,AFNE01.JPG,AFNE01.JPG,AFNE01.JPG,AFNE01.JPG,AFNE01.JPG,,,,,,,,,4,7,47,4,,,,,,,,,,,,,,,AMSA15.jpg,AMNE04.jpg,AMSA05.jpg,AMNE18.jpg,AMNE18.jpg,MN,1,num_4,16,num_4,1.28342278744,,,2017_Dec_11_1224,59.9942272403,MAFE4ImagesEEG,001,202427,
AFNE01.JPG,AFNE01.JPG,AFNE01.JPG,AFNE01.JPG,AFNE01.JPG,AFNE01.JPG,,,,,,,,,4,8,48,8,,,,,,,,,,,,,,,AMSA19.jpg,AMNE06.jpg,AMSA16.jpg,AMNE14.jpg,AMSA16.jpg,MS,2,num_2,16,num_2,0.949979119701,,,2017_Dec_11_1224,59.9942272403,MAFE4ImagesEEG,001,202427,
AFNE01.JPG,AFNE01.JPG,AFNE01.JPG,AFNE01.JPG,AFNE01.JPG,AFNE01.JPG,,,,,,,,,4,9,49,0,,,,,,,,,,,,,,,AMSA05.jpg,AMSA08.jpg,AMNE12.jpg,AMNE09.jpg,AMNE12.jpg,MN,1,num_2,16,num_2,2.93326828745,,,2017_Dec_11_1224,59.9942272403,MAFE4ImagesEEG,001,202427,
AFNE01.JPG,AFNE01.JPG,AFNE01.JPG,AFNE01.JPG,AFNE01.JPG,AFNE01.JPG,,,,,,,,,5,0,50,4,,,,,,,,,,,,,,,AMNE14.jpg,AMSA09.jpg,AMSA10.jpg,AMNE06.jpg,AMNE14.jpg,MN,1,num_8,16,num_8,1.30009096162,,,2017_Dec_11_1224,59.9942272403,MAFE4ImagesEEG,001,202427,
AFNE01.JPG,AFNE01.JPG,AFNE01.JPG,AFNE01.JPG,AFNE01.JPG,AFNE01.JPG,,,,,,,,,5,1,51,7,,,,,,,,,,,,,,,AMSA02.jpg,AMNE18.jpg,AMSA08.jpg,AMNE13.jpg,AMNE18.jpg,MN,1,num_6,32,num_2,1.06700979359,,,2017_Dec_11_1224,59.9942272403,MAFE4ImagesEEG,001,202427,
AFNE01.JPG,AFNE01.JPG,AFNE01.JPG,AFNE01.JPG,AFNE01.JPG,AFNE01.JPG,,,,,,,,,5,2,52,3,,,,,,,,,,,,,,,AMSA03.jpg,AMNE11.jpg,AMSA16.jpg,AMNE15.jpg,AMSA16.jpg,MS,2,num_2,32,num_8,1.23328868649,,,2017_Dec_11_1224,59.9942272403,MAFE4ImagesEEG,001,202427,
AFNE01.JPG,AFNE01.JPG,AFNE01.JPG,AFNE01.JPG,AFNE01.JPG,AFNE01.JPG,,,,,,,,,5,3,53,6,,,,,,,,,,,,,,,AMNE05.jpg,AMSA15.jpg,AMSA03.jpg,AMNE16.jpg,AMSA03.jpg,MS,2,num_2,16,num_2,1.08342298004,,,2017_Dec_11_1224,59.9942272403,MAFE4ImagesEEG,001,202427,
AFNE01.JPG,AFNE01.JPG,AFNE01.JPG,AFNE01.JPG,AFNE01.JPG,AFNE01.JPG,,,,,,,,,5,4,54,0,,,,,,,,,,,,,,,AMSA16.jpg,AMNE11.jpg,AMNE20.jpg,AMSA08.jpg,AMSA16.jpg,MS,2,num_8,32,num_4,1.13344963337,,,2017_Dec_11_1224,59.9942272403,MAFE4ImagesEEG,001,202427,
AFNE01.JPG,AFNE01.JPG,AFNE01.JPG,AFNE01.JPG,AFNE01.JPG,AFNE01.JPG,,,,,,,,,5,5,55,9,,,,,,,,,,,,,,,AMNE01.jpg,AMSA17.jpg,AMSA15.jpg,AMNE18.jpg,AMSA17.jpg,MS,2,num_6,32,num_8,1.61669678404,,,2017_Dec_11_1224,59.9942272403,MAFE4ImagesEEG,001,202427,
AFNE01.JPG,AFNE01.JPG,AFNE01.JPG,AFNE01.JPG,AFNE01.JPG,AFNE01.JPG,,,,,,,,,5,6,56,5,,,,,,,,,,,,,,,AMSA15.jpg,AMNE13.jpg,AMNE11.jpg,AMSA10.jpg,AMNE11.jpg,MN,1,num_2,16,num_2,0.916761445114,,,2017_Dec_11_1224,59.9942272403,MAFE4ImagesEEG,001,202427,
AFNE01.JPG,AFNE01.JPG,AFNE01.JPG,AFNE01.JPG,AFNE01.JPG,AFNE01.JPG,,,,,,,,,5,7,57,1,,,,,,,,,,,,,,,AMSA15.jpg,AMSA06.jpg,AMNE04.jpg,AMNE17.jpg,AMNE17.jpg,MN,1,num_4,16,num_4,1.10011071898,,,2017_Dec_11_1224,59.9942272403,MAFE4ImagesEEG,001,202427,
AFNE01.JPG,AFNE01.JPG,AFNE01.JPG,AFNE01.JPG,AFNE01.JPG,AFNE01.JPG,,,,,,,,,5,8,58,2,,,,,,,,,,,,,,,AMNE13.jpg,AMSA18.jpg,AMNE19.jpg,AMSA15.jpg,AMSA15.jpg,MS,2,num_4,16,num_4,2.46662997408,,,2017_Dec_11_1224,59.9942272403,MAFE4ImagesEEG,001,202427,
AFNE01.JPG,AFNE01.JPG,AFNE01.JPG,AFNE01.JPG,AFNE01.JPG,AFNE01.JPG,,,,,,,,,5,9,59,8,,,,,,,,,,,,,,,AMSA16.jpg,AMSA09.jpg,AMNE02.jpg,AMNE04.jpg,AMSA16.jpg,MS,2,num_8,16,num_8,0.766811384121,,,2017_Dec_11_1224,59.9942272403,MAFE4ImagesEEG,001,202427,
,,,,,,,,,,,,,,,,,,,,,,,,,,,,,,,,,,,,,,,,,,,space,16.5491587331,2017_Dec_11_1224,59.9942272403,MAFE4ImagesEEG,001,202427,
AFNE01.JPG,AFNE01.JPG,AFNE01.JPG,AFNE01.JPG,AFNE01.JPG,AFNE01.JPG,,,,,,,,,,,,,0,0,0,9,,,,,,,,,,,AFNE07.jpg,AFSA02.jpg,AFNE13.jpg,AFSA15.jpg,AFSA02.jpg,FS,4,num_6,16,num_6,0.900144909974,,,2017_Dec_11_1224,59.9942272403,MAFE4ImagesEEG,001,202427,
AFNE01.JPG,AFNE01.JPG,AFNE01.JPG,AFNE01.JPG,AFNE01.JPG,AFNE01.JPG,,,,,,,,,,,,,0,1,1,3,,,,,,,,,,,AFSA05.jpg,AFNE13.jpg,AFSA06.jpg,AFNE03.jpg,AFSA06.jpg,FS,4,num_2,32,num_8,1.66672760714,,,2017_Dec_11_1224,59.9942272403,MAFE4ImagesEEG,001,202427,
AFNE01.JPG,AFNE01.JPG,AFNE01.JPG,AFNE01.JPG,AFNE01.JPG,AFNE01.JPG,,,,,,,,,,,,,0,2,2,6,,,,,,,,,,,AFSA17.jpg,AFNE14.jpg,AFNE13.jpg,AFSA09.jpg,AFSA17.jpg,FS,4,num_8,32,num_4,0.800120469648,,,2017_Dec_11_1224,59.9942272403,MAFE4ImagesEEG,001,202427,
AFNE01.JPG,AFNE01.JPG,AFNE01.JPG,AFNE01.JPG,AFNE01.JPG,AFNE01.JPG,,,,,,,,,,,,,0,3,3,7,,,,,,,,,,,AFNE07.jpg,AFSA11.jpg,AFNE03.jpg,AFSA14.jpg,AFSA11.jpg,FS,4,num_6,16,num_6,0.550157835707,,,2017_Dec_11_1224,59.9942272403,MAFE4ImagesEEG,001,202427,
AFNE01.JPG,AFNE01.JPG,AFNE01.JPG,AFNE01.JPG,AFNE01.JPG,AFNE01.JPG,,,,,,,,,,,,,0,4,4,0,,,,,,,,,,,AFNE14.jpg,AFNE01.jpg,AFSA10.jpg,AFSA05.jpg,AFSA05.jpg,FS,4,num_4,32,num_2,1.43345239153,,,2017_Dec_11_1224,59.9942272403,MAFE4ImagesEEG,001,202427,
AFNE01.JPG,AFNE01.JPG,AFNE01.JPG,AFNE01.JPG,AFNE01.JPG,AFNE01.JPG,,,,,,,,,,,,,0,5,5,2,,,,,,,,,,,AFNE05.jpg,AFSA06.jpg,AFSA20.jpg,AFNE12.jpg,AFNE05.jpg,FN,3,num_8,32,num_4,1.04980277759,,,2017_Dec_11_1224,59.9942272403,MAFE4ImagesEEG,001,202427,
AFNE01.JPG,AFNE01.JPG,AFNE01.JPG,AFNE01.JPG,AFNE01.JPG,AFNE01.JPG,,,,,,,,,,,,,0,6,6,8,,,,,,,,,,,AFSA14.jpg,AFNE12.jpg,AFNE14.jpg,AFSA03.jpg,AFSA03.jpg,FS,4,num_4,16,num_4,2.6333197339,,,2017_Dec_11_1224,59.9942272403,MAFE4ImagesEEG,001,202427,
AFNE01.JPG,AFNE01.JPG,AFNE01.JPG,AFNE01.JPG,AFNE01.JPG,AFNE01.JPG,,,,,,,,,,,,,0,7,7,4,,,,,,,,,,,AFNE11.jpg,AFSA07.jpg,AFSA14.jpg,AFNE06.jpg,AFNE11.jpg,FN,3,num_8,32,num_2,0.883317328291,,,2017_Dec_11_1224,59.9942272403,MAFE4ImagesEEG,001,202427,
AFNE01.JPG,AFNE01.JPG,AFNE01.JPG,AFNE01.JPG,AFNE01.JPG,AFNE01.JPG,,,,,,,,,,,,,0,8,8,1,,,,,,,,,,,AFNE01.jpg,AFNE03.jpg,AFSA08.jpg,AFSA07.jpg,AFNE03.jpg,FN,3,num_6,32,num_2,3.283310208,,,2017_Dec_11_1224,59.9942272403,MAFE4ImagesEEG,001,202427,
AFNE01.JPG,AFNE01.JPG,AFNE01.JPG,AFNE01.JPG,AFNE01.JPG,AFNE01.JPG,,,,,,,,,,,,,0,9,9,5,,,,,,,,,,,AFNE06.jpg,AFSA10.jpg,AFSA15.jpg,AFNE15.jpg,AFNE06.jpg,FN,3,num_8,32,num_2,1.90006248001,,,2017_Dec_11_1224,59.9942272403,MAFE4ImagesEEG,001,202427,
AFNE01.JPG,AFNE01.JPG,AFNE01.JPG,AFNE01.JPG,AFNE01.JPG,AFNE01.JPG,,,,,,,,,,,,,1,0,10,2,,,,,,,,,,,AFSA17.jpg,AFNE03.jpg,AFNE17.jpg,AFSA20.jpg,AFNE17.jpg,FN,3,num_2,32,num_4,2.3499755275,,,2017_Dec_11_1224,59.9942272403,MAFE4ImagesEEG,001,202427,
AFNE01.JPG,AFNE01.JPG,AFNE01.JPG,AFNE01.JPG,AFNE01.JPG,AFNE01.JPG,,,,,,,,,,,,,1,1,11,4,,,,,,,,,,,AFSA03.jpg,AFNE06.jpg,AFSA16.jpg,AFNE02.jpg,AFSA16.jpg,FS,4,num_2,16,num_2,1.23347439431,,,2017_Dec_11_1224,59.9942272403,MAFE4ImagesEEG,001,202427,
AFNE01.JPG,AFNE01.JPG,AFNE01.JPG,AFNE01.JPG,AFNE01.JPG,AFNE01.JPG,,,,,,,,,,,,,1,2,12,0,,,,,,,,,,,AFSA18.jpg,AFNE13.jpg,AFNE02.jpg,AFSA08.jpg,AFSA18.jpg,FS,4,num_8,32,num_4,3.88318999507,,,2017_Dec_11_1224,59.9942272403,MAFE4ImagesEEG,001,202427,
AFNE01.JPG,AFNE01.JPG,AFNE01.JPG,AFNE01.JPG,AFNE01.JPG,AFNE01.JPG,,,,,,,,,,,,,1,3,13,8,,,,,,,,,,,AFSA01.jpg,AFSA07.jpg,AFNE07.jpg,AFNE13.jpg,AFNE07.jpg,FN,3,num_2,32,num_6,2.81663148152,,,2017_Dec_11_1224,59.9942272403,MAFE4ImagesEEG,001,202427,
AFNE01.JPG,AFNE01.JPG,AFNE01.JPG,AFNE01.JPG,AFNE01.JPG,AFNE01.JPG,,,,,,,,,,,,,1,4,14,1,,,,,,,,,,,AFNE07.jpg,AFSA09.jpg,AFSA05.jpg,AFNE10.jpg,AFSA05.jpg,FS,4,num_2,16,num_2,0.650109468261,,,2017_Dec_11_1224,59.9942272403,MAFE4ImagesEEG,001,202427,
AFNE01.JPG,AFNE01.JPG,AFNE01.JPG,AFNE01.JPG,AFNE01.JPG,AFNE01.JPG,,,,,,,,,,,,,1,5,15,6,,,,,,,,,,,AFNE20.jpg,AFSA04.jpg,AFSA19.jpg,AFNE13.jpg,AFSA04.jpg,FS,4,num_6,32,num_4,1.51673681219,,,2017_Dec_11_1224,59.9942272403,MAFE4ImagesEEG,001,202427,
AFNE01.JPG,AFNE01.JPG,AFNE01.JPG,AFNE01.JPG,AFNE01.JPG,AFNE01.JPG,,,,,,,,,,,,,1,6,16,7,,,,,,,,,,,AFSA17.jpg,AFNE02.jpg,AFNE10.jpg,AFSA12.jpg,AFSA17.jpg,FS,4,num_8,32,num_6,1.06675512646,,,2017_Dec_11_1224,59.9942272403,MAFE4ImagesEEG,001,202427,
AFNE01.JPG,AFNE01.JPG,AFNE01.JPG,AFNE01.JPG,AFNE01.JPG,AFNE01.JPG,,,,,,,,,,,,,1,7,17,9,,,,,,,,,,,AFSA04.jpg,AFSA09.jpg,AFNE09.jpg,AFNE12.jpg,AFNE12.jpg,FN,3,num_4,16,num_4,0.666651271051,,,2017_Dec_11_1224,59.9942272403,MAFE4ImagesEEG,001,202427,
AFNE01.JPG,AFNE01.JPG,AFNE01.JPG,AFNE01.JPG,AFNE01.JPG,AFNE01.JPG,,,,,,,,,,,,,1,8,18,3,,,,,,,,,,,AFSA04.jpg,AFNE12.jpg,AFSA16.jpg,AFNE06.jpg,AFNE06.jpg,FN,3,num_4,32,num_8,1.48339340766,,,2017_Dec_11_1224,59.9942272403,MAFE4ImagesEEG,001,202427,
AFNE01.JPG,AFNE01.JPG,AFNE01.JPG,AFNE01.JPG,AFNE01.JPG,AFNE01.JPG,,,,,,,,,,,,,1,9,19,5,,,,,,,,,,,AFSA17.jpg,AFNE11.jpg,AFSA05.jpg,AFNE03.jpg,AFNE03.jpg,FN,3,num_4,32,num_2,1.55011613946,,,2017_Dec_11_1224,59.9942272403,MAFE4ImagesEEG,001,202427,
AFNE01.JPG,AFNE01.JPG,AFNE01.JPG,AFNE01.JPG,AFNE01.JPG,AFNE01.JPG,,,,,,,,,,,,,2,0,20,3,,,,,,,,,,,AFSA13.jpg,AFNE10.jpg,AFNE15.jpg,AFSA10.jpg,AFNE10.jpg,FN,3,num_6,16,num_6,1.06674005184,,,2017_Dec_11_1224,59.9942272403,MAFE4ImagesEEG,001,202427,
AFNE01.JPG,AFNE01.JPG,AFNE01.JPG,AFNE01.JPG,AFNE01.JPG,AFNE01.JPG,,,,,,,,,,,,,2,1,21,5,,,,,,,,,,,AFNE14.jpg,AFSA16.jpg,AFNE01.jpg,AFSA13.jpg,AFSA13.jpg,FS,4,num_4,16,num_4,1.15017489926,,,2017_Dec_11_1224,59.9942272403,MAFE4ImagesEEG,001,202427,
AFNE01.JPG,AFNE01.JPG,AFNE01.JPG,AFNE01.JPG,AFNE01.JPG,AFNE01.JPG,,,,,,,,,,,,,2,2,22,4,,,,,,,,,,,AFNE03.jpg,AFSA11.jpg,AFSA01.jpg,AFNE19.jpg,AFSA01.jpg,FS,4,num_2,32,num_6,1.03347202111,,,2017_Dec_11_1224,59.9942272403,MAFE4ImagesEEG,001,202427,
AFNE01.JPG,AFNE01.JPG,AFNE01.JPG,AFNE01.JPG,AFNE01.JPG,AFNE01.JPG,,,,,,,,,,,,,2,3,23,6,,,,,,,,,,,AFSA10.jpg,AFSA13.jpg,AFNE11.jpg,AFNE13.jpg,AFSA10.jpg,FS,4,num_8,32,num_4,1.86672228295,,,2017_Dec_11_1224,59.9942272403,MAFE4ImagesEEG,001,202427,
AFNE01.JPG,AFNE01.JPG,AFNE01.JPG,AFNE01.JPG,AFNE01.JPG,AFNE01.JPG,,,,,,,,,,,,,2,4,24,9,,,,,,,,,,,AFSA04.jpg,AFNE02.jpg,AFNE01.jpg,AFSA10.jpg,AFNE02.jpg,FN,3,num_6,16,num_6,1.9666351059,,,2017_Dec_11_1224,59.9942272403,MAFE4ImagesEEG,001,202427,
AFNE01.JPG,AFNE01.JPG,AFNE01.JPG,AFNE01.JPG,AFNE01.JPG,AFNE01.JPG,,,,,,,,,,,,,2,5,25,2,,,,,,,,,,,AFNE06.jpg,AFSA09.jpg,AFSA06.jpg,AFNE11.jpg,AFSA09.jpg,FS,4,num_6,32,num_4,0.716800126247,,,2017_Dec_11_1224,59.9942272403,MAFE4ImagesEEG,001,202427,
AFNE01.JPG,AFNE01.JPG,AFNE01.JPG,AFNE01.JPG,AFNE01.JPG,AFNE01.JPG,,,,,,,,,,,,,2,6,26,8,,,,,,,,,,,AFSA20.jpg,AFNE06.jpg,AFSA03.jpg,AFNE03.jpg,AFSA20.jpg,FS,4,num_8,32,num_4,2.21670358372,,,2017_Dec_11_1224,59.9942272403,MAFE4ImagesEEG,001,202427,
AFNE01.JPG,AFNE01.JPG,AFNE01.JPG,AFNE01.JPG,AFNE01.JPG,AFNE01.JPG,,,,,,,,,,,,,2,7,27,1,,,,,,,,,,,AFNE07.jpg,AFNE04.jpg,AFSA09.jpg,AFSA04.jpg,AFSA09.jpg,FS,4,num_2,16,num_2,0.750409744214,,,2017_Dec_11_1224,59.9942272403,MAFE4ImagesEEG,001,202427,
AFNE01.JPG,AFNE01.JPG,AFNE01.JPG,AFNE01.JPG,AFNE01.JPG,AFNE01.JPG,,,,,,,,,,,,,2,8,28,0,,,,,,,,,,,AFSA03.jpg,AFSA06.jpg,AFNE14.jpg,AFNE17.jpg,AFSA03.jpg,FS,4,num_8,32,num_4,1.78336409223,,,2017_Dec_11_1224,59.9942272403,MAFE4ImagesEEG,001,202427,
AFNE01.JPG,AFNE01.JPG,AFNE01.JPG,AFNE01.JPG,AFNE01.JPG,AFNE01.JPG,,,,,,,,,,,,,2,9,29,7,,,,,,,,,,,AFNE05.jpg,AFNE17.jpg,AFSA19.jpg,AFSA04.jpg,AFSA04.jpg,FS,4,num_4,16,num_4,0.600136057707,,,2017_Dec_11_1224,59.9942272403,MAFE4ImagesEEG,001,202427,
AFNE01.JPG,AFNE01.JPG,AFNE01.JPG,AFNE01.JPG,AFNE01.JPG,AFNE01.JPG,,,,,,,,,,,,,3,0,30,1,,,,,,,,,,,AFNE10.jpg,AFNE06.jpg,AFSA16.jpg,AFSA07.jpg,AFNE10.jpg,FN,3,num_8,32,num_4,1.16670323093,,,2017_Dec_11_1224,59.9942272403,MAFE4ImagesEEG,001,202427,
AFNE01.JPG,AFNE01.JPG,AFNE01.JPG,AFNE01.JPG,AFNE01.JPG,AFNE01.JPG,,,,,,,,,,,,,3,1,31,9,,,,,,,,,,,AFSA17.jpg,AFSA11.jpg,AFNE07.jpg,AFNE19.jpg,AFSA17.jpg,FS,4,num_8,32,num_6,1.61667721905,,,2017_Dec_11_1224,59.9942272403,MAFE4ImagesEEG,001,202427,
AFNE01.JPG,AFNE01.JPG,AFNE01.JPG,AFNE01.JPG,AFNE01.JPG,AFNE01.JPG,,,,,,,,,,,,,3,2,32,0,,,,,,,,,,,AFNE13.jpg,AFNE12.jpg,AFSA10.jpg,AFSA18.jpg,AFSA10.jpg,FS,4,num_2,16,num_2,1.66675134166,,,2017_Dec_11_1224,59.9942272403,MAFE4ImagesEEG,001,202427,
AFNE01.JPG,AFNE01.JPG,AFNE01.JPG,AFNE01.JPG,AFNE01.JPG,AFNE01.JPG,,,,,,,,,,,,,3,3,33,3,,,,,,,,,,,AFNE16.jpg,AFNE17.jpg,AFSA10.jpg,AFSA11.jpg,AFNE17.jpg,FN,3,num_6,16,num_6,1.06678206846,,,2017_Dec_11_1224,59.9942272403,MAFE4ImagesEEG,001,202427,
AFNE01.JPG,AFNE01.JPG,AFNE01.JPG,AFNE01.JPG,AFNE01.JPG,AFNE01.JPG,,,,,,,,,,,,,3,4,34,8,,,,,,,,,,,AFNE17.jpg,AFNE04.jpg,AFSA20.jpg,AFSA05.jpg,AFSA05.jpg,FS,4,num_4,16,num_4,1.60008762614,,,2017_Dec_11_1224,59.9942272403,MAFE4ImagesEEG,001,202427,
AFNE01.JPG,AFNE01.JPG,AFNE01.JPG,AFNE01.JPG,AFNE01.JPG,AFNE01.JPG,,,,,,,,,,,,,3,5,35,4,,,,,,,,,,,AFNE10.jpg,AFSA07.jpg,AFSA19.jpg,AFNE08.jpg,AFSA07.jpg,FS,4,num_6,32,num_4,1.5664167467,,,2017_Dec_11_1224,59.9942272403,MAFE4ImagesEEG,001,202427,
AFNE01.JPG,AFNE01.JPG,AFNE01.JPG,AFNE01.JPG,AFNE01.JPG,AFNE01.JPG,,,,,,,,,,,,,3,6,36,6,,,,,,,,,,,AFNE11.jpg,AFNE18.jpg,AFSA16.jpg,AFSA17.jpg,AFSA16.jpg,FS,4,num_2,32,num_4,1.51674066135,,,2017_Dec_11_1224,59.9942272403,MAFE4ImagesEEG,001,202427,
AFNE01.JPG,AFNE01.JPG,AFNE01.JPG,AFNE01.JPG,AFNE01.JPG,AFNE01.JPG,,,,,,,,,,,,,3,7,37,7,,,,,,,,,,,AFNE17.jpg,AFSA03.jpg,AFSA14.jpg,AFNE03.jpg,AFSA03.jpg,FS,4,num_6,16,num_6,0.666786623187,,,2017_Dec_11_1224,59.9942272403,MAFE4ImagesEEG,001,202427,
AFNE01.JPG,AFNE01.JPG,AFNE01.JPG,AFNE01.JPG,AFNE01.JPG,AFNE01.JPG,,,,,,,,,,,,,3,8,38,5,,,,,,,,,,,AFSA05.jpg,AFNE10.jpg,AFNE20.jpg,AFSA12.jpg,AFNE20.jpg,FN,3,num_2,32,num_6,0.916981792776,,,2017_Dec_11_1224,59.9942272403,MAFE4ImagesEEG,001,202427,
AFNE01.JPG,AFNE01.JPG,AFNE01.JPG,AFNE01.JPG,AFNE01.JPG,AFNE01.JPG,,,,,,,,,,,,,3,9,39,2,,,,,,,,,,,AFSA13.jpg,AFSA17.jpg,AFNE08.jpg,AFNE03.jpg,AFSA13.jpg,FS,4,num_8,16,num_8,0.55015655281,,,2017_Dec_11_1224,59.9942272403,MAFE4ImagesEEG,001,202427,
AFNE01.JPG,AFNE01.JPG,AFNE01.JPG,AFNE01.JPG,AFNE01.JPG,AFNE01.JPG,,,,,,,,,,,,,4,0,40,3,,,,,,,,,,,AFNE06.jpg,AFSA16.jpg,AFNE19.jpg,AFSA01.jpg,AFNE19.jpg,FN,3,num_2,16,num_2,1.18342015729,,,2017_Dec_11_1224,59.9942272403,MAFE4ImagesEEG,001,202427,
AFNE01.JPG,AFNE01.JPG,AFNE01.JPG,AFNE01.JPG,AFNE01.JPG,AFNE01.JPG,,,,,,,,,,,,,4,1,41,0,,,,,,,,,,,AFSA05.jpg,AFNE11.jpg,AFNE18.jpg,AFSA03.jpg,AFNE18.jpg,FN,3,num_2,16,num_2,0.916629300453,,,2017_Dec_11_1224,59.9942272403,MAFE4ImagesEEG,001,202427,
AFNE01.JPG,AFNE01.JPG,AFNE01.JPG,AFNE01.JPG,AFNE01.JPG,AFNE01.JPG,,,,,,,,,,,,,4,2,42,5,,,,,,,,,,,AFNE08.jpg,AFNE18.jpg,AFSA01.jpg,AFSA08.jpg,AFSA08.jpg,FS,4,num_4,32,num_2,1.20012265071,,,2017_Dec_11_1224,59.9942272403,MAFE4ImagesEEG,001,202427,
AFNE01.JPG,AFNE01.JPG,AFNE01.JPG,AFNE01.JPG,AFNE01.JPG,AFNE01.JPG,,,,,,,,,,,,,4,3,43,9,,,,,,,,,,,AFNE11.jpg,AFSA05.jpg,AFSA02.jpg,AFNE03.jpg,AFNE11.jpg,FN,3,num_8,32,num_4,2.53331646253,,,2017_Dec_11_1224,59.9942272403,MAFE4ImagesEEG,001,202427,
AFNE01.JPG,AFNE01.JPG,AFNE01.JPG,AFNE01.JPG,AFNE01.JPG,AFNE01.JPG,,,,,,,,,,,,,4,4,44,7,,,,,,,,,,,AFSA04.jpg,AFNE12.jpg,AFSA16.jpg,AFNE08.jpg,AFNE08.jpg,FN,3,num_4,32,num_2,1.13345925556,,,2017_Dec_11_1224,59.9942272403,MAFE4ImagesEEG,001,202427,
AFNE01.JPG,AFNE01.JPG,AFNE01.JPG,AFNE01.JPG,AFNE01.JPG,AFNE01.JPG,,,,,,,,,,,,,4,5,45,1,,,,,,,,,,,AFNE05.jpg,AFSA16.jpg,AFSA11.jpg,AFNE11.jpg,AFNE05.jpg,FN,3,num_8,32,num_4,1.51674451004,,,2017_Dec_11_1224,59.9942272403,MAFE4ImagesEEG,001,202427,
AFNE01.JPG,AFNE01.JPG,AFNE01.JPG,AFNE01.JPG,AFNE01.JPG,AFNE01.JPG,,,,,,,,,,,,,4,6,46,8,,,,,,,,,,,AFNE17.jpg,AFSA06.jpg,AFNE03.jpg,AFSA09.jpg,AFSA09.jpg,FS,4,num_4,32,num_2,1.85003999597,,,2017_Dec_11_1224,59.9942272403,MAFE4ImagesEEG,001,202427,
AFNE01.JPG,AFNE01.JPG,AFNE01.JPG,AFNE01.JPG,AFNE01.JPG,AFNE01.JPG,,,,,,,,,,,,,4,7,47,2,,,,,,,,,,,AFSA06.jpg,AFSA09.jpg,AFNE17.jpg,AFNE02.jpg,AFNE17.jpg,FN,3,num_2,32,num_6,0.800148694543,,,2017_Dec_11_1224,59.9942272403,MAFE4ImagesEEG,001,202427,
AFNE01.JPG,AFNE01.JPG,AFNE01.JPG,AFNE01.JPG,AFNE01.JPG,AFNE01.JPG,,,,,,,,,,,,,4,8,48,4,,,,,,,,,,,AFSA14.jpg,AFNE04.jpg,AFSA08.jpg,AFNE09.jpg,AFSA08.jpg,FS,4,num_2,16,num_2,0.616829890758,,,2017_Dec_11_1224,59.9942272403,MAFE4ImagesEEG,001,202427,
AFNE01.JPG,AFNE01.JPG,AFNE01.JPG,AFNE01.JPG,AFNE01.JPG,AFNE01.JPG,,,,,,,,,,,,,4,9,49,6,,,,,,,,,,,AFNE04.jpg,AFSA05.jpg,AFSA18.jpg,AFNE05.jpg,AFNE05.jpg,FN,3,num_4,32,num_2,1.76668308838,,,2017_Dec_11_1224,59.9942272403,MAFE4ImagesEEG,001,202427,
AFNE01.JPG,AFNE01.JPG,AFNE01.JPG,AFNE01.JPG,AFNE01.JPG,AFNE01.JPG,,,,,,,,,,,,,5,0,50,9,,,,,,,,,,,AFNE14.jpg,AFSA01.jpg,AFSA20.jpg,AFNE06.jpg,AFSA01.jpg,FS,4,num_6,16,num_6,0.983434141614,,,2017_Dec_11_1224,59.9942272403,MAFE4ImagesEEG,001,202427,
AFNE01.JPG,AFNE01.JPG,AFNE01.JPG,AFNE01.JPG,AFNE01.JPG,AFNE01.JPG,,,,,,,,,,,,,5,1,51,1,,,,,,,,,,,AFNE20.jpg,AFSA07.jpg,AFNE17.jpg,AFSA19.jpg,AFSA07.jpg,FS,4,num_6,16,num_6,2.20001969347,,,2017_Dec_11_1224,59.9942272403,MAFE4ImagesEEG,001,202427,
AFNE01.JPG,AFNE01.JPG,AFNE01.JPG,AFNE01.JPG,AFNE01.JPG,AFNE01.JPG,,,,,,,,,,,,,5,2,52,7,,,,,,,,,,,AFNE10.jpg,AFSA05.jpg,AFNE13.jpg,AFSA04.jpg,AFSA05.jpg,FS,4,num_6,32,num_4,0.700113669969,,,2017_Dec_11_1224,59.9942272403,MAFE4ImagesEEG,001,202427,
AFNE01.JPG,AFNE01.JPG,AFNE01.JPG,AFNE01.JPG,AFNE01.JPG,AFNE01.JPG,,,,,,,,,,,,,5,3,53,6,,,,,,,,,,,AFNE02.jpg,AFNE17.jpg,AFSA12.jpg,AFSA16.jpg,AFSA12.jpg,FS,4,num_2,32,num_8,1.45007822826,,,2017_Dec_11_1224,59.9942272403,MAFE4ImagesEEG,001,202427,
AFNE01.JPG,AFNE01.JPG,AFNE01.JPG,AFNE01.JPG,AFNE01.JPG,AFNE01.JPG,,,,,,,,,,,,,5,4,54,8,,,,,,,,,,,AFSA19.jpg,AFNE03.jpg,AFSA20.jpg,AFNE15.jpg,AFSA20.jpg,FS,4,num_2,32,num_6,0.93346971157,,,2017_Dec_11_1224,59.9942272403,MAFE4ImagesEEG,001,202427,
AFNE01.JPG,AFNE01.JPG,AFNE01.JPG,AFNE01.JPG,AFNE01.JPG,AFNE01.JPG,,,,,,,,,,,,,5,5,55,2,,,,,,,,,,,AFNE16.jpg,AFSA09.jpg,AFNE07.jpg,AFSA03.jpg,AFSA03.jpg,FS,4,num_4,16,num_4,0.683462494984,,,2017_Dec_11_1224,59.9942272403,MAFE4ImagesEEG,001,202427,
AFNE01.JPG,AFNE01.JPG,AFNE01.JPG,AFNE01.JPG,AFNE01.JPG,AFNE01.JPG,,,,,,,,,,,,,5,6,56,0,,,,,,,,,,,AFNE20.jpg,AFSA04.jpg,AFSA06.jpg,AFNE02.jpg,AFSA04.jpg,FS,4,num_6,32,num_4,1.76630237093,,,2017_Dec_11_1224,59.9942272403,MAFE4ImagesEEG,001,202427,
AFNE01.JPG,AFNE01.JPG,AFNE01.JPG,AFNE01.JPG,AFNE01.JPG,AFNE01.JPG,,,,,,,,,,,,,5,7,57,5,,,,,,,,,,,AFNE03.jpg,AFSA15.jpg,AFSA13.jpg,AFNE12.jpg,AFNE12.jpg,FN,3,num_4,16,num_4,1.13342942693,,,2017_Dec_11_1224,59.9942272403,MAFE4ImagesEEG,001,202427,
AFNE01.JPG,AFNE01.JPG,AFNE01.JPG,AFNE01.JPG,AFNE01.JPG,AFNE01.JPG,,,,,,,,,,,,,5,8,58,4,,,,,,,,,,,AFNE04.jpg,AFSA09.jpg,AFNE11.jpg,AFSA03.jpg,AFNE11.jpg,FN,3,num_2,16,num_2,1.50025883666,,,2017_Dec_11_1224,59.9942272403,MAFE4ImagesEEG,001,202427,
AFNE01.JPG,AFNE01.JPG,AFNE01.JPG,AFNE01.JPG,AFNE01.JPG,AFNE01.JPG,,,,,,,,,,,,,5,9,59,3,,,,,,,,,,,AFNE10.jpg,AFSA16.jpg,AFNE13.jpg,AFSA05.jpg,AFSA16.jpg,FS,4,num_6,16,num_6,0.900165437255,,,2017_Dec_11_1224,59.9942272403,MAFE4ImagesEEG,001,202427,
,,,,,,,,,,,,,,,,,,,,,,,,,,,,,,,,,,,,,,,,,,,space,4.64977365453,2017_Dec_11_1224,59.9942272403,MAFE4ImagesEEG,001,202427,
AFNE01.JPG,AFNE01.JPG,AFNE01.JPG,AFNE01.JPG,AFNE01.JPG,AFNE01.JPG,,,,,,,,,,,,,,,,,0,0,0,7,,,,,,,AMNE16.jpg,AMSA05.jpg,AMSA08.jpg,AMNE12.jpg,AMNE16.jpg,MN,1,num_8,32,num_4,0.850094521651,,,2017_Dec_11_1224,59.9942272403,MAFE4ImagesEEG,001,202427,
AFNE01.JPG,AFNE01.JPG,AFNE01.JPG,AFNE01.JPG,AFNE01.JPG,AFNE01.JPG,,,,,,,,,,,,,,,,,0,1,1,6,,,,,,,AMNE01.jpg,AMNE14.jpg,AMSA05.jpg,AMSA08.jpg,AMNE14.jpg,MN,1,num_6,16,num_6,1.08345858194,,,2017_Dec_11_1224,59.9942272403,MAFE4ImagesEEG,001,202427,
AFNE01.JPG,AFNE01.JPG,AFNE01.JPG,AFNE01.JPG,AFNE01.JPG,AFNE01.JPG,,,,,,,,,,,,,,,,,0,2,2,4,,,,,,,AMSA20.jpg,AMNE17.jpg,AMNE14.jpg,AMSA01.jpg,AMSA20.jpg,MS,2,num_8,32,num_6,1.01673649158,,,2017_Dec_11_1224,59.9942272403,MAFE4ImagesEEG,001,202427,
AFNE01.JPG,AFNE01.JPG,AFNE01.JPG,AFNE01.JPG,AFNE01.JPG,AFNE01.JPG,,,,,,,,,,,,,,,,,0,3,3,0,,,,,,,AMSA17.jpg,AMNE11.jpg,AMSA05.jpg,AMNE06.jpg,AMNE11.jpg,MN,1,num_6,16,num_6,1.5832706287,,,2017_Dec_11_1224,59.9942272403,MAFE4ImagesEEG,001,202427,
AFNE01.JPG,AFNE01.JPG,AFNE01.JPG,AFNE01.JPG,AFNE01.JPG,AFNE01.JPG,,,,,,,,,,,,,,,,,0,4,4,1,,,,,,,AMSA02.jpg,AMSA10.jpg,AMNE01.jpg,AMNE03.jpg,AMNE01.jpg,MN,1,num_2,16,num_2,2.21664552996,,,2017_Dec_11_1224,59.9942272403,MAFE4ImagesEEG,001,202427,
AFNE01.JPG,AFNE01.JPG,AFNE01.JPG,AFNE01.JPG,AFNE01.JPG,AFNE01.JPG,,,,,,,,,,,,,,,,,0,5,5,5,,,,,,,AMNE10.jpg,AMNE14.jpg,AMSA05.jpg,AMSA08.jpg,AMNE14.jpg,MN,1,num_6,16,num_6,0.900085573085,,,2017_Dec_11_1224,59.9942272403,MAFE4ImagesEEG,001,202427,
AFNE01.JPG,AFNE01.JPG,AFNE01.JPG,AFNE01.JPG,AFNE01.JPG,AFNE01.JPG,,,,,,,,,,,,,,,,,0,6,6,9,,,,,,,AMSA18.jpg,AMSA01.jpg,AMNE15.jpg,AMNE05.jpg,AMSA01.jpg,MS,2,num_6,32,num_8,0.833492420148,,,2017_Dec_11_1224,59.9942272403,MAFE4ImagesEEG,001,202427,
AFNE01.JPG,AFNE01.JPG,AFNE01.JPG,AFNE01.JPG,AFNE01.JPG,AFNE01.JPG,,,,,,,,,,,,,,,,,0,7,7,3,,,,,,,AMNE19.jpg,AMSA13.jpg,AMSA06.jpg,AMNE16.jpg,AMSA13.jpg,MS,2,num_6,32,num_4,1.31675207964,,,2017_Dec_11_1224,59.9942272403,MAFE4ImagesEEG,001,202427,
AFNE01.JPG,AFNE01.JPG,AFNE01.JPG,AFNE01.JPG,AFNE01.JPG,AFNE01.JPG,,,,,,,,,,,,,,,,,0,8,8,2,,,,,,,AMNE06.jpg,AMNE04.jpg,AMSA12.jpg,AMSA20.jpg,AMNE04.jpg,MN,1,num_6,16,num_6,1.18340315809,,,2017_Dec_11_1224,59.9942272403,MAFE4ImagesEEG,001,202427,
AFNE01.JPG,AFNE01.JPG,AFNE01.JPG,AFNE01.JPG,AFNE01.JPG,AFNE01.JPG,,,,,,,,,,,,,,,,,0,9,9,8,,,,,,,AMSA06.jpg,AMSA18.jpg,AMNE05.jpg,AMNE20.jpg,AMNE05.jpg,MN,1,num_2,16,num_2,1.83334969101,,,2017_Dec_11_1224,59.9942272403,MAFE4ImagesEEG,001,202427,
AFNE01.JPG,AFNE01.JPG,AFNE01.JPG,AFNE01.JPG,AFNE01.JPG,AFNE01.JPG,,,,,,,,,,,,,,,,,1,0,10,6,,,,,,,AMSA11.jpg,AMSA16.jpg,AMNE07.jpg,AMNE15.jpg,AMNE07.jpg,MN,1,num_2,32,num_4,0.783450050279,,,2017_Dec_11_1224,59.9942272403,MAFE4ImagesEEG,001,202427,
AFNE01.JPG,AFNE01.JPG,AFNE01.JPG,AFNE01.JPG,AFNE01.JPG,AFNE01.JPG,,,,,,,,,,,,,,,,,1,1,11,2,,,,,,,AMNE01.jpg,AMSA20.jpg,AMNE11.jpg,AMSA11.jpg,AMNE01.jpg,MN,1,num_8,32,num_2,4.09977362235,,,2017_Dec_11_1224,59.9942272403,MAFE4ImagesEEG,001,202427,
AFNE01.JPG,AFNE01.JPG,AFNE01.JPG,AFNE01.JPG,AFNE01.JPG,AFNE01.JPG,,,,,,,,,,,,,,,,,1,2,12,3,,,,,,,AMSA07.jpg,AMNE08.jpg,AMSA02.jpg,AMNE09.jpg,AMNE08.jpg,MN,1,num_6,32,num_2,1.60002411949,,,2017_Dec_11_1224,59.9942272403,MAFE4ImagesEEG,001,202427,
AFNE01.JPG,AFNE01.JPG,AFNE01.JPG,AFNE01.JPG,AFNE01.JPG,AFNE01.JPG,,,,,,,,,,,,,,,,,1,3,13,5,,,,,,,AMSA11.jpg,AMNE08.jpg,AMNE17.jpg,AMSA18.jpg,AMSA11.jpg,MS,2,num_8,32,num_6,2.43351782253,,,2017_Dec_11_1224,59.9942272403,MAFE4ImagesEEG,001,202427,
AFNE01.JPG,AFNE01.JPG,AFNE01.JPG,AFNE01.JPG,AFNE01.JPG,AFNE01.JPG,,,,,,,,,,,,,,,,,1,4,14,7,,,,,,,AMNE06.jpg,AMSA18.jpg,AMNE10.jpg,AMSA03.jpg,AMNE10.jpg,MN,1,num_2,32,num_8,1.41673129564,,,2017_Dec_11_1224,59.9942272403,MAFE4ImagesEEG,001,202427,
AFNE01.JPG,AFNE01.JPG,AFNE01.JPG,AFNE01.JPG,AFNE01.JPG,AFNE01.JPG,,,,,,,,,,,,,,,,,1,5,15,1,,,,,,,AMNE17.jpg,AMSA08.jpg,AMNE05.jpg,AMSA06.jpg,AMSA08.jpg,MS,2,num_6,32,num_2,1.716409466,,,2017_Dec_11_1224,59.9942272403,MAFE4ImagesEEG,001,202427,
AFNE01.JPG,AFNE01.JPG,AFNE01.JPG,AFNE01.JPG,AFNE01.JPG,AFNE01.JPG,,,,,,,,,,,,,,,,,1,6,16,0,,,,,,,AMSA04.jpg,AMNE19.jpg,AMSA19.jpg,AMNE05.jpg,AMSA19.jpg,MS,2,num_2,16,num_2,0.900056706741,,,2017_Dec_11_1224,59.9942272403,MAFE4ImagesEEG,001,202427,
AFNE01.JPG,AFNE01.JPG,AFNE01.JPG,AFNE01.JPG,AFNE01.JPG,AFNE01.JPG,,,,,,,,,,,,,,,,,1,7,17,4,,,,,,,AMNE13.jpg,AMNE09.jpg,AMSA09.jpg,AMSA13.jpg,AMSA09.jpg,MS,2,num_2,32,num_8,1.13353302563,,,2017_Dec_11_1224,59.9942272403,MAFE4ImagesEEG,001,202427,
AFNE01.JPG,AFNE01.JPG,AFNE01.JPG,AFNE01.JPG,AFNE01.JPG,AFNE01.JPG,,,,,,,,,,,,,,,,,1,8,18,9,,,,,,,AMNE05.jpg,AMSA15.jpg,AMSA02.jpg,AMNE17.jpg,AMNE17.jpg,MN,1,num_4,16,num_4,1.08345633699,,,2017_Dec_11_1224,59.9942272403,MAFE4ImagesEEG,001,202427,
AFNE01.JPG,AFNE01.JPG,AFNE01.JPG,AFNE01.JPG,AFNE01.JPG,AFNE01.JPG,,,,,,,,,,,,,,,,,1,9,19,8,,,,,,,AMNE12.jpg,AMSA08.jpg,AMNE17.jpg,AMSA19.jpg,AMSA19.jpg,MS,2,num_4,32,num_2,1.15007226262,,,2017_Dec_11_1224,59.9942272403,MAFE4ImagesEEG,001,202427,
AFNE01.JPG,AFNE01.JPG,AFNE01.JPG,AFNE01.JPG,AFNE01.JPG,AFNE01.JPG,,,,,,,,,,,,,,,,,2,0,20,5,,,,,,,AMNE03.jpg,AMNE17.jpg,AMSA17.jpg,AMSA09.jpg,AMNE17.jpg,MN,1,num_6,16,num_6,0.966777193593,,,2017_Dec_11_1224,59.9942272403,MAFE4ImagesEEG,001,202427,
AFNE01.JPG,AFNE01.JPG,AFNE01.JPG,AFNE01.JPG,AFNE01.JPG,AFNE01.JPG,,,,,,,,,,,,,,,,,2,1,21,3,,,,,,,AMSA04.jpg,AMNE01.jpg,AMSA19.jpg,AMNE10.jpg,AMNE01.jpg,MN,1,num_6,16,num_6,0.750126852188,,,2017_Dec_11_1224,59.9942272403,MAFE4ImagesEEG,001,202427,
AFNE01.JPG,AFNE01.JPG,AFNE01.JPG,AFNE01.JPG,AFNE01.JPG,AFNE01.JPG,,,,,,,,,,,,,,,,,2,2,22,8,,,,,,,AMSA15.jpg,AMNE09.jpg,AMNE20.jpg,AMSA13.jpg,AMNE09.jpg,MN,1,num_6,16,num_6,0.933378621703,,,2017_Dec_11_1224,59.9942272403,MAFE4ImagesEEG,001,202427,
AFNE01.JPG,AFNE01.JPG,AFNE01.JPG,AFNE01.JPG,AFNE01.JPG,AFNE01.JPG,,,,,,,,,,,,,,,,,2,3,23,1,,,,,,,AMNE13.jpg,AMNE20.jpg,AMSA01.jpg,AMSA10.jpg,AMSA01.jpg,MS,2,num_2,16,num_2,0.633451878559,,,2017_Dec_11_1224,59.9942272403,MAFE4ImagesEEG,001,202427,
AFNE01.JPG,AFNE01.JPG,AFNE01.JPG,AFNE01.JPG,AFNE01.JPG,AFNE01.JPG,,,,,,,,,,,,,,,,,2,4,24,0,,,,,,,AMSA08.jpg,AMNE13.jpg,AMSA09.jpg,AMNE04.jpg,AMSA09.jpg,MS,2,num_2,32,num_6,0.883470321074,,,2017_Dec_11_1224,59.9942272403,MAFE4ImagesEEG,001,202427,
AFNE01.JPG,AFNE01.JPG,AFNE01.JPG,AFNE01.JPG,AFNE01.JPG,AFNE01.JPG,,,,,,,,,,,,,,,,,2,5,25,2,,,,,,,AMNE09.jpg,AMSA05.jpg,AMSA02.jpg,AMNE02.jpg,AMNE02.jpg,MN,1,num_4,32,num_2,0.750160529744,,,2017_Dec_11_1224,59.9942272403,MAFE4ImagesEEG,001,202427,
AFNE01.JPG,AFNE01.JPG,AFNE01.JPG,AFNE01.JPG,AFNE01.JPG,AFNE01.JPG,,,,,,,,,,,,,,,,,2,6,26,6,,,,,,,AMNE13.jpg,AMSA02.jpg,AMSA13.jpg,AMNE04.jpg,AMSA13.jpg,MS,2,num_2,16,num_2,0.733151089167,,,2017_Dec_11_1224,59.9942272403,MAFE4ImagesEEG,001,202427,
AFNE01.JPG,AFNE01.JPG,AFNE01.JPG,AFNE01.JPG,AFNE01.JPG,AFNE01.JPG,,,,,,,,,,,,,,,,,2,7,27,9,,,,,,,AMNE05.jpg,AMSA16.jpg,AMNE20.jpg,AMSA02.jpg,AMNE05.jpg,MN,1,num_8,16,num_8,1.73339068145,,,2017_Dec_11_1224,59.9942272403,MAFE4ImagesEEG,001,202427,
AFNE01.JPG,AFNE01.JPG,AFNE01.JPG,AFNE01.JPG,AFNE01.JPG,AFNE01.JPG,,,,,,,,,,,,,,,,,2,8,28,7,,,,,,,AMSA06.jpg,AMNE14.jpg,AMSA10.jpg,AMNE06.jpg,AMSA10.jpg,MS,2,num_2,16,num_2,1.38338147639,,,2017_Dec_11_1224,59.9942272403,MAFE4ImagesEEG,001,202427,
AFNE01.JPG,AFNE01.JPG,AFNE01.JPG,AFNE01.JPG,AFNE01.JPG,AFNE01.JPG,,,,,,,,,,,,,,,,,2,9,29,4,,,,,,,AMSA01.jpg,AMNE13.jpg,AMSA13.jpg,AMNE20.jpg,AMNE20.jpg,MN,1,num_4,16,num_4,1.20034428127,,,2017_Dec_11_1224,59.9942272403,MAFE4ImagesEEG,001,202427,
AFNE01.JPG,AFNE01.JPG,AFNE01.JPG,AFNE01.JPG,AFNE01.JPG,AFNE01.JPG,,,,,,,,,,,,,,,,,3,0,30,5,,,,,,,AMSA13.jpg,AMNE04.jpg,AMSA16.jpg,AMNE12.jpg,AMSA16.jpg,MS,2,num_2,32,num_6,0.916765293805,,,2017_Dec_11_1224,59.9942272403,MAFE4ImagesEEG,001,202427,
AFNE01.JPG,AFNE01.JPG,AFNE01.JPG,AFNE01.JPG,AFNE01.JPG,AFNE01.JPG,,,,,,,,,,,,,,,,,3,1,31,0,,,,,,,AMSA15.jpg,AMSA14.jpg,AMNE09.jpg,AMNE10.jpg,AMSA15.jpg,MS,2,num_8,16,num_8,1.55006417981,,,2017_Dec_11_1224,59.9942272403,MAFE4ImagesEEG,001,202427,
AFNE01.JPG,AFNE01.JPG,AFNE01.JPG,AFNE01.JPG,AFNE01.JPG,AFNE01.JPG,,,,,,,,,,,,,,,,,3,2,32,4,,,,,,,AMNE01.jpg,AMSA14.jpg,AMSA07.jpg,AMNE07.jpg,AMNE07.jpg,MN,1,num_4,16,num_4,1.40011796774,,,2017_Dec_11_1224,59.9942272403,MAFE4ImagesEEG,001,202427,
AFNE01.JPG,AFNE01.JPG,AFNE01.JPG,AFNE01.JPG,AFNE01.JPG,AFNE01.JPG,,,,,,,,,,,,,,,,,3,3,33,9,,,,,,,AMSA14.jpg,AMNE10.jpg,AMSA11.jpg,AMNE08.jpg,AMSA14.jpg,MS,2,num_8,32,num_4,2.31667349837,,,2017_Dec_11_1224,59.9942272403,MAFE4ImagesEEG,001,202427,
AFNE01.JPG,AFNE01.JPG,AFNE01.JPG,AFNE01.JPG,AFNE01.JPG,AFNE01.JPG,,,,,,,,,,,,,,,,,3,4,34,7,,,,,,,AMSA19.jpg,AMNE01.jpg,AMNE10.jpg,AMSA14.jpg,AMSA14.jpg,MS,2,num_4,16,num_4,1.21675233613,,,2017_Dec_11_1224,59.9942272403,MAFE4ImagesEEG,001,202427,
AFNE01.JPG,AFNE01.JPG,AFNE01.JPG,AFNE01.JPG,AFNE01.JPG,AFNE01.JPG,,,,,,,,,,,,,,,,,3,5,35,3,,,,,,,AMSA20.jpg,AMNE03.jpg,AMSA01.jpg,AMNE02.jpg,AMSA01.jpg,MS,2,num_2,16,num_2,0.683479173575,,,2017_Dec_11_1224,59.9942272403,MAFE4ImagesEEG,001,202427,
AFNE01.JPG,AFNE01.JPG,AFNE01.JPG,AFNE01.JPG,AFNE01.JPG,AFNE01.JPG,,,,,,,,,,,,,,,,,3,6,36,6,,,,,,,AMSA08.jpg,AMSA14.jpg,AMNE13.jpg,AMNE10.jpg,AMNE13.jpg,MN,1,num_2,16,num_2,0.833494985942,,,2017_Dec_11_1224,59.9942272403,MAFE4ImagesEEG,001,202427,
AFNE01.JPG,AFNE01.JPG,AFNE01.JPG,AFNE01.JPG,AFNE01.JPG,AFNE01.JPG,,,,,,,,,,,,,,,,,3,7,37,2,,,,,,,AMNE15.jpg,AMNE05.jpg,AMSA01.jpg,AMSA06.jpg,AMNE05.jpg,MN,1,num_6,16,num_6,1.01676215068,,,2017_Dec_11_1224,59.9942272403,MAFE4ImagesEEG,001,202427,
AFNE01.JPG,AFNE01.JPG,AFNE01.JPG,AFNE01.JPG,AFNE01.JPG,AFNE01.JPG,,,,,,,,,,,,,,,,,3,8,38,1,,,,,,,AMNE14.jpg,AMSA20.jpg,AMSA16.jpg,AMNE19.jpg,AMSA20.jpg,MS,2,num_6,16,num_6,0.750152832363,,,2017_Dec_11_1224,59.9942272403,MAFE4ImagesEEG,001,202427,
AFNE01.JPG,AFNE01.JPG,AFNE01.JPG,AFNE01.JPG,AFNE01.JPG,AFNE01.JPG,,,,,,,,,,,,,,,,,3,9,39,8,,,,,,,AMNE02.jpg,AMSA07.jpg,AMNE06.jpg,AMSA16.jpg,AMNE02.jpg,MN,1,num_8,16,num_8,0.800414587371,,,2017_Dec_11_1224,59.9942272403,MAFE4ImagesEEG,001,202427,
AFNE01.JPG,AFNE01.JPG,AFNE01.JPG,AFNE01.JPG,AFNE01.JPG,AFNE01.JPG,,,,,,,,,,,,,,,,,4,0,40,9,,,,,,,AMNE11.jpg,AMSA09.jpg,AMSA19.jpg,AMNE03.jpg,AMNE11.jpg,MN,1,num_8,32,num_6,1.20011623576,,,2017_Dec_11_1224,59.9942272403,MAFE4ImagesEEG,001,202427,
AFNE01.JPG,AFNE01.JPG,AFNE01.JPG,AFNE01.JPG,AFNE01.JPG,AFNE01.JPG,,,,,,,,,,,,,,,,,4,1,41,6,,,,,,,AMSA20.jpg,AMNE03.jpg,AMSA05.jpg,AMNE13.jpg,AMSA20.jpg,MS,2,num_8,16,num_8,1.0834396584,,,2017_Dec_11_1224,59.9942272403,MAFE4ImagesEEG,001,202427,
AFNE01.JPG,AFNE01.JPG,AFNE01.JPG,AFNE01.JPG,AFNE01.JPG,AFNE01.JPG,,,,,,,,,,,,,,,,,4,2,42,0,,,,,,,AMSA14.jpg,AMNE17.jpg,AMNE16.jpg,AMSA13.jpg,AMNE17.jpg,MN,1,num_6,16,num_6,1.18349039927,,,2017_Dec_11_1224,59.9942272403,MAFE4ImagesEEG,001,202427,
AFNE01.JPG,AFNE01.JPG,AFNE01.JPG,AFNE01.JPG,AFNE01.JPG,AFNE01.JPG,,,,,,,,,,,,,,,,,4,3,43,7,,,,,,,AMNE10.jpg,AMSA06.jpg,AMSA12.jpg,AMNE08.jpg,AMSA12.jpg,MS,2,num_2,16,num_2,1.0167486798,,,2017_Dec_11_1224,59.9942272403,MAFE4ImagesEEG,001,202427,
AFNE01.JPG,AFNE01.JPG,AFNE01.JPG,AFNE01.JPG,AFNE01.JPG,AFNE01.JPG,,,,,,,,,,,,,,,,,4,4,44,8,,,,,,,AMNE11.jpg,AMNE05.jpg,AMSA10.jpg,AMSA07.jpg,AMSA10.jpg,MS,2,num_2,16,num_2,0.983404312981,,,2017_Dec_11_1224,59.9942272403,MAFE4ImagesEEG,001,202427,
AFNE01.JPG,AFNE01.JPG,AFNE01.JPG,AFNE01.JPG,AFNE01.JPG,AFNE01.JPG,,,,,,,,,,,,,,,,,4,5,45,1,,,,,,,AMNE07.jpg,AMSA05.jpg,AMNE13.jpg,AMSA09.jpg,AMNE07.jpg,MN,1,num_8,16,num_8,1.01681218599,,,2017_Dec_11_1224,59.9942272403,MAFE4ImagesEEG,001,202427,
AFNE01.JPG,AFNE01.JPG,AFNE01.JPG,AFNE01.JPG,AFNE01.JPG,AFNE01.JPG,,,,,,,,,,,,,,,,,4,6,46,4,,,,,,,AMNE07.jpg,AMNE10.jpg,AMSA05.jpg,AMSA11.jpg,AMNE10.jpg,MN,1,num_6,32,num_4,1.75005725212,,,2017_Dec_11_1224,59.9942272403,MAFE4ImagesEEG,001,202427,
AFNE01.JPG,AFNE01.JPG,AFNE01.JPG,AFNE01.JPG,AFNE01.JPG,AFNE01.JPG,,,,,,,,,,,,,,,,,4,7,47,2,,,,,,,AMNE11.jpg,AMSA13.jpg,AMNE07.jpg,AMSA01.jpg,AMSA13.jpg,MS,2,num_6,16,num_6,1.06689785561,,,2017_Dec_11_1224,59.9942272403,MAFE4ImagesEEG,001,202427,
AFNE01.JPG,AFNE01.JPG,AFNE01.JPG,AFNE01.JPG,AFNE01.JPG,AFNE01.JPG,,,,,,,,,,,,,,,,,4,8,48,5,,,,,,,AMNE10.jpg,AMSA14.jpg,AMSA12.jpg,AMNE09.jpg,AMNE10.jpg,MN,1,num_8,16,num_8,1.01671403972,,,2017_Dec_11_1224,59.9942272403,MAFE4ImagesEEG,001,202427,
AFNE01.JPG,AFNE01.JPG,AFNE01.JPG,AFNE01.JPG,AFNE01.JPG,AFNE01.JPG,,,,,,,,,,,,,,,,,4,9,49,3,,,,,,,AMNE14.jpg,AMSA12.jpg,AMNE19.jpg,AMSA06.jpg,AMNE19.jpg,MN,1,num_2,32,num_4,0.800113413483,,,2017_Dec_11_1224,59.9942272403,MAFE4ImagesEEG,001,202427,
AFNE01.JPG,AFNE01.JPG,AFNE01.JPG,AFNE01.JPG,AFNE01.JPG,AFNE01.JPG,,,,,,,,,,,,,,,,,5,0,50,4,,,,,,,AMSA11.jpg,AMNE17.jpg,AMNE06.jpg,AMSA14.jpg,AMNE06.jpg,MN,1,num_2,16,num_2,0.933451429475,,,2017_Dec_11_1224,59.9942272403,MAFE4ImagesEEG,001,202427,
AFNE01.JPG,AFNE01.JPG,AFNE01.JPG,AFNE01.JPG,AFNE01.JPG,AFNE01.JPG,,,,,,,,,,,,,,,,,5,1,51,6,,,,,,,AMSA12.jpg,AMNE11.jpg,AMNE07.jpg,AMSA17.jpg,AMSA17.jpg,MS,2,num_4,32,num_8,1.48338571005,,,2017_Dec_11_1224,59.9942272403,MAFE4ImagesEEG,001,202427,
AFNE01.JPG,AFNE01.JPG,AFNE01.JPG,AFNE01.JPG,AFNE01.JPG,AFNE01.JPG,,,,,,,,,,,,,,,,,5,2,52,3,,,,,,,AMNE19.jpg,AMSA04.jpg,AMSA18.jpg,AMNE05.jpg,AMSA18.jpg,MS,2,num_2,32,num_8,0.916626734659,,,2017_Dec_11_1224,59.9942272403,MAFE4ImagesEEG,001,202427,
AFNE01.JPG,AFNE01.JPG,AFNE01.JPG,AFNE01.JPG,AFNE01.JPG,AFNE01.JPG,,,,,,,,,,,,,,,,,5,3,53,0,,,,,,,AMSA06.jpg,AMSA08.jpg,AMNE04.jpg,AMNE18.jpg,AMSA08.jpg,MS,2,num_6,32,num_2,0.450138848042,,,2017_Dec_11_1224,59.9942272403,MAFE4ImagesEEG,001,202427,
AFNE01.JPG,AFNE01.JPG,AFNE01.JPG,AFNE01.JPG,AFNE01.JPG,AFNE01.JPG,,,,,,,,,,,,,,,,,5,4,54,1,,,,,,,AMNE12.jpg,AMSA11.jpg,AMNE11.jpg,AMSA19.jpg,AMNE12.jpg,MN,1,num_8,32,num_4,1.95004743733,,,2017_Dec_11_1224,59.9942272403,MAFE4ImagesEEG,001,202427,
AFNE01.JPG,AFNE01.JPG,AFNE01.JPG,AFNE01.JPG,AFNE01.JPG,AFNE01.JPG,,,,,,,,,,,,,,,,,5,5,55,5,,,,,,,AMNE03.jpg,AMNE15.jpg,AMSA09.jpg,AMSA06.jpg,AMSA09.jpg,MS,2,num_2,32,num_4,1.23346990393,,,2017_Dec_11_1224,59.9942272403,MAFE4ImagesEEG,001,202427,
AFNE01.JPG,AFNE01.JPG,AFNE01.JPG,AFNE01.JPG,AFNE01.JPG,AFNE01.JPG,,,,,,,,,,,,,,,,,5,6,56,7,,,,,,,AMSA07.jpg,AMSA09.jpg,AMNE18.jpg,AMNE17.jpg,AMSA07.jpg,MS,2,num_8,32,num_6,1.6666589689,,,2017_Dec_11_1224,59.9942272403,MAFE4ImagesEEG,001,202427,
AFNE01.JPG,AFNE01.JPG,AFNE01.JPG,AFNE01.JPG,AFNE01.JPG,AFNE01.JPG,,,,,,,,,,,,,,,,,5,7,57,9,,,,,,,AMNE14.jpg,AMSA15.jpg,AMSA07.jpg,AMNE18.jpg,AMNE18.jpg,MN,1,num_4,32,num_6,1.23344681086,,,2017_Dec_11_1224,59.9942272403,MAFE4ImagesEEG,001,202427,
AFNE01.JPG,AFNE01.JPG,AFNE01.JPG,AFNE01.JPG,AFNE01.JPG,AFNE01.JPG,,,,,,,,,,,,,,,,,5,8,58,2,,,,,,,AMNE02.jpg,AMSA15.jpg,AMSA02.jpg,AMNE08.jpg,AMSA15.jpg,MS,2,num_6,32,num_4,1.50007922272,,,2017_Dec_11_1224,59.9942272403,MAFE4ImagesEEG,001,202427,
AFNE01.JPG,AFNE01.JPG,AFNE01.JPG,AFNE01.JPG,AFNE01.JPG,AFNE01.JPG,,,,,,,,,,,,,,,,,5,9,59,8,,,,,,,AMNE14.jpg,AMNE16.jpg,AMSA19.jpg,AMSA14.jpg,AMSA14.jpg,MS,2,num_4,16,num_4,0.783480520593,,,2017_Dec_11_1224,59.9942272403,MAFE4ImagesEEG,001,202427,
,,,,,,,,,,,,,,,,,,,,,,,,,,,,,,,,,,,,,,,,,,,space,12.6994253637,2017_Dec_11_1224,59.9942272403,MAFE4ImagesEEG,001,202427,
AFNE01.JPG,AFNE01.JPG,AFNE01.JPG,AFNE01.JPG,AFNE01.JPG,AFNE01.JPG,,,,,,,,,,,,,,,,,,,,,0,0,0,7,,,AFNE06.jpg,AFSA12.jpg,AFSA15.jpg,AFNE11.jpg,AFNE11.jpg,FN,3,num_4,16,num_4,0.550128007075,,,2017_Dec_11_1224,59.9942272403,MAFE4ImagesEEG,001,202427,
AFNE01.JPG,AFNE01.JPG,AFNE01.JPG,AFNE01.JPG,AFNE01.JPG,AFNE01.JPG,,,,,,,,,,,,,,,,,,,,,0,1,1,9,,,AFSA07.jpg,AFNE14.jpg,AFNE13.jpg,AFSA13.jpg,AFSA13.jpg,FS,4,num_4,16,num_4,0.866761092329,,,2017_Dec_11_1224,59.9942272403,MAFE4ImagesEEG,001,202427,
AFNE01.JPG,AFNE01.JPG,AFNE01.JPG,AFNE01.JPG,AFNE01.JPG,AFNE01.JPG,,,,,,,,,,,,,,,,,,,,,0,2,2,0,,,AFSA08.jpg,AFSA18.jpg,AFNE05.jpg,AFNE14.jpg,AFNE05.jpg,FN,3,num_2,16,num_2,1.55012127128,,,2017_Dec_11_1224,59.9942272403,MAFE4ImagesEEG,001,202427,
AFNE01.JPG,AFNE01.JPG,AFNE01.JPG,AFNE01.JPG,AFNE01.JPG,AFNE01.JPG,,,,,,,,,,,,,,,,,,,,,0,3,3,1,,,AFSA02.jpg,AFNE01.jpg,AFSA15.jpg,AFNE03.jpg,AFNE03.jpg,FN,3,num_4,32,num_6,1.06677789893,,,2017_Dec_11_1224,59.9942272403,MAFE4ImagesEEG,001,202427,
AFNE01.JPG,AFNE01.JPG,AFNE01.JPG,AFNE01.JPG,AFNE01.JPG,AFNE01.JPG,,,,,,,,,,,,,,,,,,,,,0,4,4,2,,,AFNE15.jpg,AFSA20.jpg,AFSA08.jpg,AFNE18.jpg,AFNE15.jpg,FN,3,num_8,16,num_8,0.966752817156,,,2017_Dec_11_1224,59.9942272403,MAFE4ImagesEEG,001,202427,
AFNE01.JPG,AFNE01.JPG,AFNE01.JPG,AFNE01.JPG,AFNE01.JPG,AFNE01.JPG,,,,,,,,,,,,,,,,,,,,,0,5,5,6,,,AFNE09.jpg,AFNE20.jpg,AFSA11.jpg,AFSA14.jpg,AFSA14.jpg,FS,4,num_4,16,num_4,1.06675288128,,,2017_Dec_11_1224,59.9942272403,MAFE4ImagesEEG,001,202427,
AFNE01.JPG,AFNE01.JPG,AFNE01.JPG,AFNE01.JPG,AFNE01.JPG,AFNE01.JPG,,,,,,,,,,,,,,,,,,,,,0,6,6,5,,,AFSA18.jpg,AFNE15.jpg,AFSA17.jpg,AFNE11.jpg,AFNE11.jpg,FN,3,num_4,32,num_2,1.09966585389,,,2017_Dec_11_1224,59.9942272403,MAFE4ImagesEEG,001,202427,
AFNE01.JPG,AFNE01.JPG,AFNE01.JPG,AFNE01.JPG,AFNE01.JPG,AFNE01.JPG,,,,,,,,,,,,,,,,,,,,,0,7,7,8,,,AFNE07.jpg,AFSA20.jpg,AFSA18.jpg,AFNE14.jpg,AFSA20.jpg,FS,4,num_6,32,num_2,0.933437316911,,,2017_Dec_11_1224,59.9942272403,MAFE4ImagesEEG,001,202427,
AFNE01.JPG,AFNE01.JPG,AFNE01.JPG,AFNE01.JPG,AFNE01.JPG,AFNE01.JPG,,,,,,,,,,,,,,,,,,,,,0,8,8,4,,,AFSA08.jpg,AFNE13.jpg,AFSA05.jpg,AFNE07.jpg,AFNE13.jpg,FN,3,num_6,32,num_2,1.01675445307,,,2017_Dec_11_1224,59.9942272403,MAFE4ImagesEEG,001,202427,
AFNE01.JPG,AFNE01.JPG,AFNE01.JPG,AFNE01.JPG,AFNE01.JPG,AFNE01.JPG,,,,,,,,,,,,,,,,,,,,,0,9,9,3,,,AFNE08.jpg,AFSA11.jpg,AFSA14.jpg,AFNE14.jpg,AFNE08.jpg,FN,3,num_8,32,num_4,1.00008339225,,,2017_Dec_11_1224,59.9942272403,MAFE4ImagesEEG,001,202427,
AFNE01.JPG,AFNE01.JPG,AFNE01.JPG,AFNE01.JPG,AFNE01.JPG,AFNE01.JPG,,,,,,,,,,,,,,,,,,,,,1,0,10,6,,,AFSA17.jpg,AFNE18.jpg,AFSA01.jpg,AFNE04.jpg,AFNE04.jpg,FN,3,num_4,16,num_4,0.899778625695,,,2017_Dec_11_1224,59.9942272403,MAFE4ImagesEEG,001,202427,
AFNE01.JPG,AFNE01.JPG,AFNE01.JPG,AFNE01.JPG,AFNE01.JPG,AFNE01.JPG,,,,,,,,,,,,,,,,,,,,,1,1,11,1,,,AFNE17.jpg,AFSA06.jpg,AFNE08.jpg,AFSA08.jpg,AFSA06.jpg,FS,4,num_6,16,num_6,0.816824245965,,,2017_Dec_11_1224,59.9942272403,MAFE4ImagesEEG,001,202427,
AFNE01.JPG,AFNE01.JPG,AFNE01.JPG,AFNE01.JPG,AFNE01.JPG,AFNE01.JPG,,,,,,,,,,,,,,,,,,,,,1,2,12,0,,,AFNE09.jpg,AFSA02.jpg,AFNE06.jpg,AFSA01.jpg,AFNE06.jpg,FN,3,num_2,16,num_2,1.16667757183,,,2017_Dec_11_1224,59.9942272403,MAFE4ImagesEEG,001,202427,
AFNE01.JPG,AFNE01.JPG,AFNE01.JPG,AFNE01.JPG,AFNE01.JPG,AFNE01.JPG,,,,,,,,,,,,,,,,,,,,,1,3,13,3,,,AFSA20.jpg,AFNE02.jpg,AFSA03.jpg,AFNE01.jpg,AFNE01.jpg,FN,3,num_4,16,num_4,0.950176053913,,,2017_Dec_11_1224,59.9942272403,MAFE4ImagesEEG,001,202427,
AFNE01.JPG,AFNE01.JPG,AFNE01.JPG,AFNE01.JPG,AFNE01.JPG,AFNE01.JPG,,,,,,,,,,,,,,,,,,,,,1,4,14,9,,,AFSA05.jpg,AFNE05.jpg,AFNE04.jpg,AFSA12.jpg,AFNE04.jpg,FN,3,num_2,16,num_2,0.900129514514,,,2017_Dec_11_1224,59.9942272403,MAFE4ImagesEEG,001,202427,
AFNE01.JPG,AFNE01.JPG,AFNE01.JPG,AFNE01.JPG,AFNE01.JPG,AFNE01.JPG,,,,,,,,,,,,,,,,,,,,,1,5,15,2,,,AFNE06.jpg,AFNE20.jpg,AFSA04.jpg,AFSA03.jpg,AFNE06.jpg,FN,3,num_8,32,num_6,0.916802178835,,,2017_Dec_11_1224,59.9942272403,MAFE4ImagesEEG,001,202427,
AFNE01.JPG,AFNE01.JPG,AFNE01.JPG,AFNE01.JPG,AFNE01.JPG,AFNE01.JPG,,,,,,,,,,,,,,,,,,,,,1,6,16,8,,,AFSA19.jpg,AFNE15.jpg,AFSA20.jpg,AFNE17.jpg,AFSA19.jpg,FS,4,num_8,32,num_4,1.90007274365,,,2017_Dec_11_1224,59.9942272403,MAFE4ImagesEEG,001,202427,
AFNE01.JPG,AFNE01.JPG,AFNE01.JPG,AFNE01.JPG,AFNE01.JPG,AFNE01.JPG,,,,,,,,,,,,,,,,,,,,,1,7,17,4,,,AFSA13.jpg,AFSA15.jpg,AFNE10.jpg,AFNE07.jpg,AFNE07.jpg,FN,3,num_4,32,num_6,2.99974212586,,,2017_Dec_11_1224,59.9942272403,MAFE4ImagesEEG,001,202427,
AFNE01.JPG,AFNE01.JPG,AFNE01.JPG,AFNE01.JPG,AFNE01.JPG,AFNE01.JPG,,,,,,,,,,,,,,,,,,,,,1,8,18,5,,,AFNE17.jpg,AFSA17.jpg,AFSA13.jpg,AFNE07.jpg,AFNE07.jpg,FN,3,num_4,16,num_4,0.816805001581,,,2017_Dec_11_1224,59.9942272403,MAFE4ImagesEEG,001,202427,
AFNE01.JPG,AFNE01.JPG,AFNE01.JPG,AFNE01.JPG,AFNE01.JPG,AFNE01.JPG,,,,,,,,,,,,,,,,,,,,,1,9,19,7,,,AFSA12.jpg,AFNE14.jpg,AFSA14.jpg,AFNE03.jpg,AFSA14.jpg,FS,4,num_2,16,num_2,1.66686199699,,,2017_Dec_11_1224,59.9942272403,MAFE4ImagesEEG,001,202427,
AFNE01.JPG,AFNE01.JPG,AFNE01.JPG,AFNE01.JPG,AFNE01.JPG,AFNE01.JPG,,,,,,,,,,,,,,,,,,,,,2,0,20,1,,,AFNE17.jpg,AFSA18.jpg,AFNE03.jpg,AFSA14.jpg,AFSA14.jpg,FS,4,num_4,32,num_2,1.28349591605,,,2017_Dec_11_1224,59.9942272403,MAFE4ImagesEEG,001,202427,
AFNE01.JPG,AFNE01.JPG,AFNE01.JPG,AFNE01.JPG,AFNE01.JPG,AFNE01.JPG,,,,,,,,,,,,,,,,,,,,,2,1,21,7,,,AFNE04.jpg,AFSA12.jpg,AFSA07.jpg,AFNE08.jpg,AFSA07.jpg,FS,4,num_2,32,num_8,1.40006632893,,,2017_Dec_11_1224,59.9942272403,MAFE4ImagesEEG,001,202427,
AFNE01.JPG,AFNE01.JPG,AFNE01.JPG,AFNE01.JPG,AFNE01.JPG,AFNE01.JPG,,,,,,,,,,,,,,,,,,,,,2,2,22,9,,,AFNE14.jpg,AFSA13.jpg,AFSA10.jpg,AFNE19.jpg,AFSA13.jpg,FS,4,num_6,32,num_2,1.90009262948,,,2017_Dec_11_1224,59.9942272403,MAFE4ImagesEEG,001,202427,
AFNE01.JPG,AFNE01.JPG,AFNE01.JPG,AFNE01.JPG,AFNE01.JPG,AFNE01.JPG,,,,,,,,,,,,,,,,,,,,,2,3,23,4,,,AFSA16.jpg,AFNE02.jpg,AFNE18.jpg,AFSA09.jpg,AFSA09.jpg,FS,4,num_4,32,num_8,0.800115658436,,,2017_Dec_11_1224,59.9942272403,MAFE4ImagesEEG,001,202427,
AFNE01.JPG,AFNE01.JPG,AFNE01.JPG,AFNE01.JPG,AFNE01.JPG,AFNE01.JPG,,,,,,,,,,,,,,,,,,,,,2,4,24,3,,,AFNE07.jpg,AFSA14.jpg,AFNE04.jpg,AFSA08.jpg,AFSA14.jpg,FS,4,num_6,32,num_4,1.10017711227,,,2017_Dec_11_1224,59.9942272403,MAFE4ImagesEEG,001,202427,
AFNE01.JPG,AFNE01.JPG,AFNE01.JPG,AFNE01.JPG,AFNE01.JPG,AFNE01.JPG,,,,,,,,,,,,,,,,,,,,,2,5,25,8,,,AFNE11.jpg,AFSA15.jpg,AFSA06.jpg,AFNE05.jpg,AFNE11.jpg,FN,3,num_8,32,num_2,1.48336261697,,,2017_Dec_11_1224,59.9942272403,MAFE4ImagesEEG,001,202427,
AFNE01.JPG,AFNE01.JPG,AFNE01.JPG,AFNE01.JPG,AFNE01.JPG,AFNE01.JPG,,,,,,,,,,,,,,,,,,,,,2,6,26,0,,,AFSA16.jpg,AFSA18.jpg,AFNE13.jpg,AFNE16.jpg,AFSA18.jpg,FS,4,num_6,16,num_6,1.01669864426,,,2017_Dec_11_1224,59.9942272403,MAFE4ImagesEEG,001,202427,
AFNE01.JPG,AFNE01.JPG,AFNE01.JPG,AFNE01.JPG,AFNE01.JPG,AFNE01.JPG,,,,,,,,,,,,,,,,,,,,,2,7,27,2,,,AFSA16.jpg,AFNE19.jpg,AFNE14.jpg,AFSA13.jpg,AFSA16.jpg,FS,4,num_8,32,num_4,0.899839245481,,,2017_Dec_11_1224,59.9942272403,MAFE4ImagesEEG,001,202427,
AFNE01.JPG,AFNE01.JPG,AFNE01.JPG,AFNE01.JPG,AFNE01.JPG,AFNE01.JPG,,,,,,,,,,,,,,,,,,,,,2,8,28,6,,,AFSA09.jpg,AFSA16.jpg,AFNE09.jpg,AFNE16.jpg,AFNE09.jpg,FN,3,num_2,16,num_2,0.999959266046,,,2017_Dec_11_1224,59.9942272403,MAFE4ImagesEEG,001,202427,
AFNE01.JPG,AFNE01.JPG,AFNE01.JPG,AFNE01.JPG,AFNE01.JPG,AFNE01.JPG,,,,,,,,,,,,,,,,,,,,,2,9,29,5,,,AFNE05.jpg,AFSA03.jpg,AFSA04.jpg,AFNE02.jpg,AFSA03.jpg,FS,4,num_6,16,num_6,1.05011068704,,,2017_Dec_11_1224,59.9942272403,MAFE4ImagesEEG,001,202427,
AFNE01.JPG,AFNE01.JPG,AFNE01.JPG,AFNE01.JPG,AFNE01.JPG,AFNE01.JPG,,,,,,,,,,,,,,,,,,,,,3,0,30,7,,,AFSA08.jpg,AFNE02.jpg,AFSA02.jpg,AFNE14.jpg,AFNE02.jpg,FN,3,num_6,32,num_8,0.733467658982,,,2017_Dec_11_1224,59.9942272403,MAFE4ImagesEEG,001,202427,
AFNE01.JPG,AFNE01.JPG,AFNE01.JPG,AFNE01.JPG,AFNE01.JPG,AFNE01.JPG,,,,,,,,,,,,,,,,,,,,,3,1,31,9,,,AFNE18.jpg,AFSA03.jpg,AFNE11.jpg,AFSA11.jpg,AFSA03.jpg,FS,4,num_6,32,num_8,1.86664658855,,,2017_Dec_11_1224,59.9942272403,MAFE4ImagesEEG,001,202427,
AFNE01.JPG,AFNE01.JPG,AFNE01.JPG,AFNE01.JPG,AFNE01.JPG,AFNE01.JPG,,,,,,,,,,,,,,,,,,,,,3,2,32,1,,,AFSA18.jpg,AFSA05.jpg,AFNE03.jpg,AFNE05.jpg,AFNE03.jpg,FN,3,num_2,16,num_2,2.6666137448,,,2017_Dec_11_1224,59.9942272403,MAFE4ImagesEEG,001,202427,
AFNE01.JPG,AFNE01.JPG,AFNE01.JPG,AFNE01.JPG,AFNE01.JPG,AFNE01.JPG,,,,,,,,,,,,,,,,,,,,,3,3,33,2,,,AFSA10.jpg,AFNE14.jpg,AFNE05.jpg,AFSA05.jpg,AFNE14.jpg,FN,3,num_6,16,num_6,0.866725169355,,,2017_Dec_11_1224,59.9942272403,MAFE4ImagesEEG,001,202427,
AFNE01.JPG,AFNE01.JPG,AFNE01.JPG,AFNE01.JPG,AFNE01.JPG,AFNE01.JPG,,,,,,,,,,,,,,,,,,,,,3,4,34,4,,,AFSA10.jpg,AFNE01.jpg,AFNE19.jpg,AFSA05.jpg,AFSA10.jpg,FS,4,num_8,16,num_8,1.03343738103,,,2017_Dec_11_1224,59.9942272403,MAFE4ImagesEEG,001,202427,
AFNE01.JPG,AFNE01.JPG,AFNE01.JPG,AFNE01.JPG,AFNE01.JPG,AFNE01.JPG,,,,,,,,,,,,,,,,,,,,,3,5,35,5,,,AFNE15.jpg,AFNE13.jpg,AFSA17.jpg,AFSA16.jpg,AFSA16.jpg,FS,4,num_4,32,num_2,0.916765614646,,,2017_Dec_11_1224,59.9942272403,MAFE4ImagesEEG,001,202427,
AFNE01.JPG,AFNE01.JPG,AFNE01.JPG,AFNE01.JPG,AFNE01.JPG,AFNE01.JPG,,,,,,,,,,,,,,,,,,,,,3,6,36,3,,,AFSA04.jpg,AFSA12.jpg,AFNE06.jpg,AFNE11.jpg,AFSA04.jpg,FS,4,num_8,16,num_8,0.733766267076,,,2017_Dec_11_1224,59.9942272403,MAFE4ImagesEEG,001,202427,
AFNE01.JPG,AFNE01.JPG,AFNE01.JPG,AFNE01.JPG,AFNE01.JPG,AFNE01.JPG,,,,,,,,,,,,,,,,,,,,,3,7,37,8,,,AFNE01.jpg,AFSA05.jpg,AFNE12.jpg,AFSA14.jpg,AFSA14.jpg,FS,4,num_4,32,num_6,0.866797015071,,,2017_Dec_11_1224,59.9942272403,MAFE4ImagesEEG,001,202427,
AFNE01.JPG,AFNE01.JPG,AFNE01.JPG,AFNE01.JPG,AFNE01.JPG,AFNE01.JPG,,,,,,,,,,,,,,,,,,,,,3,8,38,6,,,AFSA06.jpg,AFSA16.jpg,AFNE05.jpg,AFNE11.jpg,AFSA16.jpg,FS,4,num_6,32,num_4,2.63330209325,,,2017_Dec_11_1224,59.9942272403,MAFE4ImagesEEG,001,202427,
AFNE01.JPG,AFNE01.JPG,AFNE01.JPG,AFNE01.JPG,AFNE01.JPG,AFNE01.JPG,,,,,,,,,,,,,,,,,,,,,3,9,39,0,,,AFNE20.jpg,AFSA15.jpg,AFSA16.jpg,AFNE10.jpg,AFNE10.jpg,FN,3,num_4,32,num_8,1.41683393228,,,2017_Dec_11_1224,59.9942272403,MAFE4ImagesEEG,001,202427,
