IPosition2,IPosition3,IPosition1,IPosition6,IPosition4,IPosition5,TrialsF1.thisRepN,TrialsF1.thisTrialN,TrialsF1.thisN,TrialsF1.thisIndex,TrialsM1.thisRepN,TrialsM1.thisTrialN,TrialsM1.thisN,TrialsM1.thisIndex,TrialsF2.thisRepN,TrialsF2.thisTrialN,TrialsF2.thisN,TrialsF2.thisIndex,TrialsM2.thisRepN,TrialsM2.thisTrialN,TrialsM2.thisN,TrialsM2.thisIndex,TrialsF3.thisRepN,TrialsF3.thisTrialN,TrialsF3.thisN,TrialsF3.thisIndex,TrialsM3.thisRepN,TrialsM3.thisTrialN,TrialsM3.thisN,TrialsM3.thisIndex,InstrKey_resp.keys,InstrKey_resp.rt,Image0 _Position,Image1 _Position,Image2 _Position,Image3 _Position,Center_image,condition,code,correct_answer,accuracy,Key_Resp.keys,Key_Resp.rt,BreakKey_resp.keys,BreakKey_resp.rt,date,frameRate,expName,session,participant,
,,,,,,,,,,,,,,,,,,,,,,,,,,,,,,space,12.0827070901,,,,,,,,,,,,,,2017_Dec_06_1811,60.0747997517,FEMA4ImagesEEG,001,202451,
AMSA21.JPG,AMNE22.JPG,AMNE21.JPG,AMSA23.JPG,AMSA22.JPG,AMNE23.JPG,0,0,0,1,,,,,,,,,,,,,,,,,,,,,,,AFNE12.jpg,AFSA01.jpg,AFNE15.jpg,AFSA20.jpg,AFNE15.jpg,FN,3,num_2,16,num_2,1.23339773784,,,2017_Dec_06_1811,60.0747997517,FEMA4ImagesEEG,001,202451,
AMNE23.JPG,AMNE24.JPG,AMNE22.JPG,AMSA24.JPG,AMSA22.JPG,AMSA23.JPG,0,1,1,9,,,,,,,,,,,,,,,,,,,,,,,AFNE17.jpg,AFSA13.jpg,AFSA07.jpg,AFNE01.jpg,AFNE17.jpg,FN,3,num_8,16,num_8,1.08346243086,,,2017_Dec_06_1811,60.0747997517,FEMA4ImagesEEG,001,202451,
AFSA21.JPG,AFNE23.JPG,AFNE21.JPG,AFSA25.JPG,AFNE25.JPG,AFSA23.JPG,0,2,2,4,,,,,,,,,,,,,,,,,,,,,,,AFSA08.jpg,AFNE17.jpg,AFNE04.jpg,AFSA10.jpg,AFSA10.jpg,FS,4,num_4,32,num_6,0.750120437471,,,2017_Dec_06_1811,60.0747997517,FEMA4ImagesEEG,001,202451,
AFNE22.JPG,AFSA24.JPG,AFSA22.JPG,AFNE25.JPG,AFNE24.JPG,AFSA25.JPG,0,3,3,6,,,,,,,,,,,,,,,,,,,,,,,AFSA10.jpg,AFNE08.jpg,AFNE07.jpg,AFSA05.jpg,AFNE08.jpg,FN,3,num_6,32,num_8,1.08346499689,,,2017_Dec_06_1811,60.0747997517,FEMA4ImagesEEG,001,202451,
AFSA25.JPG,AFNE24.JPG,AFSA24.JPG,AFNE21.JPG,AFSA21.JPG,AFNE25.JPG,0,4,4,2,,,,,,,,,,,,,,,,,,,,,,,AFNE13.jpg,AFSA11.jpg,AFNE17.jpg,AFSA04.jpg,AFNE13.jpg,FN,3,num_8,32,num_2,1.30007107579,,,2017_Dec_06_1811,60.0747997517,FEMA4ImagesEEG,001,202451,
AFNE23.JPG,AFNE24.JPG,AFNE22.JPG,AFSA24.JPG,AFSA22.JPG,AFSA23.JPG,0,5,5,8,,,,,,,,,,,,,,,,,,,,,,,AFNE16.jpg,AFSA04.jpg,AFSA08.jpg,AFNE09.jpg,AFNE09.jpg,FN,3,num_4,32,num_2,0.833459704649,,,2017_Dec_06_1811,60.0747997517,FEMA4ImagesEEG,001,202451,
AFSA21.JPG,AFNE22.JPG,AFNE21.JPG,AFSA23.JPG,AFSA22.JPG,AFNE23.JPG,0,6,6,0,,,,,,,,,,,,,,,,,,,,,,,AFSA07.jpg,AFNE10.jpg,AFSA03.jpg,AFNE11.jpg,AFSA03.jpg,FS,4,num_2,32,num_8,1.7498853358,,,2017_Dec_06_1811,60.0747997517,FEMA4ImagesEEG,001,202451,
AMSA21.JPG,AMNE23.JPG,AMNE21.JPG,AMSA25.JPG,AMNE25.JPG,AMSA23.JPG,0,7,7,5,,,,,,,,,,,,,,,,,,,,,,,AFNE04.jpg,AFNE14.jpg,AFSA03.jpg,AFSA13.jpg,AFSA03.jpg,FS,4,num_2,16,num_2,0.566521307686,,,2017_Dec_06_1811,60.0747997517,FEMA4ImagesEEG,001,202451,
AMNE22.JPG,AMSA24.JPG,AMSA22.JPG,AMNE25.JPG,AMNE24.JPG,AMSA25.JPG,0,8,8,7,,,,,,,,,,,,,,,,,,,,,,,AFNE18.jpg,AFSA19.jpg,AFNE14.jpg,AFSA14.jpg,AFSA19.jpg,FS,4,num_6,32,num_2,1.06679938873,,,2017_Dec_06_1811,60.0747997517,FEMA4ImagesEEG,001,202451,
AMSA25.JPG,AMNE24.JPG,AMSA24.JPG,AMNE26.JPG,AMSA21.JPG,AMNE25.JPG,0,9,9,3,,,,,,,,,,,,,,,,,,,,,,,AFNE14.jpg,AFSA05.jpg,AFNE06.jpg,AFSA13.jpg,AFNE06.jpg,FN,3,num_2,16,num_2,1.25008515618,,,2017_Dec_06_1811,60.0747997517,FEMA4ImagesEEG,001,202451,
AFNE23.JPG,AFNE24.JPG,AFNE22.JPG,AFSA24.JPG,AFSA22.JPG,AFSA23.JPG,,,,,0,0,0,8,,,,,,,,,,,,,,,,,,,AMNE18.jpg,AMNE03.jpg,AMSA11.jpg,AMSA03.jpg,AMNE18.jpg,MN,1,num_8,16,num_8,0.833649902837,,,2017_Dec_06_1811,60.0747997517,FEMA4ImagesEEG,001,202451,
AFSA21.JPG,AFNE22.JPG,AFNE21.JPG,AFSA23.JPG,AFSA22.JPG,AFNE23.JPG,,,,,0,1,1,0,,,,,,,,,,,,,,,,,,,AMNE17.jpg,AMNE19.jpg,AMSA05.jpg,AMSA19.jpg,AMNE19.jpg,MN,1,num_6,32,num_8,0.73347952636,,,2017_Dec_06_1811,60.0747997517,FEMA4ImagesEEG,001,202451,
AFNE22.JPG,AFSA24.JPG,AFSA22.JPG,AFNE25.JPG,AFNE24.JPG,AFSA25.JPG,,,,,0,2,2,6,,,,,,,,,,,,,,,,,,,AMSA14.jpg,AMNE07.jpg,AMSA03.jpg,AMNE14.jpg,AMNE14.jpg,MN,1,num_4,32,num_8,0.616802307311,,,2017_Dec_06_1811,60.0747997517,FEMA4ImagesEEG,001,202451,
AMSA25.JPG,AMNE24.JPG,AMSA24.JPG,AMNE26.JPG,AMSA21.JPG,AMNE25.JPG,,,,,0,3,3,3,,,,,,,,,,,,,,,,,,,AMSA14.jpg,AMNE11.jpg,AMNE07.jpg,AMSA20.jpg,AMNE11.jpg,MN,1,num_6,16,num_6,1.03349511418,,,2017_Dec_06_1811,60.0747997517,FEMA4ImagesEEG,001,202451,
AMNE23.JPG,AMNE24.JPG,AMNE22.JPG,AMSA24.JPG,AMSA22.JPG,AMSA23.JPG,,,,,0,4,4,9,,,,,,,,,,,,,,,,,,,AMNE06.jpg,AMSA09.jpg,AMSA17.jpg,AMNE03.jpg,AMNE06.jpg,MN,1,num_8,16,num_8,0.950131791877,,,2017_Dec_06_1811,60.0747997517,FEMA4ImagesEEG,001,202451,
AMSA21.JPG,AMNE22.JPG,AMNE21.JPG,AMSA23.JPG,AMSA22.JPG,AMNE23.JPG,,,,,0,5,5,1,,,,,,,,,,,,,,,,,,,AMSA04.jpg,AMSA01.jpg,AMNE02.jpg,AMNE06.jpg,AMNE02.jpg,MN,1,num_2,32,num_8,1.36672196211,,,2017_Dec_06_1811,60.0747997517,FEMA4ImagesEEG,001,202451,
AFSA21.JPG,AFNE23.JPG,AFNE21.JPG,AFSA25.JPG,AFNE25.JPG,AFSA23.JPG,,,,,0,6,6,4,,,,,,,,,,,,,,,,,,,AMNE12.jpg,AMNE05.jpg,AMSA16.jpg,AMSA05.jpg,AMNE05.jpg,MN,1,num_6,32,num_2,0.966785853263,,,2017_Dec_06_1811,60.0747997517,FEMA4ImagesEEG,001,202451,
AMNE22.JPG,AMSA24.JPG,AMSA22.JPG,AMNE25.JPG,AMNE24.JPG,AMSA25.JPG,,,,,0,7,7,7,,,,,,,,,,,,,,,,,,,AMSA07.jpg,AMNE03.jpg,AMNE10.jpg,AMSA20.jpg,AMSA20.jpg,MS,2,num_4,32,num_6,1.15009439341,,,2017_Dec_06_1811,60.0747997517,FEMA4ImagesEEG,001,202451,
AMSA21.JPG,AMNE23.JPG,AMNE21.JPG,AMSA25.JPG,AMNE25.JPG,AMSA23.JPG,,,,,0,8,8,5,,,,,,,,,,,,,,,,,,,AMSA11.jpg,AMNE05.jpg,AMSA01.jpg,AMNE07.jpg,AMSA01.jpg,MS,2,num_2,16,num_2,1.44976582821,,,2017_Dec_06_1811,60.0747997517,FEMA4ImagesEEG,001,202451,
AFSA25.JPG,AFNE24.JPG,AFSA24.JPG,AFNE21.JPG,AFSA21.JPG,AFNE25.JPG,,,,,0,9,9,2,,,,,,,,,,,,,,,,,,,AMSA09.jpg,AMSA08.jpg,AMNE10.jpg,AMNE20.jpg,AMNE20.jpg,MN,1,num_4,16,num_4,0.9834719887,,,2017_Dec_06_1811,60.0747997517,FEMA4ImagesEEG,001,202451,
AMNE22.JPG,AMSA24.JPG,AMSA22.JPG,AMNE25.JPG,AMNE24.JPG,AMSA25.JPG,,,,,,,,,0,0,0,7,,,,,,,,,,,,,,,AFSA12.jpg,AFNE01.jpg,AFNE03.jpg,AFSA13.jpg,AFSA12.jpg,FS,4,num_8,16,num_8,0.783444277011,,,2017_Dec_06_1811,60.0747997517,FEMA4ImagesEEG,001,202451,
AFSA25.JPG,AFNE24.JPG,AFSA24.JPG,AFNE21.JPG,AFSA21.JPG,AFNE25.JPG,,,,,,,,,0,1,1,2,,,,,,,,,,,,,,,AFSA03.jpg,AFSA01.jpg,AFNE12.jpg,AFNE15.jpg,AFNE12.jpg,FN,3,num_2,32,num_6,1.0167586226,,,2017_Dec_06_1811,60.0747997517,FEMA4ImagesEEG,001,202451,
AFNE22.JPG,AFSA24.JPG,AFSA22.JPG,AFNE25.JPG,AFNE24.JPG,AFSA25.JPG,,,,,,,,,0,2,2,6,,,,,,,,,,,,,,,AFNE08.jpg,AFSA09.jpg,AFNE05.jpg,AFSA13.jpg,AFSA13.jpg,FS,4,num_4,16,num_4,1.31676907884,,,2017_Dec_06_1811,60.0747997517,FEMA4ImagesEEG,001,202451,
AMSA21.JPG,AMNE23.JPG,AMNE21.JPG,AMSA25.JPG,AMNE25.JPG,AMSA23.JPG,,,,,,,,,0,3,3,5,,,,,,,,,,,,,,,AFNE04.jpg,AFSA08.jpg,AFSA07.jpg,AFNE05.jpg,AFSA08.jpg,FS,4,num_6,16,num_6,1.38345909514,,,2017_Dec_06_1811,60.0747997517,FEMA4ImagesEEG,001,202451,
AFSA21.JPG,AFNE22.JPG,AFNE21.JPG,AFSA23.JPG,AFSA22.JPG,AFNE23.JPG,,,,,,,,,0,4,4,0,,,,,,,,,,,,,,,AFNE10.jpg,AFNE06.jpg,AFSA10.jpg,AFSA01.jpg,AFNE10.jpg,FN,3,num_8,16,num_8,0.716769656166,,,2017_Dec_06_1811,60.0747997517,FEMA4ImagesEEG,001,202451,
AMSA21.JPG,AMNE22.JPG,AMNE21.JPG,AMSA23.JPG,AMSA22.JPG,AMNE23.JPG,,,,,,,,,0,5,5,1,,,,,,,,,,,,,,,AFNE12.jpg,AFSA13.jpg,AFSA12.jpg,AFNE05.jpg,AFSA13.jpg,FS,4,num_6,16,num_6,0.566790728597,,,2017_Dec_06_1811,60.0747997517,FEMA4ImagesEEG,001,202451,
AFSA21.JPG,AFNE23.JPG,AFNE21.JPG,AFSA25.JPG,AFNE25.JPG,AFSA23.JPG,,,,,,,,,0,6,6,4,,,,,,,,,,,,,,,AFNE11.jpg,AFSA05.jpg,AFSA10.jpg,AFNE20.jpg,AFNE11.jpg,FN,3,num_8,32,num_4,1.10008217348,,,2017_Dec_06_1811,60.0747997517,FEMA4ImagesEEG,001,202451,
AMNE23.JPG,AMNE24.JPG,AMNE22.JPG,AMSA24.JPG,AMSA22.JPG,AMSA23.JPG,,,,,,,,,0,7,7,9,,,,,,,,,,,,,,,AFSA02.jpg,AFSA17.jpg,AFNE08.jpg,AFNE14.jpg,AFNE08.jpg,FN,3,num_2,32,num_4,0.916825272143,,,2017_Dec_06_1811,60.0747997517,FEMA4ImagesEEG,001,202451,
AMSA25.JPG,AMNE24.JPG,AMSA24.JPG,AMNE26.JPG,AMSA21.JPG,AMNE25.JPG,,,,,,,,,0,8,8,3,,,,,,,,,,,,,,,AFSA10.jpg,AFSA20.jpg,AFNE02.jpg,AFNE08.jpg,AFSA10.jpg,FS,4,num_8,16,num_8,0.933400111273,,,2017_Dec_06_1811,60.0747997517,FEMA4ImagesEEG,001,202451,
AFNE23.JPG,AFNE24.JPG,AFNE22.JPG,AFSA24.JPG,AFSA22.JPG,AFSA23.JPG,,,,,,,,,0,9,9,8,,,,,,,,,,,,,,,AFNE15.jpg,AFSA02.jpg,AFNE02.jpg,AFSA06.jpg,AFSA02.jpg,FS,4,num_6,16,num_6,0.866477238247,,,2017_Dec_06_1811,60.0747997517,FEMA4ImagesEEG,001,202451,
AMSA25.JPG,AMNE24.JPG,AMSA24.JPG,AMNE26.JPG,AMSA21.JPG,AMNE25.JPG,,,,,,,,,,,,,0,0,0,3,,,,,,,,,,,AMSA02.jpg,AMNE10.jpg,AMNE09.jpg,AMSA11.jpg,AMSA02.jpg,MS,2,num_8,32,num_4,0.933433788829,,,2017_Dec_06_1811,60.0747997517,FEMA4ImagesEEG,001,202451,
AMSA21.JPG,AMNE22.JPG,AMNE21.JPG,AMSA23.JPG,AMSA22.JPG,AMNE23.JPG,,,,,,,,,,,,,0,1,1,1,,,,,,,,,,,AMSA16.jpg,AMSA14.jpg,AMNE12.jpg,AMNE18.jpg,AMSA16.jpg,MS,2,num_8,32,num_2,1.15008316771,,,2017_Dec_06_1811,60.0747997517,FEMA4ImagesEEG,001,202451,
AMNE23.JPG,AMNE24.JPG,AMNE22.JPG,AMSA24.JPG,AMSA22.JPG,AMSA23.JPG,,,,,,,,,,,,,0,2,2,9,,,,,,,,,,,AMNE06.jpg,AMNE02.jpg,AMSA16.jpg,AMSA10.jpg,AMNE02.jpg,MN,1,num_6,16,num_6,0.550165854162,,,2017_Dec_06_1811,60.0747997517,FEMA4ImagesEEG,001,202451,
AFNE23.JPG,AFNE24.JPG,AFNE22.JPG,AFSA24.JPG,AFSA22.JPG,AFSA23.JPG,,,,,,,,,,,,,0,3,3,8,,,,,,,,,,,AMNE05.jpg,AMSA17.jpg,AMNE19.jpg,AMSA09.jpg,AMNE19.jpg,MN,1,num_2,32,num_8,1.15012005274,,,2017_Dec_06_1811,60.0747997517,FEMA4ImagesEEG,001,202451,
AMSA21.JPG,AMNE23.JPG,AMNE21.JPG,AMSA25.JPG,AMNE25.JPG,AMSA23.JPG,,,,,,,,,,,,,0,4,4,5,,,,,,,,,,,AMSA02.jpg,AMSA08.jpg,AMNE05.jpg,AMNE13.jpg,AMNE13.jpg,MN,1,num_4,32,num_6,1.23345739511,,,2017_Dec_06_1811,60.0747997517,FEMA4ImagesEEG,001,202451,
AFSA25.JPG,AFNE24.JPG,AFSA24.JPG,AFNE21.JPG,AFSA21.JPG,AFNE25.JPG,,,,,,,,,,,,,0,5,5,2,,,,,,,,,,,AMSA08.jpg,AMNE11.jpg,AMNE06.jpg,AMSA12.jpg,AMSA12.jpg,MS,2,num_4,16,num_4,0.716777995229,,,2017_Dec_06_1811,60.0747997517,FEMA4ImagesEEG,001,202451,
AFNE22.JPG,AFSA24.JPG,AFSA22.JPG,AFNE25.JPG,AFNE24.JPG,AFSA25.JPG,,,,,,,,,,,,,0,6,6,6,,,,,,,,,,,AMSA03.jpg,AMSA01.jpg,AMNE14.jpg,AMNE05.jpg,AMSA03.jpg,MS,2,num_8,32,num_6,1.20011623576,,,2017_Dec_06_1811,60.0747997517,FEMA4ImagesEEG,001,202451,
AMNE22.JPG,AMSA24.JPG,AMSA22.JPG,AMNE25.JPG,AMNE24.JPG,AMSA25.JPG,,,,,,,,,,,,,0,7,7,7,,,,,,,,,,,AMSA14.jpg,AMSA19.jpg,AMNE16.jpg,AMNE19.jpg,AMNE16.jpg,MN,1,num_2,32,num_6,0.983454669127,,,2017_Dec_06_1811,60.0747997517,FEMA4ImagesEEG,001,202451,
AFSA21.JPG,AFNE22.JPG,AFNE21.JPG,AFSA23.JPG,AFSA22.JPG,AFNE23.JPG,,,,,,,,,,,,,0,8,8,0,,,,,,,,,,,AMSA07.jpg,AMNE11.jpg,AMSA14.jpg,AMNE04.jpg,AMNE11.jpg,MN,1,num_6,32,num_8,1.416721032,,,2017_Dec_06_1811,60.0747997517,FEMA4ImagesEEG,001,202451,
AFSA21.JPG,AFNE23.JPG,AFNE21.JPG,AFSA25.JPG,AFNE25.JPG,AFSA23.JPG,,,,,,,,,,,,,0,9,9,4,,,,,,,,,,,AMSA07.jpg,AMNE03.jpg,AMSA16.jpg,AMNE06.jpg,AMNE03.jpg,MN,1,num_6,16,num_6,0.800106677925,,,2017_Dec_06_1811,60.0747997517,FEMA4ImagesEEG,001,202451,
AFSA21.JPG,AFNE23.JPG,AFNE21.JPG,AFSA25.JPG,AFNE25.JPG,AFSA23.JPG,,,,,,,,,,,,,,,,,0,0,0,4,,,,,,,AFNE18.jpg,AFNE15.jpg,AFSA03.jpg,AFSA13.jpg,AFNE15.jpg,FN,3,num_6,16,num_6,1.01651325705,,,2017_Dec_06_1811,60.0747997517,FEMA4ImagesEEG,001,202451,
AFNE23.JPG,AFNE24.JPG,AFNE22.JPG,AFSA24.JPG,AFSA22.JPG,AFSA23.JPG,,,,,,,,,,,,,,,,,0,1,1,8,,,,,,,AFSA15.jpg,AFNE17.jpg,AFSA04.jpg,AFNE01.jpg,AFSA15.jpg,FS,4,num_8,16,num_8,0.850139425369,,,2017_Dec_06_1811,60.0747997517,FEMA4ImagesEEG,001,202451,
AFNE22.JPG,AFSA24.JPG,AFSA22.JPG,AFNE25.JPG,AFNE24.JPG,AFSA25.JPG,,,,,,,,,,,,,,,,,0,2,2,6,,,,,,,AFNE15.jpg,AFSA15.jpg,AFSA20.jpg,AFNE20.jpg,AFSA20.jpg,FS,4,num_2,32,num_4,1.01677658409,,,2017_Dec_06_1811,60.0747997517,FEMA4ImagesEEG,001,202451,
AMSA25.JPG,AMNE24.JPG,AMSA24.JPG,AMNE26.JPG,AMSA21.JPG,AMNE25.JPG,,,,,,,,,,,,,,,,,0,3,3,3,,,,,,,AFSA01.jpg,AFSA04.jpg,AFNE06.jpg,AFNE11.jpg,AFSA01.jpg,FS,4,num_8,16,num_8,1.02984478162,,,2017_Dec_06_1811,60.0747997517,FEMA4ImagesEEG,001,202451,
AMNE22.JPG,AMSA24.JPG,AMSA22.JPG,AMNE25.JPG,AMNE24.JPG,AMSA25.JPG,,,,,,,,,,,,,,,,,0,4,4,7,,,,,,,AFSA03.jpg,AFNE03.jpg,AFSA02.jpg,AFNE19.jpg,AFNE19.jpg,FN,3,num_4,16,num_4,0.799981268821,,,2017_Dec_06_1811,60.0747997517,FEMA4ImagesEEG,001,202451,
AMSA21.JPG,AMNE22.JPG,AMNE21.JPG,AMSA23.JPG,AMSA22.JPG,AMNE23.JPG,,,,,,,,,,,,,,,,,0,5,5,1,,,,,,,AFNE02.jpg,AFSA16.jpg,AFSA17.jpg,AFNE04.jpg,AFSA17.jpg,FS,4,num_2,32,num_8,1.23346894188,,,2017_Dec_06_1811,60.0747997517,FEMA4ImagesEEG,001,202451,
AMNE23.JPG,AMNE24.JPG,AMNE22.JPG,AMSA24.JPG,AMSA22.JPG,AMSA23.JPG,,,,,,,,,,,,,,,,,0,6,6,9,,,,,,,AFNE14.jpg,AFNE03.jpg,AFSA09.jpg,AFSA01.jpg,AFSA01.jpg,FS,4,num_4,32,num_6,1.20009282208,,,2017_Dec_06_1811,60.0747997517,FEMA4ImagesEEG,001,202451,
AFSA25.JPG,AFNE24.JPG,AFSA24.JPG,AFNE21.JPG,AFSA21.JPG,AFNE25.JPG,,,,,,,,,,,,,,,,,0,7,7,2,,,,,,,AFSA03.jpg,AFNE07.jpg,AFSA20.jpg,AFNE01.jpg,AFNE01.jpg,FN,3,num_4,16,num_4,1.16674717213,,,2017_Dec_06_1811,60.0747997517,FEMA4ImagesEEG,001,202451,
AMSA21.JPG,AMNE23.JPG,AMNE21.JPG,AMSA25.JPG,AMNE25.JPG,AMSA23.JPG,,,,,,,,,,,,,,,,,0,8,8,5,,,,,,,AFSA10.jpg,AFNE12.jpg,AFSA17.jpg,AFNE16.jpg,AFNE12.jpg,FN,3,num_6,32,num_4,1.13342429511,,,2017_Dec_06_1811,60.0747997517,FEMA4ImagesEEG,001,202451,
AFSA21.JPG,AFNE22.JPG,AFNE21.JPG,AFSA23.JPG,AFSA22.JPG,AFNE23.JPG,,,,,,,,,,,,,,,,,0,9,9,0,,,,,,,AFNE20.jpg,AFNE14.jpg,AFSA07.jpg,AFSA15.jpg,AFSA07.jpg,FS,4,num_2,32,num_8,1.2334144162,,,2017_Dec_06_1811,60.0747997517,FEMA4ImagesEEG,001,202451,
AFNE23.JPG,AFNE24.JPG,AFNE22.JPG,AFSA24.JPG,AFSA22.JPG,AFSA23.JPG,,,,,,,,,,,,,,,,,,,,,0,0,0,8,,,AMNE18.jpg,AMNE12.jpg,AMSA07.jpg,AMSA16.jpg,AMSA07.jpg,MS,2,num_2,32,num_8,0.800130733289,,,2017_Dec_06_1811,60.0747997517,FEMA4ImagesEEG,001,202451,
AFSA25.JPG,AFNE24.JPG,AFSA24.JPG,AFNE21.JPG,AFSA21.JPG,AFNE25.JPG,,,,,,,,,,,,,,,,,,,,,0,1,1,2,,,AMNE15.jpg,AMNE16.jpg,AMSA09.jpg,AMSA17.jpg,AMNE15.jpg,MN,1,num_8,32,num_4,0.999807235785,,,2017_Dec_06_1811,60.0747997517,FEMA4ImagesEEG,001,202451,
AMNE22.JPG,AMSA24.JPG,AMSA22.JPG,AMNE25.JPG,AMNE24.JPG,AMSA25.JPG,,,,,,,,,,,,,,,,,,,,,0,2,2,7,,,AMNE15.jpg,AMSA10.jpg,AMSA13.jpg,AMNE02.jpg,AMSA13.jpg,MS,2,num_2,32,num_8,1.96674704389,,,2017_Dec_06_1811,60.0747997517,FEMA4ImagesEEG,001,202451,
AFSA21.JPG,AFNE23.JPG,AFNE21.JPG,AFSA25.JPG,AFNE25.JPG,AFSA23.JPG,,,,,,,,,,,,,,,,,,,,,0,3,3,4,,,AMSA19.jpg,AMNE19.jpg,AMSA05.jpg,AMNE20.jpg,AMNE20.jpg,MN,1,num_4,16,num_4,0.750118513359,,,2017_Dec_06_1811,60.0747997517,FEMA4ImagesEEG,001,202451,
AFSA21.JPG,AFNE22.JPG,AFNE21.JPG,AFSA23.JPG,AFSA22.JPG,AFNE23.JPG,,,,,,,,,,,,,,,,,,,,,0,4,4,0,,,AMSA02.jpg,AMSA17.jpg,AMNE04.jpg,AMNE08.jpg,AMNE08.jpg,MN,1,num_4,16,num_4,0.617043503094,,,2017_Dec_06_1811,60.0747997517,FEMA4ImagesEEG,001,202451,
AFNE22.JPG,AFSA24.JPG,AFSA22.JPG,AFNE25.JPG,AFNE24.JPG,AFSA25.JPG,,,,,,,,,,,,,,,,,,,,,0,5,5,6,,,AMNE09.jpg,AMSA07.jpg,AMNE15.jpg,AMSA04.jpg,AMSA04.jpg,MS,2,num_4,32,num_6,0.666802660096,,,2017_Dec_06_1811,60.0747997517,FEMA4ImagesEEG,001,202451,
AMNE23.JPG,AMNE24.JPG,AMNE22.JPG,AMSA24.JPG,AMSA22.JPG,AMSA23.JPG,,,,,,,,,,,,,,,,,,,,,0,6,6,9,,,AMSA05.jpg,AMSA13.jpg,AMNE12.jpg,AMNE13.jpg,AMNE12.jpg,MN,1,num_2,32,num_6,1.15028683702,,,2017_Dec_06_1811,60.0747997517,FEMA4ImagesEEG,001,202451,
AMSA21.JPG,AMNE23.JPG,AMNE21.JPG,AMSA25.JPG,AMNE25.JPG,AMSA23.JPG,,,,,,,,,,,,,,,,,,,,,0,7,7,5,,,AMNE14.jpg,AMSA08.jpg,AMNE10.jpg,AMSA10.jpg,AMNE10.jpg,MN,1,num_2,32,num_8,1.25009509921,,,2017_Dec_06_1811,60.0747997517,FEMA4ImagesEEG,001,202451,
AMSA21.JPG,AMNE22.JPG,AMNE21.JPG,AMSA23.JPG,AMSA22.JPG,AMNE23.JPG,,,,,,,,,,,,,,,,,,,,,0,8,8,1,,,AMSA20.jpg,AMNE15.jpg,AMSA18.jpg,AMNE11.jpg,AMSA20.jpg,MS,2,num_8,16,num_8,0.650153088849,,,2017_Dec_06_1811,60.0747997517,FEMA4ImagesEEG,001,202451,
AMSA25.JPG,AMNE24.JPG,AMSA24.JPG,AMNE26.JPG,AMSA21.JPG,AMNE25.JPG,,,,,,,,,,,,,,,,,,,,,0,9,9,3,,,AMNE14.jpg,AMNE16.jpg,AMSA16.jpg,AMSA12.jpg,AMSA16.jpg,MS,2,num_2,32,num_6,0.666779245948,,,2017_Dec_06_1811,60.0747997517,FEMA4ImagesEEG,001,202451,
,,,,,,,,,,,,,,,,,,,,,,,,,,,,,,,,,,,,,,,,,,,space,14.7487358064,2017_Dec_06_1811,60.0747997517,FEMA4ImagesEEG,001,202451,
AFNE01.JPG,AFNE01.JPG,AFNE01.JPG,AFNE01.JPG,AFNE01.JPG,AFNE01.JPG,0,0,0,3,,,,,,,,,,,,,,,,,,,,,,,AFNE19.jpg,AFNE11.jpg,AFSA03.jpg,AFSA20.jpg,AFSA03.jpg,FS,4,num_2,16,num_2,0.666805546731,,,2017_Dec_06_1811,60.0747997517,FEMA4ImagesEEG,001,202451,
AFNE01.JPG,AFNE01.JPG,AFNE01.JPG,AFNE01.JPG,AFNE01.JPG,AFNE01.JPG,0,1,1,8,,,,,,,,,,,,,,,,,,,,,,,AFSA15.jpg,AFNE18.jpg,AFNE05.jpg,AFSA06.jpg,AFSA06.jpg,FS,4,num_4,16,num_4,0.916778123472,,,2017_Dec_06_1811,60.0747997517,FEMA4ImagesEEG,001,202451,
AFNE01.JPG,AFNE01.JPG,AFNE01.JPG,AFNE01.JPG,AFNE01.JPG,AFNE01.JPG,0,2,2,4,,,,,,,,,,,,,,,,,,,,,,,AFSA08.jpg,AFNE14.jpg,AFNE16.jpg,AFSA05.jpg,AFSA08.jpg,FS,4,num_8,16,num_8,1.26701248763,,,2017_Dec_06_1811,60.0747997517,FEMA4ImagesEEG,001,202451,
AFNE01.JPG,AFNE01.JPG,AFNE01.JPG,AFNE01.JPG,AFNE01.JPG,AFNE01.JPG,0,3,3,9,,,,,,,,,,,,,,,,,,,,,,,AFNE13.jpg,AFSA13.jpg,AFSA17.jpg,AFNE05.jpg,AFNE05.jpg,FN,3,num_4,16,num_4,0.966776872752,,,2017_Dec_06_1811,60.0747997517,FEMA4ImagesEEG,001,202451,
AFNE01.JPG,AFNE01.JPG,AFNE01.JPG,AFNE01.JPG,AFNE01.JPG,AFNE01.JPG,0,4,4,0,,,,,,,,,,,,,,,,,,,,,,,AFSA16.jpg,AFNE01.jpg,AFSA13.jpg,AFNE04.jpg,AFSA13.jpg,FS,4,num_2,16,num_2,0.650109468494,,,2017_Dec_06_1811,60.0747997517,FEMA4ImagesEEG,001,202451,
AFNE01.JPG,AFNE01.JPG,AFNE01.JPG,AFNE01.JPG,AFNE01.JPG,AFNE01.JPG,0,5,5,5,,,,,,,,,,,,,,,,,,,,,,,AFSA13.jpg,AFNE16.jpg,AFNE11.jpg,AFSA16.jpg,AFSA13.jpg,FS,4,num_8,16,num_8,1.63339863578,,,2017_Dec_06_1811,60.0747997517,FEMA4ImagesEEG,001,202451,
AFNE01.JPG,AFNE01.JPG,AFNE01.JPG,AFNE01.JPG,AFNE01.JPG,AFNE01.JPG,0,6,6,2,,,,,,,,,,,,,,,,,,,,,,,AFSA16.jpg,AFNE14.jpg,AFSA01.jpg,AFNE11.jpg,AFNE11.jpg,FN,3,num_4,16,num_4,0.733325892128,,,2017_Dec_06_1811,60.0747997517,FEMA4ImagesEEG,001,202451,
AFNE01.JPG,AFNE01.JPG,AFNE01.JPG,AFNE01.JPG,AFNE01.JPG,AFNE01.JPG,0,7,7,7,,,,,,,,,,,,,,,,,,,,,,,AFNE10.jpg,AFSA04.jpg,AFSA08.jpg,AFNE07.jpg,AFSA04.jpg,FS,4,num_6,32,num_4,0.850131727522,,,2017_Dec_06_1811,60.0747997517,FEMA4ImagesEEG,001,202451,
AFNE01.JPG,AFNE01.JPG,AFNE01.JPG,AFNE01.JPG,AFNE01.JPG,AFNE01.JPG,0,8,8,6,,,,,,,,,,,,,,,,,,,,,,,AFNE13.jpg,AFSA10.jpg,AFSA12.jpg,AFNE08.jpg,AFNE13.jpg,FN,3,num_8,16,num_8,1.29996298673,,,2017_Dec_06_1811,60.0747997517,FEMA4ImagesEEG,001,202451,
AFNE01.JPG,AFNE01.JPG,AFNE01.JPG,AFNE01.JPG,AFNE01.JPG,AFNE01.JPG,0,9,9,1,,,,,,,,,,,,,,,,,,,,,,,AFSA19.jpg,AFNE05.jpg,AFNE15.jpg,AFSA12.jpg,AFSA12.jpg,FS,4,num_4,16,num_4,0.866766544757,,,2017_Dec_06_1811,60.0747997517,FEMA4ImagesEEG,001,202451,
AFNE01.JPG,AFNE01.JPG,AFNE01.JPG,AFNE01.JPG,AFNE01.JPG,AFNE01.JPG,1,0,10,4,,,,,,,,,,,,,,,,,,,,,,,AFSA20.jpg,AFSA07.jpg,AFNE11.jpg,AFNE12.jpg,AFSA07.jpg,FS,4,num_6,16,num_6,0.716535837157,,,2017_Dec_06_1811,60.0747997517,FEMA4ImagesEEG,001,202451,
AFNE01.JPG,AFNE01.JPG,AFNE01.JPG,AFNE01.JPG,AFNE01.JPG,AFNE01.JPG,1,1,11,8,,,,,,,,,,,,,,,,,,,,,,,AFSA14.jpg,AFSA17.jpg,AFNE15.jpg,AFNE17.jpg,AFNE17.jpg,FN,3,num_4,32,num_8,1.16674909648,,,2017_Dec_06_1811,60.0747997517,FEMA4ImagesEEG,001,202451,
AFNE01.JPG,AFNE01.JPG,AFNE01.JPG,AFNE01.JPG,AFNE01.JPG,AFNE01.JPG,1,2,12,5,,,,,,,,,,,,,,,,,,,,,,,AFSA06.jpg,AFNE17.jpg,AFSA14.jpg,AFNE14.jpg,AFSA06.jpg,FS,4,num_8,32,num_4,0.833439177368,,,2017_Dec_06_1811,60.0747997517,FEMA4ImagesEEG,001,202451,
AFNE01.JPG,AFNE01.JPG,AFNE01.JPG,AFNE01.JPG,AFNE01.JPG,AFNE01.JPG,1,3,13,7,,,,,,,,,,,,,,,,,,,,,,,AFSA04.jpg,AFNE18.jpg,AFSA12.jpg,AFNE09.jpg,AFSA12.jpg,FS,4,num_2,32,num_6,0.883710875409,,,2017_Dec_06_1811,60.0747997517,FEMA4ImagesEEG,001,202451,
AFNE01.JPG,AFNE01.JPG,AFNE01.JPG,AFNE01.JPG,AFNE01.JPG,AFNE01.JPG,1,4,14,1,,,,,,,,,,,,,,,,,,,,,,,AFSA08.jpg,AFNE06.jpg,AFSA11.jpg,AFNE12.jpg,AFNE12.jpg,FN,3,num_4,16,num_4,1.35016380157,,,2017_Dec_06_1811,60.0747997517,FEMA4ImagesEEG,001,202451,
AFNE01.JPG,AFNE01.JPG,AFNE01.JPG,AFNE01.JPG,AFNE01.JPG,AFNE01.JPG,1,5,15,9,,,,,,,,,,,,,,,,,,,,,,,AFSA19.jpg,AFSA07.jpg,AFNE08.jpg,AFNE12.jpg,AFNE08.jpg,FN,3,num_2,16,num_2,1.13358209864,,,2017_Dec_06_1811,60.0747997517,FEMA4ImagesEEG,001,202451,
AFNE01.JPG,AFNE01.JPG,AFNE01.JPG,AFNE01.JPG,AFNE01.JPG,AFNE01.JPG,1,6,16,3,,,,,,,,,,,,,,,,,,,,,,,AFNE13.jpg,AFSA17.jpg,AFSA14.jpg,AFNE18.jpg,AFSA17.jpg,FS,4,num_6,16,num_6,0.550167137058,,,2017_Dec_06_1811,60.0747997517,FEMA4ImagesEEG,001,202451,
AFNE01.JPG,AFNE01.JPG,AFNE01.JPG,AFNE01.JPG,AFNE01.JPG,AFNE01.JPG,1,7,17,6,,,,,,,,,,,,,,,,,,,,,,,AFSA03.jpg,AFNE13.jpg,AFNE20.jpg,AFSA11.jpg,AFSA11.jpg,FS,4,num_4,16,num_4,0.583384812111,,,2017_Dec_06_1811,60.0747997517,FEMA4ImagesEEG,001,202451,
AFNE01.JPG,AFNE01.JPG,AFNE01.JPG,AFNE01.JPG,AFNE01.JPG,AFNE01.JPG,1,8,18,2,,,,,,,,,,,,,,,,,,,,,,,AFNE16.jpg,AFNE13.jpg,AFSA08.jpg,AFSA19.jpg,AFSA19.jpg,FS,4,num_4,32,num_2,1.26671516243,,,2017_Dec_06_1811,60.0747997517,FEMA4ImagesEEG,001,202451,
AFNE01.JPG,AFNE01.JPG,AFNE01.JPG,AFNE01.JPG,AFNE01.JPG,AFNE01.JPG,1,9,19,0,,,,,,,,,,,,,,,,,,,,,,,AFNE11.jpg,AFSA15.jpg,AFNE09.jpg,AFSA10.jpg,AFNE11.jpg,FN,3,num_8,32,num_4,0.850158990594,,,2017_Dec_06_1811,60.0747997517,FEMA4ImagesEEG,001,202451,
AFNE01.JPG,AFNE01.JPG,AFNE01.JPG,AFNE01.JPG,AFNE01.JPG,AFNE01.JPG,2,0,20,3,,,,,,,,,,,,,,,,,,,,,,,AFSA17.jpg,AFSA03.jpg,AFNE18.jpg,AFNE13.jpg,AFSA17.jpg,FS,4,num_8,16,num_8,0.733493638691,,,2017_Dec_06_1811,60.0747997517,FEMA4ImagesEEG,001,202451,
AFNE01.JPG,AFNE01.JPG,AFNE01.JPG,AFNE01.JPG,AFNE01.JPG,AFNE01.JPG,2,1,21,7,,,,,,,,,,,,,,,,,,,,,,,AFNE17.jpg,AFSA04.jpg,AFNE02.jpg,AFSA11.jpg,AFNE02.jpg,FN,3,num_2,32,num_6,0.866747621214,,,2017_Dec_06_1811,60.0747997517,FEMA4ImagesEEG,001,202451,
AFNE01.JPG,AFNE01.JPG,AFNE01.JPG,AFNE01.JPG,AFNE01.JPG,AFNE01.JPG,2,2,22,5,,,,,,,,,,,,,,,,,,,,,,,AFSA10.jpg,AFNE17.jpg,AFSA15.jpg,AFNE16.jpg,AFNE16.jpg,FN,3,num_4,32,num_6,1.13346502883,,,2017_Dec_06_1811,60.0747997517,FEMA4ImagesEEG,001,202451,
AFNE01.JPG,AFNE01.JPG,AFNE01.JPG,AFNE01.JPG,AFNE01.JPG,AFNE01.JPG,2,3,23,0,,,,,,,,,,,,,,,,,,,,,,,AFNE09.jpg,AFSA13.jpg,AFNE08.jpg,AFSA09.jpg,AFNE09.jpg,FN,3,num_8,16,num_8,1.65003762278,,,2017_Dec_06_1811,60.0747997517,FEMA4ImagesEEG,001,202451,
AFNE01.JPG,AFNE01.JPG,AFNE01.JPG,AFNE01.JPG,AFNE01.JPG,AFNE01.JPG,2,4,24,6,,,,,,,,,,,,,,,,,,,,,,,AFSA13.jpg,AFSA10.jpg,AFNE11.jpg,AFNE07.jpg,AFSA13.jpg,FS,4,num_8,16,num_8,1.11676798807,,,2017_Dec_06_1811,60.0747997517,FEMA4ImagesEEG,001,202451,
AFNE01.JPG,AFNE01.JPG,AFNE01.JPG,AFNE01.JPG,AFNE01.JPG,AFNE01.JPG,2,5,25,2,,,,,,,,,,,,,,,,,,,,,,,AFNE03.jpg,AFNE10.jpg,AFSA11.jpg,AFSA12.jpg,AFSA11.jpg,FS,4,num_2,16,num_2,0.950047758175,,,2017_Dec_06_1811,60.0747997517,FEMA4ImagesEEG,001,202451,
AFNE01.JPG,AFNE01.JPG,AFNE01.JPG,AFNE01.JPG,AFNE01.JPG,AFNE01.JPG,2,6,26,1,,,,,,,,,,,,,,,,,,,,,,,AFSA18.jpg,AFNE03.jpg,AFNE09.jpg,AFSA13.jpg,AFNE09.jpg,FN,3,num_2,32,num_6,1.11676157336,,,2017_Dec_06_1811,60.0747997517,FEMA4ImagesEEG,001,202451,
AFNE01.JPG,AFNE01.JPG,AFNE01.JPG,AFNE01.JPG,AFNE01.JPG,AFNE01.JPG,2,7,27,9,,,,,,,,,,,,,,,,,,,,,,,AFSA07.jpg,AFSA01.jpg,AFNE07.jpg,AFNE08.jpg,AFSA07.jpg,FS,4,num_8,16,num_8,1.13356542005,,,2017_Dec_06_1811,60.0747997517,FEMA4ImagesEEG,001,202451,
AFNE01.JPG,AFNE01.JPG,AFNE01.JPG,AFNE01.JPG,AFNE01.JPG,AFNE01.JPG,2,8,28,4,,,,,,,,,,,,,,,,,,,,,,,AFSA12.jpg,AFNE03.jpg,AFSA13.jpg,AFNE15.jpg,AFNE03.jpg,FN,3,num_6,16,num_6,0.883532544365,,,2017_Dec_06_1811,60.0747997517,FEMA4ImagesEEG,001,202451,
AFNE01.JPG,AFNE01.JPG,AFNE01.JPG,AFNE01.JPG,AFNE01.JPG,AFNE01.JPG,2,9,29,8,,,,,,,,,,,,,,,,,,,,,,,AFSA17.jpg,AFSA09.jpg,AFNE09.jpg,AFNE15.jpg,AFNE09.jpg,FN,3,num_2,32,num_6,1.03348100162,,,2017_Dec_06_1811,60.0747997517,FEMA4ImagesEEG,001,202451,
AFNE01.JPG,AFNE01.JPG,AFNE01.JPG,AFNE01.JPG,AFNE01.JPG,AFNE01.JPG,3,0,30,9,,,,,,,,,,,,,,,,,,,,,,,AFSA15.jpg,AFNE05.jpg,AFNE13.jpg,AFSA20.jpg,AFNE13.jpg,FN,3,num_2,16,num_2,1.15009599738,,,2017_Dec_06_1811,60.0747997517,FEMA4ImagesEEG,001,202451,
AFNE01.JPG,AFNE01.JPG,AFNE01.JPG,AFNE01.JPG,AFNE01.JPG,AFNE01.JPG,3,1,31,8,,,,,,,,,,,,,,,,,,,,,,,AFNE09.jpg,AFNE04.jpg,AFSA06.jpg,AFSA01.jpg,AFSA06.jpg,FS,4,num_2,32,num_8,0.966633502394,,,2017_Dec_06_1811,60.0747997517,FEMA4ImagesEEG,001,202451,
AFNE01.JPG,AFNE01.JPG,AFNE01.JPG,AFNE01.JPG,AFNE01.JPG,AFNE01.JPG,3,2,32,5,,,,,,,,,,,,,,,,,,,,,,,AFSA02.jpg,AFSA07.jpg,AFNE05.jpg,AFNE14.jpg,AFNE05.jpg,FN,3,num_2,32,num_6,0.74987860024,,,2017_Dec_06_1811,60.0747997517,FEMA4ImagesEEG,001,202451,
AFNE01.JPG,AFNE01.JPG,AFNE01.JPG,AFNE01.JPG,AFNE01.JPG,AFNE01.JPG,3,3,33,0,,,,,,,,,,,,,,,,,,,,,,,AFNE07.jpg,AFSA17.jpg,AFSA18.jpg,AFNE16.jpg,AFSA17.jpg,FS,4,num_6,16,num_6,1.16675037961,,,2017_Dec_06_1811,60.0747997517,FEMA4ImagesEEG,001,202451,
AFNE01.JPG,AFNE01.JPG,AFNE01.JPG,AFNE01.JPG,AFNE01.JPG,AFNE01.JPG,3,4,34,7,,,,,,,,,,,,,,,,,,,,,,,AFNE13.jpg,AFSA13.jpg,AFNE04.jpg,AFSA08.jpg,AFNE13.jpg,FN,3,num_8,32,num_2,0.816790247569,,,2017_Dec_06_1811,60.0747997517,FEMA4ImagesEEG,001,202451,
AFNE01.JPG,AFNE01.JPG,AFNE01.JPG,AFNE01.JPG,AFNE01.JPG,AFNE01.JPG,3,5,35,3,,,,,,,,,,,,,,,,,,,,,,,AFSA17.jpg,AFNE15.jpg,AFSA03.jpg,AFNE01.jpg,AFSA17.jpg,FS,4,num_8,32,num_4,0.900387068046,,,2017_Dec_06_1811,60.0747997517,FEMA4ImagesEEG,001,202451,
AFNE01.JPG,AFNE01.JPG,AFNE01.JPG,AFNE01.JPG,AFNE01.JPG,AFNE01.JPG,3,6,36,6,,,,,,,,,,,,,,,,,,,,,,,AFNE18.jpg,AFSA17.jpg,AFNE15.jpg,AFSA12.jpg,AFNE15.jpg,FN,3,num_2,16,num_2,0.96676692972,,,2017_Dec_06_1811,60.0747997517,FEMA4ImagesEEG,001,202451,
AFNE01.JPG,AFNE01.JPG,AFNE01.JPG,AFNE01.JPG,AFNE01.JPG,AFNE01.JPG,3,7,37,2,,,,,,,,,,,,,,,,,,,,,,,AFSA05.jpg,AFNE18.jpg,AFSA01.jpg,AFNE16.jpg,AFNE18.jpg,FN,3,num_6,16,num_6,0.733489148319,,,2017_Dec_06_1811,60.0747997517,FEMA4ImagesEEG,001,202451,
AFNE01.JPG,AFNE01.JPG,AFNE01.JPG,AFNE01.JPG,AFNE01.JPG,AFNE01.JPG,3,8,38,4,,,,,,,,,,,,,,,,,,,,,,,AFNE11.jpg,AFSA06.jpg,AFSA13.jpg,AFNE20.jpg,AFSA13.jpg,FS,4,num_2,16,num_2,0.700201231753,,,2017_Dec_06_1811,60.0747997517,FEMA4ImagesEEG,001,202451,
AFNE01.JPG,AFNE01.JPG,AFNE01.JPG,AFNE01.JPG,AFNE01.JPG,AFNE01.JPG,3,9,39,1,,,,,,,,,,,,,,,,,,,,,,,AFNE14.jpg,AFSA16.jpg,AFSA17.jpg,AFNE12.jpg,AFNE12.jpg,FN,3,num_4,16,num_4,1.31671455293,,,2017_Dec_06_1811,60.0747997517,FEMA4ImagesEEG,001,202451,
AFNE01.JPG,AFNE01.JPG,AFNE01.JPG,AFNE01.JPG,AFNE01.JPG,AFNE01.JPG,4,0,40,0,,,,,,,,,,,,,,,,,,,,,,,AFSA16.jpg,AFSA05.jpg,AFNE06.jpg,AFNE13.jpg,AFSA16.jpg,FS,4,num_8,16,num_8,1.10012707673,,,2017_Dec_06_1811,60.0747997517,FEMA4ImagesEEG,001,202451,
AFNE01.JPG,AFNE01.JPG,AFNE01.JPG,AFNE01.JPG,AFNE01.JPG,AFNE01.JPG,4,1,41,2,,,,,,,,,,,,,,,,,,,,,,,AFSA15.jpg,AFNE16.jpg,AFSA01.jpg,AFNE05.jpg,AFSA01.jpg,FS,4,num_2,32,num_6,0.633475613082,,,2017_Dec_06_1811,60.0747997517,FEMA4ImagesEEG,001,202451,
AFNE01.JPG,AFNE01.JPG,AFNE01.JPG,AFNE01.JPG,AFNE01.JPG,AFNE01.JPG,4,2,42,4,,,,,,,,,,,,,,,,,,,,,,,AFNE15.jpg,AFSA10.jpg,AFNE12.jpg,AFSA20.jpg,AFSA10.jpg,FS,4,num_6,16,num_6,0.550165533554,,,2017_Dec_06_1811,60.0747997517,FEMA4ImagesEEG,001,202451,
AFNE01.JPG,AFNE01.JPG,AFNE01.JPG,AFNE01.JPG,AFNE01.JPG,AFNE01.JPG,4,3,43,3,,,,,,,,,,,,,,,,,,,,,,,AFNE14.jpg,AFSA19.jpg,AFSA15.jpg,AFNE15.jpg,AFSA19.jpg,FS,4,num_6,16,num_6,1.33341704612,,,2017_Dec_06_1811,60.0747997517,FEMA4ImagesEEG,001,202451,
AFNE01.JPG,AFNE01.JPG,AFNE01.JPG,AFNE01.JPG,AFNE01.JPG,AFNE01.JPG,4,4,44,6,,,,,,,,,,,,,,,,,,,,,,,AFSA15.jpg,AFNE17.jpg,AFSA03.jpg,AFNE03.jpg,AFNE03.jpg,FN,3,num_4,32,num_2,0.866747621214,,,2017_Dec_06_1811,60.0747997517,FEMA4ImagesEEG,001,202451,
AFNE01.JPG,AFNE01.JPG,AFNE01.JPG,AFNE01.JPG,AFNE01.JPG,AFNE01.JPG,4,5,45,8,,,,,,,,,,,,,,,,,,,,,,,AFNE01.jpg,AFNE10.jpg,AFSA20.jpg,AFSA18.jpg,AFNE10.jpg,FN,3,num_6,16,num_6,0.533461436629,,,2017_Dec_06_1811,60.0747997517,FEMA4ImagesEEG,001,202451,
AFNE01.JPG,AFNE01.JPG,AFNE01.JPG,AFNE01.JPG,AFNE01.JPG,AFNE01.JPG,4,6,46,9,,,,,,,,,,,,,,,,,,,,,,,AFSA18.jpg,AFNE13.jpg,AFNE06.jpg,AFSA17.jpg,AFNE06.jpg,FN,3,num_2,32,num_4,0.90013689152,,,2017_Dec_06_1811,60.0747997517,FEMA4ImagesEEG,001,202451,
AFNE01.JPG,AFNE01.JPG,AFNE01.JPG,AFNE01.JPG,AFNE01.JPG,AFNE01.JPG,4,7,47,7,,,,,,,,,,,,,,,,,,,,,,,AFNE04.jpg,AFSA09.jpg,AFSA14.jpg,AFNE05.jpg,AFSA09.jpg,FS,4,num_6,32,num_4,0.983480328228,,,2017_Dec_06_1811,60.0747997517,FEMA4ImagesEEG,001,202451,
AFNE01.JPG,AFNE01.JPG,AFNE01.JPG,AFNE01.JPG,AFNE01.JPG,AFNE01.JPG,4,8,48,5,,,,,,,,,,,,,,,,,,,,,,,AFNE20.jpg,AFSA03.jpg,AFSA08.jpg,AFNE05.jpg,AFSA03.jpg,FS,4,num_6,16,num_6,0.533545790939,,,2017_Dec_06_1811,60.0747997517,FEMA4ImagesEEG,001,202451,
AFNE01.JPG,AFNE01.JPG,AFNE01.JPG,AFNE01.JPG,AFNE01.JPG,AFNE01.JPG,4,9,49,1,,,,,,,,,,,,,,,,,,,,,,,AFNE01.jpg,AFNE17.jpg,AFSA11.jpg,AFSA09.jpg,AFNE01.jpg,FN,3,num_8,16,num_8,1.11677440279,,,2017_Dec_06_1811,60.0747997517,FEMA4ImagesEEG,001,202451,
AFNE01.JPG,AFNE01.JPG,AFNE01.JPG,AFNE01.JPG,AFNE01.JPG,AFNE01.JPG,5,0,50,6,,,,,,,,,,,,,,,,,,,,,,,AFNE09.jpg,AFSA18.jpg,AFSA15.jpg,AFNE11.jpg,AFNE09.jpg,FN,3,num_8,16,num_8,0.716651624069,,,2017_Dec_06_1811,60.0747997517,FEMA4ImagesEEG,001,202451,
AFNE01.JPG,AFNE01.JPG,AFNE01.JPG,AFNE01.JPG,AFNE01.JPG,AFNE01.JPG,5,1,51,0,,,,,,,,,,,,,,,,,,,,,,,AFSA11.jpg,AFSA06.jpg,AFNE03.jpg,AFNE07.jpg,AFSA06.jpg,FS,4,num_6,16,num_6,0.900121496059,,,2017_Dec_06_1811,60.0747997517,FEMA4ImagesEEG,001,202451,
AFNE01.JPG,AFNE01.JPG,AFNE01.JPG,AFNE01.JPG,AFNE01.JPG,AFNE01.JPG,5,2,52,1,,,,,,,,,,,,,,,,,,,,,,,AFSA08.jpg,AFSA02.jpg,AFNE07.jpg,AFNE04.jpg,AFNE04.jpg,FN,3,num_4,16,num_4,0.666827677749,,,2017_Dec_06_1811,60.0747997517,FEMA4ImagesEEG,001,202451,
AFNE01.JPG,AFNE01.JPG,AFNE01.JPG,AFNE01.JPG,AFNE01.JPG,AFNE01.JPG,5,3,53,5,,,,,,,,,,,,,,,,,,,,,,,AFSA10.jpg,AFNE12.jpg,AFNE19.jpg,AFSA11.jpg,AFSA10.jpg,FS,4,num_8,32,num_6,0.766777385725,,,2017_Dec_06_1811,60.0747997517,FEMA4ImagesEEG,001,202451,
AFNE01.JPG,AFNE01.JPG,AFNE01.JPG,AFNE01.JPG,AFNE01.JPG,AFNE01.JPG,5,4,54,4,,,,,,,,,,,,,,,,,,,,,,,AFNE05.jpg,AFSA08.jpg,AFNE13.jpg,AFSA16.jpg,AFSA16.jpg,FS,4,num_4,32,num_8,1.46693307254,,,2017_Dec_06_1811,60.0747997517,FEMA4ImagesEEG,001,202451,
AFNE01.JPG,AFNE01.JPG,AFNE01.JPG,AFNE01.JPG,AFNE01.JPG,AFNE01.JPG,5,5,55,3,,,,,,,,,,,,,,,,,,,,,,,AFSA01.jpg,AFNE10.jpg,AFNE16.jpg,AFSA19.jpg,AFSA19.jpg,FS,4,num_4,32,num_2,1.5667070155,,,2017_Dec_06_1811,60.0747997517,FEMA4ImagesEEG,001,202451,
AFNE01.JPG,AFNE01.JPG,AFNE01.JPG,AFNE01.JPG,AFNE01.JPG,AFNE01.JPG,5,6,56,7,,,,,,,,,,,,,,,,,,,,,,,AFNE11.jpg,AFSA04.jpg,AFSA07.jpg,AFNE07.jpg,AFNE07.jpg,FN,3,num_4,16,num_4,0.866731584305,,,2017_Dec_06_1811,60.0747997517,FEMA4ImagesEEG,001,202451,
AFNE01.JPG,AFNE01.JPG,AFNE01.JPG,AFNE01.JPG,AFNE01.JPG,AFNE01.JPG,5,7,57,9,,,,,,,,,,,,,,,,,,,,,,,AFSA11.jpg,AFNE04.jpg,AFSA14.jpg,AFNE13.jpg,AFNE13.jpg,FN,3,num_4,16,num_4,0.950410514139,,,2017_Dec_06_1811,60.0747997517,FEMA4ImagesEEG,001,202451,
AFNE01.JPG,AFNE01.JPG,AFNE01.JPG,AFNE01.JPG,AFNE01.JPG,AFNE01.JPG,5,8,58,2,,,,,,,,,,,,,,,,,,,,,,,AFNE08.jpg,AFSA11.jpg,AFNE20.jpg,AFSA10.jpg,AFNE20.jpg,FN,3,num_2,16,num_2,1.51669704076,,,2017_Dec_06_1811,60.0747997517,FEMA4ImagesEEG,001,202451,
AFNE01.JPG,AFNE01.JPG,AFNE01.JPG,AFNE01.JPG,AFNE01.JPG,AFNE01.JPG,5,9,59,8,,,,,,,,,,,,,,,,,,,,,,,AFSA14.jpg,AFNE14.jpg,AFNE06.jpg,AFSA19.jpg,AFSA19.jpg,FS,4,num_4,16,num_4,0.666831526672,,,2017_Dec_06_1811,60.0747997517,FEMA4ImagesEEG,001,202451,
,,,,,,,,,,,,,,,,,,,,,,,,,,,,,,,,,,,,,,,,,,,space,11.7325214783,2017_Dec_06_1811,60.0747997517,FEMA4ImagesEEG,001,202451,
AFNE01.JPG,AFNE01.JPG,AFNE01.JPG,AFNE01.JPG,AFNE01.JPG,AFNE01.JPG,,,,,0,0,0,7,,,,,,,,,,,,,,,,,,,AMSA01.jpg,AMSA13.jpg,AMNE20.jpg,AMNE12.jpg,AMNE20.jpg,MN,1,num_2,16,num_2,0.466794834007,,,2017_Dec_06_1811,60.0747997517,FEMA4ImagesEEG,001,202451,
AFNE01.JPG,AFNE01.JPG,AFNE01.JPG,AFNE01.JPG,AFNE01.JPG,AFNE01.JPG,,,,,0,1,1,5,,,,,,,,,,,,,,,,,,,AMNE08.jpg,AMSA02.jpg,AMNE09.jpg,AMSA17.jpg,AMSA17.jpg,MS,2,num_4,16,num_4,0.750168869272,,,2017_Dec_06_1811,60.0747997517,FEMA4ImagesEEG,001,202451,
AFNE01.JPG,AFNE01.JPG,AFNE01.JPG,AFNE01.JPG,AFNE01.JPG,AFNE01.JPG,,,,,0,2,2,3,,,,,,,,,,,,,,,,,,,AMSA08.jpg,AMNE12.jpg,AMNE19.jpg,AMSA01.jpg,AMNE12.jpg,MN,1,num_6,16,num_6,0.833483118564,,,2017_Dec_06_1811,60.0747997517,FEMA4ImagesEEG,001,202451,
AFNE01.JPG,AFNE01.JPG,AFNE01.JPG,AFNE01.JPG,AFNE01.JPG,AFNE01.JPG,,,,,0,3,3,0,,,,,,,,,,,,,,,,,,,AMSA06.jpg,AMNE08.jpg,AMNE14.jpg,AMSA17.jpg,AMNE14.jpg,MN,1,num_2,16,num_2,0.550167457899,,,2017_Dec_06_1811,60.0747997517,FEMA4ImagesEEG,001,202451,
AFNE01.JPG,AFNE01.JPG,AFNE01.JPG,AFNE01.JPG,AFNE01.JPG,AFNE01.JPG,,,,,0,4,4,2,,,,,,,,,,,,,,,,,,,AMNE10.jpg,AMNE13.jpg,AMSA03.jpg,AMSA08.jpg,AMNE13.jpg,MN,1,num_6,32,num_4,0.850103502627,,,2017_Dec_06_1811,60.0747997517,FEMA4ImagesEEG,001,202451,
AFNE01.JPG,AFNE01.JPG,AFNE01.JPG,AFNE01.JPG,AFNE01.JPG,AFNE01.JPG,,,,,0,5,5,9,,,,,,,,,,,,,,,,,,,AMSA03.jpg,AMNE04.jpg,AMNE12.jpg,AMSA05.jpg,AMNE12.jpg,MN,1,num_2,32,num_6,1.31673187297,,,2017_Dec_06_1811,60.0747997517,FEMA4ImagesEEG,001,202451,
AFNE01.JPG,AFNE01.JPG,AFNE01.JPG,AFNE01.JPG,AFNE01.JPG,AFNE01.JPG,,,,,0,6,6,6,,,,,,,,,,,,,,,,,,,AMNE08.jpg,AMSA20.jpg,AMNE07.jpg,AMSA19.jpg,AMSA19.jpg,MS,2,num_4,16,num_4,0.533461436629,,,2017_Dec_06_1811,60.0747997517,FEMA4ImagesEEG,001,202451,
AFNE01.JPG,AFNE01.JPG,AFNE01.JPG,AFNE01.JPG,AFNE01.JPG,AFNE01.JPG,,,,,0,7,7,4,,,,,,,,,,,,,,,,,,,AMNE19.jpg,AMSA19.jpg,AMSA13.jpg,AMNE06.jpg,AMNE06.jpg,MN,1,num_4,16,num_4,1.41670691944,,,2017_Dec_06_1811,60.0747997517,FEMA4ImagesEEG,001,202451,
AFNE01.JPG,AFNE01.JPG,AFNE01.JPG,AFNE01.JPG,AFNE01.JPG,AFNE01.JPG,,,,,0,8,8,1,,,,,,,,,,,,,,,,,,,AMNE02.jpg,AMNE03.jpg,AMSA03.jpg,AMSA16.jpg,AMNE03.jpg,MN,1,num_6,32,num_8,0.966813116102,,,2017_Dec_06_1811,60.0747997517,FEMA4ImagesEEG,001,202451,
AFNE01.JPG,AFNE01.JPG,AFNE01.JPG,AFNE01.JPG,AFNE01.JPG,AFNE01.JPG,,,,,0,9,9,8,,,,,,,,,,,,,,,,,,,AMSA20.jpg,AMNE20.jpg,AMSA05.jpg,AMNE15.jpg,AMSA20.jpg,MS,2,num_8,16,num_8,1.11676542228,,,2017_Dec_06_1811,60.0747997517,FEMA4ImagesEEG,001,202451,
AFNE01.JPG,AFNE01.JPG,AFNE01.JPG,AFNE01.JPG,AFNE01.JPG,AFNE01.JPG,,,,,1,0,10,2,,,,,,,,,,,,,,,,,,,AMSA06.jpg,AMNE02.jpg,AMSA09.jpg,AMNE20.jpg,AMNE20.jpg,MN,1,num_4,16,num_4,0.800132657634,,,2017_Dec_06_1811,60.0747997517,FEMA4ImagesEEG,001,202451,
AFNE01.JPG,AFNE01.JPG,AFNE01.JPG,AFNE01.JPG,AFNE01.JPG,AFNE01.JPG,,,,,1,1,11,9,,,,,,,,,,,,,,,,,,,AMNE08.jpg,AMNE04.jpg,AMSA08.jpg,AMSA18.jpg,AMSA08.jpg,MS,2,num_2,32,num_6,0.900168003049,,,2017_Dec_06_1811,60.0747997517,FEMA4ImagesEEG,001,202451,
AFNE01.JPG,AFNE01.JPG,AFNE01.JPG,AFNE01.JPG,AFNE01.JPG,AFNE01.JPG,,,,,1,2,12,6,,,,,,,,,,,,,,,,,,,AMNE12.jpg,AMSA01.jpg,AMNE04.jpg,AMSA10.jpg,AMNE12.jpg,MN,1,num_8,32,num_4,0.883136110846,,,2017_Dec_06_1811,60.0747997517,FEMA4ImagesEEG,001,202451,
AFNE01.JPG,AFNE01.JPG,AFNE01.JPG,AFNE01.JPG,AFNE01.JPG,AFNE01.JPG,,,,,1,3,13,7,,,,,,,,,,,,,,,,,,,AMSA05.jpg,AMSA19.jpg,AMNE15.jpg,AMNE09.jpg,AMNE15.jpg,MN,1,num_2,16,num_2,0.550159118837,,,2017_Dec_06_1811,60.0747997517,FEMA4ImagesEEG,001,202451,
AFNE01.JPG,AFNE01.JPG,AFNE01.JPG,AFNE01.JPG,AFNE01.JPG,AFNE01.JPG,,,,,1,4,14,8,,,,,,,,,,,,,,,,,,,AMNE17.jpg,AMNE12.jpg,AMSA12.jpg,AMSA19.jpg,AMNE17.jpg,MN,1,num_8,16,num_8,0.950112547493,,,2017_Dec_06_1811,60.0747997517,FEMA4ImagesEEG,001,202451,
AFNE01.JPG,AFNE01.JPG,AFNE01.JPG,AFNE01.JPG,AFNE01.JPG,AFNE01.JPG,,,,,1,5,15,4,,,,,,,,,,,,,,,,,,,AMSA06.jpg,AMNE01.jpg,AMNE04.jpg,AMSA04.jpg,AMSA06.jpg,MS,2,num_8,16,num_8,1.08347012848,,,2017_Dec_06_1811,60.0747997517,FEMA4ImagesEEG,001,202451,
AFNE01.JPG,AFNE01.JPG,AFNE01.JPG,AFNE01.JPG,AFNE01.JPG,AFNE01.JPG,,,,,1,6,16,3,,,,,,,,,,,,,,,,,,,AMSA03.jpg,AMNE07.jpg,AMSA06.jpg,AMNE06.jpg,AMSA03.jpg,MS,2,num_8,16,num_8,1.13340280554,,,2017_Dec_06_1811,60.0747997517,FEMA4ImagesEEG,001,202451,
AFNE01.JPG,AFNE01.JPG,AFNE01.JPG,AFNE01.JPG,AFNE01.JPG,AFNE01.JPG,,,,,1,7,17,1,,,,,,,,,,,,,,,,,,,AMNE06.jpg,AMSA16.jpg,AMSA17.jpg,AMNE20.jpg,AMNE20.jpg,MN,1,num_4,32,num_6,0.983444084413,,,2017_Dec_06_1811,60.0747997517,FEMA4ImagesEEG,001,202451,
AFNE01.JPG,AFNE01.JPG,AFNE01.JPG,AFNE01.JPG,AFNE01.JPG,AFNE01.JPG,,,,,1,8,18,5,,,,,,,,,,,,,,,,,,,AMNE02.jpg,AMNE16.jpg,AMSA08.jpg,AMSA05.jpg,AMNE02.jpg,MN,1,num_8,16,num_8,0.383555316832,,,2017_Dec_06_1811,60.0747997517,FEMA4ImagesEEG,001,202451,
AFNE01.JPG,AFNE01.JPG,AFNE01.JPG,AFNE01.JPG,AFNE01.JPG,AFNE01.JPG,,,,,1,9,19,0,,,,,,,,,,,,,,,,,,,AMSA08.jpg,AMNE18.jpg,AMNE05.jpg,AMSA05.jpg,AMSA05.jpg,MS,2,num_4,16,num_4,0.900117005687,,,2017_Dec_06_1811,60.0747997517,FEMA4ImagesEEG,001,202451,
AFNE01.JPG,AFNE01.JPG,AFNE01.JPG,AFNE01.JPG,AFNE01.JPG,AFNE01.JPG,,,,,2,0,20,0,,,,,,,,,,,,,,,,,,,AMSA18.jpg,AMNE14.jpg,AMSA04.jpg,AMNE17.jpg,AMNE17.jpg,MN,1,num_4,16,num_4,0.733455150155,,,2017_Dec_06_1811,60.0747997517,FEMA4ImagesEEG,001,202451,
AFNE01.JPG,AFNE01.JPG,AFNE01.JPG,AFNE01.JPG,AFNE01.JPG,AFNE01.JPG,,,,,2,1,21,5,,,,,,,,,,,,,,,,,,,AMNE09.jpg,AMSA18.jpg,AMSA10.jpg,AMNE13.jpg,AMSA10.jpg,MS,2,num_2,16,num_2,1.2334657344,,,2017_Dec_06_1811,60.0747997517,FEMA4ImagesEEG,001,202451,
AFNE01.JPG,AFNE01.JPG,AFNE01.JPG,AFNE01.JPG,AFNE01.JPG,AFNE01.JPG,,,,,2,2,22,1,,,,,,,,,,,,,,,,,,,AMSA16.jpg,AMNE14.jpg,AMSA02.jpg,AMNE04.jpg,AMSA16.jpg,MS,2,num_8,16,num_8,1.16674396466,,,2017_Dec_06_1811,60.0747997517,FEMA4ImagesEEG,001,202451,
AFNE01.JPG,AFNE01.JPG,AFNE01.JPG,AFNE01.JPG,AFNE01.JPG,AFNE01.JPG,,,,,2,3,23,8,,,,,,,,,,,,,,,,,,,AMNE06.jpg,AMSA04.jpg,AMNE02.jpg,AMSA08.jpg,AMNE02.jpg,MN,1,num_2,16,num_2,0.450175412232,,,2017_Dec_06_1811,60.0747997517,FEMA4ImagesEEG,001,202451,
AFNE01.JPG,AFNE01.JPG,AFNE01.JPG,AFNE01.JPG,AFNE01.JPG,AFNE01.JPG,,,,,2,4,24,2,,,,,,,,,,,,,,,,,,,AMSA04.jpg,AMNE02.jpg,AMSA19.jpg,AMNE20.jpg,AMSA19.jpg,MS,2,num_2,32,num_8,0.850189781282,,,2017_Dec_06_1811,60.0747997517,FEMA4ImagesEEG,001,202451,
AFNE01.JPG,AFNE01.JPG,AFNE01.JPG,AFNE01.JPG,AFNE01.JPG,AFNE01.JPG,,,,,2,5,25,6,,,,,,,,,,,,,,,,,,,AMSA17.jpg,AMNE12.jpg,AMSA08.jpg,AMNE11.jpg,AMSA08.jpg,MS,2,num_2,32,num_4,1.25008002436,,,2017_Dec_06_1811,60.0747997517,FEMA4ImagesEEG,001,202451,
AFNE01.JPG,AFNE01.JPG,AFNE01.JPG,AFNE01.JPG,AFNE01.JPG,AFNE01.JPG,,,,,2,6,26,7,,,,,,,,,,,,,,,,,,,AMNE02.jpg,AMSA19.jpg,AMSA03.jpg,AMNE20.jpg,AMSA19.jpg,MS,2,num_6,16,num_6,0.733466376085,,,2017_Dec_06_1811,60.0747997517,FEMA4ImagesEEG,001,202451,
AFNE01.JPG,AFNE01.JPG,AFNE01.JPG,AFNE01.JPG,AFNE01.JPG,AFNE01.JPG,,,,,2,7,27,9,,,,,,,,,,,,,,,,,,,AMNE16.jpg,AMNE17.jpg,AMSA11.jpg,AMSA06.jpg,AMNE16.jpg,MN,1,num_8,32,num_6,1.51660210174,,,2017_Dec_06_1811,60.0747997517,FEMA4ImagesEEG,001,202451,
AFNE01.JPG,AFNE01.JPG,AFNE01.JPG,AFNE01.JPG,AFNE01.JPG,AFNE01.JPG,,,,,2,8,28,4,,,,,,,,,,,,,,,,,,,AMNE19.jpg,AMNE11.jpg,AMSA03.jpg,AMSA04.jpg,AMNE19.jpg,MN,1,num_8,16,num_8,0.616805514554,,,2017_Dec_06_1811,60.0747997517,FEMA4ImagesEEG,001,202451,
AFNE01.JPG,AFNE01.JPG,AFNE01.JPG,AFNE01.JPG,AFNE01.JPG,AFNE01.JPG,,,,,2,9,29,3,,,,,,,,,,,,,,,,,,,AMSA16.jpg,AMNE08.jpg,AMNE09.jpg,AMSA14.jpg,AMSA14.jpg,MS,2,num_4,16,num_4,0.716847595759,,,2017_Dec_06_1811,60.0747997517,FEMA4ImagesEEG,001,202451,
AFNE01.JPG,AFNE01.JPG,AFNE01.JPG,AFNE01.JPG,AFNE01.JPG,AFNE01.JPG,,,,,3,0,30,8,,,,,,,,,,,,,,,,,,,AMSA18.jpg,AMSA06.jpg,AMNE05.jpg,AMNE09.jpg,AMNE05.jpg,MN,1,num_2,32,num_6,0.616845286451,,,2017_Dec_06_1811,60.0747997517,FEMA4ImagesEEG,001,202451,
AFNE01.JPG,AFNE01.JPG,AFNE01.JPG,AFNE01.JPG,AFNE01.JPG,AFNE01.JPG,,,,,3,1,31,5,,,,,,,,,,,,,,,,,,,AMSA18.jpg,AMNE14.jpg,AMNE09.jpg,AMSA19.jpg,AMNE09.jpg,MN,1,num_2,16,num_2,1.26678091381,,,2017_Dec_06_1811,60.0747997517,FEMA4ImagesEEG,001,202451,
AFNE01.JPG,AFNE01.JPG,AFNE01.JPG,AFNE01.JPG,AFNE01.JPG,AFNE01.JPG,,,,,3,2,32,0,,,,,,,,,,,,,,,,,,,AMSA18.jpg,AMSA16.jpg,AMNE07.jpg,AMNE10.jpg,AMNE10.jpg,MN,1,num_4,16,num_4,1.21647521737,,,2017_Dec_06_1811,60.0747997517,FEMA4ImagesEEG,001,202451,
AFNE01.JPG,AFNE01.JPG,AFNE01.JPG,AFNE01.JPG,AFNE01.JPG,AFNE01.JPG,,,,,3,3,33,7,,,,,,,,,,,,,,,,,,,AMNE15.jpg,AMSA02.jpg,AMSA08.jpg,AMNE18.jpg,AMSA08.jpg,MS,2,num_2,32,num_8,1.51671115332,,,2017_Dec_06_1811,60.0747997517,FEMA4ImagesEEG,001,202451,
AFNE01.JPG,AFNE01.JPG,AFNE01.JPG,AFNE01.JPG,AFNE01.JPG,AFNE01.JPG,,,,,3,4,34,6,,,,,,,,,,,,,,,,,,,AMSA20.jpg,AMSA02.jpg,AMNE03.jpg,AMNE09.jpg,AMSA20.jpg,MS,2,num_8,16,num_8,0.73351480742,,,2017_Dec_06_1811,60.0747997517,FEMA4ImagesEEG,001,202451,
AFNE01.JPG,AFNE01.JPG,AFNE01.JPG,AFNE01.JPG,AFNE01.JPG,AFNE01.JPG,,,,,3,5,35,9,,,,,,,,,,,,,,,,,,,AMSA16.jpg,AMNE16.jpg,AMNE04.jpg,AMSA18.jpg,AMSA18.jpg,MS,2,num_4,16,num_4,0.783411882352,,,2017_Dec_06_1811,60.0747997517,FEMA4ImagesEEG,001,202451,
AFNE01.JPG,AFNE01.JPG,AFNE01.JPG,AFNE01.JPG,AFNE01.JPG,AFNE01.JPG,,,,,3,6,36,2,,,,,,,,,,,,,,,,,,,AMNE02.jpg,AMNE01.jpg,AMSA20.jpg,AMSA08.jpg,AMNE01.jpg,MN,1,num_6,16,num_6,1.33340036799,,,2017_Dec_06_1811,60.0747997517,FEMA4ImagesEEG,001,202451,
AFNE01.JPG,AFNE01.JPG,AFNE01.JPG,AFNE01.JPG,AFNE01.JPG,AFNE01.JPG,,,,,3,7,37,3,,,,,,,,,,,,,,,,,,,AMSA16.jpg,AMSA11.jpg,AMNE18.jpg,AMNE14.jpg,AMSA11.jpg,MS,2,num_6,16,num_6,0.766782517545,,,2017_Dec_06_1811,60.0747997517,FEMA4ImagesEEG,001,202451,
AFNE01.JPG,AFNE01.JPG,AFNE01.JPG,AFNE01.JPG,AFNE01.JPG,AFNE01.JPG,,,,,3,8,38,4,,,,,,,,,,,,,,,,,,,AMNE16.jpg,AMNE10.jpg,AMSA17.jpg,AMSA16.jpg,AMSA16.jpg,MS,2,num_4,16,num_4,0.666612782516,,,2017_Dec_06_1811,60.0747997517,FEMA4ImagesEEG,001,202451,
AFNE01.JPG,AFNE01.JPG,AFNE01.JPG,AFNE01.JPG,AFNE01.JPG,AFNE01.JPG,,,,,3,9,39,1,,,,,,,,,,,,,,,,,,,AMNE11.jpg,AMSA17.jpg,AMSA01.jpg,AMNE07.jpg,AMNE11.jpg,MN,1,num_8,32,num_6,0.600129642757,,,2017_Dec_06_1811,60.0747997517,FEMA4ImagesEEG,001,202451,
AFNE01.JPG,AFNE01.JPG,AFNE01.JPG,AFNE01.JPG,AFNE01.JPG,AFNE01.JPG,,,,,4,0,40,7,,,,,,,,,,,,,,,,,,,AMSA08.jpg,AMSA18.jpg,AMNE10.jpg,AMNE01.jpg,AMNE10.jpg,MN,1,num_2,16,num_2,1.16674268176,,,2017_Dec_06_1811,60.0747997517,FEMA4ImagesEEG,001,202451,
AFNE01.JPG,AFNE01.JPG,AFNE01.JPG,AFNE01.JPG,AFNE01.JPG,AFNE01.JPG,,,,,4,1,41,2,,,,,,,,,,,,,,,,,,,AMSA18.jpg,AMSA07.jpg,AMNE06.jpg,AMNE05.jpg,AMNE06.jpg,MN,1,num_2,32,num_4,0.849992847536,,,2017_Dec_06_1811,60.0747997517,FEMA4ImagesEEG,001,202451,
AFNE01.JPG,AFNE01.JPG,AFNE01.JPG,AFNE01.JPG,AFNE01.JPG,AFNE01.JPG,,,,,4,2,42,9,,,,,,,,,,,,,,,,,,,AMNE02.jpg,AMNE18.jpg,AMSA18.jpg,AMSA20.jpg,AMSA20.jpg,MS,2,num_4,32,num_2,0.616792685119,,,2017_Dec_06_1811,60.0747997517,FEMA4ImagesEEG,001,202451,
AFNE01.JPG,AFNE01.JPG,AFNE01.JPG,AFNE01.JPG,AFNE01.JPG,AFNE01.JPG,,,,,4,3,43,0,,,,,,,,,,,,,,,,,,,AMSA01.jpg,AMSA19.jpg,AMNE04.jpg,AMNE13.jpg,AMSA19.jpg,MS,2,num_6,16,num_6,0.666778283892,,,2017_Dec_06_1811,60.0747997517,FEMA4ImagesEEG,001,202451,
AFNE01.JPG,AFNE01.JPG,AFNE01.JPG,AFNE01.JPG,AFNE01.JPG,AFNE01.JPG,,,,,4,4,44,3,,,,,,,,,,,,,,,,,,,AMSA16.jpg,AMNE16.jpg,AMNE08.jpg,AMSA18.jpg,AMSA18.jpg,MS,2,num_4,16,num_4,0.633468877757,,,2017_Dec_06_1811,60.0747997517,FEMA4ImagesEEG,001,202451,
AFNE01.JPG,AFNE01.JPG,AFNE01.JPG,AFNE01.JPG,AFNE01.JPG,AFNE01.JPG,,,,,4,5,45,6,,,,,,,,,,,,,,,,,,,AMNE19.jpg,AMNE04.jpg,AMSA08.jpg,AMSA07.jpg,AMNE04.jpg,MN,1,num_6,16,num_6,0.900048046606,,,2017_Dec_06_1811,60.0747997517,FEMA4ImagesEEG,001,202451,
AFNE01.JPG,AFNE01.JPG,AFNE01.JPG,AFNE01.JPG,AFNE01.JPG,AFNE01.JPG,,,,,4,6,46,5,,,,,,,,,,,,,,,,,,,AMNE14.jpg,AMSA13.jpg,AMNE01.jpg,AMSA03.jpg,AMSA13.jpg,MS,2,num_6,16,num_6,0.733392605791,,,2017_Dec_06_1811,60.0747997517,FEMA4ImagesEEG,001,202451,
AFNE01.JPG,AFNE01.JPG,AFNE01.JPG,AFNE01.JPG,AFNE01.JPG,AFNE01.JPG,,,,,4,7,47,4,,,,,,,,,,,,,,,,,,,AMNE13.jpg,AMSA14.jpg,AMSA16.jpg,AMNE06.jpg,AMSA14.jpg,MS,2,num_6,16,num_6,0.450141734676,,,2017_Dec_06_1811,60.0747997517,FEMA4ImagesEEG,001,202451,
AFNE01.JPG,AFNE01.JPG,AFNE01.JPG,AFNE01.JPG,AFNE01.JPG,AFNE01.JPG,,,,,4,8,48,1,,,,,,,,,,,,,,,,,,,AMNE02.jpg,AMSA18.jpg,AMNE13.jpg,AMSA20.jpg,AMSA20.jpg,MS,2,num_4,16,num_4,0.8334789488,,,2017_Dec_06_1811,60.0747997517,FEMA4ImagesEEG,001,202451,
AFNE01.JPG,AFNE01.JPG,AFNE01.JPG,AFNE01.JPG,AFNE01.JPG,AFNE01.JPG,,,,,4,9,49,8,,,,,,,,,,,,,,,,,,,AMNE08.jpg,AMSA06.jpg,AMNE11.jpg,AMSA09.jpg,AMNE08.jpg,MN,1,num_8,16,num_8,1.21674143104,,,2017_Dec_06_1811,60.0747997517,FEMA4ImagesEEG,001,202451,
AFNE01.JPG,AFNE01.JPG,AFNE01.JPG,AFNE01.JPG,AFNE01.JPG,AFNE01.JPG,,,,,5,0,50,0,,,,,,,,,,,,,,,,,,,AMSA05.jpg,AMNE08.jpg,AMNE02.jpg,AMSA06.jpg,AMSA05.jpg,MS,2,num_8,16,num_8,0.916851572692,,,2017_Dec_06_1811,60.0747997517,FEMA4ImagesEEG,001,202451,
AFNE01.JPG,AFNE01.JPG,AFNE01.JPG,AFNE01.JPG,AFNE01.JPG,AFNE01.JPG,,,,,5,1,51,9,,,,,,,,,,,,,,,,,,,AMSA17.jpg,AMSA07.jpg,AMNE01.jpg,AMNE14.jpg,AMSA17.jpg,MS,2,num_8,32,num_4,1.18330372917,,,2017_Dec_06_1811,60.0747997517,FEMA4ImagesEEG,001,202451,
AFNE01.JPG,AFNE01.JPG,AFNE01.JPG,AFNE01.JPG,AFNE01.JPG,AFNE01.JPG,,,,,5,2,52,3,,,,,,,,,,,,,,,,,,,AMSA07.jpg,AMNE01.jpg,AMNE20.jpg,AMSA14.jpg,AMNE01.jpg,MN,1,num_6,16,num_6,0.916819178034,,,2017_Dec_06_1811,60.0747997517,FEMA4ImagesEEG,001,202451,
AFNE01.JPG,AFNE01.JPG,AFNE01.JPG,AFNE01.JPG,AFNE01.JPG,AFNE01.JPG,,,,,5,3,53,6,,,,,,,,,,,,,,,,,,,AMSA01.jpg,AMSA15.jpg,AMNE10.jpg,AMNE14.jpg,AMNE10.jpg,MN,1,num_2,16,num_2,0.966741270619,,,2017_Dec_06_1811,60.0747997517,FEMA4ImagesEEG,001,202451,
AFNE01.JPG,AFNE01.JPG,AFNE01.JPG,AFNE01.JPG,AFNE01.JPG,AFNE01.JPG,,,,,5,4,54,2,,,,,,,,,,,,,,,,,,,AMSA11.jpg,AMNE12.jpg,AMNE09.jpg,AMSA09.jpg,AMSA09.jpg,MS,2,num_4,32,num_8,0.983486101264,,,2017_Dec_06_1811,60.0747997517,FEMA4ImagesEEG,001,202451,
AFNE01.JPG,AFNE01.JPG,AFNE01.JPG,AFNE01.JPG,AFNE01.JPG,AFNE01.JPG,,,,,5,5,55,1,,,,,,,,,,,,,,,,,,,AMNE04.jpg,AMNE11.jpg,AMSA14.jpg,AMSA13.jpg,AMSA13.jpg,MS,2,num_4,16,num_4,0.633489725878,,,2017_Dec_06_1811,60.0747997517,FEMA4ImagesEEG,001,202451,
AFNE01.JPG,AFNE01.JPG,AFNE01.JPG,AFNE01.JPG,AFNE01.JPG,AFNE01.JPG,,,,,5,6,56,8,,,,,,,,,,,,,,,,,,,AMNE11.jpg,AMNE09.jpg,AMSA15.jpg,AMSA17.jpg,AMSA15.jpg,MS,2,num_2,16,num_2,0.833497551735,,,2017_Dec_06_1811,60.0747997517,FEMA4ImagesEEG,001,202451,
AFNE01.JPG,AFNE01.JPG,AFNE01.JPG,AFNE01.JPG,AFNE01.JPG,AFNE01.JPG,,,,,5,7,57,5,,,,,,,,,,,,,,,,,,,AMSA13.jpg,AMNE09.jpg,AMNE05.jpg,AMSA15.jpg,AMNE05.jpg,MN,1,num_2,32,num_6,0.833483118564,,,2017_Dec_06_1811,60.0747997517,FEMA4ImagesEEG,001,202451,
AFNE01.JPG,AFNE01.JPG,AFNE01.JPG,AFNE01.JPG,AFNE01.JPG,AFNE01.JPG,,,,,5,8,58,4,,,,,,,,,,,,,,,,,,,AMSA10.jpg,AMNE04.jpg,AMSA05.jpg,AMNE01.jpg,AMNE04.jpg,MN,1,num_6,16,num_6,0.783458068734,,,2017_Dec_06_1811,60.0747997517,FEMA4ImagesEEG,001,202451,
AFNE01.JPG,AFNE01.JPG,AFNE01.JPG,AFNE01.JPG,AFNE01.JPG,AFNE01.JPG,,,,,5,9,59,7,,,,,,,,,,,,,,,,,,,AMNE08.jpg,AMSA12.jpg,AMSA09.jpg,AMNE04.jpg,AMNE08.jpg,MN,1,num_8,32,num_2,1.06671535503,,,2017_Dec_06_1811,60.0747997517,FEMA4ImagesEEG,001,202451,
,,,,,,,,,,,,,,,,,,,,,,,,,,,,,,,,,,,,,,,,,,,space,8.21589403809,2017_Dec_06_1811,60.0747997517,FEMA4ImagesEEG,001,202451,
AFNE01.JPG,AFNE01.JPG,AFNE01.JPG,AFNE01.JPG,AFNE01.JPG,AFNE01.JPG,,,,,,,,,0,0,0,4,,,,,,,,,,,,,,,AFSA15.jpg,AFSA01.jpg,AFNE06.jpg,AFNE16.jpg,AFNE16.jpg,FN,3,num_4,16,num_4,0.666803301545,,,2017_Dec_06_1811,60.0747997517,FEMA4ImagesEEG,001,202451,
AFNE01.JPG,AFNE01.JPG,AFNE01.JPG,AFNE01.JPG,AFNE01.JPG,AFNE01.JPG,,,,,,,,,0,1,1,2,,,,,,,,,,,,,,,AFNE18.jpg,AFSA16.jpg,AFNE20.jpg,AFSA01.jpg,AFSA01.jpg,FS,4,num_4,32,num_6,0.566851027543,,,2017_Dec_06_1811,60.0747997517,FEMA4ImagesEEG,001,202451,
AFNE01.JPG,AFNE01.JPG,AFNE01.JPG,AFNE01.JPG,AFNE01.JPG,AFNE01.JPG,,,,,,,,,0,2,2,8,,,,,,,,,,,,,,,AFSA07.jpg,AFNE17.jpg,AFNE19.jpg,AFSA09.jpg,AFNE19.jpg,FN,3,num_2,32,num_6,1.01674611354,,,2017_Dec_06_1811,60.0747997517,FEMA4ImagesEEG,001,202451,
AFNE01.JPG,AFNE01.JPG,AFNE01.JPG,AFNE01.JPG,AFNE01.JPG,AFNE01.JPG,,,,,,,,,0,3,3,1,,,,,,,,,,,,,,,AFNE17.jpg,AFSA03.jpg,AFNE20.jpg,AFSA18.jpg,AFNE17.jpg,FN,3,num_8,16,num_8,0.716774787754,,,2017_Dec_06_1811,60.0747997517,FEMA4ImagesEEG,001,202451,
AFNE01.JPG,AFNE01.JPG,AFNE01.JPG,AFNE01.JPG,AFNE01.JPG,AFNE01.JPG,,,,,,,,,0,4,4,0,,,,,,,,,,,,,,,AFSA09.jpg,AFNE02.jpg,AFSA03.jpg,AFNE09.jpg,AFNE02.jpg,FN,3,num_6,16,num_6,1.21676741098,,,2017_Dec_06_1811,60.0747997517,FEMA4ImagesEEG,001,202451,
AFNE01.JPG,AFNE01.JPG,AFNE01.JPG,AFNE01.JPG,AFNE01.JPG,AFNE01.JPG,,,,,,,,,0,5,5,7,,,,,,,,,,,,,,,AFNE20.jpg,AFNE18.jpg,AFSA16.jpg,AFSA15.jpg,AFNE20.jpg,FN,3,num_8,16,num_8,0.933378942311,,,2017_Dec_06_1811,60.0747997517,FEMA4ImagesEEG,001,202451,
AFNE01.JPG,AFNE01.JPG,AFNE01.JPG,AFNE01.JPG,AFNE01.JPG,AFNE01.JPG,,,,,,,,,0,6,6,6,,,,,,,,,,,,,,,AFNE10.jpg,AFSA07.jpg,AFSA15.jpg,AFNE12.jpg,AFNE12.jpg,FN,3,num_4,32,num_8,1.28342631576,,,2017_Dec_06_1811,60.0747997517,FEMA4ImagesEEG,001,202451,
AFNE01.JPG,AFNE01.JPG,AFNE01.JPG,AFNE01.JPG,AFNE01.JPG,AFNE01.JPG,,,,,,,,,0,7,7,3,,,,,,,,,,,,,,,AFNE03.jpg,AFNE18.jpg,AFSA12.jpg,AFSA01.jpg,AFSA12.jpg,FS,4,num_2,32,num_8,0.733418585733,,,2017_Dec_06_1811,60.0747997517,FEMA4ImagesEEG,001,202451,
AFNE01.JPG,AFNE01.JPG,AFNE01.JPG,AFNE01.JPG,AFNE01.JPG,AFNE01.JPG,,,,,,,,,0,8,8,5,,,,,,,,,,,,,,,AFNE09.jpg,AFSA05.jpg,AFNE12.jpg,AFSA08.jpg,AFNE12.jpg,FN,3,num_2,32,num_8,0.800135544268,,,2017_Dec_06_1811,60.0747997517,FEMA4ImagesEEG,001,202451,
AFNE01.JPG,AFNE01.JPG,AFNE01.JPG,AFNE01.JPG,AFNE01.JPG,AFNE01.JPG,,,,,,,,,0,9,9,9,,,,,,,,,,,,,,,AFSA05.jpg,AFNE06.jpg,AFNE07.jpg,AFSA09.jpg,AFSA05.jpg,FS,4,num_8,16,num_8,0.69980062847,,,2017_Dec_06_1811,60.0747997517,FEMA4ImagesEEG,001,202451,
AFNE01.JPG,AFNE01.JPG,AFNE01.JPG,AFNE01.JPG,AFNE01.JPG,AFNE01.JPG,,,,,,,,,1,0,10,9,,,,,,,,,,,,,,,AFNE08.jpg,AFSA13.jpg,AFSA08.jpg,AFNE02.jpg,AFSA13.jpg,FS,4,num_6,16,num_6,0.700190968113,,,2017_Dec_06_1811,60.0747997517,FEMA4ImagesEEG,001,202451,
AFNE01.JPG,AFNE01.JPG,AFNE01.JPG,AFNE01.JPG,AFNE01.JPG,AFNE01.JPG,,,,,,,,,1,1,11,3,,,,,,,,,,,,,,,AFNE14.jpg,AFSA10.jpg,AFNE09.jpg,AFSA05.jpg,AFNE14.jpg,FN,3,num_8,16,num_8,1.03493811982,,,2017_Dec_06_1811,60.0747997517,FEMA4ImagesEEG,001,202451,
AFNE01.JPG,AFNE01.JPG,AFNE01.JPG,AFNE01.JPG,AFNE01.JPG,AFNE01.JPG,,,,,,,,,1,2,12,6,,,,,,,,,,,,,,,AFSA07.jpg,AFNE18.jpg,AFNE20.jpg,AFSA08.jpg,AFNE18.jpg,FN,3,num_6,16,num_6,0.68351766211,,,2017_Dec_06_1811,60.0747997517,FEMA4ImagesEEG,001,202451,
AFNE01.JPG,AFNE01.JPG,AFNE01.JPG,AFNE01.JPG,AFNE01.JPG,AFNE01.JPG,,,,,,,,,1,3,13,5,,,,,,,,,,,,,,,AFSA03.jpg,AFNE08.jpg,AFNE13.jpg,AFSA18.jpg,AFSA03.jpg,FS,4,num_8,16,num_8,0.78344042832,,,2017_Dec_06_1811,60.0747997517,FEMA4ImagesEEG,001,202451,
AFNE01.JPG,AFNE01.JPG,AFNE01.JPG,AFNE01.JPG,AFNE01.JPG,AFNE01.JPG,,,,,,,,,1,4,14,8,,,,,,,,,,,,,,,AFSA02.jpg,AFSA15.jpg,AFNE13.jpg,AFNE17.jpg,AFSA02.jpg,FS,4,num_8,32,num_6,1.81673219381,,,2017_Dec_06_1811,60.0747997517,FEMA4ImagesEEG,001,202451,
AFNE01.JPG,AFNE01.JPG,AFNE01.JPG,AFNE01.JPG,AFNE01.JPG,AFNE01.JPG,,,,,,,,,1,5,15,7,,,,,,,,,,,,,,,AFSA11.jpg,AFNE08.jpg,AFNE11.jpg,AFSA03.jpg,AFNE08.jpg,FN,3,num_6,16,num_6,0.883445303421,,,2017_Dec_06_1811,60.0747997517,FEMA4ImagesEEG,001,202451,
AFNE01.JPG,AFNE01.JPG,AFNE01.JPG,AFNE01.JPG,AFNE01.JPG,AFNE01.JPG,,,,,,,,,1,6,16,0,,,,,,,,,,,,,,,AFSA05.jpg,AFSA16.jpg,AFNE18.jpg,AFNE16.jpg,AFSA16.jpg,FS,4,num_6,16,num_6,1.00014689867,,,2017_Dec_06_1811,60.0747997517,FEMA4ImagesEEG,001,202451,
AFNE01.JPG,AFNE01.JPG,AFNE01.JPG,AFNE01.JPG,AFNE01.JPG,AFNE01.JPG,,,,,,,,,1,7,17,2,,,,,,,,,,,,,,,AFSA03.jpg,AFNE15.jpg,AFSA09.jpg,AFNE13.jpg,AFSA03.jpg,FS,4,num_8,16,num_8,0.600155302091,,,2017_Dec_06_1811,60.0747997517,FEMA4ImagesEEG,001,202451,
AFNE01.JPG,AFNE01.JPG,AFNE01.JPG,AFNE01.JPG,AFNE01.JPG,AFNE01.JPG,,,,,,,,,1,8,18,4,,,,,,,,,,,,,,,AFNE11.jpg,AFNE19.jpg,AFSA17.jpg,AFSA02.jpg,AFNE11.jpg,FN,3,num_8,16,num_8,0.683491682168,,,2017_Dec_06_1811,60.0747997517,FEMA4ImagesEEG,001,202451,
AFNE01.JPG,AFNE01.JPG,AFNE01.JPG,AFNE01.JPG,AFNE01.JPG,AFNE01.JPG,,,,,,,,,1,9,19,1,,,,,,,,,,,,,,,AFNE20.jpg,AFSA02.jpg,AFSA10.jpg,AFNE11.jpg,AFSA10.jpg,FS,4,num_2,16,num_2,1.21672379016,,,2017_Dec_06_1811,60.0747997517,FEMA4ImagesEEG,001,202451,
AFNE01.JPG,AFNE01.JPG,AFNE01.JPG,AFNE01.JPG,AFNE01.JPG,AFNE01.JPG,,,,,,,,,2,0,20,8,,,,,,,,,,,,,,,AFSA01.jpg,AFNE18.jpg,AFSA16.jpg,AFNE14.jpg,AFNE14.jpg,FN,3,num_4,16,num_4,1.09995580208,,,2017_Dec_06_1811,60.0747997517,FEMA4ImagesEEG,001,202451,
AFNE01.JPG,AFNE01.JPG,AFNE01.JPG,AFNE01.JPG,AFNE01.JPG,AFNE01.JPG,,,,,,,,,2,1,21,2,,,,,,,,,,,,,,,AFSA11.jpg,AFSA12.jpg,AFNE07.jpg,AFNE04.jpg,AFNE07.jpg,FN,3,num_2,32,num_4,0.800100904424,,,2017_Dec_06_1811,60.0747997517,FEMA4ImagesEEG,001,202451,
AFNE01.JPG,AFNE01.JPG,AFNE01.JPG,AFNE01.JPG,AFNE01.JPG,AFNE01.JPG,,,,,,,,,2,2,22,6,,,,,,,,,,,,,,,AFSA16.jpg,AFNE04.jpg,AFNE20.jpg,AFSA08.jpg,AFNE20.jpg,FN,3,num_2,32,num_6,0.883460057434,,,2017_Dec_06_1811,60.0747997517,FEMA4ImagesEEG,001,202451,
AFNE01.JPG,AFNE01.JPG,AFNE01.JPG,AFNE01.JPG,AFNE01.JPG,AFNE01.JPG,,,,,,,,,2,3,23,9,,,,,,,,,,,,,,,AFNE13.jpg,AFSA18.jpg,AFNE06.jpg,AFSA07.jpg,AFSA18.jpg,FS,4,num_6,16,num_6,0.600152736064,,,2017_Dec_06_1811,60.0747997517,FEMA4ImagesEEG,001,202451,
AFNE01.JPG,AFNE01.JPG,AFNE01.JPG,AFNE01.JPG,AFNE01.JPG,AFNE01.JPG,,,,,,,,,2,4,24,0,,,,,,,,,,,,,,,AFNE04.jpg,AFNE10.jpg,AFSA14.jpg,AFSA04.jpg,AFSA14.jpg,FS,4,num_2,16,num_2,0.883452359587,,,2017_Dec_06_1811,60.0747997517,FEMA4ImagesEEG,001,202451,
AFNE01.JPG,AFNE01.JPG,AFNE01.JPG,AFNE01.JPG,AFNE01.JPG,AFNE01.JPG,,,,,,,,,2,5,25,3,,,,,,,,,,,,,,,AFNE09.jpg,AFSA02.jpg,AFNE19.jpg,AFSA06.jpg,AFSA02.jpg,FS,4,num_6,16,num_6,0.700120726135,,,2017_Dec_06_1811,60.0747997517,FEMA4ImagesEEG,001,202451,
AFNE01.JPG,AFNE01.JPG,AFNE01.JPG,AFNE01.JPG,AFNE01.JPG,AFNE01.JPG,,,,,,,,,2,6,26,5,,,,,,,,,,,,,,,AFSA10.jpg,AFNE18.jpg,AFSA19.jpg,AFNE11.jpg,AFSA19.jpg,FS,4,num_2,32,num_6,0.783436258556,,,2017_Dec_06_1811,60.0747997517,FEMA4ImagesEEG,001,202451,
AFNE01.JPG,AFNE01.JPG,AFNE01.JPG,AFNE01.JPG,AFNE01.JPG,AFNE01.JPG,,,,,,,,,2,7,27,1,,,,,,,,,,,,,,,AFNE12.jpg,AFSA19.jpg,AFSA10.jpg,AFNE10.jpg,AFSA19.jpg,FS,4,num_6,16,num_6,0.450191449374,,,2017_Dec_06_1811,60.0747997517,FEMA4ImagesEEG,001,202451,
AFNE01.JPG,AFNE01.JPG,AFNE01.JPG,AFNE01.JPG,AFNE01.JPG,AFNE01.JPG,,,,,,,,,2,8,28,7,,,,,,,,,,,,,,,AFNE02.jpg,AFSA13.jpg,AFSA05.jpg,AFNE20.jpg,AFNE02.jpg,FN,3,num_8,16,num_8,0.950093944557,,,2017_Dec_06_1811,60.0747997517,FEMA4ImagesEEG,001,202451,
AFNE01.JPG,AFNE01.JPG,AFNE01.JPG,AFNE01.JPG,AFNE01.JPG,AFNE01.JPG,,,,,,,,,2,9,29,4,,,,,,,,,,,,,,,AFNE10.jpg,AFNE20.jpg,AFSA12.jpg,AFSA16.jpg,AFNE20.jpg,FN,3,num_6,32,num_2,1.21678890055,,,2017_Dec_06_1811,60.0747997517,FEMA4ImagesEEG,001,202451,
AFNE01.JPG,AFNE01.JPG,AFNE01.JPG,AFNE01.JPG,AFNE01.JPG,AFNE01.JPG,,,,,,,,,3,0,30,9,,,,,,,,,,,,,,,AFNE03.jpg,AFNE16.jpg,AFSA04.jpg,AFSA01.jpg,AFNE16.jpg,FN,3,num_6,16,num_6,0.783442993881,,,2017_Dec_06_1811,60.0747997517,FEMA4ImagesEEG,001,202451,
AFNE01.JPG,AFNE01.JPG,AFNE01.JPG,AFNE01.JPG,AFNE01.JPG,AFNE01.JPG,,,,,,,,,3,1,31,4,,,,,,,,,,,,,,,AFNE12.jpg,AFSA07.jpg,AFNE16.jpg,AFSA05.jpg,AFNE12.jpg,FN,3,num_8,16,num_8,0.916775236838,,,2017_Dec_06_1811,60.0747997517,FEMA4ImagesEEG,001,202451,
AFNE01.JPG,AFNE01.JPG,AFNE01.JPG,AFNE01.JPG,AFNE01.JPG,AFNE01.JPG,,,,,,,,,3,2,32,6,,,,,,,,,,,,,,,AFNE05.jpg,AFSA11.jpg,AFNE11.jpg,AFSA10.jpg,AFNE05.jpg,FN,3,num_8,16,num_8,0.86678643059,,,2017_Dec_06_1811,60.0747997517,FEMA4ImagesEEG,001,202451,
AFNE01.JPG,AFNE01.JPG,AFNE01.JPG,AFNE01.JPG,AFNE01.JPG,AFNE01.JPG,,,,,,,,,3,3,33,3,,,,,,,,,,,,,,,AFNE01.jpg,AFNE20.jpg,AFSA07.jpg,AFSA16.jpg,AFSA07.jpg,FS,4,num_2,32,num_8,0.983493157662,,,2017_Dec_06_1811,60.0747997517,FEMA4ImagesEEG,001,202451,
AFNE01.JPG,AFNE01.JPG,AFNE01.JPG,AFNE01.JPG,AFNE01.JPG,AFNE01.JPG,,,,,,,,,3,4,34,8,,,,,,,,,,,,,,,AFNE17.jpg,AFNE16.jpg,AFSA07.jpg,AFSA18.jpg,AFSA18.jpg,FS,4,num_4,16,num_4,0.516823091079,,,2017_Dec_06_1811,60.0747997517,FEMA4ImagesEEG,001,202451,
AFNE01.JPG,AFNE01.JPG,AFNE01.JPG,AFNE01.JPG,AFNE01.JPG,AFNE01.JPG,,,,,,,,,3,5,35,5,,,,,,,,,,,,,,,AFNE15.jpg,AFSA09.jpg,AFNE11.jpg,AFSA17.jpg,AFSA17.jpg,FS,4,num_4,32,num_6,0.833436290501,,,2017_Dec_06_1811,60.0747997517,FEMA4ImagesEEG,001,202451,
AFNE01.JPG,AFNE01.JPG,AFNE01.JPG,AFNE01.JPG,AFNE01.JPG,AFNE01.JPG,,,,,,,,,3,6,36,0,,,,,,,,,,,,,,,AFSA13.jpg,AFSA17.jpg,AFNE06.jpg,AFNE05.jpg,AFNE06.jpg,FN,3,num_2,32,num_6,0.983509515412,,,2017_Dec_06_1811,60.0747997517,FEMA4ImagesEEG,001,202451,
AFNE01.JPG,AFNE01.JPG,AFNE01.JPG,AFNE01.JPG,AFNE01.JPG,AFNE01.JPG,,,,,,,,,3,7,37,7,,,,,,,,,,,,,,,AFSA20.jpg,AFSA17.jpg,AFNE08.jpg,AFNE02.jpg,AFNE08.jpg,FN,3,num_2,16,num_2,1.11661082599,,,2017_Dec_06_1811,60.0747997517,FEMA4ImagesEEG,001,202451,
AFNE01.JPG,AFNE01.JPG,AFNE01.JPG,AFNE01.JPG,AFNE01.JPG,AFNE01.JPG,,,,,,,,,3,8,38,1,,,,,,,,,,,,,,,AFNE15.jpg,AFNE08.jpg,AFSA18.jpg,AFSA15.jpg,AFSA15.jpg,FS,4,num_4,16,num_4,0.550155269681,,,2017_Dec_06_1811,60.0747997517,FEMA4ImagesEEG,001,202451,
AFNE01.JPG,AFNE01.JPG,AFNE01.JPG,AFNE01.JPG,AFNE01.JPG,AFNE01.JPG,,,,,,,,,3,9,39,2,,,,,,,,,,,,,,,AFSA16.jpg,AFSA09.jpg,AFNE20.jpg,AFNE18.jpg,AFNE20.jpg,FN,3,num_2,32,num_4,0.900109949522,,,2017_Dec_06_1811,60.0747997517,FEMA4ImagesEEG,001,202451,
AFNE01.JPG,AFNE01.JPG,AFNE01.JPG,AFNE01.JPG,AFNE01.JPG,AFNE01.JPG,,,,,,,,,4,0,40,1,,,,,,,,,,,,,,,AFSA05.jpg,AFSA19.jpg,AFNE19.jpg,AFNE17.jpg,AFSA05.jpg,FS,4,num_8,16,num_8,0.866768789943,,,2017_Dec_06_1811,60.0747997517,FEMA4ImagesEEG,001,202451,
AFNE01.JPG,AFNE01.JPG,AFNE01.JPG,AFNE01.JPG,AFNE01.JPG,AFNE01.JPG,,,,,,,,,4,1,41,4,,,,,,,,,,,,,,,AFSA06.jpg,AFSA05.jpg,AFNE03.jpg,AFNE11.jpg,AFSA06.jpg,FS,4,num_8,32,num_6,0.783285511192,,,2017_Dec_06_1811,60.0747997517,FEMA4ImagesEEG,001,202451,
AFNE01.JPG,AFNE01.JPG,AFNE01.JPG,AFNE01.JPG,AFNE01.JPG,AFNE01.JPG,,,,,,,,,4,2,42,2,,,,,,,,,,,,,,,AFNE02.jpg,AFNE20.jpg,AFSA15.jpg,AFSA20.jpg,AFSA20.jpg,FS,4,num_4,32,num_8,0.983431254979,,,2017_Dec_06_1811,60.0747997517,FEMA4ImagesEEG,001,202451,
AFNE01.JPG,AFNE01.JPG,AFNE01.JPG,AFNE01.JPG,AFNE01.JPG,AFNE01.JPG,,,,,,,,,4,3,43,3,,,,,,,,,,,,,,,AFNE15.jpg,AFNE20.jpg,AFSA16.jpg,AFSA15.jpg,AFSA15.jpg,FS,4,num_4,16,num_4,0.633540402632,,,2017_Dec_06_1811,60.0747997517,FEMA4ImagesEEG,001,202451,
AFNE01.JPG,AFNE01.JPG,AFNE01.JPG,AFNE01.JPG,AFNE01.JPG,AFNE01.JPG,,,,,,,,,4,4,44,6,,,,,,,,,,,,,,,AFSA12.jpg,AFNE11.jpg,AFSA16.jpg,AFNE08.jpg,AFSA16.jpg,FS,4,num_2,16,num_2,0.43358581909,,,2017_Dec_06_1811,60.0747997517,FEMA4ImagesEEG,001,202451,
AFNE01.JPG,AFNE01.JPG,AFNE01.JPG,AFNE01.JPG,AFNE01.JPG,AFNE01.JPG,,,,,,,,,4,5,45,5,,,,,,,,,,,,,,,AFNE10.jpg,AFSA14.jpg,AFSA10.jpg,AFNE16.jpg,AFNE10.jpg,FN,3,num_8,16,num_8,1.16671926784,,,2017_Dec_06_1811,60.0747997517,FEMA4ImagesEEG,001,202451,
AFNE01.JPG,AFNE01.JPG,AFNE01.JPG,AFNE01.JPG,AFNE01.JPG,AFNE01.JPG,,,,,,,,,4,6,46,8,,,,,,,,,,,,,,,AFNE01.jpg,AFNE09.jpg,AFSA19.jpg,AFSA10.jpg,AFNE01.jpg,FN,3,num_8,16,num_8,0.916757596191,,,2017_Dec_06_1811,60.0747997517,FEMA4ImagesEEG,001,202451,
AFNE01.JPG,AFNE01.JPG,AFNE01.JPG,AFNE01.JPG,AFNE01.JPG,AFNE01.JPG,,,,,,,,,4,7,47,9,,,,,,,,,,,,,,,AFNE16.jpg,AFNE06.jpg,AFSA09.jpg,AFSA16.jpg,AFSA16.jpg,FS,4,num_4,16,num_4,1.00018763239,,,2017_Dec_06_1811,60.0747997517,FEMA4ImagesEEG,001,202451,
AFNE01.JPG,AFNE01.JPG,AFNE01.JPG,AFNE01.JPG,AFNE01.JPG,AFNE01.JPG,,,,,,,,,4,8,48,7,,,,,,,,,,,,,,,AFNE04.jpg,AFSA16.jpg,AFNE07.jpg,AFSA07.jpg,AFNE07.jpg,FN,3,num_2,32,num_4,0.900152928662,,,2017_Dec_06_1811,60.0747997517,FEMA4ImagesEEG,001,202451,
AFNE01.JPG,AFNE01.JPG,AFNE01.JPG,AFNE01.JPG,AFNE01.JPG,AFNE01.JPG,,,,,,,,,4,9,49,0,,,,,,,,,,,,,,,AFNE13.jpg,AFNE09.jpg,AFSA02.jpg,AFSA01.jpg,AFNE09.jpg,FN,3,num_6,16,num_6,0.750132946298,,,2017_Dec_06_1811,60.0747997517,FEMA4ImagesEEG,001,202451,
AFNE01.JPG,AFNE01.JPG,AFNE01.JPG,AFNE01.JPG,AFNE01.JPG,AFNE01.JPG,,,,,,,,,5,0,50,6,,,,,,,,,,,,,,,AFNE05.jpg,AFNE14.jpg,AFSA15.jpg,AFSA03.jpg,AFSA15.jpg,FS,4,num_2,16,num_2,0.850170537131,,,2017_Dec_06_1811,60.0747997517,FEMA4ImagesEEG,001,202451,
AFNE01.JPG,AFNE01.JPG,AFNE01.JPG,AFNE01.JPG,AFNE01.JPG,AFNE01.JPG,,,,,,,,,5,1,51,7,,,,,,,,,,,,,,,AFNE08.jpg,AFSA20.jpg,AFSA04.jpg,AFNE18.jpg,AFNE18.jpg,FN,3,num_4,16,num_4,0.716693320079,,,2017_Dec_06_1811,60.0747997517,FEMA4ImagesEEG,001,202451,
AFNE01.JPG,AFNE01.JPG,AFNE01.JPG,AFNE01.JPG,AFNE01.JPG,AFNE01.JPG,,,,,,,,,5,2,52,2,,,,,,,,,,,,,,,AFSA09.jpg,AFNE14.jpg,AFNE03.jpg,AFSA08.jpg,AFNE03.jpg,FN,3,num_2,32,num_8,1.05009978195,,,2017_Dec_06_1811,60.0747997517,FEMA4ImagesEEG,001,202451,
AFNE01.JPG,AFNE01.JPG,AFNE01.JPG,AFNE01.JPG,AFNE01.JPG,AFNE01.JPG,,,,,,,,,5,3,53,1,,,,,,,,,,,,,,,AFNE09.jpg,AFSA01.jpg,AFSA11.jpg,AFNE17.jpg,AFSA11.jpg,FS,4,num_2,16,num_2,0.550137629034,,,2017_Dec_06_1811,60.0747997517,FEMA4ImagesEEG,001,202451,
AFNE01.JPG,AFNE01.JPG,AFNE01.JPG,AFNE01.JPG,AFNE01.JPG,AFNE01.JPG,,,,,,,,,5,4,54,3,,,,,,,,,,,,,,,AFSA11.jpg,AFSA08.jpg,AFNE09.jpg,AFNE03.jpg,AFSA11.jpg,FS,4,num_8,16,num_8,0.550165533554,,,2017_Dec_06_1811,60.0747997517,FEMA4ImagesEEG,001,202451,
AFNE01.JPG,AFNE01.JPG,AFNE01.JPG,AFNE01.JPG,AFNE01.JPG,AFNE01.JPG,,,,,,,,,5,5,55,8,,,,,,,,,,,,,,,AFSA05.jpg,AFNE02.jpg,AFSA20.jpg,AFNE11.jpg,AFNE11.jpg,FN,3,num_4,16,num_4,0.816769720055,,,2017_Dec_06_1811,60.0747997517,FEMA4ImagesEEG,001,202451,
AFNE01.JPG,AFNE01.JPG,AFNE01.JPG,AFNE01.JPG,AFNE01.JPG,AFNE01.JPG,,,,,,,,,5,6,56,4,,,,,,,,,,,,,,,AFSA12.jpg,AFNE15.jpg,AFSA05.jpg,AFNE18.jpg,AFNE18.jpg,FN,3,num_4,16,num_4,0.950128584402,,,2017_Dec_06_1811,60.0747997517,FEMA4ImagesEEG,001,202451,
AFNE01.JPG,AFNE01.JPG,AFNE01.JPG,AFNE01.JPG,AFNE01.JPG,AFNE01.JPG,,,,,,,,,5,7,57,0,,,,,,,,,,,,,,,AFSA16.jpg,AFSA14.jpg,AFNE20.jpg,AFNE12.jpg,AFNE12.jpg,FN,3,num_4,16,num_4,0.766835439485,,,2017_Dec_06_1811,60.0747997517,FEMA4ImagesEEG,001,202451,
AFNE01.JPG,AFNE01.JPG,AFNE01.JPG,AFNE01.JPG,AFNE01.JPG,AFNE01.JPG,,,,,,,,,5,8,58,5,,,,,,,,,,,,,,,AFSA20.jpg,AFNE04.jpg,AFSA03.jpg,AFNE03.jpg,AFSA20.jpg,FS,4,num_8,32,num_4,1.0000926936,,,2017_Dec_06_1811,60.0747997517,FEMA4ImagesEEG,001,202451,
AFNE01.JPG,AFNE01.JPG,AFNE01.JPG,AFNE01.JPG,AFNE01.JPG,AFNE01.JPG,,,,,,,,,5,9,59,9,,,,,,,,,,,,,,,AFSA06.jpg,AFNE04.jpg,AFSA18.jpg,AFNE12.jpg,AFSA18.jpg,FS,4,num_2,16,num_2,0.583485203329,,,2017_Dec_06_1811,60.0747997517,FEMA4ImagesEEG,001,202451,
,,,,,,,,,,,,,,,,,,,,,,,,,,,,,,,,,,,,,,,,,,,space,17.1486632552,2017_Dec_06_1811,60.0747997517,FEMA4ImagesEEG,001,202451,
AFNE01.JPG,AFNE01.JPG,AFNE01.JPG,AFNE01.JPG,AFNE01.JPG,AFNE01.JPG,,,,,,,,,,,,,0,0,0,2,,,,,,,,,,,AMNE04.jpg,AMSA11.jpg,AMNE07.jpg,AMSA13.jpg,AMSA11.jpg,MS,2,num_6,16,num_6,0.483486742713,,,2017_Dec_06_1811,60.0747997517,FEMA4ImagesEEG,001,202451,
AFNE01.JPG,AFNE01.JPG,AFNE01.JPG,AFNE01.JPG,AFNE01.JPG,AFNE01.JPG,,,,,,,,,,,,,0,1,1,8,,,,,,,,,,,AMSA01.jpg,AMNE20.jpg,AMNE19.jpg,AMSA14.jpg,AMSA01.jpg,MS,2,num_8,16,num_8,0.66676352988,,,2017_Dec_06_1811,60.0747997517,FEMA4ImagesEEG,001,202451,
AFNE01.JPG,AFNE01.JPG,AFNE01.JPG,AFNE01.JPG,AFNE01.JPG,AFNE01.JPG,,,,,,,,,,,,,0,2,2,3,,,,,,,,,,,AMSA18.jpg,AMSA12.jpg,AMNE02.jpg,AMNE05.jpg,AMNE05.jpg,MN,1,num_4,16,num_4,0.716753298184,,,2017_Dec_06_1811,60.0747997517,FEMA4ImagesEEG,001,202451,
AFNE01.JPG,AFNE01.JPG,AFNE01.JPG,AFNE01.JPG,AFNE01.JPG,AFNE01.JPG,,,,,,,,,,,,,0,3,3,7,,,,,,,,,,,AMSA07.jpg,AMNE20.jpg,AMSA13.jpg,AMNE16.jpg,AMSA13.jpg,MS,2,num_2,32,num_8,0.700123613002,,,2017_Dec_06_1811,60.0747997517,FEMA4ImagesEEG,001,202451,
AFNE01.JPG,AFNE01.JPG,AFNE01.JPG,AFNE01.JPG,AFNE01.JPG,AFNE01.JPG,,,,,,,,,,,,,0,4,4,6,,,,,,,,,,,AMNE01.jpg,AMNE16.jpg,AMSA12.jpg,AMSA14.jpg,AMSA12.jpg,MS,2,num_2,32,num_8,0.866812731372,,,2017_Dec_06_1811,60.0747997517,FEMA4ImagesEEG,001,202451,
AFNE01.JPG,AFNE01.JPG,AFNE01.JPG,AFNE01.JPG,AFNE01.JPG,AFNE01.JPG,,,,,,,,,,,,,0,5,5,4,,,,,,,,,,,AMSA12.jpg,AMNE17.jpg,AMSA07.jpg,AMNE16.jpg,AMSA12.jpg,MS,2,num_8,16,num_8,0.550090801204,,,2017_Dec_06_1811,60.0747997517,FEMA4ImagesEEG,001,202451,
AFNE01.JPG,AFNE01.JPG,AFNE01.JPG,AFNE01.JPG,AFNE01.JPG,AFNE01.JPG,,,,,,,,,,,,,0,6,6,0,,,,,,,,,,,AMSA03.jpg,AMNE06.jpg,AMNE19.jpg,AMSA14.jpg,AMNE19.jpg,MN,1,num_2,32,num_6,0.866797977127,,,2017_Dec_06_1811,60.0747997517,FEMA4ImagesEEG,001,202451,
AFNE01.JPG,AFNE01.JPG,AFNE01.JPG,AFNE01.JPG,AFNE01.JPG,AFNE01.JPG,,,,,,,,,,,,,0,7,7,9,,,,,,,,,,,AMSA03.jpg,AMSA04.jpg,AMNE20.jpg,AMNE05.jpg,AMSA04.jpg,MS,2,num_6,16,num_6,0.533506660722,,,2017_Dec_06_1811,60.0747997517,FEMA4ImagesEEG,001,202451,
AFNE01.JPG,AFNE01.JPG,AFNE01.JPG,AFNE01.JPG,AFNE01.JPG,AFNE01.JPG,,,,,,,,,,,,,0,8,8,1,,,,,,,,,,,AMNE13.jpg,AMSA19.jpg,AMNE09.jpg,AMSA10.jpg,AMNE09.jpg,MN,1,num_2,16,num_2,1.28331566066,,,2017_Dec_06_1811,60.0747997517,FEMA4ImagesEEG,001,202451,
AFNE01.JPG,AFNE01.JPG,AFNE01.JPG,AFNE01.JPG,AFNE01.JPG,AFNE01.JPG,,,,,,,,,,,,,0,9,9,5,,,,,,,,,,,AMNE05.jpg,AMSA02.jpg,AMSA13.jpg,AMNE01.jpg,AMSA02.jpg,MS,2,num_6,16,num_6,0.533464964712,,,2017_Dec_06_1811,60.0747997517,FEMA4ImagesEEG,001,202451,
AFNE01.JPG,AFNE01.JPG,AFNE01.JPG,AFNE01.JPG,AFNE01.JPG,AFNE01.JPG,,,,,,,,,,,,,1,0,10,3,,,,,,,,,,,AMNE02.jpg,AMSA09.jpg,AMNE19.jpg,AMSA07.jpg,AMNE02.jpg,MN,1,num_8,16,num_8,1.01674835896,,,2017_Dec_06_1811,60.0747997517,FEMA4ImagesEEG,001,202451,
AFNE01.JPG,AFNE01.JPG,AFNE01.JPG,AFNE01.JPG,AFNE01.JPG,AFNE01.JPG,,,,,,,,,,,,,1,1,11,2,,,,,,,,,,,AMSA09.jpg,AMNE13.jpg,AMNE14.jpg,AMSA01.jpg,AMSA01.jpg,MS,2,num_4,16,num_4,0.983416180359,,,2017_Dec_06_1811,60.0747997517,FEMA4ImagesEEG,001,202451,
AFNE01.JPG,AFNE01.JPG,AFNE01.JPG,AFNE01.JPG,AFNE01.JPG,AFNE01.JPG,,,,,,,,,,,,,1,2,12,9,,,,,,,,,,,AMSA19.jpg,AMSA18.jpg,AMNE09.jpg,AMNE16.jpg,AMNE09.jpg,MN,1,num_2,16,num_2,1.0334258345,,,2017_Dec_06_1811,60.0747997517,FEMA4ImagesEEG,001,202451,
AFNE01.JPG,AFNE01.JPG,AFNE01.JPG,AFNE01.JPG,AFNE01.JPG,AFNE01.JPG,,,,,,,,,,,,,1,3,13,7,,,,,,,,,,,AMSA13.jpg,AMSA04.jpg,AMNE13.jpg,AMNE01.jpg,AMNE01.jpg,MN,1,num_4,16,num_4,1.20006042719,,,2017_Dec_06_1811,60.0747997517,FEMA4ImagesEEG,001,202451,
AFNE01.JPG,AFNE01.JPG,AFNE01.JPG,AFNE01.JPG,AFNE01.JPG,AFNE01.JPG,,,,,,,,,,,,,1,4,14,4,,,,,,,,,,,AMNE11.jpg,AMSA14.jpg,AMNE08.jpg,AMSA04.jpg,AMSA14.jpg,MS,2,num_6,16,num_6,0.617012070725,,,2017_Dec_06_1811,60.0747997517,FEMA4ImagesEEG,001,202451,
AFNE01.JPG,AFNE01.JPG,AFNE01.JPG,AFNE01.JPG,AFNE01.JPG,AFNE01.JPG,,,,,,,,,,,,,1,5,15,8,,,,,,,,,,,AMNE16.jpg,AMSA20.jpg,AMSA17.jpg,AMNE20.jpg,AMSA17.jpg,MS,2,num_2,32,num_8,1.15013256134,,,2017_Dec_06_1811,60.0747997517,FEMA4ImagesEEG,001,202451,
AFNE01.JPG,AFNE01.JPG,AFNE01.JPG,AFNE01.JPG,AFNE01.JPG,AFNE01.JPG,,,,,,,,,,,,,1,6,16,6,,,,,,,,,,,AMSA04.jpg,AMSA12.jpg,AMNE02.jpg,AMNE11.jpg,AMSA04.jpg,MS,2,num_8,16,num_8,0.583481675247,,,2017_Dec_06_1811,60.0747997517,FEMA4ImagesEEG,001,202451,
AFNE01.JPG,AFNE01.JPG,AFNE01.JPG,AFNE01.JPG,AFNE01.JPG,AFNE01.JPG,,,,,,,,,,,,,1,7,17,0,,,,,,,,,,,AMSA17.jpg,AMNE13.jpg,AMNE19.jpg,AMSA13.jpg,AMNE13.jpg,MN,1,num_6,32,num_8,0.8836948385,,,2017_Dec_06_1811,60.0747997517,FEMA4ImagesEEG,001,202451,
AFNE01.JPG,AFNE01.JPG,AFNE01.JPG,AFNE01.JPG,AFNE01.JPG,AFNE01.JPG,,,,,,,,,,,,,1,8,18,5,,,,,,,,,,,AMNE15.jpg,AMSA01.jpg,AMNE07.jpg,AMSA10.jpg,AMSA10.jpg,MS,2,num_4,16,num_4,0.550201135688,,,2017_Dec_06_1811,60.0747997517,FEMA4ImagesEEG,001,202451,
AFNE01.JPG,AFNE01.JPG,AFNE01.JPG,AFNE01.JPG,AFNE01.JPG,AFNE01.JPG,,,,,,,,,,,,,1,9,19,1,,,,,,,,,,,AMNE04.jpg,AMSA14.jpg,AMNE16.jpg,AMSA01.jpg,AMNE16.jpg,MN,1,num_2,16,num_2,0.950202675071,,,2017_Dec_06_1811,60.0747997517,FEMA4ImagesEEG,001,202451,
AFNE01.JPG,AFNE01.JPG,AFNE01.JPG,AFNE01.JPG,AFNE01.JPG,AFNE01.JPG,,,,,,,,,,,,,2,0,20,2,,,,,,,,,,,AMNE11.jpg,AMSA12.jpg,AMSA11.jpg,AMNE01.jpg,AMNE11.jpg,MN,1,num_8,16,num_8,1.11674104608,,,2017_Dec_06_1811,60.0747997517,FEMA4ImagesEEG,001,202451,
AFNE01.JPG,AFNE01.JPG,AFNE01.JPG,AFNE01.JPG,AFNE01.JPG,AFNE01.JPG,,,,,,,,,,,,,2,1,21,5,,,,,,,,,,,AMNE09.jpg,AMSA11.jpg,AMNE20.jpg,AMSA15.jpg,AMNE09.jpg,MN,1,num_8,16,num_8,0.86675467738,,,2017_Dec_06_1811,60.0747997517,FEMA4ImagesEEG,001,202451,
AFNE01.JPG,AFNE01.JPG,AFNE01.JPG,AFNE01.JPG,AFNE01.JPG,AFNE01.JPG,,,,,,,,,,,,,2,2,22,3,,,,,,,,,,,AMNE11.jpg,AMNE01.jpg,AMSA05.jpg,AMSA02.jpg,AMNE11.jpg,MN,1,num_8,16,num_8,1.18341310136,,,2017_Dec_06_1811,60.0747997517,FEMA4ImagesEEG,001,202451,
AFNE01.JPG,AFNE01.JPG,AFNE01.JPG,AFNE01.JPG,AFNE01.JPG,AFNE01.JPG,,,,,,,,,,,,,2,3,23,4,,,,,,,,,,,AMSA16.jpg,AMNE19.jpg,AMSA01.jpg,AMNE04.jpg,AMNE19.jpg,MN,1,num_6,32,num_8,0.733497808455,,,2017_Dec_06_1811,60.0747997517,FEMA4ImagesEEG,001,202451,
AFNE01.JPG,AFNE01.JPG,AFNE01.JPG,AFNE01.JPG,AFNE01.JPG,AFNE01.JPG,,,,,,,,,,,,,2,4,24,9,,,,,,,,,,,AMSA02.jpg,AMNE05.jpg,AMSA05.jpg,AMNE06.jpg,AMSA02.jpg,MS,2,num_8,16,num_8,0.483450178523,,,2017_Dec_06_1811,60.0747997517,FEMA4ImagesEEG,001,202451,
AFNE01.JPG,AFNE01.JPG,AFNE01.JPG,AFNE01.JPG,AFNE01.JPG,AFNE01.JPG,,,,,,,,,,,,,2,5,25,8,,,,,,,,,,,AMNE13.jpg,AMSA19.jpg,AMNE19.jpg,AMSA03.jpg,AMSA03.jpg,MS,2,num_4,16,num_4,0.600167169236,,,2017_Dec_06_1811,60.0747997517,FEMA4ImagesEEG,001,202451,
AFNE01.JPG,AFNE01.JPG,AFNE01.JPG,AFNE01.JPG,AFNE01.JPG,AFNE01.JPG,,,,,,,,,,,,,2,6,26,6,,,,,,,,,,,AMNE16.jpg,AMSA05.jpg,AMNE10.jpg,AMSA14.jpg,AMSA05.jpg,MS,2,num_6,16,num_6,0.500119314995,,,2017_Dec_06_1811,60.0747997517,FEMA4ImagesEEG,001,202451,
AFNE01.JPG,AFNE01.JPG,AFNE01.JPG,AFNE01.JPG,AFNE01.JPG,AFNE01.JPG,,,,,,,,,,,,,2,7,27,0,,,,,,,,,,,AMSA06.jpg,AMNE03.jpg,AMNE02.jpg,AMSA14.jpg,AMSA14.jpg,MS,2,num_4,16,num_4,0.500151389046,,,2017_Dec_06_1811,60.0747997517,FEMA4ImagesEEG,001,202451,
AFNE01.JPG,AFNE01.JPG,AFNE01.JPG,AFNE01.JPG,AFNE01.JPG,AFNE01.JPG,,,,,,,,,,,,,2,8,28,7,,,,,,,,,,,AMSA11.jpg,AMNE06.jpg,AMNE01.jpg,AMSA20.jpg,AMSA11.jpg,MS,2,num_8,32,num_2,1.90006440436,,,2017_Dec_06_1811,60.0747997517,FEMA4ImagesEEG,001,202451,
AFNE01.JPG,AFNE01.JPG,AFNE01.JPG,AFNE01.JPG,AFNE01.JPG,AFNE01.JPG,,,,,,,,,,,,,2,9,29,1,,,,,,,,,,,AMSA06.jpg,AMNE07.jpg,AMNE19.jpg,AMSA08.jpg,AMSA06.jpg,MS,2,num_8,16,num_8,0.950188241666,,,2017_Dec_06_1811,60.0747997517,FEMA4ImagesEEG,001,202451,
AFNE01.JPG,AFNE01.JPG,AFNE01.JPG,AFNE01.JPG,AFNE01.JPG,AFNE01.JPG,,,,,,,,,,,,,3,0,30,7,,,,,,,,,,,AMNE01.jpg,AMNE19.jpg,AMSA10.jpg,AMSA01.jpg,AMSA01.jpg,MS,2,num_4,16,num_4,1.2000552956,,,2017_Dec_06_1811,60.0747997517,FEMA4ImagesEEG,001,202451,
AFNE01.JPG,AFNE01.JPG,AFNE01.JPG,AFNE01.JPG,AFNE01.JPG,AFNE01.JPG,,,,,,,,,,,,,3,1,31,0,,,,,,,,,,,AMSA16.jpg,AMNE13.jpg,AMNE18.jpg,AMSA19.jpg,AMNE13.jpg,MN,1,num_6,16,num_6,0.983440235723,,,2017_Dec_06_1811,60.0747997517,FEMA4ImagesEEG,001,202451,
AFNE01.JPG,AFNE01.JPG,AFNE01.JPG,AFNE01.JPG,AFNE01.JPG,AFNE01.JPG,,,,,,,,,,,,,3,2,32,8,,,,,,,,,,,AMSA20.jpg,AMNE16.jpg,AMNE12.jpg,AMSA14.jpg,AMSA20.jpg,MS,2,num_8,16,num_8,0.416794802062,,,2017_Dec_06_1811,60.0747997517,FEMA4ImagesEEG,001,202451,
AFNE01.JPG,AFNE01.JPG,AFNE01.JPG,AFNE01.JPG,AFNE01.JPG,AFNE01.JPG,,,,,,,,,,,,,3,3,33,6,,,,,,,,,,,AMSA17.jpg,AMNE10.jpg,AMSA09.jpg,AMNE19.jpg,AMNE19.jpg,MN,1,num_4,16,num_4,0.800133299315,,,2017_Dec_06_1811,60.0747997517,FEMA4ImagesEEG,001,202451,
AFNE01.JPG,AFNE01.JPG,AFNE01.JPG,AFNE01.JPG,AFNE01.JPG,AFNE01.JPG,,,,,,,,,,,,,3,4,34,2,,,,,,,,,,,AMNE03.jpg,AMSA08.jpg,AMSA16.jpg,AMNE08.jpg,AMNE08.jpg,MN,1,num_4,16,num_4,0.816817510175,,,2017_Dec_06_1811,60.0747997517,FEMA4ImagesEEG,001,202451,
AFNE01.JPG,AFNE01.JPG,AFNE01.JPG,AFNE01.JPG,AFNE01.JPG,AFNE01.JPG,,,,,,,,,,,,,3,5,35,4,,,,,,,,,,,AMSA14.jpg,AMSA02.jpg,AMNE09.jpg,AMNE04.jpg,AMSA02.jpg,MS,2,num_6,16,num_6,0.566773408791,,,2017_Dec_06_1811,60.0747997517,FEMA4ImagesEEG,001,202451,
AFNE01.JPG,AFNE01.JPG,AFNE01.JPG,AFNE01.JPG,AFNE01.JPG,AFNE01.JPG,,,,,,,,,,,,,3,6,36,3,,,,,,,,,,,AMNE16.jpg,AMNE10.jpg,AMSA09.jpg,AMSA18.jpg,AMNE16.jpg,MN,1,num_8,32,num_6,0.950195298065,,,2017_Dec_06_1811,60.0747997517,FEMA4ImagesEEG,001,202451,
AFNE01.JPG,AFNE01.JPG,AFNE01.JPG,AFNE01.JPG,AFNE01.JPG,AFNE01.JPG,,,,,,,,,,,,,3,7,37,1,,,,,,,,,,,AMSA14.jpg,AMNE07.jpg,AMNE14.jpg,AMSA18.jpg,AMNE14.jpg,MN,1,num_2,16,num_2,0.966790985083,,,2017_Dec_06_1811,60.0747997517,FEMA4ImagesEEG,001,202451,
AFNE01.JPG,AFNE01.JPG,AFNE01.JPG,AFNE01.JPG,AFNE01.JPG,AFNE01.JPG,,,,,,,,,,,,,3,8,38,5,,,,,,,,,,,AMSA13.jpg,AMNE08.jpg,AMSA18.jpg,AMNE06.jpg,AMNE06.jpg,MN,1,num_4,16,num_4,0.550164571265,,,2017_Dec_06_1811,60.0747997517,FEMA4ImagesEEG,001,202451,
AFNE01.JPG,AFNE01.JPG,AFNE01.JPG,AFNE01.JPG,AFNE01.JPG,AFNE01.JPG,,,,,,,,,,,,,3,9,39,9,,,,,,,,,,,AMNE13.jpg,AMSA08.jpg,AMNE06.jpg,AMSA13.jpg,AMNE06.jpg,MN,1,num_2,32,num_4,0.700327923754,,,2017_Dec_06_1811,60.0747997517,FEMA4ImagesEEG,001,202451,
AFNE01.JPG,AFNE01.JPG,AFNE01.JPG,AFNE01.JPG,AFNE01.JPG,AFNE01.JPG,,,,,,,,,,,,,4,0,40,1,,,,,,,,,,,AMSA09.jpg,AMNE05.jpg,AMNE17.jpg,AMSA19.jpg,AMSA19.jpg,MS,2,num_4,16,num_4,0.583515673643,,,2017_Dec_06_1811,60.0747997517,FEMA4ImagesEEG,001,202451,
AFNE01.JPG,AFNE01.JPG,AFNE01.JPG,AFNE01.JPG,AFNE01.JPG,AFNE01.JPG,,,,,,,,,,,,,4,1,41,4,,,,,,,,,,,AMNE20.jpg,AMNE13.jpg,AMSA18.jpg,AMSA17.jpg,AMSA18.jpg,MS,2,num_2,16,num_2,0.466774627334,,,2017_Dec_06_1811,60.0747997517,FEMA4ImagesEEG,001,202451,
AFNE01.JPG,AFNE01.JPG,AFNE01.JPG,AFNE01.JPG,AFNE01.JPG,AFNE01.JPG,,,,,,,,,,,,,4,2,42,2,,,,,,,,,,,AMSA17.jpg,AMSA07.jpg,AMNE06.jpg,AMNE16.jpg,AMSA17.jpg,MS,2,num_8,16,num_8,1.95005289,,,2017_Dec_06_1811,60.0747997517,FEMA4ImagesEEG,001,202451,
AFNE01.JPG,AFNE01.JPG,AFNE01.JPG,AFNE01.JPG,AFNE01.JPG,AFNE01.JPG,,,,,,,,,,,,,4,3,43,5,,,,,,,,,,,AMSA11.jpg,AMNE04.jpg,AMSA10.jpg,AMNE17.jpg,AMNE17.jpg,MN,1,num_4,16,num_4,0.716752336128,,,2017_Dec_06_1811,60.0747997517,FEMA4ImagesEEG,001,202451,
AFNE01.JPG,AFNE01.JPG,AFNE01.JPG,AFNE01.JPG,AFNE01.JPG,AFNE01.JPG,,,,,,,,,,,,,4,4,44,6,,,,,,,,,,,AMNE15.jpg,AMNE16.jpg,AMSA20.jpg,AMSA11.jpg,AMNE15.jpg,MN,1,num_8,32,num_6,0.733574144309,,,2017_Dec_06_1811,60.0747997517,FEMA4ImagesEEG,001,202451,
AFNE01.JPG,AFNE01.JPG,AFNE01.JPG,AFNE01.JPG,AFNE01.JPG,AFNE01.JPG,,,,,,,,,,,,,4,5,45,8,,,,,,,,,,,AMNE20.jpg,AMSA16.jpg,AMNE15.jpg,AMSA04.jpg,AMNE20.jpg,MN,1,num_8,16,num_8,0.783554611495,,,2017_Dec_06_1811,60.0747997517,FEMA4ImagesEEG,001,202451,
AFNE01.JPG,AFNE01.JPG,AFNE01.JPG,AFNE01.JPG,AFNE01.JPG,AFNE01.JPG,,,,,,,,,,,,,4,6,46,9,,,,,,,,,,,AMSA01.jpg,AMNE20.jpg,AMSA07.jpg,AMNE18.jpg,AMNE18.jpg,MN,1,num_4,16,num_4,0.683463136433,,,2017_Dec_06_1811,60.0747997517,FEMA4ImagesEEG,001,202451,
AFNE01.JPG,AFNE01.JPG,AFNE01.JPG,AFNE01.JPG,AFNE01.JPG,AFNE01.JPG,,,,,,,,,,,,,4,7,47,7,,,,,,,,,,,AMNE11.jpg,AMNE05.jpg,AMSA13.jpg,AMSA06.jpg,AMSA06.jpg,MS,2,num_4,32,num_2,0.516789092682,,,2017_Dec_06_1811,60.0747997517,FEMA4ImagesEEG,001,202451,
AFNE01.JPG,AFNE01.JPG,AFNE01.JPG,AFNE01.JPG,AFNE01.JPG,AFNE01.JPG,,,,,,,,,,,,,4,8,48,3,,,,,,,,,,,AMSA02.jpg,AMSA05.jpg,AMNE12.jpg,AMNE15.jpg,AMNE12.jpg,MN,1,num_2,16,num_2,1.13315744,,,2017_Dec_06_1811,60.0747997517,FEMA4ImagesEEG,001,202451,
AFNE01.JPG,AFNE01.JPG,AFNE01.JPG,AFNE01.JPG,AFNE01.JPG,AFNE01.JPG,,,,,,,,,,,,,4,9,49,0,,,,,,,,,,,AMNE05.jpg,AMSA05.jpg,AMSA06.jpg,AMNE11.jpg,AMNE11.jpg,MN,1,num_4,16,num_4,0.883455887903,,,2017_Dec_06_1811,60.0747997517,FEMA4ImagesEEG,001,202451,
AFNE01.JPG,AFNE01.JPG,AFNE01.JPG,AFNE01.JPG,AFNE01.JPG,AFNE01.JPG,,,,,,,,,,,,,5,0,50,3,,,,,,,,,,,AMSA04.jpg,AMNE05.jpg,AMNE12.jpg,AMSA03.jpg,AMNE05.jpg,MN,1,num_6,16,num_6,0.5001594075,,,2017_Dec_06_1811,60.0747997517,FEMA4ImagesEEG,001,202451,
AFNE01.JPG,AFNE01.JPG,AFNE01.JPG,AFNE01.JPG,AFNE01.JPG,AFNE01.JPG,,,,,,,,,,,,,5,1,51,7,,,,,,,,,,,AMSA09.jpg,AMNE06.jpg,AMSA07.jpg,AMNE08.jpg,AMNE08.jpg,MN,1,num_4,32,num_8,0.950137885753,,,2017_Dec_06_1811,60.0747997517,FEMA4ImagesEEG,001,202451,
AFNE01.JPG,AFNE01.JPG,AFNE01.JPG,AFNE01.JPG,AFNE01.JPG,AFNE01.JPG,,,,,,,,,,,,,5,2,52,9,,,,,,,,,,,AMNE01.jpg,AMSA01.jpg,AMSA13.jpg,AMNE07.jpg,AMNE01.jpg,MN,1,num_8,16,num_8,0.700135159306,,,2017_Dec_06_1811,60.0747997517,FEMA4ImagesEEG,001,202451,
AFNE01.JPG,AFNE01.JPG,AFNE01.JPG,AFNE01.JPG,AFNE01.JPG,AFNE01.JPG,,,,,,,,,,,,,5,3,53,0,,,,,,,,,,,AMSA15.jpg,AMNE15.jpg,AMSA12.jpg,AMNE10.jpg,AMSA15.jpg,MS,2,num_8,16,num_8,1.08345152577,,,2017_Dec_06_1811,60.0747997517,FEMA4ImagesEEG,001,202451,
AFNE01.JPG,AFNE01.JPG,AFNE01.JPG,AFNE01.JPG,AFNE01.JPG,AFNE01.JPG,,,,,,,,,,,,,5,4,54,4,,,,,,,,,,,AMNE11.jpg,AMNE08.jpg,AMSA13.jpg,AMSA18.jpg,AMNE11.jpg,MN,1,num_8,16,num_8,0.800167618319,,,2017_Dec_06_1811,60.0747997517,FEMA4ImagesEEG,001,202451,
AFNE01.JPG,AFNE01.JPG,AFNE01.JPG,AFNE01.JPG,AFNE01.JPG,AFNE01.JPG,,,,,,,,,,,,,5,5,55,6,,,,,,,,,,,AMNE06.jpg,AMSA14.jpg,AMSA18.jpg,AMNE12.jpg,AMNE06.jpg,MN,1,num_8,16,num_8,1.20007742639,,,2017_Dec_06_1811,60.0747997517,FEMA4ImagesEEG,001,202451,
AFNE01.JPG,AFNE01.JPG,AFNE01.JPG,AFNE01.JPG,AFNE01.JPG,AFNE01.JPG,,,,,,,,,,,,,5,6,56,1,,,,,,,,,,,AMNE03.jpg,AMSA18.jpg,AMNE13.jpg,AMSA05.jpg,AMNE03.jpg,MN,1,num_8,16,num_8,0.800126242917,,,2017_Dec_06_1811,60.0747997517,FEMA4ImagesEEG,001,202451,
AFNE01.JPG,AFNE01.JPG,AFNE01.JPG,AFNE01.JPG,AFNE01.JPG,AFNE01.JPG,,,,,,,,,,,,,5,7,57,5,,,,,,,,,,,AMNE18.jpg,AMSA13.jpg,AMNE16.jpg,AMSA14.jpg,AMSA14.jpg,MS,2,num_4,16,num_4,0.566749994643,,,2017_Dec_06_1811,60.0747997517,FEMA4ImagesEEG,001,202451,
AFNE01.JPG,AFNE01.JPG,AFNE01.JPG,AFNE01.JPG,AFNE01.JPG,AFNE01.JPG,,,,,,,,,,,,,5,8,58,2,,,,,,,,,,,AMSA05.jpg,AMSA15.jpg,AMNE12.jpg,AMNE15.jpg,AMNE12.jpg,MN,1,num_2,32,num_4,0.783478916856,,,2017_Dec_06_1811,60.0747997517,FEMA4ImagesEEG,001,202451,
AFNE01.JPG,AFNE01.JPG,AFNE01.JPG,AFNE01.JPG,AFNE01.JPG,AFNE01.JPG,,,,,,,,,,,,,5,9,59,8,,,,,,,,,,,AMNE01.jpg,AMSA13.jpg,AMNE12.jpg,AMSA04.jpg,AMSA13.jpg,MS,2,num_6,16,num_6,0.683465702459,,,2017_Dec_06_1811,60.0747997517,FEMA4ImagesEEG,001,202451,
,,,,,,,,,,,,,,,,,,,,,,,,,,,,,,,,,,,,,,,,,,,space,16.4989072415,2017_Dec_06_1811,60.0747997517,FEMA4ImagesEEG,001,202451,
AFNE01.JPG,AFNE01.JPG,AFNE01.JPG,AFNE01.JPG,AFNE01.JPG,AFNE01.JPG,,,,,,,,,,,,,,,,,0,0,0,2,,,,,,,AFSA11.jpg,AFSA01.jpg,AFNE18.jpg,AFNE07.jpg,AFSA11.jpg,FS,4,num_8,16,num_8,0.600025723455,,,2017_Dec_06_1811,60.0747997517,FEMA4ImagesEEG,001,202451,
AFNE01.JPG,AFNE01.JPG,AFNE01.JPG,AFNE01.JPG,AFNE01.JPG,AFNE01.JPG,,,,,,,,,,,,,,,,,0,1,1,0,,,,,,,AFNE10.jpg,AFSA18.jpg,AFNE13.jpg,AFSA16.jpg,AFSA16.jpg,FS,4,num_4,32,num_6,0.7167924284,,,2017_Dec_06_1811,60.0747997517,FEMA4ImagesEEG,001,202451,
AFNE01.JPG,AFNE01.JPG,AFNE01.JPG,AFNE01.JPG,AFNE01.JPG,AFNE01.JPG,,,,,,,,,,,,,,,,,0,2,2,6,,,,,,,AFNE19.jpg,AFSA04.jpg,AFNE18.jpg,AFSA17.jpg,AFNE19.jpg,FN,3,num_8,16,num_8,0.816760098096,,,2017_Dec_06_1811,60.0747997517,FEMA4ImagesEEG,001,202451,
AFNE01.JPG,AFNE01.JPG,AFNE01.JPG,AFNE01.JPG,AFNE01.JPG,AFNE01.JPG,,,,,,,,,,,,,,,,,0,3,3,4,,,,,,,AFSA07.jpg,AFSA19.jpg,AFNE19.jpg,AFNE01.jpg,AFNE19.jpg,FN,3,num_2,16,num_2,0.600108794635,,,2017_Dec_06_1811,60.0747997517,FEMA4ImagesEEG,001,202451,
AFNE01.JPG,AFNE01.JPG,AFNE01.JPG,AFNE01.JPG,AFNE01.JPG,AFNE01.JPG,,,,,,,,,,,,,,,,,0,4,4,7,,,,,,,AFSA19.jpg,AFNE03.jpg,AFNE20.jpg,AFSA18.jpg,AFNE20.jpg,FN,3,num_2,16,num_2,0.466837813146,,,2017_Dec_06_1811,60.0747997517,FEMA4ImagesEEG,001,202451,
AFNE01.JPG,AFNE01.JPG,AFNE01.JPG,AFNE01.JPG,AFNE01.JPG,AFNE01.JPG,,,,,,,,,,,,,,,,,0,5,5,9,,,,,,,AFSA04.jpg,AFNE09.jpg,AFSA10.jpg,AFNE07.jpg,AFNE07.jpg,FN,3,num_4,16,num_4,0.800141317537,,,2017_Dec_06_1811,60.0747997517,FEMA4ImagesEEG,001,202451,
AFNE01.JPG,AFNE01.JPG,AFNE01.JPG,AFNE01.JPG,AFNE01.JPG,AFNE01.JPG,,,,,,,,,,,,,,,,,0,6,6,3,,,,,,,AFSA19.jpg,AFNE11.jpg,AFSA03.jpg,AFNE17.jpg,AFNE11.jpg,FN,3,num_6,32,num_4,0.866741527105,,,2017_Dec_06_1811,60.0747997517,FEMA4ImagesEEG,001,202451,
AFNE01.JPG,AFNE01.JPG,AFNE01.JPG,AFNE01.JPG,AFNE01.JPG,AFNE01.JPG,,,,,,,,,,,,,,,,,0,7,7,5,,,,,,,AFSA19.jpg,AFNE01.jpg,AFSA18.jpg,AFNE04.jpg,AFNE04.jpg,FN,3,num_4,16,num_4,0.866578591755,,,2017_Dec_06_1811,60.0747997517,FEMA4ImagesEEG,001,202451,
AFNE01.JPG,AFNE01.JPG,AFNE01.JPG,AFNE01.JPG,AFNE01.JPG,AFNE01.JPG,,,,,,,,,,,,,,,,,0,8,8,1,,,,,,,AFNE18.jpg,AFSA02.jpg,AFSA04.jpg,AFNE08.jpg,AFNE18.jpg,FN,3,num_8,32,num_4,1.00010327809,,,2017_Dec_06_1811,60.0747997517,FEMA4ImagesEEG,001,202451,
AFNE01.JPG,AFNE01.JPG,AFNE01.JPG,AFNE01.JPG,AFNE01.JPG,AFNE01.JPG,,,,,,,,,,,,,,,,,0,9,9,8,,,,,,,AFNE09.jpg,AFNE03.jpg,AFSA16.jpg,AFSA18.jpg,AFNE09.jpg,FN,3,num_8,16,num_8,1.16667564749,,,2017_Dec_06_1811,60.0747997517,FEMA4ImagesEEG,001,202451,
AFNE01.JPG,AFNE01.JPG,AFNE01.JPG,AFNE01.JPG,AFNE01.JPG,AFNE01.JPG,,,,,,,,,,,,,,,,,1,0,10,0,,,,,,,AFNE03.jpg,AFSA02.jpg,AFNE20.jpg,AFSA03.jpg,AFNE20.jpg,FN,3,num_2,32,num_8,0.966850321973,,,2017_Dec_06_1811,60.0747997517,FEMA4ImagesEEG,001,202451,
AFNE01.JPG,AFNE01.JPG,AFNE01.JPG,AFNE01.JPG,AFNE01.JPG,AFNE01.JPG,,,,,,,,,,,,,,,,,1,1,11,5,,,,,,,AFSA19.jpg,AFSA07.jpg,AFNE16.jpg,AFNE13.jpg,AFNE13.jpg,FN,3,num_4,16,num_4,0.683493606746,,,2017_Dec_06_1811,60.0747997517,FEMA4ImagesEEG,001,202451,
AFNE01.JPG,AFNE01.JPG,AFNE01.JPG,AFNE01.JPG,AFNE01.JPG,AFNE01.JPG,,,,,,,,,,,,,,,,,1,2,12,2,,,,,,,AFSA14.jpg,AFNE15.jpg,AFNE08.jpg,AFSA18.jpg,AFSA14.jpg,FS,4,num_8,32,num_2,1.36658340273,,,2017_Dec_06_1811,60.0747997517,FEMA4ImagesEEG,001,202451,
AFNE01.JPG,AFNE01.JPG,AFNE01.JPG,AFNE01.JPG,AFNE01.JPG,AFNE01.JPG,,,,,,,,,,,,,,,,,1,3,13,9,,,,,,,AFSA04.jpg,AFNE10.jpg,AFNE12.jpg,AFSA18.jpg,AFSA18.jpg,FS,4,num_4,16,num_4,0.60000583739,,,2017_Dec_06_1811,60.0747997517,FEMA4ImagesEEG,001,202451,
AFNE01.JPG,AFNE01.JPG,AFNE01.JPG,AFNE01.JPG,AFNE01.JPG,AFNE01.JPG,,,,,,,,,,,,,,,,,1,4,14,6,,,,,,,AFSA02.jpg,AFSA05.jpg,AFNE16.jpg,AFNE14.jpg,AFNE14.jpg,FN,3,num_4,16,num_4,0.750117550837,,,2017_Dec_06_1811,60.0747997517,FEMA4ImagesEEG,001,202451,
AFNE01.JPG,AFNE01.JPG,AFNE01.JPG,AFNE01.JPG,AFNE01.JPG,AFNE01.JPG,,,,,,,,,,,,,,,,,1,5,15,4,,,,,,,AFNE20.jpg,AFSA01.jpg,AFNE17.jpg,AFSA03.jpg,AFSA03.jpg,FS,4,num_4,32,num_6,0.616801665863,,,2017_Dec_06_1811,60.0747997517,FEMA4ImagesEEG,001,202451,
AFNE01.JPG,AFNE01.JPG,AFNE01.JPG,AFNE01.JPG,AFNE01.JPG,AFNE01.JPG,,,,,,,,,,,,,,,,,1,6,16,7,,,,,,,AFNE20.jpg,AFSA20.jpg,AFSA16.jpg,AFNE03.jpg,AFSA16.jpg,FS,4,num_2,32,num_4,1.03355445084,,,2017_Dec_06_1811,60.0747997517,FEMA4ImagesEEG,001,202451,
AFNE01.JPG,AFNE01.JPG,AFNE01.JPG,AFNE01.JPG,AFNE01.JPG,AFNE01.JPG,,,,,,,,,,,,,,,,,1,7,17,8,,,,,,,AFSA12.jpg,AFSA02.jpg,AFNE15.jpg,AFNE13.jpg,AFSA02.jpg,FS,4,num_6,16,num_6,1.20009314269,,,2017_Dec_06_1811,60.0747997517,FEMA4ImagesEEG,001,202451,
AFNE01.JPG,AFNE01.JPG,AFNE01.JPG,AFNE01.JPG,AFNE01.JPG,AFNE01.JPG,,,,,,,,,,,,,,,,,1,8,18,1,,,,,,,AFSA04.jpg,AFNE08.jpg,AFSA16.jpg,AFNE05.jpg,AFSA16.jpg,FS,4,num_2,16,num_2,0.683446137235,,,2017_Dec_06_1811,60.0747997517,FEMA4ImagesEEG,001,202451,
AFNE01.JPG,AFNE01.JPG,AFNE01.JPG,AFNE01.JPG,AFNE01.JPG,AFNE01.JPG,,,,,,,,,,,,,,,,,1,9,19,3,,,,,,,AFSA20.jpg,AFSA07.jpg,AFNE20.jpg,AFNE09.jpg,AFNE09.jpg,FN,3,num_4,16,num_4,0.86682331562,,,2017_Dec_06_1811,60.0747997517,FEMA4ImagesEEG,001,202451,
AFNE01.JPG,AFNE01.JPG,AFNE01.JPG,AFNE01.JPG,AFNE01.JPG,AFNE01.JPG,,,,,,,,,,,,,,,,,2,0,20,3,,,,,,,AFSA02.jpg,AFNE06.jpg,AFSA12.jpg,AFNE09.jpg,AFSA12.jpg,FS,4,num_2,16,num_2,0.900114760268,,,2017_Dec_06_1811,60.0747997517,FEMA4ImagesEEG,001,202451,
AFNE01.JPG,AFNE01.JPG,AFNE01.JPG,AFNE01.JPG,AFNE01.JPG,AFNE01.JPG,,,,,,,,,,,,,,,,,2,1,21,7,,,,,,,AFNE19.jpg,AFSA18.jpg,AFNE04.jpg,AFSA15.jpg,AFSA15.jpg,FS,4,num_4,16,num_4,0.683477890445,,,2017_Dec_06_1811,60.0747997517,FEMA4ImagesEEG,001,202451,
AFNE01.JPG,AFNE01.JPG,AFNE01.JPG,AFNE01.JPG,AFNE01.JPG,AFNE01.JPG,,,,,,,,,,,,,,,,,2,2,22,0,,,,,,,AFSA09.jpg,AFSA20.jpg,AFNE12.jpg,AFNE03.jpg,AFSA20.jpg,FS,4,num_6,16,num_6,0.566819595173,,,2017_Dec_06_1811,60.0747997517,FEMA4ImagesEEG,001,202451,
AFNE01.JPG,AFNE01.JPG,AFNE01.JPG,AFNE01.JPG,AFNE01.JPG,AFNE01.JPG,,,,,,,,,,,,,,,,,2,3,23,5,,,,,,,AFSA19.jpg,AFNE17.jpg,AFSA05.jpg,AFNE10.jpg,AFNE17.jpg,FN,3,num_6,16,num_6,0.917091485811,,,2017_Dec_06_1811,60.0747997517,FEMA4ImagesEEG,001,202451,
AFNE01.JPG,AFNE01.JPG,AFNE01.JPG,AFNE01.JPG,AFNE01.JPG,AFNE01.JPG,,,,,,,,,,,,,,,,,2,4,24,9,,,,,,,AFSA10.jpg,AFNE09.jpg,AFSA03.jpg,AFNE14.jpg,AFNE09.jpg,FN,3,num_6,16,num_6,0.933459127089,,,2017_Dec_06_1811,60.0747997517,FEMA4ImagesEEG,001,202451,
AFNE01.JPG,AFNE01.JPG,AFNE01.JPG,AFNE01.JPG,AFNE01.JPG,AFNE01.JPG,,,,,,,,,,,,,,,,,2,5,25,1,,,,,,,AFSA12.jpg,AFNE02.jpg,AFSA17.jpg,AFNE16.jpg,AFSA12.jpg,FS,4,num_8,32,num_4,0.700133234961,,,2017_Dec_06_1811,60.0747997517,FEMA4ImagesEEG,001,202451,
AFNE01.JPG,AFNE01.JPG,AFNE01.JPG,AFNE01.JPG,AFNE01.JPG,AFNE01.JPG,,,,,,,,,,,,,,,,,2,6,26,2,,,,,,,AFNE06.jpg,AFNE12.jpg,AFSA15.jpg,AFSA13.jpg,AFNE06.jpg,FN,3,num_8,16,num_8,1.10014632135,,,2017_Dec_06_1811,60.0747997517,FEMA4ImagesEEG,001,202451,
AFNE01.JPG,AFNE01.JPG,AFNE01.JPG,AFNE01.JPG,AFNE01.JPG,AFNE01.JPG,,,,,,,,,,,,,,,,,2,7,27,6,,,,,,,AFSA02.jpg,AFNE02.jpg,AFSA14.jpg,AFNE03.jpg,AFSA14.jpg,FS,4,num_2,16,num_2,1.88335228898,,,2017_Dec_06_1811,60.0747997517,FEMA4ImagesEEG,001,202451,
AFNE01.JPG,AFNE01.JPG,AFNE01.JPG,AFNE01.JPG,AFNE01.JPG,AFNE01.JPG,,,,,,,,,,,,,,,,,2,8,28,8,,,,,,,AFSA11.jpg,AFNE02.jpg,AFNE09.jpg,AFSA09.jpg,AFNE09.jpg,FN,3,num_2,32,num_6,0.949987779837,,,2017_Dec_06_1811,60.0747997517,FEMA4ImagesEEG,001,202451,
AFNE01.JPG,AFNE01.JPG,AFNE01.JPG,AFNE01.JPG,AFNE01.JPG,AFNE01.JPG,,,,,,,,,,,,,,,,,2,9,29,4,,,,,,,AFSA07.jpg,AFNE03.jpg,AFNE10.jpg,AFSA11.jpg,AFSA07.jpg,FS,4,num_8,32,num_6,1.3164569994,,,2017_Dec_06_1811,60.0747997517,FEMA4ImagesEEG,001,202451,
AFNE01.JPG,AFNE01.JPG,AFNE01.JPG,AFNE01.JPG,AFNE01.JPG,AFNE01.JPG,,,,,,,,,,,,,,,,,3,0,30,9,,,,,,,AFSA12.jpg,AFNE01.jpg,AFSA05.jpg,AFNE11.jpg,AFNE01.jpg,FN,3,num_6,16,num_6,0.83344238461,,,2017_Dec_06_1811,60.0747997517,FEMA4ImagesEEG,001,202451,
AFNE01.JPG,AFNE01.JPG,AFNE01.JPG,AFNE01.JPG,AFNE01.JPG,AFNE01.JPG,,,,,,,,,,,,,,,,,3,1,31,6,,,,,,,AFSA19.jpg,AFNE01.jpg,AFNE18.jpg,AFSA14.jpg,AFNE18.jpg,FN,3,num_2,16,num_2,1.35006757989,,,2017_Dec_06_1811,60.0747997517,FEMA4ImagesEEG,001,202451,
AFNE01.JPG,AFNE01.JPG,AFNE01.JPG,AFNE01.JPG,AFNE01.JPG,AFNE01.JPG,,,,,,,,,,,,,,,,,3,2,32,8,,,,,,,AFSA09.jpg,AFSA16.jpg,AFNE11.jpg,AFNE06.jpg,AFNE11.jpg,FN,3,num_2,16,num_2,0.583463072311,,,2017_Dec_06_1811,60.0747997517,FEMA4ImagesEEG,001,202451,
AFNE01.JPG,AFNE01.JPG,AFNE01.JPG,AFNE01.JPG,AFNE01.JPG,AFNE01.JPG,,,,,,,,,,,,,,,,,3,3,33,1,,,,,,,AFSA03.jpg,AFSA16.jpg,AFNE16.jpg,AFNE14.jpg,AFSA16.jpg,FS,4,num_6,32,num_8,0.866783864796,,,2017_Dec_06_1811,60.0747997517,FEMA4ImagesEEG,001,202451,
AFNE01.JPG,AFNE01.JPG,AFNE01.JPG,AFNE01.JPG,AFNE01.JPG,AFNE01.JPG,,,,,,,,,,,,,,,,,3,4,34,3,,,,,,,AFNE19.jpg,AFSA01.jpg,AFNE14.jpg,AFSA03.jpg,AFNE19.jpg,FN,3,num_8,32,num_4,0.883539279923,,,2017_Dec_06_1811,60.0747997517,FEMA4ImagesEEG,001,202451,
AFNE01.JPG,AFNE01.JPG,AFNE01.JPG,AFNE01.JPG,AFNE01.JPG,AFNE01.JPG,,,,,,,,,,,,,,,,,3,5,35,0,,,,,,,AFSA13.jpg,AFNE13.jpg,AFNE01.jpg,AFSA18.jpg,AFSA13.jpg,FS,4,num_8,32,num_4,0.800190390786,,,2017_Dec_06_1811,60.0747997517,FEMA4ImagesEEG,001,202451,
AFNE01.JPG,AFNE01.JPG,AFNE01.JPG,AFNE01.JPG,AFNE01.JPG,AFNE01.JPG,,,,,,,,,,,,,,,,,3,6,36,7,,,,,,,AFNE03.jpg,AFSA13.jpg,AFSA14.jpg,AFNE07.jpg,AFNE03.jpg,FN,3,num_8,32,num_4,0.750125890132,,,2017_Dec_06_1811,60.0747997517,FEMA4ImagesEEG,001,202451,
AFNE01.JPG,AFNE01.JPG,AFNE01.JPG,AFNE01.JPG,AFNE01.JPG,AFNE01.JPG,,,,,,,,,,,,,,,,,3,7,37,5,,,,,,,AFNE17.jpg,AFSA02.jpg,AFSA10.jpg,AFNE20.jpg,AFSA10.jpg,FS,4,num_2,16,num_2,0.966707913671,,,2017_Dec_06_1811,60.0747997517,FEMA4ImagesEEG,001,202451,
AFNE01.JPG,AFNE01.JPG,AFNE01.JPG,AFNE01.JPG,AFNE01.JPG,AFNE01.JPG,,,,,,,,,,,,,,,,,3,8,38,4,,,,,,,AFSA05.jpg,AFSA02.jpg,AFNE06.jpg,AFNE08.jpg,AFSA05.jpg,FS,4,num_8,16,num_8,0.466800607508,,,2017_Dec_06_1811,60.0747997517,FEMA4ImagesEEG,001,202451,
AFNE01.JPG,AFNE01.JPG,AFNE01.JPG,AFNE01.JPG,AFNE01.JPG,AFNE01.JPG,,,,,,,,,,,,,,,,,3,9,39,2,,,,,,,AFNE17.jpg,AFSA03.jpg,AFNE05.jpg,AFSA04.jpg,AFSA03.jpg,FS,4,num_6,32,num_4,1.18334767059,,,2017_Dec_06_1811,60.0747997517,FEMA4ImagesEEG,001,202451,
AFNE01.JPG,AFNE01.JPG,AFNE01.JPG,AFNE01.JPG,AFNE01.JPG,AFNE01.JPG,,,,,,,,,,,,,,,,,4,0,40,0,,,,,,,AFNE09.jpg,AFSA10.jpg,AFNE08.jpg,AFSA02.jpg,AFNE09.jpg,FN,3,num_8,16,num_8,0.850134934997,,,2017_Dec_06_1811,60.0747997517,FEMA4ImagesEEG,001,202451,
AFNE01.JPG,AFNE01.JPG,AFNE01.JPG,AFNE01.JPG,AFNE01.JPG,AFNE01.JPG,,,,,,,,,,,,,,,,,4,1,41,3,,,,,,,AFSA19.jpg,AFNE06.jpg,AFNE16.jpg,AFSA20.jpg,AFSA19.jpg,FS,4,num_8,32,num_4,1.33311138186,,,2017_Dec_06_1811,60.0747997517,FEMA4ImagesEEG,001,202451,
AFNE01.JPG,AFNE01.JPG,AFNE01.JPG,AFNE01.JPG,AFNE01.JPG,AFNE01.JPG,,,,,,,,,,,,,,,,,4,2,42,9,,,,,,,AFSA12.jpg,AFNE11.jpg,AFSA03.jpg,AFNE13.jpg,AFSA03.jpg,FS,4,num_2,32,num_4,1.33345104451,,,2017_Dec_06_1811,60.0747997517,FEMA4ImagesEEG,001,202451,
AFNE01.JPG,AFNE01.JPG,AFNE01.JPG,AFNE01.JPG,AFNE01.JPG,AFNE01.JPG,,,,,,,,,,,,,,,,,4,3,43,4,,,,,,,AFNE13.jpg,AFSA19.jpg,AFNE01.jpg,AFSA10.jpg,AFSA19.jpg,FS,4,num_6,16,num_6,0.600141830742,,,2017_Dec_06_1811,60.0747997517,FEMA4ImagesEEG,001,202451,
AFNE01.JPG,AFNE01.JPG,AFNE01.JPG,AFNE01.JPG,AFNE01.JPG,AFNE01.JPG,,,,,,,,,,,,,,,,,4,4,44,8,,,,,,,AFSA02.jpg,AFNE20.jpg,AFNE12.jpg,AFSA20.jpg,AFSA02.jpg,FS,4,num_8,16,num_8,1.06658192724,,,2017_Dec_06_1811,60.0747997517,FEMA4ImagesEEG,001,202451,
AFNE01.JPG,AFNE01.JPG,AFNE01.JPG,AFNE01.JPG,AFNE01.JPG,AFNE01.JPG,,,,,,,,,,,,,,,,,4,5,45,5,,,,,,,AFSA17.jpg,AFNE12.jpg,AFNE01.jpg,AFSA08.jpg,AFSA08.jpg,FS,4,num_4,16,num_4,0.650153088849,,,2017_Dec_06_1811,60.0747997517,FEMA4ImagesEEG,001,202451,
AFNE01.JPG,AFNE01.JPG,AFNE01.JPG,AFNE01.JPG,AFNE01.JPG,AFNE01.JPG,,,,,,,,,,,,,,,,,4,6,46,6,,,,,,,AFSA08.jpg,AFNE07.jpg,AFSA02.jpg,AFNE03.jpg,AFNE03.jpg,FN,3,num_4,16,num_4,0.800126563758,,,2017_Dec_06_1811,60.0747997517,FEMA4ImagesEEG,001,202451,
AFNE01.JPG,AFNE01.JPG,AFNE01.JPG,AFNE01.JPG,AFNE01.JPG,AFNE01.JPG,,,,,,,,,,,,,,,,,4,7,47,7,,,,,,,AFSA10.jpg,AFNE15.jpg,AFNE04.jpg,AFSA01.jpg,AFSA01.jpg,FS,4,num_4,32,num_8,1.05011068727,,,2017_Dec_06_1811,60.0747997517,FEMA4ImagesEEG,001,202451,
AFNE01.JPG,AFNE01.JPG,AFNE01.JPG,AFNE01.JPG,AFNE01.JPG,AFNE01.JPG,,,,,,,,,,,,,,,,,4,8,48,1,,,,,,,AFSA12.jpg,AFNE19.jpg,AFNE04.jpg,AFSA15.jpg,AFNE19.jpg,FN,3,num_6,32,num_4,0.73350005364,,,2017_Dec_06_1811,60.0747997517,FEMA4ImagesEEG,001,202451,
AFNE01.JPG,AFNE01.JPG,AFNE01.JPG,AFNE01.JPG,AFNE01.JPG,AFNE01.JPG,,,,,,,,,,,,,,,,,4,9,49,2,,,,,,,AFNE03.jpg,AFSA15.jpg,AFSA19.jpg,AFNE19.jpg,AFNE03.jpg,FN,3,num_8,16,num_8,0.950248540845,,,2017_Dec_06_1811,60.0747997517,FEMA4ImagesEEG,001,202451,
AFNE01.JPG,AFNE01.JPG,AFNE01.JPG,AFNE01.JPG,AFNE01.JPG,AFNE01.JPG,,,,,,,,,,,,,,,,,5,0,50,6,,,,,,,AFSA14.jpg,AFSA12.jpg,AFNE15.jpg,AFNE20.jpg,AFNE20.jpg,FN,3,num_4,16,num_4,1.35005956143,,,2017_Dec_06_1811,60.0747997517,FEMA4ImagesEEG,001,202451,
AFNE01.JPG,AFNE01.JPG,AFNE01.JPG,AFNE01.JPG,AFNE01.JPG,AFNE01.JPG,,,,,,,,,,,,,,,,,5,1,51,4,,,,,,,AFNE10.jpg,AFSA16.jpg,AFNE15.jpg,AFSA17.jpg,AFSA17.jpg,FS,4,num_4,16,num_4,1.36670368002,,,2017_Dec_06_1811,60.0747997517,FEMA4ImagesEEG,001,202451,
AFNE01.JPG,AFNE01.JPG,AFNE01.JPG,AFNE01.JPG,AFNE01.JPG,AFNE01.JPG,,,,,,,,,,,,,,,,,5,2,52,0,,,,,,,AFSA06.jpg,AFSA03.jpg,AFNE10.jpg,AFNE05.jpg,AFNE10.jpg,FN,3,num_2,16,num_2,0.500021168729,,,2017_Dec_06_1811,60.0747997517,FEMA4ImagesEEG,001,202451,
AFNE01.JPG,AFNE01.JPG,AFNE01.JPG,AFNE01.JPG,AFNE01.JPG,AFNE01.JPG,,,,,,,,,,,,,,,,,5,3,53,2,,,,,,,AFNE12.jpg,AFNE07.jpg,AFSA18.jpg,AFSA12.jpg,AFNE07.jpg,FN,3,num_6,16,num_6,1.05009112181,,,2017_Dec_06_1811,60.0747997517,FEMA4ImagesEEG,001,202451,
AFNE01.JPG,AFNE01.JPG,AFNE01.JPG,AFNE01.JPG,AFNE01.JPG,AFNE01.JPG,,,,,,,,,,,,,,,,,5,4,54,9,,,,,,,AFNE06.jpg,AFNE18.jpg,AFSA12.jpg,AFSA17.jpg,AFSA12.jpg,FS,4,num_2,32,num_8,1.00009846687,,,2017_Dec_06_1811,60.0747997517,FEMA4ImagesEEG,001,202451,
AFNE01.JPG,AFNE01.JPG,AFNE01.JPG,AFNE01.JPG,AFNE01.JPG,AFNE01.JPG,,,,,,,,,,,,,,,,,5,5,55,8,,,,,,,AFNE15.jpg,AFSA06.jpg,AFSA10.jpg,AFNE20.jpg,AFNE15.jpg,FN,3,num_8,16,num_8,1.00013759732,,,2017_Dec_06_1811,60.0747997517,FEMA4ImagesEEG,001,202451,
AFNE01.JPG,AFNE01.JPG,AFNE01.JPG,AFNE01.JPG,AFNE01.JPG,AFNE01.JPG,,,,,,,,,,,,,,,,,5,6,56,3,,,,,,,AFNE09.jpg,AFSA19.jpg,AFNE04.jpg,AFSA18.jpg,AFSA19.jpg,FS,4,num_6,16,num_6,0.550175797194,,,2017_Dec_06_1811,60.0747997517,FEMA4ImagesEEG,001,202451,
AFNE01.JPG,AFNE01.JPG,AFNE01.JPG,AFNE01.JPG,AFNE01.JPG,AFNE01.JPG,,,,,,,,,,,,,,,,,5,7,57,5,,,,,,,AFSA05.jpg,AFSA02.jpg,AFNE14.jpg,AFNE15.jpg,AFSA05.jpg,FS,4,num_8,16,num_8,1.1667686617,,,2017_Dec_06_1811,60.0747997517,FEMA4ImagesEEG,001,202451,
AFNE01.JPG,AFNE01.JPG,AFNE01.JPG,AFNE01.JPG,AFNE01.JPG,AFNE01.JPG,,,,,,,,,,,,,,,,,5,8,58,7,,,,,,,AFNE01.jpg,AFSA16.jpg,AFNE14.jpg,AFSA10.jpg,AFSA16.jpg,FS,4,num_6,32,num_8,0.600125473225,,,2017_Dec_06_1811,60.0747997517,FEMA4ImagesEEG,001,202451,
AFNE01.JPG,AFNE01.JPG,AFNE01.JPG,AFNE01.JPG,AFNE01.JPG,AFNE01.JPG,,,,,,,,,,,,,,,,,5,9,59,1,,,,,,,AFSA04.jpg,AFSA02.jpg,AFNE01.jpg,AFNE16.jpg,AFSA02.jpg,FS,4,num_6,16,num_6,0.650130957831,,,2017_Dec_06_1811,60.0747997517,FEMA4ImagesEEG,001,202451,
,,,,,,,,,,,,,,,,,,,,,,,,,,,,,,,,,,,,,,,,,,,space,12.1325483564,2017_Dec_06_1811,60.0747997517,FEMA4ImagesEEG,001,202451,
AFNE01.JPG,AFNE01.JPG,AFNE01.JPG,AFNE01.JPG,AFNE01.JPG,AFNE01.JPG,,,,,,,,,,,,,,,,,,,,,0,0,0,3,,,AMNE03.jpg,AMSA09.jpg,AMNE20.jpg,AMSA03.jpg,AMSA09.jpg,MS,2,num_6,16,num_6,0.816801473498,,,2017_Dec_06_1811,60.0747997517,FEMA4ImagesEEG,001,202451,
AFNE01.JPG,AFNE01.JPG,AFNE01.JPG,AFNE01.JPG,AFNE01.JPG,AFNE01.JPG,,,,,,,,,,,,,,,,,,,,,0,1,1,5,,,AMNE13.jpg,AMSA16.jpg,AMSA14.jpg,AMNE01.jpg,AMNE13.jpg,MN,1,num_8,32,num_6,0.500165501377,,,2017_Dec_06_1811,60.0747997517,FEMA4ImagesEEG,001,202451,
AFNE01.JPG,AFNE01.JPG,AFNE01.JPG,AFNE01.JPG,AFNE01.JPG,AFNE01.JPG,,,,,,,,,,,,,,,,,,,,,0,2,2,8,,,AMNE06.jpg,AMSA02.jpg,AMSA17.jpg,AMNE12.jpg,AMSA17.jpg,MS,2,num_2,16,num_2,0.466807984281,,,2017_Dec_06_1811,60.0747997517,FEMA4ImagesEEG,001,202451,
AFNE01.JPG,AFNE01.JPG,AFNE01.JPG,AFNE01.JPG,AFNE01.JPG,AFNE01.JPG,,,,,,,,,,,,,,,,,,,,,0,3,3,4,,,AMNE04.jpg,AMSA08.jpg,AMNE19.jpg,AMSA16.jpg,AMNE04.jpg,MN,1,num_8,32,num_4,0.716688188259,,,2017_Dec_06_1811,60.0747997517,FEMA4ImagesEEG,001,202451,
AFNE01.JPG,AFNE01.JPG,AFNE01.JPG,AFNE01.JPG,AFNE01.JPG,AFNE01.JPG,,,,,,,,,,,,,,,,,,,,,0,4,4,6,,,AMNE06.jpg,AMNE15.jpg,AMSA16.jpg,AMSA11.jpg,AMNE15.jpg,MN,1,num_6,16,num_6,0.883427983383,,,2017_Dec_06_1811,60.0747997517,FEMA4ImagesEEG,001,202451,
AFNE01.JPG,AFNE01.JPG,AFNE01.JPG,AFNE01.JPG,AFNE01.JPG,AFNE01.JPG,,,,,,,,,,,,,,,,,,,,,0,5,5,2,,,AMNE10.jpg,AMSA03.jpg,AMNE13.jpg,AMSA10.jpg,AMSA10.jpg,MS,2,num_4,16,num_4,1.16677603871,,,2017_Dec_06_1811,60.0747997517,FEMA4ImagesEEG,001,202451,
AFNE01.JPG,AFNE01.JPG,AFNE01.JPG,AFNE01.JPG,AFNE01.JPG,AFNE01.JPG,,,,,,,,,,,,,,,,,,,,,0,6,6,9,,,AMSA12.jpg,AMNE19.jpg,AMSA19.jpg,AMNE15.jpg,AMNE19.jpg,MN,1,num_6,16,num_6,0.966760515003,,,2017_Dec_06_1811,60.0747997517,FEMA4ImagesEEG,001,202451,
AFNE01.JPG,AFNE01.JPG,AFNE01.JPG,AFNE01.JPG,AFNE01.JPG,AFNE01.JPG,,,,,,,,,,,,,,,,,,,,,0,7,7,1,,,AMNE18.jpg,AMNE13.jpg,AMSA15.jpg,AMSA16.jpg,AMSA16.jpg,MS,2,num_4,16,num_4,0.583483599592,,,2017_Dec_06_1811,60.0747997517,FEMA4ImagesEEG,001,202451,
AFNE01.JPG,AFNE01.JPG,AFNE01.JPG,AFNE01.JPG,AFNE01.JPG,AFNE01.JPG,,,,,,,,,,,,,,,,,,,,,0,8,8,0,,,AMNE06.jpg,AMSA20.jpg,AMNE10.jpg,AMSA18.jpg,AMNE10.jpg,MN,1,num_2,32,num_8,0.833489212673,,,2017_Dec_06_1811,60.0747997517,FEMA4ImagesEEG,001,202451,
AFNE01.JPG,AFNE01.JPG,AFNE01.JPG,AFNE01.JPG,AFNE01.JPG,AFNE01.JPG,,,,,,,,,,,,,,,,,,,,,0,9,9,7,,,AMNE11.jpg,AMNE20.jpg,AMSA01.jpg,AMSA12.jpg,AMNE20.jpg,MN,1,num_6,32,num_4,1.1001046251,,,2017_Dec_06_1811,60.0747997517,FEMA4ImagesEEG,001,202451,
AFNE01.JPG,AFNE01.JPG,AFNE01.JPG,AFNE01.JPG,AFNE01.JPG,AFNE01.JPG,,,,,,,,,,,,,,,,,,,,,1,0,10,6,,,AMNE06.jpg,AMSA19.jpg,AMSA10.jpg,AMNE18.jpg,AMNE18.jpg,MN,1,num_4,16,num_4,0.86676622415,,,2017_Dec_06_1811,60.0747997517,FEMA4ImagesEEG,001,202451,
AFNE01.JPG,AFNE01.JPG,AFNE01.JPG,AFNE01.JPG,AFNE01.JPG,AFNE01.JPG,,,,,,,,,,,,,,,,,,,,,1,1,11,5,,,AMNE11.jpg,AMSA02.jpg,AMSA12.jpg,AMNE05.jpg,AMNE05.jpg,MN,1,num_4,16,num_4,0.783462879714,,,2017_Dec_06_1811,60.0747997517,FEMA4ImagesEEG,001,202451,
AFNE01.JPG,AFNE01.JPG,AFNE01.JPG,AFNE01.JPG,AFNE01.JPG,AFNE01.JPG,,,,,,,,,,,,,,,,,,,,,1,2,12,2,,,AMSA16.jpg,AMNE19.jpg,AMSA04.jpg,AMNE05.jpg,AMNE05.jpg,MN,1,num_4,16,num_4,0.933466183487,,,2017_Dec_06_1811,60.0747997517,FEMA4ImagesEEG,001,202451,
AFNE01.JPG,AFNE01.JPG,AFNE01.JPG,AFNE01.JPG,AFNE01.JPG,AFNE01.JPG,,,,,,,,,,,,,,,,,,,,,1,3,13,4,,,AMSA03.jpg,AMNE15.jpg,AMNE17.jpg,AMSA20.jpg,AMNE17.jpg,MN,1,num_2,32,num_6,1.0502601515,,,2017_Dec_06_1811,60.0747997517,FEMA4ImagesEEG,001,202451,
AFNE01.JPG,AFNE01.JPG,AFNE01.JPG,AFNE01.JPG,AFNE01.JPG,AFNE01.JPG,,,,,,,,,,,,,,,,,,,,,1,4,14,1,,,AMNE04.jpg,AMNE16.jpg,AMSA02.jpg,AMSA17.jpg,AMSA02.jpg,MS,2,num_2,32,num_8,0.733491393737,,,2017_Dec_06_1811,60.0747997517,FEMA4ImagesEEG,001,202451,
AFNE01.JPG,AFNE01.JPG,AFNE01.JPG,AFNE01.JPG,AFNE01.JPG,AFNE01.JPG,,,,,,,,,,,,,,,,,,,,,1,5,15,8,,,AMNE01.jpg,AMSA09.jpg,AMSA20.jpg,AMNE18.jpg,AMSA09.jpg,MS,2,num_6,16,num_6,0.850145198638,,,2017_Dec_06_1811,60.0747997517,FEMA4ImagesEEG,001,202451,
AFNE01.JPG,AFNE01.JPG,AFNE01.JPG,AFNE01.JPG,AFNE01.JPG,AFNE01.JPG,,,,,,,,,,,,,,,,,,,,,1,6,16,3,,,AMSA15.jpg,AMNE13.jpg,AMNE12.jpg,AMSA09.jpg,AMNE13.jpg,MN,1,num_6,32,num_2,1.36676013004,,,2017_Dec_06_1811,60.0747997517,FEMA4ImagesEEG,001,202451,
AFNE01.JPG,AFNE01.JPG,AFNE01.JPG,AFNE01.JPG,AFNE01.JPG,AFNE01.JPG,,,,,,,,,,,,,,,,,,,,,1,7,17,0,,,AMSA02.jpg,AMNE16.jpg,AMNE06.jpg,AMSA14.jpg,AMSA14.jpg,MS,2,num_4,16,num_4,0.63346246304,,,2017_Dec_06_1811,60.0747997517,FEMA4ImagesEEG,001,202451,
AFNE01.JPG,AFNE01.JPG,AFNE01.JPG,AFNE01.JPG,AFNE01.JPG,AFNE01.JPG,,,,,,,,,,,,,,,,,,,,,1,8,18,7,,,AMNE06.jpg,AMSA09.jpg,AMNE10.jpg,AMSA15.jpg,AMSA09.jpg,MS,2,num_6,16,num_6,0.466771099484,,,2017_Dec_06_1811,60.0747997517,FEMA4ImagesEEG,001,202451,
AFNE01.JPG,AFNE01.JPG,AFNE01.JPG,AFNE01.JPG,AFNE01.JPG,AFNE01.JPG,,,,,,,,,,,,,,,,,,,,,1,9,19,9,,,AMSA02.jpg,AMNE18.jpg,AMNE12.jpg,AMSA08.jpg,AMSA08.jpg,MS,2,num_4,16,num_4,0.900119571481,,,2017_Dec_06_1811,60.0747997517,FEMA4ImagesEEG,001,202451,
AFNE01.JPG,AFNE01.JPG,AFNE01.JPG,AFNE01.JPG,AFNE01.JPG,AFNE01.JPG,,,,,,,,,,,,,,,,,,,,,2,0,20,6,,,AMNE07.jpg,AMSA10.jpg,AMNE10.jpg,AMSA05.jpg,AMSA05.jpg,MS,2,num_4,16,num_4,0.700169478776,,,2017_Dec_06_1811,60.0747997517,FEMA4ImagesEEG,001,202451,
AFNE01.JPG,AFNE01.JPG,AFNE01.JPG,AFNE01.JPG,AFNE01.JPG,AFNE01.JPG,,,,,,,,,,,,,,,,,,,,,2,1,21,8,,,AMNE02.jpg,AMSA09.jpg,AMSA10.jpg,AMNE14.jpg,AMNE14.jpg,MN,1,num_4,16,num_4,0.733477922622,,,2017_Dec_06_1811,60.0747997517,FEMA4ImagesEEG,001,202451,
AFNE01.JPG,AFNE01.JPG,AFNE01.JPG,AFNE01.JPG,AFNE01.JPG,AFNE01.JPG,,,,,,,,,,,,,,,,,,,,,2,2,22,3,,,AMNE12.jpg,AMSA11.jpg,AMSA14.jpg,AMNE18.jpg,AMSA11.jpg,MS,2,num_6,16,num_6,0.383494376438,,,2017_Dec_06_1811,60.0747997517,FEMA4ImagesEEG,001,202451,
AFNE01.JPG,AFNE01.JPG,AFNE01.JPG,AFNE01.JPG,AFNE01.JPG,AFNE01.JPG,,,,,,,,,,,,,,,,,,,,,2,3,23,5,,,AMNE13.jpg,AMSA06.jpg,AMSA14.jpg,AMNE10.jpg,AMSA14.jpg,MS,2,num_2,16,num_2,1.01681346889,,,2017_Dec_06_1811,60.0747997517,FEMA4ImagesEEG,001,202451,
AFNE01.JPG,AFNE01.JPG,AFNE01.JPG,AFNE01.JPG,AFNE01.JPG,AFNE01.JPG,,,,,,,,,,,,,,,,,,,,,2,4,24,9,,,AMNE06.jpg,AMSA13.jpg,AMNE11.jpg,AMSA02.jpg,AMNE11.jpg,MN,1,num_2,32,num_8,0.8501535377,,,2017_Dec_06_1811,60.0747997517,FEMA4ImagesEEG,001,202451,
AFNE01.JPG,AFNE01.JPG,AFNE01.JPG,AFNE01.JPG,AFNE01.JPG,AFNE01.JPG,,,,,,,,,,,,,,,,,,,,,2,5,25,4,,,AMNE13.jpg,AMSA07.jpg,AMNE11.jpg,AMSA04.jpg,AMSA04.jpg,MS,2,num_4,16,num_4,0.500139521435,,,2017_Dec_06_1811,60.0747997517,FEMA4ImagesEEG,001,202451,
AFNE01.JPG,AFNE01.JPG,AFNE01.JPG,AFNE01.JPG,AFNE01.JPG,AFNE01.JPG,,,,,,,,,,,,,,,,,,,,,2,6,26,2,,,AMNE10.jpg,AMSA10.jpg,AMNE02.jpg,AMSA15.jpg,AMNE02.jpg,MN,1,num_2,32,num_8,0.950146545656,,,2017_Dec_06_1811,60.0747997517,FEMA4ImagesEEG,001,202451,
AFNE01.JPG,AFNE01.JPG,AFNE01.JPG,AFNE01.JPG,AFNE01.JPG,AFNE01.JPG,,,,,,,,,,,,,,,,,,,,,2,7,27,1,,,AMSA10.jpg,AMNE20.jpg,AMSA11.jpg,AMNE15.jpg,AMSA11.jpg,MS,2,num_2,16,num_2,1.06676154141,,,2017_Dec_06_1811,60.0747997517,FEMA4ImagesEEG,001,202451,
AFNE01.JPG,AFNE01.JPG,AFNE01.JPG,AFNE01.JPG,AFNE01.JPG,AFNE01.JPG,,,,,,,,,,,,,,,,,,,,,2,8,28,0,,,AMNE01.jpg,AMSA15.jpg,AMNE04.jpg,AMSA07.jpg,AMNE01.jpg,MN,1,num_8,32,num_2,1.11676798831,,,2017_Dec_06_1811,60.0747997517,FEMA4ImagesEEG,001,202451,
AFNE01.JPG,AFNE01.JPG,AFNE01.JPG,AFNE01.JPG,AFNE01.JPG,AFNE01.JPG,,,,,,,,,,,,,,,,,,,,,2,9,29,7,,,AMSA19.jpg,AMNE11.jpg,AMSA16.jpg,AMNE17.jpg,AMSA16.jpg,MS,2,num_2,16,num_2,1.25009445776,,,2017_Dec_06_1811,60.0747997517,FEMA4ImagesEEG,001,202451,
AFNE01.JPG,AFNE01.JPG,AFNE01.JPG,AFNE01.JPG,AFNE01.JPG,AFNE01.JPG,,,,,,,,,,,,,,,,,,,,,3,0,30,9,,,AMNE11.jpg,AMSA17.jpg,AMNE20.jpg,AMSA20.jpg,AMNE20.jpg,MN,1,num_2,32,num_4,0.950125697767,,,2017_Dec_06_1811,60.0747997517,FEMA4ImagesEEG,001,202451,
AFNE01.JPG,AFNE01.JPG,AFNE01.JPG,AFNE01.JPG,AFNE01.JPG,AFNE01.JPG,,,,,,,,,,,,,,,,,,,,,3,1,31,3,,,AMSA10.jpg,AMNE01.jpg,AMSA15.jpg,AMNE03.jpg,AMNE01.jpg,MN,1,num_6,16,num_6,0.816738929367,,,2017_Dec_06_1811,60.0747997517,FEMA4ImagesEEG,001,202451,
AFNE01.JPG,AFNE01.JPG,AFNE01.JPG,AFNE01.JPG,AFNE01.JPG,AFNE01.JPG,,,,,,,,,,,,,,,,,,,,,3,2,32,1,,,AMNE18.jpg,AMNE08.jpg,AMSA06.jpg,AMSA03.jpg,AMNE18.jpg,MN,1,num_8,16,num_8,1.16672215471,,,2017_Dec_06_1811,60.0747997517,FEMA4ImagesEEG,001,202451,
AFNE01.JPG,AFNE01.JPG,AFNE01.JPG,AFNE01.JPG,AFNE01.JPG,AFNE01.JPG,,,,,,,,,,,,,,,,,,,,,3,3,33,2,,,AMSA06.jpg,AMNE04.jpg,AMSA19.jpg,AMNE11.jpg,AMSA19.jpg,MS,2,num_2,32,num_8,0.866883935407,,,2017_Dec_06_1811,60.0747997517,FEMA4ImagesEEG,001,202451,
AFNE01.JPG,AFNE01.JPG,AFNE01.JPG,AFNE01.JPG,AFNE01.JPG,AFNE01.JPG,,,,,,,,,,,,,,,,,,,,,3,4,34,8,,,AMNE15.jpg,AMSA08.jpg,AMNE05.jpg,AMSA06.jpg,AMNE15.jpg,MN,1,num_8,16,num_8,0.983464291086,,,2017_Dec_06_1811,60.0747997517,FEMA4ImagesEEG,001,202451,
AFNE01.JPG,AFNE01.JPG,AFNE01.JPG,AFNE01.JPG,AFNE01.JPG,AFNE01.JPG,,,,,,,,,,,,,,,,,,,,,3,5,35,5,,,AMSA09.jpg,AMSA14.jpg,AMNE17.jpg,AMNE06.jpg,AMNE06.jpg,MN,1,num_4,16,num_4,0.866460238816,,,2017_Dec_06_1811,60.0747997517,FEMA4ImagesEEG,001,202451,
AFNE01.JPG,AFNE01.JPG,AFNE01.JPG,AFNE01.JPG,AFNE01.JPG,AFNE01.JPG,,,,,,,,,,,,,,,,,,,,,3,6,36,4,,,AMSA10.jpg,AMNE11.jpg,AMSA03.jpg,AMNE19.jpg,AMSA03.jpg,MS,2,num_2,16,num_2,1.01675830199,,,2017_Dec_06_1811,60.0747997517,FEMA4ImagesEEG,001,202451,
AFNE01.JPG,AFNE01.JPG,AFNE01.JPG,AFNE01.JPG,AFNE01.JPG,AFNE01.JPG,,,,,,,,,,,,,,,,,,,,,3,7,37,6,,,AMNE13.jpg,AMSA16.jpg,AMNE07.jpg,AMSA18.jpg,AMSA18.jpg,MS,2,num_4,16,num_4,0.533489982365,,,2017_Dec_06_1811,60.0747997517,FEMA4ImagesEEG,001,202451,
AFNE01.JPG,AFNE01.JPG,AFNE01.JPG,AFNE01.JPG,AFNE01.JPG,AFNE01.JPG,,,,,,,,,,,,,,,,,,,,,3,8,38,7,,,AMSA06.jpg,AMSA04.jpg,AMNE10.jpg,AMNE11.jpg,AMSA06.jpg,MS,2,num_8,32,num_4,1.20021855179,,,2017_Dec_06_1811,60.0747997517,FEMA4ImagesEEG,001,202451,
