IPosition2,IPosition3,IPosition1,IPosition6,IPosition4,IPosition5,TrialsF1.thisRepN,TrialsF1.thisTrialN,TrialsF1.thisN,TrialsF1.thisIndex,TrialsM1.thisRepN,TrialsM1.thisTrialN,TrialsM1.thisN,TrialsM1.thisIndex,TrialsF2.thisRepN,TrialsF2.thisTrialN,TrialsF2.thisN,TrialsF2.thisIndex,TrialsM2.thisRepN,TrialsM2.thisTrialN,TrialsM2.thisN,TrialsM2.thisIndex,TrialsF3.thisRepN,TrialsF3.thisTrialN,TrialsF3.thisN,TrialsF3.thisIndex,TrialsM3.thisRepN,TrialsM3.thisTrialN,TrialsM3.thisN,TrialsM3.thisIndex,InstrKey_resp.keys,InstrKey_resp.rt,Image0 _Position,Image1 _Position,Image2 _Position,Image3 _Position,Center_image,condition,code,correct_answer,accuracy,Key_Resp.keys,Key_Resp.rt,BreakKey_resp.keys,BreakKey_resp.rt,date,frameRate,expName,session,participant,
,,,,,,,,,,,,,,,,,,,,,,,,,,,,,,space,13.7327697305,,,,,,,,,,,,,,2017_Dec_08_1341,60.0097007433,FEMA4ImagesEEG,001,202496,
AMSA21.JPG,AMNE23.JPG,AMNE21.JPG,AMSA25.JPG,AMNE25.JPG,AMSA23.JPG,0,0,0,5,,,,,,,,,,,,,,,,,,,,,,,AFNE18.jpg,AFNE19.jpg,AFSA20.jpg,AFSA17.jpg,AFSA20.jpg,FS,4,num_2,32,num_8,2.31670044037,,,2017_Dec_08_1341,60.0097007433,FEMA4ImagesEEG,001,202496,
AFSA21.JPG,AFNE23.JPG,AFNE21.JPG,AFSA25.JPG,AFNE25.JPG,AFSA23.JPG,0,1,1,4,,,,,,,,,,,,,,,,,,,,,,,AFNE07.jpg,AFNE20.jpg,AFSA10.jpg,AFSA13.jpg,AFNE20.jpg,FN,3,num_6,32,num_8,1.00006126123,,,2017_Dec_08_1341,60.0097007433,FEMA4ImagesEEG,001,202496,
AFNE23.JPG,AFNE24.JPG,AFNE22.JPG,AFSA24.JPG,AFSA22.JPG,AFSA23.JPG,0,2,2,8,,,,,,,,,,,,,,,,,,,,,,,AFSA07.jpg,AFNE01.jpg,AFNE17.jpg,AFSA06.jpg,AFNE17.jpg,FN,3,num_2,32,num_6,0.983488988131,,,2017_Dec_08_1341,60.0097007433,FEMA4ImagesEEG,001,202496,
AFSA21.JPG,AFNE22.JPG,AFNE21.JPG,AFSA23.JPG,AFSA22.JPG,AFNE23.JPG,0,3,3,0,,,,,,,,,,,,,,,,,,,,,,,AFSA19.jpg,AFSA12.jpg,AFNE15.jpg,AFNE18.jpg,AFSA19.jpg,FS,4,num_8,16,num_8,0.750102796825,,,2017_Dec_08_1341,60.0097007433,FEMA4ImagesEEG,001,202496,
AMSA21.JPG,AMNE22.JPG,AMNE21.JPG,AMSA23.JPG,AMSA22.JPG,AMNE23.JPG,0,4,4,1,,,,,,,,,,,,,,,,,,,,,,,AFSA18.jpg,AFNE16.jpg,AFNE08.jpg,AFSA03.jpg,AFSA18.jpg,FS,4,num_8,32,num_6,2.41661903705,,,2017_Dec_08_1341,60.0097007433,FEMA4ImagesEEG,001,202496,
AFSA25.JPG,AFNE24.JPG,AFSA24.JPG,AFNE21.JPG,AFSA21.JPG,AFNE25.JPG,0,5,5,2,,,,,,,,,,,,,,,,,,,,,,,AFNE10.jpg,AFNE05.jpg,AFSA19.jpg,AFSA16.jpg,AFSA19.jpg,FS,4,num_2,16,num_2,0.933409091784,,,2017_Dec_08_1341,60.0097007433,FEMA4ImagesEEG,001,202496,
AMNE22.JPG,AMSA24.JPG,AMSA22.JPG,AMNE25.JPG,AMNE24.JPG,AMSA25.JPG,0,6,6,7,,,,,,,,,,,,,,,,,,,,,,,AFSA02.jpg,AFSA13.jpg,AFNE17.jpg,AFNE03.jpg,AFNE03.jpg,FN,3,num_4,16,num_4,1.34980713949,,,2017_Dec_08_1341,60.0097007433,FEMA4ImagesEEG,001,202496,
AFNE22.JPG,AFSA24.JPG,AFSA22.JPG,AFNE25.JPG,AFNE24.JPG,AFSA25.JPG,0,7,7,6,,,,,,,,,,,,,,,,,,,,,,,AFNE13.jpg,AFNE03.jpg,AFSA08.jpg,AFSA19.jpg,AFNE03.jpg,FN,3,num_6,32,num_8,1.30005151057,,,2017_Dec_08_1341,60.0097007433,FEMA4ImagesEEG,001,202496,
AMNE23.JPG,AMNE24.JPG,AMNE22.JPG,AMSA24.JPG,AMSA22.JPG,AMSA23.JPG,0,8,8,9,,,,,,,,,,,,,,,,,,,,,,,AFNE05.jpg,AFNE03.jpg,AFSA15.jpg,AFSA14.jpg,AFNE03.jpg,FN,3,num_6,32,num_2,0.833440139657,,,2017_Dec_08_1341,60.0097007433,FEMA4ImagesEEG,001,202496,
AMSA25.JPG,AMNE24.JPG,AMSA24.JPG,AMNE26.JPG,AMSA21.JPG,AMNE25.JPG,0,9,9,3,,,,,,,,,,,,,,,,,,,,,,,AFSA14.jpg,AFSA06.jpg,AFNE03.jpg,AFNE20.jpg,AFSA06.jpg,FS,4,num_6,32,num_2,0.933694229228,,,2017_Dec_08_1341,60.0097007433,FEMA4ImagesEEG,001,202496,
AFNE23.JPG,AFNE24.JPG,AFNE22.JPG,AFSA24.JPG,AFSA22.JPG,AFSA23.JPG,,,,,0,0,0,8,,,,,,,,,,,,,,,,,,,AMSA16.jpg,AMNE10.jpg,AMSA12.jpg,AMNE17.jpg,AMSA12.jpg,MS,2,num_2,32,num_8,1.80003386992,,,2017_Dec_08_1341,60.0097007433,FEMA4ImagesEEG,001,202496,
AFSA21.JPG,AFNE23.JPG,AFNE21.JPG,AFSA25.JPG,AFNE25.JPG,AFSA23.JPG,,,,,0,1,1,4,,,,,,,,,,,,,,,,,,,AMSA04.jpg,AMSA07.jpg,AMNE03.jpg,AMNE13.jpg,AMNE03.jpg,MN,1,num_2,32,num_6,2.30001270142,,,2017_Dec_08_1341,60.0097007433,FEMA4ImagesEEG,001,202496,
AFSA25.JPG,AFNE24.JPG,AFSA24.JPG,AFNE21.JPG,AFSA21.JPG,AFNE25.JPG,,,,,0,2,2,2,,,,,,,,,,,,,,,,,,,AMNE03.jpg,AMSA09.jpg,AMSA05.jpg,AMNE09.jpg,AMNE09.jpg,MN,1,num_4,16,num_4,0.983306808397,,,2017_Dec_08_1341,60.0097007433,FEMA4ImagesEEG,001,202496,
AMSA21.JPG,AMNE23.JPG,AMNE21.JPG,AMSA25.JPG,AMNE25.JPG,AMSA23.JPG,,,,,0,3,3,5,,,,,,,,,,,,,,,,,,,AMNE20.jpg,AMSA17.jpg,AMNE19.jpg,AMSA18.jpg,AMNE19.jpg,MN,1,num_2,32,num_8,1.76676423568,,,2017_Dec_08_1341,60.0097007433,FEMA4ImagesEEG,001,202496,
AMNE22.JPG,AMSA24.JPG,AMSA22.JPG,AMNE25.JPG,AMNE24.JPG,AMSA25.JPG,,,,,0,4,4,7,,,,,,,,,,,,,,,,,,,AMNE16.jpg,AMSA18.jpg,AMNE09.jpg,AMSA17.jpg,AMNE09.jpg,MN,1,num_2,16,num_2,1.36670175544,,,2017_Dec_08_1341,60.0097007433,FEMA4ImagesEEG,001,202496,
AFSA21.JPG,AFNE22.JPG,AFNE21.JPG,AFSA23.JPG,AFSA22.JPG,AFNE23.JPG,,,,,0,5,5,0,,,,,,,,,,,,,,,,,,,AMNE14.jpg,AMSA12.jpg,AMSA10.jpg,AMNE16.jpg,AMSA12.jpg,MS,2,num_6,16,num_6,2.34997681063,,,2017_Dec_08_1341,60.0097007433,FEMA4ImagesEEG,001,202496,
AMSA25.JPG,AMNE24.JPG,AMSA24.JPG,AMNE26.JPG,AMSA21.JPG,AMNE25.JPG,,,,,0,6,6,3,,,,,,,,,,,,,,,,,,,AMSA18.jpg,AMNE08.jpg,AMNE11.jpg,AMSA05.jpg,AMSA05.jpg,MS,2,num_4,32,num_2,1.60013220855,,,2017_Dec_08_1341,60.0097007433,FEMA4ImagesEEG,001,202496,
AMSA21.JPG,AMNE22.JPG,AMNE21.JPG,AMSA23.JPG,AMSA22.JPG,AMNE23.JPG,,,,,0,7,7,1,,,,,,,,,,,,,,,,,,,AMNE06.jpg,AMNE04.jpg,AMSA11.jpg,AMSA16.jpg,AMSA11.jpg,MS,2,num_2,16,num_2,0.950106453383,,,2017_Dec_08_1341,60.0097007433,FEMA4ImagesEEG,001,202496,
AMNE23.JPG,AMNE24.JPG,AMNE22.JPG,AMSA24.JPG,AMSA22.JPG,AMSA23.JPG,,,,,0,8,8,9,,,,,,,,,,,,,,,,,,,AMNE12.jpg,AMSA12.jpg,AMNE06.jpg,AMSA02.jpg,AMSA02.jpg,MS,2,num_4,16,num_4,0.816798586864,,,2017_Dec_08_1341,60.0097007433,FEMA4ImagesEEG,001,202496,
AFNE22.JPG,AFSA24.JPG,AFSA22.JPG,AFNE25.JPG,AFNE24.JPG,AFSA25.JPG,,,,,0,9,9,6,,,,,,,,,,,,,,,,,,,AMSA15.jpg,AMNE20.jpg,AMSA14.jpg,AMNE16.jpg,AMSA15.jpg,MS,2,num_8,32,num_6,1.25010375911,,,2017_Dec_08_1341,60.0097007433,FEMA4ImagesEEG,001,202496,
AFNE23.JPG,AFNE24.JPG,AFNE22.JPG,AFSA24.JPG,AFSA22.JPG,AFSA23.JPG,,,,,,,,,0,0,0,8,,,,,,,,,,,,,,,AFSA14.jpg,AFSA03.jpg,AFNE13.jpg,AFNE04.jpg,AFNE04.jpg,FN,3,num_4,32,num_8,1.03344732407,,,2017_Dec_08_1341,60.0097007433,FEMA4ImagesEEG,001,202496,
AMNE23.JPG,AMNE24.JPG,AMNE22.JPG,AMSA24.JPG,AMSA22.JPG,AMSA23.JPG,,,,,,,,,0,1,1,9,,,,,,,,,,,,,,,AFSA01.jpg,AFNE17.jpg,AFSA20.jpg,AFNE13.jpg,AFNE13.jpg,FN,3,num_4,16,num_4,0.750124607002,,,2017_Dec_08_1341,60.0097007433,FEMA4ImagesEEG,001,202496,
AFSA25.JPG,AFNE24.JPG,AFSA24.JPG,AFNE21.JPG,AFSA21.JPG,AFNE25.JPG,,,,,,,,,0,2,2,2,,,,,,,,,,,,,,,AFSA08.jpg,AFNE06.jpg,AFNE08.jpg,AFSA09.jpg,AFSA09.jpg,FS,4,num_4,32,num_8,0.683455759427,,,2017_Dec_08_1341,60.0097007433,FEMA4ImagesEEG,001,202496,
AMSA21.JPG,AMNE23.JPG,AMNE21.JPG,AMSA25.JPG,AMNE25.JPG,AMSA23.JPG,,,,,,,,,0,3,3,5,,,,,,,,,,,,,,,AFSA17.jpg,AFNE13.jpg,AFSA02.jpg,AFNE11.jpg,AFNE11.jpg,FN,3,num_4,32,num_2,0.916734823957,,,2017_Dec_08_1341,60.0097007433,FEMA4ImagesEEG,001,202496,
AMNE22.JPG,AMSA24.JPG,AMSA22.JPG,AMNE25.JPG,AMNE24.JPG,AMSA25.JPG,,,,,,,,,0,4,4,7,,,,,,,,,,,,,,,AFSA15.jpg,AFNE16.jpg,AFNE17.jpg,AFSA16.jpg,AFSA16.jpg,FS,4,num_4,16,num_4,0.91678485903,,,2017_Dec_08_1341,60.0097007433,FEMA4ImagesEEG,001,202496,
AFSA21.JPG,AFNE23.JPG,AFNE21.JPG,AFSA25.JPG,AFNE25.JPG,AFSA23.JPG,,,,,,,,,0,5,5,4,,,,,,,,,,,,,,,AFSA17.jpg,AFNE12.jpg,AFNE01.jpg,AFSA14.jpg,AFNE01.jpg,FN,3,num_2,32,num_8,1.58326389315,,,2017_Dec_08_1341,60.0097007433,FEMA4ImagesEEG,001,202496,
AFSA21.JPG,AFNE22.JPG,AFNE21.JPG,AFSA23.JPG,AFSA22.JPG,AFNE23.JPG,,,,,,,,,0,6,6,0,,,,,,,,,,,,,,,AFSA06.jpg,AFNE07.jpg,AFNE02.jpg,AFSA19.jpg,AFSA19.jpg,FS,4,num_4,32,num_6,0.966782966862,,,2017_Dec_08_1341,60.0097007433,FEMA4ImagesEEG,001,202496,
AMSA25.JPG,AMNE24.JPG,AMSA24.JPG,AMNE26.JPG,AMSA21.JPG,AMNE25.JPG,,,,,,,,,0,7,7,3,,,,,,,,,,,,,,,AFNE09.jpg,AFSA10.jpg,AFSA05.jpg,AFNE01.jpg,AFNE09.jpg,FN,3,num_8,16,num_8,0.566799067892,,,2017_Dec_08_1341,60.0097007433,FEMA4ImagesEEG,001,202496,
AFNE22.JPG,AFSA24.JPG,AFSA22.JPG,AFNE25.JPG,AFNE24.JPG,AFSA25.JPG,,,,,,,,,0,8,8,6,,,,,,,,,,,,,,,AFSA05.jpg,AFNE12.jpg,AFNE11.jpg,AFSA16.jpg,AFSA16.jpg,FS,4,num_4,16,num_4,0.866794769885,,,2017_Dec_08_1341,60.0097007433,FEMA4ImagesEEG,001,202496,
AMSA21.JPG,AMNE22.JPG,AMNE21.JPG,AMSA23.JPG,AMSA22.JPG,AMNE23.JPG,,,,,,,,,0,9,9,1,,,,,,,,,,,,,,,AFSA05.jpg,AFNE13.jpg,AFNE18.jpg,AFSA01.jpg,AFNE13.jpg,FN,3,num_6,32,num_2,1.81672096788,,,2017_Dec_08_1341,60.0097007433,FEMA4ImagesEEG,001,202496,
AFNE23.JPG,AFNE24.JPG,AFNE22.JPG,AFSA24.JPG,AFSA22.JPG,AFSA23.JPG,,,,,,,,,,,,,0,0,0,8,,,,,,,,,,,AMNE13.jpg,AMSA10.jpg,AMSA06.jpg,AMNE19.jpg,AMSA10.jpg,MS,2,num_6,16,num_6,0.867085359758,,,2017_Dec_08_1341,60.0097007433,FEMA4ImagesEEG,001,202496,
AFNE22.JPG,AFSA24.JPG,AFSA22.JPG,AFNE25.JPG,AFNE24.JPG,AFSA25.JPG,,,,,,,,,,,,,0,1,1,6,,,,,,,,,,,AMSA09.jpg,AMNE06.jpg,AMSA19.jpg,AMNE08.jpg,AMSA09.jpg,MS,2,num_8,32,num_4,1.16659834911,,,2017_Dec_08_1341,60.0097007433,FEMA4ImagesEEG,001,202496,
AFSA21.JPG,AFNE22.JPG,AFNE21.JPG,AFSA23.JPG,AFSA22.JPG,AFNE23.JPG,,,,,,,,,,,,,0,2,2,0,,,,,,,,,,,AMSA19.jpg,AMNE06.jpg,AMSA06.jpg,AMNE13.jpg,AMSA19.jpg,MS,2,num_8,16,num_8,1.7000225801,,,2017_Dec_08_1341,60.0097007433,FEMA4ImagesEEG,001,202496,
AMSA25.JPG,AMNE24.JPG,AMSA24.JPG,AMNE26.JPG,AMSA21.JPG,AMNE25.JPG,,,,,,,,,,,,,0,3,3,3,,,,,,,,,,,AMSA08.jpg,AMNE17.jpg,AMSA04.jpg,AMNE16.jpg,AMSA08.jpg,MS,2,num_8,32,num_2,2.06664671656,,,2017_Dec_08_1341,60.0097007433,FEMA4ImagesEEG,001,202496,
AMSA21.JPG,AMNE23.JPG,AMNE21.JPG,AMSA25.JPG,AMNE25.JPG,AMSA23.JPG,,,,,,,,,,,,,0,4,4,5,,,,,,,,,,,AMNE11.jpg,AMSA19.jpg,AMNE19.jpg,AMSA20.jpg,AMNE11.jpg,MN,1,num_8,16,num_8,1.31672321307,,,2017_Dec_08_1341,60.0097007433,FEMA4ImagesEEG,001,202496,
AMNE23.JPG,AMNE24.JPG,AMNE22.JPG,AMSA24.JPG,AMSA22.JPG,AMSA23.JPG,,,,,,,,,,,,,0,5,5,9,,,,,,,,,,,AMNE16.jpg,AMNE14.jpg,AMSA05.jpg,AMSA06.jpg,AMSA05.jpg,MS,2,num_2,32,num_8,0.983424519422,,,2017_Dec_08_1341,60.0097007433,FEMA4ImagesEEG,001,202496,
AMSA21.JPG,AMNE22.JPG,AMNE21.JPG,AMSA23.JPG,AMSA22.JPG,AMNE23.JPG,,,,,,,,,,,,,0,6,6,1,,,,,,,,,,,AMSA13.jpg,AMNE18.jpg,AMSA17.jpg,AMNE11.jpg,AMNE11.jpg,MN,1,num_4,16,num_4,0.866729339119,,,2017_Dec_08_1341,60.0097007433,FEMA4ImagesEEG,001,202496,
AMNE22.JPG,AMSA24.JPG,AMSA22.JPG,AMNE25.JPG,AMNE24.JPG,AMSA25.JPG,,,,,,,,,,,,,0,7,7,7,,,,,,,,,,,AMSA14.jpg,AMNE01.jpg,AMSA01.jpg,AMNE16.jpg,AMNE16.jpg,MN,1,num_4,16,num_4,0.966736459639,,,2017_Dec_08_1341,60.0097007433,FEMA4ImagesEEG,001,202496,
AFSA25.JPG,AFNE24.JPG,AFSA24.JPG,AFNE21.JPG,AFSA21.JPG,AFNE25.JPG,,,,,,,,,,,,,0,8,8,2,,,,,,,,,,,AMNE19.jpg,AMSA13.jpg,AMSA05.jpg,AMNE07.jpg,AMSA05.jpg,MS,2,num_2,16,num_2,1.28346255911,,,2017_Dec_08_1341,60.0097007433,FEMA4ImagesEEG,001,202496,
AFSA21.JPG,AFNE23.JPG,AFNE21.JPG,AFSA25.JPG,AFNE25.JPG,AFSA23.JPG,,,,,,,,,,,,,0,9,9,4,,,,,,,,,,,AMNE04.jpg,AMSA20.jpg,AMNE07.jpg,AMSA03.jpg,AMSA20.jpg,MS,2,num_6,16,num_6,1.26671933196,,,2017_Dec_08_1341,60.0097007433,FEMA4ImagesEEG,001,202496,
AMSA21.JPG,AMNE22.JPG,AMNE21.JPG,AMSA23.JPG,AMSA22.JPG,AMNE23.JPG,,,,,,,,,,,,,,,,,0,0,0,1,,,,,,,AFSA15.jpg,AFNE19.jpg,AFNE01.jpg,AFSA07.jpg,AFSA07.jpg,FS,4,num_4,16,num_4,1.26674948144,,,2017_Dec_08_1341,60.0097007433,FEMA4ImagesEEG,001,202496,
AFNE22.JPG,AFSA24.JPG,AFSA22.JPG,AFNE25.JPG,AFNE24.JPG,AFSA25.JPG,,,,,,,,,,,,,,,,,0,1,1,6,,,,,,,AFSA20.jpg,AFSA18.jpg,AFNE18.jpg,AFNE04.jpg,AFSA20.jpg,FS,4,num_8,16,num_8,1.33341736719,,,2017_Dec_08_1341,60.0097007433,FEMA4ImagesEEG,001,202496,
AFSA25.JPG,AFNE24.JPG,AFSA24.JPG,AFNE21.JPG,AFSA21.JPG,AFNE25.JPG,,,,,,,,,,,,,,,,,0,2,2,2,,,,,,,AFNE07.jpg,AFNE01.jpg,AFSA09.jpg,AFSA13.jpg,AFNE01.jpg,FN,3,num_6,32,num_8,1.00007793959,,,2017_Dec_08_1341,60.0097007433,FEMA4ImagesEEG,001,202496,
AMNE22.JPG,AMSA24.JPG,AMSA22.JPG,AMNE25.JPG,AMNE24.JPG,AMSA25.JPG,,,,,,,,,,,,,,,,,0,3,3,7,,,,,,,AFSA20.jpg,AFSA15.jpg,AFNE09.jpg,AFNE02.jpg,AFNE02.jpg,FN,3,num_4,32,num_6,1.58338962309,,,2017_Dec_08_1341,60.0097007433,FEMA4ImagesEEG,001,202496,
AFSA21.JPG,AFNE23.JPG,AFNE21.JPG,AFSA25.JPG,AFNE25.JPG,AFSA23.JPG,,,,,,,,,,,,,,,,,0,4,4,4,,,,,,,AFSA07.jpg,AFNE04.jpg,AFSA09.jpg,AFNE14.jpg,AFNE14.jpg,FN,3,num_4,32,num_6,0.666762567591,,,2017_Dec_08_1341,60.0097007433,FEMA4ImagesEEG,001,202496,
AFNE23.JPG,AFNE24.JPG,AFNE22.JPG,AFSA24.JPG,AFSA22.JPG,AFSA23.JPG,,,,,,,,,,,,,,,,,0,5,5,8,,,,,,,AFSA17.jpg,AFNE03.jpg,AFSA01.jpg,AFNE01.jpg,AFNE01.jpg,FN,3,num_4,32,num_8,1.21671320591,,,2017_Dec_08_1341,60.0097007433,FEMA4ImagesEEG,001,202496,
AMSA25.JPG,AMNE24.JPG,AMSA24.JPG,AMNE26.JPG,AMSA21.JPG,AMNE25.JPG,,,,,,,,,,,,,,,,,0,6,6,3,,,,,,,AFNE11.jpg,AFNE03.jpg,AFSA18.jpg,AFSA09.jpg,AFSA18.jpg,FS,4,num_2,32,num_4,1.28340226016,,,2017_Dec_08_1341,60.0097007433,FEMA4ImagesEEG,001,202496,
AFSA21.JPG,AFNE22.JPG,AFNE21.JPG,AFSA23.JPG,AFSA22.JPG,AFNE23.JPG,,,,,,,,,,,,,,,,,0,7,7,0,,,,,,,AFSA19.jpg,AFSA18.jpg,AFNE10.jpg,AFNE17.jpg,AFNE17.jpg,FN,3,num_4,16,num_4,0.850108955055,,,2017_Dec_08_1341,60.0097007433,FEMA4ImagesEEG,001,202496,
AMNE23.JPG,AMNE24.JPG,AMNE22.JPG,AMSA24.JPG,AMSA22.JPG,AMSA23.JPG,,,,,,,,,,,,,,,,,0,8,8,9,,,,,,,AFNE18.jpg,AFSA16.jpg,AFNE19.jpg,AFSA15.jpg,AFNE18.jpg,FN,3,num_8,32,num_6,0.916480156826,,,2017_Dec_08_1341,60.0097007433,FEMA4ImagesEEG,001,202496,
AMSA21.JPG,AMNE23.JPG,AMNE21.JPG,AMSA25.JPG,AMNE25.JPG,AMSA23.JPG,,,,,,,,,,,,,,,,,0,9,9,5,,,,,,,AFSA03.jpg,AFNE11.jpg,AFNE04.jpg,AFSA06.jpg,AFNE11.jpg,FN,3,num_6,32,num_8,0.73352122237,,,2017_Dec_08_1341,60.0097007433,FEMA4ImagesEEG,001,202496,
AFSA25.JPG,AFNE24.JPG,AFSA24.JPG,AFNE21.JPG,AFSA21.JPG,AFNE25.JPG,,,,,,,,,,,,,,,,,,,,,0,0,0,2,,,AMSA12.jpg,AMSA01.jpg,AMNE02.jpg,AMNE10.jpg,AMSA01.jpg,MS,2,num_6,16,num_6,0.650168804917,,,2017_Dec_08_1341,60.0097007433,FEMA4ImagesEEG,001,202496,
AMSA25.JPG,AMNE24.JPG,AMSA24.JPG,AMNE26.JPG,AMSA21.JPG,AMNE25.JPG,,,,,,,,,,,,,,,,,,,,,0,1,1,3,,,AMNE08.jpg,AMSA19.jpg,AMNE10.jpg,AMSA18.jpg,AMNE10.jpg,MN,1,num_2,16,num_2,1.8000043619,,,2017_Dec_08_1341,60.0097007433,FEMA4ImagesEEG,001,202496,
AFNE22.JPG,AFSA24.JPG,AFSA22.JPG,AFNE25.JPG,AFNE24.JPG,AFSA25.JPG,,,,,,,,,,,,,,,,,,,,,0,2,2,6,,,AMSA13.jpg,AMSA17.jpg,AMNE14.jpg,AMNE19.jpg,AMNE19.jpg,MN,1,num_4,16,num_4,0.566748390906,,,2017_Dec_08_1341,60.0097007433,FEMA4ImagesEEG,001,202496,
AMNE23.JPG,AMNE24.JPG,AMNE22.JPG,AMSA24.JPG,AMSA22.JPG,AMSA23.JPG,,,,,,,,,,,,,,,,,,,,,0,3,3,9,,,AMNE02.jpg,AMNE17.jpg,AMSA19.jpg,AMSA05.jpg,AMNE17.jpg,MN,1,num_6,16,num_6,0.733439754695,,,2017_Dec_08_1341,60.0097007433,FEMA4ImagesEEG,001,202496,
AMNE22.JPG,AMSA24.JPG,AMSA22.JPG,AMNE25.JPG,AMNE24.JPG,AMSA25.JPG,,,,,,,,,,,,,,,,,,,,,0,4,4,7,,,AMNE06.jpg,AMSA11.jpg,AMNE12.jpg,AMSA09.jpg,AMSA11.jpg,MS,2,num_6,32,num_4,0.950103887357,,,2017_Dec_08_1341,60.0097007433,FEMA4ImagesEEG,001,202496,
AFNE23.JPG,AFNE24.JPG,AFNE22.JPG,AFSA24.JPG,AFSA22.JPG,AFSA23.JPG,,,,,,,,,,,,,,,,,,,,,0,5,5,8,,,AMNE06.jpg,AMNE16.jpg,AMSA04.jpg,AMSA18.jpg,AMSA18.jpg,MS,2,num_4,16,num_4,1.11676542228,,,2017_Dec_08_1341,60.0097007433,FEMA4ImagesEEG,001,202496,
AFSA21.JPG,AFNE22.JPG,AFNE21.JPG,AFSA23.JPG,AFSA22.JPG,AFNE23.JPG,,,,,,,,,,,,,,,,,,,,,0,6,6,0,,,AMNE01.jpg,AMNE10.jpg,AMSA05.jpg,AMSA16.jpg,AMNE01.jpg,MN,1,num_8,32,num_2,1.80004637875,,,2017_Dec_08_1341,60.0097007433,FEMA4ImagesEEG,001,202496,
AFSA21.JPG,AFNE23.JPG,AFNE21.JPG,AFSA25.JPG,AFNE25.JPG,AFSA23.JPG,,,,,,,,,,,,,,,,,,,,,0,7,7,4,,,AMSA16.jpg,AMNE13.jpg,AMSA03.jpg,AMNE17.jpg,AMSA03.jpg,MS,2,num_2,32,num_4,1.1500828471,,,2017_Dec_08_1341,60.0097007433,FEMA4ImagesEEG,001,202496,
AMSA21.JPG,AMNE22.JPG,AMNE21.JPG,AMSA23.JPG,AMSA22.JPG,AMNE23.JPG,,,,,,,,,,,,,,,,,,,,,0,8,8,1,,,AMNE14.jpg,AMSA05.jpg,AMNE19.jpg,AMSA10.jpg,AMSA10.jpg,MS,2,num_4,32,num_6,1.26672029425,,,2017_Dec_08_1341,60.0097007433,FEMA4ImagesEEG,001,202496,
AMSA21.JPG,AMNE23.JPG,AMNE21.JPG,AMSA25.JPG,AMNE25.JPG,AMSA23.JPG,,,,,,,,,,,,,,,,,,,,,0,9,9,5,,,AMNE03.jpg,AMSA06.jpg,AMNE09.jpg,AMSA04.jpg,AMSA04.jpg,MS,2,num_4,16,num_4,0.883425096748,,,2017_Dec_08_1341,60.0097007433,FEMA4ImagesEEG,001,202496,
,,,,,,,,,,,,,,,,,,,,,,,,,,,,,,,,,,,,,,,,,,,space,15.6992451083,2017_Dec_08_1341,60.0097007433,FEMA4ImagesEEG,001,202496,
AFNE01.JPG,AFNE01.JPG,AFNE01.JPG,AFNE01.JPG,AFNE01.JPG,AFNE01.JPG,0,0,0,2,,,,,,,,,,,,,,,,,,,,,,,AFSA15.jpg,AFSA05.jpg,AFNE16.jpg,AFNE14.jpg,AFSA05.jpg,FS,4,num_6,16,num_6,0.700184874237,,,2017_Dec_08_1341,60.0097007433,FEMA4ImagesEEG,001,202496,
AFNE01.JPG,AFNE01.JPG,AFNE01.JPG,AFNE01.JPG,AFNE01.JPG,AFNE01.JPG,0,1,1,7,,,,,,,,,,,,,,,,,,,,,,,AFSA14.jpg,AFNE06.jpg,AFSA18.jpg,AFNE03.jpg,AFNE03.jpg,FN,3,num_4,32,num_8,1.24993505026,,,2017_Dec_08_1341,60.0097007433,FEMA4ImagesEEG,001,202496,
AFNE01.JPG,AFNE01.JPG,AFNE01.JPG,AFNE01.JPG,AFNE01.JPG,AFNE01.JPG,0,2,2,8,,,,,,,,,,,,,,,,,,,,,,,AFNE18.jpg,AFNE20.jpg,AFSA14.jpg,AFSA15.jpg,AFNE20.jpg,FN,3,num_6,32,num_8,0.950100359274,,,2017_Dec_08_1341,60.0097007433,FEMA4ImagesEEG,001,202496,
AFNE01.JPG,AFNE01.JPG,AFNE01.JPG,AFNE01.JPG,AFNE01.JPG,AFNE01.JPG,0,3,3,1,,,,,,,,,,,,,,,,,,,,,,,AFNE14.jpg,AFNE03.jpg,AFSA13.jpg,AFSA17.jpg,AFNE14.jpg,FN,3,num_8,16,num_8,0.600131887943,,,2017_Dec_08_1341,60.0097007433,FEMA4ImagesEEG,001,202496,
AFNE01.JPG,AFNE01.JPG,AFNE01.JPG,AFNE01.JPG,AFNE01.JPG,AFNE01.JPG,0,4,4,4,,,,,,,,,,,,,,,,,,,,,,,AFSA10.jpg,AFNE14.jpg,AFSA06.jpg,AFNE11.jpg,AFSA10.jpg,FS,4,num_8,32,num_6,0.666676609544,,,2017_Dec_08_1341,60.0097007433,FEMA4ImagesEEG,001,202496,
AFNE01.JPG,AFNE01.JPG,AFNE01.JPG,AFNE01.JPG,AFNE01.JPG,AFNE01.JPG,0,5,5,3,,,,,,,,,,,,,,,,,,,,,,,AFSA07.jpg,AFSA01.jpg,AFNE06.jpg,AFNE19.jpg,AFSA07.jpg,FS,4,num_8,16,num_8,1.1667417197,,,2017_Dec_08_1341,60.0097007433,FEMA4ImagesEEG,001,202496,
AFNE01.JPG,AFNE01.JPG,AFNE01.JPG,AFNE01.JPG,AFNE01.JPG,AFNE01.JPG,0,6,6,5,,,,,,,,,,,,,,,,,,,,,,,AFNE04.jpg,AFSA05.jpg,AFSA20.jpg,AFNE13.jpg,AFNE04.jpg,FN,3,num_8,16,num_8,1.28338365722,,,2017_Dec_08_1341,60.0097007433,FEMA4ImagesEEG,001,202496,
AFNE01.JPG,AFNE01.JPG,AFNE01.JPG,AFNE01.JPG,AFNE01.JPG,AFNE01.JPG,0,7,7,9,,,,,,,,,,,,,,,,,,,,,,,AFNE18.jpg,AFNE20.jpg,AFSA06.jpg,AFSA17.jpg,AFSA06.jpg,FS,4,num_2,16,num_2,1.03362854174,,,2017_Dec_08_1341,60.0097007433,FEMA4ImagesEEG,001,202496,
AFNE01.JPG,AFNE01.JPG,AFNE01.JPG,AFNE01.JPG,AFNE01.JPG,AFNE01.JPG,0,8,8,0,,,,,,,,,,,,,,,,,,,,,,,AFNE10.jpg,AFSA09.jpg,AFNE02.jpg,AFSA05.jpg,AFNE10.jpg,FN,3,num_8,32,num_6,0.800106998533,,,2017_Dec_08_1341,60.0097007433,FEMA4ImagesEEG,001,202496,
AFNE01.JPG,AFNE01.JPG,AFNE01.JPG,AFNE01.JPG,AFNE01.JPG,AFNE01.JPG,0,9,9,6,,,,,,,,,,,,,,,,,,,,,,,AFNE07.jpg,AFSA20.jpg,AFSA12.jpg,AFNE08.jpg,AFNE07.jpg,FN,3,num_8,16,num_8,0.9834947614,,,2017_Dec_08_1341,60.0097007433,FEMA4ImagesEEG,001,202496,
AFNE01.JPG,AFNE01.JPG,AFNE01.JPG,AFNE01.JPG,AFNE01.JPG,AFNE01.JPG,1,0,10,4,,,,,,,,,,,,,,,,,,,,,,,AFSA03.jpg,AFSA12.jpg,AFNE03.jpg,AFNE16.jpg,AFSA03.jpg,FS,4,num_8,32,num_4,0.950033966452,,,2017_Dec_08_1341,60.0097007433,FEMA4ImagesEEG,001,202496,
AFNE01.JPG,AFNE01.JPG,AFNE01.JPG,AFNE01.JPG,AFNE01.JPG,AFNE01.JPG,1,1,11,8,,,,,,,,,,,,,,,,,,,,,,,AFSA17.jpg,AFSA04.jpg,AFNE15.jpg,AFNE03.jpg,AFSA17.jpg,FS,4,num_8,32,num_6,1.53339857166,,,2017_Dec_08_1341,60.0097007433,FEMA4ImagesEEG,001,202496,
AFNE01.JPG,AFNE01.JPG,AFNE01.JPG,AFNE01.JPG,AFNE01.JPG,AFNE01.JPG,1,2,12,2,,,,,,,,,,,,,,,,,,,,,,,AFSA11.jpg,AFNE19.jpg,AFSA08.jpg,AFNE06.jpg,AFSA08.jpg,FS,4,num_2,32,num_8,1.66654125764,,,2017_Dec_08_1341,60.0097007433,FEMA4ImagesEEG,001,202496,
AFNE01.JPG,AFNE01.JPG,AFNE01.JPG,AFNE01.JPG,AFNE01.JPG,AFNE01.JPG,1,3,13,6,,,,,,,,,,,,,,,,,,,,,,,AFSA07.jpg,AFNE14.jpg,AFSA09.jpg,AFNE20.jpg,AFNE14.jpg,FN,3,num_6,32,num_4,1.0334941519,,,2017_Dec_08_1341,60.0097007433,FEMA4ImagesEEG,001,202496,
AFNE01.JPG,AFNE01.JPG,AFNE01.JPG,AFNE01.JPG,AFNE01.JPG,AFNE01.JPG,1,4,14,1,,,,,,,,,,,,,,,,,,,,,,,AFNE09.jpg,AFNE17.jpg,AFSA15.jpg,AFSA05.jpg,AFNE09.jpg,FN,3,num_8,16,num_8,0.966786494944,,,2017_Dec_08_1341,60.0097007433,FEMA4ImagesEEG,001,202496,
AFNE01.JPG,AFNE01.JPG,AFNE01.JPG,AFNE01.JPG,AFNE01.JPG,AFNE01.JPG,1,5,15,0,,,,,,,,,,,,,,,,,,,,,,,AFNE03.jpg,AFSA10.jpg,AFNE20.jpg,AFSA17.jpg,AFNE03.jpg,FN,3,num_8,32,num_2,1.33344078111,,,2017_Dec_08_1341,60.0097007433,FEMA4ImagesEEG,001,202496,
AFNE01.JPG,AFNE01.JPG,AFNE01.JPG,AFNE01.JPG,AFNE01.JPG,AFNE01.JPG,1,6,16,5,,,,,,,,,,,,,,,,,,,,,,,AFSA02.jpg,AFSA17.jpg,AFNE08.jpg,AFNE06.jpg,AFSA02.jpg,FS,4,num_8,32,num_6,0.8334590632,,,2017_Dec_08_1341,60.0097007433,FEMA4ImagesEEG,001,202496,
AFNE01.JPG,AFNE01.JPG,AFNE01.JPG,AFNE01.JPG,AFNE01.JPG,AFNE01.JPG,1,7,17,9,,,,,,,,,,,,,,,,,,,,,,,AFNE20.jpg,AFSA16.jpg,AFSA02.jpg,AFNE10.jpg,AFNE10.jpg,FN,3,num_4,16,num_4,1.11671185889,,,2017_Dec_08_1341,60.0097007433,FEMA4ImagesEEG,001,202496,
AFNE01.JPG,AFNE01.JPG,AFNE01.JPG,AFNE01.JPG,AFNE01.JPG,AFNE01.JPG,1,8,18,7,,,,,,,,,,,,,,,,,,,,,,,AFNE08.jpg,AFSA03.jpg,AFNE07.jpg,AFSA08.jpg,AFNE08.jpg,FN,3,num_8,16,num_8,0.950122811133,,,2017_Dec_08_1341,60.0097007433,FEMA4ImagesEEG,001,202496,
AFNE01.JPG,AFNE01.JPG,AFNE01.JPG,AFNE01.JPG,AFNE01.JPG,AFNE01.JPG,1,9,19,3,,,,,,,,,,,,,,,,,,,,,,,AFSA17.jpg,AFSA01.jpg,AFNE11.jpg,AFNE19.jpg,AFNE19.jpg,FN,3,num_4,16,num_4,1.56676891842,,,2017_Dec_08_1341,60.0097007433,FEMA4ImagesEEG,001,202496,
AFNE01.JPG,AFNE01.JPG,AFNE01.JPG,AFNE01.JPG,AFNE01.JPG,AFNE01.JPG,2,0,20,6,,,,,,,,,,,,,,,,,,,,,,,AFSA11.jpg,AFSA09.jpg,AFNE01.jpg,AFNE20.jpg,AFNE01.jpg,FN,3,num_2,32,num_8,1.38342509675,,,2017_Dec_08_1341,60.0097007433,FEMA4ImagesEEG,001,202496,
AFNE01.JPG,AFNE01.JPG,AFNE01.JPG,AFNE01.JPG,AFNE01.JPG,AFNE01.JPG,2,1,21,1,,,,,,,,,,,,,,,,,,,,,,,AFNE07.jpg,AFNE12.jpg,AFSA15.jpg,AFSA18.jpg,AFNE12.jpg,FN,3,num_6,16,num_6,0.716749128653,,,2017_Dec_08_1341,60.0097007433,FEMA4ImagesEEG,001,202496,
AFNE01.JPG,AFNE01.JPG,AFNE01.JPG,AFNE01.JPG,AFNE01.JPG,AFNE01.JPG,2,2,22,5,,,,,,,,,,,,,,,,,,,,,,,AFNE19.jpg,AFSA19.jpg,AFSA20.jpg,AFNE15.jpg,AFSA19.jpg,FS,4,num_6,32,num_8,1.55004429398,,,2017_Dec_08_1341,60.0097007433,FEMA4ImagesEEG,001,202496,
AFNE01.JPG,AFNE01.JPG,AFNE01.JPG,AFNE01.JPG,AFNE01.JPG,AFNE01.JPG,2,3,23,0,,,,,,,,,,,,,,,,,,,,,,,AFNE09.jpg,AFNE01.jpg,AFSA10.jpg,AFSA18.jpg,AFSA18.jpg,FS,4,num_4,16,num_4,1.30005632178,,,2017_Dec_08_1341,60.0097007433,FEMA4ImagesEEG,001,202496,
AFNE01.JPG,AFNE01.JPG,AFNE01.JPG,AFNE01.JPG,AFNE01.JPG,AFNE01.JPG,2,4,24,9,,,,,,,,,,,,,,,,,,,,,,,AFSA11.jpg,AFNE15.jpg,AFNE17.jpg,AFSA14.jpg,AFNE15.jpg,FN,3,num_6,16,num_6,1.40010161023,,,2017_Dec_08_1341,60.0097007433,FEMA4ImagesEEG,001,202496,
AFNE01.JPG,AFNE01.JPG,AFNE01.JPG,AFNE01.JPG,AFNE01.JPG,AFNE01.JPG,2,5,25,7,,,,,,,,,,,,,,,,,,,,,,,AFNE06.jpg,AFSA10.jpg,AFNE18.jpg,AFSA05.jpg,AFSA05.jpg,FS,4,num_4,16,num_4,1.25005725189,,,2017_Dec_08_1341,60.0097007433,FEMA4ImagesEEG,001,202496,
AFNE01.JPG,AFNE01.JPG,AFNE01.JPG,AFNE01.JPG,AFNE01.JPG,AFNE01.JPG,2,6,26,4,,,,,,,,,,,,,,,,,,,,,,,AFSA14.jpg,AFSA09.jpg,AFNE03.jpg,AFNE10.jpg,AFSA09.jpg,FS,4,num_6,16,num_6,0.850106068421,,,2017_Dec_08_1341,60.0097007433,FEMA4ImagesEEG,001,202496,
AFNE01.JPG,AFNE01.JPG,AFNE01.JPG,AFNE01.JPG,AFNE01.JPG,AFNE01.JPG,2,7,27,3,,,,,,,,,,,,,,,,,,,,,,,AFNE08.jpg,AFNE20.jpg,AFSA05.jpg,AFSA15.jpg,AFSA05.jpg,FS,4,num_2,32,num_8,1.46667904733,,,2017_Dec_08_1341,60.0097007433,FEMA4ImagesEEG,001,202496,
AFNE01.JPG,AFNE01.JPG,AFNE01.JPG,AFNE01.JPG,AFNE01.JPG,AFNE01.JPG,2,8,28,2,,,,,,,,,,,,,,,,,,,,,,,AFSA18.jpg,AFNE20.jpg,AFNE12.jpg,AFSA02.jpg,AFNE12.jpg,FN,3,num_2,16,num_2,1.86670175567,,,2017_Dec_08_1341,60.0097007433,FEMA4ImagesEEG,001,202496,
AFNE01.JPG,AFNE01.JPG,AFNE01.JPG,AFNE01.JPG,AFNE01.JPG,AFNE01.JPG,2,9,29,8,,,,,,,,,,,,,,,,,,,,,,,AFNE06.jpg,AFSA19.jpg,AFSA18.jpg,AFNE19.jpg,AFNE06.jpg,FN,3,num_8,16,num_8,0.85012338846,,,2017_Dec_08_1341,60.0097007433,FEMA4ImagesEEG,001,202496,
AFNE01.JPG,AFNE01.JPG,AFNE01.JPG,AFNE01.JPG,AFNE01.JPG,AFNE01.JPG,3,0,30,7,,,,,,,,,,,,,,,,,,,,,,,AFSA12.jpg,AFNE09.jpg,AFSA11.jpg,AFNE12.jpg,AFSA12.jpg,FS,4,num_8,32,num_2,1.88366308529,,,2017_Dec_08_1341,60.0097007433,FEMA4ImagesEEG,001,202496,
AFNE01.JPG,AFNE01.JPG,AFNE01.JPG,AFNE01.JPG,AFNE01.JPG,AFNE01.JPG,3,1,31,2,,,,,,,,,,,,,,,,,,,,,,,AFSA06.jpg,AFNE13.jpg,AFNE11.jpg,AFSA04.jpg,AFSA04.jpg,FS,4,num_4,32,num_8,3.94988193596,,,2017_Dec_08_1341,60.0097007433,FEMA4ImagesEEG,001,202496,
AFNE01.JPG,AFNE01.JPG,AFNE01.JPG,AFNE01.JPG,AFNE01.JPG,AFNE01.JPG,3,2,32,1,,,,,,,,,,,,,,,,,,,,,,,AFNE10.jpg,AFSA14.jpg,AFNE12.jpg,AFSA15.jpg,AFNE12.jpg,FN,3,num_2,16,num_2,1.20005048416,,,2017_Dec_08_1341,60.0097007433,FEMA4ImagesEEG,001,202496,
AFNE01.JPG,AFNE01.JPG,AFNE01.JPG,AFNE01.JPG,AFNE01.JPG,AFNE01.JPG,3,3,33,6,,,,,,,,,,,,,,,,,,,,,,,AFSA13.jpg,AFSA02.jpg,AFNE13.jpg,AFNE08.jpg,AFNE13.jpg,FN,3,num_2,32,num_8,1.36682748515,,,2017_Dec_08_1341,60.0097007433,FEMA4ImagesEEG,001,202496,
AFNE01.JPG,AFNE01.JPG,AFNE01.JPG,AFNE01.JPG,AFNE01.JPG,AFNE01.JPG,3,4,34,3,,,,,,,,,,,,,,,,,,,,,,,AFSA12.jpg,AFNE20.jpg,AFNE16.jpg,AFSA11.jpg,AFSA11.jpg,FS,4,num_4,16,num_4,0.866721641272,,,2017_Dec_08_1341,60.0097007433,FEMA4ImagesEEG,001,202496,
AFNE01.JPG,AFNE01.JPG,AFNE01.JPG,AFNE01.JPG,AFNE01.JPG,AFNE01.JPG,3,5,35,8,,,,,,,,,,,,,,,,,,,,,,,AFSA06.jpg,AFNE05.jpg,AFSA13.jpg,AFNE07.jpg,AFNE05.jpg,FN,3,num_6,16,num_6,1.28348533157,,,2017_Dec_08_1341,60.0097007433,FEMA4ImagesEEG,001,202496,
AFNE01.JPG,AFNE01.JPG,AFNE01.JPG,AFNE01.JPG,AFNE01.JPG,AFNE01.JPG,3,6,36,4,,,,,,,,,,,,,,,,,,,,,,,AFSA10.jpg,AFNE02.jpg,AFNE11.jpg,AFSA05.jpg,AFNE02.jpg,FN,3,num_6,32,num_2,1.40005125408,,,2017_Dec_08_1341,60.0097007433,FEMA4ImagesEEG,001,202496,
AFNE01.JPG,AFNE01.JPG,AFNE01.JPG,AFNE01.JPG,AFNE01.JPG,AFNE01.JPG,3,7,37,0,,,,,,,,,,,,,,,,,,,,,,,AFNE07.jpg,AFSA11.jpg,AFSA04.jpg,AFNE11.jpg,AFSA11.jpg,FS,4,num_6,16,num_6,1.15008477145,,,2017_Dec_08_1341,60.0097007433,FEMA4ImagesEEG,001,202496,
AFNE01.JPG,AFNE01.JPG,AFNE01.JPG,AFNE01.JPG,AFNE01.JPG,AFNE01.JPG,3,8,38,5,,,,,,,,,,,,,,,,,,,,,,,AFSA16.jpg,AFNE04.jpg,AFSA15.jpg,AFNE03.jpg,AFSA15.jpg,FS,4,num_2,16,num_2,1.18346506101,,,2017_Dec_08_1341,60.0097007433,FEMA4ImagesEEG,001,202496,
AFNE01.JPG,AFNE01.JPG,AFNE01.JPG,AFNE01.JPG,AFNE01.JPG,AFNE01.JPG,3,9,39,9,,,,,,,,,,,,,,,,,,,,,,,AFNE02.jpg,AFSA07.jpg,AFNE15.jpg,AFSA10.jpg,AFSA07.jpg,FS,4,num_6,16,num_6,1.08343260223,,,2017_Dec_08_1341,60.0097007433,FEMA4ImagesEEG,001,202496,
AFNE01.JPG,AFNE01.JPG,AFNE01.JPG,AFNE01.JPG,AFNE01.JPG,AFNE01.JPG,4,0,40,8,,,,,,,,,,,,,,,,,,,,,,,AFNE16.jpg,AFSA17.jpg,AFSA07.jpg,AFNE07.jpg,AFNE16.jpg,FN,3,num_8,32,num_6,0.95013916865,,,2017_Dec_08_1341,60.0097007433,FEMA4ImagesEEG,001,202496,
AFNE01.JPG,AFNE01.JPG,AFNE01.JPG,AFNE01.JPG,AFNE01.JPG,AFNE01.JPG,4,1,41,6,,,,,,,,,,,,,,,,,,,,,,,AFNE01.jpg,AFNE14.jpg,AFSA04.jpg,AFSA02.jpg,AFSA02.jpg,FS,4,num_4,32,num_8,0.866687963717,,,2017_Dec_08_1341,60.0097007433,FEMA4ImagesEEG,001,202496,
AFNE01.JPG,AFNE01.JPG,AFNE01.JPG,AFNE01.JPG,AFNE01.JPG,AFNE01.JPG,4,2,42,2,,,,,,,,,,,,,,,,,,,,,,,AFNE19.jpg,AFNE12.jpg,AFSA13.jpg,AFSA17.jpg,AFNE19.jpg,FN,3,num_8,32,num_4,1.3167588152,,,2017_Dec_08_1341,60.0097007433,FEMA4ImagesEEG,001,202496,
AFNE01.JPG,AFNE01.JPG,AFNE01.JPG,AFNE01.JPG,AFNE01.JPG,AFNE01.JPG,4,3,43,9,,,,,,,,,,,,,,,,,,,,,,,AFNE15.jpg,AFNE14.jpg,AFSA18.jpg,AFSA02.jpg,AFSA02.jpg,FS,4,num_4,32,num_6,1.96664312435,,,2017_Dec_08_1341,60.0097007433,FEMA4ImagesEEG,001,202496,
AFNE01.JPG,AFNE01.JPG,AFNE01.JPG,AFNE01.JPG,AFNE01.JPG,AFNE01.JPG,4,4,44,5,,,,,,,,,,,,,,,,,,,,,,,AFNE11.jpg,AFNE06.jpg,AFSA11.jpg,AFSA07.jpg,AFSA11.jpg,FS,4,num_2,32,num_6,1.18347051344,,,2017_Dec_08_1341,60.0097007433,FEMA4ImagesEEG,001,202496,
AFNE01.JPG,AFNE01.JPG,AFNE01.JPG,AFNE01.JPG,AFNE01.JPG,AFNE01.JPG,4,5,45,3,,,,,,,,,,,,,,,,,,,,,,,AFNE14.jpg,AFNE10.jpg,AFSA20.jpg,AFSA16.jpg,AFSA20.jpg,FS,4,num_2,16,num_2,1.15010433667,,,2017_Dec_08_1341,60.0097007433,FEMA4ImagesEEG,001,202496,
AFNE01.JPG,AFNE01.JPG,AFNE01.JPG,AFNE01.JPG,AFNE01.JPG,AFNE01.JPG,4,6,46,4,,,,,,,,,,,,,,,,,,,,,,,AFSA15.jpg,AFSA08.jpg,AFNE08.jpg,AFNE07.jpg,AFSA08.jpg,FS,4,num_6,32,num_4,1.08342394209,,,2017_Dec_08_1341,60.0097007433,FEMA4ImagesEEG,001,202496,
AFNE01.JPG,AFNE01.JPG,AFNE01.JPG,AFNE01.JPG,AFNE01.JPG,AFNE01.JPG,4,7,47,1,,,,,,,,,,,,,,,,,,,,,,,AFSA12.jpg,AFNE10.jpg,AFNE15.jpg,AFSA06.jpg,AFNE15.jpg,FN,3,num_2,32,num_8,0.950088171288,,,2017_Dec_08_1341,60.0097007433,FEMA4ImagesEEG,001,202496,
AFNE01.JPG,AFNE01.JPG,AFNE01.JPG,AFNE01.JPG,AFNE01.JPG,AFNE01.JPG,4,8,48,0,,,,,,,,,,,,,,,,,,,,,,,AFSA17.jpg,AFNE10.jpg,AFSA06.jpg,AFNE14.jpg,AFSA06.jpg,FS,4,num_2,16,num_2,1.00007505296,,,2017_Dec_08_1341,60.0097007433,FEMA4ImagesEEG,001,202496,
AFNE01.JPG,AFNE01.JPG,AFNE01.JPG,AFNE01.JPG,AFNE01.JPG,AFNE01.JPG,4,9,49,7,,,,,,,,,,,,,,,,,,,,,,,AFNE16.jpg,AFSA19.jpg,AFSA13.jpg,AFNE10.jpg,AFSA19.jpg,FS,4,num_6,32,num_2,1.03341974039,,,2017_Dec_08_1341,60.0097007433,FEMA4ImagesEEG,001,202496,
AFNE01.JPG,AFNE01.JPG,AFNE01.JPG,AFNE01.JPG,AFNE01.JPG,AFNE01.JPG,5,0,50,9,,,,,,,,,,,,,,,,,,,,,,,AFNE01.jpg,AFSA09.jpg,AFNE14.jpg,AFSA05.jpg,AFNE01.jpg,FN,3,num_8,32,num_6,0.783443635562,,,2017_Dec_08_1341,60.0097007433,FEMA4ImagesEEG,001,202496,
AFNE01.JPG,AFNE01.JPG,AFNE01.JPG,AFNE01.JPG,AFNE01.JPG,AFNE01.JPG,5,1,51,0,,,,,,,,,,,,,,,,,,,,,,,AFNE15.jpg,AFSA05.jpg,AFNE20.jpg,AFSA10.jpg,AFNE15.jpg,FN,3,num_8,16,num_8,0.93314736872,,,2017_Dec_08_1341,60.0097007433,FEMA4ImagesEEG,001,202496,
AFNE01.JPG,AFNE01.JPG,AFNE01.JPG,AFNE01.JPG,AFNE01.JPG,AFNE01.JPG,5,2,52,8,,,,,,,,,,,,,,,,,,,,,,,AFSA14.jpg,AFSA07.jpg,AFNE13.jpg,AFNE05.jpg,AFSA14.jpg,FS,4,num_8,32,num_6,1.01660851669,,,2017_Dec_08_1341,60.0097007433,FEMA4ImagesEEG,001,202496,
AFNE01.JPG,AFNE01.JPG,AFNE01.JPG,AFNE01.JPG,AFNE01.JPG,AFNE01.JPG,5,3,53,4,,,,,,,,,,,,,,,,,,,,,,,AFNE06.jpg,AFNE10.jpg,AFSA02.jpg,AFSA18.jpg,AFSA18.jpg,FS,4,num_4,32,num_8,1.08336685062,,,2017_Dec_08_1341,60.0097007433,FEMA4ImagesEEG,001,202496,
AFNE01.JPG,AFNE01.JPG,AFNE01.JPG,AFNE01.JPG,AFNE01.JPG,AFNE01.JPG,5,4,54,2,,,,,,,,,,,,,,,,,,,,,,,AFSA05.jpg,AFSA11.jpg,AFNE05.jpg,AFNE03.jpg,AFNE03.jpg,FN,3,num_4,32,num_2,1.01673232182,,,2017_Dec_08_1341,60.0097007433,FEMA4ImagesEEG,001,202496,
AFNE01.JPG,AFNE01.JPG,AFNE01.JPG,AFNE01.JPG,AFNE01.JPG,AFNE01.JPG,5,5,55,3,,,,,,,,,,,,,,,,,,,,,,,AFNE06.jpg,AFSA17.jpg,AFSA08.jpg,AFNE02.jpg,AFNE02.jpg,FN,3,num_4,16,num_4,1.10009243712,,,2017_Dec_08_1341,60.0097007433,FEMA4ImagesEEG,001,202496,
AFNE01.JPG,AFNE01.JPG,AFNE01.JPG,AFNE01.JPG,AFNE01.JPG,AFNE01.JPG,5,6,56,5,,,,,,,,,,,,,,,,,,,,,,,AFSA14.jpg,AFNE05.jpg,AFNE16.jpg,AFSA04.jpg,AFSA04.jpg,FS,4,num_4,16,num_4,0.733440396143,,,2017_Dec_08_1341,60.0097007433,FEMA4ImagesEEG,001,202496,
AFNE01.JPG,AFNE01.JPG,AFNE01.JPG,AFNE01.JPG,AFNE01.JPG,AFNE01.JPG,5,7,57,7,,,,,,,,,,,,,,,,,,,,,,,AFSA10.jpg,AFNE10.jpg,AFNE06.jpg,AFSA16.jpg,AFNE10.jpg,FN,3,num_6,16,num_6,0.800128167495,,,2017_Dec_08_1341,60.0097007433,FEMA4ImagesEEG,001,202496,
AFNE01.JPG,AFNE01.JPG,AFNE01.JPG,AFNE01.JPG,AFNE01.JPG,AFNE01.JPG,5,8,58,1,,,,,,,,,,,,,,,,,,,,,,,AFSA16.jpg,AFNE13.jpg,AFNE11.jpg,AFSA14.jpg,AFSA16.jpg,FS,4,num_8,32,num_4,1.23345065978,,,2017_Dec_08_1341,60.0097007433,FEMA4ImagesEEG,001,202496,
AFNE01.JPG,AFNE01.JPG,AFNE01.JPG,AFNE01.JPG,AFNE01.JPG,AFNE01.JPG,5,9,59,6,,,,,,,,,,,,,,,,,,,,,,,AFNE03.jpg,AFSA19.jpg,AFNE19.jpg,AFSA04.jpg,AFNE03.jpg,FN,3,num_8,16,num_8,0.983441839227,,,2017_Dec_08_1341,60.0097007433,FEMA4ImagesEEG,001,202496,
,,,,,,,,,,,,,,,,,,,,,,,,,,,,,,,,,,,,,,,,,,,space,20.4152090675,2017_Dec_08_1341,60.0097007433,FEMA4ImagesEEG,001,202496,
AFNE01.JPG,AFNE01.JPG,AFNE01.JPG,AFNE01.JPG,AFNE01.JPG,AFNE01.JPG,,,,,0,0,0,3,,,,,,,,,,,,,,,,,,,AMNE12.jpg,AMSA13.jpg,AMNE11.jpg,AMSA03.jpg,AMNE11.jpg,MN,1,num_2,16,num_2,1.03342102352,,,2017_Dec_08_1341,60.0097007433,FEMA4ImagesEEG,001,202496,
AFNE01.JPG,AFNE01.JPG,AFNE01.JPG,AFNE01.JPG,AFNE01.JPG,AFNE01.JPG,,,,,0,1,1,7,,,,,,,,,,,,,,,,,,,AMSA08.jpg,AMNE12.jpg,AMSA09.jpg,AMNE17.jpg,AMSA08.jpg,MS,2,num_8,32,num_4,1.06672209036,,,2017_Dec_08_1341,60.0097007433,FEMA4ImagesEEG,001,202496,
AFNE01.JPG,AFNE01.JPG,AFNE01.JPG,AFNE01.JPG,AFNE01.JPG,AFNE01.JPG,,,,,0,2,2,5,,,,,,,,,,,,,,,,,,,AMSA13.jpg,AMNE09.jpg,AMSA14.jpg,AMNE20.jpg,AMNE20.jpg,MN,1,num_4,16,num_4,0.933440524386,,,2017_Dec_08_1341,60.0097007433,FEMA4ImagesEEG,001,202496,
AFNE01.JPG,AFNE01.JPG,AFNE01.JPG,AFNE01.JPG,AFNE01.JPG,AFNE01.JPG,,,,,0,3,3,0,,,,,,,,,,,,,,,,,,,AMSA03.jpg,AMNE06.jpg,AMSA06.jpg,AMNE08.jpg,AMSA03.jpg,MS,2,num_8,16,num_8,0.866731584072,,,2017_Dec_08_1341,60.0097007433,FEMA4ImagesEEG,001,202496,
AFNE01.JPG,AFNE01.JPG,AFNE01.JPG,AFNE01.JPG,AFNE01.JPG,AFNE01.JPG,,,,,0,4,4,6,,,,,,,,,,,,,,,,,,,AMNE15.jpg,AMSA17.jpg,AMNE12.jpg,AMSA11.jpg,AMSA11.jpg,MS,2,num_4,32,num_6,0.716752656968,,,2017_Dec_08_1341,60.0097007433,FEMA4ImagesEEG,001,202496,
AFNE01.JPG,AFNE01.JPG,AFNE01.JPG,AFNE01.JPG,AFNE01.JPG,AFNE01.JPG,,,,,0,5,5,8,,,,,,,,,,,,,,,,,,,AMSA18.jpg,AMNE02.jpg,AMNE20.jpg,AMSA01.jpg,AMSA01.jpg,MS,2,num_4,16,num_4,0.916733540827,,,2017_Dec_08_1341,60.0097007433,FEMA4ImagesEEG,001,202496,
AFNE01.JPG,AFNE01.JPG,AFNE01.JPG,AFNE01.JPG,AFNE01.JPG,AFNE01.JPG,,,,,0,6,6,4,,,,,,,,,,,,,,,,,,,AMNE20.jpg,AMSA20.jpg,AMNE09.jpg,AMSA17.jpg,AMSA20.jpg,MS,2,num_6,16,num_6,1.16645594104,,,2017_Dec_08_1341,60.0097007433,FEMA4ImagesEEG,001,202496,
AFNE01.JPG,AFNE01.JPG,AFNE01.JPG,AFNE01.JPG,AFNE01.JPG,AFNE01.JPG,,,,,0,7,7,9,,,,,,,,,,,,,,,,,,,AMSA20.jpg,AMSA08.jpg,AMNE09.jpg,AMNE18.jpg,AMSA20.jpg,MS,2,num_8,16,num_8,1.28342278767,,,2017_Dec_08_1341,60.0097007433,FEMA4ImagesEEG,001,202496,
AFNE01.JPG,AFNE01.JPG,AFNE01.JPG,AFNE01.JPG,AFNE01.JPG,AFNE01.JPG,,,,,0,8,8,2,,,,,,,,,,,,,,,,,,,AMNE08.jpg,AMSA01.jpg,AMSA17.jpg,AMNE10.jpg,AMNE10.jpg,MN,1,num_4,16,num_4,1.30012688437,,,2017_Dec_08_1341,60.0097007433,FEMA4ImagesEEG,001,202496,
AFNE01.JPG,AFNE01.JPG,AFNE01.JPG,AFNE01.JPG,AFNE01.JPG,AFNE01.JPG,,,,,0,9,9,1,,,,,,,,,,,,,,,,,,,AMNE07.jpg,AMNE19.jpg,AMSA18.jpg,AMSA14.jpg,AMSA14.jpg,MS,2,num_4,32,num_2,1.15032596723,,,2017_Dec_08_1341,60.0097007433,FEMA4ImagesEEG,001,202496,
AFNE01.JPG,AFNE01.JPG,AFNE01.JPG,AFNE01.JPG,AFNE01.JPG,AFNE01.JPG,,,,,1,0,10,7,,,,,,,,,,,,,,,,,,,AMSA18.jpg,AMNE17.jpg,AMSA06.jpg,AMNE02.jpg,AMSA18.jpg,MS,2,num_8,32,num_4,0.700117198052,,,2017_Dec_08_1341,60.0097007433,FEMA4ImagesEEG,001,202496,
AFNE01.JPG,AFNE01.JPG,AFNE01.JPG,AFNE01.JPG,AFNE01.JPG,AFNE01.JPG,,,,,1,1,11,4,,,,,,,,,,,,,,,,,,,AMSA11.jpg,AMNE14.jpg,AMSA09.jpg,AMNE10.jpg,AMSA11.jpg,MS,2,num_8,32,num_4,0.966738383984,,,2017_Dec_08_1341,60.0097007433,FEMA4ImagesEEG,001,202496,
AFNE01.JPG,AFNE01.JPG,AFNE01.JPG,AFNE01.JPG,AFNE01.JPG,AFNE01.JPG,,,,,1,2,12,1,,,,,,,,,,,,,,,,,,,AMSA13.jpg,AMNE08.jpg,AMSA11.jpg,AMNE02.jpg,AMSA11.jpg,MS,2,num_2,32,num_6,1.18346185354,,,2017_Dec_08_1341,60.0097007433,FEMA4ImagesEEG,001,202496,
AFNE01.JPG,AFNE01.JPG,AFNE01.JPG,AFNE01.JPG,AFNE01.JPG,AFNE01.JPG,,,,,1,3,13,5,,,,,,,,,,,,,,,,,,,AMNE15.jpg,AMNE01.jpg,AMSA16.jpg,AMSA17.jpg,AMNE15.jpg,MN,1,num_8,16,num_8,0.6667686617,,,2017_Dec_08_1341,60.0097007433,FEMA4ImagesEEG,001,202496,
AFNE01.JPG,AFNE01.JPG,AFNE01.JPG,AFNE01.JPG,AFNE01.JPG,AFNE01.JPG,,,,,1,4,14,6,,,,,,,,,,,,,,,,,,,AMSA09.jpg,AMNE03.jpg,AMSA17.jpg,AMNE06.jpg,AMSA09.jpg,MS,2,num_8,32,num_2,1.63344129408,,,2017_Dec_08_1341,60.0097007433,FEMA4ImagesEEG,001,202496,
AFNE01.JPG,AFNE01.JPG,AFNE01.JPG,AFNE01.JPG,AFNE01.JPG,AFNE01.JPG,,,,,1,5,15,9,,,,,,,,,,,,,,,,,,,AMNE17.jpg,AMSA20.jpg,AMSA19.jpg,AMNE03.jpg,AMNE03.jpg,MN,1,num_4,32,num_8,1.11674168776,,,2017_Dec_08_1341,60.0097007433,FEMA4ImagesEEG,001,202496,
AFNE01.JPG,AFNE01.JPG,AFNE01.JPG,AFNE01.JPG,AFNE01.JPG,AFNE01.JPG,,,,,1,6,16,8,,,,,,,,,,,,,,,,,,,AMSA02.jpg,AMNE17.jpg,AMNE05.jpg,AMSA09.jpg,AMNE17.jpg,MN,1,num_6,16,num_6,1.13344353926,,,2017_Dec_08_1341,60.0097007433,FEMA4ImagesEEG,001,202496,
AFNE01.JPG,AFNE01.JPG,AFNE01.JPG,AFNE01.JPG,AFNE01.JPG,AFNE01.JPG,,,,,1,7,17,3,,,,,,,,,,,,,,,,,,,AMSA15.jpg,AMNE14.jpg,AMSA13.jpg,AMNE05.jpg,AMNE05.jpg,MN,1,num_4,16,num_4,0.933482862078,,,2017_Dec_08_1341,60.0097007433,FEMA4ImagesEEG,001,202496,
AFNE01.JPG,AFNE01.JPG,AFNE01.JPG,AFNE01.JPG,AFNE01.JPG,AFNE01.JPG,,,,,1,8,18,2,,,,,,,,,,,,,,,,,,,AMSA08.jpg,AMNE13.jpg,AMSA03.jpg,AMNE06.jpg,AMSA03.jpg,MS,2,num_2,32,num_8,0.850048335269,,,2017_Dec_08_1341,60.0097007433,FEMA4ImagesEEG,001,202496,
AFNE01.JPG,AFNE01.JPG,AFNE01.JPG,AFNE01.JPG,AFNE01.JPG,AFNE01.JPG,,,,,1,9,19,0,,,,,,,,,,,,,,,,,,,AMSA12.jpg,AMSA11.jpg,AMNE18.jpg,AMNE15.jpg,AMNE15.jpg,MN,1,num_4,16,num_4,1.18344902387,,,2017_Dec_08_1341,60.0097007433,FEMA4ImagesEEG,001,202496,
AFNE01.JPG,AFNE01.JPG,AFNE01.JPG,AFNE01.JPG,AFNE01.JPG,AFNE01.JPG,,,,,2,0,20,4,,,,,,,,,,,,,,,,,,,AMNE08.jpg,AMSA19.jpg,AMSA08.jpg,AMNE16.jpg,AMSA19.jpg,MS,2,num_6,16,num_6,1.30031323386,,,2017_Dec_08_1341,60.0097007433,FEMA4ImagesEEG,001,202496,
AFNE01.JPG,AFNE01.JPG,AFNE01.JPG,AFNE01.JPG,AFNE01.JPG,AFNE01.JPG,,,,,2,1,21,7,,,,,,,,,,,,,,,,,,,AMNE20.jpg,AMSA04.jpg,AMSA17.jpg,AMNE19.jpg,AMSA17.jpg,MS,2,num_2,16,num_2,1.53341717459,,,2017_Dec_08_1341,60.0097007433,FEMA4ImagesEEG,001,202496,
AFNE01.JPG,AFNE01.JPG,AFNE01.JPG,AFNE01.JPG,AFNE01.JPG,AFNE01.JPG,,,,,2,2,22,8,,,,,,,,,,,,,,,,,,,AMNE03.jpg,AMSA09.jpg,AMSA06.jpg,AMNE17.jpg,AMSA09.jpg,MS,2,num_6,32,num_8,0.783438183134,,,2017_Dec_08_1341,60.0097007433,FEMA4ImagesEEG,001,202496,
AFNE01.JPG,AFNE01.JPG,AFNE01.JPG,AFNE01.JPG,AFNE01.JPG,AFNE01.JPG,,,,,2,3,23,2,,,,,,,,,,,,,,,,,,,AMNE16.jpg,AMSA19.jpg,AMNE12.jpg,AMSA06.jpg,AMSA19.jpg,MS,2,num_6,16,num_6,0.816773569211,,,2017_Dec_08_1341,60.0097007433,FEMA4ImagesEEG,001,202496,
AFNE01.JPG,AFNE01.JPG,AFNE01.JPG,AFNE01.JPG,AFNE01.JPG,AFNE01.JPG,,,,,2,4,24,6,,,,,,,,,,,,,,,,,,,AMNE05.jpg,AMSA08.jpg,AMSA12.jpg,AMNE12.jpg,AMSA12.jpg,MS,2,num_2,32,num_6,3.6665723694,,,2017_Dec_08_1341,60.0097007433,FEMA4ImagesEEG,001,202496,
AFNE01.JPG,AFNE01.JPG,AFNE01.JPG,AFNE01.JPG,AFNE01.JPG,AFNE01.JPG,,,,,2,5,25,1,,,,,,,,,,,,,,,,,,,AMSA18.jpg,AMSA14.jpg,AMNE19.jpg,AMNE11.jpg,AMSA18.jpg,MS,2,num_8,32,num_2,1.1500854129,,,2017_Dec_08_1341,60.0097007433,FEMA4ImagesEEG,001,202496,
AFNE01.JPG,AFNE01.JPG,AFNE01.JPG,AFNE01.JPG,AFNE01.JPG,AFNE01.JPG,,,,,2,6,26,9,,,,,,,,,,,,,,,,,,,AMSA20.jpg,AMNE10.jpg,AMNE14.jpg,AMSA19.jpg,AMNE10.jpg,MN,1,num_6,16,num_6,0.900100327097,,,2017_Dec_08_1341,60.0097007433,FEMA4ImagesEEG,001,202496,
AFNE01.JPG,AFNE01.JPG,AFNE01.JPG,AFNE01.JPG,AFNE01.JPG,AFNE01.JPG,,,,,2,7,27,5,,,,,,,,,,,,,,,,,,,AMNE06.jpg,AMSA16.jpg,AMSA06.jpg,AMNE09.jpg,AMNE09.jpg,MN,1,num_4,16,num_4,0.966437851312,,,2017_Dec_08_1341,60.0097007433,FEMA4ImagesEEG,001,202496,
AFNE01.JPG,AFNE01.JPG,AFNE01.JPG,AFNE01.JPG,AFNE01.JPG,AFNE01.JPG,,,,,2,8,28,3,,,,,,,,,,,,,,,,,,,AMNE10.jpg,AMSA08.jpg,AMSA12.jpg,AMNE16.jpg,AMSA08.jpg,MS,2,num_6,16,num_6,0.916754709557,,,2017_Dec_08_1341,60.0097007433,FEMA4ImagesEEG,001,202496,
AFNE01.JPG,AFNE01.JPG,AFNE01.JPG,AFNE01.JPG,AFNE01.JPG,AFNE01.JPG,,,,,2,9,29,0,,,,,,,,,,,,,,,,,,,AMSA10.jpg,AMNE01.jpg,AMNE09.jpg,AMSA08.jpg,AMNE09.jpg,MN,1,num_2,32,num_8,1.01674579317,,,2017_Dec_08_1341,60.0097007433,FEMA4ImagesEEG,001,202496,
AFNE01.JPG,AFNE01.JPG,AFNE01.JPG,AFNE01.JPG,AFNE01.JPG,AFNE01.JPG,,,,,3,0,30,0,,,,,,,,,,,,,,,,,,,AMNE19.jpg,AMNE02.jpg,AMSA14.jpg,AMSA12.jpg,AMNE19.jpg,MN,1,num_8,32,num_4,1.11675195117,,,2017_Dec_08_1341,60.0097007433,FEMA4ImagesEEG,001,202496,
AFNE01.JPG,AFNE01.JPG,AFNE01.JPG,AFNE01.JPG,AFNE01.JPG,AFNE01.JPG,,,,,3,1,31,8,,,,,,,,,,,,,,,,,,,AMSA02.jpg,AMNE07.jpg,AMNE19.jpg,AMSA07.jpg,AMNE07.jpg,MN,1,num_6,32,num_2,1.01672879397,,,2017_Dec_08_1341,60.0097007433,FEMA4ImagesEEG,001,202496,
AFNE01.JPG,AFNE01.JPG,AFNE01.JPG,AFNE01.JPG,AFNE01.JPG,AFNE01.JPG,,,,,3,2,32,1,,,,,,,,,,,,,,,,,,,AMSA01.jpg,AMNE18.jpg,AMSA13.jpg,AMNE02.jpg,AMNE02.jpg,MN,1,num_4,32,num_6,4.59980729991,,,2017_Dec_08_1341,60.0097007433,FEMA4ImagesEEG,001,202496,
AFNE01.JPG,AFNE01.JPG,AFNE01.JPG,AFNE01.JPG,AFNE01.JPG,AFNE01.JPG,,,,,3,3,33,5,,,,,,,,,,,,,,,,,,,AMSA18.jpg,AMSA09.jpg,AMNE09.jpg,AMNE01.jpg,AMNE01.jpg,MN,1,num_4,32,num_8,1.11670704791,,,2017_Dec_08_1341,60.0097007433,FEMA4ImagesEEG,001,202496,
AFNE01.JPG,AFNE01.JPG,AFNE01.JPG,AFNE01.JPG,AFNE01.JPG,AFNE01.JPG,,,,,3,4,34,7,,,,,,,,,,,,,,,,,,,AMNE09.jpg,AMSA10.jpg,AMNE06.jpg,AMSA17.jpg,AMNE06.jpg,MN,1,num_2,32,num_8,0.700136121595,,,2017_Dec_08_1341,60.0097007433,FEMA4ImagesEEG,001,202496,
AFNE01.JPG,AFNE01.JPG,AFNE01.JPG,AFNE01.JPG,AFNE01.JPG,AFNE01.JPG,,,,,3,5,35,9,,,,,,,,,,,,,,,,,,,AMNE16.jpg,AMSA01.jpg,AMSA19.jpg,AMNE01.jpg,AMSA19.jpg,MS,2,num_2,16,num_2,1.21673629899,,,2017_Dec_08_1341,60.0097007433,FEMA4ImagesEEG,001,202496,
AFNE01.JPG,AFNE01.JPG,AFNE01.JPG,AFNE01.JPG,AFNE01.JPG,AFNE01.JPG,,,,,3,6,36,6,,,,,,,,,,,,,,,,,,,AMNE01.jpg,AMSA14.jpg,AMSA16.jpg,AMNE02.jpg,AMSA14.jpg,MS,2,num_6,32,num_2,1.53339023236,,,2017_Dec_08_1341,60.0097007433,FEMA4ImagesEEG,001,202496,
AFNE01.JPG,AFNE01.JPG,AFNE01.JPG,AFNE01.JPG,AFNE01.JPG,AFNE01.JPG,,,,,3,7,37,4,,,,,,,,,,,,,,,,,,,AMSA08.jpg,AMSA11.jpg,AMNE03.jpg,AMNE06.jpg,AMNE03.jpg,MN,1,num_2,32,num_8,0.966771099251,,,2017_Dec_08_1341,60.0097007433,FEMA4ImagesEEG,001,202496,
AFNE01.JPG,AFNE01.JPG,AFNE01.JPG,AFNE01.JPG,AFNE01.JPG,AFNE01.JPG,,,,,3,8,38,3,,,,,,,,,,,,,,,,,,,AMNE16.jpg,AMNE13.jpg,AMSA16.jpg,AMSA12.jpg,AMSA16.jpg,MS,2,num_2,32,num_6,0.916809556074,,,2017_Dec_08_1341,60.0097007433,FEMA4ImagesEEG,001,202496,
AFNE01.JPG,AFNE01.JPG,AFNE01.JPG,AFNE01.JPG,AFNE01.JPG,AFNE01.JPG,,,,,3,9,39,2,,,,,,,,,,,,,,,,,,,AMSA04.jpg,AMNE14.jpg,AMSA14.jpg,AMNE17.jpg,AMSA04.jpg,MS,2,num_8,32,num_6,1.16678245342,,,2017_Dec_08_1341,60.0097007433,FEMA4ImagesEEG,001,202496,
AFNE01.JPG,AFNE01.JPG,AFNE01.JPG,AFNE01.JPG,AFNE01.JPG,AFNE01.JPG,,,,,4,0,40,0,,,,,,,,,,,,,,,,,,,AMNE17.jpg,AMSA19.jpg,AMNE04.jpg,AMSA15.jpg,AMSA19.jpg,MS,2,num_6,32,num_8,0.800098659471,,,2017_Dec_08_1341,60.0097007433,FEMA4ImagesEEG,001,202496,
AFNE01.JPG,AFNE01.JPG,AFNE01.JPG,AFNE01.JPG,AFNE01.JPG,AFNE01.JPG,,,,,4,1,41,7,,,,,,,,,,,,,,,,,,,AMSA11.jpg,AMSA20.jpg,AMNE03.jpg,AMNE02.jpg,AMSA20.jpg,MS,2,num_6,16,num_6,0.583476543427,,,2017_Dec_08_1341,60.0097007433,FEMA4ImagesEEG,001,202496,
AFNE01.JPG,AFNE01.JPG,AFNE01.JPG,AFNE01.JPG,AFNE01.JPG,AFNE01.JPG,,,,,4,2,42,1,,,,,,,,,,,,,,,,,,,AMSA02.jpg,AMSA12.jpg,AMNE03.jpg,AMNE01.jpg,AMSA12.jpg,MS,2,num_6,16,num_6,0.683465061011,,,2017_Dec_08_1341,60.0097007433,FEMA4ImagesEEG,001,202496,
AFNE01.JPG,AFNE01.JPG,AFNE01.JPG,AFNE01.JPG,AFNE01.JPG,AFNE01.JPG,,,,,4,3,43,4,,,,,,,,,,,,,,,,,,,AMSA05.jpg,AMNE11.jpg,AMNE07.jpg,AMSA03.jpg,AMSA05.jpg,MS,2,num_8,16,num_8,0.916756313294,,,2017_Dec_08_1341,60.0097007433,FEMA4ImagesEEG,001,202496,
AFNE01.JPG,AFNE01.JPG,AFNE01.JPG,AFNE01.JPG,AFNE01.JPG,AFNE01.JPG,,,,,4,4,44,8,,,,,,,,,,,,,,,,,,,AMSA15.jpg,AMSA11.jpg,AMNE07.jpg,AMNE20.jpg,AMSA15.jpg,MS,2,num_8,32,num_2,1.31674823072,,,2017_Dec_08_1341,60.0097007433,FEMA4ImagesEEG,001,202496,
AFNE01.JPG,AFNE01.JPG,AFNE01.JPG,AFNE01.JPG,AFNE01.JPG,AFNE01.JPG,,,,,4,5,45,5,,,,,,,,,,,,,,,,,,,AMNE07.jpg,AMSA04.jpg,AMNE10.jpg,AMSA18.jpg,AMSA18.jpg,MS,2,num_4,32,num_6,0.88352420507,,,2017_Dec_08_1341,60.0097007433,FEMA4ImagesEEG,001,202496,
AFNE01.JPG,AFNE01.JPG,AFNE01.JPG,AFNE01.JPG,AFNE01.JPG,AFNE01.JPG,,,,,4,6,46,2,,,,,,,,,,,,,,,,,,,AMNE13.jpg,AMSA20.jpg,AMSA04.jpg,AMNE01.jpg,AMSA04.jpg,MS,2,num_2,32,num_6,2.89994990057,,,2017_Dec_08_1341,60.0097007433,FEMA4ImagesEEG,001,202496,
AFNE01.JPG,AFNE01.JPG,AFNE01.JPG,AFNE01.JPG,AFNE01.JPG,AFNE01.JPG,,,,,4,7,47,9,,,,,,,,,,,,,,,,,,,AMSA20.jpg,AMSA18.jpg,AMNE01.jpg,AMNE03.jpg,AMNE01.jpg,MN,1,num_2,16,num_2,0.833466440206,,,2017_Dec_08_1341,60.0097007433,FEMA4ImagesEEG,001,202496,
AFNE01.JPG,AFNE01.JPG,AFNE01.JPG,AFNE01.JPG,AFNE01.JPG,AFNE01.JPG,,,,,4,8,48,3,,,,,,,,,,,,,,,,,,,AMNE10.jpg,AMSA15.jpg,AMNE04.jpg,AMSA08.jpg,AMSA08.jpg,MS,2,num_4,32,num_8,0.73317771079,,,2017_Dec_08_1341,60.0097007433,FEMA4ImagesEEG,001,202496,
AFNE01.JPG,AFNE01.JPG,AFNE01.JPG,AFNE01.JPG,AFNE01.JPG,AFNE01.JPG,,,,,4,9,49,6,,,,,,,,,,,,,,,,,,,AMSA02.jpg,AMNE08.jpg,AMSA10.jpg,AMNE19.jpg,AMNE08.jpg,MN,1,num_6,32,num_4,0.516821808415,,,2017_Dec_08_1341,60.0097007433,FEMA4ImagesEEG,001,202496,
AFNE01.JPG,AFNE01.JPG,AFNE01.JPG,AFNE01.JPG,AFNE01.JPG,AFNE01.JPG,,,,,5,0,50,0,,,,,,,,,,,,,,,,,,,AMSA06.jpg,AMNE04.jpg,AMNE20.jpg,AMSA20.jpg,AMSA20.jpg,MS,2,num_4,32,num_2,1.00013920083,,,2017_Dec_08_1341,60.0097007433,FEMA4ImagesEEG,001,202496,
AFNE01.JPG,AFNE01.JPG,AFNE01.JPG,AFNE01.JPG,AFNE01.JPG,AFNE01.JPG,,,,,5,1,51,5,,,,,,,,,,,,,,,,,,,AMSA13.jpg,AMNE10.jpg,AMSA20.jpg,AMNE17.jpg,AMNE10.jpg,MN,1,num_6,16,num_6,0.833479590481,,,2017_Dec_08_1341,60.0097007433,FEMA4ImagesEEG,001,202496,
AFNE01.JPG,AFNE01.JPG,AFNE01.JPG,AFNE01.JPG,AFNE01.JPG,AFNE01.JPG,,,,,5,2,52,4,,,,,,,,,,,,,,,,,,,AMNE10.jpg,AMNE14.jpg,AMSA13.jpg,AMSA14.jpg,AMNE14.jpg,MN,1,num_6,32,num_8,0.833347125212,,,2017_Dec_08_1341,60.0097007433,FEMA4ImagesEEG,001,202496,
AFNE01.JPG,AFNE01.JPG,AFNE01.JPG,AFNE01.JPG,AFNE01.JPG,AFNE01.JPG,,,,,5,3,53,6,,,,,,,,,,,,,,,,,,,AMNE14.jpg,AMSA09.jpg,AMSA18.jpg,AMNE06.jpg,AMNE14.jpg,MN,1,num_8,32,num_6,1.31666195183,,,2017_Dec_08_1341,60.0097007433,FEMA4ImagesEEG,001,202496,
AFNE01.JPG,AFNE01.JPG,AFNE01.JPG,AFNE01.JPG,AFNE01.JPG,AFNE01.JPG,,,,,5,4,54,7,,,,,,,,,,,,,,,,,,,AMSA07.jpg,AMSA17.jpg,AMNE16.jpg,AMNE14.jpg,AMSA07.jpg,MS,2,num_8,32,num_6,0.866796052782,,,2017_Dec_08_1341,60.0097007433,FEMA4ImagesEEG,001,202496,
AFNE01.JPG,AFNE01.JPG,AFNE01.JPG,AFNE01.JPG,AFNE01.JPG,AFNE01.JPG,,,,,5,5,55,9,,,,,,,,,,,,,,,,,,,AMSA12.jpg,AMNE08.jpg,AMSA13.jpg,AMNE13.jpg,AMSA12.jpg,MS,2,num_8,16,num_8,2.3000771699,,,2017_Dec_08_1341,60.0097007433,FEMA4ImagesEEG,001,202496,
AFNE01.JPG,AFNE01.JPG,AFNE01.JPG,AFNE01.JPG,AFNE01.JPG,AFNE01.JPG,,,,,5,6,56,2,,,,,,,,,,,,,,,,,,,AMSA09.jpg,AMNE01.jpg,AMNE12.jpg,AMSA13.jpg,AMSA13.jpg,MS,2,num_4,32,num_8,0.883513300214,,,2017_Dec_08_1341,60.0097007433,FEMA4ImagesEEG,001,202496,
AFNE01.JPG,AFNE01.JPG,AFNE01.JPG,AFNE01.JPG,AFNE01.JPG,AFNE01.JPG,,,,,5,7,57,8,,,,,,,,,,,,,,,,,,,AMSA06.jpg,AMNE14.jpg,AMSA19.jpg,AMNE07.jpg,AMSA06.jpg,MS,2,num_8,32,num_4,2.63334988337,,,2017_Dec_08_1341,60.0097007433,FEMA4ImagesEEG,001,202496,
AFNE01.JPG,AFNE01.JPG,AFNE01.JPG,AFNE01.JPG,AFNE01.JPG,AFNE01.JPG,,,,,5,8,58,1,,,,,,,,,,,,,,,,,,,AMSA06.jpg,AMSA03.jpg,AMNE06.jpg,AMNE14.jpg,AMSA06.jpg,MS,2,num_8,16,num_8,0.966743194964,,,2017_Dec_08_1341,60.0097007433,FEMA4ImagesEEG,001,202496,
AFNE01.JPG,AFNE01.JPG,AFNE01.JPG,AFNE01.JPG,AFNE01.JPG,AFNE01.JPG,,,,,5,9,59,3,,,,,,,,,,,,,,,,,,,AMSA06.jpg,AMNE15.jpg,AMNE16.jpg,AMSA03.jpg,AMSA06.jpg,MS,2,num_8,32,num_6,0.850112803979,,,2017_Dec_08_1341,60.0097007433,FEMA4ImagesEEG,001,202496,
,,,,,,,,,,,,,,,,,,,,,,,,,,,,,,,,,,,,,,,,,,,space,22.5653287994,2017_Dec_08_1341,60.0097007433,FEMA4ImagesEEG,001,202496,
AFNE01.JPG,AFNE01.JPG,AFNE01.JPG,AFNE01.JPG,AFNE01.JPG,AFNE01.JPG,,,,,,,,,0,0,0,2,,,,,,,,,,,,,,,AFSA04.jpg,AFNE05.jpg,AFNE12.jpg,AFSA17.jpg,AFNE12.jpg,FN,3,num_2,32,num_8,0.566800030181,,,2017_Dec_08_1341,60.0097007433,FEMA4ImagesEEG,001,202496,
AFNE01.JPG,AFNE01.JPG,AFNE01.JPG,AFNE01.JPG,AFNE01.JPG,AFNE01.JPG,,,,,,,,,0,1,1,9,,,,,,,,,,,,,,,AFNE13.jpg,AFNE02.jpg,AFSA14.jpg,AFSA05.jpg,AFNE02.jpg,FN,3,num_6,16,num_6,1.18342977948,,,2017_Dec_08_1341,60.0097007433,FEMA4ImagesEEG,001,202496,
AFNE01.JPG,AFNE01.JPG,AFNE01.JPG,AFNE01.JPG,AFNE01.JPG,AFNE01.JPG,,,,,,,,,0,2,2,8,,,,,,,,,,,,,,,AFSA12.jpg,AFNE02.jpg,AFNE09.jpg,AFSA09.jpg,AFSA09.jpg,FS,4,num_4,32,num_8,0.81672481657,,,2017_Dec_08_1341,60.0097007433,FEMA4ImagesEEG,001,202496,
AFNE01.JPG,AFNE01.JPG,AFNE01.JPG,AFNE01.JPG,AFNE01.JPG,AFNE01.JPG,,,,,,,,,0,3,3,7,,,,,,,,,,,,,,,AFSA11.jpg,AFNE13.jpg,AFSA14.jpg,AFNE11.jpg,AFSA14.jpg,FS,4,num_2,16,num_2,1.26641142252,,,2017_Dec_08_1341,60.0097007433,FEMA4ImagesEEG,001,202496,
AFNE01.JPG,AFNE01.JPG,AFNE01.JPG,AFNE01.JPG,AFNE01.JPG,AFNE01.JPG,,,,,,,,,0,4,4,5,,,,,,,,,,,,,,,AFNE10.jpg,AFSA19.jpg,AFSA18.jpg,AFNE06.jpg,AFSA19.jpg,FS,4,num_6,16,num_6,1.11673431052,,,2017_Dec_08_1341,60.0097007433,FEMA4ImagesEEG,001,202496,
AFNE01.JPG,AFNE01.JPG,AFNE01.JPG,AFNE01.JPG,AFNE01.JPG,AFNE01.JPG,,,,,,,,,0,5,5,4,,,,,,,,,,,,,,,AFNE19.jpg,AFSA01.jpg,AFNE11.jpg,AFSA20.jpg,AFSA20.jpg,FS,4,num_4,32,num_6,0.850101257442,,,2017_Dec_08_1341,60.0097007433,FEMA4ImagesEEG,001,202496,
AFNE01.JPG,AFNE01.JPG,AFNE01.JPG,AFNE01.JPG,AFNE01.JPG,AFNE01.JPG,,,,,,,,,0,6,6,6,,,,,,,,,,,,,,,AFNE02.jpg,AFSA07.jpg,AFSA18.jpg,AFNE18.jpg,AFNE18.jpg,FN,3,num_4,16,num_4,0.600124510936,,,2017_Dec_08_1341,60.0097007433,FEMA4ImagesEEG,001,202496,
AFNE01.JPG,AFNE01.JPG,AFNE01.JPG,AFNE01.JPG,AFNE01.JPG,AFNE01.JPG,,,,,,,,,0,7,7,1,,,,,,,,,,,,,,,AFNE17.jpg,AFSA18.jpg,AFNE07.jpg,AFSA20.jpg,AFSA18.jpg,FS,4,num_6,16,num_6,0.816774531268,,,2017_Dec_08_1341,60.0097007433,FEMA4ImagesEEG,001,202496,
AFNE01.JPG,AFNE01.JPG,AFNE01.JPG,AFNE01.JPG,AFNE01.JPG,AFNE01.JPG,,,,,,,,,0,8,8,3,,,,,,,,,,,,,,,AFNE05.jpg,AFNE20.jpg,AFSA18.jpg,AFSA19.jpg,AFSA19.jpg,FS,4,num_4,32,num_8,1.03342198581,,,2017_Dec_08_1341,60.0097007433,FEMA4ImagesEEG,001,202496,
AFNE01.JPG,AFNE01.JPG,AFNE01.JPG,AFNE01.JPG,AFNE01.JPG,AFNE01.JPG,,,,,,,,,0,9,9,0,,,,,,,,,,,,,,,AFNE03.jpg,AFNE11.jpg,AFSA14.jpg,AFSA20.jpg,AFNE11.jpg,FN,3,num_6,16,num_6,1.23339420976,,,2017_Dec_08_1341,60.0097007433,FEMA4ImagesEEG,001,202496,
AFNE01.JPG,AFNE01.JPG,AFNE01.JPG,AFNE01.JPG,AFNE01.JPG,AFNE01.JPG,,,,,,,,,1,0,10,5,,,,,,,,,,,,,,,AFSA10.jpg,AFNE06.jpg,AFNE15.jpg,AFSA18.jpg,AFSA10.jpg,FS,4,num_8,32,num_2,1.58341624448,,,2017_Dec_08_1341,60.0097007433,FEMA4ImagesEEG,001,202496,
AFNE01.JPG,AFNE01.JPG,AFNE01.JPG,AFNE01.JPG,AFNE01.JPG,AFNE01.JPG,,,,,,,,,1,1,11,9,,,,,,,,,,,,,,,AFNE12.jpg,AFNE20.jpg,AFSA04.jpg,AFSA06.jpg,AFSA04.jpg,FS,4,num_2,32,num_6,0.900207774714,,,2017_Dec_08_1341,60.0097007433,FEMA4ImagesEEG,001,202496,
AFNE01.JPG,AFNE01.JPG,AFNE01.JPG,AFNE01.JPG,AFNE01.JPG,AFNE01.JPG,,,,,,,,,1,2,12,0,,,,,,,,,,,,,,,AFSA09.jpg,AFSA11.jpg,AFNE14.jpg,AFNE11.jpg,AFNE11.jpg,FN,3,num_4,32,num_6,0.566769880708,,,2017_Dec_08_1341,60.0097007433,FEMA4ImagesEEG,001,202496,
AFNE01.JPG,AFNE01.JPG,AFNE01.JPG,AFNE01.JPG,AFNE01.JPG,AFNE01.JPG,,,,,,,,,1,3,13,8,,,,,,,,,,,,,,,AFNE08.jpg,AFNE11.jpg,AFSA17.jpg,AFSA15.jpg,AFNE11.jpg,FN,3,num_6,32,num_4,1.71669877274,,,2017_Dec_08_1341,60.0097007433,FEMA4ImagesEEG,001,202496,
AFNE01.JPG,AFNE01.JPG,AFNE01.JPG,AFNE01.JPG,AFNE01.JPG,AFNE01.JPG,,,,,,,,,1,4,14,7,,,,,,,,,,,,,,,AFNE10.jpg,AFSA17.jpg,AFNE08.jpg,AFSA12.jpg,AFNE08.jpg,FN,3,num_2,32,num_6,1.70003669267,,,2017_Dec_08_1341,60.0097007433,FEMA4ImagesEEG,001,202496,
AFNE01.JPG,AFNE01.JPG,AFNE01.JPG,AFNE01.JPG,AFNE01.JPG,AFNE01.JPG,,,,,,,,,1,5,15,2,,,,,,,,,,,,,,,AFNE07.jpg,AFSA09.jpg,AFSA19.jpg,AFNE13.jpg,AFNE07.jpg,FN,3,num_8,32,num_6,3.29961241875,,,2017_Dec_08_1341,60.0097007433,FEMA4ImagesEEG,001,202496,
AFNE01.JPG,AFNE01.JPG,AFNE01.JPG,AFNE01.JPG,AFNE01.JPG,AFNE01.JPG,,,,,,,,,1,6,16,4,,,,,,,,,,,,,,,AFNE15.jpg,AFNE02.jpg,AFSA19.jpg,AFSA20.jpg,AFNE02.jpg,FN,3,num_6,16,num_6,0.966755382949,,,2017_Dec_08_1341,60.0097007433,FEMA4ImagesEEG,001,202496,
AFNE01.JPG,AFNE01.JPG,AFNE01.JPG,AFNE01.JPG,AFNE01.JPG,AFNE01.JPG,,,,,,,,,1,7,17,3,,,,,,,,,,,,,,,AFSA14.jpg,AFNE09.jpg,AFSA05.jpg,AFNE16.jpg,AFSA14.jpg,FS,4,num_8,16,num_8,0.683458004612,,,2017_Dec_08_1341,60.0097007433,FEMA4ImagesEEG,001,202496,
AFNE01.JPG,AFNE01.JPG,AFNE01.JPG,AFNE01.JPG,AFNE01.JPG,AFNE01.JPG,,,,,,,,,1,8,18,6,,,,,,,,,,,,,,,AFSA08.jpg,AFSA13.jpg,AFNE13.jpg,AFNE01.jpg,AFSA08.jpg,FS,4,num_8,32,num_6,3.05024379399,,,2017_Dec_08_1341,60.0097007433,FEMA4ImagesEEG,001,202496,
AFNE01.JPG,AFNE01.JPG,AFNE01.JPG,AFNE01.JPG,AFNE01.JPG,AFNE01.JPG,,,,,,,,,1,9,19,1,,,,,,,,,,,,,,,AFSA15.jpg,AFSA12.jpg,AFNE12.jpg,AFNE08.jpg,AFNE12.jpg,FN,3,num_2,32,num_6,0.683474362362,,,2017_Dec_08_1341,60.0097007433,FEMA4ImagesEEG,001,202496,
AFNE01.JPG,AFNE01.JPG,AFNE01.JPG,AFNE01.JPG,AFNE01.JPG,AFNE01.JPG,,,,,,,,,2,0,20,0,,,,,,,,,,,,,,,AFNE19.jpg,AFSA02.jpg,AFNE13.jpg,AFSA19.jpg,AFSA19.jpg,FS,4,num_4,32,num_2,0.633513460634,,,2017_Dec_08_1341,60.0097007433,FEMA4ImagesEEG,001,202496,
AFNE01.JPG,AFNE01.JPG,AFNE01.JPG,AFNE01.JPG,AFNE01.JPG,AFNE01.JPG,,,,,,,,,2,1,21,9,,,,,,,,,,,,,,,AFSA09.jpg,AFNE01.jpg,AFSA08.jpg,AFNE20.jpg,AFSA09.jpg,FS,4,num_8,16,num_8,0.516798394267,,,2017_Dec_08_1341,60.0097007433,FEMA4ImagesEEG,001,202496,
AFNE01.JPG,AFNE01.JPG,AFNE01.JPG,AFNE01.JPG,AFNE01.JPG,AFNE01.JPG,,,,,,,,,2,2,22,1,,,,,,,,,,,,,,,AFNE04.jpg,AFSA20.jpg,AFNE14.jpg,AFSA02.jpg,AFNE14.jpg,FN,3,num_2,32,num_6,0.916730975034,,,2017_Dec_08_1341,60.0097007433,FEMA4ImagesEEG,001,202496,
AFNE01.JPG,AFNE01.JPG,AFNE01.JPG,AFNE01.JPG,AFNE01.JPG,AFNE01.JPG,,,,,,,,,2,3,23,6,,,,,,,,,,,,,,,AFSA03.jpg,AFNE20.jpg,AFSA16.jpg,AFNE10.jpg,AFNE20.jpg,FN,3,num_6,32,num_4,1.40013015596,,,2017_Dec_08_1341,60.0097007433,FEMA4ImagesEEG,001,202496,
AFNE01.JPG,AFNE01.JPG,AFNE01.JPG,AFNE01.JPG,AFNE01.JPG,AFNE01.JPG,,,,,,,,,2,4,24,8,,,,,,,,,,,,,,,AFSA18.jpg,AFNE05.jpg,AFNE18.jpg,AFSA07.jpg,AFSA18.jpg,FS,4,num_8,16,num_8,0.783456464997,,,2017_Dec_08_1341,60.0097007433,FEMA4ImagesEEG,001,202496,
AFNE01.JPG,AFNE01.JPG,AFNE01.JPG,AFNE01.JPG,AFNE01.JPG,AFNE01.JPG,,,,,,,,,2,5,25,4,,,,,,,,,,,,,,,AFSA10.jpg,AFNE07.jpg,AFNE17.jpg,AFSA17.jpg,AFNE07.jpg,FN,3,num_6,16,num_6,0.900170248467,,,2017_Dec_08_1341,60.0097007433,FEMA4ImagesEEG,001,202496,
AFNE01.JPG,AFNE01.JPG,AFNE01.JPG,AFNE01.JPG,AFNE01.JPG,AFNE01.JPG,,,,,,,,,2,6,26,7,,,,,,,,,,,,,,,AFNE11.jpg,AFSA16.jpg,AFSA18.jpg,AFNE09.jpg,AFSA16.jpg,FS,4,num_6,16,num_6,0.90007370594,,,2017_Dec_08_1341,60.0097007433,FEMA4ImagesEEG,001,202496,
AFNE01.JPG,AFNE01.JPG,AFNE01.JPG,AFNE01.JPG,AFNE01.JPG,AFNE01.JPG,,,,,,,,,2,7,27,5,,,,,,,,,,,,,,,AFSA11.jpg,AFNE14.jpg,AFSA02.jpg,AFNE18.jpg,AFNE14.jpg,FN,3,num_6,32,num_2,1.16664485633,,,2017_Dec_08_1341,60.0097007433,FEMA4ImagesEEG,001,202496,
AFNE01.JPG,AFNE01.JPG,AFNE01.JPG,AFNE01.JPG,AFNE01.JPG,AFNE01.JPG,,,,,,,,,2,8,28,2,,,,,,,,,,,,,,,AFNE08.jpg,AFSA17.jpg,AFSA09.jpg,AFNE10.jpg,AFSA09.jpg,FS,4,num_2,16,num_2,0.933467466384,,,2017_Dec_08_1341,60.0097007433,FEMA4ImagesEEG,001,202496,
AFNE01.JPG,AFNE01.JPG,AFNE01.JPG,AFNE01.JPG,AFNE01.JPG,AFNE01.JPG,,,,,,,,,2,9,29,3,,,,,,,,,,,,,,,AFSA20.jpg,AFSA08.jpg,AFNE19.jpg,AFNE16.jpg,AFNE16.jpg,FN,3,num_4,32,num_6,0.983419708442,,,2017_Dec_08_1341,60.0097007433,FEMA4ImagesEEG,001,202496,
AFNE01.JPG,AFNE01.JPG,AFNE01.JPG,AFNE01.JPG,AFNE01.JPG,AFNE01.JPG,,,,,,,,,3,0,30,9,,,,,,,,,,,,,,,AFNE06.jpg,AFSA09.jpg,AFNE03.jpg,AFSA18.jpg,AFNE06.jpg,FN,3,num_8,32,num_4,0.383563976735,,,2017_Dec_08_1341,60.0097007433,FEMA4ImagesEEG,001,202496,
AFNE01.JPG,AFNE01.JPG,AFNE01.JPG,AFNE01.JPG,AFNE01.JPG,AFNE01.JPG,,,,,,,,,3,1,31,6,,,,,,,,,,,,,,,AFNE11.jpg,AFNE07.jpg,AFSA12.jpg,AFSA17.jpg,AFSA12.jpg,FS,4,num_2,32,num_4,0.566870913375,,,2017_Dec_08_1341,60.0097007433,FEMA4ImagesEEG,001,202496,
AFNE01.JPG,AFNE01.JPG,AFNE01.JPG,AFNE01.JPG,AFNE01.JPG,AFNE01.JPG,,,,,,,,,3,2,32,4,,,,,,,,,,,,,,,AFSA10.jpg,AFSA20.jpg,AFNE07.jpg,AFNE08.jpg,AFSA10.jpg,FS,4,num_8,16,num_8,2.29989049956,,,2017_Dec_08_1341,60.0097007433,FEMA4ImagesEEG,001,202496,
AFNE01.JPG,AFNE01.JPG,AFNE01.JPG,AFNE01.JPG,AFNE01.JPG,AFNE01.JPG,,,,,,,,,3,3,33,1,,,,,,,,,,,,,,,AFNE18.jpg,AFSA13.jpg,AFSA05.jpg,AFNE04.jpg,AFSA05.jpg,FS,4,num_2,16,num_2,1.08349610842,,,2017_Dec_08_1341,60.0097007433,FEMA4ImagesEEG,001,202496,
AFNE01.JPG,AFNE01.JPG,AFNE01.JPG,AFNE01.JPG,AFNE01.JPG,AFNE01.JPG,,,,,,,,,3,4,34,2,,,,,,,,,,,,,,,AFNE07.jpg,AFSA05.jpg,AFSA14.jpg,AFNE20.jpg,AFNE07.jpg,FN,3,num_8,16,num_8,1.18344709952,,,2017_Dec_08_1341,60.0097007433,FEMA4ImagesEEG,001,202496,
AFNE01.JPG,AFNE01.JPG,AFNE01.JPG,AFNE01.JPG,AFNE01.JPG,AFNE01.JPG,,,,,,,,,3,5,35,8,,,,,,,,,,,,,,,AFNE20.jpg,AFSA16.jpg,AFNE17.jpg,AFSA04.jpg,AFSA16.jpg,FS,4,num_6,32,num_4,0.983537419699,,,2017_Dec_08_1341,60.0097007433,FEMA4ImagesEEG,001,202496,
AFNE01.JPG,AFNE01.JPG,AFNE01.JPG,AFNE01.JPG,AFNE01.JPG,AFNE01.JPG,,,,,,,,,3,6,36,3,,,,,,,,,,,,,,,AFNE02.jpg,AFNE15.jpg,AFSA20.jpg,AFSA01.jpg,AFNE15.jpg,FN,3,num_6,16,num_6,0.91672167345,,,2017_Dec_08_1341,60.0097007433,FEMA4ImagesEEG,001,202496,
AFNE01.JPG,AFNE01.JPG,AFNE01.JPG,AFNE01.JPG,AFNE01.JPG,AFNE01.JPG,,,,,,,,,3,7,37,7,,,,,,,,,,,,,,,AFSA02.jpg,AFNE08.jpg,AFNE04.jpg,AFSA01.jpg,AFSA01.jpg,FS,4,num_4,16,num_4,1.20009570848,,,2017_Dec_08_1341,60.0097007433,FEMA4ImagesEEG,001,202496,
AFNE01.JPG,AFNE01.JPG,AFNE01.JPG,AFNE01.JPG,AFNE01.JPG,AFNE01.JPG,,,,,,,,,3,8,38,5,,,,,,,,,,,,,,,AFSA11.jpg,AFNE06.jpg,AFNE20.jpg,AFSA18.jpg,AFSA11.jpg,FS,4,num_8,16,num_8,1.15010177041,,,2017_Dec_08_1341,60.0097007433,FEMA4ImagesEEG,001,202496,
AFNE01.JPG,AFNE01.JPG,AFNE01.JPG,AFNE01.JPG,AFNE01.JPG,AFNE01.JPG,,,,,,,,,3,9,39,0,,,,,,,,,,,,,,,AFNE12.jpg,AFSA16.jpg,AFNE08.jpg,AFSA02.jpg,AFSA02.jpg,FS,4,num_4,32,num_2,1.10012611467,,,2017_Dec_08_1341,60.0097007433,FEMA4ImagesEEG,001,202496,
AFNE01.JPG,AFNE01.JPG,AFNE01.JPG,AFNE01.JPG,AFNE01.JPG,AFNE01.JPG,,,,,,,,,4,0,40,6,,,,,,,,,,,,,,,AFNE12.jpg,AFNE13.jpg,AFSA09.jpg,AFSA15.jpg,AFSA09.jpg,FS,4,num_2,16,num_2,1.11671634903,,,2017_Dec_08_1341,60.0097007433,FEMA4ImagesEEG,001,202496,
AFNE01.JPG,AFNE01.JPG,AFNE01.JPG,AFNE01.JPG,AFNE01.JPG,AFNE01.JPG,,,,,,,,,4,1,41,3,,,,,,,,,,,,,,,AFSA16.jpg,AFNE14.jpg,AFNE06.jpg,AFSA10.jpg,AFNE14.jpg,FN,3,num_6,16,num_6,0.8168043599,,,2017_Dec_08_1341,60.0097007433,FEMA4ImagesEEG,001,202496,
AFNE01.JPG,AFNE01.JPG,AFNE01.JPG,AFNE01.JPG,AFNE01.JPG,AFNE01.JPG,,,,,,,,,4,2,42,1,,,,,,,,,,,,,,,AFSA16.jpg,AFSA04.jpg,AFNE14.jpg,AFNE06.jpg,AFNE06.jpg,FN,3,num_4,32,num_6,1.23341409536,,,2017_Dec_08_1341,60.0097007433,FEMA4ImagesEEG,001,202496,
AFNE01.JPG,AFNE01.JPG,AFNE01.JPG,AFNE01.JPG,AFNE01.JPG,AFNE01.JPG,,,,,,,,,4,3,43,7,,,,,,,,,,,,,,,AFNE15.jpg,AFSA18.jpg,AFSA19.jpg,AFNE13.jpg,AFSA19.jpg,FS,4,num_2,16,num_2,1.50001924438,,,2017_Dec_08_1341,60.0097007433,FEMA4ImagesEEG,001,202496,
AFNE01.JPG,AFNE01.JPG,AFNE01.JPG,AFNE01.JPG,AFNE01.JPG,AFNE01.JPG,,,,,,,,,4,4,44,4,,,,,,,,,,,,,,,AFSA15.jpg,AFNE04.jpg,AFSA16.jpg,AFNE20.jpg,AFSA15.jpg,FS,4,num_8,32,num_6,1.93336482998,,,2017_Dec_08_1341,60.0097007433,FEMA4ImagesEEG,001,202496,
AFNE01.JPG,AFNE01.JPG,AFNE01.JPG,AFNE01.JPG,AFNE01.JPG,AFNE01.JPG,,,,,,,,,4,5,45,9,,,,,,,,,,,,,,,AFNE13.jpg,AFSA18.jpg,AFNE14.jpg,AFSA17.jpg,AFSA17.jpg,FS,4,num_4,32,num_2,1.23347920552,,,2017_Dec_08_1341,60.0097007433,FEMA4ImagesEEG,001,202496,
AFNE01.JPG,AFNE01.JPG,AFNE01.JPG,AFNE01.JPG,AFNE01.JPG,AFNE01.JPG,,,,,,,,,4,6,46,5,,,,,,,,,,,,,,,AFSA02.jpg,AFNE19.jpg,AFSA03.jpg,AFNE20.jpg,AFNE20.jpg,FN,3,num_4,32,num_8,1.13338740985,,,2017_Dec_08_1341,60.0097007433,FEMA4ImagesEEG,001,202496,
AFNE01.JPG,AFNE01.JPG,AFNE01.JPG,AFNE01.JPG,AFNE01.JPG,AFNE01.JPG,,,,,,,,,4,7,47,8,,,,,,,,,,,,,,,AFSA03.jpg,AFNE15.jpg,AFSA16.jpg,AFNE17.jpg,AFNE15.jpg,FN,3,num_6,16,num_6,1.15014314582,,,2017_Dec_08_1341,60.0097007433,FEMA4ImagesEEG,001,202496,
AFNE01.JPG,AFNE01.JPG,AFNE01.JPG,AFNE01.JPG,AFNE01.JPG,AFNE01.JPG,,,,,,,,,4,8,48,0,,,,,,,,,,,,,,,AFNE14.jpg,AFSA09.jpg,AFSA08.jpg,AFNE02.jpg,AFNE14.jpg,FN,3,num_8,32,num_6,0.916743483627,,,2017_Dec_08_1341,60.0097007433,FEMA4ImagesEEG,001,202496,
AFNE01.JPG,AFNE01.JPG,AFNE01.JPG,AFNE01.JPG,AFNE01.JPG,AFNE01.JPG,,,,,,,,,4,9,49,2,,,,,,,,,,,,,,,AFSA01.jpg,AFNE11.jpg,AFNE08.jpg,AFSA06.jpg,AFSA01.jpg,FS,4,num_8,16,num_8,0.716788258869,,,2017_Dec_08_1341,60.0097007433,FEMA4ImagesEEG,001,202496,
AFNE01.JPG,AFNE01.JPG,AFNE01.JPG,AFNE01.JPG,AFNE01.JPG,AFNE01.JPG,,,,,,,,,5,0,50,8,,,,,,,,,,,,,,,AFNE14.jpg,AFSA06.jpg,AFSA04.jpg,AFNE07.jpg,AFNE07.jpg,FN,3,num_4,32,num_2,0.316821679939,,,2017_Dec_08_1341,60.0097007433,FEMA4ImagesEEG,001,202496,
AFNE01.JPG,AFNE01.JPG,AFNE01.JPG,AFNE01.JPG,AFNE01.JPG,AFNE01.JPG,,,,,,,,,5,1,51,1,,,,,,,,,,,,,,,AFSA10.jpg,AFNE02.jpg,AFSA05.jpg,AFNE13.jpg,AFSA05.jpg,FS,4,num_2,32,num_6,0.70011270768,,,2017_Dec_08_1341,60.0097007433,FEMA4ImagesEEG,001,202496,
AFNE01.JPG,AFNE01.JPG,AFNE01.JPG,AFNE01.JPG,AFNE01.JPG,AFNE01.JPG,,,,,,,,,5,2,52,9,,,,,,,,,,,,,,,AFSA09.jpg,AFSA20.jpg,AFNE12.jpg,AFNE16.jpg,AFSA20.jpg,FS,4,num_6,16,num_6,2.78337082779,,,2017_Dec_08_1341,60.0097007433,FEMA4ImagesEEG,001,202496,
AFNE01.JPG,AFNE01.JPG,AFNE01.JPG,AFNE01.JPG,AFNE01.JPG,AFNE01.JPG,,,,,,,,,5,3,53,7,,,,,,,,,,,,,,,AFSA02.jpg,AFNE18.jpg,AFSA17.jpg,AFNE19.jpg,AFNE19.jpg,FN,3,num_4,32,num_6,0.76675557578,,,2017_Dec_08_1341,60.0097007433,FEMA4ImagesEEG,001,202496,
AFNE01.JPG,AFNE01.JPG,AFNE01.JPG,AFNE01.JPG,AFNE01.JPG,AFNE01.JPG,,,,,,,,,5,4,54,3,,,,,,,,,,,,,,,AFSA09.jpg,AFSA01.jpg,AFNE17.jpg,AFNE18.jpg,AFSA01.jpg,FS,4,num_6,32,num_8,0.666712211678,,,2017_Dec_08_1341,60.0097007433,FEMA4ImagesEEG,001,202496,
AFNE01.JPG,AFNE01.JPG,AFNE01.JPG,AFNE01.JPG,AFNE01.JPG,AFNE01.JPG,,,,,,,,,5,5,55,6,,,,,,,,,,,,,,,AFNE15.jpg,AFSA15.jpg,AFNE16.jpg,AFSA07.jpg,AFSA15.jpg,FS,4,num_6,32,num_8,0.733435905771,,,2017_Dec_08_1341,60.0097007433,FEMA4ImagesEEG,001,202496,
AFNE01.JPG,AFNE01.JPG,AFNE01.JPG,AFNE01.JPG,AFNE01.JPG,AFNE01.JPG,,,,,,,,,5,6,56,0,,,,,,,,,,,,,,,AFNE02.jpg,AFNE01.jpg,AFSA15.jpg,AFSA09.jpg,AFNE02.jpg,FN,3,num_8,32,num_6,0.983419387601,,,2017_Dec_08_1341,60.0097007433,FEMA4ImagesEEG,001,202496,
AFNE01.JPG,AFNE01.JPG,AFNE01.JPG,AFNE01.JPG,AFNE01.JPG,AFNE01.JPG,,,,,,,,,5,7,57,2,,,,,,,,,,,,,,,AFSA19.jpg,AFSA08.jpg,AFNE15.jpg,AFNE18.jpg,AFNE18.jpg,FN,3,num_4,16,num_4,0.800130412681,,,2017_Dec_08_1341,60.0097007433,FEMA4ImagesEEG,001,202496,
AFNE01.JPG,AFNE01.JPG,AFNE01.JPG,AFNE01.JPG,AFNE01.JPG,AFNE01.JPG,,,,,,,,,5,8,58,4,,,,,,,,,,,,,,,AFNE20.jpg,AFSA04.jpg,AFSA06.jpg,AFNE06.jpg,AFNE20.jpg,FN,3,num_8,16,num_8,1.2499536532,,,2017_Dec_08_1341,60.0097007433,FEMA4ImagesEEG,001,202496,
AFNE01.JPG,AFNE01.JPG,AFNE01.JPG,AFNE01.JPG,AFNE01.JPG,AFNE01.JPG,,,,,,,,,5,9,59,5,,,,,,,,,,,,,,,AFNE09.jpg,AFSA14.jpg,AFNE03.jpg,AFSA17.jpg,AFNE03.jpg,FN,3,num_2,16,num_2,1.6668526954,,,2017_Dec_08_1341,60.0097007433,FEMA4ImagesEEG,001,202496,
,,,,,,,,,,,,,,,,,,,,,,,,,,,,,,,,,,,,,,,,,,,space,27.8982130978,2017_Dec_08_1341,60.0097007433,FEMA4ImagesEEG,001,202496,
AFNE01.JPG,AFNE01.JPG,AFNE01.JPG,AFNE01.JPG,AFNE01.JPG,AFNE01.JPG,,,,,,,,,,,,,0,0,0,8,,,,,,,,,,,AMSA02.jpg,AMSA15.jpg,AMNE05.jpg,AMNE19.jpg,AMSA15.jpg,MS,2,num_6,16,num_6,0.63344610529,,,2017_Dec_08_1341,60.0097007433,FEMA4ImagesEEG,001,202496,
AFNE01.JPG,AFNE01.JPG,AFNE01.JPG,AFNE01.JPG,AFNE01.JPG,AFNE01.JPG,,,,,,,,,,,,,0,1,1,2,,,,,,,,,,,AMSA16.jpg,AMNE13.jpg,AMNE12.jpg,AMSA14.jpg,AMSA14.jpg,MS,2,num_4,16,num_4,1.18341374281,,,2017_Dec_08_1341,60.0097007433,FEMA4ImagesEEG,001,202496,
AFNE01.JPG,AFNE01.JPG,AFNE01.JPG,AFNE01.JPG,AFNE01.JPG,AFNE01.JPG,,,,,,,,,,,,,0,2,2,0,,,,,,,,,,,AMSA19.jpg,AMNE12.jpg,AMNE01.jpg,AMSA16.jpg,AMSA16.jpg,MS,2,num_4,32,num_6,0.866734150099,,,2017_Dec_08_1341,60.0097007433,FEMA4ImagesEEG,001,202496,
AFNE01.JPG,AFNE01.JPG,AFNE01.JPG,AFNE01.JPG,AFNE01.JPG,AFNE01.JPG,,,,,,,,,,,,,0,3,3,1,,,,,,,,,,,AMNE10.jpg,AMNE13.jpg,AMSA07.jpg,AMSA11.jpg,AMSA11.jpg,MS,2,num_4,32,num_8,0.866752753034,,,2017_Dec_08_1341,60.0097007433,FEMA4ImagesEEG,001,202496,
AFNE01.JPG,AFNE01.JPG,AFNE01.JPG,AFNE01.JPG,AFNE01.JPG,AFNE01.JPG,,,,,,,,,,,,,0,4,4,9,,,,,,,,,,,AMNE06.jpg,AMSA16.jpg,AMSA06.jpg,AMNE01.jpg,AMSA06.jpg,MS,2,num_2,32,num_6,0.583521126071,,,2017_Dec_08_1341,60.0097007433,FEMA4ImagesEEG,001,202496,
AFNE01.JPG,AFNE01.JPG,AFNE01.JPG,AFNE01.JPG,AFNE01.JPG,AFNE01.JPG,,,,,,,,,,,,,0,5,5,5,,,,,,,,,,,AMSA03.jpg,AMNE07.jpg,AMNE11.jpg,AMSA05.jpg,AMNE07.jpg,MN,1,num_6,32,num_4,1.13345572748,,,2017_Dec_08_1341,60.0097007433,FEMA4ImagesEEG,001,202496,
AFNE01.JPG,AFNE01.JPG,AFNE01.JPG,AFNE01.JPG,AFNE01.JPG,AFNE01.JPG,,,,,,,,,,,,,0,6,6,4,,,,,,,,,,,AMNE05.jpg,AMSA14.jpg,AMSA11.jpg,AMNE16.jpg,AMSA14.jpg,MS,2,num_6,32,num_8,0.800132337026,,,2017_Dec_08_1341,60.0097007433,FEMA4ImagesEEG,001,202496,
AFNE01.JPG,AFNE01.JPG,AFNE01.JPG,AFNE01.JPG,AFNE01.JPG,AFNE01.JPG,,,,,,,,,,,,,0,7,7,6,,,,,,,,,,,AMNE09.jpg,AMNE11.jpg,AMSA18.jpg,AMSA17.jpg,AMSA17.jpg,MS,2,num_4,32,num_2,0.35013333126,,,2017_Dec_08_1341,60.0097007433,FEMA4ImagesEEG,001,202496,
AFNE01.JPG,AFNE01.JPG,AFNE01.JPG,AFNE01.JPG,AFNE01.JPG,AFNE01.JPG,,,,,,,,,,,,,0,8,8,3,,,,,,,,,,,AMSA05.jpg,AMSA12.jpg,AMNE03.jpg,AMNE15.jpg,AMNE15.jpg,MN,1,num_4,32,num_6,0.883454925381,,,2017_Dec_08_1341,60.0097007433,FEMA4ImagesEEG,001,202496,
AFNE01.JPG,AFNE01.JPG,AFNE01.JPG,AFNE01.JPG,AFNE01.JPG,AFNE01.JPG,,,,,,,,,,,,,0,9,9,7,,,,,,,,,,,AMNE15.jpg,AMSA15.jpg,AMSA19.jpg,AMNE11.jpg,AMNE11.jpg,MN,1,num_4,32,num_6,0.933458485873,,,2017_Dec_08_1341,60.0097007433,FEMA4ImagesEEG,001,202496,
AFNE01.JPG,AFNE01.JPG,AFNE01.JPG,AFNE01.JPG,AFNE01.JPG,AFNE01.JPG,,,,,,,,,,,,,1,0,10,8,,,,,,,,,,,AMSA03.jpg,AMSA14.jpg,AMNE07.jpg,AMNE06.jpg,AMNE06.jpg,MN,1,num_4,16,num_4,0.816745023243,,,2017_Dec_08_1341,60.0097007433,FEMA4ImagesEEG,001,202496,
AFNE01.JPG,AFNE01.JPG,AFNE01.JPG,AFNE01.JPG,AFNE01.JPG,AFNE01.JPG,,,,,,,,,,,,,1,1,11,4,,,,,,,,,,,AMNE08.jpg,AMSA16.jpg,AMSA18.jpg,AMNE13.jpg,AMSA16.jpg,MS,2,num_6,16,num_6,0.9833154683,,,2017_Dec_08_1341,60.0097007433,FEMA4ImagesEEG,001,202496,
AFNE01.JPG,AFNE01.JPG,AFNE01.JPG,AFNE01.JPG,AFNE01.JPG,AFNE01.JPG,,,,,,,,,,,,,1,2,12,2,,,,,,,,,,,AMSA03.jpg,AMSA11.jpg,AMNE07.jpg,AMNE17.jpg,AMSA03.jpg,MS,2,num_8,32,num_2,2.0666627537,,,2017_Dec_08_1341,60.0097007433,FEMA4ImagesEEG,001,202496,
AFNE01.JPG,AFNE01.JPG,AFNE01.JPG,AFNE01.JPG,AFNE01.JPG,AFNE01.JPG,,,,,,,,,,,,,1,3,13,5,,,,,,,,,,,AMSA06.jpg,AMNE16.jpg,AMSA11.jpg,AMNE19.jpg,AMNE16.jpg,MN,1,num_6,16,num_6,0.783435937716,,,2017_Dec_08_1341,60.0097007433,FEMA4ImagesEEG,001,202496,
AFNE01.JPG,AFNE01.JPG,AFNE01.JPG,AFNE01.JPG,AFNE01.JPG,AFNE01.JPG,,,,,,,,,,,,,1,4,14,6,,,,,,,,,,,AMNE10.jpg,AMNE03.jpg,AMSA18.jpg,AMSA11.jpg,AMSA11.jpg,MS,2,num_4,32,num_2,0.950071813539,,,2017_Dec_08_1341,60.0097007433,FEMA4ImagesEEG,001,202496,
AFNE01.JPG,AFNE01.JPG,AFNE01.JPG,AFNE01.JPG,AFNE01.JPG,AFNE01.JPG,,,,,,,,,,,,,1,5,15,0,,,,,,,,,,,AMNE17.jpg,AMSA11.jpg,AMNE11.jpg,AMSA20.jpg,AMNE17.jpg,MN,1,num_8,16,num_8,0.750100231031,,,2017_Dec_08_1341,60.0097007433,FEMA4ImagesEEG,001,202496,
AFNE01.JPG,AFNE01.JPG,AFNE01.JPG,AFNE01.JPG,AFNE01.JPG,AFNE01.JPG,,,,,,,,,,,,,1,6,16,9,,,,,,,,,,,AMNE10.jpg,AMNE20.jpg,AMSA20.jpg,AMSA06.jpg,AMNE20.jpg,MN,1,num_6,16,num_6,1.18351702066,,,2017_Dec_08_1341,60.0097007433,FEMA4ImagesEEG,001,202496,
AFNE01.JPG,AFNE01.JPG,AFNE01.JPG,AFNE01.JPG,AFNE01.JPG,AFNE01.JPG,,,,,,,,,,,,,1,7,17,3,,,,,,,,,,,AMSA18.jpg,AMNE11.jpg,AMSA06.jpg,AMNE16.jpg,AMSA18.jpg,MS,2,num_8,32,num_6,0.583406301681,,,2017_Dec_08_1341,60.0097007433,FEMA4ImagesEEG,001,202496,
AFNE01.JPG,AFNE01.JPG,AFNE01.JPG,AFNE01.JPG,AFNE01.JPG,AFNE01.JPG,,,,,,,,,,,,,1,8,18,1,,,,,,,,,,,AMSA19.jpg,AMNE11.jpg,AMNE14.jpg,AMSA08.jpg,AMSA08.jpg,MS,2,num_4,32,num_2,0.58349033515,,,2017_Dec_08_1341,60.0097007433,FEMA4ImagesEEG,001,202496,
AFNE01.JPG,AFNE01.JPG,AFNE01.JPG,AFNE01.JPG,AFNE01.JPG,AFNE01.JPG,,,,,,,,,,,,,1,9,19,7,,,,,,,,,,,AMNE08.jpg,AMSA17.jpg,AMSA09.jpg,AMNE12.jpg,AMSA17.jpg,MS,2,num_6,16,num_6,0.716782164993,,,2017_Dec_08_1341,60.0097007433,FEMA4ImagesEEG,001,202496,
AFNE01.JPG,AFNE01.JPG,AFNE01.JPG,AFNE01.JPG,AFNE01.JPG,AFNE01.JPG,,,,,,,,,,,,,2,0,20,2,,,,,,,,,,,AMNE09.jpg,AMSA02.jpg,AMNE19.jpg,AMSA20.jpg,AMNE19.jpg,MN,1,num_2,32,num_4,0.683515737765,,,2017_Dec_08_1341,60.0097007433,FEMA4ImagesEEG,001,202496,
AFNE01.JPG,AFNE01.JPG,AFNE01.JPG,AFNE01.JPG,AFNE01.JPG,AFNE01.JPG,,,,,,,,,,,,,2,1,21,7,,,,,,,,,,,AMSA17.jpg,AMNE01.jpg,AMNE15.jpg,AMSA14.jpg,AMNE15.jpg,MN,1,num_2,32,num_8,0.716749128653,,,2017_Dec_08_1341,60.0097007433,FEMA4ImagesEEG,001,202496,
AFNE01.JPG,AFNE01.JPG,AFNE01.JPG,AFNE01.JPG,AFNE01.JPG,AFNE01.JPG,,,,,,,,,,,,,2,2,22,9,,,,,,,,,,,AMSA18.jpg,AMSA05.jpg,AMNE01.jpg,AMNE06.jpg,AMNE06.jpg,MN,1,num_4,32,num_6,0.75011626794,,,2017_Dec_08_1341,60.0097007433,FEMA4ImagesEEG,001,202496,
AFNE01.JPG,AFNE01.JPG,AFNE01.JPG,AFNE01.JPG,AFNE01.JPG,AFNE01.JPG,,,,,,,,,,,,,2,3,23,3,,,,,,,,,,,AMSA19.jpg,AMNE04.jpg,AMSA15.jpg,AMNE01.jpg,AMSA19.jpg,MS,2,num_8,32,num_2,1.21675875084,,,2017_Dec_08_1341,60.0097007433,FEMA4ImagesEEG,001,202496,
AFNE01.JPG,AFNE01.JPG,AFNE01.JPG,AFNE01.JPG,AFNE01.JPG,AFNE01.JPG,,,,,,,,,,,,,2,4,24,1,,,,,,,,,,,AMNE17.jpg,AMSA01.jpg,AMNE11.jpg,AMSA09.jpg,AMNE17.jpg,MN,1,num_8,16,num_8,0.91675727535,,,2017_Dec_08_1341,60.0097007433,FEMA4ImagesEEG,001,202496,
AFNE01.JPG,AFNE01.JPG,AFNE01.JPG,AFNE01.JPG,AFNE01.JPG,AFNE01.JPG,,,,,,,,,,,,,2,5,25,8,,,,,,,,,,,AMSA08.jpg,AMNE12.jpg,AMNE18.jpg,AMSA19.jpg,AMNE12.jpg,MN,1,num_6,16,num_6,0.56679457752,,,2017_Dec_08_1341,60.0097007433,FEMA4ImagesEEG,001,202496,
AFNE01.JPG,AFNE01.JPG,AFNE01.JPG,AFNE01.JPG,AFNE01.JPG,AFNE01.JPG,,,,,,,,,,,,,2,6,26,6,,,,,,,,,,,AMNE11.jpg,AMSA19.jpg,AMSA16.jpg,AMNE14.jpg,AMSA16.jpg,MS,2,num_2,32,num_8,0.66648288304,,,2017_Dec_08_1341,60.0097007433,FEMA4ImagesEEG,001,202496,
AFNE01.JPG,AFNE01.JPG,AFNE01.JPG,AFNE01.JPG,AFNE01.JPG,AFNE01.JPG,,,,,,,,,,,,,2,7,27,0,,,,,,,,,,,AMNE04.jpg,AMNE08.jpg,AMSA02.jpg,AMSA16.jpg,AMSA16.jpg,MS,2,num_4,16,num_4,0.750091891969,,,2017_Dec_08_1341,60.0097007433,FEMA4ImagesEEG,001,202496,
AFNE01.JPG,AFNE01.JPG,AFNE01.JPG,AFNE01.JPG,AFNE01.JPG,AFNE01.JPG,,,,,,,,,,,,,2,8,28,5,,,,,,,,,,,AMNE18.jpg,AMNE20.jpg,AMSA03.jpg,AMSA02.jpg,AMSA03.jpg,MS,2,num_2,32,num_6,2.29999570199,,,2017_Dec_08_1341,60.0097007433,FEMA4ImagesEEG,001,202496,
AFNE01.JPG,AFNE01.JPG,AFNE01.JPG,AFNE01.JPG,AFNE01.JPG,AFNE01.JPG,,,,,,,,,,,,,2,9,29,4,,,,,,,,,,,AMSA12.jpg,AMSA19.jpg,AMNE01.jpg,AMNE02.jpg,AMSA12.jpg,MS,2,num_8,32,num_6,0.983724090038,,,2017_Dec_08_1341,60.0097007433,FEMA4ImagesEEG,001,202496,
AFNE01.JPG,AFNE01.JPG,AFNE01.JPG,AFNE01.JPG,AFNE01.JPG,AFNE01.JPG,,,,,,,,,,,,,3,0,30,1,,,,,,,,,,,AMSA02.jpg,AMNE09.jpg,AMNE04.jpg,AMSA07.jpg,AMNE09.jpg,MN,1,num_6,32,num_4,1.55004269048,,,2017_Dec_08_1341,60.0097007433,FEMA4ImagesEEG,001,202496,
AFNE01.JPG,AFNE01.JPG,AFNE01.JPG,AFNE01.JPG,AFNE01.JPG,AFNE01.JPG,,,,,,,,,,,,,3,1,31,8,,,,,,,,,,,AMSA10.jpg,AMSA20.jpg,AMNE07.jpg,AMNE06.jpg,AMNE06.jpg,MN,1,num_4,32,num_6,1.28339712834,,,2017_Dec_08_1341,60.0097007433,FEMA4ImagesEEG,001,202496,
AFNE01.JPG,AFNE01.JPG,AFNE01.JPG,AFNE01.JPG,AFNE01.JPG,AFNE01.JPG,,,,,,,,,,,,,3,2,32,5,,,,,,,,,,,AMNE10.jpg,AMSA06.jpg,AMSA04.jpg,AMNE11.jpg,AMNE10.jpg,MN,1,num_8,32,num_6,0.983304562978,,,2017_Dec_08_1341,60.0097007433,FEMA4ImagesEEG,001,202496,
AFNE01.JPG,AFNE01.JPG,AFNE01.JPG,AFNE01.JPG,AFNE01.JPG,AFNE01.JPG,,,,,,,,,,,,,3,3,33,0,,,,,,,,,,,AMNE16.jpg,AMSA20.jpg,AMNE19.jpg,AMSA19.jpg,AMNE16.jpg,MN,1,num_8,32,num_6,0.616787553299,,,2017_Dec_08_1341,60.0097007433,FEMA4ImagesEEG,001,202496,
AFNE01.JPG,AFNE01.JPG,AFNE01.JPG,AFNE01.JPG,AFNE01.JPG,AFNE01.JPG,,,,,,,,,,,,,3,4,34,3,,,,,,,,,,,AMNE02.jpg,AMSA06.jpg,AMSA09.jpg,AMNE09.jpg,AMNE02.jpg,MN,1,num_8,16,num_8,0.733316911384,,,2017_Dec_08_1341,60.0097007433,FEMA4ImagesEEG,001,202496,
AFNE01.JPG,AFNE01.JPG,AFNE01.JPG,AFNE01.JPG,AFNE01.JPG,AFNE01.JPG,,,,,,,,,,,,,3,5,35,4,,,,,,,,,,,AMSA06.jpg,AMSA18.jpg,AMNE09.jpg,AMNE08.jpg,AMSA06.jpg,MS,2,num_8,32,num_6,0.766767122317,,,2017_Dec_08_1341,60.0097007433,FEMA4ImagesEEG,001,202496,
AFNE01.JPG,AFNE01.JPG,AFNE01.JPG,AFNE01.JPG,AFNE01.JPG,AFNE01.JPG,,,,,,,,,,,,,3,6,36,6,,,,,,,,,,,AMSA01.jpg,AMNE19.jpg,AMNE07.jpg,AMSA03.jpg,AMSA03.jpg,MS,2,num_4,16,num_4,0.866767507046,,,2017_Dec_08_1341,60.0097007433,FEMA4ImagesEEG,001,202496,
AFNE01.JPG,AFNE01.JPG,AFNE01.JPG,AFNE01.JPG,AFNE01.JPG,AFNE01.JPG,,,,,,,,,,,,,3,7,37,9,,,,,,,,,,,AMNE03.jpg,AMSA01.jpg,AMNE09.jpg,AMSA13.jpg,AMSA13.jpg,MS,2,num_4,32,num_6,1.26643900597,,,2017_Dec_08_1341,60.0097007433,FEMA4ImagesEEG,001,202496,
AFNE01.JPG,AFNE01.JPG,AFNE01.JPG,AFNE01.JPG,AFNE01.JPG,AFNE01.JPG,,,,,,,,,,,,,3,8,38,2,,,,,,,,,,,AMSA10.jpg,AMNE20.jpg,AMNE10.jpg,AMSA09.jpg,AMSA10.jpg,MS,2,num_8,32,num_4,0.883473207708,,,2017_Dec_08_1341,60.0097007433,FEMA4ImagesEEG,001,202496,
AFNE01.JPG,AFNE01.JPG,AFNE01.JPG,AFNE01.JPG,AFNE01.JPG,AFNE01.JPG,,,,,,,,,,,,,3,9,39,7,,,,,,,,,,,AMNE12.jpg,AMNE04.jpg,AMSA01.jpg,AMSA18.jpg,AMNE04.jpg,MN,1,num_6,16,num_6,0.50011610752,,,2017_Dec_08_1341,60.0097007433,FEMA4ImagesEEG,001,202496,
AFNE01.JPG,AFNE01.JPG,AFNE01.JPG,AFNE01.JPG,AFNE01.JPG,AFNE01.JPG,,,,,,,,,,,,,4,0,40,1,,,,,,,,,,,AMSA09.jpg,AMNE08.jpg,AMSA06.jpg,AMNE12.jpg,AMNE12.jpg,MN,1,num_4,48,None,,,,2017_Dec_08_1341,60.0097007433,FEMA4ImagesEEG,001,202496,
AFNE01.JPG,AFNE01.JPG,AFNE01.JPG,AFNE01.JPG,AFNE01.JPG,AFNE01.JPG,,,,,,,,,,,,,4,1,41,8,,,,,,,,,,,AMSA19.jpg,AMSA01.jpg,AMNE20.jpg,AMNE08.jpg,AMNE20.jpg,MN,1,num_2,32,num_8,0.866618042579,,,2017_Dec_08_1341,60.0097007433,FEMA4ImagesEEG,001,202496,
AFNE01.JPG,AFNE01.JPG,AFNE01.JPG,AFNE01.JPG,AFNE01.JPG,AFNE01.JPG,,,,,,,,,,,,,4,2,42,3,,,,,,,,,,,AMNE18.jpg,AMNE06.jpg,AMSA15.jpg,AMSA03.jpg,AMNE06.jpg,MN,1,num_6,16,num_6,1.25015026634,,,2017_Dec_08_1341,60.0097007433,FEMA4ImagesEEG,001,202496,
AFNE01.JPG,AFNE01.JPG,AFNE01.JPG,AFNE01.JPG,AFNE01.JPG,AFNE01.JPG,,,,,,,,,,,,,4,3,43,7,,,,,,,,,,,AMNE08.jpg,AMSA19.jpg,AMSA08.jpg,AMNE09.jpg,AMNE08.jpg,MN,1,num_8,32,num_4,0.700244210893,,,2017_Dec_08_1341,60.0097007433,FEMA4ImagesEEG,001,202496,
AFNE01.JPG,AFNE01.JPG,AFNE01.JPG,AFNE01.JPG,AFNE01.JPG,AFNE01.JPG,,,,,,,,,,,,,4,4,44,0,,,,,,,,,,,AMNE11.jpg,AMNE18.jpg,AMSA01.jpg,AMSA04.jpg,AMSA04.jpg,MS,2,num_4,32,num_6,0.466653387994,,,2017_Dec_08_1341,60.0097007433,FEMA4ImagesEEG,001,202496,
AFNE01.JPG,AFNE01.JPG,AFNE01.JPG,AFNE01.JPG,AFNE01.JPG,AFNE01.JPG,,,,,,,,,,,,,4,5,45,9,,,,,,,,,,,AMNE11.jpg,AMSA17.jpg,AMNE02.jpg,AMSA07.jpg,AMSA17.jpg,MS,2,num_6,32,num_4,1.06672433554,,,2017_Dec_08_1341,60.0097007433,FEMA4ImagesEEG,001,202496,
AFNE01.JPG,AFNE01.JPG,AFNE01.JPG,AFNE01.JPG,AFNE01.JPG,AFNE01.JPG,,,,,,,,,,,,,4,6,46,5,,,,,,,,,,,AMNE20.jpg,AMNE16.jpg,AMSA14.jpg,AMSA05.jpg,AMSA05.jpg,MS,2,num_4,32,num_2,0.750139681855,,,2017_Dec_08_1341,60.0097007433,FEMA4ImagesEEG,001,202496,
AFNE01.JPG,AFNE01.JPG,AFNE01.JPG,AFNE01.JPG,AFNE01.JPG,AFNE01.JPG,,,,,,,,,,,,,4,7,47,6,,,,,,,,,,,AMNE17.jpg,AMNE03.jpg,AMSA19.jpg,AMSA16.jpg,AMSA16.jpg,MS,2,num_4,16,num_4,1.01655880199,,,2017_Dec_08_1341,60.0097007433,FEMA4ImagesEEG,001,202496,
AFNE01.JPG,AFNE01.JPG,AFNE01.JPG,AFNE01.JPG,AFNE01.JPG,AFNE01.JPG,,,,,,,,,,,,,4,8,48,4,,,,,,,,,,,AMNE15.jpg,AMSA09.jpg,AMNE13.jpg,AMSA19.jpg,AMSA19.jpg,MS,2,num_4,32,num_6,0.86678161961,,,2017_Dec_08_1341,60.0097007433,FEMA4ImagesEEG,001,202496,
AFNE01.JPG,AFNE01.JPG,AFNE01.JPG,AFNE01.JPG,AFNE01.JPG,AFNE01.JPG,,,,,,,,,,,,,4,9,49,2,,,,,,,,,,,AMNE06.jpg,AMNE01.jpg,AMSA17.jpg,AMSA02.jpg,AMSA17.jpg,MS,2,num_2,16,num_2,0.600144396769,,,2017_Dec_08_1341,60.0097007433,FEMA4ImagesEEG,001,202496,
AFNE01.JPG,AFNE01.JPG,AFNE01.JPG,AFNE01.JPG,AFNE01.JPG,AFNE01.JPG,,,,,,,,,,,,,5,0,50,5,,,,,,,,,,,AMNE01.jpg,AMNE05.jpg,AMSA19.jpg,AMSA18.jpg,AMNE05.jpg,MN,1,num_6,16,num_6,0.750117871678,,,2017_Dec_08_1341,60.0097007433,FEMA4ImagesEEG,001,202496,
AFNE01.JPG,AFNE01.JPG,AFNE01.JPG,AFNE01.JPG,AFNE01.JPG,AFNE01.JPG,,,,,,,,,,,,,5,1,51,6,,,,,,,,,,,AMSA19.jpg,AMSA03.jpg,AMNE01.jpg,AMNE20.jpg,AMNE20.jpg,MN,1,num_4,16,num_4,0.466821134556,,,2017_Dec_08_1341,60.0097007433,FEMA4ImagesEEG,001,202496,
AFNE01.JPG,AFNE01.JPG,AFNE01.JPG,AFNE01.JPG,AFNE01.JPG,AFNE01.JPG,,,,,,,,,,,,,5,2,52,3,,,,,,,,,,,AMNE17.jpg,AMSA01.jpg,AMNE07.jpg,AMSA02.jpg,AMNE17.jpg,MN,1,num_8,16,num_8,0.666782774264,,,2017_Dec_08_1341,60.0097007433,FEMA4ImagesEEG,001,202496,
AFNE01.JPG,AFNE01.JPG,AFNE01.JPG,AFNE01.JPG,AFNE01.JPG,AFNE01.JPG,,,,,,,,,,,,,5,3,53,8,,,,,,,,,,,AMNE12.jpg,AMSA14.jpg,AMNE19.jpg,AMSA06.jpg,AMSA14.jpg,MS,2,num_6,16,num_6,0.450159375323,,,2017_Dec_08_1341,60.0097007433,FEMA4ImagesEEG,001,202496,
AFNE01.JPG,AFNE01.JPG,AFNE01.JPG,AFNE01.JPG,AFNE01.JPG,AFNE01.JPG,,,,,,,,,,,,,5,4,54,7,,,,,,,,,,,AMNE16.jpg,AMSA17.jpg,AMNE08.jpg,AMSA15.jpg,AMNE16.jpg,MN,1,num_8,16,num_8,0.866760450881,,,2017_Dec_08_1341,60.0097007433,FEMA4ImagesEEG,001,202496,
AFNE01.JPG,AFNE01.JPG,AFNE01.JPG,AFNE01.JPG,AFNE01.JPG,AFNE01.JPG,,,,,,,,,,,,,5,5,55,0,,,,,,,,,,,AMNE06.jpg,AMSA15.jpg,AMNE09.jpg,AMSA07.jpg,AMNE09.jpg,MN,1,num_2,32,num_6,2.98330071429,,,2017_Dec_08_1341,60.0097007433,FEMA4ImagesEEG,001,202496,
AFNE01.JPG,AFNE01.JPG,AFNE01.JPG,AFNE01.JPG,AFNE01.JPG,AFNE01.JPG,,,,,,,,,,,,,5,6,56,9,,,,,,,,,,,AMNE12.jpg,AMSA17.jpg,AMNE05.jpg,AMSA12.jpg,AMSA12.jpg,MS,2,num_4,32,num_6,0.616775044473,,,2017_Dec_08_1341,60.0097007433,FEMA4ImagesEEG,001,202496,
AFNE01.JPG,AFNE01.JPG,AFNE01.JPG,AFNE01.JPG,AFNE01.JPG,AFNE01.JPG,,,,,,,,,,,,,5,7,57,1,,,,,,,,,,,AMSA11.jpg,AMNE02.jpg,AMSA12.jpg,AMNE05.jpg,AMNE05.jpg,MN,1,num_4,32,num_6,2.53336232807,,,2017_Dec_08_1341,60.0097007433,FEMA4ImagesEEG,001,202496,
AFNE01.JPG,AFNE01.JPG,AFNE01.JPG,AFNE01.JPG,AFNE01.JPG,AFNE01.JPG,,,,,,,,,,,,,5,8,58,2,,,,,,,,,,,AMSA10.jpg,AMNE16.jpg,AMSA02.jpg,AMNE10.jpg,AMSA02.jpg,MS,2,num_2,32,num_8,0.933448542841,,,2017_Dec_08_1341,60.0097007433,FEMA4ImagesEEG,001,202496,
AFNE01.JPG,AFNE01.JPG,AFNE01.JPG,AFNE01.JPG,AFNE01.JPG,AFNE01.JPG,,,,,,,,,,,,,5,9,59,4,,,,,,,,,,,AMSA07.jpg,AMNE10.jpg,AMNE08.jpg,AMSA05.jpg,AMNE10.jpg,MN,1,num_6,16,num_6,0.7501060043,,,2017_Dec_08_1341,60.0097007433,FEMA4ImagesEEG,001,202496,
,,,,,,,,,,,,,,,,,,,,,,,,,,,,,,,,,,,,,,,,,,,space,9.41635763459,2017_Dec_08_1341,60.0097007433,FEMA4ImagesEEG,001,202496,
AFNE01.JPG,AFNE01.JPG,AFNE01.JPG,AFNE01.JPG,AFNE01.JPG,AFNE01.JPG,,,,,,,,,,,,,,,,,0,0,0,2,,,,,,,AFNE08.jpg,AFNE09.jpg,AFSA08.jpg,AFSA15.jpg,AFSA15.jpg,FS,4,num_4,32,num_8,0.600124510936,,,2017_Dec_08_1341,60.0097007433,FEMA4ImagesEEG,001,202496,
AFNE01.JPG,AFNE01.JPG,AFNE01.JPG,AFNE01.JPG,AFNE01.JPG,AFNE01.JPG,,,,,,,,,,,,,,,,,0,1,1,5,,,,,,,AFNE19.jpg,AFNE05.jpg,AFSA04.jpg,AFSA18.jpg,AFNE05.jpg,FN,3,num_6,32,num_4,0.816762343282,,,2017_Dec_08_1341,60.0097007433,FEMA4ImagesEEG,001,202496,
AFNE01.JPG,AFNE01.JPG,AFNE01.JPG,AFNE01.JPG,AFNE01.JPG,AFNE01.JPG,,,,,,,,,,,,,,,,,0,2,2,0,,,,,,,AFSA02.jpg,AFNE20.jpg,AFNE08.jpg,AFSA05.jpg,AFNE20.jpg,FN,3,num_6,16,num_6,0.516789413523,,,2017_Dec_08_1341,60.0097007433,FEMA4ImagesEEG,001,202496,
AFNE01.JPG,AFNE01.JPG,AFNE01.JPG,AFNE01.JPG,AFNE01.JPG,AFNE01.JPG,,,,,,,,,,,,,,,,,0,3,3,3,,,,,,,AFNE07.jpg,AFSA04.jpg,AFSA20.jpg,AFNE11.jpg,AFNE07.jpg,FN,3,num_8,16,num_8,0.616851380328,,,2017_Dec_08_1341,60.0097007433,FEMA4ImagesEEG,001,202496,
AFNE01.JPG,AFNE01.JPG,AFNE01.JPG,AFNE01.JPG,AFNE01.JPG,AFNE01.JPG,,,,,,,,,,,,,,,,,0,4,4,6,,,,,,,AFNE01.jpg,AFSA15.jpg,AFNE18.jpg,AFSA12.jpg,AFSA15.jpg,FS,4,num_6,16,num_6,0.700109179597,,,2017_Dec_08_1341,60.0097007433,FEMA4ImagesEEG,001,202496,
AFNE01.JPG,AFNE01.JPG,AFNE01.JPG,AFNE01.JPG,AFNE01.JPG,AFNE01.JPG,,,,,,,,,,,,,,,,,0,5,5,4,,,,,,,AFNE19.jpg,AFSA07.jpg,AFNE05.jpg,AFSA10.jpg,AFNE19.jpg,FN,3,num_8,32,num_2,1.13343487936,,,2017_Dec_08_1341,60.0097007433,FEMA4ImagesEEG,001,202496,
AFNE01.JPG,AFNE01.JPG,AFNE01.JPG,AFNE01.JPG,AFNE01.JPG,AFNE01.JPG,,,,,,,,,,,,,,,,,0,6,6,8,,,,,,,AFSA07.jpg,AFNE05.jpg,AFSA10.jpg,AFNE18.jpg,AFSA07.jpg,FS,4,num_8,32,num_6,2.7166301345,,,2017_Dec_08_1341,60.0097007433,FEMA4ImagesEEG,001,202496,
AFNE01.JPG,AFNE01.JPG,AFNE01.JPG,AFNE01.JPG,AFNE01.JPG,AFNE01.JPG,,,,,,,,,,,,,,,,,0,7,7,9,,,,,,,AFSA02.jpg,AFSA19.jpg,AFNE08.jpg,AFNE03.jpg,AFSA02.jpg,FS,4,num_8,16,num_8,0.750215376262,,,2017_Dec_08_1341,60.0097007433,FEMA4ImagesEEG,001,202496,
AFNE01.JPG,AFNE01.JPG,AFNE01.JPG,AFNE01.JPG,AFNE01.JPG,AFNE01.JPG,,,,,,,,,,,,,,,,,0,8,8,7,,,,,,,AFSA07.jpg,AFNE05.jpg,AFNE17.jpg,AFSA18.jpg,AFSA18.jpg,FS,4,num_4,32,num_6,1.25022371556,,,2017_Dec_08_1341,60.0097007433,FEMA4ImagesEEG,001,202496,
AFNE01.JPG,AFNE01.JPG,AFNE01.JPG,AFNE01.JPG,AFNE01.JPG,AFNE01.JPG,,,,,,,,,,,,,,,,,0,9,9,1,,,,,,,AFNE12.jpg,AFSA06.jpg,AFSA09.jpg,AFNE04.jpg,AFNE04.jpg,FN,3,num_4,32,num_8,0.783446522197,,,2017_Dec_08_1341,60.0097007433,FEMA4ImagesEEG,001,202496,
AFNE01.JPG,AFNE01.JPG,AFNE01.JPG,AFNE01.JPG,AFNE01.JPG,AFNE01.JPG,,,,,,,,,,,,,,,,,1,0,10,0,,,,,,,AFSA01.jpg,AFSA19.jpg,AFNE14.jpg,AFNE03.jpg,AFSA01.jpg,FS,4,num_8,16,num_8,0.71677735378,,,2017_Dec_08_1341,60.0097007433,FEMA4ImagesEEG,001,202496,
AFNE01.JPG,AFNE01.JPG,AFNE01.JPG,AFNE01.JPG,AFNE01.JPG,AFNE01.JPG,,,,,,,,,,,,,,,,,1,1,11,9,,,,,,,AFNE12.jpg,AFNE19.jpg,AFSA11.jpg,AFSA08.jpg,AFNE12.jpg,FN,3,num_8,32,num_6,1.5833472854,,,2017_Dec_08_1341,60.0097007433,FEMA4ImagesEEG,001,202496,
AFNE01.JPG,AFNE01.JPG,AFNE01.JPG,AFNE01.JPG,AFNE01.JPG,AFNE01.JPG,,,,,,,,,,,,,,,,,1,2,12,5,,,,,,,AFNE12.jpg,AFSA03.jpg,AFSA20.jpg,AFNE05.jpg,AFSA03.jpg,FS,4,num_6,32,num_4,0.0669722668827,,,2017_Dec_08_1341,60.0097007433,FEMA4ImagesEEG,001,202496,
AFNE01.JPG,AFNE01.JPG,AFNE01.JPG,AFNE01.JPG,AFNE01.JPG,AFNE01.JPG,,,,,,,,,,,,,,,,,1,3,13,8,,,,,,,AFNE17.jpg,AFSA01.jpg,AFSA04.jpg,AFNE05.jpg,AFSA01.jpg,FS,4,num_6,32,num_2,1.40008845972,,,2017_Dec_08_1341,60.0097007433,FEMA4ImagesEEG,001,202496,
AFNE01.JPG,AFNE01.JPG,AFNE01.JPG,AFNE01.JPG,AFNE01.JPG,AFNE01.JPG,,,,,,,,,,,,,,,,,1,4,14,4,,,,,,,AFSA14.jpg,AFSA06.jpg,AFNE03.jpg,AFNE19.jpg,AFSA06.jpg,FS,4,num_6,16,num_6,2.6999654884,,,2017_Dec_08_1341,60.0097007433,FEMA4ImagesEEG,001,202496,
AFNE01.JPG,AFNE01.JPG,AFNE01.JPG,AFNE01.JPG,AFNE01.JPG,AFNE01.JPG,,,,,,,,,,,,,,,,,1,5,15,1,,,,,,,AFSA18.jpg,AFNE01.jpg,AFSA15.jpg,AFNE07.jpg,AFNE01.jpg,FN,3,num_6,32,num_4,1.28345261607,,,2017_Dec_08_1341,60.0097007433,FEMA4ImagesEEG,001,202496,
AFNE01.JPG,AFNE01.JPG,AFNE01.JPG,AFNE01.JPG,AFNE01.JPG,AFNE01.JPG,,,,,,,,,,,,,,,,,1,6,16,6,,,,,,,AFSA13.jpg,AFNE15.jpg,AFNE04.jpg,AFSA19.jpg,AFSA13.jpg,FS,4,num_8,16,num_8,0.783444597851,,,2017_Dec_08_1341,60.0097007433,FEMA4ImagesEEG,001,202496,
AFNE01.JPG,AFNE01.JPG,AFNE01.JPG,AFNE01.JPG,AFNE01.JPG,AFNE01.JPG,,,,,,,,,,,,,,,,,1,7,17,3,,,,,,,AFNE18.jpg,AFSA09.jpg,AFNE10.jpg,AFSA13.jpg,AFNE18.jpg,FN,3,num_8,32,num_6,1.18340347917,,,2017_Dec_08_1341,60.0097007433,FEMA4ImagesEEG,001,202496,
AFNE01.JPG,AFNE01.JPG,AFNE01.JPG,AFNE01.JPG,AFNE01.JPG,AFNE01.JPG,,,,,,,,,,,,,,,,,1,8,18,7,,,,,,,AFNE18.jpg,AFNE01.jpg,AFSA07.jpg,AFSA06.jpg,AFSA06.jpg,FS,4,num_4,32,num_6,2.05003852071,,,2017_Dec_08_1341,60.0097007433,FEMA4ImagesEEG,001,202496,
AFNE01.JPG,AFNE01.JPG,AFNE01.JPG,AFNE01.JPG,AFNE01.JPG,AFNE01.JPG,,,,,,,,,,,,,,,,,1,9,19,2,,,,,,,AFSA02.jpg,AFSA09.jpg,AFNE02.jpg,AFNE05.jpg,AFNE02.jpg,FN,3,num_2,32,num_8,0.80009833863,,,2017_Dec_08_1341,60.0097007433,FEMA4ImagesEEG,001,202496,
AFNE01.JPG,AFNE01.JPG,AFNE01.JPG,AFNE01.JPG,AFNE01.JPG,AFNE01.JPG,,,,,,,,,,,,,,,,,2,0,20,2,,,,,,,AFNE07.jpg,AFNE09.jpg,AFSA09.jpg,AFSA19.jpg,AFNE09.jpg,FN,3,num_6,48,None,,,,2017_Dec_08_1341,60.0097007433,FEMA4ImagesEEG,001,202496,
AFNE01.JPG,AFNE01.JPG,AFNE01.JPG,AFNE01.JPG,AFNE01.JPG,AFNE01.JPG,,,,,,,,,,,,,,,,,2,1,21,9,,,,,,,AFSA04.jpg,AFNE09.jpg,AFSA13.jpg,AFNE07.jpg,AFNE09.jpg,FN,3,num_6,32,num_8,0.700165308779,,,2017_Dec_08_1341,60.0097007433,FEMA4ImagesEEG,001,202496,
AFNE01.JPG,AFNE01.JPG,AFNE01.JPG,AFNE01.JPG,AFNE01.JPG,AFNE01.JPG,,,,,,,,,,,,,,,,,2,2,22,7,,,,,,,AFNE10.jpg,AFNE12.jpg,AFSA07.jpg,AFSA16.jpg,AFNE10.jpg,FN,3,num_8,32,num_2,0.450172525598,,,2017_Dec_08_1341,60.0097007433,FEMA4ImagesEEG,001,202496,
AFNE01.JPG,AFNE01.JPG,AFNE01.JPG,AFNE01.JPG,AFNE01.JPG,AFNE01.JPG,,,,,,,,,,,,,,,,,2,3,23,0,,,,,,,AFSA03.jpg,AFNE16.jpg,AFSA14.jpg,AFNE01.jpg,AFNE01.jpg,FN,3,num_4,32,num_6,0.883448831504,,,2017_Dec_08_1341,60.0097007433,FEMA4ImagesEEG,001,202496,
AFNE01.JPG,AFNE01.JPG,AFNE01.JPG,AFNE01.JPG,AFNE01.JPG,AFNE01.JPG,,,,,,,,,,,,,,,,,2,4,24,8,,,,,,,AFSA05.jpg,AFNE14.jpg,AFSA07.jpg,AFNE04.jpg,AFSA05.jpg,FS,4,num_8,32,num_4,0.600145679666,,,2017_Dec_08_1341,60.0097007433,FEMA4ImagesEEG,001,202496,
AFNE01.JPG,AFNE01.JPG,AFNE01.JPG,AFNE01.JPG,AFNE01.JPG,AFNE01.JPG,,,,,,,,,,,,,,,,,2,5,25,3,,,,,,,AFSA04.jpg,AFNE04.jpg,AFNE20.jpg,AFSA15.jpg,AFSA04.jpg,FS,4,num_8,32,num_6,0.750118192518,,,2017_Dec_08_1341,60.0097007433,FEMA4ImagesEEG,001,202496,
AFNE01.JPG,AFNE01.JPG,AFNE01.JPG,AFNE01.JPG,AFNE01.JPG,AFNE01.JPG,,,,,,,,,,,,,,,,,2,6,26,1,,,,,,,AFNE01.jpg,AFSA13.jpg,AFSA10.jpg,AFNE12.jpg,AFNE12.jpg,FN,3,num_4,32,num_8,0.233466375852,,,2017_Dec_08_1341,60.0097007433,FEMA4ImagesEEG,001,202496,
AFNE01.JPG,AFNE01.JPG,AFNE01.JPG,AFNE01.JPG,AFNE01.JPG,AFNE01.JPG,,,,,,,,,,,,,,,,,2,7,27,4,,,,,,,AFNE17.jpg,AFNE19.jpg,AFSA06.jpg,AFSA16.jpg,AFSA06.jpg,FS,4,num_2,16,num_2,1.23336502234,,,2017_Dec_08_1341,60.0097007433,FEMA4ImagesEEG,001,202496,
AFNE01.JPG,AFNE01.JPG,AFNE01.JPG,AFNE01.JPG,AFNE01.JPG,AFNE01.JPG,,,,,,,,,,,,,,,,,2,8,28,5,,,,,,,AFNE02.jpg,AFSA15.jpg,AFNE19.jpg,AFSA02.jpg,AFNE02.jpg,FN,3,num_8,32,num_2,0.866763658356,,,2017_Dec_08_1341,60.0097007433,FEMA4ImagesEEG,001,202496,
AFNE01.JPG,AFNE01.JPG,AFNE01.JPG,AFNE01.JPG,AFNE01.JPG,AFNE01.JPG,,,,,,,,,,,,,,,,,2,9,29,6,,,,,,,AFNE02.jpg,AFSA02.jpg,AFSA15.jpg,AFNE05.jpg,AFSA15.jpg,FS,4,num_2,32,num_8,0.600190903991,,,2017_Dec_08_1341,60.0097007433,FEMA4ImagesEEG,001,202496,
AFNE01.JPG,AFNE01.JPG,AFNE01.JPG,AFNE01.JPG,AFNE01.JPG,AFNE01.JPG,,,,,,,,,,,,,,,,,3,0,30,0,,,,,,,AFSA07.jpg,AFNE11.jpg,AFSA10.jpg,AFNE17.jpg,AFSA07.jpg,FS,4,num_8,32,num_4,0.650142504601,,,2017_Dec_08_1341,60.0097007433,FEMA4ImagesEEG,001,202496,
AFNE01.JPG,AFNE01.JPG,AFNE01.JPG,AFNE01.JPG,AFNE01.JPG,AFNE01.JPG,,,,,,,,,,,,,,,,,3,1,31,7,,,,,,,AFSA08.jpg,AFNE08.jpg,AFNE15.jpg,AFSA19.jpg,AFNE15.jpg,FN,3,num_2,32,num_6,2.81651761918,,,2017_Dec_08_1341,60.0097007433,FEMA4ImagesEEG,001,202496,
AFNE01.JPG,AFNE01.JPG,AFNE01.JPG,AFNE01.JPG,AFNE01.JPG,AFNE01.JPG,,,,,,,,,,,,,,,,,3,2,32,4,,,,,,,AFNE20.jpg,AFSA13.jpg,AFSA11.jpg,AFNE15.jpg,AFNE20.jpg,FN,3,num_8,16,num_8,0.700066842139,,,2017_Dec_08_1341,60.0097007433,FEMA4ImagesEEG,001,202496,
AFNE01.JPG,AFNE01.JPG,AFNE01.JPG,AFNE01.JPG,AFNE01.JPG,AFNE01.JPG,,,,,,,,,,,,,,,,,3,3,33,2,,,,,,,AFNE02.jpg,AFNE06.jpg,AFSA01.jpg,AFSA13.jpg,AFNE02.jpg,FN,3,num_8,16,num_8,0.816736363107,,,2017_Dec_08_1341,60.0097007433,FEMA4ImagesEEG,001,202496,
AFNE01.JPG,AFNE01.JPG,AFNE01.JPG,AFNE01.JPG,AFNE01.JPG,AFNE01.JPG,,,,,,,,,,,,,,,,,3,4,34,5,,,,,,,AFSA07.jpg,AFNE06.jpg,AFSA05.jpg,AFNE17.jpg,AFSA07.jpg,FS,4,num_8,32,num_2,0.800135865109,,,2017_Dec_08_1341,60.0097007433,FEMA4ImagesEEG,001,202496,
AFNE01.JPG,AFNE01.JPG,AFNE01.JPG,AFNE01.JPG,AFNE01.JPG,AFNE01.JPG,,,,,,,,,,,,,,,,,3,5,35,3,,,,,,,AFNE03.jpg,AFSA11.jpg,AFNE11.jpg,AFSA17.jpg,AFNE11.jpg,FN,3,num_2,16,num_2,1.1666990614,,,2017_Dec_08_1341,60.0097007433,FEMA4ImagesEEG,001,202496,
AFNE01.JPG,AFNE01.JPG,AFNE01.JPG,AFNE01.JPG,AFNE01.JPG,AFNE01.JPG,,,,,,,,,,,,,,,,,3,6,36,9,,,,,,,AFNE19.jpg,AFSA10.jpg,AFNE15.jpg,AFSA11.jpg,AFSA10.jpg,FS,4,num_6,16,num_6,1.11676702602,,,2017_Dec_08_1341,60.0097007433,FEMA4ImagesEEG,001,202496,
AFNE01.JPG,AFNE01.JPG,AFNE01.JPG,AFNE01.JPG,AFNE01.JPG,AFNE01.JPG,,,,,,,,,,,,,,,,,3,7,37,6,,,,,,,AFSA17.jpg,AFNE03.jpg,AFNE15.jpg,AFSA03.jpg,AFNE03.jpg,FN,3,num_6,32,num_8,1.73341698223,,,2017_Dec_08_1341,60.0097007433,FEMA4ImagesEEG,001,202496,
AFNE01.JPG,AFNE01.JPG,AFNE01.JPG,AFNE01.JPG,AFNE01.JPG,AFNE01.JPG,,,,,,,,,,,,,,,,,3,8,38,8,,,,,,,AFNE13.jpg,AFSA01.jpg,AFSA03.jpg,AFNE12.jpg,AFSA01.jpg,FS,4,num_6,16,num_6,0.683473400306,,,2017_Dec_08_1341,60.0097007433,FEMA4ImagesEEG,001,202496,
AFNE01.JPG,AFNE01.JPG,AFNE01.JPG,AFNE01.JPG,AFNE01.JPG,AFNE01.JPG,,,,,,,,,,,,,,,,,3,9,39,1,,,,,,,AFNE15.jpg,AFSA20.jpg,AFNE01.jpg,AFSA15.jpg,AFSA15.jpg,FS,4,num_4,32,num_8,0.516798394267,,,2017_Dec_08_1341,60.0097007433,FEMA4ImagesEEG,001,202496,
AFNE01.JPG,AFNE01.JPG,AFNE01.JPG,AFNE01.JPG,AFNE01.JPG,AFNE01.JPG,,,,,,,,,,,,,,,,,4,0,40,7,,,,,,,AFSA16.jpg,AFNE02.jpg,AFNE19.jpg,AFSA20.jpg,AFNE19.jpg,FN,3,num_2,32,num_4,0.866571855964,,,2017_Dec_08_1341,60.0097007433,FEMA4ImagesEEG,001,202496,
AFNE01.JPG,AFNE01.JPG,AFNE01.JPG,AFNE01.JPG,AFNE01.JPG,AFNE01.JPG,,,,,,,,,,,,,,,,,4,1,41,4,,,,,,,AFSA17.jpg,AFNE04.jpg,AFNE03.jpg,AFSA15.jpg,AFSA15.jpg,FS,4,num_4,16,num_4,0.86675114953,,,2017_Dec_08_1341,60.0097007433,FEMA4ImagesEEG,001,202496,
AFNE01.JPG,AFNE01.JPG,AFNE01.JPG,AFNE01.JPG,AFNE01.JPG,AFNE01.JPG,,,,,,,,,,,,,,,,,4,2,42,0,,,,,,,AFNE09.jpg,AFSA11.jpg,AFSA15.jpg,AFNE04.jpg,AFSA11.jpg,FS,4,num_6,16,num_6,0.88347256626,,,2017_Dec_08_1341,60.0097007433,FEMA4ImagesEEG,001,202496,
AFNE01.JPG,AFNE01.JPG,AFNE01.JPG,AFNE01.JPG,AFNE01.JPG,AFNE01.JPG,,,,,,,,,,,,,,,,,4,3,43,9,,,,,,,AFSA11.jpg,AFNE11.jpg,AFNE08.jpg,AFSA17.jpg,AFSA17.jpg,FS,4,num_4,32,num_6,1.91670242907,,,2017_Dec_08_1341,60.0097007433,FEMA4ImagesEEG,001,202496,
AFNE01.JPG,AFNE01.JPG,AFNE01.JPG,AFNE01.JPG,AFNE01.JPG,AFNE01.JPG,,,,,,,,,,,,,,,,,4,4,44,6,,,,,,,AFSA18.jpg,AFNE12.jpg,AFNE09.jpg,AFSA05.jpg,AFNE09.jpg,FN,3,num_2,32,num_8,3.21655636444,,,2017_Dec_08_1341,60.0097007433,FEMA4ImagesEEG,001,202496,
AFNE01.JPG,AFNE01.JPG,AFNE01.JPG,AFNE01.JPG,AFNE01.JPG,AFNE01.JPG,,,,,,,,,,,,,,,,,4,5,45,8,,,,,,,AFSA06.jpg,AFSA17.jpg,AFNE01.jpg,AFNE11.jpg,AFSA17.jpg,FS,4,num_6,16,num_6,0.583340549842,,,2017_Dec_08_1341,60.0097007433,FEMA4ImagesEEG,001,202496,
AFNE01.JPG,AFNE01.JPG,AFNE01.JPG,AFNE01.JPG,AFNE01.JPG,AFNE01.JPG,,,,,,,,,,,,,,,,,4,6,46,2,,,,,,,AFSA18.jpg,AFSA01.jpg,AFNE18.jpg,AFNE02.jpg,AFNE18.jpg,FN,3,num_2,16,num_2,1.05011068704,,,2017_Dec_08_1341,60.0097007433,FEMA4ImagesEEG,001,202496,
AFNE01.JPG,AFNE01.JPG,AFNE01.JPG,AFNE01.JPG,AFNE01.JPG,AFNE01.JPG,,,,,,,,,,,,,,,,,4,7,47,3,,,,,,,AFSA07.jpg,AFNE09.jpg,AFSA17.jpg,AFNE02.jpg,AFNE09.jpg,FN,3,num_6,16,num_6,0.566769239027,,,2017_Dec_08_1341,60.0097007433,FEMA4ImagesEEG,001,202496,
AFNE01.JPG,AFNE01.JPG,AFNE01.JPG,AFNE01.JPG,AFNE01.JPG,AFNE01.JPG,,,,,,,,,,,,,,,,,4,8,48,5,,,,,,,AFNE19.jpg,AFSA20.jpg,AFNE14.jpg,AFSA09.jpg,AFNE19.jpg,FN,3,num_8,32,num_6,0.950088171056,,,2017_Dec_08_1341,60.0097007433,FEMA4ImagesEEG,001,202496,
AFNE01.JPG,AFNE01.JPG,AFNE01.JPG,AFNE01.JPG,AFNE01.JPG,AFNE01.JPG,,,,,,,,,,,,,,,,,4,9,49,1,,,,,,,AFSA15.jpg,AFNE08.jpg,AFNE19.jpg,AFSA06.jpg,AFSA15.jpg,FS,4,num_8,16,num_8,0.900134646334,,,2017_Dec_08_1341,60.0097007433,FEMA4ImagesEEG,001,202496,
AFNE01.JPG,AFNE01.JPG,AFNE01.JPG,AFNE01.JPG,AFNE01.JPG,AFNE01.JPG,,,,,,,,,,,,,,,,,5,0,50,2,,,,,,,AFNE09.jpg,AFNE07.jpg,AFSA15.jpg,AFSA06.jpg,AFNE09.jpg,FN,3,num_8,32,num_2,2.43330196524,,,2017_Dec_08_1341,60.0097007433,FEMA4ImagesEEG,001,202496,
AFNE01.JPG,AFNE01.JPG,AFNE01.JPG,AFNE01.JPG,AFNE01.JPG,AFNE01.JPG,,,,,,,,,,,,,,,,,5,1,51,7,,,,,,,AFSA05.jpg,AFNE13.jpg,AFNE05.jpg,AFSA20.jpg,AFNE05.jpg,FN,3,num_2,32,num_4,1.01682886458,,,2017_Dec_08_1341,60.0097007433,FEMA4ImagesEEG,001,202496,
AFNE01.JPG,AFNE01.JPG,AFNE01.JPG,AFNE01.JPG,AFNE01.JPG,AFNE01.JPG,,,,,,,,,,,,,,,,,5,2,52,4,,,,,,,AFSA01.jpg,AFNE18.jpg,AFNE11.jpg,AFSA20.jpg,AFSA01.jpg,FS,4,num_8,32,num_6,0.600126114674,,,2017_Dec_08_1341,60.0097007433,FEMA4ImagesEEG,001,202496,
AFNE01.JPG,AFNE01.JPG,AFNE01.JPG,AFNE01.JPG,AFNE01.JPG,AFNE01.JPG,,,,,,,,,,,,,,,,,5,3,53,1,,,,,,,AFSA02.jpg,AFSA18.jpg,AFNE17.jpg,AFNE05.jpg,AFSA02.jpg,FS,4,num_8,32,num_4,0.866608420387,,,2017_Dec_08_1341,60.0097007433,FEMA4ImagesEEG,001,202496,
AFNE01.JPG,AFNE01.JPG,AFNE01.JPG,AFNE01.JPG,AFNE01.JPG,AFNE01.JPG,,,,,,,,,,,,,,,,,5,4,54,9,,,,,,,AFSA07.jpg,AFNE14.jpg,AFNE02.jpg,AFSA16.jpg,AFSA16.jpg,FS,4,num_4,16,num_4,0.483464291086,,,2017_Dec_08_1341,60.0097007433,FEMA4ImagesEEG,001,202496,
AFNE01.JPG,AFNE01.JPG,AFNE01.JPG,AFNE01.JPG,AFNE01.JPG,AFNE01.JPG,,,,,,,,,,,,,,,,,5,5,55,3,,,,,,,AFSA05.jpg,AFNE04.jpg,AFNE14.jpg,AFSA12.jpg,AFSA12.jpg,FS,4,num_4,32,num_8,0.700171082281,,,2017_Dec_08_1341,60.0097007433,FEMA4ImagesEEG,001,202496,
AFNE01.JPG,AFNE01.JPG,AFNE01.JPG,AFNE01.JPG,AFNE01.JPG,AFNE01.JPG,,,,,,,,,,,,,,,,,5,6,56,5,,,,,,,AFSA09.jpg,AFNE14.jpg,AFNE20.jpg,AFSA20.jpg,AFSA20.jpg,FS,4,num_4,32,num_6,0.600134774577,,,2017_Dec_08_1341,60.0097007433,FEMA4ImagesEEG,001,202496,
AFNE01.JPG,AFNE01.JPG,AFNE01.JPG,AFNE01.JPG,AFNE01.JPG,AFNE01.JPG,,,,,,,,,,,,,,,,,5,7,57,6,,,,,,,AFSA05.jpg,AFNE19.jpg,AFNE02.jpg,AFSA19.jpg,AFNE02.jpg,FN,3,num_2,32,num_4,0.466813116334,,,2017_Dec_08_1341,60.0097007433,FEMA4ImagesEEG,001,202496,
AFNE01.JPG,AFNE01.JPG,AFNE01.JPG,AFNE01.JPG,AFNE01.JPG,AFNE01.JPG,,,,,,,,,,,,,,,,,5,8,58,0,,,,,,,AFNE03.jpg,AFNE07.jpg,AFSA16.jpg,AFSA07.jpg,AFNE03.jpg,FN,3,num_8,32,num_6,0.850126275094,,,2017_Dec_08_1341,60.0097007433,FEMA4ImagesEEG,001,202496,
AFNE01.JPG,AFNE01.JPG,AFNE01.JPG,AFNE01.JPG,AFNE01.JPG,AFNE01.JPG,,,,,,,,,,,,,,,,,5,9,59,8,,,,,,,AFSA20.jpg,AFSA05.jpg,AFNE15.jpg,AFNE08.jpg,AFNE15.jpg,FN,3,num_2,16,num_2,0.866757884854,,,2017_Dec_08_1341,60.0097007433,FEMA4ImagesEEG,001,202496,
,,,,,,,,,,,,,,,,,,,,,,,,,,,,,,,,,,,,,,,,,,,space,15.0821615127,2017_Dec_08_1341,60.0097007433,FEMA4ImagesEEG,001,202496,
AFNE01.JPG,AFNE01.JPG,AFNE01.JPG,AFNE01.JPG,AFNE01.JPG,AFNE01.JPG,,,,,,,,,,,,,,,,,,,,,0,0,0,6,,,AMNE04.jpg,AMNE17.jpg,AMSA01.jpg,AMSA14.jpg,AMNE04.jpg,MN,1,num_8,32,num_4,0.750137436902,,,2017_Dec_08_1341,60.0097007433,FEMA4ImagesEEG,001,202496,
AFNE01.JPG,AFNE01.JPG,AFNE01.JPG,AFNE01.JPG,AFNE01.JPG,AFNE01.JPG,,,,,,,,,,,,,,,,,,,,,0,1,1,9,,,AMNE18.jpg,AMNE08.jpg,AMSA11.jpg,AMSA14.jpg,AMNE18.jpg,MN,1,num_8,16,num_8,0.716775429202,,,2017_Dec_08_1341,60.0097007433,FEMA4ImagesEEG,001,202496,
AFNE01.JPG,AFNE01.JPG,AFNE01.JPG,AFNE01.JPG,AFNE01.JPG,AFNE01.JPG,,,,,,,,,,,,,,,,,,,,,0,2,2,8,,,AMNE15.jpg,AMSA09.jpg,AMNE20.jpg,AMSA20.jpg,AMSA20.jpg,MS,2,num_4,32,num_2,0.850118577247,,,2017_Dec_08_1341,60.0097007433,FEMA4ImagesEEG,001,202496,
AFNE01.JPG,AFNE01.JPG,AFNE01.JPG,AFNE01.JPG,AFNE01.JPG,AFNE01.JPG,,,,,,,,,,,,,,,,,,,,,0,3,3,1,,,AMSA20.jpg,AMNE14.jpg,AMNE18.jpg,AMSA11.jpg,AMSA20.jpg,MS,2,num_8,32,num_4,0.683476928389,,,2017_Dec_08_1341,60.0097007433,FEMA4ImagesEEG,001,202496,
AFNE01.JPG,AFNE01.JPG,AFNE01.JPG,AFNE01.JPG,AFNE01.JPG,AFNE01.JPG,,,,,,,,,,,,,,,,,,,,,0,4,4,3,,,AMNE14.jpg,AMSA19.jpg,AMSA17.jpg,AMNE01.jpg,AMNE01.jpg,MN,1,num_4,32,num_6,0.683453193633,,,2017_Dec_08_1341,60.0097007433,FEMA4ImagesEEG,001,202496,
AFNE01.JPG,AFNE01.JPG,AFNE01.JPG,AFNE01.JPG,AFNE01.JPG,AFNE01.JPG,,,,,,,,,,,,,,,,,,,,,0,5,5,5,,,AMNE01.jpg,AMSA12.jpg,AMSA17.jpg,AMNE15.jpg,AMSA17.jpg,MS,2,num_2,32,num_4,0.666900485521,,,2017_Dec_08_1341,60.0097007433,FEMA4ImagesEEG,001,202496,
AFNE01.JPG,AFNE01.JPG,AFNE01.JPG,AFNE01.JPG,AFNE01.JPG,AFNE01.JPG,,,,,,,,,,,,,,,,,,,,,0,6,6,0,,,AMSA11.jpg,AMNE02.jpg,AMNE11.jpg,AMSA03.jpg,AMSA11.jpg,MS,2,num_8,32,num_4,0.716815200867,,,2017_Dec_08_1341,60.0097007433,FEMA4ImagesEEG,001,202496,
AFNE01.JPG,AFNE01.JPG,AFNE01.JPG,AFNE01.JPG,AFNE01.JPG,AFNE01.JPG,,,,,,,,,,,,,,,,,,,,,0,7,7,2,,,AMNE01.jpg,AMSA13.jpg,AMSA01.jpg,AMNE10.jpg,AMSA13.jpg,MS,2,num_6,16,num_6,1.01673617098,,,2017_Dec_08_1341,60.0097007433,FEMA4ImagesEEG,001,202496,
AFNE01.JPG,AFNE01.JPG,AFNE01.JPG,AFNE01.JPG,AFNE01.JPG,AFNE01.JPG,,,,,,,,,,,,,,,,,,,,,0,8,8,7,,,AMSA05.jpg,AMNE01.jpg,AMSA18.jpg,AMNE05.jpg,AMSA05.jpg,MS,2,num_8,32,num_4,0.500127333449,,,2017_Dec_08_1341,60.0097007433,FEMA4ImagesEEG,001,202496,
AFNE01.JPG,AFNE01.JPG,AFNE01.JPG,AFNE01.JPG,AFNE01.JPG,AFNE01.JPG,,,,,,,,,,,,,,,,,,,,,0,9,9,4,,,AMNE12.jpg,AMSA20.jpg,AMNE10.jpg,AMSA14.jpg,AMNE12.jpg,MN,1,num_8,16,num_8,0.716732771136,,,2017_Dec_08_1341,60.0097007433,FEMA4ImagesEEG,001,202496,
AFNE01.JPG,AFNE01.JPG,AFNE01.JPG,AFNE01.JPG,AFNE01.JPG,AFNE01.JPG,,,,,,,,,,,,,,,,,,,,,1,0,10,6,,,AMSA11.jpg,AMNE11.jpg,AMSA18.jpg,AMNE14.jpg,AMSA18.jpg,MS,2,num_2,16,num_2,0.666831205832,,,2017_Dec_08_1341,60.0097007433,FEMA4ImagesEEG,001,202496,
AFNE01.JPG,AFNE01.JPG,AFNE01.JPG,AFNE01.JPG,AFNE01.JPG,AFNE01.JPG,,,,,,,,,,,,,,,,,,,,,1,1,11,2,,,AMNE17.jpg,AMSA19.jpg,AMSA16.jpg,AMNE09.jpg,AMNE17.jpg,MN,1,num_8,16,num_8,0.583452808671,,,2017_Dec_08_1341,60.0097007433,FEMA4ImagesEEG,001,202496,
AFNE01.JPG,AFNE01.JPG,AFNE01.JPG,AFNE01.JPG,AFNE01.JPG,AFNE01.JPG,,,,,,,,,,,,,,,,,,,,,1,2,12,7,,,AMNE03.jpg,AMNE18.jpg,AMSA19.jpg,AMSA06.jpg,AMSA19.jpg,MS,2,num_2,32,num_4,0.666776359314,,,2017_Dec_08_1341,60.0097007433,FEMA4ImagesEEG,001,202496,
AFNE01.JPG,AFNE01.JPG,AFNE01.JPG,AFNE01.JPG,AFNE01.JPG,AFNE01.JPG,,,,,,,,,,,,,,,,,,,,,1,3,13,3,,,AMSA16.jpg,AMNE11.jpg,AMSA15.jpg,AMNE05.jpg,AMSA16.jpg,MS,2,num_8,16,num_8,2.10022875108,,,2017_Dec_08_1341,60.0097007433,FEMA4ImagesEEG,001,202496,
AFNE01.JPG,AFNE01.JPG,AFNE01.JPG,AFNE01.JPG,AFNE01.JPG,AFNE01.JPG,,,,,,,,,,,,,,,,,,,,,1,4,14,1,,,AMSA09.jpg,AMNE08.jpg,AMNE20.jpg,AMSA01.jpg,AMNE08.jpg,MN,1,num_6,16,num_6,0.716730525717,,,2017_Dec_08_1341,60.0097007433,FEMA4ImagesEEG,001,202496,
AFNE01.JPG,AFNE01.JPG,AFNE01.JPG,AFNE01.JPG,AFNE01.JPG,AFNE01.JPG,,,,,,,,,,,,,,,,,,,,,1,5,15,5,,,AMSA12.jpg,AMNE14.jpg,AMSA13.jpg,AMNE20.jpg,AMNE20.jpg,MN,1,num_4,32,num_8,0.750128776766,,,2017_Dec_08_1341,60.0097007433,FEMA4ImagesEEG,001,202496,
AFNE01.JPG,AFNE01.JPG,AFNE01.JPG,AFNE01.JPG,AFNE01.JPG,AFNE01.JPG,,,,,,,,,,,,,,,,,,,,,1,6,16,4,,,AMNE04.jpg,AMSA13.jpg,AMNE12.jpg,AMSA11.jpg,AMNE04.jpg,MN,1,num_8,32,num_6,0.633486518404,,,2017_Dec_08_1341,60.0097007433,FEMA4ImagesEEG,001,202496,
AFNE01.JPG,AFNE01.JPG,AFNE01.JPG,AFNE01.JPG,AFNE01.JPG,AFNE01.JPG,,,,,,,,,,,,,,,,,,,,,1,7,17,9,,,AMNE10.jpg,AMNE04.jpg,AMSA19.jpg,AMSA16.jpg,AMSA19.jpg,MS,2,num_2,16,num_2,0.85012723715,,,2017_Dec_08_1341,60.0097007433,FEMA4ImagesEEG,001,202496,
AFNE01.JPG,AFNE01.JPG,AFNE01.JPG,AFNE01.JPG,AFNE01.JPG,AFNE01.JPG,,,,,,,,,,,,,,,,,,,,,1,8,18,0,,,AMSA13.jpg,AMNE11.jpg,AMSA01.jpg,AMNE09.jpg,AMSA13.jpg,MS,2,num_8,16,num_8,0.633564457996,,,2017_Dec_08_1341,60.0097007433,FEMA4ImagesEEG,001,202496,
AFNE01.JPG,AFNE01.JPG,AFNE01.JPG,AFNE01.JPG,AFNE01.JPG,AFNE01.JPG,,,,,,,,,,,,,,,,,,,,,1,9,19,8,,,AMNE14.jpg,AMSA04.jpg,AMNE08.jpg,AMSA10.jpg,AMNE08.jpg,MN,1,num_2,32,num_4,0.666708362754,,,2017_Dec_08_1341,60.0097007433,FEMA4ImagesEEG,001,202496,
AFNE01.JPG,AFNE01.JPG,AFNE01.JPG,AFNE01.JPG,AFNE01.JPG,AFNE01.JPG,,,,,,,,,,,,,,,,,,,,,2,0,20,3,,,AMNE09.jpg,AMSA09.jpg,AMSA18.jpg,AMNE02.jpg,AMNE02.jpg,MN,1,num_4,32,num_6,0.683493606746,,,2017_Dec_08_1341,60.0097007433,FEMA4ImagesEEG,001,202496,
AFNE01.JPG,AFNE01.JPG,AFNE01.JPG,AFNE01.JPG,AFNE01.JPG,AFNE01.JPG,,,,,,,,,,,,,,,,,,,,,2,1,21,1,,,AMSA17.jpg,AMNE08.jpg,AMNE01.jpg,AMSA16.jpg,AMSA17.jpg,MS,2,num_8,16,num_8,0.516500748228,,,2017_Dec_08_1341,60.0097007433,FEMA4ImagesEEG,001,202496,
AFNE01.JPG,AFNE01.JPG,AFNE01.JPG,AFNE01.JPG,AFNE01.JPG,AFNE01.JPG,,,,,,,,,,,,,,,,,,,,,2,2,22,8,,,AMSA14.jpg,AMSA04.jpg,AMNE18.jpg,AMNE01.jpg,AMSA14.jpg,MS,2,num_8,32,num_6,1.35009740852,,,2017_Dec_08_1341,60.0097007433,FEMA4ImagesEEG,001,202496,
AFNE01.JPG,AFNE01.JPG,AFNE01.JPG,AFNE01.JPG,AFNE01.JPG,AFNE01.JPG,,,,,,,,,,,,,,,,,,,,,2,3,23,5,,,AMNE16.jpg,AMNE14.jpg,AMSA07.jpg,AMSA19.jpg,AMSA07.jpg,MS,2,num_2,32,num_8,1.18344934471,,,2017_Dec_08_1341,60.0097007433,FEMA4ImagesEEG,001,202496,
AFNE01.JPG,AFNE01.JPG,AFNE01.JPG,AFNE01.JPG,AFNE01.JPG,AFNE01.JPG,,,,,,,,,,,,,,,,,,,,,2,4,24,9,,,AMSA08.jpg,AMNE12.jpg,AMNE17.jpg,AMSA13.jpg,AMSA13.jpg,MS,2,num_4,32,num_6,1.06674422137,,,2017_Dec_08_1341,60.0097007433,FEMA4ImagesEEG,001,202496,
AFNE01.JPG,AFNE01.JPG,AFNE01.JPG,AFNE01.JPG,AFNE01.JPG,AFNE01.JPG,,,,,,,,,,,,,,,,,,,,,2,5,25,6,,,AMNE06.jpg,AMSA20.jpg,AMSA09.jpg,AMNE01.jpg,AMSA09.jpg,MS,2,num_2,32,num_8,1.11678466666,,,2017_Dec_08_1341,60.0097007433,FEMA4ImagesEEG,001,202496,
AFNE01.JPG,AFNE01.JPG,AFNE01.JPG,AFNE01.JPG,AFNE01.JPG,AFNE01.JPG,,,,,,,,,,,,,,,,,,,,,2,6,26,7,,,AMSA19.jpg,AMSA13.jpg,AMNE10.jpg,AMNE16.jpg,AMNE10.jpg,MN,1,num_2,32,num_6,0.983454669127,,,2017_Dec_08_1341,60.0097007433,FEMA4ImagesEEG,001,202496,
AFNE01.JPG,AFNE01.JPG,AFNE01.JPG,AFNE01.JPG,AFNE01.JPG,AFNE01.JPG,,,,,,,,,,,,,,,,,,,,,2,7,27,0,,,AMSA15.jpg,AMNE15.jpg,AMNE02.jpg,AMSA01.jpg,AMSA01.jpg,MS,2,num_4,32,num_2,1.00010199496,,,2017_Dec_08_1341,60.0097007433,FEMA4ImagesEEG,001,202496,
AFNE01.JPG,AFNE01.JPG,AFNE01.JPG,AFNE01.JPG,AFNE01.JPG,AFNE01.JPG,,,,,,,,,,,,,,,,,,,,,2,8,28,4,,,AMNE05.jpg,AMNE12.jpg,AMSA16.jpg,AMSA08.jpg,AMNE05.jpg,MN,1,num_8,32,num_6,1.01674771728,,,2017_Dec_08_1341,60.0097007433,FEMA4ImagesEEG,001,202496,
AFNE01.JPG,AFNE01.JPG,AFNE01.JPG,AFNE01.JPG,AFNE01.JPG,AFNE01.JPG,,,,,,,,,,,,,,,,,,,,,2,9,29,2,,,AMNE02.jpg,AMNE19.jpg,AMSA07.jpg,AMSA18.jpg,AMNE19.jpg,MN,1,num_6,16,num_6,0.883398796199,,,2017_Dec_08_1341,60.0097007433,FEMA4ImagesEEG,001,202496,
AFNE01.JPG,AFNE01.JPG,AFNE01.JPG,AFNE01.JPG,AFNE01.JPG,AFNE01.JPG,,,,,,,,,,,,,,,,,,,,,3,0,30,1,,,AMSA16.jpg,AMNE08.jpg,AMNE09.jpg,AMSA07.jpg,AMNE09.jpg,MN,1,num_2,16,num_2,0.383463906357,,,2017_Dec_08_1341,60.0097007433,FEMA4ImagesEEG,001,202496,
AFNE01.JPG,AFNE01.JPG,AFNE01.JPG,AFNE01.JPG,AFNE01.JPG,AFNE01.JPG,,,,,,,,,,,,,,,,,,,,,3,1,31,4,,,AMNE18.jpg,AMSA16.jpg,AMNE19.jpg,AMSA05.jpg,AMSA05.jpg,MS,2,num_4,16,num_4,0.516795186792,,,2017_Dec_08_1341,60.0097007433,FEMA4ImagesEEG,001,202496,
AFNE01.JPG,AFNE01.JPG,AFNE01.JPG,AFNE01.JPG,AFNE01.JPG,AFNE01.JPG,,,,,,,,,,,,,,,,,,,,,3,2,32,8,,,AMSA09.jpg,AMSA13.jpg,AMNE17.jpg,AMNE01.jpg,AMSA09.jpg,MS,2,num_8,32,num_6,3.99956764351,,,2017_Dec_08_1341,60.0097007433,FEMA4ImagesEEG,001,202496,
AFNE01.JPG,AFNE01.JPG,AFNE01.JPG,AFNE01.JPG,AFNE01.JPG,AFNE01.JPG,,,,,,,,,,,,,,,,,,,,,3,3,33,6,,,AMSA04.jpg,AMSA11.jpg,AMNE02.jpg,AMNE09.jpg,AMSA11.jpg,MS,2,num_6,32,num_8,0.6834333078,,,2017_Dec_08_1341,60.0097007433,FEMA4ImagesEEG,001,202496,
AFNE01.JPG,AFNE01.JPG,AFNE01.JPG,AFNE01.JPG,AFNE01.JPG,AFNE01.JPG,,,,,,,,,,,,,,,,,,,,,3,4,34,0,,,AMNE14.jpg,AMSA18.jpg,AMSA16.jpg,AMNE20.jpg,AMNE20.jpg,MN,1,num_4,16,num_4,0.766767763533,,,2017_Dec_08_1341,60.0097007433,FEMA4ImagesEEG,001,202496,
AFNE01.JPG,AFNE01.JPG,AFNE01.JPG,AFNE01.JPG,AFNE01.JPG,AFNE01.JPG,,,,,,,,,,,,,,,,,,,,,3,5,35,5,,,AMSA01.jpg,AMNE11.jpg,AMSA18.jpg,AMNE14.jpg,AMNE14.jpg,MN,1,num_4,32,num_6,0.633449312532,,,2017_Dec_08_1341,60.0097007433,FEMA4ImagesEEG,001,202496,
AFNE01.JPG,AFNE01.JPG,AFNE01.JPG,AFNE01.JPG,AFNE01.JPG,AFNE01.JPG,,,,,,,,,,,,,,,,,,,,,3,6,36,2,,,AMNE06.jpg,AMNE16.jpg,AMSA11.jpg,AMSA09.jpg,AMNE16.jpg,MN,1,num_6,16,num_6,0.933454957791,,,2017_Dec_08_1341,60.0097007433,FEMA4ImagesEEG,001,202496,
AFNE01.JPG,AFNE01.JPG,AFNE01.JPG,AFNE01.JPG,AFNE01.JPG,AFNE01.JPG,,,,,,,,,,,,,,,,,,,,,3,7,37,3,,,AMSA20.jpg,AMSA17.jpg,AMNE20.jpg,AMNE05.jpg,AMNE05.jpg,MN,1,num_4,16,num_4,0.716758109396,,,2017_Dec_08_1341,60.0097007433,FEMA4ImagesEEG,001,202496,
AFNE01.JPG,AFNE01.JPG,AFNE01.JPG,AFNE01.JPG,AFNE01.JPG,AFNE01.JPG,,,,,,,,,,,,,,,,,,,,,3,8,38,7,,,AMSA18.jpg,AMNE14.jpg,AMSA05.jpg,AMNE18.jpg,AMNE18.jpg,MN,1,num_4,32,num_6,1.00009878771,,,2017_Dec_08_1341,60.0097007433,FEMA4ImagesEEG,001,202496,
