IPosition2,IPosition3,IPosition1,IPosition6,IPosition4,IPosition5,TrialsM1.thisRepN,TrialsM1.thisTrialN,TrialsM1.thisN,TrialsM1.thisIndex,TrialsF1.thisRepN,TrialsF1.thisTrialN,TrialsF1.thisN,TrialsF1.thisIndex,TrialsM2.thisRepN,TrialsM2.thisTrialN,TrialsM2.thisN,TrialsM2.thisIndex,TrialsF2.thisRepN,TrialsF2.thisTrialN,TrialsF2.thisN,TrialsF2.thisIndex,TrialsM3.thisRepN,TrialsM3.thisTrialN,TrialsM3.thisN,TrialsM3.thisIndex,TrialsF3.thisRepN,TrialsF3.thisTrialN,TrialsF3.thisN,TrialsF3.thisIndex,InstrKey_resp.keys,InstrKey_resp.rt,Image0 _Position,Image1 _Position,Image2 _Position,Image3 _Position,Center_image,condition,code,correct_answer,accuracy,Key_Resp.keys,Key_Resp.rt,BreakKey_resp.keys,BreakKey_resp.rt,date,frameRate,expName,session,participant,
,,,,,,,,,,,,,,,,,,,,,,,,,,,,,,space,15.2659793866,,,,,,,,,,,,,,2017_Dec_11_1746,59.9964207777,MAFE4ImagesEEG,001,202491,
AFSA25.JPG,AFNE24.JPG,AFSA24.JPG,AFNE21.JPG,AFSA21.JPG,AFNE25.JPG,0,0,0,2,,,,,,,,,,,,,,,,,,,,,,,AMSA03.jpg,AMNE03.jpg,AMNE15.jpg,AMSA05.jpg,AMNE03.jpg,MN,1,num_6,32,num_8,0.950113830389,,,2017_Dec_11_1746,59.9964207777,MAFE4ImagesEEG,001,202491,
AMNE22.JPG,AMSA24.JPG,AMSA22.JPG,AMNE25.JPG,AMNE24.JPG,AMSA25.JPG,0,1,1,7,,,,,,,,,,,,,,,,,,,,,,,AMSA19.jpg,AMNE06.jpg,AMSA06.jpg,AMNE18.jpg,AMNE18.jpg,MN,1,num_4,16,num_4,0.583491618047,,,2017_Dec_11_1746,59.9964207777,MAFE4ImagesEEG,001,202491,
AMSA21.JPG,AMNE23.JPG,AMNE21.JPG,AMSA25.JPG,AMNE25.JPG,AMSA23.JPG,0,2,2,5,,,,,,,,,,,,,,,,,,,,,,,AMNE06.jpg,AMSA19.jpg,AMNE10.jpg,AMSA09.jpg,AMSA19.jpg,MS,2,num_6,32,num_4,0.833440460265,,,2017_Dec_11_1746,59.9964207777,MAFE4ImagesEEG,001,202491,
AFSA21.JPG,AFNE22.JPG,AFNE21.JPG,AFSA23.JPG,AFSA22.JPG,AFNE23.JPG,0,3,3,0,,,,,,,,,,,,,,,,,,,,,,,AMNE12.jpg,AMSA19.jpg,AMSA18.jpg,AMNE15.jpg,AMSA19.jpg,MS,2,num_6,32,num_8,0.666757756611,,,2017_Dec_11_1746,59.9964207777,MAFE4ImagesEEG,001,202491,
AMSA21.JPG,AMNE22.JPG,AMNE21.JPG,AMSA23.JPG,AMSA22.JPG,AMNE23.JPG,0,4,4,1,,,,,,,,,,,,,,,,,,,,,,,AMNE11.jpg,AMNE16.jpg,AMSA14.jpg,AMSA03.jpg,AMNE16.jpg,MN,1,num_6,16,num_6,1.76664235466,,,2017_Dec_11_1746,59.9964207777,MAFE4ImagesEEG,001,202491,
AMSA25.JPG,AMNE24.JPG,AMSA24.JPG,AMNE26.JPG,AMSA21.JPG,AMNE25.JPG,0,5,5,3,,,,,,,,,,,,,,,,,,,,,,,AMSA15.jpg,AMSA05.jpg,AMNE18.jpg,AMNE17.jpg,AMSA05.jpg,MS,2,num_6,32,num_8,0.633454444353,,,2017_Dec_11_1746,59.9964207777,MAFE4ImagesEEG,001,202491,
AMNE23.JPG,AMNE24.JPG,AMNE22.JPG,AMSA24.JPG,AMSA22.JPG,AMSA23.JPG,0,6,6,9,,,,,,,,,,,,,,,,,,,,,,,AMSA10.jpg,AMSA19.jpg,AMNE08.jpg,AMNE19.jpg,AMSA19.jpg,MS,2,num_6,16,num_6,1.68335729255,,,2017_Dec_11_1746,59.9964207777,MAFE4ImagesEEG,001,202491,
AFNE23.JPG,AFNE24.JPG,AFNE22.JPG,AFSA24.JPG,AFSA22.JPG,AFSA23.JPG,0,7,7,8,,,,,,,,,,,,,,,,,,,,,,,AMSA11.jpg,AMSA15.jpg,AMNE15.jpg,AMNE04.jpg,AMNE04.jpg,MN,1,num_4,32,num_8,0.550164571265,,,2017_Dec_11_1746,59.9964207777,MAFE4ImagesEEG,001,202491,
AFSA21.JPG,AFNE23.JPG,AFNE21.JPG,AFSA25.JPG,AFNE25.JPG,AFSA23.JPG,0,8,8,4,,,,,,,,,,,,,,,,,,,,,,,AMNE01.jpg,AMNE12.jpg,AMSA16.jpg,AMSA17.jpg,AMNE01.jpg,MN,1,num_8,16,num_8,0.533449248411,,,2017_Dec_11_1746,59.9964207777,MAFE4ImagesEEG,001,202491,
AFNE22.JPG,AFSA24.JPG,AFSA22.JPG,AFNE25.JPG,AFNE24.JPG,AFSA25.JPG,0,9,9,6,,,,,,,,,,,,,,,,,,,,,,,AMSA10.jpg,AMNE16.jpg,AMSA20.jpg,AMNE15.jpg,AMSA20.jpg,MS,2,num_2,32,num_8,0.533474266296,,,2017_Dec_11_1746,59.9964207777,MAFE4ImagesEEG,001,202491,
AMSA21.JPG,AMNE23.JPG,AMNE21.JPG,AMSA25.JPG,AMNE25.JPG,AMSA23.JPG,,,,,0,0,0,5,,,,,,,,,,,,,,,,,,,AFNE19.jpg,AFSA04.jpg,AFNE02.jpg,AFSA13.jpg,AFNE19.jpg,FN,3,num_8,32,num_6,0.533458229154,,,2017_Dec_11_1746,59.9964207777,MAFE4ImagesEEG,001,202491,
AFSA25.JPG,AFNE24.JPG,AFSA24.JPG,AFNE21.JPG,AFSA21.JPG,AFNE25.JPG,,,,,0,1,1,2,,,,,,,,,,,,,,,,,,,AFNE09.jpg,AFSA01.jpg,AFSA18.jpg,AFNE06.jpg,AFSA01.jpg,FS,4,num_6,16,num_6,0.583460185677,,,2017_Dec_11_1746,59.9964207777,MAFE4ImagesEEG,001,202491,
AFSA21.JPG,AFNE22.JPG,AFNE21.JPG,AFSA23.JPG,AFSA22.JPG,AFNE23.JPG,,,,,0,2,2,0,,,,,,,,,,,,,,,,,,,AFSA11.jpg,AFSA04.jpg,AFNE12.jpg,AFNE01.jpg,AFSA11.jpg,FS,4,num_8,16,num_8,0.650171370944,,,2017_Dec_11_1746,59.9964207777,MAFE4ImagesEEG,001,202491,
AFSA21.JPG,AFNE23.JPG,AFNE21.JPG,AFSA25.JPG,AFNE25.JPG,AFSA23.JPG,,,,,0,3,3,4,,,,,,,,,,,,,,,,,,,AFNE06.jpg,AFSA15.jpg,AFSA20.jpg,AFNE16.jpg,AFSA15.jpg,FS,4,num_6,32,num_8,0.566775012296,,,2017_Dec_11_1746,59.9964207777,MAFE4ImagesEEG,001,202491,
AMSA21.JPG,AMNE22.JPG,AMNE21.JPG,AMSA23.JPG,AMSA22.JPG,AMNE23.JPG,,,,,0,4,4,1,,,,,,,,,,,,,,,,,,,AFNE20.jpg,AFSA07.jpg,AFSA15.jpg,AFNE11.jpg,AFNE20.jpg,FN,3,num_8,16,num_8,0.600152415223,,,2017_Dec_11_1746,59.9964207777,MAFE4ImagesEEG,001,202491,
AMNE22.JPG,AMSA24.JPG,AMSA22.JPG,AMNE25.JPG,AMNE24.JPG,AMSA25.JPG,,,,,0,5,5,7,,,,,,,,,,,,,,,,,,,AFNE04.jpg,AFSA13.jpg,AFSA04.jpg,AFNE03.jpg,AFNE04.jpg,FN,3,num_8,16,num_8,0.533462078078,,,2017_Dec_11_1746,59.9964207777,MAFE4ImagesEEG,001,202491,
AFNE22.JPG,AFSA24.JPG,AFSA22.JPG,AFNE25.JPG,AFNE24.JPG,AFSA25.JPG,,,,,0,6,6,6,,,,,,,,,,,,,,,,,,,AFSA08.jpg,AFNE19.jpg,AFSA04.jpg,AFNE01.jpg,AFSA04.jpg,FS,4,num_2,32,num_8,0.35012723715,,,2017_Dec_11_1746,59.9964207777,MAFE4ImagesEEG,001,202491,
AFNE23.JPG,AFNE24.JPG,AFNE22.JPG,AFSA24.JPG,AFSA22.JPG,AFSA23.JPG,,,,,0,7,7,8,,,,,,,,,,,,,,,,,,,AFNE06.jpg,AFSA06.jpg,AFSA12.jpg,AFNE08.jpg,AFNE08.jpg,FN,3,num_4,32,num_8,0.533558299765,,,2017_Dec_11_1746,59.9964207777,MAFE4ImagesEEG,001,202491,
AMNE23.JPG,AMNE24.JPG,AMNE22.JPG,AMSA24.JPG,AMSA22.JPG,AMSA23.JPG,,,,,0,8,8,9,,,,,,,,,,,,,,,,,,,AFNE13.jpg,AFNE16.jpg,AFSA18.jpg,AFSA06.jpg,AFNE16.jpg,FN,3,num_6,16,num_6,1.46672812034,,,2017_Dec_11_1746,59.9964207777,MAFE4ImagesEEG,001,202491,
AMSA25.JPG,AMNE24.JPG,AMSA24.JPG,AMNE26.JPG,AMSA21.JPG,AMNE25.JPG,,,,,0,9,9,3,,,,,,,,,,,,,,,,,,,AFNE20.jpg,AFNE01.jpg,AFSA14.jpg,AFSA08.jpg,AFSA08.jpg,FS,4,num_4,32,num_8,0.666685590288,,,2017_Dec_11_1746,59.9964207777,MAFE4ImagesEEG,001,202491,
AFNE22.JPG,AFSA24.JPG,AFSA22.JPG,AFNE25.JPG,AFNE24.JPG,AFSA25.JPG,,,,,,,,,0,0,0,6,,,,,,,,,,,,,,,AMNE08.jpg,AMSA17.jpg,AMNE19.jpg,AMSA14.jpg,AMSA17.jpg,MS,2,num_6,16,num_6,0.766783479834,,,2017_Dec_11_1746,59.9964207777,MAFE4ImagesEEG,001,202491,
AFSA21.JPG,AFNE22.JPG,AFNE21.JPG,AFSA23.JPG,AFSA22.JPG,AFNE23.JPG,,,,,,,,,0,1,1,0,,,,,,,,,,,,,,,AMSA17.jpg,AMNE10.jpg,AMSA07.jpg,AMNE01.jpg,AMNE10.jpg,MN,1,num_6,32,num_2,1.30015286431,,,2017_Dec_11_1746,59.9964207777,MAFE4ImagesEEG,001,202491,
AMNE23.JPG,AMNE24.JPG,AMNE22.JPG,AMSA24.JPG,AMSA22.JPG,AMSA23.JPG,,,,,,,,,0,2,2,9,,,,,,,,,,,,,,,AMNE18.jpg,AMSA17.jpg,AMSA08.jpg,AMNE13.jpg,AMSA17.jpg,MS,2,num_6,16,num_6,0.700151837897,,,2017_Dec_11_1746,59.9964207777,MAFE4ImagesEEG,001,202491,
AMSA21.JPG,AMNE22.JPG,AMNE21.JPG,AMSA23.JPG,AMSA22.JPG,AMNE23.JPG,,,,,,,,,0,3,3,1,,,,,,,,,,,,,,,AMSA10.jpg,AMSA07.jpg,AMNE10.jpg,AMNE01.jpg,AMSA10.jpg,MS,2,num_8,32,num_4,0.350203573238,,,2017_Dec_11_1746,59.9964207777,MAFE4ImagesEEG,001,202491,
AMNE22.JPG,AMSA24.JPG,AMSA22.JPG,AMNE25.JPG,AMNE24.JPG,AMSA25.JPG,,,,,,,,,0,4,4,7,,,,,,,,,,,,,,,AMSA16.jpg,AMNE13.jpg,AMNE19.jpg,AMSA18.jpg,AMSA18.jpg,MS,2,num_4,32,num_6,0.266813308699,,,2017_Dec_11_1746,59.9964207777,MAFE4ImagesEEG,001,202491,
AFNE23.JPG,AFNE24.JPG,AFNE22.JPG,AFSA24.JPG,AFSA22.JPG,AFSA23.JPG,,,,,,,,,0,5,5,8,,,,,,,,,,,,,,,AMNE18.jpg,AMNE19.jpg,AMSA16.jpg,AMSA09.jpg,AMSA16.jpg,MS,2,num_2,32,num_4,0.516772093717,,,2017_Dec_11_1746,59.9964207777,MAFE4ImagesEEG,001,202491,
AMSA25.JPG,AMNE24.JPG,AMSA24.JPG,AMNE26.JPG,AMSA21.JPG,AMNE25.JPG,,,,,,,,,0,6,6,3,,,,,,,,,,,,,,,AMNE17.jpg,AMSA19.jpg,AMNE06.jpg,AMSA06.jpg,AMNE17.jpg,MN,1,num_8,16,num_8,0.550132176606,,,2017_Dec_11_1746,59.9964207777,MAFE4ImagesEEG,001,202491,
AFSA21.JPG,AFNE23.JPG,AFNE21.JPG,AFSA25.JPG,AFNE25.JPG,AFSA23.JPG,,,,,,,,,0,7,7,4,,,,,,,,,,,,,,,AMNE09.jpg,AMSA04.jpg,AMNE20.jpg,AMSA14.jpg,AMSA04.jpg,MS,2,num_6,32,num_2,0.616794609465,,,2017_Dec_11_1746,59.9964207777,MAFE4ImagesEEG,001,202491,
AFSA25.JPG,AFNE24.JPG,AFSA24.JPG,AFNE21.JPG,AFSA21.JPG,AFNE25.JPG,,,,,,,,,0,8,8,2,,,,,,,,,,,,,,,AMSA08.jpg,AMNE12.jpg,AMNE11.jpg,AMSA16.jpg,AMNE11.jpg,MN,1,num_2,32,num_8,0.35015482083,,,2017_Dec_11_1746,59.9964207777,MAFE4ImagesEEG,001,202491,
AMSA21.JPG,AMNE23.JPG,AMNE21.JPG,AMSA25.JPG,AMNE25.JPG,AMSA23.JPG,,,,,,,,,0,9,9,5,,,,,,,,,,,,,,,AMNE11.jpg,AMSA03.jpg,AMNE12.jpg,AMSA13.jpg,AMNE11.jpg,MN,1,num_8,32,num_6,0.683367876802,,,2017_Dec_11_1746,59.9964207777,MAFE4ImagesEEG,001,202491,
AMNE22.JPG,AMSA24.JPG,AMSA22.JPG,AMNE25.JPG,AMNE24.JPG,AMSA25.JPG,,,,,,,,,,,,,0,0,0,7,,,,,,,,,,,AFSA08.jpg,AFNE17.jpg,AFNE10.jpg,AFSA12.jpg,AFNE17.jpg,FN,3,num_6,32,num_8,0.550175155513,,,2017_Dec_11_1746,59.9964207777,MAFE4ImagesEEG,001,202491,
AMSA21.JPG,AMNE22.JPG,AMNE21.JPG,AMSA23.JPG,AMSA22.JPG,AMNE23.JPG,,,,,,,,,,,,,0,1,1,1,,,,,,,,,,,AFSA07.jpg,AFNE13.jpg,AFSA04.jpg,AFNE11.jpg,AFNE11.jpg,FN,3,num_4,16,num_4,0.550163288135,,,2017_Dec_11_1746,59.9964207777,MAFE4ImagesEEG,001,202491,
AMNE23.JPG,AMNE24.JPG,AMNE22.JPG,AMSA24.JPG,AMSA22.JPG,AMSA23.JPG,,,,,,,,,,,,,0,2,2,9,,,,,,,,,,,AFNE07.jpg,AFSA06.jpg,AFSA03.jpg,AFNE04.jpg,AFSA06.jpg,FS,4,num_6,16,num_6,0.38348892401,,,2017_Dec_11_1746,59.9964207777,MAFE4ImagesEEG,001,202491,
AFNE22.JPG,AFSA24.JPG,AFSA22.JPG,AFNE25.JPG,AFNE24.JPG,AFSA25.JPG,,,,,,,,,,,,,0,3,3,6,,,,,,,,,,,AFSA02.jpg,AFSA16.jpg,AFNE18.jpg,AFNE09.jpg,AFNE09.jpg,FN,3,num_4,32,num_8,0.450141093228,,,2017_Dec_11_1746,59.9964207777,MAFE4ImagesEEG,001,202491,
AFSA21.JPG,AFNE23.JPG,AFNE21.JPG,AFSA25.JPG,AFNE25.JPG,AFSA23.JPG,,,,,,,,,,,,,0,4,4,4,,,,,,,,,,,AFSA01.jpg,AFNE10.jpg,AFNE03.jpg,AFSA12.jpg,AFNE10.jpg,FN,3,num_6,32,num_4,0.400104176253,,,2017_Dec_11_1746,59.9964207777,MAFE4ImagesEEG,001,202491,
AFSA21.JPG,AFNE22.JPG,AFNE21.JPG,AFSA23.JPG,AFSA22.JPG,AFNE23.JPG,,,,,,,,,,,,,0,5,5,0,,,,,,,,,,,AFNE11.jpg,AFNE01.jpg,AFSA17.jpg,AFSA08.jpg,AFSA17.jpg,FS,4,num_2,16,num_2,0.633479462238,,,2017_Dec_11_1746,59.9964207777,MAFE4ImagesEEG,001,202491,
AMSA25.JPG,AMNE24.JPG,AMSA24.JPG,AMNE26.JPG,AMSA21.JPG,AMNE25.JPG,,,,,,,,,,,,,0,6,6,3,,,,,,,,,,,AFSA05.jpg,AFNE15.jpg,AFNE08.jpg,AFSA14.jpg,AFNE08.jpg,FN,3,num_2,32,num_8,0.233500374248,,,2017_Dec_11_1746,59.9964207777,MAFE4ImagesEEG,001,202491,
AFSA25.JPG,AFNE24.JPG,AFSA24.JPG,AFNE21.JPG,AFSA21.JPG,AFNE25.JPG,,,,,,,,,,,,,0,7,7,2,,,,,,,,,,,AFSA15.jpg,AFSA02.jpg,AFNE18.jpg,AFNE12.jpg,AFSA15.jpg,FS,4,num_8,32,num_2,0.250134870876,,,2017_Dec_11_1746,59.9964207777,MAFE4ImagesEEG,001,202491,
AMSA21.JPG,AMNE23.JPG,AMNE21.JPG,AMSA25.JPG,AMNE25.JPG,AMSA23.JPG,,,,,,,,,,,,,0,8,8,5,,,,,,,,,,,AFNE11.jpg,AFNE04.jpg,AFSA07.jpg,AFSA01.jpg,AFNE11.jpg,FN,3,num_8,32,num_4,0.466762118507,,,2017_Dec_11_1746,59.9964207777,MAFE4ImagesEEG,001,202491,
AFNE23.JPG,AFNE24.JPG,AFNE22.JPG,AFSA24.JPG,AFSA22.JPG,AFSA23.JPG,,,,,,,,,,,,,0,9,9,8,,,,,,,,,,,AFNE02.jpg,AFNE08.jpg,AFSA02.jpg,AFSA05.jpg,AFSA05.jpg,FS,4,num_4,16,num_4,0.633506404003,,,2017_Dec_11_1746,59.9964207777,MAFE4ImagesEEG,001,202491,
AFSA21.JPG,AFNE22.JPG,AFNE21.JPG,AFSA23.JPG,AFSA22.JPG,AFNE23.JPG,,,,,,,,,,,,,,,,,0,0,0,0,,,,,,,AMNE16.jpg,AMSA08.jpg,AMSA18.jpg,AMNE12.jpg,AMNE12.jpg,MN,1,num_4,32,num_2,0.400160626043,,,2017_Dec_11_1746,59.9964207777,MAFE4ImagesEEG,001,202491,
AMSA21.JPG,AMNE22.JPG,AMNE21.JPG,AMSA23.JPG,AMSA22.JPG,AMNE23.JPG,,,,,,,,,,,,,,,,,0,1,1,1,,,,,,,AMSA09.jpg,AMNE01.jpg,AMSA06.jpg,AMNE03.jpg,AMSA06.jpg,MS,2,num_2,32,num_6,0.250135512091,,,2017_Dec_11_1746,59.9964207777,MAFE4ImagesEEG,001,202491,
AFNE22.JPG,AFSA24.JPG,AFSA22.JPG,AFNE25.JPG,AFNE24.JPG,AFSA25.JPG,,,,,,,,,,,,,,,,,0,2,2,6,,,,,,,AMSA18.jpg,AMSA02.jpg,AMNE01.jpg,AMNE11.jpg,AMSA18.jpg,MS,2,num_8,32,num_2,0.31684765988,,,2017_Dec_11_1746,59.9964207777,MAFE4ImagesEEG,001,202491,
AMNE23.JPG,AMNE24.JPG,AMNE22.JPG,AMSA24.JPG,AMSA22.JPG,AMSA23.JPG,,,,,,,,,,,,,,,,,0,3,3,9,,,,,,,AMNE08.jpg,AMSA19.jpg,AMSA09.jpg,AMNE05.jpg,AMSA19.jpg,MS,2,num_6,32,num_8,0.266822930658,,,2017_Dec_11_1746,59.9964207777,MAFE4ImagesEEG,001,202491,
AFSA25.JPG,AFNE24.JPG,AFSA24.JPG,AFNE21.JPG,AFSA21.JPG,AFNE25.JPG,,,,,,,,,,,,,,,,,0,4,4,2,,,,,,,AMSA01.jpg,AMNE14.jpg,AMNE02.jpg,AMSA07.jpg,AMNE14.jpg,MN,1,num_6,16,num_6,0.483486422105,,,2017_Dec_11_1746,59.9964207777,MAFE4ImagesEEG,001,202491,
AMNE22.JPG,AMSA24.JPG,AMSA22.JPG,AMNE25.JPG,AMNE24.JPG,AMSA25.JPG,,,,,,,,,,,,,,,,,0,5,5,7,,,,,,,AMSA13.jpg,AMNE17.jpg,AMNE20.jpg,AMSA09.jpg,AMSA09.jpg,MS,2,num_4,16,num_4,0.533451814437,,,2017_Dec_11_1746,59.9964207777,MAFE4ImagesEEG,001,202491,
AMSA21.JPG,AMNE23.JPG,AMNE21.JPG,AMSA25.JPG,AMNE25.JPG,AMSA23.JPG,,,,,,,,,,,,,,,,,0,6,6,5,,,,,,,AMSA11.jpg,AMNE01.jpg,AMNE04.jpg,AMSA04.jpg,AMNE01.jpg,MN,1,num_6,32,num_8,0.283477954566,,,2017_Dec_11_1746,59.9964207777,MAFE4ImagesEEG,001,202491,
AFSA21.JPG,AFNE23.JPG,AFNE21.JPG,AFSA25.JPG,AFNE25.JPG,AFSA23.JPG,,,,,,,,,,,,,,,,,0,7,7,4,,,,,,,AMSA12.jpg,AMNE11.jpg,AMSA05.jpg,AMNE18.jpg,AMSA12.jpg,MS,2,num_8,32,num_6,1.0001366348,,,2017_Dec_11_1746,59.9964207777,MAFE4ImagesEEG,001,202491,
AFNE23.JPG,AFNE24.JPG,AFNE22.JPG,AFSA24.JPG,AFSA22.JPG,AFSA23.JPG,,,,,,,,,,,,,,,,,0,8,8,8,,,,,,,AMNE14.jpg,AMNE11.jpg,AMSA11.jpg,AMSA02.jpg,AMNE14.jpg,MN,1,num_8,16,num_8,0.600135736866,,,2017_Dec_11_1746,59.9964207777,MAFE4ImagesEEG,001,202491,
AMSA25.JPG,AMNE24.JPG,AMSA24.JPG,AMNE26.JPG,AMSA21.JPG,AMNE25.JPG,,,,,,,,,,,,,,,,,0,9,9,3,,,,,,,AMNE10.jpg,AMSA05.jpg,AMNE08.jpg,AMSA19.jpg,AMSA19.jpg,MS,2,num_4,16,num_4,0.533473945456,,,2017_Dec_11_1746,59.9964207777,MAFE4ImagesEEG,001,202491,
AFNE23.JPG,AFNE24.JPG,AFNE22.JPG,AFSA24.JPG,AFSA22.JPG,AFSA23.JPG,,,,,,,,,,,,,,,,,,,,,0,0,0,8,,,AFNE05.jpg,AFSA02.jpg,AFSA14.jpg,AFNE15.jpg,AFNE05.jpg,FN,3,num_8,16,num_8,0.500200141221,,,2017_Dec_11_1746,59.9964207777,MAFE4ImagesEEG,001,202491,
AMNE22.JPG,AMSA24.JPG,AMSA22.JPG,AMNE25.JPG,AMNE24.JPG,AMSA25.JPG,,,,,,,,,,,,,,,,,,,,,0,1,1,7,,,AFSA07.jpg,AFSA18.jpg,AFNE19.jpg,AFNE10.jpg,AFSA18.jpg,FS,4,num_6,32,num_4,0.31664142455,,,2017_Dec_11_1746,59.9964207777,MAFE4ImagesEEG,001,202491,
AFNE22.JPG,AFSA24.JPG,AFSA22.JPG,AFNE25.JPG,AFNE24.JPG,AFSA25.JPG,,,,,,,,,,,,,,,,,,,,,0,2,2,6,,,AFSA06.jpg,AFSA13.jpg,AFNE10.jpg,AFNE12.jpg,AFSA06.jpg,FS,4,num_8,16,num_8,0.316768757999,,,2017_Dec_11_1746,59.9964207777,MAFE4ImagesEEG,001,202491,
AFSA25.JPG,AFNE24.JPG,AFSA24.JPG,AFNE21.JPG,AFSA21.JPG,AFNE25.JPG,,,,,,,,,,,,,,,,,,,,,0,3,3,2,,,AFNE13.jpg,AFSA19.jpg,AFSA08.jpg,AFNE03.jpg,AFNE03.jpg,FN,3,num_4,32,num_6,0.350147764431,,,2017_Dec_11_1746,59.9964207777,MAFE4ImagesEEG,001,202491,
AMSA25.JPG,AMNE24.JPG,AMSA24.JPG,AMNE26.JPG,AMSA21.JPG,AMNE25.JPG,,,,,,,,,,,,,,,,,,,,,0,4,4,3,,,AFNE10.jpg,AFSA17.jpg,AFNE03.jpg,AFSA12.jpg,AFSA17.jpg,FS,4,num_6,32,num_4,0.56665184861,,,2017_Dec_11_1746,59.9964207777,MAFE4ImagesEEG,001,202491,
AFSA21.JPG,AFNE22.JPG,AFNE21.JPG,AFSA23.JPG,AFSA22.JPG,AFNE23.JPG,,,,,,,,,,,,,,,,,,,,,0,5,5,0,,,AFNE08.jpg,AFSA01.jpg,AFNE12.jpg,AFSA19.jpg,AFSA19.jpg,FS,4,num_4,16,num_4,0.46680894657,,,2017_Dec_11_1746,59.9964207777,MAFE4ImagesEEG,001,202491,
AMSA21.JPG,AMNE23.JPG,AMNE21.JPG,AMSA25.JPG,AMNE25.JPG,AMSA23.JPG,,,,,,,,,,,,,,,,,,,,,0,6,6,5,,,AFSA07.jpg,AFNE04.jpg,AFNE03.jpg,AFSA13.jpg,AFNE03.jpg,FN,3,num_2,32,num_4,0.400128552224,,,2017_Dec_11_1746,59.9964207777,MAFE4ImagesEEG,001,202491,
AFSA21.JPG,AFNE23.JPG,AFNE21.JPG,AFSA25.JPG,AFNE25.JPG,AFSA23.JPG,,,,,,,,,,,,,,,,,,,,,0,7,7,4,,,AFSA10.jpg,AFNE11.jpg,AFNE12.jpg,AFSA06.jpg,AFSA10.jpg,FS,4,num_8,16,num_8,0.600129322149,,,2017_Dec_11_1746,59.9964207777,MAFE4ImagesEEG,001,202491,
AMSA21.JPG,AMNE22.JPG,AMNE21.JPG,AMSA23.JPG,AMSA22.JPG,AMNE23.JPG,,,,,,,,,,,,,,,,,,,,,0,8,8,1,,,AFNE17.jpg,AFNE09.jpg,AFSA08.jpg,AFSA09.jpg,AFNE17.jpg,FN,3,num_8,32,num_6,0.383658594918,,,2017_Dec_11_1746,59.9964207777,MAFE4ImagesEEG,001,202491,
AMNE23.JPG,AMNE24.JPG,AMNE22.JPG,AMSA24.JPG,AMSA22.JPG,AMSA23.JPG,,,,,,,,,,,,,,,,,,,,,0,9,9,9,,,AFNE19.jpg,AFSA01.jpg,AFSA18.jpg,AFNE01.jpg,AFSA01.jpg,FS,4,num_6,32,num_8,0.266808176646,,,2017_Dec_11_1746,59.9964207777,MAFE4ImagesEEG,001,202491,
,,,,,,,,,,,,,,,,,,,,,,,,,,,,,,,,,,,,,,,,,,,space,12.4658332579,2017_Dec_11_1746,59.9964207777,MAFE4ImagesEEG,001,202491,
AFNE01.JPG,AFNE01.JPG,AFNE01.JPG,AFNE01.JPG,AFNE01.JPG,AFNE01.JPG,0,0,0,7,,,,,,,,,,,,,,,,,,,,,,,AMNE09.jpg,AMNE03.jpg,AMSA06.jpg,AMSA07.jpg,AMNE09.jpg,MN,1,num_8,16,num_8,0.53346656845,,,2017_Dec_11_1746,59.9964207777,MAFE4ImagesEEG,001,202491,
AFNE01.JPG,AFNE01.JPG,AFNE01.JPG,AFNE01.JPG,AFNE01.JPG,AFNE01.JPG,0,1,1,4,,,,,,,,,,,,,,,,,,,,,,,AMSA12.jpg,AMSA18.jpg,AMNE14.jpg,AMNE15.jpg,AMSA18.jpg,MS,2,num_6,32,num_8,0.516788451467,,,2017_Dec_11_1746,59.9964207777,MAFE4ImagesEEG,001,202491,
AFNE01.JPG,AFNE01.JPG,AFNE01.JPG,AFNE01.JPG,AFNE01.JPG,AFNE01.JPG,0,2,2,5,,,,,,,,,,,,,,,,,,,,,,,AMNE05.jpg,AMNE20.jpg,AMSA15.jpg,AMSA11.jpg,AMNE05.jpg,MN,1,num_8,16,num_8,0.500164859928,,,2017_Dec_11_1746,59.9964207777,MAFE4ImagesEEG,001,202491,
AFNE01.JPG,AFNE01.JPG,AFNE01.JPG,AFNE01.JPG,AFNE01.JPG,AFNE01.JPG,0,3,3,8,,,,,,,,,,,,,,,,,,,,,,,AMNE03.jpg,AMSA16.jpg,AMSA01.jpg,AMNE18.jpg,AMNE18.jpg,MN,1,num_4,16,num_4,0.333496589679,,,2017_Dec_11_1746,59.9964207777,MAFE4ImagesEEG,001,202491,
AFNE01.JPG,AFNE01.JPG,AFNE01.JPG,AFNE01.JPG,AFNE01.JPG,AFNE01.JPG,0,4,4,2,,,,,,,,,,,,,,,,,,,,,,,AMSA06.jpg,AMSA03.jpg,AMNE09.jpg,AMNE12.jpg,AMSA03.jpg,MS,2,num_6,16,num_6,0.266808176879,,,2017_Dec_11_1746,59.9964207777,MAFE4ImagesEEG,001,202491,
AFNE01.JPG,AFNE01.JPG,AFNE01.JPG,AFNE01.JPG,AFNE01.JPG,AFNE01.JPG,0,5,5,3,,,,,,,,,,,,,,,,,,,,,,,AMSA03.jpg,AMNE13.jpg,AMNE05.jpg,AMSA01.jpg,AMSA01.jpg,MS,2,num_4,16,num_4,0.283474105876,,,2017_Dec_11_1746,59.9964207777,MAFE4ImagesEEG,001,202491,
AFNE01.JPG,AFNE01.JPG,AFNE01.JPG,AFNE01.JPG,AFNE01.JPG,AFNE01.JPG,0,6,6,6,,,,,,,,,,,,,,,,,,,,,,,AMNE11.jpg,AMNE12.jpg,AMSA10.jpg,AMSA20.jpg,AMSA10.jpg,MS,2,num_2,32,num_6,0.283530235058,,,2017_Dec_11_1746,59.9964207777,MAFE4ImagesEEG,001,202491,
AFNE01.JPG,AFNE01.JPG,AFNE01.JPG,AFNE01.JPG,AFNE01.JPG,AFNE01.JPG,0,7,7,9,,,,,,,,,,,,,,,,,,,,,,,AMNE16.jpg,AMNE14.jpg,AMSA17.jpg,AMSA01.jpg,AMNE16.jpg,MN,1,num_8,16,num_8,0.550193437841,,,2017_Dec_11_1746,59.9964207777,MAFE4ImagesEEG,001,202491,
AFNE01.JPG,AFNE01.JPG,AFNE01.JPG,AFNE01.JPG,AFNE01.JPG,AFNE01.JPG,0,8,8,1,,,,,,,,,,,,,,,,,,,,,,,AMNE11.jpg,AMSA14.jpg,AMNE15.jpg,AMSA08.jpg,AMSA14.jpg,MS,2,num_6,32,num_8,0.883493093541,,,2017_Dec_11_1746,59.9964207777,MAFE4ImagesEEG,001,202491,
AFNE01.JPG,AFNE01.JPG,AFNE01.JPG,AFNE01.JPG,AFNE01.JPG,AFNE01.JPG,0,9,9,0,,,,,,,,,,,,,,,,,,,,,,,AMSA18.jpg,AMNE04.jpg,AMSA07.jpg,AMNE18.jpg,AMSA07.jpg,MS,2,num_2,32,num_8,0.583484882489,,,2017_Dec_11_1746,59.9964207777,MAFE4ImagesEEG,001,202491,
AFNE01.JPG,AFNE01.JPG,AFNE01.JPG,AFNE01.JPG,AFNE01.JPG,AFNE01.JPG,1,0,10,0,,,,,,,,,,,,,,,,,,,,,,,AMNE15.jpg,AMSA06.jpg,AMNE05.jpg,AMSA01.jpg,AMNE05.jpg,MN,1,num_2,32,num_4,0.516786847496,,,2017_Dec_11_1746,59.9964207777,MAFE4ImagesEEG,001,202491,
AFNE01.JPG,AFNE01.JPG,AFNE01.JPG,AFNE01.JPG,AFNE01.JPG,AFNE01.JPG,1,1,11,4,,,,,,,,,,,,,,,,,,,,,,,AMNE06.jpg,AMSA02.jpg,AMSA05.jpg,AMNE12.jpg,AMSA02.jpg,MS,2,num_6,32,num_8,0.483472951222,,,2017_Dec_11_1746,59.9964207777,MAFE4ImagesEEG,001,202491,
AFNE01.JPG,AFNE01.JPG,AFNE01.JPG,AFNE01.JPG,AFNE01.JPG,AFNE01.JPG,1,2,12,1,,,,,,,,,,,,,,,,,,,,,,,AMSA12.jpg,AMNE20.jpg,AMSA11.jpg,AMNE17.jpg,AMNE20.jpg,MN,1,num_6,16,num_6,0.366798939416,,,2017_Dec_11_1746,59.9964207777,MAFE4ImagesEEG,001,202491,
AFNE01.JPG,AFNE01.JPG,AFNE01.JPG,AFNE01.JPG,AFNE01.JPG,AFNE01.JPG,1,3,13,8,,,,,,,,,,,,,,,,,,,,,,,AMNE05.jpg,AMSA20.jpg,AMNE16.jpg,AMSA05.jpg,AMNE05.jpg,MN,1,num_8,32,num_6,0.533458549762,,,2017_Dec_11_1746,59.9964207777,MAFE4ImagesEEG,001,202491,
AFNE01.JPG,AFNE01.JPG,AFNE01.JPG,AFNE01.JPG,AFNE01.JPG,AFNE01.JPG,1,4,14,3,,,,,,,,,,,,,,,,,,,,,,,AMNE11.jpg,AMSA09.jpg,AMNE01.jpg,AMSA16.jpg,AMSA09.jpg,MS,2,num_6,32,num_4,0.400173135102,,,2017_Dec_11_1746,59.9964207777,MAFE4ImagesEEG,001,202491,
AFNE01.JPG,AFNE01.JPG,AFNE01.JPG,AFNE01.JPG,AFNE01.JPG,AFNE01.JPG,1,5,15,5,,,,,,,,,,,,,,,,,,,,,,,AMSA06.jpg,AMSA12.jpg,AMNE04.jpg,AMNE02.jpg,AMSA12.jpg,MS,2,num_6,32,num_8,0.383518431801,,,2017_Dec_11_1746,59.9964207777,MAFE4ImagesEEG,001,202491,
AFNE01.JPG,AFNE01.JPG,AFNE01.JPG,AFNE01.JPG,AFNE01.JPG,AFNE01.JPG,1,6,16,6,,,,,,,,,,,,,,,,,,,,,,,AMSA07.jpg,AMSA05.jpg,AMNE07.jpg,AMNE17.jpg,AMSA07.jpg,MS,2,num_8,32,num_6,0.566788804019,,,2017_Dec_11_1746,59.9964207777,MAFE4ImagesEEG,001,202491,
AFNE01.JPG,AFNE01.JPG,AFNE01.JPG,AFNE01.JPG,AFNE01.JPG,AFNE01.JPG,1,7,17,7,,,,,,,,,,,,,,,,,,,,,,,AMSA07.jpg,AMSA20.jpg,AMNE12.jpg,AMNE07.jpg,AMSA07.jpg,MS,2,num_8,16,num_8,0.366806958104,,,2017_Dec_11_1746,59.9964207777,MAFE4ImagesEEG,001,202491,
AFNE01.JPG,AFNE01.JPG,AFNE01.JPG,AFNE01.JPG,AFNE01.JPG,AFNE01.JPG,1,8,18,2,,,,,,,,,,,,,,,,,,,,,,,AMSA03.jpg,AMNE01.jpg,AMNE13.jpg,AMSA10.jpg,AMSA10.jpg,MS,2,num_4,32,num_8,0.500188915292,,,2017_Dec_11_1746,59.9964207777,MAFE4ImagesEEG,001,202491,
AFNE01.JPG,AFNE01.JPG,AFNE01.JPG,AFNE01.JPG,AFNE01.JPG,AFNE01.JPG,1,9,19,9,,,,,,,,,,,,,,,,,,,,,,,AMSA16.jpg,AMSA11.jpg,AMNE10.jpg,AMNE07.jpg,AMSA16.jpg,MS,2,num_8,32,num_2,0.700213419972,,,2017_Dec_11_1746,59.9964207777,MAFE4ImagesEEG,001,202491,
AFNE01.JPG,AFNE01.JPG,AFNE01.JPG,AFNE01.JPG,AFNE01.JPG,AFNE01.JPG,2,0,20,3,,,,,,,,,,,,,,,,,,,,,,,AMSA01.jpg,AMNE12.jpg,AMNE13.jpg,AMSA19.jpg,AMNE12.jpg,MN,1,num_6,16,num_6,0.416818536585,,,2017_Dec_11_1746,59.9964207777,MAFE4ImagesEEG,001,202491,
AFNE01.JPG,AFNE01.JPG,AFNE01.JPG,AFNE01.JPG,AFNE01.JPG,AFNE01.JPG,2,1,21,2,,,,,,,,,,,,,,,,,,,,,,,AMSA03.jpg,AMNE13.jpg,AMSA12.jpg,AMNE17.jpg,AMSA12.jpg,MS,2,num_2,32,num_8,0.516762792133,,,2017_Dec_11_1746,59.9964207777,MAFE4ImagesEEG,001,202491,
AFNE01.JPG,AFNE01.JPG,AFNE01.JPG,AFNE01.JPG,AFNE01.JPG,AFNE01.JPG,2,2,22,6,,,,,,,,,,,,,,,,,,,,,,,AMNE10.jpg,AMSA19.jpg,AMSA16.jpg,AMNE18.jpg,AMNE18.jpg,MN,1,num_4,16,num_4,0.666782132816,,,2017_Dec_11_1746,59.9964207777,MAFE4ImagesEEG,001,202491,
AFNE01.JPG,AFNE01.JPG,AFNE01.JPG,AFNE01.JPG,AFNE01.JPG,AFNE01.JPG,2,3,23,1,,,,,,,,,,,,,,,,,,,,,,,AMSA03.jpg,AMNE11.jpg,AMSA04.jpg,AMNE12.jpg,AMSA04.jpg,MS,2,num_2,32,num_8,0.450128263794,,,2017_Dec_11_1746,59.9964207777,MAFE4ImagesEEG,001,202491,
AFNE01.JPG,AFNE01.JPG,AFNE01.JPG,AFNE01.JPG,AFNE01.JPG,AFNE01.JPG,2,4,24,4,,,,,,,,,,,,,,,,,,,,,,,AMSA11.jpg,AMSA02.jpg,AMNE05.jpg,AMNE12.jpg,AMSA02.jpg,MS,2,num_6,32,num_8,0.316792492755,,,2017_Dec_11_1746,59.9964207777,MAFE4ImagesEEG,001,202491,
AFNE01.JPG,AFNE01.JPG,AFNE01.JPG,AFNE01.JPG,AFNE01.JPG,AFNE01.JPG,2,5,25,0,,,,,,,,,,,,,,,,,,,,,,,AMSA19.jpg,AMNE16.jpg,AMSA20.jpg,AMNE12.jpg,AMNE16.jpg,MN,1,num_6,32,num_4,0.583517277148,,,2017_Dec_11_1746,59.9964207777,MAFE4ImagesEEG,001,202491,
AFNE01.JPG,AFNE01.JPG,AFNE01.JPG,AFNE01.JPG,AFNE01.JPG,AFNE01.JPG,2,6,26,9,,,,,,,,,,,,,,,,,,,,,,,AMNE17.jpg,AMSA02.jpg,AMNE08.jpg,AMSA19.jpg,AMSA19.jpg,MS,2,num_4,32,num_8,0.46680894657,,,2017_Dec_11_1746,59.9964207777,MAFE4ImagesEEG,001,202491,
AFNE01.JPG,AFNE01.JPG,AFNE01.JPG,AFNE01.JPG,AFNE01.JPG,AFNE01.JPG,2,7,27,8,,,,,,,,,,,,,,,,,,,,,,,AMNE16.jpg,AMSA20.jpg,AMSA18.jpg,AMNE13.jpg,AMSA18.jpg,MS,2,num_2,16,num_2,0.616810325766,,,2017_Dec_11_1746,59.9964207777,MAFE4ImagesEEG,001,202491,
AFNE01.JPG,AFNE01.JPG,AFNE01.JPG,AFNE01.JPG,AFNE01.JPG,AFNE01.JPG,2,8,28,7,,,,,,,,,,,,,,,,,,,,,,,AMSA09.jpg,AMNE11.jpg,AMNE07.jpg,AMSA03.jpg,AMNE11.jpg,MN,1,num_6,16,num_6,0.566768597579,,,2017_Dec_11_1746,59.9964207777,MAFE4ImagesEEG,001,202491,
AFNE01.JPG,AFNE01.JPG,AFNE01.JPG,AFNE01.JPG,AFNE01.JPG,AFNE01.JPG,2,9,29,5,,,,,,,,,,,,,,,,,,,,,,,AMSA15.jpg,AMNE19.jpg,AMNE14.jpg,AMSA14.jpg,AMSA15.jpg,MS,2,num_8,16,num_8,0.600152415223,,,2017_Dec_11_1746,59.9964207777,MAFE4ImagesEEG,001,202491,
AFNE01.JPG,AFNE01.JPG,AFNE01.JPG,AFNE01.JPG,AFNE01.JPG,AFNE01.JPG,3,0,30,8,,,,,,,,,,,,,,,,,,,,,,,AMNE19.jpg,AMSA03.jpg,AMSA14.jpg,AMNE15.jpg,AMNE19.jpg,MN,1,num_8,16,num_8,0.900091025978,,,2017_Dec_11_1746,59.9964207777,MAFE4ImagesEEG,001,202491,
AFNE01.JPG,AFNE01.JPG,AFNE01.JPG,AFNE01.JPG,AFNE01.JPG,AFNE01.JPG,3,1,31,3,,,,,,,,,,,,,,,,,,,,,,,AMNE06.jpg,AMSA18.jpg,AMNE12.jpg,AMSA20.jpg,AMSA20.jpg,MS,2,num_4,16,num_4,0.516835600138,,,2017_Dec_11_1746,59.9964207777,MAFE4ImagesEEG,001,202491,
AFNE01.JPG,AFNE01.JPG,AFNE01.JPG,AFNE01.JPG,AFNE01.JPG,AFNE01.JPG,3,2,32,6,,,,,,,,,,,,,,,,,,,,,,,AMNE08.jpg,AMSA01.jpg,AMNE12.jpg,AMSA08.jpg,AMNE08.jpg,MN,1,num_8,16,num_8,0.500129257794,,,2017_Dec_11_1746,59.9964207777,MAFE4ImagesEEG,001,202491,
AFNE01.JPG,AFNE01.JPG,AFNE01.JPG,AFNE01.JPG,AFNE01.JPG,AFNE01.JPG,3,3,33,9,,,,,,,,,,,,,,,,,,,,,,,AMNE02.jpg,AMSA04.jpg,AMNE03.jpg,AMSA11.jpg,AMSA04.jpg,MS,2,num_6,32,num_8,0.516877937596,,,2017_Dec_11_1746,59.9964207777,MAFE4ImagesEEG,001,202491,
AFNE01.JPG,AFNE01.JPG,AFNE01.JPG,AFNE01.JPG,AFNE01.JPG,AFNE01.JPG,3,4,34,0,,,,,,,,,,,,,,,,,,,,,,,AMSA16.jpg,AMSA10.jpg,AMNE08.jpg,AMNE19.jpg,AMNE19.jpg,MN,1,num_4,32,num_8,0.300120148808,,,2017_Dec_11_1746,59.9964207777,MAFE4ImagesEEG,001,202491,
AFNE01.JPG,AFNE01.JPG,AFNE01.JPG,AFNE01.JPG,AFNE01.JPG,AFNE01.JPG,3,5,35,5,,,,,,,,,,,,,,,,,,,,,,,AMSA02.jpg,AMNE10.jpg,AMNE02.jpg,AMSA01.jpg,AMSA02.jpg,MS,2,num_8,32,num_4,0.300168259768,,,2017_Dec_11_1746,59.9964207777,MAFE4ImagesEEG,001,202491,
AFNE01.JPG,AFNE01.JPG,AFNE01.JPG,AFNE01.JPG,AFNE01.JPG,AFNE01.JPG,3,6,36,1,,,,,,,,,,,,,,,,,,,,,,,AMNE10.jpg,AMSA14.jpg,AMNE01.jpg,AMSA18.jpg,AMSA18.jpg,MS,2,num_4,32,num_6,0.316850225674,,,2017_Dec_11_1746,59.9964207777,MAFE4ImagesEEG,001,202491,
AFNE01.JPG,AFNE01.JPG,AFNE01.JPG,AFNE01.JPG,AFNE01.JPG,AFNE01.JPG,3,7,37,7,,,,,,,,,,,,,,,,,,,,,,,AMNE01.jpg,AMSA14.jpg,AMSA17.jpg,AMNE16.jpg,AMSA17.jpg,MS,2,num_2,32,num_4,0.333551756805,,,2017_Dec_11_1746,59.9964207777,MAFE4ImagesEEG,001,202491,
AFNE01.JPG,AFNE01.JPG,AFNE01.JPG,AFNE01.JPG,AFNE01.JPG,AFNE01.JPG,3,8,38,4,,,,,,,,,,,,,,,,,,,,,,,AMNE16.jpg,AMNE18.jpg,AMSA09.jpg,AMSA11.jpg,AMNE16.jpg,MN,1,num_8,32,num_6,0.333445912693,,,2017_Dec_11_1746,59.9964207777,MAFE4ImagesEEG,001,202491,
AFNE01.JPG,AFNE01.JPG,AFNE01.JPG,AFNE01.JPG,AFNE01.JPG,AFNE01.JPG,3,9,39,2,,,,,,,,,,,,,,,,,,,,,,,AMNE15.jpg,AMSA11.jpg,AMNE12.jpg,AMSA13.jpg,AMNE15.jpg,MN,1,num_8,32,num_4,0.450130188139,,,2017_Dec_11_1746,59.9964207777,MAFE4ImagesEEG,001,202491,
AFNE01.JPG,AFNE01.JPG,AFNE01.JPG,AFNE01.JPG,AFNE01.JPG,AFNE01.JPG,4,0,40,5,,,,,,,,,,,,,,,,,,,,,,,AMSA05.jpg,AMNE15.jpg,AMNE11.jpg,AMSA15.jpg,AMSA15.jpg,MS,2,num_4,32,num_6,0.466787136393,,,2017_Dec_11_1746,59.9964207777,MAFE4ImagesEEG,001,202491,
AFNE01.JPG,AFNE01.JPG,AFNE01.JPG,AFNE01.JPG,AFNE01.JPG,AFNE01.JPG,4,1,41,3,,,,,,,,,,,,,,,,,,,,,,,AMNE08.jpg,AMNE15.jpg,AMSA10.jpg,AMSA15.jpg,AMSA15.jpg,MS,2,num_4,32,num_2,0.733512562467,,,2017_Dec_11_1746,59.9964207777,MAFE4ImagesEEG,001,202491,
AFNE01.JPG,AFNE01.JPG,AFNE01.JPG,AFNE01.JPG,AFNE01.JPG,AFNE01.JPG,4,2,42,6,,,,,,,,,,,,,,,,,,,,,,,AMNE12.jpg,AMSA04.jpg,AMSA11.jpg,AMNE02.jpg,AMNE02.jpg,MN,1,num_4,32,num_8,0.300156713231,,,2017_Dec_11_1746,59.9964207777,MAFE4ImagesEEG,001,202491,
AFNE01.JPG,AFNE01.JPG,AFNE01.JPG,AFNE01.JPG,AFNE01.JPG,AFNE01.JPG,4,3,43,0,,,,,,,,,,,,,,,,,,,,,,,AMNE17.jpg,AMSA12.jpg,AMNE15.jpg,AMSA03.jpg,AMNE17.jpg,MN,1,num_8,32,num_4,0.483477762202,,,2017_Dec_11_1746,59.9964207777,MAFE4ImagesEEG,001,202491,
AFNE01.JPG,AFNE01.JPG,AFNE01.JPG,AFNE01.JPG,AFNE01.JPG,AFNE01.JPG,4,4,44,8,,,,,,,,,,,,,,,,,,,,,,,AMSA16.jpg,AMSA17.jpg,AMNE12.jpg,AMNE10.jpg,AMSA16.jpg,MS,2,num_8,16,num_8,0.633462142199,,,2017_Dec_11_1746,59.9964207777,MAFE4ImagesEEG,001,202491,
AFNE01.JPG,AFNE01.JPG,AFNE01.JPG,AFNE01.JPG,AFNE01.JPG,AFNE01.JPG,4,5,45,7,,,,,,,,,,,,,,,,,,,,,,,AMSA06.jpg,AMNE19.jpg,AMNE11.jpg,AMSA11.jpg,AMNE11.jpg,MN,1,num_2,16,num_2,0.566796501866,,,2017_Dec_11_1746,59.9964207777,MAFE4ImagesEEG,001,202491,
AFNE01.JPG,AFNE01.JPG,AFNE01.JPG,AFNE01.JPG,AFNE01.JPG,AFNE01.JPG,4,6,46,4,,,,,,,,,,,,,,,,,,,,,,,AMSA01.jpg,AMNE14.jpg,AMNE18.jpg,AMSA12.jpg,AMSA01.jpg,MS,2,num_8,32,num_4,0.583714852575,,,2017_Dec_11_1746,59.9964207777,MAFE4ImagesEEG,001,202491,
AFNE01.JPG,AFNE01.JPG,AFNE01.JPG,AFNE01.JPG,AFNE01.JPG,AFNE01.JPG,4,7,47,9,,,,,,,,,,,,,,,,,,,,,,,AMSA01.jpg,AMNE15.jpg,AMNE05.jpg,AMSA05.jpg,AMSA05.jpg,MS,2,num_4,32,num_2,0.666788868373,,,2017_Dec_11_1746,59.9964207777,MAFE4ImagesEEG,001,202491,
AFNE01.JPG,AFNE01.JPG,AFNE01.JPG,AFNE01.JPG,AFNE01.JPG,AFNE01.JPG,4,8,48,2,,,,,,,,,,,,,,,,,,,,,,,AMNE19.jpg,AMSA20.jpg,AMNE09.jpg,AMSA01.jpg,AMSA01.jpg,MS,2,num_4,16,num_4,0.466761797899,,,2017_Dec_11_1746,59.9964207777,MAFE4ImagesEEG,001,202491,
AFNE01.JPG,AFNE01.JPG,AFNE01.JPG,AFNE01.JPG,AFNE01.JPG,AFNE01.JPG,4,9,49,1,,,,,,,,,,,,,,,,,,,,,,,AMNE08.jpg,AMSA03.jpg,AMNE02.jpg,AMSA18.jpg,AMNE02.jpg,MN,1,num_2,32,num_6,0.416813404765,,,2017_Dec_11_1746,59.9964207777,MAFE4ImagesEEG,001,202491,
AFNE01.JPG,AFNE01.JPG,AFNE01.JPG,AFNE01.JPG,AFNE01.JPG,AFNE01.JPG,5,0,50,3,,,,,,,,,,,,,,,,,,,,,,,AMNE17.jpg,AMSA04.jpg,AMNE08.jpg,AMSA02.jpg,AMNE17.jpg,MN,1,num_8,16,num_8,0.566815104801,,,2017_Dec_11_1746,59.9964207777,MAFE4ImagesEEG,001,202491,
AFNE01.JPG,AFNE01.JPG,AFNE01.JPG,AFNE01.JPG,AFNE01.JPG,AFNE01.JPG,5,1,51,2,,,,,,,,,,,,,,,,,,,,,,,AMSA01.jpg,AMNE19.jpg,AMSA04.jpg,AMNE15.jpg,AMSA01.jpg,MS,2,num_8,32,num_2,1.1167618942,,,2017_Dec_11_1746,59.9964207777,MAFE4ImagesEEG,001,202491,
AFNE01.JPG,AFNE01.JPG,AFNE01.JPG,AFNE01.JPG,AFNE01.JPG,AFNE01.JPG,5,2,52,0,,,,,,,,,,,,,,,,,,,,,,,AMSA13.jpg,AMNE20.jpg,AMNE05.jpg,AMSA01.jpg,AMSA01.jpg,MS,2,num_4,32,num_8,0.36682940973,,,2017_Dec_11_1746,59.9964207777,MAFE4ImagesEEG,001,202491,
AFNE01.JPG,AFNE01.JPG,AFNE01.JPG,AFNE01.JPG,AFNE01.JPG,AFNE01.JPG,5,3,53,8,,,,,,,,,,,,,,,,,,,,,,,AMNE05.jpg,AMNE06.jpg,AMSA05.jpg,AMSA02.jpg,AMNE05.jpg,MN,1,num_8,16,num_8,0.500198858324,,,2017_Dec_11_1746,59.9964207777,MAFE4ImagesEEG,001,202491,
AFNE01.JPG,AFNE01.JPG,AFNE01.JPG,AFNE01.JPG,AFNE01.JPG,AFNE01.JPG,5,4,54,1,,,,,,,,,,,,,,,,,,,,,,,AMSA09.jpg,AMNE19.jpg,AMSA10.jpg,AMNE05.jpg,AMNE19.jpg,MN,1,num_6,32,num_4,0.600111360662,,,2017_Dec_11_1746,59.9964207777,MAFE4ImagesEEG,001,202491,
AFNE01.JPG,AFNE01.JPG,AFNE01.JPG,AFNE01.JPG,AFNE01.JPG,AFNE01.JPG,5,5,55,4,,,,,,,,,,,,,,,,,,,,,,,AMNE12.jpg,AMSA02.jpg,AMSA16.jpg,AMNE08.jpg,AMSA02.jpg,MS,2,num_6,16,num_6,0.300143242115,,,2017_Dec_11_1746,59.9964207777,MAFE4ImagesEEG,001,202491,
AFNE01.JPG,AFNE01.JPG,AFNE01.JPG,AFNE01.JPG,AFNE01.JPG,AFNE01.JPG,5,6,56,6,,,,,,,,,,,,,,,,,,,,,,,AMNE13.jpg,AMSA01.jpg,AMNE10.jpg,AMSA03.jpg,AMNE10.jpg,MN,1,num_2,32,num_8,0.583474619081,,,2017_Dec_11_1746,59.9964207777,MAFE4ImagesEEG,001,202491,
AFNE01.JPG,AFNE01.JPG,AFNE01.JPG,AFNE01.JPG,AFNE01.JPG,AFNE01.JPG,5,7,57,9,,,,,,,,,,,,,,,,,,,,,,,AMNE07.jpg,AMSA08.jpg,AMNE17.jpg,AMSA12.jpg,AMSA12.jpg,MS,2,num_4,32,num_2,0.633490367094,,,2017_Dec_11_1746,59.9964207777,MAFE4ImagesEEG,001,202491,
AFNE01.JPG,AFNE01.JPG,AFNE01.JPG,AFNE01.JPG,AFNE01.JPG,AFNE01.JPG,5,8,58,5,,,,,,,,,,,,,,,,,,,,,,,AMSA01.jpg,AMSA12.jpg,AMNE06.jpg,AMNE10.jpg,AMSA01.jpg,MS,2,num_8,16,num_8,0.633485556347,,,2017_Dec_11_1746,59.9964207777,MAFE4ImagesEEG,001,202491,
AFNE01.JPG,AFNE01.JPG,AFNE01.JPG,AFNE01.JPG,AFNE01.JPG,AFNE01.JPG,5,9,59,7,,,,,,,,,,,,,,,,,,,,,,,AMSA03.jpg,AMNE13.jpg,AMNE16.jpg,AMSA06.jpg,AMNE13.jpg,MN,1,num_6,32,num_8,0.500169029459,,,2017_Dec_11_1746,59.9964207777,MAFE4ImagesEEG,001,202491,
,,,,,,,,,,,,,,,,,,,,,,,,,,,,,,,,,,,,,,,,,,,space,12.9324831178,2017_Dec_11_1746,59.9964207777,MAFE4ImagesEEG,001,202491,
AFNE01.JPG,AFNE01.JPG,AFNE01.JPG,AFNE01.JPG,AFNE01.JPG,AFNE01.JPG,,,,,0,0,0,3,,,,,,,,,,,,,,,,,,,AFSA06.jpg,AFNE06.jpg,AFNE12.jpg,AFSA14.jpg,AFSA14.jpg,FS,4,num_4,16,num_4,0.666777642444,,,2017_Dec_11_1746,59.9964207777,MAFE4ImagesEEG,001,202491,
AFNE01.JPG,AFNE01.JPG,AFNE01.JPG,AFNE01.JPG,AFNE01.JPG,AFNE01.JPG,,,,,0,1,1,7,,,,,,,,,,,,,,,,,,,AFSA13.jpg,AFNE06.jpg,AFSA11.jpg,AFNE20.jpg,AFSA11.jpg,FS,4,num_2,32,num_6,0.366790920962,,,2017_Dec_11_1746,59.9964207777,MAFE4ImagesEEG,001,202491,
AFNE01.JPG,AFNE01.JPG,AFNE01.JPG,AFNE01.JPG,AFNE01.JPG,AFNE01.JPG,,,,,0,2,2,1,,,,,,,,,,,,,,,,,,,AFSA14.jpg,AFSA13.jpg,AFNE20.jpg,AFNE17.jpg,AFSA13.jpg,FS,4,num_6,32,num_4,0.266796309501,,,2017_Dec_11_1746,59.9964207777,MAFE4ImagesEEG,001,202491,
AFNE01.JPG,AFNE01.JPG,AFNE01.JPG,AFNE01.JPG,AFNE01.JPG,AFNE01.JPG,,,,,0,3,3,0,,,,,,,,,,,,,,,,,,,AFNE20.jpg,AFNE19.jpg,AFSA10.jpg,AFSA14.jpg,AFSA14.jpg,FS,4,num_4,32,num_8,0.833444629796,,,2017_Dec_11_1746,59.9964207777,MAFE4ImagesEEG,001,202491,
AFNE01.JPG,AFNE01.JPG,AFNE01.JPG,AFNE01.JPG,AFNE01.JPG,AFNE01.JPG,,,,,0,4,4,9,,,,,,,,,,,,,,,,,,,AFNE10.jpg,AFSA17.jpg,AFNE02.jpg,AFSA13.jpg,AFNE02.jpg,FN,3,num_2,16,num_2,1.00010744762,,,2017_Dec_11_1746,59.9964207777,MAFE4ImagesEEG,001,202491,
AFNE01.JPG,AFNE01.JPG,AFNE01.JPG,AFNE01.JPG,AFNE01.JPG,AFNE01.JPG,,,,,0,5,5,2,,,,,,,,,,,,,,,,,,,AFSA07.jpg,AFNE18.jpg,AFNE11.jpg,AFSA05.jpg,AFNE18.jpg,FN,3,num_6,32,num_8,0.816771003185,,,2017_Dec_11_1746,59.9964207777,MAFE4ImagesEEG,001,202491,
AFNE01.JPG,AFNE01.JPG,AFNE01.JPG,AFNE01.JPG,AFNE01.JPG,AFNE01.JPG,,,,,0,6,6,6,,,,,,,,,,,,,,,,,,,AFNE08.jpg,AFSA08.jpg,AFNE04.jpg,AFSA16.jpg,AFSA08.jpg,FS,4,num_6,32,num_8,0.766779310303,,,2017_Dec_11_1746,59.9964207777,MAFE4ImagesEEG,001,202491,
AFNE01.JPG,AFNE01.JPG,AFNE01.JPG,AFNE01.JPG,AFNE01.JPG,AFNE01.JPG,,,,,0,7,7,8,,,,,,,,,,,,,,,,,,,AFNE10.jpg,AFSA18.jpg,AFNE20.jpg,AFSA11.jpg,AFSA11.jpg,FS,4,num_4,16,num_4,0.750144813675,,,2017_Dec_11_1746,59.9964207777,MAFE4ImagesEEG,001,202491,
AFNE01.JPG,AFNE01.JPG,AFNE01.JPG,AFNE01.JPG,AFNE01.JPG,AFNE01.JPG,,,,,0,8,8,5,,,,,,,,,,,,,,,,,,,AFNE03.jpg,AFNE08.jpg,AFSA01.jpg,AFSA16.jpg,AFNE08.jpg,FN,3,num_6,16,num_6,0.650138334837,,,2017_Dec_11_1746,59.9964207777,MAFE4ImagesEEG,001,202491,
AFNE01.JPG,AFNE01.JPG,AFNE01.JPG,AFNE01.JPG,AFNE01.JPG,AFNE01.JPG,,,,,0,9,9,4,,,,,,,,,,,,,,,,,,,AFSA03.jpg,AFNE20.jpg,AFNE07.jpg,AFSA18.jpg,AFSA18.jpg,FS,4,num_4,32,num_6,0.400247867219,,,2017_Dec_11_1746,59.9964207777,MAFE4ImagesEEG,001,202491,
AFNE01.JPG,AFNE01.JPG,AFNE01.JPG,AFNE01.JPG,AFNE01.JPG,AFNE01.JPG,,,,,1,0,10,9,,,,,,,,,,,,,,,,,,,AFSA02.jpg,AFNE02.jpg,AFSA07.jpg,AFNE16.jpg,AFNE16.jpg,FN,3,num_4,16,num_4,0.283321433701,,,2017_Dec_11_1746,59.9964207777,MAFE4ImagesEEG,001,202491,
AFNE01.JPG,AFNE01.JPG,AFNE01.JPG,AFNE01.JPG,AFNE01.JPG,AFNE01.JPG,,,,,1,1,11,3,,,,,,,,,,,,,,,,,,,AFSA12.jpg,AFNE17.jpg,AFSA19.jpg,AFNE12.jpg,AFNE12.jpg,FN,3,num_4,32,num_8,0.683449344477,,,2017_Dec_11_1746,59.9964207777,MAFE4ImagesEEG,001,202491,
AFNE01.JPG,AFNE01.JPG,AFNE01.JPG,AFNE01.JPG,AFNE01.JPG,AFNE01.JPG,,,,,1,2,12,2,,,,,,,,,,,,,,,,,,,AFSA14.jpg,AFNE10.jpg,AFSA10.jpg,AFNE18.jpg,AFSA10.jpg,FS,4,num_2,32,num_6,0.766790215392,,,2017_Dec_11_1746,59.9964207777,MAFE4ImagesEEG,001,202491,
AFNE01.JPG,AFNE01.JPG,AFNE01.JPG,AFNE01.JPG,AFNE01.JPG,AFNE01.JPG,,,,,1,3,13,0,,,,,,,,,,,,,,,,,,,AFSA20.jpg,AFNE18.jpg,AFSA08.jpg,AFNE17.jpg,AFSA20.jpg,FS,4,num_8,16,num_8,0.83349049557,,,2017_Dec_11_1746,59.9964207777,MAFE4ImagesEEG,001,202491,
AFNE01.JPG,AFNE01.JPG,AFNE01.JPG,AFNE01.JPG,AFNE01.JPG,AFNE01.JPG,,,,,1,4,14,4,,,,,,,,,,,,,,,,,,,AFSA01.jpg,AFSA18.jpg,AFNE12.jpg,AFNE20.jpg,AFNE12.jpg,FN,3,num_2,16,num_2,0.616765743122,,,2017_Dec_11_1746,59.9964207777,MAFE4ImagesEEG,001,202491,
AFNE01.JPG,AFNE01.JPG,AFNE01.JPG,AFNE01.JPG,AFNE01.JPG,AFNE01.JPG,,,,,1,5,15,7,,,,,,,,,,,,,,,,,,,AFSA05.jpg,AFNE12.jpg,AFSA12.jpg,AFNE01.jpg,AFNE12.jpg,FN,3,num_6,32,num_2,0.833451365354,,,2017_Dec_11_1746,59.9964207777,MAFE4ImagesEEG,001,202491,
AFNE01.JPG,AFNE01.JPG,AFNE01.JPG,AFNE01.JPG,AFNE01.JPG,AFNE01.JPG,,,,,1,6,16,8,,,,,,,,,,,,,,,,,,,AFSA14.jpg,AFNE05.jpg,AFSA07.jpg,AFNE11.jpg,AFNE05.jpg,FN,3,num_6,16,num_6,0.850134614157,,,2017_Dec_11_1746,59.9964207777,MAFE4ImagesEEG,001,202491,
AFNE01.JPG,AFNE01.JPG,AFNE01.JPG,AFNE01.JPG,AFNE01.JPG,AFNE01.JPG,,,,,1,7,17,1,,,,,,,,,,,,,,,,,,,AFSA11.jpg,AFNE08.jpg,AFNE04.jpg,AFSA08.jpg,AFNE04.jpg,FN,3,num_2,32,num_4,0.333489533281,,,2017_Dec_11_1746,59.9964207777,MAFE4ImagesEEG,001,202491,
AFNE01.JPG,AFNE01.JPG,AFNE01.JPG,AFNE01.JPG,AFNE01.JPG,AFNE01.JPG,,,,,1,8,18,5,,,,,,,,,,,,,,,,,,,AFSA07.jpg,AFNE20.jpg,AFNE15.jpg,AFSA20.jpg,AFNE15.jpg,FN,3,num_2,16,num_2,0.500108409906,,,2017_Dec_11_1746,59.9964207777,MAFE4ImagesEEG,001,202491,
AFNE01.JPG,AFNE01.JPG,AFNE01.JPG,AFNE01.JPG,AFNE01.JPG,AFNE01.JPG,,,,,1,9,19,6,,,,,,,,,,,,,,,,,,,AFSA19.jpg,AFSA07.jpg,AFNE20.jpg,AFNE05.jpg,AFNE20.jpg,FN,3,num_2,32,num_4,0.650392039446,,,2017_Dec_11_1746,59.9964207777,MAFE4ImagesEEG,001,202491,
AFNE01.JPG,AFNE01.JPG,AFNE01.JPG,AFNE01.JPG,AFNE01.JPG,AFNE01.JPG,,,,,2,0,20,1,,,,,,,,,,,,,,,,,,,AFNE09.jpg,AFNE17.jpg,AFSA01.jpg,AFSA18.jpg,AFNE09.jpg,FN,3,num_8,16,num_8,0.500177689595,,,2017_Dec_11_1746,59.9964207777,MAFE4ImagesEEG,001,202491,
AFNE01.JPG,AFNE01.JPG,AFNE01.JPG,AFNE01.JPG,AFNE01.JPG,AFNE01.JPG,,,,,2,1,21,0,,,,,,,,,,,,,,,,,,,AFSA16.jpg,AFNE14.jpg,AFNE07.jpg,AFSA20.jpg,AFNE07.jpg,FN,3,num_2,32,num_8,0.600120662013,,,2017_Dec_11_1746,59.9964207777,MAFE4ImagesEEG,001,202491,
AFNE01.JPG,AFNE01.JPG,AFNE01.JPG,AFNE01.JPG,AFNE01.JPG,AFNE01.JPG,,,,,2,2,22,5,,,,,,,,,,,,,,,,,,,AFSA09.jpg,AFNE19.jpg,AFSA18.jpg,AFNE06.jpg,AFNE06.jpg,FN,3,num_4,16,num_4,0.333479269641,,,2017_Dec_11_1746,59.9964207777,MAFE4ImagesEEG,001,202491,
AFNE01.JPG,AFNE01.JPG,AFNE01.JPG,AFNE01.JPG,AFNE01.JPG,AFNE01.JPG,,,,,2,3,23,8,,,,,,,,,,,,,,,,,,,AFNE07.jpg,AFSA14.jpg,AFSA20.jpg,AFNE19.jpg,AFNE07.jpg,FN,3,num_8,16,num_8,0.41680538631,,,2017_Dec_11_1746,59.9964207777,MAFE4ImagesEEG,001,202491,
AFNE01.JPG,AFNE01.JPG,AFNE01.JPG,AFNE01.JPG,AFNE01.JPG,AFNE01.JPG,,,,,2,4,24,4,,,,,,,,,,,,,,,,,,,AFSA13.jpg,AFNE04.jpg,AFSA11.jpg,AFNE13.jpg,AFSA11.jpg,FS,4,num_2,16,num_2,0.950133395381,,,2017_Dec_11_1746,59.9964207777,MAFE4ImagesEEG,001,202491,
AFNE01.JPG,AFNE01.JPG,AFNE01.JPG,AFNE01.JPG,AFNE01.JPG,AFNE01.JPG,,,,,2,5,25,2,,,,,,,,,,,,,,,,,,,AFSA07.jpg,AFSA04.jpg,AFNE10.jpg,AFNE12.jpg,AFSA04.jpg,FS,4,num_6,32,num_8,1.01674098196,,,2017_Dec_11_1746,59.9964207777,MAFE4ImagesEEG,001,202491,
AFNE01.JPG,AFNE01.JPG,AFNE01.JPG,AFNE01.JPG,AFNE01.JPG,AFNE01.JPG,,,,,2,6,26,7,,,,,,,,,,,,,,,,,,,AFSA05.jpg,AFSA03.jpg,AFNE03.jpg,AFNE18.jpg,AFSA05.jpg,FS,4,num_8,16,num_8,0.850109917345,,,2017_Dec_11_1746,59.9964207777,MAFE4ImagesEEG,001,202491,
AFNE01.JPG,AFNE01.JPG,AFNE01.JPG,AFNE01.JPG,AFNE01.JPG,AFNE01.JPG,,,,,2,7,27,9,,,,,,,,,,,,,,,,,,,AFSA04.jpg,AFNE18.jpg,AFSA06.jpg,AFNE16.jpg,AFNE18.jpg,FN,3,num_6,32,num_2,0.883412267081,,,2017_Dec_11_1746,59.9964207777,MAFE4ImagesEEG,001,202491,
AFNE01.JPG,AFNE01.JPG,AFNE01.JPG,AFNE01.JPG,AFNE01.JPG,AFNE01.JPG,,,,,2,8,28,3,,,,,,,,,,,,,,,,,,,AFNE12.jpg,AFSA19.jpg,AFSA08.jpg,AFNE06.jpg,AFSA19.jpg,FS,4,num_6,16,num_6,0.466799644986,,,2017_Dec_11_1746,59.9964207777,MAFE4ImagesEEG,001,202491,
AFNE01.JPG,AFNE01.JPG,AFNE01.JPG,AFNE01.JPG,AFNE01.JPG,AFNE01.JPG,,,,,2,9,29,6,,,,,,,,,,,,,,,,,,,AFNE05.jpg,AFSA09.jpg,AFSA14.jpg,AFNE14.jpg,AFNE14.jpg,FN,3,num_4,32,num_8,1.0000840337,,,2017_Dec_11_1746,59.9964207777,MAFE4ImagesEEG,001,202491,
AFNE01.JPG,AFNE01.JPG,AFNE01.JPG,AFNE01.JPG,AFNE01.JPG,AFNE01.JPG,,,,,3,0,30,9,,,,,,,,,,,,,,,,,,,AFNE04.jpg,AFNE12.jpg,AFSA08.jpg,AFSA18.jpg,AFNE12.jpg,FN,3,num_6,32,num_2,0.383472245419,,,2017_Dec_11_1746,59.9964207777,MAFE4ImagesEEG,001,202491,
AFNE01.JPG,AFNE01.JPG,AFNE01.JPG,AFNE01.JPG,AFNE01.JPG,AFNE01.JPG,,,,,3,1,31,2,,,,,,,,,,,,,,,,,,,AFNE20.jpg,AFSA11.jpg,AFNE18.jpg,AFSA05.jpg,AFSA11.jpg,FS,4,num_6,32,num_8,0.483476479072,,,2017_Dec_11_1746,59.9964207777,MAFE4ImagesEEG,001,202491,
AFNE01.JPG,AFNE01.JPG,AFNE01.JPG,AFNE01.JPG,AFNE01.JPG,AFNE01.JPG,,,,,3,2,32,6,,,,,,,,,,,,,,,,,,,AFNE10.jpg,AFSA01.jpg,AFNE05.jpg,AFSA11.jpg,AFSA11.jpg,FS,4,num_4,32,num_6,1.18340027169,,,2017_Dec_11_1746,59.9964207777,MAFE4ImagesEEG,001,202491,
AFNE01.JPG,AFNE01.JPG,AFNE01.JPG,AFNE01.JPG,AFNE01.JPG,AFNE01.JPG,,,,,3,3,33,8,,,,,,,,,,,,,,,,,,,AFSA11.jpg,AFNE06.jpg,AFNE08.jpg,AFSA01.jpg,AFNE06.jpg,FN,3,num_6,32,num_8,0.466801248724,,,2017_Dec_11_1746,59.9964207777,MAFE4ImagesEEG,001,202491,
AFNE01.JPG,AFNE01.JPG,AFNE01.JPG,AFNE01.JPG,AFNE01.JPG,AFNE01.JPG,,,,,3,4,34,3,,,,,,,,,,,,,,,,,,,AFSA06.jpg,AFNE03.jpg,AFNE15.jpg,AFSA15.jpg,AFNE03.jpg,FN,3,num_6,32,num_2,0.333499155473,,,2017_Dec_11_1746,59.9964207777,MAFE4ImagesEEG,001,202491,
AFNE01.JPG,AFNE01.JPG,AFNE01.JPG,AFNE01.JPG,AFNE01.JPG,AFNE01.JPG,,,,,3,5,35,5,,,,,,,,,,,,,,,,,,,AFNE16.jpg,AFSA12.jpg,AFNE01.jpg,AFSA03.jpg,AFSA12.jpg,FS,4,num_6,16,num_6,0.450148470234,,,2017_Dec_11_1746,59.9964207777,MAFE4ImagesEEG,001,202491,
AFNE01.JPG,AFNE01.JPG,AFNE01.JPG,AFNE01.JPG,AFNE01.JPG,AFNE01.JPG,,,,,3,6,36,0,,,,,,,,,,,,,,,,,,,AFSA16.jpg,AFNE10.jpg,AFNE12.jpg,AFSA18.jpg,AFSA18.jpg,FS,4,num_4,32,num_6,0.500148181338,,,2017_Dec_11_1746,59.9964207777,MAFE4ImagesEEG,001,202491,
AFNE01.JPG,AFNE01.JPG,AFNE01.JPG,AFNE01.JPG,AFNE01.JPG,AFNE01.JPG,,,,,3,7,37,7,,,,,,,,,,,,,,,,,,,AFSA02.jpg,AFSA13.jpg,AFNE18.jpg,AFNE20.jpg,AFSA02.jpg,FS,4,num_8,32,num_4,0.549833247671,,,2017_Dec_11_1746,59.9964207777,MAFE4ImagesEEG,001,202491,
AFNE01.JPG,AFNE01.JPG,AFNE01.JPG,AFNE01.JPG,AFNE01.JPG,AFNE01.JPG,,,,,3,8,38,4,,,,,,,,,,,,,,,,,,,AFNE14.jpg,AFSA20.jpg,AFNE01.jpg,AFSA06.jpg,AFNE01.jpg,FN,3,num_2,32,num_8,0.300136827165,,,2017_Dec_11_1746,59.9964207777,MAFE4ImagesEEG,001,202491,
AFNE01.JPG,AFNE01.JPG,AFNE01.JPG,AFNE01.JPG,AFNE01.JPG,AFNE01.JPG,,,,,3,9,39,1,,,,,,,,,,,,,,,,,,,AFNE11.jpg,AFNE08.jpg,AFSA16.jpg,AFSA12.jpg,AFSA16.jpg,FS,4,num_2,32,num_4,0.35015482083,,,2017_Dec_11_1746,59.9964207777,MAFE4ImagesEEG,001,202491,
AFNE01.JPG,AFNE01.JPG,AFNE01.JPG,AFNE01.JPG,AFNE01.JPG,AFNE01.JPG,,,,,4,0,40,0,,,,,,,,,,,,,,,,,,,AFNE04.jpg,AFSA18.jpg,AFSA14.jpg,AFNE18.jpg,AFSA18.jpg,FS,4,num_6,16,num_6,0.61681289156,,,2017_Dec_11_1746,59.9964207777,MAFE4ImagesEEG,001,202491,
AFNE01.JPG,AFNE01.JPG,AFNE01.JPG,AFNE01.JPG,AFNE01.JPG,AFNE01.JPG,,,,,4,1,41,4,,,,,,,,,,,,,,,,,,,AFNE05.jpg,AFNE08.jpg,AFSA16.jpg,AFSA11.jpg,AFNE08.jpg,FN,3,num_6,16,num_6,0.466776231071,,,2017_Dec_11_1746,59.9964207777,MAFE4ImagesEEG,001,202491,
AFNE01.JPG,AFNE01.JPG,AFNE01.JPG,AFNE01.JPG,AFNE01.JPG,AFNE01.JPG,,,,,4,2,42,9,,,,,,,,,,,,,,,,,,,AFNE14.jpg,AFSA13.jpg,AFNE13.jpg,AFSA12.jpg,AFNE13.jpg,FN,3,num_2,32,num_8,0.716781844152,,,2017_Dec_11_1746,59.9964207777,MAFE4ImagesEEG,001,202491,
AFNE01.JPG,AFNE01.JPG,AFNE01.JPG,AFNE01.JPG,AFNE01.JPG,AFNE01.JPG,,,,,4,3,43,8,,,,,,,,,,,,,,,,,,,AFSA14.jpg,AFSA04.jpg,AFNE16.jpg,AFNE10.jpg,AFNE16.jpg,FN,3,num_2,32,num_4,0.466798362089,,,2017_Dec_11_1746,59.9964207777,MAFE4ImagesEEG,001,202491,
AFNE01.JPG,AFNE01.JPG,AFNE01.JPG,AFNE01.JPG,AFNE01.JPG,AFNE01.JPG,,,,,4,4,44,6,,,,,,,,,,,,,,,,,,,AFSA13.jpg,AFNE01.jpg,AFSA09.jpg,AFNE10.jpg,AFNE01.jpg,FN,3,num_6,32,num_4,0.766770329559,,,2017_Dec_11_1746,59.9964207777,MAFE4ImagesEEG,001,202491,
AFNE01.JPG,AFNE01.JPG,AFNE01.JPG,AFNE01.JPG,AFNE01.JPG,AFNE01.JPG,,,,,4,5,45,2,,,,,,,,,,,,,,,,,,,AFNE20.jpg,AFSA06.jpg,AFNE05.jpg,AFSA11.jpg,AFNE20.jpg,FN,3,num_8,32,num_6,0.30019327742,,,2017_Dec_11_1746,59.9964207777,MAFE4ImagesEEG,001,202491,
AFNE01.JPG,AFNE01.JPG,AFNE01.JPG,AFNE01.JPG,AFNE01.JPG,AFNE01.JPG,,,,,4,6,46,7,,,,,,,,,,,,,,,,,,,AFNE07.jpg,AFSA02.jpg,AFNE19.jpg,AFSA14.jpg,AFNE07.jpg,FN,3,num_8,16,num_8,0.46682049334,,,2017_Dec_11_1746,59.9964207777,MAFE4ImagesEEG,001,202491,
AFNE01.JPG,AFNE01.JPG,AFNE01.JPG,AFNE01.JPG,AFNE01.JPG,AFNE01.JPG,,,,,4,7,47,3,,,,,,,,,,,,,,,,,,,AFSA02.jpg,AFNE18.jpg,AFNE17.jpg,AFSA11.jpg,AFSA11.jpg,FS,4,num_4,16,num_4,0.68333195406,,,2017_Dec_11_1746,59.9964207777,MAFE4ImagesEEG,001,202491,
AFNE01.JPG,AFNE01.JPG,AFNE01.JPG,AFNE01.JPG,AFNE01.JPG,AFNE01.JPG,,,,,4,8,48,1,,,,,,,,,,,,,,,,,,,AFNE15.jpg,AFSA01.jpg,AFNE01.jpg,AFSA04.jpg,AFNE15.jpg,FN,3,num_8,16,num_8,0.500139521435,,,2017_Dec_11_1746,59.9964207777,MAFE4ImagesEEG,001,202491,
AFNE01.JPG,AFNE01.JPG,AFNE01.JPG,AFNE01.JPG,AFNE01.JPG,AFNE01.JPG,,,,,4,9,49,5,,,,,,,,,,,,,,,,,,,AFSA06.jpg,AFSA15.jpg,AFNE17.jpg,AFNE05.jpg,AFNE17.jpg,FN,3,num_2,32,num_8,0.883433115436,,,2017_Dec_11_1746,59.9964207777,MAFE4ImagesEEG,001,202491,
AFNE01.JPG,AFNE01.JPG,AFNE01.JPG,AFNE01.JPG,AFNE01.JPG,AFNE01.JPG,,,,,5,0,50,6,,,,,,,,,,,,,,,,,,,AFSA13.jpg,AFNE02.jpg,AFNE10.jpg,AFSA16.jpg,AFSA16.jpg,FS,4,num_4,32,num_8,0.883438247256,,,2017_Dec_11_1746,59.9964207777,MAFE4ImagesEEG,001,202491,
AFNE01.JPG,AFNE01.JPG,AFNE01.JPG,AFNE01.JPG,AFNE01.JPG,AFNE01.JPG,,,,,5,1,51,2,,,,,,,,,,,,,,,,,,,AFSA15.jpg,AFNE10.jpg,AFSA03.jpg,AFNE14.jpg,AFNE10.jpg,FN,3,num_6,16,num_6,0.366764620412,,,2017_Dec_11_1746,59.9964207777,MAFE4ImagesEEG,001,202491,
AFNE01.JPG,AFNE01.JPG,AFNE01.JPG,AFNE01.JPG,AFNE01.JPG,AFNE01.JPG,,,,,5,2,52,8,,,,,,,,,,,,,,,,,,,AFSA03.jpg,AFNE12.jpg,AFSA15.jpg,AFNE14.jpg,AFSA15.jpg,FS,4,num_2,32,num_8,0.333465798758,,,2017_Dec_11_1746,59.9964207777,MAFE4ImagesEEG,001,202491,
AFNE01.JPG,AFNE01.JPG,AFNE01.JPG,AFNE01.JPG,AFNE01.JPG,AFNE01.JPG,,,,,5,3,53,1,,,,,,,,,,,,,,,,,,,AFSA17.jpg,AFNE13.jpg,AFNE07.jpg,AFSA06.jpg,AFSA06.jpg,FS,4,num_4,16,num_4,0.516795186792,,,2017_Dec_11_1746,59.9964207777,MAFE4ImagesEEG,001,202491,
AFNE01.JPG,AFNE01.JPG,AFNE01.JPG,AFNE01.JPG,AFNE01.JPG,AFNE01.JPG,,,,,5,4,54,4,,,,,,,,,,,,,,,,,,,AFNE11.jpg,AFSA05.jpg,AFNE10.jpg,AFSA11.jpg,AFNE11.jpg,FN,3,num_8,32,num_6,0.566825689049,,,2017_Dec_11_1746,59.9964207777,MAFE4ImagesEEG,001,202491,
AFNE01.JPG,AFNE01.JPG,AFNE01.JPG,AFNE01.JPG,AFNE01.JPG,AFNE01.JPG,,,,,5,5,55,9,,,,,,,,,,,,,,,,,,,AFSA13.jpg,AFNE06.jpg,AFSA12.jpg,AFNE10.jpg,AFSA12.jpg,FS,4,num_2,32,num_8,0.433415827574,,,2017_Dec_11_1746,59.9964207777,MAFE4ImagesEEG,001,202491,
AFNE01.JPG,AFNE01.JPG,AFNE01.JPG,AFNE01.JPG,AFNE01.JPG,AFNE01.JPG,,,,,5,6,56,5,,,,,,,,,,,,,,,,,,,AFSA18.jpg,AFNE17.jpg,AFNE14.jpg,AFSA16.jpg,AFNE17.jpg,FN,3,num_6,16,num_6,0.733440396143,,,2017_Dec_11_1746,59.9964207777,MAFE4ImagesEEG,001,202491,
AFNE01.JPG,AFNE01.JPG,AFNE01.JPG,AFNE01.JPG,AFNE01.JPG,AFNE01.JPG,,,,,5,7,57,3,,,,,,,,,,,,,,,,,,,AFNE20.jpg,AFSA03.jpg,AFNE04.jpg,AFSA18.jpg,AFNE04.jpg,FN,3,num_2,32,num_6,0.666740115965,,,2017_Dec_11_1746,59.9964207777,MAFE4ImagesEEG,001,202491,
AFNE01.JPG,AFNE01.JPG,AFNE01.JPG,AFNE01.JPG,AFNE01.JPG,AFNE01.JPG,,,,,5,8,58,0,,,,,,,,,,,,,,,,,,,AFNE01.jpg,AFNE13.jpg,AFSA18.jpg,AFSA07.jpg,AFSA18.jpg,FS,4,num_2,16,num_2,0.616835343419,,,2017_Dec_11_1746,59.9964207777,MAFE4ImagesEEG,001,202491,
AFNE01.JPG,AFNE01.JPG,AFNE01.JPG,AFNE01.JPG,AFNE01.JPG,AFNE01.JPG,,,,,5,9,59,7,,,,,,,,,,,,,,,,,,,AFSA12.jpg,AFNE14.jpg,AFSA05.jpg,AFNE15.jpg,AFSA05.jpg,FS,4,num_2,16,num_2,0.383494697046,,,2017_Dec_11_1746,59.9964207777,MAFE4ImagesEEG,001,202491,
,,,,,,,,,,,,,,,,,,,,,,,,,,,,,,,,,,,,,,,,,,,space,10.4660147962,2017_Dec_11_1746,59.9964207777,MAFE4ImagesEEG,001,202491,
AFNE01.JPG,AFNE01.JPG,AFNE01.JPG,AFNE01.JPG,AFNE01.JPG,AFNE01.JPG,,,,,,,,,0,0,0,3,,,,,,,,,,,,,,,AMNE01.jpg,AMSA18.jpg,AMSA08.jpg,AMNE08.jpg,AMNE08.jpg,MN,1,num_4,32,num_8,0.283479878912,,,2017_Dec_11_1746,59.9964207777,MAFE4ImagesEEG,001,202491,
AFNE01.JPG,AFNE01.JPG,AFNE01.JPG,AFNE01.JPG,AFNE01.JPG,AFNE01.JPG,,,,,,,,,0,1,1,6,,,,,,,,,,,,,,,AMNE10.jpg,AMNE06.jpg,AMSA08.jpg,AMSA04.jpg,AMSA04.jpg,MS,2,num_4,16,num_4,0.350175989559,,,2017_Dec_11_1746,59.9964207777,MAFE4ImagesEEG,001,202491,
AFNE01.JPG,AFNE01.JPG,AFNE01.JPG,AFNE01.JPG,AFNE01.JPG,AFNE01.JPG,,,,,,,,,0,2,2,1,,,,,,,,,,,,,,,AMSA04.jpg,AMSA17.jpg,AMNE15.jpg,AMNE11.jpg,AMSA17.jpg,MS,2,num_6,16,num_6,0.51679101726,,,2017_Dec_11_1746,59.9964207777,MAFE4ImagesEEG,001,202491,
AFNE01.JPG,AFNE01.JPG,AFNE01.JPG,AFNE01.JPG,AFNE01.JPG,AFNE01.JPG,,,,,,,,,0,3,3,8,,,,,,,,,,,,,,,AMSA14.jpg,AMNE15.jpg,AMNE10.jpg,AMSA07.jpg,AMNE15.jpg,MN,1,num_6,16,num_6,0.283477313118,,,2017_Dec_11_1746,59.9964207777,MAFE4ImagesEEG,001,202491,
AFNE01.JPG,AFNE01.JPG,AFNE01.JPG,AFNE01.JPG,AFNE01.JPG,AFNE01.JPG,,,,,,,,,0,4,4,2,,,,,,,,,,,,,,,AMNE09.jpg,AMNE19.jpg,AMSA10.jpg,AMSA19.jpg,AMNE09.jpg,MN,1,num_8,32,num_4,0.266835439485,,,2017_Dec_11_1746,59.9964207777,MAFE4ImagesEEG,001,202491,
AFNE01.JPG,AFNE01.JPG,AFNE01.JPG,AFNE01.JPG,AFNE01.JPG,AFNE01.JPG,,,,,,,,,0,5,5,0,,,,,,,,,,,,,,,AMSA04.jpg,AMNE17.jpg,AMSA14.jpg,AMNE06.jpg,AMSA14.jpg,MS,2,num_2,32,num_4,0.333488571225,,,2017_Dec_11_1746,59.9964207777,MAFE4ImagesEEG,001,202491,
AFNE01.JPG,AFNE01.JPG,AFNE01.JPG,AFNE01.JPG,AFNE01.JPG,AFNE01.JPG,,,,,,,,,0,6,6,4,,,,,,,,,,,,,,,AMSA19.jpg,AMNE16.jpg,AMNE01.jpg,AMSA03.jpg,AMSA03.jpg,MS,2,num_4,32,num_8,0.566786559066,,,2017_Dec_11_1746,59.9964207777,MAFE4ImagesEEG,001,202491,
AFNE01.JPG,AFNE01.JPG,AFNE01.JPG,AFNE01.JPG,AFNE01.JPG,AFNE01.JPG,,,,,,,,,0,7,7,9,,,,,,,,,,,,,,,AMSA06.jpg,AMNE20.jpg,AMSA17.jpg,AMNE16.jpg,AMSA06.jpg,MS,2,num_8,32,num_2,0.333349370398,,,2017_Dec_11_1746,59.9964207777,MAFE4ImagesEEG,001,202491,
AFNE01.JPG,AFNE01.JPG,AFNE01.JPG,AFNE01.JPG,AFNE01.JPG,AFNE01.JPG,,,,,,,,,0,8,8,5,,,,,,,,,,,,,,,AMNE16.jpg,AMNE17.jpg,AMSA07.jpg,AMSA03.jpg,AMSA07.jpg,MS,2,num_2,32,num_6,0.433475805679,,,2017_Dec_11_1746,59.9964207777,MAFE4ImagesEEG,001,202491,
AFNE01.JPG,AFNE01.JPG,AFNE01.JPG,AFNE01.JPG,AFNE01.JPG,AFNE01.JPG,,,,,,,,,0,9,9,7,,,,,,,,,,,,,,,AMSA15.jpg,AMNE04.jpg,AMSA10.jpg,AMNE18.jpg,AMNE04.jpg,MN,1,num_6,32,num_4,0.58349418384,,,2017_Dec_11_1746,59.9964207777,MAFE4ImagesEEG,001,202491,
AFNE01.JPG,AFNE01.JPG,AFNE01.JPG,AFNE01.JPG,AFNE01.JPG,AFNE01.JPG,,,,,,,,,1,0,10,2,,,,,,,,,,,,,,,AMSA15.jpg,AMNE06.jpg,AMSA12.jpg,AMNE03.jpg,AMNE06.jpg,MN,1,num_6,16,num_6,0.500147539889,,,2017_Dec_11_1746,59.9964207777,MAFE4ImagesEEG,001,202491,
AFNE01.JPG,AFNE01.JPG,AFNE01.JPG,AFNE01.JPG,AFNE01.JPG,AFNE01.JPG,,,,,,,,,1,1,11,4,,,,,,,,,,,,,,,AMNE18.jpg,AMSA11.jpg,AMNE08.jpg,AMSA13.jpg,AMNE18.jpg,MN,1,num_8,16,num_8,0.550120950677,,,2017_Dec_11_1746,59.9964207777,MAFE4ImagesEEG,001,202491,
AFNE01.JPG,AFNE01.JPG,AFNE01.JPG,AFNE01.JPG,AFNE01.JPG,AFNE01.JPG,,,,,,,,,1,2,12,1,,,,,,,,,,,,,,,AMSA15.jpg,AMSA08.jpg,AMNE14.jpg,AMNE02.jpg,AMNE14.jpg,MN,1,num_2,16,num_2,0.466756666079,,,2017_Dec_11_1746,59.9964207777,MAFE4ImagesEEG,001,202491,
AFNE01.JPG,AFNE01.JPG,AFNE01.JPG,AFNE01.JPG,AFNE01.JPG,AFNE01.JPG,,,,,,,,,1,3,13,9,,,,,,,,,,,,,,,AMSA12.jpg,AMSA15.jpg,AMNE15.jpg,AMNE03.jpg,AMNE15.jpg,MN,1,num_2,16,num_2,0.650072262622,,,2017_Dec_11_1746,59.9964207777,MAFE4ImagesEEG,001,202491,
AFNE01.JPG,AFNE01.JPG,AFNE01.JPG,AFNE01.JPG,AFNE01.JPG,AFNE01.JPG,,,,,,,,,1,4,14,6,,,,,,,,,,,,,,,AMSA19.jpg,AMNE15.jpg,AMNE12.jpg,AMSA11.jpg,AMNE15.jpg,MN,1,num_6,32,num_2,0.916857987409,,,2017_Dec_11_1746,59.9964207777,MAFE4ImagesEEG,001,202491,
AFNE01.JPG,AFNE01.JPG,AFNE01.JPG,AFNE01.JPG,AFNE01.JPG,AFNE01.JPG,,,,,,,,,1,5,15,3,,,,,,,,,,,,,,,AMNE09.jpg,AMNE08.jpg,AMSA03.jpg,AMSA17.jpg,AMNE08.jpg,MN,1,num_6,16,num_6,0.766768084606,,,2017_Dec_11_1746,59.9964207777,MAFE4ImagesEEG,001,202491,
AFNE01.JPG,AFNE01.JPG,AFNE01.JPG,AFNE01.JPG,AFNE01.JPG,AFNE01.JPG,,,,,,,,,1,6,16,0,,,,,,,,,,,,,,,AMNE12.jpg,AMSA12.jpg,AMNE10.jpg,AMSA13.jpg,AMNE10.jpg,MN,1,num_2,16,num_2,0.483472630382,,,2017_Dec_11_1746,59.9964207777,MAFE4ImagesEEG,001,202491,
AFNE01.JPG,AFNE01.JPG,AFNE01.JPG,AFNE01.JPG,AFNE01.JPG,AFNE01.JPG,,,,,,,,,1,7,17,8,,,,,,,,,,,,,,,AMNE03.jpg,AMNE09.jpg,AMSA16.jpg,AMSA20.jpg,AMNE09.jpg,MN,1,num_6,32,num_8,0.600446533179,,,2017_Dec_11_1746,59.9964207777,MAFE4ImagesEEG,001,202491,
AFNE01.JPG,AFNE01.JPG,AFNE01.JPG,AFNE01.JPG,AFNE01.JPG,AFNE01.JPG,,,,,,,,,1,8,18,5,,,,,,,,,,,,,,,AMSA02.jpg,AMSA03.jpg,AMNE04.jpg,AMNE20.jpg,AMSA03.jpg,MS,2,num_6,16,num_6,0.850102219731,,,2017_Dec_11_1746,59.9964207777,MAFE4ImagesEEG,001,202491,
AFNE01.JPG,AFNE01.JPG,AFNE01.JPG,AFNE01.JPG,AFNE01.JPG,AFNE01.JPG,,,,,,,,,1,9,19,7,,,,,,,,,,,,,,,AMSA01.jpg,AMNE14.jpg,AMNE08.jpg,AMSA06.jpg,AMSA06.jpg,MS,2,num_4,32,num_8,0.933443411021,,,2017_Dec_11_1746,59.9964207777,MAFE4ImagesEEG,001,202491,
AFNE01.JPG,AFNE01.JPG,AFNE01.JPG,AFNE01.JPG,AFNE01.JPG,AFNE01.JPG,,,,,,,,,2,0,20,8,,,,,,,,,,,,,,,AMNE15.jpg,AMNE05.jpg,AMSA14.jpg,AMSA12.jpg,AMNE05.jpg,MN,1,num_6,16,num_6,0.566833386896,,,2017_Dec_11_1746,59.9964207777,MAFE4ImagesEEG,001,202491,
AFNE01.JPG,AFNE01.JPG,AFNE01.JPG,AFNE01.JPG,AFNE01.JPG,AFNE01.JPG,,,,,,,,,2,1,21,5,,,,,,,,,,,,,,,AMSA01.jpg,AMNE03.jpg,AMNE06.jpg,AMSA14.jpg,AMNE03.jpg,MN,1,num_6,32,num_4,0.583501240239,,,2017_Dec_11_1746,59.9964207777,MAFE4ImagesEEG,001,202491,
AFNE01.JPG,AFNE01.JPG,AFNE01.JPG,AFNE01.JPG,AFNE01.JPG,AFNE01.JPG,,,,,,,,,2,2,22,6,,,,,,,,,,,,,,,AMSA20.jpg,AMNE20.jpg,AMSA06.jpg,AMNE04.jpg,AMNE20.jpg,MN,1,num_6,16,num_6,0.633439369733,,,2017_Dec_11_1746,59.9964207777,MAFE4ImagesEEG,001,202491,
AFNE01.JPG,AFNE01.JPG,AFNE01.JPG,AFNE01.JPG,AFNE01.JPG,AFNE01.JPG,,,,,,,,,2,3,23,3,,,,,,,,,,,,,,,AMNE04.jpg,AMSA15.jpg,AMSA03.jpg,AMNE02.jpg,AMSA03.jpg,MS,2,num_2,16,num_2,0.400179870427,,,2017_Dec_11_1746,59.9964207777,MAFE4ImagesEEG,001,202491,
AFNE01.JPG,AFNE01.JPG,AFNE01.JPG,AFNE01.JPG,AFNE01.JPG,AFNE01.JPG,,,,,,,,,2,4,24,9,,,,,,,,,,,,,,,AMSA07.jpg,AMNE06.jpg,AMNE03.jpg,AMSA03.jpg,AMSA03.jpg,MS,2,num_4,32,num_8,0.550149817253,,,2017_Dec_11_1746,59.9964207777,MAFE4ImagesEEG,001,202491,
AFNE01.JPG,AFNE01.JPG,AFNE01.JPG,AFNE01.JPG,AFNE01.JPG,AFNE01.JPG,,,,,,,,,2,5,25,4,,,,,,,,,,,,,,,AMNE20.jpg,AMSA09.jpg,AMSA20.jpg,AMNE05.jpg,AMNE20.jpg,MN,1,num_8,32,num_2,0.350146160927,,,2017_Dec_11_1746,59.9964207777,MAFE4ImagesEEG,001,202491,
AFNE01.JPG,AFNE01.JPG,AFNE01.JPG,AFNE01.JPG,AFNE01.JPG,AFNE01.JPG,,,,,,,,,2,6,26,7,,,,,,,,,,,,,,,AMSA04.jpg,AMNE02.jpg,AMNE17.jpg,AMSA19.jpg,AMSA04.jpg,MS,2,num_8,32,num_4,0.683457684005,,,2017_Dec_11_1746,59.9964207777,MAFE4ImagesEEG,001,202491,
AFNE01.JPG,AFNE01.JPG,AFNE01.JPG,AFNE01.JPG,AFNE01.JPG,AFNE01.JPG,,,,,,,,,2,7,27,1,,,,,,,,,,,,,,,AMSA09.jpg,AMNE12.jpg,AMSA04.jpg,AMNE20.jpg,AMSA09.jpg,MS,2,num_8,32,num_6,0.316808208823,,,2017_Dec_11_1746,59.9964207777,MAFE4ImagesEEG,001,202491,
AFNE01.JPG,AFNE01.JPG,AFNE01.JPG,AFNE01.JPG,AFNE01.JPG,AFNE01.JPG,,,,,,,,,2,8,28,2,,,,,,,,,,,,,,,AMSA10.jpg,AMNE18.jpg,AMSA14.jpg,AMNE20.jpg,AMSA14.jpg,MS,2,num_2,32,num_4,0.36682973057,,,2017_Dec_11_1746,59.9964207777,MAFE4ImagesEEG,001,202491,
AFNE01.JPG,AFNE01.JPG,AFNE01.JPG,AFNE01.JPG,AFNE01.JPG,AFNE01.JPG,,,,,,,,,2,9,29,0,,,,,,,,,,,,,,,AMSA09.jpg,AMNE17.jpg,AMNE11.jpg,AMSA15.jpg,AMNE11.jpg,MN,1,num_2,32,num_8,0.566826972179,,,2017_Dec_11_1746,59.9964207777,MAFE4ImagesEEG,001,202491,
AFNE01.JPG,AFNE01.JPG,AFNE01.JPG,AFNE01.JPG,AFNE01.JPG,AFNE01.JPG,,,,,,,,,3,0,30,0,,,,,,,,,,,,,,,AMNE13.jpg,AMNE09.jpg,AMSA04.jpg,AMSA11.jpg,AMSA11.jpg,MS,2,num_4,16,num_4,0.600188338198,,,2017_Dec_11_1746,59.9964207777,MAFE4ImagesEEG,001,202491,
AFNE01.JPG,AFNE01.JPG,AFNE01.JPG,AFNE01.JPG,AFNE01.JPG,AFNE01.JPG,,,,,,,,,3,1,31,6,,,,,,,,,,,,,,,AMNE16.jpg,AMNE20.jpg,AMSA03.jpg,AMSA19.jpg,AMNE16.jpg,MN,1,num_8,16,num_8,0.750140323304,,,2017_Dec_11_1746,59.9964207777,MAFE4ImagesEEG,001,202491,
AFNE01.JPG,AFNE01.JPG,AFNE01.JPG,AFNE01.JPG,AFNE01.JPG,AFNE01.JPG,,,,,,,,,3,2,32,8,,,,,,,,,,,,,,,AMNE06.jpg,AMNE15.jpg,AMSA01.jpg,AMSA16.jpg,AMSA01.jpg,MS,2,num_2,16,num_2,0.700150555,,,2017_Dec_11_1746,59.9964207777,MAFE4ImagesEEG,001,202491,
AFNE01.JPG,AFNE01.JPG,AFNE01.JPG,AFNE01.JPG,AFNE01.JPG,AFNE01.JPG,,,,,,,,,3,3,33,4,,,,,,,,,,,,,,,AMNE03.jpg,AMSA17.jpg,AMSA19.jpg,AMNE09.jpg,AMNE03.jpg,MN,1,num_8,16,num_8,0.583495146362,,,2017_Dec_11_1746,59.9964207777,MAFE4ImagesEEG,001,202491,
AFNE01.JPG,AFNE01.JPG,AFNE01.JPG,AFNE01.JPG,AFNE01.JPG,AFNE01.JPG,,,,,,,,,3,4,34,1,,,,,,,,,,,,,,,AMSA12.jpg,AMSA10.jpg,AMNE06.jpg,AMNE03.jpg,AMSA10.jpg,MS,2,num_6,32,num_4,1.28342727805,,,2017_Dec_11_1746,59.9964207777,MAFE4ImagesEEG,001,202491,
AFNE01.JPG,AFNE01.JPG,AFNE01.JPG,AFNE01.JPG,AFNE01.JPG,AFNE01.JPG,,,,,,,,,3,5,35,7,,,,,,,,,,,,,,,AMNE12.jpg,AMNE07.jpg,AMSA14.jpg,AMSA16.jpg,AMNE07.jpg,MN,1,num_6,16,num_6,1.08344158274,,,2017_Dec_11_1746,59.9964207777,MAFE4ImagesEEG,001,202491,
AFNE01.JPG,AFNE01.JPG,AFNE01.JPG,AFNE01.JPG,AFNE01.JPG,AFNE01.JPG,,,,,,,,,3,6,36,9,,,,,,,,,,,,,,,AMNE16.jpg,AMNE14.jpg,AMSA01.jpg,AMSA14.jpg,AMNE14.jpg,MN,1,num_6,32,num_4,0.666756794322,,,2017_Dec_11_1746,59.9964207777,MAFE4ImagesEEG,001,202491,
AFNE01.JPG,AFNE01.JPG,AFNE01.JPG,AFNE01.JPG,AFNE01.JPG,AFNE01.JPG,,,,,,,,,3,7,37,2,,,,,,,,,,,,,,,AMNE18.jpg,AMNE01.jpg,AMSA15.jpg,AMSA08.jpg,AMSA08.jpg,MS,2,num_4,32,num_8,0.950089454185,,,2017_Dec_11_1746,59.9964207777,MAFE4ImagesEEG,001,202491,
AFNE01.JPG,AFNE01.JPG,AFNE01.JPG,AFNE01.JPG,AFNE01.JPG,AFNE01.JPG,,,,,,,,,3,8,38,3,,,,,,,,,,,,,,,AMSA20.jpg,AMNE16.jpg,AMSA10.jpg,AMNE04.jpg,AMNE16.jpg,MN,1,num_6,32,num_8,0.34989470127,,,2017_Dec_11_1746,59.9964207777,MAFE4ImagesEEG,001,202491,
AFNE01.JPG,AFNE01.JPG,AFNE01.JPG,AFNE01.JPG,AFNE01.JPG,AFNE01.JPG,,,,,,,,,3,9,39,5,,,,,,,,,,,,,,,AMNE17.jpg,AMNE10.jpg,AMSA01.jpg,AMSA20.jpg,AMSA20.jpg,MS,2,num_4,32,num_8,0.533469455084,,,2017_Dec_11_1746,59.9964207777,MAFE4ImagesEEG,001,202491,
AFNE01.JPG,AFNE01.JPG,AFNE01.JPG,AFNE01.JPG,AFNE01.JPG,AFNE01.JPG,,,,,,,,,4,0,40,7,,,,,,,,,,,,,,,AMSA13.jpg,AMNE08.jpg,AMNE05.jpg,AMSA04.jpg,AMNE08.jpg,MN,1,num_6,32,num_4,0.383527091704,,,2017_Dec_11_1746,59.9964207777,MAFE4ImagesEEG,001,202491,
AFNE01.JPG,AFNE01.JPG,AFNE01.JPG,AFNE01.JPG,AFNE01.JPG,AFNE01.JPG,,,,,,,,,4,1,41,4,,,,,,,,,,,,,,,AMSA17.jpg,AMNE01.jpg,AMSA06.jpg,AMNE07.jpg,AMNE01.jpg,MN,1,num_6,16,num_6,0.500120277051,,,2017_Dec_11_1746,59.9964207777,MAFE4ImagesEEG,001,202491,
AFNE01.JPG,AFNE01.JPG,AFNE01.JPG,AFNE01.JPG,AFNE01.JPG,AFNE01.JPG,,,,,,,,,4,2,42,0,,,,,,,,,,,,,,,AMSA15.jpg,AMSA01.jpg,AMNE12.jpg,AMNE14.jpg,AMNE12.jpg,MN,1,num_2,32,num_8,0.750125569291,,,2017_Dec_11_1746,59.9964207777,MAFE4ImagesEEG,001,202491,
AFNE01.JPG,AFNE01.JPG,AFNE01.JPG,AFNE01.JPG,AFNE01.JPG,AFNE01.JPG,,,,,,,,,4,3,43,1,,,,,,,,,,,,,,,AMNE06.jpg,AMNE16.jpg,AMSA15.jpg,AMSA03.jpg,AMNE06.jpg,MN,1,num_8,16,num_8,0.316795379389,,,2017_Dec_11_1746,59.9964207777,MAFE4ImagesEEG,001,202491,
AFNE01.JPG,AFNE01.JPG,AFNE01.JPG,AFNE01.JPG,AFNE01.JPG,AFNE01.JPG,,,,,,,,,4,4,44,2,,,,,,,,,,,,,,,AMSA15.jpg,AMNE16.jpg,AMNE11.jpg,AMSA13.jpg,AMSA15.jpg,MS,2,num_8,32,num_2,0.966784570366,,,2017_Dec_11_1746,59.9964207777,MAFE4ImagesEEG,001,202491,
AFNE01.JPG,AFNE01.JPG,AFNE01.JPG,AFNE01.JPG,AFNE01.JPG,AFNE01.JPG,,,,,,,,,4,5,45,6,,,,,,,,,,,,,,,AMNE14.jpg,AMSA14.jpg,AMSA11.jpg,AMNE07.jpg,AMSA11.jpg,MS,2,num_2,32,num_4,1.63336271304,,,2017_Dec_11_1746,59.9964207777,MAFE4ImagesEEG,001,202491,
AFNE01.JPG,AFNE01.JPG,AFNE01.JPG,AFNE01.JPG,AFNE01.JPG,AFNE01.JPG,,,,,,,,,4,6,46,9,,,,,,,,,,,,,,,AMSA20.jpg,AMNE10.jpg,AMSA18.jpg,AMNE14.jpg,AMSA20.jpg,MS,2,num_8,16,num_8,0.916721352609,,,2017_Dec_11_1746,59.9964207777,MAFE4ImagesEEG,001,202491,
AFNE01.JPG,AFNE01.JPG,AFNE01.JPG,AFNE01.JPG,AFNE01.JPG,AFNE01.JPG,,,,,,,,,4,7,47,3,,,,,,,,,,,,,,,AMSA02.jpg,AMNE16.jpg,AMNE04.jpg,AMSA17.jpg,AMNE16.jpg,MN,1,num_6,16,num_6,0.700151196448,,,2017_Dec_11_1746,59.9964207777,MAFE4ImagesEEG,001,202491,
AFNE01.JPG,AFNE01.JPG,AFNE01.JPG,AFNE01.JPG,AFNE01.JPG,AFNE01.JPG,,,,,,,,,4,8,48,5,,,,,,,,,,,,,,,AMNE01.jpg,AMSA10.jpg,AMNE05.jpg,AMSA16.jpg,AMSA16.jpg,MS,2,num_4,32,num_6,1.28339809063,,,2017_Dec_11_1746,59.9964207777,MAFE4ImagesEEG,001,202491,
AFNE01.JPG,AFNE01.JPG,AFNE01.JPG,AFNE01.JPG,AFNE01.JPG,AFNE01.JPG,,,,,,,,,4,9,49,8,,,,,,,,,,,,,,,AMSA09.jpg,AMSA03.jpg,AMNE20.jpg,AMNE13.jpg,AMSA03.jpg,MS,2,num_6,32,num_8,0.783485652413,,,2017_Dec_11_1746,59.9964207777,MAFE4ImagesEEG,001,202491,
AFNE01.JPG,AFNE01.JPG,AFNE01.JPG,AFNE01.JPG,AFNE01.JPG,AFNE01.JPG,,,,,,,,,5,0,50,9,,,,,,,,,,,,,,,AMSA02.jpg,AMNE14.jpg,AMSA10.jpg,AMNE03.jpg,AMNE03.jpg,MN,1,num_4,32,num_8,0.533477473538,,,2017_Dec_11_1746,59.9964207777,MAFE4ImagesEEG,001,202491,
AFNE01.JPG,AFNE01.JPG,AFNE01.JPG,AFNE01.JPG,AFNE01.JPG,AFNE01.JPG,,,,,,,,,5,1,51,8,,,,,,,,,,,,,,,AMSA16.jpg,AMNE09.jpg,AMNE12.jpg,AMSA20.jpg,AMNE12.jpg,MN,1,num_2,32,num_8,0.466774627566,,,2017_Dec_11_1746,59.9964207777,MAFE4ImagesEEG,001,202491,
AFNE01.JPG,AFNE01.JPG,AFNE01.JPG,AFNE01.JPG,AFNE01.JPG,AFNE01.JPG,,,,,,,,,5,2,52,0,,,,,,,,,,,,,,,AMNE16.jpg,AMSA06.jpg,AMNE13.jpg,AMSA15.jpg,AMNE16.jpg,MN,1,num_8,32,num_4,0.516751566203,,,2017_Dec_11_1746,59.9964207777,MAFE4ImagesEEG,001,202491,
AFNE01.JPG,AFNE01.JPG,AFNE01.JPG,AFNE01.JPG,AFNE01.JPG,AFNE01.JPG,,,,,,,,,5,3,53,3,,,,,,,,,,,,,,,AMNE19.jpg,AMSA02.jpg,AMSA05.jpg,AMNE20.jpg,AMNE19.jpg,MN,1,num_8,32,num_2,0.850111841923,,,2017_Dec_11_1746,59.9964207777,MAFE4ImagesEEG,001,202491,
AFNE01.JPG,AFNE01.JPG,AFNE01.JPG,AFNE01.JPG,AFNE01.JPG,AFNE01.JPG,,,,,,,,,5,4,54,4,,,,,,,,,,,,,,,AMSA18.jpg,AMSA14.jpg,AMNE03.jpg,AMNE10.jpg,AMNE10.jpg,MN,1,num_4,32,num_8,0.766736331163,,,2017_Dec_11_1746,59.9964207777,MAFE4ImagesEEG,001,202491,
AFNE01.JPG,AFNE01.JPG,AFNE01.JPG,AFNE01.JPG,AFNE01.JPG,AFNE01.JPG,,,,,,,,,5,5,55,6,,,,,,,,,,,,,,,AMSA02.jpg,AMSA04.jpg,AMNE08.jpg,AMNE14.jpg,AMSA02.jpg,MS,2,num_8,32,num_4,0.35017021629,,,2017_Dec_11_1746,59.9964207777,MAFE4ImagesEEG,001,202491,
AFNE01.JPG,AFNE01.JPG,AFNE01.JPG,AFNE01.JPG,AFNE01.JPG,AFNE01.JPG,,,,,,,,,5,6,56,1,,,,,,,,,,,,,,,AMSA10.jpg,AMNE16.jpg,AMNE04.jpg,AMSA18.jpg,AMNE16.jpg,MN,1,num_6,32,num_8,0.683496493381,,,2017_Dec_11_1746,59.9964207777,MAFE4ImagesEEG,001,202491,
AFNE01.JPG,AFNE01.JPG,AFNE01.JPG,AFNE01.JPG,AFNE01.JPG,AFNE01.JPG,,,,,,,,,5,7,57,5,,,,,,,,,,,,,,,AMSA18.jpg,AMNE17.jpg,AMSA01.jpg,AMNE01.jpg,AMNE17.jpg,MN,1,num_6,16,num_6,0.783470256953,,,2017_Dec_11_1746,59.9964207777,MAFE4ImagesEEG,001,202491,
AFNE01.JPG,AFNE01.JPG,AFNE01.JPG,AFNE01.JPG,AFNE01.JPG,AFNE01.JPG,,,,,,,,,5,8,58,2,,,,,,,,,,,,,,,AMSA07.jpg,AMNE09.jpg,AMNE05.jpg,AMSA05.jpg,AMNE05.jpg,MN,1,num_2,16,num_2,0.700125858188,,,2017_Dec_11_1746,59.9964207777,MAFE4ImagesEEG,001,202491,
AFNE01.JPG,AFNE01.JPG,AFNE01.JPG,AFNE01.JPG,AFNE01.JPG,AFNE01.JPG,,,,,,,,,5,9,59,7,,,,,,,,,,,,,,,AMSA10.jpg,AMSA12.jpg,AMNE14.jpg,AMNE08.jpg,AMSA12.jpg,MS,2,num_6,32,num_4,0.766822930891,,,2017_Dec_11_1746,59.9964207777,MAFE4ImagesEEG,001,202491,
,,,,,,,,,,,,,,,,,,,,,,,,,,,,,,,,,,,,,,,,,,,space,16.4486159785,2017_Dec_11_1746,59.9964207777,MAFE4ImagesEEG,001,202491,
AFNE01.JPG,AFNE01.JPG,AFNE01.JPG,AFNE01.JPG,AFNE01.JPG,AFNE01.JPG,,,,,,,,,,,,,0,0,0,5,,,,,,,,,,,AFSA09.jpg,AFNE11.jpg,AFSA06.jpg,AFNE02.jpg,AFNE02.jpg,FN,3,num_4,32,num_8,0.400181795005,,,2017_Dec_11_1746,59.9964207777,MAFE4ImagesEEG,001,202491,
AFNE01.JPG,AFNE01.JPG,AFNE01.JPG,AFNE01.JPG,AFNE01.JPG,AFNE01.JPG,,,,,,,,,,,,,0,1,1,7,,,,,,,,,,,AFSA19.jpg,AFNE08.jpg,AFSA03.jpg,AFNE03.jpg,AFSA19.jpg,FS,4,num_8,32,num_6,0.666776680155,,,2017_Dec_11_1746,59.9964207777,MAFE4ImagesEEG,001,202491,
AFNE01.JPG,AFNE01.JPG,AFNE01.JPG,AFNE01.JPG,AFNE01.JPG,AFNE01.JPG,,,,,,,,,,,,,0,2,2,8,,,,,,,,,,,AFSA12.jpg,AFSA03.jpg,AFNE11.jpg,AFNE14.jpg,AFNE14.jpg,FN,3,num_4,16,num_4,0.699988902314,,,2017_Dec_11_1746,59.9964207777,MAFE4ImagesEEG,001,202491,
AFNE01.JPG,AFNE01.JPG,AFNE01.JPG,AFNE01.JPG,AFNE01.JPG,AFNE01.JPG,,,,,,,,,,,,,0,3,3,6,,,,,,,,,,,AFNE04.jpg,AFSA20.jpg,AFNE20.jpg,AFSA15.jpg,AFNE20.jpg,FN,3,num_2,32,num_8,0.68347468297,,,2017_Dec_11_1746,59.9964207777,MAFE4ImagesEEG,001,202491,
AFNE01.JPG,AFNE01.JPG,AFNE01.JPG,AFNE01.JPG,AFNE01.JPG,AFNE01.JPG,,,,,,,,,,,,,0,4,4,9,,,,,,,,,,,AFSA05.jpg,AFNE20.jpg,AFSA14.jpg,AFNE13.jpg,AFSA05.jpg,FS,4,num_8,32,num_2,0.95011896221,,,2017_Dec_11_1746,59.9964207777,MAFE4ImagesEEG,001,202491,
AFNE01.JPG,AFNE01.JPG,AFNE01.JPG,AFNE01.JPG,AFNE01.JPG,AFNE01.JPG,,,,,,,,,,,,,0,5,5,3,,,,,,,,,,,AFSA11.jpg,AFNE17.jpg,AFNE09.jpg,AFSA05.jpg,AFSA11.jpg,FS,4,num_8,16,num_8,1.03351692436,,,2017_Dec_11_1746,59.9964207777,MAFE4ImagesEEG,001,202491,
AFNE01.JPG,AFNE01.JPG,AFNE01.JPG,AFNE01.JPG,AFNE01.JPG,AFNE01.JPG,,,,,,,,,,,,,0,6,6,2,,,,,,,,,,,AFSA07.jpg,AFSA20.jpg,AFNE03.jpg,AFNE14.jpg,AFSA07.jpg,FS,4,num_8,32,num_6,0.883437284734,,,2017_Dec_11_1746,59.9964207777,MAFE4ImagesEEG,001,202491,
AFNE01.JPG,AFNE01.JPG,AFNE01.JPG,AFNE01.JPG,AFNE01.JPG,AFNE01.JPG,,,,,,,,,,,,,0,7,7,1,,,,,,,,,,,AFSA15.jpg,AFSA05.jpg,AFNE01.jpg,AFNE18.jpg,AFSA15.jpg,FS,4,num_8,32,num_4,0.750113701914,,,2017_Dec_11_1746,59.9964207777,MAFE4ImagesEEG,001,202491,
AFNE01.JPG,AFNE01.JPG,AFNE01.JPG,AFNE01.JPG,AFNE01.JPG,AFNE01.JPG,,,,,,,,,,,,,0,8,8,4,,,,,,,,,,,AFNE05.jpg,AFSA04.jpg,AFNE06.jpg,AFSA06.jpg,AFSA04.jpg,FS,4,num_6,16,num_6,0.616835664259,,,2017_Dec_11_1746,59.9964207777,MAFE4ImagesEEG,001,202491,
AFNE01.JPG,AFNE01.JPG,AFNE01.JPG,AFNE01.JPG,AFNE01.JPG,AFNE01.JPG,,,,,,,,,,,,,0,9,9,0,,,,,,,,,,,AFNE10.jpg,AFNE17.jpg,AFSA14.jpg,AFSA17.jpg,AFNE17.jpg,FN,3,num_6,32,num_8,0.283511311514,,,2017_Dec_11_1746,59.9964207777,MAFE4ImagesEEG,001,202491,
AFNE01.JPG,AFNE01.JPG,AFNE01.JPG,AFNE01.JPG,AFNE01.JPG,AFNE01.JPG,,,,,,,,,,,,,1,0,10,9,,,,,,,,,,,AFSA17.jpg,AFSA01.jpg,AFNE11.jpg,AFNE14.jpg,AFSA01.jpg,FS,4,num_6,16,num_6,0.366801826051,,,2017_Dec_11_1746,59.9964207777,MAFE4ImagesEEG,001,202491,
AFNE01.JPG,AFNE01.JPG,AFNE01.JPG,AFNE01.JPG,AFNE01.JPG,AFNE01.JPG,,,,,,,,,,,,,1,1,11,0,,,,,,,,,,,AFNE17.jpg,AFSA07.jpg,AFNE05.jpg,AFSA06.jpg,AFNE17.jpg,FN,3,num_8,16,num_8,0.516793262446,,,2017_Dec_11_1746,59.9964207777,MAFE4ImagesEEG,001,202491,
AFNE01.JPG,AFNE01.JPG,AFNE01.JPG,AFNE01.JPG,AFNE01.JPG,AFNE01.JPG,,,,,,,,,,,,,1,2,12,7,,,,,,,,,,,AFSA05.jpg,AFNE15.jpg,AFSA15.jpg,AFNE01.jpg,AFNE01.jpg,FN,3,num_4,32,num_8,0.516829506028,,,2017_Dec_11_1746,59.9964207777,MAFE4ImagesEEG,001,202491,
AFNE01.JPG,AFNE01.JPG,AFNE01.JPG,AFNE01.JPG,AFNE01.JPG,AFNE01.JPG,,,,,,,,,,,,,1,3,13,4,,,,,,,,,,,AFNE16.jpg,AFSA12.jpg,AFNE14.jpg,AFSA06.jpg,AFNE14.jpg,FN,3,num_2,32,num_8,0.516824053368,,,2017_Dec_11_1746,59.9964207777,MAFE4ImagesEEG,001,202491,
AFNE01.JPG,AFNE01.JPG,AFNE01.JPG,AFNE01.JPG,AFNE01.JPG,AFNE01.JPG,,,,,,,,,,,,,1,4,14,2,,,,,,,,,,,AFNE19.jpg,AFSA03.jpg,AFNE02.jpg,AFSA09.jpg,AFNE02.jpg,FN,3,num_2,16,num_2,0.933500823332,,,2017_Dec_11_1746,59.9964207777,MAFE4ImagesEEG,001,202491,
AFNE01.JPG,AFNE01.JPG,AFNE01.JPG,AFNE01.JPG,AFNE01.JPG,AFNE01.JPG,,,,,,,,,,,,,1,5,15,1,,,,,,,,,,,AFSA16.jpg,AFNE11.jpg,AFSA19.jpg,AFNE14.jpg,AFSA19.jpg,FS,4,num_2,32,num_4,0.800129450392,,,2017_Dec_11_1746,59.9964207777,MAFE4ImagesEEG,001,202491,
AFNE01.JPG,AFNE01.JPG,AFNE01.JPG,AFNE01.JPG,AFNE01.JPG,AFNE01.JPG,,,,,,,,,,,,,1,6,16,6,,,,,,,,,,,AFSA19.jpg,AFSA18.jpg,AFNE06.jpg,AFNE16.jpg,AFSA18.jpg,FS,4,num_6,16,num_6,0.88347769808,,,2017_Dec_11_1746,59.9964207777,MAFE4ImagesEEG,001,202491,
AFNE01.JPG,AFNE01.JPG,AFNE01.JPG,AFNE01.JPG,AFNE01.JPG,AFNE01.JPG,,,,,,,,,,,,,1,7,17,3,,,,,,,,,,,AFNE10.jpg,AFSA08.jpg,AFSA03.jpg,AFNE16.jpg,AFSA08.jpg,FS,4,num_6,32,num_4,0.383348119445,,,2017_Dec_11_1746,59.9964207777,MAFE4ImagesEEG,001,202491,
AFNE01.JPG,AFNE01.JPG,AFNE01.JPG,AFNE01.JPG,AFNE01.JPG,AFNE01.JPG,,,,,,,,,,,,,1,8,18,5,,,,,,,,,,,AFNE13.jpg,AFSA11.jpg,AFNE03.jpg,AFSA17.jpg,AFSA11.jpg,FS,4,num_6,32,num_4,0.266809139168,,,2017_Dec_11_1746,59.9964207777,MAFE4ImagesEEG,001,202491,
AFNE01.JPG,AFNE01.JPG,AFNE01.JPG,AFNE01.JPG,AFNE01.JPG,AFNE01.JPG,,,,,,,,,,,,,1,9,19,8,,,,,,,,,,,AFSA02.jpg,AFNE03.jpg,AFNE05.jpg,AFSA15.jpg,AFSA15.jpg,FS,4,num_4,32,num_2,0.45016579004,,,2017_Dec_11_1746,59.9964207777,MAFE4ImagesEEG,001,202491,
AFNE01.JPG,AFNE01.JPG,AFNE01.JPG,AFNE01.JPG,AFNE01.JPG,AFNE01.JPG,,,,,,,,,,,,,2,0,20,4,,,,,,,,,,,AFNE10.jpg,AFSA12.jpg,AFSA08.jpg,AFNE18.jpg,AFSA08.jpg,FS,4,num_2,32,num_4,0.283504255116,,,2017_Dec_11_1746,59.9964207777,MAFE4ImagesEEG,001,202491,
AFNE01.JPG,AFNE01.JPG,AFNE01.JPG,AFNE01.JPG,AFNE01.JPG,AFNE01.JPG,,,,,,,,,,,,,2,1,21,7,,,,,,,,,,,AFSA13.jpg,AFNE18.jpg,AFSA04.jpg,AFNE17.jpg,AFNE18.jpg,FN,3,num_6,16,num_6,0.900114760501,,,2017_Dec_11_1746,59.9964207777,MAFE4ImagesEEG,001,202491,
AFNE01.JPG,AFNE01.JPG,AFNE01.JPG,AFNE01.JPG,AFNE01.JPG,AFNE01.JPG,,,,,,,,,,,,,2,2,22,0,,,,,,,,,,,AFNE11.jpg,AFSA12.jpg,AFNE09.jpg,AFSA09.jpg,AFSA12.jpg,FS,4,num_6,16,num_6,0.35012852028,,,2017_Dec_11_1746,59.9964207777,MAFE4ImagesEEG,001,202491,
AFNE01.JPG,AFNE01.JPG,AFNE01.JPG,AFNE01.JPG,AFNE01.JPG,AFNE01.JPG,,,,,,,,,,,,,2,3,23,3,,,,,,,,,,,AFSA14.jpg,AFSA09.jpg,AFNE05.jpg,AFNE16.jpg,AFNE05.jpg,FN,3,num_2,32,num_4,0.533462078078,,,2017_Dec_11_1746,59.9964207777,MAFE4ImagesEEG,001,202491,
AFNE01.JPG,AFNE01.JPG,AFNE01.JPG,AFNE01.JPG,AFNE01.JPG,AFNE01.JPG,,,,,,,,,,,,,2,4,24,5,,,,,,,,,,,AFSA06.jpg,AFNE15.jpg,AFSA20.jpg,AFNE02.jpg,AFSA20.jpg,FS,4,num_2,32,num_8,0.3001881456,,,2017_Dec_11_1746,59.9964207777,MAFE4ImagesEEG,001,202491,
AFNE01.JPG,AFNE01.JPG,AFNE01.JPG,AFNE01.JPG,AFNE01.JPG,AFNE01.JPG,,,,,,,,,,,,,2,5,25,6,,,,,,,,,,,AFSA14.jpg,AFSA09.jpg,AFNE17.jpg,AFNE03.jpg,AFNE17.jpg,FN,3,num_2,32,num_4,0.500186349265,,,2017_Dec_11_1746,59.9964207777,MAFE4ImagesEEG,001,202491,
AFNE01.JPG,AFNE01.JPG,AFNE01.JPG,AFNE01.JPG,AFNE01.JPG,AFNE01.JPG,,,,,,,,,,,,,2,6,26,1,,,,,,,,,,,AFNE06.jpg,AFNE07.jpg,AFSA11.jpg,AFSA01.jpg,AFSA11.jpg,FS,4,num_2,32,num_6,0.283498802688,,,2017_Dec_11_1746,59.9964207777,MAFE4ImagesEEG,001,202491,
AFNE01.JPG,AFNE01.JPG,AFNE01.JPG,AFNE01.JPG,AFNE01.JPG,AFNE01.JPG,,,,,,,,,,,,,2,7,27,2,,,,,,,,,,,AFSA05.jpg,AFNE15.jpg,AFNE05.jpg,AFSA07.jpg,AFNE15.jpg,FN,3,num_6,32,num_8,0.350169254001,,,2017_Dec_11_1746,59.9964207777,MAFE4ImagesEEG,001,202491,
AFNE01.JPG,AFNE01.JPG,AFNE01.JPG,AFNE01.JPG,AFNE01.JPG,AFNE01.JPG,,,,,,,,,,,,,2,8,28,8,,,,,,,,,,,AFSA14.jpg,AFNE01.jpg,AFSA03.jpg,AFNE17.jpg,AFSA03.jpg,FS,4,num_2,16,num_2,0.733434943482,,,2017_Dec_11_1746,59.9964207777,MAFE4ImagesEEG,001,202491,
AFNE01.JPG,AFNE01.JPG,AFNE01.JPG,AFNE01.JPG,AFNE01.JPG,AFNE01.JPG,,,,,,,,,,,,,2,9,29,9,,,,,,,,,,,AFNE14.jpg,AFSA16.jpg,AFNE17.jpg,AFSA09.jpg,AFSA09.jpg,FS,4,num_4,16,num_4,0.550184457097,,,2017_Dec_11_1746,59.9964207777,MAFE4ImagesEEG,001,202491,
AFNE01.JPG,AFNE01.JPG,AFNE01.JPG,AFNE01.JPG,AFNE01.JPG,AFNE01.JPG,,,,,,,,,,,,,3,0,30,9,,,,,,,,,,,AFSA10.jpg,AFNE13.jpg,AFSA11.jpg,AFNE17.jpg,AFNE17.jpg,FN,3,num_4,16,num_4,0.783466728637,,,2017_Dec_11_1746,59.9964207777,MAFE4ImagesEEG,001,202491,
AFNE01.JPG,AFNE01.JPG,AFNE01.JPG,AFNE01.JPG,AFNE01.JPG,AFNE01.JPG,,,,,,,,,,,,,3,1,31,8,,,,,,,,,,,AFSA09.jpg,AFNE04.jpg,AFSA07.jpg,AFNE17.jpg,AFSA09.jpg,FS,4,num_8,16,num_8,0.500186028657,,,2017_Dec_11_1746,59.9964207777,MAFE4ImagesEEG,001,202491,
AFNE01.JPG,AFNE01.JPG,AFNE01.JPG,AFNE01.JPG,AFNE01.JPG,AFNE01.JPG,,,,,,,,,,,,,3,2,32,2,,,,,,,,,,,AFSA01.jpg,AFSA02.jpg,AFNE16.jpg,AFNE08.jpg,AFNE16.jpg,FN,3,num_2,16,num_2,0.516790054971,,,2017_Dec_11_1746,59.9964207777,MAFE4ImagesEEG,001,202491,
AFNE01.JPG,AFNE01.JPG,AFNE01.JPG,AFNE01.JPG,AFNE01.JPG,AFNE01.JPG,,,,,,,,,,,,,3,3,33,1,,,,,,,,,,,AFSA16.jpg,AFSA14.jpg,AFNE13.jpg,AFNE12.jpg,AFSA16.jpg,FS,4,num_8,16,num_8,0.700164988171,,,2017_Dec_11_1746,59.9964207777,MAFE4ImagesEEG,001,202491,
AFNE01.JPG,AFNE01.JPG,AFNE01.JPG,AFNE01.JPG,AFNE01.JPG,AFNE01.JPG,,,,,,,,,,,,,3,4,34,5,,,,,,,,,,,AFSA19.jpg,AFSA03.jpg,AFNE08.jpg,AFNE10.jpg,AFSA19.jpg,FS,4,num_8,32,num_6,0.400106100598,,,2017_Dec_11_1746,59.9964207777,MAFE4ImagesEEG,001,202491,
AFNE01.JPG,AFNE01.JPG,AFNE01.JPG,AFNE01.JPG,AFNE01.JPG,AFNE01.JPG,,,,,,,,,,,,,3,5,35,4,,,,,,,,,,,AFSA10.jpg,AFNE10.jpg,AFSA12.jpg,AFNE08.jpg,AFSA10.jpg,FS,4,num_8,32,num_4,1.00015363423,,,2017_Dec_11_1746,59.9964207777,MAFE4ImagesEEG,001,202491,
AFNE01.JPG,AFNE01.JPG,AFNE01.JPG,AFNE01.JPG,AFNE01.JPG,AFNE01.JPG,,,,,,,,,,,,,3,6,36,0,,,,,,,,,,,AFNE03.jpg,AFSA09.jpg,AFSA03.jpg,AFNE09.jpg,AFSA03.jpg,FS,4,num_2,16,num_2,0.533294331282,,,2017_Dec_11_1746,59.9964207777,MAFE4ImagesEEG,001,202491,
AFNE01.JPG,AFNE01.JPG,AFNE01.JPG,AFNE01.JPG,AFNE01.JPG,AFNE01.JPG,,,,,,,,,,,,,3,7,37,6,,,,,,,,,,,AFNE16.jpg,AFSA14.jpg,AFNE08.jpg,AFSA05.jpg,AFSA14.jpg,FS,4,num_6,32,num_8,0.350026845932,,,2017_Dec_11_1746,59.9964207777,MAFE4ImagesEEG,001,202491,
AFNE01.JPG,AFNE01.JPG,AFNE01.JPG,AFNE01.JPG,AFNE01.JPG,AFNE01.JPG,,,,,,,,,,,,,3,8,38,7,,,,,,,,,,,AFNE18.jpg,AFSA13.jpg,AFSA19.jpg,AFNE07.jpg,AFNE07.jpg,FN,3,num_4,16,num_4,0.300161844818,,,2017_Dec_11_1746,59.9964207777,MAFE4ImagesEEG,001,202491,
AFNE01.JPG,AFNE01.JPG,AFNE01.JPG,AFNE01.JPG,AFNE01.JPG,AFNE01.JPG,,,,,,,,,,,,,3,9,39,3,,,,,,,,,,,AFSA08.jpg,AFNE09.jpg,AFSA05.jpg,AFNE02.jpg,AFSA05.jpg,FS,4,num_2,32,num_6,0.25030197599,,,2017_Dec_11_1746,59.9964207777,MAFE4ImagesEEG,001,202491,
AFNE01.JPG,AFNE01.JPG,AFNE01.JPG,AFNE01.JPG,AFNE01.JPG,AFNE01.JPG,,,,,,,,,,,,,4,0,40,7,,,,,,,,,,,AFNE01.jpg,AFSA20.jpg,AFNE04.jpg,AFSA17.jpg,AFNE04.jpg,FN,3,num_2,32,num_4,0.633517309325,,,2017_Dec_11_1746,59.9964207777,MAFE4ImagesEEG,001,202491,
AFNE01.JPG,AFNE01.JPG,AFNE01.JPG,AFNE01.JPG,AFNE01.JPG,AFNE01.JPG,,,,,,,,,,,,,4,1,41,5,,,,,,,,,,,AFSA16.jpg,AFSA02.jpg,AFNE12.jpg,AFNE02.jpg,AFSA16.jpg,FS,4,num_8,32,num_4,0.63347240584,,,2017_Dec_11_1746,59.9964207777,MAFE4ImagesEEG,001,202491,
AFNE01.JPG,AFNE01.JPG,AFNE01.JPG,AFNE01.JPG,AFNE01.JPG,AFNE01.JPG,,,,,,,,,,,,,4,2,42,0,,,,,,,,,,,AFNE18.jpg,AFSA12.jpg,AFSA17.jpg,AFNE12.jpg,AFNE18.jpg,FN,3,num_8,32,num_2,0.700150555,,,2017_Dec_11_1746,59.9964207777,MAFE4ImagesEEG,001,202491,
AFNE01.JPG,AFNE01.JPG,AFNE01.JPG,AFNE01.JPG,AFNE01.JPG,AFNE01.JPG,,,,,,,,,,,,,4,3,43,6,,,,,,,,,,,AFSA05.jpg,AFSA13.jpg,AFNE04.jpg,AFNE13.jpg,AFNE04.jpg,FN,3,num_2,16,num_2,0.583478467772,,,2017_Dec_11_1746,59.9964207777,MAFE4ImagesEEG,001,202491,
AFNE01.JPG,AFNE01.JPG,AFNE01.JPG,AFNE01.JPG,AFNE01.JPG,AFNE01.JPG,,,,,,,,,,,,,4,4,44,8,,,,,,,,,,,AFNE06.jpg,AFNE19.jpg,AFSA10.jpg,AFSA02.jpg,AFSA10.jpg,FS,4,num_2,32,num_4,0.383493093541,,,2017_Dec_11_1746,59.9964207777,MAFE4ImagesEEG,001,202491,
AFNE01.JPG,AFNE01.JPG,AFNE01.JPG,AFNE01.JPG,AFNE01.JPG,AFNE01.JPG,,,,,,,,,,,,,4,5,45,3,,,,,,,,,,,AFSA07.jpg,AFNE13.jpg,AFSA03.jpg,AFNE06.jpg,AFSA07.jpg,FS,4,num_8,32,num_6,0.583470769925,,,2017_Dec_11_1746,59.9964207777,MAFE4ImagesEEG,001,202491,
AFNE01.JPG,AFNE01.JPG,AFNE01.JPG,AFNE01.JPG,AFNE01.JPG,AFNE01.JPG,,,,,,,,,,,,,4,6,46,2,,,,,,,,,,,AFNE15.jpg,AFSA07.jpg,AFSA16.jpg,AFNE20.jpg,AFSA16.jpg,FS,4,num_2,16,num_2,0.483462366741,,,2017_Dec_11_1746,59.9964207777,MAFE4ImagesEEG,001,202491,
AFNE01.JPG,AFNE01.JPG,AFNE01.JPG,AFNE01.JPG,AFNE01.JPG,AFNE01.JPG,,,,,,,,,,,,,4,7,47,4,,,,,,,,,,,AFSA15.jpg,AFNE03.jpg,AFNE14.jpg,AFSA05.jpg,AFNE03.jpg,FN,3,num_6,32,num_4,0.350241099717,,,2017_Dec_11_1746,59.9964207777,MAFE4ImagesEEG,001,202491,
AFNE01.JPG,AFNE01.JPG,AFNE01.JPG,AFNE01.JPG,AFNE01.JPG,AFNE01.JPG,,,,,,,,,,,,,4,8,48,1,,,,,,,,,,,AFNE13.jpg,AFNE06.jpg,AFSA01.jpg,AFSA12.jpg,AFSA12.jpg,FS,4,num_4,32,num_6,0.350145840086,,,2017_Dec_11_1746,59.9964207777,MAFE4ImagesEEG,001,202491,
AFNE01.JPG,AFNE01.JPG,AFNE01.JPG,AFNE01.JPG,AFNE01.JPG,AFNE01.JPG,,,,,,,,,,,,,4,9,49,9,,,,,,,,,,,AFNE19.jpg,AFSA10.jpg,AFNE20.jpg,AFSA11.jpg,AFNE20.jpg,FN,3,num_2,16,num_2,0.316813340876,,,2017_Dec_11_1746,59.9964207777,MAFE4ImagesEEG,001,202491,
AFNE01.JPG,AFNE01.JPG,AFNE01.JPG,AFNE01.JPG,AFNE01.JPG,AFNE01.JPG,,,,,,,,,,,,,5,0,50,0,,,,,,,,,,,AFNE02.jpg,AFNE06.jpg,AFSA17.jpg,AFSA07.jpg,AFSA17.jpg,FS,4,num_2,32,num_8,0.316854716046,,,2017_Dec_11_1746,59.9964207777,MAFE4ImagesEEG,001,202491,
AFNE01.JPG,AFNE01.JPG,AFNE01.JPG,AFNE01.JPG,AFNE01.JPG,AFNE01.JPG,,,,,,,,,,,,,5,1,51,8,,,,,,,,,,,AFNE06.jpg,AFSA12.jpg,AFSA13.jpg,AFNE01.jpg,AFNE06.jpg,FN,3,num_8,32,num_4,0.333504608134,,,2017_Dec_11_1746,59.9964207777,MAFE4ImagesEEG,001,202491,
AFNE01.JPG,AFNE01.JPG,AFNE01.JPG,AFNE01.JPG,AFNE01.JPG,AFNE01.JPG,,,,,,,,,,,,,5,2,52,5,,,,,,,,,,,AFNE09.jpg,AFSA08.jpg,AFSA13.jpg,AFNE02.jpg,AFNE02.jpg,FN,3,num_4,32,num_8,0.300229521003,,,2017_Dec_11_1746,59.9964207777,MAFE4ImagesEEG,001,202491,
AFNE01.JPG,AFNE01.JPG,AFNE01.JPG,AFNE01.JPG,AFNE01.JPG,AFNE01.JPG,,,,,,,,,,,,,5,3,53,3,,,,,,,,,,,AFNE02.jpg,AFNE17.jpg,AFSA06.jpg,AFSA20.jpg,AFSA20.jpg,FS,4,num_4,32,num_2,0.433489276562,,,2017_Dec_11_1746,59.9964207777,MAFE4ImagesEEG,001,202491,
AFNE01.JPG,AFNE01.JPG,AFNE01.JPG,AFNE01.JPG,AFNE01.JPG,AFNE01.JPG,,,,,,,,,,,,,5,4,54,6,,,,,,,,,,,AFNE19.jpg,AFSA03.jpg,AFSA06.jpg,AFNE17.jpg,AFSA03.jpg,FS,4,num_6,16,num_6,0.416827517329,,,2017_Dec_11_1746,59.9964207777,MAFE4ImagesEEG,001,202491,
AFNE01.JPG,AFNE01.JPG,AFNE01.JPG,AFNE01.JPG,AFNE01.JPG,AFNE01.JPG,,,,,,,,,,,,,5,5,55,4,,,,,,,,,,,AFNE13.jpg,AFSA12.jpg,AFSA14.jpg,AFNE15.jpg,AFNE13.jpg,FN,3,num_8,32,num_4,0.383508489002,,,2017_Dec_11_1746,59.9964207777,MAFE4ImagesEEG,001,202491,
AFNE01.JPG,AFNE01.JPG,AFNE01.JPG,AFNE01.JPG,AFNE01.JPG,AFNE01.JPG,,,,,,,,,,,,,5,6,56,1,,,,,,,,,,,AFNE14.jpg,AFSA03.jpg,AFSA08.jpg,AFNE13.jpg,AFNE13.jpg,FN,3,num_4,32,num_8,0.5667894457,,,2017_Dec_11_1746,59.9964207777,MAFE4ImagesEEG,001,202491,
AFNE01.JPG,AFNE01.JPG,AFNE01.JPG,AFNE01.JPG,AFNE01.JPG,AFNE01.JPG,,,,,,,,,,,,,5,7,57,9,,,,,,,,,,,AFSA20.jpg,AFNE05.jpg,AFSA15.jpg,AFNE11.jpg,AFNE05.jpg,FN,3,num_6,32,num_2,0.350184649462,,,2017_Dec_11_1746,59.9964207777,MAFE4ImagesEEG,001,202491,
AFNE01.JPG,AFNE01.JPG,AFNE01.JPG,AFNE01.JPG,AFNE01.JPG,AFNE01.JPG,,,,,,,,,,,,,5,8,58,2,,,,,,,,,,,AFSA10.jpg,AFNE18.jpg,AFSA12.jpg,AFNE02.jpg,AFSA10.jpg,FS,4,num_8,32,num_6,0.616800703574,,,2017_Dec_11_1746,59.9964207777,MAFE4ImagesEEG,001,202491,
AFNE01.JPG,AFNE01.JPG,AFNE01.JPG,AFNE01.JPG,AFNE01.JPG,AFNE01.JPG,,,,,,,,,,,,,5,9,59,7,,,,,,,,,,,AFNE08.jpg,AFNE05.jpg,AFSA05.jpg,AFSA14.jpg,AFSA05.jpg,FS,4,num_2,32,num_6,0.333520324202,,,2017_Dec_11_1746,59.9964207777,MAFE4ImagesEEG,001,202491,
,,,,,,,,,,,,,,,,,,,,,,,,,,,,,,,,,,,,,,,,,,,space,17.2654347715,2017_Dec_11_1746,59.9964207777,MAFE4ImagesEEG,001,202491,
AFNE01.JPG,AFNE01.JPG,AFNE01.JPG,AFNE01.JPG,AFNE01.JPG,AFNE01.JPG,,,,,,,,,,,,,,,,,0,0,0,2,,,,,,,AMNE08.jpg,AMNE14.jpg,AMSA10.jpg,AMSA02.jpg,AMSA10.jpg,MS,2,num_2,32,num_6,0.650119090453,,,2017_Dec_11_1746,59.9964207777,MAFE4ImagesEEG,001,202491,
AFNE01.JPG,AFNE01.JPG,AFNE01.JPG,AFNE01.JPG,AFNE01.JPG,AFNE01.JPG,,,,,,,,,,,,,,,,,0,1,1,4,,,,,,,AMSA15.jpg,AMSA07.jpg,AMNE07.jpg,AMNE14.jpg,AMSA07.jpg,MS,2,num_6,32,num_4,0.450159696164,,,2017_Dec_11_1746,59.9964207777,MAFE4ImagesEEG,001,202491,
AFNE01.JPG,AFNE01.JPG,AFNE01.JPG,AFNE01.JPG,AFNE01.JPG,AFNE01.JPG,,,,,,,,,,,,,,,,,0,2,2,8,,,,,,,AMSA14.jpg,AMNE19.jpg,AMSA03.jpg,AMNE13.jpg,AMSA14.jpg,MS,2,num_8,16,num_8,1.80007396266,,,2017_Dec_11_1746,59.9964207777,MAFE4ImagesEEG,001,202491,
AFNE01.JPG,AFNE01.JPG,AFNE01.JPG,AFNE01.JPG,AFNE01.JPG,AFNE01.JPG,,,,,,,,,,,,,,,,,0,3,3,0,,,,,,,AMSA03.jpg,AMSA08.jpg,AMNE04.jpg,AMNE20.jpg,AMSA03.jpg,MS,2,num_8,32,num_4,0.600173904793,,,2017_Dec_11_1746,59.9964207777,MAFE4ImagesEEG,001,202491,
AFNE01.JPG,AFNE01.JPG,AFNE01.JPG,AFNE01.JPG,AFNE01.JPG,AFNE01.JPG,,,,,,,,,,,,,,,,,0,4,4,1,,,,,,,AMSA20.jpg,AMSA01.jpg,AMNE07.jpg,AMNE16.jpg,AMSA20.jpg,MS,2,num_8,32,num_6,0.316848301329,,,2017_Dec_11_1746,59.9964207777,MAFE4ImagesEEG,001,202491,
AFNE01.JPG,AFNE01.JPG,AFNE01.JPG,AFNE01.JPG,AFNE01.JPG,AFNE01.JPG,,,,,,,,,,,,,,,,,0,5,5,5,,,,,,,AMSA02.jpg,AMNE14.jpg,AMNE15.jpg,AMSA01.jpg,AMSA02.jpg,MS,2,num_8,16,num_8,0.300122714834,,,2017_Dec_11_1746,59.9964207777,MAFE4ImagesEEG,001,202491,
AFNE01.JPG,AFNE01.JPG,AFNE01.JPG,AFNE01.JPG,AFNE01.JPG,AFNE01.JPG,,,,,,,,,,,,,,,,,0,6,6,6,,,,,,,AMSA04.jpg,AMNE06.jpg,AMSA13.jpg,AMNE11.jpg,AMSA04.jpg,MS,2,num_8,32,num_2,0.233566125855,,,2017_Dec_11_1746,59.9964207777,MAFE4ImagesEEG,001,202491,
AFNE01.JPG,AFNE01.JPG,AFNE01.JPG,AFNE01.JPG,AFNE01.JPG,AFNE01.JPG,,,,,,,,,,,,,,,,,0,7,7,9,,,,,,,AMNE20.jpg,AMSA10.jpg,AMNE14.jpg,AMSA17.jpg,AMNE14.jpg,MN,1,num_2,32,num_6,0.166856864933,,,2017_Dec_11_1746,59.9964207777,MAFE4ImagesEEG,001,202491,
AFNE01.JPG,AFNE01.JPG,AFNE01.JPG,AFNE01.JPG,AFNE01.JPG,AFNE01.JPG,,,,,,,,,,,,,,,,,0,8,8,7,,,,,,,AMSA14.jpg,AMNE01.jpg,AMSA02.jpg,AMNE10.jpg,AMSA14.jpg,MS,2,num_8,16,num_8,0.416755992686,,,2017_Dec_11_1746,59.9964207777,MAFE4ImagesEEG,001,202491,
AFNE01.JPG,AFNE01.JPG,AFNE01.JPG,AFNE01.JPG,AFNE01.JPG,AFNE01.JPG,,,,,,,,,,,,,,,,,0,9,9,3,,,,,,,AMNE03.jpg,AMSA05.jpg,AMSA14.jpg,AMNE06.jpg,AMNE03.jpg,MN,1,num_8,32,num_6,0.466796116903,,,2017_Dec_11_1746,59.9964207777,MAFE4ImagesEEG,001,202491,
AFNE01.JPG,AFNE01.JPG,AFNE01.JPG,AFNE01.JPG,AFNE01.JPG,AFNE01.JPG,,,,,,,,,,,,,,,,,1,0,10,7,,,,,,,AMSA08.jpg,AMNE12.jpg,AMNE03.jpg,AMSA03.jpg,AMNE12.jpg,MN,1,num_6,16,num_6,0.566877969541,,,2017_Dec_11_1746,59.9964207777,MAFE4ImagesEEG,001,202491,
AFNE01.JPG,AFNE01.JPG,AFNE01.JPG,AFNE01.JPG,AFNE01.JPG,AFNE01.JPG,,,,,,,,,,,,,,,,,1,1,11,3,,,,,,,AMSA06.jpg,AMSA02.jpg,AMNE08.jpg,AMNE04.jpg,AMNE08.jpg,MN,1,num_2,32,num_6,0.283494312316,,,2017_Dec_11_1746,59.9964207777,MAFE4ImagesEEG,001,202491,
AFNE01.JPG,AFNE01.JPG,AFNE01.JPG,AFNE01.JPG,AFNE01.JPG,AFNE01.JPG,,,,,,,,,,,,,,,,,1,2,12,1,,,,,,,AMSA03.jpg,AMNE09.jpg,AMSA14.jpg,AMNE18.jpg,AMNE18.jpg,MN,1,num_4,32,num_8,0.716794352978,,,2017_Dec_11_1746,59.9964207777,MAFE4ImagesEEG,001,202491,
AFNE01.JPG,AFNE01.JPG,AFNE01.JPG,AFNE01.JPG,AFNE01.JPG,AFNE01.JPG,,,,,,,,,,,,,,,,,1,3,13,2,,,,,,,AMNE06.jpg,AMSA04.jpg,AMSA06.jpg,AMNE09.jpg,AMSA06.jpg,MS,2,num_2,32,num_8,1.04996859957,,,2017_Dec_11_1746,59.9964207777,MAFE4ImagesEEG,001,202491,
AFNE01.JPG,AFNE01.JPG,AFNE01.JPG,AFNE01.JPG,AFNE01.JPG,AFNE01.JPG,,,,,,,,,,,,,,,,,1,4,14,0,,,,,,,AMSA15.jpg,AMNE14.jpg,AMNE13.jpg,AMSA09.jpg,AMSA09.jpg,MS,2,num_4,16,num_4,0.850166687975,,,2017_Dec_11_1746,59.9964207777,MAFE4ImagesEEG,001,202491,
AFNE01.JPG,AFNE01.JPG,AFNE01.JPG,AFNE01.JPG,AFNE01.JPG,AFNE01.JPG,,,,,,,,,,,,,,,,,1,5,15,6,,,,,,,AMSA11.jpg,AMNE05.jpg,AMNE10.jpg,AMSA17.jpg,AMSA17.jpg,MS,2,num_4,16,num_4,0.600120020565,,,2017_Dec_11_1746,59.9964207777,MAFE4ImagesEEG,001,202491,
AFNE01.JPG,AFNE01.JPG,AFNE01.JPG,AFNE01.JPG,AFNE01.JPG,AFNE01.JPG,,,,,,,,,,,,,,,,,1,6,16,9,,,,,,,AMSA03.jpg,AMNE09.jpg,AMSA04.jpg,AMNE14.jpg,AMNE09.jpg,MN,1,num_6,16,num_6,1.20007197396,,,2017_Dec_11_1746,59.9964207777,MAFE4ImagesEEG,001,202491,
AFNE01.JPG,AFNE01.JPG,AFNE01.JPG,AFNE01.JPG,AFNE01.JPG,AFNE01.JPG,,,,,,,,,,,,,,,,,1,7,17,4,,,,,,,AMSA01.jpg,AMNE03.jpg,AMSA02.jpg,AMNE18.jpg,AMNE03.jpg,MN,1,num_6,32,num_8,0.366810486186,,,2017_Dec_11_1746,59.9964207777,MAFE4ImagesEEG,001,202491,
AFNE01.JPG,AFNE01.JPG,AFNE01.JPG,AFNE01.JPG,AFNE01.JPG,AFNE01.JPG,,,,,,,,,,,,,,,,,1,8,18,5,,,,,,,AMNE14.jpg,AMSA14.jpg,AMSA17.jpg,AMNE05.jpg,AMSA14.jpg,MS,2,num_6,16,num_6,0.550192475552,,,2017_Dec_11_1746,59.9964207777,MAFE4ImagesEEG,001,202491,
AFNE01.JPG,AFNE01.JPG,AFNE01.JPG,AFNE01.JPG,AFNE01.JPG,AFNE01.JPG,,,,,,,,,,,,,,,,,1,9,19,8,,,,,,,AMSA12.jpg,AMNE15.jpg,AMNE11.jpg,AMSA13.jpg,AMNE11.jpg,MN,1,num_2,32,num_8,1.51645809016,,,2017_Dec_11_1746,59.9964207777,MAFE4ImagesEEG,001,202491,
AFNE01.JPG,AFNE01.JPG,AFNE01.JPG,AFNE01.JPG,AFNE01.JPG,AFNE01.JPG,,,,,,,,,,,,,,,,,2,0,20,8,,,,,,,AMNE06.jpg,AMSA13.jpg,AMSA06.jpg,AMNE10.jpg,AMNE06.jpg,MN,1,num_8,32,num_2,0.433339491487,,,2017_Dec_11_1746,59.9964207777,MAFE4ImagesEEG,001,202491,
AFNE01.JPG,AFNE01.JPG,AFNE01.JPG,AFNE01.JPG,AFNE01.JPG,AFNE01.JPG,,,,,,,,,,,,,,,,,2,1,21,3,,,,,,,AMSA05.jpg,AMSA14.jpg,AMNE13.jpg,AMNE20.jpg,AMNE20.jpg,MN,1,num_4,32,num_6,0.333489854122,,,2017_Dec_11_1746,59.9964207777,MAFE4ImagesEEG,001,202491,
AFNE01.JPG,AFNE01.JPG,AFNE01.JPG,AFNE01.JPG,AFNE01.JPG,AFNE01.JPG,,,,,,,,,,,,,,,,,2,2,22,4,,,,,,,AMSA20.jpg,AMNE20.jpg,AMSA13.jpg,AMNE12.jpg,AMSA13.jpg,MS,2,num_2,32,num_4,0.3334789488,,,2017_Dec_11_1746,59.9964207777,MAFE4ImagesEEG,001,202491,
AFNE01.JPG,AFNE01.JPG,AFNE01.JPG,AFNE01.JPG,AFNE01.JPG,AFNE01.JPG,,,,,,,,,,,,,,,,,2,3,23,5,,,,,,,AMSA10.jpg,AMNE02.jpg,AMNE16.jpg,AMSA16.jpg,AMNE02.jpg,MN,1,num_6,16,num_6,0.0668144633528,,,2017_Dec_11_1746,59.9964207777,MAFE4ImagesEEG,001,202491,
AFNE01.JPG,AFNE01.JPG,AFNE01.JPG,AFNE01.JPG,AFNE01.JPG,AFNE01.JPG,,,,,,,,,,,,,,,,,2,4,24,6,,,,,,,AMNE14.jpg,AMNE10.jpg,AMSA14.jpg,AMSA03.jpg,AMNE14.jpg,MN,1,num_8,16,num_8,0.733480809256,,,2017_Dec_11_1746,59.9964207777,MAFE4ImagesEEG,001,202491,
AFNE01.JPG,AFNE01.JPG,AFNE01.JPG,AFNE01.JPG,AFNE01.JPG,AFNE01.JPG,,,,,,,,,,,,,,,,,2,5,25,0,,,,,,,AMSA01.jpg,AMNE10.jpg,AMSA18.jpg,AMNE12.jpg,AMSA01.jpg,MS,2,num_8,32,num_4,0.300024568569,,,2017_Dec_11_1746,59.9964207777,MAFE4ImagesEEG,001,202491,
AFNE01.JPG,AFNE01.JPG,AFNE01.JPG,AFNE01.JPG,AFNE01.JPG,AFNE01.JPG,,,,,,,,,,,,,,,,,2,6,26,1,,,,,,,AMSA19.jpg,AMSA02.jpg,AMNE03.jpg,AMNE19.jpg,AMSA19.jpg,MS,2,num_8,32,num_6,0.400185964769,,,2017_Dec_11_1746,59.9964207777,MAFE4ImagesEEG,001,202491,
AFNE01.JPG,AFNE01.JPG,AFNE01.JPG,AFNE01.JPG,AFNE01.JPG,AFNE01.JPG,,,,,,,,,,,,,,,,,2,7,27,7,,,,,,,AMSA07.jpg,AMNE02.jpg,AMNE16.jpg,AMSA11.jpg,AMSA07.jpg,MS,2,num_8,32,num_4,0.350146481534,,,2017_Dec_11_1746,59.9964207777,MAFE4ImagesEEG,001,202491,
AFNE01.JPG,AFNE01.JPG,AFNE01.JPG,AFNE01.JPG,AFNE01.JPG,AFNE01.JPG,,,,,,,,,,,,,,,,,2,8,28,2,,,,,,,AMSA04.jpg,AMSA13.jpg,AMNE07.jpg,AMNE18.jpg,AMSA13.jpg,MS,2,num_6,16,num_6,0.300147091039,,,2017_Dec_11_1746,59.9964207777,MAFE4ImagesEEG,001,202491,
AFNE01.JPG,AFNE01.JPG,AFNE01.JPG,AFNE01.JPG,AFNE01.JPG,AFNE01.JPG,,,,,,,,,,,,,,,,,2,9,29,9,,,,,,,AMNE12.jpg,AMSA12.jpg,AMSA17.jpg,AMNE14.jpg,AMSA12.jpg,MS,2,num_6,32,num_2,0.633422049694,,,2017_Dec_11_1746,59.9964207777,MAFE4ImagesEEG,001,202491,
AFNE01.JPG,AFNE01.JPG,AFNE01.JPG,AFNE01.JPG,AFNE01.JPG,AFNE01.JPG,,,,,,,,,,,,,,,,,3,0,30,6,,,,,,,AMNE10.jpg,AMNE20.jpg,AMSA08.jpg,AMSA18.jpg,AMSA08.jpg,MS,2,num_2,32,num_8,0.383497263072,,,2017_Dec_11_1746,59.9964207777,MAFE4ImagesEEG,001,202491,
AFNE01.JPG,AFNE01.JPG,AFNE01.JPG,AFNE01.JPG,AFNE01.JPG,AFNE01.JPG,,,,,,,,,,,,,,,,,3,1,31,3,,,,,,,AMNE02.jpg,AMNE11.jpg,AMSA04.jpg,AMSA05.jpg,AMNE11.jpg,MN,1,num_6,32,num_4,0.516760546947,,,2017_Dec_11_1746,59.9964207777,MAFE4ImagesEEG,001,202491,
AFNE01.JPG,AFNE01.JPG,AFNE01.JPG,AFNE01.JPG,AFNE01.JPG,AFNE01.JPG,,,,,,,,,,,,,,,,,3,2,32,9,,,,,,,AMSA04.jpg,AMNE13.jpg,AMNE02.jpg,AMSA09.jpg,AMSA09.jpg,MS,2,num_4,32,num_8,0.566851348383,,,2017_Dec_11_1746,59.9964207777,MAFE4ImagesEEG,001,202491,
AFNE01.JPG,AFNE01.JPG,AFNE01.JPG,AFNE01.JPG,AFNE01.JPG,AFNE01.JPG,,,,,,,,,,,,,,,,,3,3,33,1,,,,,,,AMSA13.jpg,AMNE05.jpg,AMNE06.jpg,AMSA12.jpg,AMSA12.jpg,MS,2,num_4,32,num_6,0.383470641682,,,2017_Dec_11_1746,59.9964207777,MAFE4ImagesEEG,001,202491,
AFNE01.JPG,AFNE01.JPG,AFNE01.JPG,AFNE01.JPG,AFNE01.JPG,AFNE01.JPG,,,,,,,,,,,,,,,,,3,4,34,0,,,,,,,AMNE20.jpg,AMSA07.jpg,AMSA19.jpg,AMNE02.jpg,AMNE02.jpg,MN,1,num_4,32,num_2,0.366855710279,,,2017_Dec_11_1746,59.9964207777,MAFE4ImagesEEG,001,202491,
AFNE01.JPG,AFNE01.JPG,AFNE01.JPG,AFNE01.JPG,AFNE01.JPG,AFNE01.JPG,,,,,,,,,,,,,,,,,3,5,35,5,,,,,,,AMSA19.jpg,AMNE10.jpg,AMSA15.jpg,AMNE03.jpg,AMNE03.jpg,MN,1,num_4,32,num_8,0.433478371706,,,2017_Dec_11_1746,59.9964207777,MAFE4ImagesEEG,001,202491,
AFNE01.JPG,AFNE01.JPG,AFNE01.JPG,AFNE01.JPG,AFNE01.JPG,AFNE01.JPG,,,,,,,,,,,,,,,,,3,6,36,4,,,,,,,AMSA04.jpg,AMNE01.jpg,AMNE04.jpg,AMSA01.jpg,AMNE04.jpg,MN,1,num_2,32,num_6,0.466809908859,,,2017_Dec_11_1746,59.9964207777,MAFE4ImagesEEG,001,202491,
AFNE01.JPG,AFNE01.JPG,AFNE01.JPG,AFNE01.JPG,AFNE01.JPG,AFNE01.JPG,,,,,,,,,,,,,,,,,3,7,37,7,,,,,,,AMSA02.jpg,AMNE16.jpg,AMNE15.jpg,AMSA06.jpg,AMSA06.jpg,MS,2,num_4,16,num_4,0.533433211502,,,2017_Dec_11_1746,59.9964207777,MAFE4ImagesEEG,001,202491,
AFNE01.JPG,AFNE01.JPG,AFNE01.JPG,AFNE01.JPG,AFNE01.JPG,AFNE01.JPG,,,,,,,,,,,,,,,,,3,8,38,8,,,,,,,AMSA08.jpg,AMNE05.jpg,AMSA04.jpg,AMNE08.jpg,AMSA04.jpg,MS,2,num_2,32,num_6,0.28350714175,,,2017_Dec_11_1746,59.9964207777,MAFE4ImagesEEG,001,202491,
AFNE01.JPG,AFNE01.JPG,AFNE01.JPG,AFNE01.JPG,AFNE01.JPG,AFNE01.JPG,,,,,,,,,,,,,,,,,3,9,39,2,,,,,,,AMNE17.jpg,AMSA02.jpg,AMSA12.jpg,AMNE12.jpg,AMNE17.jpg,MN,1,num_8,16,num_8,0.650182276033,,,2017_Dec_11_1746,59.9964207777,MAFE4ImagesEEG,001,202491,
AFNE01.JPG,AFNE01.JPG,AFNE01.JPG,AFNE01.JPG,AFNE01.JPG,AFNE01.JPG,,,,,,,,,,,,,,,,,4,0,40,6,,,,,,,AMSA07.jpg,AMSA19.jpg,AMNE12.jpg,AMNE18.jpg,AMSA07.jpg,MS,2,num_8,32,num_6,0.300174353644,,,2017_Dec_11_1746,59.9964207777,MAFE4ImagesEEG,001,202491,
AFNE01.JPG,AFNE01.JPG,AFNE01.JPG,AFNE01.JPG,AFNE01.JPG,AFNE01.JPG,,,,,,,,,,,,,,,,,4,1,41,0,,,,,,,AMSA05.jpg,AMSA01.jpg,AMNE03.jpg,AMNE04.jpg,AMSA05.jpg,MS,2,num_8,16,num_8,0.366794769885,,,2017_Dec_11_1746,59.9964207777,MAFE4ImagesEEG,001,202491,
AFNE01.JPG,AFNE01.JPG,AFNE01.JPG,AFNE01.JPG,AFNE01.JPG,AFNE01.JPG,,,,,,,,,,,,,,,,,4,2,42,3,,,,,,,AMSA09.jpg,AMSA16.jpg,AMNE02.jpg,AMNE16.jpg,AMNE02.jpg,MN,1,num_2,16,num_2,0.366798618576,,,2017_Dec_11_1746,59.9964207777,MAFE4ImagesEEG,001,202491,
AFNE01.JPG,AFNE01.JPG,AFNE01.JPG,AFNE01.JPG,AFNE01.JPG,AFNE01.JPG,,,,,,,,,,,,,,,,,4,3,43,8,,,,,,,AMNE14.jpg,AMSA01.jpg,AMNE07.jpg,AMSA06.jpg,AMNE07.jpg,MN,1,num_2,32,num_4,0.733494280372,,,2017_Dec_11_1746,59.9964207777,MAFE4ImagesEEG,001,202491,
AFNE01.JPG,AFNE01.JPG,AFNE01.JPG,AFNE01.JPG,AFNE01.JPG,AFNE01.JPG,,,,,,,,,,,,,,,,,4,4,44,5,,,,,,,AMNE09.jpg,AMSA16.jpg,AMNE20.jpg,AMSA02.jpg,AMSA02.jpg,MS,2,num_4,16,num_4,0.766651976854,,,2017_Dec_11_1746,59.9964207777,MAFE4ImagesEEG,001,202491,
AFNE01.JPG,AFNE01.JPG,AFNE01.JPG,AFNE01.JPG,AFNE01.JPG,AFNE01.JPG,,,,,,,,,,,,,,,,,4,5,45,7,,,,,,,AMSA12.jpg,AMNE10.jpg,AMSA10.jpg,AMNE18.jpg,AMNE18.jpg,MN,1,num_4,16,num_4,1.06678335159,,,2017_Dec_11_1746,59.9964207777,MAFE4ImagesEEG,001,202491,
AFNE01.JPG,AFNE01.JPG,AFNE01.JPG,AFNE01.JPG,AFNE01.JPG,AFNE01.JPG,,,,,,,,,,,,,,,,,4,6,46,2,,,,,,,AMSA14.jpg,AMNE09.jpg,AMSA20.jpg,AMNE01.jpg,AMSA20.jpg,MS,2,num_2,16,num_2,0.666776680155,,,2017_Dec_11_1746,59.9964207777,MAFE4ImagesEEG,001,202491,
AFNE01.JPG,AFNE01.JPG,AFNE01.JPG,AFNE01.JPG,AFNE01.JPG,AFNE01.JPG,,,,,,,,,,,,,,,,,4,7,47,1,,,,,,,AMNE12.jpg,AMSA19.jpg,AMNE07.jpg,AMSA02.jpg,AMNE07.jpg,MN,1,num_2,32,num_6,0.350216081832,,,2017_Dec_11_1746,59.9964207777,MAFE4ImagesEEG,001,202491,
AFNE01.JPG,AFNE01.JPG,AFNE01.JPG,AFNE01.JPG,AFNE01.JPG,AFNE01.JPG,,,,,,,,,,,,,,,,,4,8,48,4,,,,,,,AMSA16.jpg,AMNE02.jpg,AMNE03.jpg,AMSA12.jpg,AMNE02.jpg,MN,1,num_6,16,num_6,0.400156777352,,,2017_Dec_11_1746,59.9964207777,MAFE4ImagesEEG,001,202491,
AFNE01.JPG,AFNE01.JPG,AFNE01.JPG,AFNE01.JPG,AFNE01.JPG,AFNE01.JPG,,,,,,,,,,,,,,,,,4,9,49,9,,,,,,,AMSA04.jpg,AMNE01.jpg,AMNE13.jpg,AMSA07.jpg,AMNE13.jpg,MN,1,num_2,32,num_8,0.366799260257,,,2017_Dec_11_1746,59.9964207777,MAFE4ImagesEEG,001,202491,
AFNE01.JPG,AFNE01.JPG,AFNE01.JPG,AFNE01.JPG,AFNE01.JPG,AFNE01.JPG,,,,,,,,,,,,,,,,,5,0,50,0,,,,,,,AMSA06.jpg,AMNE04.jpg,AMSA11.jpg,AMNE01.jpg,AMSA06.jpg,MS,2,num_8,32,num_2,0.316805963637,,,2017_Dec_11_1746,59.9964207777,MAFE4ImagesEEG,001,202491,
AFNE01.JPG,AFNE01.JPG,AFNE01.JPG,AFNE01.JPG,AFNE01.JPG,AFNE01.JPG,,,,,,,,,,,,,,,,,5,1,51,3,,,,,,,AMNE01.jpg,AMSA09.jpg,AMNE19.jpg,AMSA17.jpg,AMNE19.jpg,MN,1,num_2,16,num_2,1.35008489969,,,2017_Dec_11_1746,59.9964207777,MAFE4ImagesEEG,001,202491,
AFNE01.JPG,AFNE01.JPG,AFNE01.JPG,AFNE01.JPG,AFNE01.JPG,AFNE01.JPG,,,,,,,,,,,,,,,,,5,2,52,8,,,,,,,AMNE08.jpg,AMSA15.jpg,AMSA06.jpg,AMNE02.jpg,AMNE02.jpg,MN,1,num_4,16,num_4,0.683477890445,,,2017_Dec_11_1746,59.9964207777,MAFE4ImagesEEG,001,202491,
AFNE01.JPG,AFNE01.JPG,AFNE01.JPG,AFNE01.JPG,AFNE01.JPG,AFNE01.JPG,,,,,,,,,,,,,,,,,5,3,53,2,,,,,,,AMSA10.jpg,AMNE01.jpg,AMNE17.jpg,AMSA03.jpg,AMSA10.jpg,MS,2,num_8,16,num_8,0.350213516038,,,2017_Dec_11_1746,59.9964207777,MAFE4ImagesEEG,001,202491,
AFNE01.JPG,AFNE01.JPG,AFNE01.JPG,AFNE01.JPG,AFNE01.JPG,AFNE01.JPG,,,,,,,,,,,,,,,,,5,4,54,7,,,,,,,AMNE06.jpg,AMSA04.jpg,AMSA07.jpg,AMNE03.jpg,AMSA07.jpg,MS,2,num_2,16,num_2,0.366785789141,,,2017_Dec_11_1746,59.9964207777,MAFE4ImagesEEG,001,202491,
AFNE01.JPG,AFNE01.JPG,AFNE01.JPG,AFNE01.JPG,AFNE01.JPG,AFNE01.JPG,,,,,,,,,,,,,,,,,5,5,55,5,,,,,,,AMSA12.jpg,AMSA11.jpg,AMNE12.jpg,AMNE16.jpg,AMSA11.jpg,MS,2,num_6,16,num_6,0.31681077485,,,2017_Dec_11_1746,59.9964207777,MAFE4ImagesEEG,001,202491,
AFNE01.JPG,AFNE01.JPG,AFNE01.JPG,AFNE01.JPG,AFNE01.JPG,AFNE01.JPG,,,,,,,,,,,,,,,,,5,6,56,9,,,,,,,AMNE17.jpg,AMSA05.jpg,AMSA18.jpg,AMNE06.jpg,AMNE17.jpg,MN,1,num_8,32,num_4,0.35015000985,,,2017_Dec_11_1746,59.9964207777,MAFE4ImagesEEG,001,202491,
AFNE01.JPG,AFNE01.JPG,AFNE01.JPG,AFNE01.JPG,AFNE01.JPG,AFNE01.JPG,,,,,,,,,,,,,,,,,5,7,57,4,,,,,,,AMSA09.jpg,AMNE09.jpg,AMSA20.jpg,AMNE11.jpg,AMNE09.jpg,MN,1,num_6,32,num_8,0.516779791331,,,2017_Dec_11_1746,59.9964207777,MAFE4ImagesEEG,001,202491,
AFNE01.JPG,AFNE01.JPG,AFNE01.JPG,AFNE01.JPG,AFNE01.JPG,AFNE01.JPG,,,,,,,,,,,,,,,,,5,8,58,1,,,,,,,AMNE15.jpg,AMNE18.jpg,AMSA06.jpg,AMSA19.jpg,AMNE18.jpg,MN,1,num_6,16,num_6,0.36687752069,,,2017_Dec_11_1746,59.9964207777,MAFE4ImagesEEG,001,202491,
AFNE01.JPG,AFNE01.JPG,AFNE01.JPG,AFNE01.JPG,AFNE01.JPG,AFNE01.JPG,,,,,,,,,,,,,,,,,5,9,59,6,,,,,,,AMNE14.jpg,AMSA01.jpg,AMNE05.jpg,AMSA08.jpg,AMNE14.jpg,MN,1,num_8,16,num_8,0.800101225497,,,2017_Dec_11_1746,59.9964207777,MAFE4ImagesEEG,001,202491,
,,,,,,,,,,,,,,,,,,,,,,,,,,,,,,,,,,,,,,,,,,,space,15.1993275383,2017_Dec_11_1746,59.9964207777,MAFE4ImagesEEG,001,202491,
AFNE01.JPG,AFNE01.JPG,AFNE01.JPG,AFNE01.JPG,AFNE01.JPG,AFNE01.JPG,,,,,,,,,,,,,,,,,,,,,0,0,0,5,,,AFNE03.jpg,AFSA16.jpg,AFNE14.jpg,AFSA14.jpg,AFSA16.jpg,FS,4,num_6,16,num_6,0.483458838658,,,2017_Dec_11_1746,59.9964207777,MAFE4ImagesEEG,001,202491,
AFNE01.JPG,AFNE01.JPG,AFNE01.JPG,AFNE01.JPG,AFNE01.JPG,AFNE01.JPG,,,,,,,,,,,,,,,,,,,,,0,1,1,0,,,AFSA09.jpg,AFNE06.jpg,AFNE18.jpg,AFSA11.jpg,AFNE18.jpg,FN,3,num_2,32,num_8,0.400134325493,,,2017_Dec_11_1746,59.9964207777,MAFE4ImagesEEG,001,202491,
AFNE01.JPG,AFNE01.JPG,AFNE01.JPG,AFNE01.JPG,AFNE01.JPG,AFNE01.JPG,,,,,,,,,,,,,,,,,,,,,0,2,2,7,,,AFSA02.jpg,AFNE08.jpg,AFSA10.jpg,AFNE19.jpg,AFNE08.jpg,FN,3,num_6,32,num_2,0.333489212673,,,2017_Dec_11_1746,59.9964207777,MAFE4ImagesEEG,001,202491,
AFNE01.JPG,AFNE01.JPG,AFNE01.JPG,AFNE01.JPG,AFNE01.JPG,AFNE01.JPG,,,,,,,,,,,,,,,,,,,,,0,3,3,8,,,AFSA11.jpg,AFNE10.jpg,AFSA05.jpg,AFNE11.jpg,AFSA05.jpg,FS,4,num_2,32,num_8,0.216804295778,,,2017_Dec_11_1746,59.9964207777,MAFE4ImagesEEG,001,202491,
AFNE01.JPG,AFNE01.JPG,AFNE01.JPG,AFNE01.JPG,AFNE01.JPG,AFNE01.JPG,,,,,,,,,,,,,,,,,,,,,0,4,4,6,,,AFNE07.jpg,AFSA14.jpg,AFSA19.jpg,AFNE10.jpg,AFSA19.jpg,FS,4,num_2,16,num_2,1.01664379798,,,2017_Dec_11_1746,59.9964207777,MAFE4ImagesEEG,001,202491,
AFNE01.JPG,AFNE01.JPG,AFNE01.JPG,AFNE01.JPG,AFNE01.JPG,AFNE01.JPG,,,,,,,,,,,,,,,,,,,,,0,5,5,2,,,AFNE09.jpg,AFNE12.jpg,AFSA08.jpg,AFSA06.jpg,AFNE12.jpg,FN,3,num_6,32,num_2,0.300216691568,,,2017_Dec_11_1746,59.9964207777,MAFE4ImagesEEG,001,202491,
AFNE01.JPG,AFNE01.JPG,AFNE01.JPG,AFNE01.JPG,AFNE01.JPG,AFNE01.JPG,,,,,,,,,,,,,,,,,,,,,0,6,6,3,,,AFNE09.jpg,AFSA03.jpg,AFSA16.jpg,AFNE03.jpg,AFNE09.jpg,FN,3,num_8,32,num_6,0.283525744686,,,2017_Dec_11_1746,59.9964207777,MAFE4ImagesEEG,001,202491,
AFNE01.JPG,AFNE01.JPG,AFNE01.JPG,AFNE01.JPG,AFNE01.JPG,AFNE01.JPG,,,,,,,,,,,,,,,,,,,,,0,7,7,1,,,AFNE09.jpg,AFSA12.jpg,AFSA11.jpg,AFNE03.jpg,AFNE09.jpg,FN,3,num_8,16,num_8,1.31676202244,,,2017_Dec_11_1746,59.9964207777,MAFE4ImagesEEG,001,202491,
AFNE01.JPG,AFNE01.JPG,AFNE01.JPG,AFNE01.JPG,AFNE01.JPG,AFNE01.JPG,,,,,,,,,,,,,,,,,,,,,0,8,8,4,,,AFSA10.jpg,AFNE01.jpg,AFSA09.jpg,AFNE17.jpg,AFSA09.jpg,FS,4,num_2,32,num_4,0.416768822121,,,2017_Dec_11_1746,59.9964207777,MAFE4ImagesEEG,001,202491,
AFNE01.JPG,AFNE01.JPG,AFNE01.JPG,AFNE01.JPG,AFNE01.JPG,AFNE01.JPG,,,,,,,,,,,,,,,,,,,,,0,9,9,9,,,AFSA03.jpg,AFNE03.jpg,AFSA05.jpg,AFNE05.jpg,AFNE05.jpg,FN,3,num_4,32,num_6,0.316861451603,,,2017_Dec_11_1746,59.9964207777,MAFE4ImagesEEG,001,202491,
AFNE01.JPG,AFNE01.JPG,AFNE01.JPG,AFNE01.JPG,AFNE01.JPG,AFNE01.JPG,,,,,,,,,,,,,,,,,,,,,1,0,10,3,,,AFSA02.jpg,AFSA06.jpg,AFNE10.jpg,AFNE14.jpg,AFNE14.jpg,FN,3,num_4,32,num_2,0.316835471895,,,2017_Dec_11_1746,59.9964207777,MAFE4ImagesEEG,001,202491,
AFNE01.JPG,AFNE01.JPG,AFNE01.JPG,AFNE01.JPG,AFNE01.JPG,AFNE01.JPG,,,,,,,,,,,,,,,,,,,,,1,1,11,0,,,AFSA20.jpg,AFNE14.jpg,AFNE11.jpg,AFSA15.jpg,AFSA15.jpg,FS,4,num_4,32,num_2,0.600118096219,,,2017_Dec_11_1746,59.9964207777,MAFE4ImagesEEG,001,202491,
AFNE01.JPG,AFNE01.JPG,AFNE01.JPG,AFNE01.JPG,AFNE01.JPG,AFNE01.JPG,,,,,,,,,,,,,,,,,,,,,1,2,12,4,,,AFSA05.jpg,AFNE04.jpg,AFSA15.jpg,AFNE17.jpg,AFNE04.jpg,FN,3,num_6,32,num_8,0.533462398918,,,2017_Dec_11_1746,59.9964207777,MAFE4ImagesEEG,001,202491,
AFNE01.JPG,AFNE01.JPG,AFNE01.JPG,AFNE01.JPG,AFNE01.JPG,AFNE01.JPG,,,,,,,,,,,,,,,,,,,,,1,3,13,1,,,AFNE04.jpg,AFSA14.jpg,AFNE13.jpg,AFSA15.jpg,AFNE13.jpg,FN,3,num_2,32,num_6,0.383489244618,,,2017_Dec_11_1746,59.9964207777,MAFE4ImagesEEG,001,202491,
AFNE01.JPG,AFNE01.JPG,AFNE01.JPG,AFNE01.JPG,AFNE01.JPG,AFNE01.JPG,,,,,,,,,,,,,,,,,,,,,1,4,14,5,,,AFNE14.jpg,AFSA10.jpg,AFSA17.jpg,AFNE01.jpg,AFNE01.jpg,FN,3,num_4,32,num_2,0.316839320585,,,2017_Dec_11_1746,59.9964207777,MAFE4ImagesEEG,001,202491,
AFNE01.JPG,AFNE01.JPG,AFNE01.JPG,AFNE01.JPG,AFNE01.JPG,AFNE01.JPG,,,,,,,,,,,,,,,,,,,,,1,5,15,9,,,AFNE03.jpg,AFSA14.jpg,AFNE14.jpg,AFSA01.jpg,AFSA14.jpg,FS,4,num_6,32,num_4,0.333490816178,,,2017_Dec_11_1746,59.9964207777,MAFE4ImagesEEG,001,202491,
AFNE01.JPG,AFNE01.JPG,AFNE01.JPG,AFNE01.JPG,AFNE01.JPG,AFNE01.JPG,,,,,,,,,,,,,,,,,,,,,1,6,16,7,,,AFSA20.jpg,AFSA05.jpg,AFNE04.jpg,AFNE18.jpg,AFNE18.jpg,FN,3,num_4,32,num_2,0.300221502315,,,2017_Dec_11_1746,59.9964207777,MAFE4ImagesEEG,001,202491,
AFNE01.JPG,AFNE01.JPG,AFNE01.JPG,AFNE01.JPG,AFNE01.JPG,AFNE01.JPG,,,,,,,,,,,,,,,,,,,,,1,7,17,6,,,AFNE11.jpg,AFSA03.jpg,AFNE13.jpg,AFSA11.jpg,AFNE11.jpg,FN,3,num_8,32,num_4,0.60017647082,,,2017_Dec_11_1746,59.9964207777,MAFE4ImagesEEG,001,202491,
AFNE01.JPG,AFNE01.JPG,AFNE01.JPG,AFNE01.JPG,AFNE01.JPG,AFNE01.JPG,,,,,,,,,,,,,,,,,,,,,1,8,18,2,,,AFSA12.jpg,AFSA01.jpg,AFNE03.jpg,AFNE17.jpg,AFSA12.jpg,FS,4,num_8,16,num_8,0.350131406914,,,2017_Dec_11_1746,59.9964207777,MAFE4ImagesEEG,001,202491,
AFNE01.JPG,AFNE01.JPG,AFNE01.JPG,AFNE01.JPG,AFNE01.JPG,AFNE01.JPG,,,,,,,,,,,,,,,,,,,,,1,9,19,8,,,AFNE09.jpg,AFSA06.jpg,AFSA20.jpg,AFNE18.jpg,AFNE18.jpg,FN,3,num_4,16,num_4,0.583505089162,,,2017_Dec_11_1746,59.9964207777,MAFE4ImagesEEG,001,202491,
AFNE01.JPG,AFNE01.JPG,AFNE01.JPG,AFNE01.JPG,AFNE01.JPG,AFNE01.JPG,,,,,,,,,,,,,,,,,,,,,2,0,20,6,,,AFNE07.jpg,AFSA09.jpg,AFNE15.jpg,AFSA15.jpg,AFNE07.jpg,FN,3,num_8,32,num_6,0.216817125445,,,2017_Dec_11_1746,59.9964207777,MAFE4ImagesEEG,001,202491,
AFNE01.JPG,AFNE01.JPG,AFNE01.JPG,AFNE01.JPG,AFNE01.JPG,AFNE01.JPG,,,,,,,,,,,,,,,,,,,,,2,1,21,7,,,AFNE07.jpg,AFSA08.jpg,AFSA04.jpg,AFNE08.jpg,AFNE08.jpg,FN,3,num_4,32,num_8,0.300640708534,,,2017_Dec_11_1746,59.9964207777,MAFE4ImagesEEG,001,202491,
AFNE01.JPG,AFNE01.JPG,AFNE01.JPG,AFNE01.JPG,AFNE01.JPG,AFNE01.JPG,,,,,,,,,,,,,,,,,,,,,2,2,22,9,,,AFNE11.jpg,AFSA13.jpg,AFNE10.jpg,AFSA01.jpg,AFSA13.jpg,FS,4,num_6,32,num_4,0.300168580608,,,2017_Dec_11_1746,59.9964207777,MAFE4ImagesEEG,001,202491,
AFNE01.JPG,AFNE01.JPG,AFNE01.JPG,AFNE01.JPG,AFNE01.JPG,AFNE01.JPG,,,,,,,,,,,,,,,,,,,,,2,3,23,4,,,AFNE20.jpg,AFSA18.jpg,AFSA08.jpg,AFNE17.jpg,AFSA08.jpg,FS,4,num_2,32,num_4,0.316790568177,,,2017_Dec_11_1746,59.9964207777,MAFE4ImagesEEG,001,202491,
AFNE01.JPG,AFNE01.JPG,AFNE01.JPG,AFNE01.JPG,AFNE01.JPG,AFNE01.JPG,,,,,,,,,,,,,,,,,,,,,2,4,24,2,,,AFSA13.jpg,AFNE10.jpg,AFSA11.jpg,AFNE05.jpg,AFNE05.jpg,FN,3,num_4,32,num_8,0.683480456471,,,2017_Dec_11_1746,59.9964207777,MAFE4ImagesEEG,001,202491,
AFNE01.JPG,AFNE01.JPG,AFNE01.JPG,AFNE01.JPG,AFNE01.JPG,AFNE01.JPG,,,,,,,,,,,,,,,,,,,,,2,5,25,3,,,AFSA19.jpg,AFNE13.jpg,AFSA09.jpg,AFNE17.jpg,AFNE13.jpg,FN,3,num_6,32,num_8,0.366789958905,,,2017_Dec_11_1746,59.9964207777,MAFE4ImagesEEG,001,202491,
AFNE01.JPG,AFNE01.JPG,AFNE01.JPG,AFNE01.JPG,AFNE01.JPG,AFNE01.JPG,,,,,,,,,,,,,,,,,,,,,2,6,26,1,,,AFNE01.jpg,AFNE19.jpg,AFSA20.jpg,AFSA15.jpg,AFSA15.jpg,FS,4,num_4,32,num_6,0.333471892634,,,2017_Dec_11_1746,59.9964207777,MAFE4ImagesEEG,001,202491,
AFNE01.JPG,AFNE01.JPG,AFNE01.JPG,AFNE01.JPG,AFNE01.JPG,AFNE01.JPG,,,,,,,,,,,,,,,,,,,,,2,7,27,8,,,AFNE13.jpg,AFNE19.jpg,AFSA18.jpg,AFSA14.jpg,AFSA18.jpg,FS,4,num_2,32,num_4,0.300189107889,,,2017_Dec_11_1746,59.9964207777,MAFE4ImagesEEG,001,202491,
AFNE01.JPG,AFNE01.JPG,AFNE01.JPG,AFNE01.JPG,AFNE01.JPG,AFNE01.JPG,,,,,,,,,,,,,,,,,,,,,2,8,28,5,,,AFSA10.jpg,AFNE03.jpg,AFSA20.jpg,AFNE14.jpg,AFNE14.jpg,FN,3,num_4,32,num_2,0.30015639239,,,2017_Dec_11_1746,59.9964207777,MAFE4ImagesEEG,001,202491,
AFNE01.JPG,AFNE01.JPG,AFNE01.JPG,AFNE01.JPG,AFNE01.JPG,AFNE01.JPG,,,,,,,,,,,,,,,,,,,,,2,9,29,0,,,AFNE02.jpg,AFSA13.jpg,AFNE05.jpg,AFSA16.jpg,AFNE02.jpg,FN,3,num_8,16,num_8,0.316801473266,,,2017_Dec_11_1746,59.9964207777,MAFE4ImagesEEG,001,202491,
AFNE01.JPG,AFNE01.JPG,AFNE01.JPG,AFNE01.JPG,AFNE01.JPG,AFNE01.JPG,,,,,,,,,,,,,,,,,,,,,3,0,30,6,,,AFSA09.jpg,AFNE18.jpg,AFSA18.jpg,AFNE17.jpg,AFNE17.jpg,FN,3,num_4,32,num_6,0.300159920473,,,2017_Dec_11_1746,59.9964207777,MAFE4ImagesEEG,001,202491,
AFNE01.JPG,AFNE01.JPG,AFNE01.JPG,AFNE01.JPG,AFNE01.JPG,AFNE01.JPG,,,,,,,,,,,,,,,,,,,,,3,1,31,4,,,AFNE12.jpg,AFSA09.jpg,AFNE07.jpg,AFSA04.jpg,AFNE12.jpg,FN,3,num_8,32,num_4,0.300129129551,,,2017_Dec_11_1746,59.9964207777,MAFE4ImagesEEG,001,202491,
AFNE01.JPG,AFNE01.JPG,AFNE01.JPG,AFNE01.JPG,AFNE01.JPG,AFNE01.JPG,,,,,,,,,,,,,,,,,,,,,3,2,32,3,,,AFSA06.jpg,AFSA11.jpg,AFNE03.jpg,AFNE08.jpg,AFSA11.jpg,FS,4,num_6,32,num_8,0.350149047561,,,2017_Dec_11_1746,59.9964207777,MAFE4ImagesEEG,001,202491,
AFNE01.JPG,AFNE01.JPG,AFNE01.JPG,AFNE01.JPG,AFNE01.JPG,AFNE01.JPG,,,,,,,,,,,,,,,,,,,,,3,3,33,7,,,AFSA20.jpg,AFNE13.jpg,AFSA06.jpg,AFNE20.jpg,AFSA20.jpg,FS,4,num_8,32,num_2,0.633481386583,,,2017_Dec_11_1746,59.9964207777,MAFE4ImagesEEG,001,202491,
AFNE01.JPG,AFNE01.JPG,AFNE01.JPG,AFNE01.JPG,AFNE01.JPG,AFNE01.JPG,,,,,,,,,,,,,,,,,,,,,3,4,34,2,,,AFSA15.jpg,AFNE11.jpg,AFNE05.jpg,AFSA03.jpg,AFSA15.jpg,FS,4,num_8,16,num_8,0.500179934548,,,2017_Dec_11_1746,59.9964207777,MAFE4ImagesEEG,001,202491,
AFNE01.JPG,AFNE01.JPG,AFNE01.JPG,AFNE01.JPG,AFNE01.JPG,AFNE01.JPG,,,,,,,,,,,,,,,,,,,,,3,5,35,5,,,AFSA18.jpg,AFSA19.jpg,AFNE16.jpg,AFNE11.jpg,AFNE11.jpg,FN,3,num_4,32,num_6,0.366792203858,,,2017_Dec_11_1746,59.9964207777,MAFE4ImagesEEG,001,202491,
AFNE01.JPG,AFNE01.JPG,AFNE01.JPG,AFNE01.JPG,AFNE01.JPG,AFNE01.JPG,,,,,,,,,,,,,,,,,,,,,3,6,36,9,,,AFSA10.jpg,AFSA15.jpg,AFNE17.jpg,AFNE14.jpg,AFNE14.jpg,FN,3,num_4,16,num_4,0.333518079016,,,2017_Dec_11_1746,59.9964207777,MAFE4ImagesEEG,001,202491,
AFNE01.JPG,AFNE01.JPG,AFNE01.JPG,AFNE01.JPG,AFNE01.JPG,AFNE01.JPG,,,,,,,,,,,,,,,,,,,,,3,7,37,1,,,AFSA01.jpg,AFSA02.jpg,AFNE15.jpg,AFNE06.jpg,AFNE15.jpg,FN,3,num_2,32,num_8,0.383488282328,,,2017_Dec_11_1746,59.9964207777,MAFE4ImagesEEG,001,202491,
AFNE01.JPG,AFNE01.JPG,AFNE01.JPG,AFNE01.JPG,AFNE01.JPG,AFNE01.JPG,,,,,,,,,,,,,,,,,,,,,3,8,38,0,,,AFNE16.jpg,AFSA13.jpg,AFNE02.jpg,AFSA17.jpg,AFSA13.jpg,FS,4,num_6,16,num_6,0.966817927314,,,2017_Dec_11_1746,59.9964207777,MAFE4ImagesEEG,001,202491,
