IPosition2,IPosition3,IPosition1,IPosition6,IPosition4,IPosition5,TrialsM1.thisRepN,TrialsM1.thisTrialN,TrialsM1.thisN,TrialsM1.thisIndex,TrialsF1.thisRepN,TrialsF1.thisTrialN,TrialsF1.thisN,TrialsF1.thisIndex,TrialsM2.thisRepN,TrialsM2.thisTrialN,TrialsM2.thisN,TrialsM2.thisIndex,TrialsF2.thisRepN,TrialsF2.thisTrialN,TrialsF2.thisN,TrialsF2.thisIndex,TrialsM3.thisRepN,TrialsM3.thisTrialN,TrialsM3.thisN,TrialsM3.thisIndex,TrialsF3.thisRepN,TrialsF3.thisTrialN,TrialsF3.thisN,TrialsF3.thisIndex,InstrKey_resp.keys,InstrKey_resp.rt,Image0 _Position,Image1 _Position,Image2 _Position,Image3 _Position,Center_image,condition,code,correct_answer,accuracy,Key_Resp.keys,Key_Resp.rt,BreakKey_resp.keys,BreakKey_resp.rt,date,frameRate,expName,session,participant,
,,,,,,,,,,,,,,,,,,,,,,,,,,,,,,space,28.3315817767,,,,,,,,,,,,,,2017_Dec_06_1559,60.0018474842,MAFE4ImagesEEG,001,202534,
AMNE22.JPG,AMSA24.JPG,AMSA22.JPG,AMNE25.JPG,AMNE24.JPG,AMSA25.JPG,0,0,0,7,,,,,,,,,,,,,,,,,,,,,,,AMNE13.jpg,AMSA18.jpg,AMNE17.jpg,AMSA08.jpg,AMNE13.jpg,MN,1,num_8,16,num_8,0.966588277835,,,2017_Dec_06_1559,60.0018474842,MAFE4ImagesEEG,001,202534,
AFNE23.JPG,AFNE24.JPG,AFNE22.JPG,AFSA24.JPG,AFSA22.JPG,AFSA23.JPG,0,1,1,8,,,,,,,,,,,,,,,,,,,,,,,AMNE18.jpg,AMSA18.jpg,AMSA17.jpg,AMNE12.jpg,AMNE18.jpg,MN,1,num_8,16,num_8,1.133437766,,,2017_Dec_06_1559,60.0018474842,MAFE4ImagesEEG,001,202534,
AMSA21.JPG,AMNE23.JPG,AMNE21.JPG,AMSA25.JPG,AMNE25.JPG,AMSA23.JPG,0,2,2,5,,,,,,,,,,,,,,,,,,,,,,,AMSA14.jpg,AMNE14.jpg,AMNE05.jpg,AMSA03.jpg,AMSA03.jpg,MS,2,num_4,32,num_8,0.78347667167,,,2017_Dec_06_1559,60.0018474842,MAFE4ImagesEEG,001,202534,
AFNE22.JPG,AFSA24.JPG,AFSA22.JPG,AFNE25.JPG,AFNE24.JPG,AFSA25.JPG,0,3,3,6,,,,,,,,,,,,,,,,,,,,,,,AMSA17.jpg,AMNE17.jpg,AMNE02.jpg,AMSA10.jpg,AMNE17.jpg,MN,1,num_6,32,num_4,1.06674261764,,,2017_Dec_06_1559,60.0018474842,MAFE4ImagesEEG,001,202534,
AMSA25.JPG,AMNE24.JPG,AMSA24.JPG,AMNE26.JPG,AMSA21.JPG,AMNE25.JPG,0,4,4,3,,,,,,,,,,,,,,,,,,,,,,,AMNE10.jpg,AMSA05.jpg,AMNE02.jpg,AMSA04.jpg,AMSA04.jpg,MS,2,num_4,16,num_4,1.15010754392,,,2017_Dec_06_1559,60.0018474842,MAFE4ImagesEEG,001,202534,
AMNE23.JPG,AMNE24.JPG,AMNE22.JPG,AMSA24.JPG,AMSA22.JPG,AMSA23.JPG,0,5,5,9,,,,,,,,,,,,,,,,,,,,,,,AMSA17.jpg,AMSA04.jpg,AMNE10.jpg,AMNE01.jpg,AMNE01.jpg,MN,1,num_4,16,num_4,1.03342166473,,,2017_Dec_06_1559,60.0018474842,MAFE4ImagesEEG,001,202534,
AFSA25.JPG,AFNE24.JPG,AFSA24.JPG,AFNE21.JPG,AFSA21.JPG,AFNE25.JPG,0,6,6,2,,,,,,,,,,,,,,,,,,,,,,,AMSA06.jpg,AMSA01.jpg,AMNE04.jpg,AMNE18.jpg,AMSA01.jpg,MS,2,num_6,16,num_6,0.550189588917,,,2017_Dec_06_1559,60.0018474842,MAFE4ImagesEEG,001,202534,
AFSA21.JPG,AFNE22.JPG,AFNE21.JPG,AFSA23.JPG,AFSA22.JPG,AFNE23.JPG,0,7,7,0,,,,,,,,,,,,,,,,,,,,,,,AMNE15.jpg,AMSA10.jpg,AMSA13.jpg,AMNE13.jpg,AMNE13.jpg,MN,1,num_4,32,num_8,0.666766737122,,,2017_Dec_06_1559,60.0018474842,MAFE4ImagesEEG,001,202534,
AMSA21.JPG,AMNE22.JPG,AMNE21.JPG,AMSA23.JPG,AMSA22.JPG,AMNE23.JPG,0,8,8,1,,,,,,,,,,,,,,,,,,,,,,,AMNE06.jpg,AMSA10.jpg,AMSA15.jpg,AMNE08.jpg,AMNE06.jpg,MN,1,num_8,32,num_4,0.666713173734,,,2017_Dec_06_1559,60.0018474842,MAFE4ImagesEEG,001,202534,
AFSA21.JPG,AFNE23.JPG,AFNE21.JPG,AFSA25.JPG,AFNE25.JPG,AFSA23.JPG,0,9,9,4,,,,,,,,,,,,,,,,,,,,,,,AMNE18.jpg,AMSA06.jpg,AMSA13.jpg,AMNE19.jpg,AMSA06.jpg,MS,2,num_6,32,num_8,0.850148406113,,,2017_Dec_06_1559,60.0018474842,MAFE4ImagesEEG,001,202534,
AFSA21.JPG,AFNE22.JPG,AFNE21.JPG,AFSA23.JPG,AFSA22.JPG,AFNE23.JPG,,,,,0,0,0,0,,,,,,,,,,,,,,,,,,,AFNE19.jpg,AFSA15.jpg,AFNE04.jpg,AFSA16.jpg,AFNE19.jpg,FN,3,num_8,32,num_4,0.683511568233,,,2017_Dec_06_1559,60.0018474842,MAFE4ImagesEEG,001,202534,
AFNE23.JPG,AFNE24.JPG,AFNE22.JPG,AFSA24.JPG,AFSA22.JPG,AFSA23.JPG,,,,,0,1,1,8,,,,,,,,,,,,,,,,,,,AFSA11.jpg,AFNE12.jpg,AFNE03.jpg,AFSA03.jpg,AFSA03.jpg,FS,4,num_4,32,num_8,0.550105555216,,,2017_Dec_06_1559,60.0018474842,MAFE4ImagesEEG,001,202534,
AFSA25.JPG,AFNE24.JPG,AFSA24.JPG,AFNE21.JPG,AFSA21.JPG,AFNE25.JPG,,,,,0,2,2,2,,,,,,,,,,,,,,,,,,,AFNE15.jpg,AFSA08.jpg,AFNE07.jpg,AFSA16.jpg,AFNE07.jpg,FN,3,num_2,32,num_8,0.950093302876,,,2017_Dec_06_1559,60.0018474842,MAFE4ImagesEEG,001,202534,
AMSA21.JPG,AMNE23.JPG,AMNE21.JPG,AMSA25.JPG,AMNE25.JPG,AMSA23.JPG,,,,,0,3,3,5,,,,,,,,,,,,,,,,,,,AFNE08.jpg,AFSA09.jpg,AFSA14.jpg,AFNE01.jpg,AFNE08.jpg,FN,3,num_8,16,num_8,0.966740308562,,,2017_Dec_06_1559,60.0018474842,MAFE4ImagesEEG,001,202534,
AFNE22.JPG,AFSA24.JPG,AFSA22.JPG,AFNE25.JPG,AFNE24.JPG,AFSA25.JPG,,,,,0,4,4,6,,,,,,,,,,,,,,,,,,,AFNE01.jpg,AFSA16.jpg,AFSA01.jpg,AFNE16.jpg,AFSA16.jpg,FS,4,num_6,32,num_4,1.21678088186,,,2017_Dec_06_1559,60.0018474842,MAFE4ImagesEEG,001,202534,
AFSA21.JPG,AFNE23.JPG,AFNE21.JPG,AFSA25.JPG,AFNE25.JPG,AFSA23.JPG,,,,,0,5,5,4,,,,,,,,,,,,,,,,,,,AFSA16.jpg,AFSA07.jpg,AFNE06.jpg,AFNE17.jpg,AFNE06.jpg,FN,3,num_2,32,num_8,0.416823989246,,,2017_Dec_06_1559,60.0018474842,MAFE4ImagesEEG,001,202534,
AMNE22.JPG,AMSA24.JPG,AMSA22.JPG,AMNE25.JPG,AMNE24.JPG,AMSA25.JPG,,,,,0,6,6,7,,,,,,,,,,,,,,,,,,,AFSA03.jpg,AFSA10.jpg,AFNE03.jpg,AFNE08.jpg,AFSA03.jpg,FS,4,num_8,32,num_2,1.08341913112,,,2017_Dec_06_1559,60.0018474842,MAFE4ImagesEEG,001,202534,
AMSA21.JPG,AMNE22.JPG,AMNE21.JPG,AMSA23.JPG,AMSA22.JPG,AMNE23.JPG,,,,,0,7,7,1,,,,,,,,,,,,,,,,,,,AFNE13.jpg,AFSA05.jpg,AFSA03.jpg,AFNE07.jpg,AFNE13.jpg,FN,3,num_8,16,num_8,0.900128873065,,,2017_Dec_06_1559,60.0018474842,MAFE4ImagesEEG,001,202534,
AMNE23.JPG,AMNE24.JPG,AMNE22.JPG,AMSA24.JPG,AMSA22.JPG,AMSA23.JPG,,,,,0,8,8,9,,,,,,,,,,,,,,,,,,,AFSA07.jpg,AFSA01.jpg,AFNE02.jpg,AFNE06.jpg,AFNE06.jpg,FN,3,num_4,16,num_4,1.25008419412,,,2017_Dec_06_1559,60.0018474842,MAFE4ImagesEEG,001,202534,
AMSA25.JPG,AMNE24.JPG,AMSA24.JPG,AMNE26.JPG,AMSA21.JPG,AMNE25.JPG,,,,,0,9,9,3,,,,,,,,,,,,,,,,,,,AFNE01.jpg,AFSA16.jpg,AFSA09.jpg,AFNE06.jpg,AFNE01.jpg,FN,3,num_8,16,num_8,0.866451258073,,,2017_Dec_06_1559,60.0018474842,MAFE4ImagesEEG,001,202534,
AFNE23.JPG,AFNE24.JPG,AFNE22.JPG,AFSA24.JPG,AFSA22.JPG,AFSA23.JPG,,,,,,,,,0,0,0,8,,,,,,,,,,,,,,,AMNE16.jpg,AMSA16.jpg,AMSA03.jpg,AMNE10.jpg,AMSA16.jpg,MS,2,num_6,16,num_6,1.25009253318,,,2017_Dec_06_1559,60.0018474842,MAFE4ImagesEEG,001,202534,
AFSA25.JPG,AFNE24.JPG,AFSA24.JPG,AFNE21.JPG,AFSA21.JPG,AFNE25.JPG,,,,,,,,,0,1,1,2,,,,,,,,,,,,,,,AMNE02.jpg,AMSA19.jpg,AMSA14.jpg,AMNE09.jpg,AMSA14.jpg,MS,2,num_2,32,num_8,0.616890189704,,,2017_Dec_06_1559,60.0018474842,MAFE4ImagesEEG,001,202534,
AMNE23.JPG,AMNE24.JPG,AMNE22.JPG,AMSA24.JPG,AMSA22.JPG,AMSA23.JPG,,,,,,,,,0,2,2,9,,,,,,,,,,,,,,,AMSA12.jpg,AMNE09.jpg,AMSA19.jpg,AMNE14.jpg,AMSA19.jpg,MS,2,num_2,16,num_2,0.466792268213,,,2017_Dec_06_1559,60.0018474842,MAFE4ImagesEEG,001,202534,
AFSA21.JPG,AFNE22.JPG,AFNE21.JPG,AFSA23.JPG,AFSA22.JPG,AFNE23.JPG,,,,,,,,,0,3,3,0,,,,,,,,,,,,,,,AMNE12.jpg,AMSA02.jpg,AMSA17.jpg,AMNE06.jpg,AMNE06.jpg,MN,1,num_4,32,num_6,0.583484241273,,,2017_Dec_06_1559,60.0018474842,MAFE4ImagesEEG,001,202534,
AFSA21.JPG,AFNE23.JPG,AFNE21.JPG,AFSA25.JPG,AFNE25.JPG,AFSA23.JPG,,,,,,,,,0,4,4,4,,,,,,,,,,,,,,,AMSA13.jpg,AMNE07.jpg,AMNE05.jpg,AMSA15.jpg,AMNE05.jpg,MN,1,num_2,32,num_4,0.700026428793,,,2017_Dec_06_1559,60.0018474842,MAFE4ImagesEEG,001,202534,
AMSA21.JPG,AMNE22.JPG,AMNE21.JPG,AMSA23.JPG,AMSA22.JPG,AMNE23.JPG,,,,,,,,,0,5,5,1,,,,,,,,,,,,,,,AMSA09.jpg,AMNE13.jpg,AMNE06.jpg,AMSA20.jpg,AMNE13.jpg,MN,1,num_6,32,num_8,0.966695084237,,,2017_Dec_06_1559,60.0018474842,MAFE4ImagesEEG,001,202534,
AMSA25.JPG,AMNE24.JPG,AMSA24.JPG,AMNE26.JPG,AMSA21.JPG,AMNE25.JPG,,,,,,,,,0,6,6,3,,,,,,,,,,,,,,,AMSA09.jpg,AMSA07.jpg,AMNE02.jpg,AMNE19.jpg,AMSA09.jpg,MS,2,num_8,32,num_4,0.366799260257,,,2017_Dec_06_1559,60.0018474842,MAFE4ImagesEEG,001,202534,
AMNE22.JPG,AMSA24.JPG,AMSA22.JPG,AMNE25.JPG,AMNE24.JPG,AMSA25.JPG,,,,,,,,,0,7,7,7,,,,,,,,,,,,,,,AMNE09.jpg,AMNE07.jpg,AMSA15.jpg,AMSA04.jpg,AMNE07.jpg,MN,1,num_6,32,num_8,0.750096382108,,,2017_Dec_06_1559,60.0018474842,MAFE4ImagesEEG,001,202534,
AFNE22.JPG,AFSA24.JPG,AFSA22.JPG,AFNE25.JPG,AFNE24.JPG,AFSA25.JPG,,,,,,,,,0,8,8,6,,,,,,,,,,,,,,,AMSA01.jpg,AMNE15.jpg,AMSA03.jpg,AMNE07.jpg,AMNE15.jpg,MN,1,num_6,16,num_6,0.666845639003,,,2017_Dec_06_1559,60.0018474842,MAFE4ImagesEEG,001,202534,
AMSA21.JPG,AMNE23.JPG,AMNE21.JPG,AMSA25.JPG,AMNE25.JPG,AMSA23.JPG,,,,,,,,,0,9,9,5,,,,,,,,,,,,,,,AMNE10.jpg,AMSA04.jpg,AMSA16.jpg,AMNE05.jpg,AMSA16.jpg,MS,2,num_2,32,num_8,0.983481611125,,,2017_Dec_06_1559,60.0018474842,MAFE4ImagesEEG,001,202534,
AMSA21.JPG,AMNE22.JPG,AMNE21.JPG,AMSA23.JPG,AMSA22.JPG,AMNE23.JPG,,,,,,,,,,,,,0,0,0,1,,,,,,,,,,,AFSA17.jpg,AFSA09.jpg,AFNE05.jpg,AFNE07.jpg,AFNE07.jpg,FN,3,num_4,32,num_6,0.716648737434,,,2017_Dec_06_1559,60.0018474842,MAFE4ImagesEEG,001,202534,
AFSA21.JPG,AFNE22.JPG,AFNE21.JPG,AFSA23.JPG,AFSA22.JPG,AFNE23.JPG,,,,,,,,,,,,,0,1,1,0,,,,,,,,,,,AFNE01.jpg,AFSA15.jpg,AFNE17.jpg,AFSA11.jpg,AFNE01.jpg,FN,3,num_8,32,num_4,0.333500117762,,,2017_Dec_06_1559,60.0018474842,MAFE4ImagesEEG,001,202534,
AMSA21.JPG,AMNE23.JPG,AMNE21.JPG,AMSA25.JPG,AMNE25.JPG,AMSA23.JPG,,,,,,,,,,,,,0,2,2,5,,,,,,,,,,,AFSA14.jpg,AFNE16.jpg,AFSA03.jpg,AFNE17.jpg,AFNE17.jpg,FN,3,num_4,32,num_8,0.53347554896,,,2017_Dec_06_1559,60.0018474842,MAFE4ImagesEEG,001,202534,
AFSA25.JPG,AFNE24.JPG,AFSA24.JPG,AFNE21.JPG,AFSA21.JPG,AFNE25.JPG,,,,,,,,,,,,,0,3,3,2,,,,,,,,,,,AFSA16.jpg,AFNE15.jpg,AFNE08.jpg,AFSA10.jpg,AFSA10.jpg,FS,4,num_4,16,num_4,0.416755992454,,,2017_Dec_06_1559,60.0018474842,MAFE4ImagesEEG,001,202534,
AMNE22.JPG,AMSA24.JPG,AMSA22.JPG,AMNE25.JPG,AMNE24.JPG,AMSA25.JPG,,,,,,,,,,,,,0,4,4,7,,,,,,,,,,,AFNE06.jpg,AFSA17.jpg,AFSA19.jpg,AFNE17.jpg,AFNE17.jpg,FN,3,num_4,32,num_6,0.366809203057,,,2017_Dec_06_1559,60.0018474842,MAFE4ImagesEEG,001,202534,
AMNE23.JPG,AMNE24.JPG,AMNE22.JPG,AMSA24.JPG,AMSA22.JPG,AMSA23.JPG,,,,,,,,,,,,,0,5,5,9,,,,,,,,,,,AFSA08.jpg,AFNE12.jpg,AFSA02.jpg,AFNE03.jpg,AFNE03.jpg,FN,3,num_4,16,num_4,0.350132369203,,,2017_Dec_06_1559,60.0018474842,MAFE4ImagesEEG,001,202534,
AFNE22.JPG,AFSA24.JPG,AFSA22.JPG,AFNE25.JPG,AFNE24.JPG,AFSA25.JPG,,,,,,,,,,,,,0,6,6,6,,,,,,,,,,,AFSA19.jpg,AFNE09.jpg,AFSA06.jpg,AFNE02.jpg,AFSA19.jpg,FS,4,num_8,32,num_6,0.633446425898,,,2017_Dec_06_1559,60.0018474842,MAFE4ImagesEEG,001,202534,
AFNE23.JPG,AFNE24.JPG,AFNE22.JPG,AFSA24.JPG,AFSA22.JPG,AFSA23.JPG,,,,,,,,,,,,,0,7,7,8,,,,,,,,,,,AFSA04.jpg,AFNE07.jpg,AFNE10.jpg,AFSA02.jpg,AFSA04.jpg,FS,4,num_8,32,num_6,0.600119058276,,,2017_Dec_06_1559,60.0018474842,MAFE4ImagesEEG,001,202534,
AFSA21.JPG,AFNE23.JPG,AFNE21.JPG,AFSA25.JPG,AFNE25.JPG,AFSA23.JPG,,,,,,,,,,,,,0,8,8,4,,,,,,,,,,,AFNE13.jpg,AFNE19.jpg,AFSA02.jpg,AFSA12.jpg,AFNE13.jpg,FN,3,num_8,32,num_6,0.600132208783,,,2017_Dec_06_1559,60.0018474842,MAFE4ImagesEEG,001,202534,
AMSA25.JPG,AMNE24.JPG,AMSA24.JPG,AMNE26.JPG,AMSA21.JPG,AMNE25.JPG,,,,,,,,,,,,,0,9,9,3,,,,,,,,,,,AFSA19.jpg,AFSA05.jpg,AFNE17.jpg,AFNE20.jpg,AFNE17.jpg,FN,3,num_2,32,num_8,0.633459576173,,,2017_Dec_06_1559,60.0018474842,MAFE4ImagesEEG,001,202534,
AMNE22.JPG,AMSA24.JPG,AMSA22.JPG,AMNE25.JPG,AMNE24.JPG,AMSA25.JPG,,,,,,,,,,,,,,,,,0,0,0,7,,,,,,,AMNE08.jpg,AMSA06.jpg,AMNE15.jpg,AMSA13.jpg,AMNE15.jpg,MN,1,num_2,32,num_4,0.333464836469,,,2017_Dec_06_1559,60.0018474842,MAFE4ImagesEEG,001,202534,
AMSA21.JPG,AMNE22.JPG,AMNE21.JPG,AMSA23.JPG,AMSA22.JPG,AMNE23.JPG,,,,,,,,,,,,,,,,,0,1,1,1,,,,,,,AMNE19.jpg,AMNE05.jpg,AMSA13.jpg,AMSA12.jpg,AMSA13.jpg,MS,2,num_2,32,num_4,0.333517437568,,,2017_Dec_06_1559,60.0018474842,MAFE4ImagesEEG,001,202534,
AFNE23.JPG,AFNE24.JPG,AFNE22.JPG,AFSA24.JPG,AFSA22.JPG,AFSA23.JPG,,,,,,,,,,,,,,,,,0,2,2,8,,,,,,,AMSA18.jpg,AMSA20.jpg,AMNE14.jpg,AMNE15.jpg,AMSA20.jpg,MS,2,num_6,32,num_8,0.366867257049,,,2017_Dec_06_1559,60.0018474842,MAFE4ImagesEEG,001,202534,
AFSA21.JPG,AFNE22.JPG,AFNE21.JPG,AFSA23.JPG,AFSA22.JPG,AFNE23.JPG,,,,,,,,,,,,,,,,,0,3,3,0,,,,,,,AMSA19.jpg,AMNE11.jpg,AMSA16.jpg,AMNE04.jpg,AMSA19.jpg,MS,2,num_8,32,num_6,0.550149496412,,,2017_Dec_06_1559,60.0018474842,MAFE4ImagesEEG,001,202534,
AFSA21.JPG,AFNE23.JPG,AFNE21.JPG,AFSA25.JPG,AFNE25.JPG,AFSA23.JPG,,,,,,,,,,,,,,,,,0,4,4,4,,,,,,,AMSA07.jpg,AMNE06.jpg,AMNE20.jpg,AMSA14.jpg,AMSA14.jpg,MS,2,num_4,16,num_4,0.416799292201,,,2017_Dec_06_1559,60.0018474842,MAFE4ImagesEEG,001,202534,
AMNE23.JPG,AMNE24.JPG,AMNE22.JPG,AMSA24.JPG,AMSA22.JPG,AMSA23.JPG,,,,,,,,,,,,,,,,,0,5,5,9,,,,,,,AMSA07.jpg,AMNE15.jpg,AMSA20.jpg,AMNE06.jpg,AMNE06.jpg,MN,1,num_4,32,num_6,1.16678341571,,,2017_Dec_06_1559,60.0018474842,MAFE4ImagesEEG,001,202534,
AMSA21.JPG,AMNE23.JPG,AMNE21.JPG,AMSA25.JPG,AMNE25.JPG,AMSA23.JPG,,,,,,,,,,,,,,,,,0,6,6,5,,,,,,,AMNE07.jpg,AMSA17.jpg,AMNE01.jpg,AMSA16.jpg,AMNE01.jpg,MN,1,num_2,32,num_8,0.350197799737,,,2017_Dec_06_1559,60.0018474842,MAFE4ImagesEEG,001,202534,
AMSA25.JPG,AMNE24.JPG,AMSA24.JPG,AMNE26.JPG,AMSA21.JPG,AMNE25.JPG,,,,,,,,,,,,,,,,,0,7,7,3,,,,,,,AMSA19.jpg,AMSA11.jpg,AMNE17.jpg,AMNE18.jpg,AMSA11.jpg,MS,2,num_6,32,num_2,1.3000855092,,,2017_Dec_06_1559,60.0018474842,MAFE4ImagesEEG,001,202534,
AFSA25.JPG,AFNE24.JPG,AFSA24.JPG,AFNE21.JPG,AFSA21.JPG,AFNE25.JPG,,,,,,,,,,,,,,,,,0,8,8,2,,,,,,,AMSA06.jpg,AMSA15.jpg,AMNE06.jpg,AMNE04.jpg,AMSA06.jpg,MS,2,num_8,32,num_4,0.86661708029,,,2017_Dec_06_1559,60.0018474842,MAFE4ImagesEEG,001,202534,
AFNE22.JPG,AFSA24.JPG,AFSA22.JPG,AFNE25.JPG,AFNE24.JPG,AFSA25.JPG,,,,,,,,,,,,,,,,,0,9,9,6,,,,,,,AMSA07.jpg,AMNE19.jpg,AMSA12.jpg,AMNE03.jpg,AMSA12.jpg,MS,2,num_2,32,num_6,0.350141029106,,,2017_Dec_06_1559,60.0018474842,MAFE4ImagesEEG,001,202534,
AFNE22.JPG,AFSA24.JPG,AFSA22.JPG,AFNE25.JPG,AFNE24.JPG,AFSA25.JPG,,,,,,,,,,,,,,,,,,,,,0,0,0,6,,,AFSA10.jpg,AFSA03.jpg,AFNE19.jpg,AFNE08.jpg,AFSA10.jpg,FS,4,num_8,32,num_4,0.333515192615,,,2017_Dec_06_1559,60.0018474842,MAFE4ImagesEEG,001,202534,
AMNE23.JPG,AMNE24.JPG,AMNE22.JPG,AMSA24.JPG,AMSA22.JPG,AMSA23.JPG,,,,,,,,,,,,,,,,,,,,,0,1,1,9,,,AFSA18.jpg,AFNE12.jpg,AFSA10.jpg,AFNE16.jpg,AFNE12.jpg,FN,3,num_6,32,num_2,0.366807278711,,,2017_Dec_06_1559,60.0018474842,MAFE4ImagesEEG,001,202534,
AFSA21.JPG,AFNE23.JPG,AFNE21.JPG,AFSA25.JPG,AFNE25.JPG,AFSA23.JPG,,,,,,,,,,,,,,,,,,,,,0,2,2,4,,,AFNE19.jpg,AFSA04.jpg,AFSA10.jpg,AFNE06.jpg,AFSA04.jpg,FS,4,num_6,32,num_8,0.300200333586,,,2017_Dec_06_1559,60.0018474842,MAFE4ImagesEEG,001,202534,
AMSA21.JPG,AMNE23.JPG,AMNE21.JPG,AMSA25.JPG,AMNE25.JPG,AMSA23.JPG,,,,,,,,,,,,,,,,,,,,,0,3,3,5,,,AFSA18.jpg,AFSA01.jpg,AFNE20.jpg,AFNE11.jpg,AFSA01.jpg,FS,4,num_6,16,num_6,0.366837428184,,,2017_Dec_06_1559,60.0018474842,MAFE4ImagesEEG,001,202534,
AMSA25.JPG,AMNE24.JPG,AMSA24.JPG,AMNE26.JPG,AMSA21.JPG,AMNE25.JPG,,,,,,,,,,,,,,,,,,,,,0,4,4,3,,,AFSA19.jpg,AFNE16.jpg,AFNE05.jpg,AFSA08.jpg,AFSA08.jpg,FS,4,num_4,16,num_4,0.333354181377,,,2017_Dec_06_1559,60.0018474842,MAFE4ImagesEEG,001,202534,
AFSA21.JPG,AFNE22.JPG,AFNE21.JPG,AFSA23.JPG,AFSA22.JPG,AFNE23.JPG,,,,,,,,,,,,,,,,,,,,,0,5,5,0,,,AFSA18.jpg,AFSA12.jpg,AFNE15.jpg,AFNE19.jpg,AFNE15.jpg,FN,3,num_2,32,num_8,0.700225928798,,,2017_Dec_06_1559,60.0018474842,MAFE4ImagesEEG,001,202534,
AFSA25.JPG,AFNE24.JPG,AFSA24.JPG,AFNE21.JPG,AFSA21.JPG,AFNE25.JPG,,,,,,,,,,,,,,,,,,,,,0,6,6,2,,,AFNE07.jpg,AFSA06.jpg,AFSA09.jpg,AFNE20.jpg,AFSA09.jpg,FS,4,num_2,16,num_2,0.850119539304,,,2017_Dec_06_1559,60.0018474842,MAFE4ImagesEEG,001,202534,
AMSA21.JPG,AMNE22.JPG,AMNE21.JPG,AMSA23.JPG,AMSA22.JPG,AMNE23.JPG,,,,,,,,,,,,,,,,,,,,,0,7,7,1,,,AFNE10.jpg,AFSA11.jpg,AFSA16.jpg,AFNE14.jpg,AFSA16.jpg,FS,4,num_2,16,num_2,0.849972320255,,,2017_Dec_06_1559,60.0018474842,MAFE4ImagesEEG,001,202534,
AMNE22.JPG,AMSA24.JPG,AMSA22.JPG,AMNE25.JPG,AMNE24.JPG,AMSA25.JPG,,,,,,,,,,,,,,,,,,,,,0,8,8,7,,,AFNE04.jpg,AFSA14.jpg,AFSA11.jpg,AFNE10.jpg,AFSA14.jpg,FS,4,num_6,16,num_6,0.400151645532,,,2017_Dec_06_1559,60.0018474842,MAFE4ImagesEEG,001,202534,
AFNE23.JPG,AFNE24.JPG,AFNE22.JPG,AFSA24.JPG,AFSA22.JPG,AFSA23.JPG,,,,,,,,,,,,,,,,,,,,,0,9,9,8,,,AFNE15.jpg,AFSA10.jpg,AFSA16.jpg,AFNE13.jpg,AFSA10.jpg,FS,4,num_6,32,num_4,0.366811448243,,,2017_Dec_06_1559,60.0018474842,MAFE4ImagesEEG,001,202534,
,,,,,,,,,,,,,,,,,,,,,,,,,,,,,,,,,,,,,,,,,,,space,1.61669806694,2017_Dec_06_1559,60.0018474842,MAFE4ImagesEEG,001,202534,
AFNE01.JPG,AFNE01.JPG,AFNE01.JPG,AFNE01.JPG,AFNE01.JPG,AFNE01.JPG,0,0,0,2,,,,,,,,,,,,,,,,,,,,,,,AMSA08.jpg,AMNE15.jpg,AMSA12.jpg,AMNE19.jpg,AMNE15.jpg,MN,1,num_6,32,num_4,0.316775493557,,,2017_Dec_06_1559,60.0018474842,MAFE4ImagesEEG,001,202534,
AFNE01.JPG,AFNE01.JPG,AFNE01.JPG,AFNE01.JPG,AFNE01.JPG,AFNE01.JPG,0,1,1,3,,,,,,,,,,,,,,,,,,,,,,,AMNE16.jpg,AMSA11.jpg,AMNE03.jpg,AMSA17.jpg,AMNE16.jpg,MN,1,num_8,16,num_8,0.700147988973,,,2017_Dec_06_1559,60.0018474842,MAFE4ImagesEEG,001,202534,
AFNE01.JPG,AFNE01.JPG,AFNE01.JPG,AFNE01.JPG,AFNE01.JPG,AFNE01.JPG,0,2,2,8,,,,,,,,,,,,,,,,,,,,,,,AMSA01.jpg,AMNE19.jpg,AMSA08.jpg,AMNE01.jpg,AMNE01.jpg,MN,1,num_4,32,num_2,0.90013721236,,,2017_Dec_06_1559,60.0018474842,MAFE4ImagesEEG,001,202534,
AFNE01.JPG,AFNE01.JPG,AFNE01.JPG,AFNE01.JPG,AFNE01.JPG,AFNE01.JPG,0,3,3,0,,,,,,,,,,,,,,,,,,,,,,,AMSA05.jpg,AMNE20.jpg,AMSA01.jpg,AMNE11.jpg,AMNE20.jpg,MN,1,num_6,32,num_8,0.650146032451,,,2017_Dec_06_1559,60.0018474842,MAFE4ImagesEEG,001,202534,
AFNE01.JPG,AFNE01.JPG,AFNE01.JPG,AFNE01.JPG,AFNE01.JPG,AFNE01.JPG,0,4,4,1,,,,,,,,,,,,,,,,,,,,,,,AMNE16.jpg,AMNE13.jpg,AMSA02.jpg,AMSA11.jpg,AMNE13.jpg,MN,1,num_6,32,num_8,0.866809523897,,,2017_Dec_06_1559,60.0018474842,MAFE4ImagesEEG,001,202534,
AFNE01.JPG,AFNE01.JPG,AFNE01.JPG,AFNE01.JPG,AFNE01.JPG,AFNE01.JPG,0,5,5,4,,,,,,,,,,,,,,,,,,,,,,,AMNE18.jpg,AMSA07.jpg,AMSA20.jpg,AMNE06.jpg,AMSA07.jpg,MS,2,num_6,32,num_4,0.450348611455,,,2017_Dec_06_1559,60.0018474842,MAFE4ImagesEEG,001,202534,
AFNE01.JPG,AFNE01.JPG,AFNE01.JPG,AFNE01.JPG,AFNE01.JPG,AFNE01.JPG,0,6,6,9,,,,,,,,,,,,,,,,,,,,,,,AMNE06.jpg,AMSA19.jpg,AMNE17.jpg,AMSA08.jpg,AMSA08.jpg,MS,2,num_4,32,num_6,0.41680153762,,,2017_Dec_06_1559,60.0018474842,MAFE4ImagesEEG,001,202534,
AFNE01.JPG,AFNE01.JPG,AFNE01.JPG,AFNE01.JPG,AFNE01.JPG,AFNE01.JPG,0,7,7,5,,,,,,,,,,,,,,,,,,,,,,,AMSA15.jpg,AMNE04.jpg,AMNE03.jpg,AMSA11.jpg,AMSA11.jpg,MS,2,num_4,16,num_4,0.350130124018,,,2017_Dec_06_1559,60.0018474842,MAFE4ImagesEEG,001,202534,
AFNE01.JPG,AFNE01.JPG,AFNE01.JPG,AFNE01.JPG,AFNE01.JPG,AFNE01.JPG,0,8,8,7,,,,,,,,,,,,,,,,,,,,,,,AMSA13.jpg,AMNE05.jpg,AMSA05.jpg,AMNE03.jpg,AMNE03.jpg,MN,1,num_4,32,num_6,0.416786783375,,,2017_Dec_06_1559,60.0018474842,MAFE4ImagesEEG,001,202534,
AFNE01.JPG,AFNE01.JPG,AFNE01.JPG,AFNE01.JPG,AFNE01.JPG,AFNE01.JPG,0,9,9,6,,,,,,,,,,,,,,,,,,,,,,,AMNE18.jpg,AMSA06.jpg,AMNE19.jpg,AMSA02.jpg,AMSA06.jpg,MS,2,num_6,32,num_4,0.466790985083,,,2017_Dec_06_1559,60.0018474842,MAFE4ImagesEEG,001,202534,
AFNE01.JPG,AFNE01.JPG,AFNE01.JPG,AFNE01.JPG,AFNE01.JPG,AFNE01.JPG,1,0,10,7,,,,,,,,,,,,,,,,,,,,,,,AMNE20.jpg,AMSA04.jpg,AMNE11.jpg,AMSA02.jpg,AMSA04.jpg,MS,2,num_6,32,num_8,0.750162775163,,,2017_Dec_06_1559,60.0018474842,MAFE4ImagesEEG,001,202534,
AFNE01.JPG,AFNE01.JPG,AFNE01.JPG,AFNE01.JPG,AFNE01.JPG,AFNE01.JPG,1,1,11,8,,,,,,,,,,,,,,,,,,,,,,,AMNE01.jpg,AMSA19.jpg,AMSA07.jpg,AMNE11.jpg,AMNE01.jpg,MN,1,num_8,32,num_6,0.516792620998,,,2017_Dec_06_1559,60.0018474842,MAFE4ImagesEEG,001,202534,
AFNE01.JPG,AFNE01.JPG,AFNE01.JPG,AFNE01.JPG,AFNE01.JPG,AFNE01.JPG,1,2,12,3,,,,,,,,,,,,,,,,,,,,,,,AMNE12.jpg,AMNE10.jpg,AMSA03.jpg,AMSA16.jpg,AMSA03.jpg,MS,2,num_2,16,num_2,0.516653741011,,,2017_Dec_06_1559,60.0018474842,MAFE4ImagesEEG,001,202534,
AFNE01.JPG,AFNE01.JPG,AFNE01.JPG,AFNE01.JPG,AFNE01.JPG,AFNE01.JPG,1,3,13,0,,,,,,,,,,,,,,,,,,,,,,,AMSA08.jpg,AMSA10.jpg,AMNE06.jpg,AMNE04.jpg,AMSA10.jpg,MS,2,num_6,32,num_8,0.366794128437,,,2017_Dec_06_1559,60.0018474842,MAFE4ImagesEEG,001,202534,
AFNE01.JPG,AFNE01.JPG,AFNE01.JPG,AFNE01.JPG,AFNE01.JPG,AFNE01.JPG,1,4,14,5,,,,,,,,,,,,,,,,,,,,,,,AMNE04.jpg,AMSA08.jpg,AMSA14.jpg,AMNE14.jpg,AMNE04.jpg,MN,1,num_8,32,num_6,0.366813372821,,,2017_Dec_06_1559,60.0018474842,MAFE4ImagesEEG,001,202534,
AFNE01.JPG,AFNE01.JPG,AFNE01.JPG,AFNE01.JPG,AFNE01.JPG,AFNE01.JPG,1,5,15,9,,,,,,,,,,,,,,,,,,,,,,,AMNE11.jpg,AMNE19.jpg,AMSA13.jpg,AMSA15.jpg,AMSA15.jpg,MS,2,num_4,32,num_6,0.383480905322,,,2017_Dec_06_1559,60.0018474842,MAFE4ImagesEEG,001,202534,
AFNE01.JPG,AFNE01.JPG,AFNE01.JPG,AFNE01.JPG,AFNE01.JPG,AFNE01.JPG,1,6,16,1,,,,,,,,,,,,,,,,,,,,,,,AMNE07.jpg,AMSA14.jpg,AMNE10.jpg,AMSA12.jpg,AMNE10.jpg,MN,1,num_2,32,num_6,0.38351907325,,,2017_Dec_06_1559,60.0018474842,MAFE4ImagesEEG,001,202534,
AFNE01.JPG,AFNE01.JPG,AFNE01.JPG,AFNE01.JPG,AFNE01.JPG,AFNE01.JPG,1,7,17,4,,,,,,,,,,,,,,,,,,,,,,,AMNE19.jpg,AMSA03.jpg,AMSA16.jpg,AMNE14.jpg,AMSA03.jpg,MS,2,num_6,16,num_6,0.500120277284,,,2017_Dec_06_1559,60.0018474842,MAFE4ImagesEEG,001,202534,
AFNE01.JPG,AFNE01.JPG,AFNE01.JPG,AFNE01.JPG,AFNE01.JPG,AFNE01.JPG,1,8,18,2,,,,,,,,,,,,,,,,,,,,,,,AMNE15.jpg,AMSA14.jpg,AMNE20.jpg,AMSA10.jpg,AMNE15.jpg,MN,1,num_8,32,num_4,0.566790407756,,,2017_Dec_06_1559,60.0018474842,MAFE4ImagesEEG,001,202534,
AFNE01.JPG,AFNE01.JPG,AFNE01.JPG,AFNE01.JPG,AFNE01.JPG,AFNE01.JPG,1,9,19,6,,,,,,,,,,,,,,,,,,,,,,,AMNE19.jpg,AMNE17.jpg,AMSA03.jpg,AMSA18.jpg,AMSA03.jpg,MS,2,num_2,32,num_6,0.700120405294,,,2017_Dec_06_1559,60.0018474842,MAFE4ImagesEEG,001,202534,
AFNE01.JPG,AFNE01.JPG,AFNE01.JPG,AFNE01.JPG,AFNE01.JPG,AFNE01.JPG,2,0,20,0,,,,,,,,,,,,,,,,,,,,,,,AMSA02.jpg,AMSA09.jpg,AMNE09.jpg,AMNE08.jpg,AMSA02.jpg,MS,2,num_8,32,num_4,0.433476126287,,,2017_Dec_06_1559,60.0018474842,MAFE4ImagesEEG,001,202534,
AFNE01.JPG,AFNE01.JPG,AFNE01.JPG,AFNE01.JPG,AFNE01.JPG,AFNE01.JPG,2,1,21,7,,,,,,,,,,,,,,,,,,,,,,,AMSA07.jpg,AMSA16.jpg,AMNE15.jpg,AMNE12.jpg,AMSA07.jpg,MS,2,num_8,16,num_8,0.383481547004,,,2017_Dec_06_1559,60.0018474842,MAFE4ImagesEEG,001,202534,
AFNE01.JPG,AFNE01.JPG,AFNE01.JPG,AFNE01.JPG,AFNE01.JPG,AFNE01.JPG,2,2,22,5,,,,,,,,,,,,,,,,,,,,,,,AMSA15.jpg,AMNE07.jpg,AMNE15.jpg,AMSA16.jpg,AMSA16.jpg,MS,2,num_4,32,num_6,0.350164443022,,,2017_Dec_06_1559,60.0018474842,MAFE4ImagesEEG,001,202534,
AFNE01.JPG,AFNE01.JPG,AFNE01.JPG,AFNE01.JPG,AFNE01.JPG,AFNE01.JPG,2,3,23,8,,,,,,,,,,,,,,,,,,,,,,,AMNE03.jpg,AMSA07.jpg,AMSA13.jpg,AMNE07.jpg,AMNE07.jpg,MN,1,num_4,32,num_2,0.383524525911,,,2017_Dec_06_1559,60.0018474842,MAFE4ImagesEEG,001,202534,
AFNE01.JPG,AFNE01.JPG,AFNE01.JPG,AFNE01.JPG,AFNE01.JPG,AFNE01.JPG,2,4,24,6,,,,,,,,,,,,,,,,,,,,,,,AMNE04.jpg,AMSA03.jpg,AMNE03.jpg,AMSA09.jpg,AMNE04.jpg,MN,1,num_8,32,num_6,0.483339523664,,,2017_Dec_06_1559,60.0018474842,MAFE4ImagesEEG,001,202534,
AFNE01.JPG,AFNE01.JPG,AFNE01.JPG,AFNE01.JPG,AFNE01.JPG,AFNE01.JPG,2,5,25,2,,,,,,,,,,,,,,,,,,,,,,,AMNE11.jpg,AMNE04.jpg,AMSA13.jpg,AMSA12.jpg,AMSA12.jpg,MS,2,num_4,16,num_4,0.850153537933,,,2017_Dec_06_1559,60.0018474842,MAFE4ImagesEEG,001,202534,
AFNE01.JPG,AFNE01.JPG,AFNE01.JPG,AFNE01.JPG,AFNE01.JPG,AFNE01.JPG,2,6,26,9,,,,,,,,,,,,,,,,,,,,,,,AMSA01.jpg,AMNE14.jpg,AMNE08.jpg,AMSA10.jpg,AMNE14.jpg,MN,1,num_6,32,num_8,0.416789349634,,,2017_Dec_06_1559,60.0018474842,MAFE4ImagesEEG,001,202534,
AFNE01.JPG,AFNE01.JPG,AFNE01.JPG,AFNE01.JPG,AFNE01.JPG,AFNE01.JPG,2,7,27,4,,,,,,,,,,,,,,,,,,,,,,,AMSA12.jpg,AMSA09.jpg,AMNE19.jpg,AMNE17.jpg,AMSA09.jpg,MS,2,num_6,16,num_6,0.100221374072,,,2017_Dec_06_1559,60.0018474842,MAFE4ImagesEEG,001,202534,
AFNE01.JPG,AFNE01.JPG,AFNE01.JPG,AFNE01.JPG,AFNE01.JPG,AFNE01.JPG,2,8,28,1,,,,,,,,,,,,,,,,,,,,,,,AMNE14.jpg,AMSA01.jpg,AMSA09.jpg,AMNE16.jpg,AMNE14.jpg,MN,1,num_8,16,num_8,0.400153569877,,,2017_Dec_06_1559,60.0018474842,MAFE4ImagesEEG,001,202534,
AFNE01.JPG,AFNE01.JPG,AFNE01.JPG,AFNE01.JPG,AFNE01.JPG,AFNE01.JPG,2,9,29,3,,,,,,,,,,,,,,,,,,,,,,,AMSA13.jpg,AMSA17.jpg,AMNE09.jpg,AMNE16.jpg,AMSA13.jpg,MS,2,num_8,32,num_2,0.366840956267,,,2017_Dec_06_1559,60.0018474842,MAFE4ImagesEEG,001,202534,
AFNE01.JPG,AFNE01.JPG,AFNE01.JPG,AFNE01.JPG,AFNE01.JPG,AFNE01.JPG,3,0,30,6,,,,,,,,,,,,,,,,,,,,,,,AMSA19.jpg,AMNE09.jpg,AMNE01.jpg,AMSA09.jpg,AMSA09.jpg,MS,2,num_4,32,num_8,0.350180800771,,,2017_Dec_06_1559,60.0018474842,MAFE4ImagesEEG,001,202534,
AFNE01.JPG,AFNE01.JPG,AFNE01.JPG,AFNE01.JPG,AFNE01.JPG,AFNE01.JPG,3,1,31,1,,,,,,,,,,,,,,,,,,,,,,,AMNE04.jpg,AMSA01.jpg,AMNE07.jpg,AMSA12.jpg,AMNE07.jpg,MN,1,num_2,16,num_2,0.817004821962,,,2017_Dec_06_1559,60.0018474842,MAFE4ImagesEEG,001,202534,
AFNE01.JPG,AFNE01.JPG,AFNE01.JPG,AFNE01.JPG,AFNE01.JPG,AFNE01.JPG,3,2,32,9,,,,,,,,,,,,,,,,,,,,,,,AMSA03.jpg,AMNE03.jpg,AMNE09.jpg,AMSA14.jpg,AMSA03.jpg,MS,2,num_8,32,num_2,0.516811865149,,,2017_Dec_06_1559,60.0018474842,MAFE4ImagesEEG,001,202534,
AFNE01.JPG,AFNE01.JPG,AFNE01.JPG,AFNE01.JPG,AFNE01.JPG,AFNE01.JPG,3,3,33,7,,,,,,,,,,,,,,,,,,,,,,,AMSA09.jpg,AMNE17.jpg,AMSA08.jpg,AMNE09.jpg,AMNE17.jpg,MN,1,num_6,16,num_6,0.316838999745,,,2017_Dec_06_1559,60.0018474842,MAFE4ImagesEEG,001,202534,
AFNE01.JPG,AFNE01.JPG,AFNE01.JPG,AFNE01.JPG,AFNE01.JPG,AFNE01.JPG,3,4,34,8,,,,,,,,,,,,,,,,,,,,,,,AMSA19.jpg,AMNE02.jpg,AMNE06.jpg,AMSA06.jpg,AMNE06.jpg,MN,1,num_2,32,num_4,0.45014045178,,,2017_Dec_06_1559,60.0018474842,MAFE4ImagesEEG,001,202534,
AFNE01.JPG,AFNE01.JPG,AFNE01.JPG,AFNE01.JPG,AFNE01.JPG,AFNE01.JPG,3,5,35,5,,,,,,,,,,,,,,,,,,,,,,,AMNE03.jpg,AMNE04.jpg,AMSA09.jpg,AMSA05.jpg,AMSA09.jpg,MS,2,num_2,32,num_4,0.333512305748,,,2017_Dec_06_1559,60.0018474842,MAFE4ImagesEEG,001,202534,
AFNE01.JPG,AFNE01.JPG,AFNE01.JPG,AFNE01.JPG,AFNE01.JPG,AFNE01.JPG,3,6,36,0,,,,,,,,,,,,,,,,,,,,,,,AMNE11.jpg,AMNE03.jpg,AMSA04.jpg,AMSA10.jpg,AMSA04.jpg,MS,2,num_2,32,num_6,0.366818825481,,,2017_Dec_06_1559,60.0018474842,MAFE4ImagesEEG,001,202534,
AFNE01.JPG,AFNE01.JPG,AFNE01.JPG,AFNE01.JPG,AFNE01.JPG,AFNE01.JPG,3,7,37,4,,,,,,,,,,,,,,,,,,,,,,,AMNE07.jpg,AMSA14.jpg,AMSA17.jpg,AMNE06.jpg,AMSA17.jpg,MS,2,num_2,32,num_4,0.383480584715,,,2017_Dec_06_1559,60.0018474842,MAFE4ImagesEEG,001,202534,
AFNE01.JPG,AFNE01.JPG,AFNE01.JPG,AFNE01.JPG,AFNE01.JPG,AFNE01.JPG,3,8,38,2,,,,,,,,,,,,,,,,,,,,,,,AMNE16.jpg,AMNE17.jpg,AMSA01.jpg,AMSA10.jpg,AMSA01.jpg,MS,2,num_2,32,num_8,0.333578699036,,,2017_Dec_06_1559,60.0018474842,MAFE4ImagesEEG,001,202534,
AFNE01.JPG,AFNE01.JPG,AFNE01.JPG,AFNE01.JPG,AFNE01.JPG,AFNE01.JPG,3,9,39,3,,,,,,,,,,,,,,,,,,,,,,,AMSA07.jpg,AMSA09.jpg,AMNE14.jpg,AMNE15.jpg,AMNE14.jpg,MN,1,num_2,32,num_6,0.383466792991,,,2017_Dec_06_1559,60.0018474842,MAFE4ImagesEEG,001,202534,
AFNE01.JPG,AFNE01.JPG,AFNE01.JPG,AFNE01.JPG,AFNE01.JPG,AFNE01.JPG,4,0,40,5,,,,,,,,,,,,,,,,,,,,,,,AMSA08.jpg,AMNE01.jpg,AMSA12.jpg,AMNE02.jpg,AMNE02.jpg,MN,1,num_4,32,num_2,0.416415046668,,,2017_Dec_06_1559,60.0018474842,MAFE4ImagesEEG,001,202534,
AFNE01.JPG,AFNE01.JPG,AFNE01.JPG,AFNE01.JPG,AFNE01.JPG,AFNE01.JPG,4,1,41,0,,,,,,,,,,,,,,,,,,,,,,,AMNE02.jpg,AMSA12.jpg,AMSA05.jpg,AMNE13.jpg,AMSA05.jpg,MS,2,num_2,32,num_8,0.366809523897,,,2017_Dec_06_1559,60.0018474842,MAFE4ImagesEEG,001,202534,
AFNE01.JPG,AFNE01.JPG,AFNE01.JPG,AFNE01.JPG,AFNE01.JPG,AFNE01.JPG,4,2,42,4,,,,,,,,,,,,,,,,,,,,,,,AMNE12.jpg,AMSA14.jpg,AMNE16.jpg,AMSA17.jpg,AMSA17.jpg,MS,2,num_4,32,num_6,0.366832938045,,,2017_Dec_06_1559,60.0018474842,MAFE4ImagesEEG,001,202534,
AFNE01.JPG,AFNE01.JPG,AFNE01.JPG,AFNE01.JPG,AFNE01.JPG,AFNE01.JPG,4,3,43,6,,,,,,,,,,,,,,,,,,,,,,,AMSA14.jpg,AMSA12.jpg,AMNE14.jpg,AMNE06.jpg,AMSA12.jpg,MS,2,num_6,32,num_4,0.567092865007,,,2017_Dec_06_1559,60.0018474842,MAFE4ImagesEEG,001,202534,
AFNE01.JPG,AFNE01.JPG,AFNE01.JPG,AFNE01.JPG,AFNE01.JPG,AFNE01.JPG,4,4,44,3,,,,,,,,,,,,,,,,,,,,,,,AMSA14.jpg,AMNE16.jpg,AMNE10.jpg,AMSA06.jpg,AMSA06.jpg,MS,2,num_4,32,num_2,0.433496653801,,,2017_Dec_06_1559,60.0018474842,MAFE4ImagesEEG,001,202534,
AFNE01.JPG,AFNE01.JPG,AFNE01.JPG,AFNE01.JPG,AFNE01.JPG,AFNE01.JPG,4,5,45,8,,,,,,,,,,,,,,,,,,,,,,,AMNE13.jpg,AMSA17.jpg,AMSA15.jpg,AMNE02.jpg,AMNE02.jpg,MN,1,num_4,32,num_8,0.333486646647,,,2017_Dec_06_1559,60.0018474842,MAFE4ImagesEEG,001,202534,
AFNE01.JPG,AFNE01.JPG,AFNE01.JPG,AFNE01.JPG,AFNE01.JPG,AFNE01.JPG,4,6,46,2,,,,,,,,,,,,,,,,,,,,,,,AMNE05.jpg,AMSA06.jpg,AMSA19.jpg,AMNE15.jpg,AMNE15.jpg,MN,1,num_4,32,num_6,0.383518752642,,,2017_Dec_06_1559,60.0018474842,MAFE4ImagesEEG,001,202534,
AFNE01.JPG,AFNE01.JPG,AFNE01.JPG,AFNE01.JPG,AFNE01.JPG,AFNE01.JPG,4,7,47,9,,,,,,,,,,,,,,,,,,,,,,,AMSA01.jpg,AMNE20.jpg,AMSA14.jpg,AMNE12.jpg,AMNE20.jpg,MN,1,num_6,32,num_4,0.350168291712,,,2017_Dec_06_1559,60.0018474842,MAFE4ImagesEEG,001,202534,
AFNE01.JPG,AFNE01.JPG,AFNE01.JPG,AFNE01.JPG,AFNE01.JPG,AFNE01.JPG,4,8,48,7,,,,,,,,,,,,,,,,,,,,,,,AMNE20.jpg,AMSA11.jpg,AMNE02.jpg,AMSA07.jpg,AMNE02.jpg,MN,1,num_2,32,num_8,0.683512530522,,,2017_Dec_06_1559,60.0018474842,MAFE4ImagesEEG,001,202534,
AFNE01.JPG,AFNE01.JPG,AFNE01.JPG,AFNE01.JPG,AFNE01.JPG,AFNE01.JPG,4,9,49,1,,,,,,,,,,,,,,,,,,,,,,,AMNE04.jpg,AMNE11.jpg,AMSA19.jpg,AMSA11.jpg,AMSA19.jpg,MS,2,num_2,16,num_2,0.533541300567,,,2017_Dec_06_1559,60.0018474842,MAFE4ImagesEEG,001,202534,
AFNE01.JPG,AFNE01.JPG,AFNE01.JPG,AFNE01.JPG,AFNE01.JPG,AFNE01.JPG,5,0,50,8,,,,,,,,,,,,,,,,,,,,,,,AMNE13.jpg,AMSA03.jpg,AMNE01.jpg,AMSA04.jpg,AMNE13.jpg,MN,1,num_8,16,num_8,0.366760450881,,,2017_Dec_06_1559,60.0018474842,MAFE4ImagesEEG,001,202534,
AFNE01.JPG,AFNE01.JPG,AFNE01.JPG,AFNE01.JPG,AFNE01.JPG,AFNE01.JPG,5,1,51,9,,,,,,,,,,,,,,,,,,,,,,,AMSA05.jpg,AMNE09.jpg,AMSA09.jpg,AMNE06.jpg,AMSA05.jpg,MS,2,num_8,16,num_8,0.616630391218,,,2017_Dec_06_1559,60.0018474842,MAFE4ImagesEEG,001,202534,
AFNE01.JPG,AFNE01.JPG,AFNE01.JPG,AFNE01.JPG,AFNE01.JPG,AFNE01.JPG,5,2,52,3,,,,,,,,,,,,,,,,,,,,,,,AMNE05.jpg,AMSA10.jpg,AMNE08.jpg,AMSA11.jpg,AMSA10.jpg,MS,2,num_6,16,num_6,0.350131086074,,,2017_Dec_06_1559,60.0018474842,MAFE4ImagesEEG,001,202534,
AFNE01.JPG,AFNE01.JPG,AFNE01.JPG,AFNE01.JPG,AFNE01.JPG,AFNE01.JPG,5,3,53,5,,,,,,,,,,,,,,,,,,,,,,,AMSA20.jpg,AMNE10.jpg,AMSA14.jpg,AMNE12.jpg,AMSA14.jpg,MS,2,num_2,32,num_4,0.383512017084,,,2017_Dec_06_1559,60.0018474842,MAFE4ImagesEEG,001,202534,
AFNE01.JPG,AFNE01.JPG,AFNE01.JPG,AFNE01.JPG,AFNE01.JPG,AFNE01.JPG,5,4,54,6,,,,,,,,,,,,,,,,,,,,,,,AMSA20.jpg,AMNE01.jpg,AMNE20.jpg,AMSA12.jpg,AMSA12.jpg,MS,2,num_4,32,num_2,0.450160337379,,,2017_Dec_06_1559,60.0018474842,MAFE4ImagesEEG,001,202534,
AFNE01.JPG,AFNE01.JPG,AFNE01.JPG,AFNE01.JPG,AFNE01.JPG,AFNE01.JPG,5,5,55,2,,,,,,,,,,,,,,,,,,,,,,,AMSA03.jpg,AMNE16.jpg,AMSA10.jpg,AMNE15.jpg,AMSA10.jpg,MS,2,num_2,32,num_8,0.466802852694,,,2017_Dec_06_1559,60.0018474842,MAFE4ImagesEEG,001,202534,
AFNE01.JPG,AFNE01.JPG,AFNE01.JPG,AFNE01.JPG,AFNE01.JPG,AFNE01.JPG,5,6,56,0,,,,,,,,,,,,,,,,,,,,,,,AMNE01.jpg,AMSA17.jpg,AMSA07.jpg,AMNE04.jpg,AMSA17.jpg,MS,2,num_6,16,num_6,0.416799933882,,,2017_Dec_06_1559,60.0018474842,MAFE4ImagesEEG,001,202534,
AFNE01.JPG,AFNE01.JPG,AFNE01.JPG,AFNE01.JPG,AFNE01.JPG,AFNE01.JPG,5,7,57,7,,,,,,,,,,,,,,,,,,,,,,,AMSA07.jpg,AMSA20.jpg,AMNE04.jpg,AMNE15.jpg,AMNE04.jpg,MN,1,num_2,32,num_4,0.400376162957,,,2017_Dec_06_1559,60.0018474842,MAFE4ImagesEEG,001,202534,
AFNE01.JPG,AFNE01.JPG,AFNE01.JPG,AFNE01.JPG,AFNE01.JPG,AFNE01.JPG,5,8,58,1,,,,,,,,,,,,,,,,,,,,,,,AMSA12.jpg,AMSA02.jpg,AMNE20.jpg,AMNE15.jpg,AMNE15.jpg,MN,1,num_4,32,num_8,0.666784057161,,,2017_Dec_06_1559,60.0018474842,MAFE4ImagesEEG,001,202534,
AFNE01.JPG,AFNE01.JPG,AFNE01.JPG,AFNE01.JPG,AFNE01.JPG,AFNE01.JPG,5,9,59,4,,,,,,,,,,,,,,,,,,,,,,,AMNE07.jpg,AMSA03.jpg,AMNE16.jpg,AMSA14.jpg,AMSA03.jpg,MS,2,num_6,32,num_2,0.366831334075,,,2017_Dec_06_1559,60.0018474842,MAFE4ImagesEEG,001,202534,
,,,,,,,,,,,,,,,,,,,,,,,,,,,,,,,,,,,,,,,,,,,space,1.6167192359,2017_Dec_06_1559,60.0018474842,MAFE4ImagesEEG,001,202534,
AFNE01.JPG,AFNE01.JPG,AFNE01.JPG,AFNE01.JPG,AFNE01.JPG,AFNE01.JPG,,,,,0,0,0,3,,,,,,,,,,,,,,,,,,,AFNE14.jpg,AFSA11.jpg,AFNE07.jpg,AFSA16.jpg,AFNE14.jpg,FN,3,num_8,16,num_8,0.266821006313,,,2017_Dec_06_1559,60.0018474842,MAFE4ImagesEEG,001,202534,
AFNE01.JPG,AFNE01.JPG,AFNE01.JPG,AFNE01.JPG,AFNE01.JPG,AFNE01.JPG,,,,,0,1,1,7,,,,,,,,,,,,,,,,,,,AFSA20.jpg,AFNE16.jpg,AFNE12.jpg,AFSA08.jpg,AFSA20.jpg,FS,4,num_8,32,num_2,0.300158958416,,,2017_Dec_06_1559,60.0018474842,MAFE4ImagesEEG,001,202534,
AFNE01.JPG,AFNE01.JPG,AFNE01.JPG,AFNE01.JPG,AFNE01.JPG,AFNE01.JPG,,,,,0,2,2,2,,,,,,,,,,,,,,,,,,,AFNE12.jpg,AFNE07.jpg,AFSA11.jpg,AFSA15.jpg,AFNE12.jpg,FN,3,num_8,32,num_4,0.316760418704,,,2017_Dec_06_1559,60.0018474842,MAFE4ImagesEEG,001,202534,
AFNE01.JPG,AFNE01.JPG,AFNE01.JPG,AFNE01.JPG,AFNE01.JPG,AFNE01.JPG,,,,,0,3,3,8,,,,,,,,,,,,,,,,,,,AFSA18.jpg,AFNE09.jpg,AFSA20.jpg,AFNE08.jpg,AFSA18.jpg,FS,4,num_8,32,num_6,0.350139425369,,,2017_Dec_06_1559,60.0018474842,MAFE4ImagesEEG,001,202534,
AFNE01.JPG,AFNE01.JPG,AFNE01.JPG,AFNE01.JPG,AFNE01.JPG,AFNE01.JPG,,,,,0,4,4,5,,,,,,,,,,,,,,,,,,,AFNE11.jpg,AFSA11.jpg,AFSA05.jpg,AFNE03.jpg,AFSA11.jpg,FS,4,num_6,32,num_8,0.383503357181,,,2017_Dec_06_1559,60.0018474842,MAFE4ImagesEEG,001,202534,
AFNE01.JPG,AFNE01.JPG,AFNE01.JPG,AFNE01.JPG,AFNE01.JPG,AFNE01.JPG,,,,,0,5,5,6,,,,,,,,,,,,,,,,,,,AFSA20.jpg,AFNE15.jpg,AFNE12.jpg,AFSA16.jpg,AFSA16.jpg,FS,4,num_4,32,num_2,0.333462911891,,,2017_Dec_06_1559,60.0018474842,MAFE4ImagesEEG,001,202534,
AFNE01.JPG,AFNE01.JPG,AFNE01.JPG,AFNE01.JPG,AFNE01.JPG,AFNE01.JPG,,,,,0,6,6,1,,,,,,,,,,,,,,,,,,,AFNE13.jpg,AFNE01.jpg,AFSA15.jpg,AFSA11.jpg,AFSA11.jpg,FS,4,num_4,32,num_6,0.483466215665,,,2017_Dec_06_1559,60.0018474842,MAFE4ImagesEEG,001,202534,
AFNE01.JPG,AFNE01.JPG,AFNE01.JPG,AFNE01.JPG,AFNE01.JPG,AFNE01.JPG,,,,,0,7,7,9,,,,,,,,,,,,,,,,,,,AFNE15.jpg,AFSA16.jpg,AFNE07.jpg,AFSA18.jpg,AFNE07.jpg,FN,3,num_2,32,num_4,0.400150041794,,,2017_Dec_06_1559,60.0018474842,MAFE4ImagesEEG,001,202534,
AFNE01.JPG,AFNE01.JPG,AFNE01.JPG,AFNE01.JPG,AFNE01.JPG,AFNE01.JPG,,,,,0,8,8,4,,,,,,,,,,,,,,,,,,,AFNE17.jpg,AFSA01.jpg,AFSA16.jpg,AFNE04.jpg,AFSA01.jpg,FS,4,num_6,16,num_6,0.350152254803,,,2017_Dec_06_1559,60.0018474842,MAFE4ImagesEEG,001,202534,
AFNE01.JPG,AFNE01.JPG,AFNE01.JPG,AFNE01.JPG,AFNE01.JPG,AFNE01.JPG,,,,,0,9,9,0,,,,,,,,,,,,,,,,,,,AFNE12.jpg,AFNE18.jpg,AFSA05.jpg,AFSA12.jpg,AFSA05.jpg,FS,4,num_2,32,num_4,0.366791562643,,,2017_Dec_06_1559,60.0018474842,MAFE4ImagesEEG,001,202534,
AFNE01.JPG,AFNE01.JPG,AFNE01.JPG,AFNE01.JPG,AFNE01.JPG,AFNE01.JPG,,,,,1,0,10,0,,,,,,,,,,,,,,,,,,,AFNE11.jpg,AFNE03.jpg,AFSA16.jpg,AFSA08.jpg,AFNE03.jpg,FN,3,num_6,32,num_8,0.316803397844,,,2017_Dec_06_1559,60.0018474842,MAFE4ImagesEEG,001,202534,
AFNE01.JPG,AFNE01.JPG,AFNE01.JPG,AFNE01.JPG,AFNE01.JPG,AFNE01.JPG,,,,,1,1,11,6,,,,,,,,,,,,,,,,,,,AFSA13.jpg,AFSA05.jpg,AFNE14.jpg,AFNE20.jpg,AFSA13.jpg,FS,4,num_8,32,num_6,0.300147732487,,,2017_Dec_06_1559,60.0018474842,MAFE4ImagesEEG,001,202534,
AFNE01.JPG,AFNE01.JPG,AFNE01.JPG,AFNE01.JPG,AFNE01.JPG,AFNE01.JPG,,,,,1,2,12,2,,,,,,,,,,,,,,,,,,,AFNE14.jpg,AFNE17.jpg,AFSA16.jpg,AFSA13.jpg,AFNE17.jpg,FN,3,num_6,32,num_4,0.366780336713,,,2017_Dec_06_1559,60.0018474842,MAFE4ImagesEEG,001,202534,
AFNE01.JPG,AFNE01.JPG,AFNE01.JPG,AFNE01.JPG,AFNE01.JPG,AFNE01.JPG,,,,,1,3,13,3,,,,,,,,,,,,,,,,,,,AFSA15.jpg,AFNE05.jpg,AFSA10.jpg,AFNE15.jpg,AFSA15.jpg,FS,4,num_8,32,num_4,0.416782934684,,,2017_Dec_06_1559,60.0018474842,MAFE4ImagesEEG,001,202534,
AFNE01.JPG,AFNE01.JPG,AFNE01.JPG,AFNE01.JPG,AFNE01.JPG,AFNE01.JPG,,,,,1,4,14,5,,,,,,,,,,,,,,,,,,,AFNE02.jpg,AFNE08.jpg,AFSA03.jpg,AFSA14.jpg,AFSA14.jpg,FS,4,num_4,16,num_4,0.700179421576,,,2017_Dec_06_1559,60.0018474842,MAFE4ImagesEEG,001,202534,
AFNE01.JPG,AFNE01.JPG,AFNE01.JPG,AFNE01.JPG,AFNE01.JPG,AFNE01.JPG,,,,,1,5,15,1,,,,,,,,,,,,,,,,,,,AFSA05.jpg,AFNE04.jpg,AFSA02.jpg,AFNE01.jpg,AFNE04.jpg,FN,3,num_6,32,num_4,0.433488955954,,,2017_Dec_06_1559,60.0018474842,MAFE4ImagesEEG,001,202534,
AFNE01.JPG,AFNE01.JPG,AFNE01.JPG,AFNE01.JPG,AFNE01.JPG,AFNE01.JPG,,,,,1,6,16,9,,,,,,,,,,,,,,,,,,,AFSA03.jpg,AFNE09.jpg,AFNE10.jpg,AFSA15.jpg,AFNE09.jpg,FN,3,num_6,32,num_4,0.383478339529,,,2017_Dec_06_1559,60.0018474842,MAFE4ImagesEEG,001,202534,
AFNE01.JPG,AFNE01.JPG,AFNE01.JPG,AFNE01.JPG,AFNE01.JPG,AFNE01.JPG,,,,,1,7,17,8,,,,,,,,,,,,,,,,,,,AFSA12.jpg,AFNE20.jpg,AFSA20.jpg,AFNE09.jpg,AFNE20.jpg,FN,3,num_6,32,num_8,0.366809203289,,,2017_Dec_06_1559,60.0018474842,MAFE4ImagesEEG,001,202534,
AFNE01.JPG,AFNE01.JPG,AFNE01.JPG,AFNE01.JPG,AFNE01.JPG,AFNE01.JPG,,,,,1,8,18,7,,,,,,,,,,,,,,,,,,,AFNE15.jpg,AFSA16.jpg,AFNE18.jpg,AFSA07.jpg,AFNE18.jpg,FN,3,num_2,32,num_6,0.416805386543,,,2017_Dec_06_1559,60.0018474842,MAFE4ImagesEEG,001,202534,
AFNE01.JPG,AFNE01.JPG,AFNE01.JPG,AFNE01.JPG,AFNE01.JPG,AFNE01.JPG,,,,,1,9,19,4,,,,,,,,,,,,,,,,,,,AFNE08.jpg,AFSA18.jpg,AFSA12.jpg,AFNE04.jpg,AFNE04.jpg,FN,3,num_4,32,num_2,0.383470000234,,,2017_Dec_06_1559,60.0018474842,MAFE4ImagesEEG,001,202534,
AFNE01.JPG,AFNE01.JPG,AFNE01.JPG,AFNE01.JPG,AFNE01.JPG,AFNE01.JPG,,,,,2,0,20,2,,,,,,,,,,,,,,,,,,,AFSA15.jpg,AFNE20.jpg,AFNE07.jpg,AFSA09.jpg,AFNE07.jpg,FN,3,num_2,32,num_4,0.433487352449,,,2017_Dec_06_1559,60.0018474842,MAFE4ImagesEEG,001,202534,
AFNE01.JPG,AFNE01.JPG,AFNE01.JPG,AFNE01.JPG,AFNE01.JPG,AFNE01.JPG,,,,,2,1,21,6,,,,,,,,,,,,,,,,,,,AFNE07.jpg,AFNE03.jpg,AFSA18.jpg,AFSA05.jpg,AFNE03.jpg,FN,3,num_6,32,num_8,0.700204439228,,,2017_Dec_06_1559,60.0018474842,MAFE4ImagesEEG,001,202534,
AFNE01.JPG,AFNE01.JPG,AFNE01.JPG,AFNE01.JPG,AFNE01.JPG,AFNE01.JPG,,,,,2,2,22,0,,,,,,,,,,,,,,,,,,,AFSA04.jpg,AFSA07.jpg,AFNE09.jpg,AFNE13.jpg,AFNE13.jpg,FN,3,num_4,32,num_2,0.966782646021,,,2017_Dec_06_1559,60.0018474842,MAFE4ImagesEEG,001,202534,
AFNE01.JPG,AFNE01.JPG,AFNE01.JPG,AFNE01.JPG,AFNE01.JPG,AFNE01.JPG,,,,,2,3,23,9,,,,,,,,,,,,,,,,,,,AFNE09.jpg,AFSA01.jpg,AFNE17.jpg,AFSA02.jpg,AFNE09.jpg,FN,3,num_8,16,num_8,0.516643797979,,,2017_Dec_06_1559,60.0018474842,MAFE4ImagesEEG,001,202534,
AFNE01.JPG,AFNE01.JPG,AFNE01.JPG,AFNE01.JPG,AFNE01.JPG,AFNE01.JPG,,,,,2,4,24,8,,,,,,,,,,,,,,,,,,,AFNE17.jpg,AFSA04.jpg,AFSA06.jpg,AFNE08.jpg,AFNE08.jpg,FN,3,num_4,16,num_4,0.916738993488,,,2017_Dec_06_1559,60.0018474842,MAFE4ImagesEEG,001,202534,
AFNE01.JPG,AFNE01.JPG,AFNE01.JPG,AFNE01.JPG,AFNE01.JPG,AFNE01.JPG,,,,,2,5,25,4,,,,,,,,,,,,,,,,,,,AFSA01.jpg,AFNE04.jpg,AFNE01.jpg,AFSA18.jpg,AFSA01.jpg,FS,4,num_8,32,num_4,0.833355143433,,,2017_Dec_06_1559,60.0018474842,MAFE4ImagesEEG,001,202534,
AFNE01.JPG,AFNE01.JPG,AFNE01.JPG,AFNE01.JPG,AFNE01.JPG,AFNE01.JPG,,,,,2,6,26,7,,,,,,,,,,,,,,,,,,,AFSA19.jpg,AFSA15.jpg,AFNE13.jpg,AFNE07.jpg,AFNE07.jpg,FN,3,num_4,32,num_6,0.333524173126,,,2017_Dec_06_1559,60.0018474842,MAFE4ImagesEEG,001,202534,
AFNE01.JPG,AFNE01.JPG,AFNE01.JPG,AFNE01.JPG,AFNE01.JPG,AFNE01.JPG,,,,,2,7,27,5,,,,,,,,,,,,,,,,,,,AFNE17.jpg,AFSA02.jpg,AFNE10.jpg,AFSA19.jpg,AFNE17.jpg,FN,3,num_8,32,num_2,0.400001539616,,,2017_Dec_06_1559,60.0018474842,MAFE4ImagesEEG,001,202534,
AFNE01.JPG,AFNE01.JPG,AFNE01.JPG,AFNE01.JPG,AFNE01.JPG,AFNE01.JPG,,,,,2,8,28,1,,,,,,,,,,,,,,,,,,,AFSA03.jpg,AFNE19.jpg,AFSA20.jpg,AFNE13.jpg,AFNE13.jpg,FN,3,num_4,16,num_4,0.400206491817,,,2017_Dec_06_1559,60.0018474842,MAFE4ImagesEEG,001,202534,
AFNE01.JPG,AFNE01.JPG,AFNE01.JPG,AFNE01.JPG,AFNE01.JPG,AFNE01.JPG,,,,,2,9,29,3,,,,,,,,,,,,,,,,,,,AFNE13.jpg,AFSA06.jpg,AFSA01.jpg,AFNE01.jpg,AFNE01.jpg,FN,3,num_4,32,num_6,0.417116824072,,,2017_Dec_06_1559,60.0018474842,MAFE4ImagesEEG,001,202534,
AFNE01.JPG,AFNE01.JPG,AFNE01.JPG,AFNE01.JPG,AFNE01.JPG,AFNE01.JPG,,,,,3,0,30,7,,,,,,,,,,,,,,,,,,,AFSA18.jpg,AFSA20.jpg,AFNE05.jpg,AFNE06.jpg,AFSA18.jpg,FS,4,num_8,32,num_2,0.300193918869,,,2017_Dec_06_1559,60.0018474842,MAFE4ImagesEEG,001,202534,
AFNE01.JPG,AFNE01.JPG,AFNE01.JPG,AFNE01.JPG,AFNE01.JPG,AFNE01.JPG,,,,,3,1,31,4,,,,,,,,,,,,,,,,,,,AFSA04.jpg,AFNE09.jpg,AFNE04.jpg,AFSA08.jpg,AFNE04.jpg,FN,3,num_2,32,num_8,0.733464451507,,,2017_Dec_06_1559,60.0018474842,MAFE4ImagesEEG,001,202534,
AFNE01.JPG,AFNE01.JPG,AFNE01.JPG,AFNE01.JPG,AFNE01.JPG,AFNE01.JPG,,,,,3,2,32,1,,,,,,,,,,,,,,,,,,,AFNE18.jpg,AFNE11.jpg,AFSA01.jpg,AFSA14.jpg,AFSA14.jpg,FS,4,num_4,32,num_6,0.383534789784,,,2017_Dec_06_1559,60.0018474842,MAFE4ImagesEEG,001,202534,
AFNE01.JPG,AFNE01.JPG,AFNE01.JPG,AFNE01.JPG,AFNE01.JPG,AFNE01.JPG,,,,,3,3,33,0,,,,,,,,,,,,,,,,,,,AFNE09.jpg,AFSA18.jpg,AFSA16.jpg,AFNE17.jpg,AFNE09.jpg,FN,3,num_8,32,num_2,0.366774563212,,,2017_Dec_06_1559,60.0018474842,MAFE4ImagesEEG,001,202534,
AFNE01.JPG,AFNE01.JPG,AFNE01.JPG,AFNE01.JPG,AFNE01.JPG,AFNE01.JPG,,,,,3,4,34,6,,,,,,,,,,,,,,,,,,,AFSA18.jpg,AFSA19.jpg,AFNE13.jpg,AFNE16.jpg,AFSA18.jpg,FS,4,num_8,16,num_8,0.36676654499,,,2017_Dec_06_1559,60.0018474842,MAFE4ImagesEEG,001,202534,
AFNE01.JPG,AFNE01.JPG,AFNE01.JPG,AFNE01.JPG,AFNE01.JPG,AFNE01.JPG,,,,,3,5,35,3,,,,,,,,,,,,,,,,,,,AFSA12.jpg,AFSA04.jpg,AFNE09.jpg,AFNE05.jpg,AFNE05.jpg,FN,3,num_4,32,num_8,0.600118737668,,,2017_Dec_06_1559,60.0018474842,MAFE4ImagesEEG,001,202534,
AFNE01.JPG,AFNE01.JPG,AFNE01.JPG,AFNE01.JPG,AFNE01.JPG,AFNE01.JPG,,,,,3,6,36,8,,,,,,,,,,,,,,,,,,,AFSA15.jpg,AFNE16.jpg,AFSA18.jpg,AFNE09.jpg,AFNE16.jpg,FN,3,num_6,16,num_6,0.766816516174,,,2017_Dec_06_1559,60.0018474842,MAFE4ImagesEEG,001,202534,
AFNE01.JPG,AFNE01.JPG,AFNE01.JPG,AFNE01.JPG,AFNE01.JPG,AFNE01.JPG,,,,,3,7,37,2,,,,,,,,,,,,,,,,,,,AFSA06.jpg,AFSA20.jpg,AFNE09.jpg,AFNE12.jpg,AFSA20.jpg,FS,4,num_6,32,num_8,0.800153505756,,,2017_Dec_06_1559,60.0018474842,MAFE4ImagesEEG,001,202534,
AFNE01.JPG,AFNE01.JPG,AFNE01.JPG,AFNE01.JPG,AFNE01.JPG,AFNE01.JPG,,,,,3,8,38,9,,,,,,,,,,,,,,,,,,,AFNE20.jpg,AFSA06.jpg,AFNE16.jpg,AFSA09.jpg,AFNE16.jpg,FN,3,num_2,16,num_2,0.416818857426,,,2017_Dec_06_1559,60.0018474842,MAFE4ImagesEEG,001,202534,
AFNE01.JPG,AFNE01.JPG,AFNE01.JPG,AFNE01.JPG,AFNE01.JPG,AFNE01.JPG,,,,,3,9,39,5,,,,,,,,,,,,,,,,,,,AFSA08.jpg,AFNE12.jpg,AFSA07.jpg,AFNE20.jpg,AFSA08.jpg,FS,4,num_8,32,num_6,0.600127397571,,,2017_Dec_06_1559,60.0018474842,MAFE4ImagesEEG,001,202534,
AFNE01.JPG,AFNE01.JPG,AFNE01.JPG,AFNE01.JPG,AFNE01.JPG,AFNE01.JPG,,,,,4,0,40,5,,,,,,,,,,,,,,,,,,,AFNE09.jpg,AFSA17.jpg,AFNE14.jpg,AFSA18.jpg,AFNE14.jpg,FN,3,num_2,32,num_8,0.500210404862,,,2017_Dec_06_1559,60.0018474842,MAFE4ImagesEEG,001,202534,
AFNE01.JPG,AFNE01.JPG,AFNE01.JPG,AFNE01.JPG,AFNE01.JPG,AFNE01.JPG,,,,,4,1,41,9,,,,,,,,,,,,,,,,,,,AFNE18.jpg,AFSA04.jpg,AFSA03.jpg,AFNE17.jpg,AFNE18.jpg,FN,3,num_8,32,num_4,1.13347849995,,,2017_Dec_06_1559,60.0018474842,MAFE4ImagesEEG,001,202534,
AFNE01.JPG,AFNE01.JPG,AFNE01.JPG,AFNE01.JPG,AFNE01.JPG,AFNE01.JPG,,,,,4,2,42,7,,,,,,,,,,,,,,,,,,,AFNE11.jpg,AFNE16.jpg,AFSA18.jpg,AFSA13.jpg,AFNE16.jpg,FN,3,num_6,32,num_2,0.383202503668,,,2017_Dec_06_1559,60.0018474842,MAFE4ImagesEEG,001,202534,
AFNE01.JPG,AFNE01.JPG,AFNE01.JPG,AFNE01.JPG,AFNE01.JPG,AFNE01.JPG,,,,,4,3,43,8,,,,,,,,,,,,,,,,,,,AFNE14.jpg,AFSA11.jpg,AFNE01.jpg,AFSA12.jpg,AFSA12.jpg,FS,4,num_4,32,num_8,0.58351182472,,,2017_Dec_06_1559,60.0018474842,MAFE4ImagesEEG,001,202534,
AFNE01.JPG,AFNE01.JPG,AFNE01.JPG,AFNE01.JPG,AFNE01.JPG,AFNE01.JPG,,,,,4,4,44,3,,,,,,,,,,,,,,,,,,,AFSA07.jpg,AFNE17.jpg,AFNE13.jpg,AFSA02.jpg,AFSA02.jpg,FS,4,num_4,32,num_6,0.366842560237,,,2017_Dec_06_1559,60.0018474842,MAFE4ImagesEEG,001,202534,
AFNE01.JPG,AFNE01.JPG,AFNE01.JPG,AFNE01.JPG,AFNE01.JPG,AFNE01.JPG,,,,,4,5,45,0,,,,,,,,,,,,,,,,,,,AFNE05.jpg,AFSA05.jpg,AFNE12.jpg,AFSA15.jpg,AFNE05.jpg,FN,3,num_8,32,num_2,0.516887238948,,,2017_Dec_06_1559,60.0018474842,MAFE4ImagesEEG,001,202534,
AFNE01.JPG,AFNE01.JPG,AFNE01.JPG,AFNE01.JPG,AFNE01.JPG,AFNE01.JPG,,,,,4,6,46,4,,,,,,,,,,,,,,,,,,,AFSA09.jpg,AFNE03.jpg,AFNE10.jpg,AFSA01.jpg,AFNE10.jpg,FN,3,num_2,16,num_2,0.683517341502,,,2017_Dec_06_1559,60.0018474842,MAFE4ImagesEEG,001,202534,
AFNE01.JPG,AFNE01.JPG,AFNE01.JPG,AFNE01.JPG,AFNE01.JPG,AFNE01.JPG,,,,,4,7,47,2,,,,,,,,,,,,,,,,,,,AFNE12.jpg,AFSA19.jpg,AFSA04.jpg,AFNE11.jpg,AFSA19.jpg,FS,4,num_6,32,num_2,0.950250786031,,,2017_Dec_06_1559,60.0018474842,MAFE4ImagesEEG,001,202534,
AFNE01.JPG,AFNE01.JPG,AFNE01.JPG,AFNE01.JPG,AFNE01.JPG,AFNE01.JPG,,,,,4,8,48,1,,,,,,,,,,,,,,,,,,,AFNE11.jpg,AFNE04.jpg,AFSA04.jpg,AFSA06.jpg,AFNE11.jpg,FN,3,num_8,32,num_2,0.366820429219,,,2017_Dec_06_1559,60.0018474842,MAFE4ImagesEEG,001,202534,
AFNE01.JPG,AFNE01.JPG,AFNE01.JPG,AFNE01.JPG,AFNE01.JPG,AFNE01.JPG,,,,,4,9,49,6,,,,,,,,,,,,,,,,,,,AFNE07.jpg,AFSA11.jpg,AFNE04.jpg,AFSA10.jpg,AFSA11.jpg,FS,4,num_6,32,num_2,0.416865043808,,,2017_Dec_06_1559,60.0018474842,MAFE4ImagesEEG,001,202534,
AFNE01.JPG,AFNE01.JPG,AFNE01.JPG,AFNE01.JPG,AFNE01.JPG,AFNE01.JPG,,,,,5,0,50,0,,,,,,,,,,,,,,,,,,,AFNE15.jpg,AFSA19.jpg,AFNE16.jpg,AFSA10.jpg,AFSA10.jpg,FS,4,num_4,32,num_2,0.333542134613,,,2017_Dec_06_1559,60.0018474842,MAFE4ImagesEEG,001,202534,
AFNE01.JPG,AFNE01.JPG,AFNE01.JPG,AFNE01.JPG,AFNE01.JPG,AFNE01.JPG,,,,,5,1,51,4,,,,,,,,,,,,,,,,,,,AFSA20.jpg,AFSA04.jpg,AFNE01.jpg,AFNE14.jpg,AFSA04.jpg,FS,4,num_6,32,num_2,0.350146481534,,,2017_Dec_06_1559,60.0018474842,MAFE4ImagesEEG,001,202534,
AFNE01.JPG,AFNE01.JPG,AFNE01.JPG,AFNE01.JPG,AFNE01.JPG,AFNE01.JPG,,,,,5,2,52,8,,,,,,,,,,,,,,,,,,,AFSA14.jpg,AFNE08.jpg,AFSA06.jpg,AFNE11.jpg,AFSA06.jpg,FS,4,num_2,16,num_2,0.366787392879,,,2017_Dec_06_1559,60.0018474842,MAFE4ImagesEEG,001,202534,
AFNE01.JPG,AFNE01.JPG,AFNE01.JPG,AFNE01.JPG,AFNE01.JPG,AFNE01.JPG,,,,,5,3,53,1,,,,,,,,,,,,,,,,,,,AFSA03.jpg,AFNE01.jpg,AFSA13.jpg,AFNE11.jpg,AFSA13.jpg,FS,4,num_2,32,num_6,0.38349405583,,,2017_Dec_06_1559,60.0018474842,MAFE4ImagesEEG,001,202534,
AFNE01.JPG,AFNE01.JPG,AFNE01.JPG,AFNE01.JPG,AFNE01.JPG,AFNE01.JPG,,,,,5,4,54,2,,,,,,,,,,,,,,,,,,,AFSA19.jpg,AFSA16.jpg,AFNE06.jpg,AFNE07.jpg,AFNE06.jpg,FN,3,num_2,32,num_6,0.616847852245,,,2017_Dec_06_1559,60.0018474842,MAFE4ImagesEEG,001,202534,
AFNE01.JPG,AFNE01.JPG,AFNE01.JPG,AFNE01.JPG,AFNE01.JPG,AFNE01.JPG,,,,,5,5,55,5,,,,,,,,,,,,,,,,,,,AFNE03.jpg,AFSA03.jpg,AFNE02.jpg,AFSA07.jpg,AFNE03.jpg,FN,3,num_8,32,num_6,1.51673071831,,,2017_Dec_06_1559,60.0018474842,MAFE4ImagesEEG,001,202534,
AFNE01.JPG,AFNE01.JPG,AFNE01.JPG,AFNE01.JPG,AFNE01.JPG,AFNE01.JPG,,,,,5,6,56,3,,,,,,,,,,,,,,,,,,,AFSA18.jpg,AFNE14.jpg,AFSA15.jpg,AFNE06.jpg,AFNE14.jpg,FN,3,num_6,16,num_6,0.666807791917,,,2017_Dec_06_1559,60.0018474842,MAFE4ImagesEEG,001,202534,
AFNE01.JPG,AFNE01.JPG,AFNE01.JPG,AFNE01.JPG,AFNE01.JPG,AFNE01.JPG,,,,,5,7,57,9,,,,,,,,,,,,,,,,,,,AFSA05.jpg,AFSA01.jpg,AFNE02.jpg,AFNE09.jpg,AFNE02.jpg,FN,3,num_2,32,num_6,0.583790226141,,,2017_Dec_06_1559,60.0018474842,MAFE4ImagesEEG,001,202534,
AFNE01.JPG,AFNE01.JPG,AFNE01.JPG,AFNE01.JPG,AFNE01.JPG,AFNE01.JPG,,,,,5,8,58,7,,,,,,,,,,,,,,,,,,,AFNE18.jpg,AFSA10.jpg,AFSA17.jpg,AFNE14.jpg,AFNE14.jpg,FN,3,num_4,32,num_6,1.91672552214,,,2017_Dec_06_1559,60.0018474842,MAFE4ImagesEEG,001,202534,
AFNE01.JPG,AFNE01.JPG,AFNE01.JPG,AFNE01.JPG,AFNE01.JPG,AFNE01.JPG,,,,,5,9,59,6,,,,,,,,,,,,,,,,,,,AFNE01.jpg,AFNE06.jpg,AFSA03.jpg,AFSA05.jpg,AFNE01.jpg,FN,3,num_8,32,num_2,0.383473207708,,,2017_Dec_06_1559,60.0018474842,MAFE4ImagesEEG,001,202534,
,,,,,,,,,,,,,,,,,,,,,,,,,,,,,,,,,,,,,,,,,,,space,1.10006036307,2017_Dec_06_1559,60.0018474842,MAFE4ImagesEEG,001,202534,
AFNE01.JPG,AFNE01.JPG,AFNE01.JPG,AFNE01.JPG,AFNE01.JPG,AFNE01.JPG,,,,,,,,,0,0,0,9,,,,,,,,,,,,,,,AMSA03.jpg,AMNE20.jpg,AMNE10.jpg,AMSA09.jpg,AMSA03.jpg,MS,2,num_8,32,num_6,0.433491521981,,,2017_Dec_06_1559,60.0018474842,MAFE4ImagesEEG,001,202534,
AFNE01.JPG,AFNE01.JPG,AFNE01.JPG,AFNE01.JPG,AFNE01.JPG,AFNE01.JPG,,,,,,,,,0,1,1,8,,,,,,,,,,,,,,,AMSA13.jpg,AMNE09.jpg,AMSA02.jpg,AMNE17.jpg,AMNE17.jpg,MN,1,num_4,32,num_8,0.500156841474,,,2017_Dec_06_1559,60.0018474842,MAFE4ImagesEEG,001,202534,
AFNE01.JPG,AFNE01.JPG,AFNE01.JPG,AFNE01.JPG,AFNE01.JPG,AFNE01.JPG,,,,,,,,,0,2,2,2,,,,,,,,,,,,,,,AMNE14.jpg,AMSA19.jpg,AMSA16.jpg,AMNE18.jpg,AMNE18.jpg,MN,1,num_4,16,num_4,0.431511598872,,,2017_Dec_06_1559,60.0018474842,MAFE4ImagesEEG,001,202534,
AFNE01.JPG,AFNE01.JPG,AFNE01.JPG,AFNE01.JPG,AFNE01.JPG,AFNE01.JPG,,,,,,,,,0,3,3,7,,,,,,,,,,,,,,,AMNE07.jpg,AMSA08.jpg,AMNE15.jpg,AMSA15.jpg,AMSA08.jpg,MS,2,num_6,32,num_4,0.73345803679,,,2017_Dec_06_1559,60.0018474842,MAFE4ImagesEEG,001,202534,
AFNE01.JPG,AFNE01.JPG,AFNE01.JPG,AFNE01.JPG,AFNE01.JPG,AFNE01.JPG,,,,,,,,,0,4,4,3,,,,,,,,,,,,,,,AMSA15.jpg,AMNE02.jpg,AMNE18.jpg,AMSA04.jpg,AMSA15.jpg,MS,2,num_8,32,num_4,3.83319605701,,,2017_Dec_06_1559,60.0018474842,MAFE4ImagesEEG,001,202534,
AFNE01.JPG,AFNE01.JPG,AFNE01.JPG,AFNE01.JPG,AFNE01.JPG,AFNE01.JPG,,,,,,,,,0,5,5,1,,,,,,,,,,,,,,,AMSA18.jpg,AMSA19.jpg,AMNE15.jpg,AMNE05.jpg,AMSA18.jpg,MS,2,num_8,16,num_8,0.433499861043,,,2017_Dec_06_1559,60.0018474842,MAFE4ImagesEEG,001,202534,
AFNE01.JPG,AFNE01.JPG,AFNE01.JPG,AFNE01.JPG,AFNE01.JPG,AFNE01.JPG,,,,,,,,,0,6,6,6,,,,,,,,,,,,,,,AMNE13.jpg,AMNE06.jpg,AMSA12.jpg,AMSA14.jpg,AMNE06.jpg,MN,1,num_6,16,num_6,0.416806027759,,,2017_Dec_06_1559,60.0018474842,MAFE4ImagesEEG,001,202534,
AFNE01.JPG,AFNE01.JPG,AFNE01.JPG,AFNE01.JPG,AFNE01.JPG,AFNE01.JPG,,,,,,,,,0,7,7,0,,,,,,,,,,,,,,,AMSA10.jpg,AMNE16.jpg,AMSA04.jpg,AMNE09.jpg,AMNE09.jpg,MN,1,num_4,32,num_2,0.383471603971,,,2017_Dec_06_1559,60.0018474842,MAFE4ImagesEEG,001,202534,
AFNE01.JPG,AFNE01.JPG,AFNE01.JPG,AFNE01.JPG,AFNE01.JPG,AFNE01.JPG,,,,,,,,,0,8,8,4,,,,,,,,,,,,,,,AMSA16.jpg,AMNE05.jpg,AMSA14.jpg,AMNE06.jpg,AMSA14.jpg,MS,2,num_2,32,num_6,0.433527444722,,,2017_Dec_06_1559,60.0018474842,MAFE4ImagesEEG,001,202534,
AFNE01.JPG,AFNE01.JPG,AFNE01.JPG,AFNE01.JPG,AFNE01.JPG,AFNE01.JPG,,,,,,,,,0,9,9,5,,,,,,,,,,,,,,,AMSA17.jpg,AMSA08.jpg,AMNE05.jpg,AMNE01.jpg,AMNE01.jpg,MN,1,num_4,32,num_8,0.333554001991,,,2017_Dec_06_1559,60.0018474842,MAFE4ImagesEEG,001,202534,
AFNE01.JPG,AFNE01.JPG,AFNE01.JPG,AFNE01.JPG,AFNE01.JPG,AFNE01.JPG,,,,,,,,,1,0,10,5,,,,,,,,,,,,,,,AMNE19.jpg,AMSA06.jpg,AMNE05.jpg,AMSA04.jpg,AMNE19.jpg,MN,1,num_8,32,num_4,0.383567825891,,,2017_Dec_06_1559,60.0018474842,MAFE4ImagesEEG,001,202534,
AFNE01.JPG,AFNE01.JPG,AFNE01.JPG,AFNE01.JPG,AFNE01.JPG,AFNE01.JPG,,,,,,,,,1,1,11,4,,,,,,,,,,,,,,,AMNE18.jpg,AMNE19.jpg,AMSA14.jpg,AMSA08.jpg,AMSA14.jpg,MS,2,num_2,32,num_6,0.600180640351,,,2017_Dec_06_1559,60.0018474842,MAFE4ImagesEEG,001,202534,
AFNE01.JPG,AFNE01.JPG,AFNE01.JPG,AFNE01.JPG,AFNE01.JPG,AFNE01.JPG,,,,,,,,,1,2,12,3,,,,,,,,,,,,,,,AMSA20.jpg,AMSA05.jpg,AMNE04.jpg,AMNE14.jpg,AMNE14.jpg,MN,1,num_4,32,num_2,1.01674290653,,,2017_Dec_06_1559,60.0018474842,MAFE4ImagesEEG,001,202534,
AFNE01.JPG,AFNE01.JPG,AFNE01.JPG,AFNE01.JPG,AFNE01.JPG,AFNE01.JPG,,,,,,,,,1,3,13,7,,,,,,,,,,,,,,,AMSA19.jpg,AMNE14.jpg,AMNE07.jpg,AMSA12.jpg,AMSA12.jpg,MS,2,num_4,32,num_8,0.550134421792,,,2017_Dec_06_1559,60.0018474842,MAFE4ImagesEEG,001,202534,
AFNE01.JPG,AFNE01.JPG,AFNE01.JPG,AFNE01.JPG,AFNE01.JPG,AFNE01.JPG,,,,,,,,,1,4,14,6,,,,,,,,,,,,,,,AMSA11.jpg,AMSA16.jpg,AMNE15.jpg,AMNE07.jpg,AMSA11.jpg,MS,2,num_8,32,num_6,0.383479622426,,,2017_Dec_06_1559,60.0018474842,MAFE4ImagesEEG,001,202534,
AFNE01.JPG,AFNE01.JPG,AFNE01.JPG,AFNE01.JPG,AFNE01.JPG,AFNE01.JPG,,,,,,,,,1,5,15,0,,,,,,,,,,,,,,,AMNE11.jpg,AMSA02.jpg,AMNE20.jpg,AMSA12.jpg,AMSA02.jpg,MS,2,num_6,32,num_2,0.666742681758,,,2017_Dec_06_1559,60.0018474842,MAFE4ImagesEEG,001,202534,
AFNE01.JPG,AFNE01.JPG,AFNE01.JPG,AFNE01.JPG,AFNE01.JPG,AFNE01.JPG,,,,,,,,,1,6,16,2,,,,,,,,,,,,,,,AMSA06.jpg,AMSA16.jpg,AMNE06.jpg,AMNE02.jpg,AMNE02.jpg,MN,1,num_4,32,num_8,0.450160978828,,,2017_Dec_06_1559,60.0018474842,MAFE4ImagesEEG,001,202534,
AFNE01.JPG,AFNE01.JPG,AFNE01.JPG,AFNE01.JPG,AFNE01.JPG,AFNE01.JPG,,,,,,,,,1,7,17,1,,,,,,,,,,,,,,,AMNE05.jpg,AMSA10.jpg,AMNE15.jpg,AMSA17.jpg,AMSA17.jpg,MS,2,num_4,32,num_2,0.433461051667,,,2017_Dec_06_1559,60.0018474842,MAFE4ImagesEEG,001,202534,
AFNE01.JPG,AFNE01.JPG,AFNE01.JPG,AFNE01.JPG,AFNE01.JPG,AFNE01.JPG,,,,,,,,,1,8,18,9,,,,,,,,,,,,,,,AMNE07.jpg,AMNE03.jpg,AMSA09.jpg,AMSA20.jpg,AMSA20.jpg,MS,2,num_4,32,num_8,0.350265475689,,,2017_Dec_06_1559,60.0018474842,MAFE4ImagesEEG,001,202534,
AFNE01.JPG,AFNE01.JPG,AFNE01.JPG,AFNE01.JPG,AFNE01.JPG,AFNE01.JPG,,,,,,,,,1,9,19,8,,,,,,,,,,,,,,,AMSA19.jpg,AMSA15.jpg,AMNE03.jpg,AMNE07.jpg,AMSA15.jpg,MS,2,num_6,16,num_6,0.366794128437,,,2017_Dec_06_1559,60.0018474842,MAFE4ImagesEEG,001,202534,
AFNE01.JPG,AFNE01.JPG,AFNE01.JPG,AFNE01.JPG,AFNE01.JPG,AFNE01.JPG,,,,,,,,,2,0,20,0,,,,,,,,,,,,,,,AMNE12.jpg,AMSA08.jpg,AMSA19.jpg,AMNE03.jpg,AMSA08.jpg,MS,2,num_6,32,num_2,0.383559807204,,,2017_Dec_06_1559,60.0018474842,MAFE4ImagesEEG,001,202534,
AFNE01.JPG,AFNE01.JPG,AFNE01.JPG,AFNE01.JPG,AFNE01.JPG,AFNE01.JPG,,,,,,,,,2,1,21,7,,,,,,,,,,,,,,,AMNE09.jpg,AMSA12.jpg,AMNE04.jpg,AMSA08.jpg,AMSA08.jpg,MS,2,num_4,16,num_4,0.416798971593,,,2017_Dec_06_1559,60.0018474842,MAFE4ImagesEEG,001,202534,
AFNE01.JPG,AFNE01.JPG,AFNE01.JPG,AFNE01.JPG,AFNE01.JPG,AFNE01.JPG,,,,,,,,,2,2,22,8,,,,,,,,,,,,,,,AMNE02.jpg,AMNE19.jpg,AMSA10.jpg,AMSA18.jpg,AMSA18.jpg,MS,2,num_4,16,num_4,0.450152318925,,,2017_Dec_06_1559,60.0018474842,MAFE4ImagesEEG,001,202534,
AFNE01.JPG,AFNE01.JPG,AFNE01.JPG,AFNE01.JPG,AFNE01.JPG,AFNE01.JPG,,,,,,,,,2,3,23,4,,,,,,,,,,,,,,,AMNE17.jpg,AMSA17.jpg,AMSA02.jpg,AMNE06.jpg,AMSA02.jpg,MS,2,num_2,32,num_8,0.400119892322,,,2017_Dec_06_1559,60.0018474842,MAFE4ImagesEEG,001,202534,
AFNE01.JPG,AFNE01.JPG,AFNE01.JPG,AFNE01.JPG,AFNE01.JPG,AFNE01.JPG,,,,,,,,,2,4,24,2,,,,,,,,,,,,,,,AMSA07.jpg,AMSA12.jpg,AMNE18.jpg,AMNE16.jpg,AMSA12.jpg,MS,2,num_6,32,num_8,0.433416469023,,,2017_Dec_06_1559,60.0018474842,MAFE4ImagesEEG,001,202534,
AFNE01.JPG,AFNE01.JPG,AFNE01.JPG,AFNE01.JPG,AFNE01.JPG,AFNE01.JPG,,,,,,,,,2,5,25,1,,,,,,,,,,,,,,,AMSA13.jpg,AMSA10.jpg,AMNE12.jpg,AMNE08.jpg,AMNE08.jpg,MN,1,num_4,16,num_4,0.833419291535,,,2017_Dec_06_1559,60.0018474842,MAFE4ImagesEEG,001,202534,
AFNE01.JPG,AFNE01.JPG,AFNE01.JPG,AFNE01.JPG,AFNE01.JPG,AFNE01.JPG,,,,,,,,,2,6,26,9,,,,,,,,,,,,,,,AMSA05.jpg,AMNE20.jpg,AMSA07.jpg,AMNE05.jpg,AMSA05.jpg,MS,2,num_8,32,num_2,0.400163192069,,,2017_Dec_06_1559,60.0018474842,MAFE4ImagesEEG,001,202534,
AFNE01.JPG,AFNE01.JPG,AFNE01.JPG,AFNE01.JPG,AFNE01.JPG,AFNE01.JPG,,,,,,,,,2,7,27,5,,,,,,,,,,,,,,,AMNE04.jpg,AMNE11.jpg,AMSA17.jpg,AMSA12.jpg,AMSA17.jpg,MS,2,num_2,32,num_4,0.550049426034,,,2017_Dec_06_1559,60.0018474842,MAFE4ImagesEEG,001,202534,
AFNE01.JPG,AFNE01.JPG,AFNE01.JPG,AFNE01.JPG,AFNE01.JPG,AFNE01.JPG,,,,,,,,,2,8,28,6,,,,,,,,,,,,,,,AMSA19.jpg,AMNE12.jpg,AMSA12.jpg,AMNE20.jpg,AMNE12.jpg,MN,1,num_6,16,num_6,0.366784185404,,,2017_Dec_06_1559,60.0018474842,MAFE4ImagesEEG,001,202534,
AFNE01.JPG,AFNE01.JPG,AFNE01.JPG,AFNE01.JPG,AFNE01.JPG,AFNE01.JPG,,,,,,,,,2,9,29,3,,,,,,,,,,,,,,,AMNE17.jpg,AMSA05.jpg,AMNE01.jpg,AMSA17.jpg,AMNE01.jpg,MN,1,num_2,16,num_2,0.466782646021,,,2017_Dec_06_1559,60.0018474842,MAFE4ImagesEEG,001,202534,
AFNE01.JPG,AFNE01.JPG,AFNE01.JPG,AFNE01.JPG,AFNE01.JPG,AFNE01.JPG,,,,,,,,,3,0,30,9,,,,,,,,,,,,,,,AMNE02.jpg,AMSA06.jpg,AMSA02.jpg,AMNE20.jpg,AMSA06.jpg,MS,2,num_6,32,num_4,0.716500876704,,,2017_Dec_06_1559,60.0018474842,MAFE4ImagesEEG,001,202534,
AFNE01.JPG,AFNE01.JPG,AFNE01.JPG,AFNE01.JPG,AFNE01.JPG,AFNE01.JPG,,,,,,,,,3,1,31,8,,,,,,,,,,,,,,,AMSA20.jpg,AMNE08.jpg,AMNE07.jpg,AMSA15.jpg,AMSA15.jpg,MS,2,num_4,32,num_6,0.466789381346,,,2017_Dec_06_1559,60.0018474842,MAFE4ImagesEEG,001,202534,
AFNE01.JPG,AFNE01.JPG,AFNE01.JPG,AFNE01.JPG,AFNE01.JPG,AFNE01.JPG,,,,,,,,,3,2,32,0,,,,,,,,,,,,,,,AMSA12.jpg,AMNE20.jpg,AMNE18.jpg,AMSA13.jpg,AMNE18.jpg,MN,1,num_2,16,num_2,0.816744702403,,,2017_Dec_06_1559,60.0018474842,MAFE4ImagesEEG,001,202534,
AFNE01.JPG,AFNE01.JPG,AFNE01.JPG,AFNE01.JPG,AFNE01.JPG,AFNE01.JPG,,,,,,,,,3,3,33,5,,,,,,,,,,,,,,,AMNE13.jpg,AMSA06.jpg,AMSA16.jpg,AMNE15.jpg,AMNE15.jpg,MN,1,num_4,32,num_8,0.416752464371,,,2017_Dec_06_1559,60.0018474842,MAFE4ImagesEEG,001,202534,
AFNE01.JPG,AFNE01.JPG,AFNE01.JPG,AFNE01.JPG,AFNE01.JPG,AFNE01.JPG,,,,,,,,,3,4,34,4,,,,,,,,,,,,,,,AMSA13.jpg,AMSA07.jpg,AMNE18.jpg,AMNE10.jpg,AMNE10.jpg,MN,1,num_4,32,num_6,0.466670708032,,,2017_Dec_06_1559,60.0018474842,MAFE4ImagesEEG,001,202534,
AFNE01.JPG,AFNE01.JPG,AFNE01.JPG,AFNE01.JPG,AFNE01.JPG,AFNE01.JPG,,,,,,,,,3,5,35,2,,,,,,,,,,,,,,,AMNE16.jpg,AMSA20.jpg,AMSA13.jpg,AMNE07.jpg,AMNE07.jpg,MN,1,num_4,32,num_2,0.600146962563,,,2017_Dec_06_1559,60.0018474842,MAFE4ImagesEEG,001,202534,
AFNE01.JPG,AFNE01.JPG,AFNE01.JPG,AFNE01.JPG,AFNE01.JPG,AFNE01.JPG,,,,,,,,,3,6,36,7,,,,,,,,,,,,,,,AMSA14.jpg,AMNE05.jpg,AMSA03.jpg,AMNE12.jpg,AMNE12.jpg,MN,1,num_4,32,num_8,0.36684961617,,,2017_Dec_06_1559,60.0018474842,MAFE4ImagesEEG,001,202534,
AFNE01.JPG,AFNE01.JPG,AFNE01.JPG,AFNE01.JPG,AFNE01.JPG,AFNE01.JPG,,,,,,,,,3,7,37,1,,,,,,,,,,,,,,,AMNE19.jpg,AMNE03.jpg,AMSA04.jpg,AMSA05.jpg,AMSA05.jpg,MS,2,num_4,16,num_4,0.333545342088,,,2017_Dec_06_1559,60.0018474842,MAFE4ImagesEEG,001,202534,
AFNE01.JPG,AFNE01.JPG,AFNE01.JPG,AFNE01.JPG,AFNE01.JPG,AFNE01.JPG,,,,,,,,,3,8,38,3,,,,,,,,,,,,,,,AMSA04.jpg,AMSA03.jpg,AMNE06.jpg,AMNE05.jpg,AMSA03.jpg,MS,2,num_6,16,num_6,0.366813693428,,,2017_Dec_06_1559,60.0018474842,MAFE4ImagesEEG,001,202534,
AFNE01.JPG,AFNE01.JPG,AFNE01.JPG,AFNE01.JPG,AFNE01.JPG,AFNE01.JPG,,,,,,,,,3,9,39,6,,,,,,,,,,,,,,,AMSA03.jpg,AMNE18.jpg,AMSA19.jpg,AMNE17.jpg,AMNE18.jpg,MN,1,num_6,32,num_4,0.53346560616,,,2017_Dec_06_1559,60.0018474842,MAFE4ImagesEEG,001,202534,
AFNE01.JPG,AFNE01.JPG,AFNE01.JPG,AFNE01.JPG,AFNE01.JPG,AFNE01.JPG,,,,,,,,,4,0,40,9,,,,,,,,,,,,,,,AMSA16.jpg,AMNE05.jpg,AMNE03.jpg,AMSA13.jpg,AMSA13.jpg,MS,2,num_4,16,num_4,0.350174706662,,,2017_Dec_06_1559,60.0018474842,MAFE4ImagesEEG,001,202534,
AFNE01.JPG,AFNE01.JPG,AFNE01.JPG,AFNE01.JPG,AFNE01.JPG,AFNE01.JPG,,,,,,,,,4,1,41,8,,,,,,,,,,,,,,,AMSA08.jpg,AMNE08.jpg,AMSA15.jpg,AMNE05.jpg,AMSA15.jpg,MS,2,num_2,32,num_6,0.400240169605,,,2017_Dec_06_1559,60.0018474842,MAFE4ImagesEEG,001,202534,
AFNE01.JPG,AFNE01.JPG,AFNE01.JPG,AFNE01.JPG,AFNE01.JPG,AFNE01.JPG,,,,,,,,,4,2,42,2,,,,,,,,,,,,,,,AMSA05.jpg,AMNE12.jpg,AMNE13.jpg,AMSA07.jpg,AMNE12.jpg,MN,1,num_6,32,num_4,0.383533827495,,,2017_Dec_06_1559,60.0018474842,MAFE4ImagesEEG,001,202534,
AFNE01.JPG,AFNE01.JPG,AFNE01.JPG,AFNE01.JPG,AFNE01.JPG,AFNE01.JPG,,,,,,,,,4,3,43,0,,,,,,,,,,,,,,,AMSA13.jpg,AMNE20.jpg,AMNE04.jpg,AMSA17.jpg,AMSA17.jpg,MS,2,num_4,16,num_4,0.439005349297,,,2017_Dec_06_1559,60.0018474842,MAFE4ImagesEEG,001,202534,
AFNE01.JPG,AFNE01.JPG,AFNE01.JPG,AFNE01.JPG,AFNE01.JPG,AFNE01.JPG,,,,,,,,,4,4,44,1,,,,,,,,,,,,,,,AMNE12.jpg,AMNE08.jpg,AMSA07.jpg,AMSA09.jpg,AMSA07.jpg,MS,2,num_2,32,num_8,0.366806316655,,,2017_Dec_06_1559,60.0018474842,MAFE4ImagesEEG,001,202534,
AFNE01.JPG,AFNE01.JPG,AFNE01.JPG,AFNE01.JPG,AFNE01.JPG,AFNE01.JPG,,,,,,,,,4,5,45,6,,,,,,,,,,,,,,,AMSA15.jpg,AMNE01.jpg,AMSA12.jpg,AMNE20.jpg,AMSA12.jpg,MS,2,num_2,32,num_6,0.35013974621,,,2017_Dec_06_1559,60.0018474842,MAFE4ImagesEEG,001,202534,
AFNE01.JPG,AFNE01.JPG,AFNE01.JPG,AFNE01.JPG,AFNE01.JPG,AFNE01.JPG,,,,,,,,,4,6,46,7,,,,,,,,,,,,,,,AMSA02.jpg,AMSA04.jpg,AMNE11.jpg,AMNE16.jpg,AMNE16.jpg,MN,1,num_4,32,num_2,0.38348250906,,,2017_Dec_06_1559,60.0018474842,MAFE4ImagesEEG,001,202534,
AFNE01.JPG,AFNE01.JPG,AFNE01.JPG,AFNE01.JPG,AFNE01.JPG,AFNE01.JPG,,,,,,,,,4,7,47,3,,,,,,,,,,,,,,,AMNE15.jpg,AMSA17.jpg,AMSA12.jpg,AMNE17.jpg,AMNE15.jpg,MN,1,num_8,16,num_8,0.183520548744,,,2017_Dec_06_1559,60.0018474842,MAFE4ImagesEEG,001,202534,
AFNE01.JPG,AFNE01.JPG,AFNE01.JPG,AFNE01.JPG,AFNE01.JPG,AFNE01.JPG,,,,,,,,,4,8,48,5,,,,,,,,,,,,,,,AMNE17.jpg,AMSA02.jpg,AMNE07.jpg,AMSA17.jpg,AMSA17.jpg,MS,2,num_4,16,num_4,0.516829826636,,,2017_Dec_06_1559,60.0018474842,MAFE4ImagesEEG,001,202534,
AFNE01.JPG,AFNE01.JPG,AFNE01.JPG,AFNE01.JPG,AFNE01.JPG,AFNE01.JPG,,,,,,,,,4,9,49,4,,,,,,,,,,,,,,,AMNE03.jpg,AMSA16.jpg,AMSA06.jpg,AMNE04.jpg,AMNE03.jpg,MN,1,num_8,32,num_6,0.350189781515,,,2017_Dec_06_1559,60.0018474842,MAFE4ImagesEEG,001,202534,
AFNE01.JPG,AFNE01.JPG,AFNE01.JPG,AFNE01.JPG,AFNE01.JPG,AFNE01.JPG,,,,,,,,,5,0,50,4,,,,,,,,,,,,,,,AMNE15.jpg,AMSA19.jpg,AMNE12.jpg,AMSA17.jpg,AMNE15.jpg,MN,1,num_8,32,num_2,0.350150971906,,,2017_Dec_06_1559,60.0018474842,MAFE4ImagesEEG,001,202534,
AFNE01.JPG,AFNE01.JPG,AFNE01.JPG,AFNE01.JPG,AFNE01.JPG,AFNE01.JPG,,,,,,,,,5,1,51,5,,,,,,,,,,,,,,,AMSA07.jpg,AMSA01.jpg,AMNE13.jpg,AMNE12.jpg,AMSA01.jpg,MS,2,num_6,32,num_8,0.550118064042,,,2017_Dec_06_1559,60.0018474842,MAFE4ImagesEEG,001,202534,
AFNE01.JPG,AFNE01.JPG,AFNE01.JPG,AFNE01.JPG,AFNE01.JPG,AFNE01.JPG,,,,,,,,,5,2,52,7,,,,,,,,,,,,,,,AMSA08.jpg,AMNE01.jpg,AMNE13.jpg,AMSA18.jpg,AMSA18.jpg,MS,2,num_4,32,num_2,3.26662343089,,,2017_Dec_06_1559,60.0018474842,MAFE4ImagesEEG,001,202534,
AFNE01.JPG,AFNE01.JPG,AFNE01.JPG,AFNE01.JPG,AFNE01.JPG,AFNE01.JPG,,,,,,,,,5,3,53,0,,,,,,,,,,,,,,,AMNE18.jpg,AMNE20.jpg,AMSA13.jpg,AMSA16.jpg,AMSA13.jpg,MS,2,num_2,32,num_4,0.650132882176,,,2017_Dec_06_1559,60.0018474842,MAFE4ImagesEEG,001,202534,
AFNE01.JPG,AFNE01.JPG,AFNE01.JPG,AFNE01.JPG,AFNE01.JPG,AFNE01.JPG,,,,,,,,,5,4,54,1,,,,,,,,,,,,,,,AMNE17.jpg,AMNE15.jpg,AMSA16.jpg,AMSA03.jpg,AMNE17.jpg,MN,1,num_8,32,num_6,1.4167636903,,,2017_Dec_06_1559,60.0018474842,MAFE4ImagesEEG,001,202534,
AFNE01.JPG,AFNE01.JPG,AFNE01.JPG,AFNE01.JPG,AFNE01.JPG,AFNE01.JPG,,,,,,,,,5,5,55,3,,,,,,,,,,,,,,,AMSA07.jpg,AMNE08.jpg,AMNE03.jpg,AMSA06.jpg,AMSA07.jpg,MS,2,num_8,16,num_8,0.616645786446,,,2017_Dec_06_1559,60.0018474842,MAFE4ImagesEEG,001,202534,
AFNE01.JPG,AFNE01.JPG,AFNE01.JPG,AFNE01.JPG,AFNE01.JPG,AFNE01.JPG,,,,,,,,,5,6,56,6,,,,,,,,,,,,,,,AMSA03.jpg,AMNE13.jpg,AMNE17.jpg,AMSA13.jpg,AMSA13.jpg,MS,2,num_4,32,num_2,1.80000500358,,,2017_Dec_06_1559,60.0018474842,MAFE4ImagesEEG,001,202534,
AFNE01.JPG,AFNE01.JPG,AFNE01.JPG,AFNE01.JPG,AFNE01.JPG,AFNE01.JPG,,,,,,,,,5,7,57,2,,,,,,,,,,,,,,,AMNE19.jpg,AMNE18.jpg,AMSA06.jpg,AMSA08.jpg,AMSA08.jpg,MS,2,num_4,16,num_4,2.38359669223,,,2017_Dec_06_1559,60.0018474842,MAFE4ImagesEEG,001,202534,
AFNE01.JPG,AFNE01.JPG,AFNE01.JPG,AFNE01.JPG,AFNE01.JPG,AFNE01.JPG,,,,,,,,,5,8,58,9,,,,,,,,,,,,,,,AMNE03.jpg,AMNE07.jpg,AMSA16.jpg,AMSA08.jpg,AMNE07.jpg,MN,1,num_6,16,num_6,0.450194977457,,,2017_Dec_06_1559,60.0018474842,MAFE4ImagesEEG,001,202534,
AFNE01.JPG,AFNE01.JPG,AFNE01.JPG,AFNE01.JPG,AFNE01.JPG,AFNE01.JPG,,,,,,,,,5,9,59,8,,,,,,,,,,,,,,,AMSA01.jpg,AMNE18.jpg,AMNE20.jpg,AMSA11.jpg,AMSA11.jpg,MS,2,num_4,32,num_2,0.449969176902,,,2017_Dec_06_1559,60.0018474842,MAFE4ImagesEEG,001,202534,
,,,,,,,,,,,,,,,,,,,,,,,,,,,,,,,,,,,,,,,,,,,space,52.3626549894,2017_Dec_06_1559,60.0018474842,MAFE4ImagesEEG,001,202534,
AFNE01.JPG,AFNE01.JPG,AFNE01.JPG,AFNE01.JPG,AFNE01.JPG,AFNE01.JPG,,,,,,,,,,,,,0,0,0,5,,,,,,,,,,,AFSA05.jpg,AFNE12.jpg,AFSA20.jpg,AFNE06.jpg,AFSA05.jpg,FS,4,num_8,32,num_2,0.366793807829,,,2017_Dec_06_1559,60.0018474842,MAFE4ImagesEEG,001,202534,
AFNE01.JPG,AFNE01.JPG,AFNE01.JPG,AFNE01.JPG,AFNE01.JPG,AFNE01.JPG,,,,,,,,,,,,,0,1,1,0,,,,,,,,,,,AFNE15.jpg,AFSA01.jpg,AFNE14.jpg,AFSA11.jpg,AFSA11.jpg,FS,4,num_4,32,num_8,0.316775814397,,,2017_Dec_06_1559,60.0018474842,MAFE4ImagesEEG,001,202534,
AFNE01.JPG,AFNE01.JPG,AFNE01.JPG,AFNE01.JPG,AFNE01.JPG,AFNE01.JPG,,,,,,,,,,,,,0,2,2,1,,,,,,,,,,,AFNE09.jpg,AFSA06.jpg,AFSA03.jpg,AFNE10.jpg,AFSA06.jpg,FS,4,num_6,32,num_4,0.350204535527,,,2017_Dec_06_1559,60.0018474842,MAFE4ImagesEEG,001,202534,
AFNE01.JPG,AFNE01.JPG,AFNE01.JPG,AFNE01.JPG,AFNE01.JPG,AFNE01.JPG,,,,,,,,,,,,,0,3,3,8,,,,,,,,,,,AFNE15.jpg,AFSA10.jpg,AFSA05.jpg,AFNE11.jpg,AFNE11.jpg,FN,3,num_4,32,num_6,0.566803878872,,,2017_Dec_06_1559,60.0018474842,MAFE4ImagesEEG,001,202534,
AFNE01.JPG,AFNE01.JPG,AFNE01.JPG,AFNE01.JPG,AFNE01.JPG,AFNE01.JPG,,,,,,,,,,,,,0,4,4,7,,,,,,,,,,,AFNE18.jpg,AFNE04.jpg,AFSA12.jpg,AFSA11.jpg,AFNE04.jpg,FN,3,num_6,32,num_4,0.366850578459,,,2017_Dec_06_1559,60.0018474842,MAFE4ImagesEEG,001,202534,
AFNE01.JPG,AFNE01.JPG,AFNE01.JPG,AFNE01.JPG,AFNE01.JPG,AFNE01.JPG,,,,,,,,,,,,,0,5,5,4,,,,,,,,,,,AFNE16.jpg,AFNE17.jpg,AFSA03.jpg,AFSA17.jpg,AFSA17.jpg,FS,4,num_4,32,num_2,0.366822353564,,,2017_Dec_06_1559,60.0018474842,MAFE4ImagesEEG,001,202534,
AFNE01.JPG,AFNE01.JPG,AFNE01.JPG,AFNE01.JPG,AFNE01.JPG,AFNE01.JPG,,,,,,,,,,,,,0,6,6,3,,,,,,,,,,,AFNE09.jpg,AFSA14.jpg,AFSA02.jpg,AFNE07.jpg,AFSA02.jpg,FS,4,num_2,32,num_6,0.333534115925,,,2017_Dec_06_1559,60.0018474842,MAFE4ImagesEEG,001,202534,
AFNE01.JPG,AFNE01.JPG,AFNE01.JPG,AFNE01.JPG,AFNE01.JPG,AFNE01.JPG,,,,,,,,,,,,,0,7,7,9,,,,,,,,,,,AFSA12.jpg,AFSA09.jpg,AFNE03.jpg,AFNE15.jpg,AFSA12.jpg,FS,4,num_8,32,num_4,0.316851187963,,,2017_Dec_06_1559,60.0018474842,MAFE4ImagesEEG,001,202534,
AFNE01.JPG,AFNE01.JPG,AFNE01.JPG,AFNE01.JPG,AFNE01.JPG,AFNE01.JPG,,,,,,,,,,,,,0,8,8,6,,,,,,,,,,,AFSA06.jpg,AFNE11.jpg,AFSA14.jpg,AFNE09.jpg,AFNE11.jpg,FN,3,num_6,32,num_4,0.366814334877,,,2017_Dec_06_1559,60.0018474842,MAFE4ImagesEEG,001,202534,
AFNE01.JPG,AFNE01.JPG,AFNE01.JPG,AFNE01.JPG,AFNE01.JPG,AFNE01.JPG,,,,,,,,,,,,,0,9,9,2,,,,,,,,,,,AFSA12.jpg,AFNE03.jpg,AFNE06.jpg,AFSA09.jpg,AFNE06.jpg,FN,3,num_2,32,num_4,0.350392809138,,,2017_Dec_06_1559,60.0018474842,MAFE4ImagesEEG,001,202534,
AFNE01.JPG,AFNE01.JPG,AFNE01.JPG,AFNE01.JPG,AFNE01.JPG,AFNE01.JPG,,,,,,,,,,,,,1,0,10,6,,,,,,,,,,,AFNE17.jpg,AFSA04.jpg,AFNE01.jpg,AFSA03.jpg,AFSA04.jpg,FS,4,num_6,32,num_4,0.450157130137,,,2017_Dec_06_1559,60.0018474842,MAFE4ImagesEEG,001,202534,
AFNE01.JPG,AFNE01.JPG,AFNE01.JPG,AFNE01.JPG,AFNE01.JPG,AFNE01.JPG,,,,,,,,,,,,,1,1,11,9,,,,,,,,,,,AFNE02.jpg,AFSA03.jpg,AFSA10.jpg,AFNE16.jpg,AFNE02.jpg,FN,3,num_8,32,num_4,0.333549832227,,,2017_Dec_06_1559,60.0018474842,MAFE4ImagesEEG,001,202534,
AFNE01.JPG,AFNE01.JPG,AFNE01.JPG,AFNE01.JPG,AFNE01.JPG,AFNE01.JPG,,,,,,,,,,,,,1,2,12,2,,,,,,,,,,,AFSA02.jpg,AFNE17.jpg,AFSA10.jpg,AFNE04.jpg,AFSA10.jpg,FS,4,num_2,32,num_4,0.31684124493,,,2017_Dec_06_1559,60.0018474842,MAFE4ImagesEEG,001,202534,
AFNE01.JPG,AFNE01.JPG,AFNE01.JPG,AFNE01.JPG,AFNE01.JPG,AFNE01.JPG,,,,,,,,,,,,,1,3,13,8,,,,,,,,,,,AFSA14.jpg,AFSA16.jpg,AFNE10.jpg,AFNE20.jpg,AFNE20.jpg,FN,3,num_4,16,num_4,0.316798907472,,,2017_Dec_06_1559,60.0018474842,MAFE4ImagesEEG,001,202534,
AFNE01.JPG,AFNE01.JPG,AFNE01.JPG,AFNE01.JPG,AFNE01.JPG,AFNE01.JPG,,,,,,,,,,,,,1,4,14,7,,,,,,,,,,,AFSA13.jpg,AFSA07.jpg,AFNE12.jpg,AFNE03.jpg,AFNE03.jpg,FN,3,num_4,32,num_6,0.350153217092,,,2017_Dec_06_1559,60.0018474842,MAFE4ImagesEEG,001,202534,
AFNE01.JPG,AFNE01.JPG,AFNE01.JPG,AFNE01.JPG,AFNE01.JPG,AFNE01.JPG,,,,,,,,,,,,,1,5,15,5,,,,,,,,,,,AFNE15.jpg,AFSA03.jpg,AFSA10.jpg,AFNE19.jpg,AFNE15.jpg,FN,3,num_8,32,num_4,0.600159471622,,,2017_Dec_06_1559,60.0018474842,MAFE4ImagesEEG,001,202534,
AFNE01.JPG,AFNE01.JPG,AFNE01.JPG,AFNE01.JPG,AFNE01.JPG,AFNE01.JPG,,,,,,,,,,,,,1,6,16,0,,,,,,,,,,,AFSA17.jpg,AFNE04.jpg,AFNE08.jpg,AFSA01.jpg,AFSA17.jpg,FS,4,num_8,32,num_6,0.333461628994,,,2017_Dec_06_1559,60.0018474842,MAFE4ImagesEEG,001,202534,
AFNE01.JPG,AFNE01.JPG,AFNE01.JPG,AFNE01.JPG,AFNE01.JPG,AFNE01.JPG,,,,,,,,,,,,,1,7,17,3,,,,,,,,,,,AFNE04.jpg,AFSA10.jpg,AFSA17.jpg,AFNE11.jpg,AFSA10.jpg,FS,4,num_6,32,num_4,0.416785500478,,,2017_Dec_06_1559,60.0018474842,MAFE4ImagesEEG,001,202534,
AFNE01.JPG,AFNE01.JPG,AFNE01.JPG,AFNE01.JPG,AFNE01.JPG,AFNE01.JPG,,,,,,,,,,,,,1,8,18,1,,,,,,,,,,,AFNE19.jpg,AFNE16.jpg,AFSA11.jpg,AFSA18.jpg,AFSA11.jpg,FS,4,num_2,32,num_4,0.333476062398,,,2017_Dec_06_1559,60.0018474842,MAFE4ImagesEEG,001,202534,
AFNE01.JPG,AFNE01.JPG,AFNE01.JPG,AFNE01.JPG,AFNE01.JPG,AFNE01.JPG,,,,,,,,,,,,,1,9,19,4,,,,,,,,,,,AFSA19.jpg,AFSA08.jpg,AFNE05.jpg,AFNE19.jpg,AFNE19.jpg,FN,3,num_4,16,num_4,0.333509739954,,,2017_Dec_06_1559,60.0018474842,MAFE4ImagesEEG,001,202534,
AFNE01.JPG,AFNE01.JPG,AFNE01.JPG,AFNE01.JPG,AFNE01.JPG,AFNE01.JPG,,,,,,,,,,,,,2,0,20,0,,,,,,,,,,,AFNE06.jpg,AFNE11.jpg,AFSA05.jpg,AFSA20.jpg,AFNE11.jpg,FN,3,num_6,32,num_4,0.416705315933,,,2017_Dec_06_1559,60.0018474842,MAFE4ImagesEEG,001,202534,
AFNE01.JPG,AFNE01.JPG,AFNE01.JPG,AFNE01.JPG,AFNE01.JPG,AFNE01.JPG,,,,,,,,,,,,,2,1,21,4,,,,,,,,,,,AFNE15.jpg,AFNE16.jpg,AFSA16.jpg,AFSA19.jpg,AFSA19.jpg,FS,4,num_4,16,num_4,0.533525263658,,,2017_Dec_06_1559,60.0018474842,MAFE4ImagesEEG,001,202534,
AFNE01.JPG,AFNE01.JPG,AFNE01.JPG,AFNE01.JPG,AFNE01.JPG,AFNE01.JPG,,,,,,,,,,,,,2,2,22,2,,,,,,,,,,,AFNE11.jpg,AFNE13.jpg,AFSA04.jpg,AFSA10.jpg,AFNE11.jpg,FN,3,num_8,32,num_4,0.350168291712,,,2017_Dec_06_1559,60.0018474842,MAFE4ImagesEEG,001,202534,
AFNE01.JPG,AFNE01.JPG,AFNE01.JPG,AFNE01.JPG,AFNE01.JPG,AFNE01.JPG,,,,,,,,,,,,,2,3,23,3,,,,,,,,,,,AFSA10.jpg,AFSA06.jpg,AFNE15.jpg,AFNE03.jpg,AFNE15.jpg,FN,3,num_2,32,num_4,0.316885506967,,,2017_Dec_06_1559,60.0018474842,MAFE4ImagesEEG,001,202534,
AFNE01.JPG,AFNE01.JPG,AFNE01.JPG,AFNE01.JPG,AFNE01.JPG,AFNE01.JPG,,,,,,,,,,,,,2,4,24,7,,,,,,,,,,,AFNE04.jpg,AFNE08.jpg,AFSA08.jpg,AFSA10.jpg,AFNE04.jpg,FN,3,num_8,32,num_4,0.316796662286,,,2017_Dec_06_1559,60.0018474842,MAFE4ImagesEEG,001,202534,
AFNE01.JPG,AFNE01.JPG,AFNE01.JPG,AFNE01.JPG,AFNE01.JPG,AFNE01.JPG,,,,,,,,,,,,,2,5,25,8,,,,,,,,,,,AFSA10.jpg,AFSA06.jpg,AFNE20.jpg,AFNE03.jpg,AFSA06.jpg,FS,4,num_6,32,num_4,0.533532640664,,,2017_Dec_06_1559,60.0018474842,MAFE4ImagesEEG,001,202534,
AFNE01.JPG,AFNE01.JPG,AFNE01.JPG,AFNE01.JPG,AFNE01.JPG,AFNE01.JPG,,,,,,,,,,,,,2,6,26,9,,,,,,,,,,,AFNE06.jpg,AFSA13.jpg,AFSA04.jpg,AFNE09.jpg,AFNE06.jpg,FN,3,num_8,32,num_4,0.350171178579,,,2017_Dec_06_1559,60.0018474842,MAFE4ImagesEEG,001,202534,
AFNE01.JPG,AFNE01.JPG,AFNE01.JPG,AFNE01.JPG,AFNE01.JPG,AFNE01.JPG,,,,,,,,,,,,,2,7,27,5,,,,,,,,,,,AFNE14.jpg,AFSA06.jpg,AFSA04.jpg,AFNE18.jpg,AFNE14.jpg,FN,3,num_8,32,num_4,0.333519041305,,,2017_Dec_06_1559,60.0018474842,MAFE4ImagesEEG,001,202534,
AFNE01.JPG,AFNE01.JPG,AFNE01.JPG,AFNE01.JPG,AFNE01.JPG,AFNE01.JPG,,,,,,,,,,,,,2,8,28,1,,,,,,,,,,,AFSA09.jpg,AFNE19.jpg,AFSA04.jpg,AFNE20.jpg,AFNE20.jpg,FN,3,num_4,16,num_4,0.333494985942,,,2017_Dec_06_1559,60.0018474842,MAFE4ImagesEEG,001,202534,
AFNE01.JPG,AFNE01.JPG,AFNE01.JPG,AFNE01.JPG,AFNE01.JPG,AFNE01.JPG,,,,,,,,,,,,,2,9,29,6,,,,,,,,,,,AFSA17.jpg,AFNE14.jpg,AFNE04.jpg,AFSA06.jpg,AFSA17.jpg,FS,4,num_8,32,num_4,0.350170536898,,,2017_Dec_06_1559,60.0018474842,MAFE4ImagesEEG,001,202534,
AFNE01.JPG,AFNE01.JPG,AFNE01.JPG,AFNE01.JPG,AFNE01.JPG,AFNE01.JPG,,,,,,,,,,,,,3,0,30,1,,,,,,,,,,,AFNE14.jpg,AFNE13.jpg,AFSA04.jpg,AFSA18.jpg,AFSA18.jpg,FS,4,num_4,32,num_6,0.366778732976,,,2017_Dec_06_1559,60.0018474842,MAFE4ImagesEEG,001,202534,
AFNE01.JPG,AFNE01.JPG,AFNE01.JPG,AFNE01.JPG,AFNE01.JPG,AFNE01.JPG,,,,,,,,,,,,,3,1,31,7,,,,,,,,,,,AFNE19.jpg,AFSA08.jpg,AFNE09.jpg,AFSA11.jpg,AFSA11.jpg,FS,4,num_4,16,num_4,0.383175882278,,,2017_Dec_06_1559,60.0018474842,MAFE4ImagesEEG,001,202534,
AFNE01.JPG,AFNE01.JPG,AFNE01.JPG,AFNE01.JPG,AFNE01.JPG,AFNE01.JPG,,,,,,,,,,,,,3,2,32,9,,,,,,,,,,,AFNE02.jpg,AFSA07.jpg,AFNE05.jpg,AFSA06.jpg,AFSA06.jpg,FS,4,num_4,32,num_6,0.316844131798,,,2017_Dec_06_1559,60.0018474842,MAFE4ImagesEEG,001,202534,
AFNE01.JPG,AFNE01.JPG,AFNE01.JPG,AFNE01.JPG,AFNE01.JPG,AFNE01.JPG,,,,,,,,,,,,,3,3,33,5,,,,,,,,,,,AFSA05.jpg,AFNE11.jpg,AFSA01.jpg,AFNE19.jpg,AFNE11.jpg,FN,3,num_6,32,num_2,0.383538317634,,,2017_Dec_06_1559,60.0018474842,MAFE4ImagesEEG,001,202534,
AFNE01.JPG,AFNE01.JPG,AFNE01.JPG,AFNE01.JPG,AFNE01.JPG,AFNE01.JPG,,,,,,,,,,,,,3,4,34,8,,,,,,,,,,,AFNE15.jpg,AFSA07.jpg,AFSA12.jpg,AFNE10.jpg,AFSA07.jpg,FS,4,num_6,32,num_2,0.433453995502,,,2017_Dec_06_1559,60.0018474842,MAFE4ImagesEEG,001,202534,
AFNE01.JPG,AFNE01.JPG,AFNE01.JPG,AFNE01.JPG,AFNE01.JPG,AFNE01.JPG,,,,,,,,,,,,,3,5,35,4,,,,,,,,,,,AFNE18.jpg,AFSA02.jpg,AFSA14.jpg,AFNE01.jpg,AFNE18.jpg,FN,3,num_8,32,num_2,0.566791690653,,,2017_Dec_06_1559,60.0018474842,MAFE4ImagesEEG,001,202534,
AFNE01.JPG,AFNE01.JPG,AFNE01.JPG,AFNE01.JPG,AFNE01.JPG,AFNE01.JPG,,,,,,,,,,,,,3,6,36,2,,,,,,,,,,,AFSA08.jpg,AFNE19.jpg,AFNE01.jpg,AFSA20.jpg,AFSA08.jpg,FS,4,num_8,32,num_2,0.450136602856,,,2017_Dec_06_1559,60.0018474842,MAFE4ImagesEEG,001,202534,
AFNE01.JPG,AFNE01.JPG,AFNE01.JPG,AFNE01.JPG,AFNE01.JPG,AFNE01.JPG,,,,,,,,,,,,,3,7,37,0,,,,,,,,,,,AFNE20.jpg,AFSA15.jpg,AFNE19.jpg,AFSA20.jpg,AFNE19.jpg,FN,3,num_2,32,num_4,0.350189460674,,,2017_Dec_06_1559,60.0018474842,MAFE4ImagesEEG,001,202534,
AFNE01.JPG,AFNE01.JPG,AFNE01.JPG,AFNE01.JPG,AFNE01.JPG,AFNE01.JPG,,,,,,,,,,,,,3,8,38,3,,,,,,,,,,,AFSA09.jpg,AFNE06.jpg,AFNE09.jpg,AFSA12.jpg,AFSA09.jpg,FS,4,num_8,32,num_6,0.333486005198,,,2017_Dec_06_1559,60.0018474842,MAFE4ImagesEEG,001,202534,
AFNE01.JPG,AFNE01.JPG,AFNE01.JPG,AFNE01.JPG,AFNE01.JPG,AFNE01.JPG,,,,,,,,,,,,,3,9,39,6,,,,,,,,,,,AFSA02.jpg,AFNE07.jpg,AFNE03.jpg,AFSA20.jpg,AFSA20.jpg,FS,4,num_4,32,num_2,0.383402324282,,,2017_Dec_06_1559,60.0018474842,MAFE4ImagesEEG,001,202534,
AFNE01.JPG,AFNE01.JPG,AFNE01.JPG,AFNE01.JPG,AFNE01.JPG,AFNE01.JPG,,,,,,,,,,,,,4,0,40,5,,,,,,,,,,,AFNE16.jpg,AFSA05.jpg,AFNE14.jpg,AFSA15.jpg,AFSA15.jpg,FS,4,num_4,32,num_2,0.38347737724,,,2017_Dec_06_1559,60.0018474842,MAFE4ImagesEEG,001,202534,
AFNE01.JPG,AFNE01.JPG,AFNE01.JPG,AFNE01.JPG,AFNE01.JPG,AFNE01.JPG,,,,,,,,,,,,,4,1,41,1,,,,,,,,,,,AFNE17.jpg,AFNE08.jpg,AFSA12.jpg,AFSA11.jpg,AFNE17.jpg,FN,3,num_8,32,num_2,2.28339199675,,,2017_Dec_06_1559,60.0018474842,MAFE4ImagesEEG,001,202534,
AFNE01.JPG,AFNE01.JPG,AFNE01.JPG,AFNE01.JPG,AFNE01.JPG,AFNE01.JPG,,,,,,,,,,,,,4,2,42,9,,,,,,,,,,,AFNE12.jpg,AFSA05.jpg,AFNE20.jpg,AFSA02.jpg,AFSA05.jpg,FS,4,num_6,32,num_4,0.383507526712,,,2017_Dec_06_1559,60.0018474842,MAFE4ImagesEEG,001,202534,
AFNE01.JPG,AFNE01.JPG,AFNE01.JPG,AFNE01.JPG,AFNE01.JPG,AFNE01.JPG,,,,,,,,,,,,,4,3,43,7,,,,,,,,,,,AFNE17.jpg,AFSA16.jpg,AFSA14.jpg,AFNE03.jpg,AFNE03.jpg,FN,3,num_4,32,num_6,0.350219930755,,,2017_Dec_06_1559,60.0018474842,MAFE4ImagesEEG,001,202534,
AFNE01.JPG,AFNE01.JPG,AFNE01.JPG,AFNE01.JPG,AFNE01.JPG,AFNE01.JPG,,,,,,,,,,,,,4,4,44,8,,,,,,,,,,,AFNE01.jpg,AFSA02.jpg,AFSA14.jpg,AFNE20.jpg,AFSA02.jpg,FS,4,num_6,32,num_2,0.416780368658,,,2017_Dec_06_1559,60.0018474842,MAFE4ImagesEEG,001,202534,
AFNE01.JPG,AFNE01.JPG,AFNE01.JPG,AFNE01.JPG,AFNE01.JPG,AFNE01.JPG,,,,,,,,,,,,,4,5,45,6,,,,,,,,,,,AFSA14.jpg,AFSA16.jpg,AFNE01.jpg,AFNE15.jpg,AFSA16.jpg,FS,4,num_6,32,num_8,0.366815938614,,,2017_Dec_06_1559,60.0018474842,MAFE4ImagesEEG,001,202534,
AFNE01.JPG,AFNE01.JPG,AFNE01.JPG,AFNE01.JPG,AFNE01.JPG,AFNE01.JPG,,,,,,,,,,,,,4,6,46,3,,,,,,,,,,,AFNE15.jpg,AFNE10.jpg,AFSA16.jpg,AFSA18.jpg,AFNE15.jpg,FN,3,num_8,32,num_2,0.366814976558,,,2017_Dec_06_1559,60.0018474842,MAFE4ImagesEEG,001,202534,
AFNE01.JPG,AFNE01.JPG,AFNE01.JPG,AFNE01.JPG,AFNE01.JPG,AFNE01.JPG,,,,,,,,,,,,,4,7,47,2,,,,,,,,,,,AFSA19.jpg,AFNE15.jpg,AFSA12.jpg,AFNE03.jpg,AFNE03.jpg,FN,3,num_4,32,num_2,0.566741655348,,,2017_Dec_06_1559,60.0018474842,MAFE4ImagesEEG,001,202534,
AFNE01.JPG,AFNE01.JPG,AFNE01.JPG,AFNE01.JPG,AFNE01.JPG,AFNE01.JPG,,,,,,,,,,,,,4,8,48,0,,,,,,,,,,,AFNE20.jpg,AFNE02.jpg,AFSA10.jpg,AFSA07.jpg,AFSA10.jpg,FS,4,num_2,32,num_4,0.383506243816,,,2017_Dec_06_1559,60.0018474842,MAFE4ImagesEEG,001,202534,
AFNE01.JPG,AFNE01.JPG,AFNE01.JPG,AFNE01.JPG,AFNE01.JPG,AFNE01.JPG,,,,,,,,,,,,,4,9,49,4,,,,,,,,,,,AFNE07.jpg,AFSA19.jpg,AFSA20.jpg,AFNE10.jpg,AFSA20.jpg,FS,4,num_2,32,num_8,0.616827645572,,,2017_Dec_06_1559,60.0018474842,MAFE4ImagesEEG,001,202534,
AFNE01.JPG,AFNE01.JPG,AFNE01.JPG,AFNE01.JPG,AFNE01.JPG,AFNE01.JPG,,,,,,,,,,,,,5,0,50,0,,,,,,,,,,,AFSA06.jpg,AFSA11.jpg,AFNE02.jpg,AFNE14.jpg,AFNE02.jpg,FN,3,num_2,32,num_6,0.366835182998,,,2017_Dec_06_1559,60.0018474842,MAFE4ImagesEEG,001,202534,
AFNE01.JPG,AFNE01.JPG,AFNE01.JPG,AFNE01.JPG,AFNE01.JPG,AFNE01.JPG,,,,,,,,,,,,,5,1,51,6,,,,,,,,,,,AFNE13.jpg,AFSA11.jpg,AFNE02.jpg,AFSA20.jpg,AFSA20.jpg,FS,4,num_4,16,num_4,0.416779406369,,,2017_Dec_06_1559,60.0018474842,MAFE4ImagesEEG,001,202534,
AFNE01.JPG,AFNE01.JPG,AFNE01.JPG,AFNE01.JPG,AFNE01.JPG,AFNE01.JPG,,,,,,,,,,,,,5,2,52,5,,,,,,,,,,,AFSA17.jpg,AFNE01.jpg,AFNE07.jpg,AFSA08.jpg,AFSA08.jpg,FS,4,num_4,16,num_4,0.500193726271,,,2017_Dec_06_1559,60.0018474842,MAFE4ImagesEEG,001,202534,
AFNE01.JPG,AFNE01.JPG,AFNE01.JPG,AFNE01.JPG,AFNE01.JPG,AFNE01.JPG,,,,,,,,,,,,,5,3,53,2,,,,,,,,,,,AFNE13.jpg,AFSA08.jpg,AFNE09.jpg,AFSA19.jpg,AFNE13.jpg,FN,3,num_8,32,num_4,0.416812121868,,,2017_Dec_06_1559,60.0018474842,MAFE4ImagesEEG,001,202534,
AFNE01.JPG,AFNE01.JPG,AFNE01.JPG,AFNE01.JPG,AFNE01.JPG,AFNE01.JPG,,,,,,,,,,,,,5,4,54,8,,,,,,,,,,,AFNE04.jpg,AFSA06.jpg,AFSA01.jpg,AFNE14.jpg,AFSA01.jpg,FS,4,num_2,32,num_4,0.316705251578,,,2017_Dec_06_1559,60.0018474842,MAFE4ImagesEEG,001,202534,
AFNE01.JPG,AFNE01.JPG,AFNE01.JPG,AFNE01.JPG,AFNE01.JPG,AFNE01.JPG,,,,,,,,,,,,,5,5,55,9,,,,,,,,,,,AFNE07.jpg,AFSA04.jpg,AFSA15.jpg,AFNE08.jpg,AFSA15.jpg,FS,4,num_2,32,num_4,0.25018073665,,,2017_Dec_06_1559,60.0018474842,MAFE4ImagesEEG,001,202534,
AFNE01.JPG,AFNE01.JPG,AFNE01.JPG,AFNE01.JPG,AFNE01.JPG,AFNE01.JPG,,,,,,,,,,,,,5,6,56,4,,,,,,,,,,,AFSA01.jpg,AFNE05.jpg,AFNE13.jpg,AFSA20.jpg,AFNE05.jpg,FN,3,num_6,32,num_4,1.31677581416,,,2017_Dec_06_1559,60.0018474842,MAFE4ImagesEEG,001,202534,
AFNE01.JPG,AFNE01.JPG,AFNE01.JPG,AFNE01.JPG,AFNE01.JPG,AFNE01.JPG,,,,,,,,,,,,,5,7,57,1,,,,,,,,,,,AFNE01.jpg,AFSA13.jpg,AFNE17.jpg,AFSA20.jpg,AFNE01.jpg,FN,3,num_8,32,num_4,0.383479301585,,,2017_Dec_06_1559,60.0018474842,MAFE4ImagesEEG,001,202534,
AFNE01.JPG,AFNE01.JPG,AFNE01.JPG,AFNE01.JPG,AFNE01.JPG,AFNE01.JPG,,,,,,,,,,,,,5,8,58,3,,,,,,,,,,,AFNE19.jpg,AFSA19.jpg,AFSA08.jpg,AFNE12.jpg,AFSA08.jpg,FS,4,num_2,32,num_4,4.13351378124,,,2017_Dec_06_1559,60.0018474842,MAFE4ImagesEEG,001,202534,
AFNE01.JPG,AFNE01.JPG,AFNE01.JPG,AFNE01.JPG,AFNE01.JPG,AFNE01.JPG,,,,,,,,,,,,,5,9,59,7,,,,,,,,,,,AFNE12.jpg,AFNE10.jpg,AFSA03.jpg,AFSA16.jpg,AFNE12.jpg,FN,3,num_8,32,num_4,0.533517886652,,,2017_Dec_06_1559,60.0018474842,MAFE4ImagesEEG,001,202534,
,,,,,,,,,,,,,,,,,,,,,,,,,,,,,,,,,,,,,,,,,,,space,0.816802114947,2017_Dec_06_1559,60.0018474842,MAFE4ImagesEEG,001,202534,
AFNE01.JPG,AFNE01.JPG,AFNE01.JPG,AFNE01.JPG,AFNE01.JPG,AFNE01.JPG,,,,,,,,,,,,,,,,,0,0,0,7,,,,,,,AMSA04.jpg,AMNE14.jpg,AMSA10.jpg,AMNE12.jpg,AMNE12.jpg,MN,1,num_4,16,num_4,0.350181121379,,,2017_Dec_06_1559,60.0018474842,MAFE4ImagesEEG,001,202534,
AFNE01.JPG,AFNE01.JPG,AFNE01.JPG,AFNE01.JPG,AFNE01.JPG,AFNE01.JPG,,,,,,,,,,,,,,,,,0,1,1,2,,,,,,,AMNE02.jpg,AMSA20.jpg,AMSA12.jpg,AMNE04.jpg,AMSA12.jpg,MS,2,num_2,32,num_6,0.38344594487,,,2017_Dec_06_1559,60.0018474842,MAFE4ImagesEEG,001,202534,
AFNE01.JPG,AFNE01.JPG,AFNE01.JPG,AFNE01.JPG,AFNE01.JPG,AFNE01.JPG,,,,,,,,,,,,,,,,,0,2,2,5,,,,,,,AMSA08.jpg,AMSA09.jpg,AMNE08.jpg,AMNE17.jpg,AMNE17.jpg,MN,1,num_4,32,num_2,0.383469679626,,,2017_Dec_06_1559,60.0018474842,MAFE4ImagesEEG,001,202534,
AFNE01.JPG,AFNE01.JPG,AFNE01.JPG,AFNE01.JPG,AFNE01.JPG,AFNE01.JPG,,,,,,,,,,,,,,,,,0,3,3,1,,,,,,,AMSA07.jpg,AMNE17.jpg,AMSA11.jpg,AMNE16.jpg,AMNE16.jpg,MN,1,num_4,16,num_4,0.416871779365,,,2017_Dec_06_1559,60.0018474842,MAFE4ImagesEEG,001,202534,
AFNE01.JPG,AFNE01.JPG,AFNE01.JPG,AFNE01.JPG,AFNE01.JPG,AFNE01.JPG,,,,,,,,,,,,,,,,,0,4,4,6,,,,,,,AMSA13.jpg,AMSA08.jpg,AMNE14.jpg,AMNE02.jpg,AMSA08.jpg,MS,2,num_6,32,num_8,0.333492740756,,,2017_Dec_06_1559,60.0018474842,MAFE4ImagesEEG,001,202534,
AFNE01.JPG,AFNE01.JPG,AFNE01.JPG,AFNE01.JPG,AFNE01.JPG,AFNE01.JPG,,,,,,,,,,,,,,,,,0,5,5,3,,,,,,,AMNE07.jpg,AMSA11.jpg,AMSA02.jpg,AMNE05.jpg,AMNE05.jpg,MN,1,num_4,32,num_2,0.400150041794,,,2017_Dec_06_1559,60.0018474842,MAFE4ImagesEEG,001,202534,
AFNE01.JPG,AFNE01.JPG,AFNE01.JPG,AFNE01.JPG,AFNE01.JPG,AFNE01.JPG,,,,,,,,,,,,,,,,,0,6,6,0,,,,,,,AMSA15.jpg,AMNE12.jpg,AMSA04.jpg,AMNE06.jpg,AMNE06.jpg,MN,1,num_4,32,num_8,0.366790279513,,,2017_Dec_06_1559,60.0018474842,MAFE4ImagesEEG,001,202534,
AFNE01.JPG,AFNE01.JPG,AFNE01.JPG,AFNE01.JPG,AFNE01.JPG,AFNE01.JPG,,,,,,,,,,,,,,,,,0,7,7,4,,,,,,,AMSA07.jpg,AMNE08.jpg,AMSA04.jpg,AMNE02.jpg,AMNE02.jpg,MN,1,num_4,32,num_6,0.350141670555,,,2017_Dec_06_1559,60.0018474842,MAFE4ImagesEEG,001,202534,
AFNE01.JPG,AFNE01.JPG,AFNE01.JPG,AFNE01.JPG,AFNE01.JPG,AFNE01.JPG,,,,,,,,,,,,,,,,,0,8,8,9,,,,,,,AMNE20.jpg,AMSA19.jpg,AMSA18.jpg,AMNE18.jpg,AMNE18.jpg,MN,1,num_4,16,num_4,0.700115594314,,,2017_Dec_06_1559,60.0018474842,MAFE4ImagesEEG,001,202534,
AFNE01.JPG,AFNE01.JPG,AFNE01.JPG,AFNE01.JPG,AFNE01.JPG,AFNE01.JPG,,,,,,,,,,,,,,,,,0,9,9,8,,,,,,,AMNE04.jpg,AMSA13.jpg,AMNE20.jpg,AMSA03.jpg,AMNE04.jpg,MN,1,num_8,32,num_2,0.416831045412,,,2017_Dec_06_1559,60.0018474842,MAFE4ImagesEEG,001,202534,
AFNE01.JPG,AFNE01.JPG,AFNE01.JPG,AFNE01.JPG,AFNE01.JPG,AFNE01.JPG,,,,,,,,,,,,,,,,,1,0,10,4,,,,,,,AMSA09.jpg,AMNE03.jpg,AMNE06.jpg,AMSA01.jpg,AMSA01.jpg,MS,2,num_4,32,num_8,0.416817253688,,,2017_Dec_06_1559,60.0018474842,MAFE4ImagesEEG,001,202534,
AFNE01.JPG,AFNE01.JPG,AFNE01.JPG,AFNE01.JPG,AFNE01.JPG,AFNE01.JPG,,,,,,,,,,,,,,,,,1,1,11,0,,,,,,,AMSA20.jpg,AMSA06.jpg,AMNE04.jpg,AMNE11.jpg,AMSA06.jpg,MS,2,num_6,32,num_4,0.3667498664,,,2017_Dec_06_1559,60.0018474842,MAFE4ImagesEEG,001,202534,
AFNE01.JPG,AFNE01.JPG,AFNE01.JPG,AFNE01.JPG,AFNE01.JPG,AFNE01.JPG,,,,,,,,,,,,,,,,,1,2,12,2,,,,,,,AMNE18.jpg,AMNE02.jpg,AMSA16.jpg,AMSA19.jpg,AMNE02.jpg,MN,1,num_6,16,num_6,0.400032009697,,,2017_Dec_06_1559,60.0018474842,MAFE4ImagesEEG,001,202534,
AFNE01.JPG,AFNE01.JPG,AFNE01.JPG,AFNE01.JPG,AFNE01.JPG,AFNE01.JPG,,,,,,,,,,,,,,,,,1,3,13,8,,,,,,,AMSA08.jpg,AMSA01.jpg,AMNE11.jpg,AMNE16.jpg,AMSA01.jpg,MS,2,num_6,32,num_8,0.666331494227,,,2017_Dec_06_1559,60.0018474842,MAFE4ImagesEEG,001,202534,
AFNE01.JPG,AFNE01.JPG,AFNE01.JPG,AFNE01.JPG,AFNE01.JPG,AFNE01.JPG,,,,,,,,,,,,,,,,,1,4,14,1,,,,,,,AMSA05.jpg,AMSA14.jpg,AMNE04.jpg,AMNE08.jpg,AMNE04.jpg,MN,1,num_2,32,num_6,0.433450467186,,,2017_Dec_06_1559,60.0018474842,MAFE4ImagesEEG,001,202534,
AFNE01.JPG,AFNE01.JPG,AFNE01.JPG,AFNE01.JPG,AFNE01.JPG,AFNE01.JPG,,,,,,,,,,,,,,,,,1,5,15,9,,,,,,,AMSA16.jpg,AMSA09.jpg,AMNE08.jpg,AMNE19.jpg,AMSA16.jpg,MS,2,num_8,32,num_2,0.400156135904,,,2017_Dec_06_1559,60.0018474842,MAFE4ImagesEEG,001,202534,
AFNE01.JPG,AFNE01.JPG,AFNE01.JPG,AFNE01.JPG,AFNE01.JPG,AFNE01.JPG,,,,,,,,,,,,,,,,,1,6,16,6,,,,,,,AMSA07.jpg,AMSA05.jpg,AMNE18.jpg,AMNE04.jpg,AMNE04.jpg,MN,1,num_4,32,num_8,0.350199403474,,,2017_Dec_06_1559,60.0018474842,MAFE4ImagesEEG,001,202534,
AFNE01.JPG,AFNE01.JPG,AFNE01.JPG,AFNE01.JPG,AFNE01.JPG,AFNE01.JPG,,,,,,,,,,,,,,,,,1,7,17,7,,,,,,,AMSA11.jpg,AMSA13.jpg,AMNE09.jpg,AMNE13.jpg,AMSA11.jpg,MS,2,num_8,32,num_2,0.41679512267,,,2017_Dec_06_1559,60.0018474842,MAFE4ImagesEEG,001,202534,
AFNE01.JPG,AFNE01.JPG,AFNE01.JPG,AFNE01.JPG,AFNE01.JPG,AFNE01.JPG,,,,,,,,,,,,,,,,,1,8,18,5,,,,,,,AMNE09.jpg,AMNE03.jpg,AMSA11.jpg,AMSA12.jpg,AMNE09.jpg,MN,1,num_8,32,num_4,0.366664870409,,,2017_Dec_06_1559,60.0018474842,MAFE4ImagesEEG,001,202534,
AFNE01.JPG,AFNE01.JPG,AFNE01.JPG,AFNE01.JPG,AFNE01.JPG,AFNE01.JPG,,,,,,,,,,,,,,,,,1,9,19,3,,,,,,,AMNE15.jpg,AMSA02.jpg,AMSA20.jpg,AMNE20.jpg,AMNE20.jpg,MN,1,num_4,32,num_6,0.350186894648,,,2017_Dec_06_1559,60.0018474842,MAFE4ImagesEEG,001,202534,
AFNE01.JPG,AFNE01.JPG,AFNE01.JPG,AFNE01.JPG,AFNE01.JPG,AFNE01.JPG,,,,,,,,,,,,,,,,,2,0,20,2,,,,,,,AMNE03.jpg,AMSA04.jpg,AMNE12.jpg,AMSA16.jpg,AMNE12.jpg,MN,1,num_2,32,num_4,0.416845478816,,,2017_Dec_06_1559,60.0018474842,MAFE4ImagesEEG,001,202534,
AFNE01.JPG,AFNE01.JPG,AFNE01.JPG,AFNE01.JPG,AFNE01.JPG,AFNE01.JPG,,,,,,,,,,,,,,,,,2,1,21,3,,,,,,,AMSA16.jpg,AMSA20.jpg,AMNE02.jpg,AMNE05.jpg,AMNE05.jpg,MN,1,num_4,32,num_8,0.450120245107,,,2017_Dec_06_1559,60.0018474842,MAFE4ImagesEEG,001,202534,
AFNE01.JPG,AFNE01.JPG,AFNE01.JPG,AFNE01.JPG,AFNE01.JPG,AFNE01.JPG,,,,,,,,,,,,,,,,,2,2,22,4,,,,,,,AMSA19.jpg,AMNE08.jpg,AMSA07.jpg,AMNE10.jpg,AMSA19.jpg,MS,2,num_8,32,num_6,0.366811448243,,,2017_Dec_06_1559,60.0018474842,MAFE4ImagesEEG,001,202534,
AFNE01.JPG,AFNE01.JPG,AFNE01.JPG,AFNE01.JPG,AFNE01.JPG,AFNE01.JPG,,,,,,,,,,,,,,,,,2,3,23,8,,,,,,,AMNE06.jpg,AMSA14.jpg,AMSA11.jpg,AMNE18.jpg,AMSA11.jpg,MS,2,num_2,32,num_4,0.950155205792,,,2017_Dec_06_1559,60.0018474842,MAFE4ImagesEEG,001,202534,
AFNE01.JPG,AFNE01.JPG,AFNE01.JPG,AFNE01.JPG,AFNE01.JPG,AFNE01.JPG,,,,,,,,,,,,,,,,,2,4,24,5,,,,,,,AMSA18.jpg,AMNE07.jpg,AMSA20.jpg,AMNE20.jpg,AMNE07.jpg,MN,1,num_6,16,num_6,0.66680522589,,,2017_Dec_06_1559,60.0018474842,MAFE4ImagesEEG,001,202534,
AFNE01.JPG,AFNE01.JPG,AFNE01.JPG,AFNE01.JPG,AFNE01.JPG,AFNE01.JPG,,,,,,,,,,,,,,,,,2,5,25,9,,,,,,,AMNE16.jpg,AMSA09.jpg,AMSA04.jpg,AMNE15.jpg,AMNE15.jpg,MN,1,num_4,32,num_2,0.733371116454,,,2017_Dec_06_1559,60.0018474842,MAFE4ImagesEEG,001,202534,
AFNE01.JPG,AFNE01.JPG,AFNE01.JPG,AFNE01.JPG,AFNE01.JPG,AFNE01.JPG,,,,,,,,,,,,,,,,,2,6,26,6,,,,,,,AMSA19.jpg,AMSA04.jpg,AMNE04.jpg,AMNE20.jpg,AMNE20.jpg,MN,1,num_4,32,num_8,1.06682985881,,,2017_Dec_06_1559,60.0018474842,MAFE4ImagesEEG,001,202534,
AFNE01.JPG,AFNE01.JPG,AFNE01.JPG,AFNE01.JPG,AFNE01.JPG,AFNE01.JPG,,,,,,,,,,,,,,,,,2,7,27,7,,,,,,,AMSA07.jpg,AMNE10.jpg,AMNE18.jpg,AMSA11.jpg,AMNE18.jpg,MN,1,num_2,32,num_4,0.333503004396,,,2017_Dec_06_1559,60.0018474842,MAFE4ImagesEEG,001,202534,
AFNE01.JPG,AFNE01.JPG,AFNE01.JPG,AFNE01.JPG,AFNE01.JPG,AFNE01.JPG,,,,,,,,,,,,,,,,,2,8,28,0,,,,,,,AMNE05.jpg,AMSA07.jpg,AMNE01.jpg,AMSA03.jpg,AMNE05.jpg,MN,1,num_8,32,num_6,0.333439818816,,,2017_Dec_06_1559,60.0018474842,MAFE4ImagesEEG,001,202534,
AFNE01.JPG,AFNE01.JPG,AFNE01.JPG,AFNE01.JPG,AFNE01.JPG,AFNE01.JPG,,,,,,,,,,,,,,,,,2,9,29,1,,,,,,,AMSA18.jpg,AMSA06.jpg,AMNE19.jpg,AMNE01.jpg,AMSA18.jpg,MS,2,num_8,32,num_2,0.466766609112,,,2017_Dec_06_1559,60.0018474842,MAFE4ImagesEEG,001,202534,
AFNE01.JPG,AFNE01.JPG,AFNE01.JPG,AFNE01.JPG,AFNE01.JPG,AFNE01.JPG,,,,,,,,,,,,,,,,,3,0,30,4,,,,,,,AMNE20.jpg,AMNE07.jpg,AMSA13.jpg,AMSA09.jpg,AMSA09.jpg,MS,2,num_4,32,num_8,0.433494729456,,,2017_Dec_06_1559,60.0018474842,MAFE4ImagesEEG,001,202534,
AFNE01.JPG,AFNE01.JPG,AFNE01.JPG,AFNE01.JPG,AFNE01.JPG,AFNE01.JPG,,,,,,,,,,,,,,,,,3,1,31,6,,,,,,,AMNE14.jpg,AMSA12.jpg,AMSA09.jpg,AMNE19.jpg,AMSA12.jpg,MS,2,num_6,32,num_4,0.316829377785,,,2017_Dec_06_1559,60.0018474842,MAFE4ImagesEEG,001,202534,
AFNE01.JPG,AFNE01.JPG,AFNE01.JPG,AFNE01.JPG,AFNE01.JPG,AFNE01.JPG,,,,,,,,,,,,,,,,,3,2,32,7,,,,,,,AMSA13.jpg,AMNE14.jpg,AMNE07.jpg,AMSA16.jpg,AMSA16.jpg,MS,2,num_4,32,num_6,0.400117005687,,,2017_Dec_06_1559,60.0018474842,MAFE4ImagesEEG,001,202534,
AFNE01.JPG,AFNE01.JPG,AFNE01.JPG,AFNE01.JPG,AFNE01.JPG,AFNE01.JPG,,,,,,,,,,,,,,,,,3,3,33,8,,,,,,,AMNE14.jpg,AMSA04.jpg,AMNE19.jpg,AMSA11.jpg,AMSA04.jpg,MS,2,num_6,32,num_4,0.316893846262,,,2017_Dec_06_1559,60.0018474842,MAFE4ImagesEEG,001,202534,
AFNE01.JPG,AFNE01.JPG,AFNE01.JPG,AFNE01.JPG,AFNE01.JPG,AFNE01.JPG,,,,,,,,,,,,,,,,,3,4,34,3,,,,,,,AMNE10.jpg,AMSA02.jpg,AMNE05.jpg,AMSA18.jpg,AMSA02.jpg,MS,2,num_6,32,num_2,0.316843490116,,,2017_Dec_06_1559,60.0018474842,MAFE4ImagesEEG,001,202534,
AFNE01.JPG,AFNE01.JPG,AFNE01.JPG,AFNE01.JPG,AFNE01.JPG,AFNE01.JPG,,,,,,,,,,,,,,,,,3,5,35,9,,,,,,,AMSA14.jpg,AMSA20.jpg,AMNE05.jpg,AMNE02.jpg,AMNE02.jpg,MN,1,num_4,32,num_8,0.466891055927,,,2017_Dec_06_1559,60.0018474842,MAFE4ImagesEEG,001,202534,
AFNE01.JPG,AFNE01.JPG,AFNE01.JPG,AFNE01.JPG,AFNE01.JPG,AFNE01.JPG,,,,,,,,,,,,,,,,,3,6,36,1,,,,,,,AMSA03.jpg,AMNE12.jpg,AMSA11.jpg,AMNE07.jpg,AMNE12.jpg,MN,1,num_6,32,num_4,0.366780657321,,,2017_Dec_06_1559,60.0018474842,MAFE4ImagesEEG,001,202534,
AFNE01.JPG,AFNE01.JPG,AFNE01.JPG,AFNE01.JPG,AFNE01.JPG,AFNE01.JPG,,,,,,,,,,,,,,,,,3,7,37,2,,,,,,,AMNE07.jpg,AMSA04.jpg,AMNE06.jpg,AMSA18.jpg,AMNE06.jpg,MN,1,num_2,32,num_6,0.366788034327,,,2017_Dec_06_1559,60.0018474842,MAFE4ImagesEEG,001,202534,
AFNE01.JPG,AFNE01.JPG,AFNE01.JPG,AFNE01.JPG,AFNE01.JPG,AFNE01.JPG,,,,,,,,,,,,,,,,,3,8,38,0,,,,,,,AMNE04.jpg,AMNE20.jpg,AMSA19.jpg,AMSA20.jpg,AMNE04.jpg,MN,1,num_8,32,num_4,0.366625098977,,,2017_Dec_06_1559,60.0018474842,MAFE4ImagesEEG,001,202534,
AFNE01.JPG,AFNE01.JPG,AFNE01.JPG,AFNE01.JPG,AFNE01.JPG,AFNE01.JPG,,,,,,,,,,,,,,,,,3,9,39,5,,,,,,,AMNE05.jpg,AMNE09.jpg,AMSA13.jpg,AMSA02.jpg,AMNE05.jpg,MN,1,num_8,16,num_8,0.350189139834,,,2017_Dec_06_1559,60.0018474842,MAFE4ImagesEEG,001,202534,
AFNE01.JPG,AFNE01.JPG,AFNE01.JPG,AFNE01.JPG,AFNE01.JPG,AFNE01.JPG,,,,,,,,,,,,,,,,,4,0,40,6,,,,,,,AMNE17.jpg,AMSA03.jpg,AMNE15.jpg,AMSA15.jpg,AMNE17.jpg,MN,1,num_8,16,num_8,0.716791466111,,,2017_Dec_06_1559,60.0018474842,MAFE4ImagesEEG,001,202534,
AFNE01.JPG,AFNE01.JPG,AFNE01.JPG,AFNE01.JPG,AFNE01.JPG,AFNE01.JPG,,,,,,,,,,,,,,,,,4,1,41,4,,,,,,,AMNE19.jpg,AMSA13.jpg,AMNE20.jpg,AMSA07.jpg,AMSA13.jpg,MS,2,num_6,32,num_2,0.433514935663,,,2017_Dec_06_1559,60.0018474842,MAFE4ImagesEEG,001,202534,
AFNE01.JPG,AFNE01.JPG,AFNE01.JPG,AFNE01.JPG,AFNE01.JPG,AFNE01.JPG,,,,,,,,,,,,,,,,,4,2,42,8,,,,,,,AMNE14.jpg,AMSA10.jpg,AMNE12.jpg,AMSA05.jpg,AMSA10.jpg,MS,2,num_6,32,num_4,0.300216049887,,,2017_Dec_06_1559,60.0018474842,MAFE4ImagesEEG,001,202534,
AFNE01.JPG,AFNE01.JPG,AFNE01.JPG,AFNE01.JPG,AFNE01.JPG,AFNE01.JPG,,,,,,,,,,,,,,,,,4,3,43,7,,,,,,,AMNE03.jpg,AMSA16.jpg,AMSA03.jpg,AMNE14.jpg,AMNE03.jpg,MN,1,num_8,32,num_4,0.366788996616,,,2017_Dec_06_1559,60.0018474842,MAFE4ImagesEEG,001,202534,
AFNE01.JPG,AFNE01.JPG,AFNE01.JPG,AFNE01.JPG,AFNE01.JPG,AFNE01.JPG,,,,,,,,,,,,,,,,,4,4,44,5,,,,,,,AMSA02.jpg,AMNE19.jpg,AMSA07.jpg,AMNE10.jpg,AMNE10.jpg,MN,1,num_4,32,num_6,0.333508135984,,,2017_Dec_06_1559,60.0018474842,MAFE4ImagesEEG,001,202534,
AFNE01.JPG,AFNE01.JPG,AFNE01.JPG,AFNE01.JPG,AFNE01.JPG,AFNE01.JPG,,,,,,,,,,,,,,,,,4,5,45,0,,,,,,,AMSA03.jpg,AMNE08.jpg,AMSA18.jpg,AMNE16.jpg,AMSA18.jpg,MS,2,num_2,32,num_4,0.366973100929,,,2017_Dec_06_1559,60.0018474842,MAFE4ImagesEEG,001,202534,
AFNE01.JPG,AFNE01.JPG,AFNE01.JPG,AFNE01.JPG,AFNE01.JPG,AFNE01.JPG,,,,,,,,,,,,,,,,,4,6,46,1,,,,,,,AMSA14.jpg,AMNE18.jpg,AMNE14.jpg,AMSA04.jpg,AMNE18.jpg,MN,1,num_6,16,num_6,0.483497968875,,,2017_Dec_06_1559,60.0018474842,MAFE4ImagesEEG,001,202534,
AFNE01.JPG,AFNE01.JPG,AFNE01.JPG,AFNE01.JPG,AFNE01.JPG,AFNE01.JPG,,,,,,,,,,,,,,,,,4,7,47,2,,,,,,,AMNE06.jpg,AMSA05.jpg,AMSA13.jpg,AMNE07.jpg,AMNE06.jpg,MN,1,num_8,32,num_4,0.350177272456,,,2017_Dec_06_1559,60.0018474842,MAFE4ImagesEEG,001,202534,
AFNE01.JPG,AFNE01.JPG,AFNE01.JPG,AFNE01.JPG,AFNE01.JPG,AFNE01.JPG,,,,,,,,,,,,,,,,,4,8,48,3,,,,,,,AMSA18.jpg,AMNE01.jpg,AMSA15.jpg,AMNE08.jpg,AMNE08.jpg,MN,1,num_4,16,num_4,0.350145198638,,,2017_Dec_06_1559,60.0018474842,MAFE4ImagesEEG,001,202534,
AFNE01.JPG,AFNE01.JPG,AFNE01.JPG,AFNE01.JPG,AFNE01.JPG,AFNE01.JPG,,,,,,,,,,,,,,,,,4,9,49,9,,,,,,,AMNE01.jpg,AMNE04.jpg,AMSA16.jpg,AMSA15.jpg,AMSA15.jpg,MS,2,num_4,16,num_4,0.616749064531,,,2017_Dec_06_1559,60.0018474842,MAFE4ImagesEEG,001,202534,
AFNE01.JPG,AFNE01.JPG,AFNE01.JPG,AFNE01.JPG,AFNE01.JPG,AFNE01.JPG,,,,,,,,,,,,,,,,,5,0,50,2,,,,,,,AMNE09.jpg,AMNE18.jpg,AMSA03.jpg,AMSA07.jpg,AMNE18.jpg,MN,1,num_6,16,num_6,0.400140098762,,,2017_Dec_06_1559,60.0018474842,MAFE4ImagesEEG,001,202534,
AFNE01.JPG,AFNE01.JPG,AFNE01.JPG,AFNE01.JPG,AFNE01.JPG,AFNE01.JPG,,,,,,,,,,,,,,,,,5,1,51,8,,,,,,,AMSA06.jpg,AMSA09.jpg,AMNE13.jpg,AMNE11.jpg,AMNE13.jpg,MN,1,num_2,32,num_4,0.316670932341,,,2017_Dec_06_1559,60.0018474842,MAFE4ImagesEEG,001,202534,
AFNE01.JPG,AFNE01.JPG,AFNE01.JPG,AFNE01.JPG,AFNE01.JPG,AFNE01.JPG,,,,,,,,,,,,,,,,,5,2,52,4,,,,,,,AMNE09.jpg,AMNE06.jpg,AMSA03.jpg,AMSA06.jpg,AMNE06.jpg,MN,1,num_6,32,num_4,0.48351143999,,,2017_Dec_06_1559,60.0018474842,MAFE4ImagesEEG,001,202534,
AFNE01.JPG,AFNE01.JPG,AFNE01.JPG,AFNE01.JPG,AFNE01.JPG,AFNE01.JPG,,,,,,,,,,,,,,,,,5,3,53,6,,,,,,,AMSA16.jpg,AMNE19.jpg,AMSA15.jpg,AMNE05.jpg,AMNE19.jpg,MN,1,num_6,32,num_8,0.383511375869,,,2017_Dec_06_1559,60.0018474842,MAFE4ImagesEEG,001,202534,
AFNE01.JPG,AFNE01.JPG,AFNE01.JPG,AFNE01.JPG,AFNE01.JPG,AFNE01.JPG,,,,,,,,,,,,,,,,,5,4,54,5,,,,,,,AMSA10.jpg,AMNE14.jpg,AMNE11.jpg,AMSA03.jpg,AMSA10.jpg,MS,2,num_8,32,num_2,0.400177304633,,,2017_Dec_06_1559,60.0018474842,MAFE4ImagesEEG,001,202534,
AFNE01.JPG,AFNE01.JPG,AFNE01.JPG,AFNE01.JPG,AFNE01.JPG,AFNE01.JPG,,,,,,,,,,,,,,,,,5,5,55,7,,,,,,,AMNE12.jpg,AMNE05.jpg,AMSA14.jpg,AMSA18.jpg,AMNE05.jpg,MN,1,num_6,32,num_8,0.466819531051,,,2017_Dec_06_1559,60.0018474842,MAFE4ImagesEEG,001,202534,
AFNE01.JPG,AFNE01.JPG,AFNE01.JPG,AFNE01.JPG,AFNE01.JPG,AFNE01.JPG,,,,,,,,,,,,,,,,,5,6,56,9,,,,,,,AMNE18.jpg,AMSA15.jpg,AMNE10.jpg,AMSA10.jpg,AMNE10.jpg,MN,1,num_2,32,num_6,0.516836241353,,,2017_Dec_06_1559,60.0018474842,MAFE4ImagesEEG,001,202534,
AFNE01.JPG,AFNE01.JPG,AFNE01.JPG,AFNE01.JPG,AFNE01.JPG,AFNE01.JPG,,,,,,,,,,,,,,,,,5,7,57,3,,,,,,,AMNE08.jpg,AMSA17.jpg,AMNE15.jpg,AMSA16.jpg,AMNE15.jpg,MN,1,num_2,16,num_2,0.450142696965,,,2017_Dec_06_1559,60.0018474842,MAFE4ImagesEEG,001,202534,
AFNE01.JPG,AFNE01.JPG,AFNE01.JPG,AFNE01.JPG,AFNE01.JPG,AFNE01.JPG,,,,,,,,,,,,,,,,,5,8,58,1,,,,,,,AMSA16.jpg,AMNE03.jpg,AMSA11.jpg,AMNE20.jpg,AMSA11.jpg,MS,2,num_2,32,num_8,0.383454284165,,,2017_Dec_06_1559,60.0018474842,MAFE4ImagesEEG,001,202534,
AFNE01.JPG,AFNE01.JPG,AFNE01.JPG,AFNE01.JPG,AFNE01.JPG,AFNE01.JPG,,,,,,,,,,,,,,,,,5,9,59,0,,,,,,,AMSA10.jpg,AMNE04.jpg,AMSA16.jpg,AMNE14.jpg,AMNE04.jpg,MN,1,num_6,16,num_6,0.350180800539,,,2017_Dec_06_1559,60.0018474842,MAFE4ImagesEEG,001,202534,
,,,,,,,,,,,,,,,,,,,,,,,,,,,,,,,,,,,,,,,,,,,space,3.43323781714,2017_Dec_06_1559,60.0018474842,MAFE4ImagesEEG,001,202534,
AFNE01.JPG,AFNE01.JPG,AFNE01.JPG,AFNE01.JPG,AFNE01.JPG,AFNE01.JPG,,,,,,,,,,,,,,,,,,,,,0,0,0,0,,,AFSA19.jpg,AFNE09.jpg,AFNE13.jpg,AFSA12.jpg,AFNE09.jpg,FN,3,num_6,32,num_4,0.316869470058,,,2017_Dec_06_1559,60.0018474842,MAFE4ImagesEEG,001,202534,
AFNE01.JPG,AFNE01.JPG,AFNE01.JPG,AFNE01.JPG,AFNE01.JPG,AFNE01.JPG,,,,,,,,,,,,,,,,,,,,,0,1,1,4,,,AFSA01.jpg,AFSA14.jpg,AFNE20.jpg,AFNE18.jpg,AFSA01.jpg,FS,4,num_8,32,num_6,0.416759199928,,,2017_Dec_06_1559,60.0018474842,MAFE4ImagesEEG,001,202534,
AFNE01.JPG,AFNE01.JPG,AFNE01.JPG,AFNE01.JPG,AFNE01.JPG,AFNE01.JPG,,,,,,,,,,,,,,,,,,,,,0,2,2,6,,,AFNE16.jpg,AFNE19.jpg,AFSA01.jpg,AFSA20.jpg,AFNE16.jpg,FN,3,num_8,16,num_8,0.400067932671,,,2017_Dec_06_1559,60.0018474842,MAFE4ImagesEEG,001,202534,
AFNE01.JPG,AFNE01.JPG,AFNE01.JPG,AFNE01.JPG,AFNE01.JPG,AFNE01.JPG,,,,,,,,,,,,,,,,,,,,,0,3,3,7,,,AFNE14.jpg,AFSA15.jpg,AFSA04.jpg,AFNE15.jpg,AFNE14.jpg,FN,3,num_8,32,num_4,0.383482188452,,,2017_Dec_06_1559,60.0018474842,MAFE4ImagesEEG,001,202534,
AFNE01.JPG,AFNE01.JPG,AFNE01.JPG,AFNE01.JPG,AFNE01.JPG,AFNE01.JPG,,,,,,,,,,,,,,,,,,,,,0,4,4,9,,,AFSA01.jpg,AFNE08.jpg,AFSA06.jpg,AFNE15.jpg,AFSA01.jpg,FS,4,num_8,32,num_2,0.433527124114,,,2017_Dec_06_1559,60.0018474842,MAFE4ImagesEEG,001,202534,
AFNE01.JPG,AFNE01.JPG,AFNE01.JPG,AFNE01.JPG,AFNE01.JPG,AFNE01.JPG,,,,,,,,,,,,,,,,,,,,,0,5,5,2,,,AFNE18.jpg,AFSA12.jpg,AFSA13.jpg,AFNE01.jpg,AFNE01.jpg,FN,3,num_4,32,num_8,0.366815938614,,,2017_Dec_06_1559,60.0018474842,MAFE4ImagesEEG,001,202534,
AFNE01.JPG,AFNE01.JPG,AFNE01.JPG,AFNE01.JPG,AFNE01.JPG,AFNE01.JPG,,,,,,,,,,,,,,,,,,,,,0,6,6,8,,,AFNE09.jpg,AFSA16.jpg,AFSA08.jpg,AFNE15.jpg,AFNE09.jpg,FN,3,num_8,16,num_8,0.450125697767,,,2017_Dec_06_1559,60.0018474842,MAFE4ImagesEEG,001,202534,
AFNE01.JPG,AFNE01.JPG,AFNE01.JPG,AFNE01.JPG,AFNE01.JPG,AFNE01.JPG,,,,,,,,,,,,,,,,,,,,,0,7,7,3,,,AFSA02.jpg,AFNE08.jpg,AFNE11.jpg,AFSA04.jpg,AFSA02.jpg,FS,4,num_8,32,num_2,0.3835254882,,,2017_Dec_06_1559,60.0018474842,MAFE4ImagesEEG,001,202534,
AFNE01.JPG,AFNE01.JPG,AFNE01.JPG,AFNE01.JPG,AFNE01.JPG,AFNE01.JPG,,,,,,,,,,,,,,,,,,,,,0,8,8,5,,,AFSA11.jpg,AFNE14.jpg,AFNE11.jpg,AFSA01.jpg,AFSA11.jpg,FS,4,num_8,32,num_4,0.366779374424,,,2017_Dec_06_1559,60.0018474842,MAFE4ImagesEEG,001,202534,
AFNE01.JPG,AFNE01.JPG,AFNE01.JPG,AFNE01.JPG,AFNE01.JPG,AFNE01.JPG,,,,,,,,,,,,,,,,,,,,,0,9,9,1,,,AFNE03.jpg,AFNE17.jpg,AFSA18.jpg,AFSA17.jpg,AFNE17.jpg,FN,3,num_6,16,num_6,0.333486005198,,,2017_Dec_06_1559,60.0018474842,MAFE4ImagesEEG,001,202534,
AFNE01.JPG,AFNE01.JPG,AFNE01.JPG,AFNE01.JPG,AFNE01.JPG,AFNE01.JPG,,,,,,,,,,,,,,,,,,,,,1,0,10,9,,,AFSA15.jpg,AFNE01.jpg,AFNE05.jpg,AFSA01.jpg,AFNE01.jpg,FN,3,num_6,32,num_8,0.350135255605,,,2017_Dec_06_1559,60.0018474842,MAFE4ImagesEEG,001,202534,
AFNE01.JPG,AFNE01.JPG,AFNE01.JPG,AFNE01.JPG,AFNE01.JPG,AFNE01.JPG,,,,,,,,,,,,,,,,,,,,,1,1,11,6,,,AFSA18.jpg,AFNE18.jpg,AFNE19.jpg,AFSA20.jpg,AFSA20.jpg,FS,4,num_4,32,num_2,0.91677491623,,,2017_Dec_06_1559,60.0018474842,MAFE4ImagesEEG,001,202534,
AFNE01.JPG,AFNE01.JPG,AFNE01.JPG,AFNE01.JPG,AFNE01.JPG,AFNE01.JPG,,,,,,,,,,,,,,,,,,,,,1,2,12,0,,,AFNE16.jpg,AFNE18.jpg,AFSA04.jpg,AFSA09.jpg,AFSA04.jpg,FS,4,num_2,32,num_4,0.366861804388,,,2017_Dec_06_1559,60.0018474842,MAFE4ImagesEEG,001,202534,
AFNE01.JPG,AFNE01.JPG,AFNE01.JPG,AFNE01.JPG,AFNE01.JPG,AFNE01.JPG,,,,,,,,,,,,,,,,,,,,,1,3,13,2,,,AFSA06.jpg,AFNE05.jpg,AFSA18.jpg,AFNE01.jpg,AFNE05.jpg,FN,3,num_6,16,num_6,0.433497295249,,,2017_Dec_06_1559,60.0018474842,MAFE4ImagesEEG,001,202534,
AFNE01.JPG,AFNE01.JPG,AFNE01.JPG,AFNE01.JPG,AFNE01.JPG,AFNE01.JPG,,,,,,,,,,,,,,,,,,,,,1,4,14,3,,,AFNE04.jpg,AFSA05.jpg,AFSA12.jpg,AFNE12.jpg,AFNE04.jpg,FN,3,num_8,32,num_6,0.35026483424,,,2017_Dec_06_1559,60.0018474842,MAFE4ImagesEEG,001,202534,
AFNE01.JPG,AFNE01.JPG,AFNE01.JPG,AFNE01.JPG,AFNE01.JPG,AFNE01.JPG,,,,,,,,,,,,,,,,,,,,,1,5,15,1,,,AFNE07.jpg,AFNE17.jpg,AFSA04.jpg,AFSA10.jpg,AFNE17.jpg,FN,3,num_6,32,num_8,0.500172236934,,,2017_Dec_06_1559,60.0018474842,MAFE4ImagesEEG,001,202534,
AFNE01.JPG,AFNE01.JPG,AFNE01.JPG,AFNE01.JPG,AFNE01.JPG,AFNE01.JPG,,,,,,,,,,,,,,,,,,,,,1,6,16,7,,,AFSA02.jpg,AFSA09.jpg,AFNE18.jpg,AFNE16.jpg,AFSA09.jpg,FS,4,num_6,32,num_2,0.483470385196,,,2017_Dec_06_1559,60.0018474842,MAFE4ImagesEEG,001,202534,
AFNE01.JPG,AFNE01.JPG,AFNE01.JPG,AFNE01.JPG,AFNE01.JPG,AFNE01.JPG,,,,,,,,,,,,,,,,,,,,,1,7,17,8,,,AFSA19.jpg,AFNE06.jpg,AFNE04.jpg,AFSA16.jpg,AFSA19.jpg,FS,4,num_8,16,num_8,0.48347455496,,,2017_Dec_06_1559,60.0018474842,MAFE4ImagesEEG,001,202534,
AFNE01.JPG,AFNE01.JPG,AFNE01.JPG,AFNE01.JPG,AFNE01.JPG,AFNE01.JPG,,,,,,,,,,,,,,,,,,,,,1,8,18,5,,,AFNE14.jpg,AFSA11.jpg,AFNE10.jpg,AFSA10.jpg,AFNE10.jpg,FN,3,num_2,16,num_2,0.350185932592,,,2017_Dec_06_1559,60.0018474842,MAFE4ImagesEEG,001,202534,
AFNE01.JPG,AFNE01.JPG,AFNE01.JPG,AFNE01.JPG,AFNE01.JPG,AFNE01.JPG,,,,,,,,,,,,,,,,,,,,,1,9,19,4,,,AFSA17.jpg,AFNE16.jpg,AFSA20.jpg,AFNE02.jpg,AFNE16.jpg,FN,3,num_6,32,num_4,0.883487961721,,,2017_Dec_06_1559,60.0018474842,MAFE4ImagesEEG,001,202534,
AFNE01.JPG,AFNE01.JPG,AFNE01.JPG,AFNE01.JPG,AFNE01.JPG,AFNE01.JPG,,,,,,,,,,,,,,,,,,,,,2,0,20,1,,,AFNE11.jpg,AFNE15.jpg,AFSA13.jpg,AFSA06.jpg,AFSA06.jpg,FS,4,num_4,16,num_4,0.383536714129,,,2017_Dec_06_1559,60.0018474842,MAFE4ImagesEEG,001,202534,
AFNE01.JPG,AFNE01.JPG,AFNE01.JPG,AFNE01.JPG,AFNE01.JPG,AFNE01.JPG,,,,,,,,,,,,,,,,,,,,,2,1,21,9,,,AFSA05.jpg,AFNE19.jpg,AFSA03.jpg,AFNE15.jpg,AFSA05.jpg,FS,4,num_8,32,num_4,0.366761733778,,,2017_Dec_06_1559,60.0018474842,MAFE4ImagesEEG,001,202534,
AFNE01.JPG,AFNE01.JPG,AFNE01.JPG,AFNE01.JPG,AFNE01.JPG,AFNE01.JPG,,,,,,,,,,,,,,,,,,,,,2,2,22,8,,,AFSA14.jpg,AFNE17.jpg,AFNE16.jpg,AFSA19.jpg,AFNE16.jpg,FN,3,num_2,32,num_4,0.433493767167,,,2017_Dec_06_1559,60.0018474842,MAFE4ImagesEEG,001,202534,
AFNE01.JPG,AFNE01.JPG,AFNE01.JPG,AFNE01.JPG,AFNE01.JPG,AFNE01.JPG,,,,,,,,,,,,,,,,,,,,,2,3,23,5,,,AFNE18.jpg,AFNE13.jpg,AFSA01.jpg,AFSA07.jpg,AFSA07.jpg,FS,4,num_4,16,num_4,0.450159054482,,,2017_Dec_06_1559,60.0018474842,MAFE4ImagesEEG,001,202534,
AFNE01.JPG,AFNE01.JPG,AFNE01.JPG,AFNE01.JPG,AFNE01.JPG,AFNE01.JPG,,,,,,,,,,,,,,,,,,,,,2,4,24,6,,,AFNE08.jpg,AFNE10.jpg,AFSA03.jpg,AFSA16.jpg,AFNE08.jpg,FN,3,num_8,32,num_4,1.78335799812,,,2017_Dec_06_1559,60.0018474842,MAFE4ImagesEEG,001,202534,
AFNE01.JPG,AFNE01.JPG,AFNE01.JPG,AFNE01.JPG,AFNE01.JPG,AFNE01.JPG,,,,,,,,,,,,,,,,,,,,,2,5,25,2,,,AFNE18.jpg,AFSA08.jpg,AFNE12.jpg,AFSA04.jpg,AFNE12.jpg,FN,3,num_2,32,num_4,1.40032099583,,,2017_Dec_06_1559,60.0018474842,MAFE4ImagesEEG,001,202534,
AFNE01.JPG,AFNE01.JPG,AFNE01.JPG,AFNE01.JPG,AFNE01.JPG,AFNE01.JPG,,,,,,,,,,,,,,,,,,,,,2,6,26,3,,,AFNE12.jpg,AFNE16.jpg,AFSA10.jpg,AFSA04.jpg,AFSA10.jpg,FS,4,num_2,32,num_4,0.600146321114,,,2017_Dec_06_1559,60.0018474842,MAFE4ImagesEEG,001,202534,
AFNE01.JPG,AFNE01.JPG,AFNE01.JPG,AFNE01.JPG,AFNE01.JPG,AFNE01.JPG,,,,,,,,,,,,,,,,,,,,,2,7,27,0,,,AFNE15.jpg,AFSA20.jpg,AFSA05.jpg,AFNE08.jpg,AFSA20.jpg,FS,4,num_6,16,num_6,0.583461468806,,,2017_Dec_06_1559,60.0018474842,MAFE4ImagesEEG,001,202534,
AFNE01.JPG,AFNE01.JPG,AFNE01.JPG,AFNE01.JPG,AFNE01.JPG,AFNE01.JPG,,,,,,,,,,,,,,,,,,,,,2,8,28,7,,,AFNE08.jpg,AFSA15.jpg,AFNE06.jpg,AFSA20.jpg,AFNE08.jpg,FN,3,num_8,16,num_8,0.616839192109,,,2017_Dec_06_1559,60.0018474842,MAFE4ImagesEEG,001,202534,
AFNE01.JPG,AFNE01.JPG,AFNE01.JPG,AFNE01.JPG,AFNE01.JPG,AFNE01.JPG,,,,,,,,,,,,,,,,,,,,,2,9,29,4,,,AFNE08.jpg,AFSA18.jpg,AFSA13.jpg,AFNE01.jpg,AFSA18.jpg,FS,4,num_6,32,num_2,0.46675217594,,,2017_Dec_06_1559,60.0018474842,MAFE4ImagesEEG,001,202534,
AFNE01.JPG,AFNE01.JPG,AFNE01.JPG,AFNE01.JPG,AFNE01.JPG,AFNE01.JPG,,,,,,,,,,,,,,,,,,,,,3,0,30,1,,,AFSA16.jpg,AFNE05.jpg,AFNE19.jpg,AFSA10.jpg,AFNE05.jpg,FN,3,num_6,32,num_4,0.383453963324,,,2017_Dec_06_1559,60.0018474842,MAFE4ImagesEEG,001,202534,
AFNE01.JPG,AFNE01.JPG,AFNE01.JPG,AFNE01.JPG,AFNE01.JPG,AFNE01.JPG,,,,,,,,,,,,,,,,,,,,,3,1,31,6,,,AFSA18.jpg,AFNE19.jpg,AFSA13.jpg,AFNE17.jpg,AFSA18.jpg,FS,4,num_8,16,num_8,0.383516828297,,,2017_Dec_06_1559,60.0018474842,MAFE4ImagesEEG,001,202534,
AFNE01.JPG,AFNE01.JPG,AFNE01.JPG,AFNE01.JPG,AFNE01.JPG,AFNE01.JPG,,,,,,,,,,,,,,,,,,,,,3,2,32,4,,,AFSA16.jpg,AFNE17.jpg,AFNE10.jpg,AFSA03.jpg,AFSA03.jpg,FS,4,num_4,32,num_6,0.466790343868,,,2017_Dec_06_1559,60.0018474842,MAFE4ImagesEEG,001,202534,
AFNE01.JPG,AFNE01.JPG,AFNE01.JPG,AFNE01.JPG,AFNE01.JPG,AFNE01.JPG,,,,,,,,,,,,,,,,,,,,,3,3,33,8,,,AFSA09.jpg,AFNE13.jpg,AFSA08.jpg,AFNE07.jpg,AFSA09.jpg,FS,4,num_8,32,num_2,0.350149047561,,,2017_Dec_06_1559,60.0018474842,MAFE4ImagesEEG,001,202534,
AFNE01.JPG,AFNE01.JPG,AFNE01.JPG,AFNE01.JPG,AFNE01.JPG,AFNE01.JPG,,,,,,,,,,,,,,,,,,,,,3,4,34,3,,,AFSA16.jpg,AFNE03.jpg,AFSA15.jpg,AFNE05.jpg,AFSA15.jpg,FS,4,num_2,32,num_4,0.416806990048,,,2017_Dec_06_1559,60.0018474842,MAFE4ImagesEEG,001,202534,
AFNE01.JPG,AFNE01.JPG,AFNE01.JPG,AFNE01.JPG,AFNE01.JPG,AFNE01.JPG,,,,,,,,,,,,,,,,,,,,,3,5,35,9,,,AFSA08.jpg,AFSA03.jpg,AFNE01.jpg,AFNE04.jpg,AFNE04.jpg,FN,3,num_4,32,num_2,0.633495819755,,,2017_Dec_06_1559,60.0018474842,MAFE4ImagesEEG,001,202534,
AFNE01.JPG,AFNE01.JPG,AFNE01.JPG,AFNE01.JPG,AFNE01.JPG,AFNE01.JPG,,,,,,,,,,,,,,,,,,,,,3,6,36,2,,,AFSA20.jpg,AFNE11.jpg,AFSA14.jpg,AFNE16.jpg,AFSA14.jpg,FS,4,num_2,32,num_6,0.350119860144,,,2017_Dec_06_1559,60.0018474842,MAFE4ImagesEEG,001,202534,
AFNE01.JPG,AFNE01.JPG,AFNE01.JPG,AFNE01.JPG,AFNE01.JPG,AFNE01.JPG,,,,,,,,,,,,,,,,,,,,,3,7,37,7,,,AFSA10.jpg,AFSA11.jpg,AFNE15.jpg,AFNE10.jpg,AFSA11.jpg,FS,4,num_6,32,num_8,0.650124222273,,,2017_Dec_06_1559,60.0018474842,MAFE4ImagesEEG,001,202534,
AFNE01.JPG,AFNE01.JPG,AFNE01.JPG,AFNE01.JPG,AFNE01.JPG,AFNE01.JPG,,,,,,,,,,,,,,,,,,,,,3,8,38,5,,,AFSA02.jpg,AFNE15.jpg,AFNE16.jpg,AFSA20.jpg,AFSA20.jpg,FS,4,num_4,16,num_4,0.483519779053,,,2017_Dec_06_1559,60.0018474842,MAFE4ImagesEEG,001,202534,
