IPosition2,IPosition3,IPosition1,IPosition6,IPosition4,IPosition5,TrialsM1.thisRepN,TrialsM1.thisTrialN,TrialsM1.thisN,TrialsM1.thisIndex,TrialsF1.thisRepN,TrialsF1.thisTrialN,TrialsF1.thisN,TrialsF1.thisIndex,TrialsM2.thisRepN,TrialsM2.thisTrialN,TrialsM2.thisN,TrialsM2.thisIndex,TrialsF2.thisRepN,TrialsF2.thisTrialN,TrialsF2.thisN,TrialsF2.thisIndex,TrialsM3.thisRepN,TrialsM3.thisTrialN,TrialsM3.thisN,TrialsM3.thisIndex,TrialsF3.thisRepN,TrialsF3.thisTrialN,TrialsF3.thisN,TrialsF3.thisIndex,InstrKey_resp.keys,InstrKey_resp.rt,Image0 _Position,Image1 _Position,Image2 _Position,Image3 _Position,Center_image,condition,code,correct_answer,accuracy,Key_Resp.keys,Key_Resp.rt,BreakKey_resp.keys,BreakKey_resp.rt,date,frameRate,expName,session,participant,
,,,,,,,,,,,,,,,,,,,,,,,,,,,,,,space,23.4653716254,,,,,,,,,,,,,,2017_Dec_20_1529,59.99949965,MAFE4ImagesEEG,001,202501,
AMSA25.JPG,AMNE24.JPG,AMSA24.JPG,AMNE26.JPG,AMSA21.JPG,AMNE25.JPG,0,0,0,3,,,,,,,,,,,,,,,,,,,,,,,AMSA09.jpg,AMSA17.jpg,AMNE20.jpg,AMNE07.jpg,AMSA17.jpg,MS,2,num_6,16,num_6,0.833448051344,,,2017_Dec_20_1529,59.99949965,MAFE4ImagesEEG,001,202501,
AMNE23.JPG,AMNE24.JPG,AMNE22.JPG,AMSA24.JPG,AMSA22.JPG,AMSA23.JPG,0,1,1,9,,,,,,,,,,,,,,,,,,,,,,,AMNE07.jpg,AMNE16.jpg,AMSA18.jpg,AMSA12.jpg,AMNE07.jpg,MN,1,num_8,16,num_8,2.05009221275,,,2017_Dec_20_1529,59.99949965,MAFE4ImagesEEG,001,202501,
AFSA21.JPG,AFNE22.JPG,AFNE21.JPG,AFSA23.JPG,AFSA22.JPG,AFNE23.JPG,0,2,2,0,,,,,,,,,,,,,,,,,,,,,,,AMSA08.jpg,AMNE02.jpg,AMNE05.jpg,AMSA19.jpg,AMSA08.jpg,MS,2,num_8,16,num_8,1.56670718682,,,2017_Dec_20_1529,59.99949965,MAFE4ImagesEEG,001,202501,
AFNE23.JPG,AFNE24.JPG,AFNE22.JPG,AFSA24.JPG,AFSA22.JPG,AFSA23.JPG,0,3,3,8,,,,,,,,,,,,,,,,,,,,,,,AMNE06.jpg,AMSA07.jpg,AMNE15.jpg,AMSA12.jpg,AMSA07.jpg,MS,2,num_6,16,num_6,0.616862906099,,,2017_Dec_20_1529,59.99949965,MAFE4ImagesEEG,001,202501,
AFSA25.JPG,AFNE24.JPG,AFSA24.JPG,AFNE21.JPG,AFSA21.JPG,AFNE25.JPG,0,4,4,2,,,,,,,,,,,,,,,,,,,,,,,AMSA11.jpg,AMNE17.jpg,AMSA17.jpg,AMNE19.jpg,AMSA11.jpg,MS,2,num_8,32,num_4,0.916788494418,,,2017_Dec_20_1529,59.99949965,MAFE4ImagesEEG,001,202501,
AMNE22.JPG,AMSA24.JPG,AMSA22.JPG,AMNE25.JPG,AMNE24.JPG,AMSA25.JPG,0,5,5,7,,,,,,,,,,,,,,,,,,,,,,,AMNE14.jpg,AMSA06.jpg,AMSA02.jpg,AMNE08.jpg,AMNE14.jpg,MN,1,num_8,16,num_8,0.666818162863,,,2017_Dec_20_1529,59.99949965,MAFE4ImagesEEG,001,202501,
AMSA21.JPG,AMNE23.JPG,AMNE21.JPG,AMSA25.JPG,AMNE25.JPG,AMSA23.JPG,0,6,6,5,,,,,,,,,,,,,,,,,,,,,,,AMSA08.jpg,AMSA15.jpg,AMNE11.jpg,AMNE02.jpg,AMSA15.jpg,MS,2,num_6,16,num_6,1.00014882335,,,2017_Dec_20_1529,59.99949965,MAFE4ImagesEEG,001,202501,
AMSA21.JPG,AMNE22.JPG,AMNE21.JPG,AMSA23.JPG,AMSA22.JPG,AMNE23.JPG,0,7,7,1,,,,,,,,,,,,,,,,,,,,,,,AMSA10.jpg,AMNE05.jpg,AMNE01.jpg,AMSA09.jpg,AMSA10.jpg,MS,2,num_8,32,num_6,0.800144012261,,,2017_Dec_20_1529,59.99949965,MAFE4ImagesEEG,001,202501,
AFNE22.JPG,AFSA24.JPG,AFSA22.JPG,AFNE25.JPG,AFNE24.JPG,AFSA25.JPG,0,8,8,6,,,,,,,,,,,,,,,,,,,,,,,AMSA13.jpg,AMNE01.jpg,AMNE19.jpg,AMSA01.jpg,AMNE01.jpg,MN,1,num_6,16,num_6,0.683502096028,,,2017_Dec_20_1529,59.99949965,MAFE4ImagesEEG,001,202501,
AFSA21.JPG,AFNE23.JPG,AFNE21.JPG,AFSA25.JPG,AFNE25.JPG,AFSA23.JPG,0,9,9,4,,,,,,,,,,,,,,,,,,,,,,,AMSA10.jpg,AMSA17.jpg,AMNE12.jpg,AMNE08.jpg,AMNE12.jpg,MN,1,num_2,32,num_4,0.900112259013,,,2017_Dec_20_1529,59.99949965,MAFE4ImagesEEG,001,202501,
AFSA21.JPG,AFNE23.JPG,AFNE21.JPG,AFSA25.JPG,AFNE25.JPG,AFSA23.JPG,,,,,0,0,0,4,,,,,,,,,,,,,,,,,,,AFSA02.jpg,AFNE15.jpg,AFSA01.jpg,AFNE17.jpg,AFSA01.jpg,FS,4,num_2,16,num_2,2.13345350394,,,2017_Dec_20_1529,59.99949965,MAFE4ImagesEEG,001,202501,
AFNE22.JPG,AFSA24.JPG,AFSA22.JPG,AFNE25.JPG,AFNE24.JPG,AFSA25.JPG,,,,,0,1,1,6,,,,,,,,,,,,,,,,,,,AFSA15.jpg,AFNE03.jpg,AFNE05.jpg,AFSA07.jpg,AFSA07.jpg,FS,4,num_4,32,num_8,0.966801163639,,,2017_Dec_20_1529,59.99949965,MAFE4ImagesEEG,001,202501,
AMNE22.JPG,AMSA24.JPG,AMSA22.JPG,AMNE25.JPG,AMNE24.JPG,AMSA25.JPG,,,,,0,2,2,7,,,,,,,,,,,,,,,,,,,AFNE17.jpg,AFSA20.jpg,AFNE12.jpg,AFSA10.jpg,AFSA10.jpg,FS,4,num_4,32,num_8,1.03342271288,,,2017_Dec_20_1529,59.99949965,MAFE4ImagesEEG,001,202501,
AMSA21.JPG,AMNE23.JPG,AMNE21.JPG,AMSA25.JPG,AMNE25.JPG,AMSA23.JPG,,,,,0,3,3,5,,,,,,,,,,,,,,,,,,,AFNE04.jpg,AFNE15.jpg,AFSA18.jpg,AFSA16.jpg,AFNE15.jpg,FN,3,num_6,16,num_6,1.45004891284,,,2017_Dec_20_1529,59.99949965,MAFE4ImagesEEG,001,202501,
AFSA25.JPG,AFNE24.JPG,AFSA24.JPG,AFNE21.JPG,AFSA21.JPG,AFNE25.JPG,,,,,0,4,4,2,,,,,,,,,,,,,,,,,,,AFSA18.jpg,AFNE19.jpg,AFNE02.jpg,AFSA10.jpg,AFNE02.jpg,FN,3,num_2,16,num_2,2.53334156566,,,2017_Dec_20_1529,59.99949965,MAFE4ImagesEEG,001,202501,
AFNE23.JPG,AFNE24.JPG,AFNE22.JPG,AFSA24.JPG,AFSA22.JPG,AFSA23.JPG,,,,,0,5,5,8,,,,,,,,,,,,,,,,,,,AFSA02.jpg,AFNE20.jpg,AFNE07.jpg,AFSA07.jpg,AFNE20.jpg,FN,3,num_6,32,num_8,0.766817200638,,,2017_Dec_20_1529,59.99949965,MAFE4ImagesEEG,001,202501,
AMSA25.JPG,AMNE24.JPG,AMSA24.JPG,AMNE26.JPG,AMSA21.JPG,AMNE25.JPG,,,,,0,6,6,3,,,,,,,,,,,,,,,,,,,AFSA19.jpg,AFNE10.jpg,AFNE17.jpg,AFSA05.jpg,AFNE10.jpg,FN,3,num_6,16,num_6,0.616806455859,,,2017_Dec_20_1529,59.99949965,MAFE4ImagesEEG,001,202501,
AFSA21.JPG,AFNE22.JPG,AFNE21.JPG,AFSA23.JPG,AFSA22.JPG,AFNE23.JPG,,,,,0,7,7,0,,,,,,,,,,,,,,,,,,,AFSA03.jpg,AFSA16.jpg,AFNE12.jpg,AFNE15.jpg,AFNE15.jpg,FN,3,num_4,32,num_2,0.733491030507,,,2017_Dec_20_1529,59.99949965,MAFE4ImagesEEG,001,202501,
AMSA21.JPG,AMNE22.JPG,AMNE21.JPG,AMSA23.JPG,AMSA22.JPG,AMNE23.JPG,,,,,0,8,8,1,,,,,,,,,,,,,,,,,,,AFSA03.jpg,AFSA04.jpg,AFNE09.jpg,AFNE04.jpg,AFNE09.jpg,FN,3,num_2,16,num_2,0.583477399065,,,2017_Dec_20_1529,59.99949965,MAFE4ImagesEEG,001,202501,
AMNE23.JPG,AMNE24.JPG,AMNE22.JPG,AMSA24.JPG,AMSA22.JPG,AMSA23.JPG,,,,,0,9,9,9,,,,,,,,,,,,,,,,,,,AFNE12.jpg,AFSA06.jpg,AFNE05.jpg,AFSA13.jpg,AFSA06.jpg,FS,4,num_6,16,num_6,0.733479163115,,,2017_Dec_20_1529,59.99949965,MAFE4ImagesEEG,001,202501,
AMSA25.JPG,AMNE24.JPG,AMSA24.JPG,AMNE26.JPG,AMSA21.JPG,AMNE25.JPG,,,,,,,,,0,0,0,3,,,,,,,,,,,,,,,AMSA11.jpg,AMNE08.jpg,AMSA18.jpg,AMNE02.jpg,AMNE08.jpg,MN,1,num_6,16,num_6,0.533508029723,,,2017_Dec_20_1529,59.99949965,MAFE4ImagesEEG,001,202501,
AFSA21.JPG,AFNE22.JPG,AFNE21.JPG,AFSA23.JPG,AFSA22.JPG,AFNE23.JPG,,,,,,,,,0,1,1,0,,,,,,,,,,,,,,,AMSA01.jpg,AMNE12.jpg,AMSA08.jpg,AMNE14.jpg,AMNE12.jpg,MN,1,num_6,32,num_4,1.63325207919,,,2017_Dec_20_1529,59.99949965,MAFE4ImagesEEG,001,202501,
AMSA21.JPG,AMNE23.JPG,AMNE21.JPG,AMSA25.JPG,AMNE25.JPG,AMSA23.JPG,,,,,,,,,0,2,2,5,,,,,,,,,,,,,,,AMSA09.jpg,AMNE14.jpg,AMNE15.jpg,AMSA16.jpg,AMNE14.jpg,MN,1,num_6,16,num_6,0.550139682266,,,2017_Dec_20_1529,59.99949965,MAFE4ImagesEEG,001,202501,
AMNE23.JPG,AMNE24.JPG,AMNE22.JPG,AMSA24.JPG,AMSA22.JPG,AMSA23.JPG,,,,,,,,,0,3,3,9,,,,,,,,,,,,,,,AMSA06.jpg,AMNE16.jpg,AMSA18.jpg,AMNE18.jpg,AMNE18.jpg,MN,1,num_4,16,num_4,1.19995124752,,,2017_Dec_20_1529,59.99949965,MAFE4ImagesEEG,001,202501,
AFSA25.JPG,AFNE24.JPG,AFSA24.JPG,AFNE21.JPG,AFSA21.JPG,AFNE25.JPG,,,,,,,,,0,4,4,2,,,,,,,,,,,,,,,AMNE13.jpg,AMSA12.jpg,AMSA14.jpg,AMNE15.jpg,AMNE15.jpg,MN,1,num_4,32,num_8,0.750182340693,,,2017_Dec_20_1529,59.99949965,MAFE4ImagesEEG,001,202501,
AFNE23.JPG,AFNE24.JPG,AFNE22.JPG,AFSA24.JPG,AFSA22.JPG,AFSA23.JPG,,,,,,,,,0,5,5,8,,,,,,,,,,,,,,,AMNE03.jpg,AMSA12.jpg,AMSA11.jpg,AMNE06.jpg,AMNE06.jpg,MN,1,num_4,32,num_2,0.999963756374,,,2017_Dec_20_1529,59.99949965,MAFE4ImagesEEG,001,202501,
AFSA21.JPG,AFNE23.JPG,AFNE21.JPG,AFSA25.JPG,AFNE25.JPG,AFSA23.JPG,,,,,,,,,0,6,6,4,,,,,,,,,,,,,,,AMNE12.jpg,AMSA11.jpg,AMSA16.jpg,AMNE13.jpg,AMSA16.jpg,MS,2,num_2,32,num_6,0.916758024105,,,2017_Dec_20_1529,59.99949965,MAFE4ImagesEEG,001,202501,
AMNE22.JPG,AMSA24.JPG,AMSA22.JPG,AMNE25.JPG,AMNE24.JPG,AMSA25.JPG,,,,,,,,,0,7,7,7,,,,,,,,,,,,,,,AMSA13.jpg,AMNE03.jpg,AMSA16.jpg,AMNE01.jpg,AMSA13.jpg,MS,2,num_8,32,num_2,1.05013839931,,,2017_Dec_20_1529,59.99949965,MAFE4ImagesEEG,001,202501,
AFNE22.JPG,AFSA24.JPG,AFSA22.JPG,AFNE25.JPG,AFNE24.JPG,AFSA25.JPG,,,,,,,,,0,8,8,6,,,,,,,,,,,,,,,AMNE20.jpg,AMNE02.jpg,AMSA05.jpg,AMSA10.jpg,AMSA05.jpg,MS,2,num_2,32,num_6,0.533505463798,,,2017_Dec_20_1529,59.99949965,MAFE4ImagesEEG,001,202501,
AMSA21.JPG,AMNE22.JPG,AMNE21.JPG,AMSA23.JPG,AMSA22.JPG,AMNE23.JPG,,,,,,,,,0,9,9,1,,,,,,,,,,,,,,,AMSA15.jpg,AMNE07.jpg,AMNE03.jpg,AMSA09.jpg,AMSA15.jpg,MS,2,num_8,32,num_4,1.066757543,,,2017_Dec_20_1529,59.99949965,MAFE4ImagesEEG,001,202501,
AMSA25.JPG,AMNE24.JPG,AMSA24.JPG,AMNE26.JPG,AMSA21.JPG,AMNE25.JPG,,,,,,,,,,,,,0,0,0,3,,,,,,,,,,,AFSA03.jpg,AFSA11.jpg,AFNE15.jpg,AFNE16.jpg,AFNE15.jpg,FN,3,num_2,32,num_4,1.48341293032,,,2017_Dec_20_1529,59.99949965,MAFE4ImagesEEG,001,202501,
AFSA21.JPG,AFNE22.JPG,AFNE21.JPG,AFSA23.JPG,AFSA22.JPG,AFNE23.JPG,,,,,,,,,,,,,0,1,1,0,,,,,,,,,,,AFSA12.jpg,AFNE13.jpg,AFSA08.jpg,AFNE20.jpg,AFNE20.jpg,FN,3,num_4,32,num_6,0.733471144616,,,2017_Dec_20_1529,59.99949965,MAFE4ImagesEEG,001,202501,
AMNE22.JPG,AMSA24.JPG,AMSA22.JPG,AMNE25.JPG,AMNE24.JPG,AMSA25.JPG,,,,,,,,,,,,,0,2,2,7,,,,,,,,,,,AFNE09.jpg,AFSA11.jpg,AFNE15.jpg,AFSA16.jpg,AFNE15.jpg,FN,3,num_2,32,num_8,1.00012989969,,,2017_Dec_20_1529,59.99949965,MAFE4ImagesEEG,001,202501,
AFSA25.JPG,AFNE24.JPG,AFSA24.JPG,AFNE21.JPG,AFSA21.JPG,AFNE25.JPG,,,,,,,,,,,,,0,3,3,2,,,,,,,,,,,AFNE11.jpg,AFSA14.jpg,AFNE16.jpg,AFSA10.jpg,AFNE16.jpg,FN,3,num_2,16,num_2,0.683780498366,,,2017_Dec_20_1529,59.99949965,MAFE4ImagesEEG,001,202501,
AFNE23.JPG,AFNE24.JPG,AFNE22.JPG,AFSA24.JPG,AFSA22.JPG,AFSA23.JPG,,,,,,,,,,,,,0,4,4,8,,,,,,,,,,,AFNE06.jpg,AFSA14.jpg,AFNE13.jpg,AFSA12.jpg,AFSA14.jpg,FS,4,num_6,32,num_4,0.816773098893,,,2017_Dec_20_1529,59.99949965,MAFE4ImagesEEG,001,202501,
AMSA21.JPG,AMNE22.JPG,AMNE21.JPG,AMSA23.JPG,AMSA22.JPG,AMNE23.JPG,,,,,,,,,,,,,0,5,5,1,,,,,,,,,,,AFNE01.jpg,AFSA08.jpg,AFSA01.jpg,AFNE04.jpg,AFSA08.jpg,FS,4,num_6,32,num_8,3.91655563716,,,2017_Dec_20_1529,59.99949965,MAFE4ImagesEEG,001,202501,
AFSA21.JPG,AFNE23.JPG,AFNE21.JPG,AFSA25.JPG,AFNE25.JPG,AFSA23.JPG,,,,,,,,,,,,,0,6,6,4,,,,,,,,,,,AFNE11.jpg,AFSA10.jpg,AFNE01.jpg,AFSA14.jpg,AFNE01.jpg,FN,3,num_2,32,num_6,0.500211046921,,,2017_Dec_20_1529,59.99949965,MAFE4ImagesEEG,001,202501,
AMNE23.JPG,AMNE24.JPG,AMNE22.JPG,AMSA24.JPG,AMSA22.JPG,AMSA23.JPG,,,,,,,,,,,,,0,7,7,9,,,,,,,,,,,AFNE01.jpg,AFSA01.jpg,AFSA17.jpg,AFNE07.jpg,AFNE01.jpg,FN,3,num_8,32,num_6,0.650140965241,,,2017_Dec_20_1529,59.99949965,MAFE4ImagesEEG,001,202501,
AMSA21.JPG,AMNE23.JPG,AMNE21.JPG,AMSA25.JPG,AMNE25.JPG,AMSA23.JPG,,,,,,,,,,,,,0,8,8,5,,,,,,,,,,,AFSA07.jpg,AFSA09.jpg,AFNE20.jpg,AFNE07.jpg,AFSA09.jpg,FS,4,num_6,32,num_2,1.08344660801,,,2017_Dec_20_1529,59.99949965,MAFE4ImagesEEG,001,202501,
AFNE22.JPG,AFSA24.JPG,AFSA22.JPG,AFNE25.JPG,AFNE24.JPG,AFSA25.JPG,,,,,,,,,,,,,0,9,9,6,,,,,,,,,,,AFSA13.jpg,AFNE19.jpg,AFSA14.jpg,AFNE15.jpg,AFNE19.jpg,FN,3,num_6,16,num_6,0.50012091898,,,2017_Dec_20_1529,59.99949965,MAFE4ImagesEEG,001,202501,
AFSA21.JPG,AFNE23.JPG,AFNE21.JPG,AFSA25.JPG,AFNE25.JPG,AFSA23.JPG,,,,,,,,,,,,,,,,,0,0,0,4,,,,,,,AMSA06.jpg,AMSA10.jpg,AMNE16.jpg,AMNE12.jpg,AMSA10.jpg,MS,2,num_6,32,num_4,1.01688728234,,,2017_Dec_20_1529,59.99949965,MAFE4ImagesEEG,001,202501,
AMSA25.JPG,AMNE24.JPG,AMSA24.JPG,AMNE26.JPG,AMSA21.JPG,AMNE25.JPG,,,,,,,,,,,,,,,,,0,1,1,3,,,,,,,AMNE19.jpg,AMSA20.jpg,AMSA19.jpg,AMNE03.jpg,AMNE19.jpg,MN,1,num_8,32,num_4,0.700195009937,,,2017_Dec_20_1529,59.99949965,MAFE4ImagesEEG,001,202501,
AMNE22.JPG,AMSA24.JPG,AMSA22.JPG,AMNE25.JPG,AMNE24.JPG,AMSA25.JPG,,,,,,,,,,,,,,,,,0,2,2,7,,,,,,,AMSA05.jpg,AMNE15.jpg,AMNE20.jpg,AMSA08.jpg,AMNE20.jpg,MN,1,num_2,32,num_6,0.61675962781,,,2017_Dec_20_1529,59.99949965,MAFE4ImagesEEG,001,202501,
AFNE23.JPG,AFNE24.JPG,AFNE22.JPG,AFSA24.JPG,AFSA22.JPG,AFSA23.JPG,,,,,,,,,,,,,,,,,0,3,3,8,,,,,,,AMNE17.jpg,AMSA09.jpg,AMNE11.jpg,AMSA15.jpg,AMSA09.jpg,MS,2,num_6,32,num_2,1.08348124793,,,2017_Dec_20_1529,59.99949965,MAFE4ImagesEEG,001,202501,
AFSA25.JPG,AFNE24.JPG,AFSA24.JPG,AFNE21.JPG,AFSA21.JPG,AFNE25.JPG,,,,,,,,,,,,,,,,,0,4,4,2,,,,,,,AMNE02.jpg,AMSA20.jpg,AMSA05.jpg,AMNE19.jpg,AMSA05.jpg,MS,2,num_2,32,num_8,1.16673092158,,,2017_Dec_20_1529,59.99949965,MAFE4ImagesEEG,001,202501,
AMSA21.JPG,AMNE23.JPG,AMNE21.JPG,AMSA25.JPG,AMNE25.JPG,AMSA23.JPG,,,,,,,,,,,,,,,,,0,5,5,5,,,,,,,AMSA05.jpg,AMNE12.jpg,AMSA01.jpg,AMNE07.jpg,AMSA01.jpg,MS,2,num_2,32,num_4,0.600147540405,,,2017_Dec_20_1529,59.99949965,MAFE4ImagesEEG,001,202501,
AMNE23.JPG,AMNE24.JPG,AMNE22.JPG,AMSA24.JPG,AMSA22.JPG,AMSA23.JPG,,,,,,,,,,,,,,,,,0,6,6,9,,,,,,,AMNE15.jpg,AMSA16.jpg,AMNE18.jpg,AMSA10.jpg,AMSA10.jpg,MS,2,num_4,32,num_2,0.616753854498,,,2017_Dec_20_1529,59.99949965,MAFE4ImagesEEG,001,202501,
AMSA21.JPG,AMNE22.JPG,AMNE21.JPG,AMSA23.JPG,AMSA22.JPG,AMNE23.JPG,,,,,,,,,,,,,,,,,0,7,7,1,,,,,,,AMNE18.jpg,AMSA10.jpg,AMNE15.jpg,AMSA04.jpg,AMNE15.jpg,MN,1,num_2,32,num_6,0.750079062404,,,2017_Dec_20_1529,59.99949965,MAFE4ImagesEEG,001,202501,
AFNE22.JPG,AFSA24.JPG,AFSA22.JPG,AFNE25.JPG,AFNE24.JPG,AFSA25.JPG,,,,,,,,,,,,,,,,,0,8,8,6,,,,,,,AMSA08.jpg,AMNE10.jpg,AMSA20.jpg,AMNE06.jpg,AMSA20.jpg,MS,2,num_2,16,num_2,1.5000336777,,,2017_Dec_20_1529,59.99949965,MAFE4ImagesEEG,001,202501,
AFSA21.JPG,AFNE22.JPG,AFNE21.JPG,AFSA23.JPG,AFSA22.JPG,AFNE23.JPG,,,,,,,,,,,,,,,,,0,9,9,0,,,,,,,AMSA06.jpg,AMNE12.jpg,AMNE11.jpg,AMSA18.jpg,AMSA18.jpg,MS,2,num_4,16,num_4,0.483521019691,,,2017_Dec_20_1529,59.99949965,MAFE4ImagesEEG,001,202501,
AMSA21.JPG,AMNE22.JPG,AMNE21.JPG,AMSA23.JPG,AMSA22.JPG,AMNE23.JPG,,,,,,,,,,,,,,,,,,,,,0,0,0,1,,,AFSA06.jpg,AFSA16.jpg,AFNE08.jpg,AFNE01.jpg,AFSA16.jpg,FS,4,num_6,16,num_6,0.733439391362,,,2017_Dec_20_1529,59.99949965,MAFE4ImagesEEG,001,202501,
AFSA21.JPG,AFNE22.JPG,AFNE21.JPG,AFSA23.JPG,AFSA22.JPG,AFNE23.JPG,,,,,,,,,,,,,,,,,,,,,0,1,1,0,,,AFNE02.jpg,AFSA11.jpg,AFSA08.jpg,AFNE17.jpg,AFNE17.jpg,FN,3,num_4,32,num_2,1.11680260696,,,2017_Dec_20_1529,59.99949965,MAFE4ImagesEEG,001,202501,
AMSA21.JPG,AMNE23.JPG,AMNE21.JPG,AMSA25.JPG,AMNE25.JPG,AMSA23.JPG,,,,,,,,,,,,,,,,,,,,,0,2,2,5,,,AFSA15.jpg,AFNE03.jpg,AFNE17.jpg,AFSA17.jpg,AFNE17.jpg,FN,3,num_2,32,num_4,0.866796673276,,,2017_Dec_20_1529,59.99949965,MAFE4ImagesEEG,001,202501,
AMSA25.JPG,AMNE24.JPG,AMSA24.JPG,AMNE26.JPG,AMSA21.JPG,AMNE25.JPG,,,,,,,,,,,,,,,,,,,,,0,3,3,3,,,AFSA12.jpg,AFSA16.jpg,AFNE16.jpg,AFNE13.jpg,AFSA12.jpg,FS,4,num_8,32,num_2,1.45005212024,,,2017_Dec_20_1529,59.99949965,MAFE4ImagesEEG,001,202501,
AFSA25.JPG,AFNE24.JPG,AFSA24.JPG,AFNE21.JPG,AFSA21.JPG,AFNE25.JPG,,,,,,,,,,,,,,,,,,,,,0,4,4,2,,,AFSA10.jpg,AFNE11.jpg,AFSA03.jpg,AFNE16.jpg,AFNE11.jpg,FN,3,num_6,16,num_6,0.683476757578,,,2017_Dec_20_1529,59.99949965,MAFE4ImagesEEG,001,202501,
AFSA21.JPG,AFNE23.JPG,AFNE21.JPG,AFSA25.JPG,AFNE25.JPG,AFSA23.JPG,,,,,,,,,,,,,,,,,,,,,0,5,5,4,,,AFSA11.jpg,AFSA07.jpg,AFNE14.jpg,AFNE10.jpg,AFNE14.jpg,FN,3,num_2,32,num_4,0.800118673811,,,2017_Dec_20_1529,59.99949965,MAFE4ImagesEEG,001,202501,
AMNE22.JPG,AMSA24.JPG,AMSA22.JPG,AMNE25.JPG,AMNE24.JPG,AMSA25.JPG,,,,,,,,,,,,,,,,,,,,,0,6,6,7,,,AFSA17.jpg,AFNE03.jpg,AFNE12.jpg,AFSA10.jpg,AFSA10.jpg,FS,4,num_4,32,num_2,0.950154115577,,,2017_Dec_20_1529,59.99949965,MAFE4ImagesEEG,001,202501,
AFNE22.JPG,AFSA24.JPG,AFSA22.JPG,AFNE25.JPG,AFNE24.JPG,AFSA25.JPG,,,,,,,,,,,,,,,,,,,,,0,7,7,6,,,AFNE16.jpg,AFSA02.jpg,AFSA13.jpg,AFNE13.jpg,AFNE13.jpg,FN,3,num_4,32,num_8,0.600134390072,,,2017_Dec_20_1529,59.99949965,MAFE4ImagesEEG,001,202501,
AFNE23.JPG,AFNE24.JPG,AFNE22.JPG,AFSA24.JPG,AFSA22.JPG,AFSA23.JPG,,,,,,,,,,,,,,,,,,,,,0,8,8,8,,,AFSA14.jpg,AFSA11.jpg,AFNE17.jpg,AFNE16.jpg,AFNE16.jpg,FN,3,num_4,32,num_2,0.966757543007,,,2017_Dec_20_1529,59.99949965,MAFE4ImagesEEG,001,202501,
AMNE23.JPG,AMNE24.JPG,AMNE22.JPG,AMSA24.JPG,AMSA22.JPG,AMSA23.JPG,,,,,,,,,,,,,,,,,,,,,0,9,9,9,,,AFSA18.jpg,AFNE11.jpg,AFNE02.jpg,AFSA10.jpg,AFSA10.jpg,FS,4,num_4,32,num_2,1.58335391415,,,2017_Dec_20_1529,59.99949965,MAFE4ImagesEEG,001,202501,
,,,,,,,,,,,,,,,,,,,,,,,,,,,,,,,,,,,,,,,,,,,space,8.29929725864,2017_Dec_20_1529,59.99949965,MAFE4ImagesEEG,001,202501,
AFNE01.JPG,AFNE01.JPG,AFNE01.JPG,AFNE01.JPG,AFNE01.JPG,AFNE01.JPG,0,0,0,8,,,,,,,,,,,,,,,,,,,,,,,AMSA17.jpg,AMSA16.jpg,AMNE02.jpg,AMNE01.jpg,AMNE02.jpg,MN,1,num_2,16,num_2,1.00016101149,,,2017_Dec_20_1529,59.99949965,MAFE4ImagesEEG,001,202501,
AFNE01.JPG,AFNE01.JPG,AFNE01.JPG,AFNE01.JPG,AFNE01.JPG,AFNE01.JPG,0,1,1,5,,,,,,,,,,,,,,,,,,,,,,,AMSA02.jpg,AMNE11.jpg,AMNE17.jpg,AMSA09.jpg,AMSA09.jpg,MS,2,num_4,16,num_4,1.31682185137,,,2017_Dec_20_1529,59.99949965,MAFE4ImagesEEG,001,202501,
AFNE01.JPG,AFNE01.JPG,AFNE01.JPG,AFNE01.JPG,AFNE01.JPG,AFNE01.JPG,0,2,2,3,,,,,,,,,,,,,,,,,,,,,,,AMSA11.jpg,AMNE14.jpg,AMNE19.jpg,AMSA20.jpg,AMSA20.jpg,MS,2,num_4,16,num_4,0.566766844466,,,2017_Dec_20_1529,59.99949965,MAFE4ImagesEEG,001,202501,
AFNE01.JPG,AFNE01.JPG,AFNE01.JPG,AFNE01.JPG,AFNE01.JPG,AFNE01.JPG,0,3,3,4,,,,,,,,,,,,,,,,,,,,,,,AMSA20.jpg,AMNE12.jpg,AMNE06.jpg,AMSA15.jpg,AMNE12.jpg,MN,1,num_6,32,num_2,0.950087401652,,,2017_Dec_20_1529,59.99949965,MAFE4ImagesEEG,001,202501,
AFNE01.JPG,AFNE01.JPG,AFNE01.JPG,AFNE01.JPG,AFNE01.JPG,AFNE01.JPG,0,4,4,2,,,,,,,,,,,,,,,,,,,,,,,AMNE03.jpg,AMNE02.jpg,AMSA07.jpg,AMSA04.jpg,AMSA07.jpg,MS,2,num_2,16,num_2,1.14995076641,,,2017_Dec_20_1529,59.99949965,MAFE4ImagesEEG,001,202501,
AFNE01.JPG,AFNE01.JPG,AFNE01.JPG,AFNE01.JPG,AFNE01.JPG,AFNE01.JPG,0,5,5,0,,,,,,,,,,,,,,,,,,,,,,,AMNE14.jpg,AMSA05.jpg,AMNE01.jpg,AMSA19.jpg,AMNE01.jpg,MN,1,num_2,32,num_8,0.866753694121,,,2017_Dec_20_1529,59.99949965,MAFE4ImagesEEG,001,202501,
AFNE01.JPG,AFNE01.JPG,AFNE01.JPG,AFNE01.JPG,AFNE01.JPG,AFNE01.JPG,0,6,6,1,,,,,,,,,,,,,,,,,,,,,,,AMNE09.jpg,AMSA02.jpg,AMNE15.jpg,AMSA09.jpg,AMNE15.jpg,MN,1,num_2,32,num_8,1.56668313131,,,2017_Dec_20_1529,59.99949965,MAFE4ImagesEEG,001,202501,
AFNE01.JPG,AFNE01.JPG,AFNE01.JPG,AFNE01.JPG,AFNE01.JPG,AFNE01.JPG,0,7,7,9,,,,,,,,,,,,,,,,,,,,,,,AMSA08.jpg,AMSA07.jpg,AMNE01.jpg,AMNE11.jpg,AMNE11.jpg,MN,1,num_4,32,num_2,0.600098146446,,,2017_Dec_20_1529,59.99949965,MAFE4ImagesEEG,001,202501,
AFNE01.JPG,AFNE01.JPG,AFNE01.JPG,AFNE01.JPG,AFNE01.JPG,AFNE01.JPG,0,8,8,7,,,,,,,,,,,,,,,,,,,,,,,AMNE12.jpg,AMSA13.jpg,AMSA03.jpg,AMNE15.jpg,AMSA13.jpg,MS,2,num_6,32,num_4,0.816792664045,,,2017_Dec_20_1529,59.99949965,MAFE4ImagesEEG,001,202501,
AFNE01.JPG,AFNE01.JPG,AFNE01.JPG,AFNE01.JPG,AFNE01.JPG,AFNE01.JPG,0,9,9,6,,,,,,,,,,,,,,,,,,,,,,,AMSA19.jpg,AMNE18.jpg,AMSA05.jpg,AMNE01.jpg,AMNE01.jpg,MN,1,num_4,16,num_4,0.533503539365,,,2017_Dec_20_1529,59.99949965,MAFE4ImagesEEG,001,202501,
AFNE01.JPG,AFNE01.JPG,AFNE01.JPG,AFNE01.JPG,AFNE01.JPG,AFNE01.JPG,1,0,10,0,,,,,,,,,,,,,,,,,,,,,,,AMNE15.jpg,AMSA04.jpg,AMNE05.jpg,AMSA07.jpg,AMNE15.jpg,MN,1,num_8,32,num_4,0.966815917694,,,2017_Dec_20_1529,59.99949965,MAFE4ImagesEEG,001,202501,
AFNE01.JPG,AFNE01.JPG,AFNE01.JPG,AFNE01.JPG,AFNE01.JPG,AFNE01.JPG,1,1,11,4,,,,,,,,,,,,,,,,,,,,,,,AMNE14.jpg,AMNE20.jpg,AMSA20.jpg,AMSA03.jpg,AMNE14.jpg,MN,1,num_8,16,num_8,0.933421429931,,,2017_Dec_20_1529,59.99949965,MAFE4ImagesEEG,001,202501,
AFNE01.JPG,AFNE01.JPG,AFNE01.JPG,AFNE01.JPG,AFNE01.JPG,AFNE01.JPG,1,2,12,3,,,,,,,,,,,,,,,,,,,,,,,AMNE09.jpg,AMSA19.jpg,AMSA04.jpg,AMNE02.jpg,AMNE09.jpg,MN,1,num_8,32,num_2,0.866761391881,,,2017_Dec_20_1529,59.99949965,MAFE4ImagesEEG,001,202501,
AFNE01.JPG,AFNE01.JPG,AFNE01.JPG,AFNE01.JPG,AFNE01.JPG,AFNE01.JPG,1,3,13,2,,,,,,,,,,,,,,,,,,,,,,,AMSA11.jpg,AMNE02.jpg,AMNE07.jpg,AMSA10.jpg,AMSA10.jpg,MS,2,num_4,32,num_8,0.716636142912,,,2017_Dec_20_1529,59.99949965,MAFE4ImagesEEG,001,202501,
AFNE01.JPG,AFNE01.JPG,AFNE01.JPG,AFNE01.JPG,AFNE01.JPG,AFNE01.JPG,1,4,14,8,,,,,,,,,,,,,,,,,,,,,,,AMSA08.jpg,AMNE17.jpg,AMSA06.jpg,AMNE01.jpg,AMNE01.jpg,MN,1,num_4,16,num_4,1.0167971544,,,2017_Dec_20_1529,59.99949965,MAFE4ImagesEEG,001,202501,
AFNE01.JPG,AFNE01.JPG,AFNE01.JPG,AFNE01.JPG,AFNE01.JPG,AFNE01.JPG,1,5,15,1,,,,,,,,,,,,,,,,,,,,,,,AMSA01.jpg,AMNE09.jpg,AMNE08.jpg,AMSA04.jpg,AMSA01.jpg,MS,2,num_8,16,num_8,0.81672113901,,,2017_Dec_20_1529,59.99949965,MAFE4ImagesEEG,001,202501,
AFNE01.JPG,AFNE01.JPG,AFNE01.JPG,AFNE01.JPG,AFNE01.JPG,AFNE01.JPG,1,6,16,7,,,,,,,,,,,,,,,,,,,,,,,AMSA18.jpg,AMNE08.jpg,AMNE18.jpg,AMSA20.jpg,AMSA18.jpg,MS,2,num_8,16,num_8,0.816727874553,,,2017_Dec_20_1529,59.99949965,MAFE4ImagesEEG,001,202501,
AFNE01.JPG,AFNE01.JPG,AFNE01.JPG,AFNE01.JPG,AFNE01.JPG,AFNE01.JPG,1,7,17,6,,,,,,,,,,,,,,,,,,,,,,,AMSA05.jpg,AMSA06.jpg,AMNE09.jpg,AMNE14.jpg,AMSA05.jpg,MS,2,num_8,32,num_6,1.68338342223,,,2017_Dec_20_1529,59.99949965,MAFE4ImagesEEG,001,202501,
AFNE01.JPG,AFNE01.JPG,AFNE01.JPG,AFNE01.JPG,AFNE01.JPG,AFNE01.JPG,1,8,18,5,,,,,,,,,,,,,,,,,,,,,,,AMNE11.jpg,AMNE14.jpg,AMSA18.jpg,AMSA12.jpg,AMNE11.jpg,MN,1,num_8,32,num_4,0.73348910606,,,2017_Dec_20_1529,59.99949965,MAFE4ImagesEEG,001,202501,
AFNE01.JPG,AFNE01.JPG,AFNE01.JPG,AFNE01.JPG,AFNE01.JPG,AFNE01.JPG,1,9,19,9,,,,,,,,,,,,,,,,,,,,,,,AMSA19.jpg,AMNE02.jpg,AMNE07.jpg,AMSA13.jpg,AMSA19.jpg,MS,2,num_8,32,num_4,1.18349503975,,,2017_Dec_20_1529,59.99949965,MAFE4ImagesEEG,001,202501,
AFNE01.JPG,AFNE01.JPG,AFNE01.JPG,AFNE01.JPG,AFNE01.JPG,AFNE01.JPG,2,0,20,5,,,,,,,,,,,,,,,,,,,,,,,AMNE06.jpg,AMSA18.jpg,AMNE20.jpg,AMSA03.jpg,AMNE20.jpg,MN,1,num_2,16,num_2,1.66669371574,,,2017_Dec_20_1529,59.99949965,MAFE4ImagesEEG,001,202501,
AFNE01.JPG,AFNE01.JPG,AFNE01.JPG,AFNE01.JPG,AFNE01.JPG,AFNE01.JPG,2,1,21,2,,,,,,,,,,,,,,,,,,,,,,,AMSA05.jpg,AMNE09.jpg,AMNE17.jpg,AMSA18.jpg,AMNE09.jpg,MN,1,num_6,16,num_6,0.800114824917,,,2017_Dec_20_1529,59.99949965,MAFE4ImagesEEG,001,202501,
AFNE01.JPG,AFNE01.JPG,AFNE01.JPG,AFNE01.JPG,AFNE01.JPG,AFNE01.JPG,2,2,22,6,,,,,,,,,,,,,,,,,,,,,,,AMNE14.jpg,AMSA06.jpg,AMSA16.jpg,AMNE08.jpg,AMNE08.jpg,MN,1,num_4,32,num_8,0.533483332751,,,2017_Dec_20_1529,59.99949965,MAFE4ImagesEEG,001,202501,
AFNE01.JPG,AFNE01.JPG,AFNE01.JPG,AFNE01.JPG,AFNE01.JPG,AFNE01.JPG,2,3,23,0,,,,,,,,,,,,,,,,,,,,,,,AMSA18.jpg,AMNE14.jpg,AMNE06.jpg,AMSA15.jpg,AMSA15.jpg,MS,2,num_4,16,num_4,0.633700473729,,,2017_Dec_20_1529,59.99949965,MAFE4ImagesEEG,001,202501,
AFNE01.JPG,AFNE01.JPG,AFNE01.JPG,AFNE01.JPG,AFNE01.JPG,AFNE01.JPG,2,4,24,1,,,,,,,,,,,,,,,,,,,,,,,AMNE04.jpg,AMSA16.jpg,AMNE01.jpg,AMSA14.jpg,AMSA16.jpg,MS,2,num_6,32,num_2,1.05015539854,,,2017_Dec_20_1529,59.99949965,MAFE4ImagesEEG,001,202501,
AFNE01.JPG,AFNE01.JPG,AFNE01.JPG,AFNE01.JPG,AFNE01.JPG,AFNE01.JPG,2,5,25,9,,,,,,,,,,,,,,,,,,,,,,,AMSA15.jpg,AMSA20.jpg,AMNE12.jpg,AMNE06.jpg,AMSA15.jpg,MS,2,num_8,16,num_8,0.950087722391,,,2017_Dec_20_1529,59.99949965,MAFE4ImagesEEG,001,202501,
AFNE01.JPG,AFNE01.JPG,AFNE01.JPG,AFNE01.JPG,AFNE01.JPG,AFNE01.JPG,2,6,26,3,,,,,,,,,,,,,,,,,,,,,,,AMSA09.jpg,AMNE14.jpg,AMSA05.jpg,AMNE15.jpg,AMSA09.jpg,MS,2,num_8,16,num_8,1.21678849441,,,2017_Dec_20_1529,59.99949965,MAFE4ImagesEEG,001,202501,
AFNE01.JPG,AFNE01.JPG,AFNE01.JPG,AFNE01.JPG,AFNE01.JPG,AFNE01.JPG,2,7,27,4,,,,,,,,,,,,,,,,,,,,,,,AMNE11.jpg,AMNE05.jpg,AMSA05.jpg,AMSA02.jpg,AMSA05.jpg,MS,2,num_2,16,num_2,1.68335231046,,,2017_Dec_20_1529,59.99949965,MAFE4ImagesEEG,001,202501,
AFNE01.JPG,AFNE01.JPG,AFNE01.JPG,AFNE01.JPG,AFNE01.JPG,AFNE01.JPG,2,8,28,7,,,,,,,,,,,,,,,,,,,,,,,AMNE05.jpg,AMSA16.jpg,AMSA10.jpg,AMNE13.jpg,AMSA16.jpg,MS,2,num_6,16,num_6,0.650168869615,,,2017_Dec_20_1529,59.99949965,MAFE4ImagesEEG,001,202501,
AFNE01.JPG,AFNE01.JPG,AFNE01.JPG,AFNE01.JPG,AFNE01.JPG,AFNE01.JPG,2,9,29,8,,,,,,,,,,,,,,,,,,,,,,,AMSA10.jpg,AMSA19.jpg,AMNE02.jpg,AMNE06.jpg,AMSA10.jpg,MS,2,num_8,32,num_4,0.800102957539,,,2017_Dec_20_1529,59.99949965,MAFE4ImagesEEG,001,202501,
AFNE01.JPG,AFNE01.JPG,AFNE01.JPG,AFNE01.JPG,AFNE01.JPG,AFNE01.JPG,3,0,30,5,,,,,,,,,,,,,,,,,,,,,,,AMNE18.jpg,AMSA02.jpg,AMNE05.jpg,AMSA03.jpg,AMSA03.jpg,MS,2,num_4,32,num_6,0.85011658899,,,2017_Dec_20_1529,59.99949965,MAFE4ImagesEEG,001,202501,
AFNE01.JPG,AFNE01.JPG,AFNE01.JPG,AFNE01.JPG,AFNE01.JPG,AFNE01.JPG,3,1,31,2,,,,,,,,,,,,,,,,,,,,,,,AMNE05.jpg,AMSA14.jpg,AMSA07.jpg,AMNE06.jpg,AMSA07.jpg,MS,2,num_2,16,num_2,0.783488304223,,,2017_Dec_20_1529,59.99949965,MAFE4ImagesEEG,001,202501,
AFNE01.JPG,AFNE01.JPG,AFNE01.JPG,AFNE01.JPG,AFNE01.JPG,AFNE01.JPG,3,2,32,1,,,,,,,,,,,,,,,,,,,,,,,AMNE01.jpg,AMNE09.jpg,AMSA07.jpg,AMSA15.jpg,AMNE01.jpg,MN,1,num_8,16,num_8,0.983561753674,,,2017_Dec_20_1529,59.99949965,MAFE4ImagesEEG,001,202501,
AFNE01.JPG,AFNE01.JPG,AFNE01.JPG,AFNE01.JPG,AFNE01.JPG,AFNE01.JPG,3,3,33,6,,,,,,,,,,,,,,,,,,,,,,,AMSA05.jpg,AMNE02.jpg,AMSA09.jpg,AMNE14.jpg,AMNE02.jpg,MN,1,num_6,32,num_4,1.06682938876,,,2017_Dec_20_1529,59.99949965,MAFE4ImagesEEG,001,202501,
AFNE01.JPG,AFNE01.JPG,AFNE01.JPG,AFNE01.JPG,AFNE01.JPG,AFNE01.JPG,3,4,34,4,,,,,,,,,,,,,,,,,,,,,,,AMSA02.jpg,AMSA09.jpg,AMNE13.jpg,AMNE18.jpg,AMSA09.jpg,MS,2,num_6,16,num_6,0.966801484377,,,2017_Dec_20_1529,59.99949965,MAFE4ImagesEEG,001,202501,
AFNE01.JPG,AFNE01.JPG,AFNE01.JPG,AFNE01.JPG,AFNE01.JPG,AFNE01.JPG,3,5,35,8,,,,,,,,,,,,,,,,,,,,,,,AMNE15.jpg,AMSA10.jpg,AMSA04.jpg,AMNE07.jpg,AMNE15.jpg,MN,1,num_8,16,num_8,0.900148502624,,,2017_Dec_20_1529,59.99949965,MAFE4ImagesEEG,001,202501,
AFNE01.JPG,AFNE01.JPG,AFNE01.JPG,AFNE01.JPG,AFNE01.JPG,AFNE01.JPG,3,6,36,0,,,,,,,,,,,,,,,,,,,,,,,AMNE08.jpg,AMSA18.jpg,AMSA05.jpg,AMNE16.jpg,AMSA05.jpg,MS,2,num_2,16,num_2,1.01680324845,,,2017_Dec_20_1529,59.99949965,MAFE4ImagesEEG,001,202501,
AFNE01.JPG,AFNE01.JPG,AFNE01.JPG,AFNE01.JPG,AFNE01.JPG,AFNE01.JPG,3,7,37,7,,,,,,,,,,,,,,,,,,,,,,,AMNE18.jpg,AMSA09.jpg,AMSA15.jpg,AMNE06.jpg,AMSA09.jpg,MS,2,num_6,32,num_4,0.766742788968,,,2017_Dec_20_1529,59.99949965,MAFE4ImagesEEG,001,202501,
AFNE01.JPG,AFNE01.JPG,AFNE01.JPG,AFNE01.JPG,AFNE01.JPG,AFNE01.JPG,3,8,38,9,,,,,,,,,,,,,,,,,,,,,,,AMNE18.jpg,AMSA10.jpg,AMSA03.jpg,AMNE13.jpg,AMNE13.jpg,MN,1,num_4,32,num_8,1.1667366949,,,2017_Dec_20_1529,59.99949965,MAFE4ImagesEEG,001,202501,
AFNE01.JPG,AFNE01.JPG,AFNE01.JPG,AFNE01.JPG,AFNE01.JPG,AFNE01.JPG,3,9,39,3,,,,,,,,,,,,,,,,,,,,,,,AMNE14.jpg,AMSA20.jpg,AMNE02.jpg,AMSA04.jpg,AMSA04.jpg,MS,2,num_4,16,num_4,0.45012941859,,,2017_Dec_20_1529,59.99949965,MAFE4ImagesEEG,001,202501,
AFNE01.JPG,AFNE01.JPG,AFNE01.JPG,AFNE01.JPG,AFNE01.JPG,AFNE01.JPG,4,0,40,2,,,,,,,,,,,,,,,,,,,,,,,AMSA05.jpg,AMSA01.jpg,AMNE15.jpg,AMNE11.jpg,AMSA01.jpg,MS,2,num_6,16,num_6,0.650141285965,,,2017_Dec_20_1529,59.99949965,MAFE4ImagesEEG,001,202501,
AFNE01.JPG,AFNE01.JPG,AFNE01.JPG,AFNE01.JPG,AFNE01.JPG,AFNE01.JPG,4,1,41,6,,,,,,,,,,,,,,,,,,,,,,,AMNE18.jpg,AMSA09.jpg,AMSA15.jpg,AMNE12.jpg,AMNE12.jpg,MN,1,num_4,32,num_6,0.750118513432,,,2017_Dec_20_1529,59.99949965,MAFE4ImagesEEG,001,202501,
AFNE01.JPG,AFNE01.JPG,AFNE01.JPG,AFNE01.JPG,AFNE01.JPG,AFNE01.JPG,4,2,42,4,,,,,,,,,,,,,,,,,,,,,,,AMSA17.jpg,AMNE05.jpg,AMSA16.jpg,AMNE19.jpg,AMNE05.jpg,MN,1,num_6,32,num_4,0.600128937484,,,2017_Dec_20_1529,59.99949965,MAFE4ImagesEEG,001,202501,
AFNE01.JPG,AFNE01.JPG,AFNE01.JPG,AFNE01.JPG,AFNE01.JPG,AFNE01.JPG,4,3,43,1,,,,,,,,,,,,,,,,,,,,,,,AMNE17.jpg,AMSA09.jpg,AMSA07.jpg,AMNE15.jpg,AMNE17.jpg,MN,1,num_8,16,num_8,1.66672450678,,,2017_Dec_20_1529,59.99949965,MAFE4ImagesEEG,001,202501,
AFNE01.JPG,AFNE01.JPG,AFNE01.JPG,AFNE01.JPG,AFNE01.JPG,AFNE01.JPG,4,4,44,9,,,,,,,,,,,,,,,,,,,,,,,AMNE06.jpg,AMSA18.jpg,AMNE13.jpg,AMSA05.jpg,AMNE06.jpg,MN,1,num_8,32,num_4,1.36675850522,,,2017_Dec_20_1529,59.99949965,MAFE4ImagesEEG,001,202501,
AFNE01.JPG,AFNE01.JPG,AFNE01.JPG,AFNE01.JPG,AFNE01.JPG,AFNE01.JPG,4,5,45,5,,,,,,,,,,,,,,,,,,,,,,,AMNE13.jpg,AMNE10.jpg,AMSA15.jpg,AMSA18.jpg,AMNE13.jpg,MN,1,num_8,16,num_8,0.566862424996,,,2017_Dec_20_1529,59.99949965,MAFE4ImagesEEG,001,202501,
AFNE01.JPG,AFNE01.JPG,AFNE01.JPG,AFNE01.JPG,AFNE01.JPG,AFNE01.JPG,4,6,46,8,,,,,,,,,,,,,,,,,,,,,,,AMNE03.jpg,AMSA19.jpg,AMSA10.jpg,AMNE15.jpg,AMNE15.jpg,MN,1,num_4,32,num_2,1.21674711895,,,2017_Dec_20_1529,59.99949965,MAFE4ImagesEEG,001,202501,
AFNE01.JPG,AFNE01.JPG,AFNE01.JPG,AFNE01.JPG,AFNE01.JPG,AFNE01.JPG,4,7,47,3,,,,,,,,,,,,,,,,,,,,,,,AMSA19.jpg,AMNE08.jpg,AMSA18.jpg,AMNE06.jpg,AMNE06.jpg,MN,1,num_4,16,num_4,0.966626360343,,,2017_Dec_20_1529,59.99949965,MAFE4ImagesEEG,001,202501,
AFNE01.JPG,AFNE01.JPG,AFNE01.JPG,AFNE01.JPG,AFNE01.JPG,AFNE01.JPG,4,8,48,7,,,,,,,,,,,,,,,,,,,,,,,AMSA20.jpg,AMNE09.jpg,AMNE08.jpg,AMSA10.jpg,AMNE08.jpg,MN,1,num_2,16,num_2,2.05002164995,,,2017_Dec_20_1529,59.99949965,MAFE4ImagesEEG,001,202501,
AFNE01.JPG,AFNE01.JPG,AFNE01.JPG,AFNE01.JPG,AFNE01.JPG,AFNE01.JPG,4,9,49,0,,,,,,,,,,,,,,,,,,,,,,,AMSA04.jpg,AMNE04.jpg,AMNE08.jpg,AMSA08.jpg,AMSA04.jpg,MS,2,num_8,32,num_6,0.750239432426,,,2017_Dec_20_1529,59.99949965,MAFE4ImagesEEG,001,202501,
AFNE01.JPG,AFNE01.JPG,AFNE01.JPG,AFNE01.JPG,AFNE01.JPG,AFNE01.JPG,5,0,50,9,,,,,,,,,,,,,,,,,,,,,,,AMNE15.jpg,AMSA20.jpg,AMNE16.jpg,AMSA02.jpg,AMNE15.jpg,MN,1,num_8,32,num_2,1.18345911687,,,2017_Dec_20_1529,59.99949965,MAFE4ImagesEEG,001,202501,
AFNE01.JPG,AFNE01.JPG,AFNE01.JPG,AFNE01.JPG,AFNE01.JPG,AFNE01.JPG,5,1,51,4,,,,,,,,,,,,,,,,,,,,,,,AMSA01.jpg,AMNE02.jpg,AMSA13.jpg,AMNE04.jpg,AMNE04.jpg,MN,1,num_4,32,num_8,1.36672899715,,,2017_Dec_20_1529,59.99949965,MAFE4ImagesEEG,001,202501,
AFNE01.JPG,AFNE01.JPG,AFNE01.JPG,AFNE01.JPG,AFNE01.JPG,AFNE01.JPG,5,2,52,8,,,,,,,,,,,,,,,,,,,,,,,AMSA01.jpg,AMNE04.jpg,AMSA04.jpg,AMNE08.jpg,AMSA04.jpg,MS,2,num_2,32,num_6,0.850492175538,,,2017_Dec_20_1529,59.99949965,MAFE4ImagesEEG,001,202501,
AFNE01.JPG,AFNE01.JPG,AFNE01.JPG,AFNE01.JPG,AFNE01.JPG,AFNE01.JPG,5,3,53,1,,,,,,,,,,,,,,,,,,,,,,,AMNE09.jpg,AMSA12.jpg,AMSA15.jpg,AMNE04.jpg,AMNE04.jpg,MN,1,num_4,16,num_4,0.883161470148,,,2017_Dec_20_1529,59.99949965,MAFE4ImagesEEG,001,202501,
AFNE01.JPG,AFNE01.JPG,AFNE01.JPG,AFNE01.JPG,AFNE01.JPG,AFNE01.JPG,5,4,54,7,,,,,,,,,,,,,,,,,,,,,,,AMSA16.jpg,AMNE03.jpg,AMNE10.jpg,AMSA10.jpg,AMNE10.jpg,MN,1,num_2,16,num_2,1.13344356098,,,2017_Dec_20_1529,59.99949965,MAFE4ImagesEEG,001,202501,
AFNE01.JPG,AFNE01.JPG,AFNE01.JPG,AFNE01.JPG,AFNE01.JPG,AFNE01.JPG,5,5,55,6,,,,,,,,,,,,,,,,,,,,,,,AMSA06.jpg,AMNE09.jpg,AMSA16.jpg,AMNE13.jpg,AMSA06.jpg,MS,2,num_8,32,num_6,0.566819766565,,,2017_Dec_20_1529,59.99949965,MAFE4ImagesEEG,001,202501,
AFNE01.JPG,AFNE01.JPG,AFNE01.JPG,AFNE01.JPG,AFNE01.JPG,AFNE01.JPG,5,6,56,3,,,,,,,,,,,,,,,,,,,,,,,AMSA14.jpg,AMNE19.jpg,AMNE15.jpg,AMSA03.jpg,AMSA14.jpg,MS,2,num_8,16,num_8,0.500020527368,,,2017_Dec_20_1529,59.99949965,MAFE4ImagesEEG,001,202501,
AFNE01.JPG,AFNE01.JPG,AFNE01.JPG,AFNE01.JPG,AFNE01.JPG,AFNE01.JPG,5,7,57,2,,,,,,,,,,,,,,,,,,,,,,,AMSA11.jpg,AMSA15.jpg,AMNE04.jpg,AMNE10.jpg,AMSA15.jpg,MS,2,num_6,16,num_6,1.01671600717,,,2017_Dec_20_1529,59.99949965,MAFE4ImagesEEG,001,202501,
AFNE01.JPG,AFNE01.JPG,AFNE01.JPG,AFNE01.JPG,AFNE01.JPG,AFNE01.JPG,5,8,58,5,,,,,,,,,,,,,,,,,,,,,,,AMNE01.jpg,AMNE14.jpg,AMSA13.jpg,AMSA09.jpg,AMSA09.jpg,MS,2,num_4,16,num_4,0.683459437627,,,2017_Dec_20_1529,59.99949965,MAFE4ImagesEEG,001,202501,
AFNE01.JPG,AFNE01.JPG,AFNE01.JPG,AFNE01.JPG,AFNE01.JPG,AFNE01.JPG,5,9,59,0,,,,,,,,,,,,,,,,,,,,,,,AMNE16.jpg,AMNE12.jpg,AMSA06.jpg,AMSA12.jpg,AMNE12.jpg,MN,1,num_6,16,num_6,1.55005083729,,,2017_Dec_20_1529,59.99949965,MAFE4ImagesEEG,001,202501,
,,,,,,,,,,,,,,,,,,,,,,,,,,,,,,,,,,,,,,,,,,,space,38.7471946475,2017_Dec_20_1529,59.99949965,MAFE4ImagesEEG,001,202501,
AFNE01.JPG,AFNE01.JPG,AFNE01.JPG,AFNE01.JPG,AFNE01.JPG,AFNE01.JPG,,,,,0,0,0,8,,,,,,,,,,,,,,,,,,,AFSA14.jpg,AFSA15.jpg,AFNE06.jpg,AFNE18.jpg,AFSA14.jpg,FS,4,num_8,32,num_6,0.683487342001,,,2017_Dec_20_1529,59.99949965,MAFE4ImagesEEG,001,202501,
AFNE01.JPG,AFNE01.JPG,AFNE01.JPG,AFNE01.JPG,AFNE01.JPG,AFNE01.JPG,,,,,0,1,1,3,,,,,,,,,,,,,,,,,,,AFSA07.jpg,AFSA09.jpg,AFNE13.jpg,AFNE20.jpg,AFNE20.jpg,FN,3,num_4,16,num_4,0.700131503399,,,2017_Dec_20_1529,59.99949965,MAFE4ImagesEEG,001,202501,
AFNE01.JPG,AFNE01.JPG,AFNE01.JPG,AFNE01.JPG,AFNE01.JPG,AFNE01.JPG,,,,,0,2,2,1,,,,,,,,,,,,,,,,,,,AFNE14.jpg,AFSA16.jpg,AFSA03.jpg,AFNE13.jpg,AFSA16.jpg,FS,4,num_6,16,num_6,0.55012075862,,,2017_Dec_20_1529,59.99949965,MAFE4ImagesEEG,001,202501,
AFNE01.JPG,AFNE01.JPG,AFNE01.JPG,AFNE01.JPG,AFNE01.JPG,AFNE01.JPG,,,,,0,3,3,9,,,,,,,,,,,,,,,,,,,AFSA13.jpg,AFNE03.jpg,AFSA19.jpg,AFNE17.jpg,AFSA13.jpg,FS,4,num_8,16,num_8,0.633488143852,,,2017_Dec_20_1529,59.99949965,MAFE4ImagesEEG,001,202501,
AFNE01.JPG,AFNE01.JPG,AFNE01.JPG,AFNE01.JPG,AFNE01.JPG,AFNE01.JPG,,,,,0,4,4,2,,,,,,,,,,,,,,,,,,,AFSA19.jpg,AFSA09.jpg,AFNE02.jpg,AFNE12.jpg,AFSA19.jpg,FS,4,num_8,32,num_2,1.58343666507,,,2017_Dec_20_1529,59.99949965,MAFE4ImagesEEG,001,202501,
AFNE01.JPG,AFNE01.JPG,AFNE01.JPG,AFNE01.JPG,AFNE01.JPG,AFNE01.JPG,,,,,0,5,5,5,,,,,,,,,,,,,,,,,,,AFSA08.jpg,AFNE01.jpg,AFSA16.jpg,AFNE19.jpg,AFNE19.jpg,FN,3,num_4,32,num_6,0.533438108396,,,2017_Dec_20_1529,59.99949965,MAFE4ImagesEEG,001,202501,
AFNE01.JPG,AFNE01.JPG,AFNE01.JPG,AFNE01.JPG,AFNE01.JPG,AFNE01.JPG,,,,,0,6,6,0,,,,,,,,,,,,,,,,,,,AFSA01.jpg,AFNE13.jpg,AFSA11.jpg,AFNE08.jpg,AFSA01.jpg,FS,4,num_8,16,num_8,0.966752731911,,,2017_Dec_20_1529,59.99949965,MAFE4ImagesEEG,001,202501,
AFNE01.JPG,AFNE01.JPG,AFNE01.JPG,AFNE01.JPG,AFNE01.JPG,AFNE01.JPG,,,,,0,7,7,6,,,,,,,,,,,,,,,,,,,AFNE07.jpg,AFSA05.jpg,AFNE05.jpg,AFSA01.jpg,AFSA05.jpg,FS,4,num_6,32,num_4,0.516490847687,,,2017_Dec_20_1529,59.99949965,MAFE4ImagesEEG,001,202501,
AFNE01.JPG,AFNE01.JPG,AFNE01.JPG,AFNE01.JPG,AFNE01.JPG,AFNE01.JPG,,,,,0,8,8,4,,,,,,,,,,,,,,,,,,,AFSA06.jpg,AFSA11.jpg,AFNE08.jpg,AFNE04.jpg,AFSA06.jpg,FS,4,num_8,16,num_8,2.05006494984,,,2017_Dec_20_1529,59.99949965,MAFE4ImagesEEG,001,202501,
AFNE01.JPG,AFNE01.JPG,AFNE01.JPG,AFNE01.JPG,AFNE01.JPG,AFNE01.JPG,,,,,0,9,9,7,,,,,,,,,,,,,,,,,,,AFNE03.jpg,AFSA04.jpg,AFNE13.jpg,AFSA15.jpg,AFNE03.jpg,FN,3,num_8,32,num_4,0.816797475127,,,2017_Dec_20_1529,59.99949965,MAFE4ImagesEEG,001,202501,
AFNE01.JPG,AFNE01.JPG,AFNE01.JPG,AFNE01.JPG,AFNE01.JPG,AFNE01.JPG,,,,,1,0,10,5,,,,,,,,,,,,,,,,,,,AFSA14.jpg,AFNE14.jpg,AFNE05.jpg,AFSA08.jpg,AFNE05.jpg,FN,3,num_2,16,num_2,0.633508350467,,,2017_Dec_20_1529,59.99949965,MAFE4ImagesEEG,001,202501,
AFNE01.JPG,AFNE01.JPG,AFNE01.JPG,AFNE01.JPG,AFNE01.JPG,AFNE01.JPG,,,,,1,1,11,0,,,,,,,,,,,,,,,,,,,AFNE17.jpg,AFSA20.jpg,AFSA13.jpg,AFNE08.jpg,AFNE08.jpg,FN,3,num_4,32,num_6,0.566782560723,,,2017_Dec_20_1529,59.99949965,MAFE4ImagesEEG,001,202501,
AFNE01.JPG,AFNE01.JPG,AFNE01.JPG,AFNE01.JPG,AFNE01.JPG,AFNE01.JPG,,,,,1,2,12,2,,,,,,,,,,,,,,,,,,,AFSA16.jpg,AFNE17.jpg,AFNE07.jpg,AFSA05.jpg,AFNE17.jpg,FN,3,num_6,32,num_4,1.21675289227,,,2017_Dec_20_1529,59.99949965,MAFE4ImagesEEG,001,202501,
AFNE01.JPG,AFNE01.JPG,AFNE01.JPG,AFNE01.JPG,AFNE01.JPG,AFNE01.JPG,,,,,1,3,13,3,,,,,,,,,,,,,,,,,,,AFSA19.jpg,AFNE20.jpg,AFNE06.jpg,AFSA16.jpg,AFNE20.jpg,FN,3,num_6,16,num_6,0.666848312423,,,2017_Dec_20_1529,59.99949965,MAFE4ImagesEEG,001,202501,
AFNE01.JPG,AFNE01.JPG,AFNE01.JPG,AFNE01.JPG,AFNE01.JPG,AFNE01.JPG,,,,,1,4,14,6,,,,,,,,,,,,,,,,,,,AFSA01.jpg,AFNE03.jpg,AFSA05.jpg,AFNE09.jpg,AFNE03.jpg,FN,3,num_6,32,num_2,1.00012123972,,,2017_Dec_20_1529,59.99949965,MAFE4ImagesEEG,001,202501,
AFNE01.JPG,AFNE01.JPG,AFNE01.JPG,AFNE01.JPG,AFNE01.JPG,AFNE01.JPG,,,,,1,5,15,7,,,,,,,,,,,,,,,,,,,AFSA14.jpg,AFNE11.jpg,AFNE14.jpg,AFSA03.jpg,AFNE14.jpg,FN,3,num_2,16,num_2,1.28340747773,,,2017_Dec_20_1529,59.99949965,MAFE4ImagesEEG,001,202501,
AFNE01.JPG,AFNE01.JPG,AFNE01.JPG,AFNE01.JPG,AFNE01.JPG,AFNE01.JPG,,,,,1,6,16,1,,,,,,,,,,,,,,,,,,,AFNE05.jpg,AFSA05.jpg,AFSA10.jpg,AFNE11.jpg,AFSA05.jpg,FS,4,num_6,32,num_4,0.716792343301,,,2017_Dec_20_1529,59.99949965,MAFE4ImagesEEG,001,202501,
AFNE01.JPG,AFNE01.JPG,AFNE01.JPG,AFNE01.JPG,AFNE01.JPG,AFNE01.JPG,,,,,1,7,17,4,,,,,,,,,,,,,,,,,,,AFNE05.jpg,AFNE12.jpg,AFSA03.jpg,AFSA04.jpg,AFNE12.jpg,FN,3,num_6,16,num_6,0.650159568148,,,2017_Dec_20_1529,59.99949965,MAFE4ImagesEEG,001,202501,
AFNE01.JPG,AFNE01.JPG,AFNE01.JPG,AFNE01.JPG,AFNE01.JPG,AFNE01.JPG,,,,,1,8,18,9,,,,,,,,,,,,,,,,,,,AFSA05.jpg,AFSA07.jpg,AFNE11.jpg,AFNE17.jpg,AFNE11.jpg,FN,3,num_2,32,num_8,0.700110334568,,,2017_Dec_20_1529,59.99949965,MAFE4ImagesEEG,001,202501,
AFNE01.JPG,AFNE01.JPG,AFNE01.JPG,AFNE01.JPG,AFNE01.JPG,AFNE01.JPG,,,,,1,9,19,8,,,,,,,,,,,,,,,,,,,AFNE19.jpg,AFSA05.jpg,AFNE10.jpg,AFSA13.jpg,AFSA05.jpg,FS,4,num_6,32,num_8,1.0334413158,,,2017_Dec_20_1529,59.99949965,MAFE4ImagesEEG,001,202501,
AFNE01.JPG,AFNE01.JPG,AFNE01.JPG,AFNE01.JPG,AFNE01.JPG,AFNE01.JPG,,,,,2,0,20,2,,,,,,,,,,,,,,,,,,,AFSA10.jpg,AFSA04.jpg,AFNE09.jpg,AFNE18.jpg,AFNE09.jpg,FN,3,num_2,32,num_4,1.33344708913,,,2017_Dec_20_1529,59.99949965,MAFE4ImagesEEG,001,202501,
AFNE01.JPG,AFNE01.JPG,AFNE01.JPG,AFNE01.JPG,AFNE01.JPG,AFNE01.JPG,,,,,2,1,21,8,,,,,,,,,,,,,,,,,,,AFNE17.jpg,AFSA08.jpg,AFNE04.jpg,AFSA17.jpg,AFNE17.jpg,FN,3,num_8,32,num_6,0.666785768117,,,2017_Dec_20_1529,59.99949965,MAFE4ImagesEEG,001,202501,
AFNE01.JPG,AFNE01.JPG,AFNE01.JPG,AFNE01.JPG,AFNE01.JPG,AFNE01.JPG,,,,,2,2,22,4,,,,,,,,,,,,,,,,,,,AFSA02.jpg,AFNE06.jpg,AFSA15.jpg,AFNE11.jpg,AFSA15.jpg,FS,4,num_2,32,num_4,0.650131022296,,,2017_Dec_20_1529,59.99949965,MAFE4ImagesEEG,001,202501,
AFNE01.JPG,AFNE01.JPG,AFNE01.JPG,AFNE01.JPG,AFNE01.JPG,AFNE01.JPG,,,,,2,3,23,0,,,,,,,,,,,,,,,,,,,AFNE03.jpg,AFSA19.jpg,AFNE01.jpg,AFSA07.jpg,AFSA19.jpg,FS,4,num_6,32,num_8,0.583487021242,,,2017_Dec_20_1529,59.99949965,MAFE4ImagesEEG,001,202501,
AFNE01.JPG,AFNE01.JPG,AFNE01.JPG,AFNE01.JPG,AFNE01.JPG,AFNE01.JPG,,,,,2,4,24,1,,,,,,,,,,,,,,,,,,,AFNE13.jpg,AFSA12.jpg,AFNE19.jpg,AFSA18.jpg,AFSA18.jpg,FS,4,num_4,32,num_2,1.55007649648,,,2017_Dec_20_1529,59.99949965,MAFE4ImagesEEG,001,202501,
AFNE01.JPG,AFNE01.JPG,AFNE01.JPG,AFNE01.JPG,AFNE01.JPG,AFNE01.JPG,,,,,2,5,25,5,,,,,,,,,,,,,,,,,,,AFNE04.jpg,AFSA13.jpg,AFNE17.jpg,AFSA08.jpg,AFSA13.jpg,FS,4,num_6,16,num_6,0.750037045465,,,2017_Dec_20_1529,59.99949965,MAFE4ImagesEEG,001,202501,
AFNE01.JPG,AFNE01.JPG,AFNE01.JPG,AFNE01.JPG,AFNE01.JPG,AFNE01.JPG,,,,,2,6,26,7,,,,,,,,,,,,,,,,,,,AFNE16.jpg,AFNE19.jpg,AFSA06.jpg,AFSA09.jpg,AFNE19.jpg,FN,3,num_6,32,num_4,0.650158285192,,,2017_Dec_20_1529,59.99949965,MAFE4ImagesEEG,001,202501,
AFNE01.JPG,AFNE01.JPG,AFNE01.JPG,AFNE01.JPG,AFNE01.JPG,AFNE01.JPG,,,,,2,7,27,9,,,,,,,,,,,,,,,,,,,AFSA18.jpg,AFNE01.jpg,AFSA09.jpg,AFNE07.jpg,AFSA18.jpg,FS,4,num_8,16,num_8,1.55009189202,,,2017_Dec_20_1529,59.99949965,MAFE4ImagesEEG,001,202501,
AFNE01.JPG,AFNE01.JPG,AFNE01.JPG,AFNE01.JPG,AFNE01.JPG,AFNE01.JPG,,,,,2,8,28,6,,,,,,,,,,,,,,,,,,,AFSA17.jpg,AFNE20.jpg,AFNE16.jpg,AFSA04.jpg,AFSA04.jpg,FS,4,num_4,16,num_4,0.516777268509,,,2017_Dec_20_1529,59.99949965,MAFE4ImagesEEG,001,202501,
AFNE01.JPG,AFNE01.JPG,AFNE01.JPG,AFNE01.JPG,AFNE01.JPG,AFNE01.JPG,,,,,2,9,29,3,,,,,,,,,,,,,,,,,,,AFNE20.jpg,AFNE10.jpg,AFSA03.jpg,AFSA04.jpg,AFSA03.jpg,FS,4,num_2,16,num_2,1.15009253348,,,2017_Dec_20_1529,59.99949965,MAFE4ImagesEEG,001,202501,
AFNE01.JPG,AFNE01.JPG,AFNE01.JPG,AFNE01.JPG,AFNE01.JPG,AFNE01.JPG,,,,,3,0,30,9,,,,,,,,,,,,,,,,,,,AFSA13.jpg,AFNE06.jpg,AFSA06.jpg,AFNE17.jpg,AFSA13.jpg,FS,4,num_8,16,num_8,0.883466493891,,,2017_Dec_20_1529,59.99949965,MAFE4ImagesEEG,001,202501,
AFNE01.JPG,AFNE01.JPG,AFNE01.JPG,AFNE01.JPG,AFNE01.JPG,AFNE01.JPG,,,,,3,1,31,5,,,,,,,,,,,,,,,,,,,AFSA09.jpg,AFNE07.jpg,AFSA04.jpg,AFNE05.jpg,AFSA09.jpg,FS,4,num_8,32,num_2,1.25011466455,,,2017_Dec_20_1529,59.99949965,MAFE4ImagesEEG,001,202501,
AFNE01.JPG,AFNE01.JPG,AFNE01.JPG,AFNE01.JPG,AFNE01.JPG,AFNE01.JPG,,,,,3,2,32,6,,,,,,,,,,,,,,,,,,,AFNE07.jpg,AFNE04.jpg,AFSA03.jpg,AFSA05.jpg,AFNE04.jpg,FN,3,num_6,16,num_6,1.06679539033,,,2017_Dec_20_1529,59.99949965,MAFE4ImagesEEG,001,202501,
AFNE01.JPG,AFNE01.JPG,AFNE01.JPG,AFNE01.JPG,AFNE01.JPG,AFNE01.JPG,,,,,3,3,33,7,,,,,,,,,,,,,,,,,,,AFSA18.jpg,AFNE12.jpg,AFNE19.jpg,AFSA16.jpg,AFSA18.jpg,FS,4,num_8,16,num_8,0.866747600056,,,2017_Dec_20_1529,59.99949965,MAFE4ImagesEEG,001,202501,
AFNE01.JPG,AFNE01.JPG,AFNE01.JPG,AFNE01.JPG,AFNE01.JPG,AFNE01.JPG,,,,,3,4,34,1,,,,,,,,,,,,,,,,,,,AFSA14.jpg,AFNE17.jpg,AFSA10.jpg,AFNE06.jpg,AFSA10.jpg,FS,4,num_2,16,num_2,1.9000064148,,,2017_Dec_20_1529,59.99949965,MAFE4ImagesEEG,001,202501,
AFNE01.JPG,AFNE01.JPG,AFNE01.JPG,AFNE01.JPG,AFNE01.JPG,AFNE01.JPG,,,,,3,5,35,8,,,,,,,,,,,,,,,,,,,AFNE06.jpg,AFNE15.jpg,AFSA10.jpg,AFSA16.jpg,AFNE06.jpg,FN,3,num_8,32,num_4,1.09998075559,,,2017_Dec_20_1529,59.99949965,MAFE4ImagesEEG,001,202501,
AFNE01.JPG,AFNE01.JPG,AFNE01.JPG,AFNE01.JPG,AFNE01.JPG,AFNE01.JPG,,,,,3,6,36,4,,,,,,,,,,,,,,,,,,,AFSA09.jpg,AFNE07.jpg,AFSA08.jpg,AFNE20.jpg,AFSA08.jpg,FS,4,num_2,32,num_8,2.18335231044,,,2017_Dec_20_1529,59.99949965,MAFE4ImagesEEG,001,202501,
AFNE01.JPG,AFNE01.JPG,AFNE01.JPG,AFNE01.JPG,AFNE01.JPG,AFNE01.JPG,,,,,3,7,37,3,,,,,,,,,,,,,,,,,,,AFNE10.jpg,AFSA16.jpg,AFNE03.jpg,AFSA06.jpg,AFNE10.jpg,FN,3,num_8,32,num_6,1.18342543917,,,2017_Dec_20_1529,59.99949965,MAFE4ImagesEEG,001,202501,
AFNE01.JPG,AFNE01.JPG,AFNE01.JPG,AFNE01.JPG,AFNE01.JPG,AFNE01.JPG,,,,,3,8,38,0,,,,,,,,,,,,,,,,,,,AFSA04.jpg,AFNE06.jpg,AFSA11.jpg,AFNE09.jpg,AFSA11.jpg,FS,4,num_2,16,num_2,0.366797314768,,,2017_Dec_20_1529,59.99949965,MAFE4ImagesEEG,001,202501,
AFNE01.JPG,AFNE01.JPG,AFNE01.JPG,AFNE01.JPG,AFNE01.JPG,AFNE01.JPG,,,,,3,9,39,2,,,,,,,,,,,,,,,,,,,AFSA14.jpg,AFNE11.jpg,AFSA10.jpg,AFNE05.jpg,AFNE05.jpg,FN,3,num_4,32,num_6,0.550142248205,,,2017_Dec_20_1529,59.99949965,MAFE4ImagesEEG,001,202501,
AFNE01.JPG,AFNE01.JPG,AFNE01.JPG,AFNE01.JPG,AFNE01.JPG,AFNE01.JPG,,,,,4,0,40,8,,,,,,,,,,,,,,,,,,,AFNE09.jpg,AFSA07.jpg,AFSA01.jpg,AFNE20.jpg,AFSA07.jpg,FS,4,num_6,32,num_8,0.966473367356,,,2017_Dec_20_1529,59.99949965,MAFE4ImagesEEG,001,202501,
AFNE01.JPG,AFNE01.JPG,AFNE01.JPG,AFNE01.JPG,AFNE01.JPG,AFNE01.JPG,,,,,4,1,41,6,,,,,,,,,,,,,,,,,,,AFNE13.jpg,AFSA01.jpg,AFNE08.jpg,AFSA05.jpg,AFNE13.jpg,FN,3,num_8,16,num_8,1.4334012233,,,2017_Dec_20_1529,59.99949965,MAFE4ImagesEEG,001,202501,
AFNE01.JPG,AFNE01.JPG,AFNE01.JPG,AFNE01.JPG,AFNE01.JPG,AFNE01.JPG,,,,,4,2,42,0,,,,,,,,,,,,,,,,,,,AFNE03.jpg,AFSA05.jpg,AFSA13.jpg,AFNE10.jpg,AFNE10.jpg,FN,3,num_4,16,num_4,0.633586290292,,,2017_Dec_20_1529,59.99949965,MAFE4ImagesEEG,001,202501,
AFNE01.JPG,AFNE01.JPG,AFNE01.JPG,AFNE01.JPG,AFNE01.JPG,AFNE01.JPG,,,,,4,3,43,3,,,,,,,,,,,,,,,,,,,AFSA09.jpg,AFNE11.jpg,AFSA06.jpg,AFNE13.jpg,AFNE13.jpg,FN,3,num_4,32,num_2,1.05014449338,,,2017_Dec_20_1529,59.99949965,MAFE4ImagesEEG,001,202501,
AFNE01.JPG,AFNE01.JPG,AFNE01.JPG,AFNE01.JPG,AFNE01.JPG,AFNE01.JPG,,,,,4,4,44,9,,,,,,,,,,,,,,,,,,,AFNE10.jpg,AFNE20.jpg,AFSA12.jpg,AFSA19.jpg,AFSA12.jpg,FS,4,num_2,32,num_4,1.43342880695,,,2017_Dec_20_1529,59.99949965,MAFE4ImagesEEG,001,202501,
AFNE01.JPG,AFNE01.JPG,AFNE01.JPG,AFNE01.JPG,AFNE01.JPG,AFNE01.JPG,,,,,4,5,45,5,,,,,,,,,,,,,,,,,,,AFNE18.jpg,AFNE10.jpg,AFSA13.jpg,AFSA08.jpg,AFSA08.jpg,FS,4,num_4,32,num_6,0.850192604383,,,2017_Dec_20_1529,59.99949965,MAFE4ImagesEEG,001,202501,
AFNE01.JPG,AFNE01.JPG,AFNE01.JPG,AFNE01.JPG,AFNE01.JPG,AFNE01.JPG,,,,,4,6,46,1,,,,,,,,,,,,,,,,,,,AFNE04.jpg,AFSA06.jpg,AFSA14.jpg,AFNE03.jpg,AFSA14.jpg,FS,4,num_2,16,num_2,1.01677438186,,,2017_Dec_20_1529,59.99949965,MAFE4ImagesEEG,001,202501,
AFNE01.JPG,AFNE01.JPG,AFNE01.JPG,AFNE01.JPG,AFNE01.JPG,AFNE01.JPG,,,,,4,7,47,4,,,,,,,,,,,,,,,,,,,AFNE11.jpg,AFSA12.jpg,AFSA04.jpg,AFNE18.jpg,AFSA04.jpg,FS,4,num_2,32,num_6,1.03347916312,,,2017_Dec_20_1529,59.99949965,MAFE4ImagesEEG,001,202501,
AFNE01.JPG,AFNE01.JPG,AFNE01.JPG,AFNE01.JPG,AFNE01.JPG,AFNE01.JPG,,,,,4,8,48,7,,,,,,,,,,,,,,,,,,,AFNE12.jpg,AFNE06.jpg,AFSA01.jpg,AFSA06.jpg,AFNE06.jpg,FN,3,num_6,32,num_4,0.55027824195,,,2017_Dec_20_1529,59.99949965,MAFE4ImagesEEG,001,202501,
AFNE01.JPG,AFNE01.JPG,AFNE01.JPG,AFNE01.JPG,AFNE01.JPG,AFNE01.JPG,,,,,4,9,49,2,,,,,,,,,,,,,,,,,,,AFNE12.jpg,AFNE19.jpg,AFSA20.jpg,AFSA04.jpg,AFSA20.jpg,FS,4,num_2,32,num_6,1.01682313434,,,2017_Dec_20_1529,59.99949965,MAFE4ImagesEEG,001,202501,
AFNE01.JPG,AFNE01.JPG,AFNE01.JPG,AFNE01.JPG,AFNE01.JPG,AFNE01.JPG,,,,,5,0,50,5,,,,,,,,,,,,,,,,,,,AFSA05.jpg,AFNE11.jpg,AFNE13.jpg,AFSA15.jpg,AFSA15.jpg,FS,4,num_4,32,num_8,1.00022644245,,,2017_Dec_20_1529,59.99949965,MAFE4ImagesEEG,001,202501,
AFNE01.JPG,AFNE01.JPG,AFNE01.JPG,AFNE01.JPG,AFNE01.JPG,AFNE01.JPG,,,,,5,1,51,1,,,,,,,,,,,,,,,,,,,AFNE07.jpg,AFSA15.jpg,AFSA13.jpg,AFNE09.jpg,AFSA13.jpg,FS,4,num_2,16,num_2,1.46657343824,,,2017_Dec_20_1529,59.99949965,MAFE4ImagesEEG,001,202501,
AFNE01.JPG,AFNE01.JPG,AFNE01.JPG,AFNE01.JPG,AFNE01.JPG,AFNE01.JPG,,,,,5,2,52,3,,,,,,,,,,,,,,,,,,,AFNE15.jpg,AFNE12.jpg,AFSA18.jpg,AFSA15.jpg,AFNE15.jpg,FN,3,num_8,32,num_4,0.900106806424,,,2017_Dec_20_1529,59.99949965,MAFE4ImagesEEG,001,202501,
AFNE01.JPG,AFNE01.JPG,AFNE01.JPG,AFNE01.JPG,AFNE01.JPG,AFNE01.JPG,,,,,5,3,53,4,,,,,,,,,,,,,,,,,,,AFNE01.jpg,AFSA08.jpg,AFSA12.jpg,AFNE11.jpg,AFSA08.jpg,FS,4,num_6,16,num_6,0.583460720576,,,2017_Dec_20_1529,59.99949965,MAFE4ImagesEEG,001,202501,
AFNE01.JPG,AFNE01.JPG,AFNE01.JPG,AFNE01.JPG,AFNE01.JPG,AFNE01.JPG,,,,,5,4,54,2,,,,,,,,,,,,,,,,,,,AFNE18.jpg,AFSA18.jpg,AFNE17.jpg,AFSA19.jpg,AFSA18.jpg,FS,4,num_6,32,num_8,1.05016341704,,,2017_Dec_20_1529,59.99949965,MAFE4ImagesEEG,001,202501,
AFNE01.JPG,AFNE01.JPG,AFNE01.JPG,AFNE01.JPG,AFNE01.JPG,AFNE01.JPG,,,,,5,5,55,6,,,,,,,,,,,,,,,,,,,AFSA18.jpg,AFNE13.jpg,AFSA06.jpg,AFNE18.jpg,AFNE13.jpg,FN,3,num_6,16,num_6,0.983540905581,,,2017_Dec_20_1529,59.99949965,MAFE4ImagesEEG,001,202501,
AFNE01.JPG,AFNE01.JPG,AFNE01.JPG,AFNE01.JPG,AFNE01.JPG,AFNE01.JPG,,,,,5,6,56,9,,,,,,,,,,,,,,,,,,,AFSA17.jpg,AFNE05.jpg,AFSA01.jpg,AFNE10.jpg,AFSA01.jpg,FS,4,num_2,16,num_2,1.41671247903,,,2017_Dec_20_1529,59.99949965,MAFE4ImagesEEG,001,202501,
AFNE01.JPG,AFNE01.JPG,AFNE01.JPG,AFNE01.JPG,AFNE01.JPG,AFNE01.JPG,,,,,5,7,57,8,,,,,,,,,,,,,,,,,,,AFSA15.jpg,AFNE08.jpg,AFSA19.jpg,AFNE18.jpg,AFNE18.jpg,FN,3,num_4,16,num_4,0.666804050299,,,2017_Dec_20_1529,59.99949965,MAFE4ImagesEEG,001,202501,
AFNE01.JPG,AFNE01.JPG,AFNE01.JPG,AFNE01.JPG,AFNE01.JPG,AFNE01.JPG,,,,,5,8,58,0,,,,,,,,,,,,,,,,,,,AFSA02.jpg,AFNE05.jpg,AFNE07.jpg,AFSA10.jpg,AFNE07.jpg,FN,3,num_2,32,num_4,1.25013743709,,,2017_Dec_20_1529,59.99949965,MAFE4ImagesEEG,001,202501,
AFNE01.JPG,AFNE01.JPG,AFNE01.JPG,AFNE01.JPG,AFNE01.JPG,AFNE01.JPG,,,,,5,9,59,7,,,,,,,,,,,,,,,,,,,AFSA20.jpg,AFNE05.jpg,AFNE02.jpg,AFSA15.jpg,AFNE05.jpg,FN,3,num_6,16,num_6,1.21673781749,,,2017_Dec_20_1529,59.99949965,MAFE4ImagesEEG,001,202501,
,,,,,,,,,,,,,,,,,,,,,,,,,,,,,,,,,,,,,,,,,,,space,51.9962133434,2017_Dec_20_1529,59.99949965,MAFE4ImagesEEG,001,202501,
AFNE01.JPG,AFNE01.JPG,AFNE01.JPG,AFNE01.JPG,AFNE01.JPG,AFNE01.JPG,,,,,,,,,0,0,0,9,,,,,,,,,,,,,,,AMSA02.jpg,AMNE10.jpg,AMSA07.jpg,AMNE17.jpg,AMSA07.jpg,MS,2,num_2,16,num_2,1.3167378175,,,2017_Dec_20_1529,59.99949965,MAFE4ImagesEEG,001,202501,
AFNE01.JPG,AFNE01.JPG,AFNE01.JPG,AFNE01.JPG,AFNE01.JPG,AFNE01.JPG,,,,,,,,,0,1,1,8,,,,,,,,,,,,,,,AMNE09.jpg,AMSA10.jpg,AMSA06.jpg,AMNE17.jpg,AMNE17.jpg,MN,1,num_4,16,num_4,0.816747439691,,,2017_Dec_20_1529,59.99949965,MAFE4ImagesEEG,001,202501,
AFNE01.JPG,AFNE01.JPG,AFNE01.JPG,AFNE01.JPG,AFNE01.JPG,AFNE01.JPG,,,,,,,,,0,2,2,6,,,,,,,,,,,,,,,AMSA17.jpg,AMNE03.jpg,AMNE18.jpg,AMSA06.jpg,AMNE18.jpg,MN,1,num_2,32,num_6,0.583481568669,,,2017_Dec_20_1529,59.99949965,MAFE4ImagesEEG,001,202501,
AFNE01.JPG,AFNE01.JPG,AFNE01.JPG,AFNE01.JPG,AFNE01.JPG,AFNE01.JPG,,,,,,,,,0,3,3,5,,,,,,,,,,,,,,,AMNE01.jpg,AMSA18.jpg,AMNE11.jpg,AMSA14.jpg,AMNE01.jpg,MN,1,num_8,32,num_4,0.633476917938,,,2017_Dec_20_1529,59.99949965,MAFE4ImagesEEG,001,202501,
AFNE01.JPG,AFNE01.JPG,AFNE01.JPG,AFNE01.JPG,AFNE01.JPG,AFNE01.JPG,,,,,,,,,0,4,4,4,,,,,,,,,,,,,,,AMSA08.jpg,AMNE18.jpg,AMSA03.jpg,AMNE10.jpg,AMNE10.jpg,MN,1,num_4,16,num_4,0.916657632493,,,2017_Dec_20_1529,59.99949965,MAFE4ImagesEEG,001,202501,
AFNE01.JPG,AFNE01.JPG,AFNE01.JPG,AFNE01.JPG,AFNE01.JPG,AFNE01.JPG,,,,,,,,,0,5,5,3,,,,,,,,,,,,,,,AMNE14.jpg,AMSA06.jpg,AMNE08.jpg,AMSA03.jpg,AMNE14.jpg,MN,1,num_8,32,num_4,1.06672675196,,,2017_Dec_20_1529,59.99949965,MAFE4ImagesEEG,001,202501,
AFNE01.JPG,AFNE01.JPG,AFNE01.JPG,AFNE01.JPG,AFNE01.JPG,AFNE01.JPG,,,,,,,,,0,6,6,0,,,,,,,,,,,,,,,AMNE18.jpg,AMNE15.jpg,AMSA02.jpg,AMSA15.jpg,AMNE18.jpg,MN,1,num_8,16,num_8,0.916750005606,,,2017_Dec_20_1529,59.99949965,MAFE4ImagesEEG,001,202501,
AFNE01.JPG,AFNE01.JPG,AFNE01.JPG,AFNE01.JPG,AFNE01.JPG,AFNE01.JPG,,,,,,,,,0,7,7,2,,,,,,,,,,,,,,,AMSA16.jpg,AMNE08.jpg,AMSA12.jpg,AMNE12.jpg,AMSA16.jpg,MS,2,num_8,32,num_4,0.750117871954,,,2017_Dec_20_1529,59.99949965,MAFE4ImagesEEG,001,202501,
AFNE01.JPG,AFNE01.JPG,AFNE01.JPG,AFNE01.JPG,AFNE01.JPG,AFNE01.JPG,,,,,,,,,0,8,8,1,,,,,,,,,,,,,,,AMNE07.jpg,AMSA16.jpg,AMSA19.jpg,AMNE05.jpg,AMSA19.jpg,MS,2,num_2,32,num_6,1.3166913102,,,2017_Dec_20_1529,59.99949965,MAFE4ImagesEEG,001,202501,
AFNE01.JPG,AFNE01.JPG,AFNE01.JPG,AFNE01.JPG,AFNE01.JPG,AFNE01.JPG,,,,,,,,,0,9,9,7,,,,,,,,,,,,,,,AMSA06.jpg,AMSA04.jpg,AMNE07.jpg,AMNE10.jpg,AMNE07.jpg,MN,1,num_2,32,num_4,0.566800201428,,,2017_Dec_20_1529,59.99949965,MAFE4ImagesEEG,001,202501,
AFNE01.JPG,AFNE01.JPG,AFNE01.JPG,AFNE01.JPG,AFNE01.JPG,AFNE01.JPG,,,,,,,,,1,0,10,2,,,,,,,,,,,,,,,AMNE04.jpg,AMSA06.jpg,AMSA08.jpg,AMNE12.jpg,AMNE04.jpg,MN,1,num_8,32,num_2,0.550106325303,,,2017_Dec_20_1529,59.99949965,MAFE4ImagesEEG,001,202501,
AFNE01.JPG,AFNE01.JPG,AFNE01.JPG,AFNE01.JPG,AFNE01.JPG,AFNE01.JPG,,,,,,,,,1,1,11,3,,,,,,,,,,,,,,,AMNE12.jpg,AMNE10.jpg,AMSA05.jpg,AMSA16.jpg,AMSA16.jpg,MS,2,num_4,32,num_6,0.350156681496,,,2017_Dec_20_1529,59.99949965,MAFE4ImagesEEG,001,202501,
AFNE01.JPG,AFNE01.JPG,AFNE01.JPG,AFNE01.JPG,AFNE01.JPG,AFNE01.JPG,,,,,,,,,1,2,12,4,,,,,,,,,,,,,,,AMNE16.jpg,AMNE08.jpg,AMSA11.jpg,AMSA04.jpg,AMNE08.jpg,MN,1,num_6,16,num_6,1.13343297657,,,2017_Dec_20_1529,59.99949965,MAFE4ImagesEEG,001,202501,
AFNE01.JPG,AFNE01.JPG,AFNE01.JPG,AFNE01.JPG,AFNE01.JPG,AFNE01.JPG,,,,,,,,,1,3,13,7,,,,,,,,,,,,,,,AMSA04.jpg,AMNE04.jpg,AMNE15.jpg,AMSA11.jpg,AMNE15.jpg,MN,1,num_2,16,num_2,1.03312731134,,,2017_Dec_20_1529,59.99949965,MAFE4ImagesEEG,001,202501,
AFNE01.JPG,AFNE01.JPG,AFNE01.JPG,AFNE01.JPG,AFNE01.JPG,AFNE01.JPG,,,,,,,,,1,4,14,9,,,,,,,,,,,,,,,AMNE06.jpg,AMSA15.jpg,AMSA19.jpg,AMNE14.jpg,AMNE14.jpg,MN,1,num_4,32,num_6,1.94999983962,,,2017_Dec_20_1529,59.99949965,MAFE4ImagesEEG,001,202501,
AFNE01.JPG,AFNE01.JPG,AFNE01.JPG,AFNE01.JPG,AFNE01.JPG,AFNE01.JPG,,,,,,,,,1,5,15,8,,,,,,,,,,,,,,,AMSA07.jpg,AMSA18.jpg,AMNE14.jpg,AMNE19.jpg,AMSA07.jpg,MS,2,num_8,32,num_4,0.683534490774,,,2017_Dec_20_1529,59.99949965,MAFE4ImagesEEG,001,202501,
AFNE01.JPG,AFNE01.JPG,AFNE01.JPG,AFNE01.JPG,AFNE01.JPG,AFNE01.JPG,,,,,,,,,1,6,16,5,,,,,,,,,,,,,,,AMSA17.jpg,AMSA19.jpg,AMNE01.jpg,AMNE02.jpg,AMNE02.jpg,MN,1,num_4,32,num_2,0.633487181622,,,2017_Dec_20_1529,59.99949965,MAFE4ImagesEEG,001,202501,
AFNE01.JPG,AFNE01.JPG,AFNE01.JPG,AFNE01.JPG,AFNE01.JPG,AFNE01.JPG,,,,,,,,,1,7,17,0,,,,,,,,,,,,,,,AMNE16.jpg,AMSA10.jpg,AMSA02.jpg,AMNE02.jpg,AMSA10.jpg,MS,2,num_6,32,num_2,0.650120437887,,,2017_Dec_20_1529,59.99949965,MAFE4ImagesEEG,001,202501,
AFNE01.JPG,AFNE01.JPG,AFNE01.JPG,AFNE01.JPG,AFNE01.JPG,AFNE01.JPG,,,,,,,,,1,8,18,1,,,,,,,,,,,,,,,AMSA07.jpg,AMNE11.jpg,AMNE18.jpg,AMSA16.jpg,AMSA07.jpg,MS,2,num_8,32,num_2,0.783485417545,,,2017_Dec_20_1529,59.99949965,MAFE4ImagesEEG,001,202501,
AFNE01.JPG,AFNE01.JPG,AFNE01.JPG,AFNE01.JPG,AFNE01.JPG,AFNE01.JPG,,,,,,,,,1,9,19,6,,,,,,,,,,,,,,,AMSA19.jpg,AMNE07.jpg,AMNE01.jpg,AMSA07.jpg,AMSA07.jpg,MS,2,num_4,32,num_6,0.516792984781,,,2017_Dec_20_1529,59.99949965,MAFE4ImagesEEG,001,202501,
AFNE01.JPG,AFNE01.JPG,AFNE01.JPG,AFNE01.JPG,AFNE01.JPG,AFNE01.JPG,,,,,,,,,2,0,20,3,,,,,,,,,,,,,,,AMSA14.jpg,AMNE07.jpg,AMSA18.jpg,AMNE08.jpg,AMSA18.jpg,MS,2,num_2,32,num_8,0.650141927457,,,2017_Dec_20_1529,59.99949965,MAFE4ImagesEEG,001,202501,
AFNE01.JPG,AFNE01.JPG,AFNE01.JPG,AFNE01.JPG,AFNE01.JPG,AFNE01.JPG,,,,,,,,,2,1,21,0,,,,,,,,,,,,,,,AMNE14.jpg,AMNE11.jpg,AMSA07.jpg,AMSA15.jpg,AMNE11.jpg,MN,1,num_6,32,num_8,0.700134710802,,,2017_Dec_20_1529,59.99949965,MAFE4ImagesEEG,001,202501,
AFNE01.JPG,AFNE01.JPG,AFNE01.JPG,AFNE01.JPG,AFNE01.JPG,AFNE01.JPG,,,,,,,,,2,2,22,4,,,,,,,,,,,,,,,AMNE18.jpg,AMNE17.jpg,AMSA15.jpg,AMSA17.jpg,AMSA15.jpg,MS,2,num_2,16,num_2,1.84999663223,,,2017_Dec_20_1529,59.99949965,MAFE4ImagesEEG,001,202501,
AFNE01.JPG,AFNE01.JPG,AFNE01.JPG,AFNE01.JPG,AFNE01.JPG,AFNE01.JPG,,,,,,,,,2,3,23,8,,,,,,,,,,,,,,,AMSA15.jpg,AMNE02.jpg,AMSA09.jpg,AMNE19.jpg,AMNE02.jpg,MN,1,num_6,16,num_6,0.683448211712,,,2017_Dec_20_1529,59.99949965,MAFE4ImagesEEG,001,202501,
AFNE01.JPG,AFNE01.JPG,AFNE01.JPG,AFNE01.JPG,AFNE01.JPG,AFNE01.JPG,,,,,,,,,2,4,24,6,,,,,,,,,,,,,,,AMSA03.jpg,AMNE20.jpg,AMSA14.jpg,AMNE03.jpg,AMNE20.jpg,MN,1,num_6,16,num_6,0.683471625744,,,2017_Dec_20_1529,59.99949965,MAFE4ImagesEEG,001,202501,
AFNE01.JPG,AFNE01.JPG,AFNE01.JPG,AFNE01.JPG,AFNE01.JPG,AFNE01.JPG,,,,,,,,,2,5,25,2,,,,,,,,,,,,,,,AMNE09.jpg,AMNE03.jpg,AMSA17.jpg,AMSA04.jpg,AMNE09.jpg,MN,1,num_8,32,num_2,1.50025787497,,,2017_Dec_20_1529,59.99949965,MAFE4ImagesEEG,001,202501,
AFNE01.JPG,AFNE01.JPG,AFNE01.JPG,AFNE01.JPG,AFNE01.JPG,AFNE01.JPG,,,,,,,,,2,6,26,7,,,,,,,,,,,,,,,AMNE14.jpg,AMNE07.jpg,AMSA19.jpg,AMSA08.jpg,AMNE14.jpg,MN,1,num_8,32,num_4,1.35006944022,,,2017_Dec_20_1529,59.99949965,MAFE4ImagesEEG,001,202501,
AFNE01.JPG,AFNE01.JPG,AFNE01.JPG,AFNE01.JPG,AFNE01.JPG,AFNE01.JPG,,,,,,,,,2,7,27,5,,,,,,,,,,,,,,,AMSA18.jpg,AMNE03.jpg,AMSA13.jpg,AMNE16.jpg,AMNE16.jpg,MN,1,num_4,16,num_4,1.45009798607,,,2017_Dec_20_1529,59.99949965,MAFE4ImagesEEG,001,202501,
AFNE01.JPG,AFNE01.JPG,AFNE01.JPG,AFNE01.JPG,AFNE01.JPG,AFNE01.JPG,,,,,,,,,2,8,28,9,,,,,,,,,,,,,,,AMSA11.jpg,AMSA17.jpg,AMNE08.jpg,AMNE17.jpg,AMNE17.jpg,MN,1,num_4,32,num_2,1.06405530841,,,2017_Dec_20_1529,59.99949965,MAFE4ImagesEEG,001,202501,
AFNE01.JPG,AFNE01.JPG,AFNE01.JPG,AFNE01.JPG,AFNE01.JPG,AFNE01.JPG,,,,,,,,,2,9,29,1,,,,,,,,,,,,,,,AMNE06.jpg,AMNE15.jpg,AMSA19.jpg,AMSA08.jpg,AMSA19.jpg,MS,2,num_2,32,num_6,0.933496803817,,,2017_Dec_20_1529,59.99949965,MAFE4ImagesEEG,001,202501,
AFNE01.JPG,AFNE01.JPG,AFNE01.JPG,AFNE01.JPG,AFNE01.JPG,AFNE01.JPG,,,,,,,,,3,0,30,5,,,,,,,,,,,,,,,AMSA03.jpg,AMNE04.jpg,AMSA04.jpg,AMNE11.jpg,AMNE04.jpg,MN,1,num_6,16,num_6,1.76671360161,,,2017_Dec_20_1529,59.99949965,MAFE4ImagesEEG,001,202501,
AFNE01.JPG,AFNE01.JPG,AFNE01.JPG,AFNE01.JPG,AFNE01.JPG,AFNE01.JPG,,,,,,,,,3,1,31,2,,,,,,,,,,,,,,,AMSA01.jpg,AMSA15.jpg,AMNE16.jpg,AMNE17.jpg,AMNE17.jpg,MN,1,num_4,32,num_8,1.20010327829,,,2017_Dec_20_1529,59.99949965,MAFE4ImagesEEG,001,202501,
AFNE01.JPG,AFNE01.JPG,AFNE01.JPG,AFNE01.JPG,AFNE01.JPG,AFNE01.JPG,,,,,,,,,3,2,32,0,,,,,,,,,,,,,,,AMNE02.jpg,AMSA06.jpg,AMNE19.jpg,AMSA05.jpg,AMSA06.jpg,MS,2,num_6,32,num_2,0.983296822436,,,2017_Dec_20_1529,59.99949965,MAFE4ImagesEEG,001,202501,
AFNE01.JPG,AFNE01.JPG,AFNE01.JPG,AFNE01.JPG,AFNE01.JPG,AFNE01.JPG,,,,,,,,,3,3,33,8,,,,,,,,,,,,,,,AMSA05.jpg,AMNE03.jpg,AMNE10.jpg,AMSA12.jpg,AMSA12.jpg,MS,2,num_4,16,num_4,0.700135352279,,,2017_Dec_20_1529,59.99949965,MAFE4ImagesEEG,001,202501,
AFNE01.JPG,AFNE01.JPG,AFNE01.JPG,AFNE01.JPG,AFNE01.JPG,AFNE01.JPG,,,,,,,,,3,4,34,1,,,,,,,,,,,,,,,AMSA01.jpg,AMNE13.jpg,AMSA11.jpg,AMNE10.jpg,AMNE13.jpg,MN,1,num_6,32,num_8,1.08340779848,,,2017_Dec_20_1529,59.99949965,MAFE4ImagesEEG,001,202501,
AFNE01.JPG,AFNE01.JPG,AFNE01.JPG,AFNE01.JPG,AFNE01.JPG,AFNE01.JPG,,,,,,,,,3,5,35,6,,,,,,,,,,,,,,,AMNE09.jpg,AMSA16.jpg,AMNE12.jpg,AMSA01.jpg,AMNE12.jpg,MN,1,num_2,32,num_4,0.916560127516,,,2017_Dec_20_1529,59.99949965,MAFE4ImagesEEG,001,202501,
AFNE01.JPG,AFNE01.JPG,AFNE01.JPG,AFNE01.JPG,AFNE01.JPG,AFNE01.JPG,,,,,,,,,3,6,36,7,,,,,,,,,,,,,,,AMSA07.jpg,AMNE16.jpg,AMSA02.jpg,AMNE11.jpg,AMSA02.jpg,MS,2,num_2,16,num_2,1.10016197371,,,2017_Dec_20_1529,59.99949965,MAFE4ImagesEEG,001,202501,
AFNE01.JPG,AFNE01.JPG,AFNE01.JPG,AFNE01.JPG,AFNE01.JPG,AFNE01.JPG,,,,,,,,,3,7,37,3,,,,,,,,,,,,,,,AMNE12.jpg,AMSA14.jpg,AMNE07.jpg,AMSA03.jpg,AMNE07.jpg,MN,1,num_2,32,num_8,0.86676652373,,,2017_Dec_20_1529,59.99949965,MAFE4ImagesEEG,001,202501,
AFNE01.JPG,AFNE01.JPG,AFNE01.JPG,AFNE01.JPG,AFNE01.JPG,AFNE01.JPG,,,,,,,,,3,8,38,9,,,,,,,,,,,,,,,AMNE04.jpg,AMSA19.jpg,AMSA10.jpg,AMNE18.jpg,AMNE18.jpg,MN,1,num_4,16,num_4,1.28368491784,,,2017_Dec_20_1529,59.99949965,MAFE4ImagesEEG,001,202501,
AFNE01.JPG,AFNE01.JPG,AFNE01.JPG,AFNE01.JPG,AFNE01.JPG,AFNE01.JPG,,,,,,,,,3,9,39,4,,,,,,,,,,,,,,,AMSA07.jpg,AMSA05.jpg,AMNE05.jpg,AMNE09.jpg,AMSA07.jpg,MS,2,num_8,32,num_6,0.73350418084,,,2017_Dec_20_1529,59.99949965,MAFE4ImagesEEG,001,202501,
AFNE01.JPG,AFNE01.JPG,AFNE01.JPG,AFNE01.JPG,AFNE01.JPG,AFNE01.JPG,,,,,,,,,4,0,40,4,,,,,,,,,,,,,,,AMNE12.jpg,AMSA05.jpg,AMSA04.jpg,AMNE06.jpg,AMNE12.jpg,MN,1,num_8,32,num_2,1.06675722226,,,2017_Dec_20_1529,59.99949965,MAFE4ImagesEEG,001,202501,
AFNE01.JPG,AFNE01.JPG,AFNE01.JPG,AFNE01.JPG,AFNE01.JPG,AFNE01.JPG,,,,,,,,,4,1,41,9,,,,,,,,,,,,,,,AMNE05.jpg,AMSA09.jpg,AMSA15.jpg,AMNE12.jpg,AMSA09.jpg,MS,2,num_6,32,num_8,1.20008756203,,,2017_Dec_20_1529,59.99949965,MAFE4ImagesEEG,001,202501,
AFNE01.JPG,AFNE01.JPG,AFNE01.JPG,AFNE01.JPG,AFNE01.JPG,AFNE01.JPG,,,,,,,,,4,2,42,8,,,,,,,,,,,,,,,AMNE18.jpg,AMSA16.jpg,AMNE12.jpg,AMSA02.jpg,AMSA02.jpg,MS,2,num_4,16,num_4,0.500147861152,,,2017_Dec_20_1529,59.99949965,MAFE4ImagesEEG,001,202501,
AFNE01.JPG,AFNE01.JPG,AFNE01.JPG,AFNE01.JPG,AFNE01.JPG,AFNE01.JPG,,,,,,,,,4,3,43,7,,,,,,,,,,,,,,,AMSA13.jpg,AMSA07.jpg,AMNE13.jpg,AMNE15.jpg,AMSA07.jpg,MS,2,num_6,16,num_6,0.616786569968,,,2017_Dec_20_1529,59.99949965,MAFE4ImagesEEG,001,202501,
AFNE01.JPG,AFNE01.JPG,AFNE01.JPG,AFNE01.JPG,AFNE01.JPG,AFNE01.JPG,,,,,,,,,4,4,44,5,,,,,,,,,,,,,,,AMSA18.jpg,AMNE12.jpg,AMSA10.jpg,AMNE15.jpg,AMNE12.jpg,MN,1,num_6,32,num_4,0.616765401137,,,2017_Dec_20_1529,59.99949965,MAFE4ImagesEEG,001,202501,
AFNE01.JPG,AFNE01.JPG,AFNE01.JPG,AFNE01.JPG,AFNE01.JPG,AFNE01.JPG,,,,,,,,,4,5,45,3,,,,,,,,,,,,,,,AMSA18.jpg,AMNE04.jpg,AMSA16.jpg,AMNE07.jpg,AMSA16.jpg,MS,2,num_2,32,num_6,0.516790098118,,,2017_Dec_20_1529,59.99949965,MAFE4ImagesEEG,001,202501,
AFNE01.JPG,AFNE01.JPG,AFNE01.JPG,AFNE01.JPG,AFNE01.JPG,AFNE01.JPG,,,,,,,,,4,6,46,2,,,,,,,,,,,,,,,AMSA05.jpg,AMNE03.jpg,AMNE20.jpg,AMSA12.jpg,AMNE03.jpg,MN,1,num_6,32,num_4,0.433331301974,,,2017_Dec_20_1529,59.99949965,MAFE4ImagesEEG,001,202501,
AFNE01.JPG,AFNE01.JPG,AFNE01.JPG,AFNE01.JPG,AFNE01.JPG,AFNE01.JPG,,,,,,,,,4,7,47,1,,,,,,,,,,,,,,,AMNE06.jpg,AMSA15.jpg,AMNE09.jpg,AMSA05.jpg,AMNE09.jpg,MN,1,num_2,32,num_4,0.750121079356,,,2017_Dec_20_1529,59.99949965,MAFE4ImagesEEG,001,202501,
AFNE01.JPG,AFNE01.JPG,AFNE01.JPG,AFNE01.JPG,AFNE01.JPG,AFNE01.JPG,,,,,,,,,4,8,48,6,,,,,,,,,,,,,,,AMSA04.jpg,AMNE01.jpg,AMNE07.jpg,AMSA05.jpg,AMNE07.jpg,MN,1,num_2,32,num_8,0.53350610529,,,2017_Dec_20_1529,59.99949965,MAFE4ImagesEEG,001,202501,
AFNE01.JPG,AFNE01.JPG,AFNE01.JPG,AFNE01.JPG,AFNE01.JPG,AFNE01.JPG,,,,,,,,,4,9,49,0,,,,,,,,,,,,,,,AMNE16.jpg,AMNE19.jpg,AMSA12.jpg,AMSA20.jpg,AMNE19.jpg,MN,1,num_6,32,num_2,0.950123003786,,,2017_Dec_20_1529,59.99949965,MAFE4ImagesEEG,001,202501,
AFNE01.JPG,AFNE01.JPG,AFNE01.JPG,AFNE01.JPG,AFNE01.JPG,AFNE01.JPG,,,,,,,,,5,0,50,8,,,,,,,,,,,,,,,AMSA06.jpg,AMNE05.jpg,AMNE06.jpg,AMSA15.jpg,AMSA15.jpg,MS,2,num_4,16,num_4,0.483491511623,,,2017_Dec_20_1529,59.99949965,MAFE4ImagesEEG,001,202501,
AFNE01.JPG,AFNE01.JPG,AFNE01.JPG,AFNE01.JPG,AFNE01.JPG,AFNE01.JPG,,,,,,,,,5,1,51,9,,,,,,,,,,,,,,,AMSA07.jpg,AMNE20.jpg,AMNE18.jpg,AMSA19.jpg,AMNE18.jpg,MN,1,num_2,32,num_8,0.900126371576,,,2017_Dec_20_1529,59.99949965,MAFE4ImagesEEG,001,202501,
AFNE01.JPG,AFNE01.JPG,AFNE01.JPG,AFNE01.JPG,AFNE01.JPG,AFNE01.JPG,,,,,,,,,5,2,52,3,,,,,,,,,,,,,,,AMNE16.jpg,AMSA01.jpg,AMSA19.jpg,AMNE11.jpg,AMSA01.jpg,MS,2,num_6,32,num_2,0.300174482574,,,2017_Dec_20_1529,59.99949965,MAFE4ImagesEEG,001,202501,
AFNE01.JPG,AFNE01.JPG,AFNE01.JPG,AFNE01.JPG,AFNE01.JPG,AFNE01.JPG,,,,,,,,,5,3,53,6,,,,,,,,,,,,,,,AMNE07.jpg,AMSA02.jpg,AMSA09.jpg,AMNE15.jpg,AMNE15.jpg,MN,1,num_4,32,num_6,0.683449173928,,,2017_Dec_20_1529,59.99949965,MAFE4ImagesEEG,001,202501,
AFNE01.JPG,AFNE01.JPG,AFNE01.JPG,AFNE01.JPG,AFNE01.JPG,AFNE01.JPG,,,,,,,,,5,4,54,5,,,,,,,,,,,,,,,AMSA05.jpg,AMNE02.jpg,AMNE11.jpg,AMSA15.jpg,AMSA05.jpg,MS,2,num_8,16,num_8,0.600144012264,,,2017_Dec_20_1529,59.99949965,MAFE4ImagesEEG,001,202501,
AFNE01.JPG,AFNE01.JPG,AFNE01.JPG,AFNE01.JPG,AFNE01.JPG,AFNE01.JPG,,,,,,,,,5,5,55,4,,,,,,,,,,,,,,,AMNE07.jpg,AMNE20.jpg,AMSA09.jpg,AMSA03.jpg,AMNE07.jpg,MN,1,num_8,32,num_2,0.750128135638,,,2017_Dec_20_1529,59.99949965,MAFE4ImagesEEG,001,202501,
AFNE01.JPG,AFNE01.JPG,AFNE01.JPG,AFNE01.JPG,AFNE01.JPG,AFNE01.JPG,,,,,,,,,5,6,56,7,,,,,,,,,,,,,,,AMSA18.jpg,AMSA15.jpg,AMNE01.jpg,AMNE11.jpg,AMNE01.jpg,MN,1,num_2,16,num_2,0.533464088337,,,2017_Dec_20_1529,59.99949965,MAFE4ImagesEEG,001,202501,
AFNE01.JPG,AFNE01.JPG,AFNE01.JPG,AFNE01.JPG,AFNE01.JPG,AFNE01.JPG,,,,,,,,,5,7,57,0,,,,,,,,,,,,,,,AMSA04.jpg,AMNE12.jpg,AMSA19.jpg,AMNE08.jpg,AMSA19.jpg,MS,2,num_2,32,num_4,0.750142568941,,,2017_Dec_20_1529,59.99949965,MAFE4ImagesEEG,001,202501,
AFNE01.JPG,AFNE01.JPG,AFNE01.JPG,AFNE01.JPG,AFNE01.JPG,AFNE01.JPG,,,,,,,,,5,8,58,1,,,,,,,,,,,,,,,AMSA16.jpg,AMNE19.jpg,AMNE12.jpg,AMSA03.jpg,AMNE12.jpg,MN,1,num_2,32,num_6,0.783472267227,,,2017_Dec_20_1529,59.99949965,MAFE4ImagesEEG,001,202501,
AFNE01.JPG,AFNE01.JPG,AFNE01.JPG,AFNE01.JPG,AFNE01.JPG,AFNE01.JPG,,,,,,,,,5,9,59,2,,,,,,,,,,,,,,,AMNE19.jpg,AMNE17.jpg,AMSA03.jpg,AMSA05.jpg,AMNE19.jpg,MN,1,num_8,16,num_8,1.08346200353,,,2017_Dec_20_1529,59.99949965,MAFE4ImagesEEG,001,202501,
,,,,,,,,,,,,,,,,,,,,,,,,,,,,,,,,,,,,,,,,,,,space,26.2984203554,2017_Dec_20_1529,59.99949965,MAFE4ImagesEEG,001,202501,
AFNE01.JPG,AFNE01.JPG,AFNE01.JPG,AFNE01.JPG,AFNE01.JPG,AFNE01.JPG,,,,,,,,,,,,,0,0,0,7,,,,,,,,,,,AFNE20.jpg,AFSA19.jpg,AFNE11.jpg,AFSA03.jpg,AFNE11.jpg,FN,3,num_2,16,num_2,1.3667158468,,,2017_Dec_20_1529,59.99949965,MAFE4ImagesEEG,001,202501,
AFNE01.JPG,AFNE01.JPG,AFNE01.JPG,AFNE01.JPG,AFNE01.JPG,AFNE01.JPG,,,,,,,,,,,,,0,1,1,8,,,,,,,,,,,AFSA13.jpg,AFNE14.jpg,AFNE13.jpg,AFSA20.jpg,AFSA13.jpg,FS,4,num_8,16,num_8,0.600144653756,,,2017_Dec_20_1529,59.99949965,MAFE4ImagesEEG,001,202501,
AFNE01.JPG,AFNE01.JPG,AFNE01.JPG,AFNE01.JPG,AFNE01.JPG,AFNE01.JPG,,,,,,,,,,,,,0,2,2,5,,,,,,,,,,,AFSA18.jpg,AFSA12.jpg,AFNE18.jpg,AFNE09.jpg,AFNE09.jpg,FN,3,num_4,16,num_4,1.03323315554,,,2017_Dec_20_1529,59.99949965,MAFE4ImagesEEG,001,202501,
AFNE01.JPG,AFNE01.JPG,AFNE01.JPG,AFNE01.JPG,AFNE01.JPG,AFNE01.JPG,,,,,,,,,,,,,0,3,3,6,,,,,,,,,,,AFNE03.jpg,AFNE08.jpg,AFSA03.jpg,AFSA02.jpg,AFSA02.jpg,FS,4,num_4,32,num_8,0.833432976564,,,2017_Dec_20_1529,59.99949965,MAFE4ImagesEEG,001,202501,
AFNE01.JPG,AFNE01.JPG,AFNE01.JPG,AFNE01.JPG,AFNE01.JPG,AFNE01.JPG,,,,,,,,,,,,,0,4,4,3,,,,,,,,,,,AFNE10.jpg,AFSA10.jpg,AFNE08.jpg,AFSA08.jpg,AFNE10.jpg,FN,3,num_8,32,num_6,0.733519576374,,,2017_Dec_20_1529,59.99949965,MAFE4ImagesEEG,001,202501,
AFNE01.JPG,AFNE01.JPG,AFNE01.JPG,AFNE01.JPG,AFNE01.JPG,AFNE01.JPG,,,,,,,,,,,,,0,5,5,4,,,,,,,,,,,AFNE05.jpg,AFSA13.jpg,AFSA04.jpg,AFNE01.jpg,AFNE05.jpg,FN,3,num_8,32,num_6,0.650157964454,,,2017_Dec_20_1529,59.99949965,MAFE4ImagesEEG,001,202501,
AFNE01.JPG,AFNE01.JPG,AFNE01.JPG,AFNE01.JPG,AFNE01.JPG,AFNE01.JPG,,,,,,,,,,,,,0,6,6,1,,,,,,,,,,,AFNE08.jpg,AFNE13.jpg,AFSA14.jpg,AFSA12.jpg,AFSA14.jpg,FS,4,num_2,16,num_2,0.766822653226,,,2017_Dec_20_1529,59.99949965,MAFE4ImagesEEG,001,202501,
AFNE01.JPG,AFNE01.JPG,AFNE01.JPG,AFNE01.JPG,AFNE01.JPG,AFNE01.JPG,,,,,,,,,,,,,0,7,7,9,,,,,,,,,,,AFSA20.jpg,AFNE02.jpg,AFSA05.jpg,AFNE07.jpg,AFSA20.jpg,FS,4,num_8,32,num_6,0.833561914056,,,2017_Dec_20_1529,59.99949965,MAFE4ImagesEEG,001,202501,
AFNE01.JPG,AFNE01.JPG,AFNE01.JPG,AFNE01.JPG,AFNE01.JPG,AFNE01.JPG,,,,,,,,,,,,,0,8,8,2,,,,,,,,,,,AFSA01.jpg,AFSA14.jpg,AFNE19.jpg,AFNE04.jpg,AFSA14.jpg,FS,4,num_6,32,num_4,0.600145615972,,,2017_Dec_20_1529,59.99949965,MAFE4ImagesEEG,001,202501,
AFNE01.JPG,AFNE01.JPG,AFNE01.JPG,AFNE01.JPG,AFNE01.JPG,AFNE01.JPG,,,,,,,,,,,,,0,9,9,0,,,,,,,,,,,AFNE13.jpg,AFSA15.jpg,AFNE08.jpg,AFSA18.jpg,AFSA18.jpg,FS,4,num_4,32,num_6,0.683469701296,,,2017_Dec_20_1529,59.99949965,MAFE4ImagesEEG,001,202501,
AFNE01.JPG,AFNE01.JPG,AFNE01.JPG,AFNE01.JPG,AFNE01.JPG,AFNE01.JPG,,,,,,,,,,,,,1,0,10,9,,,,,,,,,,,AFNE05.jpg,AFSA06.jpg,AFNE04.jpg,AFSA16.jpg,AFNE05.jpg,FN,3,num_8,16,num_8,0.88347804053,,,2017_Dec_20_1529,59.99949965,MAFE4ImagesEEG,001,202501,
AFNE01.JPG,AFNE01.JPG,AFNE01.JPG,AFNE01.JPG,AFNE01.JPG,AFNE01.JPG,,,,,,,,,,,,,1,1,11,6,,,,,,,,,,,AFSA10.jpg,AFNE07.jpg,AFNE09.jpg,AFSA02.jpg,AFSA02.jpg,FS,4,num_4,16,num_4,0.833433618041,,,2017_Dec_20_1529,59.99949965,MAFE4ImagesEEG,001,202501,
AFNE01.JPG,AFNE01.JPG,AFNE01.JPG,AFNE01.JPG,AFNE01.JPG,AFNE01.JPG,,,,,,,,,,,,,1,2,12,2,,,,,,,,,,,AFNE10.jpg,AFSA01.jpg,AFSA08.jpg,AFNE13.jpg,AFNE13.jpg,FN,3,num_4,32,num_2,0.866684735025,,,2017_Dec_20_1529,59.99949965,MAFE4ImagesEEG,001,202501,
AFNE01.JPG,AFNE01.JPG,AFNE01.JPG,AFNE01.JPG,AFNE01.JPG,AFNE01.JPG,,,,,,,,,,,,,1,3,13,1,,,,,,,,,,,AFNE10.jpg,AFSA18.jpg,AFNE04.jpg,AFSA11.jpg,AFSA18.jpg,FS,4,num_6,16,num_6,0.783483493113,,,2017_Dec_20_1529,59.99949965,MAFE4ImagesEEG,001,202501,
AFNE01.JPG,AFNE01.JPG,AFNE01.JPG,AFNE01.JPG,AFNE01.JPG,AFNE01.JPG,,,,,,,,,,,,,1,4,14,8,,,,,,,,,,,AFNE12.jpg,AFNE15.jpg,AFSA14.jpg,AFSA06.jpg,AFNE15.jpg,FN,3,num_6,32,num_8,0.683433457671,,,2017_Dec_20_1529,59.99949965,MAFE4ImagesEEG,001,202501,
AFNE01.JPG,AFNE01.JPG,AFNE01.JPG,AFNE01.JPG,AFNE01.JPG,AFNE01.JPG,,,,,,,,,,,,,1,5,15,7,,,,,,,,,,,AFNE04.jpg,AFSA10.jpg,AFNE19.jpg,AFSA20.jpg,AFSA20.jpg,FS,4,num_4,32,num_2,1.10010231606,,,2017_Dec_20_1529,59.99949965,MAFE4ImagesEEG,001,202501,
AFNE01.JPG,AFNE01.JPG,AFNE01.JPG,AFNE01.JPG,AFNE01.JPG,AFNE01.JPG,,,,,,,,,,,,,1,6,16,5,,,,,,,,,,,AFNE16.jpg,AFSA05.jpg,AFSA10.jpg,AFNE01.jpg,AFNE01.jpg,FN,3,num_4,32,num_8,0.283473550182,,,2017_Dec_20_1529,59.99949965,MAFE4ImagesEEG,001,202501,
AFNE01.JPG,AFNE01.JPG,AFNE01.JPG,AFNE01.JPG,AFNE01.JPG,AFNE01.JPG,,,,,,,,,,,,,1,7,17,0,,,,,,,,,,,AFNE18.jpg,AFSA11.jpg,AFSA05.jpg,AFNE03.jpg,AFSA11.jpg,FS,4,num_6,32,num_4,0.783464569453,,,2017_Dec_20_1529,59.99949965,MAFE4ImagesEEG,001,202501,
AFNE01.JPG,AFNE01.JPG,AFNE01.JPG,AFNE01.JPG,AFNE01.JPG,AFNE01.JPG,,,,,,,,,,,,,1,8,18,3,,,,,,,,,,,AFNE15.jpg,AFSA05.jpg,AFNE05.jpg,AFSA13.jpg,AFSA05.jpg,FS,4,num_6,16,num_6,1.03372228406,,,2017_Dec_20_1529,59.99949965,MAFE4ImagesEEG,001,202501,
AFNE01.JPG,AFNE01.JPG,AFNE01.JPG,AFNE01.JPG,AFNE01.JPG,AFNE01.JPG,,,,,,,,,,,,,1,9,19,4,,,,,,,,,,,AFNE04.jpg,AFNE06.jpg,AFSA11.jpg,AFSA10.jpg,AFSA10.jpg,FS,4,num_4,32,num_8,1.46673316677,,,2017_Dec_20_1529,59.99949965,MAFE4ImagesEEG,001,202501,
AFNE01.JPG,AFNE01.JPG,AFNE01.JPG,AFNE01.JPG,AFNE01.JPG,AFNE01.JPG,,,,,,,,,,,,,2,0,20,5,,,,,,,,,,,AFNE11.jpg,AFSA03.jpg,AFSA19.jpg,AFNE13.jpg,AFSA19.jpg,FS,4,num_2,16,num_2,1.03340924181,,,2017_Dec_20_1529,59.99949965,MAFE4ImagesEEG,001,202501,
AFNE01.JPG,AFNE01.JPG,AFNE01.JPG,AFNE01.JPG,AFNE01.JPG,AFNE01.JPG,,,,,,,,,,,,,2,1,21,8,,,,,,,,,,,AFSA10.jpg,AFSA17.jpg,AFNE08.jpg,AFNE01.jpg,AFNE08.jpg,FN,3,num_2,32,num_6,0.483554376668,,,2017_Dec_20_1529,59.99949965,MAFE4ImagesEEG,001,202501,
AFNE01.JPG,AFNE01.JPG,AFNE01.JPG,AFNE01.JPG,AFNE01.JPG,AFNE01.JPG,,,,,,,,,,,,,2,2,22,7,,,,,,,,,,,AFNE01.jpg,AFSA05.jpg,AFNE03.jpg,AFSA02.jpg,AFSA05.jpg,FS,4,num_6,32,num_4,0.683499209379,,,2017_Dec_20_1529,59.99949965,MAFE4ImagesEEG,001,202501,
AFNE01.JPG,AFNE01.JPG,AFNE01.JPG,AFNE01.JPG,AFNE01.JPG,AFNE01.JPG,,,,,,,,,,,,,2,3,23,9,,,,,,,,,,,AFSA16.jpg,AFNE04.jpg,AFSA15.jpg,AFNE06.jpg,AFNE04.jpg,FN,3,num_6,32,num_2,0.666789937735,,,2017_Dec_20_1529,59.99949965,MAFE4ImagesEEG,001,202501,
AFNE01.JPG,AFNE01.JPG,AFNE01.JPG,AFNE01.JPG,AFNE01.JPG,AFNE01.JPG,,,,,,,,,,,,,2,4,24,3,,,,,,,,,,,AFNE09.jpg,AFSA20.jpg,AFNE20.jpg,AFSA08.jpg,AFNE20.jpg,FN,3,num_2,32,num_6,1.25008740166,,,2017_Dec_20_1529,59.99949965,MAFE4ImagesEEG,001,202501,
AFNE01.JPG,AFNE01.JPG,AFNE01.JPG,AFNE01.JPG,AFNE01.JPG,AFNE01.JPG,,,,,,,,,,,,,2,5,25,2,,,,,,,,,,,AFNE05.jpg,AFNE04.jpg,AFSA15.jpg,AFSA05.jpg,AFSA05.jpg,FS,4,num_4,32,num_8,0.566831954682,,,2017_Dec_20_1529,59.99949965,MAFE4ImagesEEG,001,202501,
AFNE01.JPG,AFNE01.JPG,AFNE01.JPG,AFNE01.JPG,AFNE01.JPG,AFNE01.JPG,,,,,,,,,,,,,2,6,26,1,,,,,,,,,,,AFSA16.jpg,AFNE11.jpg,AFNE09.jpg,AFSA05.jpg,AFNE09.jpg,FN,3,num_2,32,num_4,0.950159247412,,,2017_Dec_20_1529,59.99949965,MAFE4ImagesEEG,001,202501,
AFNE01.JPG,AFNE01.JPG,AFNE01.JPG,AFNE01.JPG,AFNE01.JPG,AFNE01.JPG,,,,,,,,,,,,,2,7,27,4,,,,,,,,,,,AFNE07.jpg,AFSA15.jpg,AFNE04.jpg,AFSA16.jpg,AFSA16.jpg,FS,4,num_4,32,num_8,0.616838209127,,,2017_Dec_20_1529,59.99949965,MAFE4ImagesEEG,001,202501,
AFNE01.JPG,AFNE01.JPG,AFNE01.JPG,AFNE01.JPG,AFNE01.JPG,AFNE01.JPG,,,,,,,,,,,,,2,8,28,6,,,,,,,,,,,AFSA08.jpg,AFSA10.jpg,AFNE11.jpg,AFNE20.jpg,AFNE11.jpg,FN,3,num_2,16,num_2,0.416831473587,,,2017_Dec_20_1529,59.99949965,MAFE4ImagesEEG,001,202501,
AFNE01.JPG,AFNE01.JPG,AFNE01.JPG,AFNE01.JPG,AFNE01.JPG,AFNE01.JPG,,,,,,,,,,,,,2,9,29,0,,,,,,,,,,,AFSA07.jpg,AFNE02.jpg,AFSA18.jpg,AFNE16.jpg,AFNE16.jpg,FN,3,num_4,16,num_4,0.716795550688,,,2017_Dec_20_1529,59.99949965,MAFE4ImagesEEG,001,202501,
AFNE01.JPG,AFNE01.JPG,AFNE01.JPG,AFNE01.JPG,AFNE01.JPG,AFNE01.JPG,,,,,,,,,,,,,3,0,30,0,,,,,,,,,,,AFSA12.jpg,AFNE08.jpg,AFSA04.jpg,AFNE20.jpg,AFNE08.jpg,FN,3,num_6,32,num_8,0.516704460533,,,2017_Dec_20_1529,59.99949965,MAFE4ImagesEEG,001,202501,
AFNE01.JPG,AFNE01.JPG,AFNE01.JPG,AFNE01.JPG,AFNE01.JPG,AFNE01.JPG,,,,,,,,,,,,,3,1,31,3,,,,,,,,,,,AFSA12.jpg,AFSA17.jpg,AFNE18.jpg,AFNE12.jpg,AFNE12.jpg,FN,3,num_4,32,num_8,0.583438589514,,,2017_Dec_20_1529,59.99949965,MAFE4ImagesEEG,001,202501,
AFNE01.JPG,AFNE01.JPG,AFNE01.JPG,AFNE01.JPG,AFNE01.JPG,AFNE01.JPG,,,,,,,,,,,,,3,2,32,1,,,,,,,,,,,AFNE03.jpg,AFSA12.jpg,AFSA17.jpg,AFNE10.jpg,AFNE10.jpg,FN,3,num_4,16,num_4,1.06671231866,,,2017_Dec_20_1529,59.99949965,MAFE4ImagesEEG,001,202501,
AFNE01.JPG,AFNE01.JPG,AFNE01.JPG,AFNE01.JPG,AFNE01.JPG,AFNE01.JPG,,,,,,,,,,,,,3,3,33,5,,,,,,,,,,,AFSA08.jpg,AFNE19.jpg,AFNE17.jpg,AFSA07.jpg,AFNE19.jpg,FN,3,num_6,16,num_6,0.583312859439,,,2017_Dec_20_1529,59.99949965,MAFE4ImagesEEG,001,202501,
AFNE01.JPG,AFNE01.JPG,AFNE01.JPG,AFNE01.JPG,AFNE01.JPG,AFNE01.JPG,,,,,,,,,,,,,3,4,34,8,,,,,,,,,,,AFSA06.jpg,AFNE12.jpg,AFSA03.jpg,AFNE04.jpg,AFSA06.jpg,FS,4,num_8,32,num_2,0.500488487043,,,2017_Dec_20_1529,59.99949965,MAFE4ImagesEEG,001,202501,
AFNE01.JPG,AFNE01.JPG,AFNE01.JPG,AFNE01.JPG,AFNE01.JPG,AFNE01.JPG,,,,,,,,,,,,,3,5,35,2,,,,,,,,,,,AFSA09.jpg,AFNE17.jpg,AFSA08.jpg,AFNE15.jpg,AFSA08.jpg,FS,4,num_2,32,num_4,0.833443560987,,,2017_Dec_20_1529,59.99949965,MAFE4ImagesEEG,001,202501,
AFNE01.JPG,AFNE01.JPG,AFNE01.JPG,AFNE01.JPG,AFNE01.JPG,AFNE01.JPG,,,,,,,,,,,,,3,6,36,9,,,,,,,,,,,AFSA08.jpg,AFSA16.jpg,AFNE08.jpg,AFNE01.jpg,AFNE08.jpg,FN,3,num_2,32,num_4,0.483464248711,,,2017_Dec_20_1529,59.99949965,MAFE4ImagesEEG,001,202501,
AFNE01.JPG,AFNE01.JPG,AFNE01.JPG,AFNE01.JPG,AFNE01.JPG,AFNE01.JPG,,,,,,,,,,,,,3,7,37,7,,,,,,,,,,,AFSA05.jpg,AFNE05.jpg,AFSA17.jpg,AFNE20.jpg,AFSA17.jpg,FS,4,num_2,32,num_8,0.550134871184,,,2017_Dec_20_1529,59.99949965,MAFE4ImagesEEG,001,202501,
AFNE01.JPG,AFNE01.JPG,AFNE01.JPG,AFNE01.JPG,AFNE01.JPG,AFNE01.JPG,,,,,,,,,,,,,3,8,38,6,,,,,,,,,,,AFNE20.jpg,AFSA06.jpg,AFSA17.jpg,AFNE12.jpg,AFSA06.jpg,FS,4,num_6,32,num_2,1.18344596654,,,2017_Dec_20_1529,59.99949965,MAFE4ImagesEEG,001,202501,
AFNE01.JPG,AFNE01.JPG,AFNE01.JPG,AFNE01.JPG,AFNE01.JPG,AFNE01.JPG,,,,,,,,,,,,,3,9,39,4,,,,,,,,,,,AFSA10.jpg,AFNE06.jpg,AFSA16.jpg,AFNE08.jpg,AFSA10.jpg,FS,4,num_8,32,num_6,1.16675561857,,,2017_Dec_20_1529,59.99949965,MAFE4ImagesEEG,001,202501,
AFNE01.JPG,AFNE01.JPG,AFNE01.JPG,AFNE01.JPG,AFNE01.JPG,AFNE01.JPG,,,,,,,,,,,,,4,0,40,6,,,,,,,,,,,AFNE14.jpg,AFSA08.jpg,AFNE01.jpg,AFSA01.jpg,AFNE14.jpg,FN,3,num_8,32,num_2,1.05011113641,,,2017_Dec_20_1529,59.99949965,MAFE4ImagesEEG,001,202501,
AFNE01.JPG,AFNE01.JPG,AFNE01.JPG,AFNE01.JPG,AFNE01.JPG,AFNE01.JPG,,,,,,,,,,,,,4,1,41,7,,,,,,,,,,,AFSA16.jpg,AFNE16.jpg,AFNE15.jpg,AFSA06.jpg,AFNE15.jpg,FN,3,num_2,16,num_2,1.43368475747,,,2017_Dec_20_1529,59.99949965,MAFE4ImagesEEG,001,202501,
AFNE01.JPG,AFNE01.JPG,AFNE01.JPG,AFNE01.JPG,AFNE01.JPG,AFNE01.JPG,,,,,,,,,,,,,4,2,42,1,,,,,,,,,,,AFNE11.jpg,AFSA06.jpg,AFSA13.jpg,AFNE06.jpg,AFNE11.jpg,FN,3,num_8,32,num_6,0.966735091206,,,2017_Dec_20_1529,59.99949965,MAFE4ImagesEEG,001,202501,
AFNE01.JPG,AFNE01.JPG,AFNE01.JPG,AFNE01.JPG,AFNE01.JPG,AFNE01.JPG,,,,,,,,,,,,,4,3,43,8,,,,,,,,,,,AFNE15.jpg,AFSA19.jpg,AFNE14.jpg,AFSA03.jpg,AFNE15.jpg,FN,3,num_8,16,num_8,0.733513161569,,,2017_Dec_20_1529,59.99949965,MAFE4ImagesEEG,001,202501,
AFNE01.JPG,AFNE01.JPG,AFNE01.JPG,AFNE01.JPG,AFNE01.JPG,AFNE01.JPG,,,,,,,,,,,,,4,4,44,9,,,,,,,,,,,AFNE10.jpg,AFSA06.jpg,AFNE03.jpg,AFSA19.jpg,AFSA19.jpg,FS,4,num_4,16,num_4,1.00019500992,,,2017_Dec_20_1529,59.99949965,MAFE4ImagesEEG,001,202501,
AFNE01.JPG,AFNE01.JPG,AFNE01.JPG,AFNE01.JPG,AFNE01.JPG,AFNE01.JPG,,,,,,,,,,,,,4,5,45,3,,,,,,,,,,,AFNE04.jpg,AFSA16.jpg,AFNE02.jpg,AFSA03.jpg,AFSA03.jpg,FS,4,num_4,32,num_2,1.28346328648,,,2017_Dec_20_1529,59.99949965,MAFE4ImagesEEG,001,202501,
AFNE01.JPG,AFNE01.JPG,AFNE01.JPG,AFNE01.JPG,AFNE01.JPG,AFNE01.JPG,,,,,,,,,,,,,4,6,46,0,,,,,,,,,,,AFNE03.jpg,AFSA04.jpg,AFSA07.jpg,AFNE01.jpg,AFNE03.jpg,FN,3,num_8,32,num_6,0.683448211712,,,2017_Dec_20_1529,59.99949965,MAFE4ImagesEEG,001,202501,
AFNE01.JPG,AFNE01.JPG,AFNE01.JPG,AFNE01.JPG,AFNE01.JPG,AFNE01.JPG,,,,,,,,,,,,,4,7,47,4,,,,,,,,,,,AFSA16.jpg,AFNE06.jpg,AFNE15.jpg,AFSA05.jpg,AFNE06.jpg,FN,3,num_6,32,num_8,2.54996584119,,,2017_Dec_20_1529,59.99949965,MAFE4ImagesEEG,001,202501,
AFNE01.JPG,AFNE01.JPG,AFNE01.JPG,AFNE01.JPG,AFNE01.JPG,AFNE01.JPG,,,,,,,,,,,,,4,8,48,5,,,,,,,,,,,AFNE01.jpg,AFNE11.jpg,AFSA20.jpg,AFSA14.jpg,AFSA14.jpg,FS,4,num_4,16,num_4,0.666769089643,,,2017_Dec_20_1529,59.99949965,MAFE4ImagesEEG,001,202501,
AFNE01.JPG,AFNE01.JPG,AFNE01.JPG,AFNE01.JPG,AFNE01.JPG,AFNE01.JPG,,,,,,,,,,,,,4,9,49,2,,,,,,,,,,,AFSA17.jpg,AFNE16.jpg,AFNE18.jpg,AFSA01.jpg,AFNE18.jpg,FN,3,num_2,16,num_2,0.700118994544,,,2017_Dec_20_1529,59.99949965,MAFE4ImagesEEG,001,202501,
AFNE01.JPG,AFNE01.JPG,AFNE01.JPG,AFNE01.JPG,AFNE01.JPG,AFNE01.JPG,,,,,,,,,,,,,5,0,50,6,,,,,,,,,,,AFNE04.jpg,AFNE17.jpg,AFSA11.jpg,AFSA13.jpg,AFSA11.jpg,FS,4,num_2,16,num_2,0.716637425867,,,2017_Dec_20_1529,59.99949965,MAFE4ImagesEEG,001,202501,
AFNE01.JPG,AFNE01.JPG,AFNE01.JPG,AFNE01.JPG,AFNE01.JPG,AFNE01.JPG,,,,,,,,,,,,,5,1,51,1,,,,,,,,,,,AFNE12.jpg,AFSA02.jpg,AFSA08.jpg,AFNE07.jpg,AFSA08.jpg,FS,4,num_2,32,num_4,1.00008435461,,,2017_Dec_20_1529,59.99949965,MAFE4ImagesEEG,001,202501,
AFNE01.JPG,AFNE01.JPG,AFNE01.JPG,AFNE01.JPG,AFNE01.JPG,AFNE01.JPG,,,,,,,,,,,,,5,2,52,8,,,,,,,,,,,AFSA04.jpg,AFNE20.jpg,AFSA05.jpg,AFNE09.jpg,AFSA05.jpg,FS,4,num_2,32,num_6,1.18345719243,,,2017_Dec_20_1529,59.99949965,MAFE4ImagesEEG,001,202501,
AFNE01.JPG,AFNE01.JPG,AFNE01.JPG,AFNE01.JPG,AFNE01.JPG,AFNE01.JPG,,,,,,,,,,,,,5,3,53,5,,,,,,,,,,,AFNE18.jpg,AFNE06.jpg,AFSA04.jpg,AFSA16.jpg,AFNE18.jpg,FN,3,num_8,32,num_4,0.66681142732,,,2017_Dec_20_1529,59.99949965,MAFE4ImagesEEG,001,202501,
AFNE01.JPG,AFNE01.JPG,AFNE01.JPG,AFNE01.JPG,AFNE01.JPG,AFNE01.JPG,,,,,,,,,,,,,5,4,54,9,,,,,,,,,,,AFNE17.jpg,AFSA01.jpg,AFNE15.jpg,AFSA15.jpg,AFNE15.jpg,FN,3,num_2,32,num_4,0.667078283004,,,2017_Dec_20_1529,59.99949965,MAFE4ImagesEEG,001,202501,
AFNE01.JPG,AFNE01.JPG,AFNE01.JPG,AFNE01.JPG,AFNE01.JPG,AFNE01.JPG,,,,,,,,,,,,,5,5,55,7,,,,,,,,,,,AFNE17.jpg,AFNE15.jpg,AFSA15.jpg,AFSA16.jpg,AFSA16.jpg,FS,4,num_4,16,num_4,0.566763637064,,,2017_Dec_20_1529,59.99949965,MAFE4ImagesEEG,001,202501,
AFNE01.JPG,AFNE01.JPG,AFNE01.JPG,AFNE01.JPG,AFNE01.JPG,AFNE01.JPG,,,,,,,,,,,,,5,6,56,2,,,,,,,,,,,AFNE09.jpg,AFSA10.jpg,AFNE19.jpg,AFSA07.jpg,AFSA07.jpg,FS,4,num_4,32,num_8,0.533491992726,,,2017_Dec_20_1529,59.99949965,MAFE4ImagesEEG,001,202501,
AFNE01.JPG,AFNE01.JPG,AFNE01.JPG,AFNE01.JPG,AFNE01.JPG,AFNE01.JPG,,,,,,,,,,,,,5,7,57,4,,,,,,,,,,,AFSA02.jpg,AFSA13.jpg,AFNE01.jpg,AFNE18.jpg,AFSA13.jpg,FS,4,num_6,32,num_4,1.05012877712,,,2017_Dec_20_1529,59.99949965,MAFE4ImagesEEG,001,202501,
AFNE01.JPG,AFNE01.JPG,AFNE01.JPG,AFNE01.JPG,AFNE01.JPG,AFNE01.JPG,,,,,,,,,,,,,5,8,58,3,,,,,,,,,,,AFSA15.jpg,AFNE06.jpg,AFNE09.jpg,AFSA16.jpg,AFNE06.jpg,FN,3,num_6,16,num_6,0.400192764748,,,2017_Dec_20_1529,59.99949965,MAFE4ImagesEEG,001,202501,
AFNE01.JPG,AFNE01.JPG,AFNE01.JPG,AFNE01.JPG,AFNE01.JPG,AFNE01.JPG,,,,,,,,,,,,,5,9,59,0,,,,,,,,,,,AFNE17.jpg,AFSA17.jpg,AFSA13.jpg,AFNE15.jpg,AFNE17.jpg,FN,3,num_8,32,num_2,0.9167403834,,,2017_Dec_20_1529,59.99949965,MAFE4ImagesEEG,001,202501,
,,,,,,,,,,,,,,,,,,,,,,,,,,,,,,,,,,,,,,,,,,,space,45.5966736053,2017_Dec_20_1529,59.99949965,MAFE4ImagesEEG,001,202501,
AFNE01.JPG,AFNE01.JPG,AFNE01.JPG,AFNE01.JPG,AFNE01.JPG,AFNE01.JPG,,,,,,,,,,,,,,,,,0,0,0,8,,,,,,,AMSA17.jpg,AMNE18.jpg,AMNE15.jpg,AMSA13.jpg,AMSA13.jpg,MS,2,num_4,16,num_4,0.833474672763,,,2017_Dec_20_1529,59.99949965,MAFE4ImagesEEG,001,202501,
AFNE01.JPG,AFNE01.JPG,AFNE01.JPG,AFNE01.JPG,AFNE01.JPG,AFNE01.JPG,,,,,,,,,,,,,,,,,0,1,1,0,,,,,,,AMSA04.jpg,AMNE07.jpg,AMNE08.jpg,AMSA07.jpg,AMNE08.jpg,MN,1,num_2,16,num_2,0.983433457674,,,2017_Dec_20_1529,59.99949965,MAFE4ImagesEEG,001,202501,
AFNE01.JPG,AFNE01.JPG,AFNE01.JPG,AFNE01.JPG,AFNE01.JPG,AFNE01.JPG,,,,,,,,,,,,,,,,,0,2,2,3,,,,,,,AMSA08.jpg,AMSA01.jpg,AMNE14.jpg,AMNE13.jpg,AMSA08.jpg,MS,2,num_8,32,num_6,0.666777108141,,,2017_Dec_20_1529,59.99949965,MAFE4ImagesEEG,001,202501,
AFNE01.JPG,AFNE01.JPG,AFNE01.JPG,AFNE01.JPG,AFNE01.JPG,AFNE01.JPG,,,,,,,,,,,,,,,,,0,3,3,6,,,,,,,AMSA03.jpg,AMSA13.jpg,AMNE04.jpg,AMNE08.jpg,AMSA03.jpg,MS,2,num_8,32,num_2,0.966822973962,,,2017_Dec_20_1529,59.99949965,MAFE4ImagesEEG,001,202501,
AFNE01.JPG,AFNE01.JPG,AFNE01.JPG,AFNE01.JPG,AFNE01.JPG,AFNE01.JPG,,,,,,,,,,,,,,,,,0,4,4,5,,,,,,,AMNE12.jpg,AMSA04.jpg,AMNE19.jpg,AMSA14.jpg,AMSA14.jpg,MS,2,num_4,32,num_6,0.683471946468,,,2017_Dec_20_1529,59.99949965,MAFE4ImagesEEG,001,202501,
AFNE01.JPG,AFNE01.JPG,AFNE01.JPG,AFNE01.JPG,AFNE01.JPG,AFNE01.JPG,,,,,,,,,,,,,,,,,0,5,5,4,,,,,,,AMSA16.jpg,AMSA17.jpg,AMNE18.jpg,AMNE06.jpg,AMSA17.jpg,MS,2,num_6,32,num_4,0.51680356919,,,2017_Dec_20_1529,59.99949965,MAFE4ImagesEEG,001,202501,
AFNE01.JPG,AFNE01.JPG,AFNE01.JPG,AFNE01.JPG,AFNE01.JPG,AFNE01.JPG,,,,,,,,,,,,,,,,,0,6,6,2,,,,,,,AMSA15.jpg,AMNE03.jpg,AMSA03.jpg,AMNE13.jpg,AMNE13.jpg,MN,1,num_4,32,num_8,1.0834328162,,,2017_Dec_20_1529,59.99949965,MAFE4ImagesEEG,001,202501,
AFNE01.JPG,AFNE01.JPG,AFNE01.JPG,AFNE01.JPG,AFNE01.JPG,AFNE01.JPG,,,,,,,,,,,,,,,,,0,7,7,7,,,,,,,AMSA19.jpg,AMNE17.jpg,AMNE19.jpg,AMSA03.jpg,AMNE17.jpg,MN,1,num_6,32,num_2,0.43347820091,,,2017_Dec_20_1529,59.99949965,MAFE4ImagesEEG,001,202501,
AFNE01.JPG,AFNE01.JPG,AFNE01.JPG,AFNE01.JPG,AFNE01.JPG,AFNE01.JPG,,,,,,,,,,,,,,,,,0,8,8,1,,,,,,,AMNE16.jpg,AMSA05.jpg,AMSA20.jpg,AMNE07.jpg,AMSA05.jpg,MS,2,num_6,32,num_4,0.649991500381,,,2017_Dec_20_1529,59.99949965,MAFE4ImagesEEG,001,202501,
AFNE01.JPG,AFNE01.JPG,AFNE01.JPG,AFNE01.JPG,AFNE01.JPG,AFNE01.JPG,,,,,,,,,,,,,,,,,0,9,9,9,,,,,,,AMNE11.jpg,AMSA12.jpg,AMNE10.jpg,AMSA19.jpg,AMNE11.jpg,MN,1,num_8,32,num_6,0.766796031807,,,2017_Dec_20_1529,59.99949965,MAFE4ImagesEEG,001,202501,
AFNE01.JPG,AFNE01.JPG,AFNE01.JPG,AFNE01.JPG,AFNE01.JPG,AFNE01.JPG,,,,,,,,,,,,,,,,,1,0,10,4,,,,,,,AMNE10.jpg,AMNE03.jpg,AMSA06.jpg,AMSA08.jpg,AMNE03.jpg,MN,1,num_6,32,num_8,0.883539301867,,,2017_Dec_20_1529,59.99949965,MAFE4ImagesEEG,001,202501,
AFNE01.JPG,AFNE01.JPG,AFNE01.JPG,AFNE01.JPG,AFNE01.JPG,AFNE01.JPG,,,,,,,,,,,,,,,,,1,1,11,6,,,,,,,AMSA01.jpg,AMNE09.jpg,AMNE07.jpg,AMSA18.jpg,AMSA01.jpg,MS,2,num_8,16,num_8,0.766792503666,,,2017_Dec_20_1529,59.99949965,MAFE4ImagesEEG,001,202501,
AFNE01.JPG,AFNE01.JPG,AFNE01.JPG,AFNE01.JPG,AFNE01.JPG,AFNE01.JPG,,,,,,,,,,,,,,,,,1,2,12,5,,,,,,,AMNE01.jpg,AMSA01.jpg,AMSA04.jpg,AMNE20.jpg,AMNE01.jpg,MN,1,num_8,16,num_8,0.800076015381,,,2017_Dec_20_1529,59.99949965,MAFE4ImagesEEG,001,202501,
AFNE01.JPG,AFNE01.JPG,AFNE01.JPG,AFNE01.JPG,AFNE01.JPG,AFNE01.JPG,,,,,,,,,,,,,,,,,1,3,13,7,,,,,,,AMSA04.jpg,AMSA11.jpg,AMNE06.jpg,AMNE05.jpg,AMSA04.jpg,MS,2,num_8,32,num_6,1.34998701003,,,2017_Dec_20_1529,59.99949965,MAFE4ImagesEEG,001,202501,
AFNE01.JPG,AFNE01.JPG,AFNE01.JPG,AFNE01.JPG,AFNE01.JPG,AFNE01.JPG,,,,,,,,,,,,,,,,,1,4,14,0,,,,,,,AMNE17.jpg,AMSA20.jpg,AMSA12.jpg,AMNE10.jpg,AMNE10.jpg,MN,1,num_4,16,num_4,0.650142568935,,,2017_Dec_20_1529,59.99949965,MAFE4ImagesEEG,001,202501,
AFNE01.JPG,AFNE01.JPG,AFNE01.JPG,AFNE01.JPG,AFNE01.JPG,AFNE01.JPG,,,,,,,,,,,,,,,,,1,5,15,8,,,,,,,AMSA14.jpg,AMNE18.jpg,AMSA03.jpg,AMNE10.jpg,AMNE18.jpg,MN,1,num_6,16,num_6,1.01687220756,,,2017_Dec_20_1529,59.99949965,MAFE4ImagesEEG,001,202501,
AFNE01.JPG,AFNE01.JPG,AFNE01.JPG,AFNE01.JPG,AFNE01.JPG,AFNE01.JPG,,,,,,,,,,,,,,,,,1,6,16,3,,,,,,,AMSA18.jpg,AMNE06.jpg,AMSA17.jpg,AMNE20.jpg,AMNE20.jpg,MN,1,num_4,16,num_4,0.933699511515,,,2017_Dec_20_1529,59.99949965,MAFE4ImagesEEG,001,202501,
AFNE01.JPG,AFNE01.JPG,AFNE01.JPG,AFNE01.JPG,AFNE01.JPG,AFNE01.JPG,,,,,,,,,,,,,,,,,1,7,17,9,,,,,,,AMSA08.jpg,AMNE09.jpg,AMNE01.jpg,AMSA19.jpg,AMSA19.jpg,MS,2,num_4,32,num_8,0.916746798204,,,2017_Dec_20_1529,59.99949965,MAFE4ImagesEEG,001,202501,
AFNE01.JPG,AFNE01.JPG,AFNE01.JPG,AFNE01.JPG,AFNE01.JPG,AFNE01.JPG,,,,,,,,,,,,,,,,,1,8,18,1,,,,,,,AMNE05.jpg,AMSA10.jpg,AMNE13.jpg,AMSA05.jpg,AMSA05.jpg,MS,2,num_4,32,num_6,0.833458315014,,,2017_Dec_20_1529,59.99949965,MAFE4ImagesEEG,001,202501,
AFNE01.JPG,AFNE01.JPG,AFNE01.JPG,AFNE01.JPG,AFNE01.JPG,AFNE01.JPG,,,,,,,,,,,,,,,,,1,9,19,2,,,,,,,AMNE08.jpg,AMSA06.jpg,AMNE17.jpg,AMSA13.jpg,AMNE17.jpg,MN,1,num_2,16,num_2,0.966785126642,,,2017_Dec_20_1529,59.99949965,MAFE4ImagesEEG,001,202501,
AFNE01.JPG,AFNE01.JPG,AFNE01.JPG,AFNE01.JPG,AFNE01.JPG,AFNE01.JPG,,,,,,,,,,,,,,,,,2,0,20,3,,,,,,,AMSA16.jpg,AMNE06.jpg,AMSA06.jpg,AMNE10.jpg,AMSA16.jpg,MS,2,num_8,32,num_6,0.850113702341,,,2017_Dec_20_1529,59.99949965,MAFE4ImagesEEG,001,202501,
AFNE01.JPG,AFNE01.JPG,AFNE01.JPG,AFNE01.JPG,AFNE01.JPG,AFNE01.JPG,,,,,,,,,,,,,,,,,2,1,21,9,,,,,,,AMSA06.jpg,AMNE01.jpg,AMNE13.jpg,AMSA16.jpg,AMSA06.jpg,MS,2,num_8,32,num_4,0.450128456374,,,2017_Dec_20_1529,59.99949965,MAFE4ImagesEEG,001,202501,
AFNE01.JPG,AFNE01.JPG,AFNE01.JPG,AFNE01.JPG,AFNE01.JPG,AFNE01.JPG,,,,,,,,,,,,,,,,,2,2,22,4,,,,,,,AMNE17.jpg,AMSA04.jpg,AMSA01.jpg,AMNE02.jpg,AMNE02.jpg,MN,1,num_4,16,num_4,0.550125248978,,,2017_Dec_20_1529,59.99949965,MAFE4ImagesEEG,001,202501,
AFNE01.JPG,AFNE01.JPG,AFNE01.JPG,AFNE01.JPG,AFNE01.JPG,AFNE01.JPG,,,,,,,,,,,,,,,,,2,3,23,2,,,,,,,AMSA20.jpg,AMNE01.jpg,AMSA07.jpg,AMNE05.jpg,AMNE01.jpg,MN,1,num_6,16,num_6,0.633487823114,,,2017_Dec_20_1529,59.99949965,MAFE4ImagesEEG,001,202501,
AFNE01.JPG,AFNE01.JPG,AFNE01.JPG,AFNE01.JPG,AFNE01.JPG,AFNE01.JPG,,,,,,,,,,,,,,,,,2,4,24,6,,,,,,,AMSA17.jpg,AMSA05.jpg,AMNE13.jpg,AMNE03.jpg,AMNE13.jpg,MN,1,num_2,32,num_4,1.03345350393,,,2017_Dec_20_1529,59.99949965,MAFE4ImagesEEG,001,202501,
AFNE01.JPG,AFNE01.JPG,AFNE01.JPG,AFNE01.JPG,AFNE01.JPG,AFNE01.JPG,,,,,,,,,,,,,,,,,2,5,25,7,,,,,,,AMNE08.jpg,AMNE13.jpg,AMSA11.jpg,AMSA09.jpg,AMNE13.jpg,MN,1,num_6,32,num_8,0.59983930926,,,2017_Dec_20_1529,59.99949965,MAFE4ImagesEEG,001,202501,
AFNE01.JPG,AFNE01.JPG,AFNE01.JPG,AFNE01.JPG,AFNE01.JPG,AFNE01.JPG,,,,,,,,,,,,,,,,,2,6,26,0,,,,,,,AMSA10.jpg,AMNE07.jpg,AMSA14.jpg,AMNE09.jpg,AMSA10.jpg,MS,2,num_8,32,num_6,0.833450617254,,,2017_Dec_20_1529,59.99949965,MAFE4ImagesEEG,001,202501,
AFNE01.JPG,AFNE01.JPG,AFNE01.JPG,AFNE01.JPG,AFNE01.JPG,AFNE01.JPG,,,,,,,,,,,,,,,,,2,7,27,5,,,,,,,AMSA13.jpg,AMNE12.jpg,AMSA05.jpg,AMNE14.jpg,AMNE12.jpg,MN,1,num_6,32,num_4,0.583336594194,,,2017_Dec_20_1529,59.99949965,MAFE4ImagesEEG,001,202501,
AFNE01.JPG,AFNE01.JPG,AFNE01.JPG,AFNE01.JPG,AFNE01.JPG,AFNE01.JPG,,,,,,,,,,,,,,,,,2,8,28,8,,,,,,,AMNE06.jpg,AMSA02.jpg,AMSA18.jpg,AMNE10.jpg,AMSA18.jpg,MS,2,num_2,32,num_8,1.16674599636,,,2017_Dec_20_1529,59.99949965,MAFE4ImagesEEG,001,202501,
AFNE01.JPG,AFNE01.JPG,AFNE01.JPG,AFNE01.JPG,AFNE01.JPG,AFNE01.JPG,,,,,,,,,,,,,,,,,2,9,29,1,,,,,,,AMNE02.jpg,AMSA19.jpg,AMNE18.jpg,AMSA16.jpg,AMSA16.jpg,MS,2,num_4,32,num_6,0.966717129762,,,2017_Dec_20_1529,59.99949965,MAFE4ImagesEEG,001,202501,
AFNE01.JPG,AFNE01.JPG,AFNE01.JPG,AFNE01.JPG,AFNE01.JPG,AFNE01.JPG,,,,,,,,,,,,,,,,,3,0,30,7,,,,,,,AMNE02.jpg,AMSA07.jpg,AMNE04.jpg,AMSA06.jpg,AMSA06.jpg,MS,2,num_4,16,num_4,0.600116428628,,,2017_Dec_20_1529,59.99949965,MAFE4ImagesEEG,001,202501,
AFNE01.JPG,AFNE01.JPG,AFNE01.JPG,AFNE01.JPG,AFNE01.JPG,AFNE01.JPG,,,,,,,,,,,,,,,,,3,1,31,9,,,,,,,AMNE15.jpg,AMSA12.jpg,AMSA06.jpg,AMNE05.jpg,AMSA12.jpg,MS,2,num_6,32,num_2,0.416814795099,,,2017_Dec_20_1529,59.99949965,MAFE4ImagesEEG,001,202501,
AFNE01.JPG,AFNE01.JPG,AFNE01.JPG,AFNE01.JPG,AFNE01.JPG,AFNE01.JPG,,,,,,,,,,,,,,,,,3,2,32,5,,,,,,,AMNE17.jpg,AMNE14.jpg,AMSA09.jpg,AMSA15.jpg,AMNE14.jpg,MN,1,num_6,16,num_6,0.93347435203,,,2017_Dec_20_1529,59.99949965,MAFE4ImagesEEG,001,202501,
AFNE01.JPG,AFNE01.JPG,AFNE01.JPG,AFNE01.JPG,AFNE01.JPG,AFNE01.JPG,,,,,,,,,,,,,,,,,3,3,33,2,,,,,,,AMSA07.jpg,AMSA05.jpg,AMNE12.jpg,AMNE15.jpg,AMNE12.jpg,MN,1,num_2,32,num_8,1.30007505316,,,2017_Dec_20_1529,59.99949965,MAFE4ImagesEEG,001,202501,
AFNE01.JPG,AFNE01.JPG,AFNE01.JPG,AFNE01.JPG,AFNE01.JPG,AFNE01.JPG,,,,,,,,,,,,,,,,,3,4,34,6,,,,,,,AMNE18.jpg,AMSA15.jpg,AMSA07.jpg,AMNE02.jpg,AMNE02.jpg,MN,1,num_4,16,num_4,0.733452220957,,,2017_Dec_20_1529,59.99949965,MAFE4ImagesEEG,001,202501,
AFNE01.JPG,AFNE01.JPG,AFNE01.JPG,AFNE01.JPG,AFNE01.JPG,AFNE01.JPG,,,,,,,,,,,,,,,,,3,5,35,8,,,,,,,AMNE14.jpg,AMSA03.jpg,AMNE07.jpg,AMSA20.jpg,AMNE07.jpg,MN,1,num_2,16,num_2,0.633479804601,,,2017_Dec_20_1529,59.99949965,MAFE4ImagesEEG,001,202501,
AFNE01.JPG,AFNE01.JPG,AFNE01.JPG,AFNE01.JPG,AFNE01.JPG,AFNE01.JPG,,,,,,,,,,,,,,,,,3,6,36,4,,,,,,,AMNE14.jpg,AMSA16.jpg,AMNE04.jpg,AMSA08.jpg,AMSA08.jpg,MS,2,num_4,16,num_4,0.816753533756,,,2017_Dec_20_1529,59.99949965,MAFE4ImagesEEG,001,202501,
AFNE01.JPG,AFNE01.JPG,AFNE01.JPG,AFNE01.JPG,AFNE01.JPG,AFNE01.JPG,,,,,,,,,,,,,,,,,3,7,37,3,,,,,,,AMNE06.jpg,AMNE03.jpg,AMSA19.jpg,AMSA20.jpg,AMSA20.jpg,MS,2,num_4,32,num_6,0.516805172898,,,2017_Dec_20_1529,59.99949965,MAFE4ImagesEEG,001,202501,
AFNE01.JPG,AFNE01.JPG,AFNE01.JPG,AFNE01.JPG,AFNE01.JPG,AFNE01.JPG,,,,,,,,,,,,,,,,,3,8,38,0,,,,,,,AMSA20.jpg,AMSA13.jpg,AMNE18.jpg,AMNE17.jpg,AMSA13.jpg,MS,2,num_6,32,num_4,0.633483012003,,,2017_Dec_20_1529,59.99949965,MAFE4ImagesEEG,001,202501,
AFNE01.JPG,AFNE01.JPG,AFNE01.JPG,AFNE01.JPG,AFNE01.JPG,AFNE01.JPG,,,,,,,,,,,,,,,,,3,9,39,1,,,,,,,AMNE04.jpg,AMNE14.jpg,AMSA01.jpg,AMSA20.jpg,AMSA20.jpg,MS,2,num_4,16,num_4,1.26675786375,,,2017_Dec_20_1529,59.99949965,MAFE4ImagesEEG,001,202501,
AFNE01.JPG,AFNE01.JPG,AFNE01.JPG,AFNE01.JPG,AFNE01.JPG,AFNE01.JPG,,,,,,,,,,,,,,,,,4,0,40,8,,,,,,,AMNE03.jpg,AMNE06.jpg,AMSA15.jpg,AMSA17.jpg,AMSA17.jpg,MS,2,num_4,16,num_4,0.500128937478,,,2017_Dec_20_1529,59.99949965,MAFE4ImagesEEG,001,202501,
AFNE01.JPG,AFNE01.JPG,AFNE01.JPG,AFNE01.JPG,AFNE01.JPG,AFNE01.JPG,,,,,,,,,,,,,,,,,4,1,41,0,,,,,,,AMSA20.jpg,AMSA11.jpg,AMNE10.jpg,AMNE04.jpg,AMNE10.jpg,MN,1,num_2,32,num_8,0.933465050563,,,2017_Dec_20_1529,59.99949965,MAFE4ImagesEEG,001,202501,
AFNE01.JPG,AFNE01.JPG,AFNE01.JPG,AFNE01.JPG,AFNE01.JPG,AFNE01.JPG,,,,,,,,,,,,,,,,,4,2,42,2,,,,,,,AMNE07.jpg,AMSA11.jpg,AMNE02.jpg,AMSA17.jpg,AMSA11.jpg,MS,2,num_6,32,num_2,0.833545877045,,,2017_Dec_20_1529,59.99949965,MAFE4ImagesEEG,001,202501,
AFNE01.JPG,AFNE01.JPG,AFNE01.JPG,AFNE01.JPG,AFNE01.JPG,AFNE01.JPG,,,,,,,,,,,,,,,,,4,3,43,7,,,,,,,AMNE05.jpg,AMSA14.jpg,AMNE13.jpg,AMSA18.jpg,AMSA14.jpg,MS,2,num_6,16,num_6,0.500180576622,,,2017_Dec_20_1529,59.99949965,MAFE4ImagesEEG,001,202501,
AFNE01.JPG,AFNE01.JPG,AFNE01.JPG,AFNE01.JPG,AFNE01.JPG,AFNE01.JPG,,,,,,,,,,,,,,,,,4,4,44,4,,,,,,,AMNE12.jpg,AMNE17.jpg,AMSA06.jpg,AMSA20.jpg,AMNE17.jpg,MN,1,num_6,32,num_4,1.00016261518,,,2017_Dec_20_1529,59.99949965,MAFE4ImagesEEG,001,202501,
AFNE01.JPG,AFNE01.JPG,AFNE01.JPG,AFNE01.JPG,AFNE01.JPG,AFNE01.JPG,,,,,,,,,,,,,,,,,4,5,45,3,,,,,,,AMNE08.jpg,AMSA06.jpg,AMNE14.jpg,AMSA19.jpg,AMNE08.jpg,MN,1,num_8,16,num_8,0.766762354106,,,2017_Dec_20_1529,59.99949965,MAFE4ImagesEEG,001,202501,
AFNE01.JPG,AFNE01.JPG,AFNE01.JPG,AFNE01.JPG,AFNE01.JPG,AFNE01.JPG,,,,,,,,,,,,,,,,,4,6,46,1,,,,,,,AMNE07.jpg,AMSA18.jpg,AMSA06.jpg,AMNE13.jpg,AMSA18.jpg,MS,2,num_6,32,num_2,0.683447890973,,,2017_Dec_20_1529,59.99949965,MAFE4ImagesEEG,001,202501,
AFNE01.JPG,AFNE01.JPG,AFNE01.JPG,AFNE01.JPG,AFNE01.JPG,AFNE01.JPG,,,,,,,,,,,,,,,,,4,7,47,9,,,,,,,AMSA17.jpg,AMSA20.jpg,AMNE02.jpg,AMNE14.jpg,AMSA17.jpg,MS,2,num_8,16,num_8,0.633511237116,,,2017_Dec_20_1529,59.99949965,MAFE4ImagesEEG,001,202501,
AFNE01.JPG,AFNE01.JPG,AFNE01.JPG,AFNE01.JPG,AFNE01.JPG,AFNE01.JPG,,,,,,,,,,,,,,,,,4,8,48,5,,,,,,,AMNE08.jpg,AMSA16.jpg,AMNE11.jpg,AMSA12.jpg,AMNE08.jpg,MN,1,num_8,32,num_4,0.766749524497,,,2017_Dec_20_1529,59.99949965,MAFE4ImagesEEG,001,202501,
AFNE01.JPG,AFNE01.JPG,AFNE01.JPG,AFNE01.JPG,AFNE01.JPG,AFNE01.JPG,,,,,,,,,,,,,,,,,4,9,49,6,,,,,,,AMNE03.jpg,AMSA16.jpg,AMNE14.jpg,AMSA07.jpg,AMNE14.jpg,MN,1,num_2,16,num_2,0.733445164675,,,2017_Dec_20_1529,59.99949965,MAFE4ImagesEEG,001,202501,
AFNE01.JPG,AFNE01.JPG,AFNE01.JPG,AFNE01.JPG,AFNE01.JPG,AFNE01.JPG,,,,,,,,,,,,,,,,,5,0,50,6,,,,,,,AMSA17.jpg,AMNE02.jpg,AMSA01.jpg,AMNE13.jpg,AMNE13.jpg,MN,1,num_4,32,num_2,0.833448051344,,,2017_Dec_20_1529,59.99949965,MAFE4ImagesEEG,001,202501,
AFNE01.JPG,AFNE01.JPG,AFNE01.JPG,AFNE01.JPG,AFNE01.JPG,AFNE01.JPG,,,,,,,,,,,,,,,,,5,1,51,0,,,,,,,AMNE02.jpg,AMNE11.jpg,AMSA02.jpg,AMSA05.jpg,AMSA05.jpg,MS,2,num_4,16,num_4,0.683417099935,,,2017_Dec_20_1529,59.99949965,MAFE4ImagesEEG,001,202501,
AFNE01.JPG,AFNE01.JPG,AFNE01.JPG,AFNE01.JPG,AFNE01.JPG,AFNE01.JPG,,,,,,,,,,,,,,,,,5,2,52,2,,,,,,,AMNE01.jpg,AMSA19.jpg,AMSA06.jpg,AMNE09.jpg,AMNE09.jpg,MN,1,num_4,16,num_4,0.766798918456,,,2017_Dec_20_1529,59.99949965,MAFE4ImagesEEG,001,202501,
AFNE01.JPG,AFNE01.JPG,AFNE01.JPG,AFNE01.JPG,AFNE01.JPG,AFNE01.JPG,,,,,,,,,,,,,,,,,5,3,53,4,,,,,,,AMNE16.jpg,AMSA08.jpg,AMNE13.jpg,AMSA02.jpg,AMNE16.jpg,MN,1,num_8,32,num_6,0.766764920016,,,2017_Dec_20_1529,59.99949965,MAFE4ImagesEEG,001,202501,
AFNE01.JPG,AFNE01.JPG,AFNE01.JPG,AFNE01.JPG,AFNE01.JPG,AFNE01.JPG,,,,,,,,,,,,,,,,,5,4,54,1,,,,,,,AMSA11.jpg,AMNE19.jpg,AMNE17.jpg,AMSA08.jpg,AMSA08.jpg,MS,2,num_4,32,num_8,1.00011257974,,,2017_Dec_20_1529,59.99949965,MAFE4ImagesEEG,001,202501,
AFNE01.JPG,AFNE01.JPG,AFNE01.JPG,AFNE01.JPG,AFNE01.JPG,AFNE01.JPG,,,,,,,,,,,,,,,,,5,5,55,8,,,,,,,AMSA10.jpg,AMNE15.jpg,AMSA05.jpg,AMNE20.jpg,AMNE15.jpg,MN,1,num_6,32,num_4,0.816847189839,,,2017_Dec_20_1529,59.99949965,MAFE4ImagesEEG,001,202501,
AFNE01.JPG,AFNE01.JPG,AFNE01.JPG,AFNE01.JPG,AFNE01.JPG,AFNE01.JPG,,,,,,,,,,,,,,,,,5,6,56,5,,,,,,,AMSA02.jpg,AMSA13.jpg,AMNE17.jpg,AMNE16.jpg,AMNE17.jpg,MN,1,num_2,32,num_6,0.900240554998,,,2017_Dec_20_1529,59.99949965,MAFE4ImagesEEG,001,202501,
AFNE01.JPG,AFNE01.JPG,AFNE01.JPG,AFNE01.JPG,AFNE01.JPG,AFNE01.JPG,,,,,,,,,,,,,,,,,5,7,57,3,,,,,,,AMSA02.jpg,AMSA09.jpg,AMNE12.jpg,AMNE05.jpg,AMNE05.jpg,MN,1,num_4,32,num_2,0.683472908699,,,2017_Dec_20_1529,59.99949965,MAFE4ImagesEEG,001,202501,
AFNE01.JPG,AFNE01.JPG,AFNE01.JPG,AFNE01.JPG,AFNE01.JPG,AFNE01.JPG,,,,,,,,,,,,,,,,,5,8,58,9,,,,,,,AMSA05.jpg,AMNE04.jpg,AMNE15.jpg,AMSA16.jpg,AMNE04.jpg,MN,1,num_6,16,num_6,0.750153794841,,,2017_Dec_20_1529,59.99949965,MAFE4ImagesEEG,001,202501,
AFNE01.JPG,AFNE01.JPG,AFNE01.JPG,AFNE01.JPG,AFNE01.JPG,AFNE01.JPG,,,,,,,,,,,,,,,,,5,9,59,7,,,,,,,AMSA15.jpg,AMNE10.jpg,AMSA12.jpg,AMNE07.jpg,AMSA15.jpg,MS,2,num_8,16,num_8,1.31671889382,,,2017_Dec_20_1529,59.99949965,MAFE4ImagesEEG,001,202501,
,,,,,,,,,,,,,,,,,,,,,,,,,,,,,,,,,,,,,,,,,,,space,34.7475099349,2017_Dec_20_1529,59.99949965,MAFE4ImagesEEG,001,202501,
AFNE01.JPG,AFNE01.JPG,AFNE01.JPG,AFNE01.JPG,AFNE01.JPG,AFNE01.JPG,,,,,,,,,,,,,,,,,,,,,0,0,0,7,,,AFSA07.jpg,AFNE01.jpg,AFNE04.jpg,AFSA05.jpg,AFNE01.jpg,FN,3,num_6,32,num_4,0.516785287007,,,2017_Dec_20_1529,59.99949965,MAFE4ImagesEEG,001,202501,
AFNE01.JPG,AFNE01.JPG,AFNE01.JPG,AFNE01.JPG,AFNE01.JPG,AFNE01.JPG,,,,,,,,,,,,,,,,,,,,,0,1,1,2,,,AFSA01.jpg,AFNE17.jpg,AFSA06.jpg,AFNE10.jpg,AFNE10.jpg,FN,3,num_4,32,num_2,0.883456230222,,,2017_Dec_20_1529,59.99949965,MAFE4ImagesEEG,001,202501,
AFNE01.JPG,AFNE01.JPG,AFNE01.JPG,AFNE01.JPG,AFNE01.JPG,AFNE01.JPG,,,,,,,,,,,,,,,,,,,,,0,2,2,6,,,AFNE09.jpg,AFSA18.jpg,AFNE06.jpg,AFSA07.jpg,AFNE06.jpg,FN,3,num_2,32,num_8,0.866627964046,,,2017_Dec_20_1529,59.99949965,MAFE4ImagesEEG,001,202501,
AFNE01.JPG,AFNE01.JPG,AFNE01.JPG,AFNE01.JPG,AFNE01.JPG,AFNE01.JPG,,,,,,,,,,,,,,,,,,,,,0,3,3,1,,,AFNE18.jpg,AFSA11.jpg,AFSA08.jpg,AFNE02.jpg,AFNE02.jpg,FN,3,num_4,32,num_2,0.566780315537,,,2017_Dec_20_1529,59.99949965,MAFE4ImagesEEG,001,202501,
AFNE01.JPG,AFNE01.JPG,AFNE01.JPG,AFNE01.JPG,AFNE01.JPG,AFNE01.JPG,,,,,,,,,,,,,,,,,,,,,0,4,4,0,,,AFSA07.jpg,AFSA10.jpg,AFNE14.jpg,AFNE02.jpg,AFNE14.jpg,FN,3,num_2,32,num_4,0.333525349692,,,2017_Dec_20_1529,59.99949965,MAFE4ImagesEEG,001,202501,
AFNE01.JPG,AFNE01.JPG,AFNE01.JPG,AFNE01.JPG,AFNE01.JPG,AFNE01.JPG,,,,,,,,,,,,,,,,,,,,,0,5,5,8,,,AFSA20.jpg,AFSA16.jpg,AFNE04.jpg,AFNE18.jpg,AFNE18.jpg,FN,3,num_4,32,num_8,0.633473069058,,,2017_Dec_20_1529,59.99949965,MAFE4ImagesEEG,001,202501,
AFNE01.JPG,AFNE01.JPG,AFNE01.JPG,AFNE01.JPG,AFNE01.JPG,AFNE01.JPG,,,,,,,,,,,,,,,,,,,,,0,6,6,3,,,AFNE17.jpg,AFSA11.jpg,AFNE01.jpg,AFSA01.jpg,AFSA01.jpg,FS,4,num_4,32,num_6,0.800161973704,,,2017_Dec_20_1529,59.99949965,MAFE4ImagesEEG,001,202501,
AFNE01.JPG,AFNE01.JPG,AFNE01.JPG,AFNE01.JPG,AFNE01.JPG,AFNE01.JPG,,,,,,,,,,,,,,,,,,,,,0,7,7,9,,,AFSA04.jpg,AFNE20.jpg,AFNE19.jpg,AFSA07.jpg,AFSA07.jpg,FS,4,num_4,16,num_4,0.650143851904,,,2017_Dec_20_1529,59.99949965,MAFE4ImagesEEG,001,202501,
AFNE01.JPG,AFNE01.JPG,AFNE01.JPG,AFNE01.JPG,AFNE01.JPG,AFNE01.JPG,,,,,,,,,,,,,,,,,,,,,0,8,8,5,,,AFSA16.jpg,AFNE02.jpg,AFSA03.jpg,AFNE01.jpg,AFNE02.jpg,FN,3,num_6,16,num_6,0.750143531157,,,2017_Dec_20_1529,59.99949965,MAFE4ImagesEEG,001,202501,
AFNE01.JPG,AFNE01.JPG,AFNE01.JPG,AFNE01.JPG,AFNE01.JPG,AFNE01.JPG,,,,,,,,,,,,,,,,,,,,,0,9,9,4,,,AFNE06.jpg,AFNE16.jpg,AFSA20.jpg,AFSA13.jpg,AFSA13.jpg,FS,4,num_4,32,num_6,0.700114824926,,,2017_Dec_20_1529,59.99949965,MAFE4ImagesEEG,001,202501,
AFNE01.JPG,AFNE01.JPG,AFNE01.JPG,AFNE01.JPG,AFNE01.JPG,AFNE01.JPG,,,,,,,,,,,,,,,,,,,,,1,0,10,5,,,AFSA13.jpg,AFSA01.jpg,AFNE14.jpg,AFNE16.jpg,AFNE16.jpg,FN,3,num_4,16,num_4,0.450261242731,,,2017_Dec_20_1529,59.99949965,MAFE4ImagesEEG,001,202501,
AFNE01.JPG,AFNE01.JPG,AFNE01.JPG,AFNE01.JPG,AFNE01.JPG,AFNE01.JPG,,,,,,,,,,,,,,,,,,,,,1,1,11,3,,,AFNE15.jpg,AFNE03.jpg,AFSA03.jpg,AFSA16.jpg,AFSA03.jpg,FS,4,num_2,16,num_2,0.716811587699,,,2017_Dec_20_1529,59.99949965,MAFE4ImagesEEG,001,202501,
AFNE01.JPG,AFNE01.JPG,AFNE01.JPG,AFNE01.JPG,AFNE01.JPG,AFNE01.JPG,,,,,,,,,,,,,,,,,,,,,1,2,12,9,,,AFSA08.jpg,AFSA20.jpg,AFNE02.jpg,AFNE05.jpg,AFSA08.jpg,FS,4,num_8,32,num_4,0.550114985293,,,2017_Dec_20_1529,59.99949965,MAFE4ImagesEEG,001,202501,
AFNE01.JPG,AFNE01.JPG,AFNE01.JPG,AFNE01.JPG,AFNE01.JPG,AFNE01.JPG,,,,,,,,,,,,,,,,,,,,,1,3,13,0,,,AFNE01.jpg,AFSA19.jpg,AFNE06.jpg,AFSA12.jpg,AFSA12.jpg,FS,4,num_4,32,num_8,0.967807966532,,,2017_Dec_20_1529,59.99949965,MAFE4ImagesEEG,001,202501,
AFNE01.JPG,AFNE01.JPG,AFNE01.JPG,AFNE01.JPG,AFNE01.JPG,AFNE01.JPG,,,,,,,,,,,,,,,,,,,,,1,4,14,8,,,AFSA11.jpg,AFNE05.jpg,AFSA20.jpg,AFNE02.jpg,AFSA20.jpg,FS,4,num_2,16,num_2,0.366694998695,,,2017_Dec_20_1529,59.99949965,MAFE4ImagesEEG,001,202501,
AFNE01.JPG,AFNE01.JPG,AFNE01.JPG,AFNE01.JPG,AFNE01.JPG,AFNE01.JPG,,,,,,,,,,,,,,,,,,,,,1,5,15,4,,,AFSA02.jpg,AFNE18.jpg,AFNE09.jpg,AFSA09.jpg,AFNE18.jpg,FN,3,num_6,32,num_4,0.45016085112,,,2017_Dec_20_1529,59.99949965,MAFE4ImagesEEG,001,202501,
AFNE01.JPG,AFNE01.JPG,AFNE01.JPG,AFNE01.JPG,AFNE01.JPG,AFNE01.JPG,,,,,,,,,,,,,,,,,,,,,1,6,16,1,,,AFNE05.jpg,AFNE17.jpg,AFSA16.jpg,AFSA15.jpg,AFSA16.jpg,FS,4,num_2,32,num_6,0.983483172386,,,2017_Dec_20_1529,59.99949965,MAFE4ImagesEEG,001,202501,
AFNE01.JPG,AFNE01.JPG,AFNE01.JPG,AFNE01.JPG,AFNE01.JPG,AFNE01.JPG,,,,,,,,,,,,,,,,,,,,,1,7,17,7,,,AFNE04.jpg,AFSA10.jpg,AFNE07.jpg,AFSA14.jpg,AFNE07.jpg,FN,3,num_2,16,num_2,0.999992622979,,,2017_Dec_20_1529,59.99949965,MAFE4ImagesEEG,001,202501,
AFNE01.JPG,AFNE01.JPG,AFNE01.JPG,AFNE01.JPG,AFNE01.JPG,AFNE01.JPG,,,,,,,,,,,,,,,,,,,,,1,8,18,2,,,AFNE03.jpg,AFNE20.jpg,AFSA20.jpg,AFSA15.jpg,AFNE20.jpg,FN,3,num_6,32,num_8,1.10009558054,,,2017_Dec_20_1529,59.99949965,MAFE4ImagesEEG,001,202501,
AFNE01.JPG,AFNE01.JPG,AFNE01.JPG,AFNE01.JPG,AFNE01.JPG,AFNE01.JPG,,,,,,,,,,,,,,,,,,,,,1,9,19,6,,,AFNE06.jpg,AFNE14.jpg,AFSA10.jpg,AFSA20.jpg,AFSA20.jpg,FS,4,num_4,32,num_2,0.600164539617,,,2017_Dec_20_1529,59.99949965,MAFE4ImagesEEG,001,202501,
AFNE01.JPG,AFNE01.JPG,AFNE01.JPG,AFNE01.JPG,AFNE01.JPG,AFNE01.JPG,,,,,,,,,,,,,,,,,,,,,2,0,20,8,,,AFNE03.jpg,AFNE05.jpg,AFSA13.jpg,AFSA17.jpg,AFSA13.jpg,FS,4,num_2,32,num_6,0.816796512911,,,2017_Dec_20_1529,59.99949965,MAFE4ImagesEEG,001,202501,
AFNE01.JPG,AFNE01.JPG,AFNE01.JPG,AFNE01.JPG,AFNE01.JPG,AFNE01.JPG,,,,,,,,,,,,,,,,,,,,,2,1,21,0,,,AFSA06.jpg,AFNE06.jpg,AFSA16.jpg,AFNE12.jpg,AFNE12.jpg,FN,3,num_4,32,num_2,0.566771014084,,,2017_Dec_20_1529,59.99949965,MAFE4ImagesEEG,001,202501,
AFNE01.JPG,AFNE01.JPG,AFNE01.JPG,AFNE01.JPG,AFNE01.JPG,AFNE01.JPG,,,,,,,,,,,,,,,,,,,,,2,2,22,9,,,AFSA20.jpg,AFNE16.jpg,AFSA09.jpg,AFNE18.jpg,AFNE18.jpg,FN,3,num_4,16,num_4,1.10007569465,,,2017_Dec_20_1529,59.99949965,MAFE4ImagesEEG,001,202501,
AFNE01.JPG,AFNE01.JPG,AFNE01.JPG,AFNE01.JPG,AFNE01.JPG,AFNE01.JPG,,,,,,,,,,,,,,,,,,,,,2,3,23,3,,,AFNE07.jpg,AFSA07.jpg,AFNE15.jpg,AFSA16.jpg,AFSA07.jpg,FS,4,num_6,16,num_6,0.883535453002,,,2017_Dec_20_1529,59.99949965,MAFE4ImagesEEG,001,202501,
AFNE01.JPG,AFNE01.JPG,AFNE01.JPG,AFNE01.JPG,AFNE01.JPG,AFNE01.JPG,,,,,,,,,,,,,,,,,,,,,2,4,24,4,,,AFNE11.jpg,AFSA08.jpg,AFSA13.jpg,AFNE02.jpg,AFNE02.jpg,FN,3,num_4,32,num_6,0.633459597972,,,2017_Dec_20_1529,59.99949965,MAFE4ImagesEEG,001,202501,
AFNE01.JPG,AFNE01.JPG,AFNE01.JPG,AFNE01.JPG,AFNE01.JPG,AFNE01.JPG,,,,,,,,,,,,,,,,,,,,,2,5,25,6,,,AFNE18.jpg,AFSA09.jpg,AFSA15.jpg,AFNE09.jpg,AFNE18.jpg,FN,3,num_8,32,num_4,0.666805974746,,,2017_Dec_20_1529,59.99949965,MAFE4ImagesEEG,001,202501,
AFNE01.JPG,AFNE01.JPG,AFNE01.JPG,AFNE01.JPG,AFNE01.JPG,AFNE01.JPG,,,,,,,,,,,,,,,,,,,,,2,6,26,1,,,AFNE08.jpg,AFNE20.jpg,AFSA07.jpg,AFSA14.jpg,AFSA07.jpg,FS,4,num_2,16,num_2,1.13345125875,,,2017_Dec_20_1529,59.99949965,MAFE4ImagesEEG,001,202501,
AFNE01.JPG,AFNE01.JPG,AFNE01.JPG,AFNE01.JPG,AFNE01.JPG,AFNE01.JPG,,,,,,,,,,,,,,,,,,,,,2,7,27,5,,,AFNE18.jpg,AFNE15.jpg,AFSA07.jpg,AFSA18.jpg,AFNE18.jpg,FN,3,num_8,16,num_8,0.683458154657,,,2017_Dec_20_1529,59.99949965,MAFE4ImagesEEG,001,202501,
AFNE01.JPG,AFNE01.JPG,AFNE01.JPG,AFNE01.JPG,AFNE01.JPG,AFNE01.JPG,,,,,,,,,,,,,,,,,,,,,2,8,28,7,,,AFNE09.jpg,AFNE20.jpg,AFSA01.jpg,AFSA02.jpg,AFSA01.jpg,FS,4,num_2,32,num_4,0.516777268524,,,2017_Dec_20_1529,59.99949965,MAFE4ImagesEEG,001,202501,
AFNE01.JPG,AFNE01.JPG,AFNE01.JPG,AFNE01.JPG,AFNE01.JPG,AFNE01.JPG,,,,,,,,,,,,,,,,,,,,,2,9,29,2,,,AFNE06.jpg,AFSA06.jpg,AFNE20.jpg,AFSA14.jpg,AFSA06.jpg,FS,4,num_6,32,num_2,0.383480927194,,,2017_Dec_20_1529,59.99949965,MAFE4ImagesEEG,001,202501,
AFNE01.JPG,AFNE01.JPG,AFNE01.JPG,AFNE01.JPG,AFNE01.JPG,AFNE01.JPG,,,,,,,,,,,,,,,,,,,,,3,0,30,1,,,AFNE08.jpg,AFNE07.jpg,AFSA05.jpg,AFSA15.jpg,AFNE08.jpg,FN,3,num_8,32,num_6,0.467032096451,,,2017_Dec_20_1529,59.99949965,MAFE4ImagesEEG,001,202501,
AFNE01.JPG,AFNE01.JPG,AFNE01.JPG,AFNE01.JPG,AFNE01.JPG,AFNE01.JPG,,,,,,,,,,,,,,,,,,,,,3,1,31,8,,,AFSA20.jpg,AFSA13.jpg,AFNE12.jpg,AFNE06.jpg,AFSA20.jpg,FS,4,num_8,32,num_2,0.55046427116,,,2017_Dec_20_1529,59.99949965,MAFE4ImagesEEG,001,202501,
AFNE01.JPG,AFNE01.JPG,AFNE01.JPG,AFNE01.JPG,AFNE01.JPG,AFNE01.JPG,,,,,,,,,,,,,,,,,,,,,3,2,32,2,,,AFSA19.jpg,AFNE09.jpg,AFSA12.jpg,AFNE20.jpg,AFSA19.jpg,FS,4,num_8,32,num_6,0.500161011485,,,2017_Dec_20_1529,59.99949965,MAFE4ImagesEEG,001,202501,
AFNE01.JPG,AFNE01.JPG,AFNE01.JPG,AFNE01.JPG,AFNE01.JPG,AFNE01.JPG,,,,,,,,,,,,,,,,,,,,,3,3,33,7,,,AFSA17.jpg,AFSA11.jpg,AFNE17.jpg,AFNE04.jpg,AFSA17.jpg,FS,4,num_8,32,num_4,0.733421429919,,,2017_Dec_20_1529,59.99949965,MAFE4ImagesEEG,001,202501,
AFNE01.JPG,AFNE01.JPG,AFNE01.JPG,AFNE01.JPG,AFNE01.JPG,AFNE01.JPG,,,,,,,,,,,,,,,,,,,,,3,4,34,9,,,AFNE13.jpg,AFNE07.jpg,AFSA14.jpg,AFSA19.jpg,AFSA19.jpg,FS,4,num_4,32,num_8,0.55014609707,,,2017_Dec_20_1529,59.99949965,MAFE4ImagesEEG,001,202501,
AFNE01.JPG,AFNE01.JPG,AFNE01.JPG,AFNE01.JPG,AFNE01.JPG,AFNE01.JPG,,,,,,,,,,,,,,,,,,,,,3,5,35,3,,,AFNE12.jpg,AFNE04.jpg,AFSA10.jpg,AFSA12.jpg,AFNE12.jpg,FN,3,num_8,32,num_2,0.433482370529,,,2017_Dec_20_1529,59.99949965,MAFE4ImagesEEG,001,202501,
AFNE01.JPG,AFNE01.JPG,AFNE01.JPG,AFNE01.JPG,AFNE01.JPG,AFNE01.JPG,,,,,,,,,,,,,,,,,,,,,3,6,36,5,,,AFSA20.jpg,AFSA11.jpg,AFNE03.jpg,AFNE17.jpg,AFSA11.jpg,FS,4,num_6,16,num_6,0.500194689186,,,2017_Dec_20_1529,59.99949965,MAFE4ImagesEEG,001,202501,
AFNE01.JPG,AFNE01.JPG,AFNE01.JPG,AFNE01.JPG,AFNE01.JPG,AFNE01.JPG,,,,,,,,,,,,,,,,,,,,,3,7,37,0,,,AFSA06.jpg,AFNE01.jpg,AFSA17.jpg,AFNE12.jpg,AFSA17.jpg,FS,4,num_2,32,num_4,0.583491190875,,,2017_Dec_20_1529,59.99949965,MAFE4ImagesEEG,001,202501,
AFNE01.JPG,AFNE01.JPG,AFNE01.JPG,AFNE01.JPG,AFNE01.JPG,AFNE01.JPG,,,,,,,,,,,,,,,,,,,,,3,8,38,4,,,AFNE13.jpg,AFNE18.jpg,AFSA20.jpg,AFSA03.jpg,AFNE13.jpg,FN,3,num_8,32,num_4,0.716754175228,,,2017_Dec_20_1529,59.99949965,MAFE4ImagesEEG,001,202501,
AFNE01.JPG,AFNE01.JPG,AFNE01.JPG,AFNE01.JPG,AFNE01.JPG,AFNE01.JPG,,,,,,,,,,,,,,,,,,,,,3,9,39,6,,,AFNE14.jpg,AFSA12.jpg,AFNE02.jpg,AFSA11.jpg,AFNE14.jpg,FN,3,num_8,32,num_6,0.733214873355,,,2017_Dec_20_1529,59.99949965,MAFE4ImagesEEG,001,202501,
AFNE01.JPG,AFNE01.JPG,AFNE01.JPG,AFNE01.JPG,AFNE01.JPG,AFNE01.JPG,,,,,,,,,,,,,,,,,,,,,4,0,40,4,,,AFNE15.jpg,AFSA08.jpg,AFSA03.jpg,AFNE02.jpg,AFSA08.jpg,FS,4,num_6,32,num_2,1.36676941039,,,2017_Dec_20_1529,59.99949965,MAFE4ImagesEEG,001,202501,
AFNE01.JPG,AFNE01.JPG,AFNE01.JPG,AFNE01.JPG,AFNE01.JPG,AFNE01.JPG,,,,,,,,,,,,,,,,,,,,,4,1,41,1,,,AFNE13.jpg,AFSA06.jpg,AFSA07.jpg,AFNE18.jpg,AFNE13.jpg,FN,3,num_8,16,num_8,0.400204311387,,,2017_Dec_20_1529,59.99949965,MAFE4ImagesEEG,001,202501,
