IPosition2,IPosition3,IPosition1,IPosition6,IPosition4,IPosition5,TrialsM1.thisRepN,TrialsM1.thisTrialN,TrialsM1.thisN,TrialsM1.thisIndex,TrialsF1.thisRepN,TrialsF1.thisTrialN,TrialsF1.thisN,TrialsF1.thisIndex,TrialsM2.thisRepN,TrialsM2.thisTrialN,TrialsM2.thisN,TrialsM2.thisIndex,TrialsF2.thisRepN,TrialsF2.thisTrialN,TrialsF2.thisN,TrialsF2.thisIndex,TrialsM3.thisRepN,TrialsM3.thisTrialN,TrialsM3.thisN,TrialsM3.thisIndex,TrialsF3.thisRepN,TrialsF3.thisTrialN,TrialsF3.thisN,TrialsF3.thisIndex,InstrKey_resp.keys,InstrKey_resp.rt,Image0 _Position,Image1 _Position,Image2 _Position,Image3 _Position,Center_image,condition,code,correct_answer,accuracy,Key_Resp.keys,Key_Resp.rt,BreakKey_resp.keys,BreakKey_resp.rt,date,frameRate,expName,session,participant,
,,,,,,,,,,,,,,,,,,,,,,,,,,,,,,space,11.6660113966,,,,,,,,,,,,,,2017_Dec_12_1752,59.9930727937,MAFE4ImagesEEG,001,202500,
AMNE22.JPG,AMSA24.JPG,AMSA22.JPG,AMNE25.JPG,AMNE24.JPG,AMSA25.JPG,0,0,0,7,,,,,,,,,,,,,,,,,,,,,,,AMSA13.jpg,AMNE09.jpg,AMSA14.jpg,AMNE20.jpg,AMNE09.jpg,MN,1,num_6,32,num_8,2.19997126167,,,2017_Dec_12_1752,59.9930727937,MAFE4ImagesEEG,001,202500,
AFSA21.JPG,AFNE22.JPG,AFNE21.JPG,AFSA23.JPG,AFSA22.JPG,AFNE23.JPG,0,1,1,0,,,,,,,,,,,,,,,,,,,,,,,AMSA07.jpg,AMNE10.jpg,AMSA19.jpg,AMNE20.jpg,AMNE10.jpg,MN,1,num_6,32,num_4,1.20010404778,,,2017_Dec_12_1752,59.9930727937,MAFE4ImagesEEG,001,202500,
AMNE23.JPG,AMNE24.JPG,AMNE22.JPG,AMSA24.JPG,AMSA22.JPG,AMSA23.JPG,0,2,2,9,,,,,,,,,,,,,,,,,,,,,,,AMSA05.jpg,AMNE12.jpg,AMSA02.jpg,AMNE05.jpg,AMSA02.jpg,MS,2,num_2,16,num_2,0.966771099251,,,2017_Dec_12_1752,59.9930727937,MAFE4ImagesEEG,001,202500,
AMSA25.JPG,AMNE24.JPG,AMSA24.JPG,AMNE26.JPG,AMSA21.JPG,AMNE25.JPG,0,3,3,3,,,,,,,,,,,,,,,,,,,,,,,AMNE09.jpg,AMNE11.jpg,AMSA09.jpg,AMSA04.jpg,AMNE09.jpg,MN,1,num_8,16,num_8,1.71668081149,,,2017_Dec_12_1752,59.9930727937,MAFE4ImagesEEG,001,202500,
AMSA21.JPG,AMNE23.JPG,AMNE21.JPG,AMSA25.JPG,AMNE25.JPG,AMSA23.JPG,0,4,4,5,,,,,,,,,,,,,,,,,,,,,,,AMNE15.jpg,AMNE06.jpg,AMSA06.jpg,AMSA16.jpg,AMNE15.jpg,MN,1,num_8,32,num_4,1.00024183723,,,2017_Dec_12_1752,59.9930727937,MAFE4ImagesEEG,001,202500,
AFSA21.JPG,AFNE23.JPG,AFNE21.JPG,AFSA25.JPG,AFNE25.JPG,AFSA23.JPG,0,5,5,4,,,,,,,,,,,,,,,,,,,,,,,AMSA18.jpg,AMNE20.jpg,AMSA01.jpg,AMNE13.jpg,AMNE13.jpg,MN,1,num_4,16,num_4,1.51672751084,,,2017_Dec_12_1752,59.9930727937,MAFE4ImagesEEG,001,202500,
AMSA21.JPG,AMNE22.JPG,AMNE21.JPG,AMSA23.JPG,AMSA22.JPG,AMNE23.JPG,0,6,6,1,,,,,,,,,,,,,,,,,,,,,,,AMNE15.jpg,AMSA14.jpg,AMNE16.jpg,AMSA15.jpg,AMSA14.jpg,MS,2,num_6,16,num_6,1.33344559208,,,2017_Dec_12_1752,59.9930727937,MAFE4ImagesEEG,001,202500,
AFNE22.JPG,AFSA24.JPG,AFSA22.JPG,AFNE25.JPG,AFNE24.JPG,AFSA25.JPG,0,7,7,6,,,,,,,,,,,,,,,,,,,,,,,AMNE13.jpg,AMSA05.jpg,AMNE05.jpg,AMSA11.jpg,AMNE13.jpg,MN,1,num_8,32,num_2,1.16676256759,,,2017_Dec_12_1752,59.9930727937,MAFE4ImagesEEG,001,202500,
AFNE23.JPG,AFNE24.JPG,AFNE22.JPG,AFSA24.JPG,AFSA22.JPG,AFSA23.JPG,0,8,8,8,,,,,,,,,,,,,,,,,,,,,,,AMSA07.jpg,AMNE02.jpg,AMSA08.jpg,AMNE06.jpg,AMNE02.jpg,MN,1,num_6,16,num_6,0.516814431176,,,2017_Dec_12_1752,59.9930727937,MAFE4ImagesEEG,001,202500,
AFSA25.JPG,AFNE24.JPG,AFSA24.JPG,AFNE21.JPG,AFSA21.JPG,AFNE25.JPG,0,9,9,2,,,,,,,,,,,,,,,,,,,,,,,AMSA08.jpg,AMNE10.jpg,AMNE14.jpg,AMSA19.jpg,AMSA08.jpg,MS,2,num_8,16,num_8,1.16676064325,,,2017_Dec_12_1752,59.9930727937,MAFE4ImagesEEG,001,202500,
AMNE22.JPG,AMSA24.JPG,AMSA22.JPG,AMNE25.JPG,AMNE24.JPG,AMSA25.JPG,,,,,0,0,0,7,,,,,,,,,,,,,,,,,,,AFSA03.jpg,AFNE20.jpg,AFNE11.jpg,AFSA02.jpg,AFNE11.jpg,FN,3,num_2,16,num_2,0.966629974311,,,2017_Dec_12_1752,59.9930727937,MAFE4ImagesEEG,001,202500,
AFSA21.JPG,AFNE22.JPG,AFNE21.JPG,AFSA23.JPG,AFSA22.JPG,AFNE23.JPG,,,,,0,1,1,0,,,,,,,,,,,,,,,,,,,AFNE01.jpg,AFNE04.jpg,AFSA03.jpg,AFSA02.jpg,AFNE01.jpg,FN,3,num_8,32,num_2,1.66672055097,,,2017_Dec_12_1752,59.9930727937,MAFE4ImagesEEG,001,202500,
AFNE23.JPG,AFNE24.JPG,AFNE22.JPG,AFSA24.JPG,AFSA22.JPG,AFSA23.JPG,,,,,0,2,2,8,,,,,,,,,,,,,,,,,,,AFSA05.jpg,AFNE15.jpg,AFNE13.jpg,AFSA04.jpg,AFSA04.jpg,FS,4,num_4,32,num_2,1.28345999331,,,2017_Dec_12_1752,59.9930727937,MAFE4ImagesEEG,001,202500,
AMSA25.JPG,AMNE24.JPG,AMSA24.JPG,AMNE26.JPG,AMSA21.JPG,AMNE25.JPG,,,,,0,3,3,3,,,,,,,,,,,,,,,,,,,AFSA07.jpg,AFSA14.jpg,AFNE12.jpg,AFNE20.jpg,AFSA07.jpg,FS,4,num_8,32,num_2,1.3000957726,,,2017_Dec_12_1752,59.9930727937,MAFE4ImagesEEG,001,202500,
AFSA25.JPG,AFNE24.JPG,AFSA24.JPG,AFNE21.JPG,AFSA21.JPG,AFNE25.JPG,,,,,0,4,4,2,,,,,,,,,,,,,,,,,,,AFNE08.jpg,AFNE13.jpg,AFSA15.jpg,AFSA08.jpg,AFSA08.jpg,FS,4,num_4,32,num_6,0.666761284927,,,2017_Dec_12_1752,59.9930727937,MAFE4ImagesEEG,001,202500,
AMNE23.JPG,AMNE24.JPG,AMNE22.JPG,AMSA24.JPG,AMSA22.JPG,AMSA23.JPG,,,,,0,5,5,9,,,,,,,,,,,,,,,,,,,AFSA04.jpg,AFNE11.jpg,AFSA13.jpg,AFNE14.jpg,AFNE14.jpg,FN,3,num_4,16,num_4,0.866671285126,,,2017_Dec_12_1752,59.9930727937,MAFE4ImagesEEG,001,202500,
AFNE22.JPG,AFSA24.JPG,AFSA22.JPG,AFNE25.JPG,AFNE24.JPG,AFSA25.JPG,,,,,0,6,6,6,,,,,,,,,,,,,,,,,,,AFNE11.jpg,AFSA15.jpg,AFSA17.jpg,AFNE20.jpg,AFSA15.jpg,FS,4,num_6,32,num_2,1.21673373319,,,2017_Dec_12_1752,59.9930727937,MAFE4ImagesEEG,001,202500,
AFSA21.JPG,AFNE23.JPG,AFNE21.JPG,AFSA25.JPG,AFNE25.JPG,AFSA23.JPG,,,,,0,7,7,4,,,,,,,,,,,,,,,,,,,AFNE14.jpg,AFNE18.jpg,AFSA04.jpg,AFSA10.jpg,AFSA10.jpg,FS,4,num_4,32,num_8,1.70006203093,,,2017_Dec_12_1752,59.9930727937,MAFE4ImagesEEG,001,202500,
AMSA21.JPG,AMNE22.JPG,AMNE21.JPG,AMSA23.JPG,AMSA22.JPG,AMNE23.JPG,,,,,0,8,8,1,,,,,,,,,,,,,,,,,,,AFNE12.jpg,AFNE10.jpg,AFSA13.jpg,AFSA10.jpg,AFSA10.jpg,FS,4,num_4,32,num_6,0.883469679393,,,2017_Dec_12_1752,59.9930727937,MAFE4ImagesEEG,001,202500,
AMSA21.JPG,AMNE23.JPG,AMNE21.JPG,AMSA25.JPG,AMNE25.JPG,AMSA23.JPG,,,,,0,9,9,5,,,,,,,,,,,,,,,,,,,AFNE04.jpg,AFSA15.jpg,AFNE18.jpg,AFSA16.jpg,AFSA16.jpg,FS,4,num_4,16,num_4,0.916780368658,,,2017_Dec_12_1752,59.9930727937,MAFE4ImagesEEG,001,202500,
AMNE23.JPG,AMNE24.JPG,AMNE22.JPG,AMSA24.JPG,AMSA22.JPG,AMSA23.JPG,,,,,,,,,0,0,0,9,,,,,,,,,,,,,,,AMSA04.jpg,AMNE01.jpg,AMSA12.jpg,AMNE16.jpg,AMSA12.jpg,MS,2,num_2,32,num_8,1.66672023013,,,2017_Dec_12_1752,59.9930727937,MAFE4ImagesEEG,001,202500,
AMSA21.JPG,AMNE23.JPG,AMNE21.JPG,AMSA25.JPG,AMNE25.JPG,AMSA23.JPG,,,,,,,,,0,1,1,5,,,,,,,,,,,,,,,AMNE06.jpg,AMNE13.jpg,AMSA09.jpg,AMSA06.jpg,AMSA06.jpg,MS,2,num_4,32,num_2,0.933485748479,,,2017_Dec_12_1752,59.9930727937,MAFE4ImagesEEG,001,202500,
AFNE23.JPG,AFNE24.JPG,AFNE22.JPG,AFSA24.JPG,AFSA22.JPG,AFSA23.JPG,,,,,,,,,0,2,2,8,,,,,,,,,,,,,,,AMSA01.jpg,AMNE16.jpg,AMNE17.jpg,AMSA14.jpg,AMNE17.jpg,MN,1,num_2,32,num_4,1.03344636178,,,2017_Dec_12_1752,59.9930727937,MAFE4ImagesEEG,001,202500,
AFNE22.JPG,AFSA24.JPG,AFSA22.JPG,AFNE25.JPG,AFNE24.JPG,AFSA25.JPG,,,,,,,,,0,3,3,6,,,,,,,,,,,,,,,AMNE08.jpg,AMSA04.jpg,AMNE07.jpg,AMSA19.jpg,AMNE08.jpg,MN,1,num_8,32,num_2,0.966754420893,,,2017_Dec_12_1752,59.9930727937,MAFE4ImagesEEG,001,202500,
AFSA21.JPG,AFNE23.JPG,AFNE21.JPG,AFSA25.JPG,AFNE25.JPG,AFSA23.JPG,,,,,,,,,0,4,4,4,,,,,,,,,,,,,,,AMNE08.jpg,AMNE02.jpg,AMSA20.jpg,AMSA19.jpg,AMNE02.jpg,MN,1,num_6,16,num_6,0.800146128749,,,2017_Dec_12_1752,59.9930727937,MAFE4ImagesEEG,001,202500,
AMSA21.JPG,AMNE22.JPG,AMNE21.JPG,AMSA23.JPG,AMSA22.JPG,AMNE23.JPG,,,,,,,,,0,5,5,1,,,,,,,,,,,,,,,AMNE10.jpg,AMSA06.jpg,AMNE12.jpg,AMSA18.jpg,AMSA18.jpg,MS,2,num_4,16,num_4,0.783463521395,,,2017_Dec_12_1752,59.9930727937,MAFE4ImagesEEG,001,202500,
AMSA25.JPG,AMNE24.JPG,AMSA24.JPG,AMNE26.JPG,AMSA21.JPG,AMNE25.JPG,,,,,,,,,0,6,6,3,,,,,,,,,,,,,,,AMNE08.jpg,AMSA09.jpg,AMNE07.jpg,AMSA13.jpg,AMSA09.jpg,MS,2,num_6,32,num_2,1.30010058382,,,2017_Dec_12_1752,59.9930727937,MAFE4ImagesEEG,001,202500,
AFSA21.JPG,AFNE22.JPG,AFNE21.JPG,AFSA23.JPG,AFSA22.JPG,AFNE23.JPG,,,,,,,,,0,7,7,0,,,,,,,,,,,,,,,AMNE19.jpg,AMSA20.jpg,AMNE15.jpg,AMSA11.jpg,AMSA11.jpg,MS,2,num_4,16,num_4,0.9501228109,,,2017_Dec_12_1752,59.9930727937,MAFE4ImagesEEG,001,202500,
AMNE22.JPG,AMSA24.JPG,AMSA22.JPG,AMNE25.JPG,AMNE24.JPG,AMSA25.JPG,,,,,,,,,0,8,8,7,,,,,,,,,,,,,,,AMSA06.jpg,AMSA03.jpg,AMNE02.jpg,AMNE16.jpg,AMSA03.jpg,MS,2,num_6,16,num_6,0.53348164307,,,2017_Dec_12_1752,59.9930727937,MAFE4ImagesEEG,001,202500,
AFSA25.JPG,AFNE24.JPG,AFSA24.JPG,AFNE21.JPG,AFSA21.JPG,AFNE25.JPG,,,,,,,,,0,9,9,2,,,,,,,,,,,,,,,AMNE18.jpg,AMSA20.jpg,AMNE09.jpg,AMSA04.jpg,AMSA20.jpg,MS,2,num_6,32,num_2,1.26680079987,,,2017_Dec_12_1752,59.9930727937,MAFE4ImagesEEG,001,202500,
AFSA21.JPG,AFNE22.JPG,AFNE21.JPG,AFSA23.JPG,AFSA22.JPG,AFNE23.JPG,,,,,,,,,,,,,0,0,0,0,,,,,,,,,,,AFNE07.jpg,AFNE02.jpg,AFSA06.jpg,AFSA11.jpg,AFSA11.jpg,FS,4,num_4,16,num_4,1.01683976967,,,2017_Dec_12_1752,59.9930727937,MAFE4ImagesEEG,001,202500,
AFNE22.JPG,AFSA24.JPG,AFSA22.JPG,AFNE25.JPG,AFNE24.JPG,AFSA25.JPG,,,,,,,,,,,,,0,1,1,6,,,,,,,,,,,AFNE10.jpg,AFSA06.jpg,AFSA16.jpg,AFNE15.jpg,AFNE10.jpg,FN,3,num_8,32,num_4,1.03346528555,,,2017_Dec_12_1752,59.9930727937,MAFE4ImagesEEG,001,202500,
AMSA21.JPG,AMNE23.JPG,AMNE21.JPG,AMSA25.JPG,AMNE25.JPG,AMSA23.JPG,,,,,,,,,,,,,0,2,2,5,,,,,,,,,,,AFSA15.jpg,AFNE18.jpg,AFSA12.jpg,AFNE05.jpg,AFSA12.jpg,FS,4,num_2,16,num_2,1.06671054382,,,2017_Dec_12_1752,59.9930727937,MAFE4ImagesEEG,001,202500,
AMSA21.JPG,AMNE22.JPG,AMNE21.JPG,AMSA23.JPG,AMSA22.JPG,AMNE23.JPG,,,,,,,,,,,,,0,3,3,1,,,,,,,,,,,AFSA12.jpg,AFSA13.jpg,AFNE17.jpg,AFNE14.jpg,AFNE17.jpg,FN,3,num_2,16,num_2,1.18346538185,,,2017_Dec_12_1752,59.9930727937,MAFE4ImagesEEG,001,202500,
AFSA21.JPG,AFNE23.JPG,AFNE21.JPG,AFSA25.JPG,AFNE25.JPG,AFSA23.JPG,,,,,,,,,,,,,0,4,4,4,,,,,,,,,,,AFNE12.jpg,AFNE14.jpg,AFSA15.jpg,AFSA03.jpg,AFNE12.jpg,FN,3,num_8,32,num_6,0.883411625866,,,2017_Dec_12_1752,59.9930727937,MAFE4ImagesEEG,001,202500,
AFSA25.JPG,AFNE24.JPG,AFSA24.JPG,AFNE21.JPG,AFSA21.JPG,AFNE25.JPG,,,,,,,,,,,,,0,5,5,2,,,,,,,,,,,AFSA03.jpg,AFNE12.jpg,AFSA04.jpg,AFNE10.jpg,AFSA04.jpg,FS,4,num_2,32,num_8,1.0001353519,,,2017_Dec_12_1752,59.9930727937,MAFE4ImagesEEG,001,202500,
AFNE23.JPG,AFNE24.JPG,AFNE22.JPG,AFSA24.JPG,AFSA22.JPG,AFSA23.JPG,,,,,,,,,,,,,0,6,6,8,,,,,,,,,,,AFSA15.jpg,AFSA07.jpg,AFNE12.jpg,AFNE02.jpg,AFNE02.jpg,FN,3,num_4,32,num_6,0.766800799873,,,2017_Dec_12_1752,59.9930727937,MAFE4ImagesEEG,001,202500,
AMSA25.JPG,AMNE24.JPG,AMSA24.JPG,AMNE26.JPG,AMSA21.JPG,AMNE25.JPG,,,,,,,,,,,,,0,7,7,3,,,,,,,,,,,AFSA06.jpg,AFNE02.jpg,AFNE11.jpg,AFSA12.jpg,AFNE02.jpg,FN,3,num_6,16,num_6,1.58342490438,,,2017_Dec_12_1752,59.9930727937,MAFE4ImagesEEG,001,202500,
AMNE22.JPG,AMSA24.JPG,AMSA22.JPG,AMNE25.JPG,AMNE24.JPG,AMSA25.JPG,,,,,,,,,,,,,0,8,8,7,,,,,,,,,,,AFNE01.jpg,AFNE04.jpg,AFSA15.jpg,AFSA20.jpg,AFSA20.jpg,FS,4,num_4,32,num_8,1.88342670049,,,2017_Dec_12_1752,59.9930727937,MAFE4ImagesEEG,001,202500,
AMNE23.JPG,AMNE24.JPG,AMNE22.JPG,AMSA24.JPG,AMSA22.JPG,AMSA23.JPG,,,,,,,,,,,,,0,9,9,9,,,,,,,,,,,AFSA03.jpg,AFNE01.jpg,AFNE03.jpg,AFSA12.jpg,AFSA03.jpg,FS,4,num_8,16,num_8,2.11643570219,,,2017_Dec_12_1752,59.9930727937,MAFE4ImagesEEG,001,202500,
AMSA25.JPG,AMNE24.JPG,AMSA24.JPG,AMNE26.JPG,AMSA21.JPG,AMNE25.JPG,,,,,,,,,,,,,,,,,0,0,0,3,,,,,,,AMNE12.jpg,AMNE14.jpg,AMSA08.jpg,AMSA10.jpg,AMNE12.jpg,MN,1,num_8,32,num_2,1.51675509429,,,2017_Dec_12_1752,59.9930727937,MAFE4ImagesEEG,001,202500,
AMSA21.JPG,AMNE23.JPG,AMNE21.JPG,AMSA25.JPG,AMNE25.JPG,AMSA23.JPG,,,,,,,,,,,,,,,,,0,1,1,5,,,,,,,AMSA10.jpg,AMNE04.jpg,AMSA20.jpg,AMNE07.jpg,AMNE04.jpg,MN,1,num_6,16,num_6,0.966819531051,,,2017_Dec_12_1752,59.9930727937,MAFE4ImagesEEG,001,202500,
AMSA21.JPG,AMNE22.JPG,AMNE21.JPG,AMSA23.JPG,AMSA22.JPG,AMNE23.JPG,,,,,,,,,,,,,,,,,0,2,2,1,,,,,,,AMSA20.jpg,AMSA03.jpg,AMNE05.jpg,AMNE11.jpg,AMSA20.jpg,MS,2,num_8,32,num_6,0.900171210524,,,2017_Dec_12_1752,59.9930727937,MAFE4ImagesEEG,001,202500,
AFSA21.JPG,AFNE23.JPG,AFNE21.JPG,AFSA25.JPG,AFNE25.JPG,AFSA23.JPG,,,,,,,,,,,,,,,,,0,3,3,4,,,,,,,AMSA17.jpg,AMSA10.jpg,AMNE20.jpg,AMNE14.jpg,AMNE20.jpg,MN,1,num_2,32,num_8,1.36672388646,,,2017_Dec_12_1752,59.9930727937,MAFE4ImagesEEG,001,202500,
AMNE23.JPG,AMNE24.JPG,AMNE22.JPG,AMSA24.JPG,AMSA22.JPG,AMSA23.JPG,,,,,,,,,,,,,,,,,0,4,4,9,,,,,,,AMNE17.jpg,AMSA10.jpg,AMSA01.jpg,AMNE09.jpg,AMSA01.jpg,MS,2,num_2,16,num_2,1.45007983199,,,2017_Dec_12_1752,59.9930727937,MAFE4ImagesEEG,001,202500,
AFNE22.JPG,AFSA24.JPG,AFSA22.JPG,AFNE25.JPG,AFNE24.JPG,AFSA25.JPG,,,,,,,,,,,,,,,,,0,5,5,6,,,,,,,AMSA02.jpg,AMNE14.jpg,AMSA03.jpg,AMNE13.jpg,AMNE13.jpg,MN,1,num_4,16,num_4,1.35010350263,,,2017_Dec_12_1752,59.9930727937,MAFE4ImagesEEG,001,202500,
AFSA25.JPG,AFNE24.JPG,AFSA24.JPG,AFNE21.JPG,AFSA21.JPG,AFNE25.JPG,,,,,,,,,,,,,,,,,0,6,6,2,,,,,,,AMNE05.jpg,AMSA10.jpg,AMSA09.jpg,AMNE11.jpg,AMNE05.jpg,MN,1,num_8,32,num_2,1.36675820546,,,2017_Dec_12_1752,59.9930727937,MAFE4ImagesEEG,001,202500,
AMNE22.JPG,AMSA24.JPG,AMSA22.JPG,AMNE25.JPG,AMNE24.JPG,AMSA25.JPG,,,,,,,,,,,,,,,,,0,7,7,7,,,,,,,AMNE07.jpg,AMSA11.jpg,AMNE11.jpg,AMSA12.jpg,AMNE07.jpg,MN,1,num_8,16,num_8,1.26679181913,,,2017_Dec_12_1752,59.9930727937,MAFE4ImagesEEG,001,202500,
AFSA21.JPG,AFNE22.JPG,AFNE21.JPG,AFSA23.JPG,AFSA22.JPG,AFNE23.JPG,,,,,,,,,,,,,,,,,0,8,8,0,,,,,,,AMNE05.jpg,AMSA07.jpg,AMSA05.jpg,AMNE18.jpg,AMSA07.jpg,MS,2,num_6,32,num_2,1.45009458577,,,2017_Dec_12_1752,59.9930727937,MAFE4ImagesEEG,001,202500,
AFNE23.JPG,AFNE24.JPG,AFNE22.JPG,AFSA24.JPG,AFSA22.JPG,AFSA23.JPG,,,,,,,,,,,,,,,,,0,9,9,8,,,,,,,AMNE09.jpg,AMSA08.jpg,AMSA01.jpg,AMNE10.jpg,AMNE10.jpg,MN,1,num_4,16,num_4,1.44967249315,,,2017_Dec_12_1752,59.9930727937,MAFE4ImagesEEG,001,202500,
AFSA21.JPG,AFNE23.JPG,AFNE21.JPG,AFSA25.JPG,AFNE25.JPG,AFSA23.JPG,,,,,,,,,,,,,,,,,,,,,0,0,0,4,,,AFNE15.jpg,AFSA10.jpg,AFSA01.jpg,AFNE07.jpg,AFSA01.jpg,FS,4,num_2,32,num_6,1.41674284241,,,2017_Dec_12_1752,59.9930727937,MAFE4ImagesEEG,001,202500,
AFNE22.JPG,AFSA24.JPG,AFSA22.JPG,AFNE25.JPG,AFNE24.JPG,AFSA25.JPG,,,,,,,,,,,,,,,,,,,,,0,1,1,6,,,AFSA13.jpg,AFSA14.jpg,AFNE06.jpg,AFNE05.jpg,AFSA14.jpg,FS,4,num_6,32,num_4,0.816797303734,,,2017_Dec_12_1752,59.9930727937,MAFE4ImagesEEG,001,202500,
AMNE22.JPG,AMSA24.JPG,AMSA22.JPG,AMNE25.JPG,AMNE24.JPG,AMSA25.JPG,,,,,,,,,,,,,,,,,,,,,0,2,2,7,,,AFSA09.jpg,AFNE04.jpg,AFSA18.jpg,AFNE09.jpg,AFSA18.jpg,FS,4,num_2,16,num_2,1.08345505386,,,2017_Dec_12_1752,59.9930727937,MAFE4ImagesEEG,001,202500,
AFSA25.JPG,AFNE24.JPG,AFSA24.JPG,AFNE21.JPG,AFSA21.JPG,AFNE25.JPG,,,,,,,,,,,,,,,,,,,,,0,3,3,2,,,AFNE12.jpg,AFSA17.jpg,AFSA20.jpg,AFNE07.jpg,AFSA17.jpg,FS,4,num_6,32,num_2,1.55009432952,,,2017_Dec_12_1752,59.9930727937,MAFE4ImagesEEG,001,202500,
AMNE23.JPG,AMNE24.JPG,AMNE22.JPG,AMSA24.JPG,AMSA22.JPG,AMSA23.JPG,,,,,,,,,,,,,,,,,,,,,0,4,4,9,,,AFSA12.jpg,AFSA11.jpg,AFNE12.jpg,AFNE13.jpg,AFSA11.jpg,FS,4,num_6,16,num_6,0.683484305395,,,2017_Dec_12_1752,59.9930727937,MAFE4ImagesEEG,001,202500,
AMSA25.JPG,AMNE24.JPG,AMSA24.JPG,AMNE26.JPG,AMSA21.JPG,AMNE25.JPG,,,,,,,,,,,,,,,,,,,,,0,5,5,3,,,AFNE15.jpg,AFSA13.jpg,AFSA18.jpg,AFNE01.jpg,AFNE15.jpg,FN,3,num_8,16,num_8,0.833443346899,,,2017_Dec_12_1752,59.9930727937,MAFE4ImagesEEG,001,202500,
AMSA21.JPG,AMNE23.JPG,AMNE21.JPG,AMSA25.JPG,AMNE25.JPG,AMSA23.JPG,,,,,,,,,,,,,,,,,,,,,0,6,6,5,,,AFNE12.jpg,AFSA02.jpg,AFSA15.jpg,AFNE19.jpg,AFNE12.jpg,FN,3,num_8,16,num_8,1.23347311164,,,2017_Dec_12_1752,59.9930727937,MAFE4ImagesEEG,001,202500,
AFSA21.JPG,AFNE22.JPG,AFNE21.JPG,AFSA23.JPG,AFSA22.JPG,AFNE23.JPG,,,,,,,,,,,,,,,,,,,,,0,7,7,0,,,AFNE05.jpg,AFSA06.jpg,AFNE17.jpg,AFSA11.jpg,AFNE17.jpg,FN,3,num_2,16,num_2,1.25013326714,,,2017_Dec_12_1752,59.9930727937,MAFE4ImagesEEG,001,202500,
AFNE23.JPG,AFNE24.JPG,AFNE22.JPG,AFSA24.JPG,AFSA22.JPG,AFSA23.JPG,,,,,,,,,,,,,,,,,,,,,0,8,8,8,,,AFNE01.jpg,AFSA02.jpg,AFSA07.jpg,AFNE12.jpg,AFSA02.jpg,FS,4,num_6,32,num_4,1.35014744382,,,2017_Dec_12_1752,59.9930727937,MAFE4ImagesEEG,001,202500,
AMSA21.JPG,AMNE22.JPG,AMNE21.JPG,AMSA23.JPG,AMSA22.JPG,AMNE23.JPG,,,,,,,,,,,,,,,,,,,,,0,9,9,1,,,AFSA02.jpg,AFSA11.jpg,AFNE15.jpg,AFNE08.jpg,AFNE08.jpg,FN,3,num_4,32,num_8,1.11677279929,,,2017_Dec_12_1752,59.9930727937,MAFE4ImagesEEG,001,202500,
,,,,,,,,,,,,,,,,,,,,,,,,,,,,,,,,,,,,,,,,,,,space,10.8323355138,2017_Dec_12_1752,59.9930727937,MAFE4ImagesEEG,001,202500,
AFNE01.JPG,AFNE01.JPG,AFNE01.JPG,AFNE01.JPG,AFNE01.JPG,AFNE01.JPG,0,0,0,1,,,,,,,,,,,,,,,,,,,,,,,AMNE15.jpg,AMSA19.jpg,AMNE04.jpg,AMSA04.jpg,AMSA19.jpg,MS,2,num_6,16,num_6,1.01681892155,,,2017_Dec_12_1752,59.9930727937,MAFE4ImagesEEG,001,202500,
AFNE01.JPG,AFNE01.JPG,AFNE01.JPG,AFNE01.JPG,AFNE01.JPG,AFNE01.JPG,0,1,1,9,,,,,,,,,,,,,,,,,,,,,,,AMSA10.jpg,AMNE08.jpg,AMSA15.jpg,AMNE05.jpg,AMSA10.jpg,MS,2,num_8,32,num_2,0.983484176919,,,2017_Dec_12_1752,59.9930727937,MAFE4ImagesEEG,001,202500,
AFNE01.JPG,AFNE01.JPG,AFNE01.JPG,AFNE01.JPG,AFNE01.JPG,AFNE01.JPG,0,2,2,5,,,,,,,,,,,,,,,,,,,,,,,AMSA04.jpg,AMNE02.jpg,AMSA07.jpg,AMNE07.jpg,AMNE07.jpg,MN,1,num_4,16,num_4,0.983498289483,,,2017_Dec_12_1752,59.9930727937,MAFE4ImagesEEG,001,202500,
AFNE01.JPG,AFNE01.JPG,AFNE01.JPG,AFNE01.JPG,AFNE01.JPG,AFNE01.JPG,0,3,3,3,,,,,,,,,,,,,,,,,,,,,,,AMNE15.jpg,AMNE05.jpg,AMSA08.jpg,AMSA15.jpg,AMNE15.jpg,MN,1,num_8,32,num_6,1.11676574312,,,2017_Dec_12_1752,59.9930727937,MAFE4ImagesEEG,001,202500,
AFNE01.JPG,AFNE01.JPG,AFNE01.JPG,AFNE01.JPG,AFNE01.JPG,AFNE01.JPG,0,4,4,6,,,,,,,,,,,,,,,,,,,,,,,AMNE08.jpg,AMNE06.jpg,AMSA07.jpg,AMSA11.jpg,AMSA11.jpg,MS,2,num_4,32,num_2,1.11672789557,,,2017_Dec_12_1752,59.9930727937,MAFE4ImagesEEG,001,202500,
AFNE01.JPG,AFNE01.JPG,AFNE01.JPG,AFNE01.JPG,AFNE01.JPG,AFNE01.JPG,0,5,5,8,,,,,,,,,,,,,,,,,,,,,,,AMSA19.jpg,AMNE20.jpg,AMNE15.jpg,AMSA11.jpg,AMNE15.jpg,MN,1,num_2,16,num_2,1.00006254413,,,2017_Dec_12_1752,59.9930727937,MAFE4ImagesEEG,001,202500,
AFNE01.JPG,AFNE01.JPG,AFNE01.JPG,AFNE01.JPG,AFNE01.JPG,AFNE01.JPG,0,6,6,2,,,,,,,,,,,,,,,,,,,,,,,AMSA19.jpg,AMNE05.jpg,AMNE01.jpg,AMSA12.jpg,AMSA19.jpg,MS,2,num_8,16,num_8,0.933505634544,,,2017_Dec_12_1752,59.9930727937,MAFE4ImagesEEG,001,202500,
AFNE01.JPG,AFNE01.JPG,AFNE01.JPG,AFNE01.JPG,AFNE01.JPG,AFNE01.JPG,0,7,7,7,,,,,,,,,,,,,,,,,,,,,,,AMNE14.jpg,AMNE11.jpg,AMSA03.jpg,AMSA05.jpg,AMSA05.jpg,MS,2,num_4,16,num_4,0.850181121379,,,2017_Dec_12_1752,59.9930727937,MAFE4ImagesEEG,001,202500,
AFNE01.JPG,AFNE01.JPG,AFNE01.JPG,AFNE01.JPG,AFNE01.JPG,AFNE01.JPG,0,8,8,0,,,,,,,,,,,,,,,,,,,,,,,AMNE04.jpg,AMNE08.jpg,AMSA19.jpg,AMSA12.jpg,AMNE04.jpg,MN,1,num_8,16,num_8,0.816745344084,,,2017_Dec_12_1752,59.9930727937,MAFE4ImagesEEG,001,202500,
AFNE01.JPG,AFNE01.JPG,AFNE01.JPG,AFNE01.JPG,AFNE01.JPG,AFNE01.JPG,0,9,9,4,,,,,,,,,,,,,,,,,,,,,,,AMNE12.jpg,AMNE19.jpg,AMSA14.jpg,AMSA10.jpg,AMNE12.jpg,MN,1,num_8,32,num_6,0.983450499363,,,2017_Dec_12_1752,59.9930727937,MAFE4ImagesEEG,001,202500,
AFNE01.JPG,AFNE01.JPG,AFNE01.JPG,AFNE01.JPG,AFNE01.JPG,AFNE01.JPG,1,0,10,8,,,,,,,,,,,,,,,,,,,,,,,AMNE01.jpg,AMSA01.jpg,AMNE17.jpg,AMSA17.jpg,AMNE01.jpg,MN,1,num_8,16,num_8,1.26682132715,,,2017_Dec_12_1752,59.9930727937,MAFE4ImagesEEG,001,202500,
AFNE01.JPG,AFNE01.JPG,AFNE01.JPG,AFNE01.JPG,AFNE01.JPG,AFNE01.JPG,1,1,11,7,,,,,,,,,,,,,,,,,,,,,,,AMNE20.jpg,AMSA04.jpg,AMNE05.jpg,AMSA07.jpg,AMNE05.jpg,MN,1,num_2,32,num_4,0.73376883287,,,2017_Dec_12_1752,59.9930727937,MAFE4ImagesEEG,001,202500,
AFNE01.JPG,AFNE01.JPG,AFNE01.JPG,AFNE01.JPG,AFNE01.JPG,AFNE01.JPG,1,2,12,1,,,,,,,,,,,,,,,,,,,,,,,AMNE12.jpg,AMSA12.jpg,AMNE20.jpg,AMSA20.jpg,AMSA12.jpg,MS,2,num_6,32,num_4,1.15012903325,,,2017_Dec_12_1752,59.9930727937,MAFE4ImagesEEG,001,202500,
AFNE01.JPG,AFNE01.JPG,AFNE01.JPG,AFNE01.JPG,AFNE01.JPG,AFNE01.JPG,1,3,13,3,,,,,,,,,,,,,,,,,,,,,,,AMNE18.jpg,AMSA07.jpg,AMSA06.jpg,AMNE10.jpg,AMNE10.jpg,MN,1,num_4,16,num_4,1.21676099603,,,2017_Dec_12_1752,59.9930727937,MAFE4ImagesEEG,001,202500,
AFNE01.JPG,AFNE01.JPG,AFNE01.JPG,AFNE01.JPG,AFNE01.JPG,AFNE01.JPG,1,4,14,2,,,,,,,,,,,,,,,,,,,,,,,AMNE09.jpg,AMNE11.jpg,AMSA12.jpg,AMSA08.jpg,AMNE09.jpg,MN,1,num_8,16,num_8,1.15013256157,,,2017_Dec_12_1752,59.9930727937,MAFE4ImagesEEG,001,202500,
AFNE01.JPG,AFNE01.JPG,AFNE01.JPG,AFNE01.JPG,AFNE01.JPG,AFNE01.JPG,1,5,15,0,,,,,,,,,,,,,,,,,,,,,,,AMNE04.jpg,AMSA06.jpg,AMNE09.jpg,AMSA02.jpg,AMSA02.jpg,MS,2,num_4,32,num_2,2.81661608606,,,2017_Dec_12_1752,59.9930727937,MAFE4ImagesEEG,001,202500,
AFNE01.JPG,AFNE01.JPG,AFNE01.JPG,AFNE01.JPG,AFNE01.JPG,AFNE01.JPG,1,6,16,4,,,,,,,,,,,,,,,,,,,,,,,AMSA17.jpg,AMNE08.jpg,AMNE01.jpg,AMSA03.jpg,AMNE08.jpg,MN,1,num_6,16,num_6,1.15008348855,,,2017_Dec_12_1752,59.9930727937,MAFE4ImagesEEG,001,202500,
AFNE01.JPG,AFNE01.JPG,AFNE01.JPG,AFNE01.JPG,AFNE01.JPG,AFNE01.JPG,1,7,17,5,,,,,,,,,,,,,,,,,,,,,,,AMNE13.jpg,AMNE03.jpg,AMSA16.jpg,AMSA04.jpg,AMSA04.jpg,MS,2,num_4,16,num_4,1.05014308169,,,2017_Dec_12_1752,59.9930727937,MAFE4ImagesEEG,001,202500,
AFNE01.JPG,AFNE01.JPG,AFNE01.JPG,AFNE01.JPG,AFNE01.JPG,AFNE01.JPG,1,8,18,9,,,,,,,,,,,,,,,,,,,,,,,AMSA02.jpg,AMNE15.jpg,AMNE16.jpg,AMSA12.jpg,AMNE16.jpg,MN,1,num_2,32,num_6,0.899983578129,,,2017_Dec_12_1752,59.9930727937,MAFE4ImagesEEG,001,202500,
AFNE01.JPG,AFNE01.JPG,AFNE01.JPG,AFNE01.JPG,AFNE01.JPG,AFNE01.JPG,1,9,19,6,,,,,,,,,,,,,,,,,,,,,,,AMSA01.jpg,AMNE09.jpg,AMSA07.jpg,AMNE03.jpg,AMSA07.jpg,MS,2,num_2,16,num_2,0.94984376803,,,2017_Dec_12_1752,59.9930727937,MAFE4ImagesEEG,001,202500,
AFNE01.JPG,AFNE01.JPG,AFNE01.JPG,AFNE01.JPG,AFNE01.JPG,AFNE01.JPG,2,0,20,6,,,,,,,,,,,,,,,,,,,,,,,AMSA14.jpg,AMNE13.jpg,AMSA18.jpg,AMNE15.jpg,AMNE15.jpg,MN,1,num_4,16,num_4,0.96682530432,,,2017_Dec_12_1752,59.9930727937,MAFE4ImagesEEG,001,202500,
AFNE01.JPG,AFNE01.JPG,AFNE01.JPG,AFNE01.JPG,AFNE01.JPG,AFNE01.JPG,2,1,21,5,,,,,,,,,,,,,,,,,,,,,,,AMNE08.jpg,AMNE04.jpg,AMSA01.jpg,AMSA04.jpg,AMNE08.jpg,MN,1,num_8,16,num_8,0.800151902018,,,2017_Dec_12_1752,59.9930727937,MAFE4ImagesEEG,001,202500,
AFNE01.JPG,AFNE01.JPG,AFNE01.JPG,AFNE01.JPG,AFNE01.JPG,AFNE01.JPG,2,2,22,9,,,,,,,,,,,,,,,,,,,,,,,AMNE14.jpg,AMNE06.jpg,AMSA11.jpg,AMSA10.jpg,AMNE14.jpg,MN,1,num_8,32,num_2,1.03343962622,,,2017_Dec_12_1752,59.9930727937,MAFE4ImagesEEG,001,202500,
AFNE01.JPG,AFNE01.JPG,AFNE01.JPG,AFNE01.JPG,AFNE01.JPG,AFNE01.JPG,2,3,23,8,,,,,,,,,,,,,,,,,,,,,,,AMNE17.jpg,AMNE16.jpg,AMSA07.jpg,AMSA08.jpg,AMNE17.jpg,MN,1,num_8,32,num_2,0.966786174104,,,2017_Dec_12_1752,59.9930727937,MAFE4ImagesEEG,001,202500,
AFNE01.JPG,AFNE01.JPG,AFNE01.JPG,AFNE01.JPG,AFNE01.JPG,AFNE01.JPG,2,4,24,0,,,,,,,,,,,,,,,,,,,,,,,AMSA10.jpg,AMNE13.jpg,AMSA03.jpg,AMNE11.jpg,AMNE13.jpg,MN,1,num_6,32,num_8,0.916766897775,,,2017_Dec_12_1752,59.9930727937,MAFE4ImagesEEG,001,202500,
AFNE01.JPG,AFNE01.JPG,AFNE01.JPG,AFNE01.JPG,AFNE01.JPG,AFNE01.JPG,2,5,25,3,,,,,,,,,,,,,,,,,,,,,,,AMSA19.jpg,AMNE13.jpg,AMSA15.jpg,AMNE20.jpg,AMSA15.jpg,MS,2,num_2,16,num_2,0.983530363301,,,2017_Dec_12_1752,59.9930727937,MAFE4ImagesEEG,001,202500,
AFNE01.JPG,AFNE01.JPG,AFNE01.JPG,AFNE01.JPG,AFNE01.JPG,AFNE01.JPG,2,6,26,4,,,,,,,,,,,,,,,,,,,,,,,AMNE09.jpg,AMNE10.jpg,AMSA16.jpg,AMSA08.jpg,AMSA16.jpg,MS,2,num_2,32,num_4,1.16672664485,,,2017_Dec_12_1752,59.9930727937,MAFE4ImagesEEG,001,202500,
AFNE01.JPG,AFNE01.JPG,AFNE01.JPG,AFNE01.JPG,AFNE01.JPG,AFNE01.JPG,2,7,27,2,,,,,,,,,,,,,,,,,,,,,,,AMSA08.jpg,AMNE08.jpg,AMNE12.jpg,AMSA12.jpg,AMSA08.jpg,MS,2,num_8,32,num_6,0.78349719895,,,2017_Dec_12_1752,59.9930727937,MAFE4ImagesEEG,001,202500,
AFNE01.JPG,AFNE01.JPG,AFNE01.JPG,AFNE01.JPG,AFNE01.JPG,AFNE01.JPG,2,8,28,1,,,,,,,,,,,,,,,,,,,,,,,AMNE15.jpg,AMNE04.jpg,AMSA11.jpg,AMSA07.jpg,AMNE04.jpg,MN,1,num_6,16,num_6,0.533481001621,,,2017_Dec_12_1752,59.9930727937,MAFE4ImagesEEG,001,202500,
AFNE01.JPG,AFNE01.JPG,AFNE01.JPG,AFNE01.JPG,AFNE01.JPG,AFNE01.JPG,2,9,29,7,,,,,,,,,,,,,,,,,,,,,,,AMSA12.jpg,AMSA06.jpg,AMNE02.jpg,AMNE06.jpg,AMNE02.jpg,MN,1,num_2,16,num_2,0.966713366332,,,2017_Dec_12_1752,59.9930727937,MAFE4ImagesEEG,001,202500,
AFNE01.JPG,AFNE01.JPG,AFNE01.JPG,AFNE01.JPG,AFNE01.JPG,AFNE01.JPG,3,0,30,2,,,,,,,,,,,,,,,,,,,,,,,AMSA02.jpg,AMNE09.jpg,AMSA14.jpg,AMNE01.jpg,AMNE09.jpg,MN,1,num_6,32,num_4,1.43342352519,,,2017_Dec_12_1752,59.9930727937,MAFE4ImagesEEG,001,202500,
AFNE01.JPG,AFNE01.JPG,AFNE01.JPG,AFNE01.JPG,AFNE01.JPG,AFNE01.JPG,3,1,31,1,,,,,,,,,,,,,,,,,,,,,,,AMSA09.jpg,AMSA02.jpg,AMNE05.jpg,AMNE08.jpg,AMSA02.jpg,MS,2,num_6,16,num_6,0.733487865422,,,2017_Dec_12_1752,59.9930727937,MAFE4ImagesEEG,001,202500,
AFNE01.JPG,AFNE01.JPG,AFNE01.JPG,AFNE01.JPG,AFNE01.JPG,AFNE01.JPG,3,2,32,6,,,,,,,,,,,,,,,,,,,,,,,AMSA04.jpg,AMNE11.jpg,AMSA03.jpg,AMNE16.jpg,AMNE16.jpg,MN,1,num_4,16,num_4,1.41660428303,,,2017_Dec_12_1752,59.9930727937,MAFE4ImagesEEG,001,202500,
AFNE01.JPG,AFNE01.JPG,AFNE01.JPG,AFNE01.JPG,AFNE01.JPG,AFNE01.JPG,3,3,33,9,,,,,,,,,,,,,,,,,,,,,,,AMSA12.jpg,AMNE02.jpg,AMSA17.jpg,AMNE16.jpg,AMNE02.jpg,MN,1,num_6,16,num_6,0.983449537307,,,2017_Dec_12_1752,59.9930727937,MAFE4ImagesEEG,001,202500,
AFNE01.JPG,AFNE01.JPG,AFNE01.JPG,AFNE01.JPG,AFNE01.JPG,AFNE01.JPG,3,4,34,8,,,,,,,,,,,,,,,,,,,,,,,AMNE15.jpg,AMSA08.jpg,AMSA03.jpg,AMNE06.jpg,AMNE06.jpg,MN,1,num_4,16,num_4,0.916801216779,,,2017_Dec_12_1752,59.9930727937,MAFE4ImagesEEG,001,202500,
AFNE01.JPG,AFNE01.JPG,AFNE01.JPG,AFNE01.JPG,AFNE01.JPG,AFNE01.JPG,3,5,35,3,,,,,,,,,,,,,,,,,,,,,,,AMNE05.jpg,AMNE06.jpg,AMSA09.jpg,AMSA04.jpg,AMNE06.jpg,MN,1,num_6,16,num_6,0.833456497174,,,2017_Dec_12_1752,59.9930727937,MAFE4ImagesEEG,001,202500,
AFNE01.JPG,AFNE01.JPG,AFNE01.JPG,AFNE01.JPG,AFNE01.JPG,AFNE01.JPG,3,6,36,4,,,,,,,,,,,,,,,,,,,,,,,AMNE13.jpg,AMSA01.jpg,AMSA17.jpg,AMNE09.jpg,AMNE09.jpg,MN,1,num_4,32,num_2,1.88340328657,,,2017_Dec_12_1752,59.9930727937,MAFE4ImagesEEG,001,202500,
AFNE01.JPG,AFNE01.JPG,AFNE01.JPG,AFNE01.JPG,AFNE01.JPG,AFNE01.JPG,3,7,37,0,,,,,,,,,,,,,,,,,,,,,,,AMNE17.jpg,AMNE09.jpg,AMSA03.jpg,AMSA18.jpg,AMNE09.jpg,MN,1,num_6,16,num_6,0.86678161961,,,2017_Dec_12_1752,59.9930727937,MAFE4ImagesEEG,001,202500,
AFNE01.JPG,AFNE01.JPG,AFNE01.JPG,AFNE01.JPG,AFNE01.JPG,AFNE01.JPG,3,8,38,7,,,,,,,,,,,,,,,,,,,,,,,AMNE02.jpg,AMSA20.jpg,AMSA05.jpg,AMNE14.jpg,AMSA20.jpg,MS,2,num_6,16,num_6,1.10013734037,,,2017_Dec_12_1752,59.9930727937,MAFE4ImagesEEG,001,202500,
AFNE01.JPG,AFNE01.JPG,AFNE01.JPG,AFNE01.JPG,AFNE01.JPG,AFNE01.JPG,3,9,39,5,,,,,,,,,,,,,,,,,,,,,,,AMSA20.jpg,AMSA04.jpg,AMNE14.jpg,AMNE17.jpg,AMSA04.jpg,MS,2,num_6,32,num_4,1.38339302293,,,2017_Dec_12_1752,59.9930727937,MAFE4ImagesEEG,001,202500,
AFNE01.JPG,AFNE01.JPG,AFNE01.JPG,AFNE01.JPG,AFNE01.JPG,AFNE01.JPG,4,0,40,5,,,,,,,,,,,,,,,,,,,,,,,AMNE17.jpg,AMSA18.jpg,AMNE10.jpg,AMSA20.jpg,AMNE10.jpg,MN,1,num_2,32,num_8,1.10012868047,,,2017_Dec_12_1752,59.9930727937,MAFE4ImagesEEG,001,202500,
AFNE01.JPG,AFNE01.JPG,AFNE01.JPG,AFNE01.JPG,AFNE01.JPG,AFNE01.JPG,4,1,41,1,,,,,,,,,,,,,,,,,,,,,,,AMNE14.jpg,AMSA15.jpg,AMNE13.jpg,AMSA09.jpg,AMNE14.jpg,MN,1,num_8,32,num_6,1.9333811875,,,2017_Dec_12_1752,59.9930727937,MAFE4ImagesEEG,001,202500,
AFNE01.JPG,AFNE01.JPG,AFNE01.JPG,AFNE01.JPG,AFNE01.JPG,AFNE01.JPG,4,2,42,9,,,,,,,,,,,,,,,,,,,,,,,AMSA17.jpg,AMSA06.jpg,AMNE17.jpg,AMNE12.jpg,AMSA17.jpg,MS,2,num_8,16,num_8,1.26674018009,,,2017_Dec_12_1752,59.9930727937,MAFE4ImagesEEG,001,202500,
AFNE01.JPG,AFNE01.JPG,AFNE01.JPG,AFNE01.JPG,AFNE01.JPG,AFNE01.JPG,4,3,43,4,,,,,,,,,,,,,,,,,,,,,,,AMNE17.jpg,AMNE04.jpg,AMSA01.jpg,AMSA03.jpg,AMSA01.jpg,MS,2,num_2,16,num_2,0.916800895939,,,2017_Dec_12_1752,59.9930727937,MAFE4ImagesEEG,001,202500,
AFNE01.JPG,AFNE01.JPG,AFNE01.JPG,AFNE01.JPG,AFNE01.JPG,AFNE01.JPG,4,4,44,2,,,,,,,,,,,,,,,,,,,,,,,AMSA05.jpg,AMSA18.jpg,AMNE12.jpg,AMNE05.jpg,AMSA05.jpg,MS,2,num_8,32,num_4,1.70009570848,,,2017_Dec_12_1752,59.9930727937,MAFE4ImagesEEG,001,202500,
AFNE01.JPG,AFNE01.JPG,AFNE01.JPG,AFNE01.JPG,AFNE01.JPG,AFNE01.JPG,4,5,45,0,,,,,,,,,,,,,,,,,,,,,,,AMSA10.jpg,AMSA04.jpg,AMNE06.jpg,AMNE20.jpg,AMSA10.jpg,MS,2,num_8,32,num_4,1.01677947072,,,2017_Dec_12_1752,59.9930727937,MAFE4ImagesEEG,001,202500,
AFNE01.JPG,AFNE01.JPG,AFNE01.JPG,AFNE01.JPG,AFNE01.JPG,AFNE01.JPG,4,6,46,7,,,,,,,,,,,,,,,,,,,,,,,AMNE01.jpg,AMSA02.jpg,AMSA19.jpg,AMNE11.jpg,AMSA19.jpg,MS,2,num_2,32,num_4,1.15006456478,,,2017_Dec_12_1752,59.9930727937,MAFE4ImagesEEG,001,202500,
AFNE01.JPG,AFNE01.JPG,AFNE01.JPG,AFNE01.JPG,AFNE01.JPG,AFNE01.JPG,4,7,47,8,,,,,,,,,,,,,,,,,,,,,,,AMNE15.jpg,AMSA04.jpg,AMNE17.jpg,AMSA15.jpg,AMNE15.jpg,MN,1,num_8,32,num_2,1.13345989701,,,2017_Dec_12_1752,59.9930727937,MAFE4ImagesEEG,001,202500,
AFNE01.JPG,AFNE01.JPG,AFNE01.JPG,AFNE01.JPG,AFNE01.JPG,AFNE01.JPG,4,8,48,3,,,,,,,,,,,,,,,,,,,,,,,AMNE06.jpg,AMSA13.jpg,AMSA05.jpg,AMNE18.jpg,AMNE18.jpg,MN,1,num_4,32,num_8,1.01678524399,,,2017_Dec_12_1752,59.9930727937,MAFE4ImagesEEG,001,202500,
AFNE01.JPG,AFNE01.JPG,AFNE01.JPG,AFNE01.JPG,AFNE01.JPG,AFNE01.JPG,4,9,49,6,,,,,,,,,,,,,,,,,,,,,,,AMSA09.jpg,AMNE11.jpg,AMSA03.jpg,AMNE13.jpg,AMNE11.jpg,MN,1,num_6,32,num_4,1.75009189174,,,2017_Dec_12_1752,59.9930727937,MAFE4ImagesEEG,001,202500,
AFNE01.JPG,AFNE01.JPG,AFNE01.JPG,AFNE01.JPG,AFNE01.JPG,AFNE01.JPG,5,0,50,2,,,,,,,,,,,,,,,,,,,,,,,AMSA07.jpg,AMNE06.jpg,AMSA12.jpg,AMNE11.jpg,AMSA12.jpg,MS,2,num_2,16,num_2,0.933448863681,,,2017_Dec_12_1752,59.9930727937,MAFE4ImagesEEG,001,202500,
AFNE01.JPG,AFNE01.JPG,AFNE01.JPG,AFNE01.JPG,AFNE01.JPG,AFNE01.JPG,5,1,51,5,,,,,,,,,,,,,,,,,,,,,,,AMSA04.jpg,AMNE05.jpg,AMSA05.jpg,AMNE03.jpg,AMSA04.jpg,MS,2,num_8,16,num_8,1.58342169714,,,2017_Dec_12_1752,59.9930727937,MAFE4ImagesEEG,001,202500,
AFNE01.JPG,AFNE01.JPG,AFNE01.JPG,AFNE01.JPG,AFNE01.JPG,AFNE01.JPG,5,2,52,9,,,,,,,,,,,,,,,,,,,,,,,AMNE13.jpg,AMSA08.jpg,AMNE15.jpg,AMSA17.jpg,AMSA17.jpg,MS,2,num_4,32,num_2,1.21673341258,,,2017_Dec_12_1752,59.9930727937,MAFE4ImagesEEG,001,202500,
AFNE01.JPG,AFNE01.JPG,AFNE01.JPG,AFNE01.JPG,AFNE01.JPG,AFNE01.JPG,5,3,53,0,,,,,,,,,,,,,,,,,,,,,,,AMSA02.jpg,AMNE09.jpg,AMNE08.jpg,AMSA10.jpg,AMNE09.jpg,MN,1,num_6,32,num_4,0.783468332374,,,2017_Dec_12_1752,59.9930727937,MAFE4ImagesEEG,001,202500,
AFNE01.JPG,AFNE01.JPG,AFNE01.JPG,AFNE01.JPG,AFNE01.JPG,AFNE01.JPG,5,4,54,7,,,,,,,,,,,,,,,,,,,,,,,AMSA17.jpg,AMSA16.jpg,AMNE01.jpg,AMNE06.jpg,AMNE06.jpg,MN,1,num_4,16,num_4,0.916764331749,,,2017_Dec_12_1752,59.9930727937,MAFE4ImagesEEG,001,202500,
AFNE01.JPG,AFNE01.JPG,AFNE01.JPG,AFNE01.JPG,AFNE01.JPG,AFNE01.JPG,5,5,55,1,,,,,,,,,,,,,,,,,,,,,,,AMNE20.jpg,AMSA11.jpg,AMSA20.jpg,AMNE01.jpg,AMSA20.jpg,MS,2,num_2,16,num_2,1.00008659973,,,2017_Dec_12_1752,59.9930727937,MAFE4ImagesEEG,001,202500,
AFNE01.JPG,AFNE01.JPG,AFNE01.JPG,AFNE01.JPG,AFNE01.JPG,AFNE01.JPG,5,6,56,6,,,,,,,,,,,,,,,,,,,,,,,AMSA02.jpg,AMNE20.jpg,AMSA15.jpg,AMNE11.jpg,AMSA02.jpg,MS,2,num_8,32,num_4,1.23326014075,,,2017_Dec_12_1752,59.9930727937,MAFE4ImagesEEG,001,202500,
AFNE01.JPG,AFNE01.JPG,AFNE01.JPG,AFNE01.JPG,AFNE01.JPG,AFNE01.JPG,5,7,57,4,,,,,,,,,,,,,,,,,,,,,,,AMNE14.jpg,AMSA13.jpg,AMSA08.jpg,AMNE17.jpg,AMNE17.jpg,MN,1,num_4,16,num_4,1.55008631106,,,2017_Dec_12_1752,59.9930727937,MAFE4ImagesEEG,001,202500,
AFNE01.JPG,AFNE01.JPG,AFNE01.JPG,AFNE01.JPG,AFNE01.JPG,AFNE01.JPG,5,8,58,8,,,,,,,,,,,,,,,,,,,,,,,AMNE18.jpg,AMNE15.jpg,AMSA10.jpg,AMSA14.jpg,AMNE18.jpg,MN,1,num_8,32,num_6,0.533193298616,,,2017_Dec_12_1752,59.9930727937,MAFE4ImagesEEG,001,202500,
AFNE01.JPG,AFNE01.JPG,AFNE01.JPG,AFNE01.JPG,AFNE01.JPG,AFNE01.JPG,5,9,59,3,,,,,,,,,,,,,,,,,,,,,,,AMSA10.jpg,AMSA01.jpg,AMNE10.jpg,AMNE18.jpg,AMNE10.jpg,MN,1,num_2,32,num_8,1.300102829,,,2017_Dec_12_1752,59.9930727937,MAFE4ImagesEEG,001,202500,
,,,,,,,,,,,,,,,,,,,,,,,,,,,,,,,,,,,,,,,,,,,space,10.6659632856,2017_Dec_12_1752,59.9930727937,MAFE4ImagesEEG,001,202500,
AFNE01.JPG,AFNE01.JPG,AFNE01.JPG,AFNE01.JPG,AFNE01.JPG,AFNE01.JPG,,,,,0,0,0,3,,,,,,,,,,,,,,,,,,,AFSA12.jpg,AFSA06.jpg,AFNE01.jpg,AFNE04.jpg,AFSA06.jpg,FS,4,num_6,16,num_6,0.733479846967,,,2017_Dec_12_1752,59.9930727937,MAFE4ImagesEEG,001,202500,
AFNE01.JPG,AFNE01.JPG,AFNE01.JPG,AFNE01.JPG,AFNE01.JPG,AFNE01.JPG,,,,,0,1,1,8,,,,,,,,,,,,,,,,,,,AFNE05.jpg,AFSA03.jpg,AFSA18.jpg,AFNE06.jpg,AFNE05.jpg,FN,3,num_8,16,num_8,1.08346467605,,,2017_Dec_12_1752,59.9930727937,MAFE4ImagesEEG,001,202500,
AFNE01.JPG,AFNE01.JPG,AFNE01.JPG,AFNE01.JPG,AFNE01.JPG,AFNE01.JPG,,,,,0,2,2,6,,,,,,,,,,,,,,,,,,,AFSA17.jpg,AFNE11.jpg,AFSA03.jpg,AFNE05.jpg,AFSA17.jpg,FS,4,num_8,32,num_2,1.01678524399,,,2017_Dec_12_1752,59.9930727937,MAFE4ImagesEEG,001,202500,
AFNE01.JPG,AFNE01.JPG,AFNE01.JPG,AFNE01.JPG,AFNE01.JPG,AFNE01.JPG,,,,,0,3,3,5,,,,,,,,,,,,,,,,,,,AFNE18.jpg,AFSA13.jpg,AFNE20.jpg,AFSA09.jpg,AFSA09.jpg,FS,4,num_4,32,num_8,1.43368717283,,,2017_Dec_12_1752,59.9930727937,MAFE4ImagesEEG,001,202500,
AFNE01.JPG,AFNE01.JPG,AFNE01.JPG,AFNE01.JPG,AFNE01.JPG,AFNE01.JPG,,,,,0,4,4,9,,,,,,,,,,,,,,,,,,,AFNE02.jpg,AFSA12.jpg,AFSA08.jpg,AFNE18.jpg,AFSA12.jpg,FS,4,num_6,32,num_4,1.48339116247,,,2017_Dec_12_1752,59.9930727937,MAFE4ImagesEEG,001,202500,
AFNE01.JPG,AFNE01.JPG,AFNE01.JPG,AFNE01.JPG,AFNE01.JPG,AFNE01.JPG,,,,,0,5,5,1,,,,,,,,,,,,,,,,,,,AFSA13.jpg,AFSA01.jpg,AFNE19.jpg,AFNE20.jpg,AFSA01.jpg,FS,4,num_6,32,num_2,1.21671994147,,,2017_Dec_12_1752,59.9930727937,MAFE4ImagesEEG,001,202500,
AFNE01.JPG,AFNE01.JPG,AFNE01.JPG,AFNE01.JPG,AFNE01.JPG,AFNE01.JPG,,,,,0,6,6,7,,,,,,,,,,,,,,,,,,,AFSA17.jpg,AFNE14.jpg,AFNE10.jpg,AFSA07.jpg,AFSA17.jpg,FS,4,num_8,32,num_6,1.33342666854,,,2017_Dec_12_1752,59.9930727937,MAFE4ImagesEEG,001,202500,
AFNE01.JPG,AFNE01.JPG,AFNE01.JPG,AFNE01.JPG,AFNE01.JPG,AFNE01.JPG,,,,,0,7,7,0,,,,,,,,,,,,,,,,,,,AFSA17.jpg,AFNE14.jpg,AFSA09.jpg,AFNE10.jpg,AFSA09.jpg,FS,4,num_2,32,num_4,1.15015725838,,,2017_Dec_12_1752,59.9930727937,MAFE4ImagesEEG,001,202500,
AFNE01.JPG,AFNE01.JPG,AFNE01.JPG,AFNE01.JPG,AFNE01.JPG,AFNE01.JPG,,,,,0,8,8,2,,,,,,,,,,,,,,,,,,,AFSA11.jpg,AFNE18.jpg,AFNE19.jpg,AFSA04.jpg,AFSA04.jpg,FS,4,num_4,32,num_2,1.18341534631,,,2017_Dec_12_1752,59.9930727937,MAFE4ImagesEEG,001,202500,
AFNE01.JPG,AFNE01.JPG,AFNE01.JPG,AFNE01.JPG,AFNE01.JPG,AFNE01.JPG,,,,,0,9,9,4,,,,,,,,,,,,,,,,,,,AFNE10.jpg,AFSA08.jpg,AFNE13.jpg,AFSA01.jpg,AFSA08.jpg,FS,4,num_6,32,num_8,1.01680480898,,,2017_Dec_12_1752,59.9930727937,MAFE4ImagesEEG,001,202500,
AFNE01.JPG,AFNE01.JPG,AFNE01.JPG,AFNE01.JPG,AFNE01.JPG,AFNE01.JPG,,,,,1,0,10,1,,,,,,,,,,,,,,,,,,,AFNE11.jpg,AFSA14.jpg,AFNE14.jpg,AFSA12.jpg,AFNE11.jpg,FN,3,num_8,32,num_4,1.20012874459,,,2017_Dec_12_1752,59.9930727937,MAFE4ImagesEEG,001,202500,
AFNE01.JPG,AFNE01.JPG,AFNE01.JPG,AFNE01.JPG,AFNE01.JPG,AFNE01.JPG,,,,,1,1,11,5,,,,,,,,,,,,,,,,,,,AFSA18.jpg,AFNE14.jpg,AFSA20.jpg,AFNE06.jpg,AFNE06.jpg,FN,3,num_4,32,num_2,1.35003294004,,,2017_Dec_12_1752,59.9930727937,MAFE4ImagesEEG,001,202500,
AFNE01.JPG,AFNE01.JPG,AFNE01.JPG,AFNE01.JPG,AFNE01.JPG,AFNE01.JPG,,,,,1,2,12,9,,,,,,,,,,,,,,,,,,,AFSA01.jpg,AFNE15.jpg,AFSA10.jpg,AFNE13.jpg,AFNE13.jpg,FN,3,num_4,16,num_4,1.26678315923,,,2017_Dec_12_1752,59.9930727937,MAFE4ImagesEEG,001,202500,
AFNE01.JPG,AFNE01.JPG,AFNE01.JPG,AFNE01.JPG,AFNE01.JPG,AFNE01.JPG,,,,,1,3,13,6,,,,,,,,,,,,,,,,,,,AFNE15.jpg,AFNE07.jpg,AFSA19.jpg,AFSA15.jpg,AFNE15.jpg,FN,3,num_8,16,num_8,1.05011229077,,,2017_Dec_12_1752,59.9930727937,MAFE4ImagesEEG,001,202500,
AFNE01.JPG,AFNE01.JPG,AFNE01.JPG,AFNE01.JPG,AFNE01.JPG,AFNE01.JPG,,,,,1,4,14,8,,,,,,,,,,,,,,,,,,,AFSA01.jpg,AFNE09.jpg,AFSA04.jpg,AFNE11.jpg,AFSA01.jpg,FS,4,num_8,32,num_2,1.28343433421,,,2017_Dec_12_1752,59.9930727937,MAFE4ImagesEEG,001,202500,
AFNE01.JPG,AFNE01.JPG,AFNE01.JPG,AFNE01.JPG,AFNE01.JPG,AFNE01.JPG,,,,,1,5,15,3,,,,,,,,,,,,,,,,,,,AFSA06.jpg,AFSA01.jpg,AFNE12.jpg,AFNE09.jpg,AFSA06.jpg,FS,4,num_8,32,num_6,0.700156007428,,,2017_Dec_12_1752,59.9930727937,MAFE4ImagesEEG,001,202500,
AFNE01.JPG,AFNE01.JPG,AFNE01.JPG,AFNE01.JPG,AFNE01.JPG,AFNE01.JPG,,,,,1,6,16,4,,,,,,,,,,,,,,,,,,,AFSA07.jpg,AFNE03.jpg,AFNE08.jpg,AFSA18.jpg,AFNE03.jpg,FN,3,num_6,16,num_6,1.86674922495,,,2017_Dec_12_1752,59.9930727937,MAFE4ImagesEEG,001,202500,
AFNE01.JPG,AFNE01.JPG,AFNE01.JPG,AFNE01.JPG,AFNE01.JPG,AFNE01.JPG,,,,,1,7,17,0,,,,,,,,,,,,,,,,,,,AFSA16.jpg,AFSA14.jpg,AFNE12.jpg,AFNE11.jpg,AFNE11.jpg,FN,3,num_4,16,num_4,1.3833987962,,,2017_Dec_12_1752,59.9930727937,MAFE4ImagesEEG,001,202500,
AFNE01.JPG,AFNE01.JPG,AFNE01.JPG,AFNE01.JPG,AFNE01.JPG,AFNE01.JPG,,,,,1,8,18,7,,,,,,,,,,,,,,,,,,,AFNE08.jpg,AFSA02.jpg,AFNE13.jpg,AFSA09.jpg,AFSA09.jpg,FS,4,num_4,32,num_8,1.23343750928,,,2017_Dec_12_1752,59.9930727937,MAFE4ImagesEEG,001,202500,
AFNE01.JPG,AFNE01.JPG,AFNE01.JPG,AFNE01.JPG,AFNE01.JPG,AFNE01.JPG,,,,,1,9,19,2,,,,,,,,,,,,,,,,,,,AFSA11.jpg,AFSA19.jpg,AFNE10.jpg,AFNE01.jpg,AFNE10.jpg,FN,3,num_2,32,num_4,1.41673738975,,,2017_Dec_12_1752,59.9930727937,MAFE4ImagesEEG,001,202500,
AFNE01.JPG,AFNE01.JPG,AFNE01.JPG,AFNE01.JPG,AFNE01.JPG,AFNE01.JPG,,,,,2,0,20,8,,,,,,,,,,,,,,,,,,,AFSA03.jpg,AFSA14.jpg,AFNE12.jpg,AFNE19.jpg,AFNE19.jpg,FN,3,num_4,16,num_4,0.800178523641,,,2017_Dec_12_1752,59.9930727937,MAFE4ImagesEEG,001,202500,
AFNE01.JPG,AFNE01.JPG,AFNE01.JPG,AFNE01.JPG,AFNE01.JPG,AFNE01.JPG,,,,,2,1,21,0,,,,,,,,,,,,,,,,,,,AFSA05.jpg,AFSA02.jpg,AFNE14.jpg,AFNE07.jpg,AFNE07.jpg,FN,3,num_4,32,num_2,1.08346435521,,,2017_Dec_12_1752,59.9930727937,MAFE4ImagesEEG,001,202500,
AFNE01.JPG,AFNE01.JPG,AFNE01.JPG,AFNE01.JPG,AFNE01.JPG,AFNE01.JPG,,,,,2,2,22,4,,,,,,,,,,,,,,,,,,,AFSA05.jpg,AFNE18.jpg,AFSA08.jpg,AFNE16.jpg,AFNE16.jpg,FN,3,num_4,16,num_4,1.25010504201,,,2017_Dec_12_1752,59.9930727937,MAFE4ImagesEEG,001,202500,
AFNE01.JPG,AFNE01.JPG,AFNE01.JPG,AFNE01.JPG,AFNE01.JPG,AFNE01.JPG,,,,,2,3,23,2,,,,,,,,,,,,,,,,,,,AFSA02.jpg,AFNE02.jpg,AFSA07.jpg,AFNE11.jpg,AFSA07.jpg,FS,4,num_2,16,num_2,0.933638741262,,,2017_Dec_12_1752,59.9930727937,MAFE4ImagesEEG,001,202500,
AFNE01.JPG,AFNE01.JPG,AFNE01.JPG,AFNE01.JPG,AFNE01.JPG,AFNE01.JPG,,,,,2,4,24,5,,,,,,,,,,,,,,,,,,,AFNE16.jpg,AFNE11.jpg,AFSA13.jpg,AFSA07.jpg,AFSA07.jpg,FS,4,num_4,16,num_4,0.817023745505,,,2017_Dec_12_1752,59.9930727937,MAFE4ImagesEEG,001,202500,
AFNE01.JPG,AFNE01.JPG,AFNE01.JPG,AFNE01.JPG,AFNE01.JPG,AFNE01.JPG,,,,,2,5,25,1,,,,,,,,,,,,,,,,,,,AFSA18.jpg,AFNE10.jpg,AFSA15.jpg,AFNE17.jpg,AFNE10.jpg,FN,3,num_6,16,num_6,0.916714938125,,,2017_Dec_12_1752,59.9930727937,MAFE4ImagesEEG,001,202500,
AFNE01.JPG,AFNE01.JPG,AFNE01.JPG,AFNE01.JPG,AFNE01.JPG,AFNE01.JPG,,,,,2,6,26,3,,,,,,,,,,,,,,,,,,,AFSA08.jpg,AFNE06.jpg,AFSA17.jpg,AFNE01.jpg,AFNE06.jpg,FN,3,num_6,16,num_6,0.866857314017,,,2017_Dec_12_1752,59.9930727937,MAFE4ImagesEEG,001,202500,
AFNE01.JPG,AFNE01.JPG,AFNE01.JPG,AFNE01.JPG,AFNE01.JPG,AFNE01.JPG,,,,,2,7,27,7,,,,,,,,,,,,,,,,,,,AFSA03.jpg,AFNE02.jpg,AFNE04.jpg,AFSA12.jpg,AFSA12.jpg,FS,4,num_4,32,num_2,2.84995884937,,,2017_Dec_12_1752,59.9930727937,MAFE4ImagesEEG,001,202500,
AFNE01.JPG,AFNE01.JPG,AFNE01.JPG,AFNE01.JPG,AFNE01.JPG,AFNE01.JPG,,,,,2,8,28,9,,,,,,,,,,,,,,,,,,,AFSA01.jpg,AFNE12.jpg,AFNE09.jpg,AFSA14.jpg,AFSA14.jpg,FS,4,num_4,32,num_6,1.23339934158,,,2017_Dec_12_1752,59.9930727937,MAFE4ImagesEEG,001,202500,
AFNE01.JPG,AFNE01.JPG,AFNE01.JPG,AFNE01.JPG,AFNE01.JPG,AFNE01.JPG,,,,,2,9,29,6,,,,,,,,,,,,,,,,,,,AFSA14.jpg,AFNE17.jpg,AFNE09.jpg,AFSA16.jpg,AFSA16.jpg,FS,4,num_4,16,num_4,1.05012127152,,,2017_Dec_12_1752,59.9930727937,MAFE4ImagesEEG,001,202500,
AFNE01.JPG,AFNE01.JPG,AFNE01.JPG,AFNE01.JPG,AFNE01.JPG,AFNE01.JPG,,,,,3,0,30,5,,,,,,,,,,,,,,,,,,,AFNE03.jpg,AFSA14.jpg,AFSA05.jpg,AFNE04.jpg,AFSA05.jpg,FS,4,num_2,16,num_2,1.06674293848,,,2017_Dec_12_1752,59.9930727937,MAFE4ImagesEEG,001,202500,
AFNE01.JPG,AFNE01.JPG,AFNE01.JPG,AFNE01.JPG,AFNE01.JPG,AFNE01.JPG,,,,,3,1,31,3,,,,,,,,,,,,,,,,,,,AFSA07.jpg,AFNE01.jpg,AFSA06.jpg,AFNE12.jpg,AFSA07.jpg,FS,4,num_8,32,num_4,1.05011774343,,,2017_Dec_12_1752,59.9930727937,MAFE4ImagesEEG,001,202500,
AFNE01.JPG,AFNE01.JPG,AFNE01.JPG,AFNE01.JPG,AFNE01.JPG,AFNE01.JPG,,,,,3,2,32,9,,,,,,,,,,,,,,,,,,,AFNE12.jpg,AFSA01.jpg,AFNE03.jpg,AFSA10.jpg,AFSA01.jpg,FS,4,num_6,32,num_2,1.56661785021,,,2017_Dec_12_1752,59.9930727937,MAFE4ImagesEEG,001,202500,
AFNE01.JPG,AFNE01.JPG,AFNE01.JPG,AFNE01.JPG,AFNE01.JPG,AFNE01.JPG,,,,,3,3,33,6,,,,,,,,,,,,,,,,,,,AFSA08.jpg,AFNE03.jpg,AFNE09.jpg,AFSA02.jpg,AFSA08.jpg,FS,4,num_8,32,num_6,1.03345951205,,,2017_Dec_12_1752,59.9930727937,MAFE4ImagesEEG,001,202500,
AFNE01.JPG,AFNE01.JPG,AFNE01.JPG,AFNE01.JPG,AFNE01.JPG,AFNE01.JPG,,,,,3,4,34,8,,,,,,,,,,,,,,,,,,,AFSA03.jpg,AFNE10.jpg,AFSA14.jpg,AFNE08.jpg,AFSA03.jpg,FS,4,num_8,16,num_8,0.783826277358,,,2017_Dec_12_1752,59.9930727937,MAFE4ImagesEEG,001,202500,
AFNE01.JPG,AFNE01.JPG,AFNE01.JPG,AFNE01.JPG,AFNE01.JPG,AFNE01.JPG,,,,,3,5,35,4,,,,,,,,,,,,,,,,,,,AFNE18.jpg,AFNE15.jpg,AFSA06.jpg,AFSA20.jpg,AFSA20.jpg,FS,4,num_4,32,num_2,0.983484176919,,,2017_Dec_12_1752,59.9930727937,MAFE4ImagesEEG,001,202500,
AFNE01.JPG,AFNE01.JPG,AFNE01.JPG,AFNE01.JPG,AFNE01.JPG,AFNE01.JPG,,,,,3,6,36,7,,,,,,,,,,,,,,,,,,,AFNE17.jpg,AFSA16.jpg,AFSA06.jpg,AFNE12.jpg,AFNE17.jpg,FN,3,num_8,16,num_8,1.68343972252,,,2017_Dec_12_1752,59.9930727937,MAFE4ImagesEEG,001,202500,
AFNE01.JPG,AFNE01.JPG,AFNE01.JPG,AFNE01.JPG,AFNE01.JPG,AFNE01.JPG,,,,,3,7,37,1,,,,,,,,,,,,,,,,,,,AFNE02.jpg,AFSA15.jpg,AFSA16.jpg,AFNE15.jpg,AFNE15.jpg,FN,3,num_4,32,num_6,1.5834213763,,,2017_Dec_12_1752,59.9930727937,MAFE4ImagesEEG,001,202500,
AFNE01.JPG,AFNE01.JPG,AFNE01.JPG,AFNE01.JPG,AFNE01.JPG,AFNE01.JPG,,,,,3,8,38,2,,,,,,,,,,,,,,,,,,,AFSA03.jpg,AFNE03.jpg,AFSA20.jpg,AFNE09.jpg,AFNE03.jpg,FN,3,num_6,16,num_6,1.0667467874,,,2017_Dec_12_1752,59.9930727937,MAFE4ImagesEEG,001,202500,
AFNE01.JPG,AFNE01.JPG,AFNE01.JPG,AFNE01.JPG,AFNE01.JPG,AFNE01.JPG,,,,,3,9,39,0,,,,,,,,,,,,,,,,,,,AFSA20.jpg,AFNE13.jpg,AFSA08.jpg,AFNE15.jpg,AFSA08.jpg,FS,4,num_2,32,num_8,1.28338237433,,,2017_Dec_12_1752,59.9930727937,MAFE4ImagesEEG,001,202500,
AFNE01.JPG,AFNE01.JPG,AFNE01.JPG,AFNE01.JPG,AFNE01.JPG,AFNE01.JPG,,,,,4,0,40,9,,,,,,,,,,,,,,,,,,,AFNE02.jpg,AFSA07.jpg,AFNE04.jpg,AFSA15.jpg,AFNE04.jpg,FN,3,num_2,32,num_6,1.25009606127,,,2017_Dec_12_1752,59.9930727937,MAFE4ImagesEEG,001,202500,
AFNE01.JPG,AFNE01.JPG,AFNE01.JPG,AFNE01.JPG,AFNE01.JPG,AFNE01.JPG,,,,,4,1,41,0,,,,,,,,,,,,,,,,,,,AFNE11.jpg,AFSA09.jpg,AFNE19.jpg,AFSA12.jpg,AFNE11.jpg,FN,3,num_8,32,num_4,1.41671910742,,,2017_Dec_12_1752,59.9930727937,MAFE4ImagesEEG,001,202500,
AFNE01.JPG,AFNE01.JPG,AFNE01.JPG,AFNE01.JPG,AFNE01.JPG,AFNE01.JPG,,,,,4,2,42,7,,,,,,,,,,,,,,,,,,,AFSA14.jpg,AFNE09.jpg,AFSA01.jpg,AFNE05.jpg,AFNE09.jpg,FN,3,num_6,32,num_8,0.800107639981,,,2017_Dec_12_1752,59.9930727937,MAFE4ImagesEEG,001,202500,
AFNE01.JPG,AFNE01.JPG,AFNE01.JPG,AFNE01.JPG,AFNE01.JPG,AFNE01.JPG,,,,,4,3,43,5,,,,,,,,,,,,,,,,,,,AFNE04.jpg,AFSA10.jpg,AFSA11.jpg,AFNE19.jpg,AFSA11.jpg,FS,4,num_2,16,num_2,0.816821038257,,,2017_Dec_12_1752,59.9930727937,MAFE4ImagesEEG,001,202500,
AFNE01.JPG,AFNE01.JPG,AFNE01.JPG,AFNE01.JPG,AFNE01.JPG,AFNE01.JPG,,,,,4,4,44,2,,,,,,,,,,,,,,,,,,,AFNE03.jpg,AFSA19.jpg,AFSA17.jpg,AFNE19.jpg,AFSA19.jpg,FS,4,num_6,32,num_4,1.35009291815,,,2017_Dec_12_1752,59.9930727937,MAFE4ImagesEEG,001,202500,
AFNE01.JPG,AFNE01.JPG,AFNE01.JPG,AFNE01.JPG,AFNE01.JPG,AFNE01.JPG,,,,,4,5,45,1,,,,,,,,,,,,,,,,,,,AFSA14.jpg,AFNE12.jpg,AFNE02.jpg,AFSA07.jpg,AFSA14.jpg,FS,4,num_8,32,num_4,1.13369243289,,,2017_Dec_12_1752,59.9930727937,MAFE4ImagesEEG,001,202500,
AFNE01.JPG,AFNE01.JPG,AFNE01.JPG,AFNE01.JPG,AFNE01.JPG,AFNE01.JPG,,,,,4,6,46,3,,,,,,,,,,,,,,,,,,,AFNE13.jpg,AFSA18.jpg,AFSA14.jpg,AFNE09.jpg,AFSA18.jpg,FS,4,num_6,16,num_6,0.61683951295,,,2017_Dec_12_1752,59.9930727937,MAFE4ImagesEEG,001,202500,
AFNE01.JPG,AFNE01.JPG,AFNE01.JPG,AFNE01.JPG,AFNE01.JPG,AFNE01.JPG,,,,,4,7,47,4,,,,,,,,,,,,,,,,,,,AFSA08.jpg,AFSA06.jpg,AFNE11.jpg,AFNE15.jpg,AFSA08.jpg,FS,4,num_8,32,num_2,0.983531967271,,,2017_Dec_12_1752,59.9930727937,MAFE4ImagesEEG,001,202500,
AFNE01.JPG,AFNE01.JPG,AFNE01.JPG,AFNE01.JPG,AFNE01.JPG,AFNE01.JPG,,,,,4,8,48,8,,,,,,,,,,,,,,,,,,,AFNE04.jpg,AFSA16.jpg,AFSA07.jpg,AFNE08.jpg,AFSA07.jpg,FS,4,num_2,32,num_8,0.833530908683,,,2017_Dec_12_1752,59.9930727937,MAFE4ImagesEEG,001,202500,
AFNE01.JPG,AFNE01.JPG,AFNE01.JPG,AFNE01.JPG,AFNE01.JPG,AFNE01.JPG,,,,,4,9,49,6,,,,,,,,,,,,,,,,,,,AFNE17.jpg,AFSA12.jpg,AFSA06.jpg,AFNE09.jpg,AFSA12.jpg,FS,4,num_6,16,num_6,0.766974319704,,,2017_Dec_12_1752,59.9930727937,MAFE4ImagesEEG,001,202500,
AFNE01.JPG,AFNE01.JPG,AFNE01.JPG,AFNE01.JPG,AFNE01.JPG,AFNE01.JPG,,,,,5,0,50,2,,,,,,,,,,,,,,,,,,,AFSA17.jpg,AFNE14.jpg,AFNE17.jpg,AFSA07.jpg,AFNE17.jpg,FN,3,num_2,32,num_4,2.0002033487,,,2017_Dec_12_1752,59.9930727937,MAFE4ImagesEEG,001,202500,
AFNE01.JPG,AFNE01.JPG,AFNE01.JPG,AFNE01.JPG,AFNE01.JPG,AFNE01.JPG,,,,,5,1,51,8,,,,,,,,,,,,,,,,,,,AFSA12.jpg,AFNE12.jpg,AFNE14.jpg,AFSA16.jpg,AFNE12.jpg,FN,3,num_6,16,num_6,1.35008457885,,,2017_Dec_12_1752,59.9930727937,MAFE4ImagesEEG,001,202500,
AFNE01.JPG,AFNE01.JPG,AFNE01.JPG,AFNE01.JPG,AFNE01.JPG,AFNE01.JPG,,,,,5,2,52,9,,,,,,,,,,,,,,,,,,,AFSA20.jpg,AFNE11.jpg,AFSA09.jpg,AFNE03.jpg,AFNE03.jpg,FN,3,num_4,32,num_2,1.33341127285,,,2017_Dec_12_1752,59.9930727937,MAFE4ImagesEEG,001,202500,
AFNE01.JPG,AFNE01.JPG,AFNE01.JPG,AFNE01.JPG,AFNE01.JPG,AFNE01.JPG,,,,,5,3,53,6,,,,,,,,,,,,,,,,,,,AFNE02.jpg,AFSA01.jpg,AFNE12.jpg,AFSA05.jpg,AFSA05.jpg,FS,4,num_4,32,num_8,0.966960656224,,,2017_Dec_12_1752,59.9930727937,MAFE4ImagesEEG,001,202500,
AFNE01.JPG,AFNE01.JPG,AFNE01.JPG,AFNE01.JPG,AFNE01.JPG,AFNE01.JPG,,,,,5,4,54,4,,,,,,,,,,,,,,,,,,,AFNE05.jpg,AFNE04.jpg,AFSA04.jpg,AFSA03.jpg,AFSA03.jpg,FS,4,num_4,16,num_4,1.06677501253,,,2017_Dec_12_1752,59.9930727937,MAFE4ImagesEEG,001,202500,
AFNE01.JPG,AFNE01.JPG,AFNE01.JPG,AFNE01.JPG,AFNE01.JPG,AFNE01.JPG,,,,,5,5,55,1,,,,,,,,,,,,,,,,,,,AFSA17.jpg,AFNE01.jpg,AFNE11.jpg,AFSA13.jpg,AFSA13.jpg,FS,4,num_4,16,num_4,0.833459704649,,,2017_Dec_12_1752,59.9930727937,MAFE4ImagesEEG,001,202500,
AFNE01.JPG,AFNE01.JPG,AFNE01.JPG,AFNE01.JPG,AFNE01.JPG,AFNE01.JPG,,,,,5,6,56,3,,,,,,,,,,,,,,,,,,,AFNE04.jpg,AFSA06.jpg,AFNE02.jpg,AFSA11.jpg,AFSA06.jpg,FS,4,num_6,16,num_6,0.816811737139,,,2017_Dec_12_1752,59.9930727937,MAFE4ImagesEEG,001,202500,
AFNE01.JPG,AFNE01.JPG,AFNE01.JPG,AFNE01.JPG,AFNE01.JPG,AFNE01.JPG,,,,,5,7,57,5,,,,,,,,,,,,,,,,,,,AFNE04.jpg,AFNE06.jpg,AFSA12.jpg,AFSA13.jpg,AFNE04.jpg,FN,3,num_8,32,num_6,0.833510381402,,,2017_Dec_12_1752,59.9930727937,MAFE4ImagesEEG,001,202500,
AFNE01.JPG,AFNE01.JPG,AFNE01.JPG,AFNE01.JPG,AFNE01.JPG,AFNE01.JPG,,,,,5,8,58,7,,,,,,,,,,,,,,,,,,,AFNE07.jpg,AFSA15.jpg,AFNE04.jpg,AFSA14.jpg,AFNE04.jpg,FN,3,num_2,32,num_8,0.983479045099,,,2017_Dec_12_1752,59.9930727937,MAFE4ImagesEEG,001,202500,
AFNE01.JPG,AFNE01.JPG,AFNE01.JPG,AFNE01.JPG,AFNE01.JPG,AFNE01.JPG,,,,,5,9,59,0,,,,,,,,,,,,,,,,,,,AFNE12.jpg,AFSA13.jpg,AFNE16.jpg,AFSA11.jpg,AFSA11.jpg,FS,4,num_4,16,num_4,1.91666426114,,,2017_Dec_12_1752,59.9930727937,MAFE4ImagesEEG,001,202500,
,,,,,,,,,,,,,,,,,,,,,,,,,,,,,,,,,,,,,,,,,,,space,15.2490049067,2017_Dec_12_1752,59.9930727937,MAFE4ImagesEEG,001,202500,
AFNE01.JPG,AFNE01.JPG,AFNE01.JPG,AFNE01.JPG,AFNE01.JPG,AFNE01.JPG,,,,,,,,,0,0,0,9,,,,,,,,,,,,,,,AMNE10.jpg,AMSA20.jpg,AMNE06.jpg,AMSA19.jpg,AMNE06.jpg,MN,1,num_2,32,num_8,0.883520997828,,,2017_Dec_12_1752,59.9930727937,MAFE4ImagesEEG,001,202500,
AFNE01.JPG,AFNE01.JPG,AFNE01.JPG,AFNE01.JPG,AFNE01.JPG,AFNE01.JPG,,,,,,,,,0,1,1,7,,,,,,,,,,,,,,,AMSA09.jpg,AMSA06.jpg,AMNE04.jpg,AMNE08.jpg,AMNE08.jpg,MN,1,num_4,32,num_8,1.05010523438,,,2017_Dec_12_1752,59.9930727937,MAFE4ImagesEEG,001,202500,
AFNE01.JPG,AFNE01.JPG,AFNE01.JPG,AFNE01.JPG,AFNE01.JPG,AFNE01.JPG,,,,,,,,,0,2,2,6,,,,,,,,,,,,,,,AMSA16.jpg,AMSA20.jpg,AMNE04.jpg,AMNE01.jpg,AMSA16.jpg,MS,2,num_8,32,num_6,1.00009333505,,,2017_Dec_12_1752,59.9930727937,MAFE4ImagesEEG,001,202500,
AFNE01.JPG,AFNE01.JPG,AFNE01.JPG,AFNE01.JPG,AFNE01.JPG,AFNE01.JPG,,,,,,,,,0,3,3,2,,,,,,,,,,,,,,,AMNE02.jpg,AMSA08.jpg,AMNE14.jpg,AMSA01.jpg,AMNE02.jpg,MN,1,num_8,16,num_8,1.03347843559,,,2017_Dec_12_1752,59.9930727937,MAFE4ImagesEEG,001,202500,
AFNE01.JPG,AFNE01.JPG,AFNE01.JPG,AFNE01.JPG,AFNE01.JPG,AFNE01.JPG,,,,,,,,,0,4,4,0,,,,,,,,,,,,,,,AMSA02.jpg,AMNE03.jpg,AMSA11.jpg,AMNE02.jpg,AMSA11.jpg,MS,2,num_2,32,num_6,1.58337518992,,,2017_Dec_12_1752,59.9930727937,MAFE4ImagesEEG,001,202500,
AFNE01.JPG,AFNE01.JPG,AFNE01.JPG,AFNE01.JPG,AFNE01.JPG,AFNE01.JPG,,,,,,,,,0,5,5,3,,,,,,,,,,,,,,,AMSA08.jpg,AMNE20.jpg,AMNE01.jpg,AMSA06.jpg,AMNE20.jpg,MN,1,num_6,16,num_6,1.50010552327,,,2017_Dec_12_1752,59.9930727937,MAFE4ImagesEEG,001,202500,
AFNE01.JPG,AFNE01.JPG,AFNE01.JPG,AFNE01.JPG,AFNE01.JPG,AFNE01.JPG,,,,,,,,,0,6,6,8,,,,,,,,,,,,,,,AMSA02.jpg,AMNE12.jpg,AMNE20.jpg,AMSA17.jpg,AMNE12.jpg,MN,1,num_6,16,num_6,1.03343321173,,,2017_Dec_12_1752,59.9930727937,MAFE4ImagesEEG,001,202500,
AFNE01.JPG,AFNE01.JPG,AFNE01.JPG,AFNE01.JPG,AFNE01.JPG,AFNE01.JPG,,,,,,,,,0,7,7,1,,,,,,,,,,,,,,,AMSA12.jpg,AMNE02.jpg,AMNE18.jpg,AMSA09.jpg,AMNE02.jpg,MN,1,num_6,16,num_6,0.566844291985,,,2017_Dec_12_1752,59.9930727937,MAFE4ImagesEEG,001,202500,
AFNE01.JPG,AFNE01.JPG,AFNE01.JPG,AFNE01.JPG,AFNE01.JPG,AFNE01.JPG,,,,,,,,,0,8,8,5,,,,,,,,,,,,,,,AMNE12.jpg,AMNE02.jpg,AMSA20.jpg,AMSA06.jpg,AMNE12.jpg,MN,1,num_8,16,num_8,0.866772959707,,,2017_Dec_12_1752,59.9930727937,MAFE4ImagesEEG,001,202500,
AFNE01.JPG,AFNE01.JPG,AFNE01.JPG,AFNE01.JPG,AFNE01.JPG,AFNE01.JPG,,,,,,,,,0,9,9,4,,,,,,,,,,,,,,,AMSA11.jpg,AMSA07.jpg,AMNE03.jpg,AMNE05.jpg,AMNE05.jpg,MN,1,num_4,16,num_4,1.11680808058,,,2017_Dec_12_1752,59.9930727937,MAFE4ImagesEEG,001,202500,
AFNE01.JPG,AFNE01.JPG,AFNE01.JPG,AFNE01.JPG,AFNE01.JPG,AFNE01.JPG,,,,,,,,,1,0,10,1,,,,,,,,,,,,,,,AMSA18.jpg,AMNE15.jpg,AMNE18.jpg,AMSA10.jpg,AMSA10.jpg,MS,2,num_4,32,num_2,1.45013147104,,,2017_Dec_12_1752,59.9930727937,MAFE4ImagesEEG,001,202500,
AFNE01.JPG,AFNE01.JPG,AFNE01.JPG,AFNE01.JPG,AFNE01.JPG,AFNE01.JPG,,,,,,,,,1,1,11,9,,,,,,,,,,,,,,,AMNE02.jpg,AMNE12.jpg,AMSA04.jpg,AMSA01.jpg,AMSA04.jpg,MS,2,num_2,16,num_2,0.79985553911,,,2017_Dec_12_1752,59.9930727937,MAFE4ImagesEEG,001,202500,
AFNE01.JPG,AFNE01.JPG,AFNE01.JPG,AFNE01.JPG,AFNE01.JPG,AFNE01.JPG,,,,,,,,,1,2,12,3,,,,,,,,,,,,,,,AMNE19.jpg,AMSA18.jpg,AMNE16.jpg,AMSA20.jpg,AMSA18.jpg,MS,2,num_6,16,num_6,0.866810165346,,,2017_Dec_12_1752,59.9930727937,MAFE4ImagesEEG,001,202500,
AFNE01.JPG,AFNE01.JPG,AFNE01.JPG,AFNE01.JPG,AFNE01.JPG,AFNE01.JPG,,,,,,,,,1,3,13,8,,,,,,,,,,,,,,,AMNE13.jpg,AMSA15.jpg,AMNE19.jpg,AMSA11.jpg,AMSA11.jpg,MS,2,num_4,16,num_4,0.800102508161,,,2017_Dec_12_1752,59.9930727937,MAFE4ImagesEEG,001,202500,
AFNE01.JPG,AFNE01.JPG,AFNE01.JPG,AFNE01.JPG,AFNE01.JPG,AFNE01.JPG,,,,,,,,,1,4,14,6,,,,,,,,,,,,,,,AMNE08.jpg,AMSA08.jpg,AMSA02.jpg,AMNE04.jpg,AMNE08.jpg,MN,1,num_8,32,num_6,1.03345630458,,,2017_Dec_12_1752,59.9930727937,MAFE4ImagesEEG,001,202500,
AFNE01.JPG,AFNE01.JPG,AFNE01.JPG,AFNE01.JPG,AFNE01.JPG,AFNE01.JPG,,,,,,,,,1,5,15,0,,,,,,,,,,,,,,,AMSA13.jpg,AMNE09.jpg,AMSA16.jpg,AMNE03.jpg,AMSA16.jpg,MS,2,num_2,16,num_2,1.8333949151,,,2017_Dec_12_1752,59.9930727937,MAFE4ImagesEEG,001,202500,
AFNE01.JPG,AFNE01.JPG,AFNE01.JPG,AFNE01.JPG,AFNE01.JPG,AFNE01.JPG,,,,,,,,,1,6,16,7,,,,,,,,,,,,,,,AMNE05.jpg,AMSA05.jpg,AMSA12.jpg,AMNE09.jpg,AMNE09.jpg,MN,1,num_4,16,num_4,1.10011649248,,,2017_Dec_12_1752,59.9930727937,MAFE4ImagesEEG,001,202500,
AFNE01.JPG,AFNE01.JPG,AFNE01.JPG,AFNE01.JPG,AFNE01.JPG,AFNE01.JPG,,,,,,,,,1,7,17,5,,,,,,,,,,,,,,,AMSA10.jpg,AMSA06.jpg,AMNE07.jpg,AMNE01.jpg,AMSA06.jpg,MS,2,num_6,32,num_8,1.20013451809,,,2017_Dec_12_1752,59.9930727937,MAFE4ImagesEEG,001,202500,
AFNE01.JPG,AFNE01.JPG,AFNE01.JPG,AFNE01.JPG,AFNE01.JPG,AFNE01.JPG,,,,,,,,,1,8,18,2,,,,,,,,,,,,,,,AMSA19.jpg,AMNE19.jpg,AMSA14.jpg,AMNE12.jpg,AMSA19.jpg,MS,2,num_8,32,num_4,1.36673671613,,,2017_Dec_12_1752,59.9930727937,MAFE4ImagesEEG,001,202500,
AFNE01.JPG,AFNE01.JPG,AFNE01.JPG,AFNE01.JPG,AFNE01.JPG,AFNE01.JPG,,,,,,,,,1,9,19,4,,,,,,,,,,,,,,,AMSA04.jpg,AMNE12.jpg,AMSA17.jpg,AMNE08.jpg,AMNE12.jpg,MN,1,num_6,16,num_6,1.10010302137,,,2017_Dec_12_1752,59.9930727937,MAFE4ImagesEEG,001,202500,
AFNE01.JPG,AFNE01.JPG,AFNE01.JPG,AFNE01.JPG,AFNE01.JPG,AFNE01.JPG,,,,,,,,,2,0,20,8,,,,,,,,,,,,,,,AMSA06.jpg,AMNE15.jpg,AMNE19.jpg,AMSA04.jpg,AMSA04.jpg,MS,2,num_4,32,num_8,1.15011460008,,,2017_Dec_12_1752,59.9930727937,MAFE4ImagesEEG,001,202500,
AFNE01.JPG,AFNE01.JPG,AFNE01.JPG,AFNE01.JPG,AFNE01.JPG,AFNE01.JPG,,,,,,,,,2,1,21,6,,,,,,,,,,,,,,,AMSA08.jpg,AMNE02.jpg,AMNE20.jpg,AMSA10.jpg,AMSA08.jpg,MS,2,num_8,32,num_4,1.31675689062,,,2017_Dec_12_1752,59.9930727937,MAFE4ImagesEEG,001,202500,
AFNE01.JPG,AFNE01.JPG,AFNE01.JPG,AFNE01.JPG,AFNE01.JPG,AFNE01.JPG,,,,,,,,,2,2,22,9,,,,,,,,,,,,,,,AMSA03.jpg,AMNE19.jpg,AMSA12.jpg,AMNE02.jpg,AMSA12.jpg,MS,2,num_2,16,num_2,0.900124382693,,,2017_Dec_12_1752,59.9930727937,MAFE4ImagesEEG,001,202500,
AFNE01.JPG,AFNE01.JPG,AFNE01.JPG,AFNE01.JPG,AFNE01.JPG,AFNE01.JPG,,,,,,,,,2,3,23,3,,,,,,,,,,,,,,,AMNE16.jpg,AMSA07.jpg,AMSA17.jpg,AMNE11.jpg,AMSA07.jpg,MS,2,num_6,16,num_6,0.900138815865,,,2017_Dec_12_1752,59.9930727937,MAFE4ImagesEEG,001,202500,
AFNE01.JPG,AFNE01.JPG,AFNE01.JPG,AFNE01.JPG,AFNE01.JPG,AFNE01.JPG,,,,,,,,,2,4,24,7,,,,,,,,,,,,,,,AMNE08.jpg,AMSA06.jpg,AMSA03.jpg,AMNE18.jpg,AMNE08.jpg,MN,1,num_8,32,num_6,1.63340184325,,,2017_Dec_12_1752,59.9930727937,MAFE4ImagesEEG,001,202500,
AFNE01.JPG,AFNE01.JPG,AFNE01.JPG,AFNE01.JPG,AFNE01.JPG,AFNE01.JPG,,,,,,,,,2,5,25,2,,,,,,,,,,,,,,,AMNE04.jpg,AMSA17.jpg,AMSA13.jpg,AMNE01.jpg,AMNE01.jpg,MN,1,num_4,16,num_4,1.08354774746,,,2017_Dec_12_1752,59.9930727937,MAFE4ImagesEEG,001,202500,
AFNE01.JPG,AFNE01.JPG,AFNE01.JPG,AFNE01.JPG,AFNE01.JPG,AFNE01.JPG,,,,,,,,,2,6,26,0,,,,,,,,,,,,,,,AMNE03.jpg,AMSA06.jpg,AMSA18.jpg,AMNE19.jpg,AMNE19.jpg,MN,1,num_4,16,num_4,1.01677658409,,,2017_Dec_12_1752,59.9930727937,MAFE4ImagesEEG,001,202500,
AFNE01.JPG,AFNE01.JPG,AFNE01.JPG,AFNE01.JPG,AFNE01.JPG,AFNE01.JPG,,,,,,,,,2,7,27,5,,,,,,,,,,,,,,,AMNE06.jpg,AMSA01.jpg,AMSA11.jpg,AMNE05.jpg,AMSA11.jpg,MS,2,num_2,16,num_2,0.700230739778,,,2017_Dec_12_1752,59.9930727937,MAFE4ImagesEEG,001,202500,
AFNE01.JPG,AFNE01.JPG,AFNE01.JPG,AFNE01.JPG,AFNE01.JPG,AFNE01.JPG,,,,,,,,,2,8,28,1,,,,,,,,,,,,,,,AMNE20.jpg,AMSA04.jpg,AMNE18.jpg,AMSA19.jpg,AMSA19.jpg,MS,2,num_4,16,num_4,0.900113798445,,,2017_Dec_12_1752,59.9930727937,MAFE4ImagesEEG,001,202500,
AFNE01.JPG,AFNE01.JPG,AFNE01.JPG,AFNE01.JPG,AFNE01.JPG,AFNE01.JPG,,,,,,,,,2,9,29,4,,,,,,,,,,,,,,,AMSA11.jpg,AMSA17.jpg,AMNE10.jpg,AMNE01.jpg,AMSA11.jpg,MS,2,num_8,32,num_2,1.53343545669,,,2017_Dec_12_1752,59.9930727937,MAFE4ImagesEEG,001,202500,
AFNE01.JPG,AFNE01.JPG,AFNE01.JPG,AFNE01.JPG,AFNE01.JPG,AFNE01.JPG,,,,,,,,,3,0,30,1,,,,,,,,,,,,,,,AMSA01.jpg,AMNE15.jpg,AMNE10.jpg,AMSA06.jpg,AMSA06.jpg,MS,2,num_4,16,num_4,1.58340822603,,,2017_Dec_12_1752,59.9930727937,MAFE4ImagesEEG,001,202500,
AFNE01.JPG,AFNE01.JPG,AFNE01.JPG,AFNE01.JPG,AFNE01.JPG,AFNE01.JPG,,,,,,,,,3,1,31,6,,,,,,,,,,,,,,,AMNE15.jpg,AMNE04.jpg,AMSA07.jpg,AMSA18.jpg,AMSA18.jpg,MS,2,num_4,16,num_4,1.11677953484,,,2017_Dec_12_1752,59.9930727937,MAFE4ImagesEEG,001,202500,
AFNE01.JPG,AFNE01.JPG,AFNE01.JPG,AFNE01.JPG,AFNE01.JPG,AFNE01.JPG,,,,,,,,,3,2,32,7,,,,,,,,,,,,,,,AMNE03.jpg,AMSA18.jpg,AMSA16.jpg,AMNE05.jpg,AMNE03.jpg,MN,1,num_8,16,num_8,1.20017589349,,,2017_Dec_12_1752,59.9930727937,MAFE4ImagesEEG,001,202500,
AFNE01.JPG,AFNE01.JPG,AFNE01.JPG,AFNE01.JPG,AFNE01.JPG,AFNE01.JPG,,,,,,,,,3,3,33,9,,,,,,,,,,,,,,,AMNE04.jpg,AMNE16.jpg,AMSA12.jpg,AMSA18.jpg,AMNE16.jpg,MN,1,num_6,32,num_2,1.3667838648,,,2017_Dec_12_1752,59.9930727937,MAFE4ImagesEEG,001,202500,
AFNE01.JPG,AFNE01.JPG,AFNE01.JPG,AFNE01.JPG,AFNE01.JPG,AFNE01.JPG,,,,,,,,,3,4,34,2,,,,,,,,,,,,,,,AMNE18.jpg,AMSA19.jpg,AMSA14.jpg,AMNE08.jpg,AMSA19.jpg,MS,2,num_6,32,num_4,1.03345053131,,,2017_Dec_12_1752,59.9930727937,MAFE4ImagesEEG,001,202500,
AFNE01.JPG,AFNE01.JPG,AFNE01.JPG,AFNE01.JPG,AFNE01.JPG,AFNE01.JPG,,,,,,,,,3,5,35,0,,,,,,,,,,,,,,,AMNE09.jpg,AMNE01.jpg,AMSA13.jpg,AMSA08.jpg,AMNE01.jpg,MN,1,num_6,16,num_6,1.21667600027,,,2017_Dec_12_1752,59.9930727937,MAFE4ImagesEEG,001,202500,
AFNE01.JPG,AFNE01.JPG,AFNE01.JPG,AFNE01.JPG,AFNE01.JPG,AFNE01.JPG,,,,,,,,,3,6,36,8,,,,,,,,,,,,,,,AMNE19.jpg,AMSA01.jpg,AMSA08.jpg,AMNE10.jpg,AMSA08.jpg,MS,2,num_2,32,num_4,1.34976897156,,,2017_Dec_12_1752,59.9930727937,MAFE4ImagesEEG,001,202500,
AFNE01.JPG,AFNE01.JPG,AFNE01.JPG,AFNE01.JPG,AFNE01.JPG,AFNE01.JPG,,,,,,,,,3,7,37,3,,,,,,,,,,,,,,,AMNE16.jpg,AMSA15.jpg,AMSA20.jpg,AMNE12.jpg,AMNE16.jpg,MN,1,num_8,16,num_8,0.96674062917,,,2017_Dec_12_1752,59.9930727937,MAFE4ImagesEEG,001,202500,
AFNE01.JPG,AFNE01.JPG,AFNE01.JPG,AFNE01.JPG,AFNE01.JPG,AFNE01.JPG,,,,,,,,,3,8,38,5,,,,,,,,,,,,,,,AMSA02.jpg,AMNE07.jpg,AMSA03.jpg,AMNE15.jpg,AMNE07.jpg,MN,1,num_6,32,num_4,0.900178587763,,,2017_Dec_12_1752,59.9930727937,MAFE4ImagesEEG,001,202500,
AFNE01.JPG,AFNE01.JPG,AFNE01.JPG,AFNE01.JPG,AFNE01.JPG,AFNE01.JPG,,,,,,,,,3,9,39,4,,,,,,,,,,,,,,,AMSA17.jpg,AMNE09.jpg,AMNE10.jpg,AMSA08.jpg,AMSA17.jpg,MS,2,num_8,32,num_6,1.21677029738,,,2017_Dec_12_1752,59.9930727937,MAFE4ImagesEEG,001,202500,
AFNE01.JPG,AFNE01.JPG,AFNE01.JPG,AFNE01.JPG,AFNE01.JPG,AFNE01.JPG,,,,,,,,,4,0,40,8,,,,,,,,,,,,,,,AMNE02.jpg,AMNE19.jpg,AMSA15.jpg,AMSA05.jpg,AMNE19.jpg,MN,1,num_6,32,num_4,1.00014369097,,,2017_Dec_12_1752,59.9930727937,MAFE4ImagesEEG,001,202500,
AFNE01.JPG,AFNE01.JPG,AFNE01.JPG,AFNE01.JPG,AFNE01.JPG,AFNE01.JPG,,,,,,,,,4,1,41,1,,,,,,,,,,,,,,,AMSA08.jpg,AMSA01.jpg,AMNE18.jpg,AMNE11.jpg,AMSA08.jpg,MS,2,num_8,32,num_6,2.00002726284,,,2017_Dec_12_1752,59.9930727937,MAFE4ImagesEEG,001,202500,
AFNE01.JPG,AFNE01.JPG,AFNE01.JPG,AFNE01.JPG,AFNE01.JPG,AFNE01.JPG,,,,,,,,,4,2,42,6,,,,,,,,,,,,,,,AMNE02.jpg,AMSA13.jpg,AMSA10.jpg,AMNE16.jpg,AMNE16.jpg,MN,1,num_4,32,num_6,1.30006177421,,,2017_Dec_12_1752,59.9930727937,MAFE4ImagesEEG,001,202500,
AFNE01.JPG,AFNE01.JPG,AFNE01.JPG,AFNE01.JPG,AFNE01.JPG,AFNE01.JPG,,,,,,,,,4,3,43,4,,,,,,,,,,,,,,,AMNE07.jpg,AMNE15.jpg,AMSA07.jpg,AMSA12.jpg,AMSA07.jpg,MS,2,num_2,16,num_2,0.7498256783,,,2017_Dec_12_1752,59.9930727937,MAFE4ImagesEEG,001,202500,
AFNE01.JPG,AFNE01.JPG,AFNE01.JPG,AFNE01.JPG,AFNE01.JPG,AFNE01.JPG,,,,,,,,,4,4,44,0,,,,,,,,,,,,,,,AMNE02.jpg,AMSA12.jpg,AMNE08.jpg,AMSA10.jpg,AMNE02.jpg,MN,1,num_8,32,num_6,2.68329282408,,,2017_Dec_12_1752,59.9930727937,MAFE4ImagesEEG,001,202500,
AFNE01.JPG,AFNE01.JPG,AFNE01.JPG,AFNE01.JPG,AFNE01.JPG,AFNE01.JPG,,,,,,,,,4,5,45,3,,,,,,,,,,,,,,,AMSA04.jpg,AMSA16.jpg,AMNE03.jpg,AMNE10.jpg,AMSA04.jpg,MS,2,num_8,16,num_8,1.08344190358,,,2017_Dec_12_1752,59.9930727937,MAFE4ImagesEEG,001,202500,
AFNE01.JPG,AFNE01.JPG,AFNE01.JPG,AFNE01.JPG,AFNE01.JPG,AFNE01.JPG,,,,,,,,,4,6,46,2,,,,,,,,,,,,,,,AMNE17.jpg,AMNE09.jpg,AMSA04.jpg,AMSA09.jpg,AMSA09.jpg,MS,2,num_4,16,num_4,1.48343093437,,,2017_Dec_12_1752,59.9930727937,MAFE4ImagesEEG,001,202500,
AFNE01.JPG,AFNE01.JPG,AFNE01.JPG,AFNE01.JPG,AFNE01.JPG,AFNE01.JPG,,,,,,,,,4,7,47,7,,,,,,,,,,,,,,,AMNE17.jpg,AMNE09.jpg,AMSA15.jpg,AMSA16.jpg,AMSA16.jpg,MS,2,num_4,32,num_2,1.33341961214,,,2017_Dec_12_1752,59.9930727937,MAFE4ImagesEEG,001,202500,
AFNE01.JPG,AFNE01.JPG,AFNE01.JPG,AFNE01.JPG,AFNE01.JPG,AFNE01.JPG,,,,,,,,,4,8,48,5,,,,,,,,,,,,,,,AMNE06.jpg,AMNE07.jpg,AMSA09.jpg,AMSA18.jpg,AMSA09.jpg,MS,2,num_2,32,num_4,2.58336717123,,,2017_Dec_12_1752,59.9930727937,MAFE4ImagesEEG,001,202500,
AFNE01.JPG,AFNE01.JPG,AFNE01.JPG,AFNE01.JPG,AFNE01.JPG,AFNE01.JPG,,,,,,,,,4,9,49,9,,,,,,,,,,,,,,,AMSA19.jpg,AMNE05.jpg,AMNE07.jpg,AMSA10.jpg,AMSA10.jpg,MS,2,num_4,16,num_4,1.21677639149,,,2017_Dec_12_1752,59.9930727937,MAFE4ImagesEEG,001,202500,
AFNE01.JPG,AFNE01.JPG,AFNE01.JPG,AFNE01.JPG,AFNE01.JPG,AFNE01.JPG,,,,,,,,,5,0,50,1,,,,,,,,,,,,,,,AMSA02.jpg,AMNE07.jpg,AMSA16.jpg,AMNE04.jpg,AMNE04.jpg,MN,1,num_4,32,num_2,1.25007232674,,,2017_Dec_12_1752,59.9930727937,MAFE4ImagesEEG,001,202500,
AFNE01.JPG,AFNE01.JPG,AFNE01.JPG,AFNE01.JPG,AFNE01.JPG,AFNE01.JPG,,,,,,,,,5,1,51,8,,,,,,,,,,,,,,,AMSA02.jpg,AMNE06.jpg,AMSA13.jpg,AMNE02.jpg,AMNE02.jpg,MN,1,num_4,32,num_8,1.36671009474,,,2017_Dec_12_1752,59.9930727937,MAFE4ImagesEEG,001,202500,
AFNE01.JPG,AFNE01.JPG,AFNE01.JPG,AFNE01.JPG,AFNE01.JPG,AFNE01.JPG,,,,,,,,,5,2,52,2,,,,,,,,,,,,,,,AMSA19.jpg,AMSA15.jpg,AMNE06.jpg,AMNE15.jpg,AMSA15.jpg,MS,2,num_6,16,num_6,0.766780913807,,,2017_Dec_12_1752,59.9930727937,MAFE4ImagesEEG,001,202500,
AFNE01.JPG,AFNE01.JPG,AFNE01.JPG,AFNE01.JPG,AFNE01.JPG,AFNE01.JPG,,,,,,,,,5,3,53,4,,,,,,,,,,,,,,,AMNE10.jpg,AMSA12.jpg,AMSA08.jpg,AMNE19.jpg,AMNE10.jpg,MN,1,num_8,16,num_8,1.1997874782,,,2017_Dec_12_1752,59.9930727937,MAFE4ImagesEEG,001,202500,
AFNE01.JPG,AFNE01.JPG,AFNE01.JPG,AFNE01.JPG,AFNE01.JPG,AFNE01.JPG,,,,,,,,,5,4,54,3,,,,,,,,,,,,,,,AMSA18.jpg,AMSA02.jpg,AMNE18.jpg,AMNE06.jpg,AMSA02.jpg,MS,2,num_6,16,num_6,1.01681475178,,,2017_Dec_12_1752,59.9930727937,MAFE4ImagesEEG,001,202500,
AFNE01.JPG,AFNE01.JPG,AFNE01.JPG,AFNE01.JPG,AFNE01.JPG,AFNE01.JPG,,,,,,,,,5,5,55,6,,,,,,,,,,,,,,,AMNE09.jpg,AMSA11.jpg,AMNE07.jpg,AMSA15.jpg,AMNE09.jpg,MN,1,num_8,32,num_4,1.10010430426,,,2017_Dec_12_1752,59.9930727937,MAFE4ImagesEEG,001,202500,
AFNE01.JPG,AFNE01.JPG,AFNE01.JPG,AFNE01.JPG,AFNE01.JPG,AFNE01.JPG,,,,,,,,,5,6,56,9,,,,,,,,,,,,,,,AMNE19.jpg,AMSA15.jpg,AMSA12.jpg,AMNE13.jpg,AMNE13.jpg,MN,1,num_4,16,num_4,1.13340569218,,,2017_Dec_12_1752,59.9930727937,MAFE4ImagesEEG,001,202500,
AFNE01.JPG,AFNE01.JPG,AFNE01.JPG,AFNE01.JPG,AFNE01.JPG,AFNE01.JPG,,,,,,,,,5,7,57,7,,,,,,,,,,,,,,,AMNE01.jpg,AMNE17.jpg,AMSA02.jpg,AMSA12.jpg,AMNE01.jpg,MN,1,num_8,32,num_4,1.16674107802,,,2017_Dec_12_1752,59.9930727937,MAFE4ImagesEEG,001,202500,
AFNE01.JPG,AFNE01.JPG,AFNE01.JPG,AFNE01.JPG,AFNE01.JPG,AFNE01.JPG,,,,,,,,,5,8,58,5,,,,,,,,,,,,,,,AMSA06.jpg,AMSA01.jpg,AMNE04.jpg,AMNE02.jpg,AMSA01.jpg,MS,2,num_6,16,num_6,0.766475249548,,,2017_Dec_12_1752,59.9930727937,MAFE4ImagesEEG,001,202500,
AFNE01.JPG,AFNE01.JPG,AFNE01.JPG,AFNE01.JPG,AFNE01.JPG,AFNE01.JPG,,,,,,,,,5,9,59,0,,,,,,,,,,,,,,,AMSA16.jpg,AMSA07.jpg,AMNE07.jpg,AMNE09.jpg,AMNE09.jpg,MN,1,num_4,32,num_2,2.00003367779,,,2017_Dec_12_1752,59.9930727937,MAFE4ImagesEEG,001,202500,
,,,,,,,,,,,,,,,,,,,,,,,,,,,,,,,,,,,,,,,,,,,space,13.2658145267,2017_Dec_12_1752,59.9930727937,MAFE4ImagesEEG,001,202500,
AFNE01.JPG,AFNE01.JPG,AFNE01.JPG,AFNE01.JPG,AFNE01.JPG,AFNE01.JPG,,,,,,,,,,,,,0,0,0,5,,,,,,,,,,,AFNE20.jpg,AFNE17.jpg,AFSA03.jpg,AFSA05.jpg,AFNE20.jpg,FN,3,num_8,16,num_8,0.866774563445,,,2017_Dec_12_1752,59.9930727937,MAFE4ImagesEEG,001,202500,
AFNE01.JPG,AFNE01.JPG,AFNE01.JPG,AFNE01.JPG,AFNE01.JPG,AFNE01.JPG,,,,,,,,,,,,,0,1,1,6,,,,,,,,,,,AFNE06.jpg,AFNE01.jpg,AFSA02.jpg,AFSA10.jpg,AFSA02.jpg,FS,4,num_2,16,num_2,0.800119186752,,,2017_Dec_12_1752,59.9930727937,MAFE4ImagesEEG,001,202500,
AFNE01.JPG,AFNE01.JPG,AFNE01.JPG,AFNE01.JPG,AFNE01.JPG,AFNE01.JPG,,,,,,,,,,,,,0,2,2,8,,,,,,,,,,,AFNE01.jpg,AFSA04.jpg,AFNE16.jpg,AFSA06.jpg,AFNE01.jpg,FN,3,num_8,32,num_6,0.900148758898,,,2017_Dec_12_1752,59.9930727937,MAFE4ImagesEEG,001,202500,
AFNE01.JPG,AFNE01.JPG,AFNE01.JPG,AFNE01.JPG,AFNE01.JPG,AFNE01.JPG,,,,,,,,,,,,,0,3,3,2,,,,,,,,,,,AFSA11.jpg,AFSA04.jpg,AFNE12.jpg,AFNE13.jpg,AFNE13.jpg,FN,3,num_4,32,num_2,0.750155398156,,,2017_Dec_12_1752,59.9930727937,MAFE4ImagesEEG,001,202500,
AFNE01.JPG,AFNE01.JPG,AFNE01.JPG,AFNE01.JPG,AFNE01.JPG,AFNE01.JPG,,,,,,,,,,,,,0,4,4,9,,,,,,,,,,,AFNE07.jpg,AFNE06.jpg,AFSA20.jpg,AFSA01.jpg,AFNE06.jpg,FN,3,num_6,32,num_8,0.80019295658,,,2017_Dec_12_1752,59.9930727937,MAFE4ImagesEEG,001,202500,
AFNE01.JPG,AFNE01.JPG,AFNE01.JPG,AFNE01.JPG,AFNE01.JPG,AFNE01.JPG,,,,,,,,,,,,,0,5,5,7,,,,,,,,,,,AFNE17.jpg,AFSA18.jpg,AFSA10.jpg,AFNE09.jpg,AFNE17.jpg,FN,3,num_8,32,num_4,2.86676943162,,,2017_Dec_12_1752,59.9930727937,MAFE4ImagesEEG,001,202500,
AFNE01.JPG,AFNE01.JPG,AFNE01.JPG,AFNE01.JPG,AFNE01.JPG,AFNE01.JPG,,,,,,,,,,,,,0,6,6,4,,,,,,,,,,,AFNE09.jpg,AFSA15.jpg,AFSA12.jpg,AFNE01.jpg,AFSA15.jpg,FS,4,num_6,16,num_6,1.06686321576,,,2017_Dec_12_1752,59.9930727937,MAFE4ImagesEEG,001,202500,
AFNE01.JPG,AFNE01.JPG,AFNE01.JPG,AFNE01.JPG,AFNE01.JPG,AFNE01.JPG,,,,,,,,,,,,,0,7,7,3,,,,,,,,,,,AFNE09.jpg,AFSA16.jpg,AFSA18.jpg,AFNE19.jpg,AFSA16.jpg,FS,4,num_6,16,num_6,1.13343648287,,,2017_Dec_12_1752,59.9930727937,MAFE4ImagesEEG,001,202500,
AFNE01.JPG,AFNE01.JPG,AFNE01.JPG,AFNE01.JPG,AFNE01.JPG,AFNE01.JPG,,,,,,,,,,,,,0,8,8,1,,,,,,,,,,,AFNE08.jpg,AFSA18.jpg,AFNE10.jpg,AFSA10.jpg,AFNE08.jpg,FN,3,num_8,32,num_4,1.36677520466,,,2017_Dec_12_1752,59.9930727937,MAFE4ImagesEEG,001,202500,
AFNE01.JPG,AFNE01.JPG,AFNE01.JPG,AFNE01.JPG,AFNE01.JPG,AFNE01.JPG,,,,,,,,,,,,,0,9,9,0,,,,,,,,,,,AFSA06.jpg,AFNE12.jpg,AFNE08.jpg,AFSA11.jpg,AFNE08.jpg,FN,3,num_2,32,num_6,0.866773921764,,,2017_Dec_12_1752,59.9930727937,MAFE4ImagesEEG,001,202500,
AFNE01.JPG,AFNE01.JPG,AFNE01.JPG,AFNE01.JPG,AFNE01.JPG,AFNE01.JPG,,,,,,,,,,,,,1,0,10,8,,,,,,,,,,,AFSA02.jpg,AFNE11.jpg,AFNE14.jpg,AFSA10.jpg,AFSA02.jpg,FS,4,num_8,32,num_6,1.01672269963,,,2017_Dec_12_1752,59.9930727937,MAFE4ImagesEEG,001,202500,
AFNE01.JPG,AFNE01.JPG,AFNE01.JPG,AFNE01.JPG,AFNE01.JPG,AFNE01.JPG,,,,,,,,,,,,,1,1,11,5,,,,,,,,,,,AFSA08.jpg,AFNE11.jpg,AFSA19.jpg,AFNE18.jpg,AFNE11.jpg,FN,3,num_6,16,num_6,0.883423813852,,,2017_Dec_12_1752,59.9930727937,MAFE4ImagesEEG,001,202500,
AFNE01.JPG,AFNE01.JPG,AFNE01.JPG,AFNE01.JPG,AFNE01.JPG,AFNE01.JPG,,,,,,,,,,,,,1,2,12,9,,,,,,,,,,,AFNE10.jpg,AFNE11.jpg,AFSA15.jpg,AFSA19.jpg,AFSA15.jpg,FS,4,num_2,16,num_2,2.03342679678,,,2017_Dec_12_1752,59.9930727937,MAFE4ImagesEEG,001,202500,
AFNE01.JPG,AFNE01.JPG,AFNE01.JPG,AFNE01.JPG,AFNE01.JPG,AFNE01.JPG,,,,,,,,,,,,,1,3,13,1,,,,,,,,,,,AFSA02.jpg,AFNE04.jpg,AFNE01.jpg,AFSA15.jpg,AFSA02.jpg,FS,4,num_8,32,num_2,1.00013278588,,,2017_Dec_12_1752,59.9930727937,MAFE4ImagesEEG,001,202500,
AFNE01.JPG,AFNE01.JPG,AFNE01.JPG,AFNE01.JPG,AFNE01.JPG,AFNE01.JPG,,,,,,,,,,,,,1,4,14,7,,,,,,,,,,,AFNE13.jpg,AFSA07.jpg,AFNE14.jpg,AFSA11.jpg,AFNE14.jpg,FN,3,num_2,32,num_6,0.833540210035,,,2017_Dec_12_1752,59.9930727937,MAFE4ImagesEEG,001,202500,
AFNE01.JPG,AFNE01.JPG,AFNE01.JPG,AFNE01.JPG,AFNE01.JPG,AFNE01.JPG,,,,,,,,,,,,,1,5,15,0,,,,,,,,,,,AFSA04.jpg,AFNE19.jpg,AFSA12.jpg,AFNE18.jpg,AFSA04.jpg,FS,4,num_8,16,num_8,1.3499800181,,,2017_Dec_12_1752,59.9930727937,MAFE4ImagesEEG,001,202500,
AFNE01.JPG,AFNE01.JPG,AFNE01.JPG,AFNE01.JPG,AFNE01.JPG,AFNE01.JPG,,,,,,,,,,,,,1,6,16,4,,,,,,,,,,,AFSA03.jpg,AFNE15.jpg,AFNE16.jpg,AFSA02.jpg,AFNE16.jpg,FN,3,num_2,32,num_6,0.900120854611,,,2017_Dec_12_1752,59.9930727937,MAFE4ImagesEEG,001,202500,
AFNE01.JPG,AFNE01.JPG,AFNE01.JPG,AFNE01.JPG,AFNE01.JPG,AFNE01.JPG,,,,,,,,,,,,,1,7,17,3,,,,,,,,,,,AFNE08.jpg,AFSA05.jpg,AFNE18.jpg,AFSA20.jpg,AFNE18.jpg,FN,3,num_2,16,num_2,0.849988036323,,,2017_Dec_12_1752,59.9930727937,MAFE4ImagesEEG,001,202500,
AFNE01.JPG,AFNE01.JPG,AFNE01.JPG,AFNE01.JPG,AFNE01.JPG,AFNE01.JPG,,,,,,,,,,,,,1,8,18,2,,,,,,,,,,,AFSA17.jpg,AFSA19.jpg,AFNE04.jpg,AFNE15.jpg,AFSA19.jpg,FS,4,num_6,32,num_2,1.85002331762,,,2017_Dec_12_1752,59.9930727937,MAFE4ImagesEEG,001,202500,
AFNE01.JPG,AFNE01.JPG,AFNE01.JPG,AFNE01.JPG,AFNE01.JPG,AFNE01.JPG,,,,,,,,,,,,,1,9,19,6,,,,,,,,,,,AFSA05.jpg,AFNE13.jpg,AFSA13.jpg,AFNE19.jpg,AFSA13.jpg,FS,4,num_2,32,num_6,1.18340187543,,,2017_Dec_12_1752,59.9930727937,MAFE4ImagesEEG,001,202500,
AFNE01.JPG,AFNE01.JPG,AFNE01.JPG,AFNE01.JPG,AFNE01.JPG,AFNE01.JPG,,,,,,,,,,,,,2,0,20,3,,,,,,,,,,,AFSA01.jpg,AFNE10.jpg,AFNE17.jpg,AFSA12.jpg,AFSA12.jpg,FS,4,num_4,16,num_4,1.06680002995,,,2017_Dec_12_1752,59.9930727937,MAFE4ImagesEEG,001,202500,
AFNE01.JPG,AFNE01.JPG,AFNE01.JPG,AFNE01.JPG,AFNE01.JPG,AFNE01.JPG,,,,,,,,,,,,,2,1,21,2,,,,,,,,,,,AFSA06.jpg,AFSA07.jpg,AFNE03.jpg,AFNE02.jpg,AFNE03.jpg,FN,3,num_2,16,num_2,0.950171884149,,,2017_Dec_12_1752,59.9930727937,MAFE4ImagesEEG,001,202500,
AFNE01.JPG,AFNE01.JPG,AFNE01.JPG,AFNE01.JPG,AFNE01.JPG,AFNE01.JPG,,,,,,,,,,,,,2,2,22,0,,,,,,,,,,,AFNE09.jpg,AFSA15.jpg,AFSA17.jpg,AFNE16.jpg,AFNE16.jpg,FN,3,num_4,32,num_2,0.916779406369,,,2017_Dec_12_1752,59.9930727937,MAFE4ImagesEEG,001,202500,
AFNE01.JPG,AFNE01.JPG,AFNE01.JPG,AFNE01.JPG,AFNE01.JPG,AFNE01.JPG,,,,,,,,,,,,,2,3,23,8,,,,,,,,,,,AFNE08.jpg,AFNE05.jpg,AFSA12.jpg,AFSA14.jpg,AFSA12.jpg,FS,4,num_2,32,num_6,1.08332098485,,,2017_Dec_12_1752,59.9930727937,MAFE4ImagesEEG,001,202500,
AFNE01.JPG,AFNE01.JPG,AFNE01.JPG,AFNE01.JPG,AFNE01.JPG,AFNE01.JPG,,,,,,,,,,,,,2,4,24,7,,,,,,,,,,,AFNE08.jpg,AFSA07.jpg,AFNE15.jpg,AFSA15.jpg,AFSA07.jpg,FS,4,num_6,32,num_4,0.983523627976,,,2017_Dec_12_1752,59.9930727937,MAFE4ImagesEEG,001,202500,
AFNE01.JPG,AFNE01.JPG,AFNE01.JPG,AFNE01.JPG,AFNE01.JPG,AFNE01.JPG,,,,,,,,,,,,,2,5,25,1,,,,,,,,,,,AFSA19.jpg,AFNE02.jpg,AFSA06.jpg,AFNE13.jpg,AFSA19.jpg,FS,4,num_8,32,num_6,1.30007332098,,,2017_Dec_12_1752,59.9930727937,MAFE4ImagesEEG,001,202500,
AFNE01.JPG,AFNE01.JPG,AFNE01.JPG,AFNE01.JPG,AFNE01.JPG,AFNE01.JPG,,,,,,,,,,,,,2,6,26,4,,,,,,,,,,,AFNE09.jpg,AFSA11.jpg,AFNE08.jpg,AFSA09.jpg,AFNE08.jpg,FN,3,num_2,16,num_2,0.916773633333,,,2017_Dec_12_1752,59.9930727937,MAFE4ImagesEEG,001,202500,
AFNE01.JPG,AFNE01.JPG,AFNE01.JPG,AFNE01.JPG,AFNE01.JPG,AFNE01.JPG,,,,,,,,,,,,,2,7,27,9,,,,,,,,,,,AFNE14.jpg,AFNE05.jpg,AFSA03.jpg,AFSA11.jpg,AFSA11.jpg,FS,4,num_4,32,num_6,1.03339921311,,,2017_Dec_12_1752,59.9930727937,MAFE4ImagesEEG,001,202500,
AFNE01.JPG,AFNE01.JPG,AFNE01.JPG,AFNE01.JPG,AFNE01.JPG,AFNE01.JPG,,,,,,,,,,,,,2,8,28,6,,,,,,,,,,,AFNE16.jpg,AFSA18.jpg,AFSA14.jpg,AFNE09.jpg,AFNE09.jpg,FN,3,num_4,32,num_8,1.03349222755,,,2017_Dec_12_1752,59.9930727937,MAFE4ImagesEEG,001,202500,
AFNE01.JPG,AFNE01.JPG,AFNE01.JPG,AFNE01.JPG,AFNE01.JPG,AFNE01.JPG,,,,,,,,,,,,,2,9,29,5,,,,,,,,,,,AFNE14.jpg,AFNE19.jpg,AFSA18.jpg,AFSA05.jpg,AFNE19.jpg,FN,3,num_6,16,num_6,1.40015164553,,,2017_Dec_12_1752,59.9930727937,MAFE4ImagesEEG,001,202500,
AFNE01.JPG,AFNE01.JPG,AFNE01.JPG,AFNE01.JPG,AFNE01.JPG,AFNE01.JPG,,,,,,,,,,,,,3,0,30,6,,,,,,,,,,,AFSA18.jpg,AFNE20.jpg,AFNE14.jpg,AFSA16.jpg,AFNE14.jpg,FN,3,num_2,16,num_2,0.75013647438,,,2017_Dec_12_1752,59.9930727937,MAFE4ImagesEEG,001,202500,
AFNE01.JPG,AFNE01.JPG,AFNE01.JPG,AFNE01.JPG,AFNE01.JPG,AFNE01.JPG,,,,,,,,,,,,,3,1,31,4,,,,,,,,,,,AFSA05.jpg,AFNE06.jpg,AFNE05.jpg,AFSA04.jpg,AFNE05.jpg,FN,3,num_2,32,num_8,0.983429330401,,,2017_Dec_12_1752,59.9930727937,MAFE4ImagesEEG,001,202500,
AFNE01.JPG,AFNE01.JPG,AFNE01.JPG,AFNE01.JPG,AFNE01.JPG,AFNE01.JPG,,,,,,,,,,,,,3,2,32,7,,,,,,,,,,,AFNE03.jpg,AFSA17.jpg,AFSA01.jpg,AFNE16.jpg,AFNE03.jpg,FN,3,num_8,16,num_8,0.75012139976,,,2017_Dec_12_1752,59.9930727937,MAFE4ImagesEEG,001,202500,
AFNE01.JPG,AFNE01.JPG,AFNE01.JPG,AFNE01.JPG,AFNE01.JPG,AFNE01.JPG,,,,,,,,,,,,,3,3,33,1,,,,,,,,,,,AFSA14.jpg,AFSA06.jpg,AFNE11.jpg,AFNE04.jpg,AFSA14.jpg,FS,4,num_8,32,num_4,1.13315262878,,,2017_Dec_12_1752,59.9930727937,MAFE4ImagesEEG,001,202500,
AFNE01.JPG,AFNE01.JPG,AFNE01.JPG,AFNE01.JPG,AFNE01.JPG,AFNE01.JPG,,,,,,,,,,,,,3,4,34,3,,,,,,,,,,,AFSA11.jpg,AFSA15.jpg,AFNE08.jpg,AFNE11.jpg,AFSA15.jpg,FS,4,num_6,16,num_6,1.16676705796,,,2017_Dec_12_1752,59.9930727937,MAFE4ImagesEEG,001,202500,
AFNE01.JPG,AFNE01.JPG,AFNE01.JPG,AFNE01.JPG,AFNE01.JPG,AFNE01.JPG,,,,,,,,,,,,,3,5,35,2,,,,,,,,,,,AFNE07.jpg,AFSA15.jpg,AFSA05.jpg,AFNE05.jpg,AFNE07.jpg,FN,3,num_8,32,num_6,1.01677305577,,,2017_Dec_12_1752,59.9930727937,MAFE4ImagesEEG,001,202500,
AFNE01.JPG,AFNE01.JPG,AFNE01.JPG,AFNE01.JPG,AFNE01.JPG,AFNE01.JPG,,,,,,,,,,,,,3,6,36,5,,,,,,,,,,,AFSA07.jpg,AFNE05.jpg,AFSA15.jpg,AFNE04.jpg,AFSA15.jpg,FS,4,num_2,32,num_8,0.900170248467,,,2017_Dec_12_1752,59.9930727937,MAFE4ImagesEEG,001,202500,
AFNE01.JPG,AFNE01.JPG,AFNE01.JPG,AFNE01.JPG,AFNE01.JPG,AFNE01.JPG,,,,,,,,,,,,,3,7,37,8,,,,,,,,,,,AFSA12.jpg,AFSA09.jpg,AFNE05.jpg,AFNE13.jpg,AFSA12.jpg,FS,4,num_8,16,num_8,0.850178555585,,,2017_Dec_12_1752,59.9930727937,MAFE4ImagesEEG,001,202500,
AFNE01.JPG,AFNE01.JPG,AFNE01.JPG,AFNE01.JPG,AFNE01.JPG,AFNE01.JPG,,,,,,,,,,,,,3,8,38,9,,,,,,,,,,,AFNE04.jpg,AFSA02.jpg,AFNE05.jpg,AFSA19.jpg,AFNE05.jpg,FN,3,num_2,16,num_2,0.783461596817,,,2017_Dec_12_1752,59.9930727937,MAFE4ImagesEEG,001,202500,
AFNE01.JPG,AFNE01.JPG,AFNE01.JPG,AFNE01.JPG,AFNE01.JPG,AFNE01.JPG,,,,,,,,,,,,,3,9,39,0,,,,,,,,,,,AFNE08.jpg,AFSA17.jpg,AFSA01.jpg,AFNE17.jpg,AFNE17.jpg,FN,3,num_4,32,num_8,0.933467466384,,,2017_Dec_12_1752,59.9930727937,MAFE4ImagesEEG,001,202500,
AFNE01.JPG,AFNE01.JPG,AFNE01.JPG,AFNE01.JPG,AFNE01.JPG,AFNE01.JPG,,,,,,,,,,,,,4,0,40,6,,,,,,,,,,,AFSA10.jpg,AFNE18.jpg,AFNE04.jpg,AFSA12.jpg,AFNE04.jpg,FN,3,num_2,32,num_6,0.833465157077,,,2017_Dec_12_1752,59.9930727937,MAFE4ImagesEEG,001,202500,
AFNE01.JPG,AFNE01.JPG,AFNE01.JPG,AFNE01.JPG,AFNE01.JPG,AFNE01.JPG,,,,,,,,,,,,,4,1,41,1,,,,,,,,,,,AFNE20.jpg,AFNE07.jpg,AFSA16.jpg,AFSA07.jpg,AFNE20.jpg,FN,3,num_8,16,num_8,1.30009288597,,,2017_Dec_12_1752,59.9930727937,MAFE4ImagesEEG,001,202500,
AFNE01.JPG,AFNE01.JPG,AFNE01.JPG,AFNE01.JPG,AFNE01.JPG,AFNE01.JPG,,,,,,,,,,,,,4,2,42,5,,,,,,,,,,,AFSA03.jpg,AFNE13.jpg,AFNE12.jpg,AFSA19.jpg,AFSA19.jpg,FS,4,num_4,32,num_6,1.23339004,,,2017_Dec_12_1752,59.9930727937,MAFE4ImagesEEG,001,202500,
AFNE01.JPG,AFNE01.JPG,AFNE01.JPG,AFNE01.JPG,AFNE01.JPG,AFNE01.JPG,,,,,,,,,,,,,4,3,43,8,,,,,,,,,,,AFSA20.jpg,AFSA07.jpg,AFNE16.jpg,AFNE15.jpg,AFNE16.jpg,FN,3,num_2,32,num_6,1.10011905828,,,2017_Dec_12_1752,59.9930727937,MAFE4ImagesEEG,001,202500,
AFNE01.JPG,AFNE01.JPG,AFNE01.JPG,AFNE01.JPG,AFNE01.JPG,AFNE01.JPG,,,,,,,,,,,,,4,4,44,0,,,,,,,,,,,AFSA15.jpg,AFSA17.jpg,AFNE12.jpg,AFNE07.jpg,AFSA15.jpg,FS,4,num_8,32,num_4,0.949844409479,,,2017_Dec_12_1752,59.9930727937,MAFE4ImagesEEG,001,202500,
AFNE01.JPG,AFNE01.JPG,AFNE01.JPG,AFNE01.JPG,AFNE01.JPG,AFNE01.JPG,,,,,,,,,,,,,4,5,45,2,,,,,,,,,,,AFSA09.jpg,AFNE14.jpg,AFNE01.jpg,AFSA12.jpg,AFNE14.jpg,FN,3,num_6,32,num_8,0.916792556876,,,2017_Dec_12_1752,59.9930727937,MAFE4ImagesEEG,001,202500,
AFNE01.JPG,AFNE01.JPG,AFNE01.JPG,AFNE01.JPG,AFNE01.JPG,AFNE01.JPG,,,,,,,,,,,,,4,6,46,3,,,,,,,,,,,AFNE01.jpg,AFNE04.jpg,AFSA07.jpg,AFSA02.jpg,AFNE04.jpg,FN,3,num_6,32,num_2,1.06678271014,,,2017_Dec_12_1752,59.9930727937,MAFE4ImagesEEG,001,202500,
AFNE01.JPG,AFNE01.JPG,AFNE01.JPG,AFNE01.JPG,AFNE01.JPG,AFNE01.JPG,,,,,,,,,,,,,4,7,47,9,,,,,,,,,,,AFSA05.jpg,AFNE09.jpg,AFNE03.jpg,AFSA11.jpg,AFSA11.jpg,FS,4,num_4,32,num_2,1.13348234864,,,2017_Dec_12_1752,59.9930727937,MAFE4ImagesEEG,001,202500,
AFNE01.JPG,AFNE01.JPG,AFNE01.JPG,AFNE01.JPG,AFNE01.JPG,AFNE01.JPG,,,,,,,,,,,,,4,8,48,7,,,,,,,,,,,AFSA11.jpg,AFSA12.jpg,AFNE10.jpg,AFNE19.jpg,AFNE10.jpg,FN,3,num_2,32,num_6,0.866817542352,,,2017_Dec_12_1752,59.9930727937,MAFE4ImagesEEG,001,202500,
AFNE01.JPG,AFNE01.JPG,AFNE01.JPG,AFNE01.JPG,AFNE01.JPG,AFNE01.JPG,,,,,,,,,,,,,4,9,49,4,,,,,,,,,,,AFSA01.jpg,AFSA15.jpg,AFNE03.jpg,AFNE11.jpg,AFNE03.jpg,FN,3,num_2,32,num_4,1.20009667077,,,2017_Dec_12_1752,59.9930727937,MAFE4ImagesEEG,001,202500,
AFNE01.JPG,AFNE01.JPG,AFNE01.JPG,AFNE01.JPG,AFNE01.JPG,AFNE01.JPG,,,,,,,,,,,,,5,0,50,4,,,,,,,,,,,AFSA08.jpg,AFNE15.jpg,AFNE10.jpg,AFSA07.jpg,AFSA08.jpg,FS,4,num_8,16,num_8,1.00015812437,,,2017_Dec_12_1752,59.9930727937,MAFE4ImagesEEG,001,202500,
AFNE01.JPG,AFNE01.JPG,AFNE01.JPG,AFNE01.JPG,AFNE01.JPG,AFNE01.JPG,,,,,,,,,,,,,5,1,51,2,,,,,,,,,,,AFNE15.jpg,AFSA17.jpg,AFNE20.jpg,AFSA11.jpg,AFSA17.jpg,FS,4,num_6,32,num_4,1.46673581796,,,2017_Dec_12_1752,59.9930727937,MAFE4ImagesEEG,001,202500,
AFNE01.JPG,AFNE01.JPG,AFNE01.JPG,AFNE01.JPG,AFNE01.JPG,AFNE01.JPG,,,,,,,,,,,,,5,2,52,1,,,,,,,,,,,AFSA11.jpg,AFNE19.jpg,AFSA03.jpg,AFNE01.jpg,AFNE01.jpg,FN,3,num_4,32,num_6,1.08347686427,,,2017_Dec_12_1752,59.9930727937,MAFE4ImagesEEG,001,202500,
AFNE01.JPG,AFNE01.JPG,AFNE01.JPG,AFNE01.JPG,AFNE01.JPG,AFNE01.JPG,,,,,,,,,,,,,5,3,53,3,,,,,,,,,,,AFNE11.jpg,AFSA14.jpg,AFSA16.jpg,AFNE08.jpg,AFSA16.jpg,FS,4,num_2,32,num_4,0.983449537074,,,2017_Dec_12_1752,59.9930727937,MAFE4ImagesEEG,001,202500,
AFNE01.JPG,AFNE01.JPG,AFNE01.JPG,AFNE01.JPG,AFNE01.JPG,AFNE01.JPG,,,,,,,,,,,,,5,4,54,0,,,,,,,,,,,AFSA20.jpg,AFSA11.jpg,AFNE15.jpg,AFNE10.jpg,AFSA11.jpg,FS,4,num_6,16,num_6,1.21673437464,,,2017_Dec_12_1752,59.9930727937,MAFE4ImagesEEG,001,202500,
AFNE01.JPG,AFNE01.JPG,AFNE01.JPG,AFNE01.JPG,AFNE01.JPG,AFNE01.JPG,,,,,,,,,,,,,5,5,55,6,,,,,,,,,,,AFSA12.jpg,AFSA15.jpg,AFNE17.jpg,AFNE02.jpg,AFSA12.jpg,FS,4,num_8,16,num_8,0.683213280514,,,2017_Dec_12_1752,59.9930727937,MAFE4ImagesEEG,001,202500,
AFNE01.JPG,AFNE01.JPG,AFNE01.JPG,AFNE01.JPG,AFNE01.JPG,AFNE01.JPG,,,,,,,,,,,,,5,6,56,7,,,,,,,,,,,AFNE19.jpg,AFSA02.jpg,AFNE03.jpg,AFSA01.jpg,AFSA01.jpg,FS,4,num_4,32,num_2,1.03347041714,,,2017_Dec_12_1752,59.9930727937,MAFE4ImagesEEG,001,202500,
AFNE01.JPG,AFNE01.JPG,AFNE01.JPG,AFNE01.JPG,AFNE01.JPG,AFNE01.JPG,,,,,,,,,,,,,5,7,57,9,,,,,,,,,,,AFSA10.jpg,AFNE06.jpg,AFSA14.jpg,AFNE18.jpg,AFSA14.jpg,FS,4,num_2,16,num_2,0.966575448401,,,2017_Dec_12_1752,59.9930727937,MAFE4ImagesEEG,001,202500,
AFNE01.JPG,AFNE01.JPG,AFNE01.JPG,AFNE01.JPG,AFNE01.JPG,AFNE01.JPG,,,,,,,,,,,,,5,8,58,8,,,,,,,,,,,AFSA10.jpg,AFSA14.jpg,AFNE10.jpg,AFNE15.jpg,AFSA10.jpg,FS,4,num_8,32,num_4,0.833465798525,,,2017_Dec_12_1752,59.9930727937,MAFE4ImagesEEG,001,202500,
AFNE01.JPG,AFNE01.JPG,AFNE01.JPG,AFNE01.JPG,AFNE01.JPG,AFNE01.JPG,,,,,,,,,,,,,5,9,59,5,,,,,,,,,,,AFNE02.jpg,AFNE07.jpg,AFSA18.jpg,AFSA13.jpg,AFSA18.jpg,FS,4,num_2,16,num_2,1.05042116251,,,2017_Dec_12_1752,59.9930727937,MAFE4ImagesEEG,001,202500,
,,,,,,,,,,,,,,,,,,,,,,,,,,,,,,,,,,,,,,,,,,,space,12.7491806718,2017_Dec_12_1752,59.9930727937,MAFE4ImagesEEG,001,202500,
AFNE01.JPG,AFNE01.JPG,AFNE01.JPG,AFNE01.JPG,AFNE01.JPG,AFNE01.JPG,,,,,,,,,,,,,,,,,0,0,0,6,,,,,,,AMNE03.jpg,AMSA17.jpg,AMSA15.jpg,AMNE13.jpg,AMNE13.jpg,MN,1,num_4,32,num_8,0.883518431801,,,2017_Dec_12_1752,59.9930727937,MAFE4ImagesEEG,001,202500,
AFNE01.JPG,AFNE01.JPG,AFNE01.JPG,AFNE01.JPG,AFNE01.JPG,AFNE01.JPG,,,,,,,,,,,,,,,,,0,1,1,2,,,,,,,AMSA02.jpg,AMSA14.jpg,AMNE15.jpg,AMNE19.jpg,AMNE19.jpg,MN,1,num_4,16,num_4,1.15010112897,,,2017_Dec_12_1752,59.9930727937,MAFE4ImagesEEG,001,202500,
AFNE01.JPG,AFNE01.JPG,AFNE01.JPG,AFNE01.JPG,AFNE01.JPG,AFNE01.JPG,,,,,,,,,,,,,,,,,0,2,2,9,,,,,,,AMNE11.jpg,AMSA16.jpg,AMNE20.jpg,AMSA09.jpg,AMSA09.jpg,MS,2,num_4,32,num_8,0.96678200434,,,2017_Dec_12_1752,59.9930727937,MAFE4ImagesEEG,001,202500,
AFNE01.JPG,AFNE01.JPG,AFNE01.JPG,AFNE01.JPG,AFNE01.JPG,AFNE01.JPG,,,,,,,,,,,,,,,,,0,3,3,3,,,,,,,AMSA16.jpg,AMSA09.jpg,AMNE01.jpg,AMNE11.jpg,AMNE01.jpg,MN,1,num_2,16,num_2,0.716718337731,,,2017_Dec_12_1752,59.9930727937,MAFE4ImagesEEG,001,202500,
AFNE01.JPG,AFNE01.JPG,AFNE01.JPG,AFNE01.JPG,AFNE01.JPG,AFNE01.JPG,,,,,,,,,,,,,,,,,0,4,4,5,,,,,,,AMNE14.jpg,AMSA11.jpg,AMNE08.jpg,AMSA19.jpg,AMNE08.jpg,MN,1,num_2,16,num_2,0.783442352666,,,2017_Dec_12_1752,59.9930727937,MAFE4ImagesEEG,001,202500,
AFNE01.JPG,AFNE01.JPG,AFNE01.JPG,AFNE01.JPG,AFNE01.JPG,AFNE01.JPG,,,,,,,,,,,,,,,,,0,5,5,4,,,,,,,AMSA12.jpg,AMNE14.jpg,AMNE04.jpg,AMSA07.jpg,AMSA12.jpg,MS,2,num_8,16,num_8,1.10016781092,,,2017_Dec_12_1752,59.9930727937,MAFE4ImagesEEG,001,202500,
AFNE01.JPG,AFNE01.JPG,AFNE01.JPG,AFNE01.JPG,AFNE01.JPG,AFNE01.JPG,,,,,,,,,,,,,,,,,0,6,6,8,,,,,,,AMSA08.jpg,AMSA10.jpg,AMNE18.jpg,AMNE07.jpg,AMNE07.jpg,MN,1,num_4,16,num_4,0.950116396416,,,2017_Dec_12_1752,59.9930727937,MAFE4ImagesEEG,001,202500,
AFNE01.JPG,AFNE01.JPG,AFNE01.JPG,AFNE01.JPG,AFNE01.JPG,AFNE01.JPG,,,,,,,,,,,,,,,,,0,7,7,0,,,,,,,AMNE06.jpg,AMSA16.jpg,AMSA19.jpg,AMNE15.jpg,AMNE15.jpg,MN,1,num_4,32,num_8,0.900143627077,,,2017_Dec_12_1752,59.9930727937,MAFE4ImagesEEG,001,202500,
AFNE01.JPG,AFNE01.JPG,AFNE01.JPG,AFNE01.JPG,AFNE01.JPG,AFNE01.JPG,,,,,,,,,,,,,,,,,0,8,8,7,,,,,,,AMSA06.jpg,AMNE06.jpg,AMNE14.jpg,AMSA15.jpg,AMSA06.jpg,MS,2,num_8,16,num_8,0.950082718628,,,2017_Dec_12_1752,59.9930727937,MAFE4ImagesEEG,001,202500,
AFNE01.JPG,AFNE01.JPG,AFNE01.JPG,AFNE01.JPG,AFNE01.JPG,AFNE01.JPG,,,,,,,,,,,,,,,,,0,9,9,1,,,,,,,AMSA16.jpg,AMNE17.jpg,AMNE20.jpg,AMSA20.jpg,AMSA16.jpg,MS,2,num_8,16,num_8,1.18342593079,,,2017_Dec_12_1752,59.9930727937,MAFE4ImagesEEG,001,202500,
AFNE01.JPG,AFNE01.JPG,AFNE01.JPG,AFNE01.JPG,AFNE01.JPG,AFNE01.JPG,,,,,,,,,,,,,,,,,1,0,10,2,,,,,,,AMSA03.jpg,AMNE09.jpg,AMSA10.jpg,AMNE15.jpg,AMNE15.jpg,MN,1,num_4,16,num_4,1.05010908353,,,2017_Dec_12_1752,59.9930727937,MAFE4ImagesEEG,001,202500,
AFNE01.JPG,AFNE01.JPG,AFNE01.JPG,AFNE01.JPG,AFNE01.JPG,AFNE01.JPG,,,,,,,,,,,,,,,,,1,1,11,1,,,,,,,AMNE03.jpg,AMSA16.jpg,AMNE06.jpg,AMSA03.jpg,AMNE06.jpg,MN,1,num_2,16,num_2,1.21676452411,,,2017_Dec_12_1752,59.9930727937,MAFE4ImagesEEG,001,202500,
AFNE01.JPG,AFNE01.JPG,AFNE01.JPG,AFNE01.JPG,AFNE01.JPG,AFNE01.JPG,,,,,,,,,,,,,,,,,1,2,12,8,,,,,,,AMNE16.jpg,AMNE18.jpg,AMSA02.jpg,AMSA08.jpg,AMSA08.jpg,MS,2,num_4,16,num_4,0.900124703534,,,2017_Dec_12_1752,59.9930727937,MAFE4ImagesEEG,001,202500,
AFNE01.JPG,AFNE01.JPG,AFNE01.JPG,AFNE01.JPG,AFNE01.JPG,AFNE01.JPG,,,,,,,,,,,,,,,,,1,3,13,4,,,,,,,AMSA03.jpg,AMNE18.jpg,AMSA04.jpg,AMNE06.jpg,AMNE06.jpg,MN,1,num_4,32,num_6,1.01673103892,,,2017_Dec_12_1752,59.9930727937,MAFE4ImagesEEG,001,202500,
AFNE01.JPG,AFNE01.JPG,AFNE01.JPG,AFNE01.JPG,AFNE01.JPG,AFNE01.JPG,,,,,,,,,,,,,,,,,1,4,14,6,,,,,,,AMSA12.jpg,AMNE01.jpg,AMSA16.jpg,AMNE16.jpg,AMNE16.jpg,MN,1,num_4,16,num_4,1.15014282498,,,2017_Dec_12_1752,59.9930727937,MAFE4ImagesEEG,001,202500,
AFNE01.JPG,AFNE01.JPG,AFNE01.JPG,AFNE01.JPG,AFNE01.JPG,AFNE01.JPG,,,,,,,,,,,,,,,,,1,5,15,0,,,,,,,AMNE03.jpg,AMSA02.jpg,AMNE08.jpg,AMSA17.jpg,AMSA17.jpg,MS,2,num_4,32,num_8,1.03346913424,,,2017_Dec_12_1752,59.9930727937,MAFE4ImagesEEG,001,202500,
AFNE01.JPG,AFNE01.JPG,AFNE01.JPG,AFNE01.JPG,AFNE01.JPG,AFNE01.JPG,,,,,,,,,,,,,,,,,1,6,16,3,,,,,,,AMSA03.jpg,AMNE04.jpg,AMSA08.jpg,AMNE03.jpg,AMNE03.jpg,MN,1,num_4,32,num_6,0.966761797899,,,2017_Dec_12_1752,59.9930727937,MAFE4ImagesEEG,001,202500,
AFNE01.JPG,AFNE01.JPG,AFNE01.JPG,AFNE01.JPG,AFNE01.JPG,AFNE01.JPG,,,,,,,,,,,,,,,,,1,7,17,7,,,,,,,AMSA10.jpg,AMSA13.jpg,AMNE09.jpg,AMNE15.jpg,AMNE09.jpg,MN,1,num_2,16,num_2,2.36667096452,,,2017_Dec_12_1752,59.9930727937,MAFE4ImagesEEG,001,202500,
AFNE01.JPG,AFNE01.JPG,AFNE01.JPG,AFNE01.JPG,AFNE01.JPG,AFNE01.JPG,,,,,,,,,,,,,,,,,1,8,18,5,,,,,,,AMSA09.jpg,AMNE07.jpg,AMSA16.jpg,AMNE13.jpg,AMSA09.jpg,MS,2,num_8,32,num_4,1.00010744762,,,2017_Dec_12_1752,59.9930727937,MAFE4ImagesEEG,001,202500,
AFNE01.JPG,AFNE01.JPG,AFNE01.JPG,AFNE01.JPG,AFNE01.JPG,AFNE01.JPG,,,,,,,,,,,,,,,,,1,9,19,9,,,,,,,AMNE06.jpg,AMSA16.jpg,AMSA05.jpg,AMNE01.jpg,AMSA05.jpg,MS,2,num_2,16,num_2,1.4334395621,,,2017_Dec_12_1752,59.9930727937,MAFE4ImagesEEG,001,202500,
AFNE01.JPG,AFNE01.JPG,AFNE01.JPG,AFNE01.JPG,AFNE01.JPG,AFNE01.JPG,,,,,,,,,,,,,,,,,2,0,20,3,,,,,,,AMNE12.jpg,AMNE19.jpg,AMSA09.jpg,AMSA13.jpg,AMNE19.jpg,MN,1,num_6,16,num_6,0.716781844152,,,2017_Dec_12_1752,59.9930727937,MAFE4ImagesEEG,001,202500,
AFNE01.JPG,AFNE01.JPG,AFNE01.JPG,AFNE01.JPG,AFNE01.JPG,AFNE01.JPG,,,,,,,,,,,,,,,,,2,1,21,7,,,,,,,AMNE10.jpg,AMNE03.jpg,AMSA01.jpg,AMSA16.jpg,AMNE10.jpg,MN,1,num_8,16,num_8,1.3167248168,,,2017_Dec_12_1752,59.9930727937,MAFE4ImagesEEG,001,202500,
AFNE01.JPG,AFNE01.JPG,AFNE01.JPG,AFNE01.JPG,AFNE01.JPG,AFNE01.JPG,,,,,,,,,,,,,,,,,2,2,22,5,,,,,,,AMNE02.jpg,AMNE03.jpg,AMSA08.jpg,AMSA11.jpg,AMSA11.jpg,MS,2,num_4,32,num_8,0.983502779854,,,2017_Dec_12_1752,59.9930727937,MAFE4ImagesEEG,001,202500,
AFNE01.JPG,AFNE01.JPG,AFNE01.JPG,AFNE01.JPG,AFNE01.JPG,AFNE01.JPG,,,,,,,,,,,,,,,,,2,3,23,4,,,,,,,AMNE20.jpg,AMSA16.jpg,AMSA05.jpg,AMNE03.jpg,AMSA05.jpg,MS,2,num_2,32,num_6,0.983478724258,,,2017_Dec_12_1752,59.9930727937,MAFE4ImagesEEG,001,202500,
AFNE01.JPG,AFNE01.JPG,AFNE01.JPG,AFNE01.JPG,AFNE01.JPG,AFNE01.JPG,,,,,,,,,,,,,,,,,2,4,24,0,,,,,,,AMSA18.jpg,AMSA12.jpg,AMNE09.jpg,AMNE08.jpg,AMSA18.jpg,MS,2,num_8,16,num_8,1.16679047211,,,2017_Dec_12_1752,59.9930727937,MAFE4ImagesEEG,001,202500,
AFNE01.JPG,AFNE01.JPG,AFNE01.JPG,AFNE01.JPG,AFNE01.JPG,AFNE01.JPG,,,,,,,,,,,,,,,,,2,5,25,6,,,,,,,AMNE07.jpg,AMSA12.jpg,AMSA09.jpg,AMNE19.jpg,AMSA09.jpg,MS,2,num_2,16,num_2,1.48310089367,,,2017_Dec_12_1752,59.9930727937,MAFE4ImagesEEG,001,202500,
AFNE01.JPG,AFNE01.JPG,AFNE01.JPG,AFNE01.JPG,AFNE01.JPG,AFNE01.JPG,,,,,,,,,,,,,,,,,2,6,26,8,,,,,,,AMNE16.jpg,AMSA16.jpg,AMNE19.jpg,AMSA08.jpg,AMNE19.jpg,MN,1,num_2,16,num_2,0.7501416062,,,2017_Dec_12_1752,59.9930727937,MAFE4ImagesEEG,001,202500,
AFNE01.JPG,AFNE01.JPG,AFNE01.JPG,AFNE01.JPG,AFNE01.JPG,AFNE01.JPG,,,,,,,,,,,,,,,,,2,7,27,9,,,,,,,AMSA12.jpg,AMSA20.jpg,AMNE14.jpg,AMNE04.jpg,AMNE04.jpg,MN,1,num_4,32,num_8,0.950176695362,,,2017_Dec_12_1752,59.9930727937,MAFE4ImagesEEG,001,202500,
AFNE01.JPG,AFNE01.JPG,AFNE01.JPG,AFNE01.JPG,AFNE01.JPG,AFNE01.JPG,,,,,,,,,,,,,,,,,2,8,28,2,,,,,,,AMNE10.jpg,AMNE11.jpg,AMSA10.jpg,AMSA05.jpg,AMSA05.jpg,MS,2,num_4,32,num_2,0.816627632594,,,2017_Dec_12_1752,59.9930727937,MAFE4ImagesEEG,001,202500,
AFNE01.JPG,AFNE01.JPG,AFNE01.JPG,AFNE01.JPG,AFNE01.JPG,AFNE01.JPG,,,,,,,,,,,,,,,,,2,9,29,1,,,,,,,AMNE07.jpg,AMSA03.jpg,AMNE18.jpg,AMSA09.jpg,AMNE07.jpg,MN,1,num_8,32,num_2,0.983466536272,,,2017_Dec_12_1752,59.9930727937,MAFE4ImagesEEG,001,202500,
AFNE01.JPG,AFNE01.JPG,AFNE01.JPG,AFNE01.JPG,AFNE01.JPG,AFNE01.JPG,,,,,,,,,,,,,,,,,3,0,30,7,,,,,,,AMNE12.jpg,AMNE07.jpg,AMSA13.jpg,AMSA07.jpg,AMSA07.jpg,MS,2,num_4,16,num_4,0.88350431947,,,2017_Dec_12_1752,59.9930727937,MAFE4ImagesEEG,001,202500,
AFNE01.JPG,AFNE01.JPG,AFNE01.JPG,AFNE01.JPG,AFNE01.JPG,AFNE01.JPG,,,,,,,,,,,,,,,,,3,1,31,2,,,,,,,AMSA10.jpg,AMSA14.jpg,AMNE16.jpg,AMNE20.jpg,AMSA10.jpg,MS,2,num_8,16,num_8,1.08347878861,,,2017_Dec_12_1752,59.9930727937,MAFE4ImagesEEG,001,202500,
AFNE01.JPG,AFNE01.JPG,AFNE01.JPG,AFNE01.JPG,AFNE01.JPG,AFNE01.JPG,,,,,,,,,,,,,,,,,3,2,32,1,,,,,,,AMSA09.jpg,AMNE12.jpg,AMSA18.jpg,AMNE19.jpg,AMSA18.jpg,MS,2,num_2,16,num_2,0.816814302932,,,2017_Dec_12_1752,59.9930727937,MAFE4ImagesEEG,001,202500,
AFNE01.JPG,AFNE01.JPG,AFNE01.JPG,AFNE01.JPG,AFNE01.JPG,AFNE01.JPG,,,,,,,,,,,,,,,,,3,3,33,5,,,,,,,AMNE18.jpg,AMNE03.jpg,AMSA14.jpg,AMSA04.jpg,AMSA14.jpg,MS,2,num_2,16,num_2,0.750165340956,,,2017_Dec_12_1752,59.9930727937,MAFE4ImagesEEG,001,202500,
AFNE01.JPG,AFNE01.JPG,AFNE01.JPG,AFNE01.JPG,AFNE01.JPG,AFNE01.JPG,,,,,,,,,,,,,,,,,3,4,34,8,,,,,,,AMNE03.jpg,AMNE04.jpg,AMSA18.jpg,AMSA09.jpg,AMNE03.jpg,MN,1,num_8,16,num_8,0.883469358785,,,2017_Dec_12_1752,59.9930727937,MAFE4ImagesEEG,001,202500,
AFNE01.JPG,AFNE01.JPG,AFNE01.JPG,AFNE01.JPG,AFNE01.JPG,AFNE01.JPG,,,,,,,,,,,,,,,,,3,5,35,3,,,,,,,AMNE11.jpg,AMSA19.jpg,AMSA20.jpg,AMNE15.jpg,AMNE15.jpg,MN,1,num_4,16,num_4,1.33345040306,,,2017_Dec_12_1752,59.9930727937,MAFE4ImagesEEG,001,202500,
AFNE01.JPG,AFNE01.JPG,AFNE01.JPG,AFNE01.JPG,AFNE01.JPG,AFNE01.JPG,,,,,,,,,,,,,,,,,3,6,36,4,,,,,,,AMSA09.jpg,AMNE20.jpg,AMSA05.jpg,AMNE03.jpg,AMNE20.jpg,MN,1,num_6,16,num_6,0.883164015133,,,2017_Dec_12_1752,59.9930727937,MAFE4ImagesEEG,001,202500,
AFNE01.JPG,AFNE01.JPG,AFNE01.JPG,AFNE01.JPG,AFNE01.JPG,AFNE01.JPG,,,,,,,,,,,,,,,,,3,7,37,0,,,,,,,AMNE07.jpg,AMSA03.jpg,AMSA10.jpg,AMNE18.jpg,AMNE07.jpg,MN,1,num_8,32,num_4,0.966774306726,,,2017_Dec_12_1752,59.9930727937,MAFE4ImagesEEG,001,202500,
AFNE01.JPG,AFNE01.JPG,AFNE01.JPG,AFNE01.JPG,AFNE01.JPG,AFNE01.JPG,,,,,,,,,,,,,,,,,3,8,38,6,,,,,,,AMSA12.jpg,AMNE19.jpg,AMSA01.jpg,AMNE12.jpg,AMNE12.jpg,MN,1,num_4,16,num_4,1.26675910363,,,2017_Dec_12_1752,59.9930727937,MAFE4ImagesEEG,001,202500,
AFNE01.JPG,AFNE01.JPG,AFNE01.JPG,AFNE01.JPG,AFNE01.JPG,AFNE01.JPG,,,,,,,,,,,,,,,,,3,9,39,9,,,,,,,AMSA07.jpg,AMNE04.jpg,AMNE02.jpg,AMSA18.jpg,AMNE02.jpg,MN,1,num_2,32,num_6,1.10047379578,,,2017_Dec_12_1752,59.9930727937,MAFE4ImagesEEG,001,202500,
AFNE01.JPG,AFNE01.JPG,AFNE01.JPG,AFNE01.JPG,AFNE01.JPG,AFNE01.JPG,,,,,,,,,,,,,,,,,4,0,40,5,,,,,,,AMSA01.jpg,AMNE05.jpg,AMSA19.jpg,AMNE01.jpg,AMSA01.jpg,MS,2,num_8,16,num_8,1.6167291787,,,2017_Dec_12_1752,59.9930727937,MAFE4ImagesEEG,001,202500,
AFNE01.JPG,AFNE01.JPG,AFNE01.JPG,AFNE01.JPG,AFNE01.JPG,AFNE01.JPG,,,,,,,,,,,,,,,,,4,1,41,8,,,,,,,AMNE20.jpg,AMNE14.jpg,AMSA05.jpg,AMSA08.jpg,AMNE20.jpg,MN,1,num_8,16,num_8,1.13344257697,,,2017_Dec_12_1752,59.9930727937,MAFE4ImagesEEG,001,202500,
AFNE01.JPG,AFNE01.JPG,AFNE01.JPG,AFNE01.JPG,AFNE01.JPG,AFNE01.JPG,,,,,,,,,,,,,,,,,4,2,42,9,,,,,,,AMNE15.jpg,AMSA05.jpg,AMSA02.jpg,AMNE04.jpg,AMSA02.jpg,MS,2,num_2,16,num_2,1.56675833394,,,2017_Dec_12_1752,59.9930727937,MAFE4ImagesEEG,001,202500,
AFNE01.JPG,AFNE01.JPG,AFNE01.JPG,AFNE01.JPG,AFNE01.JPG,AFNE01.JPG,,,,,,,,,,,,,,,,,4,3,43,6,,,,,,,AMSA12.jpg,AMNE11.jpg,AMNE09.jpg,AMSA18.jpg,AMSA18.jpg,MS,2,num_4,16,num_4,1.38344530342,,,2017_Dec_12_1752,59.9930727937,MAFE4ImagesEEG,001,202500,
AFNE01.JPG,AFNE01.JPG,AFNE01.JPG,AFNE01.JPG,AFNE01.JPG,AFNE01.JPG,,,,,,,,,,,,,,,,,4,4,44,2,,,,,,,AMNE17.jpg,AMNE18.jpg,AMSA18.jpg,AMSA20.jpg,AMSA18.jpg,MS,2,num_2,16,num_2,1.10012002056,,,2017_Dec_12_1752,59.9930727937,MAFE4ImagesEEG,001,202500,
AFNE01.JPG,AFNE01.JPG,AFNE01.JPG,AFNE01.JPG,AFNE01.JPG,AFNE01.JPG,,,,,,,,,,,,,,,,,4,5,45,7,,,,,,,AMSA08.jpg,AMNE04.jpg,AMNE16.jpg,AMSA05.jpg,AMSA08.jpg,MS,2,num_8,16,num_8,0.733418265125,,,2017_Dec_12_1752,59.9930727937,MAFE4ImagesEEG,001,202500,
AFNE01.JPG,AFNE01.JPG,AFNE01.JPG,AFNE01.JPG,AFNE01.JPG,AFNE01.JPG,,,,,,,,,,,,,,,,,4,6,46,3,,,,,,,AMSA13.jpg,AMSA20.jpg,AMNE07.jpg,AMNE08.jpg,AMSA20.jpg,MS,2,num_6,16,num_6,1.01678588544,,,2017_Dec_12_1752,59.9930727937,MAFE4ImagesEEG,001,202500,
AFNE01.JPG,AFNE01.JPG,AFNE01.JPG,AFNE01.JPG,AFNE01.JPG,AFNE01.JPG,,,,,,,,,,,,,,,,,4,7,47,4,,,,,,,AMNE17.jpg,AMSA07.jpg,AMSA10.jpg,AMNE08.jpg,AMSA10.jpg,MS,2,num_2,32,num_4,1.28346480429,,,2017_Dec_12_1752,59.9930727937,MAFE4ImagesEEG,001,202500,
AFNE01.JPG,AFNE01.JPG,AFNE01.JPG,AFNE01.JPG,AFNE01.JPG,AFNE01.JPG,,,,,,,,,,,,,,,,,4,8,48,1,,,,,,,AMNE01.jpg,AMSA09.jpg,AMNE05.jpg,AMSA18.jpg,AMNE01.jpg,MN,1,num_8,32,num_6,1.15010690247,,,2017_Dec_12_1752,59.9930727937,MAFE4ImagesEEG,001,202500,
AFNE01.JPG,AFNE01.JPG,AFNE01.JPG,AFNE01.JPG,AFNE01.JPG,AFNE01.JPG,,,,,,,,,,,,,,,,,4,9,49,0,,,,,,,AMSA20.jpg,AMSA07.jpg,AMNE19.jpg,AMNE08.jpg,AMSA20.jpg,MS,2,num_8,32,num_2,1.31703625456,,,2017_Dec_12_1752,59.9930727937,MAFE4ImagesEEG,001,202500,
AFNE01.JPG,AFNE01.JPG,AFNE01.JPG,AFNE01.JPG,AFNE01.JPG,AFNE01.JPG,,,,,,,,,,,,,,,,,5,0,50,4,,,,,,,AMSA20.jpg,AMNE13.jpg,AMNE15.jpg,AMSA17.jpg,AMSA20.jpg,MS,2,num_8,32,num_6,1.00013310672,,,2017_Dec_12_1752,59.9930727937,MAFE4ImagesEEG,001,202500,
AFNE01.JPG,AFNE01.JPG,AFNE01.JPG,AFNE01.JPG,AFNE01.JPG,AFNE01.JPG,,,,,,,,,,,,,,,,,5,1,51,9,,,,,,,AMSA06.jpg,AMNE13.jpg,AMSA15.jpg,AMNE15.jpg,AMNE15.jpg,MN,1,num_4,16,num_4,1.05016040173,,,2017_Dec_12_1752,59.9930727937,MAFE4ImagesEEG,001,202500,
AFNE01.JPG,AFNE01.JPG,AFNE01.JPG,AFNE01.JPG,AFNE01.JPG,AFNE01.JPG,,,,,,,,,,,,,,,,,5,2,52,7,,,,,,,AMSA20.jpg,AMSA09.jpg,AMNE07.jpg,AMNE11.jpg,AMNE11.jpg,MN,1,num_4,32,num_2,0.833463553339,,,2017_Dec_12_1752,59.9930727937,MAFE4ImagesEEG,001,202500,
AFNE01.JPG,AFNE01.JPG,AFNE01.JPG,AFNE01.JPG,AFNE01.JPG,AFNE01.JPG,,,,,,,,,,,,,,,,,5,3,53,8,,,,,,,AMSA20.jpg,AMNE03.jpg,AMSA06.jpg,AMNE20.jpg,AMSA20.jpg,MS,2,num_8,32,num_2,0.900107062655,,,2017_Dec_12_1752,59.9930727937,MAFE4ImagesEEG,001,202500,
AFNE01.JPG,AFNE01.JPG,AFNE01.JPG,AFNE01.JPG,AFNE01.JPG,AFNE01.JPG,,,,,,,,,,,,,,,,,5,4,54,3,,,,,,,AMSA08.jpg,AMNE18.jpg,AMSA11.jpg,AMNE20.jpg,AMNE20.jpg,MN,1,num_4,16,num_4,1.53340242058,,,2017_Dec_12_1752,59.9930727937,MAFE4ImagesEEG,001,202500,
AFNE01.JPG,AFNE01.JPG,AFNE01.JPG,AFNE01.JPG,AFNE01.JPG,AFNE01.JPG,,,,,,,,,,,,,,,,,5,5,55,5,,,,,,,AMNE13.jpg,AMNE06.jpg,AMSA10.jpg,AMSA18.jpg,AMSA10.jpg,MS,2,num_2,32,num_6,0.983422274236,,,2017_Dec_12_1752,59.9930727937,MAFE4ImagesEEG,001,202500,
AFNE01.JPG,AFNE01.JPG,AFNE01.JPG,AFNE01.JPG,AFNE01.JPG,AFNE01.JPG,,,,,,,,,,,,,,,,,5,6,56,2,,,,,,,AMNE12.jpg,AMNE16.jpg,AMSA17.jpg,AMSA03.jpg,AMNE16.jpg,MN,1,num_6,32,num_8,0.866764299804,,,2017_Dec_12_1752,59.9930727937,MAFE4ImagesEEG,001,202500,
AFNE01.JPG,AFNE01.JPG,AFNE01.JPG,AFNE01.JPG,AFNE01.JPG,AFNE01.JPG,,,,,,,,,,,,,,,,,5,7,57,1,,,,,,,AMNE10.jpg,AMSA09.jpg,AMNE15.jpg,AMSA05.jpg,AMNE15.jpg,MN,1,num_2,16,num_2,1.16671060794,,,2017_Dec_12_1752,59.9930727937,MAFE4ImagesEEG,001,202500,
AFNE01.JPG,AFNE01.JPG,AFNE01.JPG,AFNE01.JPG,AFNE01.JPG,AFNE01.JPG,,,,,,,,,,,,,,,,,5,8,58,0,,,,,,,AMSA09.jpg,AMNE04.jpg,AMSA08.jpg,AMNE05.jpg,AMSA08.jpg,MS,2,num_2,16,num_2,0.933445014525,,,2017_Dec_12_1752,59.9930727937,MAFE4ImagesEEG,001,202500,
AFNE01.JPG,AFNE01.JPG,AFNE01.JPG,AFNE01.JPG,AFNE01.JPG,AFNE01.JPG,,,,,,,,,,,,,,,,,5,9,59,6,,,,,,,AMNE01.jpg,AMNE17.jpg,AMSA05.jpg,AMSA19.jpg,AMSA05.jpg,MS,2,num_2,32,num_8,0.933453354053,,,2017_Dec_12_1752,59.9930727937,MAFE4ImagesEEG,001,202500,
,,,,,,,,,,,,,,,,,,,,,,,,,,,,,,,,,,,,,,,,,,,space,14.6159273307,2017_Dec_12_1752,59.9930727937,MAFE4ImagesEEG,001,202500,
AFNE01.JPG,AFNE01.JPG,AFNE01.JPG,AFNE01.JPG,AFNE01.JPG,AFNE01.JPG,,,,,,,,,,,,,,,,,,,,,0,0,0,4,,,AFNE08.jpg,AFSA05.jpg,AFSA07.jpg,AFNE17.jpg,AFNE08.jpg,FN,3,num_8,32,num_2,1.20008929376,,,2017_Dec_12_1752,59.9930727937,MAFE4ImagesEEG,001,202500,
AFNE01.JPG,AFNE01.JPG,AFNE01.JPG,AFNE01.JPG,AFNE01.JPG,AFNE01.JPG,,,,,,,,,,,,,,,,,,,,,0,1,1,2,,,AFSA17.jpg,AFNE02.jpg,AFNE11.jpg,AFSA12.jpg,AFSA17.jpg,FS,4,num_8,32,num_6,0.833459704416,,,2017_Dec_12_1752,59.9930727937,MAFE4ImagesEEG,001,202500,
AFNE01.JPG,AFNE01.JPG,AFNE01.JPG,AFNE01.JPG,AFNE01.JPG,AFNE01.JPG,,,,,,,,,,,,,,,,,,,,,0,2,2,6,,,AFNE18.jpg,AFNE04.jpg,AFSA13.jpg,AFSA18.jpg,AFNE04.jpg,FN,3,num_6,32,num_8,0.916799292201,,,2017_Dec_12_1752,59.9930727937,MAFE4ImagesEEG,001,202500,
AFNE01.JPG,AFNE01.JPG,AFNE01.JPG,AFNE01.JPG,AFNE01.JPG,AFNE01.JPG,,,,,,,,,,,,,,,,,,,,,0,3,3,7,,,AFSA02.jpg,AFNE07.jpg,AFNE19.jpg,AFSA08.jpg,AFSA08.jpg,FS,4,num_4,32,num_6,1.06675095693,,,2017_Dec_12_1752,59.9930727937,MAFE4ImagesEEG,001,202500,
AFNE01.JPG,AFNE01.JPG,AFNE01.JPG,AFNE01.JPG,AFNE01.JPG,AFNE01.JPG,,,,,,,,,,,,,,,,,,,,,0,4,4,1,,,AFNE02.jpg,AFSA03.jpg,AFNE13.jpg,AFSA18.jpg,AFSA18.jpg,FS,4,num_4,16,num_4,0.766871041851,,,2017_Dec_12_1752,59.9930727937,MAFE4ImagesEEG,001,202500,
AFNE01.JPG,AFNE01.JPG,AFNE01.JPG,AFNE01.JPG,AFNE01.JPG,AFNE01.JPG,,,,,,,,,,,,,,,,,,,,,0,5,5,8,,,AFSA15.jpg,AFNE14.jpg,AFSA06.jpg,AFNE17.jpg,AFNE14.jpg,FN,3,num_6,16,num_6,1.21673277114,,,2017_Dec_12_1752,59.9930727937,MAFE4ImagesEEG,001,202500,
AFNE01.JPG,AFNE01.JPG,AFNE01.JPG,AFNE01.JPG,AFNE01.JPG,AFNE01.JPG,,,,,,,,,,,,,,,,,,,,,0,6,6,5,,,AFSA02.jpg,AFNE01.jpg,AFSA16.jpg,AFNE07.jpg,AFNE07.jpg,FN,3,num_4,32,num_2,1.85005122214,,,2017_Dec_12_1752,59.9930727937,MAFE4ImagesEEG,001,202500,
AFNE01.JPG,AFNE01.JPG,AFNE01.JPG,AFNE01.JPG,AFNE01.JPG,AFNE01.JPG,,,,,,,,,,,,,,,,,,,,,0,7,7,3,,,AFNE11.jpg,AFSA04.jpg,AFSA20.jpg,AFNE12.jpg,AFSA20.jpg,FS,4,num_2,32,num_8,0.850194913102,,,2017_Dec_12_1752,59.9930727937,MAFE4ImagesEEG,001,202500,
AFNE01.JPG,AFNE01.JPG,AFNE01.JPG,AFNE01.JPG,AFNE01.JPG,AFNE01.JPG,,,,,,,,,,,,,,,,,,,,,0,8,8,9,,,AFSA16.jpg,AFNE02.jpg,AFSA10.jpg,AFNE13.jpg,AFSA16.jpg,FS,4,num_8,32,num_6,0.950143979862,,,2017_Dec_12_1752,59.9930727937,MAFE4ImagesEEG,001,202500,
AFNE01.JPG,AFNE01.JPG,AFNE01.JPG,AFNE01.JPG,AFNE01.JPG,AFNE01.JPG,,,,,,,,,,,,,,,,,,,,,0,9,9,0,,,AFSA03.jpg,AFNE11.jpg,AFSA20.jpg,AFNE05.jpg,AFNE05.jpg,FN,3,num_4,16,num_4,1.08345505386,,,2017_Dec_12_1752,59.9930727937,MAFE4ImagesEEG,001,202500,
AFNE01.JPG,AFNE01.JPG,AFNE01.JPG,AFNE01.JPG,AFNE01.JPG,AFNE01.JPG,,,,,,,,,,,,,,,,,,,,,1,0,10,6,,,AFNE12.jpg,AFSA10.jpg,AFNE11.jpg,AFSA15.jpg,AFSA10.jpg,FS,4,num_6,16,num_6,1.10013413313,,,2017_Dec_12_1752,59.9930727937,MAFE4ImagesEEG,001,202500,
AFNE01.JPG,AFNE01.JPG,AFNE01.JPG,AFNE01.JPG,AFNE01.JPG,AFNE01.JPG,,,,,,,,,,,,,,,,,,,,,1,1,11,7,,,AFNE03.jpg,AFNE09.jpg,AFSA01.jpg,AFSA07.jpg,AFSA01.jpg,FS,4,num_2,16,num_2,0.766675390769,,,2017_Dec_12_1752,59.9930727937,MAFE4ImagesEEG,001,202500,
AFNE01.JPG,AFNE01.JPG,AFNE01.JPG,AFNE01.JPG,AFNE01.JPG,AFNE01.JPG,,,,,,,,,,,,,,,,,,,,,1,2,12,9,,,AFSA20.jpg,AFNE18.jpg,AFNE19.jpg,AFSA06.jpg,AFNE19.jpg,FN,3,num_2,32,num_6,0.883499187417,,,2017_Dec_12_1752,59.9930727937,MAFE4ImagesEEG,001,202500,
AFNE01.JPG,AFNE01.JPG,AFNE01.JPG,AFNE01.JPG,AFNE01.JPG,AFNE01.JPG,,,,,,,,,,,,,,,,,,,,,1,3,13,2,,,AFNE14.jpg,AFSA07.jpg,AFNE18.jpg,AFSA12.jpg,AFNE14.jpg,FN,3,num_8,32,num_4,1.06679040799,,,2017_Dec_12_1752,59.9930727937,MAFE4ImagesEEG,001,202500,
AFNE01.JPG,AFNE01.JPG,AFNE01.JPG,AFNE01.JPG,AFNE01.JPG,AFNE01.JPG,,,,,,,,,,,,,,,,,,,,,1,4,14,3,,,AFNE10.jpg,AFSA12.jpg,AFNE08.jpg,AFSA17.jpg,AFNE08.jpg,FN,3,num_2,16,num_2,0.783475709613,,,2017_Dec_12_1752,59.9930727937,MAFE4ImagesEEG,001,202500,
AFNE01.JPG,AFNE01.JPG,AFNE01.JPG,AFNE01.JPG,AFNE01.JPG,AFNE01.JPG,,,,,,,,,,,,,,,,,,,,,1,5,15,1,,,AFNE16.jpg,AFSA04.jpg,AFSA10.jpg,AFNE12.jpg,AFNE12.jpg,FN,3,num_4,16,num_4,1.48338154051,,,2017_Dec_12_1752,59.9930727937,MAFE4ImagesEEG,001,202500,
AFNE01.JPG,AFNE01.JPG,AFNE01.JPG,AFNE01.JPG,AFNE01.JPG,AFNE01.JPG,,,,,,,,,,,,,,,,,,,,,1,6,16,5,,,AFNE09.jpg,AFNE18.jpg,AFSA09.jpg,AFSA15.jpg,AFSA15.jpg,FS,4,num_4,32,num_6,1.64977461658,,,2017_Dec_12_1752,59.9930727937,MAFE4ImagesEEG,001,202500,
AFNE01.JPG,AFNE01.JPG,AFNE01.JPG,AFNE01.JPG,AFNE01.JPG,AFNE01.JPG,,,,,,,,,,,,,,,,,,,,,1,7,17,0,,,AFSA04.jpg,AFNE15.jpg,AFSA03.jpg,AFNE04.jpg,AFNE04.jpg,FN,3,num_4,32,num_8,0.983447933337,,,2017_Dec_12_1752,59.9930727937,MAFE4ImagesEEG,001,202500,
AFNE01.JPG,AFNE01.JPG,AFNE01.JPG,AFNE01.JPG,AFNE01.JPG,AFNE01.JPG,,,,,,,,,,,,,,,,,,,,,1,8,18,4,,,AFSA19.jpg,AFSA11.jpg,AFNE18.jpg,AFNE13.jpg,AFSA19.jpg,FS,4,num_8,32,num_2,1.13345604809,,,2017_Dec_12_1752,59.9930727937,MAFE4ImagesEEG,001,202500,
AFNE01.JPG,AFNE01.JPG,AFNE01.JPG,AFNE01.JPG,AFNE01.JPG,AFNE01.JPG,,,,,,,,,,,,,,,,,,,,,1,9,19,8,,,AFNE03.jpg,AFSA14.jpg,AFNE02.jpg,AFSA09.jpg,AFNE03.jpg,FN,3,num_8,16,num_8,1.21697396692,,,2017_Dec_12_1752,59.9930727937,MAFE4ImagesEEG,001,202500,
AFNE01.JPG,AFNE01.JPG,AFNE01.JPG,AFNE01.JPG,AFNE01.JPG,AFNE01.JPG,,,,,,,,,,,,,,,,,,,,,2,0,20,0,,,AFSA07.jpg,AFNE07.jpg,AFNE02.jpg,AFSA14.jpg,AFNE02.jpg,FN,3,num_2,16,num_2,0.900177304633,,,2017_Dec_12_1752,59.9930727937,MAFE4ImagesEEG,001,202500,
AFNE01.JPG,AFNE01.JPG,AFNE01.JPG,AFNE01.JPG,AFNE01.JPG,AFNE01.JPG,,,,,,,,,,,,,,,,,,,,,2,1,21,5,,,AFNE15.jpg,AFSA14.jpg,AFSA16.jpg,AFNE13.jpg,AFNE13.jpg,FN,3,num_4,16,num_4,1.18339032866,,,2017_Dec_12_1752,59.9930727937,MAFE4ImagesEEG,001,202500,
AFNE01.JPG,AFNE01.JPG,AFNE01.JPG,AFNE01.JPG,AFNE01.JPG,AFNE01.JPG,,,,,,,,,,,,,,,,,,,,,2,2,22,7,,,AFNE06.jpg,AFSA14.jpg,AFSA16.jpg,AFNE10.jpg,AFSA16.jpg,FS,4,num_2,16,num_2,1.00010359869,,,2017_Dec_12_1752,59.9930727937,MAFE4ImagesEEG,001,202500,
AFNE01.JPG,AFNE01.JPG,AFNE01.JPG,AFNE01.JPG,AFNE01.JPG,AFNE01.JPG,,,,,,,,,,,,,,,,,,,,,2,3,23,2,,,AFSA19.jpg,AFSA16.jpg,AFNE05.jpg,AFNE18.jpg,AFNE18.jpg,FN,3,num_4,16,num_4,1.05014661001,,,2017_Dec_12_1752,59.9930727937,MAFE4ImagesEEG,001,202500,
AFNE01.JPG,AFNE01.JPG,AFNE01.JPG,AFNE01.JPG,AFNE01.JPG,AFNE01.JPG,,,,,,,,,,,,,,,,,,,,,2,4,24,6,,,AFSA16.jpg,AFNE01.jpg,AFNE14.jpg,AFSA17.jpg,AFNE14.jpg,FN,3,num_2,32,num_8,0.983442480909,,,2017_Dec_12_1752,59.9930727937,MAFE4ImagesEEG,001,202500,
AFNE01.JPG,AFNE01.JPG,AFNE01.JPG,AFNE01.JPG,AFNE01.JPG,AFNE01.JPG,,,,,,,,,,,,,,,,,,,,,2,5,25,4,,,AFNE03.jpg,AFSA06.jpg,AFSA14.jpg,AFNE12.jpg,AFNE12.jpg,FN,3,num_4,16,num_4,1.06676314515,,,2017_Dec_12_1752,59.9930727937,MAFE4ImagesEEG,001,202500,
AFNE01.JPG,AFNE01.JPG,AFNE01.JPG,AFNE01.JPG,AFNE01.JPG,AFNE01.JPG,,,,,,,,,,,,,,,,,,,,,2,6,26,8,,,AFNE13.jpg,AFNE15.jpg,AFSA07.jpg,AFSA19.jpg,AFSA19.jpg,FS,4,num_4,32,num_6,0.933499219595,,,2017_Dec_12_1752,59.9930727937,MAFE4ImagesEEG,001,202500,
AFNE01.JPG,AFNE01.JPG,AFNE01.JPG,AFNE01.JPG,AFNE01.JPG,AFNE01.JPG,,,,,,,,,,,,,,,,,,,,,2,7,27,3,,,AFNE01.jpg,AFNE05.jpg,AFSA04.jpg,AFSA02.jpg,AFSA02.jpg,FS,4,num_4,16,num_4,0.983140023891,,,2017_Dec_12_1752,59.9930727937,MAFE4ImagesEEG,001,202500,
AFNE01.JPG,AFNE01.JPG,AFNE01.JPG,AFNE01.JPG,AFNE01.JPG,AFNE01.JPG,,,,,,,,,,,,,,,,,,,,,2,8,28,1,,,AFNE06.jpg,AFSA07.jpg,AFSA17.jpg,AFNE09.jpg,AFNE06.jpg,FN,3,num_8,16,num_8,0.966826587217,,,2017_Dec_12_1752,59.9930727937,MAFE4ImagesEEG,001,202500,
AFNE01.JPG,AFNE01.JPG,AFNE01.JPG,AFNE01.JPG,AFNE01.JPG,AFNE01.JPG,,,,,,,,,,,,,,,,,,,,,2,9,29,9,,,AFSA08.jpg,AFNE08.jpg,AFNE02.jpg,AFSA10.jpg,AFNE08.jpg,FN,3,num_6,16,num_6,1.53340370348,,,2017_Dec_12_1752,59.9930727937,MAFE4ImagesEEG,001,202500,
AFNE01.JPG,AFNE01.JPG,AFNE01.JPG,AFNE01.JPG,AFNE01.JPG,AFNE01.JPG,,,,,,,,,,,,,,,,,,,,,3,0,30,1,,,AFNE17.jpg,AFSA08.jpg,AFNE09.jpg,AFSA20.jpg,AFSA20.jpg,FS,4,num_4,32,num_6,0.916815970792,,,2017_Dec_12_1752,59.9930727937,MAFE4ImagesEEG,001,202500,
AFNE01.JPG,AFNE01.JPG,AFNE01.JPG,AFNE01.JPG,AFNE01.JPG,AFNE01.JPG,,,,,,,,,,,,,,,,,,,,,3,1,31,3,,,AFNE08.jpg,AFNE07.jpg,AFSA14.jpg,AFSA01.jpg,AFSA14.jpg,FS,4,num_2,32,num_4,0.900116043398,,,2017_Dec_12_1752,59.9930727937,MAFE4ImagesEEG,001,202500,
AFNE01.JPG,AFNE01.JPG,AFNE01.JPG,AFNE01.JPG,AFNE01.JPG,AFNE01.JPG,,,,,,,,,,,,,,,,,,,,,3,2,32,9,,,AFSA10.jpg,AFSA02.jpg,AFNE04.jpg,AFNE17.jpg,AFSA10.jpg,FS,4,num_8,16,num_8,1.00008307141,,,2017_Dec_12_1752,59.9930727937,MAFE4ImagesEEG,001,202500,
AFNE01.JPG,AFNE01.JPG,AFNE01.JPG,AFNE01.JPG,AFNE01.JPG,AFNE01.JPG,,,,,,,,,,,,,,,,,,,,,3,3,33,8,,,AFSA13.jpg,AFNE12.jpg,AFNE13.jpg,AFSA19.jpg,AFSA13.jpg,FS,4,num_8,32,num_4,2.05001125811,,,2017_Dec_12_1752,59.9930727937,MAFE4ImagesEEG,001,202500,
AFNE01.JPG,AFNE01.JPG,AFNE01.JPG,AFNE01.JPG,AFNE01.JPG,AFNE01.JPG,,,,,,,,,,,,,,,,,,,,,3,4,34,2,,,AFNE05.jpg,AFSA12.jpg,AFNE15.jpg,AFSA17.jpg,AFSA17.jpg,FS,4,num_4,16,num_4,1.06661817082,,,2017_Dec_12_1752,59.9930727937,MAFE4ImagesEEG,001,202500,
AFNE01.JPG,AFNE01.JPG,AFNE01.JPG,AFNE01.JPG,AFNE01.JPG,AFNE01.JPG,,,,,,,,,,,,,,,,,,,,,3,5,35,5,,,AFNE12.jpg,AFSA09.jpg,AFSA12.jpg,AFNE20.jpg,AFNE12.jpg,FN,3,num_8,32,num_6,1.26669174829,,,2017_Dec_12_1752,59.9930727937,MAFE4ImagesEEG,001,202500,
AFNE01.JPG,AFNE01.JPG,AFNE01.JPG,AFNE01.JPG,AFNE01.JPG,AFNE01.JPG,,,,,,,,,,,,,,,,,,,,,3,6,36,7,,,AFSA10.jpg,AFNE14.jpg,AFNE09.jpg,AFSA04.jpg,AFNE09.jpg,FN,3,num_2,16,num_2,1.16675519058,,,2017_Dec_12_1752,59.9930727937,MAFE4ImagesEEG,001,202500,
AFNE01.JPG,AFNE01.JPG,AFNE01.JPG,AFNE01.JPG,AFNE01.JPG,AFNE01.JPG,,,,,,,,,,,,,,,,,,,,,3,7,37,0,,,AFNE09.jpg,AFSA03.jpg,AFSA16.jpg,AFNE16.jpg,AFSA16.jpg,FS,4,num_2,32,num_4,1.15009311074,,,2017_Dec_12_1752,59.9930727937,MAFE4ImagesEEG,001,202500,
AFNE01.JPG,AFNE01.JPG,AFNE01.JPG,AFNE01.JPG,AFNE01.JPG,AFNE01.JPG,,,,,,,,,,,,,,,,,,,,,3,8,38,6,,,AFSA20.jpg,AFNE07.jpg,AFSA04.jpg,AFNE01.jpg,AFSA20.jpg,FS,4,num_8,16,num_8,1.06680227513,,,2017_Dec_12_1752,59.9930727937,MAFE4ImagesEEG,001,202500,
