IPosition2,IPosition3,IPosition1,IPosition6,IPosition4,IPosition5,TrialsM1.thisRepN,TrialsM1.thisTrialN,TrialsM1.thisN,TrialsM1.thisIndex,TrialsF1.thisRepN,TrialsF1.thisTrialN,TrialsF1.thisN,TrialsF1.thisIndex,TrialsM2.thisRepN,TrialsM2.thisTrialN,TrialsM2.thisN,TrialsM2.thisIndex,TrialsF2.thisRepN,TrialsF2.thisTrialN,TrialsF2.thisN,TrialsF2.thisIndex,TrialsM3.thisRepN,TrialsM3.thisTrialN,TrialsM3.thisN,TrialsM3.thisIndex,TrialsF3.thisRepN,TrialsF3.thisTrialN,TrialsF3.thisN,TrialsF3.thisIndex,InstrKey_resp.keys,InstrKey_resp.rt,Image0 _Position,Image1 _Position,Image2 _Position,Image3 _Position,Center_image,condition,code,correct_answer,accuracy,Key_Resp.keys,Key_Resp.rt,BreakKey_resp.keys,BreakKey_resp.rt,date,frameRate,expName,session,participant,
,,,,,,,,,,,,,,,,,,,,,,,,,,,,,,space,13.9494484876,,,,,,,,,,,,,,2017_Dec_19_1125,60.0189039555,MAFE4ImagesEEG,001,202502,
AMNE22.JPG,AMSA24.JPG,AMSA22.JPG,AMNE25.JPG,AMNE24.JPG,AMSA25.JPG,0,0,0,7,,,,,,,,,,,,,,,,,,,,,,,AMNE01.jpg,AMNE18.jpg,AMSA02.jpg,AMSA15.jpg,AMSA15.jpg,MS,2,num_4,16,num_4,0.649982198929,,,2017_Dec_19_1125,60.0189039555,MAFE4ImagesEEG,001,202502,
AMSA25.JPG,AMNE24.JPG,AMSA24.JPG,AMNE26.JPG,AMSA21.JPG,AMNE25.JPG,0,1,1,3,,,,,,,,,,,,,,,,,,,,,,,AMNE10.jpg,AMSA09.jpg,AMNE16.jpg,AMSA15.jpg,AMNE10.jpg,MN,1,num_8,32,num_6,0.783439551733,,,2017_Dec_19_1125,60.0189039555,MAFE4ImagesEEG,001,202502,
AFNE22.JPG,AFSA24.JPG,AFSA22.JPG,AFNE25.JPG,AFNE24.JPG,AFSA25.JPG,0,2,2,6,,,,,,,,,,,,,,,,,,,,,,,AMSA05.jpg,AMSA08.jpg,AMNE18.jpg,AMNE16.jpg,AMNE16.jpg,MN,1,num_4,32,num_8,0.550138720055,,,2017_Dec_19_1125,60.0189039555,MAFE4ImagesEEG,001,202502,
AFNE23.JPG,AFNE24.JPG,AFNE22.JPG,AFSA24.JPG,AFSA22.JPG,AFSA23.JPG,0,3,3,8,,,,,,,,,,,,,,,,,,,,,,,AMNE13.jpg,AMSA10.jpg,AMSA14.jpg,AMNE20.jpg,AMNE13.jpg,MN,1,num_8,16,num_8,1.21674551525,,,2017_Dec_19_1125,60.0189039555,MAFE4ImagesEEG,001,202502,
AMNE23.JPG,AMNE24.JPG,AMNE22.JPG,AMSA24.JPG,AMSA22.JPG,AMSA23.JPG,0,4,4,9,,,,,,,,,,,,,,,,,,,,,,,AMNE05.jpg,AMNE02.jpg,AMSA07.jpg,AMSA17.jpg,AMNE02.jpg,MN,1,num_6,16,num_6,0.550173039236,,,2017_Dec_19_1125,60.0189039555,MAFE4ImagesEEG,001,202502,
AFSA21.JPG,AFNE23.JPG,AFNE21.JPG,AFSA25.JPG,AFNE25.JPG,AFSA23.JPG,0,5,5,4,,,,,,,,,,,,,,,,,,,,,,,AMSA06.jpg,AMNE05.jpg,AMSA16.jpg,AMNE01.jpg,AMNE01.jpg,MN,1,num_4,32,num_8,0.616800682535,,,2017_Dec_19_1125,60.0189039555,MAFE4ImagesEEG,001,202502,
AMSA21.JPG,AMNE23.JPG,AMNE21.JPG,AMSA25.JPG,AMNE25.JPG,AMSA23.JPG,0,6,6,5,,,,,,,,,,,,,,,,,,,,,,,AMSA07.jpg,AMNE14.jpg,AMNE20.jpg,AMSA18.jpg,AMNE20.jpg,MN,1,num_2,32,num_8,0.733298907239,,,2017_Dec_19_1125,60.0189039555,MAFE4ImagesEEG,001,202502,
AFSA25.JPG,AFNE24.JPG,AFSA24.JPG,AFNE21.JPG,AFSA21.JPG,AFNE25.JPG,0,7,7,2,,,,,,,,,,,,,,,,,,,,,,,AMNE14.jpg,AMSA01.jpg,AMSA05.jpg,AMNE19.jpg,AMNE14.jpg,MN,1,num_8,32,num_6,0.916834039496,,,2017_Dec_19_1125,60.0189039555,MAFE4ImagesEEG,001,202502,
AMSA21.JPG,AMNE22.JPG,AMNE21.JPG,AMSA23.JPG,AMSA22.JPG,AMNE23.JPG,0,8,8,1,,,,,,,,,,,,,,,,,,,,,,,AMNE01.jpg,AMSA18.jpg,AMSA05.jpg,AMNE12.jpg,AMNE12.jpg,MN,1,num_4,16,num_4,0.566773580004,,,2017_Dec_19_1125,60.0189039555,MAFE4ImagesEEG,001,202502,
AFSA21.JPG,AFNE22.JPG,AFNE21.JPG,AFSA23.JPG,AFSA22.JPG,AFNE23.JPG,0,9,9,0,,,,,,,,,,,,,,,,,,,,,,,AMNE01.jpg,AMSA15.jpg,AMSA04.jpg,AMNE16.jpg,AMNE01.jpg,MN,1,num_8,16,num_8,0.583508831576,,,2017_Dec_19_1125,60.0189039555,MAFE4ImagesEEG,001,202502,
AFNE23.JPG,AFNE24.JPG,AFNE22.JPG,AFSA24.JPG,AFSA22.JPG,AFSA23.JPG,,,,,0,0,0,8,,,,,,,,,,,,,,,,,,,AFSA18.jpg,AFNE02.jpg,AFNE11.jpg,AFSA16.jpg,AFNE11.jpg,FN,3,num_2,32,num_6,0.583441155434,,,2017_Dec_19_1125,60.0189039555,MAFE4ImagesEEG,001,202502,
AFSA21.JPG,AFNE23.JPG,AFNE21.JPG,AFSA25.JPG,AFNE25.JPG,AFSA23.JPG,,,,,0,1,1,4,,,,,,,,,,,,,,,,,,,AFSA07.jpg,AFSA11.jpg,AFNE12.jpg,AFNE11.jpg,AFSA07.jpg,FS,4,num_8,32,num_2,1.01677951369,,,2017_Dec_19_1125,60.0189039555,MAFE4ImagesEEG,001,202502,
AFNE22.JPG,AFSA24.JPG,AFSA22.JPG,AFNE25.JPG,AFNE24.JPG,AFSA25.JPG,,,,,0,2,2,6,,,,,,,,,,,,,,,,,,,AFNE19.jpg,AFSA09.jpg,AFSA10.jpg,AFNE15.jpg,AFSA09.jpg,FS,4,num_6,32,num_2,0.433514765266,,,2017_Dec_19_1125,60.0189039555,MAFE4ImagesEEG,001,202502,
AFSA25.JPG,AFNE24.JPG,AFSA24.JPG,AFNE21.JPG,AFSA21.JPG,AFNE25.JPG,,,,,0,3,3,2,,,,,,,,,,,,,,,,,,,AFSA02.jpg,AFSA06.jpg,AFNE18.jpg,AFNE16.jpg,AFNE16.jpg,FN,3,num_4,32,num_8,1.25010953271,,,2017_Dec_19_1125,60.0189039555,MAFE4ImagesEEG,001,202502,
AMSA21.JPG,AMNE22.JPG,AMNE21.JPG,AMSA23.JPG,AMSA22.JPG,AMNE23.JPG,,,,,0,4,4,1,,,,,,,,,,,,,,,,,,,AFSA14.jpg,AFNE09.jpg,AFSA12.jpg,AFNE01.jpg,AFNE09.jpg,FN,3,num_6,32,num_4,0.700175765526,,,2017_Dec_19_1125,60.0189039555,MAFE4ImagesEEG,001,202502,
AMNE22.JPG,AMSA24.JPG,AMSA22.JPG,AMNE25.JPG,AMNE24.JPG,AMSA25.JPG,,,,,0,5,5,7,,,,,,,,,,,,,,,,,,,AFNE12.jpg,AFNE17.jpg,AFSA17.jpg,AFSA07.jpg,AFNE17.jpg,FN,3,num_6,32,num_8,0.583478040535,,,2017_Dec_19_1125,60.0189039555,MAFE4ImagesEEG,001,202502,
AMSA25.JPG,AMNE24.JPG,AMSA24.JPG,AMNE26.JPG,AMSA21.JPG,AMNE25.JPG,,,,,0,6,6,3,,,,,,,,,,,,,,,,,,,AFSA10.jpg,AFNE10.jpg,AFNE20.jpg,AFSA12.jpg,AFNE10.jpg,FN,3,num_6,16,num_6,0.683457833914,,,2017_Dec_19_1125,60.0189039555,MAFE4ImagesEEG,001,202502,
AMSA21.JPG,AMNE23.JPG,AMNE21.JPG,AMSA25.JPG,AMNE25.JPG,AMSA23.JPG,,,,,0,7,7,5,,,,,,,,,,,,,,,,,,,AFNE08.jpg,AFNE13.jpg,AFSA19.jpg,AFSA08.jpg,AFSA19.jpg,FS,4,num_2,32,num_4,0.616829228396,,,2017_Dec_19_1125,60.0189039555,MAFE4ImagesEEG,001,202502,
AFSA21.JPG,AFNE22.JPG,AFNE21.JPG,AFSA23.JPG,AFSA22.JPG,AFNE23.JPG,,,,,0,8,8,0,,,,,,,,,,,,,,,,,,,AFSA14.jpg,AFSA10.jpg,AFNE10.jpg,AFNE08.jpg,AFNE10.jpg,FN,3,num_2,16,num_2,1.43341597734,,,2017_Dec_19_1125,60.0189039555,MAFE4ImagesEEG,001,202502,
AMNE23.JPG,AMNE24.JPG,AMNE22.JPG,AMSA24.JPG,AMSA22.JPG,AMSA23.JPG,,,,,0,9,9,9,,,,,,,,,,,,,,,,,,,AFNE12.jpg,AFNE07.jpg,AFSA12.jpg,AFSA19.jpg,AFSA19.jpg,FS,4,num_4,32,num_8,0.566790899964,,,2017_Dec_19_1125,60.0189039555,MAFE4ImagesEEG,001,202502,
AFNE22.JPG,AFSA24.JPG,AFSA22.JPG,AFNE25.JPG,AFNE24.JPG,AFSA25.JPG,,,,,,,,,0,0,0,6,,,,,,,,,,,,,,,AMSA13.jpg,AMNE20.jpg,AMSA20.jpg,AMNE12.jpg,AMSA13.jpg,MS,2,num_8,32,num_6,0.600129899705,,,2017_Dec_19_1125,60.0189039555,MAFE4ImagesEEG,001,202502,
AFSA21.JPG,AFNE22.JPG,AFNE21.JPG,AFSA23.JPG,AFSA22.JPG,AFNE23.JPG,,,,,,,,,0,1,1,0,,,,,,,,,,,,,,,AMNE20.jpg,AMSA12.jpg,AMSA17.jpg,AMNE05.jpg,AMSA12.jpg,MS,2,num_6,32,num_4,0.483480285715,,,2017_Dec_19_1125,60.0189039555,MAFE4ImagesEEG,001,202502,
AFSA21.JPG,AFNE23.JPG,AFNE21.JPG,AFSA25.JPG,AFNE25.JPG,AFSA23.JPG,,,,,,,,,0,2,2,4,,,,,,,,,,,,,,,AMSA09.jpg,AMNE05.jpg,AMNE11.jpg,AMSA20.jpg,AMNE05.jpg,MN,1,num_6,32,num_8,0.966741185263,,,2017_Dec_19_1125,60.0189039555,MAFE4ImagesEEG,001,202502,
AFSA25.JPG,AFNE24.JPG,AFSA24.JPG,AFNE21.JPG,AFSA21.JPG,AFNE25.JPG,,,,,,,,,0,3,3,2,,,,,,,,,,,,,,,AMSA05.jpg,AMNE05.jpg,AMNE07.jpg,AMSA10.jpg,AMSA05.jpg,MS,2,num_8,32,num_6,0.983453022814,,,2017_Dec_19_1125,60.0189039555,MAFE4ImagesEEG,001,202502,
AMSA25.JPG,AMNE24.JPG,AMSA24.JPG,AMNE26.JPG,AMSA21.JPG,AMNE25.JPG,,,,,,,,,0,4,4,3,,,,,,,,,,,,,,,AMSA18.jpg,AMNE03.jpg,AMSA03.jpg,AMNE12.jpg,AMSA03.jpg,MS,2,num_2,32,num_8,1.03347627647,,,2017_Dec_19_1125,60.0189039555,MAFE4ImagesEEG,001,202502,
AFNE23.JPG,AFNE24.JPG,AFNE22.JPG,AFSA24.JPG,AFSA22.JPG,AFSA23.JPG,,,,,,,,,0,5,5,8,,,,,,,,,,,,,,,AMSA20.jpg,AMNE15.jpg,AMSA01.jpg,AMNE18.jpg,AMNE18.jpg,MN,1,num_4,16,num_4,0.300215216547,,,2017_Dec_19_1125,60.0189039555,MAFE4ImagesEEG,001,202502,
AMSA21.JPG,AMNE23.JPG,AMNE21.JPG,AMSA25.JPG,AMNE25.JPG,AMSA23.JPG,,,,,,,,,0,6,6,5,,,,,,,,,,,,,,,AMSA17.jpg,AMNE02.jpg,AMSA07.jpg,AMNE04.jpg,AMNE02.jpg,MN,1,num_6,32,num_8,0.500080826483,,,2017_Dec_19_1125,60.0189039555,MAFE4ImagesEEG,001,202502,
AMNE23.JPG,AMNE24.JPG,AMNE22.JPG,AMSA24.JPG,AMSA22.JPG,AMSA23.JPG,,,,,,,,,0,7,7,9,,,,,,,,,,,,,,,AMNE02.jpg,AMSA17.jpg,AMNE05.jpg,AMSA13.jpg,AMSA13.jpg,MS,2,num_4,32,num_6,0.350152832616,,,2017_Dec_19_1125,60.0189039555,MAFE4ImagesEEG,001,202502,
AMSA21.JPG,AMNE22.JPG,AMNE21.JPG,AMSA23.JPG,AMSA22.JPG,AMNE23.JPG,,,,,,,,,0,8,8,1,,,,,,,,,,,,,,,AMSA13.jpg,AMNE18.jpg,AMSA08.jpg,AMNE07.jpg,AMSA08.jpg,MS,2,num_2,32,num_8,0.500195651407,,,2017_Dec_19_1125,60.0189039555,MAFE4ImagesEEG,001,202502,
AMNE22.JPG,AMSA24.JPG,AMSA22.JPG,AMNE25.JPG,AMNE24.JPG,AMSA25.JPG,,,,,,,,,0,9,9,7,,,,,,,,,,,,,,,AMSA07.jpg,AMNE20.jpg,AMSA17.jpg,AMNE12.jpg,AMSA07.jpg,MS,2,num_8,32,num_4,0.816773419634,,,2017_Dec_19_1125,60.0189039555,MAFE4ImagesEEG,001,202502,
AFSA25.JPG,AFNE24.JPG,AFSA24.JPG,AFNE21.JPG,AFSA21.JPG,AFNE25.JPG,,,,,,,,,,,,,0,0,0,2,,,,,,,,,,,AFSA20.jpg,AFSA06.jpg,AFNE13.jpg,AFNE09.jpg,AFNE09.jpg,FN,3,num_4,32,num_8,0.666769410383,,,2017_Dec_19_1125,60.0189039555,MAFE4ImagesEEG,001,202502,
AMSA21.JPG,AMNE23.JPG,AMNE21.JPG,AMSA25.JPG,AMNE25.JPG,AMSA23.JPG,,,,,,,,,,,,,0,1,1,5,,,,,,,,,,,AFNE12.jpg,AFSA18.jpg,AFSA12.jpg,AFNE16.jpg,AFNE12.jpg,FN,3,num_8,32,num_6,0.633451579484,,,2017_Dec_19_1125,60.0189039555,MAFE4ImagesEEG,001,202502,
AMNE22.JPG,AMSA24.JPG,AMSA22.JPG,AMNE25.JPG,AMNE24.JPG,AMSA25.JPG,,,,,,,,,,,,,0,2,2,7,,,,,,,,,,,AFNE10.jpg,AFSA13.jpg,AFNE01.jpg,AFSA04.jpg,AFSA13.jpg,FS,4,num_6,32,num_4,0.583473229435,,,2017_Dec_19_1125,60.0189039555,MAFE4ImagesEEG,001,202502,
AMSA21.JPG,AMNE22.JPG,AMNE21.JPG,AMSA23.JPG,AMSA22.JPG,AMNE23.JPG,,,,,,,,,,,,,0,3,3,1,,,,,,,,,,,AFNE13.jpg,AFNE17.jpg,AFSA11.jpg,AFSA14.jpg,AFSA14.jpg,FS,4,num_4,32,num_6,1.21704765234,,,2017_Dec_19_1125,60.0189039555,MAFE4ImagesEEG,001,202502,
AFNE23.JPG,AFNE24.JPG,AFNE22.JPG,AFSA24.JPG,AFSA22.JPG,AFSA23.JPG,,,,,,,,,,,,,0,4,4,8,,,,,,,,,,,AFNE05.jpg,AFNE11.jpg,AFSA05.jpg,AFSA01.jpg,AFSA05.jpg,FS,4,num_2,16,num_2,1.21676347669,,,2017_Dec_19_1125,60.0189039555,MAFE4ImagesEEG,001,202502,
AMNE23.JPG,AMNE24.JPG,AMNE22.JPG,AMSA24.JPG,AMSA22.JPG,AMSA23.JPG,,,,,,,,,,,,,0,5,5,9,,,,,,,,,,,AFSA07.jpg,AFNE08.jpg,AFNE20.jpg,AFSA03.jpg,AFSA07.jpg,FS,4,num_8,16,num_8,0.666795069585,,,2017_Dec_19_1125,60.0189039555,MAFE4ImagesEEG,001,202502,
AFSA21.JPG,AFNE23.JPG,AFNE21.JPG,AFSA25.JPG,AFNE25.JPG,AFSA23.JPG,,,,,,,,,,,,,0,6,6,4,,,,,,,,,,,AFNE17.jpg,AFSA07.jpg,AFNE04.jpg,AFSA17.jpg,AFSA07.jpg,FS,4,num_6,16,num_6,0.950121079355,,,2017_Dec_19_1125,60.0189039555,MAFE4ImagesEEG,001,202502,
AFSA21.JPG,AFNE22.JPG,AFNE21.JPG,AFSA23.JPG,AFSA22.JPG,AFNE23.JPG,,,,,,,,,,,,,0,7,7,0,,,,,,,,,,,AFSA16.jpg,AFNE11.jpg,AFNE04.jpg,AFSA19.jpg,AFNE11.jpg,FN,3,num_6,32,num_4,0.483487021256,,,2017_Dec_19_1125,60.0189039555,MAFE4ImagesEEG,001,202502,
AFNE22.JPG,AFSA24.JPG,AFSA22.JPG,AFNE25.JPG,AFNE24.JPG,AFSA25.JPG,,,,,,,,,,,,,0,8,8,6,,,,,,,,,,,AFSA02.jpg,AFSA10.jpg,AFNE12.jpg,AFNE10.jpg,AFSA10.jpg,FS,4,num_6,32,num_8,0.450209603597,,,2017_Dec_19_1125,60.0189039555,MAFE4ImagesEEG,001,202502,
AMSA25.JPG,AMNE24.JPG,AMSA24.JPG,AMNE26.JPG,AMSA21.JPG,AMNE25.JPG,,,,,,,,,,,,,0,9,9,3,,,,,,,,,,,AFSA12.jpg,AFNE05.jpg,AFNE13.jpg,AFSA20.jpg,AFSA20.jpg,FS,4,num_4,16,num_4,0.58361275134,,,2017_Dec_19_1125,60.0189039555,MAFE4ImagesEEG,001,202502,
AFNE23.JPG,AFNE24.JPG,AFNE22.JPG,AFSA24.JPG,AFSA22.JPG,AFSA23.JPG,,,,,,,,,,,,,,,,,0,0,0,8,,,,,,,AMNE03.jpg,AMSA01.jpg,AMNE09.jpg,AMSA14.jpg,AMSA14.jpg,MS,2,num_4,32,num_6,0.400111296784,,,2017_Dec_19_1125,60.0189039555,MAFE4ImagesEEG,001,202502,
AMNE23.JPG,AMNE24.JPG,AMNE22.JPG,AMSA24.JPG,AMSA22.JPG,AMSA23.JPG,,,,,,,,,,,,,,,,,0,1,1,9,,,,,,,AMNE09.jpg,AMSA13.jpg,AMNE20.jpg,AMSA04.jpg,AMSA04.jpg,MS,2,num_4,16,num_4,0.466822653225,,,2017_Dec_19_1125,60.0189039555,MAFE4ImagesEEG,001,202502,
AMNE22.JPG,AMSA24.JPG,AMSA22.JPG,AMNE25.JPG,AMNE24.JPG,AMSA25.JPG,,,,,,,,,,,,,,,,,0,2,2,7,,,,,,,AMSA19.jpg,AMNE06.jpg,AMSA09.jpg,AMNE16.jpg,AMNE16.jpg,MN,1,num_4,32,num_6,0.583479002755,,,2017_Dec_19_1125,60.0189039555,MAFE4ImagesEEG,001,202502,
AFSA21.JPG,AFNE23.JPG,AFNE21.JPG,AFSA25.JPG,AFNE25.JPG,AFSA23.JPG,,,,,,,,,,,,,,,,,0,3,3,4,,,,,,,AMNE15.jpg,AMSA10.jpg,AMNE12.jpg,AMSA07.jpg,AMSA07.jpg,MS,2,num_4,16,num_4,0.800182180326,,,2017_Dec_19_1125,60.0189039555,MAFE4ImagesEEG,001,202502,
AFSA21.JPG,AFNE22.JPG,AFNE21.JPG,AFSA23.JPG,AFSA22.JPG,AFNE23.JPG,,,,,,,,,,,,,,,,,0,4,4,0,,,,,,,AMSA01.jpg,AMNE20.jpg,AMNE18.jpg,AMSA14.jpg,AMSA01.jpg,MS,2,num_8,16,num_8,0.716811908435,,,2017_Dec_19_1125,60.0189039555,MAFE4ImagesEEG,001,202502,
AMSA25.JPG,AMNE24.JPG,AMSA24.JPG,AMNE26.JPG,AMSA21.JPG,AMNE25.JPG,,,,,,,,,,,,,,,,,0,5,5,3,,,,,,,AMNE09.jpg,AMNE18.jpg,AMSA09.jpg,AMSA10.jpg,AMSA10.jpg,MS,2,num_4,32,num_6,0.833459277245,,,2017_Dec_19_1125,60.0189039555,MAFE4ImagesEEG,001,202502,
AMSA21.JPG,AMNE22.JPG,AMNE21.JPG,AMSA23.JPG,AMSA22.JPG,AMNE23.JPG,,,,,,,,,,,,,,,,,0,6,6,1,,,,,,,AMNE06.jpg,AMNE17.jpg,AMSA12.jpg,AMSA01.jpg,AMNE06.jpg,MN,1,num_8,16,num_8,0.883506586396,,,2017_Dec_19_1125,60.0189039555,MAFE4ImagesEEG,001,202502,
AFNE22.JPG,AFSA24.JPG,AFSA22.JPG,AFNE25.JPG,AFNE24.JPG,AFSA25.JPG,,,,,,,,,,,,,,,,,0,7,7,6,,,,,,,AMNE10.jpg,AMSA01.jpg,AMSA17.jpg,AMNE15.jpg,AMSA01.jpg,MS,2,num_6,16,num_6,0.833450938004,,,2017_Dec_19_1125,60.0189039555,MAFE4ImagesEEG,001,202502,
AFSA25.JPG,AFNE24.JPG,AFSA24.JPG,AFNE21.JPG,AFSA21.JPG,AFNE25.JPG,,,,,,,,,,,,,,,,,0,8,8,2,,,,,,,AMSA13.jpg,AMNE09.jpg,AMSA19.jpg,AMNE01.jpg,AMSA19.jpg,MS,2,num_2,16,num_2,1.18339945923,,,2017_Dec_19_1125,60.0189039555,MAFE4ImagesEEG,001,202502,
AMSA21.JPG,AMNE23.JPG,AMNE21.JPG,AMSA25.JPG,AMNE25.JPG,AMSA23.JPG,,,,,,,,,,,,,,,,,0,9,9,5,,,,,,,AMNE17.jpg,AMSA20.jpg,AMNE10.jpg,AMSA08.jpg,AMSA08.jpg,MS,2,num_4,32,num_6,1.1001074479,,,2017_Dec_19_1125,60.0189039555,MAFE4ImagesEEG,001,202502,
AFSA21.JPG,AFNE22.JPG,AFNE21.JPG,AFSA23.JPG,AFSA22.JPG,AFNE23.JPG,,,,,,,,,,,,,,,,,,,,,0,0,0,0,,,AFNE02.jpg,AFNE10.jpg,AFSA06.jpg,AFSA03.jpg,AFSA03.jpg,FS,4,num_4,16,num_4,1.05007649649,,,2017_Dec_19_1125,60.0189039555,MAFE4ImagesEEG,001,202502,
AFSA25.JPG,AFNE24.JPG,AFSA24.JPG,AFNE21.JPG,AFSA21.JPG,AFNE25.JPG,,,,,,,,,,,,,,,,,,,,,0,1,1,2,,,AFSA08.jpg,AFNE11.jpg,AFNE14.jpg,AFSA12.jpg,AFSA08.jpg,FS,4,num_8,16,num_8,0.633652362731,,,2017_Dec_19_1125,60.0189039555,MAFE4ImagesEEG,001,202502,
AMNE23.JPG,AMNE24.JPG,AMNE22.JPG,AMSA24.JPG,AMSA22.JPG,AMSA23.JPG,,,,,,,,,,,,,,,,,,,,,0,2,2,9,,,AFSA11.jpg,AFNE16.jpg,AFNE02.jpg,AFSA01.jpg,AFNE02.jpg,FN,3,num_2,16,num_2,1.91669964943,,,2017_Dec_19_1125,60.0189039555,MAFE4ImagesEEG,001,202502,
AFNE22.JPG,AFSA24.JPG,AFSA22.JPG,AFNE25.JPG,AFNE24.JPG,AFSA25.JPG,,,,,,,,,,,,,,,,,,,,,0,3,3,6,,,AFSA05.jpg,AFNE12.jpg,AFNE09.jpg,AFSA11.jpg,AFNE12.jpg,FN,3,num_6,32,num_2,0.783458475394,,,2017_Dec_19_1125,60.0189039555,MAFE4ImagesEEG,001,202502,
AFSA21.JPG,AFNE23.JPG,AFNE21.JPG,AFSA25.JPG,AFNE25.JPG,AFSA23.JPG,,,,,,,,,,,,,,,,,,,,,0,4,4,4,,,AFSA19.jpg,AFNE14.jpg,AFNE04.jpg,AFSA07.jpg,AFNE04.jpg,FN,3,num_2,32,num_6,1.0667719763,,,2017_Dec_19_1125,60.0189039555,MAFE4ImagesEEG,001,202502,
AMSA21.JPG,AMNE23.JPG,AMNE21.JPG,AMSA25.JPG,AMNE25.JPG,AMSA23.JPG,,,,,,,,,,,,,,,,,,,,,0,5,5,5,,,AFSA04.jpg,AFNE20.jpg,AFNE06.jpg,AFSA20.jpg,AFSA20.jpg,FS,4,num_4,16,num_4,0.600149785585,,,2017_Dec_19_1125,60.0189039555,MAFE4ImagesEEG,001,202502,
AFNE23.JPG,AFNE24.JPG,AFNE22.JPG,AFSA24.JPG,AFSA22.JPG,AFSA23.JPG,,,,,,,,,,,,,,,,,,,,,0,6,6,8,,,AFSA15.jpg,AFSA16.jpg,AFNE18.jpg,AFNE16.jpg,AFNE16.jpg,FN,3,num_4,32,num_8,0.883488624956,,,2017_Dec_19_1125,60.0189039555,MAFE4ImagesEEG,001,202502,
AMNE22.JPG,AMSA24.JPG,AMSA22.JPG,AMNE25.JPG,AMNE24.JPG,AMSA25.JPG,,,,,,,,,,,,,,,,,,,,,0,7,7,7,,,AFNE02.jpg,AFSA10.jpg,AFSA05.jpg,AFNE19.jpg,AFSA05.jpg,FS,4,num_2,16,num_2,0.983440834694,,,2017_Dec_19_1125,60.0189039555,MAFE4ImagesEEG,001,202502,
AMSA25.JPG,AMNE24.JPG,AMSA24.JPG,AMNE26.JPG,AMSA21.JPG,AMNE25.JPG,,,,,,,,,,,,,,,,,,,,,0,8,8,3,,,AFSA02.jpg,AFNE20.jpg,AFSA10.jpg,AFNE08.jpg,AFNE20.jpg,FN,3,num_6,16,num_6,0.716875094217,,,2017_Dec_19_1125,60.0189039555,MAFE4ImagesEEG,001,202502,
AMSA21.JPG,AMNE22.JPG,AMNE21.JPG,AMSA23.JPG,AMSA22.JPG,AMNE23.JPG,,,,,,,,,,,,,,,,,,,,,0,9,9,1,,,AFNE04.jpg,AFSA04.jpg,AFSA09.jpg,AFNE20.jpg,AFSA09.jpg,FS,4,num_2,32,num_4,0.516835001716,,,2017_Dec_19_1125,60.0189039555,MAFE4ImagesEEG,001,202502,
,,,,,,,,,,,,,,,,,,,,,,,,,,,,,,,,,,,,,,,,,,,space,5.44974292688,2017_Dec_19_1125,60.0189039555,MAFE4ImagesEEG,001,202502,
AFNE01.JPG,AFNE01.JPG,AFNE01.JPG,AFNE01.JPG,AFNE01.JPG,AFNE01.JPG,0,0,0,4,,,,,,,,,,,,,,,,,,,,,,,AMSA01.jpg,AMNE04.jpg,AMSA10.jpg,AMNE10.jpg,AMSA10.jpg,MS,2,num_2,32,num_4,0.616783362574,,,2017_Dec_19_1125,60.0189039555,MAFE4ImagesEEG,001,202502,
AFNE01.JPG,AFNE01.JPG,AFNE01.JPG,AFNE01.JPG,AFNE01.JPG,AFNE01.JPG,0,1,1,0,,,,,,,,,,,,,,,,,,,,,,,AMSA04.jpg,AMSA16.jpg,AMNE13.jpg,AMNE01.jpg,AMNE13.jpg,MN,1,num_2,32,num_8,0.566631812919,,,2017_Dec_19_1125,60.0189039555,MAFE4ImagesEEG,001,202502,
AFNE01.JPG,AFNE01.JPG,AFNE01.JPG,AFNE01.JPG,AFNE01.JPG,AFNE01.JPG,0,2,2,8,,,,,,,,,,,,,,,,,,,,,,,AMSA02.jpg,AMNE11.jpg,AMSA19.jpg,AMNE13.jpg,AMNE13.jpg,MN,1,num_4,32,num_6,0.516787211454,,,2017_Dec_19_1125,60.0189039555,MAFE4ImagesEEG,001,202502,
AFNE01.JPG,AFNE01.JPG,AFNE01.JPG,AFNE01.JPG,AFNE01.JPG,AFNE01.JPG,0,3,3,9,,,,,,,,,,,,,,,,,,,,,,,AMNE14.jpg,AMNE01.jpg,AMSA07.jpg,AMSA13.jpg,AMSA07.jpg,MS,2,num_2,16,num_2,1.55008483573,,,2017_Dec_19_1125,60.0189039555,MAFE4ImagesEEG,001,202502,
AFNE01.JPG,AFNE01.JPG,AFNE01.JPG,AFNE01.JPG,AFNE01.JPG,AFNE01.JPG,0,4,4,2,,,,,,,,,,,,,,,,,,,,,,,AMSA08.jpg,AMNE17.jpg,AMNE13.jpg,AMSA18.jpg,AMNE17.jpg,MN,1,num_6,16,num_6,0.633462805385,,,2017_Dec_19_1125,60.0189039555,MAFE4ImagesEEG,001,202502,
AFNE01.JPG,AFNE01.JPG,AFNE01.JPG,AFNE01.JPG,AFNE01.JPG,AFNE01.JPG,0,5,5,1,,,,,,,,,,,,,,,,,,,,,,,AMSA08.jpg,AMSA04.jpg,AMNE11.jpg,AMNE12.jpg,AMNE11.jpg,MN,1,num_2,32,num_6,0.583496964196,,,2017_Dec_19_1125,60.0189039555,MAFE4ImagesEEG,001,202502,
AFNE01.JPG,AFNE01.JPG,AFNE01.JPG,AFNE01.JPG,AFNE01.JPG,AFNE01.JPG,0,6,6,5,,,,,,,,,,,,,,,,,,,,,,,AMNE14.jpg,AMSA12.jpg,AMNE12.jpg,AMSA20.jpg,AMNE12.jpg,MN,1,num_2,16,num_2,1.11678656997,,,2017_Dec_19_1125,60.0189039555,MAFE4ImagesEEG,001,202502,
AFNE01.JPG,AFNE01.JPG,AFNE01.JPG,AFNE01.JPG,AFNE01.JPG,AFNE01.JPG,0,7,7,7,,,,,,,,,,,,,,,,,,,,,,,AMNE16.jpg,AMSA19.jpg,AMNE14.jpg,AMSA10.jpg,AMSA19.jpg,MS,2,num_6,32,num_4,0.766803408825,,,2017_Dec_19_1125,60.0189039555,MAFE4ImagesEEG,001,202502,
AFNE01.JPG,AFNE01.JPG,AFNE01.JPG,AFNE01.JPG,AFNE01.JPG,AFNE01.JPG,0,8,8,6,,,,,,,,,,,,,,,,,,,,,,,AMSA10.jpg,AMNE12.jpg,AMNE15.jpg,AMSA18.jpg,AMNE15.jpg,MN,1,num_2,32,num_8,0.533484936445,,,2017_Dec_19_1125,60.0189039555,MAFE4ImagesEEG,001,202502,
AFNE01.JPG,AFNE01.JPG,AFNE01.JPG,AFNE01.JPG,AFNE01.JPG,AFNE01.JPG,0,9,9,3,,,,,,,,,,,,,,,,,,,,,,,AMNE01.jpg,AMNE12.jpg,AMSA08.jpg,AMSA13.jpg,AMNE01.jpg,MN,1,num_8,32,num_6,0.933446768384,,,2017_Dec_19_1125,60.0189039555,MAFE4ImagesEEG,001,202502,
AFNE01.JPG,AFNE01.JPG,AFNE01.JPG,AFNE01.JPG,AFNE01.JPG,AFNE01.JPG,1,0,10,1,,,,,,,,,,,,,,,,,,,,,,,AMNE14.jpg,AMNE13.jpg,AMSA10.jpg,AMSA06.jpg,AMNE14.jpg,MN,1,num_8,16,num_8,0.566806936965,,,2017_Dec_19_1125,60.0189039555,MAFE4ImagesEEG,001,202502,
AFNE01.JPG,AFNE01.JPG,AFNE01.JPG,AFNE01.JPG,AFNE01.JPG,AFNE01.JPG,1,1,11,0,,,,,,,,,,,,,,,,,,,,,,,AMSA13.jpg,AMSA05.jpg,AMNE03.jpg,AMNE12.jpg,AMSA05.jpg,MS,2,num_6,16,num_6,1.35008066611,,,2017_Dec_19_1125,60.0189039555,MAFE4ImagesEEG,001,202502,
AFNE01.JPG,AFNE01.JPG,AFNE01.JPG,AFNE01.JPG,AFNE01.JPG,AFNE01.JPG,1,2,12,3,,,,,,,,,,,,,,,,,,,,,,,AMNE14.jpg,AMSA01.jpg,AMSA06.jpg,AMNE16.jpg,AMNE16.jpg,MN,1,num_4,16,num_4,0.666769410384,,,2017_Dec_19_1125,60.0189039555,MAFE4ImagesEEG,001,202502,
AFNE01.JPG,AFNE01.JPG,AFNE01.JPG,AFNE01.JPG,AFNE01.JPG,AFNE01.JPG,1,3,13,5,,,,,,,,,,,,,,,,,,,,,,,AMSA12.jpg,AMSA04.jpg,AMNE12.jpg,AMNE05.jpg,AMSA12.jpg,MS,2,num_8,32,num_6,0.633466654264,,,2017_Dec_19_1125,60.0189039555,MAFE4ImagesEEG,001,202502,
AFNE01.JPG,AFNE01.JPG,AFNE01.JPG,AFNE01.JPG,AFNE01.JPG,AFNE01.JPG,1,4,14,2,,,,,,,,,,,,,,,,,,,,,,,AMNE10.jpg,AMSA20.jpg,AMNE19.jpg,AMSA04.jpg,AMSA04.jpg,MS,2,num_4,16,num_4,0.483505303436,,,2017_Dec_19_1125,60.0189039555,MAFE4ImagesEEG,001,202502,
AFNE01.JPG,AFNE01.JPG,AFNE01.JPG,AFNE01.JPG,AFNE01.JPG,AFNE01.JPG,1,5,15,6,,,,,,,,,,,,,,,,,,,,,,,AMSA02.jpg,AMSA17.jpg,AMNE15.jpg,AMNE11.jpg,AMNE15.jpg,MN,1,num_2,32,num_8,0.566779353324,,,2017_Dec_19_1125,60.0189039555,MAFE4ImagesEEG,001,202502,
AFNE01.JPG,AFNE01.JPG,AFNE01.JPG,AFNE01.JPG,AFNE01.JPG,AFNE01.JPG,1,6,16,4,,,,,,,,,,,,,,,,,,,,,,,AMSA11.jpg,AMNE03.jpg,AMNE07.jpg,AMSA10.jpg,AMSA11.jpg,MS,2,num_8,32,num_6,0.566754014863,,,2017_Dec_19_1125,60.0189039555,MAFE4ImagesEEG,001,202502,
AFNE01.JPG,AFNE01.JPG,AFNE01.JPG,AFNE01.JPG,AFNE01.JPG,AFNE01.JPG,1,7,17,8,,,,,,,,,,,,,,,,,,,,,,,AMSA01.jpg,AMSA09.jpg,AMNE01.jpg,AMNE16.jpg,AMSA01.jpg,MS,2,num_8,32,num_2,1.13342912768,,,2017_Dec_19_1125,60.0189039555,MAFE4ImagesEEG,001,202502,
AFNE01.JPG,AFNE01.JPG,AFNE01.JPG,AFNE01.JPG,AFNE01.JPG,AFNE01.JPG,1,8,18,9,,,,,,,,,,,,,,,,,,,,,,,AMNE04.jpg,AMNE07.jpg,AMSA02.jpg,AMSA03.jpg,AMSA02.jpg,MS,2,num_2,16,num_2,0.933479804606,,,2017_Dec_19_1125,60.0189039555,MAFE4ImagesEEG,001,202502,
AFNE01.JPG,AFNE01.JPG,AFNE01.JPG,AFNE01.JPG,AFNE01.JPG,AFNE01.JPG,1,9,19,7,,,,,,,,,,,,,,,,,,,,,,,AMNE16.jpg,AMSA11.jpg,AMSA19.jpg,AMNE06.jpg,AMSA11.jpg,MS,2,num_6,16,num_6,0.533475955725,,,2017_Dec_19_1125,60.0189039555,MAFE4ImagesEEG,001,202502,
AFNE01.JPG,AFNE01.JPG,AFNE01.JPG,AFNE01.JPG,AFNE01.JPG,AFNE01.JPG,2,0,20,4,,,,,,,,,,,,,,,,,,,,,,,AMSA15.jpg,AMSA13.jpg,AMNE05.jpg,AMNE16.jpg,AMNE05.jpg,MN,1,num_2,32,num_8,0.433485577925,,,2017_Dec_19_1125,60.0189039555,MAFE4ImagesEEG,001,202502,
AFNE01.JPG,AFNE01.JPG,AFNE01.JPG,AFNE01.JPG,AFNE01.JPG,AFNE01.JPG,2,1,21,5,,,,,,,,,,,,,,,,,,,,,,,AMNE20.jpg,AMSA13.jpg,AMSA20.jpg,AMNE08.jpg,AMSA13.jpg,MS,2,num_6,32,num_4,0.783427363614,,,2017_Dec_19_1125,60.0189039555,MAFE4ImagesEEG,001,202502,
AFNE01.JPG,AFNE01.JPG,AFNE01.JPG,AFNE01.JPG,AFNE01.JPG,AFNE01.JPG,2,2,22,2,,,,,,,,,,,,,,,,,,,,,,,AMSA17.jpg,AMNE02.jpg,AMSA05.jpg,AMNE10.jpg,AMSA05.jpg,MS,2,num_2,16,num_2,0.950121079354,,,2017_Dec_19_1125,60.0189039555,MAFE4ImagesEEG,001,202502,
AFNE01.JPG,AFNE01.JPG,AFNE01.JPG,AFNE01.JPG,AFNE01.JPG,AFNE01.JPG,2,3,23,7,,,,,,,,,,,,,,,,,,,,,,,AMSA08.jpg,AMNE08.jpg,AMNE15.jpg,AMSA02.jpg,AMSA08.jpg,MS,2,num_8,32,num_4,0.416798758094,,,2017_Dec_19_1125,60.0189039555,MAFE4ImagesEEG,001,202502,
AFNE01.JPG,AFNE01.JPG,AFNE01.JPG,AFNE01.JPG,AFNE01.JPG,AFNE01.JPG,2,4,24,6,,,,,,,,,,,,,,,,,,,,,,,AMNE17.jpg,AMNE04.jpg,AMSA05.jpg,AMSA15.jpg,AMSA05.jpg,MS,2,num_2,32,num_8,0.550176888116,,,2017_Dec_19_1125,60.0189039555,MAFE4ImagesEEG,001,202502,
AFNE01.JPG,AFNE01.JPG,AFNE01.JPG,AFNE01.JPG,AFNE01.JPG,AFNE01.JPG,2,5,25,3,,,,,,,,,,,,,,,,,,,,,,,AMSA20.jpg,AMNE06.jpg,AMSA19.jpg,AMNE18.jpg,AMSA19.jpg,MS,2,num_2,32,num_6,0.550177208856,,,2017_Dec_19_1125,60.0189039555,MAFE4ImagesEEG,001,202502,
AFNE01.JPG,AFNE01.JPG,AFNE01.JPG,AFNE01.JPG,AFNE01.JPG,AFNE01.JPG,2,6,26,0,,,,,,,,,,,,,,,,,,,,,,,AMNE01.jpg,AMNE09.jpg,AMSA15.jpg,AMSA03.jpg,AMSA15.jpg,MS,2,num_2,16,num_2,1.3000545258,,,2017_Dec_19_1125,60.0189039555,MAFE4ImagesEEG,001,202502,
AFNE01.JPG,AFNE01.JPG,AFNE01.JPG,AFNE01.JPG,AFNE01.JPG,AFNE01.JPG,2,7,27,1,,,,,,,,,,,,,,,,,,,,,,,AMNE06.jpg,AMSA01.jpg,AMNE05.jpg,AMSA03.jpg,AMNE06.jpg,MN,1,num_8,32,num_4,0.433240853296,,,2017_Dec_19_1125,60.0189039555,MAFE4ImagesEEG,001,202502,
AFNE01.JPG,AFNE01.JPG,AFNE01.JPG,AFNE01.JPG,AFNE01.JPG,AFNE01.JPG,2,8,28,9,,,,,,,,,,,,,,,,,,,,,,,AMSA12.jpg,AMNE15.jpg,AMNE02.jpg,AMSA09.jpg,AMSA09.jpg,MS,2,num_4,16,num_4,0.550093816453,,,2017_Dec_19_1125,60.0189039555,MAFE4ImagesEEG,001,202502,
AFNE01.JPG,AFNE01.JPG,AFNE01.JPG,AFNE01.JPG,AFNE01.JPG,AFNE01.JPG,2,9,29,8,,,,,,,,,,,,,,,,,,,,,,,AMNE17.jpg,AMNE04.jpg,AMSA11.jpg,AMSA15.jpg,AMSA11.jpg,MS,2,num_2,32,num_6,0.300237347608,,,2017_Dec_19_1125,60.0189039555,MAFE4ImagesEEG,001,202502,
AFNE01.JPG,AFNE01.JPG,AFNE01.JPG,AFNE01.JPG,AFNE01.JPG,AFNE01.JPG,3,0,30,9,,,,,,,,,,,,,,,,,,,,,,,AMNE09.jpg,AMSA13.jpg,AMSA07.jpg,AMNE06.jpg,AMSA13.jpg,MS,2,num_6,16,num_6,0.450183623657,,,2017_Dec_19_1125,60.0189039555,MAFE4ImagesEEG,001,202502,
AFNE01.JPG,AFNE01.JPG,AFNE01.JPG,AFNE01.JPG,AFNE01.JPG,AFNE01.JPG,3,1,31,8,,,,,,,,,,,,,,,,,,,,,,,AMSA08.jpg,AMSA02.jpg,AMNE08.jpg,AMNE19.jpg,AMSA08.jpg,MS,2,num_8,32,num_6,0.65001523515,,,2017_Dec_19_1125,60.0189039555,MAFE4ImagesEEG,001,202502,
AFNE01.JPG,AFNE01.JPG,AFNE01.JPG,AFNE01.JPG,AFNE01.JPG,AFNE01.JPG,3,2,32,7,,,,,,,,,,,,,,,,,,,,,,,AMSA09.jpg,AMSA13.jpg,AMNE20.jpg,AMNE18.jpg,AMNE18.jpg,MN,1,num_4,32,num_8,0.450151549656,,,2017_Dec_19_1125,60.0189039555,MAFE4ImagesEEG,001,202502,
AFNE01.JPG,AFNE01.JPG,AFNE01.JPG,AFNE01.JPG,AFNE01.JPG,AFNE01.JPG,3,3,33,2,,,,,,,,,,,,,,,,,,,,,,,AMNE08.jpg,AMNE19.jpg,AMSA11.jpg,AMSA10.jpg,AMNE19.jpg,MN,1,num_6,32,num_2,0.833486540146,,,2017_Dec_19_1125,60.0189039555,MAFE4ImagesEEG,001,202502,
AFNE01.JPG,AFNE01.JPG,AFNE01.JPG,AFNE01.JPG,AFNE01.JPG,AFNE01.JPG,3,4,34,6,,,,,,,,,,,,,,,,,,,,,,,AMNE11.jpg,AMSA19.jpg,AMNE06.jpg,AMSA10.jpg,AMSA19.jpg,MS,2,num_6,32,num_4,0.316833077275,,,2017_Dec_19_1125,60.0189039555,MAFE4ImagesEEG,001,202502,
AFNE01.JPG,AFNE01.JPG,AFNE01.JPG,AFNE01.JPG,AFNE01.JPG,AFNE01.JPG,3,5,35,3,,,,,,,,,,,,,,,,,,,,,,,AMNE03.jpg,AMSA09.jpg,AMNE11.jpg,AMSA20.jpg,AMSA09.jpg,MS,2,num_6,16,num_6,0.616786569974,,,2017_Dec_19_1125,60.0189039555,MAFE4ImagesEEG,001,202502,
AFNE01.JPG,AFNE01.JPG,AFNE01.JPG,AFNE01.JPG,AFNE01.JPG,AFNE01.JPG,3,6,36,1,,,,,,,,,,,,,,,,,,,,,,,AMSA03.jpg,AMNE12.jpg,AMNE13.jpg,AMSA07.jpg,AMNE13.jpg,MN,1,num_2,32,num_4,0.816805814375,,,2017_Dec_19_1125,60.0189039555,MAFE4ImagesEEG,001,202502,
AFNE01.JPG,AFNE01.JPG,AFNE01.JPG,AFNE01.JPG,AFNE01.JPG,AFNE01.JPG,3,7,37,4,,,,,,,,,,,,,,,,,,,,,,,AMNE20.jpg,AMNE06.jpg,AMSA06.jpg,AMSA07.jpg,AMSA07.jpg,MS,2,num_4,32,num_8,0.916788173675,,,2017_Dec_19_1125,60.0189039555,MAFE4ImagesEEG,001,202502,
AFNE01.JPG,AFNE01.JPG,AFNE01.JPG,AFNE01.JPG,AFNE01.JPG,AFNE01.JPG,3,8,38,5,,,,,,,,,,,,,,,,,,,,,,,AMNE18.jpg,AMNE09.jpg,AMSA01.jpg,AMSA05.jpg,AMSA01.jpg,MS,2,num_2,16,num_2,0.916749684873,,,2017_Dec_19_1125,60.0189039555,MAFE4ImagesEEG,001,202502,
AFNE01.JPG,AFNE01.JPG,AFNE01.JPG,AFNE01.JPG,AFNE01.JPG,AFNE01.JPG,3,9,39,0,,,,,,,,,,,,,,,,,,,,,,,AMNE01.jpg,AMNE12.jpg,AMSA05.jpg,AMSA08.jpg,AMNE12.jpg,MN,1,num_6,16,num_6,1.0831451124,,,2017_Dec_19_1125,60.0189039555,MAFE4ImagesEEG,001,202502,
AFNE01.JPG,AFNE01.JPG,AFNE01.JPG,AFNE01.JPG,AFNE01.JPG,AFNE01.JPG,4,0,40,3,,,,,,,,,,,,,,,,,,,,,,,AMNE13.jpg,AMSA13.jpg,AMNE17.jpg,AMSA11.jpg,AMSA13.jpg,MS,2,num_6,32,num_8,0.783461362055,,,2017_Dec_19_1125,60.0189039555,MAFE4ImagesEEG,001,202502,
AFNE01.JPG,AFNE01.JPG,AFNE01.JPG,AFNE01.JPG,AFNE01.JPG,AFNE01.JPG,4,1,41,4,,,,,,,,,,,,,,,,,,,,,,,AMNE17.jpg,AMNE20.jpg,AMSA19.jpg,AMSA13.jpg,AMNE20.jpg,MN,1,num_6,32,num_2,1.68340715699,,,2017_Dec_19_1125,60.0189039555,MAFE4ImagesEEG,001,202502,
AFNE01.JPG,AFNE01.JPG,AFNE01.JPG,AFNE01.JPG,AFNE01.JPG,AFNE01.JPG,4,2,42,8,,,,,,,,,,,,,,,,,,,,,,,AMSA17.jpg,AMSA09.jpg,AMNE10.jpg,AMNE06.jpg,AMSA17.jpg,MS,2,num_8,16,num_8,0.683698709663,,,2017_Dec_19_1125,60.0189039555,MAFE4ImagesEEG,001,202502,
AFNE01.JPG,AFNE01.JPG,AFNE01.JPG,AFNE01.JPG,AFNE01.JPG,AFNE01.JPG,4,3,43,2,,,,,,,,,,,,,,,,,,,,,,,AMSA19.jpg,AMNE07.jpg,AMSA17.jpg,AMNE08.jpg,AMSA17.jpg,MS,2,num_2,16,num_2,0.966769410383,,,2017_Dec_19_1125,60.0189039555,MAFE4ImagesEEG,001,202502,
AFNE01.JPG,AFNE01.JPG,AFNE01.JPG,AFNE01.JPG,AFNE01.JPG,AFNE01.JPG,4,4,44,7,,,,,,,,,,,,,,,,,,,,,,,AMNE04.jpg,AMSA09.jpg,AMNE03.jpg,AMSA12.jpg,AMSA09.jpg,MS,2,num_6,16,num_6,0.816740383412,,,2017_Dec_19_1125,60.0189039555,MAFE4ImagesEEG,001,202502,
AFNE01.JPG,AFNE01.JPG,AFNE01.JPG,AFNE01.JPG,AFNE01.JPG,AFNE01.JPG,4,5,45,0,,,,,,,,,,,,,,,,,,,,,,,AMSA13.jpg,AMSA19.jpg,AMNE01.jpg,AMNE14.jpg,AMSA13.jpg,MS,2,num_8,32,num_6,1.00011931528,,,2017_Dec_19_1125,60.0189039555,MAFE4ImagesEEG,001,202502,
AFNE01.JPG,AFNE01.JPG,AFNE01.JPG,AFNE01.JPG,AFNE01.JPG,AFNE01.JPG,4,6,46,9,,,,,,,,,,,,,,,,,,,,,,,AMNE20.jpg,AMNE17.jpg,AMSA20.jpg,AMSA16.jpg,AMSA20.jpg,MS,2,num_2,16,num_2,1.1667334875,,,2017_Dec_19_1125,60.0189039555,MAFE4ImagesEEG,001,202502,
AFNE01.JPG,AFNE01.JPG,AFNE01.JPG,AFNE01.JPG,AFNE01.JPG,AFNE01.JPG,4,7,47,1,,,,,,,,,,,,,,,,,,,,,,,AMSA17.jpg,AMNE06.jpg,AMNE11.jpg,AMSA04.jpg,AMSA04.jpg,MS,2,num_4,16,num_4,0.483462645015,,,2017_Dec_19_1125,60.0189039555,MAFE4ImagesEEG,001,202502,
AFNE01.JPG,AFNE01.JPG,AFNE01.JPG,AFNE01.JPG,AFNE01.JPG,AFNE01.JPG,4,8,48,5,,,,,,,,,,,,,,,,,,,,,,,AMNE15.jpg,AMSA19.jpg,AMNE07.jpg,AMSA09.jpg,AMNE07.jpg,MN,1,num_2,32,num_8,0.550167907396,,,2017_Dec_19_1125,60.0189039555,MAFE4ImagesEEG,001,202502,
AFNE01.JPG,AFNE01.JPG,AFNE01.JPG,AFNE01.JPG,AFNE01.JPG,AFNE01.JPG,4,9,49,6,,,,,,,,,,,,,,,,,,,,,,,AMNE20.jpg,AMSA02.jpg,AMNE15.jpg,AMSA12.jpg,AMSA12.jpg,MS,2,num_4,32,num_2,1.45009926903,,,2017_Dec_19_1125,60.0189039555,MAFE4ImagesEEG,001,202502,
AFNE01.JPG,AFNE01.JPG,AFNE01.JPG,AFNE01.JPG,AFNE01.JPG,AFNE01.JPG,5,0,50,9,,,,,,,,,,,,,,,,,,,,,,,AMNE09.jpg,AMSA06.jpg,AMSA01.jpg,AMNE07.jpg,AMSA01.jpg,MS,2,num_2,32,num_6,0.433460560204,,,2017_Dec_19_1125,60.0189039555,MAFE4ImagesEEG,001,202502,
AFNE01.JPG,AFNE01.JPG,AFNE01.JPG,AFNE01.JPG,AFNE01.JPG,AFNE01.JPG,5,1,51,1,,,,,,,,,,,,,,,,,,,,,,,AMSA13.jpg,AMNE16.jpg,AMNE11.jpg,AMSA03.jpg,AMSA13.jpg,MS,2,num_8,16,num_8,0.600140484125,,,2017_Dec_19_1125,60.0189039555,MAFE4ImagesEEG,001,202502,
AFNE01.JPG,AFNE01.JPG,AFNE01.JPG,AFNE01.JPG,AFNE01.JPG,AFNE01.JPG,5,2,52,0,,,,,,,,,,,,,,,,,,,,,,,AMNE05.jpg,AMNE04.jpg,AMSA11.jpg,AMSA17.jpg,AMSA11.jpg,MS,2,num_2,32,num_4,0.883440193214,,,2017_Dec_19_1125,60.0189039555,MAFE4ImagesEEG,001,202502,
AFNE01.JPG,AFNE01.JPG,AFNE01.JPG,AFNE01.JPG,AFNE01.JPG,AFNE01.JPG,5,3,53,8,,,,,,,,,,,,,,,,,,,,,,,AMSA12.jpg,AMNE14.jpg,AMSA17.jpg,AMNE02.jpg,AMNE14.jpg,MN,1,num_6,32,num_8,0.766794748844,,,2017_Dec_19_1125,60.0189039555,MAFE4ImagesEEG,001,202502,
AFNE01.JPG,AFNE01.JPG,AFNE01.JPG,AFNE01.JPG,AFNE01.JPG,AFNE01.JPG,5,4,54,3,,,,,,,,,,,,,,,,,,,,,,,AMSA07.jpg,AMNE05.jpg,AMNE09.jpg,AMSA09.jpg,AMNE09.jpg,MN,1,num_2,16,num_2,0.916781758874,,,2017_Dec_19_1125,60.0189039555,MAFE4ImagesEEG,001,202502,
AFNE01.JPG,AFNE01.JPG,AFNE01.JPG,AFNE01.JPG,AFNE01.JPG,AFNE01.JPG,5,5,55,7,,,,,,,,,,,,,,,,,,,,,,,AMSA12.jpg,AMNE06.jpg,AMNE15.jpg,AMSA07.jpg,AMNE06.jpg,MN,1,num_6,16,num_6,0.350153474095,,,2017_Dec_19_1125,60.0189039555,MAFE4ImagesEEG,001,202502,
AFNE01.JPG,AFNE01.JPG,AFNE01.JPG,AFNE01.JPG,AFNE01.JPG,AFNE01.JPG,5,6,56,5,,,,,,,,,,,,,,,,,,,,,,,AMSA13.jpg,AMNE13.jpg,AMSA19.jpg,AMNE20.jpg,AMNE20.jpg,MN,1,num_4,32,num_8,0.483530321157,,,2017_Dec_19_1125,60.0189039555,MAFE4ImagesEEG,001,202502,
AFNE01.JPG,AFNE01.JPG,AFNE01.JPG,AFNE01.JPG,AFNE01.JPG,AFNE01.JPG,5,7,57,6,,,,,,,,,,,,,,,,,,,,,,,AMSA16.jpg,AMNE04.jpg,AMSA18.jpg,AMNE02.jpg,AMNE02.jpg,MN,1,num_4,16,num_4,0.350131663775,,,2017_Dec_19_1125,60.0189039555,MAFE4ImagesEEG,001,202502,
AFNE01.JPG,AFNE01.JPG,AFNE01.JPG,AFNE01.JPG,AFNE01.JPG,AFNE01.JPG,5,8,58,2,,,,,,,,,,,,,,,,,,,,,,,AMSA03.jpg,AMNE04.jpg,AMNE14.jpg,AMSA18.jpg,AMSA18.jpg,MS,2,num_4,32,num_8,0.366809823625,,,2017_Dec_19_1125,60.0189039555,MAFE4ImagesEEG,001,202502,
AFNE01.JPG,AFNE01.JPG,AFNE01.JPG,AFNE01.JPG,AFNE01.JPG,AFNE01.JPG,5,9,59,4,,,,,,,,,,,,,,,,,,,,,,,AMSA04.jpg,AMNE10.jpg,AMSA14.jpg,AMNE02.jpg,AMNE02.jpg,MN,1,num_4,16,num_4,1.16670077202,,,2017_Dec_19_1125,60.0189039555,MAFE4ImagesEEG,001,202502,
,,,,,,,,,,,,,,,,,,,,,,,,,,,,,,,,,,,,,,,,,,,space,3.06661545518,2017_Dec_19_1125,60.0189039555,MAFE4ImagesEEG,001,202502,
AFNE01.JPG,AFNE01.JPG,AFNE01.JPG,AFNE01.JPG,AFNE01.JPG,AFNE01.JPG,,,,,0,0,0,2,,,,,,,,,,,,,,,,,,,AFNE11.jpg,AFSA12.jpg,AFSA13.jpg,AFNE18.jpg,AFNE18.jpg,FN,3,num_4,32,num_8,0.700172237386,,,2017_Dec_19_1125,60.0189039555,MAFE4ImagesEEG,001,202502,
AFNE01.JPG,AFNE01.JPG,AFNE01.JPG,AFNE01.JPG,AFNE01.JPG,AFNE01.JPG,,,,,0,1,1,6,,,,,,,,,,,,,,,,,,,AFSA19.jpg,AFNE18.jpg,AFNE12.jpg,AFSA18.jpg,AFNE18.jpg,FN,3,num_6,32,num_4,0.433458315025,,,2017_Dec_19_1125,60.0189039555,MAFE4ImagesEEG,001,202502,
AFNE01.JPG,AFNE01.JPG,AFNE01.JPG,AFNE01.JPG,AFNE01.JPG,AFNE01.JPG,,,,,0,2,2,0,,,,,,,,,,,,,,,,,,,AFNE10.jpg,AFSA08.jpg,AFSA07.jpg,AFNE20.jpg,AFSA08.jpg,FS,4,num_6,32,num_2,0.983458796134,,,2017_Dec_19_1125,60.0189039555,MAFE4ImagesEEG,001,202502,
AFNE01.JPG,AFNE01.JPG,AFNE01.JPG,AFNE01.JPG,AFNE01.JPG,AFNE01.JPG,,,,,0,3,3,9,,,,,,,,,,,,,,,,,,,AFSA05.jpg,AFNE04.jpg,AFSA17.jpg,AFNE07.jpg,AFSA17.jpg,FS,4,num_2,32,num_8,0.450108249754,,,2017_Dec_19_1125,60.0189039555,MAFE4ImagesEEG,001,202502,
AFNE01.JPG,AFNE01.JPG,AFNE01.JPG,AFNE01.JPG,AFNE01.JPG,AFNE01.JPG,,,,,0,4,4,5,,,,,,,,,,,,,,,,,,,AFNE05.jpg,AFSA12.jpg,AFSA17.jpg,AFNE03.jpg,AFNE03.jpg,FN,3,num_4,16,num_4,0.933419826223,,,2017_Dec_19_1125,60.0189039555,MAFE4ImagesEEG,001,202502,
AFNE01.JPG,AFNE01.JPG,AFNE01.JPG,AFNE01.JPG,AFNE01.JPG,AFNE01.JPG,,,,,0,5,5,7,,,,,,,,,,,,,,,,,,,AFSA05.jpg,AFNE10.jpg,AFSA11.jpg,AFNE08.jpg,AFSA05.jpg,FS,4,num_8,16,num_8,0.516829869875,,,2017_Dec_19_1125,60.0189039555,MAFE4ImagesEEG,001,202502,
AFNE01.JPG,AFNE01.JPG,AFNE01.JPG,AFNE01.JPG,AFNE01.JPG,AFNE01.JPG,,,,,0,6,6,3,,,,,,,,,,,,,,,,,,,AFSA02.jpg,AFSA17.jpg,AFNE08.jpg,AFNE19.jpg,AFSA02.jpg,FS,4,num_8,32,num_6,0.950125569715,,,2017_Dec_19_1125,60.0189039555,MAFE4ImagesEEG,001,202502,
AFNE01.JPG,AFNE01.JPG,AFNE01.JPG,AFNE01.JPG,AFNE01.JPG,AFNE01.JPG,,,,,0,7,7,8,,,,,,,,,,,,,,,,,,,AFNE12.jpg,AFSA09.jpg,AFNE13.jpg,AFSA18.jpg,AFSA09.jpg,FS,4,num_6,32,num_4,0.683442117654,,,2017_Dec_19_1125,60.0189039555,MAFE4ImagesEEG,001,202502,
AFNE01.JPG,AFNE01.JPG,AFNE01.JPG,AFNE01.JPG,AFNE01.JPG,AFNE01.JPG,,,,,0,8,8,4,,,,,,,,,,,,,,,,,,,AFSA13.jpg,AFNE02.jpg,AFSA02.jpg,AFNE01.jpg,AFNE01.jpg,FN,3,num_4,32,num_8,0.483536415218,,,2017_Dec_19_1125,60.0189039555,MAFE4ImagesEEG,001,202502,
AFNE01.JPG,AFNE01.JPG,AFNE01.JPG,AFNE01.JPG,AFNE01.JPG,AFNE01.JPG,,,,,0,9,9,1,,,,,,,,,,,,,,,,,,,AFSA19.jpg,AFSA04.jpg,AFNE01.jpg,AFNE10.jpg,AFNE01.jpg,FN,3,num_2,32,num_6,0.616770212234,,,2017_Dec_19_1125,60.0189039555,MAFE4ImagesEEG,001,202502,
AFNE01.JPG,AFNE01.JPG,AFNE01.JPG,AFNE01.JPG,AFNE01.JPG,AFNE01.JPG,,,,,1,0,10,1,,,,,,,,,,,,,,,,,,,AFNE19.jpg,AFNE07.jpg,AFSA14.jpg,AFSA08.jpg,AFSA14.jpg,FS,4,num_2,16,num_2,0.983468097596,,,2017_Dec_19_1125,60.0189039555,MAFE4ImagesEEG,001,202502,
AFNE01.JPG,AFNE01.JPG,AFNE01.JPG,AFNE01.JPG,AFNE01.JPG,AFNE01.JPG,,,,,1,1,11,0,,,,,,,,,,,,,,,,,,,AFSA04.jpg,AFNE01.jpg,AFNE05.jpg,AFSA17.jpg,AFNE01.jpg,FN,3,num_6,32,num_8,1.15013390895,,,2017_Dec_19_1125,60.0189039555,MAFE4ImagesEEG,001,202502,
AFNE01.JPG,AFNE01.JPG,AFNE01.JPG,AFNE01.JPG,AFNE01.JPG,AFNE01.JPG,,,,,1,2,12,4,,,,,,,,,,,,,,,,,,,AFNE10.jpg,AFSA10.jpg,AFSA18.jpg,AFNE11.jpg,AFSA10.jpg,FS,4,num_6,32,num_2,1.26659941818,,,2017_Dec_19_1125,60.0189039555,MAFE4ImagesEEG,001,202502,
AFNE01.JPG,AFNE01.JPG,AFNE01.JPG,AFNE01.JPG,AFNE01.JPG,AFNE01.JPG,,,,,1,3,13,6,,,,,,,,,,,,,,,,,,,AFNE02.jpg,AFNE17.jpg,AFSA12.jpg,AFSA17.jpg,AFNE02.jpg,FN,3,num_8,16,num_8,1.28301328826,,,2017_Dec_19_1125,60.0189039555,MAFE4ImagesEEG,001,202502,
AFNE01.JPG,AFNE01.JPG,AFNE01.JPG,AFNE01.JPG,AFNE01.JPG,AFNE01.JPG,,,,,1,4,14,8,,,,,,,,,,,,,,,,,,,AFSA12.jpg,AFNE05.jpg,AFNE19.jpg,AFSA13.jpg,AFSA12.jpg,FS,4,num_8,16,num_8,0.850113381593,,,2017_Dec_19_1125,60.0189039555,MAFE4ImagesEEG,001,202502,
AFNE01.JPG,AFNE01.JPG,AFNE01.JPG,AFNE01.JPG,AFNE01.JPG,AFNE01.JPG,,,,,1,5,15,5,,,,,,,,,,,,,,,,,,,AFNE18.jpg,AFSA07.jpg,AFNE20.jpg,AFSA06.jpg,AFNE20.jpg,FN,3,num_2,16,num_2,2.46664432178,,,2017_Dec_19_1125,60.0189039555,MAFE4ImagesEEG,001,202502,
AFNE01.JPG,AFNE01.JPG,AFNE01.JPG,AFNE01.JPG,AFNE01.JPG,AFNE01.JPG,,,,,1,6,16,9,,,,,,,,,,,,,,,,,,,AFSA05.jpg,AFNE08.jpg,AFNE05.jpg,AFSA07.jpg,AFNE08.jpg,FN,3,num_6,32,num_4,0.600141125606,,,2017_Dec_19_1125,60.0189039555,MAFE4ImagesEEG,001,202502,
AFNE01.JPG,AFNE01.JPG,AFNE01.JPG,AFNE01.JPG,AFNE01.JPG,AFNE01.JPG,,,,,1,7,17,2,,,,,,,,,,,,,,,,,,,AFSA01.jpg,AFNE06.jpg,AFSA10.jpg,AFNE04.jpg,AFNE04.jpg,FN,3,num_4,32,num_8,0.950149625216,,,2017_Dec_19_1125,60.0189039555,MAFE4ImagesEEG,001,202502,
AFNE01.JPG,AFNE01.JPG,AFNE01.JPG,AFNE01.JPG,AFNE01.JPG,AFNE01.JPG,,,,,1,8,18,7,,,,,,,,,,,,,,,,,,,AFNE11.jpg,AFSA17.jpg,AFNE08.jpg,AFSA16.jpg,AFSA17.jpg,FS,4,num_6,16,num_6,1.05009542015,,,2017_Dec_19_1125,60.0189039555,MAFE4ImagesEEG,001,202502,
AFNE01.JPG,AFNE01.JPG,AFNE01.JPG,AFNE01.JPG,AFNE01.JPG,AFNE01.JPG,,,,,1,9,19,3,,,,,,,,,,,,,,,,,,,AFSA07.jpg,AFNE04.jpg,AFSA03.jpg,AFNE06.jpg,AFNE04.jpg,FN,3,num_6,16,num_6,1.23343458026,,,2017_Dec_19_1125,60.0189039555,MAFE4ImagesEEG,001,202502,
AFNE01.JPG,AFNE01.JPG,AFNE01.JPG,AFNE01.JPG,AFNE01.JPG,AFNE01.JPG,,,,,2,0,20,1,,,,,,,,,,,,,,,,,,,AFSA07.jpg,AFNE18.jpg,AFSA09.jpg,AFNE20.jpg,AFSA07.jpg,FS,4,num_8,16,num_8,0.450185227356,,,2017_Dec_19_1125,60.0189039555,MAFE4ImagesEEG,001,202502,
AFNE01.JPG,AFNE01.JPG,AFNE01.JPG,AFNE01.JPG,AFNE01.JPG,AFNE01.JPG,,,,,2,1,21,7,,,,,,,,,,,,,,,,,,,AFNE01.jpg,AFSA14.jpg,AFSA11.jpg,AFNE13.jpg,AFSA14.jpg,FS,4,num_6,32,num_4,0.933542028168,,,2017_Dec_19_1125,60.0189039555,MAFE4ImagesEEG,001,202502,
AFNE01.JPG,AFNE01.JPG,AFNE01.JPG,AFNE01.JPG,AFNE01.JPG,AFNE01.JPG,,,,,2,2,22,4,,,,,,,,,,,,,,,,,,,AFSA19.jpg,AFSA07.jpg,AFNE02.jpg,AFNE12.jpg,AFSA07.jpg,FS,4,num_6,16,num_6,1.0667495245,,,2017_Dec_19_1125,60.0189039555,MAFE4ImagesEEG,001,202502,
AFNE01.JPG,AFNE01.JPG,AFNE01.JPG,AFNE01.JPG,AFNE01.JPG,AFNE01.JPG,,,,,2,3,23,6,,,,,,,,,,,,,,,,,,,AFNE17.jpg,AFSA04.jpg,AFNE20.jpg,AFSA01.jpg,AFNE17.jpg,FN,3,num_8,32,num_4,0.833445806164,,,2017_Dec_19_1125,60.0189039555,MAFE4ImagesEEG,001,202502,
AFNE01.JPG,AFNE01.JPG,AFNE01.JPG,AFNE01.JPG,AFNE01.JPG,AFNE01.JPG,,,,,2,4,24,9,,,,,,,,,,,,,,,,,,,AFSA12.jpg,AFNE09.jpg,AFSA04.jpg,AFNE20.jpg,AFNE09.jpg,FN,3,num_6,16,num_6,0.850180095516,,,2017_Dec_19_1125,60.0189039555,MAFE4ImagesEEG,001,202502,
AFNE01.JPG,AFNE01.JPG,AFNE01.JPG,AFNE01.JPG,AFNE01.JPG,AFNE01.JPG,,,,,2,5,25,8,,,,,,,,,,,,,,,,,,,AFSA19.jpg,AFNE20.jpg,AFSA07.jpg,AFNE09.jpg,AFSA07.jpg,FS,4,num_2,16,num_2,1.00011033456,,,2017_Dec_19_1125,60.0189039555,MAFE4ImagesEEG,001,202502,
AFNE01.JPG,AFNE01.JPG,AFNE01.JPG,AFNE01.JPG,AFNE01.JPG,AFNE01.JPG,,,,,2,6,26,0,,,,,,,,,,,,,,,,,,,AFSA06.jpg,AFSA09.jpg,AFNE10.jpg,AFNE15.jpg,AFNE10.jpg,FN,3,num_2,32,num_4,1.15006623281,,,2017_Dec_19_1125,60.0189039555,MAFE4ImagesEEG,001,202502,
AFNE01.JPG,AFNE01.JPG,AFNE01.JPG,AFNE01.JPG,AFNE01.JPG,AFNE01.JPG,,,,,2,7,27,5,,,,,,,,,,,,,,,,,,,AFSA18.jpg,AFSA14.jpg,AFNE05.jpg,AFNE12.jpg,AFSA18.jpg,FS,4,num_8,16,num_8,0.616992164321,,,2017_Dec_19_1125,60.0189039555,MAFE4ImagesEEG,001,202502,
AFNE01.JPG,AFNE01.JPG,AFNE01.JPG,AFNE01.JPG,AFNE01.JPG,AFNE01.JPG,,,,,2,8,28,2,,,,,,,,,,,,,,,,,,,AFNE10.jpg,AFSA09.jpg,AFNE08.jpg,AFSA05.jpg,AFSA09.jpg,FS,4,num_6,16,num_6,0.683514604897,,,2017_Dec_19_1125,60.0189039555,MAFE4ImagesEEG,001,202502,
AFNE01.JPG,AFNE01.JPG,AFNE01.JPG,AFNE01.JPG,AFNE01.JPG,AFNE01.JPG,,,,,2,9,29,3,,,,,,,,,,,,,,,,,,,AFSA01.jpg,AFNE11.jpg,AFSA06.jpg,AFNE14.jpg,AFSA06.jpg,FS,4,num_2,32,num_6,0.650136154134,,,2017_Dec_19_1125,60.0189039555,MAFE4ImagesEEG,001,202502,
AFNE01.JPG,AFNE01.JPG,AFNE01.JPG,AFNE01.JPG,AFNE01.JPG,AFNE01.JPG,,,,,3,0,30,6,,,,,,,,,,,,,,,,,,,AFSA19.jpg,AFNE09.jpg,AFNE14.jpg,AFSA11.jpg,AFSA19.jpg,FS,4,num_8,32,num_4,0.866750165983,,,2017_Dec_19_1125,60.0189039555,MAFE4ImagesEEG,001,202502,
AFNE01.JPG,AFNE01.JPG,AFNE01.JPG,AFNE01.JPG,AFNE01.JPG,AFNE01.JPG,,,,,3,1,31,5,,,,,,,,,,,,,,,,,,,AFNE18.jpg,AFNE02.jpg,AFSA02.jpg,AFSA01.jpg,AFNE02.jpg,FN,3,num_6,32,num_2,0.833467937225,,,2017_Dec_19_1125,60.0189039555,MAFE4ImagesEEG,001,202502,
AFNE01.JPG,AFNE01.JPG,AFNE01.JPG,AFNE01.JPG,AFNE01.JPG,AFNE01.JPG,,,,,3,2,32,2,,,,,,,,,,,,,,,,,,,AFNE15.jpg,AFNE05.jpg,AFSA03.jpg,AFSA06.jpg,AFNE05.jpg,FN,3,num_6,32,num_8,0.750104080133,,,2017_Dec_19_1125,60.0189039555,MAFE4ImagesEEG,001,202502,
AFNE01.JPG,AFNE01.JPG,AFNE01.JPG,AFNE01.JPG,AFNE01.JPG,AFNE01.JPG,,,,,3,3,33,1,,,,,,,,,,,,,,,,,,,AFNE11.jpg,AFSA09.jpg,AFSA14.jpg,AFNE06.jpg,AFSA09.jpg,FS,4,num_6,32,num_4,0.700143370786,,,2017_Dec_19_1125,60.0189039555,MAFE4ImagesEEG,001,202502,
AFNE01.JPG,AFNE01.JPG,AFNE01.JPG,AFNE01.JPG,AFNE01.JPG,AFNE01.JPG,,,,,3,4,34,8,,,,,,,,,,,,,,,,,,,AFNE19.jpg,AFNE06.jpg,AFSA18.jpg,AFSA11.jpg,AFNE06.jpg,FN,3,num_6,16,num_6,0.516797795874,,,2017_Dec_19_1125,60.0189039555,MAFE4ImagesEEG,001,202502,
AFNE01.JPG,AFNE01.JPG,AFNE01.JPG,AFNE01.JPG,AFNE01.JPG,AFNE01.JPG,,,,,3,5,35,9,,,,,,,,,,,,,,,,,,,AFSA02.jpg,AFSA13.jpg,AFNE14.jpg,AFNE12.jpg,AFSA02.jpg,FS,4,num_8,16,num_8,0.46691534709,,,2017_Dec_19_1125,60.0189039555,MAFE4ImagesEEG,001,202502,
AFNE01.JPG,AFNE01.JPG,AFNE01.JPG,AFNE01.JPG,AFNE01.JPG,AFNE01.JPG,,,,,3,6,36,3,,,,,,,,,,,,,,,,,,,AFSA15.jpg,AFSA16.jpg,AFNE20.jpg,AFNE13.jpg,AFNE13.jpg,FN,3,num_4,32,num_6,0.650131343035,,,2017_Dec_19_1125,60.0189039555,MAFE4ImagesEEG,001,202502,
AFNE01.JPG,AFNE01.JPG,AFNE01.JPG,AFNE01.JPG,AFNE01.JPG,AFNE01.JPG,,,,,3,7,37,7,,,,,,,,,,,,,,,,,,,AFNE16.jpg,AFSA04.jpg,AFSA07.jpg,AFNE03.jpg,AFSA07.jpg,FS,4,num_2,32,num_4,0.466839652446,,,2017_Dec_19_1125,60.0189039555,MAFE4ImagesEEG,001,202502,
AFNE01.JPG,AFNE01.JPG,AFNE01.JPG,AFNE01.JPG,AFNE01.JPG,AFNE01.JPG,,,,,3,8,38,0,,,,,,,,,,,,,,,,,,,AFNE12.jpg,AFSA16.jpg,AFSA14.jpg,AFNE16.jpg,AFNE16.jpg,FN,3,num_4,32,num_8,0.800088844983,,,2017_Dec_19_1125,60.0189039555,MAFE4ImagesEEG,001,202502,
AFNE01.JPG,AFNE01.JPG,AFNE01.JPG,AFNE01.JPG,AFNE01.JPG,AFNE01.JPG,,,,,3,9,39,4,,,,,,,,,,,,,,,,,,,AFSA17.jpg,AFSA19.jpg,AFNE02.jpg,AFNE15.jpg,AFSA17.jpg,FS,4,num_8,32,num_6,0.550163417036,,,2017_Dec_19_1125,60.0189039555,MAFE4ImagesEEG,001,202502,
AFNE01.JPG,AFNE01.JPG,AFNE01.JPG,AFNE01.JPG,AFNE01.JPG,AFNE01.JPG,,,,,4,0,40,3,,,,,,,,,,,,,,,,,,,AFNE06.jpg,AFSA03.jpg,AFNE04.jpg,AFSA11.jpg,AFNE06.jpg,FN,3,num_8,16,num_8,0.600380076913,,,2017_Dec_19_1125,60.0189039555,MAFE4ImagesEEG,001,202502,
AFNE01.JPG,AFNE01.JPG,AFNE01.JPG,AFNE01.JPG,AFNE01.JPG,AFNE01.JPG,,,,,4,1,41,5,,,,,,,,,,,,,,,,,,,AFSA10.jpg,AFSA19.jpg,AFNE08.jpg,AFNE02.jpg,AFNE08.jpg,FN,3,num_2,32,num_6,0.683477078314,,,2017_Dec_19_1125,60.0189039555,MAFE4ImagesEEG,001,202502,
AFNE01.JPG,AFNE01.JPG,AFNE01.JPG,AFNE01.JPG,AFNE01.JPG,AFNE01.JPG,,,,,4,2,42,7,,,,,,,,,,,,,,,,,,,AFSA11.jpg,AFNE13.jpg,AFSA01.jpg,AFNE07.jpg,AFNE13.jpg,FN,3,num_6,32,num_4,0.283478361275,,,2017_Dec_19_1125,60.0189039555,MAFE4ImagesEEG,001,202502,
AFNE01.JPG,AFNE01.JPG,AFNE01.JPG,AFNE01.JPG,AFNE01.JPG,AFNE01.JPG,,,,,4,3,43,2,,,,,,,,,,,,,,,,,,,AFNE13.jpg,AFSA02.jpg,AFNE02.jpg,AFSA13.jpg,AFSA02.jpg,FS,4,num_6,32,num_8,0.316805814376,,,2017_Dec_19_1125,60.0189039555,MAFE4ImagesEEG,001,202502,
AFNE01.JPG,AFNE01.JPG,AFNE01.JPG,AFNE01.JPG,AFNE01.JPG,AFNE01.JPG,,,,,4,4,44,8,,,,,,,,,,,,,,,,,,,AFNE03.jpg,AFSA20.jpg,AFNE07.jpg,AFSA18.jpg,AFSA18.jpg,FS,4,num_4,32,num_6,0.383496001976,,,2017_Dec_19_1125,60.0189039555,MAFE4ImagesEEG,001,202502,
AFNE01.JPG,AFNE01.JPG,AFNE01.JPG,AFNE01.JPG,AFNE01.JPG,AFNE01.JPG,,,,,4,5,45,0,,,,,,,,,,,,,,,,,,,AFNE02.jpg,AFSA18.jpg,AFNE11.jpg,AFSA04.jpg,AFNE02.jpg,FN,3,num_8,16,num_8,0.716773098894,,,2017_Dec_19_1125,60.0189039555,MAFE4ImagesEEG,001,202502,
AFNE01.JPG,AFNE01.JPG,AFNE01.JPG,AFNE01.JPG,AFNE01.JPG,AFNE01.JPG,,,,,4,6,46,4,,,,,,,,,,,,,,,,,,,AFNE17.jpg,AFSA07.jpg,AFSA02.jpg,AFNE05.jpg,AFNE17.jpg,FN,3,num_8,16,num_8,0.88333563197,,,2017_Dec_19_1125,60.0189039555,MAFE4ImagesEEG,001,202502,
AFNE01.JPG,AFNE01.JPG,AFNE01.JPG,AFNE01.JPG,AFNE01.JPG,AFNE01.JPG,,,,,4,7,47,1,,,,,,,,,,,,,,,,,,,AFNE18.jpg,AFNE07.jpg,AFSA12.jpg,AFSA16.jpg,AFSA12.jpg,FS,4,num_2,16,num_2,1.71667110357,,,2017_Dec_19_1125,60.0189039555,MAFE4ImagesEEG,001,202502,
AFNE01.JPG,AFNE01.JPG,AFNE01.JPG,AFNE01.JPG,AFNE01.JPG,AFNE01.JPG,,,,,4,8,48,9,,,,,,,,,,,,,,,,,,,AFNE02.jpg,AFSA11.jpg,AFSA01.jpg,AFNE09.jpg,AFSA01.jpg,FS,4,num_2,32,num_6,0.683463607235,,,2017_Dec_19_1125,60.0189039555,MAFE4ImagesEEG,001,202502,
AFNE01.JPG,AFNE01.JPG,AFNE01.JPG,AFNE01.JPG,AFNE01.JPG,AFNE01.JPG,,,,,4,9,49,6,,,,,,,,,,,,,,,,,,,AFNE15.jpg,AFSA13.jpg,AFSA15.jpg,AFNE08.jpg,AFSA15.jpg,FS,4,num_2,16,num_2,1.44997482191,,,2017_Dec_19_1125,60.0189039555,MAFE4ImagesEEG,001,202502,
AFNE01.JPG,AFNE01.JPG,AFNE01.JPG,AFNE01.JPG,AFNE01.JPG,AFNE01.JPG,,,,,5,0,50,3,,,,,,,,,,,,,,,,,,,AFSA03.jpg,AFNE19.jpg,AFNE14.jpg,AFSA07.jpg,AFSA03.jpg,FS,4,num_8,32,num_4,0.950151549655,,,2017_Dec_19_1125,60.0189039555,MAFE4ImagesEEG,001,202502,
AFNE01.JPG,AFNE01.JPG,AFNE01.JPG,AFNE01.JPG,AFNE01.JPG,AFNE01.JPG,,,,,5,1,51,4,,,,,,,,,,,,,,,,,,,AFSA08.jpg,AFNE17.jpg,AFNE06.jpg,AFSA15.jpg,AFSA15.jpg,FS,4,num_4,16,num_4,0.933422071404,,,2017_Dec_19_1125,60.0189039555,MAFE4ImagesEEG,001,202502,
AFNE01.JPG,AFNE01.JPG,AFNE01.JPG,AFNE01.JPG,AFNE01.JPG,AFNE01.JPG,,,,,5,2,52,5,,,,,,,,,,,,,,,,,,,AFNE08.jpg,AFSA13.jpg,AFSA18.jpg,AFNE18.jpg,AFNE08.jpg,FN,3,num_8,32,num_6,1.11674679821,,,2017_Dec_19_1125,60.0189039555,MAFE4ImagesEEG,001,202502,
AFNE01.JPG,AFNE01.JPG,AFNE01.JPG,AFNE01.JPG,AFNE01.JPG,AFNE01.JPG,,,,,5,3,53,6,,,,,,,,,,,,,,,,,,,AFNE11.jpg,AFSA14.jpg,AFNE16.jpg,AFSA09.jpg,AFSA14.jpg,FS,4,num_6,16,num_6,0.950105683833,,,2017_Dec_19_1125,60.0189039555,MAFE4ImagesEEG,001,202502,
AFNE01.JPG,AFNE01.JPG,AFNE01.JPG,AFNE01.JPG,AFNE01.JPG,AFNE01.JPG,,,,,5,4,54,2,,,,,,,,,,,,,,,,,,,AFSA08.jpg,AFNE17.jpg,AFSA09.jpg,AFNE02.jpg,AFSA08.jpg,FS,4,num_8,16,num_8,1.33353144375,,,2017_Dec_19_1125,60.0189039555,MAFE4ImagesEEG,001,202502,
AFNE01.JPG,AFNE01.JPG,AFNE01.JPG,AFNE01.JPG,AFNE01.JPG,AFNE01.JPG,,,,,5,5,55,1,,,,,,,,,,,,,,,,,,,AFSA08.jpg,AFNE02.jpg,AFNE16.jpg,AFSA03.jpg,AFNE02.jpg,FN,3,num_6,32,num_4,1.48340747773,,,2017_Dec_19_1125,60.0189039555,MAFE4ImagesEEG,001,202502,
AFNE01.JPG,AFNE01.JPG,AFNE01.JPG,AFNE01.JPG,AFNE01.JPG,AFNE01.JPG,,,,,5,6,56,0,,,,,,,,,,,,,,,,,,,AFNE04.jpg,AFSA02.jpg,AFSA20.jpg,AFNE14.jpg,AFSA02.jpg,FS,4,num_6,32,num_2,1.25036772842,,,2017_Dec_19_1125,60.0189039555,MAFE4ImagesEEG,001,202502,
AFNE01.JPG,AFNE01.JPG,AFNE01.JPG,AFNE01.JPG,AFNE01.JPG,AFNE01.JPG,,,,,5,7,57,8,,,,,,,,,,,,,,,,,,,AFSA04.jpg,AFNE06.jpg,AFSA05.jpg,AFNE13.jpg,AFSA04.jpg,FS,4,num_8,32,num_6,1.4168276247,,,2017_Dec_19_1125,60.0189039555,MAFE4ImagesEEG,001,202502,
AFNE01.JPG,AFNE01.JPG,AFNE01.JPG,AFNE01.JPG,AFNE01.JPG,AFNE01.JPG,,,,,5,8,58,7,,,,,,,,,,,,,,,,,,,AFSA08.jpg,AFSA02.jpg,AFNE04.jpg,AFNE18.jpg,AFSA08.jpg,FS,4,num_8,16,num_8,0.933544273347,,,2017_Dec_19_1125,60.0189039555,MAFE4ImagesEEG,001,202502,
AFNE01.JPG,AFNE01.JPG,AFNE01.JPG,AFNE01.JPG,AFNE01.JPG,AFNE01.JPG,,,,,5,9,59,9,,,,,,,,,,,,,,,,,,,AFSA09.jpg,AFNE02.jpg,AFSA11.jpg,AFNE19.jpg,AFNE02.jpg,FN,3,num_6,32,num_4,1.81668874427,,,2017_Dec_19_1125,60.0189039555,MAFE4ImagesEEG,001,202502,
,,,,,,,,,,,,,,,,,,,,,,,,,,,,,,,,,,,,,,,,,,,space,66.1953928905,2017_Dec_19_1125,60.0189039555,MAFE4ImagesEEG,001,202502,
AFNE01.JPG,AFNE01.JPG,AFNE01.JPG,AFNE01.JPG,AFNE01.JPG,AFNE01.JPG,,,,,,,,,0,0,0,6,,,,,,,,,,,,,,,AMSA05.jpg,AMNE09.jpg,AMNE19.jpg,AMSA01.jpg,AMSA05.jpg,MS,2,num_8,16,num_8,0.483513321937,,,2017_Dec_19_1125,60.0189039555,MAFE4ImagesEEG,001,202502,
AFNE01.JPG,AFNE01.JPG,AFNE01.JPG,AFNE01.JPG,AFNE01.JPG,AFNE01.JPG,,,,,,,,,0,1,1,9,,,,,,,,,,,,,,,AMNE04.jpg,AMSA05.jpg,AMSA07.jpg,AMNE09.jpg,AMSA07.jpg,MS,2,num_2,32,num_4,0.450173039236,,,2017_Dec_19_1125,60.0189039555,MAFE4ImagesEEG,001,202502,
AFNE01.JPG,AFNE01.JPG,AFNE01.JPG,AFNE01.JPG,AFNE01.JPG,AFNE01.JPG,,,,,,,,,0,2,2,7,,,,,,,,,,,,,,,AMNE11.jpg,AMSA04.jpg,AMNE02.jpg,AMSA08.jpg,AMNE11.jpg,MN,1,num_8,32,num_6,1.33343393878,,,2017_Dec_19_1125,60.0189039555,MAFE4ImagesEEG,001,202502,
AFNE01.JPG,AFNE01.JPG,AFNE01.JPG,AFNE01.JPG,AFNE01.JPG,AFNE01.JPG,,,,,,,,,0,3,3,0,,,,,,,,,,,,,,,AMSA15.jpg,AMSA14.jpg,AMNE13.jpg,AMNE07.jpg,AMSA14.jpg,MS,2,num_6,32,num_2,0.933451900224,,,2017_Dec_19_1125,60.0189039555,MAFE4ImagesEEG,001,202502,
AFNE01.JPG,AFNE01.JPG,AFNE01.JPG,AFNE01.JPG,AFNE01.JPG,AFNE01.JPG,,,,,,,,,0,4,4,1,,,,,,,,,,,,,,,AMNE10.jpg,AMSA11.jpg,AMSA01.jpg,AMNE16.jpg,AMNE16.jpg,MN,1,num_4,32,num_8,0.666795390324,,,2017_Dec_19_1125,60.0189039555,MAFE4ImagesEEG,001,202502,
AFNE01.JPG,AFNE01.JPG,AFNE01.JPG,AFNE01.JPG,AFNE01.JPG,AFNE01.JPG,,,,,,,,,0,5,5,8,,,,,,,,,,,,,,,AMSA17.jpg,AMSA11.jpg,AMNE05.jpg,AMNE04.jpg,AMNE05.jpg,MN,1,num_2,16,num_2,0.766779353324,,,2017_Dec_19_1125,60.0189039555,MAFE4ImagesEEG,001,202502,
AFNE01.JPG,AFNE01.JPG,AFNE01.JPG,AFNE01.JPG,AFNE01.JPG,AFNE01.JPG,,,,,,,,,0,6,6,4,,,,,,,,,,,,,,,AMNE13.jpg,AMSA01.jpg,AMSA17.jpg,AMNE08.jpg,AMNE08.jpg,MN,1,num_4,32,num_8,0.733484615705,,,2017_Dec_19_1125,60.0189039555,MAFE4ImagesEEG,001,202502,
AFNE01.JPG,AFNE01.JPG,AFNE01.JPG,AFNE01.JPG,AFNE01.JPG,AFNE01.JPG,,,,,,,,,0,7,7,3,,,,,,,,,,,,,,,AMSA05.jpg,AMSA14.jpg,AMNE03.jpg,AMNE02.jpg,AMNE03.jpg,MN,1,num_2,16,num_2,0.900164218886,,,2017_Dec_19_1125,60.0189039555,MAFE4ImagesEEG,001,202502,
AFNE01.JPG,AFNE01.JPG,AFNE01.JPG,AFNE01.JPG,AFNE01.JPG,AFNE01.JPG,,,,,,,,,0,8,8,2,,,,,,,,,,,,,,,AMNE08.jpg,AMSA02.jpg,AMNE17.jpg,AMSA07.jpg,AMNE08.jpg,MN,1,num_8,32,num_4,1.28341293031,,,2017_Dec_19_1125,60.0189039555,MAFE4ImagesEEG,001,202502,
AFNE01.JPG,AFNE01.JPG,AFNE01.JPG,AFNE01.JPG,AFNE01.JPG,AFNE01.JPG,,,,,,,,,0,9,9,5,,,,,,,,,,,,,,,AMSA16.jpg,AMNE13.jpg,AMNE19.jpg,AMSA19.jpg,AMNE13.jpg,MN,1,num_6,32,num_8,0.550123645275,,,2017_Dec_19_1125,60.0189039555,MAFE4ImagesEEG,001,202502,
AFNE01.JPG,AFNE01.JPG,AFNE01.JPG,AFNE01.JPG,AFNE01.JPG,AFNE01.JPG,,,,,,,,,1,0,10,3,,,,,,,,,,,,,,,AMSA02.jpg,AMNE20.jpg,AMNE03.jpg,AMSA05.jpg,AMNE03.jpg,MN,1,num_2,32,num_4,0.933546518528,,,2017_Dec_19_1125,60.0189039555,MAFE4ImagesEEG,001,202502,
AFNE01.JPG,AFNE01.JPG,AFNE01.JPG,AFNE01.JPG,AFNE01.JPG,AFNE01.JPG,,,,,,,,,1,1,11,4,,,,,,,,,,,,,,,AMSA02.jpg,AMSA08.jpg,AMNE05.jpg,AMNE13.jpg,AMNE05.jpg,MN,1,num_2,16,num_2,1.06677325926,,,2017_Dec_19_1125,60.0189039555,MAFE4ImagesEEG,001,202502,
AFNE01.JPG,AFNE01.JPG,AFNE01.JPG,AFNE01.JPG,AFNE01.JPG,AFNE01.JPG,,,,,,,,,1,2,12,0,,,,,,,,,,,,,,,AMNE11.jpg,AMSA14.jpg,AMNE05.jpg,AMSA09.jpg,AMNE05.jpg,MN,1,num_2,32,num_8,0.733456069845,,,2017_Dec_19_1125,60.0189039555,MAFE4ImagesEEG,001,202502,
AFNE01.JPG,AFNE01.JPG,AFNE01.JPG,AFNE01.JPG,AFNE01.JPG,AFNE01.JPG,,,,,,,,,1,3,13,8,,,,,,,,,,,,,,,AMSA16.jpg,AMSA07.jpg,AMNE19.jpg,AMNE06.jpg,AMNE19.jpg,MN,1,num_2,16,num_2,0.566779674064,,,2017_Dec_19_1125,60.0189039555,MAFE4ImagesEEG,001,202502,
AFNE01.JPG,AFNE01.JPG,AFNE01.JPG,AFNE01.JPG,AFNE01.JPG,AFNE01.JPG,,,,,,,,,1,4,14,2,,,,,,,,,,,,,,,AMSA12.jpg,AMNE07.jpg,AMNE18.jpg,AMSA05.jpg,AMSA05.jpg,MS,2,num_4,32,num_6,0.416803248455,,,2017_Dec_19_1125,60.0189039555,MAFE4ImagesEEG,001,202502,
AFNE01.JPG,AFNE01.JPG,AFNE01.JPG,AFNE01.JPG,AFNE01.JPG,AFNE01.JPG,,,,,,,,,1,5,15,5,,,,,,,,,,,,,,,AMNE11.jpg,AMNE01.jpg,AMSA20.jpg,AMSA15.jpg,AMNE01.jpg,MN,1,num_6,32,num_8,1.13343233508,,,2017_Dec_19_1125,60.0189039555,MAFE4ImagesEEG,001,202502,
AFNE01.JPG,AFNE01.JPG,AFNE01.JPG,AFNE01.JPG,AFNE01.JPG,AFNE01.JPG,,,,,,,,,1,6,16,6,,,,,,,,,,,,,,,AMNE15.jpg,AMSA08.jpg,AMNE05.jpg,AMSA18.jpg,AMNE05.jpg,MN,1,num_2,32,num_8,0.916767646313,,,2017_Dec_19_1125,60.0189039555,MAFE4ImagesEEG,001,202502,
AFNE01.JPG,AFNE01.JPG,AFNE01.JPG,AFNE01.JPG,AFNE01.JPG,AFNE01.JPG,,,,,,,,,1,7,17,7,,,,,,,,,,,,,,,AMSA14.jpg,AMSA09.jpg,AMNE15.jpg,AMNE05.jpg,AMNE15.jpg,MN,1,num_2,32,num_6,0.666770372603,,,2017_Dec_19_1125,60.0189039555,MAFE4ImagesEEG,001,202502,
AFNE01.JPG,AFNE01.JPG,AFNE01.JPG,AFNE01.JPG,AFNE01.JPG,AFNE01.JPG,,,,,,,,,1,8,18,9,,,,,,,,,,,,,,,AMNE04.jpg,AMSA08.jpg,AMSA07.jpg,AMNE07.jpg,AMNE07.jpg,MN,1,num_4,16,num_4,0.533513482306,,,2017_Dec_19_1125,60.0189039555,MAFE4ImagesEEG,001,202502,
AFNE01.JPG,AFNE01.JPG,AFNE01.JPG,AFNE01.JPG,AFNE01.JPG,AFNE01.JPG,,,,,,,,,1,9,19,1,,,,,,,,,,,,,,,AMNE11.jpg,AMSA16.jpg,AMSA18.jpg,AMNE10.jpg,AMNE11.jpg,MN,1,num_8,16,num_8,0.83362926945,,,2017_Dec_19_1125,60.0189039555,MAFE4ImagesEEG,001,202502,
AFNE01.JPG,AFNE01.JPG,AFNE01.JPG,AFNE01.JPG,AFNE01.JPG,AFNE01.JPG,,,,,,,,,2,0,20,3,,,,,,,,,,,,,,,AMNE12.jpg,AMSA12.jpg,AMNE09.jpg,AMSA04.jpg,AMNE12.jpg,MN,1,num_8,32,num_6,1.10010167458,,,2017_Dec_19_1125,60.0189039555,MAFE4ImagesEEG,001,202502,
AFNE01.JPG,AFNE01.JPG,AFNE01.JPG,AFNE01.JPG,AFNE01.JPG,AFNE01.JPG,,,,,,,,,2,1,21,4,,,,,,,,,,,,,,,AMNE12.jpg,AMNE08.jpg,AMSA04.jpg,AMSA09.jpg,AMSA04.jpg,MS,2,num_2,16,num_2,0.600138559685,,,2017_Dec_19_1125,60.0189039555,MAFE4ImagesEEG,001,202502,
AFNE01.JPG,AFNE01.JPG,AFNE01.JPG,AFNE01.JPG,AFNE01.JPG,AFNE01.JPG,,,,,,,,,2,2,22,1,,,,,,,,,,,,,,,AMSA02.jpg,AMNE11.jpg,AMSA20.jpg,AMNE01.jpg,AMNE11.jpg,MN,1,num_6,16,num_6,0.733440995064,,,2017_Dec_19_1125,60.0189039555,MAFE4ImagesEEG,001,202502,
AFNE01.JPG,AFNE01.JPG,AFNE01.JPG,AFNE01.JPG,AFNE01.JPG,AFNE01.JPG,,,,,,,,,2,3,23,5,,,,,,,,,,,,,,,AMSA19.jpg,AMSA04.jpg,AMNE01.jpg,AMNE15.jpg,AMNE01.jpg,MN,1,num_2,32,num_8,0.7333418864,,,2017_Dec_19_1125,60.0189039555,MAFE4ImagesEEG,001,202502,
AFNE01.JPG,AFNE01.JPG,AFNE01.JPG,AFNE01.JPG,AFNE01.JPG,AFNE01.JPG,,,,,,,,,2,4,24,6,,,,,,,,,,,,,,,AMSA16.jpg,AMSA17.jpg,AMNE09.jpg,AMNE08.jpg,AMNE08.jpg,MN,1,num_4,32,num_2,1.25007777945,,,2017_Dec_19_1125,60.0189039555,MAFE4ImagesEEG,001,202502,
AFNE01.JPG,AFNE01.JPG,AFNE01.JPG,AFNE01.JPG,AFNE01.JPG,AFNE01.JPG,,,,,,,,,2,5,25,9,,,,,,,,,,,,,,,AMNE19.jpg,AMNE06.jpg,AMSA14.jpg,AMSA08.jpg,AMSA14.jpg,MS,2,num_2,16,num_2,0.750147059295,,,2017_Dec_19_1125,60.0189039555,MAFE4ImagesEEG,001,202502,
AFNE01.JPG,AFNE01.JPG,AFNE01.JPG,AFNE01.JPG,AFNE01.JPG,AFNE01.JPG,,,,,,,,,2,6,26,8,,,,,,,,,,,,,,,AMNE15.jpg,AMNE05.jpg,AMSA17.jpg,AMSA20.jpg,AMNE15.jpg,MN,1,num_8,32,num_4,0.41667078283,,,2017_Dec_19_1125,60.0189039555,MAFE4ImagesEEG,001,202502,
AFNE01.JPG,AFNE01.JPG,AFNE01.JPG,AFNE01.JPG,AFNE01.JPG,AFNE01.JPG,,,,,,,,,2,7,27,0,,,,,,,,,,,,,,,AMNE05.jpg,AMSA02.jpg,AMSA04.jpg,AMNE01.jpg,AMNE05.jpg,MN,1,num_8,16,num_8,0.566860821287,,,2017_Dec_19_1125,60.0189039555,MAFE4ImagesEEG,001,202502,
AFNE01.JPG,AFNE01.JPG,AFNE01.JPG,AFNE01.JPG,AFNE01.JPG,AFNE01.JPG,,,,,,,,,2,8,28,7,,,,,,,,,,,,,,,AMNE19.jpg,AMNE13.jpg,AMSA03.jpg,AMSA17.jpg,AMNE19.jpg,MN,1,num_8,32,num_6,0.683504020477,,,2017_Dec_19_1125,60.0189039555,MAFE4ImagesEEG,001,202502,
AFNE01.JPG,AFNE01.JPG,AFNE01.JPG,AFNE01.JPG,AFNE01.JPG,AFNE01.JPG,,,,,,,,,2,9,29,2,,,,,,,,,,,,,,,AMSA17.jpg,AMNE07.jpg,AMSA12.jpg,AMNE16.jpg,AMNE07.jpg,MN,1,num_6,32,num_8,0.666779994805,,,2017_Dec_19_1125,60.0189039555,MAFE4ImagesEEG,001,202502,
AFNE01.JPG,AFNE01.JPG,AFNE01.JPG,AFNE01.JPG,AFNE01.JPG,AFNE01.JPG,,,,,,,,,3,0,30,6,,,,,,,,,,,,,,,AMSA11.jpg,AMSA20.jpg,AMNE02.jpg,AMNE13.jpg,AMNE13.jpg,MN,1,num_4,16,num_4,0.766752731903,,,2017_Dec_19_1125,60.0189039555,MAFE4ImagesEEG,001,202502,
AFNE01.JPG,AFNE01.JPG,AFNE01.JPG,AFNE01.JPG,AFNE01.JPG,AFNE01.JPG,,,,,,,,,3,1,31,1,,,,,,,,,,,,,,,AMSA20.jpg,AMNE13.jpg,AMSA16.jpg,AMNE16.jpg,AMSA16.jpg,MS,2,num_2,16,num_2,0.616774381854,,,2017_Dec_19_1125,60.0189039555,MAFE4ImagesEEG,001,202502,
AFNE01.JPG,AFNE01.JPG,AFNE01.JPG,AFNE01.JPG,AFNE01.JPG,AFNE01.JPG,,,,,,,,,3,2,32,7,,,,,,,,,,,,,,,AMNE05.jpg,AMSA18.jpg,AMSA08.jpg,AMNE16.jpg,AMSA18.jpg,MS,2,num_6,16,num_6,0.483507227877,,,2017_Dec_19_1125,60.0189039555,MAFE4ImagesEEG,001,202502,
AFNE01.JPG,AFNE01.JPG,AFNE01.JPG,AFNE01.JPG,AFNE01.JPG,AFNE01.JPG,,,,,,,,,3,3,33,9,,,,,,,,,,,,,,,AMNE05.jpg,AMSA16.jpg,AMNE07.jpg,AMSA01.jpg,AMSA01.jpg,MS,2,num_4,32,num_2,1.00010969308,,,2017_Dec_19_1125,60.0189039555,MAFE4ImagesEEG,001,202502,
AFNE01.JPG,AFNE01.JPG,AFNE01.JPG,AFNE01.JPG,AFNE01.JPG,AFNE01.JPG,,,,,,,,,3,4,34,2,,,,,,,,,,,,,,,AMNE02.jpg,AMNE20.jpg,AMSA05.jpg,AMSA15.jpg,AMSA05.jpg,MS,2,num_2,32,num_4,0.366809502885,,,2017_Dec_19_1125,60.0189039555,MAFE4ImagesEEG,001,202502,
AFNE01.JPG,AFNE01.JPG,AFNE01.JPG,AFNE01.JPG,AFNE01.JPG,AFNE01.JPG,,,,,,,,,3,5,35,4,,,,,,,,,,,,,,,AMNE19.jpg,AMSA05.jpg,AMNE08.jpg,AMSA01.jpg,AMSA01.jpg,MS,2,num_4,16,num_4,0.416789456634,,,2017_Dec_19_1125,60.0189039555,MAFE4ImagesEEG,001,202502,
AFNE01.JPG,AFNE01.JPG,AFNE01.JPG,AFNE01.JPG,AFNE01.JPG,AFNE01.JPG,,,,,,,,,3,6,36,5,,,,,,,,,,,,,,,AMSA10.jpg,AMNE18.jpg,AMSA03.jpg,AMNE12.jpg,AMNE12.jpg,MN,1,num_4,32,num_6,0.883429608793,,,2017_Dec_19_1125,60.0189039555,MAFE4ImagesEEG,001,202502,
AFNE01.JPG,AFNE01.JPG,AFNE01.JPG,AFNE01.JPG,AFNE01.JPG,AFNE01.JPG,,,,,,,,,3,7,37,8,,,,,,,,,,,,,,,AMNE12.jpg,AMSA07.jpg,AMSA05.jpg,AMNE01.jpg,AMSA05.jpg,MS,2,num_2,32,num_6,0.750110815674,,,2017_Dec_19_1125,60.0189039555,MAFE4ImagesEEG,001,202502,
AFNE01.JPG,AFNE01.JPG,AFNE01.JPG,AFNE01.JPG,AFNE01.JPG,AFNE01.JPG,,,,,,,,,3,8,38,0,,,,,,,,,,,,,,,AMNE13.jpg,AMSA03.jpg,AMSA07.jpg,AMNE01.jpg,AMSA03.jpg,MS,2,num_6,16,num_6,0.750123645274,,,2017_Dec_19_1125,60.0189039555,MAFE4ImagesEEG,001,202502,
AFNE01.JPG,AFNE01.JPG,AFNE01.JPG,AFNE01.JPG,AFNE01.JPG,AFNE01.JPG,,,,,,,,,3,9,39,3,,,,,,,,,,,,,,,AMNE18.jpg,AMSA01.jpg,AMSA14.jpg,AMNE20.jpg,AMNE20.jpg,MN,1,num_4,32,num_6,1.50006158208,,,2017_Dec_19_1125,60.0189039555,MAFE4ImagesEEG,001,202502,
AFNE01.JPG,AFNE01.JPG,AFNE01.JPG,AFNE01.JPG,AFNE01.JPG,AFNE01.JPG,,,,,,,,,4,0,40,4,,,,,,,,,,,,,,,AMNE04.jpg,AMNE19.jpg,AMSA17.jpg,AMSA18.jpg,AMNE19.jpg,MN,1,num_6,32,num_8,0.816781758874,,,2017_Dec_19_1125,60.0189039555,MAFE4ImagesEEG,001,202502,
AFNE01.JPG,AFNE01.JPG,AFNE01.JPG,AFNE01.JPG,AFNE01.JPG,AFNE01.JPG,,,,,,,,,4,1,41,2,,,,,,,,,,,,,,,AMSA16.jpg,AMNE11.jpg,AMNE04.jpg,AMSA05.jpg,AMNE04.jpg,MN,1,num_2,32,num_8,0.750123003794,,,2017_Dec_19_1125,60.0189039555,MAFE4ImagesEEG,001,202502,
AFNE01.JPG,AFNE01.JPG,AFNE01.JPG,AFNE01.JPG,AFNE01.JPG,AFNE01.JPG,,,,,,,,,4,2,42,9,,,,,,,,,,,,,,,AMSA01.jpg,AMSA08.jpg,AMNE01.jpg,AMNE12.jpg,AMSA08.jpg,MS,2,num_6,32,num_8,1.06677325926,,,2017_Dec_19_1125,60.0189039555,MAFE4ImagesEEG,001,202502,
AFNE01.JPG,AFNE01.JPG,AFNE01.JPG,AFNE01.JPG,AFNE01.JPG,AFNE01.JPG,,,,,,,,,4,3,43,0,,,,,,,,,,,,,,,AMSA02.jpg,AMNE06.jpg,AMNE17.jpg,AMSA04.jpg,AMSA04.jpg,MS,2,num_4,16,num_4,0.766615134438,,,2017_Dec_19_1125,60.0189039555,MAFE4ImagesEEG,001,202502,
AFNE01.JPG,AFNE01.JPG,AFNE01.JPG,AFNE01.JPG,AFNE01.JPG,AFNE01.JPG,,,,,,,,,4,4,44,1,,,,,,,,,,,,,,,AMNE05.jpg,AMSA05.jpg,AMNE15.jpg,AMSA02.jpg,AMNE15.jpg,MN,1,num_2,32,num_8,0.750152832615,,,2017_Dec_19_1125,60.0189039555,MAFE4ImagesEEG,001,202502,
AFNE01.JPG,AFNE01.JPG,AFNE01.JPG,AFNE01.JPG,AFNE01.JPG,AFNE01.JPG,,,,,,,,,4,5,45,6,,,,,,,,,,,,,,,AMSA18.jpg,AMSA20.jpg,AMNE02.jpg,AMNE17.jpg,AMNE02.jpg,MN,1,num_2,32,num_6,0.866864990907,,,2017_Dec_19_1125,60.0189039555,MAFE4ImagesEEG,001,202502,
AFNE01.JPG,AFNE01.JPG,AFNE01.JPG,AFNE01.JPG,AFNE01.JPG,AFNE01.JPG,,,,,,,,,4,6,46,8,,,,,,,,,,,,,,,AMNE11.jpg,AMNE05.jpg,AMSA20.jpg,AMSA14.jpg,AMSA14.jpg,MS,2,num_4,16,num_4,0.683454947254,,,2017_Dec_19_1125,60.0189039555,MAFE4ImagesEEG,001,202502,
AFNE01.JPG,AFNE01.JPG,AFNE01.JPG,AFNE01.JPG,AFNE01.JPG,AFNE01.JPG,,,,,,,,,4,7,47,7,,,,,,,,,,,,,,,AMSA08.jpg,AMNE04.jpg,AMSA07.jpg,AMNE20.jpg,AMNE04.jpg,MN,1,num_6,16,num_6,0.650112098634,,,2017_Dec_19_1125,60.0189039555,MAFE4ImagesEEG,001,202502,
AFNE01.JPG,AFNE01.JPG,AFNE01.JPG,AFNE01.JPG,AFNE01.JPG,AFNE01.JPG,,,,,,,,,4,8,48,5,,,,,,,,,,,,,,,AMSA10.jpg,AMNE06.jpg,AMSA13.jpg,AMNE14.jpg,AMSA13.jpg,MS,2,num_2,32,num_8,0.816753854493,,,2017_Dec_19_1125,60.0189039555,MAFE4ImagesEEG,001,202502,
AFNE01.JPG,AFNE01.JPG,AFNE01.JPG,AFNE01.JPG,AFNE01.JPG,AFNE01.JPG,,,,,,,,,4,9,49,3,,,,,,,,,,,,,,,AMSA20.jpg,AMNE11.jpg,AMSA17.jpg,AMNE01.jpg,AMNE01.jpg,MN,1,num_4,16,num_4,0.41666019841,,,2017_Dec_19_1125,60.0189039555,MAFE4ImagesEEG,001,202502,
AFNE01.JPG,AFNE01.JPG,AFNE01.JPG,AFNE01.JPG,AFNE01.JPG,AFNE01.JPG,,,,,,,,,5,0,50,8,,,,,,,,,,,,,,,AMSA13.jpg,AMNE15.jpg,AMNE20.jpg,AMSA04.jpg,AMSA13.jpg,MS,2,num_8,32,num_6,0.317104102586,,,2017_Dec_19_1125,60.0189039555,MAFE4ImagesEEG,001,202502,
AFNE01.JPG,AFNE01.JPG,AFNE01.JPG,AFNE01.JPG,AFNE01.JPG,AFNE01.JPG,,,,,,,,,5,1,51,2,,,,,,,,,,,,,,,AMNE15.jpg,AMSA19.jpg,AMNE10.jpg,AMSA10.jpg,AMSA19.jpg,MS,2,num_6,32,num_4,0.433465050564,,,2017_Dec_19_1125,60.0189039555,MAFE4ImagesEEG,001,202502,
AFNE01.JPG,AFNE01.JPG,AFNE01.JPG,AFNE01.JPG,AFNE01.JPG,AFNE01.JPG,,,,,,,,,5,2,52,6,,,,,,,,,,,,,,,AMSA07.jpg,AMSA17.jpg,AMNE10.jpg,AMNE20.jpg,AMSA17.jpg,MS,2,num_6,32,num_8,0.616810625474,,,2017_Dec_19_1125,60.0189039555,MAFE4ImagesEEG,001,202502,
AFNE01.JPG,AFNE01.JPG,AFNE01.JPG,AFNE01.JPG,AFNE01.JPG,AFNE01.JPG,,,,,,,,,5,3,53,9,,,,,,,,,,,,,,,AMNE16.jpg,AMSA17.jpg,AMNE06.jpg,AMSA14.jpg,AMNE06.jpg,MN,1,num_2,32,num_6,0.683445966534,,,2017_Dec_19_1125,60.0189039555,MAFE4ImagesEEG,001,202502,
AFNE01.JPG,AFNE01.JPG,AFNE01.JPG,AFNE01.JPG,AFNE01.JPG,AFNE01.JPG,,,,,,,,,5,4,54,7,,,,,,,,,,,,,,,AMSA09.jpg,AMNE05.jpg,AMSA05.jpg,AMNE09.jpg,AMNE05.jpg,MN,1,num_6,32,num_8,1.00009365608,,,2017_Dec_19_1125,60.0189039555,MAFE4ImagesEEG,001,202502,
AFNE01.JPG,AFNE01.JPG,AFNE01.JPG,AFNE01.JPG,AFNE01.JPG,AFNE01.JPG,,,,,,,,,5,5,55,0,,,,,,,,,,,,,,,AMNE08.jpg,AMSA20.jpg,AMNE11.jpg,AMSA08.jpg,AMNE11.jpg,MN,1,num_2,32,num_8,3.30022131061,,,2017_Dec_19_1125,60.0189039555,MAFE4ImagesEEG,001,202502,
AFNE01.JPG,AFNE01.JPG,AFNE01.JPG,AFNE01.JPG,AFNE01.JPG,AFNE01.JPG,,,,,,,,,5,6,56,3,,,,,,,,,,,,,,,AMSA18.jpg,AMNE15.jpg,AMNE01.jpg,AMSA20.jpg,AMSA20.jpg,MS,2,num_4,16,num_4,0.616801003274,,,2017_Dec_19_1125,60.0189039555,MAFE4ImagesEEG,001,202502,
AFNE01.JPG,AFNE01.JPG,AFNE01.JPG,AFNE01.JPG,AFNE01.JPG,AFNE01.JPG,,,,,,,,,5,7,57,1,,,,,,,,,,,,,,,AMSA05.jpg,AMNE02.jpg,AMNE17.jpg,AMSA01.jpg,AMSA01.jpg,MS,2,num_4,48,None,,,,2017_Dec_19_1125,60.0189039555,MAFE4ImagesEEG,001,202502,
AFNE01.JPG,AFNE01.JPG,AFNE01.JPG,AFNE01.JPG,AFNE01.JPG,AFNE01.JPG,,,,,,,,,5,8,58,4,,,,,,,,,,,,,,,AMNE03.jpg,AMNE08.jpg,AMSA07.jpg,AMSA12.jpg,AMNE08.jpg,MN,1,num_6,32,num_8,0.483504020476,,,2017_Dec_19_1125,60.0189039555,MAFE4ImagesEEG,001,202502,
AFNE01.JPG,AFNE01.JPG,AFNE01.JPG,AFNE01.JPG,AFNE01.JPG,AFNE01.JPG,,,,,,,,,5,9,59,5,,,,,,,,,,,,,,,AMSA15.jpg,AMNE18.jpg,AMSA20.jpg,AMNE05.jpg,AMSA20.jpg,MS,2,num_2,32,num_4,0.700146257445,,,2017_Dec_19_1125,60.0189039555,MAFE4ImagesEEG,001,202502,
,,,,,,,,,,,,,,,,,,,,,,,,,,,,,,,,,,,,,,,,,,,space,98.7259231699,2017_Dec_19_1125,60.0189039555,MAFE4ImagesEEG,001,202502,
AFNE01.JPG,AFNE01.JPG,AFNE01.JPG,AFNE01.JPG,AFNE01.JPG,AFNE01.JPG,,,,,,,,,,,,,0,0,0,3,,,,,,,,,,,AFNE12.jpg,AFSA12.jpg,AFNE04.jpg,AFSA16.jpg,AFSA16.jpg,FS,4,num_4,16,num_4,0.600111617524,,,2017_Dec_19_1125,60.0189039555,MAFE4ImagesEEG,001,202502,
AFNE01.JPG,AFNE01.JPG,AFNE01.JPG,AFNE01.JPG,AFNE01.JPG,AFNE01.JPG,,,,,,,,,,,,,0,1,1,4,,,,,,,,,,,AFSA07.jpg,AFNE08.jpg,AFSA11.jpg,AFNE02.jpg,AFNE08.jpg,FN,3,num_6,16,num_6,0.566779674064,,,2017_Dec_19_1125,60.0189039555,MAFE4ImagesEEG,001,202502,
AFNE01.JPG,AFNE01.JPG,AFNE01.JPG,AFNE01.JPG,AFNE01.JPG,AFNE01.JPG,,,,,,,,,,,,,0,2,2,8,,,,,,,,,,,AFNE06.jpg,AFNE08.jpg,AFSA14.jpg,AFSA13.jpg,AFNE06.jpg,FN,3,num_8,16,num_8,0.550233979838,,,2017_Dec_19_1125,60.0189039555,MAFE4ImagesEEG,001,202502,
AFNE01.JPG,AFNE01.JPG,AFNE01.JPG,AFNE01.JPG,AFNE01.JPG,AFNE01.JPG,,,,,,,,,,,,,0,3,3,0,,,,,,,,,,,AFNE08.jpg,AFNE19.jpg,AFSA19.jpg,AFSA17.jpg,AFSA19.jpg,FS,4,num_2,32,num_4,0.533211024475,,,2017_Dec_19_1125,60.0189039555,MAFE4ImagesEEG,001,202502,
AFNE01.JPG,AFNE01.JPG,AFNE01.JPG,AFNE01.JPG,AFNE01.JPG,AFNE01.JPG,,,,,,,,,,,,,0,4,4,5,,,,,,,,,,,AFSA04.jpg,AFNE16.jpg,AFNE07.jpg,AFSA01.jpg,AFSA04.jpg,FS,4,num_8,32,num_6,0.616828266176,,,2017_Dec_19_1125,60.0189039555,MAFE4ImagesEEG,001,202502,
AFNE01.JPG,AFNE01.JPG,AFNE01.JPG,AFNE01.JPG,AFNE01.JPG,AFNE01.JPG,,,,,,,,,,,,,0,5,5,9,,,,,,,,,,,AFSA20.jpg,AFSA15.jpg,AFNE10.jpg,AFNE11.jpg,AFSA15.jpg,FS,4,num_6,32,num_8,0.600152992985,,,2017_Dec_19_1125,60.0189039555,MAFE4ImagesEEG,001,202502,
AFNE01.JPG,AFNE01.JPG,AFNE01.JPG,AFNE01.JPG,AFNE01.JPG,AFNE01.JPG,,,,,,,,,,,,,0,6,6,6,,,,,,,,,,,AFSA11.jpg,AFSA20.jpg,AFNE14.jpg,AFNE02.jpg,AFNE02.jpg,FN,3,num_4,16,num_4,0.833643061271,,,2017_Dec_19_1125,60.0189039555,MAFE4ImagesEEG,001,202502,
AFNE01.JPG,AFNE01.JPG,AFNE01.JPG,AFNE01.JPG,AFNE01.JPG,AFNE01.JPG,,,,,,,,,,,,,0,7,7,2,,,,,,,,,,,AFNE20.jpg,AFSA01.jpg,AFNE17.jpg,AFSA14.jpg,AFNE20.jpg,FN,3,num_8,32,num_2,0.733462163905,,,2017_Dec_19_1125,60.0189039555,MAFE4ImagesEEG,001,202502,
AFNE01.JPG,AFNE01.JPG,AFNE01.JPG,AFNE01.JPG,AFNE01.JPG,AFNE01.JPG,,,,,,,,,,,,,0,8,8,1,,,,,,,,,,,AFNE11.jpg,AFSA16.jpg,AFNE06.jpg,AFSA05.jpg,AFSA16.jpg,FS,4,num_6,32,num_8,1.25010504235,,,2017_Dec_19_1125,60.0189039555,MAFE4ImagesEEG,001,202502,
AFNE01.JPG,AFNE01.JPG,AFNE01.JPG,AFNE01.JPG,AFNE01.JPG,AFNE01.JPG,,,,,,,,,,,,,0,9,9,7,,,,,,,,,,,AFNE16.jpg,AFSA13.jpg,AFSA06.jpg,AFNE10.jpg,AFSA06.jpg,FS,4,num_2,32,num_6,0.366777428883,,,2017_Dec_19_1125,60.0189039555,MAFE4ImagesEEG,001,202502,
AFNE01.JPG,AFNE01.JPG,AFNE01.JPG,AFNE01.JPG,AFNE01.JPG,AFNE01.JPG,,,,,,,,,,,,,1,0,10,2,,,,,,,,,,,AFSA04.jpg,AFNE12.jpg,AFNE04.jpg,AFSA12.jpg,AFNE12.jpg,FN,3,num_6,32,num_2,0.250163096296,,,2017_Dec_19_1125,60.0189039555,MAFE4ImagesEEG,001,202502,
AFNE01.JPG,AFNE01.JPG,AFNE01.JPG,AFNE01.JPG,AFNE01.JPG,AFNE01.JPG,,,,,,,,,,,,,1,1,11,3,,,,,,,,,,,AFSA19.jpg,AFNE15.jpg,AFNE13.jpg,AFSA16.jpg,AFNE13.jpg,FN,3,num_2,32,num_6,0.750142889675,,,2017_Dec_19_1125,60.0189039555,MAFE4ImagesEEG,001,202502,
AFNE01.JPG,AFNE01.JPG,AFNE01.JPG,AFNE01.JPG,AFNE01.JPG,AFNE01.JPG,,,,,,,,,,,,,1,2,12,6,,,,,,,,,,,AFSA02.jpg,AFNE11.jpg,AFNE05.jpg,AFSA17.jpg,AFSA17.jpg,FS,4,num_4,32,num_8,0.583493756796,,,2017_Dec_19_1125,60.0189039555,MAFE4ImagesEEG,001,202502,
AFNE01.JPG,AFNE01.JPG,AFNE01.JPG,AFNE01.JPG,AFNE01.JPG,AFNE01.JPG,,,,,,,,,,,,,1,3,13,9,,,,,,,,,,,AFSA01.jpg,AFNE02.jpg,AFSA15.jpg,AFNE06.jpg,AFSA15.jpg,FS,4,num_2,32,num_6,0.816779192954,,,2017_Dec_19_1125,60.0189039555,MAFE4ImagesEEG,001,202502,
AFNE01.JPG,AFNE01.JPG,AFNE01.JPG,AFNE01.JPG,AFNE01.JPG,AFNE01.JPG,,,,,,,,,,,,,1,4,14,7,,,,,,,,,,,AFNE13.jpg,AFNE11.jpg,AFSA06.jpg,AFSA01.jpg,AFSA06.jpg,FS,4,num_2,32,num_4,0.666784805904,,,2017_Dec_19_1125,60.0189039555,MAFE4ImagesEEG,001,202502,
AFNE01.JPG,AFNE01.JPG,AFNE01.JPG,AFNE01.JPG,AFNE01.JPG,AFNE01.JPG,,,,,,,,,,,,,1,5,15,5,,,,,,,,,,,AFNE05.jpg,AFSA02.jpg,AFSA09.jpg,AFNE08.jpg,AFNE05.jpg,FN,3,num_8,32,num_2,0.666810465104,,,2017_Dec_19_1125,60.0189039555,MAFE4ImagesEEG,001,202502,
AFNE01.JPG,AFNE01.JPG,AFNE01.JPG,AFNE01.JPG,AFNE01.JPG,AFNE01.JPG,,,,,,,,,,,,,1,6,16,4,,,,,,,,,,,AFSA18.jpg,AFNE01.jpg,AFNE20.jpg,AFSA19.jpg,AFNE20.jpg,FN,3,num_2,32,num_6,0.550205754717,,,2017_Dec_19_1125,60.0189039555,MAFE4ImagesEEG,001,202502,
AFNE01.JPG,AFNE01.JPG,AFNE01.JPG,AFNE01.JPG,AFNE01.JPG,AFNE01.JPG,,,,,,,,,,,,,1,7,17,8,,,,,,,,,,,AFSA20.jpg,AFNE02.jpg,AFNE16.jpg,AFSA02.jpg,AFNE16.jpg,FN,3,num_2,16,num_2,1.21672851603,,,2017_Dec_19_1125,60.0189039555,MAFE4ImagesEEG,001,202502,
AFNE01.JPG,AFNE01.JPG,AFNE01.JPG,AFNE01.JPG,AFNE01.JPG,AFNE01.JPG,,,,,,,,,,,,,1,8,18,1,,,,,,,,,,,AFSA09.jpg,AFNE14.jpg,AFSA07.jpg,AFNE11.jpg,AFNE14.jpg,FN,3,num_6,16,num_6,0.733462484644,,,2017_Dec_19_1125,60.0189039555,MAFE4ImagesEEG,001,202502,
AFNE01.JPG,AFNE01.JPG,AFNE01.JPG,AFNE01.JPG,AFNE01.JPG,AFNE01.JPG,,,,,,,,,,,,,1,9,19,0,,,,,,,,,,,AFSA03.jpg,AFSA18.jpg,AFNE04.jpg,AFNE10.jpg,AFSA18.jpg,FS,4,num_6,16,num_6,0.500153955206,,,2017_Dec_19_1125,60.0189039555,MAFE4ImagesEEG,001,202502,
AFNE01.JPG,AFNE01.JPG,AFNE01.JPG,AFNE01.JPG,AFNE01.JPG,AFNE01.JPG,,,,,,,,,,,,,2,0,20,5,,,,,,,,,,,AFNE03.jpg,AFNE15.jpg,AFSA10.jpg,AFSA03.jpg,AFSA03.jpg,FS,4,num_4,16,num_4,0.633519255627,,,2017_Dec_19_1125,60.0189039555,MAFE4ImagesEEG,001,202502,
AFNE01.JPG,AFNE01.JPG,AFNE01.JPG,AFNE01.JPG,AFNE01.JPG,AFNE01.JPG,,,,,,,,,,,,,2,1,21,7,,,,,,,,,,,AFSA07.jpg,AFNE08.jpg,AFSA01.jpg,AFNE05.jpg,AFSA07.jpg,FS,4,num_8,16,num_8,0.600177048486,,,2017_Dec_19_1125,60.0189039555,MAFE4ImagesEEG,001,202502,
AFNE01.JPG,AFNE01.JPG,AFNE01.JPG,AFNE01.JPG,AFNE01.JPG,AFNE01.JPG,,,,,,,,,,,,,2,2,22,0,,,,,,,,,,,AFNE10.jpg,AFNE09.jpg,AFSA02.jpg,AFSA01.jpg,AFSA01.jpg,FS,4,num_4,32,num_2,0.850156360756,,,2017_Dec_19_1125,60.0189039555,MAFE4ImagesEEG,001,202502,
AFNE01.JPG,AFNE01.JPG,AFNE01.JPG,AFNE01.JPG,AFNE01.JPG,AFNE01.JPG,,,,,,,,,,,,,2,3,23,8,,,,,,,,,,,AFSA15.jpg,AFNE13.jpg,AFSA12.jpg,AFNE10.jpg,AFNE13.jpg,FN,3,num_6,32,num_4,1.41671793161,,,2017_Dec_19_1125,60.0189039555,MAFE4ImagesEEG,001,202502,
AFNE01.JPG,AFNE01.JPG,AFNE01.JPG,AFNE01.JPG,AFNE01.JPG,AFNE01.JPG,,,,,,,,,,,,,2,4,24,2,,,,,,,,,,,AFSA11.jpg,AFSA17.jpg,AFNE20.jpg,AFNE16.jpg,AFSA17.jpg,FS,4,num_6,32,num_8,0.633459918724,,,2017_Dec_19_1125,60.0189039555,MAFE4ImagesEEG,001,202502,
AFNE01.JPG,AFNE01.JPG,AFNE01.JPG,AFNE01.JPG,AFNE01.JPG,AFNE01.JPG,,,,,,,,,,,,,2,5,25,3,,,,,,,,,,,AFNE14.jpg,AFSA18.jpg,AFSA19.jpg,AFNE19.jpg,AFNE14.jpg,FN,3,num_8,32,num_2,1.03345542836,,,2017_Dec_19_1125,60.0189039555,MAFE4ImagesEEG,001,202502,
AFNE01.JPG,AFNE01.JPG,AFNE01.JPG,AFNE01.JPG,AFNE01.JPG,AFNE01.JPG,,,,,,,,,,,,,2,6,26,1,,,,,,,,,,,AFSA09.jpg,AFNE04.jpg,AFSA08.jpg,AFNE18.jpg,AFSA09.jpg,FS,4,num_8,16,num_8,0.633491351246,,,2017_Dec_19_1125,60.0189039555,MAFE4ImagesEEG,001,202502,
AFNE01.JPG,AFNE01.JPG,AFNE01.JPG,AFNE01.JPG,AFNE01.JPG,AFNE01.JPG,,,,,,,,,,,,,2,7,27,9,,,,,,,,,,,AFNE17.jpg,AFSA03.jpg,AFNE13.jpg,AFSA20.jpg,AFSA03.jpg,FS,4,num_6,16,num_6,0.816763476693,,,2017_Dec_19_1125,60.0189039555,MAFE4ImagesEEG,001,202502,
AFNE01.JPG,AFNE01.JPG,AFNE01.JPG,AFNE01.JPG,AFNE01.JPG,AFNE01.JPG,,,,,,,,,,,,,2,8,28,4,,,,,,,,,,,AFSA03.jpg,AFNE18.jpg,AFNE13.jpg,AFSA06.jpg,AFNE13.jpg,FN,3,num_2,16,num_2,1.18342351473,,,2017_Dec_19_1125,60.0189039555,MAFE4ImagesEEG,001,202502,
AFNE01.JPG,AFNE01.JPG,AFNE01.JPG,AFNE01.JPG,AFNE01.JPG,AFNE01.JPG,,,,,,,,,,,,,2,9,29,6,,,,,,,,,,,AFSA06.jpg,AFNE03.jpg,AFNE01.jpg,AFSA10.jpg,AFSA06.jpg,FS,4,num_8,16,num_8,0.816865151277,,,2017_Dec_19_1125,60.0189039555,MAFE4ImagesEEG,001,202502,
AFNE01.JPG,AFNE01.JPG,AFNE01.JPG,AFNE01.JPG,AFNE01.JPG,AFNE01.JPG,,,,,,,,,,,,,3,0,30,4,,,,,,,,,,,AFNE06.jpg,AFNE11.jpg,AFSA18.jpg,AFSA15.jpg,AFSA18.jpg,FS,4,num_2,16,num_2,0.550122362315,,,2017_Dec_19_1125,60.0189039555,MAFE4ImagesEEG,001,202502,
AFNE01.JPG,AFNE01.JPG,AFNE01.JPG,AFNE01.JPG,AFNE01.JPG,AFNE01.JPG,,,,,,,,,,,,,3,1,31,8,,,,,,,,,,,AFNE06.jpg,AFSA02.jpg,AFNE10.jpg,AFSA07.jpg,AFSA07.jpg,FS,4,num_4,32,num_6,1.45005500691,,,2017_Dec_19_1125,60.0189039555,MAFE4ImagesEEG,001,202502,
AFNE01.JPG,AFNE01.JPG,AFNE01.JPG,AFNE01.JPG,AFNE01.JPG,AFNE01.JPG,,,,,,,,,,,,,3,2,32,3,,,,,,,,,,,AFSA14.jpg,AFNE18.jpg,AFNE17.jpg,AFSA09.jpg,AFSA09.jpg,FS,4,num_4,32,num_2,0.33334477306,,,2017_Dec_19_1125,60.0189039555,MAFE4ImagesEEG,001,202502,
AFNE01.JPG,AFNE01.JPG,AFNE01.JPG,AFNE01.JPG,AFNE01.JPG,AFNE01.JPG,,,,,,,,,,,,,3,3,33,6,,,,,,,,,,,AFNE02.jpg,AFSA01.jpg,AFSA18.jpg,AFNE09.jpg,AFNE02.jpg,FN,3,num_8,16,num_8,0.733429769163,,,2017_Dec_19_1125,60.0189039555,MAFE4ImagesEEG,001,202502,
AFNE01.JPG,AFNE01.JPG,AFNE01.JPG,AFNE01.JPG,AFNE01.JPG,AFNE01.JPG,,,,,,,,,,,,,3,4,34,0,,,,,,,,,,,AFSA18.jpg,AFNE08.jpg,AFSA17.jpg,AFNE06.jpg,AFNE06.jpg,FN,3,num_4,32,num_6,0.916782400353,,,2017_Dec_19_1125,60.0189039555,MAFE4ImagesEEG,001,202502,
AFNE01.JPG,AFNE01.JPG,AFNE01.JPG,AFNE01.JPG,AFNE01.JPG,AFNE01.JPG,,,,,,,,,,,,,3,5,35,2,,,,,,,,,,,AFSA04.jpg,AFNE04.jpg,AFNE01.jpg,AFSA05.jpg,AFNE01.jpg,FN,3,num_2,32,num_6,0.466802446605,,,2017_Dec_19_1125,60.0189039555,MAFE4ImagesEEG,001,202502,
AFNE01.JPG,AFNE01.JPG,AFNE01.JPG,AFNE01.JPG,AFNE01.JPG,AFNE01.JPG,,,,,,,,,,,,,3,6,36,1,,,,,,,,,,,AFSA17.jpg,AFNE04.jpg,AFNE07.jpg,AFSA18.jpg,AFSA17.jpg,FS,4,num_8,16,num_8,0.583487341995,,,2017_Dec_19_1125,60.0189039555,MAFE4ImagesEEG,001,202502,
AFNE01.JPG,AFNE01.JPG,AFNE01.JPG,AFNE01.JPG,AFNE01.JPG,AFNE01.JPG,,,,,,,,,,,,,3,7,37,7,,,,,,,,,,,AFNE19.jpg,AFSA19.jpg,AFNE17.jpg,AFSA18.jpg,AFSA19.jpg,FS,4,num_6,32,num_4,0.516767646313,,,2017_Dec_19_1125,60.0189039555,MAFE4ImagesEEG,001,202502,
AFNE01.JPG,AFNE01.JPG,AFNE01.JPG,AFNE01.JPG,AFNE01.JPG,AFNE01.JPG,,,,,,,,,,,,,3,8,38,9,,,,,,,,,,,AFNE13.jpg,AFSA08.jpg,AFSA15.jpg,AFNE03.jpg,AFNE13.jpg,FN,3,num_8,32,num_6,0.417115649226,,,2017_Dec_19_1125,60.0189039555,MAFE4ImagesEEG,001,202502,
AFNE01.JPG,AFNE01.JPG,AFNE01.JPG,AFNE01.JPG,AFNE01.JPG,AFNE01.JPG,,,,,,,,,,,,,3,9,39,5,,,,,,,,,,,AFSA15.jpg,AFNE05.jpg,AFSA17.jpg,AFNE08.jpg,AFSA17.jpg,FS,4,num_2,16,num_2,0.550156681496,,,2017_Dec_19_1125,60.0189039555,MAFE4ImagesEEG,001,202502,
AFNE01.JPG,AFNE01.JPG,AFNE01.JPG,AFNE01.JPG,AFNE01.JPG,AFNE01.JPG,,,,,,,,,,,,,4,0,40,9,,,,,,,,,,,AFSA11.jpg,AFSA07.jpg,AFNE14.jpg,AFNE04.jpg,AFNE04.jpg,FN,3,num_4,32,num_8,0.516846548356,,,2017_Dec_19_1125,60.0189039555,MAFE4ImagesEEG,001,202502,
AFNE01.JPG,AFNE01.JPG,AFNE01.JPG,AFNE01.JPG,AFNE01.JPG,AFNE01.JPG,,,,,,,,,,,,,4,1,41,2,,,,,,,,,,,AFSA03.jpg,AFNE16.jpg,AFNE18.jpg,AFSA10.jpg,AFSA10.jpg,FS,4,num_4,32,num_6,0.783492794576,,,2017_Dec_19_1125,60.0189039555,MAFE4ImagesEEG,001,202502,
AFNE01.JPG,AFNE01.JPG,AFNE01.JPG,AFNE01.JPG,AFNE01.JPG,AFNE01.JPG,,,,,,,,,,,,,4,2,42,3,,,,,,,,,,,AFNE10.jpg,AFSA09.jpg,AFNE05.jpg,AFSA19.jpg,AFSA09.jpg,FS,4,num_6,16,num_6,0.566794428105,,,2017_Dec_19_1125,60.0189039555,MAFE4ImagesEEG,001,202502,
AFNE01.JPG,AFNE01.JPG,AFNE01.JPG,AFNE01.JPG,AFNE01.JPG,AFNE01.JPG,,,,,,,,,,,,,4,3,43,1,,,,,,,,,,,AFSA13.jpg,AFNE16.jpg,AFSA19.jpg,AFNE19.jpg,AFSA19.jpg,FS,4,num_2,16,num_2,0.783509152317,,,2017_Dec_19_1125,60.0189039555,MAFE4ImagesEEG,001,202502,
AFNE01.JPG,AFNE01.JPG,AFNE01.JPG,AFNE01.JPG,AFNE01.JPG,AFNE01.JPG,,,,,,,,,,,,,4,4,44,7,,,,,,,,,,,AFNE05.jpg,AFSA15.jpg,AFNE18.jpg,AFSA10.jpg,AFSA10.jpg,FS,4,num_4,16,num_4,0.583447890974,,,2017_Dec_19_1125,60.0189039555,MAFE4ImagesEEG,001,202502,
AFNE01.JPG,AFNE01.JPG,AFNE01.JPG,AFNE01.JPG,AFNE01.JPG,AFNE01.JPG,,,,,,,,,,,,,4,5,45,5,,,,,,,,,,,AFNE05.jpg,AFSA03.jpg,AFNE08.jpg,AFSA02.jpg,AFSA03.jpg,FS,4,num_6,16,num_6,0.483500813076,,,2017_Dec_19_1125,60.0189039555,MAFE4ImagesEEG,001,202502,
AFNE01.JPG,AFNE01.JPG,AFNE01.JPG,AFNE01.JPG,AFNE01.JPG,AFNE01.JPG,,,,,,,,,,,,,4,6,46,4,,,,,,,,,,,AFNE10.jpg,AFSA07.jpg,AFSA09.jpg,AFNE20.jpg,AFSA07.jpg,FS,4,num_6,16,num_6,0.583457833915,,,2017_Dec_19_1125,60.0189039555,MAFE4ImagesEEG,001,202502,
AFNE01.JPG,AFNE01.JPG,AFNE01.JPG,AFNE01.JPG,AFNE01.JPG,AFNE01.JPG,,,,,,,,,,,,,4,7,47,8,,,,,,,,,,,AFNE04.jpg,AFSA16.jpg,AFSA08.jpg,AFNE10.jpg,AFSA08.jpg,FS,4,num_2,32,num_4,0.650157643716,,,2017_Dec_19_1125,60.0189039555,MAFE4ImagesEEG,001,202502,
AFNE01.JPG,AFNE01.JPG,AFNE01.JPG,AFNE01.JPG,AFNE01.JPG,AFNE01.JPG,,,,,,,,,,,,,4,8,48,6,,,,,,,,,,,AFSA17.jpg,AFNE17.jpg,AFNE11.jpg,AFSA14.jpg,AFNE11.jpg,FN,3,num_2,32,num_4,0.850158285196,,,2017_Dec_19_1125,60.0189039555,MAFE4ImagesEEG,001,202502,
AFNE01.JPG,AFNE01.JPG,AFNE01.JPG,AFNE01.JPG,AFNE01.JPG,AFNE01.JPG,,,,,,,,,,,,,4,9,49,0,,,,,,,,,,,AFNE07.jpg,AFSA10.jpg,AFNE16.jpg,AFSA18.jpg,AFNE16.jpg,FN,3,num_2,32,num_8,0.733424316583,,,2017_Dec_19_1125,60.0189039555,MAFE4ImagesEEG,001,202502,
AFNE01.JPG,AFNE01.JPG,AFNE01.JPG,AFNE01.JPG,AFNE01.JPG,AFNE01.JPG,,,,,,,,,,,,,5,0,50,0,,,,,,,,,,,AFNE10.jpg,AFSA07.jpg,AFSA10.jpg,AFNE20.jpg,AFNE10.jpg,FN,3,num_8,32,num_2,1.00016004927,,,2017_Dec_19_1125,60.0189039555,MAFE4ImagesEEG,001,202502,
AFNE01.JPG,AFNE01.JPG,AFNE01.JPG,AFNE01.JPG,AFNE01.JPG,AFNE01.JPG,,,,,,,,,,,,,5,1,51,7,,,,,,,,,,,AFSA07.jpg,AFNE17.jpg,AFNE10.jpg,AFSA05.jpg,AFNE17.jpg,FN,3,num_6,16,num_6,0.466812710285,,,2017_Dec_19_1125,60.0189039555,MAFE4ImagesEEG,001,202502,
AFNE01.JPG,AFNE01.JPG,AFNE01.JPG,AFNE01.JPG,AFNE01.JPG,AFNE01.JPG,,,,,,,,,,,,,5,2,52,8,,,,,,,,,,,AFNE18.jpg,AFSA05.jpg,AFSA17.jpg,AFNE02.jpg,AFSA05.jpg,FS,4,num_6,16,num_6,0.466870764228,,,2017_Dec_19_1125,60.0189039555,MAFE4ImagesEEG,001,202502,
AFNE01.JPG,AFNE01.JPG,AFNE01.JPG,AFNE01.JPG,AFNE01.JPG,AFNE01.JPG,,,,,,,,,,,,,5,3,53,1,,,,,,,,,,,AFNE19.jpg,AFSA15.jpg,AFNE16.jpg,AFSA01.jpg,AFNE19.jpg,FN,3,num_8,32,num_4,0.450119796394,,,2017_Dec_19_1125,60.0189039555,MAFE4ImagesEEG,001,202502,
AFNE01.JPG,AFNE01.JPG,AFNE01.JPG,AFNE01.JPG,AFNE01.JPG,AFNE01.JPG,,,,,,,,,,,,,5,4,54,5,,,,,,,,,,,AFNE04.jpg,AFSA10.jpg,AFSA19.jpg,AFNE07.jpg,AFNE04.jpg,FN,3,num_8,16,num_8,0.700111617524,,,2017_Dec_19_1125,60.0189039555,MAFE4ImagesEEG,001,202502,
AFNE01.JPG,AFNE01.JPG,AFNE01.JPG,AFNE01.JPG,AFNE01.JPG,AFNE01.JPG,,,,,,,,,,,,,5,5,55,3,,,,,,,,,,,AFSA06.jpg,AFNE16.jpg,AFNE18.jpg,AFSA07.jpg,AFSA07.jpg,FS,4,num_4,32,num_8,0.566793145144,,,2017_Dec_19_1125,60.0189039555,MAFE4ImagesEEG,001,202502,
AFNE01.JPG,AFNE01.JPG,AFNE01.JPG,AFNE01.JPG,AFNE01.JPG,AFNE01.JPG,,,,,,,,,,,,,5,6,56,4,,,,,,,,,,,AFSA18.jpg,AFSA07.jpg,AFNE03.jpg,AFNE07.jpg,AFNE07.jpg,FN,3,num_4,32,num_2,0.616606314088,,,2017_Dec_19_1125,60.0189039555,MAFE4ImagesEEG,001,202502,
AFNE01.JPG,AFNE01.JPG,AFNE01.JPG,AFNE01.JPG,AFNE01.JPG,AFNE01.JPG,,,,,,,,,,,,,5,7,57,2,,,,,,,,,,,AFSA01.jpg,AFNE07.jpg,AFNE01.jpg,AFSA05.jpg,AFSA01.jpg,FS,4,num_8,32,num_4,1.20010391976,,,2017_Dec_19_1125,60.0189039555,MAFE4ImagesEEG,001,202502,
AFNE01.JPG,AFNE01.JPG,AFNE01.JPG,AFNE01.JPG,AFNE01.JPG,AFNE01.JPG,,,,,,,,,,,,,5,8,58,6,,,,,,,,,,,AFSA03.jpg,AFNE12.jpg,AFSA09.jpg,AFNE02.jpg,AFSA09.jpg,FS,4,num_2,16,num_2,0.633527274127,,,2017_Dec_19_1125,60.0189039555,MAFE4ImagesEEG,001,202502,
AFNE01.JPG,AFNE01.JPG,AFNE01.JPG,AFNE01.JPG,AFNE01.JPG,AFNE01.JPG,,,,,,,,,,,,,5,9,59,9,,,,,,,,,,,AFNE03.jpg,AFSA06.jpg,AFSA11.jpg,AFNE10.jpg,AFNE10.jpg,FN,3,num_4,32,num_8,0.633501614926,,,2017_Dec_19_1125,60.0189039555,MAFE4ImagesEEG,001,202502,
,,,,,,,,,,,,,,,,,,,,,,,,,,,,,,,,,,,,,,,,,,,space,3.28323074999,2017_Dec_19_1125,60.0189039555,MAFE4ImagesEEG,001,202502,
AFNE01.JPG,AFNE01.JPG,AFNE01.JPG,AFNE01.JPG,AFNE01.JPG,AFNE01.JPG,,,,,,,,,,,,,,,,,0,0,0,5,,,,,,,AMNE15.jpg,AMSA11.jpg,AMNE06.jpg,AMSA17.jpg,AMNE15.jpg,MN,1,num_8,16,num_8,0.566762033363,,,2017_Dec_19_1125,60.0189039555,MAFE4ImagesEEG,001,202502,
AFNE01.JPG,AFNE01.JPG,AFNE01.JPG,AFNE01.JPG,AFNE01.JPG,AFNE01.JPG,,,,,,,,,,,,,,,,,0,1,1,3,,,,,,,AMNE05.jpg,AMNE03.jpg,AMSA14.jpg,AMSA03.jpg,AMNE03.jpg,MN,1,num_6,32,num_4,0.700153955206,,,2017_Dec_19_1125,60.0189039555,MAFE4ImagesEEG,001,202502,
AFNE01.JPG,AFNE01.JPG,AFNE01.JPG,AFNE01.JPG,AFNE01.JPG,AFNE01.JPG,,,,,,,,,,,,,,,,,0,2,2,2,,,,,,,AMSA17.jpg,AMNE02.jpg,AMNE13.jpg,AMSA18.jpg,AMSA18.jpg,MS,2,num_4,16,num_4,0.516835963936,,,2017_Dec_19_1125,60.0189039555,MAFE4ImagesEEG,001,202502,
AFNE01.JPG,AFNE01.JPG,AFNE01.JPG,AFNE01.JPG,AFNE01.JPG,AFNE01.JPG,,,,,,,,,,,,,,,,,0,3,3,1,,,,,,,AMNE01.jpg,AMSA03.jpg,AMNE02.jpg,AMSA04.jpg,AMNE02.jpg,MN,1,num_2,32,num_8,0.466803088085,,,2017_Dec_19_1125,60.0189039555,MAFE4ImagesEEG,001,202502,
AFNE01.JPG,AFNE01.JPG,AFNE01.JPG,AFNE01.JPG,AFNE01.JPG,AFNE01.JPG,,,,,,,,,,,,,,,,,0,4,4,9,,,,,,,AMNE06.jpg,AMNE14.jpg,AMSA17.jpg,AMSA10.jpg,AMNE14.jpg,MN,1,num_6,16,num_6,0.733473389805,,,2017_Dec_19_1125,60.0189039555,MAFE4ImagesEEG,001,202502,
AFNE01.JPG,AFNE01.JPG,AFNE01.JPG,AFNE01.JPG,AFNE01.JPG,AFNE01.JPG,,,,,,,,,,,,,,,,,0,5,5,0,,,,,,,AMNE12.jpg,AMSA12.jpg,AMNE08.jpg,AMSA04.jpg,AMNE08.jpg,MN,1,num_2,16,num_2,0.433475634985,,,2017_Dec_19_1125,60.0189039555,MAFE4ImagesEEG,001,202502,
AFNE01.JPG,AFNE01.JPG,AFNE01.JPG,AFNE01.JPG,AFNE01.JPG,AFNE01.JPG,,,,,,,,,,,,,,,,,0,6,6,8,,,,,,,AMSA09.jpg,AMSA06.jpg,AMNE15.jpg,AMNE16.jpg,AMNE15.jpg,MN,1,num_2,32,num_4,0.700176086267,,,2017_Dec_19_1125,60.0189039555,MAFE4ImagesEEG,001,202502,
AFNE01.JPG,AFNE01.JPG,AFNE01.JPG,AFNE01.JPG,AFNE01.JPG,AFNE01.JPG,,,,,,,,,,,,,,,,,0,7,7,6,,,,,,,AMSA15.jpg,AMSA02.jpg,AMNE11.jpg,AMNE17.jpg,AMSA15.jpg,MS,2,num_8,16,num_8,0.383473870915,,,2017_Dec_19_1125,60.0189039555,MAFE4ImagesEEG,001,202502,
AFNE01.JPG,AFNE01.JPG,AFNE01.JPG,AFNE01.JPG,AFNE01.JPG,AFNE01.JPG,,,,,,,,,,,,,,,,,0,8,8,4,,,,,,,AMSA04.jpg,AMNE12.jpg,AMSA19.jpg,AMNE03.jpg,AMSA19.jpg,MS,2,num_2,16,num_2,0.516793626255,,,2017_Dec_19_1125,60.0189039555,MAFE4ImagesEEG,001,202502,
AFNE01.JPG,AFNE01.JPG,AFNE01.JPG,AFNE01.JPG,AFNE01.JPG,AFNE01.JPG,,,,,,,,,,,,,,,,,0,9,9,7,,,,,,,AMSA20.jpg,AMNE04.jpg,AMSA06.jpg,AMNE18.jpg,AMSA06.jpg,MS,2,num_2,32,num_4,1.01680196549,,,2017_Dec_19_1125,60.0189039555,MAFE4ImagesEEG,001,202502,
AFNE01.JPG,AFNE01.JPG,AFNE01.JPG,AFNE01.JPG,AFNE01.JPG,AFNE01.JPG,,,,,,,,,,,,,,,,,1,0,10,1,,,,,,,AMSA05.jpg,AMNE16.jpg,AMSA12.jpg,AMNE10.jpg,AMNE10.jpg,MN,1,num_4,32,num_6,0.666742788962,,,2017_Dec_19_1125,60.0189039555,MAFE4ImagesEEG,001,202502,
AFNE01.JPG,AFNE01.JPG,AFNE01.JPG,AFNE01.JPG,AFNE01.JPG,AFNE01.JPG,,,,,,,,,,,,,,,,,1,1,11,0,,,,,,,AMNE19.jpg,AMSA10.jpg,AMNE06.jpg,AMSA01.jpg,AMSA10.jpg,MS,2,num_6,32,num_8,0.583458475395,,,2017_Dec_19_1125,60.0189039555,MAFE4ImagesEEG,001,202502,
AFNE01.JPG,AFNE01.JPG,AFNE01.JPG,AFNE01.JPG,AFNE01.JPG,AFNE01.JPG,,,,,,,,,,,,,,,,,1,2,12,9,,,,,,,AMSA19.jpg,AMNE11.jpg,AMNE05.jpg,AMSA14.jpg,AMNE05.jpg,MN,1,num_2,16,num_2,0.716772778154,,,2017_Dec_19_1125,60.0189039555,MAFE4ImagesEEG,001,202502,
AFNE01.JPG,AFNE01.JPG,AFNE01.JPG,AFNE01.JPG,AFNE01.JPG,AFNE01.JPG,,,,,,,,,,,,,,,,,1,3,13,4,,,,,,,AMSA07.jpg,AMNE07.jpg,AMSA05.jpg,AMNE08.jpg,AMSA07.jpg,MS,2,num_8,32,num_6,0.283483813855,,,2017_Dec_19_1125,60.0189039555,MAFE4ImagesEEG,001,202502,
AFNE01.JPG,AFNE01.JPG,AFNE01.JPG,AFNE01.JPG,AFNE01.JPG,AFNE01.JPG,,,,,,,,,,,,,,,,,1,4,14,7,,,,,,,AMSA11.jpg,AMNE08.jpg,AMSA18.jpg,AMNE14.jpg,AMNE08.jpg,MN,1,num_6,16,num_6,0.633474031285,,,2017_Dec_19_1125,60.0189039555,MAFE4ImagesEEG,001,202502,
AFNE01.JPG,AFNE01.JPG,AFNE01.JPG,AFNE01.JPG,AFNE01.JPG,AFNE01.JPG,,,,,,,,,,,,,,,,,1,5,15,5,,,,,,,AMSA01.jpg,AMNE10.jpg,AMSA02.jpg,AMNE07.jpg,AMSA01.jpg,MS,2,num_8,16,num_8,0.550147380035,,,2017_Dec_19_1125,60.0189039555,MAFE4ImagesEEG,001,202502,
AFNE01.JPG,AFNE01.JPG,AFNE01.JPG,AFNE01.JPG,AFNE01.JPG,AFNE01.JPG,,,,,,,,,,,,,,,,,1,6,16,6,,,,,,,AMSA17.jpg,AMNE11.jpg,AMNE20.jpg,AMSA12.jpg,AMSA12.jpg,MS,2,num_4,16,num_4,0.816828907656,,,2017_Dec_19_1125,60.0189039555,MAFE4ImagesEEG,001,202502,
AFNE01.JPG,AFNE01.JPG,AFNE01.JPG,AFNE01.JPG,AFNE01.JPG,AFNE01.JPG,,,,,,,,,,,,,,,,,1,7,17,2,,,,,,,AMNE07.jpg,AMSA14.jpg,AMSA05.jpg,AMNE20.jpg,AMNE20.jpg,MN,1,num_4,32,num_2,0.650153474096,,,2017_Dec_19_1125,60.0189039555,MAFE4ImagesEEG,001,202502,
AFNE01.JPG,AFNE01.JPG,AFNE01.JPG,AFNE01.JPG,AFNE01.JPG,AFNE01.JPG,,,,,,,,,,,,,,,,,1,8,18,3,,,,,,,AMNE04.jpg,AMSA05.jpg,AMSA06.jpg,AMNE07.jpg,AMNE04.jpg,MN,1,num_8,32,num_4,0.833473710545,,,2017_Dec_19_1125,60.0189039555,MAFE4ImagesEEG,001,202502,
AFNE01.JPG,AFNE01.JPG,AFNE01.JPG,AFNE01.JPG,AFNE01.JPG,AFNE01.JPG,,,,,,,,,,,,,,,,,1,9,19,8,,,,,,,AMSA17.jpg,AMNE07.jpg,AMNE10.jpg,AMSA19.jpg,AMSA19.jpg,MS,2,num_4,16,num_4,1.00010488198,,,2017_Dec_19_1125,60.0189039555,MAFE4ImagesEEG,001,202502,
AFNE01.JPG,AFNE01.JPG,AFNE01.JPG,AFNE01.JPG,AFNE01.JPG,AFNE01.JPG,,,,,,,,,,,,,,,,,2,0,20,8,,,,,,,AMSA13.jpg,AMNE20.jpg,AMSA18.jpg,AMNE05.jpg,AMSA18.jpg,MS,2,num_2,16,num_2,0.516790418854,,,2017_Dec_19_1125,60.0189039555,MAFE4ImagesEEG,001,202502,
AFNE01.JPG,AFNE01.JPG,AFNE01.JPG,AFNE01.JPG,AFNE01.JPG,AFNE01.JPG,,,,,,,,,,,,,,,,,2,1,21,1,,,,,,,AMNE18.jpg,AMNE01.jpg,AMSA09.jpg,AMSA06.jpg,AMSA06.jpg,MS,2,num_4,32,num_6,0.416806776595,,,2017_Dec_19_1125,60.0189039555,MAFE4ImagesEEG,001,202502,
AFNE01.JPG,AFNE01.JPG,AFNE01.JPG,AFNE01.JPG,AFNE01.JPG,AFNE01.JPG,,,,,,,,,,,,,,,,,2,2,22,2,,,,,,,AMNE06.jpg,AMNE15.jpg,AMSA20.jpg,AMSA15.jpg,AMSA20.jpg,MS,2,num_2,32,num_8,0.266670622461,,,2017_Dec_19_1125,60.0189039555,MAFE4ImagesEEG,001,202502,
AFNE01.JPG,AFNE01.JPG,AFNE01.JPG,AFNE01.JPG,AFNE01.JPG,AFNE01.JPG,,,,,,,,,,,,,,,,,2,3,23,9,,,,,,,AMSA08.jpg,AMNE11.jpg,AMSA18.jpg,AMNE02.jpg,AMSA08.jpg,MS,2,num_8,32,num_4,0.333468899446,,,2017_Dec_19_1125,60.0189039555,MAFE4ImagesEEG,001,202502,
AFNE01.JPG,AFNE01.JPG,AFNE01.JPG,AFNE01.JPG,AFNE01.JPG,AFNE01.JPG,,,,,,,,,,,,,,,,,2,4,24,6,,,,,,,AMSA10.jpg,AMSA01.jpg,AMNE02.jpg,AMNE14.jpg,AMSA10.jpg,MS,2,num_8,32,num_2,0.900104561244,,,2017_Dec_19_1125,60.0189039555,MAFE4ImagesEEG,001,202502,
AFNE01.JPG,AFNE01.JPG,AFNE01.JPG,AFNE01.JPG,AFNE01.JPG,AFNE01.JPG,,,,,,,,,,,,,,,,,2,5,25,5,,,,,,,AMNE16.jpg,AMSA14.jpg,AMSA18.jpg,AMNE20.jpg,AMSA18.jpg,MS,2,num_2,32,num_8,0.966760108923,,,2017_Dec_19_1125,60.0189039555,MAFE4ImagesEEG,001,202502,
AFNE01.JPG,AFNE01.JPG,AFNE01.JPG,AFNE01.JPG,AFNE01.JPG,AFNE01.JPG,,,,,,,,,,,,,,,,,2,6,26,3,,,,,,,AMSA02.jpg,AMSA06.jpg,AMNE01.jpg,AMNE03.jpg,AMSA02.jpg,MS,2,num_8,32,num_6,0.416856491296,,,2017_Dec_19_1125,60.0189039555,MAFE4ImagesEEG,001,202502,
AFNE01.JPG,AFNE01.JPG,AFNE01.JPG,AFNE01.JPG,AFNE01.JPG,AFNE01.JPG,,,,,,,,,,,,,,,,,2,7,27,7,,,,,,,AMSA05.jpg,AMSA04.jpg,AMNE16.jpg,AMNE10.jpg,AMSA05.jpg,MS,2,num_8,16,num_8,0.600101353843,,,2017_Dec_19_1125,60.0189039555,MAFE4ImagesEEG,001,202502,
AFNE01.JPG,AFNE01.JPG,AFNE01.JPG,AFNE01.JPG,AFNE01.JPG,AFNE01.JPG,,,,,,,,,,,,,,,,,2,8,28,0,,,,,,,AMSA11.jpg,AMSA10.jpg,AMNE10.jpg,AMNE19.jpg,AMSA11.jpg,MS,2,num_8,16,num_8,0.483482530895,,,2017_Dec_19_1125,60.0189039555,MAFE4ImagesEEG,001,202502,
AFNE01.JPG,AFNE01.JPG,AFNE01.JPG,AFNE01.JPG,AFNE01.JPG,AFNE01.JPG,,,,,,,,,,,,,,,,,2,9,29,4,,,,,,,AMSA09.jpg,AMNE17.jpg,AMSA18.jpg,AMNE04.jpg,AMSA09.jpg,MS,2,num_8,32,num_2,0.616614974067,,,2017_Dec_19_1125,60.0189039555,MAFE4ImagesEEG,001,202502,
AFNE01.JPG,AFNE01.JPG,AFNE01.JPG,AFNE01.JPG,AFNE01.JPG,AFNE01.JPG,,,,,,,,,,,,,,,,,3,0,30,5,,,,,,,AMNE08.jpg,AMSA18.jpg,AMNE19.jpg,AMSA01.jpg,AMSA01.jpg,MS,2,num_4,16,num_4,0.750110494933,,,2017_Dec_19_1125,60.0189039555,MAFE4ImagesEEG,001,202502,
AFNE01.JPG,AFNE01.JPG,AFNE01.JPG,AFNE01.JPG,AFNE01.JPG,AFNE01.JPG,,,,,,,,,,,,,,,,,3,1,31,2,,,,,,,AMSA03.jpg,AMSA20.jpg,AMNE05.jpg,AMNE14.jpg,AMNE14.jpg,MN,1,num_4,16,num_4,1.31675577893,,,2017_Dec_19_1125,60.0189039555,MAFE4ImagesEEG,001,202502,
AFNE01.JPG,AFNE01.JPG,AFNE01.JPG,AFNE01.JPG,AFNE01.JPG,AFNE01.JPG,,,,,,,,,,,,,,,,,3,2,32,1,,,,,,,AMSA13.jpg,AMNE11.jpg,AMNE15.jpg,AMSA02.jpg,AMNE15.jpg,MN,1,num_2,16,num_2,0.483520378217,,,2017_Dec_19_1125,60.0189039555,MAFE4ImagesEEG,001,202502,
AFNE01.JPG,AFNE01.JPG,AFNE01.JPG,AFNE01.JPG,AFNE01.JPG,AFNE01.JPG,,,,,,,,,,,,,,,,,3,3,33,8,,,,,,,AMSA15.jpg,AMSA18.jpg,AMNE18.jpg,AMNE05.jpg,AMSA18.jpg,MS,2,num_6,16,num_6,0.533528557086,,,2017_Dec_19_1125,60.0189039555,MAFE4ImagesEEG,001,202502,
AFNE01.JPG,AFNE01.JPG,AFNE01.JPG,AFNE01.JPG,AFNE01.JPG,AFNE01.JPG,,,,,,,,,,,,,,,,,3,4,34,4,,,,,,,AMSA06.jpg,AMNE07.jpg,AMSA14.jpg,AMNE11.jpg,AMSA06.jpg,MS,2,num_8,16,num_8,0.900111938264,,,2017_Dec_19_1125,60.0189039555,MAFE4ImagesEEG,001,202502,
AFNE01.JPG,AFNE01.JPG,AFNE01.JPG,AFNE01.JPG,AFNE01.JPG,AFNE01.JPG,,,,,,,,,,,,,,,,,3,5,35,7,,,,,,,AMNE05.jpg,AMSA02.jpg,AMSA10.jpg,AMNE03.jpg,AMSA02.jpg,MS,2,num_6,32,num_4,0.616767646313,,,2017_Dec_19_1125,60.0189039555,MAFE4ImagesEEG,001,202502,
AFNE01.JPG,AFNE01.JPG,AFNE01.JPG,AFNE01.JPG,AFNE01.JPG,AFNE01.JPG,,,,,,,,,,,,,,,,,3,6,36,0,,,,,,,AMSA05.jpg,AMNE11.jpg,AMSA12.jpg,AMNE05.jpg,AMNE11.jpg,MN,1,num_6,32,num_4,1.53338871444,,,2017_Dec_19_1125,60.0189039555,MAFE4ImagesEEG,001,202502,
AFNE01.JPG,AFNE01.JPG,AFNE01.JPG,AFNE01.JPG,AFNE01.JPG,AFNE01.JPG,,,,,,,,,,,,,,,,,3,7,37,6,,,,,,,AMSA13.jpg,AMNE04.jpg,AMSA16.jpg,AMNE18.jpg,AMSA16.jpg,MS,2,num_2,32,num_6,0.816481546223,,,2017_Dec_19_1125,60.0189039555,MAFE4ImagesEEG,001,202502,
AFNE01.JPG,AFNE01.JPG,AFNE01.JPG,AFNE01.JPG,AFNE01.JPG,AFNE01.JPG,,,,,,,,,,,,,,,,,3,8,38,3,,,,,,,AMSA09.jpg,AMNE19.jpg,AMSA15.jpg,AMNE08.jpg,AMSA15.jpg,MS,2,num_2,32,num_8,0.666811427325,,,2017_Dec_19_1125,60.0189039555,MAFE4ImagesEEG,001,202502,
AFNE01.JPG,AFNE01.JPG,AFNE01.JPG,AFNE01.JPG,AFNE01.JPG,AFNE01.JPG,,,,,,,,,,,,,,,,,3,9,39,9,,,,,,,AMNE06.jpg,AMNE11.jpg,AMSA10.jpg,AMSA03.jpg,AMSA03.jpg,MS,2,num_4,16,num_4,0.500119315285,,,2017_Dec_19_1125,60.0189039555,MAFE4ImagesEEG,001,202502,
AFNE01.JPG,AFNE01.JPG,AFNE01.JPG,AFNE01.JPG,AFNE01.JPG,AFNE01.JPG,,,,,,,,,,,,,,,,,4,0,40,5,,,,,,,AMSA06.jpg,AMNE01.jpg,AMSA04.jpg,AMNE02.jpg,AMSA06.jpg,MS,2,num_8,16,num_8,0.750138078574,,,2017_Dec_19_1125,60.0189039555,MAFE4ImagesEEG,001,202502,
AFNE01.JPG,AFNE01.JPG,AFNE01.JPG,AFNE01.JPG,AFNE01.JPG,AFNE01.JPG,,,,,,,,,,,,,,,,,4,1,41,9,,,,,,,AMSA18.jpg,AMNE16.jpg,AMNE08.jpg,AMSA14.jpg,AMSA14.jpg,MS,2,num_4,16,num_4,0.766508007275,,,2017_Dec_19_1125,60.0189039555,MAFE4ImagesEEG,001,202502,
AFNE01.JPG,AFNE01.JPG,AFNE01.JPG,AFNE01.JPG,AFNE01.JPG,AFNE01.JPG,,,,,,,,,,,,,,,,,4,2,42,6,,,,,,,AMSA16.jpg,AMNE10.jpg,AMSA03.jpg,AMNE19.jpg,AMNE19.jpg,MN,1,num_4,16,num_4,1.08340523255,,,2017_Dec_19_1125,60.0189039555,MAFE4ImagesEEG,001,202502,
AFNE01.JPG,AFNE01.JPG,AFNE01.JPG,AFNE01.JPG,AFNE01.JPG,AFNE01.JPG,,,,,,,,,,,,,,,,,4,3,43,0,,,,,,,AMSA04.jpg,AMNE19.jpg,AMNE03.jpg,AMSA07.jpg,AMSA04.jpg,MS,2,num_8,32,num_2,0.950106966794,,,2017_Dec_19_1125,60.0189039555,MAFE4ImagesEEG,001,202502,
AFNE01.JPG,AFNE01.JPG,AFNE01.JPG,AFNE01.JPG,AFNE01.JPG,AFNE01.JPG,,,,,,,,,,,,,,,,,4,4,44,8,,,,,,,AMSA03.jpg,AMNE19.jpg,AMNE17.jpg,AMSA06.jpg,AMSA03.jpg,MS,2,num_8,32,num_2,0.900109693084,,,2017_Dec_19_1125,60.0189039555,MAFE4ImagesEEG,001,202502,
AFNE01.JPG,AFNE01.JPG,AFNE01.JPG,AFNE01.JPG,AFNE01.JPG,AFNE01.JPG,,,,,,,,,,,,,,,,,4,5,45,4,,,,,,,AMSA18.jpg,AMSA12.jpg,AMNE09.jpg,AMNE17.jpg,AMNE17.jpg,MN,1,num_4,16,num_4,0.800127975264,,,2017_Dec_19_1125,60.0189039555,MAFE4ImagesEEG,001,202502,
AFNE01.JPG,AFNE01.JPG,AFNE01.JPG,AFNE01.JPG,AFNE01.JPG,AFNE01.JPG,,,,,,,,,,,,,,,,,4,6,46,3,,,,,,,AMSA19.jpg,AMNE05.jpg,AMSA14.jpg,AMNE19.jpg,AMNE05.jpg,MN,1,num_6,16,num_6,0.933490709766,,,2017_Dec_19_1125,60.0189039555,MAFE4ImagesEEG,001,202502,
AFNE01.JPG,AFNE01.JPG,AFNE01.JPG,AFNE01.JPG,AFNE01.JPG,AFNE01.JPG,,,,,,,,,,,,,,,,,4,7,47,1,,,,,,,AMNE03.jpg,AMNE20.jpg,AMSA20.jpg,AMSA14.jpg,AMSA20.jpg,MS,2,num_2,32,num_4,0.833475314244,,,2017_Dec_19_1125,60.0189039555,MAFE4ImagesEEG,001,202502,
AFNE01.JPG,AFNE01.JPG,AFNE01.JPG,AFNE01.JPG,AFNE01.JPG,AFNE01.JPG,,,,,,,,,,,,,,,,,4,8,48,7,,,,,,,AMSA19.jpg,AMNE15.jpg,AMSA16.jpg,AMNE02.jpg,AMNE15.jpg,MN,1,num_6,16,num_6,0.766444821493,,,2017_Dec_19_1125,60.0189039555,MAFE4ImagesEEG,001,202502,
AFNE01.JPG,AFNE01.JPG,AFNE01.JPG,AFNE01.JPG,AFNE01.JPG,AFNE01.JPG,,,,,,,,,,,,,,,,,4,9,49,2,,,,,,,AMSA04.jpg,AMNE05.jpg,AMNE12.jpg,AMSA07.jpg,AMNE12.jpg,MN,1,num_2,32,num_6,1.13344644764,,,2017_Dec_19_1125,60.0189039555,MAFE4ImagesEEG,001,202502,
AFNE01.JPG,AFNE01.JPG,AFNE01.JPG,AFNE01.JPG,AFNE01.JPG,AFNE01.JPG,,,,,,,,,,,,,,,,,5,0,50,0,,,,,,,AMSA15.jpg,AMSA18.jpg,AMNE20.jpg,AMNE12.jpg,AMNE12.jpg,MN,1,num_4,16,num_4,0.566752411163,,,2017_Dec_19_1125,60.0189039555,MAFE4ImagesEEG,001,202502,
AFNE01.JPG,AFNE01.JPG,AFNE01.JPG,AFNE01.JPG,AFNE01.JPG,AFNE01.JPG,,,,,,,,,,,,,,,,,5,1,51,5,,,,,,,AMSA07.jpg,AMSA20.jpg,AMNE12.jpg,AMNE01.jpg,AMNE12.jpg,MN,1,num_2,32,num_8,0.483499850856,,,2017_Dec_19_1125,60.0189039555,MAFE4ImagesEEG,001,202502,
AFNE01.JPG,AFNE01.JPG,AFNE01.JPG,AFNE01.JPG,AFNE01.JPG,AFNE01.JPG,,,,,,,,,,,,,,,,,5,2,52,4,,,,,,,AMNE06.jpg,AMNE04.jpg,AMSA10.jpg,AMSA14.jpg,AMNE06.jpg,MN,1,num_8,32,num_6,0.716765401134,,,2017_Dec_19_1125,60.0189039555,MAFE4ImagesEEG,001,202502,
AFNE01.JPG,AFNE01.JPG,AFNE01.JPG,AFNE01.JPG,AFNE01.JPG,AFNE01.JPG,,,,,,,,,,,,,,,,,5,3,53,1,,,,,,,AMNE07.jpg,AMNE09.jpg,AMSA19.jpg,AMSA20.jpg,AMSA19.jpg,MS,2,num_2,32,num_4,0.533470503145,,,2017_Dec_19_1125,60.0189039555,MAFE4ImagesEEG,001,202502,
AFNE01.JPG,AFNE01.JPG,AFNE01.JPG,AFNE01.JPG,AFNE01.JPG,AFNE01.JPG,,,,,,,,,,,,,,,,,5,4,54,7,,,,,,,AMNE07.jpg,AMSA02.jpg,AMSA20.jpg,AMNE09.jpg,AMNE07.jpg,MN,1,num_8,32,num_4,1.16673380824,,,2017_Dec_19_1125,60.0189039555,MAFE4ImagesEEG,001,202502,
AFNE01.JPG,AFNE01.JPG,AFNE01.JPG,AFNE01.JPG,AFNE01.JPG,AFNE01.JPG,,,,,,,,,,,,,,,,,5,5,55,9,,,,,,,AMSA05.jpg,AMNE19.jpg,AMSA09.jpg,AMNE16.jpg,AMNE19.jpg,MN,1,num_6,32,num_8,0.633528557087,,,2017_Dec_19_1125,60.0189039555,MAFE4ImagesEEG,001,202502,
AFNE01.JPG,AFNE01.JPG,AFNE01.JPG,AFNE01.JPG,AFNE01.JPG,AFNE01.JPG,,,,,,,,,,,,,,,,,5,6,56,2,,,,,,,AMNE14.jpg,AMNE20.jpg,AMSA02.jpg,AMSA05.jpg,AMSA05.jpg,MS,2,num_4,32,num_8,0.700155238165,,,2017_Dec_19_1125,60.0189039555,MAFE4ImagesEEG,001,202502,
AFNE01.JPG,AFNE01.JPG,AFNE01.JPG,AFNE01.JPG,AFNE01.JPG,AFNE01.JPG,,,,,,,,,,,,,,,,,5,7,57,3,,,,,,,AMSA09.jpg,AMNE18.jpg,AMNE20.jpg,AMSA07.jpg,AMNE20.jpg,MN,1,num_2,32,num_6,0.883431853974,,,2017_Dec_19_1125,60.0189039555,MAFE4ImagesEEG,001,202502,
AFNE01.JPG,AFNE01.JPG,AFNE01.JPG,AFNE01.JPG,AFNE01.JPG,AFNE01.JPG,,,,,,,,,,,,,,,,,5,8,58,8,,,,,,,AMSA06.jpg,AMNE08.jpg,AMSA20.jpg,AMNE05.jpg,AMNE08.jpg,MN,1,num_6,32,num_4,1.06659589004,,,2017_Dec_19_1125,60.0189039555,MAFE4ImagesEEG,001,202502,
AFNE01.JPG,AFNE01.JPG,AFNE01.JPG,AFNE01.JPG,AFNE01.JPG,AFNE01.JPG,,,,,,,,,,,,,,,,,5,9,59,6,,,,,,,AMSA16.jpg,AMNE01.jpg,AMNE20.jpg,AMSA09.jpg,AMNE20.jpg,MN,1,num_2,32,num_6,0.850161171856,,,2017_Dec_19_1125,60.0189039555,MAFE4ImagesEEG,001,202502,
,,,,,,,,,,,,,,,,,,,,,,,,,,,,,,,,,,,,,,,,,,,space,35.6806564907,2017_Dec_19_1125,60.0189039555,MAFE4ImagesEEG,001,202502,
AFNE01.JPG,AFNE01.JPG,AFNE01.JPG,AFNE01.JPG,AFNE01.JPG,AFNE01.JPG,,,,,,,,,,,,,,,,,,,,,0,0,0,2,,,AFNE12.jpg,AFSA16.jpg,AFNE02.jpg,AFSA20.jpg,AFSA16.jpg,FS,4,num_6,32,num_4,0.533472748325,,,2017_Dec_19_1125,60.0189039555,MAFE4ImagesEEG,001,202502,
AFNE01.JPG,AFNE01.JPG,AFNE01.JPG,AFNE01.JPG,AFNE01.JPG,AFNE01.JPG,,,,,,,,,,,,,,,,,,,,,0,1,1,5,,,AFSA19.jpg,AFNE10.jpg,AFSA08.jpg,AFNE11.jpg,AFSA08.jpg,FS,4,num_2,16,num_2,0.800149144105,,,2017_Dec_19_1125,60.0189039555,MAFE4ImagesEEG,001,202502,
AFNE01.JPG,AFNE01.JPG,AFNE01.JPG,AFNE01.JPG,AFNE01.JPG,AFNE01.JPG,,,,,,,,,,,,,,,,,,,,,0,2,2,9,,,AFNE06.jpg,AFSA08.jpg,AFSA20.jpg,AFNE05.jpg,AFSA08.jpg,FS,4,num_6,16,num_6,0.250169831837,,,2017_Dec_19_1125,60.0189039555,MAFE4ImagesEEG,001,202502,
AFNE01.JPG,AFNE01.JPG,AFNE01.JPG,AFNE01.JPG,AFNE01.JPG,AFNE01.JPG,,,,,,,,,,,,,,,,,,,,,0,3,3,4,,,AFSA12.jpg,AFNE08.jpg,AFSA07.jpg,AFNE05.jpg,AFSA12.jpg,FS,4,num_8,16,num_8,0.600142729305,,,2017_Dec_19_1125,60.0189039555,MAFE4ImagesEEG,001,202502,
AFNE01.JPG,AFNE01.JPG,AFNE01.JPG,AFNE01.JPG,AFNE01.JPG,AFNE01.JPG,,,,,,,,,,,,,,,,,,,,,0,4,4,1,,,AFSA18.jpg,AFNE17.jpg,AFNE15.jpg,AFSA15.jpg,AFSA15.jpg,FS,4,num_4,16,num_4,0.783459758354,,,2017_Dec_19_1125,60.0189039555,MAFE4ImagesEEG,001,202502,
AFNE01.JPG,AFNE01.JPG,AFNE01.JPG,AFNE01.JPG,AFNE01.JPG,AFNE01.JPG,,,,,,,,,,,,,,,,,,,,,0,5,5,8,,,AFNE10.jpg,AFSA02.jpg,AFSA18.jpg,AFNE11.jpg,AFNE10.jpg,FN,3,num_8,32,num_6,0.633476276465,,,2017_Dec_19_1125,60.0189039555,MAFE4ImagesEEG,001,202502,
AFNE01.JPG,AFNE01.JPG,AFNE01.JPG,AFNE01.JPG,AFNE01.JPG,AFNE01.JPG,,,,,,,,,,,,,,,,,,,,,0,6,6,7,,,AFNE07.jpg,AFNE06.jpg,AFSA12.jpg,AFSA02.jpg,AFNE07.jpg,FN,3,num_8,16,num_8,0.966747600062,,,2017_Dec_19_1125,60.0189039555,MAFE4ImagesEEG,001,202502,
AFNE01.JPG,AFNE01.JPG,AFNE01.JPG,AFNE01.JPG,AFNE01.JPG,AFNE01.JPG,,,,,,,,,,,,,,,,,,,,,0,7,7,0,,,AFNE13.jpg,AFSA01.jpg,AFNE03.jpg,AFSA12.jpg,AFSA12.jpg,FS,4,num_4,16,num_4,0.783451419114,,,2017_Dec_19_1125,60.0189039555,MAFE4ImagesEEG,001,202502,
AFNE01.JPG,AFNE01.JPG,AFNE01.JPG,AFNE01.JPG,AFNE01.JPG,AFNE01.JPG,,,,,,,,,,,,,,,,,,,,,0,8,8,6,,,AFNE08.jpg,AFSA15.jpg,AFNE03.jpg,AFSA20.jpg,AFNE08.jpg,FN,3,num_8,32,num_6,0.583487662736,,,2017_Dec_19_1125,60.0189039555,MAFE4ImagesEEG,001,202502,
AFNE01.JPG,AFNE01.JPG,AFNE01.JPG,AFNE01.JPG,AFNE01.JPG,AFNE01.JPG,,,,,,,,,,,,,,,,,,,,,0,9,9,3,,,AFSA11.jpg,AFNE06.jpg,AFSA17.jpg,AFNE18.jpg,AFSA11.jpg,FS,4,num_8,16,num_8,0.966735091202,,,2017_Dec_19_1125,60.0189039555,MAFE4ImagesEEG,001,202502,
AFNE01.JPG,AFNE01.JPG,AFNE01.JPG,AFNE01.JPG,AFNE01.JPG,AFNE01.JPG,,,,,,,,,,,,,,,,,,,,,1,0,10,3,,,AFSA10.jpg,AFNE03.jpg,AFNE19.jpg,AFSA13.jpg,AFSA13.jpg,FS,4,num_4,16,num_4,0.583520378216,,,2017_Dec_19_1125,60.0189039555,MAFE4ImagesEEG,001,202502,
AFNE01.JPG,AFNE01.JPG,AFNE01.JPG,AFNE01.JPG,AFNE01.JPG,AFNE01.JPG,,,,,,,,,,,,,,,,,,,,,1,1,11,9,,,AFNE02.jpg,AFSA13.jpg,AFSA04.jpg,AFNE03.jpg,AFSA13.jpg,FS,4,num_6,16,num_6,0.766750486723,,,2017_Dec_19_1125,60.0189039555,MAFE4ImagesEEG,001,202502,
AFNE01.JPG,AFNE01.JPG,AFNE01.JPG,AFNE01.JPG,AFNE01.JPG,AFNE01.JPG,,,,,,,,,,,,,,,,,,,,,1,2,12,8,,,AFSA12.jpg,AFNE10.jpg,AFNE05.jpg,AFSA14.jpg,AFSA14.jpg,FS,4,num_4,16,num_4,0.783489266435,,,2017_Dec_19_1125,60.0189039555,MAFE4ImagesEEG,001,202502,
AFNE01.JPG,AFNE01.JPG,AFNE01.JPG,AFNE01.JPG,AFNE01.JPG,AFNE01.JPG,,,,,,,,,,,,,,,,,,,,,1,3,13,6,,,AFNE08.jpg,AFSA12.jpg,AFSA13.jpg,AFNE01.jpg,AFNE01.jpg,FN,3,num_4,32,num_6,0.900120918984,,,2017_Dec_19_1125,60.0189039555,MAFE4ImagesEEG,001,202502,
AFNE01.JPG,AFNE01.JPG,AFNE01.JPG,AFNE01.JPG,AFNE01.JPG,AFNE01.JPG,,,,,,,,,,,,,,,,,,,,,1,4,14,2,,,AFNE09.jpg,AFSA13.jpg,AFNE16.jpg,AFSA07.jpg,AFNE16.jpg,FN,3,num_2,32,num_4,0.616775664814,,,2017_Dec_19_1125,60.0189039555,MAFE4ImagesEEG,001,202502,
AFNE01.JPG,AFNE01.JPG,AFNE01.JPG,AFNE01.JPG,AFNE01.JPG,AFNE01.JPG,,,,,,,,,,,,,,,,,,,,,1,5,15,0,,,AFNE17.jpg,AFSA08.jpg,AFSA03.jpg,AFNE10.jpg,AFSA08.jpg,FS,4,num_6,32,num_8,0.950097665333,,,2017_Dec_19_1125,60.0189039555,MAFE4ImagesEEG,001,202502,
AFNE01.JPG,AFNE01.JPG,AFNE01.JPG,AFNE01.JPG,AFNE01.JPG,AFNE01.JPG,,,,,,,,,,,,,,,,,,,,,1,6,16,7,,,AFSA04.jpg,AFNE04.jpg,AFSA20.jpg,AFNE08.jpg,AFSA20.jpg,FS,4,num_2,16,num_2,0.583472267214,,,2017_Dec_19_1125,60.0189039555,MAFE4ImagesEEG,001,202502,
AFNE01.JPG,AFNE01.JPG,AFNE01.JPG,AFNE01.JPG,AFNE01.JPG,AFNE01.JPG,,,,,,,,,,,,,,,,,,,,,1,7,17,1,,,AFSA01.jpg,AFNE16.jpg,AFSA17.jpg,AFNE20.jpg,AFSA17.jpg,FS,4,num_2,16,num_2,1.06675786374,,,2017_Dec_19_1125,60.0189039555,MAFE4ImagesEEG,001,202502,
AFNE01.JPG,AFNE01.JPG,AFNE01.JPG,AFNE01.JPG,AFNE01.JPG,AFNE01.JPG,,,,,,,,,,,,,,,,,,,,,1,8,18,4,,,AFSA04.jpg,AFSA14.jpg,AFNE09.jpg,AFNE11.jpg,AFSA04.jpg,FS,4,num_8,32,num_4,1.35013615413,,,2017_Dec_19_1125,60.0189039555,MAFE4ImagesEEG,001,202502,
AFNE01.JPG,AFNE01.JPG,AFNE01.JPG,AFNE01.JPG,AFNE01.JPG,AFNE01.JPG,,,,,,,,,,,,,,,,,,,,,1,9,19,5,,,AFNE15.jpg,AFSA17.jpg,AFNE03.jpg,AFSA06.jpg,AFNE03.jpg,FN,3,num_2,32,num_6,0.850120437874,,,2017_Dec_19_1125,60.0189039555,MAFE4ImagesEEG,001,202502,
AFNE01.JPG,AFNE01.JPG,AFNE01.JPG,AFNE01.JPG,AFNE01.JPG,AFNE01.JPG,,,,,,,,,,,,,,,,,,,,,2,0,20,7,,,AFNE18.jpg,AFSA10.jpg,AFSA09.jpg,AFNE15.jpg,AFNE18.jpg,FN,3,num_8,16,num_8,1.11675385449,,,2017_Dec_19_1125,60.0189039555,MAFE4ImagesEEG,001,202502,
AFNE01.JPG,AFNE01.JPG,AFNE01.JPG,AFNE01.JPG,AFNE01.JPG,AFNE01.JPG,,,,,,,,,,,,,,,,,,,,,2,1,21,1,,,AFNE10.jpg,AFSA12.jpg,AFSA08.jpg,AFNE19.jpg,AFSA12.jpg,FS,4,num_6,16,num_6,0.483541226317,,,2017_Dec_19_1125,60.0189039555,MAFE4ImagesEEG,001,202502,
AFNE01.JPG,AFNE01.JPG,AFNE01.JPG,AFNE01.JPG,AFNE01.JPG,AFNE01.JPG,,,,,,,,,,,,,,,,,,,,,2,2,22,0,,,AFNE07.jpg,AFSA10.jpg,AFSA07.jpg,AFNE09.jpg,AFSA07.jpg,FS,4,num_2,32,num_8,0.733481729045,,,2017_Dec_19_1125,60.0189039555,MAFE4ImagesEEG,001,202502,
AFNE01.JPG,AFNE01.JPG,AFNE01.JPG,AFNE01.JPG,AFNE01.JPG,AFNE01.JPG,,,,,,,,,,,,,,,,,,,,,2,3,23,2,,,AFSA05.jpg,AFNE04.jpg,AFNE12.jpg,AFSA20.jpg,AFSA05.jpg,FS,4,num_8,32,num_6,0.883409402172,,,2017_Dec_19_1125,60.0189039555,MAFE4ImagesEEG,001,202502,
AFNE01.JPG,AFNE01.JPG,AFNE01.JPG,AFNE01.JPG,AFNE01.JPG,AFNE01.JPG,,,,,,,,,,,,,,,,,,,,,2,4,24,8,,,AFNE10.jpg,AFSA02.jpg,AFSA14.jpg,AFNE13.jpg,AFSA02.jpg,FS,4,num_6,32,num_4,0.783665031961,,,2017_Dec_19_1125,60.0189039555,MAFE4ImagesEEG,001,202502,
AFNE01.JPG,AFNE01.JPG,AFNE01.JPG,AFNE01.JPG,AFNE01.JPG,AFNE01.JPG,,,,,,,,,,,,,,,,,,,,,2,5,25,5,,,AFNE07.jpg,AFNE16.jpg,AFSA15.jpg,AFSA20.jpg,AFSA15.jpg,FS,4,num_2,32,num_8,0.666839973186,,,2017_Dec_19_1125,60.0189039555,MAFE4ImagesEEG,001,202502,
AFNE01.JPG,AFNE01.JPG,AFNE01.JPG,AFNE01.JPG,AFNE01.JPG,AFNE01.JPG,,,,,,,,,,,,,,,,,,,,,2,6,26,6,,,AFSA12.jpg,AFNE06.jpg,AFSA11.jpg,AFNE10.jpg,AFNE06.jpg,FN,3,num_6,32,num_8,0.616813512135,,,2017_Dec_19_1125,60.0189039555,MAFE4ImagesEEG,001,202502,
AFNE01.JPG,AFNE01.JPG,AFNE01.JPG,AFNE01.JPG,AFNE01.JPG,AFNE01.JPG,,,,,,,,,,,,,,,,,,,,,2,7,27,4,,,AFNE14.jpg,AFSA08.jpg,AFSA01.jpg,AFNE16.jpg,AFSA01.jpg,FS,4,num_2,32,num_8,0.41694405332,,,2017_Dec_19_1125,60.0189039555,MAFE4ImagesEEG,001,202502,
AFNE01.JPG,AFNE01.JPG,AFNE01.JPG,AFNE01.JPG,AFNE01.JPG,AFNE01.JPG,,,,,,,,,,,,,,,,,,,,,2,8,28,9,,,AFNE07.jpg,AFSA04.jpg,AFSA05.jpg,AFNE16.jpg,AFSA04.jpg,FS,4,num_6,32,num_2,0.466819125086,,,2017_Dec_19_1125,60.0189039555,MAFE4ImagesEEG,001,202502,
AFNE01.JPG,AFNE01.JPG,AFNE01.JPG,AFNE01.JPG,AFNE01.JPG,AFNE01.JPG,,,,,,,,,,,,,,,,,,,,,2,9,29,3,,,AFNE16.jpg,AFSA18.jpg,AFSA16.jpg,AFNE01.jpg,AFSA18.jpg,FS,4,num_6,32,num_2,0.950115947514,,,2017_Dec_19_1125,60.0189039555,MAFE4ImagesEEG,001,202502,
AFNE01.JPG,AFNE01.JPG,AFNE01.JPG,AFNE01.JPG,AFNE01.JPG,AFNE01.JPG,,,,,,,,,,,,,,,,,,,,,3,0,30,6,,,AFSA01.jpg,AFNE06.jpg,AFSA03.jpg,AFNE10.jpg,AFSA03.jpg,FS,4,num_2,16,num_2,1.30054974838,,,2017_Dec_19_1125,60.0189039555,MAFE4ImagesEEG,001,202502,
AFNE01.JPG,AFNE01.JPG,AFNE01.JPG,AFNE01.JPG,AFNE01.JPG,AFNE01.JPG,,,,,,,,,,,,,,,,,,,,,3,1,31,8,,,AFNE14.jpg,AFSA01.jpg,AFSA20.jpg,AFNE12.jpg,AFNE12.jpg,FN,3,num_4,32,num_8,0.683460079094,,,2017_Dec_19_1125,60.0189039555,MAFE4ImagesEEG,001,202502,
AFNE01.JPG,AFNE01.JPG,AFNE01.JPG,AFNE01.JPG,AFNE01.JPG,AFNE01.JPG,,,,,,,,,,,,,,,,,,,,,3,2,32,3,,,AFSA17.jpg,AFNE04.jpg,AFSA03.jpg,AFNE08.jpg,AFNE04.jpg,FN,3,num_6,32,num_8,0.400235743909,,,2017_Dec_19_1125,60.0189039555,MAFE4ImagesEEG,001,202502,
AFNE01.JPG,AFNE01.JPG,AFNE01.JPG,AFNE01.JPG,AFNE01.JPG,AFNE01.JPG,,,,,,,,,,,,,,,,,,,,,3,3,33,5,,,AFNE14.jpg,AFSA13.jpg,AFSA07.jpg,AFNE09.jpg,AFSA13.jpg,FS,4,num_6,32,num_2,0.666817200646,,,2017_Dec_19_1125,60.0189039555,MAFE4ImagesEEG,001,202502,
AFNE01.JPG,AFNE01.JPG,AFNE01.JPG,AFNE01.JPG,AFNE01.JPG,AFNE01.JPG,,,,,,,,,,,,,,,,,,,,,3,4,34,4,,,AFSA16.jpg,AFNE05.jpg,AFSA19.jpg,AFNE12.jpg,AFNE05.jpg,FN,3,num_6,32,num_8,0.650131343035,,,2017_Dec_19_1125,60.0189039555,MAFE4ImagesEEG,001,202502,
AFNE01.JPG,AFNE01.JPG,AFNE01.JPG,AFNE01.JPG,AFNE01.JPG,AFNE01.JPG,,,,,,,,,,,,,,,,,,,,,3,5,35,1,,,AFSA11.jpg,AFSA10.jpg,AFNE12.jpg,AFNE03.jpg,AFNE03.jpg,FN,3,num_4,32,num_6,0.683490228656,,,2017_Dec_19_1125,60.0189039555,MAFE4ImagesEEG,001,202502,
AFNE01.JPG,AFNE01.JPG,AFNE01.JPG,AFNE01.JPG,AFNE01.JPG,AFNE01.JPG,,,,,,,,,,,,,,,,,,,,,3,6,36,0,,,AFSA19.jpg,AFNE20.jpg,AFNE16.jpg,AFSA16.jpg,AFSA19.jpg,FS,4,num_8,32,num_4,0.316825700255,,,2017_Dec_19_1125,60.0189039555,MAFE4ImagesEEG,001,202502,
AFNE01.JPG,AFNE01.JPG,AFNE01.JPG,AFNE01.JPG,AFNE01.JPG,AFNE01.JPG,,,,,,,,,,,,,,,,,,,,,3,7,37,2,,,AFNE01.jpg,AFSA16.jpg,AFNE05.jpg,AFSA12.jpg,AFNE05.jpg,FN,3,num_2,32,num_8,0.483503378996,,,2017_Dec_19_1125,60.0189039555,MAFE4ImagesEEG,001,202502,
AFNE01.JPG,AFNE01.JPG,AFNE01.JPG,AFNE01.JPG,AFNE01.JPG,AFNE01.JPG,,,,,,,,,,,,,,,,,,,,,3,8,38,9,,,AFSA01.jpg,AFNE05.jpg,AFSA17.jpg,AFNE17.jpg,AFSA01.jpg,FS,4,num_8,32,num_2,0.600152672246,,,2017_Dec_19_1125,60.0189039555,MAFE4ImagesEEG,001,202502,
