IPosition2,IPosition3,IPosition1,IPosition6,IPosition4,IPosition5,TrialsM1.thisRepN,TrialsM1.thisTrialN,TrialsM1.thisN,TrialsM1.thisIndex,TrialsF1.thisRepN,TrialsF1.thisTrialN,TrialsF1.thisN,TrialsF1.thisIndex,TrialsM2.thisRepN,TrialsM2.thisTrialN,TrialsM2.thisN,TrialsM2.thisIndex,TrialsF2.thisRepN,TrialsF2.thisTrialN,TrialsF2.thisN,TrialsF2.thisIndex,TrialsM3.thisRepN,TrialsM3.thisTrialN,TrialsM3.thisN,TrialsM3.thisIndex,TrialsF3.thisRepN,TrialsF3.thisTrialN,TrialsF3.thisN,TrialsF3.thisIndex,InstrKey_resp.keys,InstrKey_resp.rt,Image0 _Position,Image1 _Position,Image2 _Position,Image3 _Position,Center_image,condition,code,correct_answer,accuracy,Key_Resp.keys,Key_Resp.rt,BreakKey_resp.keys,BreakKey_resp.rt,date,frameRate,expName,session,participant,
,,,,,,,,,,,,,,,,,,,,,,,,,,,,,,space,4.74987218529,,,,,,,,,,,,,,2017_Dec_18_1204,60.0058894238,MAFE4ImagesEEG,001,202633,
AMSA21.JPG,AMNE22.JPG,AMNE21.JPG,AMSA23.JPG,AMSA22.JPG,AMNE23.JPG,0,0,0,1,,,,,,,,,,,,,,,,,,,,,,,AMNE04.jpg,AMNE06.jpg,AMSA04.jpg,AMSA09.jpg,AMNE06.jpg,MN,1,num_6,32,num_8,0.500162614509,,,2017_Dec_18_1204,60.0058894238,MAFE4ImagesEEG,001,202633,
AFNE23.JPG,AFNE24.JPG,AFNE22.JPG,AFSA24.JPG,AFSA22.JPG,AFSA23.JPG,0,1,1,8,,,,,,,,,,,,,,,,,,,,,,,AMNE02.jpg,AMSA09.jpg,AMSA01.jpg,AMNE12.jpg,AMNE02.jpg,MN,1,num_8,32,num_4,1.08344607335,,,2017_Dec_18_1204,60.0058894238,MAFE4ImagesEEG,001,202633,
AFSA25.JPG,AFNE24.JPG,AFSA24.JPG,AFNE21.JPG,AFSA21.JPG,AFNE25.JPG,0,2,2,2,,,,,,,,,,,,,,,,,,,,,,,AMNE05.jpg,AMSA16.jpg,AMSA18.jpg,AMNE16.jpg,AMSA16.jpg,MS,2,num_6,16,num_6,1.36675563967,,,2017_Dec_18_1204,60.0058894238,MAFE4ImagesEEG,001,202633,
AMSA25.JPG,AMNE24.JPG,AMSA24.JPG,AMNE26.JPG,AMSA21.JPG,AMNE25.JPG,0,3,3,3,,,,,,,,,,,,,,,,,,,,,,,AMSA06.jpg,AMSA10.jpg,AMNE06.jpg,AMNE19.jpg,AMSA06.jpg,MS,2,num_8,32,num_2,1.2667722539,,,2017_Dec_18_1204,60.0058894238,MAFE4ImagesEEG,001,202633,
AFSA21.JPG,AFNE23.JPG,AFNE21.JPG,AFSA25.JPG,AFNE25.JPG,AFSA23.JPG,0,4,4,4,,,,,,,,,,,,,,,,,,,,,,,AMNE08.jpg,AMNE06.jpg,AMSA08.jpg,AMSA11.jpg,AMSA08.jpg,MS,2,num_2,32,num_4,0.70017717639,,,2017_Dec_18_1204,60.0058894238,MAFE4ImagesEEG,001,202633,
AFNE22.JPG,AFSA24.JPG,AFSA22.JPG,AFNE25.JPG,AFNE24.JPG,AFSA25.JPG,0,5,5,6,,,,,,,,,,,,,,,,,,,,,,,AMSA13.jpg,AMSA15.jpg,AMNE07.jpg,AMNE02.jpg,AMNE02.jpg,MN,1,num_4,16,num_4,0.700187760871,,,2017_Dec_18_1204,60.0058894238,MAFE4ImagesEEG,001,202633,
AMNE23.JPG,AMNE24.JPG,AMNE22.JPG,AMSA24.JPG,AMSA22.JPG,AMSA23.JPG,0,6,6,9,,,,,,,,,,,,,,,,,,,,,,,AMSA17.jpg,AMNE20.jpg,AMNE08.jpg,AMSA08.jpg,AMSA08.jpg,MS,2,num_4,16,num_4,1.30007235892,,,2017_Dec_18_1204,60.0058894238,MAFE4ImagesEEG,001,202633,
AFSA21.JPG,AFNE22.JPG,AFNE21.JPG,AFSA23.JPG,AFSA22.JPG,AFNE23.JPG,0,7,7,0,,,,,,,,,,,,,,,,,,,,,,,AMNE11.jpg,AMSA05.jpg,AMNE05.jpg,AMSA17.jpg,AMSA05.jpg,MS,2,num_6,32,num_2,1.61668427521,,,2017_Dec_18_1204,60.0058894238,MAFE4ImagesEEG,001,202633,
AMSA21.JPG,AMNE23.JPG,AMNE21.JPG,AMSA25.JPG,AMNE25.JPG,AMSA23.JPG,0,8,8,5,,,,,,,,,,,,,,,,,,,,,,,AMSA06.jpg,AMNE09.jpg,AMNE01.jpg,AMSA19.jpg,AMNE09.jpg,MN,1,num_6,32,num_8,2.48300627526,,,2017_Dec_18_1204,60.0058894238,MAFE4ImagesEEG,001,202633,
AMNE22.JPG,AMSA24.JPG,AMSA22.JPG,AMNE25.JPG,AMNE24.JPG,AMSA25.JPG,0,9,9,7,,,,,,,,,,,,,,,,,,,,,,,AMNE12.jpg,AMSA09.jpg,AMSA02.jpg,AMNE20.jpg,AMNE20.jpg,MN,1,num_4,32,num_2,1.400055103,,,2017_Dec_18_1204,60.0058894238,MAFE4ImagesEEG,001,202633,
AMSA21.JPG,AMNE22.JPG,AMNE21.JPG,AMSA23.JPG,AMSA22.JPG,AMNE23.JPG,,,,,0,0,0,1,,,,,,,,,,,,,,,,,,,AFSA10.jpg,AFNE10.jpg,AFSA15.jpg,AFNE04.jpg,AFSA10.jpg,FS,4,num_8,32,num_4,0.916788066272,,,2017_Dec_18_1204,60.0058894238,MAFE4ImagesEEG,001,202633,
AFSA25.JPG,AFNE24.JPG,AFSA24.JPG,AFNE21.JPG,AFSA21.JPG,AFNE25.JPG,,,,,0,1,1,2,,,,,,,,,,,,,,,,,,,AFNE07.jpg,AFSA13.jpg,AFNE12.jpg,AFSA10.jpg,AFSA13.jpg,FS,4,num_6,32,num_2,1.53347619064,,,2017_Dec_18_1204,60.0058894238,MAFE4ImagesEEG,001,202633,
AFSA21.JPG,AFNE22.JPG,AFNE21.JPG,AFSA23.JPG,AFSA22.JPG,AFNE23.JPG,,,,,0,2,2,0,,,,,,,,,,,,,,,,,,,AFSA11.jpg,AFNE12.jpg,AFNE19.jpg,AFSA04.jpg,AFSA04.jpg,FS,4,num_4,16,num_4,0.583592009731,,,2017_Dec_18_1204,60.0058894238,MAFE4ImagesEEG,001,202633,
AFNE22.JPG,AFSA24.JPG,AFSA22.JPG,AFNE25.JPG,AFNE24.JPG,AFSA25.JPG,,,,,0,3,3,6,,,,,,,,,,,,,,,,,,,AFSA20.jpg,AFNE02.jpg,AFNE17.jpg,AFSA12.jpg,AFNE17.jpg,FN,3,num_2,32,num_8,1.11672468809,,,2017_Dec_18_1204,60.0058894238,MAFE4ImagesEEG,001,202633,
AMNE22.JPG,AMSA24.JPG,AMSA22.JPG,AMNE25.JPG,AMNE24.JPG,AMSA25.JPG,,,,,0,4,4,7,,,,,,,,,,,,,,,,,,,AFSA05.jpg,AFSA16.jpg,AFNE14.jpg,AFNE05.jpg,AFSA05.jpg,FS,4,num_8,32,num_2,1.2333817007,,,2017_Dec_18_1204,60.0058894238,MAFE4ImagesEEG,001,202633,
AFNE23.JPG,AFNE24.JPG,AFNE22.JPG,AFSA24.JPG,AFSA22.JPG,AFSA23.JPG,,,,,0,5,5,8,,,,,,,,,,,,,,,,,,,AFNE09.jpg,AFSA16.jpg,AFNE08.jpg,AFSA18.jpg,AFSA16.jpg,FS,4,num_6,16,num_6,0.366817221511,,,2017_Dec_18_1204,60.0058894238,MAFE4ImagesEEG,001,202633,
AMSA21.JPG,AMNE23.JPG,AMNE21.JPG,AMSA25.JPG,AMNE25.JPG,AMSA23.JPG,,,,,0,6,6,5,,,,,,,,,,,,,,,,,,,AFSA07.jpg,AFSA17.jpg,AFNE10.jpg,AFNE06.jpg,AFNE10.jpg,FN,3,num_2,32,num_8,1.03331453772,,,2017_Dec_18_1204,60.0058894238,MAFE4ImagesEEG,001,202633,
AMSA25.JPG,AMNE24.JPG,AMSA24.JPG,AMNE26.JPG,AMSA21.JPG,AMNE25.JPG,,,,,0,7,7,3,,,,,,,,,,,,,,,,,,,AFNE19.jpg,AFNE14.jpg,AFSA20.jpg,AFSA05.jpg,AFNE14.jpg,FN,3,num_6,16,num_6,0.683465702459,,,2017_Dec_18_1204,60.0058894238,MAFE4ImagesEEG,001,202633,
AMNE23.JPG,AMNE24.JPG,AMNE22.JPG,AMSA24.JPG,AMSA22.JPG,AMSA23.JPG,,,,,0,8,8,9,,,,,,,,,,,,,,,,,,,AFNE09.jpg,AFSA09.jpg,AFNE06.jpg,AFSA16.jpg,AFNE09.jpg,FN,3,num_8,32,num_2,0.867211089469,,,2017_Dec_18_1204,60.0058894238,MAFE4ImagesEEG,001,202633,
AFSA21.JPG,AFNE23.JPG,AFNE21.JPG,AFSA25.JPG,AFNE25.JPG,AFSA23.JPG,,,,,0,9,9,4,,,,,,,,,,,,,,,,,,,AFSA13.jpg,AFNE08.jpg,AFSA04.jpg,AFNE14.jpg,AFNE14.jpg,FN,3,num_4,32,num_6,0.949803034309,,,2017_Dec_18_1204,60.0058894238,MAFE4ImagesEEG,001,202633,
AFNE22.JPG,AFSA24.JPG,AFSA22.JPG,AFNE25.JPG,AFNE24.JPG,AFSA25.JPG,,,,,,,,,0,0,0,6,,,,,,,,,,,,,,,AMNE03.jpg,AMSA09.jpg,AMSA05.jpg,AMNE09.jpg,AMSA09.jpg,MS,2,num_6,16,num_6,1.18345575919,,,2017_Dec_18_1204,60.0058894238,MAFE4ImagesEEG,001,202633,
AFNE23.JPG,AFNE24.JPG,AFNE22.JPG,AFSA24.JPG,AFSA22.JPG,AFSA23.JPG,,,,,,,,,0,1,1,8,,,,,,,,,,,,,,,AMNE07.jpg,AMNE15.jpg,AMSA09.jpg,AMSA19.jpg,AMNE07.jpg,MN,1,num_8,16,num_8,1.08344992204,,,2017_Dec_18_1204,60.0058894238,MAFE4ImagesEEG,001,202633,
AMSA21.JPG,AMNE22.JPG,AMNE21.JPG,AMSA23.JPG,AMSA22.JPG,AMNE23.JPG,,,,,,,,,0,2,2,1,,,,,,,,,,,,,,,AMNE02.jpg,AMNE04.jpg,AMSA18.jpg,AMSA09.jpg,AMNE02.jpg,MN,1,num_8,16,num_8,2.03362437198,,,2017_Dec_18_1204,60.0058894238,MAFE4ImagesEEG,001,202633,
AMNE22.JPG,AMSA24.JPG,AMSA22.JPG,AMNE25.JPG,AMNE24.JPG,AMSA25.JPG,,,,,,,,,0,3,3,7,,,,,,,,,,,,,,,AMNE19.jpg,AMSA01.jpg,AMSA13.jpg,AMNE05.jpg,AMSA01.jpg,MS,2,num_6,16,num_6,1.41676818021,,,2017_Dec_18_1204,60.0058894238,MAFE4ImagesEEG,001,202633,
AFSA21.JPG,AFNE23.JPG,AFNE21.JPG,AFSA25.JPG,AFNE25.JPG,AFSA23.JPG,,,,,,,,,0,4,4,4,,,,,,,,,,,,,,,AMNE15.jpg,AMSA04.jpg,AMSA18.jpg,AMNE05.jpg,AMSA18.jpg,MS,2,num_2,16,num_2,0.800121110864,,,2017_Dec_18_1204,60.0058894238,MAFE4ImagesEEG,001,202633,
AMSA21.JPG,AMNE23.JPG,AMNE21.JPG,AMSA25.JPG,AMNE25.JPG,AMSA23.JPG,,,,,,,,,0,5,5,5,,,,,,,,,,,,,,,AMNE16.jpg,AMSA01.jpg,AMNE09.jpg,AMSA07.jpg,AMNE16.jpg,MN,1,num_8,16,num_8,1.11678113835,,,2017_Dec_18_1204,60.0058894238,MAFE4ImagesEEG,001,202633,
AFSA25.JPG,AFNE24.JPG,AFSA24.JPG,AFNE21.JPG,AFSA21.JPG,AFNE25.JPG,,,,,,,,,0,6,6,2,,,,,,,,,,,,,,,AMNE12.jpg,AMSA11.jpg,AMNE15.jpg,AMSA02.jpg,AMNE12.jpg,MN,1,num_8,32,num_2,0.883519393858,,,2017_Dec_18_1204,60.0058894238,MAFE4ImagesEEG,001,202633,
AMSA25.JPG,AMNE24.JPG,AMSA24.JPG,AMNE26.JPG,AMSA21.JPG,AMNE25.JPG,,,,,,,,,0,7,7,3,,,,,,,,,,,,,,,AMSA03.jpg,AMNE19.jpg,AMNE06.jpg,AMSA11.jpg,AMSA11.jpg,MS,2,num_4,16,num_4,0.600022836588,,,2017_Dec_18_1204,60.0058894238,MAFE4ImagesEEG,001,202633,
AFSA21.JPG,AFNE22.JPG,AFNE21.JPG,AFSA23.JPG,AFSA22.JPG,AFNE23.JPG,,,,,,,,,0,8,8,0,,,,,,,,,,,,,,,AMSA04.jpg,AMSA17.jpg,AMNE02.jpg,AMNE19.jpg,AMNE19.jpg,MN,1,num_4,32,num_2,0.966736459639,,,2017_Dec_18_1204,60.0058894238,MAFE4ImagesEEG,001,202633,
AMNE23.JPG,AMNE24.JPG,AMNE22.JPG,AMSA24.JPG,AMSA22.JPG,AMSA23.JPG,,,,,,,,,0,9,9,9,,,,,,,,,,,,,,,AMSA09.jpg,AMNE16.jpg,AMSA16.jpg,AMNE11.jpg,AMSA09.jpg,MS,2,num_8,32,num_6,0.750161492266,,,2017_Dec_18_1204,60.0058894238,MAFE4ImagesEEG,001,202633,
AFSA21.JPG,AFNE23.JPG,AFNE21.JPG,AFSA25.JPG,AFNE25.JPG,AFSA23.JPG,,,,,,,,,,,,,0,0,0,4,,,,,,,,,,,AFSA20.jpg,AFSA16.jpg,AFNE06.jpg,AFNE09.jpg,AFSA20.jpg,FS,4,num_8,32,num_6,3.3499399256,,,2017_Dec_18_1204,60.0058894238,MAFE4ImagesEEG,001,202633,
AMSA21.JPG,AMNE22.JPG,AMNE21.JPG,AMSA23.JPG,AMSA22.JPG,AMNE23.JPG,,,,,,,,,,,,,0,1,1,1,,,,,,,,,,,AFNE18.jpg,AFSA16.jpg,AFNE15.jpg,AFSA13.jpg,AFSA16.jpg,FS,4,num_6,16,num_6,0.980168375187,,,2017_Dec_18_1204,60.0058894238,MAFE4ImagesEEG,001,202633,
AFSA21.JPG,AFNE22.JPG,AFNE21.JPG,AFSA23.JPG,AFSA22.JPG,AFNE23.JPG,,,,,,,,,,,,,0,2,2,0,,,,,,,,,,,AFSA16.jpg,AFNE05.jpg,AFNE07.jpg,AFSA18.jpg,AFSA18.jpg,FS,4,num_4,16,num_4,1.1168289287,,,2017_Dec_18_1204,60.0058894238,MAFE4ImagesEEG,001,202633,
AMSA25.JPG,AMNE24.JPG,AMSA24.JPG,AMNE26.JPG,AMSA21.JPG,AMNE25.JPG,,,,,,,,,,,,,0,3,3,3,,,,,,,,,,,AFNE16.jpg,AFSA03.jpg,AFSA01.jpg,AFNE01.jpg,AFSA03.jpg,FS,4,num_6,16,num_6,0.8667726391,,,2017_Dec_18_1204,60.0058894238,MAFE4ImagesEEG,001,202633,
AMNE22.JPG,AMSA24.JPG,AMSA22.JPG,AMNE25.JPG,AMNE24.JPG,AMSA25.JPG,,,,,,,,,,,,,0,4,4,7,,,,,,,,,,,AFNE04.jpg,AFNE10.jpg,AFSA15.jpg,AFSA18.jpg,AFSA15.jpg,FS,4,num_2,16,num_2,0.650165597443,,,2017_Dec_18_1204,60.0058894238,MAFE4ImagesEEG,001,202633,
AFSA25.JPG,AFNE24.JPG,AFSA24.JPG,AFNE21.JPG,AFSA21.JPG,AFNE25.JPG,,,,,,,,,,,,,0,5,5,2,,,,,,,,,,,AFNE06.jpg,AFSA18.jpg,AFSA19.jpg,AFNE02.jpg,AFNE06.jpg,FN,3,num_8,32,num_4,0.816818472464,,,2017_Dec_18_1204,60.0058894238,MAFE4ImagesEEG,001,202633,
AFNE23.JPG,AFNE24.JPG,AFNE22.JPG,AFSA24.JPG,AFSA22.JPG,AFSA23.JPG,,,,,,,,,,,,,0,6,6,8,,,,,,,,,,,AFNE10.jpg,AFSA08.jpg,AFNE12.jpg,AFSA06.jpg,AFSA06.jpg,FS,4,num_4,32,num_6,1.15006167814,,,2017_Dec_18_1204,60.0058894238,MAFE4ImagesEEG,001,202633,
AMSA21.JPG,AMNE23.JPG,AMNE21.JPG,AMSA25.JPG,AMNE25.JPG,AMSA23.JPG,,,,,,,,,,,,,0,7,7,5,,,,,,,,,,,AFNE18.jpg,AFNE04.jpg,AFSA05.jpg,AFSA10.jpg,AFNE18.jpg,FN,3,num_8,16,num_8,1.13346053846,,,2017_Dec_18_1204,60.0058894238,MAFE4ImagesEEG,001,202633,
AFNE22.JPG,AFSA24.JPG,AFSA22.JPG,AFNE25.JPG,AFNE24.JPG,AFSA25.JPG,,,,,,,,,,,,,0,8,8,6,,,,,,,,,,,AFNE19.jpg,AFNE01.jpg,AFSA07.jpg,AFSA03.jpg,AFSA03.jpg,FS,4,num_4,32,num_6,1.63344578445,,,2017_Dec_18_1204,60.0058894238,MAFE4ImagesEEG,001,202633,
AMNE23.JPG,AMNE24.JPG,AMNE22.JPG,AMSA24.JPG,AMSA22.JPG,AMSA23.JPG,,,,,,,,,,,,,0,9,9,9,,,,,,,,,,,AFNE14.jpg,AFSA09.jpg,AFSA02.jpg,AFNE11.jpg,AFNE11.jpg,FN,3,num_4,16,num_4,1.03344411682,,,2017_Dec_18_1204,60.0058894238,MAFE4ImagesEEG,001,202633,
AFNE23.JPG,AFNE24.JPG,AFNE22.JPG,AFSA24.JPG,AFSA22.JPG,AFSA23.JPG,,,,,,,,,,,,,,,,,0,0,0,8,,,,,,,AMSA11.jpg,AMNE14.jpg,AMNE09.jpg,AMSA10.jpg,AMSA11.jpg,MS,2,num_8,32,num_4,0.899822887499,,,2017_Dec_18_1204,60.0058894238,MAFE4ImagesEEG,001,202633,
AMNE23.JPG,AMNE24.JPG,AMNE22.JPG,AMSA24.JPG,AMSA22.JPG,AMSA23.JPG,,,,,,,,,,,,,,,,,0,1,1,9,,,,,,,AMNE18.jpg,AMSA13.jpg,AMNE01.jpg,AMSA10.jpg,AMSA13.jpg,MS,2,num_6,32,num_2,1.0167826782,,,2017_Dec_18_1204,60.0058894238,MAFE4ImagesEEG,001,202633,
AFNE22.JPG,AFSA24.JPG,AFSA22.JPG,AFNE25.JPG,AFNE24.JPG,AFSA25.JPG,,,,,,,,,,,,,,,,,0,2,2,6,,,,,,,AMSA08.jpg,AMNE12.jpg,AMSA07.jpg,AMNE13.jpg,AMNE13.jpg,MN,1,num_4,16,num_4,1.96679836186,,,2017_Dec_18_1204,60.0058894238,MAFE4ImagesEEG,001,202633,
AMNE22.JPG,AMSA24.JPG,AMSA22.JPG,AMNE25.JPG,AMNE24.JPG,AMSA25.JPG,,,,,,,,,,,,,,,,,0,3,3,7,,,,,,,AMSA07.jpg,AMNE18.jpg,AMNE12.jpg,AMSA14.jpg,AMNE18.jpg,MN,1,num_6,32,num_2,1.35036747064,,,2017_Dec_18_1204,60.0058894238,MAFE4ImagesEEG,001,202633,
AMSA25.JPG,AMNE24.JPG,AMSA24.JPG,AMNE26.JPG,AMSA21.JPG,AMNE25.JPG,,,,,,,,,,,,,,,,,0,4,4,3,,,,,,,AMNE15.jpg,AMSA04.jpg,AMSA13.jpg,AMNE16.jpg,AMNE16.jpg,MN,1,num_4,16,num_4,0.900083648507,,,2017_Dec_18_1204,60.0058894238,MAFE4ImagesEEG,001,202633,
AFSA21.JPG,AFNE22.JPG,AFNE21.JPG,AFSA23.JPG,AFSA22.JPG,AFNE23.JPG,,,,,,,,,,,,,,,,,0,5,5,0,,,,,,,AMSA17.jpg,AMNE06.jpg,AMNE19.jpg,AMSA16.jpg,AMSA17.jpg,MS,2,num_8,32,num_6,3.68321905378,,,2017_Dec_18_1204,60.0058894238,MAFE4ImagesEEG,001,202633,
AMSA21.JPG,AMNE23.JPG,AMNE21.JPG,AMSA25.JPG,AMNE25.JPG,AMSA23.JPG,,,,,,,,,,,,,,,,,0,6,6,5,,,,,,,AMNE15.jpg,AMSA19.jpg,AMSA08.jpg,AMNE17.jpg,AMNE17.jpg,MN,1,num_4,16,num_4,0.883537997026,,,2017_Dec_18_1204,60.0058894238,MAFE4ImagesEEG,001,202633,
AFSA25.JPG,AFNE24.JPG,AFSA24.JPG,AFNE21.JPG,AFSA21.JPG,AFNE25.JPG,,,,,,,,,,,,,,,,,0,7,7,2,,,,,,,AMNE10.jpg,AMSA06.jpg,AMSA09.jpg,AMNE04.jpg,AMSA09.jpg,MS,2,num_2,16,num_2,1.21700860653,,,2017_Dec_18_1204,60.0058894238,MAFE4ImagesEEG,001,202633,
AMSA21.JPG,AMNE22.JPG,AMNE21.JPG,AMSA23.JPG,AMSA22.JPG,AMNE23.JPG,,,,,,,,,,,,,,,,,0,8,8,1,,,,,,,AMSA20.jpg,AMNE07.jpg,AMNE11.jpg,AMSA07.jpg,AMSA07.jpg,MS,2,num_4,16,num_4,1.71679178672,,,2017_Dec_18_1204,60.0058894238,MAFE4ImagesEEG,001,202633,
AFSA21.JPG,AFNE23.JPG,AFNE21.JPG,AFSA25.JPG,AFNE25.JPG,AFSA23.JPG,,,,,,,,,,,,,,,,,0,9,9,4,,,,,,,AMNE05.jpg,AMSA08.jpg,AMNE15.jpg,AMSA19.jpg,AMNE05.jpg,MN,1,num_8,32,num_6,1.08348841034,,,2017_Dec_18_1204,60.0058894238,MAFE4ImagesEEG,001,202633,
AMNE23.JPG,AMNE24.JPG,AMNE22.JPG,AMSA24.JPG,AMSA22.JPG,AMSA23.JPG,,,,,,,,,,,,,,,,,,,,,0,0,0,9,,,AFSA10.jpg,AFSA13.jpg,AFNE20.jpg,AFNE10.jpg,AFNE10.jpg,FN,3,num_4,32,num_8,1.0501417988,,,2017_Dec_18_1204,60.0058894238,MAFE4ImagesEEG,001,202633,
AFNE23.JPG,AFNE24.JPG,AFNE22.JPG,AFSA24.JPG,AFSA22.JPG,AFSA23.JPG,,,,,,,,,,,,,,,,,,,,,0,1,1,8,,,AFSA08.jpg,AFNE01.jpg,AFSA13.jpg,AFNE16.jpg,AFSA13.jpg,FS,4,num_2,16,num_2,0.716795956716,,,2017_Dec_18_1204,60.0058894238,MAFE4ImagesEEG,001,202633,
AFNE22.JPG,AFSA24.JPG,AFSA22.JPG,AFNE25.JPG,AFNE24.JPG,AFSA25.JPG,,,,,,,,,,,,,,,,,,,,,0,2,2,6,,,AFNE20.jpg,AFNE06.jpg,AFSA15.jpg,AFSA11.jpg,AFSA15.jpg,FS,4,num_2,16,num_2,1.01679614931,,,2017_Dec_18_1204,60.0058894238,MAFE4ImagesEEG,001,202633,
AFSA21.JPG,AFNE22.JPG,AFNE21.JPG,AFSA23.JPG,AFSA22.JPG,AFNE23.JPG,,,,,,,,,,,,,,,,,,,,,0,3,3,0,,,AFNE11.jpg,AFSA07.jpg,AFSA03.jpg,AFNE16.jpg,AFNE11.jpg,FN,3,num_8,16,num_8,1.10010270076,,,2017_Dec_18_1204,60.0058894238,MAFE4ImagesEEG,001,202633,
AMSA25.JPG,AMNE24.JPG,AMSA24.JPG,AMNE26.JPG,AMSA21.JPG,AMNE25.JPG,,,,,,,,,,,,,,,,,,,,,0,4,4,3,,,AFNE12.jpg,AFSA08.jpg,AFSA13.jpg,AFNE08.jpg,AFNE08.jpg,FN,3,num_4,16,num_4,1.26672189822,,,2017_Dec_18_1204,60.0058894238,MAFE4ImagesEEG,001,202633,
AMNE22.JPG,AMSA24.JPG,AMSA22.JPG,AMNE25.JPG,AMNE24.JPG,AMSA25.JPG,,,,,,,,,,,,,,,,,,,,,0,5,5,7,,,AFSA15.jpg,AFSA07.jpg,AFNE02.jpg,AFNE01.jpg,AFSA15.jpg,FS,4,num_8,32,num_2,1.13345540641,,,2017_Dec_18_1204,60.0058894238,MAFE4ImagesEEG,001,202633,
AFSA25.JPG,AFNE24.JPG,AFSA24.JPG,AFNE21.JPG,AFSA21.JPG,AFNE25.JPG,,,,,,,,,,,,,,,,,,,,,0,6,6,2,,,AFSA15.jpg,AFNE06.jpg,AFSA11.jpg,AFNE01.jpg,AFSA11.jpg,FS,4,num_2,32,num_4,2.13335854327,,,2017_Dec_18_1204,60.0058894238,MAFE4ImagesEEG,001,202633,
AFSA21.JPG,AFNE23.JPG,AFNE21.JPG,AFSA25.JPG,AFNE25.JPG,AFSA23.JPG,,,,,,,,,,,,,,,,,,,,,0,7,7,4,,,AFNE08.jpg,AFNE20.jpg,AFSA08.jpg,AFSA12.jpg,AFSA12.jpg,FS,4,num_4,16,num_4,1.20017236518,,,2017_Dec_18_1204,60.0058894238,MAFE4ImagesEEG,001,202633,
AMSA21.JPG,AMNE22.JPG,AMNE21.JPG,AMSA23.JPG,AMSA22.JPG,AMNE23.JPG,,,,,,,,,,,,,,,,,,,,,0,8,8,1,,,AFNE05.jpg,AFNE08.jpg,AFSA11.jpg,AFSA16.jpg,AFSA11.jpg,FS,4,num_2,16,num_2,0.683435873594,,,2017_Dec_18_1204,60.0058894238,MAFE4ImagesEEG,001,202633,
AMSA21.JPG,AMNE23.JPG,AMNE21.JPG,AMSA25.JPG,AMNE25.JPG,AMSA23.JPG,,,,,,,,,,,,,,,,,,,,,0,9,9,5,,,AFNE01.jpg,AFSA19.jpg,AFSA20.jpg,AFNE18.jpg,AFNE18.jpg,FN,3,num_4,16,num_4,1.61675451742,,,2017_Dec_18_1204,60.0058894238,MAFE4ImagesEEG,001,202633,
,,,,,,,,,,,,,,,,,,,,,,,,,,,,,,,,,,,,,,,,,,,space,2.86665139953,2017_Dec_18_1204,60.0058894238,MAFE4ImagesEEG,001,202633,
AFNE01.JPG,AFNE01.JPG,AFNE01.JPG,AFNE01.JPG,AFNE01.JPG,AFNE01.JPG,0,0,0,1,,,,,,,,,,,,,,,,,,,,,,,AMNE13.jpg,AMNE12.jpg,AMSA08.jpg,AMSA03.jpg,AMSA03.jpg,MS,2,num_4,16,num_4,0.483512081206,,,2017_Dec_18_1204,60.0058894238,MAFE4ImagesEEG,001,202633,
AFNE01.JPG,AFNE01.JPG,AFNE01.JPG,AFNE01.JPG,AFNE01.JPG,AFNE01.JPG,0,1,1,2,,,,,,,,,,,,,,,,,,,,,,,AMNE07.jpg,AMNE18.jpg,AMSA12.jpg,AMSA10.jpg,AMNE18.jpg,MN,1,num_6,16,num_6,0.816774531268,,,2017_Dec_18_1204,60.0058894238,MAFE4ImagesEEG,001,202633,
AFNE01.JPG,AFNE01.JPG,AFNE01.JPG,AFNE01.JPG,AFNE01.JPG,AFNE01.JPG,0,2,2,4,,,,,,,,,,,,,,,,,,,,,,,AMNE17.jpg,AMSA12.jpg,AMSA06.jpg,AMNE20.jpg,AMSA12.jpg,MS,2,num_6,16,num_6,0.98347808281,,,2017_Dec_18_1204,60.0058894238,MAFE4ImagesEEG,001,202633,
AFNE01.JPG,AFNE01.JPG,AFNE01.JPG,AFNE01.JPG,AFNE01.JPG,AFNE01.JPG,0,3,3,9,,,,,,,,,,,,,,,,,,,,,,,AMNE03.jpg,AMNE06.jpg,AMSA12.jpg,AMSA07.jpg,AMSA07.jpg,MS,2,num_4,16,num_4,0.950150073972,,,2017_Dec_18_1204,60.0058894238,MAFE4ImagesEEG,001,202633,
AFNE01.JPG,AFNE01.JPG,AFNE01.JPG,AFNE01.JPG,AFNE01.JPG,AFNE01.JPG,0,4,4,5,,,,,,,,,,,,,,,,,,,,,,,AMNE02.jpg,AMSA11.jpg,AMNE05.jpg,AMSA17.jpg,AMSA11.jpg,MS,2,num_6,16,num_6,1.11673591426,,,2017_Dec_18_1204,60.0058894238,MAFE4ImagesEEG,001,202633,
AFNE01.JPG,AFNE01.JPG,AFNE01.JPG,AFNE01.JPG,AFNE01.JPG,AFNE01.JPG,0,5,5,8,,,,,,,,,,,,,,,,,,,,,,,AMSA12.jpg,AMSA02.jpg,AMNE19.jpg,AMNE17.jpg,AMNE19.jpg,MN,1,num_2,32,num_8,1.10010526702,,,2017_Dec_18_1204,60.0058894238,MAFE4ImagesEEG,001,202633,
AFNE01.JPG,AFNE01.JPG,AFNE01.JPG,AFNE01.JPG,AFNE01.JPG,AFNE01.JPG,0,6,6,7,,,,,,,,,,,,,,,,,,,,,,,AMNE08.jpg,AMNE06.jpg,AMSA01.jpg,AMSA20.jpg,AMNE08.jpg,MN,1,num_8,16,num_8,1.48346685665,,,2017_Dec_18_1204,60.0058894238,MAFE4ImagesEEG,001,202633,
AFNE01.JPG,AFNE01.JPG,AFNE01.JPG,AFNE01.JPG,AFNE01.JPG,AFNE01.JPG,0,7,7,0,,,,,,,,,,,,,,,,,,,,,,,AMNE13.jpg,AMSA06.jpg,AMSA05.jpg,AMNE10.jpg,AMNE13.jpg,MN,1,num_8,16,num_8,2.46663638903,,,2017_Dec_18_1204,60.0058894238,MAFE4ImagesEEG,001,202633,
AFNE01.JPG,AFNE01.JPG,AFNE01.JPG,AFNE01.JPG,AFNE01.JPG,AFNE01.JPG,0,8,8,3,,,,,,,,,,,,,,,,,,,,,,,AMNE04.jpg,AMSA09.jpg,AMNE14.jpg,AMSA03.jpg,AMNE14.jpg,MN,1,num_2,16,num_2,0.400138174184,,,2017_Dec_18_1204,60.0058894238,MAFE4ImagesEEG,001,202633,
AFNE01.JPG,AFNE01.JPG,AFNE01.JPG,AFNE01.JPG,AFNE01.JPG,AFNE01.JPG,0,9,9,6,,,,,,,,,,,,,,,,,,,,,,,AMSA17.jpg,AMNE08.jpg,AMSA06.jpg,AMNE17.jpg,AMNE08.jpg,MN,1,num_6,16,num_6,1.16673081415,,,2017_Dec_18_1204,60.0058894238,MAFE4ImagesEEG,001,202633,
AFNE01.JPG,AFNE01.JPG,AFNE01.JPG,AFNE01.JPG,AFNE01.JPG,AFNE01.JPG,1,0,10,2,,,,,,,,,,,,,,,,,,,,,,,AMNE04.jpg,AMSA08.jpg,AMSA12.jpg,AMNE08.jpg,AMSA08.jpg,MS,2,num_6,32,num_4,0.833427309524,,,2017_Dec_18_1204,60.0058894238,MAFE4ImagesEEG,001,202633,
AFNE01.JPG,AFNE01.JPG,AFNE01.JPG,AFNE01.JPG,AFNE01.JPG,AFNE01.JPG,1,1,11,4,,,,,,,,,,,,,,,,,,,,,,,AMSA10.jpg,AMNE16.jpg,AMSA06.jpg,AMNE15.jpg,AMSA06.jpg,MS,2,num_2,32,num_8,0.866526632104,,,2017_Dec_18_1204,60.0058894238,MAFE4ImagesEEG,001,202633,
AFNE01.JPG,AFNE01.JPG,AFNE01.JPG,AFNE01.JPG,AFNE01.JPG,AFNE01.JPG,1,2,12,0,,,,,,,,,,,,,,,,,,,,,,,AMSA20.jpg,AMNE08.jpg,AMNE17.jpg,AMSA06.jpg,AMNE17.jpg,MN,1,num_2,16,num_2,1.58352401294,,,2017_Dec_18_1204,60.0058894238,MAFE4ImagesEEG,001,202633,
AFNE01.JPG,AFNE01.JPG,AFNE01.JPG,AFNE01.JPG,AFNE01.JPG,AFNE01.JPG,1,3,13,3,,,,,,,,,,,,,,,,,,,,,,,AMSA18.jpg,AMNE16.jpg,AMSA11.jpg,AMNE06.jpg,AMSA11.jpg,MS,2,num_2,32,num_6,1.16674781358,,,2017_Dec_18_1204,60.0058894238,MAFE4ImagesEEG,001,202633,
AFNE01.JPG,AFNE01.JPG,AFNE01.JPG,AFNE01.JPG,AFNE01.JPG,AFNE01.JPG,1,4,14,9,,,,,,,,,,,,,,,,,,,,,,,AMSA09.jpg,AMNE19.jpg,AMNE02.jpg,AMSA08.jpg,AMNE19.jpg,MN,1,num_6,32,num_8,0.950143338647,,,2017_Dec_18_1204,60.0058894238,MAFE4ImagesEEG,001,202633,
AFNE01.JPG,AFNE01.JPG,AFNE01.JPG,AFNE01.JPG,AFNE01.JPG,AFNE01.JPG,1,5,15,6,,,,,,,,,,,,,,,,,,,,,,,AMSA02.jpg,AMNE13.jpg,AMNE07.jpg,AMSA15.jpg,AMSA15.jpg,MS,2,num_4,32,num_2,1.40012855222,,,2017_Dec_18_1204,60.0058894238,MAFE4ImagesEEG,001,202633,
AFNE01.JPG,AFNE01.JPG,AFNE01.JPG,AFNE01.JPG,AFNE01.JPG,AFNE01.JPG,1,6,16,1,,,,,,,,,,,,,,,,,,,,,,,AMSA05.jpg,AMSA02.jpg,AMNE01.jpg,AMNE16.jpg,AMNE01.jpg,MN,1,num_2,32,num_6,1.51668164507,,,2017_Dec_18_1204,60.0058894238,MAFE4ImagesEEG,001,202633,
AFNE01.JPG,AFNE01.JPG,AFNE01.JPG,AFNE01.JPG,AFNE01.JPG,AFNE01.JPG,1,7,17,8,,,,,,,,,,,,,,,,,,,,,,,AMSA02.jpg,AMNE10.jpg,AMNE16.jpg,AMSA15.jpg,AMSA02.jpg,MS,2,num_8,16,num_8,1.01674547233,,,2017_Dec_18_1204,60.0058894238,MAFE4ImagesEEG,001,202633,
AFNE01.JPG,AFNE01.JPG,AFNE01.JPG,AFNE01.JPG,AFNE01.JPG,AFNE01.JPG,1,8,18,7,,,,,,,,,,,,,,,,,,,,,,,AMNE05.jpg,AMNE12.jpg,AMSA01.jpg,AMSA09.jpg,AMNE05.jpg,MN,1,num_8,32,num_4,1.95006347448,,,2017_Dec_18_1204,60.0058894238,MAFE4ImagesEEG,001,202633,
AFNE01.JPG,AFNE01.JPG,AFNE01.JPG,AFNE01.JPG,AFNE01.JPG,AFNE01.JPG,1,9,19,5,,,,,,,,,,,,,,,,,,,,,,,AMNE14.jpg,AMSA02.jpg,AMSA17.jpg,AMNE01.jpg,AMSA02.jpg,MS,2,num_6,16,num_6,1.10013413336,,,2017_Dec_18_1204,60.0058894238,MAFE4ImagesEEG,001,202633,
AFNE01.JPG,AFNE01.JPG,AFNE01.JPG,AFNE01.JPG,AFNE01.JPG,AFNE01.JPG,2,0,20,9,,,,,,,,,,,,,,,,,,,,,,,AMNE14.jpg,AMSA11.jpg,AMNE13.jpg,AMSA06.jpg,AMNE13.jpg,MN,1,num_2,16,num_2,0.983449858148,,,2017_Dec_18_1204,60.0058894238,MAFE4ImagesEEG,001,202633,
AFNE01.JPG,AFNE01.JPG,AFNE01.JPG,AFNE01.JPG,AFNE01.JPG,AFNE01.JPG,2,1,21,1,,,,,,,,,,,,,,,,,,,,,,,AMSA17.jpg,AMNE08.jpg,AMNE06.jpg,AMSA07.jpg,AMNE08.jpg,MN,1,num_6,32,num_2,0.966856415849,,,2017_Dec_18_1204,60.0058894238,MAFE4ImagesEEG,001,202633,
AFNE01.JPG,AFNE01.JPG,AFNE01.JPG,AFNE01.JPG,AFNE01.JPG,AFNE01.JPG,2,2,22,5,,,,,,,,,,,,,,,,,,,,,,,AMSA11.jpg,AMNE08.jpg,AMSA08.jpg,AMNE01.jpg,AMSA11.jpg,MS,2,num_8,32,num_6,0.916666506324,,,2017_Dec_18_1204,60.0058894238,MAFE4ImagesEEG,001,202633,
AFNE01.JPG,AFNE01.JPG,AFNE01.JPG,AFNE01.JPG,AFNE01.JPG,AFNE01.JPG,2,3,23,2,,,,,,,,,,,,,,,,,,,,,,,AMNE07.jpg,AMSA02.jpg,AMSA09.jpg,AMNE10.jpg,AMSA09.jpg,MS,2,num_2,16,num_2,0.91680025449,,,2017_Dec_18_1204,60.0058894238,MAFE4ImagesEEG,001,202633,
AFNE01.JPG,AFNE01.JPG,AFNE01.JPG,AFNE01.JPG,AFNE01.JPG,AFNE01.JPG,2,4,24,0,,,,,,,,,,,,,,,,,,,,,,,AMNE18.jpg,AMSA17.jpg,AMSA15.jpg,AMNE07.jpg,AMSA17.jpg,MS,2,num_6,16,num_6,0.850093559828,,,2017_Dec_18_1204,60.0058894238,MAFE4ImagesEEG,001,202633,
AFNE01.JPG,AFNE01.JPG,AFNE01.JPG,AFNE01.JPG,AFNE01.JPG,AFNE01.JPG,2,5,25,4,,,,,,,,,,,,,,,,,,,,,,,AMSA10.jpg,AMSA15.jpg,AMNE03.jpg,AMNE08.jpg,AMNE03.jpg,MN,1,num_2,32,num_4,1.25008259015,,,2017_Dec_18_1204,60.0058894238,MAFE4ImagesEEG,001,202633,
AFNE01.JPG,AFNE01.JPG,AFNE01.JPG,AFNE01.JPG,AFNE01.JPG,AFNE01.JPG,2,6,26,8,,,,,,,,,,,,,,,,,,,,,,,AMNE14.jpg,AMNE04.jpg,AMSA14.jpg,AMSA18.jpg,AMNE14.jpg,MN,1,num_8,32,num_2,0.76683511911,,,2017_Dec_18_1204,60.0058894238,MAFE4ImagesEEG,001,202633,
AFNE01.JPG,AFNE01.JPG,AFNE01.JPG,AFNE01.JPG,AFNE01.JPG,AFNE01.JPG,2,7,27,7,,,,,,,,,,,,,,,,,,,,,,,AMSA19.jpg,AMNE02.jpg,AMSA06.jpg,AMNE07.jpg,AMNE07.jpg,MN,1,num_4,32,num_8,1.61671185913,,,2017_Dec_18_1204,60.0058894238,MAFE4ImagesEEG,001,202633,
AFNE01.JPG,AFNE01.JPG,AFNE01.JPG,AFNE01.JPG,AFNE01.JPG,AFNE01.JPG,2,8,28,6,,,,,,,,,,,,,,,,,,,,,,,AMNE01.jpg,AMNE07.jpg,AMSA13.jpg,AMSA12.jpg,AMSA13.jpg,MS,2,num_2,32,num_4,1.10013894411,,,2017_Dec_18_1204,60.0058894238,MAFE4ImagesEEG,001,202633,
AFNE01.JPG,AFNE01.JPG,AFNE01.JPG,AFNE01.JPG,AFNE01.JPG,AFNE01.JPG,2,9,29,3,,,,,,,,,,,,,,,,,,,,,,,AMSA05.jpg,AMNE08.jpg,AMSA14.jpg,AMNE03.jpg,AMNE08.jpg,MN,1,num_6,32,num_2,1.10015466064,,,2017_Dec_18_1204,60.0058894238,MAFE4ImagesEEG,001,202633,
AFNE01.JPG,AFNE01.JPG,AFNE01.JPG,AFNE01.JPG,AFNE01.JPG,AFNE01.JPG,3,0,30,0,,,,,,,,,,,,,,,,,,,,,,,AMNE16.jpg,AMSA09.jpg,AMSA14.jpg,AMNE14.jpg,AMSA09.jpg,MS,2,num_6,16,num_6,1.5832988536,,,2017_Dec_18_1204,60.0058894238,MAFE4ImagesEEG,001,202633,
AFNE01.JPG,AFNE01.JPG,AFNE01.JPG,AFNE01.JPG,AFNE01.JPG,AFNE01.JPG,3,1,31,8,,,,,,,,,,,,,,,,,,,,,,,AMNE19.jpg,AMNE20.jpg,AMSA10.jpg,AMSA08.jpg,AMSA10.jpg,MS,2,num_2,32,num_4,2.13341980428,,,2017_Dec_18_1204,60.0058894238,MAFE4ImagesEEG,001,202633,
AFNE01.JPG,AFNE01.JPG,AFNE01.JPG,AFNE01.JPG,AFNE01.JPG,AFNE01.JPG,3,2,32,6,,,,,,,,,,,,,,,,,,,,,,,AMSA07.jpg,AMNE18.jpg,AMNE20.jpg,AMSA13.jpg,AMNE20.jpg,MN,1,num_2,32,num_6,1.6163122179,,,2017_Dec_18_1204,60.0058894238,MAFE4ImagesEEG,001,202633,
AFNE01.JPG,AFNE01.JPG,AFNE01.JPG,AFNE01.JPG,AFNE01.JPG,AFNE01.JPG,3,3,33,1,,,,,,,,,,,,,,,,,,,,,,,AMSA19.jpg,AMNE13.jpg,AMNE02.jpg,AMSA02.jpg,AMSA19.jpg,MS,2,num_8,16,num_8,2.18335344363,,,2017_Dec_18_1204,60.0058894238,MAFE4ImagesEEG,001,202633,
AFNE01.JPG,AFNE01.JPG,AFNE01.JPG,AFNE01.JPG,AFNE01.JPG,AFNE01.JPG,3,4,34,7,,,,,,,,,,,,,,,,,,,,,,,AMNE04.jpg,AMSA01.jpg,AMSA17.jpg,AMNE14.jpg,AMNE04.jpg,MN,1,num_8,32,num_6,1.11677312013,,,2017_Dec_18_1204,60.0058894238,MAFE4ImagesEEG,001,202633,
AFNE01.JPG,AFNE01.JPG,AFNE01.JPG,AFNE01.JPG,AFNE01.JPG,AFNE01.JPG,3,5,35,2,,,,,,,,,,,,,,,,,,,,,,,AMSA17.jpg,AMNE06.jpg,AMSA03.jpg,AMNE19.jpg,AMSA17.jpg,MS,2,num_8,32,num_2,1.36671522632,,,2017_Dec_18_1204,60.0058894238,MAFE4ImagesEEG,001,202633,
AFNE01.JPG,AFNE01.JPG,AFNE01.JPG,AFNE01.JPG,AFNE01.JPG,AFNE01.JPG,3,6,36,3,,,,,,,,,,,,,,,,,,,,,,,AMNE14.jpg,AMNE08.jpg,AMSA04.jpg,AMSA03.jpg,AMNE08.jpg,MN,1,num_6,16,num_6,1.46670663077,,,2017_Dec_18_1204,60.0058894238,MAFE4ImagesEEG,001,202633,
AFNE01.JPG,AFNE01.JPG,AFNE01.JPG,AFNE01.JPG,AFNE01.JPG,AFNE01.JPG,3,7,37,4,,,,,,,,,,,,,,,,,,,,,,,AMSA05.jpg,AMNE01.jpg,AMNE18.jpg,AMSA19.jpg,AMNE01.jpg,MN,1,num_6,16,num_6,1.05015879776,,,2017_Dec_18_1204,60.0058894238,MAFE4ImagesEEG,001,202633,
AFNE01.JPG,AFNE01.JPG,AFNE01.JPG,AFNE01.JPG,AFNE01.JPG,AFNE01.JPG,3,8,38,9,,,,,,,,,,,,,,,,,,,,,,,AMNE01.jpg,AMNE08.jpg,AMSA13.jpg,AMSA07.jpg,AMNE01.jpg,MN,1,num_8,32,num_2,2.83343404531,,,2017_Dec_18_1204,60.0058894238,MAFE4ImagesEEG,001,202633,
AFNE01.JPG,AFNE01.JPG,AFNE01.JPG,AFNE01.JPG,AFNE01.JPG,AFNE01.JPG,3,9,39,5,,,,,,,,,,,,,,,,,,,,,,,AMNE18.jpg,AMSA15.jpg,AMNE11.jpg,AMSA17.jpg,AMNE11.jpg,MN,1,num_2,32,num_4,2.58335979423,,,2017_Dec_18_1204,60.0058894238,MAFE4ImagesEEG,001,202633,
AFNE01.JPG,AFNE01.JPG,AFNE01.JPG,AFNE01.JPG,AFNE01.JPG,AFNE01.JPG,4,0,40,0,,,,,,,,,,,,,,,,,,,,,,,AMSA02.jpg,AMSA17.jpg,AMNE15.jpg,AMNE20.jpg,AMNE15.jpg,MN,1,num_2,32,num_8,1.43339177221,,,2017_Dec_18_1204,60.0058894238,MAFE4ImagesEEG,001,202633,
AFNE01.JPG,AFNE01.JPG,AFNE01.JPG,AFNE01.JPG,AFNE01.JPG,AFNE01.JPG,4,1,41,6,,,,,,,,,,,,,,,,,,,,,,,AMNE19.jpg,AMNE14.jpg,AMSA15.jpg,AMSA13.jpg,AMSA15.jpg,MS,2,num_2,16,num_2,3.41629925976,,,2017_Dec_18_1204,60.0058894238,MAFE4ImagesEEG,001,202633,
AFNE01.JPG,AFNE01.JPG,AFNE01.JPG,AFNE01.JPG,AFNE01.JPG,AFNE01.JPG,4,2,42,7,,,,,,,,,,,,,,,,,,,,,,,AMNE11.jpg,AMSA08.jpg,AMSA07.jpg,AMNE02.jpg,AMNE02.jpg,MN,1,num_4,32,num_6,3.38328493387,,,2017_Dec_18_1204,60.0058894238,MAFE4ImagesEEG,001,202633,
AFNE01.JPG,AFNE01.JPG,AFNE01.JPG,AFNE01.JPG,AFNE01.JPG,AFNE01.JPG,4,3,43,3,,,,,,,,,,,,,,,,,,,,,,,AMSA07.jpg,AMNE05.jpg,AMSA11.jpg,AMNE16.jpg,AMNE16.jpg,MN,1,num_4,32,num_8,2.75002004625,,,2017_Dec_18_1204,60.0058894238,MAFE4ImagesEEG,001,202633,
AFNE01.JPG,AFNE01.JPG,AFNE01.JPG,AFNE01.JPG,AFNE01.JPG,AFNE01.JPG,4,4,44,4,,,,,,,,,,,,,,,,,,,,,,,AMNE20.jpg,AMSA11.jpg,AMNE10.jpg,AMSA06.jpg,AMSA06.jpg,MS,2,num_4,16,num_4,2.23336277716,,,2017_Dec_18_1204,60.0058894238,MAFE4ImagesEEG,001,202633,
AFNE01.JPG,AFNE01.JPG,AFNE01.JPG,AFNE01.JPG,AFNE01.JPG,AFNE01.JPG,4,5,45,1,,,,,,,,,,,,,,,,,,,,,,,AMNE18.jpg,AMSA04.jpg,AMSA15.jpg,AMNE01.jpg,AMNE18.jpg,MN,1,num_8,16,num_8,0.950091699138,,,2017_Dec_18_1204,60.0058894238,MAFE4ImagesEEG,001,202633,
AFNE01.JPG,AFNE01.JPG,AFNE01.JPG,AFNE01.JPG,AFNE01.JPG,AFNE01.JPG,4,6,46,8,,,,,,,,,,,,,,,,,,,,,,,AMNE10.jpg,AMNE18.jpg,AMSA14.jpg,AMSA01.jpg,AMNE10.jpg,MN,1,num_8,32,num_6,1.25007296819,,,2017_Dec_18_1204,60.0058894238,MAFE4ImagesEEG,001,202633,
AFNE01.JPG,AFNE01.JPG,AFNE01.JPG,AFNE01.JPG,AFNE01.JPG,AFNE01.JPG,4,7,47,5,,,,,,,,,,,,,,,,,,,,,,,AMNE09.jpg,AMSA12.jpg,AMNE06.jpg,AMSA08.jpg,AMNE06.jpg,MN,1,num_2,32,num_8,2.21669235826,,,2017_Dec_18_1204,60.0058894238,MAFE4ImagesEEG,001,202633,
AFNE01.JPG,AFNE01.JPG,AFNE01.JPG,AFNE01.JPG,AFNE01.JPG,AFNE01.JPG,4,8,48,9,,,,,,,,,,,,,,,,,,,,,,,AMNE15.jpg,AMNE07.jpg,AMSA16.jpg,AMSA11.jpg,AMNE15.jpg,MN,1,num_8,32,num_6,1.99986753473,,,2017_Dec_18_1204,60.0058894238,MAFE4ImagesEEG,001,202633,
AFNE01.JPG,AFNE01.JPG,AFNE01.JPG,AFNE01.JPG,AFNE01.JPG,AFNE01.JPG,4,9,49,2,,,,,,,,,,,,,,,,,,,,,,,AMNE06.jpg,AMNE08.jpg,AMSA15.jpg,AMSA20.jpg,AMNE06.jpg,MN,1,num_8,16,num_8,1.83333269181,,,2017_Dec_18_1204,60.0058894238,MAFE4ImagesEEG,001,202633,
AFNE01.JPG,AFNE01.JPG,AFNE01.JPG,AFNE01.JPG,AFNE01.JPG,AFNE01.JPG,5,0,50,3,,,,,,,,,,,,,,,,,,,,,,,AMSA14.jpg,AMNE02.jpg,AMSA08.jpg,AMNE07.jpg,AMSA08.jpg,MS,2,num_2,16,num_2,1.3334747795,,,2017_Dec_18_1204,60.0058894238,MAFE4ImagesEEG,001,202633,
AFNE01.JPG,AFNE01.JPG,AFNE01.JPG,AFNE01.JPG,AFNE01.JPG,AFNE01.JPG,5,1,51,1,,,,,,,,,,,,,,,,,,,,,,,AMNE03.jpg,AMSA04.jpg,AMSA17.jpg,AMNE04.jpg,AMSA17.jpg,MS,2,num_2,16,num_2,0.60014343448,,,2017_Dec_18_1204,60.0058894238,MAFE4ImagesEEG,001,202633,
AFNE01.JPG,AFNE01.JPG,AFNE01.JPG,AFNE01.JPG,AFNE01.JPG,AFNE01.JPG,5,2,52,2,,,,,,,,,,,,,,,,,,,,,,,AMSA05.jpg,AMNE18.jpg,AMSA12.jpg,AMNE12.jpg,AMSA12.jpg,MS,2,num_2,32,num_6,0.766836722381,,,2017_Dec_18_1204,60.0058894238,MAFE4ImagesEEG,001,202633,
AFNE01.JPG,AFNE01.JPG,AFNE01.JPG,AFNE01.JPG,AFNE01.JPG,AFNE01.JPG,5,3,53,5,,,,,,,,,,,,,,,,,,,,,,,AMNE12.jpg,AMSA11.jpg,AMNE06.jpg,AMSA05.jpg,AMSA11.jpg,MS,2,num_6,32,num_8,1.6833803854,,,2017_Dec_18_1204,60.0058894238,MAFE4ImagesEEG,001,202633,
AFNE01.JPG,AFNE01.JPG,AFNE01.JPG,AFNE01.JPG,AFNE01.JPG,AFNE01.JPG,5,4,54,6,,,,,,,,,,,,,,,,,,,,,,,AMNE02.jpg,AMSA15.jpg,AMNE10.jpg,AMSA17.jpg,AMNE10.jpg,MN,1,num_2,16,num_2,1.44996725256,,,2017_Dec_18_1204,60.0058894238,MAFE4ImagesEEG,001,202633,
AFNE01.JPG,AFNE01.JPG,AFNE01.JPG,AFNE01.JPG,AFNE01.JPG,AFNE01.JPG,5,5,55,7,,,,,,,,,,,,,,,,,,,,,,,AMNE10.jpg,AMNE03.jpg,AMSA20.jpg,AMSA05.jpg,AMNE10.jpg,MN,1,num_8,48,None,,,,2017_Dec_18_1204,60.0058894238,MAFE4ImagesEEG,001,202633,
AFNE01.JPG,AFNE01.JPG,AFNE01.JPG,AFNE01.JPG,AFNE01.JPG,AFNE01.JPG,5,6,56,4,,,,,,,,,,,,,,,,,,,,,,,AMSA13.jpg,AMNE02.jpg,AMNE17.jpg,AMSA06.jpg,AMSA13.jpg,MS,2,num_8,32,num_2,0.250208961312,,,2017_Dec_18_1204,60.0058894238,MAFE4ImagesEEG,001,202633,
AFNE01.JPG,AFNE01.JPG,AFNE01.JPG,AFNE01.JPG,AFNE01.JPG,AFNE01.JPG,5,7,57,8,,,,,,,,,,,,,,,,,,,,,,,AMNE09.jpg,AMNE14.jpg,AMSA01.jpg,AMSA19.jpg,AMSA19.jpg,MS,2,num_4,16,num_4,1.05013859179,,,2017_Dec_18_1204,60.0058894238,MAFE4ImagesEEG,001,202633,
AFNE01.JPG,AFNE01.JPG,AFNE01.JPG,AFNE01.JPG,AFNE01.JPG,AFNE01.JPG,5,8,58,9,,,,,,,,,,,,,,,,,,,,,,,AMNE15.jpg,AMSA08.jpg,AMSA17.jpg,AMNE03.jpg,AMSA08.jpg,MS,2,num_6,16,num_6,1.40012213727,,,2017_Dec_18_1204,60.0058894238,MAFE4ImagesEEG,001,202633,
AFNE01.JPG,AFNE01.JPG,AFNE01.JPG,AFNE01.JPG,AFNE01.JPG,AFNE01.JPG,5,9,59,0,,,,,,,,,,,,,,,,,,,,,,,AMSA09.jpg,AMNE13.jpg,AMSA02.jpg,AMNE09.jpg,AMSA09.jpg,MS,2,num_8,32,num_6,0.80014805356,,,2017_Dec_18_1204,60.0058894238,MAFE4ImagesEEG,001,202633,
,,,,,,,,,,,,,,,,,,,,,,,,,,,,,,,,,,,,,,,,,,,space,1.90001212386,2017_Dec_18_1204,60.0058894238,MAFE4ImagesEEG,001,202633,
AFNE01.JPG,AFNE01.JPG,AFNE01.JPG,AFNE01.JPG,AFNE01.JPG,AFNE01.JPG,,,,,0,0,0,0,,,,,,,,,,,,,,,,,,,AFSA01.jpg,AFNE19.jpg,AFNE14.jpg,AFSA11.jpg,AFNE14.jpg,FN,3,num_2,16,num_2,1.03344026767,,,2017_Dec_18_1204,60.0058894238,MAFE4ImagesEEG,001,202633,
AFNE01.JPG,AFNE01.JPG,AFNE01.JPG,AFNE01.JPG,AFNE01.JPG,AFNE01.JPG,,,,,0,1,1,3,,,,,,,,,,,,,,,,,,,AFSA06.jpg,AFSA19.jpg,AFNE16.jpg,AFNE06.jpg,AFSA19.jpg,FS,4,num_6,32,num_8,1.31671262858,,,2017_Dec_18_1204,60.0058894238,MAFE4ImagesEEG,001,202633,
AFNE01.JPG,AFNE01.JPG,AFNE01.JPG,AFNE01.JPG,AFNE01.JPG,AFNE01.JPG,,,,,0,2,2,5,,,,,,,,,,,,,,,,,,,AFNE14.jpg,AFNE16.jpg,AFSA16.jpg,AFSA03.jpg,AFNE14.jpg,FN,3,num_8,32,num_4,1.35009708768,,,2017_Dec_18_1204,60.0058894238,MAFE4ImagesEEG,001,202633,
AFNE01.JPG,AFNE01.JPG,AFNE01.JPG,AFNE01.JPG,AFNE01.JPG,AFNE01.JPG,,,,,0,3,3,4,,,,,,,,,,,,,,,,,,,AFSA07.jpg,AFSA19.jpg,AFNE08.jpg,AFNE12.jpg,AFSA19.jpg,FS,4,num_6,32,num_2,1.08345344989,,,2017_Dec_18_1204,60.0058894238,MAFE4ImagesEEG,001,202633,
AFNE01.JPG,AFNE01.JPG,AFNE01.JPG,AFNE01.JPG,AFNE01.JPG,AFNE01.JPG,,,,,0,4,4,8,,,,,,,,,,,,,,,,,,,AFNE12.jpg,AFSA03.jpg,AFNE18.jpg,AFSA06.jpg,AFNE18.jpg,FN,3,num_2,32,num_8,2.38317171251,,,2017_Dec_18_1204,60.0058894238,MAFE4ImagesEEG,001,202633,
AFNE01.JPG,AFNE01.JPG,AFNE01.JPG,AFNE01.JPG,AFNE01.JPG,AFNE01.JPG,,,,,0,5,5,9,,,,,,,,,,,,,,,,,,,AFSA17.jpg,AFNE05.jpg,AFNE01.jpg,AFSA16.jpg,AFSA17.jpg,FS,4,num_8,16,num_8,0.816831943579,,,2017_Dec_18_1204,60.0058894238,MAFE4ImagesEEG,001,202633,
AFNE01.JPG,AFNE01.JPG,AFNE01.JPG,AFNE01.JPG,AFNE01.JPG,AFNE01.JPG,,,,,0,6,6,6,,,,,,,,,,,,,,,,,,,AFNE02.jpg,AFSA18.jpg,AFSA04.jpg,AFNE10.jpg,AFNE10.jpg,FN,3,num_4,32,num_2,0.9334581648,,,2017_Dec_18_1204,60.0058894238,MAFE4ImagesEEG,001,202633,
AFNE01.JPG,AFNE01.JPG,AFNE01.JPG,AFNE01.JPG,AFNE01.JPG,AFNE01.JPG,,,,,0,7,7,2,,,,,,,,,,,,,,,,,,,AFNE04.jpg,AFNE05.jpg,AFSA06.jpg,AFSA11.jpg,AFNE05.jpg,FN,3,num_6,16,num_6,1.13352404488,,,2017_Dec_18_1204,60.0058894238,MAFE4ImagesEEG,001,202633,
AFNE01.JPG,AFNE01.JPG,AFNE01.JPG,AFNE01.JPG,AFNE01.JPG,AFNE01.JPG,,,,,0,8,8,1,,,,,,,,,,,,,,,,,,,AFSA02.jpg,AFNE09.jpg,AFSA20.jpg,AFNE04.jpg,AFNE04.jpg,FN,3,num_4,32,num_8,1.73336534295,,,2017_Dec_18_1204,60.0058894238,MAFE4ImagesEEG,001,202633,
AFNE01.JPG,AFNE01.JPG,AFNE01.JPG,AFNE01.JPG,AFNE01.JPG,AFNE01.JPG,,,,,0,9,9,7,,,,,,,,,,,,,,,,,,,AFSA19.jpg,AFNE12.jpg,AFNE09.jpg,AFSA03.jpg,AFNE09.jpg,FN,3,num_2,32,num_4,1.01689301245,,,2017_Dec_18_1204,60.0058894238,MAFE4ImagesEEG,001,202633,
AFNE01.JPG,AFNE01.JPG,AFNE01.JPG,AFNE01.JPG,AFNE01.JPG,AFNE01.JPG,,,,,1,0,10,5,,,,,,,,,,,,,,,,,,,AFSA06.jpg,AFSA18.jpg,AFNE16.jpg,AFNE15.jpg,AFSA06.jpg,FS,4,num_8,32,num_6,0.450131792109,,,2017_Dec_18_1204,60.0058894238,MAFE4ImagesEEG,001,202633,
AFNE01.JPG,AFNE01.JPG,AFNE01.JPG,AFNE01.JPG,AFNE01.JPG,AFNE01.JPG,,,,,1,1,11,6,,,,,,,,,,,,,,,,,,,AFSA17.jpg,AFSA03.jpg,AFNE11.jpg,AFNE13.jpg,AFNE11.jpg,FN,3,num_2,32,num_6,0.866784506012,,,2017_Dec_18_1204,60.0058894238,MAFE4ImagesEEG,001,202633,
AFNE01.JPG,AFNE01.JPG,AFNE01.JPG,AFNE01.JPG,AFNE01.JPG,AFNE01.JPG,,,,,1,2,12,1,,,,,,,,,,,,,,,,,,,AFSA17.jpg,AFNE19.jpg,AFSA20.jpg,AFNE11.jpg,AFNE11.jpg,FN,3,num_4,16,num_4,0.533485492226,,,2017_Dec_18_1204,60.0058894238,MAFE4ImagesEEG,001,202633,
AFNE01.JPG,AFNE01.JPG,AFNE01.JPG,AFNE01.JPG,AFNE01.JPG,AFNE01.JPG,,,,,1,3,13,9,,,,,,,,,,,,,,,,,,,AFNE02.jpg,AFSA02.jpg,AFSA14.jpg,AFNE03.jpg,AFNE02.jpg,FN,3,num_8,32,num_2,1.01825102232,,,2017_Dec_18_1204,60.0058894238,MAFE4ImagesEEG,001,202633,
AFNE01.JPG,AFNE01.JPG,AFNE01.JPG,AFNE01.JPG,AFNE01.JPG,AFNE01.JPG,,,,,1,4,14,3,,,,,,,,,,,,,,,,,,,AFNE20.jpg,AFNE16.jpg,AFSA03.jpg,AFSA15.jpg,AFNE20.jpg,FN,3,num_8,16,num_8,0.916757596191,,,2017_Dec_18_1204,60.0058894238,MAFE4ImagesEEG,001,202633,
AFNE01.JPG,AFNE01.JPG,AFNE01.JPG,AFNE01.JPG,AFNE01.JPG,AFNE01.JPG,,,,,1,5,15,7,,,,,,,,,,,,,,,,,,,AFSA10.jpg,AFSA09.jpg,AFNE17.jpg,AFNE01.jpg,AFNE01.jpg,FN,3,num_4,16,num_4,0.850095484406,,,2017_Dec_18_1204,60.0058894238,MAFE4ImagesEEG,001,202633,
AFNE01.JPG,AFNE01.JPG,AFNE01.JPG,AFNE01.JPG,AFNE01.JPG,AFNE01.JPG,,,,,1,6,16,0,,,,,,,,,,,,,,,,,,,AFNE06.jpg,AFSA01.jpg,AFSA04.jpg,AFNE17.jpg,AFSA04.jpg,FS,4,num_2,32,num_6,1.63328958442,,,2017_Dec_18_1204,60.0058894238,MAFE4ImagesEEG,001,202633,
AFNE01.JPG,AFNE01.JPG,AFNE01.JPG,AFNE01.JPG,AFNE01.JPG,AFNE01.JPG,,,,,1,7,17,8,,,,,,,,,,,,,,,,,,,AFNE17.jpg,AFNE09.jpg,AFSA17.jpg,AFSA08.jpg,AFNE09.jpg,FN,3,num_6,32,num_8,2.06665088609,,,2017_Dec_18_1204,60.0058894238,MAFE4ImagesEEG,001,202633,
AFNE01.JPG,AFNE01.JPG,AFNE01.JPG,AFNE01.JPG,AFNE01.JPG,AFNE01.JPG,,,,,1,8,18,2,,,,,,,,,,,,,,,,,,,AFSA03.jpg,AFSA16.jpg,AFNE10.jpg,AFNE18.jpg,AFSA03.jpg,FS,4,num_8,32,num_2,1.13348138658,,,2017_Dec_18_1204,60.0058894238,MAFE4ImagesEEG,001,202633,
AFNE01.JPG,AFNE01.JPG,AFNE01.JPG,AFNE01.JPG,AFNE01.JPG,AFNE01.JPG,,,,,1,9,19,4,,,,,,,,,,,,,,,,,,,AFSA18.jpg,AFSA14.jpg,AFNE20.jpg,AFNE14.jpg,AFSA18.jpg,FS,4,num_8,16,num_8,3.69993405603,,,2017_Dec_18_1204,60.0058894238,MAFE4ImagesEEG,001,202633,
AFNE01.JPG,AFNE01.JPG,AFNE01.JPG,AFNE01.JPG,AFNE01.JPG,AFNE01.JPG,,,,,2,0,20,7,,,,,,,,,,,,,,,,,,,AFSA09.jpg,AFNE16.jpg,AFNE18.jpg,AFSA04.jpg,AFNE16.jpg,FN,3,num_6,16,num_6,0.516812507063,,,2017_Dec_18_1204,60.0058894238,MAFE4ImagesEEG,001,202633,
AFNE01.JPG,AFNE01.JPG,AFNE01.JPG,AFNE01.JPG,AFNE01.JPG,AFNE01.JPG,,,,,2,1,21,0,,,,,,,,,,,,,,,,,,,AFSA15.jpg,AFNE06.jpg,AFSA06.jpg,AFNE14.jpg,AFNE06.jpg,FN,3,num_6,32,num_4,0.966661406681,,,2017_Dec_18_1204,60.0058894238,MAFE4ImagesEEG,001,202633,
AFNE01.JPG,AFNE01.JPG,AFNE01.JPG,AFNE01.JPG,AFNE01.JPG,AFNE01.JPG,,,,,2,2,22,9,,,,,,,,,,,,,,,,,,,AFSA05.jpg,AFNE09.jpg,AFNE02.jpg,AFSA02.jpg,AFSA02.jpg,FS,4,num_4,32,num_6,1.08347461885,,,2017_Dec_18_1204,60.0058894238,MAFE4ImagesEEG,001,202633,
AFNE01.JPG,AFNE01.JPG,AFNE01.JPG,AFNE01.JPG,AFNE01.JPG,AFNE01.JPG,,,,,2,3,23,2,,,,,,,,,,,,,,,,,,,AFNE17.jpg,AFSA20.jpg,AFNE14.jpg,AFSA02.jpg,AFNE17.jpg,FN,3,num_8,16,num_8,1.78371626372,,,2017_Dec_18_1204,60.0058894238,MAFE4ImagesEEG,001,202633,
AFNE01.JPG,AFNE01.JPG,AFNE01.JPG,AFNE01.JPG,AFNE01.JPG,AFNE01.JPG,,,,,2,4,24,6,,,,,,,,,,,,,,,,,,,AFSA18.jpg,AFNE05.jpg,AFSA02.jpg,AFNE01.jpg,AFNE01.jpg,FN,3,num_4,48,None,,,,2017_Dec_18_1204,60.0058894238,MAFE4ImagesEEG,001,202633,
AFNE01.JPG,AFNE01.JPG,AFNE01.JPG,AFNE01.JPG,AFNE01.JPG,AFNE01.JPG,,,,,2,5,25,5,,,,,,,,,,,,,,,,,,,AFSA11.jpg,AFSA05.jpg,AFNE17.jpg,AFNE14.jpg,AFSA11.jpg,FS,4,num_8,32,num_2,0.266817798838,,,2017_Dec_18_1204,60.0058894238,MAFE4ImagesEEG,001,202633,
AFNE01.JPG,AFNE01.JPG,AFNE01.JPG,AFNE01.JPG,AFNE01.JPG,AFNE01.JPG,,,,,2,6,26,3,,,,,,,,,,,,,,,,,,,AFSA11.jpg,AFSA03.jpg,AFNE14.jpg,AFNE16.jpg,AFSA11.jpg,FS,4,num_8,16,num_8,0.650176823605,,,2017_Dec_18_1204,60.0058894238,MAFE4ImagesEEG,001,202633,
AFNE01.JPG,AFNE01.JPG,AFNE01.JPG,AFNE01.JPG,AFNE01.JPG,AFNE01.JPG,,,,,2,7,27,8,,,,,,,,,,,,,,,,,,,AFNE07.jpg,AFNE06.jpg,AFSA11.jpg,AFSA03.jpg,AFNE07.jpg,FN,3,num_8,48,None,,,,2017_Dec_18_1204,60.0058894238,MAFE4ImagesEEG,001,202633,
AFNE01.JPG,AFNE01.JPG,AFNE01.JPG,AFNE01.JPG,AFNE01.JPG,AFNE01.JPG,,,,,2,8,28,4,,,,,,,,,,,,,,,,,,,AFNE16.jpg,AFSA01.jpg,AFSA04.jpg,AFNE04.jpg,AFNE16.jpg,FN,3,num_8,16,num_8,1.06674807006,,,2017_Dec_18_1204,60.0058894238,MAFE4ImagesEEG,001,202633,
AFNE01.JPG,AFNE01.JPG,AFNE01.JPG,AFNE01.JPG,AFNE01.JPG,AFNE01.JPG,,,,,2,9,29,1,,,,,,,,,,,,,,,,,,,AFNE07.jpg,AFSA08.jpg,AFNE18.jpg,AFSA19.jpg,AFSA19.jpg,FS,4,num_4,48,None,,,,2017_Dec_18_1204,60.0058894238,MAFE4ImagesEEG,001,202633,
AFNE01.JPG,AFNE01.JPG,AFNE01.JPG,AFNE01.JPG,AFNE01.JPG,AFNE01.JPG,,,,,3,0,30,1,,,,,,,,,,,,,,,,,,,AFSA10.jpg,AFSA17.jpg,AFNE04.jpg,AFNE16.jpg,AFSA10.jpg,FS,4,num_8,32,num_2,0.733492356259,,,2017_Dec_18_1204,60.0058894238,MAFE4ImagesEEG,001,202633,
AFNE01.JPG,AFNE01.JPG,AFNE01.JPG,AFNE01.JPG,AFNE01.JPG,AFNE01.JPG,,,,,3,1,31,3,,,,,,,,,,,,,,,,,,,AFNE08.jpg,AFSA01.jpg,AFSA12.jpg,AFNE07.jpg,AFSA12.jpg,FS,4,num_2,16,num_2,4.13327483041,,,2017_Dec_18_1204,60.0058894238,MAFE4ImagesEEG,001,202633,
AFNE01.JPG,AFNE01.JPG,AFNE01.JPG,AFNE01.JPG,AFNE01.JPG,AFNE01.JPG,,,,,3,2,32,6,,,,,,,,,,,,,,,,,,,AFNE14.jpg,AFSA11.jpg,AFNE03.jpg,AFSA13.jpg,AFNE03.jpg,FN,3,num_2,48,None,,,,2017_Dec_18_1204,60.0058894238,MAFE4ImagesEEG,001,202633,
AFNE01.JPG,AFNE01.JPG,AFNE01.JPG,AFNE01.JPG,AFNE01.JPG,AFNE01.JPG,,,,,3,3,33,2,,,,,,,,,,,,,,,,,,,AFSA17.jpg,AFSA20.jpg,AFNE15.jpg,AFNE06.jpg,AFNE06.jpg,FN,3,num_4,32,num_2,0.900116043165,,,2017_Dec_18_1204,60.0058894238,MAFE4ImagesEEG,001,202633,
AFNE01.JPG,AFNE01.JPG,AFNE01.JPG,AFNE01.JPG,AFNE01.JPG,AFNE01.JPG,,,,,3,4,34,7,,,,,,,,,,,,,,,,,,,AFSA11.jpg,AFNE20.jpg,AFNE16.jpg,AFSA08.jpg,AFNE20.jpg,FN,3,num_6,48,None,,,,2017_Dec_18_1204,60.0058894238,MAFE4ImagesEEG,001,202633,
AFNE01.JPG,AFNE01.JPG,AFNE01.JPG,AFNE01.JPG,AFNE01.JPG,AFNE01.JPG,,,,,3,5,35,8,,,,,,,,,,,,,,,,,,,AFSA01.jpg,AFNE10.jpg,AFNE15.jpg,AFSA05.jpg,AFSA05.jpg,FS,4,num_4,48,None,,,,2017_Dec_18_1204,60.0058894238,MAFE4ImagesEEG,001,202633,
AFNE01.JPG,AFNE01.JPG,AFNE01.JPG,AFNE01.JPG,AFNE01.JPG,AFNE01.JPG,,,,,3,6,36,5,,,,,,,,,,,,,,,,,,,AFSA09.jpg,AFSA17.jpg,AFNE15.jpg,AFNE19.jpg,AFSA09.jpg,FS,4,num_8,48,None,,,,2017_Dec_18_1204,60.0058894238,MAFE4ImagesEEG,001,202633,
AFNE01.JPG,AFNE01.JPG,AFNE01.JPG,AFNE01.JPG,AFNE01.JPG,AFNE01.JPG,,,,,3,7,37,9,,,,,,,,,,,,,,,,,,,AFSA01.jpg,AFNE15.jpg,AFSA19.jpg,AFNE07.jpg,AFNE07.jpg,FN,3,num_4,16,num_4,2.01665149583,,,2017_Dec_18_1204,60.0058894238,MAFE4ImagesEEG,001,202633,
AFNE01.JPG,AFNE01.JPG,AFNE01.JPG,AFNE01.JPG,AFNE01.JPG,AFNE01.JPG,,,,,3,8,38,0,,,,,,,,,,,,,,,,,,,AFNE16.jpg,AFSA11.jpg,AFSA04.jpg,AFNE11.jpg,AFNE11.jpg,FN,3,num_4,48,None,,,,2017_Dec_18_1204,60.0058894238,MAFE4ImagesEEG,001,202633,
AFNE01.JPG,AFNE01.JPG,AFNE01.JPG,AFNE01.JPG,AFNE01.JPG,AFNE01.JPG,,,,,3,9,39,4,,,,,,,,,,,,,,,,,,,AFSA04.jpg,AFSA01.jpg,AFNE19.jpg,AFNE10.jpg,AFNE10.jpg,FN,3,num_4,32,num_2,1.11676734686,,,2017_Dec_18_1204,60.0058894238,MAFE4ImagesEEG,001,202633,
AFNE01.JPG,AFNE01.JPG,AFNE01.JPG,AFNE01.JPG,AFNE01.JPG,AFNE01.JPG,,,,,4,0,40,2,,,,,,,,,,,,,,,,,,,AFNE06.jpg,AFSA12.jpg,AFNE08.jpg,AFSA02.jpg,AFSA02.jpg,FS,4,num_4,48,None,,,,2017_Dec_18_1204,60.0058894238,MAFE4ImagesEEG,001,202633,
AFNE01.JPG,AFNE01.JPG,AFNE01.JPG,AFNE01.JPG,AFNE01.JPG,AFNE01.JPG,,,,,4,1,41,1,,,,,,,,,,,,,,,,,,,AFSA20.jpg,AFSA17.jpg,AFNE16.jpg,AFNE02.jpg,AFSA20.jpg,FS,4,num_8,16,num_8,0.383517148905,,,2017_Dec_18_1204,60.0058894238,MAFE4ImagesEEG,001,202633,
AFNE01.JPG,AFNE01.JPG,AFNE01.JPG,AFNE01.JPG,AFNE01.JPG,AFNE01.JPG,,,,,4,2,42,3,,,,,,,,,,,,,,,,,,,AFSA03.jpg,AFSA02.jpg,AFNE06.jpg,AFNE05.jpg,AFSA03.jpg,FS,4,num_8,32,num_4,1.01674964186,,,2017_Dec_18_1204,60.0058894238,MAFE4ImagesEEG,001,202633,
AFNE01.JPG,AFNE01.JPG,AFNE01.JPG,AFNE01.JPG,AFNE01.JPG,AFNE01.JPG,,,,,4,3,43,0,,,,,,,,,,,,,,,,,,,AFNE12.jpg,AFSA02.jpg,AFSA08.jpg,AFNE15.jpg,AFNE15.jpg,FN,3,num_4,16,num_4,1.05011132872,,,2017_Dec_18_1204,60.0058894238,MAFE4ImagesEEG,001,202633,
AFNE01.JPG,AFNE01.JPG,AFNE01.JPG,AFNE01.JPG,AFNE01.JPG,AFNE01.JPG,,,,,4,4,44,5,,,,,,,,,,,,,,,,,,,AFSA11.jpg,AFSA14.jpg,AFNE18.jpg,AFNE16.jpg,AFSA11.jpg,FS,4,num_8,16,num_8,0.583487448748,,,2017_Dec_18_1204,60.0058894238,MAFE4ImagesEEG,001,202633,
AFNE01.JPG,AFNE01.JPG,AFNE01.JPG,AFNE01.JPG,AFNE01.JPG,AFNE01.JPG,,,,,4,5,45,9,,,,,,,,,,,,,,,,,,,AFNE14.jpg,AFNE19.jpg,AFSA05.jpg,AFSA13.jpg,AFNE19.jpg,FN,3,num_6,16,num_6,0.566803237423,,,2017_Dec_18_1204,60.0058894238,MAFE4ImagesEEG,001,202633,
AFNE01.JPG,AFNE01.JPG,AFNE01.JPG,AFNE01.JPG,AFNE01.JPG,AFNE01.JPG,,,,,4,6,46,7,,,,,,,,,,,,,,,,,,,AFNE13.jpg,AFSA13.jpg,AFNE16.jpg,AFSA01.jpg,AFSA13.jpg,FS,4,num_6,32,num_4,1.14997732406,,,2017_Dec_18_1204,60.0058894238,MAFE4ImagesEEG,001,202633,
AFNE01.JPG,AFNE01.JPG,AFNE01.JPG,AFNE01.JPG,AFNE01.JPG,AFNE01.JPG,,,,,4,7,47,6,,,,,,,,,,,,,,,,,,,AFSA14.jpg,AFNE14.jpg,AFSA20.jpg,AFNE11.jpg,AFSA20.jpg,FS,4,num_2,32,num_8,1.2500803452,,,2017_Dec_18_1204,60.0058894238,MAFE4ImagesEEG,001,202633,
AFNE01.JPG,AFNE01.JPG,AFNE01.JPG,AFNE01.JPG,AFNE01.JPG,AFNE01.JPG,,,,,4,8,48,4,,,,,,,,,,,,,,,,,,,AFSA01.jpg,AFNE02.jpg,AFNE04.jpg,AFSA10.jpg,AFNE04.jpg,FN,3,num_2,32,num_4,0.950203637592,,,2017_Dec_18_1204,60.0058894238,MAFE4ImagesEEG,001,202633,
AFNE01.JPG,AFNE01.JPG,AFNE01.JPG,AFNE01.JPG,AFNE01.JPG,AFNE01.JPG,,,,,4,9,49,8,,,,,,,,,,,,,,,,,,,AFNE20.jpg,AFSA18.jpg,AFNE04.jpg,AFSA08.jpg,AFSA08.jpg,FS,4,num_4,16,num_4,0.800146770664,,,2017_Dec_18_1204,60.0058894238,MAFE4ImagesEEG,001,202633,
AFNE01.JPG,AFNE01.JPG,AFNE01.JPG,AFNE01.JPG,AFNE01.JPG,AFNE01.JPG,,,,,5,0,50,5,,,,,,,,,,,,,,,,,,,AFNE08.jpg,AFNE14.jpg,AFSA05.jpg,AFSA19.jpg,AFNE08.jpg,FN,3,num_8,16,num_8,4.49968920369,,,2017_Dec_18_1204,60.0058894238,MAFE4ImagesEEG,001,202633,
AFNE01.JPG,AFNE01.JPG,AFNE01.JPG,AFNE01.JPG,AFNE01.JPG,AFNE01.JPG,,,,,5,1,51,1,,,,,,,,,,,,,,,,,,,AFSA01.jpg,AFSA16.jpg,AFNE08.jpg,AFNE16.jpg,AFSA16.jpg,FS,4,num_6,16,num_6,0.966728440952,,,2017_Dec_18_1204,60.0058894238,MAFE4ImagesEEG,001,202633,
AFNE01.JPG,AFNE01.JPG,AFNE01.JPG,AFNE01.JPG,AFNE01.JPG,AFNE01.JPG,,,,,5,2,52,4,,,,,,,,,,,,,,,,,,,AFSA02.jpg,AFSA04.jpg,AFNE06.jpg,AFNE12.jpg,AFSA04.jpg,FS,4,num_6,32,num_2,3.48324715067,,,2017_Dec_18_1204,60.0058894238,MAFE4ImagesEEG,001,202633,
AFNE01.JPG,AFNE01.JPG,AFNE01.JPG,AFNE01.JPG,AFNE01.JPG,AFNE01.JPG,,,,,5,3,53,7,,,,,,,,,,,,,,,,,,,AFNE08.jpg,AFNE07.jpg,AFSA07.jpg,AFSA18.jpg,AFNE07.jpg,FN,3,num_6,32,num_2,2.48331482708,,,2017_Dec_18_1204,60.0058894238,MAFE4ImagesEEG,001,202633,
AFNE01.JPG,AFNE01.JPG,AFNE01.JPG,AFNE01.JPG,AFNE01.JPG,AFNE01.JPG,,,,,5,4,54,8,,,,,,,,,,,,,,,,,,,AFSA09.jpg,AFNE09.jpg,AFNE06.jpg,AFSA18.jpg,AFSA09.jpg,FS,4,num_8,32,num_6,1.18345030677,,,2017_Dec_18_1204,60.0058894238,MAFE4ImagesEEG,001,202633,
AFNE01.JPG,AFNE01.JPG,AFNE01.JPG,AFNE01.JPG,AFNE01.JPG,AFNE01.JPG,,,,,5,5,55,0,,,,,,,,,,,,,,,,,,,AFSA14.jpg,AFNE12.jpg,AFSA02.jpg,AFNE01.jpg,AFNE01.jpg,FN,3,num_4,16,num_4,1.38344626548,,,2017_Dec_18_1204,60.0058894238,MAFE4ImagesEEG,001,202633,
AFNE01.JPG,AFNE01.JPG,AFNE01.JPG,AFNE01.JPG,AFNE01.JPG,AFNE01.JPG,,,,,5,6,56,6,,,,,,,,,,,,,,,,,,,AFNE07.jpg,AFNE17.jpg,AFSA10.jpg,AFSA05.jpg,AFNE07.jpg,FN,3,num_8,32,num_6,1.90018500248,,,2017_Dec_18_1204,60.0058894238,MAFE4ImagesEEG,001,202633,
AFNE01.JPG,AFNE01.JPG,AFNE01.JPG,AFNE01.JPG,AFNE01.JPG,AFNE01.JPG,,,,,5,7,57,9,,,,,,,,,,,,,,,,,,,AFNE04.jpg,AFNE12.jpg,AFSA05.jpg,AFSA20.jpg,AFSA20.jpg,FS,4,num_4,48,None,,,,2017_Dec_18_1204,60.0058894238,MAFE4ImagesEEG,001,202633,
AFNE01.JPG,AFNE01.JPG,AFNE01.JPG,AFNE01.JPG,AFNE01.JPG,AFNE01.JPG,,,,,5,8,58,2,,,,,,,,,,,,,,,,,,,AFSA20.jpg,AFNE17.jpg,AFNE10.jpg,AFSA08.jpg,AFNE10.jpg,FN,3,num_2,16,num_2,1.81673989119,,,2017_Dec_18_1204,60.0058894238,MAFE4ImagesEEG,001,202633,
AFNE01.JPG,AFNE01.JPG,AFNE01.JPG,AFNE01.JPG,AFNE01.JPG,AFNE01.JPG,,,,,5,9,59,3,,,,,,,,,,,,,,,,,,,AFSA01.jpg,AFNE12.jpg,AFNE20.jpg,AFSA16.jpg,AFNE12.jpg,FN,3,num_6,32,num_2,0.916761124507,,,2017_Dec_18_1204,60.0058894238,MAFE4ImagesEEG,001,202633,
,,,,,,,,,,,,,,,,,,,,,,,,,,,,,,,,,,,,,,,,,,,space,3.78304207046,2017_Dec_18_1204,60.0058894238,MAFE4ImagesEEG,001,202633,
AFNE01.JPG,AFNE01.JPG,AFNE01.JPG,AFNE01.JPG,AFNE01.JPG,AFNE01.JPG,,,,,,,,,0,0,0,1,,,,,,,,,,,,,,,AMNE08.jpg,AMNE17.jpg,AMSA18.jpg,AMSA17.jpg,AMSA17.jpg,MS,2,num_4,32,num_6,1.16676224722,,,2017_Dec_18_1204,60.0058894238,MAFE4ImagesEEG,001,202633,
AFNE01.JPG,AFNE01.JPG,AFNE01.JPG,AFNE01.JPG,AFNE01.JPG,AFNE01.JPG,,,,,,,,,0,1,1,6,,,,,,,,,,,,,,,AMNE05.jpg,AMNE02.jpg,AMSA08.jpg,AMSA07.jpg,AMNE02.jpg,MN,1,num_6,16,num_6,1.16659257608,,,2017_Dec_18_1204,60.0058894238,MAFE4ImagesEEG,001,202633,
AFNE01.JPG,AFNE01.JPG,AFNE01.JPG,AFNE01.JPG,AFNE01.JPG,AFNE01.JPG,,,,,,,,,0,2,2,7,,,,,,,,,,,,,,,AMNE14.jpg,AMSA10.jpg,AMSA08.jpg,AMNE03.jpg,AMNE03.jpg,MN,1,num_4,32,num_8,0.666776679922,,,2017_Dec_18_1204,60.0058894238,MAFE4ImagesEEG,001,202633,
AFNE01.JPG,AFNE01.JPG,AFNE01.JPG,AFNE01.JPG,AFNE01.JPG,AFNE01.JPG,,,,,,,,,0,3,3,0,,,,,,,,,,,,,,,AMSA09.jpg,AMSA01.jpg,AMNE13.jpg,AMNE09.jpg,AMSA01.jpg,MS,2,num_6,48,None,,,,2017_Dec_18_1204,60.0058894238,MAFE4ImagesEEG,001,202633,
AFNE01.JPG,AFNE01.JPG,AFNE01.JPG,AFNE01.JPG,AFNE01.JPG,AFNE01.JPG,,,,,,,,,0,4,4,8,,,,,,,,,,,,,,,AMNE12.jpg,AMSA11.jpg,AMSA09.jpg,AMNE05.jpg,AMSA11.jpg,MS,2,num_6,16,num_6,0.500163256191,,,2017_Dec_18_1204,60.0058894238,MAFE4ImagesEEG,001,202633,
AFNE01.JPG,AFNE01.JPG,AFNE01.JPG,AFNE01.JPG,AFNE01.JPG,AFNE01.JPG,,,,,,,,,0,5,5,9,,,,,,,,,,,,,,,AMSA07.jpg,AMNE11.jpg,AMNE18.jpg,AMSA09.jpg,AMNE18.jpg,MN,1,num_2,32,num_6,1.31675977726,,,2017_Dec_18_1204,60.0058894238,MAFE4ImagesEEG,001,202633,
AFNE01.JPG,AFNE01.JPG,AFNE01.JPG,AFNE01.JPG,AFNE01.JPG,AFNE01.JPG,,,,,,,,,0,6,6,4,,,,,,,,,,,,,,,AMSA16.jpg,AMSA11.jpg,AMNE05.jpg,AMNE11.jpg,AMNE05.jpg,MN,1,num_2,32,num_6,3.74994627619,,,2017_Dec_18_1204,60.0058894238,MAFE4ImagesEEG,001,202633,
AFNE01.JPG,AFNE01.JPG,AFNE01.JPG,AFNE01.JPG,AFNE01.JPG,AFNE01.JPG,,,,,,,,,0,7,7,3,,,,,,,,,,,,,,,AMNE01.jpg,AMSA02.jpg,AMSA09.jpg,AMNE14.jpg,AMSA02.jpg,MS,2,num_6,16,num_6,4.46649045264,,,2017_Dec_18_1204,60.0058894238,MAFE4ImagesEEG,001,202633,
AFNE01.JPG,AFNE01.JPG,AFNE01.JPG,AFNE01.JPG,AFNE01.JPG,AFNE01.JPG,,,,,,,,,0,8,8,2,,,,,,,,,,,,,,,AMNE12.jpg,AMSA20.jpg,AMNE01.jpg,AMSA14.jpg,AMNE12.jpg,MN,1,num_8,32,num_6,1.25011402275,,,2017_Dec_18_1204,60.0058894238,MAFE4ImagesEEG,001,202633,
AFNE01.JPG,AFNE01.JPG,AFNE01.JPG,AFNE01.JPG,AFNE01.JPG,AFNE01.JPG,,,,,,,,,0,9,9,5,,,,,,,,,,,,,,,AMNE19.jpg,AMNE20.jpg,AMSA03.jpg,AMSA09.jpg,AMSA09.jpg,MS,2,num_4,32,num_2,3.58323374391,,,2017_Dec_18_1204,60.0058894238,MAFE4ImagesEEG,001,202633,
AFNE01.JPG,AFNE01.JPG,AFNE01.JPG,AFNE01.JPG,AFNE01.JPG,AFNE01.JPG,,,,,,,,,1,0,10,2,,,,,,,,,,,,,,,AMSA18.jpg,AMNE03.jpg,AMSA04.jpg,AMNE07.jpg,AMSA04.jpg,MS,2,num_2,32,num_8,0.883504640311,,,2017_Dec_18_1204,60.0058894238,MAFE4ImagesEEG,001,202633,
AFNE01.JPG,AFNE01.JPG,AFNE01.JPG,AFNE01.JPG,AFNE01.JPG,AFNE01.JPG,,,,,,,,,1,1,11,8,,,,,,,,,,,,,,,AMSA13.jpg,AMSA05.jpg,AMNE01.jpg,AMNE07.jpg,AMNE01.jpg,MN,1,num_2,16,num_2,1.01679294137,,,2017_Dec_18_1204,60.0058894238,MAFE4ImagesEEG,001,202633,
AFNE01.JPG,AFNE01.JPG,AFNE01.JPG,AFNE01.JPG,AFNE01.JPG,AFNE01.JPG,,,,,,,,,1,2,12,1,,,,,,,,,,,,,,,AMNE07.jpg,AMSA02.jpg,AMSA06.jpg,AMNE18.jpg,AMNE07.jpg,MN,1,num_8,32,num_4,0.783520933706,,,2017_Dec_18_1204,60.0058894238,MAFE4ImagesEEG,001,202633,
AFNE01.JPG,AFNE01.JPG,AFNE01.JPG,AFNE01.JPG,AFNE01.JPG,AFNE01.JPG,,,,,,,,,1,3,13,7,,,,,,,,,,,,,,,AMNE11.jpg,AMSA06.jpg,AMSA16.jpg,AMNE19.jpg,AMNE11.jpg,MN,1,num_8,32,num_4,1.08349290118,,,2017_Dec_18_1204,60.0058894238,MAFE4ImagesEEG,001,202633,
AFNE01.JPG,AFNE01.JPG,AFNE01.JPG,AFNE01.JPG,AFNE01.JPG,AFNE01.JPG,,,,,,,,,1,4,14,9,,,,,,,,,,,,,,,AMNE07.jpg,AMSA07.jpg,AMSA05.jpg,AMNE11.jpg,AMNE11.jpg,MN,1,num_4,32,num_8,0.966801890172,,,2017_Dec_18_1204,60.0058894238,MAFE4ImagesEEG,001,202633,
AFNE01.JPG,AFNE01.JPG,AFNE01.JPG,AFNE01.JPG,AFNE01.JPG,AFNE01.JPG,,,,,,,,,1,5,15,4,,,,,,,,,,,,,,,AMNE02.jpg,AMSA04.jpg,AMNE01.jpg,AMSA11.jpg,AMNE01.jpg,MN,1,num_2,32,num_4,1.21680172998,,,2017_Dec_18_1204,60.0058894238,MAFE4ImagesEEG,001,202633,
AFNE01.JPG,AFNE01.JPG,AFNE01.JPG,AFNE01.JPG,AFNE01.JPG,AFNE01.JPG,,,,,,,,,1,6,16,5,,,,,,,,,,,,,,,AMNE12.jpg,AMNE11.jpg,AMSA02.jpg,AMSA19.jpg,AMNE11.jpg,MN,1,num_6,32,num_8,0.733417623676,,,2017_Dec_18_1204,60.0058894238,MAFE4ImagesEEG,001,202633,
AFNE01.JPG,AFNE01.JPG,AFNE01.JPG,AFNE01.JPG,AFNE01.JPG,AFNE01.JPG,,,,,,,,,1,7,17,3,,,,,,,,,,,,,,,AMSA12.jpg,AMNE06.jpg,AMSA17.jpg,AMNE01.jpg,AMSA17.jpg,MS,2,num_2,48,None,,,,2017_Dec_18_1204,60.0058894238,MAFE4ImagesEEG,001,202633,
AFNE01.JPG,AFNE01.JPG,AFNE01.JPG,AFNE01.JPG,AFNE01.JPG,AFNE01.JPG,,,,,,,,,1,8,18,6,,,,,,,,,,,,,,,AMSA03.jpg,AMNE07.jpg,AMSA12.jpg,AMNE16.jpg,AMNE16.jpg,MN,1,num_4,32,num_8,0.566834028345,,,2017_Dec_18_1204,60.0058894238,MAFE4ImagesEEG,001,202633,
AFNE01.JPG,AFNE01.JPG,AFNE01.JPG,AFNE01.JPG,AFNE01.JPG,AFNE01.JPG,,,,,,,,,1,9,19,0,,,,,,,,,,,,,,,AMSA08.jpg,AMNE13.jpg,AMSA14.jpg,AMNE05.jpg,AMNE13.jpg,MN,1,num_6,32,num_8,3.38327370817,,,2017_Dec_18_1204,60.0058894238,MAFE4ImagesEEG,001,202633,
AFNE01.JPG,AFNE01.JPG,AFNE01.JPG,AFNE01.JPG,AFNE01.JPG,AFNE01.JPG,,,,,,,,,2,0,20,5,,,,,,,,,,,,,,,AMNE09.jpg,AMSA01.jpg,AMNE11.jpg,AMSA13.jpg,AMSA13.jpg,MS,2,num_4,32,num_6,3.18327839067,,,2017_Dec_18_1204,60.0058894238,MAFE4ImagesEEG,001,202633,
AFNE01.JPG,AFNE01.JPG,AFNE01.JPG,AFNE01.JPG,AFNE01.JPG,AFNE01.JPG,,,,,,,,,2,1,21,3,,,,,,,,,,,,,,,AMNE19.jpg,AMSA12.jpg,AMSA09.jpg,AMNE12.jpg,AMSA09.jpg,MS,2,num_2,16,num_2,1.133160647,,,2017_Dec_18_1204,60.0058894238,MAFE4ImagesEEG,001,202633,
AFNE01.JPG,AFNE01.JPG,AFNE01.JPG,AFNE01.JPG,AFNE01.JPG,AFNE01.JPG,,,,,,,,,2,2,22,6,,,,,,,,,,,,,,,AMNE07.jpg,AMSA19.jpg,AMSA05.jpg,AMNE04.jpg,AMSA05.jpg,MS,2,num_2,16,num_2,1.283429523,,,2017_Dec_18_1204,60.0058894238,MAFE4ImagesEEG,001,202633,
AFNE01.JPG,AFNE01.JPG,AFNE01.JPG,AFNE01.JPG,AFNE01.JPG,AFNE01.JPG,,,,,,,,,2,3,23,1,,,,,,,,,,,,,,,AMSA18.jpg,AMSA08.jpg,AMNE04.jpg,AMNE12.jpg,AMNE12.jpg,MN,1,num_4,32,num_6,1.41676401068,,,2017_Dec_18_1204,60.0058894238,MAFE4ImagesEEG,001,202633,
AFNE01.JPG,AFNE01.JPG,AFNE01.JPG,AFNE01.JPG,AFNE01.JPG,AFNE01.JPG,,,,,,,,,2,4,24,0,,,,,,,,,,,,,,,AMSA14.jpg,AMNE16.jpg,AMNE04.jpg,AMSA02.jpg,AMNE04.jpg,MN,1,num_2,32,num_6,1.96694301581,,,2017_Dec_18_1204,60.0058894238,MAFE4ImagesEEG,001,202633,
AFNE01.JPG,AFNE01.JPG,AFNE01.JPG,AFNE01.JPG,AFNE01.JPG,AFNE01.JPG,,,,,,,,,2,5,25,4,,,,,,,,,,,,,,,AMNE20.jpg,AMSA18.jpg,AMSA10.jpg,AMNE07.jpg,AMSA10.jpg,MS,2,num_2,16,num_2,1.13331203582,,,2017_Dec_18_1204,60.0058894238,MAFE4ImagesEEG,001,202633,
AFNE01.JPG,AFNE01.JPG,AFNE01.JPG,AFNE01.JPG,AFNE01.JPG,AFNE01.JPG,,,,,,,,,2,6,26,2,,,,,,,,,,,,,,,AMSA13.jpg,AMNE07.jpg,AMNE19.jpg,AMSA18.jpg,AMNE19.jpg,MN,1,num_2,16,num_2,1.20013451809,,,2017_Dec_18_1204,60.0058894238,MAFE4ImagesEEG,001,202633,
AFNE01.JPG,AFNE01.JPG,AFNE01.JPG,AFNE01.JPG,AFNE01.JPG,AFNE01.JPG,,,,,,,,,2,7,27,9,,,,,,,,,,,,,,,AMNE03.jpg,AMSA07.jpg,AMSA11.jpg,AMNE19.jpg,AMSA07.jpg,MS,2,num_6,32,num_8,1.50020751823,,,2017_Dec_18_1204,60.0058894238,MAFE4ImagesEEG,001,202633,
AFNE01.JPG,AFNE01.JPG,AFNE01.JPG,AFNE01.JPG,AFNE01.JPG,AFNE01.JPG,,,,,,,,,2,8,28,8,,,,,,,,,,,,,,,AMSA12.jpg,AMNE16.jpg,AMNE20.jpg,AMSA14.jpg,AMNE20.jpg,MN,1,num_2,16,num_2,1.050139233,,,2017_Dec_18_1204,60.0058894238,MAFE4ImagesEEG,001,202633,
AFNE01.JPG,AFNE01.JPG,AFNE01.JPG,AFNE01.JPG,AFNE01.JPG,AFNE01.JPG,,,,,,,,,2,9,29,7,,,,,,,,,,,,,,,AMNE07.jpg,AMSA09.jpg,AMNE10.jpg,AMSA15.jpg,AMSA09.jpg,MS,2,num_6,16,num_6,0.53349190671,,,2017_Dec_18_1204,60.0058894238,MAFE4ImagesEEG,001,202633,
AFNE01.JPG,AFNE01.JPG,AFNE01.JPG,AFNE01.JPG,AFNE01.JPG,AFNE01.JPG,,,,,,,,,3,0,30,7,,,,,,,,,,,,,,,AMSA07.jpg,AMSA02.jpg,AMNE17.jpg,AMNE04.jpg,AMNE04.jpg,MN,1,num_4,32,num_2,1.05007829238,,,2017_Dec_18_1204,60.0058894238,MAFE4ImagesEEG,001,202633,
AFNE01.JPG,AFNE01.JPG,AFNE01.JPG,AFNE01.JPG,AFNE01.JPG,AFNE01.JPG,,,,,,,,,3,1,31,3,,,,,,,,,,,,,,,AMSA15.jpg,AMNE20.jpg,AMNE03.jpg,AMSA08.jpg,AMSA08.jpg,MS,2,num_4,16,num_4,0.900101289619,,,2017_Dec_18_1204,60.0058894238,MAFE4ImagesEEG,001,202633,
AFNE01.JPG,AFNE01.JPG,AFNE01.JPG,AFNE01.JPG,AFNE01.JPG,AFNE01.JPG,,,,,,,,,3,2,32,8,,,,,,,,,,,,,,,AMSA17.jpg,AMNE02.jpg,AMNE09.jpg,AMSA12.jpg,AMNE02.jpg,MN,1,num_6,16,num_6,1.03346688952,,,2017_Dec_18_1204,60.0058894238,MAFE4ImagesEEG,001,202633,
AFNE01.JPG,AFNE01.JPG,AFNE01.JPG,AFNE01.JPG,AFNE01.JPG,AFNE01.JPG,,,,,,,,,3,3,33,5,,,,,,,,,,,,,,,AMNE03.jpg,AMNE09.jpg,AMSA16.jpg,AMSA04.jpg,AMSA16.jpg,MS,2,num_2,16,num_2,0.800115658436,,,2017_Dec_18_1204,60.0058894238,MAFE4ImagesEEG,001,202633,
AFNE01.JPG,AFNE01.JPG,AFNE01.JPG,AFNE01.JPG,AFNE01.JPG,AFNE01.JPG,,,,,,,,,3,4,34,1,,,,,,,,,,,,,,,AMNE03.jpg,AMNE06.jpg,AMSA08.jpg,AMSA16.jpg,AMNE03.jpg,MN,1,num_8,32,num_6,1.00015684124,,,2017_Dec_18_1204,60.0058894238,MAFE4ImagesEEG,001,202633,
AFNE01.JPG,AFNE01.JPG,AFNE01.JPG,AFNE01.JPG,AFNE01.JPG,AFNE01.JPG,,,,,,,,,3,5,35,6,,,,,,,,,,,,,,,AMSA20.jpg,AMNE17.jpg,AMSA03.jpg,AMNE19.jpg,AMSA03.jpg,MS,2,num_2,32,num_8,3.33325058222,,,2017_Dec_18_1204,60.0058894238,MAFE4ImagesEEG,001,202633,
AFNE01.JPG,AFNE01.JPG,AFNE01.JPG,AFNE01.JPG,AFNE01.JPG,AFNE01.JPG,,,,,,,,,3,6,36,9,,,,,,,,,,,,,,,AMNE11.jpg,AMNE06.jpg,AMSA02.jpg,AMSA10.jpg,AMNE06.jpg,MN,1,num_6,32,num_2,1.88374102488,,,2017_Dec_18_1204,60.0058894238,MAFE4ImagesEEG,001,202633,
AFNE01.JPG,AFNE01.JPG,AFNE01.JPG,AFNE01.JPG,AFNE01.JPG,AFNE01.JPG,,,,,,,,,3,7,37,4,,,,,,,,,,,,,,,AMNE06.jpg,AMNE20.jpg,AMSA12.jpg,AMSA19.jpg,AMNE06.jpg,MN,1,num_8,32,num_2,1.25010407995,,,2017_Dec_18_1204,60.0058894238,MAFE4ImagesEEG,001,202633,
AFNE01.JPG,AFNE01.JPG,AFNE01.JPG,AFNE01.JPG,AFNE01.JPG,AFNE01.JPG,,,,,,,,,3,8,38,0,,,,,,,,,,,,,,,AMNE09.jpg,AMSA10.jpg,AMSA12.jpg,AMNE20.jpg,AMSA10.jpg,MS,2,num_6,32,num_2,1.15027368674,,,2017_Dec_18_1204,60.0058894238,MAFE4ImagesEEG,001,202633,
AFNE01.JPG,AFNE01.JPG,AFNE01.JPG,AFNE01.JPG,AFNE01.JPG,AFNE01.JPG,,,,,,,,,3,9,39,2,,,,,,,,,,,,,,,AMSA16.jpg,AMNE07.jpg,AMSA01.jpg,AMNE12.jpg,AMNE07.jpg,MN,1,num_6,16,num_6,1.0667509567,,,2017_Dec_18_1204,60.0058894238,MAFE4ImagesEEG,001,202633,
AFNE01.JPG,AFNE01.JPG,AFNE01.JPG,AFNE01.JPG,AFNE01.JPG,AFNE01.JPG,,,,,,,,,4,0,40,4,,,,,,,,,,,,,,,AMNE06.jpg,AMSA07.jpg,AMSA06.jpg,AMNE20.jpg,AMNE20.jpg,MN,1,num_4,16,num_4,1.15008284664,,,2017_Dec_18_1204,60.0058894238,MAFE4ImagesEEG,001,202633,
AFNE01.JPG,AFNE01.JPG,AFNE01.JPG,AFNE01.JPG,AFNE01.JPG,AFNE01.JPG,,,,,,,,,4,1,41,0,,,,,,,,,,,,,,,AMSA17.jpg,AMNE12.jpg,AMSA10.jpg,AMNE20.jpg,AMSA17.jpg,MS,2,num_8,32,num_2,1.0834156028,,,2017_Dec_18_1204,60.0058894238,MAFE4ImagesEEG,001,202633,
AFNE01.JPG,AFNE01.JPG,AFNE01.JPG,AFNE01.JPG,AFNE01.JPG,AFNE01.JPG,,,,,,,,,4,2,42,3,,,,,,,,,,,,,,,AMNE11.jpg,AMSA01.jpg,AMNE17.jpg,AMSA06.jpg,AMSA06.jpg,MS,2,num_4,32,num_8,1.38346198201,,,2017_Dec_18_1204,60.0058894238,MAFE4ImagesEEG,001,202633,
AFNE01.JPG,AFNE01.JPG,AFNE01.JPG,AFNE01.JPG,AFNE01.JPG,AFNE01.JPG,,,,,,,,,4,3,43,6,,,,,,,,,,,,,,,AMNE05.jpg,AMSA07.jpg,AMSA11.jpg,AMNE16.jpg,AMSA11.jpg,MS,2,num_2,32,num_6,1.58344414877,,,2017_Dec_18_1204,60.0058894238,MAFE4ImagesEEG,001,202633,
AFNE01.JPG,AFNE01.JPG,AFNE01.JPG,AFNE01.JPG,AFNE01.JPG,AFNE01.JPG,,,,,,,,,4,4,44,5,,,,,,,,,,,,,,,AMSA17.jpg,AMNE02.jpg,AMNE11.jpg,AMSA08.jpg,AMSA17.jpg,MS,2,num_8,32,num_4,1.36681176908,,,2017_Dec_18_1204,60.0058894238,MAFE4ImagesEEG,001,202633,
AFNE01.JPG,AFNE01.JPG,AFNE01.JPG,AFNE01.JPG,AFNE01.JPG,AFNE01.JPG,,,,,,,,,4,5,45,2,,,,,,,,,,,,,,,AMSA13.jpg,AMNE19.jpg,AMSA10.jpg,AMNE02.jpg,AMSA13.jpg,MS,2,num_8,32,num_2,0.883446907159,,,2017_Dec_18_1204,60.0058894238,MAFE4ImagesEEG,001,202633,
AFNE01.JPG,AFNE01.JPG,AFNE01.JPG,AFNE01.JPG,AFNE01.JPG,AFNE01.JPG,,,,,,,,,4,6,46,9,,,,,,,,,,,,,,,AMSA09.jpg,AMNE10.jpg,AMNE08.jpg,AMSA13.jpg,AMSA13.jpg,MS,2,num_4,32,num_6,1.06676057912,,,2017_Dec_18_1204,60.0058894238,MAFE4ImagesEEG,001,202633,
AFNE01.JPG,AFNE01.JPG,AFNE01.JPG,AFNE01.JPG,AFNE01.JPG,AFNE01.JPG,,,,,,,,,4,7,47,7,,,,,,,,,,,,,,,AMSA17.jpg,AMNE09.jpg,AMNE01.jpg,AMSA01.jpg,AMSA17.jpg,MS,2,num_8,32,num_2,1.300041568,,,2017_Dec_18_1204,60.0058894238,MAFE4ImagesEEG,001,202633,
AFNE01.JPG,AFNE01.JPG,AFNE01.JPG,AFNE01.JPG,AFNE01.JPG,AFNE01.JPG,,,,,,,,,4,8,48,1,,,,,,,,,,,,,,,AMSA12.jpg,AMSA19.jpg,AMNE19.jpg,AMNE07.jpg,AMNE19.jpg,MN,1,num_2,32,num_6,2.79995657224,,,2017_Dec_18_1204,60.0058894238,MAFE4ImagesEEG,001,202633,
AFNE01.JPG,AFNE01.JPG,AFNE01.JPG,AFNE01.JPG,AFNE01.JPG,AFNE01.JPG,,,,,,,,,4,9,49,8,,,,,,,,,,,,,,,AMSA15.jpg,AMNE01.jpg,AMSA01.jpg,AMNE08.jpg,AMSA15.jpg,MS,2,num_8,16,num_8,4.83309726929,,,2017_Dec_18_1204,60.0058894238,MAFE4ImagesEEG,001,202633,
AFNE01.JPG,AFNE01.JPG,AFNE01.JPG,AFNE01.JPG,AFNE01.JPG,AFNE01.JPG,,,,,,,,,5,0,50,9,,,,,,,,,,,,,,,AMNE16.jpg,AMSA04.jpg,AMNE04.jpg,AMSA20.jpg,AMNE16.jpg,MN,1,num_8,16,num_8,2.73343205685,,,2017_Dec_18_1204,60.0058894238,MAFE4ImagesEEG,001,202633,
AFNE01.JPG,AFNE01.JPG,AFNE01.JPG,AFNE01.JPG,AFNE01.JPG,AFNE01.JPG,,,,,,,,,5,1,51,0,,,,,,,,,,,,,,,AMSA18.jpg,AMNE13.jpg,AMNE10.jpg,AMSA15.jpg,AMSA15.jpg,MS,2,num_4,48,None,,,,2017_Dec_18_1204,60.0058894238,MAFE4ImagesEEG,001,202633,
AFNE01.JPG,AFNE01.JPG,AFNE01.JPG,AFNE01.JPG,AFNE01.JPG,AFNE01.JPG,,,,,,,,,5,2,52,2,,,,,,,,,,,,,,,AMNE07.jpg,AMSA18.jpg,AMNE18.jpg,AMSA04.jpg,AMNE07.jpg,MN,1,num_8,32,num_2,1.13353976142,,,2017_Dec_18_1204,60.0058894238,MAFE4ImagesEEG,001,202633,
AFNE01.JPG,AFNE01.JPG,AFNE01.JPG,AFNE01.JPG,AFNE01.JPG,AFNE01.JPG,,,,,,,,,5,3,53,1,,,,,,,,,,,,,,,AMSA17.jpg,AMNE13.jpg,AMNE05.jpg,AMSA02.jpg,AMSA02.jpg,MS,2,num_4,16,num_4,0.933437317144,,,2017_Dec_18_1204,60.0058894238,MAFE4ImagesEEG,001,202633,
AFNE01.JPG,AFNE01.JPG,AFNE01.JPG,AFNE01.JPG,AFNE01.JPG,AFNE01.JPG,,,,,,,,,5,4,54,6,,,,,,,,,,,,,,,AMNE01.jpg,AMSA12.jpg,AMSA05.jpg,AMNE04.jpg,AMNE01.jpg,MN,1,num_8,16,num_8,0.850132368971,,,2017_Dec_18_1204,60.0058894238,MAFE4ImagesEEG,001,202633,
AFNE01.JPG,AFNE01.JPG,AFNE01.JPG,AFNE01.JPG,AFNE01.JPG,AFNE01.JPG,,,,,,,,,5,5,55,4,,,,,,,,,,,,,,,AMSA01.jpg,AMNE06.jpg,AMNE19.jpg,AMSA04.jpg,AMNE06.jpg,MN,1,num_6,32,num_4,2.34994313307,,,2017_Dec_18_1204,60.0058894238,MAFE4ImagesEEG,001,202633,
AFNE01.JPG,AFNE01.JPG,AFNE01.JPG,AFNE01.JPG,AFNE01.JPG,AFNE01.JPG,,,,,,,,,5,6,56,7,,,,,,,,,,,,,,,AMNE19.jpg,AMNE03.jpg,AMSA19.jpg,AMSA17.jpg,AMNE19.jpg,MN,1,num_8,32,num_2,1.16675262479,,,2017_Dec_18_1204,60.0058894238,MAFE4ImagesEEG,001,202633,
AFNE01.JPG,AFNE01.JPG,AFNE01.JPG,AFNE01.JPG,AFNE01.JPG,AFNE01.JPG,,,,,,,,,5,7,57,3,,,,,,,,,,,,,,,AMSA14.jpg,AMNE01.jpg,AMNE16.jpg,AMSA18.jpg,AMSA14.jpg,MS,2,num_8,32,num_4,1.0001138621,,,2017_Dec_18_1204,60.0058894238,MAFE4ImagesEEG,001,202633,
AFNE01.JPG,AFNE01.JPG,AFNE01.JPG,AFNE01.JPG,AFNE01.JPG,AFNE01.JPG,,,,,,,,,5,8,58,5,,,,,,,,,,,,,,,AMSA05.jpg,AMNE06.jpg,AMSA06.jpg,AMNE02.jpg,AMNE02.jpg,MN,1,num_4,16,num_4,1.21678793849,,,2017_Dec_18_1204,60.0058894238,MAFE4ImagesEEG,001,202633,
AFNE01.JPG,AFNE01.JPG,AFNE01.JPG,AFNE01.JPG,AFNE01.JPG,AFNE01.JPG,,,,,,,,,5,9,59,8,,,,,,,,,,,,,,,AMSA16.jpg,AMNE08.jpg,AMSA17.jpg,AMNE01.jpg,AMNE08.jpg,MN,1,num_6,32,num_8,1.13345829304,,,2017_Dec_18_1204,60.0058894238,MAFE4ImagesEEG,001,202633,
,,,,,,,,,,,,,,,,,,,,,,,,,,,,,,,,,,,,,,,,,,,space,3.68316645268,2017_Dec_18_1204,60.0058894238,MAFE4ImagesEEG,001,202633,
AFNE01.JPG,AFNE01.JPG,AFNE01.JPG,AFNE01.JPG,AFNE01.JPG,AFNE01.JPG,,,,,,,,,,,,,0,0,0,3,,,,,,,,,,,AFNE16.jpg,AFSA11.jpg,AFSA01.jpg,AFNE08.jpg,AFSA01.jpg,FS,4,num_2,16,num_2,0.73342018947,,,2017_Dec_18_1204,60.0058894238,MAFE4ImagesEEG,001,202633,
AFNE01.JPG,AFNE01.JPG,AFNE01.JPG,AFNE01.JPG,AFNE01.JPG,AFNE01.JPG,,,,,,,,,,,,,0,1,1,0,,,,,,,,,,,AFNE10.jpg,AFSA15.jpg,AFNE18.jpg,AFSA16.jpg,AFSA15.jpg,FS,4,num_6,16,num_6,0.633501913864,,,2017_Dec_18_1204,60.0058894238,MAFE4ImagesEEG,001,202633,
AFNE01.JPG,AFNE01.JPG,AFNE01.JPG,AFNE01.JPG,AFNE01.JPG,AFNE01.JPG,,,,,,,,,,,,,0,2,2,4,,,,,,,,,,,AFSA09.jpg,AFSA17.jpg,AFNE01.jpg,AFNE04.jpg,AFNE04.jpg,FN,3,num_4,16,num_4,0.866770714521,,,2017_Dec_18_1204,60.0058894238,MAFE4ImagesEEG,001,202633,
AFNE01.JPG,AFNE01.JPG,AFNE01.JPG,AFNE01.JPG,AFNE01.JPG,AFNE01.JPG,,,,,,,,,,,,,0,3,3,2,,,,,,,,,,,AFNE03.jpg,AFNE11.jpg,AFSA19.jpg,AFSA16.jpg,AFNE03.jpg,FN,3,num_8,32,num_2,1.81694516446,,,2017_Dec_18_1204,60.0058894238,MAFE4ImagesEEG,001,202633,
AFNE01.JPG,AFNE01.JPG,AFNE01.JPG,AFNE01.JPG,AFNE01.JPG,AFNE01.JPG,,,,,,,,,,,,,0,4,4,9,,,,,,,,,,,AFSA12.jpg,AFNE13.jpg,AFSA18.jpg,AFNE08.jpg,AFSA12.jpg,FS,4,num_8,32,num_4,3.71651081927,,,2017_Dec_18_1204,60.0058894238,MAFE4ImagesEEG,001,202633,
AFNE01.JPG,AFNE01.JPG,AFNE01.JPG,AFNE01.JPG,AFNE01.JPG,AFNE01.JPG,,,,,,,,,,,,,0,5,5,6,,,,,,,,,,,AFSA20.jpg,AFNE14.jpg,AFSA16.jpg,AFNE09.jpg,AFSA20.jpg,FS,4,num_8,32,num_2,1.01679775259,,,2017_Dec_18_1204,60.0058894238,MAFE4ImagesEEG,001,202633,
AFNE01.JPG,AFNE01.JPG,AFNE01.JPG,AFNE01.JPG,AFNE01.JPG,AFNE01.JPG,,,,,,,,,,,,,0,6,6,5,,,,,,,,,,,AFSA14.jpg,AFSA16.jpg,AFNE13.jpg,AFNE15.jpg,AFSA14.jpg,FS,4,num_8,32,num_4,0.966722026002,,,2017_Dec_18_1204,60.0058894238,MAFE4ImagesEEG,001,202633,
AFNE01.JPG,AFNE01.JPG,AFNE01.JPG,AFNE01.JPG,AFNE01.JPG,AFNE01.JPG,,,,,,,,,,,,,0,7,7,7,,,,,,,,,,,AFSA14.jpg,AFNE08.jpg,AFSA03.jpg,AFNE05.jpg,AFSA03.jpg,FS,4,num_2,32,num_4,0.91674701171,,,2017_Dec_18_1204,60.0058894238,MAFE4ImagesEEG,001,202633,
AFNE01.JPG,AFNE01.JPG,AFNE01.JPG,AFNE01.JPG,AFNE01.JPG,AFNE01.JPG,,,,,,,,,,,,,0,8,8,8,,,,,,,,,,,AFNE05.jpg,AFSA02.jpg,AFSA16.jpg,AFNE15.jpg,AFSA16.jpg,FS,4,num_2,48,None,,,,2017_Dec_18_1204,60.0058894238,MAFE4ImagesEEG,001,202633,
AFNE01.JPG,AFNE01.JPG,AFNE01.JPG,AFNE01.JPG,AFNE01.JPG,AFNE01.JPG,,,,,,,,,,,,,0,9,9,1,,,,,,,,,,,AFSA02.jpg,AFSA08.jpg,AFNE03.jpg,AFNE18.jpg,AFSA08.jpg,FS,4,num_6,32,num_2,2.00007633585,,,2017_Dec_18_1204,60.0058894238,MAFE4ImagesEEG,001,202633,
AFNE01.JPG,AFNE01.JPG,AFNE01.JPG,AFNE01.JPG,AFNE01.JPG,AFNE01.JPG,,,,,,,,,,,,,1,0,10,5,,,,,,,,,,,AFNE08.jpg,AFNE06.jpg,AFSA04.jpg,AFSA02.jpg,AFNE06.jpg,FN,3,num_6,16,num_6,1.03358716611,,,2017_Dec_18_1204,60.0058894238,MAFE4ImagesEEG,001,202633,
AFNE01.JPG,AFNE01.JPG,AFNE01.JPG,AFNE01.JPG,AFNE01.JPG,AFNE01.JPG,,,,,,,,,,,,,1,1,11,9,,,,,,,,,,,AFNE18.jpg,AFSA06.jpg,AFSA12.jpg,AFNE19.jpg,AFSA12.jpg,FS,4,num_2,16,num_2,0.883508489002,,,2017_Dec_18_1204,60.0058894238,MAFE4ImagesEEG,001,202633,
AFNE01.JPG,AFNE01.JPG,AFNE01.JPG,AFNE01.JPG,AFNE01.JPG,AFNE01.JPG,,,,,,,,,,,,,1,2,12,2,,,,,,,,,,,AFNE14.jpg,AFSA08.jpg,AFSA07.jpg,AFNE17.jpg,AFNE14.jpg,FN,3,num_8,16,num_8,1.31674534408,,,2017_Dec_18_1204,60.0058894238,MAFE4ImagesEEG,001,202633,
AFNE01.JPG,AFNE01.JPG,AFNE01.JPG,AFNE01.JPG,AFNE01.JPG,AFNE01.JPG,,,,,,,,,,,,,1,3,13,3,,,,,,,,,,,AFSA15.jpg,AFNE03.jpg,AFNE12.jpg,AFSA16.jpg,AFNE03.jpg,FN,3,num_6,16,num_6,0.916788707953,,,2017_Dec_18_1204,60.0058894238,MAFE4ImagesEEG,001,202633,
AFNE01.JPG,AFNE01.JPG,AFNE01.JPG,AFNE01.JPG,AFNE01.JPG,AFNE01.JPG,,,,,,,,,,,,,1,4,14,0,,,,,,,,,,,AFNE06.jpg,AFSA20.jpg,AFNE15.jpg,AFSA18.jpg,AFNE06.jpg,FN,3,num_8,32,num_6,1.10009532375,,,2017_Dec_18_1204,60.0058894238,MAFE4ImagesEEG,001,202633,
AFNE01.JPG,AFNE01.JPG,AFNE01.JPG,AFNE01.JPG,AFNE01.JPG,AFNE01.JPG,,,,,,,,,,,,,1,5,15,1,,,,,,,,,,,AFNE19.jpg,AFSA19.jpg,AFNE04.jpg,AFSA13.jpg,AFNE19.jpg,FN,3,num_8,16,num_8,0.666831526905,,,2017_Dec_18_1204,60.0058894238,MAFE4ImagesEEG,001,202633,
AFNE01.JPG,AFNE01.JPG,AFNE01.JPG,AFNE01.JPG,AFNE01.JPG,AFNE01.JPG,,,,,,,,,,,,,1,6,16,4,,,,,,,,,,,AFSA15.jpg,AFNE15.jpg,AFSA17.jpg,AFNE10.jpg,AFSA17.jpg,FS,4,num_2,32,num_8,1.75010440033,,,2017_Dec_18_1204,60.0058894238,MAFE4ImagesEEG,001,202633,
AFNE01.JPG,AFNE01.JPG,AFNE01.JPG,AFNE01.JPG,AFNE01.JPG,AFNE01.JPG,,,,,,,,,,,,,1,7,17,7,,,,,,,,,,,AFSA03.jpg,AFSA19.jpg,AFNE15.jpg,AFNE04.jpg,AFSA19.jpg,FS,4,num_6,16,num_6,0.733507430647,,,2017_Dec_18_1204,60.0058894238,MAFE4ImagesEEG,001,202633,
AFNE01.JPG,AFNE01.JPG,AFNE01.JPG,AFNE01.JPG,AFNE01.JPG,AFNE01.JPG,,,,,,,,,,,,,1,8,18,6,,,,,,,,,,,AFNE16.jpg,AFSA15.jpg,AFNE14.jpg,AFSA10.jpg,AFSA10.jpg,FS,4,num_4,16,num_4,0.816775814164,,,2017_Dec_18_1204,60.0058894238,MAFE4ImagesEEG,001,202633,
AFNE01.JPG,AFNE01.JPG,AFNE01.JPG,AFNE01.JPG,AFNE01.JPG,AFNE01.JPG,,,,,,,,,,,,,1,9,19,8,,,,,,,,,,,AFSA20.jpg,AFNE09.jpg,AFNE20.jpg,AFSA19.jpg,AFNE20.jpg,FN,3,num_2,16,num_2,1.61676734686,,,2017_Dec_18_1204,60.0058894238,MAFE4ImagesEEG,001,202633,
AFNE01.JPG,AFNE01.JPG,AFNE01.JPG,AFNE01.JPG,AFNE01.JPG,AFNE01.JPG,,,,,,,,,,,,,2,0,20,1,,,,,,,,,,,AFSA10.jpg,AFSA04.jpg,AFNE10.jpg,AFNE11.jpg,AFSA04.jpg,FS,4,num_6,16,num_6,1.31645892421,,,2017_Dec_18_1204,60.0058894238,MAFE4ImagesEEG,001,202633,
AFNE01.JPG,AFNE01.JPG,AFNE01.JPG,AFNE01.JPG,AFNE01.JPG,AFNE01.JPG,,,,,,,,,,,,,2,1,21,3,,,,,,,,,,,AFSA17.jpg,AFNE12.jpg,AFSA02.jpg,AFNE08.jpg,AFNE08.jpg,FN,3,num_4,32,num_8,0.850109275896,,,2017_Dec_18_1204,60.0058894238,MAFE4ImagesEEG,001,202633,
AFNE01.JPG,AFNE01.JPG,AFNE01.JPG,AFNE01.JPG,AFNE01.JPG,AFNE01.JPG,,,,,,,,,,,,,2,2,22,6,,,,,,,,,,,AFSA05.jpg,AFNE02.jpg,AFSA16.jpg,AFNE14.jpg,AFNE14.jpg,FN,3,num_4,16,num_4,1.40010257252,,,2017_Dec_18_1204,60.0058894238,MAFE4ImagesEEG,001,202633,
AFNE01.JPG,AFNE01.JPG,AFNE01.JPG,AFNE01.JPG,AFNE01.JPG,AFNE01.JPG,,,,,,,,,,,,,2,3,23,9,,,,,,,,,,,AFSA09.jpg,AFNE05.jpg,AFNE19.jpg,AFSA07.jpg,AFSA09.jpg,FS,4,num_8,32,num_6,1.10035448102,,,2017_Dec_18_1204,60.0058894238,MAFE4ImagesEEG,001,202633,
AFNE01.JPG,AFNE01.JPG,AFNE01.JPG,AFNE01.JPG,AFNE01.JPG,AFNE01.JPG,,,,,,,,,,,,,2,4,24,5,,,,,,,,,,,AFSA13.jpg,AFNE12.jpg,AFNE11.jpg,AFSA03.jpg,AFSA13.jpg,FS,4,num_8,32,num_2,1.81672449596,,,2017_Dec_18_1204,60.0058894238,MAFE4ImagesEEG,001,202633,
AFNE01.JPG,AFNE01.JPG,AFNE01.JPG,AFNE01.JPG,AFNE01.JPG,AFNE01.JPG,,,,,,,,,,,,,2,5,25,2,,,,,,,,,,,AFSA09.jpg,AFNE09.jpg,AFNE19.jpg,AFSA16.jpg,AFSA16.jpg,FS,4,num_4,32,num_2,1.10012066225,,,2017_Dec_18_1204,60.0058894238,MAFE4ImagesEEG,001,202633,
AFNE01.JPG,AFNE01.JPG,AFNE01.JPG,AFNE01.JPG,AFNE01.JPG,AFNE01.JPG,,,,,,,,,,,,,2,6,26,0,,,,,,,,,,,AFSA14.jpg,AFNE03.jpg,AFSA08.jpg,AFNE10.jpg,AFSA08.jpg,FS,4,num_2,16,num_2,1.11676285602,,,2017_Dec_18_1204,60.0058894238,MAFE4ImagesEEG,001,202633,
AFNE01.JPG,AFNE01.JPG,AFNE01.JPG,AFNE01.JPG,AFNE01.JPG,AFNE01.JPG,,,,,,,,,,,,,2,7,27,8,,,,,,,,,,,AFSA05.jpg,AFNE05.jpg,AFSA07.jpg,AFNE07.jpg,AFSA07.jpg,FS,4,num_2,16,num_2,3.63323185127,,,2017_Dec_18_1204,60.0058894238,MAFE4ImagesEEG,001,202633,
AFNE01.JPG,AFNE01.JPG,AFNE01.JPG,AFNE01.JPG,AFNE01.JPG,AFNE01.JPG,,,,,,,,,,,,,2,8,28,4,,,,,,,,,,,AFSA19.jpg,AFSA15.jpg,AFNE02.jpg,AFNE08.jpg,AFNE08.jpg,FN,3,num_4,32,num_2,1.08345056325,,,2017_Dec_18_1204,60.0058894238,MAFE4ImagesEEG,001,202633,
AFNE01.JPG,AFNE01.JPG,AFNE01.JPG,AFNE01.JPG,AFNE01.JPG,AFNE01.JPG,,,,,,,,,,,,,2,9,29,7,,,,,,,,,,,AFSA20.jpg,AFNE11.jpg,AFNE10.jpg,AFSA15.jpg,AFNE10.jpg,FN,3,num_2,32,num_4,1.86668058671,,,2017_Dec_18_1204,60.0058894238,MAFE4ImagesEEG,001,202633,
AFNE01.JPG,AFNE01.JPG,AFNE01.JPG,AFNE01.JPG,AFNE01.JPG,AFNE01.JPG,,,,,,,,,,,,,3,0,30,7,,,,,,,,,,,AFSA02.jpg,AFNE04.jpg,AFSA15.jpg,AFNE15.jpg,AFSA02.jpg,FS,4,num_8,16,num_8,1.13320202241,,,2017_Dec_18_1204,60.0058894238,MAFE4ImagesEEG,001,202633,
AFNE01.JPG,AFNE01.JPG,AFNE01.JPG,AFNE01.JPG,AFNE01.JPG,AFNE01.JPG,,,,,,,,,,,,,3,1,31,4,,,,,,,,,,,AFSA11.jpg,AFNE03.jpg,AFSA16.jpg,AFNE02.jpg,AFSA16.jpg,FS,4,num_2,16,num_2,0.466908055358,,,2017_Dec_18_1204,60.0058894238,MAFE4ImagesEEG,001,202633,
AFNE01.JPG,AFNE01.JPG,AFNE01.JPG,AFNE01.JPG,AFNE01.JPG,AFNE01.JPG,,,,,,,,,,,,,3,2,32,6,,,,,,,,,,,AFNE16.jpg,AFSA11.jpg,AFNE01.jpg,AFSA08.jpg,AFSA08.jpg,FS,4,num_4,16,num_4,0.983431896195,,,2017_Dec_18_1204,60.0058894238,MAFE4ImagesEEG,001,202633,
AFNE01.JPG,AFNE01.JPG,AFNE01.JPG,AFNE01.JPG,AFNE01.JPG,AFNE01.JPG,,,,,,,,,,,,,3,3,33,3,,,,,,,,,,,AFSA05.jpg,AFSA16.jpg,AFNE08.jpg,AFNE04.jpg,AFNE04.jpg,FN,3,num_4,32,num_2,0.833476383239,,,2017_Dec_18_1204,60.0058894238,MAFE4ImagesEEG,001,202633,
AFNE01.JPG,AFNE01.JPG,AFNE01.JPG,AFNE01.JPG,AFNE01.JPG,AFNE01.JPG,,,,,,,,,,,,,3,4,34,1,,,,,,,,,,,AFSA09.jpg,AFNE04.jpg,AFNE17.jpg,AFSA06.jpg,AFNE04.jpg,FN,3,num_6,16,num_6,0.666812602896,,,2017_Dec_18_1204,60.0058894238,MAFE4ImagesEEG,001,202633,
AFNE01.JPG,AFNE01.JPG,AFNE01.JPG,AFNE01.JPG,AFNE01.JPG,AFNE01.JPG,,,,,,,,,,,,,3,5,35,0,,,,,,,,,,,AFNE09.jpg,AFNE07.jpg,AFSA07.jpg,AFSA12.jpg,AFNE07.jpg,FN,3,num_6,32,num_8,0.650138976518,,,2017_Dec_18_1204,60.0058894238,MAFE4ImagesEEG,001,202633,
AFNE01.JPG,AFNE01.JPG,AFNE01.JPG,AFNE01.JPG,AFNE01.JPG,AFNE01.JPG,,,,,,,,,,,,,3,6,36,2,,,,,,,,,,,AFSA05.jpg,AFSA10.jpg,AFNE20.jpg,AFNE09.jpg,AFNE20.jpg,FN,3,num_2,16,num_2,1.0667952192,,,2017_Dec_18_1204,60.0058894238,MAFE4ImagesEEG,001,202633,
AFNE01.JPG,AFNE01.JPG,AFNE01.JPG,AFNE01.JPG,AFNE01.JPG,AFNE01.JPG,,,,,,,,,,,,,3,7,37,5,,,,,,,,,,,AFNE02.jpg,AFNE17.jpg,AFSA16.jpg,AFSA18.jpg,AFSA18.jpg,FS,4,num_4,16,num_4,1.10009853123,,,2017_Dec_18_1204,60.0058894238,MAFE4ImagesEEG,001,202633,
AFNE01.JPG,AFNE01.JPG,AFNE01.JPG,AFNE01.JPG,AFNE01.JPG,AFNE01.JPG,,,,,,,,,,,,,3,8,38,9,,,,,,,,,,,AFSA01.jpg,AFNE03.jpg,AFNE18.jpg,AFSA19.jpg,AFSA01.jpg,FS,4,num_8,32,num_2,1.16677764244,,,2017_Dec_18_1204,60.0058894238,MAFE4ImagesEEG,001,202633,
AFNE01.JPG,AFNE01.JPG,AFNE01.JPG,AFNE01.JPG,AFNE01.JPG,AFNE01.JPG,,,,,,,,,,,,,3,9,39,8,,,,,,,,,,,AFNE06.jpg,AFSA04.jpg,AFNE04.jpg,AFSA09.jpg,AFNE06.jpg,FN,3,num_8,32,num_4,1.20009570848,,,2017_Dec_18_1204,60.0058894238,MAFE4ImagesEEG,001,202633,
AFNE01.JPG,AFNE01.JPG,AFNE01.JPG,AFNE01.JPG,AFNE01.JPG,AFNE01.JPG,,,,,,,,,,,,,4,0,40,3,,,,,,,,,,,AFSA20.jpg,AFNE04.jpg,AFSA14.jpg,AFNE10.jpg,AFSA20.jpg,FS,4,num_8,16,num_8,3.34992100205,,,2017_Dec_18_1204,60.0058894238,MAFE4ImagesEEG,001,202633,
AFNE01.JPG,AFNE01.JPG,AFNE01.JPG,AFNE01.JPG,AFNE01.JPG,AFNE01.JPG,,,,,,,,,,,,,4,1,41,1,,,,,,,,,,,AFSA15.jpg,AFNE05.jpg,AFNE19.jpg,AFSA20.jpg,AFNE05.jpg,FN,3,num_6,32,num_2,1.31695286231,,,2017_Dec_18_1204,60.0058894238,MAFE4ImagesEEG,001,202633,
AFNE01.JPG,AFNE01.JPG,AFNE01.JPG,AFNE01.JPG,AFNE01.JPG,AFNE01.JPG,,,,,,,,,,,,,4,2,42,4,,,,,,,,,,,AFNE18.jpg,AFSA01.jpg,AFNE03.jpg,AFSA16.jpg,AFSA16.jpg,FS,4,num_4,48,None,,,,2017_Dec_18_1204,60.0058894238,MAFE4ImagesEEG,001,202633,
AFNE01.JPG,AFNE01.JPG,AFNE01.JPG,AFNE01.JPG,AFNE01.JPG,AFNE01.JPG,,,,,,,,,,,,,4,3,43,7,,,,,,,,,,,AFSA06.jpg,AFNE10.jpg,AFNE09.jpg,AFSA11.jpg,AFSA06.jpg,FS,4,num_8,32,num_6,1.83333397517,,,2017_Dec_18_1204,60.0058894238,MAFE4ImagesEEG,001,202633,
AFNE01.JPG,AFNE01.JPG,AFNE01.JPG,AFNE01.JPG,AFNE01.JPG,AFNE01.JPG,,,,,,,,,,,,,4,4,44,9,,,,,,,,,,,AFSA01.jpg,AFSA05.jpg,AFNE02.jpg,AFNE08.jpg,AFNE02.jpg,FN,3,num_2,32,num_4,1.11675676238,,,2017_Dec_18_1204,60.0058894238,MAFE4ImagesEEG,001,202633,
AFNE01.JPG,AFNE01.JPG,AFNE01.JPG,AFNE01.JPG,AFNE01.JPG,AFNE01.JPG,,,,,,,,,,,,,4,5,45,0,,,,,,,,,,,AFSA06.jpg,AFSA05.jpg,AFNE11.jpg,AFNE05.jpg,AFNE05.jpg,FN,3,num_4,16,num_4,1.28343112674,,,2017_Dec_18_1204,60.0058894238,MAFE4ImagesEEG,001,202633,
AFNE01.JPG,AFNE01.JPG,AFNE01.JPG,AFNE01.JPG,AFNE01.JPG,AFNE01.JPG,,,,,,,,,,,,,4,6,46,2,,,,,,,,,,,AFSA17.jpg,AFSA11.jpg,AFNE07.jpg,AFNE10.jpg,AFSA11.jpg,FS,4,num_6,16,num_6,1.21673277067,,,2017_Dec_18_1204,60.0058894238,MAFE4ImagesEEG,001,202633,
AFNE01.JPG,AFNE01.JPG,AFNE01.JPG,AFNE01.JPG,AFNE01.JPG,AFNE01.JPG,,,,,,,,,,,,,4,7,47,6,,,,,,,,,,,AFSA05.jpg,AFNE17.jpg,AFSA14.jpg,AFNE07.jpg,AFSA05.jpg,FS,4,num_8,32,num_4,1.13354810001,,,2017_Dec_18_1204,60.0058894238,MAFE4ImagesEEG,001,202633,
AFNE01.JPG,AFNE01.JPG,AFNE01.JPG,AFNE01.JPG,AFNE01.JPG,AFNE01.JPG,,,,,,,,,,,,,4,8,48,5,,,,,,,,,,,AFSA19.jpg,AFSA15.jpg,AFNE09.jpg,AFNE10.jpg,AFSA15.jpg,FS,4,num_6,16,num_6,1.13344514277,,,2017_Dec_18_1204,60.0058894238,MAFE4ImagesEEG,001,202633,
AFNE01.JPG,AFNE01.JPG,AFNE01.JPG,AFNE01.JPG,AFNE01.JPG,AFNE01.JPG,,,,,,,,,,,,,4,9,49,8,,,,,,,,,,,AFSA12.jpg,AFNE01.jpg,AFNE19.jpg,AFSA15.jpg,AFNE19.jpg,FN,3,num_2,16,num_2,1.08348359959,,,2017_Dec_18_1204,60.0058894238,MAFE4ImagesEEG,001,202633,
AFNE01.JPG,AFNE01.JPG,AFNE01.JPG,AFNE01.JPG,AFNE01.JPG,AFNE01.JPG,,,,,,,,,,,,,5,0,50,9,,,,,,,,,,,AFNE02.jpg,AFSA12.jpg,AFSA20.jpg,AFNE11.jpg,AFSA20.jpg,FS,4,num_2,32,num_8,1.10008217348,,,2017_Dec_18_1204,60.0058894238,MAFE4ImagesEEG,001,202633,
AFNE01.JPG,AFNE01.JPG,AFNE01.JPG,AFNE01.JPG,AFNE01.JPG,AFNE01.JPG,,,,,,,,,,,,,5,1,51,8,,,,,,,,,,,AFSA01.jpg,AFNE07.jpg,AFSA15.jpg,AFNE19.jpg,AFNE19.jpg,FN,3,num_4,32,num_6,4.48316440033,,,2017_Dec_18_1204,60.0058894238,MAFE4ImagesEEG,001,202633,
AFNE01.JPG,AFNE01.JPG,AFNE01.JPG,AFNE01.JPG,AFNE01.JPG,AFNE01.JPG,,,,,,,,,,,,,5,2,52,5,,,,,,,,,,,AFNE04.jpg,AFSA03.jpg,AFNE06.jpg,AFSA05.jpg,AFSA05.jpg,FS,4,num_4,16,num_4,1.1337594674,,,2017_Dec_18_1204,60.0058894238,MAFE4ImagesEEG,001,202633,
AFNE01.JPG,AFNE01.JPG,AFNE01.JPG,AFNE01.JPG,AFNE01.JPG,AFNE01.JPG,,,,,,,,,,,,,5,3,53,2,,,,,,,,,,,AFSA18.jpg,AFNE18.jpg,AFSA03.jpg,AFNE06.jpg,AFSA03.jpg,FS,4,num_2,32,num_6,1.16676834086,,,2017_Dec_18_1204,60.0058894238,MAFE4ImagesEEG,001,202633,
AFNE01.JPG,AFNE01.JPG,AFNE01.JPG,AFNE01.JPG,AFNE01.JPG,AFNE01.JPG,,,,,,,,,,,,,5,4,54,3,,,,,,,,,,,AFNE14.jpg,AFSA19.jpg,AFNE15.jpg,AFSA12.jpg,AFSA19.jpg,FS,4,num_6,32,num_2,0.866914084647,,,2017_Dec_18_1204,60.0058894238,MAFE4ImagesEEG,001,202633,
AFNE01.JPG,AFNE01.JPG,AFNE01.JPG,AFNE01.JPG,AFNE01.JPG,AFNE01.JPG,,,,,,,,,,,,,5,5,55,7,,,,,,,,,,,AFSA15.jpg,AFNE13.jpg,AFNE03.jpg,AFSA07.jpg,AFSA07.jpg,FS,4,num_4,32,num_2,0.600136378314,,,2017_Dec_18_1204,60.0058894238,MAFE4ImagesEEG,001,202633,
AFNE01.JPG,AFNE01.JPG,AFNE01.JPG,AFNE01.JPG,AFNE01.JPG,AFNE01.JPG,,,,,,,,,,,,,5,6,56,1,,,,,,,,,,,AFSA16.jpg,AFSA10.jpg,AFNE03.jpg,AFNE18.jpg,AFSA16.jpg,FS,4,num_8,32,num_4,2.04998752335,,,2017_Dec_18_1204,60.0058894238,MAFE4ImagesEEG,001,202633,
AFNE01.JPG,AFNE01.JPG,AFNE01.JPG,AFNE01.JPG,AFNE01.JPG,AFNE01.JPG,,,,,,,,,,,,,5,7,57,0,,,,,,,,,,,AFSA20.jpg,AFNE08.jpg,AFNE01.jpg,AFSA01.jpg,AFNE08.jpg,FN,3,num_6,16,num_6,0.433556632139,,,2017_Dec_18_1204,60.0058894238,MAFE4ImagesEEG,001,202633,
AFNE01.JPG,AFNE01.JPG,AFNE01.JPG,AFNE01.JPG,AFNE01.JPG,AFNE01.JPG,,,,,,,,,,,,,5,8,58,6,,,,,,,,,,,AFSA02.jpg,AFSA17.jpg,AFNE10.jpg,AFNE01.jpg,AFNE01.jpg,FN,3,num_4,32,num_8,0.816777417902,,,2017_Dec_18_1204,60.0058894238,MAFE4ImagesEEG,001,202633,
AFNE01.JPG,AFNE01.JPG,AFNE01.JPG,AFNE01.JPG,AFNE01.JPG,AFNE01.JPG,,,,,,,,,,,,,5,9,59,4,,,,,,,,,,,AFSA16.jpg,AFSA20.jpg,AFNE15.jpg,AFNE12.jpg,AFSA20.jpg,FS,4,num_6,16,num_6,0.450091699138,,,2017_Dec_18_1204,60.0058894238,MAFE4ImagesEEG,001,202633,
,,,,,,,,,,,,,,,,,,,,,,,,,,,,,,,,,,,,,,,,,,,space,5.13312312076,2017_Dec_18_1204,60.0058894238,MAFE4ImagesEEG,001,202633,
AFNE01.JPG,AFNE01.JPG,AFNE01.JPG,AFNE01.JPG,AFNE01.JPG,AFNE01.JPG,,,,,,,,,,,,,,,,,0,0,0,8,,,,,,,AMNE11.jpg,AMSA16.jpg,AMNE07.jpg,AMSA17.jpg,AMNE07.jpg,MN,1,num_2,32,num_8,0.933423525188,,,2017_Dec_18_1204,60.0058894238,MAFE4ImagesEEG,001,202633,
AFNE01.JPG,AFNE01.JPG,AFNE01.JPG,AFNE01.JPG,AFNE01.JPG,AFNE01.JPG,,,,,,,,,,,,,,,,,0,1,1,1,,,,,,,AMNE05.jpg,AMSA18.jpg,AMNE14.jpg,AMSA13.jpg,AMNE05.jpg,MN,1,num_8,32,num_2,0.766867192928,,,2017_Dec_18_1204,60.0058894238,MAFE4ImagesEEG,001,202633,
AFNE01.JPG,AFNE01.JPG,AFNE01.JPG,AFNE01.JPG,AFNE01.JPG,AFNE01.JPG,,,,,,,,,,,,,,,,,0,2,2,4,,,,,,,AMSA17.jpg,AMSA16.jpg,AMNE17.jpg,AMNE14.jpg,AMSA17.jpg,MS,2,num_8,16,num_8,0.833434686996,,,2017_Dec_18_1204,60.0058894238,MAFE4ImagesEEG,001,202633,
AFNE01.JPG,AFNE01.JPG,AFNE01.JPG,AFNE01.JPG,AFNE01.JPG,AFNE01.JPG,,,,,,,,,,,,,,,,,0,3,3,7,,,,,,,AMNE01.jpg,AMSA02.jpg,AMNE15.jpg,AMSA07.jpg,AMSA02.jpg,MS,2,num_6,32,num_2,2.0833418332,,,2017_Dec_18_1204,60.0058894238,MAFE4ImagesEEG,001,202633,
AFNE01.JPG,AFNE01.JPG,AFNE01.JPG,AFNE01.JPG,AFNE01.JPG,AFNE01.JPG,,,,,,,,,,,,,,,,,0,4,4,2,,,,,,,AMSA20.jpg,AMNE12.jpg,AMSA10.jpg,AMNE03.jpg,AMNE03.jpg,MN,1,num_4,32,num_8,0.483492195606,,,2017_Dec_18_1204,60.0058894238,MAFE4ImagesEEG,001,202633,
AFNE01.JPG,AFNE01.JPG,AFNE01.JPG,AFNE01.JPG,AFNE01.JPG,AFNE01.JPG,,,,,,,,,,,,,,,,,0,5,5,6,,,,,,,AMNE04.jpg,AMNE19.jpg,AMSA05.jpg,AMSA10.jpg,AMSA05.jpg,MS,2,num_2,32,num_6,0.983342410065,,,2017_Dec_18_1204,60.0058894238,MAFE4ImagesEEG,001,202633,
AFNE01.JPG,AFNE01.JPG,AFNE01.JPG,AFNE01.JPG,AFNE01.JPG,AFNE01.JPG,,,,,,,,,,,,,,,,,0,6,6,5,,,,,,,AMSA14.jpg,AMSA08.jpg,AMNE15.jpg,AMNE08.jpg,AMSA14.jpg,MS,2,num_8,16,num_8,1.01682854397,,,2017_Dec_18_1204,60.0058894238,MAFE4ImagesEEG,001,202633,
AFNE01.JPG,AFNE01.JPG,AFNE01.JPG,AFNE01.JPG,AFNE01.JPG,AFNE01.JPG,,,,,,,,,,,,,,,,,0,7,7,0,,,,,,,AMNE12.jpg,AMSA05.jpg,AMNE14.jpg,AMSA01.jpg,AMSA01.jpg,MS,2,num_4,16,num_4,0.933543161023,,,2017_Dec_18_1204,60.0058894238,MAFE4ImagesEEG,001,202633,
AFNE01.JPG,AFNE01.JPG,AFNE01.JPG,AFNE01.JPG,AFNE01.JPG,AFNE01.JPG,,,,,,,,,,,,,,,,,0,8,8,3,,,,,,,AMSA17.jpg,AMSA01.jpg,AMNE12.jpg,AMNE10.jpg,AMNE10.jpg,MN,1,num_4,16,num_4,1.20011270791,,,2017_Dec_18_1204,60.0058894238,MAFE4ImagesEEG,001,202633,
AFNE01.JPG,AFNE01.JPG,AFNE01.JPG,AFNE01.JPG,AFNE01.JPG,AFNE01.JPG,,,,,,,,,,,,,,,,,0,9,9,9,,,,,,,AMNE05.jpg,AMSA01.jpg,AMNE17.jpg,AMSA20.jpg,AMSA20.jpg,MS,2,num_4,32,num_2,1.26671163412,,,2017_Dec_18_1204,60.0058894238,MAFE4ImagesEEG,001,202633,
AFNE01.JPG,AFNE01.JPG,AFNE01.JPG,AFNE01.JPG,AFNE01.JPG,AFNE01.JPG,,,,,,,,,,,,,,,,,1,0,10,4,,,,,,,AMNE04.jpg,AMSA12.jpg,AMNE11.jpg,AMSA09.jpg,AMNE04.jpg,MN,1,num_8,32,num_2,1.03340274142,,,2017_Dec_18_1204,60.0058894238,MAFE4ImagesEEG,001,202633,
AFNE01.JPG,AFNE01.JPG,AFNE01.JPG,AFNE01.JPG,AFNE01.JPG,AFNE01.JPG,,,,,,,,,,,,,,,,,1,1,11,2,,,,,,,AMSA14.jpg,AMNE16.jpg,AMSA16.jpg,AMNE05.jpg,AMNE16.jpg,MN,1,num_6,16,num_6,1.18338615866,,,2017_Dec_18_1204,60.0058894238,MAFE4ImagesEEG,001,202633,
AFNE01.JPG,AFNE01.JPG,AFNE01.JPG,AFNE01.JPG,AFNE01.JPG,AFNE01.JPG,,,,,,,,,,,,,,,,,1,2,12,8,,,,,,,AMNE18.jpg,AMNE09.jpg,AMSA02.jpg,AMSA19.jpg,AMNE09.jpg,MN,1,num_6,16,num_6,1.33343083831,,,2017_Dec_18_1204,60.0058894238,MAFE4ImagesEEG,001,202633,
AFNE01.JPG,AFNE01.JPG,AFNE01.JPG,AFNE01.JPG,AFNE01.JPG,AFNE01.JPG,,,,,,,,,,,,,,,,,1,3,13,5,,,,,,,AMSA07.jpg,AMSA12.jpg,AMNE06.jpg,AMNE12.jpg,AMSA12.jpg,MS,2,num_6,32,num_8,0.583507013507,,,2017_Dec_18_1204,60.0058894238,MAFE4ImagesEEG,001,202633,
AFNE01.JPG,AFNE01.JPG,AFNE01.JPG,AFNE01.JPG,AFNE01.JPG,AFNE01.JPG,,,,,,,,,,,,,,,,,1,4,14,6,,,,,,,AMNE15.jpg,AMNE02.jpg,AMSA08.jpg,AMSA06.jpg,AMSA08.jpg,MS,2,num_2,32,num_6,1.18346345751,,,2017_Dec_18_1204,60.0058894238,MAFE4ImagesEEG,001,202633,
AFNE01.JPG,AFNE01.JPG,AFNE01.JPG,AFNE01.JPG,AFNE01.JPG,AFNE01.JPG,,,,,,,,,,,,,,,,,1,5,15,1,,,,,,,AMNE05.jpg,AMSA06.jpg,AMSA04.jpg,AMNE03.jpg,AMSA04.jpg,MS,2,num_2,48,None,,,,2017_Dec_18_1204,60.0058894238,MAFE4ImagesEEG,001,202633,
AFNE01.JPG,AFNE01.JPG,AFNE01.JPG,AFNE01.JPG,AFNE01.JPG,AFNE01.JPG,,,,,,,,,,,,,,,,,1,6,16,9,,,,,,,AMSA07.jpg,AMNE10.jpg,AMSA15.jpg,AMNE18.jpg,AMSA07.jpg,MS,2,num_8,32,num_2,0.500193405896,,,2017_Dec_18_1204,60.0058894238,MAFE4ImagesEEG,001,202633,
AFNE01.JPG,AFNE01.JPG,AFNE01.JPG,AFNE01.JPG,AFNE01.JPG,AFNE01.JPG,,,,,,,,,,,,,,,,,1,7,17,0,,,,,,,AMNE02.jpg,AMSA01.jpg,AMNE08.jpg,AMSA14.jpg,AMSA14.jpg,MS,2,num_4,32,num_6,0.933410374913,,,2017_Dec_18_1204,60.0058894238,MAFE4ImagesEEG,001,202633,
AFNE01.JPG,AFNE01.JPG,AFNE01.JPG,AFNE01.JPG,AFNE01.JPG,AFNE01.JPG,,,,,,,,,,,,,,,,,1,8,18,7,,,,,,,AMSA01.jpg,AMNE07.jpg,AMNE12.jpg,AMSA11.jpg,AMNE07.jpg,MN,1,num_6,32,num_8,1.01678203652,,,2017_Dec_18_1204,60.0058894238,MAFE4ImagesEEG,001,202633,
AFNE01.JPG,AFNE01.JPG,AFNE01.JPG,AFNE01.JPG,AFNE01.JPG,AFNE01.JPG,,,,,,,,,,,,,,,,,1,9,19,3,,,,,,,AMSA08.jpg,AMNE12.jpg,AMSA01.jpg,AMNE02.jpg,AMNE12.jpg,MN,1,num_6,32,num_2,1.68355294364,,,2017_Dec_18_1204,60.0058894238,MAFE4ImagesEEG,001,202633,
AFNE01.JPG,AFNE01.JPG,AFNE01.JPG,AFNE01.JPG,AFNE01.JPG,AFNE01.JPG,,,,,,,,,,,,,,,,,2,0,20,0,,,,,,,AMNE13.jpg,AMSA03.jpg,AMNE10.jpg,AMSA14.jpg,AMNE10.jpg,MN,1,num_2,48,None,,,,2017_Dec_18_1204,60.0058894238,MAFE4ImagesEEG,001,202633,
AFNE01.JPG,AFNE01.JPG,AFNE01.JPG,AFNE01.JPG,AFNE01.JPG,AFNE01.JPG,,,,,,,,,,,,,,,,,2,1,21,5,,,,,,,AMNE13.jpg,AMSA17.jpg,AMSA18.jpg,AMNE05.jpg,AMSA18.jpg,MS,2,num_2,32,num_8,2.44998713816,,,2017_Dec_18_1204,60.0058894238,MAFE4ImagesEEG,001,202633,
AFNE01.JPG,AFNE01.JPG,AFNE01.JPG,AFNE01.JPG,AFNE01.JPG,AFNE01.JPG,,,,,,,,,,,,,,,,,2,2,22,7,,,,,,,AMNE18.jpg,AMNE11.jpg,AMSA11.jpg,AMSA13.jpg,AMSA13.jpg,MS,2,num_4,48,None,,,,2017_Dec_18_1204,60.0058894238,MAFE4ImagesEEG,001,202633,
AFNE01.JPG,AFNE01.JPG,AFNE01.JPG,AFNE01.JPG,AFNE01.JPG,AFNE01.JPG,,,,,,,,,,,,,,,,,2,3,23,1,,,,,,,AMNE04.jpg,AMSA04.jpg,AMSA09.jpg,AMNE06.jpg,AMNE06.jpg,MN,1,num_4,32,num_2,1.08342362102,,,2017_Dec_18_1204,60.0058894238,MAFE4ImagesEEG,001,202633,
AFNE01.JPG,AFNE01.JPG,AFNE01.JPG,AFNE01.JPG,AFNE01.JPG,AFNE01.JPG,,,,,,,,,,,,,,,,,2,4,24,4,,,,,,,AMNE14.jpg,AMSA08.jpg,AMSA18.jpg,AMNE02.jpg,AMNE14.jpg,MN,1,num_8,16,num_8,0.766772895586,,,2017_Dec_18_1204,60.0058894238,MAFE4ImagesEEG,001,202633,
AFNE01.JPG,AFNE01.JPG,AFNE01.JPG,AFNE01.JPG,AFNE01.JPG,AFNE01.JPG,,,,,,,,,,,,,,,,,2,5,25,9,,,,,,,AMNE18.jpg,AMSA16.jpg,AMSA01.jpg,AMNE01.jpg,AMSA16.jpg,MS,2,num_6,16,num_6,0.483502459247,,,2017_Dec_18_1204,60.0058894238,MAFE4ImagesEEG,001,202633,
AFNE01.JPG,AFNE01.JPG,AFNE01.JPG,AFNE01.JPG,AFNE01.JPG,AFNE01.JPG,,,,,,,,,,,,,,,,,2,6,26,3,,,,,,,AMNE04.jpg,AMSA17.jpg,AMNE15.jpg,AMSA04.jpg,AMSA04.jpg,MS,2,num_4,16,num_4,0.733504223172,,,2017_Dec_18_1204,60.0058894238,MAFE4ImagesEEG,001,202633,
AFNE01.JPG,AFNE01.JPG,AFNE01.JPG,AFNE01.JPG,AFNE01.JPG,AFNE01.JPG,,,,,,,,,,,,,,,,,2,7,27,8,,,,,,,AMSA19.jpg,AMNE20.jpg,AMSA20.jpg,AMNE13.jpg,AMNE13.jpg,MN,1,num_4,32,num_8,0.700251266826,,,2017_Dec_18_1204,60.0058894238,MAFE4ImagesEEG,001,202633,
AFNE01.JPG,AFNE01.JPG,AFNE01.JPG,AFNE01.JPG,AFNE01.JPG,AFNE01.JPG,,,,,,,,,,,,,,,,,2,8,28,6,,,,,,,AMSA18.jpg,AMSA06.jpg,AMNE06.jpg,AMNE09.jpg,AMSA18.jpg,MS,2,num_8,48,None,,,,2017_Dec_18_1204,60.0058894238,MAFE4ImagesEEG,001,202633,
AFNE01.JPG,AFNE01.JPG,AFNE01.JPG,AFNE01.JPG,AFNE01.JPG,AFNE01.JPG,,,,,,,,,,,,,,,,,2,9,29,2,,,,,,,AMNE20.jpg,AMSA17.jpg,AMNE18.jpg,AMSA19.jpg,AMNE20.jpg,MN,1,num_8,16,num_8,0.400174097158,,,2017_Dec_18_1204,60.0058894238,MAFE4ImagesEEG,001,202633,
AFNE01.JPG,AFNE01.JPG,AFNE01.JPG,AFNE01.JPG,AFNE01.JPG,AFNE01.JPG,,,,,,,,,,,,,,,,,3,0,30,7,,,,,,,AMSA15.jpg,AMNE14.jpg,AMSA17.jpg,AMNE15.jpg,AMSA15.jpg,MS,2,num_8,48,None,,,,2017_Dec_18_1204,60.0058894238,MAFE4ImagesEEG,001,202633,
AFNE01.JPG,AFNE01.JPG,AFNE01.JPG,AFNE01.JPG,AFNE01.JPG,AFNE01.JPG,,,,,,,,,,,,,,,,,3,1,31,9,,,,,,,AMSA09.jpg,AMSA04.jpg,AMNE08.jpg,AMNE05.jpg,AMSA09.jpg,MS,2,num_8,32,num_2,2.71690500807,,,2017_Dec_18_1204,60.0058894238,MAFE4ImagesEEG,001,202633,
AFNE01.JPG,AFNE01.JPG,AFNE01.JPG,AFNE01.JPG,AFNE01.JPG,AFNE01.JPG,,,,,,,,,,,,,,,,,3,2,32,5,,,,,,,AMNE02.jpg,AMSA03.jpg,AMNE19.jpg,AMSA01.jpg,AMSA01.jpg,MS,2,num_4,48,None,,,,2017_Dec_18_1204,60.0058894238,MAFE4ImagesEEG,001,202633,
AFNE01.JPG,AFNE01.JPG,AFNE01.JPG,AFNE01.JPG,AFNE01.JPG,AFNE01.JPG,,,,,,,,,,,,,,,,,3,3,33,6,,,,,,,AMNE12.jpg,AMSA14.jpg,AMNE05.jpg,AMSA18.jpg,AMSA14.jpg,MS,2,num_6,48,None,,,,2017_Dec_18_1204,60.0058894238,MAFE4ImagesEEG,001,202633,
AFNE01.JPG,AFNE01.JPG,AFNE01.JPG,AFNE01.JPG,AFNE01.JPG,AFNE01.JPG,,,,,,,,,,,,,,,,,3,4,34,1,,,,,,,AMNE19.jpg,AMSA05.jpg,AMNE17.jpg,AMSA09.jpg,AMSA05.jpg,MS,2,num_6,16,num_6,0.800149657298,,,2017_Dec_18_1204,60.0058894238,MAFE4ImagesEEG,001,202633,
AFNE01.JPG,AFNE01.JPG,AFNE01.JPG,AFNE01.JPG,AFNE01.JPG,AFNE01.JPG,,,,,,,,,,,,,,,,,3,5,35,0,,,,,,,AMNE03.jpg,AMSA11.jpg,AMSA10.jpg,AMNE15.jpg,AMNE03.jpg,MN,1,num_8,16,num_8,1.04999233456,,,2017_Dec_18_1204,60.0058894238,MAFE4ImagesEEG,001,202633,
AFNE01.JPG,AFNE01.JPG,AFNE01.JPG,AFNE01.JPG,AFNE01.JPG,AFNE01.JPG,,,,,,,,,,,,,,,,,3,6,36,3,,,,,,,AMSA09.jpg,AMNE16.jpg,AMSA18.jpg,AMNE03.jpg,AMNE16.jpg,MN,1,num_6,32,num_2,0.71675586421,,,2017_Dec_18_1204,60.0058894238,MAFE4ImagesEEG,001,202633,
AFNE01.JPG,AFNE01.JPG,AFNE01.JPG,AFNE01.JPG,AFNE01.JPG,AFNE01.JPG,,,,,,,,,,,,,,,,,3,7,37,8,,,,,,,AMNE01.jpg,AMSA07.jpg,AMSA09.jpg,AMNE05.jpg,AMNE01.jpg,MN,1,num_8,16,num_8,1.49980274541,,,2017_Dec_18_1204,60.0058894238,MAFE4ImagesEEG,001,202633,
AFNE01.JPG,AFNE01.JPG,AFNE01.JPG,AFNE01.JPG,AFNE01.JPG,AFNE01.JPG,,,,,,,,,,,,,,,,,3,8,38,4,,,,,,,AMSA06.jpg,AMSA19.jpg,AMNE12.jpg,AMNE02.jpg,AMSA06.jpg,MS,2,num_8,48,None,,,,2017_Dec_18_1204,60.0058894238,MAFE4ImagesEEG,001,202633,
AFNE01.JPG,AFNE01.JPG,AFNE01.JPG,AFNE01.JPG,AFNE01.JPG,AFNE01.JPG,,,,,,,,,,,,,,,,,3,9,39,2,,,,,,,AMNE12.jpg,AMSA15.jpg,AMNE17.jpg,AMSA16.jpg,AMSA16.jpg,MS,2,num_4,48,None,,,,2017_Dec_18_1204,60.0058894238,MAFE4ImagesEEG,001,202633,
AFNE01.JPG,AFNE01.JPG,AFNE01.JPG,AFNE01.JPG,AFNE01.JPG,AFNE01.JPG,,,,,,,,,,,,,,,,,4,0,40,8,,,,,,,AMSA13.jpg,AMNE19.jpg,AMNE03.jpg,AMSA19.jpg,AMSA13.jpg,MS,2,num_8,16,num_8,0.40012534475,,,2017_Dec_18_1204,60.0058894238,MAFE4ImagesEEG,001,202633,
AFNE01.JPG,AFNE01.JPG,AFNE01.JPG,AFNE01.JPG,AFNE01.JPG,AFNE01.JPG,,,,,,,,,,,,,,,,,4,1,41,4,,,,,,,AMNE07.jpg,AMSA11.jpg,AMSA03.jpg,AMNE20.jpg,AMSA11.jpg,MS,2,num_6,16,num_6,1.28327845503,,,2017_Dec_18_1204,60.0058894238,MAFE4ImagesEEG,001,202633,
AFNE01.JPG,AFNE01.JPG,AFNE01.JPG,AFNE01.JPG,AFNE01.JPG,AFNE01.JPG,,,,,,,,,,,,,,,,,4,2,42,5,,,,,,,AMSA08.jpg,AMNE10.jpg,AMSA09.jpg,AMNE16.jpg,AMNE16.jpg,MN,1,num_4,16,num_4,1.46660271147,,,2017_Dec_18_1204,60.0058894238,MAFE4ImagesEEG,001,202633,
AFNE01.JPG,AFNE01.JPG,AFNE01.JPG,AFNE01.JPG,AFNE01.JPG,AFNE01.JPG,,,,,,,,,,,,,,,,,4,3,43,6,,,,,,,AMNE12.jpg,AMNE11.jpg,AMSA18.jpg,AMSA05.jpg,AMNE11.jpg,MN,1,num_6,32,num_8,1.05014436459,,,2017_Dec_18_1204,60.0058894238,MAFE4ImagesEEG,001,202633,
AFNE01.JPG,AFNE01.JPG,AFNE01.JPG,AFNE01.JPG,AFNE01.JPG,AFNE01.JPG,,,,,,,,,,,,,,,,,4,4,44,3,,,,,,,AMSA04.jpg,AMSA15.jpg,AMNE18.jpg,AMNE07.jpg,AMNE07.jpg,MN,1,num_4,16,num_4,1.36674313108,,,2017_Dec_18_1204,60.0058894238,MAFE4ImagesEEG,001,202633,
AFNE01.JPG,AFNE01.JPG,AFNE01.JPG,AFNE01.JPG,AFNE01.JPG,AFNE01.JPG,,,,,,,,,,,,,,,,,4,5,45,1,,,,,,,AMSA01.jpg,AMNE06.jpg,AMNE18.jpg,AMSA09.jpg,AMSA09.jpg,MS,2,num_4,32,num_2,4.949806883,,,2017_Dec_18_1204,60.0058894238,MAFE4ImagesEEG,001,202633,
AFNE01.JPG,AFNE01.JPG,AFNE01.JPG,AFNE01.JPG,AFNE01.JPG,AFNE01.JPG,,,,,,,,,,,,,,,,,4,6,46,7,,,,,,,AMSA14.jpg,AMSA18.jpg,AMNE07.jpg,AMNE13.jpg,AMNE13.jpg,MN,1,num_4,32,num_2,1.35011633206,,,2017_Dec_18_1204,60.0058894238,MAFE4ImagesEEG,001,202633,
AFNE01.JPG,AFNE01.JPG,AFNE01.JPG,AFNE01.JPG,AFNE01.JPG,AFNE01.JPG,,,,,,,,,,,,,,,,,4,7,47,0,,,,,,,AMNE19.jpg,AMSA04.jpg,AMSA08.jpg,AMNE06.jpg,AMNE19.jpg,MN,1,num_8,16,num_8,0.916774916463,,,2017_Dec_18_1204,60.0058894238,MAFE4ImagesEEG,001,202633,
AFNE01.JPG,AFNE01.JPG,AFNE01.JPG,AFNE01.JPG,AFNE01.JPG,AFNE01.JPG,,,,,,,,,,,,,,,,,4,8,48,9,,,,,,,AMNE13.jpg,AMSA18.jpg,AMNE12.jpg,AMSA15.jpg,AMNE12.jpg,MN,1,num_2,32,num_8,0.850346622989,,,2017_Dec_18_1204,60.0058894238,MAFE4ImagesEEG,001,202633,
AFNE01.JPG,AFNE01.JPG,AFNE01.JPG,AFNE01.JPG,AFNE01.JPG,AFNE01.JPG,,,,,,,,,,,,,,,,,4,9,49,2,,,,,,,AMSA03.jpg,AMNE07.jpg,AMNE13.jpg,AMSA09.jpg,AMSA03.jpg,MS,2,num_8,32,num_2,1.16680073552,,,2017_Dec_18_1204,60.0058894238,MAFE4ImagesEEG,001,202633,
AFNE01.JPG,AFNE01.JPG,AFNE01.JPG,AFNE01.JPG,AFNE01.JPG,AFNE01.JPG,,,,,,,,,,,,,,,,,5,0,50,0,,,,,,,AMSA18.jpg,AMNE08.jpg,AMSA10.jpg,AMNE13.jpg,AMSA18.jpg,MS,2,num_8,48,None,,,,2017_Dec_18_1204,60.0058894238,MAFE4ImagesEEG,001,202633,
AFNE01.JPG,AFNE01.JPG,AFNE01.JPG,AFNE01.JPG,AFNE01.JPG,AFNE01.JPG,,,,,,,,,,,,,,,,,5,1,51,2,,,,,,,AMNE17.jpg,AMSA01.jpg,AMSA10.jpg,AMNE08.jpg,AMSA01.jpg,MS,2,num_6,32,num_8,2.58334151236,,,2017_Dec_18_1204,60.0058894238,MAFE4ImagesEEG,001,202633,
AFNE01.JPG,AFNE01.JPG,AFNE01.JPG,AFNE01.JPG,AFNE01.JPG,AFNE01.JPG,,,,,,,,,,,,,,,,,5,2,52,5,,,,,,,AMNE16.jpg,AMSA03.jpg,AMNE09.jpg,AMSA02.jpg,AMNE09.jpg,MN,1,num_2,32,num_4,1.21673694067,,,2017_Dec_18_1204,60.0058894238,MAFE4ImagesEEG,001,202633,
AFNE01.JPG,AFNE01.JPG,AFNE01.JPG,AFNE01.JPG,AFNE01.JPG,AFNE01.JPG,,,,,,,,,,,,,,,,,5,3,53,6,,,,,,,AMNE19.jpg,AMSA03.jpg,AMNE15.jpg,AMSA10.jpg,AMSA03.jpg,MS,2,num_6,16,num_6,1.18343715649,,,2017_Dec_18_1204,60.0058894238,MAFE4ImagesEEG,001,202633,
AFNE01.JPG,AFNE01.JPG,AFNE01.JPG,AFNE01.JPG,AFNE01.JPG,AFNE01.JPG,,,,,,,,,,,,,,,,,5,4,54,3,,,,,,,AMSA08.jpg,AMNE12.jpg,AMSA04.jpg,AMNE20.jpg,AMNE20.jpg,MN,1,num_4,16,num_4,1.2000437486,,,2017_Dec_18_1204,60.0058894238,MAFE4ImagesEEG,001,202633,
AFNE01.JPG,AFNE01.JPG,AFNE01.JPG,AFNE01.JPG,AFNE01.JPG,AFNE01.JPG,,,,,,,,,,,,,,,,,5,5,55,9,,,,,,,AMSA19.jpg,AMSA14.jpg,AMNE02.jpg,AMNE16.jpg,AMSA19.jpg,MS,2,num_8,16,num_8,1.23347022478,,,2017_Dec_18_1204,60.0058894238,MAFE4ImagesEEG,001,202633,
AFNE01.JPG,AFNE01.JPG,AFNE01.JPG,AFNE01.JPG,AFNE01.JPG,AFNE01.JPG,,,,,,,,,,,,,,,,,5,6,56,7,,,,,,,AMSA13.jpg,AMSA20.jpg,AMNE17.jpg,AMNE07.jpg,AMSA13.jpg,MS,2,num_8,32,num_2,1.28341508983,,,2017_Dec_18_1204,60.0058894238,MAFE4ImagesEEG,001,202633,
AFNE01.JPG,AFNE01.JPG,AFNE01.JPG,AFNE01.JPG,AFNE01.JPG,AFNE01.JPG,,,,,,,,,,,,,,,,,5,7,57,8,,,,,,,AMNE04.jpg,AMSA20.jpg,AMSA18.jpg,AMNE05.jpg,AMNE05.jpg,MN,1,num_4,32,num_8,2.55037850421,,,2017_Dec_18_1204,60.0058894238,MAFE4ImagesEEG,001,202633,
AFNE01.JPG,AFNE01.JPG,AFNE01.JPG,AFNE01.JPG,AFNE01.JPG,AFNE01.JPG,,,,,,,,,,,,,,,,,5,8,58,4,,,,,,,AMSA13.jpg,AMNE12.jpg,AMSA01.jpg,AMNE14.jpg,AMNE14.jpg,MN,1,num_4,16,num_4,1.28341925936,,,2017_Dec_18_1204,60.0058894238,MAFE4ImagesEEG,001,202633,
AFNE01.JPG,AFNE01.JPG,AFNE01.JPG,AFNE01.JPG,AFNE01.JPG,AFNE01.JPG,,,,,,,,,,,,,,,,,5,9,59,1,,,,,,,AMSA07.jpg,AMSA14.jpg,AMNE01.jpg,AMNE14.jpg,AMNE01.jpg,MN,1,num_2,16,num_2,1.11679557199,,,2017_Dec_18_1204,60.0058894238,MAFE4ImagesEEG,001,202633,
,,,,,,,,,,,,,,,,,,,,,,,,,,,,,,,,,,,,,,,,,,,space,26.0981016089,2017_Dec_18_1204,60.0058894238,MAFE4ImagesEEG,001,202633,
AFNE01.JPG,AFNE01.JPG,AFNE01.JPG,AFNE01.JPG,AFNE01.JPG,AFNE01.JPG,,,,,,,,,,,,,,,,,,,,,0,0,0,8,,,AFNE17.jpg,AFSA10.jpg,AFSA06.jpg,AFNE18.jpg,AFNE17.jpg,FN,3,num_8,32,num_4,0.916766576935,,,2017_Dec_18_1204,60.0058894238,MAFE4ImagesEEG,001,202633,
AFNE01.JPG,AFNE01.JPG,AFNE01.JPG,AFNE01.JPG,AFNE01.JPG,AFNE01.JPG,,,,,,,,,,,,,,,,,,,,,0,1,1,9,,,AFSA18.jpg,AFSA02.jpg,AFNE16.jpg,AFNE10.jpg,AFSA02.jpg,FS,4,num_6,16,num_6,1.01677081082,,,2017_Dec_18_1204,60.0058894238,MAFE4ImagesEEG,001,202633,
AFNE01.JPG,AFNE01.JPG,AFNE01.JPG,AFNE01.JPG,AFNE01.JPG,AFNE01.JPG,,,,,,,,,,,,,,,,,,,,,0,2,2,7,,,AFNE19.jpg,AFSA06.jpg,AFSA19.jpg,AFNE10.jpg,AFNE19.jpg,FN,3,num_8,16,num_8,0.883439530153,,,2017_Dec_18_1204,60.0058894238,MAFE4ImagesEEG,001,202633,
AFNE01.JPG,AFNE01.JPG,AFNE01.JPG,AFNE01.JPG,AFNE01.JPG,AFNE01.JPG,,,,,,,,,,,,,,,,,,,,,0,3,3,5,,,AFSA20.jpg,AFSA07.jpg,AFNE18.jpg,AFNE01.jpg,AFNE01.jpg,FN,3,num_4,32,num_2,1.21673148824,,,2017_Dec_18_1204,60.0058894238,MAFE4ImagesEEG,001,202633,
AFNE01.JPG,AFNE01.JPG,AFNE01.JPG,AFNE01.JPG,AFNE01.JPG,AFNE01.JPG,,,,,,,,,,,,,,,,,,,,,0,4,4,0,,,AFSA12.jpg,AFSA04.jpg,AFNE07.jpg,AFNE02.jpg,AFSA12.jpg,FS,4,num_8,16,num_8,1.43338984763,,,2017_Dec_18_1204,60.0058894238,MAFE4ImagesEEG,001,202633,
AFNE01.JPG,AFNE01.JPG,AFNE01.JPG,AFNE01.JPG,AFNE01.JPG,AFNE01.JPG,,,,,,,,,,,,,,,,,,,,,0,5,5,6,,,AFSA05.jpg,AFSA03.jpg,AFNE04.jpg,AFNE19.jpg,AFNE19.jpg,FN,3,num_4,16,num_4,1.08345922362,,,2017_Dec_18_1204,60.0058894238,MAFE4ImagesEEG,001,202633,
AFNE01.JPG,AFNE01.JPG,AFNE01.JPG,AFNE01.JPG,AFNE01.JPG,AFNE01.JPG,,,,,,,,,,,,,,,,,,,,,0,6,6,4,,,AFSA18.jpg,AFNE20.jpg,AFSA04.jpg,AFNE16.jpg,AFNE20.jpg,FN,3,num_6,32,num_2,0.900152607355,,,2017_Dec_18_1204,60.0058894238,MAFE4ImagesEEG,001,202633,
AFNE01.JPG,AFNE01.JPG,AFNE01.JPG,AFNE01.JPG,AFNE01.JPG,AFNE01.JPG,,,,,,,,,,,,,,,,,,,,,0,7,7,1,,,AFNE10.jpg,AFSA06.jpg,AFNE11.jpg,AFSA04.jpg,AFNE10.jpg,FN,3,num_8,16,num_8,1.1500754701,,,2017_Dec_18_1204,60.0058894238,MAFE4ImagesEEG,001,202633,
AFNE01.JPG,AFNE01.JPG,AFNE01.JPG,AFNE01.JPG,AFNE01.JPG,AFNE01.JPG,,,,,,,,,,,,,,,,,,,,,0,8,8,3,,,AFSA02.jpg,AFNE02.jpg,AFSA01.jpg,AFNE13.jpg,AFSA02.jpg,FS,4,num_8,16,num_8,1.53349864203,,,2017_Dec_18_1204,60.0058894238,MAFE4ImagesEEG,001,202633,
AFNE01.JPG,AFNE01.JPG,AFNE01.JPG,AFNE01.JPG,AFNE01.JPG,AFNE01.JPG,,,,,,,,,,,,,,,,,,,,,0,9,9,2,,,AFSA16.jpg,AFSA01.jpg,AFNE18.jpg,AFNE15.jpg,AFNE15.jpg,FN,3,num_4,32,num_6,3.79988440592,,,2017_Dec_18_1204,60.0058894238,MAFE4ImagesEEG,001,202633,
AFNE01.JPG,AFNE01.JPG,AFNE01.JPG,AFNE01.JPG,AFNE01.JPG,AFNE01.JPG,,,,,,,,,,,,,,,,,,,,,1,0,10,8,,,AFNE18.jpg,AFSA02.jpg,AFSA09.jpg,AFNE15.jpg,AFNE15.jpg,FN,3,num_4,32,num_2,4.48317787098,,,2017_Dec_18_1204,60.0058894238,MAFE4ImagesEEG,001,202633,
AFNE01.JPG,AFNE01.JPG,AFNE01.JPG,AFNE01.JPG,AFNE01.JPG,AFNE01.JPG,,,,,,,,,,,,,,,,,,,,,1,1,11,1,,,AFSA04.jpg,AFNE02.jpg,AFSA05.jpg,AFNE10.jpg,AFNE10.jpg,FN,3,num_4,32,num_8,1.2834054674,,,2017_Dec_18_1204,60.0058894238,MAFE4ImagesEEG,001,202633,
AFNE01.JPG,AFNE01.JPG,AFNE01.JPG,AFNE01.JPG,AFNE01.JPG,AFNE01.JPG,,,,,,,,,,,,,,,,,,,,,1,2,12,9,,,AFNE11.jpg,AFSA07.jpg,AFSA13.jpg,AFNE16.jpg,AFNE16.jpg,FN,3,num_4,32,num_8,4.09991795477,,,2017_Dec_18_1204,60.0058894238,MAFE4ImagesEEG,001,202633,
AFNE01.JPG,AFNE01.JPG,AFNE01.JPG,AFNE01.JPG,AFNE01.JPG,AFNE01.JPG,,,,,,,,,,,,,,,,,,,,,1,3,13,7,,,AFSA14.jpg,AFSA16.jpg,AFNE05.jpg,AFNE20.jpg,AFNE20.jpg,FN,3,num_4,32,num_6,2.76671195496,,,2017_Dec_18_1204,60.0058894238,MAFE4ImagesEEG,001,202633,
AFNE01.JPG,AFNE01.JPG,AFNE01.JPG,AFNE01.JPG,AFNE01.JPG,AFNE01.JPG,,,,,,,,,,,,,,,,,,,,,1,4,14,2,,,AFSA17.jpg,AFNE10.jpg,AFNE05.jpg,AFSA08.jpg,AFSA17.jpg,FS,4,num_8,16,num_8,1.10010077618,,,2017_Dec_18_1204,60.0058894238,MAFE4ImagesEEG,001,202633,
AFNE01.JPG,AFNE01.JPG,AFNE01.JPG,AFNE01.JPG,AFNE01.JPG,AFNE01.JPG,,,,,,,,,,,,,,,,,,,,,1,5,15,6,,,AFSA07.jpg,AFSA10.jpg,AFNE18.jpg,AFNE08.jpg,AFNE08.jpg,FN,3,num_4,16,num_4,1.8500739946,,,2017_Dec_18_1204,60.0058894238,MAFE4ImagesEEG,001,202633,
AFNE01.JPG,AFNE01.JPG,AFNE01.JPG,AFNE01.JPG,AFNE01.JPG,AFNE01.JPG,,,,,,,,,,,,,,,,,,,,,1,6,16,0,,,AFSA14.jpg,AFNE05.jpg,AFSA01.jpg,AFNE06.jpg,AFSA01.jpg,FS,4,num_2,16,num_2,1.21672924282,,,2017_Dec_18_1204,60.0058894238,MAFE4ImagesEEG,001,202633,
AFNE01.JPG,AFNE01.JPG,AFNE01.JPG,AFNE01.JPG,AFNE01.JPG,AFNE01.JPG,,,,,,,,,,,,,,,,,,,,,1,7,17,5,,,AFSA08.jpg,AFNE12.jpg,AFSA16.jpg,AFNE13.jpg,AFSA16.jpg,FS,4,num_2,32,num_4,1.03340659011,,,2017_Dec_18_1204,60.0058894238,MAFE4ImagesEEG,001,202633,
AFNE01.JPG,AFNE01.JPG,AFNE01.JPG,AFNE01.JPG,AFNE01.JPG,AFNE01.JPG,,,,,,,,,,,,,,,,,,,,,1,8,18,4,,,AFSA07.jpg,AFNE11.jpg,AFNE14.jpg,AFSA16.jpg,AFNE14.jpg,FN,3,num_2,32,num_4,2.24990682537,,,2017_Dec_18_1204,60.0058894238,MAFE4ImagesEEG,001,202633,
AFNE01.JPG,AFNE01.JPG,AFNE01.JPG,AFNE01.JPG,AFNE01.JPG,AFNE01.JPG,,,,,,,,,,,,,,,,,,,,,1,9,19,3,,,AFNE06.jpg,AFNE02.jpg,AFSA15.jpg,AFSA11.jpg,AFSA11.jpg,FS,4,num_4,16,num_4,3.38325189799,,,2017_Dec_18_1204,60.0058894238,MAFE4ImagesEEG,001,202633,
AFNE01.JPG,AFNE01.JPG,AFNE01.JPG,AFNE01.JPG,AFNE01.JPG,AFNE01.JPG,,,,,,,,,,,,,,,,,,,,,2,0,20,1,,,AFSA17.jpg,AFNE16.jpg,AFSA03.jpg,AFNE20.jpg,AFNE20.jpg,FN,3,num_4,48,None,,,,2017_Dec_18_1204,60.0058894238,MAFE4ImagesEEG,001,202633,
AFNE01.JPG,AFNE01.JPG,AFNE01.JPG,AFNE01.JPG,AFNE01.JPG,AFNE01.JPG,,,,,,,,,,,,,,,,,,,,,2,1,21,2,,,AFSA06.jpg,AFNE17.jpg,AFNE08.jpg,AFSA14.jpg,AFNE08.jpg,FN,3,num_2,16,num_2,1.43343186472,,,2017_Dec_18_1204,60.0058894238,MAFE4ImagesEEG,001,202633,
AFNE01.JPG,AFNE01.JPG,AFNE01.JPG,AFNE01.JPG,AFNE01.JPG,AFNE01.JPG,,,,,,,,,,,,,,,,,,,,,2,2,22,5,,,AFSA11.jpg,AFSA14.jpg,AFNE02.jpg,AFNE20.jpg,AFSA11.jpg,FS,4,num_8,48,None,,,,2017_Dec_18_1204,60.0058894238,MAFE4ImagesEEG,001,202633,
AFNE01.JPG,AFNE01.JPG,AFNE01.JPG,AFNE01.JPG,AFNE01.JPG,AFNE01.JPG,,,,,,,,,,,,,,,,,,,,,2,3,23,6,,,AFSA11.jpg,AFNE05.jpg,AFSA07.jpg,AFNE15.jpg,AFNE15.jpg,FN,3,num_4,16,num_4,1.18346057087,,,2017_Dec_18_1204,60.0058894238,MAFE4ImagesEEG,001,202633,
AFNE01.JPG,AFNE01.JPG,AFNE01.JPG,AFNE01.JPG,AFNE01.JPG,AFNE01.JPG,,,,,,,,,,,,,,,,,,,,,2,4,24,4,,,AFNE14.jpg,AFNE03.jpg,AFSA13.jpg,AFSA05.jpg,AFNE03.jpg,FN,3,num_6,32,num_4,0.916771708988,,,2017_Dec_18_1204,60.0058894238,MAFE4ImagesEEG,001,202633,
AFNE01.JPG,AFNE01.JPG,AFNE01.JPG,AFNE01.JPG,AFNE01.JPG,AFNE01.JPG,,,,,,,,,,,,,,,,,,,,,2,5,25,8,,,AFSA11.jpg,AFNE03.jpg,AFSA16.jpg,AFNE02.jpg,AFNE03.jpg,FN,3,num_6,16,num_6,1.30003803968,,,2017_Dec_18_1204,60.0058894238,MAFE4ImagesEEG,001,202633,
AFNE01.JPG,AFNE01.JPG,AFNE01.JPG,AFNE01.JPG,AFNE01.JPG,AFNE01.JPG,,,,,,,,,,,,,,,,,,,,,2,6,26,9,,,AFSA08.jpg,AFSA12.jpg,AFNE13.jpg,AFNE19.jpg,AFSA12.jpg,FS,4,num_6,16,num_6,0.933476126287,,,2017_Dec_18_1204,60.0058894238,MAFE4ImagesEEG,001,202633,
AFNE01.JPG,AFNE01.JPG,AFNE01.JPG,AFNE01.JPG,AFNE01.JPG,AFNE01.JPG,,,,,,,,,,,,,,,,,,,,,2,7,27,0,,,AFSA17.jpg,AFNE07.jpg,AFNE11.jpg,AFSA14.jpg,AFSA14.jpg,FS,4,num_4,16,num_4,0.999838668387,,,2017_Dec_18_1204,60.0058894238,MAFE4ImagesEEG,001,202633,
AFNE01.JPG,AFNE01.JPG,AFNE01.JPG,AFNE01.JPG,AFNE01.JPG,AFNE01.JPG,,,,,,,,,,,,,,,,,,,,,2,8,28,7,,,AFSA06.jpg,AFNE01.jpg,AFNE14.jpg,AFSA05.jpg,AFSA05.jpg,FS,4,num_4,32,num_8,1.03342070244,,,2017_Dec_18_1204,60.0058894238,MAFE4ImagesEEG,001,202633,
AFNE01.JPG,AFNE01.JPG,AFNE01.JPG,AFNE01.JPG,AFNE01.JPG,AFNE01.JPG,,,,,,,,,,,,,,,,,,,,,2,9,29,3,,,AFSA03.jpg,AFNE14.jpg,AFNE04.jpg,AFSA09.jpg,AFSA09.jpg,FS,4,num_4,16,num_4,1.29997357074,,,2017_Dec_18_1204,60.0058894238,MAFE4ImagesEEG,001,202633,
AFNE01.JPG,AFNE01.JPG,AFNE01.JPG,AFNE01.JPG,AFNE01.JPG,AFNE01.JPG,,,,,,,,,,,,,,,,,,,,,3,0,30,1,,,AFNE10.jpg,AFSA05.jpg,AFSA03.jpg,AFNE18.jpg,AFNE18.jpg,FN,3,num_4,32,num_8,1.01675220765,,,2017_Dec_18_1204,60.0058894238,MAFE4ImagesEEG,001,202633,
AFNE01.JPG,AFNE01.JPG,AFNE01.JPG,AFNE01.JPG,AFNE01.JPG,AFNE01.JPG,,,,,,,,,,,,,,,,,,,,,3,1,31,3,,,AFSA04.jpg,AFSA20.jpg,AFNE05.jpg,AFNE10.jpg,AFSA20.jpg,FS,4,num_6,16,num_6,0.983446008991,,,2017_Dec_18_1204,60.0058894238,MAFE4ImagesEEG,001,202633,
AFNE01.JPG,AFNE01.JPG,AFNE01.JPG,AFNE01.JPG,AFNE01.JPG,AFNE01.JPG,,,,,,,,,,,,,,,,,,,,,3,2,32,8,,,AFNE05.jpg,AFNE18.jpg,AFSA07.jpg,AFSA15.jpg,AFNE05.jpg,FN,3,num_8,32,num_2,1.53335655481,,,2017_Dec_18_1204,60.0058894238,MAFE4ImagesEEG,001,202633,
AFNE01.JPG,AFNE01.JPG,AFNE01.JPG,AFNE01.JPG,AFNE01.JPG,AFNE01.JPG,,,,,,,,,,,,,,,,,,,,,3,3,33,0,,,AFSA07.jpg,AFSA03.jpg,AFNE12.jpg,AFNE06.jpg,AFNE12.jpg,FN,3,num_2,32,num_8,1.33351423033,,,2017_Dec_18_1204,60.0058894238,MAFE4ImagesEEG,001,202633,
AFNE01.JPG,AFNE01.JPG,AFNE01.JPG,AFNE01.JPG,AFNE01.JPG,AFNE01.JPG,,,,,,,,,,,,,,,,,,,,,3,4,34,7,,,AFSA17.jpg,AFNE06.jpg,AFSA07.jpg,AFNE08.jpg,AFSA17.jpg,FS,4,num_8,32,num_6,0.983482573647,,,2017_Dec_18_1204,60.0058894238,MAFE4ImagesEEG,001,202633,
AFNE01.JPG,AFNE01.JPG,AFNE01.JPG,AFNE01.JPG,AFNE01.JPG,AFNE01.JPG,,,,,,,,,,,,,,,,,,,,,3,5,35,5,,,AFSA14.jpg,AFNE07.jpg,AFNE17.jpg,AFSA09.jpg,AFSA14.jpg,FS,4,num_8,32,num_4,1.23345098039,,,2017_Dec_18_1204,60.0058894238,MAFE4ImagesEEG,001,202633,
AFNE01.JPG,AFNE01.JPG,AFNE01.JPG,AFNE01.JPG,AFNE01.JPG,AFNE01.JPG,,,,,,,,,,,,,,,,,,,,,3,6,36,9,,,AFSA18.jpg,AFNE03.jpg,AFSA06.jpg,AFNE13.jpg,AFSA18.jpg,FS,4,num_8,32,num_4,1.05001639016,,,2017_Dec_18_1204,60.0058894238,MAFE4ImagesEEG,001,202633,
AFNE01.JPG,AFNE01.JPG,AFNE01.JPG,AFNE01.JPG,AFNE01.JPG,AFNE01.JPG,,,,,,,,,,,,,,,,,,,,,3,7,37,2,,,AFSA07.jpg,AFSA06.jpg,AFNE08.jpg,AFNE06.jpg,AFSA07.jpg,FS,4,num_8,32,num_6,1.48343414161,,,2017_Dec_18_1204,60.0058894238,MAFE4ImagesEEG,001,202633,
AFNE01.JPG,AFNE01.JPG,AFNE01.JPG,AFNE01.JPG,AFNE01.JPG,AFNE01.JPG,,,,,,,,,,,,,,,,,,,,,3,8,38,6,,,AFNE09.jpg,AFSA09.jpg,AFSA02.jpg,AFNE13.jpg,AFSA09.jpg,FS,4,num_6,32,num_8,1.06665088609,,,2017_Dec_18_1204,60.0058894238,MAFE4ImagesEEG,001,202633,
AFNE01.JPG,AFNE01.JPG,AFNE01.JPG,AFNE01.JPG,AFNE01.JPG,AFNE01.JPG,,,,,,,,,,,,,,,,,,,,,3,9,39,4,,,AFSA17.jpg,AFNE19.jpg,AFNE06.jpg,AFSA01.jpg,AFSA17.jpg,FS,4,num_8,16,num_8,1.10011007776,,,2017_Dec_18_1204,60.0058894238,MAFE4ImagesEEG,001,202633,
AFNE01.JPG,AFNE01.JPG,AFNE01.JPG,AFNE01.JPG,AFNE01.JPG,AFNE01.JPG,,,,,,,,,,,,,,,,,,,,,4,0,40,4,,,AFSA09.jpg,AFSA08.jpg,AFNE14.jpg,AFNE03.jpg,AFNE14.jpg,FN,3,num_2,32,num_6,1.06677276688,,,2017_Dec_18_1204,60.0058894238,MAFE4ImagesEEG,001,202633,
