IPosition2,IPosition3,IPosition1,IPosition6,IPosition4,IPosition5,TrialsF1.thisRepN,TrialsF1.thisTrialN,TrialsF1.thisN,TrialsF1.thisIndex,TrialsM1.thisRepN,TrialsM1.thisTrialN,TrialsM1.thisN,TrialsM1.thisIndex,TrialsF2.thisRepN,TrialsF2.thisTrialN,TrialsF2.thisN,TrialsF2.thisIndex,TrialsM2.thisRepN,TrialsM2.thisTrialN,TrialsM2.thisN,TrialsM2.thisIndex,TrialsF3.thisRepN,TrialsF3.thisTrialN,TrialsF3.thisN,TrialsF3.thisIndex,TrialsM3.thisRepN,TrialsM3.thisTrialN,TrialsM3.thisN,TrialsM3.thisIndex,InstrKey_resp.keys,InstrKey_resp.rt,Image0 _Position,Image1 _Position,Image2 _Position,Image3 _Position,Center_image,condition,code,correct_answer,accuracy,Key_Resp.keys,Key_Resp.rt,BreakKey_resp.keys,BreakKey_resp.rt,date,frameRate,expName,session,participant,
,,,,,,,,,,,,,,,,,,,,,,,,,,,,,,space,12.8661441191,,,,,,,,,,,,,,2018_Mar_06_1512,60.0114910794,FEMA4ImagesEEG,001,202686,
AFNE23.JPG,AFNE24.JPG,AFNE22.JPG,AFSA24.JPG,AFSA22.JPG,AFSA23.JPG,0,0,0,8,,,,,,,,,,,,,,,,,,,,,,,AFNE15.jpg,AFNE12.jpg,AFSA07.jpg,AFSA01.jpg,AFNE15.jpg,FN,3,num_8,16,num_8,1.68342815968,,,2018_Mar_06_1512,60.0114910794,FEMA4ImagesEEG,001,202686,
AMSA21.JPG,AMNE22.JPG,AMNE21.JPG,AMSA23.JPG,AMSA22.JPG,AMNE23.JPG,0,1,1,1,,,,,,,,,,,,,,,,,,,,,,,AFSA18.jpg,AFNE04.jpg,AFNE01.jpg,AFSA15.jpg,AFSA18.jpg,FS,4,num_8,16,num_8,0.53348594089,,,2018_Mar_06_1512,60.0114910794,FEMA4ImagesEEG,001,202686,
AMNE22.JPG,AMSA24.JPG,AMSA22.JPG,AMNE25.JPG,AMNE24.JPG,AMSA25.JPG,0,2,2,7,,,,,,,,,,,,,,,,,,,,,,,AFNE15.jpg,AFSA12.jpg,AFSA06.jpg,AFNE03.jpg,AFSA12.jpg,FS,4,num_6,16,num_6,1.80009243707,,,2018_Mar_06_1512,60.0114910794,FEMA4ImagesEEG,001,202686,
AMSA21.JPG,AMNE23.JPG,AMNE21.JPG,AMSA25.JPG,AMNE25.JPG,AMSA23.JPG,0,3,3,5,,,,,,,,,,,,,,,,,,,,,,,AFNE03.jpg,AFNE17.jpg,AFSA12.jpg,AFSA14.jpg,AFSA14.jpg,FS,4,num_4,16,num_4,1.15008238168,,,2018_Mar_06_1512,60.0114910794,FEMA4ImagesEEG,001,202686,
AMSA25.JPG,AMNE24.JPG,AMSA24.JPG,AMNE26.JPG,AMSA21.JPG,AMNE25.JPG,0,4,4,3,,,,,,,,,,,,,,,,,,,,,,,AFSA19.jpg,AFNE13.jpg,AFNE16.jpg,AFSA08.jpg,AFSA08.jpg,FS,4,num_4,16,num_4,0.633565131342,,,2018_Mar_06_1512,60.0114910794,FEMA4ImagesEEG,001,202686,
AFSA21.JPG,AFNE23.JPG,AFNE21.JPG,AFSA25.JPG,AFNE25.JPG,AFSA23.JPG,0,5,5,4,,,,,,,,,,,,,,,,,,,,,,,AFSA17.jpg,AFNE03.jpg,AFNE11.jpg,AFSA20.jpg,AFNE03.jpg,FN,3,num_6,16,num_6,0.89997180691,,,2018_Mar_06_1512,60.0114910794,FEMA4ImagesEEG,001,202686,
AMNE23.JPG,AMNE24.JPG,AMNE22.JPG,AMSA24.JPG,AMSA22.JPG,AMSA23.JPG,0,6,6,9,,,,,,,,,,,,,,,,,,,,,,,AFSA05.jpg,AFSA18.jpg,AFNE08.jpg,AFNE05.jpg,AFSA18.jpg,FS,4,num_6,16,num_6,1.05009748857,,,2018_Mar_06_1512,60.0114910794,FEMA4ImagesEEG,001,202686,
AFSA21.JPG,AFNE22.JPG,AFNE21.JPG,AFSA23.JPG,AFSA22.JPG,AFNE23.JPG,0,7,7,0,,,,,,,,,,,,,,,,,,,,,,,AFNE08.jpg,AFSA14.jpg,AFNE04.jpg,AFSA02.jpg,AFNE04.jpg,FN,3,num_2,16,num_2,0.950081162853,,,2018_Mar_06_1512,60.0114910794,FEMA4ImagesEEG,001,202686,
AFNE22.JPG,AFSA24.JPG,AFSA22.JPG,AFNE25.JPG,AFNE24.JPG,AFSA25.JPG,0,8,8,6,,,,,,,,,,,,,,,,,,,,,,,AFSA11.jpg,AFNE20.jpg,AFNE11.jpg,AFSA14.jpg,AFSA11.jpg,FS,4,num_8,16,num_8,0.666860713856,,,2018_Mar_06_1512,60.0114910794,FEMA4ImagesEEG,001,202686,
AFSA25.JPG,AFNE24.JPG,AFSA24.JPG,AFNE21.JPG,AFSA21.JPG,AFNE25.JPG,0,9,9,2,,,,,,,,,,,,,,,,,,,,,,,AFNE02.jpg,AFSA14.jpg,AFNE20.jpg,AFSA15.jpg,AFSA14.jpg,FS,4,num_6,32,num_8,0.767065312946,,,2018_Mar_06_1512,60.0114910794,FEMA4ImagesEEG,001,202686,
AMNE22.JPG,AMSA24.JPG,AMSA22.JPG,AMNE25.JPG,AMNE24.JPG,AMSA25.JPG,,,,,0,0,0,7,,,,,,,,,,,,,,,,,,,AMSA16.jpg,AMSA05.jpg,AMNE14.jpg,AMNE17.jpg,AMSA16.jpg,MS,2,num_8,16,num_8,1.0167582857,,,2018_Mar_06_1512,60.0114910794,FEMA4ImagesEEG,001,202686,
AFSA21.JPG,AFNE23.JPG,AFNE21.JPG,AFSA25.JPG,AFNE25.JPG,AFSA23.JPG,,,,,0,1,1,4,,,,,,,,,,,,,,,,,,,AMNE11.jpg,AMSA12.jpg,AMNE20.jpg,AMSA13.jpg,AMNE11.jpg,MN,1,num_8,16,num_8,0.800116171595,,,2018_Mar_06_1512,60.0114910794,FEMA4ImagesEEG,001,202686,
AMSA25.JPG,AMNE24.JPG,AMSA24.JPG,AMNE26.JPG,AMSA21.JPG,AMNE25.JPG,,,,,0,2,2,3,,,,,,,,,,,,,,,,,,,AMSA02.jpg,AMSA04.jpg,AMNE11.jpg,AMNE02.jpg,AMNE11.jpg,MN,1,num_2,32,num_4,0.900138912024,,,2018_Mar_06_1512,60.0114910794,FEMA4ImagesEEG,001,202686,
AFSA21.JPG,AFNE22.JPG,AFNE21.JPG,AFSA23.JPG,AFSA22.JPG,AFNE23.JPG,,,,,0,3,3,0,,,,,,,,,,,,,,,,,,,AMNE20.jpg,AMSA01.jpg,AMSA16.jpg,AMNE07.jpg,AMSA16.jpg,MS,2,num_2,32,num_8,1.00010840967,,,2018_Mar_06_1512,60.0114910794,FEMA4ImagesEEG,001,202686,
AFSA25.JPG,AFNE24.JPG,AFSA24.JPG,AFNE21.JPG,AFSA21.JPG,AFNE25.JPG,,,,,0,4,4,2,,,,,,,,,,,,,,,,,,,AMNE20.jpg,AMSA07.jpg,AMNE12.jpg,AMSA03.jpg,AMSA07.jpg,MS,2,num_6,16,num_6,0.53348594089,,,2018_Mar_06_1512,60.0114910794,FEMA4ImagesEEG,001,202686,
AFNE23.JPG,AFNE24.JPG,AFNE22.JPG,AFSA24.JPG,AFSA22.JPG,AFSA23.JPG,,,,,0,5,5,8,,,,,,,,,,,,,,,,,,,AMNE04.jpg,AMSA09.jpg,AMSA07.jpg,AMNE20.jpg,AMNE04.jpg,MN,1,num_8,16,num_8,0.983419403434,,,2018_Mar_06_1512,60.0114910794,FEMA4ImagesEEG,001,202686,
AMSA21.JPG,AMNE22.JPG,AMNE21.JPG,AMSA23.JPG,AMSA22.JPG,AMNE23.JPG,,,,,0,6,6,1,,,,,,,,,,,,,,,,,,,AMNE12.jpg,AMNE13.jpg,AMSA15.jpg,AMSA01.jpg,AMNE12.jpg,MN,1,num_8,32,num_6,1.16673129564,,,2018_Mar_06_1512,60.0114910794,FEMA4ImagesEEG,001,202686,
AFNE22.JPG,AFSA24.JPG,AFSA22.JPG,AFNE25.JPG,AFNE24.JPG,AFSA25.JPG,,,,,0,7,7,6,,,,,,,,,,,,,,,,,,,AMSA13.jpg,AMSA14.jpg,AMNE07.jpg,AMNE13.jpg,AMNE07.jpg,MN,1,num_2,32,num_8,1.16673867265,,,2018_Mar_06_1512,60.0114910794,FEMA4ImagesEEG,001,202686,
AMNE23.JPG,AMNE24.JPG,AMNE22.JPG,AMSA24.JPG,AMSA22.JPG,AMSA23.JPG,,,,,0,8,8,9,,,,,,,,,,,,,,,,,,,AMNE17.jpg,AMSA09.jpg,AMSA10.jpg,AMNE12.jpg,AMNE17.jpg,MN,1,num_8,16,num_8,0.650138992118,,,2018_Mar_06_1512,60.0114910794,FEMA4ImagesEEG,001,202686,
AMSA21.JPG,AMNE23.JPG,AMNE21.JPG,AMSA25.JPG,AMNE25.JPG,AMSA23.JPG,,,,,0,9,9,5,,,,,,,,,,,,,,,,,,,AMSA12.jpg,AMNE11.jpg,AMSA10.jpg,AMNE14.jpg,AMNE11.jpg,MN,1,num_6,16,num_6,0.96673905733,,,2018_Mar_06_1512,60.0114910794,FEMA4ImagesEEG,001,202686,
AMSA25.JPG,AMNE24.JPG,AMSA24.JPG,AMNE26.JPG,AMSA21.JPG,AMNE25.JPG,,,,,,,,,0,0,0,3,,,,,,,,,,,,,,,AFNE10.jpg,AFSA12.jpg,AFSA15.jpg,AFNE12.jpg,AFSA12.jpg,FS,4,num_6,16,num_6,0.79554949142,,,2018_Mar_06_1512,60.0114910794,FEMA4ImagesEEG,001,202686,
AFNE22.JPG,AFSA24.JPG,AFSA22.JPG,AFNE25.JPG,AFNE24.JPG,AFSA25.JPG,,,,,,,,,0,1,1,6,,,,,,,,,,,,,,,AFNE10.jpg,AFSA19.jpg,AFNE02.jpg,AFSA10.jpg,AFNE02.jpg,FN,3,num_2,16,num_2,0.667071439093,,,2018_Mar_06_1512,60.0114910794,FEMA4ImagesEEG,001,202686,
AFSA25.JPG,AFNE24.JPG,AFSA24.JPG,AFNE21.JPG,AFSA21.JPG,AFNE25.JPG,,,,,,,,,0,2,2,2,,,,,,,,,,,,,,,AFSA15.jpg,AFSA16.jpg,AFNE15.jpg,AFNE02.jpg,AFSA16.jpg,FS,4,num_6,16,num_6,0.999964718707,,,2018_Mar_06_1512,60.0114910794,FEMA4ImagesEEG,001,202686,
AFSA21.JPG,AFNE22.JPG,AFNE21.JPG,AFSA23.JPG,AFSA22.JPG,AFNE23.JPG,,,,,,,,,0,3,3,0,,,,,,,,,,,,,,,AFNE14.jpg,AFNE09.jpg,AFSA19.jpg,AFSA15.jpg,AFNE09.jpg,FN,3,num_6,32,num_8,1.60010116105,,,2018_Mar_06_1512,60.0114910794,FEMA4ImagesEEG,001,202686,
AMSA21.JPG,AMNE23.JPG,AMNE21.JPG,AMSA25.JPG,AMNE25.JPG,AMSA23.JPG,,,,,,,,,0,4,4,5,,,,,,,,,,,,,,,AFNE05.jpg,AFNE01.jpg,AFSA01.jpg,AFSA17.jpg,AFNE01.jpg,FN,3,num_6,16,num_6,0.766825400293,,,2018_Mar_06_1512,60.0114910794,FEMA4ImagesEEG,001,202686,
AFNE23.JPG,AFNE24.JPG,AFNE22.JPG,AFSA24.JPG,AFSA22.JPG,AFSA23.JPG,,,,,,,,,0,5,5,8,,,,,,,,,,,,,,,AFSA12.jpg,AFSA01.jpg,AFNE01.jpg,AFNE08.jpg,AFNE01.jpg,FN,3,num_2,32,num_4,1.15009970148,,,2018_Mar_06_1512,60.0114910794,FEMA4ImagesEEG,001,202686,
AMNE23.JPG,AMNE24.JPG,AMNE22.JPG,AMSA24.JPG,AMSA22.JPG,AMSA23.JPG,,,,,,,,,0,6,6,9,,,,,,,,,,,,,,,AFNE18.jpg,AFNE11.jpg,AFSA12.jpg,AFSA02.jpg,AFNE11.jpg,FN,3,num_6,32,num_8,1.18345077196,,,2018_Mar_06_1512,60.0114910794,FEMA4ImagesEEG,001,202686,
AMSA21.JPG,AMNE22.JPG,AMNE21.JPG,AMSA23.JPG,AMSA22.JPG,AMNE23.JPG,,,,,,,,,0,7,7,1,,,,,,,,,,,,,,,AFNE09.jpg,AFSA20.jpg,AFSA04.jpg,AFNE18.jpg,AFNE18.jpg,FN,3,num_4,16,num_4,0.933395043481,,,2018_Mar_06_1512,60.0114910794,FEMA4ImagesEEG,001,202686,
AMNE22.JPG,AMSA24.JPG,AMSA22.JPG,AMNE25.JPG,AMNE24.JPG,AMSA25.JPG,,,,,,,,,0,8,8,7,,,,,,,,,,,,,,,AFSA07.jpg,AFNE03.jpg,AFNE07.jpg,AFSA16.jpg,AFSA07.jpg,FS,4,num_8,32,num_2,0.783447692869,,,2018_Mar_06_1512,60.0114910794,FEMA4ImagesEEG,001,202686,
AFSA21.JPG,AFNE23.JPG,AFNE21.JPG,AFSA25.JPG,AFNE25.JPG,AFSA23.JPG,,,,,,,,,0,9,9,4,,,,,,,,,,,,,,,AFSA19.jpg,AFNE09.jpg,AFSA16.jpg,AFNE05.jpg,AFSA19.jpg,FS,4,num_8,16,num_8,0.833504126873,,,2018_Mar_06_1512,60.0114910794,FEMA4ImagesEEG,001,202686,
AMSA25.JPG,AMNE24.JPG,AMSA24.JPG,AMNE26.JPG,AMSA21.JPG,AMNE25.JPG,,,,,,,,,,,,,0,0,0,3,,,,,,,,,,,AMNE08.jpg,AMSA04.jpg,AMNE19.jpg,AMSA08.jpg,AMNE08.jpg,MN,1,num_8,16,num_8,0.816760915797,,,2018_Mar_06_1512,60.0114910794,FEMA4ImagesEEG,001,202686,
AMNE23.JPG,AMNE24.JPG,AMNE22.JPG,AMSA24.JPG,AMSA22.JPG,AMSA23.JPG,,,,,,,,,,,,,0,1,1,9,,,,,,,,,,,AMSA17.jpg,AMNE14.jpg,AMSA02.jpg,AMNE15.jpg,AMSA02.jpg,MS,2,num_2,32,num_8,0.916776599828,,,2018_Mar_06_1512,60.0114910794,FEMA4ImagesEEG,001,202686,
AFNE22.JPG,AFSA24.JPG,AFSA22.JPG,AFNE25.JPG,AFNE24.JPG,AFSA25.JPG,,,,,,,,,,,,,0,2,2,6,,,,,,,,,,,AMNE17.jpg,AMSA16.jpg,AMNE04.jpg,AMSA13.jpg,AMNE04.jpg,MN,1,num_2,16,num_2,0.866775974631,,,2018_Mar_06_1512,60.0114910794,FEMA4ImagesEEG,001,202686,
AMSA21.JPG,AMNE23.JPG,AMNE21.JPG,AMSA25.JPG,AMNE25.JPG,AMSA23.JPG,,,,,,,,,,,,,0,3,3,5,,,,,,,,,,,AMNE14.jpg,AMSA05.jpg,AMNE19.jpg,AMSA04.jpg,AMSA04.jpg,MS,2,num_4,16,num_4,0.7334724057,,,2018_Mar_06_1512,60.0114910794,FEMA4ImagesEEG,001,202686,
AFSA21.JPG,AFNE23.JPG,AFNE21.JPG,AFSA25.JPG,AFNE25.JPG,AFSA23.JPG,,,,,,,,,,,,,0,4,4,4,,,,,,,,,,,AMSA01.jpg,AMSA15.jpg,AMNE07.jpg,AMNE08.jpg,AMNE08.jpg,MN,1,num_4,32,num_6,0.91590354871,,,2018_Mar_06_1512,60.0114910794,FEMA4ImagesEEG,001,202686,
AFSA21.JPG,AFNE22.JPG,AFNE21.JPG,AFSA23.JPG,AFSA22.JPG,AFNE23.JPG,,,,,,,,,,,,,0,5,5,0,,,,,,,,,,,AMSA13.jpg,AMNE07.jpg,AMNE03.jpg,AMSA06.jpg,AMSA06.jpg,MS,2,num_4,16,num_4,0.716796549736,,,2018_Mar_06_1512,60.0114910794,FEMA4ImagesEEG,001,202686,
AMNE22.JPG,AMSA24.JPG,AMSA22.JPG,AMNE25.JPG,AMNE24.JPG,AMSA25.JPG,,,,,,,,,,,,,0,6,6,7,,,,,,,,,,,AMSA10.jpg,AMNE04.jpg,AMSA17.jpg,AMNE03.jpg,AMNE03.jpg,MN,1,num_4,32,num_2,0.866786879487,,,2018_Mar_06_1512,60.0114910794,FEMA4ImagesEEG,001,202686,
AFSA25.JPG,AFNE24.JPG,AFSA24.JPG,AFNE21.JPG,AFSA21.JPG,AFNE25.JPG,,,,,,,,,,,,,0,7,7,2,,,,,,,,,,,AMNE07.jpg,AMSA16.jpg,AMSA09.jpg,AMNE13.jpg,AMSA09.jpg,MS,2,num_2,16,num_2,1.13347323961,,,2018_Mar_06_1512,60.0114910794,FEMA4ImagesEEG,001,202686,
AMSA21.JPG,AMNE22.JPG,AMNE21.JPG,AMSA23.JPG,AMSA22.JPG,AMNE23.JPG,,,,,,,,,,,,,0,8,8,1,,,,,,,,,,,AMSA03.jpg,AMNE05.jpg,AMSA09.jpg,AMNE07.jpg,AMSA03.jpg,MS,2,num_8,16,num_8,0.933440267574,,,2018_Mar_06_1512,60.0114910794,FEMA4ImagesEEG,001,202686,
AFNE23.JPG,AFNE24.JPG,AFNE22.JPG,AFSA24.JPG,AFSA22.JPG,AFSA23.JPG,,,,,,,,,,,,,0,9,9,8,,,,,,,,,,,AMNE11.jpg,AMSA11.jpg,AMSA16.jpg,AMNE04.jpg,AMSA11.jpg,MS,2,num_6,32,num_4,0.883489036001,,,2018_Mar_06_1512,60.0114910794,FEMA4ImagesEEG,001,202686,
AMNE23.JPG,AMNE24.JPG,AMNE22.JPG,AMSA24.JPG,AMSA22.JPG,AMSA23.JPG,,,,,,,,,,,,,,,,,0,0,0,9,,,,,,,AFNE12.jpg,AFNE16.jpg,AFSA02.jpg,AFSA06.jpg,AFSA06.jpg,FS,4,num_4,16,num_4,0.516834461363,,,2018_Mar_06_1512,60.0114910794,FEMA4ImagesEEG,001,202686,
AMSA21.JPG,AMNE23.JPG,AMNE21.JPG,AMSA25.JPG,AMNE25.JPG,AMSA23.JPG,,,,,,,,,,,,,,,,,0,1,1,5,,,,,,,AFNE02.jpg,AFSA18.jpg,AFNE14.jpg,AFSA17.jpg,AFSA18.jpg,FS,4,num_6,16,num_6,1.06679323013,,,2018_Mar_06_1512,60.0114910794,FEMA4ImagesEEG,001,202686,
AMSA21.JPG,AMNE22.JPG,AMNE21.JPG,AMSA23.JPG,AMSA22.JPG,AMNE23.JPG,,,,,,,,,,,,,,,,,0,2,2,1,,,,,,,AFNE05.jpg,AFNE16.jpg,AFSA08.jpg,AFSA03.jpg,AFSA08.jpg,FS,4,num_2,16,num_2,0.750132224523,,,2018_Mar_06_1512,60.0114910794,FEMA4ImagesEEG,001,202686,
AMNE22.JPG,AMSA24.JPG,AMSA22.JPG,AMNE25.JPG,AMNE24.JPG,AMSA25.JPG,,,,,,,,,,,,,,,,,0,3,3,7,,,,,,,AFNE02.jpg,AFSA14.jpg,AFSA16.jpg,AFNE10.jpg,AFNE02.jpg,FN,3,num_8,32,num_4,0.883474281989,,,2018_Mar_06_1512,60.0114910794,FEMA4ImagesEEG,001,202686,
AFSA21.JPG,AFNE22.JPG,AFNE21.JPG,AFSA23.JPG,AFSA22.JPG,AFNE23.JPG,,,,,,,,,,,,,,,,,0,4,4,0,,,,,,,AFNE01.jpg,AFSA05.jpg,AFNE16.jpg,AFSA17.jpg,AFNE16.jpg,FN,3,num_2,32,num_8,1.16677331226,,,2018_Mar_06_1512,60.0114910794,FEMA4ImagesEEG,001,202686,
AFSA21.JPG,AFNE23.JPG,AFNE21.JPG,AFSA25.JPG,AFNE25.JPG,AFSA23.JPG,,,,,,,,,,,,,,,,,0,5,5,4,,,,,,,AFNE19.jpg,AFSA20.jpg,AFNE15.jpg,AFSA19.jpg,AFSA19.jpg,FS,4,num_4,16,num_4,0.400174995186,,,2018_Mar_06_1512,60.0114910794,FEMA4ImagesEEG,001,202686,
AFNE23.JPG,AFNE24.JPG,AFNE22.JPG,AFSA24.JPG,AFSA22.JPG,AFSA23.JPG,,,,,,,,,,,,,,,,,0,6,6,8,,,,,,,AFNE15.jpg,AFSA05.jpg,AFNE13.jpg,AFSA09.jpg,AFSA09.jpg,FS,4,num_4,32,num_6,0.950102010975,,,2018_Mar_06_1512,60.0114910794,FEMA4ImagesEEG,001,202686,
AFNE22.JPG,AFSA24.JPG,AFSA22.JPG,AFNE25.JPG,AFNE24.JPG,AFSA25.JPG,,,,,,,,,,,,,,,,,0,7,7,6,,,,,,,AFSA02.jpg,AFSA18.jpg,AFNE11.jpg,AFNE04.jpg,AFSA02.jpg,FS,4,num_8,16,num_8,0.866759296041,,,2018_Mar_06_1512,60.0114910794,FEMA4ImagesEEG,001,202686,
AMSA25.JPG,AMNE24.JPG,AMSA24.JPG,AMNE26.JPG,AMSA21.JPG,AMNE25.JPG,,,,,,,,,,,,,,,,,0,8,8,3,,,,,,,AFSA08.jpg,AFNE15.jpg,AFSA19.jpg,AFNE12.jpg,AFSA19.jpg,FS,4,num_2,16,num_2,0.933481001528,,,2018_Mar_06_1512,60.0114910794,FEMA4ImagesEEG,001,202686,
AFSA25.JPG,AFNE24.JPG,AFSA24.JPG,AFNE21.JPG,AFSA21.JPG,AFNE25.JPG,,,,,,,,,,,,,,,,,0,9,9,2,,,,,,,AFNE08.jpg,AFSA13.jpg,AFSA15.jpg,AFNE16.jpg,AFNE08.jpg,FN,3,num_8,32,num_4,0.633508039871,,,2018_Mar_06_1512,60.0114910794,FEMA4ImagesEEG,001,202686,
AMNE23.JPG,AMNE24.JPG,AMNE22.JPG,AMSA24.JPG,AMSA22.JPG,AMSA23.JPG,,,,,,,,,,,,,,,,,,,,,0,0,0,9,,,AMNE07.jpg,AMSA20.jpg,AMNE03.jpg,AMSA06.jpg,AMNE03.jpg,MN,1,num_2,16,num_2,0.900135383941,,,2018_Mar_06_1512,60.0114910794,FEMA4ImagesEEG,001,202686,
AMSA21.JPG,AMNE22.JPG,AMNE21.JPG,AMSA23.JPG,AMSA22.JPG,AMNE23.JPG,,,,,,,,,,,,,,,,,,,,,0,1,1,1,,,AMSA02.jpg,AMNE11.jpg,AMNE02.jpg,AMSA18.jpg,AMSA02.jpg,MS,2,num_8,16,num_8,0.900094008539,,,2018_Mar_06_1512,60.0114910794,FEMA4ImagesEEG,001,202686,
AMSA25.JPG,AMNE24.JPG,AMSA24.JPG,AMNE26.JPG,AMSA21.JPG,AMNE25.JPG,,,,,,,,,,,,,,,,,,,,,0,2,2,3,,,AMSA05.jpg,AMSA16.jpg,AMNE06.jpg,AMNE02.jpg,AMNE02.jpg,MN,1,num_4,16,num_4,0.783508633031,,,2018_Mar_06_1512,60.0114910794,FEMA4ImagesEEG,001,202686,
AFNE22.JPG,AFSA24.JPG,AFSA22.JPG,AFNE25.JPG,AFNE24.JPG,AFSA25.JPG,,,,,,,,,,,,,,,,,,,,,0,3,3,6,,,AMSA05.jpg,AMNE03.jpg,AMNE13.jpg,AMSA04.jpg,AMNE03.jpg,MN,1,num_6,32,num_2,1.10009169928,,,2018_Mar_06_1512,60.0114910794,FEMA4ImagesEEG,001,202686,
AFSA25.JPG,AFNE24.JPG,AFSA24.JPG,AFNE21.JPG,AFSA21.JPG,AFNE25.JPG,,,,,,,,,,,,,,,,,,,,,0,4,4,2,,,AMSA13.jpg,AMNE02.jpg,AMNE15.jpg,AMSA06.jpg,AMNE15.jpg,MN,1,num_2,16,num_2,0.750178090064,,,2018_Mar_06_1512,60.0114910794,FEMA4ImagesEEG,001,202686,
AMSA21.JPG,AMNE23.JPG,AMNE21.JPG,AMSA25.JPG,AMNE25.JPG,AMSA23.JPG,,,,,,,,,,,,,,,,,,,,,0,5,5,5,,,AMSA13.jpg,AMSA03.jpg,AMNE06.jpg,AMNE17.jpg,AMSA03.jpg,MS,2,num_6,32,num_2,1.06670951727,,,2018_Mar_06_1512,60.0114910794,FEMA4ImagesEEG,001,202686,
AFSA21.JPG,AFNE23.JPG,AFNE21.JPG,AFSA25.JPG,AFNE25.JPG,AFSA23.JPG,,,,,,,,,,,,,,,,,,,,,0,6,6,4,,,AMSA05.jpg,AMSA20.jpg,AMNE16.jpg,AMNE04.jpg,AMNE16.jpg,MN,1,num_2,32,num_8,0.916783335619,,,2018_Mar_06_1512,60.0114910794,FEMA4ImagesEEG,001,202686,
AFNE23.JPG,AFNE24.JPG,AFNE22.JPG,AFSA24.JPG,AFSA22.JPG,AFSA23.JPG,,,,,,,,,,,,,,,,,,,,,0,7,7,8,,,AMNE02.jpg,AMSA11.jpg,AMNE10.jpg,AMSA02.jpg,AMNE10.jpg,MN,1,num_2,32,num_8,0.766760610975,,,2018_Mar_06_1512,60.0114910794,FEMA4ImagesEEG,001,202686,
AMNE22.JPG,AMSA24.JPG,AMSA22.JPG,AMNE25.JPG,AMNE24.JPG,AMSA25.JPG,,,,,,,,,,,,,,,,,,,,,0,8,8,7,,,AMNE03.jpg,AMNE06.jpg,AMSA17.jpg,AMSA12.jpg,AMNE06.jpg,MN,1,num_6,16,num_6,0.616783752572,,,2018_Mar_06_1512,60.0114910794,FEMA4ImagesEEG,001,202686,
AFSA21.JPG,AFNE22.JPG,AFNE21.JPG,AFSA23.JPG,AFSA22.JPG,AFNE23.JPG,,,,,,,,,,,,,,,,,,,,,0,9,9,0,,,AMNE18.jpg,AMSA17.jpg,AMNE17.jpg,AMSA05.jpg,AMSA17.jpg,MS,2,num_6,32,num_8,0.833492900943,,,2018_Mar_06_1512,60.0114910794,FEMA4ImagesEEG,001,202686,
,,,,,,,,,,,,,,,,,,,,,,,,,,,,,,,,,,,,,,,,,,,space,11.4992335944,2018_Mar_06_1512,60.0114910794,FEMA4ImagesEEG,001,202686,
AFNE01.JPG,AFNE01.JPG,AFNE01.JPG,AFNE01.JPG,AFNE01.JPG,AFNE01.JPG,0,0,0,6,,,,,,,,,,,,,,,,,,,,,,,AFNE18.jpg,AFSA18.jpg,AFSA08.jpg,AFNE07.jpg,AFNE07.jpg,FN,3,num_4,32,num_8,1.21673961869,,,2018_Mar_06_1512,60.0114910794,FEMA4ImagesEEG,001,202686,
AFNE01.JPG,AFNE01.JPG,AFNE01.JPG,AFNE01.JPG,AFNE01.JPG,AFNE01.JPG,0,1,1,4,,,,,,,,,,,,,,,,,,,,,,,AFSA09.jpg,AFSA02.jpg,AFNE05.jpg,AFNE10.jpg,AFSA02.jpg,FS,4,num_6,16,num_6,0.916796485661,,,2018_Mar_06_1512,60.0114910794,FEMA4ImagesEEG,001,202686,
AFNE01.JPG,AFNE01.JPG,AFNE01.JPG,AFNE01.JPG,AFNE01.JPG,AFNE01.JPG,0,2,2,7,,,,,,,,,,,,,,,,,,,,,,,AFSA12.jpg,AFNE11.jpg,AFSA15.jpg,AFNE03.jpg,AFNE11.jpg,FN,3,num_6,32,num_4,0.93347426597,,,2018_Mar_06_1512,60.0114910794,FEMA4ImagesEEG,001,202686,
AFNE01.JPG,AFNE01.JPG,AFNE01.JPG,AFNE01.JPG,AFNE01.JPG,AFNE01.JPG,0,3,3,3,,,,,,,,,,,,,,,,,,,,,,,AFSA05.jpg,AFSA14.jpg,AFNE20.jpg,AFNE11.jpg,AFSA05.jpg,FS,4,num_8,16,num_8,1.00014272891,,,2018_Mar_06_1512,60.0114910794,FEMA4ImagesEEG,001,202686,
AFNE01.JPG,AFNE01.JPG,AFNE01.JPG,AFNE01.JPG,AFNE01.JPG,AFNE01.JPG,0,4,4,9,,,,,,,,,,,,,,,,,,,,,,,AFSA20.jpg,AFNE20.jpg,AFSA04.jpg,AFNE05.jpg,AFNE05.jpg,FN,3,num_4,32,num_8,0.883462414844,,,2018_Mar_06_1512,60.0114910794,FEMA4ImagesEEG,001,202686,
AFNE01.JPG,AFNE01.JPG,AFNE01.JPG,AFNE01.JPG,AFNE01.JPG,AFNE01.JPG,0,5,5,5,,,,,,,,,,,,,,,,,,,,,,,AFNE19.jpg,AFSA10.jpg,AFNE18.jpg,AFSA02.jpg,AFSA10.jpg,FS,4,num_6,16,num_6,0.550173984841,,,2018_Mar_06_1512,60.0114910794,FEMA4ImagesEEG,001,202686,
AFNE01.JPG,AFNE01.JPG,AFNE01.JPG,AFNE01.JPG,AFNE01.JPG,AFNE01.JPG,0,6,6,2,,,,,,,,,,,,,,,,,,,,,,,AFNE02.jpg,AFSA04.jpg,AFSA16.jpg,AFNE19.jpg,AFNE02.jpg,FN,3,num_8,16,num_8,0.85013539996,,,2018_Mar_06_1512,60.0114910794,FEMA4ImagesEEG,001,202686,
AFNE01.JPG,AFNE01.JPG,AFNE01.JPG,AFNE01.JPG,AFNE01.JPG,AFNE01.JPG,0,7,7,8,,,,,,,,,,,,,,,,,,,,,,,AFSA17.jpg,AFNE08.jpg,AFSA04.jpg,AFNE05.jpg,AFSA17.jpg,FS,4,num_8,16,num_8,0.833532993216,,,2018_Mar_06_1512,60.0114910794,FEMA4ImagesEEG,001,202686,
AFNE01.JPG,AFNE01.JPG,AFNE01.JPG,AFNE01.JPG,AFNE01.JPG,AFNE01.JPG,0,8,8,1,,,,,,,,,,,,,,,,,,,,,,,AFNE01.jpg,AFSA18.jpg,AFNE18.jpg,AFSA01.jpg,AFNE18.jpg,FN,3,num_2,32,num_6,0.666772831231,,,2018_Mar_06_1512,60.0114910794,FEMA4ImagesEEG,001,202686,
AFNE01.JPG,AFNE01.JPG,AFNE01.JPG,AFNE01.JPG,AFNE01.JPG,AFNE01.JPG,0,9,9,0,,,,,,,,,,,,,,,,,,,,,,,AFSA19.jpg,AFNE18.jpg,AFNE11.jpg,AFSA07.jpg,AFSA07.jpg,FS,4,num_4,32,num_8,1.50010215538,,,2018_Mar_06_1512,60.0114910794,FEMA4ImagesEEG,001,202686,
AFNE01.JPG,AFNE01.JPG,AFNE01.JPG,AFNE01.JPG,AFNE01.JPG,AFNE01.JPG,1,0,10,4,,,,,,,,,,,,,,,,,,,,,,,AFSA15.jpg,AFNE20.jpg,AFSA13.jpg,AFNE01.jpg,AFNE20.jpg,FN,3,num_6,32,num_8,0.766827324871,,,2018_Mar_06_1512,60.0114910794,FEMA4ImagesEEG,001,202686,
AFNE01.JPG,AFNE01.JPG,AFNE01.JPG,AFNE01.JPG,AFNE01.JPG,AFNE01.JPG,1,1,11,6,,,,,,,,,,,,,,,,,,,,,,,AFNE13.jpg,AFSA20.jpg,AFSA05.jpg,AFNE16.jpg,AFSA05.jpg,FS,4,num_2,16,num_2,1.03346910211,,,2018_Mar_06_1512,60.0114910794,FEMA4ImagesEEG,001,202686,
AFNE01.JPG,AFNE01.JPG,AFNE01.JPG,AFNE01.JPG,AFNE01.JPG,AFNE01.JPG,1,2,12,9,,,,,,,,,,,,,,,,,,,,,,,AFNE08.jpg,AFSA17.jpg,AFNE15.jpg,AFSA15.jpg,AFNE08.jpg,FN,3,num_8,16,num_8,1.3500637149,,,2018_Mar_06_1512,60.0114910794,FEMA4ImagesEEG,001,202686,
AFNE01.JPG,AFNE01.JPG,AFNE01.JPG,AFNE01.JPG,AFNE01.JPG,AFNE01.JPG,1,3,13,2,,,,,,,,,,,,,,,,,,,,,,,AFSA06.jpg,AFNE11.jpg,AFSA13.jpg,AFNE14.jpg,AFNE11.jpg,FN,3,num_6,32,num_8,0.950119010173,,,2018_Mar_06_1512,60.0114910794,FEMA4ImagesEEG,001,202686,
AFNE01.JPG,AFNE01.JPG,AFNE01.JPG,AFNE01.JPG,AFNE01.JPG,AFNE01.JPG,1,4,14,5,,,,,,,,,,,,,,,,,,,,,,,AFNE19.jpg,AFNE04.jpg,AFSA01.jpg,AFSA14.jpg,AFNE19.jpg,FN,3,num_8,16,num_8,0.650116540492,,,2018_Mar_06_1512,60.0114910794,FEMA4ImagesEEG,001,202686,
AFNE01.JPG,AFNE01.JPG,AFNE01.JPG,AFNE01.JPG,AFNE01.JPG,AFNE01.JPG,1,5,15,8,,,,,,,,,,,,,,,,,,,,,,,AFNE17.jpg,AFSA09.jpg,AFNE12.jpg,AFSA12.jpg,AFSA09.jpg,FS,4,num_6,16,num_6,0.516816179268,,,2018_Mar_06_1512,60.0114910794,FEMA4ImagesEEG,001,202686,
AFNE01.JPG,AFNE01.JPG,AFNE01.JPG,AFNE01.JPG,AFNE01.JPG,AFNE01.JPG,1,6,16,0,,,,,,,,,,,,,,,,,,,,,,,AFNE19.jpg,AFNE05.jpg,AFSA05.jpg,AFSA16.jpg,AFNE19.jpg,FN,3,num_8,32,num_2,1.0832984529,,,2018_Mar_06_1512,60.0114910794,FEMA4ImagesEEG,001,202686,
AFNE01.JPG,AFNE01.JPG,AFNE01.JPG,AFNE01.JPG,AFNE01.JPG,AFNE01.JPG,1,7,17,7,,,,,,,,,,,,,,,,,,,,,,,AFSA02.jpg,AFNE06.jpg,AFNE14.jpg,AFSA01.jpg,AFSA01.jpg,FS,4,num_4,16,num_4,0.950109708821,,,2018_Mar_06_1512,60.0114910794,FEMA4ImagesEEG,001,202686,
AFNE01.JPG,AFNE01.JPG,AFNE01.JPG,AFNE01.JPG,AFNE01.JPG,AFNE01.JPG,1,8,18,3,,,,,,,,,,,,,,,,,,,,,,,AFSA11.jpg,AFSA20.jpg,AFNE15.jpg,AFNE16.jpg,AFSA11.jpg,FS,4,num_8,16,num_8,0.816823780537,,,2018_Mar_06_1512,60.0114910794,FEMA4ImagesEEG,001,202686,
AFNE01.JPG,AFNE01.JPG,AFNE01.JPG,AFNE01.JPG,AFNE01.JPG,AFNE01.JPG,1,9,19,1,,,,,,,,,,,,,,,,,,,,,,,AFNE13.jpg,AFNE16.jpg,AFSA04.jpg,AFSA20.jpg,AFSA20.jpg,FS,4,num_4,16,num_4,0.650008451426,,,2018_Mar_06_1512,60.0114910794,FEMA4ImagesEEG,001,202686,
AFNE01.JPG,AFNE01.JPG,AFNE01.JPG,AFNE01.JPG,AFNE01.JPG,AFNE01.JPG,2,0,20,4,,,,,,,,,,,,,,,,,,,,,,,AFNE05.jpg,AFSA20.jpg,AFNE19.jpg,AFSA04.jpg,AFNE19.jpg,FN,3,num_2,32,num_4,0.983447949402,,,2018_Mar_06_1512,60.0114910794,FEMA4ImagesEEG,001,202686,
AFNE01.JPG,AFNE01.JPG,AFNE01.JPG,AFNE01.JPG,AFNE01.JPG,AFNE01.JPG,2,1,21,7,,,,,,,,,,,,,,,,,,,,,,,AFNE20.jpg,AFNE01.jpg,AFSA20.jpg,AFSA18.jpg,AFNE01.jpg,FN,3,num_6,16,num_6,1.41673795087,,,2018_Mar_06_1512,60.0114910794,FEMA4ImagesEEG,001,202686,
AFNE01.JPG,AFNE01.JPG,AFNE01.JPG,AFNE01.JPG,AFNE01.JPG,AFNE01.JPG,2,2,22,3,,,,,,,,,,,,,,,,,,,,,,,AFNE14.jpg,AFSA07.jpg,AFSA18.jpg,AFNE02.jpg,AFSA07.jpg,FS,4,num_6,16,num_6,0.633525038837,,,2018_Mar_06_1512,60.0114910794,FEMA4ImagesEEG,001,202686,
AFNE01.JPG,AFNE01.JPG,AFNE01.JPG,AFNE01.JPG,AFNE01.JPG,AFNE01.JPG,2,3,23,6,,,,,,,,,,,,,,,,,,,,,,,AFNE02.jpg,AFSA03.jpg,AFNE14.jpg,AFSA04.jpg,AFNE14.jpg,FN,3,num_2,16,num_2,0.883468829328,,,2018_Mar_06_1512,60.0114910794,FEMA4ImagesEEG,001,202686,
AFNE01.JPG,AFNE01.JPG,AFNE01.JPG,AFNE01.JPG,AFNE01.JPG,AFNE01.JPG,2,4,24,2,,,,,,,,,,,,,,,,,,,,,,,AFNE03.jpg,AFSA17.jpg,AFNE20.jpg,AFSA01.jpg,AFSA01.jpg,FS,4,num_4,16,num_4,1.08348031202,,,2018_Mar_06_1512,60.0114910794,FEMA4ImagesEEG,001,202686,
AFNE01.JPG,AFNE01.JPG,AFNE01.JPG,AFNE01.JPG,AFNE01.JPG,AFNE01.JPG,2,5,25,1,,,,,,,,,,,,,,,,,,,,,,,AFNE19.jpg,AFSA01.jpg,AFSA12.jpg,AFNE12.jpg,AFNE12.jpg,FN,3,num_4,32,num_2,1.05007631984,,,2018_Mar_06_1512,60.0114910794,FEMA4ImagesEEG,001,202686,
AFNE01.JPG,AFNE01.JPG,AFNE01.JPG,AFNE01.JPG,AFNE01.JPG,AFNE01.JPG,2,6,26,0,,,,,,,,,,,,,,,,,,,,,,,AFSA08.jpg,AFNE20.jpg,AFNE03.jpg,AFSA10.jpg,AFSA10.jpg,FS,4,num_4,32,num_6,0.867050206056,,,2018_Mar_06_1512,60.0114910794,FEMA4ImagesEEG,001,202686,
AFNE01.JPG,AFNE01.JPG,AFNE01.JPG,AFNE01.JPG,AFNE01.JPG,AFNE01.JPG,2,7,27,5,,,,,,,,,,,,,,,,,,,,,,,AFNE04.jpg,AFSA03.jpg,AFNE20.jpg,AFSA04.jpg,AFNE20.jpg,FN,3,num_2,32,num_8,0.966795828426,,,2018_Mar_06_1512,60.0114910794,FEMA4ImagesEEG,001,202686,
AFNE01.JPG,AFNE01.JPG,AFNE01.JPG,AFNE01.JPG,AFNE01.JPG,AFNE01.JPG,2,8,28,9,,,,,,,,,,,,,,,,,,,,,,,AFSA02.jpg,AFNE16.jpg,AFNE09.jpg,AFSA06.jpg,AFSA06.jpg,FS,4,num_4,16,num_4,1.76669582189,,,2018_Mar_06_1512,60.0114910794,FEMA4ImagesEEG,001,202686,
AFNE01.JPG,AFNE01.JPG,AFNE01.JPG,AFNE01.JPG,AFNE01.JPG,AFNE01.JPG,2,9,29,8,,,,,,,,,,,,,,,,,,,,,,,AFNE09.jpg,AFNE06.jpg,AFSA01.jpg,AFSA06.jpg,AFSA01.jpg,FS,4,num_2,32,num_8,0.566844708752,,,2018_Mar_06_1512,60.0114910794,FEMA4ImagesEEG,001,202686,
AFNE01.JPG,AFNE01.JPG,AFNE01.JPG,AFNE01.JPG,AFNE01.JPG,AFNE01.JPG,3,0,30,3,,,,,,,,,,,,,,,,,,,,,,,AFNE05.jpg,AFSA05.jpg,AFNE06.jpg,AFSA03.jpg,AFNE05.jpg,FN,3,num_8,32,num_2,1.38350587478,,,2018_Mar_06_1512,60.0114910794,FEMA4ImagesEEG,001,202686,
AFNE01.JPG,AFNE01.JPG,AFNE01.JPG,AFNE01.JPG,AFNE01.JPG,AFNE01.JPG,3,1,31,5,,,,,,,,,,,,,,,,,,,,,,,AFSA19.jpg,AFNE03.jpg,AFNE01.jpg,AFSA01.jpg,AFSA01.jpg,FS,4,num_4,16,num_4,1.08345529437,,,2018_Mar_06_1512,60.0114910794,FEMA4ImagesEEG,001,202686,
AFNE01.JPG,AFNE01.JPG,AFNE01.JPG,AFNE01.JPG,AFNE01.JPG,AFNE01.JPG,3,2,32,9,,,,,,,,,,,,,,,,,,,,,,,AFNE03.jpg,AFSA02.jpg,AFSA14.jpg,AFNE05.jpg,AFNE05.jpg,FN,3,num_4,32,num_8,0.916643493343,,,2018_Mar_06_1512,60.0114910794,FEMA4ImagesEEG,001,202686,
AFNE01.JPG,AFNE01.JPG,AFNE01.JPG,AFNE01.JPG,AFNE01.JPG,AFNE01.JPG,3,3,33,1,,,,,,,,,,,,,,,,,,,,,,,AFNE07.jpg,AFNE11.jpg,AFSA19.jpg,AFSA08.jpg,AFSA19.jpg,FS,4,num_2,16,num_2,0.916778203566,,,2018_Mar_06_1512,60.0114910794,FEMA4ImagesEEG,001,202686,
AFNE01.JPG,AFNE01.JPG,AFNE01.JPG,AFNE01.JPG,AFNE01.JPG,AFNE01.JPG,3,4,34,0,,,,,,,,,,,,,,,,,,,,,,,AFSA15.jpg,AFNE19.jpg,AFNE15.jpg,AFSA01.jpg,AFNE19.jpg,FN,3,num_6,32,num_8,0.850292562041,,,2018_Mar_06_1512,60.0114910794,FEMA4ImagesEEG,001,202686,
AFNE01.JPG,AFNE01.JPG,AFNE01.JPG,AFNE01.JPG,AFNE01.JPG,AFNE01.JPG,3,5,35,6,,,,,,,,,,,,,,,,,,,,,,,AFSA07.jpg,AFNE04.jpg,AFNE13.jpg,AFSA17.jpg,AFSA07.jpg,FS,4,num_8,16,num_8,0.616815184709,,,2018_Mar_06_1512,60.0114910794,FEMA4ImagesEEG,001,202686,
AFNE01.JPG,AFNE01.JPG,AFNE01.JPG,AFNE01.JPG,AFNE01.JPG,AFNE01.JPG,3,6,36,2,,,,,,,,,,,,,,,,,,,,,,,AFNE08.jpg,AFSA20.jpg,AFNE12.jpg,AFSA03.jpg,AFNE12.jpg,FN,3,num_2,16,num_2,3.15019431966,,,2018_Mar_06_1512,60.0114910794,FEMA4ImagesEEG,001,202686,
AFNE01.JPG,AFNE01.JPG,AFNE01.JPG,AFNE01.JPG,AFNE01.JPG,AFNE01.JPG,3,7,37,4,,,,,,,,,,,,,,,,,,,,,,,AFSA14.jpg,AFSA03.jpg,AFNE02.jpg,AFNE06.jpg,AFSA14.jpg,FS,4,num_8,32,num_6,0.666815489531,,,2018_Mar_06_1512,60.0114910794,FEMA4ImagesEEG,001,202686,
AFNE01.JPG,AFNE01.JPG,AFNE01.JPG,AFNE01.JPG,AFNE01.JPG,AFNE01.JPG,3,8,38,8,,,,,,,,,,,,,,,,,,,,,,,AFNE10.jpg,AFNE19.jpg,AFSA19.jpg,AFSA02.jpg,AFNE10.jpg,FN,3,num_8,16,num_8,0.866975473939,,,2018_Mar_06_1512,60.0114910794,FEMA4ImagesEEG,001,202686,
AFNE01.JPG,AFNE01.JPG,AFNE01.JPG,AFNE01.JPG,AFNE01.JPG,AFNE01.JPG,3,9,39,7,,,,,,,,,,,,,,,,,,,,,,,AFSA02.jpg,AFNE16.jpg,AFSA12.jpg,AFNE18.jpg,AFNE16.jpg,FN,3,num_6,16,num_6,0.883509242442,,,2018_Mar_06_1512,60.0114910794,FEMA4ImagesEEG,001,202686,
AFNE01.JPG,AFNE01.JPG,AFNE01.JPG,AFNE01.JPG,AFNE01.JPG,AFNE01.JPG,4,0,40,8,,,,,,,,,,,,,,,,,,,,,,,AFSA13.jpg,AFNE08.jpg,AFNE18.jpg,AFSA17.jpg,AFSA13.jpg,FS,4,num_8,16,num_8,0.616790808737,,,2018_Mar_06_1512,60.0114910794,FEMA4ImagesEEG,001,202686,
AFNE01.JPG,AFNE01.JPG,AFNE01.JPG,AFNE01.JPG,AFNE01.JPG,AFNE01.JPG,4,1,41,0,,,,,,,,,,,,,,,,,,,,,,,AFSA12.jpg,AFNE01.jpg,AFSA16.jpg,AFNE04.jpg,AFNE04.jpg,FN,3,num_4,32,num_2,2.25002622046,,,2018_Mar_06_1512,60.0114910794,FEMA4ImagesEEG,001,202686,
AFNE01.JPG,AFNE01.JPG,AFNE01.JPG,AFNE01.JPG,AFNE01.JPG,AFNE01.JPG,4,2,42,4,,,,,,,,,,,,,,,,,,,,,,,AFNE04.jpg,AFSA08.jpg,AFSA14.jpg,AFNE19.jpg,AFSA14.jpg,FS,4,num_2,32,num_6,0.70013929694,,,2018_Mar_06_1512,60.0114910794,FEMA4ImagesEEG,001,202686,
AFNE01.JPG,AFNE01.JPG,AFNE01.JPG,AFNE01.JPG,AFNE01.JPG,AFNE01.JPG,4,3,43,3,,,,,,,,,,,,,,,,,,,,,,,AFSA10.jpg,AFNE18.jpg,AFSA11.jpg,AFNE10.jpg,AFNE10.jpg,FN,3,num_4,32,num_2,0.550145759946,,,2018_Mar_06_1512,60.0114910794,FEMA4ImagesEEG,001,202686,
AFNE01.JPG,AFNE01.JPG,AFNE01.JPG,AFNE01.JPG,AFNE01.JPG,AFNE01.JPG,4,4,44,6,,,,,,,,,,,,,,,,,,,,,,,AFNE12.jpg,AFSA14.jpg,AFSA02.jpg,AFNE05.jpg,AFSA02.jpg,FS,4,num_2,16,num_2,1.10011767899,,,2018_Mar_06_1512,60.0114910794,FEMA4ImagesEEG,001,202686,
AFNE01.JPG,AFNE01.JPG,AFNE01.JPG,AFNE01.JPG,AFNE01.JPG,AFNE01.JPG,4,5,45,5,,,,,,,,,,,,,,,,,,,,,,,AFNE06.jpg,AFNE08.jpg,AFSA14.jpg,AFSA11.jpg,AFSA11.jpg,FS,4,num_4,16,num_4,1.10012088646,,,2018_Mar_06_1512,60.0114910794,FEMA4ImagesEEG,001,202686,
AFNE01.JPG,AFNE01.JPG,AFNE01.JPG,AFNE01.JPG,AFNE01.JPG,AFNE01.JPG,4,6,46,1,,,,,,,,,,,,,,,,,,,,,,,AFNE17.jpg,AFNE13.jpg,AFSA20.jpg,AFSA05.jpg,AFSA05.jpg,FS,4,num_4,32,num_2,1.7167763433,,,2018_Mar_06_1512,60.0114910794,FEMA4ImagesEEG,001,202686,
AFNE01.JPG,AFNE01.JPG,AFNE01.JPG,AFNE01.JPG,AFNE01.JPG,AFNE01.JPG,4,7,47,2,,,,,,,,,,,,,,,,,,,,,,,AFSA02.jpg,AFNE16.jpg,AFSA06.jpg,AFNE18.jpg,AFNE18.jpg,FN,3,num_4,32,num_6,0.916792957811,,,2018_Mar_06_1512,60.0114910794,FEMA4ImagesEEG,001,202686,
AFNE01.JPG,AFNE01.JPG,AFNE01.JPG,AFNE01.JPG,AFNE01.JPG,AFNE01.JPG,4,8,48,7,,,,,,,,,,,,,,,,,,,,,,,AFSA11.jpg,AFNE12.jpg,AFSA15.jpg,AFNE02.jpg,AFNE02.jpg,FN,3,num_4,32,num_8,0.81678625429,,,2018_Mar_06_1512,60.0114910794,FEMA4ImagesEEG,001,202686,
AFNE01.JPG,AFNE01.JPG,AFNE01.JPG,AFNE01.JPG,AFNE01.JPG,AFNE01.JPG,4,9,49,9,,,,,,,,,,,,,,,,,,,,,,,AFNE06.jpg,AFSA03.jpg,AFSA09.jpg,AFNE13.jpg,AFNE13.jpg,FN,3,num_4,32,num_8,1.0167983782,,,2018_Mar_06_1512,60.0114910794,FEMA4ImagesEEG,001,202686,
AFNE01.JPG,AFNE01.JPG,AFNE01.JPG,AFNE01.JPG,AFNE01.JPG,AFNE01.JPG,5,0,50,2,,,,,,,,,,,,,,,,,,,,,,,AFSA18.jpg,AFNE10.jpg,AFSA13.jpg,AFNE20.jpg,AFNE20.jpg,FN,3,num_4,32,num_6,1.88352463813,,,2018_Mar_06_1512,60.0114910794,FEMA4ImagesEEG,001,202686,
AFNE01.JPG,AFNE01.JPG,AFNE01.JPG,AFNE01.JPG,AFNE01.JPG,AFNE01.JPG,5,1,51,0,,,,,,,,,,,,,,,,,,,,,,,AFNE08.jpg,AFSA01.jpg,AFNE01.jpg,AFSA04.jpg,AFNE08.jpg,FN,3,num_8,16,num_8,0.616774450988,,,2018_Mar_06_1512,60.0114910794,FEMA4ImagesEEG,001,202686,
AFNE01.JPG,AFNE01.JPG,AFNE01.JPG,AFNE01.JPG,AFNE01.JPG,AFNE01.JPG,5,2,52,4,,,,,,,,,,,,,,,,,,,,,,,AFNE04.jpg,AFSA18.jpg,AFNE07.jpg,AFSA15.jpg,AFSA18.jpg,FS,4,num_6,16,num_6,0.433483727975,,,2018_Mar_06_1512,60.0114910794,FEMA4ImagesEEG,001,202686,
AFNE01.JPG,AFNE01.JPG,AFNE01.JPG,AFNE01.JPG,AFNE01.JPG,AFNE01.JPG,5,3,53,5,,,,,,,,,,,,,,,,,,,,,,,AFNE11.jpg,AFNE01.jpg,AFSA06.jpg,AFSA07.jpg,AFSA06.jpg,FS,4,num_2,16,num_2,0.550179116661,,,2018_Mar_06_1512,60.0114910794,FEMA4ImagesEEG,001,202686,
AFNE01.JPG,AFNE01.JPG,AFNE01.JPG,AFNE01.JPG,AFNE01.JPG,AFNE01.JPG,5,4,54,9,,,,,,,,,,,,,,,,,,,,,,,AFSA05.jpg,AFNE06.jpg,AFSA10.jpg,AFNE12.jpg,AFNE12.jpg,FN,3,num_4,16,num_4,0.633516058326,,,2018_Mar_06_1512,60.0114910794,FEMA4ImagesEEG,001,202686,
AFNE01.JPG,AFNE01.JPG,AFNE01.JPG,AFNE01.JPG,AFNE01.JPG,AFNE01.JPG,5,5,55,3,,,,,,,,,,,,,,,,,,,,,,,AFSA09.jpg,AFNE19.jpg,AFNE04.jpg,AFSA08.jpg,AFSA08.jpg,FS,4,num_4,32,num_6,0.783457635669,,,2018_Mar_06_1512,60.0114910794,FEMA4ImagesEEG,001,202686,
AFNE01.JPG,AFNE01.JPG,AFNE01.JPG,AFNE01.JPG,AFNE01.JPG,AFNE01.JPG,5,6,56,8,,,,,,,,,,,,,,,,,,,,,,,AFSA10.jpg,AFSA15.jpg,AFNE04.jpg,AFNE06.jpg,AFNE06.jpg,FN,3,num_4,32,num_8,0.800137981772,,,2018_Mar_06_1512,60.0114910794,FEMA4ImagesEEG,001,202686,
AFNE01.JPG,AFNE01.JPG,AFNE01.JPG,AFNE01.JPG,AFNE01.JPG,AFNE01.JPG,5,7,57,6,,,,,,,,,,,,,,,,,,,,,,,AFSA05.jpg,AFNE15.jpg,AFNE07.jpg,AFSA15.jpg,AFNE15.jpg,FN,3,num_6,32,num_2,0.950105859898,,,2018_Mar_06_1512,60.0114910794,FEMA4ImagesEEG,001,202686,
AFNE01.JPG,AFNE01.JPG,AFNE01.JPG,AFNE01.JPG,AFNE01.JPG,AFNE01.JPG,5,8,58,1,,,,,,,,,,,,,,,,,,,,,,,AFSA20.jpg,AFSA01.jpg,AFNE10.jpg,AFNE09.jpg,AFSA20.jpg,FS,4,num_8,16,num_8,0.866777898977,,,2018_Mar_06_1512,60.0114910794,FEMA4ImagesEEG,001,202686,
AFNE01.JPG,AFNE01.JPG,AFNE01.JPG,AFNE01.JPG,AFNE01.JPG,AFNE01.JPG,5,9,59,7,,,,,,,,,,,,,,,,,,,,,,,AFSA13.jpg,AFNE16.jpg,AFSA09.jpg,AFNE04.jpg,AFNE16.jpg,FN,3,num_6,32,num_4,0.750259557972,,,2018_Mar_06_1512,60.0114910794,FEMA4ImagesEEG,001,202686,
,,,,,,,,,,,,,,,,,,,,,,,,,,,,,,,,,,,,,,,,,,,space,6.74961230694,2018_Mar_06_1512,60.0114910794,FEMA4ImagesEEG,001,202686,
AFNE01.JPG,AFNE01.JPG,AFNE01.JPG,AFNE01.JPG,AFNE01.JPG,AFNE01.JPG,,,,,0,0,0,6,,,,,,,,,,,,,,,,,,,AMSA14.jpg,AMNE17.jpg,AMSA09.jpg,AMNE11.jpg,AMSA09.jpg,MS,2,num_2,16,num_2,0.516945757437,,,2018_Mar_06_1512,60.0114910794,FEMA4ImagesEEG,001,202686,
AFNE01.JPG,AFNE01.JPG,AFNE01.JPG,AFNE01.JPG,AFNE01.JPG,AFNE01.JPG,,,,,0,1,1,0,,,,,,,,,,,,,,,,,,,AMNE07.jpg,AMNE11.jpg,AMSA19.jpg,AMSA09.jpg,AMSA19.jpg,MS,2,num_2,16,num_2,1.06675025122,,,2018_Mar_06_1512,60.0114910794,FEMA4ImagesEEG,001,202686,
AFNE01.JPG,AFNE01.JPG,AFNE01.JPG,AFNE01.JPG,AFNE01.JPG,AFNE01.JPG,,,,,0,2,2,5,,,,,,,,,,,,,,,,,,,AMSA12.jpg,AMNE03.jpg,AMSA07.jpg,AMNE06.jpg,AMNE06.jpg,MN,1,num_4,16,num_4,0.416817173595,,,2018_Mar_06_1512,60.0114910794,FEMA4ImagesEEG,001,202686,
AFNE01.JPG,AFNE01.JPG,AFNE01.JPG,AFNE01.JPG,AFNE01.JPG,AFNE01.JPG,,,,,0,3,3,7,,,,,,,,,,,,,,,,,,,AMNE10.jpg,AMSA17.jpg,AMSA03.jpg,AMNE01.jpg,AMNE01.jpg,MN,1,num_4,16,num_4,1.10012890492,,,2018_Mar_06_1512,60.0114910794,FEMA4ImagesEEG,001,202686,
AFNE01.JPG,AFNE01.JPG,AFNE01.JPG,AFNE01.JPG,AFNE01.JPG,AFNE01.JPG,,,,,0,4,4,2,,,,,,,,,,,,,,,,,,,AMNE06.jpg,AMSA01.jpg,AMSA17.jpg,AMNE14.jpg,AMNE14.jpg,MN,1,num_4,32,num_2,0.983499267604,,,2018_Mar_06_1512,60.0114910794,FEMA4ImagesEEG,001,202686,
AFNE01.JPG,AFNE01.JPG,AFNE01.JPG,AFNE01.JPG,AFNE01.JPG,AFNE01.JPG,,,,,0,5,5,3,,,,,,,,,,,,,,,,,,,AMNE01.jpg,AMNE12.jpg,AMSA07.jpg,AMSA02.jpg,AMNE12.jpg,MN,1,num_6,16,num_6,0.633471475448,,,2018_Mar_06_1512,60.0114910794,FEMA4ImagesEEG,001,202686,
AFNE01.JPG,AFNE01.JPG,AFNE01.JPG,AFNE01.JPG,AFNE01.JPG,AFNE01.JPG,,,,,0,6,6,4,,,,,,,,,,,,,,,,,,,AMNE15.jpg,AMNE08.jpg,AMSA07.jpg,AMSA18.jpg,AMNE15.jpg,MN,1,num_8,16,num_8,0.866597964428,,,2018_Mar_06_1512,60.0114910794,FEMA4ImagesEEG,001,202686,
AFNE01.JPG,AFNE01.JPG,AFNE01.JPG,AFNE01.JPG,AFNE01.JPG,AFNE01.JPG,,,,,0,7,7,8,,,,,,,,,,,,,,,,,,,AMSA05.jpg,AMSA09.jpg,AMNE13.jpg,AMNE17.jpg,AMNE13.jpg,MN,1,num_2,32,num_8,0.650130653055,,,2018_Mar_06_1512,60.0114910794,FEMA4ImagesEEG,001,202686,
AFNE01.JPG,AFNE01.JPG,AFNE01.JPG,AFNE01.JPG,AFNE01.JPG,AFNE01.JPG,,,,,0,8,8,1,,,,,,,,,,,,,,,,,,,AMNE09.jpg,AMSA20.jpg,AMNE01.jpg,AMSA03.jpg,AMNE01.jpg,MN,1,num_2,32,num_6,1.33343821485,,,2018_Mar_06_1512,60.0114910794,FEMA4ImagesEEG,001,202686,
AFNE01.JPG,AFNE01.JPG,AFNE01.JPG,AFNE01.JPG,AFNE01.JPG,AFNE01.JPG,,,,,0,9,9,9,,,,,,,,,,,,,,,,,,,AMNE12.jpg,AMNE14.jpg,AMSA04.jpg,AMSA06.jpg,AMSA06.jpg,MS,2,num_4,16,num_4,1.05014944822,,,2018_Mar_06_1512,60.0114910794,FEMA4ImagesEEG,001,202686,
AFNE01.JPG,AFNE01.JPG,AFNE01.JPG,AFNE01.JPG,AFNE01.JPG,AFNE01.JPG,,,,,1,0,10,1,,,,,,,,,,,,,,,,,,,AMNE15.jpg,AMNE10.jpg,AMSA19.jpg,AMSA11.jpg,AMNE10.jpg,MN,1,num_6,32,num_8,0.683567681117,,,2018_Mar_06_1512,60.0114910794,FEMA4ImagesEEG,001,202686,
AFNE01.JPG,AFNE01.JPG,AFNE01.JPG,AFNE01.JPG,AFNE01.JPG,AFNE01.JPG,,,,,1,1,11,2,,,,,,,,,,,,,,,,,,,AMNE08.jpg,AMSA16.jpg,AMNE14.jpg,AMSA13.jpg,AMNE14.jpg,MN,1,num_2,16,num_2,0.783440957312,,,2018_Mar_06_1512,60.0114910794,FEMA4ImagesEEG,001,202686,
AFNE01.JPG,AFNE01.JPG,AFNE01.JPG,AFNE01.JPG,AFNE01.JPG,AFNE01.JPG,,,,,1,2,12,6,,,,,,,,,,,,,,,,,,,AMSA17.jpg,AMNE18.jpg,AMNE09.jpg,AMSA16.jpg,AMNE09.jpg,MN,1,num_2,32,num_8,0.816792989615,,,2018_Mar_06_1512,60.0114910794,FEMA4ImagesEEG,001,202686,
AFNE01.JPG,AFNE01.JPG,AFNE01.JPG,AFNE01.JPG,AFNE01.JPG,AFNE01.JPG,,,,,1,3,13,3,,,,,,,,,,,,,,,,,,,AMNE14.jpg,AMSA07.jpg,AMSA08.jpg,AMNE20.jpg,AMSA08.jpg,MS,2,num_2,32,num_8,0.950109387981,,,2018_Mar_06_1512,60.0114910794,FEMA4ImagesEEG,001,202686,
AFNE01.JPG,AFNE01.JPG,AFNE01.JPG,AFNE01.JPG,AFNE01.JPG,AFNE01.JPG,,,,,1,4,14,4,,,,,,,,,,,,,,,,,,,AMNE13.jpg,AMSA12.jpg,AMSA18.jpg,AMNE02.jpg,AMNE02.jpg,MN,1,num_4,16,num_4,0.633485908853,,,2018_Mar_06_1512,60.0114910794,FEMA4ImagesEEG,001,202686,
AFNE01.JPG,AFNE01.JPG,AFNE01.JPG,AFNE01.JPG,AFNE01.JPG,AFNE01.JPG,,,,,1,5,15,0,,,,,,,,,,,,,,,,,,,AMSA02.jpg,AMSA10.jpg,AMNE10.jpg,AMNE01.jpg,AMNE01.jpg,MN,1,num_4,32,num_8,1.01674160734,,,2018_Mar_06_1512,60.0114910794,FEMA4ImagesEEG,001,202686,
AFNE01.JPG,AFNE01.JPG,AFNE01.JPG,AFNE01.JPG,AFNE01.JPG,AFNE01.JPG,,,,,1,6,16,5,,,,,,,,,,,,,,,,,,,AMSA10.jpg,AMSA15.jpg,AMNE14.jpg,AMNE12.jpg,AMSA15.jpg,MS,2,num_6,16,num_6,1.11672329297,,,2018_Mar_06_1512,60.0114910794,FEMA4ImagesEEG,001,202686,
AFNE01.JPG,AFNE01.JPG,AFNE01.JPG,AFNE01.JPG,AFNE01.JPG,AFNE01.JPG,,,,,1,7,17,8,,,,,,,,,,,,,,,,,,,AMNE18.jpg,AMNE19.jpg,AMSA18.jpg,AMSA06.jpg,AMNE19.jpg,MN,1,num_6,32,num_8,1.08317015739,,,2018_Mar_06_1512,60.0114910794,FEMA4ImagesEEG,001,202686,
AFNE01.JPG,AFNE01.JPG,AFNE01.JPG,AFNE01.JPG,AFNE01.JPG,AFNE01.JPG,,,,,1,8,18,7,,,,,,,,,,,,,,,,,,,AMNE04.jpg,AMNE13.jpg,AMSA10.jpg,AMSA11.jpg,AMSA11.jpg,MS,2,num_4,16,num_4,1.20013304241,,,2018_Mar_06_1512,60.0114910794,FEMA4ImagesEEG,001,202686,
AFNE01.JPG,AFNE01.JPG,AFNE01.JPG,AFNE01.JPG,AFNE01.JPG,AFNE01.JPG,,,,,1,9,19,9,,,,,,,,,,,,,,,,,,,AMSA13.jpg,AMNE09.jpg,AMSA02.jpg,AMNE03.jpg,AMSA13.jpg,MS,2,num_8,16,num_8,0.450187167153,,,2018_Mar_06_1512,60.0114910794,FEMA4ImagesEEG,001,202686,
AFNE01.JPG,AFNE01.JPG,AFNE01.JPG,AFNE01.JPG,AFNE01.JPG,AFNE01.JPG,,,,,2,0,20,8,,,,,,,,,,,,,,,,,,,AMSA03.jpg,AMNE12.jpg,AMNE13.jpg,AMSA14.jpg,AMNE13.jpg,MN,1,num_2,32,num_6,1.16703279014,,,2018_Mar_06_1512,60.0114910794,FEMA4ImagesEEG,001,202686,
AFNE01.JPG,AFNE01.JPG,AFNE01.JPG,AFNE01.JPG,AFNE01.JPG,AFNE01.JPG,,,,,2,1,21,4,,,,,,,,,,,,,,,,,,,AMNE13.jpg,AMSA07.jpg,AMNE16.jpg,AMSA19.jpg,AMNE13.jpg,MN,1,num_8,32,num_2,0.683532720432,,,2018_Mar_06_1512,60.0114910794,FEMA4ImagesEEG,001,202686,
AFNE01.JPG,AFNE01.JPG,AFNE01.JPG,AFNE01.JPG,AFNE01.JPG,AFNE01.JPG,,,,,2,2,22,2,,,,,,,,,,,,,,,,,,,AMNE11.jpg,AMSA03.jpg,AMNE20.jpg,AMSA07.jpg,AMSA03.jpg,MS,2,num_6,16,num_6,0.983357180143,,,2018_Mar_06_1512,60.0114910794,FEMA4ImagesEEG,001,202686,
AFNE01.JPG,AFNE01.JPG,AFNE01.JPG,AFNE01.JPG,AFNE01.JPG,AFNE01.JPG,,,,,2,3,23,3,,,,,,,,,,,,,,,,,,,AMSA06.jpg,AMNE16.jpg,AMNE08.jpg,AMSA20.jpg,AMNE08.jpg,MN,1,num_2,32,num_8,0.800163641106,,,2018_Mar_06_1512,60.0114910794,FEMA4ImagesEEG,001,202686,
AFNE01.JPG,AFNE01.JPG,AFNE01.JPG,AFNE01.JPG,AFNE01.JPG,AFNE01.JPG,,,,,2,4,24,6,,,,,,,,,,,,,,,,,,,AMSA12.jpg,AMNE05.jpg,AMSA20.jpg,AMNE16.jpg,AMNE16.jpg,MN,1,num_4,32,num_6,0.950237362878,,,2018_Mar_06_1512,60.0114910794,FEMA4ImagesEEG,001,202686,
AFNE01.JPG,AFNE01.JPG,AFNE01.JPG,AFNE01.JPG,AFNE01.JPG,AFNE01.JPG,,,,,2,5,25,0,,,,,,,,,,,,,,,,,,,AMNE20.jpg,AMSA19.jpg,AMSA17.jpg,AMNE12.jpg,AMNE12.jpg,MN,1,num_4,32,num_8,1.53347471496,,,2018_Mar_06_1512,60.0114910794,FEMA4ImagesEEG,001,202686,
AFNE01.JPG,AFNE01.JPG,AFNE01.JPG,AFNE01.JPG,AFNE01.JPG,AFNE01.JPG,,,,,2,6,26,1,,,,,,,,,,,,,,,,,,,AMSA01.jpg,AMNE02.jpg,AMSA15.jpg,AMNE08.jpg,AMNE02.jpg,MN,1,num_6,16,num_6,0.650167217245,,,2018_Mar_06_1512,60.0114910794,FEMA4ImagesEEG,001,202686,
AFNE01.JPG,AFNE01.JPG,AFNE01.JPG,AFNE01.JPG,AFNE01.JPG,AFNE01.JPG,,,,,2,7,27,7,,,,,,,,,,,,,,,,,,,AMSA04.jpg,AMSA16.jpg,AMNE17.jpg,AMNE16.jpg,AMNE17.jpg,MN,1,num_2,16,num_2,0.53346573445,,,2018_Mar_06_1512,60.0114910794,FEMA4ImagesEEG,001,202686,
AFNE01.JPG,AFNE01.JPG,AFNE01.JPG,AFNE01.JPG,AFNE01.JPG,AFNE01.JPG,,,,,2,8,28,5,,,,,,,,,,,,,,,,,,,AMNE01.jpg,AMSA18.jpg,AMNE20.jpg,AMSA01.jpg,AMNE01.jpg,MN,1,num_8,32,num_4,0.750138318632,,,2018_Mar_06_1512,60.0114910794,FEMA4ImagesEEG,001,202686,
AFNE01.JPG,AFNE01.JPG,AFNE01.JPG,AFNE01.JPG,AFNE01.JPG,AFNE01.JPG,,,,,2,9,29,9,,,,,,,,,,,,,,,,,,,AMSA14.jpg,AMNE16.jpg,AMNE11.jpg,AMSA13.jpg,AMNE16.jpg,MN,1,num_6,32,num_8,1.73338099523,,,2018_Mar_06_1512,60.0114910794,FEMA4ImagesEEG,001,202686,
AFNE01.JPG,AFNE01.JPG,AFNE01.JPG,AFNE01.JPG,AFNE01.JPG,AFNE01.JPG,,,,,3,0,30,1,,,,,,,,,,,,,,,,,,,AMNE12.jpg,AMSA14.jpg,AMNE14.jpg,AMSA12.jpg,AMNE12.jpg,MN,1,num_8,16,num_8,1.01676277607,,,2018_Mar_06_1512,60.0114910794,FEMA4ImagesEEG,001,202686,
AFNE01.JPG,AFNE01.JPG,AFNE01.JPG,AFNE01.JPG,AFNE01.JPG,AFNE01.JPG,,,,,3,1,31,8,,,,,,,,,,,,,,,,,,,AMNE20.jpg,AMNE04.jpg,AMSA16.jpg,AMSA03.jpg,AMNE04.jpg,MN,1,num_6,16,num_6,0.766802627826,,,2018_Mar_06_1512,60.0114910794,FEMA4ImagesEEG,001,202686,
AFNE01.JPG,AFNE01.JPG,AFNE01.JPG,AFNE01.JPG,AFNE01.JPG,AFNE01.JPG,,,,,3,2,32,9,,,,,,,,,,,,,,,,,,,AMSA03.jpg,AMSA01.jpg,AMNE13.jpg,AMNE07.jpg,AMSA01.jpg,MS,2,num_6,32,num_8,0.800099813845,,,2018_Mar_06_1512,60.0114910794,FEMA4ImagesEEG,001,202686,
AFNE01.JPG,AFNE01.JPG,AFNE01.JPG,AFNE01.JPG,AFNE01.JPG,AFNE01.JPG,,,,,3,3,33,0,,,,,,,,,,,,,,,,,,,AMSA04.jpg,AMNE16.jpg,AMSA12.jpg,AMNE02.jpg,AMNE02.jpg,MN,1,num_4,16,num_4,2.0667281202,,,2018_Mar_06_1512,60.0114910794,FEMA4ImagesEEG,001,202686,
AFNE01.JPG,AFNE01.JPG,AFNE01.JPG,AFNE01.JPG,AFNE01.JPG,AFNE01.JPG,,,,,3,4,34,5,,,,,,,,,,,,,,,,,,,AMNE08.jpg,AMNE13.jpg,AMSA01.jpg,AMSA04.jpg,AMNE08.jpg,MN,1,num_8,16,num_8,1.31660904596,,,2018_Mar_06_1512,60.0114910794,FEMA4ImagesEEG,001,202686,
AFNE01.JPG,AFNE01.JPG,AFNE01.JPG,AFNE01.JPG,AFNE01.JPG,AFNE01.JPG,,,,,3,5,35,2,,,,,,,,,,,,,,,,,,,AMNE16.jpg,AMSA13.jpg,AMSA04.jpg,AMNE13.jpg,AMSA04.jpg,MS,2,num_2,32,num_6,1.35008263844,,,2018_Mar_06_1512,60.0114910794,FEMA4ImagesEEG,001,202686,
AFNE01.JPG,AFNE01.JPG,AFNE01.JPG,AFNE01.JPG,AFNE01.JPG,AFNE01.JPG,,,,,3,6,36,4,,,,,,,,,,,,,,,,,,,AMNE09.jpg,AMNE06.jpg,AMSA02.jpg,AMSA06.jpg,AMSA02.jpg,MS,2,num_2,32,num_4,4.14990629605,,,2018_Mar_06_1512,60.0114910794,FEMA4ImagesEEG,001,202686,
AFNE01.JPG,AFNE01.JPG,AFNE01.JPG,AFNE01.JPG,AFNE01.JPG,AFNE01.JPG,,,,,3,7,37,3,,,,,,,,,,,,,,,,,,,AMSA18.jpg,AMNE18.jpg,AMSA05.jpg,AMNE15.jpg,AMNE18.jpg,MN,1,num_6,32,num_2,1.03350759088,,,2018_Mar_06_1512,60.0114910794,FEMA4ImagesEEG,001,202686,
AFNE01.JPG,AFNE01.JPG,AFNE01.JPG,AFNE01.JPG,AFNE01.JPG,AFNE01.JPG,,,,,3,8,38,7,,,,,,,,,,,,,,,,,,,AMSA18.jpg,AMNE11.jpg,AMNE17.jpg,AMSA12.jpg,AMNE17.jpg,MN,1,num_2,16,num_2,0.916778845247,,,2018_Mar_06_1512,60.0114910794,FEMA4ImagesEEG,001,202686,
AFNE01.JPG,AFNE01.JPG,AFNE01.JPG,AFNE01.JPG,AFNE01.JPG,AFNE01.JPG,,,,,3,9,39,6,,,,,,,,,,,,,,,,,,,AMSA01.jpg,AMSA15.jpg,AMNE09.jpg,AMNE13.jpg,AMSA15.jpg,MS,2,num_6,32,num_2,1.03340559592,,,2018_Mar_06_1512,60.0114910794,FEMA4ImagesEEG,001,202686,
AFNE01.JPG,AFNE01.JPG,AFNE01.JPG,AFNE01.JPG,AFNE01.JPG,AFNE01.JPG,,,,,4,0,40,1,,,,,,,,,,,,,,,,,,,AMNE05.jpg,AMNE20.jpg,AMSA03.jpg,AMSA20.jpg,AMSA20.jpg,MS,2,num_4,16,num_4,0.783306247089,,,2018_Mar_06_1512,60.0114910794,FEMA4ImagesEEG,001,202686,
AFNE01.JPG,AFNE01.JPG,AFNE01.JPG,AFNE01.JPG,AFNE01.JPG,AFNE01.JPG,,,,,4,1,41,0,,,,,,,,,,,,,,,,,,,AMSA06.jpg,AMNE09.jpg,AMSA01.jpg,AMNE15.jpg,AMSA01.jpg,MS,2,num_2,32,num_8,0.566885442706,,,2018_Mar_06_1512,60.0114910794,FEMA4ImagesEEG,001,202686,
AFNE01.JPG,AFNE01.JPG,AFNE01.JPG,AFNE01.JPG,AFNE01.JPG,AFNE01.JPG,,,,,4,2,42,7,,,,,,,,,,,,,,,,,,,AMNE16.jpg,AMNE15.jpg,AMSA06.jpg,AMSA17.jpg,AMNE15.jpg,MN,1,num_6,16,num_6,0.516768709756,,,2018_Mar_06_1512,60.0114910794,FEMA4ImagesEEG,001,202686,
AFNE01.JPG,AFNE01.JPG,AFNE01.JPG,AFNE01.JPG,AFNE01.JPG,AFNE01.JPG,,,,,4,3,43,3,,,,,,,,,,,,,,,,,,,AMNE15.jpg,AMSA15.jpg,AMNE03.jpg,AMSA16.jpg,AMSA15.jpg,MS,2,num_6,32,num_8,1.18340843427,,,2018_Mar_06_1512,60.0114910794,FEMA4ImagesEEG,001,202686,
AFNE01.JPG,AFNE01.JPG,AFNE01.JPG,AFNE01.JPG,AFNE01.JPG,AFNE01.JPG,,,,,4,4,44,5,,,,,,,,,,,,,,,,,,,AMSA07.jpg,AMSA09.jpg,AMNE11.jpg,AMNE05.jpg,AMSA07.jpg,MS,2,num_8,32,num_6,2.2500393705,,,2018_Mar_06_1512,60.0114910794,FEMA4ImagesEEG,001,202686,
AFNE01.JPG,AFNE01.JPG,AFNE01.JPG,AFNE01.JPG,AFNE01.JPG,AFNE01.JPG,,,,,4,5,45,4,,,,,,,,,,,,,,,,,,,AMSA08.jpg,AMSA12.jpg,AMNE04.jpg,AMNE11.jpg,AMNE04.jpg,MN,1,num_2,16,num_2,0.966763433767,,,2018_Mar_06_1512,60.0114910794,FEMA4ImagesEEG,001,202686,
AFNE01.JPG,AFNE01.JPG,AFNE01.JPG,AFNE01.JPG,AFNE01.JPG,AFNE01.JPG,,,,,4,6,46,6,,,,,,,,,,,,,,,,,,,AMNE15.jpg,AMSA20.jpg,AMSA04.jpg,AMNE03.jpg,AMSA04.jpg,MS,2,num_2,16,num_2,0.500145775964,,,2018_Mar_06_1512,60.0114910794,FEMA4ImagesEEG,001,202686,
AFNE01.JPG,AFNE01.JPG,AFNE01.JPG,AFNE01.JPG,AFNE01.JPG,AFNE01.JPG,,,,,4,7,47,8,,,,,,,,,,,,,,,,,,,AMNE11.jpg,AMNE14.jpg,AMSA05.jpg,AMSA07.jpg,AMSA05.jpg,MS,2,num_2,16,num_2,0.716650934424,,,2018_Mar_06_1512,60.0114910794,FEMA4ImagesEEG,001,202686,
AFNE01.JPG,AFNE01.JPG,AFNE01.JPG,AFNE01.JPG,AFNE01.JPG,AFNE01.JPG,,,,,4,8,48,9,,,,,,,,,,,,,,,,,,,AMSA10.jpg,AMNE02.jpg,AMSA01.jpg,AMNE09.jpg,AMSA01.jpg,MS,2,num_2,16,num_2,0.666808112524,,,2018_Mar_06_1512,60.0114910794,FEMA4ImagesEEG,001,202686,
AFNE01.JPG,AFNE01.JPG,AFNE01.JPG,AFNE01.JPG,AFNE01.JPG,AFNE01.JPG,,,,,4,9,49,2,,,,,,,,,,,,,,,,,,,AMSA02.jpg,AMSA14.jpg,AMNE07.jpg,AMNE16.jpg,AMNE16.jpg,MN,1,num_4,16,num_4,0.600135800662,,,2018_Mar_06_1512,60.0114910794,FEMA4ImagesEEG,001,202686,
AFNE01.JPG,AFNE01.JPG,AFNE01.JPG,AFNE01.JPG,AFNE01.JPG,AFNE01.JPG,,,,,5,0,50,8,,,,,,,,,,,,,,,,,,,AMSA20.jpg,AMNE13.jpg,AMSA03.jpg,AMNE12.jpg,AMNE13.jpg,MN,1,num_6,16,num_6,0.500159888295,,,2018_Mar_06_1512,60.0114910794,FEMA4ImagesEEG,001,202686,
AFNE01.JPG,AFNE01.JPG,AFNE01.JPG,AFNE01.JPG,AFNE01.JPG,AFNE01.JPG,,,,,5,1,51,5,,,,,,,,,,,,,,,,,,,AMNE15.jpg,AMSA07.jpg,AMSA11.jpg,AMNE12.jpg,AMNE15.jpg,MN,1,num_8,16,num_8,0.700095355744,,,2018_Mar_06_1512,60.0114910794,FEMA4ImagesEEG,001,202686,
AFNE01.JPG,AFNE01.JPG,AFNE01.JPG,AFNE01.JPG,AFNE01.JPG,AFNE01.JPG,,,,,5,2,52,2,,,,,,,,,,,,,,,,,,,AMNE10.jpg,AMSA14.jpg,AMNE06.jpg,AMSA19.jpg,AMSA14.jpg,MS,2,num_6,16,num_6,0.450140339322,,,2018_Mar_06_1512,60.0114910794,FEMA4ImagesEEG,001,202686,
AFNE01.JPG,AFNE01.JPG,AFNE01.JPG,AFNE01.JPG,AFNE01.JPG,AFNE01.JPG,,,,,5,3,53,7,,,,,,,,,,,,,,,,,,,AMNE15.jpg,AMSA13.jpg,AMNE10.jpg,AMSA05.jpg,AMNE10.jpg,MN,1,num_2,16,num_2,0.833538445877,,,2018_Mar_06_1512,60.0114910794,FEMA4ImagesEEG,001,202686,
AFNE01.JPG,AFNE01.JPG,AFNE01.JPG,AFNE01.JPG,AFNE01.JPG,AFNE01.JPG,,,,,5,4,54,0,,,,,,,,,,,,,,,,,,,AMSA09.jpg,AMNE17.jpg,AMSA03.jpg,AMNE03.jpg,AMSA03.jpg,MS,2,num_2,16,num_2,1.9000738021,,,2018_Mar_06_1512,60.0114910794,FEMA4ImagesEEG,001,202686,
AFNE01.JPG,AFNE01.JPG,AFNE01.JPG,AFNE01.JPG,AFNE01.JPG,AFNE01.JPG,,,,,5,5,55,1,,,,,,,,,,,,,,,,,,,AMSA17.jpg,AMSA13.jpg,AMNE08.jpg,AMNE03.jpg,AMSA17.jpg,MS,2,num_8,16,num_8,0.966628402704,,,2018_Mar_06_1512,60.0114910794,FEMA4ImagesEEG,001,202686,
AFNE01.JPG,AFNE01.JPG,AFNE01.JPG,AFNE01.JPG,AFNE01.JPG,AFNE01.JPG,,,,,5,6,56,3,,,,,,,,,,,,,,,,,,,AMSA03.jpg,AMNE16.jpg,AMNE19.jpg,AMSA07.jpg,AMNE16.jpg,MN,1,num_6,16,num_6,0.933495114092,,,2018_Mar_06_1512,60.0114910794,FEMA4ImagesEEG,001,202686,
AFNE01.JPG,AFNE01.JPG,AFNE01.JPG,AFNE01.JPG,AFNE01.JPG,AFNE01.JPG,,,,,5,7,57,4,,,,,,,,,,,,,,,,,,,AMNE18.jpg,AMSA08.jpg,AMSA14.jpg,AMNE16.jpg,AMSA08.jpg,MS,2,num_6,16,num_6,0.816632299451,,,2018_Mar_06_1512,60.0114910794,FEMA4ImagesEEG,001,202686,
AFNE01.JPG,AFNE01.JPG,AFNE01.JPG,AFNE01.JPG,AFNE01.JPG,AFNE01.JPG,,,,,5,8,58,6,,,,,,,,,,,,,,,,,,,AMSA10.jpg,AMSA02.jpg,AMNE10.jpg,AMNE12.jpg,AMNE12.jpg,MN,1,num_4,16,num_4,0.700125504984,,,2018_Mar_06_1512,60.0114910794,FEMA4ImagesEEG,001,202686,
AFNE01.JPG,AFNE01.JPG,AFNE01.JPG,AFNE01.JPG,AFNE01.JPG,AFNE01.JPG,,,,,5,9,59,9,,,,,,,,,,,,,,,,,,,AMNE18.jpg,AMSA08.jpg,AMNE14.jpg,AMSA12.jpg,AMSA12.jpg,MS,2,num_4,32,num_8,0.766836305382,,,2018_Mar_06_1512,60.0114910794,FEMA4ImagesEEG,001,202686,
,,,,,,,,,,,,,,,,,,,,,,,,,,,,,,,,,,,,,,,,,,,space,5.68303846195,2018_Mar_06_1512,60.0114910794,FEMA4ImagesEEG,001,202686,
AFNE01.JPG,AFNE01.JPG,AFNE01.JPG,AFNE01.JPG,AFNE01.JPG,AFNE01.JPG,,,,,,,,,0,0,0,6,,,,,,,,,,,,,,,AFSA02.jpg,AFNE02.jpg,AFNE16.jpg,AFSA12.jpg,AFNE02.jpg,FN,3,num_6,16,num_6,0.73345219926,,,2018_Mar_06_1512,60.0114910794,FEMA4ImagesEEG,001,202686,
AFNE01.JPG,AFNE01.JPG,AFNE01.JPG,AFNE01.JPG,AFNE01.JPG,AFNE01.JPG,,,,,,,,,0,1,1,8,,,,,,,,,,,,,,,AFNE16.jpg,AFSA20.jpg,AFNE10.jpg,AFSA11.jpg,AFNE10.jpg,FN,3,num_2,16,num_2,0.633469871944,,,2018_Mar_06_1512,60.0114910794,FEMA4ImagesEEG,001,202686,
AFNE01.JPG,AFNE01.JPG,AFNE01.JPG,AFNE01.JPG,AFNE01.JPG,AFNE01.JPG,,,,,,,,,0,2,2,5,,,,,,,,,,,,,,,AFNE14.jpg,AFSA13.jpg,AFSA12.jpg,AFNE03.jpg,AFSA13.jpg,FS,4,num_6,16,num_6,0.45014194306,,,2018_Mar_06_1512,60.0114910794,FEMA4ImagesEEG,001,202686,
AFNE01.JPG,AFNE01.JPG,AFNE01.JPG,AFNE01.JPG,AFNE01.JPG,AFNE01.JPG,,,,,,,,,0,3,3,4,,,,,,,,,,,,,,,AFNE01.jpg,AFNE17.jpg,AFSA03.jpg,AFSA08.jpg,AFNE01.jpg,FN,3,num_8,16,num_8,0.900168419816,,,2018_Mar_06_1512,60.0114910794,FEMA4ImagesEEG,001,202686,
AFNE01.JPG,AFNE01.JPG,AFNE01.JPG,AFNE01.JPG,AFNE01.JPG,AFNE01.JPG,,,,,,,,,0,4,4,3,,,,,,,,,,,,,,,AFNE13.jpg,AFSA09.jpg,AFNE01.jpg,AFSA17.jpg,AFNE01.jpg,FN,3,num_2,32,num_8,0.650155349867,,,2018_Mar_06_1512,60.0114910794,FEMA4ImagesEEG,001,202686,
AFNE01.JPG,AFNE01.JPG,AFNE01.JPG,AFNE01.JPG,AFNE01.JPG,AFNE01.JPG,,,,,,,,,0,5,5,1,,,,,,,,,,,,,,,AFNE12.jpg,AFSA07.jpg,AFSA06.jpg,AFNE10.jpg,AFSA06.jpg,FS,4,num_2,32,num_4,1.58339675958,,,2018_Mar_06_1512,60.0114910794,FEMA4ImagesEEG,001,202686,
AFNE01.JPG,AFNE01.JPG,AFNE01.JPG,AFNE01.JPG,AFNE01.JPG,AFNE01.JPG,,,,,,,,,0,6,6,0,,,,,,,,,,,,,,,AFNE12.jpg,AFSA15.jpg,AFSA05.jpg,AFNE20.jpg,AFSA05.jpg,FS,4,num_2,16,num_2,1.05014207144,,,2018_Mar_06_1512,60.0114910794,FEMA4ImagesEEG,001,202686,
AFNE01.JPG,AFNE01.JPG,AFNE01.JPG,AFNE01.JPG,AFNE01.JPG,AFNE01.JPG,,,,,,,,,0,7,7,7,,,,,,,,,,,,,,,AFNE12.jpg,AFNE10.jpg,AFSA10.jpg,AFSA15.jpg,AFSA15.jpg,FS,4,num_4,16,num_4,0.500218904344,,,2018_Mar_06_1512,60.0114910794,FEMA4ImagesEEG,001,202686,
AFNE01.JPG,AFNE01.JPG,AFNE01.JPG,AFNE01.JPG,AFNE01.JPG,AFNE01.JPG,,,,,,,,,0,8,8,2,,,,,,,,,,,,,,,AFNE05.jpg,AFNE08.jpg,AFSA18.jpg,AFSA04.jpg,AFSA18.jpg,FS,4,num_2,16,num_2,3.06658827816,,,2018_Mar_06_1512,60.0114910794,FEMA4ImagesEEG,001,202686,
AFNE01.JPG,AFNE01.JPG,AFNE01.JPG,AFNE01.JPG,AFNE01.JPG,AFNE01.JPG,,,,,,,,,0,9,9,9,,,,,,,,,,,,,,,AFSA13.jpg,AFSA02.jpg,AFNE14.jpg,AFNE15.jpg,AFNE15.jpg,FN,3,num_4,16,num_4,1.41671100887,,,2018_Mar_06_1512,60.0114910794,FEMA4ImagesEEG,001,202686,
AFNE01.JPG,AFNE01.JPG,AFNE01.JPG,AFNE01.JPG,AFNE01.JPG,AFNE01.JPG,,,,,,,,,1,0,10,0,,,,,,,,,,,,,,,AFNE11.jpg,AFSA10.jpg,AFNE09.jpg,AFSA17.jpg,AFSA10.jpg,FS,4,num_6,16,num_6,0.883497375296,,,2018_Mar_06_1512,60.0114910794,FEMA4ImagesEEG,001,202686,
AFNE01.JPG,AFNE01.JPG,AFNE01.JPG,AFNE01.JPG,AFNE01.JPG,AFNE01.JPG,,,,,,,,,1,1,11,4,,,,,,,,,,,,,,,AFSA15.jpg,AFSA05.jpg,AFNE02.jpg,AFNE03.jpg,AFSA05.jpg,FS,4,num_6,16,num_6,0.750177769456,,,2018_Mar_06_1512,60.0114910794,FEMA4ImagesEEG,001,202686,
AFNE01.JPG,AFNE01.JPG,AFNE01.JPG,AFNE01.JPG,AFNE01.JPG,AFNE01.JPG,,,,,,,,,1,2,12,1,,,,,,,,,,,,,,,AFNE07.jpg,AFSA06.jpg,AFSA12.jpg,AFNE02.jpg,AFSA06.jpg,FS,4,num_6,32,num_2,2.28333880194,,,2018_Mar_06_1512,60.0114910794,FEMA4ImagesEEG,001,202686,
AFNE01.JPG,AFNE01.JPG,AFNE01.JPG,AFNE01.JPG,AFNE01.JPG,AFNE01.JPG,,,,,,,,,1,3,13,9,,,,,,,,,,,,,,,AFSA09.jpg,AFNE16.jpg,AFNE05.jpg,AFSA04.jpg,AFSA09.jpg,FS,4,num_8,16,num_8,0.800152735785,,,2018_Mar_06_1512,60.0114910794,FEMA4ImagesEEG,001,202686,
AFNE01.JPG,AFNE01.JPG,AFNE01.JPG,AFNE01.JPG,AFNE01.JPG,AFNE01.JPG,,,,,,,,,1,4,14,6,,,,,,,,,,,,,,,AFSA10.jpg,AFSA05.jpg,AFNE03.jpg,AFNE15.jpg,AFSA05.jpg,FS,4,num_6,32,num_2,1.00007986394,,,2018_Mar_06_1512,60.0114910794,FEMA4ImagesEEG,001,202686,
AFNE01.JPG,AFNE01.JPG,AFNE01.JPG,AFNE01.JPG,AFNE01.JPG,AFNE01.JPG,,,,,,,,,1,5,15,5,,,,,,,,,,,,,,,AFSA14.jpg,AFNE01.jpg,AFSA06.jpg,AFNE14.jpg,AFNE01.jpg,FN,3,num_6,16,num_6,0.550182644743,,,2018_Mar_06_1512,60.0114910794,FEMA4ImagesEEG,001,202686,
AFNE01.JPG,AFNE01.JPG,AFNE01.JPG,AFNE01.JPG,AFNE01.JPG,AFNE01.JPG,,,,,,,,,1,6,16,8,,,,,,,,,,,,,,,AFNE03.jpg,AFNE06.jpg,AFSA14.jpg,AFSA19.jpg,AFSA14.jpg,FS,4,num_2,32,num_4,1.26677103504,,,2018_Mar_06_1512,60.0114910794,FEMA4ImagesEEG,001,202686,
AFNE01.JPG,AFNE01.JPG,AFNE01.JPG,AFNE01.JPG,AFNE01.JPG,AFNE01.JPG,,,,,,,,,1,7,17,3,,,,,,,,,,,,,,,AFSA05.jpg,AFNE20.jpg,AFNE06.jpg,AFSA17.jpg,AFSA17.jpg,FS,4,num_4,16,num_4,0.750208560377,,,2018_Mar_06_1512,60.0114910794,FEMA4ImagesEEG,001,202686,
AFNE01.JPG,AFNE01.JPG,AFNE01.JPG,AFNE01.JPG,AFNE01.JPG,AFNE01.JPG,,,,,,,,,1,8,18,2,,,,,,,,,,,,,,,AFSA18.jpg,AFSA03.jpg,AFNE02.jpg,AFNE01.jpg,AFSA03.jpg,FS,4,num_6,32,num_4,1.4166991415,,,2018_Mar_06_1512,60.0114910794,FEMA4ImagesEEG,001,202686,
AFNE01.JPG,AFNE01.JPG,AFNE01.JPG,AFNE01.JPG,AFNE01.JPG,AFNE01.JPG,,,,,,,,,1,9,19,7,,,,,,,,,,,,,,,AFSA12.jpg,AFNE20.jpg,AFSA15.jpg,AFNE17.jpg,AFNE17.jpg,FN,3,num_4,16,num_4,1.20008974266,,,2018_Mar_06_1512,60.0114910794,FEMA4ImagesEEG,001,202686,
AFNE01.JPG,AFNE01.JPG,AFNE01.JPG,AFNE01.JPG,AFNE01.JPG,AFNE01.JPG,,,,,,,,,2,0,20,9,,,,,,,,,,,,,,,AFSA13.jpg,AFSA03.jpg,AFNE16.jpg,AFNE13.jpg,AFSA13.jpg,FS,4,num_8,16,num_8,0.666820621351,,,2018_Mar_06_1512,60.0114910794,FEMA4ImagesEEG,001,202686,
AFNE01.JPG,AFNE01.JPG,AFNE01.JPG,AFNE01.JPG,AFNE01.JPG,AFNE01.JPG,,,,,,,,,2,1,21,4,,,,,,,,,,,,,,,AFSA08.jpg,AFSA01.jpg,AFNE20.jpg,AFNE09.jpg,AFNE20.jpg,FN,3,num_2,16,num_2,1.91639043042,,,2018_Mar_06_1512,60.0114910794,FEMA4ImagesEEG,001,202686,
AFNE01.JPG,AFNE01.JPG,AFNE01.JPG,AFNE01.JPG,AFNE01.JPG,AFNE01.JPG,,,,,,,,,2,2,22,7,,,,,,,,,,,,,,,AFNE18.jpg,AFSA15.jpg,AFNE20.jpg,AFSA17.jpg,AFSA15.jpg,FS,4,num_6,16,num_6,3.31658242457,,,2018_Mar_06_1512,60.0114910794,FEMA4ImagesEEG,001,202686,
AFNE01.JPG,AFNE01.JPG,AFNE01.JPG,AFNE01.JPG,AFNE01.JPG,AFNE01.JPG,,,,,,,,,2,3,23,2,,,,,,,,,,,,,,,AFNE14.jpg,AFSA15.jpg,AFSA09.jpg,AFNE17.jpg,AFNE17.jpg,FN,3,num_4,16,num_4,0.716814832063,,,2018_Mar_06_1512,60.0114910794,FEMA4ImagesEEG,001,202686,
AFNE01.JPG,AFNE01.JPG,AFNE01.JPG,AFNE01.JPG,AFNE01.JPG,AFNE01.JPG,,,,,,,,,2,4,24,0,,,,,,,,,,,,,,,AFSA19.jpg,AFNE16.jpg,AFNE08.jpg,AFSA14.jpg,AFSA19.jpg,FS,4,num_8,16,num_8,0.466804007068,,,2018_Mar_06_1512,60.0114910794,FEMA4ImagesEEG,001,202686,
AFNE01.JPG,AFNE01.JPG,AFNE01.JPG,AFNE01.JPG,AFNE01.JPG,AFNE01.JPG,,,,,,,,,2,5,25,8,,,,,,,,,,,,,,,AFNE16.jpg,AFNE12.jpg,AFSA06.jpg,AFSA02.jpg,AFSA06.jpg,FS,4,num_2,32,num_4,0.733449312393,,,2018_Mar_06_1512,60.0114910794,FEMA4ImagesEEG,001,202686,
AFNE01.JPG,AFNE01.JPG,AFNE01.JPG,AFNE01.JPG,AFNE01.JPG,AFNE01.JPG,,,,,,,,,2,6,26,1,,,,,,,,,,,,,,,AFSA06.jpg,AFNE19.jpg,AFNE05.jpg,AFSA20.jpg,AFNE05.jpg,FN,3,num_2,32,num_8,0.750141526107,,,2018_Mar_06_1512,60.0114910794,FEMA4ImagesEEG,001,202686,
AFNE01.JPG,AFNE01.JPG,AFNE01.JPG,AFNE01.JPG,AFNE01.JPG,AFNE01.JPG,,,,,,,,,2,7,27,3,,,,,,,,,,,,,,,AFNE13.jpg,AFSA05.jpg,AFNE08.jpg,AFSA09.jpg,AFNE08.jpg,FN,3,num_2,32,num_8,0.783502218546,,,2018_Mar_06_1512,60.0114910794,FEMA4ImagesEEG,001,202686,
AFNE01.JPG,AFNE01.JPG,AFNE01.JPG,AFNE01.JPG,AFNE01.JPG,AFNE01.JPG,,,,,,,,,2,8,28,5,,,,,,,,,,,,,,,AFSA09.jpg,AFSA20.jpg,AFNE04.jpg,AFNE09.jpg,AFNE09.jpg,FN,3,num_4,16,num_4,0.58362416341,,,2018_Mar_06_1512,60.0114910794,FEMA4ImagesEEG,001,202686,
AFNE01.JPG,AFNE01.JPG,AFNE01.JPG,AFNE01.JPG,AFNE01.JPG,AFNE01.JPG,,,,,,,,,2,9,29,6,,,,,,,,,,,,,,,AFSA03.jpg,AFNE01.jpg,AFNE04.jpg,AFSA05.jpg,AFNE01.jpg,FN,3,num_6,32,num_2,1.03354864544,,,2018_Mar_06_1512,60.0114910794,FEMA4ImagesEEG,001,202686,
AFNE01.JPG,AFNE01.JPG,AFNE01.JPG,AFNE01.JPG,AFNE01.JPG,AFNE01.JPG,,,,,,,,,3,0,30,8,,,,,,,,,,,,,,,AFSA09.jpg,AFNE13.jpg,AFNE11.jpg,AFSA16.jpg,AFSA16.jpg,FS,4,num_4,32,num_8,0.70019093575,,,2018_Mar_06_1512,60.0114910794,FEMA4ImagesEEG,001,202686,
AFNE01.JPG,AFNE01.JPG,AFNE01.JPG,AFNE01.JPG,AFNE01.JPG,AFNE01.JPG,,,,,,,,,3,1,31,4,,,,,,,,,,,,,,,AFSA19.jpg,AFNE14.jpg,AFSA07.jpg,AFNE12.jpg,AFNE14.jpg,FN,3,num_6,16,num_6,0.733492291532,,,2018_Mar_06_1512,60.0114910794,FEMA4ImagesEEG,001,202686,
AFNE01.JPG,AFNE01.JPG,AFNE01.JPG,AFNE01.JPG,AFNE01.JPG,AFNE01.JPG,,,,,,,,,3,2,32,2,,,,,,,,,,,,,,,AFNE08.jpg,AFNE07.jpg,AFSA11.jpg,AFSA06.jpg,AFSA06.jpg,FS,4,num_4,32,num_8,0.866820557043,,,2018_Mar_06_1512,60.0114910794,FEMA4ImagesEEG,001,202686,
AFNE01.JPG,AFNE01.JPG,AFNE01.JPG,AFNE01.JPG,AFNE01.JPG,AFNE01.JPG,,,,,,,,,3,3,33,0,,,,,,,,,,,,,,,AFSA04.jpg,AFNE18.jpg,AFSA19.jpg,AFNE07.jpg,AFNE07.jpg,FN,3,num_4,16,num_4,0.950142424088,,,2018_Mar_06_1512,60.0114910794,FEMA4ImagesEEG,001,202686,
AFNE01.JPG,AFNE01.JPG,AFNE01.JPG,AFNE01.JPG,AFNE01.JPG,AFNE01.JPG,,,,,,,,,3,4,34,3,,,,,,,,,,,,,,,AFNE02.jpg,AFSA09.jpg,AFSA19.jpg,AFNE18.jpg,AFNE02.jpg,FN,3,num_8,32,num_4,0.566821936285,,,2018_Mar_06_1512,60.0114910794,FEMA4ImagesEEG,001,202686,
AFNE01.JPG,AFNE01.JPG,AFNE01.JPG,AFNE01.JPG,AFNE01.JPG,AFNE01.JPG,,,,,,,,,3,5,35,1,,,,,,,,,,,,,,,AFNE04.jpg,AFNE10.jpg,AFSA02.jpg,AFSA10.jpg,AFSA10.jpg,FS,4,num_4,32,num_6,0.766830852954,,,2018_Mar_06_1512,60.0114910794,FEMA4ImagesEEG,001,202686,
AFNE01.JPG,AFNE01.JPG,AFNE01.JPG,AFNE01.JPG,AFNE01.JPG,AFNE01.JPG,,,,,,,,,3,6,36,6,,,,,,,,,,,,,,,AFNE01.jpg,AFSA16.jpg,AFNE20.jpg,AFSA06.jpg,AFNE20.jpg,FN,3,num_2,32,num_6,3.06656935439,,,2018_Mar_06_1512,60.0114910794,FEMA4ImagesEEG,001,202686,
AFNE01.JPG,AFNE01.JPG,AFNE01.JPG,AFNE01.JPG,AFNE01.JPG,AFNE01.JPG,,,,,,,,,3,7,37,9,,,,,,,,,,,,,,,AFSA13.jpg,AFNE06.jpg,AFSA03.jpg,AFNE10.jpg,AFSA13.jpg,FS,4,num_8,16,num_8,0.450176582672,,,2018_Mar_06_1512,60.0114910794,FEMA4ImagesEEG,001,202686,
AFNE01.JPG,AFNE01.JPG,AFNE01.JPG,AFNE01.JPG,AFNE01.JPG,AFNE01.JPG,,,,,,,,,3,8,38,5,,,,,,,,,,,,,,,AFNE16.jpg,AFNE13.jpg,AFSA02.jpg,AFSA19.jpg,AFNE16.jpg,FN,3,num_8,16,num_8,0.550216001458,,,2018_Mar_06_1512,60.0114910794,FEMA4ImagesEEG,001,202686,
AFNE01.JPG,AFNE01.JPG,AFNE01.JPG,AFNE01.JPG,AFNE01.JPG,AFNE01.JPG,,,,,,,,,3,9,39,7,,,,,,,,,,,,,,,AFSA20.jpg,AFNE10.jpg,AFSA03.jpg,AFNE07.jpg,AFNE07.jpg,FN,3,num_4,16,num_4,0.433497198857,,,2018_Mar_06_1512,60.0114910794,FEMA4ImagesEEG,001,202686,
AFNE01.JPG,AFNE01.JPG,AFNE01.JPG,AFNE01.JPG,AFNE01.JPG,AFNE01.JPG,,,,,,,,,4,0,40,8,,,,,,,,,,,,,,,AFSA17.jpg,AFSA08.jpg,AFNE11.jpg,AFNE10.jpg,AFNE11.jpg,FN,3,num_2,32,num_6,0.500206074677,,,2018_Mar_06_1512,60.0114910794,FEMA4ImagesEEG,001,202686,
AFNE01.JPG,AFNE01.JPG,AFNE01.JPG,AFNE01.JPG,AFNE01.JPG,AFNE01.JPG,,,,,,,,,4,1,41,0,,,,,,,,,,,,,,,AFNE12.jpg,AFSA12.jpg,AFNE14.jpg,AFSA02.jpg,AFNE14.jpg,FN,3,num_2,16,num_2,0.800132529344,,,2018_Mar_06_1512,60.0114910794,FEMA4ImagesEEG,001,202686,
AFNE01.JPG,AFNE01.JPG,AFNE01.JPG,AFNE01.JPG,AFNE01.JPG,AFNE01.JPG,,,,,,,,,4,2,42,2,,,,,,,,,,,,,,,AFSA07.jpg,AFNE18.jpg,AFSA13.jpg,AFNE15.jpg,AFNE18.jpg,FN,3,num_6,32,num_2,1.38330188487,,,2018_Mar_06_1512,60.0114910794,FEMA4ImagesEEG,001,202686,
AFNE01.JPG,AFNE01.JPG,AFNE01.JPG,AFNE01.JPG,AFNE01.JPG,AFNE01.JPG,,,,,,,,,4,3,43,5,,,,,,,,,,,,,,,AFSA03.jpg,AFNE16.jpg,AFNE10.jpg,AFSA08.jpg,AFNE16.jpg,FN,3,num_6,16,num_6,1.21678644652,,,2018_Mar_06_1512,60.0114910794,FEMA4ImagesEEG,001,202686,
AFNE01.JPG,AFNE01.JPG,AFNE01.JPG,AFNE01.JPG,AFNE01.JPG,AFNE01.JPG,,,,,,,,,4,4,44,6,,,,,,,,,,,,,,,AFSA02.jpg,AFNE03.jpg,AFNE10.jpg,AFSA09.jpg,AFNE03.jpg,FN,3,num_6,16,num_6,1.4500838893,,,2018_Mar_06_1512,60.0114910794,FEMA4ImagesEEG,001,202686,
AFNE01.JPG,AFNE01.JPG,AFNE01.JPG,AFNE01.JPG,AFNE01.JPG,AFNE01.JPG,,,,,,,,,4,5,45,9,,,,,,,,,,,,,,,AFSA06.jpg,AFNE02.jpg,AFNE09.jpg,AFSA09.jpg,AFSA06.jpg,FS,4,num_8,32,num_6,1.26681754226,,,2018_Mar_06_1512,60.0114910794,FEMA4ImagesEEG,001,202686,
AFNE01.JPG,AFNE01.JPG,AFNE01.JPG,AFNE01.JPG,AFNE01.JPG,AFNE01.JPG,,,,,,,,,4,6,46,4,,,,,,,,,,,,,,,AFSA14.jpg,AFSA19.jpg,AFNE05.jpg,AFNE12.jpg,AFSA14.jpg,FS,4,num_8,32,num_2,1.65031796438,,,2018_Mar_06_1512,60.0114910794,FEMA4ImagesEEG,001,202686,
AFNE01.JPG,AFNE01.JPG,AFNE01.JPG,AFNE01.JPG,AFNE01.JPG,AFNE01.JPG,,,,,,,,,4,7,47,1,,,,,,,,,,,,,,,AFSA18.jpg,AFNE20.jpg,AFSA14.jpg,AFNE17.jpg,AFNE17.jpg,FN,3,num_4,16,num_4,0.733484273078,,,2018_Mar_06_1512,60.0114910794,FEMA4ImagesEEG,001,202686,
AFNE01.JPG,AFNE01.JPG,AFNE01.JPG,AFNE01.JPG,AFNE01.JPG,AFNE01.JPG,,,,,,,,,4,8,48,3,,,,,,,,,,,,,,,AFSA06.jpg,AFSA03.jpg,AFNE01.jpg,AFNE06.jpg,AFNE01.jpg,FN,3,num_2,32,num_6,0.666786943795,,,2018_Mar_06_1512,60.0114910794,FEMA4ImagesEEG,001,202686,
AFNE01.JPG,AFNE01.JPG,AFNE01.JPG,AFNE01.JPG,AFNE01.JPG,AFNE01.JPG,,,,,,,,,4,9,49,7,,,,,,,,,,,,,,,AFSA06.jpg,AFSA12.jpg,AFNE15.jpg,AFNE03.jpg,AFSA12.jpg,FS,4,num_6,16,num_6,0.433466728777,,,2018_Mar_06_1512,60.0114910794,FEMA4ImagesEEG,001,202686,
AFNE01.JPG,AFNE01.JPG,AFNE01.JPG,AFNE01.JPG,AFNE01.JPG,AFNE01.JPG,,,,,,,,,5,0,50,9,,,,,,,,,,,,,,,AFSA04.jpg,AFNE09.jpg,AFNE12.jpg,AFSA13.jpg,AFSA13.jpg,FS,4,num_4,16,num_4,0.766624938697,,,2018_Mar_06_1512,60.0114910794,FEMA4ImagesEEG,001,202686,
AFNE01.JPG,AFNE01.JPG,AFNE01.JPG,AFNE01.JPG,AFNE01.JPG,AFNE01.JPG,,,,,,,,,5,1,51,6,,,,,,,,,,,,,,,AFSA15.jpg,AFSA18.jpg,AFNE14.jpg,AFNE02.jpg,AFNE02.jpg,FN,3,num_4,16,num_4,0.816775028361,,,2018_Mar_06_1512,60.0114910794,FEMA4ImagesEEG,001,202686,
AFNE01.JPG,AFNE01.JPG,AFNE01.JPG,AFNE01.JPG,AFNE01.JPG,AFNE01.JPG,,,,,,,,,5,2,52,7,,,,,,,,,,,,,,,AFSA07.jpg,AFNE15.jpg,AFNE12.jpg,AFSA15.jpg,AFSA07.jpg,FS,4,num_8,16,num_8,0.76677536522,,,2018_Mar_06_1512,60.0114910794,FEMA4ImagesEEG,001,202686,
AFNE01.JPG,AFNE01.JPG,AFNE01.JPG,AFNE01.JPG,AFNE01.JPG,AFNE01.JPG,,,,,,,,,5,3,53,2,,,,,,,,,,,,,,,AFSA20.jpg,AFNE09.jpg,AFNE04.jpg,AFSA16.jpg,AFSA16.jpg,FS,4,num_4,16,num_4,0.716770890635,,,2018_Mar_06_1512,60.0114910794,FEMA4ImagesEEG,001,202686,
AFNE01.JPG,AFNE01.JPG,AFNE01.JPG,AFNE01.JPG,AFNE01.JPG,AFNE01.JPG,,,,,,,,,5,4,54,4,,,,,,,,,,,,,,,AFNE02.jpg,AFNE06.jpg,AFSA08.jpg,AFSA04.jpg,AFSA08.jpg,FS,4,num_2,32,num_4,1.55009829043,,,2018_Mar_06_1512,60.0114910794,FEMA4ImagesEEG,001,202686,
AFNE01.JPG,AFNE01.JPG,AFNE01.JPG,AFNE01.JPG,AFNE01.JPG,AFNE01.JPG,,,,,,,,,5,5,55,8,,,,,,,,,,,,,,,AFNE12.jpg,AFSA11.jpg,AFSA04.jpg,AFNE06.jpg,AFNE12.jpg,FN,3,num_8,16,num_8,1.28341096803,,,2018_Mar_06_1512,60.0114910794,FEMA4ImagesEEG,001,202686,
AFNE01.JPG,AFNE01.JPG,AFNE01.JPG,AFNE01.JPG,AFNE01.JPG,AFNE01.JPG,,,,,,,,,5,6,56,0,,,,,,,,,,,,,,,AFSA06.jpg,AFNE19.jpg,AFNE10.jpg,AFSA17.jpg,AFNE19.jpg,FN,3,num_6,16,num_6,0.583480151603,,,2018_Mar_06_1512,60.0114910794,FEMA4ImagesEEG,001,202686,
AFNE01.JPG,AFNE01.JPG,AFNE01.JPG,AFNE01.JPG,AFNE01.JPG,AFNE01.JPG,,,,,,,,,5,7,57,1,,,,,,,,,,,,,,,AFSA08.jpg,AFSA10.jpg,AFNE04.jpg,AFNE13.jpg,AFNE13.jpg,FN,3,num_4,16,num_4,0.866801312892,,,2018_Mar_06_1512,60.0114910794,FEMA4ImagesEEG,001,202686,
AFNE01.JPG,AFNE01.JPG,AFNE01.JPG,AFNE01.JPG,AFNE01.JPG,AFNE01.JPG,,,,,,,,,5,8,58,5,,,,,,,,,,,,,,,AFNE16.jpg,AFNE07.jpg,AFSA12.jpg,AFSA19.jpg,AFNE16.jpg,FN,3,num_8,32,num_4,0.966742585646,,,2018_Mar_06_1512,60.0114910794,FEMA4ImagesEEG,001,202686,
AFNE01.JPG,AFNE01.JPG,AFNE01.JPG,AFNE01.JPG,AFNE01.JPG,AFNE01.JPG,,,,,,,,,5,9,59,3,,,,,,,,,,,,,,,AFSA12.jpg,AFSA05.jpg,AFNE06.jpg,AFNE16.jpg,AFNE06.jpg,FN,3,num_2,32,num_4,2.31667864625,,,2018_Mar_06_1512,60.0114910794,FEMA4ImagesEEG,001,202686,
,,,,,,,,,,,,,,,,,,,,,,,,,,,,,,,,,,,,,,,,,,,space,21.4152526092,2018_Mar_06_1512,60.0114910794,FEMA4ImagesEEG,001,202686,
AFNE01.JPG,AFNE01.JPG,AFNE01.JPG,AFNE01.JPG,AFNE01.JPG,AFNE01.JPG,,,,,,,,,,,,,0,0,0,8,,,,,,,,,,,AMNE17.jpg,AMSA02.jpg,AMSA06.jpg,AMNE19.jpg,AMNE17.jpg,MN,1,num_8,16,num_8,0.433605929371,,,2018_Mar_06_1512,60.0114910794,FEMA4ImagesEEG,001,202686,
AFNE01.JPG,AFNE01.JPG,AFNE01.JPG,AFNE01.JPG,AFNE01.JPG,AFNE01.JPG,,,,,,,,,,,,,0,1,1,9,,,,,,,,,,,AMNE09.jpg,AMSA05.jpg,AMSA10.jpg,AMNE13.jpg,AMNE09.jpg,MN,1,num_8,16,num_8,0.600134517765,,,2018_Mar_06_1512,60.0114910794,FEMA4ImagesEEG,001,202686,
AFNE01.JPG,AFNE01.JPG,AFNE01.JPG,AFNE01.JPG,AFNE01.JPG,AFNE01.JPG,,,,,,,,,,,,,0,2,2,5,,,,,,,,,,,AMNE04.jpg,AMNE18.jpg,AMSA05.jpg,AMSA08.jpg,AMNE18.jpg,MN,1,num_6,16,num_6,0.433520933613,,,2018_Mar_06_1512,60.0114910794,FEMA4ImagesEEG,001,202686,
AFNE01.JPG,AFNE01.JPG,AFNE01.JPG,AFNE01.JPG,AFNE01.JPG,AFNE01.JPG,,,,,,,,,,,,,0,3,3,7,,,,,,,,,,,AMNE04.jpg,AMNE12.jpg,AMSA02.jpg,AMSA14.jpg,AMNE04.jpg,MN,1,num_8,16,num_8,0.650156953605,,,2018_Mar_06_1512,60.0114910794,FEMA4ImagesEEG,001,202686,
AFNE01.JPG,AFNE01.JPG,AFNE01.JPG,AFNE01.JPG,AFNE01.JPG,AFNE01.JPG,,,,,,,,,,,,,0,4,4,4,,,,,,,,,,,AMNE05.jpg,AMSA09.jpg,AMNE01.jpg,AMSA13.jpg,AMSA09.jpg,MS,2,num_6,32,num_8,0.817036109744,,,2018_Mar_06_1512,60.0114910794,FEMA4ImagesEEG,001,202686,
AFNE01.JPG,AFNE01.JPG,AFNE01.JPG,AFNE01.JPG,AFNE01.JPG,AFNE01.JPG,,,,,,,,,,,,,0,5,5,0,,,,,,,,,,,AMNE05.jpg,AMSA17.jpg,AMNE04.jpg,AMSA15.jpg,AMNE04.jpg,MN,1,num_2,16,num_2,0.733349883463,,,2018_Mar_06_1512,60.0114910794,FEMA4ImagesEEG,001,202686,
AFNE01.JPG,AFNE01.JPG,AFNE01.JPG,AFNE01.JPG,AFNE01.JPG,AFNE01.JPG,,,,,,,,,,,,,0,6,6,3,,,,,,,,,,,AMSA11.jpg,AMNE02.jpg,AMNE01.jpg,AMSA12.jpg,AMSA12.jpg,MS,2,num_4,16,num_4,1.13343892037,,,2018_Mar_06_1512,60.0114910794,FEMA4ImagesEEG,001,202686,
AFNE01.JPG,AFNE01.JPG,AFNE01.JPG,AFNE01.JPG,AFNE01.JPG,AFNE01.JPG,,,,,,,,,,,,,0,7,7,2,,,,,,,,,,,AMNE08.jpg,AMSA16.jpg,AMSA12.jpg,AMNE06.jpg,AMSA16.jpg,MS,2,num_6,32,num_8,0.86675865436,,,2018_Mar_06_1512,60.0114910794,FEMA4ImagesEEG,001,202686,
AFNE01.JPG,AFNE01.JPG,AFNE01.JPG,AFNE01.JPG,AFNE01.JPG,AFNE01.JPG,,,,,,,,,,,,,0,8,8,6,,,,,,,,,,,AMNE02.jpg,AMNE20.jpg,AMSA04.jpg,AMSA09.jpg,AMSA09.jpg,MS,2,num_4,16,num_4,1.0667277996,,,2018_Mar_06_1512,60.0114910794,FEMA4ImagesEEG,001,202686,
AFNE01.JPG,AFNE01.JPG,AFNE01.JPG,AFNE01.JPG,AFNE01.JPG,AFNE01.JPG,,,,,,,,,,,,,0,9,9,1,,,,,,,,,,,AMSA10.jpg,AMSA03.jpg,AMNE13.jpg,AMNE09.jpg,AMSA03.jpg,MS,2,num_6,32,num_8,0.683440989349,,,2018_Mar_06_1512,60.0114910794,FEMA4ImagesEEG,001,202686,
AFNE01.JPG,AFNE01.JPG,AFNE01.JPG,AFNE01.JPG,AFNE01.JPG,AFNE01.JPG,,,,,,,,,,,,,1,0,10,5,,,,,,,,,,,AMSA16.jpg,AMNE09.jpg,AMSA03.jpg,AMNE18.jpg,AMNE09.jpg,MN,1,num_6,32,num_4,1.53341890662,,,2018_Mar_06_1512,60.0114910794,FEMA4ImagesEEG,001,202686,
AFNE01.JPG,AFNE01.JPG,AFNE01.JPG,AFNE01.JPG,AFNE01.JPG,AFNE01.JPG,,,,,,,,,,,,,1,1,11,7,,,,,,,,,,,AMNE05.jpg,AMNE07.jpg,AMSA15.jpg,AMSA06.jpg,AMNE05.jpg,MN,1,num_8,16,num_8,0.483482428826,,,2018_Mar_06_1512,60.0114910794,FEMA4ImagesEEG,001,202686,
AFNE01.JPG,AFNE01.JPG,AFNE01.JPG,AFNE01.JPG,AFNE01.JPG,AFNE01.JPG,,,,,,,,,,,,,1,2,12,1,,,,,,,,,,,AMSA10.jpg,AMSA18.jpg,AMNE04.jpg,AMNE05.jpg,AMSA18.jpg,MS,2,num_6,16,num_6,0.483494937653,,,2018_Mar_06_1512,60.0114910794,FEMA4ImagesEEG,001,202686,
AFNE01.JPG,AFNE01.JPG,AFNE01.JPG,AFNE01.JPG,AFNE01.JPG,AFNE01.JPG,,,,,,,,,,,,,1,3,13,8,,,,,,,,,,,AMSA05.jpg,AMNE18.jpg,AMNE06.jpg,AMSA20.jpg,AMSA05.jpg,MS,2,num_8,16,num_8,2.58330695238,,,2018_Mar_06_1512,60.0114910794,FEMA4ImagesEEG,001,202686,
AFNE01.JPG,AFNE01.JPG,AFNE01.JPG,AFNE01.JPG,AFNE01.JPG,AFNE01.JPG,,,,,,,,,,,,,1,4,14,0,,,,,,,,,,,AMSA07.jpg,AMNE13.jpg,AMNE19.jpg,AMSA18.jpg,AMNE13.jpg,MN,1,num_6,16,num_6,0.633481739322,,,2018_Mar_06_1512,60.0114910794,FEMA4ImagesEEG,001,202686,
AFNE01.JPG,AFNE01.JPG,AFNE01.JPG,AFNE01.JPG,AFNE01.JPG,AFNE01.JPG,,,,,,,,,,,,,1,5,15,2,,,,,,,,,,,AMSA07.jpg,AMNE17.jpg,AMSA15.jpg,AMNE06.jpg,AMNE17.jpg,MN,1,num_6,16,num_6,0.700143466471,,,2018_Mar_06_1512,60.0114910794,FEMA4ImagesEEG,001,202686,
AFNE01.JPG,AFNE01.JPG,AFNE01.JPG,AFNE01.JPG,AFNE01.JPG,AFNE01.JPG,,,,,,,,,,,,,1,6,16,4,,,,,,,,,,,AMSA04.jpg,AMNE12.jpg,AMSA16.jpg,AMNE04.jpg,AMNE04.jpg,MN,1,num_4,16,num_4,0.900140836369,,,2018_Mar_06_1512,60.0114910794,FEMA4ImagesEEG,001,202686,
AFNE01.JPG,AFNE01.JPG,AFNE01.JPG,AFNE01.JPG,AFNE01.JPG,AFNE01.JPG,,,,,,,,,,,,,1,7,17,9,,,,,,,,,,,AMNE15.jpg,AMSA12.jpg,AMNE12.jpg,AMSA10.jpg,AMNE12.jpg,MN,1,num_2,16,num_2,1.41680498538,,,2018_Mar_06_1512,60.0114910794,FEMA4ImagesEEG,001,202686,
AFNE01.JPG,AFNE01.JPG,AFNE01.JPG,AFNE01.JPG,AFNE01.JPG,AFNE01.JPG,,,,,,,,,,,,,1,8,18,3,,,,,,,,,,,AMSA15.jpg,AMNE03.jpg,AMSA09.jpg,AMNE08.jpg,AMNE03.jpg,MN,1,num_6,16,num_6,1.18344147038,,,2018_Mar_06_1512,60.0114910794,FEMA4ImagesEEG,001,202686,
AFNE01.JPG,AFNE01.JPG,AFNE01.JPG,AFNE01.JPG,AFNE01.JPG,AFNE01.JPG,,,,,,,,,,,,,1,9,19,6,,,,,,,,,,,AMNE12.jpg,AMSA02.jpg,AMSA08.jpg,AMNE13.jpg,AMNE12.jpg,MN,1,num_8,16,num_8,1.01678779372,,,2018_Mar_06_1512,60.0114910794,FEMA4ImagesEEG,001,202686,
AFNE01.JPG,AFNE01.JPG,AFNE01.JPG,AFNE01.JPG,AFNE01.JPG,AFNE01.JPG,,,,,,,,,,,,,2,0,20,4,,,,,,,,,,,AMNE19.jpg,AMSA01.jpg,AMNE18.jpg,AMSA12.jpg,AMSA12.jpg,MS,2,num_4,16,num_4,0.666886693565,,,2018_Mar_06_1512,60.0114910794,FEMA4ImagesEEG,001,202686,
AFNE01.JPG,AFNE01.JPG,AFNE01.JPG,AFNE01.JPG,AFNE01.JPG,AFNE01.JPG,,,,,,,,,,,,,2,1,21,3,,,,,,,,,,,AMNE01.jpg,AMSA16.jpg,AMSA06.jpg,AMNE20.jpg,AMSA06.jpg,MS,2,num_2,16,num_2,2.23332823347,,,2018_Mar_06_1512,60.0114910794,FEMA4ImagesEEG,001,202686,
AFNE01.JPG,AFNE01.JPG,AFNE01.JPG,AFNE01.JPG,AFNE01.JPG,AFNE01.JPG,,,,,,,,,,,,,2,2,22,8,,,,,,,,,,,AMSA02.jpg,AMSA16.jpg,AMNE03.jpg,AMNE08.jpg,AMNE03.jpg,MN,1,num_2,16,num_2,1.2167530898,,,2018_Mar_06_1512,60.0114910794,FEMA4ImagesEEG,001,202686,
AFNE01.JPG,AFNE01.JPG,AFNE01.JPG,AFNE01.JPG,AFNE01.JPG,AFNE01.JPG,,,,,,,,,,,,,2,3,23,9,,,,,,,,,,,AMNE08.jpg,AMSA15.jpg,AMNE18.jpg,AMSA10.jpg,AMNE18.jpg,MN,1,num_2,32,num_8,0.866789124906,,,2018_Mar_06_1512,60.0114910794,FEMA4ImagesEEG,001,202686,
AFNE01.JPG,AFNE01.JPG,AFNE01.JPG,AFNE01.JPG,AFNE01.JPG,AFNE01.JPG,,,,,,,,,,,,,2,4,24,5,,,,,,,,,,,AMSA02.jpg,AMSA07.jpg,AMNE13.jpg,AMNE02.jpg,AMNE13.jpg,MN,1,num_2,32,num_8,1.2501234042,,,2018_Mar_06_1512,60.0114910794,FEMA4ImagesEEG,001,202686,
AFNE01.JPG,AFNE01.JPG,AFNE01.JPG,AFNE01.JPG,AFNE01.JPG,AFNE01.JPG,,,,,,,,,,,,,2,5,25,0,,,,,,,,,,,AMNE09.jpg,AMNE02.jpg,AMSA18.jpg,AMSA14.jpg,AMSA18.jpg,MS,2,num_2,32,num_4,0.833541332511,,,2018_Mar_06_1512,60.0114910794,FEMA4ImagesEEG,001,202686,
AFNE01.JPG,AFNE01.JPG,AFNE01.JPG,AFNE01.JPG,AFNE01.JPG,AFNE01.JPG,,,,,,,,,,,,,2,6,26,1,,,,,,,,,,,AMNE11.jpg,AMNE03.jpg,AMSA07.jpg,AMSA16.jpg,AMSA16.jpg,MS,2,num_4,32,num_8,0.866734599229,,,2018_Mar_06_1512,60.0114910794,FEMA4ImagesEEG,001,202686,
AFNE01.JPG,AFNE01.JPG,AFNE01.JPG,AFNE01.JPG,AFNE01.JPG,AFNE01.JPG,,,,,,,,,,,,,2,7,27,7,,,,,,,,,,,AMSA03.jpg,AMNE16.jpg,AMNE06.jpg,AMSA02.jpg,AMNE06.jpg,MN,1,num_2,16,num_2,0.766791081289,,,2018_Mar_06_1512,60.0114910794,FEMA4ImagesEEG,001,202686,
AFNE01.JPG,AFNE01.JPG,AFNE01.JPG,AFNE01.JPG,AFNE01.JPG,AFNE01.JPG,,,,,,,,,,,,,2,8,28,6,,,,,,,,,,,AMNE08.jpg,AMSA19.jpg,AMNE10.jpg,AMSA16.jpg,AMSA19.jpg,MS,2,num_6,16,num_6,0.566827709554,,,2018_Mar_06_1512,60.0114910794,FEMA4ImagesEEG,001,202686,
AFNE01.JPG,AFNE01.JPG,AFNE01.JPG,AFNE01.JPG,AFNE01.JPG,AFNE01.JPG,,,,,,,,,,,,,2,9,29,2,,,,,,,,,,,AMNE03.jpg,AMSA13.jpg,AMNE10.jpg,AMSA01.jpg,AMNE10.jpg,MN,1,num_2,16,num_2,1.68341821688,,,2018_Mar_06_1512,60.0114910794,FEMA4ImagesEEG,001,202686,
AFNE01.JPG,AFNE01.JPG,AFNE01.JPG,AFNE01.JPG,AFNE01.JPG,AFNE01.JPG,,,,,,,,,,,,,3,0,30,7,,,,,,,,,,,AMSA02.jpg,AMNE10.jpg,AMNE12.jpg,AMSA17.jpg,AMNE12.jpg,MN,1,num_2,32,num_6,1.53342917003,,,2018_Mar_06_1512,60.0114910794,FEMA4ImagesEEG,001,202686,
AFNE01.JPG,AFNE01.JPG,AFNE01.JPG,AFNE01.JPG,AFNE01.JPG,AFNE01.JPG,,,,,,,,,,,,,3,1,31,5,,,,,,,,,,,AMNE08.jpg,AMSA16.jpg,AMNE01.jpg,AMSA18.jpg,AMNE08.jpg,MN,1,num_8,16,num_8,0.950141141191,,,2018_Mar_06_1512,60.0114910794,FEMA4ImagesEEG,001,202686,
AFNE01.JPG,AFNE01.JPG,AFNE01.JPG,AFNE01.JPG,AFNE01.JPG,AFNE01.JPG,,,,,,,,,,,,,3,2,32,2,,,,,,,,,,,AMSA12.jpg,AMSA15.jpg,AMNE06.jpg,AMNE01.jpg,AMNE01.jpg,MN,1,num_4,32,num_8,1.46675878274,,,2018_Mar_06_1512,60.0114910794,FEMA4ImagesEEG,001,202686,
AFNE01.JPG,AFNE01.JPG,AFNE01.JPG,AFNE01.JPG,AFNE01.JPG,AFNE01.JPG,,,,,,,,,,,,,3,3,33,1,,,,,,,,,,,AMSA11.jpg,AMSA14.jpg,AMNE16.jpg,AMNE14.jpg,AMNE14.jpg,MN,1,num_4,32,num_6,0.566786334384,,,2018_Mar_06_1512,60.0114910794,FEMA4ImagesEEG,001,202686,
AFNE01.JPG,AFNE01.JPG,AFNE01.JPG,AFNE01.JPG,AFNE01.JPG,AFNE01.JPG,,,,,,,,,,,,,3,4,34,9,,,,,,,,,,,AMNE17.jpg,AMSA11.jpg,AMNE11.jpg,AMSA06.jpg,AMNE11.jpg,MN,1,num_2,32,num_6,0.98346975958,,,2018_Mar_06_1512,60.0114910794,FEMA4ImagesEEG,001,202686,
AFNE01.JPG,AFNE01.JPG,AFNE01.JPG,AFNE01.JPG,AFNE01.JPG,AFNE01.JPG,,,,,,,,,,,,,3,5,35,0,,,,,,,,,,,AMNE20.jpg,AMSA18.jpg,AMSA14.jpg,AMNE19.jpg,AMNE19.jpg,MN,1,num_4,16,num_4,1.11679962906,,,2018_Mar_06_1512,60.0114910794,FEMA4ImagesEEG,001,202686,
AFNE01.JPG,AFNE01.JPG,AFNE01.JPG,AFNE01.JPG,AFNE01.JPG,AFNE01.JPG,,,,,,,,,,,,,3,6,36,4,,,,,,,,,,,AMNE13.jpg,AMNE02.jpg,AMSA09.jpg,AMSA14.jpg,AMNE13.jpg,MN,1,num_8,16,num_8,0.766855549766,,,2018_Mar_06_1512,60.0114910794,FEMA4ImagesEEG,001,202686,
AFNE01.JPG,AFNE01.JPG,AFNE01.JPG,AFNE01.JPG,AFNE01.JPG,AFNE01.JPG,,,,,,,,,,,,,3,7,37,3,,,,,,,,,,,AMNE14.jpg,AMSA10.jpg,AMSA02.jpg,AMNE15.jpg,AMSA10.jpg,MS,2,num_6,32,num_2,1.10016418644,,,2018_Mar_06_1512,60.0114910794,FEMA4ImagesEEG,001,202686,
AFNE01.JPG,AFNE01.JPG,AFNE01.JPG,AFNE01.JPG,AFNE01.JPG,AFNE01.JPG,,,,,,,,,,,,,3,8,38,6,,,,,,,,,,,AMSA04.jpg,AMNE18.jpg,AMNE17.jpg,AMSA10.jpg,AMSA04.jpg,MS,2,num_8,16,num_8,0.566696527414,,,2018_Mar_06_1512,60.0114910794,FEMA4ImagesEEG,001,202686,
AFNE01.JPG,AFNE01.JPG,AFNE01.JPG,AFNE01.JPG,AFNE01.JPG,AFNE01.JPG,,,,,,,,,,,,,3,9,39,8,,,,,,,,,,,AMSA18.jpg,AMSA17.jpg,AMNE05.jpg,AMNE13.jpg,AMSA18.jpg,MS,2,num_8,32,num_2,1.61673981114,,,2018_Mar_06_1512,60.0114910794,FEMA4ImagesEEG,001,202686,
AFNE01.JPG,AFNE01.JPG,AFNE01.JPG,AFNE01.JPG,AFNE01.JPG,AFNE01.JPG,,,,,,,,,,,,,4,0,40,1,,,,,,,,,,,AMNE13.jpg,AMSA17.jpg,AMNE02.jpg,AMSA04.jpg,AMNE02.jpg,MN,1,num_2,32,num_8,1.31676107622,,,2018_Mar_06_1512,60.0114910794,FEMA4ImagesEEG,001,202686,
AFNE01.JPG,AFNE01.JPG,AFNE01.JPG,AFNE01.JPG,AFNE01.JPG,AFNE01.JPG,,,,,,,,,,,,,4,1,41,8,,,,,,,,,,,AMNE19.jpg,AMSA01.jpg,AMNE04.jpg,AMSA20.jpg,AMSA01.jpg,MS,2,num_6,16,num_6,1.03348898795,,,2018_Mar_06_1512,60.0114910794,FEMA4ImagesEEG,001,202686,
AFNE01.JPG,AFNE01.JPG,AFNE01.JPG,AFNE01.JPG,AFNE01.JPG,AFNE01.JPG,,,,,,,,,,,,,4,2,42,6,,,,,,,,,,,AMSA08.jpg,AMNE14.jpg,AMNE09.jpg,AMSA02.jpg,AMSA02.jpg,MS,2,num_4,16,num_4,1.03352138237,,,2018_Mar_06_1512,60.0114910794,FEMA4ImagesEEG,001,202686,
AFNE01.JPG,AFNE01.JPG,AFNE01.JPG,AFNE01.JPG,AFNE01.JPG,AFNE01.JPG,,,,,,,,,,,,,4,3,43,4,,,,,,,,,,,AMNE03.jpg,AMNE13.jpg,AMSA06.jpg,AMSA03.jpg,AMNE13.jpg,MN,1,num_6,32,num_2,1.26679669437,,,2018_Mar_06_1512,60.0114910794,FEMA4ImagesEEG,001,202686,
AFNE01.JPG,AFNE01.JPG,AFNE01.JPG,AFNE01.JPG,AFNE01.JPG,AFNE01.JPG,,,,,,,,,,,,,4,4,44,5,,,,,,,,,,,AMSA19.jpg,AMNE06.jpg,AMNE12.jpg,AMSA20.jpg,AMNE12.jpg,MN,1,num_2,32,num_8,3.69964439678,,,2018_Mar_06_1512,60.0114910794,FEMA4ImagesEEG,001,202686,
AFNE01.JPG,AFNE01.JPG,AFNE01.JPG,AFNE01.JPG,AFNE01.JPG,AFNE01.JPG,,,,,,,,,,,,,4,5,45,9,,,,,,,,,,,AMNE08.jpg,AMNE15.jpg,AMSA04.jpg,AMSA11.jpg,AMSA04.jpg,MS,2,num_2,32,num_4,0.850142776966,,,2018_Mar_06_1512,60.0114910794,FEMA4ImagesEEG,001,202686,
AFNE01.JPG,AFNE01.JPG,AFNE01.JPG,AFNE01.JPG,AFNE01.JPG,AFNE01.JPG,,,,,,,,,,,,,4,6,46,0,,,,,,,,,,,AMSA06.jpg,AMSA17.jpg,AMNE03.jpg,AMNE20.jpg,AMNE20.jpg,MN,1,num_4,16,num_4,0.733480424155,,,2018_Mar_06_1512,60.0114910794,FEMA4ImagesEEG,001,202686,
AFNE01.JPG,AFNE01.JPG,AFNE01.JPG,AFNE01.JPG,AFNE01.JPG,AFNE01.JPG,,,,,,,,,,,,,4,7,47,7,,,,,,,,,,,AMSA11.jpg,AMNE03.jpg,AMSA10.jpg,AMNE16.jpg,AMSA11.jpg,MS,2,num_8,16,num_8,1.00012444658,,,2018_Mar_06_1512,60.0114910794,FEMA4ImagesEEG,001,202686,
AFNE01.JPG,AFNE01.JPG,AFNE01.JPG,AFNE01.JPG,AFNE01.JPG,AFNE01.JPG,,,,,,,,,,,,,4,8,48,3,,,,,,,,,,,AMNE05.jpg,AMSA09.jpg,AMNE08.jpg,AMSA07.jpg,AMNE05.jpg,MN,1,num_8,32,num_2,0.85012417403,,,2018_Mar_06_1512,60.0114910794,FEMA4ImagesEEG,001,202686,
AFNE01.JPG,AFNE01.JPG,AFNE01.JPG,AFNE01.JPG,AFNE01.JPG,AFNE01.JPG,,,,,,,,,,,,,4,9,49,2,,,,,,,,,,,AMNE10.jpg,AMSA18.jpg,AMNE17.jpg,AMSA10.jpg,AMSA18.jpg,MS,2,num_6,16,num_6,0.766912320629,,,2018_Mar_06_1512,60.0114910794,FEMA4ImagesEEG,001,202686,
AFNE01.JPG,AFNE01.JPG,AFNE01.JPG,AFNE01.JPG,AFNE01.JPG,AFNE01.JPG,,,,,,,,,,,,,5,0,50,6,,,,,,,,,,,AMNE14.jpg,AMSA08.jpg,AMNE12.jpg,AMSA02.jpg,AMNE12.jpg,MN,1,num_2,32,num_8,2.28334265086,,,2018_Mar_06_1512,60.0114910794,FEMA4ImagesEEG,001,202686,
AFNE01.JPG,AFNE01.JPG,AFNE01.JPG,AFNE01.JPG,AFNE01.JPG,AFNE01.JPG,,,,,,,,,,,,,5,1,51,9,,,,,,,,,,,AMNE11.jpg,AMNE08.jpg,AMSA05.jpg,AMSA17.jpg,AMNE08.jpg,MN,1,num_6,16,num_6,0.916772430297,,,2018_Mar_06_1512,60.0114910794,FEMA4ImagesEEG,001,202686,
AFNE01.JPG,AFNE01.JPG,AFNE01.JPG,AFNE01.JPG,AFNE01.JPG,AFNE01.JPG,,,,,,,,,,,,,5,2,52,2,,,,,,,,,,,AMNE08.jpg,AMSA08.jpg,AMSA02.jpg,AMNE09.jpg,AMSA02.jpg,MS,2,num_2,16,num_2,1.00012348429,,,2018_Mar_06_1512,60.0114910794,FEMA4ImagesEEG,001,202686,
AFNE01.JPG,AFNE01.JPG,AFNE01.JPG,AFNE01.JPG,AFNE01.JPG,AFNE01.JPG,,,,,,,,,,,,,5,3,53,4,,,,,,,,,,,AMNE14.jpg,AMSA13.jpg,AMNE03.jpg,AMSA08.jpg,AMNE14.jpg,MN,1,num_8,16,num_8,2.15002689394,,,2018_Mar_06_1512,60.0114910794,FEMA4ImagesEEG,001,202686,
AFNE01.JPG,AFNE01.JPG,AFNE01.JPG,AFNE01.JPG,AFNE01.JPG,AFNE01.JPG,,,,,,,,,,,,,5,4,54,5,,,,,,,,,,,AMNE08.jpg,AMNE07.jpg,AMSA15.jpg,AMSA16.jpg,AMSA16.jpg,MS,2,num_4,32,num_8,0.900132497307,,,2018_Mar_06_1512,60.0114910794,FEMA4ImagesEEG,001,202686,
AFNE01.JPG,AFNE01.JPG,AFNE01.JPG,AFNE01.JPG,AFNE01.JPG,AFNE01.JPG,,,,,,,,,,,,,5,5,55,0,,,,,,,,,,,AMNE03.jpg,AMNE08.jpg,AMSA12.jpg,AMSA18.jpg,AMSA12.jpg,MS,2,num_2,16,num_2,0.78347303113,,,2018_Mar_06_1512,60.0114910794,FEMA4ImagesEEG,001,202686,
AFNE01.JPG,AFNE01.JPG,AFNE01.JPG,AFNE01.JPG,AFNE01.JPG,AFNE01.JPG,,,,,,,,,,,,,5,6,56,8,,,,,,,,,,,AMNE17.jpg,AMSA10.jpg,AMNE03.jpg,AMSA01.jpg,AMSA01.jpg,MS,2,num_4,16,num_4,0.500197735382,,,2018_Mar_06_1512,60.0114910794,FEMA4ImagesEEG,001,202686,
AFNE01.JPG,AFNE01.JPG,AFNE01.JPG,AFNE01.JPG,AFNE01.JPG,AFNE01.JPG,,,,,,,,,,,,,5,7,57,3,,,,,,,,,,,AMNE03.jpg,AMNE18.jpg,AMSA08.jpg,AMSA05.jpg,AMNE18.jpg,MN,1,num_6,32,num_8,0.950200798456,,,2018_Mar_06_1512,60.0114910794,FEMA4ImagesEEG,001,202686,
AFNE01.JPG,AFNE01.JPG,AFNE01.JPG,AFNE01.JPG,AFNE01.JPG,AFNE01.JPG,,,,,,,,,,,,,5,8,58,1,,,,,,,,,,,AMNE09.jpg,AMSA19.jpg,AMNE06.jpg,AMSA03.jpg,AMNE06.jpg,MN,1,num_2,16,num_2,0.800100134686,,,2018_Mar_06_1512,60.0114910794,FEMA4ImagesEEG,001,202686,
AFNE01.JPG,AFNE01.JPG,AFNE01.JPG,AFNE01.JPG,AFNE01.JPG,AFNE01.JPG,,,,,,,,,,,,,5,9,59,7,,,,,,,,,,,AMNE01.jpg,AMSA01.jpg,AMSA17.jpg,AMNE09.jpg,AMSA17.jpg,MS,2,num_2,16,num_2,0.950135688763,,,2018_Mar_06_1512,60.0114910794,FEMA4ImagesEEG,001,202686,
,,,,,,,,,,,,,,,,,,,,,,,,,,,,,,,,,,,,,,,,,,,space,28.164611853,2018_Mar_06_1512,60.0114910794,FEMA4ImagesEEG,001,202686,
AFNE01.JPG,AFNE01.JPG,AFNE01.JPG,AFNE01.JPG,AFNE01.JPG,AFNE01.JPG,,,,,,,,,,,,,,,,,0,0,0,9,,,,,,,AFNE06.jpg,AFSA07.jpg,AFSA16.jpg,AFNE09.jpg,AFSA07.jpg,FS,4,num_6,32,num_8,0.833494825289,,,2018_Mar_06_1512,60.0114910794,FEMA4ImagesEEG,001,202686,
AFNE01.JPG,AFNE01.JPG,AFNE01.JPG,AFNE01.JPG,AFNE01.JPG,AFNE01.JPG,,,,,,,,,,,,,,,,,0,1,1,0,,,,,,,AFNE13.jpg,AFSA15.jpg,AFSA14.jpg,AFNE10.jpg,AFNE13.jpg,FN,3,num_8,16,num_8,0.500114343595,,,2018_Mar_06_1512,60.0114910794,FEMA4ImagesEEG,001,202686,
AFNE01.JPG,AFNE01.JPG,AFNE01.JPG,AFNE01.JPG,AFNE01.JPG,AFNE01.JPG,,,,,,,,,,,,,,,,,0,2,2,7,,,,,,,AFNE05.jpg,AFSA06.jpg,AFSA13.jpg,AFNE19.jpg,AFSA06.jpg,FS,4,num_6,16,num_6,0.766830211272,,,2018_Mar_06_1512,60.0114910794,FEMA4ImagesEEG,001,202686,
AFNE01.JPG,AFNE01.JPG,AFNE01.JPG,AFNE01.JPG,AFNE01.JPG,AFNE01.JPG,,,,,,,,,,,,,,,,,0,3,3,3,,,,,,,AFSA08.jpg,AFSA01.jpg,AFNE12.jpg,AFNE04.jpg,AFNE12.jpg,FN,3,num_2,16,num_2,0.883496733848,,,2018_Mar_06_1512,60.0114910794,FEMA4ImagesEEG,001,202686,
AFNE01.JPG,AFNE01.JPG,AFNE01.JPG,AFNE01.JPG,AFNE01.JPG,AFNE01.JPG,,,,,,,,,,,,,,,,,0,4,4,4,,,,,,,AFNE14.jpg,AFSA08.jpg,AFSA06.jpg,AFNE16.jpg,AFNE16.jpg,FN,3,num_4,32,num_8,0.950113557745,,,2018_Mar_06_1512,60.0114910794,FEMA4ImagesEEG,001,202686,
AFNE01.JPG,AFNE01.JPG,AFNE01.JPG,AFNE01.JPG,AFNE01.JPG,AFNE01.JPG,,,,,,,,,,,,,,,,,0,5,5,2,,,,,,,AFSA04.jpg,AFNE09.jpg,AFSA10.jpg,AFNE08.jpg,AFSA10.jpg,FS,4,num_2,16,num_2,1.18329713796,,,2018_Mar_06_1512,60.0114910794,FEMA4ImagesEEG,001,202686,
AFNE01.JPG,AFNE01.JPG,AFNE01.JPG,AFNE01.JPG,AFNE01.JPG,AFNE01.JPG,,,,,,,,,,,,,,,,,0,6,6,8,,,,,,,AFSA15.jpg,AFSA01.jpg,AFNE08.jpg,AFNE07.jpg,AFSA15.jpg,FS,4,num_8,16,num_8,0.716774098109,,,2018_Mar_06_1512,60.0114910794,FEMA4ImagesEEG,001,202686,
AFNE01.JPG,AFNE01.JPG,AFNE01.JPG,AFNE01.JPG,AFNE01.JPG,AFNE01.JPG,,,,,,,,,,,,,,,,,0,7,7,1,,,,,,,AFNE15.jpg,AFSA01.jpg,AFSA15.jpg,AFNE08.jpg,AFSA15.jpg,FS,4,num_2,16,num_2,0.800145358779,,,2018_Mar_06_1512,60.0114910794,FEMA4ImagesEEG,001,202686,
AFNE01.JPG,AFNE01.JPG,AFNE01.JPG,AFNE01.JPG,AFNE01.JPG,AFNE01.JPG,,,,,,,,,,,,,,,,,0,8,8,5,,,,,,,AFNE02.jpg,AFSA18.jpg,AFNE15.jpg,AFSA05.jpg,AFSA18.jpg,FS,4,num_6,16,num_6,1.65004886454,,,2018_Mar_06_1512,60.0114910794,FEMA4ImagesEEG,001,202686,
AFNE01.JPG,AFNE01.JPG,AFNE01.JPG,AFNE01.JPG,AFNE01.JPG,AFNE01.JPG,,,,,,,,,,,,,,,,,0,9,9,6,,,,,,,AFSA19.jpg,AFNE12.jpg,AFSA16.jpg,AFNE04.jpg,AFSA19.jpg,FS,4,num_8,32,num_4,1.73344129417,,,2018_Mar_06_1512,60.0114910794,FEMA4ImagesEEG,001,202686,
AFNE01.JPG,AFNE01.JPG,AFNE01.JPG,AFNE01.JPG,AFNE01.JPG,AFNE01.JPG,,,,,,,,,,,,,,,,,1,0,10,6,,,,,,,AFSA16.jpg,AFSA17.jpg,AFNE20.jpg,AFNE19.jpg,AFNE20.jpg,FN,3,num_2,32,num_8,0.666798490332,,,2018_Mar_06_1512,60.0114910794,FEMA4ImagesEEG,001,202686,
AFNE01.JPG,AFNE01.JPG,AFNE01.JPG,AFNE01.JPG,AFNE01.JPG,AFNE01.JPG,,,,,,,,,,,,,,,,,1,1,11,3,,,,,,,AFSA04.jpg,AFNE18.jpg,AFSA20.jpg,AFNE10.jpg,AFNE18.jpg,FN,3,num_6,32,num_8,2.44998125266,,,2018_Mar_06_1512,60.0114910794,FEMA4ImagesEEG,001,202686,
AFNE01.JPG,AFNE01.JPG,AFNE01.JPG,AFNE01.JPG,AFNE01.JPG,AFNE01.JPG,,,,,,,,,,,,,,,,,1,2,12,5,,,,,,,AFNE15.jpg,AFSA11.jpg,AFSA15.jpg,AFNE08.jpg,AFSA11.jpg,FS,4,num_6,16,num_6,0.650143482722,,,2018_Mar_06_1512,60.0114910794,FEMA4ImagesEEG,001,202686,
AFNE01.JPG,AFNE01.JPG,AFNE01.JPG,AFNE01.JPG,AFNE01.JPG,AFNE01.JPG,,,,,,,,,,,,,,,,,1,3,13,9,,,,,,,AFNE19.jpg,AFSA02.jpg,AFSA06.jpg,AFNE04.jpg,AFSA06.jpg,FS,4,num_2,16,num_2,1.46677449904,,,2018_Mar_06_1512,60.0114910794,FEMA4ImagesEEG,001,202686,
AFNE01.JPG,AFNE01.JPG,AFNE01.JPG,AFNE01.JPG,AFNE01.JPG,AFNE01.JPG,,,,,,,,,,,,,,,,,1,4,14,2,,,,,,,AFSA10.jpg,AFNE13.jpg,AFNE18.jpg,AFSA20.jpg,AFNE18.jpg,FN,3,num_2,32,num_8,0.800133812241,,,2018_Mar_06_1512,60.0114910794,FEMA4ImagesEEG,001,202686,
AFNE01.JPG,AFNE01.JPG,AFNE01.JPG,AFNE01.JPG,AFNE01.JPG,AFNE01.JPG,,,,,,,,,,,,,,,,,1,5,15,8,,,,,,,AFSA17.jpg,AFSA10.jpg,AFNE10.jpg,AFNE13.jpg,AFNE10.jpg,FN,3,num_2,16,num_2,0.816799725173,,,2018_Mar_06_1512,60.0114910794,FEMA4ImagesEEG,001,202686,
AFNE01.JPG,AFNE01.JPG,AFNE01.JPG,AFNE01.JPG,AFNE01.JPG,AFNE01.JPG,,,,,,,,,,,,,,,,,1,6,16,7,,,,,,,AFNE14.jpg,AFSA01.jpg,AFSA04.jpg,AFNE02.jpg,AFSA01.jpg,FS,4,num_6,32,num_2,1.01675732364,,,2018_Mar_06_1512,60.0114910794,FEMA4ImagesEEG,001,202686,
AFNE01.JPG,AFNE01.JPG,AFNE01.JPG,AFNE01.JPG,AFNE01.JPG,AFNE01.JPG,,,,,,,,,,,,,,,,,1,7,17,0,,,,,,,AFNE09.jpg,AFSA17.jpg,AFNE13.jpg,AFSA12.jpg,AFSA12.jpg,FS,4,num_4,16,num_4,0.633475324372,,,2018_Mar_06_1512,60.0114910794,FEMA4ImagesEEG,001,202686,
AFNE01.JPG,AFNE01.JPG,AFNE01.JPG,AFNE01.JPG,AFNE01.JPG,AFNE01.JPG,,,,,,,,,,,,,,,,,1,8,18,4,,,,,,,AFNE01.jpg,AFSA07.jpg,AFSA10.jpg,AFNE02.jpg,AFSA10.jpg,FS,4,num_2,32,num_8,1.1667835759,,,2018_Mar_06_1512,60.0114910794,FEMA4ImagesEEG,001,202686,
AFNE01.JPG,AFNE01.JPG,AFNE01.JPG,AFNE01.JPG,AFNE01.JPG,AFNE01.JPG,,,,,,,,,,,,,,,,,1,9,19,1,,,,,,,AFSA12.jpg,AFSA15.jpg,AFNE03.jpg,AFNE15.jpg,AFNE15.jpg,FN,3,num_4,16,num_4,0.816729804035,,,2018_Mar_06_1512,60.0114910794,FEMA4ImagesEEG,001,202686,
AFNE01.JPG,AFNE01.JPG,AFNE01.JPG,AFNE01.JPG,AFNE01.JPG,AFNE01.JPG,,,,,,,,,,,,,,,,,2,0,20,6,,,,,,,AFNE08.jpg,AFSA13.jpg,AFSA16.jpg,AFNE16.jpg,AFNE08.jpg,FN,3,num_8,16,num_8,1.06681953068,,,2018_Mar_06_1512,60.0114910794,FEMA4ImagesEEG,001,202686,
AFNE01.JPG,AFNE01.JPG,AFNE01.JPG,AFNE01.JPG,AFNE01.JPG,AFNE01.JPG,,,,,,,,,,,,,,,,,2,1,21,7,,,,,,,AFSA14.jpg,AFNE13.jpg,AFSA06.jpg,AFNE11.jpg,AFSA06.jpg,FS,4,num_2,16,num_2,0.983444421319,,,2018_Mar_06_1512,60.0114910794,FEMA4ImagesEEG,001,202686,
AFNE01.JPG,AFNE01.JPG,AFNE01.JPG,AFNE01.JPG,AFNE01.JPG,AFNE01.JPG,,,,,,,,,,,,,,,,,2,2,22,0,,,,,,,AFNE12.jpg,AFNE11.jpg,AFSA14.jpg,AFSA09.jpg,AFSA14.jpg,FS,4,num_2,32,num_6,0.88346850872,,,2018_Mar_06_1512,60.0114910794,FEMA4ImagesEEG,001,202686,
AFNE01.JPG,AFNE01.JPG,AFNE01.JPG,AFNE01.JPG,AFNE01.JPG,AFNE01.JPG,,,,,,,,,,,,,,,,,2,3,23,4,,,,,,,AFNE05.jpg,AFNE08.jpg,AFSA05.jpg,AFSA03.jpg,AFNE08.jpg,FN,3,num_6,32,num_8,0.750161091099,,,2018_Mar_06_1512,60.0114910794,FEMA4ImagesEEG,001,202686,
AFNE01.JPG,AFNE01.JPG,AFNE01.JPG,AFNE01.JPG,AFNE01.JPG,AFNE01.JPG,,,,,,,,,,,,,,,,,2,4,24,5,,,,,,,AFSA15.jpg,AFNE04.jpg,AFNE09.jpg,AFSA03.jpg,AFNE09.jpg,FN,3,num_2,16,num_2,1.11673676432,,,2018_Mar_06_1512,60.0114910794,FEMA4ImagesEEG,001,202686,
AFNE01.JPG,AFNE01.JPG,AFNE01.JPG,AFNE01.JPG,AFNE01.JPG,AFNE01.JPG,,,,,,,,,,,,,,,,,2,5,25,1,,,,,,,AFSA19.jpg,AFNE16.jpg,AFSA15.jpg,AFNE13.jpg,AFSA19.jpg,FS,4,num_8,32,num_2,0.916766656796,,,2018_Mar_06_1512,60.0114910794,FEMA4ImagesEEG,001,202686,
AFNE01.JPG,AFNE01.JPG,AFNE01.JPG,AFNE01.JPG,AFNE01.JPG,AFNE01.JPG,,,,,,,,,,,,,,,,,2,6,26,9,,,,,,,AFSA19.jpg,AFNE12.jpg,AFSA20.jpg,AFNE06.jpg,AFSA20.jpg,FS,4,num_2,16,num_2,0.883444132516,,,2018_Mar_06_1512,60.0114910794,FEMA4ImagesEEG,001,202686,
AFNE01.JPG,AFNE01.JPG,AFNE01.JPG,AFNE01.JPG,AFNE01.JPG,AFNE01.JPG,,,,,,,,,,,,,,,,,2,7,27,8,,,,,,,AFSA13.jpg,AFSA05.jpg,AFNE05.jpg,AFNE08.jpg,AFNE08.jpg,FN,3,num_4,16,num_4,1.86653221305,,,2018_Mar_06_1512,60.0114910794,FEMA4ImagesEEG,001,202686,
AFNE01.JPG,AFNE01.JPG,AFNE01.JPG,AFNE01.JPG,AFNE01.JPG,AFNE01.JPG,,,,,,,,,,,,,,,,,2,8,28,2,,,,,,,AFSA01.jpg,AFNE10.jpg,AFSA05.jpg,AFNE03.jpg,AFNE03.jpg,FN,3,num_4,16,num_4,1.20011347742,,,2018_Mar_06_1512,60.0114910794,FEMA4ImagesEEG,001,202686,
AFNE01.JPG,AFNE01.JPG,AFNE01.JPG,AFNE01.JPG,AFNE01.JPG,AFNE01.JPG,,,,,,,,,,,,,,,,,2,9,29,3,,,,,,,AFSA04.jpg,AFSA07.jpg,AFNE03.jpg,AFNE11.jpg,AFSA07.jpg,FS,4,num_6,32,num_8,0.833456978202,,,2018_Mar_06_1512,60.0114910794,FEMA4ImagesEEG,001,202686,
AFNE01.JPG,AFNE01.JPG,AFNE01.JPG,AFNE01.JPG,AFNE01.JPG,AFNE01.JPG,,,,,,,,,,,,,,,,,3,0,30,8,,,,,,,AFNE09.jpg,AFSA05.jpg,AFNE19.jpg,AFSA10.jpg,AFSA10.jpg,FS,4,num_4,32,num_8,0.816777594155,,,2018_Mar_06_1512,60.0114910794,FEMA4ImagesEEG,001,202686,
AFNE01.JPG,AFNE01.JPG,AFNE01.JPG,AFNE01.JPG,AFNE01.JPG,AFNE01.JPG,,,,,,,,,,,,,,,,,3,1,31,3,,,,,,,AFNE06.jpg,AFNE02.jpg,AFSA18.jpg,AFSA19.jpg,AFSA18.jpg,FS,4,num_2,32,num_4,0.833437412977,,,2018_Mar_06_1512,60.0114910794,FEMA4ImagesEEG,001,202686,
AFNE01.JPG,AFNE01.JPG,AFNE01.JPG,AFNE01.JPG,AFNE01.JPG,AFNE01.JPG,,,,,,,,,,,,,,,,,3,2,32,0,,,,,,,AFSA02.jpg,AFSA13.jpg,AFNE15.jpg,AFNE10.jpg,AFNE10.jpg,FN,3,num_4,16,num_4,0.400166655891,,,2018_Mar_06_1512,60.0114910794,FEMA4ImagesEEG,001,202686,
AFNE01.JPG,AFNE01.JPG,AFNE01.JPG,AFNE01.JPG,AFNE01.JPG,AFNE01.JPG,,,,,,,,,,,,,,,,,3,3,33,5,,,,,,,AFNE03.jpg,AFSA08.jpg,AFSA15.jpg,AFNE20.jpg,AFNE20.jpg,FN,3,num_4,32,num_2,1.08358166553,,,2018_Mar_06_1512,60.0114910794,FEMA4ImagesEEG,001,202686,
AFNE01.JPG,AFNE01.JPG,AFNE01.JPG,AFNE01.JPG,AFNE01.JPG,AFNE01.JPG,,,,,,,,,,,,,,,,,3,4,34,6,,,,,,,AFSA10.jpg,AFSA05.jpg,AFNE10.jpg,AFNE18.jpg,AFSA05.jpg,FS,4,num_6,32,num_2,1.25019941921,,,2018_Mar_06_1512,60.0114910794,FEMA4ImagesEEG,001,202686,
AFNE01.JPG,AFNE01.JPG,AFNE01.JPG,AFNE01.JPG,AFNE01.JPG,AFNE01.JPG,,,,,,,,,,,,,,,,,3,5,35,7,,,,,,,AFSA13.jpg,AFNE12.jpg,AFSA20.jpg,AFNE20.jpg,AFNE12.jpg,FN,3,num_6,16,num_6,0.683511872776,,,2018_Mar_06_1512,60.0114910794,FEMA4ImagesEEG,001,202686,
AFNE01.JPG,AFNE01.JPG,AFNE01.JPG,AFNE01.JPG,AFNE01.JPG,AFNE01.JPG,,,,,,,,,,,,,,,,,3,6,36,4,,,,,,,AFNE05.jpg,AFSA08.jpg,AFNE18.jpg,AFSA16.jpg,AFSA16.jpg,FS,4,num_4,32,num_2,1.36686241347,,,2018_Mar_06_1512,60.0114910794,FEMA4ImagesEEG,001,202686,
AFNE01.JPG,AFNE01.JPG,AFNE01.JPG,AFNE01.JPG,AFNE01.JPG,AFNE01.JPG,,,,,,,,,,,,,,,,,3,7,37,1,,,,,,,AFSA02.jpg,AFNE20.jpg,AFSA09.jpg,AFNE18.jpg,AFNE18.jpg,FN,3,num_4,16,num_4,0.833453129278,,,2018_Mar_06_1512,60.0114910794,FEMA4ImagesEEG,001,202686,
AFNE01.JPG,AFNE01.JPG,AFNE01.JPG,AFNE01.JPG,AFNE01.JPG,AFNE01.JPG,,,,,,,,,,,,,,,,,3,8,38,9,,,,,,,AFSA09.jpg,AFSA08.jpg,AFNE16.jpg,AFNE01.jpg,AFNE01.jpg,FN,3,num_4,32,num_8,0.566784089198,,,2018_Mar_06_1512,60.0114910794,FEMA4ImagesEEG,001,202686,
AFNE01.JPG,AFNE01.JPG,AFNE01.JPG,AFNE01.JPG,AFNE01.JPG,AFNE01.JPG,,,,,,,,,,,,,,,,,3,9,39,2,,,,,,,AFNE20.jpg,AFSA10.jpg,AFNE01.jpg,AFSA15.jpg,AFSA10.jpg,FS,4,num_6,16,num_6,0.483497182839,,,2018_Mar_06_1512,60.0114910794,FEMA4ImagesEEG,001,202686,
AFNE01.JPG,AFNE01.JPG,AFNE01.JPG,AFNE01.JPG,AFNE01.JPG,AFNE01.JPG,,,,,,,,,,,,,,,,,4,0,40,0,,,,,,,AFSA20.jpg,AFSA17.jpg,AFNE05.jpg,AFNE15.jpg,AFNE15.jpg,FN,3,num_4,16,num_4,1.13345624064,,,2018_Mar_06_1512,60.0114910794,FEMA4ImagesEEG,001,202686,
AFNE01.JPG,AFNE01.JPG,AFNE01.JPG,AFNE01.JPG,AFNE01.JPG,AFNE01.JPG,,,,,,,,,,,,,,,,,4,1,41,8,,,,,,,AFSA11.jpg,AFNE14.jpg,AFSA18.jpg,AFNE07.jpg,AFNE07.jpg,FN,3,num_4,16,num_4,0.650105956011,,,2018_Mar_06_1512,60.0114910794,FEMA4ImagesEEG,001,202686,
AFNE01.JPG,AFNE01.JPG,AFNE01.JPG,AFNE01.JPG,AFNE01.JPG,AFNE01.JPG,,,,,,,,,,,,,,,,,4,2,42,1,,,,,,,AFNE18.jpg,AFSA09.jpg,AFNE14.jpg,AFSA08.jpg,AFNE18.jpg,FN,3,num_8,32,num_6,0.716735288734,,,2018_Mar_06_1512,60.0114910794,FEMA4ImagesEEG,001,202686,
AFNE01.JPG,AFNE01.JPG,AFNE01.JPG,AFNE01.JPG,AFNE01.JPG,AFNE01.JPG,,,,,,,,,,,,,,,,,4,3,43,2,,,,,,,AFNE02.jpg,AFSA19.jpg,AFNE07.jpg,AFSA15.jpg,AFSA15.jpg,FS,4,num_4,16,num_4,0.583482076181,,,2018_Mar_06_1512,60.0114910794,FEMA4ImagesEEG,001,202686,
AFNE01.JPG,AFNE01.JPG,AFNE01.JPG,AFNE01.JPG,AFNE01.JPG,AFNE01.JPG,,,,,,,,,,,,,,,,,4,4,44,4,,,,,,,AFSA01.jpg,AFNE18.jpg,AFSA04.jpg,AFNE02.jpg,AFSA04.jpg,FS,4,num_2,32,num_8,1.11646606051,,,2018_Mar_06_1512,60.0114910794,FEMA4ImagesEEG,001,202686,
AFNE01.JPG,AFNE01.JPG,AFNE01.JPG,AFNE01.JPG,AFNE01.JPG,AFNE01.JPG,,,,,,,,,,,,,,,,,4,5,45,9,,,,,,,AFSA18.jpg,AFSA19.jpg,AFNE02.jpg,AFNE05.jpg,AFSA18.jpg,FS,4,num_8,32,num_4,0.583500358043,,,2018_Mar_06_1512,60.0114910794,FEMA4ImagesEEG,001,202686,
AFNE01.JPG,AFNE01.JPG,AFNE01.JPG,AFNE01.JPG,AFNE01.JPG,AFNE01.JPG,,,,,,,,,,,,,,,,,4,6,46,6,,,,,,,AFSA15.jpg,AFNE18.jpg,AFSA03.jpg,AFNE20.jpg,AFSA15.jpg,FS,4,num_8,16,num_8,0.950118689565,,,2018_Mar_06_1512,60.0114910794,FEMA4ImagesEEG,001,202686,
AFNE01.JPG,AFNE01.JPG,AFNE01.JPG,AFNE01.JPG,AFNE01.JPG,AFNE01.JPG,,,,,,,,,,,,,,,,,4,7,47,5,,,,,,,AFSA16.jpg,AFSA19.jpg,AFNE13.jpg,AFNE16.jpg,AFSA19.jpg,FS,4,num_6,16,num_6,1.00022451719,,,2018_Mar_06_1512,60.0114910794,FEMA4ImagesEEG,001,202686,
AFNE01.JPG,AFNE01.JPG,AFNE01.JPG,AFNE01.JPG,AFNE01.JPG,AFNE01.JPG,,,,,,,,,,,,,,,,,4,8,48,7,,,,,,,AFSA17.jpg,AFNE12.jpg,AFNE15.jpg,AFSA04.jpg,AFSA17.jpg,FS,4,num_8,16,num_8,0.700146353105,,,2018_Mar_06_1512,60.0114910794,FEMA4ImagesEEG,001,202686,
AFNE01.JPG,AFNE01.JPG,AFNE01.JPG,AFNE01.JPG,AFNE01.JPG,AFNE01.JPG,,,,,,,,,,,,,,,,,4,9,49,3,,,,,,,AFNE07.jpg,AFSA03.jpg,AFSA04.jpg,AFNE16.jpg,AFNE07.jpg,FN,3,num_8,32,num_4,0.83347237343,,,2018_Mar_06_1512,60.0114910794,FEMA4ImagesEEG,001,202686,
AFNE01.JPG,AFNE01.JPG,AFNE01.JPG,AFNE01.JPG,AFNE01.JPG,AFNE01.JPG,,,,,,,,,,,,,,,,,5,0,50,2,,,,,,,AFNE17.jpg,AFNE08.jpg,AFSA13.jpg,AFSA10.jpg,AFNE17.jpg,FN,3,num_8,16,num_8,1.45005341899,,,2018_Mar_06_1512,60.0114910794,FEMA4ImagesEEG,001,202686,
AFNE01.JPG,AFNE01.JPG,AFNE01.JPG,AFNE01.JPG,AFNE01.JPG,AFNE01.JPG,,,,,,,,,,,,,,,,,5,1,51,5,,,,,,,AFNE06.jpg,AFNE11.jpg,AFSA14.jpg,AFSA01.jpg,AFNE06.jpg,FN,3,num_8,16,num_8,1.28351296321,,,2018_Mar_06_1512,60.0114910794,FEMA4ImagesEEG,001,202686,
AFNE01.JPG,AFNE01.JPG,AFNE01.JPG,AFNE01.JPG,AFNE01.JPG,AFNE01.JPG,,,,,,,,,,,,,,,,,5,2,52,8,,,,,,,AFSA18.jpg,AFSA16.jpg,AFNE16.jpg,AFNE15.jpg,AFNE16.jpg,FN,3,num_2,16,num_2,0.900159439305,,,2018_Mar_06_1512,60.0114910794,FEMA4ImagesEEG,001,202686,
AFNE01.JPG,AFNE01.JPG,AFNE01.JPG,AFNE01.JPG,AFNE01.JPG,AFNE01.JPG,,,,,,,,,,,,,,,,,5,3,53,6,,,,,,,AFNE02.jpg,AFSA13.jpg,AFSA19.jpg,AFNE09.jpg,AFNE09.jpg,FN,3,num_4,16,num_4,1.20010064798,,,2018_Mar_06_1512,60.0114910794,FEMA4ImagesEEG,001,202686,
AFNE01.JPG,AFNE01.JPG,AFNE01.JPG,AFNE01.JPG,AFNE01.JPG,AFNE01.JPG,,,,,,,,,,,,,,,,,5,4,54,1,,,,,,,AFSA12.jpg,AFNE14.jpg,AFNE12.jpg,AFSA04.jpg,AFSA12.jpg,FS,4,num_8,16,num_8,0.566665415652,,,2018_Mar_06_1512,60.0114910794,FEMA4ImagesEEG,001,202686,
AFNE01.JPG,AFNE01.JPG,AFNE01.JPG,AFNE01.JPG,AFNE01.JPG,AFNE01.JPG,,,,,,,,,,,,,,,,,5,5,55,7,,,,,,,AFSA19.jpg,AFNE19.jpg,AFNE13.jpg,AFSA18.jpg,AFNE13.jpg,FN,3,num_2,16,num_2,0.916768260766,,,2018_Mar_06_1512,60.0114910794,FEMA4ImagesEEG,001,202686,
AFNE01.JPG,AFNE01.JPG,AFNE01.JPG,AFNE01.JPG,AFNE01.JPG,AFNE01.JPG,,,,,,,,,,,,,,,,,5,6,56,3,,,,,,,AFSA02.jpg,AFNE06.jpg,AFSA11.jpg,AFNE19.jpg,AFNE19.jpg,FN,3,num_4,16,num_4,0.733513460262,,,2018_Mar_06_1512,60.0114910794,FEMA4ImagesEEG,001,202686,
AFNE01.JPG,AFNE01.JPG,AFNE01.JPG,AFNE01.JPG,AFNE01.JPG,AFNE01.JPG,,,,,,,,,,,,,,,,,5,7,57,0,,,,,,,AFSA08.jpg,AFNE07.jpg,AFSA20.jpg,AFNE14.jpg,AFNE07.jpg,FN,3,num_6,16,num_6,0.766761573264,,,2018_Mar_06_1512,60.0114910794,FEMA4ImagesEEG,001,202686,
AFNE01.JPG,AFNE01.JPG,AFNE01.JPG,AFNE01.JPG,AFNE01.JPG,AFNE01.JPG,,,,,,,,,,,,,,,,,5,8,58,4,,,,,,,AFSA14.jpg,AFNE17.jpg,AFSA13.jpg,AFNE13.jpg,AFNE17.jpg,FN,3,num_6,32,num_8,1.10011062282,,,2018_Mar_06_1512,60.0114910794,FEMA4ImagesEEG,001,202686,
AFNE01.JPG,AFNE01.JPG,AFNE01.JPG,AFNE01.JPG,AFNE01.JPG,AFNE01.JPG,,,,,,,,,,,,,,,,,5,9,59,9,,,,,,,AFSA10.jpg,AFNE15.jpg,AFNE04.jpg,AFSA11.jpg,AFNE15.jpg,FN,3,num_6,16,num_6,0.750143771293,,,2018_Mar_06_1512,60.0114910794,FEMA4ImagesEEG,001,202686,
,,,,,,,,,,,,,,,,,,,,,,,,,,,,,,,,,,,,,,,,,,,space,21.8651203206,2018_Mar_06_1512,60.0114910794,FEMA4ImagesEEG,001,202686,
AFNE01.JPG,AFNE01.JPG,AFNE01.JPG,AFNE01.JPG,AFNE01.JPG,AFNE01.JPG,,,,,,,,,,,,,,,,,,,,,0,0,0,8,,,AMNE12.jpg,AMSA18.jpg,AMSA09.jpg,AMNE05.jpg,AMSA18.jpg,MS,2,num_6,32,num_2,1.66674813442,,,2018_Mar_06_1512,60.0114910794,FEMA4ImagesEEG,001,202686,
AFNE01.JPG,AFNE01.JPG,AFNE01.JPG,AFNE01.JPG,AFNE01.JPG,AFNE01.JPG,,,,,,,,,,,,,,,,,,,,,0,1,1,5,,,AMSA15.jpg,AMNE03.jpg,AMNE13.jpg,AMSA01.jpg,AMNE13.jpg,MN,1,num_2,16,num_2,0.766777931014,,,2018_Mar_06_1512,60.0114910794,FEMA4ImagesEEG,001,202686,
AFNE01.JPG,AFNE01.JPG,AFNE01.JPG,AFNE01.JPG,AFNE01.JPG,AFNE01.JPG,,,,,,,,,,,,,,,,,,,,,0,2,2,0,,,AMSA10.jpg,AMNE12.jpg,AMSA11.jpg,AMNE16.jpg,AMSA11.jpg,MS,2,num_2,32,num_8,0.733510573627,,,2018_Mar_06_1512,60.0114910794,FEMA4ImagesEEG,001,202686,
AFNE01.JPG,AFNE01.JPG,AFNE01.JPG,AFNE01.JPG,AFNE01.JPG,AFNE01.JPG,,,,,,,,,,,,,,,,,,,,,0,3,3,2,,,AMSA11.jpg,AMNE02.jpg,AMSA10.jpg,AMNE07.jpg,AMNE02.jpg,MN,1,num_6,16,num_6,0.716798794921,,,2018_Mar_06_1512,60.0114910794,FEMA4ImagesEEG,001,202686,
AFNE01.JPG,AFNE01.JPG,AFNE01.JPG,AFNE01.JPG,AFNE01.JPG,AFNE01.JPG,,,,,,,,,,,,,,,,,,,,,0,4,4,7,,,AMSA17.jpg,AMNE02.jpg,AMSA15.jpg,AMNE19.jpg,AMSA17.jpg,MS,2,num_8,16,num_8,0.933480039472,,,2018_Mar_06_1512,60.0114910794,FEMA4ImagesEEG,001,202686,
AFNE01.JPG,AFNE01.JPG,AFNE01.JPG,AFNE01.JPG,AFNE01.JPG,AFNE01.JPG,,,,,,,,,,,,,,,,,,,,,0,5,5,4,,,AMNE06.jpg,AMNE12.jpg,AMSA14.jpg,AMSA17.jpg,AMSA17.jpg,MS,2,num_4,16,num_4,0.750073529314,,,2018_Mar_06_1512,60.0114910794,FEMA4ImagesEEG,001,202686,
AFNE01.JPG,AFNE01.JPG,AFNE01.JPG,AFNE01.JPG,AFNE01.JPG,AFNE01.JPG,,,,,,,,,,,,,,,,,,,,,0,6,6,9,,,AMNE05.jpg,AMNE07.jpg,AMSA08.jpg,AMSA03.jpg,AMNE07.jpg,MN,1,num_6,16,num_6,0.900171306683,,,2018_Mar_06_1512,60.0114910794,FEMA4ImagesEEG,001,202686,
AFNE01.JPG,AFNE01.JPG,AFNE01.JPG,AFNE01.JPG,AFNE01.JPG,AFNE01.JPG,,,,,,,,,,,,,,,,,,,,,0,7,7,6,,,AMSA14.jpg,AMNE15.jpg,AMSA08.jpg,AMNE12.jpg,AMNE15.jpg,MN,1,num_6,32,num_2,0.700104336254,,,2018_Mar_06_1512,60.0114910794,FEMA4ImagesEEG,001,202686,
AFNE01.JPG,AFNE01.JPG,AFNE01.JPG,AFNE01.JPG,AFNE01.JPG,AFNE01.JPG,,,,,,,,,,,,,,,,,,,,,0,8,8,1,,,AMNE14.jpg,AMSA01.jpg,AMNE08.jpg,AMSA19.jpg,AMNE14.jpg,MN,1,num_8,16,num_8,0.716780833667,,,2018_Mar_06_1512,60.0114910794,FEMA4ImagesEEG,001,202686,
AFNE01.JPG,AFNE01.JPG,AFNE01.JPG,AFNE01.JPG,AFNE01.JPG,AFNE01.JPG,,,,,,,,,,,,,,,,,,,,,0,9,9,3,,,AMSA03.jpg,AMNE18.jpg,AMNE20.jpg,AMSA08.jpg,AMSA03.jpg,MS,2,num_8,32,num_4,0.90017291042,,,2018_Mar_06_1512,60.0114910794,FEMA4ImagesEEG,001,202686,
AFNE01.JPG,AFNE01.JPG,AFNE01.JPG,AFNE01.JPG,AFNE01.JPG,AFNE01.JPG,,,,,,,,,,,,,,,,,,,,,1,0,10,9,,,AMSA18.jpg,AMNE07.jpg,AMNE08.jpg,AMSA07.jpg,AMSA18.jpg,MS,2,num_8,32,num_2,1.11663508997,,,2018_Mar_06_1512,60.0114910794,FEMA4ImagesEEG,001,202686,
AFNE01.JPG,AFNE01.JPG,AFNE01.JPG,AFNE01.JPG,AFNE01.JPG,AFNE01.JPG,,,,,,,,,,,,,,,,,,,,,1,1,11,8,,,AMSA16.jpg,AMNE20.jpg,AMNE19.jpg,AMSA18.jpg,AMNE19.jpg,MN,1,num_2,32,num_6,0.850148550235,,,2018_Mar_06_1512,60.0114910794,FEMA4ImagesEEG,001,202686,
AFNE01.JPG,AFNE01.JPG,AFNE01.JPG,AFNE01.JPG,AFNE01.JPG,AFNE01.JPG,,,,,,,,,,,,,,,,,,,,,1,2,12,3,,,AMNE07.jpg,AMNE18.jpg,AMSA10.jpg,AMSA05.jpg,AMSA05.jpg,MS,2,num_4,32,num_2,0.750136073446,,,2018_Mar_06_1512,60.0114910794,FEMA4ImagesEEG,001,202686,
AFNE01.JPG,AFNE01.JPG,AFNE01.JPG,AFNE01.JPG,AFNE01.JPG,AFNE01.JPG,,,,,,,,,,,,,,,,,,,,,1,3,13,2,,,AMSA01.jpg,AMSA16.jpg,AMNE13.jpg,AMNE06.jpg,AMSA01.jpg,MS,2,num_8,16,num_8,0.533283233875,,,2018_Mar_06_1512,60.0114910794,FEMA4ImagesEEG,001,202686,
AFNE01.JPG,AFNE01.JPG,AFNE01.JPG,AFNE01.JPG,AFNE01.JPG,AFNE01.JPG,,,,,,,,,,,,,,,,,,,,,1,4,14,7,,,AMNE19.jpg,AMSA18.jpg,AMSA15.jpg,AMNE11.jpg,AMSA18.jpg,MS,2,num_6,16,num_6,2.21676078741,,,2018_Mar_06_1512,60.0114910794,FEMA4ImagesEEG,001,202686,
AFNE01.JPG,AFNE01.JPG,AFNE01.JPG,AFNE01.JPG,AFNE01.JPG,AFNE01.JPG,,,,,,,,,,,,,,,,,,,,,1,5,15,1,,,AMNE09.jpg,AMSA19.jpg,AMSA18.jpg,AMNE11.jpg,AMNE11.jpg,MN,1,num_4,32,num_8,0.916790070944,,,2018_Mar_06_1512,60.0114910794,FEMA4ImagesEEG,001,202686,
AFNE01.JPG,AFNE01.JPG,AFNE01.JPG,AFNE01.JPG,AFNE01.JPG,AFNE01.JPG,,,,,,,,,,,,,,,,,,,,,1,6,16,5,,,AMNE13.jpg,AMSA01.jpg,AMSA08.jpg,AMNE05.jpg,AMNE05.jpg,MN,1,num_4,16,num_4,0.817057599081,,,2018_Mar_06_1512,60.0114910794,FEMA4ImagesEEG,001,202686,
AFNE01.JPG,AFNE01.JPG,AFNE01.JPG,AFNE01.JPG,AFNE01.JPG,AFNE01.JPG,,,,,,,,,,,,,,,,,,,,,1,7,17,6,,,AMSA04.jpg,AMSA07.jpg,AMNE09.jpg,AMNE04.jpg,AMNE09.jpg,MN,1,num_2,16,num_2,0.683447724907,,,2018_Mar_06_1512,60.0114910794,FEMA4ImagesEEG,001,202686,
AFNE01.JPG,AFNE01.JPG,AFNE01.JPG,AFNE01.JPG,AFNE01.JPG,AFNE01.JPG,,,,,,,,,,,,,,,,,,,,,1,8,18,4,,,AMNE04.jpg,AMNE14.jpg,AMSA06.jpg,AMSA07.jpg,AMSA06.jpg,MS,2,num_2,16,num_2,1.81671505002,,,2018_Mar_06_1512,60.0114910794,FEMA4ImagesEEG,001,202686,
AFNE01.JPG,AFNE01.JPG,AFNE01.JPG,AFNE01.JPG,AFNE01.JPG,AFNE01.JPG,,,,,,,,,,,,,,,,,,,,,1,9,19,0,,,AMSA19.jpg,AMNE15.jpg,AMSA06.jpg,AMNE01.jpg,AMNE15.jpg,MN,1,num_6,16,num_6,1.06673261058,,,2018_Mar_06_1512,60.0114910794,FEMA4ImagesEEG,001,202686,
AFNE01.JPG,AFNE01.JPG,AFNE01.JPG,AFNE01.JPG,AFNE01.JPG,AFNE01.JPG,,,,,,,,,,,,,,,,,,,,,2,0,20,1,,,AMSA13.jpg,AMNE07.jpg,AMNE10.jpg,AMSA05.jpg,AMNE10.jpg,MN,1,num_2,32,num_4,1.15028989967,,,2018_Mar_06_1512,60.0114910794,FEMA4ImagesEEG,001,202686,
AFNE01.JPG,AFNE01.JPG,AFNE01.JPG,AFNE01.JPG,AFNE01.JPG,AFNE01.JPG,,,,,,,,,,,,,,,,,,,,,2,1,21,5,,,AMSA18.jpg,AMSA20.jpg,AMNE01.jpg,AMNE04.jpg,AMSA20.jpg,MS,2,num_6,16,num_6,1.05010743137,,,2018_Mar_06_1512,60.0114910794,FEMA4ImagesEEG,001,202686,
AFNE01.JPG,AFNE01.JPG,AFNE01.JPG,AFNE01.JPG,AFNE01.JPG,AFNE01.JPG,,,,,,,,,,,,,,,,,,,,,2,2,22,2,,,AMSA12.jpg,AMSA10.jpg,AMNE11.jpg,AMNE13.jpg,AMSA10.jpg,MS,2,num_6,16,num_6,1.31676492491,,,2018_Mar_06_1512,60.0114910794,FEMA4ImagesEEG,001,202686,
AFNE01.JPG,AFNE01.JPG,AFNE01.JPG,AFNE01.JPG,AFNE01.JPG,AFNE01.JPG,,,,,,,,,,,,,,,,,,,,,2,3,23,0,,,AMNE11.jpg,AMSA05.jpg,AMSA15.jpg,AMNE14.jpg,AMSA15.jpg,MS,2,num_2,16,num_2,0.583499716595,,,2018_Mar_06_1512,60.0114910794,FEMA4ImagesEEG,001,202686,
AFNE01.JPG,AFNE01.JPG,AFNE01.JPG,AFNE01.JPG,AFNE01.JPG,AFNE01.JPG,,,,,,,,,,,,,,,,,,,,,2,4,24,3,,,AMSA13.jpg,AMSA17.jpg,AMNE20.jpg,AMNE15.jpg,AMNE15.jpg,MN,1,num_4,16,num_4,0.750150827458,,,2018_Mar_06_1512,60.0114910794,FEMA4ImagesEEG,001,202686,
AFNE01.JPG,AFNE01.JPG,AFNE01.JPG,AFNE01.JPG,AFNE01.JPG,AFNE01.JPG,,,,,,,,,,,,,,,,,,,,,2,5,25,4,,,AMNE01.jpg,AMSA15.jpg,AMSA16.jpg,AMNE10.jpg,AMNE10.jpg,MN,1,num_4,16,num_4,0.766813212307,,,2018_Mar_06_1512,60.0114910794,FEMA4ImagesEEG,001,202686,
AFNE01.JPG,AFNE01.JPG,AFNE01.JPG,AFNE01.JPG,AFNE01.JPG,AFNE01.JPG,,,,,,,,,,,,,,,,,,,,,2,6,26,6,,,AMSA08.jpg,AMNE04.jpg,AMSA13.jpg,AMNE02.jpg,AMSA13.jpg,MS,2,num_2,32,num_8,0.600149592618,,,2018_Mar_06_1512,60.0114910794,FEMA4ImagesEEG,001,202686,
AFNE01.JPG,AFNE01.JPG,AFNE01.JPG,AFNE01.JPG,AFNE01.JPG,AFNE01.JPG,,,,,,,,,,,,,,,,,,,,,2,7,27,7,,,AMSA06.jpg,AMSA05.jpg,AMNE12.jpg,AMNE09.jpg,AMSA05.jpg,MS,2,num_6,16,num_6,0.716761910124,,,2018_Mar_06_1512,60.0114910794,FEMA4ImagesEEG,001,202686,
AFNE01.JPG,AFNE01.JPG,AFNE01.JPG,AFNE01.JPG,AFNE01.JPG,AFNE01.JPG,,,,,,,,,,,,,,,,,,,,,2,8,28,8,,,AMNE14.jpg,AMSA20.jpg,AMSA15.jpg,AMNE05.jpg,AMNE14.jpg,MN,1,num_8,16,num_8,1.56658074073,,,2018_Mar_06_1512,60.0114910794,FEMA4ImagesEEG,001,202686,
AFNE01.JPG,AFNE01.JPG,AFNE01.JPG,AFNE01.JPG,AFNE01.JPG,AFNE01.JPG,,,,,,,,,,,,,,,,,,,,,2,9,29,9,,,AMNE15.jpg,AMSA18.jpg,AMSA06.jpg,AMNE10.jpg,AMNE10.jpg,MN,1,num_4,16,num_4,0.666673402069,,,2018_Mar_06_1512,60.0114910794,FEMA4ImagesEEG,001,202686,
AFNE01.JPG,AFNE01.JPG,AFNE01.JPG,AFNE01.JPG,AFNE01.JPG,AFNE01.JPG,,,,,,,,,,,,,,,,,,,,,3,0,30,6,,,AMSA05.jpg,AMNE07.jpg,AMNE06.jpg,AMSA04.jpg,AMNE06.jpg,MN,1,num_2,32,num_8,0.833533955505,,,2018_Mar_06_1512,60.0114910794,FEMA4ImagesEEG,001,202686,
AFNE01.JPG,AFNE01.JPG,AFNE01.JPG,AFNE01.JPG,AFNE01.JPG,AFNE01.JPG,,,,,,,,,,,,,,,,,,,,,3,1,31,8,,,AMSA08.jpg,AMNE14.jpg,AMNE13.jpg,AMSA07.jpg,AMNE13.jpg,MN,1,num_2,32,num_6,0.616777337622,,,2018_Mar_06_1512,60.0114910794,FEMA4ImagesEEG,001,202686,
AFNE01.JPG,AFNE01.JPG,AFNE01.JPG,AFNE01.JPG,AFNE01.JPG,AFNE01.JPG,,,,,,,,,,,,,,,,,,,,,3,2,32,9,,,AMNE17.jpg,AMSA12.jpg,AMSA15.jpg,AMNE18.jpg,AMSA15.jpg,MS,2,num_2,16,num_2,0.500162454322,,,2018_Mar_06_1512,60.0114910794,FEMA4ImagesEEG,001,202686,
AFNE01.JPG,AFNE01.JPG,AFNE01.JPG,AFNE01.JPG,AFNE01.JPG,AFNE01.JPG,,,,,,,,,,,,,,,,,,,,,3,3,33,3,,,AMNE14.jpg,AMSA05.jpg,AMSA15.jpg,AMNE02.jpg,AMSA15.jpg,MS,2,num_2,16,num_2,0.600206363248,,,2018_Mar_06_1512,60.0114910794,FEMA4ImagesEEG,001,202686,
AFNE01.JPG,AFNE01.JPG,AFNE01.JPG,AFNE01.JPG,AFNE01.JPG,AFNE01.JPG,,,,,,,,,,,,,,,,,,,,,3,4,34,5,,,AMNE14.jpg,AMNE03.jpg,AMSA16.jpg,AMSA17.jpg,AMNE14.jpg,MN,1,num_8,32,num_4,1.80005715578,,,2018_Mar_06_1512,60.0114910794,FEMA4ImagesEEG,001,202686,
AFNE01.JPG,AFNE01.JPG,AFNE01.JPG,AFNE01.JPG,AFNE01.JPG,AFNE01.JPG,,,,,,,,,,,,,,,,,,,,,3,5,35,7,,,AMNE15.jpg,AMSA04.jpg,AMNE05.jpg,AMSA08.jpg,AMSA08.jpg,MS,2,num_4,32,num_6,0.833484882256,,,2018_Mar_06_1512,60.0114910794,FEMA4ImagesEEG,001,202686,
AFNE01.JPG,AFNE01.JPG,AFNE01.JPG,AFNE01.JPG,AFNE01.JPG,AFNE01.JPG,,,,,,,,,,,,,,,,,,,,,3,6,36,1,,,AMNE14.jpg,AMSA13.jpg,AMNE10.jpg,AMSA15.jpg,AMSA13.jpg,MS,2,num_6,16,num_6,0.850173888495,,,2018_Mar_06_1512,60.0114910794,FEMA4ImagesEEG,001,202686,
AFNE01.JPG,AFNE01.JPG,AFNE01.JPG,AFNE01.JPG,AFNE01.JPG,AFNE01.JPG,,,,,,,,,,,,,,,,,,,,,3,7,37,0,,,AMSA14.jpg,AMNE13.jpg,AMNE05.jpg,AMSA13.jpg,AMSA14.jpg,MS,2,num_8,16,num_8,0.683528550901,,,2018_Mar_06_1512,60.0114910794,FEMA4ImagesEEG,001,202686,
AFNE01.JPG,AFNE01.JPG,AFNE01.JPG,AFNE01.JPG,AFNE01.JPG,AFNE01.JPG,,,,,,,,,,,,,,,,,,,,,3,8,38,4,,,AMSA09.jpg,AMNE02.jpg,AMSA16.jpg,AMNE15.jpg,AMSA09.jpg,MS,2,num_8,32,num_2,1.23344498267,,,2018_Mar_06_1512,60.0114910794,FEMA4ImagesEEG,001,202686,
