IPosition2,IPosition3,IPosition1,IPosition6,IPosition4,IPosition5,TrialsF1.thisRepN,TrialsF1.thisTrialN,TrialsF1.thisN,TrialsF1.thisIndex,TrialsM1.thisRepN,TrialsM1.thisTrialN,TrialsM1.thisN,TrialsM1.thisIndex,TrialsF2.thisRepN,TrialsF2.thisTrialN,TrialsF2.thisN,TrialsF2.thisIndex,TrialsM2.thisRepN,TrialsM2.thisTrialN,TrialsM2.thisN,TrialsM2.thisIndex,TrialsF3.thisRepN,TrialsF3.thisTrialN,TrialsF3.thisN,TrialsF3.thisIndex,TrialsM3.thisRepN,TrialsM3.thisTrialN,TrialsM3.thisN,TrialsM3.thisIndex,InstrKey_resp.keys,InstrKey_resp.rt,Image0 _Position,Image1 _Position,Image2 _Position,Image3 _Position,Center_image,condition,code,correct_answer,accuracy,Key_Resp.keys,Key_Resp.rt,BreakKey_resp.keys,BreakKey_resp.rt,date,frameRate,expName,session,participant,
,,,,,,,,,,,,,,,,,,,,,,,,,,,,,,space,6.89974427456,,,,,,,,,,,,,,2018_Jan_31_1231,60.0132622774,FEMA4ImagesEEG,001,202656,
AMNE23.JPG,AMNE24.JPG,AMNE22.JPG,AMSA24.JPG,AMSA22.JPG,AMSA23.JPG,0,0,0,9,,,,,,,,,,,,,,,,,,,,,,,AFSA16.jpg,AFNE01.jpg,AFSA09.jpg,AFNE06.jpg,AFNE06.jpg,FN,3,num_4,32,num_2,2.31691960699,,,2018_Jan_31_1231,60.0132622774,FEMA4ImagesEEG,001,202656,
AMSA21.JPG,AMNE22.JPG,AMNE21.JPG,AMSA23.JPG,AMSA22.JPG,AMNE23.JPG,0,1,1,1,,,,,,,,,,,,,,,,,,,,,,,AFSA02.jpg,AFNE02.jpg,AFNE08.jpg,AFSA08.jpg,AFNE08.jpg,FN,3,num_2,16,num_2,1.53343145817,,,2018_Jan_31_1231,60.0132622774,FEMA4ImagesEEG,001,202656,
AFSA21.JPG,AFNE23.JPG,AFNE21.JPG,AFSA25.JPG,AFNE25.JPG,AFSA23.JPG,0,2,2,4,,,,,,,,,,,,,,,,,,,,,,,AFSA16.jpg,AFNE18.jpg,AFNE07.jpg,AFSA07.jpg,AFNE07.jpg,FN,3,num_2,32,num_4,1.10011684534,,,2018_Jan_31_1231,60.0132622774,FEMA4ImagesEEG,001,202656,
AFSA25.JPG,AFNE24.JPG,AFSA24.JPG,AFNE21.JPG,AFSA21.JPG,AFNE25.JPG,0,3,3,2,,,,,,,,,,,,,,,,,,,,,,,AFNE12.jpg,AFNE02.jpg,AFSA11.jpg,AFSA14.jpg,AFSA11.jpg,FS,4,num_2,32,num_6,3.0331516132,,,2018_Jan_31_1231,60.0132622774,FEMA4ImagesEEG,001,202656,
AFSA21.JPG,AFNE22.JPG,AFNE21.JPG,AFSA23.JPG,AFSA22.JPG,AFNE23.JPG,0,4,4,0,,,,,,,,,,,,,,,,,,,,,,,AFSA15.jpg,AFNE10.jpg,AFNE03.jpg,AFSA19.jpg,AFSA19.jpg,FS,4,num_4,32,num_8,0.950143643073,,,2018_Jan_31_1231,60.0132622774,FEMA4ImagesEEG,001,202656,
AMSA25.JPG,AMNE24.JPG,AMSA24.JPG,AMNE26.JPG,AMSA21.JPG,AMNE25.JPG,0,5,5,3,,,,,,,,,,,,,,,,,,,,,,,AFSA19.jpg,AFSA09.jpg,AFNE14.jpg,AFNE06.jpg,AFSA09.jpg,FS,4,num_6,32,num_4,1.75001451338,,,2018_Jan_31_1231,60.0132622774,FEMA4ImagesEEG,001,202656,
AFNE23.JPG,AFNE24.JPG,AFNE22.JPG,AFSA24.JPG,AFSA22.JPG,AFSA23.JPG,0,6,6,8,,,,,,,,,,,,,,,,,,,,,,,AFNE10.jpg,AFSA15.jpg,AFNE07.jpg,AFSA04.jpg,AFNE10.jpg,FN,3,num_8,32,num_2,2.21668408823,,,2018_Jan_31_1231,60.0132622774,FEMA4ImagesEEG,001,202656,
AMNE22.JPG,AMSA24.JPG,AMSA22.JPG,AMNE25.JPG,AMNE24.JPG,AMSA25.JPG,0,7,7,7,,,,,,,,,,,,,,,,,,,,,,,AFNE14.jpg,AFSA07.jpg,AFNE17.jpg,AFSA14.jpg,AFSA07.jpg,FS,4,num_6,32,num_8,1.79990583088,,,2018_Jan_31_1231,60.0132622774,FEMA4ImagesEEG,001,202656,
AMSA21.JPG,AMNE23.JPG,AMNE21.JPG,AMSA25.JPG,AMNE25.JPG,AMSA23.JPG,0,8,8,5,,,,,,,,,,,,,,,,,,,,,,,AFNE03.jpg,AFNE18.jpg,AFSA05.jpg,AFSA15.jpg,AFNE18.jpg,FN,3,num_6,32,num_8,0.733412727015,,,2018_Jan_31_1231,60.0132622774,FEMA4ImagesEEG,001,202656,
AFNE22.JPG,AFSA24.JPG,AFSA22.JPG,AFNE25.JPG,AFNE24.JPG,AFSA25.JPG,0,9,9,6,,,,,,,,,,,,,,,,,,,,,,,AFSA12.jpg,AFSA03.jpg,AFNE18.jpg,AFNE07.jpg,AFNE07.jpg,FN,3,num_4,16,num_4,0.750169751234,,,2018_Jan_31_1231,60.0132622774,FEMA4ImagesEEG,001,202656,
AFSA21.JPG,AFNE23.JPG,AFNE21.JPG,AFSA25.JPG,AFNE25.JPG,AFSA23.JPG,,,,,0,0,0,4,,,,,,,,,,,,,,,,,,,AMNE18.jpg,AMSA06.jpg,AMNE06.jpg,AMSA09.jpg,AMNE06.jpg,MN,1,num_2,16,num_2,1.25009582087,,,2018_Jan_31_1231,60.0132622774,FEMA4ImagesEEG,001,202656,
AMSA21.JPG,AMNE23.JPG,AMNE21.JPG,AMSA25.JPG,AMNE25.JPG,AMSA23.JPG,,,,,0,1,1,5,,,,,,,,,,,,,,,,,,,AMNE11.jpg,AMSA19.jpg,AMNE05.jpg,AMSA05.jpg,AMSA19.jpg,MS,2,num_6,32,num_8,0.566774552688,,,2018_Jan_31_1231,60.0132622774,FEMA4ImagesEEG,001,202656,
AFNE22.JPG,AFSA24.JPG,AFSA22.JPG,AFNE25.JPG,AFNE24.JPG,AFSA25.JPG,,,,,0,2,2,6,,,,,,,,,,,,,,,,,,,AMNE12.jpg,AMSA05.jpg,AMNE18.jpg,AMSA08.jpg,AMNE12.jpg,MN,1,num_8,32,num_2,1.21669659694,,,2018_Jan_31_1231,60.0132622774,FEMA4ImagesEEG,001,202656,
AFSA25.JPG,AFNE24.JPG,AFSA24.JPG,AFNE21.JPG,AFSA21.JPG,AFNE25.JPG,,,,,0,3,3,2,,,,,,,,,,,,,,,,,,,AMSA15.jpg,AMNE04.jpg,AMNE03.jpg,AMSA11.jpg,AMSA15.jpg,MS,2,num_8,32,num_4,4.2831919461,,,2018_Jan_31_1231,60.0132622774,FEMA4ImagesEEG,001,202656,
AMNE22.JPG,AMSA24.JPG,AMSA22.JPG,AMNE25.JPG,AMNE24.JPG,AMSA25.JPG,,,,,0,4,4,7,,,,,,,,,,,,,,,,,,,AMSA02.jpg,AMNE01.jpg,AMSA03.jpg,AMNE10.jpg,AMSA03.jpg,MS,2,num_2,32,num_6,0.483478558715,,,2018_Jan_31_1231,60.0132622774,FEMA4ImagesEEG,001,202656,
AMSA21.JPG,AMNE22.JPG,AMNE21.JPG,AMSA23.JPG,AMSA22.JPG,AMNE23.JPG,,,,,0,5,5,1,,,,,,,,,,,,,,,,,,,AMSA16.jpg,AMNE17.jpg,AMSA03.jpg,AMNE11.jpg,AMSA16.jpg,MS,2,num_8,32,num_4,2.93327981257,,,2018_Jan_31_1231,60.0132622774,FEMA4ImagesEEG,001,202656,
AMNE23.JPG,AMNE24.JPG,AMNE22.JPG,AMSA24.JPG,AMSA22.JPG,AMSA23.JPG,,,,,0,6,6,9,,,,,,,,,,,,,,,,,,,AMSA16.jpg,AMNE09.jpg,AMNE13.jpg,AMSA02.jpg,AMSA02.jpg,MS,2,num_4,16,num_4,0.78347403626,,,2018_Jan_31_1231,60.0132622774,FEMA4ImagesEEG,001,202656,
AFSA21.JPG,AFNE22.JPG,AFNE21.JPG,AFSA23.JPG,AFSA22.JPG,AFNE23.JPG,,,,,0,7,7,0,,,,,,,,,,,,,,,,,,,AMNE19.jpg,AMSA14.jpg,AMNE15.jpg,AMSA08.jpg,AMNE19.jpg,MN,1,num_8,16,num_8,0.866764898412,,,2018_Jan_31_1231,60.0132622774,FEMA4ImagesEEG,001,202656,
AMSA25.JPG,AMNE24.JPG,AMSA24.JPG,AMNE26.JPG,AMSA21.JPG,AMNE25.JPG,,,,,0,8,8,3,,,,,,,,,,,,,,,,,,,AMNE12.jpg,AMSA18.jpg,AMSA06.jpg,AMNE02.jpg,AMSA18.jpg,MS,2,num_6,32,num_8,1.41675452248,,,2018_Jan_31_1231,60.0132622774,FEMA4ImagesEEG,001,202656,
AFNE23.JPG,AFNE24.JPG,AFNE22.JPG,AFSA24.JPG,AFSA22.JPG,AFSA23.JPG,,,,,0,9,9,8,,,,,,,,,,,,,,,,,,,AMNE08.jpg,AMNE03.jpg,AMSA03.jpg,AMSA19.jpg,AMSA19.jpg,MS,2,num_4,32,num_8,1.00010616472,,,2018_Jan_31_1231,60.0132622774,FEMA4ImagesEEG,001,202656,
AMNE22.JPG,AMSA24.JPG,AMSA22.JPG,AMNE25.JPG,AMNE24.JPG,AMSA25.JPG,,,,,,,,,0,0,0,7,,,,,,,,,,,,,,,AFNE13.jpg,AFNE14.jpg,AFSA17.jpg,AFSA07.jpg,AFNE13.jpg,FN,3,num_8,32,num_2,2.18335254036,,,2018_Jan_31_1231,60.0132622774,FEMA4ImagesEEG,001,202656,
AFSA21.JPG,AFNE22.JPG,AFNE21.JPG,AFSA23.JPG,AFSA22.JPG,AFNE23.JPG,,,,,,,,,0,1,1,0,,,,,,,,,,,,,,,AFSA01.jpg,AFSA12.jpg,AFNE11.jpg,AFNE06.jpg,AFSA12.jpg,FS,4,num_6,16,num_6,0.683483562316,,,2018_Jan_31_1231,60.0132622774,FEMA4ImagesEEG,001,202656,
AMNE23.JPG,AMNE24.JPG,AMNE22.JPG,AMSA24.JPG,AMSA22.JPG,AMSA23.JPG,,,,,,,,,0,2,2,9,,,,,,,,,,,,,,,AFNE01.jpg,AFSA06.jpg,AFNE09.jpg,AFSA18.jpg,AFSA06.jpg,FS,4,num_6,32,num_4,1.73335980496,,,2018_Jan_31_1231,60.0132622774,FEMA4ImagesEEG,001,202656,
AMSA25.JPG,AMNE24.JPG,AMSA24.JPG,AMNE26.JPG,AMSA21.JPG,AMNE25.JPG,,,,,,,,,0,3,3,3,,,,,,,,,,,,,,,AFNE06.jpg,AFSA18.jpg,AFNE12.jpg,AFSA03.jpg,AFSA18.jpg,FS,4,num_6,32,num_8,0.733518570894,,,2018_Jan_31_1231,60.0132622774,FEMA4ImagesEEG,001,202656,
AFSA21.JPG,AFNE23.JPG,AFNE21.JPG,AFSA25.JPG,AFNE25.JPG,AFSA23.JPG,,,,,,,,,0,4,4,4,,,,,,,,,,,,,,,AFNE15.jpg,AFSA13.jpg,AFSA09.jpg,AFNE16.jpg,AFSA13.jpg,FS,4,num_6,32,num_2,0.83343784092,,,2018_Jan_31_1231,60.0132622774,FEMA4ImagesEEG,001,202656,
AFNE22.JPG,AFSA24.JPG,AFSA22.JPG,AFNE25.JPG,AFNE24.JPG,AFSA25.JPG,,,,,,,,,0,5,5,6,,,,,,,,,,,,,,,AFSA08.jpg,AFNE03.jpg,AFSA07.jpg,AFNE20.jpg,AFNE20.jpg,FN,3,num_4,16,num_4,1.85004604212,,,2018_Jan_31_1231,60.0132622774,FEMA4ImagesEEG,001,202656,
AFNE23.JPG,AFNE24.JPG,AFNE22.JPG,AFSA24.JPG,AFSA22.JPG,AFSA23.JPG,,,,,,,,,0,6,6,8,,,,,,,,,,,,,,,AFSA09.jpg,AFNE19.jpg,AFNE13.jpg,AFSA08.jpg,AFSA09.jpg,FS,4,num_8,16,num_8,0.850134566193,,,2018_Jan_31_1231,60.0132622774,FEMA4ImagesEEG,001,202656,
AMSA21.JPG,AMNE22.JPG,AMNE21.JPG,AMSA23.JPG,AMSA22.JPG,AMNE23.JPG,,,,,,,,,0,7,7,1,,,,,,,,,,,,,,,AFSA11.jpg,AFSA08.jpg,AFNE17.jpg,AFNE16.jpg,AFSA08.jpg,FS,4,num_6,16,num_6,1.13344294066,,,2018_Jan_31_1231,60.0132622774,FEMA4ImagesEEG,001,202656,
AMSA21.JPG,AMNE23.JPG,AMNE21.JPG,AMSA25.JPG,AMNE25.JPG,AMSA23.JPG,,,,,,,,,0,8,8,5,,,,,,,,,,,,,,,AFSA13.jpg,AFNE09.jpg,AFSA07.jpg,AFNE20.jpg,AFSA13.jpg,FS,4,num_8,32,num_2,0.733506062184,,,2018_Jan_31_1231,60.0132622774,FEMA4ImagesEEG,001,202656,
AFSA25.JPG,AFNE24.JPG,AFSA24.JPG,AFNE21.JPG,AFSA21.JPG,AFNE25.JPG,,,,,,,,,0,9,9,2,,,,,,,,,,,,,,,AFNE12.jpg,AFSA01.jpg,AFNE19.jpg,AFSA05.jpg,AFSA05.jpg,FS,4,num_4,32,num_6,1.06685008679,,,2018_Jan_31_1231,60.0132622774,FEMA4ImagesEEG,001,202656,
AMNE23.JPG,AMNE24.JPG,AMNE22.JPG,AMSA24.JPG,AMSA22.JPG,AMSA23.JPG,,,,,,,,,,,,,0,0,0,9,,,,,,,,,,,AMNE04.jpg,AMSA16.jpg,AMNE08.jpg,AMSA07.jpg,AMSA16.jpg,MS,2,num_6,32,num_4,0.883464189596,,,2018_Jan_31_1231,60.0132622774,FEMA4ImagesEEG,001,202656,
AFSA25.JPG,AFNE24.JPG,AFSA24.JPG,AFNE21.JPG,AFSA21.JPG,AFNE25.JPG,,,,,,,,,,,,,0,1,1,2,,,,,,,,,,,AMNE09.jpg,AMNE11.jpg,AMSA17.jpg,AMSA04.jpg,AMNE09.jpg,MN,1,num_8,16,num_8,0.516787654837,,,2018_Jan_31_1231,60.0132622774,FEMA4ImagesEEG,001,202656,
AMSA25.JPG,AMNE24.JPG,AMSA24.JPG,AMNE26.JPG,AMSA21.JPG,AMNE25.JPG,,,,,,,,,,,,,0,2,2,3,,,,,,,,,,,AMNE07.jpg,AMNE18.jpg,AMSA12.jpg,AMSA15.jpg,AMSA15.jpg,MS,2,num_4,32,num_8,0.750162695069,,,2018_Jan_31_1231,60.0132622774,FEMA4ImagesEEG,001,202656,
AFNE22.JPG,AFSA24.JPG,AFSA22.JPG,AFNE25.JPG,AFNE24.JPG,AFSA25.JPG,,,,,,,,,,,,,0,3,3,6,,,,,,,,,,,AMNE03.jpg,AMSA01.jpg,AMNE16.jpg,AMSA08.jpg,AMNE03.jpg,MN,1,num_8,32,num_6,0.833475367399,,,2018_Jan_31_1231,60.0132622774,FEMA4ImagesEEG,001,202656,
AFSA21.JPG,AFNE23.JPG,AFNE21.JPG,AFSA25.JPG,AFNE25.JPG,AFSA23.JPG,,,,,,,,,,,,,0,4,4,4,,,,,,,,,,,AMSA18.jpg,AMNE04.jpg,AMNE20.jpg,AMSA19.jpg,AMSA18.jpg,MS,2,num_8,32,num_6,0.78344003798,,,2018_Jan_31_1231,60.0132622774,FEMA4ImagesEEG,001,202656,
AFSA21.JPG,AFNE22.JPG,AFNE21.JPG,AFSA23.JPG,AFSA22.JPG,AFNE23.JPG,,,,,,,,,,,,,0,5,5,0,,,,,,,,,,,AMNE12.jpg,AMSA19.jpg,AMSA20.jpg,AMNE15.jpg,AMNE15.jpg,MN,1,num_4,16,num_4,0.850216033868,,,2018_Jan_31_1231,60.0132622774,FEMA4ImagesEEG,001,202656,
AFNE23.JPG,AFNE24.JPG,AFNE22.JPG,AFSA24.JPG,AFSA22.JPG,AFSA23.JPG,,,,,,,,,,,,,0,6,6,8,,,,,,,,,,,AMNE16.jpg,AMSA12.jpg,AMNE15.jpg,AMSA07.jpg,AMNE15.jpg,MN,1,num_2,32,num_8,0.666763423011,,,2018_Jan_31_1231,60.0132622774,FEMA4ImagesEEG,001,202656,
AMNE22.JPG,AMSA24.JPG,AMSA22.JPG,AMNE25.JPG,AMNE24.JPG,AMSA25.JPG,,,,,,,,,,,,,0,7,7,7,,,,,,,,,,,AMNE12.jpg,AMNE03.jpg,AMSA15.jpg,AMSA01.jpg,AMNE03.jpg,MN,1,num_6,32,num_8,1.33345179306,,,2018_Jan_31_1231,60.0132622774,FEMA4ImagesEEG,001,202656,
AMSA21.JPG,AMNE22.JPG,AMNE21.JPG,AMSA23.JPG,AMSA22.JPG,AMNE23.JPG,,,,,,,,,,,,,0,8,8,1,,,,,,,,,,,AMSA13.jpg,AMNE03.jpg,AMSA05.jpg,AMNE07.jpg,AMSA13.jpg,MS,2,num_8,32,num_4,1.23343950871,,,2018_Jan_31_1231,60.0132622774,FEMA4ImagesEEG,001,202656,
AMSA21.JPG,AMNE23.JPG,AMNE21.JPG,AMSA25.JPG,AMNE25.JPG,AMSA23.JPG,,,,,,,,,,,,,0,9,9,5,,,,,,,,,,,AMNE20.jpg,AMSA10.jpg,AMNE06.jpg,AMSA20.jpg,AMSA10.jpg,MS,2,num_6,32,num_2,0.783484300016,,,2018_Jan_31_1231,60.0132622774,FEMA4ImagesEEG,001,202656,
AMNE22.JPG,AMSA24.JPG,AMSA22.JPG,AMNE25.JPG,AMNE24.JPG,AMSA25.JPG,,,,,,,,,,,,,,,,,0,0,0,7,,,,,,,AFSA08.jpg,AFSA13.jpg,AFNE05.jpg,AFNE10.jpg,AFSA08.jpg,FS,4,num_8,32,num_6,0.566751780221,,,2018_Jan_31_1231,60.0132622774,FEMA4ImagesEEG,001,202656,
AFSA21.JPG,AFNE22.JPG,AFNE21.JPG,AFSA23.JPG,AFSA22.JPG,AFNE23.JPG,,,,,,,,,,,,,,,,,0,1,1,0,,,,,,,AFNE18.jpg,AFSA01.jpg,AFNE14.jpg,AFSA20.jpg,AFSA01.jpg,FS,4,num_6,32,num_8,0.633453043876,,,2018_Jan_31_1231,60.0132622774,FEMA4ImagesEEG,001,202656,
AFNE22.JPG,AFSA24.JPG,AFSA22.JPG,AFNE25.JPG,AFNE24.JPG,AFSA25.JPG,,,,,,,,,,,,,,,,,0,2,2,6,,,,,,,AFSA19.jpg,AFNE13.jpg,AFNE18.jpg,AFSA08.jpg,AFNE18.jpg,FN,3,num_2,32,num_8,1.13364179898,,,2018_Jan_31_1231,60.0132622774,FEMA4ImagesEEG,001,202656,
AFSA21.JPG,AFNE23.JPG,AFNE21.JPG,AFSA25.JPG,AFNE25.JPG,AFSA23.JPG,,,,,,,,,,,,,,,,,0,3,3,4,,,,,,,AFNE07.jpg,AFSA20.jpg,AFNE02.jpg,AFSA07.jpg,AFNE07.jpg,FN,3,num_8,32,num_2,1.45009697555,,,2018_Jan_31_1231,60.0132622774,FEMA4ImagesEEG,001,202656,
AFSA25.JPG,AFNE24.JPG,AFSA24.JPG,AFNE21.JPG,AFSA21.JPG,AFNE25.JPG,,,,,,,,,,,,,,,,,0,4,4,2,,,,,,,AFNE20.jpg,AFSA08.jpg,AFNE05.jpg,AFSA18.jpg,AFNE20.jpg,FN,3,num_8,32,num_4,0.733418821124,,,2018_Jan_31_1231,60.0132622774,FEMA4ImagesEEG,001,202656,
AFNE23.JPG,AFNE24.JPG,AFNE22.JPG,AFSA24.JPG,AFSA22.JPG,AFSA23.JPG,,,,,,,,,,,,,,,,,0,5,5,8,,,,,,,AFSA20.jpg,AFNE16.jpg,AFNE19.jpg,AFSA12.jpg,AFNE19.jpg,FN,3,num_2,32,num_6,1.03349255899,,,2018_Jan_31_1231,60.0132622774,FEMA4ImagesEEG,001,202656,
AMSA21.JPG,AMNE22.JPG,AMNE21.JPG,AMSA23.JPG,AMSA22.JPG,AMNE23.JPG,,,,,,,,,,,,,,,,,0,6,6,1,,,,,,,AFSA16.jpg,AFSA11.jpg,AFNE05.jpg,AFNE11.jpg,AFSA16.jpg,FS,4,num_8,16,num_8,1.00012797501,,,2018_Jan_31_1231,60.0132622774,FEMA4ImagesEEG,001,202656,
AMSA25.JPG,AMNE24.JPG,AMSA24.JPG,AMNE26.JPG,AMSA21.JPG,AMNE25.JPG,,,,,,,,,,,,,,,,,0,7,7,3,,,,,,,AFNE07.jpg,AFSA09.jpg,AFSA07.jpg,AFNE09.jpg,AFSA09.jpg,FS,4,num_6,32,num_4,1.00010776834,,,2018_Jan_31_1231,60.0132622774,FEMA4ImagesEEG,001,202656,
AMNE23.JPG,AMNE24.JPG,AMNE22.JPG,AMSA24.JPG,AMSA22.JPG,AMSA23.JPG,,,,,,,,,,,,,,,,,0,8,8,9,,,,,,,AFNE16.jpg,AFSA01.jpg,AFSA02.jpg,AFNE08.jpg,AFNE08.jpg,FN,3,num_4,32,num_8,0.816768378485,,,2018_Jan_31_1231,60.0132622774,FEMA4ImagesEEG,001,202656,
AMSA21.JPG,AMNE23.JPG,AMNE21.JPG,AMSA25.JPG,AMNE25.JPG,AMSA23.JPG,,,,,,,,,,,,,,,,,0,9,9,5,,,,,,,AFNE08.jpg,AFSA19.jpg,AFSA14.jpg,AFNE20.jpg,AFNE08.jpg,FN,3,num_8,32,num_2,0.766732407501,,,2018_Jan_31_1231,60.0132622774,FEMA4ImagesEEG,001,202656,
AFSA25.JPG,AFNE24.JPG,AFSA24.JPG,AFNE21.JPG,AFSA21.JPG,AFNE25.JPG,,,,,,,,,,,,,,,,,,,,,0,0,0,2,,,AMNE10.jpg,AMSA06.jpg,AMNE07.jpg,AMSA09.jpg,AMSA09.jpg,MS,2,num_4,32,num_8,0.633461383171,,,2018_Jan_31_1231,60.0132622774,FEMA4ImagesEEG,001,202656,
AFNE23.JPG,AFNE24.JPG,AFNE22.JPG,AFSA24.JPG,AFSA22.JPG,AFSA23.JPG,,,,,,,,,,,,,,,,,,,,,0,1,1,8,,,AMSA17.jpg,AMNE20.jpg,AMSA10.jpg,AMNE08.jpg,AMSA10.jpg,MS,2,num_2,32,num_4,0.683479713392,,,2018_Jan_31_1231,60.0132622774,FEMA4ImagesEEG,001,202656,
AMSA25.JPG,AMNE24.JPG,AMSA24.JPG,AMNE26.JPG,AMSA21.JPG,AMNE25.JPG,,,,,,,,,,,,,,,,,,,,,0,2,2,3,,,AMSA02.jpg,AMNE01.jpg,AMNE05.jpg,AMSA10.jpg,AMNE05.jpg,MN,1,num_2,16,num_2,0.816641365644,,,2018_Jan_31_1231,60.0132622774,FEMA4ImagesEEG,001,202656,
AFNE22.JPG,AFSA24.JPG,AFSA22.JPG,AFNE25.JPG,AFNE24.JPG,AFSA25.JPG,,,,,,,,,,,,,,,,,,,,,0,3,3,6,,,AMNE06.jpg,AMNE09.jpg,AMSA12.jpg,AMSA14.jpg,AMNE06.jpg,MN,1,num_8,32,num_6,0.650140147074,,,2018_Jan_31_1231,60.0132622774,FEMA4ImagesEEG,001,202656,
AMNE22.JPG,AMSA24.JPG,AMSA22.JPG,AMNE25.JPG,AMNE24.JPG,AMSA25.JPG,,,,,,,,,,,,,,,,,,,,,0,4,4,7,,,AMSA16.jpg,AMNE14.jpg,AMSA07.jpg,AMNE17.jpg,AMSA07.jpg,MS,2,num_2,32,num_8,0.733487138525,,,2018_Jan_31_1231,60.0132622774,FEMA4ImagesEEG,001,202656,
AMSA21.JPG,AMNE22.JPG,AMNE21.JPG,AMSA23.JPG,AMSA22.JPG,AMNE23.JPG,,,,,,,,,,,,,,,,,,,,,0,5,5,1,,,AMNE13.jpg,AMSA02.jpg,AMSA18.jpg,AMNE07.jpg,AMNE13.jpg,MN,1,num_8,32,num_2,0.916763342801,,,2018_Jan_31_1231,60.0132622774,FEMA4ImagesEEG,001,202656,
AFSA21.JPG,AFNE23.JPG,AFNE21.JPG,AFSA25.JPG,AFNE25.JPG,AFSA23.JPG,,,,,,,,,,,,,,,,,,,,,0,6,6,4,,,AMNE18.jpg,AMSA13.jpg,AMNE12.jpg,AMSA12.jpg,AMSA13.jpg,MS,2,num_6,32,num_8,0.750169109786,,,2018_Jan_31_1231,60.0132622774,FEMA4ImagesEEG,001,202656,
AFSA21.JPG,AFNE22.JPG,AFNE21.JPG,AFSA23.JPG,AFSA22.JPG,AFNE23.JPG,,,,,,,,,,,,,,,,,,,,,0,7,7,0,,,AMSA13.jpg,AMSA05.jpg,AMNE15.jpg,AMNE10.jpg,AMNE10.jpg,MN,1,num_4,32,num_6,0.933459426742,,,2018_Jan_31_1231,60.0132622774,FEMA4ImagesEEG,001,202656,
AMNE23.JPG,AMNE24.JPG,AMNE22.JPG,AMSA24.JPG,AMSA22.JPG,AMSA23.JPG,,,,,,,,,,,,,,,,,,,,,0,8,8,9,,,AMSA05.jpg,AMNE18.jpg,AMNE16.jpg,AMSA12.jpg,AMNE18.jpg,MN,1,num_6,32,num_2,0.883407418849,,,2018_Jan_31_1231,60.0132622774,FEMA4ImagesEEG,001,202656,
AMSA21.JPG,AMNE23.JPG,AMNE21.JPG,AMSA25.JPG,AMNE25.JPG,AMSA23.JPG,,,,,,,,,,,,,,,,,,,,,0,9,9,5,,,AMNE11.jpg,AMSA09.jpg,AMSA14.jpg,AMNE08.jpg,AMNE11.jpg,MN,1,num_8,32,num_6,1.04999363341,,,2018_Jan_31_1231,60.0132622774,FEMA4ImagesEEG,001,202656,
,,,,,,,,,,,,,,,,,,,,,,,,,,,,,,,,,,,,,,,,,,,space,16.7152274506,2018_Jan_31_1231,60.0132622774,FEMA4ImagesEEG,001,202656,
AFNE01.JPG,AFNE01.JPG,AFNE01.JPG,AFNE01.JPG,AFNE01.JPG,AFNE01.JPG,0,0,0,4,,,,,,,,,,,,,,,,,,,,,,,AFSA07.jpg,AFSA08.jpg,AFNE11.jpg,AFNE15.jpg,AFSA08.jpg,FS,4,num_6,16,num_6,0.883449435583,,,2018_Jan_31_1231,60.0132622774,FEMA4ImagesEEG,001,202656,
AFNE01.JPG,AFNE01.JPG,AFNE01.JPG,AFNE01.JPG,AFNE01.JPG,AFNE01.JPG,0,1,1,0,,,,,,,,,,,,,,,,,,,,,,,AFSA02.jpg,AFNE16.jpg,AFSA11.jpg,AFNE08.jpg,AFNE08.jpg,FN,3,num_4,16,num_4,0.616770431167,,,2018_Jan_31_1231,60.0132622774,FEMA4ImagesEEG,001,202656,
AFNE01.JPG,AFNE01.JPG,AFNE01.JPG,AFNE01.JPG,AFNE01.JPG,AFNE01.JPG,0,2,2,9,,,,,,,,,,,,,,,,,,,,,,,AFSA13.jpg,AFNE02.jpg,AFNE06.jpg,AFSA09.jpg,AFNE02.jpg,FN,3,num_6,32,num_4,0.783403473673,,,2018_Jan_31_1231,60.0132622774,FEMA4ImagesEEG,001,202656,
AFNE01.JPG,AFNE01.JPG,AFNE01.JPG,AFNE01.JPG,AFNE01.JPG,AFNE01.JPG,0,3,3,7,,,,,,,,,,,,,,,,,,,,,,,AFNE20.jpg,AFSA18.jpg,AFSA09.jpg,AFNE07.jpg,AFSA09.jpg,FS,4,num_2,16,num_2,0.866803707904,,,2018_Jan_31_1231,60.0132622774,FEMA4ImagesEEG,001,202656,
AFNE01.JPG,AFNE01.JPG,AFNE01.JPG,AFNE01.JPG,AFNE01.JPG,AFNE01.JPG,0,4,4,1,,,,,,,,,,,,,,,,,,,,,,,AFSA09.jpg,AFNE04.jpg,AFSA04.jpg,AFNE20.jpg,AFSA04.jpg,FS,4,num_2,32,num_8,0.866758483695,,,2018_Jan_31_1231,60.0132622774,FEMA4ImagesEEG,001,202656,
AFNE01.JPG,AFNE01.JPG,AFNE01.JPG,AFNE01.JPG,AFNE01.JPG,AFNE01.JPG,0,5,5,2,,,,,,,,,,,,,,,,,,,,,,,AFNE12.jpg,AFNE15.jpg,AFSA04.jpg,AFSA12.jpg,AFSA04.jpg,FS,4,num_2,16,num_2,0.916817227029,,,2018_Jan_31_1231,60.0132622774,FEMA4ImagesEEG,001,202656,
AFNE01.JPG,AFNE01.JPG,AFNE01.JPG,AFNE01.JPG,AFNE01.JPG,AFNE01.JPG,0,6,6,6,,,,,,,,,,,,,,,,,,,,,,,AFNE19.jpg,AFSA01.jpg,AFSA09.jpg,AFNE15.jpg,AFSA09.jpg,FS,4,num_2,32,num_6,0.833440085989,,,2018_Jan_31_1231,60.0132622774,FEMA4ImagesEEG,001,202656,
AFNE01.JPG,AFNE01.JPG,AFNE01.JPG,AFNE01.JPG,AFNE01.JPG,AFNE01.JPG,0,7,7,3,,,,,,,,,,,,,,,,,,,,,,,AFNE16.jpg,AFSA01.jpg,AFSA09.jpg,AFNE06.jpg,AFSA01.jpg,FS,4,num_6,32,num_8,0.700117743458,,,2018_Jan_31_1231,60.0132622774,FEMA4ImagesEEG,001,202656,
AFNE01.JPG,AFNE01.JPG,AFNE01.JPG,AFNE01.JPG,AFNE01.JPG,AFNE01.JPG,0,8,8,8,,,,,,,,,,,,,,,,,,,,,,,AFNE09.jpg,AFSA04.jpg,AFSA14.jpg,AFNE20.jpg,AFSA14.jpg,FS,4,num_2,32,num_4,0.900168291875,,,2018_Jan_31_1231,60.0132622774,FEMA4ImagesEEG,001,202656,
AFNE01.JPG,AFNE01.JPG,AFNE01.JPG,AFNE01.JPG,AFNE01.JPG,AFNE01.JPG,0,9,9,5,,,,,,,,,,,,,,,,,,,,,,,AFSA13.jpg,AFSA10.jpg,AFNE03.jpg,AFNE07.jpg,AFNE07.jpg,FN,3,num_4,32,num_8,0.816509541823,,,2018_Jan_31_1231,60.0132622774,FEMA4ImagesEEG,001,202656,
AFNE01.JPG,AFNE01.JPG,AFNE01.JPG,AFNE01.JPG,AFNE01.JPG,AFNE01.JPG,1,0,10,6,,,,,,,,,,,,,,,,,,,,,,,AFNE12.jpg,AFSA02.jpg,AFNE15.jpg,AFSA10.jpg,AFSA02.jpg,FS,4,num_6,32,num_4,0.750155638787,,,2018_Jan_31_1231,60.0132622774,FEMA4ImagesEEG,001,202656,
AFNE01.JPG,AFNE01.JPG,AFNE01.JPG,AFNE01.JPG,AFNE01.JPG,AFNE01.JPG,1,1,11,4,,,,,,,,,,,,,,,,,,,,,,,AFSA05.jpg,AFNE17.jpg,AFSA18.jpg,AFNE06.jpg,AFNE17.jpg,FN,3,num_6,16,num_6,0.933461351087,,,2018_Jan_31_1231,60.0132622774,FEMA4ImagesEEG,001,202656,
AFNE01.JPG,AFNE01.JPG,AFNE01.JPG,AFNE01.JPG,AFNE01.JPG,AFNE01.JPG,1,2,12,8,,,,,,,,,,,,,,,,,,,,,,,AFSA13.jpg,AFSA11.jpg,AFNE04.jpg,AFNE11.jpg,AFSA11.jpg,FS,4,num_6,16,num_6,0.88344558666,,,2018_Jan_31_1231,60.0132622774,FEMA4ImagesEEG,001,202656,
AFNE01.JPG,AFNE01.JPG,AFNE01.JPG,AFNE01.JPG,AFNE01.JPG,AFNE01.JPG,1,3,13,2,,,,,,,,,,,,,,,,,,,,,,,AFNE15.jpg,AFSA08.jpg,AFNE20.jpg,AFSA13.jpg,AFNE20.jpg,FN,3,num_2,16,num_2,1.35009527556,,,2018_Jan_31_1231,60.0132622774,FEMA4ImagesEEG,001,202656,
AFNE01.JPG,AFNE01.JPG,AFNE01.JPG,AFNE01.JPG,AFNE01.JPG,AFNE01.JPG,1,4,14,1,,,,,,,,,,,,,,,,,,,,,,,AFNE07.jpg,AFNE18.jpg,AFSA07.jpg,AFSA19.jpg,AFNE07.jpg,FN,3,num_8,16,num_8,0.61679063784,,,2018_Jan_31_1231,60.0132622774,FEMA4ImagesEEG,001,202656,
AFNE01.JPG,AFNE01.JPG,AFNE01.JPG,AFNE01.JPG,AFNE01.JPG,AFNE01.JPG,1,5,15,5,,,,,,,,,,,,,,,,,,,,,,,AFNE04.jpg,AFSA03.jpg,AFSA12.jpg,AFNE20.jpg,AFNE04.jpg,FN,3,num_8,16,num_8,1.46673821297,,,2018_Jan_31_1231,60.0132622774,FEMA4ImagesEEG,001,202656,
AFNE01.JPG,AFNE01.JPG,AFNE01.JPG,AFNE01.JPG,AFNE01.JPG,AFNE01.JPG,1,6,16,7,,,,,,,,,,,,,,,,,,,,,,,AFNE13.jpg,AFSA11.jpg,AFNE07.jpg,AFSA01.jpg,AFNE13.jpg,FN,3,num_8,32,num_6,1.46669779974,,,2018_Jan_31_1231,60.0132622774,FEMA4ImagesEEG,001,202656,
AFNE01.JPG,AFNE01.JPG,AFNE01.JPG,AFNE01.JPG,AFNE01.JPG,AFNE01.JPG,1,7,17,3,,,,,,,,,,,,,,,,,,,,,,,AFNE06.jpg,AFSA15.jpg,AFNE14.jpg,AFSA19.jpg,AFNE06.jpg,FN,3,num_8,32,num_4,1.15015730658,,,2018_Jan_31_1231,60.0132622774,FEMA4ImagesEEG,001,202656,
AFNE01.JPG,AFNE01.JPG,AFNE01.JPG,AFNE01.JPG,AFNE01.JPG,AFNE01.JPG,1,8,18,0,,,,,,,,,,,,,,,,,,,,,,,AFSA09.jpg,AFNE09.jpg,AFNE04.jpg,AFSA03.jpg,AFSA03.jpg,FS,4,num_4,32,num_8,1.40006357059,,,2018_Jan_31_1231,60.0132622774,FEMA4ImagesEEG,001,202656,
AFNE01.JPG,AFNE01.JPG,AFNE01.JPG,AFNE01.JPG,AFNE01.JPG,AFNE01.JPG,1,9,19,9,,,,,,,,,,,,,,,,,,,,,,,AFNE06.jpg,AFSA14.jpg,AFNE09.jpg,AFSA02.jpg,AFNE09.jpg,FN,3,num_2,32,num_4,0.966791616054,,,2018_Jan_31_1231,60.0132622774,FEMA4ImagesEEG,001,202656,
AFNE01.JPG,AFNE01.JPG,AFNE01.JPG,AFNE01.JPG,AFNE01.JPG,AFNE01.JPG,2,0,20,3,,,,,,,,,,,,,,,,,,,,,,,AFSA15.jpg,AFSA06.jpg,AFNE02.jpg,AFNE06.jpg,AFNE02.jpg,FN,3,num_2,32,num_6,0.716646080604,,,2018_Jan_31_1231,60.0132622774,FEMA4ImagesEEG,001,202656,
AFNE01.JPG,AFNE01.JPG,AFNE01.JPG,AFNE01.JPG,AFNE01.JPG,AFNE01.JPG,2,1,21,5,,,,,,,,,,,,,,,,,,,,,,,AFSA11.jpg,AFSA16.jpg,AFNE07.jpg,AFNE19.jpg,AFSA16.jpg,FS,4,num_6,32,num_4,0.800110141863,,,2018_Jan_31_1231,60.0132622774,FEMA4ImagesEEG,001,202656,
AFNE01.JPG,AFNE01.JPG,AFNE01.JPG,AFNE01.JPG,AFNE01.JPG,AFNE01.JPG,2,2,22,0,,,,,,,,,,,,,,,,,,,,,,,AFNE11.jpg,AFSA02.jpg,AFNE04.jpg,AFSA10.jpg,AFSA10.jpg,FS,4,num_4,32,num_6,0.600131118204,,,2018_Jan_31_1231,60.0132622774,FEMA4ImagesEEG,001,202656,
AFNE01.JPG,AFNE01.JPG,AFNE01.JPG,AFNE01.JPG,AFNE01.JPG,AFNE01.JPG,2,3,23,2,,,,,,,,,,,,,,,,,,,,,,,AFNE13.jpg,AFSA13.jpg,AFSA18.jpg,AFNE12.jpg,AFNE12.jpg,FN,3,num_4,16,num_4,1.33342388866,,,2018_Jan_31_1231,60.0132622774,FEMA4ImagesEEG,001,202656,
AFNE01.JPG,AFNE01.JPG,AFNE01.JPG,AFNE01.JPG,AFNE01.JPG,AFNE01.JPG,2,4,24,7,,,,,,,,,,,,,,,,,,,,,,,AFSA08.jpg,AFNE13.jpg,AFNE16.jpg,AFSA01.jpg,AFNE16.jpg,FN,3,num_2,32,num_6,0.883460019948,,,2018_Jan_31_1231,60.0132622774,FEMA4ImagesEEG,001,202656,
AFNE01.JPG,AFNE01.JPG,AFNE01.JPG,AFNE01.JPG,AFNE01.JPG,AFNE01.JPG,2,5,25,6,,,,,,,,,,,,,,,,,,,,,,,AFSA07.jpg,AFSA03.jpg,AFNE15.jpg,AFNE07.jpg,AFSA03.jpg,FS,4,num_6,32,num_8,0.900124671287,,,2018_Jan_31_1231,60.0132622774,FEMA4ImagesEEG,001,202656,
AFNE01.JPG,AFNE01.JPG,AFNE01.JPG,AFNE01.JPG,AFNE01.JPG,AFNE01.JPG,2,6,26,1,,,,,,,,,,,,,,,,,,,,,,,AFNE09.jpg,AFSA20.jpg,AFNE15.jpg,AFSA10.jpg,AFSA10.jpg,FS,4,num_4,32,num_8,1.10018067248,,,2018_Jan_31_1231,60.0132622774,FEMA4ImagesEEG,001,202656,
AFNE01.JPG,AFNE01.JPG,AFNE01.JPG,AFNE01.JPG,AFNE01.JPG,AFNE01.JPG,2,7,27,4,,,,,,,,,,,,,,,,,,,,,,,AFSA15.jpg,AFNE18.jpg,AFSA17.jpg,AFNE17.jpg,AFNE18.jpg,FN,3,num_6,16,num_6,0.966758259106,,,2018_Jan_31_1231,60.0132622774,FEMA4ImagesEEG,001,202656,
AFNE01.JPG,AFNE01.JPG,AFNE01.JPG,AFNE01.JPG,AFNE01.JPG,AFNE01.JPG,2,8,28,8,,,,,,,,,,,,,,,,,,,,,,,AFSA07.jpg,AFNE06.jpg,AFSA06.jpg,AFNE18.jpg,AFSA07.jpg,FS,4,num_8,16,num_8,0.766749085975,,,2018_Jan_31_1231,60.0132622774,FEMA4ImagesEEG,001,202656,
AFNE01.JPG,AFNE01.JPG,AFNE01.JPG,AFNE01.JPG,AFNE01.JPG,AFNE01.JPG,2,9,29,9,,,,,,,,,,,,,,,,,,,,,,,AFSA06.jpg,AFNE07.jpg,AFSA05.jpg,AFNE10.jpg,AFSA05.jpg,FS,4,num_2,32,num_4,0.9334334468,,,2018_Jan_31_1231,60.0132622774,FEMA4ImagesEEG,001,202656,
AFNE01.JPG,AFNE01.JPG,AFNE01.JPG,AFNE01.JPG,AFNE01.JPG,AFNE01.JPG,3,0,30,2,,,,,,,,,,,,,,,,,,,,,,,AFSA09.jpg,AFSA17.jpg,AFNE02.jpg,AFNE16.jpg,AFSA09.jpg,FS,4,num_8,16,num_8,1.38341688062,,,2018_Jan_31_1231,60.0132622774,FEMA4ImagesEEG,001,202656,
AFNE01.JPG,AFNE01.JPG,AFNE01.JPG,AFNE01.JPG,AFNE01.JPG,AFNE01.JPG,3,1,31,4,,,,,,,,,,,,,,,,,,,,,,,AFNE02.jpg,AFSA02.jpg,AFSA05.jpg,AFNE17.jpg,AFNE17.jpg,FN,3,num_4,32,num_6,0.649843463209,,,2018_Jan_31_1231,60.0132622774,FEMA4ImagesEEG,001,202656,
AFNE01.JPG,AFNE01.JPG,AFNE01.JPG,AFNE01.JPG,AFNE01.JPG,AFNE01.JPG,3,2,32,1,,,,,,,,,,,,,,,,,,,,,,,AFNE03.jpg,AFNE15.jpg,AFSA06.jpg,AFSA19.jpg,AFNE03.jpg,FN,3,num_8,32,num_2,1.00010840979,,,2018_Jan_31_1231,60.0132622774,FEMA4ImagesEEG,001,202656,
AFNE01.JPG,AFNE01.JPG,AFNE01.JPG,AFNE01.JPG,AFNE01.JPG,AFNE01.JPG,3,3,33,9,,,,,,,,,,,,,,,,,,,,,,,AFSA15.jpg,AFNE01.jpg,AFNE17.jpg,AFSA01.jpg,AFNE01.jpg,FN,3,num_6,16,num_6,0.933501443476,,,2018_Jan_31_1231,60.0132622774,FEMA4ImagesEEG,001,202656,
AFNE01.JPG,AFNE01.JPG,AFNE01.JPG,AFNE01.JPG,AFNE01.JPG,AFNE01.JPG,3,4,34,0,,,,,,,,,,,,,,,,,,,,,,,AFSA15.jpg,AFNE14.jpg,AFNE07.jpg,AFSA05.jpg,AFNE07.jpg,FN,3,num_2,32,num_8,0.933427994256,,,2018_Jan_31_1231,60.0132622774,FEMA4ImagesEEG,001,202656,
AFNE01.JPG,AFNE01.JPG,AFNE01.JPG,AFNE01.JPG,AFNE01.JPG,AFNE01.JPG,3,5,35,3,,,,,,,,,,,,,,,,,,,,,,,AFNE12.jpg,AFNE03.jpg,AFSA11.jpg,AFSA04.jpg,AFNE03.jpg,FN,3,num_6,16,num_6,2.3166030373,,,2018_Jan_31_1231,60.0132622774,FEMA4ImagesEEG,001,202656,
AFNE01.JPG,AFNE01.JPG,AFNE01.JPG,AFNE01.JPG,AFNE01.JPG,AFNE01.JPG,3,6,36,5,,,,,,,,,,,,,,,,,,,,,,,AFSA04.jpg,AFSA07.jpg,AFNE16.jpg,AFNE07.jpg,AFNE16.jpg,FN,3,num_2,32,num_4,0.0501841524383,,,2018_Jan_31_1231,60.0132622774,FEMA4ImagesEEG,001,202656,
AFNE01.JPG,AFNE01.JPG,AFNE01.JPG,AFNE01.JPG,AFNE01.JPG,AFNE01.JPG,3,7,37,7,,,,,,,,,,,,,,,,,,,,,,,AFSA18.jpg,AFNE07.jpg,AFSA17.jpg,AFNE08.jpg,AFNE08.jpg,FN,3,num_4,32,num_6,0.583460372756,,,2018_Jan_31_1231,60.0132622774,FEMA4ImagesEEG,001,202656,
AFNE01.JPG,AFNE01.JPG,AFNE01.JPG,AFNE01.JPG,AFNE01.JPG,AFNE01.JPG,3,8,38,8,,,,,,,,,,,,,,,,,,,,,,,AFNE06.jpg,AFSA13.jpg,AFNE13.jpg,AFSA03.jpg,AFSA03.jpg,FS,4,num_4,16,num_4,0.799983129138,,,2018_Jan_31_1231,60.0132622774,FEMA4ImagesEEG,001,202656,
AFNE01.JPG,AFNE01.JPG,AFNE01.JPG,AFNE01.JPG,AFNE01.JPG,AFNE01.JPG,3,9,39,6,,,,,,,,,,,,,,,,,,,,,,,AFNE12.jpg,AFSA13.jpg,AFNE02.jpg,AFSA17.jpg,AFSA17.jpg,FS,4,num_4,16,num_4,1.40005106165,,,2018_Jan_31_1231,60.0132622774,FEMA4ImagesEEG,001,202656,
AFNE01.JPG,AFNE01.JPG,AFNE01.JPG,AFNE01.JPG,AFNE01.JPG,AFNE01.JPG,4,0,40,7,,,,,,,,,,,,,,,,,,,,,,,AFSA17.jpg,AFNE01.jpg,AFNE18.jpg,AFSA09.jpg,AFNE01.jpg,FN,3,num_6,32,num_2,1.45014540711,,,2018_Jan_31_1231,60.0132622774,FEMA4ImagesEEG,001,202656,
AFNE01.JPG,AFNE01.JPG,AFNE01.JPG,AFNE01.JPG,AFNE01.JPG,AFNE01.JPG,4,1,41,5,,,,,,,,,,,,,,,,,,,,,,,AFNE09.jpg,AFNE06.jpg,AFSA05.jpg,AFSA19.jpg,AFSA05.jpg,FS,4,num_2,32,num_6,0.633462986792,,,2018_Jan_31_1231,60.0132622774,FEMA4ImagesEEG,001,202656,
AFNE01.JPG,AFNE01.JPG,AFNE01.JPG,AFNE01.JPG,AFNE01.JPG,AFNE01.JPG,4,2,42,1,,,,,,,,,,,,,,,,,,,,,,,AFNE20.jpg,AFSA15.jpg,AFSA16.jpg,AFNE10.jpg,AFSA16.jpg,FS,4,num_2,32,num_8,0.683628536412,,,2018_Jan_31_1231,60.0132622774,FEMA4ImagesEEG,001,202656,
AFNE01.JPG,AFNE01.JPG,AFNE01.JPG,AFNE01.JPG,AFNE01.JPG,AFNE01.JPG,4,3,43,4,,,,,,,,,,,,,,,,,,,,,,,AFSA05.jpg,AFNE13.jpg,AFNE14.jpg,AFSA19.jpg,AFSA19.jpg,FS,4,num_4,32,num_2,1.15012010082,,,2018_Jan_31_1231,60.0132622774,FEMA4ImagesEEG,001,202656,
AFNE01.JPG,AFNE01.JPG,AFNE01.JPG,AFNE01.JPG,AFNE01.JPG,AFNE01.JPG,4,4,44,2,,,,,,,,,,,,,,,,,,,,,,,AFNE18.jpg,AFSA17.jpg,AFSA07.jpg,AFNE19.jpg,AFNE18.jpg,FN,3,num_8,16,num_8,1.1835077781,,,2018_Jan_31_1231,60.0132622774,FEMA4ImagesEEG,001,202656,
AFNE01.JPG,AFNE01.JPG,AFNE01.JPG,AFNE01.JPG,AFNE01.JPG,AFNE01.JPG,4,5,45,0,,,,,,,,,,,,,,,,,,,,,,,AFNE05.jpg,AFSA18.jpg,AFNE09.jpg,AFSA02.jpg,AFSA02.jpg,FS,4,num_4,32,num_8,1.20008262247,,,2018_Jan_31_1231,60.0132622774,FEMA4ImagesEEG,001,202656,
AFNE01.JPG,AFNE01.JPG,AFNE01.JPG,AFNE01.JPG,AFNE01.JPG,AFNE01.JPG,4,6,46,9,,,,,,,,,,,,,,,,,,,,,,,AFSA02.jpg,AFSA15.jpg,AFNE17.jpg,AFNE14.jpg,AFNE14.jpg,FN,3,num_4,32,num_6,1.16673760349,,,2018_Jan_31_1231,60.0132622774,FEMA4ImagesEEG,001,202656,
AFNE01.JPG,AFNE01.JPG,AFNE01.JPG,AFNE01.JPG,AFNE01.JPG,AFNE01.JPG,4,7,47,3,,,,,,,,,,,,,,,,,,,,,,,AFNE17.jpg,AFNE19.jpg,AFSA07.jpg,AFSA10.jpg,AFSA07.jpg,FS,4,num_2,32,num_4,0.933485406567,,,2018_Jan_31_1231,60.0132622774,FEMA4ImagesEEG,001,202656,
AFNE01.JPG,AFNE01.JPG,AFNE01.JPG,AFNE01.JPG,AFNE01.JPG,AFNE01.JPG,4,8,48,8,,,,,,,,,,,,,,,,,,,,,,,AFSA19.jpg,AFNE20.jpg,AFNE09.jpg,AFSA12.jpg,AFSA12.jpg,FS,4,num_4,32,num_8,1.34994292445,,,2018_Jan_31_1231,60.0132622774,FEMA4ImagesEEG,001,202656,
AFNE01.JPG,AFNE01.JPG,AFNE01.JPG,AFNE01.JPG,AFNE01.JPG,AFNE01.JPG,4,9,49,6,,,,,,,,,,,,,,,,,,,,,,,AFNE19.jpg,AFNE06.jpg,AFSA09.jpg,AFSA14.jpg,AFSA09.jpg,FS,4,num_2,32,num_6,1.06674328062,,,2018_Jan_31_1231,60.0132622774,FEMA4ImagesEEG,001,202656,
AFNE01.JPG,AFNE01.JPG,AFNE01.JPG,AFNE01.JPG,AFNE01.JPG,AFNE01.JPG,5,0,50,8,,,,,,,,,,,,,,,,,,,,,,,AFSA19.jpg,AFSA03.jpg,AFNE18.jpg,AFNE03.jpg,AFNE18.jpg,FN,3,num_2,16,num_2,0.650191786117,,,2018_Jan_31_1231,60.0132622774,FEMA4ImagesEEG,001,202656,
AFNE01.JPG,AFNE01.JPG,AFNE01.JPG,AFNE01.JPG,AFNE01.JPG,AFNE01.JPG,5,1,51,1,,,,,,,,,,,,,,,,,,,,,,,AFNE09.jpg,AFNE12.jpg,AFSA05.jpg,AFSA16.jpg,AFSA05.jpg,FS,4,num_2,32,num_8,0.933410994941,,,2018_Jan_31_1231,60.0132622774,FEMA4ImagesEEG,001,202656,
AFNE01.JPG,AFNE01.JPG,AFNE01.JPG,AFNE01.JPG,AFNE01.JPG,AFNE01.JPG,5,2,52,7,,,,,,,,,,,,,,,,,,,,,,,AFNE05.jpg,AFSA03.jpg,AFNE15.jpg,AFSA10.jpg,AFSA03.jpg,FS,4,num_6,16,num_6,1.05015945563,,,2018_Jan_31_1231,60.0132622774,FEMA4ImagesEEG,001,202656,
AFNE01.JPG,AFNE01.JPG,AFNE01.JPG,AFNE01.JPG,AFNE01.JPG,AFNE01.JPG,5,3,53,4,,,,,,,,,,,,,,,,,,,,,,,AFNE01.jpg,AFSA07.jpg,AFNE13.jpg,AFSA12.jpg,AFSA12.jpg,FS,4,num_4,32,num_6,1.79973231093,,,2018_Jan_31_1231,60.0132622774,FEMA4ImagesEEG,001,202656,
AFNE01.JPG,AFNE01.JPG,AFNE01.JPG,AFNE01.JPG,AFNE01.JPG,AFNE01.JPG,5,4,54,0,,,,,,,,,,,,,,,,,,,,,,,AFNE16.jpg,AFNE15.jpg,AFSA08.jpg,AFSA16.jpg,AFNE16.jpg,FN,3,num_8,32,num_4,1.11679111887,,,2018_Jan_31_1231,60.0132622774,FEMA4ImagesEEG,001,202656,
AFNE01.JPG,AFNE01.JPG,AFNE01.JPG,AFNE01.JPG,AFNE01.JPG,AFNE01.JPG,5,5,55,5,,,,,,,,,,,,,,,,,,,,,,,AFNE03.jpg,AFSA07.jpg,AFNE07.jpg,AFSA17.jpg,AFSA07.jpg,FS,4,num_6,32,num_8,0.866864648298,,,2018_Jan_31_1231,60.0132622774,FEMA4ImagesEEG,001,202656,
AFNE01.JPG,AFNE01.JPG,AFNE01.JPG,AFNE01.JPG,AFNE01.JPG,AFNE01.JPG,5,6,56,9,,,,,,,,,,,,,,,,,,,,,,,AFSA13.jpg,AFNE03.jpg,AFNE17.jpg,AFSA05.jpg,AFSA05.jpg,FS,4,num_4,16,num_4,0.750146658043,,,2018_Jan_31_1231,60.0132622774,FEMA4ImagesEEG,001,202656,
AFNE01.JPG,AFNE01.JPG,AFNE01.JPG,AFNE01.JPG,AFNE01.JPG,AFNE01.JPG,5,7,57,2,,,,,,,,,,,,,,,,,,,,,,,AFNE11.jpg,AFSA04.jpg,AFSA20.jpg,AFNE05.jpg,AFSA20.jpg,FS,4,num_2,16,num_2,0.750139922486,,,2018_Jan_31_1231,60.0132622774,FEMA4ImagesEEG,001,202656,
AFNE01.JPG,AFNE01.JPG,AFNE01.JPG,AFNE01.JPG,AFNE01.JPG,AFNE01.JPG,5,8,58,6,,,,,,,,,,,,,,,,,,,,,,,AFNE08.jpg,AFSA13.jpg,AFSA07.jpg,AFNE04.jpg,AFNE08.jpg,FN,3,num_8,16,num_8,3.366532202,,,2018_Jan_31_1231,60.0132622774,FEMA4ImagesEEG,001,202656,
AFNE01.JPG,AFNE01.JPG,AFNE01.JPG,AFNE01.JPG,AFNE01.JPG,AFNE01.JPG,5,9,59,3,,,,,,,,,,,,,,,,,,,,,,,AFSA07.jpg,AFNE19.jpg,AFNE14.jpg,AFSA09.jpg,AFSA09.jpg,FS,4,num_4,16,num_4,0.933490538388,,,2018_Jan_31_1231,60.0132622774,FEMA4ImagesEEG,001,202656,
,,,,,,,,,,,,,,,,,,,,,,,,,,,,,,,,,,,,,,,,,,,space,49.2629225058,2018_Jan_31_1231,60.0132622774,FEMA4ImagesEEG,001,202656,
AFNE01.JPG,AFNE01.JPG,AFNE01.JPG,AFNE01.JPG,AFNE01.JPG,AFNE01.JPG,,,,,0,0,0,0,,,,,,,,,,,,,,,,,,,AMNE06.jpg,AMSA15.jpg,AMNE20.jpg,AMSA19.jpg,AMNE20.jpg,MN,1,num_2,32,num_6,0.883433077834,,,2018_Jan_31_1231,60.0132622774,FEMA4ImagesEEG,001,202656,
AFNE01.JPG,AFNE01.JPG,AFNE01.JPG,AFNE01.JPG,AFNE01.JPG,AFNE01.JPG,,,,,0,1,1,3,,,,,,,,,,,,,,,,,,,AMSA01.jpg,AMSA14.jpg,AMNE09.jpg,AMNE15.jpg,AMSA01.jpg,MS,2,num_8,32,num_6,0.900119860191,,,2018_Jan_31_1231,60.0132622774,FEMA4ImagesEEG,001,202656,
AFNE01.JPG,AFNE01.JPG,AFNE01.JPG,AFNE01.JPG,AFNE01.JPG,AFNE01.JPG,,,,,0,2,2,6,,,,,,,,,,,,,,,,,,,AMNE09.jpg,AMNE16.jpg,AMSA08.jpg,AMSA13.jpg,AMSA08.jpg,MS,2,num_2,32,num_4,1.26673641684,,,2018_Jan_31_1231,60.0132622774,FEMA4ImagesEEG,001,202656,
AFNE01.JPG,AFNE01.JPG,AFNE01.JPG,AFNE01.JPG,AFNE01.JPG,AFNE01.JPG,,,,,0,3,3,7,,,,,,,,,,,,,,,,,,,AMNE10.jpg,AMSA11.jpg,AMSA12.jpg,AMNE05.jpg,AMSA12.jpg,MS,2,num_2,32,num_6,0.883494018461,,,2018_Jan_31_1231,60.0132622774,FEMA4ImagesEEG,001,202656,
AFNE01.JPG,AFNE01.JPG,AFNE01.JPG,AFNE01.JPG,AFNE01.JPG,AFNE01.JPG,,,,,0,4,4,8,,,,,,,,,,,,,,,,,,,AMSA12.jpg,AMNE06.jpg,AMSA11.jpg,AMNE20.jpg,AMSA12.jpg,MS,2,num_8,32,num_4,0.700125441188,,,2018_Jan_31_1231,60.0132622774,FEMA4ImagesEEG,001,202656,
AFNE01.JPG,AFNE01.JPG,AFNE01.JPG,AFNE01.JPG,AFNE01.JPG,AFNE01.JPG,,,,,0,5,5,4,,,,,,,,,,,,,,,,,,,AMSA11.jpg,AMSA15.jpg,AMNE11.jpg,AMNE14.jpg,AMNE14.jpg,MN,1,num_4,16,num_4,0.766787574627,,,2018_Jan_31_1231,60.0132622774,FEMA4ImagesEEG,001,202656,
AFNE01.JPG,AFNE01.JPG,AFNE01.JPG,AFNE01.JPG,AFNE01.JPG,AFNE01.JPG,,,,,0,6,6,2,,,,,,,,,,,,,,,,,,,AMSA13.jpg,AMNE09.jpg,AMSA03.jpg,AMNE12.jpg,AMSA03.jpg,MS,2,num_2,32,num_8,0.583480258705,,,2018_Jan_31_1231,60.0132622774,FEMA4ImagesEEG,001,202656,
AFNE01.JPG,AFNE01.JPG,AFNE01.JPG,AFNE01.JPG,AFNE01.JPG,AFNE01.JPG,,,,,0,7,7,9,,,,,,,,,,,,,,,,,,,AMNE17.jpg,AMSA08.jpg,AMSA20.jpg,AMNE16.jpg,AMSA08.jpg,MS,2,num_6,32,num_4,1.00013471057,,,2018_Jan_31_1231,60.0132622774,FEMA4ImagesEEG,001,202656,
AFNE01.JPG,AFNE01.JPG,AFNE01.JPG,AFNE01.JPG,AFNE01.JPG,AFNE01.JPG,,,,,0,8,8,1,,,,,,,,,,,,,,,,,,,AMNE14.jpg,AMSA19.jpg,AMSA09.jpg,AMNE06.jpg,AMNE14.jpg,MN,1,num_8,32,num_6,0.500203829841,,,2018_Jan_31_1231,60.0132622774,FEMA4ImagesEEG,001,202656,
AFNE01.JPG,AFNE01.JPG,AFNE01.JPG,AFNE01.JPG,AFNE01.JPG,AFNE01.JPG,,,,,0,9,9,5,,,,,,,,,,,,,,,,,,,AMSA07.jpg,AMNE03.jpg,AMNE05.jpg,AMSA13.jpg,AMSA13.jpg,MS,2,num_4,32,num_6,0.950126964599,,,2018_Jan_31_1231,60.0132622774,FEMA4ImagesEEG,001,202656,
AFNE01.JPG,AFNE01.JPG,AFNE01.JPG,AFNE01.JPG,AFNE01.JPG,AFNE01.JPG,,,,,1,0,10,0,,,,,,,,,,,,,,,,,,,AMNE03.jpg,AMSA06.jpg,AMNE02.jpg,AMSA08.jpg,AMSA06.jpg,MS,2,num_6,32,num_4,0.716741981567,,,2018_Jan_31_1231,60.0132622774,FEMA4ImagesEEG,001,202656,
AFNE01.JPG,AFNE01.JPG,AFNE01.JPG,AFNE01.JPG,AFNE01.JPG,AFNE01.JPG,,,,,1,1,11,1,,,,,,,,,,,,,,,,,,,AMSA01.jpg,AMSA10.jpg,AMNE08.jpg,AMNE03.jpg,AMSA01.jpg,MS,2,num_8,16,num_8,0.916615802795,,,2018_Jan_31_1231,60.0132622774,FEMA4ImagesEEG,001,202656,
AFNE01.JPG,AFNE01.JPG,AFNE01.JPG,AFNE01.JPG,AFNE01.JPG,AFNE01.JPG,,,,,1,2,12,2,,,,,,,,,,,,,,,,,,,AMNE19.jpg,AMSA07.jpg,AMNE15.jpg,AMSA14.jpg,AMNE19.jpg,MN,1,num_8,32,num_6,1.83338780561,,,2018_Jan_31_1231,60.0132622774,FEMA4ImagesEEG,001,202656,
AFNE01.JPG,AFNE01.JPG,AFNE01.JPG,AFNE01.JPG,AFNE01.JPG,AFNE01.JPG,,,,,1,3,13,7,,,,,,,,,,,,,,,,,,,AMNE11.jpg,AMSA07.jpg,AMNE07.jpg,AMSA09.jpg,AMNE07.jpg,MN,1,num_2,32,num_8,0.833456123015,,,2018_Jan_31_1231,60.0132622774,FEMA4ImagesEEG,001,202656,
AFNE01.JPG,AFNE01.JPG,AFNE01.JPG,AFNE01.JPG,AFNE01.JPG,AFNE01.JPG,,,,,1,4,14,6,,,,,,,,,,,,,,,,,,,AMSA16.jpg,AMNE01.jpg,AMSA09.jpg,AMNE05.jpg,AMSA09.jpg,MS,2,num_2,32,num_4,0.90010703064,,,2018_Jan_31_1231,60.0132622774,FEMA4ImagesEEG,001,202656,
AFNE01.JPG,AFNE01.JPG,AFNE01.JPG,AFNE01.JPG,AFNE01.JPG,AFNE01.JPG,,,,,1,5,15,4,,,,,,,,,,,,,,,,,,,AMSA07.jpg,AMNE09.jpg,AMNE05.jpg,AMSA12.jpg,AMNE09.jpg,MN,1,num_6,32,num_8,0.966449066531,,,2018_Jan_31_1231,60.0132622774,FEMA4ImagesEEG,001,202656,
AFNE01.JPG,AFNE01.JPG,AFNE01.JPG,AFNE01.JPG,AFNE01.JPG,AFNE01.JPG,,,,,1,6,16,3,,,,,,,,,,,,,,,,,,,AMNE05.jpg,AMNE16.jpg,AMSA14.jpg,AMSA18.jpg,AMNE16.jpg,MN,1,num_6,16,num_6,0.616807957646,,,2018_Jan_31_1231,60.0132622774,FEMA4ImagesEEG,001,202656,
AFNE01.JPG,AFNE01.JPG,AFNE01.JPG,AFNE01.JPG,AFNE01.JPG,AFNE01.JPG,,,,,1,7,17,8,,,,,,,,,,,,,,,,,,,AMSA16.jpg,AMSA10.jpg,AMNE02.jpg,AMNE20.jpg,AMSA10.jpg,MS,2,num_6,32,num_4,1.01676247676,,,2018_Jan_31_1231,60.0132622774,FEMA4ImagesEEG,001,202656,
AFNE01.JPG,AFNE01.JPG,AFNE01.JPG,AFNE01.JPG,AFNE01.JPG,AFNE01.JPG,,,,,1,8,18,9,,,,,,,,,,,,,,,,,,,AMNE07.jpg,AMSA20.jpg,AMSA14.jpg,AMNE03.jpg,AMNE07.jpg,MN,1,num_8,16,num_8,1.70036278816,,,2018_Jan_31_1231,60.0132622774,FEMA4ImagesEEG,001,202656,
AFNE01.JPG,AFNE01.JPG,AFNE01.JPG,AFNE01.JPG,AFNE01.JPG,AFNE01.JPG,,,,,1,9,19,5,,,,,,,,,,,,,,,,,,,AMNE14.jpg,AMSA09.jpg,AMNE08.jpg,AMSA06.jpg,AMSA09.jpg,MS,2,num_6,32,num_8,0.516818125034,,,2018_Jan_31_1231,60.0132622774,FEMA4ImagesEEG,001,202656,
AFNE01.JPG,AFNE01.JPG,AFNE01.JPG,AFNE01.JPG,AFNE01.JPG,AFNE01.JPG,,,,,2,0,20,6,,,,,,,,,,,,,,,,,,,AMSA16.jpg,AMNE16.jpg,AMNE09.jpg,AMSA13.jpg,AMSA13.jpg,MS,2,num_4,32,num_8,0.93345461553,,,2018_Jan_31_1231,60.0132622774,FEMA4ImagesEEG,001,202656,
AFNE01.JPG,AFNE01.JPG,AFNE01.JPG,AFNE01.JPG,AFNE01.JPG,AFNE01.JPG,,,,,2,1,21,9,,,,,,,,,,,,,,,,,,,AMNE09.jpg,AMNE17.jpg,AMSA13.jpg,AMSA07.jpg,AMNE09.jpg,MN,1,num_8,16,num_8,0.833454198553,,,2018_Jan_31_1231,60.0132622774,FEMA4ImagesEEG,001,202656,
AFNE01.JPG,AFNE01.JPG,AFNE01.JPG,AFNE01.JPG,AFNE01.JPG,AFNE01.JPG,,,,,2,2,22,8,,,,,,,,,,,,,,,,,,,AMSA01.jpg,AMNE05.jpg,AMSA05.jpg,AMNE20.jpg,AMNE05.jpg,MN,1,num_6,32,num_4,0.733455385314,,,2018_Jan_31_1231,60.0132622774,FEMA4ImagesEEG,001,202656,
AFNE01.JPG,AFNE01.JPG,AFNE01.JPG,AFNE01.JPG,AFNE01.JPG,AFNE01.JPG,,,,,2,3,23,2,,,,,,,,,,,,,,,,,,,AMNE10.jpg,AMNE06.jpg,AMSA18.jpg,AMSA01.jpg,AMNE06.jpg,MN,1,num_6,16,num_6,0.816763246548,,,2018_Jan_31_1231,60.0132622774,FEMA4ImagesEEG,001,202656,
AFNE01.JPG,AFNE01.JPG,AFNE01.JPG,AFNE01.JPG,AFNE01.JPG,AFNE01.JPG,,,,,2,4,24,5,,,,,,,,,,,,,,,,,,,AMSA20.jpg,AMNE01.jpg,AMSA01.jpg,AMNE11.jpg,AMSA01.jpg,MS,2,num_2,32,num_6,0.666825967259,,,2018_Jan_31_1231,60.0132622774,FEMA4ImagesEEG,001,202656,
AFNE01.JPG,AFNE01.JPG,AFNE01.JPG,AFNE01.JPG,AFNE01.JPG,AFNE01.JPG,,,,,2,5,25,0,,,,,,,,,,,,,,,,,,,AMNE04.jpg,AMNE08.jpg,AMSA10.jpg,AMSA16.jpg,AMNE04.jpg,MN,1,num_8,16,num_8,0.816751379287,,,2018_Jan_31_1231,60.0132622774,FEMA4ImagesEEG,001,202656,
AFNE01.JPG,AFNE01.JPG,AFNE01.JPG,AFNE01.JPG,AFNE01.JPG,AFNE01.JPG,,,,,2,6,26,7,,,,,,,,,,,,,,,,,,,AMNE18.jpg,AMSA01.jpg,AMSA10.jpg,AMNE01.jpg,AMNE18.jpg,MN,1,num_8,16,num_8,0.883462585974,,,2018_Jan_31_1231,60.0132622774,FEMA4ImagesEEG,001,202656,
AFNE01.JPG,AFNE01.JPG,AFNE01.JPG,AFNE01.JPG,AFNE01.JPG,AFNE01.JPG,,,,,2,7,27,3,,,,,,,,,,,,,,,,,,,AMSA13.jpg,AMSA05.jpg,AMNE11.jpg,AMNE20.jpg,AMNE11.jpg,MN,1,num_2,32,num_4,1.8834289083,,,2018_Jan_31_1231,60.0132622774,FEMA4ImagesEEG,001,202656,
AFNE01.JPG,AFNE01.JPG,AFNE01.JPG,AFNE01.JPG,AFNE01.JPG,AFNE01.JPG,,,,,2,8,28,4,,,,,,,,,,,,,,,,,,,AMSA17.jpg,AMNE20.jpg,AMNE06.jpg,AMSA14.jpg,AMNE20.jpg,MN,1,num_6,32,num_8,0.750141846947,,,2018_Jan_31_1231,60.0132622774,FEMA4ImagesEEG,001,202656,
AFNE01.JPG,AFNE01.JPG,AFNE01.JPG,AFNE01.JPG,AFNE01.JPG,AFNE01.JPG,,,,,2,9,29,1,,,,,,,,,,,,,,,,,,,AMNE07.jpg,AMSA08.jpg,AMNE06.jpg,AMSA05.jpg,AMSA08.jpg,MS,2,num_6,16,num_6,0.849943405483,,,2018_Jan_31_1231,60.0132622774,FEMA4ImagesEEG,001,202656,
AFNE01.JPG,AFNE01.JPG,AFNE01.JPG,AFNE01.JPG,AFNE01.JPG,AFNE01.JPG,,,,,3,0,30,0,,,,,,,,,,,,,,,,,,,AMNE18.jpg,AMNE07.jpg,AMSA17.jpg,AMSA06.jpg,AMNE07.jpg,MN,1,num_6,32,num_8,0.700154628488,,,2018_Jan_31_1231,60.0132622774,FEMA4ImagesEEG,001,202656,
AFNE01.JPG,AFNE01.JPG,AFNE01.JPG,AFNE01.JPG,AFNE01.JPG,AFNE01.JPG,,,,,3,1,31,5,,,,,,,,,,,,,,,,,,,AMNE06.jpg,AMNE16.jpg,AMSA14.jpg,AMSA04.jpg,AMNE06.jpg,MN,1,num_8,32,num_6,0.533589582657,,,2018_Jan_31_1231,60.0132622774,FEMA4ImagesEEG,001,202656,
AFNE01.JPG,AFNE01.JPG,AFNE01.JPG,AFNE01.JPG,AFNE01.JPG,AFNE01.JPG,,,,,3,2,32,3,,,,,,,,,,,,,,,,,,,AMSA17.jpg,AMNE14.jpg,AMNE06.jpg,AMSA15.jpg,AMNE14.jpg,MN,1,num_6,32,num_4,0.850105699617,,,2018_Jan_31_1231,60.0132622774,FEMA4ImagesEEG,001,202656,
AFNE01.JPG,AFNE01.JPG,AFNE01.JPG,AFNE01.JPG,AFNE01.JPG,AFNE01.JPG,,,,,3,3,33,7,,,,,,,,,,,,,,,,,,,AMNE12.jpg,AMNE20.jpg,AMSA04.jpg,AMSA03.jpg,AMNE12.jpg,MN,1,num_8,32,num_6,0.716805487988,,,2018_Jan_31_1231,60.0132622774,FEMA4ImagesEEG,001,202656,
AFNE01.JPG,AFNE01.JPG,AFNE01.JPG,AFNE01.JPG,AFNE01.JPG,AFNE01.JPG,,,,,3,4,34,6,,,,,,,,,,,,,,,,,,,AMSA10.jpg,AMSA13.jpg,AMNE10.jpg,AMNE15.jpg,AMNE10.jpg,MN,1,num_2,32,num_4,0.750151789864,,,2018_Jan_31_1231,60.0132622774,FEMA4ImagesEEG,001,202656,
AFNE01.JPG,AFNE01.JPG,AFNE01.JPG,AFNE01.JPG,AFNE01.JPG,AFNE01.JPG,,,,,3,5,35,9,,,,,,,,,,,,,,,,,,,AMNE06.jpg,AMSA11.jpg,AMSA20.jpg,AMNE18.jpg,AMNE18.jpg,MN,1,num_4,32,num_6,1.83338299452,,,2018_Jan_31_1231,60.0132622774,FEMA4ImagesEEG,001,202656,
AFNE01.JPG,AFNE01.JPG,AFNE01.JPG,AFNE01.JPG,AFNE01.JPG,AFNE01.JPG,,,,,3,6,36,8,,,,,,,,,,,,,,,,,,,AMSA20.jpg,AMNE20.jpg,AMSA06.jpg,AMNE14.jpg,AMNE14.jpg,MN,1,num_4,32,num_6,0.73347398825,,,2018_Jan_31_1231,60.0132622774,FEMA4ImagesEEG,001,202656,
AFNE01.JPG,AFNE01.JPG,AFNE01.JPG,AFNE01.JPG,AFNE01.JPG,AFNE01.JPG,,,,,3,7,37,1,,,,,,,,,,,,,,,,,,,AMSA01.jpg,AMSA19.jpg,AMNE04.jpg,AMNE20.jpg,AMSA01.jpg,MS,2,num_8,32,num_4,0.750128375832,,,2018_Jan_31_1231,60.0132622774,FEMA4ImagesEEG,001,202656,
AFNE01.JPG,AFNE01.JPG,AFNE01.JPG,AFNE01.JPG,AFNE01.JPG,AFNE01.JPG,,,,,3,8,38,4,,,,,,,,,,,,,,,,,,,AMSA08.jpg,AMSA16.jpg,AMNE04.jpg,AMNE20.jpg,AMSA16.jpg,MS,2,num_6,16,num_6,0.766791744274,,,2018_Jan_31_1231,60.0132622774,FEMA4ImagesEEG,001,202656,
AFNE01.JPG,AFNE01.JPG,AFNE01.JPG,AFNE01.JPG,AFNE01.JPG,AFNE01.JPG,,,,,3,9,39,2,,,,,,,,,,,,,,,,,,,AMSA17.jpg,AMNE05.jpg,AMNE18.jpg,AMSA12.jpg,AMSA17.jpg,MS,2,num_8,16,num_8,0.733305279282,,,2018_Jan_31_1231,60.0132622774,FEMA4ImagesEEG,001,202656,
AFNE01.JPG,AFNE01.JPG,AFNE01.JPG,AFNE01.JPG,AFNE01.JPG,AFNE01.JPG,,,,,4,0,40,1,,,,,,,,,,,,,,,,,,,AMNE20.jpg,AMNE10.jpg,AMSA15.jpg,AMSA03.jpg,AMNE20.jpg,MN,1,num_8,32,num_4,0.600185964722,,,2018_Jan_31_1231,60.0132622774,FEMA4ImagesEEG,001,202656,
AFNE01.JPG,AFNE01.JPG,AFNE01.JPG,AFNE01.JPG,AFNE01.JPG,AFNE01.JPG,,,,,4,1,41,2,,,,,,,,,,,,,,,,,,,AMNE03.jpg,AMSA18.jpg,AMSA20.jpg,AMNE09.jpg,AMNE03.jpg,MN,1,num_8,32,num_6,0.933353582746,,,2018_Jan_31_1231,60.0132622774,FEMA4ImagesEEG,001,202656,
AFNE01.JPG,AFNE01.JPG,AFNE01.JPG,AFNE01.JPG,AFNE01.JPG,AFNE01.JPG,,,,,4,2,42,6,,,,,,,,,,,,,,,,,,,AMSA06.jpg,AMNE13.jpg,AMSA16.jpg,AMNE11.jpg,AMNE11.jpg,MN,1,num_4,32,num_2,1.88338432554,,,2018_Jan_31_1231,60.0132622774,FEMA4ImagesEEG,001,202656,
AFNE01.JPG,AFNE01.JPG,AFNE01.JPG,AFNE01.JPG,AFNE01.JPG,AFNE01.JPG,,,,,4,3,43,5,,,,,,,,,,,,,,,,,,,AMNE05.jpg,AMNE17.jpg,AMSA19.jpg,AMSA01.jpg,AMNE17.jpg,MN,1,num_6,16,num_6,2.10001228435,,,2018_Jan_31_1231,60.0132622774,FEMA4ImagesEEG,001,202656,
AFNE01.JPG,AFNE01.JPG,AFNE01.JPG,AFNE01.JPG,AFNE01.JPG,AFNE01.JPG,,,,,4,4,44,4,,,,,,,,,,,,,,,,,,,AMSA09.jpg,AMSA01.jpg,AMNE05.jpg,AMNE17.jpg,AMNE05.jpg,MN,1,num_2,32,num_8,0.800100840512,,,2018_Jan_31_1231,60.0132622774,FEMA4ImagesEEG,001,202656,
AFNE01.JPG,AFNE01.JPG,AFNE01.JPG,AFNE01.JPG,AFNE01.JPG,AFNE01.JPG,,,,,4,5,45,7,,,,,,,,,,,,,,,,,,,AMNE13.jpg,AMNE04.jpg,AMSA02.jpg,AMSA13.jpg,AMNE04.jpg,MN,1,num_6,16,num_6,1.31658924557,,,2018_Jan_31_1231,60.0132622774,FEMA4ImagesEEG,001,202656,
AFNE01.JPG,AFNE01.JPG,AFNE01.JPG,AFNE01.JPG,AFNE01.JPG,AFNE01.JPG,,,,,4,6,46,0,,,,,,,,,,,,,,,,,,,AMNE02.jpg,AMSA01.jpg,AMSA08.jpg,AMNE20.jpg,AMSA01.jpg,MS,2,num_6,16,num_6,0.633435082505,,,2018_Jan_31_1231,60.0132622774,FEMA4ImagesEEG,001,202656,
AFNE01.JPG,AFNE01.JPG,AFNE01.JPG,AFNE01.JPG,AFNE01.JPG,AFNE01.JPG,,,,,4,7,47,9,,,,,,,,,,,,,,,,,,,AMSA07.jpg,AMSA13.jpg,AMNE16.jpg,AMNE03.jpg,AMNE03.jpg,MN,1,num_4,16,num_4,0.933514593751,,,2018_Jan_31_1231,60.0132622774,FEMA4ImagesEEG,001,202656,
AFNE01.JPG,AFNE01.JPG,AFNE01.JPG,AFNE01.JPG,AFNE01.JPG,AFNE01.JPG,,,,,4,8,48,3,,,,,,,,,,,,,,,,,,,AMNE17.jpg,AMSA09.jpg,AMNE07.jpg,AMSA11.jpg,AMNE07.jpg,MN,1,num_2,32,num_8,0.750114584109,,,2018_Jan_31_1231,60.0132622774,FEMA4ImagesEEG,001,202656,
AFNE01.JPG,AFNE01.JPG,AFNE01.JPG,AFNE01.JPG,AFNE01.JPG,AFNE01.JPG,,,,,4,9,49,8,,,,,,,,,,,,,,,,,,,AMNE15.jpg,AMNE01.jpg,AMSA01.jpg,AMSA09.jpg,AMSA09.jpg,MS,2,num_4,32,num_6,0.950111569138,,,2018_Jan_31_1231,60.0132622774,FEMA4ImagesEEG,001,202656,
AFNE01.JPG,AFNE01.JPG,AFNE01.JPG,AFNE01.JPG,AFNE01.JPG,AFNE01.JPG,,,,,5,0,50,5,,,,,,,,,,,,,,,,,,,AMSA09.jpg,AMSA05.jpg,AMNE10.jpg,AMNE13.jpg,AMNE10.jpg,MN,1,num_2,32,num_8,0.866799858981,,,2018_Jan_31_1231,60.0132622774,FEMA4ImagesEEG,001,202656,
AFNE01.JPG,AFNE01.JPG,AFNE01.JPG,AFNE01.JPG,AFNE01.JPG,AFNE01.JPG,,,,,5,1,51,2,,,,,,,,,,,,,,,,,,,AMNE06.jpg,AMSA05.jpg,AMSA16.jpg,AMNE09.jpg,AMNE09.jpg,MN,1,num_4,16,num_4,0.750524168252,,,2018_Jan_31_1231,60.0132622774,FEMA4ImagesEEG,001,202656,
AFNE01.JPG,AFNE01.JPG,AFNE01.JPG,AFNE01.JPG,AFNE01.JPG,AFNE01.JPG,,,,,5,2,52,8,,,,,,,,,,,,,,,,,,,AMNE06.jpg,AMSA13.jpg,AMNE18.jpg,AMSA19.jpg,AMSA13.jpg,MS,2,num_6,16,num_6,0.566850567819,,,2018_Jan_31_1231,60.0132622774,FEMA4ImagesEEG,001,202656,
AFNE01.JPG,AFNE01.JPG,AFNE01.JPG,AFNE01.JPG,AFNE01.JPG,AFNE01.JPG,,,,,5,3,53,4,,,,,,,,,,,,,,,,,,,AMNE07.jpg,AMSA03.jpg,AMSA11.jpg,AMNE17.jpg,AMNE07.jpg,MN,1,num_8,16,num_8,0.416801991989,,,2018_Jan_31_1231,60.0132622774,FEMA4ImagesEEG,001,202656,
AFNE01.JPG,AFNE01.JPG,AFNE01.JPG,AFNE01.JPG,AFNE01.JPG,AFNE01.JPG,,,,,5,4,54,3,,,,,,,,,,,,,,,,,,,AMNE08.jpg,AMSA01.jpg,AMSA20.jpg,AMNE11.jpg,AMSA01.jpg,MS,2,num_6,32,num_4,0.866762653226,,,2018_Jan_31_1231,60.0132622774,FEMA4ImagesEEG,001,202656,
AFNE01.JPG,AFNE01.JPG,AFNE01.JPG,AFNE01.JPG,AFNE01.JPG,AFNE01.JPG,,,,,5,5,55,1,,,,,,,,,,,,,,,,,,,AMNE14.jpg,AMNE15.jpg,AMSA08.jpg,AMSA07.jpg,AMNE15.jpg,MN,1,num_6,16,num_6,0.666778497747,,,2018_Jan_31_1231,60.0132622774,FEMA4ImagesEEG,001,202656,
AFNE01.JPG,AFNE01.JPG,AFNE01.JPG,AFNE01.JPG,AFNE01.JPG,AFNE01.JPG,,,,,5,6,56,6,,,,,,,,,,,,,,,,,,,AMNE17.jpg,AMSA09.jpg,AMSA10.jpg,AMNE08.jpg,AMSA09.jpg,MS,2,num_6,32,num_2,1.05020211393,,,2018_Jan_31_1231,60.0132622774,FEMA4ImagesEEG,001,202656,
AFNE01.JPG,AFNE01.JPG,AFNE01.JPG,AFNE01.JPG,AFNE01.JPG,AFNE01.JPG,,,,,5,7,57,9,,,,,,,,,,,,,,,,,,,AMSA17.jpg,AMSA10.jpg,AMNE05.jpg,AMNE04.jpg,AMSA10.jpg,MS,2,num_6,16,num_6,0.966762749478,,,2018_Jan_31_1231,60.0132622774,FEMA4ImagesEEG,001,202656,
AFNE01.JPG,AFNE01.JPG,AFNE01.JPG,AFNE01.JPG,AFNE01.JPG,AFNE01.JPG,,,,,5,8,58,7,,,,,,,,,,,,,,,,,,,AMNE13.jpg,AMSA12.jpg,AMNE17.jpg,AMSA20.jpg,AMSA12.jpg,MS,2,num_6,16,num_6,1.00020046206,,,2018_Jan_31_1231,60.0132622774,FEMA4ImagesEEG,001,202656,
AFNE01.JPG,AFNE01.JPG,AFNE01.JPG,AFNE01.JPG,AFNE01.JPG,AFNE01.JPG,,,,,5,9,59,0,,,,,,,,,,,,,,,,,,,AMSA18.jpg,AMNE03.jpg,AMSA03.jpg,AMNE15.jpg,AMSA18.jpg,MS,2,num_8,32,num_4,0.866775482893,,,2018_Jan_31_1231,60.0132622774,FEMA4ImagesEEG,001,202656,
,,,,,,,,,,,,,,,,,,,,,,,,,,,,,,,,,,,,,,,,,,,space,3.1166054107,2018_Jan_31_1231,60.0132622774,FEMA4ImagesEEG,001,202656,
AFNE01.JPG,AFNE01.JPG,AFNE01.JPG,AFNE01.JPG,AFNE01.JPG,AFNE01.JPG,,,,,,,,,0,0,0,6,,,,,,,,,,,,,,,AFSA16.jpg,AFSA14.jpg,AFNE02.jpg,AFNE15.jpg,AFSA16.jpg,FS,4,num_8,16,num_8,0.700115177548,,,2018_Jan_31_1231,60.0132622774,FEMA4ImagesEEG,001,202656,
AFNE01.JPG,AFNE01.JPG,AFNE01.JPG,AFNE01.JPG,AFNE01.JPG,AFNE01.JPG,,,,,,,,,0,1,1,5,,,,,,,,,,,,,,,AFNE14.jpg,AFSA11.jpg,AFNE19.jpg,AFSA20.jpg,AFSA20.jpg,FS,4,num_4,32,num_6,1.03345663624,,,2018_Jan_31_1231,60.0132622774,FEMA4ImagesEEG,001,202656,
AFNE01.JPG,AFNE01.JPG,AFNE01.JPG,AFNE01.JPG,AFNE01.JPG,AFNE01.JPG,,,,,,,,,0,2,2,0,,,,,,,,,,,,,,,AFSA18.jpg,AFNE09.jpg,AFNE01.jpg,AFSA03.jpg,AFNE01.jpg,FN,3,num_2,32,num_4,0.850113076624,,,2018_Jan_31_1231,60.0132622774,FEMA4ImagesEEG,001,202656,
AFNE01.JPG,AFNE01.JPG,AFNE01.JPG,AFNE01.JPG,AFNE01.JPG,AFNE01.JPG,,,,,,,,,0,3,3,2,,,,,,,,,,,,,,,AFNE13.jpg,AFNE15.jpg,AFSA15.jpg,AFSA14.jpg,AFSA14.jpg,FS,4,num_4,32,num_8,1.15008481953,,,2018_Jan_31_1231,60.0132622774,FEMA4ImagesEEG,001,202656,
AFNE01.JPG,AFNE01.JPG,AFNE01.JPG,AFNE01.JPG,AFNE01.JPG,AFNE01.JPG,,,,,,,,,0,4,4,8,,,,,,,,,,,,,,,AFSA16.jpg,AFNE07.jpg,AFNE08.jpg,AFSA20.jpg,AFNE07.jpg,FN,3,num_6,16,num_6,1.08339478169,,,2018_Jan_31_1231,60.0132622774,FEMA4ImagesEEG,001,202656,
AFNE01.JPG,AFNE01.JPG,AFNE01.JPG,AFNE01.JPG,AFNE01.JPG,AFNE01.JPG,,,,,,,,,0,5,5,7,,,,,,,,,,,,,,,AFNE18.jpg,AFNE06.jpg,AFSA16.jpg,AFSA09.jpg,AFNE06.jpg,FN,3,num_6,32,num_2,0.600296940422,,,2018_Jan_31_1231,60.0132622774,FEMA4ImagesEEG,001,202656,
AFNE01.JPG,AFNE01.JPG,AFNE01.JPG,AFNE01.JPG,AFNE01.JPG,AFNE01.JPG,,,,,,,,,0,6,6,3,,,,,,,,,,,,,,,AFSA06.jpg,AFNE10.jpg,AFSA14.jpg,AFNE05.jpg,AFSA06.jpg,FS,4,num_8,32,num_4,1.06674424279,,,2018_Jan_31_1231,60.0132622774,FEMA4ImagesEEG,001,202656,
AFNE01.JPG,AFNE01.JPG,AFNE01.JPG,AFNE01.JPG,AFNE01.JPG,AFNE01.JPG,,,,,,,,,0,7,7,1,,,,,,,,,,,,,,,AFNE01.jpg,AFNE09.jpg,AFSA12.jpg,AFSA13.jpg,AFSA13.jpg,FS,4,num_4,32,num_8,0.98349186941,,,2018_Jan_31_1231,60.0132622774,FEMA4ImagesEEG,001,202656,
AFNE01.JPG,AFNE01.JPG,AFNE01.JPG,AFNE01.JPG,AFNE01.JPG,AFNE01.JPG,,,,,,,,,0,8,8,9,,,,,,,,,,,,,,,AFNE18.jpg,AFSA20.jpg,AFNE07.jpg,AFSA19.jpg,AFNE18.jpg,FN,3,num_8,16,num_8,1.16674273531,,,2018_Jan_31_1231,60.0132622774,FEMA4ImagesEEG,001,202656,
AFNE01.JPG,AFNE01.JPG,AFNE01.JPG,AFNE01.JPG,AFNE01.JPG,AFNE01.JPG,,,,,,,,,0,9,9,4,,,,,,,,,,,,,,,AFNE09.jpg,AFSA18.jpg,AFNE10.jpg,AFSA09.jpg,AFSA18.jpg,FS,4,num_6,16,num_6,1.06677471311,,,2018_Jan_31_1231,60.0132622774,FEMA4ImagesEEG,001,202656,
AFNE01.JPG,AFNE01.JPG,AFNE01.JPG,AFNE01.JPG,AFNE01.JPG,AFNE01.JPG,,,,,,,,,1,0,10,2,,,,,,,,,,,,,,,AFSA17.jpg,AFNE05.jpg,AFNE12.jpg,AFSA12.jpg,AFNE12.jpg,FN,3,num_2,32,num_4,0.766647732351,,,2018_Jan_31_1231,60.0132622774,FEMA4ImagesEEG,001,202656,
AFNE01.JPG,AFNE01.JPG,AFNE01.JPG,AFNE01.JPG,AFNE01.JPG,AFNE01.JPG,,,,,,,,,1,1,11,3,,,,,,,,,,,,,,,AFSA05.jpg,AFNE14.jpg,AFSA11.jpg,AFNE10.jpg,AFSA11.jpg,FS,4,num_2,16,num_2,2.21669627621,,,2018_Jan_31_1231,60.0132622774,FEMA4ImagesEEG,001,202656,
AFNE01.JPG,AFNE01.JPG,AFNE01.JPG,AFNE01.JPG,AFNE01.JPG,AFNE01.JPG,,,,,,,,,1,2,12,7,,,,,,,,,,,,,,,AFNE15.jpg,AFSA09.jpg,AFNE13.jpg,AFSA19.jpg,AFNE13.jpg,FN,3,num_2,32,num_8,0.883442700142,,,2018_Jan_31_1231,60.0132622774,FEMA4ImagesEEG,001,202656,
AFNE01.JPG,AFNE01.JPG,AFNE01.JPG,AFNE01.JPG,AFNE01.JPG,AFNE01.JPG,,,,,,,,,1,3,13,5,,,,,,,,,,,,,,,AFSA18.jpg,AFSA01.jpg,AFNE08.jpg,AFNE10.jpg,AFSA01.jpg,FS,4,num_6,16,num_6,0.55016731366,,,2018_Jan_31_1231,60.0132622774,FEMA4ImagesEEG,001,202656,
AFNE01.JPG,AFNE01.JPG,AFNE01.JPG,AFNE01.JPG,AFNE01.JPG,AFNE01.JPG,,,,,,,,,1,4,14,8,,,,,,,,,,,,,,,AFNE20.jpg,AFNE12.jpg,AFSA11.jpg,AFSA01.jpg,AFNE20.jpg,FN,3,num_8,32,num_6,0.866774520604,,,2018_Jan_31_1231,60.0132622774,FEMA4ImagesEEG,001,202656,
AFNE01.JPG,AFNE01.JPG,AFNE01.JPG,AFNE01.JPG,AFNE01.JPG,AFNE01.JPG,,,,,,,,,1,5,15,9,,,,,,,,,,,,,,,AFNE08.jpg,AFNE10.jpg,AFSA16.jpg,AFSA20.jpg,AFSA20.jpg,FS,4,num_4,16,num_4,0.83347440511,,,2018_Jan_31_1231,60.0132622774,FEMA4ImagesEEG,001,202656,
AFNE01.JPG,AFNE01.JPG,AFNE01.JPG,AFNE01.JPG,AFNE01.JPG,AFNE01.JPG,,,,,,,,,1,6,16,6,,,,,,,,,,,,,,,AFNE15.jpg,AFSA15.jpg,AFSA16.jpg,AFNE06.jpg,AFSA16.jpg,FS,4,num_2,32,num_8,0.733487138525,,,2018_Jan_31_1231,60.0132622774,FEMA4ImagesEEG,001,202656,
AFNE01.JPG,AFNE01.JPG,AFNE01.JPG,AFNE01.JPG,AFNE01.JPG,AFNE01.JPG,,,,,,,,,1,7,17,4,,,,,,,,,,,,,,,AFNE06.jpg,AFNE03.jpg,AFSA11.jpg,AFSA13.jpg,AFSA11.jpg,FS,4,num_2,16,num_2,2.48338522366,,,2018_Jan_31_1231,60.0132622774,FEMA4ImagesEEG,001,202656,
AFNE01.JPG,AFNE01.JPG,AFNE01.JPG,AFNE01.JPG,AFNE01.JPG,AFNE01.JPG,,,,,,,,,1,8,18,0,,,,,,,,,,,,,,,AFSA16.jpg,AFNE14.jpg,AFSA08.jpg,AFNE01.jpg,AFSA16.jpg,FS,4,num_8,32,num_6,0.716775979963,,,2018_Jan_31_1231,60.0132622774,FEMA4ImagesEEG,001,202656,
AFNE01.JPG,AFNE01.JPG,AFNE01.JPG,AFNE01.JPG,AFNE01.JPG,AFNE01.JPG,,,,,,,,,1,9,19,1,,,,,,,,,,,,,,,AFNE11.jpg,AFSA05.jpg,AFNE06.jpg,AFSA13.jpg,AFNE06.jpg,FN,3,num_2,32,num_8,0.866739239311,,,2018_Jan_31_1231,60.0132622774,FEMA4ImagesEEG,001,202656,
AFNE01.JPG,AFNE01.JPG,AFNE01.JPG,AFNE01.JPG,AFNE01.JPG,AFNE01.JPG,,,,,,,,,2,0,20,0,,,,,,,,,,,,,,,AFSA20.jpg,AFNE11.jpg,AFSA06.jpg,AFNE16.jpg,AFNE11.jpg,FN,3,num_6,32,num_4,0.783418227686,,,2018_Jan_31_1231,60.0132622774,FEMA4ImagesEEG,001,202656,
AFNE01.JPG,AFNE01.JPG,AFNE01.JPG,AFNE01.JPG,AFNE01.JPG,AFNE01.JPG,,,,,,,,,2,1,21,6,,,,,,,,,,,,,,,AFNE01.jpg,AFSA16.jpg,AFNE03.jpg,AFSA09.jpg,AFSA09.jpg,FS,4,num_4,32,num_6,0.666803194792,,,2018_Jan_31_1231,60.0132622774,FEMA4ImagesEEG,001,202656,
AFNE01.JPG,AFNE01.JPG,AFNE01.JPG,AFNE01.JPG,AFNE01.JPG,AFNE01.JPG,,,,,,,,,2,2,22,2,,,,,,,,,,,,,,,AFSA13.jpg,AFNE20.jpg,AFSA20.jpg,AFNE16.jpg,AFNE16.jpg,FN,3,num_4,32,num_2,0.966756334645,,,2018_Jan_31_1231,60.0132622774,FEMA4ImagesEEG,001,202656,
AFNE01.JPG,AFNE01.JPG,AFNE01.JPG,AFNE01.JPG,AFNE01.JPG,AFNE01.JPG,,,,,,,,,2,3,23,1,,,,,,,,,,,,,,,AFSA01.jpg,AFNE05.jpg,AFNE12.jpg,AFSA12.jpg,AFNE05.jpg,FN,3,num_6,32,num_8,1.30008656753,,,2018_Jan_31_1231,60.0132622774,FEMA4ImagesEEG,001,202656,
AFNE01.JPG,AFNE01.JPG,AFNE01.JPG,AFNE01.JPG,AFNE01.JPG,AFNE01.JPG,,,,,,,,,2,4,24,7,,,,,,,,,,,,,,,AFNE04.jpg,AFSA02.jpg,AFSA17.jpg,AFNE18.jpg,AFNE04.jpg,FN,3,num_8,32,num_4,1.58337377326,,,2018_Jan_31_1231,60.0132622774,FEMA4ImagesEEG,001,202656,
AFNE01.JPG,AFNE01.JPG,AFNE01.JPG,AFNE01.JPG,AFNE01.JPG,AFNE01.JPG,,,,,,,,,2,5,25,9,,,,,,,,,,,,,,,AFSA12.jpg,AFNE14.jpg,AFSA19.jpg,AFNE07.jpg,AFNE07.jpg,FN,3,num_4,32,num_8,1.25009229279,,,2018_Jan_31_1231,60.0132622774,FEMA4ImagesEEG,001,202656,
AFNE01.JPG,AFNE01.JPG,AFNE01.JPG,AFNE01.JPG,AFNE01.JPG,AFNE01.JPG,,,,,,,,,2,6,26,8,,,,,,,,,,,,,,,AFSA04.jpg,AFSA10.jpg,AFNE04.jpg,AFNE07.jpg,AFNE04.jpg,FN,3,num_2,32,num_6,0.666833344265,,,2018_Jan_31_1231,60.0132622774,FEMA4ImagesEEG,001,202656,
AFNE01.JPG,AFNE01.JPG,AFNE01.JPG,AFNE01.JPG,AFNE01.JPG,AFNE01.JPG,,,,,,,,,2,7,27,3,,,,,,,,,,,,,,,AFNE11.jpg,AFSA15.jpg,AFSA01.jpg,AFNE16.jpg,AFNE16.jpg,FN,3,num_4,16,num_4,0.700182853383,,,2018_Jan_31_1231,60.0132622774,FEMA4ImagesEEG,001,202656,
AFNE01.JPG,AFNE01.JPG,AFNE01.JPG,AFNE01.JPG,AFNE01.JPG,AFNE01.JPG,,,,,,,,,2,8,28,4,,,,,,,,,,,,,,,AFNE11.jpg,AFSA04.jpg,AFNE07.jpg,AFSA11.jpg,AFNE07.jpg,FN,3,num_2,32,num_6,1.05011230684,,,2018_Jan_31_1231,60.0132622774,FEMA4ImagesEEG,001,202656,
AFNE01.JPG,AFNE01.JPG,AFNE01.JPG,AFNE01.JPG,AFNE01.JPG,AFNE01.JPG,,,,,,,,,2,9,29,5,,,,,,,,,,,,,,,AFSA03.jpg,AFNE13.jpg,AFSA13.jpg,AFNE09.jpg,AFSA13.jpg,FS,4,num_2,16,num_2,0.916727099218,,,2018_Jan_31_1231,60.0132622774,FEMA4ImagesEEG,001,202656,
AFNE01.JPG,AFNE01.JPG,AFNE01.JPG,AFNE01.JPG,AFNE01.JPG,AFNE01.JPG,,,,,,,,,3,0,30,8,,,,,,,,,,,,,,,AFNE01.jpg,AFNE06.jpg,AFSA13.jpg,AFSA08.jpg,AFNE01.jpg,FN,3,num_8,32,num_4,0.683336984366,,,2018_Jan_31_1231,60.0132622774,FEMA4ImagesEEG,001,202656,
AFNE01.JPG,AFNE01.JPG,AFNE01.JPG,AFNE01.JPG,AFNE01.JPG,AFNE01.JPG,,,,,,,,,3,1,31,3,,,,,,,,,,,,,,,AFNE01.jpg,AFSA12.jpg,AFSA01.jpg,AFNE18.jpg,AFNE18.jpg,FN,3,num_4,16,num_4,0.866766502149,,,2018_Jan_31_1231,60.0132622774,FEMA4ImagesEEG,001,202656,
AFNE01.JPG,AFNE01.JPG,AFNE01.JPG,AFNE01.JPG,AFNE01.JPG,AFNE01.JPG,,,,,,,,,3,2,32,4,,,,,,,,,,,,,,,AFSA03.jpg,AFNE08.jpg,AFNE12.jpg,AFSA08.jpg,AFSA03.jpg,FS,4,num_8,16,num_8,1.23335739947,,,2018_Jan_31_1231,60.0132622774,FEMA4ImagesEEG,001,202656,
AFNE01.JPG,AFNE01.JPG,AFNE01.JPG,AFNE01.JPG,AFNE01.JPG,AFNE01.JPG,,,,,,,,,3,3,33,6,,,,,,,,,,,,,,,AFSA04.jpg,AFSA13.jpg,AFNE13.jpg,AFNE04.jpg,AFSA04.jpg,FS,4,num_8,32,num_6,0.766827346408,,,2018_Jan_31_1231,60.0132622774,FEMA4ImagesEEG,001,202656,
AFNE01.JPG,AFNE01.JPG,AFNE01.JPG,AFNE01.JPG,AFNE01.JPG,AFNE01.JPG,,,,,,,,,3,4,34,1,,,,,,,,,,,,,,,AFNE06.jpg,AFSA08.jpg,AFSA10.jpg,AFNE07.jpg,AFNE06.jpg,FN,3,num_8,16,num_8,0.733476233319,,,2018_Jan_31_1231,60.0132622774,FEMA4ImagesEEG,001,202656,
AFNE01.JPG,AFNE01.JPG,AFNE01.JPG,AFNE01.JPG,AFNE01.JPG,AFNE01.JPG,,,,,,,,,3,5,35,9,,,,,,,,,,,,,,,AFNE09.jpg,AFSA03.jpg,AFNE07.jpg,AFSA11.jpg,AFNE09.jpg,FN,3,num_8,32,num_6,0.883718535886,,,2018_Jan_31_1231,60.0132622774,FEMA4ImagesEEG,001,202656,
AFNE01.JPG,AFNE01.JPG,AFNE01.JPG,AFNE01.JPG,AFNE01.JPG,AFNE01.JPG,,,,,,,,,3,6,36,7,,,,,,,,,,,,,,,AFNE02.jpg,AFSA19.jpg,AFNE08.jpg,AFSA18.jpg,AFNE08.jpg,FN,3,num_2,32,num_8,0.71677501779,,,2018_Jan_31_1231,60.0132622774,FEMA4ImagesEEG,001,202656,
AFNE01.JPG,AFNE01.JPG,AFNE01.JPG,AFNE01.JPG,AFNE01.JPG,AFNE01.JPG,,,,,,,,,3,7,37,2,,,,,,,,,,,,,,,AFSA09.jpg,AFSA02.jpg,AFNE05.jpg,AFNE12.jpg,AFNE12.jpg,FN,3,num_4,16,num_4,0.833457726752,,,2018_Jan_31_1231,60.0132622774,FEMA4ImagesEEG,001,202656,
AFNE01.JPG,AFNE01.JPG,AFNE01.JPG,AFNE01.JPG,AFNE01.JPG,AFNE01.JPG,,,,,,,,,3,8,38,0,,,,,,,,,,,,,,,AFSA08.jpg,AFSA10.jpg,AFNE15.jpg,AFNE14.jpg,AFNE15.jpg,FN,3,num_2,16,num_2,0.800192571827,,,2018_Jan_31_1231,60.0132622774,FEMA4ImagesEEG,001,202656,
AFNE01.JPG,AFNE01.JPG,AFNE01.JPG,AFNE01.JPG,AFNE01.JPG,AFNE01.JPG,,,,,,,,,3,9,39,5,,,,,,,,,,,,,,,AFSA12.jpg,AFNE16.jpg,AFSA07.jpg,AFNE09.jpg,AFSA07.jpg,FS,4,num_2,32,num_8,1.28339369118,,,2018_Jan_31_1231,60.0132622774,FEMA4ImagesEEG,001,202656,
AFNE01.JPG,AFNE01.JPG,AFNE01.JPG,AFNE01.JPG,AFNE01.JPG,AFNE01.JPG,,,,,,,,,4,0,40,0,,,,,,,,,,,,,,,AFSA07.jpg,AFNE12.jpg,AFNE03.jpg,AFSA03.jpg,AFNE03.jpg,FN,3,num_2,32,num_4,0.750149865518,,,2018_Jan_31_1231,60.0132622774,FEMA4ImagesEEG,001,202656,
AFNE01.JPG,AFNE01.JPG,AFNE01.JPG,AFNE01.JPG,AFNE01.JPG,AFNE01.JPG,,,,,,,,,4,1,41,7,,,,,,,,,,,,,,,AFSA06.jpg,AFNE03.jpg,AFNE10.jpg,AFSA02.jpg,AFNE03.jpg,FN,3,num_6,32,num_8,1.03345952288,,,2018_Jan_31_1231,60.0132622774,FEMA4ImagesEEG,001,202656,
AFNE01.JPG,AFNE01.JPG,AFNE01.JPG,AFNE01.JPG,AFNE01.JPG,AFNE01.JPG,,,,,,,,,4,2,42,4,,,,,,,,,,,,,,,AFSA02.jpg,AFNE19.jpg,AFSA11.jpg,AFNE02.jpg,AFNE02.jpg,FN,3,num_4,16,num_4,0.833449387457,,,2018_Jan_31_1231,60.0132622774,FEMA4ImagesEEG,001,202656,
AFNE01.JPG,AFNE01.JPG,AFNE01.JPG,AFNE01.JPG,AFNE01.JPG,AFNE01.JPG,,,,,,,,,4,3,43,8,,,,,,,,,,,,,,,AFSA12.jpg,AFSA18.jpg,AFNE18.jpg,AFNE06.jpg,AFNE06.jpg,FN,3,num_4,32,num_6,0.700143081835,,,2018_Jan_31_1231,60.0132622774,FEMA4ImagesEEG,001,202656,
AFNE01.JPG,AFNE01.JPG,AFNE01.JPG,AFNE01.JPG,AFNE01.JPG,AFNE01.JPG,,,,,,,,,4,4,44,6,,,,,,,,,,,,,,,AFSA17.jpg,AFNE02.jpg,AFSA04.jpg,AFNE09.jpg,AFNE09.jpg,FN,3,num_4,16,num_4,0.616800580639,,,2018_Jan_31_1231,60.0132622774,FEMA4ImagesEEG,001,202656,
AFNE01.JPG,AFNE01.JPG,AFNE01.JPG,AFNE01.JPG,AFNE01.JPG,AFNE01.JPG,,,,,,,,,4,5,45,9,,,,,,,,,,,,,,,AFSA05.jpg,AFSA08.jpg,AFNE17.jpg,AFNE11.jpg,AFNE11.jpg,FN,3,num_4,32,num_6,2.44997509464,,,2018_Jan_31_1231,60.0132622774,FEMA4ImagesEEG,001,202656,
AFNE01.JPG,AFNE01.JPG,AFNE01.JPG,AFNE01.JPG,AFNE01.JPG,AFNE01.JPG,,,,,,,,,4,6,46,5,,,,,,,,,,,,,,,AFNE13.jpg,AFNE05.jpg,AFSA18.jpg,AFSA08.jpg,AFSA08.jpg,FS,4,num_4,32,num_8,0.53356648935,,,2018_Jan_31_1231,60.0132622774,FEMA4ImagesEEG,001,202656,
AFNE01.JPG,AFNE01.JPG,AFNE01.JPG,AFNE01.JPG,AFNE01.JPG,AFNE01.JPG,,,,,,,,,4,7,47,3,,,,,,,,,,,,,,,AFNE10.jpg,AFNE14.jpg,AFSA06.jpg,AFSA10.jpg,AFSA06.jpg,FS,4,num_2,32,num_4,0.983476794674,,,2018_Jan_31_1231,60.0132622774,FEMA4ImagesEEG,001,202656,
AFNE01.JPG,AFNE01.JPG,AFNE01.JPG,AFNE01.JPG,AFNE01.JPG,AFNE01.JPG,,,,,,,,,4,8,48,2,,,,,,,,,,,,,,,AFSA20.jpg,AFNE17.jpg,AFNE04.jpg,AFSA11.jpg,AFSA20.jpg,FS,4,num_8,32,num_6,0.75015660096,,,2018_Jan_31_1231,60.0132622774,FEMA4ImagesEEG,001,202656,
AFNE01.JPG,AFNE01.JPG,AFNE01.JPG,AFNE01.JPG,AFNE01.JPG,AFNE01.JPG,,,,,,,,,4,9,49,1,,,,,,,,,,,,,,,AFNE09.jpg,AFSA13.jpg,AFNE15.jpg,AFSA20.jpg,AFSA20.jpg,FS,4,num_4,32,num_8,0.95012375724,,,2018_Jan_31_1231,60.0132622774,FEMA4ImagesEEG,001,202656,
AFNE01.JPG,AFNE01.JPG,AFNE01.JPG,AFNE01.JPG,AFNE01.JPG,AFNE01.JPG,,,,,,,,,5,0,50,9,,,,,,,,,,,,,,,AFSA01.jpg,AFNE08.jpg,AFNE19.jpg,AFSA20.jpg,AFNE19.jpg,FN,3,num_2,32,num_6,0.933459105901,,,2018_Jan_31_1231,60.0132622774,FEMA4ImagesEEG,001,202656,
AFNE01.JPG,AFNE01.JPG,AFNE01.JPG,AFNE01.JPG,AFNE01.JPG,AFNE01.JPG,,,,,,,,,5,1,51,1,,,,,,,,,,,,,,,AFNE17.jpg,AFSA12.jpg,AFNE18.jpg,AFSA07.jpg,AFNE18.jpg,FN,3,num_2,32,num_6,0.90014744387,,,2018_Jan_31_1231,60.0132622774,FEMA4ImagesEEG,001,202656,
AFNE01.JPG,AFNE01.JPG,AFNE01.JPG,AFNE01.JPG,AFNE01.JPG,AFNE01.JPG,,,,,,,,,5,2,52,5,,,,,,,,,,,,,,,AFNE10.jpg,AFSA03.jpg,AFSA02.jpg,AFNE18.jpg,AFSA03.jpg,FS,4,num_6,32,num_2,1.36674068263,,,2018_Jan_31_1231,60.0132622774,FEMA4ImagesEEG,001,202656,
AFNE01.JPG,AFNE01.JPG,AFNE01.JPG,AFNE01.JPG,AFNE01.JPG,AFNE01.JPG,,,,,,,,,5,3,53,0,,,,,,,,,,,,,,,AFNE15.jpg,AFSA13.jpg,AFNE07.jpg,AFSA11.jpg,AFSA13.jpg,FS,4,num_6,16,num_6,0.900120181032,,,2018_Jan_31_1231,60.0132622774,FEMA4ImagesEEG,001,202656,
AFNE01.JPG,AFNE01.JPG,AFNE01.JPG,AFNE01.JPG,AFNE01.JPG,AFNE01.JPG,,,,,,,,,5,4,54,4,,,,,,,,,,,,,,,AFSA06.jpg,AFNE06.jpg,AFNE16.jpg,AFSA12.jpg,AFNE16.jpg,FN,3,num_2,32,num_8,0.766776990262,,,2018_Jan_31_1231,60.0132622774,FEMA4ImagesEEG,001,202656,
AFNE01.JPG,AFNE01.JPG,AFNE01.JPG,AFNE01.JPG,AFNE01.JPG,AFNE01.JPG,,,,,,,,,5,5,55,6,,,,,,,,,,,,,,,AFSA12.jpg,AFSA01.jpg,AFNE04.jpg,AFNE11.jpg,AFNE04.jpg,FN,3,num_2,32,num_8,0.766787895467,,,2018_Jan_31_1231,60.0132622774,FEMA4ImagesEEG,001,202656,
AFNE01.JPG,AFNE01.JPG,AFNE01.JPG,AFNE01.JPG,AFNE01.JPG,AFNE01.JPG,,,,,,,,,5,6,56,7,,,,,,,,,,,,,,,AFSA16.jpg,AFSA12.jpg,AFNE15.jpg,AFNE10.jpg,AFNE10.jpg,FN,3,num_4,32,num_6,0.75009245309,,,2018_Jan_31_1231,60.0132622774,FEMA4ImagesEEG,001,202656,
AFNE01.JPG,AFNE01.JPG,AFNE01.JPG,AFNE01.JPG,AFNE01.JPG,AFNE01.JPG,,,,,,,,,5,7,57,2,,,,,,,,,,,,,,,AFSA09.jpg,AFSA03.jpg,AFNE08.jpg,AFNE12.jpg,AFNE12.jpg,FN,3,num_4,16,num_4,0.783470508177,,,2018_Jan_31_1231,60.0132622774,FEMA4ImagesEEG,001,202656,
AFNE01.JPG,AFNE01.JPG,AFNE01.JPG,AFNE01.JPG,AFNE01.JPG,AFNE01.JPG,,,,,,,,,5,8,58,8,,,,,,,,,,,,,,,AFNE18.jpg,AFSA19.jpg,AFSA02.jpg,AFNE02.jpg,AFSA02.jpg,FS,4,num_2,16,num_2,0.983489624225,,,2018_Jan_31_1231,60.0132622774,FEMA4ImagesEEG,001,202656,
AFNE01.JPG,AFNE01.JPG,AFNE01.JPG,AFNE01.JPG,AFNE01.JPG,AFNE01.JPG,,,,,,,,,5,9,59,3,,,,,,,,,,,,,,,AFNE04.jpg,AFSA18.jpg,AFSA02.jpg,AFNE11.jpg,AFNE04.jpg,FN,3,num_8,32,num_6,0.66675572528,,,2018_Jan_31_1231,60.0132622774,FEMA4ImagesEEG,001,202656,
,,,,,,,,,,,,,,,,,,,,,,,,,,,,,,,,,,,,,,,,,,,space,33.8972017742,2018_Jan_31_1231,60.0132622774,FEMA4ImagesEEG,001,202656,
AFNE01.JPG,AFNE01.JPG,AFNE01.JPG,AFNE01.JPG,AFNE01.JPG,AFNE01.JPG,,,,,,,,,,,,,0,0,0,0,,,,,,,,,,,AMNE19.jpg,AMSA04.jpg,AMNE04.jpg,AMSA17.jpg,AMSA17.jpg,MS,2,num_4,32,num_8,1.66679357248,,,2018_Jan_31_1231,60.0132622774,FEMA4ImagesEEG,001,202656,
AFNE01.JPG,AFNE01.JPG,AFNE01.JPG,AFNE01.JPG,AFNE01.JPG,AFNE01.JPG,,,,,,,,,,,,,0,1,1,3,,,,,,,,,,,AMSA20.jpg,AMSA05.jpg,AMNE16.jpg,AMNE11.jpg,AMSA05.jpg,MS,2,num_6,16,num_6,0.683526220615,,,2018_Jan_31_1231,60.0132622774,FEMA4ImagesEEG,001,202656,
AFNE01.JPG,AFNE01.JPG,AFNE01.JPG,AFNE01.JPG,AFNE01.JPG,AFNE01.JPG,,,,,,,,,,,,,0,2,2,9,,,,,,,,,,,AMSA08.jpg,AMNE20.jpg,AMNE07.jpg,AMSA14.jpg,AMNE20.jpg,MN,1,num_6,16,num_6,0.666633844376,,,2018_Jan_31_1231,60.0132622774,FEMA4ImagesEEG,001,202656,
AFNE01.JPG,AFNE01.JPG,AFNE01.JPG,AFNE01.JPG,AFNE01.JPG,AFNE01.JPG,,,,,,,,,,,,,0,3,3,5,,,,,,,,,,,AMNE08.jpg,AMNE16.jpg,AMSA13.jpg,AMSA07.jpg,AMSA07.jpg,MS,2,num_4,32,num_8,0.816790830228,,,2018_Jan_31_1231,60.0132622774,FEMA4ImagesEEG,001,202656,
AFNE01.JPG,AFNE01.JPG,AFNE01.JPG,AFNE01.JPG,AFNE01.JPG,AFNE01.JPG,,,,,,,,,,,,,0,4,4,7,,,,,,,,,,,AMSA10.jpg,AMSA12.jpg,AMNE10.jpg,AMNE08.jpg,AMNE10.jpg,MN,1,num_2,32,num_6,0.88351005537,,,2018_Jan_31_1231,60.0132622774,FEMA4ImagesEEG,001,202656,
AFNE01.JPG,AFNE01.JPG,AFNE01.JPG,AFNE01.JPG,AFNE01.JPG,AFNE01.JPG,,,,,,,,,,,,,0,5,5,4,,,,,,,,,,,AMNE08.jpg,AMSA10.jpg,AMSA15.jpg,AMNE15.jpg,AMNE15.jpg,MN,1,num_4,32,num_2,2.18336793571,,,2018_Jan_31_1231,60.0132622774,FEMA4ImagesEEG,001,202656,
AFNE01.JPG,AFNE01.JPG,AFNE01.JPG,AFNE01.JPG,AFNE01.JPG,AFNE01.JPG,,,,,,,,,,,,,0,6,6,6,,,,,,,,,,,AMNE05.jpg,AMNE04.jpg,AMSA11.jpg,AMSA03.jpg,AMNE05.jpg,MN,1,num_8,32,num_4,0.466828982113,,,2018_Jan_31_1231,60.0132622774,FEMA4ImagesEEG,001,202656,
AFNE01.JPG,AFNE01.JPG,AFNE01.JPG,AFNE01.JPG,AFNE01.JPG,AFNE01.JPG,,,,,,,,,,,,,0,7,7,2,,,,,,,,,,,AMNE16.jpg,AMSA01.jpg,AMNE12.jpg,AMSA05.jpg,AMNE12.jpg,MN,1,num_2,32,num_8,0.666769196279,,,2018_Jan_31_1231,60.0132622774,FEMA4ImagesEEG,001,202656,
AFNE01.JPG,AFNE01.JPG,AFNE01.JPG,AFNE01.JPG,AFNE01.JPG,AFNE01.JPG,,,,,,,,,,,,,0,8,8,8,,,,,,,,,,,AMSA09.jpg,AMNE01.jpg,AMNE16.jpg,AMSA13.jpg,AMNE01.jpg,MN,1,num_6,16,num_6,0.416800708976,,,2018_Jan_31_1231,60.0132622774,FEMA4ImagesEEG,001,202656,
AFNE01.JPG,AFNE01.JPG,AFNE01.JPG,AFNE01.JPG,AFNE01.JPG,AFNE01.JPG,,,,,,,,,,,,,0,9,9,1,,,,,,,,,,,AMNE06.jpg,AMNE18.jpg,AMSA05.jpg,AMSA07.jpg,AMNE06.jpg,MN,1,num_8,32,num_2,1.51671548851,,,2018_Jan_31_1231,60.0132622774,FEMA4ImagesEEG,001,202656,
AFNE01.JPG,AFNE01.JPG,AFNE01.JPG,AFNE01.JPG,AFNE01.JPG,AFNE01.JPG,,,,,,,,,,,,,1,0,10,9,,,,,,,,,,,AMNE18.jpg,AMSA11.jpg,AMSA01.jpg,AMNE04.jpg,AMSA11.jpg,MS,2,num_6,32,num_8,0.583575518336,,,2018_Jan_31_1231,60.0132622774,FEMA4ImagesEEG,001,202656,
AFNE01.JPG,AFNE01.JPG,AFNE01.JPG,AFNE01.JPG,AFNE01.JPG,AFNE01.JPG,,,,,,,,,,,,,1,1,11,5,,,,,,,,,,,AMNE09.jpg,AMNE05.jpg,AMSA18.jpg,AMSA12.jpg,AMSA12.jpg,MS,2,num_4,32,num_6,1.01676247676,,,2018_Jan_31_1231,60.0132622774,FEMA4ImagesEEG,001,202656,
AFNE01.JPG,AFNE01.JPG,AFNE01.JPG,AFNE01.JPG,AFNE01.JPG,AFNE01.JPG,,,,,,,,,,,,,1,2,12,7,,,,,,,,,,,AMNE04.jpg,AMSA09.jpg,AMNE10.jpg,AMSA05.jpg,AMNE10.jpg,MN,1,num_2,32,num_6,0.900049618329,,,2018_Jan_31_1231,60.0132622774,FEMA4ImagesEEG,001,202656,
AFNE01.JPG,AFNE01.JPG,AFNE01.JPG,AFNE01.JPG,AFNE01.JPG,AFNE01.JPG,,,,,,,,,,,,,1,3,13,3,,,,,,,,,,,AMSA18.jpg,AMSA19.jpg,AMNE05.jpg,AMNE15.jpg,AMNE15.jpg,MN,1,num_4,16,num_4,0.583457486122,,,2018_Jan_31_1231,60.0132622774,FEMA4ImagesEEG,001,202656,
AFNE01.JPG,AFNE01.JPG,AFNE01.JPG,AFNE01.JPG,AFNE01.JPG,AFNE01.JPG,,,,,,,,,,,,,1,4,14,6,,,,,,,,,,,AMNE08.jpg,AMSA08.jpg,AMNE20.jpg,AMSA11.jpg,AMSA08.jpg,MS,2,num_6,32,num_2,3.7832418211,,,2018_Jan_31_1231,60.0132622774,FEMA4ImagesEEG,001,202656,
AFNE01.JPG,AFNE01.JPG,AFNE01.JPG,AFNE01.JPG,AFNE01.JPG,AFNE01.JPG,,,,,,,,,,,,,1,5,15,2,,,,,,,,,,,AMSA06.jpg,AMSA08.jpg,AMNE14.jpg,AMNE06.jpg,AMSA06.jpg,MS,2,num_8,32,num_6,1.40007704159,,,2018_Jan_31_1231,60.0132622774,FEMA4ImagesEEG,001,202656,
AFNE01.JPG,AFNE01.JPG,AFNE01.JPG,AFNE01.JPG,AFNE01.JPG,AFNE01.JPG,,,,,,,,,,,,,1,6,16,8,,,,,,,,,,,AMNE09.jpg,AMSA15.jpg,AMNE13.jpg,AMSA14.jpg,AMSA15.jpg,MS,2,num_6,32,num_8,1.91671234532,,,2018_Jan_31_1231,60.0132622774,FEMA4ImagesEEG,001,202656,
AFNE01.JPG,AFNE01.JPG,AFNE01.JPG,AFNE01.JPG,AFNE01.JPG,AFNE01.JPG,,,,,,,,,,,,,1,7,17,1,,,,,,,,,,,AMSA03.jpg,AMNE11.jpg,AMSA14.jpg,AMNE03.jpg,AMSA03.jpg,MS,2,num_8,16,num_8,0.616819504299,,,2018_Jan_31_1231,60.0132622774,FEMA4ImagesEEG,001,202656,
AFNE01.JPG,AFNE01.JPG,AFNE01.JPG,AFNE01.JPG,AFNE01.JPG,AFNE01.JPG,,,,,,,,,,,,,1,8,18,0,,,,,,,,,,,AMSA18.jpg,AMSA08.jpg,AMNE20.jpg,AMNE13.jpg,AMNE13.jpg,MN,1,num_4,32,num_6,0.850230467273,,,2018_Jan_31_1231,60.0132622774,FEMA4ImagesEEG,001,202656,
AFNE01.JPG,AFNE01.JPG,AFNE01.JPG,AFNE01.JPG,AFNE01.JPG,AFNE01.JPG,,,,,,,,,,,,,1,9,19,4,,,,,,,,,,,AMNE03.jpg,AMSA17.jpg,AMSA12.jpg,AMNE02.jpg,AMNE03.jpg,MN,1,num_8,32,num_2,0.6668035154,,,2018_Jan_31_1231,60.0132622774,FEMA4ImagesEEG,001,202656,
AFNE01.JPG,AFNE01.JPG,AFNE01.JPG,AFNE01.JPG,AFNE01.JPG,AFNE01.JPG,,,,,,,,,,,,,2,0,20,7,,,,,,,,,,,AMSA03.jpg,AMNE20.jpg,AMSA16.jpg,AMNE10.jpg,AMNE10.jpg,MN,1,num_4,16,num_4,0.899906247971,,,2018_Jan_31_1231,60.0132622774,FEMA4ImagesEEG,001,202656,
AFNE01.JPG,AFNE01.JPG,AFNE01.JPG,AFNE01.JPG,AFNE01.JPG,AFNE01.JPG,,,,,,,,,,,,,2,1,21,6,,,,,,,,,,,AMNE11.jpg,AMSA15.jpg,AMNE18.jpg,AMSA02.jpg,AMNE11.jpg,MN,1,num_8,32,num_6,0.58348474896,,,2018_Jan_31_1231,60.0132622774,FEMA4ImagesEEG,001,202656,
AFNE01.JPG,AFNE01.JPG,AFNE01.JPG,AFNE01.JPG,AFNE01.JPG,AFNE01.JPG,,,,,,,,,,,,,2,2,22,3,,,,,,,,,,,AMNE07.jpg,AMNE13.jpg,AMSA20.jpg,AMSA02.jpg,AMSA02.jpg,MS,2,num_4,16,num_4,0.833479216322,,,2018_Jan_31_1231,60.0132622774,FEMA4ImagesEEG,001,202656,
AFNE01.JPG,AFNE01.JPG,AFNE01.JPG,AFNE01.JPG,AFNE01.JPG,AFNE01.JPG,,,,,,,,,,,,,2,3,23,0,,,,,,,,,,,AMNE19.jpg,AMSA02.jpg,AMNE06.jpg,AMSA17.jpg,AMNE19.jpg,MN,1,num_8,16,num_8,0.383469161112,,,2018_Jan_31_1231,60.0132622774,FEMA4ImagesEEG,001,202656,
AFNE01.JPG,AFNE01.JPG,AFNE01.JPG,AFNE01.JPG,AFNE01.JPG,AFNE01.JPG,,,,,,,,,,,,,2,4,24,8,,,,,,,,,,,AMSA15.jpg,AMNE14.jpg,AMSA18.jpg,AMNE20.jpg,AMSA18.jpg,MS,2,num_2,32,num_6,0.716797148809,,,2018_Jan_31_1231,60.0132622774,FEMA4ImagesEEG,001,202656,
AFNE01.JPG,AFNE01.JPG,AFNE01.JPG,AFNE01.JPG,AFNE01.JPG,AFNE01.JPG,,,,,,,,,,,,,2,5,25,4,,,,,,,,,,,AMSA06.jpg,AMSA15.jpg,AMNE03.jpg,AMNE19.jpg,AMSA06.jpg,MS,2,num_8,32,num_2,1.56671329157,,,2018_Jan_31_1231,60.0132622774,FEMA4ImagesEEG,001,202656,
AFNE01.JPG,AFNE01.JPG,AFNE01.JPG,AFNE01.JPG,AFNE01.JPG,AFNE01.JPG,,,,,,,,,,,,,2,6,26,1,,,,,,,,,,,AMNE18.jpg,AMSA18.jpg,AMSA01.jpg,AMNE12.jpg,AMNE18.jpg,MN,1,num_8,16,num_8,0.750283613685,,,2018_Jan_31_1231,60.0132622774,FEMA4ImagesEEG,001,202656,
AFNE01.JPG,AFNE01.JPG,AFNE01.JPG,AFNE01.JPG,AFNE01.JPG,AFNE01.JPG,,,,,,,,,,,,,2,7,27,9,,,,,,,,,,,AMSA02.jpg,AMSA12.jpg,AMNE03.jpg,AMNE14.jpg,AMNE14.jpg,MN,1,num_4,16,num_4,2.35002054332,,,2018_Jan_31_1231,60.0132622774,FEMA4ImagesEEG,001,202656,
AFNE01.JPG,AFNE01.JPG,AFNE01.JPG,AFNE01.JPG,AFNE01.JPG,AFNE01.JPG,,,,,,,,,,,,,2,8,28,2,,,,,,,,,,,AMSA13.jpg,AMNE15.jpg,AMSA15.jpg,AMNE06.jpg,AMNE15.jpg,MN,1,num_6,16,num_6,1.73338289827,,,2018_Jan_31_1231,60.0132622774,FEMA4ImagesEEG,001,202656,
AFNE01.JPG,AFNE01.JPG,AFNE01.JPG,AFNE01.JPG,AFNE01.JPG,AFNE01.JPG,,,,,,,,,,,,,2,9,29,5,,,,,,,,,,,AMNE07.jpg,AMSA12.jpg,AMNE16.jpg,AMSA16.jpg,AMNE07.jpg,MN,1,num_8,16,num_8,1.08343102515,,,2018_Jan_31_1231,60.0132622774,FEMA4ImagesEEG,001,202656,
AFNE01.JPG,AFNE01.JPG,AFNE01.JPG,AFNE01.JPG,AFNE01.JPG,AFNE01.JPG,,,,,,,,,,,,,3,0,30,2,,,,,,,,,,,AMSA04.jpg,AMNE14.jpg,AMSA02.jpg,AMNE04.jpg,AMSA02.jpg,MS,2,num_2,32,num_4,0.933471935568,,,2018_Jan_31_1231,60.0132622774,FEMA4ImagesEEG,001,202656,
AFNE01.JPG,AFNE01.JPG,AFNE01.JPG,AFNE01.JPG,AFNE01.JPG,AFNE01.JPG,,,,,,,,,,,,,3,1,31,3,,,,,,,,,,,AMSA14.jpg,AMNE05.jpg,AMNE01.jpg,AMSA05.jpg,AMNE05.jpg,MN,1,num_6,16,num_6,0.750146016479,,,2018_Jan_31_1231,60.0132622774,FEMA4ImagesEEG,001,202656,
AFNE01.JPG,AFNE01.JPG,AFNE01.JPG,AFNE01.JPG,AFNE01.JPG,AFNE01.JPG,,,,,,,,,,,,,3,2,32,9,,,,,,,,,,,AMNE09.jpg,AMSA06.jpg,AMSA12.jpg,AMNE20.jpg,AMSA12.jpg,MS,2,num_2,32,num_4,0.98341842019,,,2018_Jan_31_1231,60.0132622774,FEMA4ImagesEEG,001,202656,
AFNE01.JPG,AFNE01.JPG,AFNE01.JPG,AFNE01.JPG,AFNE01.JPG,AFNE01.JPG,,,,,,,,,,,,,3,3,33,7,,,,,,,,,,,AMNE09.jpg,AMNE13.jpg,AMSA18.jpg,AMSA10.jpg,AMSA18.jpg,MS,2,num_2,16,num_2,2.7169007475,,,2018_Jan_31_1231,60.0132622774,FEMA4ImagesEEG,001,202656,
AFNE01.JPG,AFNE01.JPG,AFNE01.JPG,AFNE01.JPG,AFNE01.JPG,AFNE01.JPG,,,,,,,,,,,,,3,4,34,8,,,,,,,,,,,AMSA03.jpg,AMNE03.jpg,AMSA02.jpg,AMNE11.jpg,AMNE03.jpg,MN,1,num_6,16,num_6,1.0668404646,,,2018_Jan_31_1231,60.0132622774,FEMA4ImagesEEG,001,202656,
AFNE01.JPG,AFNE01.JPG,AFNE01.JPG,AFNE01.JPG,AFNE01.JPG,AFNE01.JPG,,,,,,,,,,,,,3,5,35,0,,,,,,,,,,,AMSA13.jpg,AMNE01.jpg,AMNE12.jpg,AMSA01.jpg,AMSA13.jpg,MS,2,num_8,16,num_8,1.41671090189,,,2018_Jan_31_1231,60.0132622774,FEMA4ImagesEEG,001,202656,
AFNE01.JPG,AFNE01.JPG,AFNE01.JPG,AFNE01.JPG,AFNE01.JPG,AFNE01.JPG,,,,,,,,,,,,,3,6,36,5,,,,,,,,,,,AMSA07.jpg,AMSA05.jpg,AMNE03.jpg,AMNE06.jpg,AMSA07.jpg,MS,2,num_8,16,num_8,1.56669789599,,,2018_Jan_31_1231,60.0132622774,FEMA4ImagesEEG,001,202656,
AFNE01.JPG,AFNE01.JPG,AFNE01.JPG,AFNE01.JPG,AFNE01.JPG,AFNE01.JPG,,,,,,,,,,,,,3,7,37,4,,,,,,,,,,,AMSA12.jpg,AMSA18.jpg,AMNE06.jpg,AMNE16.jpg,AMSA18.jpg,MS,2,num_6,16,num_6,1.40003694908,,,2018_Jan_31_1231,60.0132622774,FEMA4ImagesEEG,001,202656,
AFNE01.JPG,AFNE01.JPG,AFNE01.JPG,AFNE01.JPG,AFNE01.JPG,AFNE01.JPG,,,,,,,,,,,,,3,8,38,6,,,,,,,,,,,AMNE07.jpg,AMNE19.jpg,AMSA06.jpg,AMSA04.jpg,AMNE19.jpg,MN,1,num_6,16,num_6,1.7834207936,,,2018_Jan_31_1231,60.0132622774,FEMA4ImagesEEG,001,202656,
AFNE01.JPG,AFNE01.JPG,AFNE01.JPG,AFNE01.JPG,AFNE01.JPG,AFNE01.JPG,,,,,,,,,,,,,3,9,39,1,,,,,,,,,,,AMSA01.jpg,AMSA18.jpg,AMNE15.jpg,AMNE18.jpg,AMNE18.jpg,MN,1,num_4,32,num_2,1.6165199338,,,2018_Jan_31_1231,60.0132622774,FEMA4ImagesEEG,001,202656,
AFNE01.JPG,AFNE01.JPG,AFNE01.JPG,AFNE01.JPG,AFNE01.JPG,AFNE01.JPG,,,,,,,,,,,,,4,0,40,7,,,,,,,,,,,AMNE17.jpg,AMNE02.jpg,AMSA05.jpg,AMSA03.jpg,AMNE02.jpg,MN,1,num_6,32,num_4,0.533477323945,,,2018_Jan_31_1231,60.0132622774,FEMA4ImagesEEG,001,202656,
AFNE01.JPG,AFNE01.JPG,AFNE01.JPG,AFNE01.JPG,AFNE01.JPG,AFNE01.JPG,,,,,,,,,,,,,4,1,41,3,,,,,,,,,,,AMSA04.jpg,AMNE07.jpg,AMNE02.jpg,AMSA02.jpg,AMSA04.jpg,MS,2,num_8,16,num_8,0.966498780996,,,2018_Jan_31_1231,60.0132622774,FEMA4ImagesEEG,001,202656,
AFNE01.JPG,AFNE01.JPG,AFNE01.JPG,AFNE01.JPG,AFNE01.JPG,AFNE01.JPG,,,,,,,,,,,,,4,2,42,0,,,,,,,,,,,AMNE08.jpg,AMSA12.jpg,AMSA17.jpg,AMNE18.jpg,AMSA17.jpg,MS,2,num_2,32,num_6,1.23348056327,,,2018_Jan_31_1231,60.0132622774,FEMA4ImagesEEG,001,202656,
AFNE01.JPG,AFNE01.JPG,AFNE01.JPG,AFNE01.JPG,AFNE01.JPG,AFNE01.JPG,,,,,,,,,,,,,4,3,43,6,,,,,,,,,,,AMSA02.jpg,AMNE07.jpg,AMNE17.jpg,AMSA04.jpg,AMNE07.jpg,MN,1,num_6,32,num_2,2.36669289251,,,2018_Jan_31_1231,60.0132622774,FEMA4ImagesEEG,001,202656,
AFNE01.JPG,AFNE01.JPG,AFNE01.JPG,AFNE01.JPG,AFNE01.JPG,AFNE01.JPG,,,,,,,,,,,,,4,4,44,9,,,,,,,,,,,AMNE20.jpg,AMNE08.jpg,AMSA15.jpg,AMSA19.jpg,AMNE08.jpg,MN,1,num_6,32,num_2,2.99993970105,,,2018_Jan_31_1231,60.0132622774,FEMA4ImagesEEG,001,202656,
AFNE01.JPG,AFNE01.JPG,AFNE01.JPG,AFNE01.JPG,AFNE01.JPG,AFNE01.JPG,,,,,,,,,,,,,4,5,45,1,,,,,,,,,,,AMSA05.jpg,AMNE02.jpg,AMNE12.jpg,AMSA12.jpg,AMNE12.jpg,MN,1,num_2,32,num_8,1.28346168785,,,2018_Jan_31_1231,60.0132622774,FEMA4ImagesEEG,001,202656,
AFNE01.JPG,AFNE01.JPG,AFNE01.JPG,AFNE01.JPG,AFNE01.JPG,AFNE01.JPG,,,,,,,,,,,,,4,6,46,5,,,,,,,,,,,AMNE10.jpg,AMSA03.jpg,AMNE15.jpg,AMSA18.jpg,AMNE10.jpg,MN,1,num_8,32,num_2,1.73337904934,,,2018_Jan_31_1231,60.0132622774,FEMA4ImagesEEG,001,202656,
AFNE01.JPG,AFNE01.JPG,AFNE01.JPG,AFNE01.JPG,AFNE01.JPG,AFNE01.JPG,,,,,,,,,,,,,4,7,47,4,,,,,,,,,,,AMNE07.jpg,AMSA08.jpg,AMNE04.jpg,AMSA16.jpg,AMSA08.jpg,MS,2,num_6,32,num_8,0.416875761934,,,2018_Jan_31_1231,60.0132622774,FEMA4ImagesEEG,001,202656,
AFNE01.JPG,AFNE01.JPG,AFNE01.JPG,AFNE01.JPG,AFNE01.JPG,AFNE01.JPG,,,,,,,,,,,,,4,8,48,8,,,,,,,,,,,AMNE17.jpg,AMSA14.jpg,AMSA01.jpg,AMNE09.jpg,AMSA01.jpg,MS,2,num_2,32,num_6,0.500183302443,,,2018_Jan_31_1231,60.0132622774,FEMA4ImagesEEG,001,202656,
AFNE01.JPG,AFNE01.JPG,AFNE01.JPG,AFNE01.JPG,AFNE01.JPG,AFNE01.JPG,,,,,,,,,,,,,4,9,49,2,,,,,,,,,,,AMSA15.jpg,AMNE17.jpg,AMNE14.jpg,AMSA11.jpg,AMSA11.jpg,MS,2,num_4,32,num_2,0.833449066733,,,2018_Jan_31_1231,60.0132622774,FEMA4ImagesEEG,001,202656,
AFNE01.JPG,AFNE01.JPG,AFNE01.JPG,AFNE01.JPG,AFNE01.JPG,AFNE01.JPG,,,,,,,,,,,,,5,0,50,3,,,,,,,,,,,AMNE17.jpg,AMNE01.jpg,AMSA10.jpg,AMSA05.jpg,AMSA05.jpg,MS,2,num_4,32,num_8,1.01673970441,,,2018_Jan_31_1231,60.0132622774,FEMA4ImagesEEG,001,202656,
AFNE01.JPG,AFNE01.JPG,AFNE01.JPG,AFNE01.JPG,AFNE01.JPG,AFNE01.JPG,,,,,,,,,,,,,5,1,51,1,,,,,,,,,,,AMSA15.jpg,AMNE14.jpg,AMNE13.jpg,AMSA02.jpg,AMSA02.jpg,MS,2,num_4,16,num_4,0.816752020735,,,2018_Jan_31_1231,60.0132622774,FEMA4ImagesEEG,001,202656,
AFNE01.JPG,AFNE01.JPG,AFNE01.JPG,AFNE01.JPG,AFNE01.JPG,AFNE01.JPG,,,,,,,,,,,,,5,2,52,5,,,,,,,,,,,AMSA11.jpg,AMNE09.jpg,AMSA02.jpg,AMNE14.jpg,AMSA02.jpg,MS,2,num_2,32,num_4,1.05004783825,,,2018_Jan_31_1231,60.0132622774,FEMA4ImagesEEG,001,202656,
AFNE01.JPG,AFNE01.JPG,AFNE01.JPG,AFNE01.JPG,AFNE01.JPG,AFNE01.JPG,,,,,,,,,,,,,5,3,53,0,,,,,,,,,,,AMNE20.jpg,AMNE18.jpg,AMSA18.jpg,AMSA20.jpg,AMSA20.jpg,MS,2,num_4,32,num_6,0.78342368023,,,2018_Jan_31_1231,60.0132622774,FEMA4ImagesEEG,001,202656,
AFNE01.JPG,AFNE01.JPG,AFNE01.JPG,AFNE01.JPG,AFNE01.JPG,AFNE01.JPG,,,,,,,,,,,,,5,4,54,6,,,,,,,,,,,AMSA13.jpg,AMSA11.jpg,AMNE11.jpg,AMNE06.jpg,AMSA11.jpg,MS,2,num_6,32,num_2,1.21672995389,,,2018_Jan_31_1231,60.0132622774,FEMA4ImagesEEG,001,202656,
AFNE01.JPG,AFNE01.JPG,AFNE01.JPG,AFNE01.JPG,AFNE01.JPG,AFNE01.JPG,,,,,,,,,,,,,5,5,55,9,,,,,,,,,,,AMSA07.jpg,AMNE19.jpg,AMNE11.jpg,AMSA03.jpg,AMSA03.jpg,MS,2,num_4,32,num_8,0.616800580756,,,2018_Jan_31_1231,60.0132622774,FEMA4ImagesEEG,001,202656,
AFNE01.JPG,AFNE01.JPG,AFNE01.JPG,AFNE01.JPG,AFNE01.JPG,AFNE01.JPG,,,,,,,,,,,,,5,6,56,2,,,,,,,,,,,AMNE02.jpg,AMSA01.jpg,AMSA04.jpg,AMNE18.jpg,AMSA04.jpg,MS,2,num_2,16,num_2,1.31670310802,,,2018_Jan_31_1231,60.0132622774,FEMA4ImagesEEG,001,202656,
AFNE01.JPG,AFNE01.JPG,AFNE01.JPG,AFNE01.JPG,AFNE01.JPG,AFNE01.JPG,,,,,,,,,,,,,5,7,57,4,,,,,,,,,,,AMNE11.jpg,AMSA01.jpg,AMNE15.jpg,AMSA14.jpg,AMSA01.jpg,MS,2,num_6,16,num_6,1.06680357957,,,2018_Jan_31_1231,60.0132622774,FEMA4ImagesEEG,001,202656,
AFNE01.JPG,AFNE01.JPG,AFNE01.JPG,AFNE01.JPG,AFNE01.JPG,AFNE01.JPG,,,,,,,,,,,,,5,8,58,8,,,,,,,,,,,AMNE01.jpg,AMSA14.jpg,AMSA20.jpg,AMNE09.jpg,AMSA14.jpg,MS,2,num_6,32,num_8,1.33341266285,,,2018_Jan_31_1231,60.0132622774,FEMA4ImagesEEG,001,202656,
AFNE01.JPG,AFNE01.JPG,AFNE01.JPG,AFNE01.JPG,AFNE01.JPG,AFNE01.JPG,,,,,,,,,,,,,5,9,59,7,,,,,,,,,,,AMNE15.jpg,AMSA07.jpg,AMNE14.jpg,AMSA12.jpg,AMNE15.jpg,MN,1,num_8,32,num_6,1.05009242101,,,2018_Jan_31_1231,60.0132622774,FEMA4ImagesEEG,001,202656,
,,,,,,,,,,,,,,,,,,,,,,,,,,,,,,,,,,,,,,,,,,,space,38.1805095072,2018_Jan_31_1231,60.0132622774,FEMA4ImagesEEG,001,202656,
AFNE01.JPG,AFNE01.JPG,AFNE01.JPG,AFNE01.JPG,AFNE01.JPG,AFNE01.JPG,,,,,,,,,,,,,,,,,0,0,0,2,,,,,,,AFNE15.jpg,AFSA09.jpg,AFSA16.jpg,AFNE13.jpg,AFNE13.jpg,FN,3,num_4,32,num_8,0.883458416327,,,2018_Jan_31_1231,60.0132622774,FEMA4ImagesEEG,001,202656,
AFNE01.JPG,AFNE01.JPG,AFNE01.JPG,AFNE01.JPG,AFNE01.JPG,AFNE01.JPG,,,,,,,,,,,,,,,,,0,1,1,6,,,,,,,AFNE03.jpg,AFSA05.jpg,AFSA09.jpg,AFNE04.jpg,AFSA09.jpg,FS,4,num_2,32,num_6,0.850134566193,,,2018_Jan_31_1231,60.0132622774,FEMA4ImagesEEG,001,202656,
AFNE01.JPG,AFNE01.JPG,AFNE01.JPG,AFNE01.JPG,AFNE01.JPG,AFNE01.JPG,,,,,,,,,,,,,,,,,0,2,2,9,,,,,,,AFNE17.jpg,AFSA02.jpg,AFNE13.jpg,AFSA15.jpg,AFSA15.jpg,FS,4,num_4,16,num_4,0.683449884644,,,2018_Jan_31_1231,60.0132622774,FEMA4ImagesEEG,001,202656,
AFNE01.JPG,AFNE01.JPG,AFNE01.JPG,AFNE01.JPG,AFNE01.JPG,AFNE01.JPG,,,,,,,,,,,,,,,,,0,3,3,8,,,,,,,AFNE16.jpg,AFSA05.jpg,AFSA20.jpg,AFNE07.jpg,AFSA20.jpg,FS,4,num_2,32,num_6,0.866779973148,,,2018_Jan_31_1231,60.0132622774,FEMA4ImagesEEG,001,202656,
AFNE01.JPG,AFNE01.JPG,AFNE01.JPG,AFNE01.JPG,AFNE01.JPG,AFNE01.JPG,,,,,,,,,,,,,,,,,0,4,4,1,,,,,,,AFNE17.jpg,AFSA18.jpg,AFSA05.jpg,AFNE02.jpg,AFSA18.jpg,FS,4,num_6,32,num_2,0.833452274208,,,2018_Jan_31_1231,60.0132622774,FEMA4ImagesEEG,001,202656,
AFNE01.JPG,AFNE01.JPG,AFNE01.JPG,AFNE01.JPG,AFNE01.JPG,AFNE01.JPG,,,,,,,,,,,,,,,,,0,5,5,4,,,,,,,AFNE11.jpg,AFSA04.jpg,AFNE15.jpg,AFSA07.jpg,AFNE11.jpg,FN,3,num_8,32,num_6,1.31649879704,,,2018_Jan_31_1231,60.0132622774,FEMA4ImagesEEG,001,202656,
AFNE01.JPG,AFNE01.JPG,AFNE01.JPG,AFNE01.JPG,AFNE01.JPG,AFNE01.JPG,,,,,,,,,,,,,,,,,0,6,6,3,,,,,,,AFNE11.jpg,AFNE09.jpg,AFSA01.jpg,AFSA20.jpg,AFNE11.jpg,FN,3,num_8,16,num_8,1.26674411446,,,2018_Jan_31_1231,60.0132622774,FEMA4ImagesEEG,001,202656,
AFNE01.JPG,AFNE01.JPG,AFNE01.JPG,AFNE01.JPG,AFNE01.JPG,AFNE01.JPG,,,,,,,,,,,,,,,,,0,7,7,5,,,,,,,AFSA20.jpg,AFNE08.jpg,AFNE09.jpg,AFSA14.jpg,AFNE09.jpg,FN,3,num_2,32,num_6,0.866774841445,,,2018_Jan_31_1231,60.0132622774,FEMA4ImagesEEG,001,202656,
AFNE01.JPG,AFNE01.JPG,AFNE01.JPG,AFNE01.JPG,AFNE01.JPG,AFNE01.JPG,,,,,,,,,,,,,,,,,0,8,8,7,,,,,,,AFSA20.jpg,AFNE06.jpg,AFNE12.jpg,AFSA16.jpg,AFNE06.jpg,FN,3,num_6,16,num_6,0.750146016595,,,2018_Jan_31_1231,60.0132622774,FEMA4ImagesEEG,001,202656,
AFNE01.JPG,AFNE01.JPG,AFNE01.JPG,AFNE01.JPG,AFNE01.JPG,AFNE01.JPG,,,,,,,,,,,,,,,,,0,9,9,0,,,,,,,AFNE15.jpg,AFNE13.jpg,AFSA13.jpg,AFSA15.jpg,AFSA15.jpg,FS,4,num_4,32,num_8,0.816808470874,,,2018_Jan_31_1231,60.0132622774,FEMA4ImagesEEG,001,202656,
AFNE01.JPG,AFNE01.JPG,AFNE01.JPG,AFNE01.JPG,AFNE01.JPG,AFNE01.JPG,,,,,,,,,,,,,,,,,1,0,10,6,,,,,,,AFNE10.jpg,AFSA19.jpg,AFNE11.jpg,AFSA14.jpg,AFNE11.jpg,FN,3,num_2,32,num_6,0.966739335563,,,2018_Jan_31_1231,60.0132622774,FEMA4ImagesEEG,001,202656,
AFNE01.JPG,AFNE01.JPG,AFNE01.JPG,AFNE01.JPG,AFNE01.JPG,AFNE01.JPG,,,,,,,,,,,,,,,,,1,1,11,9,,,,,,,AFSA15.jpg,AFNE04.jpg,AFNE11.jpg,AFSA06.jpg,AFSA06.jpg,FS,4,num_4,16,num_4,0.883447190397,,,2018_Jan_31_1231,60.0132622774,FEMA4ImagesEEG,001,202656,
AFNE01.JPG,AFNE01.JPG,AFNE01.JPG,AFNE01.JPG,AFNE01.JPG,AFNE01.JPG,,,,,,,,,,,,,,,,,1,2,12,5,,,,,,,AFSA12.jpg,AFSA07.jpg,AFNE02.jpg,AFNE07.jpg,AFSA12.jpg,FS,4,num_8,16,num_8,0.53352479334,,,2018_Jan_31_1231,60.0132622774,FEMA4ImagesEEG,001,202656,
AFNE01.JPG,AFNE01.JPG,AFNE01.JPG,AFNE01.JPG,AFNE01.JPG,AFNE01.JPG,,,,,,,,,,,,,,,,,1,3,13,8,,,,,,,AFSA18.jpg,AFSA15.jpg,AFNE01.jpg,AFNE17.jpg,AFSA15.jpg,FS,4,num_6,16,num_6,0.450162085705,,,2018_Jan_31_1231,60.0132622774,FEMA4ImagesEEG,001,202656,
AFNE01.JPG,AFNE01.JPG,AFNE01.JPG,AFNE01.JPG,AFNE01.JPG,AFNE01.JPG,,,,,,,,,,,,,,,,,1,4,14,2,,,,,,,AFSA18.jpg,AFNE16.jpg,AFSA05.jpg,AFNE07.jpg,AFNE07.jpg,FN,3,num_4,16,num_4,0.766810988658,,,2018_Jan_31_1231,60.0132622774,FEMA4ImagesEEG,001,202656,
AFNE01.JPG,AFNE01.JPG,AFNE01.JPG,AFNE01.JPG,AFNE01.JPG,AFNE01.JPG,,,,,,,,,,,,,,,,,1,5,15,4,,,,,,,AFSA09.jpg,AFNE17.jpg,AFNE20.jpg,AFSA16.jpg,AFSA16.jpg,FS,4,num_4,32,num_6,0.466809417005,,,2018_Jan_31_1231,60.0132622774,FEMA4ImagesEEG,001,202656,
AFNE01.JPG,AFNE01.JPG,AFNE01.JPG,AFNE01.JPG,AFNE01.JPG,AFNE01.JPG,,,,,,,,,,,,,,,,,1,6,16,0,,,,,,,AFSA12.jpg,AFNE05.jpg,AFNE17.jpg,AFSA20.jpg,AFNE05.jpg,FN,3,num_6,32,num_2,2.68331196671,,,2018_Jan_31_1231,60.0132622774,FEMA4ImagesEEG,001,202656,
AFNE01.JPG,AFNE01.JPG,AFNE01.JPG,AFNE01.JPG,AFNE01.JPG,AFNE01.JPG,,,,,,,,,,,,,,,,,1,7,17,7,,,,,,,AFNE05.jpg,AFNE10.jpg,AFSA14.jpg,AFSA09.jpg,AFSA09.jpg,FS,4,num_4,32,num_6,0.9334725769,,,2018_Jan_31_1231,60.0132622774,FEMA4ImagesEEG,001,202656,
AFNE01.JPG,AFNE01.JPG,AFNE01.JPG,AFNE01.JPG,AFNE01.JPG,AFNE01.JPG,,,,,,,,,,,,,,,,,1,8,18,1,,,,,,,AFNE01.jpg,AFSA10.jpg,AFNE06.jpg,AFSA13.jpg,AFSA10.jpg,FS,4,num_6,32,num_2,1.06678016565,,,2018_Jan_31_1231,60.0132622774,FEMA4ImagesEEG,001,202656,
AFNE01.JPG,AFNE01.JPG,AFNE01.JPG,AFNE01.JPG,AFNE01.JPG,AFNE01.JPG,,,,,,,,,,,,,,,,,1,9,19,3,,,,,,,AFNE05.jpg,AFSA19.jpg,AFSA17.jpg,AFNE15.jpg,AFNE05.jpg,FN,3,num_8,32,num_6,0.750113301096,,,2018_Jan_31_1231,60.0132622774,FEMA4ImagesEEG,001,202656,
AFNE01.JPG,AFNE01.JPG,AFNE01.JPG,AFNE01.JPG,AFNE01.JPG,AFNE01.JPG,,,,,,,,,,,,,,,,,2,0,20,0,,,,,,,AFNE05.jpg,AFSA18.jpg,AFSA08.jpg,AFNE18.jpg,AFNE18.jpg,FN,3,num_4,32,num_8,0.766809705645,,,2018_Jan_31_1231,60.0132622774,FEMA4ImagesEEG,001,202656,
AFNE01.JPG,AFNE01.JPG,AFNE01.JPG,AFNE01.JPG,AFNE01.JPG,AFNE01.JPG,,,,,,,,,,,,,,,,,2,1,21,9,,,,,,,AFNE18.jpg,AFSA03.jpg,AFNE19.jpg,AFSA08.jpg,AFNE18.jpg,FN,3,num_8,32,num_6,0.666792931035,,,2018_Jan_31_1231,60.0132622774,FEMA4ImagesEEG,001,202656,
AFNE01.JPG,AFNE01.JPG,AFNE01.JPG,AFNE01.JPG,AFNE01.JPG,AFNE01.JPG,,,,,,,,,,,,,,,,,2,2,22,7,,,,,,,AFSA02.jpg,AFNE09.jpg,AFSA01.jpg,AFNE18.jpg,AFSA02.jpg,FS,4,num_8,16,num_8,0.816810074612,,,2018_Jan_31_1231,60.0132622774,FEMA4ImagesEEG,001,202656,
AFNE01.JPG,AFNE01.JPG,AFNE01.JPG,AFNE01.JPG,AFNE01.JPG,AFNE01.JPG,,,,,,,,,,,,,,,,,2,3,23,3,,,,,,,AFNE17.jpg,AFSA07.jpg,AFNE16.jpg,AFSA18.jpg,AFSA18.jpg,FS,4,num_4,32,num_6,0.750242879847,,,2018_Jan_31_1231,60.0132622774,FEMA4ImagesEEG,001,202656,
AFNE01.JPG,AFNE01.JPG,AFNE01.JPG,AFNE01.JPG,AFNE01.JPG,AFNE01.JPG,,,,,,,,,,,,,,,,,2,4,24,8,,,,,,,AFNE05.jpg,AFSA17.jpg,AFNE13.jpg,AFSA10.jpg,AFNE13.jpg,FN,3,num_2,32,num_8,0.666781063657,,,2018_Jan_31_1231,60.0132622774,FEMA4ImagesEEG,001,202656,
AFNE01.JPG,AFNE01.JPG,AFNE01.JPG,AFNE01.JPG,AFNE01.JPG,AFNE01.JPG,,,,,,,,,,,,,,,,,2,5,25,4,,,,,,,AFNE17.jpg,AFSA07.jpg,AFNE03.jpg,AFSA02.jpg,AFNE03.jpg,FN,3,num_2,32,num_8,0.683493825956,,,2018_Jan_31_1231,60.0132622774,FEMA4ImagesEEG,001,202656,
AFNE01.JPG,AFNE01.JPG,AFNE01.JPG,AFNE01.JPG,AFNE01.JPG,AFNE01.JPG,,,,,,,,,,,,,,,,,2,6,26,1,,,,,,,AFNE11.jpg,AFNE13.jpg,AFSA19.jpg,AFSA18.jpg,AFNE11.jpg,FN,3,num_8,32,num_6,0.550181746949,,,2018_Jan_31_1231,60.0132622774,FEMA4ImagesEEG,001,202656,
AFNE01.JPG,AFNE01.JPG,AFNE01.JPG,AFNE01.JPG,AFNE01.JPG,AFNE01.JPG,,,,,,,,,,,,,,,,,2,7,27,2,,,,,,,AFSA01.jpg,AFSA08.jpg,AFNE10.jpg,AFNE11.jpg,AFNE11.jpg,FN,3,num_4,32,num_8,0.583457165514,,,2018_Jan_31_1231,60.0132622774,FEMA4ImagesEEG,001,202656,
AFNE01.JPG,AFNE01.JPG,AFNE01.JPG,AFNE01.JPG,AFNE01.JPG,AFNE01.JPG,,,,,,,,,,,,,,,,,2,8,28,5,,,,,,,AFNE13.jpg,AFNE05.jpg,AFSA20.jpg,AFSA19.jpg,AFNE05.jpg,FN,3,num_6,32,num_4,2.41664964077,,,2018_Jan_31_1231,60.0132622774,FEMA4ImagesEEG,001,202656,
AFNE01.JPG,AFNE01.JPG,AFNE01.JPG,AFNE01.JPG,AFNE01.JPG,AFNE01.JPG,,,,,,,,,,,,,,,,,2,9,29,6,,,,,,,AFNE11.jpg,AFSA02.jpg,AFSA04.jpg,AFNE18.jpg,AFSA04.jpg,FS,4,num_2,32,num_8,0.766828629305,,,2018_Jan_31_1231,60.0132622774,FEMA4ImagesEEG,001,202656,
AFNE01.JPG,AFNE01.JPG,AFNE01.JPG,AFNE01.JPG,AFNE01.JPG,AFNE01.JPG,,,,,,,,,,,,,,,,,3,0,30,7,,,,,,,AFNE08.jpg,AFSA18.jpg,AFSA08.jpg,AFNE06.jpg,AFSA18.jpg,FS,4,num_6,16,num_6,1.06663454999,,,2018_Jan_31_1231,60.0132622774,FEMA4ImagesEEG,001,202656,
AFNE01.JPG,AFNE01.JPG,AFNE01.JPG,AFNE01.JPG,AFNE01.JPG,AFNE01.JPG,,,,,,,,,,,,,,,,,3,1,31,9,,,,,,,AFSA08.jpg,AFNE11.jpg,AFSA14.jpg,AFNE17.jpg,AFSA08.jpg,FS,4,num_8,32,num_2,1.18342695187,,,2018_Jan_31_1231,60.0132622774,FEMA4ImagesEEG,001,202656,
AFNE01.JPG,AFNE01.JPG,AFNE01.JPG,AFNE01.JPG,AFNE01.JPG,AFNE01.JPG,,,,,,,,,,,,,,,,,3,2,32,6,,,,,,,AFNE18.jpg,AFNE17.jpg,AFSA18.jpg,AFSA11.jpg,AFNE17.jpg,FN,3,num_6,16,num_6,1.71670637955,,,2018_Jan_31_1231,60.0132622774,FEMA4ImagesEEG,001,202656,
AFNE01.JPG,AFNE01.JPG,AFNE01.JPG,AFNE01.JPG,AFNE01.JPG,AFNE01.JPG,,,,,,,,,,,,,,,,,3,3,33,2,,,,,,,AFSA03.jpg,AFSA18.jpg,AFNE01.jpg,AFNE05.jpg,AFNE01.jpg,FN,3,num_2,32,num_4,1.46672249667,,,2018_Jan_31_1231,60.0132622774,FEMA4ImagesEEG,001,202656,
AFNE01.JPG,AFNE01.JPG,AFNE01.JPG,AFNE01.JPG,AFNE01.JPG,AFNE01.JPG,,,,,,,,,,,,,,,,,3,4,34,8,,,,,,,AFSA08.jpg,AFSA07.jpg,AFNE09.jpg,AFNE14.jpg,AFNE09.jpg,FN,3,num_2,32,num_6,0.7334576305,,,2018_Jan_31_1231,60.0132622774,FEMA4ImagesEEG,001,202656,
AFNE01.JPG,AFNE01.JPG,AFNE01.JPG,AFNE01.JPG,AFNE01.JPG,AFNE01.JPG,,,,,,,,,,,,,,,,,3,5,35,0,,,,,,,AFSA07.jpg,AFNE18.jpg,AFNE07.jpg,AFSA04.jpg,AFSA04.jpg,FS,4,num_4,32,num_8,0.583532859921,,,2018_Jan_31_1231,60.0132622774,FEMA4ImagesEEG,001,202656,
AFNE01.JPG,AFNE01.JPG,AFNE01.JPG,AFNE01.JPG,AFNE01.JPG,AFNE01.JPG,,,,,,,,,,,,,,,,,3,6,36,1,,,,,,,AFNE18.jpg,AFSA17.jpg,AFNE04.jpg,AFSA09.jpg,AFNE18.jpg,FN,3,num_8,32,num_2,0.616802505101,,,2018_Jan_31_1231,60.0132622774,FEMA4ImagesEEG,001,202656,
AFNE01.JPG,AFNE01.JPG,AFNE01.JPG,AFNE01.JPG,AFNE01.JPG,AFNE01.JPG,,,,,,,,,,,,,,,,,3,7,37,4,,,,,,,AFSA05.jpg,AFNE17.jpg,AFSA04.jpg,AFNE12.jpg,AFSA05.jpg,FS,4,num_8,32,num_6,0.550160898943,,,2018_Jan_31_1231,60.0132622774,FEMA4ImagesEEG,001,202656,
AFNE01.JPG,AFNE01.JPG,AFNE01.JPG,AFNE01.JPG,AFNE01.JPG,AFNE01.JPG,,,,,,,,,,,,,,,,,3,8,38,5,,,,,,,AFNE13.jpg,AFSA08.jpg,AFSA01.jpg,AFNE09.jpg,AFSA01.jpg,FS,4,num_2,32,num_4,1.50011241902,,,2018_Jan_31_1231,60.0132622774,FEMA4ImagesEEG,001,202656,
AFNE01.JPG,AFNE01.JPG,AFNE01.JPG,AFNE01.JPG,AFNE01.JPG,AFNE01.JPG,,,,,,,,,,,,,,,,,3,9,39,3,,,,,,,AFSA11.jpg,AFNE03.jpg,AFSA13.jpg,AFNE18.jpg,AFNE03.jpg,FN,3,num_6,16,num_6,1.51675109053,,,2018_Jan_31_1231,60.0132622774,FEMA4ImagesEEG,001,202656,
AFNE01.JPG,AFNE01.JPG,AFNE01.JPG,AFNE01.JPG,AFNE01.JPG,AFNE01.JPG,,,,,,,,,,,,,,,,,4,0,40,4,,,,,,,AFNE08.jpg,AFSA07.jpg,AFSA06.jpg,AFNE14.jpg,AFNE14.jpg,FN,3,num_4,16,num_4,0.583537029452,,,2018_Jan_31_1231,60.0132622774,FEMA4ImagesEEG,001,202656,
AFNE01.JPG,AFNE01.JPG,AFNE01.JPG,AFNE01.JPG,AFNE01.JPG,AFNE01.JPG,,,,,,,,,,,,,,,,,4,1,41,6,,,,,,,AFSA15.jpg,AFNE14.jpg,AFNE11.jpg,AFSA13.jpg,AFSA15.jpg,FS,4,num_8,32,num_6,0.700395824271,,,2018_Jan_31_1231,60.0132622774,FEMA4ImagesEEG,001,202656,
AFNE01.JPG,AFNE01.JPG,AFNE01.JPG,AFNE01.JPG,AFNE01.JPG,AFNE01.JPG,,,,,,,,,,,,,,,,,4,2,42,5,,,,,,,AFNE11.jpg,AFSA16.jpg,AFSA15.jpg,AFNE12.jpg,AFNE11.jpg,FN,3,num_8,16,num_8,0.933457823005,,,2018_Jan_31_1231,60.0132622774,FEMA4ImagesEEG,001,202656,
AFNE01.JPG,AFNE01.JPG,AFNE01.JPG,AFNE01.JPG,AFNE01.JPG,AFNE01.JPG,,,,,,,,,,,,,,,,,4,3,43,8,,,,,,,AFNE01.jpg,AFSA13.jpg,AFSA10.jpg,AFNE09.jpg,AFNE01.jpg,FN,3,num_8,32,num_6,0.850143546937,,,2018_Jan_31_1231,60.0132622774,FEMA4ImagesEEG,001,202656,
AFNE01.JPG,AFNE01.JPG,AFNE01.JPG,AFNE01.JPG,AFNE01.JPG,AFNE01.JPG,,,,,,,,,,,,,,,,,4,4,44,1,,,,,,,AFSA03.jpg,AFNE17.jpg,AFSA13.jpg,AFNE03.jpg,AFSA03.jpg,FS,4,num_8,16,num_8,0.916719401604,,,2018_Jan_31_1231,60.0132622774,FEMA4ImagesEEG,001,202656,
AFNE01.JPG,AFNE01.JPG,AFNE01.JPG,AFNE01.JPG,AFNE01.JPG,AFNE01.JPG,,,,,,,,,,,,,,,,,4,5,45,3,,,,,,,AFSA10.jpg,AFSA08.jpg,AFNE08.jpg,AFNE06.jpg,AFNE06.jpg,FN,3,num_4,16,num_4,0.466934505384,,,2018_Jan_31_1231,60.0132622774,FEMA4ImagesEEG,001,202656,
AFNE01.JPG,AFNE01.JPG,AFNE01.JPG,AFNE01.JPG,AFNE01.JPG,AFNE01.JPG,,,,,,,,,,,,,,,,,4,6,46,9,,,,,,,AFSA01.jpg,AFNE09.jpg,AFNE16.jpg,AFSA04.jpg,AFNE16.jpg,FN,3,num_2,32,num_8,0.800149592804,,,2018_Jan_31_1231,60.0132622774,FEMA4ImagesEEG,001,202656,
AFNE01.JPG,AFNE01.JPG,AFNE01.JPG,AFNE01.JPG,AFNE01.JPG,AFNE01.JPG,,,,,,,,,,,,,,,,,4,7,47,0,,,,,,,AFNE13.jpg,AFSA18.jpg,AFSA19.jpg,AFNE08.jpg,AFSA18.jpg,FS,4,num_6,16,num_6,0.749991420191,,,2018_Jan_31_1231,60.0132622774,FEMA4ImagesEEG,001,202656,
AFNE01.JPG,AFNE01.JPG,AFNE01.JPG,AFNE01.JPG,AFNE01.JPG,AFNE01.JPG,,,,,,,,,,,,,,,,,4,8,48,7,,,,,,,AFNE10.jpg,AFSA13.jpg,AFNE13.jpg,AFSA12.jpg,AFNE10.jpg,FN,3,num_8,32,num_6,1.06678850483,,,2018_Jan_31_1231,60.0132622774,FEMA4ImagesEEG,001,202656,
AFNE01.JPG,AFNE01.JPG,AFNE01.JPG,AFNE01.JPG,AFNE01.JPG,AFNE01.JPG,,,,,,,,,,,,,,,,,4,9,49,2,,,,,,,AFSA01.jpg,AFSA10.jpg,AFNE16.jpg,AFNE08.jpg,AFSA10.jpg,FS,4,num_6,32,num_4,0.550126579707,,,2018_Jan_31_1231,60.0132622774,FEMA4ImagesEEG,001,202656,
AFNE01.JPG,AFNE01.JPG,AFNE01.JPG,AFNE01.JPG,AFNE01.JPG,AFNE01.JPG,,,,,,,,,,,,,,,,,5,0,50,7,,,,,,,AFSA02.jpg,AFSA07.jpg,AFNE08.jpg,AFNE06.jpg,AFNE08.jpg,FN,3,num_2,32,num_8,0.733221887145,,,2018_Jan_31_1231,60.0132622774,FEMA4ImagesEEG,001,202656,
AFNE01.JPG,AFNE01.JPG,AFNE01.JPG,AFNE01.JPG,AFNE01.JPG,AFNE01.JPG,,,,,,,,,,,,,,,,,5,1,51,4,,,,,,,AFSA13.jpg,AFNE08.jpg,AFNE12.jpg,AFSA10.jpg,AFSA13.jpg,FS,4,num_8,32,num_6,0.750105924206,,,2018_Jan_31_1231,60.0132622774,FEMA4ImagesEEG,001,202656,
AFNE01.JPG,AFNE01.JPG,AFNE01.JPG,AFNE01.JPG,AFNE01.JPG,AFNE01.JPG,,,,,,,,,,,,,,,,,5,2,52,0,,,,,,,AFNE13.jpg,AFSA12.jpg,AFSA04.jpg,AFNE03.jpg,AFSA04.jpg,FS,4,num_2,32,num_8,0.916771040647,,,2018_Jan_31_1231,60.0132622774,FEMA4ImagesEEG,001,202656,
AFNE01.JPG,AFNE01.JPG,AFNE01.JPG,AFNE01.JPG,AFNE01.JPG,AFNE01.JPG,,,,,,,,,,,,,,,,,5,3,53,3,,,,,,,AFNE06.jpg,AFSA09.jpg,AFNE05.jpg,AFSA02.jpg,AFNE05.jpg,FN,3,num_2,32,num_4,0.850101530086,,,2018_Jan_31_1231,60.0132622774,FEMA4ImagesEEG,001,202656,
AFNE01.JPG,AFNE01.JPG,AFNE01.JPG,AFNE01.JPG,AFNE01.JPG,AFNE01.JPG,,,,,,,,,,,,,,,,,5,4,54,5,,,,,,,AFSA08.jpg,AFNE13.jpg,AFSA15.jpg,AFNE12.jpg,AFNE13.jpg,FN,3,num_6,32,num_8,0.766770896269,,,2018_Jan_31_1231,60.0132622774,FEMA4ImagesEEG,001,202656,
AFNE01.JPG,AFNE01.JPG,AFNE01.JPG,AFNE01.JPG,AFNE01.JPG,AFNE01.JPG,,,,,,,,,,,,,,,,,5,5,55,8,,,,,,,AFSA16.jpg,AFSA11.jpg,AFNE09.jpg,AFNE12.jpg,AFSA16.jpg,FS,4,num_8,32,num_6,0.68346495938,,,2018_Jan_31_1231,60.0132622774,FEMA4ImagesEEG,001,202656,
AFNE01.JPG,AFNE01.JPG,AFNE01.JPG,AFNE01.JPG,AFNE01.JPG,AFNE01.JPG,,,,,,,,,,,,,,,,,5,6,56,9,,,,,,,AFNE13.jpg,AFSA06.jpg,AFSA17.jpg,AFNE17.jpg,AFSA17.jpg,FS,4,num_2,32,num_4,0.816772548133,,,2018_Jan_31_1231,60.0132622774,FEMA4ImagesEEG,001,202656,
AFNE01.JPG,AFNE01.JPG,AFNE01.JPG,AFNE01.JPG,AFNE01.JPG,AFNE01.JPG,,,,,,,,,,,,,,,,,5,7,57,1,,,,,,,AFNE01.jpg,AFSA05.jpg,AFNE06.jpg,AFSA13.jpg,AFSA13.jpg,FS,4,num_4,32,num_6,0.866795689333,,,2018_Jan_31_1231,60.0132622774,FEMA4ImagesEEG,001,202656,
AFNE01.JPG,AFNE01.JPG,AFNE01.JPG,AFNE01.JPG,AFNE01.JPG,AFNE01.JPG,,,,,,,,,,,,,,,,,5,8,58,6,,,,,,,AFNE05.jpg,AFSA16.jpg,AFNE12.jpg,AFSA09.jpg,AFNE12.jpg,FN,3,num_2,16,num_2,0.716782074072,,,2018_Jan_31_1231,60.0132622774,FEMA4ImagesEEG,001,202656,
AFNE01.JPG,AFNE01.JPG,AFNE01.JPG,AFNE01.JPG,AFNE01.JPG,AFNE01.JPG,,,,,,,,,,,,,,,,,5,9,59,2,,,,,,,AFNE19.jpg,AFSA06.jpg,AFNE13.jpg,AFSA14.jpg,AFNE19.jpg,FN,3,num_8,32,num_6,0.583537671017,,,2018_Jan_31_1231,60.0132622774,FEMA4ImagesEEG,001,202656,
,,,,,,,,,,,,,,,,,,,,,,,,,,,,,,,,,,,,,,,,,,,space,42.5968178813,2018_Jan_31_1231,60.0132622774,FEMA4ImagesEEG,001,202656,
AFNE01.JPG,AFNE01.JPG,AFNE01.JPG,AFNE01.JPG,AFNE01.JPG,AFNE01.JPG,,,,,,,,,,,,,,,,,,,,,0,0,0,3,,,AMNE15.jpg,AMSA19.jpg,AMSA12.jpg,AMNE16.jpg,AMNE16.jpg,MN,1,num_4,32,num_8,0.550128183444,,,2018_Jan_31_1231,60.0132622774,FEMA4ImagesEEG,001,202656,
AFNE01.JPG,AFNE01.JPG,AFNE01.JPG,AFNE01.JPG,AFNE01.JPG,AFNE01.JPG,,,,,,,,,,,,,,,,,,,,,0,1,1,0,,,AMSA10.jpg,AMNE07.jpg,AMSA03.jpg,AMNE04.jpg,AMSA03.jpg,MS,2,num_2,32,num_6,0.8833291583,,,2018_Jan_31_1231,60.0132622774,FEMA4ImagesEEG,001,202656,
AFNE01.JPG,AFNE01.JPG,AFNE01.JPG,AFNE01.JPG,AFNE01.JPG,AFNE01.JPG,,,,,,,,,,,,,,,,,,,,,0,2,2,9,,,AMNE20.jpg,AMSA15.jpg,AMSA16.jpg,AMNE05.jpg,AMNE05.jpg,MN,1,num_4,16,num_4,0.816771265003,,,2018_Jan_31_1231,60.0132622774,FEMA4ImagesEEG,001,202656,
AFNE01.JPG,AFNE01.JPG,AFNE01.JPG,AFNE01.JPG,AFNE01.JPG,AFNE01.JPG,,,,,,,,,,,,,,,,,,,,,0,3,3,8,,,AMSA11.jpg,AMSA16.jpg,AMNE14.jpg,AMNE01.jpg,AMSA16.jpg,MS,2,num_6,16,num_6,0.483503255644,,,2018_Jan_31_1231,60.0132622774,FEMA4ImagesEEG,001,202656,
AFNE01.JPG,AFNE01.JPG,AFNE01.JPG,AFNE01.JPG,AFNE01.JPG,AFNE01.JPG,,,,,,,,,,,,,,,,,,,,,0,4,4,5,,,AMNE11.jpg,AMSA06.jpg,AMSA05.jpg,AMNE18.jpg,AMSA05.jpg,MS,2,num_2,16,num_2,0.533536339877,,,2018_Jan_31_1231,60.0132622774,FEMA4ImagesEEG,001,202656,
AFNE01.JPG,AFNE01.JPG,AFNE01.JPG,AFNE01.JPG,AFNE01.JPG,AFNE01.JPG,,,,,,,,,,,,,,,,,,,,,0,5,5,7,,,AMNE03.jpg,AMNE06.jpg,AMSA16.jpg,AMSA09.jpg,AMNE06.jpg,MN,1,num_6,32,num_8,0.833442010451,,,2018_Jan_31_1231,60.0132622774,FEMA4ImagesEEG,001,202656,
AFNE01.JPG,AFNE01.JPG,AFNE01.JPG,AFNE01.JPG,AFNE01.JPG,AFNE01.JPG,,,,,,,,,,,,,,,,,,,,,0,6,6,1,,,AMNE18.jpg,AMSA14.jpg,AMNE05.jpg,AMSA04.jpg,AMNE05.jpg,MN,1,num_2,32,num_6,0.816795320599,,,2018_Jan_31_1231,60.0132622774,FEMA4ImagesEEG,001,202656,
AFNE01.JPG,AFNE01.JPG,AFNE01.JPG,AFNE01.JPG,AFNE01.JPG,AFNE01.JPG,,,,,,,,,,,,,,,,,,,,,0,7,7,4,,,AMNE05.jpg,AMNE15.jpg,AMSA05.jpg,AMSA04.jpg,AMNE15.jpg,MN,1,num_6,16,num_6,0.600243056193,,,2018_Jan_31_1231,60.0132622774,FEMA4ImagesEEG,001,202656,
AFNE01.JPG,AFNE01.JPG,AFNE01.JPG,AFNE01.JPG,AFNE01.JPG,AFNE01.JPG,,,,,,,,,,,,,,,,,,,,,0,8,8,2,,,AMNE14.jpg,AMNE11.jpg,AMSA19.jpg,AMSA01.jpg,AMSA01.jpg,MS,2,num_4,16,num_4,0.633408781956,,,2018_Jan_31_1231,60.0132622774,FEMA4ImagesEEG,001,202656,
AFNE01.JPG,AFNE01.JPG,AFNE01.JPG,AFNE01.JPG,AFNE01.JPG,AFNE01.JPG,,,,,,,,,,,,,,,,,,,,,0,9,9,6,,,AMNE14.jpg,AMSA09.jpg,AMSA19.jpg,AMNE13.jpg,AMSA09.jpg,MS,2,num_6,16,num_6,0.900109275826,,,2018_Jan_31_1231,60.0132622774,FEMA4ImagesEEG,001,202656,
AFNE01.JPG,AFNE01.JPG,AFNE01.JPG,AFNE01.JPG,AFNE01.JPG,AFNE01.JPG,,,,,,,,,,,,,,,,,,,,,1,0,10,7,,,AMNE05.jpg,AMNE19.jpg,AMSA15.jpg,AMSA01.jpg,AMNE19.jpg,MN,1,num_6,16,num_6,0.716780791059,,,2018_Jan_31_1231,60.0132622774,FEMA4ImagesEEG,001,202656,
AFNE01.JPG,AFNE01.JPG,AFNE01.JPG,AFNE01.JPG,AFNE01.JPG,AFNE01.JPG,,,,,,,,,,,,,,,,,,,,,1,1,11,2,,,AMSA07.jpg,AMNE04.jpg,AMNE08.jpg,AMSA08.jpg,AMNE04.jpg,MN,1,num_6,32,num_8,0.766717653605,,,2018_Jan_31_1231,60.0132622774,FEMA4ImagesEEG,001,202656,
AFNE01.JPG,AFNE01.JPG,AFNE01.JPG,AFNE01.JPG,AFNE01.JPG,AFNE01.JPG,,,,,,,,,,,,,,,,,,,,,1,2,12,6,,,AMSA09.jpg,AMSA08.jpg,AMNE12.jpg,AMNE19.jpg,AMSA08.jpg,MS,2,num_6,16,num_6,0.766839534394,,,2018_Jan_31_1231,60.0132622774,FEMA4ImagesEEG,001,202656,
AFNE01.JPG,AFNE01.JPG,AFNE01.JPG,AFNE01.JPG,AFNE01.JPG,AFNE01.JPG,,,,,,,,,,,,,,,,,,,,,1,3,13,1,,,AMSA07.jpg,AMNE16.jpg,AMNE06.jpg,AMSA10.jpg,AMNE06.jpg,MN,1,num_2,16,num_2,2.83313923271,,,2018_Jan_31_1231,60.0132622774,FEMA4ImagesEEG,001,202656,
AFNE01.JPG,AFNE01.JPG,AFNE01.JPG,AFNE01.JPG,AFNE01.JPG,AFNE01.JPG,,,,,,,,,,,,,,,,,,,,,1,4,14,3,,,AMSA10.jpg,AMNE14.jpg,AMSA17.jpg,AMNE09.jpg,AMSA17.jpg,MS,2,num_2,16,num_2,0.683411716716,,,2018_Jan_31_1231,60.0132622774,FEMA4ImagesEEG,001,202656,
AFNE01.JPG,AFNE01.JPG,AFNE01.JPG,AFNE01.JPG,AFNE01.JPG,AFNE01.JPG,,,,,,,,,,,,,,,,,,,,,1,5,15,8,,,AMNE16.jpg,AMSA12.jpg,AMNE07.jpg,AMSA14.jpg,AMNE16.jpg,MN,1,num_8,16,num_8,0.933470973163,,,2018_Jan_31_1231,60.0132622774,FEMA4ImagesEEG,001,202656,
AFNE01.JPG,AFNE01.JPG,AFNE01.JPG,AFNE01.JPG,AFNE01.JPG,AFNE01.JPG,,,,,,,,,,,,,,,,,,,,,1,6,16,5,,,AMSA15.jpg,AMNE07.jpg,AMNE05.jpg,AMSA03.jpg,AMSA15.jpg,MS,2,num_8,32,num_2,0.40020309214,,,2018_Jan_31_1231,60.0132622774,FEMA4ImagesEEG,001,202656,
AFNE01.JPG,AFNE01.JPG,AFNE01.JPG,AFNE01.JPG,AFNE01.JPG,AFNE01.JPG,,,,,,,,,,,,,,,,,,,,,1,7,17,4,,,AMSA07.jpg,AMNE13.jpg,AMNE10.jpg,AMSA10.jpg,AMSA07.jpg,MS,2,num_8,32,num_6,0.583503031172,,,2018_Jan_31_1231,60.0132622774,FEMA4ImagesEEG,001,202656,
AFNE01.JPG,AFNE01.JPG,AFNE01.JPG,AFNE01.JPG,AFNE01.JPG,AFNE01.JPG,,,,,,,,,,,,,,,,,,,,,1,8,18,0,,,AMNE03.jpg,AMSA11.jpg,AMNE14.jpg,AMSA19.jpg,AMNE14.jpg,MN,1,num_2,32,num_4,0.666796138394,,,2018_Jan_31_1231,60.0132622774,FEMA4ImagesEEG,001,202656,
AFNE01.JPG,AFNE01.JPG,AFNE01.JPG,AFNE01.JPG,AFNE01.JPG,AFNE01.JPG,,,,,,,,,,,,,,,,,,,,,1,9,19,9,,,AMSA01.jpg,AMNE01.jpg,AMSA05.jpg,AMNE13.jpg,AMSA01.jpg,MS,2,num_8,32,num_6,1.68343545136,,,2018_Jan_31_1231,60.0132622774,FEMA4ImagesEEG,001,202656,
AFNE01.JPG,AFNE01.JPG,AFNE01.JPG,AFNE01.JPG,AFNE01.JPG,AFNE01.JPG,,,,,,,,,,,,,,,,,,,,,2,0,20,2,,,AMSA01.jpg,AMSA11.jpg,AMNE05.jpg,AMNE08.jpg,AMSA11.jpg,MS,2,num_6,16,num_6,1.00008980709,,,2018_Jan_31_1231,60.0132622774,FEMA4ImagesEEG,001,202656,
AFNE01.JPG,AFNE01.JPG,AFNE01.JPG,AFNE01.JPG,AFNE01.JPG,AFNE01.JPG,,,,,,,,,,,,,,,,,,,,,2,1,21,0,,,AMNE06.jpg,AMNE02.jpg,AMSA15.jpg,AMSA18.jpg,AMSA15.jpg,MS,2,num_2,32,num_4,1.550127542,,,2018_Jan_31_1231,60.0132622774,FEMA4ImagesEEG,001,202656,
AFNE01.JPG,AFNE01.JPG,AFNE01.JPG,AFNE01.JPG,AFNE01.JPG,AFNE01.JPG,,,,,,,,,,,,,,,,,,,,,2,2,22,7,,,AMSA05.jpg,AMNE10.jpg,AMSA09.jpg,AMNE14.jpg,AMNE10.jpg,MN,1,num_6,32,num_8,1.18342278223,,,2018_Jan_31_1231,60.0132622774,FEMA4ImagesEEG,001,202656,
AFNE01.JPG,AFNE01.JPG,AFNE01.JPG,AFNE01.JPG,AFNE01.JPG,AFNE01.JPG,,,,,,,,,,,,,,,,,,,,,2,3,23,3,,,AMSA11.jpg,AMNE05.jpg,AMNE02.jpg,AMSA14.jpg,AMNE05.jpg,MN,1,num_6,32,num_2,0.716799714603,,,2018_Jan_31_1231,60.0132622774,FEMA4ImagesEEG,001,202656,
AFNE01.JPG,AFNE01.JPG,AFNE01.JPG,AFNE01.JPG,AFNE01.JPG,AFNE01.JPG,,,,,,,,,,,,,,,,,,,,,2,4,24,1,,,AMSA15.jpg,AMNE01.jpg,AMNE16.jpg,AMSA02.jpg,AMNE01.jpg,MN,1,num_6,16,num_6,0.783492959919,,,2018_Jan_31_1231,60.0132622774,FEMA4ImagesEEG,001,202656,
AFNE01.JPG,AFNE01.JPG,AFNE01.JPG,AFNE01.JPG,AFNE01.JPG,AFNE01.JPG,,,,,,,,,,,,,,,,,,,,,2,5,25,4,,,AMSA20.jpg,AMSA09.jpg,AMNE09.jpg,AMNE14.jpg,AMSA20.jpg,MS,2,num_8,32,num_6,1.58338018809,,,2018_Jan_31_1231,60.0132622774,FEMA4ImagesEEG,001,202656,
AFNE01.JPG,AFNE01.JPG,AFNE01.JPG,AFNE01.JPG,AFNE01.JPG,AFNE01.JPG,,,,,,,,,,,,,,,,,,,,,2,6,26,8,,,AMNE16.jpg,AMNE09.jpg,AMSA11.jpg,AMSA05.jpg,AMNE16.jpg,MN,1,num_8,16,num_8,0.983466210309,,,2018_Jan_31_1231,60.0132622774,FEMA4ImagesEEG,001,202656,
AFNE01.JPG,AFNE01.JPG,AFNE01.JPG,AFNE01.JPG,AFNE01.JPG,AFNE01.JPG,,,,,,,,,,,,,,,,,,,,,2,7,27,5,,,AMSA08.jpg,AMNE12.jpg,AMSA03.jpg,AMNE17.jpg,AMNE17.jpg,MN,1,num_4,16,num_4,1.30009266164,,,2018_Jan_31_1231,60.0132622774,FEMA4ImagesEEG,001,202656,
AFNE01.JPG,AFNE01.JPG,AFNE01.JPG,AFNE01.JPG,AFNE01.JPG,AFNE01.JPG,,,,,,,,,,,,,,,,,,,,,2,8,28,6,,,AMSA10.jpg,AMNE18.jpg,AMSA11.jpg,AMNE08.jpg,AMSA11.jpg,MS,2,num_2,16,num_2,1.33343254868,,,2018_Jan_31_1231,60.0132622774,FEMA4ImagesEEG,001,202656,
AFNE01.JPG,AFNE01.JPG,AFNE01.JPG,AFNE01.JPG,AFNE01.JPG,AFNE01.JPG,,,,,,,,,,,,,,,,,,,,,2,9,29,9,,,AMNE05.jpg,AMNE01.jpg,AMSA14.jpg,AMSA20.jpg,AMSA20.jpg,MS,2,num_4,16,num_4,2.35001220414,,,2018_Jan_31_1231,60.0132622774,FEMA4ImagesEEG,001,202656,
AFNE01.JPG,AFNE01.JPG,AFNE01.JPG,AFNE01.JPG,AFNE01.JPG,AFNE01.JPG,,,,,,,,,,,,,,,,,,,,,3,0,30,5,,,AMSA11.jpg,AMSA15.jpg,AMNE09.jpg,AMNE11.jpg,AMSA11.jpg,MS,2,num_8,16,num_8,0.93347001099,,,2018_Jan_31_1231,60.0132622774,FEMA4ImagesEEG,001,202656,
AFNE01.JPG,AFNE01.JPG,AFNE01.JPG,AFNE01.JPG,AFNE01.JPG,AFNE01.JPG,,,,,,,,,,,,,,,,,,,,,3,1,31,6,,,AMSA05.jpg,AMNE11.jpg,AMNE14.jpg,AMSA07.jpg,AMSA07.jpg,MS,2,num_4,32,num_6,0.83346959413,,,2018_Jan_31_1231,60.0132622774,FEMA4ImagesEEG,001,202656,
AFNE01.JPG,AFNE01.JPG,AFNE01.JPG,AFNE01.JPG,AFNE01.JPG,AFNE01.JPG,,,,,,,,,,,,,,,,,,,,,3,2,32,3,,,AMNE04.jpg,AMSA15.jpg,AMSA01.jpg,AMNE06.jpg,AMSA01.jpg,MS,2,num_2,32,num_8,1.1500905928,,,2018_Jan_31_1231,60.0132622774,FEMA4ImagesEEG,001,202656,
AFNE01.JPG,AFNE01.JPG,AFNE01.JPG,AFNE01.JPG,AFNE01.JPG,AFNE01.JPG,,,,,,,,,,,,,,,,,,,,,3,3,33,1,,,AMSA18.jpg,AMNE04.jpg,AMSA08.jpg,AMNE03.jpg,AMSA18.jpg,MS,2,num_8,32,num_4,0.900083937449,,,2018_Jan_31_1231,60.0132622774,FEMA4ImagesEEG,001,202656,
AFNE01.JPG,AFNE01.JPG,AFNE01.JPG,AFNE01.JPG,AFNE01.JPG,AFNE01.JPG,,,,,,,,,,,,,,,,,,,,,3,4,34,2,,,AMSA06.jpg,AMNE10.jpg,AMSA14.jpg,AMNE19.jpg,AMNE10.jpg,MN,1,num_6,32,num_8,0.750139281037,,,2018_Jan_31_1231,60.0132622774,FEMA4ImagesEEG,001,202656,
AFNE01.JPG,AFNE01.JPG,AFNE01.JPG,AFNE01.JPG,AFNE01.JPG,AFNE01.JPG,,,,,,,,,,,,,,,,,,,,,3,5,35,0,,,AMSA18.jpg,AMNE16.jpg,AMSA04.jpg,AMNE03.jpg,AMNE03.jpg,MN,1,num_4,32,num_6,0.366802905919,,,2018_Jan_31_1231,60.0132622774,FEMA4ImagesEEG,001,202656,
AFNE01.JPG,AFNE01.JPG,AFNE01.JPG,AFNE01.JPG,AFNE01.JPG,AFNE01.JPG,,,,,,,,,,,,,,,,,,,,,3,6,36,8,,,AMNE06.jpg,AMNE04.jpg,AMSA18.jpg,AMSA08.jpg,AMNE04.jpg,MN,1,num_6,32,num_4,0.733461800148,,,2018_Jan_31_1231,60.0132622774,FEMA4ImagesEEG,001,202656,
AFNE01.JPG,AFNE01.JPG,AFNE01.JPG,AFNE01.JPG,AFNE01.JPG,AFNE01.JPG,,,,,,,,,,,,,,,,,,,,,3,7,37,9,,,AMSA16.jpg,AMNE08.jpg,AMNE09.jpg,AMSA01.jpg,AMNE09.jpg,MN,1,num_2,32,num_6,0.633450478083,,,2018_Jan_31_1231,60.0132622774,FEMA4ImagesEEG,001,202656,
AFNE01.JPG,AFNE01.JPG,AFNE01.JPG,AFNE01.JPG,AFNE01.JPG,AFNE01.JPG,,,,,,,,,,,,,,,,,,,,,3,8,38,4,,,AMNE06.jpg,AMSA08.jpg,AMNE09.jpg,AMSA10.jpg,AMNE09.jpg,MN,1,num_2,32,num_6,0.616758243064,,,2018_Jan_31_1231,60.0132622774,FEMA4ImagesEEG,001,202656,
