IPosition2,IPosition3,IPosition1,IPosition6,IPosition4,IPosition5,TrialsM1.thisRepN,TrialsM1.thisTrialN,TrialsM1.thisN,TrialsM1.thisIndex,TrialsF1.thisRepN,TrialsF1.thisTrialN,TrialsF1.thisN,TrialsF1.thisIndex,TrialsM2.thisRepN,TrialsM2.thisTrialN,TrialsM2.thisN,TrialsM2.thisIndex,TrialsF2.thisRepN,TrialsF2.thisTrialN,TrialsF2.thisN,TrialsF2.thisIndex,TrialsM3.thisRepN,TrialsM3.thisTrialN,TrialsM3.thisN,TrialsM3.thisIndex,TrialsF3.thisRepN,TrialsF3.thisTrialN,TrialsF3.thisN,TrialsF3.thisIndex,InstrKey_resp.keys,InstrKey_resp.rt,Image0 _Position,Image1 _Position,Image2 _Position,Image3 _Position,Center_image,condition,code,correct_answer,accuracy,Key_Resp.keys,Key_Resp.rt,BreakKey_resp.keys,BreakKey_resp.rt,date,frameRate,expName,session,participant,
,,,,,,,,,,,,,,,,,,,,,,,,,,,,,,space,18.1493695709,,,,,,,,,,,,,,2018_Feb_06_1847,60.0034448806,MAFE4ImagesEEG,001,202608,
AFSA25.JPG,AFNE24.JPG,AFSA24.JPG,AFNE21.JPG,AFSA21.JPG,AFNE25.JPG,0,0,0,2,,,,,,,,,,,,,,,,,,,,,,,AMNE08.jpg,AMNE13.jpg,AMSA03.jpg,AMSA06.jpg,AMNE13.jpg,MN,1,num_6,48,None,,,,2018_Feb_06_1847,60.0034448806,MAFE4ImagesEEG,001,202608,
AMSA25.JPG,AMNE24.JPG,AMSA24.JPG,AMNE26.JPG,AMSA21.JPG,AMNE25.JPG,0,1,1,3,,,,,,,,,,,,,,,,,,,,,,,AMNE12.jpg,AMSA11.jpg,AMSA03.jpg,AMNE17.jpg,AMNE17.jpg,MN,1,num_4,32,num_6,1.85006977688,,,2018_Feb_06_1847,60.0034448806,MAFE4ImagesEEG,001,202608,
AMNE22.JPG,AMSA24.JPG,AMSA22.JPG,AMNE25.JPG,AMNE24.JPG,AMSA25.JPG,0,2,2,7,,,,,,,,,,,,,,,,,,,,,,,AMNE06.jpg,AMSA04.jpg,AMSA20.jpg,AMNE02.jpg,AMNE06.jpg,MN,1,num_8,16,num_8,1.11673274427,,,2018_Feb_06_1847,60.0034448806,MAFE4ImagesEEG,001,202608,
AMNE23.JPG,AMNE24.JPG,AMNE22.JPG,AMSA24.JPG,AMSA22.JPG,AMSA23.JPG,0,3,3,9,,,,,,,,,,,,,,,,,,,,,,,AMNE19.jpg,AMSA12.jpg,AMSA08.jpg,AMNE17.jpg,AMNE17.jpg,MN,1,num_4,32,num_2,1.60010353476,,,2018_Feb_06_1847,60.0034448806,MAFE4ImagesEEG,001,202608,
AMSA21.JPG,AMNE23.JPG,AMNE21.JPG,AMSA25.JPG,AMNE25.JPG,AMSA23.JPG,0,4,4,5,,,,,,,,,,,,,,,,,,,,,,,AMSA05.jpg,AMNE02.jpg,AMNE16.jpg,AMSA06.jpg,AMSA05.jpg,MS,2,num_8,16,num_8,1.45014957665,,,2018_Feb_06_1847,60.0034448806,MAFE4ImagesEEG,001,202608,
AFNE23.JPG,AFNE24.JPG,AFNE22.JPG,AFSA24.JPG,AFSA22.JPG,AFSA23.JPG,0,5,5,8,,,,,,,,,,,,,,,,,,,,,,,AMSA01.jpg,AMSA12.jpg,AMNE17.jpg,AMNE08.jpg,AMNE08.jpg,MN,1,num_4,16,num_4,2.1667109821,,,2018_Feb_06_1847,60.0034448806,MAFE4ImagesEEG,001,202608,
AMSA21.JPG,AMNE22.JPG,AMNE21.JPG,AMSA23.JPG,AMSA22.JPG,AMNE23.JPG,0,6,6,1,,,,,,,,,,,,,,,,,,,,,,,AMSA10.jpg,AMNE11.jpg,AMNE17.jpg,AMSA05.jpg,AMSA05.jpg,MS,2,num_4,32,num_8,1.88342217286,,,2018_Feb_06_1847,60.0034448806,MAFE4ImagesEEG,001,202608,
AFSA21.JPG,AFNE22.JPG,AFNE21.JPG,AFSA23.JPG,AFSA22.JPG,AFNE23.JPG,0,7,7,0,,,,,,,,,,,,,,,,,,,,,,,AMNE04.jpg,AMSA03.jpg,AMNE12.jpg,AMSA07.jpg,AMNE04.jpg,MN,1,num_8,16,num_8,1.1500957245,,,2018_Feb_06_1847,60.0034448806,MAFE4ImagesEEG,001,202608,
AFNE22.JPG,AFSA24.JPG,AFSA22.JPG,AFNE25.JPG,AFNE24.JPG,AFSA25.JPG,0,8,8,6,,,,,,,,,,,,,,,,,,,,,,,AMSA20.jpg,AMNE08.jpg,AMNE17.jpg,AMSA14.jpg,AMSA20.jpg,MS,2,num_8,16,num_8,1.40013541607,,,2018_Feb_06_1847,60.0034448806,MAFE4ImagesEEG,001,202608,
AFSA21.JPG,AFNE23.JPG,AFNE21.JPG,AFSA25.JPG,AFNE25.JPG,AFSA23.JPG,0,9,9,4,,,,,,,,,,,,,,,,,,,,,,,AMSA13.jpg,AMNE13.jpg,AMSA05.jpg,AMNE12.jpg,AMNE13.jpg,MN,1,num_6,32,num_8,1.95003427099,,,2018_Feb_06_1847,60.0034448806,MAFE4ImagesEEG,001,202608,
AFSA25.JPG,AFNE24.JPG,AFSA24.JPG,AFNE21.JPG,AFSA21.JPG,AFNE25.JPG,,,,,0,0,0,2,,,,,,,,,,,,,,,,,,,AFNE07.jpg,AFNE19.jpg,AFSA11.jpg,AFSA03.jpg,AFNE07.jpg,FN,3,num_8,16,num_8,0.850119170733,,,2018_Feb_06_1847,60.0034448806,MAFE4ImagesEEG,001,202608,
AMNE23.JPG,AMNE24.JPG,AMNE22.JPG,AMSA24.JPG,AMSA22.JPG,AMSA23.JPG,,,,,0,1,1,9,,,,,,,,,,,,,,,,,,,AFNE12.jpg,AFSA07.jpg,AFSA09.jpg,AFNE15.jpg,AFNE15.jpg,FN,3,num_4,32,num_6,1.53341638343,,,2018_Feb_06_1847,60.0034448806,MAFE4ImagesEEG,001,202608,
AFSA21.JPG,AFNE23.JPG,AFNE21.JPG,AFSA25.JPG,AFNE25.JPG,AFSA23.JPG,,,,,0,2,2,4,,,,,,,,,,,,,,,,,,,AFSA06.jpg,AFSA01.jpg,AFNE04.jpg,AFNE17.jpg,AFNE17.jpg,FN,3,num_4,16,num_4,0.966811501654,,,2018_Feb_06_1847,60.0034448806,MAFE4ImagesEEG,001,202608,
AMSA21.JPG,AMNE23.JPG,AMNE21.JPG,AMSA25.JPG,AMNE25.JPG,AMSA23.JPG,,,,,0,3,3,5,,,,,,,,,,,,,,,,,,,AFSA16.jpg,AFSA02.jpg,AFNE12.jpg,AFNE07.jpg,AFSA02.jpg,FS,4,num_6,32,num_8,1.51669816859,,,2018_Feb_06_1847,60.0034448806,MAFE4ImagesEEG,001,202608,
AMSA21.JPG,AMNE22.JPG,AMNE21.JPG,AMSA23.JPG,AMSA22.JPG,AMNE23.JPG,,,,,0,4,4,1,,,,,,,,,,,,,,,,,,,AFSA07.jpg,AFNE20.jpg,AFNE12.jpg,AFSA09.jpg,AFSA09.jpg,FS,4,num_4,16,num_4,0.900112483185,,,2018_Feb_06_1847,60.0034448806,MAFE4ImagesEEG,001,202608,
AFNE23.JPG,AFNE24.JPG,AFNE22.JPG,AFSA24.JPG,AFSA22.JPG,AFSA23.JPG,,,,,0,5,5,8,,,,,,,,,,,,,,,,,,,AFSA19.jpg,AFNE05.jpg,AFSA03.jpg,AFNE02.jpg,AFSA19.jpg,FS,4,num_8,16,num_8,1.00009910855,,,2018_Feb_06_1847,60.0034448806,MAFE4ImagesEEG,001,202608,
AFNE22.JPG,AFSA24.JPG,AFSA22.JPG,AFNE25.JPG,AFNE24.JPG,AFSA25.JPG,,,,,0,6,6,6,,,,,,,,,,,,,,,,,,,AFNE03.jpg,AFSA04.jpg,AFNE12.jpg,AFSA06.jpg,AFNE12.jpg,FN,3,num_2,32,num_8,0.683488052571,,,2018_Feb_06_1847,60.0034448806,MAFE4ImagesEEG,001,202608,
AFSA21.JPG,AFNE22.JPG,AFNE21.JPG,AFSA23.JPG,AFSA22.JPG,AFNE23.JPG,,,,,0,7,7,0,,,,,,,,,,,,,,,,,,,AFNE02.jpg,AFNE01.jpg,AFSA09.jpg,AFSA17.jpg,AFSA09.jpg,FS,4,num_2,32,num_8,0.883482150966,,,2018_Feb_06_1847,60.0034448806,MAFE4ImagesEEG,001,202608,
AMNE22.JPG,AMSA24.JPG,AMSA22.JPG,AMNE25.JPG,AMNE24.JPG,AMSA25.JPG,,,,,0,8,8,7,,,,,,,,,,,,,,,,,,,AFNE09.jpg,AFSA01.jpg,AFNE18.jpg,AFSA20.jpg,AFNE09.jpg,FN,3,num_8,16,num_8,1.45009697555,,,2018_Feb_06_1847,60.0034448806,MAFE4ImagesEEG,001,202608,
AMSA25.JPG,AMNE24.JPG,AMSA24.JPG,AMNE26.JPG,AMSA21.JPG,AMNE25.JPG,,,,,0,9,9,3,,,,,,,,,,,,,,,,,,,AFSA01.jpg,AFSA09.jpg,AFNE09.jpg,AFNE20.jpg,AFNE20.jpg,FN,3,num_4,16,num_4,1.03349993611,,,2018_Feb_06_1847,60.0034448806,MAFE4ImagesEEG,001,202608,
AMNE22.JPG,AMSA24.JPG,AMSA22.JPG,AMNE25.JPG,AMNE24.JPG,AMSA25.JPG,,,,,,,,,0,0,0,7,,,,,,,,,,,,,,,AMNE20.jpg,AMNE04.jpg,AMSA10.jpg,AMSA06.jpg,AMSA10.jpg,MS,2,num_2,16,num_2,1.06675322354,,,2018_Feb_06_1847,60.0034448806,MAFE4ImagesEEG,001,202608,
AMSA25.JPG,AMNE24.JPG,AMSA24.JPG,AMNE26.JPG,AMSA21.JPG,AMNE25.JPG,,,,,,,,,0,1,1,3,,,,,,,,,,,,,,,AMSA15.jpg,AMSA20.jpg,AMNE02.jpg,AMNE09.jpg,AMSA20.jpg,MS,2,num_6,32,num_8,0.966781352414,,,2018_Feb_06_1847,60.0034448806,MAFE4ImagesEEG,001,202608,
AFSA21.JPG,AFNE23.JPG,AFNE21.JPG,AFSA25.JPG,AFNE25.JPG,AFSA23.JPG,,,,,,,,,0,2,2,4,,,,,,,,,,,,,,,AMSA06.jpg,AMSA02.jpg,AMNE01.jpg,AMNE09.jpg,AMNE09.jpg,MN,1,num_4,32,num_2,1.53345519304,,,2018_Feb_06_1847,60.0034448806,MAFE4ImagesEEG,001,202608,
AMSA21.JPG,AMNE23.JPG,AMNE21.JPG,AMSA25.JPG,AMNE25.JPG,AMSA23.JPG,,,,,,,,,0,3,3,5,,,,,,,,,,,,,,,AMSA15.jpg,AMSA05.jpg,AMNE11.jpg,AMNE18.jpg,AMSA05.jpg,MS,2,num_6,16,num_6,0.733493553242,,,2018_Feb_06_1847,60.0034448806,MAFE4ImagesEEG,001,202608,
AMSA21.JPG,AMNE22.JPG,AMNE21.JPG,AMSA23.JPG,AMSA22.JPG,AMNE23.JPG,,,,,,,,,0,4,4,1,,,,,,,,,,,,,,,AMSA13.jpg,AMNE11.jpg,AMSA16.jpg,AMNE19.jpg,AMSA13.jpg,MS,2,num_8,16,num_8,1.43348620832,,,2018_Feb_06_1847,60.0034448806,MAFE4ImagesEEG,001,202608,
AFNE23.JPG,AFNE24.JPG,AFNE22.JPG,AFSA24.JPG,AFSA22.JPG,AFSA23.JPG,,,,,,,,,0,5,5,8,,,,,,,,,,,,,,,AMSA16.jpg,AMNE12.jpg,AMNE20.jpg,AMSA19.jpg,AMNE12.jpg,MN,1,num_6,32,num_2,1.95003266749,,,2018_Feb_06_1847,60.0034448806,MAFE4ImagesEEG,001,202608,
AFSA21.JPG,AFNE22.JPG,AFNE21.JPG,AFSA23.JPG,AFSA22.JPG,AFNE23.JPG,,,,,,,,,0,6,6,0,,,,,,,,,,,,,,,AMNE07.jpg,AMSA17.jpg,AMSA07.jpg,AMNE16.jpg,AMNE07.jpg,MN,1,num_8,16,num_8,1.13341535698,,,2018_Feb_06_1847,60.0034448806,MAFE4ImagesEEG,001,202608,
AFNE22.JPG,AFSA24.JPG,AFSA22.JPG,AFNE25.JPG,AFNE24.JPG,AFSA25.JPG,,,,,,,,,0,7,7,6,,,,,,,,,,,,,,,AMNE14.jpg,AMSA10.jpg,AMNE18.jpg,AMSA07.jpg,AMSA07.jpg,MS,2,num_4,16,num_4,0.650118657621,,,2018_Feb_06_1847,60.0034448806,MAFE4ImagesEEG,001,202608,
AMNE23.JPG,AMNE24.JPG,AMNE22.JPG,AMSA24.JPG,AMSA22.JPG,AMSA23.JPG,,,,,,,,,0,8,8,9,,,,,,,,,,,,,,,AMSA08.jpg,AMNE01.jpg,AMSA20.jpg,AMNE15.jpg,AMSA20.jpg,MS,2,num_2,32,num_4,1.75007160497,,,2018_Feb_06_1847,60.0034448806,MAFE4ImagesEEG,001,202608,
AFSA25.JPG,AFNE24.JPG,AFSA24.JPG,AFNE21.JPG,AFSA21.JPG,AFNE25.JPG,,,,,,,,,0,9,9,2,,,,,,,,,,,,,,,AMNE07.jpg,AMSA10.jpg,AMNE02.jpg,AMSA13.jpg,AMSA13.jpg,MS,2,num_4,32,num_8,1.31672908808,,,2018_Feb_06_1847,60.0034448806,MAFE4ImagesEEG,001,202608,
AFSA25.JPG,AFNE24.JPG,AFSA24.JPG,AFNE21.JPG,AFSA21.JPG,AFNE25.JPG,,,,,,,,,,,,,0,0,0,2,,,,,,,,,,,AFNE04.jpg,AFSA14.jpg,AFSA09.jpg,AFNE11.jpg,AFNE04.jpg,FN,3,num_8,32,num_2,1.433448361,,,2018_Feb_06_1847,60.0034448806,MAFE4ImagesEEG,001,202608,
AMSA21.JPG,AMNE23.JPG,AMNE21.JPG,AMSA25.JPG,AMNE25.JPG,AMSA23.JPG,,,,,,,,,,,,,0,1,1,5,,,,,,,,,,,AFNE19.jpg,AFSA12.jpg,AFSA17.jpg,AFNE04.jpg,AFNE19.jpg,FN,3,num_8,32,num_6,2.35002343007,,,2018_Feb_06_1847,60.0034448806,MAFE4ImagesEEG,001,202608,
AMSA21.JPG,AMNE22.JPG,AMNE21.JPG,AMSA23.JPG,AMSA22.JPG,AMNE23.JPG,,,,,,,,,,,,,0,2,2,1,,,,,,,,,,,AFNE13.jpg,AFSA19.jpg,AFSA10.jpg,AFNE06.jpg,AFNE13.jpg,FN,3,num_8,32,num_4,1.05015432369,,,2018_Feb_06_1847,60.0034448806,MAFE4ImagesEEG,001,202608,
AMNE22.JPG,AMSA24.JPG,AMSA22.JPG,AMNE25.JPG,AMNE24.JPG,AMSA25.JPG,,,,,,,,,,,,,0,3,3,7,,,,,,,,,,,AFNE05.jpg,AFNE20.jpg,AFSA19.jpg,AFSA10.jpg,AFSA19.jpg,FS,4,num_2,32,num_8,1.11675423384,,,2018_Feb_06_1847,60.0034448806,MAFE4ImagesEEG,001,202608,
AMNE23.JPG,AMNE24.JPG,AMNE22.JPG,AMSA24.JPG,AMSA22.JPG,AMSA23.JPG,,,,,,,,,,,,,0,4,4,9,,,,,,,,,,,AFSA08.jpg,AFNE05.jpg,AFSA20.jpg,AFNE18.jpg,AFSA20.jpg,FS,4,num_2,16,num_2,1.78341983119,,,2018_Feb_06_1847,60.0034448806,MAFE4ImagesEEG,001,202608,
AMSA25.JPG,AMNE24.JPG,AMSA24.JPG,AMNE26.JPG,AMSA21.JPG,AMNE25.JPG,,,,,,,,,,,,,0,5,5,3,,,,,,,,,,,AFSA11.jpg,AFNE03.jpg,AFNE09.jpg,AFSA15.jpg,AFSA15.jpg,FS,4,num_4,16,num_4,1.65001698327,,,2018_Feb_06_1847,60.0034448806,MAFE4ImagesEEG,001,202608,
AFSA21.JPG,AFNE22.JPG,AFNE21.JPG,AFSA23.JPG,AFSA22.JPG,AFNE23.JPG,,,,,,,,,,,,,0,6,6,0,,,,,,,,,,,AFNE04.jpg,AFSA07.jpg,AFSA10.jpg,AFNE03.jpg,AFNE03.jpg,FN,3,num_4,32,num_8,1.66663769307,,,2018_Feb_06_1847,60.0034448806,MAFE4ImagesEEG,001,202608,
AFNE22.JPG,AFSA24.JPG,AFSA22.JPG,AFNE25.JPG,AFNE24.JPG,AFSA25.JPG,,,,,,,,,,,,,0,7,7,6,,,,,,,,,,,AFNE08.jpg,AFNE14.jpg,AFSA18.jpg,AFSA11.jpg,AFNE14.jpg,FN,3,num_6,16,num_6,1.33344634064,,,2018_Feb_06_1847,60.0034448806,MAFE4ImagesEEG,001,202608,
AFNE23.JPG,AFNE24.JPG,AFNE22.JPG,AFSA24.JPG,AFSA22.JPG,AFSA23.JPG,,,,,,,,,,,,,0,8,8,8,,,,,,,,,,,AFNE04.jpg,AFSA02.jpg,AFSA07.jpg,AFNE09.jpg,AFSA02.jpg,FS,4,num_6,16,num_6,1.28345399001,,,2018_Feb_06_1847,60.0034448806,MAFE4ImagesEEG,001,202608,
AFSA21.JPG,AFNE23.JPG,AFNE21.JPG,AFSA25.JPG,AFNE25.JPG,AFSA23.JPG,,,,,,,,,,,,,0,9,9,4,,,,,,,,,,,AFSA06.jpg,AFSA17.jpg,AFNE18.jpg,AFNE11.jpg,AFNE11.jpg,FN,3,num_4,32,num_8,1.03345439094,,,2018_Feb_06_1847,60.0034448806,MAFE4ImagesEEG,001,202608,
AFNE23.JPG,AFNE24.JPG,AFNE22.JPG,AFSA24.JPG,AFSA22.JPG,AFSA23.JPG,,,,,,,,,,,,,,,,,0,0,0,8,,,,,,,AMSA02.jpg,AMNE19.jpg,AMSA16.jpg,AMNE03.jpg,AMNE03.jpg,MN,1,num_4,32,num_8,1.01676728786,,,2018_Feb_06_1847,60.0034448806,MAFE4ImagesEEG,001,202608,
AMNE23.JPG,AMNE24.JPG,AMNE22.JPG,AMSA24.JPG,AMSA22.JPG,AMSA23.JPG,,,,,,,,,,,,,,,,,0,1,1,9,,,,,,,AMNE01.jpg,AMNE16.jpg,AMSA19.jpg,AMSA01.jpg,AMNE16.jpg,MN,1,num_6,32,num_4,0.950138190528,,,2018_Feb_06_1847,60.0034448806,MAFE4ImagesEEG,001,202608,
AMSA25.JPG,AMNE24.JPG,AMSA24.JPG,AMNE26.JPG,AMSA21.JPG,AMNE25.JPG,,,,,,,,,,,,,,,,,0,2,2,3,,,,,,,AMSA09.jpg,AMNE09.jpg,AMSA20.jpg,AMNE10.jpg,AMSA09.jpg,MS,2,num_8,32,num_4,0.983452097746,,,2018_Feb_06_1847,60.0034448806,MAFE4ImagesEEG,001,202608,
AFSA21.JPG,AFNE23.JPG,AFNE21.JPG,AFSA25.JPG,AFNE25.JPG,AFSA23.JPG,,,,,,,,,,,,,,,,,0,3,3,4,,,,,,,AMNE03.jpg,AMSA08.jpg,AMSA03.jpg,AMNE07.jpg,AMNE07.jpg,MN,1,num_4,32,num_6,1.06676220428,,,2018_Feb_06_1847,60.0034448806,MAFE4ImagesEEG,001,202608,
AMNE22.JPG,AMSA24.JPG,AMSA22.JPG,AMNE25.JPG,AMNE24.JPG,AMSA25.JPG,,,,,,,,,,,,,,,,,0,4,4,7,,,,,,,AMSA01.jpg,AMNE11.jpg,AMSA17.jpg,AMNE05.jpg,AMSA01.jpg,MS,2,num_8,32,num_2,1.03349320055,,,2018_Feb_06_1847,60.0034448806,MAFE4ImagesEEG,001,202608,
AMSA21.JPG,AMNE23.JPG,AMNE21.JPG,AMSA25.JPG,AMNE25.JPG,AMSA23.JPG,,,,,,,,,,,,,,,,,0,5,5,5,,,,,,,AMNE04.jpg,AMSA18.jpg,AMSA16.jpg,AMNE19.jpg,AMSA18.jpg,MS,2,num_6,16,num_6,1.06674809149,,,2018_Feb_06_1847,60.0034448806,MAFE4ImagesEEG,001,202608,
AFNE22.JPG,AFSA24.JPG,AFSA22.JPG,AFNE25.JPG,AFNE24.JPG,AFSA25.JPG,,,,,,,,,,,,,,,,,0,6,6,6,,,,,,,AMSA18.jpg,AMSA07.jpg,AMNE09.jpg,AMNE02.jpg,AMNE09.jpg,MN,1,num_2,32,num_4,1.31634420087,,,2018_Feb_06_1847,60.0034448806,MAFE4ImagesEEG,001,202608,
AFSA21.JPG,AFNE22.JPG,AFNE21.JPG,AFSA23.JPG,AFSA22.JPG,AFNE23.JPG,,,,,,,,,,,,,,,,,0,7,7,0,,,,,,,AMSA15.jpg,AMSA02.jpg,AMNE19.jpg,AMNE14.jpg,AMSA02.jpg,MS,2,num_6,32,num_8,1.41679461487,,,2018_Feb_06_1847,60.0034448806,MAFE4ImagesEEG,001,202608,
AFSA25.JPG,AFNE24.JPG,AFSA24.JPG,AFNE21.JPG,AFSA21.JPG,AFNE25.JPG,,,,,,,,,,,,,,,,,0,8,8,2,,,,,,,AMNE07.jpg,AMSA20.jpg,AMNE18.jpg,AMSA10.jpg,AMSA20.jpg,MS,2,num_6,16,num_6,1.65003302018,,,2018_Feb_06_1847,60.0034448806,MAFE4ImagesEEG,001,202608,
AMSA21.JPG,AMNE22.JPG,AMNE21.JPG,AMSA23.JPG,AMSA22.JPG,AMNE23.JPG,,,,,,,,,,,,,,,,,0,9,9,1,,,,,,,AMSA18.jpg,AMNE11.jpg,AMSA04.jpg,AMNE08.jpg,AMSA18.jpg,MS,2,num_8,16,num_8,1.38341527688,,,2018_Feb_06_1847,60.0034448806,MAFE4ImagesEEG,001,202608,
AFSA25.JPG,AFNE24.JPG,AFSA24.JPG,AFNE21.JPG,AFSA21.JPG,AFNE25.JPG,,,,,,,,,,,,,,,,,,,,,0,0,0,2,,,AFNE18.jpg,AFSA03.jpg,AFNE13.jpg,AFSA12.jpg,AFSA12.jpg,FS,4,num_4,32,num_2,1.9833834595,,,2018_Feb_06_1847,60.0034448806,MAFE4ImagesEEG,001,202608,
AMSA21.JPG,AMNE23.JPG,AMNE21.JPG,AMSA25.JPG,AMNE25.JPG,AMSA23.JPG,,,,,,,,,,,,,,,,,,,,,0,1,1,5,,,AFNE15.jpg,AFNE11.jpg,AFSA05.jpg,AFSA16.jpg,AFNE11.jpg,FN,3,num_6,32,num_4,2.25009806594,,,2018_Feb_06_1847,60.0034448806,MAFE4ImagesEEG,001,202608,
AFSA21.JPG,AFNE23.JPG,AFNE21.JPG,AFSA25.JPG,AFNE25.JPG,AFSA23.JPG,,,,,,,,,,,,,,,,,,,,,0,2,2,4,,,AFSA03.jpg,AFNE17.jpg,AFNE10.jpg,AFSA06.jpg,AFNE17.jpg,FN,3,num_6,32,num_2,1.86668407219,,,2018_Feb_06_1847,60.0034448806,MAFE4ImagesEEG,001,202608,
AFNE22.JPG,AFSA24.JPG,AFSA22.JPG,AFNE25.JPG,AFNE24.JPG,AFSA25.JPG,,,,,,,,,,,,,,,,,,,,,0,3,3,6,,,AFSA05.jpg,AFSA19.jpg,AFNE13.jpg,AFNE08.jpg,AFNE13.jpg,FN,3,num_2,32,num_8,1.06677888264,,,2018_Feb_06_1847,60.0034448806,MAFE4ImagesEEG,001,202608,
AFNE23.JPG,AFNE24.JPG,AFNE22.JPG,AFSA24.JPG,AFSA22.JPG,AFSA23.JPG,,,,,,,,,,,,,,,,,,,,,0,4,4,8,,,AFNE16.jpg,AFSA19.jpg,AFSA02.jpg,AFNE20.jpg,AFNE20.jpg,FN,3,num_4,16,num_4,1.53343017539,,,2018_Feb_06_1847,60.0034448806,MAFE4ImagesEEG,001,202608,
AMNE22.JPG,AMSA24.JPG,AMSA22.JPG,AMNE25.JPG,AMNE24.JPG,AMSA25.JPG,,,,,,,,,,,,,,,,,,,,,0,5,5,7,,,AFSA15.jpg,AFNE12.jpg,AFSA02.jpg,AFNE03.jpg,AFNE12.jpg,FN,3,num_6,16,num_6,0.74997730786,,,2018_Feb_06_1847,60.0034448806,MAFE4ImagesEEG,001,202608,
AMNE23.JPG,AMNE24.JPG,AMNE22.JPG,AMSA24.JPG,AMSA22.JPG,AMSA23.JPG,,,,,,,,,,,,,,,,,,,,,0,6,6,9,,,AFNE01.jpg,AFSA02.jpg,AFNE17.jpg,AFSA03.jpg,AFNE17.jpg,FN,3,num_2,16,num_2,0.816521409201,,,2018_Feb_06_1847,60.0034448806,MAFE4ImagesEEG,001,202608,
AMSA25.JPG,AMNE24.JPG,AMSA24.JPG,AMNE26.JPG,AMSA21.JPG,AMNE25.JPG,,,,,,,,,,,,,,,,,,,,,0,7,7,3,,,AFNE03.jpg,AFSA11.jpg,AFNE20.jpg,AFSA06.jpg,AFSA11.jpg,FS,4,num_6,16,num_6,1.5502349895,,,2018_Feb_06_1847,60.0034448806,MAFE4ImagesEEG,001,202608,
AMSA21.JPG,AMNE22.JPG,AMNE21.JPG,AMSA23.JPG,AMSA22.JPG,AMNE23.JPG,,,,,,,,,,,,,,,,,,,,,0,8,8,1,,,AFSA08.jpg,AFNE09.jpg,AFNE20.jpg,AFSA01.jpg,AFNE09.jpg,FN,3,num_6,16,num_6,0.683503448265,,,2018_Feb_06_1847,60.0034448806,MAFE4ImagesEEG,001,202608,
AFSA21.JPG,AFNE22.JPG,AFNE21.JPG,AFSA23.JPG,AFSA22.JPG,AFNE23.JPG,,,,,,,,,,,,,,,,,,,,,0,9,9,0,,,AFSA13.jpg,AFSA04.jpg,AFNE05.jpg,AFNE01.jpg,AFSA04.jpg,FS,4,num_6,32,num_2,1.35042178817,,,2018_Feb_06_1847,60.0034448806,MAFE4ImagesEEG,001,202608,
,,,,,,,,,,,,,,,,,,,,,,,,,,,,,,,,,,,,,,,,,,,space,5.48308020062,2018_Feb_06_1847,60.0034448806,MAFE4ImagesEEG,001,202608,
AFNE01.JPG,AFNE01.JPG,AFNE01.JPG,AFNE01.JPG,AFNE01.JPG,AFNE01.JPG,0,0,0,4,,,,,,,,,,,,,,,,,,,,,,,AMNE17.jpg,AMSA17.jpg,AMNE13.jpg,AMSA02.jpg,AMSA17.jpg,MS,2,num_6,32,num_8,1.3501286325,,,2018_Feb_06_1847,60.0034448806,MAFE4ImagesEEG,001,202608,
AFNE01.JPG,AFNE01.JPG,AFNE01.JPG,AFNE01.JPG,AFNE01.JPG,AFNE01.JPG,0,1,1,8,,,,,,,,,,,,,,,,,,,,,,,AMNE12.jpg,AMSA14.jpg,AMNE03.jpg,AMSA03.jpg,AMNE03.jpg,MN,1,num_2,32,num_8,1.51671773382,,,2018_Feb_06_1847,60.0034448806,MAFE4ImagesEEG,001,202608,
AFNE01.JPG,AFNE01.JPG,AFNE01.JPG,AFNE01.JPG,AFNE01.JPG,AFNE01.JPG,0,2,2,1,,,,,,,,,,,,,,,,,,,,,,,AMSA09.jpg,AMNE12.jpg,AMSA13.jpg,AMNE05.jpg,AMNE12.jpg,MN,1,num_6,32,num_4,0.983471021289,,,2018_Feb_06_1847,60.0034448806,MAFE4ImagesEEG,001,202608,
AFNE01.JPG,AFNE01.JPG,AFNE01.JPG,AFNE01.JPG,AFNE01.JPG,AFNE01.JPG,0,3,3,2,,,,,,,,,,,,,,,,,,,,,,,AMNE04.jpg,AMSA15.jpg,AMNE14.jpg,AMSA11.jpg,AMNE14.jpg,MN,1,num_2,16,num_2,1.26672936068,,,2018_Feb_06_1847,60.0034448806,MAFE4ImagesEEG,001,202608,
AFNE01.JPG,AFNE01.JPG,AFNE01.JPG,AFNE01.JPG,AFNE01.JPG,AFNE01.JPG,0,4,4,5,,,,,,,,,,,,,,,,,,,,,,,AMNE11.jpg,AMSA20.jpg,AMNE03.jpg,AMSA09.jpg,AMSA09.jpg,MS,2,num_4,32,num_8,0.683508259011,,,2018_Feb_06_1847,60.0034448806,MAFE4ImagesEEG,001,202608,
AFNE01.JPG,AFNE01.JPG,AFNE01.JPG,AFNE01.JPG,AFNE01.JPG,AFNE01.JPG,0,5,5,3,,,,,,,,,,,,,,,,,,,,,,,AMSA07.jpg,AMNE20.jpg,AMNE12.jpg,AMSA04.jpg,AMNE20.jpg,MN,1,num_6,32,num_2,1.1834118769,,,2018_Feb_06_1847,60.0034448806,MAFE4ImagesEEG,001,202608,
AFNE01.JPG,AFNE01.JPG,AFNE01.JPG,AFNE01.JPG,AFNE01.JPG,AFNE01.JPG,0,6,6,0,,,,,,,,,,,,,,,,,,,,,,,AMSA03.jpg,AMNE04.jpg,AMSA12.jpg,AMNE10.jpg,AMNE04.jpg,MN,1,num_6,32,num_8,2.43344194628,,,2018_Feb_06_1847,60.0034448806,MAFE4ImagesEEG,001,202608,
AFNE01.JPG,AFNE01.JPG,AFNE01.JPG,AFNE01.JPG,AFNE01.JPG,AFNE01.JPG,0,7,7,7,,,,,,,,,,,,,,,,,,,,,,,AMNE01.jpg,AMNE14.jpg,AMSA12.jpg,AMSA17.jpg,AMNE14.jpg,MN,1,num_6,32,num_4,1.56669853767,,,2018_Feb_06_1847,60.0034448806,MAFE4ImagesEEG,001,202608,
AFNE01.JPG,AFNE01.JPG,AFNE01.JPG,AFNE01.JPG,AFNE01.JPG,AFNE01.JPG,0,8,8,9,,,,,,,,,,,,,,,,,,,,,,,AMSA13.jpg,AMSA03.jpg,AMNE08.jpg,AMNE05.jpg,AMNE05.jpg,MN,1,num_4,16,num_4,2.20030264952,,,2018_Feb_06_1847,60.0034448806,MAFE4ImagesEEG,001,202608,
AFNE01.JPG,AFNE01.JPG,AFNE01.JPG,AFNE01.JPG,AFNE01.JPG,AFNE01.JPG,0,9,9,6,,,,,,,,,,,,,,,,,,,,,,,AMSA16.jpg,AMNE14.jpg,AMSA03.jpg,AMNE02.jpg,AMNE02.jpg,MN,1,num_4,32,num_2,1.51669015014,,,2018_Feb_06_1847,60.0034448806,MAFE4ImagesEEG,001,202608,
AFNE01.JPG,AFNE01.JPG,AFNE01.JPG,AFNE01.JPG,AFNE01.JPG,AFNE01.JPG,1,0,10,1,,,,,,,,,,,,,,,,,,,,,,,AMSA09.jpg,AMSA14.jpg,AMNE19.jpg,AMNE05.jpg,AMSA09.jpg,MS,2,num_8,32,num_2,3.98327472899,,,2018_Feb_06_1847,60.0034448806,MAFE4ImagesEEG,001,202608,
AFNE01.JPG,AFNE01.JPG,AFNE01.JPG,AFNE01.JPG,AFNE01.JPG,AFNE01.JPG,1,1,11,6,,,,,,,,,,,,,,,,,,,,,,,AMNE05.jpg,AMNE08.jpg,AMSA09.jpg,AMSA01.jpg,AMNE05.jpg,MN,1,num_8,16,num_8,0.85012590629,,,2018_Feb_06_1847,60.0034448806,MAFE4ImagesEEG,001,202608,
AFNE01.JPG,AFNE01.JPG,AFNE01.JPG,AFNE01.JPG,AFNE01.JPG,AFNE01.JPG,1,2,12,8,,,,,,,,,,,,,,,,,,,,,,,AMNE12.jpg,AMNE20.jpg,AMSA16.jpg,AMSA13.jpg,AMSA13.jpg,MS,2,num_4,32,num_8,1.25013302662,,,2018_Feb_06_1847,60.0034448806,MAFE4ImagesEEG,001,202608,
AFNE01.JPG,AFNE01.JPG,AFNE01.JPG,AFNE01.JPG,AFNE01.JPG,AFNE01.JPG,1,3,13,3,,,,,,,,,,,,,,,,,,,,,,,AMNE18.jpg,AMSA17.jpg,AMSA12.jpg,AMNE14.jpg,AMSA12.jpg,MS,2,num_2,16,num_2,0.783434906276,,,2018_Feb_06_1847,60.0034448806,MAFE4ImagesEEG,001,202608,
AFNE01.JPG,AFNE01.JPG,AFNE01.JPG,AFNE01.JPG,AFNE01.JPG,AFNE01.JPG,1,4,14,0,,,,,,,,,,,,,,,,,,,,,,,AMNE03.jpg,AMSA06.jpg,AMSA01.jpg,AMNE16.jpg,AMNE03.jpg,MN,1,num_8,16,num_8,1.6833581531,,,2018_Feb_06_1847,60.0034448806,MAFE4ImagesEEG,001,202608,
AFNE01.JPG,AFNE01.JPG,AFNE01.JPG,AFNE01.JPG,AFNE01.JPG,AFNE01.JPG,1,5,15,5,,,,,,,,,,,,,,,,,,,,,,,AMNE08.jpg,AMNE16.jpg,AMSA12.jpg,AMSA18.jpg,AMSA12.jpg,MS,2,num_2,16,num_2,1.61674733786,,,2018_Feb_06_1847,60.0034448806,MAFE4ImagesEEG,001,202608,
AFNE01.JPG,AFNE01.JPG,AFNE01.JPG,AFNE01.JPG,AFNE01.JPG,AFNE01.JPG,1,6,16,7,,,,,,,,,,,,,,,,,,,,,,,AMNE18.jpg,AMNE09.jpg,AMSA04.jpg,AMSA10.jpg,AMNE09.jpg,MN,1,num_6,32,num_8,0.916734797182,,,2018_Feb_06_1847,60.0034448806,MAFE4ImagesEEG,001,202608,
AFNE01.JPG,AFNE01.JPG,AFNE01.JPG,AFNE01.JPG,AFNE01.JPG,AFNE01.JPG,1,7,17,9,,,,,,,,,,,,,,,,,,,,,,,AMSA01.jpg,AMNE17.jpg,AMNE16.jpg,AMSA02.jpg,AMNE16.jpg,MN,1,num_2,16,num_2,1.03345567407,,,2018_Feb_06_1847,60.0034448806,MAFE4ImagesEEG,001,202608,
AFNE01.JPG,AFNE01.JPG,AFNE01.JPG,AFNE01.JPG,AFNE01.JPG,AFNE01.JPG,1,8,18,2,,,,,,,,,,,,,,,,,,,,,,,AMNE08.jpg,AMNE20.jpg,AMSA10.jpg,AMSA03.jpg,AMSA10.jpg,MS,2,num_2,32,num_4,1.50038985861,,,2018_Feb_06_1847,60.0034448806,MAFE4ImagesEEG,001,202608,
AFNE01.JPG,AFNE01.JPG,AFNE01.JPG,AFNE01.JPG,AFNE01.JPG,AFNE01.JPG,1,9,19,4,,,,,,,,,,,,,,,,,,,,,,,AMNE03.jpg,AMSA14.jpg,AMNE08.jpg,AMSA17.jpg,AMNE08.jpg,MN,1,num_2,32,num_8,0.966760504292,,,2018_Feb_06_1847,60.0034448806,MAFE4ImagesEEG,001,202608,
AFNE01.JPG,AFNE01.JPG,AFNE01.JPG,AFNE01.JPG,AFNE01.JPG,AFNE01.JPG,2,0,20,8,,,,,,,,,,,,,,,,,,,,,,,AMNE10.jpg,AMSA14.jpg,AMSA01.jpg,AMNE13.jpg,AMSA14.jpg,MS,2,num_6,32,num_8,2.60004772618,,,2018_Feb_06_1847,60.0034448806,MAFE4ImagesEEG,001,202608,
AFNE01.JPG,AFNE01.JPG,AFNE01.JPG,AFNE01.JPG,AFNE01.JPG,AFNE01.JPG,2,1,21,7,,,,,,,,,,,,,,,,,,,,,,,AMSA11.jpg,AMNE20.jpg,AMNE06.jpg,AMSA08.jpg,AMSA08.jpg,MS,2,num_4,32,num_8,0.950234091608,,,2018_Feb_06_1847,60.0034448806,MAFE4ImagesEEG,001,202608,
AFNE01.JPG,AFNE01.JPG,AFNE01.JPG,AFNE01.JPG,AFNE01.JPG,AFNE01.JPG,2,2,22,1,,,,,,,,,,,,,,,,,,,,,,,AMSA01.jpg,AMSA10.jpg,AMNE15.jpg,AMNE20.jpg,AMNE20.jpg,MN,1,num_4,16,num_4,2.20004381286,,,2018_Feb_06_1847,60.0034448806,MAFE4ImagesEEG,001,202608,
AFNE01.JPG,AFNE01.JPG,AFNE01.JPG,AFNE01.JPG,AFNE01.JPG,AFNE01.JPG,2,3,23,3,,,,,,,,,,,,,,,,,,,,,,,AMSA19.jpg,AMNE03.jpg,AMSA20.jpg,AMNE09.jpg,AMNE09.jpg,MN,1,num_4,16,num_4,0.716763791861,,,2018_Feb_06_1847,60.0034448806,MAFE4ImagesEEG,001,202608,
AFNE01.JPG,AFNE01.JPG,AFNE01.JPG,AFNE01.JPG,AFNE01.JPG,AFNE01.JPG,2,4,24,6,,,,,,,,,,,,,,,,,,,,,,,AMNE19.jpg,AMSA12.jpg,AMNE07.jpg,AMSA11.jpg,AMNE19.jpg,MN,1,num_8,16,num_8,0.616834899876,,,2018_Feb_06_1847,60.0034448806,MAFE4ImagesEEG,001,202608,
AFNE01.JPG,AFNE01.JPG,AFNE01.JPG,AFNE01.JPG,AFNE01.JPG,AFNE01.JPG,2,5,25,2,,,,,,,,,,,,,,,,,,,,,,,AMNE19.jpg,AMSA12.jpg,AMNE02.jpg,AMSA20.jpg,AMNE19.jpg,MN,1,num_8,16,num_8,1.08343455312,,,2018_Feb_06_1847,60.0034448806,MAFE4ImagesEEG,001,202608,
AFNE01.JPG,AFNE01.JPG,AFNE01.JPG,AFNE01.JPG,AFNE01.JPG,AFNE01.JPG,2,6,26,4,,,,,,,,,,,,,,,,,,,,,,,AMNE16.jpg,AMSA15.jpg,AMNE19.jpg,AMSA17.jpg,AMSA15.jpg,MS,2,num_6,16,num_6,1.23341769841,,,2018_Feb_06_1847,60.0034448806,MAFE4ImagesEEG,001,202608,
AFNE01.JPG,AFNE01.JPG,AFNE01.JPG,AFNE01.JPG,AFNE01.JPG,AFNE01.JPG,2,7,27,5,,,,,,,,,,,,,,,,,,,,,,,AMNE18.jpg,AMNE03.jpg,AMSA15.jpg,AMSA06.jpg,AMNE03.jpg,MN,1,num_6,32,num_8,0.650024680886,,,2018_Feb_06_1847,60.0034448806,MAFE4ImagesEEG,001,202608,
AFNE01.JPG,AFNE01.JPG,AFNE01.JPG,AFNE01.JPG,AFNE01.JPG,AFNE01.JPG,2,8,28,9,,,,,,,,,,,,,,,,,,,,,,,AMSA13.jpg,AMSA11.jpg,AMNE20.jpg,AMNE16.jpg,AMNE16.jpg,MN,1,num_4,16,num_4,1.4334044198,,,2018_Feb_06_1847,60.0034448806,MAFE4ImagesEEG,001,202608,
AFNE01.JPG,AFNE01.JPG,AFNE01.JPG,AFNE01.JPG,AFNE01.JPG,AFNE01.JPG,2,9,29,0,,,,,,,,,,,,,,,,,,,,,,,AMSA14.jpg,AMSA08.jpg,AMNE05.jpg,AMNE03.jpg,AMSA14.jpg,MS,2,num_8,16,num_8,3.16657851683,,,2018_Feb_06_1847,60.0034448806,MAFE4ImagesEEG,001,202608,
AFNE01.JPG,AFNE01.JPG,AFNE01.JPG,AFNE01.JPG,AFNE01.JPG,AFNE01.JPG,3,0,30,9,,,,,,,,,,,,,,,,,,,,,,,AMSA01.jpg,AMSA17.jpg,AMNE06.jpg,AMNE01.jpg,AMSA17.jpg,MS,2,num_6,32,num_8,0.716751283035,,,2018_Feb_06_1847,60.0034448806,MAFE4ImagesEEG,001,202608,
AFNE01.JPG,AFNE01.JPG,AFNE01.JPG,AFNE01.JPG,AFNE01.JPG,AFNE01.JPG,3,1,31,6,,,,,,,,,,,,,,,,,,,,,,,AMNE06.jpg,AMSA12.jpg,AMNE12.jpg,AMSA01.jpg,AMNE06.jpg,MN,1,num_8,16,num_8,1.11676321458,,,2018_Feb_06_1847,60.0034448806,MAFE4ImagesEEG,001,202608,
AFNE01.JPG,AFNE01.JPG,AFNE01.JPG,AFNE01.JPG,AFNE01.JPG,AFNE01.JPG,3,2,32,4,,,,,,,,,,,,,,,,,,,,,,,AMSA18.jpg,AMNE12.jpg,AMSA01.jpg,AMNE20.jpg,AMNE12.jpg,MN,1,num_6,16,num_6,3.29996532807,,,2018_Feb_06_1847,60.0034448806,MAFE4ImagesEEG,001,202608,
AFNE01.JPG,AFNE01.JPG,AFNE01.JPG,AFNE01.JPG,AFNE01.JPG,AFNE01.JPG,3,3,33,3,,,,,,,,,,,,,,,,,,,,,,,AMNE06.jpg,AMNE10.jpg,AMSA15.jpg,AMSA05.jpg,AMNE10.jpg,MN,1,num_6,32,num_8,0.916728703072,,,2018_Feb_06_1847,60.0034448806,MAFE4ImagesEEG,001,202608,
AFNE01.JPG,AFNE01.JPG,AFNE01.JPG,AFNE01.JPG,AFNE01.JPG,AFNE01.JPG,3,4,34,1,,,,,,,,,,,,,,,,,,,,,,,AMSA17.jpg,AMNE07.jpg,AMNE05.jpg,AMSA08.jpg,AMSA08.jpg,MS,2,num_4,32,num_6,3.84987508808,,,2018_Feb_06_1847,60.0034448806,MAFE4ImagesEEG,001,202608,
AFNE01.JPG,AFNE01.JPG,AFNE01.JPG,AFNE01.JPG,AFNE01.JPG,AFNE01.JPG,3,5,35,2,,,,,,,,,,,,,,,,,,,,,,,AMNE11.jpg,AMSA09.jpg,AMNE05.jpg,AMSA01.jpg,AMSA09.jpg,MS,2,num_6,16,num_6,1.25010191486,,,2018_Feb_06_1847,60.0034448806,MAFE4ImagesEEG,001,202608,
AFNE01.JPG,AFNE01.JPG,AFNE01.JPG,AFNE01.JPG,AFNE01.JPG,AFNE01.JPG,3,6,36,0,,,,,,,,,,,,,,,,,,,,,,,AMSA01.jpg,AMSA02.jpg,AMNE03.jpg,AMNE06.jpg,AMSA01.jpg,MS,2,num_8,16,num_8,0.95014236006,,,2018_Feb_06_1847,60.0034448806,MAFE4ImagesEEG,001,202608,
AFNE01.JPG,AFNE01.JPG,AFNE01.JPG,AFNE01.JPG,AFNE01.JPG,AFNE01.JPG,3,7,37,8,,,,,,,,,,,,,,,,,,,,,,,AMSA12.jpg,AMNE07.jpg,AMNE14.jpg,AMSA11.jpg,AMSA11.jpg,MS,2,num_4,32,num_2,1.15016853251,,,2018_Feb_06_1847,60.0034448806,MAFE4ImagesEEG,001,202608,
AFNE01.JPG,AFNE01.JPG,AFNE01.JPG,AFNE01.JPG,AFNE01.JPG,AFNE01.JPG,3,8,38,7,,,,,,,,,,,,,,,,,,,,,,,AMSA03.jpg,AMNE03.jpg,AMNE06.jpg,AMSA20.jpg,AMNE03.jpg,MN,1,num_6,16,num_6,0.866789916065,,,2018_Feb_06_1847,60.0034448806,MAFE4ImagesEEG,001,202608,
AFNE01.JPG,AFNE01.JPG,AFNE01.JPG,AFNE01.JPG,AFNE01.JPG,AFNE01.JPG,3,9,39,5,,,,,,,,,,,,,,,,,,,,,,,AMNE05.jpg,AMSA10.jpg,AMSA01.jpg,AMNE20.jpg,AMSA10.jpg,MS,2,num_6,32,num_8,0.75015660096,,,2018_Feb_06_1847,60.0034448806,MAFE4ImagesEEG,001,202608,
AFNE01.JPG,AFNE01.JPG,AFNE01.JPG,AFNE01.JPG,AFNE01.JPG,AFNE01.JPG,4,0,40,2,,,,,,,,,,,,,,,,,,,,,,,AMNE14.jpg,AMNE17.jpg,AMSA08.jpg,AMSA16.jpg,AMSA08.jpg,MS,2,num_2,32,num_6,1.75009084935,,,2018_Feb_06_1847,60.0034448806,MAFE4ImagesEEG,001,202608,
AFNE01.JPG,AFNE01.JPG,AFNE01.JPG,AFNE01.JPG,AFNE01.JPG,AFNE01.JPG,4,1,41,6,,,,,,,,,,,,,,,,,,,,,,,AMSA08.jpg,AMNE08.jpg,AMNE05.jpg,AMSA06.jpg,AMSA08.jpg,MS,2,num_8,32,num_2,2.68330074102,,,2018_Feb_06_1847,60.0034448806,MAFE4ImagesEEG,001,202608,
AFNE01.JPG,AFNE01.JPG,AFNE01.JPG,AFNE01.JPG,AFNE01.JPG,AFNE01.JPG,4,2,42,8,,,,,,,,,,,,,,,,,,,,,,,AMNE02.jpg,AMNE09.jpg,AMSA07.jpg,AMSA08.jpg,AMSA08.jpg,MS,2,num_4,32,num_6,1.66671114252,,,2018_Feb_06_1847,60.0034448806,MAFE4ImagesEEG,001,202608,
AFNE01.JPG,AFNE01.JPG,AFNE01.JPG,AFNE01.JPG,AFNE01.JPG,AFNE01.JPG,4,3,43,5,,,,,,,,,,,,,,,,,,,,,,,AMSA03.jpg,AMSA19.jpg,AMNE10.jpg,AMNE03.jpg,AMNE03.jpg,MN,1,num_4,32,num_2,1.26677201898,,,2018_Feb_06_1847,60.0034448806,MAFE4ImagesEEG,001,202608,
AFNE01.JPG,AFNE01.JPG,AFNE01.JPG,AFNE01.JPG,AFNE01.JPG,AFNE01.JPG,4,4,44,3,,,,,,,,,,,,,,,,,,,,,,,AMNE11.jpg,AMSA20.jpg,AMSA05.jpg,AMNE08.jpg,AMNE11.jpg,MN,1,num_8,16,num_8,1.13342882809,,,2018_Feb_06_1847,60.0034448806,MAFE4ImagesEEG,001,202608,
AFNE01.JPG,AFNE01.JPG,AFNE01.JPG,AFNE01.JPG,AFNE01.JPG,AFNE01.JPG,4,5,45,4,,,,,,,,,,,,,,,,,,,,,,,AMSA08.jpg,AMNE07.jpg,AMSA04.jpg,AMNE10.jpg,AMSA04.jpg,MS,2,num_2,16,num_2,2.48336180975,,,2018_Feb_06_1847,60.0034448806,MAFE4ImagesEEG,001,202608,
AFNE01.JPG,AFNE01.JPG,AFNE01.JPG,AFNE01.JPG,AFNE01.JPG,AFNE01.JPG,4,6,46,7,,,,,,,,,,,,,,,,,,,,,,,AMSA11.jpg,AMSA18.jpg,AMNE17.jpg,AMNE19.jpg,AMSA11.jpg,MS,2,num_8,16,num_8,1.03350987891,,,2018_Feb_06_1847,60.0034448806,MAFE4ImagesEEG,001,202608,
AFNE01.JPG,AFNE01.JPG,AFNE01.JPG,AFNE01.JPG,AFNE01.JPG,AFNE01.JPG,4,7,47,9,,,,,,,,,,,,,,,,,,,,,,,AMNE16.jpg,AMSA17.jpg,AMNE06.jpg,AMSA06.jpg,AMNE16.jpg,MN,1,num_8,32,num_6,1.7167570563,,,2018_Feb_06_1847,60.0034448806,MAFE4ImagesEEG,001,202608,
AFNE01.JPG,AFNE01.JPG,AFNE01.JPG,AFNE01.JPG,AFNE01.JPG,AFNE01.JPG,4,8,48,1,,,,,,,,,,,,,,,,,,,,,,,AMSA01.jpg,AMSA10.jpg,AMNE10.jpg,AMNE01.jpg,AMNE10.jpg,MN,1,num_2,16,num_2,3.09993274114,,,2018_Feb_06_1847,60.0034448806,MAFE4ImagesEEG,001,202608,
AFNE01.JPG,AFNE01.JPG,AFNE01.JPG,AFNE01.JPG,AFNE01.JPG,AFNE01.JPG,4,9,49,0,,,,,,,,,,,,,,,,,,,,,,,AMSA20.jpg,AMNE02.jpg,AMSA10.jpg,AMNE08.jpg,AMSA10.jpg,MS,2,num_2,48,None,,,,2018_Feb_06_1847,60.0034448806,MAFE4ImagesEEG,001,202608,
AFNE01.JPG,AFNE01.JPG,AFNE01.JPG,AFNE01.JPG,AFNE01.JPG,AFNE01.JPG,5,0,50,2,,,,,,,,,,,,,,,,,,,,,,,AMNE12.jpg,AMNE06.jpg,AMSA08.jpg,AMSA11.jpg,AMSA08.jpg,MS,2,num_2,32,num_6,0.666774007259,,,2018_Feb_06_1847,60.0034448806,MAFE4ImagesEEG,001,202608,
AFNE01.JPG,AFNE01.JPG,AFNE01.JPG,AFNE01.JPG,AFNE01.JPG,AFNE01.JPG,5,1,51,9,,,,,,,,,,,,,,,,,,,,,,,AMSA17.jpg,AMNE01.jpg,AMNE14.jpg,AMSA10.jpg,AMSA10.jpg,MS,2,num_4,32,num_8,0.566828116076,,,2018_Feb_06_1847,60.0034448806,MAFE4ImagesEEG,001,202608,
AFNE01.JPG,AFNE01.JPG,AFNE01.JPG,AFNE01.JPG,AFNE01.JPG,AFNE01.JPG,5,2,52,1,,,,,,,,,,,,,,,,,,,,,,,AMNE15.jpg,AMNE01.jpg,AMSA10.jpg,AMSA20.jpg,AMNE01.jpg,MN,1,num_6,16,num_6,1.7167057381,,,2018_Feb_06_1847,60.0034448806,MAFE4ImagesEEG,001,202608,
AFNE01.JPG,AFNE01.JPG,AFNE01.JPG,AFNE01.JPG,AFNE01.JPG,AFNE01.JPG,5,3,53,8,,,,,,,,,,,,,,,,,,,,,,,AMSA02.jpg,AMSA07.jpg,AMNE17.jpg,AMNE16.jpg,AMNE17.jpg,MN,1,num_2,32,num_4,0.78347403626,,,2018_Feb_06_1847,60.0034448806,MAFE4ImagesEEG,001,202608,
AFNE01.JPG,AFNE01.JPG,AFNE01.JPG,AFNE01.JPG,AFNE01.JPG,AFNE01.JPG,5,4,54,4,,,,,,,,,,,,,,,,,,,,,,,AMSA06.jpg,AMNE18.jpg,AMNE07.jpg,AMSA17.jpg,AMSA06.jpg,MS,2,num_8,32,num_6,0.700200814754,,,2018_Feb_06_1847,60.0034448806,MAFE4ImagesEEG,001,202608,
AFNE01.JPG,AFNE01.JPG,AFNE01.JPG,AFNE01.JPG,AFNE01.JPG,AFNE01.JPG,5,5,55,7,,,,,,,,,,,,,,,,,,,,,,,AMNE08.jpg,AMSA02.jpg,AMNE12.jpg,AMSA17.jpg,AMSA17.jpg,MS,2,num_4,16,num_4,1.23343437701,,,2018_Feb_06_1847,60.0034448806,MAFE4ImagesEEG,001,202608,
AFNE01.JPG,AFNE01.JPG,AFNE01.JPG,AFNE01.JPG,AFNE01.JPG,AFNE01.JPG,5,6,56,0,,,,,,,,,,,,,,,,,,,,,,,AMSA09.jpg,AMSA17.jpg,AMNE17.jpg,AMNE14.jpg,AMSA17.jpg,MS,2,num_6,32,num_2,0.883553034393,,,2018_Feb_06_1847,60.0034448806,MAFE4ImagesEEG,001,202608,
AFNE01.JPG,AFNE01.JPG,AFNE01.JPG,AFNE01.JPG,AFNE01.JPG,AFNE01.JPG,5,7,57,3,,,,,,,,,,,,,,,,,,,,,,,AMSA16.jpg,AMNE20.jpg,AMNE11.jpg,AMSA01.jpg,AMNE11.jpg,MN,1,num_2,32,num_6,0.666834947886,,,2018_Feb_06_1847,60.0034448806,MAFE4ImagesEEG,001,202608,
AFNE01.JPG,AFNE01.JPG,AFNE01.JPG,AFNE01.JPG,AFNE01.JPG,AFNE01.JPG,5,8,58,6,,,,,,,,,,,,,,,,,,,,,,,AMSA19.jpg,AMNE17.jpg,AMNE05.jpg,AMSA02.jpg,AMNE05.jpg,MN,1,num_2,32,num_8,0.933470331598,,,2018_Feb_06_1847,60.0034448806,MAFE4ImagesEEG,001,202608,
AFNE01.JPG,AFNE01.JPG,AFNE01.JPG,AFNE01.JPG,AFNE01.JPG,AFNE01.JPG,5,9,59,5,,,,,,,,,,,,,,,,,,,,,,,AMSA05.jpg,AMSA18.jpg,AMNE14.jpg,AMNE17.jpg,AMSA18.jpg,MS,2,num_6,16,num_6,0.983441513497,,,2018_Feb_06_1847,60.0034448806,MAFE4ImagesEEG,001,202608,
,,,,,,,,,,,,,,,,,,,,,,,,,,,,,,,,,,,,,,,,,,,space,7.09960013418,2018_Feb_06_1847,60.0034448806,MAFE4ImagesEEG,001,202608,
AFNE01.JPG,AFNE01.JPG,AFNE01.JPG,AFNE01.JPG,AFNE01.JPG,AFNE01.JPG,,,,,0,0,0,5,,,,,,,,,,,,,,,,,,,AFNE18.jpg,AFSA19.jpg,AFSA07.jpg,AFNE17.jpg,AFNE17.jpg,FN,3,num_4,16,num_4,0.550210292684,,,2018_Feb_06_1847,60.0034448806,MAFE4ImagesEEG,001,202608,
AFNE01.JPG,AFNE01.JPG,AFNE01.JPG,AFNE01.JPG,AFNE01.JPG,AFNE01.JPG,,,,,0,1,1,0,,,,,,,,,,,,,,,,,,,AFSA17.jpg,AFNE13.jpg,AFSA08.jpg,AFNE07.jpg,AFNE13.jpg,FN,3,num_6,32,num_2,2.56665716227,,,2018_Feb_06_1847,60.0034448806,MAFE4ImagesEEG,001,202608,
AFNE01.JPG,AFNE01.JPG,AFNE01.JPG,AFNE01.JPG,AFNE01.JPG,AFNE01.JPG,,,,,0,2,2,7,,,,,,,,,,,,,,,,,,,AFNE03.jpg,AFSA19.jpg,AFSA13.jpg,AFNE08.jpg,AFNE08.jpg,FN,3,num_4,32,num_8,1.50008002436,,,2018_Feb_06_1847,60.0034448806,MAFE4ImagesEEG,001,202608,
AFNE01.JPG,AFNE01.JPG,AFNE01.JPG,AFNE01.JPG,AFNE01.JPG,AFNE01.JPG,,,,,0,3,3,6,,,,,,,,,,,,,,,,,,,AFSA12.jpg,AFNE03.jpg,AFNE07.jpg,AFSA14.jpg,AFSA12.jpg,FS,4,num_8,32,num_6,0.950117342407,,,2018_Feb_06_1847,60.0034448806,MAFE4ImagesEEG,001,202608,
AFNE01.JPG,AFNE01.JPG,AFNE01.JPG,AFNE01.JPG,AFNE01.JPG,AFNE01.JPG,,,,,0,4,4,4,,,,,,,,,,,,,,,,,,,AFSA18.jpg,AFNE09.jpg,AFSA19.jpg,AFNE05.jpg,AFNE09.jpg,FN,3,num_6,32,num_8,1.23343758425,,,2018_Feb_06_1847,60.0034448806,MAFE4ImagesEEG,001,202608,
AFNE01.JPG,AFNE01.JPG,AFNE01.JPG,AFNE01.JPG,AFNE01.JPG,AFNE01.JPG,,,,,0,5,5,2,,,,,,,,,,,,,,,,,,,AFNE04.jpg,AFSA15.jpg,AFSA01.jpg,AFNE12.jpg,AFNE04.jpg,FN,3,num_8,16,num_8,1.56661803182,,,2018_Feb_06_1847,60.0034448806,MAFE4ImagesEEG,001,202608,
AFNE01.JPG,AFNE01.JPG,AFNE01.JPG,AFNE01.JPG,AFNE01.JPG,AFNE01.JPG,,,,,0,6,6,3,,,,,,,,,,,,,,,,,,,AFSA13.jpg,AFNE02.jpg,AFSA19.jpg,AFNE15.jpg,AFSA19.jpg,FS,4,num_2,32,num_6,1.2834780456,,,2018_Feb_06_1847,60.0034448806,MAFE4ImagesEEG,001,202608,
AFNE01.JPG,AFNE01.JPG,AFNE01.JPG,AFNE01.JPG,AFNE01.JPG,AFNE01.JPG,,,,,0,7,7,9,,,,,,,,,,,,,,,,,,,AFSA19.jpg,AFNE18.jpg,AFNE07.jpg,AFSA13.jpg,AFSA13.jpg,FS,4,num_4,16,num_4,1.96673580748,,,2018_Feb_06_1847,60.0034448806,MAFE4ImagesEEG,001,202608,
AFNE01.JPG,AFNE01.JPG,AFNE01.JPG,AFNE01.JPG,AFNE01.JPG,AFNE01.JPG,,,,,0,8,8,1,,,,,,,,,,,,,,,,,,,AFNE04.jpg,AFSA13.jpg,AFNE09.jpg,AFSA14.jpg,AFSA14.jpg,FS,4,num_4,32,num_6,1.85006272048,,,2018_Feb_06_1847,60.0034448806,MAFE4ImagesEEG,001,202608,
AFNE01.JPG,AFNE01.JPG,AFNE01.JPG,AFNE01.JPG,AFNE01.JPG,AFNE01.JPG,,,,,0,9,9,8,,,,,,,,,,,,,,,,,,,AFNE10.jpg,AFNE07.jpg,AFSA01.jpg,AFSA13.jpg,AFNE10.jpg,FN,3,num_8,32,num_6,1.71672241646,,,2018_Feb_06_1847,60.0034448806,MAFE4ImagesEEG,001,202608,
AFNE01.JPG,AFNE01.JPG,AFNE01.JPG,AFNE01.JPG,AFNE01.JPG,AFNE01.JPG,,,,,1,0,10,4,,,,,,,,,,,,,,,,,,,AFNE06.jpg,AFNE15.jpg,AFSA10.jpg,AFSA17.jpg,AFNE15.jpg,FN,3,num_6,16,num_6,0.783436509781,,,2018_Feb_06_1847,60.0034448806,MAFE4ImagesEEG,001,202608,
AFNE01.JPG,AFNE01.JPG,AFNE01.JPG,AFNE01.JPG,AFNE01.JPG,AFNE01.JPG,,,,,1,1,11,0,,,,,,,,,,,,,,,,,,,AFNE06.jpg,AFNE11.jpg,AFSA13.jpg,AFSA11.jpg,AFSA11.jpg,FS,4,num_4,32,num_2,2.56665523769,,,2018_Feb_06_1847,60.0034448806,MAFE4ImagesEEG,001,202608,
AFNE01.JPG,AFNE01.JPG,AFNE01.JPG,AFNE01.JPG,AFNE01.JPG,AFNE01.JPG,,,,,1,2,12,9,,,,,,,,,,,,,,,,,,,AFSA17.jpg,AFSA12.jpg,AFNE15.jpg,AFNE08.jpg,AFSA17.jpg,FS,4,num_8,32,num_4,1.06676188344,,,2018_Feb_06_1847,60.0034448806,MAFE4ImagesEEG,001,202608,
AFNE01.JPG,AFNE01.JPG,AFNE01.JPG,AFNE01.JPG,AFNE01.JPG,AFNE01.JPG,,,,,1,3,13,3,,,,,,,,,,,,,,,,,,,AFSA05.jpg,AFNE15.jpg,AFSA18.jpg,AFNE16.jpg,AFSA05.jpg,FS,4,num_8,16,num_8,0.833501668181,,,2018_Feb_06_1847,60.0034448806,MAFE4ImagesEEG,001,202608,
AFNE01.JPG,AFNE01.JPG,AFNE01.JPG,AFNE01.JPG,AFNE01.JPG,AFNE01.JPG,,,,,1,4,14,5,,,,,,,,,,,,,,,,,,,AFNE14.jpg,AFNE20.jpg,AFSA13.jpg,AFSA08.jpg,AFNE14.jpg,FN,3,num_8,16,num_8,1.28340363386,,,2018_Feb_06_1847,60.0034448806,MAFE4ImagesEEG,001,202608,
AFNE01.JPG,AFNE01.JPG,AFNE01.JPG,AFNE01.JPG,AFNE01.JPG,AFNE01.JPG,,,,,1,5,15,1,,,,,,,,,,,,,,,,,,,AFNE01.jpg,AFSA16.jpg,AFSA08.jpg,AFNE17.jpg,AFNE17.jpg,FN,3,num_4,32,num_8,1.08341979934,,,2018_Feb_06_1847,60.0034448806,MAFE4ImagesEEG,001,202608,
AFNE01.JPG,AFNE01.JPG,AFNE01.JPG,AFNE01.JPG,AFNE01.JPG,AFNE01.JPG,,,,,1,6,16,7,,,,,,,,,,,,,,,,,,,AFSA05.jpg,AFNE15.jpg,AFNE08.jpg,AFSA13.jpg,AFSA13.jpg,FS,4,num_4,16,num_4,2.31668065628,,,2018_Feb_06_1847,60.0034448806,MAFE4ImagesEEG,001,202608,
AFNE01.JPG,AFNE01.JPG,AFNE01.JPG,AFNE01.JPG,AFNE01.JPG,AFNE01.JPG,,,,,1,7,17,8,,,,,,,,,,,,,,,,,,,AFNE10.jpg,AFSA18.jpg,AFSA03.jpg,AFNE08.jpg,AFNE10.jpg,FN,3,num_8,48,None,,,,2018_Feb_06_1847,60.0034448806,MAFE4ImagesEEG,001,202608,
AFNE01.JPG,AFNE01.JPG,AFNE01.JPG,AFNE01.JPG,AFNE01.JPG,AFNE01.JPG,,,,,1,8,18,6,,,,,,,,,,,,,,,,,,,AFNE05.jpg,AFSA18.jpg,AFSA13.jpg,AFNE18.jpg,AFSA13.jpg,FS,4,num_2,32,num_6,0.866822952405,,,2018_Feb_06_1847,60.0034448806,MAFE4ImagesEEG,001,202608,
AFNE01.JPG,AFNE01.JPG,AFNE01.JPG,AFNE01.JPG,AFNE01.JPG,AFNE01.JPG,,,,,1,9,19,2,,,,,,,,,,,,,,,,,,,AFNE02.jpg,AFSA11.jpg,AFSA02.jpg,AFNE16.jpg,AFSA02.jpg,FS,4,num_2,32,num_4,1.06659509917,,,2018_Feb_06_1847,60.0034448806,MAFE4ImagesEEG,001,202608,
AFNE01.JPG,AFNE01.JPG,AFNE01.JPG,AFNE01.JPG,AFNE01.JPG,AFNE01.JPG,,,,,2,0,20,1,,,,,,,,,,,,,,,,,,,AFNE19.jpg,AFNE03.jpg,AFSA12.jpg,AFSA13.jpg,AFSA12.jpg,FS,4,num_2,16,num_2,2.75000040093,,,2018_Feb_06_1847,60.0034448806,MAFE4ImagesEEG,001,202608,
AFNE01.JPG,AFNE01.JPG,AFNE01.JPG,AFNE01.JPG,AFNE01.JPG,AFNE01.JPG,,,,,2,1,21,4,,,,,,,,,,,,,,,,,,,AFNE13.jpg,AFNE14.jpg,AFSA17.jpg,AFSA03.jpg,AFNE14.jpg,FN,3,num_6,16,num_6,0.966761145741,,,2018_Feb_06_1847,60.0034448806,MAFE4ImagesEEG,001,202608,
AFNE01.JPG,AFNE01.JPG,AFNE01.JPG,AFNE01.JPG,AFNE01.JPG,AFNE01.JPG,,,,,2,2,22,5,,,,,,,,,,,,,,,,,,,AFNE05.jpg,AFNE16.jpg,AFSA12.jpg,AFSA15.jpg,AFSA15.jpg,FS,4,num_4,16,num_4,0.900096446276,,,2018_Feb_06_1847,60.0034448806,MAFE4ImagesEEG,001,202608,
AFNE01.JPG,AFNE01.JPG,AFNE01.JPG,AFNE01.JPG,AFNE01.JPG,AFNE01.JPG,,,,,2,3,23,7,,,,,,,,,,,,,,,,,,,AFSA08.jpg,AFNE02.jpg,AFNE05.jpg,AFSA10.jpg,AFNE02.jpg,FN,3,num_6,32,num_8,0.933464558562,,,2018_Feb_06_1847,60.0034448806,MAFE4ImagesEEG,001,202608,
AFNE01.JPG,AFNE01.JPG,AFNE01.JPG,AFNE01.JPG,AFNE01.JPG,AFNE01.JPG,,,,,2,4,24,2,,,,,,,,,,,,,,,,,,,AFNE03.jpg,AFSA10.jpg,AFNE16.jpg,AFSA13.jpg,AFSA10.jpg,FS,4,num_6,16,num_6,0.833494932391,,,2018_Feb_06_1847,60.0034448806,MAFE4ImagesEEG,001,202608,
AFNE01.JPG,AFNE01.JPG,AFNE01.JPG,AFNE01.JPG,AFNE01.JPG,AFNE01.JPG,,,,,2,5,25,6,,,,,,,,,,,,,,,,,,,AFNE19.jpg,AFSA11.jpg,AFNE06.jpg,AFSA03.jpg,AFSA03.jpg,FS,4,num_4,32,num_8,1.61671205657,,,2018_Feb_06_1847,60.0034448806,MAFE4ImagesEEG,001,202608,
AFNE01.JPG,AFNE01.JPG,AFNE01.JPG,AFNE01.JPG,AFNE01.JPG,AFNE01.JPG,,,,,2,6,26,8,,,,,,,,,,,,,,,,,,,AFNE19.jpg,AFSA10.jpg,AFSA11.jpg,AFNE07.jpg,AFSA10.jpg,FS,4,num_6,16,num_6,1.43341115536,,,2018_Feb_06_1847,60.0034448806,MAFE4ImagesEEG,001,202608,
AFNE01.JPG,AFNE01.JPG,AFNE01.JPG,AFNE01.JPG,AFNE01.JPG,AFNE01.JPG,,,,,2,7,27,9,,,,,,,,,,,,,,,,,,,AFSA05.jpg,AFNE03.jpg,AFSA18.jpg,AFNE12.jpg,AFNE12.jpg,FN,3,num_4,32,num_8,2.54996973835,,,2018_Feb_06_1847,60.0034448806,MAFE4ImagesEEG,001,202608,
AFNE01.JPG,AFNE01.JPG,AFNE01.JPG,AFNE01.JPG,AFNE01.JPG,AFNE01.JPG,,,,,2,8,28,0,,,,,,,,,,,,,,,,,,,AFNE17.jpg,AFSA18.jpg,AFNE19.jpg,AFSA09.jpg,AFSA18.jpg,FS,4,num_6,16,num_6,0.883448473411,,,2018_Feb_06_1847,60.0034448806,MAFE4ImagesEEG,001,202608,
AFNE01.JPG,AFNE01.JPG,AFNE01.JPG,AFNE01.JPG,AFNE01.JPG,AFNE01.JPG,,,,,2,9,29,3,,,,,,,,,,,,,,,,,,,AFNE05.jpg,AFSA19.jpg,AFSA08.jpg,AFNE17.jpg,AFSA19.jpg,FS,4,num_6,32,num_4,1.16675267811,,,2018_Feb_06_1847,60.0034448806,MAFE4ImagesEEG,001,202608,
AFNE01.JPG,AFNE01.JPG,AFNE01.JPG,AFNE01.JPG,AFNE01.JPG,AFNE01.JPG,,,,,3,0,30,0,,,,,,,,,,,,,,,,,,,AFSA01.jpg,AFNE07.jpg,AFSA12.jpg,AFNE15.jpg,AFSA12.jpg,FS,4,num_2,32,num_6,0.883397796424,,,2018_Feb_06_1847,60.0034448806,MAFE4ImagesEEG,001,202608,
AFNE01.JPG,AFNE01.JPG,AFNE01.JPG,AFNE01.JPG,AFNE01.JPG,AFNE01.JPG,,,,,3,1,31,2,,,,,,,,,,,,,,,,,,,AFNE14.jpg,AFNE16.jpg,AFSA05.jpg,AFSA20.jpg,AFNE16.jpg,FN,3,num_6,32,num_4,0.933438578621,,,2018_Feb_06_1847,60.0034448806,MAFE4ImagesEEG,001,202608,
AFNE01.JPG,AFNE01.JPG,AFNE01.JPG,AFNE01.JPG,AFNE01.JPG,AFNE01.JPG,,,,,3,2,32,7,,,,,,,,,,,,,,,,,,,AFNE17.jpg,AFSA18.jpg,AFNE16.jpg,AFSA07.jpg,AFSA07.jpg,FS,4,num_4,16,num_4,1.16679212917,,,2018_Feb_06_1847,60.0034448806,MAFE4ImagesEEG,001,202608,
AFNE01.JPG,AFNE01.JPG,AFNE01.JPG,AFNE01.JPG,AFNE01.JPG,AFNE01.JPG,,,,,3,3,33,4,,,,,,,,,,,,,,,,,,,AFSA06.jpg,AFSA14.jpg,AFNE04.jpg,AFNE12.jpg,AFSA14.jpg,FS,4,num_6,32,num_8,1.46672826982,,,2018_Feb_06_1847,60.0034448806,MAFE4ImagesEEG,001,202608,
AFNE01.JPG,AFNE01.JPG,AFNE01.JPG,AFNE01.JPG,AFNE01.JPG,AFNE01.JPG,,,,,3,4,34,6,,,,,,,,,,,,,,,,,,,AFSA08.jpg,AFNE05.jpg,AFSA20.jpg,AFNE13.jpg,AFNE13.jpg,FN,3,num_4,32,num_8,0.916782907909,,,2018_Feb_06_1847,60.0034448806,MAFE4ImagesEEG,001,202608,
AFNE01.JPG,AFNE01.JPG,AFNE01.JPG,AFNE01.JPG,AFNE01.JPG,AFNE01.JPG,,,,,3,5,35,8,,,,,,,,,,,,,,,,,,,AFNE04.jpg,AFNE10.jpg,AFSA03.jpg,AFSA16.jpg,AFSA16.jpg,FS,4,num_4,32,num_6,1.23344271607,,,2018_Feb_06_1847,60.0034448806,MAFE4ImagesEEG,001,202608,
AFNE01.JPG,AFNE01.JPG,AFNE01.JPG,AFNE01.JPG,AFNE01.JPG,AFNE01.JPG,,,,,3,6,36,3,,,,,,,,,,,,,,,,,,,AFNE15.jpg,AFSA03.jpg,AFSA16.jpg,AFNE08.jpg,AFSA03.jpg,FS,4,num_6,32,num_8,2.43336913851,,,2018_Feb_06_1847,60.0034448806,MAFE4ImagesEEG,001,202608,
AFNE01.JPG,AFNE01.JPG,AFNE01.JPG,AFNE01.JPG,AFNE01.JPG,AFNE01.JPG,,,,,3,7,37,9,,,,,,,,,,,,,,,,,,,AFSA04.jpg,AFNE02.jpg,AFNE12.jpg,AFSA18.jpg,AFNE12.jpg,FN,3,num_2,32,num_6,2.36664895131,,,2018_Feb_06_1847,60.0034448806,MAFE4ImagesEEG,001,202608,
AFNE01.JPG,AFNE01.JPG,AFNE01.JPG,AFNE01.JPG,AFNE01.JPG,AFNE01.JPG,,,,,3,8,38,1,,,,,,,,,,,,,,,,,,,AFNE07.jpg,AFSA07.jpg,AFNE17.jpg,AFSA10.jpg,AFNE17.jpg,FN,3,num_2,16,num_2,1.75008186861,,,2018_Feb_06_1847,60.0034448806,MAFE4ImagesEEG,001,202608,
AFNE01.JPG,AFNE01.JPG,AFNE01.JPG,AFNE01.JPG,AFNE01.JPG,AFNE01.JPG,,,,,3,9,39,5,,,,,,,,,,,,,,,,,,,AFNE02.jpg,AFSA16.jpg,AFNE20.jpg,AFSA12.jpg,AFNE20.jpg,FN,3,num_2,32,num_8,3.08330465411,,,2018_Feb_06_1847,60.0034448806,MAFE4ImagesEEG,001,202608,
AFNE01.JPG,AFNE01.JPG,AFNE01.JPG,AFNE01.JPG,AFNE01.JPG,AFNE01.JPG,,,,,4,0,40,7,,,,,,,,,,,,,,,,,,,AFNE07.jpg,AFNE01.jpg,AFSA03.jpg,AFSA19.jpg,AFSA03.jpg,FS,4,num_2,32,num_4,1.81672058813,,,2018_Feb_06_1847,60.0034448806,MAFE4ImagesEEG,001,202608,
AFNE01.JPG,AFNE01.JPG,AFNE01.JPG,AFNE01.JPG,AFNE01.JPG,AFNE01.JPG,,,,,4,1,41,6,,,,,,,,,,,,,,,,,,,AFSA11.jpg,AFNE05.jpg,AFNE17.jpg,AFSA03.jpg,AFNE05.jpg,FN,3,num_6,16,num_6,1.31675442634,,,2018_Feb_06_1847,60.0034448806,MAFE4ImagesEEG,001,202608,
AFNE01.JPG,AFNE01.JPG,AFNE01.JPG,AFNE01.JPG,AFNE01.JPG,AFNE01.JPG,,,,,4,2,42,9,,,,,,,,,,,,,,,,,,,AFSA18.jpg,AFSA03.jpg,AFNE11.jpg,AFNE05.jpg,AFSA18.jpg,FS,4,num_8,16,num_8,4.56605000258,,,2018_Feb_06_1847,60.0034448806,MAFE4ImagesEEG,001,202608,
AFNE01.JPG,AFNE01.JPG,AFNE01.JPG,AFNE01.JPG,AFNE01.JPG,AFNE01.JPG,,,,,4,3,43,2,,,,,,,,,,,,,,,,,,,AFNE12.jpg,AFNE10.jpg,AFSA02.jpg,AFSA16.jpg,AFSA16.jpg,FS,4,num_4,16,num_4,1.25010865042,,,2018_Feb_06_1847,60.0034448806,MAFE4ImagesEEG,001,202608,
AFNE01.JPG,AFNE01.JPG,AFNE01.JPG,AFNE01.JPG,AFNE01.JPG,AFNE01.JPG,,,,,4,4,44,1,,,,,,,,,,,,,,,,,,,AFNE03.jpg,AFSA08.jpg,AFNE11.jpg,AFSA01.jpg,AFNE11.jpg,FN,3,num_2,32,num_8,1.11684853118,,,2018_Feb_06_1847,60.0034448806,MAFE4ImagesEEG,001,202608,
AFNE01.JPG,AFNE01.JPG,AFNE01.JPG,AFNE01.JPG,AFNE01.JPG,AFNE01.JPG,,,,,4,5,45,4,,,,,,,,,,,,,,,,,,,AFSA19.jpg,AFNE01.jpg,AFSA12.jpg,AFNE04.jpg,AFSA19.jpg,FS,4,num_8,32,num_6,1.06702168239,,,2018_Feb_06_1847,60.0034448806,MAFE4ImagesEEG,001,202608,
AFNE01.JPG,AFNE01.JPG,AFNE01.JPG,AFNE01.JPG,AFNE01.JPG,AFNE01.JPG,,,,,4,6,46,3,,,,,,,,,,,,,,,,,,,AFSA14.jpg,AFSA10.jpg,AFNE13.jpg,AFNE04.jpg,AFNE13.jpg,FN,3,num_2,16,num_2,1.00008948613,,,2018_Feb_06_1847,60.0034448806,MAFE4ImagesEEG,001,202608,
AFNE01.JPG,AFNE01.JPG,AFNE01.JPG,AFNE01.JPG,AFNE01.JPG,AFNE01.JPG,,,,,4,7,47,8,,,,,,,,,,,,,,,,,,,AFNE14.jpg,AFSA05.jpg,AFSA16.jpg,AFNE08.jpg,AFSA16.jpg,FS,4,num_2,32,num_4,0.566805985291,,,2018_Feb_06_1847,60.0034448806,MAFE4ImagesEEG,001,202608,
AFNE01.JPG,AFNE01.JPG,AFNE01.JPG,AFNE01.JPG,AFNE01.JPG,AFNE01.JPG,,,,,4,8,48,5,,,,,,,,,,,,,,,,,,,AFNE02.jpg,AFNE09.jpg,AFSA19.jpg,AFSA13.jpg,AFNE09.jpg,FN,3,num_6,32,num_2,1.86655770079,,,2018_Feb_06_1847,60.0034448806,MAFE4ImagesEEG,001,202608,
AFNE01.JPG,AFNE01.JPG,AFNE01.JPG,AFNE01.JPG,AFNE01.JPG,AFNE01.JPG,,,,,4,9,49,0,,,,,,,,,,,,,,,,,,,AFNE09.jpg,AFSA08.jpg,AFNE05.jpg,AFSA16.jpg,AFNE05.jpg,FN,3,num_2,32,num_4,4.49985454464,,,2018_Feb_06_1847,60.0034448806,MAFE4ImagesEEG,001,202608,
AFNE01.JPG,AFNE01.JPG,AFNE01.JPG,AFNE01.JPG,AFNE01.JPG,AFNE01.JPG,,,,,5,0,50,6,,,,,,,,,,,,,,,,,,,AFSA13.jpg,AFNE15.jpg,AFSA16.jpg,AFNE20.jpg,AFNE20.jpg,FN,3,num_4,32,num_6,0.916771040531,,,2018_Feb_06_1847,60.0034448806,MAFE4ImagesEEG,001,202608,
AFNE01.JPG,AFNE01.JPG,AFNE01.JPG,AFNE01.JPG,AFNE01.JPG,AFNE01.JPG,,,,,5,1,51,3,,,,,,,,,,,,,,,,,,,AFSA13.jpg,AFNE09.jpg,AFSA11.jpg,AFNE16.jpg,AFNE09.jpg,FN,3,num_6,32,num_8,1.26679799869,,,2018_Feb_06_1847,60.0034448806,MAFE4ImagesEEG,001,202608,
AFNE01.JPG,AFNE01.JPG,AFNE01.JPG,AFNE01.JPG,AFNE01.JPG,AFNE01.JPG,,,,,5,2,52,8,,,,,,,,,,,,,,,,,,,AFSA05.jpg,AFNE14.jpg,AFSA14.jpg,AFNE13.jpg,AFNE13.jpg,FN,3,num_4,32,num_8,3.06634139433,,,2018_Feb_06_1847,60.0034448806,MAFE4ImagesEEG,001,202608,
AFNE01.JPG,AFNE01.JPG,AFNE01.JPG,AFNE01.JPG,AFNE01.JPG,AFNE01.JPG,,,,,5,3,53,1,,,,,,,,,,,,,,,,,,,AFNE17.jpg,AFSA09.jpg,AFSA14.jpg,AFNE15.jpg,AFSA09.jpg,FS,4,num_6,48,None,,,,2018_Feb_06_1847,60.0034448806,MAFE4ImagesEEG,001,202608,
AFNE01.JPG,AFNE01.JPG,AFNE01.JPG,AFNE01.JPG,AFNE01.JPG,AFNE01.JPG,,,,,5,4,54,5,,,,,,,,,,,,,,,,,,,AFSA15.jpg,AFNE13.jpg,AFSA04.jpg,AFNE06.jpg,AFSA15.jpg,FS,4,num_8,16,num_8,0.93349117972,,,2018_Feb_06_1847,60.0034448806,MAFE4ImagesEEG,001,202608,
AFNE01.JPG,AFNE01.JPG,AFNE01.JPG,AFNE01.JPG,AFNE01.JPG,AFNE01.JPG,,,,,5,5,55,9,,,,,,,,,,,,,,,,,,,AFSA09.jpg,AFNE13.jpg,AFNE20.jpg,AFSA19.jpg,AFNE13.jpg,FN,3,num_6,16,num_6,0.866643338231,,,2018_Feb_06_1847,60.0034448806,MAFE4ImagesEEG,001,202608,
AFNE01.JPG,AFNE01.JPG,AFNE01.JPG,AFNE01.JPG,AFNE01.JPG,AFNE01.JPG,,,,,5,6,56,4,,,,,,,,,,,,,,,,,,,AFSA18.jpg,AFSA04.jpg,AFNE03.jpg,AFNE14.jpg,AFNE03.jpg,FN,3,num_2,16,num_2,0.916771681979,,,2018_Feb_06_1847,60.0034448806,MAFE4ImagesEEG,001,202608,
AFNE01.JPG,AFNE01.JPG,AFNE01.JPG,AFNE01.JPG,AFNE01.JPG,AFNE01.JPG,,,,,5,7,57,7,,,,,,,,,,,,,,,,,,,AFNE19.jpg,AFSA01.jpg,AFNE17.jpg,AFSA09.jpg,AFNE19.jpg,FN,3,num_8,32,num_2,3.18328839238,,,2018_Feb_06_1847,60.0034448806,MAFE4ImagesEEG,001,202608,
AFNE01.JPG,AFNE01.JPG,AFNE01.JPG,AFNE01.JPG,AFNE01.JPG,AFNE01.JPG,,,,,5,8,58,0,,,,,,,,,,,,,,,,,,,AFNE07.jpg,AFNE12.jpg,AFSA04.jpg,AFSA09.jpg,AFNE07.jpg,FN,3,num_8,32,num_6,0.616920857923,,,2018_Feb_06_1847,60.0034448806,MAFE4ImagesEEG,001,202608,
AFNE01.JPG,AFNE01.JPG,AFNE01.JPG,AFNE01.JPG,AFNE01.JPG,AFNE01.JPG,,,,,5,9,59,2,,,,,,,,,,,,,,,,,,,AFSA08.jpg,AFNE16.jpg,AFSA12.jpg,AFNE13.jpg,AFSA12.jpg,FS,4,num_2,32,num_8,0.583497899119,,,2018_Feb_06_1847,60.0034448806,MAFE4ImagesEEG,001,202608,
,,,,,,,,,,,,,,,,,,,,,,,,,,,,,,,,,,,,,,,,,,,space,3.23327529035,2018_Feb_06_1847,60.0034448806,MAFE4ImagesEEG,001,202608,
AFNE01.JPG,AFNE01.JPG,AFNE01.JPG,AFNE01.JPG,AFNE01.JPG,AFNE01.JPG,,,,,,,,,0,0,0,9,,,,,,,,,,,,,,,AMNE11.jpg,AMNE16.jpg,AMSA16.jpg,AMSA12.jpg,AMSA16.jpg,MS,2,num_2,32,num_6,0.83355908026,,,2018_Feb_06_1847,60.0034448806,MAFE4ImagesEEG,001,202608,
AFNE01.JPG,AFNE01.JPG,AFNE01.JPG,AFNE01.JPG,AFNE01.JPG,AFNE01.JPG,,,,,,,,,0,1,1,0,,,,,,,,,,,,,,,AMNE19.jpg,AMSA13.jpg,AMNE03.jpg,AMSA03.jpg,AMSA13.jpg,MS,2,num_6,16,num_6,0.850131037878,,,2018_Feb_06_1847,60.0034448806,MAFE4ImagesEEG,001,202608,
AFNE01.JPG,AFNE01.JPG,AFNE01.JPG,AFNE01.JPG,AFNE01.JPG,AFNE01.JPG,,,,,,,,,0,2,2,5,,,,,,,,,,,,,,,AMNE05.jpg,AMNE01.jpg,AMSA13.jpg,AMSA05.jpg,AMSA05.jpg,MS,2,num_4,32,num_8,0.700048463885,,,2018_Feb_06_1847,60.0034448806,MAFE4ImagesEEG,001,202608,
AFNE01.JPG,AFNE01.JPG,AFNE01.JPG,AFNE01.JPG,AFNE01.JPG,AFNE01.JPG,,,,,,,,,0,3,3,7,,,,,,,,,,,,,,,AMNE20.jpg,AMNE18.jpg,AMSA05.jpg,AMSA15.jpg,AMSA15.jpg,MS,2,num_4,32,num_8,1.13345929841,,,2018_Feb_06_1847,60.0034448806,MAFE4ImagesEEG,001,202608,
AFNE01.JPG,AFNE01.JPG,AFNE01.JPG,AFNE01.JPG,AFNE01.JPG,AFNE01.JPG,,,,,,,,,0,4,4,6,,,,,,,,,,,,,,,AMSA09.jpg,AMNE17.jpg,AMSA04.jpg,AMNE09.jpg,AMSA04.jpg,MS,2,num_2,16,num_2,1.81684631808,,,2018_Feb_06_1847,60.0034448806,MAFE4ImagesEEG,001,202608,
AFNE01.JPG,AFNE01.JPG,AFNE01.JPG,AFNE01.JPG,AFNE01.JPG,AFNE01.JPG,,,,,,,,,0,5,5,2,,,,,,,,,,,,,,,AMNE07.jpg,AMSA12.jpg,AMSA16.jpg,AMNE09.jpg,AMNE07.jpg,MN,1,num_8,16,num_8,1.00020238641,,,2018_Feb_06_1847,60.0034448806,MAFE4ImagesEEG,001,202608,
AFNE01.JPG,AFNE01.JPG,AFNE01.JPG,AFNE01.JPG,AFNE01.JPG,AFNE01.JPG,,,,,,,,,0,6,6,1,,,,,,,,,,,,,,,AMNE16.jpg,AMSA19.jpg,AMNE20.jpg,AMSA20.jpg,AMSA20.jpg,MS,2,num_4,32,num_6,3.41659575654,,,2018_Feb_06_1847,60.0034448806,MAFE4ImagesEEG,001,202608,
AFNE01.JPG,AFNE01.JPG,AFNE01.JPG,AFNE01.JPG,AFNE01.JPG,AFNE01.JPG,,,,,,,,,0,7,7,3,,,,,,,,,,,,,,,AMNE06.jpg,AMSA15.jpg,AMSA18.jpg,AMNE18.jpg,AMSA18.jpg,MS,2,num_2,32,num_6,0.716785922879,,,2018_Feb_06_1847,60.0034448806,MAFE4ImagesEEG,001,202608,
AFNE01.JPG,AFNE01.JPG,AFNE01.JPG,AFNE01.JPG,AFNE01.JPG,AFNE01.JPG,,,,,,,,,0,8,8,4,,,,,,,,,,,,,,,AMSA12.jpg,AMNE03.jpg,AMSA19.jpg,AMNE06.jpg,AMSA12.jpg,MS,2,num_8,32,num_2,4.54980680253,,,2018_Feb_06_1847,60.0034448806,MAFE4ImagesEEG,001,202608,
AFNE01.JPG,AFNE01.JPG,AFNE01.JPG,AFNE01.JPG,AFNE01.JPG,AFNE01.JPG,,,,,,,,,0,9,9,8,,,,,,,,,,,,,,,AMSA11.jpg,AMNE05.jpg,AMNE13.jpg,AMSA20.jpg,AMSA20.jpg,MS,2,num_4,32,num_8,0.750126772327,,,2018_Feb_06_1847,60.0034448806,MAFE4ImagesEEG,001,202608,
AFNE01.JPG,AFNE01.JPG,AFNE01.JPG,AFNE01.JPG,AFNE01.JPG,AFNE01.JPG,,,,,,,,,1,0,10,5,,,,,,,,,,,,,,,AMSA16.jpg,AMNE05.jpg,AMNE09.jpg,AMSA06.jpg,AMNE09.jpg,MN,1,num_2,32,num_8,2.05004334799,,,2018_Feb_06_1847,60.0034448806,MAFE4ImagesEEG,001,202608,
AFNE01.JPG,AFNE01.JPG,AFNE01.JPG,AFNE01.JPG,AFNE01.JPG,AFNE01.JPG,,,,,,,,,1,1,11,8,,,,,,,,,,,,,,,AMNE16.jpg,AMNE17.jpg,AMSA16.jpg,AMSA18.jpg,AMSA16.jpg,MS,2,num_2,32,num_6,1.0834351948,,,2018_Feb_06_1847,60.0034448806,MAFE4ImagesEEG,001,202608,
AFNE01.JPG,AFNE01.JPG,AFNE01.JPG,AFNE01.JPG,AFNE01.JPG,AFNE01.JPG,,,,,,,,,1,2,12,6,,,,,,,,,,,,,,,AMNE18.jpg,AMSA01.jpg,AMSA06.jpg,AMNE10.jpg,AMSA06.jpg,MS,2,num_2,32,num_4,1.066641927,,,2018_Feb_06_1847,60.0034448806,MAFE4ImagesEEG,001,202608,
AFNE01.JPG,AFNE01.JPG,AFNE01.JPG,AFNE01.JPG,AFNE01.JPG,AFNE01.JPG,,,,,,,,,1,3,13,1,,,,,,,,,,,,,,,AMNE03.jpg,AMSA15.jpg,AMNE13.jpg,AMSA04.jpg,AMNE13.jpg,MN,1,num_2,32,num_4,4.64982967149,,,2018_Feb_06_1847,60.0034448806,MAFE4ImagesEEG,001,202608,
AFNE01.JPG,AFNE01.JPG,AFNE01.JPG,AFNE01.JPG,AFNE01.JPG,AFNE01.JPG,,,,,,,,,1,4,14,9,,,,,,,,,,,,,,,AMNE09.jpg,AMSA01.jpg,AMSA02.jpg,AMNE03.jpg,AMSA01.jpg,MS,2,num_6,16,num_6,3.39994104812,,,2018_Feb_06_1847,60.0034448806,MAFE4ImagesEEG,001,202608,
AFNE01.JPG,AFNE01.JPG,AFNE01.JPG,AFNE01.JPG,AFNE01.JPG,AFNE01.JPG,,,,,,,,,1,5,15,2,,,,,,,,,,,,,,,AMSA04.jpg,AMSA12.jpg,AMNE04.jpg,AMNE19.jpg,AMSA12.jpg,MS,2,num_6,16,num_6,0.733480082359,,,2018_Feb_06_1847,60.0034448806,MAFE4ImagesEEG,001,202608,
AFNE01.JPG,AFNE01.JPG,AFNE01.JPG,AFNE01.JPG,AFNE01.JPG,AFNE01.JPG,,,,,,,,,1,6,16,7,,,,,,,,,,,,,,,AMNE11.jpg,AMNE19.jpg,AMSA03.jpg,AMSA16.jpg,AMSA16.jpg,MS,2,num_4,32,num_6,0.883496904979,,,2018_Feb_06_1847,60.0034448806,MAFE4ImagesEEG,001,202608,
AFNE01.JPG,AFNE01.JPG,AFNE01.JPG,AFNE01.JPG,AFNE01.JPG,AFNE01.JPG,,,,,,,,,1,7,17,3,,,,,,,,,,,,,,,AMSA19.jpg,AMSA04.jpg,AMNE15.jpg,AMNE17.jpg,AMSA19.jpg,MS,2,num_8,16,num_8,0.950125681702,,,2018_Feb_06_1847,60.0034448806,MAFE4ImagesEEG,001,202608,
AFNE01.JPG,AFNE01.JPG,AFNE01.JPG,AFNE01.JPG,AFNE01.JPG,AFNE01.JPG,,,,,,,,,1,8,18,4,,,,,,,,,,,,,,,AMNE03.jpg,AMSA04.jpg,AMSA08.jpg,AMNE16.jpg,AMSA04.jpg,MS,2,num_6,16,num_6,0.850131358718,,,2018_Feb_06_1847,60.0034448806,MAFE4ImagesEEG,001,202608,
AFNE01.JPG,AFNE01.JPG,AFNE01.JPG,AFNE01.JPG,AFNE01.JPG,AFNE01.JPG,,,,,,,,,1,9,19,0,,,,,,,,,,,,,,,AMSA09.jpg,AMNE10.jpg,AMNE14.jpg,AMSA06.jpg,AMNE10.jpg,MN,1,num_6,32,num_8,3.66641381732,,,2018_Feb_06_1847,60.0034448806,MAFE4ImagesEEG,001,202608,
AFNE01.JPG,AFNE01.JPG,AFNE01.JPG,AFNE01.JPG,AFNE01.JPG,AFNE01.JPG,,,,,,,,,2,0,20,1,,,,,,,,,,,,,,,AMSA14.jpg,AMNE04.jpg,AMNE01.jpg,AMSA19.jpg,AMSA14.jpg,MS,2,num_8,32,num_6,0.633471326204,,,2018_Feb_06_1847,60.0034448806,MAFE4ImagesEEG,001,202608,
AFNE01.JPG,AFNE01.JPG,AFNE01.JPG,AFNE01.JPG,AFNE01.JPG,AFNE01.JPG,,,,,,,,,2,1,21,4,,,,,,,,,,,,,,,AMNE18.jpg,AMNE07.jpg,AMSA17.jpg,AMSA05.jpg,AMSA05.jpg,MS,2,num_4,32,num_8,0.983537414577,,,2018_Feb_06_1847,60.0034448806,MAFE4ImagesEEG,001,202608,
AFNE01.JPG,AFNE01.JPG,AFNE01.JPG,AFNE01.JPG,AFNE01.JPG,AFNE01.JPG,,,,,,,,,2,2,22,6,,,,,,,,,,,,,,,AMNE05.jpg,AMSA07.jpg,AMNE14.jpg,AMSA01.jpg,AMSA01.jpg,MS,2,num_4,48,None,,,,2018_Feb_06_1847,60.0034448806,MAFE4ImagesEEG,001,202608,
AFNE01.JPG,AFNE01.JPG,AFNE01.JPG,AFNE01.JPG,AFNE01.JPG,AFNE01.JPG,,,,,,,,,2,3,23,0,,,,,,,,,,,,,,,AMNE05.jpg,AMNE19.jpg,AMSA05.jpg,AMSA11.jpg,AMSA11.jpg,MS,2,num_4,16,num_4,1.11675615818,,,2018_Feb_06_1847,60.0034448806,MAFE4ImagesEEG,001,202608,
AFNE01.JPG,AFNE01.JPG,AFNE01.JPG,AFNE01.JPG,AFNE01.JPG,AFNE01.JPG,,,,,,,,,2,4,24,8,,,,,,,,,,,,,,,AMNE13.jpg,AMNE06.jpg,AMSA04.jpg,AMSA05.jpg,AMSA05.jpg,MS,2,num_4,32,num_8,1.63339819759,,,2018_Feb_06_1847,60.0034448806,MAFE4ImagesEEG,001,202608,
AFNE01.JPG,AFNE01.JPG,AFNE01.JPG,AFNE01.JPG,AFNE01.JPG,AFNE01.JPG,,,,,,,,,2,5,25,2,,,,,,,,,,,,,,,AMNE05.jpg,AMSA02.jpg,AMSA09.jpg,AMNE07.jpg,AMNE05.jpg,MN,1,num_8,48,None,,,,2018_Feb_06_1847,60.0034448806,MAFE4ImagesEEG,001,202608,
AFNE01.JPG,AFNE01.JPG,AFNE01.JPG,AFNE01.JPG,AFNE01.JPG,AFNE01.JPG,,,,,,,,,2,6,26,9,,,,,,,,,,,,,,,AMNE12.jpg,AMSA07.jpg,AMNE13.jpg,AMSA06.jpg,AMNE13.jpg,MN,1,num_2,48,None,,,,2018_Feb_06_1847,60.0034448806,MAFE4ImagesEEG,001,202608,
AFNE01.JPG,AFNE01.JPG,AFNE01.JPG,AFNE01.JPG,AFNE01.JPG,AFNE01.JPG,,,,,,,,,2,7,27,3,,,,,,,,,,,,,,,AMSA11.jpg,AMNE04.jpg,AMNE13.jpg,AMSA12.jpg,AMSA11.jpg,MS,2,num_8,32,num_2,1.16679148772,,,2018_Feb_06_1847,60.0034448806,MAFE4ImagesEEG,001,202608,
AFNE01.JPG,AFNE01.JPG,AFNE01.JPG,AFNE01.JPG,AFNE01.JPG,AFNE01.JPG,,,,,,,,,2,8,28,7,,,,,,,,,,,,,,,AMSA16.jpg,AMNE11.jpg,AMNE18.jpg,AMSA05.jpg,AMNE18.jpg,MN,1,num_2,32,num_8,0.950120549882,,,2018_Feb_06_1847,60.0034448806,MAFE4ImagesEEG,001,202608,
AFNE01.JPG,AFNE01.JPG,AFNE01.JPG,AFNE01.JPG,AFNE01.JPG,AFNE01.JPG,,,,,,,,,2,9,29,5,,,,,,,,,,,,,,,AMSA09.jpg,AMNE04.jpg,AMSA02.jpg,AMNE01.jpg,AMSA09.jpg,MS,2,num_8,16,num_8,0.600159343099,,,2018_Feb_06_1847,60.0034448806,MAFE4ImagesEEG,001,202608,
AFNE01.JPG,AFNE01.JPG,AFNE01.JPG,AFNE01.JPG,AFNE01.JPG,AFNE01.JPG,,,,,,,,,3,0,30,8,,,,,,,,,,,,,,,AMNE18.jpg,AMNE09.jpg,AMSA18.jpg,AMSA10.jpg,AMNE09.jpg,MN,1,num_6,16,num_6,1.30016643158,,,2018_Feb_06_1847,60.0034448806,MAFE4ImagesEEG,001,202608,
AFNE01.JPG,AFNE01.JPG,AFNE01.JPG,AFNE01.JPG,AFNE01.JPG,AFNE01.JPG,,,,,,,,,3,1,31,0,,,,,,,,,,,,,,,AMSA15.jpg,AMNE13.jpg,AMSA05.jpg,AMNE18.jpg,AMSA15.jpg,MS,2,num_8,16,num_8,0.783488148823,,,2018_Feb_06_1847,60.0034448806,MAFE4ImagesEEG,001,202608,
AFNE01.JPG,AFNE01.JPG,AFNE01.JPG,AFNE01.JPG,AFNE01.JPG,AFNE01.JPG,,,,,,,,,3,2,32,7,,,,,,,,,,,,,,,AMNE19.jpg,AMSA11.jpg,AMNE14.jpg,AMSA14.jpg,AMNE19.jpg,MN,1,num_8,16,num_8,1.1834615916,,,2018_Feb_06_1847,60.0034448806,MAFE4ImagesEEG,001,202608,
AFNE01.JPG,AFNE01.JPG,AFNE01.JPG,AFNE01.JPG,AFNE01.JPG,AFNE01.JPG,,,,,,,,,3,3,33,1,,,,,,,,,,,,,,,AMNE05.jpg,AMSA04.jpg,AMNE16.jpg,AMSA09.jpg,AMSA04.jpg,MS,2,num_6,16,num_6,0.850132000167,,,2018_Feb_06_1847,60.0034448806,MAFE4ImagesEEG,001,202608,
AFNE01.JPG,AFNE01.JPG,AFNE01.JPG,AFNE01.JPG,AFNE01.JPG,AFNE01.JPG,,,,,,,,,3,4,34,4,,,,,,,,,,,,,,,AMNE02.jpg,AMNE03.jpg,AMSA15.jpg,AMSA09.jpg,AMSA15.jpg,MS,2,num_2,16,num_2,0.633495060727,,,2018_Feb_06_1847,60.0034448806,MAFE4ImagesEEG,001,202608,
AFNE01.JPG,AFNE01.JPG,AFNE01.JPG,AFNE01.JPG,AFNE01.JPG,AFNE01.JPG,,,,,,,,,3,5,35,5,,,,,,,,,,,,,,,AMSA13.jpg,AMNE16.jpg,AMNE15.jpg,AMSA02.jpg,AMNE15.jpg,MN,1,num_2,32,num_8,2.31668097689,,,2018_Feb_06_1847,60.0034448806,MAFE4ImagesEEG,001,202608,
AFNE01.JPG,AFNE01.JPG,AFNE01.JPG,AFNE01.JPG,AFNE01.JPG,AFNE01.JPG,,,,,,,,,3,6,36,2,,,,,,,,,,,,,,,AMSA16.jpg,AMSA10.jpg,AMNE04.jpg,AMNE05.jpg,AMSA16.jpg,MS,2,num_8,16,num_8,2.93332022568,,,2018_Feb_06_1847,60.0034448806,MAFE4ImagesEEG,001,202608,
AFNE01.JPG,AFNE01.JPG,AFNE01.JPG,AFNE01.JPG,AFNE01.JPG,AFNE01.JPG,,,,,,,,,3,7,37,6,,,,,,,,,,,,,,,AMNE05.jpg,AMSA06.jpg,AMNE08.jpg,AMSA15.jpg,AMNE05.jpg,MN,1,num_8,32,num_6,0.683485165937,,,2018_Feb_06_1847,60.0034448806,MAFE4ImagesEEG,001,202608,
AFNE01.JPG,AFNE01.JPG,AFNE01.JPG,AFNE01.JPG,AFNE01.JPG,AFNE01.JPG,,,,,,,,,3,8,38,3,,,,,,,,,,,,,,,AMSA17.jpg,AMNE10.jpg,AMSA08.jpg,AMNE06.jpg,AMSA17.jpg,MS,2,num_8,16,num_8,0.816760680871,,,2018_Feb_06_1847,60.0034448806,MAFE4ImagesEEG,001,202608,
AFNE01.JPG,AFNE01.JPG,AFNE01.JPG,AFNE01.JPG,AFNE01.JPG,AFNE01.JPG,,,,,,,,,3,9,39,9,,,,,,,,,,,,,,,AMSA08.jpg,AMNE20.jpg,AMNE11.jpg,AMSA04.jpg,AMNE20.jpg,MN,1,num_6,32,num_2,1.91671908088,,,2018_Feb_06_1847,60.0034448806,MAFE4ImagesEEG,001,202608,
AFNE01.JPG,AFNE01.JPG,AFNE01.JPG,AFNE01.JPG,AFNE01.JPG,AFNE01.JPG,,,,,,,,,4,0,40,2,,,,,,,,,,,,,,,AMNE06.jpg,AMNE19.jpg,AMSA02.jpg,AMSA09.jpg,AMNE19.jpg,MN,1,num_6,16,num_6,1.36681284895,,,2018_Feb_06_1847,60.0034448806,MAFE4ImagesEEG,001,202608,
AFNE01.JPG,AFNE01.JPG,AFNE01.JPG,AFNE01.JPG,AFNE01.JPG,AFNE01.JPG,,,,,,,,,4,1,41,5,,,,,,,,,,,,,,,AMSA19.jpg,AMSA17.jpg,AMNE02.jpg,AMNE03.jpg,AMSA17.jpg,MS,2,num_6,32,num_4,1.33369844151,,,2018_Feb_06_1847,60.0034448806,MAFE4ImagesEEG,001,202608,
AFNE01.JPG,AFNE01.JPG,AFNE01.JPG,AFNE01.JPG,AFNE01.JPG,AFNE01.JPG,,,,,,,,,4,2,42,8,,,,,,,,,,,,,,,AMSA12.jpg,AMSA04.jpg,AMNE16.jpg,AMNE03.jpg,AMNE03.jpg,MN,1,num_4,32,num_8,1.03349480405,,,2018_Feb_06_1847,60.0034448806,MAFE4ImagesEEG,001,202608,
AFNE01.JPG,AFNE01.JPG,AFNE01.JPG,AFNE01.JPG,AFNE01.JPG,AFNE01.JPG,,,,,,,,,4,3,43,9,,,,,,,,,,,,,,,AMSA07.jpg,AMNE14.jpg,AMSA02.jpg,AMNE18.jpg,AMSA07.jpg,MS,2,num_8,32,num_4,0.933526461245,,,2018_Feb_06_1847,60.0034448806,MAFE4ImagesEEG,001,202608,
AFNE01.JPG,AFNE01.JPG,AFNE01.JPG,AFNE01.JPG,AFNE01.JPG,AFNE01.JPG,,,,,,,,,4,4,44,0,,,,,,,,,,,,,,,AMSA04.jpg,AMSA15.jpg,AMNE19.jpg,AMNE10.jpg,AMSA15.jpg,MS,2,num_6,32,num_4,0.766761915525,,,2018_Feb_06_1847,60.0034448806,MAFE4ImagesEEG,001,202608,
AFNE01.JPG,AFNE01.JPG,AFNE01.JPG,AFNE01.JPG,AFNE01.JPG,AFNE01.JPG,,,,,,,,,4,5,45,4,,,,,,,,,,,,,,,AMNE12.jpg,AMNE02.jpg,AMSA07.jpg,AMSA04.jpg,AMSA04.jpg,MS,2,num_4,32,num_8,2.35002631648,,,2018_Feb_06_1847,60.0034448806,MAFE4ImagesEEG,001,202608,
AFNE01.JPG,AFNE01.JPG,AFNE01.JPG,AFNE01.JPG,AFNE01.JPG,AFNE01.JPG,,,,,,,,,4,6,46,3,,,,,,,,,,,,,,,AMNE15.jpg,AMNE11.jpg,AMSA04.jpg,AMSA17.jpg,AMNE11.jpg,MN,1,num_6,48,None,,,,2018_Feb_06_1847,60.0034448806,MAFE4ImagesEEG,001,202608,
AFNE01.JPG,AFNE01.JPG,AFNE01.JPG,AFNE01.JPG,AFNE01.JPG,AFNE01.JPG,,,,,,,,,4,7,47,7,,,,,,,,,,,,,,,AMNE07.jpg,AMSA18.jpg,AMSA06.jpg,AMNE10.jpg,AMSA06.jpg,MS,2,num_2,32,num_8,0.700197607512,,,2018_Feb_06_1847,60.0034448806,MAFE4ImagesEEG,001,202608,
AFNE01.JPG,AFNE01.JPG,AFNE01.JPG,AFNE01.JPG,AFNE01.JPG,AFNE01.JPG,,,,,,,,,4,8,48,1,,,,,,,,,,,,,,,AMNE09.jpg,AMNE05.jpg,AMSA12.jpg,AMSA17.jpg,AMSA17.jpg,MS,2,num_4,32,num_8,1.9667082238,,,2018_Feb_06_1847,60.0034448806,MAFE4ImagesEEG,001,202608,
AFNE01.JPG,AFNE01.JPG,AFNE01.JPG,AFNE01.JPG,AFNE01.JPG,AFNE01.JPG,,,,,,,,,4,9,49,6,,,,,,,,,,,,,,,AMSA16.jpg,AMSA10.jpg,AMNE17.jpg,AMNE13.jpg,AMNE13.jpg,MN,1,num_4,32,num_8,1.03345439094,,,2018_Feb_06_1847,60.0034448806,MAFE4ImagesEEG,001,202608,
AFNE01.JPG,AFNE01.JPG,AFNE01.JPG,AFNE01.JPG,AFNE01.JPG,AFNE01.JPG,,,,,,,,,5,0,50,8,,,,,,,,,,,,,,,AMNE07.jpg,AMSA20.jpg,AMSA14.jpg,AMNE19.jpg,AMSA14.jpg,MS,2,num_2,32,num_8,0.91681369883,,,2018_Feb_06_1847,60.0034448806,MAFE4ImagesEEG,001,202608,
AFNE01.JPG,AFNE01.JPG,AFNE01.JPG,AFNE01.JPG,AFNE01.JPG,AFNE01.JPG,,,,,,,,,5,1,51,4,,,,,,,,,,,,,,,AMSA09.jpg,AMNE01.jpg,AMNE19.jpg,AMSA14.jpg,AMSA14.jpg,MS,2,num_4,32,num_2,1.95004806295,,,2018_Feb_06_1847,60.0034448806,MAFE4ImagesEEG,001,202608,
AFNE01.JPG,AFNE01.JPG,AFNE01.JPG,AFNE01.JPG,AFNE01.JPG,AFNE01.JPG,,,,,,,,,5,2,52,1,,,,,,,,,,,,,,,AMNE19.jpg,AMSA12.jpg,AMSA16.jpg,AMNE17.jpg,AMSA12.jpg,MS,2,num_6,32,num_4,1.06674392219,,,2018_Feb_06_1847,60.0034448806,MAFE4ImagesEEG,001,202608,
AFNE01.JPG,AFNE01.JPG,AFNE01.JPG,AFNE01.JPG,AFNE01.JPG,AFNE01.JPG,,,,,,,,,5,3,53,2,,,,,,,,,,,,,,,AMNE03.jpg,AMSA07.jpg,AMSA03.jpg,AMNE16.jpg,AMSA07.jpg,MS,2,num_6,32,num_4,2.89993671817,,,2018_Feb_06_1847,60.0034448806,MAFE4ImagesEEG,001,202608,
AFNE01.JPG,AFNE01.JPG,AFNE01.JPG,AFNE01.JPG,AFNE01.JPG,AFNE01.JPG,,,,,,,,,5,4,54,9,,,,,,,,,,,,,,,AMNE11.jpg,AMSA08.jpg,AMNE19.jpg,AMSA14.jpg,AMSA14.jpg,MS,2,num_4,48,None,,,,2018_Feb_06_1847,60.0034448806,MAFE4ImagesEEG,001,202608,
AFNE01.JPG,AFNE01.JPG,AFNE01.JPG,AFNE01.JPG,AFNE01.JPG,AFNE01.JPG,,,,,,,,,5,5,55,6,,,,,,,,,,,,,,,AMNE15.jpg,AMNE11.jpg,AMSA14.jpg,AMSA11.jpg,AMNE11.jpg,MN,1,num_6,32,num_8,1.06677920348,,,2018_Feb_06_1847,60.0034448806,MAFE4ImagesEEG,001,202608,
AFNE01.JPG,AFNE01.JPG,AFNE01.JPG,AFNE01.JPG,AFNE01.JPG,AFNE01.JPG,,,,,,,,,5,6,56,7,,,,,,,,,,,,,,,AMSA11.jpg,AMSA03.jpg,AMNE02.jpg,AMNE05.jpg,AMNE02.jpg,MN,1,num_2,16,num_2,0.850184601499,,,2018_Feb_06_1847,60.0034448806,MAFE4ImagesEEG,001,202608,
AFNE01.JPG,AFNE01.JPG,AFNE01.JPG,AFNE01.JPG,AFNE01.JPG,AFNE01.JPG,,,,,,,,,5,7,57,3,,,,,,,,,,,,,,,AMSA13.jpg,AMNE18.jpg,AMSA09.jpg,AMNE12.jpg,AMSA13.jpg,MS,2,num_8,32,num_4,1.3001446214,,,2018_Feb_06_1847,60.0034448806,MAFE4ImagesEEG,001,202608,
AFNE01.JPG,AFNE01.JPG,AFNE01.JPG,AFNE01.JPG,AFNE01.JPG,AFNE01.JPG,,,,,,,,,5,8,58,5,,,,,,,,,,,,,,,AMSA09.jpg,AMNE15.jpg,AMSA08.jpg,AMNE17.jpg,AMSA08.jpg,MS,2,num_2,48,None,,,,2018_Feb_06_1847,60.0034448806,MAFE4ImagesEEG,001,202608,
AFNE01.JPG,AFNE01.JPG,AFNE01.JPG,AFNE01.JPG,AFNE01.JPG,AFNE01.JPG,,,,,,,,,5,9,59,0,,,,,,,,,,,,,,,AMSA05.jpg,AMNE13.jpg,AMNE19.jpg,AMSA01.jpg,AMNE13.jpg,MN,1,num_6,16,num_6,1.41676767264,,,2018_Feb_06_1847,60.0034448806,MAFE4ImagesEEG,001,202608,
,,,,,,,,,,,,,,,,,,,,,,,,,,,,,,,,,,,,,,,,,,,space,2.40025344817,2018_Feb_06_1847,60.0034448806,MAFE4ImagesEEG,001,202608,
AFNE01.JPG,AFNE01.JPG,AFNE01.JPG,AFNE01.JPG,AFNE01.JPG,AFNE01.JPG,,,,,,,,,,,,,0,0,0,4,,,,,,,,,,,AFSA10.jpg,AFNE14.jpg,AFSA03.jpg,AFNE09.jpg,AFNE14.jpg,FN,3,num_6,32,num_4,0.850163432769,,,2018_Feb_06_1847,60.0034448806,MAFE4ImagesEEG,001,202608,
AFNE01.JPG,AFNE01.JPG,AFNE01.JPG,AFNE01.JPG,AFNE01.JPG,AFNE01.JPG,,,,,,,,,,,,,0,1,1,3,,,,,,,,,,,AFNE01.jpg,AFSA05.jpg,AFSA16.jpg,AFNE03.jpg,AFSA16.jpg,FS,4,num_2,32,num_8,0.816787302028,,,2018_Feb_06_1847,60.0034448806,MAFE4ImagesEEG,001,202608,
AFNE01.JPG,AFNE01.JPG,AFNE01.JPG,AFNE01.JPG,AFNE01.JPG,AFNE01.JPG,,,,,,,,,,,,,0,2,2,1,,,,,,,,,,,AFNE11.jpg,AFNE12.jpg,AFSA01.jpg,AFSA19.jpg,AFSA01.jpg,FS,4,num_2,16,num_2,0.700200494146,,,2018_Feb_06_1847,60.0034448806,MAFE4ImagesEEG,001,202608,
AFNE01.JPG,AFNE01.JPG,AFNE01.JPG,AFNE01.JPG,AFNE01.JPG,AFNE01.JPG,,,,,,,,,,,,,0,3,3,8,,,,,,,,,,,AFSA20.jpg,AFNE03.jpg,AFNE18.jpg,AFSA05.jpg,AFNE18.jpg,FN,3,num_2,16,num_2,1.21670365334,,,2018_Feb_06_1847,60.0034448806,MAFE4ImagesEEG,001,202608,
AFNE01.JPG,AFNE01.JPG,AFNE01.JPG,AFNE01.JPG,AFNE01.JPG,AFNE01.JPG,,,,,,,,,,,,,0,4,4,0,,,,,,,,,,,AFNE03.jpg,AFSA19.jpg,AFNE10.jpg,AFSA14.jpg,AFNE10.jpg,FN,3,num_2,32,num_8,0.750170713523,,,2018_Feb_06_1847,60.0034448806,MAFE4ImagesEEG,001,202608,
AFNE01.JPG,AFNE01.JPG,AFNE01.JPG,AFNE01.JPG,AFNE01.JPG,AFNE01.JPG,,,,,,,,,,,,,0,5,5,2,,,,,,,,,,,AFNE11.jpg,AFSA02.jpg,AFNE20.jpg,AFSA19.jpg,AFNE11.jpg,FN,3,num_8,48,None,,,,2018_Feb_06_1847,60.0034448806,MAFE4ImagesEEG,001,202608,
AFNE01.JPG,AFNE01.JPG,AFNE01.JPG,AFNE01.JPG,AFNE01.JPG,AFNE01.JPG,,,,,,,,,,,,,0,6,6,7,,,,,,,,,,,AFNE09.jpg,AFSA17.jpg,AFNE02.jpg,AFSA10.jpg,AFNE02.jpg,FN,3,num_2,32,num_8,3.28301489819,,,2018_Feb_06_1847,60.0034448806,MAFE4ImagesEEG,001,202608,
AFNE01.JPG,AFNE01.JPG,AFNE01.JPG,AFNE01.JPG,AFNE01.JPG,AFNE01.JPG,,,,,,,,,,,,,0,7,7,6,,,,,,,,,,,AFNE11.jpg,AFSA01.jpg,AFSA12.jpg,AFNE18.jpg,AFNE11.jpg,FN,3,num_8,32,num_6,1.03350282251,,,2018_Feb_06_1847,60.0034448806,MAFE4ImagesEEG,001,202608,
AFNE01.JPG,AFNE01.JPG,AFNE01.JPG,AFNE01.JPG,AFNE01.JPG,AFNE01.JPG,,,,,,,,,,,,,0,8,8,9,,,,,,,,,,,AFNE16.jpg,AFNE05.jpg,AFSA17.jpg,AFSA15.jpg,AFNE16.jpg,FN,3,num_8,16,num_8,4.53348470083,,,2018_Feb_06_1847,60.0034448806,MAFE4ImagesEEG,001,202608,
AFNE01.JPG,AFNE01.JPG,AFNE01.JPG,AFNE01.JPG,AFNE01.JPG,AFNE01.JPG,,,,,,,,,,,,,0,9,9,5,,,,,,,,,,,AFSA03.jpg,AFNE12.jpg,AFNE09.jpg,AFSA16.jpg,AFNE12.jpg,FN,3,num_6,16,num_6,0.600183398696,,,2018_Feb_06_1847,60.0034448806,MAFE4ImagesEEG,001,202608,
AFNE01.JPG,AFNE01.JPG,AFNE01.JPG,AFNE01.JPG,AFNE01.JPG,AFNE01.JPG,,,,,,,,,,,,,1,0,10,8,,,,,,,,,,,AFNE07.jpg,AFSA12.jpg,AFNE15.jpg,AFSA16.jpg,AFNE15.jpg,FN,3,num_2,32,num_8,0.866766181542,,,2018_Feb_06_1847,60.0034448806,MAFE4ImagesEEG,001,202608,
AFNE01.JPG,AFNE01.JPG,AFNE01.JPG,AFNE01.JPG,AFNE01.JPG,AFNE01.JPG,,,,,,,,,,,,,1,1,11,9,,,,,,,,,,,AFNE03.jpg,AFNE04.jpg,AFSA06.jpg,AFSA19.jpg,AFNE03.jpg,FN,3,num_8,32,num_2,1.16676390404,,,2018_Feb_06_1847,60.0034448806,MAFE4ImagesEEG,001,202608,
AFNE01.JPG,AFNE01.JPG,AFNE01.JPG,AFNE01.JPG,AFNE01.JPG,AFNE01.JPG,,,,,,,,,,,,,1,2,12,0,,,,,,,,,,,AFSA05.jpg,AFNE08.jpg,AFNE15.jpg,AFSA03.jpg,AFNE15.jpg,FN,3,num_2,32,num_8,4.5165121397,,,2018_Feb_06_1847,60.0034448806,MAFE4ImagesEEG,001,202608,
AFNE01.JPG,AFNE01.JPG,AFNE01.JPG,AFNE01.JPG,AFNE01.JPG,AFNE01.JPG,,,,,,,,,,,,,1,3,13,2,,,,,,,,,,,AFNE18.jpg,AFSA19.jpg,AFSA08.jpg,AFNE16.jpg,AFSA08.jpg,FS,4,num_2,16,num_2,1.66666752193,,,2018_Feb_06_1847,60.0034448806,MAFE4ImagesEEG,001,202608,
AFNE01.JPG,AFNE01.JPG,AFNE01.JPG,AFNE01.JPG,AFNE01.JPG,AFNE01.JPG,,,,,,,,,,,,,1,4,14,1,,,,,,,,,,,AFSA18.jpg,AFNE10.jpg,AFNE02.jpg,AFSA14.jpg,AFNE10.jpg,FN,3,num_6,32,num_8,0.600225736387,,,2018_Feb_06_1847,60.0034448806,MAFE4ImagesEEG,001,202608,
AFNE01.JPG,AFNE01.JPG,AFNE01.JPG,AFNE01.JPG,AFNE01.JPG,AFNE01.JPG,,,,,,,,,,,,,1,5,15,5,,,,,,,,,,,AFSA14.jpg,AFNE12.jpg,AFNE06.jpg,AFSA17.jpg,AFSA17.jpg,FS,4,num_4,32,num_8,0.849837561604,,,2018_Feb_06_1847,60.0034448806,MAFE4ImagesEEG,001,202608,
AFNE01.JPG,AFNE01.JPG,AFNE01.JPG,AFNE01.JPG,AFNE01.JPG,AFNE01.JPG,,,,,,,,,,,,,1,6,16,6,,,,,,,,,,,AFSA07.jpg,AFNE02.jpg,AFNE10.jpg,AFSA03.jpg,AFSA03.jpg,FS,4,num_4,32,num_8,0.933483802946,,,2018_Feb_06_1847,60.0034448806,MAFE4ImagesEEG,001,202608,
AFNE01.JPG,AFNE01.JPG,AFNE01.JPG,AFNE01.JPG,AFNE01.JPG,AFNE01.JPG,,,,,,,,,,,,,1,7,17,4,,,,,,,,,,,AFSA13.jpg,AFNE17.jpg,AFNE11.jpg,AFSA05.jpg,AFSA13.jpg,FS,4,num_8,32,num_6,1.56675242167,,,2018_Feb_06_1847,60.0034448806,MAFE4ImagesEEG,001,202608,
AFNE01.JPG,AFNE01.JPG,AFNE01.JPG,AFNE01.JPG,AFNE01.JPG,AFNE01.JPG,,,,,,,,,,,,,1,8,18,3,,,,,,,,,,,AFSA11.jpg,AFNE12.jpg,AFSA08.jpg,AFNE11.jpg,AFNE12.jpg,FN,3,num_6,16,num_6,0.600175380241,,,2018_Feb_06_1847,60.0034448806,MAFE4ImagesEEG,001,202608,
AFNE01.JPG,AFNE01.JPG,AFNE01.JPG,AFNE01.JPG,AFNE01.JPG,AFNE01.JPG,,,,,,,,,,,,,1,9,19,7,,,,,,,,,,,AFNE15.jpg,AFSA04.jpg,AFNE02.jpg,AFSA17.jpg,AFNE15.jpg,FN,3,num_8,16,num_8,0.566780005349,,,2018_Feb_06_1847,60.0034448806,MAFE4ImagesEEG,001,202608,
AFNE01.JPG,AFNE01.JPG,AFNE01.JPG,AFNE01.JPG,AFNE01.JPG,AFNE01.JPG,,,,,,,,,,,,,2,0,20,1,,,,,,,,,,,AFNE11.jpg,AFNE01.jpg,AFSA14.jpg,AFSA05.jpg,AFNE11.jpg,FN,3,num_8,32,num_2,0.833510648692,,,2018_Feb_06_1847,60.0034448806,MAFE4ImagesEEG,001,202608,
AFNE01.JPG,AFNE01.JPG,AFNE01.JPG,AFNE01.JPG,AFNE01.JPG,AFNE01.JPG,,,,,,,,,,,,,2,1,21,8,,,,,,,,,,,AFSA20.jpg,AFNE07.jpg,AFSA17.jpg,AFNE18.jpg,AFSA17.jpg,FS,4,num_2,32,num_8,0.583525803639,,,2018_Feb_06_1847,60.0034448806,MAFE4ImagesEEG,001,202608,
AFNE01.JPG,AFNE01.JPG,AFNE01.JPG,AFNE01.JPG,AFNE01.JPG,AFNE01.JPG,,,,,,,,,,,,,2,2,22,3,,,,,,,,,,,AFSA02.jpg,AFSA09.jpg,AFNE16.jpg,AFNE14.jpg,AFNE16.jpg,FN,3,num_2,32,num_6,1.03342295857,,,2018_Feb_06_1847,60.0034448806,MAFE4ImagesEEG,001,202608,
AFNE01.JPG,AFNE01.JPG,AFNE01.JPG,AFNE01.JPG,AFNE01.JPG,AFNE01.JPG,,,,,,,,,,,,,2,3,23,9,,,,,,,,,,,AFNE10.jpg,AFSA09.jpg,AFSA19.jpg,AFNE15.jpg,AFNE15.jpg,FN,3,num_4,32,num_8,0.633467477281,,,2018_Feb_06_1847,60.0034448806,MAFE4ImagesEEG,001,202608,
AFNE01.JPG,AFNE01.JPG,AFNE01.JPG,AFNE01.JPG,AFNE01.JPG,AFNE01.JPG,,,,,,,,,,,,,2,4,24,2,,,,,,,,,,,AFNE09.jpg,AFSA20.jpg,AFNE14.jpg,AFSA08.jpg,AFNE09.jpg,FN,3,num_8,32,num_6,0.633445025422,,,2018_Feb_06_1847,60.0034448806,MAFE4ImagesEEG,001,202608,
AFNE01.JPG,AFNE01.JPG,AFNE01.JPG,AFNE01.JPG,AFNE01.JPG,AFNE01.JPG,,,,,,,,,,,,,2,5,25,7,,,,,,,,,,,AFSA14.jpg,AFNE10.jpg,AFNE18.jpg,AFSA16.jpg,AFNE18.jpg,FN,3,num_2,32,num_8,2.74999270332,,,2018_Feb_06_1847,60.0034448806,MAFE4ImagesEEG,001,202608,
AFNE01.JPG,AFNE01.JPG,AFNE01.JPG,AFNE01.JPG,AFNE01.JPG,AFNE01.JPG,,,,,,,,,,,,,2,6,26,6,,,,,,,,,,,AFSA13.jpg,AFSA17.jpg,AFNE06.jpg,AFNE07.jpg,AFNE06.jpg,FN,3,num_2,32,num_4,0.966494932072,,,2018_Feb_06_1847,60.0034448806,MAFE4ImagesEEG,001,202608,
AFNE01.JPG,AFNE01.JPG,AFNE01.JPG,AFNE01.JPG,AFNE01.JPG,AFNE01.JPG,,,,,,,,,,,,,2,7,27,4,,,,,,,,,,,AFNE15.jpg,AFSA02.jpg,AFSA16.jpg,AFNE08.jpg,AFSA02.jpg,FS,4,num_6,16,num_6,0.83345933049,,,2018_Feb_06_1847,60.0034448806,MAFE4ImagesEEG,001,202608,
AFNE01.JPG,AFNE01.JPG,AFNE01.JPG,AFNE01.JPG,AFNE01.JPG,AFNE01.JPG,,,,,,,,,,,,,2,8,28,5,,,,,,,,,,,AFNE12.jpg,AFSA14.jpg,AFNE20.jpg,AFSA18.jpg,AFSA18.jpg,FS,4,num_4,48,None,,,,2018_Feb_06_1847,60.0034448806,MAFE4ImagesEEG,001,202608,
AFNE01.JPG,AFNE01.JPG,AFNE01.JPG,AFNE01.JPG,AFNE01.JPG,AFNE01.JPG,,,,,,,,,,,,,2,9,29,0,,,,,,,,,,,AFNE06.jpg,AFNE08.jpg,AFSA15.jpg,AFSA19.jpg,AFNE06.jpg,FN,3,num_8,16,num_8,4.16648838902,,,2018_Feb_06_1847,60.0034448806,MAFE4ImagesEEG,001,202608,
AFNE01.JPG,AFNE01.JPG,AFNE01.JPG,AFNE01.JPG,AFNE01.JPG,AFNE01.JPG,,,,,,,,,,,,,3,0,30,8,,,,,,,,,,,AFSA20.jpg,AFSA18.jpg,AFNE15.jpg,AFNE08.jpg,AFNE15.jpg,FN,3,num_2,32,num_4,0.800118160434,,,2018_Feb_06_1847,60.0034448806,MAFE4ImagesEEG,001,202608,
AFNE01.JPG,AFNE01.JPG,AFNE01.JPG,AFNE01.JPG,AFNE01.JPG,AFNE01.JPG,,,,,,,,,,,,,3,1,31,4,,,,,,,,,,,AFNE11.jpg,AFNE18.jpg,AFSA13.jpg,AFSA11.jpg,AFNE18.jpg,FN,3,num_6,32,num_8,0.633323465241,,,2018_Feb_06_1847,60.0034448806,MAFE4ImagesEEG,001,202608,
AFNE01.JPG,AFNE01.JPG,AFNE01.JPG,AFNE01.JPG,AFNE01.JPG,AFNE01.JPG,,,,,,,,,,,,,3,2,32,2,,,,,,,,,,,AFSA20.jpg,AFSA18.jpg,AFNE07.jpg,AFNE08.jpg,AFNE08.jpg,FN,3,num_4,32,num_8,3.29995378153,,,2018_Feb_06_1847,60.0034448806,MAFE4ImagesEEG,001,202608,
AFNE01.JPG,AFNE01.JPG,AFNE01.JPG,AFNE01.JPG,AFNE01.JPG,AFNE01.JPG,,,,,,,,,,,,,3,3,33,0,,,,,,,,,,,AFSA04.jpg,AFNE15.jpg,AFNE13.jpg,AFSA17.jpg,AFNE15.jpg,FN,3,num_6,16,num_6,0.733469497878,,,2018_Feb_06_1847,60.0034448806,MAFE4ImagesEEG,001,202608,
AFNE01.JPG,AFNE01.JPG,AFNE01.JPG,AFNE01.JPG,AFNE01.JPG,AFNE01.JPG,,,,,,,,,,,,,3,4,34,7,,,,,,,,,,,AFSA09.jpg,AFSA01.jpg,AFNE18.jpg,AFNE12.jpg,AFNE12.jpg,FN,3,num_4,32,num_8,3.11660733516,,,2018_Feb_06_1847,60.0034448806,MAFE4ImagesEEG,001,202608,
AFNE01.JPG,AFNE01.JPG,AFNE01.JPG,AFNE01.JPG,AFNE01.JPG,AFNE01.JPG,,,,,,,,,,,,,3,5,35,5,,,,,,,,,,,AFSA18.jpg,AFSA09.jpg,AFNE17.jpg,AFNE10.jpg,AFSA18.jpg,FS,4,num_8,32,num_2,0.916766871,,,2018_Feb_06_1847,60.0034448806,MAFE4ImagesEEG,001,202608,
AFNE01.JPG,AFNE01.JPG,AFNE01.JPG,AFNE01.JPG,AFNE01.JPG,AFNE01.JPG,,,,,,,,,,,,,3,6,36,9,,,,,,,,,,,AFSA10.jpg,AFSA08.jpg,AFNE12.jpg,AFNE07.jpg,AFNE12.jpg,FN,3,num_2,32,num_8,0.516706187278,,,2018_Feb_06_1847,60.0034448806,MAFE4ImagesEEG,001,202608,
AFNE01.JPG,AFNE01.JPG,AFNE01.JPG,AFNE01.JPG,AFNE01.JPG,AFNE01.JPG,,,,,,,,,,,,,3,7,37,6,,,,,,,,,,,AFSA18.jpg,AFNE13.jpg,AFNE05.jpg,AFSA05.jpg,AFSA18.jpg,FS,4,num_8,32,num_2,0.766816762043,,,2018_Feb_06_1847,60.0034448806,MAFE4ImagesEEG,001,202608,
AFNE01.JPG,AFNE01.JPG,AFNE01.JPG,AFNE01.JPG,AFNE01.JPG,AFNE01.JPG,,,,,,,,,,,,,3,8,38,1,,,,,,,,,,,AFNE15.jpg,AFSA11.jpg,AFNE20.jpg,AFSA16.jpg,AFSA16.jpg,FS,4,num_4,16,num_4,0.750183863798,,,2018_Feb_06_1847,60.0034448806,MAFE4ImagesEEG,001,202608,
AFNE01.JPG,AFNE01.JPG,AFNE01.JPG,AFNE01.JPG,AFNE01.JPG,AFNE01.JPG,,,,,,,,,,,,,3,9,39,3,,,,,,,,,,,AFNE07.jpg,AFNE01.jpg,AFSA11.jpg,AFSA16.jpg,AFNE01.jpg,FN,3,num_6,16,num_6,1.91671330761,,,2018_Feb_06_1847,60.0034448806,MAFE4ImagesEEG,001,202608,
AFNE01.JPG,AFNE01.JPG,AFNE01.JPG,AFNE01.JPG,AFNE01.JPG,AFNE01.JPG,,,,,,,,,,,,,4,0,40,5,,,,,,,,,,,AFSA05.jpg,AFSA20.jpg,AFNE11.jpg,AFNE01.jpg,AFSA20.jpg,FS,4,num_6,32,num_4,0.983454022091,,,2018_Feb_06_1847,60.0034448806,MAFE4ImagesEEG,001,202608,
AFNE01.JPG,AFNE01.JPG,AFNE01.JPG,AFNE01.JPG,AFNE01.JPG,AFNE01.JPG,,,,,,,,,,,,,4,1,41,6,,,,,,,,,,,AFSA18.jpg,AFSA20.jpg,AFNE17.jpg,AFNE18.jpg,AFNE17.jpg,FN,3,num_2,32,num_8,3.61655104556,,,2018_Feb_06_1847,60.0034448806,MAFE4ImagesEEG,001,202608,
AFNE01.JPG,AFNE01.JPG,AFNE01.JPG,AFNE01.JPG,AFNE01.JPG,AFNE01.JPG,,,,,,,,,,,,,4,2,42,7,,,,,,,,,,,AFNE19.jpg,AFSA18.jpg,AFSA12.jpg,AFNE12.jpg,AFSA12.jpg,FS,4,num_2,32,num_4,0.483530518599,,,2018_Feb_06_1847,60.0034448806,MAFE4ImagesEEG,001,202608,
AFNE01.JPG,AFNE01.JPG,AFNE01.JPG,AFNE01.JPG,AFNE01.JPG,AFNE01.JPG,,,,,,,,,,,,,4,3,43,9,,,,,,,,,,,AFNE09.jpg,AFSA09.jpg,AFNE10.jpg,AFSA11.jpg,AFNE09.jpg,FN,3,num_8,16,num_8,1.01661269157,,,2018_Feb_06_1847,60.0034448806,MAFE4ImagesEEG,001,202608,
AFNE01.JPG,AFNE01.JPG,AFNE01.JPG,AFNE01.JPG,AFNE01.JPG,AFNE01.JPG,,,,,,,,,,,,,4,4,44,2,,,,,,,,,,,AFNE14.jpg,AFSA08.jpg,AFSA14.jpg,AFNE11.jpg,AFNE11.jpg,FN,3,num_4,16,num_4,0.78349456354,,,2018_Feb_06_1847,60.0034448806,MAFE4ImagesEEG,001,202608,
AFNE01.JPG,AFNE01.JPG,AFNE01.JPG,AFNE01.JPG,AFNE01.JPG,AFNE01.JPG,,,,,,,,,,,,,4,5,45,3,,,,,,,,,,,AFSA14.jpg,AFNE05.jpg,AFNE02.jpg,AFSA13.jpg,AFNE05.jpg,FN,3,num_6,32,num_2,1.85003866511,,,2018_Feb_06_1847,60.0034448806,MAFE4ImagesEEG,001,202608,
AFNE01.JPG,AFNE01.JPG,AFNE01.JPG,AFNE01.JPG,AFNE01.JPG,AFNE01.JPG,,,,,,,,,,,,,4,6,46,8,,,,,,,,,,,AFNE10.jpg,AFNE14.jpg,AFSA14.jpg,AFSA07.jpg,AFNE10.jpg,FN,3,num_8,16,num_8,1.10020857677,,,2018_Feb_06_1847,60.0034448806,MAFE4ImagesEEG,001,202608,
AFNE01.JPG,AFNE01.JPG,AFNE01.JPG,AFNE01.JPG,AFNE01.JPG,AFNE01.JPG,,,,,,,,,,,,,4,7,47,0,,,,,,,,,,,AFSA15.jpg,AFNE16.jpg,AFSA12.jpg,AFNE06.jpg,AFNE16.jpg,FN,3,num_6,16,num_6,0.616836503614,,,2018_Feb_06_1847,60.0034448806,MAFE4ImagesEEG,001,202608,
AFNE01.JPG,AFNE01.JPG,AFNE01.JPG,AFNE01.JPG,AFNE01.JPG,AFNE01.JPG,,,,,,,,,,,,,4,8,48,4,,,,,,,,,,,AFSA10.jpg,AFNE03.jpg,AFSA16.jpg,AFNE20.jpg,AFNE03.jpg,FN,3,num_6,32,num_4,1.06677888264,,,2018_Feb_06_1847,60.0034448806,MAFE4ImagesEEG,001,202608,
AFNE01.JPG,AFNE01.JPG,AFNE01.JPG,AFNE01.JPG,AFNE01.JPG,AFNE01.JPG,,,,,,,,,,,,,4,9,49,1,,,,,,,,,,,AFSA03.jpg,AFNE15.jpg,AFSA02.jpg,AFNE19.jpg,AFSA02.jpg,FS,4,num_2,48,None,,,,2018_Feb_06_1847,60.0034448806,MAFE4ImagesEEG,001,202608,
AFNE01.JPG,AFNE01.JPG,AFNE01.JPG,AFNE01.JPG,AFNE01.JPG,AFNE01.JPG,,,,,,,,,,,,,5,0,50,0,,,,,,,,,,,AFNE03.jpg,AFSA15.jpg,AFSA02.jpg,AFNE13.jpg,AFSA02.jpg,FS,4,num_2,32,num_4,1.83341667219,,,2018_Feb_06_1847,60.0034448806,MAFE4ImagesEEG,001,202608,
AFNE01.JPG,AFNE01.JPG,AFNE01.JPG,AFNE01.JPG,AFNE01.JPG,AFNE01.JPG,,,,,,,,,,,,,5,1,51,3,,,,,,,,,,,AFSA01.jpg,AFNE10.jpg,AFSA16.jpg,AFNE17.jpg,AFSA16.jpg,FS,4,num_2,32,num_4,0.766778273275,,,2018_Feb_06_1847,60.0034448806,MAFE4ImagesEEG,001,202608,
AFNE01.JPG,AFNE01.JPG,AFNE01.JPG,AFNE01.JPG,AFNE01.JPG,AFNE01.JPG,,,,,,,,,,,,,5,2,52,2,,,,,,,,,,,AFSA02.jpg,AFNE19.jpg,AFSA12.jpg,AFNE06.jpg,AFSA12.jpg,FS,4,num_2,16,num_2,1.23345522489,,,2018_Feb_06_1847,60.0034448806,MAFE4ImagesEEG,001,202608,
AFNE01.JPG,AFNE01.JPG,AFNE01.JPG,AFNE01.JPG,AFNE01.JPG,AFNE01.JPG,,,,,,,,,,,,,5,3,53,5,,,,,,,,,,,AFSA03.jpg,AFSA02.jpg,AFNE06.jpg,AFNE04.jpg,AFSA03.jpg,FS,4,num_8,32,num_6,0.75016173278,,,2018_Feb_06_1847,60.0034448806,MAFE4ImagesEEG,001,202608,
AFNE01.JPG,AFNE01.JPG,AFNE01.JPG,AFNE01.JPG,AFNE01.JPG,AFNE01.JPG,,,,,,,,,,,,,5,4,54,1,,,,,,,,,,,AFNE13.jpg,AFNE17.jpg,AFSA07.jpg,AFSA03.jpg,AFNE17.jpg,FN,3,num_6,32,num_8,1.06677182647,,,2018_Feb_06_1847,60.0034448806,MAFE4ImagesEEG,001,202608,
AFNE01.JPG,AFNE01.JPG,AFNE01.JPG,AFNE01.JPG,AFNE01.JPG,AFNE01.JPG,,,,,,,,,,,,,5,5,55,4,,,,,,,,,,,AFNE08.jpg,AFNE04.jpg,AFSA11.jpg,AFSA19.jpg,AFSA11.jpg,FS,4,num_2,32,num_4,1.1835055328,,,2018_Feb_06_1847,60.0034448806,MAFE4ImagesEEG,001,202608,
AFNE01.JPG,AFNE01.JPG,AFNE01.JPG,AFNE01.JPG,AFNE01.JPG,AFNE01.JPG,,,,,,,,,,,,,5,6,56,8,,,,,,,,,,,AFSA10.jpg,AFNE07.jpg,AFSA20.jpg,AFNE13.jpg,AFNE07.jpg,FN,3,num_6,16,num_6,1.81674528518,,,2018_Feb_06_1847,60.0034448806,MAFE4ImagesEEG,001,202608,
AFNE01.JPG,AFNE01.JPG,AFNE01.JPG,AFNE01.JPG,AFNE01.JPG,AFNE01.JPG,,,,,,,,,,,,,5,7,57,6,,,,,,,,,,,AFSA14.jpg,AFSA02.jpg,AFNE09.jpg,AFNE06.jpg,AFNE09.jpg,FN,3,num_2,32,num_8,1.45002705441,,,2018_Feb_06_1847,60.0034448806,MAFE4ImagesEEG,001,202608,
AFNE01.JPG,AFNE01.JPG,AFNE01.JPG,AFNE01.JPG,AFNE01.JPG,AFNE01.JPG,,,,,,,,,,,,,5,8,58,7,,,,,,,,,,,AFSA01.jpg,AFSA02.jpg,AFNE17.jpg,AFNE05.jpg,AFNE17.jpg,FN,3,num_2,32,num_6,0.766773462063,,,2018_Feb_06_1847,60.0034448806,MAFE4ImagesEEG,001,202608,
AFNE01.JPG,AFNE01.JPG,AFNE01.JPG,AFNE01.JPG,AFNE01.JPG,AFNE01.JPG,,,,,,,,,,,,,5,9,59,9,,,,,,,,,,,AFNE19.jpg,AFSA04.jpg,AFSA05.jpg,AFNE11.jpg,AFNE11.jpg,FN,3,num_4,32,num_8,0.716795545071,,,2018_Feb_06_1847,60.0034448806,MAFE4ImagesEEG,001,202608,
,,,,,,,,,,,,,,,,,,,,,,,,,,,,,,,,,,,,,,,,,,,space,5.31640642416,2018_Feb_06_1847,60.0034448806,MAFE4ImagesEEG,001,202608,
AFNE01.JPG,AFNE01.JPG,AFNE01.JPG,AFNE01.JPG,AFNE01.JPG,AFNE01.JPG,,,,,,,,,,,,,,,,,0,0,0,5,,,,,,,AMNE09.jpg,AMSA10.jpg,AMNE13.jpg,AMSA01.jpg,AMSA01.jpg,MS,2,num_4,16,num_4,0.766776348697,,,2018_Feb_06_1847,60.0034448806,MAFE4ImagesEEG,001,202608,
AFNE01.JPG,AFNE01.JPG,AFNE01.JPG,AFNE01.JPG,AFNE01.JPG,AFNE01.JPG,,,,,,,,,,,,,,,,,0,1,1,7,,,,,,,AMSA03.jpg,AMSA02.jpg,AMNE13.jpg,AMNE04.jpg,AMNE04.jpg,MN,1,num_4,16,num_4,0.883439813275,,,2018_Feb_06_1847,60.0034448806,MAFE4ImagesEEG,001,202608,
AFNE01.JPG,AFNE01.JPG,AFNE01.JPG,AFNE01.JPG,AFNE01.JPG,AFNE01.JPG,,,,,,,,,,,,,,,,,0,2,2,9,,,,,,,AMSA16.jpg,AMNE01.jpg,AMNE09.jpg,AMSA11.jpg,AMNE09.jpg,MN,1,num_2,16,num_2,1.83344329335,,,2018_Feb_06_1847,60.0034448806,MAFE4ImagesEEG,001,202608,
AFNE01.JPG,AFNE01.JPG,AFNE01.JPG,AFNE01.JPG,AFNE01.JPG,AFNE01.JPG,,,,,,,,,,,,,,,,,0,3,3,1,,,,,,,AMSA06.jpg,AMNE03.jpg,AMSA19.jpg,AMNE02.jpg,AMSA19.jpg,MS,2,num_2,16,num_2,0.950130492682,,,2018_Feb_06_1847,60.0034448806,MAFE4ImagesEEG,001,202608,
AFNE01.JPG,AFNE01.JPG,AFNE01.JPG,AFNE01.JPG,AFNE01.JPG,AFNE01.JPG,,,,,,,,,,,,,,,,,0,4,4,0,,,,,,,AMSA10.jpg,AMNE19.jpg,AMSA01.jpg,AMNE13.jpg,AMNE13.jpg,MN,1,num_4,16,num_4,4.91622065194,,,2018_Feb_06_1847,60.0034448806,MAFE4ImagesEEG,001,202608,
AFNE01.JPG,AFNE01.JPG,AFNE01.JPG,AFNE01.JPG,AFNE01.JPG,AFNE01.JPG,,,,,,,,,,,,,,,,,0,5,5,6,,,,,,,AMSA19.jpg,AMNE13.jpg,AMNE02.jpg,AMSA08.jpg,AMSA19.jpg,MS,2,num_8,16,num_8,0.916794133838,,,2018_Feb_06_1847,60.0034448806,MAFE4ImagesEEG,001,202608,
AFNE01.JPG,AFNE01.JPG,AFNE01.JPG,AFNE01.JPG,AFNE01.JPG,AFNE01.JPG,,,,,,,,,,,,,,,,,0,6,6,3,,,,,,,AMNE09.jpg,AMSA15.jpg,AMNE07.jpg,AMSA08.jpg,AMNE07.jpg,MN,1,num_2,16,num_2,1.11677989294,,,2018_Feb_06_1847,60.0034448806,MAFE4ImagesEEG,001,202608,
AFNE01.JPG,AFNE01.JPG,AFNE01.JPG,AFNE01.JPG,AFNE01.JPG,AFNE01.JPG,,,,,,,,,,,,,,,,,0,7,7,2,,,,,,,AMSA09.jpg,AMNE16.jpg,AMNE08.jpg,AMSA02.jpg,AMSA09.jpg,MS,2,num_8,16,num_8,0.36686641234,,,2018_Feb_06_1847,60.0034448806,MAFE4ImagesEEG,001,202608,
AFNE01.JPG,AFNE01.JPG,AFNE01.JPG,AFNE01.JPG,AFNE01.JPG,AFNE01.JPG,,,,,,,,,,,,,,,,,0,8,8,4,,,,,,,AMSA06.jpg,AMNE10.jpg,AMNE09.jpg,AMSA02.jpg,AMSA02.jpg,MS,2,num_4,16,num_4,1.80006844574,,,2018_Feb_06_1847,60.0034448806,MAFE4ImagesEEG,001,202608,
AFNE01.JPG,AFNE01.JPG,AFNE01.JPG,AFNE01.JPG,AFNE01.JPG,AFNE01.JPG,,,,,,,,,,,,,,,,,0,9,9,8,,,,,,,AMSA17.jpg,AMNE09.jpg,AMNE08.jpg,AMSA04.jpg,AMNE08.jpg,MN,1,num_2,32,num_8,1.05015368224,,,2018_Feb_06_1847,60.0034448806,MAFE4ImagesEEG,001,202608,
AFNE01.JPG,AFNE01.JPG,AFNE01.JPG,AFNE01.JPG,AFNE01.JPG,AFNE01.JPG,,,,,,,,,,,,,,,,,1,0,10,9,,,,,,,AMNE06.jpg,AMSA04.jpg,AMSA20.jpg,AMNE17.jpg,AMNE06.jpg,MN,1,num_8,16,num_8,4.49988661869,,,2018_Feb_06_1847,60.0034448806,MAFE4ImagesEEG,001,202608,
AFNE01.JPG,AFNE01.JPG,AFNE01.JPG,AFNE01.JPG,AFNE01.JPG,AFNE01.JPG,,,,,,,,,,,,,,,,,1,1,11,6,,,,,,,AMNE01.jpg,AMNE05.jpg,AMSA09.jpg,AMSA04.jpg,AMSA09.jpg,MS,2,num_2,32,num_6,0.933479954023,,,2018_Feb_06_1847,60.0034448806,MAFE4ImagesEEG,001,202608,
AFNE01.JPG,AFNE01.JPG,AFNE01.JPG,AFNE01.JPG,AFNE01.JPG,AFNE01.JPG,,,,,,,,,,,,,,,,,1,2,12,5,,,,,,,AMSA03.jpg,AMSA11.jpg,AMNE02.jpg,AMNE14.jpg,AMNE02.jpg,MN,1,num_2,32,num_8,0.733543588547,,,2018_Feb_06_1847,60.0034448806,MAFE4ImagesEEG,001,202608,
AFNE01.JPG,AFNE01.JPG,AFNE01.JPG,AFNE01.JPG,AFNE01.JPG,AFNE01.JPG,,,,,,,,,,,,,,,,,1,3,13,4,,,,,,,AMSA12.jpg,AMNE15.jpg,AMSA19.jpg,AMNE03.jpg,AMNE15.jpg,MN,1,num_6,32,num_8,2.05005329102,,,2018_Feb_06_1847,60.0034448806,MAFE4ImagesEEG,001,202608,
AFNE01.JPG,AFNE01.JPG,AFNE01.JPG,AFNE01.JPG,AFNE01.JPG,AFNE01.JPG,,,,,,,,,,,,,,,,,1,4,14,1,,,,,,,AMSA16.jpg,AMNE18.jpg,AMSA07.jpg,AMNE01.jpg,AMSA16.jpg,MS,2,num_8,32,num_6,0.699828115758,,,2018_Feb_06_1847,60.0034448806,MAFE4ImagesEEG,001,202608,
AFNE01.JPG,AFNE01.JPG,AFNE01.JPG,AFNE01.JPG,AFNE01.JPG,AFNE01.JPG,,,,,,,,,,,,,,,,,1,5,15,3,,,,,,,AMNE01.jpg,AMNE13.jpg,AMSA20.jpg,AMSA06.jpg,AMNE13.jpg,MN,1,num_6,32,num_2,0.700135704828,,,2018_Feb_06_1847,60.0034448806,MAFE4ImagesEEG,001,202608,
AFNE01.JPG,AFNE01.JPG,AFNE01.JPG,AFNE01.JPG,AFNE01.JPG,AFNE01.JPG,,,,,,,,,,,,,,,,,1,6,16,8,,,,,,,AMSA17.jpg,AMSA20.jpg,AMNE02.jpg,AMNE19.jpg,AMSA17.jpg,MS,2,num_8,16,num_8,1.13343556365,,,2018_Feb_06_1847,60.0034448806,MAFE4ImagesEEG,001,202608,
AFNE01.JPG,AFNE01.JPG,AFNE01.JPG,AFNE01.JPG,AFNE01.JPG,AFNE01.JPG,,,,,,,,,,,,,,,,,1,7,17,0,,,,,,,AMSA20.jpg,AMNE06.jpg,AMNE07.jpg,AMSA17.jpg,AMNE07.jpg,MN,1,num_2,32,num_4,0.38351149857,,,2018_Feb_06_1847,60.0034448806,MAFE4ImagesEEG,001,202608,
AFNE01.JPG,AFNE01.JPG,AFNE01.JPG,AFNE01.JPG,AFNE01.JPG,AFNE01.JPG,,,,,,,,,,,,,,,,,1,8,18,7,,,,,,,AMNE10.jpg,AMSA01.jpg,AMNE07.jpg,AMSA16.jpg,AMNE07.jpg,MN,1,num_2,32,num_8,0.800135159632,,,2018_Feb_06_1847,60.0034448806,MAFE4ImagesEEG,001,202608,
AFNE01.JPG,AFNE01.JPG,AFNE01.JPG,AFNE01.JPG,AFNE01.JPG,AFNE01.JPG,,,,,,,,,,,,,,,,,1,9,19,2,,,,,,,AMNE16.jpg,AMNE08.jpg,AMSA20.jpg,AMSA10.jpg,AMSA10.jpg,MS,2,num_4,32,num_6,1.0167846079,,,2018_Feb_06_1847,60.0034448806,MAFE4ImagesEEG,001,202608,
AFNE01.JPG,AFNE01.JPG,AFNE01.JPG,AFNE01.JPG,AFNE01.JPG,AFNE01.JPG,,,,,,,,,,,,,,,,,2,0,20,6,,,,,,,AMNE02.jpg,AMSA03.jpg,AMNE18.jpg,AMSA16.jpg,AMNE18.jpg,MN,1,num_2,32,num_8,1.51673890254,,,2018_Feb_06_1847,60.0034448806,MAFE4ImagesEEG,001,202608,
AFNE01.JPG,AFNE01.JPG,AFNE01.JPG,AFNE01.JPG,AFNE01.JPG,AFNE01.JPG,,,,,,,,,,,,,,,,,2,1,21,2,,,,,,,AMNE15.jpg,AMNE09.jpg,AMSA05.jpg,AMSA06.jpg,AMSA06.jpg,MS,2,num_4,16,num_4,0.983443437843,,,2018_Feb_06_1847,60.0034448806,MAFE4ImagesEEG,001,202608,
AFNE01.JPG,AFNE01.JPG,AFNE01.JPG,AFNE01.JPG,AFNE01.JPG,AFNE01.JPG,,,,,,,,,,,,,,,,,2,2,22,7,,,,,,,AMSA05.jpg,AMSA08.jpg,AMNE08.jpg,AMNE14.jpg,AMNE08.jpg,MN,1,num_2,48,None,,,,2018_Feb_06_1847,60.0034448806,MAFE4ImagesEEG,001,202608,
AFNE01.JPG,AFNE01.JPG,AFNE01.JPG,AFNE01.JPG,AFNE01.JPG,AFNE01.JPG,,,,,,,,,,,,,,,,,2,3,23,4,,,,,,,AMSA05.jpg,AMNE02.jpg,AMNE09.jpg,AMSA19.jpg,AMNE09.jpg,MN,1,num_2,32,num_6,0.899973603198,,,2018_Feb_06_1847,60.0034448806,MAFE4ImagesEEG,001,202608,
AFNE01.JPG,AFNE01.JPG,AFNE01.JPG,AFNE01.JPG,AFNE01.JPG,AFNE01.JPG,,,,,,,,,,,,,,,,,2,4,24,0,,,,,,,AMNE06.jpg,AMNE05.jpg,AMSA11.jpg,AMSA16.jpg,AMNE06.jpg,MN,1,num_8,32,num_6,0.683479392668,,,2018_Feb_06_1847,60.0034448806,MAFE4ImagesEEG,001,202608,
AFNE01.JPG,AFNE01.JPG,AFNE01.JPG,AFNE01.JPG,AFNE01.JPG,AFNE01.JPG,,,,,,,,,,,,,,,,,2,5,25,1,,,,,,,AMSA20.jpg,AMNE04.jpg,AMSA03.jpg,AMNE03.jpg,AMSA20.jpg,MS,2,num_8,16,num_8,0.683456940809,,,2018_Feb_06_1847,60.0034448806,MAFE4ImagesEEG,001,202608,
AFNE01.JPG,AFNE01.JPG,AFNE01.JPG,AFNE01.JPG,AFNE01.JPG,AFNE01.JPG,,,,,,,,,,,,,,,,,2,6,26,9,,,,,,,AMNE05.jpg,AMSA18.jpg,AMNE18.jpg,AMSA03.jpg,AMNE18.jpg,MN,1,num_2,32,num_8,3.91651573195,,,2018_Feb_06_1847,60.0034448806,MAFE4ImagesEEG,001,202608,
AFNE01.JPG,AFNE01.JPG,AFNE01.JPG,AFNE01.JPG,AFNE01.JPG,AFNE01.JPG,,,,,,,,,,,,,,,,,2,7,27,5,,,,,,,AMNE20.jpg,AMSA07.jpg,AMSA05.jpg,AMNE01.jpg,AMNE01.jpg,MN,1,num_4,32,num_8,0.683447960299,,,2018_Feb_06_1847,60.0034448806,MAFE4ImagesEEG,001,202608,
AFNE01.JPG,AFNE01.JPG,AFNE01.JPG,AFNE01.JPG,AFNE01.JPG,AFNE01.JPG,,,,,,,,,,,,,,,,,2,8,28,3,,,,,,,AMSA14.jpg,AMSA18.jpg,AMNE16.jpg,AMNE13.jpg,AMSA14.jpg,MS,2,num_8,32,num_2,0.933476425707,,,2018_Feb_06_1847,60.0034448806,MAFE4ImagesEEG,001,202608,
AFNE01.JPG,AFNE01.JPG,AFNE01.JPG,AFNE01.JPG,AFNE01.JPG,AFNE01.JPG,,,,,,,,,,,,,,,,,2,9,29,8,,,,,,,AMSA19.jpg,AMNE16.jpg,AMSA17.jpg,AMNE04.jpg,AMNE16.jpg,MN,1,num_6,32,num_8,0.816838941071,,,2018_Feb_06_1847,60.0034448806,MAFE4ImagesEEG,001,202608,
AFNE01.JPG,AFNE01.JPG,AFNE01.JPG,AFNE01.JPG,AFNE01.JPG,AFNE01.JPG,,,,,,,,,,,,,,,,,3,0,30,6,,,,,,,AMSA12.jpg,AMSA01.jpg,AMNE01.jpg,AMNE14.jpg,AMNE14.jpg,MN,1,num_4,32,num_8,0.950144605478,,,2018_Feb_06_1847,60.0034448806,MAFE4ImagesEEG,001,202608,
AFNE01.JPG,AFNE01.JPG,AFNE01.JPG,AFNE01.JPG,AFNE01.JPG,AFNE01.JPG,,,,,,,,,,,,,,,,,3,1,31,0,,,,,,,AMNE18.jpg,AMNE03.jpg,AMSA15.jpg,AMSA07.jpg,AMNE03.jpg,MN,1,num_6,16,num_6,0.866776444949,,,2018_Feb_06_1847,60.0034448806,MAFE4ImagesEEG,001,202608,
AFNE01.JPG,AFNE01.JPG,AFNE01.JPG,AFNE01.JPG,AFNE01.JPG,AFNE01.JPG,,,,,,,,,,,,,,,,,3,2,32,5,,,,,,,AMSA03.jpg,AMNE05.jpg,AMSA10.jpg,AMNE11.jpg,AMSA03.jpg,MS,2,num_8,32,num_2,0.816831884906,,,2018_Feb_06_1847,60.0034448806,MAFE4ImagesEEG,001,202608,
AFNE01.JPG,AFNE01.JPG,AFNE01.JPG,AFNE01.JPG,AFNE01.JPG,AFNE01.JPG,,,,,,,,,,,,,,,,,3,3,33,9,,,,,,,AMNE18.jpg,AMNE20.jpg,AMSA03.jpg,AMSA20.jpg,AMNE18.jpg,MN,1,num_8,32,num_4,0.933633267414,,,2018_Feb_06_1847,60.0034448806,MAFE4ImagesEEG,001,202608,
AFNE01.JPG,AFNE01.JPG,AFNE01.JPG,AFNE01.JPG,AFNE01.JPG,AFNE01.JPG,,,,,,,,,,,,,,,,,3,4,34,1,,,,,,,AMSA09.jpg,AMNE19.jpg,AMSA18.jpg,AMNE11.jpg,AMSA18.jpg,MS,2,num_2,32,num_8,4.76646940131,,,2018_Feb_06_1847,60.0034448806,MAFE4ImagesEEG,001,202608,
AFNE01.JPG,AFNE01.JPG,AFNE01.JPG,AFNE01.JPG,AFNE01.JPG,AFNE01.JPG,,,,,,,,,,,,,,,,,3,5,35,8,,,,,,,AMSA13.jpg,AMSA19.jpg,AMNE17.jpg,AMNE04.jpg,AMSA13.jpg,MS,2,num_8,32,num_2,0.86661126418,,,2018_Feb_06_1847,60.0034448806,MAFE4ImagesEEG,001,202608,
AFNE01.JPG,AFNE01.JPG,AFNE01.JPG,AFNE01.JPG,AFNE01.JPG,AFNE01.JPG,,,,,,,,,,,,,,,,,3,6,36,2,,,,,,,AMNE14.jpg,AMSA01.jpg,AMNE11.jpg,AMSA10.jpg,AMNE11.jpg,MN,1,num_2,32,num_8,0.750143129844,,,2018_Feb_06_1847,60.0034448806,MAFE4ImagesEEG,001,202608,
AFNE01.JPG,AFNE01.JPG,AFNE01.JPG,AFNE01.JPG,AFNE01.JPG,AFNE01.JPG,,,,,,,,,,,,,,,,,3,7,37,3,,,,,,,AMNE04.jpg,AMSA18.jpg,AMNE14.jpg,AMSA13.jpg,AMSA18.jpg,MS,2,num_6,32,num_4,1.48341505229,,,2018_Feb_06_1847,60.0034448806,MAFE4ImagesEEG,001,202608,
AFNE01.JPG,AFNE01.JPG,AFNE01.JPG,AFNE01.JPG,AFNE01.JPG,AFNE01.JPG,,,,,,,,,,,,,,,,,3,8,38,4,,,,,,,AMNE16.jpg,AMSA02.jpg,AMSA04.jpg,AMNE03.jpg,AMNE16.jpg,MN,1,num_8,48,None,,,,2018_Feb_06_1847,60.0034448806,MAFE4ImagesEEG,001,202608,
AFNE01.JPG,AFNE01.JPG,AFNE01.JPG,AFNE01.JPG,AFNE01.JPG,AFNE01.JPG,,,,,,,,,,,,,,,,,3,9,39,7,,,,,,,AMNE01.jpg,AMSA18.jpg,AMNE11.jpg,AMSA07.jpg,AMNE11.jpg,MN,1,num_2,32,num_8,1.11672183918,,,2018_Feb_06_1847,60.0034448806,MAFE4ImagesEEG,001,202608,
AFNE01.JPG,AFNE01.JPG,AFNE01.JPG,AFNE01.JPG,AFNE01.JPG,AFNE01.JPG,,,,,,,,,,,,,,,,,4,0,40,5,,,,,,,AMSA03.jpg,AMNE07.jpg,AMNE15.jpg,AMSA07.jpg,AMNE07.jpg,MN,1,num_6,32,num_4,1.2167193694,,,2018_Feb_06_1847,60.0034448806,MAFE4ImagesEEG,001,202608,
AFNE01.JPG,AFNE01.JPG,AFNE01.JPG,AFNE01.JPG,AFNE01.JPG,AFNE01.JPG,,,,,,,,,,,,,,,,,4,1,41,1,,,,,,,AMSA19.jpg,AMSA20.jpg,AMNE10.jpg,AMNE03.jpg,AMSA19.jpg,MS,2,num_8,32,num_6,0.533508435823,,,2018_Feb_06_1847,60.0034448806,MAFE4ImagesEEG,001,202608,
AFNE01.JPG,AFNE01.JPG,AFNE01.JPG,AFNE01.JPG,AFNE01.JPG,AFNE01.JPG,,,,,,,,,,,,,,,,,4,2,42,0,,,,,,,AMNE12.jpg,AMSA01.jpg,AMNE19.jpg,AMSA02.jpg,AMSA02.jpg,MS,2,num_4,32,num_6,1.1001187698,,,2018_Feb_06_1847,60.0034448806,MAFE4ImagesEEG,001,202608,
AFNE01.JPG,AFNE01.JPG,AFNE01.JPG,AFNE01.JPG,AFNE01.JPG,AFNE01.JPG,,,,,,,,,,,,,,,,,4,3,43,3,,,,,,,AMSA01.jpg,AMNE17.jpg,AMNE06.jpg,AMSA04.jpg,AMSA01.jpg,MS,2,num_8,32,num_4,1.60006729118,,,2018_Feb_06_1847,60.0034448806,MAFE4ImagesEEG,001,202608,
AFNE01.JPG,AFNE01.JPG,AFNE01.JPG,AFNE01.JPG,AFNE01.JPG,AFNE01.JPG,,,,,,,,,,,,,,,,,4,4,44,6,,,,,,,AMSA09.jpg,AMNE18.jpg,AMSA12.jpg,AMNE04.jpg,AMNE18.jpg,MN,1,num_6,32,num_8,0.516823898302,,,2018_Feb_06_1847,60.0034448806,MAFE4ImagesEEG,001,202608,
AFNE01.JPG,AFNE01.JPG,AFNE01.JPG,AFNE01.JPG,AFNE01.JPG,AFNE01.JPG,,,,,,,,,,,,,,,,,4,5,45,2,,,,,,,AMNE19.jpg,AMNE01.jpg,AMSA03.jpg,AMSA09.jpg,AMSA09.jpg,MS,2,num_4,32,num_8,3.13332041819,,,2018_Feb_06_1847,60.0034448806,MAFE4ImagesEEG,001,202608,
AFNE01.JPG,AFNE01.JPG,AFNE01.JPG,AFNE01.JPG,AFNE01.JPG,AFNE01.JPG,,,,,,,,,,,,,,,,,4,6,46,7,,,,,,,AMSA14.jpg,AMNE06.jpg,AMNE17.jpg,AMSA07.jpg,AMNE17.jpg,MN,1,num_2,16,num_2,0.766798479715,,,2018_Feb_06_1847,60.0034448806,MAFE4ImagesEEG,001,202608,
AFNE01.JPG,AFNE01.JPG,AFNE01.JPG,AFNE01.JPG,AFNE01.JPG,AFNE01.JPG,,,,,,,,,,,,,,,,,4,7,47,4,,,,,,,AMNE14.jpg,AMSA15.jpg,AMSA08.jpg,AMNE19.jpg,AMSA08.jpg,MS,2,num_2,16,num_2,0.550372586818,,,2018_Feb_06_1847,60.0034448806,MAFE4ImagesEEG,001,202608,
AFNE01.JPG,AFNE01.JPG,AFNE01.JPG,AFNE01.JPG,AFNE01.JPG,AFNE01.JPG,,,,,,,,,,,,,,,,,4,8,48,9,,,,,,,AMSA18.jpg,AMSA10.jpg,AMNE18.jpg,AMNE01.jpg,AMSA10.jpg,MS,2,num_6,16,num_6,0.550241404446,,,2018_Feb_06_1847,60.0034448806,MAFE4ImagesEEG,001,202608,
AFNE01.JPG,AFNE01.JPG,AFNE01.JPG,AFNE01.JPG,AFNE01.JPG,AFNE01.JPG,,,,,,,,,,,,,,,,,4,9,49,8,,,,,,,AMNE05.jpg,AMNE10.jpg,AMSA03.jpg,AMSA04.jpg,AMSA03.jpg,MS,2,num_2,32,num_8,0.700159439351,,,2018_Feb_06_1847,60.0034448806,MAFE4ImagesEEG,001,202608,
AFNE01.JPG,AFNE01.JPG,AFNE01.JPG,AFNE01.JPG,AFNE01.JPG,AFNE01.JPG,,,,,,,,,,,,,,,,,5,0,50,2,,,,,,,AMSA06.jpg,AMNE05.jpg,AMSA12.jpg,AMNE10.jpg,AMNE10.jpg,MN,1,num_4,32,num_8,2.45000492316,,,2018_Feb_06_1847,60.0034448806,MAFE4ImagesEEG,001,202608,
AFNE01.JPG,AFNE01.JPG,AFNE01.JPG,AFNE01.JPG,AFNE01.JPG,AFNE01.JPG,,,,,,,,,,,,,,,,,5,1,51,1,,,,,,,AMNE02.jpg,AMSA03.jpg,AMNE10.jpg,AMSA12.jpg,AMNE10.jpg,MN,1,num_2,32,num_4,0.666784591973,,,2018_Feb_06_1847,60.0034448806,MAFE4ImagesEEG,001,202608,
AFNE01.JPG,AFNE01.JPG,AFNE01.JPG,AFNE01.JPG,AFNE01.JPG,AFNE01.JPG,,,,,,,,,,,,,,,,,5,2,52,4,,,,,,,AMSA16.jpg,AMNE05.jpg,AMNE06.jpg,AMSA15.jpg,AMSA16.jpg,MS,2,num_8,32,num_2,1.60001982166,,,2018_Feb_06_1847,60.0034448806,MAFE4ImagesEEG,001,202608,
AFNE01.JPG,AFNE01.JPG,AFNE01.JPG,AFNE01.JPG,AFNE01.JPG,AFNE01.JPG,,,,,,,,,,,,,,,,,5,3,53,0,,,,,,,AMSA09.jpg,AMNE11.jpg,AMSA06.jpg,AMNE07.jpg,AMSA06.jpg,MS,2,num_2,32,num_6,0.933472256176,,,2018_Feb_06_1847,60.0034448806,MAFE4ImagesEEG,001,202608,
AFNE01.JPG,AFNE01.JPG,AFNE01.JPG,AFNE01.JPG,AFNE01.JPG,AFNE01.JPG,,,,,,,,,,,,,,,,,5,4,54,8,,,,,,,AMSA07.jpg,AMSA15.jpg,AMNE15.jpg,AMNE20.jpg,AMNE15.jpg,MN,1,num_2,32,num_8,0.566808550851,,,2018_Feb_06_1847,60.0034448806,MAFE4ImagesEEG,001,202608,
AFNE01.JPG,AFNE01.JPG,AFNE01.JPG,AFNE01.JPG,AFNE01.JPG,AFNE01.JPG,,,,,,,,,,,,,,,,,5,5,55,9,,,,,,,AMNE07.jpg,AMSA07.jpg,AMNE15.jpg,AMSA03.jpg,AMNE07.jpg,MN,1,num_8,32,num_2,0.816488693701,,,2018_Feb_06_1847,60.0034448806,MAFE4ImagesEEG,001,202608,
AFNE01.JPG,AFNE01.JPG,AFNE01.JPG,AFNE01.JPG,AFNE01.JPG,AFNE01.JPG,,,,,,,,,,,,,,,,,5,6,56,5,,,,,,,AMNE05.jpg,AMNE15.jpg,AMSA02.jpg,AMSA15.jpg,AMSA02.jpg,MS,2,num_2,32,num_8,0.783508355264,,,2018_Feb_06_1847,60.0034448806,MAFE4ImagesEEG,001,202608,
AFNE01.JPG,AFNE01.JPG,AFNE01.JPG,AFNE01.JPG,AFNE01.JPG,AFNE01.JPG,,,,,,,,,,,,,,,,,5,7,57,6,,,,,,,AMNE01.jpg,AMSA03.jpg,AMNE13.jpg,AMSA14.jpg,AMSA14.jpg,MS,2,num_4,16,num_4,1.41674457956,,,2018_Feb_06_1847,60.0034448806,MAFE4ImagesEEG,001,202608,
AFNE01.JPG,AFNE01.JPG,AFNE01.JPG,AFNE01.JPG,AFNE01.JPG,AFNE01.JPG,,,,,,,,,,,,,,,,,5,8,58,3,,,,,,,AMNE15.jpg,AMNE03.jpg,AMSA16.jpg,AMSA07.jpg,AMNE15.jpg,MN,1,num_8,16,num_8,0.766741708852,,,2018_Feb_06_1847,60.0034448806,MAFE4ImagesEEG,001,202608,
AFNE01.JPG,AFNE01.JPG,AFNE01.JPG,AFNE01.JPG,AFNE01.JPG,AFNE01.JPG,,,,,,,,,,,,,,,,,5,9,59,7,,,,,,,AMSA20.jpg,AMSA01.jpg,AMNE07.jpg,AMNE11.jpg,AMSA01.jpg,MS,2,num_6,16,num_6,2.78333900496,,,2018_Feb_06_1847,60.0034448806,MAFE4ImagesEEG,001,202608,
,,,,,,,,,,,,,,,,,,,,,,,,,,,,,,,,,,,,,,,,,,,space,3.78322674613,2018_Feb_06_1847,60.0034448806,MAFE4ImagesEEG,001,202608,
AFNE01.JPG,AFNE01.JPG,AFNE01.JPG,AFNE01.JPG,AFNE01.JPG,AFNE01.JPG,,,,,,,,,,,,,,,,,,,,,0,0,0,4,,,AFNE11.jpg,AFNE06.jpg,AFSA18.jpg,AFSA04.jpg,AFSA04.jpg,FS,4,num_4,32,num_6,0.700158156455,,,2018_Feb_06_1847,60.0034448806,MAFE4ImagesEEG,001,202608,
AFNE01.JPG,AFNE01.JPG,AFNE01.JPG,AFNE01.JPG,AFNE01.JPG,AFNE01.JPG,,,,,,,,,,,,,,,,,,,,,0,1,1,6,,,AFNE13.jpg,AFSA13.jpg,AFSA12.jpg,AFNE17.jpg,AFNE17.jpg,FN,3,num_4,16,num_4,0.733521136921,,,2018_Feb_06_1847,60.0034448806,MAFE4ImagesEEG,001,202608,
AFNE01.JPG,AFNE01.JPG,AFNE01.JPG,AFNE01.JPG,AFNE01.JPG,AFNE01.JPG,,,,,,,,,,,,,,,,,,,,,0,2,2,2,,,AFNE17.jpg,AFNE01.jpg,AFSA09.jpg,AFSA18.jpg,AFSA09.jpg,FS,4,num_2,16,num_2,1.78344420763,,,2018_Feb_06_1847,60.0034448806,MAFE4ImagesEEG,001,202608,
AFNE01.JPG,AFNE01.JPG,AFNE01.JPG,AFNE01.JPG,AFNE01.JPG,AFNE01.JPG,,,,,,,,,,,,,,,,,,,,,0,3,3,3,,,AFNE02.jpg,AFSA16.jpg,AFNE13.jpg,AFSA20.jpg,AFNE13.jpg,FN,3,num_2,32,num_6,0.550167313544,,,2018_Feb_06_1847,60.0034448806,MAFE4ImagesEEG,001,202608,
AFNE01.JPG,AFNE01.JPG,AFNE01.JPG,AFNE01.JPG,AFNE01.JPG,AFNE01.JPG,,,,,,,,,,,,,,,,,,,,,0,4,4,5,,,AFSA16.jpg,AFNE13.jpg,AFNE20.jpg,AFSA19.jpg,AFNE13.jpg,FN,3,num_6,32,num_4,0.450049826875,,,2018_Feb_06_1847,60.0034448806,MAFE4ImagesEEG,001,202608,
AFNE01.JPG,AFNE01.JPG,AFNE01.JPG,AFNE01.JPG,AFNE01.JPG,AFNE01.JPG,,,,,,,,,,,,,,,,,,,,,0,5,5,0,,,AFNE19.jpg,AFSA19.jpg,AFSA18.jpg,AFNE15.jpg,AFNE15.jpg,FN,3,num_4,32,num_8,0.766454005847,,,2018_Feb_06_1847,60.0034448806,MAFE4ImagesEEG,001,202608,
AFNE01.JPG,AFNE01.JPG,AFNE01.JPG,AFNE01.JPG,AFNE01.JPG,AFNE01.JPG,,,,,,,,,,,,,,,,,,,,,0,6,6,8,,,AFNE09.jpg,AFNE10.jpg,AFSA04.jpg,AFSA14.jpg,AFNE09.jpg,FN,3,num_8,32,num_4,1.16674562218,,,2018_Feb_06_1847,60.0034448806,MAFE4ImagesEEG,001,202608,
AFNE01.JPG,AFNE01.JPG,AFNE01.JPG,AFNE01.JPG,AFNE01.JPG,AFNE01.JPG,,,,,,,,,,,,,,,,,,,,,0,7,7,7,,,AFSA02.jpg,AFNE09.jpg,AFSA15.jpg,AFNE11.jpg,AFNE09.jpg,FN,3,num_6,16,num_6,1.20011052676,,,2018_Feb_06_1847,60.0034448806,MAFE4ImagesEEG,001,202608,
AFNE01.JPG,AFNE01.JPG,AFNE01.JPG,AFNE01.JPG,AFNE01.JPG,AFNE01.JPG,,,,,,,,,,,,,,,,,,,,,0,8,8,1,,,AFSA18.jpg,AFNE05.jpg,AFSA02.jpg,AFNE19.jpg,AFNE19.jpg,FN,3,num_4,32,num_8,0.983807156095,,,2018_Feb_06_1847,60.0034448806,MAFE4ImagesEEG,001,202608,
AFNE01.JPG,AFNE01.JPG,AFNE01.JPG,AFNE01.JPG,AFNE01.JPG,AFNE01.JPG,,,,,,,,,,,,,,,,,,,,,0,9,9,9,,,AFNE08.jpg,AFSA10.jpg,AFNE01.jpg,AFSA04.jpg,AFNE08.jpg,FN,3,num_8,16,num_8,2.28331927978,,,2018_Feb_06_1847,60.0034448806,MAFE4ImagesEEG,001,202608,
AFNE01.JPG,AFNE01.JPG,AFNE01.JPG,AFNE01.JPG,AFNE01.JPG,AFNE01.JPG,,,,,,,,,,,,,,,,,,,,,1,0,10,1,,,AFSA13.jpg,AFNE04.jpg,AFNE03.jpg,AFSA19.jpg,AFNE03.jpg,FN,3,num_2,32,num_6,0.84999921429,,,2018_Feb_06_1847,60.0034448806,MAFE4ImagesEEG,001,202608,
AFNE01.JPG,AFNE01.JPG,AFNE01.JPG,AFNE01.JPG,AFNE01.JPG,AFNE01.JPG,,,,,,,,,,,,,,,,,,,,,1,1,11,0,,,AFNE06.jpg,AFSA05.jpg,AFNE19.jpg,AFSA15.jpg,AFSA05.jpg,FS,4,num_6,16,num_6,0.683525258442,,,2018_Feb_06_1847,60.0034448806,MAFE4ImagesEEG,001,202608,
AFNE01.JPG,AFNE01.JPG,AFNE01.JPG,AFNE01.JPG,AFNE01.JPG,AFNE01.JPG,,,,,,,,,,,,,,,,,,,,,1,2,12,9,,,AFNE08.jpg,AFNE05.jpg,AFSA04.jpg,AFSA03.jpg,AFNE08.jpg,FN,3,num_8,32,num_6,1.40006870241,,,2018_Feb_06_1847,60.0034448806,MAFE4ImagesEEG,001,202608,
AFNE01.JPG,AFNE01.JPG,AFNE01.JPG,AFNE01.JPG,AFNE01.JPG,AFNE01.JPG,,,,,,,,,,,,,,,,,,,,,1,3,13,5,,,AFSA14.jpg,AFNE20.jpg,AFNE02.jpg,AFSA17.jpg,AFNE02.jpg,FN,3,num_2,16,num_2,0.63349858881,,,2018_Feb_06_1847,60.0034448806,MAFE4ImagesEEG,001,202608,
AFNE01.JPG,AFNE01.JPG,AFNE01.JPG,AFNE01.JPG,AFNE01.JPG,AFNE01.JPG,,,,,,,,,,,,,,,,,,,,,1,4,14,6,,,AFSA04.jpg,AFNE11.jpg,AFNE08.jpg,AFSA11.jpg,AFSA04.jpg,FS,4,num_8,32,num_2,1.10008797864,,,2018_Feb_06_1847,60.0034448806,MAFE4ImagesEEG,001,202608,
AFNE01.JPG,AFNE01.JPG,AFNE01.JPG,AFNE01.JPG,AFNE01.JPG,AFNE01.JPG,,,,,,,,,,,,,,,,,,,,,1,5,15,8,,,AFSA01.jpg,AFSA02.jpg,AFNE09.jpg,AFNE04.jpg,AFSA02.jpg,FS,4,num_6,32,num_2,1.54992162739,,,2018_Feb_06_1847,60.0034448806,MAFE4ImagesEEG,001,202608,
AFNE01.JPG,AFNE01.JPG,AFNE01.JPG,AFNE01.JPG,AFNE01.JPG,AFNE01.JPG,,,,,,,,,,,,,,,,,,,,,1,6,16,3,,,AFSA20.jpg,AFNE09.jpg,AFSA13.jpg,AFNE19.jpg,AFNE09.jpg,FN,3,num_6,32,num_4,4.01656586351,,,2018_Feb_06_1847,60.0034448806,MAFE4ImagesEEG,001,202608,
AFNE01.JPG,AFNE01.JPG,AFNE01.JPG,AFNE01.JPG,AFNE01.JPG,AFNE01.JPG,,,,,,,,,,,,,,,,,,,,,1,7,17,2,,,AFNE12.jpg,AFSA04.jpg,AFSA16.jpg,AFNE19.jpg,AFNE19.jpg,FN,3,num_4,32,num_6,1.08343776083,,,2018_Feb_06_1847,60.0034448806,MAFE4ImagesEEG,001,202608,
AFNE01.JPG,AFNE01.JPG,AFNE01.JPG,AFNE01.JPG,AFNE01.JPG,AFNE01.JPG,,,,,,,,,,,,,,,,,,,,,1,8,18,7,,,AFSA01.jpg,AFNE08.jpg,AFSA08.jpg,AFNE12.jpg,AFSA01.jpg,FS,4,num_8,32,num_2,0.450202819426,,,2018_Feb_06_1847,60.0034448806,MAFE4ImagesEEG,001,202608,
AFNE01.JPG,AFNE01.JPG,AFNE01.JPG,AFNE01.JPG,AFNE01.JPG,AFNE01.JPG,,,,,,,,,,,,,,,,,,,,,1,9,19,4,,,AFSA07.jpg,AFSA18.jpg,AFNE09.jpg,AFNE05.jpg,AFNE09.jpg,FN,3,num_2,32,num_8,1.06678080698,,,2018_Feb_06_1847,60.0034448806,MAFE4ImagesEEG,001,202608,
AFNE01.JPG,AFNE01.JPG,AFNE01.JPG,AFNE01.JPG,AFNE01.JPG,AFNE01.JPG,,,,,,,,,,,,,,,,,,,,,2,0,20,5,,,AFSA10.jpg,AFSA18.jpg,AFNE01.jpg,AFNE16.jpg,AFSA18.jpg,FS,4,num_6,32,num_2,0.833482744405,,,2018_Feb_06_1847,60.0034448806,MAFE4ImagesEEG,001,202608,
AFNE01.JPG,AFNE01.JPG,AFNE01.JPG,AFNE01.JPG,AFNE01.JPG,AFNE01.JPG,,,,,,,,,,,,,,,,,,,,,2,1,21,6,,,AFSA03.jpg,AFNE12.jpg,AFNE06.jpg,AFSA07.jpg,AFNE06.jpg,FN,3,num_2,32,num_8,1.05015304056,,,2018_Feb_06_1847,60.0034448806,MAFE4ImagesEEG,001,202608,
AFNE01.JPG,AFNE01.JPG,AFNE01.JPG,AFNE01.JPG,AFNE01.JPG,AFNE01.JPG,,,,,,,,,,,,,,,,,,,,,2,2,22,3,,,AFNE16.jpg,AFNE05.jpg,AFSA20.jpg,AFSA04.jpg,AFSA20.jpg,FS,4,num_2,32,num_4,0.433508981019,,,2018_Feb_06_1847,60.0034448806,MAFE4ImagesEEG,001,202608,
AFNE01.JPG,AFNE01.JPG,AFNE01.JPG,AFNE01.JPG,AFNE01.JPG,AFNE01.JPG,,,,,,,,,,,,,,,,,,,,,2,3,23,8,,,AFSA15.jpg,AFSA03.jpg,AFNE01.jpg,AFNE07.jpg,AFSA15.jpg,FS,4,num_8,32,num_2,1.16675748932,,,2018_Feb_06_1847,60.0034448806,MAFE4ImagesEEG,001,202608,
AFNE01.JPG,AFNE01.JPG,AFNE01.JPG,AFNE01.JPG,AFNE01.JPG,AFNE01.JPG,,,,,,,,,,,,,,,,,,,,,2,4,24,7,,,AFSA07.jpg,AFNE18.jpg,AFNE08.jpg,AFSA16.jpg,AFSA07.jpg,FS,4,num_8,32,num_6,0.650121544255,,,2018_Feb_06_1847,60.0034448806,MAFE4ImagesEEG,001,202608,
AFNE01.JPG,AFNE01.JPG,AFNE01.JPG,AFNE01.JPG,AFNE01.JPG,AFNE01.JPG,,,,,,,,,,,,,,,,,,,,,2,5,25,9,,,AFNE15.jpg,AFSA19.jpg,AFSA11.jpg,AFNE13.jpg,AFNE15.jpg,FN,3,num_8,32,num_6,0.916763663758,,,2018_Feb_06_1847,60.0034448806,MAFE4ImagesEEG,001,202608,
AFNE01.JPG,AFNE01.JPG,AFNE01.JPG,AFNE01.JPG,AFNE01.JPG,AFNE01.JPG,,,,,,,,,,,,,,,,,,,,,2,6,26,1,,,AFSA04.jpg,AFSA01.jpg,AFNE05.jpg,AFNE19.jpg,AFSA04.jpg,FS,4,num_8,32,num_4,1.36664895131,,,2018_Feb_06_1847,60.0034448806,MAFE4ImagesEEG,001,202608,
AFNE01.JPG,AFNE01.JPG,AFNE01.JPG,AFNE01.JPG,AFNE01.JPG,AFNE01.JPG,,,,,,,,,,,,,,,,,,,,,2,7,27,2,,,AFSA04.jpg,AFNE10.jpg,AFSA07.jpg,AFNE02.jpg,AFNE02.jpg,FN,3,num_4,32,num_6,0.733500288799,,,2018_Feb_06_1847,60.0034448806,MAFE4ImagesEEG,001,202608,
AFNE01.JPG,AFNE01.JPG,AFNE01.JPG,AFNE01.JPG,AFNE01.JPG,AFNE01.JPG,,,,,,,,,,,,,,,,,,,,,2,8,28,4,,,AFSA07.jpg,AFNE19.jpg,AFSA19.jpg,AFNE14.jpg,AFNE14.jpg,FN,3,num_4,32,num_8,0.766813875409,,,2018_Feb_06_1847,60.0034448806,MAFE4ImagesEEG,001,202608,
AFNE01.JPG,AFNE01.JPG,AFNE01.JPG,AFNE01.JPG,AFNE01.JPG,AFNE01.JPG,,,,,,,,,,,,,,,,,,,,,2,9,29,0,,,AFNE03.jpg,AFSA14.jpg,AFSA20.jpg,AFNE13.jpg,AFSA20.jpg,FS,4,num_2,16,num_2,0.533479248406,,,2018_Feb_06_1847,60.0034448806,MAFE4ImagesEEG,001,202608,
AFNE01.JPG,AFNE01.JPG,AFNE01.JPG,AFNE01.JPG,AFNE01.JPG,AFNE01.JPG,,,,,,,,,,,,,,,,,,,,,3,0,30,2,,,AFNE01.jpg,AFNE11.jpg,AFSA04.jpg,AFSA18.jpg,AFSA04.jpg,FS,4,num_2,32,num_6,4.28306300892,,,2018_Feb_06_1847,60.0034448806,MAFE4ImagesEEG,001,202608,
AFNE01.JPG,AFNE01.JPG,AFNE01.JPG,AFNE01.JPG,AFNE01.JPG,AFNE01.JPG,,,,,,,,,,,,,,,,,,,,,3,1,31,7,,,AFSA06.jpg,AFNE01.jpg,AFNE05.jpg,AFSA12.jpg,AFNE01.jpg,FN,3,num_6,32,num_8,1.18341348087,,,2018_Feb_06_1847,60.0034448806,MAFE4ImagesEEG,001,202608,
AFNE01.JPG,AFNE01.JPG,AFNE01.JPG,AFNE01.JPG,AFNE01.JPG,AFNE01.JPG,,,,,,,,,,,,,,,,,,,,,3,2,32,5,,,AFSA11.jpg,AFNE07.jpg,AFNE14.jpg,AFSA08.jpg,AFSA08.jpg,FS,4,num_4,32,num_2,1.11676898785,,,2018_Feb_06_1847,60.0034448806,MAFE4ImagesEEG,001,202608,
AFNE01.JPG,AFNE01.JPG,AFNE01.JPG,AFNE01.JPG,AFNE01.JPG,AFNE01.JPG,,,,,,,,,,,,,,,,,,,,,3,3,33,9,,,AFSA07.jpg,AFNE06.jpg,AFSA03.jpg,AFNE15.jpg,AFNE06.jpg,FN,3,num_6,32,num_4,2.15002901084,,,2018_Feb_06_1847,60.0034448806,MAFE4ImagesEEG,001,202608,
AFNE01.JPG,AFNE01.JPG,AFNE01.JPG,AFNE01.JPG,AFNE01.JPG,AFNE01.JPG,,,,,,,,,,,,,,,,,,,,,3,4,34,8,,,AFNE02.jpg,AFSA11.jpg,AFNE10.jpg,AFSA17.jpg,AFNE02.jpg,FN,3,num_8,32,num_2,1.05010460899,,,2018_Feb_06_1847,60.0034448806,MAFE4ImagesEEG,001,202608,
AFNE01.JPG,AFNE01.JPG,AFNE01.JPG,AFNE01.JPG,AFNE01.JPG,AFNE01.JPG,,,,,,,,,,,,,,,,,,,,,3,5,35,0,,,AFNE06.jpg,AFSA04.jpg,AFSA16.jpg,AFNE07.jpg,AFNE07.jpg,FN,3,num_4,32,num_8,0.600149400299,,,2018_Feb_06_1847,60.0034448806,MAFE4ImagesEEG,001,202608,
AFNE01.JPG,AFNE01.JPG,AFNE01.JPG,AFNE01.JPG,AFNE01.JPG,AFNE01.JPG,,,,,,,,,,,,,,,,,,,,,3,6,36,1,,,AFNE08.jpg,AFNE02.jpg,AFSA14.jpg,AFSA13.jpg,AFNE08.jpg,FN,3,num_8,16,num_8,1.55005954532,,,2018_Feb_06_1847,60.0034448806,MAFE4ImagesEEG,001,202608,
AFNE01.JPG,AFNE01.JPG,AFNE01.JPG,AFNE01.JPG,AFNE01.JPG,AFNE01.JPG,,,,,,,,,,,,,,,,,,,,,3,7,37,4,,,AFSA06.jpg,AFSA04.jpg,AFNE17.jpg,AFNE05.jpg,AFSA04.jpg,FS,4,num_6,32,num_8,0.683289835695,,,2018_Feb_06_1847,60.0034448806,MAFE4ImagesEEG,001,202608,
AFNE01.JPG,AFNE01.JPG,AFNE01.JPG,AFNE01.JPG,AFNE01.JPG,AFNE01.JPG,,,,,,,,,,,,,,,,,,,,,3,8,38,3,,,AFNE08.jpg,AFSA02.jpg,AFSA06.jpg,AFNE15.jpg,AFNE08.jpg,FN,3,num_8,16,num_8,1.51676039211,,,2018_Feb_06_1847,60.0034448806,MAFE4ImagesEEG,001,202608,
AFNE01.JPG,AFNE01.JPG,AFNE01.JPG,AFNE01.JPG,AFNE01.JPG,AFNE01.JPG,,,,,,,,,,,,,,,,,,,,,3,9,39,6,,,AFNE13.jpg,AFSA02.jpg,AFSA10.jpg,AFNE19.jpg,AFNE13.jpg,FN,3,num_8,32,num_4,4.48342274991,,,2018_Feb_06_1847,60.0034448806,MAFE4ImagesEEG,001,202608,
