IPosition2,IPosition3,IPosition1,IPosition6,IPosition4,IPosition5,TrialsF1.thisRepN,TrialsF1.thisTrialN,TrialsF1.thisN,TrialsF1.thisIndex,TrialsM1.thisRepN,TrialsM1.thisTrialN,TrialsM1.thisN,TrialsM1.thisIndex,TrialsF2.thisRepN,TrialsF2.thisTrialN,TrialsF2.thisN,TrialsF2.thisIndex,TrialsM2.thisRepN,TrialsM2.thisTrialN,TrialsM2.thisN,TrialsM2.thisIndex,TrialsF3.thisRepN,TrialsF3.thisTrialN,TrialsF3.thisN,TrialsF3.thisIndex,TrialsM3.thisRepN,TrialsM3.thisTrialN,TrialsM3.thisN,TrialsM3.thisIndex,InstrKey_resp.keys,InstrKey_resp.rt,Image0 _Position,Image1 _Position,Image2 _Position,Image3 _Position,Center_image,condition,code,correct_answer,accuracy,Key_Resp.keys,Key_Resp.rt,BreakKey_resp.keys,BreakKey_resp.rt,date,frameRate,expName,session,participant,
,,,,,,,,,,,,,,,,,,,,,,,,,,,,,,space,8.89955920796,,,,,,,,,,,,,,2018_Feb_02_1754,60.0037913883,FEMA4ImagesEEG,001,202689,
AMSA21.JPG,AMNE22.JPG,AMNE21.JPG,AMSA23.JPG,AMSA22.JPG,AMNE23.JPG,0,0,0,1,,,,,,,,,,,,,,,,,,,,,,,AFSA06.jpg,AFNE01.jpg,AFSA13.jpg,AFNE16.jpg,AFNE16.jpg,FN,3,num_4,32,num_8,1.25016221392,,,2018_Feb_02_1754,60.0037913883,FEMA4ImagesEEG,001,202689,
AFSA25.JPG,AFNE24.JPG,AFSA24.JPG,AFNE21.JPG,AFSA21.JPG,AFNE25.JPG,0,1,1,2,,,,,,,,,,,,,,,,,,,,,,,AFNE04.jpg,AFSA17.jpg,AFSA06.jpg,AFNE16.jpg,AFSA06.jpg,FS,4,num_2,32,num_4,1.38345633144,,,2018_Feb_02_1754,60.0037913883,FEMA4ImagesEEG,001,202689,
AFSA21.JPG,AFNE22.JPG,AFNE21.JPG,AFSA23.JPG,AFSA22.JPG,AFNE23.JPG,0,2,2,0,,,,,,,,,,,,,,,,,,,,,,,AFNE17.jpg,AFSA11.jpg,AFSA07.jpg,AFNE07.jpg,AFNE07.jpg,FN,3,num_4,16,num_4,1.14997224009,,,2018_Feb_02_1754,60.0037913883,FEMA4ImagesEEG,001,202689,
AMSA25.JPG,AMNE24.JPG,AMSA24.JPG,AMNE26.JPG,AMSA21.JPG,AMNE25.JPG,0,3,3,3,,,,,,,,,,,,,,,,,,,,,,,AFNE05.jpg,AFSA16.jpg,AFSA03.jpg,AFNE04.jpg,AFNE05.jpg,FN,3,num_8,16,num_8,0.650131166447,,,2018_Feb_02_1754,60.0037913883,FEMA4ImagesEEG,001,202689,
AFNE22.JPG,AFSA24.JPG,AFSA22.JPG,AFNE25.JPG,AFNE24.JPG,AFSA25.JPG,0,4,4,6,,,,,,,,,,,,,,,,,,,,,,,AFSA05.jpg,AFSA13.jpg,AFNE17.jpg,AFNE01.jpg,AFNE17.jpg,FN,3,num_2,32,num_6,2.30007854907,,,2018_Feb_02_1754,60.0037913883,FEMA4ImagesEEG,001,202689,
AMNE22.JPG,AMSA24.JPG,AMSA22.JPG,AMNE25.JPG,AMNE24.JPG,AMSA25.JPG,0,5,5,7,,,,,,,,,,,,,,,,,,,,,,,AFNE15.jpg,AFNE19.jpg,AFSA20.jpg,AFSA04.jpg,AFNE15.jpg,FN,3,num_8,32,num_4,0.883372137439,,,2018_Feb_02_1754,60.0037913883,FEMA4ImagesEEG,001,202689,
AFSA21.JPG,AFNE23.JPG,AFNE21.JPG,AFSA25.JPG,AFNE25.JPG,AFSA23.JPG,0,6,6,4,,,,,,,,,,,,,,,,,,,,,,,AFSA05.jpg,AFSA09.jpg,AFNE12.jpg,AFNE14.jpg,AFSA09.jpg,FS,4,num_6,32,num_2,1.03343161859,,,2018_Feb_02_1754,60.0037913883,FEMA4ImagesEEG,001,202689,
AFNE23.JPG,AFNE24.JPG,AFNE22.JPG,AFSA24.JPG,AFSA22.JPG,AFSA23.JPG,0,7,7,8,,,,,,,,,,,,,,,,,,,,,,,AFSA19.jpg,AFSA15.jpg,AFNE14.jpg,AFNE12.jpg,AFSA15.jpg,FS,4,num_6,32,num_4,0.783515732386,,,2018_Feb_02_1754,60.0037913883,FEMA4ImagesEEG,001,202689,
AMSA21.JPG,AMNE23.JPG,AMNE21.JPG,AMSA25.JPG,AMNE25.JPG,AMSA23.JPG,0,8,8,5,,,,,,,,,,,,,,,,,,,,,,,AFNE02.jpg,AFNE18.jpg,AFSA09.jpg,AFSA12.jpg,AFNE02.jpg,FN,3,num_8,16,num_8,0.716824090807,,,2018_Feb_02_1754,60.0037913883,FEMA4ImagesEEG,001,202689,
AMNE23.JPG,AMNE24.JPG,AMNE22.JPG,AMSA24.JPG,AMSA22.JPG,AMSA23.JPG,0,9,9,9,,,,,,,,,,,,,,,,,,,,,,,AFSA09.jpg,AFNE12.jpg,AFNE19.jpg,AFSA18.jpg,AFSA18.jpg,FS,4,num_4,16,num_4,0.566840304178,,,2018_Feb_02_1754,60.0037913883,FEMA4ImagesEEG,001,202689,
AMSA21.JPG,AMNE23.JPG,AMNE21.JPG,AMSA25.JPG,AMNE25.JPG,AMSA23.JPG,,,,,0,0,0,5,,,,,,,,,,,,,,,,,,,AMNE07.jpg,AMSA06.jpg,AMSA03.jpg,AMNE02.jpg,AMSA06.jpg,MS,2,num_6,16,num_6,0.867049394175,,,2018_Feb_02_1754,60.0037913883,FEMA4ImagesEEG,001,202689,
AFSA25.JPG,AFNE24.JPG,AFSA24.JPG,AFNE21.JPG,AFSA21.JPG,AFNE25.JPG,,,,,0,1,1,2,,,,,,,,,,,,,,,,,,,AMSA05.jpg,AMNE13.jpg,AMNE05.jpg,AMSA09.jpg,AMNE13.jpg,MN,1,num_6,32,num_8,0.733506062184,,,2018_Feb_02_1754,60.0037913883,FEMA4ImagesEEG,001,202689,
AFSA21.JPG,AFNE23.JPG,AFNE21.JPG,AFSA25.JPG,AFNE25.JPG,AFSA23.JPG,,,,,0,2,2,4,,,,,,,,,,,,,,,,,,,AMSA19.jpg,AMSA07.jpg,AMNE04.jpg,AMNE07.jpg,AMNE04.jpg,MN,1,num_2,16,num_2,0.550153201213,,,2018_Feb_02_1754,60.0037913883,FEMA4ImagesEEG,001,202689,
AMNE22.JPG,AMSA24.JPG,AMSA22.JPG,AMNE25.JPG,AMNE24.JPG,AMSA25.JPG,,,,,0,3,3,7,,,,,,,,,,,,,,,,,,,AMNE09.jpg,AMSA11.jpg,AMSA19.jpg,AMNE07.jpg,AMSA19.jpg,MS,2,num_2,32,num_4,1.33344698197,,,2018_Feb_02_1754,60.0037913883,FEMA4ImagesEEG,001,202689,
AMNE23.JPG,AMNE24.JPG,AMNE22.JPG,AMSA24.JPG,AMSA22.JPG,AMSA23.JPG,,,,,0,4,4,9,,,,,,,,,,,,,,,,,,,AMNE04.jpg,AMNE16.jpg,AMSA01.jpg,AMSA02.jpg,AMNE04.jpg,MN,1,num_8,32,num_2,0.866889986792,,,2018_Feb_02_1754,60.0037913883,FEMA4ImagesEEG,001,202689,
AFNE22.JPG,AFSA24.JPG,AFSA22.JPG,AFNE25.JPG,AFNE24.JPG,AFSA25.JPG,,,,,0,5,5,6,,,,,,,,,,,,,,,,,,,AMSA07.jpg,AMSA11.jpg,AMNE15.jpg,AMNE19.jpg,AMSA07.jpg,MS,2,num_8,32,num_4,0.816796603496,,,2018_Feb_02_1754,60.0037913883,FEMA4ImagesEEG,001,202689,
AFNE23.JPG,AFNE24.JPG,AFNE22.JPG,AFSA24.JPG,AFSA22.JPG,AFSA23.JPG,,,,,0,6,6,8,,,,,,,,,,,,,,,,,,,AMNE08.jpg,AMNE03.jpg,AMSA15.jpg,AMSA13.jpg,AMSA13.jpg,MS,2,num_4,16,num_4,0.900168933324,,,2018_Feb_02_1754,60.0037913883,FEMA4ImagesEEG,001,202689,
AFSA21.JPG,AFNE22.JPG,AFNE21.JPG,AFSA23.JPG,AFSA22.JPG,AFNE23.JPG,,,,,0,7,7,0,,,,,,,,,,,,,,,,,,,AMSA13.jpg,AMNE04.jpg,AMNE19.jpg,AMSA09.jpg,AMNE04.jpg,MN,1,num_6,16,num_6,0.716782073956,,,2018_Feb_02_1754,60.0037913883,FEMA4ImagesEEG,001,202689,
AMSA21.JPG,AMNE22.JPG,AMNE21.JPG,AMSA23.JPG,AMSA22.JPG,AMNE23.JPG,,,,,0,8,8,1,,,,,,,,,,,,,,,,,,,AMSA16.jpg,AMNE17.jpg,AMNE08.jpg,AMSA20.jpg,AMSA20.jpg,MS,2,num_4,16,num_4,0.883422172861,,,2018_Feb_02_1754,60.0037913883,FEMA4ImagesEEG,001,202689,
AMSA25.JPG,AMNE24.JPG,AMSA24.JPG,AMNE26.JPG,AMSA21.JPG,AMNE25.JPG,,,,,0,9,9,3,,,,,,,,,,,,,,,,,,,AMNE17.jpg,AMNE07.jpg,AMSA06.jpg,AMSA08.jpg,AMNE07.jpg,MN,1,num_6,32,num_8,1.10008605442,,,2018_Feb_02_1754,60.0037913883,FEMA4ImagesEEG,001,202689,
AMNE22.JPG,AMSA24.JPG,AMSA22.JPG,AMNE25.JPG,AMNE24.JPG,AMSA25.JPG,,,,,,,,,0,0,0,7,,,,,,,,,,,,,,,AFNE07.jpg,AFSA06.jpg,AFSA04.jpg,AFNE18.jpg,AFSA06.jpg,FS,4,num_6,16,num_6,0.916820434388,,,2018_Feb_02_1754,60.0037913883,FEMA4ImagesEEG,001,202689,
AFSA21.JPG,AFNE22.JPG,AFNE21.JPG,AFSA23.JPG,AFSA22.JPG,AFNE23.JPG,,,,,,,,,0,1,1,0,,,,,,,,,,,,,,,AFNE17.jpg,AFSA10.jpg,AFSA06.jpg,AFNE18.jpg,AFSA10.jpg,FS,4,num_6,32,num_4,0.95014524681,,,2018_Feb_02_1754,60.0037913883,FEMA4ImagesEEG,001,202689,
AFSA25.JPG,AFNE24.JPG,AFSA24.JPG,AFNE21.JPG,AFSA21.JPG,AFNE25.JPG,,,,,,,,,0,2,2,2,,,,,,,,,,,,,,,AFNE08.jpg,AFNE12.jpg,AFSA14.jpg,AFSA16.jpg,AFSA16.jpg,FS,4,num_4,16,num_4,0.933468728093,,,2018_Feb_02_1754,60.0037913883,FEMA4ImagesEEG,001,202689,
AMSA21.JPG,AMNE22.JPG,AMNE21.JPG,AMSA23.JPG,AMSA22.JPG,AMNE23.JPG,,,,,,,,,0,3,3,1,,,,,,,,,,,,,,,AFNE11.jpg,AFSA03.jpg,AFSA14.jpg,AFNE13.jpg,AFSA03.jpg,FS,4,num_6,32,num_2,1.38342489908,,,2018_Feb_02_1754,60.0037913883,FEMA4ImagesEEG,001,202689,
AFNE22.JPG,AFSA24.JPG,AFSA22.JPG,AFNE25.JPG,AFNE24.JPG,AFSA25.JPG,,,,,,,,,0,4,4,6,,,,,,,,,,,,,,,AFSA11.jpg,AFNE02.jpg,AFNE12.jpg,AFSA12.jpg,AFSA11.jpg,FS,4,num_8,16,num_8,0.550176294288,,,2018_Feb_02_1754,60.0037913883,FEMA4ImagesEEG,001,202689,
AMSA25.JPG,AMNE24.JPG,AMSA24.JPG,AMNE26.JPG,AMSA21.JPG,AMNE25.JPG,,,,,,,,,0,5,5,3,,,,,,,,,,,,,,,AFSA12.jpg,AFNE09.jpg,AFNE19.jpg,AFSA03.jpg,AFSA03.jpg,FS,4,num_4,16,num_4,1.03346240951,,,2018_Feb_02_1754,60.0037913883,FEMA4ImagesEEG,001,202689,
AMSA21.JPG,AMNE23.JPG,AMNE21.JPG,AMSA25.JPG,AMNE25.JPG,AMSA23.JPG,,,,,,,,,0,6,6,5,,,,,,,,,,,,,,,AFNE02.jpg,AFSA10.jpg,AFSA01.jpg,AFNE03.jpg,AFSA01.jpg,FS,4,num_2,32,num_4,0.716789130354,,,2018_Feb_02_1754,60.0037913883,FEMA4ImagesEEG,001,202689,
AFSA21.JPG,AFNE23.JPG,AFNE21.JPG,AFSA25.JPG,AFNE25.JPG,AFSA23.JPG,,,,,,,,,0,7,7,4,,,,,,,,,,,,,,,AFSA18.jpg,AFSA12.jpg,AFNE05.jpg,AFNE02.jpg,AFNE02.jpg,FN,3,num_4,32,num_2,0.900165726081,,,2018_Feb_02_1754,60.0037913883,FEMA4ImagesEEG,001,202689,
AFNE23.JPG,AFNE24.JPG,AFNE22.JPG,AFSA24.JPG,AFSA22.JPG,AFSA23.JPG,,,,,,,,,0,8,8,8,,,,,,,,,,,,,,,AFNE18.jpg,AFSA13.jpg,AFSA09.jpg,AFNE11.jpg,AFNE18.jpg,FN,3,num_8,32,num_6,0.633504682919,,,2018_Feb_02_1754,60.0037913883,FEMA4ImagesEEG,001,202689,
AMNE23.JPG,AMNE24.JPG,AMNE22.JPG,AMSA24.JPG,AMSA22.JPG,AMSA23.JPG,,,,,,,,,0,9,9,9,,,,,,,,,,,,,,,AFNE10.jpg,AFNE04.jpg,AFSA17.jpg,AFSA15.jpg,AFSA15.jpg,FS,4,num_4,32,num_8,0.650160353514,,,2018_Feb_02_1754,60.0037913883,FEMA4ImagesEEG,001,202689,
AMSA21.JPG,AMNE22.JPG,AMNE21.JPG,AMSA23.JPG,AMSA22.JPG,AMNE23.JPG,,,,,,,,,,,,,0,0,0,1,,,,,,,,,,,AMSA11.jpg,AMNE01.jpg,AMSA16.jpg,AMNE10.jpg,AMNE01.jpg,MN,1,num_6,32,num_4,0.800117198145,,,2018_Feb_02_1754,60.0037913883,FEMA4ImagesEEG,001,202689,
AMNE23.JPG,AMNE24.JPG,AMNE22.JPG,AMSA24.JPG,AMSA22.JPG,AMSA23.JPG,,,,,,,,,,,,,0,1,1,9,,,,,,,,,,,AMSA20.jpg,AMSA01.jpg,AMNE10.jpg,AMNE19.jpg,AMNE19.jpg,MN,1,num_4,32,num_8,0.700121912989,,,2018_Feb_02_1754,60.0037913883,FEMA4ImagesEEG,001,202689,
AFNE22.JPG,AFSA24.JPG,AFSA22.JPG,AFNE25.JPG,AFNE24.JPG,AFSA25.JPG,,,,,,,,,,,,,0,2,2,6,,,,,,,,,,,AMNE12.jpg,AMSA01.jpg,AMSA18.jpg,AMNE09.jpg,AMNE12.jpg,MN,1,num_8,32,num_4,0.783486865927,,,2018_Feb_02_1754,60.0037913883,FEMA4ImagesEEG,001,202689,
AFSA21.JPG,AFNE23.JPG,AFNE21.JPG,AFSA25.JPG,AFNE25.JPG,AFSA23.JPG,,,,,,,,,,,,,0,3,3,4,,,,,,,,,,,AMNE14.jpg,AMSA14.jpg,AMSA08.jpg,AMNE13.jpg,AMSA14.jpg,MS,2,num_6,16,num_6,0.683499599225,,,2018_Feb_02_1754,60.0037913883,FEMA4ImagesEEG,001,202689,
AMSA25.JPG,AMNE24.JPG,AMSA24.JPG,AMNE26.JPG,AMSA21.JPG,AMNE25.JPG,,,,,,,,,,,,,0,4,4,3,,,,,,,,,,,AMNE16.jpg,AMSA14.jpg,AMSA10.jpg,AMNE09.jpg,AMSA10.jpg,MS,2,num_2,32,num_4,1.38344831311,,,2018_Feb_02_1754,60.0037913883,FEMA4ImagesEEG,001,202689,
AFNE23.JPG,AFNE24.JPG,AFNE22.JPG,AFSA24.JPG,AFSA22.JPG,AFSA23.JPG,,,,,,,,,,,,,0,5,5,8,,,,,,,,,,,AMSA06.jpg,AMNE17.jpg,AMSA09.jpg,AMNE05.jpg,AMNE05.jpg,MN,1,num_4,32,num_2,0.866797613911,,,2018_Feb_02_1754,60.0037913883,FEMA4ImagesEEG,001,202689,
AFSA21.JPG,AFNE22.JPG,AFNE21.JPG,AFSA23.JPG,AFSA22.JPG,AFNE23.JPG,,,,,,,,,,,,,0,6,6,0,,,,,,,,,,,AMSA19.jpg,AMSA03.jpg,AMNE16.jpg,AMNE03.jpg,AMSA19.jpg,MS,2,num_8,32,num_6,1.46675970242,,,2018_Feb_02_1754,60.0037913883,FEMA4ImagesEEG,001,202689,
AFSA25.JPG,AFNE24.JPG,AFSA24.JPG,AFNE21.JPG,AFSA21.JPG,AFNE25.JPG,,,,,,,,,,,,,0,7,7,2,,,,,,,,,,,AMSA09.jpg,AMNE11.jpg,AMNE13.jpg,AMSA01.jpg,AMSA01.jpg,MS,2,num_4,16,num_4,0.566795079969,,,2018_Feb_02_1754,60.0037913883,FEMA4ImagesEEG,001,202689,
AMSA21.JPG,AMNE23.JPG,AMNE21.JPG,AMSA25.JPG,AMNE25.JPG,AMSA23.JPG,,,,,,,,,,,,,0,8,8,5,,,,,,,,,,,AMNE15.jpg,AMSA20.jpg,AMSA06.jpg,AMNE09.jpg,AMNE09.jpg,MN,1,num_4,16,num_4,0.750137356692,,,2018_Feb_02_1754,60.0037913883,FEMA4ImagesEEG,001,202689,
AMNE22.JPG,AMSA24.JPG,AMSA22.JPG,AMNE25.JPG,AMNE24.JPG,AMSA25.JPG,,,,,,,,,,,,,0,9,9,7,,,,,,,,,,,AMNE08.jpg,AMSA02.jpg,AMSA19.jpg,AMNE01.jpg,AMNE01.jpg,MN,1,num_4,16,num_4,1.11677444039,,,2018_Feb_02_1754,60.0037913883,FEMA4ImagesEEG,001,202689,
AFSA21.JPG,AFNE22.JPG,AFNE21.JPG,AFSA23.JPG,AFSA22.JPG,AFNE23.JPG,,,,,,,,,,,,,,,,,0,0,0,0,,,,,,,AFSA01.jpg,AFNE05.jpg,AFNE20.jpg,AFSA07.jpg,AFNE20.jpg,FN,3,num_2,32,num_8,0.783316232613,,,2018_Feb_02_1754,60.0037913883,FEMA4ImagesEEG,001,202689,
AFSA25.JPG,AFNE24.JPG,AFSA24.JPG,AFNE21.JPG,AFSA21.JPG,AFNE25.JPG,,,,,,,,,,,,,,,,,0,1,1,2,,,,,,,AFNE07.jpg,AFNE13.jpg,AFSA14.jpg,AFSA12.jpg,AFNE07.jpg,FN,3,num_8,16,num_8,0.883400041726,,,2018_Feb_02_1754,60.0037913883,FEMA4ImagesEEG,001,202689,
AMSA21.JPG,AMNE22.JPG,AMNE21.JPG,AMSA23.JPG,AMSA22.JPG,AMNE23.JPG,,,,,,,,,,,,,,,,,0,2,2,1,,,,,,,AFSA17.jpg,AFNE01.jpg,AFSA12.jpg,AFNE04.jpg,AFNE04.jpg,FN,3,num_4,16,num_4,0.866860158043,,,2018_Feb_02_1754,60.0037913883,FEMA4ImagesEEG,001,202689,
AMNE23.JPG,AMNE24.JPG,AMNE22.JPG,AMSA24.JPG,AMSA22.JPG,AMSA23.JPG,,,,,,,,,,,,,,,,,0,3,3,9,,,,,,,AFSA07.jpg,AFNE11.jpg,AFNE16.jpg,AFSA17.jpg,AFNE16.jpg,FN,3,num_2,32,num_6,1.05014983332,,,2018_Feb_02_1754,60.0037913883,FEMA4ImagesEEG,001,202689,
AFNE22.JPG,AFSA24.JPG,AFSA22.JPG,AFNE25.JPG,AFNE24.JPG,AFSA25.JPG,,,,,,,,,,,,,,,,,0,4,4,6,,,,,,,AFSA02.jpg,AFNE03.jpg,AFSA15.jpg,AFNE04.jpg,AFSA02.jpg,FS,4,num_8,16,num_8,0.766826704843,,,2018_Feb_02_1754,60.0037913883,FEMA4ImagesEEG,001,202689,
AMSA25.JPG,AMNE24.JPG,AMSA24.JPG,AMNE26.JPG,AMSA21.JPG,AMNE25.JPG,,,,,,,,,,,,,,,,,0,5,5,3,,,,,,,AFNE14.jpg,AFSA18.jpg,AFSA19.jpg,AFNE05.jpg,AFNE05.jpg,FN,3,num_4,32,num_8,1.11679272261,,,2018_Feb_02_1754,60.0037913883,FEMA4ImagesEEG,001,202689,
AFSA21.JPG,AFNE23.JPG,AFNE21.JPG,AFSA25.JPG,AFNE25.JPG,AFSA23.JPG,,,,,,,,,,,,,,,,,0,6,6,4,,,,,,,AFNE19.jpg,AFSA13.jpg,AFNE02.jpg,AFSA20.jpg,AFSA13.jpg,FS,4,num_6,16,num_6,0.633504682919,,,2018_Feb_02_1754,60.0037913883,FEMA4ImagesEEG,001,202689,
AMSA21.JPG,AMNE23.JPG,AMNE21.JPG,AMSA25.JPG,AMNE25.JPG,AMSA23.JPG,,,,,,,,,,,,,,,,,0,7,7,5,,,,,,,AFSA12.jpg,AFSA11.jpg,AFNE08.jpg,AFNE15.jpg,AFSA12.jpg,FS,4,num_8,16,num_8,0.616753111244,,,2018_Feb_02_1754,60.0037913883,FEMA4ImagesEEG,001,202689,
AMNE22.JPG,AMSA24.JPG,AMSA22.JPG,AMNE25.JPG,AMNE24.JPG,AMSA25.JPG,,,,,,,,,,,,,,,,,0,8,8,7,,,,,,,AFSA19.jpg,AFNE13.jpg,AFSA15.jpg,AFNE11.jpg,AFSA19.jpg,FS,4,num_8,32,num_4,0.600151645602,,,2018_Feb_02_1754,60.0037913883,FEMA4ImagesEEG,001,202689,
AFNE23.JPG,AFNE24.JPG,AFNE22.JPG,AFSA24.JPG,AFSA22.JPG,AFSA23.JPG,,,,,,,,,,,,,,,,,0,9,9,8,,,,,,,AFSA10.jpg,AFSA03.jpg,AFNE12.jpg,AFNE13.jpg,AFNE12.jpg,FN,3,num_2,16,num_2,0.933511386393,,,2018_Feb_02_1754,60.0037913883,FEMA4ImagesEEG,001,202689,
AFSA21.JPG,AFNE23.JPG,AFNE21.JPG,AFSA25.JPG,AFNE25.JPG,AFSA23.JPG,,,,,,,,,,,,,,,,,,,,,0,0,0,4,,,AMSA03.jpg,AMNE15.jpg,AMSA15.jpg,AMNE20.jpg,AMSA15.jpg,MS,2,num_2,16,num_2,0.833451311919,,,2018_Feb_02_1754,60.0037913883,FEMA4ImagesEEG,001,202689,
AMNE22.JPG,AMSA24.JPG,AMSA22.JPG,AMNE25.JPG,AMNE24.JPG,AMSA25.JPG,,,,,,,,,,,,,,,,,,,,,0,1,1,7,,,AMSA02.jpg,AMNE11.jpg,AMSA04.jpg,AMNE01.jpg,AMSA02.jpg,MS,2,num_8,32,num_2,1.16674594267,,,2018_Feb_02_1754,60.0037913883,FEMA4ImagesEEG,001,202689,
AFNE23.JPG,AFNE24.JPG,AFNE22.JPG,AFSA24.JPG,AFSA22.JPG,AFSA23.JPG,,,,,,,,,,,,,,,,,,,,,0,2,2,8,,,AMNE05.jpg,AMSA14.jpg,AMSA05.jpg,AMNE02.jpg,AMNE05.jpg,MN,1,num_8,16,num_8,0.950133058708,,,2018_Feb_02_1754,60.0037913883,FEMA4ImagesEEG,001,202689,
AFSA25.JPG,AFNE24.JPG,AFSA24.JPG,AFNE21.JPG,AFSA21.JPG,AFNE25.JPG,,,,,,,,,,,,,,,,,,,,,0,3,3,2,,,AMSA16.jpg,AMNE06.jpg,AMNE13.jpg,AMSA02.jpg,AMSA02.jpg,MS,2,num_4,16,num_4,0.650324572227,,,2018_Feb_02_1754,60.0037913883,FEMA4ImagesEEG,001,202689,
AFSA21.JPG,AFNE22.JPG,AFNE21.JPG,AFSA23.JPG,AFSA22.JPG,AFNE23.JPG,,,,,,,,,,,,,,,,,,,,,0,4,4,0,,,AMSA14.jpg,AMNE08.jpg,AMNE07.jpg,AMSA10.jpg,AMSA10.jpg,MS,2,num_4,16,num_4,1.10013737262,,,2018_Feb_02_1754,60.0037913883,FEMA4ImagesEEG,001,202689,
AMSA21.JPG,AMNE23.JPG,AMNE21.JPG,AMSA25.JPG,AMNE25.JPG,AMSA23.JPG,,,,,,,,,,,,,,,,,,,,,0,5,5,5,,,AMSA02.jpg,AMNE15.jpg,AMNE02.jpg,AMSA10.jpg,AMSA10.jpg,MS,2,num_4,16,num_4,0.950091041857,,,2018_Feb_02_1754,60.0037913883,FEMA4ImagesEEG,001,202689,
AFNE22.JPG,AFSA24.JPG,AFSA22.JPG,AFNE25.JPG,AFNE24.JPG,AFSA25.JPG,,,,,,,,,,,,,,,,,,,,,0,6,6,6,,,AMSA01.jpg,AMNE08.jpg,AMNE11.jpg,AMSA18.jpg,AMNE08.jpg,MN,1,num_6,16,num_6,1.01677145751,,,2018_Feb_02_1754,60.0037913883,FEMA4ImagesEEG,001,202689,
AMSA21.JPG,AMNE22.JPG,AMNE21.JPG,AMSA23.JPG,AMSA22.JPG,AMNE23.JPG,,,,,,,,,,,,,,,,,,,,,0,7,7,1,,,AMSA08.jpg,AMNE14.jpg,AMSA06.jpg,AMNE12.jpg,AMNE14.jpg,MN,1,num_6,16,num_6,1.03345888131,,,2018_Feb_02_1754,60.0037913883,FEMA4ImagesEEG,001,202689,
AMSA25.JPG,AMNE24.JPG,AMSA24.JPG,AMNE26.JPG,AMSA21.JPG,AMNE25.JPG,,,,,,,,,,,,,,,,,,,,,0,8,8,3,,,AMNE01.jpg,AMSA15.jpg,AMSA13.jpg,AMNE17.jpg,AMNE17.jpg,MN,1,num_4,16,num_4,0.783466980094,,,2018_Feb_02_1754,60.0037913883,FEMA4ImagesEEG,001,202689,
AMNE23.JPG,AMNE24.JPG,AMNE22.JPG,AMSA24.JPG,AMSA22.JPG,AMSA23.JPG,,,,,,,,,,,,,,,,,,,,,0,9,9,9,,,AMSA07.jpg,AMNE07.jpg,AMNE15.jpg,AMSA01.jpg,AMNE07.jpg,MN,1,num_6,32,num_2,1.2334526591,,,2018_Feb_02_1754,60.0037913883,FEMA4ImagesEEG,001,202689,
,,,,,,,,,,,,,,,,,,,,,,,,,,,,,,,,,,,,,,,,,,,space,11.132637885,2018_Feb_02_1754,60.0037913883,FEMA4ImagesEEG,001,202689,
AFNE01.JPG,AFNE01.JPG,AFNE01.JPG,AFNE01.JPG,AFNE01.JPG,AFNE01.JPG,0,0,0,3,,,,,,,,,,,,,,,,,,,,,,,AFNE13.jpg,AFSA03.jpg,AFNE03.jpg,AFSA12.jpg,AFNE03.jpg,FN,3,num_2,32,num_6,0.733500930364,,,2018_Feb_02_1754,60.0037913883,FEMA4ImagesEEG,001,202689,
AFNE01.JPG,AFNE01.JPG,AFNE01.JPG,AFNE01.JPG,AFNE01.JPG,AFNE01.JPG,0,1,1,0,,,,,,,,,,,,,,,,,,,,,,,AFSA07.jpg,AFSA04.jpg,AFNE02.jpg,AFNE08.jpg,AFNE08.jpg,FN,3,num_4,32,num_8,1.38346531219,,,2018_Feb_02_1754,60.0037913883,FEMA4ImagesEEG,001,202689,
AFNE01.JPG,AFNE01.JPG,AFNE01.JPG,AFNE01.JPG,AFNE01.JPG,AFNE01.JPG,0,2,2,4,,,,,,,,,,,,,,,,,,,,,,,AFSA02.jpg,AFNE02.jpg,AFSA12.jpg,AFNE10.jpg,AFSA02.jpg,FS,4,num_8,32,num_6,0.633362916182,,,2018_Feb_02_1754,60.0037913883,FEMA4ImagesEEG,001,202689,
AFNE01.JPG,AFNE01.JPG,AFNE01.JPG,AFNE01.JPG,AFNE01.JPG,AFNE01.JPG,0,3,3,6,,,,,,,,,,,,,,,,,,,,,,,AFNE11.jpg,AFNE05.jpg,AFSA10.jpg,AFSA08.jpg,AFSA10.jpg,FS,4,num_2,32,num_4,0.900114086922,,,2018_Feb_02_1754,60.0037913883,FEMA4ImagesEEG,001,202689,
AFNE01.JPG,AFNE01.JPG,AFNE01.JPG,AFNE01.JPG,AFNE01.JPG,AFNE01.JPG,0,4,4,5,,,,,,,,,,,,,,,,,,,,,,,AFSA17.jpg,AFSA12.jpg,AFNE19.jpg,AFNE09.jpg,AFNE19.jpg,FN,3,num_2,32,num_8,0.950167057104,,,2018_Feb_02_1754,60.0037913883,FEMA4ImagesEEG,001,202689,
AFNE01.JPG,AFNE01.JPG,AFNE01.JPG,AFNE01.JPG,AFNE01.JPG,AFNE01.JPG,0,5,5,9,,,,,,,,,,,,,,,,,,,,,,,AFNE03.jpg,AFNE14.jpg,AFSA16.jpg,AFSA01.jpg,AFNE03.jpg,FN,3,num_8,32,num_4,0.900143915671,,,2018_Feb_02_1754,60.0037913883,FEMA4ImagesEEG,001,202689,
AFNE01.JPG,AFNE01.JPG,AFNE01.JPG,AFNE01.JPG,AFNE01.JPG,AFNE01.JPG,0,6,6,2,,,,,,,,,,,,,,,,,,,,,,,AFSA07.jpg,AFNE19.jpg,AFSA06.jpg,AFNE12.jpg,AFSA07.jpg,FS,4,num_8,16,num_8,1.80007582274,,,2018_Feb_02_1754,60.0037913883,FEMA4ImagesEEG,001,202689,
AFNE01.JPG,AFNE01.JPG,AFNE01.JPG,AFNE01.JPG,AFNE01.JPG,AFNE01.JPG,0,7,7,1,,,,,,,,,,,,,,,,,,,,,,,AFNE11.jpg,AFSA12.jpg,AFSA17.jpg,AFNE03.jpg,AFSA17.jpg,FS,4,num_2,16,num_2,0.800127141061,,,2018_Feb_02_1754,60.0037913883,FEMA4ImagesEEG,001,202689,
AFNE01.JPG,AFNE01.JPG,AFNE01.JPG,AFNE01.JPG,AFNE01.JPG,AFNE01.JPG,0,8,8,7,,,,,,,,,,,,,,,,,,,,,,,AFSA06.jpg,AFNE09.jpg,AFNE20.jpg,AFSA13.jpg,AFSA06.jpg,FS,4,num_8,32,num_4,1.21675849974,,,2018_Feb_02_1754,60.0037913883,FEMA4ImagesEEG,001,202689,
AFNE01.JPG,AFNE01.JPG,AFNE01.JPG,AFNE01.JPG,AFNE01.JPG,AFNE01.JPG,0,9,9,8,,,,,,,,,,,,,,,,,,,,,,,AFSA07.jpg,AFNE06.jpg,AFSA15.jpg,AFNE20.jpg,AFSA07.jpg,FS,4,num_8,32,num_6,0.766810988658,,,2018_Feb_02_1754,60.0037913883,FEMA4ImagesEEG,001,202689,
AFNE01.JPG,AFNE01.JPG,AFNE01.JPG,AFNE01.JPG,AFNE01.JPG,AFNE01.JPG,1,0,10,2,,,,,,,,,,,,,,,,,,,,,,,AFSA13.jpg,AFSA07.jpg,AFNE12.jpg,AFNE03.jpg,AFSA13.jpg,FS,4,num_8,32,num_4,0.750147299608,,,2018_Feb_02_1754,60.0037913883,FEMA4ImagesEEG,001,202689,
AFNE01.JPG,AFNE01.JPG,AFNE01.JPG,AFNE01.JPG,AFNE01.JPG,AFNE01.JPG,1,1,11,3,,,,,,,,,,,,,,,,,,,,,,,AFNE17.jpg,AFNE15.jpg,AFSA12.jpg,AFSA07.jpg,AFNE15.jpg,FN,3,num_6,16,num_6,0.7666349028,,,2018_Feb_02_1754,60.0037913883,FEMA4ImagesEEG,001,202689,
AFNE01.JPG,AFNE01.JPG,AFNE01.JPG,AFNE01.JPG,AFNE01.JPG,AFNE01.JPG,1,2,12,6,,,,,,,,,,,,,,,,,,,,,,,AFSA14.jpg,AFNE08.jpg,AFNE13.jpg,AFSA01.jpg,AFNE13.jpg,FN,3,num_2,32,num_4,0.950134341721,,,2018_Feb_02_1754,60.0037913883,FEMA4ImagesEEG,001,202689,
AFNE01.JPG,AFNE01.JPG,AFNE01.JPG,AFNE01.JPG,AFNE01.JPG,AFNE01.JPG,1,3,13,7,,,,,,,,,,,,,,,,,,,,,,,AFSA06.jpg,AFSA02.jpg,AFNE06.jpg,AFNE01.jpg,AFNE06.jpg,FN,3,num_2,32,num_6,0.78347403626,,,2018_Feb_02_1754,60.0037913883,FEMA4ImagesEEG,001,202689,
AFNE01.JPG,AFNE01.JPG,AFNE01.JPG,AFNE01.JPG,AFNE01.JPG,AFNE01.JPG,1,4,14,9,,,,,,,,,,,,,,,,,,,,,,,AFSA20.jpg,AFSA03.jpg,AFNE17.jpg,AFNE03.jpg,AFSA20.jpg,FS,4,num_8,32,num_4,0.700063859229,,,2018_Feb_02_1754,60.0037913883,FEMA4ImagesEEG,001,202689,
AFNE01.JPG,AFNE01.JPG,AFNE01.JPG,AFNE01.JPG,AFNE01.JPG,AFNE01.JPG,1,5,15,0,,,,,,,,,,,,,,,,,,,,,,,AFNE06.jpg,AFNE10.jpg,AFSA20.jpg,AFSA15.jpg,AFSA15.jpg,FS,4,num_4,16,num_4,1.31675987889,,,2018_Feb_02_1754,60.0037913883,FEMA4ImagesEEG,001,202689,
AFNE01.JPG,AFNE01.JPG,AFNE01.JPG,AFNE01.JPG,AFNE01.JPG,AFNE01.JPG,1,6,16,1,,,,,,,,,,,,,,,,,,,,,,,AFSA06.jpg,AFSA03.jpg,AFNE07.jpg,AFNE10.jpg,AFSA03.jpg,FS,4,num_6,32,num_8,0.950162566733,,,2018_Feb_02_1754,60.0037913883,FEMA4ImagesEEG,001,202689,
AFNE01.JPG,AFNE01.JPG,AFNE01.JPG,AFNE01.JPG,AFNE01.JPG,AFNE01.JPG,1,7,17,5,,,,,,,,,,,,,,,,,,,,,,,AFSA02.jpg,AFSA13.jpg,AFNE15.jpg,AFNE01.jpg,AFNE01.jpg,FN,3,num_4,32,num_8,0.900139104691,,,2018_Feb_02_1754,60.0037913883,FEMA4ImagesEEG,001,202689,
AFNE01.JPG,AFNE01.JPG,AFNE01.JPG,AFNE01.JPG,AFNE01.JPG,AFNE01.JPG,1,8,18,4,,,,,,,,,,,,,,,,,,,,,,,AFNE14.jpg,AFNE18.jpg,AFSA09.jpg,AFSA06.jpg,AFSA06.jpg,FS,4,num_4,16,num_4,0.933508499642,,,2018_Feb_02_1754,60.0037913883,FEMA4ImagesEEG,001,202689,
AFNE01.JPG,AFNE01.JPG,AFNE01.JPG,AFNE01.JPG,AFNE01.JPG,AFNE01.JPG,1,9,19,8,,,,,,,,,,,,,,,,,,,,,,,AFNE17.jpg,AFNE03.jpg,AFSA18.jpg,AFSA13.jpg,AFNE03.jpg,FN,3,num_6,32,num_8,1.05013700377,,,2018_Feb_02_1754,60.0037913883,FEMA4ImagesEEG,001,202689,
AFNE01.JPG,AFNE01.JPG,AFNE01.JPG,AFNE01.JPG,AFNE01.JPG,AFNE01.JPG,2,0,20,4,,,,,,,,,,,,,,,,,,,,,,,AFNE17.jpg,AFSA05.jpg,AFNE04.jpg,AFSA14.jpg,AFSA14.jpg,FS,4,num_4,16,num_4,0.833450991195,,,2018_Feb_02_1754,60.0037913883,FEMA4ImagesEEG,001,202689,
AFNE01.JPG,AFNE01.JPG,AFNE01.JPG,AFNE01.JPG,AFNE01.JPG,AFNE01.JPG,2,1,21,6,,,,,,,,,,,,,,,,,,,,,,,AFNE02.jpg,AFSA09.jpg,AFNE20.jpg,AFSA05.jpg,AFSA05.jpg,FS,4,num_4,16,num_4,1.14993760025,,,2018_Feb_02_1754,60.0037913883,FEMA4ImagesEEG,001,202689,
AFNE01.JPG,AFNE01.JPG,AFNE01.JPG,AFNE01.JPG,AFNE01.JPG,AFNE01.JPG,2,2,22,3,,,,,,,,,,,,,,,,,,,,,,,AFSA08.jpg,AFNE07.jpg,AFSA18.jpg,AFNE18.jpg,AFSA08.jpg,FS,4,num_8,16,num_8,0.750136073679,,,2018_Feb_02_1754,60.0037913883,FEMA4ImagesEEG,001,202689,
AFNE01.JPG,AFNE01.JPG,AFNE01.JPG,AFNE01.JPG,AFNE01.JPG,AFNE01.JPG,2,3,23,0,,,,,,,,,,,,,,,,,,,,,,,AFSA04.jpg,AFSA14.jpg,AFNE01.jpg,AFNE07.jpg,AFSA14.jpg,FS,4,num_6,32,num_8,0.816941898433,,,2018_Feb_02_1754,60.0037913883,FEMA4ImagesEEG,001,202689,
AFNE01.JPG,AFNE01.JPG,AFNE01.JPG,AFNE01.JPG,AFNE01.JPG,AFNE01.JPG,2,4,24,9,,,,,,,,,,,,,,,,,,,,,,,AFSA14.jpg,AFSA01.jpg,AFNE17.jpg,AFNE07.jpg,AFSA01.jpg,FS,4,num_6,16,num_6,0.833503592527,,,2018_Feb_02_1754,60.0037913883,FEMA4ImagesEEG,001,202689,
AFNE01.JPG,AFNE01.JPG,AFNE01.JPG,AFNE01.JPG,AFNE01.JPG,AFNE01.JPG,2,5,25,2,,,,,,,,,,,,,,,,,,,,,,,AFSA02.jpg,AFNE04.jpg,AFNE01.jpg,AFSA12.jpg,AFSA02.jpg,FS,4,num_8,16,num_8,0.816831243341,,,2018_Feb_02_1754,60.0037913883,FEMA4ImagesEEG,001,202689,
AFNE01.JPG,AFNE01.JPG,AFNE01.JPG,AFNE01.JPG,AFNE01.JPG,AFNE01.JPG,2,6,26,8,,,,,,,,,,,,,,,,,,,,,,,AFNE06.jpg,AFSA14.jpg,AFNE05.jpg,AFSA08.jpg,AFSA14.jpg,FS,4,num_6,32,num_2,1.000126692,,,2018_Feb_02_1754,60.0037913883,FEMA4ImagesEEG,001,202689,
AFNE01.JPG,AFNE01.JPG,AFNE01.JPG,AFNE01.JPG,AFNE01.JPG,AFNE01.JPG,2,7,27,7,,,,,,,,,,,,,,,,,,,,,,,AFNE03.jpg,AFNE18.jpg,AFSA12.jpg,AFSA07.jpg,AFNE03.jpg,FN,3,num_8,16,num_8,0.916799265658,,,2018_Feb_02_1754,60.0037913883,FEMA4ImagesEEG,001,202689,
AFNE01.JPG,AFNE01.JPG,AFNE01.JPG,AFNE01.JPG,AFNE01.JPG,AFNE01.JPG,2,8,28,1,,,,,,,,,,,,,,,,,,,,,,,AFSA20.jpg,AFSA12.jpg,AFNE10.jpg,AFNE07.jpg,AFSA12.jpg,FS,4,num_6,16,num_6,0.783342854003,,,2018_Feb_02_1754,60.0037913883,FEMA4ImagesEEG,001,202689,
AFNE01.JPG,AFNE01.JPG,AFNE01.JPG,AFNE01.JPG,AFNE01.JPG,AFNE01.JPG,2,9,29,5,,,,,,,,,,,,,,,,,,,,,,,AFSA18.jpg,AFNE14.jpg,AFSA10.jpg,AFNE18.jpg,AFSA10.jpg,FS,4,num_2,32,num_4,0.916779379826,,,2018_Feb_02_1754,60.0037913883,FEMA4ImagesEEG,001,202689,
AFNE01.JPG,AFNE01.JPG,AFNE01.JPG,AFNE01.JPG,AFNE01.JPG,AFNE01.JPG,3,0,30,2,,,,,,,,,,,,,,,,,,,,,,,AFNE18.jpg,AFSA01.jpg,AFSA20.jpg,AFNE17.jpg,AFNE17.jpg,FN,3,num_4,32,num_2,0.966850311379,,,2018_Feb_02_1754,60.0037913883,FEMA4ImagesEEG,001,202689,
AFNE01.JPG,AFNE01.JPG,AFNE01.JPG,AFNE01.JPG,AFNE01.JPG,AFNE01.JPG,3,1,31,9,,,,,,,,,,,,,,,,,,,,,,,AFNE15.jpg,AFNE17.jpg,AFSA18.jpg,AFSA01.jpg,AFNE15.jpg,FN,3,num_8,16,num_8,0.850174337858,,,2018_Feb_02_1754,60.0037913883,FEMA4ImagesEEG,001,202689,
AFNE01.JPG,AFNE01.JPG,AFNE01.JPG,AFNE01.JPG,AFNE01.JPG,AFNE01.JPG,3,2,32,8,,,,,,,,,,,,,,,,,,,,,,,AFSA03.jpg,AFSA05.jpg,AFNE13.jpg,AFNE17.jpg,AFNE17.jpg,FN,3,num_4,32,num_8,0.866820706986,,,2018_Feb_02_1754,60.0037913883,FEMA4ImagesEEG,001,202689,
AFNE01.JPG,AFNE01.JPG,AFNE01.JPG,AFNE01.JPG,AFNE01.JPG,AFNE01.JPG,3,3,33,7,,,,,,,,,,,,,,,,,,,,,,,AFSA05.jpg,AFNE13.jpg,AFSA08.jpg,AFNE08.jpg,AFSA05.jpg,FS,4,num_8,32,num_2,1.05015336152,,,2018_Feb_02_1754,60.0037913883,FEMA4ImagesEEG,001,202689,
AFNE01.JPG,AFNE01.JPG,AFNE01.JPG,AFNE01.JPG,AFNE01.JPG,AFNE01.JPG,3,4,34,0,,,,,,,,,,,,,,,,,,,,,,,AFSA05.jpg,AFNE09.jpg,AFSA17.jpg,AFNE03.jpg,AFNE09.jpg,FN,3,num_6,16,num_6,0.999984925147,,,2018_Feb_02_1754,60.0037913883,FEMA4ImagesEEG,001,202689,
AFNE01.JPG,AFNE01.JPG,AFNE01.JPG,AFNE01.JPG,AFNE01.JPG,AFNE01.JPG,3,5,35,5,,,,,,,,,,,,,,,,,,,,,,,AFNE14.jpg,AFNE08.jpg,AFSA17.jpg,AFSA20.jpg,AFNE08.jpg,FN,3,num_6,16,num_6,0.999805632047,,,2018_Feb_02_1754,60.0037913883,FEMA4ImagesEEG,001,202689,
AFNE01.JPG,AFNE01.JPG,AFNE01.JPG,AFNE01.JPG,AFNE01.JPG,AFNE01.JPG,3,6,36,6,,,,,,,,,,,,,,,,,,,,,,,AFNE09.jpg,AFSA04.jpg,AFSA03.jpg,AFNE20.jpg,AFNE09.jpg,FN,3,num_8,16,num_8,0.733551286394,,,2018_Feb_02_1754,60.0037913883,FEMA4ImagesEEG,001,202689,
AFNE01.JPG,AFNE01.JPG,AFNE01.JPG,AFNE01.JPG,AFNE01.JPG,AFNE01.JPG,3,7,37,4,,,,,,,,,,,,,,,,,,,,,,,AFSA17.jpg,AFSA08.jpg,AFNE07.jpg,AFNE04.jpg,AFNE04.jpg,FN,3,num_4,16,num_4,0.833433350548,,,2018_Feb_02_1754,60.0037913883,FEMA4ImagesEEG,001,202689,
AFNE01.JPG,AFNE01.JPG,AFNE01.JPG,AFNE01.JPG,AFNE01.JPG,AFNE01.JPG,3,8,38,1,,,,,,,,,,,,,,,,,,,,,,,AFSA18.jpg,AFNE10.jpg,AFSA12.jpg,AFNE13.jpg,AFNE13.jpg,FN,3,num_4,32,num_6,1.03346273024,,,2018_Feb_02_1754,60.0037913883,FEMA4ImagesEEG,001,202689,
AFNE01.JPG,AFNE01.JPG,AFNE01.JPG,AFNE01.JPG,AFNE01.JPG,AFNE01.JPG,3,9,39,3,,,,,,,,,,,,,,,,,,,,,,,AFNE11.jpg,AFSA11.jpg,AFSA09.jpg,AFNE06.jpg,AFSA11.jpg,FS,4,num_6,16,num_6,1.11679977877,,,2018_Feb_02_1754,60.0037913883,FEMA4ImagesEEG,001,202689,
AFNE01.JPG,AFNE01.JPG,AFNE01.JPG,AFNE01.JPG,AFNE01.JPG,AFNE01.JPG,4,0,40,5,,,,,,,,,,,,,,,,,,,,,,,AFNE10.jpg,AFSA05.jpg,AFNE20.jpg,AFSA14.jpg,AFSA14.jpg,FS,4,num_4,32,num_2,1.85006464494,,,2018_Feb_02_1754,60.0037913883,FEMA4ImagesEEG,001,202689,
AFNE01.JPG,AFNE01.JPG,AFNE01.JPG,AFNE01.JPG,AFNE01.JPG,AFNE01.JPG,4,1,41,2,,,,,,,,,,,,,,,,,,,,,,,AFSA09.jpg,AFNE06.jpg,AFSA04.jpg,AFNE04.jpg,AFSA04.jpg,FS,4,num_2,32,num_8,1.33340560657,,,2018_Feb_02_1754,60.0037913883,FEMA4ImagesEEG,001,202689,
AFNE01.JPG,AFNE01.JPG,AFNE01.JPG,AFNE01.JPG,AFNE01.JPG,AFNE01.JPG,4,2,42,6,,,,,,,,,,,,,,,,,,,,,,,AFNE05.jpg,AFNE03.jpg,AFSA13.jpg,AFSA16.jpg,AFNE03.jpg,FN,3,num_6,16,num_6,1.26677811297,,,2018_Feb_02_1754,60.0037913883,FEMA4ImagesEEG,001,202689,
AFNE01.JPG,AFNE01.JPG,AFNE01.JPG,AFNE01.JPG,AFNE01.JPG,AFNE01.JPG,4,3,43,8,,,,,,,,,,,,,,,,,,,,,,,AFNE20.jpg,AFSA18.jpg,AFNE12.jpg,AFSA11.jpg,AFNE12.jpg,FN,3,num_2,16,num_2,0.96677493758,,,2018_Feb_02_1754,60.0037913883,FEMA4ImagesEEG,001,202689,
AFNE01.JPG,AFNE01.JPG,AFNE01.JPG,AFNE01.JPG,AFNE01.JPG,AFNE01.JPG,4,4,44,9,,,,,,,,,,,,,,,,,,,,,,,AFNE05.jpg,AFNE14.jpg,AFSA18.jpg,AFSA10.jpg,AFSA10.jpg,FS,4,num_4,16,num_4,1.00009686337,,,2018_Feb_02_1754,60.0037913883,FEMA4ImagesEEG,001,202689,
AFNE01.JPG,AFNE01.JPG,AFNE01.JPG,AFNE01.JPG,AFNE01.JPG,AFNE01.JPG,4,5,45,1,,,,,,,,,,,,,,,,,,,,,,,AFSA03.jpg,AFSA02.jpg,AFNE03.jpg,AFNE06.jpg,AFSA02.jpg,FS,4,num_6,32,num_8,1.00013663492,,,2018_Feb_02_1754,60.0037913883,FEMA4ImagesEEG,001,202689,
AFNE01.JPG,AFNE01.JPG,AFNE01.JPG,AFNE01.JPG,AFNE01.JPG,AFNE01.JPG,4,6,46,3,,,,,,,,,,,,,,,,,,,,,,,AFSA17.jpg,AFSA14.jpg,AFNE17.jpg,AFNE03.jpg,AFNE03.jpg,FN,3,num_4,32,num_6,0.850094473804,,,2018_Feb_02_1754,60.0037913883,FEMA4ImagesEEG,001,202689,
AFNE01.JPG,AFNE01.JPG,AFNE01.JPG,AFNE01.JPG,AFNE01.JPG,AFNE01.JPG,4,7,47,7,,,,,,,,,,,,,,,,,,,,,,,AFNE18.jpg,AFSA04.jpg,AFSA03.jpg,AFNE20.jpg,AFNE20.jpg,FN,3,num_4,16,num_4,0.866808519,,,2018_Feb_02_1754,60.0037913883,FEMA4ImagesEEG,001,202689,
AFNE01.JPG,AFNE01.JPG,AFNE01.JPG,AFNE01.JPG,AFNE01.JPG,AFNE01.JPG,4,8,48,0,,,,,,,,,,,,,,,,,,,,,,,AFSA11.jpg,AFSA05.jpg,AFNE10.jpg,AFNE05.jpg,AFSA11.jpg,FS,4,num_8,16,num_8,0.983429646003,,,2018_Feb_02_1754,60.0037913883,FEMA4ImagesEEG,001,202689,
AFNE01.JPG,AFNE01.JPG,AFNE01.JPG,AFNE01.JPG,AFNE01.JPG,AFNE01.JPG,4,9,49,4,,,,,,,,,,,,,,,,,,,,,,,AFSA05.jpg,AFNE16.jpg,AFSA15.jpg,AFNE19.jpg,AFNE19.jpg,FN,3,num_4,16,num_4,1.05009562836,,,2018_Feb_02_1754,60.0037913883,FEMA4ImagesEEG,001,202689,
AFNE01.JPG,AFNE01.JPG,AFNE01.JPG,AFNE01.JPG,AFNE01.JPG,AFNE01.JPG,5,0,50,6,,,,,,,,,,,,,,,,,,,,,,,AFSA05.jpg,AFNE09.jpg,AFNE06.jpg,AFSA03.jpg,AFNE09.jpg,FN,3,num_6,32,num_4,0.85017882823,,,2018_Feb_02_1754,60.0037913883,FEMA4ImagesEEG,001,202689,
AFNE01.JPG,AFNE01.JPG,AFNE01.JPG,AFNE01.JPG,AFNE01.JPG,AFNE01.JPG,5,1,51,7,,,,,,,,,,,,,,,,,,,,,,,AFSA19.jpg,AFNE08.jpg,AFSA07.jpg,AFNE03.jpg,AFNE03.jpg,FN,3,num_4,32,num_8,0.75013030041,,,2018_Feb_02_1754,60.0037913883,FEMA4ImagesEEG,001,202689,
AFNE01.JPG,AFNE01.JPG,AFNE01.JPG,AFNE01.JPG,AFNE01.JPG,AFNE01.JPG,5,2,52,9,,,,,,,,,,,,,,,,,,,,,,,AFNE15.jpg,AFNE19.jpg,AFSA08.jpg,AFSA06.jpg,AFNE19.jpg,FN,3,num_6,32,num_4,0.90009933291,,,2018_Feb_02_1754,60.0037913883,FEMA4ImagesEEG,001,202689,
AFNE01.JPG,AFNE01.JPG,AFNE01.JPG,AFNE01.JPG,AFNE01.JPG,AFNE01.JPG,5,3,53,0,,,,,,,,,,,,,,,,,,,,,,,AFNE09.jpg,AFNE13.jpg,AFSA05.jpg,AFSA19.jpg,AFSA05.jpg,FS,4,num_2,32,num_8,0.883444945212,,,2018_Feb_02_1754,60.0037913883,FEMA4ImagesEEG,001,202689,
AFNE01.JPG,AFNE01.JPG,AFNE01.JPG,AFNE01.JPG,AFNE01.JPG,AFNE01.JPG,5,4,54,5,,,,,,,,,,,,,,,,,,,,,,,AFSA18.jpg,AFNE04.jpg,AFNE05.jpg,AFSA10.jpg,AFSA18.jpg,FS,4,num_8,32,num_2,0.716790733975,,,2018_Feb_02_1754,60.0037913883,FEMA4ImagesEEG,001,202689,
AFNE01.JPG,AFNE01.JPG,AFNE01.JPG,AFNE01.JPG,AFNE01.JPG,AFNE01.JPG,5,5,55,8,,,,,,,,,,,,,,,,,,,,,,,AFNE12.jpg,AFNE07.jpg,AFSA18.jpg,AFSA05.jpg,AFSA05.jpg,FS,4,num_4,16,num_4,0.916865979438,,,2018_Feb_02_1754,60.0037913883,FEMA4ImagesEEG,001,202689,
AFNE01.JPG,AFNE01.JPG,AFNE01.JPG,AFNE01.JPG,AFNE01.JPG,AFNE01.JPG,5,6,56,2,,,,,,,,,,,,,,,,,,,,,,,AFNE05.jpg,AFSA08.jpg,AFSA09.jpg,AFNE03.jpg,AFNE05.jpg,FN,3,num_8,32,num_4,0.883432115661,,,2018_Feb_02_1754,60.0037913883,FEMA4ImagesEEG,001,202689,
AFNE01.JPG,AFNE01.JPG,AFNE01.JPG,AFNE01.JPG,AFNE01.JPG,AFNE01.JPG,5,7,57,3,,,,,,,,,,,,,,,,,,,,,,,AFSA10.jpg,AFNE02.jpg,AFSA02.jpg,AFNE14.jpg,AFSA02.jpg,FS,4,num_2,32,num_6,1.19981159782,,,2018_Feb_02_1754,60.0037913883,FEMA4ImagesEEG,001,202689,
AFNE01.JPG,AFNE01.JPG,AFNE01.JPG,AFNE01.JPG,AFNE01.JPG,AFNE01.JPG,5,8,58,1,,,,,,,,,,,,,,,,,,,,,,,AFNE17.jpg,AFSA04.jpg,AFSA08.jpg,AFNE14.jpg,AFNE17.jpg,FN,3,num_8,32,num_2,0.700125761912,,,2018_Feb_02_1754,60.0037913883,FEMA4ImagesEEG,001,202689,
AFNE01.JPG,AFNE01.JPG,AFNE01.JPG,AFNE01.JPG,AFNE01.JPG,AFNE01.JPG,5,9,59,4,,,,,,,,,,,,,,,,,,,,,,,AFSA20.jpg,AFNE19.jpg,AFSA07.jpg,AFNE04.jpg,AFSA07.jpg,FS,4,num_2,32,num_4,0.916741211782,,,2018_Feb_02_1754,60.0037913883,FEMA4ImagesEEG,001,202689,
,,,,,,,,,,,,,,,,,,,,,,,,,,,,,,,,,,,,,,,,,,,space,7.73315838072,2018_Feb_02_1754,60.0037913883,FEMA4ImagesEEG,001,202689,
AFNE01.JPG,AFNE01.JPG,AFNE01.JPG,AFNE01.JPG,AFNE01.JPG,AFNE01.JPG,,,,,0,0,0,8,,,,,,,,,,,,,,,,,,,AMNE17.jpg,AMNE12.jpg,AMSA02.jpg,AMSA10.jpg,AMNE17.jpg,MN,1,num_8,32,num_4,0.800330169033,,,2018_Feb_02_1754,60.0037913883,FEMA4ImagesEEG,001,202689,
AFNE01.JPG,AFNE01.JPG,AFNE01.JPG,AFNE01.JPG,AFNE01.JPG,AFNE01.JPG,,,,,0,1,1,1,,,,,,,,,,,,,,,,,,,AMSA20.jpg,AMNE17.jpg,AMNE01.jpg,AMSA08.jpg,AMNE01.jpg,MN,1,num_2,32,num_4,0.78342881205,,,2018_Feb_02_1754,60.0037913883,FEMA4ImagesEEG,001,202689,
AFNE01.JPG,AFNE01.JPG,AFNE01.JPG,AFNE01.JPG,AFNE01.JPG,AFNE01.JPG,,,,,0,2,2,0,,,,,,,,,,,,,,,,,,,AMNE12.jpg,AMSA06.jpg,AMNE16.jpg,AMSA02.jpg,AMNE16.jpg,MN,1,num_2,32,num_6,0.650194031186,,,2018_Feb_02_1754,60.0037913883,FEMA4ImagesEEG,001,202689,
AFNE01.JPG,AFNE01.JPG,AFNE01.JPG,AFNE01.JPG,AFNE01.JPG,AFNE01.JPG,,,,,0,3,3,4,,,,,,,,,,,,,,,,,,,AMNE14.jpg,AMSA16.jpg,AMNE06.jpg,AMSA02.jpg,AMSA02.jpg,MS,2,num_4,16,num_4,0.666791648138,,,2018_Feb_02_1754,60.0037913883,FEMA4ImagesEEG,001,202689,
AFNE01.JPG,AFNE01.JPG,AFNE01.JPG,AFNE01.JPG,AFNE01.JPG,AFNE01.JPG,,,,,0,4,4,6,,,,,,,,,,,,,,,,,,,AMNE09.jpg,AMSA19.jpg,AMSA02.jpg,AMNE17.jpg,AMSA02.jpg,MS,2,num_2,16,num_2,0.800287510734,,,2018_Feb_02_1754,60.0037913883,FEMA4ImagesEEG,001,202689,
AFNE01.JPG,AFNE01.JPG,AFNE01.JPG,AFNE01.JPG,AFNE01.JPG,AFNE01.JPG,,,,,0,5,5,3,,,,,,,,,,,,,,,,,,,AMSA09.jpg,AMSA01.jpg,AMNE15.jpg,AMNE04.jpg,AMNE04.jpg,MN,1,num_4,16,num_4,0.800139008439,,,2018_Feb_02_1754,60.0037913883,FEMA4ImagesEEG,001,202689,
AFNE01.JPG,AFNE01.JPG,AFNE01.JPG,AFNE01.JPG,AFNE01.JPG,AFNE01.JPG,,,,,0,6,6,5,,,,,,,,,,,,,,,,,,,AMNE09.jpg,AMNE06.jpg,AMSA09.jpg,AMSA08.jpg,AMSA08.jpg,MS,2,num_4,32,num_8,0.833430784638,,,2018_Feb_02_1754,60.0037913883,FEMA4ImagesEEG,001,202689,
AFNE01.JPG,AFNE01.JPG,AFNE01.JPG,AFNE01.JPG,AFNE01.JPG,AFNE01.JPG,,,,,0,7,7,9,,,,,,,,,,,,,,,,,,,AMNE20.jpg,AMSA04.jpg,AMSA03.jpg,AMNE10.jpg,AMNE20.jpg,MN,1,num_8,32,num_4,0.833392295986,,,2018_Feb_02_1754,60.0037913883,FEMA4ImagesEEG,001,202689,
AFNE01.JPG,AFNE01.JPG,AFNE01.JPG,AFNE01.JPG,AFNE01.JPG,AFNE01.JPG,,,,,0,8,8,7,,,,,,,,,,,,,,,,,,,AMNE01.jpg,AMNE04.jpg,AMSA08.jpg,AMSA05.jpg,AMNE01.jpg,MN,1,num_8,32,num_6,0.783491677023,,,2018_Feb_02_1754,60.0037913883,FEMA4ImagesEEG,001,202689,
AFNE01.JPG,AFNE01.JPG,AFNE01.JPG,AFNE01.JPG,AFNE01.JPG,AFNE01.JPG,,,,,0,9,9,2,,,,,,,,,,,,,,,,,,,AMSA10.jpg,AMSA19.jpg,AMNE14.jpg,AMNE04.jpg,AMSA19.jpg,MS,2,num_6,32,num_8,0.900183045887,,,2018_Feb_02_1754,60.0037913883,FEMA4ImagesEEG,001,202689,
AFNE01.JPG,AFNE01.JPG,AFNE01.JPG,AFNE01.JPG,AFNE01.JPG,AFNE01.JPG,,,,,1,0,10,2,,,,,,,,,,,,,,,,,,,AMSA20.jpg,AMSA10.jpg,AMNE03.jpg,AMNE15.jpg,AMNE03.jpg,MN,1,num_2,16,num_2,1.00019597181,,,2018_Feb_02_1754,60.0037913883,FEMA4ImagesEEG,001,202689,
AFNE01.JPG,AFNE01.JPG,AFNE01.JPG,AFNE01.JPG,AFNE01.JPG,AFNE01.JPG,,,,,1,1,11,1,,,,,,,,,,,,,,,,,,,AMNE03.jpg,AMSA07.jpg,AMSA03.jpg,AMNE15.jpg,AMSA07.jpg,MS,2,num_6,32,num_4,0.750097584911,,,2018_Feb_02_1754,60.0037913883,FEMA4ImagesEEG,001,202689,
AFNE01.JPG,AFNE01.JPG,AFNE01.JPG,AFNE01.JPG,AFNE01.JPG,AFNE01.JPG,,,,,1,2,12,7,,,,,,,,,,,,,,,,,,,AMNE19.jpg,AMNE04.jpg,AMSA04.jpg,AMSA06.jpg,AMSA06.jpg,MS,2,num_4,16,num_4,0.833522195346,,,2018_Feb_02_1754,60.0037913883,FEMA4ImagesEEG,001,202689,
AFNE01.JPG,AFNE01.JPG,AFNE01.JPG,AFNE01.JPG,AFNE01.JPG,AFNE01.JPG,,,,,1,3,13,4,,,,,,,,,,,,,,,,,,,AMNE18.jpg,AMSA02.jpg,AMNE16.jpg,AMSA05.jpg,AMNE16.jpg,MN,1,num_2,32,num_8,0.983471983578,,,2018_Feb_02_1754,60.0037913883,FEMA4ImagesEEG,001,202689,
AFNE01.JPG,AFNE01.JPG,AFNE01.JPG,AFNE01.JPG,AFNE01.JPG,AFNE01.JPG,,,,,1,4,14,0,,,,,,,,,,,,,,,,,,,AMNE05.jpg,AMSA19.jpg,AMSA14.jpg,AMNE18.jpg,AMSA19.jpg,MS,2,num_6,32,num_4,1.06660985295,,,2018_Feb_02_1754,60.0037913883,FEMA4ImagesEEG,001,202689,
AFNE01.JPG,AFNE01.JPG,AFNE01.JPG,AFNE01.JPG,AFNE01.JPG,AFNE01.JPG,,,,,1,5,15,3,,,,,,,,,,,,,,,,,,,AMNE06.jpg,AMSA15.jpg,AMNE01.jpg,AMSA11.jpg,AMNE01.jpg,MN,1,num_2,16,num_2,0.783448697883,,,2018_Feb_02_1754,60.0037913883,FEMA4ImagesEEG,001,202689,
AFNE01.JPG,AFNE01.JPG,AFNE01.JPG,AFNE01.JPG,AFNE01.JPG,AFNE01.JPG,,,,,1,6,16,6,,,,,,,,,,,,,,,,,,,AMSA01.jpg,AMSA09.jpg,AMNE07.jpg,AMNE09.jpg,AMNE09.jpg,MN,1,num_4,32,num_6,1.34995382954,,,2018_Feb_02_1754,60.0037913883,FEMA4ImagesEEG,001,202689,
AFNE01.JPG,AFNE01.JPG,AFNE01.JPG,AFNE01.JPG,AFNE01.JPG,AFNE01.JPG,,,,,1,7,17,8,,,,,,,,,,,,,,,,,,,AMNE04.jpg,AMSA20.jpg,AMNE07.jpg,AMSA17.jpg,AMNE07.jpg,MN,1,num_2,32,num_8,1.00016036956,,,2018_Feb_02_1754,60.0037913883,FEMA4ImagesEEG,001,202689,
AFNE01.JPG,AFNE01.JPG,AFNE01.JPG,AFNE01.JPG,AFNE01.JPG,AFNE01.JPG,,,,,1,8,18,5,,,,,,,,,,,,,,,,,,,AMNE09.jpg,AMSA01.jpg,AMNE06.jpg,AMSA03.jpg,AMSA01.jpg,MS,2,num_6,16,num_6,0.883224918158,,,2018_Feb_02_1754,60.0037913883,FEMA4ImagesEEG,001,202689,
AFNE01.JPG,AFNE01.JPG,AFNE01.JPG,AFNE01.JPG,AFNE01.JPG,AFNE01.JPG,,,,,1,9,19,9,,,,,,,,,,,,,,,,,,,AMSA02.jpg,AMNE11.jpg,AMNE04.jpg,AMSA15.jpg,AMSA15.jpg,MS,2,num_4,16,num_4,0.9001551416,,,2018_Feb_02_1754,60.0037913883,FEMA4ImagesEEG,001,202689,
AFNE01.JPG,AFNE01.JPG,AFNE01.JPG,AFNE01.JPG,AFNE01.JPG,AFNE01.JPG,,,,,2,0,20,5,,,,,,,,,,,,,,,,,,,AMSA15.jpg,AMNE02.jpg,AMNE20.jpg,AMSA18.jpg,AMNE02.jpg,MN,1,num_6,16,num_6,0.866756879957,,,2018_Feb_02_1754,60.0037913883,FEMA4ImagesEEG,001,202689,
AFNE01.JPG,AFNE01.JPG,AFNE01.JPG,AFNE01.JPG,AFNE01.JPG,AFNE01.JPG,,,,,2,1,21,8,,,,,,,,,,,,,,,,,,,AMSA17.jpg,AMSA20.jpg,AMNE02.jpg,AMNE19.jpg,AMNE19.jpg,MN,1,num_4,16,num_4,0.733446725411,,,2018_Feb_02_1754,60.0037913883,FEMA4ImagesEEG,001,202689,
AFNE01.JPG,AFNE01.JPG,AFNE01.JPG,AFNE01.JPG,AFNE01.JPG,AFNE01.JPG,,,,,2,2,22,2,,,,,,,,,,,,,,,,,,,AMSA13.jpg,AMNE19.jpg,AMNE06.jpg,AMSA17.jpg,AMNE06.jpg,MN,1,num_2,16,num_2,0.916785473819,,,2018_Feb_02_1754,60.0037913883,FEMA4ImagesEEG,001,202689,
AFNE01.JPG,AFNE01.JPG,AFNE01.JPG,AFNE01.JPG,AFNE01.JPG,AFNE01.JPG,,,,,2,3,23,1,,,,,,,,,,,,,,,,,,,AMSA09.jpg,AMNE16.jpg,AMSA08.jpg,AMNE02.jpg,AMSA09.jpg,MS,2,num_8,16,num_8,0.883417682373,,,2018_Feb_02_1754,60.0037913883,FEMA4ImagesEEG,001,202689,
AFNE01.JPG,AFNE01.JPG,AFNE01.JPG,AFNE01.JPG,AFNE01.JPG,AFNE01.JPG,,,,,2,4,24,9,,,,,,,,,,,,,,,,,,,AMSA18.jpg,AMNE03.jpg,AMNE14.jpg,AMSA06.jpg,AMSA18.jpg,MS,2,num_8,16,num_8,1.0334646547,,,2018_Feb_02_1754,60.0037913883,FEMA4ImagesEEG,001,202689,
AFNE01.JPG,AFNE01.JPG,AFNE01.JPG,AFNE01.JPG,AFNE01.JPG,AFNE01.JPG,,,,,2,5,25,4,,,,,,,,,,,,,,,,,,,AMNE11.jpg,AMSA14.jpg,AMNE20.jpg,AMSA05.jpg,AMSA05.jpg,MS,2,num_4,16,num_4,1.15021856781,,,2018_Feb_02_1754,60.0037913883,FEMA4ImagesEEG,001,202689,
AFNE01.JPG,AFNE01.JPG,AFNE01.JPG,AFNE01.JPG,AFNE01.JPG,AFNE01.JPG,,,,,2,6,26,7,,,,,,,,,,,,,,,,,,,AMNE06.jpg,AMNE02.jpg,AMSA18.jpg,AMSA02.jpg,AMSA02.jpg,MS,2,num_4,32,num_6,0.80016723345,,,2018_Feb_02_1754,60.0037913883,FEMA4ImagesEEG,001,202689,
AFNE01.JPG,AFNE01.JPG,AFNE01.JPG,AFNE01.JPG,AFNE01.JPG,AFNE01.JPG,,,,,2,7,27,0,,,,,,,,,,,,,,,,,,,AMNE12.jpg,AMSA07.jpg,AMNE04.jpg,AMSA04.jpg,AMSA07.jpg,MS,2,num_6,32,num_8,1.11673146137,,,2018_Feb_02_1754,60.0037913883,FEMA4ImagesEEG,001,202689,
AFNE01.JPG,AFNE01.JPG,AFNE01.JPG,AFNE01.JPG,AFNE01.JPG,AFNE01.JPG,,,,,2,8,28,6,,,,,,,,,,,,,,,,,,,AMNE12.jpg,AMSA02.jpg,AMNE01.jpg,AMSA03.jpg,AMSA03.jpg,MS,2,num_4,16,num_4,0.983416174888,,,2018_Feb_02_1754,60.0037913883,FEMA4ImagesEEG,001,202689,
AFNE01.JPG,AFNE01.JPG,AFNE01.JPG,AFNE01.JPG,AFNE01.JPG,AFNE01.JPG,,,,,2,9,29,3,,,,,,,,,,,,,,,,,,,AMNE11.jpg,AMSA04.jpg,AMNE04.jpg,AMSA07.jpg,AMNE04.jpg,MN,1,num_2,32,num_6,0.950154548278,,,2018_Feb_02_1754,60.0037913883,FEMA4ImagesEEG,001,202689,
AFNE01.JPG,AFNE01.JPG,AFNE01.JPG,AFNE01.JPG,AFNE01.JPG,AFNE01.JPG,,,,,3,0,30,8,,,,,,,,,,,,,,,,,,,AMSA12.jpg,AMNE14.jpg,AMNE01.jpg,AMSA03.jpg,AMSA12.jpg,MS,2,num_8,16,num_8,0.766791102826,,,2018_Feb_02_1754,60.0037913883,FEMA4ImagesEEG,001,202689,
AFNE01.JPG,AFNE01.JPG,AFNE01.JPG,AFNE01.JPG,AFNE01.JPG,AFNE01.JPG,,,,,3,1,31,1,,,,,,,,,,,,,,,,,,,AMSA01.jpg,AMNE10.jpg,AMSA05.jpg,AMNE12.jpg,AMNE10.jpg,MN,1,num_6,32,num_2,1.0168394543,,,2018_Feb_02_1754,60.0037913883,FEMA4ImagesEEG,001,202689,
AFNE01.JPG,AFNE01.JPG,AFNE01.JPG,AFNE01.JPG,AFNE01.JPG,AFNE01.JPG,,,,,3,2,32,9,,,,,,,,,,,,,,,,,,,AMSA13.jpg,AMSA16.jpg,AMNE13.jpg,AMNE20.jpg,AMNE20.jpg,MN,1,num_4,16,num_4,0.866875232779,,,2018_Feb_02_1754,60.0037913883,FEMA4ImagesEEG,001,202689,
AFNE01.JPG,AFNE01.JPG,AFNE01.JPG,AFNE01.JPG,AFNE01.JPG,AFNE01.JPG,,,,,3,3,33,0,,,,,,,,,,,,,,,,,,,AMSA12.jpg,AMSA04.jpg,AMNE04.jpg,AMNE06.jpg,AMSA12.jpg,MS,2,num_8,16,num_8,0.633467477164,,,2018_Feb_02_1754,60.0037913883,FEMA4ImagesEEG,001,202689,
AFNE01.JPG,AFNE01.JPG,AFNE01.JPG,AFNE01.JPG,AFNE01.JPG,AFNE01.JPG,,,,,3,4,34,4,,,,,,,,,,,,,,,,,,,AMSA10.jpg,AMNE12.jpg,AMSA07.jpg,AMNE20.jpg,AMNE12.jpg,MN,1,num_6,16,num_6,0.816767095588,,,2018_Feb_02_1754,60.0037913883,FEMA4ImagesEEG,001,202689,
AFNE01.JPG,AFNE01.JPG,AFNE01.JPG,AFNE01.JPG,AFNE01.JPG,AFNE01.JPG,,,,,3,5,35,3,,,,,,,,,,,,,,,,,,,AMSA11.jpg,AMNE12.jpg,AMNE11.jpg,AMSA10.jpg,AMSA10.jpg,MS,2,num_4,32,num_8,0.816799810971,,,2018_Feb_02_1754,60.0037913883,FEMA4ImagesEEG,001,202689,
AFNE01.JPG,AFNE01.JPG,AFNE01.JPG,AFNE01.JPG,AFNE01.JPG,AFNE01.JPG,,,,,3,6,36,6,,,,,,,,,,,,,,,,,,,AMNE15.jpg,AMSA06.jpg,AMNE17.jpg,AMSA03.jpg,AMSA03.jpg,MS,2,num_4,32,num_2,0.950153265265,,,2018_Feb_02_1754,60.0037913883,FEMA4ImagesEEG,001,202689,
AFNE01.JPG,AFNE01.JPG,AFNE01.JPG,AFNE01.JPG,AFNE01.JPG,AFNE01.JPG,,,,,3,7,37,7,,,,,,,,,,,,,,,,,,,AMSA04.jpg,AMNE12.jpg,AMNE17.jpg,AMSA13.jpg,AMNE17.jpg,MN,1,num_2,32,num_4,0.783444849076,,,2018_Feb_02_1754,60.0037913883,FEMA4ImagesEEG,001,202689,
AFNE01.JPG,AFNE01.JPG,AFNE01.JPG,AFNE01.JPG,AFNE01.JPG,AFNE01.JPG,,,,,3,8,38,2,,,,,,,,,,,,,,,,,,,AMNE03.jpg,AMSA11.jpg,AMNE02.jpg,AMSA14.jpg,AMSA11.jpg,MS,2,num_6,32,num_8,0.600110911648,,,2018_Feb_02_1754,60.0037913883,FEMA4ImagesEEG,001,202689,
AFNE01.JPG,AFNE01.JPG,AFNE01.JPG,AFNE01.JPG,AFNE01.JPG,AFNE01.JPG,,,,,3,9,39,5,,,,,,,,,,,,,,,,,,,AMNE20.jpg,AMSA12.jpg,AMNE02.jpg,AMSA09.jpg,AMSA12.jpg,MS,2,num_6,32,num_4,1.53341061017,,,2018_Feb_02_1754,60.0037913883,FEMA4ImagesEEG,001,202689,
AFNE01.JPG,AFNE01.JPG,AFNE01.JPG,AFNE01.JPG,AFNE01.JPG,AFNE01.JPG,,,,,4,0,40,2,,,,,,,,,,,,,,,,,,,AMNE06.jpg,AMNE17.jpg,AMSA16.jpg,AMSA03.jpg,AMNE06.jpg,MN,1,num_8,32,num_6,1.26668445696,,,2018_Feb_02_1754,60.0037913883,FEMA4ImagesEEG,001,202689,
AFNE01.JPG,AFNE01.JPG,AFNE01.JPG,AFNE01.JPG,AFNE01.JPG,AFNE01.JPG,,,,,4,1,41,8,,,,,,,,,,,,,,,,,,,AMNE06.jpg,AMSA14.jpg,AMNE07.jpg,AMSA17.jpg,AMNE07.jpg,MN,1,num_2,32,num_8,0.716801639181,,,2018_Feb_02_1754,60.0037913883,FEMA4ImagesEEG,001,202689,
AFNE01.JPG,AFNE01.JPG,AFNE01.JPG,AFNE01.JPG,AFNE01.JPG,AFNE01.JPG,,,,,4,2,42,7,,,,,,,,,,,,,,,,,,,AMNE20.jpg,AMSA01.jpg,AMSA06.jpg,AMNE18.jpg,AMSA06.jpg,MS,2,num_2,32,num_8,1.58322847832,,,2018_Feb_02_1754,60.0037913883,FEMA4ImagesEEG,001,202689,
AFNE01.JPG,AFNE01.JPG,AFNE01.JPG,AFNE01.JPG,AFNE01.JPG,AFNE01.JPG,,,,,4,3,43,3,,,,,,,,,,,,,,,,,,,AMNE20.jpg,AMSA05.jpg,AMSA15.jpg,AMNE06.jpg,AMNE20.jpg,MN,1,num_8,32,num_4,1.00017833104,,,2018_Feb_02_1754,60.0037913883,FEMA4ImagesEEG,001,202689,
AFNE01.JPG,AFNE01.JPG,AFNE01.JPG,AFNE01.JPG,AFNE01.JPG,AFNE01.JPG,,,,,4,4,44,5,,,,,,,,,,,,,,,,,,,AMSA06.jpg,AMNE11.jpg,AMNE19.jpg,AMSA13.jpg,AMSA13.jpg,MS,2,num_4,32,num_8,0.766813233844,,,2018_Feb_02_1754,60.0037913883,FEMA4ImagesEEG,001,202689,
AFNE01.JPG,AFNE01.JPG,AFNE01.JPG,AFNE01.JPG,AFNE01.JPG,AFNE01.JPG,,,,,4,5,45,1,,,,,,,,,,,,,,,,,,,AMSA01.jpg,AMNE13.jpg,AMNE09.jpg,AMSA16.jpg,AMNE09.jpg,MN,1,num_2,32,num_6,1.15009091364,,,2018_Feb_02_1754,60.0037913883,FEMA4ImagesEEG,001,202689,
AFNE01.JPG,AFNE01.JPG,AFNE01.JPG,AFNE01.JPG,AFNE01.JPG,AFNE01.JPG,,,,,4,6,46,4,,,,,,,,,,,,,,,,,,,AMNE17.jpg,AMNE07.jpg,AMSA12.jpg,AMSA07.jpg,AMNE17.jpg,MN,1,num_8,32,num_4,0.983449531836,,,2018_Feb_02_1754,60.0037913883,FEMA4ImagesEEG,001,202689,
AFNE01.JPG,AFNE01.JPG,AFNE01.JPG,AFNE01.JPG,AFNE01.JPG,AFNE01.JPG,,,,,4,7,47,0,,,,,,,,,,,,,,,,,,,AMSA19.jpg,AMSA10.jpg,AMNE15.jpg,AMNE17.jpg,AMNE15.jpg,MN,1,num_2,32,num_6,0.750169109786,,,2018_Feb_02_1754,60.0037913883,FEMA4ImagesEEG,001,202689,
AFNE01.JPG,AFNE01.JPG,AFNE01.JPG,AFNE01.JPG,AFNE01.JPG,AFNE01.JPG,,,,,4,8,48,6,,,,,,,,,,,,,,,,,,,AMSA03.jpg,AMNE12.jpg,AMSA20.jpg,AMNE05.jpg,AMNE05.jpg,MN,1,num_4,32,num_8,0.78350065765,,,2018_Feb_02_1754,60.0037913883,FEMA4ImagesEEG,001,202689,
AFNE01.JPG,AFNE01.JPG,AFNE01.JPG,AFNE01.JPG,AFNE01.JPG,AFNE01.JPG,,,,,4,9,49,9,,,,,,,,,,,,,,,,,,,AMSA16.jpg,AMNE08.jpg,AMNE01.jpg,AMSA18.jpg,AMSA18.jpg,MS,2,num_4,32,num_8,1.11678823223,,,2018_Feb_02_1754,60.0037913883,FEMA4ImagesEEG,001,202689,
AFNE01.JPG,AFNE01.JPG,AFNE01.JPG,AFNE01.JPG,AFNE01.JPG,AFNE01.JPG,,,,,5,0,50,7,,,,,,,,,,,,,,,,,,,AMNE19.jpg,AMSA04.jpg,AMSA03.jpg,AMNE13.jpg,AMSA04.jpg,MS,2,num_6,32,num_2,0.966814388405,,,2018_Feb_02_1754,60.0037913883,FEMA4ImagesEEG,001,202689,
AFNE01.JPG,AFNE01.JPG,AFNE01.JPG,AFNE01.JPG,AFNE01.JPG,AFNE01.JPG,,,,,5,1,51,3,,,,,,,,,,,,,,,,,,,AMSA08.jpg,AMNE13.jpg,AMNE08.jpg,AMSA18.jpg,AMNE08.jpg,MN,1,num_2,32,num_8,0.700109083438,,,2018_Feb_02_1754,60.0037913883,FEMA4ImagesEEG,001,202689,
AFNE01.JPG,AFNE01.JPG,AFNE01.JPG,AFNE01.JPG,AFNE01.JPG,AFNE01.JPG,,,,,5,2,52,1,,,,,,,,,,,,,,,,,,,AMSA02.jpg,AMSA17.jpg,AMNE01.jpg,AMNE07.jpg,AMSA02.jpg,MS,2,num_8,32,num_6,0.750143450685,,,2018_Feb_02_1754,60.0037913883,FEMA4ImagesEEG,001,202689,
AFNE01.JPG,AFNE01.JPG,AFNE01.JPG,AFNE01.JPG,AFNE01.JPG,AFNE01.JPG,,,,,5,3,53,2,,,,,,,,,,,,,,,,,,,AMNE19.jpg,AMNE16.jpg,AMSA02.jpg,AMSA15.jpg,AMSA15.jpg,MS,2,num_4,16,num_4,0.666800628765,,,2018_Feb_02_1754,60.0037913883,FEMA4ImagesEEG,001,202689,
AFNE01.JPG,AFNE01.JPG,AFNE01.JPG,AFNE01.JPG,AFNE01.JPG,AFNE01.JPG,,,,,5,4,54,9,,,,,,,,,,,,,,,,,,,AMNE07.jpg,AMSA05.jpg,AMSA03.jpg,AMNE02.jpg,AMSA03.jpg,MS,2,num_2,32,num_4,0.866797934519,,,2018_Feb_02_1754,60.0037913883,FEMA4ImagesEEG,001,202689,
AFNE01.JPG,AFNE01.JPG,AFNE01.JPG,AFNE01.JPG,AFNE01.JPG,AFNE01.JPG,,,,,5,5,55,8,,,,,,,,,,,,,,,,,,,AMNE09.jpg,AMSA08.jpg,AMSA01.jpg,AMNE04.jpg,AMSA08.jpg,MS,2,num_6,16,num_6,0.817062175716,,,2018_Feb_02_1754,60.0037913883,FEMA4ImagesEEG,001,202689,
AFNE01.JPG,AFNE01.JPG,AFNE01.JPG,AFNE01.JPG,AFNE01.JPG,AFNE01.JPG,,,,,5,6,56,4,,,,,,,,,,,,,,,,,,,AMNE13.jpg,AMNE09.jpg,AMSA17.jpg,AMSA04.jpg,AMSA17.jpg,MS,2,num_2,32,num_4,0.866774841328,,,2018_Feb_02_1754,60.0037913883,FEMA4ImagesEEG,001,202689,
AFNE01.JPG,AFNE01.JPG,AFNE01.JPG,AFNE01.JPG,AFNE01.JPG,AFNE01.JPG,,,,,5,7,57,5,,,,,,,,,,,,,,,,,,,AMSA01.jpg,AMSA10.jpg,AMNE14.jpg,AMNE10.jpg,AMNE14.jpg,MN,1,num_2,16,num_2,0.933508179034,,,2018_Feb_02_1754,60.0037913883,FEMA4ImagesEEG,001,202689,
AFNE01.JPG,AFNE01.JPG,AFNE01.JPG,AFNE01.JPG,AFNE01.JPG,AFNE01.JPG,,,,,5,8,58,0,,,,,,,,,,,,,,,,,,,AMSA11.jpg,AMSA09.jpg,AMNE17.jpg,AMNE18.jpg,AMNE17.jpg,MN,1,num_2,32,num_6,1.05022681085,,,2018_Feb_02_1754,60.0037913883,FEMA4ImagesEEG,001,202689,
AFNE01.JPG,AFNE01.JPG,AFNE01.JPG,AFNE01.JPG,AFNE01.JPG,AFNE01.JPG,,,,,5,9,59,6,,,,,,,,,,,,,,,,,,,AMSA07.jpg,AMNE20.jpg,AMSA20.jpg,AMNE16.jpg,AMNE20.jpg,MN,1,num_6,32,num_8,0.950179565931,,,2018_Feb_02_1754,60.0037913883,FEMA4ImagesEEG,001,202689,
,,,,,,,,,,,,,,,,,,,,,,,,,,,,,,,,,,,,,,,,,,,space,2.38328409439,2018_Feb_02_1754,60.0037913883,FEMA4ImagesEEG,001,202689,
AFNE01.JPG,AFNE01.JPG,AFNE01.JPG,AFNE01.JPG,AFNE01.JPG,AFNE01.JPG,,,,,,,,,0,0,0,6,,,,,,,,,,,,,,,AFSA02.jpg,AFSA09.jpg,AFNE02.jpg,AFNE03.jpg,AFSA09.jpg,FS,4,num_6,32,num_4,0.883456812706,,,2018_Feb_02_1754,60.0037913883,FEMA4ImagesEEG,001,202689,
AFNE01.JPG,AFNE01.JPG,AFNE01.JPG,AFNE01.JPG,AFNE01.JPG,AFNE01.JPG,,,,,,,,,0,1,1,8,,,,,,,,,,,,,,,AFSA06.jpg,AFSA18.jpg,AFNE15.jpg,AFNE05.jpg,AFSA18.jpg,FS,4,num_6,16,num_6,0.950134020881,,,2018_Feb_02_1754,60.0037913883,FEMA4ImagesEEG,001,202689,
AFNE01.JPG,AFNE01.JPG,AFNE01.JPG,AFNE01.JPG,AFNE01.JPG,AFNE01.JPG,,,,,,,,,0,2,2,5,,,,,,,,,,,,,,,AFNE04.jpg,AFNE03.jpg,AFSA12.jpg,AFSA06.jpg,AFNE03.jpg,FN,3,num_6,32,num_4,0.70013506338,,,2018_Feb_02_1754,60.0037913883,FEMA4ImagesEEG,001,202689,
AFNE01.JPG,AFNE01.JPG,AFNE01.JPG,AFNE01.JPG,AFNE01.JPG,AFNE01.JPG,,,,,,,,,0,3,3,0,,,,,,,,,,,,,,,AFSA10.jpg,AFNE05.jpg,AFSA16.jpg,AFNE12.jpg,AFSA16.jpg,FS,4,num_2,32,num_8,1.00015523785,,,2018_Feb_02_1754,60.0037913883,FEMA4ImagesEEG,001,202689,
AFNE01.JPG,AFNE01.JPG,AFNE01.JPG,AFNE01.JPG,AFNE01.JPG,AFNE01.JPG,,,,,,,,,0,4,4,9,,,,,,,,,,,,,,,AFSA07.jpg,AFNE01.jpg,AFSA10.jpg,AFNE12.jpg,AFSA10.jpg,FS,4,num_2,16,num_2,1.01667619799,,,2018_Feb_02_1754,60.0037913883,FEMA4ImagesEEG,001,202689,
AFNE01.JPG,AFNE01.JPG,AFNE01.JPG,AFNE01.JPG,AFNE01.JPG,AFNE01.JPG,,,,,,,,,0,5,5,3,,,,,,,,,,,,,,,AFNE07.jpg,AFSA08.jpg,AFNE06.jpg,AFSA12.jpg,AFNE07.jpg,FN,3,num_8,16,num_8,0.550160898827,,,2018_Feb_02_1754,60.0037913883,FEMA4ImagesEEG,001,202689,
AFNE01.JPG,AFNE01.JPG,AFNE01.JPG,AFNE01.JPG,AFNE01.JPG,AFNE01.JPG,,,,,,,,,0,6,6,1,,,,,,,,,,,,,,,AFSA17.jpg,AFNE14.jpg,AFSA20.jpg,AFNE13.jpg,AFNE14.jpg,FN,3,num_6,32,num_4,1.16673856566,,,2018_Feb_02_1754,60.0037913883,FEMA4ImagesEEG,001,202689,
AFNE01.JPG,AFNE01.JPG,AFNE01.JPG,AFNE01.JPG,AFNE01.JPG,AFNE01.JPG,,,,,,,,,0,7,7,2,,,,,,,,,,,,,,,AFNE14.jpg,AFSA10.jpg,AFNE08.jpg,AFSA01.jpg,AFSA10.jpg,FS,4,num_6,16,num_6,0.733492591069,,,2018_Feb_02_1754,60.0037913883,FEMA4ImagesEEG,001,202689,
AFNE01.JPG,AFNE01.JPG,AFNE01.JPG,AFNE01.JPG,AFNE01.JPG,AFNE01.JPG,,,,,,,,,0,8,8,4,,,,,,,,,,,,,,,AFNE08.jpg,AFNE10.jpg,AFSA15.jpg,AFSA02.jpg,AFSA15.jpg,FS,4,num_2,32,num_6,0.816823224886,,,2018_Feb_02_1754,60.0037913883,FEMA4ImagesEEG,001,202689,
AFNE01.JPG,AFNE01.JPG,AFNE01.JPG,AFNE01.JPG,AFNE01.JPG,AFNE01.JPG,,,,,,,,,0,9,9,7,,,,,,,,,,,,,,,AFSA06.jpg,AFSA07.jpg,AFNE14.jpg,AFNE03.jpg,AFNE03.jpg,FN,3,num_4,32,num_8,0.93354955432,,,2018_Feb_02_1754,60.0037913883,FEMA4ImagesEEG,001,202689,
AFNE01.JPG,AFNE01.JPG,AFNE01.JPG,AFNE01.JPG,AFNE01.JPG,AFNE01.JPG,,,,,,,,,1,0,10,6,,,,,,,,,,,,,,,AFNE02.jpg,AFSA04.jpg,AFNE16.jpg,AFSA09.jpg,AFSA04.jpg,FS,4,num_6,32,num_4,0.733432933572,,,2018_Feb_02_1754,60.0037913883,FEMA4ImagesEEG,001,202689,
AFNE01.JPG,AFNE01.JPG,AFNE01.JPG,AFNE01.JPG,AFNE01.JPG,AFNE01.JPG,,,,,,,,,1,1,11,7,,,,,,,,,,,,,,,AFNE20.jpg,AFSA11.jpg,AFNE14.jpg,AFSA16.jpg,AFSA11.jpg,FS,4,num_6,16,num_6,0.7167192091,,,2018_Feb_02_1754,60.0037913883,FEMA4ImagesEEG,001,202689,
AFNE01.JPG,AFNE01.JPG,AFNE01.JPG,AFNE01.JPG,AFNE01.JPG,AFNE01.JPG,,,,,,,,,1,2,12,9,,,,,,,,,,,,,,,AFSA18.jpg,AFSA04.jpg,AFNE08.jpg,AFNE18.jpg,AFNE18.jpg,FN,3,num_4,16,num_4,0.800250946428,,,2018_Feb_02_1754,60.0037913883,FEMA4ImagesEEG,001,202689,
AFNE01.JPG,AFNE01.JPG,AFNE01.JPG,AFNE01.JPG,AFNE01.JPG,AFNE01.JPG,,,,,,,,,1,3,13,4,,,,,,,,,,,,,,,AFNE09.jpg,AFSA13.jpg,AFNE18.jpg,AFSA18.jpg,AFNE09.jpg,FN,3,num_8,16,num_8,0.766808422748,,,2018_Feb_02_1754,60.0037913883,FEMA4ImagesEEG,001,202689,
AFNE01.JPG,AFNE01.JPG,AFNE01.JPG,AFNE01.JPG,AFNE01.JPG,AFNE01.JPG,,,,,,,,,1,4,14,5,,,,,,,,,,,,,,,AFSA08.jpg,AFNE01.jpg,AFNE02.jpg,AFSA09.jpg,AFSA09.jpg,FS,4,num_4,32,num_8,1.06652421574,,,2018_Feb_02_1754,60.0037913883,FEMA4ImagesEEG,001,202689,
AFNE01.JPG,AFNE01.JPG,AFNE01.JPG,AFNE01.JPG,AFNE01.JPG,AFNE01.JPG,,,,,,,,,1,5,15,3,,,,,,,,,,,,,,,AFSA12.jpg,AFNE17.jpg,AFNE10.jpg,AFSA03.jpg,AFSA12.jpg,FS,4,num_8,32,num_2,0.833453557105,,,2018_Feb_02_1754,60.0037913883,FEMA4ImagesEEG,001,202689,
AFNE01.JPG,AFNE01.JPG,AFNE01.JPG,AFNE01.JPG,AFNE01.JPG,AFNE01.JPG,,,,,,,,,1,6,16,1,,,,,,,,,,,,,,,AFNE12.jpg,AFSA05.jpg,AFSA07.jpg,AFNE10.jpg,AFNE10.jpg,FN,3,num_4,32,num_8,0.733506062068,,,2018_Feb_02_1754,60.0037913883,FEMA4ImagesEEG,001,202689,
AFNE01.JPG,AFNE01.JPG,AFNE01.JPG,AFNE01.JPG,AFNE01.JPG,AFNE01.JPG,,,,,,,,,1,7,17,0,,,,,,,,,,,,,,,AFSA20.jpg,AFNE14.jpg,AFNE06.jpg,AFSA02.jpg,AFNE06.jpg,FN,3,num_2,32,num_6,0.783460885985,,,2018_Feb_02_1754,60.0037913883,FEMA4ImagesEEG,001,202689,
AFNE01.JPG,AFNE01.JPG,AFNE01.JPG,AFNE01.JPG,AFNE01.JPG,AFNE01.JPG,,,,,,,,,1,8,18,8,,,,,,,,,,,,,,,AFSA16.jpg,AFNE20.jpg,AFSA07.jpg,AFNE17.jpg,AFSA16.jpg,FS,4,num_8,32,num_4,0.65015746688,,,2018_Feb_02_1754,60.0037913883,FEMA4ImagesEEG,001,202689,
AFNE01.JPG,AFNE01.JPG,AFNE01.JPG,AFNE01.JPG,AFNE01.JPG,AFNE01.JPG,,,,,,,,,1,9,19,2,,,,,,,,,,,,,,,AFNE06.jpg,AFSA07.jpg,AFSA11.jpg,AFNE05.jpg,AFSA11.jpg,FS,4,num_2,16,num_2,0.883472528774,,,2018_Feb_02_1754,60.0037913883,FEMA4ImagesEEG,001,202689,
AFNE01.JPG,AFNE01.JPG,AFNE01.JPG,AFNE01.JPG,AFNE01.JPG,AFNE01.JPG,,,,,,,,,2,0,20,5,,,,,,,,,,,,,,,AFSA11.jpg,AFSA09.jpg,AFNE03.jpg,AFNE12.jpg,AFNE12.jpg,FN,3,num_4,16,num_4,0.900162839331,,,2018_Feb_02_1754,60.0037913883,FEMA4ImagesEEG,001,202689,
AFNE01.JPG,AFNE01.JPG,AFNE01.JPG,AFNE01.JPG,AFNE01.JPG,AFNE01.JPG,,,,,,,,,2,1,21,9,,,,,,,,,,,,,,,AFSA15.jpg,AFNE12.jpg,AFSA06.jpg,AFNE20.jpg,AFSA06.jpg,FS,4,num_2,32,num_8,1.0501386075,,,2018_Feb_02_1754,60.0037913883,FEMA4ImagesEEG,001,202689,
AFNE01.JPG,AFNE01.JPG,AFNE01.JPG,AFNE01.JPG,AFNE01.JPG,AFNE01.JPG,,,,,,,,,2,2,22,6,,,,,,,,,,,,,,,AFNE13.jpg,AFSA18.jpg,AFSA15.jpg,AFNE16.jpg,AFNE13.jpg,FN,3,num_8,16,num_8,0.850127509912,,,2018_Feb_02_1754,60.0037913883,FEMA4ImagesEEG,001,202689,
AFNE01.JPG,AFNE01.JPG,AFNE01.JPG,AFNE01.JPG,AFNE01.JPG,AFNE01.JPG,,,,,,,,,2,3,23,2,,,,,,,,,,,,,,,AFSA06.jpg,AFNE05.jpg,AFSA16.jpg,AFNE13.jpg,AFNE13.jpg,FN,3,num_4,16,num_4,0.750205674092,,,2018_Feb_02_1754,60.0037913883,FEMA4ImagesEEG,001,202689,
AFNE01.JPG,AFNE01.JPG,AFNE01.JPG,AFNE01.JPG,AFNE01.JPG,AFNE01.JPG,,,,,,,,,2,4,24,8,,,,,,,,,,,,,,,AFNE03.jpg,AFSA15.jpg,AFSA03.jpg,AFNE09.jpg,AFNE09.jpg,FN,3,num_4,32,num_6,0.783485903754,,,2018_Feb_02_1754,60.0037913883,FEMA4ImagesEEG,001,202689,
AFNE01.JPG,AFNE01.JPG,AFNE01.JPG,AFNE01.JPG,AFNE01.JPG,AFNE01.JPG,,,,,,,,,2,5,25,1,,,,,,,,,,,,,,,AFNE10.jpg,AFSA16.jpg,AFSA02.jpg,AFNE04.jpg,AFNE04.jpg,FN,3,num_4,16,num_4,0.933413560968,,,2018_Feb_02_1754,60.0037913883,FEMA4ImagesEEG,001,202689,
AFNE01.JPG,AFNE01.JPG,AFNE01.JPG,AFNE01.JPG,AFNE01.JPG,AFNE01.JPG,,,,,,,,,2,6,26,0,,,,,,,,,,,,,,,AFNE14.jpg,AFNE16.jpg,AFSA17.jpg,AFSA07.jpg,AFNE14.jpg,FN,3,num_8,16,num_8,0.883458737051,,,2018_Feb_02_1754,60.0037913883,FEMA4ImagesEEG,001,202689,
AFNE01.JPG,AFNE01.JPG,AFNE01.JPG,AFNE01.JPG,AFNE01.JPG,AFNE01.JPG,,,,,,,,,2,7,27,3,,,,,,,,,,,,,,,AFSA03.jpg,AFNE16.jpg,AFNE01.jpg,AFSA07.jpg,AFNE01.jpg,FN,3,num_2,32,num_6,1.00010295736,,,2018_Feb_02_1754,60.0037913883,FEMA4ImagesEEG,001,202689,
AFNE01.JPG,AFNE01.JPG,AFNE01.JPG,AFNE01.JPG,AFNE01.JPG,AFNE01.JPG,,,,,,,,,2,8,28,7,,,,,,,,,,,,,,,AFNE12.jpg,AFNE01.jpg,AFSA16.jpg,AFSA17.jpg,AFNE01.jpg,FN,3,num_6,32,num_4,1.01677755162,,,2018_Feb_02_1754,60.0037913883,FEMA4ImagesEEG,001,202689,
AFNE01.JPG,AFNE01.JPG,AFNE01.JPG,AFNE01.JPG,AFNE01.JPG,AFNE01.JPG,,,,,,,,,2,9,29,4,,,,,,,,,,,,,,,AFNE20.jpg,AFNE01.jpg,AFSA04.jpg,AFSA09.jpg,AFNE20.jpg,FN,3,num_8,32,num_6,0.983476153226,,,2018_Feb_02_1754,60.0037913883,FEMA4ImagesEEG,001,202689,
AFNE01.JPG,AFNE01.JPG,AFNE01.JPG,AFNE01.JPG,AFNE01.JPG,AFNE01.JPG,,,,,,,,,3,0,30,6,,,,,,,,,,,,,,,AFNE02.jpg,AFSA13.jpg,AFSA04.jpg,AFNE12.jpg,AFSA13.jpg,FS,4,num_6,32,num_8,1.0501289852,,,2018_Feb_02_1754,60.0037913883,FEMA4ImagesEEG,001,202689,
AFNE01.JPG,AFNE01.JPG,AFNE01.JPG,AFNE01.JPG,AFNE01.JPG,AFNE01.JPG,,,,,,,,,3,1,31,0,,,,,,,,,,,,,,,AFSA14.jpg,AFNE05.jpg,AFSA10.jpg,AFNE10.jpg,AFNE05.jpg,FN,3,num_6,16,num_6,0.816785377567,,,2018_Feb_02_1754,60.0037913883,FEMA4ImagesEEG,001,202689,
AFNE01.JPG,AFNE01.JPG,AFNE01.JPG,AFNE01.JPG,AFNE01.JPG,AFNE01.JPG,,,,,,,,,3,2,32,5,,,,,,,,,,,,,,,AFSA10.jpg,AFNE20.jpg,AFSA17.jpg,AFNE03.jpg,AFSA17.jpg,FS,4,num_2,32,num_4,0.98350822716,,,2018_Feb_02_1754,60.0037913883,FEMA4ImagesEEG,001,202689,
AFNE01.JPG,AFNE01.JPG,AFNE01.JPG,AFNE01.JPG,AFNE01.JPG,AFNE01.JPG,,,,,,,,,3,3,33,3,,,,,,,,,,,,,,,AFNE04.jpg,AFSA09.jpg,AFSA04.jpg,AFNE07.jpg,AFNE07.jpg,FN,3,num_4,32,num_8,0.983515924891,,,2018_Feb_02_1754,60.0037913883,FEMA4ImagesEEG,001,202689,
AFNE01.JPG,AFNE01.JPG,AFNE01.JPG,AFNE01.JPG,AFNE01.JPG,AFNE01.JPG,,,,,,,,,3,4,34,4,,,,,,,,,,,,,,,AFNE14.jpg,AFSA04.jpg,AFNE06.jpg,AFSA06.jpg,AFSA04.jpg,FS,4,num_6,32,num_4,0.816847921815,,,2018_Feb_02_1754,60.0037913883,FEMA4ImagesEEG,001,202689,
AFNE01.JPG,AFNE01.JPG,AFNE01.JPG,AFNE01.JPG,AFNE01.JPG,AFNE01.JPG,,,,,,,,,3,5,35,8,,,,,,,,,,,,,,,AFNE04.jpg,AFSA20.jpg,AFNE06.jpg,AFSA19.jpg,AFSA19.jpg,FS,4,num_4,16,num_4,0.633481910452,,,2018_Feb_02_1754,60.0037913883,FEMA4ImagesEEG,001,202689,
AFNE01.JPG,AFNE01.JPG,AFNE01.JPG,AFNE01.JPG,AFNE01.JPG,AFNE01.JPG,,,,,,,,,3,6,36,2,,,,,,,,,,,,,,,AFNE20.jpg,AFNE03.jpg,AFSA20.jpg,AFSA16.jpg,AFSA20.jpg,FS,4,num_2,32,num_6,0.650183446822,,,2018_Feb_02_1754,60.0037913883,FEMA4ImagesEEG,001,202689,
AFNE01.JPG,AFNE01.JPG,AFNE01.JPG,AFNE01.JPG,AFNE01.JPG,AFNE01.JPG,,,,,,,,,3,7,37,7,,,,,,,,,,,,,,,AFSA16.jpg,AFSA10.jpg,AFNE11.jpg,AFNE19.jpg,AFSA16.jpg,FS,4,num_8,32,num_4,0.766792064998,,,2018_Feb_02_1754,60.0037913883,FEMA4ImagesEEG,001,202689,
AFNE01.JPG,AFNE01.JPG,AFNE01.JPG,AFNE01.JPG,AFNE01.JPG,AFNE01.JPG,,,,,,,,,3,8,38,1,,,,,,,,,,,,,,,AFSA20.jpg,AFSA18.jpg,AFNE03.jpg,AFNE01.jpg,AFNE01.jpg,FN,3,num_4,32,num_8,0.766879626899,,,2018_Feb_02_1754,60.0037913883,FEMA4ImagesEEG,001,202689,
AFNE01.JPG,AFNE01.JPG,AFNE01.JPG,AFNE01.JPG,AFNE01.JPG,AFNE01.JPG,,,,,,,,,3,9,39,9,,,,,,,,,,,,,,,AFNE12.jpg,AFSA03.jpg,AFNE20.jpg,AFSA09.jpg,AFNE12.jpg,FN,3,num_8,32,num_2,1.31676436914,,,2018_Feb_02_1754,60.0037913883,FEMA4ImagesEEG,001,202689,
AFNE01.JPG,AFNE01.JPG,AFNE01.JPG,AFNE01.JPG,AFNE01.JPG,AFNE01.JPG,,,,,,,,,4,0,40,9,,,,,,,,,,,,,,,AFSA11.jpg,AFNE07.jpg,AFNE11.jpg,AFSA01.jpg,AFNE11.jpg,FN,3,num_2,32,num_4,1.16671996284,,,2018_Feb_02_1754,60.0037913883,FEMA4ImagesEEG,001,202689,
AFNE01.JPG,AFNE01.JPG,AFNE01.JPG,AFNE01.JPG,AFNE01.JPG,AFNE01.JPG,,,,,,,,,4,1,41,3,,,,,,,,,,,,,,,AFNE03.jpg,AFSA13.jpg,AFSA06.jpg,AFNE15.jpg,AFNE03.jpg,FN,3,num_8,16,num_8,0.866784784244,,,2018_Feb_02_1754,60.0037913883,FEMA4ImagesEEG,001,202689,
AFNE01.JPG,AFNE01.JPG,AFNE01.JPG,AFNE01.JPG,AFNE01.JPG,AFNE01.JPG,,,,,,,,,4,2,42,8,,,,,,,,,,,,,,,AFSA01.jpg,AFNE06.jpg,AFNE17.jpg,AFSA10.jpg,AFSA01.jpg,FS,4,num_8,16,num_8,0.950120549765,,,2018_Feb_02_1754,60.0037913883,FEMA4ImagesEEG,001,202689,
AFNE01.JPG,AFNE01.JPG,AFNE01.JPG,AFNE01.JPG,AFNE01.JPG,AFNE01.JPG,,,,,,,,,4,3,43,7,,,,,,,,,,,,,,,AFSA08.jpg,AFNE16.jpg,AFSA11.jpg,AFNE09.jpg,AFSA11.jpg,FS,4,num_2,16,num_2,0.833416992915,,,2018_Feb_02_1754,60.0037913883,FEMA4ImagesEEG,001,202689,
AFNE01.JPG,AFNE01.JPG,AFNE01.JPG,AFNE01.JPG,AFNE01.JPG,AFNE01.JPG,,,,,,,,,4,4,44,6,,,,,,,,,,,,,,,AFNE13.jpg,AFSA07.jpg,AFNE08.jpg,AFSA12.jpg,AFSA12.jpg,FS,4,num_4,16,num_4,1.1167526301,,,2018_Feb_02_1754,60.0037913883,FEMA4ImagesEEG,001,202689,
AFNE01.JPG,AFNE01.JPG,AFNE01.JPG,AFNE01.JPG,AFNE01.JPG,AFNE01.JPG,,,,,,,,,4,5,45,1,,,,,,,,,,,,,,,AFNE10.jpg,AFSA09.jpg,AFNE02.jpg,AFSA03.jpg,AFNE02.jpg,FN,3,num_2,32,num_4,1.13344422367,,,2018_Feb_02_1754,60.0037913883,FEMA4ImagesEEG,001,202689,
AFNE01.JPG,AFNE01.JPG,AFNE01.JPG,AFNE01.JPG,AFNE01.JPG,AFNE01.JPG,,,,,,,,,4,6,46,5,,,,,,,,,,,,,,,AFSA07.jpg,AFSA10.jpg,AFNE10.jpg,AFNE17.jpg,AFSA07.jpg,FS,4,num_8,16,num_8,1.36674902181,,,2018_Feb_02_1754,60.0037913883,FEMA4ImagesEEG,001,202689,
AFNE01.JPG,AFNE01.JPG,AFNE01.JPG,AFNE01.JPG,AFNE01.JPG,AFNE01.JPG,,,,,,,,,4,7,47,0,,,,,,,,,,,,,,,AFNE14.jpg,AFSA15.jpg,AFNE12.jpg,AFSA06.jpg,AFNE14.jpg,FN,3,num_8,32,num_6,0.683456620201,,,2018_Feb_02_1754,60.0037913883,FEMA4ImagesEEG,001,202689,
AFNE01.JPG,AFNE01.JPG,AFNE01.JPG,AFNE01.JPG,AFNE01.JPG,AFNE01.JPG,,,,,,,,,4,8,48,2,,,,,,,,,,,,,,,AFSA07.jpg,AFNE13.jpg,AFSA06.jpg,AFNE03.jpg,AFSA07.jpg,FS,4,num_8,16,num_8,1.06663743663,,,2018_Feb_02_1754,60.0037913883,FEMA4ImagesEEG,001,202689,
AFNE01.JPG,AFNE01.JPG,AFNE01.JPG,AFNE01.JPG,AFNE01.JPG,AFNE01.JPG,,,,,,,,,4,9,49,4,,,,,,,,,,,,,,,AFNE17.jpg,AFNE07.jpg,AFSA19.jpg,AFSA06.jpg,AFSA06.jpg,FS,4,num_4,16,num_4,0.800123933703,,,2018_Feb_02_1754,60.0037913883,FEMA4ImagesEEG,001,202689,
AFNE01.JPG,AFNE01.JPG,AFNE01.JPG,AFNE01.JPG,AFNE01.JPG,AFNE01.JPG,,,,,,,,,5,0,50,0,,,,,,,,,,,,,,,AFNE19.jpg,AFSA07.jpg,AFNE03.jpg,AFSA10.jpg,AFNE19.jpg,FN,3,num_8,16,num_8,0.866788312444,,,2018_Feb_02_1754,60.0037913883,FEMA4ImagesEEG,001,202689,
AFNE01.JPG,AFNE01.JPG,AFNE01.JPG,AFNE01.JPG,AFNE01.JPG,AFNE01.JPG,,,,,,,,,5,1,51,1,,,,,,,,,,,,,,,AFSA14.jpg,AFSA19.jpg,AFNE10.jpg,AFNE15.jpg,AFNE15.jpg,FN,3,num_4,32,num_6,0.800402014633,,,2018_Feb_02_1754,60.0037913883,FEMA4ImagesEEG,001,202689,
AFNE01.JPG,AFNE01.JPG,AFNE01.JPG,AFNE01.JPG,AFNE01.JPG,AFNE01.JPG,,,,,,,,,5,2,52,9,,,,,,,,,,,,,,,AFNE11.jpg,AFSA15.jpg,AFNE14.jpg,AFSA13.jpg,AFNE11.jpg,FN,3,num_8,16,num_8,0.666789723677,,,2018_Feb_02_1754,60.0037913883,FEMA4ImagesEEG,001,202689,
AFNE01.JPG,AFNE01.JPG,AFNE01.JPG,AFNE01.JPG,AFNE01.JPG,AFNE01.JPG,,,,,,,,,5,3,53,4,,,,,,,,,,,,,,,AFNE11.jpg,AFSA08.jpg,AFSA06.jpg,AFNE06.jpg,AFSA06.jpg,FS,4,num_2,32,num_4,0.850128472201,,,2018_Feb_02_1754,60.0037913883,FEMA4ImagesEEG,001,202689,
AFNE01.JPG,AFNE01.JPG,AFNE01.JPG,AFNE01.JPG,AFNE01.JPG,AFNE01.JPG,,,,,,,,,5,4,54,7,,,,,,,,,,,,,,,AFNE07.jpg,AFSA11.jpg,AFSA01.jpg,AFNE11.jpg,AFNE11.jpg,FN,3,num_4,16,num_4,0.733495798544,,,2018_Feb_02_1754,60.0037913883,FEMA4ImagesEEG,001,202689,
AFNE01.JPG,AFNE01.JPG,AFNE01.JPG,AFNE01.JPG,AFNE01.JPG,AFNE01.JPG,,,,,,,,,5,5,55,6,,,,,,,,,,,,,,,AFNE12.jpg,AFSA10.jpg,AFNE11.jpg,AFSA12.jpg,AFSA12.jpg,FS,4,num_4,16,num_4,0.833463500021,,,2018_Feb_02_1754,60.0037913883,FEMA4ImagesEEG,001,202689,
AFNE01.JPG,AFNE01.JPG,AFNE01.JPG,AFNE01.JPG,AFNE01.JPG,AFNE01.JPG,,,,,,,,,5,6,56,5,,,,,,,,,,,,,,,AFNE18.jpg,AFSA05.jpg,AFSA14.jpg,AFNE17.jpg,AFNE17.jpg,FN,3,num_4,16,num_4,0.633509814856,,,2018_Feb_02_1754,60.0037913883,FEMA4ImagesEEG,001,202689,
AFNE01.JPG,AFNE01.JPG,AFNE01.JPG,AFNE01.JPG,AFNE01.JPG,AFNE01.JPG,,,,,,,,,5,7,57,3,,,,,,,,,,,,,,,AFSA17.jpg,AFNE14.jpg,AFNE04.jpg,AFSA10.jpg,AFSA17.jpg,FS,4,num_8,16,num_8,0.716802601353,,,2018_Feb_02_1754,60.0037913883,FEMA4ImagesEEG,001,202689,
AFNE01.JPG,AFNE01.JPG,AFNE01.JPG,AFNE01.JPG,AFNE01.JPG,AFNE01.JPG,,,,,,,,,5,8,58,2,,,,,,,,,,,,,,,AFNE19.jpg,AFNE01.jpg,AFSA12.jpg,AFSA02.jpg,AFSA12.jpg,FS,4,num_2,16,num_2,1.10011139279,,,2018_Feb_02_1754,60.0037913883,FEMA4ImagesEEG,001,202689,
AFNE01.JPG,AFNE01.JPG,AFNE01.JPG,AFNE01.JPG,AFNE01.JPG,AFNE01.JPG,,,,,,,,,5,9,59,8,,,,,,,,,,,,,,,AFNE12.jpg,AFNE10.jpg,AFSA13.jpg,AFSA12.jpg,AFSA13.jpg,FS,4,num_2,32,num_8,0.816611857736,,,2018_Feb_02_1754,60.0037913883,FEMA4ImagesEEG,001,202689,
,,,,,,,,,,,,,,,,,,,,,,,,,,,,,,,,,,,,,,,,,,,space,5.24945498374,2018_Feb_02_1754,60.0037913883,FEMA4ImagesEEG,001,202689,
AFNE01.JPG,AFNE01.JPG,AFNE01.JPG,AFNE01.JPG,AFNE01.JPG,AFNE01.JPG,,,,,,,,,,,,,0,0,0,6,,,,,,,,,,,AMSA10.jpg,AMNE02.jpg,AMNE09.jpg,AMSA02.jpg,AMNE09.jpg,MN,1,num_2,16,num_2,1.0501225706,,,2018_Feb_02_1754,60.0037913883,FEMA4ImagesEEG,001,202689,
AFNE01.JPG,AFNE01.JPG,AFNE01.JPG,AFNE01.JPG,AFNE01.JPG,AFNE01.JPG,,,,,,,,,,,,,0,1,1,8,,,,,,,,,,,AMSA09.jpg,AMSA10.jpg,AMNE02.jpg,AMNE03.jpg,AMSA10.jpg,MS,2,num_6,32,num_8,0.633469080902,,,2018_Feb_02_1754,60.0037913883,FEMA4ImagesEEG,001,202689,
AFNE01.JPG,AFNE01.JPG,AFNE01.JPG,AFNE01.JPG,AFNE01.JPG,AFNE01.JPG,,,,,,,,,,,,,0,2,2,5,,,,,,,,,,,AMNE12.jpg,AMSA18.jpg,AMSA16.jpg,AMNE02.jpg,AMNE12.jpg,MN,1,num_8,16,num_8,0.800187119283,,,2018_Feb_02_1754,60.0037913883,FEMA4ImagesEEG,001,202689,
AFNE01.JPG,AFNE01.JPG,AFNE01.JPG,AFNE01.JPG,AFNE01.JPG,AFNE01.JPG,,,,,,,,,,,,,0,3,3,1,,,,,,,,,,,AMNE07.jpg,AMNE10.jpg,AMSA12.jpg,AMSA02.jpg,AMSA02.jpg,MS,2,num_4,16,num_4,0.75011394266,,,2018_Feb_02_1754,60.0037913883,FEMA4ImagesEEG,001,202689,
AFNE01.JPG,AFNE01.JPG,AFNE01.JPG,AFNE01.JPG,AFNE01.JPG,AFNE01.JPG,,,,,,,,,,,,,0,4,4,3,,,,,,,,,,,AMSA13.jpg,AMSA02.jpg,AMNE20.jpg,AMNE06.jpg,AMNE20.jpg,MN,1,num_2,32,num_8,0.716772772605,,,2018_Feb_02_1754,60.0037913883,FEMA4ImagesEEG,001,202689,
AFNE01.JPG,AFNE01.JPG,AFNE01.JPG,AFNE01.JPG,AFNE01.JPG,AFNE01.JPG,,,,,,,,,,,,,0,5,5,2,,,,,,,,,,,AMNE15.jpg,AMNE07.jpg,AMSA04.jpg,AMSA19.jpg,AMNE07.jpg,MN,1,num_6,32,num_8,0.966792898951,,,2018_Feb_02_1754,60.0037913883,FEMA4ImagesEEG,001,202689,
AFNE01.JPG,AFNE01.JPG,AFNE01.JPG,AFNE01.JPG,AFNE01.JPG,AFNE01.JPG,,,,,,,,,,,,,0,6,6,4,,,,,,,,,,,AMSA05.jpg,AMNE09.jpg,AMSA10.jpg,AMNE20.jpg,AMNE20.jpg,MN,1,num_4,32,num_8,0.933483161265,,,2018_Feb_02_1754,60.0037913883,FEMA4ImagesEEG,001,202689,
AFNE01.JPG,AFNE01.JPG,AFNE01.JPG,AFNE01.JPG,AFNE01.JPG,AFNE01.JPG,,,,,,,,,,,,,0,7,7,9,,,,,,,,,,,AMSA03.jpg,AMNE07.jpg,AMNE05.jpg,AMSA10.jpg,AMNE07.jpg,MN,1,num_6,16,num_6,0.983442154829,,,2018_Feb_02_1754,60.0037913883,FEMA4ImagesEEG,001,202689,
AFNE01.JPG,AFNE01.JPG,AFNE01.JPG,AFNE01.JPG,AFNE01.JPG,AFNE01.JPG,,,,,,,,,,,,,0,8,8,7,,,,,,,,,,,AMNE11.jpg,AMSA07.jpg,AMSA18.jpg,AMNE13.jpg,AMSA18.jpg,MS,2,num_2,16,num_2,0.966805087053,,,2018_Feb_02_1754,60.0037913883,FEMA4ImagesEEG,001,202689,
AFNE01.JPG,AFNE01.JPG,AFNE01.JPG,AFNE01.JPG,AFNE01.JPG,AFNE01.JPG,,,,,,,,,,,,,0,9,9,0,,,,,,,,,,,AMNE02.jpg,AMSA12.jpg,AMSA10.jpg,AMNE09.jpg,AMSA12.jpg,MS,2,num_6,16,num_6,0.916774248006,,,2018_Feb_02_1754,60.0037913883,FEMA4ImagesEEG,001,202689,
AFNE01.JPG,AFNE01.JPG,AFNE01.JPG,AFNE01.JPG,AFNE01.JPG,AFNE01.JPG,,,,,,,,,,,,,1,0,10,4,,,,,,,,,,,AMNE04.jpg,AMSA05.jpg,AMNE09.jpg,AMSA07.jpg,AMNE09.jpg,MN,1,num_2,32,num_6,0.916772964993,,,2018_Feb_02_1754,60.0037913883,FEMA4ImagesEEG,001,202689,
AFNE01.JPG,AFNE01.JPG,AFNE01.JPG,AFNE01.JPG,AFNE01.JPG,AFNE01.JPG,,,,,,,,,,,,,1,1,11,0,,,,,,,,,,,AMSA04.jpg,AMNE11.jpg,AMNE10.jpg,AMSA10.jpg,AMNE11.jpg,MN,1,num_6,32,num_4,0.900128520327,,,2018_Feb_02_1754,60.0037913883,FEMA4ImagesEEG,001,202689,
AFNE01.JPG,AFNE01.JPG,AFNE01.JPG,AFNE01.JPG,AFNE01.JPG,AFNE01.JPG,,,,,,,,,,,,,1,2,12,7,,,,,,,,,,,AMSA18.jpg,AMSA03.jpg,AMNE08.jpg,AMNE13.jpg,AMNE13.jpg,MN,1,num_4,16,num_4,0.766819969285,,,2018_Feb_02_1754,60.0037913883,FEMA4ImagesEEG,001,202689,
AFNE01.JPG,AFNE01.JPG,AFNE01.JPG,AFNE01.JPG,AFNE01.JPG,AFNE01.JPG,,,,,,,,,,,,,1,3,13,3,,,,,,,,,,,AMNE12.jpg,AMNE03.jpg,AMSA05.jpg,AMSA10.jpg,AMNE12.jpg,MN,1,num_8,32,num_4,0.716854881844,,,2018_Feb_02_1754,60.0037913883,FEMA4ImagesEEG,001,202689,
AFNE01.JPG,AFNE01.JPG,AFNE01.JPG,AFNE01.JPG,AFNE01.JPG,AFNE01.JPG,,,,,,,,,,,,,1,4,14,1,,,,,,,,,,,AMSA14.jpg,AMNE18.jpg,AMSA17.jpg,AMNE13.jpg,AMNE13.jpg,MN,1,num_4,16,num_4,1.01670153637,,,2018_Feb_02_1754,60.0037913883,FEMA4ImagesEEG,001,202689,
AFNE01.JPG,AFNE01.JPG,AFNE01.JPG,AFNE01.JPG,AFNE01.JPG,AFNE01.JPG,,,,,,,,,,,,,1,5,15,6,,,,,,,,,,,AMNE10.jpg,AMNE07.jpg,AMSA17.jpg,AMSA19.jpg,AMNE10.jpg,MN,1,num_8,32,num_6,0.88346451032,,,2018_Feb_02_1754,60.0037913883,FEMA4ImagesEEG,001,202689,
AFNE01.JPG,AFNE01.JPG,AFNE01.JPG,AFNE01.JPG,AFNE01.JPG,AFNE01.JPG,,,,,,,,,,,,,1,6,16,2,,,,,,,,,,,AMSA09.jpg,AMNE08.jpg,AMNE19.jpg,AMSA19.jpg,AMSA09.jpg,MS,2,num_8,32,num_4,0.800139329163,,,2018_Feb_02_1754,60.0037913883,FEMA4ImagesEEG,001,202689,
AFNE01.JPG,AFNE01.JPG,AFNE01.JPG,AFNE01.JPG,AFNE01.JPG,AFNE01.JPG,,,,,,,,,,,,,1,7,17,9,,,,,,,,,,,AMNE05.jpg,AMSA15.jpg,AMSA13.jpg,AMNE02.jpg,AMSA15.jpg,MS,2,num_6,32,num_4,1.00010424026,,,2018_Feb_02_1754,60.0037913883,FEMA4ImagesEEG,001,202689,
AFNE01.JPG,AFNE01.JPG,AFNE01.JPG,AFNE01.JPG,AFNE01.JPG,AFNE01.JPG,,,,,,,,,,,,,1,8,18,8,,,,,,,,,,,AMSA04.jpg,AMNE18.jpg,AMSA13.jpg,AMNE01.jpg,AMSA04.jpg,MS,2,num_8,16,num_8,0.666774007375,,,2018_Feb_02_1754,60.0037913883,FEMA4ImagesEEG,001,202689,
AFNE01.JPG,AFNE01.JPG,AFNE01.JPG,AFNE01.JPG,AFNE01.JPG,AFNE01.JPG,,,,,,,,,,,,,1,9,19,5,,,,,,,,,,,AMNE16.jpg,AMSA04.jpg,AMNE05.jpg,AMSA15.jpg,AMSA15.jpg,MS,2,num_4,16,num_4,1.06674584642,,,2018_Feb_02_1754,60.0037913883,FEMA4ImagesEEG,001,202689,
AFNE01.JPG,AFNE01.JPG,AFNE01.JPG,AFNE01.JPG,AFNE01.JPG,AFNE01.JPG,,,,,,,,,,,,,2,0,20,9,,,,,,,,,,,AMSA18.jpg,AMNE04.jpg,AMNE19.jpg,AMSA06.jpg,AMNE04.jpg,MN,1,num_6,16,num_6,0.95012119133,,,2018_Feb_02_1754,60.0037913883,FEMA4ImagesEEG,001,202689,
AFNE01.JPG,AFNE01.JPG,AFNE01.JPG,AFNE01.JPG,AFNE01.JPG,AFNE01.JPG,,,,,,,,,,,,,2,1,21,6,,,,,,,,,,,AMNE06.jpg,AMNE03.jpg,AMSA08.jpg,AMSA16.jpg,AMNE06.jpg,MN,1,num_8,32,num_4,0.766777952551,,,2018_Feb_02_1754,60.0037913883,FEMA4ImagesEEG,001,202689,
AFNE01.JPG,AFNE01.JPG,AFNE01.JPG,AFNE01.JPG,AFNE01.JPG,AFNE01.JPG,,,,,,,,,,,,,2,2,22,5,,,,,,,,,,,AMNE06.jpg,AMNE04.jpg,AMSA20.jpg,AMSA17.jpg,AMNE06.jpg,MN,1,num_8,16,num_8,0.600183719536,,,2018_Feb_02_1754,60.0037913883,FEMA4ImagesEEG,001,202689,
AFNE01.JPG,AFNE01.JPG,AFNE01.JPG,AFNE01.JPG,AFNE01.JPG,AFNE01.JPG,,,,,,,,,,,,,2,3,23,3,,,,,,,,,,,AMSA17.jpg,AMNE15.jpg,AMNE14.jpg,AMSA18.jpg,AMSA18.jpg,MS,2,num_4,16,num_4,0.850170168211,,,2018_Feb_02_1754,60.0037913883,FEMA4ImagesEEG,001,202689,
AFNE01.JPG,AFNE01.JPG,AFNE01.JPG,AFNE01.JPG,AFNE01.JPG,AFNE01.JPG,,,,,,,,,,,,,2,4,24,1,,,,,,,,,,,AMNE14.jpg,AMSA11.jpg,AMNE04.jpg,AMSA06.jpg,AMNE04.jpg,MN,1,num_2,32,num_8,0.933430880774,,,2018_Feb_02_1754,60.0037913883,FEMA4ImagesEEG,001,202689,
AFNE01.JPG,AFNE01.JPG,AFNE01.JPG,AFNE01.JPG,AFNE01.JPG,AFNE01.JPG,,,,,,,,,,,,,2,5,25,7,,,,,,,,,,,AMSA18.jpg,AMNE09.jpg,AMSA05.jpg,AMNE17.jpg,AMSA18.jpg,MS,2,num_8,32,num_4,0.916766871,,,2018_Feb_02_1754,60.0037913883,FEMA4ImagesEEG,001,202689,
AFNE01.JPG,AFNE01.JPG,AFNE01.JPG,AFNE01.JPG,AFNE01.JPG,AFNE01.JPG,,,,,,,,,,,,,2,6,26,8,,,,,,,,,,,AMNE04.jpg,AMSA15.jpg,AMSA04.jpg,AMNE11.jpg,AMSA15.jpg,MS,2,num_6,16,num_6,0.800212136935,,,2018_Feb_02_1754,60.0037913883,FEMA4ImagesEEG,001,202689,
AFNE01.JPG,AFNE01.JPG,AFNE01.JPG,AFNE01.JPG,AFNE01.JPG,AFNE01.JPG,,,,,,,,,,,,,2,7,27,4,,,,,,,,,,,AMSA01.jpg,AMNE01.jpg,AMSA19.jpg,AMNE13.jpg,AMNE01.jpg,MN,1,num_6,32,num_8,0.950096815126,,,2018_Feb_02_1754,60.0037913883,FEMA4ImagesEEG,001,202689,
AFNE01.JPG,AFNE01.JPG,AFNE01.JPG,AFNE01.JPG,AFNE01.JPG,AFNE01.JPG,,,,,,,,,,,,,2,8,28,2,,,,,,,,,,,AMNE20.jpg,AMSA11.jpg,AMNE06.jpg,AMSA02.jpg,AMSA11.jpg,MS,2,num_6,32,num_4,0.650117053767,,,2018_Feb_02_1754,60.0037913883,FEMA4ImagesEEG,001,202689,
AFNE01.JPG,AFNE01.JPG,AFNE01.JPG,AFNE01.JPG,AFNE01.JPG,AFNE01.JPG,,,,,,,,,,,,,2,9,29,0,,,,,,,,,,,AMSA01.jpg,AMNE11.jpg,AMNE06.jpg,AMSA20.jpg,AMNE06.jpg,MN,1,num_2,32,num_4,0.750182260061,,,2018_Feb_02_1754,60.0037913883,FEMA4ImagesEEG,001,202689,
AFNE01.JPG,AFNE01.JPG,AFNE01.JPG,AFNE01.JPG,AFNE01.JPG,AFNE01.JPG,,,,,,,,,,,,,3,0,30,3,,,,,,,,,,,AMNE12.jpg,AMNE07.jpg,AMSA15.jpg,AMSA13.jpg,AMNE07.jpg,MN,1,num_6,16,num_6,0.933484444278,,,2018_Feb_02_1754,60.0037913883,FEMA4ImagesEEG,001,202689,
AFNE01.JPG,AFNE01.JPG,AFNE01.JPG,AFNE01.JPG,AFNE01.JPG,AFNE01.JPG,,,,,,,,,,,,,3,1,31,5,,,,,,,,,,,AMNE16.jpg,AMSA01.jpg,AMNE19.jpg,AMSA03.jpg,AMSA01.jpg,MS,2,num_6,32,num_4,0.983481926494,,,2018_Feb_02_1754,60.0037913883,FEMA4ImagesEEG,001,202689,
AFNE01.JPG,AFNE01.JPG,AFNE01.JPG,AFNE01.JPG,AFNE01.JPG,AFNE01.JPG,,,,,,,,,,,,,3,2,32,9,,,,,,,,,,,AMNE06.jpg,AMSA13.jpg,AMSA14.jpg,AMNE08.jpg,AMSA14.jpg,MS,2,num_2,32,num_6,0.983212184743,,,2018_Feb_02_1754,60.0037913883,FEMA4ImagesEEG,001,202689,
AFNE01.JPG,AFNE01.JPG,AFNE01.JPG,AFNE01.JPG,AFNE01.JPG,AFNE01.JPG,,,,,,,,,,,,,3,3,33,4,,,,,,,,,,,AMNE16.jpg,AMSA16.jpg,AMSA01.jpg,AMNE02.jpg,AMNE16.jpg,MN,1,num_8,16,num_8,0.800189364469,,,2018_Feb_02_1754,60.0037913883,FEMA4ImagesEEG,001,202689,
AFNE01.JPG,AFNE01.JPG,AFNE01.JPG,AFNE01.JPG,AFNE01.JPG,AFNE01.JPG,,,,,,,,,,,,,3,4,34,7,,,,,,,,,,,AMNE14.jpg,AMSA09.jpg,AMNE06.jpg,AMSA11.jpg,AMSA11.jpg,MS,2,num_4,32,num_6,1.0666114568,,,2018_Feb_02_1754,60.0037913883,FEMA4ImagesEEG,001,202689,
AFNE01.JPG,AFNE01.JPG,AFNE01.JPG,AFNE01.JPG,AFNE01.JPG,AFNE01.JPG,,,,,,,,,,,,,3,5,35,6,,,,,,,,,,,AMSA04.jpg,AMSA05.jpg,AMNE18.jpg,AMNE09.jpg,AMNE18.jpg,MN,1,num_2,32,num_4,0.916804718203,,,2018_Feb_02_1754,60.0037913883,FEMA4ImagesEEG,001,202689,
AFNE01.JPG,AFNE01.JPG,AFNE01.JPG,AFNE01.JPG,AFNE01.JPG,AFNE01.JPG,,,,,,,,,,,,,3,6,36,2,,,,,,,,,,,AMNE15.jpg,AMSA19.jpg,AMNE13.jpg,AMSA09.jpg,AMSA19.jpg,MS,2,num_6,32,num_8,0.983463644283,,,2018_Feb_02_1754,60.0037913883,FEMA4ImagesEEG,001,202689,
AFNE01.JPG,AFNE01.JPG,AFNE01.JPG,AFNE01.JPG,AFNE01.JPG,AFNE01.JPG,,,,,,,,,,,,,3,7,37,0,,,,,,,,,,,AMSA02.jpg,AMNE02.jpg,AMSA20.jpg,AMNE17.jpg,AMNE17.jpg,MN,1,num_4,32,num_8,1.13345384574,,,2018_Feb_02_1754,60.0037913883,FEMA4ImagesEEG,001,202689,
AFNE01.JPG,AFNE01.JPG,AFNE01.JPG,AFNE01.JPG,AFNE01.JPG,AFNE01.JPG,,,,,,,,,,,,,3,8,38,1,,,,,,,,,,,AMNE20.jpg,AMSA19.jpg,AMNE19.jpg,AMSA07.jpg,AMSA19.jpg,MS,2,num_6,16,num_6,1.31674736994,,,2018_Feb_02_1754,60.0037913883,FEMA4ImagesEEG,001,202689,
AFNE01.JPG,AFNE01.JPG,AFNE01.JPG,AFNE01.JPG,AFNE01.JPG,AFNE01.JPG,,,,,,,,,,,,,3,9,39,8,,,,,,,,,,,AMNE16.jpg,AMSA19.jpg,AMNE18.jpg,AMSA08.jpg,AMSA19.jpg,MS,2,num_6,32,num_4,0.966785201221,,,2018_Feb_02_1754,60.0037913883,FEMA4ImagesEEG,001,202689,
AFNE01.JPG,AFNE01.JPG,AFNE01.JPG,AFNE01.JPG,AFNE01.JPG,AFNE01.JPG,,,,,,,,,,,,,4,0,40,3,,,,,,,,,,,AMNE05.jpg,AMNE19.jpg,AMSA11.jpg,AMSA07.jpg,AMNE19.jpg,MN,1,num_6,16,num_6,0.966788408579,,,2018_Feb_02_1754,60.0037913883,FEMA4ImagesEEG,001,202689,
AFNE01.JPG,AFNE01.JPG,AFNE01.JPG,AFNE01.JPG,AFNE01.JPG,AFNE01.JPG,,,,,,,,,,,,,4,1,41,7,,,,,,,,,,,AMNE08.jpg,AMNE13.jpg,AMSA16.jpg,AMSA09.jpg,AMNE08.jpg,MN,1,num_8,16,num_8,0.766809064313,,,2018_Feb_02_1754,60.0037913883,FEMA4ImagesEEG,001,202689,
AFNE01.JPG,AFNE01.JPG,AFNE01.JPG,AFNE01.JPG,AFNE01.JPG,AFNE01.JPG,,,,,,,,,,,,,4,2,42,6,,,,,,,,,,,AMNE17.jpg,AMSA07.jpg,AMNE18.jpg,AMSA16.jpg,AMSA07.jpg,MS,2,num_6,16,num_6,0.666855475283,,,2018_Feb_02_1754,60.0037913883,FEMA4ImagesEEG,001,202689,
AFNE01.JPG,AFNE01.JPG,AFNE01.JPG,AFNE01.JPG,AFNE01.JPG,AFNE01.JPG,,,,,,,,,,,,,4,3,43,0,,,,,,,,,,,AMNE04.jpg,AMSA12.jpg,AMNE15.jpg,AMSA05.jpg,AMNE04.jpg,MN,1,num_8,16,num_8,0.783476281562,,,2018_Feb_02_1754,60.0037913883,FEMA4ImagesEEG,001,202689,
AFNE01.JPG,AFNE01.JPG,AFNE01.JPG,AFNE01.JPG,AFNE01.JPG,AFNE01.JPG,,,,,,,,,,,,,4,4,44,9,,,,,,,,,,,AMNE02.jpg,AMSA01.jpg,AMNE04.jpg,AMSA18.jpg,AMNE02.jpg,MN,1,num_8,32,num_4,1.2667713773,,,2018_Feb_02_1754,60.0037913883,FEMA4ImagesEEG,001,202689,
AFNE01.JPG,AFNE01.JPG,AFNE01.JPG,AFNE01.JPG,AFNE01.JPG,AFNE01.JPG,,,,,,,,,,,,,4,5,45,5,,,,,,,,,,,AMNE13.jpg,AMSA17.jpg,AMNE11.jpg,AMSA19.jpg,AMSA19.jpg,MS,2,num_4,32,num_8,0.833559080376,,,2018_Feb_02_1754,60.0037913883,FEMA4ImagesEEG,001,202689,
AFNE01.JPG,AFNE01.JPG,AFNE01.JPG,AFNE01.JPG,AFNE01.JPG,AFNE01.JPG,,,,,,,,,,,,,4,6,46,1,,,,,,,,,,,AMSA06.jpg,AMNE13.jpg,AMNE03.jpg,AMSA10.jpg,AMSA06.jpg,MS,2,num_8,32,num_4,0.783506110311,,,2018_Feb_02_1754,60.0037913883,FEMA4ImagesEEG,001,202689,
AFNE01.JPG,AFNE01.JPG,AFNE01.JPG,AFNE01.JPG,AFNE01.JPG,AFNE01.JPG,,,,,,,,,,,,,4,7,47,2,,,,,,,,,,,AMNE10.jpg,AMSA12.jpg,AMNE05.jpg,AMSA15.jpg,AMSA12.jpg,MS,2,num_6,32,num_4,0.666748668998,,,2018_Feb_02_1754,60.0037913883,FEMA4ImagesEEG,001,202689,
AFNE01.JPG,AFNE01.JPG,AFNE01.JPG,AFNE01.JPG,AFNE01.JPG,AFNE01.JPG,,,,,,,,,,,,,4,8,48,8,,,,,,,,,,,AMNE06.jpg,AMSA10.jpg,AMNE09.jpg,AMSA12.jpg,AMSA12.jpg,MS,2,num_4,16,num_4,0.766791102826,,,2018_Feb_02_1754,60.0037913883,FEMA4ImagesEEG,001,202689,
AFNE01.JPG,AFNE01.JPG,AFNE01.JPG,AFNE01.JPG,AFNE01.JPG,AFNE01.JPG,,,,,,,,,,,,,4,9,49,4,,,,,,,,,,,AMSA02.jpg,AMNE18.jpg,AMSA16.jpg,AMNE03.jpg,AMSA16.jpg,MS,2,num_2,32,num_4,0.916790926363,,,2018_Feb_02_1754,60.0037913883,FEMA4ImagesEEG,001,202689,
AFNE01.JPG,AFNE01.JPG,AFNE01.JPG,AFNE01.JPG,AFNE01.JPG,AFNE01.JPG,,,,,,,,,,,,,5,0,50,6,,,,,,,,,,,AMSA17.jpg,AMSA13.jpg,AMNE20.jpg,AMNE14.jpg,AMNE14.jpg,MN,1,num_4,32,num_8,1.13350356033,,,2018_Feb_02_1754,60.0037913883,FEMA4ImagesEEG,001,202689,
AFNE01.JPG,AFNE01.JPG,AFNE01.JPG,AFNE01.JPG,AFNE01.JPG,AFNE01.JPG,,,,,,,,,,,,,5,1,51,4,,,,,,,,,,,AMSA17.jpg,AMNE17.jpg,AMSA15.jpg,AMNE09.jpg,AMSA15.jpg,MS,2,num_2,32,num_4,0.983457871014,,,2018_Feb_02_1754,60.0037913883,FEMA4ImagesEEG,001,202689,
AFNE01.JPG,AFNE01.JPG,AFNE01.JPG,AFNE01.JPG,AFNE01.JPG,AFNE01.JPG,,,,,,,,,,,,,5,2,52,9,,,,,,,,,,,AMNE13.jpg,AMSA01.jpg,AMSA16.jpg,AMNE11.jpg,AMNE11.jpg,MN,1,num_4,32,num_8,0.850146433571,,,2018_Feb_02_1754,60.0037913883,FEMA4ImagesEEG,001,202689,
AFNE01.JPG,AFNE01.JPG,AFNE01.JPG,AFNE01.JPG,AFNE01.JPG,AFNE01.JPG,,,,,,,,,,,,,5,3,53,3,,,,,,,,,,,AMNE11.jpg,AMSA05.jpg,AMSA15.jpg,AMNE05.jpg,AMNE11.jpg,MN,1,num_8,32,num_4,1.05027748761,,,2018_Feb_02_1754,60.0037913883,FEMA4ImagesEEG,001,202689,
AFNE01.JPG,AFNE01.JPG,AFNE01.JPG,AFNE01.JPG,AFNE01.JPG,AFNE01.JPG,,,,,,,,,,,,,5,4,54,5,,,,,,,,,,,AMSA08.jpg,AMNE06.jpg,AMSA06.jpg,AMNE15.jpg,AMSA08.jpg,MS,2,num_8,32,num_6,1.45004565723,,,2018_Feb_02_1754,60.0037913883,FEMA4ImagesEEG,001,202689,
AFNE01.JPG,AFNE01.JPG,AFNE01.JPG,AFNE01.JPG,AFNE01.JPG,AFNE01.JPG,,,,,,,,,,,,,5,5,55,1,,,,,,,,,,,AMNE07.jpg,AMNE08.jpg,AMSA01.jpg,AMSA04.jpg,AMSA04.jpg,MS,2,num_4,32,num_2,0.733473667526,,,2018_Feb_02_1754,60.0037913883,FEMA4ImagesEEG,001,202689,
AFNE01.JPG,AFNE01.JPG,AFNE01.JPG,AFNE01.JPG,AFNE01.JPG,AFNE01.JPG,,,,,,,,,,,,,5,6,56,8,,,,,,,,,,,AMSA04.jpg,AMNE15.jpg,AMNE10.jpg,AMSA06.jpg,AMSA04.jpg,MS,2,num_8,16,num_8,0.56681079627,,,2018_Feb_02_1754,60.0037913883,FEMA4ImagesEEG,001,202689,
AFNE01.JPG,AFNE01.JPG,AFNE01.JPG,AFNE01.JPG,AFNE01.JPG,AFNE01.JPG,,,,,,,,,,,,,5,7,57,7,,,,,,,,,,,AMSA01.jpg,AMNE10.jpg,AMSA12.jpg,AMNE07.jpg,AMSA01.jpg,MS,2,num_8,16,num_8,0.466839887318,,,2018_Feb_02_1754,60.0037913883,FEMA4ImagesEEG,001,202689,
AFNE01.JPG,AFNE01.JPG,AFNE01.JPG,AFNE01.JPG,AFNE01.JPG,AFNE01.JPG,,,,,,,,,,,,,5,8,58,0,,,,,,,,,,,AMNE06.jpg,AMSA02.jpg,AMSA03.jpg,AMNE14.jpg,AMNE14.jpg,MN,1,num_4,16,num_4,1.21675593371,,,2018_Feb_02_1754,60.0037913883,FEMA4ImagesEEG,001,202689,
AFNE01.JPG,AFNE01.JPG,AFNE01.JPG,AFNE01.JPG,AFNE01.JPG,AFNE01.JPG,,,,,,,,,,,,,5,9,59,2,,,,,,,,,,,AMNE07.jpg,AMSA14.jpg,AMNE20.jpg,AMSA02.jpg,AMNE20.jpg,MN,1,num_2,16,num_2,0.783523109509,,,2018_Feb_02_1754,60.0037913883,FEMA4ImagesEEG,001,202689,
,,,,,,,,,,,,,,,,,,,,,,,,,,,,,,,,,,,,,,,,,,,space,5.53312932176,2018_Feb_02_1754,60.0037913883,FEMA4ImagesEEG,001,202689,
AFNE01.JPG,AFNE01.JPG,AFNE01.JPG,AFNE01.JPG,AFNE01.JPG,AFNE01.JPG,,,,,,,,,,,,,,,,,0,0,0,8,,,,,,,AFNE16.jpg,AFSA19.jpg,AFSA17.jpg,AFNE10.jpg,AFNE16.jpg,FN,3,num_8,32,num_4,0.733469177154,,,2018_Feb_02_1754,60.0037913883,FEMA4ImagesEEG,001,202689,
AFNE01.JPG,AFNE01.JPG,AFNE01.JPG,AFNE01.JPG,AFNE01.JPG,AFNE01.JPG,,,,,,,,,,,,,,,,,0,1,1,2,,,,,,,AFSA15.jpg,AFNE16.jpg,AFSA06.jpg,AFNE19.jpg,AFSA06.jpg,FS,4,num_2,16,num_2,0.616786788916,,,2018_Feb_02_1754,60.0037913883,FEMA4ImagesEEG,001,202689,
AFNE01.JPG,AFNE01.JPG,AFNE01.JPG,AFNE01.JPG,AFNE01.JPG,AFNE01.JPG,,,,,,,,,,,,,,,,,0,2,2,4,,,,,,,AFNE09.jpg,AFSA17.jpg,AFNE13.jpg,AFSA07.jpg,AFSA07.jpg,FS,4,num_4,32,num_8,0.616808278486,,,2018_Feb_02_1754,60.0037913883,FEMA4ImagesEEG,001,202689,
AFNE01.JPG,AFNE01.JPG,AFNE01.JPG,AFNE01.JPG,AFNE01.JPG,AFNE01.JPG,,,,,,,,,,,,,,,,,0,3,3,6,,,,,,,AFNE18.jpg,AFNE03.jpg,AFSA15.jpg,AFSA13.jpg,AFNE03.jpg,FN,3,num_6,16,num_6,0.66674289573,,,2018_Feb_02_1754,60.0037913883,FEMA4ImagesEEG,001,202689,
AFNE01.JPG,AFNE01.JPG,AFNE01.JPG,AFNE01.JPG,AFNE01.JPG,AFNE01.JPG,,,,,,,,,,,,,,,,,0,4,4,7,,,,,,,AFSA12.jpg,AFSA04.jpg,AFNE10.jpg,AFNE02.jpg,AFNE10.jpg,FN,3,num_2,32,num_8,0.750174883171,,,2018_Feb_02_1754,60.0037913883,FEMA4ImagesEEG,001,202689,
AFNE01.JPG,AFNE01.JPG,AFNE01.JPG,AFNE01.JPG,AFNE01.JPG,AFNE01.JPG,,,,,,,,,,,,,,,,,0,5,5,5,,,,,,,AFSA18.jpg,AFNE10.jpg,AFSA10.jpg,AFNE14.jpg,AFNE10.jpg,FN,3,num_6,32,num_4,0.766801366466,,,2018_Feb_02_1754,60.0037913883,FEMA4ImagesEEG,001,202689,
AFNE01.JPG,AFNE01.JPG,AFNE01.JPG,AFNE01.JPG,AFNE01.JPG,AFNE01.JPG,,,,,,,,,,,,,,,,,0,6,6,9,,,,,,,AFSA01.jpg,AFNE18.jpg,AFSA17.jpg,AFNE01.jpg,AFSA01.jpg,FS,4,num_8,16,num_8,0.933469690266,,,2018_Feb_02_1754,60.0037913883,FEMA4ImagesEEG,001,202689,
AFNE01.JPG,AFNE01.JPG,AFNE01.JPG,AFNE01.JPG,AFNE01.JPG,AFNE01.JPG,,,,,,,,,,,,,,,,,0,7,7,1,,,,,,,AFSA15.jpg,AFNE06.jpg,AFSA05.jpg,AFNE20.jpg,AFNE06.jpg,FN,3,num_6,32,num_4,0.75012388546,,,2018_Feb_02_1754,60.0037913883,FEMA4ImagesEEG,001,202689,
AFNE01.JPG,AFNE01.JPG,AFNE01.JPG,AFNE01.JPG,AFNE01.JPG,AFNE01.JPG,,,,,,,,,,,,,,,,,0,8,8,0,,,,,,,AFNE18.jpg,AFSA11.jpg,AFNE02.jpg,AFSA19.jpg,AFNE18.jpg,FN,3,num_8,16,num_8,0.833581211395,,,2018_Feb_02_1754,60.0037913883,FEMA4ImagesEEG,001,202689,
AFNE01.JPG,AFNE01.JPG,AFNE01.JPG,AFNE01.JPG,AFNE01.JPG,AFNE01.JPG,,,,,,,,,,,,,,,,,0,9,9,3,,,,,,,AFSA01.jpg,AFNE01.jpg,AFSA03.jpg,AFNE17.jpg,AFNE01.jpg,FN,3,num_6,32,num_8,0.833436558023,,,2018_Feb_02_1754,60.0037913883,FEMA4ImagesEEG,001,202689,
AFNE01.JPG,AFNE01.JPG,AFNE01.JPG,AFNE01.JPG,AFNE01.JPG,AFNE01.JPG,,,,,,,,,,,,,,,,,1,0,10,9,,,,,,,AFSA09.jpg,AFNE18.jpg,AFSA20.jpg,AFNE03.jpg,AFNE18.jpg,FN,3,num_6,16,num_6,0.800128103234,,,2018_Feb_02_1754,60.0037913883,FEMA4ImagesEEG,001,202689,
AFNE01.JPG,AFNE01.JPG,AFNE01.JPG,AFNE01.JPG,AFNE01.JPG,AFNE01.JPG,,,,,,,,,,,,,,,,,1,1,11,5,,,,,,,AFSA08.jpg,AFNE16.jpg,AFSA16.jpg,AFNE04.jpg,AFNE04.jpg,FN,3,num_4,32,num_8,0.883399079554,,,2018_Feb_02_1754,60.0037913883,FEMA4ImagesEEG,001,202689,
AFNE01.JPG,AFNE01.JPG,AFNE01.JPG,AFNE01.JPG,AFNE01.JPG,AFNE01.JPG,,,,,,,,,,,,,,,,,1,2,12,7,,,,,,,AFNE15.jpg,AFNE03.jpg,AFSA05.jpg,AFSA18.jpg,AFSA05.jpg,FS,4,num_2,16,num_2,0.983526188531,,,2018_Feb_02_1754,60.0037913883,FEMA4ImagesEEG,001,202689,
AFNE01.JPG,AFNE01.JPG,AFNE01.JPG,AFNE01.JPG,AFNE01.JPG,AFNE01.JPG,,,,,,,,,,,,,,,,,1,3,13,0,,,,,,,AFNE15.jpg,AFNE05.jpg,AFSA05.jpg,AFSA12.jpg,AFNE15.jpg,FN,3,num_8,32,num_4,0.850000817911,,,2018_Feb_02_1754,60.0037913883,FEMA4ImagesEEG,001,202689,
AFNE01.JPG,AFNE01.JPG,AFNE01.JPG,AFNE01.JPG,AFNE01.JPG,AFNE01.JPG,,,,,,,,,,,,,,,,,1,4,14,3,,,,,,,AFSA16.jpg,AFSA18.jpg,AFNE08.jpg,AFNE02.jpg,AFSA18.jpg,FS,4,num_6,16,num_6,0.733478157897,,,2018_Feb_02_1754,60.0037913883,FEMA4ImagesEEG,001,202689,
AFNE01.JPG,AFNE01.JPG,AFNE01.JPG,AFNE01.JPG,AFNE01.JPG,AFNE01.JPG,,,,,,,,,,,,,,,,,1,5,15,2,,,,,,,AFNE09.jpg,AFNE06.jpg,AFSA17.jpg,AFSA03.jpg,AFNE06.jpg,FN,3,num_6,32,num_8,0.91674024961,,,2018_Feb_02_1754,60.0037913883,FEMA4ImagesEEG,001,202689,
AFNE01.JPG,AFNE01.JPG,AFNE01.JPG,AFNE01.JPG,AFNE01.JPG,AFNE01.JPG,,,,,,,,,,,,,,,,,1,6,16,4,,,,,,,AFSA13.jpg,AFNE03.jpg,AFSA17.jpg,AFNE18.jpg,AFNE03.jpg,FN,3,num_6,32,num_4,0.866770350956,,,2018_Feb_02_1754,60.0037913883,FEMA4ImagesEEG,001,202689,
AFNE01.JPG,AFNE01.JPG,AFNE01.JPG,AFNE01.JPG,AFNE01.JPG,AFNE01.JPG,,,,,,,,,,,,,,,,,1,7,17,1,,,,,,,AFSA08.jpg,AFNE01.jpg,AFSA11.jpg,AFNE20.jpg,AFSA11.jpg,FS,4,num_2,16,num_2,0.766827987856,,,2018_Feb_02_1754,60.0037913883,FEMA4ImagesEEG,001,202689,
AFNE01.JPG,AFNE01.JPG,AFNE01.JPG,AFNE01.JPG,AFNE01.JPG,AFNE01.JPG,,,,,,,,,,,,,,,,,1,8,18,8,,,,,,,AFSA04.jpg,AFNE16.jpg,AFSA01.jpg,AFNE18.jpg,AFSA04.jpg,FS,4,num_8,32,num_4,0.916817227029,,,2018_Feb_02_1754,60.0037913883,FEMA4ImagesEEG,001,202689,
AFNE01.JPG,AFNE01.JPG,AFNE01.JPG,AFNE01.JPG,AFNE01.JPG,AFNE01.JPG,,,,,,,,,,,,,,,,,1,9,19,6,,,,,,,AFNE11.jpg,AFNE01.jpg,AFSA10.jpg,AFSA09.jpg,AFSA10.jpg,FS,4,num_2,32,num_8,0.866874911939,,,2018_Feb_02_1754,60.0037913883,FEMA4ImagesEEG,001,202689,
AFNE01.JPG,AFNE01.JPG,AFNE01.JPG,AFNE01.JPG,AFNE01.JPG,AFNE01.JPG,,,,,,,,,,,,,,,,,2,0,20,1,,,,,,,AFNE19.jpg,AFSA05.jpg,AFNE06.jpg,AFSA15.jpg,AFSA05.jpg,FS,4,num_6,16,num_6,0.833443935029,,,2018_Feb_02_1754,60.0037913883,FEMA4ImagesEEG,001,202689,
AFNE01.JPG,AFNE01.JPG,AFNE01.JPG,AFNE01.JPG,AFNE01.JPG,AFNE01.JPG,,,,,,,,,,,,,,,,,2,1,21,8,,,,,,,AFSA11.jpg,AFNE14.jpg,AFNE11.jpg,AFSA14.jpg,AFSA11.jpg,FS,4,num_8,32,num_2,0.899915870046,,,2018_Feb_02_1754,60.0037913883,FEMA4ImagesEEG,001,202689,
AFNE01.JPG,AFNE01.JPG,AFNE01.JPG,AFNE01.JPG,AFNE01.JPG,AFNE01.JPG,,,,,,,,,,,,,,,,,2,2,22,5,,,,,,,AFNE07.jpg,AFSA13.jpg,AFSA18.jpg,AFNE14.jpg,AFSA13.jpg,FS,4,num_6,16,num_6,0.733432612848,,,2018_Feb_02_1754,60.0037913883,FEMA4ImagesEEG,001,202689,
AFNE01.JPG,AFNE01.JPG,AFNE01.JPG,AFNE01.JPG,AFNE01.JPG,AFNE01.JPG,,,,,,,,,,,,,,,,,2,3,23,6,,,,,,,AFSA02.jpg,AFSA16.jpg,AFNE09.jpg,AFNE07.jpg,AFSA16.jpg,FS,4,num_6,32,num_8,0.883511017542,,,2018_Feb_02_1754,60.0037913883,FEMA4ImagesEEG,001,202689,
AFNE01.JPG,AFNE01.JPG,AFNE01.JPG,AFNE01.JPG,AFNE01.JPG,AFNE01.JPG,,,,,,,,,,,,,,,,,2,4,24,0,,,,,,,AFSA01.jpg,AFNE09.jpg,AFNE16.jpg,AFSA13.jpg,AFNE09.jpg,FN,3,num_6,16,num_6,0.866767143598,,,2018_Feb_02_1754,60.0037913883,FEMA4ImagesEEG,001,202689,
AFNE01.JPG,AFNE01.JPG,AFNE01.JPG,AFNE01.JPG,AFNE01.JPG,AFNE01.JPG,,,,,,,,,,,,,,,,,2,5,25,9,,,,,,,AFSA15.jpg,AFSA13.jpg,AFNE20.jpg,AFNE01.jpg,AFNE01.jpg,FN,3,num_4,16,num_4,1.13348367449,,,2018_Feb_02_1754,60.0037913883,FEMA4ImagesEEG,001,202689,
AFNE01.JPG,AFNE01.JPG,AFNE01.JPG,AFNE01.JPG,AFNE01.JPG,AFNE01.JPG,,,,,,,,,,,,,,,,,2,6,26,3,,,,,,,AFNE03.jpg,AFNE07.jpg,AFSA02.jpg,AFSA17.jpg,AFSA02.jpg,FS,4,num_2,32,num_8,1.15018713532,,,2018_Feb_02_1754,60.0037913883,FEMA4ImagesEEG,001,202689,
AFNE01.JPG,AFNE01.JPG,AFNE01.JPG,AFNE01.JPG,AFNE01.JPG,AFNE01.JPG,,,,,,,,,,,,,,,,,2,7,27,4,,,,,,,AFNE10.jpg,AFSA08.jpg,AFNE02.jpg,AFSA13.jpg,AFSA13.jpg,FS,4,num_4,32,num_2,1.03347908799,,,2018_Feb_02_1754,60.0037913883,FEMA4ImagesEEG,001,202689,
AFNE01.JPG,AFNE01.JPG,AFNE01.JPG,AFNE01.JPG,AFNE01.JPG,AFNE01.JPG,,,,,,,,,,,,,,,,,2,8,28,2,,,,,,,AFNE13.jpg,AFSA03.jpg,AFSA19.jpg,AFNE14.jpg,AFNE13.jpg,FN,3,num_8,16,num_8,0.800266983337,,,2018_Feb_02_1754,60.0037913883,FEMA4ImagesEEG,001,202689,
AFNE01.JPG,AFNE01.JPG,AFNE01.JPG,AFNE01.JPG,AFNE01.JPG,AFNE01.JPG,,,,,,,,,,,,,,,,,2,9,29,7,,,,,,,AFNE09.jpg,AFSA20.jpg,AFNE02.jpg,AFSA19.jpg,AFSA19.jpg,FS,4,num_4,32,num_8,0.950096173678,,,2018_Feb_02_1754,60.0037913883,FEMA4ImagesEEG,001,202689,
AFNE01.JPG,AFNE01.JPG,AFNE01.JPG,AFNE01.JPG,AFNE01.JPG,AFNE01.JPG,,,,,,,,,,,,,,,,,3,0,30,2,,,,,,,AFNE07.jpg,AFSA18.jpg,AFSA12.jpg,AFNE17.jpg,AFSA12.jpg,FS,4,num_2,16,num_2,0.583580008592,,,2018_Feb_02_1754,60.0037913883,FEMA4ImagesEEG,001,202689,
AFNE01.JPG,AFNE01.JPG,AFNE01.JPG,AFNE01.JPG,AFNE01.JPG,AFNE01.JPG,,,,,,,,,,,,,,,,,3,1,31,4,,,,,,,AFNE16.jpg,AFSA09.jpg,AFSA19.jpg,AFNE05.jpg,AFNE05.jpg,FN,3,num_4,16,num_4,0.766859099502,,,2018_Feb_02_1754,60.0037913883,FEMA4ImagesEEG,001,202689,
AFNE01.JPG,AFNE01.JPG,AFNE01.JPG,AFNE01.JPG,AFNE01.JPG,AFNE01.JPG,,,,,,,,,,,,,,,,,3,2,32,7,,,,,,,AFNE05.jpg,AFSA20.jpg,AFNE16.jpg,AFSA06.jpg,AFNE16.jpg,FN,3,num_2,32,num_8,0.766770896269,,,2018_Feb_02_1754,60.0037913883,FEMA4ImagesEEG,001,202689,
AFNE01.JPG,AFNE01.JPG,AFNE01.JPG,AFNE01.JPG,AFNE01.JPG,AFNE01.JPG,,,,,,,,,,,,,,,,,3,3,33,9,,,,,,,AFNE08.jpg,AFNE16.jpg,AFSA20.jpg,AFSA16.jpg,AFNE16.jpg,FN,3,num_6,32,num_4,0.983411684632,,,2018_Feb_02_1754,60.0037913883,FEMA4ImagesEEG,001,202689,
AFNE01.JPG,AFNE01.JPG,AFNE01.JPG,AFNE01.JPG,AFNE01.JPG,AFNE01.JPG,,,,,,,,,,,,,,,,,3,4,34,8,,,,,,,AFSA13.jpg,AFSA08.jpg,AFNE08.jpg,AFNE13.jpg,AFSA13.jpg,FS,4,num_8,32,num_2,1.0001898777,,,2018_Feb_02_1754,60.0037913883,FEMA4ImagesEEG,001,202689,
AFNE01.JPG,AFNE01.JPG,AFNE01.JPG,AFNE01.JPG,AFNE01.JPG,AFNE01.JPG,,,,,,,,,,,,,,,,,3,5,35,1,,,,,,,AFSA19.jpg,AFNE06.jpg,AFNE12.jpg,AFSA03.jpg,AFSA19.jpg,FS,4,num_8,32,num_4,1.00011995656,,,2018_Feb_02_1754,60.0037913883,FEMA4ImagesEEG,001,202689,
AFNE01.JPG,AFNE01.JPG,AFNE01.JPG,AFNE01.JPG,AFNE01.JPG,AFNE01.JPG,,,,,,,,,,,,,,,,,3,6,36,6,,,,,,,AFNE14.jpg,AFSA04.jpg,AFSA14.jpg,AFNE06.jpg,AFNE06.jpg,FN,3,num_4,32,num_6,1.23341769853,,,2018_Feb_02_1754,60.0037913883,FEMA4ImagesEEG,001,202689,
AFNE01.JPG,AFNE01.JPG,AFNE01.JPG,AFNE01.JPG,AFNE01.JPG,AFNE01.JPG,,,,,,,,,,,,,,,,,3,7,37,5,,,,,,,AFSA20.jpg,AFSA06.jpg,AFNE16.jpg,AFNE11.jpg,AFSA06.jpg,FS,4,num_6,32,num_8,0.766781159909,,,2018_Feb_02_1754,60.0037913883,FEMA4ImagesEEG,001,202689,
AFNE01.JPG,AFNE01.JPG,AFNE01.JPG,AFNE01.JPG,AFNE01.JPG,AFNE01.JPG,,,,,,,,,,,,,,,,,3,8,38,3,,,,,,,AFSA08.jpg,AFNE09.jpg,AFNE06.jpg,AFSA16.jpg,AFNE06.jpg,FN,3,num_2,16,num_2,0.783436189056,,,2018_Feb_02_1754,60.0037913883,FEMA4ImagesEEG,001,202689,
AFNE01.JPG,AFNE01.JPG,AFNE01.JPG,AFNE01.JPG,AFNE01.JPG,AFNE01.JPG,,,,,,,,,,,,,,,,,3,9,39,0,,,,,,,AFNE15.jpg,AFNE16.jpg,AFSA15.jpg,AFSA11.jpg,AFNE16.jpg,FN,3,num_6,32,num_8,0.900137821678,,,2018_Feb_02_1754,60.0037913883,FEMA4ImagesEEG,001,202689,
AFNE01.JPG,AFNE01.JPG,AFNE01.JPG,AFNE01.JPG,AFNE01.JPG,AFNE01.JPG,,,,,,,,,,,,,,,,,4,0,40,4,,,,,,,AFNE03.jpg,AFSA11.jpg,AFSA20.jpg,AFNE14.jpg,AFSA20.jpg,FS,4,num_2,32,num_6,0.800163384527,,,2018_Feb_02_1754,60.0037913883,FEMA4ImagesEEG,001,202689,
AFNE01.JPG,AFNE01.JPG,AFNE01.JPG,AFNE01.JPG,AFNE01.JPG,AFNE01.JPG,,,,,,,,,,,,,,,,,4,1,41,5,,,,,,,AFSA11.jpg,AFNE09.jpg,AFSA16.jpg,AFNE06.jpg,AFNE09.jpg,FN,3,num_6,32,num_8,0.883473811788,,,2018_Feb_02_1754,60.0037913883,FEMA4ImagesEEG,001,202689,
AFNE01.JPG,AFNE01.JPG,AFNE01.JPG,AFNE01.JPG,AFNE01.JPG,AFNE01.JPG,,,,,,,,,,,,,,,,,4,2,42,1,,,,,,,AFSA11.jpg,AFNE19.jpg,AFSA07.jpg,AFNE05.jpg,AFNE19.jpg,FN,3,num_6,16,num_6,0.716930255527,,,2018_Feb_02_1754,60.0037913883,FEMA4ImagesEEG,001,202689,
AFNE01.JPG,AFNE01.JPG,AFNE01.JPG,AFNE01.JPG,AFNE01.JPG,AFNE01.JPG,,,,,,,,,,,,,,,,,4,3,43,9,,,,,,,AFNE11.jpg,AFSA20.jpg,AFNE20.jpg,AFSA09.jpg,AFNE20.jpg,FN,3,num_2,32,num_6,0.800114952959,,,2018_Feb_02_1754,60.0037913883,FEMA4ImagesEEG,001,202689,
AFNE01.JPG,AFNE01.JPG,AFNE01.JPG,AFNE01.JPG,AFNE01.JPG,AFNE01.JPG,,,,,,,,,,,,,,,,,4,4,44,8,,,,,,,AFNE16.jpg,AFSA06.jpg,AFSA09.jpg,AFNE02.jpg,AFNE16.jpg,FN,3,num_8,32,num_4,0.733431329951,,,2018_Feb_02_1754,60.0037913883,FEMA4ImagesEEG,001,202689,
AFNE01.JPG,AFNE01.JPG,AFNE01.JPG,AFNE01.JPG,AFNE01.JPG,AFNE01.JPG,,,,,,,,,,,,,,,,,4,5,45,7,,,,,,,AFSA05.jpg,AFNE04.jpg,AFNE13.jpg,AFSA20.jpg,AFSA05.jpg,FS,4,num_8,16,num_8,0.85009158717,,,2018_Feb_02_1754,60.0037913883,FEMA4ImagesEEG,001,202689,
AFNE01.JPG,AFNE01.JPG,AFNE01.JPG,AFNE01.JPG,AFNE01.JPG,AFNE01.JPG,,,,,,,,,,,,,,,,,4,6,46,6,,,,,,,AFSA10.jpg,AFSA01.jpg,AFNE12.jpg,AFNE20.jpg,AFNE12.jpg,FN,3,num_2,32,num_4,0.933483482106,,,2018_Feb_02_1754,60.0037913883,FEMA4ImagesEEG,001,202689,
AFNE01.JPG,AFNE01.JPG,AFNE01.JPG,AFNE01.JPG,AFNE01.JPG,AFNE01.JPG,,,,,,,,,,,,,,,,,4,7,47,2,,,,,,,AFSA16.jpg,AFNE12.jpg,AFNE17.jpg,AFSA10.jpg,AFNE12.jpg,FN,3,num_6,16,num_6,0.716766357888,,,2018_Feb_02_1754,60.0037913883,FEMA4ImagesEEG,001,202689,
AFNE01.JPG,AFNE01.JPG,AFNE01.JPG,AFNE01.JPG,AFNE01.JPG,AFNE01.JPG,,,,,,,,,,,,,,,,,4,8,48,0,,,,,,,AFSA13.jpg,AFNE19.jpg,AFNE13.jpg,AFSA12.jpg,AFNE13.jpg,FN,3,num_2,32,num_8,0.7666740329,,,2018_Feb_02_1754,60.0037913883,FEMA4ImagesEEG,001,202689,
AFNE01.JPG,AFNE01.JPG,AFNE01.JPG,AFNE01.JPG,AFNE01.JPG,AFNE01.JPG,,,,,,,,,,,,,,,,,4,9,49,3,,,,,,,AFSA20.jpg,AFNE11.jpg,AFSA15.jpg,AFNE06.jpg,AFSA15.jpg,FS,4,num_2,16,num_2,0.883494980633,,,2018_Feb_02_1754,60.0037913883,FEMA4ImagesEEG,001,202689,
AFNE01.JPG,AFNE01.JPG,AFNE01.JPG,AFNE01.JPG,AFNE01.JPG,AFNE01.JPG,,,,,,,,,,,,,,,,,5,0,50,3,,,,,,,AFNE06.jpg,AFSA12.jpg,AFNE18.jpg,AFSA10.jpg,AFNE06.jpg,FN,3,num_8,16,num_8,0.816811036784,,,2018_Feb_02_1754,60.0037913883,FEMA4ImagesEEG,001,202689,
AFNE01.JPG,AFNE01.JPG,AFNE01.JPG,AFNE01.JPG,AFNE01.JPG,AFNE01.JPG,,,,,,,,,,,,,,,,,5,1,51,6,,,,,,,AFNE01.jpg,AFNE13.jpg,AFSA02.jpg,AFSA01.jpg,AFNE13.jpg,FN,3,num_6,32,num_4,1.15014191112,,,2018_Feb_02_1754,60.0037913883,FEMA4ImagesEEG,001,202689,
AFNE01.JPG,AFNE01.JPG,AFNE01.JPG,AFNE01.JPG,AFNE01.JPG,AFNE01.JPG,,,,,,,,,,,,,,,,,5,2,52,7,,,,,,,AFSA09.jpg,AFNE14.jpg,AFNE16.jpg,AFSA02.jpg,AFSA02.jpg,FS,4,num_4,16,num_4,0.750012268312,,,2018_Feb_02_1754,60.0037913883,FEMA4ImagesEEG,001,202689,
AFNE01.JPG,AFNE01.JPG,AFNE01.JPG,AFNE01.JPG,AFNE01.JPG,AFNE01.JPG,,,,,,,,,,,,,,,,,5,3,53,8,,,,,,,AFNE08.jpg,AFSA15.jpg,AFNE11.jpg,AFSA14.jpg,AFNE11.jpg,FN,3,num_2,32,num_8,1.0666640579,,,2018_Feb_02_1754,60.0037913883,FEMA4ImagesEEG,001,202689,
AFNE01.JPG,AFNE01.JPG,AFNE01.JPG,AFNE01.JPG,AFNE01.JPG,AFNE01.JPG,,,,,,,,,,,,,,,,,5,4,54,0,,,,,,,AFSA15.jpg,AFNE18.jpg,AFNE15.jpg,AFSA14.jpg,AFSA15.jpg,FS,4,num_8,16,num_8,1.01678909815,,,2018_Feb_02_1754,60.0037913883,FEMA4ImagesEEG,001,202689,
AFNE01.JPG,AFNE01.JPG,AFNE01.JPG,AFNE01.JPG,AFNE01.JPG,AFNE01.JPG,,,,,,,,,,,,,,,,,5,5,55,2,,,,,,,AFNE07.jpg,AFNE16.jpg,AFSA16.jpg,AFSA01.jpg,AFNE16.jpg,FN,3,num_6,16,num_6,0.866846366203,,,2018_Feb_02_1754,60.0037913883,FEMA4ImagesEEG,001,202689,
AFNE01.JPG,AFNE01.JPG,AFNE01.JPG,AFNE01.JPG,AFNE01.JPG,AFNE01.JPG,,,,,,,,,,,,,,,,,5,6,56,5,,,,,,,AFSA12.jpg,AFNE14.jpg,AFSA03.jpg,AFNE19.jpg,AFSA03.jpg,FS,4,num_2,32,num_4,0.866775803501,,,2018_Feb_02_1754,60.0037913883,FEMA4ImagesEEG,001,202689,
AFNE01.JPG,AFNE01.JPG,AFNE01.JPG,AFNE01.JPG,AFNE01.JPG,AFNE01.JPG,,,,,,,,,,,,,,,,,5,7,57,9,,,,,,,AFSA05.jpg,AFNE05.jpg,AFSA01.jpg,AFNE07.jpg,AFNE07.jpg,FN,3,num_4,16,num_4,0.91680119012,,,2018_Feb_02_1754,60.0037913883,FEMA4ImagesEEG,001,202689,
AFNE01.JPG,AFNE01.JPG,AFNE01.JPG,AFNE01.JPG,AFNE01.JPG,AFNE01.JPG,,,,,,,,,,,,,,,,,5,8,58,1,,,,,,,AFNE08.jpg,AFSA01.jpg,AFNE07.jpg,AFSA04.jpg,AFNE07.jpg,FN,3,num_2,32,num_8,0.866781256162,,,2018_Feb_02_1754,60.0037913883,FEMA4ImagesEEG,001,202689,
AFNE01.JPG,AFNE01.JPG,AFNE01.JPG,AFNE01.JPG,AFNE01.JPG,AFNE01.JPG,,,,,,,,,,,,,,,,,5,9,59,4,,,,,,,AFSA12.jpg,AFNE04.jpg,AFSA06.jpg,AFNE15.jpg,AFNE15.jpg,FN,3,num_4,16,num_4,0.80019128893,,,2018_Feb_02_1754,60.0037913883,FEMA4ImagesEEG,001,202689,
,,,,,,,,,,,,,,,,,,,,,,,,,,,,,,,,,,,,,,,,,,,space,3.93319032632,2018_Feb_02_1754,60.0037913883,FEMA4ImagesEEG,001,202689,
AFNE01.JPG,AFNE01.JPG,AFNE01.JPG,AFNE01.JPG,AFNE01.JPG,AFNE01.JPG,,,,,,,,,,,,,,,,,,,,,0,0,0,2,,,AMNE16.jpg,AMSA13.jpg,AMNE05.jpg,AMSA07.jpg,AMNE05.jpg,MN,1,num_2,32,num_8,0.716724020196,,,2018_Feb_02_1754,60.0037913883,FEMA4ImagesEEG,001,202689,
AFNE01.JPG,AFNE01.JPG,AFNE01.JPG,AFNE01.JPG,AFNE01.JPG,AFNE01.JPG,,,,,,,,,,,,,,,,,,,,,0,1,1,0,,,AMSA12.jpg,AMNE20.jpg,AMSA03.jpg,AMNE03.jpg,AMSA03.jpg,MS,2,num_2,32,num_4,1.06678497675,,,2018_Feb_02_1754,60.0037913883,FEMA4ImagesEEG,001,202689,
AFNE01.JPG,AFNE01.JPG,AFNE01.JPG,AFNE01.JPG,AFNE01.JPG,AFNE01.JPG,,,,,,,,,,,,,,,,,,,,,0,2,2,1,,,AMNE02.jpg,AMSA19.jpg,AMNE11.jpg,AMSA02.jpg,AMSA19.jpg,MS,2,num_6,16,num_6,0.850110189989,,,2018_Feb_02_1754,60.0037913883,FEMA4ImagesEEG,001,202689,
AFNE01.JPG,AFNE01.JPG,AFNE01.JPG,AFNE01.JPG,AFNE01.JPG,AFNE01.JPG,,,,,,,,,,,,,,,,,,,,,0,3,3,6,,,AMNE01.jpg,AMNE04.jpg,AMSA12.jpg,AMSA18.jpg,AMSA18.jpg,MS,2,num_4,16,num_4,0.683478109771,,,2018_Feb_02_1754,60.0037913883,FEMA4ImagesEEG,001,202689,
AFNE01.JPG,AFNE01.JPG,AFNE01.JPG,AFNE01.JPG,AFNE01.JPG,AFNE01.JPG,,,,,,,,,,,,,,,,,,,,,0,4,4,9,,,AMNE14.jpg,AMSA03.jpg,AMNE06.jpg,AMSA11.jpg,AMNE14.jpg,MN,1,num_8,16,num_8,0.900407242705,,,2018_Feb_02_1754,60.0037913883,FEMA4ImagesEEG,001,202689,
AFNE01.JPG,AFNE01.JPG,AFNE01.JPG,AFNE01.JPG,AFNE01.JPG,AFNE01.JPG,,,,,,,,,,,,,,,,,,,,,0,5,5,7,,,AMSA08.jpg,AMSA19.jpg,AMNE11.jpg,AMNE18.jpg,AMNE11.jpg,MN,1,num_2,32,num_6,0.700137629174,,,2018_Feb_02_1754,60.0037913883,FEMA4ImagesEEG,001,202689,
AFNE01.JPG,AFNE01.JPG,AFNE01.JPG,AFNE01.JPG,AFNE01.JPG,AFNE01.JPG,,,,,,,,,,,,,,,,,,,,,0,6,6,5,,,AMSA05.jpg,AMSA16.jpg,AMNE03.jpg,AMNE09.jpg,AMSA16.jpg,MS,2,num_6,32,num_4,0.866631791578,,,2018_Feb_02_1754,60.0037913883,FEMA4ImagesEEG,001,202689,
AFNE01.JPG,AFNE01.JPG,AFNE01.JPG,AFNE01.JPG,AFNE01.JPG,AFNE01.JPG,,,,,,,,,,,,,,,,,,,,,0,7,7,3,,,AMSA17.jpg,AMNE17.jpg,AMSA13.jpg,AMNE20.jpg,AMNE17.jpg,MN,1,num_6,32,num_4,0.666775931837,,,2018_Feb_02_1754,60.0037913883,FEMA4ImagesEEG,001,202689,
AFNE01.JPG,AFNE01.JPG,AFNE01.JPG,AFNE01.JPG,AFNE01.JPG,AFNE01.JPG,,,,,,,,,,,,,,,,,,,,,0,8,8,4,,,AMSA05.jpg,AMNE03.jpg,AMNE08.jpg,AMSA18.jpg,AMNE08.jpg,MN,1,num_2,32,num_6,0.833467990393,,,2018_Feb_02_1754,60.0037913883,FEMA4ImagesEEG,001,202689,
AFNE01.JPG,AFNE01.JPG,AFNE01.JPG,AFNE01.JPG,AFNE01.JPG,AFNE01.JPG,,,,,,,,,,,,,,,,,,,,,0,9,9,8,,,AMNE05.jpg,AMNE17.jpg,AMSA05.jpg,AMSA12.jpg,AMSA05.jpg,MS,2,num_2,32,num_8,0.900146160973,,,2018_Feb_02_1754,60.0037913883,FEMA4ImagesEEG,001,202689,
AFNE01.JPG,AFNE01.JPG,AFNE01.JPG,AFNE01.JPG,AFNE01.JPG,AFNE01.JPG,,,,,,,,,,,,,,,,,,,,,1,0,10,2,,,AMNE17.jpg,AMSA07.jpg,AMSA03.jpg,AMNE11.jpg,AMNE11.jpg,MN,1,num_4,16,num_4,0.733487459365,,,2018_Feb_02_1754,60.0037913883,FEMA4ImagesEEG,001,202689,
AFNE01.JPG,AFNE01.JPG,AFNE01.JPG,AFNE01.JPG,AFNE01.JPG,AFNE01.JPG,,,,,,,,,,,,,,,,,,,,,1,1,11,6,,,AMSA15.jpg,AMSA12.jpg,AMNE01.jpg,AMNE16.jpg,AMNE16.jpg,MN,1,num_4,16,num_4,0.883494018344,,,2018_Feb_02_1754,60.0037913883,FEMA4ImagesEEG,001,202689,
AFNE01.JPG,AFNE01.JPG,AFNE01.JPG,AFNE01.JPG,AFNE01.JPG,AFNE01.JPG,,,,,,,,,,,,,,,,,,,,,1,2,12,7,,,AMSA11.jpg,AMSA07.jpg,AMNE15.jpg,AMNE13.jpg,AMSA11.jpg,MS,2,num_8,16,num_8,0.866749823675,,,2018_Feb_02_1754,60.0037913883,FEMA4ImagesEEG,001,202689,
AFNE01.JPG,AFNE01.JPG,AFNE01.JPG,AFNE01.JPG,AFNE01.JPG,AFNE01.JPG,,,,,,,,,,,,,,,,,,,,,1,3,13,5,,,AMSA11.jpg,AMSA01.jpg,AMNE08.jpg,AMNE15.jpg,AMSA01.jpg,MS,2,num_6,32,num_2,1.1001322408,,,2018_Feb_02_1754,60.0037913883,FEMA4ImagesEEG,001,202689,
AFNE01.JPG,AFNE01.JPG,AFNE01.JPG,AFNE01.JPG,AFNE01.JPG,AFNE01.JPG,,,,,,,,,,,,,,,,,,,,,1,4,14,1,,,AMNE04.jpg,AMSA06.jpg,AMSA04.jpg,AMNE08.jpg,AMSA06.jpg,MS,2,num_6,32,num_4,0.733507024357,,,2018_Feb_02_1754,60.0037913883,FEMA4ImagesEEG,001,202689,
AFNE01.JPG,AFNE01.JPG,AFNE01.JPG,AFNE01.JPG,AFNE01.JPG,AFNE01.JPG,,,,,,,,,,,,,,,,,,,,,1,5,15,0,,,AMSA16.jpg,AMNE16.jpg,AMNE04.jpg,AMSA19.jpg,AMNE04.jpg,MN,1,num_2,32,num_4,0.816920408863,,,2018_Feb_02_1754,60.0037913883,FEMA4ImagesEEG,001,202689,
AFNE01.JPG,AFNE01.JPG,AFNE01.JPG,AFNE01.JPG,AFNE01.JPG,AFNE01.JPG,,,,,,,,,,,,,,,,,,,,,1,6,16,4,,,AMSA18.jpg,AMNE17.jpg,AMNE15.jpg,AMSA07.jpg,AMNE15.jpg,MN,1,num_2,32,num_8,0.866816858179,,,2018_Feb_02_1754,60.0037913883,FEMA4ImagesEEG,001,202689,
AFNE01.JPG,AFNE01.JPG,AFNE01.JPG,AFNE01.JPG,AFNE01.JPG,AFNE01.JPG,,,,,,,,,,,,,,,,,,,,,1,7,17,9,,,AMNE05.jpg,AMSA11.jpg,AMNE12.jpg,AMSA16.jpg,AMSA16.jpg,MS,2,num_4,32,num_6,1.20010667795,,,2018_Feb_02_1754,60.0037913883,FEMA4ImagesEEG,001,202689,
AFNE01.JPG,AFNE01.JPG,AFNE01.JPG,AFNE01.JPG,AFNE01.JPG,AFNE01.JPG,,,,,,,,,,,,,,,,,,,,,1,8,18,3,,,AMNE12.jpg,AMNE05.jpg,AMSA17.jpg,AMSA13.jpg,AMNE12.jpg,MN,1,num_8,16,num_8,0.634274777956,,,2018_Feb_02_1754,60.0037913883,FEMA4ImagesEEG,001,202689,
AFNE01.JPG,AFNE01.JPG,AFNE01.JPG,AFNE01.JPG,AFNE01.JPG,AFNE01.JPG,,,,,,,,,,,,,,,,,,,,,1,9,19,8,,,AMSA10.jpg,AMNE03.jpg,AMSA20.jpg,AMNE16.jpg,AMSA10.jpg,MS,2,num_8,32,num_4,0.666806722875,,,2018_Feb_02_1754,60.0037913883,FEMA4ImagesEEG,001,202689,
AFNE01.JPG,AFNE01.JPG,AFNE01.JPG,AFNE01.JPG,AFNE01.JPG,AFNE01.JPG,,,,,,,,,,,,,,,,,,,,,2,0,20,1,,,AMSA07.jpg,AMSA15.jpg,AMNE07.jpg,AMNE11.jpg,AMNE11.jpg,MN,1,num_4,32,num_6,0.650220331852,,,2018_Feb_02_1754,60.0037913883,FEMA4ImagesEEG,001,202689,
AFNE01.JPG,AFNE01.JPG,AFNE01.JPG,AFNE01.JPG,AFNE01.JPG,AFNE01.JPG,,,,,,,,,,,,,,,,,,,,,2,1,21,3,,,AMSA11.jpg,AMNE19.jpg,AMNE17.jpg,AMSA01.jpg,AMSA11.jpg,MS,2,num_8,32,num_4,0.633473250433,,,2018_Feb_02_1754,60.0037913883,FEMA4ImagesEEG,001,202689,
AFNE01.JPG,AFNE01.JPG,AFNE01.JPG,AFNE01.JPG,AFNE01.JPG,AFNE01.JPG,,,,,,,,,,,,,,,,,,,,,2,2,22,6,,,AMNE12.jpg,AMSA05.jpg,AMSA01.jpg,AMNE09.jpg,AMSA01.jpg,MS,2,num_2,16,num_2,0.633325068979,,,2018_Feb_02_1754,60.0037913883,FEMA4ImagesEEG,001,202689,
AFNE01.JPG,AFNE01.JPG,AFNE01.JPG,AFNE01.JPG,AFNE01.JPG,AFNE01.JPG,,,,,,,,,,,,,,,,,,,,,2,3,23,8,,,AMNE03.jpg,AMSA08.jpg,AMNE12.jpg,AMSA15.jpg,AMSA08.jpg,MS,2,num_6,32,num_4,0.916746343719,,,2018_Feb_02_1754,60.0037913883,FEMA4ImagesEEG,001,202689,
AFNE01.JPG,AFNE01.JPG,AFNE01.JPG,AFNE01.JPG,AFNE01.JPG,AFNE01.JPG,,,,,,,,,,,,,,,,,,,,,2,4,24,9,,,AMSA08.jpg,AMNE16.jpg,AMNE14.jpg,AMSA10.jpg,AMSA08.jpg,MS,2,num_8,16,num_8,0.716869956581,,,2018_Feb_02_1754,60.0037913883,FEMA4ImagesEEG,001,202689,
AFNE01.JPG,AFNE01.JPG,AFNE01.JPG,AFNE01.JPG,AFNE01.JPG,AFNE01.JPG,,,,,,,,,,,,,,,,,,,,,2,5,25,4,,,AMSA12.jpg,AMNE17.jpg,AMSA19.jpg,AMNE04.jpg,AMNE04.jpg,MN,1,num_4,16,num_4,0.700148855103,,,2018_Feb_02_1754,60.0037913883,FEMA4ImagesEEG,001,202689,
AFNE01.JPG,AFNE01.JPG,AFNE01.JPG,AFNE01.JPG,AFNE01.JPG,AFNE01.JPG,,,,,,,,,,,,,,,,,,,,,2,6,26,0,,,AMSA12.jpg,AMNE01.jpg,AMNE16.jpg,AMSA13.jpg,AMSA13.jpg,MS,2,num_4,32,num_8,0.716779508162,,,2018_Feb_02_1754,60.0037913883,FEMA4ImagesEEG,001,202689,
AFNE01.JPG,AFNE01.JPG,AFNE01.JPG,AFNE01.JPG,AFNE01.JPG,AFNE01.JPG,,,,,,,,,,,,,,,,,,,,,2,7,27,7,,,AMSA03.jpg,AMSA10.jpg,AMNE14.jpg,AMNE17.jpg,AMSA03.jpg,MS,2,num_8,32,num_6,0.650147523964,,,2018_Feb_02_1754,60.0037913883,FEMA4ImagesEEG,001,202689,
AFNE01.JPG,AFNE01.JPG,AFNE01.JPG,AFNE01.JPG,AFNE01.JPG,AFNE01.JPG,,,,,,,,,,,,,,,,,,,,,2,8,28,5,,,AMNE19.jpg,AMSA01.jpg,AMNE03.jpg,AMSA17.jpg,AMSA17.jpg,MS,2,num_4,16,num_4,0.733325165231,,,2018_Feb_02_1754,60.0037913883,FEMA4ImagesEEG,001,202689,
AFNE01.JPG,AFNE01.JPG,AFNE01.JPG,AFNE01.JPG,AFNE01.JPG,AFNE01.JPG,,,,,,,,,,,,,,,,,,,,,2,9,29,2,,,AMNE19.jpg,AMSA17.jpg,AMSA16.jpg,AMNE06.jpg,AMNE19.jpg,MN,1,num_8,32,num_4,1.26675437822,,,2018_Feb_02_1754,60.0037913883,FEMA4ImagesEEG,001,202689,
AFNE01.JPG,AFNE01.JPG,AFNE01.JPG,AFNE01.JPG,AFNE01.JPG,AFNE01.JPG,,,,,,,,,,,,,,,,,,,,,3,0,30,8,,,AMNE05.jpg,AMNE02.jpg,AMSA01.jpg,AMSA19.jpg,AMSA01.jpg,MS,2,num_2,32,num_6,0.700192796416,,,2018_Feb_02_1754,60.0037913883,FEMA4ImagesEEG,001,202689,
AFNE01.JPG,AFNE01.JPG,AFNE01.JPG,AFNE01.JPG,AFNE01.JPG,AFNE01.JPG,,,,,,,,,,,,,,,,,,,,,3,1,31,0,,,AMNE18.jpg,AMSA07.jpg,AMNE09.jpg,AMSA10.jpg,AMNE18.jpg,MN,1,num_8,16,num_8,0.750131262583,,,2018_Feb_02_1754,60.0037913883,FEMA4ImagesEEG,001,202689,
AFNE01.JPG,AFNE01.JPG,AFNE01.JPG,AFNE01.JPG,AFNE01.JPG,AFNE01.JPG,,,,,,,,,,,,,,,,,,,,,3,2,32,7,,,AMNE10.jpg,AMSA09.jpg,AMSA15.jpg,AMNE08.jpg,AMNE08.jpg,MN,1,num_4,32,num_8,0.766811950831,,,2018_Feb_02_1754,60.0037913883,FEMA4ImagesEEG,001,202689,
AFNE01.JPG,AFNE01.JPG,AFNE01.JPG,AFNE01.JPG,AFNE01.JPG,AFNE01.JPG,,,,,,,,,,,,,,,,,,,,,3,3,33,4,,,AMNE08.jpg,AMSA10.jpg,AMNE03.jpg,AMSA18.jpg,AMSA18.jpg,MS,2,num_4,16,num_4,0.700165212736,,,2018_Feb_02_1754,60.0037913883,FEMA4ImagesEEG,001,202689,
AFNE01.JPG,AFNE01.JPG,AFNE01.JPG,AFNE01.JPG,AFNE01.JPG,AFNE01.JPG,,,,,,,,,,,,,,,,,,,,,3,4,34,6,,,AMSA04.jpg,AMSA17.jpg,AMNE08.jpg,AMNE13.jpg,AMNE13.jpg,MN,1,num_4,16,num_4,0.783516373951,,,2018_Feb_02_1754,60.0037913883,FEMA4ImagesEEG,001,202689,
AFNE01.JPG,AFNE01.JPG,AFNE01.JPG,AFNE01.JPG,AFNE01.JPG,AFNE01.JPG,,,,,,,,,,,,,,,,,,,,,3,5,35,5,,,AMNE11.jpg,AMSA07.jpg,AMNE18.jpg,AMSA04.jpg,AMSA07.jpg,MS,2,num_6,32,num_8,0.666884341743,,,2018_Feb_02_1754,60.0037913883,FEMA4ImagesEEG,001,202689,
AFNE01.JPG,AFNE01.JPG,AFNE01.JPG,AFNE01.JPG,AFNE01.JPG,AFNE01.JPG,,,,,,,,,,,,,,,,,,,,,3,6,36,2,,,AMNE07.jpg,AMNE17.jpg,AMSA10.jpg,AMSA17.jpg,AMSA10.jpg,MS,2,num_2,32,num_6,0.566775835701,,,2018_Feb_02_1754,60.0037913883,FEMA4ImagesEEG,001,202689,
AFNE01.JPG,AFNE01.JPG,AFNE01.JPG,AFNE01.JPG,AFNE01.JPG,AFNE01.JPG,,,,,,,,,,,,,,,,,,,,,3,7,37,9,,,AMNE11.jpg,AMNE02.jpg,AMSA01.jpg,AMSA20.jpg,AMNE02.jpg,MN,1,num_6,32,num_4,0.616887500975,,,2018_Feb_02_1754,60.0037913883,FEMA4ImagesEEG,001,202689,
AFNE01.JPG,AFNE01.JPG,AFNE01.JPG,AFNE01.JPG,AFNE01.JPG,AFNE01.JPG,,,,,,,,,,,,,,,,,,,,,3,8,38,1,,,AMSA10.jpg,AMNE10.jpg,AMNE04.jpg,AMSA01.jpg,AMNE04.jpg,MN,1,num_2,32,num_4,0.550001170719,,,2018_Feb_02_1754,60.0037913883,FEMA4ImagesEEG,001,202689,
