IPosition2,IPosition3,IPosition1,IPosition6,IPosition4,IPosition5,TrialsF1.thisRepN,TrialsF1.thisTrialN,TrialsF1.thisN,TrialsF1.thisIndex,TrialsM1.thisRepN,TrialsM1.thisTrialN,TrialsM1.thisN,TrialsM1.thisIndex,TrialsF2.thisRepN,TrialsF2.thisTrialN,TrialsF2.thisN,TrialsF2.thisIndex,TrialsM2.thisRepN,TrialsM2.thisTrialN,TrialsM2.thisN,TrialsM2.thisIndex,TrialsF3.thisRepN,TrialsF3.thisTrialN,TrialsF3.thisN,TrialsF3.thisIndex,TrialsM3.thisRepN,TrialsM3.thisTrialN,TrialsM3.thisN,TrialsM3.thisIndex,InstrKey_resp.keys,InstrKey_resp.rt,Image0 _Position,Image1 _Position,Image2 _Position,Image3 _Position,Center_image,condition,code,correct_answer,accuracy,Key_Resp.keys,Key_Resp.rt,BreakKey_resp.keys,BreakKey_resp.rt,date,frameRate,expName,session,participant,
,,,,,,,,,,,,,,,,,,,,,,,,,,,,,,space,5.04991858033,,,,,,,,,,,,,,2018_Jan_25_1322,60.0041378215,FEMA4ImagesEEG,001,202774,
AFSA21.JPG,AFNE23.JPG,AFNE21.JPG,AFSA25.JPG,AFNE25.JPG,AFSA23.JPG,0,0,0,4,,,,,,,,,,,,,,,,,,,,,,,AFSA18.jpg,AFNE03.jpg,AFNE16.jpg,AFSA06.jpg,AFSA18.jpg,FS,4,num_8,16,num_8,0.900100936662,,,2018_Jan_25_1322,60.0041378215,FEMA4ImagesEEG,001,202774,
AMSA21.JPG,AMNE22.JPG,AMNE21.JPG,AMSA23.JPG,AMSA22.JPG,AMNE23.JPG,0,1,1,1,,,,,,,,,,,,,,,,,,,,,,,AFNE01.jpg,AFNE09.jpg,AFSA08.jpg,AFSA02.jpg,AFSA08.jpg,FS,4,num_2,16,num_2,1.0668077492,,,2018_Jan_25_1322,60.0041378215,FEMA4ImagesEEG,001,202774,
AFSA21.JPG,AFNE22.JPG,AFNE21.JPG,AFSA23.JPG,AFSA22.JPG,AFNE23.JPG,0,2,2,0,,,,,,,,,,,,,,,,,,,,,,,AFSA06.jpg,AFNE16.jpg,AFNE14.jpg,AFSA19.jpg,AFSA06.jpg,FS,4,num_8,16,num_8,0.783540429344,,,2018_Jan_25_1322,60.0041378215,FEMA4ImagesEEG,001,202774,
AMNE22.JPG,AMSA24.JPG,AMSA22.JPG,AMNE25.JPG,AMNE24.JPG,AMSA25.JPG,0,3,3,7,,,,,,,,,,,,,,,,,,,,,,,AFSA18.jpg,AFNE07.jpg,AFNE01.jpg,AFSA08.jpg,AFNE01.jpg,FN,3,num_2,16,num_2,1.100156617,,,2018_Jan_25_1322,60.0041378215,FEMA4ImagesEEG,001,202774,
AMSA21.JPG,AMNE23.JPG,AMNE21.JPG,AMSA25.JPG,AMNE25.JPG,AMSA23.JPG,0,4,4,5,,,,,,,,,,,,,,,,,,,,,,,AFNE15.jpg,AFSA10.jpg,AFNE19.jpg,AFSA04.jpg,AFSA10.jpg,FS,4,num_6,32,num_8,0.900235005683,,,2018_Jan_25_1322,60.0041378215,FEMA4ImagesEEG,001,202774,
AMNE23.JPG,AMNE24.JPG,AMNE22.JPG,AMSA24.JPG,AMSA22.JPG,AMSA23.JPG,0,5,5,9,,,,,,,,,,,,,,,,,,,,,,,AFNE06.jpg,AFSA04.jpg,AFNE20.jpg,AFSA12.jpg,AFSA12.jpg,FS,4,num_4,16,num_4,0.933407466873,,,2018_Jan_25_1322,60.0041378215,FEMA4ImagesEEG,001,202774,
AFNE23.JPG,AFNE24.JPG,AFNE22.JPG,AFSA24.JPG,AFSA22.JPG,AFSA23.JPG,0,6,6,8,,,,,,,,,,,,,,,,,,,,,,,AFSA20.jpg,AFNE01.jpg,AFSA18.jpg,AFNE05.jpg,AFNE01.jpg,FN,3,num_6,32,num_8,0.966862820118,,,2018_Jan_25_1322,60.0041378215,FEMA4ImagesEEG,001,202774,
AMSA25.JPG,AMNE24.JPG,AMSA24.JPG,AMNE26.JPG,AMSA21.JPG,AMNE25.JPG,0,7,7,3,,,,,,,,,,,,,,,,,,,,,,,AFSA10.jpg,AFSA02.jpg,AFNE13.jpg,AFNE06.jpg,AFNE06.jpg,FN,3,num_4,32,num_8,0.833497177664,,,2018_Jan_25_1322,60.0041378215,FEMA4ImagesEEG,001,202774,
AFSA25.JPG,AFNE24.JPG,AFSA24.JPG,AFNE21.JPG,AFSA21.JPG,AFNE25.JPG,0,8,8,2,,,,,,,,,,,,,,,,,,,,,,,AFNE16.jpg,AFNE03.jpg,AFSA19.jpg,AFSA17.jpg,AFNE16.jpg,FN,3,num_8,32,num_2,1.10018003096,,,2018_Jan_25_1322,60.0041378215,FEMA4ImagesEEG,001,202774,
AFNE22.JPG,AFSA24.JPG,AFSA22.JPG,AFNE25.JPG,AFNE24.JPG,AFSA25.JPG,0,9,9,6,,,,,,,,,,,,,,,,,,,,,,,AFNE02.jpg,AFNE12.jpg,AFSA17.jpg,AFSA18.jpg,AFNE02.jpg,FN,3,num_8,16,num_8,0.933504650879,,,2018_Jan_25_1322,60.0041378215,FEMA4ImagesEEG,001,202774,
AMNE22.JPG,AMSA24.JPG,AMSA22.JPG,AMNE25.JPG,AMNE24.JPG,AMSA25.JPG,,,,,0,0,0,7,,,,,,,,,,,,,,,,,,,AMSA11.jpg,AMSA07.jpg,AMNE11.jpg,AMNE13.jpg,AMSA11.jpg,MS,2,num_8,16,num_8,0.55025968657,,,2018_Jan_25_1322,60.0041378215,FEMA4ImagesEEG,001,202774,
AFSA25.JPG,AFNE24.JPG,AFSA24.JPG,AFNE21.JPG,AFSA21.JPG,AFNE25.JPG,,,,,0,1,1,2,,,,,,,,,,,,,,,,,,,AMNE15.jpg,AMSA17.jpg,AMSA19.jpg,AMNE16.jpg,AMSA17.jpg,MS,2,num_6,16,num_6,1.11666955866,,,2018_Jan_25_1322,60.0041378215,FEMA4ImagesEEG,001,202774,
AMSA21.JPG,AMNE23.JPG,AMNE21.JPG,AMSA25.JPG,AMNE25.JPG,AMSA23.JPG,,,,,0,2,2,5,,,,,,,,,,,,,,,,,,,AMSA14.jpg,AMNE04.jpg,AMSA07.jpg,AMNE15.jpg,AMNE04.jpg,MN,1,num_6,32,num_2,1.01709380052,,,2018_Jan_25_1322,60.0041378215,FEMA4ImagesEEG,001,202774,
AFNE22.JPG,AFSA24.JPG,AFSA22.JPG,AFNE25.JPG,AFNE24.JPG,AFSA25.JPG,,,,,0,3,3,6,,,,,,,,,,,,,,,,,,,AMNE17.jpg,AMNE10.jpg,AMSA09.jpg,AMSA13.jpg,AMNE10.jpg,MN,1,num_6,16,num_6,0.766809705703,,,2018_Jan_25_1322,60.0041378215,FEMA4ImagesEEG,001,202774,
AFSA21.JPG,AFNE22.JPG,AFNE21.JPG,AFSA23.JPG,AFSA22.JPG,AFNE23.JPG,,,,,0,4,4,0,,,,,,,,,,,,,,,,,,,AMNE09.jpg,AMSA12.jpg,AMSA03.jpg,AMNE16.jpg,AMSA12.jpg,MS,2,num_6,32,num_2,1.15014704294,,,2018_Jan_25_1322,60.0041378215,FEMA4ImagesEEG,001,202774,
AMSA21.JPG,AMNE22.JPG,AMNE21.JPG,AMSA23.JPG,AMSA22.JPG,AMNE23.JPG,,,,,0,5,5,1,,,,,,,,,,,,,,,,,,,AMSA15.jpg,AMNE15.jpg,AMNE12.jpg,AMSA17.jpg,AMNE12.jpg,MN,1,num_2,32,num_8,0.666894284645,,,2018_Jan_25_1322,60.0041378215,FEMA4ImagesEEG,001,202774,
AFSA21.JPG,AFNE23.JPG,AFNE21.JPG,AFSA25.JPG,AFNE25.JPG,AFSA23.JPG,,,,,0,6,6,4,,,,,,,,,,,,,,,,,,,AMSA10.jpg,AMSA19.jpg,AMNE20.jpg,AMNE01.jpg,AMSA10.jpg,MS,2,num_8,16,num_8,0.966827538796,,,2018_Jan_25_1322,60.0041378215,FEMA4ImagesEEG,001,202774,
AMNE23.JPG,AMNE24.JPG,AMNE22.JPG,AMSA24.JPG,AMSA22.JPG,AMSA23.JPG,,,,,0,7,7,9,,,,,,,,,,,,,,,,,,,AMNE09.jpg,AMSA18.jpg,AMNE01.jpg,AMSA05.jpg,AMNE01.jpg,MN,1,num_2,32,num_4,1.08354617057,,,2018_Jan_25_1322,60.0041378215,FEMA4ImagesEEG,001,202774,
AMSA25.JPG,AMNE24.JPG,AMSA24.JPG,AMNE26.JPG,AMSA21.JPG,AMNE25.JPG,,,,,0,8,8,3,,,,,,,,,,,,,,,,,,,AMNE02.jpg,AMSA07.jpg,AMSA12.jpg,AMNE14.jpg,AMNE14.jpg,MN,1,num_4,32,num_8,0.866846686942,,,2018_Jan_25_1322,60.0041378215,FEMA4ImagesEEG,001,202774,
AFNE23.JPG,AFNE24.JPG,AFNE22.JPG,AFSA24.JPG,AFSA22.JPG,AFSA23.JPG,,,,,0,9,9,8,,,,,,,,,,,,,,,,,,,AMSA16.jpg,AMNE16.jpg,AMNE20.jpg,AMSA01.jpg,AMSA01.jpg,MS,2,num_4,32,num_2,0.883477339943,,,2018_Jan_25_1322,60.0041378215,FEMA4ImagesEEG,001,202774,
AFSA21.JPG,AFNE22.JPG,AFNE21.JPG,AFSA23.JPG,AFSA22.JPG,AFNE23.JPG,,,,,,,,,0,0,0,0,,,,,,,,,,,,,,,AFSA15.jpg,AFSA11.jpg,AFNE05.jpg,AFNE08.jpg,AFNE05.jpg,FN,3,num_2,32,num_4,0.633289466889,,,2018_Jan_25_1322,60.0041378215,FEMA4ImagesEEG,001,202774,
AMSA25.JPG,AMNE24.JPG,AMSA24.JPG,AMNE26.JPG,AMSA21.JPG,AMNE25.JPG,,,,,,,,,0,1,1,3,,,,,,,,,,,,,,,AFNE10.jpg,AFSA09.jpg,AFNE14.jpg,AFSA16.jpg,AFNE10.jpg,FN,3,num_8,32,num_4,1.58347191944,,,2018_Jan_25_1322,60.0041378215,FEMA4ImagesEEG,001,202774,
AFSA21.JPG,AFNE23.JPG,AFNE21.JPG,AFSA25.JPG,AFNE25.JPG,AFSA23.JPG,,,,,,,,,0,2,2,4,,,,,,,,,,,,,,,AFSA13.jpg,AFNE07.jpg,AFSA20.jpg,AFNE06.jpg,AFSA20.jpg,FS,4,num_2,32,num_4,1.20006883066,,,2018_Jan_25_1322,60.0041378215,FEMA4ImagesEEG,001,202774,
AFSA25.JPG,AFNE24.JPG,AFSA24.JPG,AFNE21.JPG,AFSA21.JPG,AFNE25.JPG,,,,,,,,,0,3,3,2,,,,,,,,,,,,,,,AFSA19.jpg,AFNE01.jpg,AFNE14.jpg,AFSA15.jpg,AFNE01.jpg,FN,3,num_6,16,num_6,1.34874849132,,,2018_Jan_25_1322,60.0041378215,FEMA4ImagesEEG,001,202774,
AMNE23.JPG,AMNE24.JPG,AMNE22.JPG,AMSA24.JPG,AMSA22.JPG,AMSA23.JPG,,,,,,,,,0,4,4,9,,,,,,,,,,,,,,,AFSA09.jpg,AFSA02.jpg,AFNE12.jpg,AFNE08.jpg,AFSA02.jpg,FS,4,num_6,32,num_2,1.10011043053,,,2018_Jan_25_1322,60.0041378215,FEMA4ImagesEEG,001,202774,
AFNE22.JPG,AFSA24.JPG,AFSA22.JPG,AFNE25.JPG,AFNE24.JPG,AFSA25.JPG,,,,,,,,,0,5,5,6,,,,,,,,,,,,,,,AFNE01.jpg,AFNE14.jpg,AFSA08.jpg,AFSA14.jpg,AFSA08.jpg,FS,4,num_2,16,num_2,1.20004285077,,,2018_Jan_25_1322,60.0041378215,FEMA4ImagesEEG,001,202774,
AFNE23.JPG,AFNE24.JPG,AFNE22.JPG,AFSA24.JPG,AFSA22.JPG,AFSA23.JPG,,,,,,,,,0,6,6,8,,,,,,,,,,,,,,,AFNE08.jpg,AFSA04.jpg,AFNE01.jpg,AFSA14.jpg,AFSA14.jpg,FS,4,num_4,16,num_4,0.766792706519,,,2018_Jan_25_1322,60.0041378215,FEMA4ImagesEEG,001,202774,
AMSA21.JPG,AMNE23.JPG,AMNE21.JPG,AMSA25.JPG,AMNE25.JPG,AMSA23.JPG,,,,,,,,,0,7,7,5,,,,,,,,,,,,,,,AFNE11.jpg,AFSA15.jpg,AFSA12.jpg,AFNE20.jpg,AFSA12.jpg,FS,4,num_2,16,num_2,0.866820707059,,,2018_Jan_25_1322,60.0041378215,FEMA4ImagesEEG,001,202774,
AMSA21.JPG,AMNE22.JPG,AMNE21.JPG,AMSA23.JPG,AMSA22.JPG,AMNE23.JPG,,,,,,,,,0,8,8,1,,,,,,,,,,,,,,,AFNE09.jpg,AFSA05.jpg,AFNE07.jpg,AFSA02.jpg,AFSA02.jpg,FS,4,num_4,32,num_6,0.999978831213,,,2018_Jan_25_1322,60.0041378215,FEMA4ImagesEEG,001,202774,
AMNE22.JPG,AMSA24.JPG,AMSA22.JPG,AMNE25.JPG,AMNE24.JPG,AMSA25.JPG,,,,,,,,,0,9,9,7,,,,,,,,,,,,,,,AFSA11.jpg,AFSA01.jpg,AFNE02.jpg,AFNE14.jpg,AFNE14.jpg,FN,3,num_4,16,num_4,1.01672495033,,,2018_Jan_25_1322,60.0041378215,FEMA4ImagesEEG,001,202774,
AFSA21.JPG,AFNE22.JPG,AFNE21.JPG,AFSA23.JPG,AFSA22.JPG,AFNE23.JPG,,,,,,,,,,,,,0,0,0,0,,,,,,,,,,,AMSA08.jpg,AMNE10.jpg,AMSA04.jpg,AMNE04.jpg,AMNE04.jpg,MN,1,num_4,32,num_8,1.10013737265,,,2018_Jan_25_1322,60.0041378215,FEMA4ImagesEEG,001,202774,
AMSA21.JPG,AMNE22.JPG,AMNE21.JPG,AMSA23.JPG,AMSA22.JPG,AMNE23.JPG,,,,,,,,,,,,,0,1,1,1,,,,,,,,,,,AMNE01.jpg,AMSA04.jpg,AMSA01.jpg,AMNE06.jpg,AMNE06.jpg,MN,1,num_4,32,num_8,1.33247450042,,,2018_Jan_25_1322,60.0041378215,FEMA4ImagesEEG,001,202774,
AMNE23.JPG,AMNE24.JPG,AMNE22.JPG,AMSA24.JPG,AMSA22.JPG,AMSA23.JPG,,,,,,,,,,,,,0,2,2,9,,,,,,,,,,,AMNE17.jpg,AMSA02.jpg,AMSA13.jpg,AMNE06.jpg,AMSA13.jpg,MS,2,num_2,16,num_2,1.50011338133,,,2018_Jan_25_1322,60.0041378215,FEMA4ImagesEEG,001,202774,
AFSA21.JPG,AFNE23.JPG,AFNE21.JPG,AFSA25.JPG,AFNE25.JPG,AFSA23.JPG,,,,,,,,,,,,,0,3,3,4,,,,,,,,,,,AMNE07.jpg,AMSA12.jpg,AMSA13.jpg,AMNE17.jpg,AMNE17.jpg,MN,1,num_4,32,num_8,1.30015039466,,,2018_Jan_25_1322,60.0041378215,FEMA4ImagesEEG,001,202774,
AMNE22.JPG,AMSA24.JPG,AMSA22.JPG,AMNE25.JPG,AMNE24.JPG,AMSA25.JPG,,,,,,,,,,,,,0,4,4,7,,,,,,,,,,,AMSA19.jpg,AMNE17.jpg,AMNE13.jpg,AMSA12.jpg,AMNE13.jpg,MN,1,num_2,32,num_4,0.766842741839,,,2018_Jan_25_1322,60.0041378215,FEMA4ImagesEEG,001,202774,
AFSA25.JPG,AFNE24.JPG,AFSA24.JPG,AFNE21.JPG,AFSA21.JPG,AFNE25.JPG,,,,,,,,,,,,,0,5,5,2,,,,,,,,,,,AMSA20.jpg,AMNE10.jpg,AMNE04.jpg,AMSA08.jpg,AMNE10.jpg,MN,1,num_6,32,num_2,0.666806402078,,,2018_Jan_25_1322,60.0041378215,FEMA4ImagesEEG,001,202774,
AMSA25.JPG,AMNE24.JPG,AMSA24.JPG,AMNE26.JPG,AMSA21.JPG,AMNE25.JPG,,,,,,,,,,,,,0,6,6,3,,,,,,,,,,,AMSA02.jpg,AMNE08.jpg,AMSA01.jpg,AMNE15.jpg,AMNE15.jpg,MN,1,num_4,32,num_6,1.06680678697,,,2018_Jan_25_1322,60.0041378215,FEMA4ImagesEEG,001,202774,
AFNE22.JPG,AFSA24.JPG,AFSA22.JPG,AFNE25.JPG,AFNE24.JPG,AFSA25.JPG,,,,,,,,,,,,,0,7,7,6,,,,,,,,,,,AMSA14.jpg,AMNE08.jpg,AMNE04.jpg,AMSA06.jpg,AMNE08.jpg,MN,1,num_6,32,num_8,0.783540750082,,,2018_Jan_25_1322,60.0041378215,FEMA4ImagesEEG,001,202774,
AMSA21.JPG,AMNE23.JPG,AMNE21.JPG,AMSA25.JPG,AMNE25.JPG,AMSA23.JPG,,,,,,,,,,,,,0,8,8,5,,,,,,,,,,,AMSA09.jpg,AMNE14.jpg,AMNE16.jpg,AMSA13.jpg,AMNE16.jpg,MN,1,num_2,16,num_2,0.883419606864,,,2018_Jan_25_1322,60.0041378215,FEMA4ImagesEEG,001,202774,
AFNE23.JPG,AFNE24.JPG,AFNE22.JPG,AFSA24.JPG,AFSA22.JPG,AFSA23.JPG,,,,,,,,,,,,,0,9,9,8,,,,,,,,,,,AMNE14.jpg,AMSA06.jpg,AMSA07.jpg,AMNE05.jpg,AMSA06.jpg,MS,2,num_6,16,num_6,0.716748075632,,,2018_Jan_25_1322,60.0041378215,FEMA4ImagesEEG,001,202774,
AMSA21.JPG,AMNE22.JPG,AMNE21.JPG,AMSA23.JPG,AMSA22.JPG,AMNE23.JPG,,,,,,,,,,,,,,,,,0,0,0,1,,,,,,,AFSA16.jpg,AFNE11.jpg,AFSA10.jpg,AFNE05.jpg,AFNE11.jpg,FN,3,num_6,32,num_8,0.916811453717,,,2018_Jan_25_1322,60.0041378215,FEMA4ImagesEEG,001,202774,
AFNE23.JPG,AFNE24.JPG,AFNE22.JPG,AFSA24.JPG,AFSA22.JPG,AFSA23.JPG,,,,,,,,,,,,,,,,,0,1,1,8,,,,,,,AFSA06.jpg,AFSA07.jpg,AFNE01.jpg,AFNE02.jpg,AFSA07.jpg,FS,4,num_6,32,num_2,1.35152577286,,,2018_Jan_25_1322,60.0041378215,FEMA4ImagesEEG,001,202774,
AFNE22.JPG,AFSA24.JPG,AFSA22.JPG,AFNE25.JPG,AFNE24.JPG,AFSA25.JPG,,,,,,,,,,,,,,,,,0,2,2,6,,,,,,,AFNE09.jpg,AFSA07.jpg,AFNE20.jpg,AFSA18.jpg,AFSA18.jpg,FS,4,num_4,32,num_8,1.26679575353,,,2018_Jan_25_1322,60.0041378215,FEMA4ImagesEEG,001,202774,
AFSA25.JPG,AFNE24.JPG,AFSA24.JPG,AFNE21.JPG,AFSA21.JPG,AFNE25.JPG,,,,,,,,,,,,,,,,,0,3,3,2,,,,,,,AFNE01.jpg,AFSA12.jpg,AFNE13.jpg,AFSA06.jpg,AFSA12.jpg,FS,4,num_6,16,num_6,0.466661556231,,,2018_Jan_25_1322,60.0041378215,FEMA4ImagesEEG,001,202774,
AFSA21.JPG,AFNE23.JPG,AFNE21.JPG,AFSA25.JPG,AFNE25.JPG,AFSA23.JPG,,,,,,,,,,,,,,,,,0,4,4,4,,,,,,,AFNE15.jpg,AFSA10.jpg,AFNE02.jpg,AFSA17.jpg,AFSA17.jpg,FS,4,num_4,32,num_8,0.933451728895,,,2018_Jan_25_1322,60.0041378215,FEMA4ImagesEEG,001,202774,
AFSA21.JPG,AFNE22.JPG,AFNE21.JPG,AFSA23.JPG,AFSA22.JPG,AFNE23.JPG,,,,,,,,,,,,,,,,,0,5,5,0,,,,,,,AFSA17.jpg,AFNE19.jpg,AFSA16.jpg,AFNE04.jpg,AFSA17.jpg,FS,4,num_8,32,num_2,1.41685363094,,,2018_Jan_25_1322,60.0041378215,FEMA4ImagesEEG,001,202774,
AMSA21.JPG,AMNE23.JPG,AMNE21.JPG,AMSA25.JPG,AMNE25.JPG,AMSA23.JPG,,,,,,,,,,,,,,,,,0,6,6,5,,,,,,,AFNE12.jpg,AFNE07.jpg,AFSA14.jpg,AFSA06.jpg,AFSA06.jpg,FS,4,num_4,32,num_6,1.76674908597,,,2018_Jan_25_1322,60.0041378215,FEMA4ImagesEEG,001,202774,
AMNE23.JPG,AMNE24.JPG,AMNE22.JPG,AMSA24.JPG,AMSA22.JPG,AMSA23.JPG,,,,,,,,,,,,,,,,,0,7,7,9,,,,,,,AFSA07.jpg,AFNE15.jpg,AFNE19.jpg,AFSA19.jpg,AFNE15.jpg,FN,3,num_6,32,num_4,1.3167194657,,,2018_Jan_25_1322,60.0041378215,FEMA4ImagesEEG,001,202774,
AMSA25.JPG,AMNE24.JPG,AMSA24.JPG,AMNE26.JPG,AMSA21.JPG,AMNE25.JPG,,,,,,,,,,,,,,,,,0,8,8,3,,,,,,,AFSA04.jpg,AFNE05.jpg,AFSA10.jpg,AFNE07.jpg,AFSA04.jpg,FS,4,num_8,16,num_8,0.500170472922,,,2018_Jan_25_1322,60.0041378215,FEMA4ImagesEEG,001,202774,
AMNE22.JPG,AMSA24.JPG,AMSA22.JPG,AMNE25.JPG,AMNE24.JPG,AMSA25.JPG,,,,,,,,,,,,,,,,,0,9,9,7,,,,,,,AFSA01.jpg,AFNE13.jpg,AFNE07.jpg,AFSA17.jpg,AFNE13.jpg,FN,3,num_6,16,num_6,0.750260199755,,,2018_Jan_25_1322,60.0041378215,FEMA4ImagesEEG,001,202774,
AFSA25.JPG,AFNE24.JPG,AFSA24.JPG,AFNE21.JPG,AFSA21.JPG,AFNE25.JPG,,,,,,,,,,,,,,,,,,,,,0,0,0,2,,,AMNE19.jpg,AMSA20.jpg,AMNE14.jpg,AMSA15.jpg,AMNE14.jpg,MN,1,num_2,32,num_8,0.71689337054,,,2018_Jan_25_1322,60.0041378215,FEMA4ImagesEEG,001,202774,
AMNE22.JPG,AMSA24.JPG,AMSA22.JPG,AMNE25.JPG,AMNE24.JPG,AMSA25.JPG,,,,,,,,,,,,,,,,,,,,,0,1,1,7,,,AMSA15.jpg,AMNE05.jpg,AMNE15.jpg,AMSA18.jpg,AMNE15.jpg,MN,1,num_2,16,num_2,1.26671460649,,,2018_Jan_25_1322,60.0041378215,FEMA4ImagesEEG,001,202774,
AMNE23.JPG,AMNE24.JPG,AMNE22.JPG,AMSA24.JPG,AMSA22.JPG,AMSA23.JPG,,,,,,,,,,,,,,,,,,,,,0,2,2,9,,,AMNE01.jpg,AMSA08.jpg,AMNE08.jpg,AMSA07.jpg,AMNE01.jpg,MN,1,num_8,32,num_6,0.633453685412,,,2018_Jan_25_1322,60.0041378215,FEMA4ImagesEEG,001,202774,
AFNE23.JPG,AFNE24.JPG,AFNE22.JPG,AFSA24.JPG,AFSA22.JPG,AFSA23.JPG,,,,,,,,,,,,,,,,,,,,,0,3,3,8,,,AMNE18.jpg,AMNE11.jpg,AMSA05.jpg,AMSA16.jpg,AMSA16.jpg,MS,2,num_4,16,num_4,0.633479023803,,,2018_Jan_25_1322,60.0041378215,FEMA4ImagesEEG,001,202774,
AFNE22.JPG,AFSA24.JPG,AFSA22.JPG,AFNE25.JPG,AFNE24.JPG,AFSA25.JPG,,,,,,,,,,,,,,,,,,,,,0,4,4,6,,,AMSA12.jpg,AMSA03.jpg,AMNE16.jpg,AMNE08.jpg,AMSA03.jpg,MS,2,num_6,32,num_4,0.766802328697,,,2018_Jan_25_1322,60.0041378215,FEMA4ImagesEEG,001,202774,
AMSA21.JPG,AMNE23.JPG,AMNE21.JPG,AMSA25.JPG,AMNE25.JPG,AMSA23.JPG,,,,,,,,,,,,,,,,,,,,,0,5,5,5,,,AMSA06.jpg,AMNE15.jpg,AMNE03.jpg,AMSA11.jpg,AMNE03.jpg,MN,1,num_2,32,num_8,0.816777359141,,,2018_Jan_25_1322,60.0041378215,FEMA4ImagesEEG,001,202774,
AMSA25.JPG,AMNE24.JPG,AMSA24.JPG,AMNE26.JPG,AMSA21.JPG,AMNE25.JPG,,,,,,,,,,,,,,,,,,,,,0,6,6,3,,,AMSA13.jpg,AMNE17.jpg,AMNE01.jpg,AMSA07.jpg,AMSA07.jpg,MS,2,num_4,32,num_6,1.20008101875,,,2018_Jan_25_1322,60.0041378215,FEMA4ImagesEEG,001,202774,
AFSA21.JPG,AFNE23.JPG,AFNE21.JPG,AFSA25.JPG,AFNE25.JPG,AFSA23.JPG,,,,,,,,,,,,,,,,,,,,,0,7,7,4,,,AMNE12.jpg,AMSA08.jpg,AMSA10.jpg,AMNE15.jpg,AMSA10.jpg,MS,2,num_2,16,num_2,1.75003632373,,,2018_Jan_25_1322,60.0041378215,FEMA4ImagesEEG,001,202774,
AMSA21.JPG,AMNE22.JPG,AMNE21.JPG,AMSA23.JPG,AMSA22.JPG,AMNE23.JPG,,,,,,,,,,,,,,,,,,,,,0,8,8,1,,,AMNE15.jpg,AMNE12.jpg,AMSA16.jpg,AMSA05.jpg,AMSA05.jpg,MS,2,num_4,32,num_6,0.800111424833,,,2018_Jan_25_1322,60.0041378215,FEMA4ImagesEEG,001,202774,
AFSA21.JPG,AFNE22.JPG,AFNE21.JPG,AFSA23.JPG,AFSA22.JPG,AFNE23.JPG,,,,,,,,,,,,,,,,,,,,,0,9,9,0,,,AMSA09.jpg,AMSA20.jpg,AMNE18.jpg,AMNE15.jpg,AMNE15.jpg,MN,1,num_4,32,num_8,0.583466787604,,,2018_Jan_25_1322,60.0041378215,FEMA4ImagesEEG,001,202774,
,,,,,,,,,,,,,,,,,,,,,,,,,,,,,,,,,,,,,,,,,,,space,3.8499013887,2018_Jan_25_1322,60.0041378215,FEMA4ImagesEEG,001,202774,
AFNE01.JPG,AFNE01.JPG,AFNE01.JPG,AFNE01.JPG,AFNE01.JPG,AFNE01.JPG,0,0,0,3,,,,,,,,,,,,,,,,,,,,,,,AFNE06.jpg,AFSA16.jpg,AFNE20.jpg,AFSA14.jpg,AFNE20.jpg,FN,3,num_2,32,num_8,0.916818830723,,,2018_Jan_25_1322,60.0041378215,FEMA4ImagesEEG,001,202774,
AFNE01.JPG,AFNE01.JPG,AFNE01.JPG,AFNE01.JPG,AFNE01.JPG,AFNE01.JPG,0,1,1,8,,,,,,,,,,,,,,,,,,,,,,,AFNE11.jpg,AFSA03.jpg,AFSA01.jpg,AFNE07.jpg,AFNE07.jpg,FN,3,num_4,16,num_4,0.93346584143,,,2018_Jan_25_1322,60.0041378215,FEMA4ImagesEEG,001,202774,
AFNE01.JPG,AFNE01.JPG,AFNE01.JPG,AFNE01.JPG,AFNE01.JPG,AFNE01.JPG,0,2,2,0,,,,,,,,,,,,,,,,,,,,,,,AFNE18.jpg,AFSA06.jpg,AFNE12.jpg,AFSA13.jpg,AFSA06.jpg,FS,4,num_6,16,num_6,0.666784591813,,,2018_Jan_25_1322,60.0041378215,FEMA4ImagesEEG,001,202774,
AFNE01.JPG,AFNE01.JPG,AFNE01.JPG,AFNE01.JPG,AFNE01.JPG,AFNE01.JPG,0,3,3,1,,,,,,,,,,,,,,,,,,,,,,,AFNE06.jpg,AFNE10.jpg,AFSA06.jpg,AFSA04.jpg,AFNE10.jpg,FN,3,num_6,32,num_8,0.950133058694,,,2018_Jan_25_1322,60.0041378215,FEMA4ImagesEEG,001,202774,
AFNE01.JPG,AFNE01.JPG,AFNE01.JPG,AFNE01.JPG,AFNE01.JPG,AFNE01.JPG,0,4,4,9,,,,,,,,,,,,,,,,,,,,,,,AFNE07.jpg,AFSA15.jpg,AFNE13.jpg,AFSA11.jpg,AFNE13.jpg,FN,3,num_2,32,num_8,0.783485903667,,,2018_Jan_25_1322,60.0041378215,FEMA4ImagesEEG,001,202774,
AFNE01.JPG,AFNE01.JPG,AFNE01.JPG,AFNE01.JPG,AFNE01.JPG,AFNE01.JPG,0,5,5,2,,,,,,,,,,,,,,,,,,,,,,,AFNE14.jpg,AFSA08.jpg,AFNE17.jpg,AFSA10.jpg,AFNE14.jpg,FN,3,num_8,32,num_2,1.20013297851,,,2018_Jan_25_1322,60.0041378215,FEMA4ImagesEEG,001,202774,
AFNE01.JPG,AFNE01.JPG,AFNE01.JPG,AFNE01.JPG,AFNE01.JPG,AFNE01.JPG,0,6,6,5,,,,,,,,,,,,,,,,,,,,,,,AFNE07.jpg,AFSA07.jpg,AFSA02.jpg,AFNE10.jpg,AFSA07.jpg,FS,4,num_6,32,num_8,1.50009606141,,,2018_Jan_25_1322,60.0041378215,FEMA4ImagesEEG,001,202774,
AFNE01.JPG,AFNE01.JPG,AFNE01.JPG,AFNE01.JPG,AFNE01.JPG,AFNE01.JPG,0,7,7,4,,,,,,,,,,,,,,,,,,,,,,,AFNE06.jpg,AFSA14.jpg,AFNE04.jpg,AFSA12.jpg,AFSA14.jpg,FS,4,num_6,16,num_6,0.883475736235,,,2018_Jan_25_1322,60.0041378215,FEMA4ImagesEEG,001,202774,
AFNE01.JPG,AFNE01.JPG,AFNE01.JPG,AFNE01.JPG,AFNE01.JPG,AFNE01.JPG,0,8,8,7,,,,,,,,,,,,,,,,,,,,,,,AFNE18.jpg,AFNE03.jpg,AFSA01.jpg,AFSA09.jpg,AFSA09.jpg,FS,4,num_4,32,num_6,0.733618000144,,,2018_Jan_25_1322,60.0041378215,FEMA4ImagesEEG,001,202774,
AFNE01.JPG,AFNE01.JPG,AFNE01.JPG,AFNE01.JPG,AFNE01.JPG,AFNE01.JPG,0,9,9,6,,,,,,,,,,,,,,,,,,,,,,,AFSA02.jpg,AFNE09.jpg,AFNE18.jpg,AFSA01.jpg,AFNE09.jpg,FN,3,num_6,32,num_8,0.916799586383,,,2018_Jan_25_1322,60.0041378215,FEMA4ImagesEEG,001,202774,
AFNE01.JPG,AFNE01.JPG,AFNE01.JPG,AFNE01.JPG,AFNE01.JPG,AFNE01.JPG,1,0,10,9,,,,,,,,,,,,,,,,,,,,,,,AFNE07.jpg,AFSA04.jpg,AFNE14.jpg,AFSA03.jpg,AFSA03.jpg,FS,4,num_4,32,num_6,1.0000808263,,,2018_Jan_25_1322,60.0041378215,FEMA4ImagesEEG,001,202774,
AFNE01.JPG,AFNE01.JPG,AFNE01.JPG,AFNE01.JPG,AFNE01.JPG,AFNE01.JPG,1,1,11,5,,,,,,,,,,,,,,,,,,,,,,,AFNE14.jpg,AFNE02.jpg,AFSA04.jpg,AFSA11.jpg,AFNE14.jpg,FN,3,num_8,16,num_8,0.783433302422,,,2018_Jan_25_1322,60.0041378215,FEMA4ImagesEEG,001,202774,
AFNE01.JPG,AFNE01.JPG,AFNE01.JPG,AFNE01.JPG,AFNE01.JPG,AFNE01.JPG,1,2,12,2,,,,,,,,,,,,,,,,,,,,,,,AFSA10.jpg,AFSA17.jpg,AFNE16.jpg,AFNE03.jpg,AFSA17.jpg,FS,4,num_6,32,num_4,0.800096029343,,,2018_Jan_25_1322,60.0041378215,FEMA4ImagesEEG,001,202774,
AFNE01.JPG,AFNE01.JPG,AFNE01.JPG,AFNE01.JPG,AFNE01.JPG,AFNE01.JPG,1,3,13,8,,,,,,,,,,,,,,,,,,,,,,,AFSA09.jpg,AFSA05.jpg,AFNE11.jpg,AFNE05.jpg,AFSA05.jpg,FS,4,num_6,32,num_2,1.05012577791,,,2018_Jan_25_1322,60.0041378215,FEMA4ImagesEEG,001,202774,
AFNE01.JPG,AFNE01.JPG,AFNE01.JPG,AFNE01.JPG,AFNE01.JPG,AFNE01.JPG,1,4,14,0,,,,,,,,,,,,,,,,,,,,,,,AFNE12.jpg,AFNE19.jpg,AFSA15.jpg,AFSA02.jpg,AFSA02.jpg,FS,4,num_4,32,num_8,0.750130621076,,,2018_Jan_25_1322,60.0041378215,FEMA4ImagesEEG,001,202774,
AFNE01.JPG,AFNE01.JPG,AFNE01.JPG,AFNE01.JPG,AFNE01.JPG,AFNE01.JPG,1,5,15,1,,,,,,,,,,,,,,,,,,,,,,,AFSA20.jpg,AFNE09.jpg,AFSA03.jpg,AFNE16.jpg,AFNE16.jpg,FN,3,num_4,32,num_2,1.11677508189,,,2018_Jan_25_1322,60.0041378215,FEMA4ImagesEEG,001,202774,
AFNE01.JPG,AFNE01.JPG,AFNE01.JPG,AFNE01.JPG,AFNE01.JPG,AFNE01.JPG,1,6,16,6,,,,,,,,,,,,,,,,,,,,,,,AFNE16.jpg,AFNE13.jpg,AFSA09.jpg,AFSA14.jpg,AFNE16.jpg,FN,3,num_8,32,num_2,1.46677413571,,,2018_Jan_25_1322,60.0041378215,FEMA4ImagesEEG,001,202774,
AFNE01.JPG,AFNE01.JPG,AFNE01.JPG,AFNE01.JPG,AFNE01.JPG,AFNE01.JPG,1,7,17,4,,,,,,,,,,,,,,,,,,,,,,,AFNE03.jpg,AFSA05.jpg,AFSA11.jpg,AFNE12.jpg,AFSA05.jpg,FS,4,num_6,16,num_6,0.950134341649,,,2018_Jan_25_1322,60.0041378215,FEMA4ImagesEEG,001,202774,
AFNE01.JPG,AFNE01.JPG,AFNE01.JPG,AFNE01.JPG,AFNE01.JPG,AFNE01.JPG,1,8,18,3,,,,,,,,,,,,,,,,,,,,,,,AFNE19.jpg,AFNE13.jpg,AFSA20.jpg,AFSA15.jpg,AFSA15.jpg,FS,4,num_4,32,num_8,0.76674138823,,,2018_Jan_25_1322,60.0041378215,FEMA4ImagesEEG,001,202774,
AFNE01.JPG,AFNE01.JPG,AFNE01.JPG,AFNE01.JPG,AFNE01.JPG,AFNE01.JPG,1,9,19,7,,,,,,,,,,,,,,,,,,,,,,,AFSA06.jpg,AFSA19.jpg,AFNE13.jpg,AFNE18.jpg,AFSA06.jpg,FS,4,num_8,32,num_4,0.716802922063,,,2018_Jan_25_1322,60.0041378215,FEMA4ImagesEEG,001,202774,
AFNE01.JPG,AFNE01.JPG,AFNE01.JPG,AFNE01.JPG,AFNE01.JPG,AFNE01.JPG,2,0,20,7,,,,,,,,,,,,,,,,,,,,,,,AFSA08.jpg,AFSA02.jpg,AFNE13.jpg,AFNE15.jpg,AFSA02.jpg,FS,4,num_6,32,num_2,0.98343189116,,,2018_Jan_25_1322,60.0041378215,FEMA4ImagesEEG,001,202774,
AFNE01.JPG,AFNE01.JPG,AFNE01.JPG,AFNE01.JPG,AFNE01.JPG,AFNE01.JPG,2,1,21,1,,,,,,,,,,,,,,,,,,,,,,,AFNE19.jpg,AFSA02.jpg,AFNE12.jpg,AFSA12.jpg,AFNE12.jpg,FN,3,num_2,32,num_8,1.00009237292,,,2018_Jan_25_1322,60.0041378215,FEMA4ImagesEEG,001,202774,
AFNE01.JPG,AFNE01.JPG,AFNE01.JPG,AFNE01.JPG,AFNE01.JPG,AFNE01.JPG,2,2,22,8,,,,,,,,,,,,,,,,,,,,,,,AFNE20.jpg,AFNE01.jpg,AFSA12.jpg,AFSA07.jpg,AFNE20.jpg,FN,3,num_8,16,num_8,0.816740794864,,,2018_Jan_25_1322,60.0041378215,FEMA4ImagesEEG,001,202774,
AFNE01.JPG,AFNE01.JPG,AFNE01.JPG,AFNE01.JPG,AFNE01.JPG,AFNE01.JPG,2,3,23,3,,,,,,,,,,,,,,,,,,,,,,,AFSA01.jpg,AFSA05.jpg,AFNE18.jpg,AFNE14.jpg,AFNE18.jpg,FN,3,num_2,16,num_2,1.11672665026,,,2018_Jan_25_1322,60.0041378215,FEMA4ImagesEEG,001,202774,
AFNE01.JPG,AFNE01.JPG,AFNE01.JPG,AFNE01.JPG,AFNE01.JPG,AFNE01.JPG,2,4,24,5,,,,,,,,,,,,,,,,,,,,,,,AFSA13.jpg,AFNE10.jpg,AFSA12.jpg,AFNE08.jpg,AFSA13.jpg,FS,4,num_8,32,num_6,0.816779925051,,,2018_Jan_25_1322,60.0041378215,FEMA4ImagesEEG,001,202774,
AFNE01.JPG,AFNE01.JPG,AFNE01.JPG,AFNE01.JPG,AFNE01.JPG,AFNE01.JPG,2,5,25,0,,,,,,,,,,,,,,,,,,,,,,,AFNE11.jpg,AFNE18.jpg,AFSA17.jpg,AFSA15.jpg,AFSA17.jpg,FS,4,num_2,32,num_8,0.933469690295,,,2018_Jan_25_1322,60.0041378215,FEMA4ImagesEEG,001,202774,
AFNE01.JPG,AFNE01.JPG,AFNE01.JPG,AFNE01.JPG,AFNE01.JPG,AFNE01.JPG,2,6,26,4,,,,,,,,,,,,,,,,,,,,,,,AFSA10.jpg,AFSA14.jpg,AFNE19.jpg,AFNE04.jpg,AFSA14.jpg,FS,4,num_6,32,num_4,0.966761787247,,,2018_Jan_25_1322,60.0041378215,FEMA4ImagesEEG,001,202774,
AFNE01.JPG,AFNE01.JPG,AFNE01.JPG,AFNE01.JPG,AFNE01.JPG,AFNE01.JPG,2,7,27,2,,,,,,,,,,,,,,,,,,,,,,,AFSA18.jpg,AFSA08.jpg,AFNE11.jpg,AFNE12.jpg,AFSA08.jpg,FS,4,num_6,32,num_8,0.866823593722,,,2018_Jan_25_1322,60.0041378215,FEMA4ImagesEEG,001,202774,
AFNE01.JPG,AFNE01.JPG,AFNE01.JPG,AFNE01.JPG,AFNE01.JPG,AFNE01.JPG,2,8,28,6,,,,,,,,,,,,,,,,,,,,,,,AFSA14.jpg,AFSA01.jpg,AFNE08.jpg,AFNE10.jpg,AFNE10.jpg,FN,3,num_4,32,num_2,1.16679533658,,,2018_Jan_25_1322,60.0041378215,FEMA4ImagesEEG,001,202774,
AFNE01.JPG,AFNE01.JPG,AFNE01.JPG,AFNE01.JPG,AFNE01.JPG,AFNE01.JPG,2,9,29,9,,,,,,,,,,,,,,,,,,,,,,,AFNE13.jpg,AFNE16.jpg,AFSA15.jpg,AFSA14.jpg,AFNE16.jpg,FN,3,num_6,32,num_8,0.716828581208,,,2018_Jan_25_1322,60.0041378215,FEMA4ImagesEEG,001,202774,
AFNE01.JPG,AFNE01.JPG,AFNE01.JPG,AFNE01.JPG,AFNE01.JPG,AFNE01.JPG,3,0,30,3,,,,,,,,,,,,,,,,,,,,,,,AFSA05.jpg,AFNE09.jpg,AFNE20.jpg,AFSA07.jpg,AFSA05.jpg,FS,4,num_8,32,num_6,0.683442828391,,,2018_Jan_25_1322,60.0041378215,FEMA4ImagesEEG,001,202774,
AFNE01.JPG,AFNE01.JPG,AFNE01.JPG,AFNE01.JPG,AFNE01.JPG,AFNE01.JPG,3,1,31,9,,,,,,,,,,,,,,,,,,,,,,,AFNE08.jpg,AFNE04.jpg,AFSA09.jpg,AFSA11.jpg,AFSA11.jpg,FS,4,num_4,32,num_8,0.749934328633,,,2018_Jan_25_1322,60.0041378215,FEMA4ImagesEEG,001,202774,
AFNE01.JPG,AFNE01.JPG,AFNE01.JPG,AFNE01.JPG,AFNE01.JPG,AFNE01.JPG,3,2,32,1,,,,,,,,,,,,,,,,,,,,,,,AFNE05.jpg,AFSA18.jpg,AFSA04.jpg,AFNE02.jpg,AFNE02.jpg,FN,3,num_4,32,num_8,0.766778593985,,,2018_Jan_25_1322,60.0041378215,FEMA4ImagesEEG,001,202774,
AFNE01.JPG,AFNE01.JPG,AFNE01.JPG,AFNE01.JPG,AFNE01.JPG,AFNE01.JPG,3,3,33,5,,,,,,,,,,,,,,,,,,,,,,,AFNE07.jpg,AFNE04.jpg,AFSA17.jpg,AFSA20.jpg,AFSA17.jpg,FS,4,num_2,16,num_2,1.26687176875,,,2018_Jan_25_1322,60.0041378215,FEMA4ImagesEEG,001,202774,
AFNE01.JPG,AFNE01.JPG,AFNE01.JPG,AFNE01.JPG,AFNE01.JPG,AFNE01.JPG,3,4,34,8,,,,,,,,,,,,,,,,,,,,,,,AFSA13.jpg,AFSA17.jpg,AFNE11.jpg,AFNE12.jpg,AFNE12.jpg,FN,3,num_4,32,num_8,0.766764160726,,,2018_Jan_25_1322,60.0041378215,FEMA4ImagesEEG,001,202774,
AFNE01.JPG,AFNE01.JPG,AFNE01.JPG,AFNE01.JPG,AFNE01.JPG,AFNE01.JPG,3,5,35,6,,,,,,,,,,,,,,,,,,,,,,,AFSA14.jpg,AFNE03.jpg,AFSA13.jpg,AFNE02.jpg,AFSA13.jpg,FS,4,num_2,16,num_2,1.33344345383,,,2018_Jan_25_1322,60.0041378215,FEMA4ImagesEEG,001,202774,
AFNE01.JPG,AFNE01.JPG,AFNE01.JPG,AFNE01.JPG,AFNE01.JPG,AFNE01.JPG,3,6,36,4,,,,,,,,,,,,,,,,,,,,,,,AFSA19.jpg,AFSA01.jpg,AFNE02.jpg,AFNE14.jpg,AFSA01.jpg,FS,4,num_6,32,num_8,1.13343748807,,,2018_Jan_25_1322,60.0041378215,FEMA4ImagesEEG,001,202774,
AFNE01.JPG,AFNE01.JPG,AFNE01.JPG,AFNE01.JPG,AFNE01.JPG,AFNE01.JPG,3,7,37,2,,,,,,,,,,,,,,,,,,,,,,,AFSA16.jpg,AFSA17.jpg,AFNE04.jpg,AFNE19.jpg,AFSA17.jpg,FS,4,num_6,16,num_6,0.700278433767,,,2018_Jan_25_1322,60.0041378215,FEMA4ImagesEEG,001,202774,
AFNE01.JPG,AFNE01.JPG,AFNE01.JPG,AFNE01.JPG,AFNE01.JPG,AFNE01.JPG,3,8,38,0,,,,,,,,,,,,,,,,,,,,,,,AFNE05.jpg,AFNE10.jpg,AFSA08.jpg,AFSA10.jpg,AFSA10.jpg,FS,4,num_4,32,num_8,1.05009177954,,,2018_Jan_25_1322,60.0041378215,FEMA4ImagesEEG,001,202774,
AFNE01.JPG,AFNE01.JPG,AFNE01.JPG,AFNE01.JPG,AFNE01.JPG,AFNE01.JPG,3,9,39,7,,,,,,,,,,,,,,,,,,,,,,,AFSA01.jpg,AFSA10.jpg,AFNE05.jpg,AFNE10.jpg,AFSA01.jpg,FS,4,num_8,16,num_8,1.06678401449,,,2018_Jan_25_1322,60.0041378215,FEMA4ImagesEEG,001,202774,
AFNE01.JPG,AFNE01.JPG,AFNE01.JPG,AFNE01.JPG,AFNE01.JPG,AFNE01.JPG,4,0,40,4,,,,,,,,,,,,,,,,,,,,,,,AFSA18.jpg,AFNE16.jpg,AFSA01.jpg,AFNE19.jpg,AFSA01.jpg,FS,4,num_2,16,num_2,1.15009764906,,,2018_Jan_25_1322,60.0041378215,FEMA4ImagesEEG,001,202774,
AFNE01.JPG,AFNE01.JPG,AFNE01.JPG,AFNE01.JPG,AFNE01.JPG,AFNE01.JPG,4,1,41,1,,,,,,,,,,,,,,,,,,,,,,,AFNE10.jpg,AFNE07.jpg,AFSA03.jpg,AFSA02.jpg,AFSA03.jpg,FS,4,num_2,32,num_8,1.10013192007,,,2018_Jan_25_1322,60.0041378215,FEMA4ImagesEEG,001,202774,
AFNE01.JPG,AFNE01.JPG,AFNE01.JPG,AFNE01.JPG,AFNE01.JPG,AFNE01.JPG,4,2,42,7,,,,,,,,,,,,,,,,,,,,,,,AFNE03.jpg,AFSA18.jpg,AFSA01.jpg,AFNE18.jpg,AFSA01.jpg,FS,4,num_2,16,num_2,0.733430367647,,,2018_Jan_25_1322,60.0041378215,FEMA4ImagesEEG,001,202774,
AFNE01.JPG,AFNE01.JPG,AFNE01.JPG,AFNE01.JPG,AFNE01.JPG,AFNE01.JPG,4,3,43,0,,,,,,,,,,,,,,,,,,,,,,,AFSA05.jpg,AFSA17.jpg,AFNE03.jpg,AFNE05.jpg,AFSA05.jpg,FS,4,num_8,16,num_8,0.700290942608,,,2018_Jan_25_1322,60.0041378215,FEMA4ImagesEEG,001,202774,
AFNE01.JPG,AFNE01.JPG,AFNE01.JPG,AFNE01.JPG,AFNE01.JPG,AFNE01.JPG,4,4,44,8,,,,,,,,,,,,,,,,,,,,,,,AFSA02.jpg,AFNE01.jpg,AFSA18.jpg,AFNE16.jpg,AFSA18.jpg,FS,4,num_2,16,num_2,1.00012059798,,,2018_Jan_25_1322,60.0041378215,FEMA4ImagesEEG,001,202774,
AFNE01.JPG,AFNE01.JPG,AFNE01.JPG,AFNE01.JPG,AFNE01.JPG,AFNE01.JPG,4,5,45,3,,,,,,,,,,,,,,,,,,,,,,,AFNE13.jpg,AFNE06.jpg,AFSA10.jpg,AFSA18.jpg,AFSA18.jpg,FS,4,num_4,16,num_4,0.900132369105,,,2018_Jan_25_1322,60.0041378215,FEMA4ImagesEEG,001,202774,
AFNE01.JPG,AFNE01.JPG,AFNE01.JPG,AFNE01.JPG,AFNE01.JPG,AFNE01.JPG,4,6,46,5,,,,,,,,,,,,,,,,,,,,,,,AFNE15.jpg,AFSA04.jpg,AFNE02.jpg,AFSA20.jpg,AFSA04.jpg,FS,4,num_6,16,num_6,1.18343304582,,,2018_Jan_25_1322,60.0041378215,FEMA4ImagesEEG,001,202774,
AFNE01.JPG,AFNE01.JPG,AFNE01.JPG,AFNE01.JPG,AFNE01.JPG,AFNE01.JPG,4,7,47,2,,,,,,,,,,,,,,,,,,,,,,,AFNE09.jpg,AFSA10.jpg,AFNE11.jpg,AFSA01.jpg,AFSA01.jpg,FS,4,num_4,16,num_4,0.816765491792,,,2018_Jan_25_1322,60.0041378215,FEMA4ImagesEEG,001,202774,
AFNE01.JPG,AFNE01.JPG,AFNE01.JPG,AFNE01.JPG,AFNE01.JPG,AFNE01.JPG,4,8,48,9,,,,,,,,,,,,,,,,,,,,,,,AFSA14.jpg,AFSA19.jpg,AFNE11.jpg,AFNE06.jpg,AFNE06.jpg,FN,3,num_4,32,num_8,1.01658350432,,,2018_Jan_25_1322,60.0041378215,FEMA4ImagesEEG,001,202774,
AFNE01.JPG,AFNE01.JPG,AFNE01.JPG,AFNE01.JPG,AFNE01.JPG,AFNE01.JPG,4,9,49,6,,,,,,,,,,,,,,,,,,,,,,,AFNE12.jpg,AFSA16.jpg,AFSA01.jpg,AFNE18.jpg,AFSA01.jpg,FS,4,num_2,32,num_8,0.966774296074,,,2018_Jan_25_1322,60.0041378215,FEMA4ImagesEEG,001,202774,
AFNE01.JPG,AFNE01.JPG,AFNE01.JPG,AFNE01.JPG,AFNE01.JPG,AFNE01.JPG,5,0,50,4,,,,,,,,,,,,,,,,,,,,,,,AFSA04.jpg,AFNE08.jpg,AFNE06.jpg,AFSA08.jpg,AFSA08.jpg,FS,4,num_4,16,num_4,1.26674892561,,,2018_Jan_25_1322,60.0041378215,FEMA4ImagesEEG,001,202774,
AFNE01.JPG,AFNE01.JPG,AFNE01.JPG,AFNE01.JPG,AFNE01.JPG,AFNE01.JPG,5,1,51,7,,,,,,,,,,,,,,,,,,,,,,,AFNE04.jpg,AFSA04.jpg,AFSA17.jpg,AFNE08.jpg,AFSA17.jpg,FS,4,num_2,16,num_2,1.10036349384,,,2018_Jan_25_1322,60.0041378215,FEMA4ImagesEEG,001,202774,
AFNE01.JPG,AFNE01.JPG,AFNE01.JPG,AFNE01.JPG,AFNE01.JPG,AFNE01.JPG,5,2,52,5,,,,,,,,,,,,,,,,,,,,,,,AFSA04.jpg,AFNE19.jpg,AFNE20.jpg,AFSA12.jpg,AFNE20.jpg,FN,3,num_2,32,num_4,1.01684426537,,,2018_Jan_25_1322,60.0041378215,FEMA4ImagesEEG,001,202774,
AFNE01.JPG,AFNE01.JPG,AFNE01.JPG,AFNE01.JPG,AFNE01.JPG,AFNE01.JPG,5,3,53,6,,,,,,,,,,,,,,,,,,,,,,,AFSA20.jpg,AFNE05.jpg,AFSA15.jpg,AFNE14.jpg,AFSA15.jpg,FS,4,num_2,16,num_2,1.16677384704,,,2018_Jan_25_1322,60.0041378215,FEMA4ImagesEEG,001,202774,
AFNE01.JPG,AFNE01.JPG,AFNE01.JPG,AFNE01.JPG,AFNE01.JPG,AFNE01.JPG,5,4,54,1,,,,,,,,,,,,,,,,,,,,,,,AFNE10.jpg,AFNE03.jpg,AFSA20.jpg,AFSA06.jpg,AFSA20.jpg,FS,4,num_2,32,num_4,1.05010364691,,,2018_Jan_25_1322,60.0041378215,FEMA4ImagesEEG,001,202774,
AFNE01.JPG,AFNE01.JPG,AFNE01.JPG,AFNE01.JPG,AFNE01.JPG,AFNE01.JPG,5,5,55,3,,,,,,,,,,,,,,,,,,,,,,,AFNE19.jpg,AFNE08.jpg,AFSA10.jpg,AFSA17.jpg,AFSA17.jpg,FS,4,num_4,32,num_2,0.916767833187,,,2018_Jan_25_1322,60.0041378215,FEMA4ImagesEEG,001,202774,
AFNE01.JPG,AFNE01.JPG,AFNE01.JPG,AFNE01.JPG,AFNE01.JPG,AFNE01.JPG,5,6,56,0,,,,,,,,,,,,,,,,,,,,,,,AFNE05.jpg,AFSA17.jpg,AFSA07.jpg,AFNE17.jpg,AFSA17.jpg,FS,4,num_6,32,num_2,0.950162887457,,,2018_Jan_25_1322,60.0041378215,FEMA4ImagesEEG,001,202774,
AFNE01.JPG,AFNE01.JPG,AFNE01.JPG,AFNE01.JPG,AFNE01.JPG,AFNE01.JPG,5,7,57,9,,,,,,,,,,,,,,,,,,,,,,,AFNE14.jpg,AFNE09.jpg,AFSA16.jpg,AFSA06.jpg,AFSA06.jpg,FS,4,num_4,32,num_2,1.36672079677,,,2018_Jan_25_1322,60.0041378215,FEMA4ImagesEEG,001,202774,
AFNE01.JPG,AFNE01.JPG,AFNE01.JPG,AFNE01.JPG,AFNE01.JPG,AFNE01.JPG,5,8,58,2,,,,,,,,,,,,,,,,,,,,,,,AFSA09.jpg,AFNE19.jpg,AFSA04.jpg,AFNE14.jpg,AFNE14.jpg,FN,3,num_4,16,num_4,0.766762557032,,,2018_Jan_25_1322,60.0041378215,FEMA4ImagesEEG,001,202774,
AFNE01.JPG,AFNE01.JPG,AFNE01.JPG,AFNE01.JPG,AFNE01.JPG,AFNE01.JPG,5,9,59,8,,,,,,,,,,,,,,,,,,,,,,,AFSA10.jpg,AFNE02.jpg,AFSA08.jpg,AFNE13.jpg,AFSA08.jpg,FS,4,num_2,32,num_4,0.783452226038,,,2018_Jan_25_1322,60.0041378215,FEMA4ImagesEEG,001,202774,
,,,,,,,,,,,,,,,,,,,,,,,,,,,,,,,,,,,,,,,,,,,space,2.94996819869,2018_Jan_25_1322,60.0041378215,FEMA4ImagesEEG,001,202774,
AFNE01.JPG,AFNE01.JPG,AFNE01.JPG,AFNE01.JPG,AFNE01.JPG,AFNE01.JPG,,,,,0,0,0,2,,,,,,,,,,,,,,,,,,,AMSA10.jpg,AMNE14.jpg,AMSA01.jpg,AMNE20.jpg,AMNE20.jpg,MN,1,num_4,16,num_4,1.08347721164,,,2018_Jan_25_1322,60.0041378215,FEMA4ImagesEEG,001,202774,
AFNE01.JPG,AFNE01.JPG,AFNE01.JPG,AFNE01.JPG,AFNE01.JPG,AFNE01.JPG,,,,,0,1,1,9,,,,,,,,,,,,,,,,,,,AMSA07.jpg,AMNE05.jpg,AMSA14.jpg,AMNE11.jpg,AMNE05.jpg,MN,1,num_6,32,num_8,1.21678993214,,,2018_Jan_25_1322,60.0041378215,FEMA4ImagesEEG,001,202774,
AFNE01.JPG,AFNE01.JPG,AFNE01.JPG,AFNE01.JPG,AFNE01.JPG,AFNE01.JPG,,,,,0,2,2,1,,,,,,,,,,,,,,,,,,,AMSA08.jpg,AMNE19.jpg,AMNE12.jpg,AMSA13.jpg,AMSA13.jpg,MS,2,num_4,32,num_8,0.583493088241,,,2018_Jan_25_1322,60.0041378215,FEMA4ImagesEEG,001,202774,
AFNE01.JPG,AFNE01.JPG,AFNE01.JPG,AFNE01.JPG,AFNE01.JPG,AFNE01.JPG,,,,,0,3,3,0,,,,,,,,,,,,,,,,,,,AMSA13.jpg,AMSA07.jpg,AMNE09.jpg,AMNE10.jpg,AMNE10.jpg,MN,1,num_4,16,num_4,3.06670639558,,,2018_Jan_25_1322,60.0041378215,FEMA4ImagesEEG,001,202774,
AFNE01.JPG,AFNE01.JPG,AFNE01.JPG,AFNE01.JPG,AFNE01.JPG,AFNE01.JPG,,,,,0,4,4,3,,,,,,,,,,,,,,,,,,,AMNE02.jpg,AMSA05.jpg,AMNE03.jpg,AMSA14.jpg,AMSA05.jpg,MS,2,num_6,16,num_6,0.80029135957,,,2018_Jan_25_1322,60.0041378215,FEMA4ImagesEEG,001,202774,
AFNE01.JPG,AFNE01.JPG,AFNE01.JPG,AFNE01.JPG,AFNE01.JPG,AFNE01.JPG,,,,,0,5,5,6,,,,,,,,,,,,,,,,,,,AMNE16.jpg,AMSA15.jpg,AMNE11.jpg,AMSA09.jpg,AMSA09.jpg,MS,2,num_4,32,num_2,0.616626098505,,,2018_Jan_25_1322,60.0041378215,FEMA4ImagesEEG,001,202774,
AFNE01.JPG,AFNE01.JPG,AFNE01.JPG,AFNE01.JPG,AFNE01.JPG,AFNE01.JPG,,,,,0,6,6,8,,,,,,,,,,,,,,,,,,,AMSA18.jpg,AMNE05.jpg,AMNE18.jpg,AMSA14.jpg,AMNE18.jpg,MN,1,num_2,32,num_8,0.583547613904,,,2018_Jan_25_1322,60.0041378215,FEMA4ImagesEEG,001,202774,
AFNE01.JPG,AFNE01.JPG,AFNE01.JPG,AFNE01.JPG,AFNE01.JPG,AFNE01.JPG,,,,,0,7,7,4,,,,,,,,,,,,,,,,,,,AMNE08.jpg,AMSA10.jpg,AMNE09.jpg,AMSA01.jpg,AMSA10.jpg,MS,2,num_6,32,num_2,1.31675667145,,,2018_Jan_25_1322,60.0041378215,FEMA4ImagesEEG,001,202774,
AFNE01.JPG,AFNE01.JPG,AFNE01.JPG,AFNE01.JPG,AFNE01.JPG,AFNE01.JPG,,,,,0,8,8,5,,,,,,,,,,,,,,,,,,,AMNE13.jpg,AMSA06.jpg,AMSA08.jpg,AMNE03.jpg,AMNE13.jpg,MN,1,num_8,16,num_8,0.416847536893,,,2018_Jan_25_1322,60.0041378215,FEMA4ImagesEEG,001,202774,
AFNE01.JPG,AFNE01.JPG,AFNE01.JPG,AFNE01.JPG,AFNE01.JPG,AFNE01.JPG,,,,,0,9,9,7,,,,,,,,,,,,,,,,,,,AMSA09.jpg,AMNE05.jpg,AMSA20.jpg,AMNE12.jpg,AMSA09.jpg,MS,2,num_8,32,num_6,1.0164985084,,,2018_Jan_25_1322,60.0041378215,FEMA4ImagesEEG,001,202774,
AFNE01.JPG,AFNE01.JPG,AFNE01.JPG,AFNE01.JPG,AFNE01.JPG,AFNE01.JPG,,,,,1,0,10,1,,,,,,,,,,,,,,,,,,,AMNE16.jpg,AMSA04.jpg,AMSA16.jpg,AMNE01.jpg,AMSA04.jpg,MS,2,num_6,32,num_8,0.266822695645,,,2018_Jan_25_1322,60.0041378215,FEMA4ImagesEEG,001,202774,
AFNE01.JPG,AFNE01.JPG,AFNE01.JPG,AFNE01.JPG,AFNE01.JPG,AFNE01.JPG,,,,,1,1,11,0,,,,,,,,,,,,,,,,,,,AMSA07.jpg,AMNE14.jpg,AMNE03.jpg,AMSA15.jpg,AMNE03.jpg,MN,1,num_2,32,num_4,0.350235117934,,,2018_Jan_25_1322,60.0041378215,FEMA4ImagesEEG,001,202774,
AFNE01.JPG,AFNE01.JPG,AFNE01.JPG,AFNE01.JPG,AFNE01.JPG,AFNE01.JPG,,,,,1,2,12,8,,,,,,,,,,,,,,,,,,,AMNE16.jpg,AMSA03.jpg,AMNE07.jpg,AMSA15.jpg,AMNE16.jpg,MN,1,num_8,32,num_6,0.800166912726,,,2018_Jan_25_1322,60.0041378215,FEMA4ImagesEEG,001,202774,
AFNE01.JPG,AFNE01.JPG,AFNE01.JPG,AFNE01.JPG,AFNE01.JPG,AFNE01.JPG,,,,,1,3,13,4,,,,,,,,,,,,,,,,,,,AMSA15.jpg,AMSA09.jpg,AMNE01.jpg,AMNE17.jpg,AMSA15.jpg,MS,2,num_8,32,num_2,0.350184761875,,,2018_Jan_25_1322,60.0041378215,FEMA4ImagesEEG,001,202774,
AFNE01.JPG,AFNE01.JPG,AFNE01.JPG,AFNE01.JPG,AFNE01.JPG,AFNE01.JPG,,,,,1,4,14,6,,,,,,,,,,,,,,,,,,,AMNE13.jpg,AMNE15.jpg,AMSA09.jpg,AMSA02.jpg,AMNE13.jpg,MN,1,num_8,16,num_8,0.600175059502,,,2018_Jan_25_1322,60.0041378215,FEMA4ImagesEEG,001,202774,
AFNE01.JPG,AFNE01.JPG,AFNE01.JPG,AFNE01.JPG,AFNE01.JPG,AFNE01.JPG,,,,,1,5,15,9,,,,,,,,,,,,,,,,,,,AMSA13.jpg,AMSA03.jpg,AMNE13.jpg,AMNE15.jpg,AMSA13.jpg,MS,2,num_8,32,num_6,0.56691631944,,,2018_Jan_25_1322,60.0041378215,FEMA4ImagesEEG,001,202774,
AFNE01.JPG,AFNE01.JPG,AFNE01.JPG,AFNE01.JPG,AFNE01.JPG,AFNE01.JPG,,,,,1,6,16,3,,,,,,,,,,,,,,,,,,,AMNE10.jpg,AMSA20.jpg,AMNE01.jpg,AMSA15.jpg,AMNE01.jpg,MN,1,num_2,32,num_8,0.4501768396,,,2018_Jan_25_1322,60.0041378215,FEMA4ImagesEEG,001,202774,
AFNE01.JPG,AFNE01.JPG,AFNE01.JPG,AFNE01.JPG,AFNE01.JPG,AFNE01.JPG,,,,,1,7,17,2,,,,,,,,,,,,,,,,,,,AMNE07.jpg,AMNE08.jpg,AMSA11.jpg,AMSA19.jpg,AMSA11.jpg,MS,2,num_2,16,num_2,0.38348134917,,,2018_Jan_25_1322,60.0041378215,FEMA4ImagesEEG,001,202774,
AFNE01.JPG,AFNE01.JPG,AFNE01.JPG,AFNE01.JPG,AFNE01.JPG,AFNE01.JPG,,,,,1,8,18,5,,,,,,,,,,,,,,,,,,,AMNE20.jpg,AMSA09.jpg,AMSA04.jpg,AMNE06.jpg,AMSA09.jpg,MS,2,num_6,32,num_8,0.383504442405,,,2018_Jan_25_1322,60.0041378215,FEMA4ImagesEEG,001,202774,
AFNE01.JPG,AFNE01.JPG,AFNE01.JPG,AFNE01.JPG,AFNE01.JPG,AFNE01.JPG,,,,,1,9,19,7,,,,,,,,,,,,,,,,,,,AMSA15.jpg,AMNE17.jpg,AMSA05.jpg,AMNE01.jpg,AMNE17.jpg,MN,1,num_6,16,num_6,0.36667877993,,,2018_Jan_25_1322,60.0041378215,FEMA4ImagesEEG,001,202774,
AFNE01.JPG,AFNE01.JPG,AFNE01.JPG,AFNE01.JPG,AFNE01.JPG,AFNE01.JPG,,,,,2,0,20,5,,,,,,,,,,,,,,,,,,,AMSA12.jpg,AMNE18.jpg,AMSA15.jpg,AMNE13.jpg,AMNE13.jpg,MN,1,num_4,32,num_2,1.06675611016,,,2018_Jan_25_1322,60.0041378215,FEMA4ImagesEEG,001,202774,
AFNE01.JPG,AFNE01.JPG,AFNE01.JPG,AFNE01.JPG,AFNE01.JPG,AFNE01.JPG,,,,,2,1,21,1,,,,,,,,,,,,,,,,,,,AMNE14.jpg,AMSA02.jpg,AMSA10.jpg,AMNE15.jpg,AMNE14.jpg,MN,1,num_8,16,num_8,0.283488629953,,,2018_Jan_25_1322,60.0041378215,FEMA4ImagesEEG,001,202774,
AFNE01.JPG,AFNE01.JPG,AFNE01.JPG,AFNE01.JPG,AFNE01.JPG,AFNE01.JPG,,,,,2,2,22,0,,,,,,,,,,,,,,,,,,,AMNE11.jpg,AMSA05.jpg,AMSA19.jpg,AMNE16.jpg,AMSA05.jpg,MS,2,num_6,16,num_6,0.416834707328,,,2018_Jan_25_1322,60.0041378215,FEMA4ImagesEEG,001,202774,
AFNE01.JPG,AFNE01.JPG,AFNE01.JPG,AFNE01.JPG,AFNE01.JPG,AFNE01.JPG,,,,,2,3,23,2,,,,,,,,,,,,,,,,,,,AMSA05.jpg,AMSA16.jpg,AMNE06.jpg,AMNE14.jpg,AMSA05.jpg,MS,2,num_8,16,num_8,0.716805167234,,,2018_Jan_25_1322,60.0041378215,FEMA4ImagesEEG,001,202774,
AFNE01.JPG,AFNE01.JPG,AFNE01.JPG,AFNE01.JPG,AFNE01.JPG,AFNE01.JPG,,,,,2,4,24,6,,,,,,,,,,,,,,,,,,,AMSA13.jpg,AMNE05.jpg,AMNE19.jpg,AMSA17.jpg,AMNE19.jpg,MN,1,num_2,16,num_2,0.983743008284,,,2018_Jan_25_1322,60.0041378215,FEMA4ImagesEEG,001,202774,
AFNE01.JPG,AFNE01.JPG,AFNE01.JPG,AFNE01.JPG,AFNE01.JPG,AFNE01.JPG,,,,,2,5,25,4,,,,,,,,,,,,,,,,,,,AMSA01.jpg,AMNE16.jpg,AMSA18.jpg,AMNE04.jpg,AMSA01.jpg,MS,2,num_8,32,num_4,1.00003463984,,,2018_Jan_25_1322,60.0041378215,FEMA4ImagesEEG,001,202774,
AFNE01.JPG,AFNE01.JPG,AFNE01.JPG,AFNE01.JPG,AFNE01.JPG,AFNE01.JPG,,,,,2,6,26,3,,,,,,,,,,,,,,,,,,,AMNE10.jpg,AMSA15.jpg,AMNE07.jpg,AMSA09.jpg,AMNE10.jpg,MN,1,num_8,32,num_2,1.15012651561,,,2018_Jan_25_1322,60.0041378215,FEMA4ImagesEEG,001,202774,
AFNE01.JPG,AFNE01.JPG,AFNE01.JPG,AFNE01.JPG,AFNE01.JPG,AFNE01.JPG,,,,,2,7,27,9,,,,,,,,,,,,,,,,,,,AMNE16.jpg,AMSA01.jpg,AMSA16.jpg,AMNE07.jpg,AMNE16.jpg,MN,1,num_8,32,num_2,1.50006591193,,,2018_Jan_25_1322,60.0041378215,FEMA4ImagesEEG,001,202774,
AFNE01.JPG,AFNE01.JPG,AFNE01.JPG,AFNE01.JPG,AFNE01.JPG,AFNE01.JPG,,,,,2,8,28,7,,,,,,,,,,,,,,,,,,,AMSA09.jpg,AMSA02.jpg,AMNE20.jpg,AMNE13.jpg,AMSA09.jpg,MS,2,num_8,16,num_8,1.01675926945,,,2018_Jan_25_1322,60.0041378215,FEMA4ImagesEEG,001,202774,
AFNE01.JPG,AFNE01.JPG,AFNE01.JPG,AFNE01.JPG,AFNE01.JPG,AFNE01.JPG,,,,,2,9,29,8,,,,,,,,,,,,,,,,,,,AMSA08.jpg,AMNE17.jpg,AMSA11.jpg,AMNE04.jpg,AMNE04.jpg,MN,1,num_4,16,num_4,1.01675253392,,,2018_Jan_25_1322,60.0041378215,FEMA4ImagesEEG,001,202774,
AFNE01.JPG,AFNE01.JPG,AFNE01.JPG,AFNE01.JPG,AFNE01.JPG,AFNE01.JPG,,,,,3,0,30,3,,,,,,,,,,,,,,,,,,,AMNE19.jpg,AMSA14.jpg,AMNE10.jpg,AMSA08.jpg,AMSA08.jpg,MS,2,num_4,32,num_6,0.616844201213,,,2018_Jan_25_1322,60.0041378215,FEMA4ImagesEEG,001,202774,
AFNE01.JPG,AFNE01.JPG,AFNE01.JPG,AFNE01.JPG,AFNE01.JPG,AFNE01.JPG,,,,,3,1,31,8,,,,,,,,,,,,,,,,,,,AMSA19.jpg,AMSA10.jpg,AMNE11.jpg,AMNE03.jpg,AMNE11.jpg,MN,1,num_2,16,num_2,0.850123661032,,,2018_Jan_25_1322,60.0041378215,FEMA4ImagesEEG,001,202774,
AFNE01.JPG,AFNE01.JPG,AFNE01.JPG,AFNE01.JPG,AFNE01.JPG,AFNE01.JPG,,,,,3,2,32,0,,,,,,,,,,,,,,,,,,,AMNE18.jpg,AMNE07.jpg,AMSA05.jpg,AMSA15.jpg,AMSA05.jpg,MS,2,num_2,32,num_6,0.550132673816,,,2018_Jan_25_1322,60.0041378215,FEMA4ImagesEEG,001,202774,
AFNE01.JPG,AFNE01.JPG,AFNE01.JPG,AFNE01.JPG,AFNE01.JPG,AFNE01.JPG,,,,,3,3,33,7,,,,,,,,,,,,,,,,,,,AMNE08.jpg,AMSA03.jpg,AMNE16.jpg,AMSA08.jpg,AMNE08.jpg,MN,1,num_8,16,num_8,0.600166078802,,,2018_Jan_25_1322,60.0041378215,FEMA4ImagesEEG,001,202774,
AFNE01.JPG,AFNE01.JPG,AFNE01.JPG,AFNE01.JPG,AFNE01.JPG,AFNE01.JPG,,,,,3,4,34,5,,,,,,,,,,,,,,,,,,,AMNE18.jpg,AMNE08.jpg,AMSA16.jpg,AMSA18.jpg,AMNE18.jpg,MN,1,num_8,32,num_2,0.866767464337,,,2018_Jan_25_1322,60.0041378215,FEMA4ImagesEEG,001,202774,
AFNE01.JPG,AFNE01.JPG,AFNE01.JPG,AFNE01.JPG,AFNE01.JPG,AFNE01.JPG,,,,,3,5,35,6,,,,,,,,,,,,,,,,,,,AMNE04.jpg,AMSA09.jpg,AMNE12.jpg,AMSA04.jpg,AMNE04.jpg,MN,1,num_8,32,num_6,0.750140563992,,,2018_Jan_25_1322,60.0041378215,FEMA4ImagesEEG,001,202774,
AFNE01.JPG,AFNE01.JPG,AFNE01.JPG,AFNE01.JPG,AFNE01.JPG,AFNE01.JPG,,,,,3,6,36,1,,,,,,,,,,,,,,,,,,,AMNE07.jpg,AMSA20.jpg,AMSA10.jpg,AMNE08.jpg,AMNE07.jpg,MN,1,num_8,16,num_8,1.15035456125,,,2018_Jan_25_1322,60.0041378215,FEMA4ImagesEEG,001,202774,
AFNE01.JPG,AFNE01.JPG,AFNE01.JPG,AFNE01.JPG,AFNE01.JPG,AFNE01.JPG,,,,,3,7,37,4,,,,,,,,,,,,,,,,,,,AMNE06.jpg,AMSA07.jpg,AMNE17.jpg,AMSA17.jpg,AMNE17.jpg,MN,1,num_2,16,num_2,0.883474132526,,,2018_Jan_25_1322,60.0041378215,FEMA4ImagesEEG,001,202774,
AFNE01.JPG,AFNE01.JPG,AFNE01.JPG,AFNE01.JPG,AFNE01.JPG,AFNE01.JPG,,,,,3,8,38,9,,,,,,,,,,,,,,,,,,,AMNE19.jpg,AMNE11.jpg,AMSA19.jpg,AMSA02.jpg,AMNE19.jpg,MN,1,num_8,32,num_4,0.850191978505,,,2018_Jan_25_1322,60.0041378215,FEMA4ImagesEEG,001,202774,
AFNE01.JPG,AFNE01.JPG,AFNE01.JPG,AFNE01.JPG,AFNE01.JPG,AFNE01.JPG,,,,,3,9,39,2,,,,,,,,,,,,,,,,,,,AMSA01.jpg,AMNE04.jpg,AMSA12.jpg,AMNE07.jpg,AMSA12.jpg,MS,2,num_2,32,num_8,0.900137180201,,,2018_Jan_25_1322,60.0041378215,FEMA4ImagesEEG,001,202774,
AFNE01.JPG,AFNE01.JPG,AFNE01.JPG,AFNE01.JPG,AFNE01.JPG,AFNE01.JPG,,,,,4,0,40,4,,,,,,,,,,,,,,,,,,,AMNE03.jpg,AMSA10.jpg,AMNE15.jpg,AMSA11.jpg,AMSA10.jpg,MS,2,num_6,32,num_8,1.18343464953,,,2018_Jan_25_1322,60.0041378215,FEMA4ImagesEEG,001,202774,
AFNE01.JPG,AFNE01.JPG,AFNE01.JPG,AFNE01.JPG,AFNE01.JPG,AFNE01.JPG,,,,,4,1,41,8,,,,,,,,,,,,,,,,,,,AMSA01.jpg,AMNE11.jpg,AMSA07.jpg,AMNE04.jpg,AMSA07.jpg,MS,2,num_2,32,num_4,1.03342167563,,,2018_Jan_25_1322,60.0041378215,FEMA4ImagesEEG,001,202774,
AFNE01.JPG,AFNE01.JPG,AFNE01.JPG,AFNE01.JPG,AFNE01.JPG,AFNE01.JPG,,,,,4,2,42,9,,,,,,,,,,,,,,,,,,,AMSA13.jpg,AMNE12.jpg,AMNE13.jpg,AMSA03.jpg,AMSA03.jpg,MS,2,num_4,16,num_4,0.900116332137,,,2018_Jan_25_1322,60.0041378215,FEMA4ImagesEEG,001,202774,
AFNE01.JPG,AFNE01.JPG,AFNE01.JPG,AFNE01.JPG,AFNE01.JPG,AFNE01.JPG,,,,,4,3,43,3,,,,,,,,,,,,,,,,,,,AMNE06.jpg,AMSA06.jpg,AMNE17.jpg,AMSA17.jpg,AMSA17.jpg,MS,2,num_4,32,num_2,0.600200397908,,,2018_Jan_25_1322,60.0041378215,FEMA4ImagesEEG,001,202774,
AFNE01.JPG,AFNE01.JPG,AFNE01.JPG,AFNE01.JPG,AFNE01.JPG,AFNE01.JPG,,,,,4,4,44,5,,,,,,,,,,,,,,,,,,,AMNE14.jpg,AMSA10.jpg,AMNE09.jpg,AMSA12.jpg,AMNE14.jpg,MN,1,num_8,16,num_8,1.09994877793,,,2018_Jan_25_1322,60.0041378215,FEMA4ImagesEEG,001,202774,
AFNE01.JPG,AFNE01.JPG,AFNE01.JPG,AFNE01.JPG,AFNE01.JPG,AFNE01.JPG,,,,,4,5,45,0,,,,,,,,,,,,,,,,,,,AMNE06.jpg,AMSA02.jpg,AMSA15.jpg,AMNE16.jpg,AMNE06.jpg,MN,1,num_8,32,num_2,1.48339997762,,,2018_Jan_25_1322,60.0041378215,FEMA4ImagesEEG,001,202774,
AFNE01.JPG,AFNE01.JPG,AFNE01.JPG,AFNE01.JPG,AFNE01.JPG,AFNE01.JPG,,,,,4,6,46,6,,,,,,,,,,,,,,,,,,,AMSA05.jpg,AMNE20.jpg,AMNE05.jpg,AMSA18.jpg,AMSA18.jpg,MS,2,num_4,16,num_4,0.600133684144,,,2018_Jan_25_1322,60.0041378215,FEMA4ImagesEEG,001,202774,
AFNE01.JPG,AFNE01.JPG,AFNE01.JPG,AFNE01.JPG,AFNE01.JPG,AFNE01.JPG,,,,,4,7,47,7,,,,,,,,,,,,,,,,,,,AMNE14.jpg,AMNE17.jpg,AMSA07.jpg,AMSA16.jpg,AMNE17.jpg,MN,1,num_6,32,num_8,0.983462361415,,,2018_Jan_25_1322,60.0041378215,FEMA4ImagesEEG,001,202774,
AFNE01.JPG,AFNE01.JPG,AFNE01.JPG,AFNE01.JPG,AFNE01.JPG,AFNE01.JPG,,,,,4,8,48,2,,,,,,,,,,,,,,,,,,,AMSA13.jpg,AMNE18.jpg,AMSA12.jpg,AMNE20.jpg,AMSA12.jpg,MS,2,num_2,32,num_6,0.766766726636,,,2018_Jan_25_1322,60.0041378215,FEMA4ImagesEEG,001,202774,
AFNE01.JPG,AFNE01.JPG,AFNE01.JPG,AFNE01.JPG,AFNE01.JPG,AFNE01.JPG,,,,,4,9,49,1,,,,,,,,,,,,,,,,,,,AMSA18.jpg,AMNE12.jpg,AMSA03.jpg,AMNE01.jpg,AMSA18.jpg,MS,2,num_8,32,num_2,0.950174113328,,,2018_Jan_25_1322,60.0041378215,FEMA4ImagesEEG,001,202774,
AFNE01.JPG,AFNE01.JPG,AFNE01.JPG,AFNE01.JPG,AFNE01.JPG,AFNE01.JPG,,,,,5,0,50,8,,,,,,,,,,,,,,,,,,,AMSA19.jpg,AMSA12.jpg,AMNE14.jpg,AMNE12.jpg,AMNE14.jpg,MN,1,num_2,32,num_8,1.03344027851,,,2018_Jan_25_1322,60.0041378215,FEMA4ImagesEEG,001,202774,
AFNE01.JPG,AFNE01.JPG,AFNE01.JPG,AFNE01.JPG,AFNE01.JPG,AFNE01.JPG,,,,,5,1,51,9,,,,,,,,,,,,,,,,,,,AMNE07.jpg,AMSA05.jpg,AMSA06.jpg,AMNE09.jpg,AMNE09.jpg,MN,1,num_4,32,num_8,1.00009237291,,,2018_Jan_25_1322,60.0041378215,FEMA4ImagesEEG,001,202774,
AFNE01.JPG,AFNE01.JPG,AFNE01.JPG,AFNE01.JPG,AFNE01.JPG,AFNE01.JPG,,,,,5,2,52,1,,,,,,,,,,,,,,,,,,,AMSA05.jpg,AMNE02.jpg,AMNE04.jpg,AMSA01.jpg,AMNE04.jpg,MN,1,num_2,32,num_6,0.750168789047,,,2018_Jan_25_1322,60.0041378215,FEMA4ImagesEEG,001,202774,
AFNE01.JPG,AFNE01.JPG,AFNE01.JPG,AFNE01.JPG,AFNE01.JPG,AFNE01.JPG,,,,,5,3,53,7,,,,,,,,,,,,,,,,,,,AMNE06.jpg,AMNE09.jpg,AMSA02.jpg,AMSA09.jpg,AMNE09.jpg,MN,1,num_6,32,num_2,0.66681602427,,,2018_Jan_25_1322,60.0041378215,FEMA4ImagesEEG,001,202774,
AFNE01.JPG,AFNE01.JPG,AFNE01.JPG,AFNE01.JPG,AFNE01.JPG,AFNE01.JPG,,,,,5,4,54,6,,,,,,,,,,,,,,,,,,,AMSA19.jpg,AMSA02.jpg,AMNE03.jpg,AMNE01.jpg,AMNE01.jpg,MN,1,num_4,32,num_8,1.06677086417,,,2018_Jan_25_1322,60.0041378215,FEMA4ImagesEEG,001,202774,
AFNE01.JPG,AFNE01.JPG,AFNE01.JPG,AFNE01.JPG,AFNE01.JPG,AFNE01.JPG,,,,,5,5,55,3,,,,,,,,,,,,,,,,,,,AMNE09.jpg,AMSA19.jpg,AMSA11.jpg,AMNE10.jpg,AMSA11.jpg,MS,2,num_2,32,num_4,0.666779780717,,,2018_Jan_25_1322,60.0041378215,FEMA4ImagesEEG,001,202774,
AFNE01.JPG,AFNE01.JPG,AFNE01.JPG,AFNE01.JPG,AFNE01.JPG,AFNE01.JPG,,,,,5,6,56,5,,,,,,,,,,,,,,,,,,,AMNE11.jpg,AMSA17.jpg,AMSA04.jpg,AMNE06.jpg,AMNE06.jpg,MN,1,num_4,32,num_6,0.81667279813,,,2018_Jan_25_1322,60.0041378215,FEMA4ImagesEEG,001,202774,
AFNE01.JPG,AFNE01.JPG,AFNE01.JPG,AFNE01.JPG,AFNE01.JPG,AFNE01.JPG,,,,,5,7,57,4,,,,,,,,,,,,,,,,,,,AMNE08.jpg,AMNE03.jpg,AMSA07.jpg,AMSA13.jpg,AMNE03.jpg,MN,1,num_6,32,num_2,0.766881230564,,,2018_Jan_25_1322,60.0041378215,FEMA4ImagesEEG,001,202774,
AFNE01.JPG,AFNE01.JPG,AFNE01.JPG,AFNE01.JPG,AFNE01.JPG,AFNE01.JPG,,,,,5,8,58,2,,,,,,,,,,,,,,,,,,,AMNE01.jpg,AMSA10.jpg,AMSA18.jpg,AMNE15.jpg,AMSA10.jpg,MS,2,num_6,32,num_8,1.36669898649,,,2018_Jan_25_1322,60.0041378215,FEMA4ImagesEEG,001,202774,
AFNE01.JPG,AFNE01.JPG,AFNE01.JPG,AFNE01.JPG,AFNE01.JPG,AFNE01.JPG,,,,,5,9,59,0,,,,,,,,,,,,,,,,,,,AMNE03.jpg,AMSA12.jpg,AMSA15.jpg,AMNE20.jpg,AMNE03.jpg,MN,1,num_8,32,num_4,0.950144926057,,,2018_Jan_25_1322,60.0041378215,FEMA4ImagesEEG,001,202774,
,,,,,,,,,,,,,,,,,,,,,,,,,,,,,,,,,,,,,,,,,,,space,3.8165615016,2018_Jan_25_1322,60.0041378215,FEMA4ImagesEEG,001,202774,
AFNE01.JPG,AFNE01.JPG,AFNE01.JPG,AFNE01.JPG,AFNE01.JPG,AFNE01.JPG,,,,,,,,,0,0,0,8,,,,,,,,,,,,,,,AFSA12.jpg,AFNE11.jpg,AFNE06.jpg,AFSA04.jpg,AFNE06.jpg,FN,3,num_2,16,num_2,1.23349307218,,,2018_Jan_25_1322,60.0041378215,FEMA4ImagesEEG,001,202774,
AFNE01.JPG,AFNE01.JPG,AFNE01.JPG,AFNE01.JPG,AFNE01.JPG,AFNE01.JPG,,,,,,,,,0,1,1,5,,,,,,,,,,,,,,,AFSA16.jpg,AFNE02.jpg,AFNE11.jpg,AFSA07.jpg,AFSA16.jpg,FS,4,num_8,16,num_8,1.03327253186,,,2018_Jan_25_1322,60.0041378215,FEMA4ImagesEEG,001,202774,
AFNE01.JPG,AFNE01.JPG,AFNE01.JPG,AFNE01.JPG,AFNE01.JPG,AFNE01.JPG,,,,,,,,,0,2,2,3,,,,,,,,,,,,,,,AFNE14.jpg,AFSA11.jpg,AFNE06.jpg,AFSA19.jpg,AFNE14.jpg,FN,3,num_8,32,num_2,0.73345121571,,,2018_Jan_25_1322,60.0041378215,FEMA4ImagesEEG,001,202774,
AFNE01.JPG,AFNE01.JPG,AFNE01.JPG,AFNE01.JPG,AFNE01.JPG,AFNE01.JPG,,,,,,,,,0,3,3,0,,,,,,,,,,,,,,,AFNE16.jpg,AFSA17.jpg,AFSA09.jpg,AFNE12.jpg,AFNE12.jpg,FN,3,num_4,32,num_8,1.01673906288,,,2018_Jan_25_1322,60.0041378215,FEMA4ImagesEEG,001,202774,
AFNE01.JPG,AFNE01.JPG,AFNE01.JPG,AFNE01.JPG,AFNE01.JPG,AFNE01.JPG,,,,,,,,,0,4,4,4,,,,,,,,,,,,,,,AFNE15.jpg,AFSA04.jpg,AFNE08.jpg,AFSA16.jpg,AFSA04.jpg,FS,4,num_6,32,num_2,1.20010058384,,,2018_Jan_25_1322,60.0041378215,FEMA4ImagesEEG,001,202774,
AFNE01.JPG,AFNE01.JPG,AFNE01.JPG,AFNE01.JPG,AFNE01.JPG,AFNE01.JPG,,,,,,,,,0,5,5,6,,,,,,,,,,,,,,,AFSA04.jpg,AFNE09.jpg,AFNE11.jpg,AFSA12.jpg,AFSA12.jpg,FS,4,num_4,16,num_4,0.81682001747,,,2018_Jan_25_1322,60.0041378215,FEMA4ImagesEEG,001,202774,
AFNE01.JPG,AFNE01.JPG,AFNE01.JPG,AFNE01.JPG,AFNE01.JPG,AFNE01.JPG,,,,,,,,,0,6,6,2,,,,,,,,,,,,,,,AFNE04.jpg,AFSA17.jpg,AFSA14.jpg,AFNE01.jpg,AFSA17.jpg,FS,4,num_6,16,num_6,0.850173696366,,,2018_Jan_25_1322,60.0041378215,FEMA4ImagesEEG,001,202774,
AFNE01.JPG,AFNE01.JPG,AFNE01.JPG,AFNE01.JPG,AFNE01.JPG,AFNE01.JPG,,,,,,,,,0,7,7,7,,,,,,,,,,,,,,,AFNE07.jpg,AFNE12.jpg,AFSA13.jpg,AFSA12.jpg,AFNE12.jpg,FN,3,num_6,32,num_8,1.15011464826,,,2018_Jan_25_1322,60.0041378215,FEMA4ImagesEEG,001,202774,
AFNE01.JPG,AFNE01.JPG,AFNE01.JPG,AFNE01.JPG,AFNE01.JPG,AFNE01.JPG,,,,,,,,,0,8,8,9,,,,,,,,,,,,,,,AFSA10.jpg,AFNE20.jpg,AFNE07.jpg,AFSA06.jpg,AFNE20.jpg,FN,3,num_6,16,num_6,0.533601449992,,,2018_Jan_25_1322,60.0041378215,FEMA4ImagesEEG,001,202774,
AFNE01.JPG,AFNE01.JPG,AFNE01.JPG,AFNE01.JPG,AFNE01.JPG,AFNE01.JPG,,,,,,,,,0,9,9,1,,,,,,,,,,,,,,,AFNE01.jpg,AFSA08.jpg,AFSA18.jpg,AFNE13.jpg,AFNE13.jpg,FN,3,num_4,16,num_4,0.766775707336,,,2018_Jan_25_1322,60.0041378215,FEMA4ImagesEEG,001,202774,
AFNE01.JPG,AFNE01.JPG,AFNE01.JPG,AFNE01.JPG,AFNE01.JPG,AFNE01.JPG,,,,,,,,,1,0,10,8,,,,,,,,,,,,,,,AFSA19.jpg,AFSA16.jpg,AFNE12.jpg,AFNE16.jpg,AFNE16.jpg,FN,3,num_4,32,num_6,0.716773414053,,,2018_Jan_25_1322,60.0041378215,FEMA4ImagesEEG,001,202774,
AFNE01.JPG,AFNE01.JPG,AFNE01.JPG,AFNE01.JPG,AFNE01.JPG,AFNE01.JPG,,,,,,,,,1,1,11,1,,,,,,,,,,,,,,,AFNE06.jpg,AFNE01.jpg,AFSA01.jpg,AFSA04.jpg,AFSA01.jpg,FS,4,num_2,32,num_8,0.800119443302,,,2018_Jan_25_1322,60.0041378215,FEMA4ImagesEEG,001,202774,
AFNE01.JPG,AFNE01.JPG,AFNE01.JPG,AFNE01.JPG,AFNE01.JPG,AFNE01.JPG,,,,,,,,,1,2,12,4,,,,,,,,,,,,,,,AFSA02.jpg,AFSA03.jpg,AFNE19.jpg,AFNE15.jpg,AFNE19.jpg,FN,3,num_2,16,num_2,0.700136025538,,,2018_Jan_25_1322,60.0041378215,FEMA4ImagesEEG,001,202774,
AFNE01.JPG,AFNE01.JPG,AFNE01.JPG,AFNE01.JPG,AFNE01.JPG,AFNE01.JPG,,,,,,,,,1,3,13,3,,,,,,,,,,,,,,,AFNE10.jpg,AFSA19.jpg,AFSA04.jpg,AFNE12.jpg,AFSA19.jpg,FS,4,num_6,32,num_8,0.733516325781,,,2018_Jan_25_1322,60.0041378215,FEMA4ImagesEEG,001,202774,
AFNE01.JPG,AFNE01.JPG,AFNE01.JPG,AFNE01.JPG,AFNE01.JPG,AFNE01.JPG,,,,,,,,,1,4,14,2,,,,,,,,,,,,,,,AFNE11.jpg,AFNE10.jpg,AFSA01.jpg,AFSA07.jpg,AFNE10.jpg,FN,3,num_6,32,num_2,0.950111889906,,,2018_Jan_25_1322,60.0041378215,FEMA4ImagesEEG,001,202774,
AFNE01.JPG,AFNE01.JPG,AFNE01.JPG,AFNE01.JPG,AFNE01.JPG,AFNE01.JPG,,,,,,,,,1,5,15,9,,,,,,,,,,,,,,,AFSA01.jpg,AFNE05.jpg,AFSA17.jpg,AFNE15.jpg,AFNE15.jpg,FN,3,num_4,32,num_8,0.983433174129,,,2018_Jan_25_1322,60.0041378215,FEMA4ImagesEEG,001,202774,
AFNE01.JPG,AFNE01.JPG,AFNE01.JPG,AFNE01.JPG,AFNE01.JPG,AFNE01.JPG,,,,,,,,,1,6,16,0,,,,,,,,,,,,,,,AFSA01.jpg,AFNE03.jpg,AFNE16.jpg,AFSA08.jpg,AFNE03.jpg,FN,3,num_6,16,num_6,0.550152880387,,,2018_Jan_25_1322,60.0041378215,FEMA4ImagesEEG,001,202774,
AFNE01.JPG,AFNE01.JPG,AFNE01.JPG,AFNE01.JPG,AFNE01.JPG,AFNE01.JPG,,,,,,,,,1,7,17,7,,,,,,,,,,,,,,,AFSA17.jpg,AFNE20.jpg,AFSA02.jpg,AFNE01.jpg,AFNE20.jpg,FN,3,num_6,32,num_8,0.866450573914,,,2018_Jan_25_1322,60.0041378215,FEMA4ImagesEEG,001,202774,
AFNE01.JPG,AFNE01.JPG,AFNE01.JPG,AFNE01.JPG,AFNE01.JPG,AFNE01.JPG,,,,,,,,,1,8,18,5,,,,,,,,,,,,,,,AFNE20.jpg,AFNE14.jpg,AFSA16.jpg,AFSA17.jpg,AFSA17.jpg,FS,4,num_4,16,num_4,0.750128696644,,,2018_Jan_25_1322,60.0041378215,FEMA4ImagesEEG,001,202774,
AFNE01.JPG,AFNE01.JPG,AFNE01.JPG,AFNE01.JPG,AFNE01.JPG,AFNE01.JPG,,,,,,,,,1,9,19,6,,,,,,,,,,,,,,,AFSA04.jpg,AFNE13.jpg,AFNE08.jpg,AFSA10.jpg,AFSA04.jpg,FS,4,num_8,32,num_2,0.716764112614,,,2018_Jan_25_1322,60.0041378215,FEMA4ImagesEEG,001,202774,
AFNE01.JPG,AFNE01.JPG,AFNE01.JPG,AFNE01.JPG,AFNE01.JPG,AFNE01.JPG,,,,,,,,,2,0,20,1,,,,,,,,,,,,,,,AFNE14.jpg,AFSA20.jpg,AFSA14.jpg,AFNE19.jpg,AFSA14.jpg,FS,4,num_2,32,num_8,0.966773333857,,,2018_Jan_25_1322,60.0041378215,FEMA4ImagesEEG,001,202774,
AFNE01.JPG,AFNE01.JPG,AFNE01.JPG,AFNE01.JPG,AFNE01.JPG,AFNE01.JPG,,,,,,,,,2,1,21,7,,,,,,,,,,,,,,,AFSA13.jpg,AFNE14.jpg,AFNE18.jpg,AFSA02.jpg,AFSA13.jpg,FS,4,num_8,32,num_6,0.616789675536,,,2018_Jan_25_1322,60.0041378215,FEMA4ImagesEEG,001,202774,
AFNE01.JPG,AFNE01.JPG,AFNE01.JPG,AFNE01.JPG,AFNE01.JPG,AFNE01.JPG,,,,,,,,,2,2,22,4,,,,,,,,,,,,,,,AFNE08.jpg,AFNE13.jpg,AFSA18.jpg,AFSA07.jpg,AFNE13.jpg,FN,3,num_6,32,num_8,0.78347724372,,,2018_Jan_25_1322,60.0041378215,FEMA4ImagesEEG,001,202774,
AFNE01.JPG,AFNE01.JPG,AFNE01.JPG,AFNE01.JPG,AFNE01.JPG,AFNE01.JPG,,,,,,,,,2,3,23,8,,,,,,,,,,,,,,,AFNE13.jpg,AFNE19.jpg,AFSA16.jpg,AFSA20.jpg,AFSA16.jpg,FS,4,num_2,32,num_4,0.783456395657,,,2018_Jan_25_1322,60.0041378215,FEMA4ImagesEEG,001,202774,
AFNE01.JPG,AFNE01.JPG,AFNE01.JPG,AFNE01.JPG,AFNE01.JPG,AFNE01.JPG,,,,,,,,,2,4,24,3,,,,,,,,,,,,,,,AFNE06.jpg,AFSA19.jpg,AFSA15.jpg,AFNE16.jpg,AFSA15.jpg,FS,4,num_2,16,num_2,0.600165758064,,,2018_Jan_25_1322,60.0041378215,FEMA4ImagesEEG,001,202774,
AFNE01.JPG,AFNE01.JPG,AFNE01.JPG,AFNE01.JPG,AFNE01.JPG,AFNE01.JPG,,,,,,,,,2,5,25,0,,,,,,,,,,,,,,,AFNE16.jpg,AFSA19.jpg,AFNE07.jpg,AFSA02.jpg,AFNE07.jpg,FN,3,num_2,16,num_2,0.733405349994,,,2018_Jan_25_1322,60.0041378215,FEMA4ImagesEEG,001,202774,
AFNE01.JPG,AFNE01.JPG,AFNE01.JPG,AFNE01.JPG,AFNE01.JPG,AFNE01.JPG,,,,,,,,,2,6,26,9,,,,,,,,,,,,,,,AFSA05.jpg,AFNE12.jpg,AFNE10.jpg,AFSA04.jpg,AFSA04.jpg,FS,4,num_4,32,num_8,0.900173103,,,2018_Jan_25_1322,60.0041378215,FEMA4ImagesEEG,001,202774,
AFNE01.JPG,AFNE01.JPG,AFNE01.JPG,AFNE01.JPG,AFNE01.JPG,AFNE01.JPG,,,,,,,,,2,7,27,6,,,,,,,,,,,,,,,AFSA08.jpg,AFNE05.jpg,AFSA06.jpg,AFNE09.jpg,AFSA08.jpg,FS,4,num_8,16,num_8,0.866791519773,,,2018_Jan_25_1322,60.0041378215,FEMA4ImagesEEG,001,202774,
AFNE01.JPG,AFNE01.JPG,AFNE01.JPG,AFNE01.JPG,AFNE01.JPG,AFNE01.JPG,,,,,,,,,2,8,28,5,,,,,,,,,,,,,,,AFSA03.jpg,AFNE15.jpg,AFSA07.jpg,AFNE09.jpg,AFNE15.jpg,FN,3,num_6,32,num_2,0.750058775462,,,2018_Jan_25_1322,60.0041378215,FEMA4ImagesEEG,001,202774,
AFNE01.JPG,AFNE01.JPG,AFNE01.JPG,AFNE01.JPG,AFNE01.JPG,AFNE01.JPG,,,,,,,,,2,9,29,2,,,,,,,,,,,,,,,AFSA12.jpg,AFNE18.jpg,AFSA04.jpg,AFNE17.jpg,AFNE17.jpg,FN,3,num_4,16,num_4,0.816832847035,,,2018_Jan_25_1322,60.0041378215,FEMA4ImagesEEG,001,202774,
AFNE01.JPG,AFNE01.JPG,AFNE01.JPG,AFNE01.JPG,AFNE01.JPG,AFNE01.JPG,,,,,,,,,3,0,30,5,,,,,,,,,,,,,,,AFNE04.jpg,AFSA04.jpg,AFSA09.jpg,AFNE05.jpg,AFSA09.jpg,FS,4,num_2,32,num_6,1.13330919236,,,2018_Jan_25_1322,60.0041378215,FEMA4ImagesEEG,001,202774,
AFNE01.JPG,AFNE01.JPG,AFNE01.JPG,AFNE01.JPG,AFNE01.JPG,AFNE01.JPG,,,,,,,,,3,1,31,1,,,,,,,,,,,,,,,AFSA06.jpg,AFNE17.jpg,AFNE03.jpg,AFSA10.jpg,AFNE03.jpg,FN,3,num_2,32,num_6,1.0503916708,,,2018_Jan_25_1322,60.0041378215,FEMA4ImagesEEG,001,202774,
AFNE01.JPG,AFNE01.JPG,AFNE01.JPG,AFNE01.JPG,AFNE01.JPG,AFNE01.JPG,,,,,,,,,3,2,32,4,,,,,,,,,,,,,,,AFSA04.jpg,AFNE12.jpg,AFNE08.jpg,AFSA17.jpg,AFNE08.jpg,FN,3,num_2,16,num_2,0.816756831831,,,2018_Jan_25_1322,60.0041378215,FEMA4ImagesEEG,001,202774,
AFNE01.JPG,AFNE01.JPG,AFNE01.JPG,AFNE01.JPG,AFNE01.JPG,AFNE01.JPG,,,,,,,,,3,3,33,0,,,,,,,,,,,,,,,AFSA16.jpg,AFSA14.jpg,AFNE04.jpg,AFNE11.jpg,AFNE11.jpg,FN,3,num_4,32,num_8,1.15002131312,,,2018_Jan_25_1322,60.0041378215,FEMA4ImagesEEG,001,202774,
AFNE01.JPG,AFNE01.JPG,AFNE01.JPG,AFNE01.JPG,AFNE01.JPG,AFNE01.JPG,,,,,,,,,3,4,34,3,,,,,,,,,,,,,,,AFSA02.jpg,AFNE05.jpg,AFSA08.jpg,AFNE07.jpg,AFSA02.jpg,FS,4,num_8,32,num_2,0.833463820774,,,2018_Jan_25_1322,60.0041378215,FEMA4ImagesEEG,001,202774,
AFNE01.JPG,AFNE01.JPG,AFNE01.JPG,AFNE01.JPG,AFNE01.JPG,AFNE01.JPG,,,,,,,,,3,5,35,6,,,,,,,,,,,,,,,AFNE08.jpg,AFSA05.jpg,AFSA11.jpg,AFNE09.jpg,AFSA11.jpg,FS,4,num_2,32,num_6,0.666829495312,,,2018_Jan_25_1322,60.0041378215,FEMA4ImagesEEG,001,202774,
AFNE01.JPG,AFNE01.JPG,AFNE01.JPG,AFNE01.JPG,AFNE01.JPG,AFNE01.JPG,,,,,,,,,3,6,36,2,,,,,,,,,,,,,,,AFSA09.jpg,AFNE14.jpg,AFSA10.jpg,AFNE15.jpg,AFSA09.jpg,FS,4,num_8,16,num_8,0.700253416115,,,2018_Jan_25_1322,60.0041378215,FEMA4ImagesEEG,001,202774,
AFNE01.JPG,AFNE01.JPG,AFNE01.JPG,AFNE01.JPG,AFNE01.JPG,AFNE01.JPG,,,,,,,,,3,7,37,7,,,,,,,,,,,,,,,AFSA08.jpg,AFNE13.jpg,AFNE04.jpg,AFSA10.jpg,AFNE04.jpg,FN,3,num_2,32,num_6,0.733454743837,,,2018_Jan_25_1322,60.0041378215,FEMA4ImagesEEG,001,202774,
AFNE01.JPG,AFNE01.JPG,AFNE01.JPG,AFNE01.JPG,AFNE01.JPG,AFNE01.JPG,,,,,,,,,3,8,38,9,,,,,,,,,,,,,,,AFSA02.jpg,AFNE04.jpg,AFNE14.jpg,AFSA10.jpg,AFSA10.jpg,FS,4,num_4,32,num_8,0.950205225032,,,2018_Jan_25_1322,60.0041378215,FEMA4ImagesEEG,001,202774,
AFNE01.JPG,AFNE01.JPG,AFNE01.JPG,AFNE01.JPG,AFNE01.JPG,AFNE01.JPG,,,,,,,,,3,9,39,8,,,,,,,,,,,,,,,AFNE08.jpg,AFNE18.jpg,AFSA02.jpg,AFSA11.jpg,AFSA11.jpg,FS,4,num_4,32,num_2,0.93349534944,,,2018_Jan_25_1322,60.0041378215,FEMA4ImagesEEG,001,202774,
AFNE01.JPG,AFNE01.JPG,AFNE01.JPG,AFNE01.JPG,AFNE01.JPG,AFNE01.JPG,,,,,,,,,4,0,40,9,,,,,,,,,,,,,,,AFNE17.jpg,AFNE05.jpg,AFSA11.jpg,AFSA15.jpg,AFNE05.jpg,FN,3,num_6,16,num_6,0.750137356605,,,2018_Jan_25_1322,60.0041378215,FEMA4ImagesEEG,001,202774,
AFNE01.JPG,AFNE01.JPG,AFNE01.JPG,AFNE01.JPG,AFNE01.JPG,AFNE01.JPG,,,,,,,,,4,1,41,4,,,,,,,,,,,,,,,AFNE14.jpg,AFSA02.jpg,AFSA15.jpg,AFNE09.jpg,AFNE14.jpg,FN,3,num_8,32,num_2,1.0001436912,,,2018_Jan_25_1322,60.0041378215,FEMA4ImagesEEG,001,202774,
AFNE01.JPG,AFNE01.JPG,AFNE01.JPG,AFNE01.JPG,AFNE01.JPG,AFNE01.JPG,,,,,,,,,4,2,42,5,,,,,,,,,,,,,,,AFSA09.jpg,AFNE01.jpg,AFSA04.jpg,AFNE16.jpg,AFNE01.jpg,FN,3,num_6,32,num_4,0.933464237736,,,2018_Jan_25_1322,60.0041378215,FEMA4ImagesEEG,001,202774,
AFNE01.JPG,AFNE01.JPG,AFNE01.JPG,AFNE01.JPG,AFNE01.JPG,AFNE01.JPG,,,,,,,,,4,3,43,3,,,,,,,,,,,,,,,AFSA05.jpg,AFNE10.jpg,AFNE08.jpg,AFSA17.jpg,AFSA17.jpg,FS,4,num_4,32,num_2,1.06699506093,,,2018_Jan_25_1322,60.0041378215,FEMA4ImagesEEG,001,202774,
AFNE01.JPG,AFNE01.JPG,AFNE01.JPG,AFNE01.JPG,AFNE01.JPG,AFNE01.JPG,,,,,,,,,4,4,44,2,,,,,,,,,,,,,,,AFNE12.jpg,AFNE08.jpg,AFSA12.jpg,AFSA09.jpg,AFNE08.jpg,FN,3,num_6,32,num_8,1.000269421,,,2018_Jan_25_1322,60.0041378215,FEMA4ImagesEEG,001,202774,
AFNE01.JPG,AFNE01.JPG,AFNE01.JPG,AFNE01.JPG,AFNE01.JPG,AFNE01.JPG,,,,,,,,,4,5,45,8,,,,,,,,,,,,,,,AFSA06.jpg,AFNE19.jpg,AFNE05.jpg,AFSA12.jpg,AFSA12.jpg,FS,4,num_4,32,num_6,0.900127878762,,,2018_Jan_25_1322,60.0041378215,FEMA4ImagesEEG,001,202774,
AFNE01.JPG,AFNE01.JPG,AFNE01.JPG,AFNE01.JPG,AFNE01.JPG,AFNE01.JPG,,,,,,,,,4,6,46,0,,,,,,,,,,,,,,,AFSA15.jpg,AFNE01.jpg,AFSA16.jpg,AFNE09.jpg,AFNE09.jpg,FN,3,num_4,32,num_8,0.966771409425,,,2018_Jan_25_1322,60.0041378215,FEMA4ImagesEEG,001,202774,
AFNE01.JPG,AFNE01.JPG,AFNE01.JPG,AFNE01.JPG,AFNE01.JPG,AFNE01.JPG,,,,,,,,,4,7,47,6,,,,,,,,,,,,,,,AFNE17.jpg,AFSA06.jpg,AFSA18.jpg,AFNE04.jpg,AFNE17.jpg,FN,3,num_8,32,num_2,0.833484348084,,,2018_Jan_25_1322,60.0041378215,FEMA4ImagesEEG,001,202774,
AFNE01.JPG,AFNE01.JPG,AFNE01.JPG,AFNE01.JPG,AFNE01.JPG,AFNE01.JPG,,,,,,,,,4,8,48,7,,,,,,,,,,,,,,,AFSA12.jpg,AFNE19.jpg,AFNE15.jpg,AFSA08.jpg,AFSA08.jpg,FS,4,num_4,32,num_8,0.716781432522,,,2018_Jan_25_1322,60.0041378215,FEMA4ImagesEEG,001,202774,
AFNE01.JPG,AFNE01.JPG,AFNE01.JPG,AFNE01.JPG,AFNE01.JPG,AFNE01.JPG,,,,,,,,,4,9,49,1,,,,,,,,,,,,,,,AFSA18.jpg,AFSA02.jpg,AFNE09.jpg,AFNE03.jpg,AFSA02.jpg,FS,4,num_6,32,num_8,0.866804670091,,,2018_Jan_25_1322,60.0041378215,FEMA4ImagesEEG,001,202774,
AFNE01.JPG,AFNE01.JPG,AFNE01.JPG,AFNE01.JPG,AFNE01.JPG,AFNE01.JPG,,,,,,,,,5,0,50,3,,,,,,,,,,,,,,,AFSA09.jpg,AFNE07.jpg,AFNE05.jpg,AFSA08.jpg,AFNE07.jpg,FN,3,num_6,16,num_6,0.800166271249,,,2018_Jan_25_1322,60.0041378215,FEMA4ImagesEEG,001,202774,
AFNE01.JPG,AFNE01.JPG,AFNE01.JPG,AFNE01.JPG,AFNE01.JPG,AFNE01.JPG,,,,,,,,,5,1,51,0,,,,,,,,,,,,,,,AFNE14.jpg,AFSA03.jpg,AFSA16.jpg,AFNE01.jpg,AFSA16.jpg,FS,4,num_2,16,num_2,0.78353625974,,,2018_Jan_25_1322,60.0041378215,FEMA4ImagesEEG,001,202774,
AFNE01.JPG,AFNE01.JPG,AFNE01.JPG,AFNE01.JPG,AFNE01.JPG,AFNE01.JPG,,,,,,,,,5,2,52,6,,,,,,,,,,,,,,,AFNE02.jpg,AFSA17.jpg,AFNE08.jpg,AFSA02.jpg,AFNE08.jpg,FN,3,num_2,32,num_8,0.916766870971,,,2018_Jan_25_1322,60.0041378215,FEMA4ImagesEEG,001,202774,
AFNE01.JPG,AFNE01.JPG,AFNE01.JPG,AFNE01.JPG,AFNE01.JPG,AFNE01.JPG,,,,,,,,,5,3,53,7,,,,,,,,,,,,,,,AFNE01.jpg,AFNE19.jpg,AFSA06.jpg,AFSA16.jpg,AFSA16.jpg,FS,4,num_4,32,num_6,0.583484749004,,,2018_Jan_25_1322,60.0041378215,FEMA4ImagesEEG,001,202774,
AFNE01.JPG,AFNE01.JPG,AFNE01.JPG,AFNE01.JPG,AFNE01.JPG,AFNE01.JPG,,,,,,,,,5,4,54,5,,,,,,,,,,,,,,,AFSA05.jpg,AFNE17.jpg,AFNE18.jpg,AFSA01.jpg,AFSA05.jpg,FS,4,num_8,32,num_2,0.700198890438,,,2018_Jan_25_1322,60.0041378215,FEMA4ImagesEEG,001,202774,
AFNE01.JPG,AFNE01.JPG,AFNE01.JPG,AFNE01.JPG,AFNE01.JPG,AFNE01.JPG,,,,,,,,,5,5,55,4,,,,,,,,,,,,,,,AFNE20.jpg,AFNE06.jpg,AFSA03.jpg,AFSA07.jpg,AFSA03.jpg,FS,4,num_2,32,num_8,1.08346598576,,,2018_Jan_25_1322,60.0041378215,FEMA4ImagesEEG,001,202774,
AFNE01.JPG,AFNE01.JPG,AFNE01.JPG,AFNE01.JPG,AFNE01.JPG,AFNE01.JPG,,,,,,,,,5,6,56,9,,,,,,,,,,,,,,,AFNE09.jpg,AFNE15.jpg,AFSA09.jpg,AFSA11.jpg,AFSA09.jpg,FS,4,num_2,32,num_8,0.983490265731,,,2018_Jan_25_1322,60.0041378215,FEMA4ImagesEEG,001,202774,
AFNE01.JPG,AFNE01.JPG,AFNE01.JPG,AFNE01.JPG,AFNE01.JPG,AFNE01.JPG,,,,,,,,,5,7,57,8,,,,,,,,,,,,,,,AFNE20.jpg,AFNE06.jpg,AFSA18.jpg,AFSA06.jpg,AFNE06.jpg,FN,3,num_6,32,num_2,0.633457855016,,,2018_Jan_25_1322,60.0041378215,FEMA4ImagesEEG,001,202774,
AFNE01.JPG,AFNE01.JPG,AFNE01.JPG,AFNE01.JPG,AFNE01.JPG,AFNE01.JPG,,,,,,,,,5,8,58,2,,,,,,,,,,,,,,,AFNE12.jpg,AFSA20.jpg,AFNE06.jpg,AFSA13.jpg,AFSA13.jpg,FS,4,num_4,32,num_8,0.850142263909,,,2018_Jan_25_1322,60.0041378215,FEMA4ImagesEEG,001,202774,
AFNE01.JPG,AFNE01.JPG,AFNE01.JPG,AFNE01.JPG,AFNE01.JPG,AFNE01.JPG,,,,,,,,,5,9,59,1,,,,,,,,,,,,,,,AFNE09.jpg,AFSA13.jpg,AFSA10.jpg,AFNE19.jpg,AFNE09.jpg,FN,3,num_8,16,num_8,1.20013297851,,,2018_Jan_25_1322,60.0041378215,FEMA4ImagesEEG,001,202774,
,,,,,,,,,,,,,,,,,,,,,,,,,,,,,,,,,,,,,,,,,,,space,3.7332347167,2018_Jan_25_1322,60.0041378215,FEMA4ImagesEEG,001,202774,
AFNE01.JPG,AFNE01.JPG,AFNE01.JPG,AFNE01.JPG,AFNE01.JPG,AFNE01.JPG,,,,,,,,,,,,,0,0,0,1,,,,,,,,,,,AMNE10.jpg,AMNE11.jpg,AMSA15.jpg,AMSA05.jpg,AMNE11.jpg,MN,1,num_6,32,num_8,0.800135159545,,,2018_Jan_25_1322,60.0041378215,FEMA4ImagesEEG,001,202774,
AFNE01.JPG,AFNE01.JPG,AFNE01.JPG,AFNE01.JPG,AFNE01.JPG,AFNE01.JPG,,,,,,,,,,,,,0,1,1,6,,,,,,,,,,,AMNE10.jpg,AMSA09.jpg,AMSA20.jpg,AMNE04.jpg,AMSA20.jpg,MS,2,num_2,16,num_2,0.550321589253,,,2018_Jan_25_1322,60.0041378215,FEMA4ImagesEEG,001,202774,
AFNE01.JPG,AFNE01.JPG,AFNE01.JPG,AFNE01.JPG,AFNE01.JPG,AFNE01.JPG,,,,,,,,,,,,,0,2,2,3,,,,,,,,,,,AMSA04.jpg,AMSA08.jpg,AMNE08.jpg,AMNE04.jpg,AMSA04.jpg,MS,2,num_8,16,num_8,0.766960132431,,,2018_Jan_25_1322,60.0041378215,FEMA4ImagesEEG,001,202774,
AFNE01.JPG,AFNE01.JPG,AFNE01.JPG,AFNE01.JPG,AFNE01.JPG,AFNE01.JPG,,,,,,,,,,,,,0,3,3,4,,,,,,,,,,,AMSA09.jpg,AMNE20.jpg,AMSA17.jpg,AMNE10.jpg,AMSA17.jpg,MS,2,num_2,32,num_4,1.31688721235,,,2018_Jan_25_1322,60.0041378215,FEMA4ImagesEEG,001,202774,
AFNE01.JPG,AFNE01.JPG,AFNE01.JPG,AFNE01.JPG,AFNE01.JPG,AFNE01.JPG,,,,,,,,,,,,,0,4,4,8,,,,,,,,,,,AMSA11.jpg,AMNE18.jpg,AMNE16.jpg,AMSA15.jpg,AMSA15.jpg,MS,2,num_4,16,num_4,0.8335302138,,,2018_Jan_25_1322,60.0041378215,FEMA4ImagesEEG,001,202774,
AFNE01.JPG,AFNE01.JPG,AFNE01.JPG,AFNE01.JPG,AFNE01.JPG,AFNE01.JPG,,,,,,,,,,,,,0,5,5,5,,,,,,,,,,,AMSA16.jpg,AMSA07.jpg,AMNE13.jpg,AMNE11.jpg,AMNE11.jpg,MN,1,num_4,32,num_8,1.19999473987,,,2018_Jan_25_1322,60.0041378215,FEMA4ImagesEEG,001,202774,
AFNE01.JPG,AFNE01.JPG,AFNE01.JPG,AFNE01.JPG,AFNE01.JPG,AFNE01.JPG,,,,,,,,,,,,,0,6,6,2,,,,,,,,,,,AMSA12.jpg,AMNE12.jpg,AMSA05.jpg,AMNE10.jpg,AMSA12.jpg,MS,2,num_8,32,num_6,0.983421306766,,,2018_Jan_25_1322,60.0041378215,FEMA4ImagesEEG,001,202774,
AFNE01.JPG,AFNE01.JPG,AFNE01.JPG,AFNE01.JPG,AFNE01.JPG,AFNE01.JPG,,,,,,,,,,,,,0,7,7,0,,,,,,,,,,,AMNE19.jpg,AMSA18.jpg,AMSA02.jpg,AMNE16.jpg,AMNE16.jpg,MN,1,num_4,32,num_8,0.883472208094,,,2018_Jan_25_1322,60.0041378215,FEMA4ImagesEEG,001,202774,
AFNE01.JPG,AFNE01.JPG,AFNE01.JPG,AFNE01.JPG,AFNE01.JPG,AFNE01.JPG,,,,,,,,,,,,,0,8,8,7,,,,,,,,,,,AMSA14.jpg,AMSA18.jpg,AMNE12.jpg,AMNE16.jpg,AMSA14.jpg,MS,2,num_8,32,num_2,0.683460789776,,,2018_Jan_25_1322,60.0041378215,FEMA4ImagesEEG,001,202774,
AFNE01.JPG,AFNE01.JPG,AFNE01.JPG,AFNE01.JPG,AFNE01.JPG,AFNE01.JPG,,,,,,,,,,,,,0,9,9,9,,,,,,,,,,,AMSA18.jpg,AMNE09.jpg,AMSA09.jpg,AMNE17.jpg,AMSA09.jpg,MS,2,num_2,32,num_6,1.98336678109,,,2018_Jan_25_1322,60.0041378215,FEMA4ImagesEEG,001,202774,
AFNE01.JPG,AFNE01.JPG,AFNE01.JPG,AFNE01.JPG,AFNE01.JPG,AFNE01.JPG,,,,,,,,,,,,,1,0,10,7,,,,,,,,,,,AMNE10.jpg,AMNE03.jpg,AMSA19.jpg,AMSA15.jpg,AMSA15.jpg,MS,2,num_4,32,num_2,0.550143258195,,,2018_Jan_25_1322,60.0041378215,FEMA4ImagesEEG,001,202774,
AFNE01.JPG,AFNE01.JPG,AFNE01.JPG,AFNE01.JPG,AFNE01.JPG,AFNE01.JPG,,,,,,,,,,,,,1,1,11,9,,,,,,,,,,,AMSA04.jpg,AMSA20.jpg,AMNE05.jpg,AMNE16.jpg,AMNE16.jpg,MN,1,num_4,16,num_4,0.683482279317,,,2018_Jan_25_1322,60.0041378215,FEMA4ImagesEEG,001,202774,
AFNE01.JPG,AFNE01.JPG,AFNE01.JPG,AFNE01.JPG,AFNE01.JPG,AFNE01.JPG,,,,,,,,,,,,,1,2,12,5,,,,,,,,,,,AMNE10.jpg,AMSA12.jpg,AMSA06.jpg,AMNE07.jpg,AMNE10.jpg,MN,1,num_8,32,num_6,0.366811886735,,,2018_Jan_25_1322,60.0041378215,FEMA4ImagesEEG,001,202774,
AFNE01.JPG,AFNE01.JPG,AFNE01.JPG,AFNE01.JPG,AFNE01.JPG,AFNE01.JPG,,,,,,,,,,,,,1,3,13,0,,,,,,,,,,,AMSA06.jpg,AMNE19.jpg,AMSA19.jpg,AMNE18.jpg,AMNE19.jpg,MN,1,num_6,32,num_8,1.04985699839,,,2018_Jan_25_1322,60.0041378215,FEMA4ImagesEEG,001,202774,
AFNE01.JPG,AFNE01.JPG,AFNE01.JPG,AFNE01.JPG,AFNE01.JPG,AFNE01.JPG,,,,,,,,,,,,,1,4,14,2,,,,,,,,,,,AMNE03.jpg,AMSA19.jpg,AMSA08.jpg,AMNE08.jpg,AMSA19.jpg,MS,2,num_6,16,num_6,0.666792289558,,,2018_Jan_25_1322,60.0041378215,FEMA4ImagesEEG,001,202774,
AFNE01.JPG,AFNE01.JPG,AFNE01.JPG,AFNE01.JPG,AFNE01.JPG,AFNE01.JPG,,,,,,,,,,,,,1,5,15,8,,,,,,,,,,,AMNE15.jpg,AMSA15.jpg,AMNE20.jpg,AMSA06.jpg,AMNE20.jpg,MN,1,num_2,32,num_4,0.966791295272,,,2018_Jan_25_1322,60.0041378215,FEMA4ImagesEEG,001,202774,
AFNE01.JPG,AFNE01.JPG,AFNE01.JPG,AFNE01.JPG,AFNE01.JPG,AFNE01.JPG,,,,,,,,,,,,,1,6,16,3,,,,,,,,,,,AMNE01.jpg,AMSA06.jpg,AMSA16.jpg,AMNE17.jpg,AMSA16.jpg,MS,2,num_2,32,num_4,1.11677315745,,,2018_Jan_25_1322,60.0041378215,FEMA4ImagesEEG,001,202774,
AFNE01.JPG,AFNE01.JPG,AFNE01.JPG,AFNE01.JPG,AFNE01.JPG,AFNE01.JPG,,,,,,,,,,,,,1,7,17,6,,,,,,,,,,,AMNE10.jpg,AMSA01.jpg,AMSA13.jpg,AMNE18.jpg,AMNE18.jpg,MN,1,num_4,32,num_2,0.983287558483,,,2018_Jan_25_1322,60.0041378215,FEMA4ImagesEEG,001,202774,
AFNE01.JPG,AFNE01.JPG,AFNE01.JPG,AFNE01.JPG,AFNE01.JPG,AFNE01.JPG,,,,,,,,,,,,,1,8,18,1,,,,,,,,,,,AMSA10.jpg,AMNE13.jpg,AMSA20.jpg,AMNE14.jpg,AMNE14.jpg,MN,1,num_4,32,num_8,1.01674002508,,,2018_Jan_25_1322,60.0041378215,FEMA4ImagesEEG,001,202774,
AFNE01.JPG,AFNE01.JPG,AFNE01.JPG,AFNE01.JPG,AFNE01.JPG,AFNE01.JPG,,,,,,,,,,,,,1,9,19,4,,,,,,,,,,,AMSA02.jpg,AMSA13.jpg,AMNE04.jpg,AMNE10.jpg,AMSA02.jpg,MS,2,num_8,32,num_6,0.683458865344,,,2018_Jan_25_1322,60.0041378215,FEMA4ImagesEEG,001,202774,
AFNE01.JPG,AFNE01.JPG,AFNE01.JPG,AFNE01.JPG,AFNE01.JPG,AFNE01.JPG,,,,,,,,,,,,,2,0,20,9,,,,,,,,,,,AMNE14.jpg,AMSA16.jpg,AMNE09.jpg,AMSA03.jpg,AMNE14.jpg,MN,1,num_8,16,num_8,0.700100102738,,,2018_Jan_25_1322,60.0041378215,FEMA4ImagesEEG,001,202774,
AFNE01.JPG,AFNE01.JPG,AFNE01.JPG,AFNE01.JPG,AFNE01.JPG,AFNE01.JPG,,,,,,,,,,,,,2,1,21,2,,,,,,,,,,,AMSA02.jpg,AMNE13.jpg,AMNE18.jpg,AMSA01.jpg,AMSA01.jpg,MS,2,num_4,16,num_4,1.20009224462,,,2018_Jan_25_1322,60.0041378215,FEMA4ImagesEEG,001,202774,
AFNE01.JPG,AFNE01.JPG,AFNE01.JPG,AFNE01.JPG,AFNE01.JPG,AFNE01.JPG,,,,,,,,,,,,,2,2,22,5,,,,,,,,,,,AMNE03.jpg,AMSA07.jpg,AMSA16.jpg,AMNE13.jpg,AMSA16.jpg,MS,2,num_2,32,num_6,0.766779876954,,,2018_Jan_25_1322,60.0041378215,FEMA4ImagesEEG,001,202774,
AFNE01.JPG,AFNE01.JPG,AFNE01.JPG,AFNE01.JPG,AFNE01.JPG,AFNE01.JPG,,,,,,,,,,,,,2,3,23,1,,,,,,,,,,,AMSA10.jpg,AMNE05.jpg,AMNE07.jpg,AMSA18.jpg,AMSA18.jpg,MS,2,num_4,32,num_8,0.883330441342,,,2018_Jan_25_1322,60.0041378215,FEMA4ImagesEEG,001,202774,
AFNE01.JPG,AFNE01.JPG,AFNE01.JPG,AFNE01.JPG,AFNE01.JPG,AFNE01.JPG,,,,,,,,,,,,,2,4,24,0,,,,,,,,,,,AMSA01.jpg,AMNE05.jpg,AMNE20.jpg,AMSA04.jpg,AMSA04.jpg,MS,2,num_4,32,num_8,0.950096494416,,,2018_Jan_25_1322,60.0041378215,FEMA4ImagesEEG,001,202774,
AFNE01.JPG,AFNE01.JPG,AFNE01.JPG,AFNE01.JPG,AFNE01.JPG,AFNE01.JPG,,,,,,,,,,,,,2,5,25,6,,,,,,,,,,,AMSA10.jpg,AMNE09.jpg,AMSA07.jpg,AMNE06.jpg,AMSA10.jpg,MS,2,num_8,16,num_8,0.850159583832,,,2018_Jan_25_1322,60.0041378215,FEMA4ImagesEEG,001,202774,
AFNE01.JPG,AFNE01.JPG,AFNE01.JPG,AFNE01.JPG,AFNE01.JPG,AFNE01.JPG,,,,,,,,,,,,,2,6,26,3,,,,,,,,,,,AMSA18.jpg,AMSA05.jpg,AMNE08.jpg,AMNE12.jpg,AMNE12.jpg,MN,1,num_4,16,num_4,0.933456219238,,,2018_Jan_25_1322,60.0041378215,FEMA4ImagesEEG,001,202774,
AFNE01.JPG,AFNE01.JPG,AFNE01.JPG,AFNE01.JPG,AFNE01.JPG,AFNE01.JPG,,,,,,,,,,,,,2,7,27,7,,,,,,,,,,,AMSA16.jpg,AMSA10.jpg,AMNE14.jpg,AMNE09.jpg,AMNE09.jpg,MN,1,num_4,32,num_6,0.966744467325,,,2018_Jan_25_1322,60.0041378215,FEMA4ImagesEEG,001,202774,
AFNE01.JPG,AFNE01.JPG,AFNE01.JPG,AFNE01.JPG,AFNE01.JPG,AFNE01.JPG,,,,,,,,,,,,,2,8,28,8,,,,,,,,,,,AMSA19.jpg,AMNE15.jpg,AMNE17.jpg,AMSA20.jpg,AMSA19.jpg,MS,2,num_8,32,num_2,1.23346869601,,,2018_Jan_25_1322,60.0041378215,FEMA4ImagesEEG,001,202774,
AFNE01.JPG,AFNE01.JPG,AFNE01.JPG,AFNE01.JPG,AFNE01.JPG,AFNE01.JPG,,,,,,,,,,,,,2,9,29,4,,,,,,,,,,,AMNE04.jpg,AMNE08.jpg,AMSA20.jpg,AMSA05.jpg,AMNE08.jpg,MN,1,num_6,32,num_4,0.916592388792,,,2018_Jan_25_1322,60.0041378215,FEMA4ImagesEEG,001,202774,
AFNE01.JPG,AFNE01.JPG,AFNE01.JPG,AFNE01.JPG,AFNE01.JPG,AFNE01.JPG,,,,,,,,,,,,,3,0,30,8,,,,,,,,,,,AMNE20.jpg,AMSA11.jpg,AMNE13.jpg,AMSA13.jpg,AMNE13.jpg,MN,1,num_2,32,num_8,1.08340215865,,,2018_Jan_25_1322,60.0041378215,FEMA4ImagesEEG,001,202774,
AFNE01.JPG,AFNE01.JPG,AFNE01.JPG,AFNE01.JPG,AFNE01.JPG,AFNE01.JPG,,,,,,,,,,,,,3,1,31,3,,,,,,,,,,,AMSA08.jpg,AMNE07.jpg,AMNE13.jpg,AMSA20.jpg,AMSA08.jpg,MS,2,num_8,32,num_2,0.783458640828,,,2018_Jan_25_1322,60.0041378215,FEMA4ImagesEEG,001,202774,
AFNE01.JPG,AFNE01.JPG,AFNE01.JPG,AFNE01.JPG,AFNE01.JPG,AFNE01.JPG,,,,,,,,,,,,,3,2,32,2,,,,,,,,,,,AMNE07.jpg,AMNE20.jpg,AMSA04.jpg,AMSA17.jpg,AMSA04.jpg,MS,2,num_2,32,num_6,0.516793428193,,,2018_Jan_25_1322,60.0041378215,FEMA4ImagesEEG,001,202774,
AFNE01.JPG,AFNE01.JPG,AFNE01.JPG,AFNE01.JPG,AFNE01.JPG,AFNE01.JPG,,,,,,,,,,,,,3,3,33,1,,,,,,,,,,,AMSA12.jpg,AMNE07.jpg,AMNE10.jpg,AMSA13.jpg,AMNE07.jpg,MN,1,num_6,32,num_8,0.883468359229,,,2018_Jan_25_1322,60.0041378215,FEMA4ImagesEEG,001,202774,
AFNE01.JPG,AFNE01.JPG,AFNE01.JPG,AFNE01.JPG,AFNE01.JPG,AFNE01.JPG,,,,,,,,,,,,,3,4,34,5,,,,,,,,,,,AMNE09.jpg,AMNE12.jpg,AMSA03.jpg,AMSA04.jpg,AMNE12.jpg,MN,1,num_6,32,num_4,1.33343222796,,,2018_Jan_25_1322,60.0041378215,FEMA4ImagesEEG,001,202774,
AFNE01.JPG,AFNE01.JPG,AFNE01.JPG,AFNE01.JPG,AFNE01.JPG,AFNE01.JPG,,,,,,,,,,,,,3,5,35,4,,,,,,,,,,,AMNE09.jpg,AMNE07.jpg,AMSA19.jpg,AMSA11.jpg,AMSA19.jpg,MS,2,num_2,32,num_8,0.650164202481,,,2018_Jan_25_1322,60.0041378215,FEMA4ImagesEEG,001,202774,
AFNE01.JPG,AFNE01.JPG,AFNE01.JPG,AFNE01.JPG,AFNE01.JPG,AFNE01.JPG,,,,,,,,,,,,,3,6,36,9,,,,,,,,,,,AMNE16.jpg,AMSA11.jpg,AMNE09.jpg,AMSA13.jpg,AMNE09.jpg,MN,1,num_2,16,num_2,0.800108858923,,,2018_Jan_25_1322,60.0041378215,FEMA4ImagesEEG,001,202774,
AFNE01.JPG,AFNE01.JPG,AFNE01.JPG,AFNE01.JPG,AFNE01.JPG,AFNE01.JPG,,,,,,,,,,,,,3,7,37,7,,,,,,,,,,,AMNE06.jpg,AMSA04.jpg,AMNE17.jpg,AMSA20.jpg,AMSA20.jpg,MS,2,num_4,16,num_4,0.98344824888,,,2018_Jan_25_1322,60.0041378215,FEMA4ImagesEEG,001,202774,
AFNE01.JPG,AFNE01.JPG,AFNE01.JPG,AFNE01.JPG,AFNE01.JPG,AFNE01.JPG,,,,,,,,,,,,,3,8,38,6,,,,,,,,,,,AMSA07.jpg,AMNE01.jpg,AMNE03.jpg,AMSA06.jpg,AMSA07.jpg,MS,2,num_8,32,num_6,1.11681004247,,,2018_Jan_25_1322,60.0041378215,FEMA4ImagesEEG,001,202774,
AFNE01.JPG,AFNE01.JPG,AFNE01.JPG,AFNE01.JPG,AFNE01.JPG,AFNE01.JPG,,,,,,,,,,,,,3,9,39,0,,,,,,,,,,,AMSA15.jpg,AMSA02.jpg,AMNE07.jpg,AMNE15.jpg,AMNE15.jpg,MN,1,num_4,32,num_2,0.800135159545,,,2018_Jan_25_1322,60.0041378215,FEMA4ImagesEEG,001,202774,
AFNE01.JPG,AFNE01.JPG,AFNE01.JPG,AFNE01.JPG,AFNE01.JPG,AFNE01.JPG,,,,,,,,,,,,,4,0,40,9,,,,,,,,,,,AMNE17.jpg,AMSA12.jpg,AMSA16.jpg,AMNE02.jpg,AMNE02.jpg,MN,1,num_4,16,num_4,0.750147940998,,,2018_Jan_25_1322,60.0041378215,FEMA4ImagesEEG,001,202774,
AFNE01.JPG,AFNE01.JPG,AFNE01.JPG,AFNE01.JPG,AFNE01.JPG,AFNE01.JPG,,,,,,,,,,,,,4,1,41,5,,,,,,,,,,,AMNE06.jpg,AMSA02.jpg,AMNE17.jpg,AMSA08.jpg,AMSA02.jpg,MS,2,num_6,32,num_8,0.933506896065,,,2018_Jan_25_1322,60.0041378215,FEMA4ImagesEEG,001,202774,
AFNE01.JPG,AFNE01.JPG,AFNE01.JPG,AFNE01.JPG,AFNE01.JPG,AFNE01.JPG,,,,,,,,,,,,,4,2,42,7,,,,,,,,,,,AMSA16.jpg,AMNE04.jpg,AMSA10.jpg,AMNE15.jpg,AMSA16.jpg,MS,2,num_8,32,num_2,0.700149175842,,,2018_Jan_25_1322,60.0041378215,FEMA4ImagesEEG,001,202774,
AFNE01.JPG,AFNE01.JPG,AFNE01.JPG,AFNE01.JPG,AFNE01.JPG,AFNE01.JPG,,,,,,,,,,,,,4,3,43,6,,,,,,,,,,,AMSA17.jpg,AMNE12.jpg,AMNE19.jpg,AMSA11.jpg,AMSA17.jpg,MS,2,num_8,32,num_2,0.716786885096,,,2018_Jan_25_1322,60.0041378215,FEMA4ImagesEEG,001,202774,
AFNE01.JPG,AFNE01.JPG,AFNE01.JPG,AFNE01.JPG,AFNE01.JPG,AFNE01.JPG,,,,,,,,,,,,,4,4,44,4,,,,,,,,,,,AMNE08.jpg,AMSA17.jpg,AMSA08.jpg,AMNE01.jpg,AMSA08.jpg,MS,2,num_2,32,num_8,0.766780518417,,,2018_Jan_25_1322,60.0041378215,FEMA4ImagesEEG,001,202774,
AFNE01.JPG,AFNE01.JPG,AFNE01.JPG,AFNE01.JPG,AFNE01.JPG,AFNE01.JPG,,,,,,,,,,,,,4,5,45,3,,,,,,,,,,,AMNE06.jpg,AMSA17.jpg,AMSA07.jpg,AMNE16.jpg,AMSA17.jpg,MS,2,num_6,16,num_6,0.483524745199,,,2018_Jan_25_1322,60.0041378215,FEMA4ImagesEEG,001,202774,
AFNE01.JPG,AFNE01.JPG,AFNE01.JPG,AFNE01.JPG,AFNE01.JPG,AFNE01.JPG,,,,,,,,,,,,,4,6,46,1,,,,,,,,,,,AMSA14.jpg,AMNE05.jpg,AMSA03.jpg,AMNE04.jpg,AMSA14.jpg,MS,2,num_8,32,num_2,0.750099509358,,,2018_Jan_25_1322,60.0041378215,FEMA4ImagesEEG,001,202774,
AFNE01.JPG,AFNE01.JPG,AFNE01.JPG,AFNE01.JPG,AFNE01.JPG,AFNE01.JPG,,,,,,,,,,,,,4,7,47,2,,,,,,,,,,,AMSA10.jpg,AMNE14.jpg,AMSA20.jpg,AMNE10.jpg,AMSA10.jpg,MS,2,num_8,32,num_4,0.699919526509,,,2018_Jan_25_1322,60.0041378215,FEMA4ImagesEEG,001,202774,
AFNE01.JPG,AFNE01.JPG,AFNE01.JPG,AFNE01.JPG,AFNE01.JPG,AFNE01.JPG,,,,,,,,,,,,,4,8,48,0,,,,,,,,,,,AMSA11.jpg,AMNE09.jpg,AMSA09.jpg,AMNE17.jpg,AMNE09.jpg,MN,1,num_6,32,num_8,0.750185788231,,,2018_Jan_25_1322,60.0041378215,FEMA4ImagesEEG,001,202774,
AFNE01.JPG,AFNE01.JPG,AFNE01.JPG,AFNE01.JPG,AFNE01.JPG,AFNE01.JPG,,,,,,,,,,,,,4,9,49,8,,,,,,,,,,,AMNE19.jpg,AMSA12.jpg,AMSA14.jpg,AMNE13.jpg,AMSA14.jpg,MS,2,num_2,16,num_2,0.700123195958,,,2018_Jan_25_1322,60.0041378215,FEMA4ImagesEEG,001,202774,
AFNE01.JPG,AFNE01.JPG,AFNE01.JPG,AFNE01.JPG,AFNE01.JPG,AFNE01.JPG,,,,,,,,,,,,,5,0,50,7,,,,,,,,,,,AMSA16.jpg,AMNE10.jpg,AMSA07.jpg,AMNE15.jpg,AMSA16.jpg,MS,2,num_8,16,num_8,0.783469225236,,,2018_Jan_25_1322,60.0041378215,FEMA4ImagesEEG,001,202774,
AFNE01.JPG,AFNE01.JPG,AFNE01.JPG,AFNE01.JPG,AFNE01.JPG,AFNE01.JPG,,,,,,,,,,,,,5,1,51,5,,,,,,,,,,,AMSA08.jpg,AMNE17.jpg,AMNE18.jpg,AMSA17.jpg,AMSA08.jpg,MS,2,num_8,32,num_4,0.900110238101,,,2018_Jan_25_1322,60.0041378215,FEMA4ImagesEEG,001,202774,
AFNE01.JPG,AFNE01.JPG,AFNE01.JPG,AFNE01.JPG,AFNE01.JPG,AFNE01.JPG,,,,,,,,,,,,,5,2,52,1,,,,,,,,,,,AMSA07.jpg,AMNE13.jpg,AMSA14.jpg,AMNE05.jpg,AMSA14.jpg,MS,2,num_2,32,num_6,0.516772900868,,,2018_Jan_25_1322,60.0041378215,FEMA4ImagesEEG,001,202774,
AFNE01.JPG,AFNE01.JPG,AFNE01.JPG,AFNE01.JPG,AFNE01.JPG,AFNE01.JPG,,,,,,,,,,,,,5,3,53,9,,,,,,,,,,,AMNE07.jpg,AMNE06.jpg,AMSA18.jpg,AMSA15.jpg,AMNE07.jpg,MN,1,num_8,16,num_8,0.783327779194,,,2018_Jan_25_1322,60.0041378215,FEMA4ImagesEEG,001,202774,
AFNE01.JPG,AFNE01.JPG,AFNE01.JPG,AFNE01.JPG,AFNE01.JPG,AFNE01.JPG,,,,,,,,,,,,,5,4,54,0,,,,,,,,,,,AMNE10.jpg,AMNE01.jpg,AMSA16.jpg,AMSA11.jpg,AMNE10.jpg,MN,1,num_8,16,num_8,1.01687409412,,,2018_Jan_25_1322,60.0041378215,FEMA4ImagesEEG,001,202774,
AFNE01.JPG,AFNE01.JPG,AFNE01.JPG,AFNE01.JPG,AFNE01.JPG,AFNE01.JPG,,,,,,,,,,,,,5,5,55,3,,,,,,,,,,,AMSA16.jpg,AMNE05.jpg,AMNE04.jpg,AMSA18.jpg,AMSA18.jpg,MS,2,num_4,32,num_8,0.766764481465,,,2018_Jan_25_1322,60.0041378215,FEMA4ImagesEEG,001,202774,
AFNE01.JPG,AFNE01.JPG,AFNE01.JPG,AFNE01.JPG,AFNE01.JPG,AFNE01.JPG,,,,,,,,,,,,,5,6,56,6,,,,,,,,,,,AMNE03.jpg,AMSA15.jpg,AMNE17.jpg,AMSA09.jpg,AMSA15.jpg,MS,2,num_6,16,num_6,0.500162454453,,,2018_Jan_25_1322,60.0041378215,FEMA4ImagesEEG,001,202774,
AFNE01.JPG,AFNE01.JPG,AFNE01.JPG,AFNE01.JPG,AFNE01.JPG,AFNE01.JPG,,,,,,,,,,,,,5,7,57,8,,,,,,,,,,,AMSA18.jpg,AMNE12.jpg,AMNE19.jpg,AMSA05.jpg,AMNE12.jpg,MN,1,num_6,32,num_8,0.816632705726,,,2018_Jan_25_1322,60.0041378215,FEMA4ImagesEEG,001,202774,
AFNE01.JPG,AFNE01.JPG,AFNE01.JPG,AFNE01.JPG,AFNE01.JPG,AFNE01.JPG,,,,,,,,,,,,,5,8,58,2,,,,,,,,,,,AMNE19.jpg,AMNE15.jpg,AMSA09.jpg,AMSA04.jpg,AMNE15.jpg,MN,1,num_6,32,num_4,0.950180528103,,,2018_Jan_25_1322,60.0041378215,FEMA4ImagesEEG,001,202774,
AFNE01.JPG,AFNE01.JPG,AFNE01.JPG,AFNE01.JPG,AFNE01.JPG,AFNE01.JPG,,,,,,,,,,,,,5,9,59,4,,,,,,,,,,,AMSA20.jpg,AMSA10.jpg,AMNE01.jpg,AMNE11.jpg,AMSA10.jpg,MS,2,num_6,32,num_8,0.66680960948,,,2018_Jan_25_1322,60.0041378215,FEMA4ImagesEEG,001,202774,
,,,,,,,,,,,,,,,,,,,,,,,,,,,,,,,,,,,,,,,,,,,space,5.78313373194,2018_Jan_25_1322,60.0041378215,FEMA4ImagesEEG,001,202774,
AFNE01.JPG,AFNE01.JPG,AFNE01.JPG,AFNE01.JPG,AFNE01.JPG,AFNE01.JPG,,,,,,,,,,,,,,,,,0,0,0,9,,,,,,,AFNE06.jpg,AFSA10.jpg,AFNE04.jpg,AFSA19.jpg,AFNE06.jpg,FN,3,num_8,16,num_8,0.866941946515,,,2018_Jan_25_1322,60.0041378215,FEMA4ImagesEEG,001,202774,
AFNE01.JPG,AFNE01.JPG,AFNE01.JPG,AFNE01.JPG,AFNE01.JPG,AFNE01.JPG,,,,,,,,,,,,,,,,,0,1,1,0,,,,,,,AFNE12.jpg,AFNE06.jpg,AFSA12.jpg,AFSA07.jpg,AFNE12.jpg,FN,3,num_8,32,num_6,0.666783308843,,,2018_Jan_25_1322,60.0041378215,FEMA4ImagesEEG,001,202774,
AFNE01.JPG,AFNE01.JPG,AFNE01.JPG,AFNE01.JPG,AFNE01.JPG,AFNE01.JPG,,,,,,,,,,,,,,,,,0,2,2,2,,,,,,,AFSA09.jpg,AFSA02.jpg,AFNE13.jpg,AFNE03.jpg,AFNE03.jpg,FN,3,num_4,32,num_8,0.650160353616,,,2018_Jan_25_1322,60.0041378215,FEMA4ImagesEEG,001,202774,
AFNE01.JPG,AFNE01.JPG,AFNE01.JPG,AFNE01.JPG,AFNE01.JPG,AFNE01.JPG,,,,,,,,,,,,,,,,,0,3,3,3,,,,,,,AFNE12.jpg,AFSA14.jpg,AFNE08.jpg,AFSA07.jpg,AFSA07.jpg,FS,4,num_4,32,num_8,0.750146337305,,,2018_Jan_25_1322,60.0041378215,FEMA4ImagesEEG,001,202774,
AFNE01.JPG,AFNE01.JPG,AFNE01.JPG,AFNE01.JPG,AFNE01.JPG,AFNE01.JPG,,,,,,,,,,,,,,,,,0,4,4,5,,,,,,,AFSA01.jpg,AFNE08.jpg,AFSA14.jpg,AFNE16.jpg,AFNE16.jpg,FN,3,num_4,32,num_8,1.1001264675,,,2018_Jan_25_1322,60.0041378215,FEMA4ImagesEEG,001,202774,
AFNE01.JPG,AFNE01.JPG,AFNE01.JPG,AFNE01.JPG,AFNE01.JPG,AFNE01.JPG,,,,,,,,,,,,,,,,,0,5,5,8,,,,,,,AFSA02.jpg,AFSA03.jpg,AFNE08.jpg,AFNE01.jpg,AFSA03.jpg,FS,4,num_6,32,num_8,1.11673851761,,,2018_Jan_25_1322,60.0041378215,FEMA4ImagesEEG,001,202774,
AFNE01.JPG,AFNE01.JPG,AFNE01.JPG,AFNE01.JPG,AFNE01.JPG,AFNE01.JPG,,,,,,,,,,,,,,,,,0,6,6,1,,,,,,,AFNE09.jpg,AFSA01.jpg,AFNE04.jpg,AFSA11.jpg,AFSA01.jpg,FS,4,num_6,16,num_6,0.733454102359,,,2018_Jan_25_1322,60.0041378215,FEMA4ImagesEEG,001,202774,
AFNE01.JPG,AFNE01.JPG,AFNE01.JPG,AFNE01.JPG,AFNE01.JPG,AFNE01.JPG,,,,,,,,,,,,,,,,,0,7,7,7,,,,,,,AFSA08.jpg,AFNE19.jpg,AFSA01.jpg,AFNE02.jpg,AFSA01.jpg,FS,4,num_2,32,num_8,0.76677089624,,,2018_Jan_25_1322,60.0041378215,FEMA4ImagesEEG,001,202774,
AFNE01.JPG,AFNE01.JPG,AFNE01.JPG,AFNE01.JPG,AFNE01.JPG,AFNE01.JPG,,,,,,,,,,,,,,,,,0,8,8,6,,,,,,,AFSA12.jpg,AFSA05.jpg,AFNE16.jpg,AFNE15.jpg,AFSA12.jpg,FS,4,num_8,32,num_4,1.33348643288,,,2018_Jan_25_1322,60.0041378215,FEMA4ImagesEEG,001,202774,
AFNE01.JPG,AFNE01.JPG,AFNE01.JPG,AFNE01.JPG,AFNE01.JPG,AFNE01.JPG,,,,,,,,,,,,,,,,,0,9,9,4,,,,,,,AFNE09.jpg,AFSA02.jpg,AFSA11.jpg,AFNE18.jpg,AFSA02.jpg,FS,4,num_6,16,num_6,0.650141109247,,,2018_Jan_25_1322,60.0041378215,FEMA4ImagesEEG,001,202774,
AFNE01.JPG,AFNE01.JPG,AFNE01.JPG,AFNE01.JPG,AFNE01.JPG,AFNE01.JPG,,,,,,,,,,,,,,,,,1,0,10,5,,,,,,,AFSA11.jpg,AFNE12.jpg,AFNE06.jpg,AFSA10.jpg,AFNE12.jpg,FN,3,num_6,32,num_2,0.683484845227,,,2018_Jan_25_1322,60.0041378215,FEMA4ImagesEEG,001,202774,
AFNE01.JPG,AFNE01.JPG,AFNE01.JPG,AFNE01.JPG,AFNE01.JPG,AFNE01.JPG,,,,,,,,,,,,,,,,,1,1,11,2,,,,,,,AFSA09.jpg,AFNE06.jpg,AFNE20.jpg,AFSA17.jpg,AFNE20.jpg,FN,3,num_2,32,num_6,1.0334720317,,,2018_Jan_25_1322,60.0041378215,FEMA4ImagesEEG,001,202774,
AFNE01.JPG,AFNE01.JPG,AFNE01.JPG,AFNE01.JPG,AFNE01.JPG,AFNE01.JPG,,,,,,,,,,,,,,,,,1,2,12,3,,,,,,,AFSA18.jpg,AFNE06.jpg,AFNE18.jpg,AFSA08.jpg,AFNE06.jpg,FN,3,num_6,32,num_8,0.833461575603,,,2018_Jan_25_1322,60.0041378215,FEMA4ImagesEEG,001,202774,
AFNE01.JPG,AFNE01.JPG,AFNE01.JPG,AFNE01.JPG,AFNE01.JPG,AFNE01.JPG,,,,,,,,,,,,,,,,,1,3,13,8,,,,,,,AFNE10.jpg,AFSA03.jpg,AFNE01.jpg,AFSA05.jpg,AFSA05.jpg,FS,4,num_4,32,num_2,0.883583504634,,,2018_Jan_25_1322,60.0041378215,FEMA4ImagesEEG,001,202774,
AFNE01.JPG,AFNE01.JPG,AFNE01.JPG,AFNE01.JPG,AFNE01.JPG,AFNE01.JPG,,,,,,,,,,,,,,,,,1,4,14,9,,,,,,,AFNE03.jpg,AFNE04.jpg,AFSA13.jpg,AFSA05.jpg,AFSA13.jpg,FS,4,num_2,32,num_4,0.68351371176,,,2018_Jan_25_1322,60.0041378215,FEMA4ImagesEEG,001,202774,
AFNE01.JPG,AFNE01.JPG,AFNE01.JPG,AFNE01.JPG,AFNE01.JPG,AFNE01.JPG,,,,,,,,,,,,,,,,,1,5,15,0,,,,,,,AFSA07.jpg,AFSA13.jpg,AFNE03.jpg,AFNE14.jpg,AFNE03.jpg,FN,3,num_2,16,num_2,0.683506334768,,,2018_Jan_25_1322,60.0041378215,FEMA4ImagesEEG,001,202774,
AFNE01.JPG,AFNE01.JPG,AFNE01.JPG,AFNE01.JPG,AFNE01.JPG,AFNE01.JPG,,,,,,,,,,,,,,,,,1,6,16,6,,,,,,,AFSA17.jpg,AFSA09.jpg,AFNE03.jpg,AFNE08.jpg,AFNE08.jpg,FN,3,num_4,16,num_4,0.783568975137,,,2018_Jan_25_1322,60.0041378215,FEMA4ImagesEEG,001,202774,
AFNE01.JPG,AFNE01.JPG,AFNE01.JPG,AFNE01.JPG,AFNE01.JPG,AFNE01.JPG,,,,,,,,,,,,,,,,,1,7,17,7,,,,,,,AFNE15.jpg,AFSA19.jpg,AFSA20.jpg,AFNE09.jpg,AFNE15.jpg,FN,3,num_8,16,num_8,0.783576993621,,,2018_Jan_25_1322,60.0041378215,FEMA4ImagesEEG,001,202774,
AFNE01.JPG,AFNE01.JPG,AFNE01.JPG,AFNE01.JPG,AFNE01.JPG,AFNE01.JPG,,,,,,,,,,,,,,,,,1,8,18,4,,,,,,,AFNE19.jpg,AFSA05.jpg,AFSA18.jpg,AFNE04.jpg,AFNE19.jpg,FN,3,num_8,16,num_8,0.900105427005,,,2018_Jan_25_1322,60.0041378215,FEMA4ImagesEEG,001,202774,
AFNE01.JPG,AFNE01.JPG,AFNE01.JPG,AFNE01.JPG,AFNE01.JPG,AFNE01.JPG,,,,,,,,,,,,,,,,,1,9,19,1,,,,,,,AFSA20.jpg,AFNE19.jpg,AFSA03.jpg,AFNE17.jpg,AFSA20.jpg,FS,4,num_8,32,num_2,0.81676613327,,,2018_Jan_25_1322,60.0041378215,FEMA4ImagesEEG,001,202774,
AFNE01.JPG,AFNE01.JPG,AFNE01.JPG,AFNE01.JPG,AFNE01.JPG,AFNE01.JPG,,,,,,,,,,,,,,,,,2,0,20,6,,,,,,,AFNE16.jpg,AFSA20.jpg,AFSA13.jpg,AFNE12.jpg,AFSA20.jpg,FS,4,num_6,32,num_2,1.01659505093,,,2018_Jan_25_1322,60.0041378215,FEMA4ImagesEEG,001,202774,
AFNE01.JPG,AFNE01.JPG,AFNE01.JPG,AFNE01.JPG,AFNE01.JPG,AFNE01.JPG,,,,,,,,,,,,,,,,,2,1,21,7,,,,,,,AFSA02.jpg,AFNE18.jpg,AFSA03.jpg,AFNE01.jpg,AFNE18.jpg,FN,3,num_6,32,num_8,0.733505420663,,,2018_Jan_25_1322,60.0041378215,FEMA4ImagesEEG,001,202774,
AFNE01.JPG,AFNE01.JPG,AFNE01.JPG,AFNE01.JPG,AFNE01.JPG,AFNE01.JPG,,,,,,,,,,,,,,,,,2,2,22,8,,,,,,,AFNE19.jpg,AFSA16.jpg,AFSA19.jpg,AFNE20.jpg,AFSA16.jpg,FS,4,num_6,32,num_8,0.650222577024,,,2018_Jan_25_1322,60.0041378215,FEMA4ImagesEEG,001,202774,
AFNE01.JPG,AFNE01.JPG,AFNE01.JPG,AFNE01.JPG,AFNE01.JPG,AFNE01.JPG,,,,,,,,,,,,,,,,,2,3,23,4,,,,,,,AFSA16.jpg,AFNE06.jpg,AFSA11.jpg,AFNE18.jpg,AFSA11.jpg,FS,4,num_2,32,num_8,0.716819921246,,,2018_Jan_25_1322,60.0041378215,FEMA4ImagesEEG,001,202774,
AFNE01.JPG,AFNE01.JPG,AFNE01.JPG,AFNE01.JPG,AFNE01.JPG,AFNE01.JPG,,,,,,,,,,,,,,,,,2,4,24,5,,,,,,,AFNE06.jpg,AFSA05.jpg,AFNE04.jpg,AFSA12.jpg,AFNE04.jpg,FN,3,num_2,32,num_8,0.966822406976,,,2018_Jan_25_1322,60.0041378215,FEMA4ImagesEEG,001,202774,
AFNE01.JPG,AFNE01.JPG,AFNE01.JPG,AFNE01.JPG,AFNE01.JPG,AFNE01.JPG,,,,,,,,,,,,,,,,,2,5,25,3,,,,,,,AFSA19.jpg,AFNE15.jpg,AFSA01.jpg,AFNE18.jpg,AFNE18.jpg,FN,3,num_4,32,num_2,0.750089566442,,,2018_Jan_25_1322,60.0041378215,FEMA4ImagesEEG,001,202774,
AFNE01.JPG,AFNE01.JPG,AFNE01.JPG,AFNE01.JPG,AFNE01.JPG,AFNE01.JPG,,,,,,,,,,,,,,,,,2,6,26,9,,,,,,,AFSA20.jpg,AFNE16.jpg,AFNE12.jpg,AFSA12.jpg,AFSA20.jpg,FS,4,num_8,16,num_8,1.33345211379,,,2018_Jan_25_1322,60.0041378215,FEMA4ImagesEEG,001,202774,
AFNE01.JPG,AFNE01.JPG,AFNE01.JPG,AFNE01.JPG,AFNE01.JPG,AFNE01.JPG,,,,,,,,,,,,,,,,,2,7,27,1,,,,,,,AFSA05.jpg,AFNE16.jpg,AFSA19.jpg,AFNE20.jpg,AFNE20.jpg,FN,3,num_4,32,num_8,0.866857592075,,,2018_Jan_25_1322,60.0041378215,FEMA4ImagesEEG,001,202774,
AFNE01.JPG,AFNE01.JPG,AFNE01.JPG,AFNE01.JPG,AFNE01.JPG,AFNE01.JPG,,,,,,,,,,,,,,,,,2,8,28,2,,,,,,,AFSA12.jpg,AFSA07.jpg,AFNE13.jpg,AFNE17.jpg,AFNE17.jpg,FN,3,num_4,16,num_4,1.15006846181,,,2018_Jan_25_1322,60.0041378215,FEMA4ImagesEEG,001,202774,
AFNE01.JPG,AFNE01.JPG,AFNE01.JPG,AFNE01.JPG,AFNE01.JPG,AFNE01.JPG,,,,,,,,,,,,,,,,,2,9,29,0,,,,,,,AFSA08.jpg,AFNE04.jpg,AFSA02.jpg,AFNE01.jpg,AFSA08.jpg,FS,4,num_8,32,num_2,0.766798479817,,,2018_Jan_25_1322,60.0041378215,FEMA4ImagesEEG,001,202774,
AFNE01.JPG,AFNE01.JPG,AFNE01.JPG,AFNE01.JPG,AFNE01.JPG,AFNE01.JPG,,,,,,,,,,,,,,,,,3,0,30,0,,,,,,,AFNE11.jpg,AFNE17.jpg,AFSA10.jpg,AFSA01.jpg,AFNE11.jpg,FN,3,num_8,16,num_8,0.816660610042,,,2018_Jan_25_1322,60.0041378215,FEMA4ImagesEEG,001,202774,
AFNE01.JPG,AFNE01.JPG,AFNE01.JPG,AFNE01.JPG,AFNE01.JPG,AFNE01.JPG,,,,,,,,,,,,,,,,,3,1,31,1,,,,,,,AFSA07.jpg,AFSA04.jpg,AFNE14.jpg,AFNE04.jpg,AFNE14.jpg,FN,3,num_2,32,num_8,0.800161139428,,,2018_Jan_25_1322,60.0041378215,FEMA4ImagesEEG,001,202774,
AFNE01.JPG,AFNE01.JPG,AFNE01.JPG,AFNE01.JPG,AFNE01.JPG,AFNE01.JPG,,,,,,,,,,,,,,,,,3,2,32,6,,,,,,,AFSA12.jpg,AFNE13.jpg,AFSA16.jpg,AFNE11.jpg,AFNE11.jpg,FN,3,num_4,32,num_8,0.766794310213,,,2018_Jan_25_1322,60.0041378215,FEMA4ImagesEEG,001,202774,
AFNE01.JPG,AFNE01.JPG,AFNE01.JPG,AFNE01.JPG,AFNE01.JPG,AFNE01.JPG,,,,,,,,,,,,,,,,,3,3,33,5,,,,,,,AFSA02.jpg,AFNE18.jpg,AFSA03.jpg,AFNE01.jpg,AFNE18.jpg,FN,3,num_6,32,num_2,0.950132417216,,,2018_Jan_25_1322,60.0041378215,FEMA4ImagesEEG,001,202774,
AFNE01.JPG,AFNE01.JPG,AFNE01.JPG,AFNE01.JPG,AFNE01.JPG,AFNE01.JPG,,,,,,,,,,,,,,,,,3,4,34,9,,,,,,,AFNE14.jpg,AFSA12.jpg,AFNE19.jpg,AFSA19.jpg,AFNE14.jpg,FN,3,num_8,16,num_8,0.683500240702,,,2018_Jan_25_1322,60.0041378215,FEMA4ImagesEEG,001,202774,
AFNE01.JPG,AFNE01.JPG,AFNE01.JPG,AFNE01.JPG,AFNE01.JPG,AFNE01.JPG,,,,,,,,,,,,,,,,,3,5,35,3,,,,,,,AFSA19.jpg,AFNE09.jpg,AFNE15.jpg,AFSA08.jpg,AFNE09.jpg,FN,3,num_6,32,num_4,0.566669670923,,,2018_Jan_25_1322,60.0041378215,FEMA4ImagesEEG,001,202774,
AFNE01.JPG,AFNE01.JPG,AFNE01.JPG,AFNE01.JPG,AFNE01.JPG,AFNE01.JPG,,,,,,,,,,,,,,,,,3,6,36,7,,,,,,,AFSA04.jpg,AFSA01.jpg,AFNE11.jpg,AFNE09.jpg,AFNE11.jpg,FN,3,num_2,16,num_2,0.850122057323,,,2018_Jan_25_1322,60.0041378215,FEMA4ImagesEEG,001,202774,
AFNE01.JPG,AFNE01.JPG,AFNE01.JPG,AFNE01.JPG,AFNE01.JPG,AFNE01.JPG,,,,,,,,,,,,,,,,,3,7,37,2,,,,,,,AFSA07.jpg,AFNE03.jpg,AFNE10.jpg,AFSA18.jpg,AFNE10.jpg,FN,3,num_2,32,num_8,1.01676504275,,,2018_Jan_25_1322,60.0041378215,FEMA4ImagesEEG,001,202774,
AFNE01.JPG,AFNE01.JPG,AFNE01.JPG,AFNE01.JPG,AFNE01.JPG,AFNE01.JPG,,,,,,,,,,,,,,,,,3,8,38,4,,,,,,,AFSA15.jpg,AFNE18.jpg,AFNE07.jpg,AFSA20.jpg,AFNE18.jpg,FN,3,num_6,32,num_2,0.900155462339,,,2018_Jan_25_1322,60.0041378215,FEMA4ImagesEEG,001,202774,
AFNE01.JPG,AFNE01.JPG,AFNE01.JPG,AFNE01.JPG,AFNE01.JPG,AFNE01.JPG,,,,,,,,,,,,,,,,,3,9,39,8,,,,,,,AFNE13.jpg,AFSA07.jpg,AFNE17.jpg,AFSA08.jpg,AFSA08.jpg,FS,4,num_4,32,num_8,0.700155269893,,,2018_Jan_25_1322,60.0041378215,FEMA4ImagesEEG,001,202774,
AFNE01.JPG,AFNE01.JPG,AFNE01.JPG,AFNE01.JPG,AFNE01.JPG,AFNE01.JPG,,,,,,,,,,,,,,,,,4,0,40,0,,,,,,,AFNE07.jpg,AFSA11.jpg,AFSA19.jpg,AFNE18.jpg,AFSA19.jpg,FS,4,num_2,16,num_2,0.850077474577,,,2018_Jan_25_1322,60.0041378215,FEMA4ImagesEEG,001,202774,
AFNE01.JPG,AFNE01.JPG,AFNE01.JPG,AFNE01.JPG,AFNE01.JPG,AFNE01.JPG,,,,,,,,,,,,,,,,,4,1,41,9,,,,,,,AFNE02.jpg,AFSA17.jpg,AFNE15.jpg,AFSA04.jpg,AFNE02.jpg,FN,3,num_8,16,num_8,0.600197831984,,,2018_Jan_25_1322,60.0041378215,FEMA4ImagesEEG,001,202774,
AFNE01.JPG,AFNE01.JPG,AFNE01.JPG,AFNE01.JPG,AFNE01.JPG,AFNE01.JPG,,,,,,,,,,,,,,,,,4,2,42,8,,,,,,,AFNE06.jpg,AFSA02.jpg,AFSA13.jpg,AFNE12.jpg,AFSA02.jpg,FS,4,num_6,16,num_6,0.733479440765,,,2018_Jan_25_1322,60.0041378215,FEMA4ImagesEEG,001,202774,
AFNE01.JPG,AFNE01.JPG,AFNE01.JPG,AFNE01.JPG,AFNE01.JPG,AFNE01.JPG,,,,,,,,,,,,,,,,,4,3,43,4,,,,,,,AFNE14.jpg,AFNE06.jpg,AFSA07.jpg,AFSA17.jpg,AFSA17.jpg,FS,4,num_4,32,num_8,0.75011682928,,,2018_Jan_25_1322,60.0041378215,FEMA4ImagesEEG,001,202774,
AFNE01.JPG,AFNE01.JPG,AFNE01.JPG,AFNE01.JPG,AFNE01.JPG,AFNE01.JPG,,,,,,,,,,,,,,,,,4,4,44,1,,,,,,,AFNE19.jpg,AFNE12.jpg,AFSA07.jpg,AFSA20.jpg,AFSA07.jpg,FS,4,num_2,32,num_8,0.766938963628,,,2018_Jan_25_1322,60.0041378215,FEMA4ImagesEEG,001,202774,
AFNE01.JPG,AFNE01.JPG,AFNE01.JPG,AFNE01.JPG,AFNE01.JPG,AFNE01.JPG,,,,,,,,,,,,,,,,,4,5,45,5,,,,,,,AFNE20.jpg,AFSA17.jpg,AFSA18.jpg,AFNE13.jpg,AFSA18.jpg,FS,4,num_2,32,num_4,0.700100102724,,,2018_Jan_25_1322,60.0041378215,FEMA4ImagesEEG,001,202774,
AFNE01.JPG,AFNE01.JPG,AFNE01.JPG,AFNE01.JPG,AFNE01.JPG,AFNE01.JPG,,,,,,,,,,,,,,,,,4,6,46,3,,,,,,,AFNE14.jpg,AFSA04.jpg,AFSA18.jpg,AFNE18.jpg,AFSA18.jpg,FS,4,num_2,16,num_2,0.600171852115,,,2018_Jan_25_1322,60.0041378215,FEMA4ImagesEEG,001,202774,
AFNE01.JPG,AFNE01.JPG,AFNE01.JPG,AFNE01.JPG,AFNE01.JPG,AFNE01.JPG,,,,,,,,,,,,,,,,,4,7,47,6,,,,,,,AFNE16.jpg,AFSA09.jpg,AFNE08.jpg,AFSA07.jpg,AFNE16.jpg,FN,3,num_8,16,num_8,0.716827298253,,,2018_Jan_25_1322,60.0041378215,FEMA4ImagesEEG,001,202774,
AFNE01.JPG,AFNE01.JPG,AFNE01.JPG,AFNE01.JPG,AFNE01.JPG,AFNE01.JPG,,,,,,,,,,,,,,,,,4,8,48,7,,,,,,,AFSA04.jpg,AFNE15.jpg,AFNE02.jpg,AFSA09.jpg,AFNE15.jpg,FN,3,num_6,16,num_6,1.15011753491,,,2018_Jan_25_1322,60.0041378215,FEMA4ImagesEEG,001,202774,
AFNE01.JPG,AFNE01.JPG,AFNE01.JPG,AFNE01.JPG,AFNE01.JPG,AFNE01.JPG,,,,,,,,,,,,,,,,,4,9,49,2,,,,,,,AFSA03.jpg,AFSA11.jpg,AFNE17.jpg,AFNE18.jpg,AFNE18.jpg,FN,3,num_4,32,num_8,0.583501748188,,,2018_Jan_25_1322,60.0041378215,FEMA4ImagesEEG,001,202774,
AFNE01.JPG,AFNE01.JPG,AFNE01.JPG,AFNE01.JPG,AFNE01.JPG,AFNE01.JPG,,,,,,,,,,,,,,,,,5,0,50,9,,,,,,,AFNE14.jpg,AFSA13.jpg,AFNE03.jpg,AFSA05.jpg,AFNE03.jpg,FN,3,num_2,32,num_6,0.616798014758,,,2018_Jan_25_1322,60.0041378215,FEMA4ImagesEEG,001,202774,
AFNE01.JPG,AFNE01.JPG,AFNE01.JPG,AFNE01.JPG,AFNE01.JPG,AFNE01.JPG,,,,,,,,,,,,,,,,,5,1,51,8,,,,,,,AFNE01.jpg,AFNE06.jpg,AFSA03.jpg,AFSA11.jpg,AFSA03.jpg,FS,4,num_2,16,num_2,0.650018907589,,,2018_Jan_25_1322,60.0041378215,FEMA4ImagesEEG,001,202774,
AFNE01.JPG,AFNE01.JPG,AFNE01.JPG,AFNE01.JPG,AFNE01.JPG,AFNE01.JPG,,,,,,,,,,,,,,,,,5,2,52,0,,,,,,,AFSA11.jpg,AFNE18.jpg,AFNE04.jpg,AFSA05.jpg,AFNE04.jpg,FN,3,num_2,32,num_6,0.716781111783,,,2018_Jan_25_1322,60.0041378215,FEMA4ImagesEEG,001,202774,
AFNE01.JPG,AFNE01.JPG,AFNE01.JPG,AFNE01.JPG,AFNE01.JPG,AFNE01.JPG,,,,,,,,,,,,,,,,,5,3,53,4,,,,,,,AFSA07.jpg,AFSA06.jpg,AFNE02.jpg,AFNE14.jpg,AFSA07.jpg,FS,4,num_8,32,num_2,0.73345121571,,,2018_Jan_25_1322,60.0041378215,FEMA4ImagesEEG,001,202774,
AFNE01.JPG,AFNE01.JPG,AFNE01.JPG,AFNE01.JPG,AFNE01.JPG,AFNE01.JPG,,,,,,,,,,,,,,,,,5,4,54,1,,,,,,,AFNE14.jpg,AFSA19.jpg,AFSA18.jpg,AFNE06.jpg,AFSA18.jpg,FS,4,num_2,16,num_2,0.733491308129,,,2018_Jan_25_1322,60.0041378215,FEMA4ImagesEEG,001,202774,
AFNE01.JPG,AFNE01.JPG,AFNE01.JPG,AFNE01.JPG,AFNE01.JPG,AFNE01.JPG,,,,,,,,,,,,,,,,,5,5,55,7,,,,,,,AFSA04.jpg,AFNE18.jpg,AFNE20.jpg,AFSA08.jpg,AFNE20.jpg,FN,3,num_2,32,num_6,0.616509990869,,,2018_Jan_25_1322,60.0041378215,FEMA4ImagesEEG,001,202774,
AFNE01.JPG,AFNE01.JPG,AFNE01.JPG,AFNE01.JPG,AFNE01.JPG,AFNE01.JPG,,,,,,,,,,,,,,,,,5,6,56,5,,,,,,,AFNE10.jpg,AFSA17.jpg,AFNE11.jpg,AFSA09.jpg,AFSA09.jpg,FS,4,num_4,32,num_8,1.4000885882,,,2018_Jan_25_1322,60.0041378215,FEMA4ImagesEEG,001,202774,
AFNE01.JPG,AFNE01.JPG,AFNE01.JPG,AFNE01.JPG,AFNE01.JPG,AFNE01.JPG,,,,,,,,,,,,,,,,,5,7,57,3,,,,,,,AFSA09.jpg,AFNE06.jpg,AFSA17.jpg,AFNE14.jpg,AFSA09.jpg,FS,4,num_8,32,num_2,1.2668028098,,,2018_Jan_25_1322,60.0041378215,FEMA4ImagesEEG,001,202774,
AFNE01.JPG,AFNE01.JPG,AFNE01.JPG,AFNE01.JPG,AFNE01.JPG,AFNE01.JPG,,,,,,,,,,,,,,,,,5,8,58,2,,,,,,,AFSA05.jpg,AFNE14.jpg,AFNE13.jpg,AFSA06.jpg,AFSA06.jpg,FS,4,num_4,32,num_8,0.833488517688,,,2018_Jan_25_1322,60.0041378215,FEMA4ImagesEEG,001,202774,
AFNE01.JPG,AFNE01.JPG,AFNE01.JPG,AFNE01.JPG,AFNE01.JPG,AFNE01.JPG,,,,,,,,,,,,,,,,,5,9,59,6,,,,,,,AFNE20.jpg,AFSA17.jpg,AFNE13.jpg,AFSA10.jpg,AFSA10.jpg,FS,4,num_4,32,num_6,0.78348879033,,,2018_Jan_25_1322,60.0041378215,FEMA4ImagesEEG,001,202774,
,,,,,,,,,,,,,,,,,,,,,,,,,,,,,,,,,,,,,,,,,,,space,4.58311108773,2018_Jan_25_1322,60.0041378215,FEMA4ImagesEEG,001,202774,
AFNE01.JPG,AFNE01.JPG,AFNE01.JPG,AFNE01.JPG,AFNE01.JPG,AFNE01.JPG,,,,,,,,,,,,,,,,,,,,,0,0,0,8,,,AMSA07.jpg,AMNE18.jpg,AMNE07.jpg,AMSA15.jpg,AMSA15.jpg,MS,2,num_4,16,num_4,1.01674130805,,,2018_Jan_25_1322,60.0041378215,FEMA4ImagesEEG,001,202774,
AFNE01.JPG,AFNE01.JPG,AFNE01.JPG,AFNE01.JPG,AFNE01.JPG,AFNE01.JPG,,,,,,,,,,,,,,,,,,,,,0,1,1,3,,,AMSA03.jpg,AMSA20.jpg,AMNE01.jpg,AMNE11.jpg,AMSA20.jpg,MS,2,num_6,32,num_2,1.40007223048,,,2018_Jan_25_1322,60.0041378215,FEMA4ImagesEEG,001,202774,
AFNE01.JPG,AFNE01.JPG,AFNE01.JPG,AFNE01.JPG,AFNE01.JPG,AFNE01.JPG,,,,,,,,,,,,,,,,,,,,,0,2,2,7,,,AMSA20.jpg,AMNE09.jpg,AMNE04.jpg,AMSA03.jpg,AMNE09.jpg,MN,1,num_6,16,num_6,0.850131038038,,,2018_Jan_25_1322,60.0041378215,FEMA4ImagesEEG,001,202774,
AFNE01.JPG,AFNE01.JPG,AFNE01.JPG,AFNE01.JPG,AFNE01.JPG,AFNE01.JPG,,,,,,,,,,,,,,,,,,,,,0,3,3,6,,,AMNE11.jpg,AMSA08.jpg,AMSA13.jpg,AMNE09.jpg,AMSA08.jpg,MS,2,num_6,16,num_6,1.13343845028,,,2018_Jan_25_1322,60.0041378215,FEMA4ImagesEEG,001,202774,
AFNE01.JPG,AFNE01.JPG,AFNE01.JPG,AFNE01.JPG,AFNE01.JPG,AFNE01.JPG,,,,,,,,,,,,,,,,,,,,,0,4,4,5,,,AMNE14.jpg,AMNE02.jpg,AMSA07.jpg,AMSA01.jpg,AMSA07.jpg,MS,2,num_2,16,num_2,0.933467445124,,,2018_Jan_25_1322,60.0041378215,FEMA4ImagesEEG,001,202774,
AFNE01.JPG,AFNE01.JPG,AFNE01.JPG,AFNE01.JPG,AFNE01.JPG,AFNE01.JPG,,,,,,,,,,,,,,,,,,,,,0,5,5,4,,,AMNE12.jpg,AMSA18.jpg,AMSA12.jpg,AMNE09.jpg,AMNE09.jpg,MN,1,num_4,32,num_8,0.68349061854,,,2018_Jan_25_1322,60.0041378215,FEMA4ImagesEEG,001,202774,
AFNE01.JPG,AFNE01.JPG,AFNE01.JPG,AFNE01.JPG,AFNE01.JPG,AFNE01.JPG,,,,,,,,,,,,,,,,,,,,,0,6,6,9,,,AMNE01.jpg,AMSA15.jpg,AMSA08.jpg,AMNE02.jpg,AMSA15.jpg,MS,2,num_6,32,num_8,0.883441417129,,,2018_Jan_25_1322,60.0041378215,FEMA4ImagesEEG,001,202774,
AFNE01.JPG,AFNE01.JPG,AFNE01.JPG,AFNE01.JPG,AFNE01.JPG,AFNE01.JPG,,,,,,,,,,,,,,,,,,,,,0,7,7,2,,,AMSA08.jpg,AMSA18.jpg,AMNE02.jpg,AMNE20.jpg,AMSA08.jpg,MS,2,num_8,32,num_2,0.750174562359,,,2018_Jan_25_1322,60.0041378215,FEMA4ImagesEEG,001,202774,
AFNE01.JPG,AFNE01.JPG,AFNE01.JPG,AFNE01.JPG,AFNE01.JPG,AFNE01.JPG,,,,,,,,,,,,,,,,,,,,,0,8,8,0,,,AMSA19.jpg,AMNE14.jpg,AMSA01.jpg,AMNE02.jpg,AMSA01.jpg,MS,2,num_2,32,num_8,0.733471743035,,,2018_Jan_25_1322,60.0041378215,FEMA4ImagesEEG,001,202774,
AFNE01.JPG,AFNE01.JPG,AFNE01.JPG,AFNE01.JPG,AFNE01.JPG,AFNE01.JPG,,,,,,,,,,,,,,,,,,,,,0,9,9,1,,,AMNE16.jpg,AMSA04.jpg,AMSA20.jpg,AMNE03.jpg,AMSA20.jpg,MS,2,num_2,32,num_4,0.733482327429,,,2018_Jan_25_1322,60.0041378215,FEMA4ImagesEEG,001,202774,
AFNE01.JPG,AFNE01.JPG,AFNE01.JPG,AFNE01.JPG,AFNE01.JPG,AFNE01.JPG,,,,,,,,,,,,,,,,,,,,,1,0,10,2,,,AMSA19.jpg,AMNE09.jpg,AMNE04.jpg,AMSA06.jpg,AMSA19.jpg,MS,2,num_8,16,num_8,0.866737956327,,,2018_Jan_25_1322,60.0041378215,FEMA4ImagesEEG,001,202774,
AFNE01.JPG,AFNE01.JPG,AFNE01.JPG,AFNE01.JPG,AFNE01.JPG,AFNE01.JPG,,,,,,,,,,,,,,,,,,,,,1,1,11,7,,,AMSA05.jpg,AMNE14.jpg,AMNE08.jpg,AMSA13.jpg,AMSA05.jpg,MS,2,num_8,32,num_6,1.91681466113,,,2018_Jan_25_1322,60.0041378215,FEMA4ImagesEEG,001,202774,
AFNE01.JPG,AFNE01.JPG,AFNE01.JPG,AFNE01.JPG,AFNE01.JPG,AFNE01.JPG,,,,,,,,,,,,,,,,,,,,,1,2,12,1,,,AMSA03.jpg,AMNE02.jpg,AMSA07.jpg,AMNE14.jpg,AMSA03.jpg,MS,2,num_8,16,num_8,1.30007373796,,,2018_Jan_25_1322,60.0041378215,FEMA4ImagesEEG,001,202774,
AFNE01.JPG,AFNE01.JPG,AFNE01.JPG,AFNE01.JPG,AFNE01.JPG,AFNE01.JPG,,,,,,,,,,,,,,,,,,,,,1,3,13,0,,,AMSA12.jpg,AMSA15.jpg,AMNE03.jpg,AMNE10.jpg,AMNE03.jpg,MN,1,num_2,32,num_8,0.850140660215,,,2018_Jan_25_1322,60.0041378215,FEMA4ImagesEEG,001,202774,
AFNE01.JPG,AFNE01.JPG,AFNE01.JPG,AFNE01.JPG,AFNE01.JPG,AFNE01.JPG,,,,,,,,,,,,,,,,,,,,,1,4,14,8,,,AMNE19.jpg,AMSA09.jpg,AMSA06.jpg,AMNE16.jpg,AMSA06.jpg,MS,2,num_2,16,num_2,0.616774280046,,,2018_Jan_25_1322,60.0041378215,FEMA4ImagesEEG,001,202774,
AFNE01.JPG,AFNE01.JPG,AFNE01.JPG,AFNE01.JPG,AFNE01.JPG,AFNE01.JPG,,,,,,,,,,,,,,,,,,,,,1,5,15,5,,,AMNE14.jpg,AMSA16.jpg,AMSA12.jpg,AMNE12.jpg,AMNE14.jpg,MN,1,num_8,16,num_8,0.716812223502,,,2018_Jan_25_1322,60.0041378215,FEMA4ImagesEEG,001,202774,
AFNE01.JPG,AFNE01.JPG,AFNE01.JPG,AFNE01.JPG,AFNE01.JPG,AFNE01.JPG,,,,,,,,,,,,,,,,,,,,,1,6,16,4,,,AMNE16.jpg,AMNE18.jpg,AMSA01.jpg,AMSA08.jpg,AMNE16.jpg,MN,1,num_8,16,num_8,0.650155863259,,,2018_Jan_25_1322,60.0041378215,FEMA4ImagesEEG,001,202774,
AFNE01.JPG,AFNE01.JPG,AFNE01.JPG,AFNE01.JPG,AFNE01.JPG,AFNE01.JPG,,,,,,,,,,,,,,,,,,,,,1,7,17,9,,,AMSA08.jpg,AMSA09.jpg,AMNE17.jpg,AMNE04.jpg,AMNE17.jpg,MN,1,num_2,32,num_6,0.750171034233,,,2018_Jan_25_1322,60.0041378215,FEMA4ImagesEEG,001,202774,
AFNE01.JPG,AFNE01.JPG,AFNE01.JPG,AFNE01.JPG,AFNE01.JPG,AFNE01.JPG,,,,,,,,,,,,,,,,,,,,,1,8,18,3,,,AMSA07.jpg,AMNE07.jpg,AMNE09.jpg,AMSA12.jpg,AMNE07.jpg,MN,1,num_6,32,num_8,0.783468263005,,,2018_Jan_25_1322,60.0041378215,FEMA4ImagesEEG,001,202774,
AFNE01.JPG,AFNE01.JPG,AFNE01.JPG,AFNE01.JPG,AFNE01.JPG,AFNE01.JPG,,,,,,,,,,,,,,,,,,,,,1,9,19,6,,,AMNE14.jpg,AMSA05.jpg,AMSA04.jpg,AMNE12.jpg,AMSA04.jpg,MS,2,num_2,32,num_4,1.01675830723,,,2018_Jan_25_1322,60.0041378215,FEMA4ImagesEEG,001,202774,
AFNE01.JPG,AFNE01.JPG,AFNE01.JPG,AFNE01.JPG,AFNE01.JPG,AFNE01.JPG,,,,,,,,,,,,,,,,,,,,,2,0,20,9,,,AMSA20.jpg,AMNE01.jpg,AMSA02.jpg,AMNE02.jpg,AMNE01.jpg,MN,1,num_6,32,num_2,0.733339919185,,,2018_Jan_25_1322,60.0041378215,FEMA4ImagesEEG,001,202774,
AFNE01.JPG,AFNE01.JPG,AFNE01.JPG,AFNE01.JPG,AFNE01.JPG,AFNE01.JPG,,,,,,,,,,,,,,,,,,,,,2,1,21,0,,,AMSA16.jpg,AMNE12.jpg,AMSA13.jpg,AMNE05.jpg,AMSA13.jpg,MS,2,num_2,16,num_2,0.816768057703,,,2018_Jan_25_1322,60.0041378215,FEMA4ImagesEEG,001,202774,
AFNE01.JPG,AFNE01.JPG,AFNE01.JPG,AFNE01.JPG,AFNE01.JPG,AFNE01.JPG,,,,,,,,,,,,,,,,,,,,,2,2,22,2,,,AMNE10.jpg,AMNE18.jpg,AMSA14.jpg,AMSA13.jpg,AMNE18.jpg,MN,1,num_6,16,num_6,0.93353127224,,,2018_Jan_25_1322,60.0041378215,FEMA4ImagesEEG,001,202774,
AFNE01.JPG,AFNE01.JPG,AFNE01.JPG,AFNE01.JPG,AFNE01.JPG,AFNE01.JPG,,,,,,,,,,,,,,,,,,,,,2,3,23,1,,,AMSA14.jpg,AMNE18.jpg,AMSA09.jpg,AMNE08.jpg,AMSA09.jpg,MS,2,num_2,32,num_4,1.01676889163,,,2018_Jan_25_1322,60.0041378215,FEMA4ImagesEEG,001,202774,
AFNE01.JPG,AFNE01.JPG,AFNE01.JPG,AFNE01.JPG,AFNE01.JPG,AFNE01.JPG,,,,,,,,,,,,,,,,,,,,,2,4,24,7,,,AMNE05.jpg,AMNE14.jpg,AMSA02.jpg,AMSA19.jpg,AMSA19.jpg,MS,2,num_4,32,num_8,0.766808422733,,,2018_Jan_25_1322,60.0041378215,FEMA4ImagesEEG,001,202774,
AFNE01.JPG,AFNE01.JPG,AFNE01.JPG,AFNE01.JPG,AFNE01.JPG,AFNE01.JPG,,,,,,,,,,,,,,,,,,,,,2,5,25,8,,,AMSA19.jpg,AMNE09.jpg,AMNE18.jpg,AMSA15.jpg,AMSA19.jpg,MS,2,num_8,32,num_6,0.733501892522,,,2018_Jan_25_1322,60.0041378215,FEMA4ImagesEEG,001,202774,
AFNE01.JPG,AFNE01.JPG,AFNE01.JPG,AFNE01.JPG,AFNE01.JPG,AFNE01.JPG,,,,,,,,,,,,,,,,,,,,,2,6,26,3,,,AMNE19.jpg,AMSA14.jpg,AMNE20.jpg,AMSA09.jpg,AMSA14.jpg,MS,2,num_6,32,num_8,0.71684590113,,,2018_Jan_25_1322,60.0041378215,FEMA4ImagesEEG,001,202774,
AFNE01.JPG,AFNE01.JPG,AFNE01.JPG,AFNE01.JPG,AFNE01.JPG,AFNE01.JPG,,,,,,,,,,,,,,,,,,,,,2,7,27,5,,,AMSA06.jpg,AMSA01.jpg,AMNE13.jpg,AMNE18.jpg,AMNE13.jpg,MN,1,num_2,16,num_2,0.850271201096,,,2018_Jan_25_1322,60.0041378215,FEMA4ImagesEEG,001,202774,
AFNE01.JPG,AFNE01.JPG,AFNE01.JPG,AFNE01.JPG,AFNE01.JPG,AFNE01.JPG,,,,,,,,,,,,,,,,,,,,,2,8,28,6,,,AMNE18.jpg,AMSA17.jpg,AMSA03.jpg,AMNE03.jpg,AMSA03.jpg,MS,2,num_2,32,num_4,0.783480451093,,,2018_Jan_25_1322,60.0041378215,FEMA4ImagesEEG,001,202774,
AFNE01.JPG,AFNE01.JPG,AFNE01.JPG,AFNE01.JPG,AFNE01.JPG,AFNE01.JPG,,,,,,,,,,,,,,,,,,,,,2,9,29,4,,,AMSA04.jpg,AMSA05.jpg,AMNE07.jpg,AMNE15.jpg,AMSA05.jpg,MS,2,num_6,32,num_8,0.900153537892,,,2018_Jan_25_1322,60.0041378215,FEMA4ImagesEEG,001,202774,
AFNE01.JPG,AFNE01.JPG,AFNE01.JPG,AFNE01.JPG,AFNE01.JPG,AFNE01.JPG,,,,,,,,,,,,,,,,,,,,,3,0,30,7,,,AMSA11.jpg,AMNE19.jpg,AMSA10.jpg,AMNE15.jpg,AMSA11.jpg,MS,2,num_8,32,num_4,0.850146112789,,,2018_Jan_25_1322,60.0041378215,FEMA4ImagesEEG,001,202774,
AFNE01.JPG,AFNE01.JPG,AFNE01.JPG,AFNE01.JPG,AFNE01.JPG,AFNE01.JPG,,,,,,,,,,,,,,,,,,,,,3,1,31,8,,,AMSA19.jpg,AMNE02.jpg,AMSA07.jpg,AMNE07.jpg,AMSA19.jpg,MS,2,num_8,32,num_6,0.783513166505,,,2018_Jan_25_1322,60.0041378215,FEMA4ImagesEEG,001,202774,
AFNE01.JPG,AFNE01.JPG,AFNE01.JPG,AFNE01.JPG,AFNE01.JPG,AFNE01.JPG,,,,,,,,,,,,,,,,,,,,,3,2,32,1,,,AMSA05.jpg,AMSA11.jpg,AMNE03.jpg,AMNE01.jpg,AMNE01.jpg,MN,1,num_4,16,num_4,1.06674263912,,,2018_Jan_25_1322,60.0041378215,FEMA4ImagesEEG,001,202774,
AFNE01.JPG,AFNE01.JPG,AFNE01.JPG,AFNE01.JPG,AFNE01.JPG,AFNE01.JPG,,,,,,,,,,,,,,,,,,,,,3,3,33,6,,,AMSA14.jpg,AMSA13.jpg,AMNE03.jpg,AMNE16.jpg,AMNE03.jpg,MN,1,num_2,32,num_8,0.983441513352,,,2018_Jan_25_1322,60.0041378215,FEMA4ImagesEEG,001,202774,
AFNE01.JPG,AFNE01.JPG,AFNE01.JPG,AFNE01.JPG,AFNE01.JPG,AFNE01.JPG,,,,,,,,,,,,,,,,,,,,,3,4,34,9,,,AMSA02.jpg,AMSA11.jpg,AMNE09.jpg,AMNE03.jpg,AMSA02.jpg,MS,2,num_8,16,num_8,0.800098915992,,,2018_Jan_25_1322,60.0041378215,FEMA4ImagesEEG,001,202774,
AFNE01.JPG,AFNE01.JPG,AFNE01.JPG,AFNE01.JPG,AFNE01.JPG,AFNE01.JPG,,,,,,,,,,,,,,,,,,,,,3,5,35,4,,,AMSA10.jpg,AMSA16.jpg,AMNE17.jpg,AMNE13.jpg,AMSA10.jpg,MS,2,num_8,32,num_6,0.533511963746,,,2018_Jan_25_1322,60.0041378215,FEMA4ImagesEEG,001,202774,
AFNE01.JPG,AFNE01.JPG,AFNE01.JPG,AFNE01.JPG,AFNE01.JPG,AFNE01.JPG,,,,,,,,,,,,,,,,,,,,,3,6,36,3,,,AMNE03.jpg,AMSA05.jpg,AMNE17.jpg,AMSA14.jpg,AMNE17.jpg,MN,1,num_2,32,num_8,0.81675330369,,,2018_Jan_25_1322,60.0041378215,FEMA4ImagesEEG,001,202774,
AFNE01.JPG,AFNE01.JPG,AFNE01.JPG,AFNE01.JPG,AFNE01.JPG,AFNE01.JPG,,,,,,,,,,,,,,,,,,,,,3,7,37,5,,,AMSA17.jpg,AMNE19.jpg,AMNE17.jpg,AMSA04.jpg,AMNE19.jpg,MN,1,num_6,16,num_6,1.21671263395,,,2018_Jan_25_1322,60.0041378215,FEMA4ImagesEEG,001,202774,
AFNE01.JPG,AFNE01.JPG,AFNE01.JPG,AFNE01.JPG,AFNE01.JPG,AFNE01.JPG,,,,,,,,,,,,,,,,,,,,,3,8,38,0,,,AMSA03.jpg,AMNE18.jpg,AMSA11.jpg,AMNE13.jpg,AMNE13.jpg,MN,1,num_4,32,num_2,1.35012093475,,,2018_Jan_25_1322,60.0041378215,FEMA4ImagesEEG,001,202774,
