IPosition2,IPosition3,IPosition1,IPosition6,IPosition4,IPosition5,TrialsF1.thisRepN,TrialsF1.thisTrialN,TrialsF1.thisN,TrialsF1.thisIndex,TrialsM1.thisRepN,TrialsM1.thisTrialN,TrialsM1.thisN,TrialsM1.thisIndex,TrialsF2.thisRepN,TrialsF2.thisTrialN,TrialsF2.thisN,TrialsF2.thisIndex,TrialsM2.thisRepN,TrialsM2.thisTrialN,TrialsM2.thisN,TrialsM2.thisIndex,TrialsF3.thisRepN,TrialsF3.thisTrialN,TrialsF3.thisN,TrialsF3.thisIndex,TrialsM3.thisRepN,TrialsM3.thisTrialN,TrialsM3.thisN,TrialsM3.thisIndex,InstrKey_resp.keys,InstrKey_resp.rt,Image0 _Position,Image1 _Position,Image2 _Position,Image3 _Position,Center_image,condition,code,correct_answer,accuracy,Key_Resp.keys,Key_Resp.rt,BreakKey_resp.keys,BreakKey_resp.rt,date,frameRate,expName,session,participant,
,,,,,,,,,,,,,,,,,,,,,,,,,,,,,,space,7.41656830659,,,,,,,,,,,,,,2018_Jan_22_1117,60.0051579327,FEMA4ImagesEEG,001,202766,
AMSA21.JPG,AMNE22.JPG,AMNE21.JPG,AMSA23.JPG,AMSA22.JPG,AMNE23.JPG,0,0,0,1,,,,,,,,,,,,,,,,,,,,,,,AFSA08.jpg,AFNE12.jpg,AFSA11.jpg,AFNE20.jpg,AFNE12.jpg,FN,3,num_6,16,num_6,0.933593474364,,,2018_Jan_22_1117,60.0051579327,FEMA4ImagesEEG,001,202766,
AMSA25.JPG,AMNE24.JPG,AMSA24.JPG,AMNE26.JPG,AMSA21.JPG,AMNE25.JPG,0,1,1,3,,,,,,,,,,,,,,,,,,,,,,,AFNE20.jpg,AFNE06.jpg,AFSA02.jpg,AFSA06.jpg,AFNE06.jpg,FN,3,num_6,32,num_2,1.18347063118,,,2018_Jan_22_1117,60.0051579327,FEMA4ImagesEEG,001,202766,
AFSA25.JPG,AFNE24.JPG,AFSA24.JPG,AFNE21.JPG,AFSA21.JPG,AFNE25.JPG,0,2,2,2,,,,,,,,,,,,,,,,,,,,,,,AFSA08.jpg,AFSA07.jpg,AFNE17.jpg,AFNE12.jpg,AFNE17.jpg,FN,3,num_2,32,num_8,1.70010545911,,,2018_Jan_22_1117,60.0051579327,FEMA4ImagesEEG,001,202766,
AMNE23.JPG,AMNE24.JPG,AMNE22.JPG,AMSA24.JPG,AMSA22.JPG,AMSA23.JPG,0,3,3,9,,,,,,,,,,,,,,,,,,,,,,,AFSA18.jpg,AFSA10.jpg,AFNE03.jpg,AFNE10.jpg,AFSA18.jpg,FS,4,num_8,16,num_8,1.18343118023,,,2018_Jan_22_1117,60.0051579327,FEMA4ImagesEEG,001,202766,
AFNE23.JPG,AFNE24.JPG,AFNE22.JPG,AFSA24.JPG,AFSA22.JPG,AFSA23.JPG,0,4,4,8,,,,,,,,,,,,,,,,,,,,,,,AFNE13.jpg,AFSA04.jpg,AFSA18.jpg,AFNE19.jpg,AFNE19.jpg,FN,3,num_4,16,num_4,0.950136570834,,,2018_Jan_22_1117,60.0051579327,FEMA4ImagesEEG,001,202766,
AFNE22.JPG,AFSA24.JPG,AFSA22.JPG,AFNE25.JPG,AFNE24.JPG,AFSA25.JPG,0,5,5,6,,,,,,,,,,,,,,,,,,,,,,,AFSA06.jpg,AFNE08.jpg,AFNE02.jpg,AFSA18.jpg,AFNE02.jpg,FN,3,num_2,32,num_6,1.11673149879,,,2018_Jan_22_1117,60.0051579327,FEMA4ImagesEEG,001,202766,
AMNE22.JPG,AMSA24.JPG,AMSA22.JPG,AMNE25.JPG,AMNE24.JPG,AMSA25.JPG,0,6,6,7,,,,,,,,,,,,,,,,,,,,,,,AFSA13.jpg,AFNE10.jpg,AFNE15.jpg,AFSA17.jpg,AFNE10.jpg,FN,3,num_6,32,num_4,1.10016883722,,,2018_Jan_22_1117,60.0051579327,FEMA4ImagesEEG,001,202766,
AFSA21.JPG,AFNE22.JPG,AFNE21.JPG,AFSA23.JPG,AFSA22.JPG,AFNE23.JPG,0,7,7,0,,,,,,,,,,,,,,,,,,,,,,,AFSA14.jpg,AFSA12.jpg,AFNE06.jpg,AFNE05.jpg,AFSA14.jpg,FS,4,num_8,32,num_4,1.0001148247,,,2018_Jan_22_1117,60.0051579327,FEMA4ImagesEEG,001,202766,
AFSA21.JPG,AFNE23.JPG,AFNE21.JPG,AFSA25.JPG,AFNE25.JPG,AFSA23.JPG,0,8,8,4,,,,,,,,,,,,,,,,,,,,,,,AFNE15.jpg,AFSA19.jpg,AFSA05.jpg,AFNE12.jpg,AFSA19.jpg,FS,4,num_6,16,num_6,0.950117005731,,,2018_Jan_22_1117,60.0051579327,FEMA4ImagesEEG,001,202766,
AMSA21.JPG,AMNE23.JPG,AMNE21.JPG,AMSA25.JPG,AMNE25.JPG,AMSA23.JPG,0,9,9,5,,,,,,,,,,,,,,,,,,,,,,,AFSA16.jpg,AFNE15.jpg,AFSA02.jpg,AFNE19.jpg,AFSA16.jpg,FS,4,num_8,32,num_4,1.200078517,,,2018_Jan_22_1117,60.0051579327,FEMA4ImagesEEG,001,202766,
AFNE23.JPG,AFNE24.JPG,AFNE22.JPG,AFSA24.JPG,AFSA22.JPG,AFSA23.JPG,,,,,0,0,0,8,,,,,,,,,,,,,,,,,,,AMSA13.jpg,AMNE06.jpg,AMNE08.jpg,AMSA10.jpg,AMSA13.jpg,MS,2,num_8,16,num_8,1.20014298562,,,2018_Jan_22_1117,60.0051579327,FEMA4ImagesEEG,001,202766,
AFNE22.JPG,AFSA24.JPG,AFSA22.JPG,AFNE25.JPG,AFNE24.JPG,AFSA25.JPG,,,,,0,1,1,6,,,,,,,,,,,,,,,,,,,AMNE09.jpg,AMSA09.jpg,AMSA18.jpg,AMNE20.jpg,AMSA18.jpg,MS,2,num_2,16,num_2,1.06678146999,,,2018_Jan_22_1117,60.0051579327,FEMA4ImagesEEG,001,202766,
AMSA21.JPG,AMNE22.JPG,AMNE21.JPG,AMSA23.JPG,AMSA22.JPG,AMNE23.JPG,,,,,0,2,2,1,,,,,,,,,,,,,,,,,,,AMNE19.jpg,AMSA13.jpg,AMNE05.jpg,AMSA16.jpg,AMNE19.jpg,MN,1,num_8,16,num_8,1.08344516447,,,2018_Jan_22_1117,60.0051579327,FEMA4ImagesEEG,001,202766,
AFSA21.JPG,AFNE23.JPG,AFNE21.JPG,AFSA25.JPG,AFNE25.JPG,AFSA23.JPG,,,,,0,3,3,4,,,,,,,,,,,,,,,,,,,AMNE14.jpg,AMSA13.jpg,AMSA16.jpg,AMNE20.jpg,AMNE20.jpg,MN,1,num_4,32,num_8,1.98331866485,,,2018_Jan_22_1117,60.0051579327,FEMA4ImagesEEG,001,202766,
AFSA21.JPG,AFNE22.JPG,AFNE21.JPG,AFSA23.JPG,AFSA22.JPG,AFNE23.JPG,,,,,0,4,4,0,,,,,,,,,,,,,,,,,,,AMSA10.jpg,AMNE01.jpg,AMSA16.jpg,AMNE18.jpg,AMNE18.jpg,MN,1,num_4,16,num_4,1.51669416472,,,2018_Jan_22_1117,60.0051579327,FEMA4ImagesEEG,001,202766,
AMNE23.JPG,AMNE24.JPG,AMNE22.JPG,AMSA24.JPG,AMSA22.JPG,AMSA23.JPG,,,,,0,5,5,9,,,,,,,,,,,,,,,,,,,AMNE07.jpg,AMNE09.jpg,AMSA08.jpg,AMSA18.jpg,AMNE07.jpg,MN,1,num_8,32,num_6,0.916748882865,,,2018_Jan_22_1117,60.0051579327,FEMA4ImagesEEG,001,202766,
AMSA25.JPG,AMNE24.JPG,AMSA24.JPG,AMNE26.JPG,AMSA21.JPG,AMNE25.JPG,,,,,0,6,6,3,,,,,,,,,,,,,,,,,,,AMNE04.jpg,AMNE13.jpg,AMSA15.jpg,AMSA09.jpg,AMSA15.jpg,MS,2,num_2,32,num_4,1.66675273174,,,2018_Jan_22_1117,60.0051579327,FEMA4ImagesEEG,001,202766,
AMNE22.JPG,AMSA24.JPG,AMSA22.JPG,AMNE25.JPG,AMNE24.JPG,AMSA25.JPG,,,,,0,7,7,7,,,,,,,,,,,,,,,,,,,AMNE06.jpg,AMSA16.jpg,AMSA06.jpg,AMNE08.jpg,AMSA06.jpg,MS,2,num_2,16,num_2,0.950124703476,,,2018_Jan_22_1117,60.0051579327,FEMA4ImagesEEG,001,202766,
AMSA21.JPG,AMNE23.JPG,AMNE21.JPG,AMSA25.JPG,AMNE25.JPG,AMSA23.JPG,,,,,0,8,8,5,,,,,,,,,,,,,,,,,,,AMNE15.jpg,AMSA02.jpg,AMNE07.jpg,AMSA20.jpg,AMNE15.jpg,MN,1,num_8,32,num_6,0.96646990374,,,2018_Jan_22_1117,60.0051579327,FEMA4ImagesEEG,001,202766,
AFSA25.JPG,AFNE24.JPG,AFSA24.JPG,AFNE21.JPG,AFSA21.JPG,AFNE25.JPG,,,,,0,9,9,2,,,,,,,,,,,,,,,,,,,AMSA15.jpg,AMSA16.jpg,AMNE14.jpg,AMNE04.jpg,AMSA16.jpg,MS,2,num_6,16,num_6,1.00012123949,,,2018_Jan_22_1117,60.0051579327,FEMA4ImagesEEG,001,202766,
AFSA21.JPG,AFNE23.JPG,AFNE21.JPG,AFSA25.JPG,AFNE25.JPG,AFSA23.JPG,,,,,,,,,0,0,0,4,,,,,,,,,,,,,,,AFNE14.jpg,AFSA06.jpg,AFSA12.jpg,AFNE18.jpg,AFNE18.jpg,FN,3,num_4,32,num_8,0.9833565121,,,2018_Jan_22_1117,60.0051579327,FEMA4ImagesEEG,001,202766,
AFSA21.JPG,AFNE22.JPG,AFNE21.JPG,AFSA23.JPG,AFSA22.JPG,AFNE23.JPG,,,,,,,,,0,1,1,0,,,,,,,,,,,,,,,AFNE01.jpg,AFSA10.jpg,AFSA18.jpg,AFNE14.jpg,AFSA18.jpg,FS,4,num_2,16,num_2,1.15013201633,,,2018_Jan_22_1117,60.0051579327,FEMA4ImagesEEG,001,202766,
AMSA21.JPG,AMNE23.JPG,AMNE21.JPG,AMSA25.JPG,AMNE25.JPG,AMSA23.JPG,,,,,,,,,0,2,2,5,,,,,,,,,,,,,,,AFNE16.jpg,AFNE19.jpg,AFSA15.jpg,AFSA03.jpg,AFSA15.jpg,FS,4,num_2,16,num_2,0.950123420519,,,2018_Jan_22_1117,60.0051579327,FEMA4ImagesEEG,001,202766,
AFNE22.JPG,AFSA24.JPG,AFSA22.JPG,AFNE25.JPG,AFNE24.JPG,AFSA25.JPG,,,,,,,,,0,3,3,6,,,,,,,,,,,,,,,AFSA08.jpg,AFNE01.jpg,AFSA11.jpg,AFNE04.jpg,AFSA11.jpg,FS,4,num_2,32,num_8,1.23348673229,,,2018_Jan_22_1117,60.0051579327,FEMA4ImagesEEG,001,202766,
AMNE22.JPG,AMSA24.JPG,AMSA22.JPG,AMNE25.JPG,AMNE24.JPG,AMSA25.JPG,,,,,,,,,0,4,4,7,,,,,,,,,,,,,,,AFSA18.jpg,AFSA01.jpg,AFNE10.jpg,AFNE19.jpg,AFNE10.jpg,FN,3,num_2,32,num_6,1.0001254091,,,2018_Jan_22_1117,60.0051579327,FEMA4ImagesEEG,001,202766,
AMNE23.JPG,AMNE24.JPG,AMNE22.JPG,AMSA24.JPG,AMSA22.JPG,AMSA23.JPG,,,,,,,,,0,5,5,9,,,,,,,,,,,,,,,AFSA10.jpg,AFSA03.jpg,AFNE10.jpg,AFNE15.jpg,AFNE15.jpg,FN,3,num_4,16,num_4,1.03346177877,,,2018_Jan_22_1117,60.0051579327,FEMA4ImagesEEG,001,202766,
AFSA25.JPG,AFNE24.JPG,AFSA24.JPG,AFNE21.JPG,AFSA21.JPG,AFNE25.JPG,,,,,,,,,0,6,6,2,,,,,,,,,,,,,,,AFSA05.jpg,AFNE18.jpg,AFSA03.jpg,AFNE03.jpg,AFNE03.jpg,FN,3,num_4,32,num_6,1.26674195489,,,2018_Jan_22_1117,60.0051579327,FEMA4ImagesEEG,001,202766,
AMSA21.JPG,AMNE22.JPG,AMNE21.JPG,AMSA23.JPG,AMSA22.JPG,AMNE23.JPG,,,,,,,,,0,7,7,1,,,,,,,,,,,,,,,AFNE18.jpg,AFSA07.jpg,AFNE10.jpg,AFSA08.jpg,AFNE18.jpg,FN,3,num_8,16,num_8,1.58341180757,,,2018_Jan_22_1117,60.0051579327,FEMA4ImagesEEG,001,202766,
AMSA25.JPG,AMNE24.JPG,AMSA24.JPG,AMNE26.JPG,AMSA21.JPG,AMNE25.JPG,,,,,,,,,0,8,8,3,,,,,,,,,,,,,,,AFNE09.jpg,AFSA19.jpg,AFSA03.jpg,AFNE14.jpg,AFSA03.jpg,FS,4,num_2,32,num_4,1.00016550153,,,2018_Jan_22_1117,60.0051579327,FEMA4ImagesEEG,001,202766,
AFNE23.JPG,AFNE24.JPG,AFNE22.JPG,AFSA24.JPG,AFSA22.JPG,AFSA23.JPG,,,,,,,,,0,9,9,8,,,,,,,,,,,,,,,AFNE02.jpg,AFSA06.jpg,AFSA05.jpg,AFNE04.jpg,AFNE02.jpg,FN,3,num_8,16,num_8,0.700104496895,,,2018_Jan_22_1117,60.0051579327,FEMA4ImagesEEG,001,202766,
AFSA21.JPG,AFNE22.JPG,AFNE21.JPG,AFSA23.JPG,AFSA22.JPG,AFNE23.JPG,,,,,,,,,,,,,0,0,0,0,,,,,,,,,,,AMSA15.jpg,AMNE01.jpg,AMNE02.jpg,AMSA16.jpg,AMNE02.jpg,MN,1,num_2,16,num_2,1.60004471107,,,2018_Jan_22_1117,60.0051579327,FEMA4ImagesEEG,001,202766,
AMNE22.JPG,AMSA24.JPG,AMSA22.JPG,AMNE25.JPG,AMNE24.JPG,AMSA25.JPG,,,,,,,,,,,,,0,1,1,7,,,,,,,,,,,AMNE12.jpg,AMNE06.jpg,AMSA01.jpg,AMSA06.jpg,AMNE06.jpg,MN,1,num_6,16,num_6,0.983504052222,,,2018_Jan_22_1117,60.0051579327,FEMA4ImagesEEG,001,202766,
AMSA21.JPG,AMNE22.JPG,AMNE21.JPG,AMSA23.JPG,AMSA22.JPG,AMNE23.JPG,,,,,,,,,,,,,0,2,2,1,,,,,,,,,,,AMNE04.jpg,AMSA18.jpg,AMNE07.jpg,AMSA10.jpg,AMSA18.jpg,MS,2,num_6,32,num_4,0.950115402034,,,2018_Jan_22_1117,60.0051579327,FEMA4ImagesEEG,001,202766,
AFSA25.JPG,AFNE24.JPG,AFSA24.JPG,AFNE21.JPG,AFSA21.JPG,AFNE25.JPG,,,,,,,,,,,,,0,3,3,2,,,,,,,,,,,AMNE11.jpg,AMSA17.jpg,AMSA01.jpg,AMNE07.jpg,AMNE07.jpg,MN,1,num_4,16,num_4,1.48346011092,,,2018_Jan_22_1117,60.0051579327,FEMA4ImagesEEG,001,202766,
AMSA21.JPG,AMNE23.JPG,AMNE21.JPG,AMSA25.JPG,AMNE25.JPG,AMSA23.JPG,,,,,,,,,,,,,0,4,4,5,,,,,,,,,,,AMNE09.jpg,AMNE07.jpg,AMSA15.jpg,AMSA08.jpg,AMNE09.jpg,MN,1,num_8,16,num_8,0.850140291411,,,2018_Jan_22_1117,60.0051579327,FEMA4ImagesEEG,001,202766,
AFNE23.JPG,AFNE24.JPG,AFNE22.JPG,AFSA24.JPG,AFSA22.JPG,AFSA23.JPG,,,,,,,,,,,,,0,5,5,8,,,,,,,,,,,AMSA13.jpg,AMSA18.jpg,AMNE15.jpg,AMNE16.jpg,AMSA13.jpg,MS,2,num_8,16,num_8,1.51672174831,,,2018_Jan_22_1117,60.0051579327,FEMA4ImagesEEG,001,202766,
AFSA21.JPG,AFNE23.JPG,AFNE21.JPG,AFSA25.JPG,AFNE25.JPG,AFSA23.JPG,,,,,,,,,,,,,0,6,6,4,,,,,,,,,,,AMNE19.jpg,AMSA01.jpg,AMSA13.jpg,AMNE08.jpg,AMSA01.jpg,MS,2,num_6,16,num_6,1.90004862409,,,2018_Jan_22_1117,60.0051579327,FEMA4ImagesEEG,001,202766,
AMNE23.JPG,AMNE24.JPG,AMNE22.JPG,AMSA24.JPG,AMSA22.JPG,AMSA23.JPG,,,,,,,,,,,,,0,7,7,9,,,,,,,,,,,AMSA02.jpg,AMNE19.jpg,AMSA04.jpg,AMNE07.jpg,AMNE19.jpg,MN,1,num_6,32,num_8,1.50011354175,,,2018_Jan_22_1117,60.0051579327,FEMA4ImagesEEG,001,202766,
AFNE22.JPG,AFSA24.JPG,AFSA22.JPG,AFNE25.JPG,AFNE24.JPG,AFSA25.JPG,,,,,,,,,,,,,0,8,8,6,,,,,,,,,,,AMNE03.jpg,AMSA16.jpg,AMNE02.jpg,AMSA03.jpg,AMNE02.jpg,MN,1,num_2,16,num_2,1.43335516499,,,2018_Jan_22_1117,60.0051579327,FEMA4ImagesEEG,001,202766,
AMSA25.JPG,AMNE24.JPG,AMSA24.JPG,AMNE26.JPG,AMSA21.JPG,AMNE25.JPG,,,,,,,,,,,,,0,9,9,3,,,,,,,,,,,AMSA11.jpg,AMSA08.jpg,AMNE19.jpg,AMNE05.jpg,AMNE05.jpg,MN,1,num_4,16,num_4,0.916832595847,,,2018_Jan_22_1117,60.0051579327,FEMA4ImagesEEG,001,202766,
AFSA21.JPG,AFNE23.JPG,AFNE21.JPG,AFSA25.JPG,AFNE25.JPG,AFSA23.JPG,,,,,,,,,,,,,,,,,0,0,0,4,,,,,,,AFNE10.jpg,AFSA01.jpg,AFSA09.jpg,AFNE03.jpg,AFSA09.jpg,FS,4,num_2,16,num_2,1.21674157001,,,2018_Jan_22_1117,60.0051579327,FEMA4ImagesEEG,001,202766,
AMSA25.JPG,AMNE24.JPG,AMSA24.JPG,AMNE26.JPG,AMSA21.JPG,AMNE25.JPG,,,,,,,,,,,,,,,,,0,1,1,3,,,,,,,AFSA07.jpg,AFNE15.jpg,AFNE20.jpg,AFSA10.jpg,AFNE15.jpg,FN,3,num_6,16,num_6,0.966781020952,,,2018_Jan_22_1117,60.0051579327,FEMA4ImagesEEG,001,202766,
AMSA21.JPG,AMNE23.JPG,AMNE21.JPG,AMSA25.JPG,AMNE25.JPG,AMSA23.JPG,,,,,,,,,,,,,,,,,0,2,2,5,,,,,,,AFNE16.jpg,AFSA11.jpg,AFNE09.jpg,AFSA13.jpg,AFNE09.jpg,FN,3,num_2,32,num_8,1.03335978364,,,2018_Jan_22_1117,60.0051579327,FEMA4ImagesEEG,001,202766,
AFSA21.JPG,AFNE22.JPG,AFNE21.JPG,AFSA23.JPG,AFSA22.JPG,AFNE23.JPG,,,,,,,,,,,,,,,,,0,3,3,0,,,,,,,AFSA04.jpg,AFSA11.jpg,AFNE02.jpg,AFNE17.jpg,AFSA04.jpg,FS,4,num_8,32,num_4,1.38345613376,,,2018_Jan_22_1117,60.0051579327,FEMA4ImagesEEG,001,202766,
AFNE22.JPG,AFSA24.JPG,AFSA22.JPG,AFNE25.JPG,AFNE24.JPG,AFSA25.JPG,,,,,,,,,,,,,,,,,0,4,4,6,,,,,,,AFSA16.jpg,AFNE04.jpg,AFSA18.jpg,AFNE10.jpg,AFNE04.jpg,FN,3,num_6,16,num_6,0.850186477884,,,2018_Jan_22_1117,60.0051579327,FEMA4ImagesEEG,001,202766,
AMSA21.JPG,AMNE22.JPG,AMNE21.JPG,AMSA23.JPG,AMSA22.JPG,AMNE23.JPG,,,,,,,,,,,,,,,,,0,5,5,1,,,,,,,AFNE19.jpg,AFSA01.jpg,AFSA14.jpg,AFNE17.jpg,AFSA14.jpg,FS,4,num_2,32,num_4,1.06677377224,,,2018_Jan_22_1117,60.0051579327,FEMA4ImagesEEG,001,202766,
AFNE23.JPG,AFNE24.JPG,AFNE22.JPG,AFSA24.JPG,AFSA22.JPG,AFSA23.JPG,,,,,,,,,,,,,,,,,0,6,6,8,,,,,,,AFNE17.jpg,AFSA01.jpg,AFNE06.jpg,AFSA13.jpg,AFNE17.jpg,FN,3,num_8,32,num_4,0.916738939944,,,2018_Jan_22_1117,60.0051579327,FEMA4ImagesEEG,001,202766,
AMNE22.JPG,AMSA24.JPG,AMSA22.JPG,AMNE25.JPG,AMNE24.JPG,AMSA25.JPG,,,,,,,,,,,,,,,,,0,7,7,7,,,,,,,AFSA05.jpg,AFNE02.jpg,AFNE05.jpg,AFSA18.jpg,AFNE05.jpg,FN,3,num_2,32,num_6,1.11676100681,,,2018_Jan_22_1117,60.0051579327,FEMA4ImagesEEG,001,202766,
AMNE23.JPG,AMNE24.JPG,AMNE22.JPG,AMSA24.JPG,AMSA22.JPG,AMSA23.JPG,,,,,,,,,,,,,,,,,0,8,8,9,,,,,,,AFSA20.jpg,AFSA12.jpg,AFNE02.jpg,AFNE18.jpg,AFNE18.jpg,FN,3,num_4,16,num_4,1.2167659462,,,2018_Jan_22_1117,60.0051579327,FEMA4ImagesEEG,001,202766,
AFSA25.JPG,AFNE24.JPG,AFSA24.JPG,AFNE21.JPG,AFSA21.JPG,AFNE25.JPG,,,,,,,,,,,,,,,,,0,9,9,2,,,,,,,AFSA15.jpg,AFSA05.jpg,AFNE02.jpg,AFNE04.jpg,AFNE04.jpg,FN,3,num_4,32,num_2,1.28341655451,,,2018_Jan_22_1117,60.0051579327,FEMA4ImagesEEG,001,202766,
AMSA25.JPG,AMNE24.JPG,AMSA24.JPG,AMNE26.JPG,AMSA21.JPG,AMNE25.JPG,,,,,,,,,,,,,,,,,,,,,0,0,0,3,,,AMNE01.jpg,AMSA12.jpg,AMNE11.jpg,AMSA05.jpg,AMSA12.jpg,MS,2,num_6,16,num_6,1.9330571981,,,2018_Jan_22_1117,60.0051579327,FEMA4ImagesEEG,001,202766,
AFNE22.JPG,AFSA24.JPG,AFSA22.JPG,AFNE25.JPG,AFNE24.JPG,AFSA25.JPG,,,,,,,,,,,,,,,,,,,,,0,1,1,6,,,AMSA01.jpg,AMSA10.jpg,AMNE20.jpg,AMNE08.jpg,AMNE08.jpg,MN,1,num_4,32,num_8,0.950158381113,,,2018_Jan_22_1117,60.0051579327,FEMA4ImagesEEG,001,202766,
AFNE23.JPG,AFNE24.JPG,AFNE22.JPG,AFSA24.JPG,AFSA22.JPG,AFSA23.JPG,,,,,,,,,,,,,,,,,,,,,0,2,2,8,,,AMNE02.jpg,AMSA08.jpg,AMNE08.jpg,AMSA20.jpg,AMSA08.jpg,MS,2,num_6,16,num_6,0.883478585513,,,2018_Jan_22_1117,60.0051579327,FEMA4ImagesEEG,001,202766,
AFSA21.JPG,AFNE22.JPG,AFNE21.JPG,AFSA23.JPG,AFSA22.JPG,AFNE23.JPG,,,,,,,,,,,,,,,,,,,,,0,3,3,0,,,AMSA10.jpg,AMSA11.jpg,AMNE17.jpg,AMNE20.jpg,AMSA11.jpg,MS,2,num_6,32,num_8,1.03334438815,,,2018_Jan_22_1117,60.0051579327,FEMA4ImagesEEG,001,202766,
AMNE22.JPG,AMSA24.JPG,AMSA22.JPG,AMNE25.JPG,AMNE24.JPG,AMSA25.JPG,,,,,,,,,,,,,,,,,,,,,0,4,4,7,,,AMSA18.jpg,AMNE04.jpg,AMNE07.jpg,AMSA13.jpg,AMNE04.jpg,MN,1,num_6,32,num_4,1.23346556349,,,2018_Jan_22_1117,60.0051579327,FEMA4ImagesEEG,001,202766,
AMNE23.JPG,AMNE24.JPG,AMNE22.JPG,AMSA24.JPG,AMSA22.JPG,AMSA23.JPG,,,,,,,,,,,,,,,,,,,,,0,5,5,9,,,AMNE14.jpg,AMSA05.jpg,AMNE09.jpg,AMSA19.jpg,AMSA19.jpg,MS,2,num_4,16,num_4,0.733459469446,,,2018_Jan_22_1117,60.0051579327,FEMA4ImagesEEG,001,202766,
AMSA21.JPG,AMNE22.JPG,AMNE21.JPG,AMSA23.JPG,AMSA22.JPG,AMNE23.JPG,,,,,,,,,,,,,,,,,,,,,0,6,6,1,,,AMSA15.jpg,AMNE05.jpg,AMNE14.jpg,AMSA17.jpg,AMSA17.jpg,MS,2,num_4,16,num_4,1.20014266488,,,2018_Jan_22_1117,60.0051579327,FEMA4ImagesEEG,001,202766,
AFSA25.JPG,AFNE24.JPG,AFSA24.JPG,AFNE21.JPG,AFSA21.JPG,AFNE25.JPG,,,,,,,,,,,,,,,,,,,,,0,7,7,2,,,AMNE12.jpg,AMNE11.jpg,AMSA10.jpg,AMSA16.jpg,AMSA10.jpg,MS,2,num_2,16,num_2,1.00013150315,,,2018_Jan_22_1117,60.0051579327,FEMA4ImagesEEG,001,202766,
AFSA21.JPG,AFNE23.JPG,AFNE21.JPG,AFSA25.JPG,AFNE25.JPG,AFSA23.JPG,,,,,,,,,,,,,,,,,,,,,0,8,8,4,,,AMNE17.jpg,AMSA07.jpg,AMNE05.jpg,AMSA20.jpg,AMSA20.jpg,MS,2,num_4,32,num_6,0.966792246831,,,2018_Jan_22_1117,60.0051579327,FEMA4ImagesEEG,001,202766,
AMSA21.JPG,AMNE23.JPG,AMNE21.JPG,AMSA25.JPG,AMNE25.JPG,AMSA23.JPG,,,,,,,,,,,,,,,,,,,,,0,9,9,5,,,AMSA14.jpg,AMNE20.jpg,AMNE05.jpg,AMSA13.jpg,AMSA14.jpg,MS,2,num_8,16,num_8,0.733478713809,,,2018_Jan_22_1117,60.0051579327,FEMA4ImagesEEG,001,202766,
,,,,,,,,,,,,,,,,,,,,,,,,,,,,,,,,,,,,,,,,,,,space,4.48313616414,2018_Jan_22_1117,60.0051579327,FEMA4ImagesEEG,001,202766,
AFNE01.JPG,AFNE01.JPG,AFNE01.JPG,AFNE01.JPG,AFNE01.JPG,AFNE01.JPG,0,0,0,6,,,,,,,,,,,,,,,,,,,,,,,AFNE04.jpg,AFNE10.jpg,AFSA03.jpg,AFSA17.jpg,AFSA03.jpg,FS,4,num_2,32,num_4,0.949822566967,,,2018_Jan_22_1117,60.0051579327,FEMA4ImagesEEG,001,202766,
AFNE01.JPG,AFNE01.JPG,AFNE01.JPG,AFNE01.JPG,AFNE01.JPG,AFNE01.JPG,0,1,1,8,,,,,,,,,,,,,,,,,,,,,,,AFSA17.jpg,AFNE05.jpg,AFSA04.jpg,AFNE16.jpg,AFSA17.jpg,FS,4,num_8,16,num_8,0.70014394784,,,2018_Jan_22_1117,60.0051579327,FEMA4ImagesEEG,001,202766,
AFNE01.JPG,AFNE01.JPG,AFNE01.JPG,AFNE01.JPG,AFNE01.JPG,AFNE01.JPG,0,2,2,2,,,,,,,,,,,,,,,,,,,,,,,AFSA02.jpg,AFNE08.jpg,AFSA08.jpg,AFNE12.jpg,AFNE08.jpg,FN,3,num_6,16,num_6,1.05011617181,,,2018_Jan_22_1117,60.0051579327,FEMA4ImagesEEG,001,202766,
AFNE01.JPG,AFNE01.JPG,AFNE01.JPG,AFNE01.JPG,AFNE01.JPG,AFNE01.JPG,0,3,3,5,,,,,,,,,,,,,,,,,,,,,,,AFSA16.jpg,AFNE10.jpg,AFSA03.jpg,AFNE12.jpg,AFNE10.jpg,FN,3,num_6,32,num_8,1.28369431483,,,2018_Jan_22_1117,60.0051579327,FEMA4ImagesEEG,001,202766,
AFNE01.JPG,AFNE01.JPG,AFNE01.JPG,AFNE01.JPG,AFNE01.JPG,AFNE01.JPG,0,4,4,0,,,,,,,,,,,,,,,,,,,,,,,AFNE11.jpg,AFSA01.jpg,AFNE10.jpg,AFSA09.jpg,AFSA01.jpg,FS,4,num_6,16,num_6,1.03346498616,,,2018_Jan_22_1117,60.0051579327,FEMA4ImagesEEG,001,202766,
AFNE01.JPG,AFNE01.JPG,AFNE01.JPG,AFNE01.JPG,AFNE01.JPG,AFNE01.JPG,0,5,5,7,,,,,,,,,,,,,,,,,,,,,,,AFSA17.jpg,AFSA04.jpg,AFNE04.jpg,AFNE09.jpg,AFNE04.jpg,FN,3,num_2,32,num_8,1.06678082851,,,2018_Jan_22_1117,60.0051579327,FEMA4ImagesEEG,001,202766,
AFNE01.JPG,AFNE01.JPG,AFNE01.JPG,AFNE01.JPG,AFNE01.JPG,AFNE01.JPG,0,6,6,4,,,,,,,,,,,,,,,,,,,,,,,AFSA15.jpg,AFNE14.jpg,AFNE02.jpg,AFSA13.jpg,AFNE14.jpg,FN,3,num_6,32,num_4,1.36678313783,,,2018_Jan_22_1117,60.0051579327,FEMA4ImagesEEG,001,202766,
AFNE01.JPG,AFNE01.JPG,AFNE01.JPG,AFNE01.JPG,AFNE01.JPG,AFNE01.JPG,0,7,7,3,,,,,,,,,,,,,,,,,,,,,,,AFNE13.jpg,AFSA06.jpg,AFNE17.jpg,AFSA04.jpg,AFSA04.jpg,FS,4,num_4,32,num_8,1.05011681329,,,2018_Jan_22_1117,60.0051579327,FEMA4ImagesEEG,001,202766,
AFNE01.JPG,AFNE01.JPG,AFNE01.JPG,AFNE01.JPG,AFNE01.JPG,AFNE01.JPG,0,8,8,1,,,,,,,,,,,,,,,,,,,,,,,AFNE11.jpg,AFSA06.jpg,AFSA20.jpg,AFNE04.jpg,AFNE11.jpg,FN,3,num_8,16,num_8,0.950129193828,,,2018_Jan_22_1117,60.0051579327,FEMA4ImagesEEG,001,202766,
AFNE01.JPG,AFNE01.JPG,AFNE01.JPG,AFNE01.JPG,AFNE01.JPG,AFNE01.JPG,0,9,9,9,,,,,,,,,,,,,,,,,,,,,,,AFSA12.jpg,AFNE20.jpg,AFNE14.jpg,AFSA01.jpg,AFSA12.jpg,FS,4,num_8,16,num_8,0.950092629537,,,2018_Jan_22_1117,60.0051579327,FEMA4ImagesEEG,001,202766,
AFNE01.JPG,AFNE01.JPG,AFNE01.JPG,AFNE01.JPG,AFNE01.JPG,AFNE01.JPG,1,0,10,2,,,,,,,,,,,,,,,,,,,,,,,AFNE07.jpg,AFSA19.jpg,AFSA09.jpg,AFNE16.jpg,AFSA09.jpg,FS,4,num_2,16,num_2,1.63342662573,,,2018_Jan_22_1117,60.0051579327,FEMA4ImagesEEG,001,202766,
AFNE01.JPG,AFNE01.JPG,AFNE01.JPG,AFNE01.JPG,AFNE01.JPG,AFNE01.JPG,1,1,11,5,,,,,,,,,,,,,,,,,,,,,,,AFNE08.jpg,AFNE09.jpg,AFSA20.jpg,AFSA12.jpg,AFNE08.jpg,FN,3,num_8,16,num_8,1.05009724818,,,2018_Jan_22_1117,60.0051579327,FEMA4ImagesEEG,001,202766,
AFNE01.JPG,AFNE01.JPG,AFNE01.JPG,AFNE01.JPG,AFNE01.JPG,AFNE01.JPG,1,2,12,8,,,,,,,,,,,,,,,,,,,,,,,AFSA02.jpg,AFSA07.jpg,AFNE16.jpg,AFNE09.jpg,AFSA07.jpg,FS,4,num_6,16,num_6,0.783463061727,,,2018_Jan_22_1117,60.0051579327,FEMA4ImagesEEG,001,202766,
AFNE01.JPG,AFNE01.JPG,AFNE01.JPG,AFNE01.JPG,AFNE01.JPG,AFNE01.JPG,1,3,13,1,,,,,,,,,,,,,,,,,,,,,,,AFNE02.jpg,AFSA20.jpg,AFNE16.jpg,AFSA01.jpg,AFSA20.jpg,FS,4,num_6,32,num_4,0.950169927731,,,2018_Jan_22_1117,60.0051579327,FEMA4ImagesEEG,001,202766,
AFNE01.JPG,AFNE01.JPG,AFNE01.JPG,AFNE01.JPG,AFNE01.JPG,AFNE01.JPG,1,4,14,0,,,,,,,,,,,,,,,,,,,,,,,AFSA05.jpg,AFNE10.jpg,AFNE18.jpg,AFSA02.jpg,AFNE18.jpg,FN,3,num_2,32,num_4,1.10010148194,,,2018_Jan_22_1117,60.0051579327,FEMA4ImagesEEG,001,202766,
AFNE01.JPG,AFNE01.JPG,AFNE01.JPG,AFNE01.JPG,AFNE01.JPG,AFNE01.JPG,1,5,15,6,,,,,,,,,,,,,,,,,,,,,,,AFNE20.jpg,AFSA06.jpg,AFSA17.jpg,AFNE08.jpg,AFNE20.jpg,FN,3,num_8,32,num_4,1.4334276521,,,2018_Jan_22_1117,60.0051579327,FEMA4ImagesEEG,001,202766,
AFNE01.JPG,AFNE01.JPG,AFNE01.JPG,AFNE01.JPG,AFNE01.JPG,AFNE01.JPG,1,6,16,7,,,,,,,,,,,,,,,,,,,,,,,AFSA10.jpg,AFNE06.jpg,AFSA07.jpg,AFNE13.jpg,AFNE06.jpg,FN,3,num_6,16,num_6,0.850160818732,,,2018_Jan_22_1117,60.0051579327,FEMA4ImagesEEG,001,202766,
AFNE01.JPG,AFNE01.JPG,AFNE01.JPG,AFNE01.JPG,AFNE01.JPG,AFNE01.JPG,1,7,17,9,,,,,,,,,,,,,,,,,,,,,,,AFNE13.jpg,AFSA04.jpg,AFNE18.jpg,AFSA19.jpg,AFSA19.jpg,FS,4,num_4,16,num_4,0.666790578986,,,2018_Jan_22_1117,60.0051579327,FEMA4ImagesEEG,001,202766,
AFNE01.JPG,AFNE01.JPG,AFNE01.JPG,AFNE01.JPG,AFNE01.JPG,AFNE01.JPG,1,8,18,3,,,,,,,,,,,,,,,,,,,,,,,AFSA07.jpg,AFNE01.jpg,AFSA18.jpg,AFNE17.jpg,AFNE17.jpg,FN,3,num_4,32,num_8,1.31675741453,,,2018_Jan_22_1117,60.0051579327,FEMA4ImagesEEG,001,202766,
AFNE01.JPG,AFNE01.JPG,AFNE01.JPG,AFNE01.JPG,AFNE01.JPG,AFNE01.JPG,1,9,19,4,,,,,,,,,,,,,,,,,,,,,,,AFNE02.jpg,AFSA05.jpg,AFNE14.jpg,AFSA06.jpg,AFNE14.jpg,FN,3,num_2,32,num_4,0.883479868471,,,2018_Jan_22_1117,60.0051579327,FEMA4ImagesEEG,001,202766,
AFNE01.JPG,AFNE01.JPG,AFNE01.JPG,AFNE01.JPG,AFNE01.JPG,AFNE01.JPG,2,0,20,8,,,,,,,,,,,,,,,,,,,,,,,AFNE11.jpg,AFSA02.jpg,AFSA09.jpg,AFNE04.jpg,AFNE04.jpg,FN,3,num_4,16,num_4,1.20010032728,,,2018_Jan_22_1117,60.0051579327,FEMA4ImagesEEG,001,202766,
AFNE01.JPG,AFNE01.JPG,AFNE01.JPG,AFNE01.JPG,AFNE01.JPG,AFNE01.JPG,2,1,21,1,,,,,,,,,,,,,,,,,,,,,,,AFSA09.jpg,AFNE09.jpg,AFSA19.jpg,AFNE12.jpg,AFSA09.jpg,FS,4,num_8,16,num_8,1.31675164122,,,2018_Jan_22_1117,60.0051579327,FEMA4ImagesEEG,001,202766,
AFNE01.JPG,AFNE01.JPG,AFNE01.JPG,AFNE01.JPG,AFNE01.JPG,AFNE01.JPG,2,2,22,2,,,,,,,,,,,,,,,,,,,,,,,AFSA06.jpg,AFNE19.jpg,AFNE03.jpg,AFSA13.jpg,AFNE03.jpg,FN,3,num_2,16,num_2,1.55007896604,,,2018_Jan_22_1117,60.0051579327,FEMA4ImagesEEG,001,202766,
AFNE01.JPG,AFNE01.JPG,AFNE01.JPG,AFNE01.JPG,AFNE01.JPG,AFNE01.JPG,2,3,23,6,,,,,,,,,,,,,,,,,,,,,,,AFSA09.jpg,AFSA16.jpg,AFNE13.jpg,AFNE06.jpg,AFNE06.jpg,FN,3,num_4,32,num_8,0.833524387099,,,2018_Jan_22_1117,60.0051579327,FEMA4ImagesEEG,001,202766,
AFNE01.JPG,AFNE01.JPG,AFNE01.JPG,AFNE01.JPG,AFNE01.JPG,AFNE01.JPG,2,4,24,5,,,,,,,,,,,,,,,,,,,,,,,AFSA07.jpg,AFNE17.jpg,AFSA12.jpg,AFNE14.jpg,AFNE14.jpg,FN,3,num_4,16,num_4,1.06679911065,,,2018_Jan_22_1117,60.0051579327,FEMA4ImagesEEG,001,202766,
AFNE01.JPG,AFNE01.JPG,AFNE01.JPG,AFNE01.JPG,AFNE01.JPG,AFNE01.JPG,2,5,25,9,,,,,,,,,,,,,,,,,,,,,,,AFSA20.jpg,AFNE14.jpg,AFSA10.jpg,AFNE16.jpg,AFNE14.jpg,FN,3,num_6,16,num_6,1.43340295516,,,2018_Jan_22_1117,60.0051579327,FEMA4ImagesEEG,001,202766,
AFNE01.JPG,AFNE01.JPG,AFNE01.JPG,AFNE01.JPG,AFNE01.JPG,AFNE01.JPG,2,6,26,0,,,,,,,,,,,,,,,,,,,,,,,AFSA15.jpg,AFNE11.jpg,AFNE02.jpg,AFSA17.jpg,AFSA17.jpg,FS,4,num_4,32,num_2,1.75005709161,,,2018_Jan_22_1117,60.0051579327,FEMA4ImagesEEG,001,202766,
AFNE01.JPG,AFNE01.JPG,AFNE01.JPG,AFNE01.JPG,AFNE01.JPG,AFNE01.JPG,2,7,27,3,,,,,,,,,,,,,,,,,,,,,,,AFSA11.jpg,AFNE20.jpg,AFSA10.jpg,AFNE14.jpg,AFNE20.jpg,FN,3,num_6,32,num_4,1.2167855113,,,2018_Jan_22_1117,60.0051579327,FEMA4ImagesEEG,001,202766,
AFNE01.JPG,AFNE01.JPG,AFNE01.JPG,AFNE01.JPG,AFNE01.JPG,AFNE01.JPG,2,8,28,7,,,,,,,,,,,,,,,,,,,,,,,AFSA01.jpg,AFNE19.jpg,AFNE11.jpg,AFSA19.jpg,AFNE19.jpg,FN,3,num_6,16,num_6,0.950104817634,,,2018_Jan_22_1117,60.0051579327,FEMA4ImagesEEG,001,202766,
AFNE01.JPG,AFNE01.JPG,AFNE01.JPG,AFNE01.JPG,AFNE01.JPG,AFNE01.JPG,2,9,29,4,,,,,,,,,,,,,,,,,,,,,,,AFNE06.jpg,AFNE14.jpg,AFSA15.jpg,AFSA08.jpg,AFNE06.jpg,FN,3,num_8,16,num_8,1.08348878503,,,2018_Jan_22_1117,60.0051579327,FEMA4ImagesEEG,001,202766,
AFNE01.JPG,AFNE01.JPG,AFNE01.JPG,AFNE01.JPG,AFNE01.JPG,AFNE01.JPG,3,0,30,4,,,,,,,,,,,,,,,,,,,,,,,AFNE15.jpg,AFNE06.jpg,AFSA09.jpg,AFSA04.jpg,AFSA04.jpg,FS,4,num_4,16,num_4,0.95014394784,,,2018_Jan_22_1117,60.0051579327,FEMA4ImagesEEG,001,202766,
AFNE01.JPG,AFNE01.JPG,AFNE01.JPG,AFNE01.JPG,AFNE01.JPG,AFNE01.JPG,3,1,31,2,,,,,,,,,,,,,,,,,,,,,,,AFSA20.jpg,AFNE15.jpg,AFSA13.jpg,AFNE03.jpg,AFNE15.jpg,FN,3,num_6,16,num_6,0.866795005189,,,2018_Jan_22_1117,60.0051579327,FEMA4ImagesEEG,001,202766,
AFNE01.JPG,AFNE01.JPG,AFNE01.JPG,AFNE01.JPG,AFNE01.JPG,AFNE01.JPG,3,2,32,1,,,,,,,,,,,,,,,,,,,,,,,AFNE19.jpg,AFNE10.jpg,AFSA10.jpg,AFSA19.jpg,AFSA10.jpg,FS,4,num_2,16,num_2,1.1667328459,,,2018_Jan_22_1117,60.0051579327,FEMA4ImagesEEG,001,202766,
AFNE01.JPG,AFNE01.JPG,AFNE01.JPG,AFNE01.JPG,AFNE01.JPG,AFNE01.JPG,3,3,33,5,,,,,,,,,,,,,,,,,,,,,,,AFNE18.jpg,AFNE13.jpg,AFSA15.jpg,AFSA19.jpg,AFNE13.jpg,FN,3,num_6,32,num_4,1.25013310685,,,2018_Jan_22_1117,60.0051579327,FEMA4ImagesEEG,001,202766,
AFNE01.JPG,AFNE01.JPG,AFNE01.JPG,AFNE01.JPG,AFNE01.JPG,AFNE01.JPG,3,4,34,8,,,,,,,,,,,,,,,,,,,,,,,AFNE03.jpg,AFSA15.jpg,AFSA01.jpg,AFNE07.jpg,AFSA15.jpg,FS,4,num_6,16,num_6,0.800309898403,,,2018_Jan_22_1117,60.0051579327,FEMA4ImagesEEG,001,202766,
AFNE01.JPG,AFNE01.JPG,AFNE01.JPG,AFNE01.JPG,AFNE01.JPG,AFNE01.JPG,3,5,35,3,,,,,,,,,,,,,,,,,,,,,,,AFNE05.jpg,AFSA18.jpg,AFNE10.jpg,AFSA04.jpg,AFSA04.jpg,FS,4,num_4,16,num_4,0.833470182141,,,2018_Jan_22_1117,60.0051579327,FEMA4ImagesEEG,001,202766,
AFNE01.JPG,AFNE01.JPG,AFNE01.JPG,AFNE01.JPG,AFNE01.JPG,AFNE01.JPG,3,6,36,6,,,,,,,,,,,,,,,,,,,,,,,AFSA17.jpg,AFNE10.jpg,AFSA11.jpg,AFNE12.jpg,AFNE12.jpg,FN,3,num_4,16,num_4,1.18345363199,,,2018_Jan_22_1117,60.0051579327,FEMA4ImagesEEG,001,202766,
AFNE01.JPG,AFNE01.JPG,AFNE01.JPG,AFNE01.JPG,AFNE01.JPG,AFNE01.JPG,3,7,37,0,,,,,,,,,,,,,,,,,,,,,,,AFSA13.jpg,AFNE03.jpg,AFNE02.jpg,AFSA02.jpg,AFSA13.jpg,FS,4,num_8,32,num_6,1.10014734768,,,2018_Jan_22_1117,60.0051579327,FEMA4ImagesEEG,001,202766,
AFNE01.JPG,AFNE01.JPG,AFNE01.JPG,AFNE01.JPG,AFNE01.JPG,AFNE01.JPG,3,8,38,7,,,,,,,,,,,,,,,,,,,,,,,AFNE05.jpg,AFSA18.jpg,AFSA05.jpg,AFNE20.jpg,AFNE20.jpg,FN,3,num_4,16,num_4,0.833548442554,,,2018_Jan_22_1117,60.0051579327,FEMA4ImagesEEG,001,202766,
AFNE01.JPG,AFNE01.JPG,AFNE01.JPG,AFNE01.JPG,AFNE01.JPG,AFNE01.JPG,3,9,39,9,,,,,,,,,,,,,,,,,,,,,,,AFNE09.jpg,AFSA14.jpg,AFSA08.jpg,AFNE19.jpg,AFNE09.jpg,FN,3,num_8,16,num_8,1.03347717426,,,2018_Jan_22_1117,60.0051579327,FEMA4ImagesEEG,001,202766,
AFNE01.JPG,AFNE01.JPG,AFNE01.JPG,AFNE01.JPG,AFNE01.JPG,AFNE01.JPG,4,0,40,2,,,,,,,,,,,,,,,,,,,,,,,AFSA16.jpg,AFSA05.jpg,AFNE15.jpg,AFNE02.jpg,AFSA05.jpg,FS,4,num_6,16,num_6,1.23338473717,,,2018_Jan_22_1117,60.0051579327,FEMA4ImagesEEG,001,202766,
AFNE01.JPG,AFNE01.JPG,AFNE01.JPG,AFNE01.JPG,AFNE01.JPG,AFNE01.JPG,4,1,41,4,,,,,,,,,,,,,,,,,,,,,,,AFSA06.jpg,AFNE15.jpg,AFNE17.jpg,AFSA02.jpg,AFNE17.jpg,FN,3,num_2,16,num_2,1.2834880794,,,2018_Jan_22_1117,60.0051579327,FEMA4ImagesEEG,001,202766,
AFNE01.JPG,AFNE01.JPG,AFNE01.JPG,AFNE01.JPG,AFNE01.JPG,AFNE01.JPG,4,2,42,3,,,,,,,,,,,,,,,,,,,,,,,AFSA10.jpg,AFNE18.jpg,AFNE07.jpg,AFSA19.jpg,AFSA19.jpg,FS,4,num_4,16,num_4,1.56676639524,,,2018_Jan_22_1117,60.0051579327,FEMA4ImagesEEG,001,202766,
AFNE01.JPG,AFNE01.JPG,AFNE01.JPG,AFNE01.JPG,AFNE01.JPG,AFNE01.JPG,4,3,43,0,,,,,,,,,,,,,,,,,,,,,,,AFSA08.jpg,AFNE04.jpg,AFSA13.jpg,AFNE13.jpg,AFNE04.jpg,FN,3,num_6,16,num_6,1.14985585972,,,2018_Jan_22_1117,60.0051579327,FEMA4ImagesEEG,001,202766,
AFNE01.JPG,AFNE01.JPG,AFNE01.JPG,AFNE01.JPG,AFNE01.JPG,AFNE01.JPG,4,4,44,8,,,,,,,,,,,,,,,,,,,,,,,AFNE01.jpg,AFSA01.jpg,AFSA13.jpg,AFNE16.jpg,AFSA01.jpg,FS,4,num_6,32,num_2,1.23345048874,,,2018_Jan_22_1117,60.0051579327,FEMA4ImagesEEG,001,202766,
AFNE01.JPG,AFNE01.JPG,AFNE01.JPG,AFNE01.JPG,AFNE01.JPG,AFNE01.JPG,4,5,45,9,,,,,,,,,,,,,,,,,,,,,,,AFSA16.jpg,AFSA10.jpg,AFNE12.jpg,AFNE06.jpg,AFNE12.jpg,FN,3,num_2,16,num_2,0.883467359635,,,2018_Jan_22_1117,60.0051579327,FEMA4ImagesEEG,001,202766,
AFNE01.JPG,AFNE01.JPG,AFNE01.JPG,AFNE01.JPG,AFNE01.JPG,AFNE01.JPG,4,6,46,5,,,,,,,,,,,,,,,,,,,,,,,AFNE01.jpg,AFSA14.jpg,AFSA13.jpg,AFNE20.jpg,AFSA13.jpg,FS,4,num_2,16,num_2,1.95032965595,,,2018_Jan_22_1117,60.0051579327,FEMA4ImagesEEG,001,202766,
AFNE01.JPG,AFNE01.JPG,AFNE01.JPG,AFNE01.JPG,AFNE01.JPG,AFNE01.JPG,4,7,47,6,,,,,,,,,,,,,,,,,,,,,,,AFSA08.jpg,AFSA16.jpg,AFNE19.jpg,AFNE11.jpg,AFSA16.jpg,FS,4,num_6,32,num_8,0.883501999489,,,2018_Jan_22_1117,60.0051579327,FEMA4ImagesEEG,001,202766,
AFNE01.JPG,AFNE01.JPG,AFNE01.JPG,AFNE01.JPG,AFNE01.JPG,AFNE01.JPG,4,8,48,1,,,,,,,,,,,,,,,,,,,,,,,AFSA19.jpg,AFNE16.jpg,AFNE18.jpg,AFSA15.jpg,AFSA19.jpg,FS,4,num_8,16,num_8,0.866764855686,,,2018_Jan_22_1117,60.0051579327,FEMA4ImagesEEG,001,202766,
AFNE01.JPG,AFNE01.JPG,AFNE01.JPG,AFNE01.JPG,AFNE01.JPG,AFNE01.JPG,4,9,49,7,,,,,,,,,,,,,,,,,,,,,,,AFNE06.jpg,AFNE19.jpg,AFSA07.jpg,AFSA13.jpg,AFNE06.jpg,FN,3,num_8,32,num_4,1.13345709597,,,2018_Jan_22_1117,60.0051579327,FEMA4ImagesEEG,001,202766,
AFNE01.JPG,AFNE01.JPG,AFNE01.JPG,AFNE01.JPG,AFNE01.JPG,AFNE01.JPG,5,0,50,6,,,,,,,,,,,,,,,,,,,,,,,AFNE13.jpg,AFSA03.jpg,AFNE16.jpg,AFSA11.jpg,AFNE13.jpg,FN,3,num_8,16,num_8,0.900135865207,,,2018_Jan_22_1117,60.0051579327,FEMA4ImagesEEG,001,202766,
AFNE01.JPG,AFNE01.JPG,AFNE01.JPG,AFNE01.JPG,AFNE01.JPG,AFNE01.JPG,5,1,51,0,,,,,,,,,,,,,,,,,,,,,,,AFNE04.jpg,AFSA02.jpg,AFSA01.jpg,AFNE14.jpg,AFNE04.jpg,FN,3,num_8,16,num_8,1.2001737766,,,2018_Jan_22_1117,60.0051579327,FEMA4ImagesEEG,001,202766,
AFNE01.JPG,AFNE01.JPG,AFNE01.JPG,AFNE01.JPG,AFNE01.JPG,AFNE01.JPG,5,2,52,3,,,,,,,,,,,,,,,,,,,,,,,AFSA04.jpg,AFNE06.jpg,AFSA13.jpg,AFNE19.jpg,AFNE19.jpg,FN,3,num_4,16,num_4,1.21677364395,,,2018_Jan_22_1117,60.0051579327,FEMA4ImagesEEG,001,202766,
AFNE01.JPG,AFNE01.JPG,AFNE01.JPG,AFNE01.JPG,AFNE01.JPG,AFNE01.JPG,5,3,53,4,,,,,,,,,,,,,,,,,,,,,,,AFSA09.jpg,AFNE19.jpg,AFNE03.jpg,AFSA17.jpg,AFNE19.jpg,FN,3,num_6,16,num_6,0.866716424038,,,2018_Jan_22_1117,60.0051579327,FEMA4ImagesEEG,001,202766,
AFNE01.JPG,AFNE01.JPG,AFNE01.JPG,AFNE01.JPG,AFNE01.JPG,AFNE01.JPG,5,4,54,8,,,,,,,,,,,,,,,,,,,,,,,AFSA04.jpg,AFNE05.jpg,AFNE02.jpg,AFSA14.jpg,AFSA14.jpg,FS,4,num_4,16,num_4,1.10015183803,,,2018_Jan_22_1117,60.0051579327,FEMA4ImagesEEG,001,202766,
AFNE01.JPG,AFNE01.JPG,AFNE01.JPG,AFNE01.JPG,AFNE01.JPG,AFNE01.JPG,5,5,55,1,,,,,,,,,,,,,,,,,,,,,,,AFSA04.jpg,AFSA10.jpg,AFNE08.jpg,AFNE06.jpg,AFSA10.jpg,FS,4,num_6,16,num_6,0.933421558049,,,2018_Jan_22_1117,60.0051579327,FEMA4ImagesEEG,001,202766,
AFNE01.JPG,AFNE01.JPG,AFNE01.JPG,AFNE01.JPG,AFNE01.JPG,AFNE01.JPG,5,6,56,9,,,,,,,,,,,,,,,,,,,,,,,AFSA15.jpg,AFNE18.jpg,AFSA07.jpg,AFNE02.jpg,AFNE02.jpg,FN,3,num_4,16,num_4,1.23343605547,,,2018_Jan_22_1117,60.0051579327,FEMA4ImagesEEG,001,202766,
AFNE01.JPG,AFNE01.JPG,AFNE01.JPG,AFNE01.JPG,AFNE01.JPG,AFNE01.JPG,5,7,57,5,,,,,,,,,,,,,,,,,,,,,,,AFNE19.jpg,AFSA20.jpg,AFNE11.jpg,AFSA11.jpg,AFNE11.jpg,FN,3,num_2,32,num_4,0.98345209244,,,2018_Jan_22_1117,60.0051579327,FEMA4ImagesEEG,001,202766,
AFNE01.JPG,AFNE01.JPG,AFNE01.JPG,AFNE01.JPG,AFNE01.JPG,AFNE01.JPG,5,8,58,7,,,,,,,,,,,,,,,,,,,,,,,AFSA20.jpg,AFSA07.jpg,AFNE07.jpg,AFNE08.jpg,AFSA20.jpg,FS,4,num_8,16,num_8,1.15019840939,,,2018_Jan_22_1117,60.0051579327,FEMA4ImagesEEG,001,202766,
AFNE01.JPG,AFNE01.JPG,AFNE01.JPG,AFNE01.JPG,AFNE01.JPG,AFNE01.JPG,5,9,59,2,,,,,,,,,,,,,,,,,,,,,,,AFSA13.jpg,AFNE17.jpg,AFNE15.jpg,AFSA18.jpg,AFNE15.jpg,FN,3,num_2,16,num_2,1.00022131018,,,2018_Jan_22_1117,60.0051579327,FEMA4ImagesEEG,001,202766,
,,,,,,,,,,,,,,,,,,,,,,,,,,,,,,,,,,,,,,,,,,,space,9.88272805533,2018_Jan_22_1117,60.0051579327,FEMA4ImagesEEG,001,202766,
AFNE01.JPG,AFNE01.JPG,AFNE01.JPG,AFNE01.JPG,AFNE01.JPG,AFNE01.JPG,,,,,0,0,0,5,,,,,,,,,,,,,,,,,,,AMNE18.jpg,AMSA04.jpg,AMSA20.jpg,AMNE07.jpg,AMNE07.jpg,MN,1,num_4,16,num_4,0.983445036173,,,2018_Jan_22_1117,60.0051579327,FEMA4ImagesEEG,001,202766,
AFNE01.JPG,AFNE01.JPG,AFNE01.JPG,AFNE01.JPG,AFNE01.JPG,AFNE01.JPG,,,,,0,1,1,4,,,,,,,,,,,,,,,,,,,AMSA06.jpg,AMNE20.jpg,AMSA13.jpg,AMNE07.jpg,AMSA13.jpg,MS,2,num_2,16,num_2,1.4170381898,,,2018_Jan_22_1117,60.0051579327,FEMA4ImagesEEG,001,202766,
AFNE01.JPG,AFNE01.JPG,AFNE01.JPG,AFNE01.JPG,AFNE01.JPG,AFNE01.JPG,,,,,0,2,2,0,,,,,,,,,,,,,,,,,,,AMNE17.jpg,AMSA05.jpg,AMNE03.jpg,AMSA14.jpg,AMNE17.jpg,MN,1,num_8,32,num_4,1.08348878503,,,2018_Jan_22_1117,60.0051579327,FEMA4ImagesEEG,001,202766,
AFNE01.JPG,AFNE01.JPG,AFNE01.JPG,AFNE01.JPG,AFNE01.JPG,AFNE01.JPG,,,,,0,3,3,8,,,,,,,,,,,,,,,,,,,AMSA20.jpg,AMNE19.jpg,AMNE11.jpg,AMSA05.jpg,AMNE11.jpg,MN,1,num_2,16,num_2,1.15010443275,,,2018_Jan_22_1117,60.0051579327,FEMA4ImagesEEG,001,202766,
AFNE01.JPG,AFNE01.JPG,AFNE01.JPG,AFNE01.JPG,AFNE01.JPG,AFNE01.JPG,,,,,0,4,4,1,,,,,,,,,,,,,,,,,,,AMNE15.jpg,AMSA05.jpg,AMNE01.jpg,AMSA06.jpg,AMNE01.jpg,MN,1,num_2,32,num_4,1.28345023215,,,2018_Jan_22_1117,60.0051579327,FEMA4ImagesEEG,001,202766,
AFNE01.JPG,AFNE01.JPG,AFNE01.JPG,AFNE01.JPG,AFNE01.JPG,AFNE01.JPG,,,,,0,5,5,6,,,,,,,,,,,,,,,,,,,AMSA14.jpg,AMSA18.jpg,AMNE08.jpg,AMNE15.jpg,AMSA14.jpg,MS,2,num_8,16,num_8,1.01662648871,,,2018_Jan_22_1117,60.0051579327,FEMA4ImagesEEG,001,202766,
AFNE01.JPG,AFNE01.JPG,AFNE01.JPG,AFNE01.JPG,AFNE01.JPG,AFNE01.JPG,,,,,0,6,6,7,,,,,,,,,,,,,,,,,,,AMSA04.jpg,AMNE02.jpg,AMNE09.jpg,AMSA14.jpg,AMSA04.jpg,MS,2,num_8,32,num_6,1.03354356732,,,2018_Jan_22_1117,60.0051579327,FEMA4ImagesEEG,001,202766,
AFNE01.JPG,AFNE01.JPG,AFNE01.JPG,AFNE01.JPG,AFNE01.JPG,AFNE01.JPG,,,,,0,7,7,9,,,,,,,,,,,,,,,,,,,AMNE07.jpg,AMNE02.jpg,AMSA19.jpg,AMSA09.jpg,AMNE07.jpg,MN,1,num_8,32,num_2,1.20012566569,,,2018_Jan_22_1117,60.0051579327,FEMA4ImagesEEG,001,202766,
AFNE01.JPG,AFNE01.JPG,AFNE01.JPG,AFNE01.JPG,AFNE01.JPG,AFNE01.JPG,,,,,0,8,8,2,,,,,,,,,,,,,,,,,,,AMNE09.jpg,AMSA18.jpg,AMSA09.jpg,AMNE11.jpg,AMNE11.jpg,MN,1,num_4,16,num_4,1.6334230976,,,2018_Jan_22_1117,60.0051579327,FEMA4ImagesEEG,001,202766,
AFNE01.JPG,AFNE01.JPG,AFNE01.JPG,AFNE01.JPG,AFNE01.JPG,AFNE01.JPG,,,,,0,9,9,3,,,,,,,,,,,,,,,,,,,AMSA07.jpg,AMSA10.jpg,AMNE07.jpg,AMNE14.jpg,AMNE07.jpg,MN,1,num_2,16,num_2,2.01649402334,,,2018_Jan_22_1117,60.0051579327,FEMA4ImagesEEG,001,202766,
AFNE01.JPG,AFNE01.JPG,AFNE01.JPG,AFNE01.JPG,AFNE01.JPG,AFNE01.JPG,,,,,1,0,10,1,,,,,,,,,,,,,,,,,,,AMNE12.jpg,AMSA04.jpg,AMNE14.jpg,AMSA12.jpg,AMSA04.jpg,MS,2,num_6,32,num_8,1.2001224583,,,2018_Jan_22_1117,60.0051579327,FEMA4ImagesEEG,001,202766,
AFNE01.JPG,AFNE01.JPG,AFNE01.JPG,AFNE01.JPG,AFNE01.JPG,AFNE01.JPG,,,,,1,1,11,5,,,,,,,,,,,,,,,,,,,AMSA06.jpg,AMNE10.jpg,AMSA10.jpg,AMNE07.jpg,AMNE10.jpg,MN,1,num_6,16,num_6,0.900137789644,,,2018_Jan_22_1117,60.0051579327,FEMA4ImagesEEG,001,202766,
AFNE01.JPG,AFNE01.JPG,AFNE01.JPG,AFNE01.JPG,AFNE01.JPG,AFNE01.JPG,,,,,1,2,12,8,,,,,,,,,,,,,,,,,,,AMSA17.jpg,AMNE20.jpg,AMNE12.jpg,AMSA20.jpg,AMNE12.jpg,MN,1,num_2,16,num_2,1.15002777603,,,2018_Jan_22_1117,60.0051579327,FEMA4ImagesEEG,001,202766,
AFNE01.JPG,AFNE01.JPG,AFNE01.JPG,AFNE01.JPG,AFNE01.JPG,AFNE01.JPG,,,,,1,3,13,0,,,,,,,,,,,,,,,,,,,AMSA12.jpg,AMNE13.jpg,AMSA03.jpg,AMNE06.jpg,AMNE06.jpg,MN,1,num_4,32,num_6,1.33311736881,,,2018_Jan_22_1117,60.0051579327,FEMA4ImagesEEG,001,202766,
AFNE01.JPG,AFNE01.JPG,AFNE01.JPG,AFNE01.JPG,AFNE01.JPG,AFNE01.JPG,,,,,1,4,14,6,,,,,,,,,,,,,,,,,,,AMSA04.jpg,AMNE11.jpg,AMNE16.jpg,AMSA20.jpg,AMSA20.jpg,MS,2,num_4,16,num_4,0.950119571646,,,2018_Jan_22_1117,60.0051579327,FEMA4ImagesEEG,001,202766,
AFNE01.JPG,AFNE01.JPG,AFNE01.JPG,AFNE01.JPG,AFNE01.JPG,AFNE01.JPG,,,,,1,5,15,9,,,,,,,,,,,,,,,,,,,AMNE15.jpg,AMNE12.jpg,AMSA12.jpg,AMSA08.jpg,AMSA12.jpg,MS,2,num_2,32,num_6,1.08347018214,,,2018_Jan_22_1117,60.0051579327,FEMA4ImagesEEG,001,202766,
AFNE01.JPG,AFNE01.JPG,AFNE01.JPG,AFNE01.JPG,AFNE01.JPG,AFNE01.JPG,,,,,1,6,16,3,,,,,,,,,,,,,,,,,,,AMSA19.jpg,AMSA11.jpg,AMNE11.jpg,AMNE07.jpg,AMSA11.jpg,MS,2,num_6,16,num_6,1.43343085949,,,2018_Jan_22_1117,60.0051579327,FEMA4ImagesEEG,001,202766,
AFNE01.JPG,AFNE01.JPG,AFNE01.JPG,AFNE01.JPG,AFNE01.JPG,AFNE01.JPG,,,,,1,7,17,4,,,,,,,,,,,,,,,,,,,AMSA02.jpg,AMNE16.jpg,AMSA18.jpg,AMNE03.jpg,AMNE16.jpg,MN,1,num_6,32,num_2,1.16674375103,,,2018_Jan_22_1117,60.0051579327,FEMA4ImagesEEG,001,202766,
AFNE01.JPG,AFNE01.JPG,AFNE01.JPG,AFNE01.JPG,AFNE01.JPG,AFNE01.JPG,,,,,1,8,18,7,,,,,,,,,,,,,,,,,,,AMSA18.jpg,AMNE04.jpg,AMNE09.jpg,AMSA15.jpg,AMNE09.jpg,MN,1,num_2,32,num_6,1.48326253546,,,2018_Jan_22_1117,60.0051579327,FEMA4ImagesEEG,001,202766,
AFNE01.JPG,AFNE01.JPG,AFNE01.JPG,AFNE01.JPG,AFNE01.JPG,AFNE01.JPG,,,,,1,9,19,2,,,,,,,,,,,,,,,,,,,AMNE16.jpg,AMSA06.jpg,AMSA08.jpg,AMNE17.jpg,AMNE17.jpg,MN,1,num_4,32,num_8,1.9000422093,,,2018_Jan_22_1117,60.0051579327,FEMA4ImagesEEG,001,202766,
AFNE01.JPG,AFNE01.JPG,AFNE01.JPG,AFNE01.JPG,AFNE01.JPG,AFNE01.JPG,,,,,2,0,20,5,,,,,,,,,,,,,,,,,,,AMNE04.jpg,AMSA11.jpg,AMNE02.jpg,AMSA18.jpg,AMNE04.jpg,MN,1,num_8,16,num_8,1.78334278445,,,2018_Jan_22_1117,60.0051579327,FEMA4ImagesEEG,001,202766,
AFNE01.JPG,AFNE01.JPG,AFNE01.JPG,AFNE01.JPG,AFNE01.JPG,AFNE01.JPG,,,,,2,1,21,4,,,,,,,,,,,,,,,,,,,AMSA12.jpg,AMNE04.jpg,AMSA16.jpg,AMNE18.jpg,AMNE18.jpg,MN,1,num_4,32,num_8,1.0501193792,,,2018_Jan_22_1117,60.0051579327,FEMA4ImagesEEG,001,202766,
AFNE01.JPG,AFNE01.JPG,AFNE01.JPG,AFNE01.JPG,AFNE01.JPG,AFNE01.JPG,,,,,2,2,22,3,,,,,,,,,,,,,,,,,,,AMNE08.jpg,AMSA11.jpg,AMNE12.jpg,AMSA05.jpg,AMSA05.jpg,MS,2,num_4,16,num_4,0.750139200897,,,2018_Jan_22_1117,60.0051579327,FEMA4ImagesEEG,001,202766,
AFNE01.JPG,AFNE01.JPG,AFNE01.JPG,AFNE01.JPG,AFNE01.JPG,AFNE01.JPG,,,,,2,3,23,8,,,,,,,,,,,,,,,,,,,AMSA05.jpg,AMNE17.jpg,AMSA16.jpg,AMNE06.jpg,AMNE06.jpg,MN,1,num_4,16,num_4,1.15009737648,,,2018_Jan_22_1117,60.0051579327,FEMA4ImagesEEG,001,202766,
AFNE01.JPG,AFNE01.JPG,AFNE01.JPG,AFNE01.JPG,AFNE01.JPG,AFNE01.JPG,,,,,2,4,24,1,,,,,,,,,,,,,,,,,,,AMNE11.jpg,AMNE12.jpg,AMSA06.jpg,AMSA05.jpg,AMNE12.jpg,MN,1,num_6,16,num_6,1.26675895408,,,2018_Jan_22_1117,60.0051579327,FEMA4ImagesEEG,001,202766,
AFNE01.JPG,AFNE01.JPG,AFNE01.JPG,AFNE01.JPG,AFNE01.JPG,AFNE01.JPG,,,,,2,5,25,0,,,,,,,,,,,,,,,,,,,AMSA10.jpg,AMNE15.jpg,AMNE04.jpg,AMSA14.jpg,AMSA14.jpg,MS,2,num_4,16,num_4,0.850224004393,,,2018_Jan_22_1117,60.0051579327,FEMA4ImagesEEG,001,202766,
AFNE01.JPG,AFNE01.JPG,AFNE01.JPG,AFNE01.JPG,AFNE01.JPG,AFNE01.JPG,,,,,2,6,26,9,,,,,,,,,,,,,,,,,,,AMNE05.jpg,AMSA09.jpg,AMSA17.jpg,AMNE08.jpg,AMNE05.jpg,MN,1,num_8,16,num_8,0.850167874999,,,2018_Jan_22_1117,60.0051579327,FEMA4ImagesEEG,001,202766,
AFNE01.JPG,AFNE01.JPG,AFNE01.JPG,AFNE01.JPG,AFNE01.JPG,AFNE01.JPG,,,,,2,7,27,2,,,,,,,,,,,,,,,,,,,AMSA16.jpg,AMNE04.jpg,AMNE19.jpg,AMSA07.jpg,AMNE19.jpg,MN,1,num_2,16,num_2,1.3334804458,,,2018_Jan_22_1117,60.0051579327,FEMA4ImagesEEG,001,202766,
AFNE01.JPG,AFNE01.JPG,AFNE01.JPG,AFNE01.JPG,AFNE01.JPG,AFNE01.JPG,,,,,2,8,28,6,,,,,,,,,,,,,,,,,,,AMNE08.jpg,AMSA07.jpg,AMNE09.jpg,AMSA14.jpg,AMNE08.jpg,MN,1,num_8,32,num_2,1.36677351565,,,2018_Jan_22_1117,60.0051579327,FEMA4ImagesEEG,001,202766,
AFNE01.JPG,AFNE01.JPG,AFNE01.JPG,AFNE01.JPG,AFNE01.JPG,AFNE01.JPG,,,,,2,9,29,7,,,,,,,,,,,,,,,,,,,AMNE14.jpg,AMSA12.jpg,AMSA17.jpg,AMNE16.jpg,AMSA12.jpg,MS,2,num_6,16,num_6,1.08342495789,,,2018_Jan_22_1117,60.0051579327,FEMA4ImagesEEG,001,202766,
AFNE01.JPG,AFNE01.JPG,AFNE01.JPG,AFNE01.JPG,AFNE01.JPG,AFNE01.JPG,,,,,3,0,30,4,,,,,,,,,,,,,,,,,,,AMNE04.jpg,AMSA08.jpg,AMNE11.jpg,AMSA18.jpg,AMNE11.jpg,MN,1,num_2,32,num_8,1.63347922699,,,2018_Jan_22_1117,60.0051579327,FEMA4ImagesEEG,001,202766,
AFNE01.JPG,AFNE01.JPG,AFNE01.JPG,AFNE01.JPG,AFNE01.JPG,AFNE01.JPG,,,,,3,1,31,5,,,,,,,,,,,,,,,,,,,AMSA19.jpg,AMSA01.jpg,AMNE07.jpg,AMNE16.jpg,AMSA01.jpg,MS,2,num_6,32,num_2,1.46673451374,,,2018_Jan_22_1117,60.0051579327,FEMA4ImagesEEG,001,202766,
AFNE01.JPG,AFNE01.JPG,AFNE01.JPG,AFNE01.JPG,AFNE01.JPG,AFNE01.JPG,,,,,3,2,32,0,,,,,,,,,,,,,,,,,,,AMSA16.jpg,AMNE01.jpg,AMSA18.jpg,AMNE20.jpg,AMSA18.jpg,MS,2,num_2,32,num_8,1.11674144171,,,2018_Jan_22_1117,60.0051579327,FEMA4ImagesEEG,001,202766,
AFNE01.JPG,AFNE01.JPG,AFNE01.JPG,AFNE01.JPG,AFNE01.JPG,AFNE01.JPG,,,,,3,3,33,3,,,,,,,,,,,,,,,,,,,AMSA02.jpg,AMSA03.jpg,AMNE20.jpg,AMNE17.jpg,AMNE17.jpg,MN,1,num_4,16,num_4,1.05012675621,,,2018_Jan_22_1117,60.0051579327,FEMA4ImagesEEG,001,202766,
AFNE01.JPG,AFNE01.JPG,AFNE01.JPG,AFNE01.JPG,AFNE01.JPG,AFNE01.JPG,,,,,3,4,34,7,,,,,,,,,,,,,,,,,,,AMNE20.jpg,AMNE18.jpg,AMSA13.jpg,AMSA14.jpg,AMNE20.jpg,MN,1,num_8,16,num_8,0.950202643149,,,2018_Jan_22_1117,60.0051579327,FEMA4ImagesEEG,001,202766,
AFNE01.JPG,AFNE01.JPG,AFNE01.JPG,AFNE01.JPG,AFNE01.JPG,AFNE01.JPG,,,,,3,5,35,1,,,,,,,,,,,,,,,,,,,AMNE09.jpg,AMSA18.jpg,AMSA16.jpg,AMNE20.jpg,AMSA16.jpg,MS,2,num_2,32,num_6,1.40010475349,,,2018_Jan_22_1117,60.0051579327,FEMA4ImagesEEG,001,202766,
AFNE01.JPG,AFNE01.JPG,AFNE01.JPG,AFNE01.JPG,AFNE01.JPG,AFNE01.JPG,,,,,3,6,36,8,,,,,,,,,,,,,,,,,,,AMSA02.jpg,AMNE15.jpg,AMNE06.jpg,AMSA07.jpg,AMNE06.jpg,MN,1,num_2,32,num_6,0.866842795359,,,2018_Jan_22_1117,60.0051579327,FEMA4ImagesEEG,001,202766,
AFNE01.JPG,AFNE01.JPG,AFNE01.JPG,AFNE01.JPG,AFNE01.JPG,AFNE01.JPG,,,,,3,7,37,9,,,,,,,,,,,,,,,,,,,AMSA07.jpg,AMNE05.jpg,AMSA11.jpg,AMNE18.jpg,AMSA07.jpg,MS,2,num_8,16,num_8,0.883491415089,,,2018_Jan_22_1117,60.0051579327,FEMA4ImagesEEG,001,202766,
AFNE01.JPG,AFNE01.JPG,AFNE01.JPG,AFNE01.JPG,AFNE01.JPG,AFNE01.JPG,,,,,3,8,38,2,,,,,,,,,,,,,,,,,,,AMNE10.jpg,AMSA06.jpg,AMSA05.jpg,AMNE04.jpg,AMSA06.jpg,MS,2,num_6,16,num_6,0.850138046235,,,2018_Jan_22_1117,60.0051579327,FEMA4ImagesEEG,001,202766,
AFNE01.JPG,AFNE01.JPG,AFNE01.JPG,AFNE01.JPG,AFNE01.JPG,AFNE01.JPG,,,,,3,9,39,6,,,,,,,,,,,,,,,,,,,AMNE20.jpg,AMSA02.jpg,AMSA03.jpg,AMNE02.jpg,AMSA03.jpg,MS,2,num_2,32,num_4,1.18332277032,,,2018_Jan_22_1117,60.0051579327,FEMA4ImagesEEG,001,202766,
AFNE01.JPG,AFNE01.JPG,AFNE01.JPG,AFNE01.JPG,AFNE01.JPG,AFNE01.JPG,,,,,4,0,40,3,,,,,,,,,,,,,,,,,,,AMNE17.jpg,AMSA03.jpg,AMSA15.jpg,AMNE11.jpg,AMNE17.jpg,MN,1,num_8,16,num_8,0.85011431152,,,2018_Jan_22_1117,60.0051579327,FEMA4ImagesEEG,001,202766,
AFNE01.JPG,AFNE01.JPG,AFNE01.JPG,AFNE01.JPG,AFNE01.JPG,AFNE01.JPG,,,,,4,1,41,1,,,,,,,,,,,,,,,,,,,AMNE02.jpg,AMNE05.jpg,AMSA03.jpg,AMSA19.jpg,AMSA03.jpg,MS,2,num_2,32,num_4,1.21677781356,,,2018_Jan_22_1117,60.0051579327,FEMA4ImagesEEG,001,202766,
AFNE01.JPG,AFNE01.JPG,AFNE01.JPG,AFNE01.JPG,AFNE01.JPG,AFNE01.JPG,,,,,4,2,42,0,,,,,,,,,,,,,,,,,,,AMNE02.jpg,AMSA07.jpg,AMSA20.jpg,AMNE09.jpg,AMSA07.jpg,MS,2,num_6,16,num_6,1.00009622182,,,2018_Jan_22_1117,60.0051579327,FEMA4ImagesEEG,001,202766,
AFNE01.JPG,AFNE01.JPG,AFNE01.JPG,AFNE01.JPG,AFNE01.JPG,AFNE01.JPG,,,,,4,3,43,8,,,,,,,,,,,,,,,,,,,AMNE05.jpg,AMSA13.jpg,AMSA07.jpg,AMNE16.jpg,AMNE16.jpg,MN,1,num_4,16,num_4,0.816784998121,,,2018_Jan_22_1117,60.0051579327,FEMA4ImagesEEG,001,202766,
AFNE01.JPG,AFNE01.JPG,AFNE01.JPG,AFNE01.JPG,AFNE01.JPG,AFNE01.JPG,,,,,4,4,44,9,,,,,,,,,,,,,,,,,,,AMNE04.jpg,AMSA08.jpg,AMNE17.jpg,AMSA10.jpg,AMNE17.jpg,MN,1,num_2,16,num_2,0.800121624378,,,2018_Jan_22_1117,60.0051579327,FEMA4ImagesEEG,001,202766,
AFNE01.JPG,AFNE01.JPG,AFNE01.JPG,AFNE01.JPG,AFNE01.JPG,AFNE01.JPG,,,,,4,5,45,2,,,,,,,,,,,,,,,,,,,AMNE02.jpg,AMSA01.jpg,AMNE01.jpg,AMSA14.jpg,AMNE02.jpg,MN,1,num_8,32,num_2,1.76629291974,,,2018_Jan_22_1117,60.0051579327,FEMA4ImagesEEG,001,202766,
AFNE01.JPG,AFNE01.JPG,AFNE01.JPG,AFNE01.JPG,AFNE01.JPG,AFNE01.JPG,,,,,4,6,46,7,,,,,,,,,,,,,,,,,,,AMNE03.jpg,AMSA02.jpg,AMSA18.jpg,AMNE09.jpg,AMSA02.jpg,MS,2,num_6,16,num_6,0.883450681186,,,2018_Jan_22_1117,60.0051579327,FEMA4ImagesEEG,001,202766,
AFNE01.JPG,AFNE01.JPG,AFNE01.JPG,AFNE01.JPG,AFNE01.JPG,AFNE01.JPG,,,,,4,7,47,4,,,,,,,,,,,,,,,,,,,AMNE18.jpg,AMSA17.jpg,AMSA09.jpg,AMNE09.jpg,AMNE18.jpg,MN,1,num_8,32,num_4,1.23341296223,,,2018_Jan_22_1117,60.0051579327,FEMA4ImagesEEG,001,202766,
AFNE01.JPG,AFNE01.JPG,AFNE01.JPG,AFNE01.JPG,AFNE01.JPG,AFNE01.JPG,,,,,4,8,48,6,,,,,,,,,,,,,,,,,,,AMNE08.jpg,AMSA02.jpg,AMSA15.jpg,AMNE07.jpg,AMSA02.jpg,MS,2,num_6,16,num_6,0.833469219923,,,2018_Jan_22_1117,60.0051579327,FEMA4ImagesEEG,001,202766,
AFNE01.JPG,AFNE01.JPG,AFNE01.JPG,AFNE01.JPG,AFNE01.JPG,AFNE01.JPG,,,,,4,9,49,5,,,,,,,,,,,,,,,,,,,AMSA12.jpg,AMNE11.jpg,AMSA08.jpg,AMNE09.jpg,AMNE11.jpg,MN,1,num_6,32,num_8,1.0834730688,,,2018_Jan_22_1117,60.0051579327,FEMA4ImagesEEG,001,202766,
AFNE01.JPG,AFNE01.JPG,AFNE01.JPG,AFNE01.JPG,AFNE01.JPG,AFNE01.JPG,,,,,5,0,50,9,,,,,,,,,,,,,,,,,,,AMSA03.jpg,AMSA13.jpg,AMNE02.jpg,AMNE03.jpg,AMNE02.jpg,MN,1,num_2,16,num_2,1.55012868064,,,2018_Jan_22_1117,60.0051579327,FEMA4ImagesEEG,001,202766,
AFNE01.JPG,AFNE01.JPG,AFNE01.JPG,AFNE01.JPG,AFNE01.JPG,AFNE01.JPG,,,,,5,1,51,4,,,,,,,,,,,,,,,,,,,AMSA05.jpg,AMNE16.jpg,AMNE03.jpg,AMSA15.jpg,AMSA15.jpg,MS,2,num_4,32,num_2,1.18346806526,,,2018_Jan_22_1117,60.0051579327,FEMA4ImagesEEG,001,202766,
AFNE01.JPG,AFNE01.JPG,AFNE01.JPG,AFNE01.JPG,AFNE01.JPG,AFNE01.JPG,,,,,5,2,52,8,,,,,,,,,,,,,,,,,,,AMSA10.jpg,AMSA18.jpg,AMNE05.jpg,AMNE10.jpg,AMNE05.jpg,MN,1,num_2,16,num_2,1.15010699866,,,2018_Jan_22_1117,60.0051579327,FEMA4ImagesEEG,001,202766,
AFNE01.JPG,AFNE01.JPG,AFNE01.JPG,AFNE01.JPG,AFNE01.JPG,AFNE01.JPG,,,,,5,3,53,5,,,,,,,,,,,,,,,,,,,AMSA18.jpg,AMSA12.jpg,AMNE08.jpg,AMNE16.jpg,AMNE16.jpg,MN,1,num_4,16,num_4,1.03343387444,,,2018_Jan_22_1117,60.0051579327,FEMA4ImagesEEG,001,202766,
AFNE01.JPG,AFNE01.JPG,AFNE01.JPG,AFNE01.JPG,AFNE01.JPG,AFNE01.JPG,,,,,5,4,54,7,,,,,,,,,,,,,,,,,,,AMNE03.jpg,AMSA10.jpg,AMSA14.jpg,AMNE16.jpg,AMSA10.jpg,MS,2,num_6,32,num_2,1.48342418811,,,2018_Jan_22_1117,60.0051579327,FEMA4ImagesEEG,001,202766,
AFNE01.JPG,AFNE01.JPG,AFNE01.JPG,AFNE01.JPG,AFNE01.JPG,AFNE01.JPG,,,,,5,5,55,6,,,,,,,,,,,,,,,,,,,AMSA05.jpg,AMNE09.jpg,AMSA07.jpg,AMNE12.jpg,AMSA07.jpg,MS,2,num_2,16,num_2,1.00019789621,,,2018_Jan_22_1117,60.0051579327,FEMA4ImagesEEG,001,202766,
AFNE01.JPG,AFNE01.JPG,AFNE01.JPG,AFNE01.JPG,AFNE01.JPG,AFNE01.JPG,,,,,5,6,56,2,,,,,,,,,,,,,,,,,,,AMNE16.jpg,AMSA19.jpg,AMNE19.jpg,AMSA12.jpg,AMNE16.jpg,MN,1,num_8,16,num_8,0.983457545009,,,2018_Jan_22_1117,60.0051579327,FEMA4ImagesEEG,001,202766,
AFNE01.JPG,AFNE01.JPG,AFNE01.JPG,AFNE01.JPG,AFNE01.JPG,AFNE01.JPG,,,,,5,7,57,0,,,,,,,,,,,,,,,,,,,AMNE14.jpg,AMSA05.jpg,AMSA04.jpg,AMNE01.jpg,AMSA04.jpg,MS,2,num_2,16,num_2,1.31675003753,,,2018_Jan_22_1117,60.0051579327,FEMA4ImagesEEG,001,202766,
AFNE01.JPG,AFNE01.JPG,AFNE01.JPG,AFNE01.JPG,AFNE01.JPG,AFNE01.JPG,,,,,5,8,58,1,,,,,,,,,,,,,,,,,,,AMSA20.jpg,AMNE13.jpg,AMSA03.jpg,AMNE12.jpg,AMNE13.jpg,MN,1,num_6,32,num_4,1.08362413705,,,2018_Jan_22_1117,60.0051579327,FEMA4ImagesEEG,001,202766,
AFNE01.JPG,AFNE01.JPG,AFNE01.JPG,AFNE01.JPG,AFNE01.JPG,AFNE01.JPG,,,,,5,9,59,3,,,,,,,,,,,,,,,,,,,AMSA11.jpg,AMSA02.jpg,AMNE04.jpg,AMNE16.jpg,AMNE16.jpg,MN,1,num_4,16,num_4,0.933464216389,,,2018_Jan_22_1117,60.0051579327,FEMA4ImagesEEG,001,202766,
,,,,,,,,,,,,,,,,,,,,,,,,,,,,,,,,,,,,,,,,,,,space,9.61620195805,2018_Jan_22_1117,60.0051579327,FEMA4ImagesEEG,001,202766,
AFNE01.JPG,AFNE01.JPG,AFNE01.JPG,AFNE01.JPG,AFNE01.JPG,AFNE01.JPG,,,,,,,,,0,0,0,9,,,,,,,,,,,,,,,AFSA20.jpg,AFNE19.jpg,AFSA10.jpg,AFNE08.jpg,AFNE19.jpg,FN,3,num_6,32,num_4,1.53352624739,,,2018_Jan_22_1117,60.0051579327,FEMA4ImagesEEG,001,202766,
AFNE01.JPG,AFNE01.JPG,AFNE01.JPG,AFNE01.JPG,AFNE01.JPG,AFNE01.JPG,,,,,,,,,0,1,1,6,,,,,,,,,,,,,,,AFSA11.jpg,AFNE17.jpg,AFSA18.jpg,AFNE10.jpg,AFSA18.jpg,FS,4,num_2,16,num_2,0.950141381925,,,2018_Jan_22_1117,60.0051579327,FEMA4ImagesEEG,001,202766,
AFNE01.JPG,AFNE01.JPG,AFNE01.JPG,AFNE01.JPG,AFNE01.JPG,AFNE01.JPG,,,,,,,,,0,2,2,5,,,,,,,,,,,,,,,AFSA11.jpg,AFNE11.jpg,AFNE13.jpg,AFSA20.jpg,AFSA20.jpg,FS,4,num_4,16,num_4,0.866761327553,,,2018_Jan_22_1117,60.0051579327,FEMA4ImagesEEG,001,202766,
AFNE01.JPG,AFNE01.JPG,AFNE01.JPG,AFNE01.JPG,AFNE01.JPG,AFNE01.JPG,,,,,,,,,0,3,3,7,,,,,,,,,,,,,,,AFNE02.jpg,AFNE08.jpg,AFSA17.jpg,AFSA18.jpg,AFSA18.jpg,FS,4,num_4,32,num_8,1.23345658279,,,2018_Jan_22_1117,60.0051579327,FEMA4ImagesEEG,001,202766,
AFNE01.JPG,AFNE01.JPG,AFNE01.JPG,AFNE01.JPG,AFNE01.JPG,AFNE01.JPG,,,,,,,,,0,4,4,2,,,,,,,,,,,,,,,AFNE11.jpg,AFNE04.jpg,AFSA07.jpg,AFSA03.jpg,AFNE04.jpg,FN,3,num_6,32,num_4,1.28298516003,,,2018_Jan_22_1117,60.0051579327,FEMA4ImagesEEG,001,202766,
AFNE01.JPG,AFNE01.JPG,AFNE01.JPG,AFNE01.JPG,AFNE01.JPG,AFNE01.JPG,,,,,,,,,0,5,5,0,,,,,,,,,,,,,,,AFSA06.jpg,AFNE17.jpg,AFSA16.jpg,AFNE15.jpg,AFNE17.jpg,FN,3,num_6,16,num_6,1.08346729549,,,2018_Jan_22_1117,60.0051579327,FEMA4ImagesEEG,001,202766,
AFNE01.JPG,AFNE01.JPG,AFNE01.JPG,AFNE01.JPG,AFNE01.JPG,AFNE01.JPG,,,,,,,,,0,6,6,4,,,,,,,,,,,,,,,AFSA10.jpg,AFNE14.jpg,AFSA12.jpg,AFNE13.jpg,AFSA12.jpg,FS,4,num_2,16,num_2,0.883340667574,,,2018_Jan_22_1117,60.0051579327,FEMA4ImagesEEG,001,202766,
AFNE01.JPG,AFNE01.JPG,AFNE01.JPG,AFNE01.JPG,AFNE01.JPG,AFNE01.JPG,,,,,,,,,0,7,7,3,,,,,,,,,,,,,,,AFNE04.jpg,AFNE13.jpg,AFSA09.jpg,AFSA04.jpg,AFNE13.jpg,FN,3,num_6,16,num_6,1.43341193587,,,2018_Jan_22_1117,60.0051579327,FEMA4ImagesEEG,001,202766,
AFNE01.JPG,AFNE01.JPG,AFNE01.JPG,AFNE01.JPG,AFNE01.JPG,AFNE01.JPG,,,,,,,,,0,8,8,1,,,,,,,,,,,,,,,AFSA15.jpg,AFNE07.jpg,AFNE08.jpg,AFSA20.jpg,AFNE08.jpg,FN,3,num_2,32,num_6,1.48341713185,,,2018_Jan_22_1117,60.0051579327,FEMA4ImagesEEG,001,202766,
AFNE01.JPG,AFNE01.JPG,AFNE01.JPG,AFNE01.JPG,AFNE01.JPG,AFNE01.JPG,,,,,,,,,0,9,9,8,,,,,,,,,,,,,,,AFSA05.jpg,AFNE11.jpg,AFSA06.jpg,AFNE08.jpg,AFSA06.jpg,FS,4,num_2,16,num_2,1.33340603426,,,2018_Jan_22_1117,60.0051579327,FEMA4ImagesEEG,001,202766,
AFNE01.JPG,AFNE01.JPG,AFNE01.JPG,AFNE01.JPG,AFNE01.JPG,AFNE01.JPG,,,,,,,,,1,0,10,3,,,,,,,,,,,,,,,AFSA14.jpg,AFNE02.jpg,AFSA08.jpg,AFNE16.jpg,AFSA08.jpg,FS,4,num_2,16,num_2,0.933504308813,,,2018_Jan_22_1117,60.0051579327,FEMA4ImagesEEG,001,202766,
AFNE01.JPG,AFNE01.JPG,AFNE01.JPG,AFNE01.JPG,AFNE01.JPG,AFNE01.JPG,,,,,,,,,1,1,11,2,,,,,,,,,,,,,,,AFSA05.jpg,AFSA07.jpg,AFNE16.jpg,AFNE04.jpg,AFSA05.jpg,FS,4,num_8,16,num_8,0.783519191121,,,2018_Jan_22_1117,60.0051579327,FEMA4ImagesEEG,001,202766,
AFNE01.JPG,AFNE01.JPG,AFNE01.JPG,AFNE01.JPG,AFNE01.JPG,AFNE01.JPG,,,,,,,,,1,2,12,4,,,,,,,,,,,,,,,AFNE07.jpg,AFNE15.jpg,AFSA01.jpg,AFSA19.jpg,AFSA01.jpg,FS,4,num_2,32,num_4,1.58345093778,,,2018_Jan_22_1117,60.0051579327,FEMA4ImagesEEG,001,202766,
AFNE01.JPG,AFNE01.JPG,AFNE01.JPG,AFNE01.JPG,AFNE01.JPG,AFNE01.JPG,,,,,,,,,1,3,13,8,,,,,,,,,,,,,,,AFSA19.jpg,AFNE17.jpg,AFNE01.jpg,AFSA18.jpg,AFNE17.jpg,FN,3,num_6,32,num_8,0.966765625461,,,2018_Jan_22_1117,60.0051579327,FEMA4ImagesEEG,001,202766,
AFNE01.JPG,AFNE01.JPG,AFNE01.JPG,AFNE01.JPG,AFNE01.JPG,AFNE01.JPG,,,,,,,,,1,4,14,1,,,,,,,,,,,,,,,AFNE07.jpg,AFSA04.jpg,AFNE17.jpg,AFSA15.jpg,AFSA15.jpg,FS,4,num_4,16,num_4,0.800200847008,,,2018_Jan_22_1117,60.0051579327,FEMA4ImagesEEG,001,202766,
AFNE01.JPG,AFNE01.JPG,AFNE01.JPG,AFNE01.JPG,AFNE01.JPG,AFNE01.JPG,,,,,,,,,1,5,15,9,,,,,,,,,,,,,,,AFSA15.jpg,AFSA19.jpg,AFNE17.jpg,AFNE20.jpg,AFNE17.jpg,FN,3,num_2,32,num_4,1.51676023704,,,2018_Jan_22_1117,60.0051579327,FEMA4ImagesEEG,001,202766,
AFNE01.JPG,AFNE01.JPG,AFNE01.JPG,AFNE01.JPG,AFNE01.JPG,AFNE01.JPG,,,,,,,,,1,6,16,7,,,,,,,,,,,,,,,AFNE07.jpg,AFSA20.jpg,AFNE04.jpg,AFSA12.jpg,AFSA20.jpg,FS,4,num_6,32,num_8,1.38341379616,,,2018_Jan_22_1117,60.0051579327,FEMA4ImagesEEG,001,202766,
AFNE01.JPG,AFNE01.JPG,AFNE01.JPG,AFNE01.JPG,AFNE01.JPG,AFNE01.JPG,,,,,,,,,1,7,17,5,,,,,,,,,,,,,,,AFNE02.jpg,AFSA10.jpg,AFNE19.jpg,AFSA20.jpg,AFSA20.jpg,FS,4,num_4,16,num_4,0.900084546905,,,2018_Jan_22_1117,60.0051579327,FEMA4ImagesEEG,001,202766,
AFNE01.JPG,AFNE01.JPG,AFNE01.JPG,AFNE01.JPG,AFNE01.JPG,AFNE01.JPG,,,,,,,,,1,8,18,0,,,,,,,,,,,,,,,AFNE15.jpg,AFNE16.jpg,AFSA07.jpg,AFSA16.jpg,AFSA07.jpg,FS,4,num_2,16,num_2,0.88350713132,,,2018_Jan_22_1117,60.0051579327,FEMA4ImagesEEG,001,202766,
AFNE01.JPG,AFNE01.JPG,AFNE01.JPG,AFNE01.JPG,AFNE01.JPG,AFNE01.JPG,,,,,,,,,1,9,19,6,,,,,,,,,,,,,,,AFSA14.jpg,AFNE10.jpg,AFNE12.jpg,AFSA16.jpg,AFNE12.jpg,FN,3,num_2,16,num_2,1.13343721013,,,2018_Jan_22_1117,60.0051579327,FEMA4ImagesEEG,001,202766,
AFNE01.JPG,AFNE01.JPG,AFNE01.JPG,AFNE01.JPG,AFNE01.JPG,AFNE01.JPG,,,,,,,,,2,0,20,3,,,,,,,,,,,,,,,AFNE05.jpg,AFNE11.jpg,AFSA09.jpg,AFSA14.jpg,AFSA14.jpg,FS,4,num_4,16,num_4,1.28340372494,,,2018_Jan_22_1117,60.0051579327,FEMA4ImagesEEG,001,202766,
AFNE01.JPG,AFNE01.JPG,AFNE01.JPG,AFNE01.JPG,AFNE01.JPG,AFNE01.JPG,,,,,,,,,2,1,21,0,,,,,,,,,,,,,,,AFNE11.jpg,AFSA01.jpg,AFNE12.jpg,AFSA13.jpg,AFNE12.jpg,FN,3,num_2,16,num_2,1.0504808525,,,2018_Jan_22_1117,60.0051579327,FEMA4ImagesEEG,001,202766,
AFNE01.JPG,AFNE01.JPG,AFNE01.JPG,AFNE01.JPG,AFNE01.JPG,AFNE01.JPG,,,,,,,,,2,2,22,6,,,,,,,,,,,,,,,AFSA19.jpg,AFNE20.jpg,AFSA09.jpg,AFNE10.jpg,AFNE20.jpg,FN,3,num_6,16,num_6,1.18344946238,,,2018_Jan_22_1117,60.0051579327,FEMA4ImagesEEG,001,202766,
AFNE01.JPG,AFNE01.JPG,AFNE01.JPG,AFNE01.JPG,AFNE01.JPG,AFNE01.JPG,,,,,,,,,2,3,23,4,,,,,,,,,,,,,,,AFSA11.jpg,AFNE19.jpg,AFSA17.jpg,AFNE16.jpg,AFSA17.jpg,FS,4,num_2,32,num_4,1.41673477033,,,2018_Jan_22_1117,60.0051579327,FEMA4ImagesEEG,001,202766,
AFNE01.JPG,AFNE01.JPG,AFNE01.JPG,AFNE01.JPG,AFNE01.JPG,AFNE01.JPG,,,,,,,,,2,4,24,9,,,,,,,,,,,,,,,AFSA15.jpg,AFNE09.jpg,AFSA18.jpg,AFNE14.jpg,AFNE14.jpg,FN,3,num_4,16,num_4,1.00009878773,,,2018_Jan_22_1117,60.0051579327,FEMA4ImagesEEG,001,202766,
AFNE01.JPG,AFNE01.JPG,AFNE01.JPG,AFNE01.JPG,AFNE01.JPG,AFNE01.JPG,,,,,,,,,2,5,25,2,,,,,,,,,,,,,,,AFNE20.jpg,AFSA12.jpg,AFSA16.jpg,AFNE19.jpg,AFNE20.jpg,FN,3,num_8,16,num_8,1.06676350858,,,2018_Jan_22_1117,60.0051579327,FEMA4ImagesEEG,001,202766,
AFNE01.JPG,AFNE01.JPG,AFNE01.JPG,AFNE01.JPG,AFNE01.JPG,AFNE01.JPG,,,,,,,,,2,6,26,5,,,,,,,,,,,,,,,AFNE20.jpg,AFNE17.jpg,AFSA04.jpg,AFSA02.jpg,AFNE20.jpg,FN,3,num_8,16,num_8,1.0001375972,,,2018_Jan_22_1117,60.0051579327,FEMA4ImagesEEG,001,202766,
AFNE01.JPG,AFNE01.JPG,AFNE01.JPG,AFNE01.JPG,AFNE01.JPG,AFNE01.JPG,,,,,,,,,2,7,27,1,,,,,,,,,,,,,,,AFSA06.jpg,AFNE19.jpg,AFSA19.jpg,AFNE15.jpg,AFSA06.jpg,FS,4,num_8,16,num_8,1.20009647841,,,2018_Jan_22_1117,60.0051579327,FEMA4ImagesEEG,001,202766,
AFNE01.JPG,AFNE01.JPG,AFNE01.JPG,AFNE01.JPG,AFNE01.JPG,AFNE01.JPG,,,,,,,,,2,8,28,8,,,,,,,,,,,,,,,AFSA05.jpg,AFNE11.jpg,AFSA01.jpg,AFNE16.jpg,AFSA01.jpg,FS,4,num_2,32,num_6,1.1837557685,,,2018_Jan_22_1117,60.0051579327,FEMA4ImagesEEG,001,202766,
AFNE01.JPG,AFNE01.JPG,AFNE01.JPG,AFNE01.JPG,AFNE01.JPG,AFNE01.JPG,,,,,,,,,2,9,29,7,,,,,,,,,,,,,,,AFSA14.jpg,AFNE01.jpg,AFSA02.jpg,AFNE20.jpg,AFNE01.jpg,FN,3,num_6,32,num_2,1.66669916826,,,2018_Jan_22_1117,60.0051579327,FEMA4ImagesEEG,001,202766,
AFNE01.JPG,AFNE01.JPG,AFNE01.JPG,AFNE01.JPG,AFNE01.JPG,AFNE01.JPG,,,,,,,,,3,0,30,9,,,,,,,,,,,,,,,AFNE10.jpg,AFNE17.jpg,AFSA07.jpg,AFSA01.jpg,AFSA01.jpg,FS,4,num_4,32,num_8,1.40011982824,,,2018_Jan_22_1117,60.0051579327,FEMA4ImagesEEG,001,202766,
AFNE01.JPG,AFNE01.JPG,AFNE01.JPG,AFNE01.JPG,AFNE01.JPG,AFNE01.JPG,,,,,,,,,3,1,31,3,,,,,,,,,,,,,,,AFNE19.jpg,AFSA14.jpg,AFSA03.jpg,AFNE17.jpg,AFNE19.jpg,FN,3,num_8,16,num_8,0.966767229158,,,2018_Jan_22_1117,60.0051579327,FEMA4ImagesEEG,001,202766,
AFNE01.JPG,AFNE01.JPG,AFNE01.JPG,AFNE01.JPG,AFNE01.JPG,AFNE01.JPG,,,,,,,,,3,2,32,5,,,,,,,,,,,,,,,AFSA08.jpg,AFNE13.jpg,AFSA14.jpg,AFNE18.jpg,AFSA08.jpg,FS,4,num_8,32,num_2,1.80010398371,,,2018_Jan_22_1117,60.0051579327,FEMA4ImagesEEG,001,202766,
AFNE01.JPG,AFNE01.JPG,AFNE01.JPG,AFNE01.JPG,AFNE01.JPG,AFNE01.JPG,,,,,,,,,3,3,33,6,,,,,,,,,,,,,,,AFNE19.jpg,AFSA13.jpg,AFSA18.jpg,AFNE08.jpg,AFSA13.jpg,FS,4,num_6,32,num_4,1.58344773038,,,2018_Jan_22_1117,60.0051579327,FEMA4ImagesEEG,001,202766,
AFNE01.JPG,AFNE01.JPG,AFNE01.JPG,AFNE01.JPG,AFNE01.JPG,AFNE01.JPG,,,,,,,,,3,4,34,1,,,,,,,,,,,,,,,AFSA17.jpg,AFNE18.jpg,AFNE15.jpg,AFSA12.jpg,AFNE15.jpg,FN,3,num_2,16,num_2,0.93344785868,,,2018_Jan_22_1117,60.0051579327,FEMA4ImagesEEG,001,202766,
AFNE01.JPG,AFNE01.JPG,AFNE01.JPG,AFNE01.JPG,AFNE01.JPG,AFNE01.JPG,,,,,,,,,3,5,35,0,,,,,,,,,,,,,,,AFNE12.jpg,AFNE02.jpg,AFSA20.jpg,AFSA04.jpg,AFSA20.jpg,FS,4,num_2,32,num_4,1.23348160046,,,2018_Jan_22_1117,60.0051579327,FEMA4ImagesEEG,001,202766,
AFNE01.JPG,AFNE01.JPG,AFNE01.JPG,AFNE01.JPG,AFNE01.JPG,AFNE01.JPG,,,,,,,,,3,6,36,8,,,,,,,,,,,,,,,AFSA09.jpg,AFSA08.jpg,AFNE15.jpg,AFNE07.jpg,AFSA08.jpg,FS,4,num_6,16,num_6,1.71668223322,,,2018_Jan_22_1117,60.0051579327,FEMA4ImagesEEG,001,202766,
AFNE01.JPG,AFNE01.JPG,AFNE01.JPG,AFNE01.JPG,AFNE01.JPG,AFNE01.JPG,,,,,,,,,3,7,37,4,,,,,,,,,,,,,,,AFSA11.jpg,AFNE08.jpg,AFSA02.jpg,AFNE07.jpg,AFNE08.jpg,FN,3,num_6,16,num_6,0.983465563494,,,2018_Jan_22_1117,60.0051579327,FEMA4ImagesEEG,001,202766,
AFNE01.JPG,AFNE01.JPG,AFNE01.JPG,AFNE01.JPG,AFNE01.JPG,AFNE01.JPG,,,,,,,,,3,8,38,2,,,,,,,,,,,,,,,AFSA14.jpg,AFSA20.jpg,AFNE09.jpg,AFNE10.jpg,AFNE09.jpg,FN,3,num_2,16,num_2,0.833489105766,,,2018_Jan_22_1117,60.0051579327,FEMA4ImagesEEG,001,202766,
AFNE01.JPG,AFNE01.JPG,AFNE01.JPG,AFNE01.JPG,AFNE01.JPG,AFNE01.JPG,,,,,,,,,3,9,39,7,,,,,,,,,,,,,,,AFNE12.jpg,AFNE01.jpg,AFSA02.jpg,AFSA04.jpg,AFNE12.jpg,FN,3,num_8,16,num_8,1.35014125363,,,2018_Jan_22_1117,60.0051579327,FEMA4ImagesEEG,001,202766,
AFNE01.JPG,AFNE01.JPG,AFNE01.JPG,AFNE01.JPG,AFNE01.JPG,AFNE01.JPG,,,,,,,,,4,0,40,1,,,,,,,,,,,,,,,AFNE08.jpg,AFNE06.jpg,AFSA13.jpg,AFSA15.jpg,AFNE08.jpg,FN,3,num_8,32,num_6,1.40008037729,,,2018_Jan_22_1117,60.0051579327,FEMA4ImagesEEG,001,202766,
AFNE01.JPG,AFNE01.JPG,AFNE01.JPG,AFNE01.JPG,AFNE01.JPG,AFNE01.JPG,,,,,,,,,4,1,41,7,,,,,,,,,,,,,,,AFNE05.jpg,AFSA05.jpg,AFSA06.jpg,AFNE14.jpg,AFNE14.jpg,FN,3,num_4,32,num_8,1.11674978093,,,2018_Jan_22_1117,60.0051579327,FEMA4ImagesEEG,001,202766,
AFNE01.JPG,AFNE01.JPG,AFNE01.JPG,AFNE01.JPG,AFNE01.JPG,AFNE01.JPG,,,,,,,,,4,2,42,0,,,,,,,,,,,,,,,AFNE18.jpg,AFSA02.jpg,AFSA14.jpg,AFNE11.jpg,AFSA02.jpg,FS,4,num_6,32,num_4,1.36672797066,,,2018_Jan_22_1117,60.0051579327,FEMA4ImagesEEG,001,202766,
AFNE01.JPG,AFNE01.JPG,AFNE01.JPG,AFNE01.JPG,AFNE01.JPG,AFNE01.JPG,,,,,,,,,4,3,43,4,,,,,,,,,,,,,,,AFNE01.jpg,AFNE14.jpg,AFSA17.jpg,AFSA05.jpg,AFNE01.jpg,FN,3,num_8,16,num_8,0.933480574098,,,2018_Jan_22_1117,60.0051579327,FEMA4ImagesEEG,001,202766,
AFNE01.JPG,AFNE01.JPG,AFNE01.JPG,AFNE01.JPG,AFNE01.JPG,AFNE01.JPG,,,,,,,,,4,4,44,8,,,,,,,,,,,,,,,AFNE05.jpg,AFNE11.jpg,AFSA04.jpg,AFSA20.jpg,AFNE05.jpg,FN,3,num_8,16,num_8,1.11689539662,,,2018_Jan_22_1117,60.0051579327,FEMA4ImagesEEG,001,202766,
AFNE01.JPG,AFNE01.JPG,AFNE01.JPG,AFNE01.JPG,AFNE01.JPG,AFNE01.JPG,,,,,,,,,4,5,45,2,,,,,,,,,,,,,,,AFSA17.jpg,AFNE08.jpg,AFNE12.jpg,AFSA15.jpg,AFSA17.jpg,FS,4,num_8,16,num_8,0.916709111179,,,2018_Jan_22_1117,60.0051579327,FEMA4ImagesEEG,001,202766,
AFNE01.JPG,AFNE01.JPG,AFNE01.JPG,AFNE01.JPG,AFNE01.JPG,AFNE01.JPG,,,,,,,,,4,6,46,6,,,,,,,,,,,,,,,AFNE05.jpg,AFSA17.jpg,AFSA07.jpg,AFNE20.jpg,AFSA07.jpg,FS,4,num_2,32,num_6,1.46679192609,,,2018_Jan_22_1117,60.0051579327,FEMA4ImagesEEG,001,202766,
AFNE01.JPG,AFNE01.JPG,AFNE01.JPG,AFNE01.JPG,AFNE01.JPG,AFNE01.JPG,,,,,,,,,4,7,47,3,,,,,,,,,,,,,,,AFSA18.jpg,AFNE05.jpg,AFNE15.jpg,AFSA08.jpg,AFSA08.jpg,FS,4,num_4,32,num_8,0.96677171951,,,2018_Jan_22_1117,60.0051579327,FEMA4ImagesEEG,001,202766,
AFNE01.JPG,AFNE01.JPG,AFNE01.JPG,AFNE01.JPG,AFNE01.JPG,AFNE01.JPG,,,,,,,,,4,8,48,9,,,,,,,,,,,,,,,AFNE02.jpg,AFNE18.jpg,AFSA20.jpg,AFSA16.jpg,AFSA16.jpg,FS,4,num_4,16,num_4,1.30014439688,,,2018_Jan_22_1117,60.0051579327,FEMA4ImagesEEG,001,202766,
AFNE01.JPG,AFNE01.JPG,AFNE01.JPG,AFNE01.JPG,AFNE01.JPG,AFNE01.JPG,,,,,,,,,4,9,49,5,,,,,,,,,,,,,,,AFNE05.jpg,AFNE06.jpg,AFSA01.jpg,AFSA06.jpg,AFNE05.jpg,FN,3,num_8,16,num_8,0.800423760887,,,2018_Jan_22_1117,60.0051579327,FEMA4ImagesEEG,001,202766,
AFNE01.JPG,AFNE01.JPG,AFNE01.JPG,AFNE01.JPG,AFNE01.JPG,AFNE01.JPG,,,,,,,,,5,0,50,7,,,,,,,,,,,,,,,AFSA19.jpg,AFSA18.jpg,AFNE03.jpg,AFNE12.jpg,AFSA18.jpg,FS,4,num_6,32,num_8,1.3167311139,,,2018_Jan_22_1117,60.0051579327,FEMA4ImagesEEG,001,202766,
AFNE01.JPG,AFNE01.JPG,AFNE01.JPG,AFNE01.JPG,AFNE01.JPG,AFNE01.JPG,,,,,,,,,5,1,51,5,,,,,,,,,,,,,,,AFSA04.jpg,AFNE10.jpg,AFNE12.jpg,AFSA17.jpg,AFNE10.jpg,FN,3,num_6,32,num_8,1.21677107803,,,2018_Jan_22_1117,60.0051579327,FEMA4ImagesEEG,001,202766,
AFNE01.JPG,AFNE01.JPG,AFNE01.JPG,AFNE01.JPG,AFNE01.JPG,AFNE01.JPG,,,,,,,,,5,2,52,8,,,,,,,,,,,,,,,AFNE03.jpg,AFSA18.jpg,AFNE02.jpg,AFSA17.jpg,AFSA17.jpg,FS,4,num_4,32,num_6,1.36672027291,,,2018_Jan_22_1117,60.0051579327,FEMA4ImagesEEG,001,202766,
AFNE01.JPG,AFNE01.JPG,AFNE01.JPG,AFNE01.JPG,AFNE01.JPG,AFNE01.JPG,,,,,,,,,5,3,53,9,,,,,,,,,,,,,,,AFSA01.jpg,AFNE05.jpg,AFSA08.jpg,AFNE04.jpg,AFNE04.jpg,FN,3,num_4,32,num_8,1.35013644254,,,2018_Jan_22_1117,60.0051579327,FEMA4ImagesEEG,001,202766,
AFNE01.JPG,AFNE01.JPG,AFNE01.JPG,AFNE01.JPG,AFNE01.JPG,AFNE01.JPG,,,,,,,,,5,4,54,2,,,,,,,,,,,,,,,AFSA09.jpg,AFSA08.jpg,AFNE16.jpg,AFNE10.jpg,AFNE16.jpg,FN,3,num_2,32,num_4,1.43342284101,,,2018_Jan_22_1117,60.0051579327,FEMA4ImagesEEG,001,202766,
AFNE01.JPG,AFNE01.JPG,AFNE01.JPG,AFNE01.JPG,AFNE01.JPG,AFNE01.JPG,,,,,,,,,5,5,55,4,,,,,,,,,,,,,,,AFSA04.jpg,AFSA01.jpg,AFNE07.jpg,AFNE08.jpg,AFSA01.jpg,FS,4,num_6,32,num_4,1.11678666597,,,2018_Jan_22_1117,60.0051579327,FEMA4ImagesEEG,001,202766,
AFNE01.JPG,AFNE01.JPG,AFNE01.JPG,AFNE01.JPG,AFNE01.JPG,AFNE01.JPG,,,,,,,,,5,6,56,6,,,,,,,,,,,,,,,AFSA01.jpg,AFSA03.jpg,AFNE11.jpg,AFNE06.jpg,AFNE11.jpg,FN,3,num_2,16,num_2,0.916729317762,,,2018_Jan_22_1117,60.0051579327,FEMA4ImagesEEG,001,202766,
AFNE01.JPG,AFNE01.JPG,AFNE01.JPG,AFNE01.JPG,AFNE01.JPG,AFNE01.JPG,,,,,,,,,5,7,57,3,,,,,,,,,,,,,,,AFSA09.jpg,AFNE05.jpg,AFNE19.jpg,AFSA06.jpg,AFSA06.jpg,FS,4,num_4,32,num_6,2.94974847617,,,2018_Jan_22_1117,60.0051579327,FEMA4ImagesEEG,001,202766,
AFNE01.JPG,AFNE01.JPG,AFNE01.JPG,AFNE01.JPG,AFNE01.JPG,AFNE01.JPG,,,,,,,,,5,8,58,1,,,,,,,,,,,,,,,AFNE15.jpg,AFNE18.jpg,AFSA01.jpg,AFSA04.jpg,AFSA01.jpg,FS,4,num_2,32,num_4,1.16675818431,,,2018_Jan_22_1117,60.0051579327,FEMA4ImagesEEG,001,202766,
AFNE01.JPG,AFNE01.JPG,AFNE01.JPG,AFNE01.JPG,AFNE01.JPG,AFNE01.JPG,,,,,,,,,5,9,59,0,,,,,,,,,,,,,,,AFSA05.jpg,AFNE05.jpg,AFNE01.jpg,AFSA20.jpg,AFSA20.jpg,FS,4,num_4,16,num_4,1.11679436371,,,2018_Jan_22_1117,60.0051579327,FEMA4ImagesEEG,001,202766,
,,,,,,,,,,,,,,,,,,,,,,,,,,,,,,,,,,,,,,,,,,,space,16.8158035356,2018_Jan_22_1117,60.0051579327,FEMA4ImagesEEG,001,202766,
AFNE01.JPG,AFNE01.JPG,AFNE01.JPG,AFNE01.JPG,AFNE01.JPG,AFNE01.JPG,,,,,,,,,,,,,0,0,0,3,,,,,,,,,,,AMNE10.jpg,AMSA12.jpg,AMNE15.jpg,AMSA14.jpg,AMNE15.jpg,MN,1,num_2,32,num_8,1.03345183585,,,2018_Jan_22_1117,60.0051579327,FEMA4ImagesEEG,001,202766,
AFNE01.JPG,AFNE01.JPG,AFNE01.JPG,AFNE01.JPG,AFNE01.JPG,AFNE01.JPG,,,,,,,,,,,,,0,1,1,9,,,,,,,,,,,AMSA06.jpg,AMSA15.jpg,AMNE05.jpg,AMNE03.jpg,AMNE05.jpg,MN,1,num_2,16,num_2,0.733480958986,,,2018_Jan_22_1117,60.0051579327,FEMA4ImagesEEG,001,202766,
AFNE01.JPG,AFNE01.JPG,AFNE01.JPG,AFNE01.JPG,AFNE01.JPG,AFNE01.JPG,,,,,,,,,,,,,0,2,2,2,,,,,,,,,,,AMSA11.jpg,AMNE10.jpg,AMSA03.jpg,AMNE18.jpg,AMNE18.jpg,MN,1,num_4,16,num_4,0.766810272386,,,2018_Jan_22_1117,60.0051579327,FEMA4ImagesEEG,001,202766,
AFNE01.JPG,AFNE01.JPG,AFNE01.JPG,AFNE01.JPG,AFNE01.JPG,AFNE01.JPG,,,,,,,,,,,,,0,3,3,1,,,,,,,,,,,AMNE13.jpg,AMNE19.jpg,AMSA07.jpg,AMSA20.jpg,AMSA20.jpg,MS,2,num_4,16,num_4,0.916781919022,,,2018_Jan_22_1117,60.0051579327,FEMA4ImagesEEG,001,202766,
AFNE01.JPG,AFNE01.JPG,AFNE01.JPG,AFNE01.JPG,AFNE01.JPG,AFNE01.JPG,,,,,,,,,,,,,0,4,4,6,,,,,,,,,,,AMSA06.jpg,AMNE17.jpg,AMSA13.jpg,AMNE01.jpg,AMSA13.jpg,MS,2,num_2,16,num_2,1.09981057131,,,2018_Jan_22_1117,60.0051579327,FEMA4ImagesEEG,001,202766,
AFNE01.JPG,AFNE01.JPG,AFNE01.JPG,AFNE01.JPG,AFNE01.JPG,AFNE01.JPG,,,,,,,,,,,,,0,5,5,7,,,,,,,,,,,AMNE03.jpg,AMSA06.jpg,AMNE11.jpg,AMSA02.jpg,AMNE03.jpg,MN,1,num_8,32,num_4,0.983460431664,,,2018_Jan_22_1117,60.0051579327,FEMA4ImagesEEG,001,202766,
AFNE01.JPG,AFNE01.JPG,AFNE01.JPG,AFNE01.JPG,AFNE01.JPG,AFNE01.JPG,,,,,,,,,,,,,0,6,6,8,,,,,,,,,,,AMNE10.jpg,AMSA17.jpg,AMNE18.jpg,AMSA06.jpg,AMNE18.jpg,MN,1,num_2,16,num_2,0.883536960083,,,2018_Jan_22_1117,60.0051579327,FEMA4ImagesEEG,001,202766,
AFNE01.JPG,AFNE01.JPG,AFNE01.JPG,AFNE01.JPG,AFNE01.JPG,AFNE01.JPG,,,,,,,,,,,,,0,7,7,4,,,,,,,,,,,AMSA20.jpg,AMNE17.jpg,AMNE07.jpg,AMSA16.jpg,AMNE17.jpg,MN,1,num_6,16,num_6,1.03343291222,,,2018_Jan_22_1117,60.0051579327,FEMA4ImagesEEG,001,202766,
AFNE01.JPG,AFNE01.JPG,AFNE01.JPG,AFNE01.JPG,AFNE01.JPG,AFNE01.JPG,,,,,,,,,,,,,0,8,8,5,,,,,,,,,,,AMNE20.jpg,AMNE10.jpg,AMSA20.jpg,AMSA02.jpg,AMNE20.jpg,MN,1,num_8,16,num_8,1.31672117098,,,2018_Jan_22_1117,60.0051579327,FEMA4ImagesEEG,001,202766,
AFNE01.JPG,AFNE01.JPG,AFNE01.JPG,AFNE01.JPG,AFNE01.JPG,AFNE01.JPG,,,,,,,,,,,,,0,9,9,0,,,,,,,,,,,AMNE14.jpg,AMSA19.jpg,AMNE18.jpg,AMSA03.jpg,AMSA19.jpg,MS,2,num_6,16,num_6,0.900163448795,,,2018_Jan_22_1117,60.0051579327,FEMA4ImagesEEG,001,202766,
AFNE01.JPG,AFNE01.JPG,AFNE01.JPG,AFNE01.JPG,AFNE01.JPG,AFNE01.JPG,,,,,,,,,,,,,1,0,10,6,,,,,,,,,,,AMNE18.jpg,AMSA09.jpg,AMNE14.jpg,AMSA11.jpg,AMNE14.jpg,MN,1,num_2,16,num_2,0.91680437078,,,2018_Jan_22_1117,60.0051579327,FEMA4ImagesEEG,001,202766,
AFNE01.JPG,AFNE01.JPG,AFNE01.JPG,AFNE01.JPG,AFNE01.JPG,AFNE01.JPG,,,,,,,,,,,,,1,1,11,1,,,,,,,,,,,AMNE19.jpg,AMSA20.jpg,AMNE01.jpg,AMSA12.jpg,AMSA20.jpg,MS,2,num_6,16,num_6,1.08346408809,,,2018_Jan_22_1117,60.0051579327,FEMA4ImagesEEG,001,202766,
AFNE01.JPG,AFNE01.JPG,AFNE01.JPG,AFNE01.JPG,AFNE01.JPG,AFNE01.JPG,,,,,,,,,,,,,1,2,12,5,,,,,,,,,,,AMNE13.jpg,AMSA01.jpg,AMSA04.jpg,AMNE14.jpg,AMSA04.jpg,MS,2,num_2,16,num_2,1.33344901334,,,2018_Jan_22_1117,60.0051579327,FEMA4ImagesEEG,001,202766,
AFNE01.JPG,AFNE01.JPG,AFNE01.JPG,AFNE01.JPG,AFNE01.JPG,AFNE01.JPG,,,,,,,,,,,,,1,3,13,0,,,,,,,,,,,AMSA06.jpg,AMNE06.jpg,AMNE15.jpg,AMSA02.jpg,AMSA02.jpg,MS,2,num_4,16,num_4,0.850146385459,,,2018_Jan_22_1117,60.0051579327,FEMA4ImagesEEG,001,202766,
AFNE01.JPG,AFNE01.JPG,AFNE01.JPG,AFNE01.JPG,AFNE01.JPG,AFNE01.JPG,,,,,,,,,,,,,1,4,14,7,,,,,,,,,,,AMNE06.jpg,AMSA16.jpg,AMNE07.jpg,AMSA14.jpg,AMSA14.jpg,MS,2,num_4,16,num_4,1.03344253441,,,2018_Jan_22_1117,60.0051579327,FEMA4ImagesEEG,001,202766,
AFNE01.JPG,AFNE01.JPG,AFNE01.JPG,AFNE01.JPG,AFNE01.JPG,AFNE01.JPG,,,,,,,,,,,,,1,5,15,3,,,,,,,,,,,AMNE20.jpg,AMNE15.jpg,AMSA18.jpg,AMSA01.jpg,AMNE20.jpg,MN,1,num_8,16,num_8,0.766502041827,,,2018_Jan_22_1117,60.0051579327,FEMA4ImagesEEG,001,202766,
AFNE01.JPG,AFNE01.JPG,AFNE01.JPG,AFNE01.JPG,AFNE01.JPG,AFNE01.JPG,,,,,,,,,,,,,1,6,16,8,,,,,,,,,,,AMSA09.jpg,AMNE14.jpg,AMNE20.jpg,AMSA20.jpg,AMNE20.jpg,MN,1,num_2,32,num_4,0.9667659462,,,2018_Jan_22_1117,60.0051579327,FEMA4ImagesEEG,001,202766,
AFNE01.JPG,AFNE01.JPG,AFNE01.JPG,AFNE01.JPG,AFNE01.JPG,AFNE01.JPG,,,,,,,,,,,,,1,7,17,4,,,,,,,,,,,AMSA09.jpg,AMNE20.jpg,AMNE07.jpg,AMSA13.jpg,AMSA13.jpg,MS,2,num_4,16,num_4,1.5334123849,,,2018_Jan_22_1117,60.0051579327,FEMA4ImagesEEG,001,202766,
AFNE01.JPG,AFNE01.JPG,AFNE01.JPG,AFNE01.JPG,AFNE01.JPG,AFNE01.JPG,,,,,,,,,,,,,1,8,18,9,,,,,,,,,,,AMSA14.jpg,AMNE07.jpg,AMNE10.jpg,AMSA13.jpg,AMNE10.jpg,MN,1,num_2,16,num_2,1.0837027182,,,2018_Jan_22_1117,60.0051579327,FEMA4ImagesEEG,001,202766,
AFNE01.JPG,AFNE01.JPG,AFNE01.JPG,AFNE01.JPG,AFNE01.JPG,AFNE01.JPG,,,,,,,,,,,,,1,9,19,2,,,,,,,,,,,AMSA11.jpg,AMSA03.jpg,AMNE11.jpg,AMNE12.jpg,AMNE12.jpg,MN,1,num_4,16,num_4,1.03343451592,,,2018_Jan_22_1117,60.0051579327,FEMA4ImagesEEG,001,202766,
AFNE01.JPG,AFNE01.JPG,AFNE01.JPG,AFNE01.JPG,AFNE01.JPG,AFNE01.JPG,,,,,,,,,,,,,2,0,20,1,,,,,,,,,,,AMSA11.jpg,AMNE14.jpg,AMNE12.jpg,AMSA14.jpg,AMSA14.jpg,MS,2,num_4,16,num_4,1.06672790651,,,2018_Jan_22_1117,60.0051579327,FEMA4ImagesEEG,001,202766,
AFNE01.JPG,AFNE01.JPG,AFNE01.JPG,AFNE01.JPG,AFNE01.JPG,AFNE01.JPG,,,,,,,,,,,,,2,1,21,9,,,,,,,,,,,AMNE13.jpg,AMSA17.jpg,AMNE12.jpg,AMSA08.jpg,AMSA17.jpg,MS,2,num_6,16,num_6,0.983138730051,,,2018_Jan_22_1117,60.0051579327,FEMA4ImagesEEG,001,202766,
AFNE01.JPG,AFNE01.JPG,AFNE01.JPG,AFNE01.JPG,AFNE01.JPG,AFNE01.JPG,,,,,,,,,,,,,2,2,22,4,,,,,,,,,,,AMSA08.jpg,AMSA07.jpg,AMNE10.jpg,AMNE08.jpg,AMSA08.jpg,MS,2,num_8,16,num_8,1.00015523787,,,2018_Jan_22_1117,60.0051579327,FEMA4ImagesEEG,001,202766,
AFNE01.JPG,AFNE01.JPG,AFNE01.JPG,AFNE01.JPG,AFNE01.JPG,AFNE01.JPG,,,,,,,,,,,,,2,3,23,7,,,,,,,,,,,AMSA11.jpg,AMNE01.jpg,AMSA09.jpg,AMNE04.jpg,AMNE01.jpg,MN,1,num_6,16,num_6,0.800098851882,,,2018_Jan_22_1117,60.0051579327,FEMA4ImagesEEG,001,202766,
AFNE01.JPG,AFNE01.JPG,AFNE01.JPG,AFNE01.JPG,AFNE01.JPG,AFNE01.JPG,,,,,,,,,,,,,2,4,24,6,,,,,,,,,,,AMSA20.jpg,AMSA07.jpg,AMNE11.jpg,AMNE04.jpg,AMSA07.jpg,MS,2,num_6,16,num_6,1.63326529382,,,2018_Jan_22_1117,60.0051579327,FEMA4ImagesEEG,001,202766,
AFNE01.JPG,AFNE01.JPG,AFNE01.JPG,AFNE01.JPG,AFNE01.JPG,AFNE01.JPG,,,,,,,,,,,,,2,5,25,8,,,,,,,,,,,AMNE18.jpg,AMSA19.jpg,AMSA01.jpg,AMNE02.jpg,AMNE18.jpg,MN,1,num_8,32,num_4,1.1167600446,,,2018_Jan_22_1117,60.0051579327,FEMA4ImagesEEG,001,202766,
AFNE01.JPG,AFNE01.JPG,AFNE01.JPG,AFNE01.JPG,AFNE01.JPG,AFNE01.JPG,,,,,,,,,,,,,2,6,26,2,,,,,,,,,,,AMNE05.jpg,AMSA17.jpg,AMNE01.jpg,AMSA11.jpg,AMSA17.jpg,MS,2,num_6,16,num_6,0.750154596388,,,2018_Jan_22_1117,60.0051579327,FEMA4ImagesEEG,001,202766,
AFNE01.JPG,AFNE01.JPG,AFNE01.JPG,AFNE01.JPG,AFNE01.JPG,AFNE01.JPG,,,,,,,,,,,,,2,7,27,0,,,,,,,,,,,AMNE17.jpg,AMSA19.jpg,AMSA08.jpg,AMNE02.jpg,AMSA08.jpg,MS,2,num_2,32,num_4,1.33343714598,,,2018_Jan_22_1117,60.0051579327,FEMA4ImagesEEG,001,202766,
AFNE01.JPG,AFNE01.JPG,AFNE01.JPG,AFNE01.JPG,AFNE01.JPG,AFNE01.JPG,,,,,,,,,,,,,2,8,28,3,,,,,,,,,,,AMNE05.jpg,AMSA02.jpg,AMNE18.jpg,AMSA13.jpg,AMSA02.jpg,MS,2,num_6,32,num_2,1.18343791576,,,2018_Jan_22_1117,60.0051579327,FEMA4ImagesEEG,001,202766,
AFNE01.JPG,AFNE01.JPG,AFNE01.JPG,AFNE01.JPG,AFNE01.JPG,AFNE01.JPG,,,,,,,,,,,,,2,9,29,5,,,,,,,,,,,AMNE15.jpg,AMSA13.jpg,AMSA12.jpg,AMNE12.jpg,AMSA13.jpg,MS,2,num_6,32,num_4,1.50013503129,,,2018_Jan_22_1117,60.0051579327,FEMA4ImagesEEG,001,202766,
AFNE01.JPG,AFNE01.JPG,AFNE01.JPG,AFNE01.JPG,AFNE01.JPG,AFNE01.JPG,,,,,,,,,,,,,3,0,30,6,,,,,,,,,,,AMNE12.jpg,AMNE16.jpg,AMSA04.jpg,AMSA20.jpg,AMSA04.jpg,MS,2,num_2,16,num_2,1.16661962489,,,2018_Jan_22_1117,60.0051579327,FEMA4ImagesEEG,001,202766,
AFNE01.JPG,AFNE01.JPG,AFNE01.JPG,AFNE01.JPG,AFNE01.JPG,AFNE01.JPG,,,,,,,,,,,,,3,1,31,1,,,,,,,,,,,AMNE12.jpg,AMSA11.jpg,AMSA12.jpg,AMNE16.jpg,AMNE16.jpg,MN,1,num_4,16,num_4,0.833487822808,,,2018_Jan_22_1117,60.0051579327,FEMA4ImagesEEG,001,202766,
AFNE01.JPG,AFNE01.JPG,AFNE01.JPG,AFNE01.JPG,AFNE01.JPG,AFNE01.JPG,,,,,,,,,,,,,3,2,32,2,,,,,,,,,,,AMSA19.jpg,AMNE18.jpg,AMNE02.jpg,AMSA02.jpg,AMSA19.jpg,MS,2,num_8,32,num_2,2.26667235445,,,2018_Jan_22_1117,60.0051579327,FEMA4ImagesEEG,001,202766,
AFNE01.JPG,AFNE01.JPG,AFNE01.JPG,AFNE01.JPG,AFNE01.JPG,AFNE01.JPG,,,,,,,,,,,,,3,3,33,0,,,,,,,,,,,AMNE09.jpg,AMNE13.jpg,AMSA01.jpg,AMSA07.jpg,AMSA07.jpg,MS,2,num_4,16,num_4,0.650181089462,,,2018_Jan_22_1117,60.0051579327,FEMA4ImagesEEG,001,202766,
AFNE01.JPG,AFNE01.JPG,AFNE01.JPG,AFNE01.JPG,AFNE01.JPG,AFNE01.JPG,,,,,,,,,,,,,3,4,34,9,,,,,,,,,,,AMNE15.jpg,AMNE11.jpg,AMSA12.jpg,AMSA20.jpg,AMNE11.jpg,MN,1,num_6,32,num_4,1.36680013702,,,2018_Jan_22_1117,60.0051579327,FEMA4ImagesEEG,001,202766,
AFNE01.JPG,AFNE01.JPG,AFNE01.JPG,AFNE01.JPG,AFNE01.JPG,AFNE01.JPG,,,,,,,,,,,,,3,5,35,8,,,,,,,,,,,AMSA13.jpg,AMSA07.jpg,AMNE12.jpg,AMNE03.jpg,AMSA13.jpg,MS,2,num_8,16,num_8,1.31680809136,,,2018_Jan_22_1117,60.0051579327,FEMA4ImagesEEG,001,202766,
AFNE01.JPG,AFNE01.JPG,AFNE01.JPG,AFNE01.JPG,AFNE01.JPG,AFNE01.JPG,,,,,,,,,,,,,3,6,36,5,,,,,,,,,,,AMSA09.jpg,AMNE06.jpg,AMNE19.jpg,AMSA12.jpg,AMSA09.jpg,MS,2,num_8,16,num_8,0.850099236769,,,2018_Jan_22_1117,60.0051579327,FEMA4ImagesEEG,001,202766,
AFNE01.JPG,AFNE01.JPG,AFNE01.JPG,AFNE01.JPG,AFNE01.JPG,AFNE01.JPG,,,,,,,,,,,,,3,7,37,4,,,,,,,,,,,AMNE05.jpg,AMSA05.jpg,AMNE02.jpg,AMSA17.jpg,AMNE02.jpg,MN,1,num_2,32,num_8,1.01677499105,,,2018_Jan_22_1117,60.0051579327,FEMA4ImagesEEG,001,202766,
AFNE01.JPG,AFNE01.JPG,AFNE01.JPG,AFNE01.JPG,AFNE01.JPG,AFNE01.JPG,,,,,,,,,,,,,3,8,38,7,,,,,,,,,,,AMNE14.jpg,AMSA04.jpg,AMNE19.jpg,AMSA11.jpg,AMSA11.jpg,MS,2,num_4,32,num_6,0.750143691249,,,2018_Jan_22_1117,60.0051579327,FEMA4ImagesEEG,001,202766,
AFNE01.JPG,AFNE01.JPG,AFNE01.JPG,AFNE01.JPG,AFNE01.JPG,AFNE01.JPG,,,,,,,,,,,,,3,9,39,3,,,,,,,,,,,AMSA06.jpg,AMNE20.jpg,AMNE03.jpg,AMSA03.jpg,AMNE03.jpg,MN,1,num_2,16,num_2,1.01680417834,,,2018_Jan_22_1117,60.0051579327,FEMA4ImagesEEG,001,202766,
AFNE01.JPG,AFNE01.JPG,AFNE01.JPG,AFNE01.JPG,AFNE01.JPG,AFNE01.JPG,,,,,,,,,,,,,4,0,40,6,,,,,,,,,,,AMSA04.jpg,AMNE06.jpg,AMSA11.jpg,AMNE15.jpg,AMNE06.jpg,MN,1,num_6,16,num_6,1.05010462519,,,2018_Jan_22_1117,60.0051579327,FEMA4ImagesEEG,001,202766,
AFNE01.JPG,AFNE01.JPG,AFNE01.JPG,AFNE01.JPG,AFNE01.JPG,AFNE01.JPG,,,,,,,,,,,,,4,1,41,5,,,,,,,,,,,AMSA18.jpg,AMSA11.jpg,AMNE07.jpg,AMNE05.jpg,AMSA18.jpg,MS,2,num_8,32,num_4,1.10013098997,,,2018_Jan_22_1117,60.0051579327,FEMA4ImagesEEG,001,202766,
AFNE01.JPG,AFNE01.JPG,AFNE01.JPG,AFNE01.JPG,AFNE01.JPG,AFNE01.JPG,,,,,,,,,,,,,4,2,42,4,,,,,,,,,,,AMNE05.jpg,AMNE13.jpg,AMSA09.jpg,AMSA20.jpg,AMSA09.jpg,MS,2,num_2,32,num_4,1.58337652624,,,2018_Jan_22_1117,60.0051579327,FEMA4ImagesEEG,001,202766,
AFNE01.JPG,AFNE01.JPG,AFNE01.JPG,AFNE01.JPG,AFNE01.JPG,AFNE01.JPG,,,,,,,,,,,,,4,3,43,0,,,,,,,,,,,AMSA08.jpg,AMSA13.jpg,AMNE18.jpg,AMNE01.jpg,AMSA08.jpg,MS,2,num_8,16,num_8,1.21702542437,,,2018_Jan_22_1117,60.0051579327,FEMA4ImagesEEG,001,202766,
AFNE01.JPG,AFNE01.JPG,AFNE01.JPG,AFNE01.JPG,AFNE01.JPG,AFNE01.JPG,,,,,,,,,,,,,4,4,44,1,,,,,,,,,,,AMNE02.jpg,AMSA15.jpg,AMSA12.jpg,AMNE06.jpg,AMNE02.jpg,MN,1,num_8,32,num_4,1.60003059854,,,2018_Jan_22_1117,60.0051579327,FEMA4ImagesEEG,001,202766,
AFNE01.JPG,AFNE01.JPG,AFNE01.JPG,AFNE01.JPG,AFNE01.JPG,AFNE01.JPG,,,,,,,,,,,,,4,5,45,7,,,,,,,,,,,AMNE08.jpg,AMNE19.jpg,AMSA02.jpg,AMSA18.jpg,AMNE08.jpg,MN,1,num_8,16,num_8,1.45006921556,,,2018_Jan_22_1117,60.0051579327,FEMA4ImagesEEG,001,202766,
AFNE01.JPG,AFNE01.JPG,AFNE01.JPG,AFNE01.JPG,AFNE01.JPG,AFNE01.JPG,,,,,,,,,,,,,4,6,46,3,,,,,,,,,,,AMSA10.jpg,AMSA15.jpg,AMNE14.jpg,AMNE08.jpg,AMNE14.jpg,MN,1,num_2,16,num_2,1.25010359882,,,2018_Jan_22_1117,60.0051579327,FEMA4ImagesEEG,001,202766,
AFNE01.JPG,AFNE01.JPG,AFNE01.JPG,AFNE01.JPG,AFNE01.JPG,AFNE01.JPG,,,,,,,,,,,,,4,7,47,2,,,,,,,,,,,AMNE20.jpg,AMSA08.jpg,AMNE12.jpg,AMSA12.jpg,AMSA08.jpg,MS,2,num_6,16,num_6,0.783508285981,,,2018_Jan_22_1117,60.0051579327,FEMA4ImagesEEG,001,202766,
AFNE01.JPG,AFNE01.JPG,AFNE01.JPG,AFNE01.JPG,AFNE01.JPG,AFNE01.JPG,,,,,,,,,,,,,4,8,48,8,,,,,,,,,,,AMSA08.jpg,AMSA03.jpg,AMNE03.jpg,AMNE15.jpg,AMSA08.jpg,MS,2,num_8,32,num_6,0.866650351722,,,2018_Jan_22_1117,60.0051579327,FEMA4ImagesEEG,001,202766,
AFNE01.JPG,AFNE01.JPG,AFNE01.JPG,AFNE01.JPG,AFNE01.JPG,AFNE01.JPG,,,,,,,,,,,,,4,9,49,9,,,,,,,,,,,AMSA20.jpg,AMSA16.jpg,AMNE18.jpg,AMNE01.jpg,AMNE01.jpg,MN,1,num_4,16,num_4,1.11676678012,,,2018_Jan_22_1117,60.0051579327,FEMA4ImagesEEG,001,202766,
AFNE01.JPG,AFNE01.JPG,AFNE01.JPG,AFNE01.JPG,AFNE01.JPG,AFNE01.JPG,,,,,,,,,,,,,5,0,50,9,,,,,,,,,,,AMSA06.jpg,AMSA17.jpg,AMNE11.jpg,AMNE13.jpg,AMNE13.jpg,MN,1,num_4,16,num_4,1.20010674207,,,2018_Jan_22_1117,60.0051579327,FEMA4ImagesEEG,001,202766,
AFNE01.JPG,AFNE01.JPG,AFNE01.JPG,AFNE01.JPG,AFNE01.JPG,AFNE01.JPG,,,,,,,,,,,,,5,1,51,4,,,,,,,,,,,AMNE20.jpg,AMSA20.jpg,AMSA19.jpg,AMNE02.jpg,AMNE02.jpg,MN,1,num_4,16,num_4,1.43343631206,,,2018_Jan_22_1117,60.0051579327,FEMA4ImagesEEG,001,202766,
AFNE01.JPG,AFNE01.JPG,AFNE01.JPG,AFNE01.JPG,AFNE01.JPG,AFNE01.JPG,,,,,,,,,,,,,5,2,52,3,,,,,,,,,,,AMNE13.jpg,AMSA17.jpg,AMSA04.jpg,AMNE08.jpg,AMSA17.jpg,MS,2,num_6,16,num_6,0.783459212854,,,2018_Jan_22_1117,60.0051579327,FEMA4ImagesEEG,001,202766,
AFNE01.JPG,AFNE01.JPG,AFNE01.JPG,AFNE01.JPG,AFNE01.JPG,AFNE01.JPG,,,,,,,,,,,,,5,3,53,7,,,,,,,,,,,AMNE14.jpg,AMSA15.jpg,AMNE15.jpg,AMSA16.jpg,AMNE14.jpg,MN,1,num_8,16,num_8,0.800126756209,,,2018_Jan_22_1117,60.0051579327,FEMA4ImagesEEG,001,202766,
AFNE01.JPG,AFNE01.JPG,AFNE01.JPG,AFNE01.JPG,AFNE01.JPG,AFNE01.JPG,,,,,,,,,,,,,5,4,54,0,,,,,,,,,,,AMSA18.jpg,AMNE19.jpg,AMNE09.jpg,AMSA15.jpg,AMSA15.jpg,MS,2,num_4,32,num_2,1.53344445884,,,2018_Jan_22_1117,60.0051579327,FEMA4ImagesEEG,001,202766,
AFNE01.JPG,AFNE01.JPG,AFNE01.JPG,AFNE01.JPG,AFNE01.JPG,AFNE01.JPG,,,,,,,,,,,,,5,5,55,2,,,,,,,,,,,AMNE18.jpg,AMNE13.jpg,AMSA15.jpg,AMSA03.jpg,AMSA15.jpg,MS,2,num_2,16,num_2,0.750154275648,,,2018_Jan_22_1117,60.0051579327,FEMA4ImagesEEG,001,202766,
AFNE01.JPG,AFNE01.JPG,AFNE01.JPG,AFNE01.JPG,AFNE01.JPG,AFNE01.JPG,,,,,,,,,,,,,5,6,56,5,,,,,,,,,,,AMNE20.jpg,AMSA03.jpg,AMNE09.jpg,AMSA08.jpg,AMSA08.jpg,MS,2,num_4,16,num_4,1.08344644743,,,2018_Jan_22_1117,60.0051579327,FEMA4ImagesEEG,001,202766,
AFNE01.JPG,AFNE01.JPG,AFNE01.JPG,AFNE01.JPG,AFNE01.JPG,AFNE01.JPG,,,,,,,,,,,,,5,7,57,1,,,,,,,,,,,AMNE20.jpg,AMSA05.jpg,AMNE11.jpg,AMSA19.jpg,AMNE11.jpg,MN,1,num_2,16,num_2,1.85005240882,,,2018_Jan_22_1117,60.0051579327,FEMA4ImagesEEG,001,202766,
AFNE01.JPG,AFNE01.JPG,AFNE01.JPG,AFNE01.JPG,AFNE01.JPG,AFNE01.JPG,,,,,,,,,,,,,5,8,58,6,,,,,,,,,,,AMSA16.jpg,AMNE08.jpg,AMNE05.jpg,AMSA07.jpg,AMNE08.jpg,MN,1,num_6,16,num_6,1.13342438056,,,2018_Jan_22_1117,60.0051579327,FEMA4ImagesEEG,001,202766,
AFNE01.JPG,AFNE01.JPG,AFNE01.JPG,AFNE01.JPG,AFNE01.JPG,AFNE01.JPG,,,,,,,,,,,,,5,9,59,8,,,,,,,,,,,AMNE08.jpg,AMSA17.jpg,AMSA11.jpg,AMNE15.jpg,AMNE15.jpg,MN,1,num_4,16,num_4,1.61680045776,,,2018_Jan_22_1117,60.0051579327,FEMA4ImagesEEG,001,202766,
,,,,,,,,,,,,,,,,,,,,,,,,,,,,,,,,,,,,,,,,,,,space,15.5158955236,2018_Jan_22_1117,60.0051579327,FEMA4ImagesEEG,001,202766,
AFNE01.JPG,AFNE01.JPG,AFNE01.JPG,AFNE01.JPG,AFNE01.JPG,AFNE01.JPG,,,,,,,,,,,,,,,,,0,0,0,2,,,,,,,AFSA04.jpg,AFNE08.jpg,AFSA19.jpg,AFNE10.jpg,AFNE08.jpg,FN,3,num_6,16,num_6,1.18345395273,,,2018_Jan_22_1117,60.0051579327,FEMA4ImagesEEG,001,202766,
AFNE01.JPG,AFNE01.JPG,AFNE01.JPG,AFNE01.JPG,AFNE01.JPG,AFNE01.JPG,,,,,,,,,,,,,,,,,0,1,1,0,,,,,,,AFSA05.jpg,AFNE06.jpg,AFSA02.jpg,AFNE07.jpg,AFSA05.jpg,FS,4,num_8,16,num_8,1.1001165567,,,2018_Jan_22_1117,60.0051579327,FEMA4ImagesEEG,001,202766,
AFNE01.JPG,AFNE01.JPG,AFNE01.JPG,AFNE01.JPG,AFNE01.JPG,AFNE01.JPG,,,,,,,,,,,,,,,,,0,2,2,3,,,,,,,AFSA19.jpg,AFNE12.jpg,AFNE02.jpg,AFSA18.jpg,AFNE12.jpg,FN,3,num_6,16,num_6,0.750195330291,,,2018_Jan_22_1117,60.0051579327,FEMA4ImagesEEG,001,202766,
AFNE01.JPG,AFNE01.JPG,AFNE01.JPG,AFNE01.JPG,AFNE01.JPG,AFNE01.JPG,,,,,,,,,,,,,,,,,0,3,3,1,,,,,,,AFSA08.jpg,AFNE13.jpg,AFSA10.jpg,AFNE05.jpg,AFNE13.jpg,FN,3,num_6,32,num_4,0.983506297398,,,2018_Jan_22_1117,60.0051579327,FEMA4ImagesEEG,001,202766,
AFNE01.JPG,AFNE01.JPG,AFNE01.JPG,AFNE01.JPG,AFNE01.JPG,AFNE01.JPG,,,,,,,,,,,,,,,,,0,4,4,7,,,,,,,AFSA06.jpg,AFNE17.jpg,AFNE10.jpg,AFSA17.jpg,AFNE17.jpg,FN,3,num_6,16,num_6,1.00014144607,,,2018_Jan_22_1117,60.0051579327,FEMA4ImagesEEG,001,202766,
AFNE01.JPG,AFNE01.JPG,AFNE01.JPG,AFNE01.JPG,AFNE01.JPG,AFNE01.JPG,,,,,,,,,,,,,,,,,0,5,5,5,,,,,,,AFSA02.jpg,AFNE08.jpg,AFNE10.jpg,AFSA01.jpg,AFSA01.jpg,FS,4,num_4,16,num_4,1.26616237881,,,2018_Jan_22_1117,60.0051579327,FEMA4ImagesEEG,001,202766,
AFNE01.JPG,AFNE01.JPG,AFNE01.JPG,AFNE01.JPG,AFNE01.JPG,AFNE01.JPG,,,,,,,,,,,,,,,,,0,6,6,8,,,,,,,AFNE16.jpg,AFSA20.jpg,AFNE14.jpg,AFSA12.jpg,AFSA20.jpg,FS,4,num_6,16,num_6,0.783471080212,,,2018_Jan_22_1117,60.0051579327,FEMA4ImagesEEG,001,202766,
AFNE01.JPG,AFNE01.JPG,AFNE01.JPG,AFNE01.JPG,AFNE01.JPG,AFNE01.JPG,,,,,,,,,,,,,,,,,0,7,7,9,,,,,,,AFNE10.jpg,AFNE19.jpg,AFSA13.jpg,AFSA02.jpg,AFNE19.jpg,FN,3,num_6,16,num_6,1.36661507039,,,2018_Jan_22_1117,60.0051579327,FEMA4ImagesEEG,001,202766,
AFNE01.JPG,AFNE01.JPG,AFNE01.JPG,AFNE01.JPG,AFNE01.JPG,AFNE01.JPG,,,,,,,,,,,,,,,,,0,8,8,4,,,,,,,AFNE03.jpg,AFNE18.jpg,AFSA03.jpg,AFSA06.jpg,AFSA06.jpg,FS,4,num_4,32,num_2,1.15010154609,,,2018_Jan_22_1117,60.0051579327,FEMA4ImagesEEG,001,202766,
AFNE01.JPG,AFNE01.JPG,AFNE01.JPG,AFNE01.JPG,AFNE01.JPG,AFNE01.JPG,,,,,,,,,,,,,,,,,0,9,9,6,,,,,,,AFNE12.jpg,AFSA06.jpg,AFSA11.jpg,AFNE17.jpg,AFNE17.jpg,FN,3,num_4,16,num_4,0.966778134298,,,2018_Jan_22_1117,60.0051579327,FEMA4ImagesEEG,001,202766,
AFNE01.JPG,AFNE01.JPG,AFNE01.JPG,AFNE01.JPG,AFNE01.JPG,AFNE01.JPG,,,,,,,,,,,,,,,,,1,0,10,8,,,,,,,AFNE02.jpg,AFSA20.jpg,AFSA06.jpg,AFNE14.jpg,AFSA06.jpg,FS,4,num_2,32,num_4,1.65004766187,,,2018_Jan_22_1117,60.0051579327,FEMA4ImagesEEG,001,202766,
AFNE01.JPG,AFNE01.JPG,AFNE01.JPG,AFNE01.JPG,AFNE01.JPG,AFNE01.JPG,,,,,,,,,,,,,,,,,1,1,11,6,,,,,,,AFSA18.jpg,AFSA15.jpg,AFNE07.jpg,AFNE06.jpg,AFSA15.jpg,FS,4,num_6,16,num_6,0.733488656731,,,2018_Jan_22_1117,60.0051579327,FEMA4ImagesEEG,001,202766,
AFNE01.JPG,AFNE01.JPG,AFNE01.JPG,AFNE01.JPG,AFNE01.JPG,AFNE01.JPG,,,,,,,,,,,,,,,,,1,2,12,9,,,,,,,AFSA03.jpg,AFSA12.jpg,AFNE06.jpg,AFNE11.jpg,AFNE11.jpg,FN,3,num_4,16,num_4,0.883464152241,,,2018_Jan_22_1117,60.0051579327,FEMA4ImagesEEG,001,202766,
AFNE01.JPG,AFNE01.JPG,AFNE01.JPG,AFNE01.JPG,AFNE01.JPG,AFNE01.JPG,,,,,,,,,,,,,,,,,1,3,13,1,,,,,,,AFSA12.jpg,AFNE20.jpg,AFNE16.jpg,AFSA17.jpg,AFNE20.jpg,FN,3,num_6,16,num_6,1.35002290079,,,2018_Jan_22_1117,60.0051579327,FEMA4ImagesEEG,001,202766,
AFNE01.JPG,AFNE01.JPG,AFNE01.JPG,AFNE01.JPG,AFNE01.JPG,AFNE01.JPG,,,,,,,,,,,,,,,,,1,4,14,3,,,,,,,AFSA04.jpg,AFSA10.jpg,AFNE04.jpg,AFNE16.jpg,AFSA04.jpg,FS,4,num_8,32,num_6,0.883447794532,,,2018_Jan_22_1117,60.0051579327,FEMA4ImagesEEG,001,202766,
AFNE01.JPG,AFNE01.JPG,AFNE01.JPG,AFNE01.JPG,AFNE01.JPG,AFNE01.JPG,,,,,,,,,,,,,,,,,1,5,15,5,,,,,,,AFSA11.jpg,AFSA02.jpg,AFNE15.jpg,AFNE05.jpg,AFNE15.jpg,FN,3,num_2,16,num_2,0.833474031014,,,2018_Jan_22_1117,60.0051579327,FEMA4ImagesEEG,001,202766,
AFNE01.JPG,AFNE01.JPG,AFNE01.JPG,AFNE01.JPG,AFNE01.JPG,AFNE01.JPG,,,,,,,,,,,,,,,,,1,6,16,4,,,,,,,AFSA06.jpg,AFNE19.jpg,AFSA14.jpg,AFNE01.jpg,AFSA06.jpg,FS,4,num_8,32,num_2,1.2331570122,,,2018_Jan_22_1117,60.0051579327,FEMA4ImagesEEG,001,202766,
AFNE01.JPG,AFNE01.JPG,AFNE01.JPG,AFNE01.JPG,AFNE01.JPG,AFNE01.JPG,,,,,,,,,,,,,,,,,1,7,17,0,,,,,,,AFNE16.jpg,AFSA12.jpg,AFSA03.jpg,AFNE13.jpg,AFSA12.jpg,FS,4,num_6,16,num_6,0.983453054658,,,2018_Jan_22_1117,60.0051579327,FEMA4ImagesEEG,001,202766,
AFNE01.JPG,AFNE01.JPG,AFNE01.JPG,AFNE01.JPG,AFNE01.JPG,AFNE01.JPG,,,,,,,,,,,,,,,,,1,8,18,2,,,,,,,AFNE07.jpg,AFSA08.jpg,AFSA10.jpg,AFNE06.jpg,AFSA08.jpg,FS,4,num_6,16,num_6,0.966660743679,,,2018_Jan_22_1117,60.0051579327,FEMA4ImagesEEG,001,202766,
AFNE01.JPG,AFNE01.JPG,AFNE01.JPG,AFNE01.JPG,AFNE01.JPG,AFNE01.JPG,,,,,,,,,,,,,,,,,1,9,19,7,,,,,,,AFNE20.jpg,AFSA06.jpg,AFNE05.jpg,AFSA18.jpg,AFSA06.jpg,FS,4,num_6,32,num_8,1.48368559072,,,2018_Jan_22_1117,60.0051579327,FEMA4ImagesEEG,001,202766,
AFNE01.JPG,AFNE01.JPG,AFNE01.JPG,AFNE01.JPG,AFNE01.JPG,AFNE01.JPG,,,,,,,,,,,,,,,,,2,0,20,5,,,,,,,AFNE08.jpg,AFNE20.jpg,AFSA10.jpg,AFSA08.jpg,AFSA08.jpg,FS,4,num_4,16,num_4,1.53339314054,,,2018_Jan_22_1117,60.0051579327,FEMA4ImagesEEG,001,202766,
AFNE01.JPG,AFNE01.JPG,AFNE01.JPG,AFNE01.JPG,AFNE01.JPG,AFNE01.JPG,,,,,,,,,,,,,,,,,2,1,21,0,,,,,,,AFSA12.jpg,AFSA08.jpg,AFNE10.jpg,AFNE19.jpg,AFSA08.jpg,FS,4,num_6,16,num_6,2.11665291764,,,2018_Jan_22_1117,60.0051579327,FEMA4ImagesEEG,001,202766,
AFNE01.JPG,AFNE01.JPG,AFNE01.JPG,AFNE01.JPG,AFNE01.JPG,AFNE01.JPG,,,,,,,,,,,,,,,,,2,2,22,3,,,,,,,AFNE08.jpg,AFSA07.jpg,AFNE11.jpg,AFSA03.jpg,AFNE08.jpg,FN,3,num_8,32,num_6,0.883486283259,,,2018_Jan_22_1117,60.0051579327,FEMA4ImagesEEG,001,202766,
AFNE01.JPG,AFNE01.JPG,AFNE01.JPG,AFNE01.JPG,AFNE01.JPG,AFNE01.JPG,,,,,,,,,,,,,,,,,2,3,23,9,,,,,,,AFSA01.jpg,AFNE10.jpg,AFNE07.jpg,AFSA04.jpg,AFSA01.jpg,FS,4,num_8,16,num_8,1.0667327176,,,2018_Jan_22_1117,60.0051579327,FEMA4ImagesEEG,001,202766,
AFNE01.JPG,AFNE01.JPG,AFNE01.JPG,AFNE01.JPG,AFNE01.JPG,AFNE01.JPG,,,,,,,,,,,,,,,,,2,4,24,8,,,,,,,AFNE05.jpg,AFNE20.jpg,AFSA03.jpg,AFSA14.jpg,AFSA03.jpg,FS,4,num_2,32,num_4,0.983445998391,,,2018_Jan_22_1117,60.0051579327,FEMA4ImagesEEG,001,202766,
AFNE01.JPG,AFNE01.JPG,AFNE01.JPG,AFNE01.JPG,AFNE01.JPG,AFNE01.JPG,,,,,,,,,,,,,,,,,2,5,25,2,,,,,,,AFSA07.jpg,AFSA10.jpg,AFNE05.jpg,AFNE06.jpg,AFNE05.jpg,FN,3,num_2,32,num_8,0.916786088635,,,2018_Jan_22_1117,60.0051579327,FEMA4ImagesEEG,001,202766,
AFNE01.JPG,AFNE01.JPG,AFNE01.JPG,AFNE01.JPG,AFNE01.JPG,AFNE01.JPG,,,,,,,,,,,,,,,,,2,6,26,6,,,,,,,AFSA10.jpg,AFNE07.jpg,AFNE15.jpg,AFSA18.jpg,AFNE15.jpg,FN,3,num_2,16,num_2,0.750166143006,,,2018_Jan_22_1117,60.0051579327,FEMA4ImagesEEG,001,202766,
AFNE01.JPG,AFNE01.JPG,AFNE01.JPG,AFNE01.JPG,AFNE01.JPG,AFNE01.JPG,,,,,,,,,,,,,,,,,2,7,27,7,,,,,,,AFNE20.jpg,AFNE08.jpg,AFSA02.jpg,AFSA17.jpg,AFSA17.jpg,FS,4,num_4,32,num_2,1.86682707913,,,2018_Jan_22_1117,60.0051579327,FEMA4ImagesEEG,001,202766,
AFNE01.JPG,AFNE01.JPG,AFNE01.JPG,AFNE01.JPG,AFNE01.JPG,AFNE01.JPG,,,,,,,,,,,,,,,,,2,8,28,1,,,,,,,AFSA06.jpg,AFNE09.jpg,AFSA01.jpg,AFNE03.jpg,AFNE09.jpg,FN,3,num_6,16,num_6,0.866744969844,,,2018_Jan_22_1117,60.0051579327,FEMA4ImagesEEG,001,202766,
AFNE01.JPG,AFNE01.JPG,AFNE01.JPG,AFNE01.JPG,AFNE01.JPG,AFNE01.JPG,,,,,,,,,,,,,,,,,2,9,29,4,,,,,,,AFNE12.jpg,AFSA05.jpg,AFNE10.jpg,AFSA20.jpg,AFNE10.jpg,FN,3,num_2,32,num_8,1.05041189353,,,2018_Jan_22_1117,60.0051579327,FEMA4ImagesEEG,001,202766,
AFNE01.JPG,AFNE01.JPG,AFNE01.JPG,AFNE01.JPG,AFNE01.JPG,AFNE01.JPG,,,,,,,,,,,,,,,,,3,0,30,1,,,,,,,AFNE20.jpg,AFSA07.jpg,AFSA11.jpg,AFNE19.jpg,AFNE20.jpg,FN,3,num_8,16,num_8,0.700180832871,,,2018_Jan_22_1117,60.0051579327,FEMA4ImagesEEG,001,202766,
AFNE01.JPG,AFNE01.JPG,AFNE01.JPG,AFNE01.JPG,AFNE01.JPG,AFNE01.JPG,,,,,,,,,,,,,,,,,3,1,31,5,,,,,,,AFSA05.jpg,AFNE10.jpg,AFSA11.jpg,AFNE13.jpg,AFSA11.jpg,FS,4,num_2,16,num_2,0.750178651842,,,2018_Jan_22_1117,60.0051579327,FEMA4ImagesEEG,001,202766,
AFNE01.JPG,AFNE01.JPG,AFNE01.JPG,AFNE01.JPG,AFNE01.JPG,AFNE01.JPG,,,,,,,,,,,,,,,,,3,2,32,9,,,,,,,AFNE07.jpg,AFNE04.jpg,AFSA01.jpg,AFSA13.jpg,AFNE04.jpg,FN,3,num_6,16,num_6,0.966749267752,,,2018_Jan_22_1117,60.0051579327,FEMA4ImagesEEG,001,202766,
AFNE01.JPG,AFNE01.JPG,AFNE01.JPG,AFNE01.JPG,AFNE01.JPG,AFNE01.JPG,,,,,,,,,,,,,,,,,3,3,33,3,,,,,,,AFSA15.jpg,AFNE13.jpg,AFSA06.jpg,AFNE10.jpg,AFNE13.jpg,FN,3,num_6,16,num_6,0.766743558591,,,2018_Jan_22_1117,60.0051579327,FEMA4ImagesEEG,001,202766,
AFNE01.JPG,AFNE01.JPG,AFNE01.JPG,AFNE01.JPG,AFNE01.JPG,AFNE01.JPG,,,,,,,,,,,,,,,,,3,4,34,0,,,,,,,AFNE04.jpg,AFSA20.jpg,AFSA15.jpg,AFNE11.jpg,AFNE04.jpg,FN,3,num_8,16,num_8,0.983487694512,,,2018_Jan_22_1117,60.0051579327,FEMA4ImagesEEG,001,202766,
AFNE01.JPG,AFNE01.JPG,AFNE01.JPG,AFNE01.JPG,AFNE01.JPG,AFNE01.JPG,,,,,,,,,,,,,,,,,3,5,35,6,,,,,,,AFSA01.jpg,AFNE16.jpg,AFNE02.jpg,AFSA15.jpg,AFSA01.jpg,FS,4,num_8,16,num_8,0.950131439004,,,2018_Jan_22_1117,60.0051579327,FEMA4ImagesEEG,001,202766,
AFNE01.JPG,AFNE01.JPG,AFNE01.JPG,AFNE01.JPG,AFNE01.JPG,AFNE01.JPG,,,,,,,,,,,,,,,,,3,6,36,7,,,,,,,AFSA03.jpg,AFNE20.jpg,AFSA05.jpg,AFNE15.jpg,AFSA05.jpg,FS,4,num_2,16,num_2,0.766890136494,,,2018_Jan_22_1117,60.0051579327,FEMA4ImagesEEG,001,202766,
AFNE01.JPG,AFNE01.JPG,AFNE01.JPG,AFNE01.JPG,AFNE01.JPG,AFNE01.JPG,,,,,,,,,,,,,,,,,3,7,37,2,,,,,,,AFSA03.jpg,AFNE03.jpg,AFNE16.jpg,AFSA02.jpg,AFNE16.jpg,FN,3,num_2,32,num_4,1.26672784236,,,2018_Jan_22_1117,60.0051579327,FEMA4ImagesEEG,001,202766,
AFNE01.JPG,AFNE01.JPG,AFNE01.JPG,AFNE01.JPG,AFNE01.JPG,AFNE01.JPG,,,,,,,,,,,,,,,,,3,8,38,4,,,,,,,AFNE05.jpg,AFNE06.jpg,AFSA09.jpg,AFSA01.jpg,AFNE06.jpg,FN,3,num_6,32,num_4,1.56678082851,,,2018_Jan_22_1117,60.0051579327,FEMA4ImagesEEG,001,202766,
AFNE01.JPG,AFNE01.JPG,AFNE01.JPG,AFNE01.JPG,AFNE01.JPG,AFNE01.JPG,,,,,,,,,,,,,,,,,3,9,39,8,,,,,,,AFSA02.jpg,AFNE01.jpg,AFNE14.jpg,AFSA08.jpg,AFNE14.jpg,FN,3,num_2,32,num_6,1.6334654352,,,2018_Jan_22_1117,60.0051579327,FEMA4ImagesEEG,001,202766,
AFNE01.JPG,AFNE01.JPG,AFNE01.JPG,AFNE01.JPG,AFNE01.JPG,AFNE01.JPG,,,,,,,,,,,,,,,,,4,0,40,5,,,,,,,AFSA03.jpg,AFSA17.jpg,AFNE17.jpg,AFNE08.jpg,AFNE08.jpg,FN,3,num_4,32,num_2,1.71672072195,,,2018_Jan_22_1117,60.0051579327,FEMA4ImagesEEG,001,202766,
AFNE01.JPG,AFNE01.JPG,AFNE01.JPG,AFNE01.JPG,AFNE01.JPG,AFNE01.JPG,,,,,,,,,,,,,,,,,4,1,41,7,,,,,,,AFNE05.jpg,AFNE13.jpg,AFSA18.jpg,AFSA16.jpg,AFSA16.jpg,FS,4,num_4,32,num_8,1.23345048874,,,2018_Jan_22_1117,60.0051579327,FEMA4ImagesEEG,001,202766,
AFNE01.JPG,AFNE01.JPG,AFNE01.JPG,AFNE01.JPG,AFNE01.JPG,AFNE01.JPG,,,,,,,,,,,,,,,,,4,2,42,6,,,,,,,AFNE07.jpg,AFSA06.jpg,AFSA15.jpg,AFNE06.jpg,AFNE07.jpg,FN,3,num_8,16,num_8,0.900169542843,,,2018_Jan_22_1117,60.0051579327,FEMA4ImagesEEG,001,202766,
AFNE01.JPG,AFNE01.JPG,AFNE01.JPG,AFNE01.JPG,AFNE01.JPG,AFNE01.JPG,,,,,,,,,,,,,,,,,4,3,43,9,,,,,,,AFNE08.jpg,AFSA05.jpg,AFNE06.jpg,AFSA09.jpg,AFSA05.jpg,FS,4,num_6,16,num_6,0.733463639058,,,2018_Jan_22_1117,60.0051579327,FEMA4ImagesEEG,001,202766,
AFNE01.JPG,AFNE01.JPG,AFNE01.JPG,AFNE01.JPG,AFNE01.JPG,AFNE01.JPG,,,,,,,,,,,,,,,,,4,4,44,0,,,,,,,AFSA20.jpg,AFNE11.jpg,AFSA08.jpg,AFNE14.jpg,AFNE14.jpg,FN,3,num_4,32,num_2,0.867042936741,,,2018_Jan_22_1117,60.0051579327,FEMA4ImagesEEG,001,202766,
AFNE01.JPG,AFNE01.JPG,AFNE01.JPG,AFNE01.JPG,AFNE01.JPG,AFNE01.JPG,,,,,,,,,,,,,,,,,4,5,45,8,,,,,,,AFNE07.jpg,AFNE06.jpg,AFSA12.jpg,AFSA07.jpg,AFNE06.jpg,FN,3,num_6,16,num_6,0.716762418067,,,2018_Jan_22_1117,60.0051579327,FEMA4ImagesEEG,001,202766,
AFNE01.JPG,AFNE01.JPG,AFNE01.JPG,AFNE01.JPG,AFNE01.JPG,AFNE01.JPG,,,,,,,,,,,,,,,,,4,6,46,2,,,,,,,AFNE07.jpg,AFNE06.jpg,AFSA18.jpg,AFSA12.jpg,AFNE07.jpg,FN,3,num_8,16,num_8,0.800149528705,,,2018_Jan_22_1117,60.0051579327,FEMA4ImagesEEG,001,202766,
AFNE01.JPG,AFNE01.JPG,AFNE01.JPG,AFNE01.JPG,AFNE01.JPG,AFNE01.JPG,,,,,,,,,,,,,,,,,4,7,47,3,,,,,,,AFSA14.jpg,AFNE05.jpg,AFSA15.jpg,AFNE11.jpg,AFNE05.jpg,FN,3,num_6,16,num_6,1.03349577715,,,2018_Jan_22_1117,60.0051579327,FEMA4ImagesEEG,001,202766,
AFNE01.JPG,AFNE01.JPG,AFNE01.JPG,AFNE01.JPG,AFNE01.JPG,AFNE01.JPG,,,,,,,,,,,,,,,,,4,8,48,1,,,,,,,AFSA01.jpg,AFSA17.jpg,AFNE08.jpg,AFNE06.jpg,AFNE08.jpg,FN,3,num_2,32,num_4,0.750162614873,,,2018_Jan_22_1117,60.0051579327,FEMA4ImagesEEG,001,202766,
AFNE01.JPG,AFNE01.JPG,AFNE01.JPG,AFNE01.JPG,AFNE01.JPG,AFNE01.JPG,,,,,,,,,,,,,,,,,4,9,49,4,,,,,,,AFSA19.jpg,AFSA18.jpg,AFNE20.jpg,AFNE08.jpg,AFSA18.jpg,FS,4,num_6,16,num_6,1.75009910847,,,2018_Jan_22_1117,60.0051579327,FEMA4ImagesEEG,001,202766,
AFNE01.JPG,AFNE01.JPG,AFNE01.JPG,AFNE01.JPG,AFNE01.JPG,AFNE01.JPG,,,,,,,,,,,,,,,,,5,0,50,4,,,,,,,AFSA10.jpg,AFSA09.jpg,AFNE05.jpg,AFNE09.jpg,AFSA10.jpg,FS,4,num_8,32,num_4,1.01678782063,,,2018_Jan_22_1117,60.0051579327,FEMA4ImagesEEG,001,202766,
AFNE01.JPG,AFNE01.JPG,AFNE01.JPG,AFNE01.JPG,AFNE01.JPG,AFNE01.JPG,,,,,,,,,,,,,,,,,5,1,51,0,,,,,,,AFNE08.jpg,AFNE04.jpg,AFSA11.jpg,AFSA05.jpg,AFNE08.jpg,FN,3,num_8,16,num_8,1.0999757521,,,2018_Jan_22_1117,60.0051579327,FEMA4ImagesEEG,001,202766,
AFNE01.JPG,AFNE01.JPG,AFNE01.JPG,AFNE01.JPG,AFNE01.JPG,AFNE01.JPG,,,,,,,,,,,,,,,,,5,2,52,8,,,,,,,AFSA08.jpg,AFSA10.jpg,AFNE07.jpg,AFNE05.jpg,AFSA08.jpg,FS,4,num_8,32,num_6,0.900133940771,,,2018_Jan_22_1117,60.0051579327,FEMA4ImagesEEG,001,202766,
AFNE01.JPG,AFNE01.JPG,AFNE01.JPG,AFNE01.JPG,AFNE01.JPG,AFNE01.JPG,,,,,,,,,,,,,,,,,5,3,53,1,,,,,,,AFSA08.jpg,AFSA13.jpg,AFNE10.jpg,AFNE06.jpg,AFSA13.jpg,FS,4,num_6,16,num_6,0.950096799149,,,2018_Jan_22_1117,60.0051579327,FEMA4ImagesEEG,001,202766,
AFNE01.JPG,AFNE01.JPG,AFNE01.JPG,AFNE01.JPG,AFNE01.JPG,AFNE01.JPG,,,,,,,,,,,,,,,,,5,4,54,7,,,,,,,AFSA05.jpg,AFNE13.jpg,AFSA17.jpg,AFNE11.jpg,AFSA05.jpg,FS,4,num_8,32,num_4,1.36672957435,,,2018_Jan_22_1117,60.0051579327,FEMA4ImagesEEG,001,202766,
AFNE01.JPG,AFNE01.JPG,AFNE01.JPG,AFNE01.JPG,AFNE01.JPG,AFNE01.JPG,,,,,,,,,,,,,,,,,5,5,55,6,,,,,,,AFNE14.jpg,AFSA01.jpg,AFSA18.jpg,AFNE13.jpg,AFSA01.jpg,FS,4,num_6,16,num_6,1.28330589942,,,2018_Jan_22_1117,60.0051579327,FEMA4ImagesEEG,001,202766,
AFNE01.JPG,AFNE01.JPG,AFNE01.JPG,AFNE01.JPG,AFNE01.JPG,AFNE01.JPG,,,,,,,,,,,,,,,,,5,6,56,3,,,,,,,AFNE08.jpg,AFNE10.jpg,AFSA04.jpg,AFSA18.jpg,AFSA04.jpg,FS,4,num_2,32,num_6,0.950144910059,,,2018_Jan_22_1117,60.0051579327,FEMA4ImagesEEG,001,202766,
AFNE01.JPG,AFNE01.JPG,AFNE01.JPG,AFNE01.JPG,AFNE01.JPG,AFNE01.JPG,,,,,,,,,,,,,,,,,5,7,57,2,,,,,,,AFNE02.jpg,AFSA08.jpg,AFNE03.jpg,AFSA20.jpg,AFSA20.jpg,FS,4,num_4,16,num_4,0.833478521366,,,2018_Jan_22_1117,60.0051579327,FEMA4ImagesEEG,001,202766,
AFNE01.JPG,AFNE01.JPG,AFNE01.JPG,AFNE01.JPG,AFNE01.JPG,AFNE01.JPG,,,,,,,,,,,,,,,,,5,8,58,5,,,,,,,AFSA06.jpg,AFNE15.jpg,AFSA02.jpg,AFNE19.jpg,AFNE19.jpg,FN,3,num_4,32,num_8,1.40009801796,,,2018_Jan_22_1117,60.0051579327,FEMA4ImagesEEG,001,202766,
AFNE01.JPG,AFNE01.JPG,AFNE01.JPG,AFNE01.JPG,AFNE01.JPG,AFNE01.JPG,,,,,,,,,,,,,,,,,5,9,59,9,,,,,,,AFSA07.jpg,AFSA19.jpg,AFNE04.jpg,AFNE02.jpg,AFNE04.jpg,FN,3,num_2,16,num_2,1.73309703393,,,2018_Jan_22_1117,60.0051579327,FEMA4ImagesEEG,001,202766,
,,,,,,,,,,,,,,,,,,,,,,,,,,,,,,,,,,,,,,,,,,,space,11.5659712823,2018_Jan_22_1117,60.0051579327,FEMA4ImagesEEG,001,202766,
AFNE01.JPG,AFNE01.JPG,AFNE01.JPG,AFNE01.JPG,AFNE01.JPG,AFNE01.JPG,,,,,,,,,,,,,,,,,,,,,0,0,0,3,,,AMNE01.jpg,AMSA09.jpg,AMSA14.jpg,AMNE14.jpg,AMNE01.jpg,MN,1,num_8,16,num_8,0.883471208508,,,2018_Jan_22_1117,60.0051579327,FEMA4ImagesEEG,001,202766,
AFNE01.JPG,AFNE01.JPG,AFNE01.JPG,AFNE01.JPG,AFNE01.JPG,AFNE01.JPG,,,,,,,,,,,,,,,,,,,,,0,1,1,5,,,AMSA04.jpg,AMSA01.jpg,AMNE19.jpg,AMNE08.jpg,AMSA01.jpg,MS,2,num_6,16,num_6,1.2334289992,,,2018_Jan_22_1117,60.0051579327,FEMA4ImagesEEG,001,202766,
AFNE01.JPG,AFNE01.JPG,AFNE01.JPG,AFNE01.JPG,AFNE01.JPG,AFNE01.JPG,,,,,,,,,,,,,,,,,,,,,0,2,2,4,,,AMNE02.jpg,AMNE03.jpg,AMSA18.jpg,AMSA08.jpg,AMNE03.jpg,MN,1,num_6,16,num_6,1.55011456811,,,2018_Jan_22_1117,60.0051579327,FEMA4ImagesEEG,001,202766,
AFNE01.JPG,AFNE01.JPG,AFNE01.JPG,AFNE01.JPG,AFNE01.JPG,AFNE01.JPG,,,,,,,,,,,,,,,,,,,,,0,3,3,2,,,AMSA08.jpg,AMNE18.jpg,AMNE15.jpg,AMSA18.jpg,AMNE18.jpg,MN,1,num_6,16,num_6,1.0334351574,,,2018_Jan_22_1117,60.0051579327,FEMA4ImagesEEG,001,202766,
AFNE01.JPG,AFNE01.JPG,AFNE01.JPG,AFNE01.JPG,AFNE01.JPG,AFNE01.JPG,,,,,,,,,,,,,,,,,,,,,0,4,4,8,,,AMSA08.jpg,AMNE13.jpg,AMSA19.jpg,AMNE19.jpg,AMNE13.jpg,MN,1,num_6,32,num_2,1.21676690842,,,2018_Jan_22_1117,60.0051579327,FEMA4ImagesEEG,001,202766,
AFNE01.JPG,AFNE01.JPG,AFNE01.JPG,AFNE01.JPG,AFNE01.JPG,AFNE01.JPG,,,,,,,,,,,,,,,,,,,,,0,5,5,6,,,AMNE17.jpg,AMNE15.jpg,AMSA11.jpg,AMSA18.jpg,AMSA18.jpg,MS,2,num_4,16,num_4,0.7001330427,,,2018_Jan_22_1117,60.0051579327,FEMA4ImagesEEG,001,202766,
AFNE01.JPG,AFNE01.JPG,AFNE01.JPG,AFNE01.JPG,AFNE01.JPG,AFNE01.JPG,,,,,,,,,,,,,,,,,,,,,0,6,6,0,,,AMSA11.jpg,AMSA18.jpg,AMNE07.jpg,AMNE13.jpg,AMSA18.jpg,MS,2,num_6,16,num_6,0.716840037,,,2018_Jan_22_1117,60.0051579327,FEMA4ImagesEEG,001,202766,
AFNE01.JPG,AFNE01.JPG,AFNE01.JPG,AFNE01.JPG,AFNE01.JPG,AFNE01.JPG,,,,,,,,,,,,,,,,,,,,,0,7,7,9,,,AMSA12.jpg,AMNE16.jpg,AMSA04.jpg,AMNE13.jpg,AMNE16.jpg,MN,1,num_6,16,num_6,0.716814698588,,,2018_Jan_22_1117,60.0051579327,FEMA4ImagesEEG,001,202766,
AFNE01.JPG,AFNE01.JPG,AFNE01.JPG,AFNE01.JPG,AFNE01.JPG,AFNE01.JPG,,,,,,,,,,,,,,,,,,,,,0,8,8,7,,,AMNE14.jpg,AMSA03.jpg,AMNE12.jpg,AMSA17.jpg,AMSA03.jpg,MS,2,num_6,16,num_6,0.900130091898,,,2018_Jan_22_1117,60.0051579327,FEMA4ImagesEEG,001,202766,
AFNE01.JPG,AFNE01.JPG,AFNE01.JPG,AFNE01.JPG,AFNE01.JPG,AFNE01.JPG,,,,,,,,,,,,,,,,,,,,,0,9,9,1,,,AMNE11.jpg,AMNE12.jpg,AMSA03.jpg,AMSA19.jpg,AMSA19.jpg,MS,2,num_4,16,num_4,0.950144589319,,,2018_Jan_22_1117,60.0051579327,FEMA4ImagesEEG,001,202766,
AFNE01.JPG,AFNE01.JPG,AFNE01.JPG,AFNE01.JPG,AFNE01.JPG,AFNE01.JPG,,,,,,,,,,,,,,,,,,,,,1,0,10,6,,,AMNE01.jpg,AMSA04.jpg,AMSA10.jpg,AMNE19.jpg,AMNE19.jpg,MN,1,num_4,32,num_8,0.683560438207,,,2018_Jan_22_1117,60.0051579327,FEMA4ImagesEEG,001,202766,
AFNE01.JPG,AFNE01.JPG,AFNE01.JPG,AFNE01.JPG,AFNE01.JPG,AFNE01.JPG,,,,,,,,,,,,,,,,,,,,,1,1,11,4,,,AMSA07.jpg,AMNE09.jpg,AMSA04.jpg,AMNE15.jpg,AMSA04.jpg,MS,2,num_2,16,num_2,2.05028167334,,,2018_Jan_22_1117,60.0051579327,FEMA4ImagesEEG,001,202766,
AFNE01.JPG,AFNE01.JPG,AFNE01.JPG,AFNE01.JPG,AFNE01.JPG,AFNE01.JPG,,,,,,,,,,,,,,,,,,,,,1,2,12,7,,,AMNE16.jpg,AMSA14.jpg,AMNE11.jpg,AMSA07.jpg,AMSA07.jpg,MS,2,num_4,16,num_4,1.00013631424,,,2018_Jan_22_1117,60.0051579327,FEMA4ImagesEEG,001,202766,
AFNE01.JPG,AFNE01.JPG,AFNE01.JPG,AFNE01.JPG,AFNE01.JPG,AFNE01.JPG,,,,,,,,,,,,,,,,,,,,,1,3,13,0,,,AMSA01.jpg,AMSA17.jpg,AMNE16.jpg,AMNE04.jpg,AMSA17.jpg,MS,2,num_6,16,num_6,0.800139265045,,,2018_Jan_22_1117,60.0051579327,FEMA4ImagesEEG,001,202766,
AFNE01.JPG,AFNE01.JPG,AFNE01.JPG,AFNE01.JPG,AFNE01.JPG,AFNE01.JPG,,,,,,,,,,,,,,,,,,,,,1,4,14,3,,,AMNE14.jpg,AMNE12.jpg,AMSA10.jpg,AMSA07.jpg,AMNE12.jpg,MN,1,num_6,16,num_6,1.30012707695,,,2018_Jan_22_1117,60.0051579327,FEMA4ImagesEEG,001,202766,
AFNE01.JPG,AFNE01.JPG,AFNE01.JPG,AFNE01.JPG,AFNE01.JPG,AFNE01.JPG,,,,,,,,,,,,,,,,,,,,,1,5,15,2,,,AMNE12.jpg,AMNE15.jpg,AMSA02.jpg,AMSA06.jpg,AMSA02.jpg,MS,2,num_2,32,num_6,1.10013098997,,,2018_Jan_22_1117,60.0051579327,FEMA4ImagesEEG,001,202766,
AFNE01.JPG,AFNE01.JPG,AFNE01.JPG,AFNE01.JPG,AFNE01.JPG,AFNE01.JPG,,,,,,,,,,,,,,,,,,,,,1,6,16,1,,,AMSA18.jpg,AMNE19.jpg,AMSA11.jpg,AMNE20.jpg,AMSA11.jpg,MS,2,num_2,32,num_8,1.25010969287,,,2018_Jan_22_1117,60.0051579327,FEMA4ImagesEEG,001,202766,
AFNE01.JPG,AFNE01.JPG,AFNE01.JPG,AFNE01.JPG,AFNE01.JPG,AFNE01.JPG,,,,,,,,,,,,,,,,,,,,,1,7,17,9,,,AMSA05.jpg,AMNE18.jpg,AMSA17.jpg,AMNE20.jpg,AMNE20.jpg,MN,1,num_4,32,num_2,1.50008948629,,,2018_Jan_22_1117,60.0051579327,FEMA4ImagesEEG,001,202766,
AFNE01.JPG,AFNE01.JPG,AFNE01.JPG,AFNE01.JPG,AFNE01.JPG,AFNE01.JPG,,,,,,,,,,,,,,,,,,,,,1,8,18,5,,,AMSA08.jpg,AMNE07.jpg,AMSA13.jpg,AMNE09.jpg,AMNE07.jpg,MN,1,num_6,16,num_6,0.850105330817,,,2018_Jan_22_1117,60.0051579327,FEMA4ImagesEEG,001,202766,
AFNE01.JPG,AFNE01.JPG,AFNE01.JPG,AFNE01.JPG,AFNE01.JPG,AFNE01.JPG,,,,,,,,,,,,,,,,,,,,,1,9,19,8,,,AMSA16.jpg,AMNE10.jpg,AMNE12.jpg,AMSA18.jpg,AMNE12.jpg,MN,1,num_2,32,num_6,0.883524771986,,,2018_Jan_22_1117,60.0051579327,FEMA4ImagesEEG,001,202766,
AFNE01.JPG,AFNE01.JPG,AFNE01.JPG,AFNE01.JPG,AFNE01.JPG,AFNE01.JPG,,,,,,,,,,,,,,,,,,,,,2,0,20,5,,,AMSA19.jpg,AMNE10.jpg,AMSA03.jpg,AMNE04.jpg,AMNE04.jpg,MN,1,num_4,16,num_4,0.733442470258,,,2018_Jan_22_1117,60.0051579327,FEMA4ImagesEEG,001,202766,
AFNE01.JPG,AFNE01.JPG,AFNE01.JPG,AFNE01.JPG,AFNE01.JPG,AFNE01.JPG,,,,,,,,,,,,,,,,,,,,,2,1,21,7,,,AMNE14.jpg,AMSA06.jpg,AMSA03.jpg,AMNE08.jpg,AMSA03.jpg,MS,2,num_2,16,num_2,0.883467680374,,,2018_Jan_22_1117,60.0051579327,FEMA4ImagesEEG,001,202766,
AFNE01.JPG,AFNE01.JPG,AFNE01.JPG,AFNE01.JPG,AFNE01.JPG,AFNE01.JPG,,,,,,,,,,,,,,,,,,,,,2,2,22,8,,,AMSA08.jpg,AMNE19.jpg,AMNE18.jpg,AMSA05.jpg,AMSA08.jpg,MS,2,num_8,16,num_8,1.03348775866,,,2018_Jan_22_1117,60.0051579327,FEMA4ImagesEEG,001,202766,
AFNE01.JPG,AFNE01.JPG,AFNE01.JPG,AFNE01.JPG,AFNE01.JPG,AFNE01.JPG,,,,,,,,,,,,,,,,,,,,,2,3,23,9,,,AMSA02.jpg,AMNE08.jpg,AMNE17.jpg,AMSA18.jpg,AMSA02.jpg,MS,2,num_8,32,num_4,1.78348872088,,,2018_Jan_22_1117,60.0051579327,FEMA4ImagesEEG,001,202766,
AFNE01.JPG,AFNE01.JPG,AFNE01.JPG,AFNE01.JPG,AFNE01.JPG,AFNE01.JPG,,,,,,,,,,,,,,,,,,,,,2,4,24,0,,,AMNE16.jpg,AMNE05.jpg,AMSA08.jpg,AMSA06.jpg,AMNE16.jpg,MN,1,num_8,16,num_8,0.816739453127,,,2018_Jan_22_1117,60.0051579327,FEMA4ImagesEEG,001,202766,
AFNE01.JPG,AFNE01.JPG,AFNE01.JPG,AFNE01.JPG,AFNE01.JPG,AFNE01.JPG,,,,,,,,,,,,,,,,,,,,,2,5,25,1,,,AMNE20.jpg,AMSA17.jpg,AMNE17.jpg,AMSA07.jpg,AMSA17.jpg,MS,2,num_6,16,num_6,0.750109372133,,,2018_Jan_22_1117,60.0051579327,FEMA4ImagesEEG,001,202766,
AFNE01.JPG,AFNE01.JPG,AFNE01.JPG,AFNE01.JPG,AFNE01.JPG,AFNE01.JPG,,,,,,,,,,,,,,,,,,,,,2,6,26,2,,,AMSA08.jpg,AMNE12.jpg,AMSA19.jpg,AMNE19.jpg,AMNE19.jpg,MN,1,num_4,32,num_2,0.800100134838,,,2018_Jan_22_1117,60.0051579327,FEMA4ImagesEEG,001,202766,
AFNE01.JPG,AFNE01.JPG,AFNE01.JPG,AFNE01.JPG,AFNE01.JPG,AFNE01.JPG,,,,,,,,,,,,,,,,,,,,,2,7,27,6,,,AMSA15.jpg,AMNE02.jpg,AMNE10.jpg,AMSA17.jpg,AMSA15.jpg,MS,2,num_8,32,num_2,1.26674901116,,,2018_Jan_22_1117,60.0051579327,FEMA4ImagesEEG,001,202766,
AFNE01.JPG,AFNE01.JPG,AFNE01.JPG,AFNE01.JPG,AFNE01.JPG,AFNE01.JPG,,,,,,,,,,,,,,,,,,,,,2,8,28,3,,,AMNE03.jpg,AMSA15.jpg,AMNE17.jpg,AMSA05.jpg,AMNE03.jpg,MN,1,num_8,16,num_8,1.06676094267,,,2018_Jan_22_1117,60.0051579327,FEMA4ImagesEEG,001,202766,
AFNE01.JPG,AFNE01.JPG,AFNE01.JPG,AFNE01.JPG,AFNE01.JPG,AFNE01.JPG,,,,,,,,,,,,,,,,,,,,,2,9,29,4,,,AMSA20.jpg,AMSA03.jpg,AMNE07.jpg,AMNE13.jpg,AMNE07.jpg,MN,1,num_2,16,num_2,1.06676799893,,,2018_Jan_22_1117,60.0051579327,FEMA4ImagesEEG,001,202766,
AFNE01.JPG,AFNE01.JPG,AFNE01.JPG,AFNE01.JPG,AFNE01.JPG,AFNE01.JPG,,,,,,,,,,,,,,,,,,,,,3,0,30,0,,,AMNE17.jpg,AMNE07.jpg,AMSA13.jpg,AMSA09.jpg,AMSA09.jpg,MS,2,num_4,32,num_6,1.05006100463,,,2018_Jan_22_1117,60.0051579327,FEMA4ImagesEEG,001,202766,
AFNE01.JPG,AFNE01.JPG,AFNE01.JPG,AFNE01.JPG,AFNE01.JPG,AFNE01.JPG,,,,,,,,,,,,,,,,,,,,,3,1,31,2,,,AMSA09.jpg,AMNE13.jpg,AMSA20.jpg,AMNE17.jpg,AMNE17.jpg,MN,1,num_4,16,num_4,0.733482562681,,,2018_Jan_22_1117,60.0051579327,FEMA4ImagesEEG,001,202766,
AFNE01.JPG,AFNE01.JPG,AFNE01.JPG,AFNE01.JPG,AFNE01.JPG,AFNE01.JPG,,,,,,,,,,,,,,,,,,,,,3,2,32,8,,,AMNE04.jpg,AMNE01.jpg,AMSA12.jpg,AMSA15.jpg,AMNE04.jpg,MN,1,num_8,32,num_4,1.08350867087,,,2018_Jan_22_1117,60.0051579327,FEMA4ImagesEEG,001,202766,
AFNE01.JPG,AFNE01.JPG,AFNE01.JPG,AFNE01.JPG,AFNE01.JPG,AFNE01.JPG,,,,,,,,,,,,,,,,,,,,,3,3,33,4,,,AMNE09.jpg,AMSA05.jpg,AMSA19.jpg,AMNE20.jpg,AMSA05.jpg,MS,2,num_6,16,num_6,0.86676838382,,,2018_Jan_22_1117,60.0051579327,FEMA4ImagesEEG,001,202766,
AFNE01.JPG,AFNE01.JPG,AFNE01.JPG,AFNE01.JPG,AFNE01.JPG,AFNE01.JPG,,,,,,,,,,,,,,,,,,,,,3,4,34,7,,,AMSA14.jpg,AMNE02.jpg,AMNE12.jpg,AMSA13.jpg,AMNE12.jpg,MN,1,num_2,32,num_6,1.3334608807,,,2018_Jan_22_1117,60.0051579327,FEMA4ImagesEEG,001,202766,
AFNE01.JPG,AFNE01.JPG,AFNE01.JPG,AFNE01.JPG,AFNE01.JPG,AFNE01.JPG,,,,,,,,,,,,,,,,,,,,,3,5,35,9,,,AMNE15.jpg,AMNE03.jpg,AMSA04.jpg,AMSA08.jpg,AMSA08.jpg,MS,2,num_4,16,num_4,0.983465242754,,,2018_Jan_22_1117,60.0051579327,FEMA4ImagesEEG,001,202766,
AFNE01.JPG,AFNE01.JPG,AFNE01.JPG,AFNE01.JPG,AFNE01.JPG,AFNE01.JPG,,,,,,,,,,,,,,,,,,,,,3,6,36,3,,,AMNE16.jpg,AMNE19.jpg,AMSA14.jpg,AMSA18.jpg,AMSA18.jpg,MS,2,num_4,16,num_4,1.00105330817,,,2018_Jan_22_1117,60.0051579327,FEMA4ImagesEEG,001,202766,
AFNE01.JPG,AFNE01.JPG,AFNE01.JPG,AFNE01.JPG,AFNE01.JPG,AFNE01.JPG,,,,,,,,,,,,,,,,,,,,,3,7,37,1,,,AMNE03.jpg,AMSA10.jpg,AMNE18.jpg,AMSA14.jpg,AMNE18.jpg,MN,1,num_2,32,num_8,0.950150041889,,,2018_Jan_22_1117,60.0051579327,FEMA4ImagesEEG,001,202766,
AFNE01.JPG,AFNE01.JPG,AFNE01.JPG,AFNE01.JPG,AFNE01.JPG,AFNE01.JPG,,,,,,,,,,,,,,,,,,,,,3,8,38,6,,,AMNE15.jpg,AMSA01.jpg,AMNE02.jpg,AMSA19.jpg,AMNE02.jpg,MN,1,num_2,32,num_6,0.816768640411,,,2018_Jan_22_1117,60.0051579327,FEMA4ImagesEEG,001,202766,
AFNE01.JPG,AFNE01.JPG,AFNE01.JPG,AFNE01.JPG,AFNE01.JPG,AFNE01.JPG,,,,,,,,,,,,,,,,,,,,,3,9,39,5,,,AMNE18.jpg,AMSA13.jpg,AMNE14.jpg,AMSA16.jpg,AMSA16.jpg,MS,2,num_4,16,num_4,0.966768832855,,,2018_Jan_22_1117,60.0051579327,FEMA4ImagesEEG,001,202766,
