IPosition2,IPosition3,IPosition1,IPosition6,IPosition4,IPosition5,TrialsF1.thisRepN,TrialsF1.thisTrialN,TrialsF1.thisN,TrialsF1.thisIndex,TrialsM1.thisRepN,TrialsM1.thisTrialN,TrialsM1.thisN,TrialsM1.thisIndex,TrialsF2.thisRepN,TrialsF2.thisTrialN,TrialsF2.thisN,TrialsF2.thisIndex,TrialsM2.thisRepN,TrialsM2.thisTrialN,TrialsM2.thisN,TrialsM2.thisIndex,TrialsF3.thisRepN,TrialsF3.thisTrialN,TrialsF3.thisN,TrialsF3.thisIndex,TrialsM3.thisRepN,TrialsM3.thisTrialN,TrialsM3.thisN,TrialsM3.thisIndex,InstrKey_resp.keys,InstrKey_resp.rt,Image0 _Position,Image1 _Position,Image2 _Position,Image3 _Position,Center_image,condition,code,correct_answer,accuracy,Key_Resp.keys,Key_Resp.rt,BreakKey_resp.keys,BreakKey_resp.rt,date,frameRate,expName,session,participant,
,,,,,,,,,,,,,,,,,,,,,,,,,,,,,,space,12.3497531908,,,,,,,,,,,,,,2018_Jan_19_1619,60.0048114865,FEMA4ImagesEEG,001,202726,
AFNE23.JPG,AFNE24.JPG,AFNE22.JPG,AFSA24.JPG,AFSA22.JPG,AFSA23.JPG,0,0,0,8,,,,,,,,,,,,,,,,,,,,,,,AFNE09.jpg,AFNE02.jpg,AFSA03.jpg,AFSA06.jpg,AFNE02.jpg,FN,3,num_6,32,num_8,1.21674519451,,,2018_Jan_19_1619,60.0048114865,FEMA4ImagesEEG,001,202726,
AMNE22.JPG,AMSA24.JPG,AMSA22.JPG,AMNE25.JPG,AMNE24.JPG,AMSA25.JPG,0,1,1,7,,,,,,,,,,,,,,,,,,,,,,,AFSA10.jpg,AFNE11.jpg,AFNE08.jpg,AFSA17.jpg,AFNE08.jpg,FN,3,num_2,32,num_8,0.850162775721,,,2018_Jan_19_1619,60.0048114865,FEMA4ImagesEEG,001,202726,
AMSA25.JPG,AMNE24.JPG,AMSA24.JPG,AMNE26.JPG,AMSA21.JPG,AMNE25.JPG,0,2,2,3,,,,,,,,,,,,,,,,,,,,,,,AFNE17.jpg,AFSA17.jpg,AFSA09.jpg,AFNE13.jpg,AFSA17.jpg,FS,4,num_6,32,num_2,1.15006559109,,,2018_Jan_19_1619,60.0048114865,FEMA4ImagesEEG,001,202726,
AMNE23.JPG,AMNE24.JPG,AMNE22.JPG,AMSA24.JPG,AMSA22.JPG,AMSA23.JPG,0,3,3,9,,,,,,,,,,,,,,,,,,,,,,,AFNE20.jpg,AFSA14.jpg,AFSA04.jpg,AFNE15.jpg,AFSA04.jpg,FS,4,num_2,16,num_2,1.45009734482,,,2018_Jan_19_1619,60.0048114865,FEMA4ImagesEEG,001,202726,
AMSA21.JPG,AMNE23.JPG,AMNE21.JPG,AMSA25.JPG,AMNE25.JPG,AMSA23.JPG,0,4,4,5,,,,,,,,,,,,,,,,,,,,,,,AFSA12.jpg,AFSA18.jpg,AFNE20.jpg,AFNE13.jpg,AFNE20.jpg,FN,3,num_2,32,num_8,1.1833831016,,,2018_Jan_19_1619,60.0048114865,FEMA4ImagesEEG,001,202726,
AMSA21.JPG,AMNE22.JPG,AMNE21.JPG,AMSA23.JPG,AMSA22.JPG,AMNE23.JPG,0,5,5,1,,,,,,,,,,,,,,,,,,,,,,,AFNE19.jpg,AFSA10.jpg,AFSA03.jpg,AFNE02.jpg,AFSA03.jpg,FS,4,num_2,32,num_4,1.96675273217,,,2018_Jan_19_1619,60.0048114865,FEMA4ImagesEEG,001,202726,
AFSA21.JPG,AFNE22.JPG,AFNE21.JPG,AFSA23.JPG,AFSA22.JPG,AFNE23.JPG,0,6,6,0,,,,,,,,,,,,,,,,,,,,,,,AFNE10.jpg,AFSA08.jpg,AFNE04.jpg,AFSA11.jpg,AFNE10.jpg,FN,3,num_8,16,num_8,0.916778551415,,,2018_Jan_19_1619,60.0048114865,FEMA4ImagesEEG,001,202726,
AFSA25.JPG,AFNE24.JPG,AFSA24.JPG,AFNE21.JPG,AFSA21.JPG,AFNE25.JPG,0,7,7,2,,,,,,,,,,,,,,,,,,,,,,,AFNE07.jpg,AFSA03.jpg,AFSA17.jpg,AFNE05.jpg,AFNE07.jpg,FN,3,num_8,16,num_8,0.983450456988,,,2018_Jan_19_1619,60.0048114865,FEMA4ImagesEEG,001,202726,
AFSA21.JPG,AFNE23.JPG,AFNE21.JPG,AFSA25.JPG,AFNE25.JPG,AFSA23.JPG,0,8,8,4,,,,,,,,,,,,,,,,,,,,,,,AFSA05.jpg,AFNE05.jpg,AFNE09.jpg,AFSA20.jpg,AFSA20.jpg,FS,4,num_4,32,num_6,1.05012621125,,,2018_Jan_19_1619,60.0048114865,FEMA4ImagesEEG,001,202726,
AFNE22.JPG,AFSA24.JPG,AFSA22.JPG,AFNE25.JPG,AFNE24.JPG,AFSA25.JPG,0,9,9,6,,,,,,,,,,,,,,,,,,,,,,,AFNE19.jpg,AFSA14.jpg,AFSA09.jpg,AFNE08.jpg,AFNE08.jpg,FN,3,num_4,16,num_4,0.666867877822,,,2018_Jan_19_1619,60.0048114865,FEMA4ImagesEEG,001,202726,
AFNE22.JPG,AFSA24.JPG,AFSA22.JPG,AFNE25.JPG,AFNE24.JPG,AFSA25.JPG,,,,,0,0,0,6,,,,,,,,,,,,,,,,,,,AMNE12.jpg,AMSA18.jpg,AMNE17.jpg,AMSA13.jpg,AMSA13.jpg,MS,2,num_4,32,num_8,1.08345206035,,,2018_Jan_19_1619,60.0048114865,FEMA4ImagesEEG,001,202726,
AFSA21.JPG,AFNE23.JPG,AFNE21.JPG,AFSA25.JPG,AFNE25.JPG,AFSA23.JPG,,,,,0,1,1,4,,,,,,,,,,,,,,,,,,,AMSA13.jpg,AMNE14.jpg,AMSA11.jpg,AMNE03.jpg,AMNE03.jpg,MN,1,num_4,32,num_8,0.766781919636,,,2018_Jan_19_1619,60.0048114865,FEMA4ImagesEEG,001,202726,
AFSA25.JPG,AFNE24.JPG,AFSA24.JPG,AFNE21.JPG,AFSA21.JPG,AFNE25.JPG,,,,,0,2,2,2,,,,,,,,,,,,,,,,,,,AMSA16.jpg,AMSA03.jpg,AMNE10.jpg,AMNE13.jpg,AMNE13.jpg,MN,1,num_4,32,num_2,0.933437466621,,,2018_Jan_19_1619,60.0048114865,FEMA4ImagesEEG,001,202726,
AMNE22.JPG,AMSA24.JPG,AMSA22.JPG,AMNE25.JPG,AMNE24.JPG,AMSA25.JPG,,,,,0,3,3,7,,,,,,,,,,,,,,,,,,,AMSA07.jpg,AMNE04.jpg,AMNE10.jpg,AMSA13.jpg,AMSA13.jpg,MS,2,num_4,32,num_6,1.30008371314,,,2018_Jan_19_1619,60.0048114865,FEMA4ImagesEEG,001,202726,
AMNE23.JPG,AMNE24.JPG,AMNE22.JPG,AMSA24.JPG,AMSA22.JPG,AMSA23.JPG,,,,,0,4,4,9,,,,,,,,,,,,,,,,,,,AMSA19.jpg,AMSA05.jpg,AMNE19.jpg,AMNE08.jpg,AMSA05.jpg,MS,2,num_6,16,num_6,0.816792664118,,,2018_Jan_19_1619,60.0048114865,FEMA4ImagesEEG,001,202726,
AMSA21.JPG,AMNE22.JPG,AMNE21.JPG,AMSA23.JPG,AMSA22.JPG,AMNE23.JPG,,,,,0,5,5,1,,,,,,,,,,,,,,,,,,,AMNE04.jpg,AMSA20.jpg,AMNE08.jpg,AMSA14.jpg,AMSA14.jpg,MS,2,num_4,16,num_4,0.616788494401,,,2018_Jan_19_1619,60.0048114865,FEMA4ImagesEEG,001,202726,
AMSA21.JPG,AMNE23.JPG,AMNE21.JPG,AMSA25.JPG,AMNE25.JPG,AMSA23.JPG,,,,,0,6,6,5,,,,,,,,,,,,,,,,,,,AMNE07.jpg,AMSA06.jpg,AMNE05.jpg,AMSA19.jpg,AMNE07.jpg,MN,1,num_8,16,num_8,0.950137436856,,,2018_Jan_19_1619,60.0048114865,FEMA4ImagesEEG,001,202726,
AFNE23.JPG,AFNE24.JPG,AFNE22.JPG,AFSA24.JPG,AFSA22.JPG,AFSA23.JPG,,,,,0,7,7,8,,,,,,,,,,,,,,,,,,,AMNE08.jpg,AMSA19.jpg,AMNE20.jpg,AMSA17.jpg,AMNE20.jpg,MN,1,num_2,32,num_8,1.55002902681,,,2018_Jan_19_1619,60.0048114865,FEMA4ImagesEEG,001,202726,
AFSA21.JPG,AFNE22.JPG,AFNE21.JPG,AFSA23.JPG,AFSA22.JPG,AFNE23.JPG,,,,,0,8,8,0,,,,,,,,,,,,,,,,,,,AMSA18.jpg,AMNE12.jpg,AMSA13.jpg,AMNE16.jpg,AMNE16.jpg,MN,1,num_4,16,num_4,0.766806616448,,,2018_Jan_19_1619,60.0048114865,FEMA4ImagesEEG,001,202726,
AMSA25.JPG,AMNE24.JPG,AMSA24.JPG,AMNE26.JPG,AMSA21.JPG,AMNE25.JPG,,,,,0,9,9,3,,,,,,,,,,,,,,,,,,,AMSA17.jpg,AMNE12.jpg,AMSA12.jpg,AMNE10.jpg,AMSA12.jpg,MS,2,num_2,16,num_2,0.850120116957,,,2018_Jan_19_1619,60.0048114865,FEMA4ImagesEEG,001,202726,
AFSA21.JPG,AFNE22.JPG,AFNE21.JPG,AFSA23.JPG,AFSA22.JPG,AFNE23.JPG,,,,,,,,,0,0,0,0,,,,,,,,,,,,,,,AFSA13.jpg,AFSA08.jpg,AFNE07.jpg,AFNE17.jpg,AFSA08.jpg,FS,4,num_6,32,num_8,0.933455428574,,,2018_Jan_19_1619,60.0048114865,FEMA4ImagesEEG,001,202726,
AFNE22.JPG,AFSA24.JPG,AFSA22.JPG,AFNE25.JPG,AFNE24.JPG,AFSA25.JPG,,,,,,,,,0,1,1,6,,,,,,,,,,,,,,,AFNE19.jpg,AFSA05.jpg,AFNE02.jpg,AFSA02.jpg,AFNE19.jpg,FN,3,num_8,16,num_8,1.03346216399,,,2018_Jan_19_1619,60.0048114865,FEMA4ImagesEEG,001,202726,
AMSA21.JPG,AMNE22.JPG,AMNE21.JPG,AMSA23.JPG,AMSA22.JPG,AMNE23.JPG,,,,,,,,,0,2,2,1,,,,,,,,,,,,,,,AFSA16.jpg,AFSA02.jpg,AFNE14.jpg,AFNE09.jpg,AFNE14.jpg,FN,3,num_2,32,num_4,1.00012380537,,,2018_Jan_19_1619,60.0048114865,FEMA4ImagesEEG,001,202726,
AFSA25.JPG,AFNE24.JPG,AFSA24.JPG,AFNE21.JPG,AFSA21.JPG,AFNE25.JPG,,,,,,,,,0,3,3,2,,,,,,,,,,,,,,,AFNE05.jpg,AFNE16.jpg,AFSA08.jpg,AFSA18.jpg,AFNE16.jpg,FN,3,num_6,16,num_6,0.783508189954,,,2018_Jan_19_1619,60.0048114865,FEMA4ImagesEEG,001,202726,
AFSA21.JPG,AFNE23.JPG,AFNE21.JPG,AFSA25.JPG,AFNE25.JPG,AFSA23.JPG,,,,,,,,,0,4,4,4,,,,,,,,,,,,,,,AFSA15.jpg,AFNE03.jpg,AFNE19.jpg,AFSA08.jpg,AFSA15.jpg,FS,4,num_8,16,num_8,1.08346007904,,,2018_Jan_19_1619,60.0048114865,FEMA4ImagesEEG,001,202726,
AFNE23.JPG,AFNE24.JPG,AFNE22.JPG,AFSA24.JPG,AFSA22.JPG,AFSA23.JPG,,,,,,,,,0,5,5,8,,,,,,,,,,,,,,,AFNE07.jpg,AFSA19.jpg,AFSA12.jpg,AFNE17.jpg,AFSA12.jpg,FS,4,num_2,16,num_2,0.616750647314,,,2018_Jan_19_1619,60.0048114865,FEMA4ImagesEEG,001,202726,
AMSA25.JPG,AMNE24.JPG,AMSA24.JPG,AMNE26.JPG,AMSA21.JPG,AMNE25.JPG,,,,,,,,,0,6,6,3,,,,,,,,,,,,,,,AFNE18.jpg,AFSA06.jpg,AFNE02.jpg,AFSA15.jpg,AFNE02.jpg,FN,3,num_2,32,num_8,0.850174001418,,,2018_Jan_19_1619,60.0048114865,FEMA4ImagesEEG,001,202726,
AMNE23.JPG,AMNE24.JPG,AMNE22.JPG,AMSA24.JPG,AMSA22.JPG,AMSA23.JPG,,,,,,,,,0,7,7,9,,,,,,,,,,,,,,,AFSA16.jpg,AFNE11.jpg,AFSA18.jpg,AFNE20.jpg,AFNE11.jpg,FN,3,num_6,16,num_6,0.983434419613,,,2018_Jan_19_1619,60.0048114865,FEMA4ImagesEEG,001,202726,
AMNE22.JPG,AMSA24.JPG,AMSA22.JPG,AMNE25.JPG,AMNE24.JPG,AMSA25.JPG,,,,,,,,,0,8,8,7,,,,,,,,,,,,,,,AFSA02.jpg,AFNE06.jpg,AFSA06.jpg,AFNE15.jpg,AFNE15.jpg,FN,3,num_4,16,num_4,1.23341597756,,,2018_Jan_19_1619,60.0048114865,FEMA4ImagesEEG,001,202726,
AMSA21.JPG,AMNE23.JPG,AMNE21.JPG,AMSA25.JPG,AMNE25.JPG,AMSA23.JPG,,,,,,,,,0,9,9,5,,,,,,,,,,,,,,,AFSA08.jpg,AFNE09.jpg,AFNE05.jpg,AFSA19.jpg,AFNE09.jpg,FN,3,num_6,16,num_6,0.766813993454,,,2018_Jan_19_1619,60.0048114865,FEMA4ImagesEEG,001,202726,
AFSA21.JPG,AFNE23.JPG,AFNE21.JPG,AFSA25.JPG,AFNE25.JPG,AFSA23.JPG,,,,,,,,,,,,,0,0,0,4,,,,,,,,,,,AMSA01.jpg,AMNE16.jpg,AMNE14.jpg,AMSA14.jpg,AMSA14.jpg,MS,2,num_4,32,num_2,1.48339176131,,,2018_Jan_19_1619,60.0048114865,FEMA4ImagesEEG,001,202726,
AMNE23.JPG,AMNE24.JPG,AMNE22.JPG,AMSA24.JPG,AMSA22.JPG,AMSA23.JPG,,,,,,,,,,,,,0,1,1,9,,,,,,,,,,,AMSA12.jpg,AMNE15.jpg,AMNE16.jpg,AMSA13.jpg,AMSA13.jpg,MS,2,num_4,16,num_4,1.63341180747,,,2018_Jan_19_1619,60.0048114865,FEMA4ImagesEEG,001,202726,
AFNE22.JPG,AFSA24.JPG,AFSA22.JPG,AFNE25.JPG,AFNE24.JPG,AFSA25.JPG,,,,,,,,,,,,,0,2,2,6,,,,,,,,,,,AMNE13.jpg,AMSA03.jpg,AMNE12.jpg,AMSA07.jpg,AMNE12.jpg,MN,1,num_2,32,num_8,0.750169190113,,,2018_Jan_19_1619,60.0048114865,FEMA4ImagesEEG,001,202726,
AFSA21.JPG,AFNE22.JPG,AFNE21.JPG,AFSA23.JPG,AFSA22.JPG,AFNE23.JPG,,,,,,,,,,,,,0,3,3,0,,,,,,,,,,,AMNE15.jpg,AMNE16.jpg,AMSA10.jpg,AMSA08.jpg,AMSA08.jpg,MS,2,num_4,16,num_4,1.25008932641,,,2018_Jan_19_1619,60.0048114865,FEMA4ImagesEEG,001,202726,
AMSA25.JPG,AMNE24.JPG,AMSA24.JPG,AMNE26.JPG,AMSA21.JPG,AMNE25.JPG,,,,,,,,,,,,,0,4,4,3,,,,,,,,,,,AMNE14.jpg,AMSA17.jpg,AMNE03.jpg,AMSA05.jpg,AMNE03.jpg,MN,1,num_2,16,num_2,0.91677566478,,,2018_Jan_19_1619,60.0048114865,FEMA4ImagesEEG,001,202726,
AMSA21.JPG,AMNE23.JPG,AMNE21.JPG,AMSA25.JPG,AMNE25.JPG,AMSA23.JPG,,,,,,,,,,,,,0,5,5,5,,,,,,,,,,,AMNE08.jpg,AMNE10.jpg,AMSA14.jpg,AMSA01.jpg,AMSA01.jpg,MS,2,num_4,16,num_4,0.900126371533,,,2018_Jan_19_1619,60.0048114865,FEMA4ImagesEEG,001,202726,
AFNE23.JPG,AFNE24.JPG,AFNE22.JPG,AFSA24.JPG,AFSA22.JPG,AFSA23.JPG,,,,,,,,,,,,,0,6,6,8,,,,,,,,,,,AMNE15.jpg,AMSA16.jpg,AMSA14.jpg,AMNE03.jpg,AMNE03.jpg,MN,1,num_4,16,num_4,0.850128135644,,,2018_Jan_19_1619,60.0048114865,FEMA4ImagesEEG,001,202726,
AMNE22.JPG,AMSA24.JPG,AMSA22.JPG,AMNE25.JPG,AMNE24.JPG,AMSA25.JPG,,,,,,,,,,,,,0,7,7,7,,,,,,,,,,,AMNE15.jpg,AMSA20.jpg,AMNE09.jpg,AMSA13.jpg,AMNE15.jpg,MN,1,num_8,16,num_8,1.05014545564,,,2018_Jan_19_1619,60.0048114865,FEMA4ImagesEEG,001,202726,
AFSA25.JPG,AFNE24.JPG,AFSA24.JPG,AFNE21.JPG,AFSA21.JPG,AFNE25.JPG,,,,,,,,,,,,,0,8,8,2,,,,,,,,,,,AMNE04.jpg,AMSA18.jpg,AMSA19.jpg,AMNE11.jpg,AMSA18.jpg,MS,2,num_6,32,num_2,1.23326009791,,,2018_Jan_19_1619,60.0048114865,FEMA4ImagesEEG,001,202726,
AMSA21.JPG,AMNE22.JPG,AMNE21.JPG,AMSA23.JPG,AMSA22.JPG,AMNE23.JPG,,,,,,,,,,,,,0,9,9,1,,,,,,,,,,,AMNE06.jpg,AMSA20.jpg,AMSA09.jpg,AMNE17.jpg,AMSA20.jpg,MS,2,num_6,16,num_6,1.05014032405,,,2018_Jan_19_1619,60.0048114865,FEMA4ImagesEEG,001,202726,
AMSA21.JPG,AMNE23.JPG,AMNE21.JPG,AMSA25.JPG,AMNE25.JPG,AMSA23.JPG,,,,,,,,,,,,,,,,,0,0,0,5,,,,,,,AFSA02.jpg,AFNE16.jpg,AFNE08.jpg,AFSA08.jpg,AFSA08.jpg,FS,4,num_4,16,num_4,0.933461201843,,,2018_Jan_19_1619,60.0048114865,FEMA4ImagesEEG,001,202726,
AFSA21.JPG,AFNE22.JPG,AFNE21.JPG,AFSA23.JPG,AFSA22.JPG,AFNE23.JPG,,,,,,,,,,,,,,,,,0,1,1,0,,,,,,,AFNE15.jpg,AFSA17.jpg,AFNE07.jpg,AFSA05.jpg,AFNE15.jpg,FN,3,num_8,16,num_8,1.1834584754,,,2018_Jan_19_1619,60.0048114865,FEMA4ImagesEEG,001,202726,
AMSA25.JPG,AMNE24.JPG,AMSA24.JPG,AMNE26.JPG,AMSA21.JPG,AMNE25.JPG,,,,,,,,,,,,,,,,,0,2,2,3,,,,,,,AFSA09.jpg,AFNE03.jpg,AFSA07.jpg,AFNE10.jpg,AFNE03.jpg,FN,3,num_6,32,num_2,2.36715526041,,,2018_Jan_19_1619,60.0048114865,FEMA4ImagesEEG,001,202726,
AFSA21.JPG,AFNE23.JPG,AFNE21.JPG,AFSA25.JPG,AFNE25.JPG,AFSA23.JPG,,,,,,,,,,,,,,,,,0,3,3,4,,,,,,,AFSA09.jpg,AFSA08.jpg,AFNE13.jpg,AFNE16.jpg,AFSA08.jpg,FS,4,num_6,16,num_6,0.86679314496,,,2018_Jan_19_1619,60.0048114865,FEMA4ImagesEEG,001,202726,
AMSA21.JPG,AMNE22.JPG,AMNE21.JPG,AMSA23.JPG,AMSA22.JPG,AMNE23.JPG,,,,,,,,,,,,,,,,,0,4,4,1,,,,,,,AFNE06.jpg,AFSA06.jpg,AFNE07.jpg,AFSA19.jpg,AFNE07.jpg,FN,3,num_2,32,num_4,1.36678159842,,,2018_Jan_19_1619,60.0048114865,FEMA4ImagesEEG,001,202726,
AFNE23.JPG,AFNE24.JPG,AFNE22.JPG,AFSA24.JPG,AFSA22.JPG,AFSA23.JPG,,,,,,,,,,,,,,,,,0,5,5,8,,,,,,,AFNE19.jpg,AFNE12.jpg,AFSA06.jpg,AFSA15.jpg,AFNE12.jpg,FN,3,num_6,16,num_6,1.33346248465,,,2018_Jan_19_1619,60.0048114865,FEMA4ImagesEEG,001,202726,
AMNE22.JPG,AMSA24.JPG,AMSA22.JPG,AMNE25.JPG,AMNE24.JPG,AMSA25.JPG,,,,,,,,,,,,,,,,,0,6,6,7,,,,,,,AFSA15.jpg,AFNE04.jpg,AFNE01.jpg,AFSA05.jpg,AFSA15.jpg,FS,4,num_8,32,num_2,1.68341998663,,,2018_Jan_19_1619,60.0048114865,FEMA4ImagesEEG,001,202726,
AFNE22.JPG,AFSA24.JPG,AFSA22.JPG,AFNE25.JPG,AFNE24.JPG,AFSA25.JPG,,,,,,,,,,,,,,,,,0,7,7,6,,,,,,,AFSA18.jpg,AFNE14.jpg,AFNE10.jpg,AFSA14.jpg,AFSA14.jpg,FS,4,num_4,16,num_4,0.816788173746,,,2018_Jan_19_1619,60.0048114865,FEMA4ImagesEEG,001,202726,
AMNE23.JPG,AMNE24.JPG,AMNE22.JPG,AMSA24.JPG,AMSA22.JPG,AMSA23.JPG,,,,,,,,,,,,,,,,,0,8,8,9,,,,,,,AFSA19.jpg,AFNE03.jpg,AFSA13.jpg,AFNE14.jpg,AFSA19.jpg,FS,4,num_8,16,num_8,2.38339208253,,,2018_Jan_19_1619,60.0048114865,FEMA4ImagesEEG,001,202726,
AFSA25.JPG,AFNE24.JPG,AFSA24.JPG,AFNE21.JPG,AFSA21.JPG,AFNE25.JPG,,,,,,,,,,,,,,,,,0,9,9,2,,,,,,,AFNE15.jpg,AFSA16.jpg,AFSA14.jpg,AFNE07.jpg,AFSA14.jpg,FS,4,num_2,32,num_4,0.966792824212,,,2018_Jan_19_1619,60.0048114865,FEMA4ImagesEEG,001,202726,
AFNE23.JPG,AFNE24.JPG,AFNE22.JPG,AFSA24.JPG,AFSA22.JPG,AFSA23.JPG,,,,,,,,,,,,,,,,,,,,,0,0,0,8,,,AMNE18.jpg,AMSA13.jpg,AMNE17.jpg,AMSA12.jpg,AMNE17.jpg,MN,1,num_2,32,num_8,1.05011017434,,,2018_Jan_19_1619,60.0048114865,FEMA4ImagesEEG,001,202726,
AMNE23.JPG,AMNE24.JPG,AMNE22.JPG,AMSA24.JPG,AMSA22.JPG,AMSA23.JPG,,,,,,,,,,,,,,,,,,,,,0,1,1,9,,,AMSA10.jpg,AMNE08.jpg,AMSA06.jpg,AMNE09.jpg,AMNE09.jpg,MN,1,num_4,16,num_4,1.56670782808,,,2018_Jan_19_1619,60.0048114865,FEMA4ImagesEEG,001,202726,
AFSA21.JPG,AFNE23.JPG,AFNE21.JPG,AFSA25.JPG,AFNE25.JPG,AFSA23.JPG,,,,,,,,,,,,,,,,,,,,,0,2,2,4,,,AMSA08.jpg,AMNE15.jpg,AMSA06.jpg,AMNE03.jpg,AMSA06.jpg,MS,2,num_2,16,num_2,0.816795871593,,,2018_Jan_19_1619,60.0048114865,FEMA4ImagesEEG,001,202726,
AMNE22.JPG,AMSA24.JPG,AMSA22.JPG,AMNE25.JPG,AMNE24.JPG,AMSA25.JPG,,,,,,,,,,,,,,,,,,,,,0,3,3,7,,,AMNE12.jpg,AMNE20.jpg,AMSA16.jpg,AMSA08.jpg,AMNE12.jpg,MN,1,num_8,32,num_4,3.59993488993,,,2018_Jan_19_1619,60.0048114865,FEMA4ImagesEEG,001,202726,
AFSA25.JPG,AFNE24.JPG,AFSA24.JPG,AFNE21.JPG,AFSA21.JPG,AFNE25.JPG,,,,,,,,,,,,,,,,,,,,,0,4,4,2,,,AMSA04.jpg,AMNE05.jpg,AMSA06.jpg,AMNE17.jpg,AMSA04.jpg,MS,2,num_8,32,num_2,0.900125088636,,,2018_Jan_19_1619,60.0048114865,FEMA4ImagesEEG,001,202726,
AMSA21.JPG,AMNE23.JPG,AMNE21.JPG,AMSA25.JPG,AMNE25.JPG,AMSA23.JPG,,,,,,,,,,,,,,,,,,,,,0,5,5,5,,,AMNE03.jpg,AMNE20.jpg,AMSA11.jpg,AMSA19.jpg,AMSA11.jpg,MS,2,num_2,16,num_2,0.883453343529,,,2018_Jan_19_1619,60.0048114865,FEMA4ImagesEEG,001,202726,
AMSA21.JPG,AMNE22.JPG,AMNE21.JPG,AMSA23.JPG,AMSA22.JPG,AMNE23.JPG,,,,,,,,,,,,,,,,,,,,,0,6,6,1,,,AMSA15.jpg,AMSA18.jpg,AMNE09.jpg,AMNE14.jpg,AMSA18.jpg,MS,2,num_6,16,num_6,0.700155879371,,,2018_Jan_19_1619,60.0048114865,FEMA4ImagesEEG,001,202726,
AFSA21.JPG,AFNE22.JPG,AFNE21.JPG,AFSA23.JPG,AFSA22.JPG,AFNE23.JPG,,,,,,,,,,,,,,,,,,,,,0,7,7,0,,,AMNE15.jpg,AMSA01.jpg,AMSA15.jpg,AMNE10.jpg,AMNE10.jpg,MN,1,num_4,32,num_8,1.08348285127,,,2018_Jan_19_1619,60.0048114865,FEMA4ImagesEEG,001,202726,
AFNE22.JPG,AFSA24.JPG,AFSA22.JPG,AFNE25.JPG,AFNE24.JPG,AFSA25.JPG,,,,,,,,,,,,,,,,,,,,,0,8,8,6,,,AMSA16.jpg,AMSA05.jpg,AMNE07.jpg,AMNE14.jpg,AMSA05.jpg,MS,2,num_6,16,num_6,2.18338502618,,,2018_Jan_19_1619,60.0048114865,FEMA4ImagesEEG,001,202726,
AMSA25.JPG,AMNE24.JPG,AMSA24.JPG,AMNE26.JPG,AMSA21.JPG,AMNE25.JPG,,,,,,,,,,,,,,,,,,,,,0,9,9,3,,,AMSA17.jpg,AMNE12.jpg,AMSA09.jpg,AMNE17.jpg,AMSA09.jpg,MS,2,num_2,32,num_4,1.91671279958,,,2018_Jan_19_1619,60.0048114865,FEMA4ImagesEEG,001,202726,
,,,,,,,,,,,,,,,,,,,,,,,,,,,,,,,,,,,,,,,,,,,space,8.66592810955,2018_Jan_19_1619,60.0048114865,FEMA4ImagesEEG,001,202726,
AFNE01.JPG,AFNE01.JPG,AFNE01.JPG,AFNE01.JPG,AFNE01.JPG,AFNE01.JPG,0,0,0,6,,,,,,,,,,,,,,,,,,,,,,,AFSA02.jpg,AFNE13.jpg,AFNE09.jpg,AFSA15.jpg,AFNE09.jpg,FN,3,num_2,32,num_8,0.683506586589,,,2018_Jan_19_1619,60.0048114865,FEMA4ImagesEEG,001,202726,
AFNE01.JPG,AFNE01.JPG,AFNE01.JPG,AFNE01.JPG,AFNE01.JPG,AFNE01.JPG,0,1,1,8,,,,,,,,,,,,,,,,,,,,,,,AFSA16.jpg,AFNE13.jpg,AFNE14.jpg,AFSA02.jpg,AFSA16.jpg,FS,4,num_8,32,num_4,1.10010456108,,,2018_Jan_19_1619,60.0048114865,FEMA4ImagesEEG,001,202726,
AFNE01.JPG,AFNE01.JPG,AFNE01.JPG,AFNE01.JPG,AFNE01.JPG,AFNE01.JPG,0,2,2,1,,,,,,,,,,,,,,,,,,,,,,,AFSA20.jpg,AFNE02.jpg,AFSA06.jpg,AFNE12.jpg,AFNE02.jpg,FN,3,num_6,16,num_6,0.700162615161,,,2018_Jan_19_1619,60.0048114865,FEMA4ImagesEEG,001,202726,
AFNE01.JPG,AFNE01.JPG,AFNE01.JPG,AFNE01.JPG,AFNE01.JPG,AFNE01.JPG,0,3,3,9,,,,,,,,,,,,,,,,,,,,,,,AFNE09.jpg,AFSA14.jpg,AFNE15.jpg,AFSA07.jpg,AFSA07.jpg,FS,4,num_4,32,num_8,1.05011338135,,,2018_Jan_19_1619,60.0048114865,FEMA4ImagesEEG,001,202726,
AFNE01.JPG,AFNE01.JPG,AFNE01.JPG,AFNE01.JPG,AFNE01.JPG,AFNE01.JPG,0,4,4,5,,,,,,,,,,,,,,,,,,,,,,,AFSA19.jpg,AFSA07.jpg,AFNE19.jpg,AFNE03.jpg,AFNE03.jpg,FN,3,num_4,16,num_4,2.21671825275,,,2018_Jan_19_1619,60.0048114865,FEMA4ImagesEEG,001,202726,
AFNE01.JPG,AFNE01.JPG,AFNE01.JPG,AFNE01.JPG,AFNE01.JPG,AFNE01.JPG,0,5,5,7,,,,,,,,,,,,,,,,,,,,,,,AFSA04.jpg,AFNE13.jpg,AFNE12.jpg,AFSA02.jpg,AFSA04.jpg,FS,4,num_8,32,num_6,1.10017865244,,,2018_Jan_19_1619,60.0048114865,FEMA4ImagesEEG,001,202726,
AFNE01.JPG,AFNE01.JPG,AFNE01.JPG,AFNE01.JPG,AFNE01.JPG,AFNE01.JPG,0,6,6,4,,,,,,,,,,,,,,,,,,,,,,,AFNE17.jpg,AFSA04.jpg,AFNE18.jpg,AFSA08.jpg,AFNE17.jpg,FN,3,num_8,16,num_8,0.9667681274,,,2018_Jan_19_1619,60.0048114865,FEMA4ImagesEEG,001,202726,
AFNE01.JPG,AFNE01.JPG,AFNE01.JPG,AFNE01.JPG,AFNE01.JPG,AFNE01.JPG,0,7,7,3,,,,,,,,,,,,,,,,,,,,,,,AFSA12.jpg,AFNE17.jpg,AFNE07.jpg,AFSA15.jpg,AFNE17.jpg,FN,3,num_6,32,num_8,1.03345350409,,,2018_Jan_19_1619,60.0048114865,FEMA4ImagesEEG,001,202726,
AFNE01.JPG,AFNE01.JPG,AFNE01.JPG,AFNE01.JPG,AFNE01.JPG,AFNE01.JPG,0,8,8,0,,,,,,,,,,,,,,,,,,,,,,,AFSA15.jpg,AFNE19.jpg,AFSA08.jpg,AFNE17.jpg,AFNE19.jpg,FN,3,num_6,32,num_2,1.01679170178,,,2018_Jan_19_1619,60.0048114865,FEMA4ImagesEEG,001,202726,
AFNE01.JPG,AFNE01.JPG,AFNE01.JPG,AFNE01.JPG,AFNE01.JPG,AFNE01.JPG,0,9,9,2,,,,,,,,,,,,,,,,,,,,,,,AFNE01.jpg,AFSA03.jpg,AFSA09.jpg,AFNE17.jpg,AFSA03.jpg,FS,4,num_6,32,num_8,0.866768768989,,,2018_Jan_19_1619,60.0048114865,FEMA4ImagesEEG,001,202726,
AFNE01.JPG,AFNE01.JPG,AFNE01.JPG,AFNE01.JPG,AFNE01.JPG,AFNE01.JPG,1,0,10,9,,,,,,,,,,,,,,,,,,,,,,,AFNE13.jpg,AFSA01.jpg,AFSA04.jpg,AFNE18.jpg,AFSA04.jpg,FS,4,num_2,16,num_2,0.950113702565,,,2018_Jan_19_1619,60.0048114865,FEMA4ImagesEEG,001,202726,
AFNE01.JPG,AFNE01.JPG,AFNE01.JPG,AFNE01.JPG,AFNE01.JPG,AFNE01.JPG,1,1,11,8,,,,,,,,,,,,,,,,,,,,,,,AFSA17.jpg,AFNE10.jpg,AFNE14.jpg,AFSA03.jpg,AFSA03.jpg,FS,4,num_4,32,num_8,1.05014481395,,,2018_Jan_19_1619,60.0048114865,FEMA4ImagesEEG,001,202726,
AFNE01.JPG,AFNE01.JPG,AFNE01.JPG,AFNE01.JPG,AFNE01.JPG,AFNE01.JPG,1,2,12,4,,,,,,,,,,,,,,,,,,,,,,,AFSA15.jpg,AFNE09.jpg,AFSA09.jpg,AFNE13.jpg,AFSA09.jpg,FS,4,num_2,16,num_2,0.900076977443,,,2018_Jan_19_1619,60.0048114865,FEMA4ImagesEEG,001,202726,
AFNE01.JPG,AFNE01.JPG,AFNE01.JPG,AFNE01.JPG,AFNE01.JPG,AFNE01.JPG,1,3,13,1,,,,,,,,,,,,,,,,,,,,,,,AFSA08.jpg,AFSA01.jpg,AFNE13.jpg,AFNE14.jpg,AFSA01.jpg,FS,4,num_6,16,num_6,0.916767004877,,,2018_Jan_19_1619,60.0048114865,FEMA4ImagesEEG,001,202726,
AFNE01.JPG,AFNE01.JPG,AFNE01.JPG,AFNE01.JPG,AFNE01.JPG,AFNE01.JPG,1,4,14,3,,,,,,,,,,,,,,,,,,,,,,,AFSA05.jpg,AFNE07.jpg,AFNE05.jpg,AFSA16.jpg,AFNE07.jpg,FN,3,num_6,16,num_6,1.25002678204,,,2018_Jan_19_1619,60.0048114865,FEMA4ImagesEEG,001,202726,
AFNE01.JPG,AFNE01.JPG,AFNE01.JPG,AFNE01.JPG,AFNE01.JPG,AFNE01.JPG,1,5,15,7,,,,,,,,,,,,,,,,,,,,,,,AFSA04.jpg,AFNE17.jpg,AFNE14.jpg,AFSA13.jpg,AFSA04.jpg,FS,4,num_8,32,num_2,1.7334047514,,,2018_Jan_19_1619,60.0048114865,FEMA4ImagesEEG,001,202726,
AFNE01.JPG,AFNE01.JPG,AFNE01.JPG,AFNE01.JPG,AFNE01.JPG,AFNE01.JPG,1,6,16,2,,,,,,,,,,,,,,,,,,,,,,,AFNE09.jpg,AFNE15.jpg,AFSA11.jpg,AFSA14.jpg,AFNE09.jpg,FN,3,num_8,32,num_4,1.35011338163,,,2018_Jan_19_1619,60.0048114865,FEMA4ImagesEEG,001,202726,
AFNE01.JPG,AFNE01.JPG,AFNE01.JPG,AFNE01.JPG,AFNE01.JPG,AFNE01.JPG,1,7,17,6,,,,,,,,,,,,,,,,,,,,,,,AFNE03.jpg,AFSA18.jpg,AFSA03.jpg,AFNE13.jpg,AFNE03.jpg,FN,3,num_8,16,num_8,1.43341886438,,,2018_Jan_19_1619,60.0048114865,FEMA4ImagesEEG,001,202726,
AFNE01.JPG,AFNE01.JPG,AFNE01.JPG,AFNE01.JPG,AFNE01.JPG,AFNE01.JPG,1,8,18,0,,,,,,,,,,,,,,,,,,,,,,,AFNE08.jpg,AFSA10.jpg,AFSA17.jpg,AFNE16.jpg,AFNE08.jpg,FN,3,num_8,32,num_2,3.59978317982,,,2018_Jan_19_1619,60.0048114865,FEMA4ImagesEEG,001,202726,
AFNE01.JPG,AFNE01.JPG,AFNE01.JPG,AFNE01.JPG,AFNE01.JPG,AFNE01.JPG,1,9,19,5,,,,,,,,,,,,,,,,,,,,,,,AFSA05.jpg,AFSA08.jpg,AFNE05.jpg,AFNE04.jpg,AFNE04.jpg,FN,3,num_4,32,num_8,1.28329970874,,,2018_Jan_19_1619,60.0048114865,FEMA4ImagesEEG,001,202726,
AFNE01.JPG,AFNE01.JPG,AFNE01.JPG,AFNE01.JPG,AFNE01.JPG,AFNE01.JPG,2,0,20,8,,,,,,,,,,,,,,,,,,,,,,,AFSA13.jpg,AFNE06.jpg,AFNE16.jpg,AFSA15.jpg,AFNE16.jpg,FN,3,num_2,32,num_6,0.800114825368,,,2018_Jan_19_1619,60.0048114865,FEMA4ImagesEEG,001,202726,
AFNE01.JPG,AFNE01.JPG,AFNE01.JPG,AFNE01.JPG,AFNE01.JPG,AFNE01.JPG,2,1,21,2,,,,,,,,,,,,,,,,,,,,,,,AFNE06.jpg,AFSA19.jpg,AFSA03.jpg,AFNE15.jpg,AFSA03.jpg,FS,4,num_2,16,num_2,1.06654296769,,,2018_Jan_19_1619,60.0048114865,FEMA4ImagesEEG,001,202726,
AFNE01.JPG,AFNE01.JPG,AFNE01.JPG,AFNE01.JPG,AFNE01.JPG,AFNE01.JPG,2,2,22,4,,,,,,,,,,,,,,,,,,,,,,,AFNE15.jpg,AFSA12.jpg,AFSA11.jpg,AFNE09.jpg,AFNE09.jpg,FN,3,num_4,16,num_4,1.81674519461,,,2018_Jan_19_1619,60.0048114865,FEMA4ImagesEEG,001,202726,
AFNE01.JPG,AFNE01.JPG,AFNE01.JPG,AFNE01.JPG,AFNE01.JPG,AFNE01.JPG,2,3,23,5,,,,,,,,,,,,,,,,,,,,,,,AFSA05.jpg,AFSA14.jpg,AFNE02.jpg,AFNE13.jpg,AFNE13.jpg,FN,3,num_4,32,num_6,0.766808861401,,,2018_Jan_19_1619,60.0048114865,FEMA4ImagesEEG,001,202726,
AFNE01.JPG,AFNE01.JPG,AFNE01.JPG,AFNE01.JPG,AFNE01.JPG,AFNE01.JPG,2,4,24,1,,,,,,,,,,,,,,,,,,,,,,,AFNE09.jpg,AFSA12.jpg,AFSA07.jpg,AFNE17.jpg,AFSA07.jpg,FS,4,num_2,32,num_8,1.43340475159,,,2018_Jan_19_1619,60.0048114865,FEMA4ImagesEEG,001,202726,
AFNE01.JPG,AFNE01.JPG,AFNE01.JPG,AFNE01.JPG,AFNE01.JPG,AFNE01.JPG,2,5,25,3,,,,,,,,,,,,,,,,,,,,,,,AFSA15.jpg,AFNE02.jpg,AFNE12.jpg,AFSA12.jpg,AFNE12.jpg,FN,3,num_2,16,num_2,0.93345959764,,,2018_Jan_19_1619,60.0048114865,FEMA4ImagesEEG,001,202726,
AFNE01.JPG,AFNE01.JPG,AFNE01.JPG,AFNE01.JPG,AFNE01.JPG,AFNE01.JPG,2,6,26,9,,,,,,,,,,,,,,,,,,,,,,,AFNE05.jpg,AFNE14.jpg,AFSA12.jpg,AFSA17.jpg,AFNE05.jpg,FN,3,num_8,16,num_8,1.11680292804,,,2018_Jan_19_1619,60.0048114865,FEMA4ImagesEEG,001,202726,
AFNE01.JPG,AFNE01.JPG,AFNE01.JPG,AFNE01.JPG,AFNE01.JPG,AFNE01.JPG,2,7,27,7,,,,,,,,,,,,,,,,,,,,,,,AFNE10.jpg,AFNE15.jpg,AFSA17.jpg,AFSA13.jpg,AFNE10.jpg,FN,3,num_8,32,num_6,2.21674647741,,,2018_Jan_19_1619,60.0048114865,FEMA4ImagesEEG,001,202726,
AFNE01.JPG,AFNE01.JPG,AFNE01.JPG,AFNE01.JPG,AFNE01.JPG,AFNE01.JPG,2,8,28,0,,,,,,,,,,,,,,,,,,,,,,,AFSA09.jpg,AFNE19.jpg,AFNE02.jpg,AFSA02.jpg,AFNE02.jpg,FN,3,num_2,16,num_2,1.78342447709,,,2018_Jan_19_1619,60.0048114865,FEMA4ImagesEEG,001,202726,
AFNE01.JPG,AFNE01.JPG,AFNE01.JPG,AFNE01.JPG,AFNE01.JPG,AFNE01.JPG,2,9,29,6,,,,,,,,,,,,,,,,,,,,,,,AFNE08.jpg,AFNE09.jpg,AFSA07.jpg,AFSA17.jpg,AFNE08.jpg,FN,3,num_8,32,num_6,0.966767486185,,,2018_Jan_19_1619,60.0048114865,FEMA4ImagesEEG,001,202726,
AFNE01.JPG,AFNE01.JPG,AFNE01.JPG,AFNE01.JPG,AFNE01.JPG,AFNE01.JPG,3,0,30,5,,,,,,,,,,,,,,,,,,,,,,,AFSA07.jpg,AFNE05.jpg,AFNE20.jpg,AFSA02.jpg,AFSA07.jpg,FS,4,num_8,16,num_8,0.650159888901,,,2018_Jan_19_1619,60.0048114865,FEMA4ImagesEEG,001,202726,
AFNE01.JPG,AFNE01.JPG,AFNE01.JPG,AFNE01.JPG,AFNE01.JPG,AFNE01.JPG,3,1,31,7,,,,,,,,,,,,,,,,,,,,,,,AFSA01.jpg,AFNE11.jpg,AFSA13.jpg,AFNE16.jpg,AFNE16.jpg,FN,3,num_4,16,num_4,2.18338278076,,,2018_Jan_19_1619,60.0048114865,FEMA4ImagesEEG,001,202726,
AFNE01.JPG,AFNE01.JPG,AFNE01.JPG,AFNE01.JPG,AFNE01.JPG,AFNE01.JPG,3,2,32,9,,,,,,,,,,,,,,,,,,,,,,,AFSA12.jpg,AFNE17.jpg,AFNE13.jpg,AFSA03.jpg,AFSA12.jpg,FS,4,num_8,16,num_8,0.616821851581,,,2018_Jan_19_1619,60.0048114865,FEMA4ImagesEEG,001,202726,
AFNE01.JPG,AFNE01.JPG,AFNE01.JPG,AFNE01.JPG,AFNE01.JPG,AFNE01.JPG,3,3,33,6,,,,,,,,,,,,,,,,,,,,,,,AFSA01.jpg,AFNE08.jpg,AFSA06.jpg,AFNE01.jpg,AFSA01.jpg,FS,4,num_8,32,num_2,1.11675385479,,,2018_Jan_19_1619,60.0048114865,FEMA4ImagesEEG,001,202726,
AFNE01.JPG,AFNE01.JPG,AFNE01.JPG,AFNE01.JPG,AFNE01.JPG,AFNE01.JPG,3,4,34,3,,,,,,,,,,,,,,,,,,,,,,,AFNE18.jpg,AFSA07.jpg,AFNE13.jpg,AFSA10.jpg,AFSA10.jpg,FS,4,num_4,16,num_4,1.0499661616,,,2018_Jan_19_1619,60.0048114865,FEMA4ImagesEEG,001,202726,
AFNE01.JPG,AFNE01.JPG,AFNE01.JPG,AFNE01.JPG,AFNE01.JPG,AFNE01.JPG,3,5,35,4,,,,,,,,,,,,,,,,,,,,,,,AFSA18.jpg,AFNE15.jpg,AFSA20.jpg,AFNE17.jpg,AFNE15.jpg,FN,3,num_6,16,num_6,0.650125569664,,,2018_Jan_19_1619,60.0048114865,FEMA4ImagesEEG,001,202726,
AFNE01.JPG,AFNE01.JPG,AFNE01.JPG,AFNE01.JPG,AFNE01.JPG,AFNE01.JPG,3,6,36,1,,,,,,,,,,,,,,,,,,,,,,,AFSA05.jpg,AFSA13.jpg,AFNE03.jpg,AFNE09.jpg,AFNE03.jpg,FN,3,num_2,32,num_8,1.05014064489,,,2018_Jan_19_1619,60.0048114865,FEMA4ImagesEEG,001,202726,
AFNE01.JPG,AFNE01.JPG,AFNE01.JPG,AFNE01.JPG,AFNE01.JPG,AFNE01.JPG,3,7,37,2,,,,,,,,,,,,,,,,,,,,,,,AFNE20.jpg,AFNE18.jpg,AFSA12.jpg,AFSA10.jpg,AFSA12.jpg,FS,4,num_2,16,num_2,1.88339176169,,,2018_Jan_19_1619,60.0048114865,FEMA4ImagesEEG,001,202726,
AFNE01.JPG,AFNE01.JPG,AFNE01.JPG,AFNE01.JPG,AFNE01.JPG,AFNE01.JPG,3,8,38,0,,,,,,,,,,,,,,,,,,,,,,,AFNE12.jpg,AFSA19.jpg,AFNE09.jpg,AFSA03.jpg,AFSA19.jpg,FS,4,num_6,16,num_6,0.650156681426,,,2018_Jan_19_1619,60.0048114865,FEMA4ImagesEEG,001,202726,
AFNE01.JPG,AFNE01.JPG,AFNE01.JPG,AFNE01.JPG,AFNE01.JPG,AFNE01.JPG,3,9,39,8,,,,,,,,,,,,,,,,,,,,,,,AFNE09.jpg,AFSA14.jpg,AFNE14.jpg,AFSA08.jpg,AFSA14.jpg,FS,4,num_6,16,num_6,0.583495681174,,,2018_Jan_19_1619,60.0048114865,FEMA4ImagesEEG,001,202726,
AFNE01.JPG,AFNE01.JPG,AFNE01.JPG,AFNE01.JPG,AFNE01.JPG,AFNE01.JPG,4,0,40,3,,,,,,,,,,,,,,,,,,,,,,,AFSA05.jpg,AFSA14.jpg,AFNE17.jpg,AFNE11.jpg,AFSA14.jpg,FS,4,num_6,32,num_8,0.616790098138,,,2018_Jan_19_1619,60.0048114865,FEMA4ImagesEEG,001,202726,
AFNE01.JPG,AFNE01.JPG,AFNE01.JPG,AFNE01.JPG,AFNE01.JPG,AFNE01.JPG,4,1,41,2,,,,,,,,,,,,,,,,,,,,,,,AFNE07.jpg,AFSA12.jpg,AFNE10.jpg,AFSA02.jpg,AFSA02.jpg,FS,4,num_4,16,num_4,0.90008467529,,,2018_Jan_19_1619,60.0048114865,FEMA4ImagesEEG,001,202726,
AFNE01.JPG,AFNE01.JPG,AFNE01.JPG,AFNE01.JPG,AFNE01.JPG,AFNE01.JPG,4,2,42,5,,,,,,,,,,,,,,,,,,,,,,,AFSA05.jpg,AFNE17.jpg,AFSA04.jpg,AFNE02.jpg,AFNE17.jpg,FN,3,num_6,16,num_6,1.33346440876,,,2018_Jan_19_1619,60.0048114865,FEMA4ImagesEEG,001,202726,
AFNE01.JPG,AFNE01.JPG,AFNE01.JPG,AFNE01.JPG,AFNE01.JPG,AFNE01.JPG,4,3,43,1,,,,,,,,,,,,,,,,,,,,,,,AFSA10.jpg,AFNE05.jpg,AFSA02.jpg,AFNE16.jpg,AFNE05.jpg,FN,3,num_6,32,num_8,1.05014417227,,,2018_Jan_19_1619,60.0048114865,FEMA4ImagesEEG,001,202726,
AFNE01.JPG,AFNE01.JPG,AFNE01.JPG,AFNE01.JPG,AFNE01.JPG,AFNE01.JPG,4,4,44,0,,,,,,,,,,,,,,,,,,,,,,,AFSA02.jpg,AFSA04.jpg,AFNE02.jpg,AFNE07.jpg,AFNE02.jpg,FN,3,num_2,32,num_6,0.983446928672,,,2018_Jan_19_1619,60.0048114865,FEMA4ImagesEEG,001,202726,
AFNE01.JPG,AFNE01.JPG,AFNE01.JPG,AFNE01.JPG,AFNE01.JPG,AFNE01.JPG,4,5,45,9,,,,,,,,,,,,,,,,,,,,,,,AFSA03.jpg,AFNE01.jpg,AFSA09.jpg,AFNE05.jpg,AFSA09.jpg,FS,4,num_2,16,num_2,1.33345190017,,,2018_Jan_19_1619,60.0048114865,FEMA4ImagesEEG,001,202726,
AFNE01.JPG,AFNE01.JPG,AFNE01.JPG,AFNE01.JPG,AFNE01.JPG,AFNE01.JPG,4,6,46,6,,,,,,,,,,,,,,,,,,,,,,,AFNE13.jpg,AFSA10.jpg,AFSA08.jpg,AFNE02.jpg,AFSA10.jpg,FS,4,num_6,16,num_6,1.58372918004,,,2018_Jan_19_1619,60.0048114865,FEMA4ImagesEEG,001,202726,
AFNE01.JPG,AFNE01.JPG,AFNE01.JPG,AFNE01.JPG,AFNE01.JPG,AFNE01.JPG,4,7,47,4,,,,,,,,,,,,,,,,,,,,,,,AFNE13.jpg,AFNE14.jpg,AFSA20.jpg,AFSA02.jpg,AFNE13.jpg,FN,3,num_8,32,num_4,1.15010985313,,,2018_Jan_19_1619,60.0048114865,FEMA4ImagesEEG,001,202726,
AFNE01.JPG,AFNE01.JPG,AFNE01.JPG,AFNE01.JPG,AFNE01.JPG,AFNE01.JPG,4,8,48,8,,,,,,,,,,,,,,,,,,,,,,,AFNE17.jpg,AFNE07.jpg,AFSA12.jpg,AFSA03.jpg,AFNE07.jpg,FN,3,num_6,32,num_8,1.0167599488,,,2018_Jan_19_1619,60.0048114865,FEMA4ImagesEEG,001,202726,
AFNE01.JPG,AFNE01.JPG,AFNE01.JPG,AFNE01.JPG,AFNE01.JPG,AFNE01.JPG,4,9,49,7,,,,,,,,,,,,,,,,,,,,,,,AFSA03.jpg,AFSA10.jpg,AFNE12.jpg,AFNE07.jpg,AFSA03.jpg,FS,4,num_8,16,num_8,0.583472267259,,,2018_Jan_19_1619,60.0048114865,FEMA4ImagesEEG,001,202726,
AFNE01.JPG,AFNE01.JPG,AFNE01.JPG,AFNE01.JPG,AFNE01.JPG,AFNE01.JPG,5,0,50,0,,,,,,,,,,,,,,,,,,,,,,,AFSA12.jpg,AFNE09.jpg,AFNE03.jpg,AFSA14.jpg,AFNE09.jpg,FN,3,num_6,16,num_6,1.30010584416,,,2018_Jan_19_1619,60.0048114865,FEMA4ImagesEEG,001,202726,
AFNE01.JPG,AFNE01.JPG,AFNE01.JPG,AFNE01.JPG,AFNE01.JPG,AFNE01.JPG,5,1,51,9,,,,,,,,,,,,,,,,,,,,,,,AFNE01.jpg,AFSA16.jpg,AFSA02.jpg,AFNE18.jpg,AFSA16.jpg,FS,4,num_6,32,num_2,2.28308064351,,,2018_Jan_19_1619,60.0048114865,FEMA4ImagesEEG,001,202726,
AFNE01.JPG,AFNE01.JPG,AFNE01.JPG,AFNE01.JPG,AFNE01.JPG,AFNE01.JPG,5,2,52,5,,,,,,,,,,,,,,,,,,,,,,,AFSA13.jpg,AFSA20.jpg,AFNE15.jpg,AFNE05.jpg,AFSA13.jpg,FS,4,num_8,32,num_4,1.43325753184,,,2018_Jan_19_1619,60.0048114865,FEMA4ImagesEEG,001,202726,
AFNE01.JPG,AFNE01.JPG,AFNE01.JPG,AFNE01.JPG,AFNE01.JPG,AFNE01.JPG,5,3,53,2,,,,,,,,,,,,,,,,,,,,,,,AFSA11.jpg,AFSA08.jpg,AFNE12.jpg,AFNE04.jpg,AFSA11.jpg,FS,4,num_8,16,num_8,1.01677758945,,,2018_Jan_19_1619,60.0048114865,FEMA4ImagesEEG,001,202726,
AFNE01.JPG,AFNE01.JPG,AFNE01.JPG,AFNE01.JPG,AFNE01.JPG,AFNE01.JPG,5,4,54,4,,,,,,,,,,,,,,,,,,,,,,,AFNE01.jpg,AFNE19.jpg,AFSA11.jpg,AFSA03.jpg,AFSA03.jpg,FS,4,num_4,32,num_2,1.1834770781,,,2018_Jan_19_1619,60.0048114865,FEMA4ImagesEEG,001,202726,
AFNE01.JPG,AFNE01.JPG,AFNE01.JPG,AFNE01.JPG,AFNE01.JPG,AFNE01.JPG,5,5,55,1,,,,,,,,,,,,,,,,,,,,,,,AFSA19.jpg,AFNE01.jpg,AFNE03.jpg,AFSA10.jpg,AFNE01.jpg,FN,3,num_6,32,num_8,2.11667815968,,,2018_Jan_19_1619,60.0048114865,FEMA4ImagesEEG,001,202726,
AFNE01.JPG,AFNE01.JPG,AFNE01.JPG,AFNE01.JPG,AFNE01.JPG,AFNE01.JPG,5,6,56,6,,,,,,,,,,,,,,,,,,,,,,,AFSA17.jpg,AFNE03.jpg,AFSA13.jpg,AFNE01.jpg,AFSA17.jpg,FS,4,num_8,32,num_2,1.16676748591,,,2018_Jan_19_1619,60.0048114865,FEMA4ImagesEEG,001,202726,
AFNE01.JPG,AFNE01.JPG,AFNE01.JPG,AFNE01.JPG,AFNE01.JPG,AFNE01.JPG,5,7,57,3,,,,,,,,,,,,,,,,,,,,,,,AFNE18.jpg,AFSA14.jpg,AFNE09.jpg,AFSA06.jpg,AFNE09.jpg,FN,3,num_2,32,num_8,0.800183784217,,,2018_Jan_19_1619,60.0048114865,FEMA4ImagesEEG,001,202726,
AFNE01.JPG,AFNE01.JPG,AFNE01.JPG,AFNE01.JPG,AFNE01.JPG,AFNE01.JPG,5,8,58,7,,,,,,,,,,,,,,,,,,,,,,,AFNE01.jpg,AFNE06.jpg,AFSA18.jpg,AFSA15.jpg,AFNE01.jpg,FN,3,num_8,32,num_4,0.70015844563,,,2018_Jan_19_1619,60.0048114865,FEMA4ImagesEEG,001,202726,
AFNE01.JPG,AFNE01.JPG,AFNE01.JPG,AFNE01.JPG,AFNE01.JPG,AFNE01.JPG,5,9,59,8,,,,,,,,,,,,,,,,,,,,,,,AFSA17.jpg,AFSA06.jpg,AFNE02.jpg,AFNE10.jpg,AFSA17.jpg,FS,4,num_8,16,num_8,1.06677871151,,,2018_Jan_19_1619,60.0048114865,FEMA4ImagesEEG,001,202726,
,,,,,,,,,,,,,,,,,,,,,,,,,,,,,,,,,,,,,,,,,,,space,10.4657375901,2018_Jan_19_1619,60.0048114865,FEMA4ImagesEEG,001,202726,
AFNE01.JPG,AFNE01.JPG,AFNE01.JPG,AFNE01.JPG,AFNE01.JPG,AFNE01.JPG,,,,,0,0,0,9,,,,,,,,,,,,,,,,,,,AMSA14.jpg,AMSA12.jpg,AMNE15.jpg,AMNE20.jpg,AMNE15.jpg,MN,1,num_2,16,num_2,1.31673525134,,,2018_Jan_19_1619,60.0048114865,FEMA4ImagesEEG,001,202726,
AFNE01.JPG,AFNE01.JPG,AFNE01.JPG,AFNE01.JPG,AFNE01.JPG,AFNE01.JPG,,,,,0,1,1,0,,,,,,,,,,,,,,,,,,,AMSA20.jpg,AMNE13.jpg,AMNE16.jpg,AMSA16.jpg,AMSA16.jpg,MS,2,num_4,16,num_4,1.30008595809,,,2018_Jan_19_1619,60.0048114865,FEMA4ImagesEEG,001,202726,
AFNE01.JPG,AFNE01.JPG,AFNE01.JPG,AFNE01.JPG,AFNE01.JPG,AFNE01.JPG,,,,,0,2,2,2,,,,,,,,,,,,,,,,,,,AMSA11.jpg,AMNE04.jpg,AMSA19.jpg,AMNE14.jpg,AMNE04.jpg,MN,1,num_6,16,num_6,0.883518453687,,,2018_Jan_19_1619,60.0048114865,FEMA4ImagesEEG,001,202726,
AFNE01.JPG,AFNE01.JPG,AFNE01.JPG,AFNE01.JPG,AFNE01.JPG,AFNE01.JPG,,,,,0,3,3,6,,,,,,,,,,,,,,,,,,,AMSA15.jpg,AMSA03.jpg,AMNE05.jpg,AMNE12.jpg,AMNE12.jpg,MN,1,num_4,16,num_4,1.31674198713,,,2018_Jan_19_1619,60.0048114865,FEMA4ImagesEEG,001,202726,
AFNE01.JPG,AFNE01.JPG,AFNE01.JPG,AFNE01.JPG,AFNE01.JPG,AFNE01.JPG,,,,,0,4,4,1,,,,,,,,,,,,,,,,,,,AMSA14.jpg,AMNE18.jpg,AMNE03.jpg,AMSA04.jpg,AMSA14.jpg,MS,2,num_8,16,num_8,1.05020158505,,,2018_Jan_19_1619,60.0048114865,FEMA4ImagesEEG,001,202726,
AFNE01.JPG,AFNE01.JPG,AFNE01.JPG,AFNE01.JPG,AFNE01.JPG,AFNE01.JPG,,,,,0,5,5,8,,,,,,,,,,,,,,,,,,,AMSA10.jpg,AMSA15.jpg,AMNE14.jpg,AMNE16.jpg,AMSA10.jpg,MS,2,num_8,32,num_4,1.25010440079,,,2018_Jan_19_1619,60.0048114865,FEMA4ImagesEEG,001,202726,
AFNE01.JPG,AFNE01.JPG,AFNE01.JPG,AFNE01.JPG,AFNE01.JPG,AFNE01.JPG,,,,,0,6,6,7,,,,,,,,,,,,,,,,,,,AMNE12.jpg,AMSA19.jpg,AMSA07.jpg,AMNE13.jpg,AMSA19.jpg,MS,2,num_6,32,num_2,1.46672161995,,,2018_Jan_19_1619,60.0048114865,FEMA4ImagesEEG,001,202726,
AFNE01.JPG,AFNE01.JPG,AFNE01.JPG,AFNE01.JPG,AFNE01.JPG,AFNE01.JPG,,,,,0,7,7,3,,,,,,,,,,,,,,,,,,,AMNE05.jpg,AMSA12.jpg,AMNE15.jpg,AMSA06.jpg,AMNE15.jpg,MN,1,num_2,32,num_4,1.3834337783,,,2018_Jan_19_1619,60.0048114865,FEMA4ImagesEEG,001,202726,
AFNE01.JPG,AFNE01.JPG,AFNE01.JPG,AFNE01.JPG,AFNE01.JPG,AFNE01.JPG,,,,,0,8,8,4,,,,,,,,,,,,,,,,,,,AMNE14.jpg,AMSA11.jpg,AMSA08.jpg,AMNE11.jpg,AMSA08.jpg,MS,2,num_2,32,num_6,1.38342576008,,,2018_Jan_19_1619,60.0048114865,FEMA4ImagesEEG,001,202726,
AFNE01.JPG,AFNE01.JPG,AFNE01.JPG,AFNE01.JPG,AFNE01.JPG,AFNE01.JPG,,,,,0,9,9,5,,,,,,,,,,,,,,,,,,,AMSA12.jpg,AMSA18.jpg,AMNE10.jpg,AMNE11.jpg,AMNE10.jpg,MN,1,num_2,16,num_2,1.06677967403,,,2018_Jan_19_1619,60.0048114865,FEMA4ImagesEEG,001,202726,
AFNE01.JPG,AFNE01.JPG,AFNE01.JPG,AFNE01.JPG,AFNE01.JPG,AFNE01.JPG,,,,,1,0,10,4,,,,,,,,,,,,,,,,,,,AMNE14.jpg,AMSA15.jpg,AMSA18.jpg,AMNE15.jpg,AMNE14.jpg,MN,1,num_8,16,num_8,0.900132786483,,,2018_Jan_19_1619,60.0048114865,FEMA4ImagesEEG,001,202726,
AFNE01.JPG,AFNE01.JPG,AFNE01.JPG,AFNE01.JPG,AFNE01.JPG,AFNE01.JPG,,,,,1,1,11,1,,,,,,,,,,,,,,,,,,,AMNE06.jpg,AMSA02.jpg,AMNE07.jpg,AMSA14.jpg,AMNE06.jpg,MN,1,num_8,16,num_8,1.96672033705,,,2018_Jan_19_1619,60.0048114865,FEMA4ImagesEEG,001,202726,
AFNE01.JPG,AFNE01.JPG,AFNE01.JPG,AFNE01.JPG,AFNE01.JPG,AFNE01.JPG,,,,,1,2,12,7,,,,,,,,,,,,,,,,,,,AMNE13.jpg,AMNE12.jpg,AMSA01.jpg,AMSA02.jpg,AMSA01.jpg,MS,2,num_2,16,num_2,1.48336898861,,,2018_Jan_19_1619,60.0048114865,FEMA4ImagesEEG,001,202726,
AFNE01.JPG,AFNE01.JPG,AFNE01.JPG,AFNE01.JPG,AFNE01.JPG,AFNE01.JPG,,,,,1,3,13,0,,,,,,,,,,,,,,,,,,,AMSA19.jpg,AMNE07.jpg,AMSA01.jpg,AMNE16.jpg,AMNE07.jpg,MN,1,num_6,32,num_4,0.833468578756,,,2018_Jan_19_1619,60.0048114865,FEMA4ImagesEEG,001,202726,
AFNE01.JPG,AFNE01.JPG,AFNE01.JPG,AFNE01.JPG,AFNE01.JPG,AFNE01.JPG,,,,,1,4,14,3,,,,,,,,,,,,,,,,,,,AMSA02.jpg,AMSA10.jpg,AMNE18.jpg,AMNE20.jpg,AMSA02.jpg,MS,2,num_8,16,num_8,0.883460720535,,,2018_Jan_19_1619,60.0048114865,FEMA4ImagesEEG,001,202726,
AFNE01.JPG,AFNE01.JPG,AFNE01.JPG,AFNE01.JPG,AFNE01.JPG,AFNE01.JPG,,,,,1,5,15,9,,,,,,,,,,,,,,,,,,,AMNE14.jpg,AMNE09.jpg,AMSA04.jpg,AMSA17.jpg,AMSA17.jpg,MS,2,num_4,32,num_2,2.00003816793,,,2018_Jan_19_1619,60.0048114865,FEMA4ImagesEEG,001,202726,
AFNE01.JPG,AFNE01.JPG,AFNE01.JPG,AFNE01.JPG,AFNE01.JPG,AFNE01.JPG,,,,,1,6,16,6,,,,,,,,,,,,,,,,,,,AMSA19.jpg,AMNE19.jpg,AMNE03.jpg,AMSA12.jpg,AMSA19.jpg,MS,2,num_8,16,num_8,1.36681944598,,,2018_Jan_19_1619,60.0048114865,FEMA4ImagesEEG,001,202726,
AFNE01.JPG,AFNE01.JPG,AFNE01.JPG,AFNE01.JPG,AFNE01.JPG,AFNE01.JPG,,,,,1,7,17,2,,,,,,,,,,,,,,,,,,,AMNE12.jpg,AMNE09.jpg,AMSA07.jpg,AMSA15.jpg,AMNE09.jpg,MN,1,num_6,32,num_4,1.09995862423,,,2018_Jan_19_1619,60.0048114865,FEMA4ImagesEEG,001,202726,
AFNE01.JPG,AFNE01.JPG,AFNE01.JPG,AFNE01.JPG,AFNE01.JPG,AFNE01.JPG,,,,,1,8,18,5,,,,,,,,,,,,,,,,,,,AMNE04.jpg,AMNE08.jpg,AMSA16.jpg,AMSA13.jpg,AMNE04.jpg,MN,1,num_8,16,num_8,0.516858094838,,,2018_Jan_19_1619,60.0048114865,FEMA4ImagesEEG,001,202726,
AFNE01.JPG,AFNE01.JPG,AFNE01.JPG,AFNE01.JPG,AFNE01.JPG,AFNE01.JPG,,,,,1,9,19,8,,,,,,,,,,,,,,,,,,,AMNE12.jpg,AMSA10.jpg,AMNE08.jpg,AMSA02.jpg,AMSA02.jpg,MS,2,num_4,16,num_4,0.650179454125,,,2018_Jan_19_1619,60.0048114865,FEMA4ImagesEEG,001,202726,
AFNE01.JPG,AFNE01.JPG,AFNE01.JPG,AFNE01.JPG,AFNE01.JPG,AFNE01.JPG,,,,,2,0,20,3,,,,,,,,,,,,,,,,,,,AMNE02.jpg,AMSA02.jpg,AMNE17.jpg,AMSA06.jpg,AMSA02.jpg,MS,2,num_6,16,num_6,0.800141446292,,,2018_Jan_19_1619,60.0048114865,FEMA4ImagesEEG,001,202726,
AFNE01.JPG,AFNE01.JPG,AFNE01.JPG,AFNE01.JPG,AFNE01.JPG,AFNE01.JPG,,,,,2,1,21,7,,,,,,,,,,,,,,,,,,,AMNE01.jpg,AMNE09.jpg,AMSA09.jpg,AMSA18.jpg,AMSA09.jpg,MS,2,num_2,16,num_2,1.38342992961,,,2018_Jan_19_1619,60.0048114865,FEMA4ImagesEEG,001,202726,
AFNE01.JPG,AFNE01.JPG,AFNE01.JPG,AFNE01.JPG,AFNE01.JPG,AFNE01.JPG,,,,,2,2,22,9,,,,,,,,,,,,,,,,,,,AMNE19.jpg,AMSA05.jpg,AMNE03.jpg,AMSA10.jpg,AMSA10.jpg,MS,2,num_4,32,num_6,1.03347563464,,,2018_Jan_19_1619,60.0048114865,FEMA4ImagesEEG,001,202726,
AFNE01.JPG,AFNE01.JPG,AFNE01.JPG,AFNE01.JPG,AFNE01.JPG,AFNE01.JPG,,,,,2,3,23,0,,,,,,,,,,,,,,,,,,,AMSA06.jpg,AMNE01.jpg,AMSA12.jpg,AMNE18.jpg,AMSA06.jpg,MS,2,num_8,16,num_8,1.01682441728,,,2018_Jan_19_1619,60.0048114865,FEMA4ImagesEEG,001,202726,
AFNE01.JPG,AFNE01.JPG,AFNE01.JPG,AFNE01.JPG,AFNE01.JPG,AFNE01.JPG,,,,,2,4,24,8,,,,,,,,,,,,,,,,,,,AMNE17.jpg,AMNE03.jpg,AMSA12.jpg,AMSA20.jpg,AMNE17.jpg,MN,1,num_8,16,num_8,0.866733166855,,,2018_Jan_19_1619,60.0048114865,FEMA4ImagesEEG,001,202726,
AFNE01.JPG,AFNE01.JPG,AFNE01.JPG,AFNE01.JPG,AFNE01.JPG,AFNE01.JPG,,,,,2,5,25,5,,,,,,,,,,,,,,,,,,,AMNE11.jpg,AMSA14.jpg,AMSA10.jpg,AMNE15.jpg,AMNE11.jpg,MN,1,num_8,32,num_2,2.76662026625,,,2018_Jan_19_1619,60.0048114865,FEMA4ImagesEEG,001,202726,
AFNE01.JPG,AFNE01.JPG,AFNE01.JPG,AFNE01.JPG,AFNE01.JPG,AFNE01.JPG,,,,,2,6,26,2,,,,,,,,,,,,,,,,,,,AMNE14.jpg,AMSA17.jpg,AMSA03.jpg,AMNE19.jpg,AMNE14.jpg,MN,1,num_8,16,num_8,1.86672707275,,,2018_Jan_19_1619,60.0048114865,FEMA4ImagesEEG,001,202726,
AFNE01.JPG,AFNE01.JPG,AFNE01.JPG,AFNE01.JPG,AFNE01.JPG,AFNE01.JPG,,,,,2,7,27,6,,,,,,,,,,,,,,,,,,,AMSA02.jpg,AMNE11.jpg,AMNE01.jpg,AMSA08.jpg,AMSA02.jpg,MS,2,num_8,16,num_8,1.06682265317,,,2018_Jan_19_1619,60.0048114865,FEMA4ImagesEEG,001,202726,
AFNE01.JPG,AFNE01.JPG,AFNE01.JPG,AFNE01.JPG,AFNE01.JPG,AFNE01.JPG,,,,,2,8,28,4,,,,,,,,,,,,,,,,,,,AMNE03.jpg,AMSA16.jpg,AMNE08.jpg,AMSA09.jpg,AMNE03.jpg,MN,1,num_8,32,num_2,1.05014545517,,,2018_Jan_19_1619,60.0048114865,FEMA4ImagesEEG,001,202726,
AFNE01.JPG,AFNE01.JPG,AFNE01.JPG,AFNE01.JPG,AFNE01.JPG,AFNE01.JPG,,,,,2,9,29,1,,,,,,,,,,,,,,,,,,,AMNE03.jpg,AMNE17.jpg,AMSA06.jpg,AMSA03.jpg,AMSA03.jpg,MS,2,num_4,16,num_4,0.933470182121,,,2018_Jan_19_1619,60.0048114865,FEMA4ImagesEEG,001,202726,
AFNE01.JPG,AFNE01.JPG,AFNE01.JPG,AFNE01.JPG,AFNE01.JPG,AFNE01.JPG,,,,,3,0,30,5,,,,,,,,,,,,,,,,,,,AMSA15.jpg,AMNE14.jpg,AMNE01.jpg,AMSA18.jpg,AMSA15.jpg,MS,2,num_8,16,num_8,1.18349536043,,,2018_Jan_19_1619,60.0048114865,FEMA4ImagesEEG,001,202726,
AFNE01.JPG,AFNE01.JPG,AFNE01.JPG,AFNE01.JPG,AFNE01.JPG,AFNE01.JPG,,,,,3,1,31,3,,,,,,,,,,,,,,,,,,,AMNE15.jpg,AMNE19.jpg,AMSA05.jpg,AMSA03.jpg,AMSA03.jpg,MS,2,num_4,16,num_4,0.983477078378,,,2018_Jan_19_1619,60.0048114865,FEMA4ImagesEEG,001,202726,
AFNE01.JPG,AFNE01.JPG,AFNE01.JPG,AFNE01.JPG,AFNE01.JPG,AFNE01.JPG,,,,,3,2,32,0,,,,,,,,,,,,,,,,,,,AMNE15.jpg,AMSA05.jpg,AMSA19.jpg,AMNE07.jpg,AMSA05.jpg,MS,2,num_6,16,num_6,1.53339833673,,,2018_Jan_19_1619,60.0048114865,FEMA4ImagesEEG,001,202726,
AFNE01.JPG,AFNE01.JPG,AFNE01.JPG,AFNE01.JPG,AFNE01.JPG,AFNE01.JPG,,,,,3,3,33,9,,,,,,,,,,,,,,,,,,,AMSA15.jpg,AMNE11.jpg,AMSA19.jpg,AMNE16.jpg,AMSA15.jpg,MS,2,num_8,16,num_8,1.33344965521,,,2018_Jan_19_1619,60.0048114865,FEMA4ImagesEEG,001,202726,
AFNE01.JPG,AFNE01.JPG,AFNE01.JPG,AFNE01.JPG,AFNE01.JPG,AFNE01.JPG,,,,,3,4,34,7,,,,,,,,,,,,,,,,,,,AMNE01.jpg,AMSA11.jpg,AMNE20.jpg,AMSA03.jpg,AMNE20.jpg,MN,1,num_2,16,num_2,1.28343506157,,,2018_Jan_19_1619,60.0048114865,FEMA4ImagesEEG,001,202726,
AFNE01.JPG,AFNE01.JPG,AFNE01.JPG,AFNE01.JPG,AFNE01.JPG,AFNE01.JPG,,,,,3,5,35,6,,,,,,,,,,,,,,,,,,,AMSA08.jpg,AMNE03.jpg,AMSA15.jpg,AMNE01.jpg,AMNE03.jpg,MN,1,num_6,16,num_6,1.00013920106,,,2018_Jan_19_1619,60.0048114865,FEMA4ImagesEEG,001,202726,
AFNE01.JPG,AFNE01.JPG,AFNE01.JPG,AFNE01.JPG,AFNE01.JPG,AFNE01.JPG,,,,,3,6,36,8,,,,,,,,,,,,,,,,,,,AMNE09.jpg,AMSA19.jpg,AMNE10.jpg,AMSA16.jpg,AMSA16.jpg,MS,2,num_4,16,num_4,2.16667671688,,,2018_Jan_19_1619,60.0048114865,FEMA4ImagesEEG,001,202726,
AFNE01.JPG,AFNE01.JPG,AFNE01.JPG,AFNE01.JPG,AFNE01.JPG,AFNE01.JPG,,,,,3,7,37,1,,,,,,,,,,,,,,,,,,,AMSA05.jpg,AMNE05.jpg,AMSA03.jpg,AMNE03.jpg,AMNE05.jpg,MN,1,num_6,32,num_8,1.36673509097,,,2018_Jan_19_1619,60.0048114865,FEMA4ImagesEEG,001,202726,
AFNE01.JPG,AFNE01.JPG,AFNE01.JPG,AFNE01.JPG,AFNE01.JPG,AFNE01.JPG,,,,,3,8,38,4,,,,,,,,,,,,,,,,,,,AMNE07.jpg,AMSA02.jpg,AMNE15.jpg,AMSA09.jpg,AMSA09.jpg,MS,2,num_4,16,num_4,0.666771014221,,,2018_Jan_19_1619,60.0048114865,FEMA4ImagesEEG,001,202726,
AFNE01.JPG,AFNE01.JPG,AFNE01.JPG,AFNE01.JPG,AFNE01.JPG,AFNE01.JPG,,,,,3,9,39,2,,,,,,,,,,,,,,,,,,,AMNE09.jpg,AMNE19.jpg,AMSA14.jpg,AMSA06.jpg,AMNE19.jpg,MN,1,num_6,32,num_8,1.13342656195,,,2018_Jan_19_1619,60.0048114865,FEMA4ImagesEEG,001,202726,
AFNE01.JPG,AFNE01.JPG,AFNE01.JPG,AFNE01.JPG,AFNE01.JPG,AFNE01.JPG,,,,,4,0,40,4,,,,,,,,,,,,,,,,,,,AMNE19.jpg,AMNE03.jpg,AMSA20.jpg,AMSA10.jpg,AMSA20.jpg,MS,2,num_2,32,num_4,1.21676411852,,,2018_Jan_19_1619,60.0048114865,FEMA4ImagesEEG,001,202726,
AFNE01.JPG,AFNE01.JPG,AFNE01.JPG,AFNE01.JPG,AFNE01.JPG,AFNE01.JPG,,,,,4,1,41,1,,,,,,,,,,,,,,,,,,,AMNE20.jpg,AMSA10.jpg,AMNE09.jpg,AMSA09.jpg,AMNE09.jpg,MN,1,num_2,32,num_6,3.86620170064,,,2018_Jan_19_1619,60.0048114865,FEMA4ImagesEEG,001,202726,
AFNE01.JPG,AFNE01.JPG,AFNE01.JPG,AFNE01.JPG,AFNE01.JPG,AFNE01.JPG,,,,,4,2,42,7,,,,,,,,,,,,,,,,,,,AMSA05.jpg,AMNE15.jpg,AMSA04.jpg,AMNE14.jpg,AMSA05.jpg,MS,2,num_8,32,num_6,1.06681720028,,,2018_Jan_19_1619,60.0048114865,FEMA4ImagesEEG,001,202726,
AFNE01.JPG,AFNE01.JPG,AFNE01.JPG,AFNE01.JPG,AFNE01.JPG,AFNE01.JPG,,,,,4,3,43,5,,,,,,,,,,,,,,,,,,,AMNE03.jpg,AMSA20.jpg,AMSA12.jpg,AMNE02.jpg,AMNE03.jpg,MN,1,num_8,32,num_4,0.83362734504,,,2018_Jan_19_1619,60.0048114865,FEMA4ImagesEEG,001,202726,
AFNE01.JPG,AFNE01.JPG,AFNE01.JPG,AFNE01.JPG,AFNE01.JPG,AFNE01.JPG,,,,,4,4,44,3,,,,,,,,,,,,,,,,,,,AMNE17.jpg,AMNE05.jpg,AMSA06.jpg,AMSA13.jpg,AMSA13.jpg,MS,2,num_4,32,num_8,0.833452862687,,,2018_Jan_19_1619,60.0048114865,FEMA4ImagesEEG,001,202726,
AFNE01.JPG,AFNE01.JPG,AFNE01.JPG,AFNE01.JPG,AFNE01.JPG,AFNE01.JPG,,,,,4,5,45,2,,,,,,,,,,,,,,,,,,,AMSA20.jpg,AMNE18.jpg,AMSA02.jpg,AMNE13.jpg,AMNE18.jpg,MN,1,num_6,32,num_2,0.700156200211,,,2018_Jan_19_1619,60.0048114865,FEMA4ImagesEEG,001,202726,
AFNE01.JPG,AFNE01.JPG,AFNE01.JPG,AFNE01.JPG,AFNE01.JPG,AFNE01.JPG,,,,,4,6,46,9,,,,,,,,,,,,,,,,,,,AMNE16.jpg,AMSA09.jpg,AMNE08.jpg,AMSA10.jpg,AMNE08.jpg,MN,1,num_2,32,num_4,1.09982840391,,,2018_Jan_19_1619,60.0048114865,FEMA4ImagesEEG,001,202726,
AFNE01.JPG,AFNE01.JPG,AFNE01.JPG,AFNE01.JPG,AFNE01.JPG,AFNE01.JPG,,,,,4,7,47,6,,,,,,,,,,,,,,,,,,,AMNE03.jpg,AMSA07.jpg,AMSA17.jpg,AMNE14.jpg,AMSA17.jpg,MS,2,num_2,32,num_6,0.950155398343,,,2018_Jan_19_1619,60.0048114865,FEMA4ImagesEEG,001,202726,
AFNE01.JPG,AFNE01.JPG,AFNE01.JPG,AFNE01.JPG,AFNE01.JPG,AFNE01.JPG,,,,,4,8,48,0,,,,,,,,,,,,,,,,,,,AMNE20.jpg,AMNE09.jpg,AMSA18.jpg,AMSA03.jpg,AMNE09.jpg,MN,1,num_6,32,num_4,0.883458154742,,,2018_Jan_19_1619,60.0048114865,FEMA4ImagesEEG,001,202726,
AFNE01.JPG,AFNE01.JPG,AFNE01.JPG,AFNE01.JPG,AFNE01.JPG,AFNE01.JPG,,,,,4,9,49,8,,,,,,,,,,,,,,,,,,,AMNE16.jpg,AMSA05.jpg,AMNE18.jpg,AMSA02.jpg,AMNE18.jpg,MN,1,num_2,32,num_6,1.20013310714,,,2018_Jan_19_1619,60.0048114865,FEMA4ImagesEEG,001,202726,
AFNE01.JPG,AFNE01.JPG,AFNE01.JPG,AFNE01.JPG,AFNE01.JPG,AFNE01.JPG,,,,,5,0,50,4,,,,,,,,,,,,,,,,,,,AMSA09.jpg,AMNE16.jpg,AMNE17.jpg,AMSA20.jpg,AMNE17.jpg,MN,1,num_2,16,num_2,1.16683131317,,,2018_Jan_19_1619,60.0048114865,FEMA4ImagesEEG,001,202726,
AFNE01.JPG,AFNE01.JPG,AFNE01.JPG,AFNE01.JPG,AFNE01.JPG,AFNE01.JPG,,,,,5,1,51,8,,,,,,,,,,,,,,,,,,,AMNE11.jpg,AMSA12.jpg,AMSA03.jpg,AMNE12.jpg,AMSA12.jpg,MS,2,num_6,32,num_2,0.833474672399,,,2018_Jan_19_1619,60.0048114865,FEMA4ImagesEEG,001,202726,
AFNE01.JPG,AFNE01.JPG,AFNE01.JPG,AFNE01.JPG,AFNE01.JPG,AFNE01.JPG,,,,,5,2,52,1,,,,,,,,,,,,,,,,,,,AMNE05.jpg,AMSA19.jpg,AMSA13.jpg,AMNE10.jpg,AMNE05.jpg,MN,1,num_8,16,num_8,0.650067194831,,,2018_Jan_19_1619,60.0048114865,FEMA4ImagesEEG,001,202726,
AFNE01.JPG,AFNE01.JPG,AFNE01.JPG,AFNE01.JPG,AFNE01.JPG,AFNE01.JPG,,,,,5,3,53,3,,,,,,,,,,,,,,,,,,,AMSA19.jpg,AMSA05.jpg,AMNE15.jpg,AMNE08.jpg,AMSA19.jpg,MS,2,num_8,32,num_2,1.31675192993,,,2018_Jan_19_1619,60.0048114865,FEMA4ImagesEEG,001,202726,
AFNE01.JPG,AFNE01.JPG,AFNE01.JPG,AFNE01.JPG,AFNE01.JPG,AFNE01.JPG,,,,,5,4,54,9,,,,,,,,,,,,,,,,,,,AMNE14.jpg,AMNE13.jpg,AMSA03.jpg,AMSA04.jpg,AMSA03.jpg,MS,2,num_2,16,num_2,1.01677374076,,,2018_Jan_19_1619,60.0048114865,FEMA4ImagesEEG,001,202726,
AFNE01.JPG,AFNE01.JPG,AFNE01.JPG,AFNE01.JPG,AFNE01.JPG,AFNE01.JPG,,,,,5,5,55,2,,,,,,,,,,,,,,,,,,,AMSA11.jpg,AMNE19.jpg,AMNE15.jpg,AMSA18.jpg,AMSA11.jpg,MS,2,num_8,32,num_4,1.03345125914,,,2018_Jan_19_1619,60.0048114865,FEMA4ImagesEEG,001,202726,
AFNE01.JPG,AFNE01.JPG,AFNE01.JPG,AFNE01.JPG,AFNE01.JPG,AFNE01.JPG,,,,,5,6,56,0,,,,,,,,,,,,,,,,,,,AMSA06.jpg,AMNE03.jpg,AMNE12.jpg,AMSA04.jpg,AMNE03.jpg,MN,1,num_6,32,num_2,1.18342704279,,,2018_Jan_19_1619,60.0048114865,FEMA4ImagesEEG,001,202726,
AFNE01.JPG,AFNE01.JPG,AFNE01.JPG,AFNE01.JPG,AFNE01.JPG,AFNE01.JPG,,,,,5,7,57,6,,,,,,,,,,,,,,,,,,,AMNE09.jpg,AMNE11.jpg,AMSA02.jpg,AMSA20.jpg,AMSA02.jpg,MS,2,num_2,16,num_2,1.33344773063,,,2018_Jan_19_1619,60.0048114865,FEMA4ImagesEEG,001,202726,
AFNE01.JPG,AFNE01.JPG,AFNE01.JPG,AFNE01.JPG,AFNE01.JPG,AFNE01.JPG,,,,,5,8,58,7,,,,,,,,,,,,,,,,,,,AMNE11.jpg,AMSA20.jpg,AMNE10.jpg,AMSA04.jpg,AMNE10.jpg,MN,1,num_2,32,num_8,0.866763637401,,,2018_Jan_19_1619,60.0048114865,FEMA4ImagesEEG,001,202726,
AFNE01.JPG,AFNE01.JPG,AFNE01.JPG,AFNE01.JPG,AFNE01.JPG,AFNE01.JPG,,,,,5,9,59,5,,,,,,,,,,,,,,,,,,,AMNE10.jpg,AMSA07.jpg,AMSA17.jpg,AMNE08.jpg,AMNE10.jpg,MN,1,num_8,16,num_8,0.683517491445,,,2018_Jan_19_1619,60.0048114865,FEMA4ImagesEEG,001,202726,
,,,,,,,,,,,,,,,,,,,,,,,,,,,,,,,,,,,,,,,,,,,space,7.14964830875,2018_Jan_19_1619,60.0048114865,FEMA4ImagesEEG,001,202726,
AFNE01.JPG,AFNE01.JPG,AFNE01.JPG,AFNE01.JPG,AFNE01.JPG,AFNE01.JPG,,,,,,,,,0,0,0,7,,,,,,,,,,,,,,,AFSA05.jpg,AFSA13.jpg,AFNE02.jpg,AFNE17.jpg,AFSA13.jpg,FS,4,num_6,32,num_8,1.70006446866,,,2018_Jan_19_1619,60.0048114865,FEMA4ImagesEEG,001,202726,
AFNE01.JPG,AFNE01.JPG,AFNE01.JPG,AFNE01.JPG,AFNE01.JPG,AFNE01.JPG,,,,,,,,,0,1,1,8,,,,,,,,,,,,,,,AFNE19.jpg,AFSA15.jpg,AFSA10.jpg,AFNE17.jpg,AFSA10.jpg,FS,4,num_2,16,num_2,0.566806937102,,,2018_Jan_19_1619,60.0048114865,FEMA4ImagesEEG,001,202726,
AFNE01.JPG,AFNE01.JPG,AFNE01.JPG,AFNE01.JPG,AFNE01.JPG,AFNE01.JPG,,,,,,,,,0,2,2,2,,,,,,,,,,,,,,,AFNE01.jpg,AFSA11.jpg,AFNE11.jpg,AFSA05.jpg,AFSA05.jpg,FS,4,num_4,16,num_4,1.03349103034,,,2018_Jan_19_1619,60.0048114865,FEMA4ImagesEEG,001,202726,
AFNE01.JPG,AFNE01.JPG,AFNE01.JPG,AFNE01.JPG,AFNE01.JPG,AFNE01.JPG,,,,,,,,,0,3,3,9,,,,,,,,,,,,,,,AFNE18.jpg,AFSA17.jpg,AFSA16.jpg,AFNE03.jpg,AFSA16.jpg,FS,4,num_2,32,num_6,0.750159247313,,,2018_Jan_19_1619,60.0048114865,FEMA4ImagesEEG,001,202726,
AFNE01.JPG,AFNE01.JPG,AFNE01.JPG,AFNE01.JPG,AFNE01.JPG,AFNE01.JPG,,,,,,,,,0,4,4,0,,,,,,,,,,,,,,,AFSA08.jpg,AFSA17.jpg,AFNE08.jpg,AFNE06.jpg,AFSA17.jpg,FS,4,num_6,32,num_8,1.0001295791,,,2018_Jan_19_1619,60.0048114865,FEMA4ImagesEEG,001,202726,
AFNE01.JPG,AFNE01.JPG,AFNE01.JPG,AFNE01.JPG,AFNE01.JPG,AFNE01.JPG,,,,,,,,,0,5,5,5,,,,,,,,,,,,,,,AFNE03.jpg,AFSA13.jpg,AFNE04.jpg,AFSA09.jpg,AFNE04.jpg,FN,3,num_2,32,num_4,0.866754977033,,,2018_Jan_19_1619,60.0048114865,FEMA4ImagesEEG,001,202726,
AFNE01.JPG,AFNE01.JPG,AFNE01.JPG,AFNE01.JPG,AFNE01.JPG,AFNE01.JPG,,,,,,,,,0,6,6,3,,,,,,,,,,,,,,,AFSA03.jpg,AFNE12.jpg,AFNE01.jpg,AFSA15.jpg,AFNE12.jpg,FN,3,num_6,16,num_6,0.533508029766,,,2018_Jan_19_1619,60.0048114865,FEMA4ImagesEEG,001,202726,
AFNE01.JPG,AFNE01.JPG,AFNE01.JPG,AFNE01.JPG,AFNE01.JPG,AFNE01.JPG,,,,,,,,,0,7,7,4,,,,,,,,,,,,,,,AFNE01.jpg,AFNE16.jpg,AFSA15.jpg,AFSA18.jpg,AFSA15.jpg,FS,4,num_2,32,num_8,0.849969369359,,,2018_Jan_19_1619,60.0048114865,FEMA4ImagesEEG,001,202726,
AFNE01.JPG,AFNE01.JPG,AFNE01.JPG,AFNE01.JPG,AFNE01.JPG,AFNE01.JPG,,,,,,,,,0,8,8,1,,,,,,,,,,,,,,,AFSA03.jpg,AFNE15.jpg,AFNE12.jpg,AFSA18.jpg,AFNE15.jpg,FN,3,num_6,16,num_6,1.81672723312,,,2018_Jan_19_1619,60.0048114865,FEMA4ImagesEEG,001,202726,
AFNE01.JPG,AFNE01.JPG,AFNE01.JPG,AFNE01.JPG,AFNE01.JPG,AFNE01.JPG,,,,,,,,,0,9,9,6,,,,,,,,,,,,,,,AFSA05.jpg,AFNE16.jpg,AFNE01.jpg,AFSA01.jpg,AFSA01.jpg,FS,4,num_4,32,num_8,1.11675674142,,,2018_Jan_19_1619,60.0048114865,FEMA4ImagesEEG,001,202726,
AFNE01.JPG,AFNE01.JPG,AFNE01.JPG,AFNE01.JPG,AFNE01.JPG,AFNE01.JPG,,,,,,,,,1,0,10,5,,,,,,,,,,,,,,,AFSA02.jpg,AFNE20.jpg,AFSA14.jpg,AFNE10.jpg,AFSA02.jpg,FS,4,num_8,32,num_4,1.20011354191,,,2018_Jan_19_1619,60.0048114865,FEMA4ImagesEEG,001,202726,
AFNE01.JPG,AFNE01.JPG,AFNE01.JPG,AFNE01.JPG,AFNE01.JPG,AFNE01.JPG,,,,,,,,,1,1,11,1,,,,,,,,,,,,,,,AFSA12.jpg,AFNE14.jpg,AFSA10.jpg,AFNE09.jpg,AFNE09.jpg,FN,3,num_4,32,num_8,1.316713762,,,2018_Jan_19_1619,60.0048114865,FEMA4ImagesEEG,001,202726,
AFNE01.JPG,AFNE01.JPG,AFNE01.JPG,AFNE01.JPG,AFNE01.JPG,AFNE01.JPG,,,,,,,,,1,2,12,2,,,,,,,,,,,,,,,AFSA19.jpg,AFSA03.jpg,AFNE04.jpg,AFNE15.jpg,AFNE15.jpg,FN,3,num_4,16,num_4,1.78340555308,,,2018_Jan_19_1619,60.0048114865,FEMA4ImagesEEG,001,202726,
AFNE01.JPG,AFNE01.JPG,AFNE01.JPG,AFNE01.JPG,AFNE01.JPG,AFNE01.JPG,,,,,,,,,1,3,13,3,,,,,,,,,,,,,,,AFNE11.jpg,AFSA14.jpg,AFSA04.jpg,AFNE03.jpg,AFSA14.jpg,FS,4,num_6,32,num_8,1.20012893761,,,2018_Jan_19_1619,60.0048114865,FEMA4ImagesEEG,001,202726,
AFNE01.JPG,AFNE01.JPG,AFNE01.JPG,AFNE01.JPG,AFNE01.JPG,AFNE01.JPG,,,,,,,,,1,4,14,8,,,,,,,,,,,,,,,AFNE03.jpg,AFNE07.jpg,AFSA01.jpg,AFSA05.jpg,AFNE03.jpg,FN,3,num_8,16,num_8,0.966827143449,,,2018_Jan_19_1619,60.0048114865,FEMA4ImagesEEG,001,202726,
AFNE01.JPG,AFNE01.JPG,AFNE01.JPG,AFNE01.JPG,AFNE01.JPG,AFNE01.JPG,,,,,,,,,1,5,15,9,,,,,,,,,,,,,,,AFSA04.jpg,AFNE20.jpg,AFSA17.jpg,AFNE08.jpg,AFNE08.jpg,FN,3,num_4,32,num_6,0.916756420396,,,2018_Jan_19_1619,60.0048114865,FEMA4ImagesEEG,001,202726,
AFNE01.JPG,AFNE01.JPG,AFNE01.JPG,AFNE01.JPG,AFNE01.JPG,AFNE01.JPG,,,,,,,,,1,6,16,4,,,,,,,,,,,,,,,AFNE08.jpg,AFNE19.jpg,AFSA09.jpg,AFSA11.jpg,AFSA11.jpg,FS,4,num_4,16,num_4,0.716778230853,,,2018_Jan_19_1619,60.0048114865,FEMA4ImagesEEG,001,202726,
AFNE01.JPG,AFNE01.JPG,AFNE01.JPG,AFNE01.JPG,AFNE01.JPG,AFNE01.JPG,,,,,,,,,1,7,17,6,,,,,,,,,,,,,,,AFNE17.jpg,AFSA02.jpg,AFSA14.jpg,AFNE03.jpg,AFNE03.jpg,FN,3,num_4,32,num_8,1.06677582487,,,2018_Jan_19_1619,60.0048114865,FEMA4ImagesEEG,001,202726,
AFNE01.JPG,AFNE01.JPG,AFNE01.JPG,AFNE01.JPG,AFNE01.JPG,AFNE01.JPG,,,,,,,,,1,8,18,7,,,,,,,,,,,,,,,AFSA19.jpg,AFNE13.jpg,AFSA14.jpg,AFNE01.jpg,AFNE13.jpg,FN,3,num_6,16,num_6,0.916763156187,,,2018_Jan_19_1619,60.0048114865,FEMA4ImagesEEG,001,202726,
AFNE01.JPG,AFNE01.JPG,AFNE01.JPG,AFNE01.JPG,AFNE01.JPG,AFNE01.JPG,,,,,,,,,1,9,19,0,,,,,,,,,,,,,,,AFNE15.jpg,AFNE01.jpg,AFSA01.jpg,AFSA19.jpg,AFNE15.jpg,FN,3,num_8,32,num_4,1.0334554282,,,2018_Jan_19_1619,60.0048114865,FEMA4ImagesEEG,001,202726,
AFNE01.JPG,AFNE01.JPG,AFNE01.JPG,AFNE01.JPG,AFNE01.JPG,AFNE01.JPG,,,,,,,,,2,0,20,6,,,,,,,,,,,,,,,AFNE10.jpg,AFSA03.jpg,AFNE20.jpg,AFSA08.jpg,AFSA08.jpg,FS,4,num_4,32,num_2,0.733333547134,,,2018_Jan_19_1619,60.0048114865,FEMA4ImagesEEG,001,202726,
AFNE01.JPG,AFNE01.JPG,AFNE01.JPG,AFNE01.JPG,AFNE01.JPG,AFNE01.JPG,,,,,,,,,2,1,21,2,,,,,,,,,,,,,,,AFNE16.jpg,AFSA02.jpg,AFSA11.jpg,AFNE06.jpg,AFSA02.jpg,FS,4,num_6,32,num_8,0.833490388934,,,2018_Jan_19_1619,60.0048114865,FEMA4ImagesEEG,001,202726,
AFNE01.JPG,AFNE01.JPG,AFNE01.JPG,AFNE01.JPG,AFNE01.JPG,AFNE01.JPG,,,,,,,,,2,2,22,8,,,,,,,,,,,,,,,AFSA12.jpg,AFNE03.jpg,AFSA17.jpg,AFNE05.jpg,AFSA17.jpg,FS,4,num_2,32,num_6,0.916773740202,,,2018_Jan_19_1619,60.0048114865,FEMA4ImagesEEG,001,202726,
AFNE01.JPG,AFNE01.JPG,AFNE01.JPG,AFNE01.JPG,AFNE01.JPG,AFNE01.JPG,,,,,,,,,2,3,23,7,,,,,,,,,,,,,,,AFSA07.jpg,AFNE18.jpg,AFNE09.jpg,AFSA15.jpg,AFSA15.jpg,FS,4,num_4,32,num_8,0.666530780029,,,2018_Jan_19_1619,60.0048114865,FEMA4ImagesEEG,001,202726,
AFNE01.JPG,AFNE01.JPG,AFNE01.JPG,AFNE01.JPG,AFNE01.JPG,AFNE01.JPG,,,,,,,,,2,4,24,1,,,,,,,,,,,,,,,AFSA10.jpg,AFSA05.jpg,AFNE10.jpg,AFNE12.jpg,AFSA10.jpg,FS,4,num_8,16,num_8,0.733491030522,,,2018_Jan_19_1619,60.0048114865,FEMA4ImagesEEG,001,202726,
AFNE01.JPG,AFNE01.JPG,AFNE01.JPG,AFNE01.JPG,AFNE01.JPG,AFNE01.JPG,,,,,,,,,2,5,25,0,,,,,,,,,,,,,,,AFNE13.jpg,AFSA03.jpg,AFNE20.jpg,AFSA05.jpg,AFNE20.jpg,FN,3,num_2,32,num_8,1.08341774158,,,2018_Jan_19_1619,60.0048114865,FEMA4ImagesEEG,001,202726,
AFNE01.JPG,AFNE01.JPG,AFNE01.JPG,AFNE01.JPG,AFNE01.JPG,AFNE01.JPG,,,,,,,,,2,6,26,3,,,,,,,,,,,,,,,AFSA16.jpg,AFSA02.jpg,AFNE03.jpg,AFNE18.jpg,AFNE03.jpg,FN,3,num_2,16,num_2,1.11704219971,,,2018_Jan_19_1619,60.0048114865,FEMA4ImagesEEG,001,202726,
AFNE01.JPG,AFNE01.JPG,AFNE01.JPG,AFNE01.JPG,AFNE01.JPG,AFNE01.JPG,,,,,,,,,2,7,27,5,,,,,,,,,,,,,,,AFSA10.jpg,AFSA17.jpg,AFNE17.jpg,AFNE12.jpg,AFNE17.jpg,FN,3,num_2,32,num_4,1.11675898638,,,2018_Jan_19_1619,60.0048114865,FEMA4ImagesEEG,001,202726,
AFNE01.JPG,AFNE01.JPG,AFNE01.JPG,AFNE01.JPG,AFNE01.JPG,AFNE01.JPG,,,,,,,,,2,8,28,4,,,,,,,,,,,,,,,AFSA16.jpg,AFNE11.jpg,AFNE03.jpg,AFSA11.jpg,AFSA11.jpg,FS,4,num_4,32,num_6,0.883431854192,,,2018_Jan_19_1619,60.0048114865,FEMA4ImagesEEG,001,202726,
AFNE01.JPG,AFNE01.JPG,AFNE01.JPG,AFNE01.JPG,AFNE01.JPG,AFNE01.JPG,,,,,,,,,2,9,29,9,,,,,,,,,,,,,,,AFSA10.jpg,AFSA12.jpg,AFNE06.jpg,AFNE11.jpg,AFNE11.jpg,FN,3,num_4,32,num_2,1.38313581096,,,2018_Jan_19_1619,60.0048114865,FEMA4ImagesEEG,001,202726,
AFNE01.JPG,AFNE01.JPG,AFNE01.JPG,AFNE01.JPG,AFNE01.JPG,AFNE01.JPG,,,,,,,,,3,0,30,2,,,,,,,,,,,,,,,AFSA01.jpg,AFSA13.jpg,AFNE09.jpg,AFNE07.jpg,AFNE07.jpg,FN,3,num_4,16,num_4,1.31677502301,,,2018_Jan_19_1619,60.0048114865,FEMA4ImagesEEG,001,202726,
AFNE01.JPG,AFNE01.JPG,AFNE01.JPG,AFNE01.JPG,AFNE01.JPG,AFNE01.JPG,,,,,,,,,3,1,31,8,,,,,,,,,,,,,,,AFSA06.jpg,AFNE10.jpg,AFNE09.jpg,AFSA09.jpg,AFNE09.jpg,FN,3,num_2,16,num_2,1.43338743132,,,2018_Jan_19_1619,60.0048114865,FEMA4ImagesEEG,001,202726,
AFNE01.JPG,AFNE01.JPG,AFNE01.JPG,AFNE01.JPG,AFNE01.JPG,AFNE01.JPG,,,,,,,,,3,2,32,4,,,,,,,,,,,,,,,AFSA06.jpg,AFNE06.jpg,AFNE09.jpg,AFSA20.jpg,AFNE06.jpg,FN,3,num_6,16,num_6,1.35014417255,,,2018_Jan_19_1619,60.0048114865,FEMA4ImagesEEG,001,202726,
AFNE01.JPG,AFNE01.JPG,AFNE01.JPG,AFNE01.JPG,AFNE01.JPG,AFNE01.JPG,,,,,,,,,3,3,33,0,,,,,,,,,,,,,,,AFSA02.jpg,AFNE08.jpg,AFSA06.jpg,AFNE18.jpg,AFSA06.jpg,FS,4,num_2,16,num_2,0.766825219151,,,2018_Jan_19_1619,60.0048114865,FEMA4ImagesEEG,001,202726,
AFNE01.JPG,AFNE01.JPG,AFNE01.JPG,AFNE01.JPG,AFNE01.JPG,AFNE01.JPG,,,,,,,,,3,4,34,3,,,,,,,,,,,,,,,AFSA05.jpg,AFNE14.jpg,AFNE19.jpg,AFSA11.jpg,AFNE14.jpg,FN,3,num_6,32,num_2,1.26667767856,,,2018_Jan_19_1619,60.0048114865,FEMA4ImagesEEG,001,202726,
AFNE01.JPG,AFNE01.JPG,AFNE01.JPG,AFNE01.JPG,AFNE01.JPG,AFNE01.JPG,,,,,,,,,3,5,35,7,,,,,,,,,,,,,,,AFNE20.jpg,AFSA15.jpg,AFSA11.jpg,AFNE13.jpg,AFSA11.jpg,FS,4,num_2,16,num_2,0.633495200425,,,2018_Jan_19_1619,60.0048114865,FEMA4ImagesEEG,001,202726,
AFNE01.JPG,AFNE01.JPG,AFNE01.JPG,AFNE01.JPG,AFNE01.JPG,AFNE01.JPG,,,,,,,,,3,6,36,1,,,,,,,,,,,,,,,AFSA14.jpg,AFSA19.jpg,AFNE12.jpg,AFNE16.jpg,AFSA19.jpg,FS,4,num_6,32,num_4,1.30000032065,,,2018_Jan_19_1619,60.0048114865,FEMA4ImagesEEG,001,202726,
AFNE01.JPG,AFNE01.JPG,AFNE01.JPG,AFNE01.JPG,AFNE01.JPG,AFNE01.JPG,,,,,,,,,3,7,37,6,,,,,,,,,,,,,,,AFSA09.jpg,AFNE20.jpg,AFNE16.jpg,AFSA11.jpg,AFSA11.jpg,FS,4,num_4,16,num_4,0.983460399788,,,2018_Jan_19_1619,60.0048114865,FEMA4ImagesEEG,001,202726,
AFNE01.JPG,AFNE01.JPG,AFNE01.JPG,AFNE01.JPG,AFNE01.JPG,AFNE01.JPG,,,,,,,,,3,8,38,5,,,,,,,,,,,,,,,AFNE18.jpg,AFSA17.jpg,AFNE08.jpg,AFSA19.jpg,AFNE08.jpg,FN,3,num_2,32,num_8,0.73345991876,,,2018_Jan_19_1619,60.0048114865,FEMA4ImagesEEG,001,202726,
AFNE01.JPG,AFNE01.JPG,AFNE01.JPG,AFNE01.JPG,AFNE01.JPG,AFNE01.JPG,,,,,,,,,3,9,39,9,,,,,,,,,,,,,,,AFNE07.jpg,AFNE19.jpg,AFSA13.jpg,AFSA02.jpg,AFSA13.jpg,FS,4,num_2,16,num_2,1.11663261475,,,2018_Jan_19_1619,60.0048114865,FEMA4ImagesEEG,001,202726,
AFNE01.JPG,AFNE01.JPG,AFNE01.JPG,AFNE01.JPG,AFNE01.JPG,AFNE01.JPG,,,,,,,,,4,0,40,0,,,,,,,,,,,,,,,AFSA10.jpg,AFSA04.jpg,AFNE19.jpg,AFNE07.jpg,AFNE19.jpg,FN,3,num_2,32,num_4,1.63339320477,,,2018_Jan_19_1619,60.0048114865,FEMA4ImagesEEG,001,202726,
AFNE01.JPG,AFNE01.JPG,AFNE01.JPG,AFNE01.JPG,AFNE01.JPG,AFNE01.JPG,,,,,,,,,4,1,41,3,,,,,,,,,,,,,,,AFSA10.jpg,AFNE07.jpg,AFNE06.jpg,AFSA08.jpg,AFSA08.jpg,FS,4,num_4,32,num_8,0.966805654112,,,2018_Jan_19_1619,60.0048114865,FEMA4ImagesEEG,001,202726,
AFNE01.JPG,AFNE01.JPG,AFNE01.JPG,AFNE01.JPG,AFNE01.JPG,AFNE01.JPG,,,,,,,,,4,2,42,5,,,,,,,,,,,,,,,AFSA07.jpg,AFSA18.jpg,AFNE09.jpg,AFNE08.jpg,AFNE08.jpg,FN,3,num_4,32,num_2,0.966781278141,,,2018_Jan_19_1619,60.0048114865,FEMA4ImagesEEG,001,202726,
AFNE01.JPG,AFNE01.JPG,AFNE01.JPG,AFNE01.JPG,AFNE01.JPG,AFNE01.JPG,,,,,,,,,4,3,43,7,,,,,,,,,,,,,,,AFNE19.jpg,AFSA10.jpg,AFNE03.jpg,AFSA12.jpg,AFSA12.jpg,FS,4,num_4,16,num_4,0.616818643641,,,2018_Jan_19_1619,60.0048114865,FEMA4ImagesEEG,001,202726,
AFNE01.JPG,AFNE01.JPG,AFNE01.JPG,AFNE01.JPG,AFNE01.JPG,AFNE01.JPG,,,,,,,,,4,4,44,9,,,,,,,,,,,,,,,AFSA10.jpg,AFSA13.jpg,AFNE15.jpg,AFNE02.jpg,AFNE15.jpg,FN,3,num_2,32,num_4,1.05012845621,,,2018_Jan_19_1619,60.0048114865,FEMA4ImagesEEG,001,202726,
AFNE01.JPG,AFNE01.JPG,AFNE01.JPG,AFNE01.JPG,AFNE01.JPG,AFNE01.JPG,,,,,,,,,4,5,45,1,,,,,,,,,,,,,,,AFSA08.jpg,AFNE13.jpg,AFNE17.jpg,AFSA06.jpg,AFNE13.jpg,FN,3,num_6,32,num_8,1.16676042974,,,2018_Jan_19_1619,60.0048114865,FEMA4ImagesEEG,001,202726,
AFNE01.JPG,AFNE01.JPG,AFNE01.JPG,AFNE01.JPG,AFNE01.JPG,AFNE01.JPG,,,,,,,,,4,6,46,6,,,,,,,,,,,,,,,AFNE01.jpg,AFSA11.jpg,AFNE16.jpg,AFSA19.jpg,AFSA11.jpg,FS,4,num_6,16,num_6,0.633479804266,,,2018_Jan_19_1619,60.0048114865,FEMA4ImagesEEG,001,202726,
AFNE01.JPG,AFNE01.JPG,AFNE01.JPG,AFNE01.JPG,AFNE01.JPG,AFNE01.JPG,,,,,,,,,4,7,47,2,,,,,,,,,,,,,,,AFNE09.jpg,AFSA15.jpg,AFSA04.jpg,AFNE16.jpg,AFNE09.jpg,FN,3,num_8,16,num_8,1.38342704298,,,2018_Jan_19_1619,60.0048114865,FEMA4ImagesEEG,001,202726,
AFNE01.JPG,AFNE01.JPG,AFNE01.JPG,AFNE01.JPG,AFNE01.JPG,AFNE01.JPG,,,,,,,,,4,8,48,4,,,,,,,,,,,,,,,AFNE11.jpg,AFNE09.jpg,AFSA20.jpg,AFSA11.jpg,AFSA20.jpg,FS,4,num_2,32,num_4,1.55008034501,,,2018_Jan_19_1619,60.0048114865,FEMA4ImagesEEG,001,202726,
AFNE01.JPG,AFNE01.JPG,AFNE01.JPG,AFNE01.JPG,AFNE01.JPG,AFNE01.JPG,,,,,,,,,4,9,49,8,,,,,,,,,,,,,,,AFSA01.jpg,AFNE01.jpg,AFNE12.jpg,AFSA10.jpg,AFNE01.jpg,FN,3,num_6,32,num_8,1.35007970361,,,2018_Jan_19_1619,60.0048114865,FEMA4ImagesEEG,001,202726,
AFNE01.JPG,AFNE01.JPG,AFNE01.JPG,AFNE01.JPG,AFNE01.JPG,AFNE01.JPG,,,,,,,,,5,0,50,2,,,,,,,,,,,,,,,AFNE13.jpg,AFSA09.jpg,AFNE06.jpg,AFSA01.jpg,AFNE13.jpg,FN,3,num_8,32,num_2,1.60010680649,,,2018_Jan_19_1619,60.0048114865,FEMA4ImagesEEG,001,202726,
AFNE01.JPG,AFNE01.JPG,AFNE01.JPG,AFNE01.JPG,AFNE01.JPG,AFNE01.JPG,,,,,,,,,5,1,51,4,,,,,,,,,,,,,,,AFNE05.jpg,AFNE01.jpg,AFSA16.jpg,AFSA09.jpg,AFSA09.jpg,FS,4,num_4,16,num_4,0.583381176926,,,2018_Jan_19_1619,60.0048114865,FEMA4ImagesEEG,001,202726,
AFNE01.JPG,AFNE01.JPG,AFNE01.JPG,AFNE01.JPG,AFNE01.JPG,AFNE01.JPG,,,,,,,,,5,2,52,7,,,,,,,,,,,,,,,AFSA06.jpg,AFNE17.jpg,AFSA10.jpg,AFNE20.jpg,AFNE17.jpg,FN,3,num_6,32,num_4,1.31674487377,,,2018_Jan_19_1619,60.0048114865,FEMA4ImagesEEG,001,202726,
AFNE01.JPG,AFNE01.JPG,AFNE01.JPG,AFNE01.JPG,AFNE01.JPG,AFNE01.JPG,,,,,,,,,5,3,53,9,,,,,,,,,,,,,,,AFSA11.jpg,AFSA18.jpg,AFNE12.jpg,AFNE15.jpg,AFNE12.jpg,FN,3,num_2,16,num_2,0.766748241615,,,2018_Jan_19_1619,60.0048114865,FEMA4ImagesEEG,001,202726,
AFNE01.JPG,AFNE01.JPG,AFNE01.JPG,AFNE01.JPG,AFNE01.JPG,AFNE01.JPG,,,,,,,,,5,4,54,8,,,,,,,,,,,,,,,AFSA08.jpg,AFNE06.jpg,AFSA13.jpg,AFNE02.jpg,AFSA08.jpg,FS,4,num_8,16,num_8,0.666785126552,,,2018_Jan_19_1619,60.0048114865,FEMA4ImagesEEG,001,202726,
AFNE01.JPG,AFNE01.JPG,AFNE01.JPG,AFNE01.JPG,AFNE01.JPG,AFNE01.JPG,,,,,,,,,5,5,55,0,,,,,,,,,,,,,,,AFSA04.jpg,AFNE14.jpg,AFSA02.jpg,AFNE07.jpg,AFSA02.jpg,FS,4,num_2,16,num_2,1.10005195998,,,2018_Jan_19_1619,60.0048114865,FEMA4ImagesEEG,001,202726,
AFNE01.JPG,AFNE01.JPG,AFNE01.JPG,AFNE01.JPG,AFNE01.JPG,AFNE01.JPG,,,,,,,,,5,6,56,1,,,,,,,,,,,,,,,AFNE09.jpg,AFNE07.jpg,AFSA07.jpg,AFSA20.jpg,AFNE07.jpg,FN,3,num_6,16,num_6,0.700130861718,,,2018_Jan_19_1619,60.0048114865,FEMA4ImagesEEG,001,202726,
AFNE01.JPG,AFNE01.JPG,AFNE01.JPG,AFNE01.JPG,AFNE01.JPG,AFNE01.JPG,,,,,,,,,5,7,57,6,,,,,,,,,,,,,,,AFSA14.jpg,AFNE02.jpg,AFSA16.jpg,AFNE07.jpg,AFNE02.jpg,FN,3,num_6,32,num_8,0.983422231395,,,2018_Jan_19_1619,60.0048114865,FEMA4ImagesEEG,001,202726,
AFNE01.JPG,AFNE01.JPG,AFNE01.JPG,AFNE01.JPG,AFNE01.JPG,AFNE01.JPG,,,,,,,,,5,8,58,3,,,,,,,,,,,,,,,AFNE06.jpg,AFSA12.jpg,AFSA10.jpg,AFNE10.jpg,AFNE06.jpg,FN,3,num_8,32,num_2,1.23372260481,,,2018_Jan_19_1619,60.0048114865,FEMA4ImagesEEG,001,202726,
AFNE01.JPG,AFNE01.JPG,AFNE01.JPG,AFNE01.JPG,AFNE01.JPG,AFNE01.JPG,,,,,,,,,5,9,59,5,,,,,,,,,,,,,,,AFNE12.jpg,AFNE04.jpg,AFSA10.jpg,AFSA14.jpg,AFNE12.jpg,FN,3,num_8,16,num_8,1.15014032368,,,2018_Jan_19_1619,60.0048114865,FEMA4ImagesEEG,001,202726,
,,,,,,,,,,,,,,,,,,,,,,,,,,,,,,,,,,,,,,,,,,,space,8.98280384531,2018_Jan_19_1619,60.0048114865,FEMA4ImagesEEG,001,202726,
AFNE01.JPG,AFNE01.JPG,AFNE01.JPG,AFNE01.JPG,AFNE01.JPG,AFNE01.JPG,,,,,,,,,,,,,0,0,0,4,,,,,,,,,,,AMNE10.jpg,AMSA01.jpg,AMSA17.jpg,AMNE03.jpg,AMNE03.jpg,MN,1,num_4,16,num_4,1.01677085366,,,2018_Jan_19_1619,60.0048114865,FEMA4ImagesEEG,001,202726,
AFNE01.JPG,AFNE01.JPG,AFNE01.JPG,AFNE01.JPG,AFNE01.JPG,AFNE01.JPG,,,,,,,,,,,,,0,1,1,7,,,,,,,,,,,AMNE15.jpg,AMNE05.jpg,AMSA15.jpg,AMSA14.jpg,AMSA14.jpg,MS,2,num_4,16,num_4,0.633497124538,,,2018_Jan_19_1619,60.0048114865,FEMA4ImagesEEG,001,202726,
AFNE01.JPG,AFNE01.JPG,AFNE01.JPG,AFNE01.JPG,AFNE01.JPG,AFNE01.JPG,,,,,,,,,,,,,0,2,2,2,,,,,,,,,,,AMNE05.jpg,AMNE11.jpg,AMSA05.jpg,AMSA17.jpg,AMNE05.jpg,MN,1,num_8,16,num_8,0.883487021551,,,2018_Jan_19_1619,60.0048114865,FEMA4ImagesEEG,001,202726,
AFNE01.JPG,AFNE01.JPG,AFNE01.JPG,AFNE01.JPG,AFNE01.JPG,AFNE01.JPG,,,,,,,,,,,,,0,3,3,0,,,,,,,,,,,AMNE10.jpg,AMNE02.jpg,AMSA09.jpg,AMSA11.jpg,AMSA11.jpg,MS,2,num_4,16,num_4,0.900139521807,,,2018_Jan_19_1619,60.0048114865,FEMA4ImagesEEG,001,202726,
AFNE01.JPG,AFNE01.JPG,AFNE01.JPG,AFNE01.JPG,AFNE01.JPG,AFNE01.JPG,,,,,,,,,,,,,0,4,4,1,,,,,,,,,,,AMNE16.jpg,AMNE20.jpg,AMSA14.jpg,AMSA07.jpg,AMNE20.jpg,MN,1,num_6,32,num_8,1.13347691763,,,2018_Jan_19_1619,60.0048114865,FEMA4ImagesEEG,001,202726,
AFNE01.JPG,AFNE01.JPG,AFNE01.JPG,AFNE01.JPG,AFNE01.JPG,AFNE01.JPG,,,,,,,,,,,,,0,5,5,6,,,,,,,,,,,AMNE07.jpg,AMNE17.jpg,AMSA01.jpg,AMSA20.jpg,AMSA20.jpg,MS,2,num_4,16,num_4,1.85007008165,,,2018_Jan_19_1619,60.0048114865,FEMA4ImagesEEG,001,202726,
AFNE01.JPG,AFNE01.JPG,AFNE01.JPG,AFNE01.JPG,AFNE01.JPG,AFNE01.JPG,,,,,,,,,,,,,0,6,6,8,,,,,,,,,,,AMSA05.jpg,AMSA07.jpg,AMNE14.jpg,AMNE04.jpg,AMSA05.jpg,MS,2,num_8,32,num_4,1.45011562668,,,2018_Jan_19_1619,60.0048114865,FEMA4ImagesEEG,001,202726,
AFNE01.JPG,AFNE01.JPG,AFNE01.JPG,AFNE01.JPG,AFNE01.JPG,AFNE01.JPG,,,,,,,,,,,,,0,7,7,5,,,,,,,,,,,AMSA14.jpg,AMNE17.jpg,AMNE04.jpg,AMSA03.jpg,AMNE17.jpg,MN,1,num_6,32,num_4,1.61669997033,,,2018_Jan_19_1619,60.0048114865,FEMA4ImagesEEG,001,202726,
AFNE01.JPG,AFNE01.JPG,AFNE01.JPG,AFNE01.JPG,AFNE01.JPG,AFNE01.JPG,,,,,,,,,,,,,0,8,8,9,,,,,,,,,,,AMNE17.jpg,AMNE05.jpg,AMSA17.jpg,AMSA13.jpg,AMSA17.jpg,MS,2,num_2,32,num_8,0.566851199139,,,2018_Jan_19_1619,60.0048114865,FEMA4ImagesEEG,001,202726,
AFNE01.JPG,AFNE01.JPG,AFNE01.JPG,AFNE01.JPG,AFNE01.JPG,AFNE01.JPG,,,,,,,,,,,,,0,9,9,3,,,,,,,,,,,AMSA18.jpg,AMSA17.jpg,AMNE04.jpg,AMNE02.jpg,AMSA17.jpg,MS,2,num_6,16,num_6,0.750129418448,,,2018_Jan_19_1619,60.0048114865,FEMA4ImagesEEG,001,202726,
AFNE01.JPG,AFNE01.JPG,AFNE01.JPG,AFNE01.JPG,AFNE01.JPG,AFNE01.JPG,,,,,,,,,,,,,1,0,10,1,,,,,,,,,,,AMNE14.jpg,AMNE15.jpg,AMSA17.jpg,AMSA03.jpg,AMSA03.jpg,MS,2,num_4,16,num_4,0.850132305175,,,2018_Jan_19_1619,60.0048114865,FEMA4ImagesEEG,001,202726,
AFNE01.JPG,AFNE01.JPG,AFNE01.JPG,AFNE01.JPG,AFNE01.JPG,AFNE01.JPG,,,,,,,,,,,,,1,1,11,7,,,,,,,,,,,AMNE15.jpg,AMSA05.jpg,AMSA18.jpg,AMNE09.jpg,AMSA05.jpg,MS,2,num_6,16,num_6,0.766810465138,,,2018_Jan_19_1619,60.0048114865,FEMA4ImagesEEG,001,202726,
AFNE01.JPG,AFNE01.JPG,AFNE01.JPG,AFNE01.JPG,AFNE01.JPG,AFNE01.JPG,,,,,,,,,,,,,1,2,12,8,,,,,,,,,,,AMNE07.jpg,AMSA17.jpg,AMSA11.jpg,AMNE19.jpg,AMSA11.jpg,MS,2,num_2,16,num_2,1.28346136212,,,2018_Jan_19_1619,60.0048114865,FEMA4ImagesEEG,001,202726,
AFNE01.JPG,AFNE01.JPG,AFNE01.JPG,AFNE01.JPG,AFNE01.JPG,AFNE01.JPG,,,,,,,,,,,,,1,3,13,0,,,,,,,,,,,AMNE16.jpg,AMSA04.jpg,AMNE20.jpg,AMSA19.jpg,AMSA19.jpg,MS,2,num_4,32,num_6,1.05013198452,,,2018_Jan_19_1619,60.0048114865,FEMA4ImagesEEG,001,202726,
AFNE01.JPG,AFNE01.JPG,AFNE01.JPG,AFNE01.JPG,AFNE01.JPG,AFNE01.JPG,,,,,,,,,,,,,1,4,14,3,,,,,,,,,,,AMNE09.jpg,AMSA02.jpg,AMSA08.jpg,AMNE06.jpg,AMSA02.jpg,MS,2,num_6,16,num_6,0.916767004877,,,2018_Jan_19_1619,60.0048114865,FEMA4ImagesEEG,001,202726,
AFNE01.JPG,AFNE01.JPG,AFNE01.JPG,AFNE01.JPG,AFNE01.JPG,AFNE01.JPG,,,,,,,,,,,,,1,5,15,5,,,,,,,,,,,AMNE13.jpg,AMSA14.jpg,AMSA20.jpg,AMNE04.jpg,AMSA14.jpg,MS,2,num_6,16,num_6,0.750149304513,,,2018_Jan_19_1619,60.0048114865,FEMA4ImagesEEG,001,202726,
AFNE01.JPG,AFNE01.JPG,AFNE01.JPG,AFNE01.JPG,AFNE01.JPG,AFNE01.JPG,,,,,,,,,,,,,1,6,16,4,,,,,,,,,,,AMSA20.jpg,AMNE10.jpg,AMNE19.jpg,AMSA08.jpg,AMNE10.jpg,MN,1,num_6,32,num_8,1.01677790983,,,2018_Jan_19_1619,60.0048114865,FEMA4ImagesEEG,001,202726,
AFNE01.JPG,AFNE01.JPG,AFNE01.JPG,AFNE01.JPG,AFNE01.JPG,AFNE01.JPG,,,,,,,,,,,,,1,7,17,9,,,,,,,,,,,AMSA16.jpg,AMNE09.jpg,AMNE14.jpg,AMSA18.jpg,AMNE14.jpg,MN,1,num_2,32,num_4,1.31675706198,,,2018_Jan_19_1619,60.0048114865,FEMA4ImagesEEG,001,202726,
AFNE01.JPG,AFNE01.JPG,AFNE01.JPG,AFNE01.JPG,AFNE01.JPG,AFNE01.JPG,,,,,,,,,,,,,1,8,18,6,,,,,,,,,,,AMNE12.jpg,AMNE04.jpg,AMSA14.jpg,AMSA03.jpg,AMSA03.jpg,MS,2,num_4,32,num_2,1.15017079422,,,2018_Jan_19_1619,60.0048114865,FEMA4ImagesEEG,001,202726,
AFNE01.JPG,AFNE01.JPG,AFNE01.JPG,AFNE01.JPG,AFNE01.JPG,AFNE01.JPG,,,,,,,,,,,,,1,9,19,2,,,,,,,,,,,AMNE05.jpg,AMNE14.jpg,AMSA09.jpg,AMSA01.jpg,AMNE14.jpg,MN,1,num_6,16,num_6,0.983449174091,,,2018_Jan_19_1619,60.0048114865,FEMA4ImagesEEG,001,202726,
AFNE01.JPG,AFNE01.JPG,AFNE01.JPG,AFNE01.JPG,AFNE01.JPG,AFNE01.JPG,,,,,,,,,,,,,2,0,20,8,,,,,,,,,,,AMSA17.jpg,AMNE16.jpg,AMSA06.jpg,AMNE01.jpg,AMNE01.jpg,MN,1,num_4,32,num_8,1.48341613775,,,2018_Jan_19_1619,60.0048114865,FEMA4ImagesEEG,001,202726,
AFNE01.JPG,AFNE01.JPG,AFNE01.JPG,AFNE01.JPG,AFNE01.JPG,AFNE01.JPG,,,,,,,,,,,,,2,1,21,0,,,,,,,,,,,AMNE11.jpg,AMSA17.jpg,AMSA01.jpg,AMNE06.jpg,AMNE06.jpg,MN,1,num_4,16,num_4,1.51672434667,,,2018_Jan_19_1619,60.0048114865,FEMA4ImagesEEG,001,202726,
AFNE01.JPG,AFNE01.JPG,AFNE01.JPG,AFNE01.JPG,AFNE01.JPG,AFNE01.JPG,,,,,,,,,,,,,2,2,22,6,,,,,,,,,,,AMSA14.jpg,AMNE14.jpg,AMNE12.jpg,AMSA11.jpg,AMSA11.jpg,MS,2,num_4,32,num_8,2.98328848323,,,2018_Jan_19_1619,60.0048114865,FEMA4ImagesEEG,001,202726,
AFNE01.JPG,AFNE01.JPG,AFNE01.JPG,AFNE01.JPG,AFNE01.JPG,AFNE01.JPG,,,,,,,,,,,,,2,3,23,3,,,,,,,,,,,AMSA17.jpg,AMNE19.jpg,AMNE03.jpg,AMSA15.jpg,AMSA17.jpg,MS,2,num_8,16,num_8,0.733481728937,,,2018_Jan_19_1619,60.0048114865,FEMA4ImagesEEG,001,202726,
AFNE01.JPG,AFNE01.JPG,AFNE01.JPG,AFNE01.JPG,AFNE01.JPG,AFNE01.JPG,,,,,,,,,,,,,2,4,24,7,,,,,,,,,,,AMNE16.jpg,AMSA11.jpg,AMNE03.jpg,AMSA16.jpg,AMSA16.jpg,MS,2,num_4,32,num_8,1.0167737403,,,2018_Jan_19_1619,60.0048114865,FEMA4ImagesEEG,001,202726,
AFNE01.JPG,AFNE01.JPG,AFNE01.JPG,AFNE01.JPG,AFNE01.JPG,AFNE01.JPG,,,,,,,,,,,,,2,5,25,1,,,,,,,,,,,AMNE16.jpg,AMSA15.jpg,AMSA16.jpg,AMNE05.jpg,AMNE16.jpg,MN,1,num_8,32,num_4,2.45001138654,,,2018_Jan_19_1619,60.0048114865,FEMA4ImagesEEG,001,202726,
AFNE01.JPG,AFNE01.JPG,AFNE01.JPG,AFNE01.JPG,AFNE01.JPG,AFNE01.JPG,,,,,,,,,,,,,2,6,26,5,,,,,,,,,,,AMSA07.jpg,AMNE10.jpg,AMNE09.jpg,AMSA08.jpg,AMNE10.jpg,MN,1,num_6,16,num_6,0.600155879743,,,2018_Jan_19_1619,60.0048114865,FEMA4ImagesEEG,001,202726,
AFNE01.JPG,AFNE01.JPG,AFNE01.JPG,AFNE01.JPG,AFNE01.JPG,AFNE01.JPG,,,,,,,,,,,,,2,7,27,2,,,,,,,,,,,AMSA15.jpg,AMSA14.jpg,AMNE15.jpg,AMNE10.jpg,AMSA14.jpg,MS,2,num_6,16,num_6,0.650136154145,,,2018_Jan_19_1619,60.0048114865,FEMA4ImagesEEG,001,202726,
AFNE01.JPG,AFNE01.JPG,AFNE01.JPG,AFNE01.JPG,AFNE01.JPG,AFNE01.JPG,,,,,,,,,,,,,2,8,28,4,,,,,,,,,,,AMSA14.jpg,AMNE12.jpg,AMNE08.jpg,AMSA10.jpg,AMSA14.jpg,MS,2,num_8,16,num_8,0.983493756969,,,2018_Jan_19_1619,60.0048114865,FEMA4ImagesEEG,001,202726,
AFNE01.JPG,AFNE01.JPG,AFNE01.JPG,AFNE01.JPG,AFNE01.JPG,AFNE01.JPG,,,,,,,,,,,,,2,9,29,9,,,,,,,,,,,AMSA15.jpg,AMNE10.jpg,AMSA06.jpg,AMNE14.jpg,AMNE14.jpg,MN,1,num_4,32,num_8,2.13338775234,,,2018_Jan_19_1619,60.0048114865,FEMA4ImagesEEG,001,202726,
AFNE01.JPG,AFNE01.JPG,AFNE01.JPG,AFNE01.JPG,AFNE01.JPG,AFNE01.JPG,,,,,,,,,,,,,3,0,30,3,,,,,,,,,,,AMSA14.jpg,AMNE14.jpg,AMNE04.jpg,AMSA18.jpg,AMSA14.jpg,MS,2,num_8,16,num_8,1.00012156041,,,2018_Jan_19_1619,60.0048114865,FEMA4ImagesEEG,001,202726,
AFNE01.JPG,AFNE01.JPG,AFNE01.JPG,AFNE01.JPG,AFNE01.JPG,AFNE01.JPG,,,,,,,,,,,,,3,1,31,5,,,,,,,,,,,AMNE05.jpg,AMNE08.jpg,AMSA16.jpg,AMSA11.jpg,AMNE05.jpg,MN,1,num_8,32,num_4,1.08336930955,,,2018_Jan_19_1619,60.0048114865,FEMA4ImagesEEG,001,202726,
AFNE01.JPG,AFNE01.JPG,AFNE01.JPG,AFNE01.JPG,AFNE01.JPG,AFNE01.JPG,,,,,,,,,,,,,3,2,32,9,,,,,,,,,,,AMNE08.jpg,AMSA11.jpg,AMNE13.jpg,AMSA20.jpg,AMNE08.jpg,MN,1,num_8,32,num_2,1.20011450397,,,2018_Jan_19_1619,60.0048114865,FEMA4ImagesEEG,001,202726,
AFNE01.JPG,AFNE01.JPG,AFNE01.JPG,AFNE01.JPG,AFNE01.JPG,AFNE01.JPG,,,,,,,,,,,,,3,3,33,6,,,,,,,,,,,AMNE07.jpg,AMNE12.jpg,AMSA14.jpg,AMSA08.jpg,AMSA08.jpg,MS,2,num_4,32,num_8,0.583668239415,,,2018_Jan_19_1619,60.0048114865,FEMA4ImagesEEG,001,202726,
AFNE01.JPG,AFNE01.JPG,AFNE01.JPG,AFNE01.JPG,AFNE01.JPG,AFNE01.JPG,,,,,,,,,,,,,3,4,34,0,,,,,,,,,,,AMNE08.jpg,AMSA17.jpg,AMNE16.jpg,AMSA05.jpg,AMSA17.jpg,MS,2,num_6,16,num_6,0.883479002863,,,2018_Jan_19_1619,60.0048114865,FEMA4ImagesEEG,001,202726,
AFNE01.JPG,AFNE01.JPG,AFNE01.JPG,AFNE01.JPG,AFNE01.JPG,AFNE01.JPG,,,,,,,,,,,,,3,5,35,4,,,,,,,,,,,AMSA03.jpg,AMNE15.jpg,AMNE20.jpg,AMSA09.jpg,AMSA03.jpg,MS,2,num_8,16,num_8,0.783524547704,,,2018_Jan_19_1619,60.0048114865,FEMA4ImagesEEG,001,202726,
AFNE01.JPG,AFNE01.JPG,AFNE01.JPG,AFNE01.JPG,AFNE01.JPG,AFNE01.JPG,,,,,,,,,,,,,3,6,36,2,,,,,,,,,,,AMNE09.jpg,AMNE12.jpg,AMSA04.jpg,AMSA08.jpg,AMNE12.jpg,MN,1,num_6,32,num_8,0.966790258884,,,2018_Jan_19_1619,60.0048114865,FEMA4ImagesEEG,001,202726,
AFNE01.JPG,AFNE01.JPG,AFNE01.JPG,AFNE01.JPG,AFNE01.JPG,AFNE01.JPG,,,,,,,,,,,,,3,7,37,7,,,,,,,,,,,AMNE16.jpg,AMNE18.jpg,AMSA04.jpg,AMSA20.jpg,AMSA04.jpg,MS,2,num_2,16,num_2,0.716825058684,,,2018_Jan_19_1619,60.0048114865,FEMA4ImagesEEG,001,202726,
AFNE01.JPG,AFNE01.JPG,AFNE01.JPG,AFNE01.JPG,AFNE01.JPG,AFNE01.JPG,,,,,,,,,,,,,3,8,38,8,,,,,,,,,,,AMNE06.jpg,AMNE03.jpg,AMSA18.jpg,AMSA08.jpg,AMNE06.jpg,MN,1,num_8,16,num_8,1.10009718407,,,2018_Jan_19_1619,60.0048114865,FEMA4ImagesEEG,001,202726,
AFNE01.JPG,AFNE01.JPG,AFNE01.JPG,AFNE01.JPG,AFNE01.JPG,AFNE01.JPG,,,,,,,,,,,,,3,9,39,1,,,,,,,,,,,AMSA19.jpg,AMNE20.jpg,AMNE06.jpg,AMSA04.jpg,AMSA19.jpg,MS,2,num_8,32,num_6,1.1004057359,,,2018_Jan_19_1619,60.0048114865,FEMA4ImagesEEG,001,202726,
AFNE01.JPG,AFNE01.JPG,AFNE01.JPG,AFNE01.JPG,AFNE01.JPG,AFNE01.JPG,,,,,,,,,,,,,4,0,40,1,,,,,,,,,,,AMNE11.jpg,AMNE15.jpg,AMSA02.jpg,AMSA08.jpg,AMSA02.jpg,MS,2,num_2,16,num_2,0.783491190989,,,2018_Jan_19_1619,60.0048114865,FEMA4ImagesEEG,001,202726,
AFNE01.JPG,AFNE01.JPG,AFNE01.JPG,AFNE01.JPG,AFNE01.JPG,AFNE01.JPG,,,,,,,,,,,,,4,1,41,2,,,,,,,,,,,AMNE20.jpg,AMSA17.jpg,AMNE06.jpg,AMSA13.jpg,AMNE20.jpg,MN,1,num_8,16,num_8,1.0167596275,,,2018_Jan_19_1619,60.0048114865,FEMA4ImagesEEG,001,202726,
AFNE01.JPG,AFNE01.JPG,AFNE01.JPG,AFNE01.JPG,AFNE01.JPG,AFNE01.JPG,,,,,,,,,,,,,4,2,42,9,,,,,,,,,,,AMSA20.jpg,AMNE15.jpg,AMNE12.jpg,AMSA02.jpg,AMNE15.jpg,MN,1,num_6,32,num_4,1.36672707275,,,2018_Jan_19_1619,60.0048114865,FEMA4ImagesEEG,001,202726,
AFNE01.JPG,AFNE01.JPG,AFNE01.JPG,AFNE01.JPG,AFNE01.JPG,AFNE01.JPG,,,,,,,,,,,,,4,3,43,6,,,,,,,,,,,AMSA08.jpg,AMSA07.jpg,AMNE04.jpg,AMNE09.jpg,AMNE04.jpg,MN,1,num_2,16,num_2,1.1667642789,,,2018_Jan_19_1619,60.0048114865,FEMA4ImagesEEG,001,202726,
AFNE01.JPG,AFNE01.JPG,AFNE01.JPG,AFNE01.JPG,AFNE01.JPG,AFNE01.JPG,,,,,,,,,,,,,4,4,44,3,,,,,,,,,,,AMNE01.jpg,AMSA12.jpg,AMSA04.jpg,AMNE03.jpg,AMSA04.jpg,MS,2,num_2,32,num_4,1.3167378176,,,2018_Jan_19_1619,60.0048114865,FEMA4ImagesEEG,001,202726,
AFNE01.JPG,AFNE01.JPG,AFNE01.JPG,AFNE01.JPG,AFNE01.JPG,AFNE01.JPG,,,,,,,,,,,,,4,5,45,0,,,,,,,,,,,AMSA10.jpg,AMNE08.jpg,AMSA07.jpg,AMNE10.jpg,AMNE08.jpg,MN,1,num_6,32,num_8,1.05011306051,,,2018_Jan_19_1619,60.0048114865,FEMA4ImagesEEG,001,202726,
AFNE01.JPG,AFNE01.JPG,AFNE01.JPG,AFNE01.JPG,AFNE01.JPG,AFNE01.JPG,,,,,,,,,,,,,4,6,46,8,,,,,,,,,,,AMSA13.jpg,AMSA04.jpg,AMNE05.jpg,AMNE03.jpg,AMSA04.jpg,MS,2,num_6,16,num_6,1.23344548512,,,2018_Jan_19_1619,60.0048114865,FEMA4ImagesEEG,001,202726,
AFNE01.JPG,AFNE01.JPG,AFNE01.JPG,AFNE01.JPG,AFNE01.JPG,AFNE01.JPG,,,,,,,,,,,,,4,7,47,4,,,,,,,,,,,AMSA19.jpg,AMNE19.jpg,AMNE02.jpg,AMSA03.jpg,AMNE02.jpg,MN,1,num_2,32,num_4,1.46670943173,,,2018_Jan_19_1619,60.0048114865,FEMA4ImagesEEG,001,202726,
AFNE01.JPG,AFNE01.JPG,AFNE01.JPG,AFNE01.JPG,AFNE01.JPG,AFNE01.JPG,,,,,,,,,,,,,4,8,48,5,,,,,,,,,,,AMNE11.jpg,AMSA16.jpg,AMNE09.jpg,AMSA08.jpg,AMNE11.jpg,MN,1,num_8,16,num_8,0.950008178595,,,2018_Jan_19_1619,60.0048114865,FEMA4ImagesEEG,001,202726,
AFNE01.JPG,AFNE01.JPG,AFNE01.JPG,AFNE01.JPG,AFNE01.JPG,AFNE01.JPG,,,,,,,,,,,,,4,9,49,7,,,,,,,,,,,AMSA03.jpg,AMNE06.jpg,AMSA10.jpg,AMNE19.jpg,AMNE19.jpg,MN,1,num_4,16,num_4,0.783470663242,,,2018_Jan_19_1619,60.0048114865,FEMA4ImagesEEG,001,202726,
AFNE01.JPG,AFNE01.JPG,AFNE01.JPG,AFNE01.JPG,AFNE01.JPG,AFNE01.JPG,,,,,,,,,,,,,5,0,50,4,,,,,,,,,,,AMSA14.jpg,AMSA19.jpg,AMNE02.jpg,AMNE20.jpg,AMNE02.jpg,MN,1,num_2,16,num_2,0.983469700906,,,2018_Jan_19_1619,60.0048114865,FEMA4ImagesEEG,001,202726,
AFNE01.JPG,AFNE01.JPG,AFNE01.JPG,AFNE01.JPG,AFNE01.JPG,AFNE01.JPG,,,,,,,,,,,,,5,1,51,1,,,,,,,,,,,AMSA09.jpg,AMNE12.jpg,AMSA14.jpg,AMNE20.jpg,AMNE20.jpg,MN,1,num_4,16,num_4,0.80015299283,,,2018_Jan_19_1619,60.0048114865,FEMA4ImagesEEG,001,202726,
AFNE01.JPG,AFNE01.JPG,AFNE01.JPG,AFNE01.JPG,AFNE01.JPG,AFNE01.JPG,,,,,,,,,,,,,5,2,52,5,,,,,,,,,,,AMSA20.jpg,AMNE08.jpg,AMSA06.jpg,AMNE18.jpg,AMSA20.jpg,MS,2,num_8,16,num_8,0.983473550063,,,2018_Jan_19_1619,60.0048114865,FEMA4ImagesEEG,001,202726,
AFNE01.JPG,AFNE01.JPG,AFNE01.JPG,AFNE01.JPG,AFNE01.JPG,AFNE01.JPG,,,,,,,,,,,,,5,3,53,7,,,,,,,,,,,AMNE08.jpg,AMSA04.jpg,AMNE13.jpg,AMSA15.jpg,AMSA04.jpg,MS,2,num_6,16,num_6,0.550141286105,,,2018_Jan_19_1619,60.0048114865,FEMA4ImagesEEG,001,202726,
AFNE01.JPG,AFNE01.JPG,AFNE01.JPG,AFNE01.JPG,AFNE01.JPG,AFNE01.JPG,,,,,,,,,,,,,5,4,54,6,,,,,,,,,,,AMSA04.jpg,AMNE15.jpg,AMNE08.jpg,AMSA09.jpg,AMNE15.jpg,MN,1,num_6,16,num_6,1.01674519433,,,2018_Jan_19_1619,60.0048114865,FEMA4ImagesEEG,001,202726,
AFNE01.JPG,AFNE01.JPG,AFNE01.JPG,AFNE01.JPG,AFNE01.JPG,AFNE01.JPG,,,,,,,,,,,,,5,5,55,2,,,,,,,,,,,AMSA08.jpg,AMNE19.jpg,AMNE16.jpg,AMSA19.jpg,AMSA19.jpg,MS,2,num_4,32,num_6,3.15000529215,,,2018_Jan_19_1619,60.0048114865,FEMA4ImagesEEG,001,202726,
AFNE01.JPG,AFNE01.JPG,AFNE01.JPG,AFNE01.JPG,AFNE01.JPG,AFNE01.JPG,,,,,,,,,,,,,5,6,56,9,,,,,,,,,,,AMSA05.jpg,AMSA16.jpg,AMNE04.jpg,AMNE05.jpg,AMSA16.jpg,MS,2,num_6,16,num_6,0.583500171546,,,2018_Jan_19_1619,60.0048114865,FEMA4ImagesEEG,001,202726,
AFNE01.JPG,AFNE01.JPG,AFNE01.JPG,AFNE01.JPG,AFNE01.JPG,AFNE01.JPG,,,,,,,,,,,,,5,7,57,8,,,,,,,,,,,AMNE07.jpg,AMNE08.jpg,AMSA11.jpg,AMSA04.jpg,AMNE08.jpg,MN,1,num_6,32,num_8,0.933435221668,,,2018_Jan_19_1619,60.0048114865,FEMA4ImagesEEG,001,202726,
AFNE01.JPG,AFNE01.JPG,AFNE01.JPG,AFNE01.JPG,AFNE01.JPG,AFNE01.JPG,,,,,,,,,,,,,5,8,58,0,,,,,,,,,,,AMSA11.jpg,AMSA19.jpg,AMNE08.jpg,AMNE19.jpg,AMNE19.jpg,MN,1,num_4,16,num_4,1.38311913237,,,2018_Jan_19_1619,60.0048114865,FEMA4ImagesEEG,001,202726,
AFNE01.JPG,AFNE01.JPG,AFNE01.JPG,AFNE01.JPG,AFNE01.JPG,AFNE01.JPG,,,,,,,,,,,,,5,9,59,3,,,,,,,,,,,AMNE11.jpg,AMSA18.jpg,AMSA17.jpg,AMNE13.jpg,AMNE13.jpg,MN,1,num_4,16,num_4,1.2666693395,,,2018_Jan_19_1619,60.0048114865,FEMA4ImagesEEG,001,202726,
,,,,,,,,,,,,,,,,,,,,,,,,,,,,,,,,,,,,,,,,,,,space,12.1161675421,2018_Jan_19_1619,60.0048114865,FEMA4ImagesEEG,001,202726,
AFNE01.JPG,AFNE01.JPG,AFNE01.JPG,AFNE01.JPG,AFNE01.JPG,AFNE01.JPG,,,,,,,,,,,,,,,,,0,0,0,2,,,,,,,AFSA16.jpg,AFNE15.jpg,AFNE06.jpg,AFSA17.jpg,AFSA16.jpg,FS,4,num_8,32,num_4,0.800173840951,,,2018_Jan_19_1619,60.0048114865,FEMA4ImagesEEG,001,202726,
AFNE01.JPG,AFNE01.JPG,AFNE01.JPG,AFNE01.JPG,AFNE01.JPG,AFNE01.JPG,,,,,,,,,,,,,,,,,0,1,1,7,,,,,,,AFSA08.jpg,AFSA06.jpg,AFNE14.jpg,AFNE09.jpg,AFSA08.jpg,FS,4,num_8,16,num_8,0.800131503493,,,2018_Jan_19_1619,60.0048114865,FEMA4ImagesEEG,001,202726,
AFNE01.JPG,AFNE01.JPG,AFNE01.JPG,AFNE01.JPG,AFNE01.JPG,AFNE01.JPG,,,,,,,,,,,,,,,,,0,2,2,1,,,,,,,AFSA06.jpg,AFNE10.jpg,AFNE11.jpg,AFSA13.jpg,AFSA06.jpg,FS,4,num_8,32,num_4,1.11663036933,,,2018_Jan_19_1619,60.0048114865,FEMA4ImagesEEG,001,202726,
AFNE01.JPG,AFNE01.JPG,AFNE01.JPG,AFNE01.JPG,AFNE01.JPG,AFNE01.JPG,,,,,,,,,,,,,,,,,0,3,3,9,,,,,,,AFNE10.jpg,AFSA19.jpg,AFNE02.jpg,AFSA09.jpg,AFNE02.jpg,FN,3,num_2,32,num_8,0.983433778398,,,2018_Jan_19_1619,60.0048114865,FEMA4ImagesEEG,001,202726,
AFNE01.JPG,AFNE01.JPG,AFNE01.JPG,AFNE01.JPG,AFNE01.JPG,AFNE01.JPG,,,,,,,,,,,,,,,,,0,4,4,0,,,,,,,AFSA16.jpg,AFSA18.jpg,AFNE20.jpg,AFNE01.jpg,AFSA18.jpg,FS,4,num_6,32,num_4,1.25011723023,,,2018_Jan_19_1619,60.0048114865,FEMA4ImagesEEG,001,202726,
AFNE01.JPG,AFNE01.JPG,AFNE01.JPG,AFNE01.JPG,AFNE01.JPG,AFNE01.JPG,,,,,,,,,,,,,,,,,0,5,5,4,,,,,,,AFNE12.jpg,AFSA12.jpg,AFNE01.jpg,AFSA16.jpg,AFSA16.jpg,FS,4,num_4,32,num_2,1.73344131559,,,2018_Jan_19_1619,60.0048114865,FEMA4ImagesEEG,001,202726,
AFNE01.JPG,AFNE01.JPG,AFNE01.JPG,AFNE01.JPG,AFNE01.JPG,AFNE01.JPG,,,,,,,,,,,,,,,,,0,6,6,3,,,,,,,AFNE19.jpg,AFNE06.jpg,AFSA12.jpg,AFSA10.jpg,AFSA12.jpg,FS,4,num_2,16,num_2,1.33339192206,,,2018_Jan_19_1619,60.0048114865,FEMA4ImagesEEG,001,202726,
AFNE01.JPG,AFNE01.JPG,AFNE01.JPG,AFNE01.JPG,AFNE01.JPG,AFNE01.JPG,,,,,,,,,,,,,,,,,0,7,7,6,,,,,,,AFSA18.jpg,AFSA01.jpg,AFNE06.jpg,AFNE10.jpg,AFSA18.jpg,FS,4,num_8,32,num_6,0.816793305334,,,2018_Jan_19_1619,60.0048114865,FEMA4ImagesEEG,001,202726,
AFNE01.JPG,AFNE01.JPG,AFNE01.JPG,AFNE01.JPG,AFNE01.JPG,AFNE01.JPG,,,,,,,,,,,,,,,,,0,8,8,8,,,,,,,AFNE18.jpg,AFSA14.jpg,AFNE12.jpg,AFSA17.jpg,AFSA14.jpg,FS,4,num_6,16,num_6,1.05013005994,,,2018_Jan_19_1619,60.0048114865,FEMA4ImagesEEG,001,202726,
AFNE01.JPG,AFNE01.JPG,AFNE01.JPG,AFNE01.JPG,AFNE01.JPG,AFNE01.JPG,,,,,,,,,,,,,,,,,0,9,9,5,,,,,,,AFSA14.jpg,AFNE10.jpg,AFNE05.jpg,AFSA11.jpg,AFSA11.jpg,FS,4,num_4,32,num_8,1.36673701555,,,2018_Jan_19_1619,60.0048114865,FEMA4ImagesEEG,001,202726,
AFNE01.JPG,AFNE01.JPG,AFNE01.JPG,AFNE01.JPG,AFNE01.JPG,AFNE01.JPG,,,,,,,,,,,,,,,,,1,0,10,8,,,,,,,AFNE20.jpg,AFSA16.jpg,AFSA17.jpg,AFNE17.jpg,AFSA16.jpg,FS,4,num_6,32,num_2,1.78338630917,,,2018_Jan_19_1619,60.0048114865,FEMA4ImagesEEG,001,202726,
AFNE01.JPG,AFNE01.JPG,AFNE01.JPG,AFNE01.JPG,AFNE01.JPG,AFNE01.JPG,,,,,,,,,,,,,,,,,1,1,11,6,,,,,,,AFSA12.jpg,AFNE13.jpg,AFNE09.jpg,AFSA01.jpg,AFSA12.jpg,FS,4,num_8,16,num_8,0.666811427567,,,2018_Jan_19_1619,60.0048114865,FEMA4ImagesEEG,001,202726,
AFNE01.JPG,AFNE01.JPG,AFNE01.JPG,AFNE01.JPG,AFNE01.JPG,AFNE01.JPG,,,,,,,,,,,,,,,,,1,2,12,5,,,,,,,AFSA15.jpg,AFSA16.jpg,AFNE20.jpg,AFNE05.jpg,AFSA16.jpg,FS,4,num_6,16,num_6,1.56657824898,,,2018_Jan_19_1619,60.0048114865,FEMA4ImagesEEG,001,202726,
AFNE01.JPG,AFNE01.JPG,AFNE01.JPG,AFNE01.JPG,AFNE01.JPG,AFNE01.JPG,,,,,,,,,,,,,,,,,1,3,13,2,,,,,,,AFSA04.jpg,AFNE08.jpg,AFNE03.jpg,AFSA10.jpg,AFNE03.jpg,FN,3,num_2,32,num_4,1.10013278667,,,2018_Jan_19_1619,60.0048114865,FEMA4ImagesEEG,001,202726,
AFNE01.JPG,AFNE01.JPG,AFNE01.JPG,AFNE01.JPG,AFNE01.JPG,AFNE01.JPG,,,,,,,,,,,,,,,,,1,4,14,4,,,,,,,AFNE02.jpg,AFSA16.jpg,AFSA04.jpg,AFNE05.jpg,AFSA04.jpg,FS,4,num_2,32,num_8,0.966771334875,,,2018_Jan_19_1619,60.0048114865,FEMA4ImagesEEG,001,202726,
AFNE01.JPG,AFNE01.JPG,AFNE01.JPG,AFNE01.JPG,AFNE01.JPG,AFNE01.JPG,,,,,,,,,,,,,,,,,1,5,15,7,,,,,,,AFSA15.jpg,AFNE10.jpg,AFSA09.jpg,AFNE04.jpg,AFNE10.jpg,FN,3,num_6,16,num_6,0.916734610219,,,2018_Jan_19_1619,60.0048114865,FEMA4ImagesEEG,001,202726,
AFNE01.JPG,AFNE01.JPG,AFNE01.JPG,AFNE01.JPG,AFNE01.JPG,AFNE01.JPG,,,,,,,,,,,,,,,,,1,6,16,1,,,,,,,AFSA20.jpg,AFNE09.jpg,AFNE20.jpg,AFSA14.jpg,AFSA20.jpg,FS,4,num_8,16,num_8,0.933357602917,,,2018_Jan_19_1619,60.0048114865,FEMA4ImagesEEG,001,202726,
AFNE01.JPG,AFNE01.JPG,AFNE01.JPG,AFNE01.JPG,AFNE01.JPG,AFNE01.JPG,,,,,,,,,,,,,,,,,1,7,17,3,,,,,,,AFNE01.jpg,AFSA04.jpg,AFSA07.jpg,AFNE03.jpg,AFNE03.jpg,FN,3,num_4,32,num_8,0.883160186931,,,2018_Jan_19_1619,60.0048114865,FEMA4ImagesEEG,001,202726,
AFNE01.JPG,AFNE01.JPG,AFNE01.JPG,AFNE01.JPG,AFNE01.JPG,AFNE01.JPG,,,,,,,,,,,,,,,,,1,8,18,0,,,,,,,AFNE14.jpg,AFSA14.jpg,AFNE15.jpg,AFSA02.jpg,AFNE15.jpg,FN,3,num_2,32,num_8,1.63338839356,,,2018_Jan_19_1619,60.0048114865,FEMA4ImagesEEG,001,202726,
AFNE01.JPG,AFNE01.JPG,AFNE01.JPG,AFNE01.JPG,AFNE01.JPG,AFNE01.JPG,,,,,,,,,,,,,,,,,1,9,19,9,,,,,,,AFSA04.jpg,AFSA01.jpg,AFNE09.jpg,AFNE03.jpg,AFSA01.jpg,FS,4,num_6,32,num_4,1.53350001108,,,2018_Jan_19_1619,60.0048114865,FEMA4ImagesEEG,001,202726,
AFNE01.JPG,AFNE01.JPG,AFNE01.JPG,AFNE01.JPG,AFNE01.JPG,AFNE01.JPG,,,,,,,,,,,,,,,,,2,0,20,2,,,,,,,AFSA13.jpg,AFNE12.jpg,AFNE01.jpg,AFSA18.jpg,AFNE01.jpg,FN,3,num_2,32,num_8,0.716809663456,,,2018_Jan_19_1619,60.0048114865,FEMA4ImagesEEG,001,202726,
AFNE01.JPG,AFNE01.JPG,AFNE01.JPG,AFNE01.JPG,AFNE01.JPG,AFNE01.JPG,,,,,,,,,,,,,,,,,2,1,21,5,,,,,,,AFSA14.jpg,AFNE12.jpg,AFNE03.jpg,AFSA07.jpg,AFNE03.jpg,FN,3,num_2,16,num_2,0.600175444502,,,2018_Jan_19_1619,60.0048114865,FEMA4ImagesEEG,001,202726,
AFNE01.JPG,AFNE01.JPG,AFNE01.JPG,AFNE01.JPG,AFNE01.JPG,AFNE01.JPG,,,,,,,,,,,,,,,,,2,2,22,3,,,,,,,AFSA09.jpg,AFNE11.jpg,AFSA02.jpg,AFNE20.jpg,AFSA02.jpg,FS,4,num_2,16,num_2,0.700158766471,,,2018_Jan_19_1619,60.0048114865,FEMA4ImagesEEG,001,202726,
AFNE01.JPG,AFNE01.JPG,AFNE01.JPG,AFNE01.JPG,AFNE01.JPG,AFNE01.JPG,,,,,,,,,,,,,,,,,2,3,23,0,,,,,,,AFSA01.jpg,AFSA13.jpg,AFNE09.jpg,AFNE18.jpg,AFSA13.jpg,FS,4,num_6,16,num_6,0.600148181897,,,2018_Jan_19_1619,60.0048114865,FEMA4ImagesEEG,001,202726,
AFNE01.JPG,AFNE01.JPG,AFNE01.JPG,AFNE01.JPG,AFNE01.JPG,AFNE01.JPG,,,,,,,,,,,,,,,,,2,4,24,4,,,,,,,AFNE02.jpg,AFSA03.jpg,AFNE17.jpg,AFSA07.jpg,AFSA03.jpg,FS,4,num_6,16,num_6,0.733500652481,,,2018_Jan_19_1619,60.0048114865,FEMA4ImagesEEG,001,202726,
AFNE01.JPG,AFNE01.JPG,AFNE01.JPG,AFNE01.JPG,AFNE01.JPG,AFNE01.JPG,,,,,,,,,,,,,,,,,2,5,25,8,,,,,,,AFNE17.jpg,AFSA07.jpg,AFSA16.jpg,AFNE18.jpg,AFSA16.jpg,FS,4,num_2,32,num_4,1.03340924159,,,2018_Jan_19_1619,60.0048114865,FEMA4ImagesEEG,001,202726,
AFNE01.JPG,AFNE01.JPG,AFNE01.JPG,AFNE01.JPG,AFNE01.JPG,AFNE01.JPG,,,,,,,,,,,,,,,,,2,6,26,9,,,,,,,AFSA02.jpg,AFNE07.jpg,AFNE01.jpg,AFSA07.jpg,AFSA07.jpg,FS,4,num_4,16,num_4,1.0501197963,,,2018_Jan_19_1619,60.0048114865,FEMA4ImagesEEG,001,202726,
AFNE01.JPG,AFNE01.JPG,AFNE01.JPG,AFNE01.JPG,AFNE01.JPG,AFNE01.JPG,,,,,,,,,,,,,,,,,2,7,27,1,,,,,,,AFSA02.jpg,AFNE12.jpg,AFSA04.jpg,AFNE17.jpg,AFNE17.jpg,FN,3,num_4,32,num_8,0.733487181831,,,2018_Jan_19_1619,60.0048114865,FEMA4ImagesEEG,001,202726,
AFNE01.JPG,AFNE01.JPG,AFNE01.JPG,AFNE01.JPG,AFNE01.JPG,AFNE01.JPG,,,,,,,,,,,,,,,,,2,8,28,7,,,,,,,AFNE15.jpg,AFSA16.jpg,AFSA18.jpg,AFNE04.jpg,AFSA18.jpg,FS,4,num_2,32,num_6,1.31646679249,,,2018_Jan_19_1619,60.0048114865,FEMA4ImagesEEG,001,202726,
AFNE01.JPG,AFNE01.JPG,AFNE01.JPG,AFNE01.JPG,AFNE01.JPG,AFNE01.JPG,,,,,,,,,,,,,,,,,2,9,29,6,,,,,,,AFSA07.jpg,AFNE20.jpg,AFNE19.jpg,AFSA02.jpg,AFSA07.jpg,FS,4,num_8,32,num_6,1.16681206878,,,2018_Jan_19_1619,60.0048114865,FEMA4ImagesEEG,001,202726,
AFNE01.JPG,AFNE01.JPG,AFNE01.JPG,AFNE01.JPG,AFNE01.JPG,AFNE01.JPG,,,,,,,,,,,,,,,,,3,0,30,2,,,,,,,AFNE14.jpg,AFSA12.jpg,AFNE10.jpg,AFSA20.jpg,AFSA20.jpg,FS,4,num_4,16,num_4,0.800096863415,,,2018_Jan_19_1619,60.0048114865,FEMA4ImagesEEG,001,202726,
AFNE01.JPG,AFNE01.JPG,AFNE01.JPG,AFNE01.JPG,AFNE01.JPG,AFNE01.JPG,,,,,,,,,,,,,,,,,3,1,31,6,,,,,,,AFNE19.jpg,AFSA18.jpg,AFNE06.jpg,AFSA07.jpg,AFSA18.jpg,FS,4,num_6,16,num_6,0.616813191678,,,2018_Jan_19_1619,60.0048114865,FEMA4ImagesEEG,001,202726,
AFNE01.JPG,AFNE01.JPG,AFNE01.JPG,AFNE01.JPG,AFNE01.JPG,AFNE01.JPG,,,,,,,,,,,,,,,,,3,2,32,9,,,,,,,AFNE20.jpg,AFSA01.jpg,AFSA04.jpg,AFNE14.jpg,AFSA01.jpg,FS,4,num_6,16,num_6,0.75013422966,,,2018_Jan_19_1619,60.0048114865,FEMA4ImagesEEG,001,202726,
AFNE01.JPG,AFNE01.JPG,AFNE01.JPG,AFNE01.JPG,AFNE01.JPG,AFNE01.JPG,,,,,,,,,,,,,,,,,3,3,33,3,,,,,,,AFSA09.jpg,AFNE04.jpg,AFSA13.jpg,AFNE02.jpg,AFSA09.jpg,FS,4,num_8,16,num_8,0.999999679625,,,2018_Jan_19_1619,60.0048114865,FEMA4ImagesEEG,001,202726,
AFNE01.JPG,AFNE01.JPG,AFNE01.JPG,AFNE01.JPG,AFNE01.JPG,AFNE01.JPG,,,,,,,,,,,,,,,,,3,4,34,8,,,,,,,AFSA05.jpg,AFSA01.jpg,AFNE10.jpg,AFNE04.jpg,AFSA05.jpg,FS,4,num_8,16,num_8,0.716780155431,,,2018_Jan_19_1619,60.0048114865,FEMA4ImagesEEG,001,202726,
AFNE01.JPG,AFNE01.JPG,AFNE01.JPG,AFNE01.JPG,AFNE01.JPG,AFNE01.JPG,,,,,,,,,,,,,,,,,3,5,35,7,,,,,,,AFSA08.jpg,AFNE17.jpg,AFSA06.jpg,AFNE13.jpg,AFNE13.jpg,FN,3,num_4,32,num_2,1.38344981521,,,2018_Jan_19_1619,60.0048114865,FEMA4ImagesEEG,001,202726,
AFNE01.JPG,AFNE01.JPG,AFNE01.JPG,AFNE01.JPG,AFNE01.JPG,AFNE01.JPG,,,,,,,,,,,,,,,,,3,6,36,1,,,,,,,AFNE18.jpg,AFNE07.jpg,AFSA17.jpg,AFSA01.jpg,AFNE07.jpg,FN,3,num_6,32,num_8,1.13313019788,,,2018_Jan_19_1619,60.0048114865,FEMA4ImagesEEG,001,202726,
AFNE01.JPG,AFNE01.JPG,AFNE01.JPG,AFNE01.JPG,AFNE01.JPG,AFNE01.JPG,,,,,,,,,,,,,,,,,3,7,37,0,,,,,,,AFSA01.jpg,AFNE12.jpg,AFSA09.jpg,AFNE11.jpg,AFSA09.jpg,FS,4,num_2,32,num_8,1.1334454855,,,2018_Jan_19_1619,60.0048114865,FEMA4ImagesEEG,001,202726,
AFNE01.JPG,AFNE01.JPG,AFNE01.JPG,AFNE01.JPG,AFNE01.JPG,AFNE01.JPG,,,,,,,,,,,,,,,,,3,8,38,4,,,,,,,AFSA02.jpg,AFNE20.jpg,AFSA12.jpg,AFNE10.jpg,AFNE20.jpg,FN,3,num_6,32,num_4,0.533574422821,,,2018_Jan_19_1619,60.0048114865,FEMA4ImagesEEG,001,202726,
AFNE01.JPG,AFNE01.JPG,AFNE01.JPG,AFNE01.JPG,AFNE01.JPG,AFNE01.JPG,,,,,,,,,,,,,,,,,3,9,39,5,,,,,,,AFNE10.jpg,AFSA01.jpg,AFNE16.jpg,AFSA12.jpg,AFSA12.jpg,FS,4,num_4,32,num_8,1.16674471367,,,2018_Jan_19_1619,60.0048114865,FEMA4ImagesEEG,001,202726,
AFNE01.JPG,AFNE01.JPG,AFNE01.JPG,AFNE01.JPG,AFNE01.JPG,AFNE01.JPG,,,,,,,,,,,,,,,,,4,0,40,8,,,,,,,AFNE02.jpg,AFNE17.jpg,AFSA10.jpg,AFSA03.jpg,AFNE17.jpg,FN,3,num_6,16,num_6,0.683534170035,,,2018_Jan_19_1619,60.0048114865,FEMA4ImagesEEG,001,202726,
AFNE01.JPG,AFNE01.JPG,AFNE01.JPG,AFNE01.JPG,AFNE01.JPG,AFNE01.JPG,,,,,,,,,,,,,,,,,4,1,41,6,,,,,,,AFSA19.jpg,AFSA16.jpg,AFNE08.jpg,AFNE03.jpg,AFNE08.jpg,FN,3,num_2,32,num_8,1.16675369442,,,2018_Jan_19_1619,60.0048114865,FEMA4ImagesEEG,001,202726,
AFNE01.JPG,AFNE01.JPG,AFNE01.JPG,AFNE01.JPG,AFNE01.JPG,AFNE01.JPG,,,,,,,,,,,,,,,,,4,2,42,9,,,,,,,AFNE18.jpg,AFNE06.jpg,AFSA14.jpg,AFSA07.jpg,AFSA07.jpg,FS,4,num_4,16,num_4,1.06673797779,,,2018_Jan_19_1619,60.0048114865,FEMA4ImagesEEG,001,202726,
AFNE01.JPG,AFNE01.JPG,AFNE01.JPG,AFNE01.JPG,AFNE01.JPG,AFNE01.JPG,,,,,,,,,,,,,,,,,4,3,43,1,,,,,,,AFNE02.jpg,AFNE20.jpg,AFSA12.jpg,AFSA09.jpg,AFNE02.jpg,FN,3,num_8,16,num_8,0.716808380559,,,2018_Jan_19_1619,60.0048114865,FEMA4ImagesEEG,001,202726,
AFNE01.JPG,AFNE01.JPG,AFNE01.JPG,AFNE01.JPG,AFNE01.JPG,AFNE01.JPG,,,,,,,,,,,,,,,,,4,4,44,3,,,,,,,AFSA18.jpg,AFNE03.jpg,AFSA12.jpg,AFNE15.jpg,AFNE03.jpg,FN,3,num_6,16,num_6,0.933457673527,,,2018_Jan_19_1619,60.0048114865,FEMA4ImagesEEG,001,202726,
AFNE01.JPG,AFNE01.JPG,AFNE01.JPG,AFNE01.JPG,AFNE01.JPG,AFNE01.JPG,,,,,,,,,,,,,,,,,4,5,45,4,,,,,,,AFNE09.jpg,AFSA07.jpg,AFNE07.jpg,AFSA18.jpg,AFSA18.jpg,FS,4,num_4,16,num_4,0.616789456457,,,2018_Jan_19_1619,60.0048114865,FEMA4ImagesEEG,001,202726,
AFNE01.JPG,AFNE01.JPG,AFNE01.JPG,AFNE01.JPG,AFNE01.JPG,AFNE01.JPG,,,,,,,,,,,,,,,,,4,6,46,5,,,,,,,AFSA01.jpg,AFNE13.jpg,AFSA07.jpg,AFNE05.jpg,AFSA01.jpg,FS,4,num_8,32,num_4,0.816796833649,,,2018_Jan_19_1619,60.0048114865,FEMA4ImagesEEG,001,202726,
AFNE01.JPG,AFNE01.JPG,AFNE01.JPG,AFNE01.JPG,AFNE01.JPG,AFNE01.JPG,,,,,,,,,,,,,,,,,4,7,47,7,,,,,,,AFNE13.jpg,AFNE18.jpg,AFSA05.jpg,AFSA19.jpg,AFNE18.jpg,FN,3,num_6,16,num_6,1.0167897772,,,2018_Jan_19_1619,60.0048114865,FEMA4ImagesEEG,001,202726,
AFNE01.JPG,AFNE01.JPG,AFNE01.JPG,AFNE01.JPG,AFNE01.JPG,AFNE01.JPG,,,,,,,,,,,,,,,,,4,8,48,2,,,,,,,AFNE15.jpg,AFSA06.jpg,AFSA15.jpg,AFNE14.jpg,AFNE14.jpg,FN,3,num_4,32,num_8,0.849994707853,,,2018_Jan_19_1619,60.0048114865,FEMA4ImagesEEG,001,202726,
AFNE01.JPG,AFNE01.JPG,AFNE01.JPG,AFNE01.JPG,AFNE01.JPG,AFNE01.JPG,,,,,,,,,,,,,,,,,4,9,49,0,,,,,,,AFSA06.jpg,AFNE15.jpg,AFNE11.jpg,AFSA18.jpg,AFNE11.jpg,FN,3,num_2,16,num_2,0.80015331367,,,2018_Jan_19_1619,60.0048114865,FEMA4ImagesEEG,001,202726,
AFNE01.JPG,AFNE01.JPG,AFNE01.JPG,AFNE01.JPG,AFNE01.JPG,AFNE01.JPG,,,,,,,,,,,,,,,,,5,0,50,9,,,,,,,AFNE02.jpg,AFNE06.jpg,AFSA15.jpg,AFSA18.jpg,AFNE02.jpg,FN,3,num_8,32,num_6,1.03345254157,,,2018_Jan_19_1619,60.0048114865,FEMA4ImagesEEG,001,202726,
AFNE01.JPG,AFNE01.JPG,AFNE01.JPG,AFNE01.JPG,AFNE01.JPG,AFNE01.JPG,,,,,,,,,,,,,,,,,5,1,51,3,,,,,,,AFSA07.jpg,AFNE10.jpg,AFSA01.jpg,AFNE07.jpg,AFSA01.jpg,FS,4,num_2,16,num_2,1.23343810858,,,2018_Jan_19_1619,60.0048114865,FEMA4ImagesEEG,001,202726,
AFNE01.JPG,AFNE01.JPG,AFNE01.JPG,AFNE01.JPG,AFNE01.JPG,AFNE01.JPG,,,,,,,,,,,,,,,,,5,2,52,2,,,,,,,AFSA18.jpg,AFSA06.jpg,AFNE01.jpg,AFNE05.jpg,AFNE01.jpg,FN,3,num_2,32,num_4,1.36674407218,,,2018_Jan_19_1619,60.0048114865,FEMA4ImagesEEG,001,202726,
AFNE01.JPG,AFNE01.JPG,AFNE01.JPG,AFNE01.JPG,AFNE01.JPG,AFNE01.JPG,,,,,,,,,,,,,,,,,5,3,53,1,,,,,,,AFSA02.jpg,AFNE14.jpg,AFSA20.jpg,AFNE18.jpg,AFNE14.jpg,FN,3,num_6,32,num_8,0.883457192685,,,2018_Jan_19_1619,60.0048114865,FEMA4ImagesEEG,001,202726,
AFNE01.JPG,AFNE01.JPG,AFNE01.JPG,AFNE01.JPG,AFNE01.JPG,AFNE01.JPG,,,,,,,,,,,,,,,,,5,4,54,5,,,,,,,AFSA10.jpg,AFNE15.jpg,AFSA08.jpg,AFNE10.jpg,AFNE15.jpg,FN,3,num_6,32,num_8,1.26674792077,,,2018_Jan_19_1619,60.0048114865,FEMA4ImagesEEG,001,202726,
AFNE01.JPG,AFNE01.JPG,AFNE01.JPG,AFNE01.JPG,AFNE01.JPG,AFNE01.JPG,,,,,,,,,,,,,,,,,5,5,55,4,,,,,,,AFSA10.jpg,AFSA02.jpg,AFNE05.jpg,AFNE06.jpg,AFSA10.jpg,FS,4,num_8,32,num_4,0.866789937485,,,2018_Jan_19_1619,60.0048114865,FEMA4ImagesEEG,001,202726,
AFNE01.JPG,AFNE01.JPG,AFNE01.JPG,AFNE01.JPG,AFNE01.JPG,AFNE01.JPG,,,,,,,,,,,,,,,,,5,6,56,0,,,,,,,AFSA01.jpg,AFSA09.jpg,AFNE02.jpg,AFNE04.jpg,AFSA09.jpg,FS,4,num_6,16,num_6,0.700114503969,,,2018_Jan_19_1619,60.0048114865,FEMA4ImagesEEG,001,202726,
AFNE01.JPG,AFNE01.JPG,AFNE01.JPG,AFNE01.JPG,AFNE01.JPG,AFNE01.JPG,,,,,,,,,,,,,,,,,5,7,57,8,,,,,,,AFSA19.jpg,AFNE05.jpg,AFSA10.jpg,AFNE10.jpg,AFSA19.jpg,FS,4,num_8,16,num_8,0.800147861242,,,2018_Jan_19_1619,60.0048114865,FEMA4ImagesEEG,001,202726,
AFNE01.JPG,AFNE01.JPG,AFNE01.JPG,AFNE01.JPG,AFNE01.JPG,AFNE01.JPG,,,,,,,,,,,,,,,,,5,8,58,7,,,,,,,AFNE13.jpg,AFSA20.jpg,AFSA05.jpg,AFNE10.jpg,AFSA05.jpg,FS,4,num_2,32,num_6,0.916765080299,,,2018_Jan_19_1619,60.0048114865,FEMA4ImagesEEG,001,202726,
AFNE01.JPG,AFNE01.JPG,AFNE01.JPG,AFNE01.JPG,AFNE01.JPG,AFNE01.JPG,,,,,,,,,,,,,,,,,5,9,59,6,,,,,,,AFSA20.jpg,AFNE08.jpg,AFNE11.jpg,AFSA05.jpg,AFNE11.jpg,FN,3,num_2,32,num_8,0.816819285043,,,2018_Jan_19_1619,60.0048114865,FEMA4ImagesEEG,001,202726,
,,,,,,,,,,,,,,,,,,,,,,,,,,,,,,,,,,,,,,,,,,,space,8.94947542995,2018_Jan_19_1619,60.0048114865,FEMA4ImagesEEG,001,202726,
AFNE01.JPG,AFNE01.JPG,AFNE01.JPG,AFNE01.JPG,AFNE01.JPG,AFNE01.JPG,,,,,,,,,,,,,,,,,,,,,0,0,0,3,,,AMSA20.jpg,AMNE20.jpg,AMNE05.jpg,AMSA10.jpg,AMNE20.jpg,MN,1,num_6,32,num_8,1.00011482462,,,2018_Jan_19_1619,60.0048114865,FEMA4ImagesEEG,001,202726,
AFNE01.JPG,AFNE01.JPG,AFNE01.JPG,AFNE01.JPG,AFNE01.JPG,AFNE01.JPG,,,,,,,,,,,,,,,,,,,,,0,1,1,5,,,AMNE17.jpg,AMSA13.jpg,AMSA20.jpg,AMNE15.jpg,AMSA13.jpg,MS,2,num_6,16,num_6,0.983424476814,,,2018_Jan_19_1619,60.0048114865,FEMA4ImagesEEG,001,202726,
AFNE01.JPG,AFNE01.JPG,AFNE01.JPG,AFNE01.JPG,AFNE01.JPG,AFNE01.JPG,,,,,,,,,,,,,,,,,,,,,0,2,2,8,,,AMSA16.jpg,AMNE10.jpg,AMSA19.jpg,AMNE16.jpg,AMSA19.jpg,MS,2,num_2,32,num_8,0.900154917501,,,2018_Jan_19_1619,60.0048114865,FEMA4ImagesEEG,001,202726,
AFNE01.JPG,AFNE01.JPG,AFNE01.JPG,AFNE01.JPG,AFNE01.JPG,AFNE01.JPG,,,,,,,,,,,,,,,,,,,,,0,3,3,2,,,AMNE09.jpg,AMNE11.jpg,AMSA20.jpg,AMSA07.jpg,AMSA20.jpg,MS,2,num_2,16,num_2,0.500170954503,,,2018_Jan_19_1619,60.0048114865,FEMA4ImagesEEG,001,202726,
AFNE01.JPG,AFNE01.JPG,AFNE01.JPG,AFNE01.JPG,AFNE01.JPG,AFNE01.JPG,,,,,,,,,,,,,,,,,,,,,0,4,4,6,,,AMSA14.jpg,AMNE12.jpg,AMNE11.jpg,AMSA08.jpg,AMNE11.jpg,MN,1,num_2,32,num_4,0.950112740044,,,2018_Jan_19_1619,60.0048114865,FEMA4ImagesEEG,001,202726,
AFNE01.JPG,AFNE01.JPG,AFNE01.JPG,AFNE01.JPG,AFNE01.JPG,AFNE01.JPG,,,,,,,,,,,,,,,,,,,,,0,5,5,9,,,AMSA12.jpg,AMNE06.jpg,AMSA07.jpg,AMNE03.jpg,AMNE06.jpg,MN,1,num_6,16,num_6,0.966762995813,,,2018_Jan_19_1619,60.0048114865,FEMA4ImagesEEG,001,202726,
AFNE01.JPG,AFNE01.JPG,AFNE01.JPG,AFNE01.JPG,AFNE01.JPG,AFNE01.JPG,,,,,,,,,,,,,,,,,,,,,0,6,6,1,,,AMNE04.jpg,AMSA01.jpg,AMSA02.jpg,AMNE13.jpg,AMNE13.jpg,MN,1,num_4,16,num_4,0.666785767768,,,2018_Jan_19_1619,60.0048114865,FEMA4ImagesEEG,001,202726,
AFNE01.JPG,AFNE01.JPG,AFNE01.JPG,AFNE01.JPG,AFNE01.JPG,AFNE01.JPG,,,,,,,,,,,,,,,,,,,,,0,7,7,0,,,AMSA03.jpg,AMSA15.jpg,AMNE06.jpg,AMNE07.jpg,AMSA03.jpg,MS,2,num_8,16,num_8,0.850159247406,,,2018_Jan_19_1619,60.0048114865,FEMA4ImagesEEG,001,202726,
AFNE01.JPG,AFNE01.JPG,AFNE01.JPG,AFNE01.JPG,AFNE01.JPG,AFNE01.JPG,,,,,,,,,,,,,,,,,,,,,0,8,8,4,,,AMSA01.jpg,AMNE04.jpg,AMSA02.jpg,AMNE18.jpg,AMSA02.jpg,MS,2,num_2,32,num_8,0.766800201498,,,2018_Jan_19_1619,60.0048114865,FEMA4ImagesEEG,001,202726,
AFNE01.JPG,AFNE01.JPG,AFNE01.JPG,AFNE01.JPG,AFNE01.JPG,AFNE01.JPG,,,,,,,,,,,,,,,,,,,,,0,9,9,7,,,AMNE19.jpg,AMSA05.jpg,AMNE04.jpg,AMSA17.jpg,AMNE04.jpg,MN,1,num_2,32,num_6,1.18343698606,,,2018_Jan_19_1619,60.0048114865,FEMA4ImagesEEG,001,202726,
AFNE01.JPG,AFNE01.JPG,AFNE01.JPG,AFNE01.JPG,AFNE01.JPG,AFNE01.JPG,,,,,,,,,,,,,,,,,,,,,1,0,10,3,,,AMNE04.jpg,AMSA18.jpg,AMSA20.jpg,AMNE19.jpg,AMSA20.jpg,MS,2,num_2,32,num_8,1.25008387351,,,2018_Jan_19_1619,60.0048114865,FEMA4ImagesEEG,001,202726,
AFNE01.JPG,AFNE01.JPG,AFNE01.JPG,AFNE01.JPG,AFNE01.JPG,AFNE01.JPG,,,,,,,,,,,,,,,,,,,,,1,1,11,7,,,AMSA03.jpg,AMNE15.jpg,AMNE01.jpg,AMSA07.jpg,AMSA03.jpg,MS,2,num_8,32,num_2,0.883537377231,,,2018_Jan_19_1619,60.0048114865,FEMA4ImagesEEG,001,202726,
AFNE01.JPG,AFNE01.JPG,AFNE01.JPG,AFNE01.JPG,AFNE01.JPG,AFNE01.JPG,,,,,,,,,,,,,,,,,,,,,1,2,12,1,,,AMNE13.jpg,AMSA02.jpg,AMSA09.jpg,AMNE11.jpg,AMNE11.jpg,MN,1,num_4,16,num_4,0.600154917687,,,2018_Jan_19_1619,60.0048114865,FEMA4ImagesEEG,001,202726,
AFNE01.JPG,AFNE01.JPG,AFNE01.JPG,AFNE01.JPG,AFNE01.JPG,AFNE01.JPG,,,,,,,,,,,,,,,,,,,,,1,3,13,2,,,AMNE20.jpg,AMSA02.jpg,AMNE06.jpg,AMSA09.jpg,AMSA09.jpg,MS,2,num_4,16,num_4,0.550139681902,,,2018_Jan_19_1619,60.0048114865,FEMA4ImagesEEG,001,202726,
AFNE01.JPG,AFNE01.JPG,AFNE01.JPG,AFNE01.JPG,AFNE01.JPG,AFNE01.JPG,,,,,,,,,,,,,,,,,,,,,1,4,14,4,,,AMSA11.jpg,AMSA08.jpg,AMNE13.jpg,AMNE08.jpg,AMNE13.jpg,MN,1,num_2,32,num_8,0.733471465297,,,2018_Jan_19_1619,60.0048114865,FEMA4ImagesEEG,001,202726,
AFNE01.JPG,AFNE01.JPG,AFNE01.JPG,AFNE01.JPG,AFNE01.JPG,AFNE01.JPG,,,,,,,,,,,,,,,,,,,,,1,5,15,0,,,AMSA18.jpg,AMSA16.jpg,AMNE08.jpg,AMNE04.jpg,AMSA16.jpg,MS,2,num_6,32,num_8,0.533468258101,,,2018_Jan_19_1619,60.0048114865,FEMA4ImagesEEG,001,202726,
AFNE01.JPG,AFNE01.JPG,AFNE01.JPG,AFNE01.JPG,AFNE01.JPG,AFNE01.JPG,,,,,,,,,,,,,,,,,,,,,1,6,16,8,,,AMNE14.jpg,AMSA12.jpg,AMNE02.jpg,AMSA19.jpg,AMNE14.jpg,MN,1,num_8,32,num_2,0.883473550435,,,2018_Jan_19_1619,60.0048114865,FEMA4ImagesEEG,001,202726,
AFNE01.JPG,AFNE01.JPG,AFNE01.JPG,AFNE01.JPG,AFNE01.JPG,AFNE01.JPG,,,,,,,,,,,,,,,,,,,,,1,7,17,9,,,AMSA15.jpg,AMSA06.jpg,AMNE18.jpg,AMNE04.jpg,AMNE04.jpg,MN,1,num_4,16,num_4,0.666861462872,,,2018_Jan_19_1619,60.0048114865,FEMA4ImagesEEG,001,202726,
AFNE01.JPG,AFNE01.JPG,AFNE01.JPG,AFNE01.JPG,AFNE01.JPG,AFNE01.JPG,,,,,,,,,,,,,,,,,,,,,1,8,18,5,,,AMNE15.jpg,AMSA19.jpg,AMNE07.jpg,AMSA15.jpg,AMSA19.jpg,MS,2,num_6,16,num_6,0.600112579763,,,2018_Jan_19_1619,60.0048114865,FEMA4ImagesEEG,001,202726,
AFNE01.JPG,AFNE01.JPG,AFNE01.JPG,AFNE01.JPG,AFNE01.JPG,AFNE01.JPG,,,,,,,,,,,,,,,,,,,,,1,9,19,6,,,AMSA05.jpg,AMNE06.jpg,AMNE15.jpg,AMSA04.jpg,AMNE15.jpg,MN,1,num_2,32,num_8,1.18350690743,,,2018_Jan_19_1619,60.0048114865,FEMA4ImagesEEG,001,202726,
AFNE01.JPG,AFNE01.JPG,AFNE01.JPG,AFNE01.JPG,AFNE01.JPG,AFNE01.JPG,,,,,,,,,,,,,,,,,,,,,2,0,20,6,,,AMNE08.jpg,AMSA11.jpg,AMNE09.jpg,AMSA18.jpg,AMSA11.jpg,MS,2,num_6,16,num_6,0.86677935347,,,2018_Jan_19_1619,60.0048114865,FEMA4ImagesEEG,001,202726,
AFNE01.JPG,AFNE01.JPG,AFNE01.JPG,AFNE01.JPG,AFNE01.JPG,AFNE01.JPG,,,,,,,,,,,,,,,,,,,,,2,1,21,4,,,AMSA02.jpg,AMSA20.jpg,AMNE05.jpg,AMNE15.jpg,AMNE15.jpg,MN,1,num_4,32,num_8,1.01682826597,,,2018_Jan_19_1619,60.0048114865,FEMA4ImagesEEG,001,202726,
AFNE01.JPG,AFNE01.JPG,AFNE01.JPG,AFNE01.JPG,AFNE01.JPG,AFNE01.JPG,,,,,,,,,,,,,,,,,,,,,2,2,22,8,,,AMSA03.jpg,AMNE16.jpg,AMNE15.jpg,AMSA17.jpg,AMNE15.jpg,MN,1,num_2,16,num_2,1.38355982956,,,2018_Jan_19_1619,60.0048114865,FEMA4ImagesEEG,001,202726,
AFNE01.JPG,AFNE01.JPG,AFNE01.JPG,AFNE01.JPG,AFNE01.JPG,AFNE01.JPG,,,,,,,,,,,,,,,,,,,,,2,3,23,5,,,AMNE01.jpg,AMSA05.jpg,AMNE15.jpg,AMSA17.jpg,AMNE15.jpg,MN,1,num_2,16,num_2,0.883299067616,,,2018_Jan_19_1619,60.0048114865,FEMA4ImagesEEG,001,202726,
AFNE01.JPG,AFNE01.JPG,AFNE01.JPG,AFNE01.JPG,AFNE01.JPG,AFNE01.JPG,,,,,,,,,,,,,,,,,,,,,2,4,24,9,,,AMSA11.jpg,AMNE02.jpg,AMNE17.jpg,AMSA13.jpg,AMNE02.jpg,MN,1,num_6,16,num_6,0.466909894254,,,2018_Jan_19_1619,60.0048114865,FEMA4ImagesEEG,001,202726,
AFNE01.JPG,AFNE01.JPG,AFNE01.JPG,AFNE01.JPG,AFNE01.JPG,AFNE01.JPG,,,,,,,,,,,,,,,,,,,,,2,5,25,2,,,AMSA15.jpg,AMNE16.jpg,AMNE13.jpg,AMSA04.jpg,AMSA04.jpg,MS,2,num_4,32,num_8,1.20009942958,,,2018_Jan_19_1619,60.0048114865,FEMA4ImagesEEG,001,202726,
AFNE01.JPG,AFNE01.JPG,AFNE01.JPG,AFNE01.JPG,AFNE01.JPG,AFNE01.JPG,,,,,,,,,,,,,,,,,,,,,2,6,26,3,,,AMNE06.jpg,AMSA14.jpg,AMNE11.jpg,AMSA04.jpg,AMNE06.jpg,MN,1,num_8,16,num_8,1.15012653172,,,2018_Jan_19_1619,60.0048114865,FEMA4ImagesEEG,001,202726,
AFNE01.JPG,AFNE01.JPG,AFNE01.JPG,AFNE01.JPG,AFNE01.JPG,AFNE01.JPG,,,,,,,,,,,,,,,,,,,,,2,7,27,7,,,AMSA13.jpg,AMNE04.jpg,AMNE01.jpg,AMSA09.jpg,AMNE04.jpg,MN,1,num_6,32,num_2,0.766806616448,,,2018_Jan_19_1619,60.0048114865,FEMA4ImagesEEG,001,202726,
AFNE01.JPG,AFNE01.JPG,AFNE01.JPG,AFNE01.JPG,AFNE01.JPG,AFNE01.JPG,,,,,,,,,,,,,,,,,,,,,2,8,28,0,,,AMNE14.jpg,AMNE19.jpg,AMSA05.jpg,AMSA12.jpg,AMSA05.jpg,MS,2,num_2,32,num_8,0.983358724974,,,2018_Jan_19_1619,60.0048114865,FEMA4ImagesEEG,001,202726,
AFNE01.JPG,AFNE01.JPG,AFNE01.JPG,AFNE01.JPG,AFNE01.JPG,AFNE01.JPG,,,,,,,,,,,,,,,,,,,,,2,9,29,1,,,AMSA09.jpg,AMSA08.jpg,AMNE09.jpg,AMNE05.jpg,AMSA09.jpg,MS,2,num_8,32,num_4,1.56673028041,,,2018_Jan_19_1619,60.0048114865,FEMA4ImagesEEG,001,202726,
AFNE01.JPG,AFNE01.JPG,AFNE01.JPG,AFNE01.JPG,AFNE01.JPG,AFNE01.JPG,,,,,,,,,,,,,,,,,,,,,3,0,30,0,,,AMNE07.jpg,AMNE16.jpg,AMSA14.jpg,AMSA11.jpg,AMNE16.jpg,MN,1,num_6,16,num_6,0.766686659772,,,2018_Jan_19_1619,60.0048114865,FEMA4ImagesEEG,001,202726,
AFNE01.JPG,AFNE01.JPG,AFNE01.JPG,AFNE01.JPG,AFNE01.JPG,AFNE01.JPG,,,,,,,,,,,,,,,,,,,,,3,1,31,3,,,AMSA06.jpg,AMNE06.jpg,AMNE13.jpg,AMSA04.jpg,AMSA06.jpg,MS,2,num_8,16,num_8,0.600184746087,,,2018_Jan_19_1619,60.0048114865,FEMA4ImagesEEG,001,202726,
AFNE01.JPG,AFNE01.JPG,AFNE01.JPG,AFNE01.JPG,AFNE01.JPG,AFNE01.JPG,,,,,,,,,,,,,,,,,,,,,3,2,32,8,,,AMSA04.jpg,AMSA01.jpg,AMNE05.jpg,AMNE07.jpg,AMNE07.jpg,MN,1,num_4,32,num_2,0.966753053013,,,2018_Jan_19_1619,60.0048114865,FEMA4ImagesEEG,001,202726,
AFNE01.JPG,AFNE01.JPG,AFNE01.JPG,AFNE01.JPG,AFNE01.JPG,AFNE01.JPG,,,,,,,,,,,,,,,,,,,,,3,3,33,9,,,AMNE01.jpg,AMSA19.jpg,AMNE15.jpg,AMSA11.jpg,AMNE15.jpg,MN,1,num_2,16,num_2,0.71679972019,,,2018_Jan_19_1619,60.0048114865,FEMA4ImagesEEG,001,202726,
AFNE01.JPG,AFNE01.JPG,AFNE01.JPG,AFNE01.JPG,AFNE01.JPG,AFNE01.JPG,,,,,,,,,,,,,,,,,,,,,3,4,34,5,,,AMSA10.jpg,AMNE03.jpg,AMNE19.jpg,AMSA11.jpg,AMSA10.jpg,MS,2,num_8,16,num_8,0.683461682871,,,2018_Jan_19_1619,60.0048114865,FEMA4ImagesEEG,001,202726,
AFNE01.JPG,AFNE01.JPG,AFNE01.JPG,AFNE01.JPG,AFNE01.JPG,AFNE01.JPG,,,,,,,,,,,,,,,,,,,,,3,5,35,4,,,AMNE10.jpg,AMSA05.jpg,AMNE18.jpg,AMSA06.jpg,AMNE10.jpg,MN,1,num_8,16,num_8,0.866801484488,,,2018_Jan_19_1619,60.0048114865,FEMA4ImagesEEG,001,202726,
AFNE01.JPG,AFNE01.JPG,AFNE01.JPG,AFNE01.JPG,AFNE01.JPG,AFNE01.JPG,,,,,,,,,,,,,,,,,,,,,3,6,36,7,,,AMNE11.jpg,AMSA11.jpg,AMNE09.jpg,AMSA10.jpg,AMNE11.jpg,MN,1,num_8,32,num_2,1.51705053914,,,2018_Jan_19_1619,60.0048114865,FEMA4ImagesEEG,001,202726,
AFNE01.JPG,AFNE01.JPG,AFNE01.JPG,AFNE01.JPG,AFNE01.JPG,AFNE01.JPG,,,,,,,,,,,,,,,,,,,,,3,7,37,2,,,AMSA03.jpg,AMNE15.jpg,AMNE18.jpg,AMSA14.jpg,AMNE18.jpg,MN,1,num_2,32,num_4,1.05008194922,,,2018_Jan_19_1619,60.0048114865,FEMA4ImagesEEG,001,202726,
AFNE01.JPG,AFNE01.JPG,AFNE01.JPG,AFNE01.JPG,AFNE01.JPG,AFNE01.JPG,,,,,,,,,,,,,,,,,,,,,3,8,38,1,,,AMSA09.jpg,AMNE10.jpg,AMNE18.jpg,AMSA16.jpg,AMSA09.jpg,MS,2,num_8,16,num_8,0.883467135485,,,2018_Jan_19_1619,60.0048114865,FEMA4ImagesEEG,001,202726,
