IPosition2,IPosition3,IPosition1,IPosition6,IPosition4,IPosition5,TrialsF1.thisRepN,TrialsF1.thisTrialN,TrialsF1.thisN,TrialsF1.thisIndex,TrialsM1.thisRepN,TrialsM1.thisTrialN,TrialsM1.thisN,TrialsM1.thisIndex,TrialsF2.thisRepN,TrialsF2.thisTrialN,TrialsF2.thisN,TrialsF2.thisIndex,TrialsM2.thisRepN,TrialsM2.thisTrialN,TrialsM2.thisN,TrialsM2.thisIndex,TrialsF3.thisRepN,TrialsF3.thisTrialN,TrialsF3.thisN,TrialsF3.thisIndex,TrialsM3.thisRepN,TrialsM3.thisTrialN,TrialsM3.thisN,TrialsM3.thisIndex,InstrKey_resp.keys,InstrKey_resp.rt,Image0 _Position,Image1 _Position,Image2 _Position,Image3 _Position,Center_image,condition,code,correct_answer,accuracy,Key_Resp.keys,Key_Resp.rt,BreakKey_resp.keys,BreakKey_resp.rt,date,frameRate,expName,session,participant,
,,,,,,,,,,,,,,,,,,,,,,,,,,,,,,space,15.3659906536,,,,,,,,,,,,,,2018_Jan_19_1129,60.0097776303,FEMA4ImagesEEG,001,202716,
AFSA21.JPG,AFNE22.JPG,AFNE21.JPG,AFSA23.JPG,AFSA22.JPG,AFNE23.JPG,0,0,0,0,,,,,,,,,,,,,,,,,,,,,,,AFNE01.jpg,AFSA05.jpg,AFNE03.jpg,AFSA06.jpg,AFNE03.jpg,FN,3,num_2,32,num_8,0.966473687906,,,2018_Jan_19_1129,60.0097776303,FEMA4ImagesEEG,001,202716,
AMNE23.JPG,AMNE24.JPG,AMNE22.JPG,AMSA24.JPG,AMSA22.JPG,AMSA23.JPG,0,1,1,9,,,,,,,,,,,,,,,,,,,,,,,AFSA01.jpg,AFSA07.jpg,AFNE05.jpg,AFNE08.jpg,AFSA01.jpg,FS,4,num_8,32,num_2,1.41680260655,,,2018_Jan_19_1129,60.0097776303,FEMA4ImagesEEG,001,202716,
AFSA21.JPG,AFNE23.JPG,AFNE21.JPG,AFSA25.JPG,AFNE25.JPG,AFSA23.JPG,0,2,2,4,,,,,,,,,,,,,,,,,,,,,,,AFNE01.jpg,AFSA09.jpg,AFNE05.jpg,AFSA05.jpg,AFNE05.jpg,FN,3,num_2,32,num_8,1.53343233513,,,2018_Jan_19_1129,60.0097776303,FEMA4ImagesEEG,001,202716,
AFNE23.JPG,AFNE24.JPG,AFNE22.JPG,AFSA24.JPG,AFSA22.JPG,AFSA23.JPG,0,3,3,8,,,,,,,,,,,,,,,,,,,,,,,AFNE18.jpg,AFSA02.jpg,AFSA11.jpg,AFNE10.jpg,AFSA11.jpg,FS,4,num_2,16,num_2,1.01676796703,,,2018_Jan_19_1129,60.0097776303,FEMA4ImagesEEG,001,202716,
AMSA25.JPG,AMNE24.JPG,AMSA24.JPG,AMNE26.JPG,AMSA21.JPG,AMNE25.JPG,0,4,4,3,,,,,,,,,,,,,,,,,,,,,,,AFNE10.jpg,AFSA08.jpg,AFSA12.jpg,AFNE06.jpg,AFNE06.jpg,FN,3,num_4,32,num_8,0.983462324366,,,2018_Jan_19_1129,60.0097776303,FEMA4ImagesEEG,001,202716,
AMNE22.JPG,AMSA24.JPG,AMSA22.JPG,AMNE25.JPG,AMNE24.JPG,AMSA25.JPG,0,5,5,7,,,,,,,,,,,,,,,,,,,,,,,AFNE06.jpg,AFSA17.jpg,AFNE20.jpg,AFSA08.jpg,AFSA08.jpg,FS,4,num_4,16,num_4,0.683533207979,,,2018_Jan_19_1129,60.0097776303,FEMA4ImagesEEG,001,202716,
AFNE22.JPG,AFSA24.JPG,AFSA22.JPG,AFNE25.JPG,AFNE24.JPG,AFSA25.JPG,0,6,6,6,,,,,,,,,,,,,,,,,,,,,,,AFNE16.jpg,AFSA20.jpg,AFSA08.jpg,AFNE01.jpg,AFNE01.jpg,FN,3,num_4,32,num_6,1.03349520033,,,2018_Jan_19_1129,60.0097776303,FEMA4ImagesEEG,001,202716,
AMSA21.JPG,AMNE23.JPG,AMNE21.JPG,AMSA25.JPG,AMNE25.JPG,AMSA23.JPG,0,7,7,5,,,,,,,,,,,,,,,,,,,,,,,AFSA03.jpg,AFNE20.jpg,AFSA07.jpg,AFNE03.jpg,AFSA03.jpg,FS,4,num_8,16,num_8,0.966763957869,,,2018_Jan_19_1129,60.0097776303,FEMA4ImagesEEG,001,202716,
AFSA25.JPG,AFNE24.JPG,AFSA24.JPG,AFNE21.JPG,AFSA21.JPG,AFNE25.JPG,0,8,8,2,,,,,,,,,,,,,,,,,,,,,,,AFSA02.jpg,AFSA12.jpg,AFNE13.jpg,AFNE01.jpg,AFNE01.jpg,FN,3,num_4,32,num_6,0.916781438049,,,2018_Jan_19_1129,60.0097776303,FEMA4ImagesEEG,001,202716,
AMSA21.JPG,AMNE22.JPG,AMNE21.JPG,AMSA23.JPG,AMSA22.JPG,AMNE23.JPG,0,9,9,1,,,,,,,,,,,,,,,,,,,,,,,AFNE14.jpg,AFSA01.jpg,AFSA06.jpg,AFNE18.jpg,AFNE18.jpg,FN,3,num_4,32,num_8,0.733707209118,,,2018_Jan_19_1129,60.0097776303,FEMA4ImagesEEG,001,202716,
AMSA21.JPG,AMNE23.JPG,AMNE21.JPG,AMSA25.JPG,AMNE25.JPG,AMSA23.JPG,,,,,0,0,0,5,,,,,,,,,,,,,,,,,,,AMNE06.jpg,AMSA10.jpg,AMSA06.jpg,AMNE05.jpg,AMNE05.jpg,MN,1,num_4,32,num_8,0.783425118309,,,2018_Jan_19_1129,60.0097776303,FEMA4ImagesEEG,001,202716,
AFSA21.JPG,AFNE23.JPG,AFNE21.JPG,AFSA25.JPG,AFNE25.JPG,AFSA23.JPG,,,,,0,1,1,4,,,,,,,,,,,,,,,,,,,AMSA08.jpg,AMNE06.jpg,AMSA12.jpg,AMNE12.jpg,AMSA12.jpg,MS,2,num_2,32,num_6,0.766783202067,,,2018_Jan_19_1129,60.0097776303,FEMA4ImagesEEG,001,202716,
AMNE22.JPG,AMSA24.JPG,AMSA22.JPG,AMNE25.JPG,AMNE24.JPG,AMSA25.JPG,,,,,0,2,2,7,,,,,,,,,,,,,,,,,,,AMSA18.jpg,AMNE05.jpg,AMSA13.jpg,AMNE14.jpg,AMNE05.jpg,MN,1,num_6,32,num_2,1.31672434648,,,2018_Jan_19_1129,60.0097776303,FEMA4ImagesEEG,001,202716,
AFNE22.JPG,AFSA24.JPG,AFSA22.JPG,AFNE25.JPG,AFNE24.JPG,AFSA25.JPG,,,,,0,3,3,6,,,,,,,,,,,,,,,,,,,AMSA10.jpg,AMNE13.jpg,AMNE07.jpg,AMSA11.jpg,AMNE13.jpg,MN,1,num_6,32,num_8,0.800158766098,,,2018_Jan_19_1129,60.0097776303,FEMA4ImagesEEG,001,202716,
AMSA21.JPG,AMNE22.JPG,AMNE21.JPG,AMSA23.JPG,AMSA22.JPG,AMNE23.JPG,,,,,0,4,4,1,,,,,,,,,,,,,,,,,,,AMSA07.jpg,AMSA11.jpg,AMNE20.jpg,AMNE03.jpg,AMNE20.jpg,MN,1,num_2,32,num_8,0.833486219402,,,2018_Jan_19_1129,60.0097776303,FEMA4ImagesEEG,001,202716,
AFNE23.JPG,AFNE24.JPG,AFNE22.JPG,AFSA24.JPG,AFSA22.JPG,AFSA23.JPG,,,,,0,5,5,8,,,,,,,,,,,,,,,,,,,AMSA20.jpg,AMNE11.jpg,AMNE17.jpg,AMSA05.jpg,AMSA20.jpg,MS,2,num_8,32,num_6,0.866720336955,,,2018_Jan_19_1129,60.0097776303,FEMA4ImagesEEG,001,202716,
AFSA25.JPG,AFNE24.JPG,AFSA24.JPG,AFNE21.JPG,AFSA21.JPG,AFNE25.JPG,,,,,0,6,6,2,,,,,,,,,,,,,,,,,,,AMSA02.jpg,AMSA12.jpg,AMNE13.jpg,AMNE04.jpg,AMSA02.jpg,MS,2,num_8,32,num_4,0.666776145808,,,2018_Jan_19_1129,60.0097776303,FEMA4ImagesEEG,001,202716,
AMNE23.JPG,AMNE24.JPG,AMNE22.JPG,AMSA24.JPG,AMSA22.JPG,AMSA23.JPG,,,,,0,7,7,9,,,,,,,,,,,,,,,,,,,AMNE06.jpg,AMSA17.jpg,AMSA05.jpg,AMNE05.jpg,AMNE05.jpg,MN,1,num_4,32,num_8,0.65020896215,,,2018_Jan_19_1129,60.0097776303,FEMA4ImagesEEG,001,202716,
AMSA25.JPG,AMNE24.JPG,AMSA24.JPG,AMNE26.JPG,AMSA21.JPG,AMNE25.JPG,,,,,0,8,8,3,,,,,,,,,,,,,,,,,,,AMSA01.jpg,AMNE15.jpg,AMNE19.jpg,AMSA12.jpg,AMSA01.jpg,MS,2,num_8,16,num_8,0.466864991002,,,2018_Jan_19_1129,60.0097776303,FEMA4ImagesEEG,001,202716,
AFSA21.JPG,AFNE22.JPG,AFNE21.JPG,AFSA23.JPG,AFSA22.JPG,AFNE23.JPG,,,,,0,9,9,0,,,,,,,,,,,,,,,,,,,AMSA02.jpg,AMNE02.jpg,AMSA03.jpg,AMNE08.jpg,AMNE02.jpg,MN,1,num_6,16,num_6,0.550159568433,,,2018_Jan_19_1129,60.0097776303,FEMA4ImagesEEG,001,202716,
AFNE22.JPG,AFSA24.JPG,AFSA22.JPG,AFNE25.JPG,AFNE24.JPG,AFSA25.JPG,,,,,,,,,0,0,0,6,,,,,,,,,,,,,,,AFNE19.jpg,AFNE20.jpg,AFSA04.jpg,AFSA02.jpg,AFSA02.jpg,FS,4,num_4,16,num_4,0.600455771666,,,2018_Jan_19_1129,60.0097776303,FEMA4ImagesEEG,001,202716,
AFSA25.JPG,AFNE24.JPG,AFSA24.JPG,AFNE21.JPG,AFSA21.JPG,AFNE25.JPG,,,,,,,,,0,1,1,2,,,,,,,,,,,,,,,AFSA09.jpg,AFSA04.jpg,AFNE03.jpg,AFNE10.jpg,AFNE10.jpg,FN,3,num_4,32,num_8,0.783586771693,,,2018_Jan_19_1129,60.0097776303,FEMA4ImagesEEG,001,202716,
AMSA21.JPG,AMNE23.JPG,AMNE21.JPG,AMSA25.JPG,AMNE25.JPG,AMSA23.JPG,,,,,,,,,0,2,2,5,,,,,,,,,,,,,,,AFSA10.jpg,AFNE15.jpg,AFNE01.jpg,AFSA17.jpg,AFNE01.jpg,FN,3,num_2,32,num_8,0.950095420238,,,2018_Jan_19_1129,60.0097776303,FEMA4ImagesEEG,001,202716,
AFSA21.JPG,AFNE23.JPG,AFNE21.JPG,AFSA25.JPG,AFNE25.JPG,AFSA23.JPG,,,,,,,,,0,3,3,4,,,,,,,,,,,,,,,AFNE16.jpg,AFSA02.jpg,AFNE14.jpg,AFSA03.jpg,AFNE14.jpg,FN,3,num_2,32,num_8,0.76682489831,,,2018_Jan_19_1129,60.0097776303,FEMA4ImagesEEG,001,202716,
AFNE23.JPG,AFNE24.JPG,AFNE22.JPG,AFSA24.JPG,AFSA22.JPG,AFSA23.JPG,,,,,,,,,0,4,4,8,,,,,,,,,,,,,,,AFNE19.jpg,AFSA01.jpg,AFNE11.jpg,AFSA06.jpg,AFSA06.jpg,FS,4,num_4,32,num_6,0.750162775163,,,2018_Jan_19_1129,60.0097776303,FEMA4ImagesEEG,001,202716,
AMSA21.JPG,AMNE22.JPG,AMNE21.JPG,AMSA23.JPG,AMSA22.JPG,AMNE23.JPG,,,,,,,,,0,5,5,1,,,,,,,,,,,,,,,AFNE11.jpg,AFSA12.jpg,AFNE16.jpg,AFSA09.jpg,AFNE11.jpg,FN,3,num_8,32,num_4,0.849857430905,,,2018_Jan_19_1129,60.0097776303,FEMA4ImagesEEG,001,202716,
AMNE22.JPG,AMSA24.JPG,AMSA22.JPG,AMNE25.JPG,AMNE24.JPG,AMSA25.JPG,,,,,,,,,0,6,6,7,,,,,,,,,,,,,,,AFSA15.jpg,AFSA19.jpg,AFNE02.jpg,AFNE05.jpg,AFNE05.jpg,FN,3,num_4,32,num_8,0.650237187278,,,2018_Jan_19_1129,60.0097776303,FEMA4ImagesEEG,001,202716,
AMSA25.JPG,AMNE24.JPG,AMSA24.JPG,AMNE26.JPG,AMSA21.JPG,AMNE25.JPG,,,,,,,,,0,7,7,3,,,,,,,,,,,,,,,AFSA05.jpg,AFSA02.jpg,AFNE07.jpg,AFNE17.jpg,AFNE17.jpg,FN,3,num_4,32,num_6,0.666782560758,,,2018_Jan_19_1129,60.0097776303,FEMA4ImagesEEG,001,202716,
AMNE23.JPG,AMNE24.JPG,AMNE22.JPG,AMSA24.JPG,AMSA22.JPG,AMSA23.JPG,,,,,,,,,0,8,8,9,,,,,,,,,,,,,,,AFSA11.jpg,AFNE19.jpg,AFNE17.jpg,AFSA02.jpg,AFSA11.jpg,FS,4,num_8,16,num_8,0.733536896296,,,2018_Jan_19_1129,60.0097776303,FEMA4ImagesEEG,001,202716,
AFSA21.JPG,AFNE22.JPG,AFNE21.JPG,AFSA23.JPG,AFSA22.JPG,AFNE23.JPG,,,,,,,,,0,9,9,0,,,,,,,,,,,,,,,AFSA11.jpg,AFNE09.jpg,AFNE20.jpg,AFSA16.jpg,AFSA11.jpg,FS,4,num_8,32,num_6,0.966479782015,,,2018_Jan_19_1129,60.0097776303,FEMA4ImagesEEG,001,202716,
AFNE23.JPG,AFNE24.JPG,AFNE22.JPG,AFSA24.JPG,AFSA22.JPG,AFSA23.JPG,,,,,,,,,,,,,0,0,0,8,,,,,,,,,,,AMSA17.jpg,AMNE08.jpg,AMNE19.jpg,AMSA08.jpg,AMNE08.jpg,MN,1,num_6,32,num_4,0.700155879371,,,2018_Jan_19_1129,60.0097776303,FEMA4ImagesEEG,001,202716,
AFSA21.JPG,AFNE22.JPG,AFNE21.JPG,AFSA23.JPG,AFSA22.JPG,AFNE23.JPG,,,,,,,,,,,,,0,1,1,0,,,,,,,,,,,AMSA10.jpg,AMNE04.jpg,AMNE08.jpg,AMSA15.jpg,AMNE08.jpg,MN,1,num_2,32,num_8,0.750092854258,,,2018_Jan_19_1129,60.0097776303,FEMA4ImagesEEG,001,202716,
AMSA21.JPG,AMNE22.JPG,AMNE21.JPG,AMSA23.JPG,AMSA22.JPG,AMNE23.JPG,,,,,,,,,,,,,0,2,2,1,,,,,,,,,,,AMSA19.jpg,AMNE04.jpg,AMSA05.jpg,AMNE12.jpg,AMNE04.jpg,MN,1,num_6,16,num_6,0.683457192499,,,2018_Jan_19_1129,60.0097776303,FEMA4ImagesEEG,001,202716,
AFSA21.JPG,AFNE23.JPG,AFNE21.JPG,AFSA25.JPG,AFNE25.JPG,AFSA23.JPG,,,,,,,,,,,,,0,3,3,4,,,,,,,,,,,AMSA06.jpg,AMSA02.jpg,AMNE02.jpg,AMNE14.jpg,AMSA02.jpg,MS,2,num_6,16,num_6,0.666792183183,,,2018_Jan_19_1129,60.0097776303,FEMA4ImagesEEG,001,202716,
AMNE23.JPG,AMNE24.JPG,AMNE22.JPG,AMSA24.JPG,AMSA22.JPG,AMSA23.JPG,,,,,,,,,,,,,0,4,4,9,,,,,,,,,,,AMSA19.jpg,AMNE19.jpg,AMSA13.jpg,AMNE08.jpg,AMNE08.jpg,MN,1,num_4,32,num_8,0.700152672362,,,2018_Jan_19_1129,60.0097776303,FEMA4ImagesEEG,001,202716,
AFSA25.JPG,AFNE24.JPG,AFSA24.JPG,AFNE21.JPG,AFSA21.JPG,AFNE25.JPG,,,,,,,,,,,,,0,5,5,2,,,,,,,,,,,AMSA15.jpg,AMNE11.jpg,AMNE12.jpg,AMSA13.jpg,AMNE12.jpg,MN,1,num_2,16,num_2,1.11684558634,,,2018_Jan_19_1129,60.0097776303,FEMA4ImagesEEG,001,202716,
AMSA25.JPG,AMNE24.JPG,AMSA24.JPG,AMNE26.JPG,AMSA21.JPG,AMNE25.JPG,,,,,,,,,,,,,0,6,6,3,,,,,,,,,,,AMSA04.jpg,AMNE19.jpg,AMSA05.jpg,AMNE16.jpg,AMSA05.jpg,MS,2,num_2,32,num_4,1.03362509981,,,2018_Jan_19_1129,60.0097776303,FEMA4ImagesEEG,001,202716,
AFNE22.JPG,AFSA24.JPG,AFSA22.JPG,AFNE25.JPG,AFNE24.JPG,AFSA25.JPG,,,,,,,,,,,,,0,7,7,6,,,,,,,,,,,AMNE20.jpg,AMNE11.jpg,AMSA14.jpg,AMSA05.jpg,AMNE20.jpg,MN,1,num_8,32,num_6,1.08347419184,,,2018_Jan_19_1129,60.0097776303,FEMA4ImagesEEG,001,202716,
AMSA21.JPG,AMNE23.JPG,AMNE21.JPG,AMSA25.JPG,AMNE25.JPG,AMSA23.JPG,,,,,,,,,,,,,0,8,8,5,,,,,,,,,,,AMNE09.jpg,AMSA14.jpg,AMNE20.jpg,AMSA15.jpg,AMSA15.jpg,MS,2,num_4,16,num_4,0.633476597257,,,2018_Jan_19_1129,60.0097776303,FEMA4ImagesEEG,001,202716,
AMNE22.JPG,AMSA24.JPG,AMSA22.JPG,AMNE25.JPG,AMNE24.JPG,AMSA25.JPG,,,,,,,,,,,,,0,9,9,7,,,,,,,,,,,AMNE16.jpg,AMSA09.jpg,AMSA02.jpg,AMNE04.jpg,AMNE16.jpg,MN,1,num_8,16,num_8,0.666776787024,,,2018_Jan_19_1129,60.0097776303,FEMA4ImagesEEG,001,202716,
AFNE23.JPG,AFNE24.JPG,AFNE22.JPG,AFSA24.JPG,AFSA22.JPG,AFSA23.JPG,,,,,,,,,,,,,,,,,0,0,0,8,,,,,,,AFSA09.jpg,AFNE14.jpg,AFNE03.jpg,AFSA04.jpg,AFNE03.jpg,FN,3,num_2,32,num_8,0.700182821602,,,2018_Jan_19_1129,60.0097776303,FEMA4ImagesEEG,001,202716,
AMNE23.JPG,AMNE24.JPG,AMNE22.JPG,AMSA24.JPG,AMSA22.JPG,AMSA23.JPG,,,,,,,,,,,,,,,,,0,1,1,9,,,,,,,AFSA15.jpg,AFNE19.jpg,AFSA13.jpg,AFNE07.jpg,AFNE07.jpg,FN,3,num_4,32,num_8,0.650101514068,,,2018_Jan_19_1129,60.0097776303,FEMA4ImagesEEG,001,202716,
AFSA25.JPG,AFNE24.JPG,AFSA24.JPG,AFNE21.JPG,AFSA21.JPG,AFNE25.JPG,,,,,,,,,,,,,,,,,0,2,2,2,,,,,,,AFNE04.jpg,AFSA16.jpg,AFSA07.jpg,AFNE02.jpg,AFSA07.jpg,FS,4,num_2,32,num_8,1.31681768177,,,2018_Jan_19_1129,60.0097776303,FEMA4ImagesEEG,001,202716,
AFSA21.JPG,AFNE23.JPG,AFNE21.JPG,AFSA25.JPG,AFNE25.JPG,AFSA23.JPG,,,,,,,,,,,,,,,,,0,3,3,4,,,,,,,AFNE15.jpg,AFNE04.jpg,AFSA02.jpg,AFSA04.jpg,AFNE04.jpg,FN,3,num_6,32,num_8,1.56700483384,,,2018_Jan_19_1129,60.0097776303,FEMA4ImagesEEG,001,202716,
AFSA21.JPG,AFNE22.JPG,AFNE21.JPG,AFSA23.JPG,AFSA22.JPG,AFNE23.JPG,,,,,,,,,,,,,,,,,0,4,4,0,,,,,,,AFNE07.jpg,AFNE05.jpg,AFSA16.jpg,AFSA14.jpg,AFNE05.jpg,FN,3,num_6,32,num_2,1.4167551375,,,2018_Jan_19_1129,60.0097776303,FEMA4ImagesEEG,001,202716,
AMNE22.JPG,AMSA24.JPG,AMSA22.JPG,AMNE25.JPG,AMNE24.JPG,AMSA25.JPG,,,,,,,,,,,,,,,,,0,5,5,7,,,,,,,AFNE11.jpg,AFSA02.jpg,AFNE06.jpg,AFSA03.jpg,AFSA02.jpg,FS,4,num_6,16,num_6,1.36676139198,,,2018_Jan_19_1129,60.0097776303,FEMA4ImagesEEG,001,202716,
AMSA21.JPG,AMNE22.JPG,AMNE21.JPG,AMSA23.JPG,AMSA22.JPG,AMNE23.JPG,,,,,,,,,,,,,,,,,0,6,6,1,,,,,,,AFNE15.jpg,AFNE01.jpg,AFSA11.jpg,AFSA08.jpg,AFSA11.jpg,FS,4,num_2,16,num_2,0.900138559751,,,2018_Jan_19_1129,60.0097776303,FEMA4ImagesEEG,001,202716,
AFNE22.JPG,AFSA24.JPG,AFSA22.JPG,AFNE25.JPG,AFNE24.JPG,AFSA25.JPG,,,,,,,,,,,,,,,,,0,7,7,6,,,,,,,AFNE06.jpg,AFSA04.jpg,AFNE03.jpg,AFSA10.jpg,AFNE06.jpg,FN,3,num_8,32,num_6,0.533476276323,,,2018_Jan_19_1129,60.0097776303,FEMA4ImagesEEG,001,202716,
AMSA21.JPG,AMNE23.JPG,AMNE21.JPG,AMSA25.JPG,AMNE25.JPG,AMSA23.JPG,,,,,,,,,,,,,,,,,0,8,8,5,,,,,,,AFSA10.jpg,AFSA05.jpg,AFNE10.jpg,AFNE05.jpg,AFNE05.jpg,FN,3,num_4,32,num_8,0.783431533258,,,2018_Jan_19_1129,60.0097776303,FEMA4ImagesEEG,001,202716,
AMSA25.JPG,AMNE24.JPG,AMSA24.JPG,AMNE26.JPG,AMSA21.JPG,AMNE25.JPG,,,,,,,,,,,,,,,,,0,9,9,3,,,,,,,AFSA08.jpg,AFSA01.jpg,AFNE05.jpg,AFNE13.jpg,AFSA01.jpg,FS,4,num_6,32,num_4,0.9667681274,,,2018_Jan_19_1129,60.0097776303,FEMA4ImagesEEG,001,202716,
AFSA21.JPG,AFNE23.JPG,AFNE21.JPG,AFSA25.JPG,AFNE25.JPG,AFSA23.JPG,,,,,,,,,,,,,,,,,,,,,0,0,0,4,,,AMNE10.jpg,AMSA01.jpg,AMNE20.jpg,AMSA13.jpg,AMNE20.jpg,MN,1,num_2,32,num_8,0.88345751306,,,2018_Jan_19_1129,60.0097776303,FEMA4ImagesEEG,001,202716,
AFNE23.JPG,AFNE24.JPG,AFNE22.JPG,AFSA24.JPG,AFSA22.JPG,AFSA23.JPG,,,,,,,,,,,,,,,,,,,,,0,1,1,8,,,AMSA20.jpg,AMNE08.jpg,AMSA18.jpg,AMNE03.jpg,AMNE03.jpg,MN,1,num_4,32,num_8,0.666843180545,,,2018_Jan_19_1129,60.0097776303,FEMA4ImagesEEG,001,202716,
AMNE22.JPG,AMSA24.JPG,AMSA22.JPG,AMNE25.JPG,AMNE24.JPG,AMSA25.JPG,,,,,,,,,,,,,,,,,,,,,0,2,2,7,,,AMNE10.jpg,AMSA03.jpg,AMSA15.jpg,AMNE08.jpg,AMNE10.jpg,MN,1,num_8,16,num_8,0.833539462183,,,2018_Jan_19_1129,60.0097776303,FEMA4ImagesEEG,001,202716,
AFNE22.JPG,AFSA24.JPG,AFSA22.JPG,AFNE25.JPG,AFNE24.JPG,AFSA25.JPG,,,,,,,,,,,,,,,,,,,,,0,3,3,6,,,AMNE08.jpg,AMNE12.jpg,AMSA16.jpg,AMSA12.jpg,AMSA12.jpg,MS,2,num_4,16,num_4,0.850094778463,,,2018_Jan_19_1129,60.0097776303,FEMA4ImagesEEG,001,202716,
AMSA21.JPG,AMNE22.JPG,AMNE21.JPG,AMSA23.JPG,AMSA22.JPG,AMNE23.JPG,,,,,,,,,,,,,,,,,,,,,0,4,4,1,,,AMSA15.jpg,AMNE05.jpg,AMNE02.jpg,AMSA09.jpg,AMSA09.jpg,MS,2,num_4,32,num_6,0.716799078509,,,2018_Jan_19_1129,60.0097776303,FEMA4ImagesEEG,001,202716,
AFSA25.JPG,AFNE24.JPG,AFSA24.JPG,AFNE21.JPG,AFSA21.JPG,AFNE25.JPG,,,,,,,,,,,,,,,,,,,,,0,5,5,2,,,AMSA13.jpg,AMSA11.jpg,AMNE02.jpg,AMNE03.jpg,AMNE02.jpg,MN,1,num_2,16,num_2,1.01675385423,,,2018_Jan_19_1129,60.0097776303,FEMA4ImagesEEG,001,202716,
AMNE23.JPG,AMNE24.JPG,AMNE22.JPG,AMSA24.JPG,AMSA22.JPG,AMSA23.JPG,,,,,,,,,,,,,,,,,,,,,0,6,6,9,,,AMNE05.jpg,AMSA02.jpg,AMNE10.jpg,AMSA05.jpg,AMSA05.jpg,MS,2,num_4,16,num_4,0.566810785793,,,2018_Jan_19_1129,60.0097776303,FEMA4ImagesEEG,001,202716,
AMSA25.JPG,AMNE24.JPG,AMSA24.JPG,AMNE26.JPG,AMSA21.JPG,AMNE25.JPG,,,,,,,,,,,,,,,,,,,,,0,7,7,3,,,AMSA12.jpg,AMNE01.jpg,AMNE07.jpg,AMSA14.jpg,AMSA12.jpg,MS,2,num_8,16,num_8,0.983441155404,,,2018_Jan_19_1129,60.0097776303,FEMA4ImagesEEG,001,202716,
AMSA21.JPG,AMNE23.JPG,AMNE21.JPG,AMSA25.JPG,AMNE25.JPG,AMSA23.JPG,,,,,,,,,,,,,,,,,,,,,0,8,8,5,,,AMSA18.jpg,AMSA14.jpg,AMNE17.jpg,AMNE04.jpg,AMNE17.jpg,MN,1,num_2,32,num_8,0.933427202981,,,2018_Jan_19_1129,60.0097776303,FEMA4ImagesEEG,001,202716,
AFSA21.JPG,AFNE22.JPG,AFNE21.JPG,AFSA23.JPG,AFSA22.JPG,AFNE23.JPG,,,,,,,,,,,,,,,,,,,,,0,9,9,0,,,AMNE10.jpg,AMNE12.jpg,AMSA20.jpg,AMSA16.jpg,AMSA16.jpg,MS,2,num_4,16,num_4,0.700163898058,,,2018_Jan_19_1129,60.0097776303,FEMA4ImagesEEG,001,202716,
,,,,,,,,,,,,,,,,,,,,,,,,,,,,,,,,,,,,,,,,,,,space,11.4992876365,2018_Jan_19_1129,60.0097776303,FEMA4ImagesEEG,001,202716,
AFNE01.JPG,AFNE01.JPG,AFNE01.JPG,AFNE01.JPG,AFNE01.JPG,AFNE01.JPG,0,0,0,0,,,,,,,,,,,,,,,,,,,,,,,AFNE01.jpg,AFNE20.jpg,AFSA18.jpg,AFSA03.jpg,AFSA18.jpg,FS,4,num_2,32,num_8,0.816763797309,,,2018_Jan_19_1129,60.0097776303,FEMA4ImagesEEG,001,202716,
AFNE01.JPG,AFNE01.JPG,AFNE01.JPG,AFNE01.JPG,AFNE01.JPG,AFNE01.JPG,0,1,1,5,,,,,,,,,,,,,,,,,,,,,,,AFNE02.jpg,AFSA01.jpg,AFNE09.jpg,AFSA02.jpg,AFNE09.jpg,FN,3,num_2,32,num_8,0.750110174064,,,2018_Jan_19_1129,60.0097776303,FEMA4ImagesEEG,001,202716,
AFNE01.JPG,AFNE01.JPG,AFNE01.JPG,AFNE01.JPG,AFNE01.JPG,AFNE01.JPG,0,2,2,2,,,,,,,,,,,,,,,,,,,,,,,AFNE12.jpg,AFNE10.jpg,AFSA19.jpg,AFSA18.jpg,AFNE10.jpg,FN,3,num_6,16,num_6,0.433498728089,,,2018_Jan_19_1129,60.0097776303,FEMA4ImagesEEG,001,202716,
AFNE01.JPG,AFNE01.JPG,AFNE01.JPG,AFNE01.JPG,AFNE01.JPG,AFNE01.JPG,0,3,3,6,,,,,,,,,,,,,,,,,,,,,,,AFSA15.jpg,AFSA11.jpg,AFNE12.jpg,AFNE06.jpg,AFNE12.jpg,FN,3,num_2,32,num_4,0.616807417944,,,2018_Jan_19_1129,60.0097776303,FEMA4ImagesEEG,001,202716,
AFNE01.JPG,AFNE01.JPG,AFNE01.JPG,AFNE01.JPG,AFNE01.JPG,AFNE01.JPG,0,4,4,3,,,,,,,,,,,,,,,,,,,,,,,AFSA16.jpg,AFNE18.jpg,AFSA11.jpg,AFNE09.jpg,AFSA16.jpg,FS,4,num_8,32,num_2,1.20019019861,,,2018_Jan_19_1129,60.0097776303,FEMA4ImagesEEG,001,202716,
AFNE01.JPG,AFNE01.JPG,AFNE01.JPG,AFNE01.JPG,AFNE01.JPG,AFNE01.JPG,0,5,5,7,,,,,,,,,,,,,,,,,,,,,,,AFNE04.jpg,AFSA06.jpg,AFSA14.jpg,AFNE03.jpg,AFNE04.jpg,FN,3,num_8,16,num_8,1.11681639869,,,2018_Jan_19_1129,60.0097776303,FEMA4ImagesEEG,001,202716,
AFNE01.JPG,AFNE01.JPG,AFNE01.JPG,AFNE01.JPG,AFNE01.JPG,AFNE01.JPG,0,6,6,4,,,,,,,,,,,,,,,,,,,,,,,AFSA11.jpg,AFNE13.jpg,AFNE04.jpg,AFSA20.jpg,AFNE13.jpg,FN,3,num_6,32,num_2,1.20014337078,,,2018_Jan_19_1129,60.0097776303,FEMA4ImagesEEG,001,202716,
AFNE01.JPG,AFNE01.JPG,AFNE01.JPG,AFNE01.JPG,AFNE01.JPG,AFNE01.JPG,0,7,7,8,,,,,,,,,,,,,,,,,,,,,,,AFNE20.jpg,AFSA16.jpg,AFSA10.jpg,AFNE19.jpg,AFNE20.jpg,FN,3,num_8,16,num_8,0.933301473036,,,2018_Jan_19_1129,60.0097776303,FEMA4ImagesEEG,001,202716,
AFNE01.JPG,AFNE01.JPG,AFNE01.JPG,AFNE01.JPG,AFNE01.JPG,AFNE01.JPG,0,8,8,9,,,,,,,,,,,,,,,,,,,,,,,AFNE03.jpg,AFSA15.jpg,AFSA13.jpg,AFNE08.jpg,AFSA13.jpg,FS,4,num_2,32,num_8,1.11675642012,,,2018_Jan_19_1129,60.0097776303,FEMA4ImagesEEG,001,202716,
AFNE01.JPG,AFNE01.JPG,AFNE01.JPG,AFNE01.JPG,AFNE01.JPG,AFNE01.JPG,0,9,9,1,,,,,,,,,,,,,,,,,,,,,,,AFSA14.jpg,AFSA07.jpg,AFNE03.jpg,AFNE06.jpg,AFNE06.jpg,FN,3,num_4,16,num_4,0.966792182997,,,2018_Jan_19_1129,60.0097776303,FEMA4ImagesEEG,001,202716,
AFNE01.JPG,AFNE01.JPG,AFNE01.JPG,AFNE01.JPG,AFNE01.JPG,AFNE01.JPG,1,0,10,4,,,,,,,,,,,,,,,,,,,,,,,AFNE09.jpg,AFSA10.jpg,AFSA05.jpg,AFNE16.jpg,AFSA05.jpg,FS,4,num_2,16,num_2,1.05015219096,,,2018_Jan_19_1129,60.0097776303,FEMA4ImagesEEG,001,202716,
AFNE01.JPG,AFNE01.JPG,AFNE01.JPG,AFNE01.JPG,AFNE01.JPG,AFNE01.JPG,1,1,11,5,,,,,,,,,,,,,,,,,,,,,,,AFSA15.jpg,AFNE06.jpg,AFSA14.jpg,AFNE10.jpg,AFNE06.jpg,FN,3,num_6,16,num_6,0.800151389092,,,2018_Jan_19_1129,60.0097776303,FEMA4ImagesEEG,001,202716,
AFNE01.JPG,AFNE01.JPG,AFNE01.JPG,AFNE01.JPG,AFNE01.JPG,AFNE01.JPG,1,2,12,2,,,,,,,,,,,,,,,,,,,,,,,AFNE07.jpg,AFSA13.jpg,AFSA17.jpg,AFNE08.jpg,AFNE07.jpg,FN,3,num_8,16,num_8,0.883474833332,,,2018_Jan_19_1129,60.0097776303,FEMA4ImagesEEG,001,202716,
AFNE01.JPG,AFNE01.JPG,AFNE01.JPG,AFNE01.JPG,AFNE01.JPG,AFNE01.JPG,1,3,13,3,,,,,,,,,,,,,,,,,,,,,,,AFSA02.jpg,AFSA08.jpg,AFNE08.jpg,AFNE20.jpg,AFSA02.jpg,FS,4,num_8,16,num_8,0.600272308569,,,2018_Jan_19_1129,60.0097776303,FEMA4ImagesEEG,001,202716,
AFNE01.JPG,AFNE01.JPG,AFNE01.JPG,AFNE01.JPG,AFNE01.JPG,AFNE01.JPG,1,4,14,1,,,,,,,,,,,,,,,,,,,,,,,AFSA01.jpg,AFNE11.jpg,AFNE16.jpg,AFSA10.jpg,AFNE16.jpg,FN,3,num_2,16,num_2,0.750182340853,,,2018_Jan_19_1129,60.0097776303,FEMA4ImagesEEG,001,202716,
AFNE01.JPG,AFNE01.JPG,AFNE01.JPG,AFNE01.JPG,AFNE01.JPG,AFNE01.JPG,1,5,15,7,,,,,,,,,,,,,,,,,,,,,,,AFSA06.jpg,AFNE20.jpg,AFNE12.jpg,AFSA09.jpg,AFNE12.jpg,FN,3,num_2,16,num_2,0.566857293248,,,2018_Jan_19_1129,60.0097776303,FEMA4ImagesEEG,001,202716,
AFNE01.JPG,AFNE01.JPG,AFNE01.JPG,AFNE01.JPG,AFNE01.JPG,AFNE01.JPG,1,6,16,9,,,,,,,,,,,,,,,,,,,,,,,AFSA02.jpg,AFSA12.jpg,AFNE19.jpg,AFNE03.jpg,AFSA12.jpg,FS,4,num_6,16,num_6,0.566757863853,,,2018_Jan_19_1129,60.0097776303,FEMA4ImagesEEG,001,202716,
AFNE01.JPG,AFNE01.JPG,AFNE01.JPG,AFNE01.JPG,AFNE01.JPG,AFNE01.JPG,1,7,17,0,,,,,,,,,,,,,,,,,,,,,,,AFNE11.jpg,AFNE20.jpg,AFSA11.jpg,AFSA09.jpg,AFSA11.jpg,FS,4,num_2,32,num_8,2.33331975527,,,2018_Jan_19_1129,60.0097776303,FEMA4ImagesEEG,001,202716,
AFNE01.JPG,AFNE01.JPG,AFNE01.JPG,AFNE01.JPG,AFNE01.JPG,AFNE01.JPG,1,8,18,8,,,,,,,,,,,,,,,,,,,,,,,AFNE12.jpg,AFSA18.jpg,AFNE20.jpg,AFSA17.jpg,AFSA18.jpg,FS,4,num_6,32,num_8,0.883453022689,,,2018_Jan_19_1129,60.0097776303,FEMA4ImagesEEG,001,202716,
AFNE01.JPG,AFNE01.JPG,AFNE01.JPG,AFNE01.JPG,AFNE01.JPG,AFNE01.JPG,1,9,19,6,,,,,,,,,,,,,,,,,,,,,,,AFSA18.jpg,AFNE01.jpg,AFSA17.jpg,AFNE07.jpg,AFSA17.jpg,FS,4,num_2,32,num_8,0.583407798316,,,2018_Jan_19_1129,60.0097776303,FEMA4ImagesEEG,001,202716,
AFNE01.JPG,AFNE01.JPG,AFNE01.JPG,AFNE01.JPG,AFNE01.JPG,AFNE01.JPG,2,0,20,6,,,,,,,,,,,,,,,,,,,,,,,AFSA18.jpg,AFSA03.jpg,AFNE18.jpg,AFNE16.jpg,AFSA18.jpg,FS,4,num_8,32,num_6,0.850144813769,,,2018_Jan_19_1129,60.0097776303,FEMA4ImagesEEG,001,202716,
AFNE01.JPG,AFNE01.JPG,AFNE01.JPG,AFNE01.JPG,AFNE01.JPG,AFNE01.JPG,2,1,21,8,,,,,,,,,,,,,,,,,,,,,,,AFNE02.jpg,AFNE17.jpg,AFSA03.jpg,AFSA05.jpg,AFSA05.jpg,FS,4,num_4,16,num_4,0.616774061229,,,2018_Jan_19_1129,60.0097776303,FEMA4ImagesEEG,001,202716,
AFNE01.JPG,AFNE01.JPG,AFNE01.JPG,AFNE01.JPG,AFNE01.JPG,AFNE01.JPG,2,2,22,9,,,,,,,,,,,,,,,,,,,,,,,AFSA10.jpg,AFNE20.jpg,AFNE05.jpg,AFSA11.jpg,AFSA11.jpg,FS,4,num_4,16,num_4,0.550148983952,,,2018_Jan_19_1129,60.0097776303,FEMA4ImagesEEG,001,202716,
AFNE01.JPG,AFNE01.JPG,AFNE01.JPG,AFNE01.JPG,AFNE01.JPG,AFNE01.JPG,2,3,23,3,,,,,,,,,,,,,,,,,,,,,,,AFNE20.jpg,AFSA14.jpg,AFSA11.jpg,AFNE14.jpg,AFSA14.jpg,FS,4,num_6,32,num_8,1.34985037474,,,2018_Jan_19_1129,60.0097776303,FEMA4ImagesEEG,001,202716,
AFNE01.JPG,AFNE01.JPG,AFNE01.JPG,AFNE01.JPG,AFNE01.JPG,AFNE01.JPG,2,4,24,2,,,,,,,,,,,,,,,,,,,,,,,AFSA15.jpg,AFSA03.jpg,AFNE16.jpg,AFNE13.jpg,AFNE13.jpg,FN,3,num_4,32,num_6,0.700111938175,,,2018_Jan_19_1129,60.0097776303,FEMA4ImagesEEG,001,202716,
AFNE01.JPG,AFNE01.JPG,AFNE01.JPG,AFNE01.JPG,AFNE01.JPG,AFNE01.JPG,2,5,25,1,,,,,,,,,,,,,,,,,,,,,,,AFNE16.jpg,AFNE09.jpg,AFSA13.jpg,AFSA01.jpg,AFSA13.jpg,FS,4,num_2,16,num_2,1.65007008193,,,2018_Jan_19_1129,60.0097776303,FEMA4ImagesEEG,001,202716,
AFNE01.JPG,AFNE01.JPG,AFNE01.JPG,AFNE01.JPG,AFNE01.JPG,AFNE01.JPG,2,6,26,5,,,,,,,,,,,,,,,,,,,,,,,AFSA01.jpg,AFNE01.jpg,AFNE16.jpg,AFSA20.jpg,AFNE16.jpg,FN,3,num_2,16,num_2,1.35012813564,,,2018_Jan_19_1129,60.0097776303,FEMA4ImagesEEG,001,202716,
AFNE01.JPG,AFNE01.JPG,AFNE01.JPG,AFNE01.JPG,AFNE01.JPG,AFNE01.JPG,2,7,27,0,,,,,,,,,,,,,,,,,,,,,,,AFSA10.jpg,AFNE17.jpg,AFSA02.jpg,AFNE19.jpg,AFNE19.jpg,FN,3,num_4,16,num_4,1.01676892955,,,2018_Jan_19_1129,60.0097776303,FEMA4ImagesEEG,001,202716,
AFNE01.JPG,AFNE01.JPG,AFNE01.JPG,AFNE01.JPG,AFNE01.JPG,AFNE01.JPG,2,8,28,4,,,,,,,,,,,,,,,,,,,,,,,AFNE05.jpg,AFSA12.jpg,AFNE19.jpg,AFSA06.jpg,AFNE05.jpg,FN,3,num_8,16,num_8,0.450138720218,,,2018_Jan_19_1129,60.0097776303,FEMA4ImagesEEG,001,202716,
AFNE01.JPG,AFNE01.JPG,AFNE01.JPG,AFNE01.JPG,AFNE01.JPG,AFNE01.JPG,2,9,29,7,,,,,,,,,,,,,,,,,,,,,,,AFSA15.jpg,AFNE08.jpg,AFNE19.jpg,AFSA11.jpg,AFSA11.jpg,FS,4,num_4,16,num_4,0.666745675262,,,2018_Jan_19_1129,60.0097776303,FEMA4ImagesEEG,001,202716,
AFNE01.JPG,AFNE01.JPG,AFNE01.JPG,AFNE01.JPG,AFNE01.JPG,AFNE01.JPG,3,0,30,1,,,,,,,,,,,,,,,,,,,,,,,AFSA07.jpg,AFNE07.jpg,AFSA08.jpg,AFNE01.jpg,AFSA08.jpg,FS,4,num_2,32,num_6,1.38342415588,,,2018_Jan_19_1129,60.0097776303,FEMA4ImagesEEG,001,202716,
AFNE01.JPG,AFNE01.JPG,AFNE01.JPG,AFNE01.JPG,AFNE01.JPG,AFNE01.JPG,3,1,31,8,,,,,,,,,,,,,,,,,,,,,,,AFNE13.jpg,AFSA01.jpg,AFSA11.jpg,AFNE07.jpg,AFNE07.jpg,FN,3,num_4,16,num_4,1.33341020392,,,2018_Jan_19_1129,60.0097776303,FEMA4ImagesEEG,001,202716,
AFNE01.JPG,AFNE01.JPG,AFNE01.JPG,AFNE01.JPG,AFNE01.JPG,AFNE01.JPG,3,2,32,5,,,,,,,,,,,,,,,,,,,,,,,AFSA06.jpg,AFNE04.jpg,AFSA08.jpg,AFNE15.jpg,AFSA08.jpg,FS,4,num_2,32,num_8,0.783441796899,,,2018_Jan_19_1129,60.0097776303,FEMA4ImagesEEG,001,202716,
AFNE01.JPG,AFNE01.JPG,AFNE01.JPG,AFNE01.JPG,AFNE01.JPG,AFNE01.JPG,3,3,33,9,,,,,,,,,,,,,,,,,,,,,,,AFNE20.jpg,AFSA02.jpg,AFNE18.jpg,AFSA13.jpg,AFNE18.jpg,FN,3,num_2,32,num_8,0.783461041283,,,2018_Jan_19_1129,60.0097776303,FEMA4ImagesEEG,001,202716,
AFNE01.JPG,AFNE01.JPG,AFNE01.JPG,AFNE01.JPG,AFNE01.JPG,AFNE01.JPG,3,4,34,0,,,,,,,,,,,,,,,,,,,,,,,AFSA17.jpg,AFNE19.jpg,AFSA13.jpg,AFNE09.jpg,AFNE19.jpg,FN,3,num_6,32,num_8,0.983154413756,,,2018_Jan_19_1129,60.0097776303,FEMA4ImagesEEG,001,202716,
AFNE01.JPG,AFNE01.JPG,AFNE01.JPG,AFNE01.JPG,AFNE01.JPG,AFNE01.JPG,3,5,35,2,,,,,,,,,,,,,,,,,,,,,,,AFNE11.jpg,AFNE12.jpg,AFSA19.jpg,AFSA05.jpg,AFNE11.jpg,FN,3,num_8,16,num_8,0.966769089457,,,2018_Jan_19_1129,60.0097776303,FEMA4ImagesEEG,001,202716,
AFNE01.JPG,AFNE01.JPG,AFNE01.JPG,AFNE01.JPG,AFNE01.JPG,AFNE01.JPG,3,6,36,7,,,,,,,,,,,,,,,,,,,,,,,AFNE16.jpg,AFSA08.jpg,AFNE19.jpg,AFSA14.jpg,AFNE19.jpg,FN,3,num_2,16,num_2,0.950090929866,,,2018_Jan_19_1129,60.0097776303,FEMA4ImagesEEG,001,202716,
AFNE01.JPG,AFNE01.JPG,AFNE01.JPG,AFNE01.JPG,AFNE01.JPG,AFNE01.JPG,3,7,37,6,,,,,,,,,,,,,,,,,,,,,,,AFSA07.jpg,AFNE06.jpg,AFNE13.jpg,AFSA08.jpg,AFNE13.jpg,FN,3,num_2,32,num_6,0.816792343277,,,2018_Jan_19_1129,60.0097776303,FEMA4ImagesEEG,001,202716,
AFNE01.JPG,AFNE01.JPG,AFNE01.JPG,AFNE01.JPG,AFNE01.JPG,AFNE01.JPG,3,8,38,3,,,,,,,,,,,,,,,,,,,,,,,AFSA16.jpg,AFSA03.jpg,AFNE17.jpg,AFNE01.jpg,AFSA03.jpg,FS,4,num_6,32,num_8,1.1834344198,,,2018_Jan_19_1129,60.0097776303,FEMA4ImagesEEG,001,202716,
AFNE01.JPG,AFNE01.JPG,AFNE01.JPG,AFNE01.JPG,AFNE01.JPG,AFNE01.JPG,3,9,39,4,,,,,,,,,,,,,,,,,,,,,,,AFSA14.jpg,AFNE07.jpg,AFNE06.jpg,AFSA18.jpg,AFSA14.jpg,FS,4,num_8,32,num_6,0.800122202374,,,2018_Jan_19_1129,60.0097776303,FEMA4ImagesEEG,001,202716,
AFNE01.JPG,AFNE01.JPG,AFNE01.JPG,AFNE01.JPG,AFNE01.JPG,AFNE01.JPG,4,0,40,5,,,,,,,,,,,,,,,,,,,,,,,AFSA12.jpg,AFNE04.jpg,AFNE18.jpg,AFSA04.jpg,AFNE04.jpg,FN,3,num_6,32,num_8,1.36658915412,,,2018_Jan_19_1129,60.0097776303,FEMA4ImagesEEG,001,202716,
AFNE01.JPG,AFNE01.JPG,AFNE01.JPG,AFNE01.JPG,AFNE01.JPG,AFNE01.JPG,4,1,41,1,,,,,,,,,,,,,,,,,,,,,,,AFSA02.jpg,AFNE06.jpg,AFNE04.jpg,AFSA05.jpg,AFSA05.jpg,FS,4,num_4,32,num_6,0.733530160971,,,2018_Jan_19_1129,60.0097776303,FEMA4ImagesEEG,001,202716,
AFNE01.JPG,AFNE01.JPG,AFNE01.JPG,AFNE01.JPG,AFNE01.JPG,AFNE01.JPG,4,2,42,9,,,,,,,,,,,,,,,,,,,,,,,AFSA07.jpg,AFNE20.jpg,AFSA13.jpg,AFNE12.jpg,AFNE12.jpg,FN,3,num_4,32,num_8,0.850211207289,,,2018_Jan_19_1129,60.0097776303,FEMA4ImagesEEG,001,202716,
AFNE01.JPG,AFNE01.JPG,AFNE01.JPG,AFNE01.JPG,AFNE01.JPG,AFNE01.JPG,4,3,43,6,,,,,,,,,,,,,,,,,,,,,,,AFNE11.jpg,AFNE01.jpg,AFSA13.jpg,AFSA06.jpg,AFNE11.jpg,FN,3,num_8,16,num_8,0.649991500191,,,2018_Jan_19_1129,60.0097776303,FEMA4ImagesEEG,001,202716,
AFNE01.JPG,AFNE01.JPG,AFNE01.JPG,AFNE01.JPG,AFNE01.JPG,AFNE01.JPG,4,4,44,0,,,,,,,,,,,,,,,,,,,,,,,AFSA10.jpg,AFSA02.jpg,AFNE07.jpg,AFNE20.jpg,AFNE20.jpg,FN,3,num_4,32,num_8,0.716769891791,,,2018_Jan_19_1129,60.0097776303,FEMA4ImagesEEG,001,202716,
AFNE01.JPG,AFNE01.JPG,AFNE01.JPG,AFNE01.JPG,AFNE01.JPG,AFNE01.JPG,4,5,45,7,,,,,,,,,,,,,,,,,,,,,,,AFSA05.jpg,AFNE18.jpg,AFNE03.jpg,AFSA03.jpg,AFNE03.jpg,FN,3,num_2,16,num_2,0.716733006295,,,2018_Jan_19_1129,60.0097776303,FEMA4ImagesEEG,001,202716,
AFNE01.JPG,AFNE01.JPG,AFNE01.JPG,AFNE01.JPG,AFNE01.JPG,AFNE01.JPG,4,6,46,2,,,,,,,,,,,,,,,,,,,,,,,AFNE05.jpg,AFNE02.jpg,AFSA01.jpg,AFSA02.jpg,AFNE05.jpg,FN,3,num_8,32,num_6,0.833462805022,,,2018_Jan_19_1129,60.0097776303,FEMA4ImagesEEG,001,202716,
AFNE01.JPG,AFNE01.JPG,AFNE01.JPG,AFNE01.JPG,AFNE01.JPG,AFNE01.JPG,4,7,47,4,,,,,,,,,,,,,,,,,,,,,,,AFSA01.jpg,AFNE15.jpg,AFSA04.jpg,AFNE05.jpg,AFNE15.jpg,FN,3,num_6,16,num_6,0.66679057898,,,2018_Jan_19_1129,60.0097776303,FEMA4ImagesEEG,001,202716,
AFNE01.JPG,AFNE01.JPG,AFNE01.JPG,AFNE01.JPG,AFNE01.JPG,AFNE01.JPG,4,8,48,3,,,,,,,,,,,,,,,,,,,,,,,AFSA06.jpg,AFNE19.jpg,AFSA12.jpg,AFNE12.jpg,AFNE12.jpg,FN,3,num_4,16,num_4,0.866839652415,,,2018_Jan_19_1129,60.0097776303,FEMA4ImagesEEG,001,202716,
AFNE01.JPG,AFNE01.JPG,AFNE01.JPG,AFNE01.JPG,AFNE01.JPG,AFNE01.JPG,4,9,49,8,,,,,,,,,,,,,,,,,,,,,,,AFNE12.jpg,AFSA06.jpg,AFNE20.jpg,AFSA03.jpg,AFSA03.jpg,FS,4,num_4,32,num_2,0.866853123531,,,2018_Jan_19_1129,60.0097776303,FEMA4ImagesEEG,001,202716,
AFNE01.JPG,AFNE01.JPG,AFNE01.JPG,AFNE01.JPG,AFNE01.JPG,AFNE01.JPG,5,0,50,9,,,,,,,,,,,,,,,,,,,,,,,AFSA04.jpg,AFNE14.jpg,AFSA20.jpg,AFNE13.jpg,AFSA04.jpg,FS,4,num_8,16,num_8,1.0001395219,,,2018_Jan_19_1129,60.0097776303,FEMA4ImagesEEG,001,202716,
AFNE01.JPG,AFNE01.JPG,AFNE01.JPG,AFNE01.JPG,AFNE01.JPG,AFNE01.JPG,5,1,51,6,,,,,,,,,,,,,,,,,,,,,,,AFNE12.jpg,AFSA07.jpg,AFSA18.jpg,AFNE11.jpg,AFNE11.jpg,FN,3,num_4,16,num_4,0.55017464282,,,2018_Jan_19_1129,60.0097776303,FEMA4ImagesEEG,001,202716,
AFNE01.JPG,AFNE01.JPG,AFNE01.JPG,AFNE01.JPG,AFNE01.JPG,AFNE01.JPG,5,2,52,8,,,,,,,,,,,,,,,,,,,,,,,AFNE17.jpg,AFSA09.jpg,AFNE02.jpg,AFSA04.jpg,AFSA09.jpg,FS,4,num_6,32,num_4,0.766751449089,,,2018_Jan_19_1129,60.0097776303,FEMA4ImagesEEG,001,202716,
AFNE01.JPG,AFNE01.JPG,AFNE01.JPG,AFNE01.JPG,AFNE01.JPG,AFNE01.JPG,5,3,53,1,,,,,,,,,,,,,,,,,,,,,,,AFSA13.jpg,AFNE04.jpg,AFSA02.jpg,AFNE06.jpg,AFSA13.jpg,FS,4,num_8,16,num_8,0.800121560693,,,2018_Jan_19_1129,60.0097776303,FEMA4ImagesEEG,001,202716,
AFNE01.JPG,AFNE01.JPG,AFNE01.JPG,AFNE01.JPG,AFNE01.JPG,AFNE01.JPG,5,4,54,3,,,,,,,,,,,,,,,,,,,,,,,AFNE12.jpg,AFSA18.jpg,AFSA12.jpg,AFNE19.jpg,AFNE19.jpg,FN,3,num_4,32,num_8,1.20007216651,,,2018_Jan_19_1129,60.0097776303,FEMA4ImagesEEG,001,202716,
AFNE01.JPG,AFNE01.JPG,AFNE01.JPG,AFNE01.JPG,AFNE01.JPG,AFNE01.JPG,5,5,55,5,,,,,,,,,,,,,,,,,,,,,,,AFSA17.jpg,AFNE12.jpg,AFSA08.jpg,AFNE13.jpg,AFSA08.jpg,FS,4,num_2,32,num_4,0.783455909695,,,2018_Jan_19_1129,60.0097776303,FEMA4ImagesEEG,001,202716,
AFNE01.JPG,AFNE01.JPG,AFNE01.JPG,AFNE01.JPG,AFNE01.JPG,AFNE01.JPG,5,6,56,0,,,,,,,,,,,,,,,,,,,,,,,AFNE10.jpg,AFSA03.jpg,AFSA05.jpg,AFNE18.jpg,AFSA03.jpg,FS,4,num_6,32,num_8,0.566785447765,,,2018_Jan_19_1129,60.0097776303,FEMA4ImagesEEG,001,202716,
AFNE01.JPG,AFNE01.JPG,AFNE01.JPG,AFNE01.JPG,AFNE01.JPG,AFNE01.JPG,5,7,57,2,,,,,,,,,,,,,,,,,,,,,,,AFNE09.jpg,AFNE02.jpg,AFSA09.jpg,AFSA20.jpg,AFNE02.jpg,FN,3,num_6,32,num_2,0.900103278458,,,2018_Jan_19_1129,60.0097776303,FEMA4ImagesEEG,001,202716,
AFNE01.JPG,AFNE01.JPG,AFNE01.JPG,AFNE01.JPG,AFNE01.JPG,AFNE01.JPG,5,8,58,4,,,,,,,,,,,,,,,,,,,,,,,AFSA13.jpg,AFNE15.jpg,AFSA14.jpg,AFNE04.jpg,AFSA13.jpg,FS,4,num_8,16,num_8,0.683407798409,,,2018_Jan_19_1129,60.0097776303,FEMA4ImagesEEG,001,202716,
AFNE01.JPG,AFNE01.JPG,AFNE01.JPG,AFNE01.JPG,AFNE01.JPG,AFNE01.JPG,5,9,59,7,,,,,,,,,,,,,,,,,,,,,,,AFNE01.jpg,AFSA20.jpg,AFSA10.jpg,AFNE18.jpg,AFNE01.jpg,FN,3,num_8,32,num_6,0.883418383077,,,2018_Jan_19_1129,60.0097776303,FEMA4ImagesEEG,001,202716,
,,,,,,,,,,,,,,,,,,,,,,,,,,,,,,,,,,,,,,,,,,,space,15.2659544102,2018_Jan_19_1129,60.0097776303,FEMA4ImagesEEG,001,202716,
AFNE01.JPG,AFNE01.JPG,AFNE01.JPG,AFNE01.JPG,AFNE01.JPG,AFNE01.JPG,,,,,0,0,0,8,,,,,,,,,,,,,,,,,,,AMNE17.jpg,AMNE07.jpg,AMSA02.jpg,AMSA15.jpg,AMSA02.jpg,MS,2,num_2,32,num_4,0.716794588603,,,2018_Jan_19_1129,60.0097776303,FEMA4ImagesEEG,001,202716,
AFNE01.JPG,AFNE01.JPG,AFNE01.JPG,AFNE01.JPG,AFNE01.JPG,AFNE01.JPG,,,,,0,1,1,1,,,,,,,,,,,,,,,,,,,AMSA03.jpg,AMSA13.jpg,AMNE16.jpg,AMNE20.jpg,AMSA03.jpg,MS,2,num_8,16,num_8,0.616813191678,,,2018_Jan_19_1129,60.0097776303,FEMA4ImagesEEG,001,202716,
AFNE01.JPG,AFNE01.JPG,AFNE01.JPG,AFNE01.JPG,AFNE01.JPG,AFNE01.JPG,,,,,0,2,2,3,,,,,,,,,,,,,,,,,,,AMSA16.jpg,AMNE06.jpg,AMSA17.jpg,AMNE01.jpg,AMSA17.jpg,MS,2,num_2,32,num_8,0.616787211504,,,2018_Jan_19_1129,60.0097776303,FEMA4ImagesEEG,001,202716,
AFNE01.JPG,AFNE01.JPG,AFNE01.JPG,AFNE01.JPG,AFNE01.JPG,AFNE01.JPG,,,,,0,3,3,4,,,,,,,,,,,,,,,,,,,AMNE17.jpg,AMSA02.jpg,AMNE15.jpg,AMSA14.jpg,AMNE15.jpg,MN,1,num_2,32,num_8,0.650158926845,,,2018_Jan_19_1129,60.0097776303,FEMA4ImagesEEG,001,202716,
AFNE01.JPG,AFNE01.JPG,AFNE01.JPG,AFNE01.JPG,AFNE01.JPG,AFNE01.JPG,,,,,0,4,4,6,,,,,,,,,,,,,,,,,,,AMNE17.jpg,AMNE09.jpg,AMSA19.jpg,AMSA06.jpg,AMSA19.jpg,MS,2,num_2,32,num_4,0.58346617315,,,2018_Jan_19_1129,60.0097776303,FEMA4ImagesEEG,001,202716,
AFNE01.JPG,AFNE01.JPG,AFNE01.JPG,AFNE01.JPG,AFNE01.JPG,AFNE01.JPG,,,,,0,5,5,7,,,,,,,,,,,,,,,,,,,AMNE16.jpg,AMNE06.jpg,AMSA13.jpg,AMSA11.jpg,AMSA13.jpg,MS,2,num_2,16,num_2,0.666580815334,,,2018_Jan_19_1129,60.0097776303,FEMA4ImagesEEG,001,202716,
AFNE01.JPG,AFNE01.JPG,AFNE01.JPG,AFNE01.JPG,AFNE01.JPG,AFNE01.JPG,,,,,0,6,6,0,,,,,,,,,,,,,,,,,,,AMNE01.jpg,AMSA10.jpg,AMSA11.jpg,AMNE18.jpg,AMSA10.jpg,MS,2,num_6,16,num_6,0.566799239255,,,2018_Jan_19_1129,60.0097776303,FEMA4ImagesEEG,001,202716,
AFNE01.JPG,AFNE01.JPG,AFNE01.JPG,AFNE01.JPG,AFNE01.JPG,AFNE01.JPG,,,,,0,7,7,9,,,,,,,,,,,,,,,,,,,AMNE14.jpg,AMSA15.jpg,AMSA06.jpg,AMNE13.jpg,AMNE13.jpg,MN,1,num_4,16,num_4,0.633514444344,,,2018_Jan_19_1129,60.0097776303,FEMA4ImagesEEG,001,202716,
AFNE01.JPG,AFNE01.JPG,AFNE01.JPG,AFNE01.JPG,AFNE01.JPG,AFNE01.JPG,,,,,0,8,8,2,,,,,,,,,,,,,,,,,,,AMSA12.jpg,AMNE02.jpg,AMNE11.jpg,AMSA04.jpg,AMSA12.jpg,MS,2,num_8,16,num_8,0.650128456764,,,2018_Jan_19_1129,60.0097776303,FEMA4ImagesEEG,001,202716,
AFNE01.JPG,AFNE01.JPG,AFNE01.JPG,AFNE01.JPG,AFNE01.JPG,AFNE01.JPG,,,,,0,9,9,5,,,,,,,,,,,,,,,,,,,AMNE05.jpg,AMSA15.jpg,AMNE20.jpg,AMSA19.jpg,AMSA15.jpg,MS,2,num_6,32,num_2,0.916748081334,,,2018_Jan_19_1129,60.0097776303,FEMA4ImagesEEG,001,202716,
AFNE01.JPG,AFNE01.JPG,AFNE01.JPG,AFNE01.JPG,AFNE01.JPG,AFNE01.JPG,,,,,1,0,10,4,,,,,,,,,,,,,,,,,,,AMNE02.jpg,AMSA02.jpg,AMSA13.jpg,AMNE03.jpg,AMSA13.jpg,MS,2,num_2,16,num_2,1.34997867094,,,2018_Jan_19_1129,60.0097776303,FEMA4ImagesEEG,001,202716,
AFNE01.JPG,AFNE01.JPG,AFNE01.JPG,AFNE01.JPG,AFNE01.JPG,AFNE01.JPG,,,,,1,1,11,8,,,,,,,,,,,,,,,,,,,AMNE07.jpg,AMSA15.jpg,AMNE03.jpg,AMSA11.jpg,AMNE03.jpg,MN,1,num_2,32,num_8,1.03343169391,,,2018_Jan_19_1129,60.0097776303,FEMA4ImagesEEG,001,202716,
AFNE01.JPG,AFNE01.JPG,AFNE01.JPG,AFNE01.JPG,AFNE01.JPG,AFNE01.JPG,,,,,1,2,12,2,,,,,,,,,,,,,,,,,,,AMSA11.jpg,AMNE14.jpg,AMSA03.jpg,AMNE11.jpg,AMNE11.jpg,MN,1,num_4,16,num_4,0.6167984372,,,2018_Jan_19_1129,60.0097776303,FEMA4ImagesEEG,001,202716,
AFNE01.JPG,AFNE01.JPG,AFNE01.JPG,AFNE01.JPG,AFNE01.JPG,AFNE01.JPG,,,,,1,3,13,1,,,,,,,,,,,,,,,,,,,AMNE07.jpg,AMSA13.jpg,AMSA05.jpg,AMNE19.jpg,AMNE19.jpg,MN,1,num_4,32,num_2,0.633465692401,,,2018_Jan_19_1129,60.0097776303,FEMA4ImagesEEG,001,202716,
AFNE01.JPG,AFNE01.JPG,AFNE01.JPG,AFNE01.JPG,AFNE01.JPG,AFNE01.JPG,,,,,1,4,14,7,,,,,,,,,,,,,,,,,,,AMSA16.jpg,AMSA05.jpg,AMNE11.jpg,AMNE16.jpg,AMSA05.jpg,MS,2,num_6,32,num_4,1.00013118237,,,2018_Jan_19_1129,60.0097776303,FEMA4ImagesEEG,001,202716,
AFNE01.JPG,AFNE01.JPG,AFNE01.JPG,AFNE01.JPG,AFNE01.JPG,AFNE01.JPG,,,,,1,5,15,9,,,,,,,,,,,,,,,,,,,AMSA15.jpg,AMNE10.jpg,AMSA11.jpg,AMNE20.jpg,AMNE20.jpg,MN,1,num_4,16,num_4,0.783483813517,,,2018_Jan_19_1129,60.0097776303,FEMA4ImagesEEG,001,202716,
AFNE01.JPG,AFNE01.JPG,AFNE01.JPG,AFNE01.JPG,AFNE01.JPG,AFNE01.JPG,,,,,1,6,16,3,,,,,,,,,,,,,,,,,,,AMNE10.jpg,AMSA02.jpg,AMNE05.jpg,AMSA03.jpg,AMSA02.jpg,MS,2,num_6,16,num_6,0.733610987663,,,2018_Jan_19_1129,60.0097776303,FEMA4ImagesEEG,001,202716,
AFNE01.JPG,AFNE01.JPG,AFNE01.JPG,AFNE01.JPG,AFNE01.JPG,AFNE01.JPG,,,,,1,7,17,5,,,,,,,,,,,,,,,,,,,AMSA01.jpg,AMNE01.jpg,AMSA08.jpg,AMNE20.jpg,AMNE01.jpg,MN,1,num_6,32,num_8,1.26681623841,,,2018_Jan_19_1129,60.0097776303,FEMA4ImagesEEG,001,202716,
AFNE01.JPG,AFNE01.JPG,AFNE01.JPG,AFNE01.JPG,AFNE01.JPG,AFNE01.JPG,,,,,1,8,18,6,,,,,,,,,,,,,,,,,,,AMNE01.jpg,AMSA04.jpg,AMNE13.jpg,AMSA06.jpg,AMSA04.jpg,MS,2,num_6,32,num_2,1.25010023126,,,2018_Jan_19_1129,60.0097776303,FEMA4ImagesEEG,001,202716,
AFNE01.JPG,AFNE01.JPG,AFNE01.JPG,AFNE01.JPG,AFNE01.JPG,AFNE01.JPG,,,,,1,9,19,0,,,,,,,,,,,,,,,,,,,AMNE01.jpg,AMNE03.jpg,AMSA13.jpg,AMSA09.jpg,AMSA13.jpg,MS,2,num_2,32,num_4,0.81684654858,,,2018_Jan_19_1129,60.0097776303,FEMA4ImagesEEG,001,202716,
AFNE01.JPG,AFNE01.JPG,AFNE01.JPG,AFNE01.JPG,AFNE01.JPG,AFNE01.JPG,,,,,2,0,20,2,,,,,,,,,,,,,,,,,,,AMSA11.jpg,AMSA13.jpg,AMNE07.jpg,AMNE05.jpg,AMSA13.jpg,MS,2,num_6,32,num_4,0.716811587568,,,2018_Jan_19_1129,60.0097776303,FEMA4ImagesEEG,001,202716,
AFNE01.JPG,AFNE01.JPG,AFNE01.JPG,AFNE01.JPG,AFNE01.JPG,AFNE01.JPG,,,,,2,1,21,5,,,,,,,,,,,,,,,,,,,AMNE02.jpg,AMSA02.jpg,AMNE10.jpg,AMSA09.jpg,AMNE02.jpg,MN,1,num_8,16,num_8,0.90014433302,,,2018_Jan_19_1129,60.0097776303,FEMA4ImagesEEG,001,202716,
AFNE01.JPG,AFNE01.JPG,AFNE01.JPG,AFNE01.JPG,AFNE01.JPG,AFNE01.JPG,,,,,2,2,22,6,,,,,,,,,,,,,,,,,,,AMSA04.jpg,AMNE06.jpg,AMSA02.jpg,AMNE01.jpg,AMSA04.jpg,MS,2,num_8,32,num_4,0.750086760148,,,2018_Jan_19_1129,60.0097776303,FEMA4ImagesEEG,001,202716,
AFNE01.JPG,AFNE01.JPG,AFNE01.JPG,AFNE01.JPG,AFNE01.JPG,AFNE01.JPG,,,,,2,3,23,1,,,,,,,,,,,,,,,,,,,AMNE16.jpg,AMNE01.jpg,AMSA12.jpg,AMSA08.jpg,AMSA12.jpg,MS,2,num_2,32,num_8,1.45005725231,,,2018_Jan_19_1129,60.0097776303,FEMA4ImagesEEG,001,202716,
AFNE01.JPG,AFNE01.JPG,AFNE01.JPG,AFNE01.JPG,AFNE01.JPG,AFNE01.JPG,,,,,2,4,24,7,,,,,,,,,,,,,,,,,,,AMSA09.jpg,AMNE18.jpg,AMSA06.jpg,AMNE05.jpg,AMNE18.jpg,MN,1,num_6,32,num_4,0.6834344198,,,2018_Jan_19_1129,60.0097776303,FEMA4ImagesEEG,001,202716,
AFNE01.JPG,AFNE01.JPG,AFNE01.JPG,AFNE01.JPG,AFNE01.JPG,AFNE01.JPG,,,,,2,5,25,4,,,,,,,,,,,,,,,,,,,AMSA01.jpg,AMNE12.jpg,AMSA17.jpg,AMNE05.jpg,AMNE05.jpg,MN,1,num_4,32,num_6,0.76681110682,,,2018_Jan_19_1129,60.0097776303,FEMA4ImagesEEG,001,202716,
AFNE01.JPG,AFNE01.JPG,AFNE01.JPG,AFNE01.JPG,AFNE01.JPG,AFNE01.JPG,,,,,2,6,26,3,,,,,,,,,,,,,,,,,,,AMNE17.jpg,AMNE02.jpg,AMSA07.jpg,AMSA19.jpg,AMNE17.jpg,MN,1,num_8,16,num_8,0.950185868889,,,2018_Jan_19_1129,60.0097776303,FEMA4ImagesEEG,001,202716,
AFNE01.JPG,AFNE01.JPG,AFNE01.JPG,AFNE01.JPG,AFNE01.JPG,AFNE01.JPG,,,,,2,7,27,8,,,,,,,,,,,,,,,,,,,AMNE12.jpg,AMNE08.jpg,AMSA03.jpg,AMSA06.jpg,AMNE12.jpg,MN,1,num_8,16,num_8,0.900124126114,,,2018_Jan_19_1129,60.0097776303,FEMA4ImagesEEG,001,202716,
AFNE01.JPG,AFNE01.JPG,AFNE01.JPG,AFNE01.JPG,AFNE01.JPG,AFNE01.JPG,,,,,2,8,28,0,,,,,,,,,,,,,,,,,,,AMSA04.jpg,AMNE08.jpg,AMNE06.jpg,AMSA20.jpg,AMNE08.jpg,MN,1,num_6,32,num_2,1.18346104119,,,2018_Jan_19_1129,60.0097776303,FEMA4ImagesEEG,001,202716,
AFNE01.JPG,AFNE01.JPG,AFNE01.JPG,AFNE01.JPG,AFNE01.JPG,AFNE01.JPG,,,,,2,9,29,9,,,,,,,,,,,,,,,,,,,AMSA10.jpg,AMNE05.jpg,AMNE06.jpg,AMSA06.jpg,AMSA06.jpg,MS,2,num_4,32,num_2,1.19997626543,,,2018_Jan_19_1129,60.0097776303,FEMA4ImagesEEG,001,202716,
AFNE01.JPG,AFNE01.JPG,AFNE01.JPG,AFNE01.JPG,AFNE01.JPG,AFNE01.JPG,,,,,3,0,30,5,,,,,,,,,,,,,,,,,,,AMSA20.jpg,AMNE13.jpg,AMSA03.jpg,AMNE09.jpg,AMNE13.jpg,MN,1,num_6,16,num_6,0.583529038355,,,2018_Jan_19_1129,60.0097776303,FEMA4ImagesEEG,001,202716,
AFNE01.JPG,AFNE01.JPG,AFNE01.JPG,AFNE01.JPG,AFNE01.JPG,AFNE01.JPG,,,,,3,1,31,9,,,,,,,,,,,,,,,,,,,AMSA13.jpg,AMSA18.jpg,AMNE16.jpg,AMNE10.jpg,AMNE10.jpg,MN,1,num_4,16,num_4,0.833465371747,,,2018_Jan_19_1129,60.0097776303,FEMA4ImagesEEG,001,202716,
AFNE01.JPG,AFNE01.JPG,AFNE01.JPG,AFNE01.JPG,AFNE01.JPG,AFNE01.JPG,,,,,3,2,32,8,,,,,,,,,,,,,,,,,,,AMSA01.jpg,AMSA11.jpg,AMNE18.jpg,AMNE05.jpg,AMNE05.jpg,MN,1,num_4,16,num_4,0.750098627526,,,2018_Jan_19_1129,60.0097776303,FEMA4ImagesEEG,001,202716,
AFNE01.JPG,AFNE01.JPG,AFNE01.JPG,AFNE01.JPG,AFNE01.JPG,AFNE01.JPG,,,,,3,3,33,3,,,,,,,,,,,,,,,,,,,AMSA20.jpg,AMNE20.jpg,AMNE11.jpg,AMSA11.jpg,AMSA11.jpg,MS,2,num_4,32,num_6,0.883446287364,,,2018_Jan_19_1129,60.0097776303,FEMA4ImagesEEG,001,202716,
AFNE01.JPG,AFNE01.JPG,AFNE01.JPG,AFNE01.JPG,AFNE01.JPG,AFNE01.JPG,,,,,3,4,34,7,,,,,,,,,,,,,,,,,,,AMSA20.jpg,AMNE20.jpg,AMSA14.jpg,AMNE04.jpg,AMSA14.jpg,MS,2,num_2,16,num_2,3.483273088,,,2018_Jan_19_1129,60.0097776303,FEMA4ImagesEEG,001,202716,
AFNE01.JPG,AFNE01.JPG,AFNE01.JPG,AFNE01.JPG,AFNE01.JPG,AFNE01.JPG,,,,,3,5,35,1,,,,,,,,,,,,,,,,,,,AMSA20.jpg,AMNE16.jpg,AMNE18.jpg,AMSA08.jpg,AMNE16.jpg,MN,1,num_6,16,num_6,0.616842058022,,,2018_Jan_19_1129,60.0097776303,FEMA4ImagesEEG,001,202716,
AFNE01.JPG,AFNE01.JPG,AFNE01.JPG,AFNE01.JPG,AFNE01.JPG,AFNE01.JPG,,,,,3,6,36,2,,,,,,,,,,,,,,,,,,,AMSA09.jpg,AMNE10.jpg,AMSA10.jpg,AMNE12.jpg,AMNE12.jpg,MN,1,num_4,32,num_6,0.966794107575,,,2018_Jan_19_1129,60.0097776303,FEMA4ImagesEEG,001,202716,
AFNE01.JPG,AFNE01.JPG,AFNE01.JPG,AFNE01.JPG,AFNE01.JPG,AFNE01.JPG,,,,,3,7,37,6,,,,,,,,,,,,,,,,,,,AMNE15.jpg,AMNE06.jpg,AMSA05.jpg,AMSA13.jpg,AMSA05.jpg,MS,2,num_2,32,num_8,0.700120918918,,,2018_Jan_19_1129,60.0097776303,FEMA4ImagesEEG,001,202716,
AFNE01.JPG,AFNE01.JPG,AFNE01.JPG,AFNE01.JPG,AFNE01.JPG,AFNE01.JPG,,,,,3,8,38,4,,,,,,,,,,,,,,,,,,,AMSA17.jpg,AMSA03.jpg,AMNE20.jpg,AMNE18.jpg,AMSA03.jpg,MS,2,num_6,16,num_6,0.78348541772,,,2018_Jan_19_1129,60.0097776303,FEMA4ImagesEEG,001,202716,
AFNE01.JPG,AFNE01.JPG,AFNE01.JPG,AFNE01.JPG,AFNE01.JPG,AFNE01.JPG,,,,,3,9,39,0,,,,,,,,,,,,,,,,,,,AMSA05.jpg,AMNE01.jpg,AMNE17.jpg,AMSA07.jpg,AMSA05.jpg,MS,2,num_8,32,num_4,0.600128937513,,,2018_Jan_19_1129,60.0097776303,FEMA4ImagesEEG,001,202716,
AFNE01.JPG,AFNE01.JPG,AFNE01.JPG,AFNE01.JPG,AFNE01.JPG,AFNE01.JPG,,,,,4,0,40,7,,,,,,,,,,,,,,,,,,,AMNE14.jpg,AMNE20.jpg,AMSA03.jpg,AMSA17.jpg,AMSA17.jpg,MS,2,num_4,32,num_6,0.600127333775,,,2018_Jan_19_1129,60.0097776303,FEMA4ImagesEEG,001,202716,
AFNE01.JPG,AFNE01.JPG,AFNE01.JPG,AFNE01.JPG,AFNE01.JPG,AFNE01.JPG,,,,,4,1,41,1,,,,,,,,,,,,,,,,,,,AMSA10.jpg,AMNE07.jpg,AMNE11.jpg,AMSA13.jpg,AMSA10.jpg,MS,2,num_8,32,num_4,0.633480446413,,,2018_Jan_19_1129,60.0097776303,FEMA4ImagesEEG,001,202716,
AFNE01.JPG,AFNE01.JPG,AFNE01.JPG,AFNE01.JPG,AFNE01.JPG,AFNE01.JPG,,,,,4,2,42,0,,,,,,,,,,,,,,,,,,,AMNE18.jpg,AMSA14.jpg,AMSA11.jpg,AMNE12.jpg,AMNE18.jpg,MN,1,num_8,16,num_8,1.21677085338,,,2018_Jan_19_1129,60.0097776303,FEMA4ImagesEEG,001,202716,
AFNE01.JPG,AFNE01.JPG,AFNE01.JPG,AFNE01.JPG,AFNE01.JPG,AFNE01.JPG,,,,,4,3,43,8,,,,,,,,,,,,,,,,,,,AMNE08.jpg,AMSA05.jpg,AMNE11.jpg,AMSA17.jpg,AMSA17.jpg,MS,2,num_4,16,num_4,0.666805012617,,,2018_Jan_19_1129,60.0097776303,FEMA4ImagesEEG,001,202716,
AFNE01.JPG,AFNE01.JPG,AFNE01.JPG,AFNE01.JPG,AFNE01.JPG,AFNE01.JPG,,,,,4,4,44,2,,,,,,,,,,,,,,,,,,,AMNE03.jpg,AMNE04.jpg,AMSA10.jpg,AMSA04.jpg,AMSA04.jpg,MS,2,num_4,16,num_4,0.766752411146,,,2018_Jan_19_1129,60.0097776303,FEMA4ImagesEEG,001,202716,
AFNE01.JPG,AFNE01.JPG,AFNE01.JPG,AFNE01.JPG,AFNE01.JPG,AFNE01.JPG,,,,,4,5,45,5,,,,,,,,,,,,,,,,,,,AMSA02.jpg,AMSA17.jpg,AMNE05.jpg,AMNE19.jpg,AMNE19.jpg,MN,1,num_4,16,num_4,0.900091731921,,,2018_Jan_19_1129,60.0097776303,FEMA4ImagesEEG,001,202716,
AFNE01.JPG,AFNE01.JPG,AFNE01.JPG,AFNE01.JPG,AFNE01.JPG,AFNE01.JPG,,,,,4,6,46,3,,,,,,,,,,,,,,,,,,,AMNE01.jpg,AMSA01.jpg,AMNE04.jpg,AMSA08.jpg,AMSA08.jpg,MS,2,num_4,32,num_2,1.10016229469,,,2018_Jan_19_1129,60.0097776303,FEMA4ImagesEEG,001,202716,
AFNE01.JPG,AFNE01.JPG,AFNE01.JPG,AFNE01.JPG,AFNE01.JPG,AFNE01.JPG,,,,,4,7,47,4,,,,,,,,,,,,,,,,,,,AMSA02.jpg,AMNE13.jpg,AMNE02.jpg,AMSA14.jpg,AMSA14.jpg,MS,2,num_4,16,num_4,0.716919356491,,,2018_Jan_19_1129,60.0097776303,FEMA4ImagesEEG,001,202716,
AFNE01.JPG,AFNE01.JPG,AFNE01.JPG,AFNE01.JPG,AFNE01.JPG,AFNE01.JPG,,,,,4,8,48,9,,,,,,,,,,,,,,,,,,,AMNE15.jpg,AMSA09.jpg,AMSA15.jpg,AMNE09.jpg,AMNE09.jpg,MN,1,num_4,32,num_8,0.966751769651,,,2018_Jan_19_1129,60.0097776303,FEMA4ImagesEEG,001,202716,
AFNE01.JPG,AFNE01.JPG,AFNE01.JPG,AFNE01.JPG,AFNE01.JPG,AFNE01.JPG,,,,,4,9,49,6,,,,,,,,,,,,,,,,,,,AMNE03.jpg,AMSA03.jpg,AMNE12.jpg,AMSA20.jpg,AMSA20.jpg,MS,2,num_4,16,num_4,0.850200622808,,,2018_Jan_19_1129,60.0097776303,FEMA4ImagesEEG,001,202716,
AFNE01.JPG,AFNE01.JPG,AFNE01.JPG,AFNE01.JPG,AFNE01.JPG,AFNE01.JPG,,,,,5,0,50,7,,,,,,,,,,,,,,,,,,,AMSA10.jpg,AMNE08.jpg,AMNE16.jpg,AMSA17.jpg,AMSA10.jpg,MS,2,num_8,16,num_8,0.599867855199,,,2018_Jan_19_1129,60.0097776303,FEMA4ImagesEEG,001,202716,
AFNE01.JPG,AFNE01.JPG,AFNE01.JPG,AFNE01.JPG,AFNE01.JPG,AFNE01.JPG,,,,,5,1,51,6,,,,,,,,,,,,,,,,,,,AMSA12.jpg,AMNE06.jpg,AMNE03.jpg,AMSA04.jpg,AMSA04.jpg,MS,2,num_4,32,num_6,0.816777910106,,,2018_Jan_19_1129,60.0097776303,FEMA4ImagesEEG,001,202716,
AFNE01.JPG,AFNE01.JPG,AFNE01.JPG,AFNE01.JPG,AFNE01.JPG,AFNE01.JPG,,,,,5,2,52,2,,,,,,,,,,,,,,,,,,,AMNE10.jpg,AMSA02.jpg,AMSA04.jpg,AMNE16.jpg,AMSA02.jpg,MS,2,num_6,16,num_6,0.48349824734,,,2018_Jan_19_1129,60.0097776303,FEMA4ImagesEEG,001,202716,
AFNE01.JPG,AFNE01.JPG,AFNE01.JPG,AFNE01.JPG,AFNE01.JPG,AFNE01.JPG,,,,,5,3,53,5,,,,,,,,,,,,,,,,,,,AMSA10.jpg,AMSA01.jpg,AMNE07.jpg,AMNE18.jpg,AMSA10.jpg,MS,2,num_8,32,num_4,1.11674519442,,,2018_Jan_19_1129,60.0097776303,FEMA4ImagesEEG,001,202716,
AFNE01.JPG,AFNE01.JPG,AFNE01.JPG,AFNE01.JPG,AFNE01.JPG,AFNE01.JPG,,,,,5,4,54,8,,,,,,,,,,,,,,,,,,,AMNE13.jpg,AMSA18.jpg,AMSA13.jpg,AMNE03.jpg,AMNE03.jpg,MN,1,num_4,32,num_8,0.816827945411,,,2018_Jan_19_1129,60.0097776303,FEMA4ImagesEEG,001,202716,
AFNE01.JPG,AFNE01.JPG,AFNE01.JPG,AFNE01.JPG,AFNE01.JPG,AFNE01.JPG,,,,,5,5,55,1,,,,,,,,,,,,,,,,,,,AMSA04.jpg,AMSA03.jpg,AMNE18.jpg,AMNE20.jpg,AMNE18.jpg,MN,1,num_2,32,num_4,0.766816880088,,,2018_Jan_19_1129,60.0097776303,FEMA4ImagesEEG,001,202716,
AFNE01.JPG,AFNE01.JPG,AFNE01.JPG,AFNE01.JPG,AFNE01.JPG,AFNE01.JPG,,,,,5,6,56,4,,,,,,,,,,,,,,,,,,,AMNE03.jpg,AMSA19.jpg,AMNE08.jpg,AMSA03.jpg,AMNE08.jpg,MN,1,num_2,32,num_6,0.799966963939,,,2018_Jan_19_1129,60.0097776303,FEMA4ImagesEEG,001,202716,
AFNE01.JPG,AFNE01.JPG,AFNE01.JPG,AFNE01.JPG,AFNE01.JPG,AFNE01.JPG,,,,,5,7,57,9,,,,,,,,,,,,,,,,,,,AMNE02.jpg,AMNE19.jpg,AMSA02.jpg,AMSA16.jpg,AMNE19.jpg,MN,1,num_6,32,num_8,0.833504822571,,,2018_Jan_19_1129,60.0097776303,FEMA4ImagesEEG,001,202716,
AFNE01.JPG,AFNE01.JPG,AFNE01.JPG,AFNE01.JPG,AFNE01.JPG,AFNE01.JPG,,,,,5,8,58,3,,,,,,,,,,,,,,,,,,,AMNE07.jpg,AMSA05.jpg,AMSA01.jpg,AMNE10.jpg,AMNE10.jpg,MN,1,num_4,32,num_8,0.950061742216,,,2018_Jan_19_1129,60.0097776303,FEMA4ImagesEEG,001,202716,
AFNE01.JPG,AFNE01.JPG,AFNE01.JPG,AFNE01.JPG,AFNE01.JPG,AFNE01.JPG,,,,,5,9,59,0,,,,,,,,,,,,,,,,,,,AMSA17.jpg,AMNE15.jpg,AMNE17.jpg,AMSA10.jpg,AMSA10.jpg,MS,2,num_4,16,num_4,0.833442277741,,,2018_Jan_19_1129,60.0097776303,FEMA4ImagesEEG,001,202716,
,,,,,,,,,,,,,,,,,,,,,,,,,,,,,,,,,,,,,,,,,,,space,22.0818172484,2018_Jan_19_1129,60.0097776303,FEMA4ImagesEEG,001,202716,
AFNE01.JPG,AFNE01.JPG,AFNE01.JPG,AFNE01.JPG,AFNE01.JPG,AFNE01.JPG,,,,,,,,,0,0,0,5,,,,,,,,,,,,,,,AFSA07.jpg,AFSA17.jpg,AFNE13.jpg,AFNE12.jpg,AFSA07.jpg,FS,4,num_8,16,num_8,0.833279663231,,,2018_Jan_19_1129,60.0097776303,FEMA4ImagesEEG,001,202716,
AFNE01.JPG,AFNE01.JPG,AFNE01.JPG,AFNE01.JPG,AFNE01.JPG,AFNE01.JPG,,,,,,,,,0,1,1,3,,,,,,,,,,,,,,,AFNE02.jpg,AFSA04.jpg,AFSA13.jpg,AFNE08.jpg,AFNE02.jpg,FN,3,num_8,32,num_6,0.550189397298,,,2018_Jan_19_1129,60.0097776303,FEMA4ImagesEEG,001,202716,
AFNE01.JPG,AFNE01.JPG,AFNE01.JPG,AFNE01.JPG,AFNE01.JPG,AFNE01.JPG,,,,,,,,,0,2,2,7,,,,,,,,,,,,,,,AFNE19.jpg,AFSA16.jpg,AFSA12.jpg,AFNE09.jpg,AFNE09.jpg,FN,3,num_4,16,num_4,0.300170954317,,,2018_Jan_19_1129,60.0097776303,FEMA4ImagesEEG,001,202716,
AFNE01.JPG,AFNE01.JPG,AFNE01.JPG,AFNE01.JPG,AFNE01.JPG,AFNE01.JPG,,,,,,,,,0,3,3,1,,,,,,,,,,,,,,,AFNE07.jpg,AFSA02.jpg,AFSA13.jpg,AFNE13.jpg,AFNE13.jpg,FN,3,num_4,32,num_8,0.36680982355,,,2018_Jan_19_1129,60.0097776303,FEMA4ImagesEEG,001,202716,
AFNE01.JPG,AFNE01.JPG,AFNE01.JPG,AFNE01.JPG,AFNE01.JPG,AFNE01.JPG,,,,,,,,,0,4,4,0,,,,,,,,,,,,,,,AFNE01.jpg,AFSA20.jpg,AFNE12.jpg,AFSA04.jpg,AFNE01.jpg,FN,3,num_8,32,num_2,0.350220188033,,,2018_Jan_19_1129,60.0097776303,FEMA4ImagesEEG,001,202716,
AFNE01.JPG,AFNE01.JPG,AFNE01.JPG,AFNE01.JPG,AFNE01.JPG,AFNE01.JPG,,,,,,,,,0,5,5,9,,,,,,,,,,,,,,,AFSA10.jpg,AFNE02.jpg,AFSA01.jpg,AFNE16.jpg,AFSA10.jpg,FS,4,num_8,32,num_4,0.600166143384,,,2018_Jan_19_1129,60.0097776303,FEMA4ImagesEEG,001,202716,
AFNE01.JPG,AFNE01.JPG,AFNE01.JPG,AFNE01.JPG,AFNE01.JPG,AFNE01.JPG,,,,,,,,,0,6,6,2,,,,,,,,,,,,,,,AFNE09.jpg,AFNE02.jpg,AFSA04.jpg,AFSA18.jpg,AFSA18.jpg,FS,4,num_4,32,num_8,0.583553414326,,,2018_Jan_19_1129,60.0097776303,FEMA4ImagesEEG,001,202716,
AFNE01.JPG,AFNE01.JPG,AFNE01.JPG,AFNE01.JPG,AFNE01.JPG,AFNE01.JPG,,,,,,,,,0,7,7,4,,,,,,,,,,,,,,,AFSA08.jpg,AFNE15.jpg,AFSA09.jpg,AFNE13.jpg,AFSA08.jpg,FS,4,num_8,32,num_6,0.466769410297,,,2018_Jan_19_1129,60.0097776303,FEMA4ImagesEEG,001,202716,
AFNE01.JPG,AFNE01.JPG,AFNE01.JPG,AFNE01.JPG,AFNE01.JPG,AFNE01.JPG,,,,,,,,,0,8,8,8,,,,,,,,,,,,,,,AFSA02.jpg,AFNE05.jpg,AFNE10.jpg,AFSA01.jpg,AFSA01.jpg,FS,4,num_4,16,num_4,0.483503378928,,,2018_Jan_19_1129,60.0097776303,FEMA4ImagesEEG,001,202716,
AFNE01.JPG,AFNE01.JPG,AFNE01.JPG,AFNE01.JPG,AFNE01.JPG,AFNE01.JPG,,,,,,,,,0,9,9,6,,,,,,,,,,,,,,,AFNE18.jpg,AFNE17.jpg,AFSA15.jpg,AFSA06.jpg,AFNE17.jpg,FN,3,num_6,32,num_8,1.35010408051,,,2018_Jan_19_1129,60.0097776303,FEMA4ImagesEEG,001,202716,
AFNE01.JPG,AFNE01.JPG,AFNE01.JPG,AFNE01.JPG,AFNE01.JPG,AFNE01.JPG,,,,,,,,,1,0,10,7,,,,,,,,,,,,,,,AFNE04.jpg,AFSA18.jpg,AFSA10.jpg,AFNE11.jpg,AFSA10.jpg,FS,4,num_2,32,num_4,0.700003528502,,,2018_Jan_19_1129,60.0097776303,FEMA4ImagesEEG,001,202716,
AFNE01.JPG,AFNE01.JPG,AFNE01.JPG,AFNE01.JPG,AFNE01.JPG,AFNE01.JPG,,,,,,,,,1,1,11,1,,,,,,,,,,,,,,,AFNE01.jpg,AFSA16.jpg,AFNE11.jpg,AFSA18.jpg,AFNE11.jpg,FN,3,num_2,16,num_2,1.30010135379,,,2018_Jan_19_1129,60.0097776303,FEMA4ImagesEEG,001,202716,
AFNE01.JPG,AFNE01.JPG,AFNE01.JPG,AFNE01.JPG,AFNE01.JPG,AFNE01.JPG,,,,,,,,,1,2,12,2,,,,,,,,,,,,,,,AFSA20.jpg,AFNE10.jpg,AFNE19.jpg,AFSA03.jpg,AFNE10.jpg,FN,3,num_6,32,num_8,1.11673749657,,,2018_Jan_19_1129,60.0097776303,FEMA4ImagesEEG,001,202716,
AFNE01.JPG,AFNE01.JPG,AFNE01.JPG,AFNE01.JPG,AFNE01.JPG,AFNE01.JPG,,,,,,,,,1,3,13,0,,,,,,,,,,,,,,,AFNE03.jpg,AFSA08.jpg,AFSA09.jpg,AFNE18.jpg,AFNE18.jpg,FN,3,num_4,16,num_4,0.666795390192,,,2018_Jan_19_1129,60.0097776303,FEMA4ImagesEEG,001,202716,
AFNE01.JPG,AFNE01.JPG,AFNE01.JPG,AFNE01.JPG,AFNE01.JPG,AFNE01.JPG,,,,,,,,,1,4,14,3,,,,,,,,,,,,,,,AFNE04.jpg,AFSA01.jpg,AFNE17.jpg,AFSA18.jpg,AFSA18.jpg,FS,4,num_4,16,num_4,0.650176567491,,,2018_Jan_19_1129,60.0097776303,FEMA4ImagesEEG,001,202716,
AFNE01.JPG,AFNE01.JPG,AFNE01.JPG,AFNE01.JPG,AFNE01.JPG,AFNE01.JPG,,,,,,,,,1,5,15,6,,,,,,,,,,,,,,,AFNE13.jpg,AFSA08.jpg,AFNE12.jpg,AFSA06.jpg,AFNE12.jpg,FN,3,num_2,32,num_8,1.18343025027,,,2018_Jan_19_1129,60.0097776303,FEMA4ImagesEEG,001,202716,
AFNE01.JPG,AFNE01.JPG,AFNE01.JPG,AFNE01.JPG,AFNE01.JPG,AFNE01.JPG,,,,,,,,,1,6,16,5,,,,,,,,,,,,,,,AFSA05.jpg,AFNE06.jpg,AFNE13.jpg,AFSA13.jpg,AFSA13.jpg,FS,4,num_4,16,num_4,0.500144974794,,,2018_Jan_19_1129,60.0097776303,FEMA4ImagesEEG,001,202716,
AFNE01.JPG,AFNE01.JPG,AFNE01.JPG,AFNE01.JPG,AFNE01.JPG,AFNE01.JPG,,,,,,,,,1,7,17,4,,,,,,,,,,,,,,,AFSA12.jpg,AFNE04.jpg,AFSA11.jpg,AFNE18.jpg,AFSA11.jpg,FS,4,num_2,32,num_4,1.56672611041,,,2018_Jan_19_1129,60.0097776303,FEMA4ImagesEEG,001,202716,
AFNE01.JPG,AFNE01.JPG,AFNE01.JPG,AFNE01.JPG,AFNE01.JPG,AFNE01.JPG,,,,,,,,,1,8,18,9,,,,,,,,,,,,,,,AFNE12.jpg,AFNE15.jpg,AFSA14.jpg,AFSA06.jpg,AFNE12.jpg,FN,3,num_8,16,num_8,0.91715285508,,,2018_Jan_19_1129,60.0097776303,FEMA4ImagesEEG,001,202716,
AFNE01.JPG,AFNE01.JPG,AFNE01.JPG,AFNE01.JPG,AFNE01.JPG,AFNE01.JPG,,,,,,,,,1,9,19,8,,,,,,,,,,,,,,,AFNE20.jpg,AFSA12.jpg,AFSA09.jpg,AFNE03.jpg,AFNE20.jpg,FN,3,num_8,32,num_6,0.850147700869,,,2018_Jan_19_1129,60.0097776303,FEMA4ImagesEEG,001,202716,
AFNE01.JPG,AFNE01.JPG,AFNE01.JPG,AFNE01.JPG,AFNE01.JPG,AFNE01.JPG,,,,,,,,,2,0,20,1,,,,,,,,,,,,,,,AFSA14.jpg,AFNE19.jpg,AFSA17.jpg,AFNE09.jpg,AFNE19.jpg,FN,3,num_6,32,num_4,0.816768929362,,,2018_Jan_19_1129,60.0097776303,FEMA4ImagesEEG,001,202716,
AFNE01.JPG,AFNE01.JPG,AFNE01.JPG,AFNE01.JPG,AFNE01.JPG,AFNE01.JPG,,,,,,,,,2,1,21,3,,,,,,,,,,,,,,,AFSA10.jpg,AFNE12.jpg,AFSA05.jpg,AFNE10.jpg,AFNE12.jpg,FN,3,num_6,32,num_8,0.800169992261,,,2018_Jan_19_1129,60.0097776303,FEMA4ImagesEEG,001,202716,
AFNE01.JPG,AFNE01.JPG,AFNE01.JPG,AFNE01.JPG,AFNE01.JPG,AFNE01.JPG,,,,,,,,,2,2,22,4,,,,,,,,,,,,,,,AFSA05.jpg,AFNE20.jpg,AFSA16.jpg,AFNE03.jpg,AFSA16.jpg,FS,4,num_2,32,num_6,1.20011771144,,,2018_Jan_19_1129,60.0097776303,FEMA4ImagesEEG,001,202716,
AFNE01.JPG,AFNE01.JPG,AFNE01.JPG,AFNE01.JPG,AFNE01.JPG,AFNE01.JPG,,,,,,,,,2,3,23,9,,,,,,,,,,,,,,,AFSA13.jpg,AFSA12.jpg,AFNE17.jpg,AFNE07.jpg,AFSA12.jpg,FS,4,num_6,32,num_4,0.983521019574,,,2018_Jan_19_1129,60.0097776303,FEMA4ImagesEEG,001,202716,
AFNE01.JPG,AFNE01.JPG,AFNE01.JPG,AFNE01.JPG,AFNE01.JPG,AFNE01.JPG,,,,,,,,,2,4,24,0,,,,,,,,,,,,,,,AFSA18.jpg,AFSA11.jpg,AFNE01.jpg,AFNE05.jpg,AFSA11.jpg,FS,4,num_6,16,num_6,0.466826501768,,,2018_Jan_19_1129,60.0097776303,FEMA4ImagesEEG,001,202716,
AFNE01.JPG,AFNE01.JPG,AFNE01.JPG,AFNE01.JPG,AFNE01.JPG,AFNE01.JPG,,,,,,,,,2,5,25,5,,,,,,,,,,,,,,,AFNE03.jpg,AFSA20.jpg,AFSA13.jpg,AFNE12.jpg,AFNE12.jpg,FN,3,num_4,32,num_8,0.916792984586,,,2018_Jan_19_1129,60.0097776303,FEMA4ImagesEEG,001,202716,
AFNE01.JPG,AFNE01.JPG,AFNE01.JPG,AFNE01.JPG,AFNE01.JPG,AFNE01.JPG,,,,,,,,,2,6,26,8,,,,,,,,,,,,,,,AFNE18.jpg,AFNE13.jpg,AFSA10.jpg,AFSA12.jpg,AFSA12.jpg,FS,4,num_4,16,num_4,0.966766844504,,,2018_Jan_19_1129,60.0097776303,FEMA4ImagesEEG,001,202716,
AFNE01.JPG,AFNE01.JPG,AFNE01.JPG,AFNE01.JPG,AFNE01.JPG,AFNE01.JPG,,,,,,,,,2,7,27,6,,,,,,,,,,,,,,,AFSA16.jpg,AFNE18.jpg,AFNE11.jpg,AFSA19.jpg,AFNE18.jpg,FN,3,num_6,16,num_6,1.03346344689,,,2018_Jan_19_1129,60.0097776303,FEMA4ImagesEEG,001,202716,
AFNE01.JPG,AFNE01.JPG,AFNE01.JPG,AFNE01.JPG,AFNE01.JPG,AFNE01.JPG,,,,,,,,,2,8,28,2,,,,,,,,,,,,,,,AFNE05.jpg,AFNE02.jpg,AFSA07.jpg,AFSA05.jpg,AFNE05.jpg,FN,3,num_8,32,num_6,0.966795710847,,,2018_Jan_19_1129,60.0097776303,FEMA4ImagesEEG,001,202716,
AFNE01.JPG,AFNE01.JPG,AFNE01.JPG,AFNE01.JPG,AFNE01.JPG,AFNE01.JPG,,,,,,,,,2,9,29,7,,,,,,,,,,,,,,,AFNE08.jpg,AFNE09.jpg,AFSA20.jpg,AFSA01.jpg,AFNE08.jpg,FN,3,num_8,16,num_8,1.00020687701,,,2018_Jan_19_1129,60.0097776303,FEMA4ImagesEEG,001,202716,
AFNE01.JPG,AFNE01.JPG,AFNE01.JPG,AFNE01.JPG,AFNE01.JPG,AFNE01.JPG,,,,,,,,,3,0,30,7,,,,,,,,,,,,,,,AFNE10.jpg,AFSA04.jpg,AFSA11.jpg,AFNE11.jpg,AFNE11.jpg,FN,3,num_4,32,num_6,1.50012252247,,,2018_Jan_19_1129,60.0097776303,FEMA4ImagesEEG,001,202716,
AFNE01.JPG,AFNE01.JPG,AFNE01.JPG,AFNE01.JPG,AFNE01.JPG,AFNE01.JPG,,,,,,,,,3,1,31,8,,,,,,,,,,,,,,,AFNE19.jpg,AFNE05.jpg,AFSA01.jpg,AFSA19.jpg,AFNE19.jpg,FN,3,num_8,16,num_8,0.750112098642,,,2018_Jan_19_1129,60.0097776303,FEMA4ImagesEEG,001,202716,
AFNE01.JPG,AFNE01.JPG,AFNE01.JPG,AFNE01.JPG,AFNE01.JPG,AFNE01.JPG,,,,,,,,,3,2,32,3,,,,,,,,,,,,,,,AFNE05.jpg,AFSA07.jpg,AFSA03.jpg,AFNE18.jpg,AFNE18.jpg,FN,3,num_4,32,num_8,0.966739902273,,,2018_Jan_19_1129,60.0097776303,FEMA4ImagesEEG,001,202716,
AFNE01.JPG,AFNE01.JPG,AFNE01.JPG,AFNE01.JPG,AFNE01.JPG,AFNE01.JPG,,,,,,,,,3,3,33,0,,,,,,,,,,,,,,,AFNE09.jpg,AFSA03.jpg,AFNE06.jpg,AFSA08.jpg,AFSA03.jpg,FS,4,num_6,16,num_6,0.666857613716,,,2018_Jan_19_1129,60.0097776303,FEMA4ImagesEEG,001,202716,
AFNE01.JPG,AFNE01.JPG,AFNE01.JPG,AFNE01.JPG,AFNE01.JPG,AFNE01.JPG,,,,,,,,,3,4,34,5,,,,,,,,,,,,,,,AFSA13.jpg,AFNE14.jpg,AFNE04.jpg,AFSA06.jpg,AFNE04.jpg,FN,3,num_2,16,num_2,1.05039210431,,,2018_Jan_19_1129,60.0097776303,FEMA4ImagesEEG,001,202716,
AFNE01.JPG,AFNE01.JPG,AFNE01.JPG,AFNE01.JPG,AFNE01.JPG,AFNE01.JPG,,,,,,,,,3,5,35,9,,,,,,,,,,,,,,,AFSA01.jpg,AFNE10.jpg,AFSA03.jpg,AFNE03.jpg,AFSA03.jpg,FS,4,num_2,32,num_6,0.850201264024,,,2018_Jan_19_1129,60.0097776303,FEMA4ImagesEEG,001,202716,
AFNE01.JPG,AFNE01.JPG,AFNE01.JPG,AFNE01.JPG,AFNE01.JPG,AFNE01.JPG,,,,,,,,,3,6,36,1,,,,,,,,,,,,,,,AFNE20.jpg,AFSA06.jpg,AFSA16.jpg,AFNE03.jpg,AFSA06.jpg,FS,4,num_6,32,num_4,0.916794267483,,,2018_Jan_19_1129,60.0097776303,FEMA4ImagesEEG,001,202716,
AFNE01.JPG,AFNE01.JPG,AFNE01.JPG,AFNE01.JPG,AFNE01.JPG,AFNE01.JPG,,,,,,,,,3,7,37,2,,,,,,,,,,,,,,,AFNE18.jpg,AFNE05.jpg,AFSA01.jpg,AFSA14.jpg,AFSA14.jpg,FS,4,num_4,32,num_8,1.35005340353,,,2018_Jan_19_1129,60.0097776303,FEMA4ImagesEEG,001,202716,
AFNE01.JPG,AFNE01.JPG,AFNE01.JPG,AFNE01.JPG,AFNE01.JPG,AFNE01.JPG,,,,,,,,,3,8,38,4,,,,,,,,,,,,,,,AFNE16.jpg,AFSA13.jpg,AFSA12.jpg,AFNE03.jpg,AFNE03.jpg,FN,3,num_4,32,num_8,0.833489426877,,,2018_Jan_19_1129,60.0097776303,FEMA4ImagesEEG,001,202716,
AFNE01.JPG,AFNE01.JPG,AFNE01.JPG,AFNE01.JPG,AFNE01.JPG,AFNE01.JPG,,,,,,,,,3,9,39,6,,,,,,,,,,,,,,,AFNE11.jpg,AFSA02.jpg,AFSA08.jpg,AFNE08.jpg,AFSA02.jpg,FS,4,num_6,16,num_6,0.816818002611,,,2018_Jan_19_1129,60.0097776303,FEMA4ImagesEEG,001,202716,
AFNE01.JPG,AFNE01.JPG,AFNE01.JPG,AFNE01.JPG,AFNE01.JPG,AFNE01.JPG,,,,,,,,,4,0,40,2,,,,,,,,,,,,,,,AFSA17.jpg,AFNE05.jpg,AFNE03.jpg,AFSA06.jpg,AFNE03.jpg,FN,3,num_2,32,num_6,0.983411327004,,,2018_Jan_19_1129,60.0097776303,FEMA4ImagesEEG,001,202716,
AFNE01.JPG,AFNE01.JPG,AFNE01.JPG,AFNE01.JPG,AFNE01.JPG,AFNE01.JPG,,,,,,,,,4,1,41,8,,,,,,,,,,,,,,,AFNE10.jpg,AFNE09.jpg,AFSA07.jpg,AFSA15.jpg,AFSA15.jpg,FS,4,num_4,16,num_4,0.666789296083,,,2018_Jan_19_1129,60.0097776303,FEMA4ImagesEEG,001,202716,
AFNE01.JPG,AFNE01.JPG,AFNE01.JPG,AFNE01.JPG,AFNE01.JPG,AFNE01.JPG,,,,,,,,,4,2,42,0,,,,,,,,,,,,,,,AFSA19.jpg,AFNE12.jpg,AFNE08.jpg,AFSA01.jpg,AFNE08.jpg,FN,3,num_2,32,num_6,0.749900409952,,,2018_Jan_19_1129,60.0097776303,FEMA4ImagesEEG,001,202716,
AFNE01.JPG,AFNE01.JPG,AFNE01.JPG,AFNE01.JPG,AFNE01.JPG,AFNE01.JPG,,,,,,,,,4,3,43,4,,,,,,,,,,,,,,,AFNE18.jpg,AFSA06.jpg,AFSA18.jpg,AFNE17.jpg,AFNE17.jpg,FN,3,num_4,16,num_4,1.21676796721,,,2018_Jan_19_1129,60.0097776303,FEMA4ImagesEEG,001,202716,
AFNE01.JPG,AFNE01.JPG,AFNE01.JPG,AFNE01.JPG,AFNE01.JPG,AFNE01.JPG,,,,,,,,,4,4,44,5,,,,,,,,,,,,,,,AFNE03.jpg,AFSA14.jpg,AFNE04.jpg,AFSA13.jpg,AFNE04.jpg,FN,3,num_2,32,num_6,0.733573460486,,,2018_Jan_19_1129,60.0097776303,FEMA4ImagesEEG,001,202716,
AFNE01.JPG,AFNE01.JPG,AFNE01.JPG,AFNE01.JPG,AFNE01.JPG,AFNE01.JPG,,,,,,,,,4,5,45,1,,,,,,,,,,,,,,,AFSA16.jpg,AFNE01.jpg,AFSA10.jpg,AFNE02.jpg,AFNE02.jpg,FN,3,num_4,32,num_8,0.883457833901,,,2018_Jan_19_1129,60.0097776303,FEMA4ImagesEEG,001,202716,
AFNE01.JPG,AFNE01.JPG,AFNE01.JPG,AFNE01.JPG,AFNE01.JPG,AFNE01.JPG,,,,,,,,,4,6,46,3,,,,,,,,,,,,,,,AFNE04.jpg,AFSA15.jpg,AFNE11.jpg,AFSA13.jpg,AFNE04.jpg,FN,3,num_8,16,num_8,0.700146899093,,,2018_Jan_19_1129,60.0097776303,FEMA4ImagesEEG,001,202716,
AFNE01.JPG,AFNE01.JPG,AFNE01.JPG,AFNE01.JPG,AFNE01.JPG,AFNE01.JPG,,,,,,,,,4,7,47,9,,,,,,,,,,,,,,,AFNE16.jpg,AFSA06.jpg,AFNE07.jpg,AFSA02.jpg,AFSA06.jpg,FS,4,num_6,16,num_6,0.966911818832,,,2018_Jan_19_1129,60.0097776303,FEMA4ImagesEEG,001,202716,
AFNE01.JPG,AFNE01.JPG,AFNE01.JPG,AFNE01.JPG,AFNE01.JPG,AFNE01.JPG,,,,,,,,,4,8,48,6,,,,,,,,,,,,,,,AFNE18.jpg,AFSA12.jpg,AFSA17.jpg,AFNE13.jpg,AFSA17.jpg,FS,4,num_2,32,num_4,0.93342335429,,,2018_Jan_19_1129,60.0097776303,FEMA4ImagesEEG,001,202716,
AFNE01.JPG,AFNE01.JPG,AFNE01.JPG,AFNE01.JPG,AFNE01.JPG,AFNE01.JPG,,,,,,,,,4,9,49,7,,,,,,,,,,,,,,,AFSA03.jpg,AFSA01.jpg,AFNE05.jpg,AFNE17.jpg,AFNE17.jpg,FN,3,num_4,32,num_2,1.06660711579,,,2018_Jan_19_1129,60.0097776303,FEMA4ImagesEEG,001,202716,
AFNE01.JPG,AFNE01.JPG,AFNE01.JPG,AFNE01.JPG,AFNE01.JPG,AFNE01.JPG,,,,,,,,,5,0,50,2,,,,,,,,,,,,,,,AFSA07.jpg,AFNE06.jpg,AFSA02.jpg,AFNE20.jpg,AFSA07.jpg,FS,4,num_8,16,num_8,0.616787211504,,,2018_Jan_19_1129,60.0097776303,FEMA4ImagesEEG,001,202716,
AFNE01.JPG,AFNE01.JPG,AFNE01.JPG,AFNE01.JPG,AFNE01.JPG,AFNE01.JPG,,,,,,,,,5,1,51,4,,,,,,,,,,,,,,,AFNE04.jpg,AFSA15.jpg,AFNE11.jpg,AFSA11.jpg,AFSA15.jpg,FS,4,num_6,32,num_8,0.933460239321,,,2018_Jan_19_1129,60.0097776303,FEMA4ImagesEEG,001,202716,
AFNE01.JPG,AFNE01.JPG,AFNE01.JPG,AFNE01.JPG,AFNE01.JPG,AFNE01.JPG,,,,,,,,,5,2,52,3,,,,,,,,,,,,,,,AFNE12.jpg,AFSA04.jpg,AFNE03.jpg,AFSA13.jpg,AFSA04.jpg,FS,4,num_6,32,num_8,1.06678576814,,,2018_Jan_19_1129,60.0097776303,FEMA4ImagesEEG,001,202716,
AFNE01.JPG,AFNE01.JPG,AFNE01.JPG,AFNE01.JPG,AFNE01.JPG,AFNE01.JPG,,,,,,,,,5,3,53,0,,,,,,,,,,,,,,,AFNE17.jpg,AFNE16.jpg,AFSA13.jpg,AFSA17.jpg,AFSA17.jpg,FS,4,num_4,32,num_8,0.750203188509,,,2018_Jan_19_1129,60.0097776303,FEMA4ImagesEEG,001,202716,
AFNE01.JPG,AFNE01.JPG,AFNE01.JPG,AFNE01.JPG,AFNE01.JPG,AFNE01.JPG,,,,,,,,,5,4,54,1,,,,,,,,,,,,,,,AFSA17.jpg,AFNE20.jpg,AFSA12.jpg,AFNE11.jpg,AFNE20.jpg,FN,3,num_6,16,num_6,0.80011001369,,,2018_Jan_19_1129,60.0097776303,FEMA4ImagesEEG,001,202716,
AFNE01.JPG,AFNE01.JPG,AFNE01.JPG,AFNE01.JPG,AFNE01.JPG,AFNE01.JPG,,,,,,,,,5,5,55,7,,,,,,,,,,,,,,,AFNE07.jpg,AFNE02.jpg,AFSA06.jpg,AFSA02.jpg,AFNE02.jpg,FN,3,num_6,32,num_8,2.35002806503,,,2018_Jan_19_1129,60.0097776303,FEMA4ImagesEEG,001,202716,
AFNE01.JPG,AFNE01.JPG,AFNE01.JPG,AFNE01.JPG,AFNE01.JPG,AFNE01.JPG,,,,,,,,,5,6,56,5,,,,,,,,,,,,,,,AFSA16.jpg,AFNE15.jpg,AFSA02.jpg,AFNE04.jpg,AFNE04.jpg,FN,3,num_4,16,num_4,0.550179133192,,,2018_Jan_19_1129,60.0097776303,FEMA4ImagesEEG,001,202716,
AFNE01.JPG,AFNE01.JPG,AFNE01.JPG,AFNE01.JPG,AFNE01.JPG,AFNE01.JPG,,,,,,,,,5,7,57,6,,,,,,,,,,,,,,,AFNE16.jpg,AFNE17.jpg,AFSA17.jpg,AFSA19.jpg,AFNE17.jpg,FN,3,num_6,32,num_4,0.683462965768,,,2018_Jan_19_1129,60.0097776303,FEMA4ImagesEEG,001,202716,
AFNE01.JPG,AFNE01.JPG,AFNE01.JPG,AFNE01.JPG,AFNE01.JPG,AFNE01.JPG,,,,,,,,,5,8,58,8,,,,,,,,,,,,,,,AFSA18.jpg,AFSA12.jpg,AFNE20.jpg,AFNE07.jpg,AFSA18.jpg,FS,4,num_8,16,num_8,1.0334381084,,,2018_Jan_19_1129,60.0097776303,FEMA4ImagesEEG,001,202716,
AFNE01.JPG,AFNE01.JPG,AFNE01.JPG,AFNE01.JPG,AFNE01.JPG,AFNE01.JPG,,,,,,,,,5,9,59,9,,,,,,,,,,,,,,,AFSA04.jpg,AFSA10.jpg,AFNE04.jpg,AFNE18.jpg,AFSA04.jpg,FS,4,num_8,32,num_2,1.30008980725,,,2018_Jan_19_1129,60.0097776303,FEMA4ImagesEEG,001,202716,
,,,,,,,,,,,,,,,,,,,,,,,,,,,,,,,,,,,,,,,,,,,space,20.9653578335,2018_Jan_19_1129,60.0097776303,FEMA4ImagesEEG,001,202716,
AFNE01.JPG,AFNE01.JPG,AFNE01.JPG,AFNE01.JPG,AFNE01.JPG,AFNE01.JPG,,,,,,,,,,,,,0,0,0,5,,,,,,,,,,,AMSA16.jpg,AMSA08.jpg,AMNE01.jpg,AMNE05.jpg,AMNE05.jpg,MN,1,num_4,32,num_8,0.650145134889,,,2018_Jan_19_1129,60.0097776303,FEMA4ImagesEEG,001,202716,
AFNE01.JPG,AFNE01.JPG,AFNE01.JPG,AFNE01.JPG,AFNE01.JPG,AFNE01.JPG,,,,,,,,,,,,,0,1,1,6,,,,,,,,,,,AMNE20.jpg,AMSA14.jpg,AMSA15.jpg,AMNE10.jpg,AMSA14.jpg,MS,2,num_6,16,num_6,0.53356383834,,,2018_Jan_19_1129,60.0097776303,FEMA4ImagesEEG,001,202716,
AFNE01.JPG,AFNE01.JPG,AFNE01.JPG,AFNE01.JPG,AFNE01.JPG,AFNE01.JPG,,,,,,,,,,,,,0,2,2,7,,,,,,,,,,,AMNE10.jpg,AMNE08.jpg,AMSA19.jpg,AMSA03.jpg,AMSA19.jpg,MS,2,num_2,32,num_8,0.583487342112,,,2018_Jan_19_1129,60.0097776303,FEMA4ImagesEEG,001,202716,
AFNE01.JPG,AFNE01.JPG,AFNE01.JPG,AFNE01.JPG,AFNE01.JPG,AFNE01.JPG,,,,,,,,,,,,,0,3,3,4,,,,,,,,,,,AMSA01.jpg,AMNE11.jpg,AMNE02.jpg,AMSA06.jpg,AMSA01.jpg,MS,2,num_8,16,num_8,0.650136154145,,,2018_Jan_19_1129,60.0097776303,FEMA4ImagesEEG,001,202716,
AFNE01.JPG,AFNE01.JPG,AFNE01.JPG,AFNE01.JPG,AFNE01.JPG,AFNE01.JPG,,,,,,,,,,,,,0,4,4,1,,,,,,,,,,,AMSA06.jpg,AMNE08.jpg,AMNE07.jpg,AMSA02.jpg,AMSA02.jpg,MS,2,num_4,16,num_4,0.716842057649,,,2018_Jan_19_1129,60.0097776303,FEMA4ImagesEEG,001,202716,
AFNE01.JPG,AFNE01.JPG,AFNE01.JPG,AFNE01.JPG,AFNE01.JPG,AFNE01.JPG,,,,,,,,,,,,,0,5,5,9,,,,,,,,,,,AMNE19.jpg,AMNE10.jpg,AMSA15.jpg,AMSA05.jpg,AMSA15.jpg,MS,2,num_2,32,num_6,0.833441957366,,,2018_Jan_19_1129,60.0097776303,FEMA4ImagesEEG,001,202716,
AFNE01.JPG,AFNE01.JPG,AFNE01.JPG,AFNE01.JPG,AFNE01.JPG,AFNE01.JPG,,,,,,,,,,,,,0,6,6,3,,,,,,,,,,,AMSA01.jpg,AMNE20.jpg,AMSA11.jpg,AMNE05.jpg,AMNE05.jpg,MN,1,num_4,32,num_8,0.616776627023,,,2018_Jan_19_1129,60.0097776303,FEMA4ImagesEEG,001,202716,
AFNE01.JPG,AFNE01.JPG,AFNE01.JPG,AFNE01.JPG,AFNE01.JPG,AFNE01.JPG,,,,,,,,,,,,,0,7,7,2,,,,,,,,,,,AMSA15.jpg,AMNE01.jpg,AMNE18.jpg,AMSA08.jpg,AMSA15.jpg,MS,2,num_8,16,num_8,0.800103599206,,,2018_Jan_19_1129,60.0097776303,FEMA4ImagesEEG,001,202716,
AFNE01.JPG,AFNE01.JPG,AFNE01.JPG,AFNE01.JPG,AFNE01.JPG,AFNE01.JPG,,,,,,,,,,,,,0,8,8,8,,,,,,,,,,,AMNE15.jpg,AMSA01.jpg,AMNE18.jpg,AMSA06.jpg,AMNE18.jpg,MN,1,num_2,16,num_2,0.900153955445,,,2018_Jan_19_1129,60.0097776303,FEMA4ImagesEEG,001,202716,
AFNE01.JPG,AFNE01.JPG,AFNE01.JPG,AFNE01.JPG,AFNE01.JPG,AFNE01.JPG,,,,,,,,,,,,,0,9,9,0,,,,,,,,,,,AMSA14.jpg,AMSA20.jpg,AMNE18.jpg,AMNE04.jpg,AMSA14.jpg,MS,2,num_8,32,num_4,0.883428325877,,,2018_Jan_19_1129,60.0097776303,FEMA4ImagesEEG,001,202716,
AFNE01.JPG,AFNE01.JPG,AFNE01.JPG,AFNE01.JPG,AFNE01.JPG,AFNE01.JPG,,,,,,,,,,,,,1,0,10,6,,,,,,,,,,,AMNE05.jpg,AMSA01.jpg,AMNE06.jpg,AMSA17.jpg,AMNE05.jpg,MN,1,num_8,16,num_8,1.26684735017,,,2018_Jan_19_1129,60.0097776303,FEMA4ImagesEEG,001,202716,
AFNE01.JPG,AFNE01.JPG,AFNE01.JPG,AFNE01.JPG,AFNE01.JPG,AFNE01.JPG,,,,,,,,,,,,,1,1,11,0,,,,,,,,,,,AMNE10.jpg,AMSA09.jpg,AMNE16.jpg,AMSA07.jpg,AMSA07.jpg,MS,2,num_4,32,num_2,1.28343923111,,,2018_Jan_19_1129,60.0097776303,FEMA4ImagesEEG,001,202716,
AFNE01.JPG,AFNE01.JPG,AFNE01.JPG,AFNE01.JPG,AFNE01.JPG,AFNE01.JPG,,,,,,,,,,,,,1,2,12,5,,,,,,,,,,,AMSA04.jpg,AMNE01.jpg,AMNE13.jpg,AMSA18.jpg,AMNE01.jpg,MN,1,num_6,16,num_6,0.716781117022,,,2018_Jan_19_1129,60.0097776303,FEMA4ImagesEEG,001,202716,
AFNE01.JPG,AFNE01.JPG,AFNE01.JPG,AFNE01.JPG,AFNE01.JPG,AFNE01.JPG,,,,,,,,,,,,,1,3,13,9,,,,,,,,,,,AMSA07.jpg,AMNE03.jpg,AMNE07.jpg,AMSA13.jpg,AMSA13.jpg,MS,2,num_4,16,num_4,0.916720176581,,,2018_Jan_19_1129,60.0097776303,FEMA4ImagesEEG,001,202716,
AFNE01.JPG,AFNE01.JPG,AFNE01.JPG,AFNE01.JPG,AFNE01.JPG,AFNE01.JPG,,,,,,,,,,,,,1,4,14,4,,,,,,,,,,,AMSA03.jpg,AMNE03.jpg,AMNE08.jpg,AMSA11.jpg,AMNE03.jpg,MN,1,num_6,32,num_4,0.733519896865,,,2018_Jan_19_1129,60.0097776303,FEMA4ImagesEEG,001,202716,
AFNE01.JPG,AFNE01.JPG,AFNE01.JPG,AFNE01.JPG,AFNE01.JPG,AFNE01.JPG,,,,,,,,,,,,,1,5,15,8,,,,,,,,,,,AMSA12.jpg,AMSA04.jpg,AMNE07.jpg,AMNE04.jpg,AMNE07.jpg,MN,1,num_2,32,num_8,0.616809663363,,,2018_Jan_19_1129,60.0097776303,FEMA4ImagesEEG,001,202716,
AFNE01.JPG,AFNE01.JPG,AFNE01.JPG,AFNE01.JPG,AFNE01.JPG,AFNE01.JPG,,,,,,,,,,,,,1,6,16,1,,,,,,,,,,,AMNE08.jpg,AMSA07.jpg,AMSA04.jpg,AMNE14.jpg,AMNE14.jpg,MN,1,num_4,16,num_4,0.733501615003,,,2018_Jan_19_1129,60.0097776303,FEMA4ImagesEEG,001,202716,
AFNE01.JPG,AFNE01.JPG,AFNE01.JPG,AFNE01.JPG,AFNE01.JPG,AFNE01.JPG,,,,,,,,,,,,,1,7,17,2,,,,,,,,,,,AMSA15.jpg,AMSA10.jpg,AMNE04.jpg,AMNE07.jpg,AMSA10.jpg,MS,2,num_6,32,num_8,1.10016903002,,,2018_Jan_19_1129,60.0097776303,FEMA4ImagesEEG,001,202716,
AFNE01.JPG,AFNE01.JPG,AFNE01.JPG,AFNE01.JPG,AFNE01.JPG,AFNE01.JPG,,,,,,,,,,,,,1,8,18,7,,,,,,,,,,,AMSA15.jpg,AMNE13.jpg,AMNE07.jpg,AMSA03.jpg,AMSA15.jpg,MS,2,num_8,32,num_2,0.883548283018,,,2018_Jan_19_1129,60.0097776303,FEMA4ImagesEEG,001,202716,
AFNE01.JPG,AFNE01.JPG,AFNE01.JPG,AFNE01.JPG,AFNE01.JPG,AFNE01.JPG,,,,,,,,,,,,,1,9,19,3,,,,,,,,,,,AMSA01.jpg,AMSA19.jpg,AMNE06.jpg,AMNE17.jpg,AMSA19.jpg,MS,2,num_6,16,num_6,0.750061100814,,,2018_Jan_19_1129,60.0097776303,FEMA4ImagesEEG,001,202716,
AFNE01.JPG,AFNE01.JPG,AFNE01.JPG,AFNE01.JPG,AFNE01.JPG,AFNE01.JPG,,,,,,,,,,,,,2,0,20,6,,,,,,,,,,,AMSA19.jpg,AMNE06.jpg,AMSA16.jpg,AMNE08.jpg,AMSA19.jpg,MS,2,num_8,32,num_2,0.800129578914,,,2018_Jan_19_1129,60.0097776303,FEMA4ImagesEEG,001,202716,
AFNE01.JPG,AFNE01.JPG,AFNE01.JPG,AFNE01.JPG,AFNE01.JPG,AFNE01.JPG,,,,,,,,,,,,,2,1,21,9,,,,,,,,,,,AMSA03.jpg,AMNE07.jpg,AMNE10.jpg,AMSA16.jpg,AMSA03.jpg,MS,2,num_8,32,num_4,0.78342575999,,,2018_Jan_19_1129,60.0097776303,FEMA4ImagesEEG,001,202716,
AFNE01.JPG,AFNE01.JPG,AFNE01.JPG,AFNE01.JPG,AFNE01.JPG,AFNE01.JPG,,,,,,,,,,,,,2,2,22,5,,,,,,,,,,,AMSA17.jpg,AMNE06.jpg,AMNE18.jpg,AMSA12.jpg,AMSA17.jpg,MS,2,num_8,16,num_8,1.20006703446,,,2018_Jan_19_1129,60.0097776303,FEMA4ImagesEEG,001,202716,
AFNE01.JPG,AFNE01.JPG,AFNE01.JPG,AFNE01.JPG,AFNE01.JPG,AFNE01.JPG,,,,,,,,,,,,,2,3,23,3,,,,,,,,,,,AMSA15.jpg,AMNE12.jpg,AMNE18.jpg,AMSA17.jpg,AMSA17.jpg,MS,2,num_4,16,num_4,0.583514283877,,,2018_Jan_19_1129,60.0097776303,FEMA4ImagesEEG,001,202716,
AFNE01.JPG,AFNE01.JPG,AFNE01.JPG,AFNE01.JPG,AFNE01.JPG,AFNE01.JPG,,,,,,,,,,,,,2,4,24,4,,,,,,,,,,,AMNE19.jpg,AMSA01.jpg,AMSA15.jpg,AMNE08.jpg,AMSA15.jpg,MS,2,num_2,32,num_8,0.649902334437,,,2018_Jan_19_1129,60.0097776303,FEMA4ImagesEEG,001,202716,
AFNE01.JPG,AFNE01.JPG,AFNE01.JPG,AFNE01.JPG,AFNE01.JPG,AFNE01.JPG,,,,,,,,,,,,,2,5,25,0,,,,,,,,,,,AMSA02.jpg,AMNE20.jpg,AMNE11.jpg,AMSA15.jpg,AMNE11.jpg,MN,1,num_2,32,num_4,0.583492153324,,,2018_Jan_19_1129,60.0097776303,FEMA4ImagesEEG,001,202716,
AFNE01.JPG,AFNE01.JPG,AFNE01.JPG,AFNE01.JPG,AFNE01.JPG,AFNE01.JPG,,,,,,,,,,,,,2,6,26,8,,,,,,,,,,,AMNE09.jpg,AMSA12.jpg,AMNE03.jpg,AMSA19.jpg,AMNE03.jpg,MN,1,num_2,32,num_8,0.833471145015,,,2018_Jan_19_1129,60.0097776303,FEMA4ImagesEEG,001,202716,
AFNE01.JPG,AFNE01.JPG,AFNE01.JPG,AFNE01.JPG,AFNE01.JPG,AFNE01.JPG,,,,,,,,,,,,,2,7,27,7,,,,,,,,,,,AMSA09.jpg,AMNE11.jpg,AMSA06.jpg,AMNE12.jpg,AMNE11.jpg,MN,1,num_6,32,num_4,0.716768929269,,,2018_Jan_19_1129,60.0097776303,FEMA4ImagesEEG,001,202716,
AFNE01.JPG,AFNE01.JPG,AFNE01.JPG,AFNE01.JPG,AFNE01.JPG,AFNE01.JPG,,,,,,,,,,,,,2,8,28,2,,,,,,,,,,,AMNE19.jpg,AMNE15.jpg,AMSA01.jpg,AMSA08.jpg,AMSA01.jpg,MS,2,num_2,16,num_2,0.933538179379,,,2018_Jan_19_1129,60.0097776303,FEMA4ImagesEEG,001,202716,
AFNE01.JPG,AFNE01.JPG,AFNE01.JPG,AFNE01.JPG,AFNE01.JPG,AFNE01.JPG,,,,,,,,,,,,,2,9,29,1,,,,,,,,,,,AMSA11.jpg,AMNE17.jpg,AMSA03.jpg,AMNE16.jpg,AMNE16.jpg,MN,1,num_4,32,num_8,0.933526311535,,,2018_Jan_19_1129,60.0097776303,FEMA4ImagesEEG,001,202716,
AFNE01.JPG,AFNE01.JPG,AFNE01.JPG,AFNE01.JPG,AFNE01.JPG,AFNE01.JPG,,,,,,,,,,,,,3,0,30,9,,,,,,,,,,,AMNE03.jpg,AMSA17.jpg,AMSA03.jpg,AMNE07.jpg,AMNE03.jpg,MN,1,num_8,16,num_8,0.900176406838,,,2018_Jan_19_1129,60.0097776303,FEMA4ImagesEEG,001,202716,
AFNE01.JPG,AFNE01.JPG,AFNE01.JPG,AFNE01.JPG,AFNE01.JPG,AFNE01.JPG,,,,,,,,,,,,,3,1,31,2,,,,,,,,,,,AMSA08.jpg,AMNE18.jpg,AMNE03.jpg,AMSA05.jpg,AMNE18.jpg,MN,1,num_6,32,num_4,0.550138720311,,,2018_Jan_19_1129,60.0097776303,FEMA4ImagesEEG,001,202716,
AFNE01.JPG,AFNE01.JPG,AFNE01.JPG,AFNE01.JPG,AFNE01.JPG,AFNE01.JPG,,,,,,,,,,,,,3,2,32,0,,,,,,,,,,,AMNE07.jpg,AMSA08.jpg,AMNE13.jpg,AMSA05.jpg,AMNE13.jpg,MN,1,num_2,32,num_4,0.516847510822,,,2018_Jan_19_1129,60.0097776303,FEMA4ImagesEEG,001,202716,
AFNE01.JPG,AFNE01.JPG,AFNE01.JPG,AFNE01.JPG,AFNE01.JPG,AFNE01.JPG,,,,,,,,,,,,,3,3,33,3,,,,,,,,,,,AMSA06.jpg,AMSA13.jpg,AMNE12.jpg,AMNE15.jpg,AMNE12.jpg,MN,1,num_2,32,num_8,0.600136314519,,,2018_Jan_19_1129,60.0097776303,FEMA4ImagesEEG,001,202716,
AFNE01.JPG,AFNE01.JPG,AFNE01.JPG,AFNE01.JPG,AFNE01.JPG,AFNE01.JPG,,,,,,,,,,,,,3,4,34,7,,,,,,,,,,,AMNE12.jpg,AMSA16.jpg,AMSA18.jpg,AMNE16.jpg,AMSA18.jpg,MS,2,num_2,16,num_2,1.03343874961,,,2018_Jan_19_1129,60.0097776303,FEMA4ImagesEEG,001,202716,
AFNE01.JPG,AFNE01.JPG,AFNE01.JPG,AFNE01.JPG,AFNE01.JPG,AFNE01.JPG,,,,,,,,,,,,,3,5,35,5,,,,,,,,,,,AMSA10.jpg,AMNE13.jpg,AMSA03.jpg,AMNE11.jpg,AMNE11.jpg,MN,1,num_4,32,num_8,0.88345366437,,,2018_Jan_19_1129,60.0097776303,FEMA4ImagesEEG,001,202716,
AFNE01.JPG,AFNE01.JPG,AFNE01.JPG,AFNE01.JPG,AFNE01.JPG,AFNE01.JPG,,,,,,,,,,,,,3,6,36,8,,,,,,,,,,,AMSA02.jpg,AMSA14.jpg,AMNE14.jpg,AMNE17.jpg,AMNE14.jpg,MN,1,num_2,32,num_6,1.10011225892,,,2018_Jan_19_1129,60.0097776303,FEMA4ImagesEEG,001,202716,
AFNE01.JPG,AFNE01.JPG,AFNE01.JPG,AFNE01.JPG,AFNE01.JPG,AFNE01.JPG,,,,,,,,,,,,,3,7,37,1,,,,,,,,,,,AMNE20.jpg,AMSA02.jpg,AMNE05.jpg,AMSA16.jpg,AMSA02.jpg,MS,2,num_6,32,num_4,0.633342527784,,,2018_Jan_19_1129,60.0097776303,FEMA4ImagesEEG,001,202716,
AFNE01.JPG,AFNE01.JPG,AFNE01.JPG,AFNE01.JPG,AFNE01.JPG,AFNE01.JPG,,,,,,,,,,,,,3,8,38,6,,,,,,,,,,,AMNE01.jpg,AMSA02.jpg,AMSA13.jpg,AMNE13.jpg,AMSA02.jpg,MS,2,num_6,16,num_6,0.86675369367,,,2018_Jan_19_1129,60.0097776303,FEMA4ImagesEEG,001,202716,
AFNE01.JPG,AFNE01.JPG,AFNE01.JPG,AFNE01.JPG,AFNE01.JPG,AFNE01.JPG,,,,,,,,,,,,,3,9,39,4,,,,,,,,,,,AMNE01.jpg,AMSA17.jpg,AMNE07.jpg,AMSA09.jpg,AMNE01.jpg,MN,1,num_8,16,num_8,1.08334814059,,,2018_Jan_19_1129,60.0097776303,FEMA4ImagesEEG,001,202716,
AFNE01.JPG,AFNE01.JPG,AFNE01.JPG,AFNE01.JPG,AFNE01.JPG,AFNE01.JPG,,,,,,,,,,,,,4,0,40,2,,,,,,,,,,,AMSA06.jpg,AMNE07.jpg,AMNE11.jpg,AMSA20.jpg,AMSA06.jpg,MS,2,num_8,32,num_6,0.70013182424,,,2018_Jan_19_1129,60.0097776303,FEMA4ImagesEEG,001,202716,
AFNE01.JPG,AFNE01.JPG,AFNE01.JPG,AFNE01.JPG,AFNE01.JPG,AFNE01.JPG,,,,,,,,,,,,,4,1,41,8,,,,,,,,,,,AMSA18.jpg,AMNE19.jpg,AMSA17.jpg,AMNE04.jpg,AMSA17.jpg,MS,2,num_2,32,num_6,0.683439551853,,,2018_Jan_19_1129,60.0097776303,FEMA4ImagesEEG,001,202716,
AFNE01.JPG,AFNE01.JPG,AFNE01.JPG,AFNE01.JPG,AFNE01.JPG,AFNE01.JPG,,,,,,,,,,,,,4,2,42,4,,,,,,,,,,,AMSA11.jpg,AMSA04.jpg,AMNE03.jpg,AMNE04.jpg,AMNE04.jpg,MN,1,num_4,32,num_6,0.866778390948,,,2018_Jan_19_1129,60.0097776303,FEMA4ImagesEEG,001,202716,
AFNE01.JPG,AFNE01.JPG,AFNE01.JPG,AFNE01.JPG,AFNE01.JPG,AFNE01.JPG,,,,,,,,,,,,,4,3,43,7,,,,,,,,,,,AMNE07.jpg,AMSA20.jpg,AMNE10.jpg,AMSA01.jpg,AMSA20.jpg,MS,2,num_6,32,num_8,1.35011209873,,,2018_Jan_19_1129,60.0097776303,FEMA4ImagesEEG,001,202716,
AFNE01.JPG,AFNE01.JPG,AFNE01.JPG,AFNE01.JPG,AFNE01.JPG,AFNE01.JPG,,,,,,,,,,,,,4,4,44,1,,,,,,,,,,,AMSA11.jpg,AMNE12.jpg,AMSA06.jpg,AMNE09.jpg,AMSA11.jpg,MS,2,num_8,16,num_8,1.01676187292,,,2018_Jan_19_1129,60.0097776303,FEMA4ImagesEEG,001,202716,
AFNE01.JPG,AFNE01.JPG,AFNE01.JPG,AFNE01.JPG,AFNE01.JPG,AFNE01.JPG,,,,,,,,,,,,,4,5,45,5,,,,,,,,,,,AMNE07.jpg,AMSA17.jpg,AMSA07.jpg,AMNE17.jpg,AMNE17.jpg,MN,1,num_4,32,num_6,0.516785607673,,,2018_Jan_19_1129,60.0097776303,FEMA4ImagesEEG,001,202716,
AFNE01.JPG,AFNE01.JPG,AFNE01.JPG,AFNE01.JPG,AFNE01.JPG,AFNE01.JPG,,,,,,,,,,,,,4,6,46,0,,,,,,,,,,,AMNE02.jpg,AMNE07.jpg,AMSA01.jpg,AMSA19.jpg,AMSA19.jpg,MS,2,num_4,16,num_4,0.53336113086,,,2018_Jan_19_1129,60.0097776303,FEMA4ImagesEEG,001,202716,
AFNE01.JPG,AFNE01.JPG,AFNE01.JPG,AFNE01.JPG,AFNE01.JPG,AFNE01.JPG,,,,,,,,,,,,,4,7,47,9,,,,,,,,,,,AMSA15.jpg,AMNE04.jpg,AMNE18.jpg,AMSA11.jpg,AMNE18.jpg,MN,1,num_2,32,num_8,0.766806295607,,,2018_Jan_19_1129,60.0097776303,FEMA4ImagesEEG,001,202716,
AFNE01.JPG,AFNE01.JPG,AFNE01.JPG,AFNE01.JPG,AFNE01.JPG,AFNE01.JPG,,,,,,,,,,,,,4,8,48,6,,,,,,,,,,,AMNE03.jpg,AMSA12.jpg,AMSA05.jpg,AMNE17.jpg,AMNE03.jpg,MN,1,num_8,16,num_8,0.866781277582,,,2018_Jan_19_1129,60.0097776303,FEMA4ImagesEEG,001,202716,
AFNE01.JPG,AFNE01.JPG,AFNE01.JPG,AFNE01.JPG,AFNE01.JPG,AFNE01.JPG,,,,,,,,,,,,,4,9,49,3,,,,,,,,,,,AMSA16.jpg,AMNE04.jpg,AMNE01.jpg,AMSA12.jpg,AMSA16.jpg,MS,2,num_8,32,num_4,0.850183944218,,,2018_Jan_19_1129,60.0097776303,FEMA4ImagesEEG,001,202716,
AFNE01.JPG,AFNE01.JPG,AFNE01.JPG,AFNE01.JPG,AFNE01.JPG,AFNE01.JPG,,,,,,,,,,,,,5,0,50,0,,,,,,,,,,,AMNE04.jpg,AMSA01.jpg,AMNE09.jpg,AMSA16.jpg,AMSA16.jpg,MS,2,num_4,16,num_4,0.750180416275,,,2018_Jan_19_1129,60.0097776303,FEMA4ImagesEEG,001,202716,
AFNE01.JPG,AFNE01.JPG,AFNE01.JPG,AFNE01.JPG,AFNE01.JPG,AFNE01.JPG,,,,,,,,,,,,,5,1,51,2,,,,,,,,,,,AMSA06.jpg,AMNE03.jpg,AMNE14.jpg,AMSA08.jpg,AMNE14.jpg,MN,1,num_2,16,num_2,1.13351444481,,,2018_Jan_19_1129,60.0097776303,FEMA4ImagesEEG,001,202716,
AFNE01.JPG,AFNE01.JPG,AFNE01.JPG,AFNE01.JPG,AFNE01.JPG,AFNE01.JPG,,,,,,,,,,,,,5,2,52,6,,,,,,,,,,,AMSA06.jpg,AMSA19.jpg,AMNE14.jpg,AMNE20.jpg,AMNE20.jpg,MN,1,num_4,32,num_8,0.566833878867,,,2018_Jan_19_1129,60.0097776303,FEMA4ImagesEEG,001,202716,
AFNE01.JPG,AFNE01.JPG,AFNE01.JPG,AFNE01.JPG,AFNE01.JPG,AFNE01.JPG,,,,,,,,,,,,,5,3,53,4,,,,,,,,,,,AMNE12.jpg,AMNE07.jpg,AMSA19.jpg,AMSA15.jpg,AMSA15.jpg,MS,2,num_4,16,num_4,0.683507548645,,,2018_Jan_19_1129,60.0097776303,FEMA4ImagesEEG,001,202716,
AFNE01.JPG,AFNE01.JPG,AFNE01.JPG,AFNE01.JPG,AFNE01.JPG,AFNE01.JPG,,,,,,,,,,,,,5,4,54,7,,,,,,,,,,,AMSA06.jpg,AMNE02.jpg,AMNE17.jpg,AMSA09.jpg,AMNE17.jpg,MN,1,num_2,32,num_8,0.766697243787,,,2018_Jan_19_1129,60.0097776303,FEMA4ImagesEEG,001,202716,
AFNE01.JPG,AFNE01.JPG,AFNE01.JPG,AFNE01.JPG,AFNE01.JPG,AFNE01.JPG,,,,,,,,,,,,,5,5,55,8,,,,,,,,,,,AMSA14.jpg,AMNE15.jpg,AMNE04.jpg,AMSA17.jpg,AMNE15.jpg,MN,1,num_6,32,num_8,0.733478842303,,,2018_Jan_19_1129,60.0097776303,FEMA4ImagesEEG,001,202716,
AFNE01.JPG,AFNE01.JPG,AFNE01.JPG,AFNE01.JPG,AFNE01.JPG,AFNE01.JPG,,,,,,,,,,,,,5,6,56,9,,,,,,,,,,,AMNE11.jpg,AMSA07.jpg,AMSA01.jpg,AMNE16.jpg,AMSA07.jpg,MS,2,num_6,16,num_6,0.900147540495,,,2018_Jan_19_1129,60.0097776303,FEMA4ImagesEEG,001,202716,
AFNE01.JPG,AFNE01.JPG,AFNE01.JPG,AFNE01.JPG,AFNE01.JPG,AFNE01.JPG,,,,,,,,,,,,,5,7,57,1,,,,,,,,,,,AMNE13.jpg,AMSA20.jpg,AMSA13.jpg,AMNE08.jpg,AMNE08.jpg,MN,1,num_4,16,num_4,0.716834360268,,,2018_Jan_19_1129,60.0097776303,FEMA4ImagesEEG,001,202716,
AFNE01.JPG,AFNE01.JPG,AFNE01.JPG,AFNE01.JPG,AFNE01.JPG,AFNE01.JPG,,,,,,,,,,,,,5,8,58,5,,,,,,,,,,,AMNE16.jpg,AMSA03.jpg,AMNE15.jpg,AMSA08.jpg,AMNE15.jpg,MN,1,num_2,32,num_4,0.766671584919,,,2018_Jan_19_1129,60.0097776303,FEMA4ImagesEEG,001,202716,
AFNE01.JPG,AFNE01.JPG,AFNE01.JPG,AFNE01.JPG,AFNE01.JPG,AFNE01.JPG,,,,,,,,,,,,,5,9,59,3,,,,,,,,,,,AMNE02.jpg,AMNE10.jpg,AMSA01.jpg,AMSA18.jpg,AMSA18.jpg,MS,2,num_4,32,num_6,1.00012027752,,,2018_Jan_19_1129,60.0097776303,FEMA4ImagesEEG,001,202716,
,,,,,,,,,,,,,,,,,,,,,,,,,,,,,,,,,,,,,,,,,,,space,16.0325637711,2018_Jan_19_1129,60.0097776303,FEMA4ImagesEEG,001,202716,
AFNE01.JPG,AFNE01.JPG,AFNE01.JPG,AFNE01.JPG,AFNE01.JPG,AFNE01.JPG,,,,,,,,,,,,,,,,,0,0,0,0,,,,,,,AFNE20.jpg,AFSA19.jpg,AFSA03.jpg,AFNE12.jpg,AFNE20.jpg,FN,3,num_8,16,num_8,0.733475314453,,,2018_Jan_19_1129,60.0097776303,FEMA4ImagesEEG,001,202716,
AFNE01.JPG,AFNE01.JPG,AFNE01.JPG,AFNE01.JPG,AFNE01.JPG,AFNE01.JPG,,,,,,,,,,,,,,,,,0,1,1,6,,,,,,,AFSA08.jpg,AFNE02.jpg,AFSA14.jpg,AFNE13.jpg,AFSA14.jpg,FS,4,num_2,32,num_8,0.733424957842,,,2018_Jan_19_1129,60.0097776303,FEMA4ImagesEEG,001,202716,
AFNE01.JPG,AFNE01.JPG,AFNE01.JPG,AFNE01.JPG,AFNE01.JPG,AFNE01.JPG,,,,,,,,,,,,,,,,,0,2,2,1,,,,,,,AFSA14.jpg,AFNE02.jpg,AFNE04.jpg,AFSA07.jpg,AFNE04.jpg,FN,3,num_2,16,num_2,0.533463446889,,,2018_Jan_19_1129,60.0097776303,FEMA4ImagesEEG,001,202716,
AFNE01.JPG,AFNE01.JPG,AFNE01.JPG,AFNE01.JPG,AFNE01.JPG,AFNE01.JPG,,,,,,,,,,,,,,,,,0,3,3,2,,,,,,,AFNE10.jpg,AFSA09.jpg,AFSA05.jpg,AFNE17.jpg,AFNE17.jpg,FN,3,num_4,32,num_6,0.816775664687,,,2018_Jan_19_1129,60.0097776303,FEMA4ImagesEEG,001,202716,
AFNE01.JPG,AFNE01.JPG,AFNE01.JPG,AFNE01.JPG,AFNE01.JPG,AFNE01.JPG,,,,,,,,,,,,,,,,,0,4,4,7,,,,,,,AFSA06.jpg,AFSA07.jpg,AFNE12.jpg,AFNE11.jpg,AFNE11.jpg,FN,3,num_4,16,num_4,0.566800201312,,,2018_Jan_19_1129,60.0097776303,FEMA4ImagesEEG,001,202716,
AFNE01.JPG,AFNE01.JPG,AFNE01.JPG,AFNE01.JPG,AFNE01.JPG,AFNE01.JPG,,,,,,,,,,,,,,,,,0,5,5,5,,,,,,,AFNE14.jpg,AFSA10.jpg,AFSA20.jpg,AFNE16.jpg,AFSA10.jpg,FS,4,num_6,32,num_4,0.7167859287,,,2018_Jan_19_1129,60.0097776303,FEMA4ImagesEEG,001,202716,
AFNE01.JPG,AFNE01.JPG,AFNE01.JPG,AFNE01.JPG,AFNE01.JPG,AFNE01.JPG,,,,,,,,,,,,,,,,,0,6,6,9,,,,,,,AFSA05.jpg,AFSA15.jpg,AFNE02.jpg,AFNE07.jpg,AFSA15.jpg,FS,4,num_6,32,num_8,0.700134069659,,,2018_Jan_19_1129,60.0097776303,FEMA4ImagesEEG,001,202716,
AFNE01.JPG,AFNE01.JPG,AFNE01.JPG,AFNE01.JPG,AFNE01.JPG,AFNE01.JPG,,,,,,,,,,,,,,,,,0,7,7,8,,,,,,,AFNE14.jpg,AFSA12.jpg,AFSA06.jpg,AFNE17.jpg,AFNE17.jpg,FN,3,num_4,16,num_4,0.533501935657,,,2018_Jan_19_1129,60.0097776303,FEMA4ImagesEEG,001,202716,
AFNE01.JPG,AFNE01.JPG,AFNE01.JPG,AFNE01.JPG,AFNE01.JPG,AFNE01.JPG,,,,,,,,,,,,,,,,,0,8,8,4,,,,,,,AFSA02.jpg,AFNE20.jpg,AFSA03.jpg,AFNE09.jpg,AFSA02.jpg,FS,4,num_8,16,num_8,0.650224678218,,,2018_Jan_19_1129,60.0097776303,FEMA4ImagesEEG,001,202716,
AFNE01.JPG,AFNE01.JPG,AFNE01.JPG,AFNE01.JPG,AFNE01.JPG,AFNE01.JPG,,,,,,,,,,,,,,,,,0,9,9,3,,,,,,,AFSA20.jpg,AFNE03.jpg,AFNE09.jpg,AFSA09.jpg,AFNE09.jpg,FN,3,num_2,32,num_8,0.833458315115,,,2018_Jan_19_1129,60.0097776303,FEMA4ImagesEEG,001,202716,
AFNE01.JPG,AFNE01.JPG,AFNE01.JPG,AFNE01.JPG,AFNE01.JPG,AFNE01.JPG,,,,,,,,,,,,,,,,,1,0,10,3,,,,,,,AFSA01.jpg,AFNE07.jpg,AFSA19.jpg,AFNE10.jpg,AFNE07.jpg,FN,3,num_6,16,num_6,0.733471786138,,,2018_Jan_19_1129,60.0097776303,FEMA4ImagesEEG,001,202716,
AFNE01.JPG,AFNE01.JPG,AFNE01.JPG,AFNE01.JPG,AFNE01.JPG,AFNE01.JPG,,,,,,,,,,,,,,,,,1,1,11,1,,,,,,,AFNE11.jpg,AFSA03.jpg,AFSA01.jpg,AFNE20.jpg,AFSA01.jpg,FS,4,num_2,32,num_4,0.800165181048,,,2018_Jan_19_1129,60.0097776303,FEMA4ImagesEEG,001,202716,
AFNE01.JPG,AFNE01.JPG,AFNE01.JPG,AFNE01.JPG,AFNE01.JPG,AFNE01.JPG,,,,,,,,,,,,,,,,,1,2,12,0,,,,,,,AFNE15.jpg,AFNE03.jpg,AFSA16.jpg,AFSA15.jpg,AFSA16.jpg,FS,4,num_2,32,num_4,0.68340811925,,,2018_Jan_19_1129,60.0097776303,FEMA4ImagesEEG,001,202716,
AFNE01.JPG,AFNE01.JPG,AFNE01.JPG,AFNE01.JPG,AFNE01.JPG,AFNE01.JPG,,,,,,,,,,,,,,,,,1,3,13,9,,,,,,,AFSA08.jpg,AFSA04.jpg,AFNE13.jpg,AFNE09.jpg,AFSA08.jpg,FS,4,num_8,16,num_8,0.916774381883,,,2018_Jan_19_1129,60.0097776303,FEMA4ImagesEEG,001,202716,
AFNE01.JPG,AFNE01.JPG,AFNE01.JPG,AFNE01.JPG,AFNE01.JPG,AFNE01.JPG,,,,,,,,,,,,,,,,,1,4,14,2,,,,,,,AFNE01.jpg,AFNE14.jpg,AFSA10.jpg,AFSA20.jpg,AFNE01.jpg,FN,3,num_8,32,num_6,0.600136955734,,,2018_Jan_19_1129,60.0097776303,FEMA4ImagesEEG,001,202716,
AFNE01.JPG,AFNE01.JPG,AFNE01.JPG,AFNE01.JPG,AFNE01.JPG,AFNE01.JPG,,,,,,,,,,,,,,,,,1,5,15,7,,,,,,,AFNE13.jpg,AFSA02.jpg,AFNE09.jpg,AFSA19.jpg,AFSA02.jpg,FS,4,num_6,32,num_8,0.96676780656,,,2018_Jan_19_1129,60.0097776303,FEMA4ImagesEEG,001,202716,
AFNE01.JPG,AFNE01.JPG,AFNE01.JPG,AFNE01.JPG,AFNE01.JPG,AFNE01.JPG,,,,,,,,,,,,,,,,,1,6,16,8,,,,,,,AFSA07.jpg,AFNE20.jpg,AFSA18.jpg,AFNE13.jpg,AFSA07.jpg,FS,4,num_8,16,num_8,0.5335336891,,,2018_Jan_19_1129,60.0097776303,FEMA4ImagesEEG,001,202716,
AFNE01.JPG,AFNE01.JPG,AFNE01.JPG,AFNE01.JPG,AFNE01.JPG,AFNE01.JPG,,,,,,,,,,,,,,,,,1,7,17,4,,,,,,,AFNE06.jpg,AFSA17.jpg,AFNE10.jpg,AFSA12.jpg,AFSA17.jpg,FS,4,num_6,16,num_6,0.783144791611,,,2018_Jan_19_1129,60.0097776303,FEMA4ImagesEEG,001,202716,
AFNE01.JPG,AFNE01.JPG,AFNE01.JPG,AFNE01.JPG,AFNE01.JPG,AFNE01.JPG,,,,,,,,,,,,,,,,,1,8,18,5,,,,,,,AFNE02.jpg,AFSA07.jpg,AFSA03.jpg,AFNE12.jpg,AFSA07.jpg,FS,4,num_6,32,num_8,0.716853284277,,,2018_Jan_19_1129,60.0097776303,FEMA4ImagesEEG,001,202716,
AFNE01.JPG,AFNE01.JPG,AFNE01.JPG,AFNE01.JPG,AFNE01.JPG,AFNE01.JPG,,,,,,,,,,,,,,,,,1,9,19,6,,,,,,,AFNE18.jpg,AFNE07.jpg,AFSA05.jpg,AFSA07.jpg,AFSA07.jpg,FS,4,num_4,32,num_8,0.983477398753,,,2018_Jan_19_1129,60.0097776303,FEMA4ImagesEEG,001,202716,
AFNE01.JPG,AFNE01.JPG,AFNE01.JPG,AFNE01.JPG,AFNE01.JPG,AFNE01.JPG,,,,,,,,,,,,,,,,,2,0,20,3,,,,,,,AFNE03.jpg,AFNE11.jpg,AFSA19.jpg,AFSA03.jpg,AFSA03.jpg,FS,4,num_4,32,num_6,0.683484455571,,,2018_Jan_19_1129,60.0097776303,FEMA4ImagesEEG,001,202716,
AFNE01.JPG,AFNE01.JPG,AFNE01.JPG,AFNE01.JPG,AFNE01.JPG,AFNE01.JPG,,,,,,,,,,,,,,,,,2,1,21,6,,,,,,,AFNE03.jpg,AFSA20.jpg,AFSA14.jpg,AFNE16.jpg,AFSA14.jpg,FS,4,num_2,32,num_8,0.600147540215,,,2018_Jan_19_1129,60.0097776303,FEMA4ImagesEEG,001,202716,
AFNE01.JPG,AFNE01.JPG,AFNE01.JPG,AFNE01.JPG,AFNE01.JPG,AFNE01.JPG,,,,,,,,,,,,,,,,,2,2,22,1,,,,,,,AFNE19.jpg,AFSA07.jpg,AFSA04.jpg,AFNE13.jpg,AFNE19.jpg,FN,3,num_8,16,num_8,0.700247932225,,,2018_Jan_19_1129,60.0097776303,FEMA4ImagesEEG,001,202716,
AFNE01.JPG,AFNE01.JPG,AFNE01.JPG,AFNE01.JPG,AFNE01.JPG,AFNE01.JPG,,,,,,,,,,,,,,,,,2,3,23,8,,,,,,,AFNE19.jpg,AFSA19.jpg,AFNE16.jpg,AFSA13.jpg,AFSA13.jpg,FS,4,num_4,32,num_8,0.516796833836,,,2018_Jan_19_1129,60.0097776303,FEMA4ImagesEEG,001,202716,
AFNE01.JPG,AFNE01.JPG,AFNE01.JPG,AFNE01.JPG,AFNE01.JPG,AFNE01.JPG,,,,,,,,,,,,,,,,,2,4,24,5,,,,,,,AFSA15.jpg,AFNE05.jpg,AFSA20.jpg,AFNE11.jpg,AFNE05.jpg,FN,3,num_6,16,num_6,0.75013422966,,,2018_Jan_19_1129,60.0097776303,FEMA4ImagesEEG,001,202716,
AFNE01.JPG,AFNE01.JPG,AFNE01.JPG,AFNE01.JPG,AFNE01.JPG,AFNE01.JPG,,,,,,,,,,,,,,,,,2,5,25,9,,,,,,,AFSA15.jpg,AFNE05.jpg,AFSA14.jpg,AFNE13.jpg,AFNE13.jpg,FN,3,num_4,32,num_2,1.73340346804,,,2018_Jan_19_1129,60.0097776303,FEMA4ImagesEEG,001,202716,
AFNE01.JPG,AFNE01.JPG,AFNE01.JPG,AFNE01.JPG,AFNE01.JPG,AFNE01.JPG,,,,,,,,,,,,,,,,,2,6,26,0,,,,,,,AFSA10.jpg,AFSA18.jpg,AFNE03.jpg,AFNE18.jpg,AFSA10.jpg,FS,4,num_8,16,num_8,1.11675000563,,,2018_Jan_19_1129,60.0097776303,FEMA4ImagesEEG,001,202716,
AFNE01.JPG,AFNE01.JPG,AFNE01.JPG,AFNE01.JPG,AFNE01.JPG,AFNE01.JPG,,,,,,,,,,,,,,,,,2,7,27,4,,,,,,,AFSA14.jpg,AFSA17.jpg,AFNE04.jpg,AFNE01.jpg,AFSA14.jpg,FS,4,num_8,16,num_8,0.766796994023,,,2018_Jan_19_1129,60.0097776303,FEMA4ImagesEEG,001,202716,
AFNE01.JPG,AFNE01.JPG,AFNE01.JPG,AFNE01.JPG,AFNE01.JPG,AFNE01.JPG,,,,,,,,,,,,,,,,,2,8,28,7,,,,,,,AFNE19.jpg,AFSA06.jpg,AFSA09.jpg,AFNE06.jpg,AFNE06.jpg,FN,3,num_4,32,num_2,0.66675401479,,,2018_Jan_19_1129,60.0097776303,FEMA4ImagesEEG,001,202716,
AFNE01.JPG,AFNE01.JPG,AFNE01.JPG,AFNE01.JPG,AFNE01.JPG,AFNE01.JPG,,,,,,,,,,,,,,,,,2,9,29,2,,,,,,,AFNE06.jpg,AFSA07.jpg,AFSA09.jpg,AFNE08.jpg,AFNE06.jpg,FN,3,num_8,32,num_4,0.833313661162,,,2018_Jan_19_1129,60.0097776303,FEMA4ImagesEEG,001,202716,
AFNE01.JPG,AFNE01.JPG,AFNE01.JPG,AFNE01.JPG,AFNE01.JPG,AFNE01.JPG,,,,,,,,,,,,,,,,,3,0,30,1,,,,,,,AFNE19.jpg,AFNE12.jpg,AFSA07.jpg,AFSA11.jpg,AFNE12.jpg,FN,3,num_6,32,num_8,0.93352214247,,,2018_Jan_19_1129,60.0097776303,FEMA4ImagesEEG,001,202716,
AFNE01.JPG,AFNE01.JPG,AFNE01.JPG,AFNE01.JPG,AFNE01.JPG,AFNE01.JPG,,,,,,,,,,,,,,,,,3,1,31,7,,,,,,,AFNE10.jpg,AFNE06.jpg,AFSA18.jpg,AFSA10.jpg,AFNE10.jpg,FN,3,num_8,16,num_8,0.900238951668,,,2018_Jan_19_1129,60.0097776303,FEMA4ImagesEEG,001,202716,
AFNE01.JPG,AFNE01.JPG,AFNE01.JPG,AFNE01.JPG,AFNE01.JPG,AFNE01.JPG,,,,,,,,,,,,,,,,,3,2,32,9,,,,,,,AFNE14.jpg,AFSA01.jpg,AFNE09.jpg,AFSA13.jpg,AFNE14.jpg,FN,3,num_8,32,num_2,1.10010969313,,,2018_Jan_19_1129,60.0097776303,FEMA4ImagesEEG,001,202716,
AFNE01.JPG,AFNE01.JPG,AFNE01.JPG,AFNE01.JPG,AFNE01.JPG,AFNE01.JPG,,,,,,,,,,,,,,,,,3,3,33,2,,,,,,,AFSA11.jpg,AFNE14.jpg,AFSA14.jpg,AFNE07.jpg,AFSA14.jpg,FS,4,num_2,32,num_8,0.949971614406,,,2018_Jan_19_1129,60.0097776303,FEMA4ImagesEEG,001,202716,
AFNE01.JPG,AFNE01.JPG,AFNE01.JPG,AFNE01.JPG,AFNE01.JPG,AFNE01.JPG,,,,,,,,,,,,,,,,,3,4,34,6,,,,,,,AFNE03.jpg,AFSA04.jpg,AFNE18.jpg,AFSA11.jpg,AFNE18.jpg,FN,3,num_2,16,num_2,1.05008804332,,,2018_Jan_19_1129,60.0097776303,FEMA4ImagesEEG,001,202716,
AFNE01.JPG,AFNE01.JPG,AFNE01.JPG,AFNE01.JPG,AFNE01.JPG,AFNE01.JPG,,,,,,,,,,,,,,,,,3,5,35,8,,,,,,,AFSA09.jpg,AFSA06.jpg,AFNE18.jpg,AFNE05.jpg,AFNE18.jpg,FN,3,num_2,16,num_2,1.78340427019,,,2018_Jan_19_1129,60.0097776303,FEMA4ImagesEEG,001,202716,
AFNE01.JPG,AFNE01.JPG,AFNE01.JPG,AFNE01.JPG,AFNE01.JPG,AFNE01.JPG,,,,,,,,,,,,,,,,,3,6,36,5,,,,,,,AFSA19.jpg,AFNE17.jpg,AFSA05.jpg,AFNE08.jpg,AFSA05.jpg,FS,4,num_2,16,num_2,1.15014192741,,,2018_Jan_19_1129,60.0097776303,FEMA4ImagesEEG,001,202716,
AFNE01.JPG,AFNE01.JPG,AFNE01.JPG,AFNE01.JPG,AFNE01.JPG,AFNE01.JPG,,,,,,,,,,,,,,,,,3,7,37,3,,,,,,,AFSA16.jpg,AFNE09.jpg,AFSA20.jpg,AFNE06.jpg,AFSA16.jpg,FS,4,num_8,16,num_8,1.16674375115,,,2018_Jan_19_1129,60.0097776303,FEMA4ImagesEEG,001,202716,
AFNE01.JPG,AFNE01.JPG,AFNE01.JPG,AFNE01.JPG,AFNE01.JPG,AFNE01.JPG,,,,,,,,,,,,,,,,,3,8,38,0,,,,,,,AFSA15.jpg,AFNE07.jpg,AFNE04.jpg,AFSA02.jpg,AFNE07.jpg,FN,3,num_6,16,num_6,1.1667132806,,,2018_Jan_19_1129,60.0097776303,FEMA4ImagesEEG,001,202716,
AFNE01.JPG,AFNE01.JPG,AFNE01.JPG,AFNE01.JPG,AFNE01.JPG,AFNE01.JPG,,,,,,,,,,,,,,,,,3,9,39,4,,,,,,,AFSA04.jpg,AFNE16.jpg,AFSA01.jpg,AFNE08.jpg,AFNE16.jpg,FN,3,num_6,16,num_6,0.733470824081,,,2018_Jan_19_1129,60.0097776303,FEMA4ImagesEEG,001,202716,
AFNE01.JPG,AFNE01.JPG,AFNE01.JPG,AFNE01.JPG,AFNE01.JPG,AFNE01.JPG,,,,,,,,,,,,,,,,,4,0,40,1,,,,,,,AFNE14.jpg,AFNE17.jpg,AFSA06.jpg,AFSA19.jpg,AFSA19.jpg,FS,4,num_4,32,num_8,0.850128135644,,,2018_Jan_19_1129,60.0097776303,FEMA4ImagesEEG,001,202716,
AFNE01.JPG,AFNE01.JPG,AFNE01.JPG,AFNE01.JPG,AFNE01.JPG,AFNE01.JPG,,,,,,,,,,,,,,,,,4,1,41,5,,,,,,,AFNE17.jpg,AFSA15.jpg,AFNE07.jpg,AFSA11.jpg,AFSA11.jpg,FS,4,num_4,16,num_4,0.816806456074,,,2018_Jan_19_1129,60.0097776303,FEMA4ImagesEEG,001,202716,
AFNE01.JPG,AFNE01.JPG,AFNE01.JPG,AFNE01.JPG,AFNE01.JPG,AFNE01.JPG,,,,,,,,,,,,,,,,,4,2,42,4,,,,,,,AFNE05.jpg,AFSA04.jpg,AFNE16.jpg,AFSA19.jpg,AFNE16.jpg,FN,3,num_2,32,num_6,0.966851199046,,,2018_Jan_19_1129,60.0097776303,FEMA4ImagesEEG,001,202716,
AFNE01.JPG,AFNE01.JPG,AFNE01.JPG,AFNE01.JPG,AFNE01.JPG,AFNE01.JPG,,,,,,,,,,,,,,,,,4,3,43,0,,,,,,,AFSA09.jpg,AFNE14.jpg,AFSA01.jpg,AFNE04.jpg,AFSA09.jpg,FS,4,num_8,32,num_4,0.916753854137,,,2018_Jan_19_1129,60.0097776303,FEMA4ImagesEEG,001,202716,
AFNE01.JPG,AFNE01.JPG,AFNE01.JPG,AFNE01.JPG,AFNE01.JPG,AFNE01.JPG,,,,,,,,,,,,,,,,,4,4,44,9,,,,,,,AFNE06.jpg,AFSA09.jpg,AFNE09.jpg,AFSA20.jpg,AFNE09.jpg,FN,3,num_2,32,num_6,0.816775985528,,,2018_Jan_19_1129,60.0097776303,FEMA4ImagesEEG,001,202716,
AFNE01.JPG,AFNE01.JPG,AFNE01.JPG,AFNE01.JPG,AFNE01.JPG,AFNE01.JPG,,,,,,,,,,,,,,,,,4,5,45,6,,,,,,,AFNE13.jpg,AFNE19.jpg,AFSA16.jpg,AFSA15.jpg,AFNE19.jpg,FN,3,num_6,32,num_8,0.650137116201,,,2018_Jan_19_1129,60.0097776303,FEMA4ImagesEEG,001,202716,
AFNE01.JPG,AFNE01.JPG,AFNE01.JPG,AFNE01.JPG,AFNE01.JPG,AFNE01.JPG,,,,,,,,,,,,,,,,,4,6,46,2,,,,,,,AFSA08.jpg,AFNE15.jpg,AFSA16.jpg,AFNE02.jpg,AFSA16.jpg,FS,4,num_2,32,num_6,0.733481087722,,,2018_Jan_19_1129,60.0097776303,FEMA4ImagesEEG,001,202716,
AFNE01.JPG,AFNE01.JPG,AFNE01.JPG,AFNE01.JPG,AFNE01.JPG,AFNE01.JPG,,,,,,,,,,,,,,,,,4,7,47,3,,,,,,,AFNE12.jpg,AFSA05.jpg,AFSA12.jpg,AFNE07.jpg,AFSA12.jpg,FS,4,num_2,32,num_4,0.650158285629,,,2018_Jan_19_1129,60.0097776303,FEMA4ImagesEEG,001,202716,
AFNE01.JPG,AFNE01.JPG,AFNE01.JPG,AFNE01.JPG,AFNE01.JPG,AFNE01.JPG,,,,,,,,,,,,,,,,,4,8,48,7,,,,,,,AFNE10.jpg,AFSA14.jpg,AFSA12.jpg,AFNE11.jpg,AFSA12.jpg,FS,4,num_2,32,num_8,0.733451579697,,,2018_Jan_19_1129,60.0097776303,FEMA4ImagesEEG,001,202716,
AFNE01.JPG,AFNE01.JPG,AFNE01.JPG,AFNE01.JPG,AFNE01.JPG,AFNE01.JPG,,,,,,,,,,,,,,,,,4,9,49,8,,,,,,,AFNE11.jpg,AFSA06.jpg,AFSA04.jpg,AFNE06.jpg,AFNE11.jpg,FN,3,num_8,32,num_2,0.733441316057,,,2018_Jan_19_1129,60.0097776303,FEMA4ImagesEEG,001,202716,
AFNE01.JPG,AFNE01.JPG,AFNE01.JPG,AFNE01.JPG,AFNE01.JPG,AFNE01.JPG,,,,,,,,,,,,,,,,,5,0,50,4,,,,,,,AFSA20.jpg,AFNE12.jpg,AFNE17.jpg,AFSA18.jpg,AFSA18.jpg,FS,4,num_4,32,num_6,0.783497285098,,,2018_Jan_19_1129,60.0097776303,FEMA4ImagesEEG,001,202716,
AFNE01.JPG,AFNE01.JPG,AFNE01.JPG,AFNE01.JPG,AFNE01.JPG,AFNE01.JPG,,,,,,,,,,,,,,,,,5,1,51,5,,,,,,,AFSA19.jpg,AFNE09.jpg,AFSA13.jpg,AFNE19.jpg,AFNE09.jpg,FN,3,num_6,32,num_4,1.0501412861,,,2018_Jan_19_1129,60.0097776303,FEMA4ImagesEEG,001,202716,
AFNE01.JPG,AFNE01.JPG,AFNE01.JPG,AFNE01.JPG,AFNE01.JPG,AFNE01.JPG,,,,,,,,,,,,,,,,,5,2,52,3,,,,,,,AFSA07.jpg,AFNE16.jpg,AFSA14.jpg,AFNE07.jpg,AFSA07.jpg,FS,4,num_8,32,num_4,0.600180576555,,,2018_Jan_19_1129,60.0097776303,FEMA4ImagesEEG,001,202716,
AFNE01.JPG,AFNE01.JPG,AFNE01.JPG,AFNE01.JPG,AFNE01.JPG,AFNE01.JPG,,,,,,,,,,,,,,,,,5,3,53,7,,,,,,,AFSA02.jpg,AFSA05.jpg,AFNE02.jpg,AFNE08.jpg,AFNE02.jpg,FN,3,num_2,32,num_8,0.90011161752,,,2018_Jan_19_1129,60.0097776303,FEMA4ImagesEEG,001,202716,
AFNE01.JPG,AFNE01.JPG,AFNE01.JPG,AFNE01.JPG,AFNE01.JPG,AFNE01.JPG,,,,,,,,,,,,,,,,,5,4,54,2,,,,,,,AFNE07.jpg,AFNE14.jpg,AFSA14.jpg,AFSA04.jpg,AFSA14.jpg,FS,4,num_2,32,num_6,0.833467295393,,,2018_Jan_19_1129,60.0097776303,FEMA4ImagesEEG,001,202716,
AFNE01.JPG,AFNE01.JPG,AFNE01.JPG,AFNE01.JPG,AFNE01.JPG,AFNE01.JPG,,,,,,,,,,,,,,,,,5,5,55,1,,,,,,,AFNE13.jpg,AFSA17.jpg,AFSA15.jpg,AFNE01.jpg,AFSA15.jpg,FS,4,num_2,32,num_8,0.833544273395,,,2018_Jan_19_1129,60.0097776303,FEMA4ImagesEEG,001,202716,
AFNE01.JPG,AFNE01.JPG,AFNE01.JPG,AFNE01.JPG,AFNE01.JPG,AFNE01.JPG,,,,,,,,,,,,,,,,,5,6,56,6,,,,,,,AFSA07.jpg,AFNE07.jpg,AFSA12.jpg,AFNE16.jpg,AFNE07.jpg,FN,3,num_6,16,num_6,0.883460720535,,,2018_Jan_19_1129,60.0097776303,FEMA4ImagesEEG,001,202716,
AFNE01.JPG,AFNE01.JPG,AFNE01.JPG,AFNE01.JPG,AFNE01.JPG,AFNE01.JPG,,,,,,,,,,,,,,,,,5,7,57,9,,,,,,,AFSA06.jpg,AFNE15.jpg,AFSA03.jpg,AFNE06.jpg,AFSA06.jpg,FS,4,num_8,32,num_6,0.616779192816,,,2018_Jan_19_1129,60.0097776303,FEMA4ImagesEEG,001,202716,
AFNE01.JPG,AFNE01.JPG,AFNE01.JPG,AFNE01.JPG,AFNE01.JPG,AFNE01.JPG,,,,,,,,,,,,,,,,,5,8,58,0,,,,,,,AFNE17.jpg,AFSA05.jpg,AFSA04.jpg,AFNE16.jpg,AFSA04.jpg,FS,4,num_2,16,num_2,1.10008788295,,,2018_Jan_19_1129,60.0097776303,FEMA4ImagesEEG,001,202716,
AFNE01.JPG,AFNE01.JPG,AFNE01.JPG,AFNE01.JPG,AFNE01.JPG,AFNE01.JPG,,,,,,,,,,,,,,,,,5,9,59,8,,,,,,,AFNE06.jpg,AFSA02.jpg,AFNE13.jpg,AFSA01.jpg,AFNE06.jpg,FN,3,num_8,32,num_2,0.900116107892,,,2018_Jan_19_1129,60.0097776303,FEMA4ImagesEEG,001,202716,
,,,,,,,,,,,,,,,,,,,,,,,,,,,,,,,,,,,,,,,,,,,space,14.8820462571,2018_Jan_19_1129,60.0097776303,FEMA4ImagesEEG,001,202716,
AFNE01.JPG,AFNE01.JPG,AFNE01.JPG,AFNE01.JPG,AFNE01.JPG,AFNE01.JPG,,,,,,,,,,,,,,,,,,,,,0,0,0,9,,,AMSA09.jpg,AMNE14.jpg,AMNE02.jpg,AMSA13.jpg,AMSA09.jpg,MS,2,num_8,16,num_8,0.766824898776,,,2018_Jan_19_1129,60.0097776303,FEMA4ImagesEEG,001,202716,
AFNE01.JPG,AFNE01.JPG,AFNE01.JPG,AFNE01.JPG,AFNE01.JPG,AFNE01.JPG,,,,,,,,,,,,,,,,,,,,,0,1,1,8,,,AMNE16.jpg,AMSA09.jpg,AMSA20.jpg,AMNE05.jpg,AMSA09.jpg,MS,2,num_6,32,num_4,0.416853604373,,,2018_Jan_19_1129,60.0097776303,FEMA4ImagesEEG,001,202716,
AFNE01.JPG,AFNE01.JPG,AFNE01.JPG,AFNE01.JPG,AFNE01.JPG,AFNE01.JPG,,,,,,,,,,,,,,,,,,,,,0,2,2,1,,,AMNE02.jpg,AMNE08.jpg,AMSA12.jpg,AMSA11.jpg,AMNE08.jpg,MN,1,num_6,16,num_6,0.466790258419,,,2018_Jan_19_1129,60.0097776303,FEMA4ImagesEEG,001,202716,
AFNE01.JPG,AFNE01.JPG,AFNE01.JPG,AFNE01.JPG,AFNE01.JPG,AFNE01.JPG,,,,,,,,,,,,,,,,,,,,,0,3,3,3,,,AMSA11.jpg,AMNE12.jpg,AMSA18.jpg,AMNE09.jpg,AMSA18.jpg,MS,2,num_2,16,num_2,0.700136314612,,,2018_Jan_19_1129,60.0097776303,FEMA4ImagesEEG,001,202716,
AFNE01.JPG,AFNE01.JPG,AFNE01.JPG,AFNE01.JPG,AFNE01.JPG,AFNE01.JPG,,,,,,,,,,,,,,,,,,,,,0,4,4,7,,,AMSA14.jpg,AMSA04.jpg,AMNE12.jpg,AMNE08.jpg,AMNE12.jpg,MN,1,num_2,32,num_8,0.650148983579,,,2018_Jan_19_1129,60.0097776303,FEMA4ImagesEEG,001,202716,
AFNE01.JPG,AFNE01.JPG,AFNE01.JPG,AFNE01.JPG,AFNE01.JPG,AFNE01.JPG,,,,,,,,,,,,,,,,,,,,,0,5,5,4,,,AMNE06.jpg,AMSA20.jpg,AMNE18.jpg,AMSA01.jpg,AMSA20.jpg,MS,2,num_6,16,num_6,0.483499209397,,,2018_Jan_19_1129,60.0097776303,FEMA4ImagesEEG,001,202716,
AFNE01.JPG,AFNE01.JPG,AFNE01.JPG,AFNE01.JPG,AFNE01.JPG,AFNE01.JPG,,,,,,,,,,,,,,,,,,,,,0,6,6,5,,,AMNE12.jpg,AMSA07.jpg,AMNE17.jpg,AMSA04.jpg,AMSA04.jpg,MS,2,num_4,16,num_4,0.450128135271,,,2018_Jan_19_1129,60.0097776303,FEMA4ImagesEEG,001,202716,
AFNE01.JPG,AFNE01.JPG,AFNE01.JPG,AFNE01.JPG,AFNE01.JPG,AFNE01.JPG,,,,,,,,,,,,,,,,,,,,,0,7,7,6,,,AMSA10.jpg,AMSA09.jpg,AMNE03.jpg,AMNE17.jpg,AMSA10.jpg,MS,2,num_8,16,num_8,0.683516529389,,,2018_Jan_19_1129,60.0097776303,FEMA4ImagesEEG,001,202716,
AFNE01.JPG,AFNE01.JPG,AFNE01.JPG,AFNE01.JPG,AFNE01.JPG,AFNE01.JPG,,,,,,,,,,,,,,,,,,,,,0,8,8,0,,,AMSA19.jpg,AMSA01.jpg,AMNE07.jpg,AMNE06.jpg,AMSA01.jpg,MS,2,num_6,16,num_6,0.433531764895,,,2018_Jan_19_1129,60.0097776303,FEMA4ImagesEEG,001,202716,
AFNE01.JPG,AFNE01.JPG,AFNE01.JPG,AFNE01.JPG,AFNE01.JPG,AFNE01.JPG,,,,,,,,,,,,,,,,,,,,,0,9,9,2,,,AMSA20.jpg,AMNE02.jpg,AMSA15.jpg,AMNE05.jpg,AMSA20.jpg,MS,2,num_8,16,num_8,0.716795550659,,,2018_Jan_19_1129,60.0097776303,FEMA4ImagesEEG,001,202716,
AFNE01.JPG,AFNE01.JPG,AFNE01.JPG,AFNE01.JPG,AFNE01.JPG,AFNE01.JPG,,,,,,,,,,,,,,,,,,,,,1,0,10,4,,,AMNE17.jpg,AMSA15.jpg,AMSA13.jpg,AMNE01.jpg,AMSA15.jpg,MS,2,num_6,16,num_6,0.700179293286,,,2018_Jan_19_1129,60.0097776303,FEMA4ImagesEEG,001,202716,
AFNE01.JPG,AFNE01.JPG,AFNE01.JPG,AFNE01.JPG,AFNE01.JPG,AFNE01.JPG,,,,,,,,,,,,,,,,,,,,,1,1,11,6,,,AMNE15.jpg,AMNE17.jpg,AMSA14.jpg,AMSA17.jpg,AMSA17.jpg,MS,2,num_4,16,num_4,0.600129258353,,,2018_Jan_19_1129,60.0097776303,FEMA4ImagesEEG,001,202716,
AFNE01.JPG,AFNE01.JPG,AFNE01.JPG,AFNE01.JPG,AFNE01.JPG,AFNE01.JPG,,,,,,,,,,,,,,,,,,,,,1,2,12,5,,,AMSA01.jpg,AMNE18.jpg,AMSA19.jpg,AMNE09.jpg,AMSA01.jpg,MS,2,num_8,32,num_2,1.18343217438,,,2018_Jan_19_1129,60.0097776303,FEMA4ImagesEEG,001,202716,
AFNE01.JPG,AFNE01.JPG,AFNE01.JPG,AFNE01.JPG,AFNE01.JPG,AFNE01.JPG,,,,,,,,,,,,,,,,,,,,,1,3,13,9,,,AMNE07.jpg,AMSA11.jpg,AMSA16.jpg,AMNE11.jpg,AMSA11.jpg,MS,2,num_6,32,num_4,0.683452702127,,,2018_Jan_19_1129,60.0097776303,FEMA4ImagesEEG,001,202716,
AFNE01.JPG,AFNE01.JPG,AFNE01.JPG,AFNE01.JPG,AFNE01.JPG,AFNE01.JPG,,,,,,,,,,,,,,,,,,,,,1,4,14,3,,,AMSA11.jpg,AMSA19.jpg,AMNE16.jpg,AMNE12.jpg,AMNE12.jpg,MN,1,num_4,32,num_8,0.700417282525,,,2018_Jan_19_1129,60.0097776303,FEMA4ImagesEEG,001,202716,
AFNE01.JPG,AFNE01.JPG,AFNE01.JPG,AFNE01.JPG,AFNE01.JPG,AFNE01.JPG,,,,,,,,,,,,,,,,,,,,,1,5,15,2,,,AMNE16.jpg,AMSA11.jpg,AMNE07.jpg,AMSA08.jpg,AMSA11.jpg,MS,2,num_6,16,num_6,0.683463927824,,,2018_Jan_19_1129,60.0097776303,FEMA4ImagesEEG,001,202716,
AFNE01.JPG,AFNE01.JPG,AFNE01.JPG,AFNE01.JPG,AFNE01.JPG,AFNE01.JPG,,,,,,,,,,,,,,,,,,,,,1,6,16,1,,,AMNE01.jpg,AMSA10.jpg,AMSA17.jpg,AMNE18.jpg,AMNE18.jpg,MN,1,num_4,16,num_4,0.73343971232,,,2018_Jan_19_1129,60.0097776303,FEMA4ImagesEEG,001,202716,
AFNE01.JPG,AFNE01.JPG,AFNE01.JPG,AFNE01.JPG,AFNE01.JPG,AFNE01.JPG,,,,,,,,,,,,,,,,,,,,,1,7,17,8,,,AMNE06.jpg,AMSA13.jpg,AMSA12.jpg,AMNE05.jpg,AMNE05.jpg,MN,1,num_4,32,num_6,1.11678015487,,,2018_Jan_19_1129,60.0097776303,FEMA4ImagesEEG,001,202716,
AFNE01.JPG,AFNE01.JPG,AFNE01.JPG,AFNE01.JPG,AFNE01.JPG,AFNE01.JPG,,,,,,,,,,,,,,,,,,,,,1,8,18,0,,,AMSA17.jpg,AMSA09.jpg,AMNE04.jpg,AMNE15.jpg,AMNE04.jpg,MN,1,num_2,16,num_2,0.883421269711,,,2018_Jan_19_1129,60.0097776303,FEMA4ImagesEEG,001,202716,
AFNE01.JPG,AFNE01.JPG,AFNE01.JPG,AFNE01.JPG,AFNE01.JPG,AFNE01.JPG,,,,,,,,,,,,,,,,,,,,,1,9,19,7,,,AMSA15.jpg,AMNE15.jpg,AMSA07.jpg,AMNE17.jpg,AMNE15.jpg,MN,1,num_6,32,num_8,0.766832596157,,,2018_Jan_19_1129,60.0097776303,FEMA4ImagesEEG,001,202716,
AFNE01.JPG,AFNE01.JPG,AFNE01.JPG,AFNE01.JPG,AFNE01.JPG,AFNE01.JPG,,,,,,,,,,,,,,,,,,,,,2,0,20,9,,,AMNE07.jpg,AMNE09.jpg,AMSA19.jpg,AMSA02.jpg,AMNE07.jpg,MN,1,num_8,32,num_6,0.666791541502,,,2018_Jan_19_1129,60.0097776303,FEMA4ImagesEEG,001,202716,
AFNE01.JPG,AFNE01.JPG,AFNE01.JPG,AFNE01.JPG,AFNE01.JPG,AFNE01.JPG,,,,,,,,,,,,,,,,,,,,,2,1,21,5,,,AMSA14.jpg,AMSA10.jpg,AMNE10.jpg,AMNE16.jpg,AMSA10.jpg,MS,2,num_6,16,num_6,0.933466974646,,,2018_Jan_19_1129,60.0097776303,FEMA4ImagesEEG,001,202716,
AFNE01.JPG,AFNE01.JPG,AFNE01.JPG,AFNE01.JPG,AFNE01.JPG,AFNE01.JPG,,,,,,,,,,,,,,,,,,,,,2,2,22,6,,,AMSA20.jpg,AMSA17.jpg,AMNE05.jpg,AMNE20.jpg,AMSA20.jpg,MS,2,num_8,16,num_8,0.800112900324,,,2018_Jan_19_1129,60.0097776303,FEMA4ImagesEEG,001,202716,
AFNE01.JPG,AFNE01.JPG,AFNE01.JPG,AFNE01.JPG,AFNE01.JPG,AFNE01.JPG,,,,,,,,,,,,,,,,,,,,,2,3,23,8,,,AMSA17.jpg,AMNE03.jpg,AMSA12.jpg,AMNE17.jpg,AMNE17.jpg,MN,1,num_4,32,num_8,0.750116268639,,,2018_Jan_19_1129,60.0097776303,FEMA4ImagesEEG,001,202716,
AFNE01.JPG,AFNE01.JPG,AFNE01.JPG,AFNE01.JPG,AFNE01.JPG,AFNE01.JPG,,,,,,,,,,,,,,,,,,,,,2,4,24,1,,,AMNE05.jpg,AMSA13.jpg,AMNE04.jpg,AMSA14.jpg,AMSA14.jpg,MS,2,num_4,16,num_4,0.700264289975,,,2018_Jan_19_1129,60.0097776303,FEMA4ImagesEEG,001,202716,
AFNE01.JPG,AFNE01.JPG,AFNE01.JPG,AFNE01.JPG,AFNE01.JPG,AFNE01.JPG,,,,,,,,,,,,,,,,,,,,,2,5,25,0,,,AMNE11.jpg,AMSA19.jpg,AMNE06.jpg,AMSA08.jpg,AMSA08.jpg,MS,2,num_4,16,num_4,0.933793488424,,,2018_Jan_19_1129,60.0097776303,FEMA4ImagesEEG,001,202716,
AFNE01.JPG,AFNE01.JPG,AFNE01.JPG,AFNE01.JPG,AFNE01.JPG,AFNE01.JPG,,,,,,,,,,,,,,,,,,,,,2,6,26,2,,,AMSA13.jpg,AMSA06.jpg,AMNE04.jpg,AMNE16.jpg,AMSA13.jpg,MS,2,num_8,32,num_2,0.383577790577,,,2018_Jan_19_1129,60.0097776303,FEMA4ImagesEEG,001,202716,
AFNE01.JPG,AFNE01.JPG,AFNE01.JPG,AFNE01.JPG,AFNE01.JPG,AFNE01.JPG,,,,,,,,,,,,,,,,,,,,,2,7,27,4,,,AMSA19.jpg,AMSA09.jpg,AMNE03.jpg,AMNE12.jpg,AMSA19.jpg,MS,2,num_8,16,num_8,1.06676716497,,,2018_Jan_19_1129,60.0097776303,FEMA4ImagesEEG,001,202716,
AFNE01.JPG,AFNE01.JPG,AFNE01.JPG,AFNE01.JPG,AFNE01.JPG,AFNE01.JPG,,,,,,,,,,,,,,,,,,,,,2,8,28,3,,,AMSA16.jpg,AMNE09.jpg,AMNE14.jpg,AMSA15.jpg,AMNE09.jpg,MN,1,num_6,16,num_6,1.11683981307,,,2018_Jan_19_1129,60.0097776303,FEMA4ImagesEEG,001,202716,
AFNE01.JPG,AFNE01.JPG,AFNE01.JPG,AFNE01.JPG,AFNE01.JPG,AFNE01.JPG,,,,,,,,,,,,,,,,,,,,,2,9,29,7,,,AMNE02.jpg,AMSA17.jpg,AMSA01.jpg,AMNE04.jpg,AMSA01.jpg,MS,2,num_2,32,num_4,0.917930007912,,,2018_Jan_19_1129,60.0097776303,FEMA4ImagesEEG,001,202716,
AFNE01.JPG,AFNE01.JPG,AFNE01.JPG,AFNE01.JPG,AFNE01.JPG,AFNE01.JPG,,,,,,,,,,,,,,,,,,,,,3,0,30,8,,,AMSA09.jpg,AMNE16.jpg,AMNE02.jpg,AMSA15.jpg,AMNE16.jpg,MN,1,num_6,32,num_8,0.800126050599,,,2018_Jan_19_1129,60.0097776303,FEMA4ImagesEEG,001,202716,
AFNE01.JPG,AFNE01.JPG,AFNE01.JPG,AFNE01.JPG,AFNE01.JPG,AFNE01.JPG,,,,,,,,,,,,,,,,,,,,,3,1,31,9,,,AMNE12.jpg,AMNE16.jpg,AMSA14.jpg,AMSA17.jpg,AMNE16.jpg,MN,1,num_6,16,num_6,1.01672434667,,,2018_Jan_19_1129,60.0097776303,FEMA4ImagesEEG,001,202716,
AFNE01.JPG,AFNE01.JPG,AFNE01.JPG,AFNE01.JPG,AFNE01.JPG,AFNE01.JPG,,,,,,,,,,,,,,,,,,,,,3,2,32,6,,,AMNE06.jpg,AMSA04.jpg,AMNE12.jpg,AMSA09.jpg,AMNE12.jpg,MN,1,num_2,32,num_8,0.883575866465,,,2018_Jan_19_1129,60.0097776303,FEMA4ImagesEEG,001,202716,
AFNE01.JPG,AFNE01.JPG,AFNE01.JPG,AFNE01.JPG,AFNE01.JPG,AFNE01.JPG,,,,,,,,,,,,,,,,,,,,,3,3,33,5,,,AMNE09.jpg,AMSA14.jpg,AMSA05.jpg,AMNE04.jpg,AMNE09.jpg,MN,1,num_8,32,num_4,0.533493917435,,,2018_Jan_19_1129,60.0097776303,FEMA4ImagesEEG,001,202716,
AFNE01.JPG,AFNE01.JPG,AFNE01.JPG,AFNE01.JPG,AFNE01.JPG,AFNE01.JPG,,,,,,,,,,,,,,,,,,,,,3,4,34,1,,,AMSA11.jpg,AMSA05.jpg,AMNE09.jpg,AMNE20.jpg,AMNE09.jpg,MN,1,num_2,32,num_8,0.750146417879,,,2018_Jan_19_1129,60.0097776303,FEMA4ImagesEEG,001,202716,
AFNE01.JPG,AFNE01.JPG,AFNE01.JPG,AFNE01.JPG,AFNE01.JPG,AFNE01.JPG,,,,,,,,,,,,,,,,,,,,,3,5,35,0,,,AMSA01.jpg,AMSA09.jpg,AMNE16.jpg,AMNE02.jpg,AMNE16.jpg,MN,1,num_2,32,num_6,0.750102155842,,,2018_Jan_19_1129,60.0097776303,FEMA4ImagesEEG,001,202716,
AFNE01.JPG,AFNE01.JPG,AFNE01.JPG,AFNE01.JPG,AFNE01.JPG,AFNE01.JPG,,,,,,,,,,,,,,,,,,,,,3,6,36,3,,,AMNE16.jpg,AMSA17.jpg,AMNE12.jpg,AMSA07.jpg,AMNE16.jpg,MN,1,num_8,32,num_2,1.38343025045,,,2018_Jan_19_1129,60.0097776303,FEMA4ImagesEEG,001,202716,
AFNE01.JPG,AFNE01.JPG,AFNE01.JPG,AFNE01.JPG,AFNE01.JPG,AFNE01.JPG,,,,,,,,,,,,,,,,,,,,,3,7,37,2,,,AMNE07.jpg,AMSA15.jpg,AMSA03.jpg,AMNE14.jpg,AMSA03.jpg,MS,2,num_2,32,num_4,0.86701509729,,,2018_Jan_19_1129,60.0097776303,FEMA4ImagesEEG,001,202716,
AFNE01.JPG,AFNE01.JPG,AFNE01.JPG,AFNE01.JPG,AFNE01.JPG,AFNE01.JPG,,,,,,,,,,,,,,,,,,,,,3,8,38,7,,,AMNE03.jpg,AMSA01.jpg,AMNE15.jpg,AMSA02.jpg,AMSA02.jpg,MS,2,num_4,16,num_4,0.766860500909,,,2018_Jan_19_1129,60.0097776303,FEMA4ImagesEEG,001,202716,
