IPosition2,IPosition3,IPosition1,IPosition6,IPosition4,IPosition5,TrialsM1.thisRepN,TrialsM1.thisTrialN,TrialsM1.thisN,TrialsM1.thisIndex,TrialsF1.thisRepN,TrialsF1.thisTrialN,TrialsF1.thisN,TrialsF1.thisIndex,TrialsM2.thisRepN,TrialsM2.thisTrialN,TrialsM2.thisN,TrialsM2.thisIndex,TrialsF2.thisRepN,TrialsF2.thisTrialN,TrialsF2.thisN,TrialsF2.thisIndex,TrialsM3.thisRepN,TrialsM3.thisTrialN,TrialsM3.thisN,TrialsM3.thisIndex,TrialsF3.thisRepN,TrialsF3.thisTrialN,TrialsF3.thisN,TrialsF3.thisIndex,InstrKey_resp.keys,InstrKey_resp.rt,Image0 _Position,Image1 _Position,Image2 _Position,Image3 _Position,Center_image,condition,code,correct_answer,accuracy,Key_Resp.keys,Key_Resp.rt,BreakKey_resp.keys,BreakKey_resp.rt,date,frameRate,expName,session,participant,
,,,,,,,,,,,,,,,,,,,,,,,,,,,,,,space,5.24990690534,,,,,,,,,,,,,,2018_Jan_30_1843,59.9966324381,MAFE4ImagesEEG,001,202779,
AFSA21.JPG,AFNE23.JPG,AFNE21.JPG,AFSA25.JPG,AFNE25.JPG,AFSA23.JPG,0,0,0,4,,,,,,,,,,,,,,,,,,,,,,,AMNE02.jpg,AMSA17.jpg,AMNE04.jpg,AMSA18.jpg,AMNE04.jpg,MN,1,num_2,32,num_8,0.716862258851,,,2018_Jan_30_1843,59.9966324381,MAFE4ImagesEEG,001,202779,
AFSA25.JPG,AFNE24.JPG,AFSA24.JPG,AFNE21.JPG,AFSA21.JPG,AFNE25.JPG,0,1,1,2,,,,,,,,,,,,,,,,,,,,,,,AMNE09.jpg,AMSA10.jpg,AMNE19.jpg,AMSA17.jpg,AMSA10.jpg,MS,2,num_6,32,num_2,0.71704026917,,,2018_Jan_30_1843,59.9966324381,MAFE4ImagesEEG,001,202779,
AMSA25.JPG,AMNE24.JPG,AMSA24.JPG,AMNE26.JPG,AMSA21.JPG,AMNE25.JPG,0,2,2,3,,,,,,,,,,,,,,,,,,,,,,,AMNE10.jpg,AMSA20.jpg,AMSA05.jpg,AMNE09.jpg,AMNE10.jpg,MN,1,num_8,32,num_6,0.666769517004,,,2018_Jan_30_1843,59.9966324381,MAFE4ImagesEEG,001,202779,
AFNE23.JPG,AFNE24.JPG,AFNE22.JPG,AFSA24.JPG,AFSA22.JPG,AFSA23.JPG,0,3,3,8,,,,,,,,,,,,,,,,,,,,,,,AMSA02.jpg,AMSA04.jpg,AMNE05.jpg,AMNE11.jpg,AMSA02.jpg,MS,2,num_8,16,num_8,0.583551462856,,,2018_Jan_30_1843,59.9966324381,MAFE4ImagesEEG,001,202779,
AMNE23.JPG,AMNE24.JPG,AMNE22.JPG,AMSA24.JPG,AMSA22.JPG,AMSA23.JPG,0,4,4,9,,,,,,,,,,,,,,,,,,,,,,,AMNE12.jpg,AMSA01.jpg,AMSA04.jpg,AMNE02.jpg,AMNE12.jpg,MN,1,num_8,32,num_2,0.283503704704,,,2018_Jan_30_1843,59.9966324381,MAFE4ImagesEEG,001,202779,
AMSA21.JPG,AMNE23.JPG,AMNE21.JPG,AMSA25.JPG,AMNE25.JPG,AMSA23.JPG,0,5,5,5,,,,,,,,,,,,,,,,,,,,,,,AMNE18.jpg,AMSA14.jpg,AMNE19.jpg,AMSA12.jpg,AMNE19.jpg,MN,1,num_2,32,num_8,0.833474084386,,,2018_Jan_30_1843,59.9966324381,MAFE4ImagesEEG,001,202779,
AFNE22.JPG,AFSA24.JPG,AFSA22.JPG,AFNE25.JPG,AFNE24.JPG,AFSA25.JPG,0,6,6,6,,,,,,,,,,,,,,,,,,,,,,,AMNE15.jpg,AMSA09.jpg,AMNE20.jpg,AMSA10.jpg,AMSA09.jpg,MS,2,num_6,32,num_2,1.13346122275,,,2018_Jan_30_1843,59.9966324381,MAFE4ImagesEEG,001,202779,
AMNE22.JPG,AMSA24.JPG,AMSA22.JPG,AMNE25.JPG,AMNE24.JPG,AMSA25.JPG,0,7,7,7,,,,,,,,,,,,,,,,,,,,,,,AMSA19.jpg,AMNE05.jpg,AMSA08.jpg,AMNE01.jpg,AMSA08.jpg,MS,2,num_2,32,num_6,0.883470925153,,,2018_Jan_30_1843,59.9966324381,MAFE4ImagesEEG,001,202779,
AFSA21.JPG,AFNE22.JPG,AFNE21.JPG,AFSA23.JPG,AFSA22.JPG,AFNE23.JPG,0,8,8,0,,,,,,,,,,,,,,,,,,,,,,,AMNE19.jpg,AMSA08.jpg,AMNE03.jpg,AMSA05.jpg,AMSA05.jpg,MS,2,num_4,32,num_8,0.650185692008,,,2018_Jan_30_1843,59.9966324381,MAFE4ImagesEEG,001,202779,
AMSA21.JPG,AMNE22.JPG,AMNE21.JPG,AMSA23.JPG,AMSA22.JPG,AMNE23.JPG,0,9,9,1,,,,,,,,,,,,,,,,,,,,,,,AMSA11.jpg,AMSA16.jpg,AMNE07.jpg,AMNE08.jpg,AMSA16.jpg,MS,2,num_6,32,num_8,0.650158429169,,,2018_Jan_30_1843,59.9966324381,MAFE4ImagesEEG,001,202779,
AFSA21.JPG,AFNE22.JPG,AFNE21.JPG,AFSA23.JPG,AFSA22.JPG,AFNE23.JPG,,,,,0,0,0,0,,,,,,,,,,,,,,,,,,,AFNE10.jpg,AFNE02.jpg,AFSA17.jpg,AFSA07.jpg,AFNE10.jpg,FN,3,num_8,32,num_2,0.366819584509,,,2018_Jan_30_1843,59.9966324381,MAFE4ImagesEEG,001,202779,
AMNE23.JPG,AMNE24.JPG,AMNE22.JPG,AMSA24.JPG,AMSA22.JPG,AMSA23.JPG,,,,,0,1,1,9,,,,,,,,,,,,,,,,,,,AFSA02.jpg,AFNE02.jpg,AFNE06.jpg,AFSA14.jpg,AFNE02.jpg,FN,3,num_6,32,num_8,0.683607367682,,,2018_Jan_30_1843,59.9966324381,MAFE4ImagesEEG,001,202779,
AFNE22.JPG,AFSA24.JPG,AFSA22.JPG,AFNE25.JPG,AFNE24.JPG,AFSA25.JPG,,,,,0,2,2,6,,,,,,,,,,,,,,,,,,,AFSA18.jpg,AFSA09.jpg,AFNE14.jpg,AFNE07.jpg,AFNE07.jpg,FN,3,num_4,32,num_6,0.483476634254,,,2018_Jan_30_1843,59.9966324381,MAFE4ImagesEEG,001,202779,
AMSA21.JPG,AMNE23.JPG,AMNE21.JPG,AMSA25.JPG,AMNE25.JPG,AMSA23.JPG,,,,,0,3,3,5,,,,,,,,,,,,,,,,,,,AFSA01.jpg,AFNE20.jpg,AFNE05.jpg,AFSA12.jpg,AFSA01.jpg,FS,4,num_8,32,num_6,0.466786644538,,,2018_Jan_30_1843,59.9966324381,MAFE4ImagesEEG,001,202779,
AMSA25.JPG,AMNE24.JPG,AMSA24.JPG,AMNE26.JPG,AMSA21.JPG,AMNE25.JPG,,,,,0,4,4,3,,,,,,,,,,,,,,,,,,,AFNE10.jpg,AFSA19.jpg,AFNE03.jpg,AFSA01.jpg,AFSA19.jpg,FS,4,num_6,32,num_2,0.516815879848,,,2018_Jan_30_1843,59.9966324381,MAFE4ImagesEEG,001,202779,
AFSA21.JPG,AFNE23.JPG,AFNE21.JPG,AFSA25.JPG,AFNE25.JPG,AFSA23.JPG,,,,,0,5,5,4,,,,,,,,,,,,,,,,,,,AFSA04.jpg,AFNE03.jpg,AFNE18.jpg,AFSA01.jpg,AFNE03.jpg,FN,3,num_6,32,num_8,0.666825646418,,,2018_Jan_30_1843,59.9966324381,MAFE4ImagesEEG,001,202779,
AMSA21.JPG,AMNE22.JPG,AMNE21.JPG,AMSA23.JPG,AMSA22.JPG,AMNE23.JPG,,,,,0,6,6,1,,,,,,,,,,,,,,,,,,,AFSA16.jpg,AFNE08.jpg,AFNE07.jpg,AFSA10.jpg,AFSA16.jpg,FS,4,num_8,16,num_8,0.833438803093,,,2018_Jan_30_1843,59.9966324381,MAFE4ImagesEEG,001,202779,
AFNE23.JPG,AFNE24.JPG,AFNE22.JPG,AFSA24.JPG,AFSA22.JPG,AFSA23.JPG,,,,,0,7,7,8,,,,,,,,,,,,,,,,,,,AFNE08.jpg,AFNE05.jpg,AFSA14.jpg,AFSA17.jpg,AFSA14.jpg,FS,4,num_2,16,num_2,1.05009145883,,,2018_Jan_30_1843,59.9966324381,MAFE4ImagesEEG,001,202779,
AMNE22.JPG,AMSA24.JPG,AMSA22.JPG,AMNE25.JPG,AMNE24.JPG,AMSA25.JPG,,,,,0,8,8,7,,,,,,,,,,,,,,,,,,,AFSA06.jpg,AFNE06.jpg,AFNE04.jpg,AFSA07.jpg,AFNE04.jpg,FN,3,num_2,32,num_6,1.38341046579,,,2018_Jan_30_1843,59.9966324381,MAFE4ImagesEEG,001,202779,
AFSA25.JPG,AFNE24.JPG,AFSA24.JPG,AFNE21.JPG,AFSA21.JPG,AFNE25.JPG,,,,,0,9,9,2,,,,,,,,,,,,,,,,,,,AFSA09.jpg,AFSA03.jpg,AFNE04.jpg,AFNE02.jpg,AFNE04.jpg,FN,3,num_2,16,num_2,0.750131583307,,,2018_Jan_30_1843,59.9966324381,MAFE4ImagesEEG,001,202779,
AMNE23.JPG,AMNE24.JPG,AMNE22.JPG,AMSA24.JPG,AMSA22.JPG,AMSA23.JPG,,,,,,,,,0,0,0,9,,,,,,,,,,,,,,,AMNE01.jpg,AMSA14.jpg,AMSA04.jpg,AMNE05.jpg,AMNE01.jpg,MN,1,num_8,32,num_6,0.416788520874,,,2018_Jan_30_1843,59.9966324381,MAFE4ImagesEEG,001,202779,
AMSA21.JPG,AMNE22.JPG,AMNE21.JPG,AMSA23.JPG,AMSA22.JPG,AMNE23.JPG,,,,,,,,,0,1,1,1,,,,,,,,,,,,,,,AMNE01.jpg,AMNE17.jpg,AMSA13.jpg,AMSA15.jpg,AMNE17.jpg,MN,1,num_6,32,num_2,0.483413448674,,,2018_Jan_30_1843,59.9966324381,MAFE4ImagesEEG,001,202779,
AFNE22.JPG,AFSA24.JPG,AFSA22.JPG,AFNE25.JPG,AFNE24.JPG,AFSA25.JPG,,,,,,,,,0,2,2,6,,,,,,,,,,,,,,,AMNE12.jpg,AMNE01.jpg,AMSA03.jpg,AMSA14.jpg,AMSA14.jpg,MS,2,num_4,32,num_6,0.716861938126,,,2018_Jan_30_1843,59.9966324381,MAFE4ImagesEEG,001,202779,
AMSA25.JPG,AMNE24.JPG,AMSA24.JPG,AMNE26.JPG,AMSA21.JPG,AMNE25.JPG,,,,,,,,,0,3,3,3,,,,,,,,,,,,,,,AMSA01.jpg,AMSA03.jpg,AMNE13.jpg,AMNE12.jpg,AMSA01.jpg,MS,2,num_8,32,num_6,0.550141012995,,,2018_Jan_30_1843,59.9966324381,MAFE4ImagesEEG,001,202779,
AFSA21.JPG,AFNE22.JPG,AFNE21.JPG,AFSA23.JPG,AFSA22.JPG,AFNE23.JPG,,,,,,,,,0,4,4,0,,,,,,,,,,,,,,,AMNE09.jpg,AMNE07.jpg,AMSA06.jpg,AMSA10.jpg,AMNE09.jpg,MN,1,num_8,32,num_4,2.16668660601,,,2018_Jan_30_1843,59.9966324381,MAFE4ImagesEEG,001,202779,
AFNE23.JPG,AFNE24.JPG,AFNE22.JPG,AFSA24.JPG,AFSA22.JPG,AFSA23.JPG,,,,,,,,,0,5,5,8,,,,,,,,,,,,,,,AMNE03.jpg,AMSA05.jpg,AMNE19.jpg,AMSA20.jpg,AMNE03.jpg,MN,1,num_8,32,num_6,0.766800725018,,,2018_Jan_30_1843,59.9966324381,MAFE4ImagesEEG,001,202779,
AFSA25.JPG,AFNE24.JPG,AFSA24.JPG,AFNE21.JPG,AFSA21.JPG,AFNE25.JPG,,,,,,,,,0,6,6,2,,,,,,,,,,,,,,,AMNE09.jpg,AMNE11.jpg,AMSA08.jpg,AMSA02.jpg,AMSA08.jpg,MS,2,num_2,16,num_2,1.00011899427,,,2018_Jan_30_1843,59.9966324381,MAFE4ImagesEEG,001,202779,
AMSA21.JPG,AMNE23.JPG,AMNE21.JPG,AMSA25.JPG,AMNE25.JPG,AMSA23.JPG,,,,,,,,,0,7,7,5,,,,,,,,,,,,,,,AMSA19.jpg,AMNE01.jpg,AMNE11.jpg,AMSA15.jpg,AMNE01.jpg,MN,1,num_6,32,num_2,2.033387998,,,2018_Jan_30_1843,59.9966324381,MAFE4ImagesEEG,001,202779,
AFSA21.JPG,AFNE23.JPG,AFNE21.JPG,AFSA25.JPG,AFNE25.JPG,AFSA23.JPG,,,,,,,,,0,8,8,4,,,,,,,,,,,,,,,AMSA18.jpg,AMNE06.jpg,AMNE08.jpg,AMSA08.jpg,AMNE08.jpg,MN,1,num_2,32,num_4,0.800133235171,,,2018_Jan_30_1843,59.9966324381,MAFE4ImagesEEG,001,202779,
AMNE22.JPG,AMSA24.JPG,AMSA22.JPG,AMNE25.JPG,AMNE24.JPG,AMSA25.JPG,,,,,,,,,0,9,9,7,,,,,,,,,,,,,,,AMNE13.jpg,AMNE14.jpg,AMSA12.jpg,AMSA07.jpg,AMNE14.jpg,MN,1,num_6,32,num_4,1.75001355121,,,2018_Jan_30_1843,59.9966324381,MAFE4ImagesEEG,001,202779,
AMNE22.JPG,AMSA24.JPG,AMSA22.JPG,AMNE25.JPG,AMNE24.JPG,AMSA25.JPG,,,,,,,,,,,,,0,0,0,7,,,,,,,,,,,AFNE19.jpg,AFSA08.jpg,AFSA18.jpg,AFNE18.jpg,AFNE19.jpg,FN,3,num_8,32,num_6,1.40010687034,,,2018_Jan_30_1843,59.9966324381,MAFE4ImagesEEG,001,202779,
AFSA25.JPG,AFNE24.JPG,AFSA24.JPG,AFNE21.JPG,AFSA21.JPG,AFNE25.JPG,,,,,,,,,,,,,0,1,1,2,,,,,,,,,,,AFSA06.jpg,AFNE06.jpg,AFSA05.jpg,AFNE17.jpg,AFSA06.jpg,FS,4,num_8,16,num_8,0.900133972755,,,2018_Jan_30_1843,59.9966324381,MAFE4ImagesEEG,001,202779,
AFSA21.JPG,AFNE23.JPG,AFNE21.JPG,AFSA25.JPG,AFNE25.JPG,AFSA23.JPG,,,,,,,,,,,,,0,2,2,4,,,,,,,,,,,AFNE09.jpg,AFNE06.jpg,AFSA08.jpg,AFSA17.jpg,AFSA08.jpg,FS,4,num_2,32,num_4,0.550152559648,,,2018_Jan_30_1843,59.9966324381,MAFE4ImagesEEG,001,202779,
AFSA21.JPG,AFNE22.JPG,AFNE21.JPG,AFSA23.JPG,AFSA22.JPG,AFNE23.JPG,,,,,,,,,,,,,0,3,3,0,,,,,,,,,,,AFNE19.jpg,AFSA15.jpg,AFNE14.jpg,AFSA19.jpg,AFNE19.jpg,FN,3,num_8,16,num_8,0.716840769281,,,2018_Jan_30_1843,59.9966324381,MAFE4ImagesEEG,001,202779,
AMNE23.JPG,AMNE24.JPG,AMNE22.JPG,AMSA24.JPG,AMSA22.JPG,AMSA23.JPG,,,,,,,,,,,,,0,4,4,9,,,,,,,,,,,AFSA18.jpg,AFNE16.jpg,AFSA05.jpg,AFNE03.jpg,AFNE16.jpg,FN,3,num_6,32,num_8,0.566708159633,,,2018_Jan_30_1843,59.9966324381,MAFE4ImagesEEG,001,202779,
AFNE22.JPG,AFSA24.JPG,AFSA22.JPG,AFNE25.JPG,AFNE24.JPG,AFSA25.JPG,,,,,,,,,,,,,0,5,5,6,,,,,,,,,,,AFNE16.jpg,AFSA15.jpg,AFSA05.jpg,AFNE17.jpg,AFSA05.jpg,FS,4,num_2,16,num_2,0.816753624356,,,2018_Jan_30_1843,59.9966324381,MAFE4ImagesEEG,001,202779,
AMSA21.JPG,AMNE23.JPG,AMNE21.JPG,AMSA25.JPG,AMNE25.JPG,AMSA23.JPG,,,,,,,,,,,,,0,6,6,5,,,,,,,,,,,AFSA10.jpg,AFSA15.jpg,AFNE05.jpg,AFNE12.jpg,AFSA15.jpg,FS,4,num_6,16,num_6,0.950177320628,,,2018_Jan_30_1843,59.9966324381,MAFE4ImagesEEG,001,202779,
AFNE23.JPG,AFNE24.JPG,AFNE22.JPG,AFSA24.JPG,AFSA22.JPG,AFSA23.JPG,,,,,,,,,,,,,0,7,7,8,,,,,,,,,,,AFSA14.jpg,AFSA06.jpg,AFNE02.jpg,AFNE03.jpg,AFSA06.jpg,FS,4,num_6,32,num_8,0.750142488396,,,2018_Jan_30_1843,59.9966324381,MAFE4ImagesEEG,001,202779,
AMSA21.JPG,AMNE22.JPG,AMNE21.JPG,AMSA23.JPG,AMSA22.JPG,AMNE23.JPG,,,,,,,,,,,,,0,8,8,1,,,,,,,,,,,AFNE08.jpg,AFNE07.jpg,AFSA05.jpg,AFSA03.jpg,AFNE08.jpg,FN,3,num_8,16,num_8,0.566688915249,,,2018_Jan_30_1843,59.9966324381,MAFE4ImagesEEG,001,202779,
AMSA25.JPG,AMNE24.JPG,AMSA24.JPG,AMNE26.JPG,AMSA21.JPG,AMNE25.JPG,,,,,,,,,,,,,0,9,9,3,,,,,,,,,,,AFNE18.jpg,AFNE03.jpg,AFSA04.jpg,AFSA02.jpg,AFSA02.jpg,FS,4,num_4,32,num_8,0.600113477558,,,2018_Jan_30_1843,59.9966324381,MAFE4ImagesEEG,001,202779,
AMSA21.JPG,AMNE23.JPG,AMNE21.JPG,AMSA25.JPG,AMNE25.JPG,AMSA23.JPG,,,,,,,,,,,,,,,,,0,0,0,5,,,,,,,AMNE16.jpg,AMNE08.jpg,AMSA12.jpg,AMSA19.jpg,AMNE16.jpg,MN,1,num_8,32,num_4,0.650115450146,,,2018_Jan_30_1843,59.9966324381,MAFE4ImagesEEG,001,202779,
AMNE22.JPG,AMSA24.JPG,AMSA22.JPG,AMNE25.JPG,AMNE24.JPG,AMSA25.JPG,,,,,,,,,,,,,,,,,0,1,1,7,,,,,,,AMSA06.jpg,AMNE13.jpg,AMNE05.jpg,AMSA13.jpg,AMSA13.jpg,MS,2,num_4,32,num_8,0.766596734757,,,2018_Jan_30_1843,59.9966324381,MAFE4ImagesEEG,001,202779,
AFSA21.JPG,AFNE22.JPG,AFNE21.JPG,AFSA23.JPG,AFSA22.JPG,AFNE23.JPG,,,,,,,,,,,,,,,,,0,2,2,0,,,,,,,AMNE12.jpg,AMNE07.jpg,AMSA19.jpg,AMSA11.jpg,AMSA19.jpg,MS,2,num_2,16,num_2,0.366817660048,,,2018_Jan_30_1843,59.9966324381,MAFE4ImagesEEG,001,202779,
AMNE23.JPG,AMNE24.JPG,AMNE22.JPG,AMSA24.JPG,AMSA22.JPG,AMSA23.JPG,,,,,,,,,,,,,,,,,0,3,3,9,,,,,,,AMSA05.jpg,AMNE01.jpg,AMNE12.jpg,AMSA07.jpg,AMSA05.jpg,MS,2,num_8,32,num_4,0.433477227692,,,2018_Jan_30_1843,59.9966324381,MAFE4ImagesEEG,001,202779,
AFNE22.JPG,AFSA24.JPG,AFSA22.JPG,AFNE25.JPG,AFNE24.JPG,AFSA25.JPG,,,,,,,,,,,,,,,,,0,4,4,6,,,,,,,AMNE14.jpg,AMSA13.jpg,AMSA08.jpg,AMNE18.jpg,AMNE14.jpg,MN,1,num_8,16,num_8,0.700103951618,,,2018_Jan_30_1843,59.9966324381,MAFE4ImagesEEG,001,202779,
AFSA25.JPG,AFNE24.JPG,AFSA24.JPG,AFNE21.JPG,AFSA21.JPG,AFNE25.JPG,,,,,,,,,,,,,,,,,0,5,5,2,,,,,,,AMSA08.jpg,AMNE07.jpg,AMNE08.jpg,AMSA18.jpg,AMNE07.jpg,MN,1,num_6,32,num_8,0.7001401952,,,2018_Jan_30_1843,59.9966324381,MAFE4ImagesEEG,001,202779,
AMSA21.JPG,AMNE22.JPG,AMNE21.JPG,AMSA23.JPG,AMSA22.JPG,AMNE23.JPG,,,,,,,,,,,,,,,,,0,6,6,1,,,,,,,AMNE15.jpg,AMSA03.jpg,AMNE05.jpg,AMSA18.jpg,AMSA18.jpg,MS,2,num_4,32,num_2,1.28342768957,,,2018_Jan_30_1843,59.9966324381,MAFE4ImagesEEG,001,202779,
AFNE23.JPG,AFNE24.JPG,AFNE22.JPG,AFSA24.JPG,AFSA22.JPG,AFSA23.JPG,,,,,,,,,,,,,,,,,0,7,7,8,,,,,,,AMNE12.jpg,AMSA09.jpg,AMNE02.jpg,AMSA10.jpg,AMSA09.jpg,MS,2,num_6,16,num_6,0.483500689734,,,2018_Jan_30_1843,59.9966324381,MAFE4ImagesEEG,001,202779,
AFSA21.JPG,AFNE23.JPG,AFNE21.JPG,AFSA25.JPG,AFNE25.JPG,AFSA23.JPG,,,,,,,,,,,,,,,,,0,8,8,4,,,,,,,AMSA11.jpg,AMSA16.jpg,AMNE09.jpg,AMNE05.jpg,AMSA16.jpg,MS,2,num_6,32,num_2,0.866764898412,,,2018_Jan_30_1843,59.9966324381,MAFE4ImagesEEG,001,202779,
AMSA25.JPG,AMNE24.JPG,AMSA24.JPG,AMNE26.JPG,AMSA21.JPG,AMNE25.JPG,,,,,,,,,,,,,,,,,0,9,9,3,,,,,,,AMSA11.jpg,AMSA05.jpg,AMNE16.jpg,AMNE04.jpg,AMNE04.jpg,MN,1,num_4,32,num_6,0.71676732006,,,2018_Jan_30_1843,59.9966324381,MAFE4ImagesEEG,001,202779,
AMSA25.JPG,AMNE24.JPG,AMSA24.JPG,AMNE26.JPG,AMSA21.JPG,AMNE25.JPG,,,,,,,,,,,,,,,,,,,,,0,0,0,3,,,AFNE17.jpg,AFNE07.jpg,AFSA11.jpg,AFSA05.jpg,AFNE17.jpg,FN,3,num_8,32,num_4,0.56677391124,,,2018_Jan_30_1843,59.9966324381,MAFE4ImagesEEG,001,202779,
AMSA21.JPG,AMNE22.JPG,AMNE21.JPG,AMSA23.JPG,AMSA22.JPG,AMNE23.JPG,,,,,,,,,,,,,,,,,,,,,0,1,1,1,,,AFNE12.jpg,AFSA11.jpg,AFNE20.jpg,AFSA17.jpg,AFNE12.jpg,FN,3,num_8,16,num_8,0.416786596412,,,2018_Jan_30_1843,59.9966324381,MAFE4ImagesEEG,001,202779,
AMSA21.JPG,AMNE23.JPG,AMNE21.JPG,AMSA25.JPG,AMNE25.JPG,AMSA23.JPG,,,,,,,,,,,,,,,,,,,,,0,2,2,5,,,AFSA11.jpg,AFNE11.jpg,AFNE06.jpg,AFSA06.jpg,AFNE06.jpg,FN,3,num_2,16,num_2,0.283496006858,,,2018_Jan_30_1843,59.9966324381,MAFE4ImagesEEG,001,202779,
AFSA21.JPG,AFNE22.JPG,AFNE21.JPG,AFSA23.JPG,AFSA22.JPG,AFNE23.JPG,,,,,,,,,,,,,,,,,,,,,0,3,3,0,,,AFSA10.jpg,AFNE06.jpg,AFSA16.jpg,AFNE20.jpg,AFSA16.jpg,FS,4,num_2,32,num_6,0.483354111901,,,2018_Jan_30_1843,59.9966324381,MAFE4ImagesEEG,001,202779,
AFNE22.JPG,AFSA24.JPG,AFSA22.JPG,AFNE25.JPG,AFNE24.JPG,AFSA25.JPG,,,,,,,,,,,,,,,,,,,,,0,4,4,6,,,AFNE12.jpg,AFSA12.jpg,AFSA07.jpg,AFNE17.jpg,AFNE17.jpg,FN,3,num_4,16,num_4,0.800124254427,,,2018_Jan_30_1843,59.9966324381,MAFE4ImagesEEG,001,202779,
AFNE23.JPG,AFNE24.JPG,AFNE22.JPG,AFSA24.JPG,AFSA22.JPG,AFSA23.JPG,,,,,,,,,,,,,,,,,,,,,0,5,5,8,,,AFNE19.jpg,AFNE04.jpg,AFSA20.jpg,AFSA14.jpg,AFSA20.jpg,FS,4,num_2,32,num_6,0.783460885985,,,2018_Jan_30_1843,59.9966324381,MAFE4ImagesEEG,001,202779,
AFSA21.JPG,AFNE23.JPG,AFNE21.JPG,AFSA25.JPG,AFNE25.JPG,AFSA23.JPG,,,,,,,,,,,,,,,,,,,,,0,6,6,4,,,AFNE18.jpg,AFSA16.jpg,AFSA03.jpg,AFNE16.jpg,AFSA03.jpg,FS,4,num_2,32,num_8,0.800095708575,,,2018_Jan_30_1843,59.9966324381,MAFE4ImagesEEG,001,202779,
AMNE22.JPG,AMSA24.JPG,AMSA22.JPG,AMNE25.JPG,AMNE24.JPG,AMSA25.JPG,,,,,,,,,,,,,,,,,,,,,0,7,7,7,,,AFNE06.jpg,AFNE12.jpg,AFSA19.jpg,AFSA03.jpg,AFSA19.jpg,FS,4,num_2,32,num_8,0.766805535997,,,2018_Jan_30_1843,59.9966324381,MAFE4ImagesEEG,001,202779,
AFSA25.JPG,AFNE24.JPG,AFSA24.JPG,AFNE21.JPG,AFSA21.JPG,AFNE25.JPG,,,,,,,,,,,,,,,,,,,,,0,8,8,2,,,AFSA20.jpg,AFNE01.jpg,AFNE03.jpg,AFSA15.jpg,AFSA20.jpg,FS,4,num_8,32,num_2,0.700144685456,,,2018_Jan_30_1843,59.9966324381,MAFE4ImagesEEG,001,202779,
AMNE23.JPG,AMNE24.JPG,AMNE22.JPG,AMSA24.JPG,AMSA22.JPG,AMSA23.JPG,,,,,,,,,,,,,,,,,,,,,0,9,9,9,,,AFNE18.jpg,AFSA08.jpg,AFSA09.jpg,AFNE04.jpg,AFNE04.jpg,FN,3,num_4,16,num_4,0.583491805242,,,2018_Jan_30_1843,59.9966324381,MAFE4ImagesEEG,001,202779,
,,,,,,,,,,,,,,,,,,,,,,,,,,,,,,,,,,,,,,,,,,,space,3.73319334129,2018_Jan_30_1843,59.9966324381,MAFE4ImagesEEG,001,202779,
AFNE01.JPG,AFNE01.JPG,AFNE01.JPG,AFNE01.JPG,AFNE01.JPG,AFNE01.JPG,0,0,0,4,,,,,,,,,,,,,,,,,,,,,,,AMSA18.jpg,AMNE09.jpg,AMSA03.jpg,AMNE06.jpg,AMSA18.jpg,MS,2,num_8,32,num_2,0.650146882632,,,2018_Jan_30_1843,59.9966324381,MAFE4ImagesEEG,001,202779,
AFNE01.JPG,AFNE01.JPG,AFNE01.JPG,AFNE01.JPG,AFNE01.JPG,AFNE01.JPG,0,1,1,3,,,,,,,,,,,,,,,,,,,,,,,AMNE08.jpg,AMSA16.jpg,AMSA04.jpg,AMNE02.jpg,AMSA16.jpg,MS,2,num_6,32,num_8,0.36680322676,,,2018_Jan_30_1843,59.9966324381,MAFE4ImagesEEG,001,202779,
AFNE01.JPG,AFNE01.JPG,AFNE01.JPG,AFNE01.JPG,AFNE01.JPG,AFNE01.JPG,0,2,2,5,,,,,,,,,,,,,,,,,,,,,,,AMNE20.jpg,AMSA12.jpg,AMNE07.jpg,AMSA10.jpg,AMSA10.jpg,MS,2,num_4,32,num_2,0.800110783312,,,2018_Jan_30_1843,59.9966324381,MAFE4ImagesEEG,001,202779,
AFNE01.JPG,AFNE01.JPG,AFNE01.JPG,AFNE01.JPG,AFNE01.JPG,AFNE01.JPG,0,3,3,7,,,,,,,,,,,,,,,,,,,,,,,AMNE05.jpg,AMNE07.jpg,AMSA09.jpg,AMSA12.jpg,AMNE07.jpg,MN,1,num_6,32,num_4,0.666775931837,,,2018_Jan_30_1843,59.9966324381,MAFE4ImagesEEG,001,202779,
AFNE01.JPG,AFNE01.JPG,AFNE01.JPG,AFNE01.JPG,AFNE01.JPG,AFNE01.JPG,0,4,4,8,,,,,,,,,,,,,,,,,,,,,,,AMSA12.jpg,AMNE20.jpg,AMSA01.jpg,AMNE19.jpg,AMNE20.jpg,MN,1,num_6,32,num_4,0.783677705796,,,2018_Jan_30_1843,59.9966324381,MAFE4ImagesEEG,001,202779,
AFNE01.JPG,AFNE01.JPG,AFNE01.JPG,AFNE01.JPG,AFNE01.JPG,AFNE01.JPG,0,5,5,1,,,,,,,,,,,,,,,,,,,,,,,AMSA17.jpg,AMNE07.jpg,AMSA08.jpg,AMNE05.jpg,AMNE07.jpg,MN,1,num_6,32,num_2,0.816733738524,,,2018_Jan_30_1843,59.9966324381,MAFE4ImagesEEG,001,202779,
AFNE01.JPG,AFNE01.JPG,AFNE01.JPG,AFNE01.JPG,AFNE01.JPG,AFNE01.JPG,0,6,6,0,,,,,,,,,,,,,,,,,,,,,,,AMNE10.jpg,AMNE14.jpg,AMSA03.jpg,AMSA14.jpg,AMSA14.jpg,MS,2,num_4,16,num_4,0.533539226511,,,2018_Jan_30_1843,59.9966324381,MAFE4ImagesEEG,001,202779,
AFNE01.JPG,AFNE01.JPG,AFNE01.JPG,AFNE01.JPG,AFNE01.JPG,AFNE01.JPG,0,7,7,9,,,,,,,,,,,,,,,,,,,,,,,AMNE11.jpg,AMSA07.jpg,AMSA10.jpg,AMNE05.jpg,AMSA10.jpg,MS,2,num_2,32,num_6,0.250022692257,,,2018_Jan_30_1843,59.9966324381,MAFE4ImagesEEG,001,202779,
AFNE01.JPG,AFNE01.JPG,AFNE01.JPG,AFNE01.JPG,AFNE01.JPG,AFNE01.JPG,0,8,8,6,,,,,,,,,,,,,,,,,,,,,,,AMNE20.jpg,AMSA06.jpg,AMSA14.jpg,AMNE01.jpg,AMNE01.jpg,MN,1,num_4,32,num_6,0.500157001894,,,2018_Jan_30_1843,59.9966324381,MAFE4ImagesEEG,001,202779,
AFNE01.JPG,AFNE01.JPG,AFNE01.JPG,AFNE01.JPG,AFNE01.JPG,AFNE01.JPG,0,9,9,2,,,,,,,,,,,,,,,,,,,,,,,AMNE16.jpg,AMSA10.jpg,AMSA06.jpg,AMNE20.jpg,AMNE16.jpg,MN,1,num_8,32,num_6,0.500129097607,,,2018_Jan_30_1843,59.9966324381,MAFE4ImagesEEG,001,202779,
AFNE01.JPG,AFNE01.JPG,AFNE01.JPG,AFNE01.JPG,AFNE01.JPG,AFNE01.JPG,1,0,10,6,,,,,,,,,,,,,,,,,,,,,,,AMNE12.jpg,AMNE03.jpg,AMSA04.jpg,AMSA02.jpg,AMSA04.jpg,MS,2,num_2,16,num_2,1.5336655979,,,2018_Jan_30_1843,59.9966324381,MAFE4ImagesEEG,001,202779,
AFNE01.JPG,AFNE01.JPG,AFNE01.JPG,AFNE01.JPG,AFNE01.JPG,AFNE01.JPG,1,1,11,3,,,,,,,,,,,,,,,,,,,,,,,AMSA01.jpg,AMNE15.jpg,AMSA20.jpg,AMNE08.jpg,AMSA20.jpg,MS,2,num_2,32,num_4,0.60013079748,,,2018_Jan_30_1843,59.9966324381,MAFE4ImagesEEG,001,202779,
AFNE01.JPG,AFNE01.JPG,AFNE01.JPG,AFNE01.JPG,AFNE01.JPG,AFNE01.JPG,1,2,12,2,,,,,,,,,,,,,,,,,,,,,,,AMSA02.jpg,AMNE01.jpg,AMSA19.jpg,AMNE04.jpg,AMSA19.jpg,MS,2,num_2,32,num_8,0.433515074896,,,2018_Jan_30_1843,59.9966324381,MAFE4ImagesEEG,001,202779,
AFNE01.JPG,AFNE01.JPG,AFNE01.JPG,AFNE01.JPG,AFNE01.JPG,AFNE01.JPG,1,3,13,8,,,,,,,,,,,,,,,,,,,,,,,AMSA18.jpg,AMSA01.jpg,AMNE16.jpg,AMNE13.jpg,AMSA18.jpg,MS,2,num_8,32,num_4,0.650095564313,,,2018_Jan_30_1843,59.9966324381,MAFE4ImagesEEG,001,202779,
AFNE01.JPG,AFNE01.JPG,AFNE01.JPG,AFNE01.JPG,AFNE01.JPG,AFNE01.JPG,1,4,14,7,,,,,,,,,,,,,,,,,,,,,,,AMNE18.jpg,AMSA11.jpg,AMNE16.jpg,AMSA20.jpg,AMNE16.jpg,MN,1,num_2,32,num_6,0.583452675142,,,2018_Jan_30_1843,59.9966324381,MAFE4ImagesEEG,001,202779,
AFNE01.JPG,AFNE01.JPG,AFNE01.JPG,AFNE01.JPG,AFNE01.JPG,AFNE01.JPG,1,5,15,9,,,,,,,,,,,,,,,,,,,,,,,AMSA01.jpg,AMSA13.jpg,AMNE15.jpg,AMNE11.jpg,AMNE15.jpg,MN,1,num_2,32,num_8,0.383500272874,,,2018_Jan_30_1843,59.9966324381,MAFE4ImagesEEG,001,202779,
AFNE01.JPG,AFNE01.JPG,AFNE01.JPG,AFNE01.JPG,AFNE01.JPG,AFNE01.JPG,1,6,16,4,,,,,,,,,,,,,,,,,,,,,,,AMNE04.jpg,AMSA06.jpg,AMSA11.jpg,AMNE20.jpg,AMSA06.jpg,MS,2,num_6,32,num_4,0.600151966326,,,2018_Jan_30_1843,59.9966324381,MAFE4ImagesEEG,001,202779,
AFNE01.JPG,AFNE01.JPG,AFNE01.JPG,AFNE01.JPG,AFNE01.JPG,AFNE01.JPG,1,7,17,5,,,,,,,,,,,,,,,,,,,,,,,AMNE15.jpg,AMSA18.jpg,AMSA03.jpg,AMNE05.jpg,AMNE05.jpg,MN,1,num_4,32,num_2,0.30019882624,,,2018_Jan_30_1843,59.9966324381,MAFE4ImagesEEG,001,202779,
AFNE01.JPG,AFNE01.JPG,AFNE01.JPG,AFNE01.JPG,AFNE01.JPG,AFNE01.JPG,1,8,18,1,,,,,,,,,,,,,,,,,,,,,,,AMSA16.jpg,AMNE11.jpg,AMNE17.jpg,AMSA19.jpg,AMNE11.jpg,MN,1,num_6,32,num_4,0.350151725695,,,2018_Jan_30_1843,59.9966324381,MAFE4ImagesEEG,001,202779,
AFNE01.JPG,AFNE01.JPG,AFNE01.JPG,AFNE01.JPG,AFNE01.JPG,AFNE01.JPG,1,9,19,0,,,,,,,,,,,,,,,,,,,,,,,AMNE11.jpg,AMSA12.jpg,AMNE04.jpg,AMSA19.jpg,AMSA12.jpg,MS,2,num_6,32,num_8,0.600147475954,,,2018_Jan_30_1843,59.9966324381,MAFE4ImagesEEG,001,202779,
AFNE01.JPG,AFNE01.JPG,AFNE01.JPG,AFNE01.JPG,AFNE01.JPG,AFNE01.JPG,2,0,20,1,,,,,,,,,,,,,,,,,,,,,,,AMNE19.jpg,AMSA05.jpg,AMSA07.jpg,AMNE18.jpg,AMNE19.jpg,MN,1,num_8,32,num_6,0.650170617271,,,2018_Jan_30_1843,59.9966324381,MAFE4ImagesEEG,001,202779,
AFNE01.JPG,AFNE01.JPG,AFNE01.JPG,AFNE01.JPG,AFNE01.JPG,AFNE01.JPG,2,1,21,4,,,,,,,,,,,,,,,,,,,,,,,AMSA01.jpg,AMNE04.jpg,AMSA05.jpg,AMNE03.jpg,AMNE03.jpg,MN,1,num_4,32,num_8,0.383482632111,,,2018_Jan_30_1843,59.9966324381,MAFE4ImagesEEG,001,202779,
AFNE01.JPG,AFNE01.JPG,AFNE01.JPG,AFNE01.JPG,AFNE01.JPG,AFNE01.JPG,2,2,22,5,,,,,,,,,,,,,,,,,,,,,,,AMSA14.jpg,AMSA08.jpg,AMNE09.jpg,AMNE17.jpg,AMSA14.jpg,MS,2,num_8,32,num_2,0.950043251738,,,2018_Jan_30_1843,59.9966324381,MAFE4ImagesEEG,001,202779,
AFNE01.JPG,AFNE01.JPG,AFNE01.JPG,AFNE01.JPG,AFNE01.JPG,AFNE01.JPG,2,3,23,8,,,,,,,,,,,,,,,,,,,,,,,AMSA20.jpg,AMSA10.jpg,AMNE12.jpg,AMNE10.jpg,AMNE10.jpg,MN,1,num_4,16,num_4,0.466794021544,,,2018_Jan_30_1843,59.9966324381,MAFE4ImagesEEG,001,202779,
AFNE01.JPG,AFNE01.JPG,AFNE01.JPG,AFNE01.JPG,AFNE01.JPG,AFNE01.JPG,2,4,24,6,,,,,,,,,,,,,,,,,,,,,,,AMSA14.jpg,AMNE05.jpg,AMNE13.jpg,AMSA06.jpg,AMSA14.jpg,MS,2,num_8,32,num_6,0.616798977018,,,2018_Jan_30_1843,59.9966324381,MAFE4ImagesEEG,001,202779,
AFNE01.JPG,AFNE01.JPG,AFNE01.JPG,AFNE01.JPG,AFNE01.JPG,AFNE01.JPG,2,5,25,0,,,,,,,,,,,,,,,,,,,,,,,AMSA08.jpg,AMNE01.jpg,AMSA09.jpg,AMNE04.jpg,AMNE04.jpg,MN,1,num_4,32,num_2,0.483484973549,,,2018_Jan_30_1843,59.9966324381,MAFE4ImagesEEG,001,202779,
AFNE01.JPG,AFNE01.JPG,AFNE01.JPG,AFNE01.JPG,AFNE01.JPG,AFNE01.JPG,2,6,26,2,,,,,,,,,,,,,,,,,,,,,,,AMNE07.jpg,AMSA19.jpg,AMSA03.jpg,AMNE13.jpg,AMNE07.jpg,MN,1,num_8,16,num_8,0.71680131834,,,2018_Jan_30_1843,59.9966324381,MAFE4ImagesEEG,001,202779,
AFNE01.JPG,AFNE01.JPG,AFNE01.JPG,AFNE01.JPG,AFNE01.JPG,AFNE01.JPG,2,7,27,7,,,,,,,,,,,,,,,,,,,,,,,AMSA10.jpg,AMSA05.jpg,AMNE16.jpg,AMNE18.jpg,AMNE16.jpg,MN,1,num_2,32,num_8,0.433473058045,,,2018_Jan_30_1843,59.9966324381,MAFE4ImagesEEG,001,202779,
AFNE01.JPG,AFNE01.JPG,AFNE01.JPG,AFNE01.JPG,AFNE01.JPG,AFNE01.JPG,2,8,28,3,,,,,,,,,,,,,,,,,,,,,,,AMSA12.jpg,AMNE08.jpg,AMNE16.jpg,AMSA17.jpg,AMSA12.jpg,MS,2,num_8,32,num_2,0.266788376495,,,2018_Jan_30_1843,59.9966324381,MAFE4ImagesEEG,001,202779,
AFNE01.JPG,AFNE01.JPG,AFNE01.JPG,AFNE01.JPG,AFNE01.JPG,AFNE01.JPG,2,9,29,9,,,,,,,,,,,,,,,,,,,,,,,AMNE12.jpg,AMNE09.jpg,AMSA06.jpg,AMSA17.jpg,AMSA06.jpg,MS,2,num_2,32,num_8,0.316788424621,,,2018_Jan_30_1843,59.9966324381,MAFE4ImagesEEG,001,202779,
AFNE01.JPG,AFNE01.JPG,AFNE01.JPG,AFNE01.JPG,AFNE01.JPG,AFNE01.JPG,3,0,30,4,,,,,,,,,,,,,,,,,,,,,,,AMSA17.jpg,AMSA10.jpg,AMNE17.jpg,AMNE18.jpg,AMNE18.jpg,MN,1,num_4,32,num_6,0.483471823158,,,2018_Jan_30_1843,59.9966324381,MAFE4ImagesEEG,001,202779,
AFNE01.JPG,AFNE01.JPG,AFNE01.JPG,AFNE01.JPG,AFNE01.JPG,AFNE01.JPG,3,1,31,1,,,,,,,,,,,,,,,,,,,,,,,AMNE12.jpg,AMNE20.jpg,AMSA09.jpg,AMSA02.jpg,AMSA02.jpg,MS,2,num_4,16,num_4,0.366784944665,,,2018_Jan_30_1843,59.9966324381,MAFE4ImagesEEG,001,202779,
AFNE01.JPG,AFNE01.JPG,AFNE01.JPG,AFNE01.JPG,AFNE01.JPG,AFNE01.JPG,3,2,32,6,,,,,,,,,,,,,,,,,,,,,,,AMNE08.jpg,AMNE13.jpg,AMSA15.jpg,AMSA16.jpg,AMSA15.jpg,MS,2,num_2,16,num_2,0.850104737445,,,2018_Jan_30_1843,59.9966324381,MAFE4ImagesEEG,001,202779,
AFNE01.JPG,AFNE01.JPG,AFNE01.JPG,AFNE01.JPG,AFNE01.JPG,AFNE01.JPG,3,3,33,5,,,,,,,,,,,,,,,,,,,,,,,AMNE07.jpg,AMNE12.jpg,AMSA04.jpg,AMSA17.jpg,AMNE12.jpg,MN,1,num_6,32,num_8,0.68348901486,,,2018_Jan_30_1843,59.9966324381,MAFE4ImagesEEG,001,202779,
AFNE01.JPG,AFNE01.JPG,AFNE01.JPG,AFNE01.JPG,AFNE01.JPG,AFNE01.JPG,3,4,34,3,,,,,,,,,,,,,,,,,,,,,,,AMSA10.jpg,AMSA13.jpg,AMNE03.jpg,AMNE15.jpg,AMNE03.jpg,MN,1,num_2,32,num_6,1.11680491071,,,2018_Jan_30_1843,59.9966324381,MAFE4ImagesEEG,001,202779,
AFNE01.JPG,AFNE01.JPG,AFNE01.JPG,AFNE01.JPG,AFNE01.JPG,AFNE01.JPG,3,5,35,7,,,,,,,,,,,,,,,,,,,,,,,AMSA05.jpg,AMNE16.jpg,AMNE09.jpg,AMSA08.jpg,AMNE16.jpg,MN,1,num_6,32,num_8,1.13343941257,,,2018_Jan_30_1843,59.9966324381,MAFE4ImagesEEG,001,202779,
AFNE01.JPG,AFNE01.JPG,AFNE01.JPG,AFNE01.JPG,AFNE01.JPG,AFNE01.JPG,3,6,36,0,,,,,,,,,,,,,,,,,,,,,,,AMNE12.jpg,AMSA01.jpg,AMSA17.jpg,AMNE20.jpg,AMNE12.jpg,MN,1,num_8,16,num_8,0.65016388183,,,2018_Jan_30_1843,59.9966324381,MAFE4ImagesEEG,001,202779,
AFNE01.JPG,AFNE01.JPG,AFNE01.JPG,AFNE01.JPG,AFNE01.JPG,AFNE01.JPG,3,7,37,2,,,,,,,,,,,,,,,,,,,,,,,AMSA16.jpg,AMNE07.jpg,AMSA10.jpg,AMNE09.jpg,AMNE09.jpg,MN,1,num_4,32,num_8,2.93329937779,,,2018_Jan_30_1843,59.9966324381,MAFE4ImagesEEG,001,202779,
AFNE01.JPG,AFNE01.JPG,AFNE01.JPG,AFNE01.JPG,AFNE01.JPG,AFNE01.JPG,3,8,38,9,,,,,,,,,,,,,,,,,,,,,,,AMNE17.jpg,AMSA01.jpg,AMSA20.jpg,AMNE12.jpg,AMNE17.jpg,MN,1,num_8,32,num_2,0.73341817956,,,2018_Jan_30_1843,59.9966324381,MAFE4ImagesEEG,001,202779,
AFNE01.JPG,AFNE01.JPG,AFNE01.JPG,AFNE01.JPG,AFNE01.JPG,AFNE01.JPG,3,9,39,8,,,,,,,,,,,,,,,,,,,,,,,AMSA02.jpg,AMNE02.jpg,AMSA15.jpg,AMNE14.jpg,AMNE14.jpg,MN,1,num_4,32,num_8,1.46673115669,,,2018_Jan_30_1843,59.9966324381,MAFE4ImagesEEG,001,202779,
AFNE01.JPG,AFNE01.JPG,AFNE01.JPG,AFNE01.JPG,AFNE01.JPG,AFNE01.JPG,4,0,40,5,,,,,,,,,,,,,,,,,,,,,,,AMSA07.jpg,AMNE17.jpg,AMNE11.jpg,AMSA15.jpg,AMSA07.jpg,MS,2,num_8,32,num_6,0.783461848157,,,2018_Jan_30_1843,59.9966324381,MAFE4ImagesEEG,001,202779,
AFNE01.JPG,AFNE01.JPG,AFNE01.JPG,AFNE01.JPG,AFNE01.JPG,AFNE01.JPG,4,1,41,4,,,,,,,,,,,,,,,,,,,,,,,AMSA20.jpg,AMNE15.jpg,AMSA03.jpg,AMNE18.jpg,AMNE18.jpg,MN,1,num_4,32,num_8,0.466770607629,,,2018_Jan_30_1843,59.9966324381,MAFE4ImagesEEG,001,202779,
AFNE01.JPG,AFNE01.JPG,AFNE01.JPG,AFNE01.JPG,AFNE01.JPG,AFNE01.JPG,4,2,42,8,,,,,,,,,,,,,,,,,,,,,,,AMNE08.jpg,AMNE17.jpg,AMSA20.jpg,AMSA12.jpg,AMSA12.jpg,MS,2,num_4,16,num_4,0.333472641069,,,2018_Jan_30_1843,59.9966324381,MAFE4ImagesEEG,001,202779,
AFNE01.JPG,AFNE01.JPG,AFNE01.JPG,AFNE01.JPG,AFNE01.JPG,AFNE01.JPG,4,3,43,3,,,,,,,,,,,,,,,,,,,,,,,AMSA17.jpg,AMSA03.jpg,AMNE06.jpg,AMNE05.jpg,AMSA17.jpg,MS,2,num_8,16,num_8,0.550158653758,,,2018_Jan_30_1843,59.9966324381,MAFE4ImagesEEG,001,202779,
AFNE01.JPG,AFNE01.JPG,AFNE01.JPG,AFNE01.JPG,AFNE01.JPG,AFNE01.JPG,4,4,44,7,,,,,,,,,,,,,,,,,,,,,,,AMSA16.jpg,AMNE14.jpg,AMSA02.jpg,AMNE10.jpg,AMNE14.jpg,MN,1,num_6,32,num_8,0.683470411925,,,2018_Jan_30_1843,59.9966324381,MAFE4ImagesEEG,001,202779,
AFNE01.JPG,AFNE01.JPG,AFNE01.JPG,AFNE01.JPG,AFNE01.JPG,AFNE01.JPG,4,5,45,1,,,,,,,,,,,,,,,,,,,,,,,AMSA11.jpg,AMNE01.jpg,AMNE06.jpg,AMSA18.jpg,AMSA11.jpg,MS,2,num_8,16,num_8,0.650424642721,,,2018_Jan_30_1843,59.9966324381,MAFE4ImagesEEG,001,202779,
AFNE01.JPG,AFNE01.JPG,AFNE01.JPG,AFNE01.JPG,AFNE01.JPG,AFNE01.JPG,4,6,46,0,,,,,,,,,,,,,,,,,,,,,,,AMNE03.jpg,AMNE02.jpg,AMSA14.jpg,AMSA06.jpg,AMSA14.jpg,MS,2,num_2,32,num_8,0.316640243167,,,2018_Jan_30_1843,59.9966324381,MAFE4ImagesEEG,001,202779,
AFNE01.JPG,AFNE01.JPG,AFNE01.JPG,AFNE01.JPG,AFNE01.JPG,AFNE01.JPG,4,7,47,9,,,,,,,,,,,,,,,,,,,,,,,AMSA08.jpg,AMNE13.jpg,AMSA07.jpg,AMNE03.jpg,AMSA08.jpg,MS,2,num_8,32,num_2,1.28341838799,,,2018_Jan_30_1843,59.9966324381,MAFE4ImagesEEG,001,202779,
AFNE01.JPG,AFNE01.JPG,AFNE01.JPG,AFNE01.JPG,AFNE01.JPG,AFNE01.JPG,4,8,48,6,,,,,,,,,,,,,,,,,,,,,,,AMSA12.jpg,AMNE07.jpg,AMSA14.jpg,AMNE09.jpg,AMNE07.jpg,MN,1,num_6,16,num_6,0.666628712555,,,2018_Jan_30_1843,59.9966324381,MAFE4ImagesEEG,001,202779,
AFNE01.JPG,AFNE01.JPG,AFNE01.JPG,AFNE01.JPG,AFNE01.JPG,AFNE01.JPG,4,9,49,2,,,,,,,,,,,,,,,,,,,,,,,AMNE06.jpg,AMNE13.jpg,AMSA15.jpg,AMSA20.jpg,AMSA20.jpg,MS,2,num_4,16,num_4,0.366788472747,,,2018_Jan_30_1843,59.9966324381,MAFE4ImagesEEG,001,202779,
AFNE01.JPG,AFNE01.JPG,AFNE01.JPG,AFNE01.JPG,AFNE01.JPG,AFNE01.JPG,5,0,50,4,,,,,,,,,,,,,,,,,,,,,,,AMNE11.jpg,AMSA06.jpg,AMNE03.jpg,AMSA12.jpg,AMSA06.jpg,MS,2,num_6,32,num_8,1.08345700509,,,2018_Jan_30_1843,59.9966324381,MAFE4ImagesEEG,001,202779,
AFNE01.JPG,AFNE01.JPG,AFNE01.JPG,AFNE01.JPG,AFNE01.JPG,AFNE01.JPG,5,1,51,5,,,,,,,,,,,,,,,,,,,,,,,AMNE16.jpg,AMSA04.jpg,AMSA03.jpg,AMNE11.jpg,AMNE11.jpg,MN,1,num_4,16,num_4,0.600147796678,,,2018_Jan_30_1843,59.9966324381,MAFE4ImagesEEG,001,202779,
AFNE01.JPG,AFNE01.JPG,AFNE01.JPG,AFNE01.JPG,AFNE01.JPG,AFNE01.JPG,5,2,52,8,,,,,,,,,,,,,,,,,,,,,,,AMSA08.jpg,AMNE15.jpg,AMNE09.jpg,AMSA10.jpg,AMSA10.jpg,MS,2,num_4,32,num_6,0.600116685033,,,2018_Jan_30_1843,59.9966324381,MAFE4ImagesEEG,001,202779,
AFNE01.JPG,AFNE01.JPG,AFNE01.JPG,AFNE01.JPG,AFNE01.JPG,AFNE01.JPG,5,3,53,3,,,,,,,,,,,,,,,,,,,,,,,AMNE02.jpg,AMSA08.jpg,AMSA14.jpg,AMNE03.jpg,AMNE03.jpg,MN,1,num_4,32,num_8,0.550165068475,,,2018_Jan_30_1843,59.9966324381,MAFE4ImagesEEG,001,202779,
AFNE01.JPG,AFNE01.JPG,AFNE01.JPG,AFNE01.JPG,AFNE01.JPG,AFNE01.JPG,5,4,54,2,,,,,,,,,,,,,,,,,,,,,,,AMSA11.jpg,AMNE17.jpg,AMSA04.jpg,AMNE12.jpg,AMNE17.jpg,MN,1,num_6,32,num_8,0.466823529569,,,2018_Jan_30_1843,59.9966324381,MAFE4ImagesEEG,001,202779,
AFNE01.JPG,AFNE01.JPG,AFNE01.JPG,AFNE01.JPG,AFNE01.JPG,AFNE01.JPG,5,5,55,6,,,,,,,,,,,,,,,,,,,,,,,AMSA18.jpg,AMNE11.jpg,AMSA20.jpg,AMNE08.jpg,AMNE08.jpg,MN,1,num_4,32,num_6,0.500169510604,,,2018_Jan_30_1843,59.9966324381,MAFE4ImagesEEG,001,202779,
AFNE01.JPG,AFNE01.JPG,AFNE01.JPG,AFNE01.JPG,AFNE01.JPG,AFNE01.JPG,5,6,56,1,,,,,,,,,,,,,,,,,,,,,,,AMSA19.jpg,AMNE17.jpg,AMNE02.jpg,AMSA16.jpg,AMSA19.jpg,MS,2,num_8,32,num_6,1.36675287073,,,2018_Jan_30_1843,59.9966324381,MAFE4ImagesEEG,001,202779,
AFNE01.JPG,AFNE01.JPG,AFNE01.JPG,AFNE01.JPG,AFNE01.JPG,AFNE01.JPG,5,7,57,7,,,,,,,,,,,,,,,,,,,,,,,AMSA11.jpg,AMNE17.jpg,AMSA13.jpg,AMNE08.jpg,AMNE08.jpg,MN,1,num_4,32,num_8,0.350164234638,,,2018_Jan_30_1843,59.9966324381,MAFE4ImagesEEG,001,202779,
AFNE01.JPG,AFNE01.JPG,AFNE01.JPG,AFNE01.JPG,AFNE01.JPG,AFNE01.JPG,5,8,58,0,,,,,,,,,,,,,,,,,,,,,,,AMNE10.jpg,AMSA06.jpg,AMNE11.jpg,AMSA20.jpg,AMSA06.jpg,MS,2,num_6,32,num_8,0.400195073686,,,2018_Jan_30_1843,59.9966324381,MAFE4ImagesEEG,001,202779,
AFNE01.JPG,AFNE01.JPG,AFNE01.JPG,AFNE01.JPG,AFNE01.JPG,AFNE01.JPG,5,9,59,9,,,,,,,,,,,,,,,,,,,,,,,AMNE04.jpg,AMSA12.jpg,AMSA16.jpg,AMNE01.jpg,AMSA16.jpg,MS,2,num_2,32,num_8,0.533514529699,,,2018_Jan_30_1843,59.9966324381,MAFE4ImagesEEG,001,202779,
,,,,,,,,,,,,,,,,,,,,,,,,,,,,,,,,,,,,,,,,,,,space,19.1652753531,2018_Jan_30_1843,59.9966324381,MAFE4ImagesEEG,001,202779,
AFNE01.JPG,AFNE01.JPG,AFNE01.JPG,AFNE01.JPG,AFNE01.JPG,AFNE01.JPG,,,,,0,0,0,0,,,,,,,,,,,,,,,,,,,AFSA03.jpg,AFSA02.jpg,AFNE07.jpg,AFNE12.jpg,AFSA03.jpg,FS,4,num_8,16,num_8,1.5000755341,,,2018_Jan_30_1843,59.9966324381,MAFE4ImagesEEG,001,202779,
AFNE01.JPG,AFNE01.JPG,AFNE01.JPG,AFNE01.JPG,AFNE01.JPG,AFNE01.JPG,,,,,0,1,1,1,,,,,,,,,,,,,,,,,,,AFNE03.jpg,AFSA07.jpg,AFSA13.jpg,AFNE04.jpg,AFSA07.jpg,FS,4,num_6,32,num_8,0.733432612848,,,2018_Jan_30_1843,59.9966324381,MAFE4ImagesEEG,001,202779,
AFNE01.JPG,AFNE01.JPG,AFNE01.JPG,AFNE01.JPG,AFNE01.JPG,AFNE01.JPG,,,,,0,2,2,7,,,,,,,,,,,,,,,,,,,AFSA18.jpg,AFNE08.jpg,AFSA10.jpg,AFNE16.jpg,AFSA10.jpg,FS,4,num_2,32,num_4,0.366812207387,,,2018_Jan_30_1843,59.9966324381,MAFE4ImagesEEG,001,202779,
AFNE01.JPG,AFNE01.JPG,AFNE01.JPG,AFNE01.JPG,AFNE01.JPG,AFNE01.JPG,,,,,0,3,3,9,,,,,,,,,,,,,,,,,,,AFNE14.jpg,AFSA04.jpg,AFNE10.jpg,AFSA01.jpg,AFNE14.jpg,FN,3,num_8,32,num_6,1.01674900576,,,2018_Jan_30_1843,59.9966324381,MAFE4ImagesEEG,001,202779,
AFNE01.JPG,AFNE01.JPG,AFNE01.JPG,AFNE01.JPG,AFNE01.JPG,AFNE01.JPG,,,,,0,4,4,3,,,,,,,,,,,,,,,,,,,AFNE06.jpg,AFSA02.jpg,AFSA17.jpg,AFNE01.jpg,AFSA02.jpg,FS,4,num_6,32,num_2,0.733481685864,,,2018_Jan_30_1843,59.9966324381,MAFE4ImagesEEG,001,202779,
AFNE01.JPG,AFNE01.JPG,AFNE01.JPG,AFNE01.JPG,AFNE01.JPG,AFNE01.JPG,,,,,0,5,5,6,,,,,,,,,,,,,,,,,,,AFNE20.jpg,AFSA12.jpg,AFNE18.jpg,AFSA17.jpg,AFSA12.jpg,FS,4,num_6,16,num_6,0.466769003891,,,2018_Jan_30_1843,59.9966324381,MAFE4ImagesEEG,001,202779,
AFNE01.JPG,AFNE01.JPG,AFNE01.JPG,AFNE01.JPG,AFNE01.JPG,AFNE01.JPG,,,,,0,6,6,2,,,,,,,,,,,,,,,,,,,AFSA20.jpg,AFNE13.jpg,AFNE17.jpg,AFSA10.jpg,AFSA20.jpg,FS,4,num_8,16,num_8,1.01674098731,,,2018_Jan_30_1843,59.9966324381,MAFE4ImagesEEG,001,202779,
AFNE01.JPG,AFNE01.JPG,AFNE01.JPG,AFNE01.JPG,AFNE01.JPG,AFNE01.JPG,,,,,0,7,7,8,,,,,,,,,,,,,,,,,,,AFNE13.jpg,AFSA08.jpg,AFNE20.jpg,AFSA02.jpg,AFNE20.jpg,FN,3,num_2,32,num_4,0.300115113263,,,2018_Jan_30_1843,59.9966324381,MAFE4ImagesEEG,001,202779,
AFNE01.JPG,AFNE01.JPG,AFNE01.JPG,AFNE01.JPG,AFNE01.JPG,AFNE01.JPG,,,,,0,8,8,4,,,,,,,,,,,,,,,,,,,AFSA05.jpg,AFSA15.jpg,AFNE20.jpg,AFNE11.jpg,AFNE11.jpg,FN,3,num_4,32,num_8,0.483485935722,,,2018_Jan_30_1843,59.9966324381,MAFE4ImagesEEG,001,202779,
AFNE01.JPG,AFNE01.JPG,AFNE01.JPG,AFNE01.JPG,AFNE01.JPG,AFNE01.JPG,,,,,0,9,9,5,,,,,,,,,,,,,,,,,,,AFSA19.jpg,AFNE13.jpg,AFSA01.jpg,AFNE04.jpg,AFSA01.jpg,FS,4,num_2,32,num_6,0.600137532922,,,2018_Jan_30_1843,59.9966324381,MAFE4ImagesEEG,001,202779,
AFNE01.JPG,AFNE01.JPG,AFNE01.JPG,AFNE01.JPG,AFNE01.JPG,AFNE01.JPG,,,,,1,0,10,8,,,,,,,,,,,,,,,,,,,AFNE15.jpg,AFNE08.jpg,AFSA18.jpg,AFSA13.jpg,AFSA13.jpg,FS,4,num_4,32,num_6,1.06658708048,,,2018_Jan_30_1843,59.9966324381,MAFE4ImagesEEG,001,202779,
AFNE01.JPG,AFNE01.JPG,AFNE01.JPG,AFNE01.JPG,AFNE01.JPG,AFNE01.JPG,,,,,1,1,11,1,,,,,,,,,,,,,,,,,,,AFSA09.jpg,AFNE10.jpg,AFSA10.jpg,AFNE11.jpg,AFSA10.jpg,FS,4,num_2,32,num_8,0.650112884236,,,2018_Jan_30_1843,59.9966324381,MAFE4ImagesEEG,001,202779,
AFNE01.JPG,AFNE01.JPG,AFNE01.JPG,AFNE01.JPG,AFNE01.JPG,AFNE01.JPG,,,,,1,2,12,9,,,,,,,,,,,,,,,,,,,AFNE17.jpg,AFSA06.jpg,AFSA13.jpg,AFNE05.jpg,AFSA06.jpg,FS,4,num_6,16,num_6,0.783480130369,,,2018_Jan_30_1843,59.9966324381,MAFE4ImagesEEG,001,202779,
AFNE01.JPG,AFNE01.JPG,AFNE01.JPG,AFNE01.JPG,AFNE01.JPG,AFNE01.JPG,,,,,1,3,13,2,,,,,,,,,,,,,,,,,,,AFSA12.jpg,AFNE11.jpg,AFSA08.jpg,AFNE17.jpg,AFNE17.jpg,FN,3,num_4,32,num_6,0.600147475954,,,2018_Jan_30_1843,59.9966324381,MAFE4ImagesEEG,001,202779,
AFNE01.JPG,AFNE01.JPG,AFNE01.JPG,AFNE01.JPG,AFNE01.JPG,AFNE01.JPG,,,,,1,4,14,4,,,,,,,,,,,,,,,,,,,AFSA09.jpg,AFNE15.jpg,AFNE05.jpg,AFSA17.jpg,AFNE05.jpg,FN,3,num_2,32,num_8,0.433496472077,,,2018_Jan_30_1843,59.9966324381,MAFE4ImagesEEG,001,202779,
AFNE01.JPG,AFNE01.JPG,AFNE01.JPG,AFNE01.JPG,AFNE01.JPG,AFNE01.JPG,,,,,1,5,15,0,,,,,,,,,,,,,,,,,,,AFNE02.jpg,AFNE14.jpg,AFSA11.jpg,AFSA05.jpg,AFNE14.jpg,FN,3,num_6,16,num_6,1.56672932848,,,2018_Jan_30_1843,59.9966324381,MAFE4ImagesEEG,001,202779,
AFNE01.JPG,AFNE01.JPG,AFNE01.JPG,AFNE01.JPG,AFNE01.JPG,AFNE01.JPG,,,,,1,6,16,7,,,,,,,,,,,,,,,,,,,AFSA16.jpg,AFNE18.jpg,AFSA04.jpg,AFNE08.jpg,AFNE08.jpg,FN,3,num_4,16,num_4,0.683445073548,,,2018_Jan_30_1843,59.9966324381,MAFE4ImagesEEG,001,202779,
AFNE01.JPG,AFNE01.JPG,AFNE01.JPG,AFNE01.JPG,AFNE01.JPG,AFNE01.JPG,,,,,1,7,17,3,,,,,,,,,,,,,,,,,,,AFNE09.jpg,AFNE01.jpg,AFSA09.jpg,AFSA20.jpg,AFSA20.jpg,FS,4,num_4,32,num_6,0.683493184391,,,2018_Jan_30_1843,59.9966324381,MAFE4ImagesEEG,001,202779,
AFNE01.JPG,AFNE01.JPG,AFNE01.JPG,AFNE01.JPG,AFNE01.JPG,AFNE01.JPG,,,,,1,8,18,5,,,,,,,,,,,,,,,,,,,AFNE02.jpg,AFNE08.jpg,AFSA04.jpg,AFSA03.jpg,AFSA03.jpg,FS,4,num_4,16,num_4,0.950163208181,,,2018_Jan_30_1843,59.9966324381,MAFE4ImagesEEG,001,202779,
AFNE01.JPG,AFNE01.JPG,AFNE01.JPG,AFNE01.JPG,AFNE01.JPG,AFNE01.JPG,,,,,1,9,19,6,,,,,,,,,,,,,,,,,,,AFSA02.jpg,AFNE05.jpg,AFNE13.jpg,AFSA15.jpg,AFSA02.jpg,FS,4,num_8,16,num_8,0.350193101098,,,2018_Jan_30_1843,59.9966324381,MAFE4ImagesEEG,001,202779,
AFNE01.JPG,AFNE01.JPG,AFNE01.JPG,AFNE01.JPG,AFNE01.JPG,AFNE01.JPG,,,,,2,0,20,2,,,,,,,,,,,,,,,,,,,AFNE18.jpg,AFSA17.jpg,AFSA13.jpg,AFNE15.jpg,AFNE18.jpg,FN,3,num_8,16,num_8,0.550115033169,,,2018_Jan_30_1843,59.9966324381,MAFE4ImagesEEG,001,202779,
AFNE01.JPG,AFNE01.JPG,AFNE01.JPG,AFNE01.JPG,AFNE01.JPG,AFNE01.JPG,,,,,2,1,21,6,,,,,,,,,,,,,,,,,,,AFNE10.jpg,AFSA18.jpg,AFNE20.jpg,AFSA15.jpg,AFSA15.jpg,FS,4,num_4,32,num_8,0.316791632096,,,2018_Jan_30_1843,59.9966324381,MAFE4ImagesEEG,001,202779,
AFNE01.JPG,AFNE01.JPG,AFNE01.JPG,AFNE01.JPG,AFNE01.JPG,AFNE01.JPG,,,,,2,2,22,5,,,,,,,,,,,,,,,,,,,AFNE16.jpg,AFSA01.jpg,AFSA09.jpg,AFNE02.jpg,AFSA01.jpg,FS,4,num_6,32,num_2,0.466822567396,,,2018_Jan_30_1843,59.9966324381,MAFE4ImagesEEG,001,202779,
AFNE01.JPG,AFNE01.JPG,AFNE01.JPG,AFNE01.JPG,AFNE01.JPG,AFNE01.JPG,,,,,2,3,23,9,,,,,,,,,,,,,,,,,,,AFSA01.jpg,AFNE12.jpg,AFSA07.jpg,AFNE18.jpg,AFSA01.jpg,FS,4,num_8,32,num_6,0.733371030889,,,2018_Jan_30_1843,59.9966324381,MAFE4ImagesEEG,001,202779,
AFNE01.JPG,AFNE01.JPG,AFNE01.JPG,AFNE01.JPG,AFNE01.JPG,AFNE01.JPG,,,,,2,4,24,0,,,,,,,,,,,,,,,,,,,AFNE20.jpg,AFNE13.jpg,AFSA01.jpg,AFSA11.jpg,AFNE13.jpg,FN,3,num_6,32,num_4,0.466781833442,,,2018_Jan_30_1843,59.9966324381,MAFE4ImagesEEG,001,202779,
AFNE01.JPG,AFNE01.JPG,AFNE01.JPG,AFNE01.JPG,AFNE01.JPG,AFNE01.JPG,,,,,2,5,25,8,,,,,,,,,,,,,,,,,,,AFSA05.jpg,AFNE01.jpg,AFSA07.jpg,AFNE17.jpg,AFNE01.jpg,FN,3,num_6,32,num_8,0.233498204034,,,2018_Jan_30_1843,59.9966324381,MAFE4ImagesEEG,001,202779,
AFNE01.JPG,AFNE01.JPG,AFNE01.JPG,AFNE01.JPG,AFNE01.JPG,AFNE01.JPG,,,,,2,6,26,4,,,,,,,,,,,,,,,,,,,AFSA03.jpg,AFSA20.jpg,AFNE14.jpg,AFNE15.jpg,AFNE15.jpg,FN,3,num_4,16,num_4,0.883476377698,,,2018_Jan_30_1843,59.9966324381,MAFE4ImagesEEG,001,202779,
AFNE01.JPG,AFNE01.JPG,AFNE01.JPG,AFNE01.JPG,AFNE01.JPG,AFNE01.JPG,,,,,2,7,27,7,,,,,,,,,,,,,,,,,,,AFNE08.jpg,AFSA05.jpg,AFSA11.jpg,AFNE17.jpg,AFNE17.jpg,FN,3,num_4,32,num_2,0.800134838792,,,2018_Jan_30_1843,59.9966324381,MAFE4ImagesEEG,001,202779,
AFNE01.JPG,AFNE01.JPG,AFNE01.JPG,AFNE01.JPG,AFNE01.JPG,AFNE01.JPG,,,,,2,8,28,1,,,,,,,,,,,,,,,,,,,AFNE16.jpg,AFNE06.jpg,AFSA01.jpg,AFSA16.jpg,AFNE16.jpg,FN,3,num_8,32,num_2,1.15014319401,,,2018_Jan_30_1843,59.9966324381,MAFE4ImagesEEG,001,202779,
AFNE01.JPG,AFNE01.JPG,AFNE01.JPG,AFNE01.JPG,AFNE01.JPG,AFNE01.JPG,,,,,2,9,29,3,,,,,,,,,,,,,,,,,,,AFSA13.jpg,AFNE07.jpg,AFNE17.jpg,AFSA11.jpg,AFNE17.jpg,FN,3,num_2,32,num_8,0.716773413937,,,2018_Jan_30_1843,59.9966324381,MAFE4ImagesEEG,001,202779,
AFNE01.JPG,AFNE01.JPG,AFNE01.JPG,AFNE01.JPG,AFNE01.JPG,AFNE01.JPG,,,,,3,0,30,1,,,,,,,,,,,,,,,,,,,AFNE17.jpg,AFSA01.jpg,AFSA14.jpg,AFNE10.jpg,AFNE10.jpg,FN,3,num_4,16,num_4,0.616804108722,,,2018_Jan_30_1843,59.9966324381,MAFE4ImagesEEG,001,202779,
AFNE01.JPG,AFNE01.JPG,AFNE01.JPG,AFNE01.JPG,AFNE01.JPG,AFNE01.JPG,,,,,3,1,31,9,,,,,,,,,,,,,,,,,,,AFSA10.jpg,AFNE09.jpg,AFNE06.jpg,AFSA11.jpg,AFNE09.jpg,FN,3,num_6,32,num_2,0.966730034095,,,2018_Jan_30_1843,59.9966324381,MAFE4ImagesEEG,001,202779,
AFNE01.JPG,AFNE01.JPG,AFNE01.JPG,AFNE01.JPG,AFNE01.JPG,AFNE01.JPG,,,,,3,2,32,7,,,,,,,,,,,,,,,,,,,AFNE16.jpg,AFSA01.jpg,AFSA02.jpg,AFNE12.jpg,AFNE12.jpg,FN,3,num_4,16,num_4,0.800135159632,,,2018_Jan_30_1843,59.9966324381,MAFE4ImagesEEG,001,202779,
AFNE01.JPG,AFNE01.JPG,AFNE01.JPG,AFNE01.JPG,AFNE01.JPG,AFNE01.JPG,,,,,3,3,33,4,,,,,,,,,,,,,,,,,,,AFSA08.jpg,AFNE09.jpg,AFSA11.jpg,AFNE19.jpg,AFNE19.jpg,FN,3,num_4,32,num_6,0.766728879418,,,2018_Jan_30_1843,59.9966324381,MAFE4ImagesEEG,001,202779,
AFNE01.JPG,AFNE01.JPG,AFNE01.JPG,AFNE01.JPG,AFNE01.JPG,AFNE01.JPG,,,,,3,4,34,5,,,,,,,,,,,,,,,,,,,AFNE05.jpg,AFSA02.jpg,AFSA19.jpg,AFNE16.jpg,AFNE05.jpg,FN,3,num_8,16,num_8,0.833458047477,,,2018_Jan_30_1843,59.9966324381,MAFE4ImagesEEG,001,202779,
AFNE01.JPG,AFNE01.JPG,AFNE01.JPG,AFNE01.JPG,AFNE01.JPG,AFNE01.JPG,,,,,3,5,35,2,,,,,,,,,,,,,,,,,,,AFSA20.jpg,AFNE05.jpg,AFSA07.jpg,AFNE10.jpg,AFSA07.jpg,FS,4,num_2,32,num_4,0.516800163663,,,2018_Jan_30_1843,59.9966324381,MAFE4ImagesEEG,001,202779,
AFNE01.JPG,AFNE01.JPG,AFNE01.JPG,AFNE01.JPG,AFNE01.JPG,AFNE01.JPG,,,,,3,6,36,0,,,,,,,,,,,,,,,,,,,AFNE14.jpg,AFSA13.jpg,AFNE15.jpg,AFSA20.jpg,AFSA13.jpg,FS,4,num_6,32,num_8,3.33327217912,,,2018_Jan_30_1843,59.9966324381,MAFE4ImagesEEG,001,202779,
AFNE01.JPG,AFNE01.JPG,AFNE01.JPG,AFNE01.JPG,AFNE01.JPG,AFNE01.JPG,,,,,3,7,37,8,,,,,,,,,,,,,,,,,,,AFSA18.jpg,AFNE15.jpg,AFSA06.jpg,AFNE13.jpg,AFSA18.jpg,FS,4,num_8,32,num_6,0.100215312326,,,2018_Jan_30_1843,59.9966324381,MAFE4ImagesEEG,001,202779,
AFNE01.JPG,AFNE01.JPG,AFNE01.JPG,AFNE01.JPG,AFNE01.JPG,AFNE01.JPG,,,,,3,8,38,3,,,,,,,,,,,,,,,,,,,AFSA02.jpg,AFNE20.jpg,AFSA05.jpg,AFNE18.jpg,AFNE18.jpg,FN,3,num_4,16,num_4,0.26683584589,,,2018_Jan_30_1843,59.9966324381,MAFE4ImagesEEG,001,202779,
AFNE01.JPG,AFNE01.JPG,AFNE01.JPG,AFNE01.JPG,AFNE01.JPG,AFNE01.JPG,,,,,3,9,39,6,,,,,,,,,,,,,,,,,,,AFNE02.jpg,AFNE05.jpg,AFSA12.jpg,AFSA18.jpg,AFNE02.jpg,FN,3,num_8,16,num_8,0.35020015738,,,2018_Jan_30_1843,59.9966324381,MAFE4ImagesEEG,001,202779,
AFNE01.JPG,AFNE01.JPG,AFNE01.JPG,AFNE01.JPG,AFNE01.JPG,AFNE01.JPG,,,,,4,0,40,2,,,,,,,,,,,,,,,,,,,AFNE10.jpg,AFNE05.jpg,AFSA09.jpg,AFSA13.jpg,AFSA13.jpg,FS,4,num_4,32,num_8,0.333495734376,,,2018_Jan_30_1843,59.9966324381,MAFE4ImagesEEG,001,202779,
AFNE01.JPG,AFNE01.JPG,AFNE01.JPG,AFNE01.JPG,AFNE01.JPG,AFNE01.JPG,,,,,4,1,41,7,,,,,,,,,,,,,,,,,,,AFSA06.jpg,AFNE17.jpg,AFNE10.jpg,AFSA13.jpg,AFNE10.jpg,FN,3,num_2,16,num_2,0.88350139535,,,2018_Jan_30_1843,59.9966324381,MAFE4ImagesEEG,001,202779,
AFNE01.JPG,AFNE01.JPG,AFNE01.JPG,AFNE01.JPG,AFNE01.JPG,AFNE01.JPG,,,,,4,2,42,9,,,,,,,,,,,,,,,,,,,AFNE12.jpg,AFSA06.jpg,AFSA02.jpg,AFNE17.jpg,AFSA02.jpg,FS,4,num_2,32,num_6,0.716784639983,,,2018_Jan_30_1843,59.9966324381,MAFE4ImagesEEG,001,202779,
AFNE01.JPG,AFNE01.JPG,AFNE01.JPG,AFNE01.JPG,AFNE01.JPG,AFNE01.JPG,,,,,4,3,43,0,,,,,,,,,,,,,,,,,,,AFSA18.jpg,AFNE05.jpg,AFSA03.jpg,AFNE12.jpg,AFSA03.jpg,FS,4,num_2,32,num_6,0.666797100683,,,2018_Jan_30_1843,59.9966324381,MAFE4ImagesEEG,001,202779,
AFNE01.JPG,AFNE01.JPG,AFNE01.JPG,AFNE01.JPG,AFNE01.JPG,AFNE01.JPG,,,,,4,4,44,6,,,,,,,,,,,,,,,,,,,AFNE13.jpg,AFSA19.jpg,AFNE08.jpg,AFSA01.jpg,AFNE13.jpg,FN,3,num_8,16,num_8,0.983576223953,,,2018_Jan_30_1843,59.9966324381,MAFE4ImagesEEG,001,202779,
AFNE01.JPG,AFNE01.JPG,AFNE01.JPG,AFNE01.JPG,AFNE01.JPG,AFNE01.JPG,,,,,4,5,45,8,,,,,,,,,,,,,,,,,,,AFSA05.jpg,AFSA03.jpg,AFNE16.jpg,AFNE07.jpg,AFNE07.jpg,FN,3,num_4,32,num_8,0.466666688095,,,2018_Jan_30_1843,59.9966324381,MAFE4ImagesEEG,001,202779,
AFNE01.JPG,AFNE01.JPG,AFNE01.JPG,AFNE01.JPG,AFNE01.JPG,AFNE01.JPG,,,,,4,6,46,1,,,,,,,,,,,,,,,,,,,AFNE02.jpg,AFSA01.jpg,AFSA12.jpg,AFNE06.jpg,AFSA01.jpg,FS,4,num_6,16,num_6,0.866768105887,,,2018_Jan_30_1843,59.9966324381,MAFE4ImagesEEG,001,202779,
AFNE01.JPG,AFNE01.JPG,AFNE01.JPG,AFNE01.JPG,AFNE01.JPG,AFNE01.JPG,,,,,4,7,47,5,,,,,,,,,,,,,,,,,,,AFNE19.jpg,AFSA07.jpg,AFNE18.jpg,AFSA18.jpg,AFSA07.jpg,FS,4,num_6,32,num_4,0.600210661534,,,2018_Jan_30_1843,59.9966324381,MAFE4ImagesEEG,001,202779,
AFNE01.JPG,AFNE01.JPG,AFNE01.JPG,AFNE01.JPG,AFNE01.JPG,AFNE01.JPG,,,,,4,8,48,4,,,,,,,,,,,,,,,,,,,AFSA03.jpg,AFNE04.jpg,AFSA11.jpg,AFNE13.jpg,AFSA11.jpg,FS,4,num_2,32,num_8,0.566745686112,,,2018_Jan_30_1843,59.9966324381,MAFE4ImagesEEG,001,202779,
AFNE01.JPG,AFNE01.JPG,AFNE01.JPG,AFNE01.JPG,AFNE01.JPG,AFNE01.JPG,,,,,4,9,49,3,,,,,,,,,,,,,,,,,,,AFSA02.jpg,AFNE12.jpg,AFNE13.jpg,AFSA06.jpg,AFNE12.jpg,FN,3,num_6,32,num_8,0.766736577149,,,2018_Jan_30_1843,59.9966324381,MAFE4ImagesEEG,001,202779,
AFNE01.JPG,AFNE01.JPG,AFNE01.JPG,AFNE01.JPG,AFNE01.JPG,AFNE01.JPG,,,,,5,0,50,0,,,,,,,,,,,,,,,,,,,AFSA18.jpg,AFSA07.jpg,AFNE09.jpg,AFNE18.jpg,AFSA18.jpg,FS,4,num_8,32,num_6,0.400178715936,,,2018_Jan_30_1843,59.9966324381,MAFE4ImagesEEG,001,202779,
AFNE01.JPG,AFNE01.JPG,AFNE01.JPG,AFNE01.JPG,AFNE01.JPG,AFNE01.JPG,,,,,5,1,51,2,,,,,,,,,,,,,,,,,,,AFSA06.jpg,AFNE08.jpg,AFSA09.jpg,AFNE19.jpg,AFNE19.jpg,FN,3,num_4,32,num_6,0.400135095348,,,2018_Jan_30_1843,59.9966324381,MAFE4ImagesEEG,001,202779,
AFNE01.JPG,AFNE01.JPG,AFNE01.JPG,AFNE01.JPG,AFNE01.JPG,AFNE01.JPG,,,,,5,2,52,1,,,,,,,,,,,,,,,,,,,AFSA04.jpg,AFNE19.jpg,AFSA11.jpg,AFNE05.jpg,AFSA04.jpg,FS,4,num_8,32,num_4,0.933734300197,,,2018_Jan_30_1843,59.9966324381,MAFE4ImagesEEG,001,202779,
AFNE01.JPG,AFNE01.JPG,AFNE01.JPG,AFNE01.JPG,AFNE01.JPG,AFNE01.JPG,,,,,5,3,53,5,,,,,,,,,,,,,,,,,,,AFNE05.jpg,AFSA03.jpg,AFNE10.jpg,AFSA17.jpg,AFSA17.jpg,FS,4,num_4,32,num_6,1.03341237421,,,2018_Jan_30_1843,59.9966324381,MAFE4ImagesEEG,001,202779,
AFNE01.JPG,AFNE01.JPG,AFNE01.JPG,AFNE01.JPG,AFNE01.JPG,AFNE01.JPG,,,,,5,4,54,3,,,,,,,,,,,,,,,,,,,AFNE15.jpg,AFSA02.jpg,AFNE12.jpg,AFSA18.jpg,AFSA02.jpg,FS,4,num_6,32,num_4,0.66686189,,,2018_Jan_30_1843,59.9966324381,MAFE4ImagesEEG,001,202779,
AFNE01.JPG,AFNE01.JPG,AFNE01.JPG,AFNE01.JPG,AFNE01.JPG,AFNE01.JPG,,,,,5,5,55,8,,,,,,,,,,,,,,,,,,,AFSA08.jpg,AFNE03.jpg,AFNE17.jpg,AFSA17.jpg,AFNE17.jpg,FN,3,num_2,32,num_6,0.900116973673,,,2018_Jan_30_1843,59.9966324381,MAFE4ImagesEEG,001,202779,
AFNE01.JPG,AFNE01.JPG,AFNE01.JPG,AFNE01.JPG,AFNE01.JPG,AFNE01.JPG,,,,,5,6,56,6,,,,,,,,,,,,,,,,,,,AFNE17.jpg,AFNE13.jpg,AFSA15.jpg,AFSA19.jpg,AFNE13.jpg,FN,3,num_6,32,num_8,1.08346662729,,,2018_Jan_30_1843,59.9966324381,MAFE4ImagesEEG,001,202779,
AFNE01.JPG,AFNE01.JPG,AFNE01.JPG,AFNE01.JPG,AFNE01.JPG,AFNE01.JPG,,,,,5,7,57,7,,,,,,,,,,,,,,,,,,,AFSA16.jpg,AFNE09.jpg,AFSA11.jpg,AFNE01.jpg,AFSA11.jpg,FS,4,num_2,32,num_8,0.466931618634,,,2018_Jan_30_1843,59.9966324381,MAFE4ImagesEEG,001,202779,
AFNE01.JPG,AFNE01.JPG,AFNE01.JPG,AFNE01.JPG,AFNE01.JPG,AFNE01.JPG,,,,,5,8,58,4,,,,,,,,,,,,,,,,,,,AFNE11.jpg,AFSA05.jpg,AFNE03.jpg,AFSA19.jpg,AFSA19.jpg,FS,4,num_4,16,num_4,0.700164571404,,,2018_Jan_30_1843,59.9966324381,MAFE4ImagesEEG,001,202779,
AFNE01.JPG,AFNE01.JPG,AFNE01.JPG,AFNE01.JPG,AFNE01.JPG,AFNE01.JPG,,,,,5,9,59,9,,,,,,,,,,,,,,,,,,,AFSA20.jpg,AFNE06.jpg,AFSA02.jpg,AFNE02.jpg,AFSA02.jpg,FS,4,num_2,16,num_2,0.500168869272,,,2018_Jan_30_1843,59.9966324381,MAFE4ImagesEEG,001,202779,
,,,,,,,,,,,,,,,,,,,,,,,,,,,,,,,,,,,,,,,,,,,space,1.48339741165,2018_Jan_30_1843,59.9966324381,MAFE4ImagesEEG,001,202779,
AFNE01.JPG,AFNE01.JPG,AFNE01.JPG,AFNE01.JPG,AFNE01.JPG,AFNE01.JPG,,,,,,,,,0,0,0,6,,,,,,,,,,,,,,,AMSA08.jpg,AMNE19.jpg,AMNE14.jpg,AMSA16.jpg,AMSA16.jpg,MS,2,num_4,32,num_6,0.550175332115,,,2018_Jan_30_1843,59.9966324381,MAFE4ImagesEEG,001,202779,
AFNE01.JPG,AFNE01.JPG,AFNE01.JPG,AFNE01.JPG,AFNE01.JPG,AFNE01.JPG,,,,,,,,,0,1,1,5,,,,,,,,,,,,,,,AMSA18.jpg,AMNE07.jpg,AMSA11.jpg,AMNE13.jpg,AMSA11.jpg,MS,2,num_2,32,num_4,0.383487122483,,,2018_Jan_30_1843,59.9966324381,MAFE4ImagesEEG,001,202779,
AFNE01.JPG,AFNE01.JPG,AFNE01.JPG,AFNE01.JPG,AFNE01.JPG,AFNE01.JPG,,,,,,,,,0,2,2,1,,,,,,,,,,,,,,,AMNE14.jpg,AMNE13.jpg,AMSA11.jpg,AMSA07.jpg,AMNE13.jpg,MN,1,num_6,32,num_4,0.850154451909,,,2018_Jan_30_1843,59.9966324381,MAFE4ImagesEEG,001,202779,
AFNE01.JPG,AFNE01.JPG,AFNE01.JPG,AFNE01.JPG,AFNE01.JPG,AFNE01.JPG,,,,,,,,,0,3,3,7,,,,,,,,,,,,,,,AMSA13.jpg,AMNE09.jpg,AMNE11.jpg,AMSA17.jpg,AMSA13.jpg,MS,2,num_8,32,num_6,1.28345142421,,,2018_Jan_30_1843,59.9966324381,MAFE4ImagesEEG,001,202779,
AFNE01.JPG,AFNE01.JPG,AFNE01.JPG,AFNE01.JPG,AFNE01.JPG,AFNE01.JPG,,,,,,,,,0,4,4,8,,,,,,,,,,,,,,,AMNE03.jpg,AMSA20.jpg,AMNE09.jpg,AMSA11.jpg,AMSA20.jpg,MS,2,num_6,32,num_4,0.700145326904,,,2018_Jan_30_1843,59.9966324381,MAFE4ImagesEEG,001,202779,
AFNE01.JPG,AFNE01.JPG,AFNE01.JPG,AFNE01.JPG,AFNE01.JPG,AFNE01.JPG,,,,,,,,,0,5,5,3,,,,,,,,,,,,,,,AMNE14.jpg,AMSA11.jpg,AMSA09.jpg,AMNE12.jpg,AMNE12.jpg,MN,1,num_4,32,num_8,1.41673463664,,,2018_Jan_30_1843,59.9966324381,MAFE4ImagesEEG,001,202779,
AFNE01.JPG,AFNE01.JPG,AFNE01.JPG,AFNE01.JPG,AFNE01.JPG,AFNE01.JPG,,,,,,,,,0,6,6,4,,,,,,,,,,,,,,,AMNE01.jpg,AMNE04.jpg,AMSA18.jpg,AMSA12.jpg,AMNE01.jpg,MN,1,num_8,32,num_6,0.650135015254,,,2018_Jan_30_1843,59.9966324381,MAFE4ImagesEEG,001,202779,
AFNE01.JPG,AFNE01.JPG,AFNE01.JPG,AFNE01.JPG,AFNE01.JPG,AFNE01.JPG,,,,,,,,,0,7,7,0,,,,,,,,,,,,,,,AMNE08.jpg,AMSA15.jpg,AMNE16.jpg,AMSA14.jpg,AMNE16.jpg,MN,1,num_2,32,num_6,3.34993266081,,,2018_Jan_30_1843,59.9966324381,MAFE4ImagesEEG,001,202779,
AFNE01.JPG,AFNE01.JPG,AFNE01.JPG,AFNE01.JPG,AFNE01.JPG,AFNE01.JPG,,,,,,,,,0,8,8,9,,,,,,,,,,,,,,,AMSA18.jpg,AMNE18.jpg,AMSA11.jpg,AMNE20.jpg,AMNE18.jpg,MN,1,num_6,32,num_4,2.61672648985,,,2018_Jan_30_1843,59.9966324381,MAFE4ImagesEEG,001,202779,
AFNE01.JPG,AFNE01.JPG,AFNE01.JPG,AFNE01.JPG,AFNE01.JPG,AFNE01.JPG,,,,,,,,,0,9,9,2,,,,,,,,,,,,,,,AMNE02.jpg,AMSA07.jpg,AMNE09.jpg,AMSA02.jpg,AMSA07.jpg,MS,2,num_6,32,num_4,1.35002310923,,,2018_Jan_30_1843,59.9966324381,MAFE4ImagesEEG,001,202779,
AFNE01.JPG,AFNE01.JPG,AFNE01.JPG,AFNE01.JPG,AFNE01.JPG,AFNE01.JPG,,,,,,,,,1,0,10,5,,,,,,,,,,,,,,,AMNE12.jpg,AMSA07.jpg,AMNE13.jpg,AMSA15.jpg,AMSA07.jpg,MS,2,num_6,32,num_8,0.350016373792,,,2018_Jan_30_1843,59.9966324381,MAFE4ImagesEEG,001,202779,
AFNE01.JPG,AFNE01.JPG,AFNE01.JPG,AFNE01.JPG,AFNE01.JPG,AFNE01.JPG,,,,,,,,,1,1,11,9,,,,,,,,,,,,,,,AMSA15.jpg,AMSA19.jpg,AMNE01.jpg,AMNE16.jpg,AMNE01.jpg,MN,1,num_2,32,num_4,0.466820963658,,,2018_Jan_30_1843,59.9966324381,MAFE4ImagesEEG,001,202779,
AFNE01.JPG,AFNE01.JPG,AFNE01.JPG,AFNE01.JPG,AFNE01.JPG,AFNE01.JPG,,,,,,,,,1,2,12,4,,,,,,,,,,,,,,,AMNE06.jpg,AMNE19.jpg,AMSA12.jpg,AMSA11.jpg,AMSA12.jpg,MS,2,num_2,32,num_4,0.650148486253,,,2018_Jan_30_1843,59.9966324381,MAFE4ImagesEEG,001,202779,
AFNE01.JPG,AFNE01.JPG,AFNE01.JPG,AFNE01.JPG,AFNE01.JPG,AFNE01.JPG,,,,,,,,,1,3,13,6,,,,,,,,,,,,,,,AMNE10.jpg,AMSA11.jpg,AMSA05.jpg,AMNE06.jpg,AMNE06.jpg,MN,1,num_4,32,num_8,0.500009782612,,,2018_Jan_30_1843,59.9966324381,MAFE4ImagesEEG,001,202779,
AFNE01.JPG,AFNE01.JPG,AFNE01.JPG,AFNE01.JPG,AFNE01.JPG,AFNE01.JPG,,,,,,,,,1,4,14,1,,,,,,,,,,,,,,,AMSA04.jpg,AMSA02.jpg,AMNE10.jpg,AMNE16.jpg,AMNE10.jpg,MN,1,num_2,32,num_4,0.550101562054,,,2018_Jan_30_1843,59.9966324381,MAFE4ImagesEEG,001,202779,
AFNE01.JPG,AFNE01.JPG,AFNE01.JPG,AFNE01.JPG,AFNE01.JPG,AFNE01.JPG,,,,,,,,,1,5,15,3,,,,,,,,,,,,,,,AMNE13.jpg,AMSA05.jpg,AMSA01.jpg,AMNE19.jpg,AMNE19.jpg,MN,1,num_4,32,num_8,0.416814500699,,,2018_Jan_30_1843,59.9966324381,MAFE4ImagesEEG,001,202779,
AFNE01.JPG,AFNE01.JPG,AFNE01.JPG,AFNE01.JPG,AFNE01.JPG,AFNE01.JPG,,,,,,,,,1,6,16,7,,,,,,,,,,,,,,,AMSA05.jpg,AMNE13.jpg,AMSA13.jpg,AMNE10.jpg,AMNE13.jpg,MN,1,num_6,16,num_6,0.600159022491,,,2018_Jan_30_1843,59.9966324381,MAFE4ImagesEEG,001,202779,
AFNE01.JPG,AFNE01.JPG,AFNE01.JPG,AFNE01.JPG,AFNE01.JPG,AFNE01.JPG,,,,,,,,,1,7,17,0,,,,,,,,,,,,,,,AMNE18.jpg,AMNE12.jpg,AMSA05.jpg,AMSA03.jpg,AMSA05.jpg,MS,2,num_2,32,num_6,0.63346459053,,,2018_Jan_30_1843,59.9966324381,MAFE4ImagesEEG,001,202779,
AFNE01.JPG,AFNE01.JPG,AFNE01.JPG,AFNE01.JPG,AFNE01.JPG,AFNE01.JPG,,,,,,,,,1,8,18,8,,,,,,,,,,,,,,,AMNE18.jpg,AMSA06.jpg,AMNE01.jpg,AMSA09.jpg,AMSA09.jpg,MS,2,num_4,16,num_4,0.366812848952,,,2018_Jan_30_1843,59.9966324381,MAFE4ImagesEEG,001,202779,
AFNE01.JPG,AFNE01.JPG,AFNE01.JPG,AFNE01.JPG,AFNE01.JPG,AFNE01.JPG,,,,,,,,,1,9,19,2,,,,,,,,,,,,,,,AMNE08.jpg,AMSA09.jpg,AMSA12.jpg,AMNE13.jpg,AMSA09.jpg,MS,2,num_6,32,num_8,0.550134598278,,,2018_Jan_30_1843,59.9966324381,MAFE4ImagesEEG,001,202779,
AFNE01.JPG,AFNE01.JPG,AFNE01.JPG,AFNE01.JPG,AFNE01.JPG,AFNE01.JPG,,,,,,,,,2,0,20,8,,,,,,,,,,,,,,,AMNE08.jpg,AMSA04.jpg,AMNE13.jpg,AMSA20.jpg,AMNE13.jpg,MN,1,num_2,32,num_4,0.600160626229,,,2018_Jan_30_1843,59.9966324381,MAFE4ImagesEEG,001,202779,
AFNE01.JPG,AFNE01.JPG,AFNE01.JPG,AFNE01.JPG,AFNE01.JPG,AFNE01.JPG,,,,,,,,,2,1,21,4,,,,,,,,,,,,,,,AMSA15.jpg,AMSA04.jpg,AMNE01.jpg,AMNE05.jpg,AMNE01.jpg,MN,1,num_2,32,num_8,0.466783116455,,,2018_Jan_30_1843,59.9966324381,MAFE4ImagesEEG,001,202779,
AFNE01.JPG,AFNE01.JPG,AFNE01.JPG,AFNE01.JPG,AFNE01.JPG,AFNE01.JPG,,,,,,,,,2,2,22,2,,,,,,,,,,,,,,,AMNE11.jpg,AMNE19.jpg,AMSA08.jpg,AMSA09.jpg,AMSA08.jpg,MS,2,num_2,32,num_4,0.483471181826,,,2018_Jan_30_1843,59.9966324381,MAFE4ImagesEEG,001,202779,
AFNE01.JPG,AFNE01.JPG,AFNE01.JPG,AFNE01.JPG,AFNE01.JPG,AFNE01.JPG,,,,,,,,,2,3,23,7,,,,,,,,,,,,,,,AMSA12.jpg,AMSA10.jpg,AMNE02.jpg,AMNE12.jpg,AMNE02.jpg,MN,1,num_2,32,num_8,0.583458769135,,,2018_Jan_30_1843,59.9966324381,MAFE4ImagesEEG,001,202779,
AFNE01.JPG,AFNE01.JPG,AFNE01.JPG,AFNE01.JPG,AFNE01.JPG,AFNE01.JPG,,,,,,,,,2,4,24,5,,,,,,,,,,,,,,,AMSA03.jpg,AMNE05.jpg,AMSA02.jpg,AMNE19.jpg,AMNE19.jpg,MN,1,num_4,16,num_4,0.316818574094,,,2018_Jan_30_1843,59.9966324381,MAFE4ImagesEEG,001,202779,
AFNE01.JPG,AFNE01.JPG,AFNE01.JPG,AFNE01.JPG,AFNE01.JPG,AFNE01.JPG,,,,,,,,,2,5,25,6,,,,,,,,,,,,,,,AMSA12.jpg,AMNE11.jpg,AMSA05.jpg,AMNE17.jpg,AMNE17.jpg,MN,1,num_4,32,num_8,0.466797549627,,,2018_Jan_30_1843,59.9966324381,MAFE4ImagesEEG,001,202779,
AFNE01.JPG,AFNE01.JPG,AFNE01.JPG,AFNE01.JPG,AFNE01.JPG,AFNE01.JPG,,,,,,,,,2,6,26,9,,,,,,,,,,,,,,,AMNE11.jpg,AMSA11.jpg,AMNE01.jpg,AMSA02.jpg,AMNE01.jpg,MN,1,num_2,16,num_2,0.833513214602,,,2018_Jan_30_1843,59.9966324381,MAFE4ImagesEEG,001,202779,
AFNE01.JPG,AFNE01.JPG,AFNE01.JPG,AFNE01.JPG,AFNE01.JPG,AFNE01.JPG,,,,,,,,,2,7,27,0,,,,,,,,,,,,,,,AMSA19.jpg,AMNE18.jpg,AMNE17.jpg,AMSA05.jpg,AMSA19.jpg,MS,2,num_8,16,num_8,0.766788216191,,,2018_Jan_30_1843,59.9966324381,MAFE4ImagesEEG,001,202779,
AFNE01.JPG,AFNE01.JPG,AFNE01.JPG,AFNE01.JPG,AFNE01.JPG,AFNE01.JPG,,,,,,,,,2,8,28,3,,,,,,,,,,,,,,,AMNE16.jpg,AMNE13.jpg,AMSA03.jpg,AMSA04.jpg,AMSA04.jpg,MS,2,num_4,32,num_2,0.883443662315,,,2018_Jan_30_1843,59.9966324381,MAFE4ImagesEEG,001,202779,
AFNE01.JPG,AFNE01.JPG,AFNE01.JPG,AFNE01.JPG,AFNE01.JPG,AFNE01.JPG,,,,,,,,,2,9,29,1,,,,,,,,,,,,,,,AMNE05.jpg,AMSA12.jpg,AMNE07.jpg,AMSA05.jpg,AMNE07.jpg,MN,1,num_2,32,num_6,0.65015361819,,,2018_Jan_30_1843,59.9966324381,MAFE4ImagesEEG,001,202779,
AFNE01.JPG,AFNE01.JPG,AFNE01.JPG,AFNE01.JPG,AFNE01.JPG,AFNE01.JPG,,,,,,,,,3,0,30,3,,,,,,,,,,,,,,,AMNE17.jpg,AMSA13.jpg,AMNE12.jpg,AMSA15.jpg,AMSA13.jpg,MS,2,num_6,16,num_6,0.400151132373,,,2018_Jan_30_1843,59.9966324381,MAFE4ImagesEEG,001,202779,
AFNE01.JPG,AFNE01.JPG,AFNE01.JPG,AFNE01.JPG,AFNE01.JPG,AFNE01.JPG,,,,,,,,,3,1,31,4,,,,,,,,,,,,,,,AMNE19.jpg,AMSA16.jpg,AMNE06.jpg,AMSA03.jpg,AMSA03.jpg,MS,2,num_4,16,num_4,0.266791904694,,,2018_Jan_30_1843,59.9966324381,MAFE4ImagesEEG,001,202779,
AFNE01.JPG,AFNE01.JPG,AFNE01.JPG,AFNE01.JPG,AFNE01.JPG,AFNE01.JPG,,,,,,,,,3,2,32,8,,,,,,,,,,,,,,,AMNE12.jpg,AMSA18.jpg,AMSA08.jpg,AMNE02.jpg,AMSA08.jpg,MS,2,num_2,32,num_8,0.500153794535,,,2018_Jan_30_1843,59.9966324381,MAFE4ImagesEEG,001,202779,
AFNE01.JPG,AFNE01.JPG,AFNE01.JPG,AFNE01.JPG,AFNE01.JPG,AFNE01.JPG,,,,,,,,,3,3,33,2,,,,,,,,,,,,,,,AMNE18.jpg,AMSA13.jpg,AMNE06.jpg,AMSA05.jpg,AMNE18.jpg,MN,1,num_8,16,num_8,1.10010465723,,,2018_Jan_30_1843,59.9966324381,MAFE4ImagesEEG,001,202779,
AFNE01.JPG,AFNE01.JPG,AFNE01.JPG,AFNE01.JPG,AFNE01.JPG,AFNE01.JPG,,,,,,,,,3,4,34,5,,,,,,,,,,,,,,,AMNE20.jpg,AMNE04.jpg,AMSA15.jpg,AMSA12.jpg,AMNE04.jpg,MN,1,num_6,16,num_6,0.466831548023,,,2018_Jan_30_1843,59.9966324381,MAFE4ImagesEEG,001,202779,
AFNE01.JPG,AFNE01.JPG,AFNE01.JPG,AFNE01.JPG,AFNE01.JPG,AFNE01.JPG,,,,,,,,,3,5,35,9,,,,,,,,,,,,,,,AMSA18.jpg,AMNE02.jpg,AMNE19.jpg,AMSA12.jpg,AMNE02.jpg,MN,1,num_6,16,num_6,0.566802456975,,,2018_Jan_30_1843,59.9966324381,MAFE4ImagesEEG,001,202779,
AFNE01.JPG,AFNE01.JPG,AFNE01.JPG,AFNE01.JPG,AFNE01.JPG,AFNE01.JPG,,,,,,,,,3,6,36,6,,,,,,,,,,,,,,,AMSA08.jpg,AMNE04.jpg,AMSA14.jpg,AMNE17.jpg,AMSA14.jpg,MS,2,num_2,16,num_2,0.683476826758,,,2018_Jan_30_1843,59.9966324381,MAFE4ImagesEEG,001,202779,
AFNE01.JPG,AFNE01.JPG,AFNE01.JPG,AFNE01.JPG,AFNE01.JPG,AFNE01.JPG,,,,,,,,,3,7,37,7,,,,,,,,,,,,,,,AMSA12.jpg,AMSA02.jpg,AMNE18.jpg,AMNE09.jpg,AMNE09.jpg,MN,1,num_4,16,num_4,0.400201488519,,,2018_Jan_30_1843,59.9966324381,MAFE4ImagesEEG,001,202779,
AFNE01.JPG,AFNE01.JPG,AFNE01.JPG,AFNE01.JPG,AFNE01.JPG,AFNE01.JPG,,,,,,,,,3,8,38,1,,,,,,,,,,,,,,,AMSA18.jpg,AMNE03.jpg,AMNE19.jpg,AMSA16.jpg,AMSA16.jpg,MS,2,num_4,32,num_8,0.433524697088,,,2018_Jan_30_1843,59.9966324381,MAFE4ImagesEEG,001,202779,
AFNE01.JPG,AFNE01.JPG,AFNE01.JPG,AFNE01.JPG,AFNE01.JPG,AFNE01.JPG,,,,,,,,,3,9,39,0,,,,,,,,,,,,,,,AMNE06.jpg,AMSA14.jpg,AMSA15.jpg,AMNE15.jpg,AMNE15.jpg,MN,1,num_4,16,num_4,0.566787382239,,,2018_Jan_30_1843,59.9966324381,MAFE4ImagesEEG,001,202779,
AFNE01.JPG,AFNE01.JPG,AFNE01.JPG,AFNE01.JPG,AFNE01.JPG,AFNE01.JPG,,,,,,,,,4,0,40,4,,,,,,,,,,,,,,,AMNE20.jpg,AMNE15.jpg,AMSA12.jpg,AMSA09.jpg,AMNE20.jpg,MN,1,num_8,32,num_4,0.716807091609,,,2018_Jan_30_1843,59.9966324381,MAFE4ImagesEEG,001,202779,
AFNE01.JPG,AFNE01.JPG,AFNE01.JPG,AFNE01.JPG,AFNE01.JPG,AFNE01.JPG,,,,,,,,,4,1,41,8,,,,,,,,,,,,,,,AMSA06.jpg,AMSA08.jpg,AMNE08.jpg,AMNE13.jpg,AMSA08.jpg,MS,2,num_6,32,num_2,0.800123933586,,,2018_Jan_30_1843,59.9966324381,MAFE4ImagesEEG,001,202779,
AFNE01.JPG,AFNE01.JPG,AFNE01.JPG,AFNE01.JPG,AFNE01.JPG,AFNE01.JPG,,,,,,,,,4,2,42,6,,,,,,,,,,,,,,,AMSA18.jpg,AMNE20.jpg,AMNE17.jpg,AMSA12.jpg,AMSA12.jpg,MS,2,num_4,32,num_2,0.5667893067,,,2018_Jan_30_1843,59.9966324381,MAFE4ImagesEEG,001,202779,
AFNE01.JPG,AFNE01.JPG,AFNE01.JPG,AFNE01.JPG,AFNE01.JPG,AFNE01.JPG,,,,,,,,,4,3,43,9,,,,,,,,,,,,,,,AMNE13.jpg,AMNE03.jpg,AMSA13.jpg,AMSA08.jpg,AMNE03.jpg,MN,1,num_6,32,num_4,0.683455978637,,,2018_Jan_30_1843,59.9966324381,MAFE4ImagesEEG,001,202779,
AFNE01.JPG,AFNE01.JPG,AFNE01.JPG,AFNE01.JPG,AFNE01.JPG,AFNE01.JPG,,,,,,,,,4,4,44,3,,,,,,,,,,,,,,,AMSA14.jpg,AMNE15.jpg,AMSA19.jpg,AMNE03.jpg,AMSA19.jpg,MS,2,num_2,16,num_2,0.700146609917,,,2018_Jan_30_1843,59.9966324381,MAFE4ImagesEEG,001,202779,
AFNE01.JPG,AFNE01.JPG,AFNE01.JPG,AFNE01.JPG,AFNE01.JPG,AFNE01.JPG,,,,,,,,,4,5,45,0,,,,,,,,,,,,,,,AMNE07.jpg,AMSA16.jpg,AMSA09.jpg,AMNE04.jpg,AMNE04.jpg,MN,1,num_4,16,num_4,0.5334718714,,,2018_Jan_30_1843,59.9966324381,MAFE4ImagesEEG,001,202779,
AFNE01.JPG,AFNE01.JPG,AFNE01.JPG,AFNE01.JPG,AFNE01.JPG,AFNE01.JPG,,,,,,,,,4,6,46,7,,,,,,,,,,,,,,,AMSA08.jpg,AMNE15.jpg,AMSA04.jpg,AMNE10.jpg,AMSA04.jpg,MS,2,num_2,16,num_2,0.883462906582,,,2018_Jan_30_1843,59.9966324381,MAFE4ImagesEEG,001,202779,
AFNE01.JPG,AFNE01.JPG,AFNE01.JPG,AFNE01.JPG,AFNE01.JPG,AFNE01.JPG,,,,,,,,,4,7,47,5,,,,,,,,,,,,,,,AMNE12.jpg,AMSA13.jpg,AMSA03.jpg,AMNE01.jpg,AMSA13.jpg,MS,2,num_6,16,num_6,0.566807909519,,,2018_Jan_30_1843,59.9966324381,MAFE4ImagesEEG,001,202779,
AFNE01.JPG,AFNE01.JPG,AFNE01.JPG,AFNE01.JPG,AFNE01.JPG,AFNE01.JPG,,,,,,,,,4,8,48,2,,,,,,,,,,,,,,,AMNE08.jpg,AMSA11.jpg,AMNE02.jpg,AMSA09.jpg,AMNE02.jpg,MN,1,num_2,32,num_8,0.483471181826,,,2018_Jan_30_1843,59.9966324381,MAFE4ImagesEEG,001,202779,
AFNE01.JPG,AFNE01.JPG,AFNE01.JPG,AFNE01.JPG,AFNE01.JPG,AFNE01.JPG,,,,,,,,,4,9,49,1,,,,,,,,,,,,,,,AMNE05.jpg,AMNE12.jpg,AMSA12.jpg,AMSA03.jpg,AMNE05.jpg,MN,1,num_8,32,num_4,0.450130653102,,,2018_Jan_30_1843,59.9966324381,MAFE4ImagesEEG,001,202779,
AFNE01.JPG,AFNE01.JPG,AFNE01.JPG,AFNE01.JPG,AFNE01.JPG,AFNE01.JPG,,,,,,,,,5,0,50,0,,,,,,,,,,,,,,,AMNE17.jpg,AMSA18.jpg,AMNE08.jpg,AMSA08.jpg,AMNE08.jpg,MN,1,num_2,32,num_8,1.20011309278,,,2018_Jan_30_1843,59.9966324381,MAFE4ImagesEEG,001,202779,
AFNE01.JPG,AFNE01.JPG,AFNE01.JPG,AFNE01.JPG,AFNE01.JPG,AFNE01.JPG,,,,,,,,,5,1,51,6,,,,,,,,,,,,,,,AMNE17.jpg,AMNE19.jpg,AMSA14.jpg,AMSA17.jpg,AMNE19.jpg,MN,1,num_6,32,num_8,0.733509269543,,,2018_Jan_30_1843,59.9966324381,MAFE4ImagesEEG,001,202779,
AFNE01.JPG,AFNE01.JPG,AFNE01.JPG,AFNE01.JPG,AFNE01.JPG,AFNE01.JPG,,,,,,,,,5,2,52,3,,,,,,,,,,,,,,,AMSA09.jpg,AMNE04.jpg,AMSA20.jpg,AMNE15.jpg,AMSA20.jpg,MS,2,num_2,32,num_4,0.733491949621,,,2018_Jan_30_1843,59.9966324381,MAFE4ImagesEEG,001,202779,
AFNE01.JPG,AFNE01.JPG,AFNE01.JPG,AFNE01.JPG,AFNE01.JPG,AFNE01.JPG,,,,,,,,,5,3,53,2,,,,,,,,,,,,,,,AMNE13.jpg,AMSA04.jpg,AMNE16.jpg,AMSA19.jpg,AMSA04.jpg,MS,2,num_6,16,num_6,0.650148486253,,,2018_Jan_30_1843,59.9966324381,MAFE4ImagesEEG,001,202779,
AFNE01.JPG,AFNE01.JPG,AFNE01.JPG,AFNE01.JPG,AFNE01.JPG,AFNE01.JPG,,,,,,,,,5,4,54,8,,,,,,,,,,,,,,,AMNE15.jpg,AMSA05.jpg,AMNE11.jpg,AMSA07.jpg,AMNE15.jpg,MN,1,num_8,32,num_4,0.416817066725,,,2018_Jan_30_1843,59.9966324381,MAFE4ImagesEEG,001,202779,
AFNE01.JPG,AFNE01.JPG,AFNE01.JPG,AFNE01.JPG,AFNE01.JPG,AFNE01.JPG,,,,,,,,,5,5,55,1,,,,,,,,,,,,,,,AMSA17.jpg,AMNE11.jpg,AMNE20.jpg,AMSA03.jpg,AMSA17.jpg,MS,2,num_8,16,num_8,0.350141782779,,,2018_Jan_30_1843,59.9966324381,MAFE4ImagesEEG,001,202779,
AFNE01.JPG,AFNE01.JPG,AFNE01.JPG,AFNE01.JPG,AFNE01.JPG,AFNE01.JPG,,,,,,,,,5,6,56,4,,,,,,,,,,,,,,,AMSA10.jpg,AMNE13.jpg,AMSA05.jpg,AMNE20.jpg,AMNE20.jpg,MN,1,num_4,32,num_8,1.11675776204,,,2018_Jan_30_1843,59.9966324381,MAFE4ImagesEEG,001,202779,
AFNE01.JPG,AFNE01.JPG,AFNE01.JPG,AFNE01.JPG,AFNE01.JPG,AFNE01.JPG,,,,,,,,,5,7,57,7,,,,,,,,,,,,,,,AMSA13.jpg,AMSA17.jpg,AMNE19.jpg,AMNE05.jpg,AMSA13.jpg,MS,2,num_8,32,num_6,0.816851770622,,,2018_Jan_30_1843,59.9966324381,MAFE4ImagesEEG,001,202779,
AFNE01.JPG,AFNE01.JPG,AFNE01.JPG,AFNE01.JPG,AFNE01.JPG,AFNE01.JPG,,,,,,,,,5,8,58,9,,,,,,,,,,,,,,,AMSA01.jpg,AMNE05.jpg,AMNE08.jpg,AMSA05.jpg,AMSA01.jpg,MS,2,num_8,16,num_8,0.550125938258,,,2018_Jan_30_1843,59.9966324381,MAFE4ImagesEEG,001,202779,
AFNE01.JPG,AFNE01.JPG,AFNE01.JPG,AFNE01.JPG,AFNE01.JPG,AFNE01.JPG,,,,,,,,,5,9,59,5,,,,,,,,,,,,,,,AMSA10.jpg,AMSA11.jpg,AMNE19.jpg,AMNE09.jpg,AMNE09.jpg,MN,1,num_4,16,num_4,0.700251812465,,,2018_Jan_30_1843,59.9966324381,MAFE4ImagesEEG,001,202779,
,,,,,,,,,,,,,,,,,,,,,,,,,,,,,,,,,,,,,,,,,,,space,9.31607830781,2018_Jan_30_1843,59.9966324381,MAFE4ImagesEEG,001,202779,
AFNE01.JPG,AFNE01.JPG,AFNE01.JPG,AFNE01.JPG,AFNE01.JPG,AFNE01.JPG,,,,,,,,,,,,,0,0,0,4,,,,,,,,,,,AFNE04.jpg,AFNE11.jpg,AFSA08.jpg,AFSA11.jpg,AFNE04.jpg,FN,3,num_8,16,num_8,0.683533276897,,,2018_Jan_30_1843,59.9966324381,MAFE4ImagesEEG,001,202779,
AFNE01.JPG,AFNE01.JPG,AFNE01.JPG,AFNE01.JPG,AFNE01.JPG,AFNE01.JPG,,,,,,,,,,,,,0,1,1,2,,,,,,,,,,,AFNE14.jpg,AFSA03.jpg,AFSA13.jpg,AFNE17.jpg,AFSA13.jpg,FS,4,num_2,32,num_8,0.666757329018,,,2018_Jan_30_1843,59.9966324381,MAFE4ImagesEEG,001,202779,
AFNE01.JPG,AFNE01.JPG,AFNE01.JPG,AFNE01.JPG,AFNE01.JPG,AFNE01.JPG,,,,,,,,,,,,,0,2,2,8,,,,,,,,,,,AFSA06.jpg,AFNE18.jpg,AFSA16.jpg,AFNE06.jpg,AFSA16.jpg,FS,4,num_2,16,num_2,0.650133090792,,,2018_Jan_30_1843,59.9966324381,MAFE4ImagesEEG,001,202779,
AFNE01.JPG,AFNE01.JPG,AFNE01.JPG,AFNE01.JPG,AFNE01.JPG,AFNE01.JPG,,,,,,,,,,,,,0,3,3,5,,,,,,,,,,,AFSA17.jpg,AFNE05.jpg,AFSA10.jpg,AFNE13.jpg,AFSA10.jpg,FS,4,num_2,32,num_4,0.516766806832,,,2018_Jan_30_1843,59.9966324381,MAFE4ImagesEEG,001,202779,
AFNE01.JPG,AFNE01.JPG,AFNE01.JPG,AFNE01.JPG,AFNE01.JPG,AFNE01.JPG,,,,,,,,,,,,,0,4,4,3,,,,,,,,,,,AFNE07.jpg,AFSA09.jpg,AFSA20.jpg,AFNE03.jpg,AFSA09.jpg,FS,4,num_6,16,num_6,0.700135704712,,,2018_Jan_30_1843,59.9966324381,MAFE4ImagesEEG,001,202779,
AFNE01.JPG,AFNE01.JPG,AFNE01.JPG,AFNE01.JPG,AFNE01.JPG,AFNE01.JPG,,,,,,,,,,,,,0,5,5,1,,,,,,,,,,,AFNE11.jpg,AFSA09.jpg,AFNE01.jpg,AFSA08.jpg,AFNE11.jpg,FN,3,num_8,32,num_4,0.533309577266,,,2018_Jan_30_1843,59.9966324381,MAFE4ImagesEEG,001,202779,
AFNE01.JPG,AFNE01.JPG,AFNE01.JPG,AFNE01.JPG,AFNE01.JPG,AFNE01.JPG,,,,,,,,,,,,,0,6,6,6,,,,,,,,,,,AFNE05.jpg,AFSA05.jpg,AFNE14.jpg,AFSA18.jpg,AFNE14.jpg,FN,3,num_2,32,num_8,0.800099557382,,,2018_Jan_30_1843,59.9966324381,MAFE4ImagesEEG,001,202779,
AFNE01.JPG,AFNE01.JPG,AFNE01.JPG,AFNE01.JPG,AFNE01.JPG,AFNE01.JPG,,,,,,,,,,,,,0,7,7,9,,,,,,,,,,,AFNE04.jpg,AFSA18.jpg,AFSA15.jpg,AFNE05.jpg,AFNE04.jpg,FN,3,num_8,16,num_8,0.650112884236,,,2018_Jan_30_1843,59.9966324381,MAFE4ImagesEEG,001,202779,
AFNE01.JPG,AFNE01.JPG,AFNE01.JPG,AFNE01.JPG,AFNE01.JPG,AFNE01.JPG,,,,,,,,,,,,,0,8,8,7,,,,,,,,,,,AFNE19.jpg,AFNE12.jpg,AFSA14.jpg,AFSA04.jpg,AFNE19.jpg,FN,3,num_8,16,num_8,0.7167483964,,,2018_Jan_30_1843,59.9966324381,MAFE4ImagesEEG,001,202779,
AFNE01.JPG,AFNE01.JPG,AFNE01.JPG,AFNE01.JPG,AFNE01.JPG,AFNE01.JPG,,,,,,,,,,,,,0,9,9,0,,,,,,,,,,,AFNE04.jpg,AFSA11.jpg,AFSA08.jpg,AFNE12.jpg,AFSA11.jpg,FS,4,num_6,32,num_2,0.66684296634,,,2018_Jan_30_1843,59.9966324381,MAFE4ImagesEEG,001,202779,
AFNE01.JPG,AFNE01.JPG,AFNE01.JPG,AFNE01.JPG,AFNE01.JPG,AFNE01.JPG,,,,,,,,,,,,,1,0,10,0,,,,,,,,,,,AFNE06.jpg,AFSA12.jpg,AFNE01.jpg,AFSA20.jpg,AFSA20.jpg,FS,4,num_4,32,num_6,0.450189027702,,,2018_Jan_30_1843,59.9966324381,MAFE4ImagesEEG,001,202779,
AFNE01.JPG,AFNE01.JPG,AFNE01.JPG,AFNE01.JPG,AFNE01.JPG,AFNE01.JPG,,,,,,,,,,,,,1,1,11,7,,,,,,,,,,,AFNE03.jpg,AFSA10.jpg,AFSA02.jpg,AFNE11.jpg,AFNE11.jpg,FN,3,num_4,16,num_4,0.816835412988,,,2018_Jan_30_1843,59.9966324381,MAFE4ImagesEEG,001,202779,
AFNE01.JPG,AFNE01.JPG,AFNE01.JPG,AFNE01.JPG,AFNE01.JPG,AFNE01.JPG,,,,,,,,,,,,,1,2,12,8,,,,,,,,,,,AFSA15.jpg,AFNE04.jpg,AFSA03.jpg,AFNE05.jpg,AFNE04.jpg,FN,3,num_6,16,num_6,0.683461110573,,,2018_Jan_30_1843,59.9966324381,MAFE4ImagesEEG,001,202779,
AFNE01.JPG,AFNE01.JPG,AFNE01.JPG,AFNE01.JPG,AFNE01.JPG,AFNE01.JPG,,,,,,,,,,,,,1,3,13,4,,,,,,,,,,,AFNE11.jpg,AFSA18.jpg,AFNE19.jpg,AFSA17.jpg,AFSA18.jpg,FS,4,num_6,32,num_4,0.666780101485,,,2018_Jan_30_1843,59.9966324381,MAFE4ImagesEEG,001,202779,
AFNE01.JPG,AFNE01.JPG,AFNE01.JPG,AFNE01.JPG,AFNE01.JPG,AFNE01.JPG,,,,,,,,,,,,,1,4,14,2,,,,,,,,,,,AFSA11.jpg,AFSA06.jpg,AFNE18.jpg,AFNE12.jpg,AFSA06.jpg,FS,4,num_6,32,num_4,0.450143803493,,,2018_Jan_30_1843,59.9966324381,MAFE4ImagesEEG,001,202779,
AFNE01.JPG,AFNE01.JPG,AFNE01.JPG,AFNE01.JPG,AFNE01.JPG,AFNE01.JPG,,,,,,,,,,,,,1,5,15,9,,,,,,,,,,,AFNE11.jpg,AFSA09.jpg,AFNE02.jpg,AFSA08.jpg,AFNE02.jpg,FN,3,num_2,32,num_8,0.48370403843,,,2018_Jan_30_1843,59.9966324381,MAFE4ImagesEEG,001,202779,
AFNE01.JPG,AFNE01.JPG,AFNE01.JPG,AFNE01.JPG,AFNE01.JPG,AFNE01.JPG,,,,,,,,,,,,,1,6,16,6,,,,,,,,,,,AFSA12.jpg,AFNE06.jpg,AFNE04.jpg,AFSA14.jpg,AFSA12.jpg,FS,4,num_8,32,num_4,1.71682088345,,,2018_Jan_30_1843,59.9966324381,MAFE4ImagesEEG,001,202779,
AFNE01.JPG,AFNE01.JPG,AFNE01.JPG,AFNE01.JPG,AFNE01.JPG,AFNE01.JPG,,,,,,,,,,,,,1,7,17,5,,,,,,,,,,,AFNE17.jpg,AFSA12.jpg,AFSA11.jpg,AFNE02.jpg,AFNE02.jpg,FN,3,num_4,32,num_8,0.716797469533,,,2018_Jan_30_1843,59.9966324381,MAFE4ImagesEEG,001,202779,
AFNE01.JPG,AFNE01.JPG,AFNE01.JPG,AFNE01.JPG,AFNE01.JPG,AFNE01.JPG,,,,,,,,,,,,,1,8,18,1,,,,,,,,,,,AFNE01.jpg,AFSA15.jpg,AFNE09.jpg,AFSA04.jpg,AFNE01.jpg,FN,3,num_8,32,num_2,0.600128873135,,,2018_Jan_30_1843,59.9966324381,MAFE4ImagesEEG,001,202779,
AFNE01.JPG,AFNE01.JPG,AFNE01.JPG,AFNE01.JPG,AFNE01.JPG,AFNE01.JPG,,,,,,,,,,,,,1,9,19,3,,,,,,,,,,,AFNE15.jpg,AFSA04.jpg,AFSA10.jpg,AFNE01.jpg,AFSA04.jpg,FS,4,num_6,32,num_2,0.883461623685,,,2018_Jan_30_1843,59.9966324381,MAFE4ImagesEEG,001,202779,
AFNE01.JPG,AFNE01.JPG,AFNE01.JPG,AFNE01.JPG,AFNE01.JPG,AFNE01.JPG,,,,,,,,,,,,,2,0,20,3,,,,,,,,,,,AFNE20.jpg,AFSA09.jpg,AFNE07.jpg,AFSA04.jpg,AFNE20.jpg,FN,3,num_8,16,num_8,1.38310576347,,,2018_Jan_30_1843,59.9966324381,MAFE4ImagesEEG,001,202779,
AFNE01.JPG,AFNE01.JPG,AFNE01.JPG,AFNE01.JPG,AFNE01.JPG,AFNE01.JPG,,,,,,,,,,,,,2,1,21,9,,,,,,,,,,,AFNE19.jpg,AFSA16.jpg,AFSA13.jpg,AFNE15.jpg,AFNE15.jpg,FN,3,num_4,32,num_2,1.00010520243,,,2018_Jan_30_1843,59.9966324381,MAFE4ImagesEEG,001,202779,
AFNE01.JPG,AFNE01.JPG,AFNE01.JPG,AFNE01.JPG,AFNE01.JPG,AFNE01.JPG,,,,,,,,,,,,,2,2,22,7,,,,,,,,,,,AFSA18.jpg,AFNE10.jpg,AFSA12.jpg,AFNE13.jpg,AFNE10.jpg,FN,3,num_6,16,num_6,0.600134004955,,,2018_Jan_30_1843,59.9966324381,MAFE4ImagesEEG,001,202779,
AFNE01.JPG,AFNE01.JPG,AFNE01.JPG,AFNE01.JPG,AFNE01.JPG,AFNE01.JPG,,,,,,,,,,,,,2,3,23,5,,,,,,,,,,,AFSA17.jpg,AFNE13.jpg,AFNE11.jpg,AFSA04.jpg,AFNE13.jpg,FN,3,num_6,16,num_6,1.15037861664,,,2018_Jan_30_1843,59.9966324381,MAFE4ImagesEEG,001,202779,
AFNE01.JPG,AFNE01.JPG,AFNE01.JPG,AFNE01.JPG,AFNE01.JPG,AFNE01.JPG,,,,,,,,,,,,,2,4,24,0,,,,,,,,,,,AFNE16.jpg,AFSA05.jpg,AFSA17.jpg,AFNE17.jpg,AFSA05.jpg,FS,4,num_6,16,num_6,0.916771361255,,,2018_Jan_30_1843,59.9966324381,MAFE4ImagesEEG,001,202779,
AFNE01.JPG,AFNE01.JPG,AFNE01.JPG,AFNE01.JPG,AFNE01.JPG,AFNE01.JPG,,,,,,,,,,,,,2,5,25,8,,,,,,,,,,,AFSA20.jpg,AFNE19.jpg,AFSA02.jpg,AFNE12.jpg,AFNE12.jpg,FN,3,num_4,32,num_2,0.58349597489,,,2018_Jan_30_1843,59.9966324381,MAFE4ImagesEEG,001,202779,
AFNE01.JPG,AFNE01.JPG,AFNE01.JPG,AFNE01.JPG,AFNE01.JPG,AFNE01.JPG,,,,,,,,,,,,,2,6,26,2,,,,,,,,,,,AFNE05.jpg,AFSA02.jpg,AFNE08.jpg,AFSA09.jpg,AFSA09.jpg,FS,4,num_4,32,num_2,4.34983740118,,,2018_Jan_30_1843,59.9966324381,MAFE4ImagesEEG,001,202779,
AFNE01.JPG,AFNE01.JPG,AFNE01.JPG,AFNE01.JPG,AFNE01.JPG,AFNE01.JPG,,,,,,,,,,,,,2,7,27,6,,,,,,,,,,,AFSA07.jpg,AFNE06.jpg,AFSA10.jpg,AFNE10.jpg,AFSA10.jpg,FS,4,num_2,32,num_4,0.316778481705,,,2018_Jan_30_1843,59.9966324381,MAFE4ImagesEEG,001,202779,
AFNE01.JPG,AFNE01.JPG,AFNE01.JPG,AFNE01.JPG,AFNE01.JPG,AFNE01.JPG,,,,,,,,,,,,,2,8,28,1,,,,,,,,,,,AFNE08.jpg,AFNE09.jpg,AFSA15.jpg,AFSA10.jpg,AFSA10.jpg,FS,4,num_4,32,num_8,0.750154997339,,,2018_Jan_30_1843,59.9966324381,MAFE4ImagesEEG,001,202779,
AFNE01.JPG,AFNE01.JPG,AFNE01.JPG,AFNE01.JPG,AFNE01.JPG,AFNE01.JPG,,,,,,,,,,,,,2,9,29,4,,,,,,,,,,,AFNE06.jpg,AFSA14.jpg,AFNE04.jpg,AFSA17.jpg,AFSA14.jpg,FS,4,num_6,32,num_4,0.616791600012,,,2018_Jan_30_1843,59.9966324381,MAFE4ImagesEEG,001,202779,
AFNE01.JPG,AFNE01.JPG,AFNE01.JPG,AFNE01.JPG,AFNE01.JPG,AFNE01.JPG,,,,,,,,,,,,,3,0,30,4,,,,,,,,,,,AFNE09.jpg,AFNE07.jpg,AFSA13.jpg,AFSA03.jpg,AFSA03.jpg,FS,4,num_4,16,num_4,0.650100696133,,,2018_Jan_30_1843,59.9966324381,MAFE4ImagesEEG,001,202779,
AFNE01.JPG,AFNE01.JPG,AFNE01.JPG,AFNE01.JPG,AFNE01.JPG,AFNE01.JPG,,,,,,,,,,,,,3,1,31,6,,,,,,,,,,,AFSA15.jpg,AFSA03.jpg,AFNE06.jpg,AFNE05.jpg,AFSA15.jpg,FS,4,num_8,32,num_6,0.450232648291,,,2018_Jan_30_1843,59.9966324381,MAFE4ImagesEEG,001,202779,
AFNE01.JPG,AFNE01.JPG,AFNE01.JPG,AFNE01.JPG,AFNE01.JPG,AFNE01.JPG,,,,,,,,,,,,,3,2,32,2,,,,,,,,,,,AFSA03.jpg,AFSA17.jpg,AFNE20.jpg,AFNE03.jpg,AFNE03.jpg,FN,3,num_4,32,num_8,0.366798736388,,,2018_Jan_30_1843,59.9966324381,MAFE4ImagesEEG,001,202779,
AFNE01.JPG,AFNE01.JPG,AFNE01.JPG,AFNE01.JPG,AFNE01.JPG,AFNE01.JPG,,,,,,,,,,,,,3,3,33,0,,,,,,,,,,,AFNE12.jpg,AFSA18.jpg,AFSA02.jpg,AFNE07.jpg,AFSA02.jpg,FS,4,num_2,32,num_8,0.516780598555,,,2018_Jan_30_1843,59.9966324381,MAFE4ImagesEEG,001,202779,
AFNE01.JPG,AFNE01.JPG,AFNE01.JPG,AFNE01.JPG,AFNE01.JPG,AFNE01.JPG,,,,,,,,,,,,,3,4,34,8,,,,,,,,,,,AFNE16.jpg,AFSA08.jpg,AFSA06.jpg,AFNE03.jpg,AFNE16.jpg,FN,3,num_8,16,num_8,0.400157226366,,,2018_Jan_30_1843,59.9966324381,MAFE4ImagesEEG,001,202779,
AFNE01.JPG,AFNE01.JPG,AFNE01.JPG,AFNE01.JPG,AFNE01.JPG,AFNE01.JPG,,,,,,,,,,,,,3,5,35,5,,,,,,,,,,,AFNE05.jpg,AFNE11.jpg,AFSA04.jpg,AFSA16.jpg,AFSA04.jpg,FS,4,num_2,32,num_6,0.400186413666,,,2018_Jan_30_1843,59.9966324381,MAFE4ImagesEEG,001,202779,
AFNE01.JPG,AFNE01.JPG,AFNE01.JPG,AFNE01.JPG,AFNE01.JPG,AFNE01.JPG,,,,,,,,,,,,,3,6,36,3,,,,,,,,,,,AFNE10.jpg,AFNE20.jpg,AFSA14.jpg,AFSA06.jpg,AFNE20.jpg,FN,3,num_6,32,num_8,0.450121031026,,,2018_Jan_30_1843,59.9966324381,MAFE4ImagesEEG,001,202779,
AFNE01.JPG,AFNE01.JPG,AFNE01.JPG,AFNE01.JPG,AFNE01.JPG,AFNE01.JPG,,,,,,,,,,,,,3,7,37,1,,,,,,,,,,,AFNE12.jpg,AFSA18.jpg,AFSA09.jpg,AFNE16.jpg,AFSA18.jpg,FS,4,num_6,32,num_4,0.750116829295,,,2018_Jan_30_1843,59.9966324381,MAFE4ImagesEEG,001,202779,
AFNE01.JPG,AFNE01.JPG,AFNE01.JPG,AFNE01.JPG,AFNE01.JPG,AFNE01.JPG,,,,,,,,,,,,,3,8,38,7,,,,,,,,,,,AFSA15.jpg,AFNE13.jpg,AFNE03.jpg,AFSA03.jpg,AFSA03.jpg,FS,4,num_4,32,num_6,3.71651008702,,,2018_Jan_30_1843,59.9966324381,MAFE4ImagesEEG,001,202779,
AFNE01.JPG,AFNE01.JPG,AFNE01.JPG,AFNE01.JPG,AFNE01.JPG,AFNE01.JPG,,,,,,,,,,,,,3,9,39,9,,,,,,,,,,,AFNE16.jpg,AFSA11.jpg,AFNE07.jpg,AFSA09.jpg,AFNE07.jpg,FN,3,num_2,32,num_6,0.450139633846,,,2018_Jan_30_1843,59.9966324381,MAFE4ImagesEEG,001,202779,
AFNE01.JPG,AFNE01.JPG,AFNE01.JPG,AFNE01.JPG,AFNE01.JPG,AFNE01.JPG,,,,,,,,,,,,,4,0,40,6,,,,,,,,,,,AFNE15.jpg,AFSA11.jpg,AFNE07.jpg,AFSA15.jpg,AFSA11.jpg,FS,4,num_6,32,num_2,1.11674236646,,,2018_Jan_30_1843,59.9966324381,MAFE4ImagesEEG,001,202779,
AFNE01.JPG,AFNE01.JPG,AFNE01.JPG,AFNE01.JPG,AFNE01.JPG,AFNE01.JPG,,,,,,,,,,,,,4,1,41,1,,,,,,,,,,,AFSA07.jpg,AFNE17.jpg,AFSA09.jpg,AFNE10.jpg,AFNE17.jpg,FN,3,num_6,16,num_6,0.916755003622,,,2018_Jan_30_1843,59.9966324381,MAFE4ImagesEEG,001,202779,
AFNE01.JPG,AFNE01.JPG,AFNE01.JPG,AFNE01.JPG,AFNE01.JPG,AFNE01.JPG,,,,,,,,,,,,,4,2,42,8,,,,,,,,,,,AFSA03.jpg,AFNE18.jpg,AFNE03.jpg,AFSA16.jpg,AFNE18.jpg,FN,3,num_6,16,num_6,1.41644757497,,,2018_Jan_30_1843,59.9966324381,MAFE4ImagesEEG,001,202779,
AFNE01.JPG,AFNE01.JPG,AFNE01.JPG,AFNE01.JPG,AFNE01.JPG,AFNE01.JPG,,,,,,,,,,,,,4,3,43,0,,,,,,,,,,,AFNE19.jpg,AFSA18.jpg,AFSA19.jpg,AFNE08.jpg,AFSA18.jpg,FS,4,num_6,16,num_6,1.91668412019,,,2018_Jan_30_1843,59.9966324381,MAFE4ImagesEEG,001,202779,
AFNE01.JPG,AFNE01.JPG,AFNE01.JPG,AFNE01.JPG,AFNE01.JPG,AFNE01.JPG,,,,,,,,,,,,,4,4,44,9,,,,,,,,,,,AFSA03.jpg,AFSA08.jpg,AFNE13.jpg,AFNE18.jpg,AFSA03.jpg,FS,4,num_8,32,num_4,0.616824956844,,,2018_Jan_30_1843,59.9966324381,MAFE4ImagesEEG,001,202779,
AFNE01.JPG,AFNE01.JPG,AFNE01.JPG,AFNE01.JPG,AFNE01.JPG,AFNE01.JPG,,,,,,,,,,,,,4,5,45,5,,,,,,,,,,,AFNE11.jpg,AFSA18.jpg,AFSA02.jpg,AFNE03.jpg,AFSA18.jpg,FS,4,num_6,16,num_6,0.383514064597,,,2018_Jan_30_1843,59.9966324381,MAFE4ImagesEEG,001,202779,
AFNE01.JPG,AFNE01.JPG,AFNE01.JPG,AFNE01.JPG,AFNE01.JPG,AFNE01.JPG,,,,,,,,,,,,,4,6,46,3,,,,,,,,,,,AFNE04.jpg,AFSA18.jpg,AFNE13.jpg,AFSA11.jpg,AFSA11.jpg,FS,4,num_4,32,num_8,0.850131358835,,,2018_Jan_30_1843,59.9966324381,MAFE4ImagesEEG,001,202779,
AFNE01.JPG,AFNE01.JPG,AFNE01.JPG,AFNE01.JPG,AFNE01.JPG,AFNE01.JPG,,,,,,,,,,,,,4,7,47,2,,,,,,,,,,,AFSA17.jpg,AFNE20.jpg,AFNE07.jpg,AFSA14.jpg,AFSA14.jpg,FS,4,num_4,16,num_4,0.483487539459,,,2018_Jan_30_1843,59.9966324381,MAFE4ImagesEEG,001,202779,
AFNE01.JPG,AFNE01.JPG,AFNE01.JPG,AFNE01.JPG,AFNE01.JPG,AFNE01.JPG,,,,,,,,,,,,,4,8,48,4,,,,,,,,,,,AFSA06.jpg,AFNE05.jpg,AFSA15.jpg,AFNE07.jpg,AFSA15.jpg,FS,4,num_2,16,num_2,0.433527262998,,,2018_Jan_30_1843,59.9966324381,MAFE4ImagesEEG,001,202779,
AFNE01.JPG,AFNE01.JPG,AFNE01.JPG,AFNE01.JPG,AFNE01.JPG,AFNE01.JPG,,,,,,,,,,,,,4,9,49,7,,,,,,,,,,,AFSA05.jpg,AFNE02.jpg,AFSA09.jpg,AFNE14.jpg,AFSA05.jpg,FS,4,num_8,32,num_6,0.733421707759,,,2018_Jan_30_1843,59.9966324381,MAFE4ImagesEEG,001,202779,
AFNE01.JPG,AFNE01.JPG,AFNE01.JPG,AFNE01.JPG,AFNE01.JPG,AFNE01.JPG,,,,,,,,,,,,,5,0,50,0,,,,,,,,,,,AFSA04.jpg,AFSA08.jpg,AFNE19.jpg,AFNE15.jpg,AFNE15.jpg,FN,3,num_4,16,num_4,0.466788569,,,2018_Jan_30_1843,59.9966324381,MAFE4ImagesEEG,001,202779,
AFNE01.JPG,AFNE01.JPG,AFNE01.JPG,AFNE01.JPG,AFNE01.JPG,AFNE01.JPG,,,,,,,,,,,,,5,1,51,5,,,,,,,,,,,AFSA05.jpg,AFSA12.jpg,AFNE13.jpg,AFNE19.jpg,AFNE19.jpg,FN,3,num_4,16,num_4,0.666780422209,,,2018_Jan_30_1843,59.9966324381,MAFE4ImagesEEG,001,202779,
AFNE01.JPG,AFNE01.JPG,AFNE01.JPG,AFNE01.JPG,AFNE01.JPG,AFNE01.JPG,,,,,,,,,,,,,5,2,52,4,,,,,,,,,,,AFNE20.jpg,AFSA08.jpg,AFSA02.jpg,AFNE19.jpg,AFSA02.jpg,FS,4,num_2,32,num_8,0.616785826627,,,2018_Jan_30_1843,59.9966324381,MAFE4ImagesEEG,001,202779,
AFNE01.JPG,AFNE01.JPG,AFNE01.JPG,AFNE01.JPG,AFNE01.JPG,AFNE01.JPG,,,,,,,,,,,,,5,3,53,1,,,,,,,,,,,AFSA03.jpg,AFNE13.jpg,AFNE04.jpg,AFSA15.jpg,AFSA03.jpg,FS,4,num_8,32,num_6,0.750215296168,,,2018_Jan_30_1843,59.9966324381,MAFE4ImagesEEG,001,202779,
AFNE01.JPG,AFNE01.JPG,AFNE01.JPG,AFNE01.JPG,AFNE01.JPG,AFNE01.JPG,,,,,,,,,,,,,5,4,54,9,,,,,,,,,,,AFNE19.jpg,AFSA20.jpg,AFSA17.jpg,AFNE14.jpg,AFSA17.jpg,FS,4,num_2,32,num_8,0.550159936654,,,2018_Jan_30_1843,59.9966324381,MAFE4ImagesEEG,001,202779,
AFNE01.JPG,AFNE01.JPG,AFNE01.JPG,AFNE01.JPG,AFNE01.JPG,AFNE01.JPG,,,,,,,,,,,,,5,5,55,8,,,,,,,,,,,AFSA02.jpg,AFNE11.jpg,AFSA11.jpg,AFNE03.jpg,AFSA02.jpg,FS,4,num_8,32,num_6,0.53329963435,,,2018_Jan_30_1843,59.9966324381,MAFE4ImagesEEG,001,202779,
AFNE01.JPG,AFNE01.JPG,AFNE01.JPG,AFNE01.JPG,AFNE01.JPG,AFNE01.JPG,,,,,,,,,,,,,5,6,56,6,,,,,,,,,,,AFNE16.jpg,AFSA20.jpg,AFNE06.jpg,AFSA12.jpg,AFSA20.jpg,FS,4,num_6,32,num_8,0.366870261263,,,2018_Jan_30_1843,59.9966324381,MAFE4ImagesEEG,001,202779,
AFNE01.JPG,AFNE01.JPG,AFNE01.JPG,AFNE01.JPG,AFNE01.JPG,AFNE01.JPG,,,,,,,,,,,,,5,7,57,7,,,,,,,,,,,AFNE11.jpg,AFNE13.jpg,AFSA06.jpg,AFSA09.jpg,AFNE13.jpg,FN,3,num_6,32,num_2,0.600140419672,,,2018_Jan_30_1843,59.9966324381,MAFE4ImagesEEG,001,202779,
AFNE01.JPG,AFNE01.JPG,AFNE01.JPG,AFNE01.JPG,AFNE01.JPG,AFNE01.JPG,,,,,,,,,,,,,5,8,58,3,,,,,,,,,,,AFNE05.jpg,AFNE13.jpg,AFSA03.jpg,AFSA13.jpg,AFNE13.jpg,FN,3,num_6,16,num_6,0.616754394257,,,2018_Jan_30_1843,59.9966324381,MAFE4ImagesEEG,001,202779,
AFNE01.JPG,AFNE01.JPG,AFNE01.JPG,AFNE01.JPG,AFNE01.JPG,AFNE01.JPG,,,,,,,,,,,,,5,9,59,2,,,,,,,,,,,AFSA05.jpg,AFNE16.jpg,AFSA10.jpg,AFNE04.jpg,AFNE04.jpg,FN,3,num_4,32,num_8,0.350198232918,,,2018_Jan_30_1843,59.9966324381,MAFE4ImagesEEG,001,202779,
,,,,,,,,,,,,,,,,,,,,,,,,,,,,,,,,,,,,,,,,,,,space,10.1993911086,2018_Jan_30_1843,59.9966324381,MAFE4ImagesEEG,001,202779,
AFNE01.JPG,AFNE01.JPG,AFNE01.JPG,AFNE01.JPG,AFNE01.JPG,AFNE01.JPG,,,,,,,,,,,,,,,,,0,0,0,4,,,,,,,AMNE11.jpg,AMNE17.jpg,AMSA06.jpg,AMSA02.jpg,AMSA02.jpg,MS,2,num_4,32,num_6,1.93341131578,,,2018_Jan_30_1843,59.9966324381,MAFE4ImagesEEG,001,202779,
AFNE01.JPG,AFNE01.JPG,AFNE01.JPG,AFNE01.JPG,AFNE01.JPG,AFNE01.JPG,,,,,,,,,,,,,,,,,0,1,1,7,,,,,,,AMNE09.jpg,AMSA04.jpg,AMSA01.jpg,AMNE03.jpg,AMSA01.jpg,MS,2,num_2,16,num_2,0.383452482638,,,2018_Jan_30_1843,59.9966324381,MAFE4ImagesEEG,001,202779,
AFNE01.JPG,AFNE01.JPG,AFNE01.JPG,AFNE01.JPG,AFNE01.JPG,AFNE01.JPG,,,,,,,,,,,,,,,,,0,2,2,2,,,,,,,AMSA03.jpg,AMNE04.jpg,AMNE15.jpg,AMSA04.jpg,AMSA03.jpg,MS,2,num_8,32,num_4,0.70024379401,,,2018_Jan_30_1843,59.9966324381,MAFE4ImagesEEG,001,202779,
AFNE01.JPG,AFNE01.JPG,AFNE01.JPG,AFNE01.JPG,AFNE01.JPG,AFNE01.JPG,,,,,,,,,,,,,,,,,0,3,3,3,,,,,,,AMSA09.jpg,AMNE08.jpg,AMNE04.jpg,AMSA18.jpg,AMNE08.jpg,MN,1,num_6,16,num_6,0.483481124626,,,2018_Jan_30_1843,59.9966324381,MAFE4ImagesEEG,001,202779,
AFNE01.JPG,AFNE01.JPG,AFNE01.JPG,AFNE01.JPG,AFNE01.JPG,AFNE01.JPG,,,,,,,,,,,,,,,,,0,4,4,1,,,,,,,AMNE02.jpg,AMSA17.jpg,AMNE10.jpg,AMSA06.jpg,AMNE02.jpg,MN,1,num_8,32,num_4,0.650150410715,,,2018_Jan_30_1843,59.9966324381,MAFE4ImagesEEG,001,202779,
AFNE01.JPG,AFNE01.JPG,AFNE01.JPG,AFNE01.JPG,AFNE01.JPG,AFNE01.JPG,,,,,,,,,,,,,,,,,0,5,5,5,,,,,,,AMNE02.jpg,AMSA02.jpg,AMSA01.jpg,AMNE19.jpg,AMNE02.jpg,MN,1,num_8,32,num_6,0.300209731329,,,2018_Jan_30_1843,59.9966324381,MAFE4ImagesEEG,001,202779,
AFNE01.JPG,AFNE01.JPG,AFNE01.JPG,AFNE01.JPG,AFNE01.JPG,AFNE01.JPG,,,,,,,,,,,,,,,,,0,6,6,9,,,,,,,AMSA10.jpg,AMSA14.jpg,AMNE02.jpg,AMNE08.jpg,AMSA14.jpg,MS,2,num_6,32,num_8,0.833497498301,,,2018_Jan_30_1843,59.9966324381,MAFE4ImagesEEG,001,202779,
AFNE01.JPG,AFNE01.JPG,AFNE01.JPG,AFNE01.JPG,AFNE01.JPG,AFNE01.JPG,,,,,,,,,,,,,,,,,0,7,7,8,,,,,,,AMSA06.jpg,AMSA08.jpg,AMNE20.jpg,AMNE15.jpg,AMSA08.jpg,MS,2,num_6,16,num_6,0.516813634662,,,2018_Jan_30_1843,59.9966324381,MAFE4ImagesEEG,001,202779,
AFNE01.JPG,AFNE01.JPG,AFNE01.JPG,AFNE01.JPG,AFNE01.JPG,AFNE01.JPG,,,,,,,,,,,,,,,,,0,8,8,6,,,,,,,AMNE17.jpg,AMSA07.jpg,AMSA08.jpg,AMNE16.jpg,AMNE17.jpg,MN,1,num_8,32,num_6,0.550183029845,,,2018_Jan_30_1843,59.9966324381,MAFE4ImagesEEG,001,202779,
AFNE01.JPG,AFNE01.JPG,AFNE01.JPG,AFNE01.JPG,AFNE01.JPG,AFNE01.JPG,,,,,,,,,,,,,,,,,0,9,9,0,,,,,,,AMSA20.jpg,AMNE19.jpg,AMSA16.jpg,AMNE12.jpg,AMNE12.jpg,MN,1,num_4,32,num_8,0.316808310454,,,2018_Jan_30_1843,59.9966324381,MAFE4ImagesEEG,001,202779,
AFNE01.JPG,AFNE01.JPG,AFNE01.JPG,AFNE01.JPG,AFNE01.JPG,AFNE01.JPG,,,,,,,,,,,,,,,,,1,0,10,4,,,,,,,AMSA18.jpg,AMNE14.jpg,AMNE18.jpg,AMSA15.jpg,AMSA18.jpg,MS,2,num_8,32,num_4,0.650155542535,,,2018_Jan_30_1843,59.9966324381,MAFE4ImagesEEG,001,202779,
AFNE01.JPG,AFNE01.JPG,AFNE01.JPG,AFNE01.JPG,AFNE01.JPG,AFNE01.JPG,,,,,,,,,,,,,,,,,1,1,11,7,,,,,,,AMSA10.jpg,AMNE02.jpg,AMSA06.jpg,AMNE10.jpg,AMSA06.jpg,MS,2,num_2,32,num_8,0.283510760986,,,2018_Jan_30_1843,59.9966324381,MAFE4ImagesEEG,001,202779,
AFNE01.JPG,AFNE01.JPG,AFNE01.JPG,AFNE01.JPG,AFNE01.JPG,AFNE01.JPG,,,,,,,,,,,,,,,,,1,2,12,0,,,,,,,AMSA02.jpg,AMNE09.jpg,AMNE08.jpg,AMSA04.jpg,AMNE09.jpg,MN,1,num_6,32,num_8,0.633530662861,,,2018_Jan_30_1843,59.9966324381,MAFE4ImagesEEG,001,202779,
AFNE01.JPG,AFNE01.JPG,AFNE01.JPG,AFNE01.JPG,AFNE01.JPG,AFNE01.JPG,,,,,,,,,,,,,,,,,1,3,13,9,,,,,,,AMSA05.jpg,AMNE10.jpg,AMSA02.jpg,AMNE08.jpg,AMSA02.jpg,MS,2,num_2,32,num_8,0.333501507528,,,2018_Jan_30_1843,59.9966324381,MAFE4ImagesEEG,001,202779,
AFNE01.JPG,AFNE01.JPG,AFNE01.JPG,AFNE01.JPG,AFNE01.JPG,AFNE01.JPG,,,,,,,,,,,,,,,,,1,4,14,3,,,,,,,AMSA04.jpg,AMNE16.jpg,AMNE15.jpg,AMSA18.jpg,AMSA04.jpg,MS,2,num_8,32,num_6,0.300346366363,,,2018_Jan_30_1843,59.9966324381,MAFE4ImagesEEG,001,202779,
AFNE01.JPG,AFNE01.JPG,AFNE01.JPG,AFNE01.JPG,AFNE01.JPG,AFNE01.JPG,,,,,,,,,,,,,,,,,1,5,15,8,,,,,,,AMSA15.jpg,AMSA11.jpg,AMNE20.jpg,AMNE06.jpg,AMNE20.jpg,MN,1,num_2,32,num_8,0.733455706155,,,2018_Jan_30_1843,59.9966324381,MAFE4ImagesEEG,001,202779,
AFNE01.JPG,AFNE01.JPG,AFNE01.JPG,AFNE01.JPG,AFNE01.JPG,AFNE01.JPG,,,,,,,,,,,,,,,,,1,6,16,2,,,,,,,AMNE02.jpg,AMSA08.jpg,AMNE19.jpg,AMSA12.jpg,AMNE19.jpg,MN,1,num_2,32,num_4,0.61681341019,,,2018_Jan_30_1843,59.9966324381,MAFE4ImagesEEG,001,202779,
AFNE01.JPG,AFNE01.JPG,AFNE01.JPG,AFNE01.JPG,AFNE01.JPG,AFNE01.JPG,,,,,,,,,,,,,,,,,1,7,17,6,,,,,,,AMNE01.jpg,AMSA12.jpg,AMNE09.jpg,AMSA03.jpg,AMNE09.jpg,MN,1,num_2,32,num_6,0.566853454453,,,2018_Jan_30_1843,59.9966324381,MAFE4ImagesEEG,001,202779,
AFNE01.JPG,AFNE01.JPG,AFNE01.JPG,AFNE01.JPG,AFNE01.JPG,AFNE01.JPG,,,,,,,,,,,,,,,,,1,8,18,1,,,,,,,AMSA05.jpg,AMSA11.jpg,AMNE11.jpg,AMNE07.jpg,AMSA11.jpg,MS,2,num_6,32,num_8,0.583510087454,,,2018_Jan_30_1843,59.9966324381,MAFE4ImagesEEG,001,202779,
AFNE01.JPG,AFNE01.JPG,AFNE01.JPG,AFNE01.JPG,AFNE01.JPG,AFNE01.JPG,,,,,,,,,,,,,,,,,1,9,19,5,,,,,,,AMSA18.jpg,AMNE18.jpg,AMNE04.jpg,AMSA06.jpg,AMNE18.jpg,MN,1,num_6,16,num_6,0.633432516595,,,2018_Jan_30_1843,59.9966324381,MAFE4ImagesEEG,001,202779,
AFNE01.JPG,AFNE01.JPG,AFNE01.JPG,AFNE01.JPG,AFNE01.JPG,AFNE01.JPG,,,,,,,,,,,,,,,,,2,0,20,7,,,,,,,AMNE10.jpg,AMSA02.jpg,AMNE07.jpg,AMSA14.jpg,AMSA14.jpg,MS,2,num_4,32,num_8,0.416808085982,,,2018_Jan_30_1843,59.9966324381,MAFE4ImagesEEG,001,202779,
AFNE01.JPG,AFNE01.JPG,AFNE01.JPG,AFNE01.JPG,AFNE01.JPG,AFNE01.JPG,,,,,,,,,,,,,,,,,2,1,21,5,,,,,,,AMNE01.jpg,AMSA11.jpg,AMNE19.jpg,AMSA12.jpg,AMNE01.jpg,MN,1,num_8,16,num_8,0.416786275688,,,2018_Jan_30_1843,59.9966324381,MAFE4ImagesEEG,001,202779,
AFNE01.JPG,AFNE01.JPG,AFNE01.JPG,AFNE01.JPG,AFNE01.JPG,AFNE01.JPG,,,,,,,,,,,,,,,,,2,2,22,8,,,,,,,AMNE15.jpg,AMSA09.jpg,AMNE19.jpg,AMSA03.jpg,AMSA09.jpg,MS,2,num_6,32,num_8,1.03329787031,,,2018_Jan_30_1843,59.9966324381,MAFE4ImagesEEG,001,202779,
AFNE01.JPG,AFNE01.JPG,AFNE01.JPG,AFNE01.JPG,AFNE01.JPG,AFNE01.JPG,,,,,,,,,,,,,,,,,2,3,23,3,,,,,,,AMNE16.jpg,AMNE09.jpg,AMSA01.jpg,AMSA16.jpg,AMNE16.jpg,MN,1,num_8,32,num_6,0.450111408834,,,2018_Jan_30_1843,59.9966324381,MAFE4ImagesEEG,001,202779,
AFNE01.JPG,AFNE01.JPG,AFNE01.JPG,AFNE01.JPG,AFNE01.JPG,AFNE01.JPG,,,,,,,,,,,,,,,,,2,4,24,9,,,,,,,AMSA02.jpg,AMNE18.jpg,AMSA06.jpg,AMNE01.jpg,AMNE18.jpg,MN,1,num_6,32,num_4,0.350114840665,,,2018_Jan_30_1843,59.9966324381,MAFE4ImagesEEG,001,202779,
AFNE01.JPG,AFNE01.JPG,AFNE01.JPG,AFNE01.JPG,AFNE01.JPG,AFNE01.JPG,,,,,,,,,,,,,,,,,2,5,25,2,,,,,,,AMNE01.jpg,AMSA20.jpg,AMNE09.jpg,AMSA15.jpg,AMSA20.jpg,MS,2,num_6,32,num_4,0.55013556045,,,2018_Jan_30_1843,59.9966324381,MAFE4ImagesEEG,001,202779,
AFNE01.JPG,AFNE01.JPG,AFNE01.JPG,AFNE01.JPG,AFNE01.JPG,AFNE01.JPG,,,,,,,,,,,,,,,,,2,6,26,1,,,,,,,AMNE14.jpg,AMSA09.jpg,AMNE18.jpg,AMSA17.jpg,AMSA17.jpg,MS,2,num_4,32,num_6,0.333492206177,,,2018_Jan_30_1843,59.9966324381,MAFE4ImagesEEG,001,202779,
AFNE01.JPG,AFNE01.JPG,AFNE01.JPG,AFNE01.JPG,AFNE01.JPG,AFNE01.JPG,,,,,,,,,,,,,,,,,2,7,27,6,,,,,,,AMNE15.jpg,AMSA09.jpg,AMSA18.jpg,AMNE08.jpg,AMNE08.jpg,MN,1,num_4,16,num_4,0.300189845497,,,2018_Jan_30_1843,59.9966324381,MAFE4ImagesEEG,001,202779,
AFNE01.JPG,AFNE01.JPG,AFNE01.JPG,AFNE01.JPG,AFNE01.JPG,AFNE01.JPG,,,,,,,,,,,,,,,,,2,8,28,0,,,,,,,AMNE12.jpg,AMSA18.jpg,AMNE07.jpg,AMSA10.jpg,AMSA10.jpg,MS,2,num_4,32,num_8,0.333534543752,,,2018_Jan_30_1843,59.9966324381,MAFE4ImagesEEG,001,202779,
AFNE01.JPG,AFNE01.JPG,AFNE01.JPG,AFNE01.JPG,AFNE01.JPG,AFNE01.JPG,,,,,,,,,,,,,,,,,2,9,29,4,,,,,,,AMNE11.jpg,AMSA13.jpg,AMNE08.jpg,AMSA11.jpg,AMSA13.jpg,MS,2,num_6,32,num_8,0.366800019285,,,2018_Jan_30_1843,59.9966324381,MAFE4ImagesEEG,001,202779,
AFNE01.JPG,AFNE01.JPG,AFNE01.JPG,AFNE01.JPG,AFNE01.JPG,AFNE01.JPG,,,,,,,,,,,,,,,,,3,0,30,3,,,,,,,AMSA06.jpg,AMNE01.jpg,AMNE16.jpg,AMSA02.jpg,AMSA02.jpg,MS,2,num_4,32,num_2,0.61677941191,,,2018_Jan_30_1843,59.9966324381,MAFE4ImagesEEG,001,202779,
AFNE01.JPG,AFNE01.JPG,AFNE01.JPG,AFNE01.JPG,AFNE01.JPG,AFNE01.JPG,,,,,,,,,,,,,,,,,3,1,31,0,,,,,,,AMSA19.jpg,AMNE10.jpg,AMNE11.jpg,AMSA20.jpg,AMSA19.jpg,MS,2,num_8,32,num_6,0.633471646812,,,2018_Jan_30_1843,59.9966324381,MAFE4ImagesEEG,001,202779,
AFNE01.JPG,AFNE01.JPG,AFNE01.JPG,AFNE01.JPG,AFNE01.JPG,AFNE01.JPG,,,,,,,,,,,,,,,,,3,2,32,5,,,,,,,AMNE19.jpg,AMSA14.jpg,AMNE17.jpg,AMSA04.jpg,AMSA04.jpg,MS,2,num_4,32,num_6,0.583457486238,,,2018_Jan_30_1843,59.9966324381,MAFE4ImagesEEG,001,202779,
AFNE01.JPG,AFNE01.JPG,AFNE01.JPG,AFNE01.JPG,AFNE01.JPG,AFNE01.JPG,,,,,,,,,,,,,,,,,3,3,33,7,,,,,,,AMNE15.jpg,AMNE11.jpg,AMSA11.jpg,AMSA19.jpg,AMSA19.jpg,MS,2,num_4,32,num_6,0.700202097883,,,2018_Jan_30_1843,59.9966324381,MAFE4ImagesEEG,001,202779,
AFNE01.JPG,AFNE01.JPG,AFNE01.JPG,AFNE01.JPG,AFNE01.JPG,AFNE01.JPG,,,,,,,,,,,,,,,,,3,4,34,4,,,,,,,AMNE10.jpg,AMSA16.jpg,AMSA09.jpg,AMNE07.jpg,AMNE07.jpg,MN,1,num_4,16,num_4,0.833509365679,,,2018_Jan_30_1843,59.9966324381,MAFE4ImagesEEG,001,202779,
AFNE01.JPG,AFNE01.JPG,AFNE01.JPG,AFNE01.JPG,AFNE01.JPG,AFNE01.JPG,,,,,,,,,,,,,,,,,3,5,35,2,,,,,,,AMSA01.jpg,AMNE08.jpg,AMSA17.jpg,AMNE01.jpg,AMNE08.jpg,MN,1,num_6,32,num_4,0.450153425569,,,2018_Jan_30_1843,59.9966324381,MAFE4ImagesEEG,001,202779,
AFNE01.JPG,AFNE01.JPG,AFNE01.JPG,AFNE01.JPG,AFNE01.JPG,AFNE01.JPG,,,,,,,,,,,,,,,,,3,6,36,8,,,,,,,AMNE15.jpg,AMSA08.jpg,AMSA16.jpg,AMNE13.jpg,AMSA16.jpg,MS,2,num_2,16,num_2,0.416798784514,,,2018_Jan_30_1843,59.9966324381,MAFE4ImagesEEG,001,202779,
AFNE01.JPG,AFNE01.JPG,AFNE01.JPG,AFNE01.JPG,AFNE01.JPG,AFNE01.JPG,,,,,,,,,,,,,,,,,3,7,37,1,,,,,,,AMNE04.jpg,AMSA14.jpg,AMNE05.jpg,AMSA09.jpg,AMSA09.jpg,MS,2,num_4,32,num_6,0.683463355759,,,2018_Jan_30_1843,59.9966324381,MAFE4ImagesEEG,001,202779,
AFNE01.JPG,AFNE01.JPG,AFNE01.JPG,AFNE01.JPG,AFNE01.JPG,AFNE01.JPG,,,,,,,,,,,,,,,,,3,8,38,9,,,,,,,AMNE04.jpg,AMSA06.jpg,AMSA01.jpg,AMNE07.jpg,AMNE04.jpg,MN,1,num_8,32,num_4,0.766759991064,,,2018_Jan_30_1843,59.9966324381,MAFE4ImagesEEG,001,202779,
AFNE01.JPG,AFNE01.JPG,AFNE01.JPG,AFNE01.JPG,AFNE01.JPG,AFNE01.JPG,,,,,,,,,,,,,,,,,3,9,39,6,,,,,,,AMSA12.jpg,AMNE18.jpg,AMSA09.jpg,AMNE01.jpg,AMSA09.jpg,MS,2,num_2,32,num_4,0.50013262569,,,2018_Jan_30_1843,59.9966324381,MAFE4ImagesEEG,001,202779,
AFNE01.JPG,AFNE01.JPG,AFNE01.JPG,AFNE01.JPG,AFNE01.JPG,AFNE01.JPG,,,,,,,,,,,,,,,,,4,0,40,2,,,,,,,AMNE16.jpg,AMSA01.jpg,AMNE04.jpg,AMSA03.jpg,AMNE16.jpg,MN,1,num_8,32,num_4,0.416785954963,,,2018_Jan_30_1843,59.9966324381,MAFE4ImagesEEG,001,202779,
AFNE01.JPG,AFNE01.JPG,AFNE01.JPG,AFNE01.JPG,AFNE01.JPG,AFNE01.JPG,,,,,,,,,,,,,,,,,4,1,41,6,,,,,,,AMNE09.jpg,AMSA04.jpg,AMNE17.jpg,AMSA12.jpg,AMSA04.jpg,MS,2,num_6,16,num_6,0.366847809521,,,2018_Jan_30_1843,59.9966324381,MAFE4ImagesEEG,001,202779,
AFNE01.JPG,AFNE01.JPG,AFNE01.JPG,AFNE01.JPG,AFNE01.JPG,AFNE01.JPG,,,,,,,,,,,,,,,,,4,2,42,4,,,,,,,AMSA16.jpg,AMNE06.jpg,AMSA03.jpg,AMNE19.jpg,AMSA16.jpg,MS,2,num_8,16,num_8,0.866846366203,,,2018_Jan_30_1843,59.9966324381,MAFE4ImagesEEG,001,202779,
AFNE01.JPG,AFNE01.JPG,AFNE01.JPG,AFNE01.JPG,AFNE01.JPG,AFNE01.JPG,,,,,,,,,,,,,,,,,4,3,43,8,,,,,,,AMSA10.jpg,AMNE06.jpg,AMSA18.jpg,AMNE02.jpg,AMSA18.jpg,MS,2,num_2,16,num_2,0.566874623415,,,2018_Jan_30_1843,59.9966324381,MAFE4ImagesEEG,001,202779,
AFNE01.JPG,AFNE01.JPG,AFNE01.JPG,AFNE01.JPG,AFNE01.JPG,AFNE01.JPG,,,,,,,,,,,,,,,,,4,4,44,1,,,,,,,AMSA09.jpg,AMNE11.jpg,AMSA14.jpg,AMNE05.jpg,AMNE11.jpg,MN,1,num_6,16,num_6,0.650141429971,,,2018_Jan_30_1843,59.9966324381,MAFE4ImagesEEG,001,202779,
AFNE01.JPG,AFNE01.JPG,AFNE01.JPG,AFNE01.JPG,AFNE01.JPG,AFNE01.JPG,,,,,,,,,,,,,,,,,4,5,45,3,,,,,,,AMSA02.jpg,AMNE19.jpg,AMSA16.jpg,AMNE06.jpg,AMSA02.jpg,MS,2,num_8,32,num_2,0.31680831057,,,2018_Jan_30_1843,59.9966324381,MAFE4ImagesEEG,001,202779,
AFNE01.JPG,AFNE01.JPG,AFNE01.JPG,AFNE01.JPG,AFNE01.JPG,AFNE01.JPG,,,,,,,,,,,,,,,,,4,6,46,7,,,,,,,AMNE13.jpg,AMSA10.jpg,AMSA15.jpg,AMNE04.jpg,AMSA15.jpg,MS,2,num_2,32,num_6,0.533494964591,,,2018_Jan_30_1843,59.9966324381,MAFE4ImagesEEG,001,202779,
AFNE01.JPG,AFNE01.JPG,AFNE01.JPG,AFNE01.JPG,AFNE01.JPG,AFNE01.JPG,,,,,,,,,,,,,,,,,4,7,47,9,,,,,,,AMSA16.jpg,AMNE08.jpg,AMSA06.jpg,AMNE04.jpg,AMSA16.jpg,MS,2,num_8,16,num_8,0.78347948892,,,2018_Jan_30_1843,59.9966324381,MAFE4ImagesEEG,001,202779,
AFNE01.JPG,AFNE01.JPG,AFNE01.JPG,AFNE01.JPG,AFNE01.JPG,AFNE01.JPG,,,,,,,,,,,,,,,,,4,8,48,0,,,,,,,AMNE11.jpg,AMSA08.jpg,AMNE17.jpg,AMSA10.jpg,AMSA08.jpg,MS,2,num_6,16,num_6,1.01675606205,,,2018_Jan_30_1843,59.9966324381,MAFE4ImagesEEG,001,202779,
AFNE01.JPG,AFNE01.JPG,AFNE01.JPG,AFNE01.JPG,AFNE01.JPG,AFNE01.JPG,,,,,,,,,,,,,,,,,4,9,49,5,,,,,,,AMNE11.jpg,AMSA13.jpg,AMNE14.jpg,AMSA16.jpg,AMNE11.jpg,MN,1,num_8,16,num_8,0.366768586915,,,2018_Jan_30_1843,59.9966324381,MAFE4ImagesEEG,001,202779,
AFNE01.JPG,AFNE01.JPG,AFNE01.JPG,AFNE01.JPG,AFNE01.JPG,AFNE01.JPG,,,,,,,,,,,,,,,,,5,0,50,7,,,,,,,AMNE06.jpg,AMSA13.jpg,AMSA08.jpg,AMNE12.jpg,AMNE06.jpg,MN,1,num_8,32,num_6,0.416817066725,,,2018_Jan_30_1843,59.9966324381,MAFE4ImagesEEG,001,202779,
AFNE01.JPG,AFNE01.JPG,AFNE01.JPG,AFNE01.JPG,AFNE01.JPG,AFNE01.JPG,,,,,,,,,,,,,,,,,5,1,51,2,,,,,,,AMSA20.jpg,AMNE10.jpg,AMNE16.jpg,AMSA05.jpg,AMNE10.jpg,MN,1,num_6,32,num_8,0.383523686789,,,2018_Jan_30_1843,59.9966324381,MAFE4ImagesEEG,001,202779,
AFNE01.JPG,AFNE01.JPG,AFNE01.JPG,AFNE01.JPG,AFNE01.JPG,AFNE01.JPG,,,,,,,,,,,,,,,,,5,2,52,4,,,,,,,AMSA19.jpg,AMNE11.jpg,AMSA12.jpg,AMNE14.jpg,AMNE14.jpg,MN,1,num_4,32,num_8,0.616771072615,,,2018_Jan_30_1843,59.9966324381,MAFE4ImagesEEG,001,202779,
AFNE01.JPG,AFNE01.JPG,AFNE01.JPG,AFNE01.JPG,AFNE01.JPG,AFNE01.JPG,,,,,,,,,,,,,,,,,5,3,53,6,,,,,,,AMSA19.jpg,AMNE19.jpg,AMNE14.jpg,AMSA08.jpg,AMSA19.jpg,MS,2,num_8,32,num_4,0.733450253494,,,2018_Jan_30_1843,59.9966324381,MAFE4ImagesEEG,001,202779,
AFNE01.JPG,AFNE01.JPG,AFNE01.JPG,AFNE01.JPG,AFNE01.JPG,AFNE01.JPG,,,,,,,,,,,,,,,,,5,4,54,1,,,,,,,AMSA08.jpg,AMNE07.jpg,AMSA17.jpg,AMNE20.jpg,AMSA08.jpg,MS,2,num_8,32,num_6,0.316858987208,,,2018_Jan_30_1843,59.9966324381,MAFE4ImagesEEG,001,202779,
AFNE01.JPG,AFNE01.JPG,AFNE01.JPG,AFNE01.JPG,AFNE01.JPG,AFNE01.JPG,,,,,,,,,,,,,,,,,5,5,55,3,,,,,,,AMSA02.jpg,AMNE03.jpg,AMNE14.jpg,AMSA13.jpg,AMSA13.jpg,MS,2,num_4,32,num_6,0.450161123299,,,2018_Jan_30_1843,59.9966324381,MAFE4ImagesEEG,001,202779,
AFNE01.JPG,AFNE01.JPG,AFNE01.JPG,AFNE01.JPG,AFNE01.JPG,AFNE01.JPG,,,,,,,,,,,,,,,,,5,6,56,9,,,,,,,AMNE19.jpg,AMSA17.jpg,AMSA06.jpg,AMNE18.jpg,AMNE19.jpg,MN,1,num_8,16,num_8,0.35017385683,,,2018_Jan_30_1843,59.9966324381,MAFE4ImagesEEG,001,202779,
AFNE01.JPG,AFNE01.JPG,AFNE01.JPG,AFNE01.JPG,AFNE01.JPG,AFNE01.JPG,,,,,,,,,,,,,,,,,5,7,57,0,,,,,,,AMSA13.jpg,AMNE13.jpg,AMSA03.jpg,AMNE08.jpg,AMSA03.jpg,MS,2,num_2,32,num_6,0.566788665252,,,2018_Jan_30_1843,59.9966324381,MAFE4ImagesEEG,001,202779,
AFNE01.JPG,AFNE01.JPG,AFNE01.JPG,AFNE01.JPG,AFNE01.JPG,AFNE01.JPG,,,,,,,,,,,,,,,,,5,8,58,8,,,,,,,AMSA18.jpg,AMSA14.jpg,AMNE19.jpg,AMNE09.jpg,AMSA14.jpg,MS,2,num_6,32,num_4,0.50015058706,,,2018_Jan_30_1843,59.9966324381,MAFE4ImagesEEG,001,202779,
AFNE01.JPG,AFNE01.JPG,AFNE01.JPG,AFNE01.JPG,AFNE01.JPG,AFNE01.JPG,,,,,,,,,,,,,,,,,5,9,59,5,,,,,,,AMNE15.jpg,AMNE09.jpg,AMSA07.jpg,AMSA10.jpg,AMSA10.jpg,MS,2,num_4,16,num_4,0.850162791205,,,2018_Jan_30_1843,59.9966324381,MAFE4ImagesEEG,001,202779,
,,,,,,,,,,,,,,,,,,,,,,,,,,,,,,,,,,,,,,,,,,,space,6.43302979635,2018_Jan_30_1843,59.9966324381,MAFE4ImagesEEG,001,202779,
AFNE01.JPG,AFNE01.JPG,AFNE01.JPG,AFNE01.JPG,AFNE01.JPG,AFNE01.JPG,,,,,,,,,,,,,,,,,,,,,0,0,0,0,,,AFNE05.jpg,AFSA19.jpg,AFSA08.jpg,AFNE02.jpg,AFSA08.jpg,FS,4,num_2,32,num_4,0.716841731453,,,2018_Jan_30_1843,59.9966324381,MAFE4ImagesEEG,001,202779,
AFNE01.JPG,AFNE01.JPG,AFNE01.JPG,AFNE01.JPG,AFNE01.JPG,AFNE01.JPG,,,,,,,,,,,,,,,,,,,,,0,1,1,9,,,AFNE15.jpg,AFSA04.jpg,AFNE03.jpg,AFSA10.jpg,AFNE15.jpg,FN,3,num_8,32,num_6,1.08342396887,,,2018_Jan_30_1843,59.9966324381,MAFE4ImagesEEG,001,202779,
AFNE01.JPG,AFNE01.JPG,AFNE01.JPG,AFNE01.JPG,AFNE01.JPG,AFNE01.JPG,,,,,,,,,,,,,,,,,,,,,0,2,2,8,,,AFNE10.jpg,AFSA14.jpg,AFNE05.jpg,AFSA15.jpg,AFSA14.jpg,FS,4,num_6,32,num_2,0.999933286221,,,2018_Jan_30_1843,59.9966324381,MAFE4ImagesEEG,001,202779,
AFNE01.JPG,AFNE01.JPG,AFNE01.JPG,AFNE01.JPG,AFNE01.JPG,AFNE01.JPG,,,,,,,,,,,,,,,,,,,,,0,3,3,2,,,AFNE15.jpg,AFSA08.jpg,AFNE03.jpg,AFSA01.jpg,AFNE15.jpg,FN,3,num_8,16,num_8,0.750157242408,,,2018_Jan_30_1843,59.9966324381,MAFE4ImagesEEG,001,202779,
AFNE01.JPG,AFNE01.JPG,AFNE01.JPG,AFNE01.JPG,AFNE01.JPG,AFNE01.JPG,,,,,,,,,,,,,,,,,,,,,0,4,4,5,,,AFSA16.jpg,AFNE06.jpg,AFNE05.jpg,AFSA07.jpg,AFNE05.jpg,FN,3,num_2,32,num_8,0.799981846125,,,2018_Jan_30_1843,59.9966324381,MAFE4ImagesEEG,001,202779,
AFNE01.JPG,AFNE01.JPG,AFNE01.JPG,AFNE01.JPG,AFNE01.JPG,AFNE01.JPG,,,,,,,,,,,,,,,,,,,,,0,5,5,1,,,AFSA03.jpg,AFNE15.jpg,AFNE20.jpg,AFSA06.jpg,AFSA03.jpg,FS,4,num_8,16,num_8,0.900109275943,,,2018_Jan_30_1843,59.9966324381,MAFE4ImagesEEG,001,202779,
AFNE01.JPG,AFNE01.JPG,AFNE01.JPG,AFNE01.JPG,AFNE01.JPG,AFNE01.JPG,,,,,,,,,,,,,,,,,,,,,0,6,6,7,,,AFNE07.jpg,AFNE05.jpg,AFSA06.jpg,AFSA20.jpg,AFSA20.jpg,FS,4,num_4,32,num_6,0.600395086571,,,2018_Jan_30_1843,59.9966324381,MAFE4ImagesEEG,001,202779,
AFNE01.JPG,AFNE01.JPG,AFNE01.JPG,AFNE01.JPG,AFNE01.JPG,AFNE01.JPG,,,,,,,,,,,,,,,,,,,,,0,7,7,4,,,AFSA17.jpg,AFNE17.jpg,AFNE18.jpg,AFSA01.jpg,AFSA01.jpg,FS,4,num_4,32,num_2,0.550169558846,,,2018_Jan_30_1843,59.9966324381,MAFE4ImagesEEG,001,202779,
AFNE01.JPG,AFNE01.JPG,AFNE01.JPG,AFNE01.JPG,AFNE01.JPG,AFNE01.JPG,,,,,,,,,,,,,,,,,,,,,0,8,8,6,,,AFSA03.jpg,AFNE02.jpg,AFNE15.jpg,AFSA15.jpg,AFNE15.jpg,FN,3,num_2,32,num_4,0.283445330104,,,2018_Jan_30_1843,59.9966324381,MAFE4ImagesEEG,001,202779,
AFNE01.JPG,AFNE01.JPG,AFNE01.JPG,AFNE01.JPG,AFNE01.JPG,AFNE01.JPG,,,,,,,,,,,,,,,,,,,,,0,9,9,3,,,AFNE07.jpg,AFSA02.jpg,AFNE02.jpg,AFSA13.jpg,AFSA02.jpg,FS,4,num_6,32,num_8,0.533479889855,,,2018_Jan_30_1843,59.9966324381,MAFE4ImagesEEG,001,202779,
AFNE01.JPG,AFNE01.JPG,AFNE01.JPG,AFNE01.JPG,AFNE01.JPG,AFNE01.JPG,,,,,,,,,,,,,,,,,,,,,1,0,10,3,,,AFNE09.jpg,AFNE12.jpg,AFSA10.jpg,AFSA20.jpg,AFNE09.jpg,FN,3,num_8,32,num_6,0.800130027696,,,2018_Jan_30_1843,59.9966324381,MAFE4ImagesEEG,001,202779,
AFNE01.JPG,AFNE01.JPG,AFNE01.JPG,AFNE01.JPG,AFNE01.JPG,AFNE01.JPG,,,,,,,,,,,,,,,,,,,,,1,1,11,5,,,AFNE01.jpg,AFNE20.jpg,AFSA02.jpg,AFSA01.jpg,AFNE20.jpg,FN,3,num_6,32,num_4,0.31681312155,,,2018_Jan_30_1843,59.9966324381,MAFE4ImagesEEG,001,202779,
AFNE01.JPG,AFNE01.JPG,AFNE01.JPG,AFNE01.JPG,AFNE01.JPG,AFNE01.JPG,,,,,,,,,,,,,,,,,,,,,1,2,12,4,,,AFSA04.jpg,AFNE04.jpg,AFSA19.jpg,AFNE17.jpg,AFNE04.jpg,FN,3,num_6,32,num_4,0.483548159129,,,2018_Jan_30_1843,59.9966324381,MAFE4ImagesEEG,001,202779,
AFNE01.JPG,AFNE01.JPG,AFNE01.JPG,AFNE01.JPG,AFNE01.JPG,AFNE01.JPG,,,,,,,,,,,,,,,,,,,,,1,3,13,7,,,AFNE01.jpg,AFSA02.jpg,AFSA17.jpg,AFNE19.jpg,AFNE01.jpg,FN,3,num_8,32,num_4,0.316788745346,,,2018_Jan_30_1843,59.9966324381,MAFE4ImagesEEG,001,202779,
AFNE01.JPG,AFNE01.JPG,AFNE01.JPG,AFNE01.JPG,AFNE01.JPG,AFNE01.JPG,,,,,,,,,,,,,,,,,,,,,1,4,14,1,,,AFSA08.jpg,AFSA05.jpg,AFNE02.jpg,AFNE05.jpg,AFSA05.jpg,FS,4,num_6,32,num_4,0.616871143226,,,2018_Jan_30_1843,59.9966324381,MAFE4ImagesEEG,001,202779,
AFNE01.JPG,AFNE01.JPG,AFNE01.JPG,AFNE01.JPG,AFNE01.JPG,AFNE01.JPG,,,,,,,,,,,,,,,,,,,,,1,5,15,6,,,AFSA11.jpg,AFSA13.jpg,AFNE04.jpg,AFNE06.jpg,AFSA13.jpg,FS,4,num_6,32,num_8,0.38348872622,,,2018_Jan_30_1843,59.9966324381,MAFE4ImagesEEG,001,202779,
AFNE01.JPG,AFNE01.JPG,AFNE01.JPG,AFNE01.JPG,AFNE01.JPG,AFNE01.JPG,,,,,,,,,,,,,,,,,,,,,1,6,16,2,,,AFSA05.jpg,AFNE03.jpg,AFNE20.jpg,AFSA11.jpg,AFSA11.jpg,FS,4,num_4,32,num_6,0.466780229821,,,2018_Jan_30_1843,59.9966324381,MAFE4ImagesEEG,001,202779,
AFNE01.JPG,AFNE01.JPG,AFNE01.JPG,AFNE01.JPG,AFNE01.JPG,AFNE01.JPG,,,,,,,,,,,,,,,,,,,,,1,7,17,0,,,AFSA02.jpg,AFNE06.jpg,AFNE11.jpg,AFSA12.jpg,AFSA02.jpg,FS,4,num_8,16,num_8,0.516989399912,,,2018_Jan_30_1843,59.9966324381,MAFE4ImagesEEG,001,202779,
AFNE01.JPG,AFNE01.JPG,AFNE01.JPG,AFNE01.JPG,AFNE01.JPG,AFNE01.JPG,,,,,,,,,,,,,,,,,,,,,1,8,18,8,,,AFNE18.jpg,AFSA10.jpg,AFSA13.jpg,AFNE13.jpg,AFSA13.jpg,FS,4,num_2,32,num_6,0.483472785447,,,2018_Jan_30_1843,59.9966324381,MAFE4ImagesEEG,001,202779,
AFNE01.JPG,AFNE01.JPG,AFNE01.JPG,AFNE01.JPG,AFNE01.JPG,AFNE01.JPG,,,,,,,,,,,,,,,,,,,,,1,9,19,9,,,AFSA07.jpg,AFNE20.jpg,AFNE17.jpg,AFSA12.jpg,AFSA12.jpg,FS,4,num_4,16,num_4,0.516788617009,,,2018_Jan_30_1843,59.9966324381,MAFE4ImagesEEG,001,202779,
AFNE01.JPG,AFNE01.JPG,AFNE01.JPG,AFNE01.JPG,AFNE01.JPG,AFNE01.JPG,,,,,,,,,,,,,,,,,,,,,2,0,20,7,,,AFSA06.jpg,AFNE11.jpg,AFSA09.jpg,AFNE08.jpg,AFNE08.jpg,FN,3,num_4,32,num_8,0.650125393062,,,2018_Jan_30_1843,59.9966324381,MAFE4ImagesEEG,001,202779,
AFNE01.JPG,AFNE01.JPG,AFNE01.JPG,AFNE01.JPG,AFNE01.JPG,AFNE01.JPG,,,,,,,,,,,,,,,,,,,,,2,1,21,1,,,AFNE17.jpg,AFSA12.jpg,AFNE11.jpg,AFSA16.jpg,AFSA12.jpg,FS,4,num_6,32,num_4,0.46680909628,,,2018_Jan_30_1843,59.9966324381,MAFE4ImagesEEG,001,202779,
AFNE01.JPG,AFNE01.JPG,AFNE01.JPG,AFNE01.JPG,AFNE01.JPG,AFNE01.JPG,,,,,,,,,,,,,,,,,,,,,2,2,22,5,,,AFSA01.jpg,AFSA07.jpg,AFNE18.jpg,AFNE08.jpg,AFNE08.jpg,FN,3,num_4,16,num_4,0.383468840271,,,2018_Jan_30_1843,59.9966324381,MAFE4ImagesEEG,001,202779,
AFNE01.JPG,AFNE01.JPG,AFNE01.JPG,AFNE01.JPG,AFNE01.JPG,AFNE01.JPG,,,,,,,,,,,,,,,,,,,,,2,3,23,4,,,AFNE17.jpg,AFSA01.jpg,AFNE05.jpg,AFSA13.jpg,AFNE05.jpg,FN,3,num_2,32,num_6,0.55016218184,,,2018_Jan_30_1843,59.9966324381,MAFE4ImagesEEG,001,202779,
AFNE01.JPG,AFNE01.JPG,AFNE01.JPG,AFNE01.JPG,AFNE01.JPG,AFNE01.JPG,,,,,,,,,,,,,,,,,,,,,2,4,24,3,,,AFNE01.jpg,AFSA09.jpg,AFNE04.jpg,AFSA15.jpg,AFSA15.jpg,FS,4,num_4,16,num_4,0.650119299069,,,2018_Jan_30_1843,59.9966324381,MAFE4ImagesEEG,001,202779,
AFNE01.JPG,AFNE01.JPG,AFNE01.JPG,AFNE01.JPG,AFNE01.JPG,AFNE01.JPG,,,,,,,,,,,,,,,,,,,,,2,5,25,8,,,AFSA02.jpg,AFNE02.jpg,AFSA15.jpg,AFNE19.jpg,AFNE19.jpg,FN,3,num_4,32,num_6,0.816708400263,,,2018_Jan_30_1843,59.9966324381,MAFE4ImagesEEG,001,202779,
AFNE01.JPG,AFNE01.JPG,AFNE01.JPG,AFNE01.JPG,AFNE01.JPG,AFNE01.JPG,,,,,,,,,,,,,,,,,,,,,2,6,26,0,,,AFNE07.jpg,AFNE19.jpg,AFSA12.jpg,AFSA02.jpg,AFNE19.jpg,FN,3,num_6,16,num_6,0.783498733188,,,2018_Jan_30_1843,59.9966324381,MAFE4ImagesEEG,001,202779,
AFNE01.JPG,AFNE01.JPG,AFNE01.JPG,AFNE01.JPG,AFNE01.JPG,AFNE01.JPG,,,,,,,,,,,,,,,,,,,,,2,7,27,6,,,AFNE16.jpg,AFSA19.jpg,AFNE08.jpg,AFSA13.jpg,AFNE16.jpg,FN,3,num_8,32,num_6,0.899832157185,,,2018_Jan_30_1843,59.9966324381,MAFE4ImagesEEG,001,202779,
AFNE01.JPG,AFNE01.JPG,AFNE01.JPG,AFNE01.JPG,AFNE01.JPG,AFNE01.JPG,,,,,,,,,,,,,,,,,,,,,2,8,28,9,,,AFSA20.jpg,AFNE07.jpg,AFSA09.jpg,AFNE10.jpg,AFSA20.jpg,FS,4,num_8,16,num_8,0.650123147876,,,2018_Jan_30_1843,59.9966324381,MAFE4ImagesEEG,001,202779,
AFNE01.JPG,AFNE01.JPG,AFNE01.JPG,AFNE01.JPG,AFNE01.JPG,AFNE01.JPG,,,,,,,,,,,,,,,,,,,,,2,9,29,2,,,AFSA02.jpg,AFNE04.jpg,AFSA05.jpg,AFNE06.jpg,AFSA02.jpg,FS,4,num_8,16,num_8,0.550124013796,,,2018_Jan_30_1843,59.9966324381,MAFE4ImagesEEG,001,202779,
AFNE01.JPG,AFNE01.JPG,AFNE01.JPG,AFNE01.JPG,AFNE01.JPG,AFNE01.JPG,,,,,,,,,,,,,,,,,,,,,3,0,30,5,,,AFSA19.jpg,AFNE17.jpg,AFSA11.jpg,AFNE08.jpg,AFNE08.jpg,FN,3,num_4,16,num_4,0.800139649888,,,2018_Jan_30_1843,59.9966324381,MAFE4ImagesEEG,001,202779,
AFNE01.JPG,AFNE01.JPG,AFNE01.JPG,AFNE01.JPG,AFNE01.JPG,AFNE01.JPG,,,,,,,,,,,,,,,,,,,,,3,1,31,8,,,AFSA09.jpg,AFNE19.jpg,AFNE10.jpg,AFSA15.jpg,AFSA15.jpg,FS,4,num_4,16,num_4,0.51682293613,,,2018_Jan_30_1843,59.9966324381,MAFE4ImagesEEG,001,202779,
AFNE01.JPG,AFNE01.JPG,AFNE01.JPG,AFNE01.JPG,AFNE01.JPG,AFNE01.JPG,,,,,,,,,,,,,,,,,,,,,3,2,32,1,,,AFNE16.jpg,AFNE04.jpg,AFSA03.jpg,AFSA19.jpg,AFNE04.jpg,FN,3,num_6,16,num_6,0.783466338646,,,2018_Jan_30_1843,59.9966324381,MAFE4ImagesEEG,001,202779,
AFNE01.JPG,AFNE01.JPG,AFNE01.JPG,AFNE01.JPG,AFNE01.JPG,AFNE01.JPG,,,,,,,,,,,,,,,,,,,,,3,3,33,7,,,AFNE06.jpg,AFSA04.jpg,AFNE05.jpg,AFSA09.jpg,AFSA09.jpg,FS,4,num_4,32,num_8,0.65012090269,,,2018_Jan_30_1843,59.9966324381,MAFE4ImagesEEG,001,202779,
AFNE01.JPG,AFNE01.JPG,AFNE01.JPG,AFNE01.JPG,AFNE01.JPG,AFNE01.JPG,,,,,,,,,,,,,,,,,,,,,3,4,34,3,,,AFNE19.jpg,AFSA10.jpg,AFSA01.jpg,AFNE18.jpg,AFSA01.jpg,FS,4,num_2,32,num_8,0.316668468178,,,2018_Jan_30_1843,59.9966324381,MAFE4ImagesEEG,001,202779,
AFNE01.JPG,AFNE01.JPG,AFNE01.JPG,AFNE01.JPG,AFNE01.JPG,AFNE01.JPG,,,,,,,,,,,,,,,,,,,,,3,5,35,9,,,AFNE20.jpg,AFSA15.jpg,AFSA20.jpg,AFNE09.jpg,AFNE09.jpg,FN,3,num_4,32,num_6,0.300205561914,,,2018_Jan_30_1843,59.9966324381,MAFE4ImagesEEG,001,202779,
AFNE01.JPG,AFNE01.JPG,AFNE01.JPG,AFNE01.JPG,AFNE01.JPG,AFNE01.JPG,,,,,,,,,,,,,,,,,,,,,3,6,36,4,,,AFNE11.jpg,AFSA19.jpg,AFNE08.jpg,AFSA05.jpg,AFSA05.jpg,FS,4,num_4,16,num_4,0.333493809914,,,2018_Jan_30_1843,59.9966324381,MAFE4ImagesEEG,001,202779,
AFNE01.JPG,AFNE01.JPG,AFNE01.JPG,AFNE01.JPG,AFNE01.JPG,AFNE01.JPG,,,,,,,,,,,,,,,,,,,,,3,7,37,0,,,AFNE16.jpg,AFNE12.jpg,AFSA17.jpg,AFSA04.jpg,AFNE12.jpg,FN,3,num_6,16,num_6,0.36679969856,,,2018_Jan_30_1843,59.9966324381,MAFE4ImagesEEG,001,202779,
AFNE01.JPG,AFNE01.JPG,AFNE01.JPG,AFNE01.JPG,AFNE01.JPG,AFNE01.JPG,,,,,,,,,,,,,,,,,,,,,3,8,38,2,,,AFSA02.jpg,AFNE20.jpg,AFSA04.jpg,AFNE12.jpg,AFSA02.jpg,FS,4,num_8,16,num_8,0.266811469803,,,2018_Jan_30_1843,59.9966324381,MAFE4ImagesEEG,001,202779,
