IPosition2,IPosition3,IPosition1,IPosition6,IPosition4,IPosition5,TrialsM1.thisRepN,TrialsM1.thisTrialN,TrialsM1.thisN,TrialsM1.thisIndex,TrialsF1.thisRepN,TrialsF1.thisTrialN,TrialsF1.thisN,TrialsF1.thisIndex,TrialsM2.thisRepN,TrialsM2.thisTrialN,TrialsM2.thisN,TrialsM2.thisIndex,TrialsF2.thisRepN,TrialsF2.thisTrialN,TrialsF2.thisN,TrialsF2.thisIndex,TrialsM3.thisRepN,TrialsM3.thisTrialN,TrialsM3.thisN,TrialsM3.thisIndex,TrialsF3.thisRepN,TrialsF3.thisTrialN,TrialsF3.thisN,TrialsF3.thisIndex,InstrKey_resp.keys,InstrKey_resp.rt,Image0 _Position,Image1 _Position,Image2 _Position,Image3 _Position,Center_image,condition,code,correct_answer,accuracy,Key_Resp.keys,Key_Resp.rt,BreakKey_resp.keys,BreakKey_resp.rt,date,frameRate,expName,session,participant,
,,,,,,,,,,,,,,,,,,,,,,,,,,,,,,space,9.81617308631,,,,,,,,,,,,,,2018_Jan_25_1906,59.9945543405,MAFE4ImagesEEG,001,202782,
AFSA25.JPG,AFNE24.JPG,AFSA24.JPG,AFNE21.JPG,AFSA21.JPG,AFNE25.JPG,0,0,0,2,,,,,,,,,,,,,,,,,,,,,,,AMNE12.jpg,AMSA01.jpg,AMNE16.jpg,AMSA06.jpg,AMNE12.jpg,MN,1,num_8,16,num_8,1.38343612493,,,2018_Jan_25_1906,59.9945543405,MAFE4ImagesEEG,001,202782,
AMNE23.JPG,AMNE24.JPG,AMNE22.JPG,AMSA24.JPG,AMSA22.JPG,AMSA23.JPG,0,1,1,9,,,,,,,,,,,,,,,,,,,,,,,AMNE20.jpg,AMNE03.jpg,AMSA05.jpg,AMSA13.jpg,AMSA05.jpg,MS,2,num_2,16,num_2,0.750293877383,,,2018_Jan_25_1906,59.9945543405,MAFE4ImagesEEG,001,202782,
AFSA21.JPG,AFNE22.JPG,AFNE21.JPG,AFSA23.JPG,AFSA22.JPG,AFNE23.JPG,0,2,2,0,,,,,,,,,,,,,,,,,,,,,,,AMSA12.jpg,AMNE09.jpg,AMSA17.jpg,AMNE20.jpg,AMNE20.jpg,MN,1,num_4,32,num_2,0.76676833033,,,2018_Jan_25_1906,59.9945543405,MAFE4ImagesEEG,001,202782,
AFNE23.JPG,AFNE24.JPG,AFNE22.JPG,AFSA24.JPG,AFSA22.JPG,AFSA23.JPG,0,3,3,8,,,,,,,,,,,,,,,,,,,,,,,AMNE05.jpg,AMNE01.jpg,AMSA01.jpg,AMSA06.jpg,AMNE01.jpg,MN,1,num_6,32,num_2,0.616773959307,,,2018_Jan_25_1906,59.9945543405,MAFE4ImagesEEG,001,202782,
AMSA25.JPG,AMNE24.JPG,AMSA24.JPG,AMNE26.JPG,AMSA21.JPG,AMNE25.JPG,0,4,4,3,,,,,,,,,,,,,,,,,,,,,,,AMNE01.jpg,AMNE05.jpg,AMSA01.jpg,AMSA16.jpg,AMNE05.jpg,MN,1,num_6,16,num_6,0.633465232022,,,2018_Jan_25_1906,59.9945543405,MAFE4ImagesEEG,001,202782,
AFSA21.JPG,AFNE23.JPG,AFNE21.JPG,AFSA25.JPG,AFNE25.JPG,AFSA23.JPG,0,5,5,4,,,,,,,,,,,,,,,,,,,,,,,AMSA06.jpg,AMNE03.jpg,AMNE18.jpg,AMSA18.jpg,AMNE18.jpg,MN,1,num_2,16,num_2,0.683462072746,,,2018_Jan_25_1906,59.9945543405,MAFE4ImagesEEG,001,202782,
AMSA21.JPG,AMNE22.JPG,AMNE21.JPG,AMSA23.JPG,AMSA22.JPG,AMNE23.JPG,0,6,6,1,,,,,,,,,,,,,,,,,,,,,,,AMNE08.jpg,AMSA05.jpg,AMSA02.jpg,AMNE20.jpg,AMSA05.jpg,MS,2,num_6,32,num_2,0.633455289106,,,2018_Jan_25_1906,59.9945543405,MAFE4ImagesEEG,001,202782,
AMSA21.JPG,AMNE23.JPG,AMNE21.JPG,AMSA25.JPG,AMNE25.JPG,AMSA23.JPG,0,7,7,5,,,,,,,,,,,,,,,,,,,,,,,AMSA15.jpg,AMNE20.jpg,AMNE12.jpg,AMSA14.jpg,AMNE12.jpg,MN,1,num_2,16,num_2,0.766759991107,,,2018_Jan_25_1906,59.9945543405,MAFE4ImagesEEG,001,202782,
AMNE22.JPG,AMSA24.JPG,AMSA22.JPG,AMNE25.JPG,AMNE24.JPG,AMSA25.JPG,0,8,8,7,,,,,,,,,,,,,,,,,,,,,,,AMSA20.jpg,AMNE19.jpg,AMSA10.jpg,AMNE01.jpg,AMNE19.jpg,MN,1,num_6,32,num_2,1.60015613589,,,2018_Jan_25_1906,59.9945543405,MAFE4ImagesEEG,001,202782,
AFNE22.JPG,AFSA24.JPG,AFSA22.JPG,AFNE25.JPG,AFNE24.JPG,AFSA25.JPG,0,9,9,6,,,,,,,,,,,,,,,,,,,,,,,AMSA02.jpg,AMNE19.jpg,AMNE09.jpg,AMSA07.jpg,AMNE09.jpg,MN,1,num_2,16,num_2,0.766800725003,,,2018_Jan_25_1906,59.9945543405,MAFE4ImagesEEG,001,202782,
AMNE23.JPG,AMNE24.JPG,AMNE22.JPG,AMSA24.JPG,AMSA22.JPG,AMSA23.JPG,,,,,0,0,0,9,,,,,,,,,,,,,,,,,,,AFNE01.jpg,AFSA18.jpg,AFNE05.jpg,AFSA12.jpg,AFSA18.jpg,FS,4,num_6,32,num_8,0.950111569153,,,2018_Jan_25_1906,59.9945543405,MAFE4ImagesEEG,001,202782,
AFNE23.JPG,AFNE24.JPG,AFNE22.JPG,AFSA24.JPG,AFSA22.JPG,AFSA23.JPG,,,,,0,1,1,8,,,,,,,,,,,,,,,,,,,AFNE06.jpg,AFSA03.jpg,AFNE17.jpg,AFSA01.jpg,AFSA01.jpg,FS,4,num_4,32,num_6,0.733532683502,,,2018_Jan_25_1906,59.9945543405,MAFE4ImagesEEG,001,202782,
AFSA21.JPG,AFNE22.JPG,AFNE21.JPG,AFSA23.JPG,AFSA22.JPG,AFNE23.JPG,,,,,0,2,2,0,,,,,,,,,,,,,,,,,,,AFNE15.jpg,AFSA02.jpg,AFNE06.jpg,AFSA04.jpg,AFNE06.jpg,FN,3,num_2,32,num_6,0.600161909199,,,2018_Jan_25_1906,59.9945543405,MAFE4ImagesEEG,001,202782,
AFSA21.JPG,AFNE23.JPG,AFNE21.JPG,AFSA25.JPG,AFNE25.JPG,AFSA23.JPG,,,,,0,3,3,4,,,,,,,,,,,,,,,,,,,AFNE08.jpg,AFSA11.jpg,AFNE16.jpg,AFSA12.jpg,AFSA11.jpg,FS,4,num_6,16,num_6,0.633522644348,,,2018_Jan_25_1906,59.9945543405,MAFE4ImagesEEG,001,202782,
AFSA25.JPG,AFNE24.JPG,AFSA24.JPG,AFNE21.JPG,AFSA21.JPG,AFNE25.JPG,,,,,0,4,4,2,,,,,,,,,,,,,,,,,,,AFNE15.jpg,AFNE08.jpg,AFSA08.jpg,AFSA03.jpg,AFSA08.jpg,FS,4,num_2,16,num_2,1.31676661437,,,2018_Jan_25_1906,59.9945543405,MAFE4ImagesEEG,001,202782,
AMSA21.JPG,AMNE22.JPG,AMNE21.JPG,AMSA23.JPG,AMSA22.JPG,AMNE23.JPG,,,,,0,5,5,1,,,,,,,,,,,,,,,,,,,AFSA14.jpg,AFNE09.jpg,AFSA13.jpg,AFNE12.jpg,AFSA13.jpg,FS,4,num_2,16,num_2,0.716783356955,,,2018_Jan_25_1906,59.9945543405,MAFE4ImagesEEG,001,202782,
AFNE22.JPG,AFSA24.JPG,AFSA22.JPG,AFNE25.JPG,AFNE24.JPG,AFSA25.JPG,,,,,0,6,6,6,,,,,,,,,,,,,,,,,,,AFNE06.jpg,AFSA12.jpg,AFSA14.jpg,AFNE02.jpg,AFSA14.jpg,FS,4,num_2,16,num_2,0.700173231293,,,2018_Jan_25_1906,59.9945543405,MAFE4ImagesEEG,001,202782,
AMNE22.JPG,AMSA24.JPG,AMSA22.JPG,AMNE25.JPG,AMNE24.JPG,AMSA25.JPG,,,,,0,7,7,7,,,,,,,,,,,,,,,,,,,AFNE13.jpg,AFSA04.jpg,AFSA06.jpg,AFNE11.jpg,AFSA04.jpg,FS,4,num_6,16,num_6,0.650212634107,,,2018_Jan_25_1906,59.9945543405,MAFE4ImagesEEG,001,202782,
AMSA21.JPG,AMNE23.JPG,AMNE21.JPG,AMSA25.JPG,AMNE25.JPG,AMSA23.JPG,,,,,0,8,8,5,,,,,,,,,,,,,,,,,,,AFSA05.jpg,AFSA04.jpg,AFNE04.jpg,AFNE10.jpg,AFSA04.jpg,FS,4,num_6,16,num_6,0.533561999066,,,2018_Jan_25_1906,59.9945543405,MAFE4ImagesEEG,001,202782,
AMSA25.JPG,AMNE24.JPG,AMSA24.JPG,AMNE26.JPG,AMSA21.JPG,AMNE25.JPG,,,,,0,9,9,3,,,,,,,,,,,,,,,,,,,AFNE04.jpg,AFSA07.jpg,AFNE19.jpg,AFSA16.jpg,AFSA16.jpg,FS,4,num_4,16,num_4,0.883456171141,,,2018_Jan_25_1906,59.9945543405,MAFE4ImagesEEG,001,202782,
AMSA21.JPG,AMNE23.JPG,AMNE21.JPG,AMSA25.JPG,AMNE25.JPG,AMSA23.JPG,,,,,,,,,0,0,0,5,,,,,,,,,,,,,,,AMNE01.jpg,AMSA16.jpg,AMNE05.jpg,AMSA03.jpg,AMSA16.jpg,MS,2,num_6,16,num_6,0.916615802766,,,2018_Jan_25_1906,59.9945543405,MAFE4ImagesEEG,001,202782,
AMSA21.JPG,AMNE22.JPG,AMNE21.JPG,AMSA23.JPG,AMSA22.JPG,AMNE23.JPG,,,,,,,,,0,1,1,1,,,,,,,,,,,,,,,AMNE01.jpg,AMNE12.jpg,AMSA03.jpg,AMSA07.jpg,AMNE01.jpg,MN,1,num_8,32,num_6,0.650133090778,,,2018_Jan_25_1906,59.9945543405,MAFE4ImagesEEG,001,202782,
AFNE22.JPG,AFSA24.JPG,AFSA22.JPG,AFNE25.JPG,AFNE24.JPG,AFSA25.JPG,,,,,,,,,0,2,2,6,,,,,,,,,,,,,,,AMSA12.jpg,AMNE04.jpg,AMNE08.jpg,AMSA20.jpg,AMSA12.jpg,MS,2,num_8,16,num_8,0.850221807268,,,2018_Jan_25_1906,59.9945543405,MAFE4ImagesEEG,001,202782,
AFSA21.JPG,AFNE22.JPG,AFNE21.JPG,AFSA23.JPG,AFSA22.JPG,AFNE23.JPG,,,,,,,,,0,3,3,0,,,,,,,,,,,,,,,AMSA09.jpg,AMSA06.jpg,AMNE17.jpg,AMNE06.jpg,AMNE17.jpg,MN,1,num_2,32,num_6,0.500037366117,,,2018_Jan_25_1906,59.9945543405,MAFE4ImagesEEG,001,202782,
AFSA25.JPG,AFNE24.JPG,AFSA24.JPG,AFNE21.JPG,AFSA21.JPG,AFNE25.JPG,,,,,,,,,0,4,4,2,,,,,,,,,,,,,,,AMNE09.jpg,AMSA09.jpg,AMSA18.jpg,AMNE16.jpg,AMSA09.jpg,MS,2,num_6,16,num_6,0.666810571696,,,2018_Jan_25_1906,59.9945543405,MAFE4ImagesEEG,001,202782,
AMSA25.JPG,AMNE24.JPG,AMSA24.JPG,AMNE26.JPG,AMSA21.JPG,AMNE25.JPG,,,,,,,,,0,5,5,3,,,,,,,,,,,,,,,AMNE08.jpg,AMSA15.jpg,AMNE12.jpg,AMSA16.jpg,AMNE12.jpg,MN,1,num_2,32,num_6,0.666815703531,,,2018_Jan_25_1906,59.9945543405,MAFE4ImagesEEG,001,202782,
AFNE23.JPG,AFNE24.JPG,AFNE22.JPG,AFSA24.JPG,AFSA22.JPG,AFSA23.JPG,,,,,,,,,0,6,6,8,,,,,,,,,,,,,,,AMSA18.jpg,AMNE07.jpg,AMNE19.jpg,AMSA15.jpg,AMSA18.jpg,MS,2,num_8,16,num_8,0.433464718837,,,2018_Jan_25_1906,59.9945543405,MAFE4ImagesEEG,001,202782,
AMNE23.JPG,AMNE24.JPG,AMNE22.JPG,AMSA24.JPG,AMSA22.JPG,AMSA23.JPG,,,,,,,,,0,7,7,9,,,,,,,,,,,,,,,AMSA15.jpg,AMNE07.jpg,AMSA04.jpg,AMNE10.jpg,AMSA04.jpg,MS,2,num_2,16,num_2,0.850192940721,,,2018_Jan_25_1906,59.9945543405,MAFE4ImagesEEG,001,202782,
AMNE22.JPG,AMSA24.JPG,AMSA22.JPG,AMNE25.JPG,AMNE24.JPG,AMSA25.JPG,,,,,,,,,0,8,8,7,,,,,,,,,,,,,,,AMNE11.jpg,AMNE07.jpg,AMSA14.jpg,AMSA19.jpg,AMSA14.jpg,MS,2,num_2,16,num_2,0.583481220878,,,2018_Jan_25_1906,59.9945543405,MAFE4ImagesEEG,001,202782,
AFSA21.JPG,AFNE23.JPG,AFNE21.JPG,AFSA25.JPG,AFNE25.JPG,AFSA23.JPG,,,,,,,,,0,9,9,4,,,,,,,,,,,,,,,AMSA03.jpg,AMNE15.jpg,AMNE12.jpg,AMSA16.jpg,AMNE15.jpg,MN,1,num_6,16,num_6,0.400231637919,,,2018_Jan_25_1906,59.9945543405,MAFE4ImagesEEG,001,202782,
AMSA21.JPG,AMNE23.JPG,AMNE21.JPG,AMSA25.JPG,AMNE25.JPG,AMSA23.JPG,,,,,,,,,,,,,0,0,0,5,,,,,,,,,,,AFNE13.jpg,AFNE19.jpg,AFSA06.jpg,AFSA13.jpg,AFNE13.jpg,FN,3,num_8,16,num_8,0.850142584648,,,2018_Jan_25_1906,59.9945543405,MAFE4ImagesEEG,001,202782,
AFNE23.JPG,AFNE24.JPG,AFNE22.JPG,AFSA24.JPG,AFSA22.JPG,AFSA23.JPG,,,,,,,,,,,,,0,1,1,8,,,,,,,,,,,AFSA17.jpg,AFNE04.jpg,AFSA18.jpg,AFNE02.jpg,AFNE02.jpg,FN,3,num_4,32,num_6,0.366780775017,,,2018_Jan_25_1906,59.9945543405,MAFE4ImagesEEG,001,202782,
AFSA21.JPG,AFNE22.JPG,AFNE21.JPG,AFSA23.JPG,AFSA22.JPG,AFNE23.JPG,,,,,,,,,,,,,0,2,2,0,,,,,,,,,,,AFSA13.jpg,AFNE16.jpg,AFSA12.jpg,AFNE09.jpg,AFNE16.jpg,FN,3,num_6,16,num_6,0.783466017834,,,2018_Jan_25_1906,59.9945543405,MAFE4ImagesEEG,001,202782,
AMNE23.JPG,AMNE24.JPG,AMNE22.JPG,AMSA24.JPG,AMSA22.JPG,AMSA23.JPG,,,,,,,,,,,,,0,3,3,9,,,,,,,,,,,AFNE14.jpg,AFSA13.jpg,AFNE08.jpg,AFSA07.jpg,AFNE08.jpg,FN,3,num_2,32,num_6,0.950204583554,,,2018_Jan_25_1906,59.9945543405,MAFE4ImagesEEG,001,202782,
AMNE22.JPG,AMSA24.JPG,AMSA22.JPG,AMNE25.JPG,AMNE24.JPG,AMSA25.JPG,,,,,,,,,,,,,0,4,4,7,,,,,,,,,,,AFNE04.jpg,AFNE12.jpg,AFSA15.jpg,AFSA05.jpg,AFNE12.jpg,FN,3,num_6,32,num_2,0.816789547229,,,2018_Jan_25_1906,59.9945543405,MAFE4ImagesEEG,001,202782,
AFSA21.JPG,AFNE23.JPG,AFNE21.JPG,AFSA25.JPG,AFNE25.JPG,AFSA23.JPG,,,,,,,,,,,,,0,5,5,4,,,,,,,,,,,AFSA17.jpg,AFNE10.jpg,AFSA20.jpg,AFNE19.jpg,AFSA20.jpg,FS,4,num_2,32,num_6,0.733481685951,,,2018_Jan_25_1906,59.9945543405,MAFE4ImagesEEG,001,202782,
AFNE22.JPG,AFSA24.JPG,AFSA22.JPG,AFNE25.JPG,AFNE24.JPG,AFSA25.JPG,,,,,,,,,,,,,0,6,6,6,,,,,,,,,,,AFNE08.jpg,AFSA16.jpg,AFNE13.jpg,AFSA13.jpg,AFSA13.jpg,FS,4,num_4,32,num_6,0.483507746016,,,2018_Jan_25_1906,59.9945543405,MAFE4ImagesEEG,001,202782,
AMSA25.JPG,AMNE24.JPG,AMSA24.JPG,AMNE26.JPG,AMSA21.JPG,AMNE25.JPG,,,,,,,,,,,,,0,7,7,3,,,,,,,,,,,AFNE07.jpg,AFSA05.jpg,AFSA07.jpg,AFNE17.jpg,AFNE07.jpg,FN,3,num_8,32,num_6,0.466661556216,,,2018_Jan_25_1906,59.9945543405,MAFE4ImagesEEG,001,202782,
AFSA25.JPG,AFNE24.JPG,AFSA24.JPG,AFNE21.JPG,AFSA21.JPG,AFNE25.JPG,,,,,,,,,,,,,0,8,8,2,,,,,,,,,,,AFNE19.jpg,AFSA05.jpg,AFSA04.jpg,AFNE11.jpg,AFNE19.jpg,FN,3,num_8,32,num_6,0.783499695463,,,2018_Jan_25_1906,59.9945543405,MAFE4ImagesEEG,001,202782,
AMSA21.JPG,AMNE22.JPG,AMNE21.JPG,AMSA23.JPG,AMSA22.JPG,AMNE23.JPG,,,,,,,,,,,,,0,9,9,1,,,,,,,,,,,AFNE11.jpg,AFNE19.jpg,AFSA15.jpg,AFSA01.jpg,AFNE19.jpg,FN,3,num_6,16,num_6,0.500140644173,,,2018_Jan_25_1906,59.9945543405,MAFE4ImagesEEG,001,202782,
AFNE23.JPG,AFNE24.JPG,AFNE22.JPG,AFSA24.JPG,AFSA22.JPG,AFSA23.JPG,,,,,,,,,,,,,,,,,0,0,0,8,,,,,,,AMNE03.jpg,AMNE01.jpg,AMSA09.jpg,AMSA19.jpg,AMNE01.jpg,MN,1,num_6,16,num_6,0.466818718472,,,2018_Jan_25_1906,59.9945543405,MAFE4ImagesEEG,001,202782,
AFNE22.JPG,AFSA24.JPG,AFSA22.JPG,AFNE25.JPG,AFNE24.JPG,AFSA25.JPG,,,,,,,,,,,,,,,,,0,1,1,6,,,,,,,AMSA01.jpg,AMNE07.jpg,AMNE03.jpg,AMSA08.jpg,AMNE07.jpg,MN,1,num_6,16,num_6,0.766822214529,,,2018_Jan_25_1906,59.9945543405,MAFE4ImagesEEG,001,202782,
AFSA21.JPG,AFNE22.JPG,AFNE21.JPG,AFSA23.JPG,AFSA22.JPG,AFNE23.JPG,,,,,,,,,,,,,,,,,0,2,2,0,,,,,,,AMSA16.jpg,AMNE19.jpg,AMSA04.jpg,AMNE07.jpg,AMSA16.jpg,MS,2,num_8,32,num_2,0.433511226045,,,2018_Jan_25_1906,59.9945543405,MAFE4ImagesEEG,001,202782,
AMSA25.JPG,AMNE24.JPG,AMSA24.JPG,AMNE26.JPG,AMSA21.JPG,AMNE25.JPG,,,,,,,,,,,,,,,,,0,3,3,3,,,,,,,AMNE12.jpg,AMSA14.jpg,AMNE16.jpg,AMSA16.jpg,AMNE12.jpg,MN,1,num_8,32,num_6,0.666836230841,,,2018_Jan_25_1906,59.9945543405,MAFE4ImagesEEG,001,202782,
AFSA21.JPG,AFNE23.JPG,AFNE21.JPG,AFSA25.JPG,AFNE25.JPG,AFSA23.JPG,,,,,,,,,,,,,,,,,0,4,4,4,,,,,,,AMNE10.jpg,AMNE07.jpg,AMSA17.jpg,AMSA20.jpg,AMNE07.jpg,MN,1,num_6,32,num_2,0.866781256133,,,2018_Jan_25_1906,59.9945543405,MAFE4ImagesEEG,001,202782,
AFSA25.JPG,AFNE24.JPG,AFSA24.JPG,AFNE21.JPG,AFSA21.JPG,AFNE25.JPG,,,,,,,,,,,,,,,,,0,5,5,2,,,,,,,AMNE01.jpg,AMNE20.jpg,AMSA06.jpg,AMSA04.jpg,AMSA04.jpg,MS,2,num_4,32,num_2,0.533498492674,,,2018_Jan_25_1906,59.9945543405,MAFE4ImagesEEG,001,202782,
AMSA21.JPG,AMNE22.JPG,AMNE21.JPG,AMSA23.JPG,AMSA22.JPG,AMNE23.JPG,,,,,,,,,,,,,,,,,0,6,6,1,,,,,,,AMNE15.jpg,AMSA02.jpg,AMSA09.jpg,AMNE16.jpg,AMSA09.jpg,MS,2,num_2,32,num_6,0.533498492689,,,2018_Jan_25_1906,59.9945543405,MAFE4ImagesEEG,001,202782,
AMNE23.JPG,AMNE24.JPG,AMNE22.JPG,AMSA24.JPG,AMSA22.JPG,AMSA23.JPG,,,,,,,,,,,,,,,,,0,7,7,9,,,,,,,AMNE17.jpg,AMNE04.jpg,AMSA18.jpg,AMSA10.jpg,AMNE04.jpg,MN,1,num_6,32,num_4,0.700188306029,,,2018_Jan_25_1906,59.9945543405,MAFE4ImagesEEG,001,202782,
AMSA21.JPG,AMNE23.JPG,AMNE21.JPG,AMSA25.JPG,AMNE25.JPG,AMSA23.JPG,,,,,,,,,,,,,,,,,0,8,8,5,,,,,,,AMSA17.jpg,AMNE05.jpg,AMNE15.jpg,AMSA07.jpg,AMSA07.jpg,MS,2,num_4,32,num_2,0.383532346721,,,2018_Jan_25_1906,59.9945543405,MAFE4ImagesEEG,001,202782,
AMNE22.JPG,AMSA24.JPG,AMSA22.JPG,AMNE25.JPG,AMNE24.JPG,AMSA25.JPG,,,,,,,,,,,,,,,,,0,9,9,7,,,,,,,AMSA04.jpg,AMNE12.jpg,AMSA13.jpg,AMNE08.jpg,AMSA13.jpg,MS,2,num_2,32,num_6,0.783466017834,,,2018_Jan_25_1906,59.9945543405,MAFE4ImagesEEG,001,202782,
AMNE23.JPG,AMNE24.JPG,AMNE22.JPG,AMSA24.JPG,AMSA22.JPG,AMSA23.JPG,,,,,,,,,,,,,,,,,,,,,0,0,0,9,,,AFNE07.jpg,AFSA05.jpg,AFNE02.jpg,AFSA20.jpg,AFNE02.jpg,FN,3,num_2,32,num_6,0.583487635668,,,2018_Jan_25_1906,59.9945543405,MAFE4ImagesEEG,001,202782,
AMSA21.JPG,AMNE22.JPG,AMNE21.JPG,AMSA23.JPG,AMSA22.JPG,AMNE23.JPG,,,,,,,,,,,,,,,,,,,,,0,1,1,1,,,AFSA18.jpg,AFNE03.jpg,AFNE07.jpg,AFSA05.jpg,AFNE07.jpg,FN,3,num_2,32,num_6,0.766759670369,,,2018_Jan_25_1906,59.9945543405,MAFE4ImagesEEG,001,202782,
AFSA21.JPG,AFNE23.JPG,AFNE21.JPG,AFSA25.JPG,AFNE25.JPG,AFSA23.JPG,,,,,,,,,,,,,,,,,,,,,0,2,2,4,,,AFSA03.jpg,AFSA02.jpg,AFNE10.jpg,AFNE12.jpg,AFNE10.jpg,FN,3,num_2,16,num_2,0.683493825927,,,2018_Jan_25_1906,59.9945543405,MAFE4ImagesEEG,001,202782,
AFNE22.JPG,AFSA24.JPG,AFSA22.JPG,AFNE25.JPG,AFNE24.JPG,AFSA25.JPG,,,,,,,,,,,,,,,,,,,,,0,3,3,6,,,AFNE01.jpg,AFSA06.jpg,AFSA10.jpg,AFNE02.jpg,AFSA10.jpg,FS,4,num_2,16,num_2,0.55026866727,,,2018_Jan_25_1906,59.9945543405,MAFE4ImagesEEG,001,202782,
AMSA25.JPG,AMNE24.JPG,AMSA24.JPG,AMNE26.JPG,AMSA21.JPG,AMNE25.JPG,,,,,,,,,,,,,,,,,,,,,0,4,4,3,,,AFSA04.jpg,AFNE13.jpg,AFNE09.jpg,AFSA02.jpg,AFSA02.jpg,FS,4,num_4,16,num_4,0.60013079748,,,2018_Jan_25_1906,59.9945543405,MAFE4ImagesEEG,001,202782,
AMSA21.JPG,AMNE23.JPG,AMNE21.JPG,AMSA25.JPG,AMNE25.JPG,AMSA23.JPG,,,,,,,,,,,,,,,,,,,,,0,5,5,5,,,AFNE06.jpg,AFNE12.jpg,AFSA13.jpg,AFSA11.jpg,AFNE12.jpg,FN,3,num_6,16,num_6,0.500202226132,,,2018_Jan_25_1906,59.9945543405,MAFE4ImagesEEG,001,202782,
AFNE23.JPG,AFNE24.JPG,AFNE22.JPG,AFSA24.JPG,AFSA22.JPG,AFSA23.JPG,,,,,,,,,,,,,,,,,,,,,0,6,6,8,,,AFSA10.jpg,AFNE17.jpg,AFSA19.jpg,AFNE08.jpg,AFNE08.jpg,FN,3,num_4,16,num_4,0.450151501209,,,2018_Jan_25_1906,59.9945543405,MAFE4ImagesEEG,001,202782,
AFSA21.JPG,AFNE22.JPG,AFNE21.JPG,AFSA23.JPG,AFSA22.JPG,AFNE23.JPG,,,,,,,,,,,,,,,,,,,,,0,7,7,0,,,AFSA08.jpg,AFNE16.jpg,AFNE11.jpg,AFSA16.jpg,AFSA16.jpg,FS,4,num_4,32,num_2,0.683496391837,,,2018_Jan_25_1906,59.9945543405,MAFE4ImagesEEG,001,202782,
AFSA25.JPG,AFNE24.JPG,AFSA24.JPG,AFNE21.JPG,AFSA21.JPG,AFNE25.JPG,,,,,,,,,,,,,,,,,,,,,0,8,8,2,,,AFSA10.jpg,AFSA12.jpg,AFNE11.jpg,AFNE16.jpg,AFSA12.jpg,FS,4,num_6,16,num_6,0.433521810424,,,2018_Jan_25_1906,59.9945543405,MAFE4ImagesEEG,001,202782,
AMNE22.JPG,AMSA24.JPG,AMSA22.JPG,AMNE25.JPG,AMNE24.JPG,AMSA25.JPG,,,,,,,,,,,,,,,,,,,,,0,9,9,7,,,AFNE10.jpg,AFSA04.jpg,AFSA02.jpg,AFNE12.jpg,AFNE10.jpg,FN,3,num_8,16,num_8,0.766644204225,,,2018_Jan_25_1906,59.9945543405,MAFE4ImagesEEG,001,202782,
,,,,,,,,,,,,,,,,,,,,,,,,,,,,,,,,,,,,,,,,,,,space,4.46650856358,2018_Jan_25_1906,59.9945543405,MAFE4ImagesEEG,001,202782,
AFNE01.JPG,AFNE01.JPG,AFNE01.JPG,AFNE01.JPG,AFNE01.JPG,AFNE01.JPG,0,0,0,1,,,,,,,,,,,,,,,,,,,,,,,AMSA06.jpg,AMNE17.jpg,AMNE01.jpg,AMSA03.jpg,AMNE01.jpg,MN,1,num_2,32,num_8,1.05012706087,,,2018_Jan_25_1906,59.9945543405,MAFE4ImagesEEG,001,202782,
AFNE01.JPG,AFNE01.JPG,AFNE01.JPG,AFNE01.JPG,AFNE01.JPG,AFNE01.JPG,0,1,1,9,,,,,,,,,,,,,,,,,,,,,,,AMNE02.jpg,AMNE16.jpg,AMSA16.jpg,AMSA08.jpg,AMSA08.jpg,MS,2,num_4,32,num_8,0.350174498206,,,2018_Jan_25_1906,59.9945543405,MAFE4ImagesEEG,001,202782,
AFNE01.JPG,AFNE01.JPG,AFNE01.JPG,AFNE01.JPG,AFNE01.JPG,AFNE01.JPG,0,2,2,6,,,,,,,,,,,,,,,,,,,,,,,AMNE06.jpg,AMSA05.jpg,AMNE10.jpg,AMSA11.jpg,AMNE06.jpg,MN,1,num_8,32,num_6,0.350180912996,,,2018_Jan_25_1906,59.9945543405,MAFE4ImagesEEG,001,202782,
AFNE01.JPG,AFNE01.JPG,AFNE01.JPG,AFNE01.JPG,AFNE01.JPG,AFNE01.JPG,0,3,3,8,,,,,,,,,,,,,,,,,,,,,,,AMNE01.jpg,AMSA17.jpg,AMSA13.jpg,AMNE12.jpg,AMNE01.jpg,MN,1,num_8,32,num_2,0.433508980859,,,2018_Jan_25_1906,59.9945543405,MAFE4ImagesEEG,001,202782,
AFNE01.JPG,AFNE01.JPG,AFNE01.JPG,AFNE01.JPG,AFNE01.JPG,AFNE01.JPG,0,4,4,0,,,,,,,,,,,,,,,,,,,,,,,AMSA08.jpg,AMSA02.jpg,AMNE03.jpg,AMNE16.jpg,AMSA02.jpg,MS,2,num_6,16,num_6,0.450129370191,,,2018_Jan_25_1906,59.9945543405,MAFE4ImagesEEG,001,202782,
AFNE01.JPG,AFNE01.JPG,AFNE01.JPG,AFNE01.JPG,AFNE01.JPG,AFNE01.JPG,0,5,5,3,,,,,,,,,,,,,,,,,,,,,,,AMSA08.jpg,AMSA04.jpg,AMNE16.jpg,AMNE13.jpg,AMSA04.jpg,MS,2,num_6,32,num_4,0.400299634653,,,2018_Jan_25_1906,59.9945543405,MAFE4ImagesEEG,001,202782,
AFNE01.JPG,AFNE01.JPG,AFNE01.JPG,AFNE01.JPG,AFNE01.JPG,AFNE01.JPG,0,6,6,4,,,,,,,,,,,,,,,,,,,,,,,AMNE02.jpg,AMSA15.jpg,AMSA06.jpg,AMNE13.jpg,AMNE02.jpg,MN,1,num_8,32,num_6,0.300174450109,,,2018_Jan_25_1906,59.9945543405,MAFE4ImagesEEG,001,202782,
AFNE01.JPG,AFNE01.JPG,AFNE01.JPG,AFNE01.JPG,AFNE01.JPG,AFNE01.JPG,0,7,7,7,,,,,,,,,,,,,,,,,,,,,,,AMSA15.jpg,AMNE05.jpg,AMNE16.jpg,AMSA03.jpg,AMNE16.jpg,MN,1,num_2,32,num_6,0.833446500852,,,2018_Jan_25_1906,59.9945543405,MAFE4ImagesEEG,001,202782,
AFNE01.JPG,AFNE01.JPG,AFNE01.JPG,AFNE01.JPG,AFNE01.JPG,AFNE01.JPG,0,8,8,5,,,,,,,,,,,,,,,,,,,,,,,AMSA07.jpg,AMSA14.jpg,AMNE14.jpg,AMNE15.jpg,AMSA14.jpg,MS,2,num_6,16,num_6,0.683455016479,,,2018_Jan_25_1906,59.9945543405,MAFE4ImagesEEG,001,202782,
AFNE01.JPG,AFNE01.JPG,AFNE01.JPG,AFNE01.JPG,AFNE01.JPG,AFNE01.JPG,0,9,9,2,,,,,,,,,,,,,,,,,,,,,,,AMSA19.jpg,AMSA03.jpg,AMNE20.jpg,AMNE18.jpg,AMNE20.jpg,MN,1,num_2,32,num_6,0.483788392885,,,2018_Jan_25_1906,59.9945543405,MAFE4ImagesEEG,001,202782,
AFNE01.JPG,AFNE01.JPG,AFNE01.JPG,AFNE01.JPG,AFNE01.JPG,AFNE01.JPG,1,0,10,3,,,,,,,,,,,,,,,,,,,,,,,AMNE13.jpg,AMNE18.jpg,AMSA03.jpg,AMSA04.jpg,AMSA04.jpg,MS,2,num_4,32,num_6,0.56679443852,,,2018_Jan_25_1906,59.9945543405,MAFE4ImagesEEG,001,202782,
AFNE01.JPG,AFNE01.JPG,AFNE01.JPG,AFNE01.JPG,AFNE01.JPG,AFNE01.JPG,1,1,11,0,,,,,,,,,,,,,,,,,,,,,,,AMNE19.jpg,AMNE08.jpg,AMSA19.jpg,AMSA02.jpg,AMNE08.jpg,MN,1,num_6,32,num_2,1.6001048176,,,2018_Jan_25_1906,59.9945543405,MAFE4ImagesEEG,001,202782,
AFNE01.JPG,AFNE01.JPG,AFNE01.JPG,AFNE01.JPG,AFNE01.JPG,AFNE01.JPG,1,2,12,6,,,,,,,,,,,,,,,,,,,,,,,AMNE15.jpg,AMSA20.jpg,AMNE01.jpg,AMSA02.jpg,AMSA02.jpg,MS,2,num_4,32,num_2,0.550205160893,,,2018_Jan_25_1906,59.9945543405,MAFE4ImagesEEG,001,202782,
AFNE01.JPG,AFNE01.JPG,AFNE01.JPG,AFNE01.JPG,AFNE01.JPG,AFNE01.JPG,1,3,13,4,,,,,,,,,,,,,,,,,,,,,,,AMNE11.jpg,AMSA02.jpg,AMNE04.jpg,AMSA12.jpg,AMSA12.jpg,MS,2,num_4,32,num_2,0.783469866714,,,2018_Jan_25_1906,59.9945543405,MAFE4ImagesEEG,001,202782,
AFNE01.JPG,AFNE01.JPG,AFNE01.JPG,AFNE01.JPG,AFNE01.JPG,AFNE01.JPG,1,4,14,2,,,,,,,,,,,,,,,,,,,,,,,AMNE01.jpg,AMSA14.jpg,AMSA02.jpg,AMNE06.jpg,AMSA14.jpg,MS,2,num_6,32,num_4,2.73329405345,,,2018_Jan_25_1906,59.9945543405,MAFE4ImagesEEG,001,202782,
AFNE01.JPG,AFNE01.JPG,AFNE01.JPG,AFNE01.JPG,AFNE01.JPG,AFNE01.JPG,1,5,15,9,,,,,,,,,,,,,,,,,,,,,,,AMNE15.jpg,AMSA17.jpg,AMNE12.jpg,AMSA09.jpg,AMSA17.jpg,MS,2,num_6,16,num_6,0.400175187795,,,2018_Jan_25_1906,59.9945543405,MAFE4ImagesEEG,001,202782,
AFNE01.JPG,AFNE01.JPG,AFNE01.JPG,AFNE01.JPG,AFNE01.JPG,AFNE01.JPG,1,6,16,8,,,,,,,,,,,,,,,,,,,,,,,AMNE16.jpg,AMSA14.jpg,AMSA15.jpg,AMNE20.jpg,AMSA15.jpg,MS,2,num_2,32,num_6,0.366943710571,,,2018_Jan_25_1906,59.9945543405,MAFE4ImagesEEG,001,202782,
AFNE01.JPG,AFNE01.JPG,AFNE01.JPG,AFNE01.JPG,AFNE01.JPG,AFNE01.JPG,1,7,17,1,,,,,,,,,,,,,,,,,,,,,,,AMSA18.jpg,AMNE20.jpg,AMNE10.jpg,AMSA02.jpg,AMSA02.jpg,MS,2,num_4,32,num_6,0.833495573956,,,2018_Jan_25_1906,59.9945543405,MAFE4ImagesEEG,001,202782,
AFNE01.JPG,AFNE01.JPG,AFNE01.JPG,AFNE01.JPG,AFNE01.JPG,AFNE01.JPG,1,8,18,5,,,,,,,,,,,,,,,,,,,,,,,AMNE04.jpg,AMNE16.jpg,AMSA11.jpg,AMSA12.jpg,AMNE04.jpg,MN,1,num_8,32,num_2,0.383468198866,,,2018_Jan_25_1906,59.9945543405,MAFE4ImagesEEG,001,202782,
AFNE01.JPG,AFNE01.JPG,AFNE01.JPG,AFNE01.JPG,AFNE01.JPG,AFNE01.JPG,1,9,19,7,,,,,,,,,,,,,,,,,,,,,,,AMNE12.jpg,AMSA20.jpg,AMSA11.jpg,AMNE16.jpg,AMNE16.jpg,MN,1,num_4,32,num_6,0.383475255134,,,2018_Jan_25_1906,59.9945543405,MAFE4ImagesEEG,001,202782,
AFNE01.JPG,AFNE01.JPG,AFNE01.JPG,AFNE01.JPG,AFNE01.JPG,AFNE01.JPG,2,0,20,9,,,,,,,,,,,,,,,,,,,,,,,AMSA13.jpg,AMSA11.jpg,AMNE15.jpg,AMNE05.jpg,AMNE15.jpg,MN,1,num_2,16,num_2,0.416817708145,,,2018_Jan_25_1906,59.9945543405,MAFE4ImagesEEG,001,202782,
AFNE01.JPG,AFNE01.JPG,AFNE01.JPG,AFNE01.JPG,AFNE01.JPG,AFNE01.JPG,2,1,21,7,,,,,,,,,,,,,,,,,,,,,,,AMNE19.jpg,AMSA14.jpg,AMSA06.jpg,AMNE18.jpg,AMSA14.jpg,MS,2,num_6,16,num_6,0.75015756319,,,2018_Jan_25_1906,59.9945543405,MAFE4ImagesEEG,001,202782,
AFNE01.JPG,AFNE01.JPG,AFNE01.JPG,AFNE01.JPG,AFNE01.JPG,AFNE01.JPG,2,2,22,5,,,,,,,,,,,,,,,,,,,,,,,AMSA18.jpg,AMSA07.jpg,AMNE13.jpg,AMNE02.jpg,AMNE02.jpg,MN,1,num_4,16,num_4,0.616850936742,,,2018_Jan_25_1906,59.9945543405,MAFE4ImagesEEG,001,202782,
AFNE01.JPG,AFNE01.JPG,AFNE01.JPG,AFNE01.JPG,AFNE01.JPG,AFNE01.JPG,2,3,23,0,,,,,,,,,,,,,,,,,,,,,,,AMSA01.jpg,AMNE17.jpg,AMSA04.jpg,AMNE04.jpg,AMSA04.jpg,MS,2,num_2,16,num_2,0.550137805636,,,2018_Jan_25_1906,59.9945543405,MAFE4ImagesEEG,001,202782,
AFNE01.JPG,AFNE01.JPG,AFNE01.JPG,AFNE01.JPG,AFNE01.JPG,AFNE01.JPG,2,4,24,1,,,,,,,,,,,,,,,,,,,,,,,AMNE05.jpg,AMSA14.jpg,AMSA15.jpg,AMNE04.jpg,AMNE05.jpg,MN,1,num_8,32,num_6,0.583497578569,,,2018_Jan_25_1906,59.9945543405,MAFE4ImagesEEG,001,202782,
AFNE01.JPG,AFNE01.JPG,AFNE01.JPG,AFNE01.JPG,AFNE01.JPG,AFNE01.JPG,2,5,25,8,,,,,,,,,,,,,,,,,,,,,,,AMSA04.jpg,AMNE01.jpg,AMSA11.jpg,AMNE18.jpg,AMNE18.jpg,MN,1,num_4,32,num_2,0.733459234209,,,2018_Jan_25_1906,59.9945543405,MAFE4ImagesEEG,001,202782,
AFNE01.JPG,AFNE01.JPG,AFNE01.JPG,AFNE01.JPG,AFNE01.JPG,AFNE01.JPG,2,6,26,6,,,,,,,,,,,,,,,,,,,,,,,AMNE08.jpg,AMSA09.jpg,AMNE17.jpg,AMSA01.jpg,AMSA01.jpg,MS,2,num_4,32,num_6,0.933426711228,,,2018_Jan_25_1906,59.9945543405,MAFE4ImagesEEG,001,202782,
AFNE01.JPG,AFNE01.JPG,AFNE01.JPG,AFNE01.JPG,AFNE01.JPG,AFNE01.JPG,2,7,27,2,,,,,,,,,,,,,,,,,,,,,,,AMNE09.jpg,AMSA14.jpg,AMSA07.jpg,AMNE19.jpg,AMNE09.jpg,MN,1,num_8,32,num_6,0.83340737065,,,2018_Jan_25_1906,59.9945543405,MAFE4ImagesEEG,001,202782,
AFNE01.JPG,AFNE01.JPG,AFNE01.JPG,AFNE01.JPG,AFNE01.JPG,AFNE01.JPG,2,8,28,4,,,,,,,,,,,,,,,,,,,,,,,AMNE04.jpg,AMSA12.jpg,AMSA17.jpg,AMNE18.jpg,AMNE04.jpg,MN,1,num_8,32,num_6,0.600146834448,,,2018_Jan_25_1906,59.9945543405,MAFE4ImagesEEG,001,202782,
AFNE01.JPG,AFNE01.JPG,AFNE01.JPG,AFNE01.JPG,AFNE01.JPG,AFNE01.JPG,2,9,29,3,,,,,,,,,,,,,,,,,,,,,,,AMSA02.jpg,AMNE08.jpg,AMSA11.jpg,AMNE18.jpg,AMSA02.jpg,MS,2,num_8,32,num_6,0.700103951604,,,2018_Jan_25_1906,59.9945543405,MAFE4ImagesEEG,001,202782,
AFNE01.JPG,AFNE01.JPG,AFNE01.JPG,AFNE01.JPG,AFNE01.JPG,AFNE01.JPG,3,0,30,1,,,,,,,,,,,,,,,,,,,,,,,AMNE17.jpg,AMSA07.jpg,AMSA04.jpg,AMNE06.jpg,AMNE17.jpg,MN,1,num_8,32,num_4,0.500165020363,,,2018_Jan_25_1906,59.9945543405,MAFE4ImagesEEG,001,202782,
AFNE01.JPG,AFNE01.JPG,AFNE01.JPG,AFNE01.JPG,AFNE01.JPG,AFNE01.JPG,3,1,31,6,,,,,,,,,,,,,,,,,,,,,,,AMSA10.jpg,AMNE08.jpg,AMNE12.jpg,AMSA14.jpg,AMNE12.jpg,MN,1,num_2,32,num_6,0.466878375984,,,2018_Jan_25_1906,59.9945543405,MAFE4ImagesEEG,001,202782,
AFNE01.JPG,AFNE01.JPG,AFNE01.JPG,AFNE01.JPG,AFNE01.JPG,AFNE01.JPG,3,2,32,4,,,,,,,,,,,,,,,,,,,,,,,AMNE08.jpg,AMSA09.jpg,AMNE17.jpg,AMSA14.jpg,AMSA09.jpg,MS,2,num_6,32,num_4,0.0835028707806,,,2018_Jan_25_1906,59.9945543405,MAFE4ImagesEEG,001,202782,
AFNE01.JPG,AFNE01.JPG,AFNE01.JPG,AFNE01.JPG,AFNE01.JPG,AFNE01.JPG,3,3,33,7,,,,,,,,,,,,,,,,,,,,,,,AMNE15.jpg,AMSA06.jpg,AMNE14.jpg,AMSA16.jpg,AMNE15.jpg,MN,1,num_8,32,num_6,0.466792738589,,,2018_Jan_25_1906,59.9945543405,MAFE4ImagesEEG,001,202782,
AFNE01.JPG,AFNE01.JPG,AFNE01.JPG,AFNE01.JPG,AFNE01.JPG,AFNE01.JPG,3,4,34,8,,,,,,,,,,,,,,,,,,,,,,,AMNE06.jpg,AMSA06.jpg,AMNE18.jpg,AMSA16.jpg,AMSA16.jpg,MS,2,num_4,32,num_2,0.916770399097,,,2018_Jan_25_1906,59.9945543405,MAFE4ImagesEEG,001,202782,
AFNE01.JPG,AFNE01.JPG,AFNE01.JPG,AFNE01.JPG,AFNE01.JPG,AFNE01.JPG,3,5,35,5,,,,,,,,,,,,,,,,,,,,,,,AMSA13.jpg,AMNE03.jpg,AMSA19.jpg,AMNE13.jpg,AMNE03.jpg,MN,1,num_6,32,num_2,0.283473555202,,,2018_Jan_25_1906,59.9945543405,MAFE4ImagesEEG,001,202782,
AFNE01.JPG,AFNE01.JPG,AFNE01.JPG,AFNE01.JPG,AFNE01.JPG,AFNE01.JPG,3,6,36,2,,,,,,,,,,,,,,,,,,,,,,,AMSA02.jpg,AMNE02.jpg,AMSA19.jpg,AMNE03.jpg,AMSA02.jpg,MS,2,num_8,16,num_8,1.5001024762,,,2018_Jan_25_1906,59.9945543405,MAFE4ImagesEEG,001,202782,
AFNE01.JPG,AFNE01.JPG,AFNE01.JPG,AFNE01.JPG,AFNE01.JPG,AFNE01.JPG,3,7,37,0,,,,,,,,,,,,,,,,,,,,,,,AMSA06.jpg,AMSA10.jpg,AMNE08.jpg,AMNE20.jpg,AMSA10.jpg,MS,2,num_6,16,num_6,0.550159615901,,,2018_Jan_25_1906,59.9945543405,MAFE4ImagesEEG,001,202782,
AFNE01.JPG,AFNE01.JPG,AFNE01.JPG,AFNE01.JPG,AFNE01.JPG,AFNE01.JPG,3,8,38,9,,,,,,,,,,,,,,,,,,,,,,,AMNE03.jpg,AMNE20.jpg,AMSA20.jpg,AMSA10.jpg,AMSA10.jpg,MS,2,num_4,32,num_6,0.600158060319,,,2018_Jan_25_1906,59.9945543405,MAFE4ImagesEEG,001,202782,
AFNE01.JPG,AFNE01.JPG,AFNE01.JPG,AFNE01.JPG,AFNE01.JPG,AFNE01.JPG,3,9,39,3,,,,,,,,,,,,,,,,,,,,,,,AMNE17.jpg,AMNE11.jpg,AMSA11.jpg,AMSA17.jpg,AMNE17.jpg,MN,1,num_8,16,num_8,1.11673755541,,,2018_Jan_25_1906,59.9945543405,MAFE4ImagesEEG,001,202782,
AFNE01.JPG,AFNE01.JPG,AFNE01.JPG,AFNE01.JPG,AFNE01.JPG,AFNE01.JPG,4,0,40,1,,,,,,,,,,,,,,,,,,,,,,,AMNE05.jpg,AMSA17.jpg,AMNE08.jpg,AMSA12.jpg,AMNE05.jpg,MN,1,num_8,32,num_2,0.73348713851,,,2018_Jan_25_1906,59.9945543405,MAFE4ImagesEEG,001,202782,
AFNE01.JPG,AFNE01.JPG,AFNE01.JPG,AFNE01.JPG,AFNE01.JPG,AFNE01.JPG,4,1,41,4,,,,,,,,,,,,,,,,,,,,,,,AMNE03.jpg,AMSA09.jpg,AMSA08.jpg,AMNE01.jpg,AMNE01.jpg,MN,1,num_4,16,num_4,0.666810892435,,,2018_Jan_25_1906,59.9945543405,MAFE4ImagesEEG,001,202782,
AFNE01.JPG,AFNE01.JPG,AFNE01.JPG,AFNE01.JPG,AFNE01.JPG,AFNE01.JPG,4,2,42,7,,,,,,,,,,,,,,,,,,,,,,,AMNE16.jpg,AMNE09.jpg,AMSA07.jpg,AMSA08.jpg,AMNE16.jpg,MN,1,num_8,16,num_8,0.966791936749,,,2018_Jan_25_1906,59.9945543405,MAFE4ImagesEEG,001,202782,
AFNE01.JPG,AFNE01.JPG,AFNE01.JPG,AFNE01.JPG,AFNE01.JPG,AFNE01.JPG,4,3,43,3,,,,,,,,,,,,,,,,,,,,,,,AMNE09.jpg,AMNE13.jpg,AMSA09.jpg,AMSA10.jpg,AMNE13.jpg,MN,1,num_6,16,num_6,0.783441641644,,,2018_Jan_25_1906,59.9945543405,MAFE4ImagesEEG,001,202782,
AFNE01.JPG,AFNE01.JPG,AFNE01.JPG,AFNE01.JPG,AFNE01.JPG,AFNE01.JPG,4,4,44,8,,,,,,,,,,,,,,,,,,,,,,,AMNE01.jpg,AMSA19.jpg,AMNE03.jpg,AMSA12.jpg,AMNE01.jpg,MN,1,num_8,32,num_2,0.783442283122,,,2018_Jan_25_1906,59.9945543405,MAFE4ImagesEEG,001,202782,
AFNE01.JPG,AFNE01.JPG,AFNE01.JPG,AFNE01.JPG,AFNE01.JPG,AFNE01.JPG,4,5,45,2,,,,,,,,,,,,,,,,,,,,,,,AMSA14.jpg,AMNE07.jpg,AMNE03.jpg,AMSA17.jpg,AMSA14.jpg,MS,2,num_8,32,num_6,1.18348821299,,,2018_Jan_25_1906,59.9945543405,MAFE4ImagesEEG,001,202782,
AFNE01.JPG,AFNE01.JPG,AFNE01.JPG,AFNE01.JPG,AFNE01.JPG,AFNE01.JPG,4,6,46,6,,,,,,,,,,,,,,,,,,,,,,,AMSA16.jpg,AMSA13.jpg,AMNE11.jpg,AMNE09.jpg,AMSA16.jpg,MS,2,num_8,16,num_8,1.26670947466,,,2018_Jan_25_1906,59.9945543405,MAFE4ImagesEEG,001,202782,
AFNE01.JPG,AFNE01.JPG,AFNE01.JPG,AFNE01.JPG,AFNE01.JPG,AFNE01.JPG,4,7,47,0,,,,,,,,,,,,,,,,,,,,,,,AMNE15.jpg,AMSA03.jpg,AMNE03.jpg,AMSA04.jpg,AMSA03.jpg,MS,2,num_6,16,num_6,0.416848819848,,,2018_Jan_25_1906,59.9945543405,MAFE4ImagesEEG,001,202782,
AFNE01.JPG,AFNE01.JPG,AFNE01.JPG,AFNE01.JPG,AFNE01.JPG,AFNE01.JPG,4,8,48,5,,,,,,,,,,,,,,,,,,,,,,,AMNE13.jpg,AMNE03.jpg,AMSA11.jpg,AMSA06.jpg,AMSA06.jpg,MS,2,num_4,32,num_8,1.83335124126,,,2018_Jan_25_1906,59.9945543405,MAFE4ImagesEEG,001,202782,
AFNE01.JPG,AFNE01.JPG,AFNE01.JPG,AFNE01.JPG,AFNE01.JPG,AFNE01.JPG,4,9,49,9,,,,,,,,,,,,,,,,,,,,,,,AMSA06.jpg,AMNE02.jpg,AMSA10.jpg,AMNE03.jpg,AMSA06.jpg,MS,2,num_8,16,num_8,0.883446228225,,,2018_Jan_25_1906,59.9945543405,MAFE4ImagesEEG,001,202782,
AFNE01.JPG,AFNE01.JPG,AFNE01.JPG,AFNE01.JPG,AFNE01.JPG,AFNE01.JPG,5,0,50,3,,,,,,,,,,,,,,,,,,,,,,,AMSA08.jpg,AMSA17.jpg,AMNE10.jpg,AMNE17.jpg,AMNE10.jpg,MN,1,num_2,16,num_2,1.2834065207,,,2018_Jan_25_1906,59.9945543405,MAFE4ImagesEEG,001,202782,
AFNE01.JPG,AFNE01.JPG,AFNE01.JPG,AFNE01.JPG,AFNE01.JPG,AFNE01.JPG,5,1,51,8,,,,,,,,,,,,,,,,,,,,,,,AMSA17.jpg,AMSA15.jpg,AMNE11.jpg,AMNE01.jpg,AMSA15.jpg,MS,2,num_6,32,num_2,0.450158236723,,,2018_Jan_25_1906,59.9945543405,MAFE4ImagesEEG,001,202782,
AFNE01.JPG,AFNE01.JPG,AFNE01.JPG,AFNE01.JPG,AFNE01.JPG,AFNE01.JPG,5,2,52,0,,,,,,,,,,,,,,,,,,,,,,,AMNE09.jpg,AMSA06.jpg,AMNE05.jpg,AMSA04.jpg,AMNE09.jpg,MN,1,num_8,16,num_8,0.48349138831,,,2018_Jan_25_1906,59.9945543405,MAFE4ImagesEEG,001,202782,
AFNE01.JPG,AFNE01.JPG,AFNE01.JPG,AFNE01.JPG,AFNE01.JPG,AFNE01.JPG,5,3,53,9,,,,,,,,,,,,,,,,,,,,,,,AMNE15.jpg,AMSA14.jpg,AMSA16.jpg,AMNE10.jpg,AMSA16.jpg,MS,2,num_2,32,num_8,0.41681257631,,,2018_Jan_25_1906,59.9945543405,MAFE4ImagesEEG,001,202782,
AFNE01.JPG,AFNE01.JPG,AFNE01.JPG,AFNE01.JPG,AFNE01.JPG,AFNE01.JPG,5,4,54,7,,,,,,,,,,,,,,,,,,,,,,,AMSA18.jpg,AMNE09.jpg,AMSA20.jpg,AMNE07.jpg,AMNE09.jpg,MN,1,num_6,16,num_6,0.483660097176,,,2018_Jan_25_1906,59.9945543405,MAFE4ImagesEEG,001,202782,
AFNE01.JPG,AFNE01.JPG,AFNE01.JPG,AFNE01.JPG,AFNE01.JPG,AFNE01.JPG,5,5,55,5,,,,,,,,,,,,,,,,,,,,,,,AMNE19.jpg,AMSA14.jpg,AMSA02.jpg,AMNE08.jpg,AMNE08.jpg,MN,1,num_4,16,num_4,0.766836968542,,,2018_Jan_25_1906,59.9945543405,MAFE4ImagesEEG,001,202782,
AFNE01.JPG,AFNE01.JPG,AFNE01.JPG,AFNE01.JPG,AFNE01.JPG,AFNE01.JPG,5,6,56,1,,,,,,,,,,,,,,,,,,,,,,,AMSA02.jpg,AMNE15.jpg,AMNE06.jpg,AMSA15.jpg,AMNE06.jpg,MN,1,num_2,32,num_6,0.883497225761,,,2018_Jan_25_1906,59.9945543405,MAFE4ImagesEEG,001,202782,
AFNE01.JPG,AFNE01.JPG,AFNE01.JPG,AFNE01.JPG,AFNE01.JPG,AFNE01.JPG,5,7,57,2,,,,,,,,,,,,,,,,,,,,,,,AMSA02.jpg,AMNE05.jpg,AMNE19.jpg,AMSA07.jpg,AMNE05.jpg,MN,1,num_6,32,num_8,1.18345389389,,,2018_Jan_25_1906,59.9945543405,MAFE4ImagesEEG,001,202782,
AFNE01.JPG,AFNE01.JPG,AFNE01.JPG,AFNE01.JPG,AFNE01.JPG,AFNE01.JPG,5,8,58,4,,,,,,,,,,,,,,,,,,,,,,,AMSA03.jpg,AMNE20.jpg,AMNE17.jpg,AMSA18.jpg,AMNE17.jpg,MN,1,num_2,32,num_6,1.58340616788,,,2018_Jan_25_1906,59.9945543405,MAFE4ImagesEEG,001,202782,
AFNE01.JPG,AFNE01.JPG,AFNE01.JPG,AFNE01.JPG,AFNE01.JPG,AFNE01.JPG,5,9,59,6,,,,,,,,,,,,,,,,,,,,,,,AMNE04.jpg,AMSA14.jpg,AMNE12.jpg,AMSA17.jpg,AMNE04.jpg,MN,1,num_8,32,num_6,3.19981833328,,,2018_Jan_25_1906,59.9945543405,MAFE4ImagesEEG,001,202782,
,,,,,,,,,,,,,,,,,,,,,,,,,,,,,,,,,,,,,,,,,,,space,10.0160501149,2018_Jan_25_1906,59.9945543405,MAFE4ImagesEEG,001,202782,
AFNE01.JPG,AFNE01.JPG,AFNE01.JPG,AFNE01.JPG,AFNE01.JPG,AFNE01.JPG,,,,,0,0,0,3,,,,,,,,,,,,,,,,,,,AFNE02.jpg,AFSA12.jpg,AFNE04.jpg,AFSA10.jpg,AFNE02.jpg,FN,3,num_8,32,num_6,0.93351074493,,,2018_Jan_25_1906,59.9945543405,MAFE4ImagesEEG,001,202782,
AFNE01.JPG,AFNE01.JPG,AFNE01.JPG,AFNE01.JPG,AFNE01.JPG,AFNE01.JPG,,,,,0,1,1,6,,,,,,,,,,,,,,,,,,,AFNE02.jpg,AFSA11.jpg,AFSA20.jpg,AFNE17.jpg,AFSA20.jpg,FS,4,num_2,16,num_2,0.733546154544,,,2018_Jan_25_1906,59.9945543405,MAFE4ImagesEEG,001,202782,
AFNE01.JPG,AFNE01.JPG,AFNE01.JPG,AFNE01.JPG,AFNE01.JPG,AFNE01.JPG,,,,,0,2,2,4,,,,,,,,,,,,,,,,,,,AFNE01.jpg,AFNE09.jpg,AFSA16.jpg,AFSA12.jpg,AFSA12.jpg,FS,4,num_4,16,num_4,0.866791199034,,,2018_Jan_25_1906,59.9945543405,MAFE4ImagesEEG,001,202782,
AFNE01.JPG,AFNE01.JPG,AFNE01.JPG,AFNE01.JPG,AFNE01.JPG,AFNE01.JPG,,,,,0,3,3,9,,,,,,,,,,,,,,,,,,,AFNE19.jpg,AFSA18.jpg,AFNE10.jpg,AFSA10.jpg,AFSA18.jpg,FS,4,num_6,16,num_6,0.68346880826,,,2018_Jan_25_1906,59.9945543405,MAFE4ImagesEEG,001,202782,
AFNE01.JPG,AFNE01.JPG,AFNE01.JPG,AFNE01.JPG,AFNE01.JPG,AFNE01.JPG,,,,,0,4,4,7,,,,,,,,,,,,,,,,,,,AFSA09.jpg,AFNE11.jpg,AFNE13.jpg,AFSA16.jpg,AFSA16.jpg,FS,4,num_4,32,num_6,0.633518474744,,,2018_Jan_25_1906,59.9945543405,MAFE4ImagesEEG,001,202782,
AFNE01.JPG,AFNE01.JPG,AFNE01.JPG,AFNE01.JPG,AFNE01.JPG,AFNE01.JPG,,,,,0,5,5,0,,,,,,,,,,,,,,,,,,,AFSA08.jpg,AFNE06.jpg,AFSA06.jpg,AFNE19.jpg,AFNE19.jpg,FN,3,num_4,16,num_4,0.516863028606,,,2018_Jan_25_1906,59.9945543405,MAFE4ImagesEEG,001,202782,
AFNE01.JPG,AFNE01.JPG,AFNE01.JPG,AFNE01.JPG,AFNE01.JPG,AFNE01.JPG,,,,,0,6,6,8,,,,,,,,,,,,,,,,,,,AFSA07.jpg,AFNE01.jpg,AFSA01.jpg,AFNE13.jpg,AFNE01.jpg,FN,3,num_6,16,num_6,0.58347416461,,,2018_Jan_25_1906,59.9945543405,MAFE4ImagesEEG,001,202782,
AFNE01.JPG,AFNE01.JPG,AFNE01.JPG,AFNE01.JPG,AFNE01.JPG,AFNE01.JPG,,,,,0,7,7,2,,,,,,,,,,,,,,,,,,,AFNE20.jpg,AFSA13.jpg,AFNE03.jpg,AFSA10.jpg,AFSA10.jpg,FS,4,num_4,32,num_6,0.61676690304,,,2018_Jan_25_1906,59.9945543405,MAFE4ImagesEEG,001,202782,
AFNE01.JPG,AFNE01.JPG,AFNE01.JPG,AFNE01.JPG,AFNE01.JPG,AFNE01.JPG,,,,,0,8,8,1,,,,,,,,,,,,,,,,,,,AFNE07.jpg,AFSA16.jpg,AFNE02.jpg,AFSA20.jpg,AFSA20.jpg,FS,4,num_4,32,num_2,1.40008955041,,,2018_Jan_25_1906,59.9945543405,MAFE4ImagesEEG,001,202782,
AFNE01.JPG,AFNE01.JPG,AFNE01.JPG,AFNE01.JPG,AFNE01.JPG,AFNE01.JPG,,,,,0,9,9,5,,,,,,,,,,,,,,,,,,,AFNE08.jpg,AFNE18.jpg,AFSA18.jpg,AFSA11.jpg,AFSA11.jpg,FS,4,num_4,16,num_4,0.466784399367,,,2018_Jan_25_1906,59.9945543405,MAFE4ImagesEEG,001,202782,
AFNE01.JPG,AFNE01.JPG,AFNE01.JPG,AFNE01.JPG,AFNE01.JPG,AFNE01.JPG,,,,,1,0,10,3,,,,,,,,,,,,,,,,,,,AFSA14.jpg,AFNE14.jpg,AFNE07.jpg,AFSA05.jpg,AFSA05.jpg,FS,4,num_4,32,num_6,0.733455385314,,,2018_Jan_25_1906,59.9945543405,MAFE4ImagesEEG,001,202782,
AFNE01.JPG,AFNE01.JPG,AFNE01.JPG,AFNE01.JPG,AFNE01.JPG,AFNE01.JPG,,,,,1,1,11,6,,,,,,,,,,,,,,,,,,,AFNE13.jpg,AFSA05.jpg,AFNE16.jpg,AFSA07.jpg,AFSA07.jpg,FS,4,num_4,32,num_2,1.56671521591,,,2018_Jan_25_1906,59.9945543405,MAFE4ImagesEEG,001,202782,
AFNE01.JPG,AFNE01.JPG,AFNE01.JPG,AFNE01.JPG,AFNE01.JPG,AFNE01.JPG,,,,,1,2,12,4,,,,,,,,,,,,,,,,,,,AFNE05.jpg,AFSA13.jpg,AFNE15.jpg,AFSA02.jpg,AFSA02.jpg,FS,4,num_4,16,num_4,0.483522820767,,,2018_Jan_25_1906,59.9945543405,MAFE4ImagesEEG,001,202782,
AFNE01.JPG,AFNE01.JPG,AFNE01.JPG,AFNE01.JPG,AFNE01.JPG,AFNE01.JPG,,,,,1,3,13,9,,,,,,,,,,,,,,,,,,,AFNE18.jpg,AFNE09.jpg,AFSA15.jpg,AFSA16.jpg,AFSA15.jpg,FS,4,num_2,32,num_6,0.616373997414,,,2018_Jan_25_1906,59.9945543405,MAFE4ImagesEEG,001,202782,
AFNE01.JPG,AFNE01.JPG,AFNE01.JPG,AFNE01.JPG,AFNE01.JPG,AFNE01.JPG,,,,,1,4,14,1,,,,,,,,,,,,,,,,,,,AFNE08.jpg,AFNE15.jpg,AFSA17.jpg,AFSA18.jpg,AFSA17.jpg,FS,4,num_2,16,num_2,0.433494547586,,,2018_Jan_25_1906,59.9945543405,MAFE4ImagesEEG,001,202782,
AFNE01.JPG,AFNE01.JPG,AFNE01.JPG,AFNE01.JPG,AFNE01.JPG,AFNE01.JPG,,,,,1,5,15,5,,,,,,,,,,,,,,,,,,,AFSA11.jpg,AFSA18.jpg,AFNE06.jpg,AFNE18.jpg,AFNE18.jpg,FN,3,num_4,32,num_6,0.566816248785,,,2018_Jan_25_1906,59.9945543405,MAFE4ImagesEEG,001,202782,
AFNE01.JPG,AFNE01.JPG,AFNE01.JPG,AFNE01.JPG,AFNE01.JPG,AFNE01.JPG,,,,,1,6,16,2,,,,,,,,,,,,,,,,,,,AFNE01.jpg,AFSA09.jpg,AFNE07.jpg,AFSA07.jpg,AFSA07.jpg,FS,4,num_4,32,num_6,0.500157322633,,,2018_Jan_25_1906,59.9945543405,MAFE4ImagesEEG,001,202782,
AFNE01.JPG,AFNE01.JPG,AFNE01.JPG,AFNE01.JPG,AFNE01.JPG,AFNE01.JPG,,,,,1,7,17,8,,,,,,,,,,,,,,,,,,,AFNE12.jpg,AFNE11.jpg,AFSA02.jpg,AFSA20.jpg,AFSA20.jpg,FS,4,num_4,32,num_6,0.366793604582,,,2018_Jan_25_1906,59.9945543405,MAFE4ImagesEEG,001,202782,
AFNE01.JPG,AFNE01.JPG,AFNE01.JPG,AFNE01.JPG,AFNE01.JPG,AFNE01.JPG,,,,,1,8,18,0,,,,,,,,,,,,,,,,,,,AFNE12.jpg,AFNE03.jpg,AFSA14.jpg,AFSA03.jpg,AFNE12.jpg,FN,3,num_8,32,num_4,0.466806209646,,,2018_Jan_25_1906,59.9945543405,MAFE4ImagesEEG,001,202782,
AFNE01.JPG,AFNE01.JPG,AFNE01.JPG,AFNE01.JPG,AFNE01.JPG,AFNE01.JPG,,,,,1,9,19,7,,,,,,,,,,,,,,,,,,,AFNE13.jpg,AFNE06.jpg,AFSA04.jpg,AFSA05.jpg,AFSA04.jpg,FS,4,num_2,32,num_6,0.400207582483,,,2018_Jan_25_1906,59.9945543405,MAFE4ImagesEEG,001,202782,
AFNE01.JPG,AFNE01.JPG,AFNE01.JPG,AFNE01.JPG,AFNE01.JPG,AFNE01.JPG,,,,,2,0,20,7,,,,,,,,,,,,,,,,,,,AFSA04.jpg,AFNE15.jpg,AFNE06.jpg,AFSA17.jpg,AFSA04.jpg,FS,4,num_8,32,num_2,0.816788905766,,,2018_Jan_25_1906,59.9945543405,MAFE4ImagesEEG,001,202782,
AFNE01.JPG,AFNE01.JPG,AFNE01.JPG,AFNE01.JPG,AFNE01.JPG,AFNE01.JPG,,,,,2,1,21,2,,,,,,,,,,,,,,,,,,,AFNE05.jpg,AFSA04.jpg,AFNE16.jpg,AFSA18.jpg,AFNE16.jpg,FN,3,num_2,32,num_6,0.500154435969,,,2018_Jan_25_1906,59.9945543405,MAFE4ImagesEEG,001,202782,
AFNE01.JPG,AFNE01.JPG,AFNE01.JPG,AFNE01.JPG,AFNE01.JPG,AFNE01.JPG,,,,,2,2,22,1,,,,,,,,,,,,,,,,,,,AFSA09.jpg,AFNE19.jpg,AFSA13.jpg,AFNE13.jpg,AFNE13.jpg,FN,3,num_4,32,num_2,0.650118016027,,,2018_Jan_25_1906,59.9945543405,MAFE4ImagesEEG,001,202782,
AFNE01.JPG,AFNE01.JPG,AFNE01.JPG,AFNE01.JPG,AFNE01.JPG,AFNE01.JPG,,,,,2,3,23,5,,,,,,,,,,,,,,,,,,,AFNE01.jpg,AFSA06.jpg,AFNE02.jpg,AFSA09.jpg,AFSA06.jpg,FS,4,num_6,16,num_6,0.716773734777,,,2018_Jan_25_1906,59.9945543405,MAFE4ImagesEEG,001,202782,
AFNE01.JPG,AFNE01.JPG,AFNE01.JPG,AFNE01.JPG,AFNE01.JPG,AFNE01.JPG,,,,,2,4,24,0,,,,,,,,,,,,,,,,,,,AFNE09.jpg,AFNE02.jpg,AFSA11.jpg,AFSA04.jpg,AFSA11.jpg,FS,4,num_2,32,num_6,0.933458143685,,,2018_Jan_25_1906,59.9945543405,MAFE4ImagesEEG,001,202782,
AFNE01.JPG,AFNE01.JPG,AFNE01.JPG,AFNE01.JPG,AFNE01.JPG,AFNE01.JPG,,,,,2,5,25,8,,,,,,,,,,,,,,,,,,,AFNE02.jpg,AFNE16.jpg,AFSA09.jpg,AFSA16.jpg,AFSA16.jpg,FS,4,num_4,32,num_8,0.566784816343,,,2018_Jan_25_1906,59.9945543405,MAFE4ImagesEEG,001,202782,
AFNE01.JPG,AFNE01.JPG,AFNE01.JPG,AFNE01.JPG,AFNE01.JPG,AFNE01.JPG,,,,,2,6,26,6,,,,,,,,,,,,,,,,,,,AFSA01.jpg,AFNE15.jpg,AFSA19.jpg,AFNE17.jpg,AFSA19.jpg,FS,4,num_2,16,num_2,0.450153425641,,,2018_Jan_25_1906,59.9945543405,MAFE4ImagesEEG,001,202782,
AFNE01.JPG,AFNE01.JPG,AFNE01.JPG,AFNE01.JPG,AFNE01.JPG,AFNE01.JPG,,,,,2,7,27,4,,,,,,,,,,,,,,,,,,,AFSA13.jpg,AFSA06.jpg,AFNE12.jpg,AFNE11.jpg,AFNE11.jpg,FN,3,num_4,32,num_8,1.06693700713,,,2018_Jan_25_1906,59.9945543405,MAFE4ImagesEEG,001,202782,
AFNE01.JPG,AFNE01.JPG,AFNE01.JPG,AFNE01.JPG,AFNE01.JPG,AFNE01.JPG,,,,,2,8,28,9,,,,,,,,,,,,,,,,,,,AFNE12.jpg,AFSA08.jpg,AFSA04.jpg,AFNE05.jpg,AFNE12.jpg,FN,3,num_8,32,num_2,1.0501174387,,,2018_Jan_25_1906,59.9945543405,MAFE4ImagesEEG,001,202782,
AFNE01.JPG,AFNE01.JPG,AFNE01.JPG,AFNE01.JPG,AFNE01.JPG,AFNE01.JPG,,,,,2,9,29,3,,,,,,,,,,,,,,,,,,,AFNE08.jpg,AFNE14.jpg,AFSA07.jpg,AFSA03.jpg,AFSA07.jpg,FS,4,num_2,32,num_6,0.933431522324,,,2018_Jan_25_1906,59.9945543405,MAFE4ImagesEEG,001,202782,
AFNE01.JPG,AFNE01.JPG,AFNE01.JPG,AFNE01.JPG,AFNE01.JPG,AFNE01.JPG,,,,,3,0,30,1,,,,,,,,,,,,,,,,,,,AFNE01.jpg,AFSA12.jpg,AFNE06.jpg,AFSA20.jpg,AFSA20.jpg,FS,4,num_4,32,num_2,0.700165212809,,,2018_Jan_25_1906,59.9945543405,MAFE4ImagesEEG,001,202782,
AFNE01.JPG,AFNE01.JPG,AFNE01.JPG,AFNE01.JPG,AFNE01.JPG,AFNE01.JPG,,,,,3,1,31,9,,,,,,,,,,,,,,,,,,,AFSA07.jpg,AFNE05.jpg,AFSA05.jpg,AFNE09.jpg,AFNE05.jpg,FN,3,num_6,32,num_2,4.76652328551,,,2018_Jan_25_1906,59.9945543405,MAFE4ImagesEEG,001,202782,
AFNE01.JPG,AFNE01.JPG,AFNE01.JPG,AFNE01.JPG,AFNE01.JPG,AFNE01.JPG,,,,,3,2,32,2,,,,,,,,,,,,,,,,,,,AFNE18.jpg,AFSA09.jpg,AFSA06.jpg,AFNE01.jpg,AFSA06.jpg,FS,4,num_2,16,num_2,0.683513391035,,,2018_Jan_25_1906,59.9945543405,MAFE4ImagesEEG,001,202782,
AFNE01.JPG,AFNE01.JPG,AFNE01.JPG,AFNE01.JPG,AFNE01.JPG,AFNE01.JPG,,,,,3,3,33,5,,,,,,,,,,,,,,,,,,,AFSA01.jpg,AFSA07.jpg,AFNE16.jpg,AFNE09.jpg,AFSA01.jpg,FS,4,num_8,16,num_8,0.966789050086,,,2018_Jan_25_1906,59.9945543405,MAFE4ImagesEEG,001,202782,
AFNE01.JPG,AFNE01.JPG,AFNE01.JPG,AFNE01.JPG,AFNE01.JPG,AFNE01.JPG,,,,,3,4,34,0,,,,,,,,,,,,,,,,,,,AFSA04.jpg,AFSA09.jpg,AFNE09.jpg,AFNE04.jpg,AFSA04.jpg,FS,4,num_8,32,num_2,0.650166768392,,,2018_Jan_25_1906,59.9945543405,MAFE4ImagesEEG,001,202782,
AFNE01.JPG,AFNE01.JPG,AFNE01.JPG,AFNE01.JPG,AFNE01.JPG,AFNE01.JPG,,,,,3,5,35,4,,,,,,,,,,,,,,,,,,,AFNE07.jpg,AFNE12.jpg,AFSA16.jpg,AFSA08.jpg,AFSA08.jpg,FS,4,num_4,32,num_2,0.666901982389,,,2018_Jan_25_1906,59.9945543405,MAFE4ImagesEEG,001,202782,
AFNE01.JPG,AFNE01.JPG,AFNE01.JPG,AFNE01.JPG,AFNE01.JPG,AFNE01.JPG,,,,,3,6,36,7,,,,,,,,,,,,,,,,,,,AFSA03.jpg,AFSA04.jpg,AFNE01.jpg,AFNE14.jpg,AFNE14.jpg,FN,3,num_4,32,num_2,0.816849846233,,,2018_Jan_25_1906,59.9945543405,MAFE4ImagesEEG,001,202782,
AFNE01.JPG,AFNE01.JPG,AFNE01.JPG,AFNE01.JPG,AFNE01.JPG,AFNE01.JPG,,,,,3,7,37,3,,,,,,,,,,,,,,,,,,,AFNE06.jpg,AFSA17.jpg,AFSA08.jpg,AFNE02.jpg,AFNE06.jpg,FN,3,num_8,32,num_2,0.766773462165,,,2018_Jan_25_1906,59.9945543405,MAFE4ImagesEEG,001,202782,
AFNE01.JPG,AFNE01.JPG,AFNE01.JPG,AFNE01.JPG,AFNE01.JPG,AFNE01.JPG,,,,,3,8,38,8,,,,,,,,,,,,,,,,,,,AFSA12.jpg,AFNE13.jpg,AFNE19.jpg,AFSA11.jpg,AFSA11.jpg,FS,4,num_4,32,num_6,0.666829495327,,,2018_Jan_25_1906,59.9945543405,MAFE4ImagesEEG,001,202782,
AFNE01.JPG,AFNE01.JPG,AFNE01.JPG,AFNE01.JPG,AFNE01.JPG,AFNE01.JPG,,,,,3,9,39,6,,,,,,,,,,,,,,,,,,,AFNE18.jpg,AFSA15.jpg,AFNE09.jpg,AFSA11.jpg,AFSA11.jpg,FS,4,num_4,16,num_4,0.916806642635,,,2018_Jan_25_1906,59.9945543405,MAFE4ImagesEEG,001,202782,
AFNE01.JPG,AFNE01.JPG,AFNE01.JPG,AFNE01.JPG,AFNE01.JPG,AFNE01.JPG,,,,,4,0,40,9,,,,,,,,,,,,,,,,,,,AFSA05.jpg,AFNE04.jpg,AFSA11.jpg,AFNE13.jpg,AFSA05.jpg,FS,4,num_8,32,num_6,0.700181891239,,,2018_Jan_25_1906,59.9945543405,MAFE4ImagesEEG,001,202782,
AFNE01.JPG,AFNE01.JPG,AFNE01.JPG,AFNE01.JPG,AFNE01.JPG,AFNE01.JPG,,,,,4,1,41,8,,,,,,,,,,,,,,,,,,,AFNE20.jpg,AFNE17.jpg,AFSA02.jpg,AFSA20.jpg,AFSA02.jpg,FS,4,num_2,32,num_6,1.01675253392,,,2018_Jan_25_1906,59.9945543405,MAFE4ImagesEEG,001,202782,
AFNE01.JPG,AFNE01.JPG,AFNE01.JPG,AFNE01.JPG,AFNE01.JPG,AFNE01.JPG,,,,,4,2,42,3,,,,,,,,,,,,,,,,,,,AFSA10.jpg,AFNE15.jpg,AFSA06.jpg,AFNE12.jpg,AFSA06.jpg,FS,4,num_2,32,num_8,1.3668019438,,,2018_Jan_25_1906,59.9945543405,MAFE4ImagesEEG,001,202782,
AFNE01.JPG,AFNE01.JPG,AFNE01.JPG,AFNE01.JPG,AFNE01.JPG,AFNE01.JPG,,,,,4,3,43,5,,,,,,,,,,,,,,,,,,,AFNE16.jpg,AFSA15.jpg,AFSA04.jpg,AFNE09.jpg,AFNE16.jpg,FN,3,num_8,16,num_8,0.933465520691,,,2018_Jan_25_1906,59.9945543405,MAFE4ImagesEEG,001,202782,
AFNE01.JPG,AFNE01.JPG,AFNE01.JPG,AFNE01.JPG,AFNE01.JPG,AFNE01.JPG,,,,,4,4,44,0,,,,,,,,,,,,,,,,,,,AFNE12.jpg,AFSA11.jpg,AFNE15.jpg,AFSA17.jpg,AFSA11.jpg,FS,4,num_6,16,num_6,0.933432484526,,,2018_Jan_25_1906,59.9945543405,MAFE4ImagesEEG,001,202782,
AFNE01.JPG,AFNE01.JPG,AFNE01.JPG,AFNE01.JPG,AFNE01.JPG,AFNE01.JPG,,,,,4,5,45,7,,,,,,,,,,,,,,,,,,,AFSA16.jpg,AFNE16.jpg,AFSA09.jpg,AFNE06.jpg,AFSA09.jpg,FS,4,num_2,32,num_6,0.666892680951,,,2018_Jan_25_1906,59.9945543405,MAFE4ImagesEEG,001,202782,
AFNE01.JPG,AFNE01.JPG,AFNE01.JPG,AFNE01.JPG,AFNE01.JPG,AFNE01.JPG,,,,,4,6,46,1,,,,,,,,,,,,,,,,,,,AFNE13.jpg,AFNE05.jpg,AFSA08.jpg,AFSA16.jpg,AFSA16.jpg,FS,4,num_4,16,num_4,0.416793652708,,,2018_Jan_25_1906,59.9945543405,MAFE4ImagesEEG,001,202782,
AFNE01.JPG,AFNE01.JPG,AFNE01.JPG,AFNE01.JPG,AFNE01.JPG,AFNE01.JPG,,,,,4,7,47,2,,,,,,,,,,,,,,,,,,,AFSA08.jpg,AFNE04.jpg,AFSA02.jpg,AFNE05.jpg,AFNE05.jpg,FN,3,num_4,16,num_4,0.550152238895,,,2018_Jan_25_1906,59.9945543405,MAFE4ImagesEEG,001,202782,
AFNE01.JPG,AFNE01.JPG,AFNE01.JPG,AFNE01.JPG,AFNE01.JPG,AFNE01.JPG,,,,,4,8,48,4,,,,,,,,,,,,,,,,,,,AFSA14.jpg,AFSA02.jpg,AFNE20.jpg,AFNE07.jpg,AFNE07.jpg,FN,3,num_4,16,num_4,1.21662667581,,,2018_Jan_25_1906,59.9945543405,MAFE4ImagesEEG,001,202782,
AFNE01.JPG,AFNE01.JPG,AFNE01.JPG,AFNE01.JPG,AFNE01.JPG,AFNE01.JPG,,,,,4,9,49,6,,,,,,,,,,,,,,,,,,,AFSA03.jpg,AFNE06.jpg,AFSA06.jpg,AFNE01.jpg,AFNE01.jpg,FN,3,num_4,32,num_8,0.750277198938,,,2018_Jan_25_1906,59.9945543405,MAFE4ImagesEEG,001,202782,
AFNE01.JPG,AFNE01.JPG,AFNE01.JPG,AFNE01.JPG,AFNE01.JPG,AFNE01.JPG,,,,,5,0,50,5,,,,,,,,,,,,,,,,,,,AFNE11.jpg,AFSA01.jpg,AFSA06.jpg,AFNE03.jpg,AFNE11.jpg,FN,3,num_8,16,num_8,0.583500465233,,,2018_Jan_25_1906,59.9945543405,MAFE4ImagesEEG,001,202782,
AFNE01.JPG,AFNE01.JPG,AFNE01.JPG,AFNE01.JPG,AFNE01.JPG,AFNE01.JPG,,,,,5,1,51,9,,,,,,,,,,,,,,,,,,,AFSA11.jpg,AFNE17.jpg,AFSA15.jpg,AFNE13.jpg,AFSA15.jpg,FS,4,num_2,16,num_2,0.433514433433,,,2018_Jan_25_1906,59.9945543405,MAFE4ImagesEEG,001,202782,
AFNE01.JPG,AFNE01.JPG,AFNE01.JPG,AFNE01.JPG,AFNE01.JPG,AFNE01.JPG,,,,,5,2,52,8,,,,,,,,,,,,,,,,,,,AFSA17.jpg,AFSA18.jpg,AFNE19.jpg,AFNE07.jpg,AFSA18.jpg,FS,4,num_6,16,num_6,0.800256078248,,,2018_Jan_25_1906,59.9945543405,MAFE4ImagesEEG,001,202782,
AFNE01.JPG,AFNE01.JPG,AFNE01.JPG,AFNE01.JPG,AFNE01.JPG,AFNE01.JPG,,,,,5,3,53,0,,,,,,,,,,,,,,,,,,,AFSA17.jpg,AFNE11.jpg,AFNE19.jpg,AFSA05.jpg,AFSA05.jpg,FS,4,num_4,16,num_4,0.733488742218,,,2018_Jan_25_1906,59.9945543405,MAFE4ImagesEEG,001,202782,
AFNE01.JPG,AFNE01.JPG,AFNE01.JPG,AFNE01.JPG,AFNE01.JPG,AFNE01.JPG,,,,,5,4,54,4,,,,,,,,,,,,,,,,,,,AFSA02.jpg,AFSA12.jpg,AFNE01.jpg,AFNE19.jpg,AFSA02.jpg,FS,4,num_8,32,num_2,0.550244611819,,,2018_Jan_25_1906,59.9945543405,MAFE4ImagesEEG,001,202782,
AFNE01.JPG,AFNE01.JPG,AFNE01.JPG,AFNE01.JPG,AFNE01.JPG,AFNE01.JPG,,,,,5,5,55,6,,,,,,,,,,,,,,,,,,,AFSA13.jpg,AFNE15.jpg,AFNE10.jpg,AFSA08.jpg,AFNE15.jpg,FN,3,num_6,32,num_2,0.783459282306,,,2018_Jan_25_1906,59.9945543405,MAFE4ImagesEEG,001,202782,
AFNE01.JPG,AFNE01.JPG,AFNE01.JPG,AFNE01.JPG,AFNE01.JPG,AFNE01.JPG,,,,,5,6,56,7,,,,,,,,,,,,,,,,,,,AFSA16.jpg,AFSA15.jpg,AFNE18.jpg,AFNE01.jpg,AFNE18.jpg,FN,3,num_2,16,num_2,0.933472897697,,,2018_Jan_25_1906,59.9945543405,MAFE4ImagesEEG,001,202782,
AFNE01.JPG,AFNE01.JPG,AFNE01.JPG,AFNE01.JPG,AFNE01.JPG,AFNE01.JPG,,,,,5,7,57,2,,,,,,,,,,,,,,,,,,,AFNE15.jpg,AFSA09.jpg,AFSA03.jpg,AFNE17.jpg,AFNE17.jpg,FN,3,num_4,32,num_8,0.933597986019,,,2018_Jan_25_1906,59.9945543405,MAFE4ImagesEEG,001,202782,
AFNE01.JPG,AFNE01.JPG,AFNE01.JPG,AFNE01.JPG,AFNE01.JPG,AFNE01.JPG,,,,,5,8,58,1,,,,,,,,,,,,,,,,,,,AFSA09.jpg,AFSA19.jpg,AFNE12.jpg,AFNE14.jpg,AFSA19.jpg,FS,4,num_6,32,num_2,0.950091041857,,,2018_Jan_25_1906,59.9945543405,MAFE4ImagesEEG,001,202782,
AFNE01.JPG,AFNE01.JPG,AFNE01.JPG,AFNE01.JPG,AFNE01.JPG,AFNE01.JPG,,,,,5,9,59,3,,,,,,,,,,,,,,,,,,,AFSA15.jpg,AFNE11.jpg,AFSA07.jpg,AFNE17.jpg,AFNE17.jpg,FN,3,num_4,32,num_2,0.600126627876,,,2018_Jan_25_1906,59.9945543405,MAFE4ImagesEEG,001,202782,
,,,,,,,,,,,,,,,,,,,,,,,,,,,,,,,,,,,,,,,,,,,space,0.766664090057,2018_Jan_25_1906,59.9945543405,MAFE4ImagesEEG,001,202782,
AFNE01.JPG,AFNE01.JPG,AFNE01.JPG,AFNE01.JPG,AFNE01.JPG,AFNE01.JPG,,,,,,,,,0,0,0,9,,,,,,,,,,,,,,,AMNE16.jpg,AMSA09.jpg,AMSA02.jpg,AMNE03.jpg,AMNE03.jpg,MN,1,num_4,32,num_2,0.600145872231,,,2018_Jan_25_1906,59.9945543405,MAFE4ImagesEEG,001,202782,
AFNE01.JPG,AFNE01.JPG,AFNE01.JPG,AFNE01.JPG,AFNE01.JPG,AFNE01.JPG,,,,,,,,,0,1,1,5,,,,,,,,,,,,,,,AMNE04.jpg,AMSA01.jpg,AMSA11.jpg,AMNE12.jpg,AMSA01.jpg,MS,2,num_6,16,num_6,0.50015154932,,,2018_Jan_25_1906,59.9945543405,MAFE4ImagesEEG,001,202782,
AFNE01.JPG,AFNE01.JPG,AFNE01.JPG,AFNE01.JPG,AFNE01.JPG,AFNE01.JPG,,,,,,,,,0,2,2,1,,,,,,,,,,,,,,,AMSA14.jpg,AMNE20.jpg,AMSA10.jpg,AMNE02.jpg,AMSA10.jpg,MS,2,num_2,32,num_6,0.683450526136,,,2018_Jan_25_1906,59.9945543405,MAFE4ImagesEEG,001,202782,
AFNE01.JPG,AFNE01.JPG,AFNE01.JPG,AFNE01.JPG,AFNE01.JPG,AFNE01.JPG,,,,,,,,,0,3,3,2,,,,,,,,,,,,,,,AMNE10.jpg,AMSA15.jpg,AMNE02.jpg,AMSA06.jpg,AMNE10.jpg,MN,1,num_8,32,num_2,0.766755821489,,,2018_Jan_25_1906,59.9945543405,MAFE4ImagesEEG,001,202782,
AFNE01.JPG,AFNE01.JPG,AFNE01.JPG,AFNE01.JPG,AFNE01.JPG,AFNE01.JPG,,,,,,,,,0,4,4,0,,,,,,,,,,,,,,,AMSA01.jpg,AMNE11.jpg,AMNE20.jpg,AMSA18.jpg,AMNE20.jpg,MN,1,num_2,32,num_6,1.20012880889,,,2018_Jan_25_1906,59.9945543405,MAFE4ImagesEEG,001,202782,
AFNE01.JPG,AFNE01.JPG,AFNE01.JPG,AFNE01.JPG,AFNE01.JPG,AFNE01.JPG,,,,,,,,,0,5,5,8,,,,,,,,,,,,,,,AMSA01.jpg,AMNE12.jpg,AMNE06.jpg,AMSA17.jpg,AMSA17.jpg,MS,2,num_4,32,num_6,0.800152158728,,,2018_Jan_25_1906,59.9945543405,MAFE4ImagesEEG,001,202782,
AFNE01.JPG,AFNE01.JPG,AFNE01.JPG,AFNE01.JPG,AFNE01.JPG,AFNE01.JPG,,,,,,,,,0,6,6,3,,,,,,,,,,,,,,,AMSA17.jpg,AMNE10.jpg,AMSA03.jpg,AMNE15.jpg,AMSA03.jpg,MS,2,num_2,16,num_2,0.800139329149,,,2018_Jan_25_1906,59.9945543405,MAFE4ImagesEEG,001,202782,
AFNE01.JPG,AFNE01.JPG,AFNE01.JPG,AFNE01.JPG,AFNE01.JPG,AFNE01.JPG,,,,,,,,,0,7,7,7,,,,,,,,,,,,,,,AMNE01.jpg,AMSA19.jpg,AMSA06.jpg,AMNE17.jpg,AMSA06.jpg,MS,2,num_2,32,num_6,0.650178315002,,,2018_Jan_25_1906,59.9945543405,MAFE4ImagesEEG,001,202782,
AFNE01.JPG,AFNE01.JPG,AFNE01.JPG,AFNE01.JPG,AFNE01.JPG,AFNE01.JPG,,,,,,,,,0,8,8,6,,,,,,,,,,,,,,,AMNE18.jpg,AMNE10.jpg,AMSA14.jpg,AMSA05.jpg,AMNE18.jpg,MN,1,num_8,32,num_6,0.783434585377,,,2018_Jan_25_1906,59.9945543405,MAFE4ImagesEEG,001,202782,
AFNE01.JPG,AFNE01.JPG,AFNE01.JPG,AFNE01.JPG,AFNE01.JPG,AFNE01.JPG,,,,,,,,,0,9,9,4,,,,,,,,,,,,,,,AMNE14.jpg,AMNE17.jpg,AMSA05.jpg,AMSA09.jpg,AMSA09.jpg,MS,2,num_4,32,num_6,0.733453781635,,,2018_Jan_25_1906,59.9945543405,MAFE4ImagesEEG,001,202782,
AFNE01.JPG,AFNE01.JPG,AFNE01.JPG,AFNE01.JPG,AFNE01.JPG,AFNE01.JPG,,,,,,,,,1,0,10,7,,,,,,,,,,,,,,,AMSA04.jpg,AMSA01.jpg,AMNE02.jpg,AMNE20.jpg,AMNE20.jpg,MN,1,num_4,32,num_2,0.66675829119,,,2018_Jan_25_1906,59.9945543405,MAFE4ImagesEEG,001,202782,
AFNE01.JPG,AFNE01.JPG,AFNE01.JPG,AFNE01.JPG,AFNE01.JPG,AFNE01.JPG,,,,,,,,,1,1,11,8,,,,,,,,,,,,,,,AMNE14.jpg,AMSA20.jpg,AMSA11.jpg,AMNE10.jpg,AMNE10.jpg,MN,1,num_4,16,num_4,1.31689907971,,,2018_Jan_25_1906,59.9945543405,MAFE4ImagesEEG,001,202782,
AFNE01.JPG,AFNE01.JPG,AFNE01.JPG,AFNE01.JPG,AFNE01.JPG,AFNE01.JPG,,,,,,,,,1,2,12,2,,,,,,,,,,,,,,,AMSA14.jpg,AMNE07.jpg,AMNE08.jpg,AMSA09.jpg,AMSA09.jpg,MS,2,num_4,16,num_4,0.566800211804,,,2018_Jan_25_1906,59.9945543405,MAFE4ImagesEEG,001,202782,
AFNE01.JPG,AFNE01.JPG,AFNE01.JPG,AFNE01.JPG,AFNE01.JPG,AFNE01.JPG,,,,,,,,,1,3,13,1,,,,,,,,,,,,,,,AMSA17.jpg,AMNE13.jpg,AMNE19.jpg,AMSA12.jpg,AMSA17.jpg,MS,2,num_8,32,num_2,0.600158060319,,,2018_Jan_25_1906,59.9945543405,MAFE4ImagesEEG,001,202782,
AFNE01.JPG,AFNE01.JPG,AFNE01.JPG,AFNE01.JPG,AFNE01.JPG,AFNE01.JPG,,,,,,,,,1,4,14,5,,,,,,,,,,,,,,,AMSA13.jpg,AMNE15.jpg,AMNE17.jpg,AMSA18.jpg,AMNE15.jpg,MN,1,num_6,16,num_6,0.616818542068,,,2018_Jan_25_1906,59.9945543405,MAFE4ImagesEEG,001,202782,
AFNE01.JPG,AFNE01.JPG,AFNE01.JPG,AFNE01.JPG,AFNE01.JPG,AFNE01.JPG,,,,,,,,,1,5,15,9,,,,,,,,,,,,,,,AMSA07.jpg,AMNE01.jpg,AMSA11.jpg,AMNE15.jpg,AMSA07.jpg,MS,2,num_8,32,num_6,0.583456523949,,,2018_Jan_25_1906,59.9945543405,MAFE4ImagesEEG,001,202782,
AFNE01.JPG,AFNE01.JPG,AFNE01.JPG,AFNE01.JPG,AFNE01.JPG,AFNE01.JPG,,,,,,,,,1,6,16,3,,,,,,,,,,,,,,,AMSA03.jpg,AMNE03.jpg,AMNE01.jpg,AMSA12.jpg,AMNE03.jpg,MN,1,num_6,16,num_6,0.583563330132,,,2018_Jan_25_1906,59.9945543405,MAFE4ImagesEEG,001,202782,
AFNE01.JPG,AFNE01.JPG,AFNE01.JPG,AFNE01.JPG,AFNE01.JPG,AFNE01.JPG,,,,,,,,,1,7,17,6,,,,,,,,,,,,,,,AMNE01.jpg,AMNE18.jpg,AMSA11.jpg,AMSA03.jpg,AMSA11.jpg,MS,2,num_2,32,num_6,0.633451760965,,,2018_Jan_25_1906,59.9945543405,MAFE4ImagesEEG,001,202782,
AFNE01.JPG,AFNE01.JPG,AFNE01.JPG,AFNE01.JPG,AFNE01.JPG,AFNE01.JPG,,,,,,,,,1,8,18,0,,,,,,,,,,,,,,,AMNE07.jpg,AMSA02.jpg,AMSA19.jpg,AMNE17.jpg,AMSA02.jpg,MS,2,num_6,32,num_2,0.650185371269,,,2018_Jan_25_1906,59.9945543405,MAFE4ImagesEEG,001,202782,
AFNE01.JPG,AFNE01.JPG,AFNE01.JPG,AFNE01.JPG,AFNE01.JPG,AFNE01.JPG,,,,,,,,,1,9,19,4,,,,,,,,,,,,,,,AMNE07.jpg,AMSA12.jpg,AMNE12.jpg,AMSA04.jpg,AMSA04.jpg,MS,2,num_4,32,num_6,0.400136378346,,,2018_Jan_25_1906,59.9945543405,MAFE4ImagesEEG,001,202782,
AFNE01.JPG,AFNE01.JPG,AFNE01.JPG,AFNE01.JPG,AFNE01.JPG,AFNE01.JPG,,,,,,,,,2,0,20,5,,,,,,,,,,,,,,,AMNE03.jpg,AMSA17.jpg,AMNE13.jpg,AMSA06.jpg,AMSA17.jpg,MS,2,num_6,16,num_6,0.600150041835,,,2018_Jan_25_1906,59.9945543405,MAFE4ImagesEEG,001,202782,
AFNE01.JPG,AFNE01.JPG,AFNE01.JPG,AFNE01.JPG,AFNE01.JPG,AFNE01.JPG,,,,,,,,,2,1,21,1,,,,,,,,,,,,,,,AMSA11.jpg,AMSA06.jpg,AMNE17.jpg,AMNE02.jpg,AMNE17.jpg,MN,1,num_2,32,num_6,0.5834985408,,,2018_Jan_25_1906,59.9945543405,MAFE4ImagesEEG,001,202782,
AFNE01.JPG,AFNE01.JPG,AFNE01.JPG,AFNE01.JPG,AFNE01.JPG,AFNE01.JPG,,,,,,,,,2,2,22,9,,,,,,,,,,,,,,,AMNE09.jpg,AMSA08.jpg,AMNE16.jpg,AMSA14.jpg,AMNE16.jpg,MN,1,num_2,16,num_2,0.650146882559,,,2018_Jan_25_1906,59.9945543405,MAFE4ImagesEEG,001,202782,
AFNE01.JPG,AFNE01.JPG,AFNE01.JPG,AFNE01.JPG,AFNE01.JPG,AFNE01.JPG,,,,,,,,,2,3,23,8,,,,,,,,,,,,,,,AMSA19.jpg,AMNE13.jpg,AMNE14.jpg,AMSA07.jpg,AMNE13.jpg,MN,1,num_6,16,num_6,0.500175925496,,,2018_Jan_25_1906,59.9945543405,MAFE4ImagesEEG,001,202782,
AFNE01.JPG,AFNE01.JPG,AFNE01.JPG,AFNE01.JPG,AFNE01.JPG,AFNE01.JPG,,,,,,,,,2,4,24,3,,,,,,,,,,,,,,,AMNE14.jpg,AMSA20.jpg,AMNE06.jpg,AMSA18.jpg,AMSA18.jpg,MS,2,num_4,32,num_6,0.650169334302,,,2018_Jan_25_1906,59.9945543405,MAFE4ImagesEEG,001,202782,
AFNE01.JPG,AFNE01.JPG,AFNE01.JPG,AFNE01.JPG,AFNE01.JPG,AFNE01.JPG,,,,,,,,,2,5,25,0,,,,,,,,,,,,,,,AMSA01.jpg,AMSA19.jpg,AMNE11.jpg,AMNE12.jpg,AMSA19.jpg,MS,2,num_6,32,num_4,0.500128456086,,,2018_Jan_25_1906,59.9945543405,MAFE4ImagesEEG,001,202782,
AFNE01.JPG,AFNE01.JPG,AFNE01.JPG,AFNE01.JPG,AFNE01.JPG,AFNE01.JPG,,,,,,,,,2,6,26,2,,,,,,,,,,,,,,,AMSA11.jpg,AMNE06.jpg,AMSA09.jpg,AMNE11.jpg,AMSA11.jpg,MS,2,num_8,32,num_6,0.416812255571,,,2018_Jan_25_1906,59.9945543405,MAFE4ImagesEEG,001,202782,
AFNE01.JPG,AFNE01.JPG,AFNE01.JPG,AFNE01.JPG,AFNE01.JPG,AFNE01.JPG,,,,,,,,,2,7,27,7,,,,,,,,,,,,,,,AMNE12.jpg,AMSA15.jpg,AMSA18.jpg,AMNE01.jpg,AMSA15.jpg,MS,2,num_6,16,num_6,0.41692130694,,,2018_Jan_25_1906,59.9945543405,MAFE4ImagesEEG,001,202782,
AFNE01.JPG,AFNE01.JPG,AFNE01.JPG,AFNE01.JPG,AFNE01.JPG,AFNE01.JPG,,,,,,,,,2,8,28,4,,,,,,,,,,,,,,,AMNE18.jpg,AMSA15.jpg,AMNE15.jpg,AMSA19.jpg,AMSA15.jpg,MS,2,num_6,16,num_6,0.499988934505,,,2018_Jan_25_1906,59.9945543405,MAFE4ImagesEEG,001,202782,
AFNE01.JPG,AFNE01.JPG,AFNE01.JPG,AFNE01.JPG,AFNE01.JPG,AFNE01.JPG,,,,,,,,,2,9,29,6,,,,,,,,,,,,,,,AMSA17.jpg,AMSA08.jpg,AMNE17.jpg,AMNE06.jpg,AMNE06.jpg,MN,1,num_4,32,num_6,0.650178315002,,,2018_Jan_25_1906,59.9945543405,MAFE4ImagesEEG,001,202782,
AFNE01.JPG,AFNE01.JPG,AFNE01.JPG,AFNE01.JPG,AFNE01.JPG,AFNE01.JPG,,,,,,,,,3,0,30,1,,,,,,,,,,,,,,,AMNE07.jpg,AMSA19.jpg,AMNE15.jpg,AMSA02.jpg,AMSA02.jpg,MS,2,num_4,32,num_2,0.650133411516,,,2018_Jan_25_1906,59.9945543405,MAFE4ImagesEEG,001,202782,
AFNE01.JPG,AFNE01.JPG,AFNE01.JPG,AFNE01.JPG,AFNE01.JPG,AFNE01.JPG,,,,,,,,,3,1,31,2,,,,,,,,,,,,,,,AMNE16.jpg,AMSA14.jpg,AMSA08.jpg,AMNE18.jpg,AMSA14.jpg,MS,2,num_6,32,num_4,0.666773365927,,,2018_Jan_25_1906,59.9945543405,MAFE4ImagesEEG,001,202782,
AFNE01.JPG,AFNE01.JPG,AFNE01.JPG,AFNE01.JPG,AFNE01.JPG,AFNE01.JPG,,,,,,,,,3,2,32,5,,,,,,,,,,,,,,,AMSA17.jpg,AMNE10.jpg,AMSA04.jpg,AMNE20.jpg,AMNE20.jpg,MN,1,num_4,32,num_6,0.700169061674,,,2018_Jan_25_1906,59.9945543405,MAFE4ImagesEEG,001,202782,
AFNE01.JPG,AFNE01.JPG,AFNE01.JPG,AFNE01.JPG,AFNE01.JPG,AFNE01.JPG,,,,,,,,,3,3,33,8,,,,,,,,,,,,,,,AMNE06.jpg,AMSA19.jpg,AMSA05.jpg,AMNE17.jpg,AMSA19.jpg,MS,2,num_6,16,num_6,1.26676143444,,,2018_Jan_25_1906,59.9945543405,MAFE4ImagesEEG,001,202782,
AFNE01.JPG,AFNE01.JPG,AFNE01.JPG,AFNE01.JPG,AFNE01.JPG,AFNE01.JPG,,,,,,,,,3,4,34,7,,,,,,,,,,,,,,,AMSA15.jpg,AMNE11.jpg,AMSA08.jpg,AMNE10.jpg,AMSA15.jpg,MS,2,num_8,32,num_4,0.316852572505,,,2018_Jan_25_1906,59.9945543405,MAFE4ImagesEEG,001,202782,
AFNE01.JPG,AFNE01.JPG,AFNE01.JPG,AFNE01.JPG,AFNE01.JPG,AFNE01.JPG,,,,,,,,,3,5,35,9,,,,,,,,,,,,,,,AMSA14.jpg,AMNE14.jpg,AMSA02.jpg,AMNE08.jpg,AMNE08.jpg,MN,1,num_4,32,num_2,0.433516037127,,,2018_Jan_25_1906,59.9945543405,MAFE4ImagesEEG,001,202782,
AFNE01.JPG,AFNE01.JPG,AFNE01.JPG,AFNE01.JPG,AFNE01.JPG,AFNE01.JPG,,,,,,,,,3,6,36,6,,,,,,,,,,,,,,,AMSA02.jpg,AMNE03.jpg,AMNE02.jpg,AMSA11.jpg,AMNE03.jpg,MN,1,num_6,16,num_6,0.566753383886,,,2018_Jan_25_1906,59.9945543405,MAFE4ImagesEEG,001,202782,
AFNE01.JPG,AFNE01.JPG,AFNE01.JPG,AFNE01.JPG,AFNE01.JPG,AFNE01.JPG,,,,,,,,,3,7,37,4,,,,,,,,,,,,,,,AMSA15.jpg,AMNE07.jpg,AMSA17.jpg,AMNE19.jpg,AMSA15.jpg,MS,2,num_8,32,num_2,1.11678310037,,,2018_Jan_25_1906,59.9945543405,MAFE4ImagesEEG,001,202782,
AFNE01.JPG,AFNE01.JPG,AFNE01.JPG,AFNE01.JPG,AFNE01.JPG,AFNE01.JPG,,,,,,,,,3,8,38,3,,,,,,,,,,,,,,,AMNE17.jpg,AMSA20.jpg,AMSA04.jpg,AMNE02.jpg,AMSA04.jpg,MS,2,num_2,16,num_2,0.583553066477,,,2018_Jan_25_1906,59.9945543405,MAFE4ImagesEEG,001,202782,
AFNE01.JPG,AFNE01.JPG,AFNE01.JPG,AFNE01.JPG,AFNE01.JPG,AFNE01.JPG,,,,,,,,,3,9,39,0,,,,,,,,,,,,,,,AMSA20.jpg,AMNE10.jpg,AMNE05.jpg,AMSA15.jpg,AMNE10.jpg,MN,1,num_6,32,num_2,0.683487090413,,,2018_Jan_25_1906,59.9945543405,MAFE4ImagesEEG,001,202782,
AFNE01.JPG,AFNE01.JPG,AFNE01.JPG,AFNE01.JPG,AFNE01.JPG,AFNE01.JPG,,,,,,,,,4,0,40,2,,,,,,,,,,,,,,,AMSA17.jpg,AMSA09.jpg,AMNE18.jpg,AMNE12.jpg,AMNE12.jpg,MN,1,num_4,32,num_2,0.333527487528,,,2018_Jan_25_1906,59.9945543405,MAFE4ImagesEEG,001,202782,
AFNE01.JPG,AFNE01.JPG,AFNE01.JPG,AFNE01.JPG,AFNE01.JPG,AFNE01.JPG,,,,,,,,,4,1,41,7,,,,,,,,,,,,,,,AMNE08.jpg,AMSA13.jpg,AMSA14.jpg,AMNE15.jpg,AMSA13.jpg,MS,2,num_6,32,num_2,0.700140195142,,,2018_Jan_25_1906,59.9945543405,MAFE4ImagesEEG,001,202782,
AFNE01.JPG,AFNE01.JPG,AFNE01.JPG,AFNE01.JPG,AFNE01.JPG,AFNE01.JPG,,,,,,,,,4,2,42,3,,,,,,,,,,,,,,,AMSA11.jpg,AMNE11.jpg,AMSA10.jpg,AMNE20.jpg,AMNE11.jpg,MN,1,num_6,32,num_2,0.35021811875,,,2018_Jan_25_1906,59.9945543405,MAFE4ImagesEEG,001,202782,
AFNE01.JPG,AFNE01.JPG,AFNE01.JPG,AFNE01.JPG,AFNE01.JPG,AFNE01.JPG,,,,,,,,,4,3,43,5,,,,,,,,,,,,,,,AMSA19.jpg,AMSA13.jpg,AMNE07.jpg,AMNE08.jpg,AMNE08.jpg,MN,1,num_4,32,num_6,0.0335721023584,,,2018_Jan_25_1906,59.9945543405,MAFE4ImagesEEG,001,202782,
AFNE01.JPG,AFNE01.JPG,AFNE01.JPG,AFNE01.JPG,AFNE01.JPG,AFNE01.JPG,,,,,,,,,4,4,44,4,,,,,,,,,,,,,,,AMNE01.jpg,AMSA08.jpg,AMSA09.jpg,AMNE11.jpg,AMSA08.jpg,MS,2,num_6,32,num_4,0.416814500742,,,2018_Jan_25_1906,59.9945543405,MAFE4ImagesEEG,001,202782,
AFNE01.JPG,AFNE01.JPG,AFNE01.JPG,AFNE01.JPG,AFNE01.JPG,AFNE01.JPG,,,,,,,,,4,5,45,1,,,,,,,,,,,,,,,AMSA10.jpg,AMNE04.jpg,AMNE03.jpg,AMSA15.jpg,AMSA10.jpg,MS,2,num_8,32,num_2,0.583514257029,,,2018_Jan_25_1906,59.9945543405,MAFE4ImagesEEG,001,202782,
AFNE01.JPG,AFNE01.JPG,AFNE01.JPG,AFNE01.JPG,AFNE01.JPG,AFNE01.JPG,,,,,,,,,4,6,46,0,,,,,,,,,,,,,,,AMSA06.jpg,AMNE10.jpg,AMSA05.jpg,AMNE04.jpg,AMNE04.jpg,MN,1,num_4,32,num_6,1.16680752467,,,2018_Jan_25_1906,59.9945543405,MAFE4ImagesEEG,001,202782,
AFNE01.JPG,AFNE01.JPG,AFNE01.JPG,AFNE01.JPG,AFNE01.JPG,AFNE01.JPG,,,,,,,,,4,7,47,8,,,,,,,,,,,,,,,AMNE03.jpg,AMSA05.jpg,AMSA07.jpg,AMNE12.jpg,AMSA07.jpg,MS,2,num_2,32,num_6,0.333490281759,,,2018_Jan_25_1906,59.9945543405,MAFE4ImagesEEG,001,202782,
AFNE01.JPG,AFNE01.JPG,AFNE01.JPG,AFNE01.JPG,AFNE01.JPG,AFNE01.JPG,,,,,,,,,4,8,48,9,,,,,,,,,,,,,,,AMNE20.jpg,AMSA12.jpg,AMSA20.jpg,AMNE01.jpg,AMNE20.jpg,MN,1,num_8,32,num_6,0.733538777538,,,2018_Jan_25_1906,59.9945543405,MAFE4ImagesEEG,001,202782,
AFNE01.JPG,AFNE01.JPG,AFNE01.JPG,AFNE01.JPG,AFNE01.JPG,AFNE01.JPG,,,,,,,,,4,9,49,6,,,,,,,,,,,,,,,AMNE04.jpg,AMNE12.jpg,AMSA04.jpg,AMSA16.jpg,AMNE04.jpg,MN,1,num_8,32,num_6,0.633467156455,,,2018_Jan_25_1906,59.9945543405,MAFE4ImagesEEG,001,202782,
AFNE01.JPG,AFNE01.JPG,AFNE01.JPG,AFNE01.JPG,AFNE01.JPG,AFNE01.JPG,,,,,,,,,5,0,50,4,,,,,,,,,,,,,,,AMSA15.jpg,AMSA08.jpg,AMNE01.jpg,AMNE09.jpg,AMNE09.jpg,MN,1,num_4,32,num_6,0.700392616971,,,2018_Jan_25_1906,59.9945543405,MAFE4ImagesEEG,001,202782,
AFNE01.JPG,AFNE01.JPG,AFNE01.JPG,AFNE01.JPG,AFNE01.JPG,AFNE01.JPG,,,,,,,,,5,1,51,6,,,,,,,,,,,,,,,AMSA14.jpg,AMNE01.jpg,AMSA01.jpg,AMNE09.jpg,AMSA14.jpg,MS,2,num_8,32,num_4,1.86674533333,,,2018_Jan_25_1906,59.9945543405,MAFE4ImagesEEG,001,202782,
AFNE01.JPG,AFNE01.JPG,AFNE01.JPG,AFNE01.JPG,AFNE01.JPG,AFNE01.JPG,,,,,,,,,5,2,52,9,,,,,,,,,,,,,,,AMNE16.jpg,AMSA15.jpg,AMSA05.jpg,AMNE05.jpg,AMSA15.jpg,MS,2,num_6,16,num_6,1.06672980955,,,2018_Jan_25_1906,59.9945543405,MAFE4ImagesEEG,001,202782,
AFNE01.JPG,AFNE01.JPG,AFNE01.JPG,AFNE01.JPG,AFNE01.JPG,AFNE01.JPG,,,,,,,,,5,3,53,5,,,,,,,,,,,,,,,AMSA20.jpg,AMNE20.jpg,AMSA07.jpg,AMNE05.jpg,AMNE20.jpg,MN,1,num_6,16,num_6,0.583558519036,,,2018_Jan_25_1906,59.9945543405,MAFE4ImagesEEG,001,202782,
AFNE01.JPG,AFNE01.JPG,AFNE01.JPG,AFNE01.JPG,AFNE01.JPG,AFNE01.JPG,,,,,,,,,5,4,54,0,,,,,,,,,,,,,,,AMNE19.jpg,AMNE18.jpg,AMSA01.jpg,AMSA16.jpg,AMNE19.jpg,MN,1,num_8,32,num_6,0.600181795031,,,2018_Jan_25_1906,59.9945543405,MAFE4ImagesEEG,001,202782,
AFNE01.JPG,AFNE01.JPG,AFNE01.JPG,AFNE01.JPG,AFNE01.JPG,AFNE01.JPG,,,,,,,,,5,5,55,8,,,,,,,,,,,,,,,AMSA14.jpg,AMNE08.jpg,AMSA05.jpg,AMNE13.jpg,AMSA14.jpg,MS,2,num_8,32,num_6,0.50026188363,,,2018_Jan_25_1906,59.9945543405,MAFE4ImagesEEG,001,202782,
AFNE01.JPG,AFNE01.JPG,AFNE01.JPG,AFNE01.JPG,AFNE01.JPG,AFNE01.JPG,,,,,,,,,5,6,56,7,,,,,,,,,,,,,,,AMNE12.jpg,AMNE13.jpg,AMSA03.jpg,AMSA09.jpg,AMNE13.jpg,MN,1,num_6,16,num_6,0.683459186082,,,2018_Jan_25_1906,59.9945543405,MAFE4ImagesEEG,001,202782,
AFNE01.JPG,AFNE01.JPG,AFNE01.JPG,AFNE01.JPG,AFNE01.JPG,AFNE01.JPG,,,,,,,,,5,7,57,1,,,,,,,,,,,,,,,AMNE04.jpg,AMSA15.jpg,AMNE02.jpg,AMSA17.jpg,AMNE02.jpg,MN,1,num_2,16,num_2,0.583527407332,,,2018_Jan_25_1906,59.9945543405,MAFE4ImagesEEG,001,202782,
AFNE01.JPG,AFNE01.JPG,AFNE01.JPG,AFNE01.JPG,AFNE01.JPG,AFNE01.JPG,,,,,,,,,5,8,58,2,,,,,,,,,,,,,,,AMSA08.jpg,AMSA14.jpg,AMNE09.jpg,AMNE07.jpg,AMSA08.jpg,MS,2,num_8,32,num_2,0.683508259186,,,2018_Jan_25_1906,59.9945543405,MAFE4ImagesEEG,001,202782,
AFNE01.JPG,AFNE01.JPG,AFNE01.JPG,AFNE01.JPG,AFNE01.JPG,AFNE01.JPG,,,,,,,,,5,9,59,3,,,,,,,,,,,,,,,AMSA02.jpg,AMSA10.jpg,AMNE14.jpg,AMNE15.jpg,AMSA10.jpg,MS,2,num_6,32,num_2,0.783508676162,,,2018_Jan_25_1906,59.9945543405,MAFE4ImagesEEG,001,202782,
,,,,,,,,,,,,,,,,,,,,,,,,,,,,,,,,,,,,,,,,,,,space,2.60002270834,2018_Jan_25_1906,59.9945543405,MAFE4ImagesEEG,001,202782,
AFNE01.JPG,AFNE01.JPG,AFNE01.JPG,AFNE01.JPG,AFNE01.JPG,AFNE01.JPG,,,,,,,,,,,,,0,0,0,3,,,,,,,,,,,AFSA12.jpg,AFNE18.jpg,AFSA08.jpg,AFNE15.jpg,AFNE18.jpg,FN,3,num_6,16,num_6,0.766796555385,,,2018_Jan_25_1906,59.9945543405,MAFE4ImagesEEG,001,202782,
AFNE01.JPG,AFNE01.JPG,AFNE01.JPG,AFNE01.JPG,AFNE01.JPG,AFNE01.JPG,,,,,,,,,,,,,0,1,1,4,,,,,,,,,,,AFNE18.jpg,AFSA05.jpg,AFNE05.jpg,AFSA13.jpg,AFSA05.jpg,FS,4,num_6,32,num_2,0.666767592629,,,2018_Jan_25_1906,59.9945543405,MAFE4ImagesEEG,001,202782,
AFNE01.JPG,AFNE01.JPG,AFNE01.JPG,AFNE01.JPG,AFNE01.JPG,AFNE01.JPG,,,,,,,,,,,,,0,2,2,6,,,,,,,,,,,AFNE04.jpg,AFSA05.jpg,AFNE11.jpg,AFSA08.jpg,AFSA05.jpg,FS,4,num_6,32,num_2,0.616804429534,,,2018_Jan_25_1906,59.9945543405,MAFE4ImagesEEG,001,202782,
AFNE01.JPG,AFNE01.JPG,AFNE01.JPG,AFNE01.JPG,AFNE01.JPG,AFNE01.JPG,,,,,,,,,,,,,0,3,3,0,,,,,,,,,,,AFSA07.jpg,AFNE04.jpg,AFSA15.jpg,AFNE06.jpg,AFSA07.jpg,FS,4,num_8,32,num_6,0.700137629232,,,2018_Jan_25_1906,59.9945543405,MAFE4ImagesEEG,001,202782,
AFNE01.JPG,AFNE01.JPG,AFNE01.JPG,AFNE01.JPG,AFNE01.JPG,AFNE01.JPG,,,,,,,,,,,,,0,4,4,5,,,,,,,,,,,AFNE19.jpg,AFSA04.jpg,AFNE18.jpg,AFSA09.jpg,AFSA09.jpg,FS,4,num_4,32,num_2,0.400152736052,,,2018_Jan_25_1906,59.9945543405,MAFE4ImagesEEG,001,202782,
AFNE01.JPG,AFNE01.JPG,AFNE01.JPG,AFNE01.JPG,AFNE01.JPG,AFNE01.JPG,,,,,,,,,,,,,0,5,5,9,,,,,,,,,,,AFNE16.jpg,AFNE13.jpg,AFSA11.jpg,AFSA18.jpg,AFSA18.jpg,FS,4,num_4,32,num_6,0.333510809069,,,2018_Jan_25_1906,59.9945543405,MAFE4ImagesEEG,001,202782,
AFNE01.JPG,AFNE01.JPG,AFNE01.JPG,AFNE01.JPG,AFNE01.JPG,AFNE01.JPG,,,,,,,,,,,,,0,6,6,8,,,,,,,,,,,AFNE10.jpg,AFSA10.jpg,AFNE14.jpg,AFSA06.jpg,AFSA06.jpg,FS,4,num_4,32,num_2,0.33348996102,,,2018_Jan_25_1906,59.9945543405,MAFE4ImagesEEG,001,202782,
AFNE01.JPG,AFNE01.JPG,AFNE01.JPG,AFNE01.JPG,AFNE01.JPG,AFNE01.JPG,,,,,,,,,,,,,0,7,7,2,,,,,,,,,,,AFSA11.jpg,AFSA08.jpg,AFNE18.jpg,AFNE08.jpg,AFNE08.jpg,FN,3,num_4,32,num_6,0.666784912552,,,2018_Jan_25_1906,59.9945543405,MAFE4ImagesEEG,001,202782,
AFNE01.JPG,AFNE01.JPG,AFNE01.JPG,AFNE01.JPG,AFNE01.JPG,AFNE01.JPG,,,,,,,,,,,,,0,8,8,7,,,,,,,,,,,AFNE05.jpg,AFSA01.jpg,AFNE15.jpg,AFSA15.jpg,AFNE05.jpg,FN,3,num_8,32,num_4,0.966742542892,,,2018_Jan_25_1906,59.9945543405,MAFE4ImagesEEG,001,202782,
AFNE01.JPG,AFNE01.JPG,AFNE01.JPG,AFNE01.JPG,AFNE01.JPG,AFNE01.JPG,,,,,,,,,,,,,0,9,9,1,,,,,,,,,,,AFSA19.jpg,AFSA02.jpg,AFNE11.jpg,AFNE07.jpg,AFSA02.jpg,FS,4,num_6,32,num_2,0.616683510831,,,2018_Jan_25_1906,59.9945543405,MAFE4ImagesEEG,001,202782,
AFNE01.JPG,AFNE01.JPG,AFNE01.JPG,AFNE01.JPG,AFNE01.JPG,AFNE01.JPG,,,,,,,,,,,,,1,0,10,9,,,,,,,,,,,AFSA20.jpg,AFNE01.jpg,AFSA09.jpg,AFNE20.jpg,AFNE01.jpg,FN,3,num_6,32,num_2,0.650184729791,,,2018_Jan_25_1906,59.9945543405,MAFE4ImagesEEG,001,202782,
AFNE01.JPG,AFNE01.JPG,AFNE01.JPG,AFNE01.JPG,AFNE01.JPG,AFNE01.JPG,,,,,,,,,,,,,1,1,11,3,,,,,,,,,,,AFNE14.jpg,AFNE17.jpg,AFSA07.jpg,AFSA14.jpg,AFSA14.jpg,FS,4,num_4,16,num_4,0.150125232656,,,2018_Jan_25_1906,59.9945543405,MAFE4ImagesEEG,001,202782,
AFNE01.JPG,AFNE01.JPG,AFNE01.JPG,AFNE01.JPG,AFNE01.JPG,AFNE01.JPG,,,,,,,,,,,,,1,2,12,6,,,,,,,,,,,AFSA04.jpg,AFNE01.jpg,AFNE17.jpg,AFSA05.jpg,AFSA05.jpg,FS,4,num_4,32,num_8,0.350194063314,,,2018_Jan_25_1906,59.9945543405,MAFE4ImagesEEG,001,202782,
AFNE01.JPG,AFNE01.JPG,AFNE01.JPG,AFNE01.JPG,AFNE01.JPG,AFNE01.JPG,,,,,,,,,,,,,1,3,13,5,,,,,,,,,,,AFNE02.jpg,AFSA12.jpg,AFNE18.jpg,AFSA16.jpg,AFSA12.jpg,FS,4,num_6,16,num_6,0.400155301963,,,2018_Jan_25_1906,59.9945543405,MAFE4ImagesEEG,001,202782,
AFNE01.JPG,AFNE01.JPG,AFNE01.JPG,AFNE01.JPG,AFNE01.JPG,AFNE01.JPG,,,,,,,,,,,,,1,4,14,0,,,,,,,,,,,AFNE07.jpg,AFNE08.jpg,AFSA14.jpg,AFSA13.jpg,AFNE08.jpg,FN,3,num_6,32,num_2,0.283613397536,,,2018_Jan_25_1906,59.9945543405,MAFE4ImagesEEG,001,202782,
AFNE01.JPG,AFNE01.JPG,AFNE01.JPG,AFNE01.JPG,AFNE01.JPG,AFNE01.JPG,,,,,,,,,,,,,1,5,15,1,,,,,,,,,,,AFSA10.jpg,AFNE05.jpg,AFSA12.jpg,AFNE20.jpg,AFSA12.jpg,FS,4,num_2,16,num_2,0.433333536464,,,2018_Jan_25_1906,59.9945543405,MAFE4ImagesEEG,001,202782,
AFNE01.JPG,AFNE01.JPG,AFNE01.JPG,AFNE01.JPG,AFNE01.JPG,AFNE01.JPG,,,,,,,,,,,,,1,6,16,4,,,,,,,,,,,AFSA11.jpg,AFNE13.jpg,AFSA08.jpg,AFNE08.jpg,AFNE08.jpg,FN,3,num_4,32,num_6,0.266687664393,,,2018_Jan_25_1906,59.9945543405,MAFE4ImagesEEG,001,202782,
AFNE01.JPG,AFNE01.JPG,AFNE01.JPG,AFNE01.JPG,AFNE01.JPG,AFNE01.JPG,,,,,,,,,,,,,1,7,17,8,,,,,,,,,,,AFSA13.jpg,AFNE03.jpg,AFSA07.jpg,AFNE04.jpg,AFNE04.jpg,FN,3,num_4,32,num_6,0.53346481506,,,2018_Jan_25_1906,59.9945543405,MAFE4ImagesEEG,001,202782,
AFNE01.JPG,AFNE01.JPG,AFNE01.JPG,AFNE01.JPG,AFNE01.JPG,AFNE01.JPG,,,,,,,,,,,,,1,8,18,2,,,,,,,,,,,AFNE08.jpg,AFSA11.jpg,AFNE19.jpg,AFSA04.jpg,AFNE19.jpg,FN,3,num_2,16,num_2,0.783438113504,,,2018_Jan_25_1906,59.9945543405,MAFE4ImagesEEG,001,202782,
AFNE01.JPG,AFNE01.JPG,AFNE01.JPG,AFNE01.JPG,AFNE01.JPG,AFNE01.JPG,,,,,,,,,,,,,1,9,19,7,,,,,,,,,,,AFSA19.jpg,AFNE16.jpg,AFSA18.jpg,AFNE13.jpg,AFNE13.jpg,FN,3,num_4,32,num_6,0.816776717664,,,2018_Jan_25_1906,59.9945543405,MAFE4ImagesEEG,001,202782,
AFNE01.JPG,AFNE01.JPG,AFNE01.JPG,AFNE01.JPG,AFNE01.JPG,AFNE01.JPG,,,,,,,,,,,,,2,0,20,0,,,,,,,,,,,AFNE20.jpg,AFSA08.jpg,AFNE04.jpg,AFSA03.jpg,AFNE20.jpg,FN,3,num_8,32,num_6,0.500142568621,,,2018_Jan_25_1906,59.9945543405,MAFE4ImagesEEG,001,202782,
AFNE01.JPG,AFNE01.JPG,AFNE01.JPG,AFNE01.JPG,AFNE01.JPG,AFNE01.JPG,,,,,,,,,,,,,2,1,21,2,,,,,,,,,,,AFNE12.jpg,AFSA07.jpg,AFSA10.jpg,AFNE13.jpg,AFNE12.jpg,FN,3,num_8,32,num_6,0.800128744755,,,2018_Jan_25_1906,59.9945543405,MAFE4ImagesEEG,001,202782,
AFNE01.JPG,AFNE01.JPG,AFNE01.JPG,AFNE01.JPG,AFNE01.JPG,AFNE01.JPG,,,,,,,,,,,,,2,2,22,6,,,,,,,,,,,AFNE02.jpg,AFSA17.jpg,AFSA20.jpg,AFNE09.jpg,AFNE02.jpg,FN,3,num_8,32,num_6,0.716781753275,,,2018_Jan_25_1906,59.9945543405,MAFE4ImagesEEG,001,202782,
AFNE01.JPG,AFNE01.JPG,AFNE01.JPG,AFNE01.JPG,AFNE01.JPG,AFNE01.JPG,,,,,,,,,,,,,2,3,23,7,,,,,,,,,,,AFSA05.jpg,AFNE20.jpg,AFSA15.jpg,AFNE06.jpg,AFNE20.jpg,FN,3,num_6,16,num_6,0.633457213538,,,2018_Jan_25_1906,59.9945543405,MAFE4ImagesEEG,001,202782,
AFNE01.JPG,AFNE01.JPG,AFNE01.JPG,AFNE01.JPG,AFNE01.JPG,AFNE01.JPG,,,,,,,,,,,,,2,4,24,3,,,,,,,,,,,AFNE18.jpg,AFSA08.jpg,AFSA03.jpg,AFNE02.jpg,AFSA03.jpg,FS,4,num_2,16,num_2,0.400166848587,,,2018_Jan_25_1906,59.9945543405,MAFE4ImagesEEG,001,202782,
AFNE01.JPG,AFNE01.JPG,AFNE01.JPG,AFNE01.JPG,AFNE01.JPG,AFNE01.JPG,,,,,,,,,,,,,2,5,25,9,,,,,,,,,,,AFSA12.jpg,AFNE19.jpg,AFNE09.jpg,AFSA15.jpg,AFSA12.jpg,FS,4,num_8,32,num_4,0.416787237904,,,2018_Jan_25_1906,59.9945543405,MAFE4ImagesEEG,001,202782,
AFNE01.JPG,AFNE01.JPG,AFNE01.JPG,AFNE01.JPG,AFNE01.JPG,AFNE01.JPG,,,,,,,,,,,,,2,6,26,4,,,,,,,,,,,AFNE05.jpg,AFNE09.jpg,AFSA01.jpg,AFSA14.jpg,AFNE05.jpg,FN,3,num_8,32,num_6,2.64995091085,,,2018_Jan_25_1906,59.9945543405,MAFE4ImagesEEG,001,202782,
AFNE01.JPG,AFNE01.JPG,AFNE01.JPG,AFNE01.JPG,AFNE01.JPG,AFNE01.JPG,,,,,,,,,,,,,2,7,27,8,,,,,,,,,,,AFSA01.jpg,AFNE18.jpg,AFSA11.jpg,AFNE09.jpg,AFSA01.jpg,FS,4,num_8,32,num_2,0.400196998075,,,2018_Jan_25_1906,59.9945543405,MAFE4ImagesEEG,001,202782,
AFNE01.JPG,AFNE01.JPG,AFNE01.JPG,AFNE01.JPG,AFNE01.JPG,AFNE01.JPG,,,,,,,,,,,,,2,8,28,1,,,,,,,,,,,AFNE12.jpg,AFSA17.jpg,AFNE01.jpg,AFSA08.jpg,AFNE01.jpg,FN,3,num_2,32,num_6,0.916741532565,,,2018_Jan_25_1906,59.9945543405,MAFE4ImagesEEG,001,202782,
AFNE01.JPG,AFNE01.JPG,AFNE01.JPG,AFNE01.JPG,AFNE01.JPG,AFNE01.JPG,,,,,,,,,,,,,2,9,29,5,,,,,,,,,,,AFNE13.jpg,AFSA06.jpg,AFSA19.jpg,AFNE14.jpg,AFNE13.jpg,FN,3,num_8,32,num_2,0.300169318274,,,2018_Jan_25_1906,59.9945543405,MAFE4ImagesEEG,001,202782,
AFNE01.JPG,AFNE01.JPG,AFNE01.JPG,AFNE01.JPG,AFNE01.JPG,AFNE01.JPG,,,,,,,,,,,,,3,0,30,3,,,,,,,,,,,AFNE11.jpg,AFSA10.jpg,AFNE15.jpg,AFSA17.jpg,AFNE11.jpg,FN,3,num_8,32,num_4,0.383497386138,,,2018_Jan_25_1906,59.9945543405,MAFE4ImagesEEG,001,202782,
AFNE01.JPG,AFNE01.JPG,AFNE01.JPG,AFNE01.JPG,AFNE01.JPG,AFNE01.JPG,,,,,,,,,,,,,3,1,31,1,,,,,,,,,,,AFNE19.jpg,AFSA04.jpg,AFNE18.jpg,AFSA13.jpg,AFSA04.jpg,FS,4,num_6,16,num_6,0.900151613459,,,2018_Jan_25_1906,59.9945543405,MAFE4ImagesEEG,001,202782,
AFNE01.JPG,AFNE01.JPG,AFNE01.JPG,AFNE01.JPG,AFNE01.JPG,AFNE01.JPG,,,,,,,,,,,,,3,2,32,7,,,,,,,,,,,AFSA10.jpg,AFSA07.jpg,AFNE18.jpg,AFNE12.jpg,AFSA10.jpg,FS,4,num_8,32,num_2,0.483518330409,,,2018_Jan_25_1906,59.9945543405,MAFE4ImagesEEG,001,202782,
AFNE01.JPG,AFNE01.JPG,AFNE01.JPG,AFNE01.JPG,AFNE01.JPG,AFNE01.JPG,,,,,,,,,,,,,3,3,33,6,,,,,,,,,,,AFSA19.jpg,AFNE08.jpg,AFNE17.jpg,AFSA10.jpg,AFSA19.jpg,FS,4,num_8,32,num_4,0.383511177919,,,2018_Jan_25_1906,59.9945543405,MAFE4ImagesEEG,001,202782,
AFNE01.JPG,AFNE01.JPG,AFNE01.JPG,AFNE01.JPG,AFNE01.JPG,AFNE01.JPG,,,,,,,,,,,,,3,4,34,2,,,,,,,,,,,AFSA06.jpg,AFNE10.jpg,AFNE15.jpg,AFSA19.jpg,AFNE10.jpg,FN,3,num_6,32,num_2,0.26681114902,,,2018_Jan_25_1906,59.9945543405,MAFE4ImagesEEG,001,202782,
AFNE01.JPG,AFNE01.JPG,AFNE01.JPG,AFNE01.JPG,AFNE01.JPG,AFNE01.JPG,,,,,,,,,,,,,3,5,35,9,,,,,,,,,,,AFNE02.jpg,AFSA20.jpg,AFNE10.jpg,AFSA14.jpg,AFNE02.jpg,FN,3,num_8,16,num_8,2.13337334021,,,2018_Jan_25_1906,59.9945543405,MAFE4ImagesEEG,001,202782,
AFNE01.JPG,AFNE01.JPG,AFNE01.JPG,AFNE01.JPG,AFNE01.JPG,AFNE01.JPG,,,,,,,,,,,,,3,6,36,0,,,,,,,,,,,AFSA02.jpg,AFNE10.jpg,AFNE17.jpg,AFSA19.jpg,AFSA19.jpg,FS,4,num_4,32,num_6,0.56690733874,,,2018_Jan_25_1906,59.9945543405,MAFE4ImagesEEG,001,202782,
AFNE01.JPG,AFNE01.JPG,AFNE01.JPG,AFNE01.JPG,AFNE01.JPG,AFNE01.JPG,,,,,,,,,,,,,3,7,37,4,,,,,,,,,,,AFSA09.jpg,AFNE06.jpg,AFSA06.jpg,AFNE19.jpg,AFSA06.jpg,FS,4,num_2,32,num_6,0.600153569976,,,2018_Jan_25_1906,59.9945543405,MAFE4ImagesEEG,001,202782,
AFNE01.JPG,AFNE01.JPG,AFNE01.JPG,AFNE01.JPG,AFNE01.JPG,AFNE01.JPG,,,,,,,,,,,,,3,8,38,8,,,,,,,,,,,AFNE05.jpg,AFNE07.jpg,AFSA04.jpg,AFSA03.jpg,AFNE05.jpg,FN,3,num_8,32,num_6,0.533503624509,,,2018_Jan_25_1906,59.9945543405,MAFE4ImagesEEG,001,202782,
AFNE01.JPG,AFNE01.JPG,AFNE01.JPG,AFNE01.JPG,AFNE01.JPG,AFNE01.JPG,,,,,,,,,,,,,3,9,39,5,,,,,,,,,,,AFSA07.jpg,AFSA12.jpg,AFNE08.jpg,AFNE13.jpg,AFNE13.jpg,FN,3,num_4,16,num_4,0.40002796847,,,2018_Jan_25_1906,59.9945543405,MAFE4ImagesEEG,001,202782,
AFNE01.JPG,AFNE01.JPG,AFNE01.JPG,AFNE01.JPG,AFNE01.JPG,AFNE01.JPG,,,,,,,,,,,,,4,0,40,1,,,,,,,,,,,AFNE07.jpg,AFSA16.jpg,AFSA08.jpg,AFNE08.jpg,AFNE07.jpg,FN,3,num_8,32,num_2,1.16674049015,,,2018_Jan_25_1906,59.9945543405,MAFE4ImagesEEG,001,202782,
AFNE01.JPG,AFNE01.JPG,AFNE01.JPG,AFNE01.JPG,AFNE01.JPG,AFNE01.JPG,,,,,,,,,,,,,4,1,41,2,,,,,,,,,,,AFNE08.jpg,AFNE06.jpg,AFSA05.jpg,AFSA06.jpg,AFSA05.jpg,FS,4,num_2,16,num_2,0.800096670835,,,2018_Jan_25_1906,59.9945543405,MAFE4ImagesEEG,001,202782,
AFNE01.JPG,AFNE01.JPG,AFNE01.JPG,AFNE01.JPG,AFNE01.JPG,AFNE01.JPG,,,,,,,,,,,,,4,2,42,6,,,,,,,,,,,AFSA06.jpg,AFNE07.jpg,AFSA17.jpg,AFNE08.jpg,AFSA06.jpg,FS,4,num_8,32,num_6,0.683568878929,,,2018_Jan_25_1906,59.9945543405,MAFE4ImagesEEG,001,202782,
AFNE01.JPG,AFNE01.JPG,AFNE01.JPG,AFNE01.JPG,AFNE01.JPG,AFNE01.JPG,,,,,,,,,,,,,4,3,43,8,,,,,,,,,,,AFNE17.jpg,AFSA11.jpg,AFNE16.jpg,AFSA13.jpg,AFSA11.jpg,FS,4,num_6,32,num_8,0.833454519336,,,2018_Jan_25_1906,59.9945543405,MAFE4ImagesEEG,001,202782,
AFNE01.JPG,AFNE01.JPG,AFNE01.JPG,AFNE01.JPG,AFNE01.JPG,AFNE01.JPG,,,,,,,,,,,,,4,4,44,4,,,,,,,,,,,AFSA11.jpg,AFNE07.jpg,AFSA03.jpg,AFNE13.jpg,AFSA03.jpg,FS,4,num_2,32,num_6,0.81677511397,,,2018_Jan_25_1906,59.9945543405,MAFE4ImagesEEG,001,202782,
AFNE01.JPG,AFNE01.JPG,AFNE01.JPG,AFNE01.JPG,AFNE01.JPG,AFNE01.JPG,,,,,,,,,,,,,4,5,45,7,,,,,,,,,,,AFNE02.jpg,AFSA12.jpg,AFNE19.jpg,AFSA16.jpg,AFNE19.jpg,FN,3,num_2,16,num_2,0.750119715944,,,2018_Jan_25_1906,59.9945543405,MAFE4ImagesEEG,001,202782,
AFNE01.JPG,AFNE01.JPG,AFNE01.JPG,AFNE01.JPG,AFNE01.JPG,AFNE01.JPG,,,,,,,,,,,,,4,6,46,0,,,,,,,,,,,AFNE02.jpg,AFSA02.jpg,AFNE16.jpg,AFSA20.jpg,AFSA20.jpg,FS,4,num_4,16,num_4,0.816851449912,,,2018_Jan_25_1906,59.9945543405,MAFE4ImagesEEG,001,202782,
AFNE01.JPG,AFNE01.JPG,AFNE01.JPG,AFNE01.JPG,AFNE01.JPG,AFNE01.JPG,,,,,,,,,,,,,4,7,47,3,,,,,,,,,,,AFSA19.jpg,AFSA20.jpg,AFNE04.jpg,AFNE15.jpg,AFNE04.jpg,FN,3,num_2,32,num_6,1.25012244223,,,2018_Jan_25_1906,59.9945543405,MAFE4ImagesEEG,001,202782,
AFNE01.JPG,AFNE01.JPG,AFNE01.JPG,AFNE01.JPG,AFNE01.JPG,AFNE01.JPG,,,,,,,,,,,,,4,8,48,9,,,,,,,,,,,AFSA09.jpg,AFNE12.jpg,AFNE10.jpg,AFSA13.jpg,AFNE10.jpg,FN,3,num_2,16,num_2,0.917098194652,,,2018_Jan_25_1906,59.9945543405,MAFE4ImagesEEG,001,202782,
AFNE01.JPG,AFNE01.JPG,AFNE01.JPG,AFNE01.JPG,AFNE01.JPG,AFNE01.JPG,,,,,,,,,,,,,4,9,49,5,,,,,,,,,,,AFNE17.jpg,AFNE14.jpg,AFSA17.jpg,AFSA09.jpg,AFNE14.jpg,FN,3,num_6,32,num_8,1.03344829699,,,2018_Jan_25_1906,59.9945543405,MAFE4ImagesEEG,001,202782,
AFNE01.JPG,AFNE01.JPG,AFNE01.JPG,AFNE01.JPG,AFNE01.JPG,AFNE01.JPG,,,,,,,,,,,,,5,0,50,4,,,,,,,,,,,AFNE18.jpg,AFSA12.jpg,AFNE16.jpg,AFSA17.jpg,AFNE16.jpg,FN,3,num_2,16,num_2,0.533476361685,,,2018_Jan_25_1906,59.9945543405,MAFE4ImagesEEG,001,202782,
AFNE01.JPG,AFNE01.JPG,AFNE01.JPG,AFNE01.JPG,AFNE01.JPG,AFNE01.JPG,,,,,,,,,,,,,5,1,51,0,,,,,,,,,,,AFNE04.jpg,AFNE07.jpg,AFSA14.jpg,AFSA05.jpg,AFNE07.jpg,FN,3,num_6,32,num_8,0.400146321263,,,2018_Jan_25_1906,59.9945543405,MAFE4ImagesEEG,001,202782,
AFNE01.JPG,AFNE01.JPG,AFNE01.JPG,AFNE01.JPG,AFNE01.JPG,AFNE01.JPG,,,,,,,,,,,,,5,2,52,3,,,,,,,,,,,AFNE17.jpg,AFNE15.jpg,AFSA04.jpg,AFSA12.jpg,AFSA12.jpg,FS,4,num_4,32,num_8,0.966649207752,,,2018_Jan_25_1906,59.9945543405,MAFE4ImagesEEG,001,202782,
AFNE01.JPG,AFNE01.JPG,AFNE01.JPG,AFNE01.JPG,AFNE01.JPG,AFNE01.JPG,,,,,,,,,,,,,5,3,53,8,,,,,,,,,,,AFSA02.jpg,AFSA14.jpg,AFNE08.jpg,AFNE20.jpg,AFNE20.jpg,FN,3,num_4,32,num_6,0.650138543337,,,2018_Jan_25_1906,59.9945543405,MAFE4ImagesEEG,001,202782,
AFNE01.JPG,AFNE01.JPG,AFNE01.JPG,AFNE01.JPG,AFNE01.JPG,AFNE01.JPG,,,,,,,,,,,,,5,4,54,2,,,,,,,,,,,AFNE10.jpg,AFSA12.jpg,AFSA19.jpg,AFNE13.jpg,AFNE10.jpg,FN,3,num_8,32,num_6,1.01673842139,,,2018_Jan_25_1906,59.9945543405,MAFE4ImagesEEG,001,202782,
AFNE01.JPG,AFNE01.JPG,AFNE01.JPG,AFNE01.JPG,AFNE01.JPG,AFNE01.JPG,,,,,,,,,,,,,5,5,55,9,,,,,,,,,,,AFSA11.jpg,AFNE03.jpg,AFSA06.jpg,AFNE16.jpg,AFNE03.jpg,FN,3,num_6,16,num_6,0.866773879112,,,2018_Jan_25_1906,59.9945543405,MAFE4ImagesEEG,001,202782,
AFNE01.JPG,AFNE01.JPG,AFNE01.JPG,AFNE01.JPG,AFNE01.JPG,AFNE01.JPG,,,,,,,,,,,,,5,6,56,6,,,,,,,,,,,AFNE08.jpg,AFSA10.jpg,AFSA19.jpg,AFNE13.jpg,AFSA19.jpg,FS,4,num_2,16,num_2,0.85015733866,,,2018_Jan_25_1906,59.9945543405,MAFE4ImagesEEG,001,202782,
AFNE01.JPG,AFNE01.JPG,AFNE01.JPG,AFNE01.JPG,AFNE01.JPG,AFNE01.JPG,,,,,,,,,,,,,5,7,57,1,,,,,,,,,,,AFSA11.jpg,AFSA06.jpg,AFNE20.jpg,AFNE08.jpg,AFNE08.jpg,FN,3,num_4,16,num_4,1.1999745333,,,2018_Jan_25_1906,59.9945543405,MAFE4ImagesEEG,001,202782,
AFNE01.JPG,AFNE01.JPG,AFNE01.JPG,AFNE01.JPG,AFNE01.JPG,AFNE01.JPG,,,,,,,,,,,,,5,8,58,5,,,,,,,,,,,AFNE15.jpg,AFNE01.jpg,AFSA14.jpg,AFSA04.jpg,AFNE15.jpg,FN,3,num_8,32,num_4,0.683476506005,,,2018_Jan_25_1906,59.9945543405,MAFE4ImagesEEG,001,202782,
AFNE01.JPG,AFNE01.JPG,AFNE01.JPG,AFNE01.JPG,AFNE01.JPG,AFNE01.JPG,,,,,,,,,,,,,5,9,59,7,,,,,,,,,,,AFNE07.jpg,AFNE20.jpg,AFSA17.jpg,AFSA12.jpg,AFSA12.jpg,FS,4,num_4,32,num_6,0.616804108795,,,2018_Jan_25_1906,59.9945543405,MAFE4ImagesEEG,001,202782,
,,,,,,,,,,,,,,,,,,,,,,,,,,,,,,,,,,,,,,,,,,,space,2.7167192091,2018_Jan_25_1906,59.9945543405,MAFE4ImagesEEG,001,202782,
AFNE01.JPG,AFNE01.JPG,AFNE01.JPG,AFNE01.JPG,AFNE01.JPG,AFNE01.JPG,,,,,,,,,,,,,,,,,0,0,0,3,,,,,,,AMSA18.jpg,AMSA03.jpg,AMNE01.jpg,AMNE11.jpg,AMSA03.jpg,MS,2,num_6,16,num_6,0.600157098117,,,2018_Jan_25_1906,59.9945543405,MAFE4ImagesEEG,001,202782,
AFNE01.JPG,AFNE01.JPG,AFNE01.JPG,AFNE01.JPG,AFNE01.JPG,AFNE01.JPG,,,,,,,,,,,,,,,,,0,1,1,2,,,,,,,AMNE05.jpg,AMSA14.jpg,AMNE17.jpg,AMSA12.jpg,AMSA14.jpg,MS,2,num_6,32,num_8,0.700086631681,,,2018_Jan_25_1906,59.9945543405,MAFE4ImagesEEG,001,202782,
AFNE01.JPG,AFNE01.JPG,AFNE01.JPG,AFNE01.JPG,AFNE01.JPG,AFNE01.JPG,,,,,,,,,,,,,,,,,0,2,2,0,,,,,,,AMNE08.jpg,AMSA07.jpg,AMNE13.jpg,AMSA18.jpg,AMNE13.jpg,MN,1,num_2,16,num_2,0.316827234099,,,2018_Jan_25_1906,59.9945543405,MAFE4ImagesEEG,001,202782,
AFNE01.JPG,AFNE01.JPG,AFNE01.JPG,AFNE01.JPG,AFNE01.JPG,AFNE01.JPG,,,,,,,,,,,,,,,,,0,3,3,1,,,,,,,AMNE01.jpg,AMNE09.jpg,AMSA15.jpg,AMSA03.jpg,AMNE09.jpg,MN,1,num_6,16,num_6,0.466839245782,,,2018_Jan_25_1906,59.9945543405,MAFE4ImagesEEG,001,202782,
AFNE01.JPG,AFNE01.JPG,AFNE01.JPG,AFNE01.JPG,AFNE01.JPG,AFNE01.JPG,,,,,,,,,,,,,,,,,0,4,4,7,,,,,,,AMNE02.jpg,AMSA13.jpg,AMNE05.jpg,AMSA04.jpg,AMSA13.jpg,MS,2,num_6,32,num_8,0.400029892902,,,2018_Jan_25_1906,59.9945543405,MAFE4ImagesEEG,001,202782,
AFNE01.JPG,AFNE01.JPG,AFNE01.JPG,AFNE01.JPG,AFNE01.JPG,AFNE01.JPG,,,,,,,,,,,,,,,,,0,5,5,5,,,,,,,AMNE02.jpg,AMSA03.jpg,AMSA10.jpg,AMNE04.jpg,AMNE04.jpg,MN,1,num_4,16,num_4,0.266817884563,,,2018_Jan_25_1906,59.9945543405,MAFE4ImagesEEG,001,202782,
AFNE01.JPG,AFNE01.JPG,AFNE01.JPG,AFNE01.JPG,AFNE01.JPG,AFNE01.JPG,,,,,,,,,,,,,,,,,0,6,6,6,,,,,,,AMSA11.jpg,AMSA20.jpg,AMNE02.jpg,AMNE01.jpg,AMNE01.jpg,MN,1,num_4,32,num_6,0.300062512091,,,2018_Jan_25_1906,59.9945543405,MAFE4ImagesEEG,001,202782,
AFNE01.JPG,AFNE01.JPG,AFNE01.JPG,AFNE01.JPG,AFNE01.JPG,AFNE01.JPG,,,,,,,,,,,,,,,,,0,7,7,9,,,,,,,AMSA09.jpg,AMSA19.jpg,AMNE15.jpg,AMNE20.jpg,AMNE20.jpg,MN,1,num_4,32,num_2,0.65018505053,,,2018_Jan_25_1906,59.9945543405,MAFE4ImagesEEG,001,202782,
AFNE01.JPG,AFNE01.JPG,AFNE01.JPG,AFNE01.JPG,AFNE01.JPG,AFNE01.JPG,,,,,,,,,,,,,,,,,0,8,8,4,,,,,,,AMNE16.jpg,AMSA14.jpg,AMNE04.jpg,AMSA03.jpg,AMSA03.jpg,MS,2,num_4,16,num_4,0.666779780731,,,2018_Jan_25_1906,59.9945543405,MAFE4ImagesEEG,001,202782,
AFNE01.JPG,AFNE01.JPG,AFNE01.JPG,AFNE01.JPG,AFNE01.JPG,AFNE01.JPG,,,,,,,,,,,,,,,,,0,9,9,8,,,,,,,AMSA01.jpg,AMNE13.jpg,AMNE05.jpg,AMSA13.jpg,AMSA13.jpg,MS,2,num_4,32,num_6,0.533505869695,,,2018_Jan_25_1906,59.9945543405,MAFE4ImagesEEG,001,202782,
AFNE01.JPG,AFNE01.JPG,AFNE01.JPG,AFNE01.JPG,AFNE01.JPG,AFNE01.JPG,,,,,,,,,,,,,,,,,1,0,10,4,,,,,,,AMSA17.jpg,AMNE01.jpg,AMSA18.jpg,AMNE03.jpg,AMSA17.jpg,MS,2,num_8,16,num_8,0.566813682875,,,2018_Jan_25_1906,59.9945543405,MAFE4ImagesEEG,001,202782,
AFNE01.JPG,AFNE01.JPG,AFNE01.JPG,AFNE01.JPG,AFNE01.JPG,AFNE01.JPG,,,,,,,,,,,,,,,,,1,1,11,0,,,,,,,AMNE04.jpg,AMSA05.jpg,AMSA03.jpg,AMNE02.jpg,AMNE04.jpg,MN,1,num_8,32,num_2,0.816782490961,,,2018_Jan_25_1906,59.9945543405,MAFE4ImagesEEG,001,202782,
AFNE01.JPG,AFNE01.JPG,AFNE01.JPG,AFNE01.JPG,AFNE01.JPG,AFNE01.JPG,,,,,,,,,,,,,,,,,1,2,12,3,,,,,,,AMSA10.jpg,AMNE10.jpg,AMSA05.jpg,AMNE14.jpg,AMNE14.jpg,MN,1,num_4,16,num_4,1.01667812241,,,2018_Jan_25_1906,59.9945543405,MAFE4ImagesEEG,001,202782,
AFNE01.JPG,AFNE01.JPG,AFNE01.JPG,AFNE01.JPG,AFNE01.JPG,AFNE01.JPG,,,,,,,,,,,,,,,,,1,3,13,5,,,,,,,AMSA17.jpg,AMNE12.jpg,AMNE19.jpg,AMSA12.jpg,AMNE12.jpg,MN,1,num_6,16,num_6,0.783532731613,,,2018_Jan_25_1906,59.9945543405,MAFE4ImagesEEG,001,202782,
AFNE01.JPG,AFNE01.JPG,AFNE01.JPG,AFNE01.JPG,AFNE01.JPG,AFNE01.JPG,,,,,,,,,,,,,,,,,1,4,14,9,,,,,,,AMSA17.jpg,AMSA04.jpg,AMNE12.jpg,AMNE13.jpg,AMNE12.jpg,MN,1,num_2,32,num_8,0.266836487426,,,2018_Jan_25_1906,59.9945543405,MAFE4ImagesEEG,001,202782,
AFNE01.JPG,AFNE01.JPG,AFNE01.JPG,AFNE01.JPG,AFNE01.JPG,AFNE01.JPG,,,,,,,,,,,,,,,,,1,5,15,6,,,,,,,AMSA04.jpg,AMNE11.jpg,AMNE13.jpg,AMSA09.jpg,AMNE11.jpg,MN,1,num_6,32,num_2,1.16677737518,,,2018_Jan_25_1906,59.9945543405,MAFE4ImagesEEG,001,202782,
AFNE01.JPG,AFNE01.JPG,AFNE01.JPG,AFNE01.JPG,AFNE01.JPG,AFNE01.JPG,,,,,,,,,,,,,,,,,1,6,16,1,,,,,,,AMSA16.jpg,AMNE06.jpg,AMNE09.jpg,AMSA06.jpg,AMSA06.jpg,MS,2,num_4,32,num_6,0.416886667095,,,2018_Jan_25_1906,59.9945543405,MAFE4ImagesEEG,001,202782,
AFNE01.JPG,AFNE01.JPG,AFNE01.JPG,AFNE01.JPG,AFNE01.JPG,AFNE01.JPG,,,,,,,,,,,,,,,,,1,7,17,8,,,,,,,AMNE12.jpg,AMNE13.jpg,AMSA02.jpg,AMSA09.jpg,AMNE12.jpg,MN,1,num_8,32,num_6,1.00020815979,,,2018_Jan_25_1906,59.9945543405,MAFE4ImagesEEG,001,202782,
AFNE01.JPG,AFNE01.JPG,AFNE01.JPG,AFNE01.JPG,AFNE01.JPG,AFNE01.JPG,,,,,,,,,,,,,,,,,1,8,18,2,,,,,,,AMNE18.jpg,AMSA13.jpg,AMSA07.jpg,AMNE03.jpg,AMNE18.jpg,MN,1,num_8,32,num_6,0.716766999263,,,2018_Jan_25_1906,59.9945543405,MAFE4ImagesEEG,001,202782,
AFNE01.JPG,AFNE01.JPG,AFNE01.JPG,AFNE01.JPG,AFNE01.JPG,AFNE01.JPG,,,,,,,,,,,,,,,,,1,9,19,7,,,,,,,AMSA08.jpg,AMSA16.jpg,AMNE14.jpg,AMNE08.jpg,AMNE08.jpg,MN,1,num_4,16,num_4,0.416790445306,,,2018_Jan_25_1906,59.9945543405,MAFE4ImagesEEG,001,202782,
AFNE01.JPG,AFNE01.JPG,AFNE01.JPG,AFNE01.JPG,AFNE01.JPG,AFNE01.JPG,,,,,,,,,,,,,,,,,2,0,20,8,,,,,,,AMSA08.jpg,AMSA18.jpg,AMNE13.jpg,AMNE12.jpg,AMSA18.jpg,MS,2,num_6,32,num_2,0.583499823755,,,2018_Jan_25_1906,59.9945543405,MAFE4ImagesEEG,001,202782,
AFNE01.JPG,AFNE01.JPG,AFNE01.JPG,AFNE01.JPG,AFNE01.JPG,AFNE01.JPG,,,,,,,,,,,,,,,,,2,1,21,7,,,,,,,AMNE12.jpg,AMSA01.jpg,AMNE17.jpg,AMSA15.jpg,AMSA01.jpg,MS,2,num_6,16,num_6,0.650218086681,,,2018_Jan_25_1906,59.9945543405,MAFE4ImagesEEG,001,202782,
AFNE01.JPG,AFNE01.JPG,AFNE01.JPG,AFNE01.JPG,AFNE01.JPG,AFNE01.JPG,,,,,,,,,,,,,,,,,2,2,22,0,,,,,,,AMSA02.jpg,AMNE10.jpg,AMNE14.jpg,AMSA10.jpg,AMNE14.jpg,MN,1,num_2,32,num_6,0.88357548615,,,2018_Jan_25_1906,59.9945543405,MAFE4ImagesEEG,001,202782,
AFNE01.JPG,AFNE01.JPG,AFNE01.JPG,AFNE01.JPG,AFNE01.JPG,AFNE01.JPG,,,,,,,,,,,,,,,,,2,3,23,3,,,,,,,AMNE11.jpg,AMSA03.jpg,AMSA04.jpg,AMNE02.jpg,AMSA04.jpg,MS,2,num_2,32,num_6,0.683515956931,,,2018_Jan_25_1906,59.9945543405,MAFE4ImagesEEG,001,202782,
AFNE01.JPG,AFNE01.JPG,AFNE01.JPG,AFNE01.JPG,AFNE01.JPG,AFNE01.JPG,,,,,,,,,,,,,,,,,2,4,24,9,,,,,,,AMNE14.jpg,AMNE03.jpg,AMSA01.jpg,AMSA16.jpg,AMSA01.jpg,MS,2,num_2,32,num_6,0.833585701694,,,2018_Jan_25_1906,59.9945543405,MAFE4ImagesEEG,001,202782,
AFNE01.JPG,AFNE01.JPG,AFNE01.JPG,AFNE01.JPG,AFNE01.JPG,AFNE01.JPG,,,,,,,,,,,,,,,,,2,5,25,4,,,,,,,AMNE10.jpg,AMSA16.jpg,AMNE05.jpg,AMSA05.jpg,AMNE05.jpg,MN,1,num_2,32,num_6,0.583460693568,,,2018_Jan_25_1906,59.9945543405,MAFE4ImagesEEG,001,202782,
AFNE01.JPG,AFNE01.JPG,AFNE01.JPG,AFNE01.JPG,AFNE01.JPG,AFNE01.JPG,,,,,,,,,,,,,,,,,2,6,26,1,,,,,,,AMNE03.jpg,AMSA11.jpg,AMSA19.jpg,AMNE14.jpg,AMNE14.jpg,MN,1,num_4,32,num_6,0.483491067571,,,2018_Jan_25_1906,59.9945543405,MAFE4ImagesEEG,001,202782,
AFNE01.JPG,AFNE01.JPG,AFNE01.JPG,AFNE01.JPG,AFNE01.JPG,AFNE01.JPG,,,,,,,,,,,,,,,,,2,7,27,5,,,,,,,AMSA20.jpg,AMNE10.jpg,AMSA18.jpg,AMNE01.jpg,AMSA20.jpg,MS,2,num_8,32,num_6,0.616783581485,,,2018_Jan_25_1906,59.9945543405,MAFE4ImagesEEG,001,202782,
AFNE01.JPG,AFNE01.JPG,AFNE01.JPG,AFNE01.JPG,AFNE01.JPG,AFNE01.JPG,,,,,,,,,,,,,,,,,2,8,28,2,,,,,,,AMSA19.jpg,AMNE18.jpg,AMSA13.jpg,AMNE13.jpg,AMSA19.jpg,MS,2,num_8,32,num_2,3.63332250304,,,2018_Jan_25_1906,59.9945543405,MAFE4ImagesEEG,001,202782,
AFNE01.JPG,AFNE01.JPG,AFNE01.JPG,AFNE01.JPG,AFNE01.JPG,AFNE01.JPG,,,,,,,,,,,,,,,,,2,9,29,6,,,,,,,AMNE10.jpg,AMSA10.jpg,AMSA17.jpg,AMNE04.jpg,AMSA10.jpg,MS,2,num_6,16,num_6,0.61678999626,,,2018_Jan_25_1906,59.9945543405,MAFE4ImagesEEG,001,202782,
AFNE01.JPG,AFNE01.JPG,AFNE01.JPG,AFNE01.JPG,AFNE01.JPG,AFNE01.JPG,,,,,,,,,,,,,,,,,3,0,30,4,,,,,,,AMNE07.jpg,AMNE20.jpg,AMSA07.jpg,AMSA14.jpg,AMSA14.jpg,MS,2,num_4,32,num_6,0.700158798019,,,2018_Jan_25_1906,59.9945543405,MAFE4ImagesEEG,001,202782,
AFNE01.JPG,AFNE01.JPG,AFNE01.JPG,AFNE01.JPG,AFNE01.JPG,AFNE01.JPG,,,,,,,,,,,,,,,,,3,1,31,0,,,,,,,AMSA15.jpg,AMNE10.jpg,AMNE15.jpg,AMSA09.jpg,AMNE10.jpg,MN,1,num_6,16,num_6,1.33338860741,,,2018_Jan_25_1906,59.9945543405,MAFE4ImagesEEG,001,202782,
AFNE01.JPG,AFNE01.JPG,AFNE01.JPG,AFNE01.JPG,AFNE01.JPG,AFNE01.JPG,,,,,,,,,,,,,,,,,3,2,32,5,,,,,,,AMSA14.jpg,AMNE10.jpg,AMSA02.jpg,AMNE16.jpg,AMNE16.jpg,MN,1,num_4,32,num_8,0.366817660033,,,2018_Jan_25_1906,59.9945543405,MAFE4ImagesEEG,001,202782,
AFNE01.JPG,AFNE01.JPG,AFNE01.JPG,AFNE01.JPG,AFNE01.JPG,AFNE01.JPG,,,,,,,,,,,,,,,,,3,3,33,9,,,,,,,AMSA09.jpg,AMSA04.jpg,AMNE18.jpg,AMNE05.jpg,AMNE05.jpg,MN,1,num_4,32,num_6,1.70006834954,,,2018_Jan_25_1906,59.9945543405,MAFE4ImagesEEG,001,202782,
AFNE01.JPG,AFNE01.JPG,AFNE01.JPG,AFNE01.JPG,AFNE01.JPG,AFNE01.JPG,,,,,,,,,,,,,,,,,3,4,34,6,,,,,,,AMNE14.jpg,AMSA14.jpg,AMNE11.jpg,AMSA15.jpg,AMSA15.jpg,MS,2,num_4,32,num_6,0.517107111213,,,2018_Jan_25_1906,59.9945543405,MAFE4ImagesEEG,001,202782,
AFNE01.JPG,AFNE01.JPG,AFNE01.JPG,AFNE01.JPG,AFNE01.JPG,AFNE01.JPG,,,,,,,,,,,,,,,,,3,5,35,1,,,,,,,AMSA10.jpg,AMSA02.jpg,AMNE01.jpg,AMNE05.jpg,AMNE01.jpg,MN,1,num_2,48,None,,,,2018_Jan_25_1906,59.9945543405,MAFE4ImagesEEG,001,202782,
AFNE01.JPG,AFNE01.JPG,AFNE01.JPG,AFNE01.JPG,AFNE01.JPG,AFNE01.JPG,,,,,,,,,,,,,,,,,3,6,36,2,,,,,,,AMSA09.jpg,AMNE20.jpg,AMNE18.jpg,AMSA16.jpg,AMNE18.jpg,MN,1,num_2,16,num_2,0.483505821569,,,2018_Jan_25_1906,59.9945543405,MAFE4ImagesEEG,001,202782,
AFNE01.JPG,AFNE01.JPG,AFNE01.JPG,AFNE01.JPG,AFNE01.JPG,AFNE01.JPG,,,,,,,,,,,,,,,,,3,7,37,7,,,,,,,AMNE07.jpg,AMSA05.jpg,AMNE02.jpg,AMSA04.jpg,AMNE02.jpg,MN,1,num_2,32,num_6,0.700151100275,,,2018_Jan_25_1906,59.9945543405,MAFE4ImagesEEG,001,202782,
AFNE01.JPG,AFNE01.JPG,AFNE01.JPG,AFNE01.JPG,AFNE01.JPG,AFNE01.JPG,,,,,,,,,,,,,,,,,3,8,38,8,,,,,,,AMNE12.jpg,AMSA17.jpg,AMSA08.jpg,AMNE01.jpg,AMSA08.jpg,MS,2,num_2,16,num_2,0.733471101543,,,2018_Jan_25_1906,59.9945543405,MAFE4ImagesEEG,001,202782,
AFNE01.JPG,AFNE01.JPG,AFNE01.JPG,AFNE01.JPG,AFNE01.JPG,AFNE01.JPG,,,,,,,,,,,,,,,,,3,9,39,3,,,,,,,AMNE07.jpg,AMNE04.jpg,AMSA15.jpg,AMSA17.jpg,AMSA17.jpg,MS,2,num_4,32,num_6,0.650206540071,,,2018_Jan_25_1906,59.9945543405,MAFE4ImagesEEG,001,202782,
AFNE01.JPG,AFNE01.JPG,AFNE01.JPG,AFNE01.JPG,AFNE01.JPG,AFNE01.JPG,,,,,,,,,,,,,,,,,4,0,40,6,,,,,,,AMNE15.jpg,AMSA18.jpg,AMNE09.jpg,AMSA20.jpg,AMNE09.jpg,MN,1,num_2,16,num_2,0.750300612897,,,2018_Jan_25_1906,59.9945543405,MAFE4ImagesEEG,001,202782,
AFNE01.JPG,AFNE01.JPG,AFNE01.JPG,AFNE01.JPG,AFNE01.JPG,AFNE01.JPG,,,,,,,,,,,,,,,,,4,1,41,5,,,,,,,AMSA05.jpg,AMNE12.jpg,AMSA17.jpg,AMNE16.jpg,AMNE12.jpg,MN,1,num_6,16,num_6,0.566762364586,,,2018_Jan_25_1906,59.9945543405,MAFE4ImagesEEG,001,202782,
AFNE01.JPG,AFNE01.JPG,AFNE01.JPG,AFNE01.JPG,AFNE01.JPG,AFNE01.JPG,,,,,,,,,,,,,,,,,4,2,42,9,,,,,,,AMNE03.jpg,AMSA20.jpg,AMSA15.jpg,AMNE16.jpg,AMNE16.jpg,MN,1,num_4,32,num_8,0.599863942392,,,2018_Jan_25_1906,59.9945543405,MAFE4ImagesEEG,001,202782,
AFNE01.JPG,AFNE01.JPG,AFNE01.JPG,AFNE01.JPG,AFNE01.JPG,AFNE01.JPG,,,,,,,,,,,,,,,,,4,3,43,0,,,,,,,AMNE04.jpg,AMNE11.jpg,AMSA14.jpg,AMSA15.jpg,AMNE04.jpg,MN,1,num_8,16,num_8,0.400147283479,,,2018_Jan_25_1906,59.9945543405,MAFE4ImagesEEG,001,202782,
AFNE01.JPG,AFNE01.JPG,AFNE01.JPG,AFNE01.JPG,AFNE01.JPG,AFNE01.JPG,,,,,,,,,,,,,,,,,4,4,44,1,,,,,,,AMSA07.jpg,AMNE14.jpg,AMNE06.jpg,AMSA08.jpg,AMNE06.jpg,MN,1,num_2,32,num_6,0.816763888099,,,2018_Jan_25_1906,59.9945543405,MAFE4ImagesEEG,001,202782,
AFNE01.JPG,AFNE01.JPG,AFNE01.JPG,AFNE01.JPG,AFNE01.JPG,AFNE01.JPG,,,,,,,,,,,,,,,,,4,5,45,2,,,,,,,AMSA19.jpg,AMNE06.jpg,AMNE09.jpg,AMSA10.jpg,AMNE06.jpg,MN,1,num_6,32,num_8,0.2835534193,,,2018_Jan_25_1906,59.9945543405,MAFE4ImagesEEG,001,202782,
AFNE01.JPG,AFNE01.JPG,AFNE01.JPG,AFNE01.JPG,AFNE01.JPG,AFNE01.JPG,,,,,,,,,,,,,,,,,4,6,46,7,,,,,,,AMNE04.jpg,AMNE08.jpg,AMSA16.jpg,AMSA08.jpg,AMSA16.jpg,MS,2,num_2,32,num_6,0.316814725258,,,2018_Jan_25_1906,59.9945543405,MAFE4ImagesEEG,001,202782,
AFNE01.JPG,AFNE01.JPG,AFNE01.JPG,AFNE01.JPG,AFNE01.JPG,AFNE01.JPG,,,,,,,,,,,,,,,,,4,7,47,4,,,,,,,AMSA16.jpg,AMSA10.jpg,AMNE15.jpg,AMNE20.jpg,AMSA16.jpg,MS,2,num_8,16,num_8,0.133522483986,,,2018_Jan_25_1906,59.9945543405,MAFE4ImagesEEG,001,202782,
AFNE01.JPG,AFNE01.JPG,AFNE01.JPG,AFNE01.JPG,AFNE01.JPG,AFNE01.JPG,,,,,,,,,,,,,,,,,4,8,48,3,,,,,,,AMNE05.jpg,AMNE04.jpg,AMSA13.jpg,AMSA19.jpg,AMNE05.jpg,MN,1,num_8,32,num_6,0.283523269798,,,2018_Jan_25_1906,59.9945543405,MAFE4ImagesEEG,001,202782,
AFNE01.JPG,AFNE01.JPG,AFNE01.JPG,AFNE01.JPG,AFNE01.JPG,AFNE01.JPG,,,,,,,,,,,,,,,,,4,9,49,8,,,,,,,AMSA13.jpg,AMNE02.jpg,AMNE19.jpg,AMSA09.jpg,AMSA09.jpg,MS,2,num_4,32,num_6,0.216853438498,,,2018_Jan_25_1906,59.9945543405,MAFE4ImagesEEG,001,202782,
AFNE01.JPG,AFNE01.JPG,AFNE01.JPG,AFNE01.JPG,AFNE01.JPG,AFNE01.JPG,,,,,,,,,,,,,,,,,5,0,50,5,,,,,,,AMNE06.jpg,AMNE03.jpg,AMSA01.jpg,AMSA11.jpg,AMNE03.jpg,MN,1,num_6,32,num_4,0.300157771664,,,2018_Jan_25_1906,59.9945543405,MAFE4ImagesEEG,001,202782,
AFNE01.JPG,AFNE01.JPG,AFNE01.JPG,AFNE01.JPG,AFNE01.JPG,AFNE01.JPG,,,,,,,,,,,,,,,,,5,1,51,3,,,,,,,AMSA03.jpg,AMNE13.jpg,AMNE18.jpg,AMSA19.jpg,AMNE13.jpg,MN,1,num_6,16,num_6,0.416806803012,,,2018_Jan_25_1906,59.9945543405,MAFE4ImagesEEG,001,202782,
AFNE01.JPG,AFNE01.JPG,AFNE01.JPG,AFNE01.JPG,AFNE01.JPG,AFNE01.JPG,,,,,,,,,,,,,,,,,5,2,52,9,,,,,,,AMSA18.jpg,AMNE11.jpg,AMNE13.jpg,AMSA01.jpg,AMNE11.jpg,MN,1,num_6,16,num_6,0.616859917442,,,2018_Jan_25_1906,59.9945543405,MAFE4ImagesEEG,001,202782,
AFNE01.JPG,AFNE01.JPG,AFNE01.JPG,AFNE01.JPG,AFNE01.JPG,AFNE01.JPG,,,,,,,,,,,,,,,,,5,3,53,6,,,,,,,AMNE16.jpg,AMSA10.jpg,AMNE12.jpg,AMSA19.jpg,AMNE12.jpg,MN,1,num_2,32,num_6,0.283517496486,,,2018_Jan_25_1906,59.9945543405,MAFE4ImagesEEG,001,202782,
AFNE01.JPG,AFNE01.JPG,AFNE01.JPG,AFNE01.JPG,AFNE01.JPG,AFNE01.JPG,,,,,,,,,,,,,,,,,5,4,54,4,,,,,,,AMNE16.jpg,AMSA12.jpg,AMSA05.jpg,AMNE06.jpg,AMSA05.jpg,MS,2,num_2,32,num_6,0.500152511537,,,2018_Jan_25_1906,59.9945543405,MAFE4ImagesEEG,001,202782,
AFNE01.JPG,AFNE01.JPG,AFNE01.JPG,AFNE01.JPG,AFNE01.JPG,AFNE01.JPG,,,,,,,,,,,,,,,,,5,5,55,1,,,,,,,AMSA18.jpg,AMSA20.jpg,AMNE12.jpg,AMNE05.jpg,AMNE05.jpg,MN,1,num_4,16,num_4,0.716824090865,,,2018_Jan_25_1906,59.9945543405,MAFE4ImagesEEG,001,202782,
AFNE01.JPG,AFNE01.JPG,AFNE01.JPG,AFNE01.JPG,AFNE01.JPG,AFNE01.JPG,,,,,,,,,,,,,,,,,5,6,56,8,,,,,,,AMNE01.jpg,AMSA05.jpg,AMNE08.jpg,AMSA20.jpg,AMNE01.jpg,MN,1,num_8,16,num_8,0.583533501369,,,2018_Jan_25_1906,59.9945543405,MAFE4ImagesEEG,001,202782,
AFNE01.JPG,AFNE01.JPG,AFNE01.JPG,AFNE01.JPG,AFNE01.JPG,AFNE01.JPG,,,,,,,,,,,,,,,,,5,7,57,7,,,,,,,AMNE11.jpg,AMNE19.jpg,AMSA01.jpg,AMSA04.jpg,AMSA04.jpg,MS,2,num_4,16,num_4,0.833459651156,,,2018_Jan_25_1906,59.9945543405,MAFE4ImagesEEG,001,202782,
AFNE01.JPG,AFNE01.JPG,AFNE01.JPG,AFNE01.JPG,AFNE01.JPG,AFNE01.JPG,,,,,,,,,,,,,,,,,5,8,58,2,,,,,,,AMSA10.jpg,AMNE17.jpg,AMNE18.jpg,AMSA03.jpg,AMSA03.jpg,MS,2,num_4,16,num_4,0.516646208853,,,2018_Jan_25_1906,59.9945543405,MAFE4ImagesEEG,001,202782,
AFNE01.JPG,AFNE01.JPG,AFNE01.JPG,AFNE01.JPG,AFNE01.JPG,AFNE01.JPG,,,,,,,,,,,,,,,,,5,9,59,0,,,,,,,AMNE10.jpg,AMSA14.jpg,AMSA12.jpg,AMNE03.jpg,AMNE10.jpg,MN,1,num_8,32,num_6,1.43349775499,,,2018_Jan_25_1906,59.9945543405,MAFE4ImagesEEG,001,202782,
,,,,,,,,,,,,,,,,,,,,,,,,,,,,,,,,,,,,,,,,,,,space,16.0989265818,2018_Jan_25_1906,59.9945543405,MAFE4ImagesEEG,001,202782,
AFNE01.JPG,AFNE01.JPG,AFNE01.JPG,AFNE01.JPG,AFNE01.JPG,AFNE01.JPG,,,,,,,,,,,,,,,,,,,,,0,0,0,1,,,AFSA09.jpg,AFNE15.jpg,AFSA12.jpg,AFNE16.jpg,AFNE16.jpg,FN,3,num_4,16,num_4,4.89985140148,,,2018_Jan_25_1906,59.9945543405,MAFE4ImagesEEG,001,202782,
AFNE01.JPG,AFNE01.JPG,AFNE01.JPG,AFNE01.JPG,AFNE01.JPG,AFNE01.JPG,,,,,,,,,,,,,,,,,,,,,0,1,1,5,,,AFSA11.jpg,AFNE15.jpg,AFSA08.jpg,AFNE03.jpg,AFSA08.jpg,FS,4,num_2,32,num_6,0.466792097111,,,2018_Jan_25_1906,59.9945543405,MAFE4ImagesEEG,001,202782,
AFNE01.JPG,AFNE01.JPG,AFNE01.JPG,AFNE01.JPG,AFNE01.JPG,AFNE01.JPG,,,,,,,,,,,,,,,,,,,,,0,2,2,4,,,AFNE02.jpg,AFNE12.jpg,AFSA02.jpg,AFSA07.jpg,AFNE02.jpg,FN,3,num_8,32,num_2,0.283497610653,,,2018_Jan_25_1906,59.9945543405,MAFE4ImagesEEG,001,202782,
AFNE01.JPG,AFNE01.JPG,AFNE01.JPG,AFNE01.JPG,AFNE01.JPG,AFNE01.JPG,,,,,,,,,,,,,,,,,,,,,0,3,3,3,,,AFSA06.jpg,AFNE07.jpg,AFNE12.jpg,AFSA10.jpg,AFNE12.jpg,FN,3,num_2,32,num_6,0.566795721461,,,2018_Jan_25_1906,59.9945543405,MAFE4ImagesEEG,001,202782,
AFNE01.JPG,AFNE01.JPG,AFNE01.JPG,AFNE01.JPG,AFNE01.JPG,AFNE01.JPG,,,,,,,,,,,,,,,,,,,,,0,4,4,9,,,AFSA20.jpg,AFNE16.jpg,AFNE11.jpg,AFSA12.jpg,AFSA12.jpg,FS,4,num_4,32,num_8,0.33335557126,,,2018_Jan_25_1906,59.9945543405,MAFE4ImagesEEG,001,202782,
AFNE01.JPG,AFNE01.JPG,AFNE01.JPG,AFNE01.JPG,AFNE01.JPG,AFNE01.JPG,,,,,,,,,,,,,,,,,,,,,0,5,5,7,,,AFNE12.jpg,AFSA01.jpg,AFSA20.jpg,AFNE09.jpg,AFNE12.jpg,FN,3,num_8,16,num_8,0.450186141054,,,2018_Jan_25_1906,59.9945543405,MAFE4ImagesEEG,001,202782,
AFNE01.JPG,AFNE01.JPG,AFNE01.JPG,AFNE01.JPG,AFNE01.JPG,AFNE01.JPG,,,,,,,,,,,,,,,,,,,,,0,6,6,2,,,AFSA17.jpg,AFNE10.jpg,AFSA20.jpg,AFNE05.jpg,AFSA17.jpg,FS,4,num_8,32,num_6,0.300161299776,,,2018_Jan_25_1906,59.9945543405,MAFE4ImagesEEG,001,202782,
AFNE01.JPG,AFNE01.JPG,AFNE01.JPG,AFNE01.JPG,AFNE01.JPG,AFNE01.JPG,,,,,,,,,,,,,,,,,,,,,0,7,7,8,,,AFNE12.jpg,AFSA15.jpg,AFNE07.jpg,AFSA14.jpg,AFSA15.jpg,FS,4,num_6,32,num_2,0.266803130551,,,2018_Jan_25_1906,59.9945543405,MAFE4ImagesEEG,001,202782,
AFNE01.JPG,AFNE01.JPG,AFNE01.JPG,AFNE01.JPG,AFNE01.JPG,AFNE01.JPG,,,,,,,,,,,,,,,,,,,,,0,8,8,6,,,AFNE02.jpg,AFSA15.jpg,AFNE20.jpg,AFSA08.jpg,AFNE02.jpg,FN,3,num_8,32,num_6,0.300181506362,,,2018_Jan_25_1906,59.9945543405,MAFE4ImagesEEG,001,202782,
AFNE01.JPG,AFNE01.JPG,AFNE01.JPG,AFNE01.JPG,AFNE01.JPG,AFNE01.JPG,,,,,,,,,,,,,,,,,,,,,0,9,9,0,,,AFSA03.jpg,AFSA20.jpg,AFNE03.jpg,AFNE01.jpg,AFSA03.jpg,FS,4,num_8,32,num_2,0.483495878667,,,2018_Jan_25_1906,59.9945543405,MAFE4ImagesEEG,001,202782,
AFNE01.JPG,AFNE01.JPG,AFNE01.JPG,AFNE01.JPG,AFNE01.JPG,AFNE01.JPG,,,,,,,,,,,,,,,,,,,,,1,0,10,3,,,AFNE14.jpg,AFSA02.jpg,AFNE16.jpg,AFSA15.jpg,AFSA15.jpg,FS,4,num_4,16,num_4,0.483499086055,,,2018_Jan_25_1906,59.9945543405,MAFE4ImagesEEG,001,202782,
AFNE01.JPG,AFNE01.JPG,AFNE01.JPG,AFNE01.JPG,AFNE01.JPG,AFNE01.JPG,,,,,,,,,,,,,,,,,,,,,1,1,11,0,,,AFNE10.jpg,AFSA02.jpg,AFSA10.jpg,AFNE16.jpg,AFSA10.jpg,FS,4,num_2,16,num_2,0.466825454001,,,2018_Jan_25_1906,59.9945543405,MAFE4ImagesEEG,001,202782,
AFNE01.JPG,AFNE01.JPG,AFNE01.JPG,AFNE01.JPG,AFNE01.JPG,AFNE01.JPG,,,,,,,,,,,,,,,,,,,,,1,2,12,5,,,AFNE04.jpg,AFSA02.jpg,AFNE19.jpg,AFSA01.jpg,AFSA02.jpg,FS,4,num_6,16,num_6,0.716832109334,,,2018_Jan_25_1906,59.9945543405,MAFE4ImagesEEG,001,202782,
AFNE01.JPG,AFNE01.JPG,AFNE01.JPG,AFNE01.JPG,AFNE01.JPG,AFNE01.JPG,,,,,,,,,,,,,,,,,,,,,1,3,13,7,,,AFSA15.jpg,AFNE07.jpg,AFNE03.jpg,AFSA16.jpg,AFSA15.jpg,FS,4,num_8,32,num_2,0.933605042286,,,2018_Jan_25_1906,59.9945543405,MAFE4ImagesEEG,001,202782,
AFNE01.JPG,AFNE01.JPG,AFNE01.JPG,AFNE01.JPG,AFNE01.JPG,AFNE01.JPG,,,,,,,,,,,,,,,,,,,,,1,4,14,1,,,AFSA17.jpg,AFNE18.jpg,AFSA07.jpg,AFNE09.jpg,AFSA07.jpg,FS,4,num_2,16,num_2,0.683611857981,,,2018_Jan_25_1906,59.9945543405,MAFE4ImagesEEG,001,202782,
AFNE01.JPG,AFNE01.JPG,AFNE01.JPG,AFNE01.JPG,AFNE01.JPG,AFNE01.JPG,,,,,,,,,,,,,,,,,,,,,1,5,15,6,,,AFNE18.jpg,AFNE06.jpg,AFSA13.jpg,AFSA01.jpg,AFSA01.jpg,FS,4,num_4,32,num_6,0.766797838354,,,2018_Jan_25_1906,59.9945543405,MAFE4ImagesEEG,001,202782,
AFNE01.JPG,AFNE01.JPG,AFNE01.JPG,AFNE01.JPG,AFNE01.JPG,AFNE01.JPG,,,,,,,,,,,,,,,,,,,,,1,6,16,4,,,AFNE08.jpg,AFSA07.jpg,AFNE16.jpg,AFSA09.jpg,AFNE08.jpg,FN,3,num_8,16,num_8,0.450213724631,,,2018_Jan_25_1906,59.9945543405,MAFE4ImagesEEG,001,202782,
AFNE01.JPG,AFNE01.JPG,AFNE01.JPG,AFNE01.JPG,AFNE01.JPG,AFNE01.JPG,,,,,,,,,,,,,,,,,,,,,1,7,17,2,,,AFSA17.jpg,AFSA05.jpg,AFNE17.jpg,AFNE07.jpg,AFSA05.jpg,FS,4,num_6,16,num_6,0.617105924481,,,2018_Jan_25_1906,59.9945543405,MAFE4ImagesEEG,001,202782,
AFNE01.JPG,AFNE01.JPG,AFNE01.JPG,AFNE01.JPG,AFNE01.JPG,AFNE01.JPG,,,,,,,,,,,,,,,,,,,,,1,8,18,9,,,AFNE10.jpg,AFSA07.jpg,AFNE03.jpg,AFSA10.jpg,AFNE03.jpg,FN,3,num_2,32,num_6,0.650142392202,,,2018_Jan_25_1906,59.9945543405,MAFE4ImagesEEG,001,202782,
AFNE01.JPG,AFNE01.JPG,AFNE01.JPG,AFNE01.JPG,AFNE01.JPG,AFNE01.JPG,,,,,,,,,,,,,,,,,,,,,1,9,19,8,,,AFSA18.jpg,AFNE19.jpg,AFSA09.jpg,AFNE13.jpg,AFNE13.jpg,FN,3,num_4,32,num_6,0.666731028352,,,2018_Jan_25_1906,59.9945543405,MAFE4ImagesEEG,001,202782,
AFNE01.JPG,AFNE01.JPG,AFNE01.JPG,AFNE01.JPG,AFNE01.JPG,AFNE01.JPG,,,,,,,,,,,,,,,,,,,,,2,0,20,8,,,AFNE13.jpg,AFSA17.jpg,AFNE10.jpg,AFSA20.jpg,AFNE10.jpg,FN,3,num_2,32,num_6,0.533571300504,,,2018_Jan_25_1906,59.9945543405,MAFE4ImagesEEG,001,202782,
AFNE01.JPG,AFNE01.JPG,AFNE01.JPG,AFNE01.JPG,AFNE01.JPG,AFNE01.JPG,,,,,,,,,,,,,,,,,,,,,2,1,21,4,,,AFNE06.jpg,AFNE03.jpg,AFSA03.jpg,AFSA15.jpg,AFNE06.jpg,FN,3,num_8,32,num_6,0.550177256577,,,2018_Jan_25_1906,59.9945543405,MAFE4ImagesEEG,001,202782,
AFNE01.JPG,AFNE01.JPG,AFNE01.JPG,AFNE01.JPG,AFNE01.JPG,AFNE01.JPG,,,,,,,,,,,,,,,,,,,,,2,2,22,5,,,AFNE17.jpg,AFNE11.jpg,AFSA13.jpg,AFSA20.jpg,AFNE11.jpg,FN,3,num_6,16,num_6,0.450132898332,,,2018_Jan_25_1906,59.9945543405,MAFE4ImagesEEG,001,202782,
AFNE01.JPG,AFNE01.JPG,AFNE01.JPG,AFNE01.JPG,AFNE01.JPG,AFNE01.JPG,,,,,,,,,,,,,,,,,,,,,2,3,23,7,,,AFNE04.jpg,AFNE14.jpg,AFSA09.jpg,AFSA07.jpg,AFNE04.jpg,FN,3,num_8,32,num_4,0.833446821576,,,2018_Jan_25_1906,59.9945543405,MAFE4ImagesEEG,001,202782,
AFNE01.JPG,AFNE01.JPG,AFNE01.JPG,AFNE01.JPG,AFNE01.JPG,AFNE01.JPG,,,,,,,,,,,,,,,,,,,,,2,4,24,2,,,AFNE09.jpg,AFSA08.jpg,AFNE20.jpg,AFSA09.jpg,AFNE20.jpg,FN,3,num_2,16,num_2,0.683486128182,,,2018_Jan_25_1906,59.9945543405,MAFE4ImagesEEG,001,202782,
AFNE01.JPG,AFNE01.JPG,AFNE01.JPG,AFNE01.JPG,AFNE01.JPG,AFNE01.JPG,,,,,,,,,,,,,,,,,,,,,2,5,25,1,,,AFNE02.jpg,AFSA16.jpg,AFSA02.jpg,AFNE13.jpg,AFSA02.jpg,FS,4,num_2,16,num_2,0.650027888289,,,2018_Jan_25_1906,59.9945543405,MAFE4ImagesEEG,001,202782,
AFNE01.JPG,AFNE01.JPG,AFNE01.JPG,AFNE01.JPG,AFNE01.JPG,AFNE01.JPG,,,,,,,,,,,,,,,,,,,,,2,6,26,9,,,AFNE07.jpg,AFNE05.jpg,AFSA03.jpg,AFSA20.jpg,AFNE05.jpg,FN,3,num_6,32,num_2,0.383498989831,,,2018_Jan_25_1906,59.9945543405,MAFE4ImagesEEG,001,202782,
AFNE01.JPG,AFNE01.JPG,AFNE01.JPG,AFNE01.JPG,AFNE01.JPG,AFNE01.JPG,,,,,,,,,,,,,,,,,,,,,2,7,27,6,,,AFSA03.jpg,AFNE15.jpg,AFNE08.jpg,AFSA16.jpg,AFSA16.jpg,FS,4,num_4,32,num_6,0.500168548504,,,2018_Jan_25_1906,59.9945543405,MAFE4ImagesEEG,001,202782,
AFNE01.JPG,AFNE01.JPG,AFNE01.JPG,AFNE01.JPG,AFNE01.JPG,AFNE01.JPG,,,,,,,,,,,,,,,,,,,,,2,8,28,0,,,AFSA04.jpg,AFSA11.jpg,AFNE13.jpg,AFNE08.jpg,AFSA11.jpg,FS,4,num_6,32,num_4,0.266885881283,,,2018_Jan_25_1906,59.9945543405,MAFE4ImagesEEG,001,202782,
AFNE01.JPG,AFNE01.JPG,AFNE01.JPG,AFNE01.JPG,AFNE01.JPG,AFNE01.JPG,,,,,,,,,,,,,,,,,,,,,2,9,29,3,,,AFNE20.jpg,AFSA05.jpg,AFSA18.jpg,AFNE02.jpg,AFNE02.jpg,FN,3,num_4,32,num_8,0.466875168582,,,2018_Jan_25_1906,59.9945543405,MAFE4ImagesEEG,001,202782,
AFNE01.JPG,AFNE01.JPG,AFNE01.JPG,AFNE01.JPG,AFNE01.JPG,AFNE01.JPG,,,,,,,,,,,,,,,,,,,,,3,0,30,7,,,AFNE05.jpg,AFSA16.jpg,AFNE11.jpg,AFSA19.jpg,AFSA19.jpg,FS,4,num_4,32,num_6,0.366788793501,,,2018_Jan_25_1906,59.9945543405,MAFE4ImagesEEG,001,202782,
AFNE01.JPG,AFNE01.JPG,AFNE01.JPG,AFNE01.JPG,AFNE01.JPG,AFNE01.JPG,,,,,,,,,,,,,,,,,,,,,3,1,31,3,,,AFNE04.jpg,AFSA02.jpg,AFSA12.jpg,AFNE13.jpg,AFNE13.jpg,FN,3,num_4,32,num_2,1.5500566586,,,2018_Jan_25_1906,59.9945543405,MAFE4ImagesEEG,001,202782,
AFNE01.JPG,AFNE01.JPG,AFNE01.JPG,AFNE01.JPG,AFNE01.JPG,AFNE01.JPG,,,,,,,,,,,,,,,,,,,,,3,2,32,0,,,AFNE11.jpg,AFSA11.jpg,AFNE20.jpg,AFSA19.jpg,AFNE11.jpg,FN,3,num_8,32,num_6,0.366831131076,,,2018_Jan_25_1906,59.9945543405,MAFE4ImagesEEG,001,202782,
AFNE01.JPG,AFNE01.JPG,AFNE01.JPG,AFNE01.JPG,AFNE01.JPG,AFNE01.JPG,,,,,,,,,,,,,,,,,,,,,3,3,33,9,,,AFSA15.jpg,AFNE13.jpg,AFNE15.jpg,AFSA14.jpg,AFNE15.jpg,FN,3,num_2,16,num_2,0.466785682322,,,2018_Jan_25_1906,59.9945543405,MAFE4ImagesEEG,001,202782,
AFNE01.JPG,AFNE01.JPG,AFNE01.JPG,AFNE01.JPG,AFNE01.JPG,AFNE01.JPG,,,,,,,,,,,,,,,,,,,,,3,4,34,8,,,AFNE07.jpg,AFNE14.jpg,AFSA06.jpg,AFSA09.jpg,AFNE14.jpg,FN,3,num_6,16,num_6,0.700231285096,,,2018_Jan_25_1906,59.9945543405,MAFE4ImagesEEG,001,202782,
AFNE01.JPG,AFNE01.JPG,AFNE01.JPG,AFNE01.JPG,AFNE01.JPG,AFNE01.JPG,,,,,,,,,,,,,,,,,,,,,3,5,35,2,,,AFNE12.jpg,AFNE13.jpg,AFSA15.jpg,AFSA08.jpg,AFSA15.jpg,FS,4,num_2,16,num_2,0.550192331328,,,2018_Jan_25_1906,59.9945543405,MAFE4ImagesEEG,001,202782,
AFNE01.JPG,AFNE01.JPG,AFNE01.JPG,AFNE01.JPG,AFNE01.JPG,AFNE01.JPG,,,,,,,,,,,,,,,,,,,,,3,6,36,1,,,AFSA16.jpg,AFNE02.jpg,AFSA01.jpg,AFNE01.jpg,AFNE02.jpg,FN,3,num_6,32,num_2,0.583491805271,,,2018_Jan_25_1906,59.9945543405,MAFE4ImagesEEG,001,202782,
AFNE01.JPG,AFNE01.JPG,AFNE01.JPG,AFNE01.JPG,AFNE01.JPG,AFNE01.JPG,,,,,,,,,,,,,,,,,,,,,3,7,37,6,,,AFNE15.jpg,AFSA16.jpg,AFNE14.jpg,AFSA03.jpg,AFSA16.jpg,FS,4,num_6,16,num_6,0.45018325439,,,2018_Jan_25_1906,59.9945543405,MAFE4ImagesEEG,001,202782,
AFNE01.JPG,AFNE01.JPG,AFNE01.JPG,AFNE01.JPG,AFNE01.JPG,AFNE01.JPG,,,,,,,,,,,,,,,,,,,,,3,8,38,4,,,AFNE04.jpg,AFSA11.jpg,AFSA06.jpg,AFNE09.jpg,AFSA11.jpg,FS,4,num_6,16,num_6,0.516787654866,,,2018_Jan_25_1906,59.9945543405,MAFE4ImagesEEG,001,202782,
