IPosition2,IPosition3,IPosition1,IPosition6,IPosition4,IPosition5,TrialsF1.thisRepN,TrialsF1.thisTrialN,TrialsF1.thisN,TrialsF1.thisIndex,TrialsM1.thisRepN,TrialsM1.thisTrialN,TrialsM1.thisN,TrialsM1.thisIndex,TrialsF2.thisRepN,TrialsF2.thisTrialN,TrialsF2.thisN,TrialsF2.thisIndex,TrialsM2.thisRepN,TrialsM2.thisTrialN,TrialsM2.thisN,TrialsM2.thisIndex,TrialsF3.thisRepN,TrialsF3.thisTrialN,TrialsF3.thisN,TrialsF3.thisIndex,TrialsM3.thisRepN,TrialsM3.thisTrialN,TrialsM3.thisN,TrialsM3.thisIndex,InstrKey_resp.keys,InstrKey_resp.rt,Image0 _Position,Image1 _Position,Image2 _Position,Image3 _Position,Center_image,condition,code,correct_answer,accuracy,Key_Resp.keys,Key_Resp.rt,BreakKey_resp.keys,BreakKey_resp.rt,date,frameRate,expName,session,participant,
,,,,,,,,,,,,,,,,,,,,,,,,,,,,,,space,3.73322733957,,,,,,,,,,,,,,2018_Feb_07_1626,60.0006735494,FEMA4ImagesEEG,001,202833,
AFNE23.JPG,AFNE24.JPG,AFNE22.JPG,AFSA24.JPG,AFSA22.JPG,AFSA23.JPG,0,0,0,8,,,,,,,,,,,,,,,,,,,,,,,AFSA09.jpg,AFNE07.jpg,AFSA07.jpg,AFNE02.jpg,AFNE07.jpg,FN,3,num_6,16,num_6,1.20011501713,,,2018_Feb_07_1626,60.0006735494,FEMA4ImagesEEG,001,202833,
AMSA21.JPG,AMNE23.JPG,AMNE21.JPG,AMSA25.JPG,AMNE25.JPG,AMSA23.JPG,0,1,1,5,,,,,,,,,,,,,,,,,,,,,,,AFSA07.jpg,AFSA01.jpg,AFNE03.jpg,AFNE01.jpg,AFSA01.jpg,FS,4,num_6,16,num_6,0.650021794252,,,2018_Feb_07_1626,60.0006735494,FEMA4ImagesEEG,001,202833,
AMNE22.JPG,AMSA24.JPG,AMSA22.JPG,AMNE25.JPG,AMNE24.JPG,AMSA25.JPG,0,2,2,7,,,,,,,,,,,,,,,,,,,,,,,AFSA18.jpg,AFSA09.jpg,AFNE17.jpg,AFNE01.jpg,AFSA09.jpg,FS,4,num_6,32,num_8,1.63338697166,,,2018_Feb_07_1626,60.0006735494,FEMA4ImagesEEG,001,202833,
AMNE23.JPG,AMNE24.JPG,AMNE22.JPG,AMSA24.JPG,AMSA22.JPG,AMSA23.JPG,0,3,3,9,,,,,,,,,,,,,,,,,,,,,,,AFNE14.jpg,AFNE11.jpg,AFSA06.jpg,AFSA17.jpg,AFSA06.jpg,FS,4,num_2,16,num_2,0.850127510028,,,2018_Feb_07_1626,60.0006735494,FEMA4ImagesEEG,001,202833,
AFSA25.JPG,AFNE24.JPG,AFSA24.JPG,AFNE21.JPG,AFSA21.JPG,AFNE25.JPG,0,4,4,2,,,,,,,,,,,,,,,,,,,,,,,AFSA09.jpg,AFNE13.jpg,AFSA05.jpg,AFNE17.jpg,AFSA09.jpg,FS,4,num_8,32,num_4,1.53340900643,,,2018_Feb_07_1626,60.0006735494,FEMA4ImagesEEG,001,202833,
AFSA21.JPG,AFNE23.JPG,AFNE21.JPG,AFSA25.JPG,AFNE25.JPG,AFSA23.JPG,0,5,5,4,,,,,,,,,,,,,,,,,,,,,,,AFNE09.jpg,AFNE07.jpg,AFSA06.jpg,AFSA04.jpg,AFNE07.jpg,FN,3,num_6,32,num_8,1.20010186685,,,2018_Feb_07_1626,60.0006735494,FEMA4ImagesEEG,001,202833,
AFNE22.JPG,AFSA24.JPG,AFSA22.JPG,AFNE25.JPG,AFNE24.JPG,AFSA25.JPG,0,6,6,6,,,,,,,,,,,,,,,,,,,,,,,AFSA11.jpg,AFNE08.jpg,AFSA19.jpg,AFNE06.jpg,AFNE08.jpg,FN,3,num_6,16,num_6,1.21674406645,,,2018_Feb_07_1626,60.0006735494,FEMA4ImagesEEG,001,202833,
AFSA21.JPG,AFNE22.JPG,AFNE21.JPG,AFSA23.JPG,AFSA22.JPG,AFNE23.JPG,0,7,7,0,,,,,,,,,,,,,,,,,,,,,,,AFNE11.jpg,AFSA19.jpg,AFSA18.jpg,AFNE06.jpg,AFNE11.jpg,FN,3,num_8,32,num_2,1.03346401313,,,2018_Feb_07_1626,60.0006735494,FEMA4ImagesEEG,001,202833,
AMSA25.JPG,AMNE24.JPG,AMSA24.JPG,AMNE26.JPG,AMSA21.JPG,AMNE25.JPG,0,8,8,3,,,,,,,,,,,,,,,,,,,,,,,AFNE12.jpg,AFSA01.jpg,AFSA03.jpg,AFNE05.jpg,AFSA03.jpg,FS,4,num_2,32,num_8,1.28346617823,,,2018_Feb_07_1626,60.0006735494,FEMA4ImagesEEG,001,202833,
AMSA21.JPG,AMNE22.JPG,AMNE21.JPG,AMSA23.JPG,AMSA22.JPG,AMNE23.JPG,0,9,9,1,,,,,,,,,,,,,,,,,,,,,,,AFNE11.jpg,AFNE02.jpg,AFSA17.jpg,AFSA20.jpg,AFNE11.jpg,FN,3,num_8,32,num_4,0.966789691476,,,2018_Feb_07_1626,60.0006735494,FEMA4ImagesEEG,001,202833,
AFNE22.JPG,AFSA24.JPG,AFSA22.JPG,AFNE25.JPG,AFNE24.JPG,AFSA25.JPG,,,,,0,0,0,6,,,,,,,,,,,,,,,,,,,AMSA14.jpg,AMNE01.jpg,AMNE05.jpg,AMSA17.jpg,AMNE05.jpg,MN,1,num_2,32,num_8,0.883463227423,,,2018_Feb_07_1626,60.0006735494,FEMA4ImagesEEG,001,202833,
AFSA25.JPG,AFNE24.JPG,AFSA24.JPG,AFNE21.JPG,AFSA21.JPG,AFNE25.JPG,,,,,0,1,1,2,,,,,,,,,,,,,,,,,,,AMSA15.jpg,AMNE02.jpg,AMNE15.jpg,AMSA01.jpg,AMSA15.jpg,MS,2,num_8,32,num_2,1.00020046206,,,2018_Feb_07_1626,60.0006735494,FEMA4ImagesEEG,001,202833,
AMNE22.JPG,AMSA24.JPG,AMSA22.JPG,AMNE25.JPG,AMNE24.JPG,AMSA25.JPG,,,,,0,2,2,7,,,,,,,,,,,,,,,,,,,AMSA15.jpg,AMSA11.jpg,AMNE13.jpg,AMNE06.jpg,AMSA15.jpg,MS,2,num_8,16,num_8,0.750119074481,,,2018_Feb_07_1626,60.0006735494,FEMA4ImagesEEG,001,202833,
AMSA25.JPG,AMNE24.JPG,AMSA24.JPG,AMNE26.JPG,AMSA21.JPG,AMNE25.JPG,,,,,0,3,3,3,,,,,,,,,,,,,,,,,,,AMNE09.jpg,AMSA05.jpg,AMNE19.jpg,AMSA06.jpg,AMSA05.jpg,MS,2,num_6,16,num_6,0.866809481289,,,2018_Feb_07_1626,60.0006735494,FEMA4ImagesEEG,001,202833,
AFSA21.JPG,AFNE22.JPG,AFNE21.JPG,AFSA23.JPG,AFSA22.JPG,AFNE23.JPG,,,,,0,4,4,0,,,,,,,,,,,,,,,,,,,AMNE06.jpg,AMSA06.jpg,AMSA17.jpg,AMNE04.jpg,AMSA17.jpg,MS,2,num_2,16,num_2,0.916753720725,,,2018_Feb_07_1626,60.0006735494,FEMA4ImagesEEG,001,202833,
AMNE23.JPG,AMNE24.JPG,AMNE22.JPG,AMSA24.JPG,AMSA22.JPG,AMSA23.JPG,,,,,0,5,5,9,,,,,,,,,,,,,,,,,,,AMSA15.jpg,AMNE13.jpg,AMSA13.jpg,AMNE16.jpg,AMNE16.jpg,MN,1,num_4,16,num_4,1.01675221324,,,2018_Feb_07_1626,60.0006735494,FEMA4ImagesEEG,001,202833,
AMSA21.JPG,AMNE22.JPG,AMNE21.JPG,AMSA23.JPG,AMSA22.JPG,AMNE23.JPG,,,,,0,6,6,1,,,,,,,,,,,,,,,,,,,AMNE09.jpg,AMSA04.jpg,AMNE10.jpg,AMSA10.jpg,AMSA10.jpg,MS,2,num_4,32,num_6,0.783500336809,,,2018_Feb_07_1626,60.0006735494,FEMA4ImagesEEG,001,202833,
AMSA21.JPG,AMNE23.JPG,AMNE21.JPG,AMSA25.JPG,AMNE25.JPG,AMSA23.JPG,,,,,0,7,7,5,,,,,,,,,,,,,,,,,,,AMSA11.jpg,AMNE06.jpg,AMSA07.jpg,AMNE18.jpg,AMNE18.jpg,MN,1,num_4,32,num_8,1.10012326017,,,2018_Feb_07_1626,60.0006735494,FEMA4ImagesEEG,001,202833,
AFNE23.JPG,AFNE24.JPG,AFNE22.JPG,AFSA24.JPG,AFSA22.JPG,AFSA23.JPG,,,,,0,8,8,8,,,,,,,,,,,,,,,,,,,AMNE10.jpg,AMSA20.jpg,AMNE18.jpg,AMSA17.jpg,AMNE18.jpg,MN,1,num_2,32,num_8,1.0834890788,,,2018_Feb_07_1626,60.0006735494,FEMA4ImagesEEG,001,202833,
AFSA21.JPG,AFNE23.JPG,AFNE21.JPG,AFSA25.JPG,AFNE25.JPG,AFSA23.JPG,,,,,0,9,9,4,,,,,,,,,,,,,,,,,,,AMNE19.jpg,AMSA14.jpg,AMNE08.jpg,AMSA03.jpg,AMNE19.jpg,MN,1,num_8,32,num_2,0.883509093197,,,2018_Feb_07_1626,60.0006735494,FEMA4ImagesEEG,001,202833,
AFSA21.JPG,AFNE22.JPG,AFNE21.JPG,AFSA23.JPG,AFSA22.JPG,AFNE23.JPG,,,,,,,,,0,0,0,0,,,,,,,,,,,,,,,AFNE12.jpg,AFSA03.jpg,AFNE03.jpg,AFSA12.jpg,AFNE03.jpg,FN,3,num_2,32,num_8,3.74997249665,,,2018_Feb_07_1626,60.0006735494,FEMA4ImagesEEG,001,202833,
AFSA21.JPG,AFNE23.JPG,AFNE21.JPG,AFSA25.JPG,AFNE25.JPG,AFSA23.JPG,,,,,,,,,0,1,1,4,,,,,,,,,,,,,,,AFSA01.jpg,AFNE08.jpg,AFSA18.jpg,AFNE10.jpg,AFNE10.jpg,FN,3,num_4,16,num_4,0.833471839316,,,2018_Feb_07_1626,60.0006735494,FEMA4ImagesEEG,001,202833,
AMNE22.JPG,AMSA24.JPG,AMSA22.JPG,AMNE25.JPG,AMNE24.JPG,AMSA25.JPG,,,,,,,,,0,2,2,7,,,,,,,,,,,,,,,AFNE12.jpg,AFSA12.jpg,AFSA17.jpg,AFNE18.jpg,AFNE18.jpg,FN,3,num_4,32,num_8,0.783492960036,,,2018_Feb_07_1626,60.0006735494,FEMA4ImagesEEG,001,202833,
AMNE23.JPG,AMNE24.JPG,AMNE22.JPG,AMSA24.JPG,AMSA22.JPG,AMSA23.JPG,,,,,,,,,0,3,3,9,,,,,,,,,,,,,,,AFSA12.jpg,AFNE03.jpg,AFSA01.jpg,AFNE09.jpg,AFNE09.jpg,FN,3,num_4,32,num_6,0.633504682919,,,2018_Feb_07_1626,60.0006735494,FEMA4ImagesEEG,001,202833,
AFSA25.JPG,AFNE24.JPG,AFSA24.JPG,AFNE21.JPG,AFSA21.JPG,AFNE25.JPG,,,,,,,,,0,4,4,2,,,,,,,,,,,,,,,AFNE06.jpg,AFSA06.jpg,AFSA20.jpg,AFNE19.jpg,AFNE06.jpg,FN,3,num_8,16,num_8,1.13343363907,,,2018_Feb_07_1626,60.0006735494,FEMA4ImagesEEG,001,202833,
AMSA25.JPG,AMNE24.JPG,AMSA24.JPG,AMNE26.JPG,AMSA21.JPG,AMNE25.JPG,,,,,,,,,0,5,5,3,,,,,,,,,,,,,,,AFSA18.jpg,AFSA09.jpg,AFNE05.jpg,AFNE11.jpg,AFSA09.jpg,FS,4,num_6,32,num_2,0.650173503906,,,2018_Feb_07_1626,60.0006735494,FEMA4ImagesEEG,001,202833,
AFNE22.JPG,AFSA24.JPG,AFSA22.JPG,AFNE25.JPG,AFNE24.JPG,AFSA25.JPG,,,,,,,,,0,6,6,6,,,,,,,,,,,,,,,AFNE18.jpg,AFSA09.jpg,AFSA08.jpg,AFNE13.jpg,AFNE18.jpg,FN,3,num_8,32,num_4,1.31671754131,,,2018_Feb_07_1626,60.0006735494,FEMA4ImagesEEG,001,202833,
AMSA21.JPG,AMNE22.JPG,AMNE21.JPG,AMSA23.JPG,AMSA22.JPG,AMNE23.JPG,,,,,,,,,0,7,7,1,,,,,,,,,,,,,,,AFNE15.jpg,AFSA05.jpg,AFSA14.jpg,AFNE11.jpg,AFNE11.jpg,FN,3,num_4,32,num_8,1.04996027658,,,2018_Feb_07_1626,60.0006735494,FEMA4ImagesEEG,001,202833,
AFNE23.JPG,AFNE24.JPG,AFNE22.JPG,AFSA24.JPG,AFSA22.JPG,AFSA23.JPG,,,,,,,,,0,8,8,8,,,,,,,,,,,,,,,AFSA09.jpg,AFNE12.jpg,AFNE04.jpg,AFSA18.jpg,AFSA09.jpg,FS,4,num_8,32,num_2,0.833511931822,,,2018_Feb_07_1626,60.0006735494,FEMA4ImagesEEG,001,202833,
AMSA21.JPG,AMNE23.JPG,AMNE21.JPG,AMSA25.JPG,AMNE25.JPG,AMSA23.JPG,,,,,,,,,0,9,9,5,,,,,,,,,,,,,,,AFNE01.jpg,AFNE04.jpg,AFSA04.jpg,AFSA15.jpg,AFSA04.jpg,FS,4,num_2,16,num_2,0.816787622869,,,2018_Feb_07_1626,60.0006735494,FEMA4ImagesEEG,001,202833,
AFSA25.JPG,AFNE24.JPG,AFSA24.JPG,AFNE21.JPG,AFSA21.JPG,AFNE25.JPG,,,,,,,,,,,,,0,0,0,2,,,,,,,,,,,AMNE15.jpg,AMSA06.jpg,AMSA07.jpg,AMNE01.jpg,AMNE01.jpg,MN,1,num_4,32,num_8,1.23343149014,,,2018_Feb_07_1626,60.0006735494,FEMA4ImagesEEG,001,202833,
AMSA21.JPG,AMNE22.JPG,AMNE21.JPG,AMSA23.JPG,AMSA22.JPG,AMNE23.JPG,,,,,,,,,,,,,0,1,1,1,,,,,,,,,,,AMNE20.jpg,AMNE08.jpg,AMSA19.jpg,AMSA10.jpg,AMSA10.jpg,MS,2,num_4,32,num_6,0.533497530501,,,2018_Feb_07_1626,60.0006735494,FEMA4ImagesEEG,001,202833,
AMSA21.JPG,AMNE23.JPG,AMNE21.JPG,AMSA25.JPG,AMNE25.JPG,AMSA23.JPG,,,,,,,,,,,,,0,2,2,5,,,,,,,,,,,AMNE10.jpg,AMSA15.jpg,AMSA09.jpg,AMNE12.jpg,AMNE10.jpg,MN,1,num_8,32,num_4,0.650129883317,,,2018_Feb_07_1626,60.0006735494,FEMA4ImagesEEG,001,202833,
AMSA25.JPG,AMNE24.JPG,AMSA24.JPG,AMNE26.JPG,AMSA21.JPG,AMNE25.JPG,,,,,,,,,,,,,0,3,3,3,,,,,,,,,,,AMNE16.jpg,AMNE10.jpg,AMSA14.jpg,AMSA03.jpg,AMNE10.jpg,MN,1,num_6,32,num_2,0.41681353841,,,2018_Feb_07_1626,60.0006735494,FEMA4ImagesEEG,001,202833,
AFSA21.JPG,AFNE22.JPG,AFNE21.JPG,AFSA23.JPG,AFSA22.JPG,AFNE23.JPG,,,,,,,,,,,,,0,4,4,0,,,,,,,,,,,AMSA02.jpg,AMSA18.jpg,AMNE02.jpg,AMNE04.jpg,AMSA02.jpg,MS,2,num_8,16,num_8,0.65019274829,,,2018_Feb_07_1626,60.0006735494,FEMA4ImagesEEG,001,202833,
AFSA21.JPG,AFNE23.JPG,AFNE21.JPG,AFSA25.JPG,AFNE25.JPG,AFSA23.JPG,,,,,,,,,,,,,0,5,5,4,,,,,,,,,,,AMSA14.jpg,AMSA03.jpg,AMNE18.jpg,AMNE17.jpg,AMSA03.jpg,MS,2,num_6,32,num_4,0.516793107381,,,2018_Feb_07_1626,60.0006735494,FEMA4ImagesEEG,001,202833,
AFNE23.JPG,AFNE24.JPG,AFNE22.JPG,AFSA24.JPG,AFSA22.JPG,AFSA23.JPG,,,,,,,,,,,,,0,6,6,8,,,,,,,,,,,AMSA16.jpg,AMSA18.jpg,AMNE01.jpg,AMNE08.jpg,AMNE08.jpg,MN,1,num_4,32,num_8,0.816798848566,,,2018_Feb_07_1626,60.0006735494,FEMA4ImagesEEG,001,202833,
AMNE23.JPG,AMNE24.JPG,AMNE22.JPG,AMSA24.JPG,AMSA22.JPG,AMSA23.JPG,,,,,,,,,,,,,0,7,7,9,,,,,,,,,,,AMNE16.jpg,AMNE09.jpg,AMSA09.jpg,AMSA10.jpg,AMNE16.jpg,MN,1,num_8,32,num_6,0.683471053373,,,2018_Feb_07_1626,60.0006735494,FEMA4ImagesEEG,001,202833,
AFNE22.JPG,AFSA24.JPG,AFSA22.JPG,AFNE25.JPG,AFNE24.JPG,AFSA25.JPG,,,,,,,,,,,,,0,8,8,6,,,,,,,,,,,AMSA15.jpg,AMNE01.jpg,AMSA14.jpg,AMNE17.jpg,AMSA15.jpg,MS,2,num_8,32,num_4,0.866766181309,,,2018_Feb_07_1626,60.0006735494,FEMA4ImagesEEG,001,202833,
AMNE22.JPG,AMSA24.JPG,AMSA22.JPG,AMNE25.JPG,AMNE24.JPG,AMSA25.JPG,,,,,,,,,,,,,0,9,9,7,,,,,,,,,,,AMSA20.jpg,AMSA01.jpg,AMNE02.jpg,AMNE16.jpg,AMNE02.jpg,MN,1,num_2,32,num_6,0.56680406048,,,2018_Feb_07_1626,60.0006735494,FEMA4ImagesEEG,001,202833,
AFSA21.JPG,AFNE23.JPG,AFNE21.JPG,AFSA25.JPG,AFNE25.JPG,AFSA23.JPG,,,,,,,,,,,,,,,,,0,0,0,4,,,,,,,AFSA05.jpg,AFNE18.jpg,AFSA13.jpg,AFNE01.jpg,AFNE01.jpg,FN,3,num_4,16,num_4,0.683520126622,,,2018_Feb_07_1626,60.0006735494,FEMA4ImagesEEG,001,202833,
AFNE23.JPG,AFNE24.JPG,AFNE22.JPG,AFSA24.JPG,AFSA22.JPG,AFSA23.JPG,,,,,,,,,,,,,,,,,0,1,1,8,,,,,,,AFSA16.jpg,AFNE18.jpg,AFSA05.jpg,AFNE17.jpg,AFSA16.jpg,FS,4,num_8,16,num_8,0.683451167541,,,2018_Feb_07_1626,60.0006735494,FEMA4ImagesEEG,001,202833,
AMSA21.JPG,AMNE23.JPG,AMNE21.JPG,AMSA25.JPG,AMNE25.JPG,AMSA23.JPG,,,,,,,,,,,,,,,,,0,2,2,5,,,,,,,AFSA18.jpg,AFNE16.jpg,AFSA10.jpg,AFNE11.jpg,AFNE16.jpg,FN,3,num_6,32,num_2,0.633489608066,,,2018_Feb_07_1626,60.0006735494,FEMA4ImagesEEG,001,202833,
AMSA21.JPG,AMNE22.JPG,AMNE21.JPG,AMSA23.JPG,AMSA22.JPG,AMNE23.JPG,,,,,,,,,,,,,,,,,0,3,3,1,,,,,,,AFNE11.jpg,AFSA09.jpg,AFNE07.jpg,AFSA19.jpg,AFNE11.jpg,FN,3,num_8,16,num_8,0.816789226606,,,2018_Feb_07_1626,60.0006735494,FEMA4ImagesEEG,001,202833,
AFSA21.JPG,AFNE22.JPG,AFNE21.JPG,AFSA23.JPG,AFSA22.JPG,AFNE23.JPG,,,,,,,,,,,,,,,,,0,4,4,0,,,,,,,AFSA17.jpg,AFSA11.jpg,AFNE03.jpg,AFNE05.jpg,AFNE03.jpg,FN,3,num_2,16,num_2,1.0834695138,,,2018_Feb_07_1626,60.0006735494,FEMA4ImagesEEG,001,202833,
AFSA25.JPG,AFNE24.JPG,AFSA24.JPG,AFNE21.JPG,AFSA21.JPG,AFNE25.JPG,,,,,,,,,,,,,,,,,0,5,5,2,,,,,,,AFSA10.jpg,AFSA12.jpg,AFNE12.jpg,AFNE09.jpg,AFNE12.jpg,FN,3,num_2,32,num_8,1.2167520849,,,2018_Feb_07_1626,60.0006735494,FEMA4ImagesEEG,001,202833,
AMNE22.JPG,AMSA24.JPG,AMSA22.JPG,AMNE25.JPG,AMNE24.JPG,AMSA25.JPG,,,,,,,,,,,,,,,,,0,6,6,7,,,,,,,AFNE07.jpg,AFSA02.jpg,AFNE05.jpg,AFSA08.jpg,AFSA02.jpg,FS,4,num_6,32,num_4,1.11678245896,,,2018_Feb_07_1626,60.0006735494,FEMA4ImagesEEG,001,202833,
AMSA25.JPG,AMNE24.JPG,AMSA24.JPG,AMNE26.JPG,AMSA21.JPG,AMNE25.JPG,,,,,,,,,,,,,,,,,0,7,7,3,,,,,,,AFNE05.jpg,AFSA05.jpg,AFSA06.jpg,AFNE19.jpg,AFNE05.jpg,FN,3,num_8,16,num_8,0.966770126484,,,2018_Feb_07_1626,60.0006735494,FEMA4ImagesEEG,001,202833,
AMNE23.JPG,AMNE24.JPG,AMNE22.JPG,AMSA24.JPG,AMSA22.JPG,AMSA23.JPG,,,,,,,,,,,,,,,,,0,8,8,9,,,,,,,AFSA10.jpg,AFSA07.jpg,AFNE15.jpg,AFNE06.jpg,AFSA10.jpg,FS,4,num_8,32,num_2,1.15013645845,,,2018_Feb_07_1626,60.0006735494,FEMA4ImagesEEG,001,202833,
AFNE22.JPG,AFSA24.JPG,AFSA22.JPG,AFNE25.JPG,AFNE24.JPG,AFSA25.JPG,,,,,,,,,,,,,,,,,0,9,9,6,,,,,,,AFNE17.jpg,AFNE14.jpg,AFSA06.jpg,AFSA12.jpg,AFNE17.jpg,FN,3,num_8,16,num_8,0.966779428069,,,2018_Feb_07_1626,60.0006735494,FEMA4ImagesEEG,001,202833,
AMSA21.JPG,AMNE22.JPG,AMNE21.JPG,AMSA23.JPG,AMSA22.JPG,AMNE23.JPG,,,,,,,,,,,,,,,,,,,,,0,0,0,1,,,AMNE02.jpg,AMSA11.jpg,AMNE01.jpg,AMSA19.jpg,AMSA11.jpg,MS,2,num_6,16,num_6,0.866778048687,,,2018_Feb_07_1626,60.0006735494,FEMA4ImagesEEG,001,202833,
AFSA25.JPG,AFNE24.JPG,AFSA24.JPG,AFNE21.JPG,AFSA21.JPG,AFNE25.JPG,,,,,,,,,,,,,,,,,,,,,0,1,1,2,,,AMNE17.jpg,AMNE11.jpg,AMSA20.jpg,AMSA10.jpg,AMSA20.jpg,MS,2,num_2,16,num_2,1.0167531753,,,2018_Feb_07_1626,60.0006735494,FEMA4ImagesEEG,001,202833,
AFSA21.JPG,AFNE23.JPG,AFNE21.JPG,AFSA25.JPG,AFNE25.JPG,AFSA23.JPG,,,,,,,,,,,,,,,,,,,,,0,2,2,4,,,AMNE08.jpg,AMSA06.jpg,AMSA15.jpg,AMNE06.jpg,AMSA15.jpg,MS,2,num_2,32,num_4,0.866752710426,,,2018_Feb_07_1626,60.0006735494,FEMA4ImagesEEG,001,202833,
AFNE23.JPG,AFNE24.JPG,AFNE22.JPG,AFSA24.JPG,AFSA22.JPG,AFSA23.JPG,,,,,,,,,,,,,,,,,,,,,0,3,3,8,,,AMNE04.jpg,AMSA06.jpg,AMNE08.jpg,AMSA10.jpg,AMSA10.jpg,MS,2,num_4,32,num_2,0.766789178364,,,2018_Feb_07_1626,60.0006735494,FEMA4ImagesEEG,001,202833,
AFNE22.JPG,AFSA24.JPG,AFSA22.JPG,AFNE25.JPG,AFNE24.JPG,AFSA25.JPG,,,,,,,,,,,,,,,,,,,,,0,4,4,6,,,AMSA11.jpg,AMNE12.jpg,AMSA05.jpg,AMNE05.jpg,AMSA05.jpg,MS,2,num_2,32,num_4,0.85015733866,,,2018_Feb_07_1626,60.0006735494,FEMA4ImagesEEG,001,202833,
AMNE23.JPG,AMNE24.JPG,AMNE22.JPG,AMSA24.JPG,AMSA22.JPG,AMSA23.JPG,,,,,,,,,,,,,,,,,,,,,0,5,5,9,,,AMNE14.jpg,AMSA08.jpg,AMNE03.jpg,AMSA19.jpg,AMNE03.jpg,MN,1,num_2,32,num_6,1.33340496523,,,2018_Feb_07_1626,60.0006735494,FEMA4ImagesEEG,001,202833,
AMSA25.JPG,AMNE24.JPG,AMSA24.JPG,AMNE26.JPG,AMSA21.JPG,AMNE25.JPG,,,,,,,,,,,,,,,,,,,,,0,6,6,3,,,AMNE07.jpg,AMSA10.jpg,AMNE08.jpg,AMSA18.jpg,AMNE08.jpg,MN,1,num_2,32,num_8,0.766803611768,,,2018_Feb_07_1626,60.0006735494,FEMA4ImagesEEG,001,202833,
AMNE22.JPG,AMSA24.JPG,AMSA22.JPG,AMNE25.JPG,AMNE24.JPG,AMSA25.JPG,,,,,,,,,,,,,,,,,,,,,0,7,7,7,,,AMSA18.jpg,AMNE09.jpg,AMSA06.jpg,AMNE10.jpg,AMNE09.jpg,MN,1,num_6,32,num_4,0.700171306962,,,2018_Feb_07_1626,60.0006735494,FEMA4ImagesEEG,001,202833,
AMSA21.JPG,AMNE23.JPG,AMNE21.JPG,AMSA25.JPG,AMNE25.JPG,AMSA23.JPG,,,,,,,,,,,,,,,,,,,,,0,8,8,5,,,AMNE17.jpg,AMSA13.jpg,AMSA03.jpg,AMNE08.jpg,AMSA03.jpg,MS,2,num_2,32,num_8,0.883473170456,,,2018_Feb_07_1626,60.0006735494,FEMA4ImagesEEG,001,202833,
AFSA21.JPG,AFNE22.JPG,AFNE21.JPG,AFSA23.JPG,AFSA22.JPG,AFNE23.JPG,,,,,,,,,,,,,,,,,,,,,0,9,9,0,,,AMSA03.jpg,AMNE08.jpg,AMSA19.jpg,AMNE03.jpg,AMNE08.jpg,MN,1,num_6,32,num_2,0.833455802407,,,2018_Feb_07_1626,60.0006735494,FEMA4ImagesEEG,001,202833,
,,,,,,,,,,,,,,,,,,,,,,,,,,,,,,,,,,,,,,,,,,,space,5.84969194606,2018_Feb_07_1626,60.0006735494,FEMA4ImagesEEG,001,202833,
AFNE01.JPG,AFNE01.JPG,AFNE01.JPG,AFNE01.JPG,AFNE01.JPG,AFNE01.JPG,0,0,0,7,,,,,,,,,,,,,,,,,,,,,,,AFSA06.jpg,AFNE14.jpg,AFSA10.jpg,AFNE08.jpg,AFNE14.jpg,FN,3,num_6,32,num_8,1.05014887103,,,2018_Feb_07_1626,60.0006735494,FEMA4ImagesEEG,001,202833,
AFNE01.JPG,AFNE01.JPG,AFNE01.JPG,AFNE01.JPG,AFNE01.JPG,AFNE01.JPG,0,1,1,1,,,,,,,,,,,,,,,,,,,,,,,AFSA18.jpg,AFNE19.jpg,AFSA05.jpg,AFNE14.jpg,AFNE14.jpg,FN,3,num_4,16,num_4,0.95010098489,,,2018_Feb_07_1626,60.0006735494,FEMA4ImagesEEG,001,202833,
AFNE01.JPG,AFNE01.JPG,AFNE01.JPG,AFNE01.JPG,AFNE01.JPG,AFNE01.JPG,0,2,2,2,,,,,,,,,,,,,,,,,,,,,,,AFSA04.jpg,AFSA14.jpg,AFNE16.jpg,AFNE18.jpg,AFNE18.jpg,FN,3,num_4,32,num_8,0.966792898951,,,2018_Feb_07_1626,60.0006735494,FEMA4ImagesEEG,001,202833,
AFNE01.JPG,AFNE01.JPG,AFNE01.JPG,AFNE01.JPG,AFNE01.JPG,AFNE01.JPG,0,3,3,9,,,,,,,,,,,,,,,,,,,,,,,AFSA12.jpg,AFSA14.jpg,AFNE10.jpg,AFNE06.jpg,AFSA12.jpg,FS,4,num_8,32,num_6,0.783473073971,,,2018_Feb_07_1626,60.0006735494,FEMA4ImagesEEG,001,202833,
AFNE01.JPG,AFNE01.JPG,AFNE01.JPG,AFNE01.JPG,AFNE01.JPG,AFNE01.JPG,0,4,4,8,,,,,,,,,,,,,,,,,,,,,,,AFNE01.jpg,AFNE17.jpg,AFSA02.jpg,AFSA04.jpg,AFSA04.jpg,FS,4,num_4,32,num_8,1.08345315629,,,2018_Feb_07_1626,60.0006735494,FEMA4ImagesEEG,001,202833,
AFNE01.JPG,AFNE01.JPG,AFNE01.JPG,AFNE01.JPG,AFNE01.JPG,AFNE01.JPG,0,5,5,6,,,,,,,,,,,,,,,,,,,,,,,AFSA06.jpg,AFNE08.jpg,AFSA11.jpg,AFNE17.jpg,AFSA11.jpg,FS,4,num_2,32,num_4,1.28340170975,,,2018_Feb_07_1626,60.0006735494,FEMA4ImagesEEG,001,202833,
AFNE01.JPG,AFNE01.JPG,AFNE01.JPG,AFNE01.JPG,AFNE01.JPG,AFNE01.JPG,0,6,6,5,,,,,,,,,,,,,,,,,,,,,,,AFNE13.jpg,AFNE18.jpg,AFSA15.jpg,AFSA20.jpg,AFSA20.jpg,FS,4,num_4,32,num_2,1.48345706915,,,2018_Feb_07_1626,60.0006735494,FEMA4ImagesEEG,001,202833,
AFNE01.JPG,AFNE01.JPG,AFNE01.JPG,AFNE01.JPG,AFNE01.JPG,AFNE01.JPG,0,7,7,0,,,,,,,,,,,,,,,,,,,,,,,AFNE08.jpg,AFSA14.jpg,AFNE14.jpg,AFSA08.jpg,AFSA08.jpg,FS,4,num_4,32,num_6,0.416824443499,,,2018_Feb_07_1626,60.0006735494,FEMA4ImagesEEG,001,202833,
AFNE01.JPG,AFNE01.JPG,AFNE01.JPG,AFNE01.JPG,AFNE01.JPG,AFNE01.JPG,0,8,8,3,,,,,,,,,,,,,,,,,,,,,,,AFSA10.jpg,AFSA11.jpg,AFNE01.jpg,AFNE07.jpg,AFSA11.jpg,FS,4,num_6,16,num_6,0.616804429563,,,2018_Feb_07_1626,60.0006735494,FEMA4ImagesEEG,001,202833,
AFNE01.JPG,AFNE01.JPG,AFNE01.JPG,AFNE01.JPG,AFNE01.JPG,AFNE01.JPG,0,9,9,4,,,,,,,,,,,,,,,,,,,,,,,AFNE07.jpg,AFNE04.jpg,AFSA20.jpg,AFSA06.jpg,AFNE04.jpg,FN,3,num_6,32,num_8,1.38346178411,,,2018_Feb_07_1626,60.0006735494,FEMA4ImagesEEG,001,202833,
AFNE01.JPG,AFNE01.JPG,AFNE01.JPG,AFNE01.JPG,AFNE01.JPG,AFNE01.JPG,1,0,10,7,,,,,,,,,,,,,,,,,,,,,,,AFSA05.jpg,AFNE13.jpg,AFSA13.jpg,AFNE07.jpg,AFNE13.jpg,FN,3,num_6,16,num_6,0.700156232109,,,2018_Feb_07_1626,60.0006735494,FEMA4ImagesEEG,001,202833,
AFNE01.JPG,AFNE01.JPG,AFNE01.JPG,AFNE01.JPG,AFNE01.JPG,AFNE01.JPG,1,1,11,4,,,,,,,,,,,,,,,,,,,,,,,AFSA19.jpg,AFNE05.jpg,AFSA14.jpg,AFNE03.jpg,AFSA19.jpg,FS,4,num_8,32,num_2,0.88347092527,,,2018_Feb_07_1626,60.0006735494,FEMA4ImagesEEG,001,202833,
AFNE01.JPG,AFNE01.JPG,AFNE01.JPG,AFNE01.JPG,AFNE01.JPG,AFNE01.JPG,1,2,12,0,,,,,,,,,,,,,,,,,,,,,,,AFNE07.jpg,AFSA03.jpg,AFNE17.jpg,AFSA06.jpg,AFSA03.jpg,FS,4,num_6,32,num_8,0.65019146516,,,2018_Feb_07_1626,60.0006735494,FEMA4ImagesEEG,001,202833,
AFNE01.JPG,AFNE01.JPG,AFNE01.JPG,AFNE01.JPG,AFNE01.JPG,AFNE01.JPG,1,3,13,5,,,,,,,,,,,,,,,,,,,,,,,AFNE05.jpg,AFSA01.jpg,AFNE04.jpg,AFSA02.jpg,AFNE04.jpg,FN,3,num_2,32,num_4,0.750189637067,,,2018_Feb_07_1626,60.0006735494,FEMA4ImagesEEG,001,202833,
AFNE01.JPG,AFNE01.JPG,AFNE01.JPG,AFNE01.JPG,AFNE01.JPG,AFNE01.JPG,1,4,14,8,,,,,,,,,,,,,,,,,,,,,,,AFSA03.jpg,AFNE19.jpg,AFNE16.jpg,AFSA16.jpg,AFNE16.jpg,FN,3,num_2,32,num_8,1.38341335254,,,2018_Feb_07_1626,60.0006735494,FEMA4ImagesEEG,001,202833,
AFNE01.JPG,AFNE01.JPG,AFNE01.JPG,AFNE01.JPG,AFNE01.JPG,AFNE01.JPG,1,5,15,6,,,,,,,,,,,,,,,,,,,,,,,AFSA06.jpg,AFSA12.jpg,AFNE05.jpg,AFNE15.jpg,AFSA06.jpg,FS,4,num_8,16,num_8,0.883604994044,,,2018_Feb_07_1626,60.0006735494,FEMA4ImagesEEG,001,202833,
AFNE01.JPG,AFNE01.JPG,AFNE01.JPG,AFNE01.JPG,AFNE01.JPG,AFNE01.JPG,1,6,16,9,,,,,,,,,,,,,,,,,,,,,,,AFSA05.jpg,AFSA10.jpg,AFNE18.jpg,AFNE06.jpg,AFSA05.jpg,FS,4,num_8,32,num_2,1.08343294961,,,2018_Feb_07_1626,60.0006735494,FEMA4ImagesEEG,001,202833,
AFNE01.JPG,AFNE01.JPG,AFNE01.JPG,AFNE01.JPG,AFNE01.JPG,AFNE01.JPG,1,7,17,1,,,,,,,,,,,,,,,,,,,,,,,AFNE20.jpg,AFSA02.jpg,AFSA03.jpg,AFNE10.jpg,AFNE20.jpg,FN,3,num_8,32,num_6,0.783667121315,,,2018_Feb_07_1626,60.0006735494,FEMA4ImagesEEG,001,202833,
AFNE01.JPG,AFNE01.JPG,AFNE01.JPG,AFNE01.JPG,AFNE01.JPG,AFNE01.JPG,1,8,18,3,,,,,,,,,,,,,,,,,,,,,,,AFSA08.jpg,AFNE14.jpg,AFNE06.jpg,AFSA12.jpg,AFNE06.jpg,FN,3,num_2,32,num_8,1.03343739198,,,2018_Feb_07_1626,60.0006735494,FEMA4ImagesEEG,001,202833,
AFNE01.JPG,AFNE01.JPG,AFNE01.JPG,AFNE01.JPG,AFNE01.JPG,AFNE01.JPG,1,9,19,2,,,,,,,,,,,,,,,,,,,,,,,AFNE09.jpg,AFSA08.jpg,AFNE18.jpg,AFSA11.jpg,AFNE09.jpg,FN,3,num_8,32,num_4,1.20012463932,,,2018_Feb_07_1626,60.0006735494,FEMA4ImagesEEG,001,202833,
AFNE01.JPG,AFNE01.JPG,AFNE01.JPG,AFNE01.JPG,AFNE01.JPG,AFNE01.JPG,2,0,20,0,,,,,,,,,,,,,,,,,,,,,,,AFSA10.jpg,AFNE14.jpg,AFNE04.jpg,AFSA08.jpg,AFNE04.jpg,FN,3,num_2,32,num_8,0.983480964089,,,2018_Feb_07_1626,60.0006735494,FEMA4ImagesEEG,001,202833,
AFNE01.JPG,AFNE01.JPG,AFNE01.JPG,AFNE01.JPG,AFNE01.JPG,AFNE01.JPG,2,1,21,8,,,,,,,,,,,,,,,,,,,,,,,AFNE04.jpg,AFSA12.jpg,AFNE14.jpg,AFSA04.jpg,AFSA04.jpg,FS,4,num_4,32,num_2,0.916767833289,,,2018_Feb_07_1626,60.0006735494,FEMA4ImagesEEG,001,202833,
AFNE01.JPG,AFNE01.JPG,AFNE01.JPG,AFNE01.JPG,AFNE01.JPG,AFNE01.JPG,2,2,22,1,,,,,,,,,,,,,,,,,,,,,,,AFNE17.jpg,AFSA08.jpg,AFNE16.jpg,AFSA01.jpg,AFNE17.jpg,FN,3,num_8,16,num_8,1.01676985389,,,2018_Feb_07_1626,60.0006735494,FEMA4ImagesEEG,001,202833,
AFNE01.JPG,AFNE01.JPG,AFNE01.JPG,AFNE01.JPG,AFNE01.JPG,AFNE01.JPG,2,3,23,5,,,,,,,,,,,,,,,,,,,,,,,AFNE13.jpg,AFSA15.jpg,AFNE16.jpg,AFSA09.jpg,AFSA09.jpg,FS,4,num_4,16,num_4,0.933513310738,,,2018_Feb_07_1626,60.0006735494,FEMA4ImagesEEG,001,202833,
AFNE01.JPG,AFNE01.JPG,AFNE01.JPG,AFNE01.JPG,AFNE01.JPG,AFNE01.JPG,2,4,24,6,,,,,,,,,,,,,,,,,,,,,,,AFNE08.jpg,AFSA09.jpg,AFSA08.jpg,AFNE09.jpg,AFSA08.jpg,FS,4,num_2,16,num_2,0.800139970612,,,2018_Feb_07_1626,60.0006735494,FEMA4ImagesEEG,001,202833,
AFNE01.JPG,AFNE01.JPG,AFNE01.JPG,AFNE01.JPG,AFNE01.JPG,AFNE01.JPG,2,5,25,9,,,,,,,,,,,,,,,,,,,,,,,AFNE04.jpg,AFSA13.jpg,AFSA16.jpg,AFNE05.jpg,AFNE04.jpg,FN,3,num_8,16,num_8,1.00010039145,,,2018_Feb_07_1626,60.0006735494,FEMA4ImagesEEG,001,202833,
AFNE01.JPG,AFNE01.JPG,AFNE01.JPG,AFNE01.JPG,AFNE01.JPG,AFNE01.JPG,2,6,26,7,,,,,,,,,,,,,,,,,,,,,,,AFNE16.jpg,AFSA20.jpg,AFSA18.jpg,AFNE05.jpg,AFNE16.jpg,FN,3,num_8,32,num_4,0.716788488906,,,2018_Feb_07_1626,60.0006735494,FEMA4ImagesEEG,001,202833,
AFNE01.JPG,AFNE01.JPG,AFNE01.JPG,AFNE01.JPG,AFNE01.JPG,AFNE01.JPG,2,7,27,3,,,,,,,,,,,,,,,,,,,,,,,AFNE02.jpg,AFSA18.jpg,AFSA10.jpg,AFNE14.jpg,AFSA18.jpg,FS,4,num_6,16,num_6,1.00014401204,,,2018_Feb_07_1626,60.0006735494,FEMA4ImagesEEG,001,202833,
AFNE01.JPG,AFNE01.JPG,AFNE01.JPG,AFNE01.JPG,AFNE01.JPG,AFNE01.JPG,2,8,28,2,,,,,,,,,,,,,,,,,,,,,,,AFSA10.jpg,AFSA12.jpg,AFNE03.jpg,AFNE14.jpg,AFNE03.jpg,FN,3,num_2,32,num_8,1.61702060769,,,2018_Feb_07_1626,60.0006735494,FEMA4ImagesEEG,001,202833,
AFNE01.JPG,AFNE01.JPG,AFNE01.JPG,AFNE01.JPG,AFNE01.JPG,AFNE01.JPG,2,9,29,4,,,,,,,,,,,,,,,,,,,,,,,AFSA16.jpg,AFNE08.jpg,AFSA17.jpg,AFNE13.jpg,AFSA17.jpg,FS,4,num_2,32,num_4,1.01677851379,,,2018_Feb_07_1626,60.0006735494,FEMA4ImagesEEG,001,202833,
AFNE01.JPG,AFNE01.JPG,AFNE01.JPG,AFNE01.JPG,AFNE01.JPG,AFNE01.JPG,3,0,30,1,,,,,,,,,,,,,,,,,,,,,,,AFNE19.jpg,AFSA17.jpg,AFNE03.jpg,AFSA01.jpg,AFNE19.jpg,FN,3,num_8,16,num_8,1.03344861767,,,2018_Feb_07_1626,60.0006735494,FEMA4ImagesEEG,001,202833,
AFNE01.JPG,AFNE01.JPG,AFNE01.JPG,AFNE01.JPG,AFNE01.JPG,AFNE01.JPG,3,1,31,6,,,,,,,,,,,,,,,,,,,,,,,AFNE07.jpg,AFSA14.jpg,AFSA02.jpg,AFNE20.jpg,AFSA14.jpg,FS,4,num_6,32,num_2,0.683493504999,,,2018_Feb_07_1626,60.0006735494,FEMA4ImagesEEG,001,202833,
AFNE01.JPG,AFNE01.JPG,AFNE01.JPG,AFNE01.JPG,AFNE01.JPG,AFNE01.JPG,3,2,32,7,,,,,,,,,,,,,,,,,,,,,,,AFNE17.jpg,AFSA16.jpg,AFSA11.jpg,AFNE18.jpg,AFSA11.jpg,FS,4,num_2,16,num_2,0.78351220442,,,2018_Feb_07_1626,60.0006735494,FEMA4ImagesEEG,001,202833,
AFNE01.JPG,AFNE01.JPG,AFNE01.JPG,AFNE01.JPG,AFNE01.JPG,AFNE01.JPG,3,3,33,5,,,,,,,,,,,,,,,,,,,,,,,AFNE03.jpg,AFSA12.jpg,AFNE13.jpg,AFSA06.jpg,AFNE03.jpg,FN,3,num_8,32,num_4,0.700163609115,,,2018_Feb_07_1626,60.0006735494,FEMA4ImagesEEG,001,202833,
AFNE01.JPG,AFNE01.JPG,AFNE01.JPG,AFNE01.JPG,AFNE01.JPG,AFNE01.JPG,3,4,34,3,,,,,,,,,,,,,,,,,,,,,,,AFSA02.jpg,AFSA06.jpg,AFNE03.jpg,AFNE12.jpg,AFNE12.jpg,FN,3,num_4,32,num_8,0.916769436793,,,2018_Feb_07_1626,60.0006735494,FEMA4ImagesEEG,001,202833,
AFNE01.JPG,AFNE01.JPG,AFNE01.JPG,AFNE01.JPG,AFNE01.JPG,AFNE01.JPG,3,5,35,2,,,,,,,,,,,,,,,,,,,,,,,AFNE15.jpg,AFSA10.jpg,AFNE10.jpg,AFSA17.jpg,AFNE15.jpg,FN,3,num_8,32,num_6,0.566780646564,,,2018_Feb_07_1626,60.0006735494,FEMA4ImagesEEG,001,202833,
AFNE01.JPG,AFNE01.JPG,AFNE01.JPG,AFNE01.JPG,AFNE01.JPG,AFNE01.JPG,3,6,36,8,,,,,,,,,,,,,,,,,,,,,,,AFSA15.jpg,AFSA02.jpg,AFNE03.jpg,AFNE01.jpg,AFNE01.jpg,FN,3,num_4,16,num_4,0.616782939993,,,2018_Feb_07_1626,60.0006735494,FEMA4ImagesEEG,001,202833,
AFNE01.JPG,AFNE01.JPG,AFNE01.JPG,AFNE01.JPG,AFNE01.JPG,AFNE01.JPG,3,7,37,4,,,,,,,,,,,,,,,,,,,,,,,AFNE02.jpg,AFSA11.jpg,AFNE15.jpg,AFSA04.jpg,AFNE02.jpg,FN,3,num_8,16,num_8,0.883469321299,,,2018_Feb_07_1626,60.0006735494,FEMA4ImagesEEG,001,202833,
AFNE01.JPG,AFNE01.JPG,AFNE01.JPG,AFNE01.JPG,AFNE01.JPG,AFNE01.JPG,3,8,38,0,,,,,,,,,,,,,,,,,,,,,,,AFSA16.jpg,AFSA19.jpg,AFNE12.jpg,AFNE11.jpg,AFSA19.jpg,FS,4,num_6,32,num_2,0.883466434665,,,2018_Feb_07_1626,60.0006735494,FEMA4ImagesEEG,001,202833,
AFNE01.JPG,AFNE01.JPG,AFNE01.JPG,AFNE01.JPG,AFNE01.JPG,AFNE01.JPG,3,9,39,9,,,,,,,,,,,,,,,,,,,,,,,AFSA01.jpg,AFNE20.jpg,AFSA02.jpg,AFNE08.jpg,AFNE08.jpg,FN,3,num_4,16,num_4,0.500176246278,,,2018_Feb_07_1626,60.0006735494,FEMA4ImagesEEG,001,202833,
AFNE01.JPG,AFNE01.JPG,AFNE01.JPG,AFNE01.JPG,AFNE01.JPG,AFNE01.JPG,4,0,40,3,,,,,,,,,,,,,,,,,,,,,,,AFNE02.jpg,AFSA10.jpg,AFSA14.jpg,AFNE06.jpg,AFNE02.jpg,FN,3,num_8,16,num_8,0.583465825301,,,2018_Feb_07_1626,60.0006735494,FEMA4ImagesEEG,001,202833,
AFNE01.JPG,AFNE01.JPG,AFNE01.JPG,AFNE01.JPG,AFNE01.JPG,AFNE01.JPG,4,1,41,5,,,,,,,,,,,,,,,,,,,,,,,AFNE09.jpg,AFSA05.jpg,AFNE16.jpg,AFSA02.jpg,AFNE16.jpg,FN,3,num_2,32,num_6,0.516837048577,,,2018_Feb_07_1626,60.0006735494,FEMA4ImagesEEG,001,202833,
AFNE01.JPG,AFNE01.JPG,AFNE01.JPG,AFNE01.JPG,AFNE01.JPG,AFNE01.JPG,4,2,42,7,,,,,,,,,,,,,,,,,,,,,,,AFSA08.jpg,AFNE20.jpg,AFSA14.jpg,AFNE05.jpg,AFNE20.jpg,FN,3,num_6,32,num_2,0.900110238232,,,2018_Feb_07_1626,60.0006735494,FEMA4ImagesEEG,001,202833,
AFNE01.JPG,AFNE01.JPG,AFNE01.JPG,AFNE01.JPG,AFNE01.JPG,AFNE01.JPG,4,3,43,1,,,,,,,,,,,,,,,,,,,,,,,AFSA09.jpg,AFNE03.jpg,AFSA19.jpg,AFNE11.jpg,AFNE11.jpg,FN,3,num_4,32,num_8,0.616767544532,,,2018_Feb_07_1626,60.0006735494,FEMA4ImagesEEG,001,202833,
AFNE01.JPG,AFNE01.JPG,AFNE01.JPG,AFNE01.JPG,AFNE01.JPG,AFNE01.JPG,4,4,44,2,,,,,,,,,,,,,,,,,,,,,,,AFSA03.jpg,AFNE12.jpg,AFSA12.jpg,AFNE10.jpg,AFSA12.jpg,FS,4,num_2,32,num_4,0.400158188539,,,2018_Feb_07_1626,60.0006735494,FEMA4ImagesEEG,001,202833,
AFNE01.JPG,AFNE01.JPG,AFNE01.JPG,AFNE01.JPG,AFNE01.JPG,AFNE01.JPG,4,5,45,8,,,,,,,,,,,,,,,,,,,,,,,AFNE06.jpg,AFSA01.jpg,AFNE07.jpg,AFSA20.jpg,AFNE07.jpg,FN,3,num_2,32,num_8,0.983498284128,,,2018_Feb_07_1626,60.0006735494,FEMA4ImagesEEG,001,202833,
AFNE01.JPG,AFNE01.JPG,AFNE01.JPG,AFNE01.JPG,AFNE01.JPG,AFNE01.JPG,4,6,46,9,,,,,,,,,,,,,,,,,,,,,,,AFNE08.jpg,AFSA01.jpg,AFNE20.jpg,AFSA19.jpg,AFNE08.jpg,FN,3,num_8,32,num_2,1.06669805641,,,2018_Feb_07_1626,60.0006735494,FEMA4ImagesEEG,001,202833,
AFNE01.JPG,AFNE01.JPG,AFNE01.JPG,AFNE01.JPG,AFNE01.JPG,AFNE01.JPG,4,7,47,0,,,,,,,,,,,,,,,,,,,,,,,AFSA09.jpg,AFNE17.jpg,AFNE12.jpg,AFSA10.jpg,AFSA10.jpg,FS,4,num_4,16,num_4,0.883419286227,,,2018_Feb_07_1626,60.0006735494,FEMA4ImagesEEG,001,202833,
AFNE01.JPG,AFNE01.JPG,AFNE01.JPG,AFNE01.JPG,AFNE01.JPG,AFNE01.JPG,4,8,48,4,,,,,,,,,,,,,,,,,,,,,,,AFNE02.jpg,AFNE08.jpg,AFSA13.jpg,AFSA18.jpg,AFNE08.jpg,FN,3,num_6,32,num_2,2.56636079913,,,2018_Feb_07_1626,60.0006735494,FEMA4ImagesEEG,001,202833,
AFNE01.JPG,AFNE01.JPG,AFNE01.JPG,AFNE01.JPG,AFNE01.JPG,AFNE01.JPG,4,9,49,6,,,,,,,,,,,,,,,,,,,,,,,AFSA18.jpg,AFNE11.jpg,AFSA09.jpg,AFNE17.jpg,AFNE17.jpg,FN,3,num_4,32,num_2,2.38334695925,,,2018_Feb_07_1626,60.0006735494,FEMA4ImagesEEG,001,202833,
AFNE01.JPG,AFNE01.JPG,AFNE01.JPG,AFNE01.JPG,AFNE01.JPG,AFNE01.JPG,5,0,50,5,,,,,,,,,,,,,,,,,,,,,,,AFSA18.jpg,AFNE12.jpg,AFNE08.jpg,AFSA03.jpg,AFNE08.jpg,FN,3,num_2,32,num_4,0.750096302014,,,2018_Feb_07_1626,60.0006735494,FEMA4ImagesEEG,001,202833,
AFNE01.JPG,AFNE01.JPG,AFNE01.JPG,AFNE01.JPG,AFNE01.JPG,AFNE01.JPG,5,1,51,0,,,,,,,,,,,,,,,,,,,,,,,AFNE13.jpg,AFNE07.jpg,AFSA14.jpg,AFSA07.jpg,AFNE13.jpg,FN,3,num_8,32,num_6,0.566764289048,,,2018_Feb_07_1626,60.0006735494,FEMA4ImagesEEG,001,202833,
AFNE01.JPG,AFNE01.JPG,AFNE01.JPG,AFNE01.JPG,AFNE01.JPG,AFNE01.JPG,5,2,52,6,,,,,,,,,,,,,,,,,,,,,,,AFNE04.jpg,AFSA16.jpg,AFSA17.jpg,AFNE05.jpg,AFSA17.jpg,FS,4,num_2,32,num_8,1.03349961527,,,2018_Feb_07_1626,60.0006735494,FEMA4ImagesEEG,001,202833,
AFNE01.JPG,AFNE01.JPG,AFNE01.JPG,AFNE01.JPG,AFNE01.JPG,AFNE01.JPG,5,3,53,2,,,,,,,,,,,,,,,,,,,,,,,AFSA10.jpg,AFSA11.jpg,AFNE03.jpg,AFNE02.jpg,AFSA10.jpg,FS,4,num_8,32,num_4,0.766845628386,,,2018_Feb_07_1626,60.0006735494,FEMA4ImagesEEG,001,202833,
AFNE01.JPG,AFNE01.JPG,AFNE01.JPG,AFNE01.JPG,AFNE01.JPG,AFNE01.JPG,5,4,54,8,,,,,,,,,,,,,,,,,,,,,,,AFNE05.jpg,AFSA16.jpg,AFNE06.jpg,AFSA12.jpg,AFSA12.jpg,FS,4,num_4,16,num_4,0.933493745746,,,2018_Feb_07_1626,60.0006735494,FEMA4ImagesEEG,001,202833,
AFNE01.JPG,AFNE01.JPG,AFNE01.JPG,AFNE01.JPG,AFNE01.JPG,AFNE01.JPG,5,5,55,3,,,,,,,,,,,,,,,,,,,,,,,AFSA12.jpg,AFSA04.jpg,AFNE08.jpg,AFNE01.jpg,AFNE08.jpg,FN,3,num_2,16,num_2,1.05012609856,,,2018_Feb_07_1626,60.0006735494,FEMA4ImagesEEG,001,202833,
AFNE01.JPG,AFNE01.JPG,AFNE01.JPG,AFNE01.JPG,AFNE01.JPG,AFNE01.JPG,5,6,56,1,,,,,,,,,,,,,,,,,,,,,,,AFNE15.jpg,AFNE07.jpg,AFSA03.jpg,AFSA18.jpg,AFSA03.jpg,FS,4,num_2,32,num_8,1.05013828678,,,2018_Feb_07_1626,60.0006735494,FEMA4ImagesEEG,001,202833,
AFNE01.JPG,AFNE01.JPG,AFNE01.JPG,AFNE01.JPG,AFNE01.JPG,AFNE01.JPG,5,7,57,4,,,,,,,,,,,,,,,,,,,,,,,AFSA11.jpg,AFNE06.jpg,AFSA14.jpg,AFNE18.jpg,AFSA14.jpg,FS,4,num_2,32,num_6,0.400221374352,,,2018_Feb_07_1626,60.0006735494,FEMA4ImagesEEG,001,202833,
AFNE01.JPG,AFNE01.JPG,AFNE01.JPG,AFNE01.JPG,AFNE01.JPG,AFNE01.JPG,5,8,58,7,,,,,,,,,,,,,,,,,,,,,,,AFNE17.jpg,AFSA16.jpg,AFNE07.jpg,AFSA01.jpg,AFNE07.jpg,FN,3,num_2,32,num_8,1.73339636927,,,2018_Feb_07_1626,60.0006735494,FEMA4ImagesEEG,001,202833,
AFNE01.JPG,AFNE01.JPG,AFNE01.JPG,AFNE01.JPG,AFNE01.JPG,AFNE01.JPG,5,9,59,9,,,,,,,,,,,,,,,,,,,,,,,AFSA08.jpg,AFNE06.jpg,AFSA16.jpg,AFNE18.jpg,AFNE06.jpg,FN,3,num_6,32,num_4,0.949814243708,,,2018_Feb_07_1626,60.0006735494,FEMA4ImagesEEG,001,202833,
,,,,,,,,,,,,,,,,,,,,,,,,,,,,,,,,,,,,,,,,,,,space,4.13319468847,2018_Feb_07_1626,60.0006735494,FEMA4ImagesEEG,001,202833,
AFNE01.JPG,AFNE01.JPG,AFNE01.JPG,AFNE01.JPG,AFNE01.JPG,AFNE01.JPG,,,,,0,0,0,6,,,,,,,,,,,,,,,,,,,AMSA17.jpg,AMNE12.jpg,AMNE20.jpg,AMSA02.jpg,AMSA17.jpg,MS,2,num_8,16,num_8,1.10021370859,,,2018_Feb_07_1626,60.0006735494,FEMA4ImagesEEG,001,202833,
AFNE01.JPG,AFNE01.JPG,AFNE01.JPG,AFNE01.JPG,AFNE01.JPG,AFNE01.JPG,,,,,0,1,1,3,,,,,,,,,,,,,,,,,,,AMNE07.jpg,AMNE09.jpg,AMSA11.jpg,AMSA01.jpg,AMNE09.jpg,MN,1,num_6,32,num_4,0.566838379717,,,2018_Feb_07_1626,60.0006735494,FEMA4ImagesEEG,001,202833,
AFNE01.JPG,AFNE01.JPG,AFNE01.JPG,AFNE01.JPG,AFNE01.JPG,AFNE01.JPG,,,,,0,2,2,7,,,,,,,,,,,,,,,,,,,AMSA16.jpg,AMNE03.jpg,AMNE19.jpg,AMSA01.jpg,AMSA01.jpg,MS,2,num_4,32,num_6,0.583483145107,,,2018_Feb_07_1626,60.0006735494,FEMA4ImagesEEG,001,202833,
AFNE01.JPG,AFNE01.JPG,AFNE01.JPG,AFNE01.JPG,AFNE01.JPG,AFNE01.JPG,,,,,0,3,3,1,,,,,,,,,,,,,,,,,,,AMNE02.jpg,AMNE15.jpg,AMSA08.jpg,AMSA03.jpg,AMSA08.jpg,MS,2,num_2,16,num_2,1.11682479642,,,2018_Feb_07_1626,60.0006735494,FEMA4ImagesEEG,001,202833,
AFNE01.JPG,AFNE01.JPG,AFNE01.JPG,AFNE01.JPG,AFNE01.JPG,AFNE01.JPG,,,,,0,4,4,8,,,,,,,,,,,,,,,,,,,AMNE16.jpg,AMSA20.jpg,AMNE10.jpg,AMSA02.jpg,AMSA20.jpg,MS,2,num_6,32,num_4,0.683476826875,,,2018_Feb_07_1626,60.0006735494,FEMA4ImagesEEG,001,202833,
AFNE01.JPG,AFNE01.JPG,AFNE01.JPG,AFNE01.JPG,AFNE01.JPG,AFNE01.JPG,,,,,0,5,5,5,,,,,,,,,,,,,,,,,,,AMNE02.jpg,AMSA08.jpg,AMNE05.jpg,AMSA14.jpg,AMNE02.jpg,MN,1,num_8,32,num_6,0.816732776351,,,2018_Feb_07_1626,60.0006735494,FEMA4ImagesEEG,001,202833,
AFNE01.JPG,AFNE01.JPG,AFNE01.JPG,AFNE01.JPG,AFNE01.JPG,AFNE01.JPG,,,,,0,6,6,9,,,,,,,,,,,,,,,,,,,AMNE15.jpg,AMSA10.jpg,AMSA17.jpg,AMNE14.jpg,AMSA10.jpg,MS,2,num_6,32,num_2,0.85014707502,,,2018_Feb_07_1626,60.0006735494,FEMA4ImagesEEG,001,202833,
AFNE01.JPG,AFNE01.JPG,AFNE01.JPG,AFNE01.JPG,AFNE01.JPG,AFNE01.JPG,,,,,0,7,7,0,,,,,,,,,,,,,,,,,,,AMNE02.jpg,AMSA12.jpg,AMNE05.jpg,AMSA03.jpg,AMSA12.jpg,MS,2,num_6,32,num_4,0.316825951217,,,2018_Feb_07_1626,60.0006735494,FEMA4ImagesEEG,001,202833,
AFNE01.JPG,AFNE01.JPG,AFNE01.JPG,AFNE01.JPG,AFNE01.JPG,AFNE01.JPG,,,,,0,8,8,4,,,,,,,,,,,,,,,,,,,AMSA20.jpg,AMNE11.jpg,AMSA11.jpg,AMNE03.jpg,AMSA11.jpg,MS,2,num_2,16,num_2,0.866789916065,,,2018_Feb_07_1626,60.0006735494,FEMA4ImagesEEG,001,202833,
AFNE01.JPG,AFNE01.JPG,AFNE01.JPG,AFNE01.JPG,AFNE01.JPG,AFNE01.JPG,,,,,0,9,9,2,,,,,,,,,,,,,,,,,,,AMSA09.jpg,AMNE01.jpg,AMSA17.jpg,AMNE10.jpg,AMNE01.jpg,MN,1,num_6,32,num_2,1.65007407474,,,2018_Feb_07_1626,60.0006735494,FEMA4ImagesEEG,001,202833,
AFNE01.JPG,AFNE01.JPG,AFNE01.JPG,AFNE01.JPG,AFNE01.JPG,AFNE01.JPG,,,,,1,0,10,0,,,,,,,,,,,,,,,,,,,AMNE20.jpg,AMNE09.jpg,AMSA03.jpg,AMSA06.jpg,AMSA06.jpg,MS,2,num_4,32,num_6,1.15014576004,,,2018_Feb_07_1626,60.0006735494,FEMA4ImagesEEG,001,202833,
AFNE01.JPG,AFNE01.JPG,AFNE01.JPG,AFNE01.JPG,AFNE01.JPG,AFNE01.JPG,,,,,1,1,11,3,,,,,,,,,,,,,,,,,,,AMSA07.jpg,AMNE01.jpg,AMSA20.jpg,AMNE17.jpg,AMNE17.jpg,MN,1,num_4,32,num_2,0.816800452536,,,2018_Feb_07_1626,60.0006735494,FEMA4ImagesEEG,001,202833,
AFNE01.JPG,AFNE01.JPG,AFNE01.JPG,AFNE01.JPG,AFNE01.JPG,AFNE01.JPG,,,,,1,2,12,2,,,,,,,,,,,,,,,,,,,AMNE02.jpg,AMSA12.jpg,AMNE03.jpg,AMSA01.jpg,AMSA01.jpg,MS,2,num_4,32,num_8,3.50017175591,,,2018_Feb_07_1626,60.0006735494,FEMA4ImagesEEG,001,202833,
AFNE01.JPG,AFNE01.JPG,AFNE01.JPG,AFNE01.JPG,AFNE01.JPG,AFNE01.JPG,,,,,1,3,13,9,,,,,,,,,,,,,,,,,,,AMNE07.jpg,AMSA02.jpg,AMNE15.jpg,AMSA05.jpg,AMSA02.jpg,MS,2,num_6,16,num_6,0.683463355759,,,2018_Feb_07_1626,60.0006735494,FEMA4ImagesEEG,001,202833,
AFNE01.JPG,AFNE01.JPG,AFNE01.JPG,AFNE01.JPG,AFNE01.JPG,AFNE01.JPG,,,,,1,4,14,7,,,,,,,,,,,,,,,,,,,AMNE04.jpg,AMSA06.jpg,AMNE06.jpg,AMSA05.jpg,AMSA06.jpg,MS,2,num_6,32,num_4,0.916802793741,,,2018_Feb_07_1626,60.0006735494,FEMA4ImagesEEG,001,202833,
AFNE01.JPG,AFNE01.JPG,AFNE01.JPG,AFNE01.JPG,AFNE01.JPG,AFNE01.JPG,,,,,1,5,15,1,,,,,,,,,,,,,,,,,,,AMNE10.jpg,AMSA03.jpg,AMNE06.jpg,AMSA17.jpg,AMNE06.jpg,MN,1,num_2,32,num_8,1.10011556232,,,2018_Feb_07_1626,60.0006735494,FEMA4ImagesEEG,001,202833,
AFNE01.JPG,AFNE01.JPG,AFNE01.JPG,AFNE01.JPG,AFNE01.JPG,AFNE01.JPG,,,,,1,6,16,6,,,,,,,,,,,,,,,,,,,AMNE14.jpg,AMSA08.jpg,AMNE19.jpg,AMSA17.jpg,AMNE14.jpg,MN,1,num_8,32,num_4,1.26672647381,,,2018_Feb_07_1626,60.0006735494,FEMA4ImagesEEG,001,202833,
AFNE01.JPG,AFNE01.JPG,AFNE01.JPG,AFNE01.JPG,AFNE01.JPG,AFNE01.JPG,,,,,1,7,17,4,,,,,,,,,,,,,,,,,,,AMNE12.jpg,AMSA10.jpg,AMSA03.jpg,AMNE13.jpg,AMSA10.jpg,MS,2,num_6,32,num_4,1.43344355002,,,2018_Feb_07_1626,60.0006735494,FEMA4ImagesEEG,001,202833,
AFNE01.JPG,AFNE01.JPG,AFNE01.JPG,AFNE01.JPG,AFNE01.JPG,AFNE01.JPG,,,,,1,8,18,5,,,,,,,,,,,,,,,,,,,AMNE01.jpg,AMSA20.jpg,AMSA05.jpg,AMNE06.jpg,AMNE01.jpg,MN,1,num_8,32,num_6,0.600200718502,,,2018_Feb_07_1626,60.0006735494,FEMA4ImagesEEG,001,202833,
AFNE01.JPG,AFNE01.JPG,AFNE01.JPG,AFNE01.JPG,AFNE01.JPG,AFNE01.JPG,,,,,1,9,19,8,,,,,,,,,,,,,,,,,,,AMSA11.jpg,AMSA04.jpg,AMNE05.jpg,AMNE15.jpg,AMNE05.jpg,MN,1,num_2,16,num_2,1.9333481302,,,2018_Feb_07_1626,60.0006735494,FEMA4ImagesEEG,001,202833,
AFNE01.JPG,AFNE01.JPG,AFNE01.JPG,AFNE01.JPG,AFNE01.JPG,AFNE01.JPG,,,,,2,0,20,8,,,,,,,,,,,,,,,,,,,AMSA01.jpg,AMSA18.jpg,AMNE01.jpg,AMNE13.jpg,AMNE13.jpg,MN,1,num_4,32,num_8,0.750156280352,,,2018_Feb_07_1626,60.0006735494,FEMA4ImagesEEG,001,202833,
AFNE01.JPG,AFNE01.JPG,AFNE01.JPG,AFNE01.JPG,AFNE01.JPG,AFNE01.JPG,,,,,2,1,21,5,,,,,,,,,,,,,,,,,,,AMSA06.jpg,AMSA11.jpg,AMNE06.jpg,AMNE17.jpg,AMNE06.jpg,MN,1,num_2,32,num_4,0.716761867516,,,2018_Feb_07_1626,60.0006735494,FEMA4ImagesEEG,001,202833,
AFNE01.JPG,AFNE01.JPG,AFNE01.JPG,AFNE01.JPG,AFNE01.JPG,AFNE01.JPG,,,,,2,2,22,2,,,,,,,,,,,,,,,,,,,AMSA16.jpg,AMNE02.jpg,AMSA17.jpg,AMNE13.jpg,AMSA16.jpg,MS,2,num_8,32,num_6,0.616831692401,,,2018_Feb_07_1626,60.0006735494,FEMA4ImagesEEG,001,202833,
AFNE01.JPG,AFNE01.JPG,AFNE01.JPG,AFNE01.JPG,AFNE01.JPG,AFNE01.JPG,,,,,2,3,23,3,,,,,,,,,,,,,,,,,,,AMSA01.jpg,AMNE18.jpg,AMNE07.jpg,AMSA11.jpg,AMNE07.jpg,MN,1,num_2,32,num_4,0.683734059567,,,2018_Feb_07_1626,60.0006735494,FEMA4ImagesEEG,001,202833,
AFNE01.JPG,AFNE01.JPG,AFNE01.JPG,AFNE01.JPG,AFNE01.JPG,AFNE01.JPG,,,,,2,4,24,4,,,,,,,,,,,,,,,,,,,AMSA15.jpg,AMNE17.jpg,AMSA19.jpg,AMNE05.jpg,AMSA15.jpg,MS,2,num_8,32,num_2,1.61672777287,,,2018_Feb_07_1626,60.0006735494,FEMA4ImagesEEG,001,202833,
AFNE01.JPG,AFNE01.JPG,AFNE01.JPG,AFNE01.JPG,AFNE01.JPG,AFNE01.JPG,,,,,2,5,25,0,,,,,,,,,,,,,,,,,,,AMSA18.jpg,AMSA19.jpg,AMNE11.jpg,AMNE10.jpg,AMSA18.jpg,MS,2,num_8,32,num_6,0.583528369432,,,2018_Feb_07_1626,60.0006735494,FEMA4ImagesEEG,001,202833,
AFNE01.JPG,AFNE01.JPG,AFNE01.JPG,AFNE01.JPG,AFNE01.JPG,AFNE01.JPG,,,,,2,6,26,6,,,,,,,,,,,,,,,,,,,AMSA15.jpg,AMSA02.jpg,AMNE10.jpg,AMNE11.jpg,AMNE11.jpg,MN,1,num_4,32,num_8,0.450208913535,,,2018_Feb_07_1626,60.0006735494,FEMA4ImagesEEG,001,202833,
AFNE01.JPG,AFNE01.JPG,AFNE01.JPG,AFNE01.JPG,AFNE01.JPG,AFNE01.JPG,,,,,2,7,27,9,,,,,,,,,,,,,,,,,,,AMSA04.jpg,AMSA11.jpg,AMNE09.jpg,AMNE06.jpg,AMSA11.jpg,MS,2,num_6,32,num_4,0.316846478498,,,2018_Feb_07_1626,60.0006735494,FEMA4ImagesEEG,001,202833,
AFNE01.JPG,AFNE01.JPG,AFNE01.JPG,AFNE01.JPG,AFNE01.JPG,AFNE01.JPG,,,,,2,8,28,7,,,,,,,,,,,,,,,,,,,AMSA13.jpg,AMNE07.jpg,AMNE09.jpg,AMSA11.jpg,AMNE09.jpg,MN,1,num_2,16,num_2,1.33340753103,,,2018_Feb_07_1626,60.0006735494,FEMA4ImagesEEG,001,202833,
AFNE01.JPG,AFNE01.JPG,AFNE01.JPG,AFNE01.JPG,AFNE01.JPG,AFNE01.JPG,,,,,2,9,29,1,,,,,,,,,,,,,,,,,,,AMNE06.jpg,AMSA16.jpg,AMSA17.jpg,AMNE02.jpg,AMSA16.jpg,MS,2,num_6,32,num_8,1.05012032529,,,2018_Feb_07_1626,60.0006735494,FEMA4ImagesEEG,001,202833,
AFNE01.JPG,AFNE01.JPG,AFNE01.JPG,AFNE01.JPG,AFNE01.JPG,AFNE01.JPG,,,,,3,0,30,9,,,,,,,,,,,,,,,,,,,AMSA14.jpg,AMSA12.jpg,AMNE08.jpg,AMNE16.jpg,AMSA14.jpg,MS,2,num_8,16,num_8,1.28343699104,,,2018_Feb_07_1626,60.0006735494,FEMA4ImagesEEG,001,202833,
AFNE01.JPG,AFNE01.JPG,AFNE01.JPG,AFNE01.JPG,AFNE01.JPG,AFNE01.JPG,,,,,3,1,31,8,,,,,,,,,,,,,,,,,,,AMSA02.jpg,AMNE02.jpg,AMSA09.jpg,AMNE17.jpg,AMNE02.jpg,MN,1,num_6,32,num_4,0.816503126873,,,2018_Feb_07_1626,60.0006735494,FEMA4ImagesEEG,001,202833,
AFNE01.JPG,AFNE01.JPG,AFNE01.JPG,AFNE01.JPG,AFNE01.JPG,AFNE01.JPG,,,,,3,2,32,6,,,,,,,,,,,,,,,,,,,AMNE10.jpg,AMSA16.jpg,AMNE03.jpg,AMSA08.jpg,AMSA16.jpg,MS,2,num_6,32,num_2,1.06678305217,,,2018_Feb_07_1626,60.0006735494,FEMA4ImagesEEG,001,202833,
AFNE01.JPG,AFNE01.JPG,AFNE01.JPG,AFNE01.JPG,AFNE01.JPG,AFNE01.JPG,,,,,3,3,33,0,,,,,,,,,,,,,,,,,,,AMNE16.jpg,AMSA10.jpg,AMSA09.jpg,AMNE06.jpg,AMSA10.jpg,MS,2,num_6,32,num_4,0.88351262128,,,2018_Feb_07_1626,60.0006735494,FEMA4ImagesEEG,001,202833,
AFNE01.JPG,AFNE01.JPG,AFNE01.JPG,AFNE01.JPG,AFNE01.JPG,AFNE01.JPG,,,,,3,4,34,2,,,,,,,,,,,,,,,,,,,AMNE08.jpg,AMNE06.jpg,AMSA19.jpg,AMSA02.jpg,AMNE08.jpg,MN,1,num_8,32,num_6,0.650145920226,,,2018_Feb_07_1626,60.0006735494,FEMA4ImagesEEG,001,202833,
AFNE01.JPG,AFNE01.JPG,AFNE01.JPG,AFNE01.JPG,AFNE01.JPG,AFNE01.JPG,,,,,3,5,35,7,,,,,,,,,,,,,,,,,,,AMSA01.jpg,AMNE19.jpg,AMNE17.jpg,AMSA11.jpg,AMNE19.jpg,MN,1,num_6,32,num_4,0.583500144538,,,2018_Feb_07_1626,60.0006735494,FEMA4ImagesEEG,001,202833,
AFNE01.JPG,AFNE01.JPG,AFNE01.JPG,AFNE01.JPG,AFNE01.JPG,AFNE01.JPG,,,,,3,6,36,1,,,,,,,,,,,,,,,,,,,AMSA18.jpg,AMNE12.jpg,AMNE16.jpg,AMSA09.jpg,AMNE12.jpg,MN,1,num_6,32,num_2,0.900173423812,,,2018_Feb_07_1626,60.0006735494,FEMA4ImagesEEG,001,202833,
AFNE01.JPG,AFNE01.JPG,AFNE01.JPG,AFNE01.JPG,AFNE01.JPG,AFNE01.JPG,,,,,3,7,37,5,,,,,,,,,,,,,,,,,,,AMSA11.jpg,AMSA02.jpg,AMNE11.jpg,AMNE05.jpg,AMSA02.jpg,MS,2,num_6,32,num_8,1.83339197515,,,2018_Feb_07_1626,60.0006735494,FEMA4ImagesEEG,001,202833,
AFNE01.JPG,AFNE01.JPG,AFNE01.JPG,AFNE01.JPG,AFNE01.JPG,AFNE01.JPG,,,,,3,8,38,4,,,,,,,,,,,,,,,,,,,AMSA02.jpg,AMSA07.jpg,AMNE09.jpg,AMNE14.jpg,AMSA02.jpg,MS,2,num_8,16,num_8,0.733498685062,,,2018_Feb_07_1626,60.0006735494,FEMA4ImagesEEG,001,202833,
AFNE01.JPG,AFNE01.JPG,AFNE01.JPG,AFNE01.JPG,AFNE01.JPG,AFNE01.JPG,,,,,3,9,39,3,,,,,,,,,,,,,,,,,,,AMNE07.jpg,AMNE16.jpg,AMSA08.jpg,AMSA16.jpg,AMSA16.jpg,MS,2,num_4,32,num_6,0.733500289032,,,2018_Feb_07_1626,60.0006735494,FEMA4ImagesEEG,001,202833,
AFNE01.JPG,AFNE01.JPG,AFNE01.JPG,AFNE01.JPG,AFNE01.JPG,AFNE01.JPG,,,,,4,0,40,6,,,,,,,,,,,,,,,,,,,AMSA16.jpg,AMSA05.jpg,AMNE16.jpg,AMNE17.jpg,AMSA16.jpg,MS,2,num_8,32,num_4,0.383537157904,,,2018_Feb_07_1626,60.0006735494,FEMA4ImagesEEG,001,202833,
AFNE01.JPG,AFNE01.JPG,AFNE01.JPG,AFNE01.JPG,AFNE01.JPG,AFNE01.JPG,,,,,4,1,41,5,,,,,,,,,,,,,,,,,,,AMNE09.jpg,AMSA11.jpg,AMNE19.jpg,AMSA02.jpg,AMNE09.jpg,MN,1,num_8,32,num_4,0.800124895759,,,2018_Feb_07_1626,60.0006735494,FEMA4ImagesEEG,001,202833,
AFNE01.JPG,AFNE01.JPG,AFNE01.JPG,AFNE01.JPG,AFNE01.JPG,AFNE01.JPG,,,,,4,2,42,9,,,,,,,,,,,,,,,,,,,AMSA17.jpg,AMSA02.jpg,AMNE08.jpg,AMNE05.jpg,AMSA17.jpg,MS,2,num_8,32,num_2,1.56676140241,,,2018_Feb_07_1626,60.0006735494,FEMA4ImagesEEG,001,202833,
AFNE01.JPG,AFNE01.JPG,AFNE01.JPG,AFNE01.JPG,AFNE01.JPG,AFNE01.JPG,,,,,4,3,43,2,,,,,,,,,,,,,,,,,,,AMNE08.jpg,AMSA17.jpg,AMSA12.jpg,AMNE11.jpg,AMNE08.jpg,MN,1,num_8,32,num_4,1.41672437289,,,2018_Feb_07_1626,60.0006735494,FEMA4ImagesEEG,001,202833,
AFNE01.JPG,AFNE01.JPG,AFNE01.JPG,AFNE01.JPG,AFNE01.JPG,AFNE01.JPG,,,,,4,4,44,1,,,,,,,,,,,,,,,,,,,AMNE03.jpg,AMSA12.jpg,AMNE20.jpg,AMSA07.jpg,AMNE20.jpg,MN,1,num_2,16,num_2,0.91680985014,,,2018_Feb_07_1626,60.0006735494,FEMA4ImagesEEG,001,202833,
AFNE01.JPG,AFNE01.JPG,AFNE01.JPG,AFNE01.JPG,AFNE01.JPG,AFNE01.JPG,,,,,4,5,45,3,,,,,,,,,,,,,,,,,,,AMNE06.jpg,AMSA14.jpg,AMSA02.jpg,AMNE12.jpg,AMNE12.jpg,MN,1,num_4,32,num_8,0.583471277962,,,2018_Feb_07_1626,60.0006735494,FEMA4ImagesEEG,001,202833,
AFNE01.JPG,AFNE01.JPG,AFNE01.JPG,AFNE01.JPG,AFNE01.JPG,AFNE01.JPG,,,,,4,6,46,4,,,,,,,,,,,,,,,,,,,AMSA14.jpg,AMNE11.jpg,AMSA07.jpg,AMNE13.jpg,AMSA07.jpg,MS,2,num_2,32,num_8,0.883413192118,,,2018_Feb_07_1626,60.0006735494,FEMA4ImagesEEG,001,202833,
AFNE01.JPG,AFNE01.JPG,AFNE01.JPG,AFNE01.JPG,AFNE01.JPG,AFNE01.JPG,,,,,4,7,47,7,,,,,,,,,,,,,,,,,,,AMNE13.jpg,AMSA08.jpg,AMSA09.jpg,AMNE10.jpg,AMNE10.jpg,MN,1,num_4,32,num_8,0.816882240819,,,2018_Feb_07_1626,60.0006735494,FEMA4ImagesEEG,001,202833,
AFNE01.JPG,AFNE01.JPG,AFNE01.JPG,AFNE01.JPG,AFNE01.JPG,AFNE01.JPG,,,,,4,8,48,8,,,,,,,,,,,,,,,,,,,AMSA17.jpg,AMSA15.jpg,AMNE16.jpg,AMNE03.jpg,AMNE03.jpg,MN,1,num_4,32,num_6,0.516881310614,,,2018_Feb_07_1626,60.0006735494,FEMA4ImagesEEG,001,202833,
AFNE01.JPG,AFNE01.JPG,AFNE01.JPG,AFNE01.JPG,AFNE01.JPG,AFNE01.JPG,,,,,4,9,49,0,,,,,,,,,,,,,,,,,,,AMNE03.jpg,AMNE09.jpg,AMSA13.jpg,AMSA09.jpg,AMSA13.jpg,MS,2,num_2,16,num_2,0.966755372472,,,2018_Feb_07_1626,60.0006735494,FEMA4ImagesEEG,001,202833,
AFNE01.JPG,AFNE01.JPG,AFNE01.JPG,AFNE01.JPG,AFNE01.JPG,AFNE01.JPG,,,,,5,0,50,4,,,,,,,,,,,,,,,,,,,AMNE02.jpg,AMNE18.jpg,AMSA20.jpg,AMSA16.jpg,AMNE18.jpg,MN,1,num_6,32,num_4,0.66685932409,,,2018_Feb_07_1626,60.0006735494,FEMA4ImagesEEG,001,202833,
AFNE01.JPG,AFNE01.JPG,AFNE01.JPG,AFNE01.JPG,AFNE01.JPG,AFNE01.JPG,,,,,5,1,51,0,,,,,,,,,,,,,,,,,,,AMSA02.jpg,AMSA16.jpg,AMNE02.jpg,AMNE15.jpg,AMNE02.jpg,MN,1,num_2,32,num_8,1.00015010592,,,2018_Feb_07_1626,60.0006735494,FEMA4ImagesEEG,001,202833,
AFNE01.JPG,AFNE01.JPG,AFNE01.JPG,AFNE01.JPG,AFNE01.JPG,AFNE01.JPG,,,,,5,2,52,5,,,,,,,,,,,,,,,,,,,AMSA01.jpg,AMNE09.jpg,AMNE12.jpg,AMSA18.jpg,AMSA18.jpg,MS,2,num_4,32,num_2,1.15009861137,,,2018_Feb_07_1626,60.0006735494,FEMA4ImagesEEG,001,202833,
AFNE01.JPG,AFNE01.JPG,AFNE01.JPG,AFNE01.JPG,AFNE01.JPG,AFNE01.JPG,,,,,5,3,53,8,,,,,,,,,,,,,,,,,,,AMNE14.jpg,AMSA14.jpg,AMSA11.jpg,AMNE17.jpg,AMNE14.jpg,MN,1,num_8,16,num_8,1.16685306956,,,2018_Feb_07_1626,60.0006735494,FEMA4ImagesEEG,001,202833,
AFNE01.JPG,AFNE01.JPG,AFNE01.JPG,AFNE01.JPG,AFNE01.JPG,AFNE01.JPG,,,,,5,4,54,3,,,,,,,,,,,,,,,,,,,AMSA07.jpg,AMNE11.jpg,AMNE12.jpg,AMSA14.jpg,AMSA07.jpg,MS,2,num_8,32,num_4,0.716848467011,,,2018_Feb_07_1626,60.0006735494,FEMA4ImagesEEG,001,202833,
AFNE01.JPG,AFNE01.JPG,AFNE01.JPG,AFNE01.JPG,AFNE01.JPG,AFNE01.JPG,,,,,5,5,55,2,,,,,,,,,,,,,,,,,,,AMSA14.jpg,AMNE18.jpg,AMNE20.jpg,AMSA11.jpg,AMSA11.jpg,MS,2,num_4,32,num_6,1.26672519092,,,2018_Feb_07_1626,60.0006735494,FEMA4ImagesEEG,001,202833,
AFNE01.JPG,AFNE01.JPG,AFNE01.JPG,AFNE01.JPG,AFNE01.JPG,AFNE01.JPG,,,,,5,6,56,9,,,,,,,,,,,,,,,,,,,AMSA18.jpg,AMSA06.jpg,AMNE04.jpg,AMNE11.jpg,AMSA18.jpg,MS,2,num_8,32,num_4,0.833449708298,,,2018_Feb_07_1626,60.0006735494,FEMA4ImagesEEG,001,202833,
AFNE01.JPG,AFNE01.JPG,AFNE01.JPG,AFNE01.JPG,AFNE01.JPG,AFNE01.JPG,,,,,5,7,57,7,,,,,,,,,,,,,,,,,,,AMNE13.jpg,AMNE09.jpg,AMSA15.jpg,AMSA18.jpg,AMNE09.jpg,MN,1,num_6,32,num_8,0.633475495735,,,2018_Feb_07_1626,60.0006735494,FEMA4ImagesEEG,001,202833,
AFNE01.JPG,AFNE01.JPG,AFNE01.JPG,AFNE01.JPG,AFNE01.JPG,AFNE01.JPG,,,,,5,8,58,6,,,,,,,,,,,,,,,,,,,AMNE17.jpg,AMSA19.jpg,AMNE13.jpg,AMSA15.jpg,AMNE13.jpg,MN,1,num_2,16,num_2,0.53352351021,,,2018_Feb_07_1626,60.0006735494,FEMA4ImagesEEG,001,202833,
AFNE01.JPG,AFNE01.JPG,AFNE01.JPG,AFNE01.JPG,AFNE01.JPG,AFNE01.JPG,,,,,5,9,59,1,,,,,,,,,,,,,,,,,,,AMNE13.jpg,AMNE11.jpg,AMSA19.jpg,AMSA09.jpg,AMNE13.jpg,MN,1,num_8,16,num_8,0.983477115398,,,2018_Feb_07_1626,60.0006735494,FEMA4ImagesEEG,001,202833,
,,,,,,,,,,,,,,,,,,,,,,,,,,,,,,,,,,,,,,,,,,,space,6.11631738674,2018_Feb_07_1626,60.0006735494,FEMA4ImagesEEG,001,202833,
AFNE01.JPG,AFNE01.JPG,AFNE01.JPG,AFNE01.JPG,AFNE01.JPG,AFNE01.JPG,,,,,,,,,0,0,0,0,,,,,,,,,,,,,,,AFNE20.jpg,AFNE16.jpg,AFSA18.jpg,AFSA17.jpg,AFNE16.jpg,FN,3,num_6,16,num_6,1.05015753116,,,2018_Feb_07_1626,60.0006735494,FEMA4ImagesEEG,001,202833,
AFNE01.JPG,AFNE01.JPG,AFNE01.JPG,AFNE01.JPG,AFNE01.JPG,AFNE01.JPG,,,,,,,,,0,1,1,3,,,,,,,,,,,,,,,AFSA14.jpg,AFNE11.jpg,AFSA13.jpg,AFNE05.jpg,AFNE11.jpg,FN,3,num_6,32,num_8,0.91676719184,,,2018_Feb_07_1626,60.0006735494,FEMA4ImagesEEG,001,202833,
AFNE01.JPG,AFNE01.JPG,AFNE01.JPG,AFNE01.JPG,AFNE01.JPG,AFNE01.JPG,,,,,,,,,0,2,2,6,,,,,,,,,,,,,,,AFNE07.jpg,AFSA07.jpg,AFSA13.jpg,AFNE04.jpg,AFSA07.jpg,FS,4,num_6,32,num_2,0.883491773158,,,2018_Feb_07_1626,60.0006735494,FEMA4ImagesEEG,001,202833,
AFNE01.JPG,AFNE01.JPG,AFNE01.JPG,AFNE01.JPG,AFNE01.JPG,AFNE01.JPG,,,,,,,,,0,3,3,5,,,,,,,,,,,,,,,AFSA10.jpg,AFNE08.jpg,AFNE09.jpg,AFSA05.jpg,AFSA05.jpg,FS,4,num_4,16,num_4,0.566796042025,,,2018_Feb_07_1626,60.0006735494,FEMA4ImagesEEG,001,202833,
AFNE01.JPG,AFNE01.JPG,AFNE01.JPG,AFNE01.JPG,AFNE01.JPG,AFNE01.JPG,,,,,,,,,0,4,4,8,,,,,,,,,,,,,,,AFSA16.jpg,AFSA19.jpg,AFNE05.jpg,AFNE06.jpg,AFSA19.jpg,FS,4,num_6,16,num_6,0.950103550684,,,2018_Feb_07_1626,60.0006735494,FEMA4ImagesEEG,001,202833,
AFNE01.JPG,AFNE01.JPG,AFNE01.JPG,AFNE01.JPG,AFNE01.JPG,AFNE01.JPG,,,,,,,,,0,5,5,1,,,,,,,,,,,,,,,AFNE20.jpg,AFSA17.jpg,AFSA06.jpg,AFNE18.jpg,AFSA06.jpg,FS,4,num_2,32,num_4,0.9001259543,,,2018_Feb_07_1626,60.0006735494,FEMA4ImagesEEG,001,202833,
AFNE01.JPG,AFNE01.JPG,AFNE01.JPG,AFNE01.JPG,AFNE01.JPG,AFNE01.JPG,,,,,,,,,0,6,6,9,,,,,,,,,,,,,,,AFSA10.jpg,AFNE19.jpg,AFNE17.jpg,AFSA14.jpg,AFSA14.jpg,FS,4,num_4,32,num_8,0.833491083467,,,2018_Feb_07_1626,60.0006735494,FEMA4ImagesEEG,001,202833,
AFNE01.JPG,AFNE01.JPG,AFNE01.JPG,AFNE01.JPG,AFNE01.JPG,AFNE01.JPG,,,,,,,,,0,7,7,4,,,,,,,,,,,,,,,AFSA19.jpg,AFNE15.jpg,AFSA05.jpg,AFNE04.jpg,AFNE04.jpg,FN,3,num_4,32,num_6,0.95015935949,,,2018_Feb_07_1626,60.0006735494,FEMA4ImagesEEG,001,202833,
AFNE01.JPG,AFNE01.JPG,AFNE01.JPG,AFNE01.JPG,AFNE01.JPG,AFNE01.JPG,,,,,,,,,0,8,8,2,,,,,,,,,,,,,,,AFSA16.jpg,AFNE16.jpg,AFNE02.jpg,AFSA07.jpg,AFNE02.jpg,FN,3,num_2,32,num_4,0.583511370467,,,2018_Feb_07_1626,60.0006735494,FEMA4ImagesEEG,001,202833,
AFNE01.JPG,AFNE01.JPG,AFNE01.JPG,AFNE01.JPG,AFNE01.JPG,AFNE01.JPG,,,,,,,,,0,9,9,7,,,,,,,,,,,,,,,AFNE07.jpg,AFSA09.jpg,AFNE05.jpg,AFSA19.jpg,AFSA19.jpg,FS,4,num_4,32,num_2,1.08343487396,,,2018_Feb_07_1626,60.0006735494,FEMA4ImagesEEG,001,202833,
AFNE01.JPG,AFNE01.JPG,AFNE01.JPG,AFNE01.JPG,AFNE01.JPG,AFNE01.JPG,,,,,,,,,1,0,10,6,,,,,,,,,,,,,,,AFSA12.jpg,AFNE14.jpg,AFNE05.jpg,AFSA06.jpg,AFNE05.jpg,FN,3,num_2,32,num_8,0.450193838915,,,2018_Feb_07_1626,60.0006735494,FEMA4ImagesEEG,001,202833,
AFNE01.JPG,AFNE01.JPG,AFNE01.JPG,AFNE01.JPG,AFNE01.JPG,AFNE01.JPG,,,,,,,,,1,1,11,8,,,,,,,,,,,,,,,AFSA08.jpg,AFNE19.jpg,AFNE07.jpg,AFSA01.jpg,AFNE07.jpg,FN,3,num_2,32,num_8,0.933440823806,,,2018_Feb_07_1626,60.0006735494,FEMA4ImagesEEG,001,202833,
AFNE01.JPG,AFNE01.JPG,AFNE01.JPG,AFNE01.JPG,AFNE01.JPG,AFNE01.JPG,,,,,,,,,1,2,12,0,,,,,,,,,,,,,,,AFSA01.jpg,AFNE19.jpg,AFNE17.jpg,AFSA08.jpg,AFNE17.jpg,FN,3,num_2,16,num_2,0.466827057768,,,2018_Feb_07_1626,60.0006735494,FEMA4ImagesEEG,001,202833,
AFNE01.JPG,AFNE01.JPG,AFNE01.JPG,AFNE01.JPG,AFNE01.JPG,AFNE01.JPG,,,,,,,,,1,3,13,4,,,,,,,,,,,,,,,AFSA16.jpg,AFNE16.jpg,AFNE20.jpg,AFSA19.jpg,AFNE16.jpg,FN,3,num_6,32,num_4,0.700136025436,,,2018_Feb_07_1626,60.0006735494,FEMA4ImagesEEG,001,202833,
AFNE01.JPG,AFNE01.JPG,AFNE01.JPG,AFNE01.JPG,AFNE01.JPG,AFNE01.JPG,,,,,,,,,1,4,14,2,,,,,,,,,,,,,,,AFSA11.jpg,AFSA01.jpg,AFNE02.jpg,AFNE18.jpg,AFNE02.jpg,FN,3,num_2,32,num_6,0.750061662169,,,2018_Feb_07_1626,60.0006735494,FEMA4ImagesEEG,001,202833,
AFNE01.JPG,AFNE01.JPG,AFNE01.JPG,AFNE01.JPG,AFNE01.JPG,AFNE01.JPG,,,,,,,,,1,5,15,9,,,,,,,,,,,,,,,AFNE04.jpg,AFNE13.jpg,AFSA17.jpg,AFSA02.jpg,AFSA02.jpg,FS,4,num_4,32,num_8,1.0834339119,,,2018_Feb_07_1626,60.0006735494,FEMA4ImagesEEG,001,202833,
AFNE01.JPG,AFNE01.JPG,AFNE01.JPG,AFNE01.JPG,AFNE01.JPG,AFNE01.JPG,,,,,,,,,1,6,16,1,,,,,,,,,,,,,,,AFSA01.jpg,AFSA14.jpg,AFNE12.jpg,AFNE08.jpg,AFNE08.jpg,FN,3,num_4,32,num_2,0.766800404293,,,2018_Feb_07_1626,60.0006735494,FEMA4ImagesEEG,001,202833,
AFNE01.JPG,AFNE01.JPG,AFNE01.JPG,AFNE01.JPG,AFNE01.JPG,AFNE01.JPG,,,,,,,,,1,7,17,3,,,,,,,,,,,,,,,AFNE03.jpg,AFSA04.jpg,AFNE10.jpg,AFSA08.jpg,AFSA04.jpg,FS,4,num_6,32,num_4,0.98347647395,,,2018_Feb_07_1626,60.0006735494,FEMA4ImagesEEG,001,202833,
AFNE01.JPG,AFNE01.JPG,AFNE01.JPG,AFNE01.JPG,AFNE01.JPG,AFNE01.JPG,,,,,,,,,1,8,18,7,,,,,,,,,,,,,,,AFNE20.jpg,AFSA12.jpg,AFSA05.jpg,AFNE16.jpg,AFSA05.jpg,FS,4,num_2,32,num_8,1.5334051575,,,2018_Feb_07_1626,60.0006735494,FEMA4ImagesEEG,001,202833,
AFNE01.JPG,AFNE01.JPG,AFNE01.JPG,AFNE01.JPG,AFNE01.JPG,AFNE01.JPG,,,,,,,,,1,9,19,5,,,,,,,,,,,,,,,AFNE10.jpg,AFSA04.jpg,AFSA13.jpg,AFNE04.jpg,AFSA13.jpg,FS,4,num_2,32,num_6,1.30006700242,,,2018_Feb_07_1626,60.0006735494,FEMA4ImagesEEG,001,202833,
AFNE01.JPG,AFNE01.JPG,AFNE01.JPG,AFNE01.JPG,AFNE01.JPG,AFNE01.JPG,,,,,,,,,2,0,20,6,,,,,,,,,,,,,,,AFNE09.jpg,AFSA02.jpg,AFSA08.jpg,AFNE10.jpg,AFSA02.jpg,FS,4,num_6,32,num_2,1.08351313439,,,2018_Feb_07_1626,60.0006735494,FEMA4ImagesEEG,001,202833,
AFNE01.JPG,AFNE01.JPG,AFNE01.JPG,AFNE01.JPG,AFNE01.JPG,AFNE01.JPG,,,,,,,,,2,1,21,4,,,,,,,,,,,,,,,AFNE14.jpg,AFNE11.jpg,AFSA07.jpg,AFSA19.jpg,AFSA07.jpg,FS,4,num_2,32,num_4,0.766783084255,,,2018_Feb_07_1626,60.0006735494,FEMA4ImagesEEG,001,202833,
AFNE01.JPG,AFNE01.JPG,AFNE01.JPG,AFNE01.JPG,AFNE01.JPG,AFNE01.JPG,,,,,,,,,2,2,22,8,,,,,,,,,,,,,,,AFSA11.jpg,AFSA13.jpg,AFNE14.jpg,AFNE09.jpg,AFSA13.jpg,FS,4,num_6,32,num_8,0.850124944001,,,2018_Feb_07_1626,60.0006735494,FEMA4ImagesEEG,001,202833,
AFNE01.JPG,AFNE01.JPG,AFNE01.JPG,AFNE01.JPG,AFNE01.JPG,AFNE01.JPG,,,,,,,,,2,3,23,3,,,,,,,,,,,,,,,AFSA01.jpg,AFNE07.jpg,AFNE06.jpg,AFSA11.jpg,AFNE06.jpg,FN,3,num_2,16,num_2,1.15012491192,,,2018_Feb_07_1626,60.0006735494,FEMA4ImagesEEG,001,202833,
AFNE01.JPG,AFNE01.JPG,AFNE01.JPG,AFNE01.JPG,AFNE01.JPG,AFNE01.JPG,,,,,,,,,2,4,24,5,,,,,,,,,,,,,,,AFSA12.jpg,AFNE20.jpg,AFNE01.jpg,AFSA17.jpg,AFSA17.jpg,FS,4,num_4,32,num_6,1.26675052918,,,2018_Feb_07_1626,60.0006735494,FEMA4ImagesEEG,001,202833,
AFNE01.JPG,AFNE01.JPG,AFNE01.JPG,AFNE01.JPG,AFNE01.JPG,AFNE01.JPG,,,,,,,,,2,5,25,2,,,,,,,,,,,,,,,AFNE07.jpg,AFSA11.jpg,AFNE19.jpg,AFSA15.jpg,AFNE07.jpg,FN,3,num_8,16,num_8,1.08344000578,,,2018_Feb_07_1626,60.0006735494,FEMA4ImagesEEG,001,202833,
AFNE01.JPG,AFNE01.JPG,AFNE01.JPG,AFNE01.JPG,AFNE01.JPG,AFNE01.JPG,,,,,,,,,2,6,26,1,,,,,,,,,,,,,,,AFSA16.jpg,AFSA06.jpg,AFNE16.jpg,AFNE01.jpg,AFNE16.jpg,FN,3,num_2,16,num_2,0.466866508592,,,2018_Feb_07_1626,60.0006735494,FEMA4ImagesEEG,001,202833,
AFNE01.JPG,AFNE01.JPG,AFNE01.JPG,AFNE01.JPG,AFNE01.JPG,AFNE01.JPG,,,,,,,,,2,7,27,0,,,,,,,,,,,,,,,AFNE07.jpg,AFNE14.jpg,AFSA01.jpg,AFSA05.jpg,AFNE14.jpg,FN,3,num_6,32,num_4,0.266822054051,,,2018_Feb_07_1626,60.0006735494,FEMA4ImagesEEG,001,202833,
AFNE01.JPG,AFNE01.JPG,AFNE01.JPG,AFNE01.JPG,AFNE01.JPG,AFNE01.JPG,,,,,,,,,2,8,28,9,,,,,,,,,,,,,,,AFSA16.jpg,AFSA05.jpg,AFNE05.jpg,AFNE08.jpg,AFSA16.jpg,FS,4,num_8,32,num_2,1.26684739254,,,2018_Feb_07_1626,60.0006735494,FEMA4ImagesEEG,001,202833,
AFNE01.JPG,AFNE01.JPG,AFNE01.JPG,AFNE01.JPG,AFNE01.JPG,AFNE01.JPG,,,,,,,,,2,9,29,7,,,,,,,,,,,,,,,AFNE07.jpg,AFSA02.jpg,AFNE19.jpg,AFSA12.jpg,AFSA02.jpg,FS,4,num_6,16,num_6,0.700101385592,,,2018_Feb_07_1626,60.0006735494,FEMA4ImagesEEG,001,202833,
AFNE01.JPG,AFNE01.JPG,AFNE01.JPG,AFNE01.JPG,AFNE01.JPG,AFNE01.JPG,,,,,,,,,3,0,30,8,,,,,,,,,,,,,,,AFNE05.jpg,AFSA02.jpg,AFSA03.jpg,AFNE01.jpg,AFNE05.jpg,FN,3,num_8,32,num_4,1.35010361485,,,2018_Feb_07_1626,60.0006735494,FEMA4ImagesEEG,001,202833,
AFNE01.JPG,AFNE01.JPG,AFNE01.JPG,AFNE01.JPG,AFNE01.JPG,AFNE01.JPG,,,,,,,,,3,1,31,2,,,,,,,,,,,,,,,AFSA18.jpg,AFNE03.jpg,AFSA19.jpg,AFNE10.jpg,AFSA19.jpg,FS,4,num_2,32,num_8,0.78349584667,,,2018_Feb_07_1626,60.0006735494,FEMA4ImagesEEG,001,202833,
AFNE01.JPG,AFNE01.JPG,AFNE01.JPG,AFNE01.JPG,AFNE01.JPG,AFNE01.JPG,,,,,,,,,3,2,32,0,,,,,,,,,,,,,,,AFSA18.jpg,AFNE17.jpg,AFNE15.jpg,AFSA14.jpg,AFSA18.jpg,FS,4,num_8,32,num_2,1.18344330951,,,2018_Feb_07_1626,60.0006735494,FEMA4ImagesEEG,001,202833,
AFNE01.JPG,AFNE01.JPG,AFNE01.JPG,AFNE01.JPG,AFNE01.JPG,AFNE01.JPG,,,,,,,,,3,3,33,1,,,,,,,,,,,,,,,AFNE06.jpg,AFSA08.jpg,AFSA03.jpg,AFNE01.jpg,AFNE01.jpg,FN,3,num_4,16,num_4,1.74990385841,,,2018_Feb_07_1626,60.0006735494,FEMA4ImagesEEG,001,202833,
AFNE01.JPG,AFNE01.JPG,AFNE01.JPG,AFNE01.JPG,AFNE01.JPG,AFNE01.JPG,,,,,,,,,3,4,34,5,,,,,,,,,,,,,,,AFNE10.jpg,AFSA12.jpg,AFNE06.jpg,AFSA10.jpg,AFSA10.jpg,FS,4,num_4,32,num_6,0.666786836926,,,2018_Feb_07_1626,60.0006735494,FEMA4ImagesEEG,001,202833,
AFNE01.JPG,AFNE01.JPG,AFNE01.JPG,AFNE01.JPG,AFNE01.JPG,AFNE01.JPG,,,,,,,,,3,5,35,9,,,,,,,,,,,,,,,AFNE06.jpg,AFNE15.jpg,AFSA14.jpg,AFSA12.jpg,AFSA12.jpg,FS,4,num_4,32,num_8,0.783457037061,,,2018_Feb_07_1626,60.0006735494,FEMA4ImagesEEG,001,202833,
AFNE01.JPG,AFNE01.JPG,AFNE01.JPG,AFNE01.JPG,AFNE01.JPG,AFNE01.JPG,,,,,,,,,3,6,36,6,,,,,,,,,,,,,,,AFSA06.jpg,AFSA15.jpg,AFNE02.jpg,AFNE08.jpg,AFSA06.jpg,FS,4,num_8,32,num_2,0.533497530501,,,2018_Feb_07_1626,60.0006735494,FEMA4ImagesEEG,001,202833,
AFNE01.JPG,AFNE01.JPG,AFNE01.JPG,AFNE01.JPG,AFNE01.JPG,AFNE01.JPG,,,,,,,,,3,7,37,3,,,,,,,,,,,,,,,AFSA16.jpg,AFNE04.jpg,AFSA04.jpg,AFNE08.jpg,AFNE08.jpg,FN,3,num_4,32,num_8,0.500178170623,,,2018_Feb_07_1626,60.0006735494,FEMA4ImagesEEG,001,202833,
AFNE01.JPG,AFNE01.JPG,AFNE01.JPG,AFNE01.JPG,AFNE01.JPG,AFNE01.JPG,,,,,,,,,3,8,38,4,,,,,,,,,,,,,,,AFSA14.jpg,AFSA07.jpg,AFNE02.jpg,AFNE15.jpg,AFSA07.jpg,FS,4,num_6,32,num_4,0.766785329441,,,2018_Feb_07_1626,60.0006735494,FEMA4ImagesEEG,001,202833,
AFNE01.JPG,AFNE01.JPG,AFNE01.JPG,AFNE01.JPG,AFNE01.JPG,AFNE01.JPG,,,,,,,,,3,9,39,7,,,,,,,,,,,,,,,AFSA06.jpg,AFNE17.jpg,AFSA04.jpg,AFNE15.jpg,AFSA04.jpg,FS,4,num_2,16,num_2,1.01678877766,,,2018_Feb_07_1626,60.0006735494,FEMA4ImagesEEG,001,202833,
AFNE01.JPG,AFNE01.JPG,AFNE01.JPG,AFNE01.JPG,AFNE01.JPG,AFNE01.JPG,,,,,,,,,4,0,40,1,,,,,,,,,,,,,,,AFSA03.jpg,AFNE19.jpg,AFSA10.jpg,AFNE17.jpg,AFSA10.jpg,FS,4,num_2,32,num_8,0.733475591755,,,2018_Feb_07_1626,60.0006735494,FEMA4ImagesEEG,001,202833,
AFNE01.JPG,AFNE01.JPG,AFNE01.JPG,AFNE01.JPG,AFNE01.JPG,AFNE01.JPG,,,,,,,,,4,1,41,7,,,,,,,,,,,,,,,AFSA03.jpg,AFSA04.jpg,AFNE13.jpg,AFNE11.jpg,AFNE13.jpg,FN,3,num_2,32,num_6,0.900137821678,,,2018_Feb_07_1626,60.0006735494,FEMA4ImagesEEG,001,202833,
AFNE01.JPG,AFNE01.JPG,AFNE01.JPG,AFNE01.JPG,AFNE01.JPG,AFNE01.JPG,,,,,,,,,4,2,42,8,,,,,,,,,,,,,,,AFNE08.jpg,AFNE07.jpg,AFSA05.jpg,AFSA08.jpg,AFNE07.jpg,FN,3,num_6,32,num_2,0.966801238013,,,2018_Feb_07_1626,60.0006735494,FEMA4ImagesEEG,001,202833,
AFNE01.JPG,AFNE01.JPG,AFNE01.JPG,AFNE01.JPG,AFNE01.JPG,AFNE01.JPG,,,,,,,,,4,3,43,3,,,,,,,,,,,,,,,AFSA10.jpg,AFNE05.jpg,AFSA06.jpg,AFNE17.jpg,AFNE05.jpg,FN,3,num_6,32,num_8,0.900121463928,,,2018_Feb_07_1626,60.0006735494,FEMA4ImagesEEG,001,202833,
AFNE01.JPG,AFNE01.JPG,AFNE01.JPG,AFNE01.JPG,AFNE01.JPG,AFNE01.JPG,,,,,,,,,4,4,44,0,,,,,,,,,,,,,,,AFNE14.jpg,AFSA05.jpg,AFNE03.jpg,AFSA06.jpg,AFSA06.jpg,FS,4,num_4,16,num_4,0.666803515516,,,2018_Feb_07_1626,60.0006735494,FEMA4ImagesEEG,001,202833,
AFNE01.JPG,AFNE01.JPG,AFNE01.JPG,AFNE01.JPG,AFNE01.JPG,AFNE01.JPG,,,,,,,,,4,5,45,6,,,,,,,,,,,,,,,AFNE05.jpg,AFSA02.jpg,AFNE14.jpg,AFSA01.jpg,AFNE14.jpg,FN,3,num_2,32,num_8,0.716794903623,,,2018_Feb_07_1626,60.0006735494,FEMA4ImagesEEG,001,202833,
AFNE01.JPG,AFNE01.JPG,AFNE01.JPG,AFNE01.JPG,AFNE01.JPG,AFNE01.JPG,,,,,,,,,4,6,46,5,,,,,,,,,,,,,,,AFSA10.jpg,AFNE16.jpg,AFSA03.jpg,AFNE08.jpg,AFNE16.jpg,FN,3,num_6,32,num_2,0.93347642594,,,2018_Feb_07_1626,60.0006735494,FEMA4ImagesEEG,001,202833,
AFNE01.JPG,AFNE01.JPG,AFNE01.JPG,AFNE01.JPG,AFNE01.JPG,AFNE01.JPG,,,,,,,,,4,7,47,9,,,,,,,,,,,,,,,AFNE19.jpg,AFNE07.jpg,AFSA18.jpg,AFSA09.jpg,AFNE19.jpg,FN,3,num_8,32,num_6,1.38330911216,,,2018_Feb_07_1626,60.0006735494,FEMA4ImagesEEG,001,202833,
AFNE01.JPG,AFNE01.JPG,AFNE01.JPG,AFNE01.JPG,AFNE01.JPG,AFNE01.JPG,,,,,,,,,4,8,48,4,,,,,,,,,,,,,,,AFSA14.jpg,AFNE13.jpg,AFNE15.jpg,AFSA16.jpg,AFNE15.jpg,FN,3,num_2,32,num_8,0.916816264624,,,2018_Feb_07_1626,60.0006735494,FEMA4ImagesEEG,001,202833,
AFNE01.JPG,AFNE01.JPG,AFNE01.JPG,AFNE01.JPG,AFNE01.JPG,AFNE01.JPG,,,,,,,,,4,9,49,2,,,,,,,,,,,,,,,AFSA11.jpg,AFNE11.jpg,AFNE15.jpg,AFSA06.jpg,AFNE11.jpg,FN,3,num_6,32,num_4,0.750218503643,,,2018_Feb_07_1626,60.0006735494,FEMA4ImagesEEG,001,202833,
AFNE01.JPG,AFNE01.JPG,AFNE01.JPG,AFNE01.JPG,AFNE01.JPG,AFNE01.JPG,,,,,,,,,5,0,50,5,,,,,,,,,,,,,,,AFNE19.jpg,AFNE04.jpg,AFSA08.jpg,AFSA01.jpg,AFNE04.jpg,FN,3,num_6,32,num_8,1.53344685351,,,2018_Feb_07_1626,60.0006735494,FEMA4ImagesEEG,001,202833,
AFNE01.JPG,AFNE01.JPG,AFNE01.JPG,AFNE01.JPG,AFNE01.JPG,AFNE01.JPG,,,,,,,,,5,1,51,0,,,,,,,,,,,,,,,AFNE15.jpg,AFNE06.jpg,AFSA03.jpg,AFSA09.jpg,AFNE06.jpg,FN,3,num_6,16,num_6,0.683427753858,,,2018_Feb_07_1626,60.0006735494,FEMA4ImagesEEG,001,202833,
AFNE01.JPG,AFNE01.JPG,AFNE01.JPG,AFNE01.JPG,AFNE01.JPG,AFNE01.JPG,,,,,,,,,5,2,52,2,,,,,,,,,,,,,,,AFSA02.jpg,AFNE19.jpg,AFNE10.jpg,AFSA15.jpg,AFNE19.jpg,FN,3,num_6,32,num_2,1.01686383062,,,2018_Feb_07_1626,60.0006735494,FEMA4ImagesEEG,001,202833,
AFNE01.JPG,AFNE01.JPG,AFNE01.JPG,AFNE01.JPG,AFNE01.JPG,AFNE01.JPG,,,,,,,,,5,3,53,8,,,,,,,,,,,,,,,AFSA11.jpg,AFNE05.jpg,AFNE18.jpg,AFSA17.jpg,AFNE18.jpg,FN,3,num_2,32,num_4,2.10011235508,,,2018_Feb_07_1626,60.0006735494,FEMA4ImagesEEG,001,202833,
AFNE01.JPG,AFNE01.JPG,AFNE01.JPG,AFNE01.JPG,AFNE01.JPG,AFNE01.JPG,,,,,,,,,5,4,54,7,,,,,,,,,,,,,,,AFSA19.jpg,AFNE14.jpg,AFSA17.jpg,AFNE07.jpg,AFSA17.jpg,FS,4,num_2,32,num_8,1.1334945797,,,2018_Feb_07_1626,60.0006735494,FEMA4ImagesEEG,001,202833,
AFNE01.JPG,AFNE01.JPG,AFNE01.JPG,AFNE01.JPG,AFNE01.JPG,AFNE01.JPG,,,,,,,,,5,5,55,3,,,,,,,,,,,,,,,AFSA09.jpg,AFSA13.jpg,AFNE01.jpg,AFNE02.jpg,AFNE02.jpg,FN,3,num_4,32,num_2,0.916776492959,,,2018_Feb_07_1626,60.0006735494,FEMA4ImagesEEG,001,202833,
AFNE01.JPG,AFNE01.JPG,AFNE01.JPG,AFNE01.JPG,AFNE01.JPG,AFNE01.JPG,,,,,,,,,5,6,56,4,,,,,,,,,,,,,,,AFSA20.jpg,AFNE02.jpg,AFSA19.jpg,AFNE11.jpg,AFNE11.jpg,FN,3,num_4,32,num_8,1.1834016135,,,2018_Feb_07_1626,60.0006735494,FEMA4ImagesEEG,001,202833,
AFNE01.JPG,AFNE01.JPG,AFNE01.JPG,AFNE01.JPG,AFNE01.JPG,AFNE01.JPG,,,,,,,,,5,7,57,9,,,,,,,,,,,,,,,AFNE12.jpg,AFSA15.jpg,AFSA17.jpg,AFNE04.jpg,AFSA15.jpg,FS,4,num_6,32,num_2,2.28341389773,,,2018_Feb_07_1626,60.0006735494,FEMA4ImagesEEG,001,202833,
AFNE01.JPG,AFNE01.JPG,AFNE01.JPG,AFNE01.JPG,AFNE01.JPG,AFNE01.JPG,,,,,,,,,5,8,58,1,,,,,,,,,,,,,,,AFSA14.jpg,AFSA15.jpg,AFNE01.jpg,AFNE16.jpg,AFSA14.jpg,FS,4,num_8,32,num_4,0.583528369432,,,2018_Feb_07_1626,60.0006735494,FEMA4ImagesEEG,001,202833,
AFNE01.JPG,AFNE01.JPG,AFNE01.JPG,AFNE01.JPG,AFNE01.JPG,AFNE01.JPG,,,,,,,,,5,9,59,6,,,,,,,,,,,,,,,AFSA14.jpg,AFNE12.jpg,AFNE16.jpg,AFSA08.jpg,AFSA14.jpg,FS,4,num_8,16,num_8,0.550220877165,,,2018_Feb_07_1626,60.0006735494,FEMA4ImagesEEG,001,202833,
,,,,,,,,,,,,,,,,,,,,,,,,,,,,,,,,,,,,,,,,,,,space,3.13298139675,2018_Feb_07_1626,60.0006735494,FEMA4ImagesEEG,001,202833,
AFNE01.JPG,AFNE01.JPG,AFNE01.JPG,AFNE01.JPG,AFNE01.JPG,AFNE01.JPG,,,,,,,,,,,,,0,0,0,5,,,,,,,,,,,AMSA13.jpg,AMNE08.jpg,AMNE12.jpg,AMSA18.jpg,AMSA13.jpg,MS,2,num_8,32,num_2,1.1334775805,,,2018_Feb_07_1626,60.0006735494,FEMA4ImagesEEG,001,202833,
AFNE01.JPG,AFNE01.JPG,AFNE01.JPG,AFNE01.JPG,AFNE01.JPG,AFNE01.JPG,,,,,,,,,,,,,0,1,1,8,,,,,,,,,,,AMNE03.jpg,AMNE13.jpg,AMSA20.jpg,AMSA05.jpg,AMSA20.jpg,MS,2,num_2,32,num_4,0.633513342822,,,2018_Feb_07_1626,60.0006735494,FEMA4ImagesEEG,001,202833,
AFNE01.JPG,AFNE01.JPG,AFNE01.JPG,AFNE01.JPG,AFNE01.JPG,AFNE01.JPG,,,,,,,,,,,,,0,2,2,0,,,,,,,,,,,AMNE13.jpg,AMSA04.jpg,AMSA01.jpg,AMNE17.jpg,AMSA04.jpg,MS,2,num_6,32,num_8,0.616818221286,,,2018_Feb_07_1626,60.0006735494,FEMA4ImagesEEG,001,202833,
AFNE01.JPG,AFNE01.JPG,AFNE01.JPG,AFNE01.JPG,AFNE01.JPG,AFNE01.JPG,,,,,,,,,,,,,0,3,3,3,,,,,,,,,,,AMSA17.jpg,AMSA20.jpg,AMNE12.jpg,AMNE06.jpg,AMNE12.jpg,MN,1,num_2,32,num_4,0.900152896531,,,2018_Feb_07_1626,60.0006735494,FEMA4ImagesEEG,001,202833,
AFNE01.JPG,AFNE01.JPG,AFNE01.JPG,AFNE01.JPG,AFNE01.JPG,AFNE01.JPG,,,,,,,,,,,,,0,4,4,1,,,,,,,,,,,AMSA06.jpg,AMNE16.jpg,AMNE03.jpg,AMSA04.jpg,AMNE16.jpg,MN,1,num_6,16,num_6,0.833467028104,,,2018_Feb_07_1626,60.0006735494,FEMA4ImagesEEG,001,202833,
AFNE01.JPG,AFNE01.JPG,AFNE01.JPG,AFNE01.JPG,AFNE01.JPG,AFNE01.JPG,,,,,,,,,,,,,0,5,5,2,,,,,,,,,,,AMSA07.jpg,AMSA13.jpg,AMNE18.jpg,AMNE02.jpg,AMSA13.jpg,MS,2,num_6,16,num_6,1.03329819092,,,2018_Feb_07_1626,60.0006735494,FEMA4ImagesEEG,001,202833,
AFNE01.JPG,AFNE01.JPG,AFNE01.JPG,AFNE01.JPG,AFNE01.JPG,AFNE01.JPG,,,,,,,,,,,,,0,6,6,9,,,,,,,,,,,AMNE17.jpg,AMNE05.jpg,AMSA09.jpg,AMSA05.jpg,AMNE05.jpg,MN,1,num_6,32,num_2,1.10006905533,,,2018_Feb_07_1626,60.0006735494,FEMA4ImagesEEG,001,202833,
AFNE01.JPG,AFNE01.JPG,AFNE01.JPG,AFNE01.JPG,AFNE01.JPG,AFNE01.JPG,,,,,,,,,,,,,0,7,7,4,,,,,,,,,,,AMSA12.jpg,AMNE02.jpg,AMNE03.jpg,AMSA11.jpg,AMSA11.jpg,MS,2,num_4,16,num_4,0.966749599203,,,2018_Feb_07_1626,60.0006735494,FEMA4ImagesEEG,001,202833,
AFNE01.JPG,AFNE01.JPG,AFNE01.JPG,AFNE01.JPG,AFNE01.JPG,AFNE01.JPG,,,,,,,,,,,,,0,8,8,6,,,,,,,,,,,AMNE12.jpg,AMSA14.jpg,AMNE13.jpg,AMSA17.jpg,AMSA14.jpg,MS,2,num_6,16,num_6,0.516816200688,,,2018_Feb_07_1626,60.0006735494,FEMA4ImagesEEG,001,202833,
AFNE01.JPG,AFNE01.JPG,AFNE01.JPG,AFNE01.JPG,AFNE01.JPG,AFNE01.JPG,,,,,,,,,,,,,0,9,9,7,,,,,,,,,,,AMNE05.jpg,AMSA10.jpg,AMNE03.jpg,AMSA11.jpg,AMSA11.jpg,MS,2,num_4,32,num_2,1.03343771258,,,2018_Feb_07_1626,60.0006735494,FEMA4ImagesEEG,001,202833,
AFNE01.JPG,AFNE01.JPG,AFNE01.JPG,AFNE01.JPG,AFNE01.JPG,AFNE01.JPG,,,,,,,,,,,,,1,0,10,2,,,,,,,,,,,AMSA08.jpg,AMSA02.jpg,AMNE07.jpg,AMNE19.jpg,AMSA02.jpg,MS,2,num_6,16,num_6,0.733158380724,,,2018_Feb_07_1626,60.0006735494,FEMA4ImagesEEG,001,202833,
AFNE01.JPG,AFNE01.JPG,AFNE01.JPG,AFNE01.JPG,AFNE01.JPG,AFNE01.JPG,,,,,,,,,,,,,1,1,11,3,,,,,,,,,,,AMSA13.jpg,AMNE07.jpg,AMNE04.jpg,AMSA05.jpg,AMSA13.jpg,MS,2,num_8,32,num_4,0.766824139049,,,2018_Feb_07_1626,60.0006735494,FEMA4ImagesEEG,001,202833,
AFNE01.JPG,AFNE01.JPG,AFNE01.JPG,AFNE01.JPG,AFNE01.JPG,AFNE01.JPG,,,,,,,,,,,,,1,2,12,4,,,,,,,,,,,AMNE19.jpg,AMSA07.jpg,AMNE18.jpg,AMSA01.jpg,AMNE19.jpg,MN,1,num_8,32,num_2,0.750133507652,,,2018_Feb_07_1626,60.0006735494,FEMA4ImagesEEG,001,202833,
AFNE01.JPG,AFNE01.JPG,AFNE01.JPG,AFNE01.JPG,AFNE01.JPG,AFNE01.JPG,,,,,,,,,,,,,1,3,13,7,,,,,,,,,,,AMNE07.jpg,AMNE20.jpg,AMSA10.jpg,AMSA02.jpg,AMNE20.jpg,MN,1,num_6,32,num_8,0.383538440801,,,2018_Feb_07_1626,60.0006735494,FEMA4ImagesEEG,001,202833,
AFNE01.JPG,AFNE01.JPG,AFNE01.JPG,AFNE01.JPG,AFNE01.JPG,AFNE01.JPG,,,,,,,,,,,,,1,4,14,5,,,,,,,,,,,AMSA09.jpg,AMNE16.jpg,AMNE01.jpg,AMSA01.jpg,AMNE16.jpg,MN,1,num_6,32,num_4,1.03331294493,,,2018_Feb_07_1626,60.0006735494,FEMA4ImagesEEG,001,202833,
AFNE01.JPG,AFNE01.JPG,AFNE01.JPG,AFNE01.JPG,AFNE01.JPG,AFNE01.JPG,,,,,,,,,,,,,1,5,15,9,,,,,,,,,,,AMNE10.jpg,AMSA20.jpg,AMNE01.jpg,AMSA01.jpg,AMNE10.jpg,MN,1,num_8,32,num_6,0.616809882224,,,2018_Feb_07_1626,60.0006735494,FEMA4ImagesEEG,001,202833,
AFNE01.JPG,AFNE01.JPG,AFNE01.JPG,AFNE01.JPG,AFNE01.JPG,AFNE01.JPG,,,,,,,,,,,,,1,6,16,6,,,,,,,,,,,AMNE10.jpg,AMSA13.jpg,AMNE08.jpg,AMSA14.jpg,AMSA13.jpg,MS,2,num_6,32,num_8,0.666796779959,,,2018_Feb_07_1626,60.0006735494,FEMA4ImagesEEG,001,202833,
AFNE01.JPG,AFNE01.JPG,AFNE01.JPG,AFNE01.JPG,AFNE01.JPG,AFNE01.JPG,,,,,,,,,,,,,1,7,17,0,,,,,,,,,,,AMNE03.jpg,AMNE15.jpg,AMSA11.jpg,AMSA04.jpg,AMNE03.jpg,MN,1,num_8,32,num_4,1.40001513902,,,2018_Feb_07_1626,60.0006735494,FEMA4ImagesEEG,001,202833,
AFNE01.JPG,AFNE01.JPG,AFNE01.JPG,AFNE01.JPG,AFNE01.JPG,AFNE01.JPG,,,,,,,,,,,,,1,8,18,1,,,,,,,,,,,AMNE06.jpg,AMSA13.jpg,AMSA19.jpg,AMNE20.jpg,AMSA13.jpg,MS,2,num_6,32,num_2,0.766880589072,,,2018_Feb_07_1626,60.0006735494,FEMA4ImagesEEG,001,202833,
AFNE01.JPG,AFNE01.JPG,AFNE01.JPG,AFNE01.JPG,AFNE01.JPG,AFNE01.JPG,,,,,,,,,,,,,1,9,19,8,,,,,,,,,,,AMNE06.jpg,AMSA16.jpg,AMSA07.jpg,AMNE01.jpg,AMSA16.jpg,MS,2,num_6,32,num_8,0.733466290403,,,2018_Feb_07_1626,60.0006735494,FEMA4ImagesEEG,001,202833,
AFNE01.JPG,AFNE01.JPG,AFNE01.JPG,AFNE01.JPG,AFNE01.JPG,AFNE01.JPG,,,,,,,,,,,,,2,0,20,8,,,,,,,,,,,AMSA09.jpg,AMNE08.jpg,AMSA11.jpg,AMNE19.jpg,AMSA11.jpg,MS,2,num_2,32,num_4,0.91679349239,,,2018_Feb_07_1626,60.0006735494,FEMA4ImagesEEG,001,202833,
AFNE01.JPG,AFNE01.JPG,AFNE01.JPG,AFNE01.JPG,AFNE01.JPG,AFNE01.JPG,,,,,,,,,,,,,2,1,21,0,,,,,,,,,,,AMSA15.jpg,AMNE11.jpg,AMSA18.jpg,AMNE13.jpg,AMNE13.jpg,MN,1,num_4,32,num_2,0.933419334237,,,2018_Feb_07_1626,60.0006735494,FEMA4ImagesEEG,001,202833,
AFNE01.JPG,AFNE01.JPG,AFNE01.JPG,AFNE01.JPG,AFNE01.JPG,AFNE01.JPG,,,,,,,,,,,,,2,2,22,6,,,,,,,,,,,AMSA02.jpg,AMNE16.jpg,AMNE12.jpg,AMSA03.jpg,AMNE12.jpg,MN,1,num_2,32,num_4,0.866769709392,,,2018_Feb_07_1626,60.0006735494,FEMA4ImagesEEG,001,202833,
AFNE01.JPG,AFNE01.JPG,AFNE01.JPG,AFNE01.JPG,AFNE01.JPG,AFNE01.JPG,,,,,,,,,,,,,2,3,23,1,,,,,,,,,,,AMSA11.jpg,AMNE02.jpg,AMNE01.jpg,AMSA17.jpg,AMNE01.jpg,MN,1,num_2,32,num_8,1.31681312155,,,2018_Feb_07_1626,60.0006735494,FEMA4ImagesEEG,001,202833,
AFNE01.JPG,AFNE01.JPG,AFNE01.JPG,AFNE01.JPG,AFNE01.JPG,AFNE01.JPG,,,,,,,,,,,,,2,4,24,2,,,,,,,,,,,AMNE02.jpg,AMNE12.jpg,AMSA18.jpg,AMSA09.jpg,AMSA09.jpg,MS,2,num_4,32,num_2,0.866843800293,,,2018_Feb_07_1626,60.0006735494,FEMA4ImagesEEG,001,202833,
AFNE01.JPG,AFNE01.JPG,AFNE01.JPG,AFNE01.JPG,AFNE01.JPG,AFNE01.JPG,,,,,,,,,,,,,2,5,25,9,,,,,,,,,,,AMNE01.jpg,AMNE20.jpg,AMSA16.jpg,AMSA10.jpg,AMSA16.jpg,MS,2,num_2,32,num_4,0.550163464621,,,2018_Feb_07_1626,60.0006735494,FEMA4ImagesEEG,001,202833,
AFNE01.JPG,AFNE01.JPG,AFNE01.JPG,AFNE01.JPG,AFNE01.JPG,AFNE01.JPG,,,,,,,,,,,,,2,6,26,3,,,,,,,,,,,AMNE02.jpg,AMSA16.jpg,AMNE17.jpg,AMSA10.jpg,AMNE02.jpg,MN,1,num_8,32,num_2,1.26661934704,,,2018_Feb_07_1626,60.0006735494,FEMA4ImagesEEG,001,202833,
AFNE01.JPG,AFNE01.JPG,AFNE01.JPG,AFNE01.JPG,AFNE01.JPG,AFNE01.JPG,,,,,,,,,,,,,2,7,27,7,,,,,,,,,,,AMNE07.jpg,AMSA14.jpg,AMNE10.jpg,AMSA20.jpg,AMSA14.jpg,MS,2,num_6,32,num_4,1.00014818157,,,2018_Feb_07_1626,60.0006735494,FEMA4ImagesEEG,001,202833,
AFNE01.JPG,AFNE01.JPG,AFNE01.JPG,AFNE01.JPG,AFNE01.JPG,AFNE01.JPG,,,,,,,,,,,,,2,8,28,4,,,,,,,,,,,AMSA20.jpg,AMSA07.jpg,AMNE16.jpg,AMNE05.jpg,AMNE16.jpg,MN,1,num_2,32,num_8,0.733512156177,,,2018_Feb_07_1626,60.0006735494,FEMA4ImagesEEG,001,202833,
AFNE01.JPG,AFNE01.JPG,AFNE01.JPG,AFNE01.JPG,AFNE01.JPG,AFNE01.JPG,,,,,,,,,,,,,2,9,29,5,,,,,,,,,,,AMNE01.jpg,AMNE12.jpg,AMSA12.jpg,AMSA14.jpg,AMNE12.jpg,MN,1,num_6,32,num_8,1.65009011165,,,2018_Feb_07_1626,60.0006735494,FEMA4ImagesEEG,001,202833,
AFNE01.JPG,AFNE01.JPG,AFNE01.JPG,AFNE01.JPG,AFNE01.JPG,AFNE01.JPG,,,,,,,,,,,,,3,0,30,6,,,,,,,,,,,AMSA10.jpg,AMSA08.jpg,AMNE19.jpg,AMNE09.jpg,AMSA08.jpg,MS,2,num_6,32,num_2,0.833494290942,,,2018_Feb_07_1626,60.0006735494,FEMA4ImagesEEG,001,202833,
AFNE01.JPG,AFNE01.JPG,AFNE01.JPG,AFNE01.JPG,AFNE01.JPG,AFNE01.JPG,,,,,,,,,,,,,3,1,31,5,,,,,,,,,,,AMSA12.jpg,AMNE07.jpg,AMNE08.jpg,AMSA10.jpg,AMNE07.jpg,MN,1,num_6,32,num_2,1.11678277957,,,2018_Feb_07_1626,60.0006735494,FEMA4ImagesEEG,001,202833,
AFNE01.JPG,AFNE01.JPG,AFNE01.JPG,AFNE01.JPG,AFNE01.JPG,AFNE01.JPG,,,,,,,,,,,,,3,2,32,9,,,,,,,,,,,AMNE05.jpg,AMNE14.jpg,AMSA02.jpg,AMSA15.jpg,AMNE05.jpg,MN,1,num_8,16,num_8,1.11672665039,,,2018_Feb_07_1626,60.0006735494,FEMA4ImagesEEG,001,202833,
AFNE01.JPG,AFNE01.JPG,AFNE01.JPG,AFNE01.JPG,AFNE01.JPG,AFNE01.JPG,,,,,,,,,,,,,3,3,33,0,,,,,,,,,,,AMSA03.jpg,AMNE08.jpg,AMSA11.jpg,AMNE12.jpg,AMNE12.jpg,MN,1,num_4,16,num_4,0.716779187322,,,2018_Feb_07_1626,60.0006735494,FEMA4ImagesEEG,001,202833,
AFNE01.JPG,AFNE01.JPG,AFNE01.JPG,AFNE01.JPG,AFNE01.JPG,AFNE01.JPG,,,,,,,,,,,,,3,4,34,2,,,,,,,,,,,AMSA19.jpg,AMNE10.jpg,AMSA02.jpg,AMNE09.jpg,AMSA02.jpg,MS,2,num_2,32,num_6,1.10014122166,,,2018_Feb_07_1626,60.0006735494,FEMA4ImagesEEG,001,202833,
AFNE01.JPG,AFNE01.JPG,AFNE01.JPG,AFNE01.JPG,AFNE01.JPG,AFNE01.JPG,,,,,,,,,,,,,3,5,35,7,,,,,,,,,,,AMSA13.jpg,AMNE18.jpg,AMNE03.jpg,AMSA10.jpg,AMNE03.jpg,MN,1,num_2,16,num_2,1.21704941033,,,2018_Feb_07_1626,60.0006735494,FEMA4ImagesEEG,001,202833,
AFNE01.JPG,AFNE01.JPG,AFNE01.JPG,AFNE01.JPG,AFNE01.JPG,AFNE01.JPG,,,,,,,,,,,,,3,6,36,4,,,,,,,,,,,AMSA05.jpg,AMNE04.jpg,AMNE07.jpg,AMSA08.jpg,AMNE04.jpg,MN,1,num_6,32,num_4,0.649994210806,,,2018_Feb_07_1626,60.0006735494,FEMA4ImagesEEG,001,202833,
AFNE01.JPG,AFNE01.JPG,AFNE01.JPG,AFNE01.JPG,AFNE01.JPG,AFNE01.JPG,,,,,,,,,,,,,3,7,37,8,,,,,,,,,,,AMSA20.jpg,AMNE12.jpg,AMNE06.jpg,AMSA18.jpg,AMSA20.jpg,MS,2,num_8,32,num_4,0.683312929003,,,2018_Feb_07_1626,60.0006735494,FEMA4ImagesEEG,001,202833,
AFNE01.JPG,AFNE01.JPG,AFNE01.JPG,AFNE01.JPG,AFNE01.JPG,AFNE01.JPG,,,,,,,,,,,,,3,8,38,3,,,,,,,,,,,AMNE06.jpg,AMSA18.jpg,AMNE08.jpg,AMSA05.jpg,AMNE08.jpg,MN,1,num_2,16,num_2,1.03343963693,,,2018_Feb_07_1626,60.0006735494,FEMA4ImagesEEG,001,202833,
AFNE01.JPG,AFNE01.JPG,AFNE01.JPG,AFNE01.JPG,AFNE01.JPG,AFNE01.JPG,,,,,,,,,,,,,3,9,39,1,,,,,,,,,,,AMNE15.jpg,AMSA14.jpg,AMSA03.jpg,AMNE04.jpg,AMSA14.jpg,MS,2,num_6,16,num_6,0.716813506326,,,2018_Feb_07_1626,60.0006735494,FEMA4ImagesEEG,001,202833,
AFNE01.JPG,AFNE01.JPG,AFNE01.JPG,AFNE01.JPG,AFNE01.JPG,AFNE01.JPG,,,,,,,,,,,,,4,0,40,3,,,,,,,,,,,AMSA01.jpg,AMSA05.jpg,AMNE14.jpg,AMNE20.jpg,AMSA01.jpg,MS,2,num_8,16,num_8,1.80007967167,,,2018_Feb_07_1626,60.0006735494,FEMA4ImagesEEG,001,202833,
AFNE01.JPG,AFNE01.JPG,AFNE01.JPG,AFNE01.JPG,AFNE01.JPG,AFNE01.JPG,,,,,,,,,,,,,4,1,41,8,,,,,,,,,,,AMSA16.jpg,AMNE04.jpg,AMSA13.jpg,AMNE08.jpg,AMNE08.jpg,MN,1,num_4,16,num_4,3.03331390722,,,2018_Feb_07_1626,60.0006735494,FEMA4ImagesEEG,001,202833,
AFNE01.JPG,AFNE01.JPG,AFNE01.JPG,AFNE01.JPG,AFNE01.JPG,AFNE01.JPG,,,,,,,,,,,,,4,2,42,5,,,,,,,,,,,AMSA01.jpg,AMNE13.jpg,AMNE11.jpg,AMSA08.jpg,AMSA08.jpg,MS,2,num_4,32,num_2,0.883470925037,,,2018_Feb_07_1626,60.0006735494,FEMA4ImagesEEG,001,202833,
AFNE01.JPG,AFNE01.JPG,AFNE01.JPG,AFNE01.JPG,AFNE01.JPG,AFNE01.JPG,,,,,,,,,,,,,4,3,43,2,,,,,,,,,,,AMSA08.jpg,AMSA02.jpg,AMNE07.jpg,AMNE01.jpg,AMNE01.jpg,MN,1,num_4,16,num_4,0.466817435343,,,2018_Feb_07_1626,60.0006735494,FEMA4ImagesEEG,001,202833,
AFNE01.JPG,AFNE01.JPG,AFNE01.JPG,AFNE01.JPG,AFNE01.JPG,AFNE01.JPG,,,,,,,,,,,,,4,4,44,6,,,,,,,,,,,AMSA13.jpg,AMNE10.jpg,AMSA15.jpg,AMNE18.jpg,AMNE18.jpg,MN,1,num_4,32,num_6,0.716826336225,,,2018_Feb_07_1626,60.0006735494,FEMA4ImagesEEG,001,202833,
AFNE01.JPG,AFNE01.JPG,AFNE01.JPG,AFNE01.JPG,AFNE01.JPG,AFNE01.JPG,,,,,,,,,,,,,4,5,45,0,,,,,,,,,,,AMNE16.jpg,AMSA05.jpg,AMSA19.jpg,AMNE14.jpg,AMNE16.jpg,MN,1,num_8,32,num_2,0.950108361896,,,2018_Feb_07_1626,60.0006735494,FEMA4ImagesEEG,001,202833,
AFNE01.JPG,AFNE01.JPG,AFNE01.JPG,AFNE01.JPG,AFNE01.JPG,AFNE01.JPG,,,,,,,,,,,,,4,6,46,1,,,,,,,,,,,AMSA12.jpg,AMNE17.jpg,AMSA18.jpg,AMNE18.jpg,AMSA18.jpg,MS,2,num_2,32,num_8,1.63340044254,,,2018_Feb_07_1626,60.0006735494,FEMA4ImagesEEG,001,202833,
AFNE01.JPG,AFNE01.JPG,AFNE01.JPG,AFNE01.JPG,AFNE01.JPG,AFNE01.JPG,,,,,,,,,,,,,4,7,47,7,,,,,,,,,,,AMSA02.jpg,AMNE04.jpg,AMSA18.jpg,AMNE19.jpg,AMNE19.jpg,MN,1,num_4,16,num_4,0.733473025961,,,2018_Feb_07_1626,60.0006735494,FEMA4ImagesEEG,001,202833,
AFNE01.JPG,AFNE01.JPG,AFNE01.JPG,AFNE01.JPG,AFNE01.JPG,AFNE01.JPG,,,,,,,,,,,,,4,8,48,9,,,,,,,,,,,AMSA10.jpg,AMNE12.jpg,AMNE01.jpg,AMSA16.jpg,AMSA16.jpg,MS,2,num_4,32,num_8,0.700142119545,,,2018_Feb_07_1626,60.0006735494,FEMA4ImagesEEG,001,202833,
AFNE01.JPG,AFNE01.JPG,AFNE01.JPG,AFNE01.JPG,AFNE01.JPG,AFNE01.JPG,,,,,,,,,,,,,4,9,49,4,,,,,,,,,,,AMNE11.jpg,AMSA12.jpg,AMSA18.jpg,AMNE19.jpg,AMNE19.jpg,MN,1,num_4,32,num_2,1.35015076352,,,2018_Feb_07_1626,60.0006735494,FEMA4ImagesEEG,001,202833,
AFNE01.JPG,AFNE01.JPG,AFNE01.JPG,AFNE01.JPG,AFNE01.JPG,AFNE01.JPG,,,,,,,,,,,,,5,0,50,7,,,,,,,,,,,AMNE14.jpg,AMSA19.jpg,AMSA15.jpg,AMNE02.jpg,AMSA19.jpg,MS,2,num_6,16,num_6,0.666790044401,,,2018_Feb_07_1626,60.0006735494,FEMA4ImagesEEG,001,202833,
AFNE01.JPG,AFNE01.JPG,AFNE01.JPG,AFNE01.JPG,AFNE01.JPG,AFNE01.JPG,,,,,,,,,,,,,5,1,51,6,,,,,,,,,,,AMNE08.jpg,AMSA18.jpg,AMSA05.jpg,AMNE07.jpg,AMSA05.jpg,MS,2,num_2,32,num_4,0.500205433462,,,2018_Feb_07_1626,60.0006735494,FEMA4ImagesEEG,001,202833,
AFNE01.JPG,AFNE01.JPG,AFNE01.JPG,AFNE01.JPG,AFNE01.JPG,AFNE01.JPG,,,,,,,,,,,,,5,2,52,8,,,,,,,,,,,AMNE09.jpg,AMNE07.jpg,AMSA11.jpg,AMSA15.jpg,AMNE09.jpg,MN,1,num_8,32,num_2,0.566794759128,,,2018_Feb_07_1626,60.0006735494,FEMA4ImagesEEG,001,202833,
AFNE01.JPG,AFNE01.JPG,AFNE01.JPG,AFNE01.JPG,AFNE01.JPG,AFNE01.JPG,,,,,,,,,,,,,5,3,53,3,,,,,,,,,,,AMSA20.jpg,AMNE18.jpg,AMSA15.jpg,AMNE13.jpg,AMNE18.jpg,MN,1,num_6,32,num_8,0.500169831328,,,2018_Feb_07_1626,60.0006735494,FEMA4ImagesEEG,001,202833,
AFNE01.JPG,AFNE01.JPG,AFNE01.JPG,AFNE01.JPG,AFNE01.JPG,AFNE01.JPG,,,,,,,,,,,,,5,4,54,2,,,,,,,,,,,AMNE11.jpg,AMSA14.jpg,AMNE20.jpg,AMSA19.jpg,AMSA19.jpg,MS,2,num_4,16,num_4,1.58342380845,,,2018_Feb_07_1626,60.0006735494,FEMA4ImagesEEG,001,202833,
AFNE01.JPG,AFNE01.JPG,AFNE01.JPG,AFNE01.JPG,AFNE01.JPG,AFNE01.JPG,,,,,,,,,,,,,5,5,55,4,,,,,,,,,,,AMSA06.jpg,AMNE07.jpg,AMSA14.jpg,AMNE10.jpg,AMNE07.jpg,MN,1,num_6,32,num_8,0.816839261679,,,2018_Feb_07_1626,60.0006735494,FEMA4ImagesEEG,001,202833,
AFNE01.JPG,AFNE01.JPG,AFNE01.JPG,AFNE01.JPG,AFNE01.JPG,AFNE01.JPG,,,,,,,,,,,,,5,6,56,9,,,,,,,,,,,AMNE19.jpg,AMNE13.jpg,AMSA08.jpg,AMSA13.jpg,AMSA13.jpg,MS,2,num_4,32,num_6,0.450186461676,,,2018_Feb_07_1626,60.0006735494,FEMA4ImagesEEG,001,202833,
AFNE01.JPG,AFNE01.JPG,AFNE01.JPG,AFNE01.JPG,AFNE01.JPG,AFNE01.JPG,,,,,,,,,,,,,5,7,57,0,,,,,,,,,,,AMNE04.jpg,AMNE18.jpg,AMSA07.jpg,AMSA10.jpg,AMSA10.jpg,MS,2,num_4,16,num_4,0.766738822218,,,2018_Feb_07_1626,60.0006735494,FEMA4ImagesEEG,001,202833,
AFNE01.JPG,AFNE01.JPG,AFNE01.JPG,AFNE01.JPG,AFNE01.JPG,AFNE01.JPG,,,,,,,,,,,,,5,8,58,5,,,,,,,,,,,AMSA17.jpg,AMNE18.jpg,AMNE14.jpg,AMSA01.jpg,AMSA01.jpg,MS,2,num_4,32,num_8,0.700141798938,,,2018_Feb_07_1626,60.0006735494,FEMA4ImagesEEG,001,202833,
AFNE01.JPG,AFNE01.JPG,AFNE01.JPG,AFNE01.JPG,AFNE01.JPG,AFNE01.JPG,,,,,,,,,,,,,5,9,59,1,,,,,,,,,,,AMNE13.jpg,AMSA20.jpg,AMSA06.jpg,AMNE12.jpg,AMSA20.jpg,MS,2,num_6,16,num_6,1.15015762718,,,2018_Feb_07_1626,60.0006735494,FEMA4ImagesEEG,001,202833,
,,,,,,,,,,,,,,,,,,,,,,,,,,,,,,,,,,,,,,,,,,,space,2.79991384945,2018_Feb_07_1626,60.0006735494,FEMA4ImagesEEG,001,202833,
AFNE01.JPG,AFNE01.JPG,AFNE01.JPG,AFNE01.JPG,AFNE01.JPG,AFNE01.JPG,,,,,,,,,,,,,,,,,0,0,0,5,,,,,,,AFNE12.jpg,AFSA05.jpg,AFSA16.jpg,AFNE08.jpg,AFSA16.jpg,FS,4,num_2,16,num_2,1.53337147972,,,2018_Feb_07_1626,60.0006735494,FEMA4ImagesEEG,001,202833,
AFNE01.JPG,AFNE01.JPG,AFNE01.JPG,AFNE01.JPG,AFNE01.JPG,AFNE01.JPG,,,,,,,,,,,,,,,,,0,1,1,8,,,,,,,AFNE15.jpg,AFSA16.jpg,AFSA12.jpg,AFNE01.jpg,AFNE01.jpg,FN,3,num_4,16,num_4,0.616772676352,,,2018_Feb_07_1626,60.0006735494,FEMA4ImagesEEG,001,202833,
AFNE01.JPG,AFNE01.JPG,AFNE01.JPG,AFNE01.JPG,AFNE01.JPG,AFNE01.JPG,,,,,,,,,,,,,,,,,0,2,2,3,,,,,,,AFSA15.jpg,AFSA14.jpg,AFNE12.jpg,AFNE15.jpg,AFNE15.jpg,FN,3,num_4,32,num_6,0.9334334468,,,2018_Feb_07_1626,60.0006735494,FEMA4ImagesEEG,001,202833,
AFNE01.JPG,AFNE01.JPG,AFNE01.JPG,AFNE01.JPG,AFNE01.JPG,AFNE01.JPG,,,,,,,,,,,,,,,,,0,3,3,9,,,,,,,AFSA05.jpg,AFNE14.jpg,AFNE19.jpg,AFSA13.jpg,AFNE19.jpg,FN,3,num_2,32,num_4,0.500180415809,,,2018_Feb_07_1626,60.0006735494,FEMA4ImagesEEG,001,202833,
AFNE01.JPG,AFNE01.JPG,AFNE01.JPG,AFNE01.JPG,AFNE01.JPG,AFNE01.JPG,,,,,,,,,,,,,,,,,0,4,4,7,,,,,,,AFSA20.jpg,AFNE02.jpg,AFSA19.jpg,AFNE16.jpg,AFSA20.jpg,FS,4,num_8,32,num_2,0.683440583292,,,2018_Feb_07_1626,60.0006735494,FEMA4ImagesEEG,001,202833,
AFNE01.JPG,AFNE01.JPG,AFNE01.JPG,AFNE01.JPG,AFNE01.JPG,AFNE01.JPG,,,,,,,,,,,,,,,,,0,5,5,6,,,,,,,AFSA07.jpg,AFNE17.jpg,AFNE08.jpg,AFSA13.jpg,AFSA07.jpg,FS,4,num_8,32,num_6,0.916638254421,,,2018_Feb_07_1626,60.0006735494,FEMA4ImagesEEG,001,202833,
AFNE01.JPG,AFNE01.JPG,AFNE01.JPG,AFNE01.JPG,AFNE01.JPG,AFNE01.JPG,,,,,,,,,,,,,,,,,0,6,6,4,,,,,,,AFSA02.jpg,AFNE11.jpg,AFSA16.jpg,AFNE12.jpg,AFSA16.jpg,FS,4,num_2,32,num_4,1.03344573104,,,2018_Feb_07_1626,60.0006735494,FEMA4ImagesEEG,001,202833,
AFNE01.JPG,AFNE01.JPG,AFNE01.JPG,AFNE01.JPG,AFNE01.JPG,AFNE01.JPG,,,,,,,,,,,,,,,,,0,7,7,2,,,,,,,AFNE19.jpg,AFSA18.jpg,AFSA08.jpg,AFNE13.jpg,AFNE19.jpg,FN,3,num_8,16,num_8,0.550187520217,,,2018_Feb_07_1626,60.0006735494,FEMA4ImagesEEG,001,202833,
AFNE01.JPG,AFNE01.JPG,AFNE01.JPG,AFNE01.JPG,AFNE01.JPG,AFNE01.JPG,,,,,,,,,,,,,,,,,0,8,8,0,,,,,,,AFSA15.jpg,AFSA20.jpg,AFNE19.jpg,AFNE05.jpg,AFNE19.jpg,FN,3,num_2,16,num_2,0.750180977164,,,2018_Feb_07_1626,60.0006735494,FEMA4ImagesEEG,001,202833,
AFNE01.JPG,AFNE01.JPG,AFNE01.JPG,AFNE01.JPG,AFNE01.JPG,AFNE01.JPG,,,,,,,,,,,,,,,,,0,9,9,1,,,,,,,AFNE12.jpg,AFSA13.jpg,AFSA05.jpg,AFNE08.jpg,AFNE12.jpg,FN,3,num_8,16,num_8,0.666848419001,,,2018_Feb_07_1626,60.0006735494,FEMA4ImagesEEG,001,202833,
AFNE01.JPG,AFNE01.JPG,AFNE01.JPG,AFNE01.JPG,AFNE01.JPG,AFNE01.JPG,,,,,,,,,,,,,,,,,1,0,10,5,,,,,,,AFNE08.jpg,AFNE12.jpg,AFSA12.jpg,AFSA04.jpg,AFNE08.jpg,FN,3,num_8,32,num_2,1.00013214466,,,2018_Feb_07_1626,60.0006735494,FEMA4ImagesEEG,001,202833,
AFNE01.JPG,AFNE01.JPG,AFNE01.JPG,AFNE01.JPG,AFNE01.JPG,AFNE01.JPG,,,,,,,,,,,,,,,,,1,1,11,8,,,,,,,AFSA04.jpg,AFNE09.jpg,AFNE05.jpg,AFSA09.jpg,AFSA09.jpg,FS,4,num_4,16,num_4,0.716781432508,,,2018_Feb_07_1626,60.0006735494,FEMA4ImagesEEG,001,202833,
AFNE01.JPG,AFNE01.JPG,AFNE01.JPG,AFNE01.JPG,AFNE01.JPG,AFNE01.JPG,,,,,,,,,,,,,,,,,1,2,12,7,,,,,,,AFSA08.jpg,AFNE05.jpg,AFNE19.jpg,AFSA15.jpg,AFSA15.jpg,FS,4,num_4,16,num_4,0.750163336517,,,2018_Feb_07_1626,60.0006735494,FEMA4ImagesEEG,001,202833,
AFNE01.JPG,AFNE01.JPG,AFNE01.JPG,AFNE01.JPG,AFNE01.JPG,AFNE01.JPG,,,,,,,,,,,,,,,,,1,3,13,3,,,,,,,AFNE03.jpg,AFSA12.jpg,AFNE14.jpg,AFSA17.jpg,AFNE14.jpg,FN,3,num_2,32,num_8,0.866815254558,,,2018_Feb_07_1626,60.0006735494,FEMA4ImagesEEG,001,202833,
AFNE01.JPG,AFNE01.JPG,AFNE01.JPG,AFNE01.JPG,AFNE01.JPG,AFNE01.JPG,,,,,,,,,,,,,,,,,1,4,14,1,,,,,,,AFSA10.jpg,AFNE04.jpg,AFNE08.jpg,AFSA14.jpg,AFSA10.jpg,FS,4,num_8,16,num_8,1.01677530631,,,2018_Feb_07_1626,60.0006735494,FEMA4ImagesEEG,001,202833,
AFNE01.JPG,AFNE01.JPG,AFNE01.JPG,AFNE01.JPG,AFNE01.JPG,AFNE01.JPG,,,,,,,,,,,,,,,,,1,5,15,4,,,,,,,AFSA07.jpg,AFSA14.jpg,AFNE04.jpg,AFNE17.jpg,AFSA14.jpg,FS,4,num_6,16,num_6,0.483506783843,,,2018_Feb_07_1626,60.0006735494,FEMA4ImagesEEG,001,202833,
AFNE01.JPG,AFNE01.JPG,AFNE01.JPG,AFNE01.JPG,AFNE01.JPG,AFNE01.JPG,,,,,,,,,,,,,,,,,1,6,16,0,,,,,,,AFSA06.jpg,AFSA12.jpg,AFNE12.jpg,AFNE08.jpg,AFNE12.jpg,FN,3,num_2,32,num_4,0.533490474103,,,2018_Feb_07_1626,60.0006735494,FEMA4ImagesEEG,001,202833,
AFNE01.JPG,AFNE01.JPG,AFNE01.JPG,AFNE01.JPG,AFNE01.JPG,AFNE01.JPG,,,,,,,,,,,,,,,,,1,7,17,2,,,,,,,AFNE05.jpg,AFNE04.jpg,AFSA09.jpg,AFSA14.jpg,AFSA14.jpg,FS,4,num_4,32,num_8,0.583177480614,,,2018_Feb_07_1626,60.0006735494,FEMA4ImagesEEG,001,202833,
AFNE01.JPG,AFNE01.JPG,AFNE01.JPG,AFNE01.JPG,AFNE01.JPG,AFNE01.JPG,,,,,,,,,,,,,,,,,1,8,18,6,,,,,,,AFSA19.jpg,AFNE09.jpg,AFNE03.jpg,AFSA07.jpg,AFSA19.jpg,FS,4,num_8,32,num_2,0.700143723283,,,2018_Feb_07_1626,60.0006735494,FEMA4ImagesEEG,001,202833,
AFNE01.JPG,AFNE01.JPG,AFNE01.JPG,AFNE01.JPG,AFNE01.JPG,AFNE01.JPG,,,,,,,,,,,,,,,,,1,9,19,9,,,,,,,AFNE05.jpg,AFSA18.jpg,AFSA12.jpg,AFNE13.jpg,AFNE13.jpg,FN,3,num_4,32,num_6,0.73349932651,,,2018_Feb_07_1626,60.0006735494,FEMA4ImagesEEG,001,202833,
AFNE01.JPG,AFNE01.JPG,AFNE01.JPG,AFNE01.JPG,AFNE01.JPG,AFNE01.JPG,,,,,,,,,,,,,,,,,2,0,20,0,,,,,,,AFNE10.jpg,AFSA16.jpg,AFSA15.jpg,AFNE12.jpg,AFSA15.jpg,FS,4,num_2,16,num_2,1.03345342865,,,2018_Feb_07_1626,60.0006735494,FEMA4ImagesEEG,001,202833,
AFNE01.JPG,AFNE01.JPG,AFNE01.JPG,AFNE01.JPG,AFNE01.JPG,AFNE01.JPG,,,,,,,,,,,,,,,,,2,1,21,9,,,,,,,AFSA14.jpg,AFNE15.jpg,AFNE13.jpg,AFSA09.jpg,AFSA14.jpg,FS,4,num_8,16,num_8,0.733449291205,,,2018_Feb_07_1626,60.0006735494,FEMA4ImagesEEG,001,202833,
AFNE01.JPG,AFNE01.JPG,AFNE01.JPG,AFNE01.JPG,AFNE01.JPG,AFNE01.JPG,,,,,,,,,,,,,,,,,2,2,22,1,,,,,,,AFNE04.jpg,AFSA16.jpg,AFNE01.jpg,AFSA10.jpg,AFNE04.jpg,FN,3,num_8,32,num_4,1.65010518651,,,2018_Feb_07_1626,60.0006735494,FEMA4ImagesEEG,001,202833,
AFNE01.JPG,AFNE01.JPG,AFNE01.JPG,AFNE01.JPG,AFNE01.JPG,AFNE01.JPG,,,,,,,,,,,,,,,,,2,3,23,7,,,,,,,AFSA07.jpg,AFSA19.jpg,AFNE13.jpg,AFNE03.jpg,AFNE03.jpg,FN,3,num_4,32,num_6,0.833478574641,,,2018_Feb_07_1626,60.0006735494,FEMA4ImagesEEG,001,202833,
AFNE01.JPG,AFNE01.JPG,AFNE01.JPG,AFNE01.JPG,AFNE01.JPG,AFNE01.JPG,,,,,,,,,,,,,,,,,2,4,24,2,,,,,,,AFSA08.jpg,AFNE20.jpg,AFNE08.jpg,AFSA14.jpg,AFSA14.jpg,FS,4,num_4,32,num_8,0.650170617271,,,2018_Feb_07_1626,60.0006735494,FEMA4ImagesEEG,001,202833,
AFNE01.JPG,AFNE01.JPG,AFNE01.JPG,AFNE01.JPG,AFNE01.JPG,AFNE01.JPG,,,,,,,,,,,,,,,,,2,5,25,5,,,,,,,AFNE17.jpg,AFNE04.jpg,AFSA02.jpg,AFSA18.jpg,AFNE17.jpg,FN,3,num_8,32,num_2,1.11675102636,,,2018_Feb_07_1626,60.0006735494,FEMA4ImagesEEG,001,202833,
AFNE01.JPG,AFNE01.JPG,AFNE01.JPG,AFNE01.JPG,AFNE01.JPG,AFNE01.JPG,,,,,,,,,,,,,,,,,2,6,26,6,,,,,,,AFSA10.jpg,AFNE04.jpg,AFNE17.jpg,AFSA19.jpg,AFNE17.jpg,FN,3,num_2,16,num_2,0.950100343442,,,2018_Feb_07_1626,60.0006735494,FEMA4ImagesEEG,001,202833,
AFNE01.JPG,AFNE01.JPG,AFNE01.JPG,AFNE01.JPG,AFNE01.JPG,AFNE01.JPG,,,,,,,,,,,,,,,,,2,7,27,4,,,,,,,AFNE20.jpg,AFNE06.jpg,AFSA03.jpg,AFSA05.jpg,AFNE06.jpg,FN,3,num_6,16,num_6,1.29996147915,,,2018_Feb_07_1626,60.0006735494,FEMA4ImagesEEG,001,202833,
AFNE01.JPG,AFNE01.JPG,AFNE01.JPG,AFNE01.JPG,AFNE01.JPG,AFNE01.JPG,,,,,,,,,,,,,,,,,2,8,28,8,,,,,,,AFNE16.jpg,AFNE10.jpg,AFSA09.jpg,AFSA15.jpg,AFNE10.jpg,FN,3,num_6,16,num_6,1.88314248831,,,2018_Feb_07_1626,60.0006735494,FEMA4ImagesEEG,001,202833,
AFNE01.JPG,AFNE01.JPG,AFNE01.JPG,AFNE01.JPG,AFNE01.JPG,AFNE01.JPG,,,,,,,,,,,,,,,,,2,9,29,3,,,,,,,AFSA08.jpg,AFNE07.jpg,AFSA17.jpg,AFNE11.jpg,AFSA17.jpg,FS,4,num_2,32,num_4,0.750151469139,,,2018_Feb_07_1626,60.0006735494,FEMA4ImagesEEG,001,202833,
AFNE01.JPG,AFNE01.JPG,AFNE01.JPG,AFNE01.JPG,AFNE01.JPG,AFNE01.JPG,,,,,,,,,,,,,,,,,3,0,30,5,,,,,,,AFSA20.jpg,AFSA05.jpg,AFNE03.jpg,AFNE15.jpg,AFSA05.jpg,FS,4,num_6,32,num_2,2.16667473852,,,2018_Feb_07_1626,60.0006735494,FEMA4ImagesEEG,001,202833,
AFNE01.JPG,AFNE01.JPG,AFNE01.JPG,AFNE01.JPG,AFNE01.JPG,AFNE01.JPG,,,,,,,,,,,,,,,,,3,1,31,8,,,,,,,AFNE14.jpg,AFSA18.jpg,AFNE12.jpg,AFSA06.jpg,AFSA18.jpg,FS,4,num_6,32,num_4,0.816771265119,,,2018_Feb_07_1626,60.0006735494,FEMA4ImagesEEG,001,202833,
AFNE01.JPG,AFNE01.JPG,AFNE01.JPG,AFNE01.JPG,AFNE01.JPG,AFNE01.JPG,,,,,,,,,,,,,,,,,3,2,32,2,,,,,,,AFNE04.jpg,AFSA03.jpg,AFNE11.jpg,AFSA19.jpg,AFNE11.jpg,FN,3,num_2,32,num_8,0.600155173801,,,2018_Feb_07_1626,60.0006735494,FEMA4ImagesEEG,001,202833,
AFNE01.JPG,AFNE01.JPG,AFNE01.JPG,AFNE01.JPG,AFNE01.JPG,AFNE01.JPG,,,,,,,,,,,,,,,,,3,3,33,9,,,,,,,AFSA12.jpg,AFNE12.jpg,AFNE08.jpg,AFSA16.jpg,AFNE08.jpg,FN,3,num_2,32,num_6,0.533497209661,,,2018_Feb_07_1626,60.0006735494,FEMA4ImagesEEG,001,202833,
AFNE01.JPG,AFNE01.JPG,AFNE01.JPG,AFNE01.JPG,AFNE01.JPG,AFNE01.JPG,,,,,,,,,,,,,,,,,3,4,34,7,,,,,,,AFNE07.jpg,AFSA12.jpg,AFSA14.jpg,AFNE08.jpg,AFSA14.jpg,FS,4,num_2,16,num_2,0.816775755491,,,2018_Feb_07_1626,60.0006735494,FEMA4ImagesEEG,001,202833,
AFNE01.JPG,AFNE01.JPG,AFNE01.JPG,AFNE01.JPG,AFNE01.JPG,AFNE01.JPG,,,,,,,,,,,,,,,,,3,5,35,4,,,,,,,AFSA09.jpg,AFNE07.jpg,AFSA13.jpg,AFNE17.jpg,AFNE07.jpg,FN,3,num_6,32,num_4,1.51677867421,,,2018_Feb_07_1626,60.0006735494,FEMA4ImagesEEG,001,202833,
AFNE01.JPG,AFNE01.JPG,AFNE01.JPG,AFNE01.JPG,AFNE01.JPG,AFNE01.JPG,,,,,,,,,,,,,,,,,3,6,36,3,,,,,,,AFSA18.jpg,AFSA12.jpg,AFNE07.jpg,AFNE17.jpg,AFSA12.jpg,FS,4,num_6,16,num_6,0.750169430394,,,2018_Feb_07_1626,60.0006735494,FEMA4ImagesEEG,001,202833,
AFNE01.JPG,AFNE01.JPG,AFNE01.JPG,AFNE01.JPG,AFNE01.JPG,AFNE01.JPG,,,,,,,,,,,,,,,,,3,7,37,6,,,,,,,AFNE12.jpg,AFSA18.jpg,AFNE08.jpg,AFSA19.jpg,AFSA18.jpg,FS,4,num_6,32,num_8,0.716661155457,,,2018_Feb_07_1626,60.0006735494,FEMA4ImagesEEG,001,202833,
AFNE01.JPG,AFNE01.JPG,AFNE01.JPG,AFNE01.JPG,AFNE01.JPG,AFNE01.JPG,,,,,,,,,,,,,,,,,3,8,38,0,,,,,,,AFNE15.jpg,AFSA05.jpg,AFNE14.jpg,AFSA06.jpg,AFNE14.jpg,FN,3,num_2,32,num_4,0.666669125669,,,2018_Feb_07_1626,60.0006735494,FEMA4ImagesEEG,001,202833,
AFNE01.JPG,AFNE01.JPG,AFNE01.JPG,AFNE01.JPG,AFNE01.JPG,AFNE01.JPG,,,,,,,,,,,,,,,,,3,9,39,1,,,,,,,AFNE13.jpg,AFSA11.jpg,AFSA04.jpg,AFNE07.jpg,AFNE07.jpg,FN,3,num_4,32,num_8,0.716808374738,,,2018_Feb_07_1626,60.0006735494,FEMA4ImagesEEG,001,202833,
AFNE01.JPG,AFNE01.JPG,AFNE01.JPG,AFNE01.JPG,AFNE01.JPG,AFNE01.JPG,,,,,,,,,,,,,,,,,4,0,40,1,,,,,,,AFSA11.jpg,AFNE09.jpg,AFSA14.jpg,AFNE20.jpg,AFSA14.jpg,FS,4,num_2,16,num_2,0.666858682409,,,2018_Feb_07_1626,60.0006735494,FEMA4ImagesEEG,001,202833,
AFNE01.JPG,AFNE01.JPG,AFNE01.JPG,AFNE01.JPG,AFNE01.JPG,AFNE01.JPG,,,,,,,,,,,,,,,,,4,1,41,7,,,,,,,AFNE17.jpg,AFSA20.jpg,AFSA11.jpg,AFNE10.jpg,AFSA11.jpg,FS,4,num_2,32,num_8,0.683496391866,,,2018_Feb_07_1626,60.0006735494,FEMA4ImagesEEG,001,202833,
AFNE01.JPG,AFNE01.JPG,AFNE01.JPG,AFNE01.JPG,AFNE01.JPG,AFNE01.JPG,,,,,,,,,,,,,,,,,4,2,42,5,,,,,,,AFNE03.jpg,AFSA08.jpg,AFNE19.jpg,AFSA09.jpg,AFNE03.jpg,FN,3,num_8,32,num_6,0.583468391327,,,2018_Feb_07_1626,60.0006735494,FEMA4ImagesEEG,001,202833,
AFNE01.JPG,AFNE01.JPG,AFNE01.JPG,AFNE01.JPG,AFNE01.JPG,AFNE01.JPG,,,,,,,,,,,,,,,,,4,3,43,9,,,,,,,AFSA16.jpg,AFSA19.jpg,AFNE10.jpg,AFNE12.jpg,AFNE10.jpg,FN,3,num_2,32,num_4,1.40009179548,,,2018_Feb_07_1626,60.0006735494,FEMA4ImagesEEG,001,202833,
AFNE01.JPG,AFNE01.JPG,AFNE01.JPG,AFNE01.JPG,AFNE01.JPG,AFNE01.JPG,,,,,,,,,,,,,,,,,4,4,44,6,,,,,,,AFSA08.jpg,AFNE20.jpg,AFSA06.jpg,AFNE02.jpg,AFSA06.jpg,FS,4,num_2,32,num_6,0.750165261095,,,2018_Feb_07_1626,60.0006735494,FEMA4ImagesEEG,001,202833,
AFNE01.JPG,AFNE01.JPG,AFNE01.JPG,AFNE01.JPG,AFNE01.JPG,AFNE01.JPG,,,,,,,,,,,,,,,,,4,5,45,2,,,,,,,AFNE18.jpg,AFNE10.jpg,AFSA05.jpg,AFSA20.jpg,AFSA20.jpg,FS,4,num_4,32,num_8,1.00019853772,,,2018_Feb_07_1626,60.0006735494,FEMA4ImagesEEG,001,202833,
AFNE01.JPG,AFNE01.JPG,AFNE01.JPG,AFNE01.JPG,AFNE01.JPG,AFNE01.JPG,,,,,,,,,,,,,,,,,4,6,46,8,,,,,,,AFNE08.jpg,AFNE01.jpg,AFSA03.jpg,AFSA08.jpg,AFSA08.jpg,FS,4,num_4,32,num_6,1.11673306511,,,2018_Feb_07_1626,60.0006735494,FEMA4ImagesEEG,001,202833,
AFNE01.JPG,AFNE01.JPG,AFNE01.JPG,AFNE01.JPG,AFNE01.JPG,AFNE01.JPG,,,,,,,,,,,,,,,,,4,7,47,3,,,,,,,AFNE04.jpg,AFSA12.jpg,AFNE20.jpg,AFSA15.jpg,AFSA12.jpg,FS,4,num_6,32,num_4,0.483510312159,,,2018_Feb_07_1626,60.0006735494,FEMA4ImagesEEG,001,202833,
AFNE01.JPG,AFNE01.JPG,AFNE01.JPG,AFNE01.JPG,AFNE01.JPG,AFNE01.JPG,,,,,,,,,,,,,,,,,4,8,48,0,,,,,,,AFSA02.jpg,AFSA12.jpg,AFNE14.jpg,AFNE05.jpg,AFNE14.jpg,FN,3,num_2,32,num_8,0.683450205484,,,2018_Feb_07_1626,60.0006735494,FEMA4ImagesEEG,001,202833,
AFNE01.JPG,AFNE01.JPG,AFNE01.JPG,AFNE01.JPG,AFNE01.JPG,AFNE01.JPG,,,,,,,,,,,,,,,,,4,9,49,4,,,,,,,AFSA18.jpg,AFNE20.jpg,AFNE04.jpg,AFSA01.jpg,AFSA01.jpg,FS,4,num_4,32,num_8,0.733492591185,,,2018_Feb_07_1626,60.0006735494,FEMA4ImagesEEG,001,202833,
AFNE01.JPG,AFNE01.JPG,AFNE01.JPG,AFNE01.JPG,AFNE01.JPG,AFNE01.JPG,,,,,,,,,,,,,,,,,5,0,50,0,,,,,,,AFNE07.jpg,AFSA06.jpg,AFSA17.jpg,AFNE16.jpg,AFNE07.jpg,FN,3,num_8,32,num_2,0.666799345985,,,2018_Feb_07_1626,60.0006735494,FEMA4ImagesEEG,001,202833,
AFNE01.JPG,AFNE01.JPG,AFNE01.JPG,AFNE01.JPG,AFNE01.JPG,AFNE01.JPG,,,,,,,,,,,,,,,,,5,1,51,9,,,,,,,AFNE08.jpg,AFSA06.jpg,AFNE09.jpg,AFSA08.jpg,AFSA08.jpg,FS,4,num_4,16,num_4,1.43342334358,,,2018_Feb_07_1626,60.0006735494,FEMA4ImagesEEG,001,202833,
AFNE01.JPG,AFNE01.JPG,AFNE01.JPG,AFNE01.JPG,AFNE01.JPG,AFNE01.JPG,,,,,,,,,,,,,,,,,5,2,52,7,,,,,,,AFSA05.jpg,AFNE14.jpg,AFNE10.jpg,AFSA10.jpg,AFNE10.jpg,FN,3,num_2,16,num_2,0.766797196819,,,2018_Feb_07_1626,60.0006735494,FEMA4ImagesEEG,001,202833,
AFNE01.JPG,AFNE01.JPG,AFNE01.JPG,AFNE01.JPG,AFNE01.JPG,AFNE01.JPG,,,,,,,,,,,,,,,,,5,3,53,6,,,,,,,AFNE20.jpg,AFNE03.jpg,AFSA05.jpg,AFSA16.jpg,AFNE03.jpg,FN,3,num_6,32,num_4,0.650143675273,,,2018_Feb_07_1626,60.0006735494,FEMA4ImagesEEG,001,202833,
AFNE01.JPG,AFNE01.JPG,AFNE01.JPG,AFNE01.JPG,AFNE01.JPG,AFNE01.JPG,,,,,,,,,,,,,,,,,5,4,54,4,,,,,,,AFNE17.jpg,AFNE16.jpg,AFSA04.jpg,AFSA07.jpg,AFNE16.jpg,FN,3,num_6,16,num_6,0.666777856182,,,2018_Feb_07_1626,60.0006735494,FEMA4ImagesEEG,001,202833,
AFNE01.JPG,AFNE01.JPG,AFNE01.JPG,AFNE01.JPG,AFNE01.JPG,AFNE01.JPG,,,,,,,,,,,,,,,,,5,5,55,5,,,,,,,AFNE01.jpg,AFSA06.jpg,AFSA08.jpg,AFNE06.jpg,AFSA06.jpg,FS,4,num_6,16,num_6,0.850179790519,,,2018_Feb_07_1626,60.0006735494,FEMA4ImagesEEG,001,202833,
AFNE01.JPG,AFNE01.JPG,AFNE01.JPG,AFNE01.JPG,AFNE01.JPG,AFNE01.JPG,,,,,,,,,,,,,,,,,5,6,56,3,,,,,,,AFSA06.jpg,AFNE07.jpg,AFNE06.jpg,AFSA15.jpg,AFSA06.jpg,FS,4,num_8,16,num_8,0.650163881714,,,2018_Feb_07_1626,60.0006735494,FEMA4ImagesEEG,001,202833,
AFNE01.JPG,AFNE01.JPG,AFNE01.JPG,AFNE01.JPG,AFNE01.JPG,AFNE01.JPG,,,,,,,,,,,,,,,,,5,7,57,8,,,,,,,AFNE15.jpg,AFSA14.jpg,AFNE05.jpg,AFSA09.jpg,AFNE15.jpg,FN,3,num_8,32,num_2,0.683496391866,,,2018_Feb_07_1626,60.0006735494,FEMA4ImagesEEG,001,202833,
AFNE01.JPG,AFNE01.JPG,AFNE01.JPG,AFNE01.JPG,AFNE01.JPG,AFNE01.JPG,,,,,,,,,,,,,,,,,5,8,58,2,,,,,,,AFSA15.jpg,AFNE19.jpg,AFNE01.jpg,AFSA18.jpg,AFNE19.jpg,FN,3,num_6,32,num_4,0.716657947982,,,2018_Feb_07_1626,60.0006735494,FEMA4ImagesEEG,001,202833,
AFNE01.JPG,AFNE01.JPG,AFNE01.JPG,AFNE01.JPG,AFNE01.JPG,AFNE01.JPG,,,,,,,,,,,,,,,,,5,9,59,1,,,,,,,AFNE17.jpg,AFSA17.jpg,AFSA10.jpg,AFNE13.jpg,AFSA10.jpg,FS,4,num_2,16,num_2,1.68341556541,,,2018_Feb_07_1626,60.0006735494,FEMA4ImagesEEG,001,202833,
,,,,,,,,,,,,,,,,,,,,,,,,,,,,,,,,,,,,,,,,,,,space,5.04982524528,2018_Feb_07_1626,60.0006735494,FEMA4ImagesEEG,001,202833,
AFNE01.JPG,AFNE01.JPG,AFNE01.JPG,AFNE01.JPG,AFNE01.JPG,AFNE01.JPG,,,,,,,,,,,,,,,,,,,,,0,0,0,9,,,AMNE20.jpg,AMNE04.jpg,AMSA15.jpg,AMSA10.jpg,AMSA10.jpg,MS,2,num_4,32,num_2,0.900114086922,,,2018_Feb_07_1626,60.0006735494,FEMA4ImagesEEG,001,202833,
AFNE01.JPG,AFNE01.JPG,AFNE01.JPG,AFNE01.JPG,AFNE01.JPG,AFNE01.JPG,,,,,,,,,,,,,,,,,,,,,0,1,1,1,,,AMSA13.jpg,AMSA02.jpg,AMNE19.jpg,AMNE17.jpg,AMSA13.jpg,MS,2,num_8,32,num_4,0.800181666622,,,2018_Feb_07_1626,60.0006735494,FEMA4ImagesEEG,001,202833,
AFNE01.JPG,AFNE01.JPG,AFNE01.JPG,AFNE01.JPG,AFNE01.JPG,AFNE01.JPG,,,,,,,,,,,,,,,,,,,,,0,2,2,0,,,AMNE05.jpg,AMNE18.jpg,AMSA05.jpg,AMSA01.jpg,AMNE18.jpg,MN,1,num_6,32,num_2,1.35013023601,,,2018_Feb_07_1626,60.0006735494,FEMA4ImagesEEG,001,202833,
AFNE01.JPG,AFNE01.JPG,AFNE01.JPG,AFNE01.JPG,AFNE01.JPG,AFNE01.JPG,,,,,,,,,,,,,,,,,,,,,0,3,3,8,,,AMSA02.jpg,AMNE01.jpg,AMNE06.jpg,AMSA20.jpg,AMSA02.jpg,MS,2,num_8,32,num_6,0.633488966851,,,2018_Feb_07_1626,60.0006735494,FEMA4ImagesEEG,001,202833,
AFNE01.JPG,AFNE01.JPG,AFNE01.JPG,AFNE01.JPG,AFNE01.JPG,AFNE01.JPG,,,,,,,,,,,,,,,,,,,,,0,4,4,3,,,AMSA05.jpg,AMNE03.jpg,AMSA11.jpg,AMNE07.jpg,AMNE03.jpg,MN,1,num_6,32,num_8,0.833466386655,,,2018_Feb_07_1626,60.0006735494,FEMA4ImagesEEG,001,202833,
AFNE01.JPG,AFNE01.JPG,AFNE01.JPG,AFNE01.JPG,AFNE01.JPG,AFNE01.JPG,,,,,,,,,,,,,,,,,,,,,0,5,5,2,,,AMNE04.jpg,AMSA01.jpg,AMNE19.jpg,AMSA09.jpg,AMSA01.jpg,MS,2,num_6,32,num_4,0.666786516318,,,2018_Feb_07_1626,60.0006735494,FEMA4ImagesEEG,001,202833,
AFNE01.JPG,AFNE01.JPG,AFNE01.JPG,AFNE01.JPG,AFNE01.JPG,AFNE01.JPG,,,,,,,,,,,,,,,,,,,,,0,6,6,6,,,AMNE05.jpg,AMSA19.jpg,AMSA10.jpg,AMNE08.jpg,AMNE05.jpg,MN,1,num_8,16,num_8,1.96668064035,,,2018_Feb_07_1626,60.0006735494,FEMA4ImagesEEG,001,202833,
AFNE01.JPG,AFNE01.JPG,AFNE01.JPG,AFNE01.JPG,AFNE01.JPG,AFNE01.JPG,,,,,,,,,,,,,,,,,,,,,0,7,7,4,,,AMNE17.jpg,AMNE14.jpg,AMSA07.jpg,AMSA14.jpg,AMNE14.jpg,MN,1,num_6,32,num_4,1.25010383944,,,2018_Feb_07_1626,60.0006735494,FEMA4ImagesEEG,001,202833,
AFNE01.JPG,AFNE01.JPG,AFNE01.JPG,AFNE01.JPG,AFNE01.JPG,AFNE01.JPG,,,,,,,,,,,,,,,,,,,,,0,8,8,7,,,AMSA20.jpg,AMSA12.jpg,AMNE05.jpg,AMNE11.jpg,AMNE05.jpg,MN,1,num_2,16,num_2,0.833457085304,,,2018_Feb_07_1626,60.0006735494,FEMA4ImagesEEG,001,202833,
AFNE01.JPG,AFNE01.JPG,AFNE01.JPG,AFNE01.JPG,AFNE01.JPG,AFNE01.JPG,,,,,,,,,,,,,,,,,,,,,0,9,9,5,,,AMSA11.jpg,AMNE14.jpg,AMNE09.jpg,AMSA16.jpg,AMSA11.jpg,MS,2,num_8,16,num_8,0.716783998534,,,2018_Feb_07_1626,60.0006735494,FEMA4ImagesEEG,001,202833,
AFNE01.JPG,AFNE01.JPG,AFNE01.JPG,AFNE01.JPG,AFNE01.JPG,AFNE01.JPG,,,,,,,,,,,,,,,,,,,,,1,0,10,8,,,AMNE04.jpg,AMNE01.jpg,AMSA11.jpg,AMSA12.jpg,AMNE01.jpg,MN,1,num_6,32,num_4,1.65006413194,,,2018_Feb_07_1626,60.0006735494,FEMA4ImagesEEG,001,202833,
AFNE01.JPG,AFNE01.JPG,AFNE01.JPG,AFNE01.JPG,AFNE01.JPG,AFNE01.JPG,,,,,,,,,,,,,,,,,,,,,1,1,11,0,,,AMSA08.jpg,AMSA20.jpg,AMNE15.jpg,AMNE11.jpg,AMSA08.jpg,MS,2,num_8,32,num_6,0.73344223504,,,2018_Feb_07_1626,60.0006735494,FEMA4ImagesEEG,001,202833,
AFNE01.JPG,AFNE01.JPG,AFNE01.JPG,AFNE01.JPG,AFNE01.JPG,AFNE01.JPG,,,,,,,,,,,,,,,,,,,,,1,2,12,1,,,AMSA15.jpg,AMNE18.jpg,AMSA16.jpg,AMNE02.jpg,AMNE02.jpg,MN,1,num_4,32,num_8,0.733480402967,,,2018_Feb_07_1626,60.0006735494,FEMA4ImagesEEG,001,202833,
AFNE01.JPG,AFNE01.JPG,AFNE01.JPG,AFNE01.JPG,AFNE01.JPG,AFNE01.JPG,,,,,,,,,,,,,,,,,,,,,1,3,13,5,,,AMNE05.jpg,AMNE01.jpg,AMSA11.jpg,AMSA06.jpg,AMNE01.jpg,MN,1,num_6,32,num_2,1.25009966968,,,2018_Feb_07_1626,60.0006735494,FEMA4ImagesEEG,001,202833,
AFNE01.JPG,AFNE01.JPG,AFNE01.JPG,AFNE01.JPG,AFNE01.JPG,AFNE01.JPG,,,,,,,,,,,,,,,,,,,,,1,4,14,9,,,AMSA17.jpg,AMNE04.jpg,AMNE09.jpg,AMSA07.jpg,AMNE09.jpg,MN,1,num_2,32,num_4,0.733497723006,,,2018_Feb_07_1626,60.0006735494,FEMA4ImagesEEG,001,202833,
AFNE01.JPG,AFNE01.JPG,AFNE01.JPG,AFNE01.JPG,AFNE01.JPG,AFNE01.JPG,,,,,,,,,,,,,,,,,,,,,1,5,15,4,,,AMNE04.jpg,AMNE09.jpg,AMSA02.jpg,AMSA06.jpg,AMSA06.jpg,MS,2,num_4,16,num_4,0.833707261831,,,2018_Feb_07_1626,60.0006735494,FEMA4ImagesEEG,001,202833,
AFNE01.JPG,AFNE01.JPG,AFNE01.JPG,AFNE01.JPG,AFNE01.JPG,AFNE01.JPG,,,,,,,,,,,,,,,,,,,,,1,6,16,2,,,AMNE09.jpg,AMSA11.jpg,AMSA09.jpg,AMNE19.jpg,AMSA09.jpg,MS,2,num_2,16,num_2,0.916801190004,,,2018_Feb_07_1626,60.0006735494,FEMA4ImagesEEG,001,202833,
AFNE01.JPG,AFNE01.JPG,AFNE01.JPG,AFNE01.JPG,AFNE01.JPG,AFNE01.JPG,,,,,,,,,,,,,,,,,,,,,1,7,17,3,,,AMNE14.jpg,AMSA05.jpg,AMSA08.jpg,AMNE07.jpg,AMSA05.jpg,MS,2,num_6,32,num_4,0.699991372181,,,2018_Feb_07_1626,60.0006735494,FEMA4ImagesEEG,001,202833,
AFNE01.JPG,AFNE01.JPG,AFNE01.JPG,AFNE01.JPG,AFNE01.JPG,AFNE01.JPG,,,,,,,,,,,,,,,,,,,,,1,8,18,7,,,AMSA18.jpg,AMNE02.jpg,AMSA04.jpg,AMNE20.jpg,AMSA04.jpg,MS,2,num_2,32,num_6,0.700141798938,,,2018_Feb_07_1626,60.0006735494,FEMA4ImagesEEG,001,202833,
AFNE01.JPG,AFNE01.JPG,AFNE01.JPG,AFNE01.JPG,AFNE01.JPG,AFNE01.JPG,,,,,,,,,,,,,,,,,,,,,1,9,19,6,,,AMNE11.jpg,AMSA01.jpg,AMNE16.jpg,AMSA09.jpg,AMSA09.jpg,MS,2,num_4,32,num_8,0.716835958185,,,2018_Feb_07_1626,60.0006735494,FEMA4ImagesEEG,001,202833,
AFNE01.JPG,AFNE01.JPG,AFNE01.JPG,AFNE01.JPG,AFNE01.JPG,AFNE01.JPG,,,,,,,,,,,,,,,,,,,,,2,0,20,2,,,AMNE04.jpg,AMNE16.jpg,AMSA12.jpg,AMSA15.jpg,AMSA12.jpg,MS,2,num_2,16,num_2,1.23346292274,,,2018_Feb_07_1626,60.0006735494,FEMA4ImagesEEG,001,202833,
AFNE01.JPG,AFNE01.JPG,AFNE01.JPG,AFNE01.JPG,AFNE01.JPG,AFNE01.JPG,,,,,,,,,,,,,,,,,,,,,2,1,21,8,,,AMNE18.jpg,AMSA02.jpg,AMSA19.jpg,AMNE08.jpg,AMNE08.jpg,MN,1,num_4,16,num_4,0.733490346,,,2018_Feb_07_1626,60.0006735494,FEMA4ImagesEEG,001,202833,
AFNE01.JPG,AFNE01.JPG,AFNE01.JPG,AFNE01.JPG,AFNE01.JPG,AFNE01.JPG,,,,,,,,,,,,,,,,,,,,,2,2,22,1,,,AMNE04.jpg,AMNE15.jpg,AMSA05.jpg,AMSA04.jpg,AMSA05.jpg,MS,2,num_2,16,num_2,0.983457550174,,,2018_Feb_07_1626,60.0006735494,FEMA4ImagesEEG,001,202833,
AFNE01.JPG,AFNE01.JPG,AFNE01.JPG,AFNE01.JPG,AFNE01.JPG,AFNE01.JPG,,,,,,,,,,,,,,,,,,,,,2,3,23,5,,,AMSA15.jpg,AMNE06.jpg,AMNE07.jpg,AMSA19.jpg,AMSA15.jpg,MS,2,num_8,32,num_6,0.466857207241,,,2018_Feb_07_1626,60.0006735494,FEMA4ImagesEEG,001,202833,
AFNE01.JPG,AFNE01.JPG,AFNE01.JPG,AFNE01.JPG,AFNE01.JPG,AFNE01.JPG,,,,,,,,,,,,,,,,,,,,,2,4,24,6,,,AMSA18.jpg,AMNE04.jpg,AMNE20.jpg,AMSA17.jpg,AMSA18.jpg,MS,2,num_8,16,num_8,1.25008042553,,,2018_Feb_07_1626,60.0006735494,FEMA4ImagesEEG,001,202833,
AFNE01.JPG,AFNE01.JPG,AFNE01.JPG,AFNE01.JPG,AFNE01.JPG,AFNE01.JPG,,,,,,,,,,,,,,,,,,,,,2,5,25,3,,,AMSA10.jpg,AMNE06.jpg,AMNE19.jpg,AMSA01.jpg,AMNE19.jpg,MN,1,num_2,32,num_8,1.20010860241,,,2018_Feb_07_1626,60.0006735494,FEMA4ImagesEEG,001,202833,
AFNE01.JPG,AFNE01.JPG,AFNE01.JPG,AFNE01.JPG,AFNE01.JPG,AFNE01.JPG,,,,,,,,,,,,,,,,,,,,,2,6,26,9,,,AMNE19.jpg,AMNE03.jpg,AMSA19.jpg,AMSA03.jpg,AMNE03.jpg,MN,1,num_6,32,num_2,3.53352832142,,,2018_Feb_07_1626,60.0006735494,FEMA4ImagesEEG,001,202833,
AFNE01.JPG,AFNE01.JPG,AFNE01.JPG,AFNE01.JPG,AFNE01.JPG,AFNE01.JPG,,,,,,,,,,,,,,,,,,,,,2,7,27,4,,,AMNE01.jpg,AMSA12.jpg,AMSA02.jpg,AMNE18.jpg,AMNE01.jpg,MN,1,num_8,32,num_4,1.10013416526,,,2018_Feb_07_1626,60.0006735494,FEMA4ImagesEEG,001,202833,
AFNE01.JPG,AFNE01.JPG,AFNE01.JPG,AFNE01.JPG,AFNE01.JPG,AFNE01.JPG,,,,,,,,,,,,,,,,,,,,,2,8,28,0,,,AMNE09.jpg,AMSA08.jpg,AMSA20.jpg,AMNE13.jpg,AMSA20.jpg,MS,2,num_2,32,num_8,2.43332680105,,,2018_Feb_07_1626,60.0006735494,FEMA4ImagesEEG,001,202833,
AFNE01.JPG,AFNE01.JPG,AFNE01.JPG,AFNE01.JPG,AFNE01.JPG,AFNE01.JPG,,,,,,,,,,,,,,,,,,,,,2,9,29,7,,,AMSA14.jpg,AMSA08.jpg,AMNE18.jpg,AMNE13.jpg,AMNE13.jpg,MN,1,num_4,32,num_2,1.75009309454,,,2018_Feb_07_1626,60.0006735494,FEMA4ImagesEEG,001,202833,
AFNE01.JPG,AFNE01.JPG,AFNE01.JPG,AFNE01.JPG,AFNE01.JPG,AFNE01.JPG,,,,,,,,,,,,,,,,,,,,,3,0,30,8,,,AMSA14.jpg,AMNE11.jpg,AMNE13.jpg,AMSA07.jpg,AMNE11.jpg,MN,1,num_6,32,num_4,0.716901709791,,,2018_Feb_07_1626,60.0006735494,FEMA4ImagesEEG,001,202833,
AFNE01.JPG,AFNE01.JPG,AFNE01.JPG,AFNE01.JPG,AFNE01.JPG,AFNE01.JPG,,,,,,,,,,,,,,,,,,,,,3,1,31,7,,,AMSA03.jpg,AMSA14.jpg,AMNE13.jpg,AMNE09.jpg,AMNE13.jpg,MN,1,num_2,32,num_8,0.98344504158,,,2018_Feb_07_1626,60.0006735494,FEMA4ImagesEEG,001,202833,
AFNE01.JPG,AFNE01.JPG,AFNE01.JPG,AFNE01.JPG,AFNE01.JPG,AFNE01.JPG,,,,,,,,,,,,,,,,,,,,,3,2,32,1,,,AMSA08.jpg,AMSA12.jpg,AMNE20.jpg,AMNE03.jpg,AMSA12.jpg,MS,2,num_6,16,num_6,0.633527134545,,,2018_Feb_07_1626,60.0006735494,FEMA4ImagesEEG,001,202833,
AFNE01.JPG,AFNE01.JPG,AFNE01.JPG,AFNE01.JPG,AFNE01.JPG,AFNE01.JPG,,,,,,,,,,,,,,,,,,,,,3,3,33,0,,,AMNE17.jpg,AMSA09.jpg,AMSA18.jpg,AMNE06.jpg,AMNE06.jpg,MN,1,num_4,16,num_4,0.733459554845,,,2018_Feb_07_1626,60.0006735494,FEMA4ImagesEEG,001,202833,
AFNE01.JPG,AFNE01.JPG,AFNE01.JPG,AFNE01.JPG,AFNE01.JPG,AFNE01.JPG,,,,,,,,,,,,,,,,,,,,,3,4,34,3,,,AMNE20.jpg,AMNE15.jpg,AMSA17.jpg,AMSA05.jpg,AMSA05.jpg,MS,2,num_4,32,num_6,0.633478061762,,,2018_Feb_07_1626,60.0006735494,FEMA4ImagesEEG,001,202833,
AFNE01.JPG,AFNE01.JPG,AFNE01.JPG,AFNE01.JPG,AFNE01.JPG,AFNE01.JPG,,,,,,,,,,,,,,,,,,,,,3,5,35,9,,,AMNE15.jpg,AMSA14.jpg,AMSA02.jpg,AMNE12.jpg,AMNE12.jpg,MN,1,num_4,32,num_2,2.69999329653,,,2018_Feb_07_1626,60.0006735494,FEMA4ImagesEEG,001,202833,
AFNE01.JPG,AFNE01.JPG,AFNE01.JPG,AFNE01.JPG,AFNE01.JPG,AFNE01.JPG,,,,,,,,,,,,,,,,,,,,,3,6,36,5,,,AMNE15.jpg,AMNE06.jpg,AMSA06.jpg,AMSA17.jpg,AMSA06.jpg,MS,2,num_2,32,num_4,1.13345961901,,,2018_Feb_07_1626,60.0006735494,FEMA4ImagesEEG,001,202833,
AFNE01.JPG,AFNE01.JPG,AFNE01.JPG,AFNE01.JPG,AFNE01.JPG,AFNE01.JPG,,,,,,,,,,,,,,,,,,,,,3,7,37,6,,,AMSA06.jpg,AMNE16.jpg,AMNE11.jpg,AMSA04.jpg,AMNE11.jpg,MN,1,num_2,32,num_4,0.850201921305,,,2018_Feb_07_1626,60.0006735494,FEMA4ImagesEEG,001,202833,
AFNE01.JPG,AFNE01.JPG,AFNE01.JPG,AFNE01.JPG,AFNE01.JPG,AFNE01.JPG,,,,,,,,,,,,,,,,,,,,,3,8,38,4,,,AMSA02.jpg,AMSA09.jpg,AMNE10.jpg,AMNE09.jpg,AMSA09.jpg,MS,2,num_6,16,num_6,0.733505741227,,,2018_Feb_07_1626,60.0006735494,FEMA4ImagesEEG,001,202833,
