IPosition2,IPosition3,IPosition1,IPosition6,IPosition4,IPosition5,TrialsF1.thisRepN,TrialsF1.thisTrialN,TrialsF1.thisN,TrialsF1.thisIndex,TrialsM1.thisRepN,TrialsM1.thisTrialN,TrialsM1.thisN,TrialsM1.thisIndex,TrialsF2.thisRepN,TrialsF2.thisTrialN,TrialsF2.thisN,TrialsF2.thisIndex,TrialsM2.thisRepN,TrialsM2.thisTrialN,TrialsM2.thisN,TrialsM2.thisIndex,TrialsF3.thisRepN,TrialsF3.thisTrialN,TrialsF3.thisN,TrialsF3.thisIndex,TrialsM3.thisRepN,TrialsM3.thisTrialN,TrialsM3.thisN,TrialsM3.thisIndex,InstrKey_resp.keys,InstrKey_resp.rt,Image0 _Position,Image1 _Position,Image2 _Position,Image3 _Position,Center_image,condition,code,correct_answer,accuracy,Key_Resp.keys,Key_Resp.rt,BreakKey_resp.keys,BreakKey_resp.rt,date,frameRate,expName,session,participant,
,,,,,,,,,,,,,,,,,,,,,,,,,,,,,,space,13.1328646478,,,,,,,,,,,,,,2018_Feb_15_1649,59.9929382117,FEMA4ImagesEEG,001,202854,
AMNE22.JPG,AMSA24.JPG,AMSA22.JPG,AMNE25.JPG,AMNE24.JPG,AMSA25.JPG,0,0,0,7,,,,,,,,,,,,,,,,,,,,,,,AFNE05.jpg,AFSA02.jpg,AFNE04.jpg,AFSA01.jpg,AFNE04.jpg,FN,3,num_2,16,num_2,1.33343575615,,,2018_Feb_15_1649,59.9929382117,FEMA4ImagesEEG,001,202854,
AFSA21.JPG,AFNE23.JPG,AFNE21.JPG,AFSA25.JPG,AFNE25.JPG,AFSA23.JPG,0,1,1,4,,,,,,,,,,,,,,,,,,,,,,,AFSA17.jpg,AFNE18.jpg,AFNE03.jpg,AFSA15.jpg,AFSA15.jpg,FS,4,num_4,16,num_4,1.31678874535,,,2018_Feb_15_1649,59.9929382117,FEMA4ImagesEEG,001,202854,
AMSA25.JPG,AMNE24.JPG,AMSA24.JPG,AMNE26.JPG,AMSA21.JPG,AMNE25.JPG,0,2,2,3,,,,,,,,,,,,,,,,,,,,,,,AFSA12.jpg,AFNE18.jpg,AFSA09.jpg,AFNE01.jpg,AFNE18.jpg,FN,3,num_6,16,num_6,1.11678726994,,,2018_Feb_15_1649,59.9929382117,FEMA4ImagesEEG,001,202854,
AMSA21.JPG,AMNE23.JPG,AMNE21.JPG,AMSA25.JPG,AMNE25.JPG,AMSA23.JPG,0,3,3,5,,,,,,,,,,,,,,,,,,,,,,,AFNE16.jpg,AFNE20.jpg,AFSA07.jpg,AFSA01.jpg,AFSA01.jpg,FS,4,num_4,16,num_4,1.13346859976,,,2018_Feb_15_1649,59.9929382117,FEMA4ImagesEEG,001,202854,
AMSA21.JPG,AMNE22.JPG,AMNE21.JPG,AMSA23.JPG,AMSA22.JPG,AMNE23.JPG,0,4,4,1,,,,,,,,,,,,,,,,,,,,,,,AFNE17.jpg,AFSA06.jpg,AFNE16.jpg,AFSA08.jpg,AFNE16.jpg,FN,3,num_2,16,num_2,0.616764337057,,,2018_Feb_15_1649,59.9929382117,FEMA4ImagesEEG,001,202854,
AFSA21.JPG,AFNE22.JPG,AFNE21.JPG,AFSA23.JPG,AFSA22.JPG,AFNE23.JPG,0,5,5,0,,,,,,,,,,,,,,,,,,,,,,,AFNE11.jpg,AFSA06.jpg,AFSA20.jpg,AFNE10.jpg,AFNE11.jpg,FN,3,num_8,32,num_4,1.94986684504,,,2018_Feb_15_1649,59.9929382117,FEMA4ImagesEEG,001,202854,
AFSA25.JPG,AFNE24.JPG,AFSA24.JPG,AFNE21.JPG,AFSA21.JPG,AFNE25.JPG,0,6,6,2,,,,,,,,,,,,,,,,,,,,,,,AFSA02.jpg,AFNE11.jpg,AFSA04.jpg,AFNE01.jpg,AFNE01.jpg,FN,3,num_4,32,num_8,1.85004443838,,,2018_Feb_15_1649,59.9929382117,FEMA4ImagesEEG,001,202854,
AFNE23.JPG,AFNE24.JPG,AFNE22.JPG,AFSA24.JPG,AFSA22.JPG,AFSA23.JPG,0,7,7,8,,,,,,,,,,,,,,,,,,,,,,,AFNE01.jpg,AFSA09.jpg,AFSA07.jpg,AFNE12.jpg,AFNE01.jpg,FN,3,num_8,32,num_2,2.75002862606,,,2018_Feb_15_1649,59.9929382117,FEMA4ImagesEEG,001,202854,
AMNE23.JPG,AMNE24.JPG,AMNE22.JPG,AMSA24.JPG,AMSA22.JPG,AMSA23.JPG,0,8,8,9,,,,,,,,,,,,,,,,,,,,,,,AFNE20.jpg,AFSA12.jpg,AFSA16.jpg,AFNE15.jpg,AFNE15.jpg,FN,3,num_4,16,num_4,0.98343990976,,,2018_Feb_15_1649,59.9929382117,FEMA4ImagesEEG,001,202854,
AFNE22.JPG,AFSA24.JPG,AFSA22.JPG,AFNE25.JPG,AFNE24.JPG,AFSA25.JPG,0,9,9,6,,,,,,,,,,,,,,,,,,,,,,,AFNE18.jpg,AFSA02.jpg,AFNE10.jpg,AFSA04.jpg,AFNE10.jpg,FN,3,num_2,32,num_6,1.30034123454,,,2018_Feb_15_1649,59.9929382117,FEMA4ImagesEEG,001,202854,
AMSA25.JPG,AMNE24.JPG,AMSA24.JPG,AMNE26.JPG,AMSA21.JPG,AMNE25.JPG,,,,,0,0,0,3,,,,,,,,,,,,,,,,,,,AMSA07.jpg,AMSA12.jpg,AMNE06.jpg,AMNE15.jpg,AMNE06.jpg,MN,1,num_2,16,num_2,0.716662758961,,,2018_Feb_15_1649,59.9929382117,FEMA4ImagesEEG,001,202854,
AMSA21.JPG,AMNE23.JPG,AMNE21.JPG,AMSA25.JPG,AMNE25.JPG,AMSA23.JPG,,,,,0,1,1,5,,,,,,,,,,,,,,,,,,,AMSA05.jpg,AMNE18.jpg,AMSA07.jpg,AMNE01.jpg,AMNE18.jpg,MN,1,num_6,32,num_4,0.900220893323,,,2018_Feb_15_1649,59.9929382117,FEMA4ImagesEEG,001,202854,
AMSA21.JPG,AMNE22.JPG,AMNE21.JPG,AMSA23.JPG,AMSA22.JPG,AMNE23.JPG,,,,,0,2,2,1,,,,,,,,,,,,,,,,,,,AMSA07.jpg,AMNE04.jpg,AMSA02.jpg,AMNE07.jpg,AMNE04.jpg,MN,1,num_6,16,num_6,1.53341894946,,,2018_Feb_15_1649,59.9929382117,FEMA4ImagesEEG,001,202854,
AFSA21.JPG,AFNE22.JPG,AFNE21.JPG,AFSA23.JPG,AFSA22.JPG,AFNE23.JPG,,,,,0,3,3,0,,,,,,,,,,,,,,,,,,,AMNE15.jpg,AMNE14.jpg,AMSA11.jpg,AMSA07.jpg,AMNE15.jpg,MN,1,num_8,16,num_8,2.7333652575,,,2018_Feb_15_1649,59.9929382117,FEMA4ImagesEEG,001,202854,
AMNE22.JPG,AMSA24.JPG,AMSA22.JPG,AMNE25.JPG,AMNE24.JPG,AMSA25.JPG,,,,,0,4,4,7,,,,,,,,,,,,,,,,,,,AMSA09.jpg,AMSA13.jpg,AMNE09.jpg,AMNE06.jpg,AMNE09.jpg,MN,1,num_2,32,num_8,2.33319776738,,,2018_Feb_15_1649,59.9929382117,FEMA4ImagesEEG,001,202854,
AFSA21.JPG,AFNE23.JPG,AFNE21.JPG,AFSA25.JPG,AFNE25.JPG,AFSA23.JPG,,,,,0,5,5,4,,,,,,,,,,,,,,,,,,,AMSA16.jpg,AMSA02.jpg,AMNE10.jpg,AMNE07.jpg,AMSA02.jpg,MS,2,num_6,16,num_6,1.65009460202,,,2018_Feb_15_1649,59.9929382117,FEMA4ImagesEEG,001,202854,
AMNE23.JPG,AMNE24.JPG,AMNE22.JPG,AMSA24.JPG,AMSA22.JPG,AMSA23.JPG,,,,,0,6,6,9,,,,,,,,,,,,,,,,,,,AMNE12.jpg,AMSA18.jpg,AMSA02.jpg,AMNE04.jpg,AMNE04.jpg,MN,1,num_4,32,num_2,1.56641821144,,,2018_Feb_15_1649,59.9929382117,FEMA4ImagesEEG,001,202854,
AFSA25.JPG,AFNE24.JPG,AFSA24.JPG,AFNE21.JPG,AFSA21.JPG,AFNE25.JPG,,,,,0,7,7,2,,,,,,,,,,,,,,,,,,,AMNE18.jpg,AMSA11.jpg,AMNE02.jpg,AMSA20.jpg,AMNE02.jpg,MN,1,num_2,16,num_2,0.933432805352,,,2018_Feb_15_1649,59.9929382117,FEMA4ImagesEEG,001,202854,
AFNE23.JPG,AFNE24.JPG,AFNE22.JPG,AFSA24.JPG,AFSA22.JPG,AFSA23.JPG,,,,,0,8,8,8,,,,,,,,,,,,,,,,,,,AMNE17.jpg,AMNE09.jpg,AMSA14.jpg,AMSA12.jpg,AMSA14.jpg,MS,2,num_2,16,num_2,0.749951969367,,,2018_Feb_15_1649,59.9929382117,FEMA4ImagesEEG,001,202854,
AFNE22.JPG,AFSA24.JPG,AFSA22.JPG,AFNE25.JPG,AFNE24.JPG,AFSA25.JPG,,,,,0,9,9,6,,,,,,,,,,,,,,,,,,,AMNE13.jpg,AMSA06.jpg,AMSA18.jpg,AMNE10.jpg,AMNE13.jpg,MN,1,num_8,32,num_4,1.81666253437,,,2018_Feb_15_1649,59.9929382117,FEMA4ImagesEEG,001,202854,
AMSA25.JPG,AMNE24.JPG,AMSA24.JPG,AMNE26.JPG,AMSA21.JPG,AMNE25.JPG,,,,,,,,,0,0,0,3,,,,,,,,,,,,,,,AFNE10.jpg,AFSA15.jpg,AFSA09.jpg,AFNE05.jpg,AFSA15.jpg,FS,4,num_6,32,num_8,1.16676037596,,,2018_Feb_15_1649,59.9929382117,FEMA4ImagesEEG,001,202854,
AMSA21.JPG,AMNE23.JPG,AMNE21.JPG,AMSA25.JPG,AMNE25.JPG,AMSA23.JPG,,,,,,,,,0,1,1,5,,,,,,,,,,,,,,,AFSA02.jpg,AFSA05.jpg,AFNE06.jpg,AFNE12.jpg,AFNE12.jpg,FN,3,num_4,32,num_8,1.3334036821,,,2018_Feb_15_1649,59.9929382117,FEMA4ImagesEEG,001,202854,
AFNE22.JPG,AFSA24.JPG,AFSA22.JPG,AFNE25.JPG,AFNE24.JPG,AFSA25.JPG,,,,,,,,,0,2,2,6,,,,,,,,,,,,,,,AFSA11.jpg,AFSA02.jpg,AFNE01.jpg,AFNE16.jpg,AFNE16.jpg,FN,3,num_4,32,num_2,1.5166972063,,,2018_Feb_15_1649,59.9929382117,FEMA4ImagesEEG,001,202854,
AMNE22.JPG,AMSA24.JPG,AMSA22.JPG,AMNE25.JPG,AMNE24.JPG,AMSA25.JPG,,,,,,,,,0,3,3,7,,,,,,,,,,,,,,,AFSA03.jpg,AFSA12.jpg,AFNE16.jpg,AFNE20.jpg,AFSA12.jpg,FS,4,num_6,16,num_6,0.850123340264,,,2018_Feb_15_1649,59.9929382117,FEMA4ImagesEEG,001,202854,
AMNE23.JPG,AMNE24.JPG,AMNE22.JPG,AMSA24.JPG,AMSA22.JPG,AMSA23.JPG,,,,,,,,,0,4,4,9,,,,,,,,,,,,,,,AFSA14.jpg,AFSA18.jpg,AFNE08.jpg,AFNE14.jpg,AFSA14.jpg,FS,4,num_8,16,num_8,0.983451456297,,,2018_Feb_15_1649,59.9929382117,FEMA4ImagesEEG,001,202854,
AFNE23.JPG,AFNE24.JPG,AFNE22.JPG,AFSA24.JPG,AFSA22.JPG,AFSA23.JPG,,,,,,,,,0,5,5,8,,,,,,,,,,,,,,,AFNE04.jpg,AFNE18.jpg,AFSA15.jpg,AFSA04.jpg,AFSA04.jpg,FS,4,num_4,32,num_2,1.46675328771,,,2018_Feb_15_1649,59.9929382117,FEMA4ImagesEEG,001,202854,
AFSA21.JPG,AFNE22.JPG,AFNE21.JPG,AFSA23.JPG,AFSA22.JPG,AFNE23.JPG,,,,,,,,,0,6,6,0,,,,,,,,,,,,,,,AFSA07.jpg,AFNE17.jpg,AFNE09.jpg,AFSA04.jpg,AFSA07.jpg,FS,4,num_8,16,num_8,2.50004153582,,,2018_Feb_15_1649,59.9929382117,FEMA4ImagesEEG,001,202854,
AFSA21.JPG,AFNE23.JPG,AFNE21.JPG,AFSA25.JPG,AFNE25.JPG,AFSA23.JPG,,,,,,,,,0,7,7,4,,,,,,,,,,,,,,,AFSA15.jpg,AFSA03.jpg,AFNE13.jpg,AFNE06.jpg,AFSA15.jpg,FS,4,num_8,32,num_2,1.96677205083,,,2018_Feb_15_1649,59.9929382117,FEMA4ImagesEEG,001,202854,
AFSA25.JPG,AFNE24.JPG,AFSA24.JPG,AFNE21.JPG,AFSA21.JPG,AFNE25.JPG,,,,,,,,,0,8,8,2,,,,,,,,,,,,,,,AFNE11.jpg,AFSA08.jpg,AFNE04.jpg,AFSA11.jpg,AFNE04.jpg,FN,3,num_2,16,num_2,1.83335124119,,,2018_Feb_15_1649,59.9929382117,FEMA4ImagesEEG,001,202854,
AMSA21.JPG,AMNE22.JPG,AMNE21.JPG,AMSA23.JPG,AMSA22.JPG,AMNE23.JPG,,,,,,,,,0,9,9,1,,,,,,,,,,,,,,,AFNE09.jpg,AFSA11.jpg,AFNE19.jpg,AFSA19.jpg,AFSA19.jpg,FS,4,num_4,16,num_4,1.16708849231,,,2018_Feb_15_1649,59.9929382117,FEMA4ImagesEEG,001,202854,
AFSA21.JPG,AFNE22.JPG,AFNE21.JPG,AFSA23.JPG,AFSA22.JPG,AFNE23.JPG,,,,,,,,,,,,,0,0,0,0,,,,,,,,,,,AMSA20.jpg,AMSA16.jpg,AMNE01.jpg,AMNE13.jpg,AMSA20.jpg,MS,2,num_8,32,num_4,1.00015106821,,,2018_Feb_15_1649,59.9929382117,FEMA4ImagesEEG,001,202854,
AFNE23.JPG,AFNE24.JPG,AFNE22.JPG,AFSA24.JPG,AFSA22.JPG,AFSA23.JPG,,,,,,,,,,,,,0,1,1,8,,,,,,,,,,,AMSA16.jpg,AMNE01.jpg,AMNE08.jpg,AMSA13.jpg,AMNE08.jpg,MN,1,num_2,16,num_2,0.750083151506,,,2018_Feb_15_1649,59.9929382117,FEMA4ImagesEEG,001,202854,
AMSA21.JPG,AMNE23.JPG,AMNE21.JPG,AMSA25.JPG,AMNE25.JPG,AMSA23.JPG,,,,,,,,,,,,,0,2,2,5,,,,,,,,,,,AMNE15.jpg,AMNE13.jpg,AMSA03.jpg,AMSA11.jpg,AMNE15.jpg,MN,1,num_8,32,num_6,1.43342334335,,,2018_Feb_15_1649,59.9929382117,FEMA4ImagesEEG,001,202854,
AMSA25.JPG,AMNE24.JPG,AMSA24.JPG,AMNE26.JPG,AMSA21.JPG,AMNE25.JPG,,,,,,,,,,,,,0,3,3,3,,,,,,,,,,,AMNE14.jpg,AMSA10.jpg,AMSA18.jpg,AMNE16.jpg,AMNE14.jpg,MN,1,num_8,16,num_8,0.566820097622,,,2018_Feb_15_1649,59.9929382117,FEMA4ImagesEEG,001,202854,
AFSA25.JPG,AFNE24.JPG,AFSA24.JPG,AFNE21.JPG,AFSA21.JPG,AFNE25.JPG,,,,,,,,,,,,,0,4,4,2,,,,,,,,,,,AMNE03.jpg,AMSA18.jpg,AMSA06.jpg,AMNE14.jpg,AMSA18.jpg,MS,2,num_6,32,num_4,1.78336626804,,,2018_Feb_15_1649,59.9929382117,FEMA4ImagesEEG,001,202854,
AFSA21.JPG,AFNE23.JPG,AFNE21.JPG,AFSA25.JPG,AFNE25.JPG,AFSA23.JPG,,,,,,,,,,,,,0,5,5,4,,,,,,,,,,,AMSA16.jpg,AMNE07.jpg,AMSA11.jpg,AMNE16.jpg,AMNE07.jpg,MN,1,num_6,16,num_6,1.05010364694,,,2018_Feb_15_1649,59.9929382117,FEMA4ImagesEEG,001,202854,
AMNE22.JPG,AMSA24.JPG,AMSA22.JPG,AMNE25.JPG,AMNE24.JPG,AMSA25.JPG,,,,,,,,,,,,,0,6,6,7,,,,,,,,,,,AMNE07.jpg,AMSA14.jpg,AMSA03.jpg,AMNE09.jpg,AMSA14.jpg,MS,2,num_6,16,num_6,1.06674841256,,,2018_Feb_15_1649,59.9929382117,FEMA4ImagesEEG,001,202854,
AMNE23.JPG,AMNE24.JPG,AMNE22.JPG,AMSA24.JPG,AMSA22.JPG,AMSA23.JPG,,,,,,,,,,,,,0,7,7,9,,,,,,,,,,,AMSA17.jpg,AMSA06.jpg,AMNE11.jpg,AMNE20.jpg,AMNE20.jpg,MN,1,num_4,32,num_8,1.11679625069,,,2018_Feb_15_1649,59.9929382117,FEMA4ImagesEEG,001,202854,
AMSA21.JPG,AMNE22.JPG,AMNE21.JPG,AMSA23.JPG,AMSA22.JPG,AMNE23.JPG,,,,,,,,,,,,,0,8,8,1,,,,,,,,,,,AMSA06.jpg,AMNE02.jpg,AMNE12.jpg,AMSA08.jpg,AMSA08.jpg,MS,2,num_4,32,num_2,2.5833391333,,,2018_Feb_15_1649,59.9929382117,FEMA4ImagesEEG,001,202854,
AFNE22.JPG,AFSA24.JPG,AFSA22.JPG,AFNE25.JPG,AFNE24.JPG,AFSA25.JPG,,,,,,,,,,,,,0,9,9,6,,,,,,,,,,,AMSA01.jpg,AMSA07.jpg,AMNE13.jpg,AMNE03.jpg,AMNE03.jpg,MN,1,num_4,32,num_2,0.950136907632,,,2018_Feb_15_1649,59.9929382117,FEMA4ImagesEEG,001,202854,
AMSA25.JPG,AMNE24.JPG,AMSA24.JPG,AMNE26.JPG,AMSA21.JPG,AMNE25.JPG,,,,,,,,,,,,,,,,,0,0,0,3,,,,,,,AFNE01.jpg,AFSA07.jpg,AFSA01.jpg,AFNE02.jpg,AFSA07.jpg,FS,4,num_6,32,num_4,0.916791888652,,,2018_Feb_15_1649,59.9929382117,FEMA4ImagesEEG,001,202854,
AFNE23.JPG,AFNE24.JPG,AFNE22.JPG,AFSA24.JPG,AFSA22.JPG,AFSA23.JPG,,,,,,,,,,,,,,,,,0,1,1,8,,,,,,,AFNE15.jpg,AFSA07.jpg,AFNE01.jpg,AFSA06.jpg,AFSA07.jpg,FS,4,num_6,32,num_2,1.2166523349,,,2018_Feb_15_1649,59.9929382117,FEMA4ImagesEEG,001,202854,
AFSA21.JPG,AFNE23.JPG,AFNE21.JPG,AFSA25.JPG,AFNE25.JPG,AFSA23.JPG,,,,,,,,,,,,,,,,,0,2,2,4,,,,,,,AFSA13.jpg,AFNE10.jpg,AFSA11.jpg,AFNE04.jpg,AFSA11.jpg,FS,4,num_2,32,num_6,1.08345251461,,,2018_Feb_15_1649,59.9929382117,FEMA4ImagesEEG,001,202854,
AMNE23.JPG,AMNE24.JPG,AMNE22.JPG,AMSA24.JPG,AMSA22.JPG,AMSA23.JPG,,,,,,,,,,,,,,,,,0,3,3,9,,,,,,,AFSA19.jpg,AFNE13.jpg,AFSA13.jpg,AFNE11.jpg,AFNE11.jpg,FN,3,num_4,32,num_8,3.1833009012,,,2018_Feb_15_1649,59.9929382117,FEMA4ImagesEEG,001,202854,
AMSA21.JPG,AMNE23.JPG,AMNE21.JPG,AMSA25.JPG,AMNE25.JPG,AMSA23.JPG,,,,,,,,,,,,,,,,,0,4,4,5,,,,,,,AFNE05.jpg,AFSA18.jpg,AFNE18.jpg,AFSA19.jpg,AFSA18.jpg,FS,4,num_6,32,num_4,1.68336681323,,,2018_Feb_15_1649,59.9929382117,FEMA4ImagesEEG,001,202854,
AFSA21.JPG,AFNE22.JPG,AFNE21.JPG,AFSA23.JPG,AFSA22.JPG,AFNE23.JPG,,,,,,,,,,,,,,,,,0,5,5,0,,,,,,,AFSA05.jpg,AFNE17.jpg,AFNE16.jpg,AFSA11.jpg,AFSA05.jpg,FS,4,num_8,32,num_6,4.23320023715,,,2018_Feb_15_1649,59.9929382117,FEMA4ImagesEEG,001,202854,
AMNE22.JPG,AMSA24.JPG,AMSA22.JPG,AMNE25.JPG,AMNE24.JPG,AMSA25.JPG,,,,,,,,,,,,,,,,,0,6,6,7,,,,,,,AFSA11.jpg,AFNE11.jpg,AFSA19.jpg,AFNE17.jpg,AFSA19.jpg,FS,4,num_2,16,num_2,1.68306467682,,,2018_Feb_15_1649,59.9929382117,FEMA4ImagesEEG,001,202854,
AMSA21.JPG,AMNE22.JPG,AMNE21.JPG,AMSA23.JPG,AMSA22.JPG,AMNE23.JPG,,,,,,,,,,,,,,,,,0,7,7,1,,,,,,,AFSA12.jpg,AFNE17.jpg,AFSA02.jpg,AFNE14.jpg,AFSA12.jpg,FS,4,num_8,16,num_8,3.29992427328,,,2018_Feb_15_1649,59.9929382117,FEMA4ImagesEEG,001,202854,
AFNE22.JPG,AFSA24.JPG,AFSA22.JPG,AFNE25.JPG,AFNE24.JPG,AFSA25.JPG,,,,,,,,,,,,,,,,,0,8,8,6,,,,,,,AFNE02.jpg,AFSA17.jpg,AFSA18.jpg,AFNE14.jpg,AFNE02.jpg,FN,3,num_8,32,num_6,1.16673022648,,,2018_Feb_15_1649,59.9929382117,FEMA4ImagesEEG,001,202854,
AFSA25.JPG,AFNE24.JPG,AFSA24.JPG,AFNE21.JPG,AFSA21.JPG,AFNE25.JPG,,,,,,,,,,,,,,,,,0,9,9,2,,,,,,,AFNE06.jpg,AFNE08.jpg,AFSA20.jpg,AFSA17.jpg,AFSA20.jpg,FS,4,num_2,32,num_4,1.2834722721,,,2018_Feb_15_1649,59.9929382117,FEMA4ImagesEEG,001,202854,
AFNE23.JPG,AFNE24.JPG,AFNE22.JPG,AFSA24.JPG,AFSA22.JPG,AFSA23.JPG,,,,,,,,,,,,,,,,,,,,,0,0,0,8,,,AMNE11.jpg,AMSA05.jpg,AMNE06.jpg,AMSA15.jpg,AMSA05.jpg,MS,2,num_6,16,num_6,0.90008906927,,,2018_Feb_15_1649,59.9929382117,FEMA4ImagesEEG,001,202854,
AMSA21.JPG,AMNE22.JPG,AMNE21.JPG,AMSA23.JPG,AMSA22.JPG,AMNE23.JPG,,,,,,,,,,,,,,,,,,,,,0,1,1,1,,,AMNE10.jpg,AMNE05.jpg,AMSA05.jpg,AMSA07.jpg,AMSA07.jpg,MS,2,num_4,32,num_2,2.25000569317,,,2018_Feb_15_1649,59.9929382117,FEMA4ImagesEEG,001,202854,
AFNE22.JPG,AFSA24.JPG,AFSA22.JPG,AFNE25.JPG,AFNE24.JPG,AFSA25.JPG,,,,,,,,,,,,,,,,,,,,,0,2,2,6,,,AMNE06.jpg,AMSA16.jpg,AMSA07.jpg,AMNE08.jpg,AMNE08.jpg,MN,1,num_4,16,num_4,0.933436974883,,,2018_Feb_15_1649,59.9929382117,FEMA4ImagesEEG,001,202854,
AFSA21.JPG,AFNE23.JPG,AFNE21.JPG,AFSA25.JPG,AFNE25.JPG,AFSA23.JPG,,,,,,,,,,,,,,,,,,,,,0,3,3,4,,,AMSA13.jpg,AMSA10.jpg,AMNE13.jpg,AMNE17.jpg,AMNE17.jpg,MN,1,num_4,32,num_8,1.11679272261,,,2018_Feb_15_1649,59.9929382117,FEMA4ImagesEEG,001,202854,
AFSA21.JPG,AFNE22.JPG,AFNE21.JPG,AFSA23.JPG,AFSA22.JPG,AFNE23.JPG,,,,,,,,,,,,,,,,,,,,,0,4,4,0,,,AMSA10.jpg,AMNE10.jpg,AMNE04.jpg,AMSA15.jpg,AMSA10.jpg,MS,2,num_8,32,num_6,1.4334528516,,,2018_Feb_15_1649,59.9929382117,FEMA4ImagesEEG,001,202854,
AMNE22.JPG,AMSA24.JPG,AMSA22.JPG,AMNE25.JPG,AMNE24.JPG,AMSA25.JPG,,,,,,,,,,,,,,,,,,,,,0,5,5,7,,,AMSA14.jpg,AMNE09.jpg,AMNE06.jpg,AMSA09.jpg,AMSA14.jpg,MS,2,num_8,16,num_8,0.650089470204,,,2018_Feb_15_1649,59.9929382117,FEMA4ImagesEEG,001,202854,
AMNE23.JPG,AMNE24.JPG,AMNE22.JPG,AMSA24.JPG,AMSA22.JPG,AMSA23.JPG,,,,,,,,,,,,,,,,,,,,,0,6,6,9,,,AMSA14.jpg,AMSA03.jpg,AMNE03.jpg,AMNE20.jpg,AMSA03.jpg,MS,2,num_6,32,num_2,1.03313653846,,,2018_Feb_15_1649,59.9929382117,FEMA4ImagesEEG,001,202854,
AMSA25.JPG,AMNE24.JPG,AMSA24.JPG,AMNE26.JPG,AMSA21.JPG,AMNE25.JPG,,,,,,,,,,,,,,,,,,,,,0,7,7,3,,,AMSA12.jpg,AMNE13.jpg,AMSA19.jpg,AMNE08.jpg,AMNE13.jpg,MN,1,num_6,32,num_4,0.716813827166,,,2018_Feb_15_1649,59.9929382117,FEMA4ImagesEEG,001,202854,
AFSA25.JPG,AFNE24.JPG,AFSA24.JPG,AFNE21.JPG,AFSA21.JPG,AFNE25.JPG,,,,,,,,,,,,,,,,,,,,,0,8,8,2,,,AMNE04.jpg,AMSA14.jpg,AMSA06.jpg,AMNE17.jpg,AMNE04.jpg,MN,1,num_8,16,num_8,1.36673073983,,,2018_Feb_15_1649,59.9929382117,FEMA4ImagesEEG,001,202854,
AMSA21.JPG,AMNE23.JPG,AMNE21.JPG,AMSA25.JPG,AMNE25.JPG,AMSA23.JPG,,,,,,,,,,,,,,,,,,,,,0,9,9,5,,,AMSA11.jpg,AMNE06.jpg,AMNE01.jpg,AMSA02.jpg,AMSA02.jpg,MS,2,num_4,32,num_8,1.63343187515,,,2018_Feb_15_1649,59.9929382117,FEMA4ImagesEEG,001,202854,
,,,,,,,,,,,,,,,,,,,,,,,,,,,,,,,,,,,,,,,,,,,space,6.54966086615,2018_Feb_15_1649,59.9929382117,FEMA4ImagesEEG,001,202854,
AFNE01.JPG,AFNE01.JPG,AFNE01.JPG,AFNE01.JPG,AFNE01.JPG,AFNE01.JPG,0,0,0,8,,,,,,,,,,,,,,,,,,,,,,,AFNE17.jpg,AFSA14.jpg,AFNE18.jpg,AFSA13.jpg,AFNE18.jpg,FN,3,num_2,16,num_2,1.25011249934,,,2018_Feb_15_1649,59.9929382117,FEMA4ImagesEEG,001,202854,
AFNE01.JPG,AFNE01.JPG,AFNE01.JPG,AFNE01.JPG,AFNE01.JPG,AFNE01.JPG,0,1,1,0,,,,,,,,,,,,,,,,,,,,,,,AFSA03.jpg,AFSA13.jpg,AFNE17.jpg,AFNE18.jpg,AFNE17.jpg,FN,3,num_2,32,num_8,0.816807508701,,,2018_Feb_15_1649,59.9929382117,FEMA4ImagesEEG,001,202854,
AFNE01.JPG,AFNE01.JPG,AFNE01.JPG,AFNE01.JPG,AFNE01.JPG,AFNE01.JPG,0,2,2,1,,,,,,,,,,,,,,,,,,,,,,,AFNE03.jpg,AFNE20.jpg,AFSA07.jpg,AFSA11.jpg,AFSA11.jpg,FS,4,num_4,16,num_4,1.11678823223,,,2018_Feb_15_1649,59.9929382117,FEMA4ImagesEEG,001,202854,
AFNE01.JPG,AFNE01.JPG,AFNE01.JPG,AFNE01.JPG,AFNE01.JPG,AFNE01.JPG,0,3,3,5,,,,,,,,,,,,,,,,,,,,,,,AFNE10.jpg,AFSA08.jpg,AFNE19.jpg,AFSA13.jpg,AFNE19.jpg,FN,3,num_2,16,num_2,1.0000012829,,,2018_Feb_15_1649,59.9929382117,FEMA4ImagesEEG,001,202854,
AFNE01.JPG,AFNE01.JPG,AFNE01.JPG,AFNE01.JPG,AFNE01.JPG,AFNE01.JPG,0,4,4,7,,,,,,,,,,,,,,,,,,,,,,,AFSA06.jpg,AFNE20.jpg,AFNE01.jpg,AFSA15.jpg,AFSA06.jpg,FS,4,num_8,32,num_2,2.61666747392,,,2018_Feb_15_1649,59.9929382117,FEMA4ImagesEEG,001,202854,
AFNE01.JPG,AFNE01.JPG,AFNE01.JPG,AFNE01.JPG,AFNE01.JPG,AFNE01.JPG,0,5,5,4,,,,,,,,,,,,,,,,,,,,,,,AFNE20.jpg,AFSA05.jpg,AFNE01.jpg,AFSA14.jpg,AFNE20.jpg,FN,3,num_8,32,num_2,1.39976560371,,,2018_Feb_15_1649,59.9929382117,FEMA4ImagesEEG,001,202854,
AFNE01.JPG,AFNE01.JPG,AFNE01.JPG,AFNE01.JPG,AFNE01.JPG,AFNE01.JPG,0,6,6,3,,,,,,,,,,,,,,,,,,,,,,,AFNE03.jpg,AFNE09.jpg,AFSA12.jpg,AFSA06.jpg,AFNE03.jpg,FN,3,num_8,32,num_2,1.28343153838,,,2018_Feb_15_1649,59.9929382117,FEMA4ImagesEEG,001,202854,
AFNE01.JPG,AFNE01.JPG,AFNE01.JPG,AFNE01.JPG,AFNE01.JPG,AFNE01.JPG,0,7,7,9,,,,,,,,,,,,,,,,,,,,,,,AFSA04.jpg,AFSA10.jpg,AFNE09.jpg,AFNE05.jpg,AFSA10.jpg,FS,4,num_6,16,num_6,0.683487731731,,,2018_Feb_15_1649,59.9929382117,FEMA4ImagesEEG,001,202854,
AFNE01.JPG,AFNE01.JPG,AFNE01.JPG,AFNE01.JPG,AFNE01.JPG,AFNE01.JPG,0,8,8,2,,,,,,,,,,,,,,,,,,,,,,,AFSA02.jpg,AFNE03.jpg,AFNE09.jpg,AFSA13.jpg,AFNE09.jpg,FN,3,num_2,16,num_2,0.800243569538,,,2018_Feb_15_1649,59.9929382117,FEMA4ImagesEEG,001,202854,
AFNE01.JPG,AFNE01.JPG,AFNE01.JPG,AFNE01.JPG,AFNE01.JPG,AFNE01.JPG,0,9,9,6,,,,,,,,,,,,,,,,,,,,,,,AFNE04.jpg,AFSA10.jpg,AFNE11.jpg,AFSA01.jpg,AFSA10.jpg,FS,4,num_6,32,num_4,2.70001029572,,,2018_Feb_15_1649,59.9929382117,FEMA4ImagesEEG,001,202854,
AFNE01.JPG,AFNE01.JPG,AFNE01.JPG,AFNE01.JPG,AFNE01.JPG,AFNE01.JPG,1,0,10,9,,,,,,,,,,,,,,,,,,,,,,,AFSA06.jpg,AFSA20.jpg,AFNE18.jpg,AFNE13.jpg,AFNE18.jpg,FN,3,num_2,32,num_6,1.11675872421,,,2018_Feb_15_1649,59.9929382117,FEMA4ImagesEEG,001,202854,
AFNE01.JPG,AFNE01.JPG,AFNE01.JPG,AFNE01.JPG,AFNE01.JPG,AFNE01.JPG,1,1,11,6,,,,,,,,,,,,,,,,,,,,,,,AFSA01.jpg,AFSA10.jpg,AFNE03.jpg,AFNE02.jpg,AFSA01.jpg,FS,4,num_8,32,num_4,1.15012010094,,,2018_Feb_15_1649,59.9929382117,FEMA4ImagesEEG,001,202854,
AFNE01.JPG,AFNE01.JPG,AFNE01.JPG,AFNE01.JPG,AFNE01.JPG,AFNE01.JPG,1,2,12,7,,,,,,,,,,,,,,,,,,,,,,,AFSA19.jpg,AFNE11.jpg,AFSA11.jpg,AFNE13.jpg,AFSA11.jpg,FS,4,num_2,32,num_6,1.58337473543,,,2018_Feb_15_1649,59.9929382117,FEMA4ImagesEEG,001,202854,
AFNE01.JPG,AFNE01.JPG,AFNE01.JPG,AFNE01.JPG,AFNE01.JPG,AFNE01.JPG,1,3,13,5,,,,,,,,,,,,,,,,,,,,,,,AFSA14.jpg,AFNE03.jpg,AFNE15.jpg,AFSA19.jpg,AFSA19.jpg,FS,4,num_4,32,num_2,2.83321268205,,,2018_Feb_15_1649,59.9929382117,FEMA4ImagesEEG,001,202854,
AFNE01.JPG,AFNE01.JPG,AFNE01.JPG,AFNE01.JPG,AFNE01.JPG,AFNE01.JPG,1,4,14,8,,,,,,,,,,,,,,,,,,,,,,,AFNE04.jpg,AFSA10.jpg,AFNE19.jpg,AFSA15.jpg,AFNE04.jpg,FN,3,num_8,16,num_8,1.88337566564,,,2018_Feb_15_1649,59.9929382117,FEMA4ImagesEEG,001,202854,
AFNE01.JPG,AFNE01.JPG,AFNE01.JPG,AFNE01.JPG,AFNE01.JPG,AFNE01.JPG,1,5,15,0,,,,,,,,,,,,,,,,,,,,,,,AFSA20.jpg,AFNE06.jpg,AFNE05.jpg,AFSA06.jpg,AFSA20.jpg,FS,4,num_8,32,num_2,2.64996053302,,,2018_Feb_15_1649,59.9929382117,FEMA4ImagesEEG,001,202854,
AFNE01.JPG,AFNE01.JPG,AFNE01.JPG,AFNE01.JPG,AFNE01.JPG,AFNE01.JPG,1,6,16,3,,,,,,,,,,,,,,,,,,,,,,,AFNE11.jpg,AFSA05.jpg,AFSA18.jpg,AFNE16.jpg,AFSA18.jpg,FS,4,num_2,32,num_8,3.44996771752,,,2018_Feb_15_1649,59.9929382117,FEMA4ImagesEEG,001,202854,
AFNE01.JPG,AFNE01.JPG,AFNE01.JPG,AFNE01.JPG,AFNE01.JPG,AFNE01.JPG,1,7,17,1,,,,,,,,,,,,,,,,,,,,,,,AFNE01.jpg,AFSA05.jpg,AFNE15.jpg,AFSA12.jpg,AFSA12.jpg,FS,4,num_4,32,num_6,0.866737635573,,,2018_Feb_15_1649,59.9929382117,FEMA4ImagesEEG,001,202854,
AFNE01.JPG,AFNE01.JPG,AFNE01.JPG,AFNE01.JPG,AFNE01.JPG,AFNE01.JPG,1,8,18,2,,,,,,,,,,,,,,,,,,,,,,,AFNE15.jpg,AFSA14.jpg,AFNE01.jpg,AFSA07.jpg,AFNE15.jpg,FN,3,num_8,32,num_4,0.66681121313,,,2018_Feb_15_1649,59.9929382117,FEMA4ImagesEEG,001,202854,
AFNE01.JPG,AFNE01.JPG,AFNE01.JPG,AFNE01.JPG,AFNE01.JPG,AFNE01.JPG,1,9,19,4,,,,,,,,,,,,,,,,,,,,,,,AFSA08.jpg,AFSA13.jpg,AFNE04.jpg,AFNE01.jpg,AFNE04.jpg,FN,3,num_2,32,num_8,1.73322958476,,,2018_Feb_15_1649,59.9929382117,FEMA4ImagesEEG,001,202854,
AFNE01.JPG,AFNE01.JPG,AFNE01.JPG,AFNE01.JPG,AFNE01.JPG,AFNE01.JPG,2,0,20,4,,,,,,,,,,,,,,,,,,,,,,,AFSA02.jpg,AFNE08.jpg,AFSA09.jpg,AFNE07.jpg,AFSA09.jpg,FS,4,num_2,16,num_2,0.833464141469,,,2018_Feb_15_1649,59.9929382117,FEMA4ImagesEEG,001,202854,
AFNE01.JPG,AFNE01.JPG,AFNE01.JPG,AFNE01.JPG,AFNE01.JPG,AFNE01.JPG,2,1,21,0,,,,,,,,,,,,,,,,,,,,,,,AFNE02.jpg,AFNE09.jpg,AFSA09.jpg,AFSA12.jpg,AFSA12.jpg,FS,4,num_4,16,num_4,1.06673365855,,,2018_Feb_15_1649,59.9929382117,FEMA4ImagesEEG,001,202854,
AFNE01.JPG,AFNE01.JPG,AFNE01.JPG,AFNE01.JPG,AFNE01.JPG,AFNE01.JPG,2,2,22,3,,,,,,,,,,,,,,,,,,,,,,,AFSA14.jpg,AFSA08.jpg,AFNE17.jpg,AFNE07.jpg,AFSA08.jpg,FS,4,num_6,32,num_2,1.01672527124,,,2018_Feb_15_1649,59.9929382117,FEMA4ImagesEEG,001,202854,
AFNE01.JPG,AFNE01.JPG,AFNE01.JPG,AFNE01.JPG,AFNE01.JPG,AFNE01.JPG,2,3,23,6,,,,,,,,,,,,,,,,,,,,,,,AFNE16.jpg,AFSA18.jpg,AFSA01.jpg,AFNE07.jpg,AFSA01.jpg,FS,4,num_2,32,num_4,1.15006749961,,,2018_Feb_15_1649,59.9929382117,FEMA4ImagesEEG,001,202854,
AFNE01.JPG,AFNE01.JPG,AFNE01.JPG,AFNE01.JPG,AFNE01.JPG,AFNE01.JPG,2,4,24,8,,,,,,,,,,,,,,,,,,,,,,,AFSA17.jpg,AFSA02.jpg,AFNE18.jpg,AFNE08.jpg,AFNE18.jpg,FN,3,num_2,16,num_2,1.25010832958,,,2018_Feb_15_1649,59.9929382117,FEMA4ImagesEEG,001,202854,
AFNE01.JPG,AFNE01.JPG,AFNE01.JPG,AFNE01.JPG,AFNE01.JPG,AFNE01.JPG,2,5,25,5,,,,,,,,,,,,,,,,,,,,,,,AFNE02.jpg,AFNE07.jpg,AFSA11.jpg,AFSA05.jpg,AFSA05.jpg,FS,4,num_4,16,num_4,0.683432885446,,,2018_Feb_15_1649,59.9929382117,FEMA4ImagesEEG,001,202854,
AFNE01.JPG,AFNE01.JPG,AFNE01.JPG,AFNE01.JPG,AFNE01.JPG,AFNE01.JPG,2,6,26,9,,,,,,,,,,,,,,,,,,,,,,,AFSA08.jpg,AFSA06.jpg,AFNE06.jpg,AFNE07.jpg,AFSA08.jpg,FS,4,num_8,16,num_8,1.28348189453,,,2018_Feb_15_1649,59.9929382117,FEMA4ImagesEEG,001,202854,
AFNE01.JPG,AFNE01.JPG,AFNE01.JPG,AFNE01.JPG,AFNE01.JPG,AFNE01.JPG,2,7,27,1,,,,,,,,,,,,,,,,,,,,,,,AFNE11.jpg,AFSA16.jpg,AFSA17.jpg,AFNE01.jpg,AFSA17.jpg,FS,4,num_2,32,num_8,1.91667546029,,,2018_Feb_15_1649,59.9929382117,FEMA4ImagesEEG,001,202854,
AFNE01.JPG,AFNE01.JPG,AFNE01.JPG,AFNE01.JPG,AFNE01.JPG,AFNE01.JPG,2,8,28,7,,,,,,,,,,,,,,,,,,,,,,,AFSA20.jpg,AFSA14.jpg,AFNE18.jpg,AFNE03.jpg,AFNE03.jpg,FN,3,num_4,32,num_2,0.950113814324,,,2018_Feb_15_1649,59.9929382117,FEMA4ImagesEEG,001,202854,
AFNE01.JPG,AFNE01.JPG,AFNE01.JPG,AFNE01.JPG,AFNE01.JPG,AFNE01.JPG,2,9,29,2,,,,,,,,,,,,,,,,,,,,,,,AFNE09.jpg,AFSA09.jpg,AFSA16.jpg,AFNE19.jpg,AFNE09.jpg,FN,3,num_8,32,num_6,1.03346914495,,,2018_Feb_15_1649,59.9929382117,FEMA4ImagesEEG,001,202854,
AFNE01.JPG,AFNE01.JPG,AFNE01.JPG,AFNE01.JPG,AFNE01.JPG,AFNE01.JPG,3,0,30,8,,,,,,,,,,,,,,,,,,,,,,,AFNE20.jpg,AFNE16.jpg,AFSA08.jpg,AFSA03.jpg,AFNE20.jpg,FN,3,num_8,16,num_8,1.44990645628,,,2018_Feb_15_1649,59.9929382117,FEMA4ImagesEEG,001,202854,
AFNE01.JPG,AFNE01.JPG,AFNE01.JPG,AFNE01.JPG,AFNE01.JPG,AFNE01.JPG,3,1,31,2,,,,,,,,,,,,,,,,,,,,,,,AFNE01.jpg,AFSA19.jpg,AFNE20.jpg,AFSA07.jpg,AFNE20.jpg,FN,3,num_2,32,num_4,0.966781352181,,,2018_Feb_15_1649,59.9929382117,FEMA4ImagesEEG,001,202854,
AFNE01.JPG,AFNE01.JPG,AFNE01.JPG,AFNE01.JPG,AFNE01.JPG,AFNE01.JPG,3,2,32,3,,,,,,,,,,,,,,,,,,,,,,,AFSA14.jpg,AFNE08.jpg,AFNE13.jpg,AFSA02.jpg,AFSA14.jpg,FS,4,num_8,32,num_2,1.13344101608,,,2018_Feb_15_1649,59.9929382117,FEMA4ImagesEEG,001,202854,
AFNE01.JPG,AFNE01.JPG,AFNE01.JPG,AFNE01.JPG,AFNE01.JPG,AFNE01.JPG,3,3,33,1,,,,,,,,,,,,,,,,,,,,,,,AFSA18.jpg,AFNE08.jpg,AFNE05.jpg,AFSA19.jpg,AFSA19.jpg,FS,4,num_4,32,num_8,1.58344626031,,,2018_Feb_15_1649,59.9929382117,FEMA4ImagesEEG,001,202854,
AFNE01.JPG,AFNE01.JPG,AFNE01.JPG,AFNE01.JPG,AFNE01.JPG,AFNE01.JPG,3,4,34,6,,,,,,,,,,,,,,,,,,,,,,,AFNE15.jpg,AFSA03.jpg,AFNE19.jpg,AFSA05.jpg,AFNE19.jpg,FN,3,num_2,32,num_6,1.53335191472,,,2018_Feb_15_1649,59.9929382117,FEMA4ImagesEEG,001,202854,
AFNE01.JPG,AFNE01.JPG,AFNE01.JPG,AFNE01.JPG,AFNE01.JPG,AFNE01.JPG,3,5,35,7,,,,,,,,,,,,,,,,,,,,,,,AFNE20.jpg,AFSA04.jpg,AFNE16.jpg,AFSA11.jpg,AFNE20.jpg,FN,3,num_8,32,num_2,2.38308844343,,,2018_Feb_15_1649,59.9929382117,FEMA4ImagesEEG,001,202854,
AFNE01.JPG,AFNE01.JPG,AFNE01.JPG,AFNE01.JPG,AFNE01.JPG,AFNE01.JPG,3,6,36,4,,,,,,,,,,,,,,,,,,,,,,,AFSA20.jpg,AFNE12.jpg,AFSA19.jpg,AFNE01.jpg,AFSA19.jpg,FS,4,num_2,32,num_6,0.833447142504,,,2018_Feb_15_1649,59.9929382117,FEMA4ImagesEEG,001,202854,
AFNE01.JPG,AFNE01.JPG,AFNE01.JPG,AFNE01.JPG,AFNE01.JPG,AFNE01.JPG,3,7,37,0,,,,,,,,,,,,,,,,,,,,,,,AFNE02.jpg,AFSA06.jpg,AFNE14.jpg,AFSA07.jpg,AFSA06.jpg,FS,4,num_6,32,num_4,2.53330636979,,,2018_Feb_15_1649,59.9929382117,FEMA4ImagesEEG,001,202854,
AFNE01.JPG,AFNE01.JPG,AFNE01.JPG,AFNE01.JPG,AFNE01.JPG,AFNE01.JPG,3,8,38,5,,,,,,,,,,,,,,,,,,,,,,,AFSA17.jpg,AFSA09.jpg,AFNE01.jpg,AFNE17.jpg,AFNE17.jpg,FN,3,num_4,32,num_2,1.20014067623,,,2018_Feb_15_1649,59.9929382117,FEMA4ImagesEEG,001,202854,
AFNE01.JPG,AFNE01.JPG,AFNE01.JPG,AFNE01.JPG,AFNE01.JPG,AFNE01.JPG,3,9,39,9,,,,,,,,,,,,,,,,,,,,,,,AFSA02.jpg,AFNE11.jpg,AFSA04.jpg,AFNE17.jpg,AFSA02.jpg,FS,4,num_8,16,num_8,2.48339837394,,,2018_Feb_15_1649,59.9929382117,FEMA4ImagesEEG,001,202854,
AFNE01.JPG,AFNE01.JPG,AFNE01.JPG,AFNE01.JPG,AFNE01.JPG,AFNE01.JPG,4,0,40,2,,,,,,,,,,,,,,,,,,,,,,,AFNE18.jpg,AFSA16.jpg,AFNE12.jpg,AFSA12.jpg,AFSA12.jpg,FS,4,num_4,16,num_4,1.25005380413,,,2018_Feb_15_1649,59.9929382117,FEMA4ImagesEEG,001,202854,
AFNE01.JPG,AFNE01.JPG,AFNE01.JPG,AFNE01.JPG,AFNE01.JPG,AFNE01.JPG,4,1,41,8,,,,,,,,,,,,,,,,,,,,,,,AFNE09.jpg,AFNE13.jpg,AFSA06.jpg,AFSA16.jpg,AFNE09.jpg,FN,3,num_8,16,num_8,1.56670751818,,,2018_Feb_15_1649,59.9929382117,FEMA4ImagesEEG,001,202854,
AFNE01.JPG,AFNE01.JPG,AFNE01.JPG,AFNE01.JPG,AFNE01.JPG,AFNE01.JPG,4,2,42,4,,,,,,,,,,,,,,,,,,,,,,,AFSA04.jpg,AFNE15.jpg,AFSA16.jpg,AFNE07.jpg,AFSA16.jpg,FS,4,num_2,16,num_2,1.85007619159,,,2018_Feb_15_1649,59.9929382117,FEMA4ImagesEEG,001,202854,
AFNE01.JPG,AFNE01.JPG,AFNE01.JPG,AFNE01.JPG,AFNE01.JPG,AFNE01.JPG,4,3,43,3,,,,,,,,,,,,,,,,,,,,,,,AFSA13.jpg,AFNE18.jpg,AFNE03.jpg,AFSA06.jpg,AFNE18.jpg,FN,3,num_6,16,num_6,0.783469545888,,,2018_Feb_15_1649,59.9929382117,FEMA4ImagesEEG,001,202854,
AFNE01.JPG,AFNE01.JPG,AFNE01.JPG,AFNE01.JPG,AFNE01.JPG,AFNE01.JPG,4,4,44,1,,,,,,,,,,,,,,,,,,,,,,,AFNE17.jpg,AFSA20.jpg,AFNE08.jpg,AFSA04.jpg,AFNE17.jpg,FN,3,num_8,32,num_4,3.61653276323,,,2018_Feb_15_1649,59.9929382117,FEMA4ImagesEEG,001,202854,
AFNE01.JPG,AFNE01.JPG,AFNE01.JPG,AFNE01.JPG,AFNE01.JPG,AFNE01.JPG,4,5,45,6,,,,,,,,,,,,,,,,,,,,,,,AFSA05.jpg,AFNE11.jpg,AFNE20.jpg,AFSA02.jpg,AFNE20.jpg,FN,3,num_2,32,num_8,1.20007749065,,,2018_Feb_15_1649,59.9929382117,FEMA4ImagesEEG,001,202854,
AFNE01.JPG,AFNE01.JPG,AFNE01.JPG,AFNE01.JPG,AFNE01.JPG,AFNE01.JPG,4,6,46,7,,,,,,,,,,,,,,,,,,,,,,,AFNE20.jpg,AFSA02.jpg,AFSA20.jpg,AFNE05.jpg,AFNE20.jpg,FN,3,num_8,16,num_8,1.43342302251,,,2018_Feb_15_1649,59.9929382117,FEMA4ImagesEEG,001,202854,
AFNE01.JPG,AFNE01.JPG,AFNE01.JPG,AFNE01.JPG,AFNE01.JPG,AFNE01.JPG,4,7,47,9,,,,,,,,,,,,,,,,,,,,,,,AFSA07.jpg,AFSA13.jpg,AFNE04.jpg,AFNE02.jpg,AFNE04.jpg,FN,3,num_2,16,num_2,1.80005305028,,,2018_Feb_15_1649,59.9929382117,FEMA4ImagesEEG,001,202854,
AFNE01.JPG,AFNE01.JPG,AFNE01.JPG,AFNE01.JPG,AFNE01.JPG,AFNE01.JPG,4,8,48,0,,,,,,,,,,,,,,,,,,,,,,,AFSA08.jpg,AFSA20.jpg,AFNE02.jpg,AFNE14.jpg,AFNE14.jpg,FN,3,num_4,16,num_4,2.16663496708,,,2018_Feb_15_1649,59.9929382117,FEMA4ImagesEEG,001,202854,
AFNE01.JPG,AFNE01.JPG,AFNE01.JPG,AFNE01.JPG,AFNE01.JPG,AFNE01.JPG,4,9,49,5,,,,,,,,,,,,,,,,,,,,,,,AFNE15.jpg,AFSA08.jpg,AFNE04.jpg,AFSA04.jpg,AFSA04.jpg,FS,4,num_4,32,num_2,0.650150410831,,,2018_Feb_15_1649,59.9929382117,FEMA4ImagesEEG,001,202854,
AFNE01.JPG,AFNE01.JPG,AFNE01.JPG,AFNE01.JPG,AFNE01.JPG,AFNE01.JPG,5,0,50,4,,,,,,,,,,,,,,,,,,,,,,,AFNE10.jpg,AFSA16.jpg,AFSA13.jpg,AFNE03.jpg,AFNE03.jpg,FN,3,num_4,16,num_4,1.58342829882,,,2018_Feb_15_1649,59.9929382117,FEMA4ImagesEEG,001,202854,
AFNE01.JPG,AFNE01.JPG,AFNE01.JPG,AFNE01.JPG,AFNE01.JPG,AFNE01.JPG,5,1,51,0,,,,,,,,,,,,,,,,,,,,,,,AFSA08.jpg,AFSA02.jpg,AFNE14.jpg,AFNE11.jpg,AFNE11.jpg,FN,3,num_4,16,num_4,1.70007765107,,,2018_Feb_15_1649,59.9929382117,FEMA4ImagesEEG,001,202854,
AFNE01.JPG,AFNE01.JPG,AFNE01.JPG,AFNE01.JPG,AFNE01.JPG,AFNE01.JPG,5,2,52,6,,,,,,,,,,,,,,,,,,,,,,,AFNE08.jpg,AFSA20.jpg,AFNE15.jpg,AFSA01.jpg,AFNE15.jpg,FN,3,num_2,16,num_2,0.833433029708,,,2018_Feb_15_1649,59.9929382117,FEMA4ImagesEEG,001,202854,
AFNE01.JPG,AFNE01.JPG,AFNE01.JPG,AFNE01.JPG,AFNE01.JPG,AFNE01.JPG,5,3,53,3,,,,,,,,,,,,,,,,,,,,,,,AFSA05.jpg,AFNE11.jpg,AFNE04.jpg,AFSA15.jpg,AFSA15.jpg,FS,4,num_4,32,num_8,2.13336115214,,,2018_Feb_15_1649,59.9929382117,FEMA4ImagesEEG,001,202854,
AFNE01.JPG,AFNE01.JPG,AFNE01.JPG,AFNE01.JPG,AFNE01.JPG,AFNE01.JPG,5,4,54,7,,,,,,,,,,,,,,,,,,,,,,,AFSA15.jpg,AFNE04.jpg,AFSA08.jpg,AFNE03.jpg,AFNE04.jpg,FN,3,num_6,32,num_8,1.98337672395,,,2018_Feb_15_1649,59.9929382117,FEMA4ImagesEEG,001,202854,
AFNE01.JPG,AFNE01.JPG,AFNE01.JPG,AFNE01.JPG,AFNE01.JPG,AFNE01.JPG,5,5,55,1,,,,,,,,,,,,,,,,,,,,,,,AFSA17.jpg,AFNE18.jpg,AFNE09.jpg,AFSA01.jpg,AFNE18.jpg,FN,3,num_6,16,num_6,2.23334168317,,,2018_Feb_15_1649,59.9929382117,FEMA4ImagesEEG,001,202854,
AFNE01.JPG,AFNE01.JPG,AFNE01.JPG,AFNE01.JPG,AFNE01.JPG,AFNE01.JPG,5,6,56,5,,,,,,,,,,,,,,,,,,,,,,,AFNE18.jpg,AFNE04.jpg,AFSA08.jpg,AFSA19.jpg,AFSA19.jpg,FS,4,num_4,16,num_4,1.08346406138,,,2018_Feb_15_1649,59.9929382117,FEMA4ImagesEEG,001,202854,
AFNE01.JPG,AFNE01.JPG,AFNE01.JPG,AFNE01.JPG,AFNE01.JPG,AFNE01.JPG,5,7,57,9,,,,,,,,,,,,,,,,,,,,,,,AFNE20.jpg,AFSA06.jpg,AFSA10.jpg,AFNE11.jpg,AFSA06.jpg,FS,4,num_6,32,num_8,1.15032569482,,,2018_Feb_15_1649,59.9929382117,FEMA4ImagesEEG,001,202854,
AFNE01.JPG,AFNE01.JPG,AFNE01.JPG,AFNE01.JPG,AFNE01.JPG,AFNE01.JPG,5,8,58,2,,,,,,,,,,,,,,,,,,,,,,,AFSA11.jpg,AFNE05.jpg,AFNE19.jpg,AFSA20.jpg,AFNE05.jpg,FN,3,num_6,16,num_6,1.23343469761,,,2018_Feb_15_1649,59.9929382117,FEMA4ImagesEEG,001,202854,
AFNE01.JPG,AFNE01.JPG,AFNE01.JPG,AFNE01.JPG,AFNE01.JPG,AFNE01.JPG,5,9,59,8,,,,,,,,,,,,,,,,,,,,,,,AFNE03.jpg,AFSA01.jpg,AFNE11.jpg,AFSA04.jpg,AFSA04.jpg,FS,4,num_4,32,num_6,3.7999231508,,,2018_Feb_15_1649,59.9929382117,FEMA4ImagesEEG,001,202854,
,,,,,,,,,,,,,,,,,,,,,,,,,,,,,,,,,,,,,,,,,,,space,3.26655295375,2018_Feb_15_1649,59.9929382117,FEMA4ImagesEEG,001,202854,
AFNE01.JPG,AFNE01.JPG,AFNE01.JPG,AFNE01.JPG,AFNE01.JPG,AFNE01.JPG,,,,,0,0,0,7,,,,,,,,,,,,,,,,,,,AMNE14.jpg,AMNE18.jpg,AMSA12.jpg,AMSA18.jpg,AMSA12.jpg,MS,2,num_2,32,num_4,1.7667150877,,,2018_Feb_15_1649,59.9929382117,FEMA4ImagesEEG,001,202854,
AFNE01.JPG,AFNE01.JPG,AFNE01.JPG,AFNE01.JPG,AFNE01.JPG,AFNE01.JPG,,,,,0,1,1,2,,,,,,,,,,,,,,,,,,,AMNE03.jpg,AMNE10.jpg,AMSA04.jpg,AMSA03.jpg,AMSA03.jpg,MS,2,num_4,32,num_2,0.583477371838,,,2018_Feb_15_1649,59.9929382117,FEMA4ImagesEEG,001,202854,
AFNE01.JPG,AFNE01.JPG,AFNE01.JPG,AFNE01.JPG,AFNE01.JPG,AFNE01.JPG,,,,,0,2,2,1,,,,,,,,,,,,,,,,,,,AMNE03.jpg,AMSA12.jpg,AMSA19.jpg,AMNE01.jpg,AMNE03.jpg,MN,1,num_8,32,num_6,0.750242559006,,,2018_Feb_15_1649,59.9929382117,FEMA4ImagesEEG,001,202854,
AFNE01.JPG,AFNE01.JPG,AFNE01.JPG,AFNE01.JPG,AFNE01.JPG,AFNE01.JPG,,,,,0,3,3,9,,,,,,,,,,,,,,,,,,,AMNE10.jpg,AMSA15.jpg,AMNE15.jpg,AMSA14.jpg,AMSA14.jpg,MS,2,num_4,16,num_4,1.13345801528,,,2018_Feb_15_1649,59.9929382117,FEMA4ImagesEEG,001,202854,
AFNE01.JPG,AFNE01.JPG,AFNE01.JPG,AFNE01.JPG,AFNE01.JPG,AFNE01.JPG,,,,,0,4,4,5,,,,,,,,,,,,,,,,,,,AMNE07.jpg,AMSA10.jpg,AMSA04.jpg,AMNE11.jpg,AMNE11.jpg,MN,1,num_4,32,num_6,0.750158525305,,,2018_Feb_15_1649,59.9929382117,FEMA4ImagesEEG,001,202854,
AFNE01.JPG,AFNE01.JPG,AFNE01.JPG,AFNE01.JPG,AFNE01.JPG,AFNE01.JPG,,,,,0,5,5,3,,,,,,,,,,,,,,,,,,,AMSA06.jpg,AMNE17.jpg,AMNE14.jpg,AMSA08.jpg,AMSA08.jpg,MS,2,num_4,32,num_8,1.23346003611,,,2018_Feb_15_1649,59.9929382117,FEMA4ImagesEEG,001,202854,
AFNE01.JPG,AFNE01.JPG,AFNE01.JPG,AFNE01.JPG,AFNE01.JPG,AFNE01.JPG,,,,,0,6,6,0,,,,,,,,,,,,,,,,,,,AMNE17.jpg,AMSA20.jpg,AMSA13.jpg,AMNE13.jpg,AMNE13.jpg,MN,1,num_4,32,num_6,1.11680843891,,,2018_Feb_15_1649,59.9929382117,FEMA4ImagesEEG,001,202854,
AFNE01.JPG,AFNE01.JPG,AFNE01.JPG,AFNE01.JPG,AFNE01.JPG,AFNE01.JPG,,,,,0,7,7,4,,,,,,,,,,,,,,,,,,,AMSA18.jpg,AMNE06.jpg,AMNE05.jpg,AMSA10.jpg,AMSA10.jpg,MS,2,num_4,16,num_4,0.916758531705,,,2018_Feb_15_1649,59.9929382117,FEMA4ImagesEEG,001,202854,
AFNE01.JPG,AFNE01.JPG,AFNE01.JPG,AFNE01.JPG,AFNE01.JPG,AFNE01.JPG,,,,,0,8,8,6,,,,,,,,,,,,,,,,,,,AMSA20.jpg,AMNE18.jpg,AMSA19.jpg,AMNE15.jpg,AMSA20.jpg,MS,2,num_8,32,num_6,0.78346794215,,,2018_Feb_15_1649,59.9929382117,FEMA4ImagesEEG,001,202854,
AFNE01.JPG,AFNE01.JPG,AFNE01.JPG,AFNE01.JPG,AFNE01.JPG,AFNE01.JPG,,,,,0,9,9,8,,,,,,,,,,,,,,,,,,,AMSA07.jpg,AMNE15.jpg,AMSA15.jpg,AMNE06.jpg,AMSA15.jpg,MS,2,num_2,16,num_2,0.716776621528,,,2018_Feb_15_1649,59.9929382117,FEMA4ImagesEEG,001,202854,
AFNE01.JPG,AFNE01.JPG,AFNE01.JPG,AFNE01.JPG,AFNE01.JPG,AFNE01.JPG,,,,,1,0,10,8,,,,,,,,,,,,,,,,,,,AMNE06.jpg,AMSA03.jpg,AMNE18.jpg,AMSA14.jpg,AMSA03.jpg,MS,2,num_6,16,num_6,1.23346292274,,,2018_Feb_15_1649,59.9929382117,FEMA4ImagesEEG,001,202854,
AFNE01.JPG,AFNE01.JPG,AFNE01.JPG,AFNE01.JPG,AFNE01.JPG,AFNE01.JPG,,,,,1,1,11,6,,,,,,,,,,,,,,,,,,,AMNE10.jpg,AMSA01.jpg,AMNE17.jpg,AMSA13.jpg,AMNE17.jpg,MN,1,num_2,32,num_8,1.56674279948,,,2018_Feb_15_1649,59.9929382117,FEMA4ImagesEEG,001,202854,
AFNE01.JPG,AFNE01.JPG,AFNE01.JPG,AFNE01.JPG,AFNE01.JPG,AFNE01.JPG,,,,,1,2,12,2,,,,,,,,,,,,,,,,,,,AMNE10.jpg,AMNE20.jpg,AMSA15.jpg,AMSA03.jpg,AMSA03.jpg,MS,2,num_4,32,num_2,2.23341032141,,,2018_Feb_15_1649,59.9929382117,FEMA4ImagesEEG,001,202854,
AFNE01.JPG,AFNE01.JPG,AFNE01.JPG,AFNE01.JPG,AFNE01.JPG,AFNE01.JPG,,,,,1,3,13,5,,,,,,,,,,,,,,,,,,,AMNE16.jpg,AMNE06.jpg,AMSA07.jpg,AMSA06.jpg,AMNE16.jpg,MN,1,num_8,32,num_4,1.0501033261,,,2018_Feb_15_1649,59.9929382117,FEMA4ImagesEEG,001,202854,
AFNE01.JPG,AFNE01.JPG,AFNE01.JPG,AFNE01.JPG,AFNE01.JPG,AFNE01.JPG,,,,,1,4,14,1,,,,,,,,,,,,,,,,,,,AMSA02.jpg,AMSA08.jpg,AMNE13.jpg,AMNE15.jpg,AMNE13.jpg,MN,1,num_2,32,num_6,3.03299733764,,,2018_Feb_15_1649,59.9929382117,FEMA4ImagesEEG,001,202854,
AFNE01.JPG,AFNE01.JPG,AFNE01.JPG,AFNE01.JPG,AFNE01.JPG,AFNE01.JPG,,,,,1,5,15,7,,,,,,,,,,,,,,,,,,,AMSA16.jpg,AMNE12.jpg,AMSA13.jpg,AMNE18.jpg,AMNE12.jpg,MN,1,num_6,32,num_8,1.66675380082,,,2018_Feb_15_1649,59.9929382117,FEMA4ImagesEEG,001,202854,
AFNE01.JPG,AFNE01.JPG,AFNE01.JPG,AFNE01.JPG,AFNE01.JPG,AFNE01.JPG,,,,,1,6,16,4,,,,,,,,,,,,,,,,,,,AMNE06.jpg,AMSA01.jpg,AMNE11.jpg,AMSA10.jpg,AMSA01.jpg,MS,2,num_6,16,num_6,2.31691319239,,,2018_Feb_15_1649,59.9929382117,FEMA4ImagesEEG,001,202854,
AFNE01.JPG,AFNE01.JPG,AFNE01.JPG,AFNE01.JPG,AFNE01.JPG,AFNE01.JPG,,,,,1,7,17,0,,,,,,,,,,,,,,,,,,,AMSA03.jpg,AMNE11.jpg,AMNE06.jpg,AMSA18.jpg,AMSA03.jpg,MS,2,num_8,32,num_4,1.13341503637,,,2018_Feb_15_1649,59.9929382117,FEMA4ImagesEEG,001,202854,
AFNE01.JPG,AFNE01.JPG,AFNE01.JPG,AFNE01.JPG,AFNE01.JPG,AFNE01.JPG,,,,,1,8,18,9,,,,,,,,,,,,,,,,,,,AMNE03.jpg,AMSA15.jpg,AMSA07.jpg,AMNE04.jpg,AMNE03.jpg,MN,1,num_8,32,num_2,1.31674031354,,,2018_Feb_15_1649,59.9929382117,FEMA4ImagesEEG,001,202854,
AFNE01.JPG,AFNE01.JPG,AFNE01.JPG,AFNE01.JPG,AFNE01.JPG,AFNE01.JPG,,,,,1,9,19,3,,,,,,,,,,,,,,,,,,,AMSA01.jpg,AMNE07.jpg,AMSA10.jpg,AMNE06.jpg,AMNE06.jpg,MN,1,num_4,32,num_6,1.03348999307,,,2018_Feb_15_1649,59.9929382117,FEMA4ImagesEEG,001,202854,
AFNE01.JPG,AFNE01.JPG,AFNE01.JPG,AFNE01.JPG,AFNE01.JPG,AFNE01.JPG,,,,,2,0,20,4,,,,,,,,,,,,,,,,,,,AMNE14.jpg,AMSA07.jpg,AMSA16.jpg,AMNE10.jpg,AMSA16.jpg,MS,2,num_2,32,num_6,1.16674177302,,,2018_Feb_15_1649,59.9929382117,FEMA4ImagesEEG,001,202854,
AFNE01.JPG,AFNE01.JPG,AFNE01.JPG,AFNE01.JPG,AFNE01.JPG,AFNE01.JPG,,,,,2,1,21,9,,,,,,,,,,,,,,,,,,,AMNE09.jpg,AMNE08.jpg,AMSA13.jpg,AMSA05.jpg,AMNE09.jpg,MN,1,num_8,32,num_6,1.53338142298,,,2018_Feb_15_1649,59.9929382117,FEMA4ImagesEEG,001,202854,
AFNE01.JPG,AFNE01.JPG,AFNE01.JPG,AFNE01.JPG,AFNE01.JPG,AFNE01.JPG,,,,,2,2,22,0,,,,,,,,,,,,,,,,,,,AMNE14.jpg,AMSA02.jpg,AMNE13.jpg,AMSA12.jpg,AMSA02.jpg,MS,2,num_6,32,num_8,1.51670105522,,,2018_Feb_15_1649,59.9929382117,FEMA4ImagesEEG,001,202854,
AFNE01.JPG,AFNE01.JPG,AFNE01.JPG,AFNE01.JPG,AFNE01.JPG,AFNE01.JPG,,,,,2,3,23,1,,,,,,,,,,,,,,,,,,,AMNE15.jpg,AMNE09.jpg,AMSA01.jpg,AMSA08.jpg,AMSA01.jpg,MS,2,num_2,32,num_4,1.36670443905,,,2018_Feb_15_1649,59.9929382117,FEMA4ImagesEEG,001,202854,
AFNE01.JPG,AFNE01.JPG,AFNE01.JPG,AFNE01.JPG,AFNE01.JPG,AFNE01.JPG,,,,,2,4,24,2,,,,,,,,,,,,,,,,,,,AMSA06.jpg,AMNE05.jpg,AMNE02.jpg,AMSA08.jpg,AMNE05.jpg,MN,1,num_6,32,num_8,1.29978218605,,,2018_Feb_15_1649,59.9929382117,FEMA4ImagesEEG,001,202854,
AFNE01.JPG,AFNE01.JPG,AFNE01.JPG,AFNE01.JPG,AFNE01.JPG,AFNE01.JPG,,,,,2,5,25,3,,,,,,,,,,,,,,,,,,,AMNE11.jpg,AMNE18.jpg,AMSA18.jpg,AMSA01.jpg,AMSA01.jpg,MS,2,num_4,32,num_8,1.16676294198,,,2018_Feb_15_1649,59.9929382117,FEMA4ImagesEEG,001,202854,
AFNE01.JPG,AFNE01.JPG,AFNE01.JPG,AFNE01.JPG,AFNE01.JPG,AFNE01.JPG,,,,,2,6,26,6,,,,,,,,,,,,,,,,,,,AMNE11.jpg,AMSA05.jpg,AMNE19.jpg,AMSA13.jpg,AMSA05.jpg,MS,2,num_6,16,num_6,1.25009068917,,,2018_Feb_15_1649,59.9929382117,FEMA4ImagesEEG,001,202854,
AFNE01.JPG,AFNE01.JPG,AFNE01.JPG,AFNE01.JPG,AFNE01.JPG,AFNE01.JPG,,,,,2,7,27,7,,,,,,,,,,,,,,,,,,,AMNE16.jpg,AMSA14.jpg,AMNE13.jpg,AMSA11.jpg,AMSA14.jpg,MS,2,num_6,16,num_6,1.25008299132,,,2018_Feb_15_1649,59.9929382117,FEMA4ImagesEEG,001,202854,
AFNE01.JPG,AFNE01.JPG,AFNE01.JPG,AFNE01.JPG,AFNE01.JPG,AFNE01.JPG,,,,,2,8,28,8,,,,,,,,,,,,,,,,,,,AMSA04.jpg,AMNE02.jpg,AMNE14.jpg,AMSA06.jpg,AMSA06.jpg,MS,2,num_4,16,num_4,1.00009365589,,,2018_Feb_15_1649,59.9929382117,FEMA4ImagesEEG,001,202854,
AFNE01.JPG,AFNE01.JPG,AFNE01.JPG,AFNE01.JPG,AFNE01.JPG,AFNE01.JPG,,,,,2,9,29,5,,,,,,,,,,,,,,,,,,,AMNE07.jpg,AMSA06.jpg,AMSA15.jpg,AMNE09.jpg,AMSA06.jpg,MS,2,num_6,16,num_6,1.18342919694,,,2018_Feb_15_1649,59.9929382117,FEMA4ImagesEEG,001,202854,
AFNE01.JPG,AFNE01.JPG,AFNE01.JPG,AFNE01.JPG,AFNE01.JPG,AFNE01.JPG,,,,,3,0,30,0,,,,,,,,,,,,,,,,,,,AMSA14.jpg,AMNE10.jpg,AMSA19.jpg,AMNE11.jpg,AMNE10.jpg,MN,1,num_6,32,num_8,1.20010892302,,,2018_Feb_15_1649,59.9929382117,FEMA4ImagesEEG,001,202854,
AFNE01.JPG,AFNE01.JPG,AFNE01.JPG,AFNE01.JPG,AFNE01.JPG,AFNE01.JPG,,,,,3,1,31,1,,,,,,,,,,,,,,,,,,,AMSA09.jpg,AMNE10.jpg,AMSA15.jpg,AMNE07.jpg,AMNE10.jpg,MN,1,num_6,16,num_6,1.01674451539,,,2018_Feb_15_1649,59.9929382117,FEMA4ImagesEEG,001,202854,
AFNE01.JPG,AFNE01.JPG,AFNE01.JPG,AFNE01.JPG,AFNE01.JPG,AFNE01.JPG,,,,,3,2,32,9,,,,,,,,,,,,,,,,,,,AMSA16.jpg,AMSA12.jpg,AMNE12.jpg,AMNE18.jpg,AMNE18.jpg,MN,1,num_4,32,num_8,1.20013394067,,,2018_Feb_15_1649,59.9929382117,FEMA4ImagesEEG,001,202854,
AFNE01.JPG,AFNE01.JPG,AFNE01.JPG,AFNE01.JPG,AFNE01.JPG,AFNE01.JPG,,,,,3,3,33,3,,,,,,,,,,,,,,,,,,,AMSA11.jpg,AMNE12.jpg,AMSA19.jpg,AMNE15.jpg,AMSA11.jpg,MS,2,num_8,32,num_6,3.09998726659,,,2018_Feb_15_1649,59.9929382117,FEMA4ImagesEEG,001,202854,
AFNE01.JPG,AFNE01.JPG,AFNE01.JPG,AFNE01.JPG,AFNE01.JPG,AFNE01.JPG,,,,,3,4,34,8,,,,,,,,,,,,,,,,,,,AMNE03.jpg,AMNE15.jpg,AMSA05.jpg,AMSA10.jpg,AMNE03.jpg,MN,1,num_8,48,None,,,,2018_Feb_15_1649,59.9929382117,FEMA4ImagesEEG,001,202854,
AFNE01.JPG,AFNE01.JPG,AFNE01.JPG,AFNE01.JPG,AFNE01.JPG,AFNE01.JPG,,,,,3,5,35,5,,,,,,,,,,,,,,,,,,,AMSA09.jpg,AMSA06.jpg,AMNE11.jpg,AMNE16.jpg,AMNE16.jpg,MN,1,num_4,32,num_8,1.36673138104,,,2018_Feb_15_1649,59.9929382117,FEMA4ImagesEEG,001,202854,
AFNE01.JPG,AFNE01.JPG,AFNE01.JPG,AFNE01.JPG,AFNE01.JPG,AFNE01.JPG,,,,,3,6,36,4,,,,,,,,,,,,,,,,,,,AMNE01.jpg,AMSA20.jpg,AMSA01.jpg,AMNE14.jpg,AMNE01.jpg,MN,1,num_8,16,num_8,0.800176535035,,,2018_Feb_15_1649,59.9929382117,FEMA4ImagesEEG,001,202854,
AFNE01.JPG,AFNE01.JPG,AFNE01.JPG,AFNE01.JPG,AFNE01.JPG,AFNE01.JPG,,,,,3,7,37,7,,,,,,,,,,,,,,,,,,,AMNE19.jpg,AMSA09.jpg,AMSA11.jpg,AMNE06.jpg,AMSA11.jpg,MS,2,num_2,32,num_6,0.400213035056,,,2018_Feb_15_1649,59.9929382117,FEMA4ImagesEEG,001,202854,
AFNE01.JPG,AFNE01.JPG,AFNE01.JPG,AFNE01.JPG,AFNE01.JPG,AFNE01.JPG,,,,,3,8,38,2,,,,,,,,,,,,,,,,,,,AMNE14.jpg,AMNE03.jpg,AMSA04.jpg,AMSA19.jpg,AMSA04.jpg,MS,2,num_2,32,num_6,1.13341150829,,,2018_Feb_15_1649,59.9929382117,FEMA4ImagesEEG,001,202854,
AFNE01.JPG,AFNE01.JPG,AFNE01.JPG,AFNE01.JPG,AFNE01.JPG,AFNE01.JPG,,,,,3,9,39,6,,,,,,,,,,,,,,,,,,,AMNE03.jpg,AMNE06.jpg,AMSA19.jpg,AMSA13.jpg,AMSA13.jpg,MS,2,num_4,16,num_4,2.23334617377,,,2018_Feb_15_1649,59.9929382117,FEMA4ImagesEEG,001,202854,
AFNE01.JPG,AFNE01.JPG,AFNE01.JPG,AFNE01.JPG,AFNE01.JPG,AFNE01.JPG,,,,,4,0,40,1,,,,,,,,,,,,,,,,,,,AMNE19.jpg,AMSA17.jpg,AMSA16.jpg,AMNE16.jpg,AMSA16.jpg,MS,2,num_2,32,num_8,2.21665842901,,,2018_Feb_15_1649,59.9929382117,FEMA4ImagesEEG,001,202854,
AFNE01.JPG,AFNE01.JPG,AFNE01.JPG,AFNE01.JPG,AFNE01.JPG,AFNE01.JPG,,,,,4,1,41,3,,,,,,,,,,,,,,,,,,,AMSA20.jpg,AMSA08.jpg,AMNE17.jpg,AMNE14.jpg,AMSA20.jpg,MS,2,num_8,32,num_2,0.833445859374,,,2018_Feb_15_1649,59.9929382117,FEMA4ImagesEEG,001,202854,
AFNE01.JPG,AFNE01.JPG,AFNE01.JPG,AFNE01.JPG,AFNE01.JPG,AFNE01.JPG,,,,,4,2,42,0,,,,,,,,,,,,,,,,,,,AMSA10.jpg,AMNE16.jpg,AMSA20.jpg,AMNE14.jpg,AMSA10.jpg,MS,2,num_8,32,num_6,0.95000957395,,,2018_Feb_15_1649,59.9929382117,FEMA4ImagesEEG,001,202854,
AFNE01.JPG,AFNE01.JPG,AFNE01.JPG,AFNE01.JPG,AFNE01.JPG,AFNE01.JPG,,,,,4,3,43,2,,,,,,,,,,,,,,,,,,,AMSA09.jpg,AMNE04.jpg,AMSA11.jpg,AMNE18.jpg,AMNE04.jpg,MN,1,num_6,16,num_6,1.53343402408,,,2018_Feb_15_1649,59.9929382117,FEMA4ImagesEEG,001,202854,
AFNE01.JPG,AFNE01.JPG,AFNE01.JPG,AFNE01.JPG,AFNE01.JPG,AFNE01.JPG,,,,,4,4,44,5,,,,,,,,,,,,,,,,,,,AMNE06.jpg,AMSA15.jpg,AMSA05.jpg,AMNE19.jpg,AMSA15.jpg,MS,2,num_6,16,num_6,0.56681047543,,,2018_Feb_15_1649,59.9929382117,FEMA4ImagesEEG,001,202854,
AFNE01.JPG,AFNE01.JPG,AFNE01.JPG,AFNE01.JPG,AFNE01.JPG,AFNE01.JPG,,,,,4,5,45,7,,,,,,,,,,,,,,,,,,,AMNE14.jpg,AMSA20.jpg,AMSA12.jpg,AMNE03.jpg,AMSA12.jpg,MS,2,num_2,16,num_2,2.55001624534,,,2018_Feb_15_1649,59.9929382117,FEMA4ImagesEEG,001,202854,
AFNE01.JPG,AFNE01.JPG,AFNE01.JPG,AFNE01.JPG,AFNE01.JPG,AFNE01.JPG,,,,,4,6,46,6,,,,,,,,,,,,,,,,,,,AMNE01.jpg,AMSA10.jpg,AMSA05.jpg,AMNE07.jpg,AMNE07.jpg,MN,1,num_4,16,num_4,1.20035781665,,,2018_Feb_15_1649,59.9929382117,FEMA4ImagesEEG,001,202854,
AFNE01.JPG,AFNE01.JPG,AFNE01.JPG,AFNE01.JPG,AFNE01.JPG,AFNE01.JPG,,,,,4,7,47,4,,,,,,,,,,,,,,,,,,,AMSA10.jpg,AMSA18.jpg,AMNE11.jpg,AMNE10.jpg,AMSA10.jpg,MS,2,num_8,32,num_4,1.91671779775,,,2018_Feb_15_1649,59.9929382117,FEMA4ImagesEEG,001,202854,
AFNE01.JPG,AFNE01.JPG,AFNE01.JPG,AFNE01.JPG,AFNE01.JPG,AFNE01.JPG,,,,,4,8,48,8,,,,,,,,,,,,,,,,,,,AMNE19.jpg,AMSA07.jpg,AMNE03.jpg,AMSA04.jpg,AMSA04.jpg,MS,2,num_4,16,num_4,1.08343904372,,,2018_Feb_15_1649,59.9929382117,FEMA4ImagesEEG,001,202854,
AFNE01.JPG,AFNE01.JPG,AFNE01.JPG,AFNE01.JPG,AFNE01.JPG,AFNE01.JPG,,,,,4,9,49,9,,,,,,,,,,,,,,,,,,,AMNE02.jpg,AMSA09.jpg,AMNE03.jpg,AMSA15.jpg,AMSA09.jpg,MS,2,num_6,32,num_8,1.21676331083,,,2018_Feb_15_1649,59.9929382117,FEMA4ImagesEEG,001,202854,
AFNE01.JPG,AFNE01.JPG,AFNE01.JPG,AFNE01.JPG,AFNE01.JPG,AFNE01.JPG,,,,,5,0,50,3,,,,,,,,,,,,,,,,,,,AMNE04.jpg,AMSA03.jpg,AMSA20.jpg,AMNE06.jpg,AMSA03.jpg,MS,2,num_6,32,num_8,1.34988294635,,,2018_Feb_15_1649,59.9929382117,FEMA4ImagesEEG,001,202854,
AFNE01.JPG,AFNE01.JPG,AFNE01.JPG,AFNE01.JPG,AFNE01.JPG,AFNE01.JPG,,,,,5,1,51,9,,,,,,,,,,,,,,,,,,,AMNE19.jpg,AMSA04.jpg,AMSA19.jpg,AMNE06.jpg,AMSA04.jpg,MS,2,num_6,32,num_2,2.86659426498,,,2018_Feb_15_1649,59.9929382117,FEMA4ImagesEEG,001,202854,
AFNE01.JPG,AFNE01.JPG,AFNE01.JPG,AFNE01.JPG,AFNE01.JPG,AFNE01.JPG,,,,,5,2,52,0,,,,,,,,,,,,,,,,,,,AMNE17.jpg,AMNE11.jpg,AMSA17.jpg,AMSA01.jpg,AMNE11.jpg,MN,1,num_6,32,num_8,0.850149961654,,,2018_Feb_15_1649,59.9929382117,FEMA4ImagesEEG,001,202854,
AFNE01.JPG,AFNE01.JPG,AFNE01.JPG,AFNE01.JPG,AFNE01.JPG,AFNE01.JPG,,,,,5,3,53,8,,,,,,,,,,,,,,,,,,,AMNE10.jpg,AMSA14.jpg,AMSA16.jpg,AMNE17.jpg,AMNE17.jpg,MN,1,num_4,32,num_8,1.21671712422,,,2018_Feb_15_1649,59.9929382117,FEMA4ImagesEEG,001,202854,
AFNE01.JPG,AFNE01.JPG,AFNE01.JPG,AFNE01.JPG,AFNE01.JPG,AFNE01.JPG,,,,,5,4,54,6,,,,,,,,,,,,,,,,,,,AMNE04.jpg,AMSA18.jpg,AMNE06.jpg,AMSA16.jpg,AMSA18.jpg,MS,2,num_6,32,num_4,1.08343743999,,,2018_Feb_15_1649,59.9929382117,FEMA4ImagesEEG,001,202854,
AFNE01.JPG,AFNE01.JPG,AFNE01.JPG,AFNE01.JPG,AFNE01.JPG,AFNE01.JPG,,,,,5,5,55,1,,,,,,,,,,,,,,,,,,,AMSA07.jpg,AMSA09.jpg,AMNE04.jpg,AMNE02.jpg,AMNE04.jpg,MN,1,num_2,16,num_2,2.78329442232,,,2018_Feb_15_1649,59.9929382117,FEMA4ImagesEEG,001,202854,
AFNE01.JPG,AFNE01.JPG,AFNE01.JPG,AFNE01.JPG,AFNE01.JPG,AFNE01.JPG,,,,,5,6,56,7,,,,,,,,,,,,,,,,,,,AMNE11.jpg,AMNE10.jpg,AMSA05.jpg,AMSA02.jpg,AMSA05.jpg,MS,2,num_2,16,num_2,0.833458368201,,,2018_Feb_15_1649,59.9929382117,FEMA4ImagesEEG,001,202854,
AFNE01.JPG,AFNE01.JPG,AFNE01.JPG,AFNE01.JPG,AFNE01.JPG,AFNE01.JPG,,,,,5,7,57,5,,,,,,,,,,,,,,,,,,,AMNE07.jpg,AMSA14.jpg,AMSA13.jpg,AMNE10.jpg,AMSA13.jpg,MS,2,num_2,32,num_4,1.05011872179,,,2018_Feb_15_1649,59.9929382117,FEMA4ImagesEEG,001,202854,
AFNE01.JPG,AFNE01.JPG,AFNE01.JPG,AFNE01.JPG,AFNE01.JPG,AFNE01.JPG,,,,,5,8,58,2,,,,,,,,,,,,,,,,,,,AMNE19.jpg,AMNE09.jpg,AMSA05.jpg,AMSA11.jpg,AMNE09.jpg,MN,1,num_6,16,num_6,0.733474950306,,,2018_Feb_15_1649,59.9929382117,FEMA4ImagesEEG,001,202854,
AFNE01.JPG,AFNE01.JPG,AFNE01.JPG,AFNE01.JPG,AFNE01.JPG,AFNE01.JPG,,,,,5,9,59,4,,,,,,,,,,,,,,,,,,,AMNE11.jpg,AMSA05.jpg,AMNE08.jpg,AMSA09.jpg,AMSA09.jpg,MS,2,num_4,48,None,,,,2018_Feb_15_1649,59.9929382117,FEMA4ImagesEEG,001,202854,
,,,,,,,,,,,,,,,,,,,,,,,,,,,,,,,,,,,,,,,,,,,space,11.4326118731,2018_Feb_15_1649,59.9929382117,FEMA4ImagesEEG,001,202854,
AFNE01.JPG,AFNE01.JPG,AFNE01.JPG,AFNE01.JPG,AFNE01.JPG,AFNE01.JPG,,,,,,,,,0,0,0,2,,,,,,,,,,,,,,,AFSA08.jpg,AFNE20.jpg,AFNE05.jpg,AFSA04.jpg,AFNE20.jpg,FN,3,num_6,32,num_4,0.883446869673,,,2018_Feb_15_1649,59.9929382117,FEMA4ImagesEEG,001,202854,
AFNE01.JPG,AFNE01.JPG,AFNE01.JPG,AFNE01.JPG,AFNE01.JPG,AFNE01.JPG,,,,,,,,,0,1,1,3,,,,,,,,,,,,,,,AFSA19.jpg,AFNE16.jpg,AFNE18.jpg,AFSA15.jpg,AFSA15.jpg,FS,4,num_4,32,num_6,1.03315129224,,,2018_Feb_15_1649,59.9929382117,FEMA4ImagesEEG,001,202854,
AFNE01.JPG,AFNE01.JPG,AFNE01.JPG,AFNE01.JPG,AFNE01.JPG,AFNE01.JPG,,,,,,,,,0,2,2,5,,,,,,,,,,,,,,,AFSA10.jpg,AFNE19.jpg,AFNE01.jpg,AFSA03.jpg,AFNE19.jpg,FN,3,num_6,16,num_6,0.883447831962,,,2018_Feb_15_1649,59.9929382117,FEMA4ImagesEEG,001,202854,
AFNE01.JPG,AFNE01.JPG,AFNE01.JPG,AFNE01.JPG,AFNE01.JPG,AFNE01.JPG,,,,,,,,,0,3,3,4,,,,,,,,,,,,,,,AFSA04.jpg,AFSA10.jpg,AFNE11.jpg,AFNE15.jpg,AFSA10.jpg,FS,4,num_6,16,num_6,0.816751058446,,,2018_Feb_15_1649,59.9929382117,FEMA4ImagesEEG,001,202854,
AFNE01.JPG,AFNE01.JPG,AFNE01.JPG,AFNE01.JPG,AFNE01.JPG,AFNE01.JPG,,,,,,,,,0,4,4,8,,,,,,,,,,,,,,,AFNE17.jpg,AFNE04.jpg,AFSA15.jpg,AFSA06.jpg,AFNE04.jpg,FN,3,num_6,16,num_6,0.683437375817,,,2018_Feb_15_1649,59.9929382117,FEMA4ImagesEEG,001,202854,
AFNE01.JPG,AFNE01.JPG,AFNE01.JPG,AFNE01.JPG,AFNE01.JPG,AFNE01.JPG,,,,,,,,,0,5,5,6,,,,,,,,,,,,,,,AFSA06.jpg,AFSA07.jpg,AFNE04.jpg,AFNE16.jpg,AFNE16.jpg,FN,3,num_4,16,num_4,0.76675999118,,,2018_Feb_15_1649,59.9929382117,FEMA4ImagesEEG,001,202854,
AFNE01.JPG,AFNE01.JPG,AFNE01.JPG,AFNE01.JPG,AFNE01.JPG,AFNE01.JPG,,,,,,,,,0,6,6,9,,,,,,,,,,,,,,,AFSA03.jpg,AFNE16.jpg,AFSA01.jpg,AFNE08.jpg,AFSA03.jpg,FS,4,num_8,32,num_2,1.1001299955,,,2018_Feb_15_1649,59.9929382117,FEMA4ImagesEEG,001,202854,
AFNE01.JPG,AFNE01.JPG,AFNE01.JPG,AFNE01.JPG,AFNE01.JPG,AFNE01.JPG,,,,,,,,,0,7,7,7,,,,,,,,,,,,,,,AFSA08.jpg,AFNE16.jpg,AFSA11.jpg,AFNE07.jpg,AFSA08.jpg,FS,4,num_8,16,num_8,1.08339638542,,,2018_Feb_15_1649,59.9929382117,FEMA4ImagesEEG,001,202854,
AFNE01.JPG,AFNE01.JPG,AFNE01.JPG,AFNE01.JPG,AFNE01.JPG,AFNE01.JPG,,,,,,,,,0,8,8,1,,,,,,,,,,,,,,,AFSA20.jpg,AFNE05.jpg,AFSA19.jpg,AFNE09.jpg,AFNE05.jpg,FN,3,num_6,16,num_6,4.03325681575,,,2018_Feb_15_1649,59.9929382117,FEMA4ImagesEEG,001,202854,
AFNE01.JPG,AFNE01.JPG,AFNE01.JPG,AFNE01.JPG,AFNE01.JPG,AFNE01.JPG,,,,,,,,,0,9,9,0,,,,,,,,,,,,,,,AFNE06.jpg,AFSA18.jpg,AFNE03.jpg,AFSA12.jpg,AFSA18.jpg,FS,4,num_6,32,num_2,0.866816537455,,,2018_Feb_15_1649,59.9929382117,FEMA4ImagesEEG,001,202854,
AFNE01.JPG,AFNE01.JPG,AFNE01.JPG,AFNE01.JPG,AFNE01.JPG,AFNE01.JPG,,,,,,,,,1,0,10,8,,,,,,,,,,,,,,,AFSA08.jpg,AFSA14.jpg,AFNE10.jpg,AFNE06.jpg,AFSA14.jpg,FS,4,num_6,32,num_4,1.20015607169,,,2018_Feb_15_1649,59.9929382117,FEMA4ImagesEEG,001,202854,
AFNE01.JPG,AFNE01.JPG,AFNE01.JPG,AFNE01.JPG,AFNE01.JPG,AFNE01.JPG,,,,,,,,,1,1,11,6,,,,,,,,,,,,,,,AFSA12.jpg,AFNE02.jpg,AFSA10.jpg,AFNE20.jpg,AFNE02.jpg,FN,3,num_6,16,num_6,0.983466210309,,,2018_Feb_15_1649,59.9929382117,FEMA4ImagesEEG,001,202854,
AFNE01.JPG,AFNE01.JPG,AFNE01.JPG,AFNE01.JPG,AFNE01.JPG,AFNE01.JPG,,,,,,,,,1,2,12,4,,,,,,,,,,,,,,,AFSA12.jpg,AFNE15.jpg,AFNE14.jpg,AFSA04.jpg,AFNE15.jpg,FN,3,num_6,32,num_2,2.43338549603,,,2018_Feb_15_1649,59.9929382117,FEMA4ImagesEEG,001,202854,
AFNE01.JPG,AFNE01.JPG,AFNE01.JPG,AFNE01.JPG,AFNE01.JPG,AFNE01.JPG,,,,,,,,,1,3,13,9,,,,,,,,,,,,,,,AFNE02.jpg,AFSA08.jpg,AFSA09.jpg,AFNE07.jpg,AFSA08.jpg,FS,4,num_6,32,num_4,1.68340433971,,,2018_Feb_15_1649,59.9929382117,FEMA4ImagesEEG,001,202854,
AFNE01.JPG,AFNE01.JPG,AFNE01.JPG,AFNE01.JPG,AFNE01.JPG,AFNE01.JPG,,,,,,,,,1,4,14,2,,,,,,,,,,,,,,,AFSA12.jpg,AFNE15.jpg,AFSA11.jpg,AFNE13.jpg,AFNE13.jpg,FN,3,num_4,32,num_8,2.31691062637,,,2018_Feb_15_1649,59.9929382117,FEMA4ImagesEEG,001,202854,
AFNE01.JPG,AFNE01.JPG,AFNE01.JPG,AFNE01.JPG,AFNE01.JPG,AFNE01.JPG,,,,,,,,,1,5,15,7,,,,,,,,,,,,,,,AFNE19.jpg,AFSA19.jpg,AFNE14.jpg,AFSA14.jpg,AFSA19.jpg,FS,4,num_6,16,num_6,1.10013320297,,,2018_Feb_15_1649,59.9929382117,FEMA4ImagesEEG,001,202854,
AFNE01.JPG,AFNE01.JPG,AFNE01.JPG,AFNE01.JPG,AFNE01.JPG,AFNE01.JPG,,,,,,,,,1,6,16,5,,,,,,,,,,,,,,,AFNE13.jpg,AFSA04.jpg,AFNE12.jpg,AFSA20.jpg,AFNE13.jpg,FN,3,num_8,32,num_6,1.65004873625,,,2018_Feb_15_1649,59.9929382117,FEMA4ImagesEEG,001,202854,
AFNE01.JPG,AFNE01.JPG,AFNE01.JPG,AFNE01.JPG,AFNE01.JPG,AFNE01.JPG,,,,,,,,,1,7,17,3,,,,,,,,,,,,,,,AFNE19.jpg,AFSA04.jpg,AFSA12.jpg,AFNE18.jpg,AFNE19.jpg,FN,3,num_8,32,num_6,1.35008533252,,,2018_Feb_15_1649,59.9929382117,FEMA4ImagesEEG,001,202854,
AFNE01.JPG,AFNE01.JPG,AFNE01.JPG,AFNE01.JPG,AFNE01.JPG,AFNE01.JPG,,,,,,,,,1,8,18,0,,,,,,,,,,,,,,,AFNE07.jpg,AFSA18.jpg,AFSA12.jpg,AFNE10.jpg,AFNE07.jpg,FN,3,num_8,16,num_8,1.41677472903,,,2018_Feb_15_1649,59.9929382117,FEMA4ImagesEEG,001,202854,
AFNE01.JPG,AFNE01.JPG,AFNE01.JPG,AFNE01.JPG,AFNE01.JPG,AFNE01.JPG,,,,,,,,,1,9,19,1,,,,,,,,,,,,,,,AFNE02.jpg,AFNE08.jpg,AFSA02.jpg,AFSA08.jpg,AFNE02.jpg,FN,3,num_8,32,num_6,2.86671774974,,,2018_Feb_15_1649,59.9929382117,FEMA4ImagesEEG,001,202854,
AFNE01.JPG,AFNE01.JPG,AFNE01.JPG,AFNE01.JPG,AFNE01.JPG,AFNE01.JPG,,,,,,,,,2,0,20,0,,,,,,,,,,,,,,,AFSA14.jpg,AFNE10.jpg,AFSA02.jpg,AFNE17.jpg,AFNE17.jpg,FN,3,num_4,32,num_8,1.30007694522,,,2018_Feb_15_1649,59.9929382117,FEMA4ImagesEEG,001,202854,
AFNE01.JPG,AFNE01.JPG,AFNE01.JPG,AFNE01.JPG,AFNE01.JPG,AFNE01.JPG,,,,,,,,,2,1,21,5,,,,,,,,,,,,,,,AFSA07.jpg,AFNE17.jpg,AFSA03.jpg,AFNE03.jpg,AFSA03.jpg,FS,4,num_2,32,num_6,2.6496596795,,,2018_Feb_15_1649,59.9929382117,FEMA4ImagesEEG,001,202854,
AFNE01.JPG,AFNE01.JPG,AFNE01.JPG,AFNE01.JPG,AFNE01.JPG,AFNE01.JPG,,,,,,,,,2,2,22,7,,,,,,,,,,,,,,,AFNE17.jpg,AFNE16.jpg,AFSA12.jpg,AFSA08.jpg,AFSA12.jpg,FS,4,num_2,32,num_6,4.84980131802,,,2018_Feb_15_1649,59.9929382117,FEMA4ImagesEEG,001,202854,
AFNE01.JPG,AFNE01.JPG,AFNE01.JPG,AFNE01.JPG,AFNE01.JPG,AFNE01.JPG,,,,,,,,,2,3,23,3,,,,,,,,,,,,,,,AFNE10.jpg,AFSA14.jpg,AFNE06.jpg,AFSA20.jpg,AFSA14.jpg,FS,4,num_6,32,num_2,1.1001117134,,,2018_Feb_15_1649,59.9929382117,FEMA4ImagesEEG,001,202854,
AFNE01.JPG,AFNE01.JPG,AFNE01.JPG,AFNE01.JPG,AFNE01.JPG,AFNE01.JPG,,,,,,,,,2,4,24,2,,,,,,,,,,,,,,,AFNE03.jpg,AFSA17.jpg,AFNE20.jpg,AFSA16.jpg,AFNE20.jpg,FN,3,num_2,32,num_6,1.21670653997,,,2018_Feb_15_1649,59.9929382117,FEMA4ImagesEEG,001,202854,
AFNE01.JPG,AFNE01.JPG,AFNE01.JPG,AFNE01.JPG,AFNE01.JPG,AFNE01.JPG,,,,,,,,,2,5,25,4,,,,,,,,,,,,,,,AFSA18.jpg,AFSA20.jpg,AFNE03.jpg,AFNE18.jpg,AFNE03.jpg,FN,3,num_2,16,num_2,1.30007919041,,,2018_Feb_15_1649,59.9929382117,FEMA4ImagesEEG,001,202854,
AFNE01.JPG,AFNE01.JPG,AFNE01.JPG,AFNE01.JPG,AFNE01.JPG,AFNE01.JPG,,,,,,,,,2,6,26,6,,,,,,,,,,,,,,,AFNE13.jpg,AFNE03.jpg,AFSA18.jpg,AFSA20.jpg,AFNE13.jpg,FN,3,num_8,32,num_6,1.15012523253,,,2018_Feb_15_1649,59.9929382117,FEMA4ImagesEEG,001,202854,
AFNE01.JPG,AFNE01.JPG,AFNE01.JPG,AFNE01.JPG,AFNE01.JPG,AFNE01.JPG,,,,,,,,,2,7,27,8,,,,,,,,,,,,,,,AFNE14.jpg,AFSA16.jpg,AFNE12.jpg,AFSA20.jpg,AFNE14.jpg,FN,3,num_8,16,num_8,1.18345613894,,,2018_Feb_15_1649,59.9929382117,FEMA4ImagesEEG,001,202854,
AFNE01.JPG,AFNE01.JPG,AFNE01.JPG,AFNE01.JPG,AFNE01.JPG,AFNE01.JPG,,,,,,,,,2,8,28,9,,,,,,,,,,,,,,,AFSA16.jpg,AFNE05.jpg,AFSA18.jpg,AFNE09.jpg,AFNE05.jpg,FN,3,num_6,16,num_6,4.09988912032,,,2018_Feb_15_1649,59.9929382117,FEMA4ImagesEEG,001,202854,
AFNE01.JPG,AFNE01.JPG,AFNE01.JPG,AFNE01.JPG,AFNE01.JPG,AFNE01.JPG,,,,,,,,,2,9,29,1,,,,,,,,,,,,,,,AFSA01.jpg,AFNE05.jpg,AFNE19.jpg,AFSA06.jpg,AFSA06.jpg,FS,4,num_4,32,num_6,0.850100567797,,,2018_Feb_15_1649,59.9929382117,FEMA4ImagesEEG,001,202854,
AFNE01.JPG,AFNE01.JPG,AFNE01.JPG,AFNE01.JPG,AFNE01.JPG,AFNE01.JPG,,,,,,,,,3,0,30,3,,,,,,,,,,,,,,,AFSA15.jpg,AFNE16.jpg,AFNE20.jpg,AFSA06.jpg,AFNE20.jpg,FN,3,num_2,32,num_6,1.14984266134,,,2018_Feb_15_1649,59.9929382117,FEMA4ImagesEEG,001,202854,
AFNE01.JPG,AFNE01.JPG,AFNE01.JPG,AFNE01.JPG,AFNE01.JPG,AFNE01.JPG,,,,,,,,,3,1,31,0,,,,,,,,,,,,,,,AFNE07.jpg,AFSA02.jpg,AFNE04.jpg,AFSA11.jpg,AFNE04.jpg,FN,3,num_2,16,num_2,1.7834146996,,,2018_Feb_15_1649,59.9929382117,FEMA4ImagesEEG,001,202854,
AFNE01.JPG,AFNE01.JPG,AFNE01.JPG,AFNE01.JPG,AFNE01.JPG,AFNE01.JPG,,,,,,,,,3,2,32,6,,,,,,,,,,,,,,,AFSA11.jpg,AFSA10.jpg,AFNE19.jpg,AFNE05.jpg,AFSA10.jpg,FS,4,num_6,16,num_6,0.916735438397,,,2018_Feb_15_1649,59.9929382117,FEMA4ImagesEEG,001,202854,
AFNE01.JPG,AFNE01.JPG,AFNE01.JPG,AFNE01.JPG,AFNE01.JPG,AFNE01.JPG,,,,,,,,,3,3,33,7,,,,,,,,,,,,,,,AFSA17.jpg,AFNE06.jpg,AFSA06.jpg,AFNE11.jpg,AFSA06.jpg,FS,4,num_2,32,num_8,1.4836584935,,,2018_Feb_15_1649,59.9929382117,FEMA4ImagesEEG,001,202854,
AFNE01.JPG,AFNE01.JPG,AFNE01.JPG,AFNE01.JPG,AFNE01.JPG,AFNE01.JPG,,,,,,,,,3,4,34,4,,,,,,,,,,,,,,,AFNE11.jpg,AFSA11.jpg,AFSA08.jpg,AFNE14.jpg,AFSA11.jpg,FS,4,num_6,16,num_6,0.666783950524,,,2018_Feb_15_1649,59.9929382117,FEMA4ImagesEEG,001,202854,
AFNE01.JPG,AFNE01.JPG,AFNE01.JPG,AFNE01.JPG,AFNE01.JPG,AFNE01.JPG,,,,,,,,,3,5,35,9,,,,,,,,,,,,,,,AFNE05.jpg,AFNE09.jpg,AFSA04.jpg,AFSA11.jpg,AFSA11.jpg,FS,4,num_4,16,num_4,1.01675830712,,,2018_Feb_15_1649,59.9929382117,FEMA4ImagesEEG,001,202854,
AFNE01.JPG,AFNE01.JPG,AFNE01.JPG,AFNE01.JPG,AFNE01.JPG,AFNE01.JPG,,,,,,,,,3,6,36,2,,,,,,,,,,,,,,,AFSA15.jpg,AFNE14.jpg,AFSA06.jpg,AFNE18.jpg,AFSA06.jpg,FS,4,num_2,16,num_2,1.73341753823,,,2018_Feb_15_1649,59.9929382117,FEMA4ImagesEEG,001,202854,
AFNE01.JPG,AFNE01.JPG,AFNE01.JPG,AFNE01.JPG,AFNE01.JPG,AFNE01.JPG,,,,,,,,,3,7,37,5,,,,,,,,,,,,,,,AFSA19.jpg,AFNE03.jpg,AFSA03.jpg,AFNE10.jpg,AFSA03.jpg,FS,4,num_2,32,num_6,3.18328454345,,,2018_Feb_15_1649,59.9929382117,FEMA4ImagesEEG,001,202854,
AFNE01.JPG,AFNE01.JPG,AFNE01.JPG,AFNE01.JPG,AFNE01.JPG,AFNE01.JPG,,,,,,,,,3,8,38,8,,,,,,,,,,,,,,,AFSA11.jpg,AFNE15.jpg,AFSA08.jpg,AFNE09.jpg,AFSA08.jpg,FS,4,num_2,16,num_2,1.13342722435,,,2018_Feb_15_1649,59.9929382117,FEMA4ImagesEEG,001,202854,
AFNE01.JPG,AFNE01.JPG,AFNE01.JPG,AFNE01.JPG,AFNE01.JPG,AFNE01.JPG,,,,,,,,,3,9,39,1,,,,,,,,,,,,,,,AFSA04.jpg,AFNE14.jpg,AFSA16.jpg,AFNE13.jpg,AFSA04.jpg,FS,4,num_8,32,num_4,1.06673141313,,,2018_Feb_15_1649,59.9929382117,FEMA4ImagesEEG,001,202854,
AFNE01.JPG,AFNE01.JPG,AFNE01.JPG,AFNE01.JPG,AFNE01.JPG,AFNE01.JPG,,,,,,,,,4,0,40,2,,,,,,,,,,,,,,,AFSA16.jpg,AFSA03.jpg,AFNE10.jpg,AFNE15.jpg,AFNE10.jpg,FN,3,num_2,16,num_2,1.19980935263,,,2018_Feb_15_1649,59.9929382117,FEMA4ImagesEEG,001,202854,
AFNE01.JPG,AFNE01.JPG,AFNE01.JPG,AFNE01.JPG,AFNE01.JPG,AFNE01.JPG,,,,,,,,,4,1,41,7,,,,,,,,,,,,,,,AFSA20.jpg,AFNE12.jpg,AFNE05.jpg,AFSA08.jpg,AFSA08.jpg,FS,4,num_4,32,num_6,0.833445538534,,,2018_Feb_15_1649,59.9929382117,FEMA4ImagesEEG,001,202854,
AFNE01.JPG,AFNE01.JPG,AFNE01.JPG,AFNE01.JPG,AFNE01.JPG,AFNE01.JPG,,,,,,,,,4,2,42,1,,,,,,,,,,,,,,,AFNE09.jpg,AFNE11.jpg,AFSA13.jpg,AFSA15.jpg,AFSA13.jpg,FS,4,num_2,16,num_2,1.18348917528,,,2018_Feb_15_1649,59.9929382117,FEMA4ImagesEEG,001,202854,
AFNE01.JPG,AFNE01.JPG,AFNE01.JPG,AFNE01.JPG,AFNE01.JPG,AFNE01.JPG,,,,,,,,,4,3,43,3,,,,,,,,,,,,,,,AFSA19.jpg,AFSA15.jpg,AFNE12.jpg,AFNE07.jpg,AFNE12.jpg,FN,3,num_2,48,None,,,,2018_Feb_15_1649,59.9929382117,FEMA4ImagesEEG,001,202854,
AFNE01.JPG,AFNE01.JPG,AFNE01.JPG,AFNE01.JPG,AFNE01.JPG,AFNE01.JPG,,,,,,,,,4,4,44,8,,,,,,,,,,,,,,,AFSA14.jpg,AFNE13.jpg,AFNE07.jpg,AFSA03.jpg,AFSA14.jpg,FS,4,num_8,16,num_8,0.80010885885,,,2018_Feb_15_1649,59.9929382117,FEMA4ImagesEEG,001,202854,
AFNE01.JPG,AFNE01.JPG,AFNE01.JPG,AFNE01.JPG,AFNE01.JPG,AFNE01.JPG,,,,,,,,,4,5,45,5,,,,,,,,,,,,,,,AFNE10.jpg,AFNE06.jpg,AFSA19.jpg,AFSA18.jpg,AFNE10.jpg,FN,3,num_8,48,None,,,,2018_Feb_15_1649,59.9929382117,FEMA4ImagesEEG,001,202854,
AFNE01.JPG,AFNE01.JPG,AFNE01.JPG,AFNE01.JPG,AFNE01.JPG,AFNE01.JPG,,,,,,,,,4,6,46,0,,,,,,,,,,,,,,,AFSA06.jpg,AFSA07.jpg,AFNE09.jpg,AFNE01.jpg,AFSA07.jpg,FS,4,num_6,32,num_8,1.83340480481,,,2018_Feb_15_1649,59.9929382117,FEMA4ImagesEEG,001,202854,
AFNE01.JPG,AFNE01.JPG,AFNE01.JPG,AFNE01.JPG,AFNE01.JPG,AFNE01.JPG,,,,,,,,,4,7,47,4,,,,,,,,,,,,,,,AFNE06.jpg,AFSA18.jpg,AFNE16.jpg,AFSA01.jpg,AFNE16.jpg,FN,3,num_2,32,num_6,1.31673357822,,,2018_Feb_15_1649,59.9929382117,FEMA4ImagesEEG,001,202854,
AFNE01.JPG,AFNE01.JPG,AFNE01.JPG,AFNE01.JPG,AFNE01.JPG,AFNE01.JPG,,,,,,,,,4,8,48,6,,,,,,,,,,,,,,,AFSA19.jpg,AFNE10.jpg,AFNE18.jpg,AFSA16.jpg,AFSA16.jpg,FS,4,num_4,32,num_8,0.950124077965,,,2018_Feb_15_1649,59.9929382117,FEMA4ImagesEEG,001,202854,
AFNE01.JPG,AFNE01.JPG,AFNE01.JPG,AFNE01.JPG,AFNE01.JPG,AFNE01.JPG,,,,,,,,,4,9,49,9,,,,,,,,,,,,,,,AFNE03.jpg,AFSA05.jpg,AFNE18.jpg,AFSA03.jpg,AFSA03.jpg,FS,4,num_4,32,num_2,1.15009604534,,,2018_Feb_15_1649,59.9929382117,FEMA4ImagesEEG,001,202854,
AFNE01.JPG,AFNE01.JPG,AFNE01.JPG,AFNE01.JPG,AFNE01.JPG,AFNE01.JPG,,,,,,,,,5,0,50,8,,,,,,,,,,,,,,,AFNE04.jpg,AFSA14.jpg,AFNE15.jpg,AFSA16.jpg,AFSA16.jpg,FS,4,num_4,32,num_6,0.816850808449,,,2018_Feb_15_1649,59.9929382117,FEMA4ImagesEEG,001,202854,
AFNE01.JPG,AFNE01.JPG,AFNE01.JPG,AFNE01.JPG,AFNE01.JPG,AFNE01.JPG,,,,,,,,,5,1,51,9,,,,,,,,,,,,,,,AFNE12.jpg,AFSA16.jpg,AFNE10.jpg,AFSA17.jpg,AFNE12.jpg,FN,3,num_8,16,num_8,0.816779283574,,,2018_Feb_15_1649,59.9929382117,FEMA4ImagesEEG,001,202854,
AFNE01.JPG,AFNE01.JPG,AFNE01.JPG,AFNE01.JPG,AFNE01.JPG,AFNE01.JPG,,,,,,,,,5,2,52,2,,,,,,,,,,,,,,,AFSA16.jpg,AFSA10.jpg,AFNE11.jpg,AFNE06.jpg,AFSA16.jpg,FS,4,num_8,32,num_4,1.13343556365,,,2018_Feb_15_1649,59.9929382117,FEMA4ImagesEEG,001,202854,
AFNE01.JPG,AFNE01.JPG,AFNE01.JPG,AFNE01.JPG,AFNE01.JPG,AFNE01.JPG,,,,,,,,,5,3,53,0,,,,,,,,,,,,,,,AFSA07.jpg,AFNE07.jpg,AFSA06.jpg,AFNE11.jpg,AFNE11.jpg,FN,3,num_4,32,num_8,1.01675926941,,,2018_Feb_15_1649,59.9929382117,FEMA4ImagesEEG,001,202854,
AFNE01.JPG,AFNE01.JPG,AFNE01.JPG,AFNE01.JPG,AFNE01.JPG,AFNE01.JPG,,,,,,,,,5,4,54,3,,,,,,,,,,,,,,,AFNE11.jpg,AFSA06.jpg,AFSA08.jpg,AFNE07.jpg,AFNE07.jpg,FN,3,num_4,32,num_6,1.2667274361,,,2018_Feb_15_1649,59.9929382117,FEMA4ImagesEEG,001,202854,
AFNE01.JPG,AFNE01.JPG,AFNE01.JPG,AFNE01.JPG,AFNE01.JPG,AFNE01.JPG,,,,,,,,,5,5,55,5,,,,,,,,,,,,,,,AFNE18.jpg,AFSA09.jpg,AFSA07.jpg,AFNE08.jpg,AFSA07.jpg,FS,4,num_2,32,num_4,0.916811453644,,,2018_Feb_15_1649,59.9929382117,FEMA4ImagesEEG,001,202854,
AFNE01.JPG,AFNE01.JPG,AFNE01.JPG,AFNE01.JPG,AFNE01.JPG,AFNE01.JPG,,,,,,,,,5,6,56,4,,,,,,,,,,,,,,,AFNE01.jpg,AFSA09.jpg,AFNE04.jpg,AFSA08.jpg,AFSA09.jpg,FS,4,num_6,32,num_8,2.2666591187,,,2018_Feb_15_1649,59.9929382117,FEMA4ImagesEEG,001,202854,
AFNE01.JPG,AFNE01.JPG,AFNE01.JPG,AFNE01.JPG,AFNE01.JPG,AFNE01.JPG,,,,,,,,,5,7,57,6,,,,,,,,,,,,,,,AFNE19.jpg,AFSA14.jpg,AFNE10.jpg,AFSA10.jpg,AFNE19.jpg,FN,3,num_8,32,num_6,1.06675226125,,,2018_Feb_15_1649,59.9929382117,FEMA4ImagesEEG,001,202854,
AFNE01.JPG,AFNE01.JPG,AFNE01.JPG,AFNE01.JPG,AFNE01.JPG,AFNE01.JPG,,,,,,,,,5,8,58,1,,,,,,,,,,,,,,,AFNE08.jpg,AFSA14.jpg,AFNE02.jpg,AFSA12.jpg,AFNE02.jpg,FN,3,num_2,16,num_2,1.16676903586,,,2018_Feb_15_1649,59.9929382117,FEMA4ImagesEEG,001,202854,
AFNE01.JPG,AFNE01.JPG,AFNE01.JPG,AFNE01.JPG,AFNE01.JPG,AFNE01.JPG,,,,,,,,,5,9,59,7,,,,,,,,,,,,,,,AFNE12.jpg,AFSA06.jpg,AFSA02.jpg,AFNE08.jpg,AFSA02.jpg,FS,4,num_2,32,num_6,2.43334380002,,,2018_Feb_15_1649,59.9929382117,FEMA4ImagesEEG,001,202854,
,,,,,,,,,,,,,,,,,,,,,,,,,,,,,,,,,,,,,,,,,,,space,3.09967069677,2018_Feb_15_1649,59.9929382117,FEMA4ImagesEEG,001,202854,
AFNE01.JPG,AFNE01.JPG,AFNE01.JPG,AFNE01.JPG,AFNE01.JPG,AFNE01.JPG,,,,,,,,,,,,,0,0,0,8,,,,,,,,,,,AMSA01.jpg,AMNE04.jpg,AMNE10.jpg,AMSA20.jpg,AMSA20.jpg,MS,2,num_4,32,num_2,1.80004374892,,,2018_Feb_15_1649,59.9929382117,FEMA4ImagesEEG,001,202854,
AFNE01.JPG,AFNE01.JPG,AFNE01.JPG,AFNE01.JPG,AFNE01.JPG,AFNE01.JPG,,,,,,,,,,,,,0,1,1,0,,,,,,,,,,,AMSA09.jpg,AMSA02.jpg,AMNE12.jpg,AMNE13.jpg,AMSA09.jpg,MS,2,num_8,32,num_4,1.93339495803,,,2018_Feb_15_1649,59.9929382117,FEMA4ImagesEEG,001,202854,
AFNE01.JPG,AFNE01.JPG,AFNE01.JPG,AFNE01.JPG,AFNE01.JPG,AFNE01.JPG,,,,,,,,,,,,,0,2,2,2,,,,,,,,,,,AMSA12.jpg,AMSA10.jpg,AMNE12.jpg,AMNE01.jpg,AMSA10.jpg,MS,2,num_6,32,num_8,1.25008780253,,,2018_Feb_15_1649,59.9929382117,FEMA4ImagesEEG,001,202854,
AFNE01.JPG,AFNE01.JPG,AFNE01.JPG,AFNE01.JPG,AFNE01.JPG,AFNE01.JPG,,,,,,,,,,,,,0,3,3,1,,,,,,,,,,,AMSA17.jpg,AMNE16.jpg,AMNE12.jpg,AMSA13.jpg,AMNE12.jpg,MN,1,num_2,16,num_2,1.25011987635,,,2018_Feb_15_1649,59.9929382117,FEMA4ImagesEEG,001,202854,
AFNE01.JPG,AFNE01.JPG,AFNE01.JPG,AFNE01.JPG,AFNE01.JPG,AFNE01.JPG,,,,,,,,,,,,,0,4,4,3,,,,,,,,,,,AMNE17.jpg,AMNE09.jpg,AMSA12.jpg,AMSA19.jpg,AMNE09.jpg,MN,1,num_6,16,num_6,0.966737731826,,,2018_Feb_15_1649,59.9929382117,FEMA4ImagesEEG,001,202854,
AFNE01.JPG,AFNE01.JPG,AFNE01.JPG,AFNE01.JPG,AFNE01.JPG,AFNE01.JPG,,,,,,,,,,,,,0,5,5,9,,,,,,,,,,,AMSA03.jpg,AMNE05.jpg,AMNE13.jpg,AMSA20.jpg,AMNE13.jpg,MN,1,num_2,32,num_6,1.13346282649,,,2018_Feb_15_1649,59.9929382117,FEMA4ImagesEEG,001,202854,
AFNE01.JPG,AFNE01.JPG,AFNE01.JPG,AFNE01.JPG,AFNE01.JPG,AFNE01.JPG,,,,,,,,,,,,,0,6,6,5,,,,,,,,,,,AMSA05.jpg,AMSA06.jpg,AMNE03.jpg,AMNE09.jpg,AMSA06.jpg,MS,2,num_6,16,num_6,1.43339864654,,,2018_Feb_15_1649,59.9929382117,FEMA4ImagesEEG,001,202854,
AFNE01.JPG,AFNE01.JPG,AFNE01.JPG,AFNE01.JPG,AFNE01.JPG,AFNE01.JPG,,,,,,,,,,,,,0,7,7,4,,,,,,,,,,,AMSA14.jpg,AMNE07.jpg,AMSA16.jpg,AMNE09.jpg,AMNE07.jpg,MN,1,num_6,32,num_2,2.01669448009,,,2018_Feb_15_1649,59.9929382117,FEMA4ImagesEEG,001,202854,
AFNE01.JPG,AFNE01.JPG,AFNE01.JPG,AFNE01.JPG,AFNE01.JPG,AFNE01.JPG,,,,,,,,,,,,,0,8,8,6,,,,,,,,,,,AMNE17.jpg,AMSA01.jpg,AMNE11.jpg,AMSA12.jpg,AMNE17.jpg,MN,1,num_8,16,num_8,3.18327620439,,,2018_Feb_15_1649,59.9929382117,FEMA4ImagesEEG,001,202854,
AFNE01.JPG,AFNE01.JPG,AFNE01.JPG,AFNE01.JPG,AFNE01.JPG,AFNE01.JPG,,,,,,,,,,,,,0,9,9,7,,,,,,,,,,,AMNE11.jpg,AMSA17.jpg,AMNE12.jpg,AMSA08.jpg,AMSA08.jpg,MS,2,num_4,32,num_2,1.35007474828,,,2018_Feb_15_1649,59.9929382117,FEMA4ImagesEEG,001,202854,
AFNE01.JPG,AFNE01.JPG,AFNE01.JPG,AFNE01.JPG,AFNE01.JPG,AFNE01.JPG,,,,,,,,,,,,,1,0,10,2,,,,,,,,,,,AMNE09.jpg,AMNE15.jpg,AMSA17.jpg,AMSA07.jpg,AMSA17.jpg,MS,2,num_2,32,num_8,0.883505885722,,,2018_Feb_15_1649,59.9929382117,FEMA4ImagesEEG,001,202854,
AFNE01.JPG,AFNE01.JPG,AFNE01.JPG,AFNE01.JPG,AFNE01.JPG,AFNE01.JPG,,,,,,,,,,,,,1,1,11,0,,,,,,,,,,,AMSA06.jpg,AMNE20.jpg,AMNE11.jpg,AMSA10.jpg,AMNE11.jpg,MN,1,num_2,16,num_2,1.41675099428,,,2018_Feb_15_1649,59.9929382117,FEMA4ImagesEEG,001,202854,
AFNE01.JPG,AFNE01.JPG,AFNE01.JPG,AFNE01.JPG,AFNE01.JPG,AFNE01.JPG,,,,,,,,,,,,,1,2,12,1,,,,,,,,,,,AMSA06.jpg,AMNE08.jpg,AMSA11.jpg,AMNE19.jpg,AMSA11.jpg,MS,2,num_2,16,num_2,0.883425380103,,,2018_Feb_15_1649,59.9929382117,FEMA4ImagesEEG,001,202854,
AFNE01.JPG,AFNE01.JPG,AFNE01.JPG,AFNE01.JPG,AFNE01.JPG,AFNE01.JPG,,,,,,,,,,,,,1,3,13,8,,,,,,,,,,,AMSA04.jpg,AMNE09.jpg,AMNE12.jpg,AMSA08.jpg,AMNE09.jpg,MN,1,num_6,32,num_4,0.950084947981,,,2018_Feb_15_1649,59.9929382117,FEMA4ImagesEEG,001,202854,
AFNE01.JPG,AFNE01.JPG,AFNE01.JPG,AFNE01.JPG,AFNE01.JPG,AFNE01.JPG,,,,,,,,,,,,,1,4,14,7,,,,,,,,,,,AMSA04.jpg,AMNE03.jpg,AMSA01.jpg,AMNE18.jpg,AMNE18.jpg,MN,1,num_4,32,num_8,1.80008801073,,,2018_Feb_15_1649,59.9929382117,FEMA4ImagesEEG,001,202854,
AFNE01.JPG,AFNE01.JPG,AFNE01.JPG,AFNE01.JPG,AFNE01.JPG,AFNE01.JPG,,,,,,,,,,,,,1,5,15,3,,,,,,,,,,,AMSA03.jpg,AMNE19.jpg,AMSA02.jpg,AMNE01.jpg,AMSA02.jpg,MS,2,num_2,16,num_2,1.21676748036,,,2018_Feb_15_1649,59.9929382117,FEMA4ImagesEEG,001,202854,
AFNE01.JPG,AFNE01.JPG,AFNE01.JPG,AFNE01.JPG,AFNE01.JPG,AFNE01.JPG,,,,,,,,,,,,,1,6,16,5,,,,,,,,,,,AMSA13.jpg,AMNE12.jpg,AMSA11.jpg,AMNE01.jpg,AMNE12.jpg,MN,1,num_6,16,num_6,1.70004525618,,,2018_Feb_15_1649,59.9929382117,FEMA4ImagesEEG,001,202854,
AFNE01.JPG,AFNE01.JPG,AFNE01.JPG,AFNE01.JPG,AFNE01.JPG,AFNE01.JPG,,,,,,,,,,,,,1,7,17,4,,,,,,,,,,,AMNE07.jpg,AMNE18.jpg,AMSA02.jpg,AMSA07.jpg,AMSA07.jpg,MS,2,num_4,32,num_8,2.1998760663,,,2018_Feb_15_1649,59.9929382117,FEMA4ImagesEEG,001,202854,
AFNE01.JPG,AFNE01.JPG,AFNE01.JPG,AFNE01.JPG,AFNE01.JPG,AFNE01.JPG,,,,,,,,,,,,,1,8,18,9,,,,,,,,,,,AMSA12.jpg,AMNE03.jpg,AMSA06.jpg,AMNE10.jpg,AMSA12.jpg,MS,2,num_8,32,num_2,1.21671648277,,,2018_Feb_15_1649,59.9929382117,FEMA4ImagesEEG,001,202854,
AFNE01.JPG,AFNE01.JPG,AFNE01.JPG,AFNE01.JPG,AFNE01.JPG,AFNE01.JPG,,,,,,,,,,,,,1,9,19,6,,,,,,,,,,,AMSA02.jpg,AMSA18.jpg,AMNE11.jpg,AMNE14.jpg,AMNE14.jpg,MN,1,num_4,16,num_4,0.666844570078,,,2018_Feb_15_1649,59.9929382117,FEMA4ImagesEEG,001,202854,
AFNE01.JPG,AFNE01.JPG,AFNE01.JPG,AFNE01.JPG,AFNE01.JPG,AFNE01.JPG,,,,,,,,,,,,,2,0,20,4,,,,,,,,,,,AMNE16.jpg,AMNE18.jpg,AMSA07.jpg,AMSA02.jpg,AMNE18.jpg,MN,1,num_6,16,num_6,0.833483065246,,,2018_Feb_15_1649,59.9929382117,FEMA4ImagesEEG,001,202854,
AFNE01.JPG,AFNE01.JPG,AFNE01.JPG,AFNE01.JPG,AFNE01.JPG,AFNE01.JPG,,,,,,,,,,,,,2,1,21,5,,,,,,,,,,,AMSA10.jpg,AMNE05.jpg,AMNE14.jpg,AMSA13.jpg,AMSA13.jpg,MS,2,num_4,32,num_2,1.90004801471,,,2018_Feb_15_1649,59.9929382117,FEMA4ImagesEEG,001,202854,
AFNE01.JPG,AFNE01.JPG,AFNE01.JPG,AFNE01.JPG,AFNE01.JPG,AFNE01.JPG,,,,,,,,,,,,,2,2,22,9,,,,,,,,,,,AMNE18.jpg,AMNE19.jpg,AMSA08.jpg,AMSA12.jpg,AMNE19.jpg,MN,1,num_6,32,num_4,1.26673930348,,,2018_Feb_15_1649,59.9929382117,FEMA4ImagesEEG,001,202854,
AFNE01.JPG,AFNE01.JPG,AFNE01.JPG,AFNE01.JPG,AFNE01.JPG,AFNE01.JPG,,,,,,,,,,,,,2,3,23,1,,,,,,,,,,,AMSA05.jpg,AMSA06.jpg,AMNE03.jpg,AMNE08.jpg,AMNE08.jpg,MN,1,num_4,32,num_6,1.65013565659,,,2018_Feb_15_1649,59.9929382117,FEMA4ImagesEEG,001,202854,
AFNE01.JPG,AFNE01.JPG,AFNE01.JPG,AFNE01.JPG,AFNE01.JPG,AFNE01.JPG,,,,,,,,,,,,,2,4,24,8,,,,,,,,,,,AMSA10.jpg,AMNE12.jpg,AMNE03.jpg,AMSA12.jpg,AMSA10.jpg,MS,2,num_8,16,num_8,4.34989385121,,,2018_Feb_15_1649,59.9929382117,FEMA4ImagesEEG,001,202854,
AFNE01.JPG,AFNE01.JPG,AFNE01.JPG,AFNE01.JPG,AFNE01.JPG,AFNE01.JPG,,,,,,,,,,,,,2,5,25,3,,,,,,,,,,,AMNE04.jpg,AMSA17.jpg,AMSA05.jpg,AMNE02.jpg,AMSA17.jpg,MS,2,num_6,16,num_6,1.06677984493,,,2018_Feb_15_1649,59.9929382117,FEMA4ImagesEEG,001,202854,
AFNE01.JPG,AFNE01.JPG,AFNE01.JPG,AFNE01.JPG,AFNE01.JPG,AFNE01.JPG,,,,,,,,,,,,,2,6,26,0,,,,,,,,,,,AMSA20.jpg,AMSA06.jpg,AMNE11.jpg,AMNE15.jpg,AMNE11.jpg,MN,1,num_2,16,num_2,1.51673761965,,,2018_Feb_15_1649,59.9929382117,FEMA4ImagesEEG,001,202854,
AFNE01.JPG,AFNE01.JPG,AFNE01.JPG,AFNE01.JPG,AFNE01.JPG,AFNE01.JPG,,,,,,,,,,,,,2,7,27,2,,,,,,,,,,,AMNE15.jpg,AMNE11.jpg,AMSA09.jpg,AMSA04.jpg,AMSA09.jpg,MS,2,num_2,32,num_8,1.0000696003,,,2018_Feb_15_1649,59.9929382117,FEMA4ImagesEEG,001,202854,
AFNE01.JPG,AFNE01.JPG,AFNE01.JPG,AFNE01.JPG,AFNE01.JPG,AFNE01.JPG,,,,,,,,,,,,,2,8,28,6,,,,,,,,,,,AMNE07.jpg,AMSA13.jpg,AMSA08.jpg,AMNE04.jpg,AMNE04.jpg,MN,1,num_4,32,num_8,0.900107030524,,,2018_Feb_15_1649,59.9929382117,FEMA4ImagesEEG,001,202854,
AFNE01.JPG,AFNE01.JPG,AFNE01.JPG,AFNE01.JPG,AFNE01.JPG,AFNE01.JPG,,,,,,,,,,,,,2,9,29,7,,,,,,,,,,,AMNE12.jpg,AMSA19.jpg,AMNE02.jpg,AMSA05.jpg,AMNE12.jpg,MN,1,num_8,32,num_2,1.43339415616,,,2018_Feb_15_1649,59.9929382117,FEMA4ImagesEEG,001,202854,
AFNE01.JPG,AFNE01.JPG,AFNE01.JPG,AFNE01.JPG,AFNE01.JPG,AFNE01.JPG,,,,,,,,,,,,,3,0,30,9,,,,,,,,,,,AMNE15.jpg,AMSA17.jpg,AMNE18.jpg,AMSA15.jpg,AMSA15.jpg,MS,2,num_4,32,num_8,1.83339229575,,,2018_Feb_15_1649,59.9929382117,FEMA4ImagesEEG,001,202854,
AFNE01.JPG,AFNE01.JPG,AFNE01.JPG,AFNE01.JPG,AFNE01.JPG,AFNE01.JPG,,,,,,,,,,,,,3,1,31,7,,,,,,,,,,,AMNE03.jpg,AMSA17.jpg,AMNE16.jpg,AMSA18.jpg,AMNE03.jpg,MN,1,num_8,16,num_8,2.36675704014,,,2018_Feb_15_1649,59.9929382117,FEMA4ImagesEEG,001,202854,
AFNE01.JPG,AFNE01.JPG,AFNE01.JPG,AFNE01.JPG,AFNE01.JPG,AFNE01.JPG,,,,,,,,,,,,,3,2,32,1,,,,,,,,,,,AMNE07.jpg,AMSA11.jpg,AMNE11.jpg,AMSA06.jpg,AMNE11.jpg,MN,1,num_2,32,num_6,0.783478847472,,,2018_Feb_15_1649,59.9929382117,FEMA4ImagesEEG,001,202854,
AFNE01.JPG,AFNE01.JPG,AFNE01.JPG,AFNE01.JPG,AFNE01.JPG,AFNE01.JPG,,,,,,,,,,,,,3,3,33,5,,,,,,,,,,,AMNE17.jpg,AMSA20.jpg,AMNE19.jpg,AMSA05.jpg,AMSA20.jpg,MS,2,num_6,32,num_8,0.783477243735,,,2018_Feb_15_1649,59.9929382117,FEMA4ImagesEEG,001,202854,
AFNE01.JPG,AFNE01.JPG,AFNE01.JPG,AFNE01.JPG,AFNE01.JPG,AFNE01.JPG,,,,,,,,,,,,,3,4,34,3,,,,,,,,,,,AMSA10.jpg,AMSA12.jpg,AMNE01.jpg,AMNE17.jpg,AMSA10.jpg,MS,2,num_8,32,num_4,1.00018025539,,,2018_Feb_15_1649,59.9929382117,FEMA4ImagesEEG,001,202854,
AFNE01.JPG,AFNE01.JPG,AFNE01.JPG,AFNE01.JPG,AFNE01.JPG,AFNE01.JPG,,,,,,,,,,,,,3,5,35,8,,,,,,,,,,,AMNE17.jpg,AMNE03.jpg,AMSA10.jpg,AMSA13.jpg,AMSA13.jpg,MS,2,num_4,32,num_2,1.58341354504,,,2018_Feb_15_1649,59.9929382117,FEMA4ImagesEEG,001,202854,
AFNE01.JPG,AFNE01.JPG,AFNE01.JPG,AFNE01.JPG,AFNE01.JPG,AFNE01.JPG,,,,,,,,,,,,,3,6,36,4,,,,,,,,,,,AMNE09.jpg,AMSA18.jpg,AMSA09.jpg,AMNE06.jpg,AMNE06.jpg,MN,1,num_4,32,num_8,0.866761370329,,,2018_Feb_15_1649,59.9929382117,FEMA4ImagesEEG,001,202854,
AFNE01.JPG,AFNE01.JPG,AFNE01.JPG,AFNE01.JPG,AFNE01.JPG,AFNE01.JPG,,,,,,,,,,,,,3,7,37,0,,,,,,,,,,,AMSA02.jpg,AMNE07.jpg,AMSA09.jpg,AMNE19.jpg,AMNE19.jpg,MN,1,num_4,32,num_6,1.08354713302,,,2018_Feb_15_1649,59.9929382117,FEMA4ImagesEEG,001,202854,
AFNE01.JPG,AFNE01.JPG,AFNE01.JPG,AFNE01.JPG,AFNE01.JPG,AFNE01.JPG,,,,,,,,,,,,,3,8,38,2,,,,,,,,,,,AMNE11.jpg,AMNE04.jpg,AMSA01.jpg,AMSA15.jpg,AMNE11.jpg,MN,1,num_8,16,num_8,0.800109821139,,,2018_Feb_15_1649,59.9929382117,FEMA4ImagesEEG,001,202854,
AFNE01.JPG,AFNE01.JPG,AFNE01.JPG,AFNE01.JPG,AFNE01.JPG,AFNE01.JPG,,,,,,,,,,,,,3,9,39,6,,,,,,,,,,,AMSA16.jpg,AMSA05.jpg,AMNE13.jpg,AMNE06.jpg,AMNE13.jpg,MN,1,num_2,32,num_6,1.1667337548,,,2018_Feb_15_1649,59.9929382117,FEMA4ImagesEEG,001,202854,
AFNE01.JPG,AFNE01.JPG,AFNE01.JPG,AFNE01.JPG,AFNE01.JPG,AFNE01.JPG,,,,,,,,,,,,,4,0,40,2,,,,,,,,,,,AMSA18.jpg,AMNE04.jpg,AMSA08.jpg,AMNE17.jpg,AMSA18.jpg,MS,2,num_8,16,num_8,0.883444945328,,,2018_Feb_15_1649,59.9929382117,FEMA4ImagesEEG,001,202854,
AFNE01.JPG,AFNE01.JPG,AFNE01.JPG,AFNE01.JPG,AFNE01.JPG,AFNE01.JPG,,,,,,,,,,,,,4,1,41,0,,,,,,,,,,,AMNE16.jpg,AMSA15.jpg,AMNE10.jpg,AMSA11.jpg,AMNE10.jpg,MN,1,num_2,32,num_6,1.1334618642,,,2018_Feb_15_1649,59.9929382117,FEMA4ImagesEEG,001,202854,
AFNE01.JPG,AFNE01.JPG,AFNE01.JPG,AFNE01.JPG,AFNE01.JPG,AFNE01.JPG,,,,,,,,,,,,,4,2,42,5,,,,,,,,,,,AMSA04.jpg,AMSA18.jpg,AMNE01.jpg,AMNE13.jpg,AMSA04.jpg,MS,2,num_8,16,num_8,1.11675744131,,,2018_Feb_15_1649,59.9929382117,FEMA4ImagesEEG,001,202854,
AFNE01.JPG,AFNE01.JPG,AFNE01.JPG,AFNE01.JPG,AFNE01.JPG,AFNE01.JPG,,,,,,,,,,,,,4,3,43,7,,,,,,,,,,,AMSA14.jpg,AMNE09.jpg,AMNE15.jpg,AMSA10.jpg,AMNE15.jpg,MN,1,num_2,32,num_8,0.816747530364,,,2018_Feb_15_1649,59.9929382117,FEMA4ImagesEEG,001,202854,
AFNE01.JPG,AFNE01.JPG,AFNE01.JPG,AFNE01.JPG,AFNE01.JPG,AFNE01.JPG,,,,,,,,,,,,,4,4,44,4,,,,,,,,,,,AMSA19.jpg,AMSA04.jpg,AMNE10.jpg,AMNE06.jpg,AMNE10.jpg,MN,1,num_2,32,num_8,0.9834501734,,,2018_Feb_15_1649,59.9929382117,FEMA4ImagesEEG,001,202854,
AFNE01.JPG,AFNE01.JPG,AFNE01.JPG,AFNE01.JPG,AFNE01.JPG,AFNE01.JPG,,,,,,,,,,,,,4,5,45,6,,,,,,,,,,,AMNE13.jpg,AMNE08.jpg,AMSA06.jpg,AMSA15.jpg,AMNE13.jpg,MN,1,num_8,16,num_8,2.34998462046,,,2018_Feb_15_1649,59.9929382117,FEMA4ImagesEEG,001,202854,
AFNE01.JPG,AFNE01.JPG,AFNE01.JPG,AFNE01.JPG,AFNE01.JPG,AFNE01.JPG,,,,,,,,,,,,,4,6,46,3,,,,,,,,,,,AMNE13.jpg,AMSA09.jpg,AMNE20.jpg,AMSA06.jpg,AMSA09.jpg,MS,2,num_6,32,num_8,0.733481365256,,,2018_Feb_15_1649,59.9929382117,FEMA4ImagesEEG,001,202854,
AFNE01.JPG,AFNE01.JPG,AFNE01.JPG,AFNE01.JPG,AFNE01.JPG,AFNE01.JPG,,,,,,,,,,,,,4,7,47,8,,,,,,,,,,,AMSA05.jpg,AMNE03.jpg,AMSA19.jpg,AMNE19.jpg,AMNE19.jpg,MN,1,num_4,32,num_8,0.700142760994,,,2018_Feb_15_1649,59.9929382117,FEMA4ImagesEEG,001,202854,
AFNE01.JPG,AFNE01.JPG,AFNE01.JPG,AFNE01.JPG,AFNE01.JPG,AFNE01.JPG,,,,,,,,,,,,,4,8,48,9,,,,,,,,,,,AMSA05.jpg,AMSA17.jpg,AMNE10.jpg,AMNE12.jpg,AMNE12.jpg,MN,1,num_4,32,num_6,1.85003064666,,,2018_Feb_15_1649,59.9929382117,FEMA4ImagesEEG,001,202854,
AFNE01.JPG,AFNE01.JPG,AFNE01.JPG,AFNE01.JPG,AFNE01.JPG,AFNE01.JPG,,,,,,,,,,,,,4,9,49,1,,,,,,,,,,,AMNE13.jpg,AMNE09.jpg,AMSA02.jpg,AMSA01.jpg,AMSA02.jpg,MS,2,num_2,16,num_2,1.16675652703,,,2018_Feb_15_1649,59.9929382117,FEMA4ImagesEEG,001,202854,
AFNE01.JPG,AFNE01.JPG,AFNE01.JPG,AFNE01.JPG,AFNE01.JPG,AFNE01.JPG,,,,,,,,,,,,,5,0,50,5,,,,,,,,,,,AMNE06.jpg,AMNE09.jpg,AMSA05.jpg,AMSA13.jpg,AMSA05.jpg,MS,2,num_2,16,num_2,0.566796363099,,,2018_Feb_15_1649,59.9929382117,FEMA4ImagesEEG,001,202854,
AFNE01.JPG,AFNE01.JPG,AFNE01.JPG,AFNE01.JPG,AFNE01.JPG,AFNE01.JPG,,,,,,,,,,,,,5,1,51,7,,,,,,,,,,,AMNE10.jpg,AMSA10.jpg,AMNE15.jpg,AMSA06.jpg,AMSA06.jpg,MS,2,num_4,16,num_4,1.05016554962,,,2018_Feb_15_1649,59.9929382117,FEMA4ImagesEEG,001,202854,
AFNE01.JPG,AFNE01.JPG,AFNE01.JPG,AFNE01.JPG,AFNE01.JPG,AFNE01.JPG,,,,,,,,,,,,,5,2,52,3,,,,,,,,,,,AMSA12.jpg,AMSA11.jpg,AMNE01.jpg,AMNE16.jpg,AMNE16.jpg,MN,1,num_4,32,num_8,1.0499400699,,,2018_Feb_15_1649,59.9929382117,FEMA4ImagesEEG,001,202854,
AFNE01.JPG,AFNE01.JPG,AFNE01.JPG,AFNE01.JPG,AFNE01.JPG,AFNE01.JPG,,,,,,,,,,,,,5,3,53,8,,,,,,,,,,,AMNE01.jpg,AMSA13.jpg,AMSA15.jpg,AMNE20.jpg,AMSA13.jpg,MS,2,num_6,32,num_8,0.750135753071,,,2018_Feb_15_1649,59.9929382117,FEMA4ImagesEEG,001,202854,
AFNE01.JPG,AFNE01.JPG,AFNE01.JPG,AFNE01.JPG,AFNE01.JPG,AFNE01.JPG,,,,,,,,,,,,,5,4,54,4,,,,,,,,,,,AMNE15.jpg,AMNE10.jpg,AMSA02.jpg,AMSA18.jpg,AMSA18.jpg,MS,2,num_4,32,num_8,0.683489656541,,,2018_Feb_15_1649,59.9929382117,FEMA4ImagesEEG,001,202854,
AFNE01.JPG,AFNE01.JPG,AFNE01.JPG,AFNE01.JPG,AFNE01.JPG,AFNE01.JPG,,,,,,,,,,,,,5,5,55,0,,,,,,,,,,,AMSA04.jpg,AMSA14.jpg,AMNE08.jpg,AMNE07.jpg,AMNE07.jpg,MN,1,num_4,32,num_2,1.18341572583,,,2018_Feb_15_1649,59.9929382117,FEMA4ImagesEEG,001,202854,
AFNE01.JPG,AFNE01.JPG,AFNE01.JPG,AFNE01.JPG,AFNE01.JPG,AFNE01.JPG,,,,,,,,,,,,,5,6,56,9,,,,,,,,,,,AMSA02.jpg,AMNE08.jpg,AMNE11.jpg,AMSA09.jpg,AMNE11.jpg,MN,1,num_2,32,num_8,0.733502533985,,,2018_Feb_15_1649,59.9929382117,FEMA4ImagesEEG,001,202854,
AFNE01.JPG,AFNE01.JPG,AFNE01.JPG,AFNE01.JPG,AFNE01.JPG,AFNE01.JPG,,,,,,,,,,,,,5,7,57,1,,,,,,,,,,,AMNE12.jpg,AMSA07.jpg,AMNE11.jpg,AMSA09.jpg,AMSA09.jpg,MS,2,num_4,32,num_8,1.28340138891,,,2018_Feb_15_1649,59.9929382117,FEMA4ImagesEEG,001,202854,
AFNE01.JPG,AFNE01.JPG,AFNE01.JPG,AFNE01.JPG,AFNE01.JPG,AFNE01.JPG,,,,,,,,,,,,,5,8,58,2,,,,,,,,,,,AMNE05.jpg,AMSA16.jpg,AMSA17.jpg,AMNE08.jpg,AMSA17.jpg,MS,2,num_2,48,None,,,,2018_Feb_15_1649,59.9929382117,FEMA4ImagesEEG,001,202854,
AFNE01.JPG,AFNE01.JPG,AFNE01.JPG,AFNE01.JPG,AFNE01.JPG,AFNE01.JPG,,,,,,,,,,,,,5,9,59,6,,,,,,,,,,,AMNE11.jpg,AMNE08.jpg,AMSA12.jpg,AMSA04.jpg,AMNE11.jpg,MN,1,num_8,32,num_2,1.28342993464,,,2018_Feb_15_1649,59.9929382117,FEMA4ImagesEEG,001,202854,
,,,,,,,,,,,,,,,,,,,,,,,,,,,,,,,,,,,,,,,,,,,space,3.33330425294,2018_Feb_15_1649,59.9929382117,FEMA4ImagesEEG,001,202854,
AFNE01.JPG,AFNE01.JPG,AFNE01.JPG,AFNE01.JPG,AFNE01.JPG,AFNE01.JPG,,,,,,,,,,,,,,,,,0,0,0,7,,,,,,,AFSA10.jpg,AFNE20.jpg,AFNE07.jpg,AFSA16.jpg,AFSA10.jpg,FS,4,num_8,32,num_2,1.26671909681,,,2018_Feb_15_1649,59.9929382117,FEMA4ImagesEEG,001,202854,
AFNE01.JPG,AFNE01.JPG,AFNE01.JPG,AFNE01.JPG,AFNE01.JPG,AFNE01.JPG,,,,,,,,,,,,,,,,,0,1,1,2,,,,,,,AFSA19.jpg,AFNE16.jpg,AFSA04.jpg,AFNE13.jpg,AFNE13.jpg,FN,3,num_4,16,num_4,1.08343808143,,,2018_Feb_15_1649,59.9929382117,FEMA4ImagesEEG,001,202854,
AFNE01.JPG,AFNE01.JPG,AFNE01.JPG,AFNE01.JPG,AFNE01.JPG,AFNE01.JPG,,,,,,,,,,,,,,,,,0,2,2,6,,,,,,,AFSA14.jpg,AFNE18.jpg,AFNE12.jpg,AFSA08.jpg,AFNE18.jpg,FN,3,num_6,16,num_6,0.883469000692,,,2018_Feb_15_1649,59.9929382117,FEMA4ImagesEEG,001,202854,
AFNE01.JPG,AFNE01.JPG,AFNE01.JPG,AFNE01.JPG,AFNE01.JPG,AFNE01.JPG,,,,,,,,,,,,,,,,,0,3,3,3,,,,,,,AFNE06.jpg,AFNE12.jpg,AFSA18.jpg,AFSA20.jpg,AFSA20.jpg,FS,4,num_4,32,num_6,0.949965312146,,,2018_Feb_15_1649,59.9929382117,FEMA4ImagesEEG,001,202854,
AFNE01.JPG,AFNE01.JPG,AFNE01.JPG,AFNE01.JPG,AFNE01.JPG,AFNE01.JPG,,,,,,,,,,,,,,,,,0,4,4,4,,,,,,,AFSA01.jpg,AFNE20.jpg,AFNE06.jpg,AFSA02.jpg,AFSA01.jpg,FS,4,num_8,32,num_4,2.48335635709,,,2018_Feb_15_1649,59.9929382117,FEMA4ImagesEEG,001,202854,
AFNE01.JPG,AFNE01.JPG,AFNE01.JPG,AFNE01.JPG,AFNE01.JPG,AFNE01.JPG,,,,,,,,,,,,,,,,,0,5,5,9,,,,,,,AFNE07.jpg,AFSA19.jpg,AFNE13.jpg,AFSA01.jpg,AFSA19.jpg,FS,4,num_6,32,num_2,0.866774841212,,,2018_Feb_15_1649,59.9929382117,FEMA4ImagesEEG,001,202854,
AFNE01.JPG,AFNE01.JPG,AFNE01.JPG,AFNE01.JPG,AFNE01.JPG,AFNE01.JPG,,,,,,,,,,,,,,,,,0,6,6,1,,,,,,,AFNE18.jpg,AFSA15.jpg,AFSA16.jpg,AFNE20.jpg,AFNE20.jpg,FN,3,num_4,32,num_6,1.20009641419,,,2018_Feb_15_1649,59.9929382117,FEMA4ImagesEEG,001,202854,
AFNE01.JPG,AFNE01.JPG,AFNE01.JPG,AFNE01.JPG,AFNE01.JPG,AFNE01.JPG,,,,,,,,,,,,,,,,,0,7,7,5,,,,,,,AFSA09.jpg,AFNE06.jpg,AFNE14.jpg,AFSA19.jpg,AFNE06.jpg,FN,3,num_6,32,num_2,1.31669637235,,,2018_Feb_15_1649,59.9929382117,FEMA4ImagesEEG,001,202854,
AFNE01.JPG,AFNE01.JPG,AFNE01.JPG,AFNE01.JPG,AFNE01.JPG,AFNE01.JPG,,,,,,,,,,,,,,,,,0,8,8,0,,,,,,,AFSA18.jpg,AFNE18.jpg,AFNE07.jpg,AFSA19.jpg,AFNE18.jpg,FN,3,num_6,32,num_8,0.816763888113,,,2018_Feb_15_1649,59.9929382117,FEMA4ImagesEEG,001,202854,
AFNE01.JPG,AFNE01.JPG,AFNE01.JPG,AFNE01.JPG,AFNE01.JPG,AFNE01.JPG,,,,,,,,,,,,,,,,,0,9,9,8,,,,,,,AFNE15.jpg,AFSA07.jpg,AFNE11.jpg,AFSA08.jpg,AFNE11.jpg,FN,3,num_2,32,num_6,0.883478943491,,,2018_Feb_15_1649,59.9929382117,FEMA4ImagesEEG,001,202854,
AFNE01.JPG,AFNE01.JPG,AFNE01.JPG,AFNE01.JPG,AFNE01.JPG,AFNE01.JPG,,,,,,,,,,,,,,,,,1,0,10,2,,,,,,,AFNE19.jpg,AFSA08.jpg,AFSA06.jpg,AFNE16.jpg,AFNE19.jpg,FN,3,num_8,16,num_8,4.96620466304,,,2018_Feb_15_1649,59.9929382117,FEMA4ImagesEEG,001,202854,
AFNE01.JPG,AFNE01.JPG,AFNE01.JPG,AFNE01.JPG,AFNE01.JPG,AFNE01.JPG,,,,,,,,,,,,,,,,,1,1,11,5,,,,,,,AFNE16.jpg,AFSA04.jpg,AFSA08.jpg,AFNE19.jpg,AFNE19.jpg,FN,3,num_4,32,num_8,1.10010561952,,,2018_Feb_15_1649,59.9929382117,FEMA4ImagesEEG,001,202854,
AFNE01.JPG,AFNE01.JPG,AFNE01.JPG,AFNE01.JPG,AFNE01.JPG,AFNE01.JPG,,,,,,,,,,,,,,,,,1,2,12,3,,,,,,,AFNE08.jpg,AFNE09.jpg,AFSA05.jpg,AFSA07.jpg,AFNE08.jpg,FN,3,num_8,16,num_8,0.900098050013,,,2018_Feb_15_1649,59.9929382117,FEMA4ImagesEEG,001,202854,
AFNE01.JPG,AFNE01.JPG,AFNE01.JPG,AFNE01.JPG,AFNE01.JPG,AFNE01.JPG,,,,,,,,,,,,,,,,,1,3,13,8,,,,,,,AFSA20.jpg,AFNE17.jpg,AFSA09.jpg,AFNE04.jpg,AFSA20.jpg,FS,4,num_8,16,num_8,0.950156793464,,,2018_Feb_15_1649,59.9929382117,FEMA4ImagesEEG,001,202854,
AFNE01.JPG,AFNE01.JPG,AFNE01.JPG,AFNE01.JPG,AFNE01.JPG,AFNE01.JPG,,,,,,,,,,,,,,,,,1,4,14,7,,,,,,,AFSA16.jpg,AFSA05.jpg,AFNE08.jpg,AFNE14.jpg,AFSA05.jpg,FS,4,num_6,32,num_8,1.45012263465,,,2018_Feb_15_1649,59.9929382117,FEMA4ImagesEEG,001,202854,
AFNE01.JPG,AFNE01.JPG,AFNE01.JPG,AFNE01.JPG,AFNE01.JPG,AFNE01.JPG,,,,,,,,,,,,,,,,,1,5,15,0,,,,,,,AFNE04.jpg,AFSA09.jpg,AFNE19.jpg,AFSA15.jpg,AFSA15.jpg,FS,4,num_4,32,num_8,1.35006705043,,,2018_Feb_15_1649,59.9929382117,FEMA4ImagesEEG,001,202854,
AFNE01.JPG,AFNE01.JPG,AFNE01.JPG,AFNE01.JPG,AFNE01.JPG,AFNE01.JPG,,,,,,,,,,,,,,,,,1,6,16,1,,,,,,,AFNE16.jpg,AFSA03.jpg,AFNE06.jpg,AFSA11.jpg,AFSA11.jpg,FS,4,num_4,32,num_8,1.18343015923,,,2018_Feb_15_1649,59.9929382117,FEMA4ImagesEEG,001,202854,
AFNE01.JPG,AFNE01.JPG,AFNE01.JPG,AFNE01.JPG,AFNE01.JPG,AFNE01.JPG,,,,,,,,,,,,,,,,,1,7,17,4,,,,,,,AFNE12.jpg,AFSA14.jpg,AFSA11.jpg,AFNE05.jpg,AFNE05.jpg,FN,3,num_4,32,num_2,1.40007383423,,,2018_Feb_15_1649,59.9929382117,FEMA4ImagesEEG,001,202854,
AFNE01.JPG,AFNE01.JPG,AFNE01.JPG,AFNE01.JPG,AFNE01.JPG,AFNE01.JPG,,,,,,,,,,,,,,,,,1,8,18,6,,,,,,,AFNE19.jpg,AFSA17.jpg,AFSA16.jpg,AFNE09.jpg,AFSA16.jpg,FS,4,num_2,32,num_6,0.716793620726,,,2018_Feb_15_1649,59.9929382117,FEMA4ImagesEEG,001,202854,
AFNE01.JPG,AFNE01.JPG,AFNE01.JPG,AFNE01.JPG,AFNE01.JPG,AFNE01.JPG,,,,,,,,,,,,,,,,,1,9,19,9,,,,,,,AFNE19.jpg,AFNE10.jpg,AFSA19.jpg,AFSA07.jpg,AFNE19.jpg,FN,3,num_8,32,num_4,1.08344706218,,,2018_Feb_15_1649,59.9929382117,FEMA4ImagesEEG,001,202854,
AFNE01.JPG,AFNE01.JPG,AFNE01.JPG,AFNE01.JPG,AFNE01.JPG,AFNE01.JPG,,,,,,,,,,,,,,,,,2,0,20,7,,,,,,,AFNE06.jpg,AFSA08.jpg,AFSA13.jpg,AFNE11.jpg,AFNE06.jpg,FN,3,num_8,32,num_4,1.08347015525,,,2018_Feb_15_1649,59.9929382117,FEMA4ImagesEEG,001,202854,
AFNE01.JPG,AFNE01.JPG,AFNE01.JPG,AFNE01.JPG,AFNE01.JPG,AFNE01.JPG,,,,,,,,,,,,,,,,,2,1,21,4,,,,,,,AFSA02.jpg,AFNE20.jpg,AFSA18.jpg,AFNE09.jpg,AFNE09.jpg,FN,3,num_4,32,num_8,1.06677278876,,,2018_Feb_15_1649,59.9929382117,FEMA4ImagesEEG,001,202854,
AFNE01.JPG,AFNE01.JPG,AFNE01.JPG,AFNE01.JPG,AFNE01.JPG,AFNE01.JPG,,,,,,,,,,,,,,,,,2,2,22,6,,,,,,,AFSA07.jpg,AFSA04.jpg,AFNE03.jpg,AFNE08.jpg,AFNE08.jpg,FN,3,num_4,32,num_6,0.91678226646,,,2018_Feb_15_1649,59.9929382117,FEMA4ImagesEEG,001,202854,
AFNE01.JPG,AFNE01.JPG,AFNE01.JPG,AFNE01.JPG,AFNE01.JPG,AFNE01.JPG,,,,,,,,,,,,,,,,,2,3,23,9,,,,,,,AFSA04.jpg,AFSA02.jpg,AFNE14.jpg,AFNE05.jpg,AFSA02.jpg,FS,4,num_6,32,num_4,0.983493793989,,,2018_Feb_15_1649,59.9929382117,FEMA4ImagesEEG,001,202854,
AFNE01.JPG,AFNE01.JPG,AFNE01.JPG,AFNE01.JPG,AFNE01.JPG,AFNE01.JPG,,,,,,,,,,,,,,,,,2,4,24,3,,,,,,,AFNE11.jpg,AFSA07.jpg,AFNE20.jpg,AFSA11.jpg,AFSA11.jpg,FS,4,num_4,32,num_8,1.63345336448,,,2018_Feb_15_1649,59.9929382117,FEMA4ImagesEEG,001,202854,
AFNE01.JPG,AFNE01.JPG,AFNE01.JPG,AFNE01.JPG,AFNE01.JPG,AFNE01.JPG,,,,,,,,,,,,,,,,,2,5,25,1,,,,,,,AFSA04.jpg,AFNE03.jpg,AFSA05.jpg,AFNE16.jpg,AFNE03.jpg,FN,3,num_6,32,num_4,1.76669295668,,,2018_Feb_15_1649,59.9929382117,FEMA4ImagesEEG,001,202854,
AFNE01.JPG,AFNE01.JPG,AFNE01.JPG,AFNE01.JPG,AFNE01.JPG,AFNE01.JPG,,,,,,,,,,,,,,,,,2,6,26,5,,,,,,,AFSA03.jpg,AFSA08.jpg,AFNE17.jpg,AFNE14.jpg,AFSA03.jpg,FS,4,num_8,32,num_2,1.99999262299,,,2018_Feb_15_1649,59.9929382117,FEMA4ImagesEEG,001,202854,
AFNE01.JPG,AFNE01.JPG,AFNE01.JPG,AFNE01.JPG,AFNE01.JPG,AFNE01.JPG,,,,,,,,,,,,,,,,,2,7,27,2,,,,,,,AFNE07.jpg,AFSA17.jpg,AFNE19.jpg,AFSA20.jpg,AFNE07.jpg,FN,3,num_8,16,num_8,0.500135833165,,,2018_Feb_15_1649,59.9929382117,FEMA4ImagesEEG,001,202854,
AFNE01.JPG,AFNE01.JPG,AFNE01.JPG,AFNE01.JPG,AFNE01.JPG,AFNE01.JPG,,,,,,,,,,,,,,,,,2,8,28,8,,,,,,,AFNE16.jpg,AFNE04.jpg,AFSA05.jpg,AFSA19.jpg,AFNE16.jpg,FN,3,num_8,32,num_6,1.08329086192,,,2018_Feb_15_1649,59.9929382117,FEMA4ImagesEEG,001,202854,
AFNE01.JPG,AFNE01.JPG,AFNE01.JPG,AFNE01.JPG,AFNE01.JPG,AFNE01.JPG,,,,,,,,,,,,,,,,,2,9,29,0,,,,,,,AFSA10.jpg,AFNE09.jpg,AFSA04.jpg,AFNE03.jpg,AFNE09.jpg,FN,3,num_6,32,num_8,0.81677030283,,,2018_Feb_15_1649,59.9929382117,FEMA4ImagesEEG,001,202854,
AFNE01.JPG,AFNE01.JPG,AFNE01.JPG,AFNE01.JPG,AFNE01.JPG,AFNE01.JPG,,,,,,,,,,,,,,,,,3,0,30,0,,,,,,,AFSA04.jpg,AFNE06.jpg,AFNE04.jpg,AFSA14.jpg,AFSA04.jpg,FS,4,num_8,32,num_6,0.916629594518,,,2018_Feb_15_1649,59.9929382117,FEMA4ImagesEEG,001,202854,
AFNE01.JPG,AFNE01.JPG,AFNE01.JPG,AFNE01.JPG,AFNE01.JPG,AFNE01.JPG,,,,,,,,,,,,,,,,,3,1,31,1,,,,,,,AFNE08.jpg,AFSA14.jpg,AFNE13.jpg,AFSA11.jpg,AFNE13.jpg,FN,3,num_2,16,num_2,1.08342428971,,,2018_Feb_15_1649,59.9929382117,FEMA4ImagesEEG,001,202854,
AFNE01.JPG,AFNE01.JPG,AFNE01.JPG,AFNE01.JPG,AFNE01.JPG,AFNE01.JPG,,,,,,,,,,,,,,,,,3,2,32,9,,,,,,,AFNE05.jpg,AFNE14.jpg,AFSA17.jpg,AFSA10.jpg,AFNE05.jpg,FN,3,num_8,16,num_8,1.28346104641,,,2018_Feb_15_1649,59.9929382117,FEMA4ImagesEEG,001,202854,
AFNE01.JPG,AFNE01.JPG,AFNE01.JPG,AFNE01.JPG,AFNE01.JPG,AFNE01.JPG,,,,,,,,,,,,,,,,,3,3,33,2,,,,,,,AFNE08.jpg,AFSA07.jpg,AFNE01.jpg,AFSA06.jpg,AFSA06.jpg,FS,4,num_4,32,num_6,1.13367451448,,,2018_Feb_15_1649,59.9929382117,FEMA4ImagesEEG,001,202854,
AFNE01.JPG,AFNE01.JPG,AFNE01.JPG,AFNE01.JPG,AFNE01.JPG,AFNE01.JPG,,,,,,,,,,,,,,,,,3,4,34,5,,,,,,,AFSA16.jpg,AFNE05.jpg,AFNE14.jpg,AFSA07.jpg,AFSA07.jpg,FS,4,num_4,32,num_2,1.31673550257,,,2018_Feb_15_1649,59.9929382117,FEMA4ImagesEEG,001,202854,
AFNE01.JPG,AFNE01.JPG,AFNE01.JPG,AFNE01.JPG,AFNE01.JPG,AFNE01.JPG,,,,,,,,,,,,,,,,,3,5,35,6,,,,,,,AFSA19.jpg,AFNE16.jpg,AFSA03.jpg,AFNE09.jpg,AFNE09.jpg,FN,3,num_4,32,num_8,1.36673170188,,,2018_Feb_15_1649,59.9929382117,FEMA4ImagesEEG,001,202854,
AFNE01.JPG,AFNE01.JPG,AFNE01.JPG,AFNE01.JPG,AFNE01.JPG,AFNE01.JPG,,,,,,,,,,,,,,,,,3,6,36,7,,,,,,,AFNE07.jpg,AFSA10.jpg,AFSA19.jpg,AFNE08.jpg,AFSA19.jpg,FS,4,num_2,16,num_2,1.10009920457,,,2018_Feb_15_1649,59.9929382117,FEMA4ImagesEEG,001,202854,
AFNE01.JPG,AFNE01.JPG,AFNE01.JPG,AFNE01.JPG,AFNE01.JPG,AFNE01.JPG,,,,,,,,,,,,,,,,,3,7,37,8,,,,,,,AFSA03.jpg,AFNE16.jpg,AFSA19.jpg,AFNE13.jpg,AFSA19.jpg,FS,4,num_2,32,num_8,1.00007858127,,,2018_Feb_15_1649,59.9929382117,FEMA4ImagesEEG,001,202854,
AFNE01.JPG,AFNE01.JPG,AFNE01.JPG,AFNE01.JPG,AFNE01.JPG,AFNE01.JPG,,,,,,,,,,,,,,,,,3,8,38,3,,,,,,,AFSA18.jpg,AFNE11.jpg,AFNE10.jpg,AFSA20.jpg,AFSA20.jpg,FS,4,num_4,32,num_6,0.833420521114,,,2018_Feb_15_1649,59.9929382117,FEMA4ImagesEEG,001,202854,
AFNE01.JPG,AFNE01.JPG,AFNE01.JPG,AFNE01.JPG,AFNE01.JPG,AFNE01.JPG,,,,,,,,,,,,,,,,,3,9,39,4,,,,,,,AFSA08.jpg,AFNE08.jpg,AFNE18.jpg,AFSA10.jpg,AFSA08.jpg,FS,4,num_8,16,num_8,1.00012091873,,,2018_Feb_15_1649,59.9929382117,FEMA4ImagesEEG,001,202854,
AFNE01.JPG,AFNE01.JPG,AFNE01.JPG,AFNE01.JPG,AFNE01.JPG,AFNE01.JPG,,,,,,,,,,,,,,,,,4,0,40,0,,,,,,,AFSA01.jpg,AFNE04.jpg,AFNE19.jpg,AFSA10.jpg,AFSA01.jpg,FS,4,num_8,32,num_6,1.08342300681,,,2018_Feb_15_1649,59.9929382117,FEMA4ImagesEEG,001,202854,
AFNE01.JPG,AFNE01.JPG,AFNE01.JPG,AFNE01.JPG,AFNE01.JPG,AFNE01.JPG,,,,,,,,,,,,,,,,,4,1,41,5,,,,,,,AFSA11.jpg,AFNE14.jpg,AFSA10.jpg,AFNE04.jpg,AFNE14.jpg,FN,3,num_6,32,num_2,1.56669629249,,,2018_Feb_15_1649,59.9929382117,FEMA4ImagesEEG,001,202854,
AFNE01.JPG,AFNE01.JPG,AFNE01.JPG,AFNE01.JPG,AFNE01.JPG,AFNE01.JPG,,,,,,,,,,,,,,,,,4,2,42,6,,,,,,,AFNE04.jpg,AFSA17.jpg,AFSA02.jpg,AFNE11.jpg,AFSA17.jpg,FS,4,num_6,32,num_4,1.21672065253,,,2018_Feb_15_1649,59.9929382117,FEMA4ImagesEEG,001,202854,
AFNE01.JPG,AFNE01.JPG,AFNE01.JPG,AFNE01.JPG,AFNE01.JPG,AFNE01.JPG,,,,,,,,,,,,,,,,,4,3,43,7,,,,,,,AFSA18.jpg,AFNE18.jpg,AFNE13.jpg,AFSA17.jpg,AFNE13.jpg,FN,3,num_2,32,num_8,0.816836375045,,,2018_Feb_15_1649,59.9929382117,FEMA4ImagesEEG,001,202854,
AFNE01.JPG,AFNE01.JPG,AFNE01.JPG,AFNE01.JPG,AFNE01.JPG,AFNE01.JPG,,,,,,,,,,,,,,,,,4,4,44,9,,,,,,,AFNE13.jpg,AFNE19.jpg,AFSA08.jpg,AFSA03.jpg,AFSA08.jpg,FS,4,num_2,16,num_2,1.78339417232,,,2018_Feb_15_1649,59.9929382117,FEMA4ImagesEEG,001,202854,
AFNE01.JPG,AFNE01.JPG,AFNE01.JPG,AFNE01.JPG,AFNE01.JPG,AFNE01.JPG,,,,,,,,,,,,,,,,,4,5,45,4,,,,,,,AFNE07.jpg,AFNE02.jpg,AFSA09.jpg,AFSA02.jpg,AFNE02.jpg,FN,3,num_6,32,num_4,0.5167725801,,,2018_Feb_15_1649,59.9929382117,FEMA4ImagesEEG,001,202854,
AFNE01.JPG,AFNE01.JPG,AFNE01.JPG,AFNE01.JPG,AFNE01.JPG,AFNE01.JPG,,,,,,,,,,,,,,,,,4,6,46,3,,,,,,,AFSA09.jpg,AFNE20.jpg,AFSA11.jpg,AFNE19.jpg,AFSA09.jpg,FS,4,num_8,32,num_6,1.11661214638,,,2018_Feb_15_1649,59.9929382117,FEMA4ImagesEEG,001,202854,
AFNE01.JPG,AFNE01.JPG,AFNE01.JPG,AFNE01.JPG,AFNE01.JPG,AFNE01.JPG,,,,,,,,,,,,,,,,,4,7,47,8,,,,,,,AFNE02.jpg,AFSA04.jpg,AFNE14.jpg,AFSA15.jpg,AFSA04.jpg,FS,4,num_6,32,num_2,1.5167029798,,,2018_Feb_15_1649,59.9929382117,FEMA4ImagesEEG,001,202854,
AFNE01.JPG,AFNE01.JPG,AFNE01.JPG,AFNE01.JPG,AFNE01.JPG,AFNE01.JPG,,,,,,,,,,,,,,,,,4,8,48,1,,,,,,,AFNE02.jpg,AFSA02.jpg,AFSA08.jpg,AFNE19.jpg,AFSA08.jpg,FS,4,num_2,32,num_6,1.0334598436,,,2018_Feb_15_1649,59.9929382117,FEMA4ImagesEEG,001,202854,
AFNE01.JPG,AFNE01.JPG,AFNE01.JPG,AFNE01.JPG,AFNE01.JPG,AFNE01.JPG,,,,,,,,,,,,,,,,,4,9,49,2,,,,,,,AFSA05.jpg,AFNE14.jpg,AFNE02.jpg,AFSA02.jpg,AFSA02.jpg,FS,4,num_4,16,num_4,1.4167375234,,,2018_Feb_15_1649,59.9929382117,FEMA4ImagesEEG,001,202854,
AFNE01.JPG,AFNE01.JPG,AFNE01.JPG,AFNE01.JPG,AFNE01.JPG,AFNE01.JPG,,,,,,,,,,,,,,,,,5,0,50,3,,,,,,,AFNE15.jpg,AFSA14.jpg,AFSA06.jpg,AFNE20.jpg,AFSA14.jpg,FS,4,num_6,32,num_2,1.88335738331,,,2018_Feb_15_1649,59.9929382117,FEMA4ImagesEEG,001,202854,
AFNE01.JPG,AFNE01.JPG,AFNE01.JPG,AFNE01.JPG,AFNE01.JPG,AFNE01.JPG,,,,,,,,,,,,,,,,,5,1,51,4,,,,,,,AFNE11.jpg,AFSA01.jpg,AFNE13.jpg,AFSA10.jpg,AFSA01.jpg,FS,4,num_6,32,num_8,2.59998582327,,,2018_Feb_15_1649,59.9929382117,FEMA4ImagesEEG,001,202854,
AFNE01.JPG,AFNE01.JPG,AFNE01.JPG,AFNE01.JPG,AFNE01.JPG,AFNE01.JPG,,,,,,,,,,,,,,,,,5,2,52,8,,,,,,,AFSA17.jpg,AFNE06.jpg,AFSA10.jpg,AFNE07.jpg,AFSA10.jpg,FS,4,num_2,32,num_6,0.850095756585,,,2018_Feb_15_1649,59.9929382117,FEMA4ImagesEEG,001,202854,
AFNE01.JPG,AFNE01.JPG,AFNE01.JPG,AFNE01.JPG,AFNE01.JPG,AFNE01.JPG,,,,,,,,,,,,,,,,,5,3,53,9,,,,,,,AFSA11.jpg,AFSA19.jpg,AFNE20.jpg,AFNE03.jpg,AFNE03.jpg,FN,3,num_4,16,num_4,0.850109548541,,,2018_Feb_15_1649,59.9929382117,FEMA4ImagesEEG,001,202854,
AFNE01.JPG,AFNE01.JPG,AFNE01.JPG,AFNE01.JPG,AFNE01.JPG,AFNE01.JPG,,,,,,,,,,,,,,,,,5,4,54,7,,,,,,,AFSA01.jpg,AFSA02.jpg,AFNE15.jpg,AFNE14.jpg,AFSA02.jpg,FS,4,num_6,16,num_6,0.700411219848,,,2018_Feb_15_1649,59.9929382117,FEMA4ImagesEEG,001,202854,
AFNE01.JPG,AFNE01.JPG,AFNE01.JPG,AFNE01.JPG,AFNE01.JPG,AFNE01.JPG,,,,,,,,,,,,,,,,,5,5,55,2,,,,,,,AFNE01.jpg,AFSA10.jpg,AFNE16.jpg,AFSA17.jpg,AFSA17.jpg,FS,4,num_4,32,num_2,1.35006320174,,,2018_Feb_15_1649,59.9929382117,FEMA4ImagesEEG,001,202854,
AFNE01.JPG,AFNE01.JPG,AFNE01.JPG,AFNE01.JPG,AFNE01.JPG,AFNE01.JPG,,,,,,,,,,,,,,,,,5,6,56,1,,,,,,,AFSA18.jpg,AFNE13.jpg,AFSA15.jpg,AFNE02.jpg,AFNE02.jpg,FN,3,num_4,32,num_2,1.05013764533,,,2018_Feb_15_1649,59.9929382117,FEMA4ImagesEEG,001,202854,
AFNE01.JPG,AFNE01.JPG,AFNE01.JPG,AFNE01.JPG,AFNE01.JPG,AFNE01.JPG,,,,,,,,,,,,,,,,,5,7,57,6,,,,,,,AFSA20.jpg,AFNE08.jpg,AFSA12.jpg,AFNE20.jpg,AFNE08.jpg,FN,3,num_6,32,num_8,1.13345833612,,,2018_Feb_15_1649,59.9929382117,FEMA4ImagesEEG,001,202854,
AFNE01.JPG,AFNE01.JPG,AFNE01.JPG,AFNE01.JPG,AFNE01.JPG,AFNE01.JPG,,,,,,,,,,,,,,,,,5,8,58,5,,,,,,,AFSA15.jpg,AFSA11.jpg,AFNE17.jpg,AFNE18.jpg,AFNE18.jpg,FN,3,num_4,48,None,,,,2018_Feb_15_1649,59.9929382117,FEMA4ImagesEEG,001,202854,
AFNE01.JPG,AFNE01.JPG,AFNE01.JPG,AFNE01.JPG,AFNE01.JPG,AFNE01.JPG,,,,,,,,,,,,,,,,,5,9,59,0,,,,,,,AFSA11.jpg,AFNE06.jpg,AFSA10.jpg,AFNE13.jpg,AFNE06.jpg,FN,3,num_6,32,num_8,0.733456989052,,,2018_Feb_15_1649,59.9929382117,FEMA4ImagesEEG,001,202854,
,,,,,,,,,,,,,,,,,,,,,,,,,,,,,,,,,,,,,,,,,,,space,37.7138611013,2018_Feb_15_1649,59.9929382117,FEMA4ImagesEEG,001,202854,
AFNE01.JPG,AFNE01.JPG,AFNE01.JPG,AFNE01.JPG,AFNE01.JPG,AFNE01.JPG,,,,,,,,,,,,,,,,,,,,,0,0,0,9,,,AMNE01.jpg,AMNE11.jpg,AMSA09.jpg,AMSA17.jpg,AMNE11.jpg,MN,1,num_6,16,num_6,3.71651778487,,,2018_Feb_15_1649,59.9929382117,FEMA4ImagesEEG,001,202854,
AFNE01.JPG,AFNE01.JPG,AFNE01.JPG,AFNE01.JPG,AFNE01.JPG,AFNE01.JPG,,,,,,,,,,,,,,,,,,,,,0,1,1,7,,,AMNE18.jpg,AMNE04.jpg,AMSA11.jpg,AMSA02.jpg,AMSA02.jpg,MS,2,num_4,32,num_2,0.933452691184,,,2018_Feb_15_1649,59.9929382117,FEMA4ImagesEEG,001,202854,
AFNE01.JPG,AFNE01.JPG,AFNE01.JPG,AFNE01.JPG,AFNE01.JPG,AFNE01.JPG,,,,,,,,,,,,,,,,,,,,,0,2,2,1,,,AMNE14.jpg,AMSA09.jpg,AMSA20.jpg,AMNE17.jpg,AMNE14.jpg,MN,1,num_8,32,num_6,0.999952209881,,,2018_Feb_15_1649,59.9929382117,FEMA4ImagesEEG,001,202854,
AFNE01.JPG,AFNE01.JPG,AFNE01.JPG,AFNE01.JPG,AFNE01.JPG,AFNE01.JPG,,,,,,,,,,,,,,,,,,,,,0,3,3,0,,,AMNE12.jpg,AMSA20.jpg,AMSA12.jpg,AMNE20.jpg,AMNE20.jpg,MN,1,num_4,32,num_2,0.833429181017,,,2018_Feb_15_1649,59.9929382117,FEMA4ImagesEEG,001,202854,
AFNE01.JPG,AFNE01.JPG,AFNE01.JPG,AFNE01.JPG,AFNE01.JPG,AFNE01.JPG,,,,,,,,,,,,,,,,,,,,,0,4,4,6,,,AMSA14.jpg,AMSA02.jpg,AMNE12.jpg,AMNE04.jpg,AMSA14.jpg,MS,2,num_8,16,num_8,0.700125440955,,,2018_Feb_15_1649,59.9929382117,FEMA4ImagesEEG,001,202854,
AFNE01.JPG,AFNE01.JPG,AFNE01.JPG,AFNE01.JPG,AFNE01.JPG,AFNE01.JPG,,,,,,,,,,,,,,,,,,,,,0,5,5,8,,,AMSA06.jpg,AMSA07.jpg,AMNE15.jpg,AMNE04.jpg,AMSA06.jpg,MS,2,num_8,32,num_4,0.983425476355,,,2018_Feb_15_1649,59.9929382117,FEMA4ImagesEEG,001,202854,
AFNE01.JPG,AFNE01.JPG,AFNE01.JPG,AFNE01.JPG,AFNE01.JPG,AFNE01.JPG,,,,,,,,,,,,,,,,,,,,,0,6,6,2,,,AMNE18.jpg,AMSA01.jpg,AMSA02.jpg,AMNE16.jpg,AMNE18.jpg,MN,1,num_8,32,num_2,1.15012555337,,,2018_Feb_15_1649,59.9929382117,FEMA4ImagesEEG,001,202854,
AFNE01.JPG,AFNE01.JPG,AFNE01.JPG,AFNE01.JPG,AFNE01.JPG,AFNE01.JPG,,,,,,,,,,,,,,,,,,,,,0,7,7,4,,,AMNE10.jpg,AMSA07.jpg,AMSA01.jpg,AMNE11.jpg,AMSA07.jpg,MS,2,num_6,32,num_8,1.03339216765,,,2018_Feb_15_1649,59.9929382117,FEMA4ImagesEEG,001,202854,
AFNE01.JPG,AFNE01.JPG,AFNE01.JPG,AFNE01.JPG,AFNE01.JPG,AFNE01.JPG,,,,,,,,,,,,,,,,,,,,,0,8,8,3,,,AMNE01.jpg,AMSA13.jpg,AMNE11.jpg,AMSA07.jpg,AMNE01.jpg,MN,1,num_8,16,num_8,0.916752437828,,,2018_Feb_15_1649,59.9929382117,FEMA4ImagesEEG,001,202854,
AFNE01.JPG,AFNE01.JPG,AFNE01.JPG,AFNE01.JPG,AFNE01.JPG,AFNE01.JPG,,,,,,,,,,,,,,,,,,,,,0,9,9,5,,,AMNE20.jpg,AMSA20.jpg,AMSA18.jpg,AMNE11.jpg,AMSA20.jpg,MS,2,num_6,16,num_6,1.71655434906,,,2018_Feb_15_1649,59.9929382117,FEMA4ImagesEEG,001,202854,
AFNE01.JPG,AFNE01.JPG,AFNE01.JPG,AFNE01.JPG,AFNE01.JPG,AFNE01.JPG,,,,,,,,,,,,,,,,,,,,,1,0,10,8,,,AMNE19.jpg,AMSA09.jpg,AMSA07.jpg,AMNE02.jpg,AMSA09.jpg,MS,2,num_6,32,num_2,1.3334206813,,,2018_Feb_15_1649,59.9929382117,FEMA4ImagesEEG,001,202854,
AFNE01.JPG,AFNE01.JPG,AFNE01.JPG,AFNE01.JPG,AFNE01.JPG,AFNE01.JPG,,,,,,,,,,,,,,,,,,,,,1,1,11,4,,,AMSA10.jpg,AMNE11.jpg,AMSA04.jpg,AMNE06.jpg,AMNE11.jpg,MN,1,num_6,16,num_6,1.23344848934,,,2018_Feb_15_1649,59.9929382117,FEMA4ImagesEEG,001,202854,
AFNE01.JPG,AFNE01.JPG,AFNE01.JPG,AFNE01.JPG,AFNE01.JPG,AFNE01.JPG,,,,,,,,,,,,,,,,,,,,,1,2,12,0,,,AMNE20.jpg,AMSA13.jpg,AMNE14.jpg,AMSA05.jpg,AMNE14.jpg,MN,1,num_2,16,num_2,1.95004453463,,,2018_Feb_15_1649,59.9929382117,FEMA4ImagesEEG,001,202854,
AFNE01.JPG,AFNE01.JPG,AFNE01.JPG,AFNE01.JPG,AFNE01.JPG,AFNE01.JPG,,,,,,,,,,,,,,,,,,,,,1,3,13,2,,,AMSA09.jpg,AMNE10.jpg,AMNE02.jpg,AMSA02.jpg,AMNE02.jpg,MN,1,num_2,32,num_8,1.28342929319,,,2018_Feb_15_1649,59.9929382117,FEMA4ImagesEEG,001,202854,
AFNE01.JPG,AFNE01.JPG,AFNE01.JPG,AFNE01.JPG,AFNE01.JPG,AFNE01.JPG,,,,,,,,,,,,,,,,,,,,,1,4,14,5,,,AMNE08.jpg,AMNE09.jpg,AMSA11.jpg,AMSA13.jpg,AMNE09.jpg,MN,1,num_6,32,num_8,1.23343373532,,,2018_Feb_15_1649,59.9929382117,FEMA4ImagesEEG,001,202854,
AFNE01.JPG,AFNE01.JPG,AFNE01.JPG,AFNE01.JPG,AFNE01.JPG,AFNE01.JPG,,,,,,,,,,,,,,,,,,,,,1,5,15,1,,,AMSA04.jpg,AMNE06.jpg,AMNE14.jpg,AMSA02.jpg,AMNE14.jpg,MN,1,num_2,32,num_6,1.1667254155,,,2018_Feb_15_1649,59.9929382117,FEMA4ImagesEEG,001,202854,
AFNE01.JPG,AFNE01.JPG,AFNE01.JPG,AFNE01.JPG,AFNE01.JPG,AFNE01.JPG,,,,,,,,,,,,,,,,,,,,,1,6,16,6,,,AMNE09.jpg,AMSA04.jpg,AMSA06.jpg,AMNE07.jpg,AMSA04.jpg,MS,2,num_6,32,num_8,1.0000840337,,,2018_Feb_15_1649,59.9929382117,FEMA4ImagesEEG,001,202854,
AFNE01.JPG,AFNE01.JPG,AFNE01.JPG,AFNE01.JPG,AFNE01.JPG,AFNE01.JPG,,,,,,,,,,,,,,,,,,,,,1,7,17,3,,,AMNE09.jpg,AMSA17.jpg,AMNE11.jpg,AMSA02.jpg,AMNE09.jpg,MN,1,num_8,32,num_4,0.800018410431,,,2018_Feb_15_1649,59.9929382117,FEMA4ImagesEEG,001,202854,
AFNE01.JPG,AFNE01.JPG,AFNE01.JPG,AFNE01.JPG,AFNE01.JPG,AFNE01.JPG,,,,,,,,,,,,,,,,,,,,,1,8,18,9,,,AMSA03.jpg,AMNE09.jpg,AMNE20.jpg,AMSA09.jpg,AMSA03.jpg,MS,2,num_8,16,num_8,0.850171130616,,,2018_Feb_15_1649,59.9929382117,FEMA4ImagesEEG,001,202854,
AFNE01.JPG,AFNE01.JPG,AFNE01.JPG,AFNE01.JPG,AFNE01.JPG,AFNE01.JPG,,,,,,,,,,,,,,,,,,,,,1,9,19,7,,,AMSA10.jpg,AMNE05.jpg,AMSA14.jpg,AMNE11.jpg,AMNE11.jpg,MN,1,num_4,32,num_6,1.21681142179,,,2018_Feb_15_1649,59.9929382117,FEMA4ImagesEEG,001,202854,
AFNE01.JPG,AFNE01.JPG,AFNE01.JPG,AFNE01.JPG,AFNE01.JPG,AFNE01.JPG,,,,,,,,,,,,,,,,,,,,,2,0,20,9,,,AMNE17.jpg,AMSA05.jpg,AMSA10.jpg,AMNE06.jpg,AMNE17.jpg,MN,1,num_8,16,num_8,1.05012706085,,,2018_Feb_15_1649,59.9929382117,FEMA4ImagesEEG,001,202854,
AFNE01.JPG,AFNE01.JPG,AFNE01.JPG,AFNE01.JPG,AFNE01.JPG,AFNE01.JPG,,,,,,,,,,,,,,,,,,,,,2,1,21,3,,,AMNE14.jpg,AMSA17.jpg,AMNE13.jpg,AMSA19.jpg,AMNE13.jpg,MN,1,num_2,16,num_2,1.6167050004,,,2018_Feb_15_1649,59.9929382117,FEMA4ImagesEEG,001,202854,
AFNE01.JPG,AFNE01.JPG,AFNE01.JPG,AFNE01.JPG,AFNE01.JPG,AFNE01.JPG,,,,,,,,,,,,,,,,,,,,,2,2,22,8,,,AMNE08.jpg,AMSA15.jpg,AMNE01.jpg,AMSA19.jpg,AMSA15.jpg,MS,2,num_6,16,num_6,1.53341734572,,,2018_Feb_15_1649,59.9929382117,FEMA4ImagesEEG,001,202854,
AFNE01.JPG,AFNE01.JPG,AFNE01.JPG,AFNE01.JPG,AFNE01.JPG,AFNE01.JPG,,,,,,,,,,,,,,,,,,,,,2,3,23,4,,,AMNE16.jpg,AMNE06.jpg,AMSA15.jpg,AMSA11.jpg,AMNE16.jpg,MN,1,num_8,16,num_8,0.833452274092,,,2018_Feb_15_1649,59.9929382117,FEMA4ImagesEEG,001,202854,
AFNE01.JPG,AFNE01.JPG,AFNE01.JPG,AFNE01.JPG,AFNE01.JPG,AFNE01.JPG,,,,,,,,,,,,,,,,,,,,,2,4,24,7,,,AMNE12.jpg,AMNE11.jpg,AMSA19.jpg,AMSA05.jpg,AMNE11.jpg,MN,1,num_6,16,num_6,1.01674676058,,,2018_Feb_15_1649,59.9929382117,FEMA4ImagesEEG,001,202854,
AFNE01.JPG,AFNE01.JPG,AFNE01.JPG,AFNE01.JPG,AFNE01.JPG,AFNE01.JPG,,,,,,,,,,,,,,,,,,,,,2,5,25,1,,,AMSA13.jpg,AMSA17.jpg,AMNE19.jpg,AMNE08.jpg,AMSA17.jpg,MS,2,num_6,32,num_4,1.03313268954,,,2018_Feb_15_1649,59.9929382117,FEMA4ImagesEEG,001,202854,
AFNE01.JPG,AFNE01.JPG,AFNE01.JPG,AFNE01.JPG,AFNE01.JPG,AFNE01.JPG,,,,,,,,,,,,,,,,,,,,,2,6,26,2,,,AMSA11.jpg,AMNE01.jpg,AMNE09.jpg,AMSA09.jpg,AMSA11.jpg,MS,2,num_8,32,num_2,1.75006486941,,,2018_Feb_15_1649,59.9929382117,FEMA4ImagesEEG,001,202854,
AFNE01.JPG,AFNE01.JPG,AFNE01.JPG,AFNE01.JPG,AFNE01.JPG,AFNE01.JPG,,,,,,,,,,,,,,,,,,,,,2,7,27,5,,,AMSA11.jpg,AMNE12.jpg,AMSA05.jpg,AMNE19.jpg,AMNE19.jpg,MN,1,num_4,32,num_8,1.43339094869,,,2018_Feb_15_1649,59.9929382117,FEMA4ImagesEEG,001,202854,
AFNE01.JPG,AFNE01.JPG,AFNE01.JPG,AFNE01.JPG,AFNE01.JPG,AFNE01.JPG,,,,,,,,,,,,,,,,,,,,,2,8,28,6,,,AMNE08.jpg,AMSA08.jpg,AMNE15.jpg,AMSA12.jpg,AMSA12.jpg,MS,2,num_4,32,num_6,1.00010135374,,,2018_Feb_15_1649,59.9929382117,FEMA4ImagesEEG,001,202854,
AFNE01.JPG,AFNE01.JPG,AFNE01.JPG,AFNE01.JPG,AFNE01.JPG,AFNE01.JPG,,,,,,,,,,,,,,,,,,,,,2,9,29,0,,,AMSA14.jpg,AMNE14.jpg,AMSA01.jpg,AMNE17.jpg,AMNE17.jpg,MN,1,num_4,32,num_6,1.23344656499,,,2018_Feb_15_1649,59.9929382117,FEMA4ImagesEEG,001,202854,
AFNE01.JPG,AFNE01.JPG,AFNE01.JPG,AFNE01.JPG,AFNE01.JPG,AFNE01.JPG,,,,,,,,,,,,,,,,,,,,,3,0,30,7,,,AMSA13.jpg,AMNE09.jpg,AMNE17.jpg,AMSA17.jpg,AMSA17.jpg,MS,2,num_4,32,num_6,1.18346640281,,,2018_Feb_15_1649,59.9929382117,FEMA4ImagesEEG,001,202854,
AFNE01.JPG,AFNE01.JPG,AFNE01.JPG,AFNE01.JPG,AFNE01.JPG,AFNE01.JPG,,,,,,,,,,,,,,,,,,,,,3,1,31,1,,,AMSA15.jpg,AMSA11.jpg,AMNE06.jpg,AMNE09.jpg,AMSA11.jpg,MS,2,num_6,32,num_8,1.33344858559,,,2018_Feb_15_1649,59.9929382117,FEMA4ImagesEEG,001,202854,
AFNE01.JPG,AFNE01.JPG,AFNE01.JPG,AFNE01.JPG,AFNE01.JPG,AFNE01.JPG,,,,,,,,,,,,,,,,,,,,,3,2,32,8,,,AMSA09.jpg,AMNE15.jpg,AMNE03.jpg,AMSA16.jpg,AMSA09.jpg,MS,2,num_8,16,num_8,0.783464414068,,,2018_Feb_15_1649,59.9929382117,FEMA4ImagesEEG,001,202854,
AFNE01.JPG,AFNE01.JPG,AFNE01.JPG,AFNE01.JPG,AFNE01.JPG,AFNE01.JPG,,,,,,,,,,,,,,,,,,,,,3,3,33,9,,,AMNE01.jpg,AMSA06.jpg,AMNE08.jpg,AMSA20.jpg,AMNE08.jpg,MN,1,num_2,32,num_6,1.86666194093,,,2018_Feb_15_1649,59.9929382117,FEMA4ImagesEEG,001,202854,
AFNE01.JPG,AFNE01.JPG,AFNE01.JPG,AFNE01.JPG,AFNE01.JPG,AFNE01.JPG,,,,,,,,,,,,,,,,,,,,,3,4,34,3,,,AMSA02.jpg,AMSA10.jpg,AMNE05.jpg,AMNE18.jpg,AMNE05.jpg,MN,1,num_2,32,num_8,0.833480178611,,,2018_Feb_15_1649,59.9929382117,FEMA4ImagesEEG,001,202854,
AFNE01.JPG,AFNE01.JPG,AFNE01.JPG,AFNE01.JPG,AFNE01.JPG,AFNE01.JPG,,,,,,,,,,,,,,,,,,,,,3,5,35,4,,,AMNE11.jpg,AMSA19.jpg,AMSA12.jpg,AMNE06.jpg,AMSA12.jpg,MS,2,num_2,32,num_4,1.19996459037,,,2018_Feb_15_1649,59.9929382117,FEMA4ImagesEEG,001,202854,
AFNE01.JPG,AFNE01.JPG,AFNE01.JPG,AFNE01.JPG,AFNE01.JPG,AFNE01.JPG,,,,,,,,,,,,,,,,,,,,,3,6,36,6,,,AMSA20.jpg,AMNE14.jpg,AMSA12.jpg,AMNE18.jpg,AMNE14.jpg,MN,1,num_6,16,num_6,1.28338471032,,,2018_Feb_15_1649,59.9929382117,FEMA4ImagesEEG,001,202854,
AFNE01.JPG,AFNE01.JPG,AFNE01.JPG,AFNE01.JPG,AFNE01.JPG,AFNE01.JPG,,,,,,,,,,,,,,,,,,,,,3,7,37,2,,,AMSA07.jpg,AMNE16.jpg,AMSA16.jpg,AMNE03.jpg,AMNE03.jpg,MN,1,num_4,32,num_8,1.4167461833,,,2018_Feb_15_1649,59.9929382117,FEMA4ImagesEEG,001,202854,
AFNE01.JPG,AFNE01.JPG,AFNE01.JPG,AFNE01.JPG,AFNE01.JPG,AFNE01.JPG,,,,,,,,,,,,,,,,,,,,,3,8,38,5,,,AMNE12.jpg,AMSA11.jpg,AMSA16.jpg,AMNE04.jpg,AMSA11.jpg,MS,2,num_6,32,num_8,1.26674026554,,,2018_Feb_15_1649,59.9929382117,FEMA4ImagesEEG,001,202854,
AFNE01.JPG,AFNE01.JPG,AFNE01.JPG,AFNE01.JPG,AFNE01.JPG,AFNE01.JPG,,,,,,,,,,,,,,,,,,,,,3,9,39,0,,,AMSA15.jpg,AMSA01.jpg,AMNE12.jpg,AMNE08.jpg,AMNE08.jpg,MN,1,num_4,32,num_6,0.81675490737,,,2018_Feb_15_1649,59.9929382117,FEMA4ImagesEEG,001,202854,
