IPosition2,IPosition3,IPosition1,IPosition6,IPosition4,IPosition5,TrialsM1.thisRepN,TrialsM1.thisTrialN,TrialsM1.thisN,TrialsM1.thisIndex,TrialsF1.thisRepN,TrialsF1.thisTrialN,TrialsF1.thisN,TrialsF1.thisIndex,TrialsM2.thisRepN,TrialsM2.thisTrialN,TrialsM2.thisN,TrialsM2.thisIndex,TrialsF2.thisRepN,TrialsF2.thisTrialN,TrialsF2.thisN,TrialsF2.thisIndex,TrialsM3.thisRepN,TrialsM3.thisTrialN,TrialsM3.thisN,TrialsM3.thisIndex,TrialsF3.thisRepN,TrialsF3.thisTrialN,TrialsF3.thisN,TrialsF3.thisIndex,InstrKey_resp.keys,InstrKey_resp.rt,Image0 _Position,Image1 _Position,Image2 _Position,Image3 _Position,Center_image,condition,code,correct_answer,accuracy,Key_Resp.keys,Key_Resp.rt,BreakKey_resp.keys,BreakKey_resp.rt,date,frameRate,expName,session,participant,
,,,,,,,,,,,,,,,,,,,,,,,,,,,,,,space,3.39999858875,,,,,,,,,,,,,,2018_Feb_16_1723,60.0163428884,MAFE4ImagesEEG,001,202949,
AFNE22.JPG,AFSA24.JPG,AFSA22.JPG,AFNE25.JPG,AFNE24.JPG,AFSA25.JPG,0,0,0,6,,,,,,,,,,,,,,,,,,,,,,,AMNE17.jpg,AMSA12.jpg,AMSA17.jpg,AMNE10.jpg,AMSA12.jpg,MS,2,num_6,32,num_8,0.766796533839,,,2018_Feb_16_1723,60.0163428884,MAFE4ImagesEEG,001,202949,
AFNE23.JPG,AFNE24.JPG,AFNE22.JPG,AFSA24.JPG,AFSA22.JPG,AFSA23.JPG,0,1,1,8,,,,,,,,,,,,,,,,,,,,,,,AMNE06.jpg,AMSA20.jpg,AMNE10.jpg,AMSA12.jpg,AMSA12.jpg,MS,2,num_4,16,num_4,0.800167169104,,,2018_Feb_16_1723,60.0163428884,MAFE4ImagesEEG,001,202949,
AFSA21.JPG,AFNE22.JPG,AFNE21.JPG,AFSA23.JPG,AFSA22.JPG,AFNE23.JPG,0,2,2,0,,,,,,,,,,,,,,,,,,,,,,,AMNE17.jpg,AMNE10.jpg,AMSA11.jpg,AMSA09.jpg,AMSA11.jpg,MS,2,num_2,16,num_2,0.950013807807,,,2018_Feb_16_1723,60.0163428884,MAFE4ImagesEEG,001,202949,
AMSA21.JPG,AMNE22.JPG,AMNE21.JPG,AMSA23.JPG,AMSA22.JPG,AMNE23.JPG,0,3,3,1,,,,,,,,,,,,,,,,,,,,,,,AMNE03.jpg,AMSA09.jpg,AMSA07.jpg,AMNE19.jpg,AMNE19.jpg,MN,1,num_4,32,num_8,0.816804857013,,,2018_Feb_16_1723,60.0163428884,MAFE4ImagesEEG,001,202949,
AMNE23.JPG,AMNE24.JPG,AMNE22.JPG,AMSA24.JPG,AMSA22.JPG,AMSA23.JPG,0,4,4,9,,,,,,,,,,,,,,,,,,,,,,,AMSA12.jpg,AMNE02.jpg,AMSA07.jpg,AMNE04.jpg,AMSA12.jpg,MS,2,num_8,32,num_4,0.700196709155,,,2018_Feb_16_1723,60.0163428884,MAFE4ImagesEEG,001,202949,
AMSA21.JPG,AMNE23.JPG,AMNE21.JPG,AMSA25.JPG,AMNE25.JPG,AMSA23.JPG,0,5,5,5,,,,,,,,,,,,,,,,,,,,,,,AMNE17.jpg,AMNE09.jpg,AMSA06.jpg,AMSA15.jpg,AMSA15.jpg,MS,2,num_4,16,num_4,0.633518303446,,,2018_Feb_16_1723,60.0163428884,MAFE4ImagesEEG,001,202949,
AMSA25.JPG,AMNE24.JPG,AMSA24.JPG,AMNE26.JPG,AMSA21.JPG,AMNE25.JPG,0,6,6,3,,,,,,,,,,,,,,,,,,,,,,,AMNE02.jpg,AMNE13.jpg,AMSA04.jpg,AMSA03.jpg,AMSA03.jpg,MS,2,num_4,32,num_6,0.716920034345,,,2018_Feb_16_1723,60.0163428884,MAFE4ImagesEEG,001,202949,
AMNE22.JPG,AMSA24.JPG,AMSA22.JPG,AMNE25.JPG,AMNE24.JPG,AMSA25.JPG,0,7,7,7,,,,,,,,,,,,,,,,,,,,,,,AMSA15.jpg,AMNE15.jpg,AMSA12.jpg,AMNE09.jpg,AMNE09.jpg,MN,1,num_4,16,num_4,0.750199579768,,,2018_Feb_16_1723,60.0163428884,MAFE4ImagesEEG,001,202949,
AFSA25.JPG,AFNE24.JPG,AFSA24.JPG,AFNE21.JPG,AFSA21.JPG,AFNE25.JPG,0,8,8,2,,,,,,,,,,,,,,,,,,,,,,,AMNE13.jpg,AMSA05.jpg,AMNE18.jpg,AMSA06.jpg,AMNE18.jpg,MN,1,num_2,32,num_8,0.716808417214,,,2018_Feb_16_1723,60.0163428884,MAFE4ImagesEEG,001,202949,
AFSA21.JPG,AFNE23.JPG,AFNE21.JPG,AFSA25.JPG,AFNE25.JPG,AFSA23.JPG,0,9,9,4,,,,,,,,,,,,,,,,,,,,,,,AMNE03.jpg,AMNE02.jpg,AMSA14.jpg,AMSA12.jpg,AMNE03.jpg,MN,1,num_8,32,num_4,0.366819113857,,,2018_Feb_16_1723,60.0163428884,MAFE4ImagesEEG,001,202949,
AMNE23.JPG,AMNE24.JPG,AMNE22.JPG,AMSA24.JPG,AMSA22.JPG,AMSA23.JPG,,,,,0,0,0,9,,,,,,,,,,,,,,,,,,,AFSA17.jpg,AFSA20.jpg,AFNE04.jpg,AFNE13.jpg,AFSA20.jpg,FS,4,num_6,16,num_6,0.366819755334,,,2018_Feb_16_1723,60.0163428884,MAFE4ImagesEEG,001,202949,
AFNE23.JPG,AFNE24.JPG,AFNE22.JPG,AFSA24.JPG,AFSA22.JPG,AFSA23.JPG,,,,,0,1,1,8,,,,,,,,,,,,,,,,,,,AFSA13.jpg,AFNE04.jpg,AFSA05.jpg,AFNE18.jpg,AFNE18.jpg,FN,3,num_4,32,num_8,0.383523515451,,,2018_Feb_16_1723,60.0163428884,MAFE4ImagesEEG,001,202949,
AFSA21.JPG,AFNE22.JPG,AFNE21.JPG,AFSA23.JPG,AFSA22.JPG,AFNE23.JPG,,,,,0,2,2,0,,,,,,,,,,,,,,,,,,,AFNE13.jpg,AFNE01.jpg,AFSA08.jpg,AFSA11.jpg,AFSA11.jpg,FS,4,num_4,16,num_4,0.133553424354,,,2018_Feb_16_1723,60.0163428884,MAFE4ImagesEEG,001,202949,
AFSA25.JPG,AFNE24.JPG,AFSA24.JPG,AFNE21.JPG,AFSA21.JPG,AFNE25.JPG,,,,,0,3,3,2,,,,,,,,,,,,,,,,,,,AFNE01.jpg,AFNE08.jpg,AFSA14.jpg,AFSA20.jpg,AFSA20.jpg,FS,4,num_4,16,num_4,0.783578233504,,,2018_Feb_16_1723,60.0163428884,MAFE4ImagesEEG,001,202949,
AMSA21.JPG,AMNE23.JPG,AMNE21.JPG,AMSA25.JPG,AMNE25.JPG,AMSA23.JPG,,,,,0,4,4,5,,,,,,,,,,,,,,,,,,,AFSA03.jpg,AFNE10.jpg,AFNE04.jpg,AFSA18.jpg,AFNE04.jpg,FN,3,num_2,32,num_8,0.716661839546,,,2018_Feb_16_1723,60.0163428884,MAFE4ImagesEEG,001,202949,
AMSA21.JPG,AMNE22.JPG,AMNE21.JPG,AMSA23.JPG,AMSA22.JPG,AMNE23.JPG,,,,,0,5,5,1,,,,,,,,,,,,,,,,,,,AFSA18.jpg,AFSA17.jpg,AFNE09.jpg,AFNE17.jpg,AFSA17.jpg,FS,4,num_6,16,num_6,0.566787296559,,,2018_Feb_16_1723,60.0163428884,MAFE4ImagesEEG,001,202949,
AMSA25.JPG,AMNE24.JPG,AMSA24.JPG,AMNE26.JPG,AMSA21.JPG,AMNE25.JPG,,,,,0,6,6,3,,,,,,,,,,,,,,,,,,,AFSA02.jpg,AFSA13.jpg,AFNE06.jpg,AFNE13.jpg,AFSA13.jpg,FS,4,num_6,16,num_6,0.400210917887,,,2018_Feb_16_1723,60.0163428884,MAFE4ImagesEEG,001,202949,
AFSA21.JPG,AFNE23.JPG,AFNE21.JPG,AFSA25.JPG,AFNE25.JPG,AFSA23.JPG,,,,,0,7,7,4,,,,,,,,,,,,,,,,,,,AFNE12.jpg,AFNE01.jpg,AFSA05.jpg,AFSA08.jpg,AFNE01.jpg,FN,3,num_6,32,num_4,0.550146080523,,,2018_Feb_16_1723,60.0163428884,MAFE4ImagesEEG,001,202949,
AFNE22.JPG,AFSA24.JPG,AFSA22.JPG,AFNE25.JPG,AFNE24.JPG,AFSA25.JPG,,,,,0,8,8,6,,,,,,,,,,,,,,,,,,,AFNE08.jpg,AFSA11.jpg,AFSA20.jpg,AFNE05.jpg,AFSA20.jpg,FS,4,num_2,32,num_6,0.300181121245,,,2018_Feb_16_1723,60.0163428884,MAFE4ImagesEEG,001,202949,
AMNE22.JPG,AMSA24.JPG,AMSA22.JPG,AMNE25.JPG,AMNE24.JPG,AMSA25.JPG,,,,,0,9,9,7,,,,,,,,,,,,,,,,,,,AFSA15.jpg,AFSA03.jpg,AFNE13.jpg,AFNE02.jpg,AFNE02.jpg,FN,3,num_4,16,num_4,0.916763770363,,,2018_Feb_16_1723,60.0163428884,MAFE4ImagesEEG,001,202949,
AFSA21.JPG,AFNE23.JPG,AFNE21.JPG,AFSA25.JPG,AFNE25.JPG,AFSA23.JPG,,,,,,,,,0,0,0,4,,,,,,,,,,,,,,,AMNE01.jpg,AMSA16.jpg,AMSA17.jpg,AMNE03.jpg,AMSA17.jpg,MS,2,num_2,16,num_2,0.500187792615,,,2018_Feb_16_1723,60.0163428884,MAFE4ImagesEEG,001,202949,
AMSA25.JPG,AMNE24.JPG,AMSA24.JPG,AMNE26.JPG,AMSA21.JPG,AMNE25.JPG,,,,,,,,,0,1,1,3,,,,,,,,,,,,,,,AMNE02.jpg,AMSA15.jpg,AMNE13.jpg,AMSA20.jpg,AMNE02.jpg,MN,1,num_8,16,num_8,0.816782405293,,,2018_Feb_16_1723,60.0163428884,MAFE4ImagesEEG,001,202949,
AFNE22.JPG,AFSA24.JPG,AFSA22.JPG,AFNE25.JPG,AFNE24.JPG,AFSA25.JPG,,,,,,,,,0,2,2,6,,,,,,,,,,,,,,,AMSA02.jpg,AMNE07.jpg,AMSA12.jpg,AMNE09.jpg,AMSA02.jpg,MS,2,num_8,32,num_4,0.716556957932,,,2018_Feb_16_1723,60.0163428884,MAFE4ImagesEEG,001,202949,
AMSA21.JPG,AMNE22.JPG,AMNE21.JPG,AMSA23.JPG,AMSA22.JPG,AMNE23.JPG,,,,,,,,,0,3,3,1,,,,,,,,,,,,,,,AMNE05.jpg,AMSA08.jpg,AMSA05.jpg,AMNE03.jpg,AMSA05.jpg,MS,2,num_2,32,num_6,0.550162438205,,,2018_Feb_16_1723,60.0163428884,MAFE4ImagesEEG,001,202949,
AMSA21.JPG,AMNE23.JPG,AMNE21.JPG,AMSA25.JPG,AMNE25.JPG,AMSA23.JPG,,,,,,,,,0,4,4,5,,,,,,,,,,,,,,,AMNE04.jpg,AMSA15.jpg,AMSA08.jpg,AMNE07.jpg,AMSA08.jpg,MS,2,num_2,32,num_8,1.00011450378,,,2018_Feb_16_1723,60.0163428884,MAFE4ImagesEEG,001,202949,
AMNE23.JPG,AMNE24.JPG,AMNE22.JPG,AMSA24.JPG,AMSA22.JPG,AMSA23.JPG,,,,,,,,,0,5,5,9,,,,,,,,,,,,,,,AMNE03.jpg,AMSA10.jpg,AMNE16.jpg,AMSA01.jpg,AMSA10.jpg,MS,2,num_6,32,num_4,1.06679739984,,,2018_Feb_16_1723,60.0163428884,MAFE4ImagesEEG,001,202949,
AMNE22.JPG,AMSA24.JPG,AMSA22.JPG,AMNE25.JPG,AMNE24.JPG,AMSA25.JPG,,,,,,,,,0,6,6,7,,,,,,,,,,,,,,,AMNE06.jpg,AMSA09.jpg,AMSA15.jpg,AMNE09.jpg,AMSA15.jpg,MS,2,num_2,32,num_6,0.450196789339,,,2018_Feb_16_1723,60.0163428884,MAFE4ImagesEEG,001,202949,
AFSA21.JPG,AFNE22.JPG,AFNE21.JPG,AFSA23.JPG,AFSA22.JPG,AFNE23.JPG,,,,,,,,,0,7,7,0,,,,,,,,,,,,,,,AMSA02.jpg,AMNE14.jpg,AMSA08.jpg,AMNE08.jpg,AMNE14.jpg,MN,1,num_6,16,num_6,0.500165340893,,,2018_Feb_16_1723,60.0163428884,MAFE4ImagesEEG,001,202949,
AFNE23.JPG,AFNE24.JPG,AFNE22.JPG,AFSA24.JPG,AFSA22.JPG,AFSA23.JPG,,,,,,,,,0,8,8,8,,,,,,,,,,,,,,,AMNE15.jpg,AMSA15.jpg,AMSA18.jpg,AMNE07.jpg,AMNE07.jpg,MN,1,num_4,32,num_8,1.05011705365,,,2018_Feb_16_1723,60.0163428884,MAFE4ImagesEEG,001,202949,
AFSA25.JPG,AFNE24.JPG,AFSA24.JPG,AFNE21.JPG,AFSA21.JPG,AFNE25.JPG,,,,,,,,,0,9,9,2,,,,,,,,,,,,,,,AMSA09.jpg,AMNE01.jpg,AMSA02.jpg,AMNE06.jpg,AMNE01.jpg,MN,1,num_6,32,num_4,0.616783431657,,,2018_Feb_16_1723,60.0163428884,MAFE4ImagesEEG,001,202949,
AMSA21.JPG,AMNE23.JPG,AMNE21.JPG,AMSA25.JPG,AMNE25.JPG,AMSA23.JPG,,,,,,,,,,,,,0,0,0,5,,,,,,,,,,,AFSA05.jpg,AFNE11.jpg,AFNE03.jpg,AFSA01.jpg,AFNE03.jpg,FN,3,num_2,32,num_8,0.700139938373,,,2018_Feb_16_1723,60.0163428884,MAFE4ImagesEEG,001,202949,
AMSA25.JPG,AMNE24.JPG,AMSA24.JPG,AMNE26.JPG,AMSA21.JPG,AMNE25.JPG,,,,,,,,,,,,,0,1,1,3,,,,,,,,,,,AFNE09.jpg,AFSA11.jpg,AFNE13.jpg,AFSA13.jpg,AFSA11.jpg,FS,4,num_6,16,num_6,1.06678457028,,,2018_Feb_16_1723,60.0163428884,MAFE4ImagesEEG,001,202949,
AMNE22.JPG,AMSA24.JPG,AMSA22.JPG,AMNE25.JPG,AMNE24.JPG,AMSA25.JPG,,,,,,,,,,,,,0,2,2,7,,,,,,,,,,,AFNE15.jpg,AFSA09.jpg,AFNE08.jpg,AFSA16.jpg,AFNE15.jpg,FN,3,num_8,32,num_4,0.433488538878,,,2018_Feb_16_1723,60.0163428884,MAFE4ImagesEEG,001,202949,
AMNE23.JPG,AMNE24.JPG,AMNE22.JPG,AMSA24.JPG,AMSA22.JPG,AMSA23.JPG,,,,,,,,,,,,,0,3,3,9,,,,,,,,,,,AFSA11.jpg,AFSA17.jpg,AFNE19.jpg,AFNE14.jpg,AFNE19.jpg,FN,3,num_2,32,num_8,0.550222737114,,,2018_Feb_16_1723,60.0163428884,MAFE4ImagesEEG,001,202949,
AFNE22.JPG,AFSA24.JPG,AFSA22.JPG,AFNE25.JPG,AFNE24.JPG,AFSA25.JPG,,,,,,,,,,,,,0,4,4,6,,,,,,,,,,,AFNE19.jpg,AFNE20.jpg,AFSA01.jpg,AFSA16.jpg,AFNE19.jpg,FN,3,num_8,32,num_2,0.500191320742,,,2018_Feb_16_1723,60.0163428884,MAFE4ImagesEEG,001,202949,
AFSA25.JPG,AFNE24.JPG,AFSA24.JPG,AFNE21.JPG,AFSA21.JPG,AFNE25.JPG,,,,,,,,,,,,,0,5,5,2,,,,,,,,,,,AFSA04.jpg,AFNE12.jpg,AFSA12.jpg,AFNE07.jpg,AFSA12.jpg,FS,4,num_2,32,num_6,0.316880711758,,,2018_Feb_16_1723,60.0163428884,MAFE4ImagesEEG,001,202949,
AFNE23.JPG,AFNE24.JPG,AFNE22.JPG,AFSA24.JPG,AFSA22.JPG,AFSA23.JPG,,,,,,,,,,,,,0,6,6,8,,,,,,,,,,,AFNE03.jpg,AFSA20.jpg,AFSA01.jpg,AFNE02.jpg,AFSA01.jpg,FS,4,num_2,32,num_4,0.550248716965,,,2018_Feb_16_1723,60.0163428884,MAFE4ImagesEEG,001,202949,
AMSA21.JPG,AMNE22.JPG,AMNE21.JPG,AMSA23.JPG,AMSA22.JPG,AMNE23.JPG,,,,,,,,,,,,,0,7,7,1,,,,,,,,,,,AFSA01.jpg,AFNE19.jpg,AFSA13.jpg,AFNE10.jpg,AFSA13.jpg,FS,4,num_2,32,num_8,0.833471411421,,,2018_Feb_16_1723,60.0163428884,MAFE4ImagesEEG,001,202949,
AFSA21.JPG,AFNE23.JPG,AFNE21.JPG,AFSA25.JPG,AFNE25.JPG,AFSA23.JPG,,,,,,,,,,,,,0,8,8,4,,,,,,,,,,,AFNE15.jpg,AFSA09.jpg,AFSA03.jpg,AFNE08.jpg,AFSA09.jpg,FS,4,num_6,16,num_6,0.400175957349,,,2018_Feb_16_1723,60.0163428884,MAFE4ImagesEEG,001,202949,
AFSA21.JPG,AFNE22.JPG,AFNE21.JPG,AFSA23.JPG,AFSA22.JPG,AFNE23.JPG,,,,,,,,,,,,,0,9,9,0,,,,,,,,,,,AFSA07.jpg,AFNE17.jpg,AFNE05.jpg,AFSA11.jpg,AFSA07.jpg,FS,4,num_8,32,num_4,0.833449280439,,,2018_Feb_16_1723,60.0163428884,MAFE4ImagesEEG,001,202949,
AFNE23.JPG,AFNE24.JPG,AFNE22.JPG,AFSA24.JPG,AFSA22.JPG,AFSA23.JPG,,,,,,,,,,,,,,,,,0,0,0,8,,,,,,,AMNE13.jpg,AMNE10.jpg,AMSA04.jpg,AMSA02.jpg,AMSA02.jpg,MS,2,num_4,32,num_6,0.63344228833,,,2018_Feb_16_1723,60.0163428884,MAFE4ImagesEEG,001,202949,
AMSA25.JPG,AMNE24.JPG,AMSA24.JPG,AMNE26.JPG,AMSA21.JPG,AMNE25.JPG,,,,,,,,,,,,,,,,,0,1,1,3,,,,,,,AMSA02.jpg,AMNE19.jpg,AMSA15.jpg,AMNE11.jpg,AMNE11.jpg,MN,1,num_4,16,num_4,3.54990199824,,,2018_Feb_16_1723,60.0163428884,MAFE4ImagesEEG,001,202949,
AFSA25.JPG,AFNE24.JPG,AFSA24.JPG,AFNE21.JPG,AFSA21.JPG,AFNE25.JPG,,,,,,,,,,,,,,,,,0,2,2,2,,,,,,,AMNE10.jpg,AMSA12.jpg,AMNE02.jpg,AMSA08.jpg,AMSA08.jpg,MS,2,num_4,32,num_6,0.500224356845,,,2018_Feb_16_1723,60.0163428884,MAFE4ImagesEEG,001,202949,
AFSA21.JPG,AFNE22.JPG,AFNE21.JPG,AFSA23.JPG,AFSA22.JPG,AFNE23.JPG,,,,,,,,,,,,,,,,,0,3,3,0,,,,,,,AMSA03.jpg,AMNE17.jpg,AMSA10.jpg,AMNE05.jpg,AMSA03.jpg,MS,2,num_8,16,num_8,0.583498433671,,,2018_Feb_16_1723,60.0163428884,MAFE4ImagesEEG,001,202949,
AMSA21.JPG,AMNE22.JPG,AMNE21.JPG,AMSA23.JPG,AMSA22.JPG,AMNE23.JPG,,,,,,,,,,,,,,,,,0,4,4,1,,,,,,,AMSA18.jpg,AMNE04.jpg,AMNE10.jpg,AMSA03.jpg,AMNE04.jpg,MN,1,num_6,16,num_6,0.850140211001,,,2018_Feb_16_1723,60.0163428884,MAFE4ImagesEEG,001,202949,
AMNE23.JPG,AMNE24.JPG,AMNE22.JPG,AMSA24.JPG,AMSA22.JPG,AMSA23.JPG,,,,,,,,,,,,,,,,,0,5,5,9,,,,,,,AMSA19.jpg,AMNE03.jpg,AMSA17.jpg,AMNE17.jpg,AMNE17.jpg,MN,1,num_4,16,num_4,1.03318653115,,,2018_Feb_16_1723,60.0163428884,MAFE4ImagesEEG,001,202949,
AMNE22.JPG,AMSA24.JPG,AMSA22.JPG,AMNE25.JPG,AMNE24.JPG,AMSA25.JPG,,,,,,,,,,,,,,,,,0,6,6,7,,,,,,,AMNE03.jpg,AMSA08.jpg,AMSA20.jpg,AMNE17.jpg,AMSA08.jpg,MS,2,num_6,16,num_6,0.766839512849,,,2018_Feb_16_1723,60.0163428884,MAFE4ImagesEEG,001,202949,
AFNE22.JPG,AFSA24.JPG,AFSA22.JPG,AFNE25.JPG,AFNE24.JPG,AFSA25.JPG,,,,,,,,,,,,,,,,,0,7,7,6,,,,,,,AMSA07.jpg,AMNE20.jpg,AMNE01.jpg,AMSA08.jpg,AMNE20.jpg,MN,1,num_6,16,num_6,0.850141173218,,,2018_Feb_16_1723,60.0163428884,MAFE4ImagesEEG,001,202949,
AMSA21.JPG,AMNE23.JPG,AMNE21.JPG,AMSA25.JPG,AMNE25.JPG,AMSA23.JPG,,,,,,,,,,,,,,,,,0,8,8,5,,,,,,,AMSA07.jpg,AMSA11.jpg,AMNE20.jpg,AMNE17.jpg,AMSA11.jpg,MS,2,num_6,16,num_6,1.63362254358,,,2018_Feb_16_1723,60.0163428884,MAFE4ImagesEEG,001,202949,
AFSA21.JPG,AFNE23.JPG,AFNE21.JPG,AFSA25.JPG,AFNE25.JPG,AFSA23.JPG,,,,,,,,,,,,,,,,,0,9,9,4,,,,,,,AMSA15.jpg,AMSA19.jpg,AMNE02.jpg,AMNE03.jpg,AMNE03.jpg,MN,1,num_4,32,num_2,0.750147940809,,,2018_Feb_16_1723,60.0163428884,MAFE4ImagesEEG,001,202949,
AFSA21.JPG,AFNE23.JPG,AFNE21.JPG,AFSA25.JPG,AFNE25.JPG,AFSA23.JPG,,,,,,,,,,,,,,,,,,,,,0,0,0,4,,,AFSA09.jpg,AFNE09.jpg,AFNE01.jpg,AFSA12.jpg,AFNE01.jpg,FN,3,num_2,32,num_4,1.06673485575,,,2018_Feb_16_1723,60.0163428884,MAFE4ImagesEEG,001,202949,
AMNE23.JPG,AMNE24.JPG,AMNE22.JPG,AMSA24.JPG,AMSA22.JPG,AMSA23.JPG,,,,,,,,,,,,,,,,,,,,,0,1,1,9,,,AFNE10.jpg,AFSA09.jpg,AFNE12.jpg,AFSA16.jpg,AFNE12.jpg,FN,3,num_2,32,num_8,0.866788483294,,,2018_Feb_16_1723,60.0163428884,MAFE4ImagesEEG,001,202949,
AMSA21.JPG,AMNE22.JPG,AMNE21.JPG,AMSA23.JPG,AMSA22.JPG,AMNE23.JPG,,,,,,,,,,,,,,,,,,,,,0,2,2,1,,,AFNE18.jpg,AFNE09.jpg,AFSA08.jpg,AFSA05.jpg,AFSA05.jpg,FS,4,num_4,16,num_4,1.18345750739,,,2018_Feb_16_1723,60.0163428884,MAFE4ImagesEEG,001,202949,
AMNE22.JPG,AMSA24.JPG,AMSA22.JPG,AMNE25.JPG,AMNE24.JPG,AMSA25.JPG,,,,,,,,,,,,,,,,,,,,,0,3,3,7,,,AFSA11.jpg,AFNE04.jpg,AFNE18.jpg,AFSA20.jpg,AFSA11.jpg,FS,4,num_8,32,num_6,1.1668092351,,,2018_Feb_16_1723,60.0163428884,MAFE4ImagesEEG,001,202949,
AFSA21.JPG,AFNE22.JPG,AFNE21.JPG,AFSA23.JPG,AFSA22.JPG,AFNE23.JPG,,,,,,,,,,,,,,,,,,,,,0,4,4,0,,,AFSA20.jpg,AFNE12.jpg,AFSA10.jpg,AFNE15.jpg,AFSA10.jpg,FS,4,num_2,32,num_8,0.916773071791,,,2018_Feb_16_1723,60.0163428884,MAFE4ImagesEEG,001,202949,
AMSA21.JPG,AMNE23.JPG,AMNE21.JPG,AMSA25.JPG,AMNE25.JPG,AMSA23.JPG,,,,,,,,,,,,,,,,,,,,,0,5,5,5,,,AFSA18.jpg,AFNE02.jpg,AFSA02.jpg,AFNE20.jpg,AFSA02.jpg,FS,4,num_2,32,num_6,2.00013727624,,,2018_Feb_16_1723,60.0163428884,MAFE4ImagesEEG,001,202949,
AFSA25.JPG,AFNE24.JPG,AFSA24.JPG,AFNE21.JPG,AFSA21.JPG,AFNE25.JPG,,,,,,,,,,,,,,,,,,,,,0,6,6,2,,,AFSA15.jpg,AFSA06.jpg,AFNE13.jpg,AFNE04.jpg,AFNE04.jpg,FN,3,num_4,32,num_8,0.566855613941,,,2018_Feb_16_1723,60.0163428884,MAFE4ImagesEEG,001,202949,
AMSA25.JPG,AMNE24.JPG,AMSA24.JPG,AMNE26.JPG,AMSA21.JPG,AMNE25.JPG,,,,,,,,,,,,,,,,,,,,,0,7,7,3,,,AFNE19.jpg,AFSA17.jpg,AFNE16.jpg,AFSA14.jpg,AFSA17.jpg,FS,4,num_6,16,num_6,0.950143707054,,,2018_Feb_16_1723,60.0163428884,MAFE4ImagesEEG,001,202949,
AFNE22.JPG,AFSA24.JPG,AFSA22.JPG,AFNE25.JPG,AFNE24.JPG,AFSA25.JPG,,,,,,,,,,,,,,,,,,,,,0,8,8,6,,,AFNE17.jpg,AFSA05.jpg,AFSA14.jpg,AFNE10.jpg,AFSA05.jpg,FS,4,num_6,32,num_4,0.366880695721,,,2018_Feb_16_1723,60.0163428884,MAFE4ImagesEEG,001,202949,
AFNE23.JPG,AFNE24.JPG,AFNE22.JPG,AFSA24.JPG,AFSA22.JPG,AFSA23.JPG,,,,,,,,,,,,,,,,,,,,,0,9,9,8,,,AFNE10.jpg,AFNE12.jpg,AFSA16.jpg,AFSA02.jpg,AFSA02.jpg,FS,4,num_4,32,num_6,0.283437589505,,,2018_Feb_16_1723,60.0163428884,MAFE4ImagesEEG,001,202949,
,,,,,,,,,,,,,,,,,,,,,,,,,,,,,,,,,,,,,,,,,,,space,3.5499767304,2018_Feb_16_1723,60.0163428884,MAFE4ImagesEEG,001,202949,
AFNE01.JPG,AFNE01.JPG,AFNE01.JPG,AFNE01.JPG,AFNE01.JPG,AFNE01.JPG,0,0,0,8,,,,,,,,,,,,,,,,,,,,,,,AMSA03.jpg,AMSA16.jpg,AMNE15.jpg,AMNE09.jpg,AMSA16.jpg,MS,2,num_6,16,num_6,0.733461179851,,,2018_Feb_16_1723,60.0163428884,MAFE4ImagesEEG,001,202949,
AFNE01.JPG,AFNE01.JPG,AFNE01.JPG,AFNE01.JPG,AFNE01.JPG,AFNE01.JPG,0,1,1,5,,,,,,,,,,,,,,,,,,,,,,,AMSA13.jpg,AMNE02.jpg,AMSA16.jpg,AMNE15.jpg,AMNE02.jpg,MN,1,num_6,32,num_8,0.533476318726,,,2018_Feb_16_1723,60.0163428884,MAFE4ImagesEEG,001,202949,
AFNE01.JPG,AFNE01.JPG,AFNE01.JPG,AFNE01.JPG,AFNE01.JPG,AFNE01.JPG,0,2,2,3,,,,,,,,,,,,,,,,,,,,,,,AMNE01.jpg,AMSA05.jpg,AMNE11.jpg,AMSA13.jpg,AMNE11.jpg,MN,1,num_2,32,num_8,0.733588513187,,,2018_Feb_16_1723,60.0163428884,MAFE4ImagesEEG,001,202949,
AFNE01.JPG,AFNE01.JPG,AFNE01.JPG,AFNE01.JPG,AFNE01.JPG,AFNE01.JPG,0,3,3,0,,,,,,,,,,,,,,,,,,,,,,,AMNE12.jpg,AMSA10.jpg,AMNE01.jpg,AMSA14.jpg,AMSA10.jpg,MS,2,num_6,16,num_6,0.633511888667,,,2018_Feb_16_1723,60.0163428884,MAFE4ImagesEEG,001,202949,
AFNE01.JPG,AFNE01.JPG,AFNE01.JPG,AFNE01.JPG,AFNE01.JPG,AFNE01.JPG,0,4,4,4,,,,,,,,,,,,,,,,,,,,,,,AMSA03.jpg,AMSA10.jpg,AMNE14.jpg,AMNE05.jpg,AMSA10.jpg,MS,2,num_6,16,num_6,0.800139585561,,,2018_Feb_16_1723,60.0163428884,MAFE4ImagesEEG,001,202949,
AFNE01.JPG,AFNE01.JPG,AFNE01.JPG,AFNE01.JPG,AFNE01.JPG,AFNE01.JPG,0,5,5,9,,,,,,,,,,,,,,,,,,,,,,,AMSA20.jpg,AMSA05.jpg,AMNE07.jpg,AMNE09.jpg,AMSA05.jpg,MS,2,num_6,32,num_8,0.933322556508,,,2018_Feb_16_1723,60.0163428884,MAFE4ImagesEEG,001,202949,
AFNE01.JPG,AFNE01.JPG,AFNE01.JPG,AFNE01.JPG,AFNE01.JPG,AFNE01.JPG,0,6,6,1,,,,,,,,,,,,,,,,,,,,,,,AMNE16.jpg,AMSA17.jpg,AMNE13.jpg,AMSA03.jpg,AMSA17.jpg,MS,2,num_6,32,num_8,0.683491024603,,,2018_Feb_16_1723,60.0163428884,MAFE4ImagesEEG,001,202949,
AFNE01.JPG,AFNE01.JPG,AFNE01.JPG,AFNE01.JPG,AFNE01.JPG,AFNE01.JPG,0,7,7,6,,,,,,,,,,,,,,,,,,,,,,,AMSA19.jpg,AMSA17.jpg,AMNE18.jpg,AMNE20.jpg,AMSA19.jpg,MS,2,num_8,16,num_8,1.00010937196,,,2018_Feb_16_1723,60.0163428884,MAFE4ImagesEEG,001,202949,
AFNE01.JPG,AFNE01.JPG,AFNE01.JPG,AFNE01.JPG,AFNE01.JPG,AFNE01.JPG,0,8,8,7,,,,,,,,,,,,,,,,,,,,,,,AMSA04.jpg,AMSA12.jpg,AMNE02.jpg,AMNE18.jpg,AMSA04.jpg,MS,2,num_8,32,num_4,0.883420397902,,,2018_Feb_16_1723,60.0163428884,MAFE4ImagesEEG,001,202949,
AFNE01.JPG,AFNE01.JPG,AFNE01.JPG,AFNE01.JPG,AFNE01.JPG,AFNE01.JPG,0,9,9,2,,,,,,,,,,,,,,,,,,,,,,,AMSA15.jpg,AMSA16.jpg,AMNE10.jpg,AMNE11.jpg,AMSA16.jpg,MS,2,num_6,32,num_2,0.666803942908,,,2018_Feb_16_1723,60.0163428884,MAFE4ImagesEEG,001,202949,
AFNE01.JPG,AFNE01.JPG,AFNE01.JPG,AFNE01.JPG,AFNE01.JPG,AFNE01.JPG,1,0,10,3,,,,,,,,,,,,,,,,,,,,,,,AMSA04.jpg,AMNE09.jpg,AMNE08.jpg,AMSA08.jpg,AMSA08.jpg,MS,2,num_4,32,num_8,0.933727328973,,,2018_Feb_16_1723,60.0163428884,MAFE4ImagesEEG,001,202949,
AFNE01.JPG,AFNE01.JPG,AFNE01.JPG,AFNE01.JPG,AFNE01.JPG,AFNE01.JPG,1,1,11,8,,,,,,,,,,,,,,,,,,,,,,,AMNE13.jpg,AMSA10.jpg,AMSA14.jpg,AMNE10.jpg,AMNE10.jpg,MN,1,num_4,16,num_4,0.950145631488,,,2018_Feb_16_1723,60.0163428884,MAFE4ImagesEEG,001,202949,
AFNE01.JPG,AFNE01.JPG,AFNE01.JPG,AFNE01.JPG,AFNE01.JPG,AFNE01.JPG,1,2,12,5,,,,,,,,,,,,,,,,,,,,,,,AMSA13.jpg,AMNE04.jpg,AMSA14.jpg,AMNE12.jpg,AMNE04.jpg,MN,1,num_6,16,num_6,0.733492932999,,,2018_Feb_16_1723,60.0163428884,MAFE4ImagesEEG,001,202949,
AFNE01.JPG,AFNE01.JPG,AFNE01.JPG,AFNE01.JPG,AFNE01.JPG,AFNE01.JPG,1,3,13,1,,,,,,,,,,,,,,,,,,,,,,,AMNE20.jpg,AMSA04.jpg,AMNE02.jpg,AMSA11.jpg,AMNE20.jpg,MN,1,num_8,32,num_6,0.400216049709,,,2018_Feb_16_1723,60.0163428884,MAFE4ImagesEEG,001,202949,
AFNE01.JPG,AFNE01.JPG,AFNE01.JPG,AFNE01.JPG,AFNE01.JPG,AFNE01.JPG,1,4,14,9,,,,,,,,,,,,,,,,,,,,,,,AMNE16.jpg,AMSA16.jpg,AMNE13.jpg,AMSA10.jpg,AMNE13.jpg,MN,1,num_2,16,num_2,0.950186365326,,,2018_Feb_16_1723,60.0163428884,MAFE4ImagesEEG,001,202949,
AFNE01.JPG,AFNE01.JPG,AFNE01.JPG,AFNE01.JPG,AFNE01.JPG,AFNE01.JPG,1,5,15,0,,,,,,,,,,,,,,,,,,,,,,,AMSA04.jpg,AMSA15.jpg,AMNE15.jpg,AMNE18.jpg,AMSA15.jpg,MS,2,num_6,16,num_6,0.566837331824,,,2018_Feb_16_1723,60.0163428884,MAFE4ImagesEEG,001,202949,
AFNE01.JPG,AFNE01.JPG,AFNE01.JPG,AFNE01.JPG,AFNE01.JPG,AFNE01.JPG,1,6,16,4,,,,,,,,,,,,,,,,,,,,,,,AMSA07.jpg,AMNE10.jpg,AMNE15.jpg,AMSA14.jpg,AMNE10.jpg,MN,1,num_6,16,num_6,1.43340835416,,,2018_Feb_16_1723,60.0163428884,MAFE4ImagesEEG,001,202949,
AFNE01.JPG,AFNE01.JPG,AFNE01.JPG,AFNE01.JPG,AFNE01.JPG,AFNE01.JPG,1,7,17,6,,,,,,,,,,,,,,,,,,,,,,,AMNE18.jpg,AMNE14.jpg,AMSA02.jpg,AMSA18.jpg,AMNE14.jpg,MN,1,num_6,32,num_8,0.916735224602,,,2018_Feb_16_1723,60.0163428884,MAFE4ImagesEEG,001,202949,
AFNE01.JPG,AFNE01.JPG,AFNE01.JPG,AFNE01.JPG,AFNE01.JPG,AFNE01.JPG,1,8,18,7,,,,,,,,,,,,,,,,,,,,,,,AMNE20.jpg,AMSA07.jpg,AMSA06.jpg,AMNE10.jpg,AMSA07.jpg,MS,2,num_6,32,num_8,0.983455326366,,,2018_Feb_16_1723,60.0163428884,MAFE4ImagesEEG,001,202949,
AFNE01.JPG,AFNE01.JPG,AFNE01.JPG,AFNE01.JPG,AFNE01.JPG,AFNE01.JPG,1,9,19,2,,,,,,,,,,,,,,,,,,,,,,,AMSA15.jpg,AMNE04.jpg,AMSA17.jpg,AMNE05.jpg,AMSA15.jpg,MS,2,num_8,32,num_2,1.1501237571,,,2018_Feb_16_1723,60.0163428884,MAFE4ImagesEEG,001,202949,
AFNE01.JPG,AFNE01.JPG,AFNE01.JPG,AFNE01.JPG,AFNE01.JPG,AFNE01.JPG,2,0,20,3,,,,,,,,,,,,,,,,,,,,,,,AMSA12.jpg,AMSA01.jpg,AMNE09.jpg,AMNE06.jpg,AMNE06.jpg,MN,1,num_4,32,num_2,1.0501372602,,,2018_Feb_16_1723,60.0163428884,MAFE4ImagesEEG,001,202949,
AFNE01.JPG,AFNE01.JPG,AFNE01.JPG,AFNE01.JPG,AFNE01.JPG,AFNE01.JPG,2,1,21,9,,,,,,,,,,,,,,,,,,,,,,,AMSA02.jpg,AMSA12.jpg,AMNE02.jpg,AMNE20.jpg,AMNE20.jpg,MN,1,num_4,32,num_6,0.666806188079,,,2018_Feb_16_1723,60.0163428884,MAFE4ImagesEEG,001,202949,
AFNE01.JPG,AFNE01.JPG,AFNE01.JPG,AFNE01.JPG,AFNE01.JPG,AFNE01.JPG,2,2,22,7,,,,,,,,,,,,,,,,,,,,,,,AMNE04.jpg,AMSA06.jpg,AMNE10.jpg,AMSA10.jpg,AMSA10.jpg,MS,2,num_4,16,num_4,0.73338933434,,,2018_Feb_16_1723,60.0163428884,MAFE4ImagesEEG,001,202949,
AFNE01.JPG,AFNE01.JPG,AFNE01.JPG,AFNE01.JPG,AFNE01.JPG,AFNE01.JPG,2,3,23,4,,,,,,,,,,,,,,,,,,,,,,,AMSA14.jpg,AMNE10.jpg,AMSA18.jpg,AMNE06.jpg,AMSA18.jpg,MS,2,num_2,16,num_2,1.08351046138,,,2018_Feb_16_1723,60.0163428884,MAFE4ImagesEEG,001,202949,
AFNE01.JPG,AFNE01.JPG,AFNE01.JPG,AFNE01.JPG,AFNE01.JPG,AFNE01.JPG,2,4,24,1,,,,,,,,,,,,,,,,,,,,,,,AMSA17.jpg,AMNE18.jpg,AMNE15.jpg,AMSA09.jpg,AMSA17.jpg,MS,2,num_8,32,num_6,2.9166386822,,,2018_Feb_16_1723,60.0163428884,MAFE4ImagesEEG,001,202949,
AFNE01.JPG,AFNE01.JPG,AFNE01.JPG,AFNE01.JPG,AFNE01.JPG,AFNE01.JPG,2,5,25,0,,,,,,,,,,,,,,,,,,,,,,,AMSA07.jpg,AMNE11.jpg,AMSA20.jpg,AMNE05.jpg,AMNE05.jpg,MN,1,num_4,16,num_4,0.566792749121,,,2018_Feb_16_1723,60.0163428884,MAFE4ImagesEEG,001,202949,
AFNE01.JPG,AFNE01.JPG,AFNE01.JPG,AFNE01.JPG,AFNE01.JPG,AFNE01.JPG,2,6,26,6,,,,,,,,,,,,,,,,,,,,,,,AMSA14.jpg,AMSA08.jpg,AMNE11.jpg,AMNE05.jpg,AMSA14.jpg,MS,2,num_8,32,num_6,0.750187070951,,,2018_Feb_16_1723,60.0163428884,MAFE4ImagesEEG,001,202949,
AFNE01.JPG,AFNE01.JPG,AFNE01.JPG,AFNE01.JPG,AFNE01.JPG,AFNE01.JPG,2,7,27,5,,,,,,,,,,,,,,,,,,,,,,,AMSA01.jpg,AMSA18.jpg,AMNE06.jpg,AMNE10.jpg,AMSA01.jpg,MS,2,num_8,32,num_6,1.0333436932,,,2018_Feb_16_1723,60.0163428884,MAFE4ImagesEEG,001,202949,
AFNE01.JPG,AFNE01.JPG,AFNE01.JPG,AFNE01.JPG,AFNE01.JPG,AFNE01.JPG,2,8,28,8,,,,,,,,,,,,,,,,,,,,,,,AMSA20.jpg,AMNE02.jpg,AMNE10.jpg,AMSA10.jpg,AMNE02.jpg,MN,1,num_6,32,num_8,1.06674447792,,,2018_Feb_16_1723,60.0163428884,MAFE4ImagesEEG,001,202949,
AFNE01.JPG,AFNE01.JPG,AFNE01.JPG,AFNE01.JPG,AFNE01.JPG,AFNE01.JPG,2,9,29,2,,,,,,,,,,,,,,,,,,,,,,,AMSA13.jpg,AMSA03.jpg,AMNE20.jpg,AMNE07.jpg,AMNE07.jpg,MN,1,num_4,16,num_4,0.883220256841,,,2018_Feb_16_1723,60.0163428884,MAFE4ImagesEEG,001,202949,
AFNE01.JPG,AFNE01.JPG,AFNE01.JPG,AFNE01.JPG,AFNE01.JPG,AFNE01.JPG,3,0,30,3,,,,,,,,,,,,,,,,,,,,,,,AMSA14.jpg,AMNE16.jpg,AMNE03.jpg,AMSA17.jpg,AMSA17.jpg,MS,2,num_4,32,num_2,1.10014558338,,,2018_Feb_16_1723,60.0163428884,MAFE4ImagesEEG,001,202949,
AFNE01.JPG,AFNE01.JPG,AFNE01.JPG,AFNE01.JPG,AFNE01.JPG,AFNE01.JPG,3,1,31,2,,,,,,,,,,,,,,,,,,,,,,,AMSA04.jpg,AMNE01.jpg,AMSA19.jpg,AMNE07.jpg,AMNE07.jpg,MN,1,num_4,16,num_4,0.566888008567,,,2018_Feb_16_1723,60.0163428884,MAFE4ImagesEEG,001,202949,
AFNE01.JPG,AFNE01.JPG,AFNE01.JPG,AFNE01.JPG,AFNE01.JPG,AFNE01.JPG,3,2,32,1,,,,,,,,,,,,,,,,,,,,,,,AMNE10.jpg,AMSA08.jpg,AMSA09.jpg,AMNE15.jpg,AMSA09.jpg,MS,2,num_2,32,num_8,1.4835244456,,,2018_Feb_16_1723,60.0163428884,MAFE4ImagesEEG,001,202949,
AFNE01.JPG,AFNE01.JPG,AFNE01.JPG,AFNE01.JPG,AFNE01.JPG,AFNE01.JPG,3,3,33,5,,,,,,,,,,,,,,,,,,,,,,,AMSA01.jpg,AMSA08.jpg,AMNE08.jpg,AMNE15.jpg,AMSA01.jpg,MS,2,num_8,32,num_6,0.683480440221,,,2018_Feb_16_1723,60.0163428884,MAFE4ImagesEEG,001,202949,
AFNE01.JPG,AFNE01.JPG,AFNE01.JPG,AFNE01.JPG,AFNE01.JPG,AFNE01.JPG,3,4,34,9,,,,,,,,,,,,,,,,,,,,,,,AMSA20.jpg,AMNE02.jpg,AMNE12.jpg,AMSA03.jpg,AMSA03.jpg,MS,2,num_4,16,num_4,2.03345947994,,,2018_Feb_16_1723,60.0163428884,MAFE4ImagesEEG,001,202949,
AFNE01.JPG,AFNE01.JPG,AFNE01.JPG,AFNE01.JPG,AFNE01.JPG,AFNE01.JPG,3,5,35,4,,,,,,,,,,,,,,,,,,,,,,,AMNE01.jpg,AMSA08.jpg,AMNE19.jpg,AMSA20.jpg,AMNE01.jpg,MN,1,num_8,32,num_6,0.766814815956,,,2018_Feb_16_1723,60.0163428884,MAFE4ImagesEEG,001,202949,
AFNE01.JPG,AFNE01.JPG,AFNE01.JPG,AFNE01.JPG,AFNE01.JPG,AFNE01.JPG,3,6,36,7,,,,,,,,,,,,,,,,,,,,,,,AMNE17.jpg,AMNE09.jpg,AMSA20.jpg,AMSA18.jpg,AMSA20.jpg,MS,2,num_2,32,num_8,0.883457282873,,,2018_Feb_16_1723,60.0163428884,MAFE4ImagesEEG,001,202949,
AFNE01.JPG,AFNE01.JPG,AFNE01.JPG,AFNE01.JPG,AFNE01.JPG,AFNE01.JPG,3,7,37,8,,,,,,,,,,,,,,,,,,,,,,,AMNE20.jpg,AMNE14.jpg,AMSA20.jpg,AMSA08.jpg,AMNE14.jpg,MN,1,num_6,16,num_6,0.483478259197,,,2018_Feb_16_1723,60.0163428884,MAFE4ImagesEEG,001,202949,
AFNE01.JPG,AFNE01.JPG,AFNE01.JPG,AFNE01.JPG,AFNE01.JPG,AFNE01.JPG,3,8,38,0,,,,,,,,,,,,,,,,,,,,,,,AMNE02.jpg,AMNE16.jpg,AMSA05.jpg,AMSA15.jpg,AMNE16.jpg,MN,1,num_6,32,num_4,1.13344854274,,,2018_Feb_16_1723,60.0163428884,MAFE4ImagesEEG,001,202949,
AFNE01.JPG,AFNE01.JPG,AFNE01.JPG,AFNE01.JPG,AFNE01.JPG,AFNE01.JPG,3,9,39,6,,,,,,,,,,,,,,,,,,,,,,,AMSA01.jpg,AMNE05.jpg,AMNE02.jpg,AMSA16.jpg,AMSA16.jpg,MS,2,num_4,32,num_6,0.433478595971,,,2018_Feb_16_1723,60.0163428884,MAFE4ImagesEEG,001,202949,
AFNE01.JPG,AFNE01.JPG,AFNE01.JPG,AFNE01.JPG,AFNE01.JPG,AFNE01.JPG,4,0,40,8,,,,,,,,,,,,,,,,,,,,,,,AMSA20.jpg,AMSA05.jpg,AMNE16.jpg,AMNE01.jpg,AMNE01.jpg,MN,1,num_4,16,num_4,0.583459945005,,,2018_Feb_16_1723,60.0163428884,MAFE4ImagesEEG,001,202949,
AFNE01.JPG,AFNE01.JPG,AFNE01.JPG,AFNE01.JPG,AFNE01.JPG,AFNE01.JPG,4,1,41,1,,,,,,,,,,,,,,,,,,,,,,,AMSA18.jpg,AMNE07.jpg,AMNE13.jpg,AMSA17.jpg,AMSA17.jpg,MS,2,num_4,32,num_6,1.48343880831,,,2018_Feb_16_1723,60.0163428884,MAFE4ImagesEEG,001,202949,
AFNE01.JPG,AFNE01.JPG,AFNE01.JPG,AFNE01.JPG,AFNE01.JPG,AFNE01.JPG,4,2,42,6,,,,,,,,,,,,,,,,,,,,,,,AMNE19.jpg,AMSA08.jpg,AMSA15.jpg,AMNE14.jpg,AMNE14.jpg,MN,1,num_4,16,num_4,0.200215793118,,,2018_Feb_16_1723,60.0163428884,MAFE4ImagesEEG,001,202949,
AFNE01.JPG,AFNE01.JPG,AFNE01.JPG,AFNE01.JPG,AFNE01.JPG,AFNE01.JPG,4,3,43,4,,,,,,,,,,,,,,,,,,,,,,,AMNE20.jpg,AMSA06.jpg,AMNE09.jpg,AMSA11.jpg,AMNE09.jpg,MN,1,num_2,32,num_4,0.583552638544,,,2018_Feb_16_1723,60.0163428884,MAFE4ImagesEEG,001,202949,
AFNE01.JPG,AFNE01.JPG,AFNE01.JPG,AFNE01.JPG,AFNE01.JPG,AFNE01.JPG,4,4,44,5,,,,,,,,,,,,,,,,,,,,,,,AMNE17.jpg,AMSA02.jpg,AMNE02.jpg,AMSA15.jpg,AMSA15.jpg,MS,2,num_4,32,num_6,0.500167906803,,,2018_Feb_16_1723,60.0163428884,MAFE4ImagesEEG,001,202949,
AFNE01.JPG,AFNE01.JPG,AFNE01.JPG,AFNE01.JPG,AFNE01.JPG,AFNE01.JPG,4,5,45,9,,,,,,,,,,,,,,,,,,,,,,,AMNE09.jpg,AMNE02.jpg,AMSA19.jpg,AMSA17.jpg,AMSA17.jpg,MS,2,num_4,16,num_4,0.850139890263,,,2018_Feb_16_1723,60.0163428884,MAFE4ImagesEEG,001,202949,
AFNE01.JPG,AFNE01.JPG,AFNE01.JPG,AFNE01.JPG,AFNE01.JPG,AFNE01.JPG,4,6,46,2,,,,,,,,,,,,,,,,,,,,,,,AMSA15.jpg,AMSA13.jpg,AMNE09.jpg,AMNE10.jpg,AMSA13.jpg,MS,2,num_6,16,num_6,0.700120694042,,,2018_Feb_16_1723,60.0163428884,MAFE4ImagesEEG,001,202949,
AFNE01.JPG,AFNE01.JPG,AFNE01.JPG,AFNE01.JPG,AFNE01.JPG,AFNE01.JPG,4,7,47,7,,,,,,,,,,,,,,,,,,,,,,,AMSA10.jpg,AMNE04.jpg,AMSA17.jpg,AMNE14.jpg,AMSA10.jpg,MS,2,num_8,32,num_4,0.800109436106,,,2018_Feb_16_1723,60.0163428884,MAFE4ImagesEEG,001,202949,
AFNE01.JPG,AFNE01.JPG,AFNE01.JPG,AFNE01.JPG,AFNE01.JPG,AFNE01.JPG,4,8,48,3,,,,,,,,,,,,,,,,,,,,,,,AMSA01.jpg,AMNE20.jpg,AMNE03.jpg,AMSA07.jpg,AMSA07.jpg,MS,2,num_4,32,num_8,0.850145663562,,,2018_Feb_16_1723,60.0163428884,MAFE4ImagesEEG,001,202949,
AFNE01.JPG,AFNE01.JPG,AFNE01.JPG,AFNE01.JPG,AFNE01.JPG,AFNE01.JPG,4,9,49,0,,,,,,,,,,,,,,,,,,,,,,,AMSA01.jpg,AMSA06.jpg,AMNE20.jpg,AMNE16.jpg,AMNE16.jpg,MN,1,num_4,16,num_4,0.78351953829,,,2018_Feb_16_1723,60.0163428884,MAFE4ImagesEEG,001,202949,
AFNE01.JPG,AFNE01.JPG,AFNE01.JPG,AFNE01.JPG,AFNE01.JPG,AFNE01.JPG,5,0,50,5,,,,,,,,,,,,,,,,,,,,,,,AMNE16.jpg,AMNE11.jpg,AMSA06.jpg,AMSA14.jpg,AMNE16.jpg,MN,1,num_8,16,num_8,1.30014295332,,,2018_Feb_16_1723,60.0163428884,MAFE4ImagesEEG,001,202949,
AFNE01.JPG,AFNE01.JPG,AFNE01.JPG,AFNE01.JPG,AFNE01.JPG,AFNE01.JPG,5,1,51,7,,,,,,,,,,,,,,,,,,,,,,,AMNE09.jpg,AMSA15.jpg,AMNE16.jpg,AMSA16.jpg,AMNE16.jpg,MN,1,num_2,32,num_8,1.08354702561,,,2018_Feb_16_1723,60.0163428884,MAFE4ImagesEEG,001,202949,
AFNE01.JPG,AFNE01.JPG,AFNE01.JPG,AFNE01.JPG,AFNE01.JPG,AFNE01.JPG,5,2,52,1,,,,,,,,,,,,,,,,,,,,,,,AMSA07.jpg,AMNE06.jpg,AMNE07.jpg,AMSA18.jpg,AMNE07.jpg,MN,1,num_2,16,num_2,0.666874505461,,,2018_Feb_16_1723,60.0163428884,MAFE4ImagesEEG,001,202949,
AFNE01.JPG,AFNE01.JPG,AFNE01.JPG,AFNE01.JPG,AFNE01.JPG,AFNE01.JPG,5,3,53,6,,,,,,,,,,,,,,,,,,,,,,,AMSA04.jpg,AMSA09.jpg,AMNE18.jpg,AMNE12.jpg,AMSA04.jpg,MS,2,num_8,32,num_4,0.750119715785,,,2018_Feb_16_1723,60.0163428884,MAFE4ImagesEEG,001,202949,
AFNE01.JPG,AFNE01.JPG,AFNE01.JPG,AFNE01.JPG,AFNE01.JPG,AFNE01.JPG,5,4,54,8,,,,,,,,,,,,,,,,,,,,,,,AMSA01.jpg,AMNE08.jpg,AMNE19.jpg,AMSA18.jpg,AMSA18.jpg,MS,2,num_4,16,num_4,0.383479574226,,,2018_Feb_16_1723,60.0163428884,MAFE4ImagesEEG,001,202949,
AFNE01.JPG,AFNE01.JPG,AFNE01.JPG,AFNE01.JPG,AFNE01.JPG,AFNE01.JPG,5,5,55,3,,,,,,,,,,,,,,,,,,,,,,,AMSA14.jpg,AMNE19.jpg,AMSA17.jpg,AMNE06.jpg,AMSA14.jpg,MS,2,num_8,16,num_8,0.500159888332,,,2018_Feb_16_1723,60.0163428884,MAFE4ImagesEEG,001,202949,
AFNE01.JPG,AFNE01.JPG,AFNE01.JPG,AFNE01.JPG,AFNE01.JPG,AFNE01.JPG,5,6,56,4,,,,,,,,,,,,,,,,,,,,,,,AMNE04.jpg,AMNE11.jpg,AMSA20.jpg,AMSA01.jpg,AMNE11.jpg,MN,1,num_6,16,num_6,1.03347968648,,,2018_Feb_16_1723,60.0163428884,MAFE4ImagesEEG,001,202949,
AFNE01.JPG,AFNE01.JPG,AFNE01.JPG,AFNE01.JPG,AFNE01.JPG,AFNE01.JPG,5,7,57,9,,,,,,,,,,,,,,,,,,,,,,,AMSA12.jpg,AMNE18.jpg,AMSA05.jpg,AMNE07.jpg,AMSA05.jpg,MS,2,num_2,32,num_4,0.416815569692,,,2018_Feb_16_1723,60.0163428884,MAFE4ImagesEEG,001,202949,
AFNE01.JPG,AFNE01.JPG,AFNE01.JPG,AFNE01.JPG,AFNE01.JPG,AFNE01.JPG,5,8,58,2,,,,,,,,,,,,,,,,,,,,,,,AMSA15.jpg,AMNE07.jpg,AMSA14.jpg,AMNE05.jpg,AMNE05.jpg,MN,1,num_4,32,num_6,0.333548869861,,,2018_Feb_16_1723,60.0163428884,MAFE4ImagesEEG,001,202949,
AFNE01.JPG,AFNE01.JPG,AFNE01.JPG,AFNE01.JPG,AFNE01.JPG,AFNE01.JPG,5,9,59,0,,,,,,,,,,,,,,,,,,,,,,,AMSA18.jpg,AMSA05.jpg,AMNE08.jpg,AMNE20.jpg,AMNE20.jpg,MN,1,num_4,16,num_4,0.283501095804,,,2018_Feb_16_1723,60.0163428884,MAFE4ImagesEEG,001,202949,
,,,,,,,,,,,,,,,,,,,,,,,,,,,,,,,,,,,,,,,,,,,space,2.18334236213,2018_Feb_16_1723,60.0163428884,MAFE4ImagesEEG,001,202949,
AFNE01.JPG,AFNE01.JPG,AFNE01.JPG,AFNE01.JPG,AFNE01.JPG,AFNE01.JPG,,,,,0,0,0,4,,,,,,,,,,,,,,,,,,,AFNE08.jpg,AFNE11.jpg,AFSA11.jpg,AFSA06.jpg,AFSA06.jpg,FS,4,num_4,16,num_4,0.350190727375,,,2018_Feb_16_1723,60.0163428884,MAFE4ImagesEEG,001,202949,
AFNE01.JPG,AFNE01.JPG,AFNE01.JPG,AFNE01.JPG,AFNE01.JPG,AFNE01.JPG,,,,,0,1,1,0,,,,,,,,,,,,,,,,,,,AFNE01.jpg,AFSA15.jpg,AFSA04.jpg,AFNE10.jpg,AFSA04.jpg,FS,4,num_2,32,num_4,0.800106870194,,,2018_Feb_16_1723,60.0163428884,MAFE4ImagesEEG,001,202949,
AFNE01.JPG,AFNE01.JPG,AFNE01.JPG,AFNE01.JPG,AFNE01.JPG,AFNE01.JPG,,,,,0,2,2,3,,,,,,,,,,,,,,,,,,,AFSA03.jpg,AFSA07.jpg,AFNE10.jpg,AFNE18.jpg,AFSA07.jpg,FS,4,num_6,16,num_6,0.633497134679,,,2018_Feb_16_1723,60.0163428884,MAFE4ImagesEEG,001,202949,
AFNE01.JPG,AFNE01.JPG,AFNE01.JPG,AFNE01.JPG,AFNE01.JPG,AFNE01.JPG,,,,,0,3,3,8,,,,,,,,,,,,,,,,,,,AFSA16.jpg,AFNE19.jpg,AFSA10.jpg,AFNE06.jpg,AFSA16.jpg,FS,4,num_8,32,num_6,0.466870400003,,,2018_Feb_16_1723,60.0163428884,MAFE4ImagesEEG,001,202949,
AFNE01.JPG,AFNE01.JPG,AFNE01.JPG,AFNE01.JPG,AFNE01.JPG,AFNE01.JPG,,,,,0,4,4,6,,,,,,,,,,,,,,,,,,,AFNE07.jpg,AFSA16.jpg,AFSA05.jpg,AFNE03.jpg,AFNE07.jpg,FN,3,num_8,32,num_6,0.816826667256,,,2018_Feb_16_1723,60.0163428884,MAFE4ImagesEEG,001,202949,
AFNE01.JPG,AFNE01.JPG,AFNE01.JPG,AFNE01.JPG,AFNE01.JPG,AFNE01.JPG,,,,,0,5,5,2,,,,,,,,,,,,,,,,,,,AFSA13.jpg,AFSA04.jpg,AFNE14.jpg,AFNE11.jpg,AFSA13.jpg,FS,4,num_8,32,num_4,0.416821342993,,,2018_Feb_16_1723,60.0163428884,MAFE4ImagesEEG,001,202949,
AFNE01.JPG,AFNE01.JPG,AFNE01.JPG,AFNE01.JPG,AFNE01.JPG,AFNE01.JPG,,,,,0,6,6,9,,,,,,,,,,,,,,,,,,,AFNE10.jpg,AFSA13.jpg,AFSA02.jpg,AFNE02.jpg,AFNE02.jpg,FN,3,num_4,16,num_4,0.783438391354,,,2018_Feb_16_1723,60.0163428884,MAFE4ImagesEEG,001,202949,
AFNE01.JPG,AFNE01.JPG,AFNE01.JPG,AFNE01.JPG,AFNE01.JPG,AFNE01.JPG,,,,,0,7,7,7,,,,,,,,,,,,,,,,,,,AFSA20.jpg,AFNE17.jpg,AFNE08.jpg,AFSA15.jpg,AFNE17.jpg,FN,3,num_6,16,num_6,0.866804199497,,,2018_Feb_16_1723,60.0163428884,MAFE4ImagesEEG,001,202949,
AFNE01.JPG,AFNE01.JPG,AFNE01.JPG,AFNE01.JPG,AFNE01.JPG,AFNE01.JPG,,,,,0,8,8,5,,,,,,,,,,,,,,,,,,,AFSA06.jpg,AFSA13.jpg,AFNE19.jpg,AFNE18.jpg,AFNE19.jpg,FN,3,num_2,16,num_2,0.700119090345,,,2018_Feb_16_1723,60.0163428884,MAFE4ImagesEEG,001,202949,
AFNE01.JPG,AFNE01.JPG,AFNE01.JPG,AFNE01.JPG,AFNE01.JPG,AFNE01.JPG,,,,,0,9,9,1,,,,,,,,,,,,,,,,,,,AFSA09.jpg,AFNE05.jpg,AFNE11.jpg,AFSA02.jpg,AFNE05.jpg,FN,3,num_6,32,num_2,3.08325996431,,,2018_Feb_16_1723,60.0163428884,MAFE4ImagesEEG,001,202949,
AFNE01.JPG,AFNE01.JPG,AFNE01.JPG,AFNE01.JPG,AFNE01.JPG,AFNE01.JPG,,,,,1,0,10,7,,,,,,,,,,,,,,,,,,,AFNE11.jpg,AFSA08.jpg,AFSA09.jpg,AFNE12.jpg,AFSA08.jpg,FS,4,num_6,16,num_6,0.500021649874,,,2018_Feb_16_1723,60.0163428884,MAFE4ImagesEEG,001,202949,
AFNE01.JPG,AFNE01.JPG,AFNE01.JPG,AFNE01.JPG,AFNE01.JPG,AFNE01.JPG,,,,,1,1,11,2,,,,,,,,,,,,,,,,,,,AFSA12.jpg,AFNE18.jpg,AFSA17.jpg,AFNE19.jpg,AFSA17.jpg,FS,4,num_2,32,num_6,1.35016635122,,,2018_Feb_16_1723,60.0163428884,MAFE4ImagesEEG,001,202949,
AFNE01.JPG,AFNE01.JPG,AFNE01.JPG,AFNE01.JPG,AFNE01.JPG,AFNE01.JPG,,,,,1,2,12,5,,,,,,,,,,,,,,,,,,,AFNE16.jpg,AFSA17.jpg,AFSA02.jpg,AFNE14.jpg,AFNE16.jpg,FN,3,num_8,32,num_6,0.90012993132,,,2018_Feb_16_1723,60.0163428884,MAFE4ImagesEEG,001,202949,
AFNE01.JPG,AFNE01.JPG,AFNE01.JPG,AFNE01.JPG,AFNE01.JPG,AFNE01.JPG,,,,,1,3,13,8,,,,,,,,,,,,,,,,,,,AFSA06.jpg,AFNE19.jpg,AFNE02.jpg,AFSA15.jpg,AFSA15.jpg,FS,4,num_4,16,num_4,0.550121704367,,,2018_Feb_16_1723,60.0163428884,MAFE4ImagesEEG,001,202949,
AFNE01.JPG,AFNE01.JPG,AFNE01.JPG,AFNE01.JPG,AFNE01.JPG,AFNE01.JPG,,,,,1,4,14,0,,,,,,,,,,,,,,,,,,,AFSA16.jpg,AFNE19.jpg,AFSA02.jpg,AFNE10.jpg,AFNE10.jpg,FN,3,num_4,32,num_2,0.88350988405,,,2018_Feb_16_1723,60.0163428884,MAFE4ImagesEEG,001,202949,
AFNE01.JPG,AFNE01.JPG,AFNE01.JPG,AFNE01.JPG,AFNE01.JPG,AFNE01.JPG,,,,,1,5,15,9,,,,,,,,,,,,,,,,,,,AFSA13.jpg,AFNE01.jpg,AFSA19.jpg,AFNE03.jpg,AFSA19.jpg,FS,4,num_2,32,num_8,0.466768084301,,,2018_Feb_16_1723,60.0163428884,MAFE4ImagesEEG,001,202949,
AFNE01.JPG,AFNE01.JPG,AFNE01.JPG,AFNE01.JPG,AFNE01.JPG,AFNE01.JPG,,,,,1,6,16,4,,,,,,,,,,,,,,,,,,,AFNE12.jpg,AFSA04.jpg,AFSA14.jpg,AFNE20.jpg,AFNE20.jpg,FN,3,num_4,16,num_4,1.05012443065,,,2018_Feb_16_1723,60.0163428884,MAFE4ImagesEEG,001,202949,
AFNE01.JPG,AFNE01.JPG,AFNE01.JPG,AFNE01.JPG,AFNE01.JPG,AFNE01.JPG,,,,,1,7,17,6,,,,,,,,,,,,,,,,,,,AFNE09.jpg,AFNE08.jpg,AFSA18.jpg,AFSA03.jpg,AFNE09.jpg,FN,3,num_8,32,num_6,0.933481642991,,,2018_Feb_16_1723,60.0163428884,MAFE4ImagesEEG,001,202949,
AFNE01.JPG,AFNE01.JPG,AFNE01.JPG,AFNE01.JPG,AFNE01.JPG,AFNE01.JPG,,,,,1,8,18,3,,,,,,,,,,,,,,,,,,,AFSA12.jpg,AFSA01.jpg,AFNE05.jpg,AFNE07.jpg,AFSA01.jpg,FS,4,num_6,16,num_6,1.20014683426,,,2018_Feb_16_1723,60.0163428884,MAFE4ImagesEEG,001,202949,
AFNE01.JPG,AFNE01.JPG,AFNE01.JPG,AFNE01.JPG,AFNE01.JPG,AFNE01.JPG,,,,,1,9,19,1,,,,,,,,,,,,,,,,,,,AFSA10.jpg,AFSA06.jpg,AFNE06.jpg,AFNE20.jpg,AFNE06.jpg,FN,3,num_2,32,num_4,1.21670241302,,,2018_Feb_16_1723,60.0163428884,MAFE4ImagesEEG,001,202949,
AFNE01.JPG,AFNE01.JPG,AFNE01.JPG,AFNE01.JPG,AFNE01.JPG,AFNE01.JPG,,,,,2,0,20,5,,,,,,,,,,,,,,,,,,,AFNE07.jpg,AFNE06.jpg,AFSA20.jpg,AFSA15.jpg,AFNE06.jpg,FN,3,num_6,16,num_6,0.550154740473,,,2018_Feb_16_1723,60.0163428884,MAFE4ImagesEEG,001,202949,
AFNE01.JPG,AFNE01.JPG,AFNE01.JPG,AFNE01.JPG,AFNE01.JPG,AFNE01.JPG,,,,,2,1,21,0,,,,,,,,,,,,,,,,,,,AFSA09.jpg,AFSA06.jpg,AFNE17.jpg,AFNE05.jpg,AFSA06.jpg,FS,4,num_6,32,num_4,0.900124799497,,,2018_Feb_16_1723,60.0163428884,MAFE4ImagesEEG,001,202949,
AFNE01.JPG,AFNE01.JPG,AFNE01.JPG,AFNE01.JPG,AFNE01.JPG,AFNE01.JPG,,,,,2,2,22,9,,,,,,,,,,,,,,,,,,,AFNE16.jpg,AFSA10.jpg,AFSA03.jpg,AFNE13.jpg,AFNE16.jpg,FN,3,num_8,32,num_2,0.683537211002,,,2018_Feb_16_1723,60.0163428884,MAFE4ImagesEEG,001,202949,
AFNE01.JPG,AFNE01.JPG,AFNE01.JPG,AFNE01.JPG,AFNE01.JPG,AFNE01.JPG,,,,,2,3,23,3,,,,,,,,,,,,,,,,,,,AFSA07.jpg,AFSA08.jpg,AFNE10.jpg,AFNE05.jpg,AFSA07.jpg,FS,4,num_8,16,num_8,0.716853320657,,,2018_Feb_16_1723,60.0163428884,MAFE4ImagesEEG,001,202949,
AFNE01.JPG,AFNE01.JPG,AFNE01.JPG,AFNE01.JPG,AFNE01.JPG,AFNE01.JPG,,,,,2,4,24,4,,,,,,,,,,,,,,,,,,,AFSA02.jpg,AFNE17.jpg,AFSA17.jpg,AFNE10.jpg,AFSA17.jpg,FS,4,num_2,16,num_2,0.950141461883,,,2018_Feb_16_1723,60.0163428884,MAFE4ImagesEEG,001,202949,
AFNE01.JPG,AFNE01.JPG,AFNE01.JPG,AFNE01.JPG,AFNE01.JPG,AFNE01.JPG,,,,,2,5,25,7,,,,,,,,,,,,,,,,,,,AFSA16.jpg,AFSA08.jpg,AFNE18.jpg,AFNE06.jpg,AFNE18.jpg,FN,3,num_2,16,num_2,1.46669912544,,,2018_Feb_16_1723,60.0163428884,MAFE4ImagesEEG,001,202949,
AFNE01.JPG,AFNE01.JPG,AFNE01.JPG,AFNE01.JPG,AFNE01.JPG,AFNE01.JPG,,,,,2,6,26,1,,,,,,,,,,,,,,,,,,,AFSA08.jpg,AFSA17.jpg,AFNE03.jpg,AFNE07.jpg,AFSA17.jpg,FS,4,num_6,16,num_6,0.433531197148,,,2018_Feb_16_1723,60.0163428884,MAFE4ImagesEEG,001,202949,
AFNE01.JPG,AFNE01.JPG,AFNE01.JPG,AFNE01.JPG,AFNE01.JPG,AFNE01.JPG,,,,,2,7,27,6,,,,,,,,,,,,,,,,,,,AFNE04.jpg,AFSA08.jpg,AFSA16.jpg,AFNE12.jpg,AFNE12.jpg,FN,3,num_4,16,num_4,0.650063939296,,,2018_Feb_16_1723,60.0163428884,MAFE4ImagesEEG,001,202949,
AFNE01.JPG,AFNE01.JPG,AFNE01.JPG,AFNE01.JPG,AFNE01.JPG,AFNE01.JPG,,,,,2,8,28,8,,,,,,,,,,,,,,,,,,,AFSA15.jpg,AFNE17.jpg,AFSA08.jpg,AFNE18.jpg,AFNE18.jpg,FN,3,num_4,16,num_4,0.583504206972,,,2018_Feb_16_1723,60.0163428884,MAFE4ImagesEEG,001,202949,
AFNE01.JPG,AFNE01.JPG,AFNE01.JPG,AFNE01.JPG,AFNE01.JPG,AFNE01.JPG,,,,,2,9,29,2,,,,,,,,,,,,,,,,,,,AFSA11.jpg,AFNE14.jpg,AFSA19.jpg,AFNE12.jpg,AFNE12.jpg,FN,3,num_4,16,num_4,1.88362278413,,,2018_Feb_16_1723,60.0163428884,MAFE4ImagesEEG,001,202949,
AFNE01.JPG,AFNE01.JPG,AFNE01.JPG,AFNE01.JPG,AFNE01.JPG,AFNE01.JPG,,,,,3,0,30,0,,,,,,,,,,,,,,,,,,,AFSA20.jpg,AFNE20.jpg,AFNE13.jpg,AFSA01.jpg,AFSA01.jpg,FS,4,num_4,16,num_4,1.45011115206,,,2018_Feb_16_1723,60.0163428884,MAFE4ImagesEEG,001,202949,
AFNE01.JPG,AFNE01.JPG,AFNE01.JPG,AFNE01.JPG,AFNE01.JPG,AFNE01.JPG,,,,,3,1,31,5,,,,,,,,,,,,,,,,,,,AFNE04.jpg,AFSA18.jpg,AFSA14.jpg,AFNE14.jpg,AFSA14.jpg,FS,4,num_2,32,num_4,0.600165629558,,,2018_Feb_16_1723,60.0163428884,MAFE4ImagesEEG,001,202949,
AFNE01.JPG,AFNE01.JPG,AFNE01.JPG,AFNE01.JPG,AFNE01.JPG,AFNE01.JPG,,,,,3,2,32,8,,,,,,,,,,,,,,,,,,,AFSA14.jpg,AFNE05.jpg,AFNE10.jpg,AFSA06.jpg,AFSA06.jpg,FS,4,num_4,16,num_4,0.300155462135,,,2018_Feb_16_1723,60.0163428884,MAFE4ImagesEEG,001,202949,
AFNE01.JPG,AFNE01.JPG,AFNE01.JPG,AFNE01.JPG,AFNE01.JPG,AFNE01.JPG,,,,,3,3,33,3,,,,,,,,,,,,,,,,,,,AFNE07.jpg,AFSA06.jpg,AFNE13.jpg,AFSA18.jpg,AFSA06.jpg,FS,4,num_6,32,num_4,0.266814976325,,,2018_Feb_16_1723,60.0163428884,MAFE4ImagesEEG,001,202949,
AFNE01.JPG,AFNE01.JPG,AFNE01.JPG,AFNE01.JPG,AFNE01.JPG,AFNE01.JPG,,,,,3,4,34,1,,,,,,,,,,,,,,,,,,,AFSA06.jpg,AFSA15.jpg,AFNE17.jpg,AFNE13.jpg,AFSA06.jpg,FS,4,num_8,32,num_6,0.800172621664,,,2018_Feb_16_1723,60.0163428884,MAFE4ImagesEEG,001,202949,
AFNE01.JPG,AFNE01.JPG,AFNE01.JPG,AFNE01.JPG,AFNE01.JPG,AFNE01.JPG,,,,,3,5,35,6,,,,,,,,,,,,,,,,,,,AFNE18.jpg,AFNE16.jpg,AFSA12.jpg,AFSA13.jpg,AFNE16.jpg,FN,3,num_6,32,num_8,1.05009171528,,,2018_Feb_16_1723,60.0163428884,MAFE4ImagesEEG,001,202949,
AFNE01.JPG,AFNE01.JPG,AFNE01.JPG,AFNE01.JPG,AFNE01.JPG,AFNE01.JPG,,,,,3,6,36,7,,,,,,,,,,,,,,,,,,,AFSA04.jpg,AFSA08.jpg,AFNE13.jpg,AFNE01.jpg,AFSA08.jpg,FS,4,num_6,32,num_8,0.883456641395,,,2018_Feb_16_1723,60.0163428884,MAFE4ImagesEEG,001,202949,
AFNE01.JPG,AFNE01.JPG,AFNE01.JPG,AFNE01.JPG,AFNE01.JPG,AFNE01.JPG,,,,,3,7,37,2,,,,,,,,,,,,,,,,,,,AFNE02.jpg,AFSA06.jpg,AFNE18.jpg,AFSA08.jpg,AFSA06.jpg,FS,4,num_6,32,num_8,1.26680342973,,,2018_Feb_16_1723,60.0163428884,MAFE4ImagesEEG,001,202949,
AFNE01.JPG,AFNE01.JPG,AFNE01.JPG,AFNE01.JPG,AFNE01.JPG,AFNE01.JPG,,,,,3,8,38,9,,,,,,,,,,,,,,,,,,,AFNE04.jpg,AFSA14.jpg,AFSA02.jpg,AFNE14.jpg,AFSA02.jpg,FS,4,num_2,32,num_4,0.750182901345,,,2018_Feb_16_1723,60.0163428884,MAFE4ImagesEEG,001,202949,
AFNE01.JPG,AFNE01.JPG,AFNE01.JPG,AFNE01.JPG,AFNE01.JPG,AFNE01.JPG,,,,,3,9,39,4,,,,,,,,,,,,,,,,,,,AFSA17.jpg,AFNE05.jpg,AFSA18.jpg,AFNE03.jpg,AFNE05.jpg,FN,3,num_6,32,num_4,0.6501200686,,,2018_Feb_16_1723,60.0163428884,MAFE4ImagesEEG,001,202949,
AFNE01.JPG,AFNE01.JPG,AFNE01.JPG,AFNE01.JPG,AFNE01.JPG,AFNE01.JPG,,,,,4,0,40,5,,,,,,,,,,,,,,,,,,,AFSA20.jpg,AFNE16.jpg,AFSA04.jpg,AFNE04.jpg,AFSA04.jpg,FS,4,num_2,32,num_6,1.1500602508,,,2018_Feb_16_1723,60.0163428884,MAFE4ImagesEEG,001,202949,
AFNE01.JPG,AFNE01.JPG,AFNE01.JPG,AFNE01.JPG,AFNE01.JPG,AFNE01.JPG,,,,,4,1,41,3,,,,,,,,,,,,,,,,,,,AFSA01.jpg,AFNE07.jpg,AFSA11.jpg,AFNE04.jpg,AFNE04.jpg,FN,3,num_4,32,num_6,1.01676213459,,,2018_Feb_16_1723,60.0163428884,MAFE4ImagesEEG,001,202949,
AFNE01.JPG,AFNE01.JPG,AFNE01.JPG,AFNE01.JPG,AFNE01.JPG,AFNE01.JPG,,,,,4,2,42,0,,,,,,,,,,,,,,,,,,,AFSA01.jpg,AFSA09.jpg,AFNE16.jpg,AFNE13.jpg,AFSA09.jpg,FS,4,num_6,32,num_4,0.85012353258,,,2018_Feb_16_1723,60.0163428884,MAFE4ImagesEEG,001,202949,
AFNE01.JPG,AFNE01.JPG,AFNE01.JPG,AFNE01.JPG,AFNE01.JPG,AFNE01.JPG,,,,,4,3,43,1,,,,,,,,,,,,,,,,,,,AFSA01.jpg,AFNE14.jpg,AFNE18.jpg,AFSA20.jpg,AFNE18.jpg,FN,3,num_2,32,num_6,0.600177496897,,,2018_Feb_16_1723,60.0163428884,MAFE4ImagesEEG,001,202949,
AFNE01.JPG,AFNE01.JPG,AFNE01.JPG,AFNE01.JPG,AFNE01.JPG,AFNE01.JPG,,,,,4,4,44,4,,,,,,,,,,,,,,,,,,,AFSA09.jpg,AFNE08.jpg,AFSA13.jpg,AFNE05.jpg,AFNE05.jpg,FN,3,num_4,32,num_6,2.06671336625,,,2018_Feb_16_1723,60.0163428884,MAFE4ImagesEEG,001,202949,
AFNE01.JPG,AFNE01.JPG,AFNE01.JPG,AFNE01.JPG,AFNE01.JPG,AFNE01.JPG,,,,,4,5,45,8,,,,,,,,,,,,,,,,,,,AFSA05.jpg,AFNE06.jpg,AFSA08.jpg,AFNE07.jpg,AFSA08.jpg,FS,4,num_2,32,num_4,0.633462815618,,,2018_Feb_16_1723,60.0163428884,MAFE4ImagesEEG,001,202949,
AFNE01.JPG,AFNE01.JPG,AFNE01.JPG,AFNE01.JPG,AFNE01.JPG,AFNE01.JPG,,,,,4,6,46,9,,,,,,,,,,,,,,,,,,,AFNE12.jpg,AFNE18.jpg,AFSA18.jpg,AFSA17.jpg,AFNE18.jpg,FN,3,num_6,32,num_8,1.19997331453,,,2018_Feb_16_1723,60.0163428884,MAFE4ImagesEEG,001,202949,
AFNE01.JPG,AFNE01.JPG,AFNE01.JPG,AFNE01.JPG,AFNE01.JPG,AFNE01.JPG,,,,,4,7,47,6,,,,,,,,,,,,,,,,,,,AFSA09.jpg,AFNE07.jpg,AFNE14.jpg,AFSA15.jpg,AFSA15.jpg,FS,4,num_4,32,num_6,1.53339677548,,,2018_Feb_16_1723,60.0163428884,MAFE4ImagesEEG,001,202949,
AFNE01.JPG,AFNE01.JPG,AFNE01.JPG,AFNE01.JPG,AFNE01.JPG,AFNE01.JPG,,,,,4,8,48,7,,,,,,,,,,,,,,,,,,,AFNE04.jpg,AFNE02.jpg,AFSA04.jpg,AFSA09.jpg,AFSA09.jpg,FS,4,num_4,32,num_2,0.833451204871,,,2018_Feb_16_1723,60.0163428884,MAFE4ImagesEEG,001,202949,
AFNE01.JPG,AFNE01.JPG,AFNE01.JPG,AFNE01.JPG,AFNE01.JPG,AFNE01.JPG,,,,,4,9,49,2,,,,,,,,,,,,,,,,,,,AFNE06.jpg,AFSA16.jpg,AFNE15.jpg,AFSA12.jpg,AFSA16.jpg,FS,4,num_6,16,num_6,0.766784025023,,,2018_Feb_16_1723,60.0163428884,MAFE4ImagesEEG,001,202949,
AFNE01.JPG,AFNE01.JPG,AFNE01.JPG,AFNE01.JPG,AFNE01.JPG,AFNE01.JPG,,,,,5,0,50,4,,,,,,,,,,,,,,,,,,,AFSA15.jpg,AFSA20.jpg,AFNE08.jpg,AFNE12.jpg,AFSA15.jpg,FS,4,num_8,32,num_6,1.13340620521,,,2018_Feb_16_1723,60.0163428884,MAFE4ImagesEEG,001,202949,
AFNE01.JPG,AFNE01.JPG,AFNE01.JPG,AFNE01.JPG,AFNE01.JPG,AFNE01.JPG,,,,,5,1,51,2,,,,,,,,,,,,,,,,,,,AFNE15.jpg,AFSA01.jpg,AFSA08.jpg,AFNE03.jpg,AFSA01.jpg,FS,4,num_6,32,num_4,0.800149528466,,,2018_Feb_16_1723,60.0163428884,MAFE4ImagesEEG,001,202949,
AFNE01.JPG,AFNE01.JPG,AFNE01.JPG,AFNE01.JPG,AFNE01.JPG,AFNE01.JPG,,,,,5,2,52,8,,,,,,,,,,,,,,,,,,,AFSA09.jpg,AFSA15.jpg,AFNE20.jpg,AFNE18.jpg,AFNE18.jpg,FN,3,num_4,32,num_2,0.383323053651,,,2018_Feb_16_1723,60.0163428884,MAFE4ImagesEEG,001,202949,
AFNE01.JPG,AFNE01.JPG,AFNE01.JPG,AFNE01.JPG,AFNE01.JPG,AFNE01.JPG,,,,,5,3,53,9,,,,,,,,,,,,,,,,,,,AFSA15.jpg,AFNE09.jpg,AFSA13.jpg,AFNE19.jpg,AFNE09.jpg,FN,3,num_6,32,num_4,1.01677977523,,,2018_Feb_16_1723,60.0163428884,MAFE4ImagesEEG,001,202949,
AFNE01.JPG,AFNE01.JPG,AFNE01.JPG,AFNE01.JPG,AFNE01.JPG,AFNE01.JPG,,,,,5,4,54,3,,,,,,,,,,,,,,,,,,,AFSA20.jpg,AFNE16.jpg,AFNE14.jpg,AFSA07.jpg,AFSA07.jpg,FS,4,num_4,32,num_6,0.733299848194,,,2018_Feb_16_1723,60.0163428884,MAFE4ImagesEEG,001,202949,
AFNE01.JPG,AFNE01.JPG,AFNE01.JPG,AFNE01.JPG,AFNE01.JPG,AFNE01.JPG,,,,,5,5,55,0,,,,,,,,,,,,,,,,,,,AFNE18.jpg,AFSA15.jpg,AFSA19.jpg,AFNE02.jpg,AFSA19.jpg,FS,4,num_2,32,num_4,0.633483984386,,,2018_Feb_16_1723,60.0163428884,MAFE4ImagesEEG,001,202949,
AFNE01.JPG,AFNE01.JPG,AFNE01.JPG,AFNE01.JPG,AFNE01.JPG,AFNE01.JPG,,,,,5,6,56,7,,,,,,,,,,,,,,,,,,,AFSA04.jpg,AFNE06.jpg,AFSA11.jpg,AFNE02.jpg,AFNE02.jpg,FN,3,num_4,32,num_6,1.03344087708,,,2018_Feb_16_1723,60.0163428884,MAFE4ImagesEEG,001,202949,
AFNE01.JPG,AFNE01.JPG,AFNE01.JPG,AFNE01.JPG,AFNE01.JPG,AFNE01.JPG,,,,,5,7,57,5,,,,,,,,,,,,,,,,,,,AFNE08.jpg,AFSA03.jpg,AFSA05.jpg,AFNE10.jpg,AFSA05.jpg,FS,4,num_2,32,num_8,0.58363025735,,,2018_Feb_16_1723,60.0163428884,MAFE4ImagesEEG,001,202949,
AFNE01.JPG,AFNE01.JPG,AFNE01.JPG,AFNE01.JPG,AFNE01.JPG,AFNE01.JPG,,,,,5,8,58,6,,,,,,,,,,,,,,,,,,,AFNE04.jpg,AFSA03.jpg,AFSA12.jpg,AFNE03.jpg,AFSA03.jpg,FS,4,num_6,32,num_8,0.266836465829,,,2018_Feb_16_1723,60.0163428884,MAFE4ImagesEEG,001,202949,
AFNE01.JPG,AFNE01.JPG,AFNE01.JPG,AFNE01.JPG,AFNE01.JPG,AFNE01.JPG,,,,,5,9,59,1,,,,,,,,,,,,,,,,,,,AFNE02.jpg,AFNE05.jpg,AFSA13.jpg,AFSA06.jpg,AFNE05.jpg,FN,3,num_6,16,num_6,0.483488522841,,,2018_Feb_16_1723,60.0163428884,MAFE4ImagesEEG,001,202949,
,,,,,,,,,,,,,,,,,,,,,,,,,,,,,,,,,,,,,,,,,,,space,3.24985109697,2018_Feb_16_1723,60.0163428884,MAFE4ImagesEEG,001,202949,
AFNE01.JPG,AFNE01.JPG,AFNE01.JPG,AFNE01.JPG,AFNE01.JPG,AFNE01.JPG,,,,,,,,,0,0,0,5,,,,,,,,,,,,,,,AMSA20.jpg,AMNE10.jpg,AMSA04.jpg,AMNE04.jpg,AMSA20.jpg,MS,2,num_8,32,num_6,0.366886469021,,,2018_Feb_16_1723,60.0163428884,MAFE4ImagesEEG,001,202949,
AFNE01.JPG,AFNE01.JPG,AFNE01.JPG,AFNE01.JPG,AFNE01.JPG,AFNE01.JPG,,,,,,,,,0,1,1,4,,,,,,,,,,,,,,,AMSA01.jpg,AMNE08.jpg,AMSA04.jpg,AMNE18.jpg,AMNE08.jpg,MN,1,num_6,16,num_6,0.450234315789,,,2018_Feb_16_1723,60.0163428884,MAFE4ImagesEEG,001,202949,
AFNE01.JPG,AFNE01.JPG,AFNE01.JPG,AFNE01.JPG,AFNE01.JPG,AFNE01.JPG,,,,,,,,,0,2,2,2,,,,,,,,,,,,,,,AMSA04.jpg,AMNE01.jpg,AMNE20.jpg,AMSA15.jpg,AMNE01.jpg,MN,1,num_6,16,num_6,0.700279139048,,,2018_Feb_16_1723,60.0163428884,MAFE4ImagesEEG,001,202949,
AFNE01.JPG,AFNE01.JPG,AFNE01.JPG,AFNE01.JPG,AFNE01.JPG,AFNE01.JPG,,,,,,,,,0,3,3,1,,,,,,,,,,,,,,,AMSA18.jpg,AMNE13.jpg,AMSA10.jpg,AMNE15.jpg,AMSA18.jpg,MS,2,num_8,16,num_8,0.866814142404,,,2018_Feb_16_1723,60.0163428884,MAFE4ImagesEEG,001,202949,
AFNE01.JPG,AFNE01.JPG,AFNE01.JPG,AFNE01.JPG,AFNE01.JPG,AFNE01.JPG,,,,,,,,,0,4,4,7,,,,,,,,,,,,,,,AMNE10.jpg,AMSA10.jpg,AMNE15.jpg,AMSA09.jpg,AMNE15.jpg,MN,1,num_2,32,num_8,1.00008884467,,,2018_Feb_16_1723,60.0163428884,MAFE4ImagesEEG,001,202949,
AFNE01.JPG,AFNE01.JPG,AFNE01.JPG,AFNE01.JPG,AFNE01.JPG,AFNE01.JPG,,,,,,,,,0,5,5,8,,,,,,,,,,,,,,,AMSA11.jpg,AMNE05.jpg,AMSA01.jpg,AMNE10.jpg,AMSA01.jpg,MS,2,num_2,16,num_2,1.21678035256,,,2018_Feb_16_1723,60.0163428884,MAFE4ImagesEEG,001,202949,
AFNE01.JPG,AFNE01.JPG,AFNE01.JPG,AFNE01.JPG,AFNE01.JPG,AFNE01.JPG,,,,,,,,,0,6,6,9,,,,,,,,,,,,,,,AMNE03.jpg,AMSA15.jpg,AMSA07.jpg,AMNE05.jpg,AMNE03.jpg,MN,1,num_8,16,num_8,1.1834716199,,,2018_Feb_16_1723,60.0163428884,MAFE4ImagesEEG,001,202949,
AFNE01.JPG,AFNE01.JPG,AFNE01.JPG,AFNE01.JPG,AFNE01.JPG,AFNE01.JPG,,,,,,,,,0,7,7,0,,,,,,,,,,,,,,,AMNE18.jpg,AMSA12.jpg,AMNE01.jpg,AMSA20.jpg,AMNE18.jpg,MN,1,num_8,32,num_6,0.933520131655,,,2018_Feb_16_1723,60.0163428884,MAFE4ImagesEEG,001,202949,
AFNE01.JPG,AFNE01.JPG,AFNE01.JPG,AFNE01.JPG,AFNE01.JPG,AFNE01.JPG,,,,,,,,,0,8,8,6,,,,,,,,,,,,,,,AMNE02.jpg,AMNE14.jpg,AMSA17.jpg,AMSA05.jpg,AMSA05.jpg,MS,2,num_4,16,num_4,0.866759296056,,,2018_Feb_16_1723,60.0163428884,MAFE4ImagesEEG,001,202949,
AFNE01.JPG,AFNE01.JPG,AFNE01.JPG,AFNE01.JPG,AFNE01.JPG,AFNE01.JPG,,,,,,,,,0,9,9,3,,,,,,,,,,,,,,,AMSA07.jpg,AMNE17.jpg,AMNE06.jpg,AMSA09.jpg,AMSA09.jpg,MS,2,num_4,16,num_4,0.816882796562,,,2018_Feb_16_1723,60.0163428884,MAFE4ImagesEEG,001,202949,
AFNE01.JPG,AFNE01.JPG,AFNE01.JPG,AFNE01.JPG,AFNE01.JPG,AFNE01.JPG,,,,,,,,,1,0,10,3,,,,,,,,,,,,,,,AMNE19.jpg,AMNE16.jpg,AMSA12.jpg,AMSA19.jpg,AMSA12.jpg,MS,2,num_2,32,num_8,0.983484513605,,,2018_Feb_16_1723,60.0163428884,MAFE4ImagesEEG,001,202949,
AFNE01.JPG,AFNE01.JPG,AFNE01.JPG,AFNE01.JPG,AFNE01.JPG,AFNE01.JPG,,,,,,,,,1,1,11,1,,,,,,,,,,,,,,,AMSA10.jpg,AMNE07.jpg,AMSA19.jpg,AMNE02.jpg,AMNE02.jpg,MN,1,num_4,32,num_6,0.983474570699,,,2018_Feb_16_1723,60.0163428884,MAFE4ImagesEEG,001,202949,
AFNE01.JPG,AFNE01.JPG,AFNE01.JPG,AFNE01.JPG,AFNE01.JPG,AFNE01.JPG,,,,,,,,,1,2,12,6,,,,,,,,,,,,,,,AMNE04.jpg,AMSA07.jpg,AMSA06.jpg,AMNE05.jpg,AMNE04.jpg,MN,1,num_8,16,num_8,0.80015690546,,,2018_Feb_16_1723,60.0163428884,MAFE4ImagesEEG,001,202949,
AFNE01.JPG,AFNE01.JPG,AFNE01.JPG,AFNE01.JPG,AFNE01.JPG,AFNE01.JPG,,,,,,,,,1,3,13,8,,,,,,,,,,,,,,,AMNE04.jpg,AMSA11.jpg,AMNE17.jpg,AMSA15.jpg,AMNE17.jpg,MN,1,num_2,32,num_4,1.19999480403,,,2018_Feb_16_1723,60.0163428884,MAFE4ImagesEEG,001,202949,
AFNE01.JPG,AFNE01.JPG,AFNE01.JPG,AFNE01.JPG,AFNE01.JPG,AFNE01.JPG,,,,,,,,,1,4,14,5,,,,,,,,,,,,,,,AMNE19.jpg,AMSA17.jpg,AMSA07.jpg,AMNE13.jpg,AMNE13.jpg,MN,1,num_4,32,num_8,0.750212088584,,,2018_Feb_16_1723,60.0163428884,MAFE4ImagesEEG,001,202949,
AFNE01.JPG,AFNE01.JPG,AFNE01.JPG,AFNE01.JPG,AFNE01.JPG,AFNE01.JPG,,,,,,,,,1,5,15,7,,,,,,,,,,,,,,,AMSA06.jpg,AMNE09.jpg,AMSA14.jpg,AMNE06.jpg,AMSA06.jpg,MS,2,num_8,32,num_6,1.61678279018,,,2018_Feb_16_1723,60.0163428884,MAFE4ImagesEEG,001,202949,
AFNE01.JPG,AFNE01.JPG,AFNE01.JPG,AFNE01.JPG,AFNE01.JPG,AFNE01.JPG,,,,,,,,,1,6,16,2,,,,,,,,,,,,,,,AMNE10.jpg,AMSA09.jpg,AMNE11.jpg,AMSA06.jpg,AMSA06.jpg,MS,2,num_4,16,num_4,0.683509948198,,,2018_Feb_16_1723,60.0163428884,MAFE4ImagesEEG,001,202949,
AFNE01.JPG,AFNE01.JPG,AFNE01.JPG,AFNE01.JPG,AFNE01.JPG,AFNE01.JPG,,,,,,,,,1,7,17,9,,,,,,,,,,,,,,,AMSA08.jpg,AMNE01.jpg,AMSA20.jpg,AMNE08.jpg,AMSA20.jpg,MS,2,num_2,32,num_6,1.21669728119,,,2018_Feb_16_1723,60.0163428884,MAFE4ImagesEEG,001,202949,
AFNE01.JPG,AFNE01.JPG,AFNE01.JPG,AFNE01.JPG,AFNE01.JPG,AFNE01.JPG,,,,,,,,,1,8,18,4,,,,,,,,,,,,,,,AMNE10.jpg,AMNE05.jpg,AMSA05.jpg,AMSA17.jpg,AMNE10.jpg,MN,1,num_8,32,num_6,0.300035185055,,,2018_Feb_16_1723,60.0163428884,MAFE4ImagesEEG,001,202949,
AFNE01.JPG,AFNE01.JPG,AFNE01.JPG,AFNE01.JPG,AFNE01.JPG,AFNE01.JPG,,,,,,,,,1,9,19,0,,,,,,,,,,,,,,,AMNE17.jpg,AMNE02.jpg,AMSA17.jpg,AMSA15.jpg,AMSA17.jpg,MS,2,num_2,32,num_6,0.316822978761,,,2018_Feb_16_1723,60.0163428884,MAFE4ImagesEEG,001,202949,
AFNE01.JPG,AFNE01.JPG,AFNE01.JPG,AFNE01.JPG,AFNE01.JPG,AFNE01.JPG,,,,,,,,,2,0,20,8,,,,,,,,,,,,,,,AMNE01.jpg,AMSA12.jpg,AMSA20.jpg,AMNE11.jpg,AMNE01.jpg,MN,1,num_8,32,num_4,0.38351293107,,,2018_Feb_16_1723,60.0163428884,MAFE4ImagesEEG,001,202949,
AFNE01.JPG,AFNE01.JPG,AFNE01.JPG,AFNE01.JPG,AFNE01.JPG,AFNE01.JPG,,,,,,,,,2,1,21,0,,,,,,,,,,,,,,,AMNE08.jpg,AMSA09.jpg,AMSA04.jpg,AMNE11.jpg,AMNE11.jpg,MN,1,num_4,32,num_6,0.316815601765,,,2018_Feb_16_1723,60.0163428884,MAFE4ImagesEEG,001,202949,
AFNE01.JPG,AFNE01.JPG,AFNE01.JPG,AFNE01.JPG,AFNE01.JPG,AFNE01.JPG,,,,,,,,,2,2,22,7,,,,,,,,,,,,,,,AMNE15.jpg,AMSA03.jpg,AMSA09.jpg,AMNE10.jpg,AMSA03.jpg,MS,2,num_6,32,num_4,0.95011067095,,,2018_Feb_16_1723,60.0163428884,MAFE4ImagesEEG,001,202949,
AFNE01.JPG,AFNE01.JPG,AFNE01.JPG,AFNE01.JPG,AFNE01.JPG,AFNE01.JPG,,,,,,,,,2,3,23,3,,,,,,,,,,,,,,,AMNE01.jpg,AMNE08.jpg,AMSA10.jpg,AMSA17.jpg,AMSA17.jpg,MS,2,num_4,16,num_4,0.733530459449,,,2018_Feb_16_1723,60.0163428884,MAFE4ImagesEEG,001,202949,
AFNE01.JPG,AFNE01.JPG,AFNE01.JPG,AFNE01.JPG,AFNE01.JPG,AFNE01.JPG,,,,,,,,,2,4,24,9,,,,,,,,,,,,,,,AMSA12.jpg,AMNE10.jpg,AMSA02.jpg,AMNE19.jpg,AMSA02.jpg,MS,2,num_2,16,num_2,2.08336003485,,,2018_Feb_16_1723,60.0163428884,MAFE4ImagesEEG,001,202949,
AFNE01.JPG,AFNE01.JPG,AFNE01.JPG,AFNE01.JPG,AFNE01.JPG,AFNE01.JPG,,,,,,,,,2,5,25,5,,,,,,,,,,,,,,,AMNE20.jpg,AMNE02.jpg,AMSA08.jpg,AMSA04.jpg,AMNE02.jpg,MN,1,num_6,32,num_4,3.76664931469,,,2018_Feb_16_1723,60.0163428884,MAFE4ImagesEEG,001,202949,
AFNE01.JPG,AFNE01.JPG,AFNE01.JPG,AFNE01.JPG,AFNE01.JPG,AFNE01.JPG,,,,,,,,,2,6,26,6,,,,,,,,,,,,,,,AMNE17.jpg,AMNE13.jpg,AMSA17.jpg,AMSA08.jpg,AMNE17.jpg,MN,1,num_8,32,num_6,0.86679457733,,,2018_Feb_16_1723,60.0163428884,MAFE4ImagesEEG,001,202949,
AFNE01.JPG,AFNE01.JPG,AFNE01.JPG,AFNE01.JPG,AFNE01.JPG,AFNE01.JPG,,,,,,,,,2,7,27,1,,,,,,,,,,,,,,,AMNE09.jpg,AMSA11.jpg,AMNE05.jpg,AMSA19.jpg,AMSA11.jpg,MS,2,num_6,16,num_6,1.10022512662,,,2018_Feb_16_1723,60.0163428884,MAFE4ImagesEEG,001,202949,
AFNE01.JPG,AFNE01.JPG,AFNE01.JPG,AFNE01.JPG,AFNE01.JPG,AFNE01.JPG,,,,,,,,,2,8,28,2,,,,,,,,,,,,,,,AMSA07.jpg,AMNE06.jpg,AMNE04.jpg,AMSA19.jpg,AMSA19.jpg,MS,2,num_4,32,num_6,1.10008945407,,,2018_Feb_16_1723,60.0163428884,MAFE4ImagesEEG,001,202949,
AFNE01.JPG,AFNE01.JPG,AFNE01.JPG,AFNE01.JPG,AFNE01.JPG,AFNE01.JPG,,,,,,,,,2,9,29,4,,,,,,,,,,,,,,,AMSA02.jpg,AMSA16.jpg,AMNE16.jpg,AMNE20.jpg,AMNE20.jpg,MN,1,num_4,16,num_4,0.68347498766,,,2018_Feb_16_1723,60.0163428884,MAFE4ImagesEEG,001,202949,
AFNE01.JPG,AFNE01.JPG,AFNE01.JPG,AFNE01.JPG,AFNE01.JPG,AFNE01.JPG,,,,,,,,,3,0,30,1,,,,,,,,,,,,,,,AMNE13.jpg,AMSA07.jpg,AMNE11.jpg,AMSA17.jpg,AMNE13.jpg,MN,1,num_8,32,num_6,0.0668455106661,,,2018_Feb_16_1723,60.0163428884,MAFE4ImagesEEG,001,202949,
AFNE01.JPG,AFNE01.JPG,AFNE01.JPG,AFNE01.JPG,AFNE01.JPG,AFNE01.JPG,,,,,,,,,3,1,31,2,,,,,,,,,,,,,,,AMSA08.jpg,AMSA16.jpg,AMNE03.jpg,AMNE02.jpg,AMSA16.jpg,MS,2,num_6,16,num_6,0.816759312092,,,2018_Feb_16_1723,60.0163428884,MAFE4ImagesEEG,001,202949,
AFNE01.JPG,AFNE01.JPG,AFNE01.JPG,AFNE01.JPG,AFNE01.JPG,AFNE01.JPG,,,,,,,,,3,2,32,0,,,,,,,,,,,,,,,AMNE12.jpg,AMSA15.jpg,AMSA02.jpg,AMNE03.jpg,AMSA15.jpg,MS,2,num_6,16,num_6,0.316869806637,,,2018_Feb_16_1723,60.0163428884,MAFE4ImagesEEG,001,202949,
AFNE01.JPG,AFNE01.JPG,AFNE01.JPG,AFNE01.JPG,AFNE01.JPG,AFNE01.JPG,,,,,,,,,3,3,33,7,,,,,,,,,,,,,,,AMNE16.jpg,AMSA07.jpg,AMNE19.jpg,AMSA13.jpg,AMSA13.jpg,MS,2,num_4,32,num_6,0.216838085562,,,2018_Feb_16_1723,60.0163428884,MAFE4ImagesEEG,001,202949,
AFNE01.JPG,AFNE01.JPG,AFNE01.JPG,AFNE01.JPG,AFNE01.JPG,AFNE01.JPG,,,,,,,,,3,4,34,6,,,,,,,,,,,,,,,AMNE07.jpg,AMSA20.jpg,AMSA10.jpg,AMNE05.jpg,AMNE07.jpg,MN,1,num_8,16,num_8,0.816810951052,,,2018_Feb_16_1723,60.0163428884,MAFE4ImagesEEG,001,202949,
AFNE01.JPG,AFNE01.JPG,AFNE01.JPG,AFNE01.JPG,AFNE01.JPG,AFNE01.JPG,,,,,,,,,3,5,35,3,,,,,,,,,,,,,,,AMNE18.jpg,AMSA19.jpg,AMSA05.jpg,AMNE20.jpg,AMSA05.jpg,MS,2,num_2,32,num_4,0.400196805378,,,2018_Feb_16_1723,60.0163428884,MAFE4ImagesEEG,001,202949,
AFNE01.JPG,AFNE01.JPG,AFNE01.JPG,AFNE01.JPG,AFNE01.JPG,AFNE01.JPG,,,,,,,,,3,6,36,9,,,,,,,,,,,,,,,AMSA03.jpg,AMNE16.jpg,AMNE19.jpg,AMSA09.jpg,AMSA03.jpg,MS,2,num_8,32,num_2,1.03348610126,,,2018_Feb_16_1723,60.0163428884,MAFE4ImagesEEG,001,202949,
AFNE01.JPG,AFNE01.JPG,AFNE01.JPG,AFNE01.JPG,AFNE01.JPG,AFNE01.JPG,,,,,,,,,3,7,37,4,,,,,,,,,,,,,,,AMSA07.jpg,AMNE19.jpg,AMNE12.jpg,AMSA16.jpg,AMSA16.jpg,MS,2,num_4,32,num_8,0.550219529725,,,2018_Feb_16_1723,60.0163428884,MAFE4ImagesEEG,001,202949,
AFNE01.JPG,AFNE01.JPG,AFNE01.JPG,AFNE01.JPG,AFNE01.JPG,AFNE01.JPG,,,,,,,,,3,8,38,8,,,,,,,,,,,,,,,AMNE01.jpg,AMSA14.jpg,AMNE12.jpg,AMSA17.jpg,AMNE01.jpg,MN,1,num_8,16,num_8,0.43349880252,,,2018_Feb_16_1723,60.0163428884,MAFE4ImagesEEG,001,202949,
AFNE01.JPG,AFNE01.JPG,AFNE01.JPG,AFNE01.JPG,AFNE01.JPG,AFNE01.JPG,,,,,,,,,3,9,39,5,,,,,,,,,,,,,,,AMSA20.jpg,AMSA15.jpg,AMNE19.jpg,AMNE02.jpg,AMSA15.jpg,MS,2,num_6,16,num_6,0.600165308819,,,2018_Feb_16_1723,60.0163428884,MAFE4ImagesEEG,001,202949,
AFNE01.JPG,AFNE01.JPG,AFNE01.JPG,AFNE01.JPG,AFNE01.JPG,AFNE01.JPG,,,,,,,,,4,0,40,0,,,,,,,,,,,,,,,AMSA16.jpg,AMSA13.jpg,AMNE02.jpg,AMNE09.jpg,AMNE09.jpg,MN,1,num_4,32,num_6,0.916766977751,,,2018_Feb_16_1723,60.0163428884,MAFE4ImagesEEG,001,202949,
AFNE01.JPG,AFNE01.JPG,AFNE01.JPG,AFNE01.JPG,AFNE01.JPG,AFNE01.JPG,,,,,,,,,4,1,41,2,,,,,,,,,,,,,,,AMNE16.jpg,AMSA08.jpg,AMSA10.jpg,AMNE14.jpg,AMNE14.jpg,MN,1,num_4,16,num_4,0.600148951135,,,2018_Feb_16_1723,60.0163428884,MAFE4ImagesEEG,001,202949,
AFNE01.JPG,AFNE01.JPG,AFNE01.JPG,AFNE01.JPG,AFNE01.JPG,AFNE01.JPG,,,,,,,,,4,2,42,9,,,,,,,,,,,,,,,AMSA16.jpg,AMNE09.jpg,AMSA03.jpg,AMNE16.jpg,AMSA03.jpg,MS,2,num_2,32,num_8,1.43340771268,,,2018_Feb_16_1723,60.0163428884,MAFE4ImagesEEG,001,202949,
AFNE01.JPG,AFNE01.JPG,AFNE01.JPG,AFNE01.JPG,AFNE01.JPG,AFNE01.JPG,,,,,,,,,4,3,43,7,,,,,,,,,,,,,,,AMSA07.jpg,AMNE17.jpg,AMSA17.jpg,AMNE05.jpg,AMNE05.jpg,MN,1,num_4,16,num_4,1.03346589471,,,2018_Feb_16_1723,60.0163428884,MAFE4ImagesEEG,001,202949,
AFNE01.JPG,AFNE01.JPG,AFNE01.JPG,AFNE01.JPG,AFNE01.JPG,AFNE01.JPG,,,,,,,,,4,4,44,4,,,,,,,,,,,,,,,AMNE09.jpg,AMSA08.jpg,AMSA11.jpg,AMNE04.jpg,AMSA11.jpg,MS,2,num_2,32,num_4,0.750110414359,,,2018_Feb_16_1723,60.0163428884,MAFE4ImagesEEG,001,202949,
AFNE01.JPG,AFNE01.JPG,AFNE01.JPG,AFNE01.JPG,AFNE01.JPG,AFNE01.JPG,,,,,,,,,4,5,45,1,,,,,,,,,,,,,,,AMNE07.jpg,AMSA02.jpg,AMNE20.jpg,AMSA20.jpg,AMSA20.jpg,MS,2,num_4,32,num_6,4.14970711729,,,2018_Feb_16_1723,60.0163428884,MAFE4ImagesEEG,001,202949,
AFNE01.JPG,AFNE01.JPG,AFNE01.JPG,AFNE01.JPG,AFNE01.JPG,AFNE01.JPG,,,,,,,,,4,6,46,5,,,,,,,,,,,,,,,AMSA08.jpg,AMNE17.jpg,AMNE14.jpg,AMSA14.jpg,AMNE17.jpg,MN,1,num_6,32,num_8,2.0500926775,,,2018_Feb_16_1723,60.0163428884,MAFE4ImagesEEG,001,202949,
AFNE01.JPG,AFNE01.JPG,AFNE01.JPG,AFNE01.JPG,AFNE01.JPG,AFNE01.JPG,,,,,,,,,4,7,47,3,,,,,,,,,,,,,,,AMSA01.jpg,AMNE20.jpg,AMSA02.jpg,AMNE15.jpg,AMSA02.jpg,MS,2,num_2,16,num_2,1.11683106138,,,2018_Feb_16_1723,60.0163428884,MAFE4ImagesEEG,001,202949,
AFNE01.JPG,AFNE01.JPG,AFNE01.JPG,AFNE01.JPG,AFNE01.JPG,AFNE01.JPG,,,,,,,,,4,8,48,6,,,,,,,,,,,,,,,AMSA12.jpg,AMNE20.jpg,AMSA14.jpg,AMNE18.jpg,AMSA12.jpg,MS,2,num_8,32,num_4,0.883503469273,,,2018_Feb_16_1723,60.0163428884,MAFE4ImagesEEG,001,202949,
AFNE01.JPG,AFNE01.JPG,AFNE01.JPG,AFNE01.JPG,AFNE01.JPG,AFNE01.JPG,,,,,,,,,4,9,49,8,,,,,,,,,,,,,,,AMSA05.jpg,AMNE08.jpg,AMSA08.jpg,AMNE18.jpg,AMSA08.jpg,MS,2,num_2,32,num_8,1.60015536591,,,2018_Feb_16_1723,60.0163428884,MAFE4ImagesEEG,001,202949,
AFNE01.JPG,AFNE01.JPG,AFNE01.JPG,AFNE01.JPG,AFNE01.JPG,AFNE01.JPG,,,,,,,,,5,0,50,2,,,,,,,,,,,,,,,AMNE19.jpg,AMNE04.jpg,AMSA13.jpg,AMSA02.jpg,AMNE19.jpg,MN,1,num_8,32,num_6,1.08343733291,,,2018_Feb_16_1723,60.0163428884,MAFE4ImagesEEG,001,202949,
AFNE01.JPG,AFNE01.JPG,AFNE01.JPG,AFNE01.JPG,AFNE01.JPG,AFNE01.JPG,,,,,,,,,5,1,51,0,,,,,,,,,,,,,,,AMSA18.jpg,AMSA06.jpg,AMNE12.jpg,AMNE17.jpg,AMNE17.jpg,MN,1,num_4,16,num_4,0.483490126535,,,2018_Feb_16_1723,60.0163428884,MAFE4ImagesEEG,001,202949,
AFNE01.JPG,AFNE01.JPG,AFNE01.JPG,AFNE01.JPG,AFNE01.JPG,AFNE01.JPG,,,,,,,,,5,2,52,8,,,,,,,,,,,,,,,AMSA07.jpg,AMSA11.jpg,AMNE14.jpg,AMNE09.jpg,AMNE09.jpg,MN,1,num_4,32,num_6,1.26672645239,,,2018_Feb_16_1723,60.0163428884,MAFE4ImagesEEG,001,202949,
AFNE01.JPG,AFNE01.JPG,AFNE01.JPG,AFNE01.JPG,AFNE01.JPG,AFNE01.JPG,,,,,,,,,5,3,53,6,,,,,,,,,,,,,,,AMNE10.jpg,AMNE15.jpg,AMSA10.jpg,AMSA18.jpg,AMSA10.jpg,MS,2,num_2,16,num_2,1.13342320437,,,2018_Feb_16_1723,60.0163428884,MAFE4ImagesEEG,001,202949,
AFNE01.JPG,AFNE01.JPG,AFNE01.JPG,AFNE01.JPG,AFNE01.JPG,AFNE01.JPG,,,,,,,,,5,4,54,3,,,,,,,,,,,,,,,AMSA09.jpg,AMSA05.jpg,AMNE19.jpg,AMNE09.jpg,AMSA05.jpg,MS,2,num_6,32,num_4,0.316829072797,,,2018_Feb_16_1723,60.0163428884,MAFE4ImagesEEG,001,202949,
AFNE01.JPG,AFNE01.JPG,AFNE01.JPG,AFNE01.JPG,AFNE01.JPG,AFNE01.JPG,,,,,,,,,5,5,55,4,,,,,,,,,,,,,,,AMNE04.jpg,AMSA15.jpg,AMSA05.jpg,AMNE09.jpg,AMNE04.jpg,MN,1,num_8,16,num_8,0.666836016795,,,2018_Feb_16_1723,60.0163428884,MAFE4ImagesEEG,001,202949,
AFNE01.JPG,AFNE01.JPG,AFNE01.JPG,AFNE01.JPG,AFNE01.JPG,AFNE01.JPG,,,,,,,,,5,6,56,1,,,,,,,,,,,,,,,AMSA12.jpg,AMNE08.jpg,AMNE01.jpg,AMSA13.jpg,AMNE01.jpg,MN,1,num_2,16,num_2,1.20008493166,,,2018_Feb_16_1723,60.0163428884,MAFE4ImagesEEG,001,202949,
AFNE01.JPG,AFNE01.JPG,AFNE01.JPG,AFNE01.JPG,AFNE01.JPG,AFNE01.JPG,,,,,,,,,5,7,57,5,,,,,,,,,,,,,,,AMSA20.jpg,AMNE10.jpg,AMNE11.jpg,AMSA14.jpg,AMNE11.jpg,MN,1,num_2,16,num_2,1.51678410521,,,2018_Feb_16_1723,60.0163428884,MAFE4ImagesEEG,001,202949,
AFNE01.JPG,AFNE01.JPG,AFNE01.JPG,AFNE01.JPG,AFNE01.JPG,AFNE01.JPG,,,,,,,,,5,8,58,9,,,,,,,,,,,,,,,AMNE04.jpg,AMSA13.jpg,AMNE14.jpg,AMSA01.jpg,AMSA01.jpg,MS,2,num_4,16,num_4,0.91675575189,,,2018_Feb_16_1723,60.0163428884,MAFE4ImagesEEG,001,202949,
AFNE01.JPG,AFNE01.JPG,AFNE01.JPG,AFNE01.JPG,AFNE01.JPG,AFNE01.JPG,,,,,,,,,5,9,59,7,,,,,,,,,,,,,,,AMSA07.jpg,AMNE04.jpg,AMNE01.jpg,AMSA13.jpg,AMSA13.jpg,MS,2,num_4,16,num_4,1.01663319756,,,2018_Feb_16_1723,60.0163428884,MAFE4ImagesEEG,001,202949,
,,,,,,,,,,,,,,,,,,,,,,,,,,,,,,,,,,,,,,,,,,,space,4.11651994467,2018_Feb_16_1723,60.0163428884,MAFE4ImagesEEG,001,202949,
AFNE01.JPG,AFNE01.JPG,AFNE01.JPG,AFNE01.JPG,AFNE01.JPG,AFNE01.JPG,,,,,,,,,,,,,0,0,0,7,,,,,,,,,,,AFNE13.jpg,AFSA08.jpg,AFSA18.jpg,AFNE12.jpg,AFSA18.jpg,FS,4,num_2,32,num_6,0.550091875652,,,2018_Feb_16_1723,60.0163428884,MAFE4ImagesEEG,001,202949,
AFNE01.JPG,AFNE01.JPG,AFNE01.JPG,AFNE01.JPG,AFNE01.JPG,AFNE01.JPG,,,,,,,,,,,,,0,1,1,1,,,,,,,,,,,AFNE20.jpg,AFSA02.jpg,AFSA15.jpg,AFNE12.jpg,AFSA02.jpg,FS,4,num_6,16,num_6,1.28346421083,,,2018_Feb_16_1723,60.0163428884,MAFE4ImagesEEG,001,202949,
AFNE01.JPG,AFNE01.JPG,AFNE01.JPG,AFNE01.JPG,AFNE01.JPG,AFNE01.JPG,,,,,,,,,,,,,0,2,2,4,,,,,,,,,,,AFNE12.jpg,AFNE13.jpg,AFSA06.jpg,AFSA08.jpg,AFSA06.jpg,FS,4,num_2,32,num_6,0.86676635231,,,2018_Feb_16_1723,60.0163428884,MAFE4ImagesEEG,001,202949,
AFNE01.JPG,AFNE01.JPG,AFNE01.JPG,AFNE01.JPG,AFNE01.JPG,AFNE01.JPG,,,,,,,,,,,,,0,3,3,3,,,,,,,,,,,AFSA13.jpg,AFNE02.jpg,AFSA09.jpg,AFNE20.jpg,AFNE02.jpg,FN,3,num_6,16,num_6,0.600118160202,,,2018_Feb_16_1723,60.0163428884,MAFE4ImagesEEG,001,202949,
AFNE01.JPG,AFNE01.JPG,AFNE01.JPG,AFNE01.JPG,AFNE01.JPG,AFNE01.JPG,,,,,,,,,,,,,0,4,4,8,,,,,,,,,,,AFSA14.jpg,AFNE16.jpg,AFNE20.jpg,AFSA15.jpg,AFNE16.jpg,FN,3,num_6,32,num_2,1.28339974232,,,2018_Feb_16_1723,60.0163428884,MAFE4ImagesEEG,001,202949,
AFNE01.JPG,AFNE01.JPG,AFNE01.JPG,AFNE01.JPG,AFNE01.JPG,AFNE01.JPG,,,,,,,,,,,,,0,5,5,2,,,,,,,,,,,AFNE02.jpg,AFSA09.jpg,AFSA01.jpg,AFNE15.jpg,AFSA09.jpg,FS,4,num_6,32,num_8,0.833488089842,,,2018_Feb_16_1723,60.0163428884,MAFE4ImagesEEG,001,202949,
AFNE01.JPG,AFNE01.JPG,AFNE01.JPG,AFNE01.JPG,AFNE01.JPG,AFNE01.JPG,,,,,,,,,,,,,0,6,6,9,,,,,,,,,,,AFNE01.jpg,AFNE18.jpg,AFSA15.jpg,AFSA06.jpg,AFSA15.jpg,FS,4,num_2,32,num_6,1.41674276196,,,2018_Feb_16_1723,60.0163428884,MAFE4ImagesEEG,001,202949,
AFNE01.JPG,AFNE01.JPG,AFNE01.JPG,AFNE01.JPG,AFNE01.JPG,AFNE01.JPG,,,,,,,,,,,,,0,7,7,6,,,,,,,,,,,AFNE05.jpg,AFSA06.jpg,AFSA09.jpg,AFNE20.jpg,AFNE05.jpg,FN,3,num_8,32,num_4,0.96679422452,,,2018_Feb_16_1723,60.0163428884,MAFE4ImagesEEG,001,202949,
AFNE01.JPG,AFNE01.JPG,AFNE01.JPG,AFNE01.JPG,AFNE01.JPG,AFNE01.JPG,,,,,,,,,,,,,0,8,8,0,,,,,,,,,,,AFSA11.jpg,AFNE14.jpg,AFSA18.jpg,AFNE12.jpg,AFSA11.jpg,FS,4,num_8,16,num_8,0.983532303699,,,2018_Feb_16_1723,60.0163428884,MAFE4ImagesEEG,001,202949,
AFNE01.JPG,AFNE01.JPG,AFNE01.JPG,AFNE01.JPG,AFNE01.JPG,AFNE01.JPG,,,,,,,,,,,,,0,9,9,5,,,,,,,,,,,AFNE06.jpg,AFSA14.jpg,AFSA13.jpg,AFNE09.jpg,AFSA14.jpg,FS,4,num_6,16,num_6,1.00012380521,,,2018_Feb_16_1723,60.0163428884,MAFE4ImagesEEG,001,202949,
AFNE01.JPG,AFNE01.JPG,AFNE01.JPG,AFNE01.JPG,AFNE01.JPG,AFNE01.JPG,,,,,,,,,,,,,1,0,10,6,,,,,,,,,,,AFSA07.jpg,AFSA20.jpg,AFNE09.jpg,AFNE14.jpg,AFSA20.jpg,FS,4,num_6,16,num_6,0.850155927206,,,2018_Feb_16_1723,60.0163428884,MAFE4ImagesEEG,001,202949,
AFNE01.JPG,AFNE01.JPG,AFNE01.JPG,AFNE01.JPG,AFNE01.JPG,AFNE01.JPG,,,,,,,,,,,,,1,1,11,0,,,,,,,,,,,AFSA12.jpg,AFSA04.jpg,AFNE02.jpg,AFNE06.jpg,AFSA12.jpg,FS,4,num_8,16,num_8,1.25007689715,,,2018_Feb_16_1723,60.0163428884,MAFE4ImagesEEG,001,202949,
AFNE01.JPG,AFNE01.JPG,AFNE01.JPG,AFNE01.JPG,AFNE01.JPG,AFNE01.JPG,,,,,,,,,,,,,1,2,12,9,,,,,,,,,,,AFNE06.jpg,AFSA01.jpg,AFNE04.jpg,AFSA16.jpg,AFNE06.jpg,FN,3,num_8,16,num_8,0.933466247525,,,2018_Feb_16_1723,60.0163428884,MAFE4ImagesEEG,001,202949,
AFNE01.JPG,AFNE01.JPG,AFNE01.JPG,AFNE01.JPG,AFNE01.JPG,AFNE01.JPG,,,,,,,,,,,,,1,3,13,3,,,,,,,,,,,AFNE02.jpg,AFSA20.jpg,AFNE04.jpg,AFSA07.jpg,AFSA20.jpg,FS,4,num_6,16,num_6,1.09999772275,,,2018_Feb_16_1723,60.0163428884,MAFE4ImagesEEG,001,202949,
AFNE01.JPG,AFNE01.JPG,AFNE01.JPG,AFNE01.JPG,AFNE01.JPG,AFNE01.JPG,,,,,,,,,,,,,1,4,14,4,,,,,,,,,,,AFNE17.jpg,AFNE01.jpg,AFSA19.jpg,AFSA17.jpg,AFNE01.jpg,FN,3,num_6,16,num_6,1.33344430899,,,2018_Feb_16_1723,60.0163428884,MAFE4ImagesEEG,001,202949,
AFNE01.JPG,AFNE01.JPG,AFNE01.JPG,AFNE01.JPG,AFNE01.JPG,AFNE01.JPG,,,,,,,,,,,,,1,5,15,2,,,,,,,,,,,AFNE20.jpg,AFSA18.jpg,AFSA15.jpg,AFNE12.jpg,AFNE20.jpg,FN,3,num_8,16,num_8,1.01663768791,,,2018_Feb_16_1723,60.0163428884,MAFE4ImagesEEG,001,202949,
AFNE01.JPG,AFNE01.JPG,AFNE01.JPG,AFNE01.JPG,AFNE01.JPG,AFNE01.JPG,,,,,,,,,,,,,1,6,16,5,,,,,,,,,,,AFNE07.jpg,AFNE03.jpg,AFSA17.jpg,AFSA10.jpg,AFSA17.jpg,FS,4,num_2,32,num_6,0.666777321581,,,2018_Feb_16_1723,60.0163428884,MAFE4ImagesEEG,001,202949,
AFNE01.JPG,AFNE01.JPG,AFNE01.JPG,AFNE01.JPG,AFNE01.JPG,AFNE01.JPG,,,,,,,,,,,,,1,7,17,8,,,,,,,,,,,AFNE12.jpg,AFSA17.jpg,AFNE10.jpg,AFSA13.jpg,AFNE10.jpg,FN,3,num_2,32,num_8,0.916829521831,,,2018_Feb_16_1723,60.0163428884,MAFE4ImagesEEG,001,202949,
AFNE01.JPG,AFNE01.JPG,AFNE01.JPG,AFNE01.JPG,AFNE01.JPG,AFNE01.JPG,,,,,,,,,,,,,1,8,18,1,,,,,,,,,,,AFSA03.jpg,AFNE04.jpg,AFSA15.jpg,AFNE20.jpg,AFSA15.jpg,FS,4,num_2,32,num_6,0.983469438877,,,2018_Feb_16_1723,60.0163428884,MAFE4ImagesEEG,001,202949,
AFNE01.JPG,AFNE01.JPG,AFNE01.JPG,AFNE01.JPG,AFNE01.JPG,AFNE01.JPG,,,,,,,,,,,,,1,9,19,7,,,,,,,,,,,AFNE18.jpg,AFSA09.jpg,AFNE11.jpg,AFSA06.jpg,AFNE18.jpg,FN,3,num_8,32,num_4,0.733714563565,,,2018_Feb_16_1723,60.0163428884,MAFE4ImagesEEG,001,202949,
AFNE01.JPG,AFNE01.JPG,AFNE01.JPG,AFNE01.JPG,AFNE01.JPG,AFNE01.JPG,,,,,,,,,,,,,2,0,20,9,,,,,,,,,,,AFSA15.jpg,AFSA19.jpg,AFNE02.jpg,AFNE16.jpg,AFNE02.jpg,FN,3,num_2,32,num_6,0.550147684218,,,2018_Feb_16_1723,60.0163428884,MAFE4ImagesEEG,001,202949,
AFNE01.JPG,AFNE01.JPG,AFNE01.JPG,AFNE01.JPG,AFNE01.JPG,AFNE01.JPG,,,,,,,,,,,,,2,1,21,7,,,,,,,,,,,AFNE20.jpg,AFNE02.jpg,AFSA15.jpg,AFSA02.jpg,AFSA02.jpg,FS,4,num_4,32,num_6,0.883413341648,,,2018_Feb_16_1723,60.0163428884,MAFE4ImagesEEG,001,202949,
AFNE01.JPG,AFNE01.JPG,AFNE01.JPG,AFNE01.JPG,AFNE01.JPG,AFNE01.JPG,,,,,,,,,,,,,2,2,22,5,,,,,,,,,,,AFSA13.jpg,AFNE14.jpg,AFSA10.jpg,AFNE20.jpg,AFNE20.jpg,FN,3,num_4,16,num_4,0.63347981478,,,2018_Feb_16_1723,60.0163428884,MAFE4ImagesEEG,001,202949,
AFNE01.JPG,AFNE01.JPG,AFNE01.JPG,AFNE01.JPG,AFNE01.JPG,AFNE01.JPG,,,,,,,,,,,,,2,3,23,1,,,,,,,,,,,AFNE09.jpg,AFSA18.jpg,AFNE20.jpg,AFSA11.jpg,AFSA18.jpg,FS,4,num_6,32,num_8,1.21678965399,,,2018_Feb_16_1723,60.0163428884,MAFE4ImagesEEG,001,202949,
AFNE01.JPG,AFNE01.JPG,AFNE01.JPG,AFNE01.JPG,AFNE01.JPG,AFNE01.JPG,,,,,,,,,,,,,2,4,24,3,,,,,,,,,,,AFSA05.jpg,AFNE11.jpg,AFNE13.jpg,AFSA12.jpg,AFNE13.jpg,FN,3,num_2,32,num_8,0.850120325191,,,2018_Feb_16_1723,60.0163428884,MAFE4ImagesEEG,001,202949,
AFNE01.JPG,AFNE01.JPG,AFNE01.JPG,AFNE01.JPG,AFNE01.JPG,AFNE01.JPG,,,,,,,,,,,,,2,5,25,2,,,,,,,,,,,AFSA09.jpg,AFNE05.jpg,AFSA04.jpg,AFNE04.jpg,AFNE05.jpg,FN,3,num_6,32,num_8,0.800097248028,,,2018_Feb_16_1723,60.0163428884,MAFE4ImagesEEG,001,202949,
AFNE01.JPG,AFNE01.JPG,AFNE01.JPG,AFNE01.JPG,AFNE01.JPG,AFNE01.JPG,,,,,,,,,,,,,2,6,26,8,,,,,,,,,,,AFNE11.jpg,AFSA02.jpg,AFSA03.jpg,AFNE17.jpg,AFNE11.jpg,FN,3,num_8,16,num_8,0.883440283713,,,2018_Feb_16_1723,60.0163428884,MAFE4ImagesEEG,001,202949,
AFNE01.JPG,AFNE01.JPG,AFNE01.JPG,AFNE01.JPG,AFNE01.JPG,AFNE01.JPG,,,,,,,,,,,,,2,7,27,6,,,,,,,,,,,AFNE02.jpg,AFSA14.jpg,AFSA20.jpg,AFNE10.jpg,AFNE02.jpg,FN,3,num_8,32,num_6,0.80018288531,,,2018_Feb_16_1723,60.0163428884,MAFE4ImagesEEG,001,202949,
AFNE01.JPG,AFNE01.JPG,AFNE01.JPG,AFNE01.JPG,AFNE01.JPG,AFNE01.JPG,,,,,,,,,,,,,2,8,28,0,,,,,,,,,,,AFNE14.jpg,AFSA07.jpg,AFSA15.jpg,AFNE07.jpg,AFNE14.jpg,FN,3,num_8,32,num_4,1.13345559899,,,2018_Feb_16_1723,60.0163428884,MAFE4ImagesEEG,001,202949,
AFNE01.JPG,AFNE01.JPG,AFNE01.JPG,AFNE01.JPG,AFNE01.JPG,AFNE01.JPG,,,,,,,,,,,,,2,9,29,4,,,,,,,,,,,AFNE05.jpg,AFSA01.jpg,AFSA17.jpg,AFNE13.jpg,AFNE05.jpg,FN,3,num_8,32,num_2,1.31674696365,,,2018_Feb_16_1723,60.0163428884,MAFE4ImagesEEG,001,202949,
AFNE01.JPG,AFNE01.JPG,AFNE01.JPG,AFNE01.JPG,AFNE01.JPG,AFNE01.JPG,,,,,,,,,,,,,3,0,30,5,,,,,,,,,,,AFNE20.jpg,AFSA14.jpg,AFSA20.jpg,AFNE05.jpg,AFNE05.jpg,FN,3,num_4,16,num_4,1.10012601831,,,2018_Feb_16_1723,60.0163428884,MAFE4ImagesEEG,001,202949,
AFNE01.JPG,AFNE01.JPG,AFNE01.JPG,AFNE01.JPG,AFNE01.JPG,AFNE01.JPG,,,,,,,,,,,,,3,1,31,1,,,,,,,,,,,AFNE11.jpg,AFSA09.jpg,AFNE07.jpg,AFSA18.jpg,AFSA09.jpg,FS,4,num_6,32,num_2,1.23348732007,,,2018_Feb_16_1723,60.0163428884,MAFE4ImagesEEG,001,202949,
AFNE01.JPG,AFNE01.JPG,AFNE01.JPG,AFNE01.JPG,AFNE01.JPG,AFNE01.JPG,,,,,,,,,,,,,3,2,32,9,,,,,,,,,,,AFSA15.jpg,AFSA17.jpg,AFNE10.jpg,AFNE06.jpg,AFSA15.jpg,FS,4,num_8,16,num_8,0.383330430648,,,2018_Feb_16_1723,60.0163428884,MAFE4ImagesEEG,001,202949,
AFNE01.JPG,AFNE01.JPG,AFNE01.JPG,AFNE01.JPG,AFNE01.JPG,AFNE01.JPG,,,,,,,,,,,,,3,3,33,3,,,,,,,,,,,AFSA10.jpg,AFSA08.jpg,AFNE02.jpg,AFNE19.jpg,AFNE02.jpg,FN,3,num_2,32,num_6,0.416877151556,,,2018_Feb_16_1723,60.0163428884,MAFE4ImagesEEG,001,202949,
AFNE01.JPG,AFNE01.JPG,AFNE01.JPG,AFNE01.JPG,AFNE01.JPG,AFNE01.JPG,,,,,,,,,,,,,3,4,34,0,,,,,,,,,,,AFNE14.jpg,AFSA08.jpg,AFSA02.jpg,AFNE07.jpg,AFSA08.jpg,FS,4,num_6,32,num_4,0.266856672379,,,2018_Feb_16_1723,60.0163428884,MAFE4ImagesEEG,001,202949,
AFNE01.JPG,AFNE01.JPG,AFNE01.JPG,AFNE01.JPG,AFNE01.JPG,AFNE01.JPG,,,,,,,,,,,,,3,5,35,4,,,,,,,,,,,AFSA15.jpg,AFSA06.jpg,AFNE08.jpg,AFNE19.jpg,AFNE19.jpg,FN,3,num_4,16,num_4,1.00014882284,,,2018_Feb_16_1723,60.0163428884,MAFE4ImagesEEG,001,202949,
AFNE01.JPG,AFNE01.JPG,AFNE01.JPG,AFNE01.JPG,AFNE01.JPG,AFNE01.JPG,,,,,,,,,,,,,3,6,36,6,,,,,,,,,,,AFNE08.jpg,AFSA07.jpg,AFNE01.jpg,AFSA02.jpg,AFNE08.jpg,FN,3,num_8,32,num_2,0.316817526198,,,2018_Feb_16_1723,60.0163428884,MAFE4ImagesEEG,001,202949,
AFNE01.JPG,AFNE01.JPG,AFNE01.JPG,AFNE01.JPG,AFNE01.JPG,AFNE01.JPG,,,,,,,,,,,,,3,7,37,7,,,,,,,,,,,AFNE01.jpg,AFNE02.jpg,AFSA10.jpg,AFSA16.jpg,AFSA10.jpg,FS,4,num_2,16,num_2,0.28351360462,,,2018_Feb_16_1723,60.0163428884,MAFE4ImagesEEG,001,202949,
AFNE01.JPG,AFNE01.JPG,AFNE01.JPG,AFNE01.JPG,AFNE01.JPG,AFNE01.JPG,,,,,,,,,,,,,3,8,38,2,,,,,,,,,,,AFNE17.jpg,AFSA12.jpg,AFSA05.jpg,AFNE05.jpg,AFSA05.jpg,FS,4,num_2,16,num_2,0.0501818429075,,,2018_Feb_16_1723,60.0163428884,MAFE4ImagesEEG,001,202949,
AFNE01.JPG,AFNE01.JPG,AFNE01.JPG,AFNE01.JPG,AFNE01.JPG,AFNE01.JPG,,,,,,,,,,,,,3,9,39,8,,,,,,,,,,,AFNE08.jpg,AFSA20.jpg,AFNE01.jpg,AFSA04.jpg,AFNE08.jpg,FN,3,num_8,32,num_2,1.04980208808,,,2018_Feb_16_1723,60.0163428884,MAFE4ImagesEEG,001,202949,
AFNE01.JPG,AFNE01.JPG,AFNE01.JPG,AFNE01.JPG,AFNE01.JPG,AFNE01.JPG,,,,,,,,,,,,,4,0,40,1,,,,,,,,,,,AFNE15.jpg,AFSA07.jpg,AFSA12.jpg,AFNE10.jpg,AFNE10.jpg,FN,3,num_4,32,num_6,1.48344458161,,,2018_Feb_16_1723,60.0163428884,MAFE4ImagesEEG,001,202949,
AFNE01.JPG,AFNE01.JPG,AFNE01.JPG,AFNE01.JPG,AFNE01.JPG,AFNE01.JPG,,,,,,,,,,,,,4,1,41,9,,,,,,,,,,,AFNE12.jpg,AFSA03.jpg,AFNE19.jpg,AFSA12.jpg,AFNE12.jpg,FN,3,num_8,16,num_8,1.21676207045,,,2018_Feb_16_1723,60.0163428884,MAFE4ImagesEEG,001,202949,
AFNE01.JPG,AFNE01.JPG,AFNE01.JPG,AFNE01.JPG,AFNE01.JPG,AFNE01.JPG,,,,,,,,,,,,,4,2,42,0,,,,,,,,,,,AFSA04.jpg,AFSA03.jpg,AFNE17.jpg,AFNE03.jpg,AFSA04.jpg,FS,4,num_8,32,num_4,0.933745290349,,,2018_Feb_16_1723,60.0163428884,MAFE4ImagesEEG,001,202949,
AFNE01.JPG,AFNE01.JPG,AFNE01.JPG,AFNE01.JPG,AFNE01.JPG,AFNE01.JPG,,,,,,,,,,,,,4,3,43,7,,,,,,,,,,,AFSA12.jpg,AFNE12.jpg,AFNE19.jpg,AFSA15.jpg,AFNE12.jpg,FN,3,num_6,32,num_8,0.966753490682,,,2018_Feb_16_1723,60.0163428884,MAFE4ImagesEEG,001,202949,
AFNE01.JPG,AFNE01.JPG,AFNE01.JPG,AFNE01.JPG,AFNE01.JPG,AFNE01.JPG,,,,,,,,,,,,,4,4,44,5,,,,,,,,,,,AFSA08.jpg,AFSA18.jpg,AFNE12.jpg,AFNE08.jpg,AFNE12.jpg,FN,3,num_2,32,num_6,0.533461564739,,,2018_Feb_16_1723,60.0163428884,MAFE4ImagesEEG,001,202949,
AFNE01.JPG,AFNE01.JPG,AFNE01.JPG,AFNE01.JPG,AFNE01.JPG,AFNE01.JPG,,,,,,,,,,,,,4,5,45,8,,,,,,,,,,,AFSA17.jpg,AFNE13.jpg,AFNE16.jpg,AFSA08.jpg,AFNE13.jpg,FN,3,num_6,32,num_2,0.883472678341,,,2018_Feb_16_1723,60.0163428884,MAFE4ImagesEEG,001,202949,
AFNE01.JPG,AFNE01.JPG,AFNE01.JPG,AFNE01.JPG,AFNE01.JPG,AFNE01.JPG,,,,,,,,,,,,,4,6,46,6,,,,,,,,,,,AFNE13.jpg,AFSA07.jpg,AFSA03.jpg,AFNE16.jpg,AFNE13.jpg,FN,3,num_8,16,num_8,0.383531854664,,,2018_Feb_16_1723,60.0163428884,MAFE4ImagesEEG,001,202949,
AFNE01.JPG,AFNE01.JPG,AFNE01.JPG,AFNE01.JPG,AFNE01.JPG,AFNE01.JPG,,,,,,,,,,,,,4,7,47,2,,,,,,,,,,,AFSA14.jpg,AFNE10.jpg,AFSA02.jpg,AFNE17.jpg,AFSA02.jpg,FS,4,num_2,16,num_2,0.916796806467,,,2018_Feb_16_1723,60.0163428884,MAFE4ImagesEEG,001,202949,
AFNE01.JPG,AFNE01.JPG,AFNE01.JPG,AFNE01.JPG,AFNE01.JPG,AFNE01.JPG,,,,,,,,,,,,,4,8,48,4,,,,,,,,,,,AFNE08.jpg,AFSA02.jpg,AFNE13.jpg,AFSA06.jpg,AFSA06.jpg,FS,4,num_4,32,num_8,1.20010481747,,,2018_Feb_16_1723,60.0163428884,MAFE4ImagesEEG,001,202949,
AFNE01.JPG,AFNE01.JPG,AFNE01.JPG,AFNE01.JPG,AFNE01.JPG,AFNE01.JPG,,,,,,,,,,,,,4,9,49,3,,,,,,,,,,,AFSA05.jpg,AFNE12.jpg,AFNE19.jpg,AFSA04.jpg,AFNE12.jpg,FN,3,num_6,16,num_6,0.916763128884,,,2018_Feb_16_1723,60.0163428884,MAFE4ImagesEEG,001,202949,
AFNE01.JPG,AFNE01.JPG,AFNE01.JPG,AFNE01.JPG,AFNE01.JPG,AFNE01.JPG,,,,,,,,,,,,,5,0,50,1,,,,,,,,,,,AFSA10.jpg,AFNE19.jpg,AFSA14.jpg,AFNE04.jpg,AFSA14.jpg,FS,4,num_2,16,num_2,0.850156889424,,,2018_Feb_16_1723,60.0163428884,MAFE4ImagesEEG,001,202949,
AFNE01.JPG,AFNE01.JPG,AFNE01.JPG,AFNE01.JPG,AFNE01.JPG,AFNE01.JPG,,,,,,,,,,,,,5,1,51,7,,,,,,,,,,,AFNE10.jpg,AFNE03.jpg,AFSA11.jpg,AFSA18.jpg,AFSA11.jpg,FS,4,num_2,16,num_2,1.11672104794,,,2018_Feb_16_1723,60.0163428884,MAFE4ImagesEEG,001,202949,
AFNE01.JPG,AFNE01.JPG,AFNE01.JPG,AFNE01.JPG,AFNE01.JPG,AFNE01.JPG,,,,,,,,,,,,,5,2,52,3,,,,,,,,,,,AFSA03.jpg,AFNE20.jpg,AFSA11.jpg,AFNE07.jpg,AFSA11.jpg,FS,4,num_2,16,num_2,0.650166575737,,,2018_Feb_16_1723,60.0163428884,MAFE4ImagesEEG,001,202949,
AFNE01.JPG,AFNE01.JPG,AFNE01.JPG,AFNE01.JPG,AFNE01.JPG,AFNE01.JPG,,,,,,,,,,,,,5,3,53,0,,,,,,,,,,,AFSA12.jpg,AFSA14.jpg,AFNE18.jpg,AFNE01.jpg,AFSA12.jpg,FS,4,num_8,16,num_8,0.616785356089,,,2018_Feb_16_1723,60.0163428884,MAFE4ImagesEEG,001,202949,
AFNE01.JPG,AFNE01.JPG,AFNE01.JPG,AFNE01.JPG,AFNE01.JPG,AFNE01.JPG,,,,,,,,,,,,,5,4,54,4,,,,,,,,,,,AFNE07.jpg,AFNE09.jpg,AFSA14.jpg,AFSA01.jpg,AFSA01.jpg,FS,4,num_4,16,num_4,0.416786703192,,,2018_Feb_16_1723,60.0163428884,MAFE4ImagesEEG,001,202949,
AFNE01.JPG,AFNE01.JPG,AFNE01.JPG,AFNE01.JPG,AFNE01.JPG,AFNE01.JPG,,,,,,,,,,,,,5,5,55,6,,,,,,,,,,,AFNE20.jpg,AFNE12.jpg,AFSA05.jpg,AFSA17.jpg,AFSA05.jpg,FS,4,num_2,32,num_4,0.450218599583,,,2018_Feb_16_1723,60.0163428884,MAFE4ImagesEEG,001,202949,
AFNE01.JPG,AFNE01.JPG,AFNE01.JPG,AFNE01.JPG,AFNE01.JPG,AFNE01.JPG,,,,,,,,,,,,,5,6,56,5,,,,,,,,,,,AFSA04.jpg,AFNE16.jpg,AFSA14.jpg,AFNE11.jpg,AFSA04.jpg,FS,4,num_8,32,num_2,1.41670619773,,,2018_Feb_16_1723,60.0163428884,MAFE4ImagesEEG,001,202949,
AFNE01.JPG,AFNE01.JPG,AFNE01.JPG,AFNE01.JPG,AFNE01.JPG,AFNE01.JPG,,,,,,,,,,,,,5,7,57,9,,,,,,,,,,,AFSA11.jpg,AFSA16.jpg,AFNE02.jpg,AFNE17.jpg,AFSA16.jpg,FS,4,num_6,32,num_8,0.700155975317,,,2018_Feb_16_1723,60.0163428884,MAFE4ImagesEEG,001,202949,
AFNE01.JPG,AFNE01.JPG,AFNE01.JPG,AFNE01.JPG,AFNE01.JPG,AFNE01.JPG,,,,,,,,,,,,,5,8,58,2,,,,,,,,,,,AFSA13.jpg,AFNE03.jpg,AFSA04.jpg,AFNE19.jpg,AFNE19.jpg,FN,3,num_4,32,num_6,0.583531469778,,,2018_Feb_16_1723,60.0163428884,MAFE4ImagesEEG,001,202949,
AFNE01.JPG,AFNE01.JPG,AFNE01.JPG,AFNE01.JPG,AFNE01.JPG,AFNE01.JPG,,,,,,,,,,,,,5,9,59,8,,,,,,,,,,,AFNE11.jpg,AFSA06.jpg,AFSA08.jpg,AFNE17.jpg,AFNE11.jpg,FN,3,num_8,16,num_8,0.883499620406,,,2018_Feb_16_1723,60.0163428884,MAFE4ImagesEEG,001,202949,
,,,,,,,,,,,,,,,,,,,,,,,,,,,,,,,,,,,,,,,,,,,space,2.43328358673,2018_Feb_16_1723,60.0163428884,MAFE4ImagesEEG,001,202949,
AFNE01.JPG,AFNE01.JPG,AFNE01.JPG,AFNE01.JPG,AFNE01.JPG,AFNE01.JPG,,,,,,,,,,,,,,,,,0,0,0,1,,,,,,,AMSA02.jpg,AMSA17.jpg,AMNE20.jpg,AMNE06.jpg,AMNE06.jpg,MN,1,num_4,32,num_8,1.13345912712,,,2018_Feb_16_1723,60.0163428884,MAFE4ImagesEEG,001,202949,
AFNE01.JPG,AFNE01.JPG,AFNE01.JPG,AFNE01.JPG,AFNE01.JPG,AFNE01.JPG,,,,,,,,,,,,,,,,,0,1,1,0,,,,,,,AMSA05.jpg,AMNE05.jpg,AMSA01.jpg,AMNE18.jpg,AMSA05.jpg,MS,2,num_8,16,num_8,0.616826731404,,,2018_Feb_16_1723,60.0163428884,MAFE4ImagesEEG,001,202949,
AFNE01.JPG,AFNE01.JPG,AFNE01.JPG,AFNE01.JPG,AFNE01.JPG,AFNE01.JPG,,,,,,,,,,,,,,,,,0,2,2,9,,,,,,,AMNE02.jpg,AMSA08.jpg,AMSA16.jpg,AMNE20.jpg,AMNE20.jpg,MN,1,num_4,16,num_4,1.11679128976,,,2018_Feb_16_1723,60.0163428884,MAFE4ImagesEEG,001,202949,
AFNE01.JPG,AFNE01.JPG,AFNE01.JPG,AFNE01.JPG,AFNE01.JPG,AFNE01.JPG,,,,,,,,,,,,,,,,,0,3,3,5,,,,,,,AMNE16.jpg,AMSA05.jpg,AMSA11.jpg,AMNE08.jpg,AMSA11.jpg,MS,2,num_2,16,num_2,1.11664246692,,,2018_Feb_16_1723,60.0163428884,MAFE4ImagesEEG,001,202949,
AFNE01.JPG,AFNE01.JPG,AFNE01.JPG,AFNE01.JPG,AFNE01.JPG,AFNE01.JPG,,,,,,,,,,,,,,,,,0,4,4,8,,,,,,,AMNE10.jpg,AMSA03.jpg,AMSA19.jpg,AMNE06.jpg,AMSA03.jpg,MS,2,num_6,16,num_6,0.666772831235,,,2018_Feb_16_1723,60.0163428884,MAFE4ImagesEEG,001,202949,
AFNE01.JPG,AFNE01.JPG,AFNE01.JPG,AFNE01.JPG,AFNE01.JPG,AFNE01.JPG,,,,,,,,,,,,,,,,,0,5,5,2,,,,,,,AMNE18.jpg,AMNE05.jpg,AMSA11.jpg,AMSA02.jpg,AMSA02.jpg,MS,2,num_4,16,num_4,0.583512225443,,,2018_Feb_16_1723,60.0163428884,MAFE4ImagesEEG,001,202949,
AFNE01.JPG,AFNE01.JPG,AFNE01.JPG,AFNE01.JPG,AFNE01.JPG,AFNE01.JPG,,,,,,,,,,,,,,,,,0,6,6,6,,,,,,,AMNE05.jpg,AMNE01.jpg,AMSA11.jpg,AMSA15.jpg,AMNE01.jpg,MN,1,num_6,16,num_6,0.650198970365,,,2018_Feb_16_1723,60.0163428884,MAFE4ImagesEEG,001,202949,
AFNE01.JPG,AFNE01.JPG,AFNE01.JPG,AFNE01.JPG,AFNE01.JPG,AFNE01.JPG,,,,,,,,,,,,,,,,,0,7,7,7,,,,,,,AMNE15.jpg,AMNE05.jpg,AMSA04.jpg,AMSA12.jpg,AMNE05.jpg,MN,1,num_6,32,num_4,0.766798779012,,,2018_Feb_16_1723,60.0163428884,MAFE4ImagesEEG,001,202949,
AFNE01.JPG,AFNE01.JPG,AFNE01.JPG,AFNE01.JPG,AFNE01.JPG,AFNE01.JPG,,,,,,,,,,,,,,,,,0,8,8,3,,,,,,,AMSA18.jpg,AMNE07.jpg,AMSA07.jpg,AMNE04.jpg,AMSA07.jpg,MS,2,num_2,32,num_8,0.583496829979,,,2018_Feb_16_1723,60.0163428884,MAFE4ImagesEEG,001,202949,
AFNE01.JPG,AFNE01.JPG,AFNE01.JPG,AFNE01.JPG,AFNE01.JPG,AFNE01.JPG,,,,,,,,,,,,,,,,,0,9,9,4,,,,,,,AMSA15.jpg,AMNE18.jpg,AMNE07.jpg,AMSA03.jpg,AMNE18.jpg,MN,1,num_6,32,num_2,1.35010605231,,,2018_Feb_16_1723,60.0163428884,MAFE4ImagesEEG,001,202949,
AFNE01.JPG,AFNE01.JPG,AFNE01.JPG,AFNE01.JPG,AFNE01.JPG,AFNE01.JPG,,,,,,,,,,,,,,,,,1,0,10,9,,,,,,,AMSA07.jpg,AMNE04.jpg,AMSA03.jpg,AMNE07.jpg,AMSA07.jpg,MS,2,num_8,32,num_6,2.13330613468,,,2018_Feb_16_1723,60.0163428884,MAFE4ImagesEEG,001,202949,
AFNE01.JPG,AFNE01.JPG,AFNE01.JPG,AFNE01.JPG,AFNE01.JPG,AFNE01.JPG,,,,,,,,,,,,,,,,,1,1,11,5,,,,,,,AMSA16.jpg,AMSA07.jpg,AMNE01.jpg,AMNE03.jpg,AMSA16.jpg,MS,2,num_8,32,num_6,0.416821342991,,,2018_Feb_16_1723,60.0163428884,MAFE4ImagesEEG,001,202949,
AFNE01.JPG,AFNE01.JPG,AFNE01.JPG,AFNE01.JPG,AFNE01.JPG,AFNE01.JPG,,,,,,,,,,,,,,,,,1,2,12,3,,,,,,,AMSA10.jpg,AMNE10.jpg,AMNE01.jpg,AMSA19.jpg,AMSA19.jpg,MS,2,num_4,32,num_6,0.183543786148,,,2018_Feb_16_1723,60.0163428884,MAFE4ImagesEEG,001,202949,
AFNE01.JPG,AFNE01.JPG,AFNE01.JPG,AFNE01.JPG,AFNE01.JPG,AFNE01.JPG,,,,,,,,,,,,,,,,,1,3,13,6,,,,,,,AMSA19.jpg,AMNE07.jpg,AMNE11.jpg,AMSA01.jpg,AMSA01.jpg,MS,2,num_4,16,num_4,0.81678304677,,,2018_Feb_16_1723,60.0163428884,MAFE4ImagesEEG,001,202949,
AFNE01.JPG,AFNE01.JPG,AFNE01.JPG,AFNE01.JPG,AFNE01.JPG,AFNE01.JPG,,,,,,,,,,,,,,,,,1,4,14,4,,,,,,,AMSA18.jpg,AMNE16.jpg,AMNE19.jpg,AMSA12.jpg,AMSA18.jpg,MS,2,num_8,32,num_6,1.33344719564,,,2018_Feb_16_1723,60.0163428884,MAFE4ImagesEEG,001,202949,
AFNE01.JPG,AFNE01.JPG,AFNE01.JPG,AFNE01.JPG,AFNE01.JPG,AFNE01.JPG,,,,,,,,,,,,,,,,,1,5,15,7,,,,,,,AMSA13.jpg,AMSA19.jpg,AMNE19.jpg,AMNE20.jpg,AMSA13.jpg,MS,2,num_8,32,num_6,1.33341768766,,,2018_Feb_16_1723,60.0163428884,MAFE4ImagesEEG,001,202949,
AFNE01.JPG,AFNE01.JPG,AFNE01.JPG,AFNE01.JPG,AFNE01.JPG,AFNE01.JPG,,,,,,,,,,,,,,,,,1,6,16,8,,,,,,,AMNE03.jpg,AMSA07.jpg,AMNE04.jpg,AMSA10.jpg,AMNE03.jpg,MN,1,num_8,32,num_6,0.683462158106,,,2018_Feb_16_1723,60.0163428884,MAFE4ImagesEEG,001,202949,
AFNE01.JPG,AFNE01.JPG,AFNE01.JPG,AFNE01.JPG,AFNE01.JPG,AFNE01.JPG,,,,,,,,,,,,,,,,,1,7,17,1,,,,,,,AMNE07.jpg,AMNE02.jpg,AMSA19.jpg,AMSA20.jpg,AMNE07.jpg,MN,1,num_8,16,num_8,1.83345248783,,,2018_Feb_16_1723,60.0163428884,MAFE4ImagesEEG,001,202949,
AFNE01.JPG,AFNE01.JPG,AFNE01.JPG,AFNE01.JPG,AFNE01.JPG,AFNE01.JPG,,,,,,,,,,,,,,,,,1,8,18,2,,,,,,,AMNE15.jpg,AMSA02.jpg,AMSA10.jpg,AMNE10.jpg,AMSA10.jpg,MS,2,num_2,16,num_2,1.21676559857,,,2018_Feb_16_1723,60.0163428884,MAFE4ImagesEEG,001,202949,
AFNE01.JPG,AFNE01.JPG,AFNE01.JPG,AFNE01.JPG,AFNE01.JPG,AFNE01.JPG,,,,,,,,,,,,,,,,,1,9,19,0,,,,,,,AMSA13.jpg,AMNE16.jpg,AMNE12.jpg,AMSA15.jpg,AMSA15.jpg,MS,2,num_4,16,num_4,0.983355897313,,,2018_Feb_16_1723,60.0163428884,MAFE4ImagesEEG,001,202949,
AFNE01.JPG,AFNE01.JPG,AFNE01.JPG,AFNE01.JPG,AFNE01.JPG,AFNE01.JPG,,,,,,,,,,,,,,,,,2,0,20,3,,,,,,,AMNE12.jpg,AMSA18.jpg,AMNE07.jpg,AMSA11.jpg,AMNE12.jpg,MN,1,num_8,16,num_8,0.983457892278,,,2018_Feb_16_1723,60.0163428884,MAFE4ImagesEEG,001,202949,
AFNE01.JPG,AFNE01.JPG,AFNE01.JPG,AFNE01.JPG,AFNE01.JPG,AFNE01.JPG,,,,,,,,,,,,,,,,,2,1,21,5,,,,,,,AMSA06.jpg,AMNE06.jpg,AMSA01.jpg,AMNE15.jpg,AMNE15.jpg,MN,1,num_4,32,num_8,0.800132850045,,,2018_Feb_16_1723,60.0163428884,MAFE4ImagesEEG,001,202949,
AFNE01.JPG,AFNE01.JPG,AFNE01.JPG,AFNE01.JPG,AFNE01.JPG,AFNE01.JPG,,,,,,,,,,,,,,,,,2,2,22,1,,,,,,,AMSA14.jpg,AMNE12.jpg,AMNE18.jpg,AMSA15.jpg,AMSA15.jpg,MS,2,num_4,32,num_6,0.883466584302,,,2018_Feb_16_1723,60.0163428884,MAFE4ImagesEEG,001,202949,
AFNE01.JPG,AFNE01.JPG,AFNE01.JPG,AFNE01.JPG,AFNE01.JPG,AFNE01.JPG,,,,,,,,,,,,,,,,,2,3,23,9,,,,,,,AMSA16.jpg,AMSA05.jpg,AMNE11.jpg,AMNE17.jpg,AMNE11.jpg,MN,1,num_2,32,num_8,1.3167383037,,,2018_Feb_16_1723,60.0163428884,MAFE4ImagesEEG,001,202949,
AFNE01.JPG,AFNE01.JPG,AFNE01.JPG,AFNE01.JPG,AFNE01.JPG,AFNE01.JPG,,,,,,,,,,,,,,,,,2,4,24,2,,,,,,,AMSA10.jpg,AMSA17.jpg,AMNE16.jpg,AMNE18.jpg,AMSA17.jpg,MS,2,num_6,32,num_2,0.81677374534,,,2018_Feb_16_1723,60.0163428884,MAFE4ImagesEEG,001,202949,
AFNE01.JPG,AFNE01.JPG,AFNE01.JPG,AFNE01.JPG,AFNE01.JPG,AFNE01.JPG,,,,,,,,,,,,,,,,,2,5,25,8,,,,,,,AMSA04.jpg,AMNE15.jpg,AMNE03.jpg,AMSA19.jpg,AMNE03.jpg,MN,1,num_2,16,num_2,1.06675185491,,,2018_Feb_16_1723,60.0163428884,MAFE4ImagesEEG,001,202949,
AFNE01.JPG,AFNE01.JPG,AFNE01.JPG,AFNE01.JPG,AFNE01.JPG,AFNE01.JPG,,,,,,,,,,,,,,,,,2,6,26,4,,,,,,,AMSA08.jpg,AMSA14.jpg,AMNE18.jpg,AMNE07.jpg,AMSA14.jpg,MS,2,num_6,16,num_6,0.400179164739,,,2018_Feb_16_1723,60.0163428884,MAFE4ImagesEEG,001,202949,
AFNE01.JPG,AFNE01.JPG,AFNE01.JPG,AFNE01.JPG,AFNE01.JPG,AFNE01.JPG,,,,,,,,,,,,,,,,,2,7,27,7,,,,,,,AMSA15.jpg,AMNE03.jpg,AMSA01.jpg,AMNE20.jpg,AMSA15.jpg,MS,2,num_8,16,num_8,0.650122634512,,,2018_Feb_16_1723,60.0163428884,MAFE4ImagesEEG,001,202949,
AFNE01.JPG,AFNE01.JPG,AFNE01.JPG,AFNE01.JPG,AFNE01.JPG,AFNE01.JPG,,,,,,,,,,,,,,,,,2,8,28,0,,,,,,,AMNE10.jpg,AMSA05.jpg,AMNE02.jpg,AMSA08.jpg,AMSA05.jpg,MS,2,num_6,32,num_2,1.11686249379,,,2018_Feb_16_1723,60.0163428884,MAFE4ImagesEEG,001,202949,
AFNE01.JPG,AFNE01.JPG,AFNE01.JPG,AFNE01.JPG,AFNE01.JPG,AFNE01.JPG,,,,,,,,,,,,,,,,,2,9,29,6,,,,,,,AMSA13.jpg,AMNE03.jpg,AMSA07.jpg,AMNE06.jpg,AMSA13.jpg,MS,2,num_8,32,num_6,0.733513139548,,,2018_Feb_16_1723,60.0163428884,MAFE4ImagesEEG,001,202949,
AFNE01.JPG,AFNE01.JPG,AFNE01.JPG,AFNE01.JPG,AFNE01.JPG,AFNE01.JPG,,,,,,,,,,,,,,,,,3,0,30,2,,,,,,,AMSA07.jpg,AMNE08.jpg,AMNE10.jpg,AMSA13.jpg,AMSA13.jpg,MS,2,num_4,32,num_6,0.516813292445,,,2018_Feb_16_1723,60.0163428884,MAFE4ImagesEEG,001,202949,
AFNE01.JPG,AFNE01.JPG,AFNE01.JPG,AFNE01.JPG,AFNE01.JPG,AFNE01.JPG,,,,,,,,,,,,,,,,,3,1,31,6,,,,,,,AMSA09.jpg,AMNE17.jpg,AMNE05.jpg,AMSA05.jpg,AMSA09.jpg,MS,2,num_8,32,num_6,0.450200958945,,,2018_Feb_16_1723,60.0163428884,MAFE4ImagesEEG,001,202949,
AFNE01.JPG,AFNE01.JPG,AFNE01.JPG,AFNE01.JPG,AFNE01.JPG,AFNE01.JPG,,,,,,,,,,,,,,,,,3,2,32,8,,,,,,,AMNE17.jpg,AMSA08.jpg,AMNE06.jpg,AMSA14.jpg,AMSA08.jpg,MS,2,num_6,32,num_8,1.41671806507,,,2018_Feb_16_1723,60.0163428884,MAFE4ImagesEEG,001,202949,
AFNE01.JPG,AFNE01.JPG,AFNE01.JPG,AFNE01.JPG,AFNE01.JPG,AFNE01.JPG,,,,,,,,,,,,,,,,,3,3,33,1,,,,,,,AMNE16.jpg,AMSA10.jpg,AMSA07.jpg,AMNE10.jpg,AMNE10.jpg,MN,1,num_4,32,num_6,0.60012746163,,,2018_Feb_16_1723,60.0163428884,MAFE4ImagesEEG,001,202949,
AFNE01.JPG,AFNE01.JPG,AFNE01.JPG,AFNE01.JPG,AFNE01.JPG,AFNE01.JPG,,,,,,,,,,,,,,,,,3,4,34,3,,,,,,,AMSA01.jpg,AMSA09.jpg,AMNE07.jpg,AMNE02.jpg,AMSA01.jpg,MS,2,num_8,32,num_4,0.416834814025,,,2018_Feb_16_1723,60.0163428884,MAFE4ImagesEEG,001,202949,
AFNE01.JPG,AFNE01.JPG,AFNE01.JPG,AFNE01.JPG,AFNE01.JPG,AFNE01.JPG,,,,,,,,,,,,,,,,,3,5,35,9,,,,,,,AMNE05.jpg,AMSA16.jpg,AMSA04.jpg,AMNE18.jpg,AMSA04.jpg,MS,2,num_2,32,num_6,0.383534741311,,,2018_Feb_16_1723,60.0163428884,MAFE4ImagesEEG,001,202949,
AFNE01.JPG,AFNE01.JPG,AFNE01.JPG,AFNE01.JPG,AFNE01.JPG,AFNE01.JPG,,,,,,,,,,,,,,,,,3,6,36,0,,,,,,,AMSA11.jpg,AMNE10.jpg,AMSA09.jpg,AMNE03.jpg,AMSA09.jpg,MS,2,num_2,16,num_2,1.06675410009,,,2018_Feb_16_1723,60.0163428884,MAFE4ImagesEEG,001,202949,
AFNE01.JPG,AFNE01.JPG,AFNE01.JPG,AFNE01.JPG,AFNE01.JPG,AFNE01.JPG,,,,,,,,,,,,,,,,,3,7,37,5,,,,,,,AMNE14.jpg,AMSA04.jpg,AMSA20.jpg,AMNE15.jpg,AMSA04.jpg,MS,2,num_6,32,num_8,1.4167834958,,,2018_Feb_16_1723,60.0163428884,MAFE4ImagesEEG,001,202949,
AFNE01.JPG,AFNE01.JPG,AFNE01.JPG,AFNE01.JPG,AFNE01.JPG,AFNE01.JPG,,,,,,,,,,,,,,,,,3,8,38,7,,,,,,,AMNE16.jpg,AMSA12.jpg,AMNE03.jpg,AMSA07.jpg,AMSA12.jpg,MS,2,num_6,32,num_8,1.05011288405,,,2018_Feb_16_1723,60.0163428884,MAFE4ImagesEEG,001,202949,
AFNE01.JPG,AFNE01.JPG,AFNE01.JPG,AFNE01.JPG,AFNE01.JPG,AFNE01.JPG,,,,,,,,,,,,,,,,,3,9,39,4,,,,,,,AMNE13.jpg,AMNE18.jpg,AMSA12.jpg,AMSA15.jpg,AMSA12.jpg,MS,2,num_2,32,num_4,1.01673936213,,,2018_Feb_16_1723,60.0163428884,MAFE4ImagesEEG,001,202949,
AFNE01.JPG,AFNE01.JPG,AFNE01.JPG,AFNE01.JPG,AFNE01.JPG,AFNE01.JPG,,,,,,,,,,,,,,,,,4,0,40,8,,,,,,,AMNE13.jpg,AMSA19.jpg,AMSA18.jpg,AMNE07.jpg,AMNE13.jpg,MN,1,num_8,32,num_2,1.4001846173,,,2018_Feb_16_1723,60.0163428884,MAFE4ImagesEEG,001,202949,
AFNE01.JPG,AFNE01.JPG,AFNE01.JPG,AFNE01.JPG,AFNE01.JPG,AFNE01.JPG,,,,,,,,,,,,,,,,,4,1,41,4,,,,,,,AMNE14.jpg,AMSA07.jpg,AMNE06.jpg,AMSA01.jpg,AMSA01.jpg,MS,2,num_4,16,num_4,0.866802275066,,,2018_Feb_16_1723,60.0163428884,MAFE4ImagesEEG,001,202949,
AFNE01.JPG,AFNE01.JPG,AFNE01.JPG,AFNE01.JPG,AFNE01.JPG,AFNE01.JPG,,,,,,,,,,,,,,,,,4,2,42,7,,,,,,,AMNE06.jpg,AMNE07.jpg,AMSA11.jpg,AMSA02.jpg,AMSA02.jpg,MS,2,num_4,32,num_2,1.33346579849,,,2018_Feb_16_1723,60.0163428884,MAFE4ImagesEEG,001,202949,
AFNE01.JPG,AFNE01.JPG,AFNE01.JPG,AFNE01.JPG,AFNE01.JPG,AFNE01.JPG,,,,,,,,,,,,,,,,,4,3,43,6,,,,,,,AMSA07.jpg,AMNE04.jpg,AMNE18.jpg,AMSA01.jpg,AMSA07.jpg,MS,2,num_8,32,num_6,0.850105250463,,,2018_Feb_16_1723,60.0163428884,MAFE4ImagesEEG,001,202949,
AFNE01.JPG,AFNE01.JPG,AFNE01.JPG,AFNE01.JPG,AFNE01.JPG,AFNE01.JPG,,,,,,,,,,,,,,,,,4,4,44,2,,,,,,,AMNE04.jpg,AMNE19.jpg,AMSA20.jpg,AMSA05.jpg,AMNE04.jpg,MN,1,num_8,32,num_4,1.016800944,,,2018_Feb_16_1723,60.0163428884,MAFE4ImagesEEG,001,202949,
AFNE01.JPG,AFNE01.JPG,AFNE01.JPG,AFNE01.JPG,AFNE01.JPG,AFNE01.JPG,,,,,,,,,,,,,,,,,4,5,45,3,,,,,,,AMNE06.jpg,AMSA14.jpg,AMNE03.jpg,AMSA04.jpg,AMSA14.jpg,MS,2,num_6,32,num_2,1.63340700705,,,2018_Feb_16_1723,60.0163428884,MAFE4ImagesEEG,001,202949,
AFNE01.JPG,AFNE01.JPG,AFNE01.JPG,AFNE01.JPG,AFNE01.JPG,AFNE01.JPG,,,,,,,,,,,,,,,,,4,6,46,5,,,,,,,AMSA02.jpg,AMNE19.jpg,AMNE18.jpg,AMSA10.jpg,AMSA02.jpg,MS,2,num_8,16,num_8,0.833464034427,,,2018_Feb_16_1723,60.0163428884,MAFE4ImagesEEG,001,202949,
AFNE01.JPG,AFNE01.JPG,AFNE01.JPG,AFNE01.JPG,AFNE01.JPG,AFNE01.JPG,,,,,,,,,,,,,,,,,4,7,47,9,,,,,,,AMNE20.jpg,AMNE09.jpg,AMSA11.jpg,AMSA07.jpg,AMNE20.jpg,MN,1,num_8,16,num_8,0.983383160119,,,2018_Feb_16_1723,60.0163428884,MAFE4ImagesEEG,001,202949,
AFNE01.JPG,AFNE01.JPG,AFNE01.JPG,AFNE01.JPG,AFNE01.JPG,AFNE01.JPG,,,,,,,,,,,,,,,,,4,8,48,0,,,,,,,AMNE16.jpg,AMSA19.jpg,AMNE06.jpg,AMSA13.jpg,AMNE16.jpg,MN,1,num_8,32,num_2,1.10009362368,,,2018_Feb_16_1723,60.0163428884,MAFE4ImagesEEG,001,202949,
AFNE01.JPG,AFNE01.JPG,AFNE01.JPG,AFNE01.JPG,AFNE01.JPG,AFNE01.JPG,,,,,,,,,,,,,,,,,4,9,49,1,,,,,,,AMSA16.jpg,AMNE08.jpg,AMSA14.jpg,AMNE06.jpg,AMNE08.jpg,MN,1,num_6,16,num_6,1.00012765408,,,2018_Feb_16_1723,60.0163428884,MAFE4ImagesEEG,001,202949,
AFNE01.JPG,AFNE01.JPG,AFNE01.JPG,AFNE01.JPG,AFNE01.JPG,AFNE01.JPG,,,,,,,,,,,,,,,,,5,0,50,8,,,,,,,AMNE10.jpg,AMSA17.jpg,AMNE02.jpg,AMSA12.jpg,AMSA12.jpg,MS,2,num_4,32,num_2,1.1000888126,,,2018_Feb_16_1723,60.0163428884,MAFE4ImagesEEG,001,202949,
AFNE01.JPG,AFNE01.JPG,AFNE01.JPG,AFNE01.JPG,AFNE01.JPG,AFNE01.JPG,,,,,,,,,,,,,,,,,5,1,51,6,,,,,,,AMNE14.jpg,AMNE03.jpg,AMSA05.jpg,AMSA18.jpg,AMSA05.jpg,MS,2,num_2,32,num_4,0.700159824182,,,2018_Feb_16_1723,60.0163428884,MAFE4ImagesEEG,001,202949,
AFNE01.JPG,AFNE01.JPG,AFNE01.JPG,AFNE01.JPG,AFNE01.JPG,AFNE01.JPG,,,,,,,,,,,,,,,,,5,2,52,2,,,,,,,AMNE04.jpg,AMSA06.jpg,AMNE11.jpg,AMSA19.jpg,AMSA19.jpg,MS,2,num_4,16,num_4,0.616779262051,,,2018_Feb_16_1723,60.0163428884,MAFE4ImagesEEG,001,202949,
AFNE01.JPG,AFNE01.JPG,AFNE01.JPG,AFNE01.JPG,AFNE01.JPG,AFNE01.JPG,,,,,,,,,,,,,,,,,5,3,53,7,,,,,,,AMSA04.jpg,AMSA18.jpg,AMNE14.jpg,AMNE13.jpg,AMSA04.jpg,MS,2,num_8,32,num_6,0.0168310934532,,,2018_Feb_16_1723,60.0163428884,MAFE4ImagesEEG,001,202949,
AFNE01.JPG,AFNE01.JPG,AFNE01.JPG,AFNE01.JPG,AFNE01.JPG,AFNE01.JPG,,,,,,,,,,,,,,,,,5,4,54,9,,,,,,,AMSA20.jpg,AMNE18.jpg,AMSA06.jpg,AMNE12.jpg,AMSA20.jpg,MS,2,num_8,32,num_4,0.400153505627,,,2018_Feb_16_1723,60.0163428884,MAFE4ImagesEEG,001,202949,
AFNE01.JPG,AFNE01.JPG,AFNE01.JPG,AFNE01.JPG,AFNE01.JPG,AFNE01.JPG,,,,,,,,,,,,,,,,,5,5,55,5,,,,,,,AMNE01.jpg,AMSA19.jpg,AMNE10.jpg,AMSA12.jpg,AMSA12.jpg,MS,2,num_4,32,num_6,0.366764908986,,,2018_Feb_16_1723,60.0163428884,MAFE4ImagesEEG,001,202949,
AFNE01.JPG,AFNE01.JPG,AFNE01.JPG,AFNE01.JPG,AFNE01.JPG,AFNE01.JPG,,,,,,,,,,,,,,,,,5,6,56,1,,,,,,,AMSA13.jpg,AMNE05.jpg,AMNE06.jpg,AMSA12.jpg,AMNE05.jpg,MN,1,num_6,32,num_8,0.366859206215,,,2018_Feb_16_1723,60.0163428884,MAFE4ImagesEEG,001,202949,
AFNE01.JPG,AFNE01.JPG,AFNE01.JPG,AFNE01.JPG,AFNE01.JPG,AFNE01.JPG,,,,,,,,,,,,,,,,,5,7,57,3,,,,,,,AMSA03.jpg,AMNE04.jpg,AMSA08.jpg,AMNE01.jpg,AMSA03.jpg,MS,2,num_8,16,num_8,0.716791097315,,,2018_Feb_16_1723,60.0163428884,MAFE4ImagesEEG,001,202949,
AFNE01.JPG,AFNE01.JPG,AFNE01.JPG,AFNE01.JPG,AFNE01.JPG,AFNE01.JPG,,,,,,,,,,,,,,,,,5,8,58,0,,,,,,,AMNE07.jpg,AMSA19.jpg,AMSA12.jpg,AMNE06.jpg,AMSA12.jpg,MS,2,num_2,32,num_8,1.79990961578,,,2018_Feb_16_1723,60.0163428884,MAFE4ImagesEEG,001,202949,
AFNE01.JPG,AFNE01.JPG,AFNE01.JPG,AFNE01.JPG,AFNE01.JPG,AFNE01.JPG,,,,,,,,,,,,,,,,,5,9,59,4,,,,,,,AMNE16.jpg,AMSA12.jpg,AMNE01.jpg,AMSA09.jpg,AMSA09.jpg,MS,2,num_4,32,num_6,0.900211078257,,,2018_Feb_16_1723,60.0163428884,MAFE4ImagesEEG,001,202949,
,,,,,,,,,,,,,,,,,,,,,,,,,,,,,,,,,,,,,,,,,,,space,4.19985399966,2018_Feb_16_1723,60.0163428884,MAFE4ImagesEEG,001,202949,
AFNE01.JPG,AFNE01.JPG,AFNE01.JPG,AFNE01.JPG,AFNE01.JPG,AFNE01.JPG,,,,,,,,,,,,,,,,,,,,,0,0,0,7,,,AFSA17.jpg,AFNE09.jpg,AFSA10.jpg,AFNE01.jpg,AFNE01.jpg,FN,3,num_4,16,num_4,0.617125339302,,,2018_Feb_16_1723,60.0163428884,MAFE4ImagesEEG,001,202949,
AFNE01.JPG,AFNE01.JPG,AFNE01.JPG,AFNE01.JPG,AFNE01.JPG,AFNE01.JPG,,,,,,,,,,,,,,,,,,,,,0,1,1,2,,,AFNE03.jpg,AFSA05.jpg,AFSA14.jpg,AFNE20.jpg,AFNE20.jpg,FN,3,num_4,32,num_6,0.633509643496,,,2018_Feb_16_1723,60.0163428884,MAFE4ImagesEEG,001,202949,
AFNE01.JPG,AFNE01.JPG,AFNE01.JPG,AFNE01.JPG,AFNE01.JPG,AFNE01.JPG,,,,,,,,,,,,,,,,,,,,,0,2,2,4,,,AFSA06.jpg,AFNE14.jpg,AFNE01.jpg,AFSA15.jpg,AFNE14.jpg,FN,3,num_6,32,num_8,0.766915848702,,,2018_Feb_16_1723,60.0163428884,MAFE4ImagesEEG,001,202949,
AFNE01.JPG,AFNE01.JPG,AFNE01.JPG,AFNE01.JPG,AFNE01.JPG,AFNE01.JPG,,,,,,,,,,,,,,,,,,,,,0,3,3,0,,,AFSA19.jpg,AFSA17.jpg,AFNE05.jpg,AFNE13.jpg,AFNE13.jpg,FN,3,num_4,32,num_6,1.61671992536,,,2018_Feb_16_1723,60.0163428884,MAFE4ImagesEEG,001,202949,
AFNE01.JPG,AFNE01.JPG,AFNE01.JPG,AFNE01.JPG,AFNE01.JPG,AFNE01.JPG,,,,,,,,,,,,,,,,,,,,,0,4,4,8,,,AFNE10.jpg,AFSA10.jpg,AFSA12.jpg,AFNE16.jpg,AFNE10.jpg,FN,3,num_8,16,num_8,0.633561603194,,,2018_Feb_16_1723,60.0163428884,MAFE4ImagesEEG,001,202949,
AFNE01.JPG,AFNE01.JPG,AFNE01.JPG,AFNE01.JPG,AFNE01.JPG,AFNE01.JPG,,,,,,,,,,,,,,,,,,,,,0,5,5,5,,,AFNE05.jpg,AFSA10.jpg,AFSA03.jpg,AFNE04.jpg,AFNE05.jpg,FN,3,num_8,32,num_6,0.550128760622,,,2018_Feb_16_1723,60.0163428884,MAFE4ImagesEEG,001,202949,
AFNE01.JPG,AFNE01.JPG,AFNE01.JPG,AFNE01.JPG,AFNE01.JPG,AFNE01.JPG,,,,,,,,,,,,,,,,,,,,,0,6,6,9,,,AFSA07.jpg,AFSA09.jpg,AFNE15.jpg,AFNE18.jpg,AFSA07.jpg,FS,4,num_8,32,num_4,0.283527717133,,,2018_Feb_16_1723,60.0163428884,MAFE4ImagesEEG,001,202949,
AFNE01.JPG,AFNE01.JPG,AFNE01.JPG,AFNE01.JPG,AFNE01.JPG,AFNE01.JPG,,,,,,,,,,,,,,,,,,,,,0,7,7,1,,,AFSA14.jpg,AFSA11.jpg,AFNE06.jpg,AFNE08.jpg,AFNE06.jpg,FN,3,num_2,32,num_8,0.783527236023,,,2018_Feb_16_1723,60.0163428884,MAFE4ImagesEEG,001,202949,
AFNE01.JPG,AFNE01.JPG,AFNE01.JPG,AFNE01.JPG,AFNE01.JPG,AFNE01.JPG,,,,,,,,,,,,,,,,,,,,,0,8,8,3,,,AFSA08.jpg,AFNE12.jpg,AFNE06.jpg,AFSA14.jpg,AFNE06.jpg,FN,3,num_2,16,num_2,0.783556744,,,2018_Feb_16_1723,60.0163428884,MAFE4ImagesEEG,001,202949,
AFNE01.JPG,AFNE01.JPG,AFNE01.JPG,AFNE01.JPG,AFNE01.JPG,AFNE01.JPG,,,,,,,,,,,,,,,,,,,,,0,9,9,6,,,AFNE11.jpg,AFNE04.jpg,AFSA16.jpg,AFSA18.jpg,AFNE11.jpg,FN,3,num_8,16,num_8,0.566795956509,,,2018_Feb_16_1723,60.0163428884,MAFE4ImagesEEG,001,202949,
AFNE01.JPG,AFNE01.JPG,AFNE01.JPG,AFNE01.JPG,AFNE01.JPG,AFNE01.JPG,,,,,,,,,,,,,,,,,,,,,1,0,10,5,,,AFNE12.jpg,AFSA09.jpg,AFNE13.jpg,AFSA15.jpg,AFNE12.jpg,FN,3,num_8,32,num_6,1.08342354114,,,2018_Feb_16_1723,60.0163428884,MAFE4ImagesEEG,001,202949,
AFNE01.JPG,AFNE01.JPG,AFNE01.JPG,AFNE01.JPG,AFNE01.JPG,AFNE01.JPG,,,,,,,,,,,,,,,,,,,,,1,1,11,3,,,AFNE20.jpg,AFNE04.jpg,AFSA04.jpg,AFSA02.jpg,AFSA02.jpg,FS,4,num_4,32,num_6,0.933775760544,,,2018_Feb_16_1723,60.0163428884,MAFE4ImagesEEG,001,202949,
AFNE01.JPG,AFNE01.JPG,AFNE01.JPG,AFNE01.JPG,AFNE01.JPG,AFNE01.JPG,,,,,,,,,,,,,,,,,,,,,1,2,12,1,,,AFNE04.jpg,AFSA04.jpg,AFSA15.jpg,AFNE01.jpg,AFNE04.jpg,FN,3,num_8,16,num_8,0.800130284133,,,2018_Feb_16_1723,60.0163428884,MAFE4ImagesEEG,001,202949,
AFNE01.JPG,AFNE01.JPG,AFNE01.JPG,AFNE01.JPG,AFNE01.JPG,AFNE01.JPG,,,,,,,,,,,,,,,,,,,,,1,3,13,7,,,AFNE16.jpg,AFSA11.jpg,AFNE12.jpg,AFSA08.jpg,AFNE16.jpg,FN,3,num_8,32,num_6,1.13343507171,,,2018_Feb_16_1723,60.0163428884,MAFE4ImagesEEG,001,202949,
AFNE01.JPG,AFNE01.JPG,AFNE01.JPG,AFNE01.JPG,AFNE01.JPG,AFNE01.JPG,,,,,,,,,,,,,,,,,,,,,1,4,14,9,,,AFNE05.jpg,AFSA03.jpg,AFNE10.jpg,AFSA06.jpg,AFNE05.jpg,FN,3,num_8,32,num_2,1.49996552057,,,2018_Feb_16_1723,60.0163428884,MAFE4ImagesEEG,001,202949,
AFNE01.JPG,AFNE01.JPG,AFNE01.JPG,AFNE01.JPG,AFNE01.JPG,AFNE01.JPG,,,,,,,,,,,,,,,,,,,,,1,5,15,6,,,AFSA15.jpg,AFNE18.jpg,AFSA14.jpg,AFNE04.jpg,AFSA14.jpg,FS,4,num_2,32,num_4,0.850162341983,,,2018_Feb_16_1723,60.0163428884,MAFE4ImagesEEG,001,202949,
AFNE01.JPG,AFNE01.JPG,AFNE01.JPG,AFNE01.JPG,AFNE01.JPG,AFNE01.JPG,,,,,,,,,,,,,,,,,,,,,1,6,16,2,,,AFNE12.jpg,AFSA02.jpg,AFNE14.jpg,AFSA12.jpg,AFNE14.jpg,FN,3,num_2,32,num_6,0.483474731067,,,2018_Feb_16_1723,60.0163428884,MAFE4ImagesEEG,001,202949,
AFNE01.JPG,AFNE01.JPG,AFNE01.JPG,AFNE01.JPG,AFNE01.JPG,AFNE01.JPG,,,,,,,,,,,,,,,,,,,,,1,7,17,4,,,AFSA09.jpg,AFNE08.jpg,AFNE16.jpg,AFSA18.jpg,AFNE08.jpg,FN,3,num_6,16,num_6,0.0335476831278,,,2018_Feb_16_1723,60.0163428884,MAFE4ImagesEEG,001,202949,
AFNE01.JPG,AFNE01.JPG,AFNE01.JPG,AFNE01.JPG,AFNE01.JPG,AFNE01.JPG,,,,,,,,,,,,,,,,,,,,,1,8,18,8,,,AFSA14.jpg,AFSA18.jpg,AFNE03.jpg,AFNE06.jpg,AFSA14.jpg,FS,4,num_8,32,num_2,1.36673764618,,,2018_Feb_16_1723,60.0163428884,MAFE4ImagesEEG,001,202949,
AFNE01.JPG,AFNE01.JPG,AFNE01.JPG,AFNE01.JPG,AFNE01.JPG,AFNE01.JPG,,,,,,,,,,,,,,,,,,,,,1,9,19,0,,,AFSA14.jpg,AFNE09.jpg,AFSA18.jpg,AFNE13.jpg,AFNE13.jpg,FN,3,num_4,32,num_8,0.733523403194,,,2018_Feb_16_1723,60.0163428884,MAFE4ImagesEEG,001,202949,
AFNE01.JPG,AFNE01.JPG,AFNE01.JPG,AFNE01.JPG,AFNE01.JPG,AFNE01.JPG,,,,,,,,,,,,,,,,,,,,,2,0,20,0,,,AFSA07.jpg,AFNE18.jpg,AFNE02.jpg,AFSA01.jpg,AFSA01.jpg,FS,4,num_4,16,num_4,0.950153329222,,,2018_Feb_16_1723,60.0163428884,MAFE4ImagesEEG,001,202949,
AFNE01.JPG,AFNE01.JPG,AFNE01.JPG,AFNE01.JPG,AFNE01.JPG,AFNE01.JPG,,,,,,,,,,,,,,,,,,,,,2,1,21,3,,,AFSA19.jpg,AFNE20.jpg,AFSA12.jpg,AFNE12.jpg,AFNE12.jpg,FN,3,num_4,16,num_4,0.583470850128,,,2018_Feb_16_1723,60.0163428884,MAFE4ImagesEEG,001,202949,
AFNE01.JPG,AFNE01.JPG,AFNE01.JPG,AFNE01.JPG,AFNE01.JPG,AFNE01.JPG,,,,,,,,,,,,,,,,,,,,,2,2,22,5,,,AFNE18.jpg,AFSA01.jpg,AFSA14.jpg,AFNE01.jpg,AFSA01.jpg,FS,4,num_6,16,num_6,1.11685639975,,,2018_Feb_16_1723,60.0163428884,MAFE4ImagesEEG,001,202949,
AFNE01.JPG,AFNE01.JPG,AFNE01.JPG,AFNE01.JPG,AFNE01.JPG,AFNE01.JPG,,,,,,,,,,,,,,,,,,,,,2,3,23,7,,,AFSA11.jpg,AFNE04.jpg,AFSA12.jpg,AFNE03.jpg,AFSA11.jpg,FS,4,num_8,16,num_8,0.733485876744,,,2018_Feb_16_1723,60.0163428884,MAFE4ImagesEEG,001,202949,
AFNE01.JPG,AFNE01.JPG,AFNE01.JPG,AFNE01.JPG,AFNE01.JPG,AFNE01.JPG,,,,,,,,,,,,,,,,,,,,,2,4,24,1,,,AFSA08.jpg,AFNE20.jpg,AFSA12.jpg,AFNE08.jpg,AFSA08.jpg,FS,4,num_8,32,num_6,0.416811720825,,,2018_Feb_16_1723,60.0163428884,MAFE4ImagesEEG,001,202949,
AFNE01.JPG,AFNE01.JPG,AFNE01.JPG,AFNE01.JPG,AFNE01.JPG,AFNE01.JPG,,,,,,,,,,,,,,,,,,,,,2,5,25,4,,,AFSA09.jpg,AFSA14.jpg,AFNE12.jpg,AFNE04.jpg,AFSA09.jpg,FS,4,num_8,32,num_6,0.433539215621,,,2018_Feb_16_1723,60.0163428884,MAFE4ImagesEEG,001,202949,
AFNE01.JPG,AFNE01.JPG,AFNE01.JPG,AFNE01.JPG,AFNE01.JPG,AFNE01.JPG,,,,,,,,,,,,,,,,,,,,,2,6,26,9,,,AFSA17.jpg,AFNE18.jpg,AFNE09.jpg,AFSA13.jpg,AFSA13.jpg,FS,4,num_4,16,num_4,0.483477938458,,,2018_Feb_16_1723,60.0163428884,MAFE4ImagesEEG,001,202949,
AFNE01.JPG,AFNE01.JPG,AFNE01.JPG,AFNE01.JPG,AFNE01.JPG,AFNE01.JPG,,,,,,,,,,,,,,,,,,,,,2,7,27,6,,,AFNE20.jpg,AFNE19.jpg,AFSA16.jpg,AFSA12.jpg,AFNE20.jpg,FN,3,num_8,16,num_8,0.716801681698,,,2018_Feb_16_1723,60.0163428884,MAFE4ImagesEEG,001,202949,
AFNE01.JPG,AFNE01.JPG,AFNE01.JPG,AFNE01.JPG,AFNE01.JPG,AFNE01.JPG,,,,,,,,,,,,,,,,,,,,,2,8,28,8,,,AFNE19.jpg,AFNE05.jpg,AFSA14.jpg,AFSA19.jpg,AFNE05.jpg,FN,3,num_6,32,num_4,0.616781507222,,,2018_Feb_16_1723,60.0163428884,MAFE4ImagesEEG,001,202949,
AFNE01.JPG,AFNE01.JPG,AFNE01.JPG,AFNE01.JPG,AFNE01.JPG,AFNE01.JPG,,,,,,,,,,,,,,,,,,,,,2,9,29,2,,,AFSA03.jpg,AFSA15.jpg,AFNE08.jpg,AFNE01.jpg,AFSA15.jpg,FS,4,num_6,16,num_6,0.633540434428,,,2018_Feb_16_1723,60.0163428884,MAFE4ImagesEEG,001,202949,
AFNE01.JPG,AFNE01.JPG,AFNE01.JPG,AFNE01.JPG,AFNE01.JPG,AFNE01.JPG,,,,,,,,,,,,,,,,,,,,,3,0,30,9,,,AFSA05.jpg,AFSA08.jpg,AFNE13.jpg,AFNE02.jpg,AFNE02.jpg,FN,3,num_4,32,num_8,1.06675185491,,,2018_Feb_16_1723,60.0163428884,MAFE4ImagesEEG,001,202949,
AFNE01.JPG,AFNE01.JPG,AFNE01.JPG,AFNE01.JPG,AFNE01.JPG,AFNE01.JPG,,,,,,,,,,,,,,,,,,,,,3,1,31,6,,,AFSA10.jpg,AFNE13.jpg,AFNE10.jpg,AFSA05.jpg,AFNE13.jpg,FN,3,num_6,16,num_6,0.716835359281,,,2018_Feb_16_1723,60.0163428884,MAFE4ImagesEEG,001,202949,
AFNE01.JPG,AFNE01.JPG,AFNE01.JPG,AFNE01.JPG,AFNE01.JPG,AFNE01.JPG,,,,,,,,,,,,,,,,,,,,,3,2,32,3,,,AFNE13.jpg,AFSA11.jpg,AFNE19.jpg,AFSA12.jpg,AFSA12.jpg,FS,4,num_4,16,num_4,0.650199932581,,,2018_Feb_16_1723,60.0163428884,MAFE4ImagesEEG,001,202949,
AFNE01.JPG,AFNE01.JPG,AFNE01.JPG,AFNE01.JPG,AFNE01.JPG,AFNE01.JPG,,,,,,,,,,,,,,,,,,,,,3,3,33,4,,,AFSA11.jpg,AFSA03.jpg,AFNE19.jpg,AFNE10.jpg,AFNE10.jpg,FN,3,num_4,16,num_4,1.51674176767,,,2018_Feb_16_1723,60.0163428884,MAFE4ImagesEEG,001,202949,
AFNE01.JPG,AFNE01.JPG,AFNE01.JPG,AFNE01.JPG,AFNE01.JPG,AFNE01.JPG,,,,,,,,,,,,,,,,,,,,,3,4,34,7,,,AFSA18.jpg,AFNE02.jpg,AFNE14.jpg,AFSA04.jpg,AFSA18.jpg,FS,4,num_8,16,num_8,1.13371603896,,,2018_Feb_16_1723,60.0163428884,MAFE4ImagesEEG,001,202949,
AFNE01.JPG,AFNE01.JPG,AFNE01.JPG,AFNE01.JPG,AFNE01.JPG,AFNE01.JPG,,,,,,,,,,,,,,,,,,,,,3,5,35,2,,,AFNE06.jpg,AFSA20.jpg,AFSA19.jpg,AFNE17.jpg,AFSA19.jpg,FS,4,num_2,32,num_4,0.981389767981,,,2018_Feb_16_1723,60.0163428884,MAFE4ImagesEEG,001,202949,
AFNE01.JPG,AFNE01.JPG,AFNE01.JPG,AFNE01.JPG,AFNE01.JPG,AFNE01.JPG,,,,,,,,,,,,,,,,,,,,,3,6,36,5,,,AFSA04.jpg,AFNE18.jpg,AFNE13.jpg,AFSA02.jpg,AFSA02.jpg,FS,4,num_4,32,num_8,1.11679032754,,,2018_Feb_16_1723,60.0163428884,MAFE4ImagesEEG,001,202949,
AFNE01.JPG,AFNE01.JPG,AFNE01.JPG,AFNE01.JPG,AFNE01.JPG,AFNE01.JPG,,,,,,,,,,,,,,,,,,,,,3,7,37,0,,,AFSA10.jpg,AFNE02.jpg,AFNE08.jpg,AFSA18.jpg,AFNE08.jpg,FN,3,num_2,32,num_4,0.850157530902,,,2018_Feb_16_1723,60.0163428884,MAFE4ImagesEEG,001,202949,
AFNE01.JPG,AFNE01.JPG,AFNE01.JPG,AFNE01.JPG,AFNE01.JPG,AFNE01.JPG,,,,,,,,,,,,,,,,,,,,,3,8,38,8,,,AFNE05.jpg,AFSA06.jpg,AFNE02.jpg,AFSA18.jpg,AFSA18.jpg,FS,4,num_4,32,num_8,0.716768645594,,,2018_Feb_16_1723,60.0163428884,MAFE4ImagesEEG,001,202949,
