IPosition2,IPosition3,IPosition1,IPosition6,IPosition4,IPosition5,TrialsF1.thisRepN,TrialsF1.thisTrialN,TrialsF1.thisN,TrialsF1.thisIndex,TrialsM1.thisRepN,TrialsM1.thisTrialN,TrialsM1.thisN,TrialsM1.thisIndex,TrialsF2.thisRepN,TrialsF2.thisTrialN,TrialsF2.thisN,TrialsF2.thisIndex,TrialsM2.thisRepN,TrialsM2.thisTrialN,TrialsM2.thisN,TrialsM2.thisIndex,TrialsF3.thisRepN,TrialsF3.thisTrialN,TrialsF3.thisN,TrialsF3.thisIndex,TrialsM3.thisRepN,TrialsM3.thisTrialN,TrialsM3.thisN,TrialsM3.thisIndex,InstrKey_resp.keys,InstrKey_resp.rt,Image0 _Position,Image1 _Position,Image2 _Position,Image3 _Position,Center_image,condition,code,correct_answer,accuracy,Key_Resp.keys,Key_Resp.rt,BreakKey_resp.keys,BreakKey_resp.rt,date,frameRate,expName,session,participant,
,,,,,,,,,,,,,,,,,,,,,,,,,,,,,,space,13.5495094138,,,,,,,,,,,,,,2018_Feb_16_1507,59.9984412497,FEMA4ImagesEEG,001,202926,
AMNE22.JPG,AMSA24.JPG,AMSA22.JPG,AMNE25.JPG,AMNE24.JPG,AMSA25.JPG,0,0,0,7,,,,,,,,,,,,,,,,,,,,,,,AFSA13.jpg,AFSA03.jpg,AFNE17.jpg,AFNE18.jpg,AFSA03.jpg,FS,4,num_6,32,num_4,0.816771820909,,,2018_Feb_16_1507,59.9984412497,FEMA4ImagesEEG,001,202926,
AFNE22.JPG,AFSA24.JPG,AFSA22.JPG,AFNE25.JPG,AFNE24.JPG,AFSA25.JPG,0,1,1,6,,,,,,,,,,,,,,,,,,,,,,,AFNE09.jpg,AFSA10.jpg,AFNE07.jpg,AFSA08.jpg,AFNE09.jpg,FN,3,num_8,32,num_6,0.833452808565,,,2018_Feb_16_1507,59.9984412497,FEMA4ImagesEEG,001,202926,
AMNE23.JPG,AMNE24.JPG,AMNE22.JPG,AMSA24.JPG,AMSA22.JPG,AMSA23.JPG,0,2,2,9,,,,,,,,,,,,,,,,,,,,,,,AFSA06.jpg,AFNE19.jpg,AFSA04.jpg,AFNE07.jpg,AFSA04.jpg,FS,4,num_2,32,num_8,0.433490142572,,,2018_Feb_16_1507,59.9984412497,FEMA4ImagesEEG,001,202926,
AFSA21.JPG,AFNE22.JPG,AFNE21.JPG,AFSA23.JPG,AFSA22.JPG,AFNE23.JPG,0,3,3,0,,,,,,,,,,,,,,,,,,,,,,,AFNE18.jpg,AFSA05.jpg,AFNE15.jpg,AFSA13.jpg,AFNE18.jpg,FN,3,num_8,32,num_4,1.20015934308,,,2018_Feb_16_1507,59.9984412497,FEMA4ImagesEEG,001,202926,
AFSA25.JPG,AFNE24.JPG,AFSA24.JPG,AFNE21.JPG,AFSA21.JPG,AFNE25.JPG,0,4,4,2,,,,,,,,,,,,,,,,,,,,,,,AFSA05.jpg,AFNE09.jpg,AFNE20.jpg,AFSA18.jpg,AFNE09.jpg,FN,3,num_6,16,num_6,0.683499043075,,,2018_Feb_16_1507,59.9984412497,FEMA4ImagesEEG,001,202926,
AFNE23.JPG,AFNE24.JPG,AFNE22.JPG,AFSA24.JPG,AFSA22.JPG,AFSA23.JPG,0,5,5,8,,,,,,,,,,,,,,,,,,,,,,,AFSA06.jpg,AFNE16.jpg,AFSA13.jpg,AFNE12.jpg,AFNE12.jpg,FN,3,num_4,16,num_4,0.733471443495,,,2018_Feb_16_1507,59.9984412497,FEMA4ImagesEEG,001,202926,
AMSA21.JPG,AMNE22.JPG,AMNE21.JPG,AMSA23.JPG,AMSA22.JPG,AMNE23.JPG,0,6,6,1,,,,,,,,,,,,,,,,,,,,,,,AFSA15.jpg,AFSA03.jpg,AFNE11.jpg,AFNE03.jpg,AFNE11.jpg,FN,3,num_2,16,num_2,2.01672428741,,,2018_Feb_16_1507,59.9984412497,FEMA4ImagesEEG,001,202926,
AMSA21.JPG,AMNE23.JPG,AMNE21.JPG,AMSA25.JPG,AMNE25.JPG,AMSA23.JPG,0,7,7,5,,,,,,,,,,,,,,,,,,,,,,,AFSA02.jpg,AFNE14.jpg,AFSA20.jpg,AFNE04.jpg,AFSA02.jpg,FS,4,num_8,32,num_4,0.783446730565,,,2018_Feb_16_1507,59.9984412497,FEMA4ImagesEEG,001,202926,
AFSA21.JPG,AFNE23.JPG,AFNE21.JPG,AFSA25.JPG,AFNE25.JPG,AFSA23.JPG,0,8,8,4,,,,,,,,,,,,,,,,,,,,,,,AFNE11.jpg,AFSA19.jpg,AFNE09.jpg,AFSA16.jpg,AFNE11.jpg,FN,3,num_8,32,num_6,0.383549174562,,,2018_Feb_16_1507,59.9984412497,FEMA4ImagesEEG,001,202926,
AMSA25.JPG,AMNE24.JPG,AMSA24.JPG,AMNE26.JPG,AMSA21.JPG,AMNE25.JPG,0,9,9,3,,,,,,,,,,,,,,,,,,,,,,,AFSA10.jpg,AFSA17.jpg,AFNE04.jpg,AFNE12.jpg,AFNE04.jpg,FN,3,num_2,32,num_8,1.2167418639,,,2018_Feb_16_1507,59.9984412497,FEMA4ImagesEEG,001,202926,
AMSA21.JPG,AMNE23.JPG,AMNE21.JPG,AMSA25.JPG,AMNE25.JPG,AMSA23.JPG,,,,,0,0,0,5,,,,,,,,,,,,,,,,,,,AMSA02.jpg,AMNE16.jpg,AMNE15.jpg,AMSA16.jpg,AMSA02.jpg,MS,2,num_8,32,num_4,0.983462061882,,,2018_Feb_16_1507,59.9984412497,FEMA4ImagesEEG,001,202926,
AFSA21.JPG,AFNE22.JPG,AFNE21.JPG,AFSA23.JPG,AFSA22.JPG,AFNE23.JPG,,,,,0,1,1,0,,,,,,,,,,,,,,,,,,,AMSA13.jpg,AMNE08.jpg,AMNE16.jpg,AMSA18.jpg,AMNE16.jpg,MN,1,num_2,32,num_8,1.15012183266,,,2018_Feb_16_1507,59.9984412497,FEMA4ImagesEEG,001,202926,
AFNE23.JPG,AFNE24.JPG,AFNE22.JPG,AFSA24.JPG,AFSA22.JPG,AFSA23.JPG,,,,,0,2,2,8,,,,,,,,,,,,,,,,,,,AMSA19.jpg,AMNE15.jpg,AMSA08.jpg,AMNE03.jpg,AMSA19.jpg,MS,2,num_8,32,num_2,0.716774418894,,,2018_Feb_16_1507,59.9984412497,FEMA4ImagesEEG,001,202926,
AFSA21.JPG,AFNE23.JPG,AFNE21.JPG,AFSA25.JPG,AFNE25.JPG,AFSA23.JPG,,,,,0,3,3,4,,,,,,,,,,,,,,,,,,,AMSA14.jpg,AMNE13.jpg,AMSA11.jpg,AMNE17.jpg,AMSA14.jpg,MS,2,num_8,32,num_4,1.0667451194,,,2018_Feb_16_1507,59.9984412497,FEMA4ImagesEEG,001,202926,
AMNE23.JPG,AMNE24.JPG,AMNE22.JPG,AMSA24.JPG,AMSA22.JPG,AMSA23.JPG,,,,,0,4,4,9,,,,,,,,,,,,,,,,,,,AMSA04.jpg,AMNE20.jpg,AMNE18.jpg,AMSA10.jpg,AMSA04.jpg,MS,2,num_8,16,num_8,0.96661910109,,,2018_Feb_16_1507,59.9984412497,FEMA4ImagesEEG,001,202926,
AFSA25.JPG,AFNE24.JPG,AFSA24.JPG,AFNE21.JPG,AFSA21.JPG,AFNE25.JPG,,,,,0,5,5,2,,,,,,,,,,,,,,,,,,,AMSA01.jpg,AMNE04.jpg,AMNE11.jpg,AMSA06.jpg,AMSA01.jpg,MS,2,num_8,32,num_6,1.30007976776,,,2018_Feb_16_1507,59.9984412497,FEMA4ImagesEEG,001,202926,
AMNE22.JPG,AMSA24.JPG,AMSA22.JPG,AMNE25.JPG,AMNE24.JPG,AMSA25.JPG,,,,,0,6,6,7,,,,,,,,,,,,,,,,,,,AMSA05.jpg,AMNE12.jpg,AMNE09.jpg,AMSA10.jpg,AMNE12.jpg,MN,1,num_6,32,num_4,0.583532752731,,,2018_Feb_16_1507,59.9984412497,FEMA4ImagesEEG,001,202926,
AMSA25.JPG,AMNE24.JPG,AMSA24.JPG,AMNE26.JPG,AMSA21.JPG,AMNE25.JPG,,,,,0,7,7,3,,,,,,,,,,,,,,,,,,,AMSA02.jpg,AMSA20.jpg,AMNE02.jpg,AMNE12.jpg,AMSA20.jpg,MS,2,num_6,16,num_6,1.55003959521,,,2018_Feb_16_1507,59.9984412497,FEMA4ImagesEEG,001,202926,
AMSA21.JPG,AMNE22.JPG,AMNE21.JPG,AMSA23.JPG,AMSA22.JPG,AMNE23.JPG,,,,,0,8,8,1,,,,,,,,,,,,,,,,,,,AMNE01.jpg,AMNE17.jpg,AMSA08.jpg,AMSA12.jpg,AMNE01.jpg,MN,1,num_8,32,num_2,1.33339395298,,,2018_Feb_16_1507,59.9984412497,FEMA4ImagesEEG,001,202926,
AFNE22.JPG,AFSA24.JPG,AFSA22.JPG,AFNE25.JPG,AFNE24.JPG,AFSA25.JPG,,,,,0,9,9,6,,,,,,,,,,,,,,,,,,,AMSA02.jpg,AMNE14.jpg,AMNE01.jpg,AMSA06.jpg,AMSA06.jpg,MS,2,num_4,32,num_8,1.13341999698,,,2018_Feb_16_1507,59.9984412497,FEMA4ImagesEEG,001,202926,
AFSA25.JPG,AFNE24.JPG,AFSA24.JPG,AFNE21.JPG,AFSA21.JPG,AFNE25.JPG,,,,,,,,,0,0,0,2,,,,,,,,,,,,,,,AFSA14.jpg,AFNE07.jpg,AFSA13.jpg,AFNE11.jpg,AFSA14.jpg,FS,4,num_8,16,num_8,0.900214285646,,,2018_Feb_16_1507,59.9984412497,FEMA4ImagesEEG,001,202926,
AMSA25.JPG,AMNE24.JPG,AMSA24.JPG,AMNE26.JPG,AMSA21.JPG,AMNE25.JPG,,,,,,,,,0,1,1,3,,,,,,,,,,,,,,,AFSA12.jpg,AFSA20.jpg,AFNE06.jpg,AFNE04.jpg,AFNE06.jpg,FN,3,num_2,16,num_2,0.700169125611,,,2018_Feb_16_1507,59.9984412497,FEMA4ImagesEEG,001,202926,
AMNE23.JPG,AMNE24.JPG,AMNE22.JPG,AMSA24.JPG,AMSA22.JPG,AMSA23.JPG,,,,,,,,,0,2,2,9,,,,,,,,,,,,,,,AFNE15.jpg,AFSA09.jpg,AFSA03.jpg,AFNE14.jpg,AFNE14.jpg,FN,3,num_4,32,num_6,0.416785420237,,,2018_Feb_16_1507,59.9984412497,FEMA4ImagesEEG,001,202926,
AMSA21.JPG,AMNE23.JPG,AMNE21.JPG,AMSA25.JPG,AMNE25.JPG,AMSA23.JPG,,,,,,,,,0,3,3,5,,,,,,,,,,,,,,,AFSA02.jpg,AFNE18.jpg,AFNE14.jpg,AFSA14.jpg,AFNE14.jpg,FN,3,num_2,16,num_2,0.66675454912,,,2018_Feb_16_1507,59.9984412497,FEMA4ImagesEEG,001,202926,
AMSA21.JPG,AMNE22.JPG,AMNE21.JPG,AMSA23.JPG,AMSA22.JPG,AMNE23.JPG,,,,,,,,,0,4,4,1,,,,,,,,,,,,,,,AFNE14.jpg,AFSA10.jpg,AFSA11.jpg,AFNE07.jpg,AFSA11.jpg,FS,4,num_2,32,num_8,0.983430950211,,,2018_Feb_16_1507,59.9984412497,FEMA4ImagesEEG,001,202926,
AFSA21.JPG,AFNE22.JPG,AFNE21.JPG,AFSA23.JPG,AFSA22.JPG,AFNE23.JPG,,,,,,,,,0,5,5,0,,,,,,,,,,,,,,,AFSA07.jpg,AFNE14.jpg,AFNE17.jpg,AFSA04.jpg,AFNE17.jpg,FN,3,num_2,32,num_4,0.650002036692,,,2018_Feb_16_1507,59.9984412497,FEMA4ImagesEEG,001,202926,
AFSA21.JPG,AFNE23.JPG,AFNE21.JPG,AFSA25.JPG,AFNE25.JPG,AFSA23.JPG,,,,,,,,,0,6,6,4,,,,,,,,,,,,,,,AFSA02.jpg,AFSA15.jpg,AFNE15.jpg,AFNE03.jpg,AFNE03.jpg,FN,3,num_4,32,num_6,0.750177769524,,,2018_Feb_16_1507,59.9984412497,FEMA4ImagesEEG,001,202926,
AMNE22.JPG,AMSA24.JPG,AMSA22.JPG,AMNE25.JPG,AMNE24.JPG,AMSA25.JPG,,,,,,,,,0,7,7,7,,,,,,,,,,,,,,,AFSA05.jpg,AFSA06.jpg,AFNE17.jpg,AFNE07.jpg,AFNE17.jpg,FN,3,num_2,16,num_2,1.05008882863,,,2018_Feb_16_1507,59.9984412497,FEMA4ImagesEEG,001,202926,
AFNE23.JPG,AFNE24.JPG,AFNE22.JPG,AFSA24.JPG,AFSA22.JPG,AFSA23.JPG,,,,,,,,,0,8,8,8,,,,,,,,,,,,,,,AFSA14.jpg,AFNE17.jpg,AFSA20.jpg,AFNE16.jpg,AFNE17.jpg,FN,3,num_6,32,num_8,0.933408835266,,,2018_Feb_16_1507,59.9984412497,FEMA4ImagesEEG,001,202926,
AFNE22.JPG,AFSA24.JPG,AFSA22.JPG,AFNE25.JPG,AFNE24.JPG,AFSA25.JPG,,,,,,,,,0,9,9,6,,,,,,,,,,,,,,,AFSA18.jpg,AFNE13.jpg,AFNE12.jpg,AFSA09.jpg,AFSA18.jpg,FS,4,num_8,16,num_8,1.29979110277,,,2018_Feb_16_1507,59.9984412497,FEMA4ImagesEEG,001,202926,
AFSA25.JPG,AFNE24.JPG,AFSA24.JPG,AFNE21.JPG,AFSA21.JPG,AFNE25.JPG,,,,,,,,,,,,,0,0,0,2,,,,,,,,,,,AMNE16.jpg,AMSA09.jpg,AMNE20.jpg,AMSA17.jpg,AMSA17.jpg,MS,2,num_4,16,num_4,0.883487432328,,,2018_Feb_16_1507,59.9984412497,FEMA4ImagesEEG,001,202926,
AFNE22.JPG,AFSA24.JPG,AFSA22.JPG,AFNE25.JPG,AFNE24.JPG,AFSA25.JPG,,,,,,,,,,,,,0,1,1,6,,,,,,,,,,,AMSA04.jpg,AMSA12.jpg,AMNE14.jpg,AMNE18.jpg,AMNE14.jpg,MN,1,num_2,32,num_6,1.00019789589,,,2018_Feb_16_1507,59.9984412497,FEMA4ImagesEEG,001,202926,
AMSA25.JPG,AMNE24.JPG,AMSA24.JPG,AMNE26.JPG,AMSA21.JPG,AMNE25.JPG,,,,,,,,,,,,,0,2,2,3,,,,,,,,,,,AMSA08.jpg,AMNE13.jpg,AMSA16.jpg,AMNE11.jpg,AMNE11.jpg,MN,1,num_4,32,num_8,0.366804359867,,,2018_Feb_16_1507,59.9984412497,FEMA4ImagesEEG,001,202926,
AMNE23.JPG,AMNE24.JPG,AMNE22.JPG,AMSA24.JPG,AMSA22.JPG,AMSA23.JPG,,,,,,,,,,,,,0,3,3,9,,,,,,,,,,,AMNE18.jpg,AMNE19.jpg,AMSA07.jpg,AMSA09.jpg,AMSA07.jpg,MS,2,num_2,16,num_2,1.01676951159,,,2018_Feb_16_1507,59.9984412497,FEMA4ImagesEEG,001,202926,
AFSA21.JPG,AFNE23.JPG,AFNE21.JPG,AFSA25.JPG,AFNE25.JPG,AFSA23.JPG,,,,,,,,,,,,,0,4,4,4,,,,,,,,,,,AMSA13.jpg,AMSA15.jpg,AMNE16.jpg,AMNE06.jpg,AMSA15.jpg,MS,2,num_6,32,num_4,0.350127221076,,,2018_Feb_16_1507,59.9984412497,FEMA4ImagesEEG,001,202926,
AFNE23.JPG,AFNE24.JPG,AFNE22.JPG,AFSA24.JPG,AFSA22.JPG,AFSA23.JPG,,,,,,,,,,,,,0,5,5,8,,,,,,,,,,,AMSA06.jpg,AMNE07.jpg,AMSA15.jpg,AMNE18.jpg,AMNE18.jpg,MN,1,num_4,32,num_8,0.900245397317,,,2018_Feb_16_1507,59.9984412497,FEMA4ImagesEEG,001,202926,
AMNE22.JPG,AMSA24.JPG,AMSA22.JPG,AMNE25.JPG,AMNE24.JPG,AMSA25.JPG,,,,,,,,,,,,,0,6,6,7,,,,,,,,,,,AMSA17.jpg,AMSA03.jpg,AMNE06.jpg,AMNE14.jpg,AMSA17.jpg,MS,2,num_8,32,num_2,2.58328802897,,,2018_Feb_16_1507,59.9984412497,FEMA4ImagesEEG,001,202926,
AMSA21.JPG,AMNE22.JPG,AMNE21.JPG,AMSA23.JPG,AMSA22.JPG,AMNE23.JPG,,,,,,,,,,,,,0,7,7,1,,,,,,,,,,,AMSA01.jpg,AMNE15.jpg,AMSA19.jpg,AMNE16.jpg,AMNE15.jpg,MN,1,num_6,32,num_4,1.43339680756,,,2018_Feb_16_1507,59.9984412497,FEMA4ImagesEEG,001,202926,
AFSA21.JPG,AFNE22.JPG,AFNE21.JPG,AFSA23.JPG,AFSA22.JPG,AFNE23.JPG,,,,,,,,,,,,,0,8,8,0,,,,,,,,,,,AMSA18.jpg,AMNE15.jpg,AMSA15.jpg,AMNE12.jpg,AMNE15.jpg,MN,1,num_6,32,num_2,0.933442833587,,,2018_Feb_16_1507,59.9984412497,FEMA4ImagesEEG,001,202926,
AMSA21.JPG,AMNE23.JPG,AMNE21.JPG,AMSA25.JPG,AMNE25.JPG,AMSA23.JPG,,,,,,,,,,,,,0,9,9,5,,,,,,,,,,,AMNE13.jpg,AMSA12.jpg,AMNE12.jpg,AMSA09.jpg,AMNE13.jpg,MN,1,num_8,32,num_4,1.56673469538,,,2018_Feb_16_1507,59.9984412497,FEMA4ImagesEEG,001,202926,
AFSA21.JPG,AFNE22.JPG,AFNE21.JPG,AFSA23.JPG,AFSA22.JPG,AFNE23.JPG,,,,,,,,,,,,,,,,,0,0,0,0,,,,,,,AFSA19.jpg,AFNE15.jpg,AFSA09.jpg,AFNE01.jpg,AFNE15.jpg,FN,3,num_6,16,num_6,0.750191240557,,,2018_Feb_16_1507,59.9984412497,FEMA4ImagesEEG,001,202926,
AMSA25.JPG,AMNE24.JPG,AMSA24.JPG,AMNE26.JPG,AMSA21.JPG,AMNE25.JPG,,,,,,,,,,,,,,,,,0,1,1,3,,,,,,,AFSA19.jpg,AFNE04.jpg,AFNE13.jpg,AFSA13.jpg,AFSA13.jpg,FS,4,num_4,32,num_8,1.03342387792,,,2018_Feb_16_1507,59.9984412497,FEMA4ImagesEEG,001,202926,
AFNE22.JPG,AFSA24.JPG,AFSA22.JPG,AFNE25.JPG,AFNE24.JPG,AFSA25.JPG,,,,,,,,,,,,,,,,,0,2,2,6,,,,,,,AFNE01.jpg,AFNE16.jpg,AFSA20.jpg,AFSA07.jpg,AFSA20.jpg,FS,4,num_2,16,num_2,0.416827757769,,,2018_Feb_16_1507,59.9984412497,FEMA4ImagesEEG,001,202926,
AMNE23.JPG,AMNE24.JPG,AMNE22.JPG,AMSA24.JPG,AMSA22.JPG,AMSA23.JPG,,,,,,,,,,,,,,,,,0,3,3,9,,,,,,,AFNE19.jpg,AFNE14.jpg,AFSA16.jpg,AFSA04.jpg,AFSA16.jpg,FS,4,num_2,32,num_4,0.600179421329,,,2018_Feb_16_1507,59.9984412497,FEMA4ImagesEEG,001,202926,
AFSA21.JPG,AFNE23.JPG,AFNE21.JPG,AFSA25.JPG,AFNE25.JPG,AFSA23.JPG,,,,,,,,,,,,,,,,,0,4,4,4,,,,,,,AFSA16.jpg,AFSA12.jpg,AFNE05.jpg,AFNE04.jpg,AFSA12.jpg,FS,4,num_6,16,num_6,1.25008331192,,,2018_Feb_16_1507,59.9984412497,FEMA4ImagesEEG,001,202926,
AFSA25.JPG,AFNE24.JPG,AFSA24.JPG,AFNE21.JPG,AFSA21.JPG,AFNE25.JPG,,,,,,,,,,,,,,,,,0,5,5,2,,,,,,,AFSA10.jpg,AFNE05.jpg,AFSA17.jpg,AFNE19.jpg,AFNE19.jpg,FN,3,num_4,32,num_2,1.15009072099,,,2018_Feb_16_1507,59.9984412497,FEMA4ImagesEEG,001,202926,
AFNE23.JPG,AFNE24.JPG,AFNE22.JPG,AFSA24.JPG,AFSA22.JPG,AFSA23.JPG,,,,,,,,,,,,,,,,,0,6,6,8,,,,,,,AFNE09.jpg,AFSA18.jpg,AFNE10.jpg,AFSA07.jpg,AFNE10.jpg,FN,3,num_2,32,num_8,0.93350473619,,,2018_Feb_16_1507,59.9984412497,FEMA4ImagesEEG,001,202926,
AMSA21.JPG,AMNE23.JPG,AMNE21.JPG,AMSA25.JPG,AMNE25.JPG,AMSA23.JPG,,,,,,,,,,,,,,,,,0,7,7,5,,,,,,,AFNE18.jpg,AFSA14.jpg,AFNE06.jpg,AFSA05.jpg,AFNE18.jpg,FN,3,num_8,32,num_2,0.716774739632,,,2018_Feb_16_1507,59.9984412497,FEMA4ImagesEEG,001,202926,
AMSA21.JPG,AMNE22.JPG,AMNE21.JPG,AMSA23.JPG,AMSA22.JPG,AMNE23.JPG,,,,,,,,,,,,,,,,,0,8,8,1,,,,,,,AFSA15.jpg,AFNE13.jpg,AFNE11.jpg,AFSA18.jpg,AFNE13.jpg,FN,3,num_6,32,num_4,0.700042754493,,,2018_Feb_16_1507,59.9984412497,FEMA4ImagesEEG,001,202926,
AMNE22.JPG,AMSA24.JPG,AMSA22.JPG,AMNE25.JPG,AMNE24.JPG,AMSA25.JPG,,,,,,,,,,,,,,,,,0,9,9,7,,,,,,,AFNE16.jpg,AFNE19.jpg,AFSA08.jpg,AFSA01.jpg,AFSA08.jpg,FS,4,num_2,32,num_6,0.750050436189,,,2018_Feb_16_1507,59.9984412497,FEMA4ImagesEEG,001,202926,
AMNE23.JPG,AMNE24.JPG,AMNE22.JPG,AMSA24.JPG,AMSA22.JPG,AMSA23.JPG,,,,,,,,,,,,,,,,,,,,,0,0,0,9,,,AMNE19.jpg,AMSA06.jpg,AMNE07.jpg,AMSA10.jpg,AMNE07.jpg,MN,1,num_2,32,num_6,1.05004584962,,,2018_Feb_16_1507,59.9984412497,FEMA4ImagesEEG,001,202926,
AFNE22.JPG,AFSA24.JPG,AFSA22.JPG,AFNE25.JPG,AFNE24.JPG,AFSA25.JPG,,,,,,,,,,,,,,,,,,,,,0,1,1,6,,,AMNE08.jpg,AMSA10.jpg,AMNE09.jpg,AMSA04.jpg,AMSA04.jpg,MS,2,num_4,16,num_4,1.58313471578,,,2018_Feb_16_1507,59.9984412497,FEMA4ImagesEEG,001,202926,
AMNE22.JPG,AMSA24.JPG,AMSA22.JPG,AMNE25.JPG,AMNE24.JPG,AMSA25.JPG,,,,,,,,,,,,,,,,,,,,,0,2,2,7,,,AMSA10.jpg,AMNE10.jpg,AMSA13.jpg,AMNE16.jpg,AMSA13.jpg,MS,2,num_2,32,num_6,0.550134533923,,,2018_Feb_16_1507,59.9984412497,FEMA4ImagesEEG,001,202926,
AMSA21.JPG,AMNE23.JPG,AMNE21.JPG,AMSA25.JPG,AMNE25.JPG,AMSA23.JPG,,,,,,,,,,,,,,,,,,,,,0,3,3,5,,,AMNE13.jpg,AMSA06.jpg,AMNE12.jpg,AMSA01.jpg,AMSA06.jpg,MS,2,num_6,32,num_4,1.11680411931,,,2018_Feb_16_1507,59.9984412497,FEMA4ImagesEEG,001,202926,
AFSA25.JPG,AFNE24.JPG,AFSA24.JPG,AFNE21.JPG,AFSA21.JPG,AFNE25.JPG,,,,,,,,,,,,,,,,,,,,,0,4,4,2,,,AMSA11.jpg,AMNE15.jpg,AMNE07.jpg,AMSA12.jpg,AMSA12.jpg,MS,2,num_4,32,num_8,0.650175556426,,,2018_Feb_16_1507,59.9984412497,FEMA4ImagesEEG,001,202926,
AMSA25.JPG,AMNE24.JPG,AMSA24.JPG,AMNE26.JPG,AMSA21.JPG,AMNE25.JPG,,,,,,,,,,,,,,,,,,,,,0,5,5,3,,,AMNE14.jpg,AMNE09.jpg,AMSA10.jpg,AMSA09.jpg,AMSA10.jpg,MS,2,num_2,16,num_2,2.03339501142,,,2018_Feb_16_1507,59.9984412497,FEMA4ImagesEEG,001,202926,
AMSA21.JPG,AMNE22.JPG,AMNE21.JPG,AMSA23.JPG,AMSA22.JPG,AMNE23.JPG,,,,,,,,,,,,,,,,,,,,,0,6,6,1,,,AMSA09.jpg,AMSA10.jpg,AMNE01.jpg,AMNE11.jpg,AMNE01.jpg,MN,1,num_2,16,num_2,1.01676213459,,,2018_Feb_16_1507,59.9984412497,FEMA4ImagesEEG,001,202926,
AFSA21.JPG,AFNE22.JPG,AFNE21.JPG,AFSA23.JPG,AFSA22.JPG,AFNE23.JPG,,,,,,,,,,,,,,,,,,,,,0,7,7,0,,,AMSA18.jpg,AMNE07.jpg,AMNE13.jpg,AMSA13.jpg,AMSA18.jpg,MS,2,num_8,16,num_8,0.91674452603,,,2018_Feb_16_1507,59.9984412497,FEMA4ImagesEEG,001,202926,
AFSA21.JPG,AFNE23.JPG,AFNE21.JPG,AFSA25.JPG,AFNE25.JPG,AFSA23.JPG,,,,,,,,,,,,,,,,,,,,,0,8,8,4,,,AMNE12.jpg,AMSA10.jpg,AMSA12.jpg,AMNE02.jpg,AMSA12.jpg,MS,2,num_2,16,num_2,0.850127702184,,,2018_Feb_16_1507,59.9984412497,FEMA4ImagesEEG,001,202926,
AFNE23.JPG,AFNE24.JPG,AFNE22.JPG,AFSA24.JPG,AFSA22.JPG,AFSA23.JPG,,,,,,,,,,,,,,,,,,,,,0,9,9,8,,,AMNE05.jpg,AMNE03.jpg,AMSA07.jpg,AMSA14.jpg,AMNE03.jpg,MN,1,num_6,16,num_6,0.833465638121,,,2018_Feb_16_1507,59.9984412497,FEMA4ImagesEEG,001,202926,
,,,,,,,,,,,,,,,,,,,,,,,,,,,,,,,,,,,,,,,,,,,space,36.0639559741,2018_Feb_16_1507,59.9984412497,FEMA4ImagesEEG,001,202926,
AFNE01.JPG,AFNE01.JPG,AFNE01.JPG,AFNE01.JPG,AFNE01.JPG,AFNE01.JPG,0,0,0,9,,,,,,,,,,,,,,,,,,,,,,,AFNE07.jpg,AFNE02.jpg,AFSA11.jpg,AFSA15.jpg,AFSA11.jpg,FS,4,num_2,16,num_2,1.23331540403,,,2018_Feb_16_1507,59.9984412497,FEMA4ImagesEEG,001,202926,
AFNE01.JPG,AFNE01.JPG,AFNE01.JPG,AFNE01.JPG,AFNE01.JPG,AFNE01.JPG,0,1,1,6,,,,,,,,,,,,,,,,,,,,,,,AFNE05.jpg,AFSA16.jpg,AFNE12.jpg,AFSA17.jpg,AFSA16.jpg,FS,4,num_6,32,num_8,0.733424936357,,,2018_Feb_16_1507,59.9984412497,FEMA4ImagesEEG,001,202926,
AFNE01.JPG,AFNE01.JPG,AFNE01.JPG,AFNE01.JPG,AFNE01.JPG,AFNE01.JPG,0,2,2,8,,,,,,,,,,,,,,,,,,,,,,,AFNE06.jpg,AFSA11.jpg,AFNE03.jpg,AFSA15.jpg,AFNE03.jpg,FN,3,num_2,32,num_4,0.916762166667,,,2018_Feb_16_1507,59.9984412497,FEMA4ImagesEEG,001,202926,
AFNE01.JPG,AFNE01.JPG,AFNE01.JPG,AFNE01.JPG,AFNE01.JPG,AFNE01.JPG,0,3,3,3,,,,,,,,,,,,,,,,,,,,,,,AFSA04.jpg,AFNE09.jpg,AFSA20.jpg,AFNE08.jpg,AFSA04.jpg,FS,4,num_8,32,num_2,0.883463056173,,,2018_Feb_16_1507,59.9984412497,FEMA4ImagesEEG,001,202926,
AFNE01.JPG,AFNE01.JPG,AFNE01.JPG,AFNE01.JPG,AFNE01.JPG,AFNE01.JPG,0,4,4,5,,,,,,,,,,,,,,,,,,,,,,,AFSA12.jpg,AFNE02.jpg,AFSA01.jpg,AFNE14.jpg,AFNE02.jpg,FN,3,num_6,32,num_8,0.800157546938,,,2018_Feb_16_1507,59.9984412497,FEMA4ImagesEEG,001,202926,
AFNE01.JPG,AFNE01.JPG,AFNE01.JPG,AFNE01.JPG,AFNE01.JPG,AFNE01.JPG,0,5,5,2,,,,,,,,,,,,,,,,,,,,,,,AFNE10.jpg,AFSA10.jpg,AFSA15.jpg,AFNE06.jpg,AFNE10.jpg,FN,3,num_8,32,num_6,0.866802916543,,,2018_Feb_16_1507,59.9984412497,FEMA4ImagesEEG,001,202926,
AFNE01.JPG,AFNE01.JPG,AFNE01.JPG,AFNE01.JPG,AFNE01.JPG,AFNE01.JPG,0,6,6,1,,,,,,,,,,,,,,,,,,,,,,,AFSA07.jpg,AFNE16.jpg,AFNE03.jpg,AFSA16.jpg,AFSA16.jpg,FS,4,num_4,16,num_4,0.466793743411,,,2018_Feb_16_1507,59.9984412497,FEMA4ImagesEEG,001,202926,
AFNE01.JPG,AFNE01.JPG,AFNE01.JPG,AFNE01.JPG,AFNE01.JPG,AFNE01.JPG,0,7,7,7,,,,,,,,,,,,,,,,,,,,,,,AFSA19.jpg,AFNE12.jpg,AFNE14.jpg,AFSA02.jpg,AFNE14.jpg,FN,3,num_2,16,num_2,1.01683141419,,,2018_Feb_16_1507,59.9984412497,FEMA4ImagesEEG,001,202926,
AFNE01.JPG,AFNE01.JPG,AFNE01.JPG,AFNE01.JPG,AFNE01.JPG,AFNE01.JPG,0,8,8,0,,,,,,,,,,,,,,,,,,,,,,,AFNE12.jpg,AFSA09.jpg,AFSA04.jpg,AFNE08.jpg,AFNE08.jpg,FN,3,num_4,32,num_6,0.716671140975,,,2018_Feb_16_1507,59.9984412497,FEMA4ImagesEEG,001,202926,
AFNE01.JPG,AFNE01.JPG,AFNE01.JPG,AFNE01.JPG,AFNE01.JPG,AFNE01.JPG,0,9,9,4,,,,,,,,,,,,,,,,,,,,,,,AFNE03.jpg,AFSA08.jpg,AFNE18.jpg,AFSA01.jpg,AFSA01.jpg,FS,4,num_4,16,num_4,0.716803606131,,,2018_Feb_16_1507,59.9984412497,FEMA4ImagesEEG,001,202926,
AFNE01.JPG,AFNE01.JPG,AFNE01.JPG,AFNE01.JPG,AFNE01.JPG,AFNE01.JPG,1,0,10,8,,,,,,,,,,,,,,,,,,,,,,,AFNE10.jpg,AFSA16.jpg,AFSA09.jpg,AFNE20.jpg,AFSA09.jpg,FS,4,num_2,32,num_4,0.983441534595,,,2018_Feb_16_1507,59.9984412497,FEMA4ImagesEEG,001,202926,
AFNE01.JPG,AFNE01.JPG,AFNE01.JPG,AFNE01.JPG,AFNE01.JPG,AFNE01.JPG,1,1,11,7,,,,,,,,,,,,,,,,,,,,,,,AFSA08.jpg,AFSA14.jpg,AFNE04.jpg,AFNE18.jpg,AFSA14.jpg,FS,4,num_6,32,num_2,2.53330664786,,,2018_Feb_16_1507,59.9984412497,FEMA4ImagesEEG,001,202926,
AFNE01.JPG,AFNE01.JPG,AFNE01.JPG,AFNE01.JPG,AFNE01.JPG,AFNE01.JPG,1,2,12,3,,,,,,,,,,,,,,,,,,,,,,,AFSA18.jpg,AFNE02.jpg,AFNE15.jpg,AFSA10.jpg,AFNE15.jpg,FN,3,num_2,32,num_8,2.93328887892,,,2018_Feb_16_1507,59.9984412497,FEMA4ImagesEEG,001,202926,
AFNE01.JPG,AFNE01.JPG,AFNE01.JPG,AFNE01.JPG,AFNE01.JPG,AFNE01.JPG,1,3,13,4,,,,,,,,,,,,,,,,,,,,,,,AFSA12.jpg,AFNE18.jpg,AFSA09.jpg,AFNE08.jpg,AFNE08.jpg,FN,3,num_4,32,num_6,1.01674385248,,,2018_Feb_16_1507,59.9984412497,FEMA4ImagesEEG,001,202926,
AFNE01.JPG,AFNE01.JPG,AFNE01.JPG,AFNE01.JPG,AFNE01.JPG,AFNE01.JPG,1,4,14,9,,,,,,,,,,,,,,,,,,,,,,,AFNE03.jpg,AFNE01.jpg,AFSA12.jpg,AFSA03.jpg,AFSA12.jpg,FS,4,num_2,32,num_4,0.883445736274,,,2018_Feb_16_1507,59.9984412497,FEMA4ImagesEEG,001,202926,
AFNE01.JPG,AFNE01.JPG,AFNE01.JPG,AFNE01.JPG,AFNE01.JPG,AFNE01.JPG,1,5,15,1,,,,,,,,,,,,,,,,,,,,,,,AFSA13.jpg,AFSA14.jpg,AFNE02.jpg,AFNE18.jpg,AFNE02.jpg,FN,3,num_2,16,num_2,1.15007724996,,,2018_Feb_16_1507,59.9984412497,FEMA4ImagesEEG,001,202926,
AFNE01.JPG,AFNE01.JPG,AFNE01.JPG,AFNE01.JPG,AFNE01.JPG,AFNE01.JPG,1,6,16,2,,,,,,,,,,,,,,,,,,,,,,,AFSA09.jpg,AFSA11.jpg,AFNE12.jpg,AFNE20.jpg,AFNE20.jpg,FN,3,num_4,32,num_8,0.600151196309,,,2018_Feb_16_1507,59.9984412497,FEMA4ImagesEEG,001,202926,
AFNE01.JPG,AFNE01.JPG,AFNE01.JPG,AFNE01.JPG,AFNE01.JPG,AFNE01.JPG,1,7,17,0,,,,,,,,,,,,,,,,,,,,,,,AFNE17.jpg,AFSA08.jpg,AFNE01.jpg,AFSA09.jpg,AFSA09.jpg,FS,4,num_4,32,num_6,0.883461131741,,,2018_Feb_16_1507,59.9984412497,FEMA4ImagesEEG,001,202926,
AFNE01.JPG,AFNE01.JPG,AFNE01.JPG,AFNE01.JPG,AFNE01.JPG,AFNE01.JPG,1,8,18,6,,,,,,,,,,,,,,,,,,,,,,,AFNE17.jpg,AFNE14.jpg,AFSA11.jpg,AFSA20.jpg,AFNE14.jpg,FN,3,num_6,32,num_2,0.56684727473,,,2018_Feb_16_1507,59.9984412497,FEMA4ImagesEEG,001,202926,
AFNE01.JPG,AFNE01.JPG,AFNE01.JPG,AFNE01.JPG,AFNE01.JPG,AFNE01.JPG,1,9,19,5,,,,,,,,,,,,,,,,,,,,,,,AFNE10.jpg,AFSA20.jpg,AFSA11.jpg,AFNE20.jpg,AFSA11.jpg,FS,4,num_2,16,num_2,0.817064655505,,,2018_Feb_16_1507,59.9984412497,FEMA4ImagesEEG,001,202926,
AFNE01.JPG,AFNE01.JPG,AFNE01.JPG,AFNE01.JPG,AFNE01.JPG,AFNE01.JPG,2,0,20,6,,,,,,,,,,,,,,,,,,,,,,,AFNE09.jpg,AFSA10.jpg,AFNE07.jpg,AFSA04.jpg,AFSA10.jpg,FS,4,num_6,32,num_8,0.800162358021,,,2018_Feb_16_1507,59.9984412497,FEMA4ImagesEEG,001,202926,
AFNE01.JPG,AFNE01.JPG,AFNE01.JPG,AFNE01.JPG,AFNE01.JPG,AFNE01.JPG,2,1,21,2,,,,,,,,,,,,,,,,,,,,,,,AFSA17.jpg,AFNE09.jpg,AFNE15.jpg,AFSA08.jpg,AFSA08.jpg,FS,4,num_4,32,num_2,0.75011298027,,,2018_Feb_16_1507,59.9984412497,FEMA4ImagesEEG,001,202926,
AFNE01.JPG,AFNE01.JPG,AFNE01.JPG,AFNE01.JPG,AFNE01.JPG,AFNE01.JPG,2,2,22,0,,,,,,,,,,,,,,,,,,,,,,,AFSA06.jpg,AFNE18.jpg,AFSA18.jpg,AFNE04.jpg,AFNE18.jpg,FN,3,num_6,32,num_8,1.46669495584,,,2018_Feb_16_1507,59.9984412497,FEMA4ImagesEEG,001,202926,
AFNE01.JPG,AFNE01.JPG,AFNE01.JPG,AFNE01.JPG,AFNE01.JPG,AFNE01.JPG,2,3,23,5,,,,,,,,,,,,,,,,,,,,,,,AFSA04.jpg,AFSA18.jpg,AFNE02.jpg,AFNE14.jpg,AFNE02.jpg,FN,3,num_2,16,num_2,1.11671238799,,,2018_Feb_16_1507,59.9984412497,FEMA4ImagesEEG,001,202926,
AFNE01.JPG,AFNE01.JPG,AFNE01.JPG,AFNE01.JPG,AFNE01.JPG,AFNE01.JPG,2,4,24,8,,,,,,,,,,,,,,,,,,,,,,,AFSA11.jpg,AFNE15.jpg,AFSA03.jpg,AFNE14.jpg,AFSA03.jpg,FS,4,num_2,16,num_2,1.36673443879,,,2018_Feb_16_1507,59.9984412497,FEMA4ImagesEEG,001,202926,
AFNE01.JPG,AFNE01.JPG,AFNE01.JPG,AFNE01.JPG,AFNE01.JPG,AFNE01.JPG,2,5,25,9,,,,,,,,,,,,,,,,,,,,,,,AFNE13.jpg,AFSA12.jpg,AFNE11.jpg,AFSA07.jpg,AFNE11.jpg,FN,3,num_2,32,num_8,1.2500913304,,,2018_Feb_16_1507,59.9984412497,FEMA4ImagesEEG,001,202926,
AFNE01.JPG,AFNE01.JPG,AFNE01.JPG,AFNE01.JPG,AFNE01.JPG,AFNE01.JPG,2,6,26,1,,,,,,,,,,,,,,,,,,,,,,,AFSA03.jpg,AFSA08.jpg,AFNE01.jpg,AFNE13.jpg,AFSA08.jpg,FS,4,num_6,32,num_2,0.583495867761,,,2018_Feb_16_1507,59.9984412497,FEMA4ImagesEEG,001,202926,
AFNE01.JPG,AFNE01.JPG,AFNE01.JPG,AFNE01.JPG,AFNE01.JPG,AFNE01.JPG,2,7,27,4,,,,,,,,,,,,,,,,,,,,,,,AFSA01.jpg,AFNE20.jpg,AFNE17.jpg,AFSA13.jpg,AFSA01.jpg,FS,4,num_8,32,num_4,0.716538034339,,,2018_Feb_16_1507,59.9984412497,FEMA4ImagesEEG,001,202926,
AFNE01.JPG,AFNE01.JPG,AFNE01.JPG,AFNE01.JPG,AFNE01.JPG,AFNE01.JPG,2,8,28,3,,,,,,,,,,,,,,,,,,,,,,,AFNE01.jpg,AFSA13.jpg,AFSA18.jpg,AFNE17.jpg,AFNE17.jpg,FN,3,num_4,32,num_8,0.616797223427,,,2018_Feb_16_1507,59.9984412497,FEMA4ImagesEEG,001,202926,
AFNE01.JPG,AFNE01.JPG,AFNE01.JPG,AFNE01.JPG,AFNE01.JPG,AFNE01.JPG,2,9,29,7,,,,,,,,,,,,,,,,,,,,,,,AFSA16.jpg,AFSA06.jpg,AFNE09.jpg,AFNE18.jpg,AFNE18.jpg,FN,3,num_4,32,num_2,1.0834520869,,,2018_Feb_16_1507,59.9984412497,FEMA4ImagesEEG,001,202926,
AFNE01.JPG,AFNE01.JPG,AFNE01.JPG,AFNE01.JPG,AFNE01.JPG,AFNE01.JPG,3,0,30,6,,,,,,,,,,,,,,,,,,,,,,,AFNE07.jpg,AFSA07.jpg,AFNE10.jpg,AFSA05.jpg,AFNE07.jpg,FN,3,num_8,32,num_6,0.83350605122,,,2018_Feb_16_1507,59.9984412497,FEMA4ImagesEEG,001,202926,
AFNE01.JPG,AFNE01.JPG,AFNE01.JPG,AFNE01.JPG,AFNE01.JPG,AFNE01.JPG,3,1,31,9,,,,,,,,,,,,,,,,,,,,,,,AFNE17.jpg,AFSA13.jpg,AFSA09.jpg,AFNE12.jpg,AFNE17.jpg,FN,3,num_8,32,num_2,0.733464707979,,,2018_Feb_16_1507,59.9984412497,FEMA4ImagesEEG,001,202926,
AFNE01.JPG,AFNE01.JPG,AFNE01.JPG,AFNE01.JPG,AFNE01.JPG,AFNE01.JPG,3,2,32,7,,,,,,,,,,,,,,,,,,,,,,,AFSA13.jpg,AFSA10.jpg,AFNE16.jpg,AFNE13.jpg,AFNE13.jpg,FN,3,num_4,32,num_8,0.516837668601,,,2018_Feb_16_1507,59.9984412497,FEMA4ImagesEEG,001,202926,
AFNE01.JPG,AFNE01.JPG,AFNE01.JPG,AFNE01.JPG,AFNE01.JPG,AFNE01.JPG,3,3,33,4,,,,,,,,,,,,,,,,,,,,,,,AFSA01.jpg,AFNE05.jpg,AFSA05.jpg,AFNE04.jpg,AFNE05.jpg,FN,3,num_6,16,num_6,0.683437781949,,,2018_Feb_16_1507,59.9984412497,FEMA4ImagesEEG,001,202926,
AFNE01.JPG,AFNE01.JPG,AFNE01.JPG,AFNE01.JPG,AFNE01.JPG,AFNE01.JPG,3,4,34,0,,,,,,,,,,,,,,,,,,,,,,,AFNE04.jpg,AFNE05.jpg,AFSA10.jpg,AFSA20.jpg,AFNE04.jpg,FN,3,num_8,16,num_8,1.18341709429,,,2018_Feb_16_1507,59.9984412497,FEMA4ImagesEEG,001,202926,
AFNE01.JPG,AFNE01.JPG,AFNE01.JPG,AFNE01.JPG,AFNE01.JPG,AFNE01.JPG,3,5,35,1,,,,,,,,,,,,,,,,,,,,,,,AFNE17.jpg,AFNE09.jpg,AFSA12.jpg,AFSA14.jpg,AFSA12.jpg,FS,4,num_2,16,num_2,2.18336737977,,,2018_Feb_16_1507,59.9984412497,FEMA4ImagesEEG,001,202926,
AFNE01.JPG,AFNE01.JPG,AFNE01.JPG,AFNE01.JPG,AFNE01.JPG,AFNE01.JPG,3,6,36,5,,,,,,,,,,,,,,,,,,,,,,,AFNE16.jpg,AFSA08.jpg,AFNE17.jpg,AFSA10.jpg,AFNE17.jpg,FN,3,num_2,32,num_4,0.550209266082,,,2018_Feb_16_1507,59.9984412497,FEMA4ImagesEEG,001,202926,
AFNE01.JPG,AFNE01.JPG,AFNE01.JPG,AFNE01.JPG,AFNE01.JPG,AFNE01.JPG,3,7,37,8,,,,,,,,,,,,,,,,,,,,,,,AFNE20.jpg,AFSA17.jpg,AFSA06.jpg,AFNE16.jpg,AFNE16.jpg,FN,3,num_4,32,num_6,0.41677868472,,,2018_Feb_16_1507,59.9984412497,FEMA4ImagesEEG,001,202926,
AFNE01.JPG,AFNE01.JPG,AFNE01.JPG,AFNE01.JPG,AFNE01.JPG,AFNE01.JPG,3,8,38,3,,,,,,,,,,,,,,,,,,,,,,,AFSA02.jpg,AFNE16.jpg,AFNE09.jpg,AFSA01.jpg,AFNE16.jpg,FN,3,num_6,32,num_2,0.516840875989,,,2018_Feb_16_1507,59.9984412497,FEMA4ImagesEEG,001,202926,
AFNE01.JPG,AFNE01.JPG,AFNE01.JPG,AFNE01.JPG,AFNE01.JPG,AFNE01.JPG,3,9,39,2,,,,,,,,,,,,,,,,,,,,,,,AFSA08.jpg,AFSA09.jpg,AFNE06.jpg,AFNE14.jpg,AFNE14.jpg,FN,3,num_4,32,num_8,0.616811335938,,,2018_Feb_16_1507,59.9984412497,FEMA4ImagesEEG,001,202926,
AFNE01.JPG,AFNE01.JPG,AFNE01.JPG,AFNE01.JPG,AFNE01.JPG,AFNE01.JPG,4,0,40,6,,,,,,,,,,,,,,,,,,,,,,,AFNE16.jpg,AFNE13.jpg,AFSA02.jpg,AFSA11.jpg,AFNE16.jpg,FN,3,num_8,32,num_6,0.63344517498,,,2018_Feb_16_1507,59.9984412497,FEMA4ImagesEEG,001,202926,
AFNE01.JPG,AFNE01.JPG,AFNE01.JPG,AFNE01.JPG,AFNE01.JPG,AFNE01.JPG,4,1,41,2,,,,,,,,,,,,,,,,,,,,,,,AFSA20.jpg,AFNE07.jpg,AFNE08.jpg,AFSA04.jpg,AFSA04.jpg,FS,4,num_4,16,num_4,0.6002393995,,,2018_Feb_16_1507,59.9984412497,FEMA4ImagesEEG,001,202926,
AFNE01.JPG,AFNE01.JPG,AFNE01.JPG,AFNE01.JPG,AFNE01.JPG,AFNE01.JPG,4,2,42,0,,,,,,,,,,,,,,,,,,,,,,,AFSA13.jpg,AFNE04.jpg,AFNE02.jpg,AFSA19.jpg,AFSA19.jpg,FS,4,num_4,16,num_4,1.05011961957,,,2018_Feb_16_1507,59.9984412497,FEMA4ImagesEEG,001,202926,
AFNE01.JPG,AFNE01.JPG,AFNE01.JPG,AFNE01.JPG,AFNE01.JPG,AFNE01.JPG,4,3,43,7,,,,,,,,,,,,,,,,,,,,,,,AFNE19.jpg,AFSA10.jpg,AFNE03.jpg,AFSA14.jpg,AFSA14.jpg,FS,4,num_4,16,num_4,0.733446105123,,,2018_Feb_16_1507,59.9984412497,FEMA4ImagesEEG,001,202926,
AFNE01.JPG,AFNE01.JPG,AFNE01.JPG,AFNE01.JPG,AFNE01.JPG,AFNE01.JPG,4,4,44,3,,,,,,,,,,,,,,,,,,,,,,,AFSA14.jpg,AFNE07.jpg,AFSA03.jpg,AFNE12.jpg,AFSA03.jpg,FS,4,num_2,32,num_6,0.866780464821,,,2018_Feb_16_1507,59.9984412497,FEMA4ImagesEEG,001,202926,
AFNE01.JPG,AFNE01.JPG,AFNE01.JPG,AFNE01.JPG,AFNE01.JPG,AFNE01.JPG,4,5,45,9,,,,,,,,,,,,,,,,,,,,,,,AFNE15.jpg,AFNE04.jpg,AFSA13.jpg,AFSA07.jpg,AFNE15.jpg,FN,3,num_8,32,num_2,1.45013200009,,,2018_Feb_16_1507,59.9984412497,FEMA4ImagesEEG,001,202926,
AFNE01.JPG,AFNE01.JPG,AFNE01.JPG,AFNE01.JPG,AFNE01.JPG,AFNE01.JPG,4,6,46,4,,,,,,,,,,,,,,,,,,,,,,,AFNE07.jpg,AFSA16.jpg,AFSA13.jpg,AFNE14.jpg,AFNE14.jpg,FN,3,num_4,32,num_8,1.1834328105,,,2018_Feb_16_1507,59.9984412497,FEMA4ImagesEEG,001,202926,
AFNE01.JPG,AFNE01.JPG,AFNE01.JPG,AFNE01.JPG,AFNE01.JPG,AFNE01.JPG,4,7,47,5,,,,,,,,,,,,,,,,,,,,,,,AFSA04.jpg,AFSA07.jpg,AFNE17.jpg,AFNE02.jpg,AFSA04.jpg,FS,4,num_8,32,num_2,2.5833130466,,,2018_Feb_16_1507,59.9984412497,FEMA4ImagesEEG,001,202926,
AFNE01.JPG,AFNE01.JPG,AFNE01.JPG,AFNE01.JPG,AFNE01.JPG,AFNE01.JPG,4,8,48,8,,,,,,,,,,,,,,,,,,,,,,,AFNE09.jpg,AFNE06.jpg,AFSA19.jpg,AFSA03.jpg,AFNE09.jpg,FN,3,num_8,16,num_8,2.76663135332,,,2018_Feb_16_1507,59.9984412497,FEMA4ImagesEEG,001,202926,
AFNE01.JPG,AFNE01.JPG,AFNE01.JPG,AFNE01.JPG,AFNE01.JPG,AFNE01.JPG,4,9,49,1,,,,,,,,,,,,,,,,,,,,,,,AFNE07.jpg,AFNE20.jpg,AFSA05.jpg,AFSA01.jpg,AFNE07.jpg,FN,3,num_8,32,num_6,0.566511781862,,,2018_Feb_16_1507,59.9984412497,FEMA4ImagesEEG,001,202926,
AFNE01.JPG,AFNE01.JPG,AFNE01.JPG,AFNE01.JPG,AFNE01.JPG,AFNE01.JPG,5,0,50,8,,,,,,,,,,,,,,,,,,,,,,,AFSA11.jpg,AFNE07.jpg,AFSA10.jpg,AFNE13.jpg,AFNE07.jpg,FN,3,num_6,32,num_4,0.683460875149,,,2018_Feb_16_1507,59.9984412497,FEMA4ImagesEEG,001,202926,
AFNE01.JPG,AFNE01.JPG,AFNE01.JPG,AFNE01.JPG,AFNE01.JPG,AFNE01.JPG,5,1,51,2,,,,,,,,,,,,,,,,,,,,,,,AFSA10.jpg,AFNE16.jpg,AFNE13.jpg,AFSA14.jpg,AFNE16.jpg,FN,3,num_6,32,num_2,0.883450868096,,,2018_Feb_16_1507,59.9984412497,FEMA4ImagesEEG,001,202926,
AFNE01.JPG,AFNE01.JPG,AFNE01.JPG,AFNE01.JPG,AFNE01.JPG,AFNE01.JPG,5,2,52,1,,,,,,,,,,,,,,,,,,,,,,,AFSA04.jpg,AFNE13.jpg,AFNE17.jpg,AFSA13.jpg,AFSA13.jpg,FS,4,num_4,16,num_4,0.783497728046,,,2018_Feb_16_1507,59.9984412497,FEMA4ImagesEEG,001,202926,
AFNE01.JPG,AFNE01.JPG,AFNE01.JPG,AFNE01.JPG,AFNE01.JPG,AFNE01.JPG,5,3,53,9,,,,,,,,,,,,,,,,,,,,,,,AFSA19.jpg,AFNE09.jpg,AFSA13.jpg,AFNE13.jpg,AFSA13.jpg,FS,4,num_2,32,num_4,0.833447997483,,,2018_Feb_16_1507,59.9984412497,FEMA4ImagesEEG,001,202926,
AFNE01.JPG,AFNE01.JPG,AFNE01.JPG,AFNE01.JPG,AFNE01.JPG,AFNE01.JPG,5,4,54,5,,,,,,,,,,,,,,,,,,,,,,,AFSA11.jpg,AFSA09.jpg,AFNE01.jpg,AFNE17.jpg,AFNE17.jpg,FN,3,num_4,32,num_6,0.933501528802,,,2018_Feb_16_1507,59.9984412497,FEMA4ImagesEEG,001,202926,
AFNE01.JPG,AFNE01.JPG,AFNE01.JPG,AFNE01.JPG,AFNE01.JPG,AFNE01.JPG,5,5,55,6,,,,,,,,,,,,,,,,,,,,,,,AFSA12.jpg,AFSA02.jpg,AFNE07.jpg,AFNE04.jpg,AFNE04.jpg,FN,3,num_4,32,num_8,1.56672122435,,,2018_Feb_16_1507,59.9984412497,FEMA4ImagesEEG,001,202926,
AFNE01.JPG,AFNE01.JPG,AFNE01.JPG,AFNE01.JPG,AFNE01.JPG,AFNE01.JPG,5,6,56,3,,,,,,,,,,,,,,,,,,,,,,,AFNE01.jpg,AFSA08.jpg,AFNE19.jpg,AFSA19.jpg,AFSA08.jpg,FS,4,num_6,32,num_2,0.65011140865,,,2018_Feb_16_1507,59.9984412497,FEMA4ImagesEEG,001,202926,
AFNE01.JPG,AFNE01.JPG,AFNE01.JPG,AFNE01.JPG,AFNE01.JPG,AFNE01.JPG,5,7,57,0,,,,,,,,,,,,,,,,,,,,,,,AFSA07.jpg,AFNE19.jpg,AFNE09.jpg,AFSA13.jpg,AFNE09.jpg,FN,3,num_2,32,num_6,0.716820284553,,,2018_Feb_16_1507,59.9984412497,FEMA4ImagesEEG,001,202926,
AFNE01.JPG,AFNE01.JPG,AFNE01.JPG,AFNE01.JPG,AFNE01.JPG,AFNE01.JPG,5,8,58,7,,,,,,,,,,,,,,,,,,,,,,,AFNE11.jpg,AFSA17.jpg,AFNE08.jpg,AFSA20.jpg,AFNE08.jpg,FN,3,num_2,16,num_2,0.383488554914,,,2018_Feb_16_1507,59.9984412497,FEMA4ImagesEEG,001,202926,
AFNE01.JPG,AFNE01.JPG,AFNE01.JPG,AFNE01.JPG,AFNE01.JPG,AFNE01.JPG,5,9,59,4,,,,,,,,,,,,,,,,,,,,,,,AFSA13.jpg,AFSA07.jpg,AFNE01.jpg,AFNE14.jpg,AFNE01.jpg,FN,3,num_2,32,num_8,0.566799163898,,,2018_Feb_16_1507,59.9984412497,FEMA4ImagesEEG,001,202926,
,,,,,,,,,,,,,,,,,,,,,,,,,,,,,,,,,,,,,,,,,,,space,43.6799651421,2018_Feb_16_1507,59.9984412497,FEMA4ImagesEEG,001,202926,
AFNE01.JPG,AFNE01.JPG,AFNE01.JPG,AFNE01.JPG,AFNE01.JPG,AFNE01.JPG,,,,,0,0,0,0,,,,,,,,,,,,,,,,,,,AMSA02.jpg,AMNE07.jpg,AMSA08.jpg,AMNE11.jpg,AMSA08.jpg,MS,2,num_2,32,num_6,0.783498048785,,,2018_Feb_16_1507,59.9984412497,FEMA4ImagesEEG,001,202926,
AFNE01.JPG,AFNE01.JPG,AFNE01.JPG,AFNE01.JPG,AFNE01.JPG,AFNE01.JPG,,,,,0,1,1,7,,,,,,,,,,,,,,,,,,,AMSA15.jpg,AMNE16.jpg,AMSA11.jpg,AMNE14.jpg,AMSA11.jpg,MS,2,num_2,32,num_4,0.766843682455,,,2018_Feb_16_1507,59.9984412497,FEMA4ImagesEEG,001,202926,
AFNE01.JPG,AFNE01.JPG,AFNE01.JPG,AFNE01.JPG,AFNE01.JPG,AFNE01.JPG,,,,,0,2,2,2,,,,,,,,,,,,,,,,,,,AMSA08.jpg,AMNE07.jpg,AMNE15.jpg,AMSA15.jpg,AMNE07.jpg,MN,1,num_6,32,num_2,0.933240768092,,,2018_Feb_16_1507,59.9984412497,FEMA4ImagesEEG,001,202926,
AFNE01.JPG,AFNE01.JPG,AFNE01.JPG,AFNE01.JPG,AFNE01.JPG,AFNE01.JPG,,,,,0,3,3,9,,,,,,,,,,,,,,,,,,,AMNE01.jpg,AMSA19.jpg,AMSA03.jpg,AMNE14.jpg,AMNE01.jpg,MN,1,num_8,32,num_6,0.733564137031,,,2018_Feb_16_1507,59.9984412497,FEMA4ImagesEEG,001,202926,
AFNE01.JPG,AFNE01.JPG,AFNE01.JPG,AFNE01.JPG,AFNE01.JPG,AFNE01.JPG,,,,,0,4,4,5,,,,,,,,,,,,,,,,,,,AMSA06.jpg,AMNE03.jpg,AMNE20.jpg,AMSA09.jpg,AMSA06.jpg,MS,2,num_8,16,num_8,0.716806172043,,,2018_Feb_16_1507,59.9984412497,FEMA4ImagesEEG,001,202926,
AFNE01.JPG,AFNE01.JPG,AFNE01.JPG,AFNE01.JPG,AFNE01.JPG,AFNE01.JPG,,,,,0,5,5,8,,,,,,,,,,,,,,,,,,,AMSA19.jpg,AMNE17.jpg,AMSA08.jpg,AMNE19.jpg,AMNE19.jpg,MN,1,num_4,16,num_4,0.81662235659,,,2018_Feb_16_1507,59.9984412497,FEMA4ImagesEEG,001,202926,
AFNE01.JPG,AFNE01.JPG,AFNE01.JPG,AFNE01.JPG,AFNE01.JPG,AFNE01.JPG,,,,,0,6,6,4,,,,,,,,,,,,,,,,,,,AMNE01.jpg,AMSA03.jpg,AMNE08.jpg,AMSA14.jpg,AMNE08.jpg,MN,1,num_2,32,num_8,0.666779246013,,,2018_Feb_16_1507,59.9984412497,FEMA4ImagesEEG,001,202926,
AFNE01.JPG,AFNE01.JPG,AFNE01.JPG,AFNE01.JPG,AFNE01.JPG,AFNE01.JPG,,,,,0,7,7,3,,,,,,,,,,,,,,,,,,,AMNE08.jpg,AMSA12.jpg,AMSA08.jpg,AMNE20.jpg,AMSA12.jpg,MS,2,num_6,16,num_6,0.466803044838,,,2018_Feb_16_1507,59.9984412497,FEMA4ImagesEEG,001,202926,
AFNE01.JPG,AFNE01.JPG,AFNE01.JPG,AFNE01.JPG,AFNE01.JPG,AFNE01.JPG,,,,,0,8,8,6,,,,,,,,,,,,,,,,,,,AMNE09.jpg,AMNE06.jpg,AMSA11.jpg,AMSA15.jpg,AMNE06.jpg,MN,1,num_6,32,num_2,0.450141942992,,,2018_Feb_16_1507,59.9984412497,FEMA4ImagesEEG,001,202926,
AFNE01.JPG,AFNE01.JPG,AFNE01.JPG,AFNE01.JPG,AFNE01.JPG,AFNE01.JPG,,,,,0,9,9,1,,,,,,,,,,,,,,,,,,,AMNE10.jpg,AMSA08.jpg,AMSA16.jpg,AMNE07.jpg,AMSA08.jpg,MS,2,num_6,32,num_4,0.566785372126,,,2018_Feb_16_1507,59.9984412497,FEMA4ImagesEEG,001,202926,
AFNE01.JPG,AFNE01.JPG,AFNE01.JPG,AFNE01.JPG,AFNE01.JPG,AFNE01.JPG,,,,,1,0,10,9,,,,,,,,,,,,,,,,,,,AMSA04.jpg,AMNE06.jpg,AMSA20.jpg,AMNE13.jpg,AMSA20.jpg,MS,2,num_2,32,num_8,1.10012601831,,,2018_Feb_16_1507,59.9984412497,FEMA4ImagesEEG,001,202926,
AFNE01.JPG,AFNE01.JPG,AFNE01.JPG,AFNE01.JPG,AFNE01.JPG,AFNE01.JPG,,,,,1,1,11,6,,,,,,,,,,,,,,,,,,,AMNE11.jpg,AMSA04.jpg,AMSA11.jpg,AMNE15.jpg,AMNE11.jpg,MN,1,num_8,32,num_4,0.850123853318,,,2018_Feb_16_1507,59.9984412497,FEMA4ImagesEEG,001,202926,
AFNE01.JPG,AFNE01.JPG,AFNE01.JPG,AFNE01.JPG,AFNE01.JPG,AFNE01.JPG,,,,,1,2,12,3,,,,,,,,,,,,,,,,,,,AMSA07.jpg,AMNE06.jpg,AMNE10.jpg,AMSA17.jpg,AMSA17.jpg,MS,2,num_4,32,num_2,0.583542695637,,,2018_Feb_16_1507,59.9984412497,FEMA4ImagesEEG,001,202926,
AFNE01.JPG,AFNE01.JPG,AFNE01.JPG,AFNE01.JPG,AFNE01.JPG,AFNE01.JPG,,,,,1,3,13,8,,,,,,,,,,,,,,,,,,,AMNE10.jpg,AMSA20.jpg,AMNE09.jpg,AMSA04.jpg,AMSA20.jpg,MS,2,num_6,32,num_8,0.616781186483,,,2018_Feb_16_1507,59.9984412497,FEMA4ImagesEEG,001,202926,
AFNE01.JPG,AFNE01.JPG,AFNE01.JPG,AFNE01.JPG,AFNE01.JPG,AFNE01.JPG,,,,,1,4,14,0,,,,,,,,,,,,,,,,,,,AMSA07.jpg,AMNE08.jpg,AMSA06.jpg,AMNE06.jpg,AMNE06.jpg,MN,1,num_4,32,num_8,0.633547811422,,,2018_Feb_16_1507,59.9984412497,FEMA4ImagesEEG,001,202926,
AFNE01.JPG,AFNE01.JPG,AFNE01.JPG,AFNE01.JPG,AFNE01.JPG,AFNE01.JPG,,,,,1,5,15,1,,,,,,,,,,,,,,,,,,,AMNE16.jpg,AMNE19.jpg,AMSA09.jpg,AMSA14.jpg,AMNE16.jpg,MN,1,num_8,32,num_6,0.633494248029,,,2018_Feb_16_1507,59.9984412497,FEMA4ImagesEEG,001,202926,
AFNE01.JPG,AFNE01.JPG,AFNE01.JPG,AFNE01.JPG,AFNE01.JPG,AFNE01.JPG,,,,,1,6,16,5,,,,,,,,,,,,,,,,,,,AMNE07.jpg,AMNE02.jpg,AMSA07.jpg,AMSA12.jpg,AMSA07.jpg,MS,2,num_2,16,num_2,0.933451493536,,,2018_Feb_16_1507,59.9984412497,FEMA4ImagesEEG,001,202926,
AFNE01.JPG,AFNE01.JPG,AFNE01.JPG,AFNE01.JPG,AFNE01.JPG,AFNE01.JPG,,,,,1,7,17,4,,,,,,,,,,,,,,,,,,,AMNE08.jpg,AMSA09.jpg,AMNE11.jpg,AMSA20.jpg,AMSA20.jpg,MS,2,num_4,32,num_6,0.766789798323,,,2018_Feb_16_1507,59.9984412497,FEMA4ImagesEEG,001,202926,
AFNE01.JPG,AFNE01.JPG,AFNE01.JPG,AFNE01.JPG,AFNE01.JPG,AFNE01.JPG,,,,,1,8,18,7,,,,,,,,,,,,,,,,,,,AMSA04.jpg,AMNE14.jpg,AMNE05.jpg,AMSA05.jpg,AMSA04.jpg,MS,2,num_8,16,num_8,0.933442833586,,,2018_Feb_16_1507,59.9984412497,FEMA4ImagesEEG,001,202926,
AFNE01.JPG,AFNE01.JPG,AFNE01.JPG,AFNE01.JPG,AFNE01.JPG,AFNE01.JPG,,,,,1,9,19,2,,,,,,,,,,,,,,,,,,,AMNE05.jpg,AMNE01.jpg,AMSA12.jpg,AMSA06.jpg,AMSA12.jpg,MS,2,num_2,16,num_2,2.06652060218,,,2018_Feb_16_1507,59.9984412497,FEMA4ImagesEEG,001,202926,
AFNE01.JPG,AFNE01.JPG,AFNE01.JPG,AFNE01.JPG,AFNE01.JPG,AFNE01.JPG,,,,,2,0,20,0,,,,,,,,,,,,,,,,,,,AMNE08.jpg,AMNE13.jpg,AMSA02.jpg,AMSA11.jpg,AMSA11.jpg,MS,2,num_4,16,num_4,0.90009849891,,,2018_Feb_16_1507,59.9984412497,FEMA4ImagesEEG,001,202926,
AFNE01.JPG,AFNE01.JPG,AFNE01.JPG,AFNE01.JPG,AFNE01.JPG,AFNE01.JPG,,,,,2,1,21,9,,,,,,,,,,,,,,,,,,,AMSA19.jpg,AMSA10.jpg,AMNE16.jpg,AMNE14.jpg,AMSA10.jpg,MS,2,num_6,16,num_6,0.650124238206,,,2018_Feb_16_1507,59.9984412497,FEMA4ImagesEEG,001,202926,
AFNE01.JPG,AFNE01.JPG,AFNE01.JPG,AFNE01.JPG,AFNE01.JPG,AFNE01.JPG,,,,,2,2,22,7,,,,,,,,,,,,,,,,,,,AMSA10.jpg,AMNE05.jpg,AMSA20.jpg,AMNE09.jpg,AMSA20.jpg,MS,2,num_2,32,num_8,0.68347210101,,,2018_Feb_16_1507,59.9984412497,FEMA4ImagesEEG,001,202926,
AFNE01.JPG,AFNE01.JPG,AFNE01.JPG,AFNE01.JPG,AFNE01.JPG,AFNE01.JPG,,,,,2,3,23,6,,,,,,,,,,,,,,,,,,,AMSA03.jpg,AMNE08.jpg,AMNE04.jpg,AMSA18.jpg,AMSA03.jpg,MS,2,num_8,32,num_4,0.616782790178,,,2018_Feb_16_1507,59.9984412497,FEMA4ImagesEEG,001,202926,
AFNE01.JPG,AFNE01.JPG,AFNE01.JPG,AFNE01.JPG,AFNE01.JPG,AFNE01.JPG,,,,,2,4,24,4,,,,,,,,,,,,,,,,,,,AMNE17.jpg,AMSA12.jpg,AMSA14.jpg,AMNE10.jpg,AMSA14.jpg,MS,2,num_2,16,num_2,0.816830195385,,,2018_Feb_16_1507,59.9984412497,FEMA4ImagesEEG,001,202926,
AFNE01.JPG,AFNE01.JPG,AFNE01.JPG,AFNE01.JPG,AFNE01.JPG,AFNE01.JPG,,,,,2,5,25,1,,,,,,,,,,,,,,,,,,,AMSA19.jpg,AMNE14.jpg,AMNE04.jpg,AMSA09.jpg,AMNE14.jpg,MN,1,num_6,16,num_6,1.38309981939,,,2018_Feb_16_1507,59.9984412497,FEMA4ImagesEEG,001,202926,
AFNE01.JPG,AFNE01.JPG,AFNE01.JPG,AFNE01.JPG,AFNE01.JPG,AFNE01.JPG,,,,,2,6,26,5,,,,,,,,,,,,,,,,,,,AMNE17.jpg,AMNE07.jpg,AMSA16.jpg,AMSA13.jpg,AMNE17.jpg,MN,1,num_8,16,num_8,1.11677621503,,,2018_Feb_16_1507,59.9984412497,FEMA4ImagesEEG,001,202926,
AFNE01.JPG,AFNE01.JPG,AFNE01.JPG,AFNE01.JPG,AFNE01.JPG,AFNE01.JPG,,,,,2,7,27,8,,,,,,,,,,,,,,,,,,,AMNE06.jpg,AMSA10.jpg,AMNE14.jpg,AMSA16.jpg,AMNE14.jpg,MN,1,num_2,32,num_6,1.10005866314,,,2018_Feb_16_1507,59.9984412497,FEMA4ImagesEEG,001,202926,
AFNE01.JPG,AFNE01.JPG,AFNE01.JPG,AFNE01.JPG,AFNE01.JPG,AFNE01.JPG,,,,,2,8,28,2,,,,,,,,,,,,,,,,,,,AMNE20.jpg,AMNE15.jpg,AMSA03.jpg,AMSA11.jpg,AMSA03.jpg,MS,2,num_2,32,num_8,0.950118047945,,,2018_Feb_16_1507,59.9984412497,FEMA4ImagesEEG,001,202926,
AFNE01.JPG,AFNE01.JPG,AFNE01.JPG,AFNE01.JPG,AFNE01.JPG,AFNE01.JPG,,,,,2,9,29,3,,,,,,,,,,,,,,,,,,,AMNE18.jpg,AMSA19.jpg,AMSA09.jpg,AMNE09.jpg,AMSA19.jpg,MS,2,num_6,32,num_4,0.466778347944,,,2018_Feb_16_1507,59.9984412497,FEMA4ImagesEEG,001,202926,
AFNE01.JPG,AFNE01.JPG,AFNE01.JPG,AFNE01.JPG,AFNE01.JPG,AFNE01.JPG,,,,,3,0,30,5,,,,,,,,,,,,,,,,,,,AMSA16.jpg,AMSA13.jpg,AMNE10.jpg,AMNE11.jpg,AMNE11.jpg,MN,1,num_4,32,num_2,4.04992300663,,,2018_Feb_16_1507,59.9984412497,FEMA4ImagesEEG,001,202926,
AFNE01.JPG,AFNE01.JPG,AFNE01.JPG,AFNE01.JPG,AFNE01.JPG,AFNE01.JPG,,,,,3,1,31,8,,,,,,,,,,,,,,,,,,,AMNE14.jpg,AMSA20.jpg,AMSA04.jpg,AMNE10.jpg,AMSA20.jpg,MS,2,num_6,16,num_6,0.550130043579,,,2018_Feb_16_1507,59.9984412497,FEMA4ImagesEEG,001,202926,
AFNE01.JPG,AFNE01.JPG,AFNE01.JPG,AFNE01.JPG,AFNE01.JPG,AFNE01.JPG,,,,,3,2,32,7,,,,,,,,,,,,,,,,,,,AMSA03.jpg,AMSA17.jpg,AMNE05.jpg,AMNE08.jpg,AMNE05.jpg,MN,1,num_2,32,num_8,0.49996006801,,,2018_Feb_16_1507,59.9984412497,FEMA4ImagesEEG,001,202926,
AFNE01.JPG,AFNE01.JPG,AFNE01.JPG,AFNE01.JPG,AFNE01.JPG,AFNE01.JPG,,,,,3,3,33,0,,,,,,,,,,,,,,,,,,,AMNE07.jpg,AMSA10.jpg,AMNE02.jpg,AMSA09.jpg,AMNE07.jpg,MN,1,num_8,32,num_4,1.15008430621,,,2018_Feb_16_1507,59.9984412497,FEMA4ImagesEEG,001,202926,
AFNE01.JPG,AFNE01.JPG,AFNE01.JPG,AFNE01.JPG,AFNE01.JPG,AFNE01.JPG,,,,,3,4,34,6,,,,,,,,,,,,,,,,,,,AMSA06.jpg,AMSA08.jpg,AMNE05.jpg,AMNE02.jpg,AMNE02.jpg,MN,1,num_4,16,num_4,0.750157562975,,,2018_Feb_16_1507,59.9984412497,FEMA4ImagesEEG,001,202926,
AFNE01.JPG,AFNE01.JPG,AFNE01.JPG,AFNE01.JPG,AFNE01.JPG,AFNE01.JPG,,,,,3,5,35,4,,,,,,,,,,,,,,,,,,,AMSA05.jpg,AMSA15.jpg,AMNE17.jpg,AMNE12.jpg,AMNE12.jpg,MN,1,num_4,32,num_6,1.11686153157,,,2018_Feb_16_1507,59.9984412497,FEMA4ImagesEEG,001,202926,
AFNE01.JPG,AFNE01.JPG,AFNE01.JPG,AFNE01.JPG,AFNE01.JPG,AFNE01.JPG,,,,,3,6,36,9,,,,,,,,,,,,,,,,,,,AMNE01.jpg,AMNE10.jpg,AMSA05.jpg,AMSA10.jpg,AMSA05.jpg,MS,2,num_2,32,num_8,0.666812282118,,,2018_Feb_16_1507,59.9984412497,FEMA4ImagesEEG,001,202926,
AFNE01.JPG,AFNE01.JPG,AFNE01.JPG,AFNE01.JPG,AFNE01.JPG,AFNE01.JPG,,,,,3,7,37,3,,,,,,,,,,,,,,,,,,,AMSA09.jpg,AMNE04.jpg,AMNE16.jpg,AMSA05.jpg,AMSA09.jpg,MS,2,num_8,32,num_2,0.500125569271,,,2018_Feb_16_1507,59.9984412497,FEMA4ImagesEEG,001,202926,
AFNE01.JPG,AFNE01.JPG,AFNE01.JPG,AFNE01.JPG,AFNE01.JPG,AFNE01.JPG,,,,,3,8,38,2,,,,,,,,,,,,,,,,,,,AMSA12.jpg,AMNE19.jpg,AMSA17.jpg,AMNE07.jpg,AMNE07.jpg,MN,1,num_4,32,num_8,0.383504271119,,,2018_Feb_16_1507,59.9984412497,FEMA4ImagesEEG,001,202926,
AFNE01.JPG,AFNE01.JPG,AFNE01.JPG,AFNE01.JPG,AFNE01.JPG,AFNE01.JPG,,,,,3,9,39,1,,,,,,,,,,,,,,,,,,,AMNE16.jpg,AMNE01.jpg,AMSA10.jpg,AMSA19.jpg,AMSA19.jpg,MS,2,num_4,16,num_4,0.966810902941,,,2018_Feb_16_1507,59.9984412497,FEMA4ImagesEEG,001,202926,
AFNE01.JPG,AFNE01.JPG,AFNE01.JPG,AFNE01.JPG,AFNE01.JPG,AFNE01.JPG,,,,,4,0,40,1,,,,,,,,,,,,,,,,,,,AMSA03.jpg,AMSA18.jpg,AMNE15.jpg,AMNE08.jpg,AMNE08.jpg,MN,1,num_4,32,num_8,0.866860008064,,,2018_Feb_16_1507,59.9984412497,FEMA4ImagesEEG,001,202926,
AFNE01.JPG,AFNE01.JPG,AFNE01.JPG,AFNE01.JPG,AFNE01.JPG,AFNE01.JPG,,,,,4,1,41,8,,,,,,,,,,,,,,,,,,,AMSA04.jpg,AMNE06.jpg,AMNE12.jpg,AMSA08.jpg,AMNE06.jpg,MN,1,num_6,16,num_6,0.766786911673,,,2018_Feb_16_1507,59.9984412497,FEMA4ImagesEEG,001,202926,
AFNE01.JPG,AFNE01.JPG,AFNE01.JPG,AFNE01.JPG,AFNE01.JPG,AFNE01.JPG,,,,,4,2,42,5,,,,,,,,,,,,,,,,,,,AMSA02.jpg,AMSA13.jpg,AMNE13.jpg,AMNE16.jpg,AMNE13.jpg,MN,1,num_2,16,num_2,3.29995981142,,,2018_Feb_16_1507,59.9984412497,FEMA4ImagesEEG,001,202926,
AFNE01.JPG,AFNE01.JPG,AFNE01.JPG,AFNE01.JPG,AFNE01.JPG,AFNE01.JPG,,,,,4,3,43,7,,,,,,,,,,,,,,,,,,,AMSA14.jpg,AMSA16.jpg,AMNE04.jpg,AMNE07.jpg,AMNE07.jpg,MN,1,num_4,16,num_4,0.750178090263,,,2018_Feb_16_1507,59.9984412497,FEMA4ImagesEEG,001,202926,
AFNE01.JPG,AFNE01.JPG,AFNE01.JPG,AFNE01.JPG,AFNE01.JPG,AFNE01.JPG,,,,,4,4,44,0,,,,,,,,,,,,,,,,,,,AMNE04.jpg,AMSA07.jpg,AMSA15.jpg,AMNE03.jpg,AMNE04.jpg,MN,1,num_8,16,num_8,0.616792412344,,,2018_Feb_16_1507,59.9984412497,FEMA4ImagesEEG,001,202926,
AFNE01.JPG,AFNE01.JPG,AFNE01.JPG,AFNE01.JPG,AFNE01.JPG,AFNE01.JPG,,,,,4,5,45,4,,,,,,,,,,,,,,,,,,,AMSA02.jpg,AMNE07.jpg,AMNE15.jpg,AMSA12.jpg,AMSA02.jpg,MS,2,num_8,16,num_8,0.8500205754,,,2018_Feb_16_1507,59.9984412497,FEMA4ImagesEEG,001,202926,
AFNE01.JPG,AFNE01.JPG,AFNE01.JPG,AFNE01.JPG,AFNE01.JPG,AFNE01.JPG,,,,,4,6,46,2,,,,,,,,,,,,,,,,,,,AMSA02.jpg,AMNE12.jpg,AMSA09.jpg,AMNE07.jpg,AMSA02.jpg,MS,2,num_8,16,num_8,0.883526562471,,,2018_Feb_16_1507,59.9984412497,FEMA4ImagesEEG,001,202926,
AFNE01.JPG,AFNE01.JPG,AFNE01.JPG,AFNE01.JPG,AFNE01.JPG,AFNE01.JPG,,,,,4,7,47,3,,,,,,,,,,,,,,,,,,,AMSA18.jpg,AMNE02.jpg,AMNE17.jpg,AMSA14.jpg,AMSA14.jpg,MS,2,num_4,32,num_8,3.28335548035,,,2018_Feb_16_1507,59.9984412497,FEMA4ImagesEEG,001,202926,
AFNE01.JPG,AFNE01.JPG,AFNE01.JPG,AFNE01.JPG,AFNE01.JPG,AFNE01.JPG,,,,,4,8,48,6,,,,,,,,,,,,,,,,,,,AMNE10.jpg,AMNE05.jpg,AMSA15.jpg,AMSA19.jpg,AMSA19.jpg,MS,2,num_4,32,num_2,0.366794416963,,,2018_Feb_16_1507,59.9984412497,FEMA4ImagesEEG,001,202926,
AFNE01.JPG,AFNE01.JPG,AFNE01.JPG,AFNE01.JPG,AFNE01.JPG,AFNE01.JPG,,,,,4,9,49,9,,,,,,,,,,,,,,,,,,,AMNE13.jpg,AMSA10.jpg,AMSA05.jpg,AMNE19.jpg,AMSA10.jpg,MS,2,num_6,32,num_4,0.516820990179,,,2018_Feb_16_1507,59.9984412497,FEMA4ImagesEEG,001,202926,
AFNE01.JPG,AFNE01.JPG,AFNE01.JPG,AFNE01.JPG,AFNE01.JPG,AFNE01.JPG,,,,,5,0,50,4,,,,,,,,,,,,,,,,,,,AMSA13.jpg,AMSA10.jpg,AMNE07.jpg,AMNE18.jpg,AMNE07.jpg,MN,1,num_2,32,num_6,0.433531197148,,,2018_Feb_16_1507,59.9984412497,FEMA4ImagesEEG,001,202926,
AFNE01.JPG,AFNE01.JPG,AFNE01.JPG,AFNE01.JPG,AFNE01.JPG,AFNE01.JPG,,,,,5,1,51,7,,,,,,,,,,,,,,,,,,,AMSA10.jpg,AMSA16.jpg,AMNE16.jpg,AMNE19.jpg,AMNE19.jpg,MN,1,num_4,16,num_4,0.350216065746,,,2018_Feb_16_1507,59.9984412497,FEMA4ImagesEEG,001,202926,
AFNE01.JPG,AFNE01.JPG,AFNE01.JPG,AFNE01.JPG,AFNE01.JPG,AFNE01.JPG,,,,,5,2,52,1,,,,,,,,,,,,,,,,,,,AMSA08.jpg,AMSA17.jpg,AMNE07.jpg,AMNE16.jpg,AMSA17.jpg,MS,2,num_6,32,num_2,0.583464114611,,,2018_Feb_16_1507,59.9984412497,FEMA4ImagesEEG,001,202926,
AFNE01.JPG,AFNE01.JPG,AFNE01.JPG,AFNE01.JPG,AFNE01.JPG,AFNE01.JPG,,,,,5,3,53,5,,,,,,,,,,,,,,,,,,,AMSA19.jpg,AMSA05.jpg,AMNE19.jpg,AMNE20.jpg,AMSA05.jpg,MS,2,num_6,32,num_8,1.60004342804,,,2018_Feb_16_1507,59.9984412497,FEMA4ImagesEEG,001,202926,
AFNE01.JPG,AFNE01.JPG,AFNE01.JPG,AFNE01.JPG,AFNE01.JPG,AFNE01.JPG,,,,,5,4,54,9,,,,,,,,,,,,,,,,,,,AMNE10.jpg,AMSA03.jpg,AMSA02.jpg,AMNE01.jpg,AMSA03.jpg,MS,2,num_6,32,num_2,1.06673389354,,,2018_Feb_16_1507,59.9984412497,FEMA4ImagesEEG,001,202926,
AFNE01.JPG,AFNE01.JPG,AFNE01.JPG,AFNE01.JPG,AFNE01.JPG,AFNE01.JPG,,,,,5,5,55,6,,,,,,,,,,,,,,,,,,,AMNE02.jpg,AMNE11.jpg,AMSA18.jpg,AMSA16.jpg,AMNE02.jpg,MN,1,num_8,32,num_6,0.650240987157,,,2018_Feb_16_1507,59.9984412497,FEMA4ImagesEEG,001,202926,
AFNE01.JPG,AFNE01.JPG,AFNE01.JPG,AFNE01.JPG,AFNE01.JPG,AFNE01.JPG,,,,,5,6,56,2,,,,,,,,,,,,,,,,,,,AMSA12.jpg,AMNE08.jpg,AMSA04.jpg,AMNE13.jpg,AMNE08.jpg,MN,1,num_6,32,num_4,0.550327939467,,,2018_Feb_16_1507,59.9984412497,FEMA4ImagesEEG,001,202926,
AFNE01.JPG,AFNE01.JPG,AFNE01.JPG,AFNE01.JPG,AFNE01.JPG,AFNE01.JPG,,,,,5,7,57,3,,,,,,,,,,,,,,,,,,,AMNE20.jpg,AMSA11.jpg,AMNE17.jpg,AMSA13.jpg,AMNE20.jpg,MN,1,num_8,32,num_2,1.46680689371,,,2018_Feb_16_1507,59.9984412497,FEMA4ImagesEEG,001,202926,
AFNE01.JPG,AFNE01.JPG,AFNE01.JPG,AFNE01.JPG,AFNE01.JPG,AFNE01.JPG,,,,,5,8,58,0,,,,,,,,,,,,,,,,,,,AMSA04.jpg,AMNE01.jpg,AMNE06.jpg,AMSA09.jpg,AMNE06.jpg,MN,1,num_2,32,num_4,0.866751277583,,,2018_Feb_16_1507,59.9984412497,FEMA4ImagesEEG,001,202926,
AFNE01.JPG,AFNE01.JPG,AFNE01.JPG,AFNE01.JPG,AFNE01.JPG,AFNE01.JPG,,,,,5,9,59,8,,,,,,,,,,,,,,,,,,,AMNE07.jpg,AMSA13.jpg,AMSA04.jpg,AMNE06.jpg,AMSA13.jpg,MS,2,num_6,32,num_8,0.733456048029,,,2018_Feb_16_1507,59.9984412497,FEMA4ImagesEEG,001,202926,
,,,,,,,,,,,,,,,,,,,,,,,,,,,,,,,,,,,,,,,,,,,space,54.6790946568,2018_Feb_16_1507,59.9984412497,FEMA4ImagesEEG,001,202926,
AFNE01.JPG,AFNE01.JPG,AFNE01.JPG,AFNE01.JPG,AFNE01.JPG,AFNE01.JPG,,,,,,,,,0,0,0,6,,,,,,,,,,,,,,,AFSA20.jpg,AFSA15.jpg,AFNE07.jpg,AFNE01.jpg,AFNE07.jpg,FN,3,num_2,32,num_6,0.766829249205,,,2018_Feb_16_1507,59.9984412497,FEMA4ImagesEEG,001,202926,
AFNE01.JPG,AFNE01.JPG,AFNE01.JPG,AFNE01.JPG,AFNE01.JPG,AFNE01.JPG,,,,,,,,,0,1,1,4,,,,,,,,,,,,,,,AFNE19.jpg,AFNE04.jpg,AFSA20.jpg,AFSA07.jpg,AFNE04.jpg,FN,3,num_6,16,num_6,0.700124222169,,,2018_Feb_16_1507,59.9984412497,FEMA4ImagesEEG,001,202926,
AFNE01.JPG,AFNE01.JPG,AFNE01.JPG,AFNE01.JPG,AFNE01.JPG,AFNE01.JPG,,,,,,,,,0,2,2,8,,,,,,,,,,,,,,,AFSA03.jpg,AFNE09.jpg,AFNE15.jpg,AFSA14.jpg,AFSA14.jpg,FS,4,num_4,32,num_8,0.650109804956,,,2018_Feb_16_1507,59.9984412497,FEMA4ImagesEEG,001,202926,
AFNE01.JPG,AFNE01.JPG,AFNE01.JPG,AFNE01.JPG,AFNE01.JPG,AFNE01.JPG,,,,,,,,,0,3,3,3,,,,,,,,,,,,,,,AFSA05.jpg,AFSA08.jpg,AFNE16.jpg,AFNE13.jpg,AFNE16.jpg,FN,3,num_2,32,num_4,0.583477906383,,,2018_Feb_16_1507,59.9984412497,FEMA4ImagesEEG,001,202926,
AFNE01.JPG,AFNE01.JPG,AFNE01.JPG,AFNE01.JPG,AFNE01.JPG,AFNE01.JPG,,,,,,,,,0,4,4,0,,,,,,,,,,,,,,,AFNE07.jpg,AFNE11.jpg,AFSA01.jpg,AFSA19.jpg,AFSA19.jpg,FS,4,num_4,32,num_6,0.350053451134,,,2018_Feb_16_1507,59.9984412497,FEMA4ImagesEEG,001,202926,
AFNE01.JPG,AFNE01.JPG,AFNE01.JPG,AFNE01.JPG,AFNE01.JPG,AFNE01.JPG,,,,,,,,,0,5,5,7,,,,,,,,,,,,,,,AFNE07.jpg,AFSA06.jpg,AFSA01.jpg,AFNE01.jpg,AFNE07.jpg,FN,3,num_8,32,num_2,0.466789253067,,,2018_Feb_16_1507,59.9984412497,FEMA4ImagesEEG,001,202926,
AFNE01.JPG,AFNE01.JPG,AFNE01.JPG,AFNE01.JPG,AFNE01.JPG,AFNE01.JPG,,,,,,,,,0,6,6,9,,,,,,,,,,,,,,,AFNE07.jpg,AFNE01.jpg,AFSA13.jpg,AFSA20.jpg,AFNE07.jpg,FN,3,num_8,16,num_8,0.600158573302,,,2018_Feb_16_1507,59.9984412497,FEMA4ImagesEEG,001,202926,
AFNE01.JPG,AFNE01.JPG,AFNE01.JPG,AFNE01.JPG,AFNE01.JPG,AFNE01.JPG,,,,,,,,,0,7,7,1,,,,,,,,,,,,,,,AFNE12.jpg,AFSA10.jpg,AFSA12.jpg,AFNE08.jpg,AFSA12.jpg,FS,4,num_2,32,num_6,0.866757371622,,,2018_Feb_16_1507,59.9984412497,FEMA4ImagesEEG,001,202926,
AFNE01.JPG,AFNE01.JPG,AFNE01.JPG,AFNE01.JPG,AFNE01.JPG,AFNE01.JPG,,,,,,,,,0,8,8,5,,,,,,,,,,,,,,,AFSA08.jpg,AFSA07.jpg,AFNE05.jpg,AFNE14.jpg,AFSA07.jpg,FS,4,num_6,16,num_6,0.816778235686,,,2018_Feb_16_1507,59.9984412497,FEMA4ImagesEEG,001,202926,
AFNE01.JPG,AFNE01.JPG,AFNE01.JPG,AFNE01.JPG,AFNE01.JPG,AFNE01.JPG,,,,,,,,,0,9,9,2,,,,,,,,,,,,,,,AFNE11.jpg,AFSA05.jpg,AFNE06.jpg,AFSA04.jpg,AFNE06.jpg,FN,3,num_2,32,num_8,1.01684680966,,,2018_Feb_16_1507,59.9984412497,FEMA4ImagesEEG,001,202926,
AFNE01.JPG,AFNE01.JPG,AFNE01.JPG,AFNE01.JPG,AFNE01.JPG,AFNE01.JPG,,,,,,,,,1,0,10,2,,,,,,,,,,,,,,,AFNE12.jpg,AFSA07.jpg,AFNE01.jpg,AFSA06.jpg,AFSA07.jpg,FS,4,num_6,32,num_2,0.85014630504,,,2018_Feb_16_1507,59.9984412497,FEMA4ImagesEEG,001,202926,
AFNE01.JPG,AFNE01.JPG,AFNE01.JPG,AFNE01.JPG,AFNE01.JPG,AFNE01.JPG,,,,,,,,,1,1,11,3,,,,,,,,,,,,,,,AFSA04.jpg,AFSA05.jpg,AFNE11.jpg,AFNE18.jpg,AFNE18.jpg,FN,3,num_4,16,num_4,0.933449248365,,,2018_Feb_16_1507,59.9984412497,FEMA4ImagesEEG,001,202926,
AFNE01.JPG,AFNE01.JPG,AFNE01.JPG,AFNE01.JPG,AFNE01.JPG,AFNE01.JPG,,,,,,,,,1,2,12,4,,,,,,,,,,,,,,,AFNE05.jpg,AFNE11.jpg,AFSA16.jpg,AFSA08.jpg,AFSA08.jpg,FS,4,num_4,32,num_2,0.900103951471,,,2018_Feb_16_1507,59.9984412497,FEMA4ImagesEEG,001,202926,
AFNE01.JPG,AFNE01.JPG,AFNE01.JPG,AFNE01.JPG,AFNE01.JPG,AFNE01.JPG,,,,,,,,,1,3,13,7,,,,,,,,,,,,,,,AFNE01.jpg,AFSA16.jpg,AFNE14.jpg,AFSA01.jpg,AFNE14.jpg,FN,3,num_2,32,num_6,0.583518319482,,,2018_Feb_16_1507,59.9984412497,FEMA4ImagesEEG,001,202926,
AFNE01.JPG,AFNE01.JPG,AFNE01.JPG,AFNE01.JPG,AFNE01.JPG,AFNE01.JPG,,,,,,,,,1,4,14,0,,,,,,,,,,,,,,,AFNE18.jpg,AFSA01.jpg,AFNE01.jpg,AFSA05.jpg,AFNE18.jpg,FN,3,num_8,32,num_4,0.583493943328,,,2018_Feb_16_1507,59.9984412497,FEMA4ImagesEEG,001,202926,
AFNE01.JPG,AFNE01.JPG,AFNE01.JPG,AFNE01.JPG,AFNE01.JPG,AFNE01.JPG,,,,,,,,,1,5,15,8,,,,,,,,,,,,,,,AFNE20.jpg,AFSA08.jpg,AFSA10.jpg,AFNE10.jpg,AFNE10.jpg,FN,3,num_4,32,num_2,0.850199868433,,,2018_Feb_16_1507,59.9984412497,FEMA4ImagesEEG,001,202926,
AFNE01.JPG,AFNE01.JPG,AFNE01.JPG,AFNE01.JPG,AFNE01.JPG,AFNE01.JPG,,,,,,,,,1,6,16,9,,,,,,,,,,,,,,,AFNE05.jpg,AFNE03.jpg,AFSA19.jpg,AFSA14.jpg,AFSA19.jpg,FS,4,num_2,32,num_4,1.06670630999,,,2018_Feb_16_1507,59.9984412497,FEMA4ImagesEEG,001,202926,
AFNE01.JPG,AFNE01.JPG,AFNE01.JPG,AFNE01.JPG,AFNE01.JPG,AFNE01.JPG,,,,,,,,,1,7,17,1,,,,,,,,,,,,,,,AFSA03.jpg,AFNE16.jpg,AFNE15.jpg,AFSA07.jpg,AFNE16.jpg,FN,3,num_6,32,num_2,1.25013046054,,,2018_Feb_16_1507,59.9984412497,FEMA4ImagesEEG,001,202926,
AFNE01.JPG,AFNE01.JPG,AFNE01.JPG,AFNE01.JPG,AFNE01.JPG,AFNE01.JPG,,,,,,,,,1,8,18,6,,,,,,,,,,,,,,,AFSA18.jpg,AFNE17.jpg,AFNE11.jpg,AFSA02.jpg,AFSA18.jpg,FS,4,num_8,32,num_6,0.300175347946,,,2018_Feb_16_1507,59.9984412497,FEMA4ImagesEEG,001,202926,
AFNE01.JPG,AFNE01.JPG,AFNE01.JPG,AFNE01.JPG,AFNE01.JPG,AFNE01.JPG,,,,,,,,,1,9,19,5,,,,,,,,,,,,,,,AFSA05.jpg,AFNE02.jpg,AFSA19.jpg,AFNE13.jpg,AFNE13.jpg,FN,3,num_4,32,num_8,0.650161764655,,,2018_Feb_16_1507,59.9984412497,FEMA4ImagesEEG,001,202926,
AFNE01.JPG,AFNE01.JPG,AFNE01.JPG,AFNE01.JPG,AFNE01.JPG,AFNE01.JPG,,,,,,,,,2,0,20,0,,,,,,,,,,,,,,,AFNE01.jpg,AFNE05.jpg,AFSA18.jpg,AFSA14.jpg,AFSA18.jpg,FS,4,num_2,16,num_2,1.05013469429,,,2018_Feb_16_1507,59.9984412497,FEMA4ImagesEEG,001,202926,
AFNE01.JPG,AFNE01.JPG,AFNE01.JPG,AFNE01.JPG,AFNE01.JPG,AFNE01.JPG,,,,,,,,,2,1,21,9,,,,,,,,,,,,,,,AFNE15.jpg,AFNE03.jpg,AFSA19.jpg,AFSA18.jpg,AFSA18.jpg,FS,4,num_4,32,num_6,0.516816179096,,,2018_Feb_16_1507,59.9984412497,FEMA4ImagesEEG,001,202926,
AFNE01.JPG,AFNE01.JPG,AFNE01.JPG,AFNE01.JPG,AFNE01.JPG,AFNE01.JPG,,,,,,,,,2,2,22,2,,,,,,,,,,,,,,,AFSA10.jpg,AFNE17.jpg,AFNE06.jpg,AFSA07.jpg,AFNE06.jpg,FN,3,num_2,32,num_4,0.383497214864,,,2018_Feb_16_1507,59.9984412497,FEMA4ImagesEEG,001,202926,
AFNE01.JPG,AFNE01.JPG,AFNE01.JPG,AFNE01.JPG,AFNE01.JPG,AFNE01.JPG,,,,,,,,,2,3,23,4,,,,,,,,,,,,,,,AFNE03.jpg,AFSA01.jpg,AFSA19.jpg,AFNE19.jpg,AFNE03.jpg,FN,3,num_8,16,num_8,0.916798410161,,,2018_Feb_16_1507,59.9984412497,FEMA4ImagesEEG,001,202926,
AFNE01.JPG,AFNE01.JPG,AFNE01.JPG,AFNE01.JPG,AFNE01.JPG,AFNE01.JPG,,,,,,,,,2,4,24,3,,,,,,,,,,,,,,,AFSA04.jpg,AFNE09.jpg,AFNE16.jpg,AFSA01.jpg,AFSA04.jpg,FS,4,num_8,32,num_2,0.500136153655,,,2018_Feb_16_1507,59.9984412497,FEMA4ImagesEEG,001,202926,
AFNE01.JPG,AFNE01.JPG,AFNE01.JPG,AFNE01.JPG,AFNE01.JPG,AFNE01.JPG,,,,,,,,,2,5,25,8,,,,,,,,,,,,,,,AFNE05.jpg,AFNE02.jpg,AFSA14.jpg,AFSA17.jpg,AFNE02.jpg,FN,3,num_6,32,num_4,0.433499443999,,,2018_Feb_16_1507,59.9984412497,FEMA4ImagesEEG,001,202926,
AFNE01.JPG,AFNE01.JPG,AFNE01.JPG,AFNE01.JPG,AFNE01.JPG,AFNE01.JPG,,,,,,,,,2,6,26,6,,,,,,,,,,,,,,,AFNE03.jpg,AFSA11.jpg,AFSA20.jpg,AFNE09.jpg,AFNE03.jpg,FN,3,num_8,32,num_6,0.683452856677,,,2018_Feb_16_1507,59.9984412497,FEMA4ImagesEEG,001,202926,
AFNE01.JPG,AFNE01.JPG,AFNE01.JPG,AFNE01.JPG,AFNE01.JPG,AFNE01.JPG,,,,,,,,,2,7,27,7,,,,,,,,,,,,,,,AFSA17.jpg,AFNE01.jpg,AFSA03.jpg,AFNE06.jpg,AFNE06.jpg,FN,3,num_4,32,num_2,0.63346826818,,,2018_Feb_16_1507,59.9984412497,FEMA4ImagesEEG,001,202926,
AFNE01.JPG,AFNE01.JPG,AFNE01.JPG,AFNE01.JPG,AFNE01.JPG,AFNE01.JPG,,,,,,,,,2,8,28,5,,,,,,,,,,,,,,,AFNE17.jpg,AFSA01.jpg,AFSA05.jpg,AFNE01.jpg,AFSA01.jpg,FS,4,num_6,32,num_8,0.716791418055,,,2018_Feb_16_1507,59.9984412497,FEMA4ImagesEEG,001,202926,
AFNE01.JPG,AFNE01.JPG,AFNE01.JPG,AFNE01.JPG,AFNE01.JPG,AFNE01.JPG,,,,,,,,,2,9,29,1,,,,,,,,,,,,,,,AFNE15.jpg,AFNE18.jpg,AFSA06.jpg,AFSA10.jpg,AFSA10.jpg,FS,4,num_4,16,num_4,0.366788964401,,,2018_Feb_16_1507,59.9984412497,FEMA4ImagesEEG,001,202926,
AFNE01.JPG,AFNE01.JPG,AFNE01.JPG,AFNE01.JPG,AFNE01.JPG,AFNE01.JPG,,,,,,,,,3,0,30,2,,,,,,,,,,,,,,,AFNE20.jpg,AFSA15.jpg,AFNE16.jpg,AFSA10.jpg,AFSA10.jpg,FS,4,num_4,32,num_6,0.483527332244,,,2018_Feb_16_1507,59.9984412497,FEMA4ImagesEEG,001,202926,
AFNE01.JPG,AFNE01.JPG,AFNE01.JPG,AFNE01.JPG,AFNE01.JPG,AFNE01.JPG,,,,,,,,,3,1,31,4,,,,,,,,,,,,,,,AFSA01.jpg,AFNE09.jpg,AFSA07.jpg,AFNE06.jpg,AFNE06.jpg,FN,3,num_4,32,num_2,0.900099140388,,,2018_Feb_16_1507,59.9984412497,FEMA4ImagesEEG,001,202926,
AFNE01.JPG,AFNE01.JPG,AFNE01.JPG,AFNE01.JPG,AFNE01.JPG,AFNE01.JPG,,,,,,,,,3,2,32,8,,,,,,,,,,,,,,,AFNE06.jpg,AFSA17.jpg,AFSA12.jpg,AFNE16.jpg,AFNE06.jpg,FN,3,num_8,16,num_8,0.716813869775,,,2018_Feb_16_1507,59.9984412497,FEMA4ImagesEEG,001,202926,
AFNE01.JPG,AFNE01.JPG,AFNE01.JPG,AFNE01.JPG,AFNE01.JPG,AFNE01.JPG,,,,,,,,,3,3,33,9,,,,,,,,,,,,,,,AFNE07.jpg,AFNE10.jpg,AFSA18.jpg,AFSA05.jpg,AFNE07.jpg,FN,3,num_8,32,num_6,1.03346813988,,,2018_Feb_16_1507,59.9984412497,FEMA4ImagesEEG,001,202926,
AFNE01.JPG,AFNE01.JPG,AFNE01.JPG,AFNE01.JPG,AFNE01.JPG,AFNE01.JPG,,,,,,,,,3,4,34,1,,,,,,,,,,,,,,,AFSA12.jpg,AFNE14.jpg,AFSA05.jpg,AFNE10.jpg,AFNE14.jpg,FN,3,num_6,32,num_4,1.13341550663,,,2018_Feb_16_1507,59.9984412497,FEMA4ImagesEEG,001,202926,
AFNE01.JPG,AFNE01.JPG,AFNE01.JPG,AFNE01.JPG,AFNE01.JPG,AFNE01.JPG,,,,,,,,,3,5,35,7,,,,,,,,,,,,,,,AFSA02.jpg,AFNE02.jpg,AFSA17.jpg,AFNE17.jpg,AFNE02.jpg,FN,3,num_6,32,num_2,1.30008682401,,,2018_Feb_16_1507,59.9984412497,FEMA4ImagesEEG,001,202926,
AFNE01.JPG,AFNE01.JPG,AFNE01.JPG,AFNE01.JPG,AFNE01.JPG,AFNE01.JPG,,,,,,,,,3,6,36,5,,,,,,,,,,,,,,,AFNE06.jpg,AFSA06.jpg,AFSA13.jpg,AFNE19.jpg,AFSA06.jpg,FS,4,num_6,32,num_8,0.683456384805,,,2018_Feb_16_1507,59.9984412497,FEMA4ImagesEEG,001,202926,
AFNE01.JPG,AFNE01.JPG,AFNE01.JPG,AFNE01.JPG,AFNE01.JPG,AFNE01.JPG,,,,,,,,,3,7,37,0,,,,,,,,,,,,,,,AFSA10.jpg,AFNE09.jpg,AFSA18.jpg,AFNE12.jpg,AFNE12.jpg,FN,3,num_4,32,num_2,0.616794657517,,,2018_Feb_16_1507,59.9984412497,FEMA4ImagesEEG,001,202926,
AFNE01.JPG,AFNE01.JPG,AFNE01.JPG,AFNE01.JPG,AFNE01.JPG,AFNE01.JPG,,,,,,,,,3,8,38,6,,,,,,,,,,,,,,,AFSA15.jpg,AFNE04.jpg,AFSA16.jpg,AFNE13.jpg,AFSA15.jpg,FS,4,num_8,32,num_4,2.24988092569,,,2018_Feb_16_1507,59.9984412497,FEMA4ImagesEEG,001,202926,
AFNE01.JPG,AFNE01.JPG,AFNE01.JPG,AFNE01.JPG,AFNE01.JPG,AFNE01.JPG,,,,,,,,,3,9,39,3,,,,,,,,,,,,,,,AFSA05.jpg,AFNE02.jpg,AFSA03.jpg,AFNE03.jpg,AFSA03.jpg,FS,4,num_2,32,num_8,0.733457010246,,,2018_Feb_16_1507,59.9984412497,FEMA4ImagesEEG,001,202926,
AFNE01.JPG,AFNE01.JPG,AFNE01.JPG,AFNE01.JPG,AFNE01.JPG,AFNE01.JPG,,,,,,,,,4,0,40,9,,,,,,,,,,,,,,,AFNE11.jpg,AFSA07.jpg,AFSA03.jpg,AFNE19.jpg,AFSA07.jpg,FS,4,num_6,32,num_2,0.716732081361,,,2018_Feb_16_1507,59.9984412497,FEMA4ImagesEEG,001,202926,
AFNE01.JPG,AFNE01.JPG,AFNE01.JPG,AFNE01.JPG,AFNE01.JPG,AFNE01.JPG,,,,,,,,,4,1,41,5,,,,,,,,,,,,,,,AFSA08.jpg,AFNE12.jpg,AFNE07.jpg,AFSA02.jpg,AFNE07.jpg,FN,3,num_2,32,num_6,0.833466921076,,,2018_Feb_16_1507,59.9984412497,FEMA4ImagesEEG,001,202926,
AFNE01.JPG,AFNE01.JPG,AFNE01.JPG,AFNE01.JPG,AFNE01.JPG,AFNE01.JPG,,,,,,,,,4,2,42,1,,,,,,,,,,,,,,,AFSA20.jpg,AFSA12.jpg,AFNE14.jpg,AFNE06.jpg,AFNE14.jpg,FN,3,num_2,16,num_2,1.31671970084,,,2018_Feb_16_1507,59.9984412497,FEMA4ImagesEEG,001,202926,
AFNE01.JPG,AFNE01.JPG,AFNE01.JPG,AFNE01.JPG,AFNE01.JPG,AFNE01.JPG,,,,,,,,,4,3,43,7,,,,,,,,,,,,,,,AFNE05.jpg,AFNE14.jpg,AFSA01.jpg,AFSA03.jpg,AFNE14.jpg,FN,3,num_6,16,num_6,0.966560405875,,,2018_Feb_16_1507,59.9984412497,FEMA4ImagesEEG,001,202926,
AFNE01.JPG,AFNE01.JPG,AFNE01.JPG,AFNE01.JPG,AFNE01.JPG,AFNE01.JPG,,,,,,,,,4,4,44,0,,,,,,,,,,,,,,,AFSA04.jpg,AFSA19.jpg,AFNE14.jpg,AFNE12.jpg,AFSA04.jpg,FS,4,num_8,32,num_4,0.633485908818,,,2018_Feb_16_1507,59.9984412497,FEMA4ImagesEEG,001,202926,
AFNE01.JPG,AFNE01.JPG,AFNE01.JPG,AFNE01.JPG,AFNE01.JPG,AFNE01.JPG,,,,,,,,,4,5,45,4,,,,,,,,,,,,,,,AFSA12.jpg,AFSA10.jpg,AFNE03.jpg,AFNE04.jpg,AFSA12.jpg,FS,4,num_8,16,num_8,0.333513588584,,,2018_Feb_16_1507,59.9984412497,FEMA4ImagesEEG,001,202926,
AFNE01.JPG,AFNE01.JPG,AFNE01.JPG,AFNE01.JPG,AFNE01.JPG,AFNE01.JPG,,,,,,,,,4,6,46,2,,,,,,,,,,,,,,,AFSA02.jpg,AFNE13.jpg,AFSA01.jpg,AFNE03.jpg,AFSA01.jpg,FS,4,num_2,16,num_2,0.333531229222,,,2018_Feb_16_1507,59.9984412497,FEMA4ImagesEEG,001,202926,
AFNE01.JPG,AFNE01.JPG,AFNE01.JPG,AFNE01.JPG,AFNE01.JPG,AFNE01.JPG,,,,,,,,,4,7,47,8,,,,,,,,,,,,,,,AFNE05.jpg,AFSA13.jpg,AFNE06.jpg,AFSA01.jpg,AFNE06.jpg,FN,3,num_2,32,num_6,0.36679505844,,,2018_Feb_16_1507,59.9984412497,FEMA4ImagesEEG,001,202926,
AFNE01.JPG,AFNE01.JPG,AFNE01.JPG,AFNE01.JPG,AFNE01.JPG,AFNE01.JPG,,,,,,,,,4,8,48,3,,,,,,,,,,,,,,,AFNE19.jpg,AFSA03.jpg,AFNE14.jpg,AFSA07.jpg,AFSA03.jpg,FS,4,num_6,32,num_4,0.483512257518,,,2018_Feb_16_1507,59.9984412497,FEMA4ImagesEEG,001,202926,
AFNE01.JPG,AFNE01.JPG,AFNE01.JPG,AFNE01.JPG,AFNE01.JPG,AFNE01.JPG,,,,,,,,,4,9,49,6,,,,,,,,,,,,,,,AFSA08.jpg,AFSA05.jpg,AFNE12.jpg,AFNE07.jpg,AFNE07.jpg,FN,3,num_4,32,num_6,3.86655787204,,,2018_Feb_16_1507,59.9984412497,FEMA4ImagesEEG,001,202926,
AFNE01.JPG,AFNE01.JPG,AFNE01.JPG,AFNE01.JPG,AFNE01.JPG,AFNE01.JPG,,,,,,,,,5,0,50,2,,,,,,,,,,,,,,,AFSA20.jpg,AFNE20.jpg,AFNE11.jpg,AFSA07.jpg,AFSA20.jpg,FS,4,num_8,32,num_2,1.03348289387,,,2018_Feb_16_1507,59.9984412497,FEMA4ImagesEEG,001,202926,
AFNE01.JPG,AFNE01.JPG,AFNE01.JPG,AFNE01.JPG,AFNE01.JPG,AFNE01.JPG,,,,,,,,,5,1,51,4,,,,,,,,,,,,,,,AFNE01.jpg,AFSA19.jpg,AFNE16.jpg,AFSA02.jpg,AFNE16.jpg,FN,3,num_2,32,num_6,4.64983910134,,,2018_Feb_16_1507,59.9984412497,FEMA4ImagesEEG,001,202926,
AFNE01.JPG,AFNE01.JPG,AFNE01.JPG,AFNE01.JPG,AFNE01.JPG,AFNE01.JPG,,,,,,,,,5,2,52,7,,,,,,,,,,,,,,,AFSA06.jpg,AFNE07.jpg,AFNE08.jpg,AFSA12.jpg,AFSA06.jpg,FS,4,num_8,16,num_8,0.650199611841,,,2018_Feb_16_1507,59.9984412497,FEMA4ImagesEEG,001,202926,
AFNE01.JPG,AFNE01.JPG,AFNE01.JPG,AFNE01.JPG,AFNE01.JPG,AFNE01.JPG,,,,,,,,,5,3,53,6,,,,,,,,,,,,,,,AFNE12.jpg,AFNE03.jpg,AFSA17.jpg,AFSA05.jpg,AFNE12.jpg,FN,3,num_8,32,num_6,0.633480456258,,,2018_Feb_16_1507,59.9984412497,FEMA4ImagesEEG,001,202926,
AFNE01.JPG,AFNE01.JPG,AFNE01.JPG,AFNE01.JPG,AFNE01.JPG,AFNE01.JPG,,,,,,,,,5,4,54,3,,,,,,,,,,,,,,,AFNE02.jpg,AFSA12.jpg,AFSA09.jpg,AFNE05.jpg,AFNE05.jpg,FN,3,num_4,32,num_2,0.800153377332,,,2018_Feb_16_1507,59.9984412497,FEMA4ImagesEEG,001,202926,
AFNE01.JPG,AFNE01.JPG,AFNE01.JPG,AFNE01.JPG,AFNE01.JPG,AFNE01.JPG,,,,,,,,,5,5,55,8,,,,,,,,,,,,,,,AFNE05.jpg,AFSA08.jpg,AFNE06.jpg,AFSA20.jpg,AFNE05.jpg,FN,3,num_8,16,num_8,0.983445062722,,,2018_Feb_16_1507,59.9984412497,FEMA4ImagesEEG,001,202926,
AFNE01.JPG,AFNE01.JPG,AFNE01.JPG,AFNE01.JPG,AFNE01.JPG,AFNE01.JPG,,,,,,,,,5,6,56,5,,,,,,,,,,,,,,,AFSA09.jpg,AFNE05.jpg,AFNE10.jpg,AFSA01.jpg,AFSA01.jpg,FS,4,num_4,32,num_6,0.833507975653,,,2018_Feb_16_1507,59.9984412497,FEMA4ImagesEEG,001,202926,
AFNE01.JPG,AFNE01.JPG,AFNE01.JPG,AFNE01.JPG,AFNE01.JPG,AFNE01.JPG,,,,,,,,,5,7,57,9,,,,,,,,,,,,,,,AFNE10.jpg,AFNE18.jpg,AFSA18.jpg,AFSA09.jpg,AFNE18.jpg,FN,3,num_6,32,num_8,0.683470176577,,,2018_Feb_16_1507,59.9984412497,FEMA4ImagesEEG,001,202926,
AFNE01.JPG,AFNE01.JPG,AFNE01.JPG,AFNE01.JPG,AFNE01.JPG,AFNE01.JPG,,,,,,,,,5,8,58,1,,,,,,,,,,,,,,,AFNE08.jpg,AFNE17.jpg,AFSA07.jpg,AFSA13.jpg,AFNE08.jpg,FN,3,num_8,32,num_4,0.633493606551,,,2018_Feb_16_1507,59.9984412497,FEMA4ImagesEEG,001,202926,
AFNE01.JPG,AFNE01.JPG,AFNE01.JPG,AFNE01.JPG,AFNE01.JPG,AFNE01.JPG,,,,,,,,,5,9,59,0,,,,,,,,,,,,,,,AFSA16.jpg,AFNE19.jpg,AFNE10.jpg,AFSA03.jpg,AFNE10.jpg,FN,3,num_2,32,num_8,1.51672252334,,,2018_Feb_16_1507,59.9984412497,FEMA4ImagesEEG,001,202926,
,,,,,,,,,,,,,,,,,,,,,,,,,,,,,,,,,,,,,,,,,,,space,43.9133110163,2018_Feb_16_1507,59.9984412497,FEMA4ImagesEEG,001,202926,
AFNE01.JPG,AFNE01.JPG,AFNE01.JPG,AFNE01.JPG,AFNE01.JPG,AFNE01.JPG,,,,,,,,,,,,,0,0,0,5,,,,,,,,,,,AMSA13.jpg,AMNE09.jpg,AMSA20.jpg,AMNE19.jpg,AMSA20.jpg,MS,2,num_2,32,num_8,0.950069937113,,,2018_Feb_16_1507,59.9984412497,FEMA4ImagesEEG,001,202926,
AFNE01.JPG,AFNE01.JPG,AFNE01.JPG,AFNE01.JPG,AFNE01.JPG,AFNE01.JPG,,,,,,,,,,,,,0,1,1,9,,,,,,,,,,,AMSA10.jpg,AMSA06.jpg,AMNE06.jpg,AMNE15.jpg,AMSA10.jpg,MS,2,num_8,32,num_2,1.45008164408,,,2018_Feb_16_1507,59.9984412497,FEMA4ImagesEEG,001,202926,
AFNE01.JPG,AFNE01.JPG,AFNE01.JPG,AFNE01.JPG,AFNE01.JPG,AFNE01.JPG,,,,,,,,,,,,,0,2,2,1,,,,,,,,,,,AMNE06.jpg,AMSA06.jpg,AMNE04.jpg,AMSA12.jpg,AMSA12.jpg,MS,2,num_4,32,num_8,0.850229055671,,,2018_Feb_16_1507,59.9984412497,FEMA4ImagesEEG,001,202926,
AFNE01.JPG,AFNE01.JPG,AFNE01.JPG,AFNE01.JPG,AFNE01.JPG,AFNE01.JPG,,,,,,,,,,,,,0,3,3,3,,,,,,,,,,,AMSA10.jpg,AMSA12.jpg,AMNE12.jpg,AMNE15.jpg,AMSA10.jpg,MS,2,num_8,32,num_4,1.3501092597,,,2018_Feb_16_1507,59.9984412497,FEMA4ImagesEEG,001,202926,
AFNE01.JPG,AFNE01.JPG,AFNE01.JPG,AFNE01.JPG,AFNE01.JPG,AFNE01.JPG,,,,,,,,,,,,,0,4,4,0,,,,,,,,,,,AMNE19.jpg,AMNE06.jpg,AMSA11.jpg,AMSA17.jpg,AMSA17.jpg,MS,2,num_4,16,num_4,0.6999776445,,,2018_Feb_16_1507,59.9984412497,FEMA4ImagesEEG,001,202926,
AFNE01.JPG,AFNE01.JPG,AFNE01.JPG,AFNE01.JPG,AFNE01.JPG,AFNE01.JPG,,,,,,,,,,,,,0,5,5,6,,,,,,,,,,,AMNE20.jpg,AMSA11.jpg,AMSA06.jpg,AMNE18.jpg,AMSA06.jpg,MS,2,num_2,32,num_6,1.13342448732,,,2018_Feb_16_1507,59.9984412497,FEMA4ImagesEEG,001,202926,
AFNE01.JPG,AFNE01.JPG,AFNE01.JPG,AFNE01.JPG,AFNE01.JPG,AFNE01.JPG,,,,,,,,,,,,,0,6,6,2,,,,,,,,,,,AMSA17.jpg,AMNE14.jpg,AMNE18.jpg,AMSA04.jpg,AMSA04.jpg,MS,2,num_4,16,num_4,0.633472758524,,,2018_Feb_16_1507,59.9984412497,FEMA4ImagesEEG,001,202926,
AFNE01.JPG,AFNE01.JPG,AFNE01.JPG,AFNE01.JPG,AFNE01.JPG,AFNE01.JPG,,,,,,,,,,,,,0,7,7,7,,,,,,,,,,,AMNE03.jpg,AMSA07.jpg,AMSA08.jpg,AMNE20.jpg,AMSA08.jpg,MS,2,num_2,32,num_8,3.3332736759,,,2018_Feb_16_1507,59.9984412497,FEMA4ImagesEEG,001,202926,
AFNE01.JPG,AFNE01.JPG,AFNE01.JPG,AFNE01.JPG,AFNE01.JPG,AFNE01.JPG,,,,,,,,,,,,,0,8,8,8,,,,,,,,,,,AMNE19.jpg,AMSA16.jpg,AMSA12.jpg,AMNE10.jpg,AMSA16.jpg,MS,2,num_6,16,num_6,0.950345772549,,,2018_Feb_16_1507,59.9984412497,FEMA4ImagesEEG,001,202926,
AFNE01.JPG,AFNE01.JPG,AFNE01.JPG,AFNE01.JPG,AFNE01.JPG,AFNE01.JPG,,,,,,,,,,,,,0,9,9,4,,,,,,,,,,,AMNE15.jpg,AMNE06.jpg,AMSA18.jpg,AMSA11.jpg,AMNE15.jpg,MN,1,num_8,16,num_8,0.850151116123,,,2018_Feb_16_1507,59.9984412497,FEMA4ImagesEEG,001,202926,
AFNE01.JPG,AFNE01.JPG,AFNE01.JPG,AFNE01.JPG,AFNE01.JPG,AFNE01.JPG,,,,,,,,,,,,,1,0,10,6,,,,,,,,,,,AMSA20.jpg,AMNE20.jpg,AMSA11.jpg,AMNE17.jpg,AMNE20.jpg,MN,1,num_6,32,num_2,1.06688143342,,,2018_Feb_16_1507,59.9984412497,FEMA4ImagesEEG,001,202926,
AFNE01.JPG,AFNE01.JPG,AFNE01.JPG,AFNE01.JPG,AFNE01.JPG,AFNE01.JPG,,,,,,,,,,,,,1,1,11,3,,,,,,,,,,,AMSA08.jpg,AMNE20.jpg,AMNE16.jpg,AMSA09.jpg,AMNE16.jpg,MN,1,num_2,16,num_2,1.41674661083,,,2018_Feb_16_1507,59.9984412497,FEMA4ImagesEEG,001,202926,
AFNE01.JPG,AFNE01.JPG,AFNE01.JPG,AFNE01.JPG,AFNE01.JPG,AFNE01.JPG,,,,,,,,,,,,,1,2,12,2,,,,,,,,,,,AMSA10.jpg,AMNE07.jpg,AMSA01.jpg,AMNE05.jpg,AMSA01.jpg,MS,2,num_2,32,num_4,1.43343112662,,,2018_Feb_16_1507,59.9984412497,FEMA4ImagesEEG,001,202926,
AFNE01.JPG,AFNE01.JPG,AFNE01.JPG,AFNE01.JPG,AFNE01.JPG,AFNE01.JPG,,,,,,,,,,,,,1,3,13,5,,,,,,,,,,,AMSA18.jpg,AMNE10.jpg,AMSA08.jpg,AMNE15.jpg,AMSA18.jpg,MS,2,num_8,32,num_4,1.76667721898,,,2018_Feb_16_1507,59.9984412497,FEMA4ImagesEEG,001,202926,
AFNE01.JPG,AFNE01.JPG,AFNE01.JPG,AFNE01.JPG,AFNE01.JPG,AFNE01.JPG,,,,,,,,,,,,,1,4,14,1,,,,,,,,,,,AMNE11.jpg,AMNE01.jpg,AMSA07.jpg,AMSA18.jpg,AMSA18.jpg,MS,2,num_4,32,num_8,1.00009942905,,,2018_Feb_16_1507,59.9984412497,FEMA4ImagesEEG,001,202926,
AFNE01.JPG,AFNE01.JPG,AFNE01.JPG,AFNE01.JPG,AFNE01.JPG,AFNE01.JPG,,,,,,,,,,,,,1,5,15,9,,,,,,,,,,,AMSA08.jpg,AMNE03.jpg,AMNE13.jpg,AMSA03.jpg,AMSA03.jpg,MS,2,num_4,16,num_4,0.949951584466,,,2018_Feb_16_1507,59.9984412497,FEMA4ImagesEEG,001,202926,
AFNE01.JPG,AFNE01.JPG,AFNE01.JPG,AFNE01.JPG,AFNE01.JPG,AFNE01.JPG,,,,,,,,,,,,,1,6,16,8,,,,,,,,,,,AMSA20.jpg,AMSA11.jpg,AMNE13.jpg,AMNE05.jpg,AMSA11.jpg,MS,2,num_6,16,num_6,0.850121928885,,,2018_Feb_16_1507,59.9984412497,FEMA4ImagesEEG,001,202926,
AFNE01.JPG,AFNE01.JPG,AFNE01.JPG,AFNE01.JPG,AFNE01.JPG,AFNE01.JPG,,,,,,,,,,,,,1,7,17,0,,,,,,,,,,,AMNE20.jpg,AMNE14.jpg,AMSA07.jpg,AMSA18.jpg,AMSA07.jpg,MS,2,num_2,16,num_2,2.33335321914,,,2018_Feb_16_1507,59.9984412497,FEMA4ImagesEEG,001,202926,
AFNE01.JPG,AFNE01.JPG,AFNE01.JPG,AFNE01.JPG,AFNE01.JPG,AFNE01.JPG,,,,,,,,,,,,,1,8,18,7,,,,,,,,,,,AMSA17.jpg,AMNE20.jpg,AMNE06.jpg,AMSA01.jpg,AMNE06.jpg,MN,1,num_2,32,num_6,0.816767330564,,,2018_Feb_16_1507,59.9984412497,FEMA4ImagesEEG,001,202926,
AFNE01.JPG,AFNE01.JPG,AFNE01.JPG,AFNE01.JPG,AFNE01.JPG,AFNE01.JPG,,,,,,,,,,,,,1,9,19,4,,,,,,,,,,,AMNE05.jpg,AMNE09.jpg,AMSA07.jpg,AMSA17.jpg,AMNE05.jpg,MN,1,num_8,32,num_6,1.15015037842,,,2018_Feb_16_1507,59.9984412497,FEMA4ImagesEEG,001,202926,
AFNE01.JPG,AFNE01.JPG,AFNE01.JPG,AFNE01.JPG,AFNE01.JPG,AFNE01.JPG,,,,,,,,,,,,,2,0,20,9,,,,,,,,,,,AMNE09.jpg,AMNE02.jpg,AMSA09.jpg,AMSA02.jpg,AMNE02.jpg,MN,1,num_6,32,num_4,0.833498353487,,,2018_Feb_16_1507,59.9984412497,FEMA4ImagesEEG,001,202926,
AFNE01.JPG,AFNE01.JPG,AFNE01.JPG,AFNE01.JPG,AFNE01.JPG,AFNE01.JPG,,,,,,,,,,,,,2,1,21,5,,,,,,,,,,,AMSA12.jpg,AMNE09.jpg,AMNE03.jpg,AMSA09.jpg,AMNE09.jpg,MN,1,num_6,32,num_8,0.766779855417,,,2018_Feb_16_1507,59.9984412497,FEMA4ImagesEEG,001,202926,
AFNE01.JPG,AFNE01.JPG,AFNE01.JPG,AFNE01.JPG,AFNE01.JPG,AFNE01.JPG,,,,,,,,,,,,,2,2,22,4,,,,,,,,,,,AMNE14.jpg,AMNE07.jpg,AMSA15.jpg,AMSA09.jpg,AMSA09.jpg,MS,2,num_4,32,num_6,0.7668193063,,,2018_Feb_16_1507,59.9984412497,FEMA4ImagesEEG,001,202926,
AFNE01.JPG,AFNE01.JPG,AFNE01.JPG,AFNE01.JPG,AFNE01.JPG,AFNE01.JPG,,,,,,,,,,,,,2,3,23,2,,,,,,,,,,,AMSA11.jpg,AMNE09.jpg,AMSA06.jpg,AMNE04.jpg,AMNE09.jpg,MN,1,num_6,32,num_4,3.9998688178,,,2018_Feb_16_1507,59.9984412497,FEMA4ImagesEEG,001,202926,
AFNE01.JPG,AFNE01.JPG,AFNE01.JPG,AFNE01.JPG,AFNE01.JPG,AFNE01.JPG,,,,,,,,,,,,,2,4,24,0,,,,,,,,,,,AMSA03.jpg,AMSA13.jpg,AMNE06.jpg,AMNE15.jpg,AMSA03.jpg,MS,2,num_8,16,num_8,0.650023205458,,,2018_Feb_16_1507,59.9984412497,FEMA4ImagesEEG,001,202926,
AFNE01.JPG,AFNE01.JPG,AFNE01.JPG,AFNE01.JPG,AFNE01.JPG,AFNE01.JPG,,,,,,,,,,,,,2,5,25,1,,,,,,,,,,,AMNE12.jpg,AMSA05.jpg,AMNE03.jpg,AMSA08.jpg,AMSA08.jpg,MS,2,num_4,32,num_2,0.650131615199,,,2018_Feb_16_1507,59.9984412497,FEMA4ImagesEEG,001,202926,
AFNE01.JPG,AFNE01.JPG,AFNE01.JPG,AFNE01.JPG,AFNE01.JPG,AFNE01.JPG,,,,,,,,,,,,,2,6,26,3,,,,,,,,,,,AMNE01.jpg,AMNE19.jpg,AMSA13.jpg,AMSA17.jpg,AMSA13.jpg,MS,2,num_2,32,num_8,0.833466600337,,,2018_Feb_16_1507,59.9984412497,FEMA4ImagesEEG,001,202926,
AFNE01.JPG,AFNE01.JPG,AFNE01.JPG,AFNE01.JPG,AFNE01.JPG,AFNE01.JPG,,,,,,,,,,,,,2,7,27,8,,,,,,,,,,,AMSA03.jpg,AMSA13.jpg,AMNE15.jpg,AMNE08.jpg,AMNE15.jpg,MN,1,num_2,16,num_2,0.833460506299,,,2018_Feb_16_1507,59.9984412497,FEMA4ImagesEEG,001,202926,
AFNE01.JPG,AFNE01.JPG,AFNE01.JPG,AFNE01.JPG,AFNE01.JPG,AFNE01.JPG,,,,,,,,,,,,,2,8,28,7,,,,,,,,,,,AMSA16.jpg,AMSA07.jpg,AMNE15.jpg,AMNE14.jpg,AMSA07.jpg,MS,2,num_6,16,num_6,1.23347160386,,,2018_Feb_16_1507,59.9984412497,FEMA4ImagesEEG,001,202926,
AFNE01.JPG,AFNE01.JPG,AFNE01.JPG,AFNE01.JPG,AFNE01.JPG,AFNE01.JPG,,,,,,,,,,,,,2,9,29,6,,,,,,,,,,,AMSA17.jpg,AMNE12.jpg,AMSA07.jpg,AMNE10.jpg,AMSA07.jpg,MS,2,num_2,32,num_4,0.550162438206,,,2018_Feb_16_1507,59.9984412497,FEMA4ImagesEEG,001,202926,
AFNE01.JPG,AFNE01.JPG,AFNE01.JPG,AFNE01.JPG,AFNE01.JPG,AFNE01.JPG,,,,,,,,,,,,,3,0,30,6,,,,,,,,,,,AMSA19.jpg,AMNE15.jpg,AMSA08.jpg,AMNE20.jpg,AMNE20.jpg,MN,1,num_4,48,None,,,,2018_Feb_16_1507,59.9984412497,FEMA4ImagesEEG,001,202926,
AFNE01.JPG,AFNE01.JPG,AFNE01.JPG,AFNE01.JPG,AFNE01.JPG,AFNE01.JPG,,,,,,,,,,,,,3,1,31,5,,,,,,,,,,,AMSA13.jpg,AMNE01.jpg,AMSA01.jpg,AMNE10.jpg,AMSA13.jpg,MS,2,num_8,16,num_8,0.416818135603,,,2018_Feb_16_1507,59.9984412497,FEMA4ImagesEEG,001,202926,
AFNE01.JPG,AFNE01.JPG,AFNE01.JPG,AFNE01.JPG,AFNE01.JPG,AFNE01.JPG,,,,,,,,,,,,,3,2,32,1,,,,,,,,,,,AMSA05.jpg,AMNE10.jpg,AMNE18.jpg,AMSA16.jpg,AMNE18.jpg,MN,1,num_2,32,num_6,0.683530154747,,,2018_Feb_16_1507,59.9984412497,FEMA4ImagesEEG,001,202926,
AFNE01.JPG,AFNE01.JPG,AFNE01.JPG,AFNE01.JPG,AFNE01.JPG,AFNE01.JPG,,,,,,,,,,,,,3,3,33,4,,,,,,,,,,,AMNE07.jpg,AMNE05.jpg,AMSA15.jpg,AMSA12.jpg,AMSA12.jpg,MS,2,num_4,32,num_2,0.783457635685,,,2018_Feb_16_1507,59.9984412497,FEMA4ImagesEEG,001,202926,
AFNE01.JPG,AFNE01.JPG,AFNE01.JPG,AFNE01.JPG,AFNE01.JPG,AFNE01.JPG,,,,,,,,,,,,,3,4,34,7,,,,,,,,,,,AMNE10.jpg,AMSA14.jpg,AMSA11.jpg,AMNE11.jpg,AMNE11.jpg,MN,1,num_4,32,num_8,0.700172012261,,,2018_Feb_16_1507,59.9984412497,FEMA4ImagesEEG,001,202926,
AFNE01.JPG,AFNE01.JPG,AFNE01.JPG,AFNE01.JPG,AFNE01.JPG,AFNE01.JPG,,,,,,,,,,,,,3,5,35,9,,,,,,,,,,,AMNE12.jpg,AMNE13.jpg,AMSA07.jpg,AMSA01.jpg,AMNE13.jpg,MN,1,num_6,16,num_6,0.51679501033,,,2018_Feb_16_1507,59.9984412497,FEMA4ImagesEEG,001,202926,
AFNE01.JPG,AFNE01.JPG,AFNE01.JPG,AFNE01.JPG,AFNE01.JPG,AFNE01.JPG,,,,,,,,,,,,,3,6,36,8,,,,,,,,,,,AMSA14.jpg,AMNE07.jpg,AMSA19.jpg,AMNE19.jpg,AMNE07.jpg,MN,1,num_6,32,num_2,1.51667248808,,,2018_Feb_16_1507,59.9984412497,FEMA4ImagesEEG,001,202926,
AFNE01.JPG,AFNE01.JPG,AFNE01.JPG,AFNE01.JPG,AFNE01.JPG,AFNE01.JPG,,,,,,,,,,,,,3,7,37,0,,,,,,,,,,,AMSA11.jpg,AMSA06.jpg,AMNE06.jpg,AMNE11.jpg,AMSA06.jpg,MS,2,num_6,16,num_6,1.73322511604,,,2018_Feb_16_1507,59.9984412497,FEMA4ImagesEEG,001,202926,
AFNE01.JPG,AFNE01.JPG,AFNE01.JPG,AFNE01.JPG,AFNE01.JPG,AFNE01.JPG,,,,,,,,,,,,,3,8,38,2,,,,,,,,,,,AMNE04.jpg,AMNE17.jpg,AMSA02.jpg,AMSA20.jpg,AMNE04.jpg,MN,1,num_8,32,num_4,0.800171017971,,,2018_Feb_16_1507,59.9984412497,FEMA4ImagesEEG,001,202926,
AFNE01.JPG,AFNE01.JPG,AFNE01.JPG,AFNE01.JPG,AFNE01.JPG,AFNE01.JPG,,,,,,,,,,,,,3,9,39,3,,,,,,,,,,,AMSA17.jpg,AMNE05.jpg,AMNE12.jpg,AMSA12.jpg,AMSA17.jpg,MS,2,num_8,16,num_8,2.53332460924,,,2018_Feb_16_1507,59.9984412497,FEMA4ImagesEEG,001,202926,
AFNE01.JPG,AFNE01.JPG,AFNE01.JPG,AFNE01.JPG,AFNE01.JPG,AFNE01.JPG,,,,,,,,,,,,,4,0,40,5,,,,,,,,,,,AMNE07.jpg,AMSA14.jpg,AMNE11.jpg,AMSA15.jpg,AMNE11.jpg,MN,1,num_2,32,num_6,0.383701204792,,,2018_Feb_16_1507,59.9984412497,FEMA4ImagesEEG,001,202926,
AFNE01.JPG,AFNE01.JPG,AFNE01.JPG,AFNE01.JPG,AFNE01.JPG,AFNE01.JPG,,,,,,,,,,,,,4,1,41,3,,,,,,,,,,,AMNE11.jpg,AMSA15.jpg,AMNE16.jpg,AMSA16.jpg,AMNE11.jpg,MN,1,num_8,32,num_6,0.916794561295,,,2018_Feb_16_1507,59.9984412497,FEMA4ImagesEEG,001,202926,
AFNE01.JPG,AFNE01.JPG,AFNE01.JPG,AFNE01.JPG,AFNE01.JPG,AFNE01.JPG,,,,,,,,,,,,,4,2,42,0,,,,,,,,,,,AMNE10.jpg,AMSA07.jpg,AMNE14.jpg,AMSA11.jpg,AMSA07.jpg,MS,2,num_6,32,num_8,2.51650089278,,,2018_Feb_16_1507,59.9984412497,FEMA4ImagesEEG,001,202926,
AFNE01.JPG,AFNE01.JPG,AFNE01.JPG,AFNE01.JPG,AFNE01.JPG,AFNE01.JPG,,,,,,,,,,,,,4,3,43,2,,,,,,,,,,,AMSA13.jpg,AMNE14.jpg,AMSA19.jpg,AMNE10.jpg,AMNE14.jpg,MN,1,num_6,16,num_6,0.483382037532,,,2018_Feb_16_1507,59.9984412497,FEMA4ImagesEEG,001,202926,
AFNE01.JPG,AFNE01.JPG,AFNE01.JPG,AFNE01.JPG,AFNE01.JPG,AFNE01.JPG,,,,,,,,,,,,,4,4,44,4,,,,,,,,,,,AMSA06.jpg,AMNE03.jpg,AMSA09.jpg,AMNE07.jpg,AMNE07.jpg,MN,1,num_4,32,num_8,0.900092404871,,,2018_Feb_16_1507,59.9984412497,FEMA4ImagesEEG,001,202926,
AFNE01.JPG,AFNE01.JPG,AFNE01.JPG,AFNE01.JPG,AFNE01.JPG,AFNE01.JPG,,,,,,,,,,,,,4,5,45,7,,,,,,,,,,,AMNE18.jpg,AMNE15.jpg,AMSA12.jpg,AMSA18.jpg,AMNE18.jpg,MN,1,num_8,32,num_4,1.1001045288,,,2018_Feb_16_1507,59.9984412497,FEMA4ImagesEEG,001,202926,
AFNE01.JPG,AFNE01.JPG,AFNE01.JPG,AFNE01.JPG,AFNE01.JPG,AFNE01.JPG,,,,,,,,,,,,,4,6,46,8,,,,,,,,,,,AMNE20.jpg,AMNE08.jpg,AMSA08.jpg,AMSA05.jpg,AMSA08.jpg,MS,2,num_2,16,num_2,1.10017092175,,,2018_Feb_16_1507,59.9984412497,FEMA4ImagesEEG,001,202926,
AFNE01.JPG,AFNE01.JPG,AFNE01.JPG,AFNE01.JPG,AFNE01.JPG,AFNE01.JPG,,,,,,,,,,,,,4,7,47,9,,,,,,,,,,,AMNE16.jpg,AMNE07.jpg,AMSA02.jpg,AMSA01.jpg,AMNE07.jpg,MN,1,num_6,32,num_8,0.566797560204,,,2018_Feb_16_1507,59.9984412497,FEMA4ImagesEEG,001,202926,
AFNE01.JPG,AFNE01.JPG,AFNE01.JPG,AFNE01.JPG,AFNE01.JPG,AFNE01.JPG,,,,,,,,,,,,,4,8,48,6,,,,,,,,,,,AMSA15.jpg,AMNE15.jpg,AMSA13.jpg,AMNE01.jpg,AMSA13.jpg,MS,2,num_2,32,num_6,0.500146738038,,,2018_Feb_16_1507,59.9984412497,FEMA4ImagesEEG,001,202926,
AFNE01.JPG,AFNE01.JPG,AFNE01.JPG,AFNE01.JPG,AFNE01.JPG,AFNE01.JPG,,,,,,,,,,,,,4,9,49,1,,,,,,,,,,,AMNE15.jpg,AMSA12.jpg,AMNE20.jpg,AMSA20.jpg,AMSA20.jpg,MS,2,num_4,32,num_2,0.383440764821,,,2018_Feb_16_1507,59.9984412497,FEMA4ImagesEEG,001,202926,
AFNE01.JPG,AFNE01.JPG,AFNE01.JPG,AFNE01.JPG,AFNE01.JPG,AFNE01.JPG,,,,,,,,,,,,,5,0,50,9,,,,,,,,,,,AMNE01.jpg,AMSA19.jpg,AMSA12.jpg,AMNE19.jpg,AMNE19.jpg,MN,1,num_4,16,num_4,4.11679096902,,,2018_Feb_16_1507,59.9984412497,FEMA4ImagesEEG,001,202926,
AFNE01.JPG,AFNE01.JPG,AFNE01.JPG,AFNE01.JPG,AFNE01.JPG,AFNE01.JPG,,,,,,,,,,,,,5,1,51,2,,,,,,,,,,,AMSA04.jpg,AMNE05.jpg,AMNE06.jpg,AMSA05.jpg,AMSA04.jpg,MS,2,num_8,16,num_8,0.583449039885,,,2018_Feb_16_1507,59.9984412497,FEMA4ImagesEEG,001,202926,
AFNE01.JPG,AFNE01.JPG,AFNE01.JPG,AFNE01.JPG,AFNE01.JPG,AFNE01.JPG,,,,,,,,,,,,,5,2,52,7,,,,,,,,,,,AMSA20.jpg,AMNE02.jpg,AMSA11.jpg,AMNE04.jpg,AMNE04.jpg,MN,1,num_4,16,num_4,0.683524702185,,,2018_Feb_16_1507,59.9984412497,FEMA4ImagesEEG,001,202926,
AFNE01.JPG,AFNE01.JPG,AFNE01.JPG,AFNE01.JPG,AFNE01.JPG,AFNE01.JPG,,,,,,,,,,,,,5,3,53,8,,,,,,,,,,,AMSA04.jpg,AMNE20.jpg,AMSA09.jpg,AMNE03.jpg,AMNE03.jpg,MN,1,num_4,32,num_6,0.75010752771,,,2018_Feb_16_1507,59.9984412497,FEMA4ImagesEEG,001,202926,
AFNE01.JPG,AFNE01.JPG,AFNE01.JPG,AFNE01.JPG,AFNE01.JPG,AFNE01.JPG,,,,,,,,,,,,,5,4,54,6,,,,,,,,,,,AMNE08.jpg,AMNE20.jpg,AMSA14.jpg,AMSA07.jpg,AMNE08.jpg,MN,1,num_8,16,num_8,0.933420381865,,,2018_Feb_16_1507,59.9984412497,FEMA4ImagesEEG,001,202926,
AFNE01.JPG,AFNE01.JPG,AFNE01.JPG,AFNE01.JPG,AFNE01.JPG,AFNE01.JPG,,,,,,,,,,,,,5,5,55,1,,,,,,,,,,,AMSA17.jpg,AMNE04.jpg,AMNE18.jpg,AMSA15.jpg,AMNE18.jpg,MN,1,num_2,32,num_4,0.783495162134,,,2018_Feb_16_1507,59.9984412497,FEMA4ImagesEEG,001,202926,
AFNE01.JPG,AFNE01.JPG,AFNE01.JPG,AFNE01.JPG,AFNE01.JPG,AFNE01.JPG,,,,,,,,,,,,,5,6,56,5,,,,,,,,,,,AMSA13.jpg,AMNE13.jpg,AMSA18.jpg,AMNE07.jpg,AMSA13.jpg,MS,2,num_8,32,num_4,1.03351240185,,,2018_Feb_16_1507,59.9984412497,FEMA4ImagesEEG,001,202926,
AFNE01.JPG,AFNE01.JPG,AFNE01.JPG,AFNE01.JPG,AFNE01.JPG,AFNE01.JPG,,,,,,,,,,,,,5,7,57,3,,,,,,,,,,,AMSA01.jpg,AMSA02.jpg,AMNE19.jpg,AMNE20.jpg,AMNE20.jpg,MN,1,num_4,32,num_6,0.550152174562,,,2018_Feb_16_1507,59.9984412497,FEMA4ImagesEEG,001,202926,
AFNE01.JPG,AFNE01.JPG,AFNE01.JPG,AFNE01.JPG,AFNE01.JPG,AFNE01.JPG,,,,,,,,,,,,,5,8,58,4,,,,,,,,,,,AMNE17.jpg,AMSA16.jpg,AMNE18.jpg,AMSA17.jpg,AMNE17.jpg,MN,1,num_8,32,num_2,2.55004536851,,,2018_Feb_16_1507,59.9984412497,FEMA4ImagesEEG,001,202926,
AFNE01.JPG,AFNE01.JPG,AFNE01.JPG,AFNE01.JPG,AFNE01.JPG,AFNE01.JPG,,,,,,,,,,,,,5,9,59,0,,,,,,,,,,,AMNE16.jpg,AMNE07.jpg,AMSA10.jpg,AMSA04.jpg,AMSA04.jpg,MS,2,num_4,16,num_4,1.2001009686,,,2018_Feb_16_1507,59.9984412497,FEMA4ImagesEEG,001,202926,
,,,,,,,,,,,,,,,,,,,,,,,,,,,,,,,,,,,,,,,,,,,space,54.695772437,2018_Feb_16_1507,59.9984412497,FEMA4ImagesEEG,001,202926,
AFNE01.JPG,AFNE01.JPG,AFNE01.JPG,AFNE01.JPG,AFNE01.JPG,AFNE01.JPG,,,,,,,,,,,,,,,,,0,0,0,4,,,,,,,AFNE07.jpg,AFSA18.jpg,AFSA13.jpg,AFNE03.jpg,AFNE07.jpg,FN,3,num_8,16,num_8,0.550145118306,,,2018_Feb_16_1507,59.9984412497,FEMA4ImagesEEG,001,202926,
AFNE01.JPG,AFNE01.JPG,AFNE01.JPG,AFNE01.JPG,AFNE01.JPG,AFNE01.JPG,,,,,,,,,,,,,,,,,0,1,1,6,,,,,,,AFNE14.jpg,AFSA13.jpg,AFSA11.jpg,AFNE03.jpg,AFSA11.jpg,FS,4,num_2,16,num_2,0.616780865745,,,2018_Feb_16_1507,59.9984412497,FEMA4ImagesEEG,001,202926,
AFNE01.JPG,AFNE01.JPG,AFNE01.JPG,AFNE01.JPG,AFNE01.JPG,AFNE01.JPG,,,,,,,,,,,,,,,,,0,2,2,1,,,,,,,AFNE09.jpg,AFSA03.jpg,AFNE20.jpg,AFSA08.jpg,AFSA08.jpg,FS,4,num_4,32,num_6,0.700149881278,,,2018_Feb_16_1507,59.9984412497,FEMA4ImagesEEG,001,202926,
AFNE01.JPG,AFNE01.JPG,AFNE01.JPG,AFNE01.JPG,AFNE01.JPG,AFNE01.JPG,,,,,,,,,,,,,,,,,0,3,3,0,,,,,,,AFNE02.jpg,AFSA02.jpg,AFSA08.jpg,AFNE03.jpg,AFSA02.jpg,FS,4,num_6,32,num_8,0.566762599665,,,2018_Feb_16_1507,59.9984412497,FEMA4ImagesEEG,001,202926,
AFNE01.JPG,AFNE01.JPG,AFNE01.JPG,AFNE01.JPG,AFNE01.JPG,AFNE01.JPG,,,,,,,,,,,,,,,,,0,4,4,9,,,,,,,AFNE12.jpg,AFSA10.jpg,AFSA08.jpg,AFNE04.jpg,AFNE04.jpg,FN,3,num_4,32,num_8,0.366796982874,,,2018_Feb_16_1507,59.9984412497,FEMA4ImagesEEG,001,202926,
AFNE01.JPG,AFNE01.JPG,AFNE01.JPG,AFNE01.JPG,AFNE01.JPG,AFNE01.JPG,,,,,,,,,,,,,,,,,0,5,5,7,,,,,,,AFSA09.jpg,AFNE10.jpg,AFNE12.jpg,AFSA13.jpg,AFSA13.jpg,FS,4,num_4,16,num_4,0.650149255837,,,2018_Feb_16_1507,59.9984412497,FEMA4ImagesEEG,001,202926,
AFNE01.JPG,AFNE01.JPG,AFNE01.JPG,AFNE01.JPG,AFNE01.JPG,AFNE01.JPG,,,,,,,,,,,,,,,,,0,6,6,3,,,,,,,AFSA01.jpg,AFSA07.jpg,AFNE18.jpg,AFNE01.jpg,AFNE01.jpg,FN,3,num_4,32,num_8,0.516808160623,,,2018_Feb_16_1507,59.9984412497,FEMA4ImagesEEG,001,202926,
AFNE01.JPG,AFNE01.JPG,AFNE01.JPG,AFNE01.JPG,AFNE01.JPG,AFNE01.JPG,,,,,,,,,,,,,,,,,0,7,7,2,,,,,,,AFNE14.jpg,AFSA01.jpg,AFNE11.jpg,AFSA12.jpg,AFNE11.jpg,FN,3,num_2,32,num_6,0.450264785983,,,2018_Feb_16_1507,59.9984412497,FEMA4ImagesEEG,001,202926,
AFNE01.JPG,AFNE01.JPG,AFNE01.JPG,AFNE01.JPG,AFNE01.JPG,AFNE01.JPG,,,,,,,,,,,,,,,,,0,8,8,5,,,,,,,AFSA03.jpg,AFSA01.jpg,AFNE10.jpg,AFNE19.jpg,AFSA01.jpg,FS,4,num_6,32,num_4,0.633497776157,,,2018_Feb_16_1507,59.9984412497,FEMA4ImagesEEG,001,202926,
AFNE01.JPG,AFNE01.JPG,AFNE01.JPG,AFNE01.JPG,AFNE01.JPG,AFNE01.JPG,,,,,,,,,,,,,,,,,0,9,9,8,,,,,,,AFSA11.jpg,AFSA01.jpg,AFNE03.jpg,AFNE14.jpg,AFNE14.jpg,FN,3,num_4,32,num_8,0.450154131068,,,2018_Feb_16_1507,59.9984412497,FEMA4ImagesEEG,001,202926,
AFNE01.JPG,AFNE01.JPG,AFNE01.JPG,AFNE01.JPG,AFNE01.JPG,AFNE01.JPG,,,,,,,,,,,,,,,,,1,0,10,5,,,,,,,AFSA06.jpg,AFNE02.jpg,AFSA20.jpg,AFNE18.jpg,AFSA20.jpg,FS,4,num_2,32,num_4,1.03341906684,,,2018_Feb_16_1507,59.9984412497,FEMA4ImagesEEG,001,202926,
AFNE01.JPG,AFNE01.JPG,AFNE01.JPG,AFNE01.JPG,AFNE01.JPG,AFNE01.JPG,,,,,,,,,,,,,,,,,1,1,11,0,,,,,,,AFSA13.jpg,AFNE10.jpg,AFNE04.jpg,AFSA09.jpg,AFNE10.jpg,FN,3,num_6,32,num_8,0.683442272294,,,2018_Feb_16_1507,59.9984412497,FEMA4ImagesEEG,001,202926,
AFNE01.JPG,AFNE01.JPG,AFNE01.JPG,AFNE01.JPG,AFNE01.JPG,AFNE01.JPG,,,,,,,,,,,,,,,,,1,2,12,6,,,,,,,AFNE04.jpg,AFSA04.jpg,AFSA07.jpg,AFNE17.jpg,AFSA07.jpg,FS,4,num_2,16,num_2,1.25019011797,,,2018_Feb_16_1507,59.9984412497,FEMA4ImagesEEG,001,202926,
AFNE01.JPG,AFNE01.JPG,AFNE01.JPG,AFNE01.JPG,AFNE01.JPG,AFNE01.JPG,,,,,,,,,,,,,,,,,1,3,13,3,,,,,,,AFSA10.jpg,AFSA05.jpg,AFNE13.jpg,AFNE08.jpg,AFSA10.jpg,FS,4,num_8,32,num_2,1.03328916759,,,2018_Feb_16_1507,59.9984412497,FEMA4ImagesEEG,001,202926,
AFNE01.JPG,AFNE01.JPG,AFNE01.JPG,AFNE01.JPG,AFNE01.JPG,AFNE01.JPG,,,,,,,,,,,,,,,,,1,4,14,9,,,,,,,AFSA13.jpg,AFNE11.jpg,AFSA11.jpg,AFNE20.jpg,AFSA13.jpg,FS,4,num_8,32,num_4,0.800117454578,,,2018_Feb_16_1507,59.9984412497,FEMA4ImagesEEG,001,202926,
AFNE01.JPG,AFNE01.JPG,AFNE01.JPG,AFNE01.JPG,AFNE01.JPG,AFNE01.JPG,,,,,,,,,,,,,,,,,1,5,15,2,,,,,,,AFNE11.jpg,AFNE15.jpg,AFSA09.jpg,AFSA06.jpg,AFNE15.jpg,FN,3,num_6,16,num_6,0.70010080823,,,2018_Feb_16_1507,59.9984412497,FEMA4ImagesEEG,001,202926,
AFNE01.JPG,AFNE01.JPG,AFNE01.JPG,AFNE01.JPG,AFNE01.JPG,AFNE01.JPG,,,,,,,,,,,,,,,,,1,6,16,4,,,,,,,AFNE07.jpg,AFSA11.jpg,AFNE10.jpg,AFSA13.jpg,AFSA11.jpg,FS,4,num_6,32,num_4,1.11657318732,,,2018_Feb_16_1507,59.9984412497,FEMA4ImagesEEG,001,202926,
AFNE01.JPG,AFNE01.JPG,AFNE01.JPG,AFNE01.JPG,AFNE01.JPG,AFNE01.JPG,,,,,,,,,,,,,,,,,1,7,17,8,,,,,,,AFNE19.jpg,AFNE05.jpg,AFSA05.jpg,AFSA18.jpg,AFSA18.jpg,FS,4,num_4,32,num_2,0.950077314107,,,2018_Feb_16_1507,59.9984412497,FEMA4ImagesEEG,001,202926,
AFNE01.JPG,AFNE01.JPG,AFNE01.JPG,AFNE01.JPG,AFNE01.JPG,AFNE01.JPG,,,,,,,,,,,,,,,,,1,8,18,1,,,,,,,AFSA13.jpg,AFNE05.jpg,AFSA01.jpg,AFNE03.jpg,AFSA13.jpg,FS,4,num_8,32,num_2,0.700143466502,,,2018_Feb_16_1507,59.9984412497,FEMA4ImagesEEG,001,202926,
AFNE01.JPG,AFNE01.JPG,AFNE01.JPG,AFNE01.JPG,AFNE01.JPG,AFNE01.JPG,,,,,,,,,,,,,,,,,1,9,19,7,,,,,,,AFNE19.jpg,AFNE05.jpg,AFSA14.jpg,AFSA18.jpg,AFNE19.jpg,FN,3,num_8,32,num_6,0.416785420237,,,2018_Feb_16_1507,59.9984412497,FEMA4ImagesEEG,001,202926,
AFNE01.JPG,AFNE01.JPG,AFNE01.JPG,AFNE01.JPG,AFNE01.JPG,AFNE01.JPG,,,,,,,,,,,,,,,,,2,0,20,4,,,,,,,AFNE16.jpg,AFNE10.jpg,AFSA06.jpg,AFSA16.jpg,AFSA16.jpg,FS,4,num_4,32,num_8,0.283509435016,,,2018_Feb_16_1507,59.9984412497,FEMA4ImagesEEG,001,202926,
AFNE01.JPG,AFNE01.JPG,AFNE01.JPG,AFNE01.JPG,AFNE01.JPG,AFNE01.JPG,,,,,,,,,,,,,,,,,2,1,21,6,,,,,,,AFNE12.jpg,AFNE02.jpg,AFSA20.jpg,AFSA12.jpg,AFNE02.jpg,FN,3,num_6,32,num_2,0.400164731489,,,2018_Feb_16_1507,59.9984412497,FEMA4ImagesEEG,001,202926,
AFNE01.JPG,AFNE01.JPG,AFNE01.JPG,AFNE01.JPG,AFNE01.JPG,AFNE01.JPG,,,,,,,,,,,,,,,,,2,2,22,7,,,,,,,AFSA18.jpg,AFSA02.jpg,AFNE02.jpg,AFNE04.jpg,AFNE04.jpg,FN,3,num_4,16,num_4,0.400246840642,,,2018_Feb_16_1507,59.9984412497,FEMA4ImagesEEG,001,202926,
AFNE01.JPG,AFNE01.JPG,AFNE01.JPG,AFNE01.JPG,AFNE01.JPG,AFNE01.JPG,,,,,,,,,,,,,,,,,2,3,23,2,,,,,,,AFNE04.jpg,AFSA12.jpg,AFSA08.jpg,AFNE18.jpg,AFSA08.jpg,FS,4,num_2,16,num_2,0.916778524351,,,2018_Feb_16_1507,59.9984412497,FEMA4ImagesEEG,001,202926,
AFNE01.JPG,AFNE01.JPG,AFNE01.JPG,AFNE01.JPG,AFNE01.JPG,AFNE01.JPG,,,,,,,,,,,,,,,,,2,4,24,1,,,,,,,AFNE03.jpg,AFSA02.jpg,AFNE09.jpg,AFSA07.jpg,AFNE03.jpg,FN,3,num_8,16,num_8,1.05009011159,,,2018_Feb_16_1507,59.9984412497,FEMA4ImagesEEG,001,202926,
AFNE01.JPG,AFNE01.JPG,AFNE01.JPG,AFNE01.JPG,AFNE01.JPG,AFNE01.JPG,,,,,,,,,,,,,,,,,2,5,25,0,,,,,,,AFSA01.jpg,AFSA10.jpg,AFNE17.jpg,AFNE04.jpg,AFNE17.jpg,FN,3,num_2,32,num_8,1.40014741159,,,2018_Feb_16_1507,59.9984412497,FEMA4ImagesEEG,001,202926,
AFNE01.JPG,AFNE01.JPG,AFNE01.JPG,AFNE01.JPG,AFNE01.JPG,AFNE01.JPG,,,,,,,,,,,,,,,,,2,6,26,5,,,,,,,AFNE17.jpg,AFNE15.jpg,AFSA11.jpg,AFSA12.jpg,AFNE17.jpg,FN,3,num_8,16,num_8,1.18348926054,,,2018_Feb_16_1507,59.9984412497,FEMA4ImagesEEG,001,202926,
AFNE01.JPG,AFNE01.JPG,AFNE01.JPG,AFNE01.JPG,AFNE01.JPG,AFNE01.JPG,,,,,,,,,,,,,,,,,2,7,27,8,,,,,,,AFNE18.jpg,AFSA05.jpg,AFNE04.jpg,AFSA18.jpg,AFSA05.jpg,FS,4,num_6,16,num_6,0.683467931404,,,2018_Feb_16_1507,59.9984412497,FEMA4ImagesEEG,001,202926,
AFNE01.JPG,AFNE01.JPG,AFNE01.JPG,AFNE01.JPG,AFNE01.JPG,AFNE01.JPG,,,,,,,,,,,,,,,,,2,8,28,9,,,,,,,AFSA16.jpg,AFNE15.jpg,AFNE01.jpg,AFSA10.jpg,AFNE15.jpg,FN,3,num_6,32,num_8,1.11676306474,,,2018_Feb_16_1507,59.9984412497,FEMA4ImagesEEG,001,202926,
AFNE01.JPG,AFNE01.JPG,AFNE01.JPG,AFNE01.JPG,AFNE01.JPG,AFNE01.JPG,,,,,,,,,,,,,,,,,2,9,29,3,,,,,,,AFSA15.jpg,AFNE02.jpg,AFNE19.jpg,AFSA09.jpg,AFSA09.jpg,FS,4,num_4,16,num_4,0.616762904368,,,2018_Feb_16_1507,59.9984412497,FEMA4ImagesEEG,001,202926,
AFNE01.JPG,AFNE01.JPG,AFNE01.JPG,AFNE01.JPG,AFNE01.JPG,AFNE01.JPG,,,,,,,,,,,,,,,,,3,0,30,9,,,,,,,AFSA12.jpg,AFSA11.jpg,AFNE18.jpg,AFNE14.jpg,AFSA12.jpg,FS,4,num_8,32,num_2,0.701004650393,,,2018_Feb_16_1507,59.9984412497,FEMA4ImagesEEG,001,202926,
AFNE01.JPG,AFNE01.JPG,AFNE01.JPG,AFNE01.JPG,AFNE01.JPG,AFNE01.JPG,,,,,,,,,,,,,,,,,3,1,31,7,,,,,,,AFNE20.jpg,AFSA15.jpg,AFSA12.jpg,AFNE15.jpg,AFNE15.jpg,FN,3,num_4,32,num_8,0.566826426702,,,2018_Feb_16_1507,59.9984412497,FEMA4ImagesEEG,001,202926,
AFNE01.JPG,AFNE01.JPG,AFNE01.JPG,AFNE01.JPG,AFNE01.JPG,AFNE01.JPG,,,,,,,,,,,,,,,,,3,2,32,1,,,,,,,AFSA02.jpg,AFNE09.jpg,AFNE15.jpg,AFSA14.jpg,AFNE09.jpg,FN,3,num_6,16,num_6,0.766763818473,,,2018_Feb_16_1507,59.9984412497,FEMA4ImagesEEG,001,202926,
AFNE01.JPG,AFNE01.JPG,AFNE01.JPG,AFNE01.JPG,AFNE01.JPG,AFNE01.JPG,,,,,,,,,,,,,,,,,3,3,33,8,,,,,,,AFNE12.jpg,AFNE08.jpg,AFSA07.jpg,AFSA09.jpg,AFNE12.jpg,FN,3,num_8,16,num_8,0.633509002017,,,2018_Feb_16_1507,59.9984412497,FEMA4ImagesEEG,001,202926,
AFNE01.JPG,AFNE01.JPG,AFNE01.JPG,AFNE01.JPG,AFNE01.JPG,AFNE01.JPG,,,,,,,,,,,,,,,,,3,4,34,6,,,,,,,AFSA10.jpg,AFNE13.jpg,AFNE17.jpg,AFSA17.jpg,AFNE17.jpg,FN,3,num_2,32,num_4,1.45008453073,,,2018_Feb_16_1507,59.9984412497,FEMA4ImagesEEG,001,202926,
AFNE01.JPG,AFNE01.JPG,AFNE01.JPG,AFNE01.JPG,AFNE01.JPG,AFNE01.JPG,,,,,,,,,,,,,,,,,3,5,35,2,,,,,,,AFNE14.jpg,AFNE19.jpg,AFSA14.jpg,AFSA15.jpg,AFNE14.jpg,FN,3,num_8,16,num_8,2.90018381545,,,2018_Feb_16_1507,59.9984412497,FEMA4ImagesEEG,001,202926,
AFNE01.JPG,AFNE01.JPG,AFNE01.JPG,AFNE01.JPG,AFNE01.JPG,AFNE01.JPG,,,,,,,,,,,,,,,,,3,6,36,3,,,,,,,AFSA19.jpg,AFNE19.jpg,AFSA16.jpg,AFNE20.jpg,AFSA19.jpg,FS,4,num_8,32,num_6,1.9665292942,,,2018_Feb_16_1507,59.9984412497,FEMA4ImagesEEG,001,202926,
AFNE01.JPG,AFNE01.JPG,AFNE01.JPG,AFNE01.JPG,AFNE01.JPG,AFNE01.JPG,,,,,,,,,,,,,,,,,3,7,37,4,,,,,,,AFNE01.jpg,AFSA14.jpg,AFSA08.jpg,AFNE19.jpg,AFNE19.jpg,FN,3,num_4,16,num_4,0.333502683462,,,2018_Feb_16_1507,59.9984412497,FEMA4ImagesEEG,001,202926,
AFNE01.JPG,AFNE01.JPG,AFNE01.JPG,AFNE01.JPG,AFNE01.JPG,AFNE01.JPG,,,,,,,,,,,,,,,,,3,8,38,0,,,,,,,AFSA13.jpg,AFSA03.jpg,AFNE10.jpg,AFNE01.jpg,AFNE10.jpg,FN,3,num_2,16,num_2,0.88340692687,,,2018_Feb_16_1507,59.9984412497,FEMA4ImagesEEG,001,202926,
AFNE01.JPG,AFNE01.JPG,AFNE01.JPG,AFNE01.JPG,AFNE01.JPG,AFNE01.JPG,,,,,,,,,,,,,,,,,3,9,39,5,,,,,,,AFNE15.jpg,AFSA13.jpg,AFNE06.jpg,AFSA05.jpg,AFSA05.jpg,FS,4,num_4,32,num_6,0.816770217213,,,2018_Feb_16_1507,59.9984412497,FEMA4ImagesEEG,001,202926,
AFNE01.JPG,AFNE01.JPG,AFNE01.JPG,AFNE01.JPG,AFNE01.JPG,AFNE01.JPG,,,,,,,,,,,,,,,,,4,0,40,3,,,,,,,AFNE13.jpg,AFNE15.jpg,AFSA16.jpg,AFSA03.jpg,AFNE15.jpg,FN,3,num_6,16,num_6,0.600132272714,,,2018_Feb_16_1507,59.9984412497,FEMA4ImagesEEG,001,202926,
AFNE01.JPG,AFNE01.JPG,AFNE01.JPG,AFNE01.JPG,AFNE01.JPG,AFNE01.JPG,,,,,,,,,,,,,,,,,4,1,41,0,,,,,,,AFSA20.jpg,AFSA11.jpg,AFNE16.jpg,AFNE18.jpg,AFSA11.jpg,FS,4,num_6,32,num_2,0.883442208145,,,2018_Feb_16_1507,59.9984412497,FEMA4ImagesEEG,001,202926,
AFNE01.JPG,AFNE01.JPG,AFNE01.JPG,AFNE01.JPG,AFNE01.JPG,AFNE01.JPG,,,,,,,,,,,,,,,,,4,2,42,7,,,,,,,AFNE12.jpg,AFSA15.jpg,AFSA19.jpg,AFNE11.jpg,AFSA19.jpg,FS,4,num_2,32,num_8,0.483486277669,,,2018_Feb_16_1507,59.9984412497,FEMA4ImagesEEG,001,202926,
AFNE01.JPG,AFNE01.JPG,AFNE01.JPG,AFNE01.JPG,AFNE01.JPG,AFNE01.JPG,,,,,,,,,,,,,,,,,4,3,43,8,,,,,,,AFNE09.jpg,AFSA14.jpg,AFSA17.jpg,AFNE06.jpg,AFSA14.jpg,FS,4,num_6,32,num_4,0.483478579936,,,2018_Feb_16_1507,59.9984412497,FEMA4ImagesEEG,001,202926,
AFNE01.JPG,AFNE01.JPG,AFNE01.JPG,AFNE01.JPG,AFNE01.JPG,AFNE01.JPG,,,,,,,,,,,,,,,,,4,4,44,9,,,,,,,AFSA10.jpg,AFSA05.jpg,AFNE17.jpg,AFNE10.jpg,AFSA05.jpg,FS,4,num_6,32,num_2,0.366805642823,,,2018_Feb_16_1507,59.9984412497,FEMA4ImagesEEG,001,202926,
AFNE01.JPG,AFNE01.JPG,AFNE01.JPG,AFNE01.JPG,AFNE01.JPG,AFNE01.JPG,,,,,,,,,,,,,,,,,4,5,45,5,,,,,,,AFNE04.jpg,AFNE02.jpg,AFSA17.jpg,AFSA08.jpg,AFSA17.jpg,FS,4,num_2,32,num_8,0.85014919169,,,2018_Feb_16_1507,59.9984412497,FEMA4ImagesEEG,001,202926,
AFNE01.JPG,AFNE01.JPG,AFNE01.JPG,AFNE01.JPG,AFNE01.JPG,AFNE01.JPG,,,,,,,,,,,,,,,,,4,6,46,2,,,,,,,AFSA10.jpg,AFSA08.jpg,AFNE02.jpg,AFNE18.jpg,AFSA10.jpg,FS,4,num_8,32,num_6,0.516950568685,,,2018_Feb_16_1507,59.9984412497,FEMA4ImagesEEG,001,202926,
AFNE01.JPG,AFNE01.JPG,AFNE01.JPG,AFNE01.JPG,AFNE01.JPG,AFNE01.JPG,,,,,,,,,,,,,,,,,4,7,47,6,,,,,,,AFSA14.jpg,AFNE01.jpg,AFNE03.jpg,AFSA03.jpg,AFNE01.jpg,FN,3,num_6,32,num_4,0.583468604957,,,2018_Feb_16_1507,59.9984412497,FEMA4ImagesEEG,001,202926,
AFNE01.JPG,AFNE01.JPG,AFNE01.JPG,AFNE01.JPG,AFNE01.JPG,AFNE01.JPG,,,,,,,,,,,,,,,,,4,8,48,1,,,,,,,AFSA20.jpg,AFNE01.jpg,AFNE11.jpg,AFSA19.jpg,AFSA20.jpg,FS,4,num_8,32,num_2,0.650133860372,,,2018_Feb_16_1507,59.9984412497,FEMA4ImagesEEG,001,202926,
AFNE01.JPG,AFNE01.JPG,AFNE01.JPG,AFNE01.JPG,AFNE01.JPG,AFNE01.JPG,,,,,,,,,,,,,,,,,4,9,49,4,,,,,,,AFSA14.jpg,AFSA13.jpg,AFNE17.jpg,AFNE05.jpg,AFNE05.jpg,FN,3,num_4,32,num_8,0.816776631992,,,2018_Feb_16_1507,59.9984412497,FEMA4ImagesEEG,001,202926,
AFNE01.JPG,AFNE01.JPG,AFNE01.JPG,AFNE01.JPG,AFNE01.JPG,AFNE01.JPG,,,,,,,,,,,,,,,,,5,0,50,3,,,,,,,AFSA19.jpg,AFNE19.jpg,AFNE03.jpg,AFSA08.jpg,AFNE03.jpg,FN,3,num_2,32,num_6,0.48354304845,,,2018_Feb_16_1507,59.9984412497,FEMA4ImagesEEG,001,202926,
AFNE01.JPG,AFNE01.JPG,AFNE01.JPG,AFNE01.JPG,AFNE01.JPG,AFNE01.JPG,,,,,,,,,,,,,,,,,5,1,51,0,,,,,,,AFNE03.jpg,AFSA15.jpg,AFNE19.jpg,AFSA09.jpg,AFNE19.jpg,FN,3,num_2,32,num_4,0.600205401179,,,2018_Feb_16_1507,59.9984412497,FEMA4ImagesEEG,001,202926,
AFNE01.JPG,AFNE01.JPG,AFNE01.JPG,AFNE01.JPG,AFNE01.JPG,AFNE01.JPG,,,,,,,,,,,,,,,,,5,2,52,1,,,,,,,AFNE07.jpg,AFNE15.jpg,AFSA03.jpg,AFSA12.jpg,AFNE15.jpg,FN,3,num_6,32,num_2,1.91668583081,,,2018_Feb_16_1507,59.9984412497,FEMA4ImagesEEG,001,202926,
AFNE01.JPG,AFNE01.JPG,AFNE01.JPG,AFNE01.JPG,AFNE01.JPG,AFNE01.JPG,,,,,,,,,,,,,,,,,5,3,53,8,,,,,,,AFNE08.jpg,AFNE15.jpg,AFSA02.jpg,AFSA10.jpg,AFSA10.jpg,FS,4,num_4,32,num_8,0.716697441562,,,2018_Feb_16_1507,59.9984412497,FEMA4ImagesEEG,001,202926,
AFNE01.JPG,AFNE01.JPG,AFNE01.JPG,AFNE01.JPG,AFNE01.JPG,AFNE01.JPG,,,,,,,,,,,,,,,,,5,4,54,5,,,,,,,AFSA19.jpg,AFSA04.jpg,AFNE17.jpg,AFNE11.jpg,AFNE11.jpg,FN,3,num_4,16,num_4,0.650164330565,,,2018_Feb_16_1507,59.9984412497,FEMA4ImagesEEG,001,202926,
AFNE01.JPG,AFNE01.JPG,AFNE01.JPG,AFNE01.JPG,AFNE01.JPG,AFNE01.JPG,,,,,,,,,,,,,,,,,5,5,55,6,,,,,,,AFNE08.jpg,AFNE18.jpg,AFSA04.jpg,AFSA16.jpg,AFNE18.jpg,FN,3,num_6,16,num_6,0.899867246178,,,2018_Feb_16_1507,59.9984412497,FEMA4ImagesEEG,001,202926,
AFNE01.JPG,AFNE01.JPG,AFNE01.JPG,AFNE01.JPG,AFNE01.JPG,AFNE01.JPG,,,,,,,,,,,,,,,,,5,6,56,4,,,,,,,AFSA13.jpg,AFNE15.jpg,AFSA16.jpg,AFNE04.jpg,AFNE15.jpg,FN,3,num_6,32,num_8,0.833455053737,,,2018_Feb_16_1507,59.9984412497,FEMA4ImagesEEG,001,202926,
AFNE01.JPG,AFNE01.JPG,AFNE01.JPG,AFNE01.JPG,AFNE01.JPG,AFNE01.JPG,,,,,,,,,,,,,,,,,5,7,57,9,,,,,,,AFSA07.jpg,AFSA01.jpg,AFNE05.jpg,AFNE13.jpg,AFSA01.jpg,FS,4,num_6,16,num_6,0.716784682538,,,2018_Feb_16_1507,59.9984412497,FEMA4ImagesEEG,001,202926,
AFNE01.JPG,AFNE01.JPG,AFNE01.JPG,AFNE01.JPG,AFNE01.JPG,AFNE01.JPG,,,,,,,,,,,,,,,,,5,8,58,2,,,,,,,AFNE10.jpg,AFSA04.jpg,AFSA19.jpg,AFNE14.jpg,AFSA19.jpg,FS,4,num_2,32,num_8,2.78314651897,,,2018_Feb_16_1507,59.9984412497,FEMA4ImagesEEG,001,202926,
AFNE01.JPG,AFNE01.JPG,AFNE01.JPG,AFNE01.JPG,AFNE01.JPG,AFNE01.JPG,,,,,,,,,,,,,,,,,5,9,59,7,,,,,,,AFNE14.jpg,AFSA04.jpg,AFNE20.jpg,AFSA10.jpg,AFNE20.jpg,FN,3,num_2,32,num_8,0.983438327205,,,2018_Feb_16_1507,59.9984412497,FEMA4ImagesEEG,001,202926,
,,,,,,,,,,,,,,,,,,,,,,,,,,,,,,,,,,,,,,,,,,,space,43.8964093603,2018_Feb_16_1507,59.9984412497,FEMA4ImagesEEG,001,202926,
AFNE01.JPG,AFNE01.JPG,AFNE01.JPG,AFNE01.JPG,AFNE01.JPG,AFNE01.JPG,,,,,,,,,,,,,,,,,,,,,0,0,0,0,,,AMNE16.jpg,AMNE20.jpg,AMSA06.jpg,AMSA01.jpg,AMNE16.jpg,MN,1,num_8,16,num_8,1.00008627876,,,2018_Feb_16_1507,59.9984412497,FEMA4ImagesEEG,001,202926,
AFNE01.JPG,AFNE01.JPG,AFNE01.JPG,AFNE01.JPG,AFNE01.JPG,AFNE01.JPG,,,,,,,,,,,,,,,,,,,,,0,1,1,3,,,AMNE04.jpg,AMSA09.jpg,AMNE15.jpg,AMSA14.jpg,AMSA09.jpg,MS,2,num_6,16,num_6,0.916778203612,,,2018_Feb_16_1507,59.9984412497,FEMA4ImagesEEG,001,202926,
AFNE01.JPG,AFNE01.JPG,AFNE01.JPG,AFNE01.JPG,AFNE01.JPG,AFNE01.JPG,,,,,,,,,,,,,,,,,,,,,0,2,2,1,,,AMSA19.jpg,AMNE06.jpg,AMNE02.jpg,AMSA18.jpg,AMNE06.jpg,MN,1,num_6,32,num_8,0.650226553907,,,2018_Feb_16_1507,59.9984412497,FEMA4ImagesEEG,001,202926,
AFNE01.JPG,AFNE01.JPG,AFNE01.JPG,AFNE01.JPG,AFNE01.JPG,AFNE01.JPG,,,,,,,,,,,,,,,,,,,,,0,3,3,8,,,AMSA19.jpg,AMNE16.jpg,AMSA13.jpg,AMNE05.jpg,AMNE16.jpg,MN,1,num_6,32,num_2,0.400226634092,,,2018_Feb_16_1507,59.9984412497,FEMA4ImagesEEG,001,202926,
AFNE01.JPG,AFNE01.JPG,AFNE01.JPG,AFNE01.JPG,AFNE01.JPG,AFNE01.JPG,,,,,,,,,,,,,,,,,,,,,0,4,4,9,,,AMSA13.jpg,AMNE10.jpg,AMNE20.jpg,AMSA03.jpg,AMSA13.jpg,MS,2,num_8,32,num_4,0.4001730707,,,2018_Feb_16_1507,59.9984412497,FEMA4ImagesEEG,001,202926,
AFNE01.JPG,AFNE01.JPG,AFNE01.JPG,AFNE01.JPG,AFNE01.JPG,AFNE01.JPG,,,,,,,,,,,,,,,,,,,,,0,5,5,5,,,AMNE10.jpg,AMSA10.jpg,AMSA19.jpg,AMNE06.jpg,AMSA19.jpg,MS,2,num_2,32,num_8,0.800114247189,,,2018_Feb_16_1507,59.9984412497,FEMA4ImagesEEG,001,202926,
AFNE01.JPG,AFNE01.JPG,AFNE01.JPG,AFNE01.JPG,AFNE01.JPG,AFNE01.JPG,,,,,,,,,,,,,,,,,,,,,0,6,6,7,,,AMNE13.jpg,AMSA14.jpg,AMNE11.jpg,AMSA20.jpg,AMSA20.jpg,MS,2,num_4,32,num_2,0.883460169523,,,2018_Feb_16_1507,59.9984412497,FEMA4ImagesEEG,001,202926,
AFNE01.JPG,AFNE01.JPG,AFNE01.JPG,AFNE01.JPG,AFNE01.JPG,AFNE01.JPG,,,,,,,,,,,,,,,,,,,,,0,7,7,4,,,AMNE18.jpg,AMSA07.jpg,AMSA13.jpg,AMNE09.jpg,AMNE18.jpg,MN,1,num_8,32,num_4,0.633478531824,,,2018_Feb_16_1507,59.9984412497,FEMA4ImagesEEG,001,202926,
AFNE01.JPG,AFNE01.JPG,AFNE01.JPG,AFNE01.JPG,AFNE01.JPG,AFNE01.JPG,,,,,,,,,,,,,,,,,,,,,0,8,8,6,,,AMSA14.jpg,AMSA11.jpg,AMNE16.jpg,AMNE06.jpg,AMNE06.jpg,MN,1,num_4,32,num_2,1.65009473023,,,2018_Feb_16_1507,59.9984412497,FEMA4ImagesEEG,001,202926,
AFNE01.JPG,AFNE01.JPG,AFNE01.JPG,AFNE01.JPG,AFNE01.JPG,AFNE01.JPG,,,,,,,,,,,,,,,,,,,,,0,9,9,2,,,AMNE18.jpg,AMSA02.jpg,AMSA04.jpg,AMNE02.jpg,AMNE18.jpg,MN,1,num_8,32,num_6,0.533483374981,,,2018_Feb_16_1507,59.9984412497,FEMA4ImagesEEG,001,202926,
AFNE01.JPG,AFNE01.JPG,AFNE01.JPG,AFNE01.JPG,AFNE01.JPG,AFNE01.JPG,,,,,,,,,,,,,,,,,,,,,1,0,10,6,,,AMSA19.jpg,AMNE20.jpg,AMSA07.jpg,AMNE03.jpg,AMSA19.jpg,MS,2,num_8,32,num_4,0.500171755671,,,2018_Feb_16_1507,59.9984412497,FEMA4ImagesEEG,001,202926,
AFNE01.JPG,AFNE01.JPG,AFNE01.JPG,AFNE01.JPG,AFNE01.JPG,AFNE01.JPG,,,,,,,,,,,,,,,,,,,,,1,1,11,5,,,AMNE08.jpg,AMSA11.jpg,AMNE04.jpg,AMSA10.jpg,AMNE08.jpg,MN,1,num_8,32,num_6,1.53336053199,,,2018_Feb_16_1507,59.9984412497,FEMA4ImagesEEG,001,202926,
AFNE01.JPG,AFNE01.JPG,AFNE01.JPG,AFNE01.JPG,AFNE01.JPG,AFNE01.JPG,,,,,,,,,,,,,,,,,,,,,1,2,12,1,,,AMNE09.jpg,AMSA02.jpg,AMNE20.jpg,AMSA14.jpg,AMSA14.jpg,MS,2,num_4,32,num_8,1.18345333779,,,2018_Feb_16_1507,59.9984412497,FEMA4ImagesEEG,001,202926,
AFNE01.JPG,AFNE01.JPG,AFNE01.JPG,AFNE01.JPG,AFNE01.JPG,AFNE01.JPG,,,,,,,,,,,,,,,,,,,,,1,3,13,4,,,AMSA13.jpg,AMNE05.jpg,AMSA09.jpg,AMNE10.jpg,AMSA13.jpg,MS,2,num_8,32,num_6,0.916809956761,,,2018_Feb_16_1507,59.9984412497,FEMA4ImagesEEG,001,202926,
AFNE01.JPG,AFNE01.JPG,AFNE01.JPG,AFNE01.JPG,AFNE01.JPG,AFNE01.JPG,,,,,,,,,,,,,,,,,,,,,1,4,14,3,,,AMNE01.jpg,AMSA02.jpg,AMNE08.jpg,AMSA07.jpg,AMNE08.jpg,MN,1,num_2,32,num_4,0.966895257266,,,2018_Feb_16_1507,59.9984412497,FEMA4ImagesEEG,001,202926,
AFNE01.JPG,AFNE01.JPG,AFNE01.JPG,AFNE01.JPG,AFNE01.JPG,AFNE01.JPG,,,,,,,,,,,,,,,,,,,,,1,5,15,9,,,AMSA11.jpg,AMNE11.jpg,AMSA19.jpg,AMNE04.jpg,AMSA11.jpg,MS,2,num_8,16,num_8,0.883308780772,,,2018_Feb_16_1507,59.9984412497,FEMA4ImagesEEG,001,202926,
AFNE01.JPG,AFNE01.JPG,AFNE01.JPG,AFNE01.JPG,AFNE01.JPG,AFNE01.JPG,,,,,,,,,,,,,,,,,,,,,1,6,16,7,,,AMSA01.jpg,AMNE12.jpg,AMNE13.jpg,AMSA05.jpg,AMNE12.jpg,MN,1,num_6,32,num_4,3.23330963073,,,2018_Feb_16_1507,59.9984412497,FEMA4ImagesEEG,001,202926,
AFNE01.JPG,AFNE01.JPG,AFNE01.JPG,AFNE01.JPG,AFNE01.JPG,AFNE01.JPG,,,,,,,,,,,,,,,,,,,,,1,7,17,8,,,AMNE20.jpg,AMNE09.jpg,AMSA11.jpg,AMSA12.jpg,AMNE20.jpg,MN,1,num_8,32,num_6,1.31658499051,,,2018_Feb_16_1507,59.9984412497,FEMA4ImagesEEG,001,202926,
AFNE01.JPG,AFNE01.JPG,AFNE01.JPG,AFNE01.JPG,AFNE01.JPG,AFNE01.JPG,,,,,,,,,,,,,,,,,,,,,1,8,18,2,,,AMNE19.jpg,AMNE11.jpg,AMSA10.jpg,AMSA16.jpg,AMNE19.jpg,MN,1,num_8,32,num_2,1.74975535642,,,2018_Feb_16_1507,59.9984412497,FEMA4ImagesEEG,001,202926,
AFNE01.JPG,AFNE01.JPG,AFNE01.JPG,AFNE01.JPG,AFNE01.JPG,AFNE01.JPG,,,,,,,,,,,,,,,,,,,,,1,9,19,0,,,AMNE14.jpg,AMSA06.jpg,AMSA20.jpg,AMNE05.jpg,AMSA06.jpg,MS,2,num_6,32,num_8,0.966786526786,,,2018_Feb_16_1507,59.9984412497,FEMA4ImagesEEG,001,202926,
AFNE01.JPG,AFNE01.JPG,AFNE01.JPG,AFNE01.JPG,AFNE01.JPG,AFNE01.JPG,,,,,,,,,,,,,,,,,,,,,2,0,20,6,,,AMSA16.jpg,AMNE09.jpg,AMNE10.jpg,AMSA18.jpg,AMSA16.jpg,MS,2,num_8,32,num_2,1.31660423484,,,2018_Feb_16_1507,59.9984412497,FEMA4ImagesEEG,001,202926,
AFNE01.JPG,AFNE01.JPG,AFNE01.JPG,AFNE01.JPG,AFNE01.JPG,AFNE01.JPG,,,,,,,,,,,,,,,,,,,,,2,1,21,1,,,AMNE10.jpg,AMNE14.jpg,AMSA18.jpg,AMSA02.jpg,AMNE10.jpg,MN,1,num_8,16,num_8,0.816787537114,,,2018_Feb_16_1507,59.9984412497,FEMA4ImagesEEG,001,202926,
AFNE01.JPG,AFNE01.JPG,AFNE01.JPG,AFNE01.JPG,AFNE01.JPG,AFNE01.JPG,,,,,,,,,,,,,,,,,,,,,2,2,22,3,,,AMNE11.jpg,AMSA07.jpg,AMSA18.jpg,AMNE02.jpg,AMSA07.jpg,MS,2,num_6,16,num_6,0.616787280523,,,2018_Feb_16_1507,59.9984412497,FEMA4ImagesEEG,001,202926,
AFNE01.JPG,AFNE01.JPG,AFNE01.JPG,AFNE01.JPG,AFNE01.JPG,AFNE01.JPG,,,,,,,,,,,,,,,,,,,,,2,3,23,9,,,AMSA14.jpg,AMSA06.jpg,AMNE16.jpg,AMNE09.jpg,AMNE16.jpg,MN,1,num_2,16,num_2,0.633473400002,,,2018_Feb_16_1507,59.9984412497,FEMA4ImagesEEG,001,202926,
AFNE01.JPG,AFNE01.JPG,AFNE01.JPG,AFNE01.JPG,AFNE01.JPG,AFNE01.JPG,,,,,,,,,,,,,,,,,,,,,2,4,24,4,,,AMSA02.jpg,AMNE01.jpg,AMSA20.jpg,AMNE12.jpg,AMSA02.jpg,MS,2,num_8,16,num_8,0.766739763058,,,2018_Feb_16_1507,59.9984412497,FEMA4ImagesEEG,001,202926,
AFNE01.JPG,AFNE01.JPG,AFNE01.JPG,AFNE01.JPG,AFNE01.JPG,AFNE01.JPG,,,,,,,,,,,,,,,,,,,,,2,5,25,7,,,AMSA20.jpg,AMNE08.jpg,AMNE02.jpg,AMSA03.jpg,AMSA03.jpg,MS,2,num_4,32,num_6,0.800148886988,,,2018_Feb_16_1507,59.9984412497,FEMA4ImagesEEG,001,202926,
AFNE01.JPG,AFNE01.JPG,AFNE01.JPG,AFNE01.JPG,AFNE01.JPG,AFNE01.JPG,,,,,,,,,,,,,,,,,,,,,2,6,26,0,,,AMNE15.jpg,AMNE05.jpg,AMSA13.jpg,AMSA20.jpg,AMSA13.jpg,MS,2,num_2,16,num_2,1.11679128976,,,2018_Feb_16_1507,59.9984412497,FEMA4ImagesEEG,001,202926,
AFNE01.JPG,AFNE01.JPG,AFNE01.JPG,AFNE01.JPG,AFNE01.JPG,AFNE01.JPG,,,,,,,,,,,,,,,,,,,,,2,7,27,8,,,AMNE08.jpg,AMSA18.jpg,AMSA06.jpg,AMNE16.jpg,AMNE16.jpg,MN,1,num_4,32,num_8,0.750184184301,,,2018_Feb_16_1507,59.9984412497,FEMA4ImagesEEG,001,202926,
AFNE01.JPG,AFNE01.JPG,AFNE01.JPG,AFNE01.JPG,AFNE01.JPG,AFNE01.JPG,,,,,,,,,,,,,,,,,,,,,2,8,28,2,,,AMSA09.jpg,AMSA08.jpg,AMNE15.jpg,AMNE08.jpg,AMSA09.jpg,MS,2,num_8,32,num_2,1.183403944,,,2018_Feb_16_1507,59.9984412497,FEMA4ImagesEEG,001,202926,
AFNE01.JPG,AFNE01.JPG,AFNE01.JPG,AFNE01.JPG,AFNE01.JPG,AFNE01.JPG,,,,,,,,,,,,,,,,,,,,,2,9,29,5,,,AMSA15.jpg,AMNE08.jpg,AMNE12.jpg,AMSA16.jpg,AMSA15.jpg,MS,2,num_8,16,num_8,0.749856709906,,,2018_Feb_16_1507,59.9984412497,FEMA4ImagesEEG,001,202926,
AFNE01.JPG,AFNE01.JPG,AFNE01.JPG,AFNE01.JPG,AFNE01.JPG,AFNE01.JPG,,,,,,,,,,,,,,,,,,,,,3,0,30,2,,,AMNE17.jpg,AMSA14.jpg,AMNE19.jpg,AMSA17.jpg,AMNE19.jpg,MN,1,num_2,32,num_8,3.56659549471,,,2018_Feb_16_1507,59.9984412497,FEMA4ImagesEEG,001,202926,
AFNE01.JPG,AFNE01.JPG,AFNE01.JPG,AFNE01.JPG,AFNE01.JPG,AFNE01.JPG,,,,,,,,,,,,,,,,,,,,,3,1,31,3,,,AMSA02.jpg,AMSA13.jpg,AMNE01.jpg,AMNE12.jpg,AMNE01.jpg,MN,1,num_2,32,num_6,0.450157017718,,,2018_Feb_16_1507,59.9984412497,FEMA4ImagesEEG,001,202926,
AFNE01.JPG,AFNE01.JPG,AFNE01.JPG,AFNE01.JPG,AFNE01.JPG,AFNE01.JPG,,,,,,,,,,,,,,,,,,,,,3,2,32,9,,,AMNE04.jpg,AMNE16.jpg,AMSA10.jpg,AMSA15.jpg,AMNE04.jpg,MN,1,num_8,16,num_8,0.733455406551,,,2018_Feb_16_1507,59.9984412497,FEMA4ImagesEEG,001,202926,
AFNE01.JPG,AFNE01.JPG,AFNE01.JPG,AFNE01.JPG,AFNE01.JPG,AFNE01.JPG,,,,,,,,,,,,,,,,,,,,,3,3,33,8,,,AMSA04.jpg,AMSA15.jpg,AMNE11.jpg,AMNE05.jpg,AMNE11.jpg,MN,1,num_2,32,num_4,1.60009859513,,,2018_Feb_16_1507,59.9984412497,FEMA4ImagesEEG,001,202926,
AFNE01.JPG,AFNE01.JPG,AFNE01.JPG,AFNE01.JPG,AFNE01.JPG,AFNE01.JPG,,,,,,,,,,,,,,,,,,,,,3,4,34,6,,,AMNE07.jpg,AMSA09.jpg,AMNE04.jpg,AMSA07.jpg,AMSA09.jpg,MS,2,num_6,32,num_8,3.53322485944,,,2018_Feb_16_1507,59.9984412497,FEMA4ImagesEEG,001,202926,
AFNE01.JPG,AFNE01.JPG,AFNE01.JPG,AFNE01.JPG,AFNE01.JPG,AFNE01.JPG,,,,,,,,,,,,,,,,,,,,,3,5,35,4,,,AMSA20.jpg,AMNE14.jpg,AMSA15.jpg,AMNE08.jpg,AMNE14.jpg,MN,1,num_6,16,num_6,0.383481819398,,,2018_Feb_16_1507,59.9984412497,FEMA4ImagesEEG,001,202926,
AFNE01.JPG,AFNE01.JPG,AFNE01.JPG,AFNE01.JPG,AFNE01.JPG,AFNE01.JPG,,,,,,,,,,,,,,,,,,,,,3,6,36,1,,,AMSA17.jpg,AMNE10.jpg,AMSA01.jpg,AMNE04.jpg,AMSA01.jpg,MS,2,num_2,32,num_4,0.900157514864,,,2018_Feb_16_1507,59.9984412497,FEMA4ImagesEEG,001,202926,
AFNE01.JPG,AFNE01.JPG,AFNE01.JPG,AFNE01.JPG,AFNE01.JPG,AFNE01.JPG,,,,,,,,,,,,,,,,,,,,,3,7,37,5,,,AMSA07.jpg,AMNE10.jpg,AMSA10.jpg,AMNE08.jpg,AMSA07.jpg,MS,2,num_8,32,num_6,0.53348080907,,,2018_Feb_16_1507,59.9984412497,FEMA4ImagesEEG,001,202926,
AFNE01.JPG,AFNE01.JPG,AFNE01.JPG,AFNE01.JPG,AFNE01.JPG,AFNE01.JPG,,,,,,,,,,,,,,,,,,,,,3,8,38,7,,,AMNE03.jpg,AMSA19.jpg,AMNE14.jpg,AMSA02.jpg,AMSA02.jpg,MS,2,num_4,32,num_2,0.466784441984,,,2018_Feb_16_1507,59.9984412497,FEMA4ImagesEEG,001,202926,
