IPosition2,IPosition3,IPosition1,IPosition6,IPosition4,IPosition5,TrialsF1.thisRepN,TrialsF1.thisTrialN,TrialsF1.thisN,TrialsF1.thisIndex,TrialsM1.thisRepN,TrialsM1.thisTrialN,TrialsM1.thisN,TrialsM1.thisIndex,TrialsF2.thisRepN,TrialsF2.thisTrialN,TrialsF2.thisN,TrialsF2.thisIndex,TrialsM2.thisRepN,TrialsM2.thisTrialN,TrialsM2.thisN,TrialsM2.thisIndex,TrialsF3.thisRepN,TrialsF3.thisTrialN,TrialsF3.thisN,TrialsF3.thisIndex,TrialsM3.thisRepN,TrialsM3.thisTrialN,TrialsM3.thisN,TrialsM3.thisIndex,InstrKey_resp.keys,InstrKey_resp.rt,Image0 _Position,Image1 _Position,Image2 _Position,Image3 _Position,Center_image,condition,code,correct_answer,accuracy,Key_Resp.keys,Key_Resp.rt,BreakKey_resp.keys,BreakKey_resp.rt,date,frameRate,expName,session,participant,
,,,,,,,,,,,,,,,,,,,,,,,,,,,,,,space,22.5154081553,,,,,,,,,,,,,,2018_Feb_06_1606,59.9967478861,FEMA4ImagesEEG,001,202906,
AMSA21.JPG,AMNE23.JPG,AMNE21.JPG,AMSA25.JPG,AMNE25.JPG,AMSA23.JPG,0,0,0,5,,,,,,,,,,,,,,,,,,,,,,,AFSA18.jpg,AFNE09.jpg,AFNE14.jpg,AFSA15.jpg,AFSA18.jpg,FS,4,num_8,16,num_8,0.716766357888,,,2018_Feb_06_1606,59.9967478861,FEMA4ImagesEEG,001,202906,
AFSA25.JPG,AFNE24.JPG,AFSA24.JPG,AFNE21.JPG,AFSA21.JPG,AFNE25.JPG,0,1,1,2,,,,,,,,,,,,,,,,,,,,,,,AFNE15.jpg,AFSA12.jpg,AFNE10.jpg,AFSA08.jpg,AFNE15.jpg,FN,3,num_8,32,num_6,0.683603518875,,,2018_Feb_06_1606,59.9967478861,FEMA4ImagesEEG,001,202906,
AFNE22.JPG,AFSA24.JPG,AFSA22.JPG,AFNE25.JPG,AFNE24.JPG,AFSA25.JPG,0,2,2,6,,,,,,,,,,,,,,,,,,,,,,,AFSA12.jpg,AFNE20.jpg,AFNE19.jpg,AFSA20.jpg,AFNE19.jpg,FN,3,num_2,32,num_4,1.11677155388,,,2018_Feb_06_1606,59.9967478861,FEMA4ImagesEEG,001,202906,
AMSA25.JPG,AMNE24.JPG,AMSA24.JPG,AMNE26.JPG,AMSA21.JPG,AMNE25.JPG,0,3,3,3,,,,,,,,,,,,,,,,,,,,,,,AFNE16.jpg,AFSA11.jpg,AFSA08.jpg,AFNE09.jpg,AFSA08.jpg,FS,4,num_2,32,num_8,1.03343771258,,,2018_Feb_06_1606,59.9967478861,FEMA4ImagesEEG,001,202906,
AFNE23.JPG,AFNE24.JPG,AFNE22.JPG,AFSA24.JPG,AFSA22.JPG,AFSA23.JPG,0,4,4,8,,,,,,,,,,,,,,,,,,,,,,,AFSA06.jpg,AFNE05.jpg,AFNE03.jpg,AFSA18.jpg,AFSA18.jpg,FS,4,num_4,16,num_4,0.966627397574,,,2018_Feb_06_1606,59.9967478861,FEMA4ImagesEEG,001,202906,
AMNE23.JPG,AMNE24.JPG,AMNE22.JPG,AMSA24.JPG,AMSA22.JPG,AMSA23.JPG,0,5,5,9,,,,,,,,,,,,,,,,,,,,,,,AFSA09.jpg,AFNE13.jpg,AFNE16.jpg,AFSA07.jpg,AFSA07.jpg,FS,4,num_4,32,num_8,1.01676087314,,,2018_Feb_06_1606,59.9967478861,FEMA4ImagesEEG,001,202906,
AFSA21.JPG,AFNE23.JPG,AFNE21.JPG,AFSA25.JPG,AFNE25.JPG,AFSA23.JPG,0,6,6,4,,,,,,,,,,,,,,,,,,,,,,,AFNE15.jpg,AFSA13.jpg,AFSA17.jpg,AFNE03.jpg,AFSA17.jpg,FS,4,num_2,16,num_2,0.883576127701,,,2018_Feb_06_1606,59.9967478861,FEMA4ImagesEEG,001,202906,
AMSA21.JPG,AMNE22.JPG,AMNE21.JPG,AMSA23.JPG,AMSA22.JPG,AMNE23.JPG,0,7,7,1,,,,,,,,,,,,,,,,,,,,,,,AFSA20.jpg,AFNE03.jpg,AFSA12.jpg,AFNE10.jpg,AFSA12.jpg,FS,4,num_2,16,num_2,0.883492735215,,,2018_Feb_06_1606,59.9967478861,FEMA4ImagesEEG,001,202906,
AFSA21.JPG,AFNE22.JPG,AFNE21.JPG,AFSA23.JPG,AFSA22.JPG,AFNE23.JPG,0,8,8,0,,,,,,,,,,,,,,,,,,,,,,,AFNE09.jpg,AFSA09.jpg,AFNE06.jpg,AFSA11.jpg,AFSA11.jpg,FS,4,num_4,16,num_4,0.81677030283,,,2018_Feb_06_1606,59.9967478861,FEMA4ImagesEEG,001,202906,
AMNE22.JPG,AMSA24.JPG,AMSA22.JPG,AMNE25.JPG,AMNE24.JPG,AMSA25.JPG,0,9,9,7,,,,,,,,,,,,,,,,,,,,,,,AFNE13.jpg,AFSA04.jpg,AFSA08.jpg,AFNE20.jpg,AFNE13.jpg,FN,3,num_8,32,num_6,0.866752068745,,,2018_Feb_06_1606,59.9967478861,FEMA4ImagesEEG,001,202906,
AFNE22.JPG,AFSA24.JPG,AFSA22.JPG,AFNE25.JPG,AFNE24.JPG,AFSA25.JPG,,,,,0,0,0,6,,,,,,,,,,,,,,,,,,,AMSA19.jpg,AMSA07.jpg,AMNE07.jpg,AMNE06.jpg,AMNE07.jpg,MN,1,num_2,32,num_4,0.933428635588,,,2018_Feb_06_1606,59.9967478861,FEMA4ImagesEEG,001,202906,
AMNE22.JPG,AMSA24.JPG,AMSA22.JPG,AMNE25.JPG,AMNE24.JPG,AMSA25.JPG,,,,,0,1,1,7,,,,,,,,,,,,,,,,,,,AMNE20.jpg,AMSA06.jpg,AMSA12.jpg,AMNE07.jpg,AMNE07.jpg,MN,1,num_4,16,num_4,0.983428042382,,,2018_Feb_06_1606,59.9967478861,FEMA4ImagesEEG,001,202906,
AMSA21.JPG,AMNE23.JPG,AMNE21.JPG,AMSA25.JPG,AMNE25.JPG,AMSA23.JPG,,,,,0,2,2,5,,,,,,,,,,,,,,,,,,,AMNE11.jpg,AMSA01.jpg,AMNE08.jpg,AMSA17.jpg,AMSA17.jpg,MS,2,num_4,32,num_2,1.30007373798,,,2018_Feb_06_1606,59.9967478861,FEMA4ImagesEEG,001,202906,
AFSA21.JPG,AFNE22.JPG,AFNE21.JPG,AFSA23.JPG,AFSA22.JPG,AFNE23.JPG,,,,,0,3,3,0,,,,,,,,,,,,,,,,,,,AMSA10.jpg,AMSA05.jpg,AMNE15.jpg,AMNE16.jpg,AMSA10.jpg,MS,2,num_8,32,num_2,1.55010188301,,,2018_Feb_06_1606,59.9967478861,FEMA4ImagesEEG,001,202906,
AMNE23.JPG,AMNE24.JPG,AMNE22.JPG,AMSA24.JPG,AMSA22.JPG,AMSA23.JPG,,,,,0,4,4,9,,,,,,,,,,,,,,,,,,,AMNE19.jpg,AMSA04.jpg,AMSA01.jpg,AMNE18.jpg,AMSA01.jpg,MS,2,num_2,32,num_6,0.766813554568,,,2018_Feb_06_1606,59.9967478861,FEMA4ImagesEEG,001,202906,
AFNE23.JPG,AFNE24.JPG,AFNE22.JPG,AFSA24.JPG,AFSA22.JPG,AFSA23.JPG,,,,,0,5,5,8,,,,,,,,,,,,,,,,,,,AMSA16.jpg,AMNE05.jpg,AMNE15.jpg,AMSA04.jpg,AMSA04.jpg,MS,2,num_4,16,num_4,0.550179501763,,,2018_Feb_06_1606,59.9967478861,FEMA4ImagesEEG,001,202906,
AFSA21.JPG,AFNE23.JPG,AFNE21.JPG,AFSA25.JPG,AFNE25.JPG,AFSA23.JPG,,,,,0,6,6,4,,,,,,,,,,,,,,,,,,,AMSA13.jpg,AMNE10.jpg,AMSA14.jpg,AMNE04.jpg,AMNE04.jpg,MN,1,num_4,32,num_2,0.816794358427,,,2018_Feb_06_1606,59.9967478861,FEMA4ImagesEEG,001,202906,
AFSA25.JPG,AFNE24.JPG,AFSA24.JPG,AFNE21.JPG,AFSA21.JPG,AFNE25.JPG,,,,,0,7,7,2,,,,,,,,,,,,,,,,,,,AMSA03.jpg,AMNE10.jpg,AMNE16.jpg,AMSA01.jpg,AMSA03.jpg,MS,2,num_8,32,num_4,0.783476602286,,,2018_Feb_06_1606,59.9967478861,FEMA4ImagesEEG,001,202906,
AMSA21.JPG,AMNE22.JPG,AMNE21.JPG,AMSA23.JPG,AMSA22.JPG,AMNE23.JPG,,,,,0,8,8,1,,,,,,,,,,,,,,,,,,,AMNE02.jpg,AMSA09.jpg,AMSA11.jpg,AMNE16.jpg,AMSA09.jpg,MS,2,num_6,16,num_6,0.816816489212,,,2018_Feb_06_1606,59.9967478861,FEMA4ImagesEEG,001,202906,
AMSA25.JPG,AMNE24.JPG,AMSA24.JPG,AMNE26.JPG,AMSA21.JPG,AMNE25.JPG,,,,,0,9,9,3,,,,,,,,,,,,,,,,,,,AMNE03.jpg,AMSA07.jpg,AMNE18.jpg,AMSA13.jpg,AMSA07.jpg,MS,2,num_6,32,num_8,0.800105972216,,,2018_Feb_06_1606,59.9967478861,FEMA4ImagesEEG,001,202906,
AMNE22.JPG,AMSA24.JPG,AMSA22.JPG,AMNE25.JPG,AMNE24.JPG,AMSA25.JPG,,,,,,,,,0,0,0,7,,,,,,,,,,,,,,,AFSA19.jpg,AFNE12.jpg,AFNE13.jpg,AFSA03.jpg,AFNE12.jpg,FN,3,num_6,16,num_6,0.583530935459,,,2018_Feb_06_1606,59.9967478861,FEMA4ImagesEEG,001,202906,
AMSA25.JPG,AMNE24.JPG,AMSA24.JPG,AMNE26.JPG,AMSA21.JPG,AMNE25.JPG,,,,,,,,,0,1,1,3,,,,,,,,,,,,,,,AFNE16.jpg,AFSA02.jpg,AFNE17.jpg,AFSA11.jpg,AFNE16.jpg,FN,3,num_8,32,num_2,1.13347052434,,,2018_Feb_06_1606,59.9967478861,FEMA4ImagesEEG,001,202906,
AMSA21.JPG,AMNE23.JPG,AMNE21.JPG,AMSA25.JPG,AMNE25.JPG,AMSA23.JPG,,,,,,,,,0,2,2,5,,,,,,,,,,,,,,,AFSA08.jpg,AFNE08.jpg,AFNE16.jpg,AFSA19.jpg,AFNE16.jpg,FN,3,num_2,32,num_6,0.983444079058,,,2018_Feb_06_1606,59.9967478861,FEMA4ImagesEEG,001,202906,
AFNE23.JPG,AFNE24.JPG,AFNE22.JPG,AFSA24.JPG,AFSA22.JPG,AFSA23.JPG,,,,,,,,,0,3,3,8,,,,,,,,,,,,,,,AFSA02.jpg,AFNE06.jpg,AFNE20.jpg,AFSA14.jpg,AFSA02.jpg,FS,4,num_8,16,num_8,0.966784880497,,,2018_Feb_06_1606,59.9967478861,FEMA4ImagesEEG,001,202906,
AMSA21.JPG,AMNE22.JPG,AMNE21.JPG,AMSA23.JPG,AMSA22.JPG,AMNE23.JPG,,,,,,,,,0,4,4,1,,,,,,,,,,,,,,,AFNE11.jpg,AFSA06.jpg,AFNE09.jpg,AFSA16.jpg,AFSA06.jpg,FS,4,num_6,16,num_6,1.60011443961,,,2018_Feb_06_1606,59.9967478861,FEMA4ImagesEEG,001,202906,
AFNE22.JPG,AFSA24.JPG,AFSA22.JPG,AFNE25.JPG,AFNE24.JPG,AFSA25.JPG,,,,,,,,,0,5,5,6,,,,,,,,,,,,,,,AFNE05.jpg,AFNE03.jpg,AFSA11.jpg,AFSA14.jpg,AFNE03.jpg,FN,3,num_6,16,num_6,1.03343001474,,,2018_Feb_06_1606,59.9967478861,FEMA4ImagesEEG,001,202906,
AFSA21.JPG,AFNE22.JPG,AFNE21.JPG,AFSA23.JPG,AFSA22.JPG,AFNE23.JPG,,,,,,,,,0,6,6,0,,,,,,,,,,,,,,,AFSA14.jpg,AFNE10.jpg,AFNE01.jpg,AFSA20.jpg,AFSA14.jpg,FS,4,num_8,32,num_4,1.08343904372,,,2018_Feb_06_1606,59.9967478861,FEMA4ImagesEEG,001,202906,
AFSA21.JPG,AFNE23.JPG,AFNE21.JPG,AFSA25.JPG,AFNE25.JPG,AFSA23.JPG,,,,,,,,,0,7,7,4,,,,,,,,,,,,,,,AFSA09.jpg,AFNE19.jpg,AFNE17.jpg,AFSA20.jpg,AFNE17.jpg,FN,3,num_2,32,num_8,1.21653141617,,,2018_Feb_06_1606,59.9967478861,FEMA4ImagesEEG,001,202906,
AMNE23.JPG,AMNE24.JPG,AMNE22.JPG,AMSA24.JPG,AMSA22.JPG,AMSA23.JPG,,,,,,,,,0,8,8,9,,,,,,,,,,,,,,,AFNE10.jpg,AFNE17.jpg,AFSA20.jpg,AFSA09.jpg,AFNE10.jpg,FN,3,num_8,16,num_8,0.616817258997,,,2018_Feb_06_1606,59.9967478861,FEMA4ImagesEEG,001,202906,
AFSA25.JPG,AFNE24.JPG,AFSA24.JPG,AFNE21.JPG,AFSA21.JPG,AFNE25.JPG,,,,,,,,,0,9,9,2,,,,,,,,,,,,,,,AFNE03.jpg,AFSA05.jpg,AFSA06.jpg,AFNE16.jpg,AFSA06.jpg,FS,4,num_2,32,num_4,1.10009792168,,,2018_Feb_06_1606,59.9967478861,FEMA4ImagesEEG,001,202906,
AFSA21.JPG,AFNE23.JPG,AFNE21.JPG,AFSA25.JPG,AFNE25.JPG,AFSA23.JPG,,,,,,,,,,,,,0,0,0,4,,,,,,,,,,,AMSA09.jpg,AMNE20.jpg,AMNE13.jpg,AMSA04.jpg,AMSA04.jpg,MS,2,num_4,16,num_4,0.666767592775,,,2018_Feb_06_1606,59.9967478861,FEMA4ImagesEEG,001,202906,
AFNE23.JPG,AFNE24.JPG,AFNE22.JPG,AFSA24.JPG,AFSA22.JPG,AFSA23.JPG,,,,,,,,,,,,,0,1,1,8,,,,,,,,,,,AMNE07.jpg,AMSA01.jpg,AMNE09.jpg,AMSA18.jpg,AMNE09.jpg,MN,1,num_2,32,num_8,0.716796507128,,,2018_Feb_06_1606,59.9967478861,FEMA4ImagesEEG,001,202906,
AMSA21.JPG,AMNE22.JPG,AMNE21.JPG,AMSA23.JPG,AMSA22.JPG,AMNE23.JPG,,,,,,,,,,,,,0,2,2,1,,,,,,,,,,,AMNE11.jpg,AMNE12.jpg,AMSA17.jpg,AMSA10.jpg,AMSA17.jpg,MS,2,num_2,32,num_8,0.800133876735,,,2018_Feb_06_1606,59.9967478861,FEMA4ImagesEEG,001,202906,
AFSA25.JPG,AFNE24.JPG,AFSA24.JPG,AFNE21.JPG,AFSA21.JPG,AFNE25.JPG,,,,,,,,,,,,,0,3,3,2,,,,,,,,,,,AMSA13.jpg,AMNE12.jpg,AMNE13.jpg,AMSA15.jpg,AMNE12.jpg,MN,1,num_6,16,num_6,0.683591009816,,,2018_Feb_06_1606,59.9967478861,FEMA4ImagesEEG,001,202906,
AMSA25.JPG,AMNE24.JPG,AMSA24.JPG,AMNE26.JPG,AMSA21.JPG,AMNE25.JPG,,,,,,,,,,,,,0,4,4,3,,,,,,,,,,,AMNE09.jpg,AMNE12.jpg,AMSA17.jpg,AMSA05.jpg,AMNE12.jpg,MN,1,num_6,32,num_8,0.666764705908,,,2018_Feb_06_1606,59.9967478861,FEMA4ImagesEEG,001,202906,
AFNE22.JPG,AFSA24.JPG,AFSA22.JPG,AFNE25.JPG,AFNE24.JPG,AFSA25.JPG,,,,,,,,,,,,,0,5,5,6,,,,,,,,,,,AMNE15.jpg,AMSA04.jpg,AMSA02.jpg,AMNE16.jpg,AMNE15.jpg,MN,1,num_8,16,num_8,0.633476137184,,,2018_Feb_06_1606,59.9967478861,FEMA4ImagesEEG,001,202906,
AFSA21.JPG,AFNE22.JPG,AFNE21.JPG,AFSA23.JPG,AFSA22.JPG,AFNE23.JPG,,,,,,,,,,,,,0,6,6,0,,,,,,,,,,,AMNE05.jpg,AMNE08.jpg,AMSA14.jpg,AMSA10.jpg,AMSA14.jpg,MS,2,num_2,16,num_2,1.6666704088,,,2018_Feb_06_1606,59.9967478861,FEMA4ImagesEEG,001,202906,
AMNE23.JPG,AMNE24.JPG,AMNE22.JPG,AMSA24.JPG,AMSA22.JPG,AMSA23.JPG,,,,,,,,,,,,,0,7,7,9,,,,,,,,,,,AMNE15.jpg,AMSA11.jpg,AMNE20.jpg,AMSA01.jpg,AMSA11.jpg,MS,2,num_6,16,num_6,0.800133235054,,,2018_Feb_06_1606,59.9967478861,FEMA4ImagesEEG,001,202906,
AMSA21.JPG,AMNE23.JPG,AMNE21.JPG,AMSA25.JPG,AMNE25.JPG,AMSA23.JPG,,,,,,,,,,,,,0,8,8,5,,,,,,,,,,,AMNE08.jpg,AMSA03.jpg,AMSA17.jpg,AMNE20.jpg,AMNE08.jpg,MN,1,num_8,16,num_8,0.53347700322,,,2018_Feb_06_1606,59.9967478861,FEMA4ImagesEEG,001,202906,
AMNE22.JPG,AMSA24.JPG,AMSA22.JPG,AMNE25.JPG,AMNE24.JPG,AMSA25.JPG,,,,,,,,,,,,,0,9,9,7,,,,,,,,,,,AMSA02.jpg,AMNE08.jpg,AMNE07.jpg,AMSA05.jpg,AMNE08.jpg,MN,1,num_6,16,num_6,0.450219818624,,,2018_Feb_06_1606,59.9967478861,FEMA4ImagesEEG,001,202906,
AMSA25.JPG,AMNE24.JPG,AMSA24.JPG,AMNE26.JPG,AMSA21.JPG,AMNE25.JPG,,,,,,,,,,,,,,,,,0,0,0,3,,,,,,,AFSA05.jpg,AFNE19.jpg,AFSA16.jpg,AFNE18.jpg,AFNE19.jpg,FN,3,num_6,32,num_8,1.05006612046,,,2018_Feb_06_1606,59.9967478861,FEMA4ImagesEEG,001,202906,
AFNE22.JPG,AFSA24.JPG,AFSA22.JPG,AFNE25.JPG,AFNE24.JPG,AFSA25.JPG,,,,,,,,,,,,,,,,,0,1,1,6,,,,,,,AFSA12.jpg,AFNE20.jpg,AFSA01.jpg,AFNE12.jpg,AFSA12.jpg,FS,4,num_8,32,num_4,1.61681757984,,,2018_Feb_06_1606,59.9967478861,FEMA4ImagesEEG,001,202906,
AFSA21.JPG,AFNE23.JPG,AFNE21.JPG,AFSA25.JPG,AFNE25.JPG,AFSA23.JPG,,,,,,,,,,,,,,,,,0,2,2,4,,,,,,,AFNE03.jpg,AFNE07.jpg,AFSA15.jpg,AFSA07.jpg,AFSA15.jpg,FS,4,num_2,16,num_2,1.58335677418,,,2018_Feb_06_1606,59.9967478861,FEMA4ImagesEEG,001,202906,
AFSA21.JPG,AFNE22.JPG,AFNE21.JPG,AFSA23.JPG,AFSA22.JPG,AFNE23.JPG,,,,,,,,,,,,,,,,,0,3,3,0,,,,,,,AFNE07.jpg,AFNE10.jpg,AFSA12.jpg,AFSA11.jpg,AFNE07.jpg,FN,3,num_8,16,num_8,1.33351273346,,,2018_Feb_06_1606,59.9967478861,FEMA4ImagesEEG,001,202906,
AMSA21.JPG,AMNE23.JPG,AMNE21.JPG,AMSA25.JPG,AMNE25.JPG,AMSA23.JPG,,,,,,,,,,,,,,,,,0,4,4,5,,,,,,,AFSA19.jpg,AFNE06.jpg,AFNE03.jpg,AFSA02.jpg,AFSA19.jpg,FS,4,num_8,32,num_4,0.916632481152,,,2018_Feb_06_1606,59.9967478861,FEMA4ImagesEEG,001,202906,
AMNE22.JPG,AMSA24.JPG,AMSA22.JPG,AMNE25.JPG,AMNE24.JPG,AMSA25.JPG,,,,,,,,,,,,,,,,,0,5,5,7,,,,,,,AFNE02.jpg,AFSA04.jpg,AFSA06.jpg,AFNE08.jpg,AFSA06.jpg,FS,4,num_2,32,num_6,0.700202418724,,,2018_Feb_06_1606,59.9967478861,FEMA4ImagesEEG,001,202906,
AMNE23.JPG,AMNE24.JPG,AMNE22.JPG,AMSA24.JPG,AMSA22.JPG,AMSA23.JPG,,,,,,,,,,,,,,,,,0,6,6,9,,,,,,,AFNE03.jpg,AFNE19.jpg,AFSA06.jpg,AFSA02.jpg,AFSA02.jpg,FS,4,num_4,32,num_8,0.833465424599,,,2018_Feb_06_1606,59.9967478861,FEMA4ImagesEEG,001,202906,
AMSA21.JPG,AMNE22.JPG,AMNE21.JPG,AMSA23.JPG,AMSA22.JPG,AMNE23.JPG,,,,,,,,,,,,,,,,,0,7,7,1,,,,,,,AFNE16.jpg,AFNE03.jpg,AFSA09.jpg,AFSA02.jpg,AFNE03.jpg,FN,3,num_6,32,num_4,0.900192667963,,,2018_Feb_06_1606,59.9967478861,FEMA4ImagesEEG,001,202906,
AFNE23.JPG,AFNE24.JPG,AFNE22.JPG,AFSA24.JPG,AFSA22.JPG,AFSA23.JPG,,,,,,,,,,,,,,,,,0,8,8,8,,,,,,,AFSA15.jpg,AFNE03.jpg,AFNE08.jpg,AFSA18.jpg,AFSA15.jpg,FS,4,num_8,16,num_8,0.550190727459,,,2018_Feb_06_1606,59.9967478861,FEMA4ImagesEEG,001,202906,
AFSA25.JPG,AFNE24.JPG,AFSA24.JPG,AFNE21.JPG,AFSA21.JPG,AFNE25.JPG,,,,,,,,,,,,,,,,,0,9,9,2,,,,,,,AFNE12.jpg,AFNE19.jpg,AFSA13.jpg,AFSA14.jpg,AFSA14.jpg,FS,4,num_4,16,num_4,0.733453460969,,,2018_Feb_06_1606,59.9967478861,FEMA4ImagesEEG,001,202906,
AFNE23.JPG,AFNE24.JPG,AFNE22.JPG,AFSA24.JPG,AFSA22.JPG,AFSA23.JPG,,,,,,,,,,,,,,,,,,,,,0,0,0,8,,,AMNE04.jpg,AMSA08.jpg,AMNE10.jpg,AMSA01.jpg,AMNE10.jpg,MN,1,num_2,32,num_8,0.733498043846,,,2018_Feb_06_1606,59.9967478861,FEMA4ImagesEEG,001,202906,
AFNE22.JPG,AFSA24.JPG,AFSA22.JPG,AFNE25.JPG,AFNE24.JPG,AFSA25.JPG,,,,,,,,,,,,,,,,,,,,,0,1,1,6,,,AMSA11.jpg,AMSA12.jpg,AMNE20.jpg,AMNE04.jpg,AMSA12.jpg,MS,2,num_6,16,num_6,0.866783821955,,,2018_Feb_06_1606,59.9967478861,FEMA4ImagesEEG,001,202906,
AMSA25.JPG,AMNE24.JPG,AMSA24.JPG,AMNE26.JPG,AMSA21.JPG,AMNE25.JPG,,,,,,,,,,,,,,,,,,,,,0,2,2,3,,,AMSA13.jpg,AMNE20.jpg,AMNE10.jpg,AMSA18.jpg,AMSA13.jpg,MS,2,num_8,16,num_8,1.30039992998,,,2018_Feb_06_1606,59.9967478861,FEMA4ImagesEEG,001,202906,
AMNE22.JPG,AMSA24.JPG,AMSA22.JPG,AMNE25.JPG,AMNE24.JPG,AMSA25.JPG,,,,,,,,,,,,,,,,,,,,,0,3,3,7,,,AMNE11.jpg,AMSA08.jpg,AMSA01.jpg,AMNE01.jpg,AMNE01.jpg,MN,1,num_4,32,num_2,0.766785008833,,,2018_Feb_06_1606,59.9967478861,FEMA4ImagesEEG,001,202906,
AMSA21.JPG,AMNE22.JPG,AMNE21.JPG,AMSA23.JPG,AMSA22.JPG,AMNE23.JPG,,,,,,,,,,,,,,,,,,,,,0,4,4,1,,,AMNE07.jpg,AMSA07.jpg,AMSA14.jpg,AMNE08.jpg,AMSA07.jpg,MS,2,num_6,16,num_6,1.15007519722,,,2018_Feb_06_1606,59.9967478861,FEMA4ImagesEEG,001,202906,
AMSA21.JPG,AMNE23.JPG,AMNE21.JPG,AMSA25.JPG,AMNE25.JPG,AMSA23.JPG,,,,,,,,,,,,,,,,,,,,,0,5,5,5,,,AMNE05.jpg,AMSA08.jpg,AMSA06.jpg,AMNE17.jpg,AMSA06.jpg,MS,2,num_2,32,num_6,1.31676789746,,,2018_Feb_06_1606,59.9967478861,FEMA4ImagesEEG,001,202906,
AMNE23.JPG,AMNE24.JPG,AMNE22.JPG,AMSA24.JPG,AMSA22.JPG,AMSA23.JPG,,,,,,,,,,,,,,,,,,,,,0,6,6,9,,,AMSA02.jpg,AMNE08.jpg,AMSA08.jpg,AMNE03.jpg,AMSA08.jpg,MS,2,num_2,16,num_2,1.31675057742,,,2018_Feb_06_1606,59.9967478861,FEMA4ImagesEEG,001,202906,
AFSA21.JPG,AFNE23.JPG,AFNE21.JPG,AFSA25.JPG,AFNE25.JPG,AFSA23.JPG,,,,,,,,,,,,,,,,,,,,,0,7,7,4,,,AMSA08.jpg,AMNE04.jpg,AMSA15.jpg,AMNE18.jpg,AMSA15.jpg,MS,2,num_2,16,num_2,0.916779379826,,,2018_Feb_06_1606,59.9967478861,FEMA4ImagesEEG,001,202906,
AFSA21.JPG,AFNE22.JPG,AFNE21.JPG,AFSA23.JPG,AFSA22.JPG,AFNE23.JPG,,,,,,,,,,,,,,,,,,,,,0,8,8,0,,,AMSA08.jpg,AMNE03.jpg,AMNE05.jpg,AMSA14.jpg,AMNE03.jpg,MN,1,num_6,16,num_6,0.96687212144,,,2018_Feb_06_1606,59.9967478861,FEMA4ImagesEEG,001,202906,
AFSA25.JPG,AFNE24.JPG,AFSA24.JPG,AFNE21.JPG,AFSA21.JPG,AFNE25.JPG,,,,,,,,,,,,,,,,,,,,,0,9,9,2,,,AMSA06.jpg,AMSA09.jpg,AMNE16.jpg,AMNE08.jpg,AMSA06.jpg,MS,2,num_8,16,num_8,0.750133187044,,,2018_Feb_06_1606,59.9967478861,FEMA4ImagesEEG,001,202906,
,,,,,,,,,,,,,,,,,,,,,,,,,,,,,,,,,,,,,,,,,,,space,54.3625957686,2018_Feb_06_1606,59.9967478861,FEMA4ImagesEEG,001,202906,
AFNE01.JPG,AFNE01.JPG,AFNE01.JPG,AFNE01.JPG,AFNE01.JPG,AFNE01.JPG,0,0,0,4,,,,,,,,,,,,,,,,,,,,,,,AFNE17.jpg,AFNE10.jpg,AFSA10.jpg,AFSA13.jpg,AFSA10.jpg,FS,4,num_2,32,num_6,0.61679961835,,,2018_Feb_06_1606,59.9967478861,FEMA4ImagesEEG,001,202906,
AFNE01.JPG,AFNE01.JPG,AFNE01.JPG,AFNE01.JPG,AFNE01.JPG,AFNE01.JPG,0,1,1,6,,,,,,,,,,,,,,,,,,,,,,,AFSA16.jpg,AFNE18.jpg,AFSA18.jpg,AFNE11.jpg,AFSA18.jpg,FS,4,num_2,32,num_8,0.600148438243,,,2018_Feb_06_1606,59.9967478861,FEMA4ImagesEEG,001,202906,
AFNE01.JPG,AFNE01.JPG,AFNE01.JPG,AFNE01.JPG,AFNE01.JPG,AFNE01.JPG,0,2,2,3,,,,,,,,,,,,,,,,,,,,,,,AFSA15.jpg,AFNE17.jpg,AFSA09.jpg,AFNE08.jpg,AFSA15.jpg,FS,4,num_8,16,num_8,0.783483658452,,,2018_Feb_06_1606,59.9967478861,FEMA4ImagesEEG,001,202906,
AFNE01.JPG,AFNE01.JPG,AFNE01.JPG,AFNE01.JPG,AFNE01.JPG,AFNE01.JPG,0,3,3,5,,,,,,,,,,,,,,,,,,,,,,,AFNE13.jpg,AFSA08.jpg,AFNE11.jpg,AFSA14.jpg,AFNE11.jpg,FN,3,num_2,16,num_2,0.700127686374,,,2018_Feb_06_1606,59.9967478861,FEMA4ImagesEEG,001,202906,
AFNE01.JPG,AFNE01.JPG,AFNE01.JPG,AFNE01.JPG,AFNE01.JPG,AFNE01.JPG,0,4,4,7,,,,,,,,,,,,,,,,,,,,,,,AFSA11.jpg,AFNE16.jpg,AFSA05.jpg,AFNE19.jpg,AFSA05.jpg,FS,4,num_2,32,num_8,0.550158333033,,,2018_Feb_06_1606,59.9967478861,FEMA4ImagesEEG,001,202906,
AFNE01.JPG,AFNE01.JPG,AFNE01.JPG,AFNE01.JPG,AFNE01.JPG,AFNE01.JPG,0,5,5,0,,,,,,,,,,,,,,,,,,,,,,,AFNE02.jpg,AFSA15.jpg,AFSA05.jpg,AFNE07.jpg,AFNE02.jpg,FN,3,num_8,16,num_8,0.933433126193,,,2018_Feb_06_1606,59.9967478861,FEMA4ImagesEEG,001,202906,
AFNE01.JPG,AFNE01.JPG,AFNE01.JPG,AFNE01.JPG,AFNE01.JPG,AFNE01.JPG,0,6,6,2,,,,,,,,,,,,,,,,,,,,,,,AFNE03.jpg,AFSA09.jpg,AFNE19.jpg,AFSA17.jpg,AFNE19.jpg,FN,3,num_2,16,num_2,0.966751523549,,,2018_Feb_06_1606,59.9967478861,FEMA4ImagesEEG,001,202906,
AFNE01.JPG,AFNE01.JPG,AFNE01.JPG,AFNE01.JPG,AFNE01.JPG,AFNE01.JPG,0,7,7,8,,,,,,,,,,,,,,,,,,,,,,,AFSA15.jpg,AFNE20.jpg,AFSA19.jpg,AFNE03.jpg,AFNE03.jpg,FN,3,num_4,16,num_4,0.700153666083,,,2018_Feb_06_1606,59.9967478861,FEMA4ImagesEEG,001,202906,
AFNE01.JPG,AFNE01.JPG,AFNE01.JPG,AFNE01.JPG,AFNE01.JPG,AFNE01.JPG,0,8,8,9,,,,,,,,,,,,,,,,,,,,,,,AFNE04.jpg,AFSA01.jpg,AFSA07.jpg,AFNE14.jpg,AFSA07.jpg,FS,4,num_2,32,num_8,3.4665778433,,,2018_Feb_06_1606,59.9967478861,FEMA4ImagesEEG,001,202906,
AFNE01.JPG,AFNE01.JPG,AFNE01.JPG,AFNE01.JPG,AFNE01.JPG,AFNE01.JPG,0,9,9,1,,,,,,,,,,,,,,,,,,,,,,,AFNE04.jpg,AFSA06.jpg,AFNE03.jpg,AFSA20.jpg,AFNE04.jpg,FN,3,num_8,32,num_6,1.30010484974,,,2018_Feb_06_1606,59.9967478861,FEMA4ImagesEEG,001,202906,
AFNE01.JPG,AFNE01.JPG,AFNE01.JPG,AFNE01.JPG,AFNE01.JPG,AFNE01.JPG,1,0,10,5,,,,,,,,,,,,,,,,,,,,,,,AFSA05.jpg,AFNE03.jpg,AFNE05.jpg,AFSA13.jpg,AFSA05.jpg,FS,4,num_8,32,num_2,0.816809433047,,,2018_Feb_06_1606,59.9967478861,FEMA4ImagesEEG,001,202906,
AFNE01.JPG,AFNE01.JPG,AFNE01.JPG,AFNE01.JPG,AFNE01.JPG,AFNE01.JPG,1,1,11,4,,,,,,,,,,,,,,,,,,,,,,,AFSA09.jpg,AFSA16.jpg,AFNE14.jpg,AFNE02.jpg,AFNE02.jpg,FN,3,num_4,32,num_8,0.75014152634,,,2018_Feb_06_1606,59.9967478861,FEMA4ImagesEEG,001,202906,
AFNE01.JPG,AFNE01.JPG,AFNE01.JPG,AFNE01.JPG,AFNE01.JPG,AFNE01.JPG,1,2,12,1,,,,,,,,,,,,,,,,,,,,,,,AFSA13.jpg,AFSA01.jpg,AFNE19.jpg,AFNE10.jpg,AFNE10.jpg,FN,3,num_4,16,num_4,0.583475768333,,,2018_Feb_06_1606,59.9967478861,FEMA4ImagesEEG,001,202906,
AFNE01.JPG,AFNE01.JPG,AFNE01.JPG,AFNE01.JPG,AFNE01.JPG,AFNE01.JPG,1,3,13,7,,,,,,,,,,,,,,,,,,,,,,,AFSA01.jpg,AFSA11.jpg,AFNE08.jpg,AFNE20.jpg,AFSA11.jpg,FS,4,num_6,16,num_6,0.833457726752,,,2018_Feb_06_1606,59.9967478861,FEMA4ImagesEEG,001,202906,
AFNE01.JPG,AFNE01.JPG,AFNE01.JPG,AFNE01.JPG,AFNE01.JPG,AFNE01.JPG,1,4,14,2,,,,,,,,,,,,,,,,,,,,,,,AFNE13.jpg,AFNE12.jpg,AFSA15.jpg,AFSA08.jpg,AFSA15.jpg,FS,4,num_2,32,num_6,0.733448649757,,,2018_Feb_06_1606,59.9967478861,FEMA4ImagesEEG,001,202906,
AFNE01.JPG,AFNE01.JPG,AFNE01.JPG,AFNE01.JPG,AFNE01.JPG,AFNE01.JPG,1,5,15,0,,,,,,,,,,,,,,,,,,,,,,,AFSA15.jpg,AFNE06.jpg,AFSA11.jpg,AFNE10.jpg,AFSA11.jpg,FS,4,num_2,16,num_2,0.433493264718,,,2018_Feb_06_1606,59.9967478861,FEMA4ImagesEEG,001,202906,
AFNE01.JPG,AFNE01.JPG,AFNE01.JPG,AFNE01.JPG,AFNE01.JPG,AFNE01.JPG,1,6,16,9,,,,,,,,,,,,,,,,,,,,,,,AFNE16.jpg,AFNE18.jpg,AFSA01.jpg,AFSA17.jpg,AFSA01.jpg,FS,4,num_2,16,num_2,0.666817948688,,,2018_Feb_06_1606,59.9967478861,FEMA4ImagesEEG,001,202906,
AFNE01.JPG,AFNE01.JPG,AFNE01.JPG,AFNE01.JPG,AFNE01.JPG,AFNE01.JPG,1,7,17,8,,,,,,,,,,,,,,,,,,,,,,,AFSA16.jpg,AFNE02.jpg,AFNE07.jpg,AFSA17.jpg,AFSA17.jpg,FS,4,num_4,32,num_8,0.766786933178,,,2018_Feb_06_1606,59.9967478861,FEMA4ImagesEEG,001,202906,
AFNE01.JPG,AFNE01.JPG,AFNE01.JPG,AFNE01.JPG,AFNE01.JPG,AFNE01.JPG,1,8,18,6,,,,,,,,,,,,,,,,,,,,,,,AFNE13.jpg,AFNE09.jpg,AFSA08.jpg,AFSA12.jpg,AFSA08.jpg,FS,4,num_2,32,num_4,0.95014781272,,,2018_Feb_06_1606,59.9967478861,FEMA4ImagesEEG,001,202906,
AFNE01.JPG,AFNE01.JPG,AFNE01.JPG,AFNE01.JPG,AFNE01.JPG,AFNE01.JPG,1,9,19,3,,,,,,,,,,,,,,,,,,,,,,,AFSA15.jpg,AFNE15.jpg,AFNE10.jpg,AFSA04.jpg,AFSA15.jpg,FS,4,num_8,32,num_6,0.466855924344,,,2018_Feb_06_1606,59.9967478861,FEMA4ImagesEEG,001,202906,
AFNE01.JPG,AFNE01.JPG,AFNE01.JPG,AFNE01.JPG,AFNE01.JPG,AFNE01.JPG,2,0,20,5,,,,,,,,,,,,,,,,,,,,,,,AFNE04.jpg,AFSA13.jpg,AFSA18.jpg,AFNE18.jpg,AFNE18.jpg,FN,3,num_4,32,num_8,0.716809657635,,,2018_Feb_06_1606,59.9967478861,FEMA4ImagesEEG,001,202906,
AFNE01.JPG,AFNE01.JPG,AFNE01.JPG,AFNE01.JPG,AFNE01.JPG,AFNE01.JPG,2,1,21,8,,,,,,,,,,,,,,,,,,,,,,,AFNE13.jpg,AFNE19.jpg,AFSA14.jpg,AFSA08.jpg,AFSA08.jpg,FS,4,num_4,32,num_6,0.816769661382,,,2018_Feb_06_1606,59.9967478861,FEMA4ImagesEEG,001,202906,
AFNE01.JPG,AFNE01.JPG,AFNE01.JPG,AFNE01.JPG,AFNE01.JPG,AFNE01.JPG,2,2,22,6,,,,,,,,,,,,,,,,,,,,,,,AFNE08.jpg,AFNE01.jpg,AFSA13.jpg,AFSA04.jpg,AFNE01.jpg,FN,3,num_6,32,num_8,1.11679689214,,,2018_Feb_06_1606,59.9967478861,FEMA4ImagesEEG,001,202906,
AFNE01.JPG,AFNE01.JPG,AFNE01.JPG,AFNE01.JPG,AFNE01.JPG,AFNE01.JPG,2,3,23,0,,,,,,,,,,,,,,,,,,,,,,,AFSA07.jpg,AFSA01.jpg,AFNE08.jpg,AFNE13.jpg,AFSA01.jpg,FS,4,num_6,16,num_6,1.01677723089,,,2018_Feb_06_1606,59.9967478861,FEMA4ImagesEEG,001,202906,
AFNE01.JPG,AFNE01.JPG,AFNE01.JPG,AFNE01.JPG,AFNE01.JPG,AFNE01.JPG,2,4,24,9,,,,,,,,,,,,,,,,,,,,,,,AFSA12.jpg,AFNE01.jpg,AFNE19.jpg,AFSA15.jpg,AFNE19.jpg,FN,3,num_2,16,num_2,2.11666442687,,,2018_Feb_06_1606,59.9967478861,FEMA4ImagesEEG,001,202906,
AFNE01.JPG,AFNE01.JPG,AFNE01.JPG,AFNE01.JPG,AFNE01.JPG,AFNE01.JPG,2,5,25,1,,,,,,,,,,,,,,,,,,,,,,,AFNE10.jpg,AFSA16.jpg,AFNE08.jpg,AFSA03.jpg,AFSA16.jpg,FS,4,num_6,32,num_4,0.96679738909,,,2018_Feb_06_1606,59.9967478861,FEMA4ImagesEEG,001,202906,
AFNE01.JPG,AFNE01.JPG,AFNE01.JPG,AFNE01.JPG,AFNE01.JPG,AFNE01.JPG,2,6,26,2,,,,,,,,,,,,,,,,,,,,,,,AFSA11.jpg,AFSA10.jpg,AFNE01.jpg,AFNE15.jpg,AFNE15.jpg,FN,3,num_4,32,num_6,0.583552425029,,,2018_Feb_06_1606,59.9967478861,FEMA4ImagesEEG,001,202906,
AFNE01.JPG,AFNE01.JPG,AFNE01.JPG,AFNE01.JPG,AFNE01.JPG,AFNE01.JPG,2,7,27,3,,,,,,,,,,,,,,,,,,,,,,,AFNE08.jpg,AFSA07.jpg,AFSA06.jpg,AFNE18.jpg,AFSA06.jpg,FS,4,num_2,16,num_2,0.633474212606,,,2018_Feb_06_1606,59.9967478861,FEMA4ImagesEEG,001,202906,
AFNE01.JPG,AFNE01.JPG,AFNE01.JPG,AFNE01.JPG,AFNE01.JPG,AFNE01.JPG,2,8,28,7,,,,,,,,,,,,,,,,,,,,,,,AFSA02.jpg,AFSA12.jpg,AFNE01.jpg,AFNE16.jpg,AFSA12.jpg,FS,4,num_6,16,num_6,0.6667643853,,,2018_Feb_06_1606,59.9967478861,FEMA4ImagesEEG,001,202906,
AFNE01.JPG,AFNE01.JPG,AFNE01.JPG,AFNE01.JPG,AFNE01.JPG,AFNE01.JPG,2,9,29,4,,,,,,,,,,,,,,,,,,,,,,,AFSA12.jpg,AFNE06.jpg,AFNE04.jpg,AFSA03.jpg,AFNE04.jpg,FN,3,num_2,16,num_2,0.833481140668,,,2018_Feb_06_1606,59.9967478861,FEMA4ImagesEEG,001,202906,
AFNE01.JPG,AFNE01.JPG,AFNE01.JPG,AFNE01.JPG,AFNE01.JPG,AFNE01.JPG,3,0,30,5,,,,,,,,,,,,,,,,,,,,,,,AFNE10.jpg,AFNE09.jpg,AFSA09.jpg,AFSA06.jpg,AFSA06.jpg,FS,4,num_4,16,num_4,0.750115546165,,,2018_Feb_06_1606,59.9967478861,FEMA4ImagesEEG,001,202906,
AFNE01.JPG,AFNE01.JPG,AFNE01.JPG,AFNE01.JPG,AFNE01.JPG,AFNE01.JPG,3,1,31,6,,,,,,,,,,,,,,,,,,,,,,,AFSA01.jpg,AFNE14.jpg,AFNE02.jpg,AFSA16.jpg,AFSA16.jpg,FS,4,num_4,16,num_4,0.883469000692,,,2018_Feb_06_1606,59.9967478861,FEMA4ImagesEEG,001,202906,
AFNE01.JPG,AFNE01.JPG,AFNE01.JPG,AFNE01.JPG,AFNE01.JPG,AFNE01.JPG,3,2,32,3,,,,,,,,,,,,,,,,,,,,,,,AFNE06.jpg,AFSA01.jpg,AFSA05.jpg,AFNE09.jpg,AFSA01.jpg,FS,4,num_6,16,num_6,0.600141381845,,,2018_Feb_06_1606,59.9967478861,FEMA4ImagesEEG,001,202906,
AFNE01.JPG,AFNE01.JPG,AFNE01.JPG,AFNE01.JPG,AFNE01.JPG,AFNE01.JPG,3,3,33,8,,,,,,,,,,,,,,,,,,,,,,,AFSA03.jpg,AFNE08.jpg,AFSA08.jpg,AFNE20.jpg,AFNE20.jpg,FN,3,num_4,32,num_2,1.08333672793,,,2018_Feb_06_1606,59.9967478861,FEMA4ImagesEEG,001,202906,
AFNE01.JPG,AFNE01.JPG,AFNE01.JPG,AFNE01.JPG,AFNE01.JPG,AFNE01.JPG,3,4,34,9,,,,,,,,,,,,,,,,,,,,,,,AFNE19.jpg,AFNE18.jpg,AFSA17.jpg,AFSA01.jpg,AFNE18.jpg,FN,3,num_6,16,num_6,0.53349817195,,,2018_Feb_06_1606,59.9967478861,FEMA4ImagesEEG,001,202906,
AFNE01.JPG,AFNE01.JPG,AFNE01.JPG,AFNE01.JPG,AFNE01.JPG,AFNE01.JPG,3,5,35,0,,,,,,,,,,,,,,,,,,,,,,,AFNE01.jpg,AFSA06.jpg,AFSA01.jpg,AFNE19.jpg,AFNE19.jpg,FN,3,num_4,32,num_8,0.566839021398,,,2018_Feb_06_1606,59.9967478861,FEMA4ImagesEEG,001,202906,
AFNE01.JPG,AFNE01.JPG,AFNE01.JPG,AFNE01.JPG,AFNE01.JPG,AFNE01.JPG,3,6,36,4,,,,,,,,,,,,,,,,,,,,,,,AFSA10.jpg,AFSA15.jpg,AFNE11.jpg,AFNE05.jpg,AFSA15.jpg,FS,4,num_6,16,num_6,0.616773959249,,,2018_Feb_06_1606,59.9967478861,FEMA4ImagesEEG,001,202906,
AFNE01.JPG,AFNE01.JPG,AFNE01.JPG,AFNE01.JPG,AFNE01.JPG,AFNE01.JPG,3,7,37,7,,,,,,,,,,,,,,,,,,,,,,,AFNE13.jpg,AFSA01.jpg,AFNE18.jpg,AFSA08.jpg,AFSA08.jpg,FS,4,num_4,32,num_8,0.633518795483,,,2018_Feb_06_1606,59.9967478861,FEMA4ImagesEEG,001,202906,
AFNE01.JPG,AFNE01.JPG,AFNE01.JPG,AFNE01.JPG,AFNE01.JPG,AFNE01.JPG,3,8,38,1,,,,,,,,,,,,,,,,,,,,,,,AFNE18.jpg,AFNE01.jpg,AFSA11.jpg,AFSA17.jpg,AFNE01.jpg,FN,3,num_6,32,num_4,0.766778273275,,,2018_Feb_06_1606,59.9967478861,FEMA4ImagesEEG,001,202906,
AFNE01.JPG,AFNE01.JPG,AFNE01.JPG,AFNE01.JPG,AFNE01.JPG,AFNE01.JPG,3,9,39,2,,,,,,,,,,,,,,,,,,,,,,,AFNE14.jpg,AFNE03.jpg,AFSA20.jpg,AFSA18.jpg,AFNE03.jpg,FN,3,num_6,16,num_6,0.700156232109,,,2018_Feb_06_1606,59.9967478861,FEMA4ImagesEEG,001,202906,
AFNE01.JPG,AFNE01.JPG,AFNE01.JPG,AFNE01.JPG,AFNE01.JPG,AFNE01.JPG,4,0,40,9,,,,,,,,,,,,,,,,,,,,,,,AFSA01.jpg,AFNE05.jpg,AFSA11.jpg,AFNE08.jpg,AFSA01.jpg,FS,4,num_8,16,num_8,0.850158621557,,,2018_Feb_06_1606,59.9967478861,FEMA4ImagesEEG,001,202906,
AFNE01.JPG,AFNE01.JPG,AFNE01.JPG,AFNE01.JPG,AFNE01.JPG,AFNE01.JPG,4,1,41,1,,,,,,,,,,,,,,,,,,,,,,,AFSA01.jpg,AFSA15.jpg,AFNE04.jpg,AFNE08.jpg,AFSA15.jpg,FS,4,num_6,16,num_6,0.716815110063,,,2018_Feb_06_1606,59.9967478861,FEMA4ImagesEEG,001,202906,
AFNE01.JPG,AFNE01.JPG,AFNE01.JPG,AFNE01.JPG,AFNE01.JPG,AFNE01.JPG,4,2,42,7,,,,,,,,,,,,,,,,,,,,,,,AFNE02.jpg,AFNE11.jpg,AFSA11.jpg,AFSA12.jpg,AFNE02.jpg,FN,3,num_8,16,num_8,0.783439396648,,,2018_Feb_06_1606,59.9967478861,FEMA4ImagesEEG,001,202906,
AFNE01.JPG,AFNE01.JPG,AFNE01.JPG,AFNE01.JPG,AFNE01.JPG,AFNE01.JPG,4,3,43,8,,,,,,,,,,,,,,,,,,,,,,,AFSA02.jpg,AFNE01.jpg,AFSA14.jpg,AFNE17.jpg,AFNE01.jpg,FN,3,num_6,16,num_6,0.96685832995,,,2018_Feb_06_1606,59.9967478861,FEMA4ImagesEEG,001,202906,
AFNE01.JPG,AFNE01.JPG,AFNE01.JPG,AFNE01.JPG,AFNE01.JPG,AFNE01.JPG,4,4,44,2,,,,,,,,,,,,,,,,,,,,,,,AFSA13.jpg,AFSA03.jpg,AFNE03.jpg,AFNE12.jpg,AFSA13.jpg,FS,4,num_8,32,num_2,1.1501768718,,,2018_Feb_06_1606,59.9967478861,FEMA4ImagesEEG,001,202906,
AFNE01.JPG,AFNE01.JPG,AFNE01.JPG,AFNE01.JPG,AFNE01.JPG,AFNE01.JPG,4,5,45,5,,,,,,,,,,,,,,,,,,,,,,,AFNE09.jpg,AFNE20.jpg,AFSA07.jpg,AFSA03.jpg,AFNE09.jpg,FN,3,num_8,32,num_6,0.78325689584,,,2018_Feb_06_1606,59.9967478861,FEMA4ImagesEEG,001,202906,
AFNE01.JPG,AFNE01.JPG,AFNE01.JPG,AFNE01.JPG,AFNE01.JPG,AFNE01.JPG,4,6,46,4,,,,,,,,,,,,,,,,,,,,,,,AFNE11.jpg,AFSA03.jpg,AFSA13.jpg,AFNE02.jpg,AFSA13.jpg,FS,4,num_2,16,num_2,0.933488934767,,,2018_Feb_06_1606,59.9967478861,FEMA4ImagesEEG,001,202906,
AFNE01.JPG,AFNE01.JPG,AFNE01.JPG,AFNE01.JPG,AFNE01.JPG,AFNE01.JPG,4,7,47,3,,,,,,,,,,,,,,,,,,,,,,,AFSA15.jpg,AFNE17.jpg,AFNE06.jpg,AFSA07.jpg,AFNE06.jpg,FN,3,num_2,32,num_4,0.916817226913,,,2018_Feb_06_1606,59.9967478861,FEMA4ImagesEEG,001,202906,
AFNE01.JPG,AFNE01.JPG,AFNE01.JPG,AFNE01.JPG,AFNE01.JPG,AFNE01.JPG,4,8,48,0,,,,,,,,,,,,,,,,,,,,,,,AFNE05.jpg,AFNE14.jpg,AFSA07.jpg,AFSA18.jpg,AFSA07.jpg,FS,4,num_2,32,num_6,0.633494419279,,,2018_Feb_06_1606,59.9967478861,FEMA4ImagesEEG,001,202906,
AFNE01.JPG,AFNE01.JPG,AFNE01.JPG,AFNE01.JPG,AFNE01.JPG,AFNE01.JPG,4,9,49,6,,,,,,,,,,,,,,,,,,,,,,,AFSA14.jpg,AFNE11.jpg,AFSA13.jpg,AFNE07.jpg,AFNE11.jpg,FN,3,num_6,32,num_2,1.06674873317,,,2018_Feb_06_1606,59.9967478861,FEMA4ImagesEEG,001,202906,
AFNE01.JPG,AFNE01.JPG,AFNE01.JPG,AFNE01.JPG,AFNE01.JPG,AFNE01.JPG,5,0,50,0,,,,,,,,,,,,,,,,,,,,,,,AFSA17.jpg,AFSA20.jpg,AFNE10.jpg,AFNE18.jpg,AFSA17.jpg,FS,4,num_8,16,num_8,0.916777455481,,,2018_Feb_06_1606,59.9967478861,FEMA4ImagesEEG,001,202906,
AFNE01.JPG,AFNE01.JPG,AFNE01.JPG,AFNE01.JPG,AFNE01.JPG,AFNE01.JPG,5,1,51,4,,,,,,,,,,,,,,,,,,,,,,,AFSA15.jpg,AFSA02.jpg,AFNE08.jpg,AFNE01.jpg,AFSA15.jpg,FS,4,num_8,16,num_8,1.616536933,,,2018_Feb_06_1606,59.9967478861,FEMA4ImagesEEG,001,202906,
AFNE01.JPG,AFNE01.JPG,AFNE01.JPG,AFNE01.JPG,AFNE01.JPG,AFNE01.JPG,5,2,52,1,,,,,,,,,,,,,,,,,,,,,,,AFSA14.jpg,AFSA11.jpg,AFNE04.jpg,AFNE12.jpg,AFSA11.jpg,FS,4,num_6,16,num_6,0.466668612557,,,2018_Feb_06_1606,59.9967478861,FEMA4ImagesEEG,001,202906,
AFNE01.JPG,AFNE01.JPG,AFNE01.JPG,AFNE01.JPG,AFNE01.JPG,AFNE01.JPG,5,3,53,6,,,,,,,,,,,,,,,,,,,,,,,AFSA11.jpg,AFNE14.jpg,AFNE19.jpg,AFSA16.jpg,AFNE19.jpg,FN,3,num_2,16,num_2,1.41670993972,,,2018_Feb_06_1606,59.9967478861,FEMA4ImagesEEG,001,202906,
AFNE01.JPG,AFNE01.JPG,AFNE01.JPG,AFNE01.JPG,AFNE01.JPG,AFNE01.JPG,5,4,54,8,,,,,,,,,,,,,,,,,,,,,,,AFNE03.jpg,AFSA20.jpg,AFNE04.jpg,AFSA03.jpg,AFNE04.jpg,FN,3,num_2,16,num_2,1.0501347587,,,2018_Feb_06_1606,59.9967478861,FEMA4ImagesEEG,001,202906,
AFNE01.JPG,AFNE01.JPG,AFNE01.JPG,AFNE01.JPG,AFNE01.JPG,AFNE01.JPG,5,5,55,9,,,,,,,,,,,,,,,,,,,,,,,AFSA14.jpg,AFNE03.jpg,AFNE14.jpg,AFSA17.jpg,AFSA17.jpg,FS,4,num_4,32,num_6,0.916769436793,,,2018_Feb_06_1606,59.9967478861,FEMA4ImagesEEG,001,202906,
AFNE01.JPG,AFNE01.JPG,AFNE01.JPG,AFNE01.JPG,AFNE01.JPG,AFNE01.JPG,5,6,56,5,,,,,,,,,,,,,,,,,,,,,,,AFSA03.jpg,AFNE13.jpg,AFNE12.jpg,AFSA19.jpg,AFSA03.jpg,FS,4,num_8,16,num_8,1.06681576767,,,2018_Feb_06_1606,59.9967478861,FEMA4ImagesEEG,001,202906,
AFNE01.JPG,AFNE01.JPG,AFNE01.JPG,AFNE01.JPG,AFNE01.JPG,AFNE01.JPG,5,7,57,2,,,,,,,,,,,,,,,,,,,,,,,AFNE16.jpg,AFSA17.jpg,AFNE14.jpg,AFSA05.jpg,AFSA05.jpg,FS,4,num_4,16,num_4,0.58350880444,,,2018_Feb_06_1606,59.9967478861,FEMA4ImagesEEG,001,202906,
AFNE01.JPG,AFNE01.JPG,AFNE01.JPG,AFNE01.JPG,AFNE01.JPG,AFNE01.JPG,5,8,58,7,,,,,,,,,,,,,,,,,,,,,,,AFNE17.jpg,AFSA16.jpg,AFNE04.jpg,AFSA10.jpg,AFSA16.jpg,FS,4,num_6,32,num_8,0.816690759733,,,2018_Feb_06_1606,59.9967478861,FEMA4ImagesEEG,001,202906,
AFNE01.JPG,AFNE01.JPG,AFNE01.JPG,AFNE01.JPG,AFNE01.JPG,AFNE01.JPG,5,9,59,3,,,,,,,,,,,,,,,,,,,,,,,AFSA13.jpg,AFSA08.jpg,AFNE16.jpg,AFNE18.jpg,AFSA08.jpg,FS,4,num_6,32,num_2,1.01680673892,,,2018_Feb_06_1606,59.9967478861,FEMA4ImagesEEG,001,202906,
,,,,,,,,,,,,,,,,,,,,,,,,,,,,,,,,,,,,,,,,,,,space,2.93350882037,2018_Feb_06_1606,59.9967478861,FEMA4ImagesEEG,001,202906,
AFNE01.JPG,AFNE01.JPG,AFNE01.JPG,AFNE01.JPG,AFNE01.JPG,AFNE01.JPG,,,,,0,0,0,9,,,,,,,,,,,,,,,,,,,AMNE13.jpg,AMNE03.jpg,AMSA13.jpg,AMSA01.jpg,AMNE13.jpg,MN,1,num_8,16,num_8,0.933504971676,,,2018_Feb_06_1606,59.9967478861,FEMA4ImagesEEG,001,202906,
AFNE01.JPG,AFNE01.JPG,AFNE01.JPG,AFNE01.JPG,AFNE01.JPG,AFNE01.JPG,,,,,0,1,1,1,,,,,,,,,,,,,,,,,,,AMSA04.jpg,AMNE11.jpg,AMSA16.jpg,AMNE12.jpg,AMNE12.jpg,MN,1,num_4,32,num_6,0.666791968979,,,2018_Feb_06_1606,59.9967478861,FEMA4ImagesEEG,001,202906,
AFNE01.JPG,AFNE01.JPG,AFNE01.JPG,AFNE01.JPG,AFNE01.JPG,AFNE01.JPG,,,,,0,2,2,4,,,,,,,,,,,,,,,,,,,AMNE02.jpg,AMSA05.jpg,AMSA16.jpg,AMNE04.jpg,AMNE04.jpg,MN,1,num_4,32,num_2,0.900153537979,,,2018_Feb_06_1606,59.9967478861,FEMA4ImagesEEG,001,202906,
AFNE01.JPG,AFNE01.JPG,AFNE01.JPG,AFNE01.JPG,AFNE01.JPG,AFNE01.JPG,,,,,0,3,3,5,,,,,,,,,,,,,,,,,,,AMNE20.jpg,AMNE06.jpg,AMSA17.jpg,AMSA04.jpg,AMNE20.jpg,MN,1,num_8,16,num_8,0.833501667948,,,2018_Feb_06_1606,59.9967478861,FEMA4ImagesEEG,001,202906,
AFNE01.JPG,AFNE01.JPG,AFNE01.JPG,AFNE01.JPG,AFNE01.JPG,AFNE01.JPG,,,,,0,4,4,3,,,,,,,,,,,,,,,,,,,AMNE13.jpg,AMSA19.jpg,AMSA07.jpg,AMNE19.jpg,AMSA19.jpg,MS,2,num_6,32,num_2,1.26674347301,,,2018_Feb_06_1606,59.9967478861,FEMA4ImagesEEG,001,202906,
AFNE01.JPG,AFNE01.JPG,AFNE01.JPG,AFNE01.JPG,AFNE01.JPG,AFNE01.JPG,,,,,0,5,5,8,,,,,,,,,,,,,,,,,,,AMNE18.jpg,AMSA06.jpg,AMSA16.jpg,AMNE03.jpg,AMNE03.jpg,MN,1,num_4,32,num_8,0.983522018883,,,2018_Feb_06_1606,59.9967478861,FEMA4ImagesEEG,001,202906,
AFNE01.JPG,AFNE01.JPG,AFNE01.JPG,AFNE01.JPG,AFNE01.JPG,AFNE01.JPG,,,,,0,6,6,0,,,,,,,,,,,,,,,,,,,AMSA20.jpg,AMNE04.jpg,AMSA15.jpg,AMNE20.jpg,AMNE04.jpg,MN,1,num_6,16,num_6,0.683494788129,,,2018_Feb_06_1606,59.9967478861,FEMA4ImagesEEG,001,202906,
AFNE01.JPG,AFNE01.JPG,AFNE01.JPG,AFNE01.JPG,AFNE01.JPG,AFNE01.JPG,,,,,0,7,7,7,,,,,,,,,,,,,,,,,,,AMNE04.jpg,AMSA12.jpg,AMNE01.jpg,AMSA15.jpg,AMSA12.jpg,MS,2,num_6,32,num_2,1.2167277087,,,2018_Feb_06_1606,59.9967478861,FEMA4ImagesEEG,001,202906,
AFNE01.JPG,AFNE01.JPG,AFNE01.JPG,AFNE01.JPG,AFNE01.JPG,AFNE01.JPG,,,,,0,8,8,6,,,,,,,,,,,,,,,,,,,AMSA17.jpg,AMNE03.jpg,AMNE06.jpg,AMSA06.jpg,AMNE06.jpg,MN,1,num_2,16,num_2,1.01677306113,,,2018_Feb_06_1606,59.9967478861,FEMA4ImagesEEG,001,202906,
AFNE01.JPG,AFNE01.JPG,AFNE01.JPG,AFNE01.JPG,AFNE01.JPG,AFNE01.JPG,,,,,0,9,9,2,,,,,,,,,,,,,,,,,,,AMNE04.jpg,AMSA18.jpg,AMSA16.jpg,AMNE08.jpg,AMSA18.jpg,MS,2,num_6,32,num_8,0.833579607774,,,2018_Feb_06_1606,59.9967478861,FEMA4ImagesEEG,001,202906,
AFNE01.JPG,AFNE01.JPG,AFNE01.JPG,AFNE01.JPG,AFNE01.JPG,AFNE01.JPG,,,,,1,0,10,7,,,,,,,,,,,,,,,,,,,AMSA04.jpg,AMNE15.jpg,AMNE05.jpg,AMSA18.jpg,AMSA04.jpg,MS,2,num_8,16,num_8,1.00023927144,,,2018_Feb_06_1606,59.9967478861,FEMA4ImagesEEG,001,202906,
AFNE01.JPG,AFNE01.JPG,AFNE01.JPG,AFNE01.JPG,AFNE01.JPG,AFNE01.JPG,,,,,1,1,11,2,,,,,,,,,,,,,,,,,,,AMSA19.jpg,AMNE09.jpg,AMSA15.jpg,AMNE15.jpg,AMNE09.jpg,MN,1,num_6,32,num_4,0.883560411399,,,2018_Feb_06_1606,59.9967478861,FEMA4ImagesEEG,001,202906,
AFNE01.JPG,AFNE01.JPG,AFNE01.JPG,AFNE01.JPG,AFNE01.JPG,AFNE01.JPG,,,,,1,2,12,8,,,,,,,,,,,,,,,,,,,AMNE15.jpg,AMSA19.jpg,AMSA14.jpg,AMNE18.jpg,AMNE15.jpg,MN,1,num_8,16,num_8,0.883436606033,,,2018_Feb_06_1606,59.9967478861,FEMA4ImagesEEG,001,202906,
AFNE01.JPG,AFNE01.JPG,AFNE01.JPG,AFNE01.JPG,AFNE01.JPG,AFNE01.JPG,,,,,1,3,13,0,,,,,,,,,,,,,,,,,,,AMSA05.jpg,AMNE20.jpg,AMNE08.jpg,AMSA06.jpg,AMSA06.jpg,MS,2,num_4,32,num_2,1.31675089803,,,2018_Feb_06_1606,59.9967478861,FEMA4ImagesEEG,001,202906,
AFNE01.JPG,AFNE01.JPG,AFNE01.JPG,AFNE01.JPG,AFNE01.JPG,AFNE01.JPG,,,,,1,4,14,5,,,,,,,,,,,,,,,,,,,AMNE05.jpg,AMSA01.jpg,AMSA19.jpg,AMNE14.jpg,AMNE14.jpg,MN,1,num_4,32,num_6,1.08345636353,,,2018_Feb_06_1606,59.9967478861,FEMA4ImagesEEG,001,202906,
AFNE01.JPG,AFNE01.JPG,AFNE01.JPG,AFNE01.JPG,AFNE01.JPG,AFNE01.JPG,,,,,1,5,15,1,,,,,,,,,,,,,,,,,,,AMSA15.jpg,AMSA01.jpg,AMNE01.jpg,AMNE09.jpg,AMSA15.jpg,MS,2,num_8,16,num_8,0.600209699245,,,2018_Feb_06_1606,59.9967478861,FEMA4ImagesEEG,001,202906,
AFNE01.JPG,AFNE01.JPG,AFNE01.JPG,AFNE01.JPG,AFNE01.JPG,AFNE01.JPG,,,,,1,6,16,4,,,,,,,,,,,,,,,,,,,AMSA06.jpg,AMNE07.jpg,AMNE02.jpg,AMSA17.jpg,AMNE07.jpg,MN,1,num_6,32,num_4,0.983461078489,,,2018_Feb_06_1606,59.9967478861,FEMA4ImagesEEG,001,202906,
AFNE01.JPG,AFNE01.JPG,AFNE01.JPG,AFNE01.JPG,AFNE01.JPG,AFNE01.JPG,,,,,1,7,17,6,,,,,,,,,,,,,,,,,,,AMSA08.jpg,AMNE15.jpg,AMNE17.jpg,AMSA12.jpg,AMNE17.jpg,MN,1,num_2,32,num_4,0.750163977966,,,2018_Feb_06_1606,59.9967478861,FEMA4ImagesEEG,001,202906,
AFNE01.JPG,AFNE01.JPG,AFNE01.JPG,AFNE01.JPG,AFNE01.JPG,AFNE01.JPG,,,,,1,8,18,3,,,,,,,,,,,,,,,,,,,AMNE01.jpg,AMSA15.jpg,AMSA11.jpg,AMNE14.jpg,AMSA15.jpg,MS,2,num_6,32,num_4,0.78322514263,,,2018_Feb_06_1606,59.9967478861,FEMA4ImagesEEG,001,202906,
AFNE01.JPG,AFNE01.JPG,AFNE01.JPG,AFNE01.JPG,AFNE01.JPG,AFNE01.JPG,,,,,1,9,19,9,,,,,,,,,,,,,,,,,,,AMNE09.jpg,AMNE07.jpg,AMSA12.jpg,AMSA09.jpg,AMNE07.jpg,MN,1,num_6,32,num_8,0.80001905188,,,2018_Feb_06_1606,59.9967478861,FEMA4ImagesEEG,001,202906,
AFNE01.JPG,AFNE01.JPG,AFNE01.JPG,AFNE01.JPG,AFNE01.JPG,AFNE01.JPG,,,,,2,0,20,0,,,,,,,,,,,,,,,,,,,AMSA05.jpg,AMNE01.jpg,AMNE09.jpg,AMSA11.jpg,AMSA11.jpg,MS,2,num_4,32,num_6,0.833459330257,,,2018_Feb_06_1606,59.9967478861,FEMA4ImagesEEG,001,202906,
AFNE01.JPG,AFNE01.JPG,AFNE01.JPG,AFNE01.JPG,AFNE01.JPG,AFNE01.JPG,,,,,2,1,21,3,,,,,,,,,,,,,,,,,,,AMNE18.jpg,AMNE06.jpg,AMSA16.jpg,AMSA05.jpg,AMSA05.jpg,MS,2,num_4,16,num_4,0.700121592265,,,2018_Feb_06_1606,59.9967478861,FEMA4ImagesEEG,001,202906,
AFNE01.JPG,AFNE01.JPG,AFNE01.JPG,AFNE01.JPG,AFNE01.JPG,AFNE01.JPG,,,,,2,2,22,8,,,,,,,,,,,,,,,,,,,AMNE03.jpg,AMSA14.jpg,AMSA17.jpg,AMNE04.jpg,AMSA17.jpg,MS,2,num_2,32,num_8,0.766969113145,,,2018_Feb_06_1606,59.9967478861,FEMA4ImagesEEG,001,202906,
AFNE01.JPG,AFNE01.JPG,AFNE01.JPG,AFNE01.JPG,AFNE01.JPG,AFNE01.JPG,,,,,2,3,23,1,,,,,,,,,,,,,,,,,,,AMSA17.jpg,AMNE12.jpg,AMSA01.jpg,AMNE19.jpg,AMNE19.jpg,MN,1,num_4,32,num_8,0.666845211526,,,2018_Feb_06_1606,59.9967478861,FEMA4ImagesEEG,001,202906,
AFNE01.JPG,AFNE01.JPG,AFNE01.JPG,AFNE01.JPG,AFNE01.JPG,AFNE01.JPG,,,,,2,4,24,7,,,,,,,,,,,,,,,,,,,AMSA07.jpg,AMNE14.jpg,AMNE11.jpg,AMSA04.jpg,AMNE11.jpg,MN,1,num_2,32,num_8,0.80025158776,,,2018_Feb_06_1606,59.9967478861,FEMA4ImagesEEG,001,202906,
AFNE01.JPG,AFNE01.JPG,AFNE01.JPG,AFNE01.JPG,AFNE01.JPG,AFNE01.JPG,,,,,2,5,25,2,,,,,,,,,,,,,,,,,,,AMSA10.jpg,AMNE13.jpg,AMNE01.jpg,AMSA01.jpg,AMNE01.jpg,MN,1,num_2,32,num_4,0.633452723036,,,2018_Feb_06_1606,59.9967478861,FEMA4ImagesEEG,001,202906,
AFNE01.JPG,AFNE01.JPG,AFNE01.JPG,AFNE01.JPG,AFNE01.JPG,AFNE01.JPG,,,,,2,6,26,4,,,,,,,,,,,,,,,,,,,AMNE14.jpg,AMSA16.jpg,AMNE03.jpg,AMSA01.jpg,AMNE03.jpg,MN,1,num_2,32,num_8,0.783478206024,,,2018_Feb_06_1606,59.9967478861,FEMA4ImagesEEG,001,202906,
AFNE01.JPG,AFNE01.JPG,AFNE01.JPG,AFNE01.JPG,AFNE01.JPG,AFNE01.JPG,,,,,2,7,27,6,,,,,,,,,,,,,,,,,,,AMSA11.jpg,AMNE15.jpg,AMNE03.jpg,AMSA18.jpg,AMSA18.jpg,MS,2,num_4,16,num_4,0.683511787327,,,2018_Feb_06_1606,59.9967478861,FEMA4ImagesEEG,001,202906,
AFNE01.JPG,AFNE01.JPG,AFNE01.JPG,AFNE01.JPG,AFNE01.JPG,AFNE01.JPG,,,,,2,8,28,9,,,,,,,,,,,,,,,,,,,AMNE18.jpg,AMSA13.jpg,AMNE14.jpg,AMSA09.jpg,AMNE18.jpg,MN,1,num_8,16,num_8,0.750148582505,,,2018_Feb_06_1606,59.9967478861,FEMA4ImagesEEG,001,202906,
AFNE01.JPG,AFNE01.JPG,AFNE01.JPG,AFNE01.JPG,AFNE01.JPG,AFNE01.JPG,,,,,2,9,29,5,,,,,,,,,,,,,,,,,,,AMSA10.jpg,AMSA01.jpg,AMNE06.jpg,AMNE19.jpg,AMNE19.jpg,MN,1,num_4,32,num_8,0.733313618461,,,2018_Feb_06_1606,59.9967478861,FEMA4ImagesEEG,001,202906,
AFNE01.JPG,AFNE01.JPG,AFNE01.JPG,AFNE01.JPG,AFNE01.JPG,AFNE01.JPG,,,,,3,0,30,9,,,,,,,,,,,,,,,,,,,AMNE15.jpg,AMSA06.jpg,AMNE20.jpg,AMSA11.jpg,AMSA06.jpg,MS,2,num_6,32,num_4,0.883461303078,,,2018_Feb_06_1606,59.9967478861,FEMA4ImagesEEG,001,202906,
AFNE01.JPG,AFNE01.JPG,AFNE01.JPG,AFNE01.JPG,AFNE01.JPG,AFNE01.JPG,,,,,3,1,31,8,,,,,,,,,,,,,,,,,,,AMSA08.jpg,AMNE02.jpg,AMNE09.jpg,AMSA15.jpg,AMSA15.jpg,MS,2,num_4,16,num_4,0.866632433143,,,2018_Feb_06_1606,59.9967478861,FEMA4ImagesEEG,001,202906,
AFNE01.JPG,AFNE01.JPG,AFNE01.JPG,AFNE01.JPG,AFNE01.JPG,AFNE01.JPG,,,,,3,2,32,7,,,,,,,,,,,,,,,,,,,AMNE18.jpg,AMSA06.jpg,AMSA08.jpg,AMNE14.jpg,AMSA08.jpg,MS,2,num_2,32,num_6,0.833467348944,,,2018_Feb_06_1606,59.9967478861,FEMA4ImagesEEG,001,202906,
AFNE01.JPG,AFNE01.JPG,AFNE01.JPG,AFNE01.JPG,AFNE01.JPG,AFNE01.JPG,,,,,3,3,33,1,,,,,,,,,,,,,,,,,,,AMNE17.jpg,AMNE07.jpg,AMSA07.jpg,AMSA04.jpg,AMSA04.jpg,MS,2,num_4,16,num_4,0.566746969009,,,2018_Feb_06_1606,59.9967478861,FEMA4ImagesEEG,001,202906,
AFNE01.JPG,AFNE01.JPG,AFNE01.JPG,AFNE01.JPG,AFNE01.JPG,AFNE01.JPG,,,,,3,4,34,5,,,,,,,,,,,,,,,,,,,AMNE13.jpg,AMSA05.jpg,AMSA17.jpg,AMNE05.jpg,AMNE05.jpg,MN,1,num_4,32,num_6,0.750207598554,,,2018_Feb_06_1606,59.9967478861,FEMA4ImagesEEG,001,202906,
AFNE01.JPG,AFNE01.JPG,AFNE01.JPG,AFNE01.JPG,AFNE01.JPG,AFNE01.JPG,,,,,3,5,35,0,,,,,,,,,,,,,,,,,,,AMSA04.jpg,AMSA07.jpg,AMNE02.jpg,AMNE13.jpg,AMNE13.jpg,MN,1,num_4,32,num_8,0.783461206593,,,2018_Feb_06_1606,59.9967478861,FEMA4ImagesEEG,001,202906,
AFNE01.JPG,AFNE01.JPG,AFNE01.JPG,AFNE01.JPG,AFNE01.JPG,AFNE01.JPG,,,,,3,6,36,4,,,,,,,,,,,,,,,,,,,AMNE02.jpg,AMSA10.jpg,AMSA08.jpg,AMNE05.jpg,AMNE05.jpg,MN,1,num_4,16,num_4,1.20011758315,,,2018_Feb_06_1606,59.9967478861,FEMA4ImagesEEG,001,202906,
AFNE01.JPG,AFNE01.JPG,AFNE01.JPG,AFNE01.JPG,AFNE01.JPG,AFNE01.JPG,,,,,3,7,37,6,,,,,,,,,,,,,,,,,,,AMNE11.jpg,AMSA10.jpg,AMNE12.jpg,AMSA05.jpg,AMSA10.jpg,MS,2,num_6,32,num_2,1.03343097703,,,2018_Feb_06_1606,59.9967478861,FEMA4ImagesEEG,001,202906,
AFNE01.JPG,AFNE01.JPG,AFNE01.JPG,AFNE01.JPG,AFNE01.JPG,AFNE01.JPG,,,,,3,8,38,3,,,,,,,,,,,,,,,,,,,AMSA07.jpg,AMSA09.jpg,AMNE05.jpg,AMNE17.jpg,AMSA07.jpg,MS,2,num_8,32,num_6,1.28350979881,,,2018_Feb_06_1606,59.9967478861,FEMA4ImagesEEG,001,202906,
AFNE01.JPG,AFNE01.JPG,AFNE01.JPG,AFNE01.JPG,AFNE01.JPG,AFNE01.JPG,,,,,3,9,39,2,,,,,,,,,,,,,,,,,,,AMNE03.jpg,AMSA07.jpg,AMNE15.jpg,AMSA14.jpg,AMSA07.jpg,MS,2,num_6,16,num_6,0.53349817195,,,2018_Feb_06_1606,59.9967478861,FEMA4ImagesEEG,001,202906,
AFNE01.JPG,AFNE01.JPG,AFNE01.JPG,AFNE01.JPG,AFNE01.JPG,AFNE01.JPG,,,,,4,0,40,1,,,,,,,,,,,,,,,,,,,AMSA13.jpg,AMNE12.jpg,AMSA07.jpg,AMNE03.jpg,AMSA07.jpg,MS,2,num_2,32,num_4,1.35011901031,,,2018_Feb_06_1606,59.9967478861,FEMA4ImagesEEG,001,202906,
AFNE01.JPG,AFNE01.JPG,AFNE01.JPG,AFNE01.JPG,AFNE01.JPG,AFNE01.JPG,,,,,4,1,41,8,,,,,,,,,,,,,,,,,,,AMNE05.jpg,AMNE12.jpg,AMSA13.jpg,AMSA04.jpg,AMSA13.jpg,MS,2,num_2,32,num_8,0.700140515808,,,2018_Feb_06_1606,59.9967478861,FEMA4ImagesEEG,001,202906,
AFNE01.JPG,AFNE01.JPG,AFNE01.JPG,AFNE01.JPG,AFNE01.JPG,AFNE01.JPG,,,,,4,2,42,5,,,,,,,,,,,,,,,,,,,AMNE08.jpg,AMNE01.jpg,AMSA06.jpg,AMSA19.jpg,AMNE01.jpg,MN,1,num_6,16,num_6,0.650098450948,,,2018_Feb_06_1606,59.9967478861,FEMA4ImagesEEG,001,202906,
AFNE01.JPG,AFNE01.JPG,AFNE01.JPG,AFNE01.JPG,AFNE01.JPG,AFNE01.JPG,,,,,4,3,43,2,,,,,,,,,,,,,,,,,,,AMSA02.jpg,AMSA11.jpg,AMNE12.jpg,AMNE13.jpg,AMSA11.jpg,MS,2,num_6,16,num_6,0.950094890781,,,2018_Feb_06_1606,59.9967478861,FEMA4ImagesEEG,001,202906,
AFNE01.JPG,AFNE01.JPG,AFNE01.JPG,AFNE01.JPG,AFNE01.JPG,AFNE01.JPG,,,,,4,4,44,3,,,,,,,,,,,,,,,,,,,AMSA18.jpg,AMNE07.jpg,AMNE15.jpg,AMSA13.jpg,AMNE15.jpg,MN,1,num_2,16,num_2,0.533492719522,,,2018_Feb_06_1606,59.9967478861,FEMA4ImagesEEG,001,202906,
AFNE01.JPG,AFNE01.JPG,AFNE01.JPG,AFNE01.JPG,AFNE01.JPG,AFNE01.JPG,,,,,4,5,45,0,,,,,,,,,,,,,,,,,,,AMSA01.jpg,AMNE13.jpg,AMNE03.jpg,AMSA06.jpg,AMNE13.jpg,MN,1,num_6,16,num_6,0.733508628095,,,2018_Feb_06_1606,59.9967478861,FEMA4ImagesEEG,001,202906,
AFNE01.JPG,AFNE01.JPG,AFNE01.JPG,AFNE01.JPG,AFNE01.JPG,AFNE01.JPG,,,,,4,6,46,7,,,,,,,,,,,,,,,,,,,AMNE17.jpg,AMNE08.jpg,AMSA18.jpg,AMSA01.jpg,AMSA01.jpg,MS,2,num_4,16,num_4,0.650201729033,,,2018_Feb_06_1606,59.9967478861,FEMA4ImagesEEG,001,202906,
AFNE01.JPG,AFNE01.JPG,AFNE01.JPG,AFNE01.JPG,AFNE01.JPG,AFNE01.JPG,,,,,4,7,47,6,,,,,,,,,,,,,,,,,,,AMSA18.jpg,AMNE01.jpg,AMSA10.jpg,AMNE11.jpg,AMSA10.jpg,MS,2,num_2,16,num_2,1.20013971417,,,2018_Feb_06_1606,59.9967478861,FEMA4ImagesEEG,001,202906,
AFNE01.JPG,AFNE01.JPG,AFNE01.JPG,AFNE01.JPG,AFNE01.JPG,AFNE01.JPG,,,,,4,8,48,4,,,,,,,,,,,,,,,,,,,AMNE10.jpg,AMNE02.jpg,AMSA03.jpg,AMSA18.jpg,AMNE02.jpg,MN,1,num_6,32,num_4,0.750109452289,,,2018_Feb_06_1606,59.9967478861,FEMA4ImagesEEG,001,202906,
AFNE01.JPG,AFNE01.JPG,AFNE01.JPG,AFNE01.JPG,AFNE01.JPG,AFNE01.JPG,,,,,4,9,49,9,,,,,,,,,,,,,,,,,,,AMSA06.jpg,AMNE20.jpg,AMSA16.jpg,AMNE01.jpg,AMNE20.jpg,MN,1,num_6,16,num_6,0.550173407653,,,2018_Feb_06_1606,59.9967478861,FEMA4ImagesEEG,001,202906,
AFNE01.JPG,AFNE01.JPG,AFNE01.JPG,AFNE01.JPG,AFNE01.JPG,AFNE01.JPG,,,,,5,0,50,7,,,,,,,,,,,,,,,,,,,AMSA08.jpg,AMSA03.jpg,AMNE15.jpg,AMNE16.jpg,AMNE16.jpg,MN,1,num_4,32,num_8,0.800160818733,,,2018_Feb_06_1606,59.9967478861,FEMA4ImagesEEG,001,202906,
AFNE01.JPG,AFNE01.JPG,AFNE01.JPG,AFNE01.JPG,AFNE01.JPG,AFNE01.JPG,,,,,5,1,51,9,,,,,,,,,,,,,,,,,,,AMSA02.jpg,AMNE18.jpg,AMNE12.jpg,AMSA17.jpg,AMNE12.jpg,MN,1,num_2,32,num_6,0.766768009635,,,2018_Feb_06_1606,59.9967478861,FEMA4ImagesEEG,001,202906,
AFNE01.JPG,AFNE01.JPG,AFNE01.JPG,AFNE01.JPG,AFNE01.JPG,AFNE01.JPG,,,,,5,2,52,6,,,,,,,,,,,,,,,,,,,AMSA16.jpg,AMSA18.jpg,AMNE12.jpg,AMNE04.jpg,AMSA18.jpg,MS,2,num_6,16,num_6,1.01674868492,,,2018_Feb_06_1606,59.9967478861,FEMA4ImagesEEG,001,202906,
AFNE01.JPG,AFNE01.JPG,AFNE01.JPG,AFNE01.JPG,AFNE01.JPG,AFNE01.JPG,,,,,5,3,53,5,,,,,,,,,,,,,,,,,,,AMNE18.jpg,AMNE05.jpg,AMSA10.jpg,AMSA16.jpg,AMSA10.jpg,MS,2,num_2,16,num_2,0.833445859374,,,2018_Feb_06_1606,59.9967478861,FEMA4ImagesEEG,001,202906,
AFNE01.JPG,AFNE01.JPG,AFNE01.JPG,AFNE01.JPG,AFNE01.JPG,AFNE01.JPG,,,,,5,4,54,1,,,,,,,,,,,,,,,,,,,AMSA14.jpg,AMSA01.jpg,AMNE20.jpg,AMNE18.jpg,AMNE18.jpg,MN,1,num_4,16,num_4,0.81677030283,,,2018_Feb_06_1606,59.9967478861,FEMA4ImagesEEG,001,202906,
AFNE01.JPG,AFNE01.JPG,AFNE01.JPG,AFNE01.JPG,AFNE01.JPG,AFNE01.JPG,,,,,5,5,55,2,,,,,,,,,,,,,,,,,,,AMSA06.jpg,AMNE20.jpg,AMNE14.jpg,AMSA16.jpg,AMSA06.jpg,MS,2,num_8,32,num_4,1.83342725667,,,2018_Feb_06_1606,59.9967478861,FEMA4ImagesEEG,001,202906,
AFNE01.JPG,AFNE01.JPG,AFNE01.JPG,AFNE01.JPG,AFNE01.JPG,AFNE01.JPG,,,,,5,6,56,8,,,,,,,,,,,,,,,,,,,AMNE12.jpg,AMSA14.jpg,AMNE06.jpg,AMSA03.jpg,AMNE06.jpg,MN,1,num_2,16,num_2,1.05006579962,,,2018_Feb_06_1606,59.9967478861,FEMA4ImagesEEG,001,202906,
AFNE01.JPG,AFNE01.JPG,AFNE01.JPG,AFNE01.JPG,AFNE01.JPG,AFNE01.JPG,,,,,5,7,57,4,,,,,,,,,,,,,,,,,,,AMSA20.jpg,AMNE13.jpg,AMNE08.jpg,AMSA07.jpg,AMSA07.jpg,MS,2,num_4,32,num_8,0.900133972755,,,2018_Feb_06_1606,59.9967478861,FEMA4ImagesEEG,001,202906,
AFNE01.JPG,AFNE01.JPG,AFNE01.JPG,AFNE01.JPG,AFNE01.JPG,AFNE01.JPG,,,,,5,8,58,3,,,,,,,,,,,,,,,,,,,AMSA04.jpg,AMNE14.jpg,AMNE07.jpg,AMSA14.jpg,AMSA04.jpg,MS,2,num_8,16,num_8,0.550158974482,,,2018_Feb_06_1606,59.9967478861,FEMA4ImagesEEG,001,202906,
AFNE01.JPG,AFNE01.JPG,AFNE01.JPG,AFNE01.JPG,AFNE01.JPG,AFNE01.JPG,,,,,5,9,59,0,,,,,,,,,,,,,,,,,,,AMSA09.jpg,AMNE13.jpg,AMSA17.jpg,AMNE08.jpg,AMSA17.jpg,MS,2,num_2,16,num_2,0.966742222197,,,2018_Feb_06_1606,59.9967478861,FEMA4ImagesEEG,001,202906,
,,,,,,,,,,,,,,,,,,,,,,,,,,,,,,,,,,,,,,,,,,,space,11.9492295361,2018_Feb_06_1606,59.9967478861,FEMA4ImagesEEG,001,202906,
AFNE01.JPG,AFNE01.JPG,AFNE01.JPG,AFNE01.JPG,AFNE01.JPG,AFNE01.JPG,,,,,,,,,0,0,0,2,,,,,,,,,,,,,,,AFSA03.jpg,AFNE08.jpg,AFSA10.jpg,AFNE15.jpg,AFNE08.jpg,FN,3,num_6,16,num_6,1.00017672754,,,2018_Feb_06_1606,59.9967478861,FEMA4ImagesEEG,001,202906,
AFNE01.JPG,AFNE01.JPG,AFNE01.JPG,AFNE01.JPG,AFNE01.JPG,AFNE01.JPG,,,,,,,,,0,1,1,4,,,,,,,,,,,,,,,AFSA13.jpg,AFNE05.jpg,AFSA05.jpg,AFNE11.jpg,AFNE05.jpg,FN,3,num_6,32,num_8,0.699888414703,,,2018_Feb_06_1606,59.9967478861,FEMA4ImagesEEG,001,202906,
AFNE01.JPG,AFNE01.JPG,AFNE01.JPG,AFNE01.JPG,AFNE01.JPG,AFNE01.JPG,,,,,,,,,0,2,2,8,,,,,,,,,,,,,,,AFNE15.jpg,AFSA13.jpg,AFSA18.jpg,AFNE20.jpg,AFNE20.jpg,FN,3,num_4,16,num_4,0.966768202139,,,2018_Feb_06_1606,59.9967478861,FEMA4ImagesEEG,001,202906,
AFNE01.JPG,AFNE01.JPG,AFNE01.JPG,AFNE01.JPG,AFNE01.JPG,AFNE01.JPG,,,,,,,,,0,3,3,3,,,,,,,,,,,,,,,AFNE15.jpg,AFSA17.jpg,AFSA14.jpg,AFNE18.jpg,AFSA14.jpg,FS,4,num_2,16,num_2,0.866900571156,,,2018_Feb_06_1606,59.9967478861,FEMA4ImagesEEG,001,202906,
AFNE01.JPG,AFNE01.JPG,AFNE01.JPG,AFNE01.JPG,AFNE01.JPG,AFNE01.JPG,,,,,,,,,0,4,4,5,,,,,,,,,,,,,,,AFSA19.jpg,AFNE03.jpg,AFNE05.jpg,AFSA06.jpg,AFSA19.jpg,FS,4,num_8,16,num_8,0.816805904964,,,2018_Feb_06_1606,59.9967478861,FEMA4ImagesEEG,001,202906,
AFNE01.JPG,AFNE01.JPG,AFNE01.JPG,AFNE01.JPG,AFNE01.JPG,AFNE01.JPG,,,,,,,,,0,5,5,6,,,,,,,,,,,,,,,AFNE06.jpg,AFNE18.jpg,AFSA20.jpg,AFSA14.jpg,AFSA14.jpg,FS,4,num_4,32,num_2,0.733473667409,,,2018_Feb_06_1606,59.9967478861,FEMA4ImagesEEG,001,202906,
AFNE01.JPG,AFNE01.JPG,AFNE01.JPG,AFNE01.JPG,AFNE01.JPG,AFNE01.JPG,,,,,,,,,0,6,6,1,,,,,,,,,,,,,,,AFSA10.jpg,AFNE10.jpg,AFNE13.jpg,AFSA13.jpg,AFSA13.jpg,FS,4,num_4,16,num_4,0.533476361772,,,2018_Feb_06_1606,59.9967478861,FEMA4ImagesEEG,001,202906,
AFNE01.JPG,AFNE01.JPG,AFNE01.JPG,AFNE01.JPG,AFNE01.JPG,AFNE01.JPG,,,,,,,,,0,7,7,9,,,,,,,,,,,,,,,AFNE17.jpg,AFSA12.jpg,AFSA06.jpg,AFNE02.jpg,AFNE02.jpg,FN,3,num_4,32,num_8,0.816813602578,,,2018_Feb_06_1606,59.9967478861,FEMA4ImagesEEG,001,202906,
AFNE01.JPG,AFNE01.JPG,AFNE01.JPG,AFNE01.JPG,AFNE01.JPG,AFNE01.JPG,,,,,,,,,0,8,8,7,,,,,,,,,,,,,,,AFNE07.jpg,AFNE17.jpg,AFSA20.jpg,AFSA01.jpg,AFNE07.jpg,FN,3,num_8,32,num_4,0.91677841777,,,2018_Feb_06_1606,59.9967478861,FEMA4ImagesEEG,001,202906,
AFNE01.JPG,AFNE01.JPG,AFNE01.JPG,AFNE01.JPG,AFNE01.JPG,AFNE01.JPG,,,,,,,,,0,9,9,0,,,,,,,,,,,,,,,AFSA01.jpg,AFNE13.jpg,AFNE02.jpg,AFSA11.jpg,AFNE02.jpg,FN,3,num_2,32,num_4,0.966778145172,,,2018_Feb_06_1606,59.9967478861,FEMA4ImagesEEG,001,202906,
AFNE01.JPG,AFNE01.JPG,AFNE01.JPG,AFNE01.JPG,AFNE01.JPG,AFNE01.JPG,,,,,,,,,1,0,10,3,,,,,,,,,,,,,,,AFNE07.jpg,AFSA15.jpg,AFSA12.jpg,AFNE12.jpg,AFNE07.jpg,FN,3,num_8,16,num_8,0.916757569415,,,2018_Feb_06_1606,59.9967478861,FEMA4ImagesEEG,001,202906,
AFNE01.JPG,AFNE01.JPG,AFNE01.JPG,AFNE01.JPG,AFNE01.JPG,AFNE01.JPG,,,,,,,,,1,1,11,8,,,,,,,,,,,,,,,AFNE09.jpg,AFSA15.jpg,AFNE19.jpg,AFSA18.jpg,AFNE19.jpg,FN,3,num_2,32,num_4,1.00012701261,,,2018_Feb_06_1606,59.9967478861,FEMA4ImagesEEG,001,202906,
AFNE01.JPG,AFNE01.JPG,AFNE01.JPG,AFNE01.JPG,AFNE01.JPG,AFNE01.JPG,,,,,,,,,1,2,12,7,,,,,,,,,,,,,,,AFSA19.jpg,AFSA07.jpg,AFNE02.jpg,AFNE20.jpg,AFNE20.jpg,FN,3,num_4,32,num_8,0.733537815278,,,2018_Feb_06_1606,59.9967478861,FEMA4ImagesEEG,001,202906,
AFNE01.JPG,AFNE01.JPG,AFNE01.JPG,AFNE01.JPG,AFNE01.JPG,AFNE01.JPG,,,,,,,,,1,3,13,2,,,,,,,,,,,,,,,AFSA20.jpg,AFNE20.jpg,AFNE09.jpg,AFSA17.jpg,AFSA20.jpg,FS,4,num_8,32,num_2,0.633508531842,,,2018_Feb_06_1606,59.9967478861,FEMA4ImagesEEG,001,202906,
AFNE01.JPG,AFNE01.JPG,AFNE01.JPG,AFNE01.JPG,AFNE01.JPG,AFNE01.JPG,,,,,,,,,1,4,14,4,,,,,,,,,,,,,,,AFSA12.jpg,AFSA19.jpg,AFNE19.jpg,AFNE08.jpg,AFNE08.jpg,FN,3,num_4,16,num_4,0.716843335191,,,2018_Feb_06_1606,59.9967478861,FEMA4ImagesEEG,001,202906,
AFNE01.JPG,AFNE01.JPG,AFNE01.JPG,AFNE01.JPG,AFNE01.JPG,AFNE01.JPG,,,,,,,,,1,5,15,6,,,,,,,,,,,,,,,AFNE20.jpg,AFSA16.jpg,AFSA02.jpg,AFNE01.jpg,AFSA02.jpg,FS,4,num_2,32,num_8,0.900252004853,,,2018_Feb_06_1606,59.9967478861,FEMA4ImagesEEG,001,202906,
AFNE01.JPG,AFNE01.JPG,AFNE01.JPG,AFNE01.JPG,AFNE01.JPG,AFNE01.JPG,,,,,,,,,1,6,16,0,,,,,,,,,,,,,,,AFNE07.jpg,AFNE18.jpg,AFSA07.jpg,AFSA11.jpg,AFNE07.jpg,FN,3,num_8,16,num_8,0.683480354724,,,2018_Feb_06_1606,59.9967478861,FEMA4ImagesEEG,001,202906,
AFNE01.JPG,AFNE01.JPG,AFNE01.JPG,AFNE01.JPG,AFNE01.JPG,AFNE01.JPG,,,,,,,,,1,7,17,5,,,,,,,,,,,,,,,AFNE07.jpg,AFSA17.jpg,AFNE16.jpg,AFSA11.jpg,AFSA11.jpg,FS,4,num_4,16,num_4,0.433449002681,,,2018_Feb_06_1606,59.9967478861,FEMA4ImagesEEG,001,202906,
AFNE01.JPG,AFNE01.JPG,AFNE01.JPG,AFNE01.JPG,AFNE01.JPG,AFNE01.JPG,,,,,,,,,1,8,18,1,,,,,,,,,,,,,,,AFNE02.jpg,AFNE06.jpg,AFSA10.jpg,AFSA06.jpg,AFSA10.jpg,FS,4,num_2,16,num_2,0.983432211913,,,2018_Feb_06_1606,59.9967478861,FEMA4ImagesEEG,001,202906,
AFNE01.JPG,AFNE01.JPG,AFNE01.JPG,AFNE01.JPG,AFNE01.JPG,AFNE01.JPG,,,,,,,,,1,9,19,9,,,,,,,,,,,,,,,AFNE19.jpg,AFNE05.jpg,AFSA18.jpg,AFSA06.jpg,AFNE05.jpg,FN,3,num_6,32,num_8,0.800107255112,,,2018_Feb_06_1606,59.9967478861,FEMA4ImagesEEG,001,202906,
AFNE01.JPG,AFNE01.JPG,AFNE01.JPG,AFNE01.JPG,AFNE01.JPG,AFNE01.JPG,,,,,,,,,2,0,20,7,,,,,,,,,,,,,,,AFNE07.jpg,AFNE14.jpg,AFSA13.jpg,AFSA19.jpg,AFSA19.jpg,FS,4,num_4,16,num_4,0.65013469453,,,2018_Feb_06_1606,59.9967478861,FEMA4ImagesEEG,001,202906,
AFNE01.JPG,AFNE01.JPG,AFNE01.JPG,AFNE01.JPG,AFNE01.JPG,AFNE01.JPG,,,,,,,,,2,1,21,5,,,,,,,,,,,,,,,AFNE20.jpg,AFSA09.jpg,AFNE17.jpg,AFSA08.jpg,AFNE17.jpg,FN,3,num_2,32,num_8,0.83349076286,,,2018_Feb_06_1606,59.9967478861,FEMA4ImagesEEG,001,202906,
AFNE01.JPG,AFNE01.JPG,AFNE01.JPG,AFNE01.JPG,AFNE01.JPG,AFNE01.JPG,,,,,,,,,2,2,22,2,,,,,,,,,,,,,,,AFNE13.jpg,AFSA12.jpg,AFNE10.jpg,AFSA16.jpg,AFNE13.jpg,FN,3,num_8,16,num_8,0.833599814214,,,2018_Feb_06_1606,59.9967478861,FEMA4ImagesEEG,001,202906,
AFNE01.JPG,AFNE01.JPG,AFNE01.JPG,AFNE01.JPG,AFNE01.JPG,AFNE01.JPG,,,,,,,,,2,3,23,9,,,,,,,,,,,,,,,AFNE04.jpg,AFNE09.jpg,AFSA08.jpg,AFSA18.jpg,AFSA18.jpg,FS,4,num_4,16,num_4,0.800147668459,,,2018_Feb_06_1606,59.9967478861,FEMA4ImagesEEG,001,202906,
AFNE01.JPG,AFNE01.JPG,AFNE01.JPG,AFNE01.JPG,AFNE01.JPG,AFNE01.JPG,,,,,,,,,2,4,24,6,,,,,,,,,,,,,,,AFNE12.jpg,AFSA14.jpg,AFSA06.jpg,AFNE15.jpg,AFSA06.jpg,FS,4,num_2,32,num_4,0.866499647032,,,2018_Feb_06_1606,59.9967478861,FEMA4ImagesEEG,001,202906,
AFNE01.JPG,AFNE01.JPG,AFNE01.JPG,AFNE01.JPG,AFNE01.JPG,AFNE01.JPG,,,,,,,,,2,5,25,0,,,,,,,,,,,,,,,AFSA11.jpg,AFNE15.jpg,AFNE09.jpg,AFSA05.jpg,AFNE09.jpg,FN,3,num_2,16,num_2,0.83346959413,,,2018_Feb_06_1606,59.9967478861,FEMA4ImagesEEG,001,202906,
AFNE01.JPG,AFNE01.JPG,AFNE01.JPG,AFNE01.JPG,AFNE01.JPG,AFNE01.JPG,,,,,,,,,2,6,26,3,,,,,,,,,,,,,,,AFSA10.jpg,AFSA16.jpg,AFNE03.jpg,AFNE07.jpg,AFSA16.jpg,FS,4,num_6,16,num_6,0.866781577002,,,2018_Feb_06_1606,59.9967478861,FEMA4ImagesEEG,001,202906,
AFNE01.JPG,AFNE01.JPG,AFNE01.JPG,AFNE01.JPG,AFNE01.JPG,AFNE01.JPG,,,,,,,,,2,7,27,4,,,,,,,,,,,,,,,AFSA01.jpg,AFNE10.jpg,AFSA09.jpg,AFNE17.jpg,AFNE10.jpg,FN,3,num_6,16,num_6,0.566810154822,,,2018_Feb_06_1606,59.9967478861,FEMA4ImagesEEG,001,202906,
AFNE01.JPG,AFNE01.JPG,AFNE01.JPG,AFNE01.JPG,AFNE01.JPG,AFNE01.JPG,,,,,,,,,2,8,28,8,,,,,,,,,,,,,,,AFSA19.jpg,AFNE12.jpg,AFSA08.jpg,AFNE03.jpg,AFNE03.jpg,FN,3,num_4,16,num_4,0.716793941334,,,2018_Feb_06_1606,59.9967478861,FEMA4ImagesEEG,001,202906,
AFNE01.JPG,AFNE01.JPG,AFNE01.JPG,AFNE01.JPG,AFNE01.JPG,AFNE01.JPG,,,,,,,,,2,9,29,1,,,,,,,,,,,,,,,AFNE15.jpg,AFNE01.jpg,AFSA20.jpg,AFSA05.jpg,AFSA05.jpg,FS,4,num_4,16,num_4,1.06671441416,,,2018_Feb_06_1606,59.9967478861,FEMA4ImagesEEG,001,202906,
AFNE01.JPG,AFNE01.JPG,AFNE01.JPG,AFNE01.JPG,AFNE01.JPG,AFNE01.JPG,,,,,,,,,3,0,30,6,,,,,,,,,,,,,,,AFNE10.jpg,AFNE01.jpg,AFSA19.jpg,AFSA12.jpg,AFSA19.jpg,FS,4,num_2,16,num_2,0.800156007754,,,2018_Feb_06_1606,59.9967478861,FEMA4ImagesEEG,001,202906,
AFNE01.JPG,AFNE01.JPG,AFNE01.JPG,AFNE01.JPG,AFNE01.JPG,AFNE01.JPG,,,,,,,,,3,1,31,5,,,,,,,,,,,,,,,AFNE16.jpg,AFSA05.jpg,AFNE08.jpg,AFSA02.jpg,AFNE08.jpg,FN,3,num_2,32,num_8,0.766761915525,,,2018_Feb_06_1606,59.9967478861,FEMA4ImagesEEG,001,202906,
AFNE01.JPG,AFNE01.JPG,AFNE01.JPG,AFNE01.JPG,AFNE01.JPG,AFNE01.JPG,,,,,,,,,3,2,32,9,,,,,,,,,,,,,,,AFSA14.jpg,AFNE14.jpg,AFNE06.jpg,AFSA16.jpg,AFSA16.jpg,FS,4,num_4,16,num_4,0.516775466967,,,2018_Feb_06_1606,59.9967478861,FEMA4ImagesEEG,001,202906,
AFNE01.JPG,AFNE01.JPG,AFNE01.JPG,AFNE01.JPG,AFNE01.JPG,AFNE01.JPG,,,,,,,,,3,3,33,2,,,,,,,,,,,,,,,AFNE18.jpg,AFNE11.jpg,AFSA07.jpg,AFSA20.jpg,AFSA07.jpg,FS,4,num_2,32,num_4,1.05011198623,,,2018_Feb_06_1606,59.9967478861,FEMA4ImagesEEG,001,202906,
AFNE01.JPG,AFNE01.JPG,AFNE01.JPG,AFNE01.JPG,AFNE01.JPG,AFNE01.JPG,,,,,,,,,3,4,34,8,,,,,,,,,,,,,,,AFSA18.jpg,AFNE07.jpg,AFNE19.jpg,AFSA12.jpg,AFSA18.jpg,FS,4,num_8,16,num_8,1.05013956968,,,2018_Feb_06_1606,59.9967478861,FEMA4ImagesEEG,001,202906,
AFNE01.JPG,AFNE01.JPG,AFNE01.JPG,AFNE01.JPG,AFNE01.JPG,AFNE01.JPG,,,,,,,,,3,5,35,7,,,,,,,,,,,,,,,AFNE04.jpg,AFSA06.jpg,AFSA20.jpg,AFNE02.jpg,AFNE04.jpg,FN,3,num_8,32,num_4,1.10013159923,,,2018_Feb_06_1606,59.9967478861,FEMA4ImagesEEG,001,202906,
AFNE01.JPG,AFNE01.JPG,AFNE01.JPG,AFNE01.JPG,AFNE01.JPG,AFNE01.JPG,,,,,,,,,3,6,36,1,,,,,,,,,,,,,,,AFNE19.jpg,AFSA06.jpg,AFNE02.jpg,AFSA15.jpg,AFNE19.jpg,FN,3,num_8,16,num_8,0.916656215908,,,2018_Feb_06_1606,59.9967478861,FEMA4ImagesEEG,001,202906,
AFNE01.JPG,AFNE01.JPG,AFNE01.JPG,AFNE01.JPG,AFNE01.JPG,AFNE01.JPG,,,,,,,,,3,7,37,0,,,,,,,,,,,,,,,AFSA04.jpg,AFNE05.jpg,AFSA05.jpg,AFNE12.jpg,AFSA04.jpg,FS,4,num_8,32,num_2,1.2001368273,,,2018_Feb_06_1606,59.9967478861,FEMA4ImagesEEG,001,202906,
AFNE01.JPG,AFNE01.JPG,AFNE01.JPG,AFNE01.JPG,AFNE01.JPG,AFNE01.JPG,,,,,,,,,3,8,38,4,,,,,,,,,,,,,,,AFNE04.jpg,AFNE16.jpg,AFSA08.jpg,AFSA20.jpg,AFSA20.jpg,FS,4,num_4,32,num_6,0.950164811919,,,2018_Feb_06_1606,59.9967478861,FEMA4ImagesEEG,001,202906,
AFNE01.JPG,AFNE01.JPG,AFNE01.JPG,AFNE01.JPG,AFNE01.JPG,AFNE01.JPG,,,,,,,,,3,9,39,3,,,,,,,,,,,,,,,AFSA05.jpg,AFSA18.jpg,AFNE14.jpg,AFNE19.jpg,AFNE19.jpg,FN,3,num_4,32,num_8,0.750196693465,,,2018_Feb_06_1606,59.9967478861,FEMA4ImagesEEG,001,202906,
AFNE01.JPG,AFNE01.JPG,AFNE01.JPG,AFNE01.JPG,AFNE01.JPG,AFNE01.JPG,,,,,,,,,4,0,40,5,,,,,,,,,,,,,,,AFNE11.jpg,AFNE09.jpg,AFSA10.jpg,AFSA06.jpg,AFNE09.jpg,FN,3,num_6,32,num_4,0.816794037586,,,2018_Feb_06_1606,59.9967478861,FEMA4ImagesEEG,001,202906,
AFNE01.JPG,AFNE01.JPG,AFNE01.JPG,AFNE01.JPG,AFNE01.JPG,AFNE01.JPG,,,,,,,,,4,1,41,8,,,,,,,,,,,,,,,AFSA14.jpg,AFSA03.jpg,AFNE19.jpg,AFNE06.jpg,AFSA03.jpg,FS,4,num_6,16,num_6,1.04994552257,,,2018_Feb_06_1606,59.9967478861,FEMA4ImagesEEG,001,202906,
AFNE01.JPG,AFNE01.JPG,AFNE01.JPG,AFNE01.JPG,AFNE01.JPG,AFNE01.JPG,,,,,,,,,4,2,42,0,,,,,,,,,,,,,,,AFSA05.jpg,AFNE20.jpg,AFNE13.jpg,AFSA09.jpg,AFNE13.jpg,FN,3,num_2,32,num_4,0.7335358907,,,2018_Feb_06_1606,59.9967478861,FEMA4ImagesEEG,001,202906,
AFNE01.JPG,AFNE01.JPG,AFNE01.JPG,AFNE01.JPG,AFNE01.JPG,AFNE01.JPG,,,,,,,,,4,3,43,9,,,,,,,,,,,,,,,AFSA18.jpg,AFSA16.jpg,AFNE01.jpg,AFNE14.jpg,AFNE14.jpg,FN,3,num_4,16,num_4,1.28342319909,,,2018_Feb_06_1606,59.9967478861,FEMA4ImagesEEG,001,202906,
AFNE01.JPG,AFNE01.JPG,AFNE01.JPG,AFNE01.JPG,AFNE01.JPG,AFNE01.JPG,,,,,,,,,4,4,44,2,,,,,,,,,,,,,,,AFSA05.jpg,AFNE14.jpg,AFNE04.jpg,AFSA10.jpg,AFSA10.jpg,FS,4,num_4,32,num_2,0.883461944526,,,2018_Feb_06_1606,59.9967478861,FEMA4ImagesEEG,001,202906,
AFNE01.JPG,AFNE01.JPG,AFNE01.JPG,AFNE01.JPG,AFNE01.JPG,AFNE01.JPG,,,,,,,,,4,5,45,7,,,,,,,,,,,,,,,AFSA12.jpg,AFNE14.jpg,AFNE06.jpg,AFSA19.jpg,AFNE06.jpg,FN,3,num_2,32,num_4,0.883446228225,,,2018_Feb_06_1606,59.9967478861,FEMA4ImagesEEG,001,202906,
AFNE01.JPG,AFNE01.JPG,AFNE01.JPG,AFNE01.JPG,AFNE01.JPG,AFNE01.JPG,,,,,,,,,4,6,46,4,,,,,,,,,,,,,,,AFSA17.jpg,AFNE09.jpg,AFNE11.jpg,AFSA02.jpg,AFSA02.jpg,FS,4,num_4,32,num_8,1.23343886738,,,2018_Feb_06_1606,59.9967478861,FEMA4ImagesEEG,001,202906,
AFNE01.JPG,AFNE01.JPG,AFNE01.JPG,AFNE01.JPG,AFNE01.JPG,AFNE01.JPG,,,,,,,,,4,7,47,3,,,,,,,,,,,,,,,AFSA19.jpg,AFSA04.jpg,AFNE02.jpg,AFNE12.jpg,AFSA19.jpg,FS,4,num_8,16,num_8,1.06679139147,,,2018_Feb_06_1606,59.9967478861,FEMA4ImagesEEG,001,202906,
AFNE01.JPG,AFNE01.JPG,AFNE01.JPG,AFNE01.JPG,AFNE01.JPG,AFNE01.JPG,,,,,,,,,4,8,48,1,,,,,,,,,,,,,,,AFNE09.jpg,AFSA08.jpg,AFNE16.jpg,AFSA01.jpg,AFNE09.jpg,FN,3,num_8,16,num_8,0.716767961392,,,2018_Feb_06_1606,59.9967478861,FEMA4ImagesEEG,001,202906,
AFNE01.JPG,AFNE01.JPG,AFNE01.JPG,AFNE01.JPG,AFNE01.JPG,AFNE01.JPG,,,,,,,,,4,9,49,6,,,,,,,,,,,,,,,AFSA11.jpg,AFNE20.jpg,AFSA18.jpg,AFNE11.jpg,AFNE20.jpg,FN,3,num_6,16,num_6,0.566806305666,,,2018_Feb_06_1606,59.9967478861,FEMA4ImagesEEG,001,202906,
AFNE01.JPG,AFNE01.JPG,AFNE01.JPG,AFNE01.JPG,AFNE01.JPG,AFNE01.JPG,,,,,,,,,5,0,50,1,,,,,,,,,,,,,,,AFNE15.jpg,AFSA17.jpg,AFSA12.jpg,AFNE16.jpg,AFNE16.jpg,FN,3,num_4,32,num_6,1.05010011885,,,2018_Feb_06_1606,59.9967478861,FEMA4ImagesEEG,001,202906,
AFNE01.JPG,AFNE01.JPG,AFNE01.JPG,AFNE01.JPG,AFNE01.JPG,AFNE01.JPG,,,,,,,,,5,1,51,0,,,,,,,,,,,,,,,AFNE11.jpg,AFSA18.jpg,AFNE03.jpg,AFSA09.jpg,AFSA09.jpg,FS,4,num_4,16,num_4,0.683481317246,,,2018_Feb_06_1606,59.9967478861,FEMA4ImagesEEG,001,202906,
AFNE01.JPG,AFNE01.JPG,AFNE01.JPG,AFNE01.JPG,AFNE01.JPG,AFNE01.JPG,,,,,,,,,5,2,52,7,,,,,,,,,,,,,,,AFNE06.jpg,AFSA16.jpg,AFSA14.jpg,AFNE13.jpg,AFSA16.jpg,FS,4,num_6,16,num_6,0.550203236518,,,2018_Feb_06_1606,59.9967478861,FEMA4ImagesEEG,001,202906,
AFNE01.JPG,AFNE01.JPG,AFNE01.JPG,AFNE01.JPG,AFNE01.JPG,AFNE01.JPG,,,,,,,,,5,3,53,6,,,,,,,,,,,,,,,AFNE09.jpg,AFSA14.jpg,AFNE18.jpg,AFSA20.jpg,AFSA14.jpg,FS,4,num_6,32,num_8,0.700131214457,,,2018_Feb_06_1606,59.9967478861,FEMA4ImagesEEG,001,202906,
AFNE01.JPG,AFNE01.JPG,AFNE01.JPG,AFNE01.JPG,AFNE01.JPG,AFNE01.JPG,,,,,,,,,5,4,54,4,,,,,,,,,,,,,,,AFNE08.jpg,AFSA05.jpg,AFSA16.jpg,AFNE07.jpg,AFSA16.jpg,FS,4,num_2,32,num_8,0.833347713109,,,2018_Feb_06_1606,59.9967478861,FEMA4ImagesEEG,001,202906,
AFNE01.JPG,AFNE01.JPG,AFNE01.JPG,AFNE01.JPG,AFNE01.JPG,AFNE01.JPG,,,,,,,,,5,5,55,8,,,,,,,,,,,,,,,AFNE01.jpg,AFSA20.jpg,AFNE09.jpg,AFSA16.jpg,AFSA20.jpg,FS,4,num_6,32,num_2,0.850132641848,,,2018_Feb_06_1606,59.9967478861,FEMA4ImagesEEG,001,202906,
AFNE01.JPG,AFNE01.JPG,AFNE01.JPG,AFNE01.JPG,AFNE01.JPG,AFNE01.JPG,,,,,,,,,5,6,56,3,,,,,,,,,,,,,,,AFNE13.jpg,AFSA07.jpg,AFNE04.jpg,AFSA15.jpg,AFNE13.jpg,FN,3,num_8,16,num_8,0.900159632089,,,2018_Feb_06_1606,59.9967478861,FEMA4ImagesEEG,001,202906,
AFNE01.JPG,AFNE01.JPG,AFNE01.JPG,AFNE01.JPG,AFNE01.JPG,AFNE01.JPG,,,,,,,,,5,7,57,2,,,,,,,,,,,,,,,AFNE11.jpg,AFSA20.jpg,AFNE17.jpg,AFSA06.jpg,AFNE17.jpg,FN,3,num_2,16,num_2,0.916796058184,,,2018_Feb_06_1606,59.9967478861,FEMA4ImagesEEG,001,202906,
AFNE01.JPG,AFNE01.JPG,AFNE01.JPG,AFNE01.JPG,AFNE01.JPG,AFNE01.JPG,,,,,,,,,5,8,58,5,,,,,,,,,,,,,,,AFSA15.jpg,AFNE13.jpg,AFSA19.jpg,AFNE15.jpg,AFSA15.jpg,FS,4,num_8,32,num_4,0.633338219253,,,2018_Feb_06_1606,59.9967478861,FEMA4ImagesEEG,001,202906,
AFNE01.JPG,AFNE01.JPG,AFNE01.JPG,AFNE01.JPG,AFNE01.JPG,AFNE01.JPG,,,,,,,,,5,9,59,9,,,,,,,,,,,,,,,AFNE02.jpg,AFNE06.jpg,AFSA14.jpg,AFSA17.jpg,AFNE06.jpg,FN,3,num_6,16,num_6,0.666851626243,,,2018_Feb_06_1606,59.9967478861,FEMA4ImagesEEG,001,202906,
,,,,,,,,,,,,,,,,,,,,,,,,,,,,,,,,,,,,,,,,,,,space,10.3330149462,2018_Feb_06_1606,59.9967478861,FEMA4ImagesEEG,001,202906,
AFNE01.JPG,AFNE01.JPG,AFNE01.JPG,AFNE01.JPG,AFNE01.JPG,AFNE01.JPG,,,,,,,,,,,,,0,0,0,9,,,,,,,,,,,AMSA20.jpg,AMNE01.jpg,AMNE07.jpg,AMSA02.jpg,AMNE01.jpg,MN,1,num_6,16,num_6,0.533487908309,,,2018_Feb_06_1606,59.9967478861,FEMA4ImagesEEG,001,202906,
AFNE01.JPG,AFNE01.JPG,AFNE01.JPG,AFNE01.JPG,AFNE01.JPG,AFNE01.JPG,,,,,,,,,,,,,0,1,1,1,,,,,,,,,,,AMNE11.jpg,AMNE04.jpg,AMSA19.jpg,AMSA15.jpg,AMSA19.jpg,MS,2,num_2,32,num_8,0.716808695346,,,2018_Feb_06_1606,59.9967478861,FEMA4ImagesEEG,001,202906,
AFNE01.JPG,AFNE01.JPG,AFNE01.JPG,AFNE01.JPG,AFNE01.JPG,AFNE01.JPG,,,,,,,,,,,,,0,2,2,0,,,,,,,,,,,AMSA13.jpg,AMSA18.jpg,AMNE05.jpg,AMNE08.jpg,AMSA18.jpg,MS,2,num_6,16,num_6,0.783488790272,,,2018_Feb_06_1606,59.9967478861,FEMA4ImagesEEG,001,202906,
AFNE01.JPG,AFNE01.JPG,AFNE01.JPG,AFNE01.JPG,AFNE01.JPG,AFNE01.JPG,,,,,,,,,,,,,0,3,3,4,,,,,,,,,,,AMNE02.jpg,AMNE06.jpg,AMSA07.jpg,AMSA05.jpg,AMSA07.jpg,MS,2,num_2,32,num_8,0.716792016989,,,2018_Feb_06_1606,59.9967478861,FEMA4ImagesEEG,001,202906,
AFNE01.JPG,AFNE01.JPG,AFNE01.JPG,AFNE01.JPG,AFNE01.JPG,AFNE01.JPG,,,,,,,,,,,,,0,4,4,5,,,,,,,,,,,AMSA19.jpg,AMNE05.jpg,AMNE18.jpg,AMSA10.jpg,AMNE05.jpg,MN,1,num_6,32,num_4,0.850212506019,,,2018_Feb_06_1606,59.9967478861,FEMA4ImagesEEG,001,202906,
AFNE01.JPG,AFNE01.JPG,AFNE01.JPG,AFNE01.JPG,AFNE01.JPG,AFNE01.JPG,,,,,,,,,,,,,0,5,5,6,,,,,,,,,,,AMSA19.jpg,AMSA13.jpg,AMNE01.jpg,AMNE13.jpg,AMSA19.jpg,MS,2,num_8,16,num_8,0.933449163102,,,2018_Feb_06_1606,59.9967478861,FEMA4ImagesEEG,001,202906,
AFNE01.JPG,AFNE01.JPG,AFNE01.JPG,AFNE01.JPG,AFNE01.JPG,AFNE01.JPG,,,,,,,,,,,,,0,6,6,8,,,,,,,,,,,AMNE13.jpg,AMNE04.jpg,AMSA07.jpg,AMSA12.jpg,AMSA07.jpg,MS,2,num_2,16,num_2,0.866772275418,,,2018_Feb_06_1606,59.9967478861,FEMA4ImagesEEG,001,202906,
AFNE01.JPG,AFNE01.JPG,AFNE01.JPG,AFNE01.JPG,AFNE01.JPG,AFNE01.JPG,,,,,,,,,,,,,0,7,7,7,,,,,,,,,,,AMNE16.jpg,AMSA17.jpg,AMNE19.jpg,AMSA14.jpg,AMNE16.jpg,MN,1,num_8,16,num_8,0.733461158816,,,2018_Feb_06_1606,59.9967478861,FEMA4ImagesEEG,001,202906,
AFNE01.JPG,AFNE01.JPG,AFNE01.JPG,AFNE01.JPG,AFNE01.JPG,AFNE01.JPG,,,,,,,,,,,,,0,8,8,2,,,,,,,,,,,AMSA07.jpg,AMSA13.jpg,AMNE15.jpg,AMNE17.jpg,AMSA07.jpg,MS,2,num_8,16,num_8,0.850159263005,,,2018_Feb_06_1606,59.9967478861,FEMA4ImagesEEG,001,202906,
AFNE01.JPG,AFNE01.JPG,AFNE01.JPG,AFNE01.JPG,AFNE01.JPG,AFNE01.JPG,,,,,,,,,,,,,0,9,9,3,,,,,,,,,,,AMSA18.jpg,AMNE13.jpg,AMNE05.jpg,AMSA20.jpg,AMSA18.jpg,MS,2,num_8,16,num_8,0.86677804892,,,2018_Feb_06_1606,59.9967478861,FEMA4ImagesEEG,001,202906,
AFNE01.JPG,AFNE01.JPG,AFNE01.JPG,AFNE01.JPG,AFNE01.JPG,AFNE01.JPG,,,,,,,,,,,,,1,0,10,7,,,,,,,,,,,AMSA06.jpg,AMNE04.jpg,AMNE07.jpg,AMSA13.jpg,AMSA13.jpg,MS,2,num_4,16,num_4,0.900403393665,,,2018_Feb_06_1606,59.9967478861,FEMA4ImagesEEG,001,202906,
AFNE01.JPG,AFNE01.JPG,AFNE01.JPG,AFNE01.JPG,AFNE01.JPG,AFNE01.JPG,,,,,,,,,,,,,1,1,11,8,,,,,,,,,,,AMSA12.jpg,AMSA18.jpg,AMNE13.jpg,AMNE18.jpg,AMSA12.jpg,MS,2,num_8,16,num_8,0.633489608066,,,2018_Feb_06_1606,59.9967478861,FEMA4ImagesEEG,001,202906,
AFNE01.JPG,AFNE01.JPG,AFNE01.JPG,AFNE01.JPG,AFNE01.JPG,AFNE01.JPG,,,,,,,,,,,,,1,2,12,3,,,,,,,,,,,AMSA01.jpg,AMNE16.jpg,AMNE10.jpg,AMSA17.jpg,AMSA01.jpg,MS,2,num_8,16,num_8,0.650161957368,,,2018_Feb_06_1606,59.9967478861,FEMA4ImagesEEG,001,202906,
AFNE01.JPG,AFNE01.JPG,AFNE01.JPG,AFNE01.JPG,AFNE01.JPG,AFNE01.JPG,,,,,,,,,,,,,1,3,13,4,,,,,,,,,,,AMNE13.jpg,AMNE17.jpg,AMSA04.jpg,AMSA05.jpg,AMNE13.jpg,MN,1,num_8,32,num_4,0.766836006194,,,2018_Feb_06_1606,59.9967478861,FEMA4ImagesEEG,001,202906,
AFNE01.JPG,AFNE01.JPG,AFNE01.JPG,AFNE01.JPG,AFNE01.JPG,AFNE01.JPG,,,,,,,,,,,,,1,4,14,9,,,,,,,,,,,AMNE13.jpg,AMSA10.jpg,AMSA09.jpg,AMNE07.jpg,AMNE13.jpg,MN,1,num_8,32,num_4,0.766791102709,,,2018_Feb_06_1606,59.9967478861,FEMA4ImagesEEG,001,202906,
AFNE01.JPG,AFNE01.JPG,AFNE01.JPG,AFNE01.JPG,AFNE01.JPG,AFNE01.JPG,,,,,,,,,,,,,1,5,15,1,,,,,,,,,,,AMNE18.jpg,AMSA14.jpg,AMSA08.jpg,AMNE03.jpg,AMSA14.jpg,MS,2,num_6,16,num_6,0.533478606725,,,2018_Feb_06_1606,59.9967478861,FEMA4ImagesEEG,001,202906,
AFNE01.JPG,AFNE01.JPG,AFNE01.JPG,AFNE01.JPG,AFNE01.JPG,AFNE01.JPG,,,,,,,,,,,,,1,6,16,5,,,,,,,,,,,AMNE12.jpg,AMSA17.jpg,AMNE03.jpg,AMSA18.jpg,AMSA18.jpg,MS,2,num_4,32,num_2,0.983453380642,,,2018_Feb_06_1606,59.9967478861,FEMA4ImagesEEG,001,202906,
AFNE01.JPG,AFNE01.JPG,AFNE01.JPG,AFNE01.JPG,AFNE01.JPG,AFNE01.JPG,,,,,,,,,,,,,1,7,17,6,,,,,,,,,,,AMSA19.jpg,AMSA07.jpg,AMNE14.jpg,AMNE05.jpg,AMNE05.jpg,MN,1,num_4,32,num_8,0.616822390817,,,2018_Feb_06_1606,59.9967478861,FEMA4ImagesEEG,001,202906,
AFNE01.JPG,AFNE01.JPG,AFNE01.JPG,AFNE01.JPG,AFNE01.JPG,AFNE01.JPG,,,,,,,,,,,,,1,8,18,2,,,,,,,,,,,AMNE17.jpg,AMSA09.jpg,AMNE05.jpg,AMSA16.jpg,AMNE17.jpg,MN,1,num_8,32,num_4,0.650195314083,,,2018_Feb_06_1606,59.9967478861,FEMA4ImagesEEG,001,202906,
AFNE01.JPG,AFNE01.JPG,AFNE01.JPG,AFNE01.JPG,AFNE01.JPG,AFNE01.JPG,,,,,,,,,,,,,1,9,19,0,,,,,,,,,,,AMSA18.jpg,AMNE08.jpg,AMNE03.jpg,AMSA12.jpg,AMSA18.jpg,MS,2,num_8,32,num_6,0.68316538888,,,2018_Feb_06_1606,59.9967478861,FEMA4ImagesEEG,001,202906,
AFNE01.JPG,AFNE01.JPG,AFNE01.JPG,AFNE01.JPG,AFNE01.JPG,AFNE01.JPG,,,,,,,,,,,,,2,0,20,4,,,,,,,,,,,AMSA05.jpg,AMNE19.jpg,AMNE12.jpg,AMSA01.jpg,AMSA05.jpg,MS,2,num_8,16,num_8,0.650174145587,,,2018_Feb_06_1606,59.9967478861,FEMA4ImagesEEG,001,202906,
AFNE01.JPG,AFNE01.JPG,AFNE01.JPG,AFNE01.JPG,AFNE01.JPG,AFNE01.JPG,,,,,,,,,,,,,2,1,21,2,,,,,,,,,,,AMSA20.jpg,AMSA19.jpg,AMNE13.jpg,AMNE11.jpg,AMSA20.jpg,MS,2,num_8,32,num_6,0.733467573533,,,2018_Feb_06_1606,59.9967478861,FEMA4ImagesEEG,001,202906,
AFNE01.JPG,AFNE01.JPG,AFNE01.JPG,AFNE01.JPG,AFNE01.JPG,AFNE01.JPG,,,,,,,,,,,,,2,2,22,8,,,,,,,,,,,AMSA20.jpg,AMNE11.jpg,AMNE13.jpg,AMSA12.jpg,AMSA12.jpg,MS,2,num_4,32,num_8,0.850191336824,,,2018_Feb_06_1606,59.9967478861,FEMA4ImagesEEG,001,202906,
AFNE01.JPG,AFNE01.JPG,AFNE01.JPG,AFNE01.JPG,AFNE01.JPG,AFNE01.JPG,,,,,,,,,,,,,2,3,23,9,,,,,,,,,,,AMNE06.jpg,AMSA18.jpg,AMSA16.jpg,AMNE08.jpg,AMSA18.jpg,MS,2,num_6,16,num_6,0.450199932791,,,2018_Feb_06_1606,59.9967478861,FEMA4ImagesEEG,001,202906,
AFNE01.JPG,AFNE01.JPG,AFNE01.JPG,AFNE01.JPG,AFNE01.JPG,AFNE01.JPG,,,,,,,,,,,,,2,4,24,7,,,,,,,,,,,AMSA07.jpg,AMNE13.jpg,AMNE15.jpg,AMSA16.jpg,AMNE13.jpg,MN,1,num_6,16,num_6,0.650153297232,,,2018_Feb_06_1606,59.9967478861,FEMA4ImagesEEG,001,202906,
AFNE01.JPG,AFNE01.JPG,AFNE01.JPG,AFNE01.JPG,AFNE01.JPG,AFNE01.JPG,,,,,,,,,,,,,2,5,25,6,,,,,,,,,,,AMSA07.jpg,AMNE12.jpg,AMNE18.jpg,AMSA01.jpg,AMSA01.jpg,MS,2,num_4,16,num_4,0.616778449621,,,2018_Feb_06_1606,59.9967478861,FEMA4ImagesEEG,001,202906,
AFNE01.JPG,AFNE01.JPG,AFNE01.JPG,AFNE01.JPG,AFNE01.JPG,AFNE01.JPG,,,,,,,,,,,,,2,6,26,5,,,,,,,,,,,AMNE06.jpg,AMNE12.jpg,AMSA12.jpg,AMSA01.jpg,AMNE12.jpg,MN,1,num_6,32,num_8,0.633526172489,,,2018_Feb_06_1606,59.9967478861,FEMA4ImagesEEG,001,202906,
AFNE01.JPG,AFNE01.JPG,AFNE01.JPG,AFNE01.JPG,AFNE01.JPG,AFNE01.JPG,,,,,,,,,,,,,2,7,27,0,,,,,,,,,,,AMSA18.jpg,AMNE07.jpg,AMSA12.jpg,AMNE16.jpg,AMNE16.jpg,MN,1,num_4,16,num_4,0.900102219544,,,2018_Feb_06_1606,59.9967478861,FEMA4ImagesEEG,001,202906,
AFNE01.JPG,AFNE01.JPG,AFNE01.JPG,AFNE01.JPG,AFNE01.JPG,AFNE01.JPG,,,,,,,,,,,,,2,8,28,1,,,,,,,,,,,AMNE20.jpg,AMSA05.jpg,AMNE13.jpg,AMSA07.jpg,AMSA05.jpg,MS,2,num_6,32,num_8,0.650134373689,,,2018_Feb_06_1606,59.9967478861,FEMA4ImagesEEG,001,202906,
AFNE01.JPG,AFNE01.JPG,AFNE01.JPG,AFNE01.JPG,AFNE01.JPG,AFNE01.JPG,,,,,,,,,,,,,2,9,29,3,,,,,,,,,,,AMNE02.jpg,AMNE14.jpg,AMSA06.jpg,AMSA05.jpg,AMSA05.jpg,MS,2,num_4,32,num_8,1.06680005137,,,2018_Feb_06_1606,59.9967478861,FEMA4ImagesEEG,001,202906,
AFNE01.JPG,AFNE01.JPG,AFNE01.JPG,AFNE01.JPG,AFNE01.JPG,AFNE01.JPG,,,,,,,,,,,,,3,0,30,6,,,,,,,,,,,AMNE13.jpg,AMSA01.jpg,AMSA07.jpg,AMNE11.jpg,AMNE11.jpg,MN,1,num_4,32,num_8,1.16675652727,,,2018_Feb_06_1606,59.9967478861,FEMA4ImagesEEG,001,202906,
AFNE01.JPG,AFNE01.JPG,AFNE01.JPG,AFNE01.JPG,AFNE01.JPG,AFNE01.JPG,,,,,,,,,,,,,3,1,31,2,,,,,,,,,,,AMSA11.jpg,AMNE06.jpg,AMNE17.jpg,AMSA01.jpg,AMSA01.jpg,MS,2,num_4,16,num_4,0.616903217277,,,2018_Feb_06_1606,59.9967478861,FEMA4ImagesEEG,001,202906,
AFNE01.JPG,AFNE01.JPG,AFNE01.JPG,AFNE01.JPG,AFNE01.JPG,AFNE01.JPG,,,,,,,,,,,,,3,2,32,7,,,,,,,,,,,AMSA16.jpg,AMNE10.jpg,AMNE14.jpg,AMSA02.jpg,AMNE14.jpg,MN,1,num_2,32,num_4,0.733476874884,,,2018_Feb_06_1606,59.9967478861,FEMA4ImagesEEG,001,202906,
AFNE01.JPG,AFNE01.JPG,AFNE01.JPG,AFNE01.JPG,AFNE01.JPG,AFNE01.JPG,,,,,,,,,,,,,3,3,33,4,,,,,,,,,,,AMSA19.jpg,AMNE20.jpg,AMNE12.jpg,AMSA08.jpg,AMNE20.jpg,MN,1,num_6,32,num_8,0.750164940022,,,2018_Feb_06_1606,59.9967478861,FEMA4ImagesEEG,001,202906,
AFNE01.JPG,AFNE01.JPG,AFNE01.JPG,AFNE01.JPG,AFNE01.JPG,AFNE01.JPG,,,,,,,,,,,,,3,4,34,8,,,,,,,,,,,AMSA01.jpg,AMNE08.jpg,AMSA13.jpg,AMNE06.jpg,AMNE06.jpg,MN,1,num_4,16,num_4,0.850100567797,,,2018_Feb_06_1606,59.9967478861,FEMA4ImagesEEG,001,202906,
AFNE01.JPG,AFNE01.JPG,AFNE01.JPG,AFNE01.JPG,AFNE01.JPG,AFNE01.JPG,,,,,,,,,,,,,3,5,35,9,,,,,,,,,,,AMNE20.jpg,AMNE10.jpg,AMSA05.jpg,AMSA08.jpg,AMNE20.jpg,MN,1,num_8,32,num_2,0.583497578511,,,2018_Feb_06_1606,59.9967478861,FEMA4ImagesEEG,001,202906,
AFNE01.JPG,AFNE01.JPG,AFNE01.JPG,AFNE01.JPG,AFNE01.JPG,AFNE01.JPG,,,,,,,,,,,,,3,6,36,3,,,,,,,,,,,AMSA17.jpg,AMNE06.jpg,AMNE14.jpg,AMSA08.jpg,AMNE14.jpg,MN,1,num_2,16,num_2,0.95011605951,,,2018_Feb_06_1606,59.9967478861,FEMA4ImagesEEG,001,202906,
AFNE01.JPG,AFNE01.JPG,AFNE01.JPG,AFNE01.JPG,AFNE01.JPG,AFNE01.JPG,,,,,,,,,,,,,3,7,37,1,,,,,,,,,,,AMNE20.jpg,AMNE08.jpg,AMSA01.jpg,AMSA09.jpg,AMSA09.jpg,MS,2,num_4,32,num_6,0.933466482908,,,2018_Feb_06_1606,59.9967478861,FEMA4ImagesEEG,001,202906,
AFNE01.JPG,AFNE01.JPG,AFNE01.JPG,AFNE01.JPG,AFNE01.JPG,AFNE01.JPG,,,,,,,,,,,,,3,8,38,0,,,,,,,,,,,AMNE04.jpg,AMNE20.jpg,AMSA08.jpg,AMSA12.jpg,AMSA12.jpg,MS,2,num_4,16,num_4,0.700171306962,,,2018_Feb_06_1606,59.9967478861,FEMA4ImagesEEG,001,202906,
AFNE01.JPG,AFNE01.JPG,AFNE01.JPG,AFNE01.JPG,AFNE01.JPG,AFNE01.JPG,,,,,,,,,,,,,3,9,39,5,,,,,,,,,,,AMSA10.jpg,AMNE17.jpg,AMSA12.jpg,AMNE06.jpg,AMNE17.jpg,MN,1,num_6,32,num_8,0.766812271671,,,2018_Feb_06_1606,59.9967478861,FEMA4ImagesEEG,001,202906,
AFNE01.JPG,AFNE01.JPG,AFNE01.JPG,AFNE01.JPG,AFNE01.JPG,AFNE01.JPG,,,,,,,,,,,,,4,0,40,6,,,,,,,,,,,AMNE16.jpg,AMSA06.jpg,AMSA03.jpg,AMNE02.jpg,AMSA06.jpg,MS,2,num_6,16,num_6,0.73345730966,,,2018_Feb_06_1606,59.9967478861,FEMA4ImagesEEG,001,202906,
AFNE01.JPG,AFNE01.JPG,AFNE01.JPG,AFNE01.JPG,AFNE01.JPG,AFNE01.JPG,,,,,,,,,,,,,4,1,41,7,,,,,,,,,,,AMSA02.jpg,AMNE17.jpg,AMNE02.jpg,AMSA20.jpg,AMSA20.jpg,MS,2,num_4,32,num_8,0.833458689041,,,2018_Feb_06_1606,59.9967478861,FEMA4ImagesEEG,001,202906,
AFNE01.JPG,AFNE01.JPG,AFNE01.JPG,AFNE01.JPG,AFNE01.JPG,AFNE01.JPG,,,,,,,,,,,,,4,2,42,0,,,,,,,,,,,AMSA20.jpg,AMSA17.jpg,AMNE17.jpg,AMNE10.jpg,AMSA20.jpg,MS,2,num_8,16,num_8,1.15009412076,,,2018_Feb_06_1606,59.9967478861,FEMA4ImagesEEG,001,202906,
AFNE01.JPG,AFNE01.JPG,AFNE01.JPG,AFNE01.JPG,AFNE01.JPG,AFNE01.JPG,,,,,,,,,,,,,4,3,43,8,,,,,,,,,,,AMSA09.jpg,AMSA17.jpg,AMNE08.jpg,AMNE16.jpg,AMSA17.jpg,MS,2,num_6,16,num_6,0.750175524503,,,2018_Feb_06_1606,59.9967478861,FEMA4ImagesEEG,001,202906,
AFNE01.JPG,AFNE01.JPG,AFNE01.JPG,AFNE01.JPG,AFNE01.JPG,AFNE01.JPG,,,,,,,,,,,,,4,4,44,5,,,,,,,,,,,AMNE11.jpg,AMNE05.jpg,AMSA05.jpg,AMSA10.jpg,AMSA10.jpg,MS,2,num_4,32,num_2,0.650155221811,,,2018_Feb_06_1606,59.9967478861,FEMA4ImagesEEG,001,202906,
AFNE01.JPG,AFNE01.JPG,AFNE01.JPG,AFNE01.JPG,AFNE01.JPG,AFNE01.JPG,,,,,,,,,,,,,4,5,45,3,,,,,,,,,,,AMNE11.jpg,AMNE17.jpg,AMSA01.jpg,AMSA17.jpg,AMNE17.jpg,MN,1,num_6,32,num_8,0.650192106841,,,2018_Feb_06_1606,59.9967478861,FEMA4ImagesEEG,001,202906,
AFNE01.JPG,AFNE01.JPG,AFNE01.JPG,AFNE01.JPG,AFNE01.JPG,AFNE01.JPG,,,,,,,,,,,,,4,6,46,9,,,,,,,,,,,AMNE07.jpg,AMNE09.jpg,AMSA07.jpg,AMSA05.jpg,AMSA05.jpg,MS,2,num_4,16,num_4,0.566894509131,,,2018_Feb_06_1606,59.9967478861,FEMA4ImagesEEG,001,202906,
AFNE01.JPG,AFNE01.JPG,AFNE01.JPG,AFNE01.JPG,AFNE01.JPG,AFNE01.JPG,,,,,,,,,,,,,4,7,47,1,,,,,,,,,,,AMNE18.jpg,AMSA19.jpg,AMNE16.jpg,AMSA08.jpg,AMNE16.jpg,MN,1,num_2,32,num_6,0.550168596674,,,2018_Feb_06_1606,59.9967478861,FEMA4ImagesEEG,001,202906,
AFNE01.JPG,AFNE01.JPG,AFNE01.JPG,AFNE01.JPG,AFNE01.JPG,AFNE01.JPG,,,,,,,,,,,,,4,8,48,2,,,,,,,,,,,AMNE01.jpg,AMNE04.jpg,AMSA10.jpg,AMSA17.jpg,AMSA10.jpg,MS,2,num_2,32,num_8,0.566652671667,,,2018_Feb_06_1606,59.9967478861,FEMA4ImagesEEG,001,202906,
AFNE01.JPG,AFNE01.JPG,AFNE01.JPG,AFNE01.JPG,AFNE01.JPG,AFNE01.JPG,,,,,,,,,,,,,4,9,49,4,,,,,,,,,,,AMSA05.jpg,AMNE03.jpg,AMSA13.jpg,AMNE04.jpg,AMNE03.jpg,MN,1,num_6,32,num_8,0.583465825301,,,2018_Feb_06_1606,59.9967478861,FEMA4ImagesEEG,001,202906,
AFNE01.JPG,AFNE01.JPG,AFNE01.JPG,AFNE01.JPG,AFNE01.JPG,AFNE01.JPG,,,,,,,,,,,,,5,0,50,7,,,,,,,,,,,AMSA12.jpg,AMNE17.jpg,AMNE03.jpg,AMSA06.jpg,AMNE03.jpg,MN,1,num_2,16,num_2,0.583486352814,,,2018_Feb_06_1606,59.9967478861,FEMA4ImagesEEG,001,202906,
AFNE01.JPG,AFNE01.JPG,AFNE01.JPG,AFNE01.JPG,AFNE01.JPG,AFNE01.JPG,,,,,,,,,,,,,5,1,51,6,,,,,,,,,,,AMNE01.jpg,AMSA07.jpg,AMSA18.jpg,AMNE16.jpg,AMSA07.jpg,MS,2,num_6,16,num_6,0.850223411107,,,2018_Feb_06_1606,59.9967478861,FEMA4ImagesEEG,001,202906,
AFNE01.JPG,AFNE01.JPG,AFNE01.JPG,AFNE01.JPG,AFNE01.JPG,AFNE01.JPG,,,,,,,,,,,,,5,2,52,1,,,,,,,,,,,AMNE14.jpg,AMNE11.jpg,AMSA07.jpg,AMSA20.jpg,AMSA20.jpg,MS,2,num_4,16,num_4,0.633482872741,,,2018_Feb_06_1606,59.9967478861,FEMA4ImagesEEG,001,202906,
AFNE01.JPG,AFNE01.JPG,AFNE01.JPG,AFNE01.JPG,AFNE01.JPG,AFNE01.JPG,,,,,,,,,,,,,5,3,53,3,,,,,,,,,,,AMNE05.jpg,AMSA14.jpg,AMSA10.jpg,AMNE18.jpg,AMNE18.jpg,MN,1,num_4,32,num_8,0.550152238924,,,2018_Feb_06_1606,59.9967478861,FEMA4ImagesEEG,001,202906,
AFNE01.JPG,AFNE01.JPG,AFNE01.JPG,AFNE01.JPG,AFNE01.JPG,AFNE01.JPG,,,,,,,,,,,,,5,4,54,0,,,,,,,,,,,AMSA10.jpg,AMNE08.jpg,AMNE15.jpg,AMSA04.jpg,AMNE15.jpg,MN,1,num_2,32,num_4,0.716776621528,,,2018_Feb_06_1606,59.9967478861,FEMA4ImagesEEG,001,202906,
AFNE01.JPG,AFNE01.JPG,AFNE01.JPG,AFNE01.JPG,AFNE01.JPG,AFNE01.JPG,,,,,,,,,,,,,5,5,55,5,,,,,,,,,,,AMSA12.jpg,AMNE18.jpg,AMNE15.jpg,AMSA18.jpg,AMSA12.jpg,MS,2,num_8,16,num_8,0.616787109757,,,2018_Feb_06_1606,59.9967478861,FEMA4ImagesEEG,001,202906,
AFNE01.JPG,AFNE01.JPG,AFNE01.JPG,AFNE01.JPG,AFNE01.JPG,AFNE01.JPG,,,,,,,,,,,,,5,6,56,9,,,,,,,,,,,AMNE16.jpg,AMSA06.jpg,AMSA17.jpg,AMNE17.jpg,AMNE17.jpg,MN,1,num_4,32,num_2,0.650156183867,,,2018_Feb_06_1606,59.9967478861,FEMA4ImagesEEG,001,202906,
AFNE01.JPG,AFNE01.JPG,AFNE01.JPG,AFNE01.JPG,AFNE01.JPG,AFNE01.JPG,,,,,,,,,,,,,5,7,57,8,,,,,,,,,,,AMNE09.jpg,AMSA17.jpg,AMNE02.jpg,AMSA13.jpg,AMNE02.jpg,MN,1,num_2,16,num_2,1.00018217997,,,2018_Feb_06_1606,59.9967478861,FEMA4ImagesEEG,001,202906,
AFNE01.JPG,AFNE01.JPG,AFNE01.JPG,AFNE01.JPG,AFNE01.JPG,AFNE01.JPG,,,,,,,,,,,,,5,8,58,4,,,,,,,,,,,AMSA07.jpg,AMNE20.jpg,AMNE08.jpg,AMSA15.jpg,AMNE20.jpg,MN,1,num_6,16,num_6,0.66679485538,,,2018_Feb_06_1606,59.9967478861,FEMA4ImagesEEG,001,202906,
AFNE01.JPG,AFNE01.JPG,AFNE01.JPG,AFNE01.JPG,AFNE01.JPG,AFNE01.JPG,,,,,,,,,,,,,5,9,59,2,,,,,,,,,,,AMNE17.jpg,AMSA11.jpg,AMNE01.jpg,AMSA20.jpg,AMSA11.jpg,MS,2,num_6,32,num_2,0.583481220761,,,2018_Feb_06_1606,59.9967478861,FEMA4ImagesEEG,001,202906,
,,,,,,,,,,,,,,,,,,,,,,,,,,,,,,,,,,,,,,,,,,,space,11.099320129,2018_Feb_06_1606,59.9967478861,FEMA4ImagesEEG,001,202906,
AFNE01.JPG,AFNE01.JPG,AFNE01.JPG,AFNE01.JPG,AFNE01.JPG,AFNE01.JPG,,,,,,,,,,,,,,,,,0,0,0,8,,,,,,,AFNE06.jpg,AFSA05.jpg,AFNE20.jpg,AFSA11.jpg,AFNE06.jpg,FN,3,num_8,32,num_6,0.533523189602,,,2018_Feb_06_1606,59.9967478861,FEMA4ImagesEEG,001,202906,
AFNE01.JPG,AFNE01.JPG,AFNE01.JPG,AFNE01.JPG,AFNE01.JPG,AFNE01.JPG,,,,,,,,,,,,,,,,,0,1,1,5,,,,,,,AFSA13.jpg,AFNE17.jpg,AFNE19.jpg,AFSA06.jpg,AFSA06.jpg,FS,4,num_4,32,num_6,0.566776156193,,,2018_Feb_06_1606,59.9967478861,FEMA4ImagesEEG,001,202906,
AFNE01.JPG,AFNE01.JPG,AFNE01.JPG,AFNE01.JPG,AFNE01.JPG,AFNE01.JPG,,,,,,,,,,,,,,,,,0,2,2,7,,,,,,,AFNE01.jpg,AFSA20.jpg,AFNE14.jpg,AFSA17.jpg,AFSA17.jpg,FS,4,num_4,16,num_4,0.666798704304,,,2018_Feb_06_1606,59.9967478861,FEMA4ImagesEEG,001,202906,
AFNE01.JPG,AFNE01.JPG,AFNE01.JPG,AFNE01.JPG,AFNE01.JPG,AFNE01.JPG,,,,,,,,,,,,,,,,,0,3,3,4,,,,,,,AFSA17.jpg,AFNE04.jpg,AFSA01.jpg,AFNE15.jpg,AFNE15.jpg,FN,3,num_4,16,num_4,0.583493408747,,,2018_Feb_06_1606,59.9967478861,FEMA4ImagesEEG,001,202906,
AFNE01.JPG,AFNE01.JPG,AFNE01.JPG,AFNE01.JPG,AFNE01.JPG,AFNE01.JPG,,,,,,,,,,,,,,,,,0,4,4,9,,,,,,,AFNE18.jpg,AFSA20.jpg,AFNE03.jpg,AFSA08.jpg,AFSA20.jpg,FS,4,num_6,16,num_6,0.683535842691,,,2018_Feb_06_1606,59.9967478861,FEMA4ImagesEEG,001,202906,
AFNE01.JPG,AFNE01.JPG,AFNE01.JPG,AFNE01.JPG,AFNE01.JPG,AFNE01.JPG,,,,,,,,,,,,,,,,,0,5,5,2,,,,,,,AFSA20.jpg,AFNE16.jpg,AFSA15.jpg,AFNE09.jpg,AFSA15.jpg,FS,4,num_2,32,num_4,0.783467300702,,,2018_Feb_06_1606,59.9967478861,FEMA4ImagesEEG,001,202906,
AFNE01.JPG,AFNE01.JPG,AFNE01.JPG,AFNE01.JPG,AFNE01.JPG,AFNE01.JPG,,,,,,,,,,,,,,,,,0,6,6,6,,,,,,,AFNE04.jpg,AFSA17.jpg,AFNE08.jpg,AFSA13.jpg,AFSA17.jpg,FS,4,num_6,16,num_6,0.766811950831,,,2018_Feb_06_1606,59.9967478861,FEMA4ImagesEEG,001,202906,
AFNE01.JPG,AFNE01.JPG,AFNE01.JPG,AFNE01.JPG,AFNE01.JPG,AFNE01.JPG,,,,,,,,,,,,,,,,,0,7,7,0,,,,,,,AFNE20.jpg,AFSA07.jpg,AFNE07.jpg,AFSA01.jpg,AFSA07.jpg,FS,4,num_6,16,num_6,0.550139730098,,,2018_Feb_06_1606,59.9967478861,FEMA4ImagesEEG,001,202906,
AFNE01.JPG,AFNE01.JPG,AFNE01.JPG,AFNE01.JPG,AFNE01.JPG,AFNE01.JPG,,,,,,,,,,,,,,,,,0,8,8,3,,,,,,,AFSA05.jpg,AFNE16.jpg,AFNE08.jpg,AFSA19.jpg,AFNE08.jpg,FN,3,num_2,32,num_6,0.766792706447,,,2018_Feb_06_1606,59.9967478861,FEMA4ImagesEEG,001,202906,
AFNE01.JPG,AFNE01.JPG,AFNE01.JPG,AFNE01.JPG,AFNE01.JPG,AFNE01.JPG,,,,,,,,,,,,,,,,,0,9,9,1,,,,,,,AFSA13.jpg,AFNE04.jpg,AFSA12.jpg,AFNE07.jpg,AFSA13.jpg,FS,4,num_8,32,num_2,0.983467814047,,,2018_Feb_06_1606,59.9967478861,FEMA4ImagesEEG,001,202906,
AFNE01.JPG,AFNE01.JPG,AFNE01.JPG,AFNE01.JPG,AFNE01.JPG,AFNE01.JPG,,,,,,,,,,,,,,,,,1,0,10,0,,,,,,,AFNE09.jpg,AFSA16.jpg,AFSA02.jpg,AFNE14.jpg,AFSA02.jpg,FS,4,num_2,32,num_6,0.633298447588,,,2018_Feb_06_1606,59.9967478861,FEMA4ImagesEEG,001,202906,
AFNE01.JPG,AFNE01.JPG,AFNE01.JPG,AFNE01.JPG,AFNE01.JPG,AFNE01.JPG,,,,,,,,,,,,,,,,,1,1,11,9,,,,,,,AFSA18.jpg,AFNE19.jpg,AFSA11.jpg,AFNE03.jpg,AFNE19.jpg,FN,3,num_6,32,num_2,0.583482503891,,,2018_Feb_06_1606,59.9967478861,FEMA4ImagesEEG,001,202906,
AFNE01.JPG,AFNE01.JPG,AFNE01.JPG,AFNE01.JPG,AFNE01.JPG,AFNE01.JPG,,,,,,,,,,,,,,,,,1,2,12,4,,,,,,,AFSA16.jpg,AFSA10.jpg,AFNE19.jpg,AFNE09.jpg,AFNE09.jpg,FN,3,num_4,16,num_4,0.866774841445,,,2018_Feb_06_1606,59.9967478861,FEMA4ImagesEEG,001,202906,
AFNE01.JPG,AFNE01.JPG,AFNE01.JPG,AFNE01.JPG,AFNE01.JPG,AFNE01.JPG,,,,,,,,,,,,,,,,,1,3,13,6,,,,,,,AFNE05.jpg,AFSA14.jpg,AFSA16.jpg,AFNE08.jpg,AFNE05.jpg,FN,3,num_8,32,num_2,0.883440134116,,,2018_Feb_06_1606,59.9967478861,FEMA4ImagesEEG,001,202906,
AFNE01.JPG,AFNE01.JPG,AFNE01.JPG,AFNE01.JPG,AFNE01.JPG,AFNE01.JPG,,,,,,,,,,,,,,,,,1,4,14,2,,,,,,,AFNE14.jpg,AFNE05.jpg,AFSA04.jpg,AFSA03.jpg,AFNE05.jpg,FN,3,num_6,16,num_6,0.683448601747,,,2018_Feb_06_1606,59.9967478861,FEMA4ImagesEEG,001,202906,
AFNE01.JPG,AFNE01.JPG,AFNE01.JPG,AFNE01.JPG,AFNE01.JPG,AFNE01.JPG,,,,,,,,,,,,,,,,,1,5,15,3,,,,,,,AFNE17.jpg,AFNE13.jpg,AFSA12.jpg,AFSA02.jpg,AFNE13.jpg,FN,3,num_6,16,num_6,0.883432115894,,,2018_Feb_06_1606,59.9967478861,FEMA4ImagesEEG,001,202906,
AFNE01.JPG,AFNE01.JPG,AFNE01.JPG,AFNE01.JPG,AFNE01.JPG,AFNE01.JPG,,,,,,,,,,,,,,,,,1,6,16,1,,,,,,,AFSA20.jpg,AFNE19.jpg,AFSA15.jpg,AFNE16.jpg,AFSA15.jpg,FS,4,num_2,16,num_2,0.866818782641,,,2018_Feb_06_1606,59.9967478861,FEMA4ImagesEEG,001,202906,
AFNE01.JPG,AFNE01.JPG,AFNE01.JPG,AFNE01.JPG,AFNE01.JPG,AFNE01.JPG,,,,,,,,,,,,,,,,,1,7,17,8,,,,,,,AFSA20.jpg,AFSA08.jpg,AFNE08.jpg,AFNE05.jpg,AFNE05.jpg,FN,3,num_4,16,num_4,1.05012385361,,,2018_Feb_06_1606,59.9967478861,FEMA4ImagesEEG,001,202906,
AFNE01.JPG,AFNE01.JPG,AFNE01.JPG,AFNE01.JPG,AFNE01.JPG,AFNE01.JPG,,,,,,,,,,,,,,,,,1,8,18,5,,,,,,,AFSA16.jpg,AFNE13.jpg,AFSA19.jpg,AFNE02.jpg,AFSA16.jpg,FS,4,num_8,32,num_6,0.650206860621,,,2018_Feb_06_1606,59.9967478861,FEMA4ImagesEEG,001,202906,
AFNE01.JPG,AFNE01.JPG,AFNE01.JPG,AFNE01.JPG,AFNE01.JPG,AFNE01.JPG,,,,,,,,,,,,,,,,,1,9,19,7,,,,,,,AFSA10.jpg,AFNE02.jpg,AFNE04.jpg,AFSA13.jpg,AFSA10.jpg,FS,4,num_8,32,num_2,0.750193806831,,,2018_Feb_06_1606,59.9967478861,FEMA4ImagesEEG,001,202906,
AFNE01.JPG,AFNE01.JPG,AFNE01.JPG,AFNE01.JPG,AFNE01.JPG,AFNE01.JPG,,,,,,,,,,,,,,,,,2,0,20,8,,,,,,,AFNE01.jpg,AFSA10.jpg,AFSA09.jpg,AFNE14.jpg,AFSA09.jpg,FS,4,num_2,16,num_2,0.950108040823,,,2018_Feb_06_1606,59.9967478861,FEMA4ImagesEEG,001,202906,
AFNE01.JPG,AFNE01.JPG,AFNE01.JPG,AFNE01.JPG,AFNE01.JPG,AFNE01.JPG,,,,,,,,,,,,,,,,,2,1,21,6,,,,,,,AFSA20.jpg,AFSA16.jpg,AFNE04.jpg,AFNE14.jpg,AFSA16.jpg,FS,4,num_6,16,num_6,0.683497033315,,,2018_Feb_06_1606,59.9967478861,FEMA4ImagesEEG,001,202906,
AFNE01.JPG,AFNE01.JPG,AFNE01.JPG,AFNE01.JPG,AFNE01.JPG,AFNE01.JPG,,,,,,,,,,,,,,,,,2,2,22,0,,,,,,,AFSA02.jpg,AFNE19.jpg,AFNE18.jpg,AFSA17.jpg,AFSA17.jpg,FS,4,num_4,16,num_4,0.450215007411,,,2018_Feb_06_1606,59.9967478861,FEMA4ImagesEEG,001,202906,
AFNE01.JPG,AFNE01.JPG,AFNE01.JPG,AFNE01.JPG,AFNE01.JPG,AFNE01.JPG,,,,,,,,,,,,,,,,,2,3,23,2,,,,,,,AFNE11.jpg,AFSA06.jpg,AFSA07.jpg,AFNE15.jpg,AFSA06.jpg,FS,4,num_6,32,num_8,0.716775017558,,,2018_Feb_06_1606,59.9967478861,FEMA4ImagesEEG,001,202906,
AFNE01.JPG,AFNE01.JPG,AFNE01.JPG,AFNE01.JPG,AFNE01.JPG,AFNE01.JPG,,,,,,,,,,,,,,,,,2,4,24,9,,,,,,,AFSA13.jpg,AFNE08.jpg,AFSA20.jpg,AFNE01.jpg,AFSA13.jpg,FS,4,num_8,16,num_8,0.550184954423,,,2018_Feb_06_1606,59.9967478861,FEMA4ImagesEEG,001,202906,
AFNE01.JPG,AFNE01.JPG,AFNE01.JPG,AFNE01.JPG,AFNE01.JPG,AFNE01.JPG,,,,,,,,,,,,,,,,,2,5,25,5,,,,,,,AFNE02.jpg,AFSA01.jpg,AFNE06.jpg,AFSA02.jpg,AFSA02.jpg,FS,4,num_4,32,num_6,0.666825004853,,,2018_Feb_06_1606,59.9967478861,FEMA4ImagesEEG,001,202906,
AFNE01.JPG,AFNE01.JPG,AFNE01.JPG,AFNE01.JPG,AFNE01.JPG,AFNE01.JPG,,,,,,,,,,,,,,,,,2,6,26,7,,,,,,,AFNE16.jpg,AFSA02.jpg,AFNE08.jpg,AFSA08.jpg,AFNE16.jpg,FN,3,num_8,16,num_8,0.766841458855,,,2018_Feb_06_1606,59.9967478861,FEMA4ImagesEEG,001,202906,
AFNE01.JPG,AFNE01.JPG,AFNE01.JPG,AFNE01.JPG,AFNE01.JPG,AFNE01.JPG,,,,,,,,,,,,,,,,,2,7,27,4,,,,,,,AFSA04.jpg,AFNE02.jpg,AFNE04.jpg,AFSA10.jpg,AFNE02.jpg,FN,3,num_6,32,num_2,0.837067647604,,,2018_Feb_06_1606,59.9967478861,FEMA4ImagesEEG,001,202906,
AFNE01.JPG,AFNE01.JPG,AFNE01.JPG,AFNE01.JPG,AFNE01.JPG,AFNE01.JPG,,,,,,,,,,,,,,,,,2,8,28,1,,,,,,,AFSA10.jpg,AFSA01.jpg,AFNE05.jpg,AFNE08.jpg,AFNE08.jpg,FN,3,num_4,32,num_8,0.900158669567,,,2018_Feb_06_1606,59.9967478861,FEMA4ImagesEEG,001,202906,
AFNE01.JPG,AFNE01.JPG,AFNE01.JPG,AFNE01.JPG,AFNE01.JPG,AFNE01.JPG,,,,,,,,,,,,,,,,,2,9,29,3,,,,,,,AFNE08.jpg,AFNE18.jpg,AFSA01.jpg,AFSA18.jpg,AFNE08.jpg,FN,3,num_8,32,num_4,0.666930848965,,,2018_Feb_06_1606,59.9967478861,FEMA4ImagesEEG,001,202906,
AFNE01.JPG,AFNE01.JPG,AFNE01.JPG,AFNE01.JPG,AFNE01.JPG,AFNE01.JPG,,,,,,,,,,,,,,,,,3,0,30,0,,,,,,,AFNE07.jpg,AFSA09.jpg,AFSA12.jpg,AFNE17.jpg,AFNE17.jpg,FN,3,num_4,32,num_6,0.583441449096,,,2018_Feb_06_1606,59.9967478861,FEMA4ImagesEEG,001,202906,
AFNE01.JPG,AFNE01.JPG,AFNE01.JPG,AFNE01.JPG,AFNE01.JPG,AFNE01.JPG,,,,,,,,,,,,,,,,,3,1,31,4,,,,,,,AFNE17.jpg,AFSA03.jpg,AFSA08.jpg,AFNE15.jpg,AFSA08.jpg,FS,4,num_2,32,num_6,0.750116187846,,,2018_Feb_06_1606,59.9967478861,FEMA4ImagesEEG,001,202906,
AFNE01.JPG,AFNE01.JPG,AFNE01.JPG,AFNE01.JPG,AFNE01.JPG,AFNE01.JPG,,,,,,,,,,,,,,,,,3,2,32,7,,,,,,,AFSA12.jpg,AFNE17.jpg,AFSA06.jpg,AFNE15.jpg,AFNE15.jpg,FN,3,num_4,32,num_8,0.899988998659,,,2018_Feb_06_1606,59.9967478861,FEMA4ImagesEEG,001,202906,
AFNE01.JPG,AFNE01.JPG,AFNE01.JPG,AFNE01.JPG,AFNE01.JPG,AFNE01.JPG,,,,,,,,,,,,,,,,,3,3,33,9,,,,,,,AFNE16.jpg,AFSA17.jpg,AFNE15.jpg,AFSA09.jpg,AFSA09.jpg,FS,4,num_4,16,num_4,0.833501347341,,,2018_Feb_06_1606,59.9967478861,FEMA4ImagesEEG,001,202906,
AFNE01.JPG,AFNE01.JPG,AFNE01.JPG,AFNE01.JPG,AFNE01.JPG,AFNE01.JPG,,,,,,,,,,,,,,,,,3,4,34,3,,,,,,,AFSA04.jpg,AFSA16.jpg,AFNE11.jpg,AFNE12.jpg,AFNE12.jpg,FN,3,num_4,16,num_4,0.966953589348,,,2018_Feb_06_1606,59.9967478861,FEMA4ImagesEEG,001,202906,
AFNE01.JPG,AFNE01.JPG,AFNE01.JPG,AFNE01.JPG,AFNE01.JPG,AFNE01.JPG,,,,,,,,,,,,,,,,,3,5,35,2,,,,,,,AFNE20.jpg,AFSA03.jpg,AFNE14.jpg,AFSA11.jpg,AFSA11.jpg,FS,4,num_4,16,num_4,0.716755131725,,,2018_Feb_06_1606,59.9967478861,FEMA4ImagesEEG,001,202906,
AFNE01.JPG,AFNE01.JPG,AFNE01.JPG,AFNE01.JPG,AFNE01.JPG,AFNE01.JPG,,,,,,,,,,,,,,,,,3,6,36,8,,,,,,,AFSA14.jpg,AFNE13.jpg,AFSA03.jpg,AFNE11.jpg,AFSA03.jpg,FS,4,num_2,32,num_8,0.833469593897,,,2018_Feb_06_1606,59.9967478861,FEMA4ImagesEEG,001,202906,
AFNE01.JPG,AFNE01.JPG,AFNE01.JPG,AFNE01.JPG,AFNE01.JPG,AFNE01.JPG,,,,,,,,,,,,,,,,,3,7,37,1,,,,,,,AFSA05.jpg,AFNE16.jpg,AFSA16.jpg,AFNE04.jpg,AFNE16.jpg,FN,3,num_6,32,num_8,0.833401276497,,,2018_Feb_06_1606,59.9967478861,FEMA4ImagesEEG,001,202906,
AFNE01.JPG,AFNE01.JPG,AFNE01.JPG,AFNE01.JPG,AFNE01.JPG,AFNE01.JPG,,,,,,,,,,,,,,,,,3,8,38,6,,,,,,,AFNE20.jpg,AFNE08.jpg,AFSA07.jpg,AFSA11.jpg,AFSA07.jpg,FS,4,num_2,32,num_8,0.866616716841,,,2018_Feb_06_1606,59.9967478861,FEMA4ImagesEEG,001,202906,
AFNE01.JPG,AFNE01.JPG,AFNE01.JPG,AFNE01.JPG,AFNE01.JPG,AFNE01.JPG,,,,,,,,,,,,,,,,,3,9,39,5,,,,,,,AFNE09.jpg,AFNE12.jpg,AFSA10.jpg,AFSA14.jpg,AFSA10.jpg,FS,4,num_2,16,num_2,0.883477981435,,,2018_Feb_06_1606,59.9967478861,FEMA4ImagesEEG,001,202906,
AFNE01.JPG,AFNE01.JPG,AFNE01.JPG,AFNE01.JPG,AFNE01.JPG,AFNE01.JPG,,,,,,,,,,,,,,,,,4,0,40,2,,,,,,,AFSA14.jpg,AFSA15.jpg,AFNE11.jpg,AFNE06.jpg,AFNE06.jpg,FN,3,num_4,32,num_8,0.766915549757,,,2018_Feb_06_1606,59.9967478861,FEMA4ImagesEEG,001,202906,
AFNE01.JPG,AFNE01.JPG,AFNE01.JPG,AFNE01.JPG,AFNE01.JPG,AFNE01.JPG,,,,,,,,,,,,,,,,,4,1,41,3,,,,,,,AFNE04.jpg,AFSA12.jpg,AFSA01.jpg,AFNE06.jpg,AFSA01.jpg,FS,4,num_2,16,num_2,0.98332861322,,,2018_Feb_06_1606,59.9967478861,FEMA4ImagesEEG,001,202906,
AFNE01.JPG,AFNE01.JPG,AFNE01.JPG,AFNE01.JPG,AFNE01.JPG,AFNE01.JPG,,,,,,,,,,,,,,,,,4,2,42,7,,,,,,,AFSA02.jpg,AFNE01.jpg,AFNE09.jpg,AFSA08.jpg,AFNE09.jpg,FN,3,num_2,32,num_8,0.766819327837,,,2018_Feb_06_1606,59.9967478861,FEMA4ImagesEEG,001,202906,
AFNE01.JPG,AFNE01.JPG,AFNE01.JPG,AFNE01.JPG,AFNE01.JPG,AFNE01.JPG,,,,,,,,,,,,,,,,,4,3,43,0,,,,,,,AFNE07.jpg,AFSA08.jpg,AFSA04.jpg,AFNE01.jpg,AFNE07.jpg,FN,3,num_8,16,num_8,0.666768234223,,,2018_Feb_06_1606,59.9967478861,FEMA4ImagesEEG,001,202906,
AFNE01.JPG,AFNE01.JPG,AFNE01.JPG,AFNE01.JPG,AFNE01.JPG,AFNE01.JPG,,,,,,,,,,,,,,,,,4,4,44,8,,,,,,,AFNE14.jpg,AFSA18.jpg,AFSA19.jpg,AFNE16.jpg,AFSA18.jpg,FS,4,num_6,32,num_2,0.900182404555,,,2018_Feb_06_1606,59.9967478861,FEMA4ImagesEEG,001,202906,
AFNE01.JPG,AFNE01.JPG,AFNE01.JPG,AFNE01.JPG,AFNE01.JPG,AFNE01.JPG,,,,,,,,,,,,,,,,,4,5,45,4,,,,,,,AFNE03.jpg,AFNE04.jpg,AFSA15.jpg,AFSA16.jpg,AFSA16.jpg,FS,4,num_4,32,num_6,0.866721598664,,,2018_Feb_06_1606,59.9967478861,FEMA4ImagesEEG,001,202906,
AFNE01.JPG,AFNE01.JPG,AFNE01.JPG,AFNE01.JPG,AFNE01.JPG,AFNE01.JPG,,,,,,,,,,,,,,,,,4,6,46,5,,,,,,,AFSA07.jpg,AFNE14.jpg,AFSA03.jpg,AFNE16.jpg,AFSA07.jpg,FS,4,num_8,16,num_8,0.666823401116,,,2018_Feb_06_1606,59.9967478861,FEMA4ImagesEEG,001,202906,
AFNE01.JPG,AFNE01.JPG,AFNE01.JPG,AFNE01.JPG,AFNE01.JPG,AFNE01.JPG,,,,,,,,,,,,,,,,,4,7,47,6,,,,,,,AFSA11.jpg,AFNE16.jpg,AFNE10.jpg,AFSA17.jpg,AFNE10.jpg,FN,3,num_2,16,num_2,0.933521970874,,,2018_Feb_06_1606,59.9967478861,FEMA4ImagesEEG,001,202906,
AFNE01.JPG,AFNE01.JPG,AFNE01.JPG,AFNE01.JPG,AFNE01.JPG,AFNE01.JPG,,,,,,,,,,,,,,,,,4,8,48,1,,,,,,,AFSA19.jpg,AFNE20.jpg,AFNE10.jpg,AFSA01.jpg,AFNE20.jpg,FN,3,num_6,32,num_8,0.816784094553,,,2018_Feb_06_1606,59.9967478861,FEMA4ImagesEEG,001,202906,
AFNE01.JPG,AFNE01.JPG,AFNE01.JPG,AFNE01.JPG,AFNE01.JPG,AFNE01.JPG,,,,,,,,,,,,,,,,,4,9,49,9,,,,,,,AFNE12.jpg,AFNE09.jpg,AFSA14.jpg,AFSA19.jpg,AFSA14.jpg,FS,4,num_2,32,num_4,0.633516229689,,,2018_Feb_06_1606,59.9967478861,FEMA4ImagesEEG,001,202906,
AFNE01.JPG,AFNE01.JPG,AFNE01.JPG,AFNE01.JPG,AFNE01.JPG,AFNE01.JPG,,,,,,,,,,,,,,,,,5,0,50,3,,,,,,,AFSA10.jpg,AFNE17.jpg,AFSA12.jpg,AFNE15.jpg,AFSA10.jpg,FS,4,num_8,16,num_8,0.716556594241,,,2018_Feb_06_1606,59.9967478861,FEMA4ImagesEEG,001,202906,
AFNE01.JPG,AFNE01.JPG,AFNE01.JPG,AFNE01.JPG,AFNE01.JPG,AFNE01.JPG,,,,,,,,,,,,,,,,,5,1,51,8,,,,,,,AFNE01.jpg,AFSA18.jpg,AFNE06.jpg,AFSA12.jpg,AFNE06.jpg,FN,3,num_2,32,num_8,0.93348636874,,,2018_Feb_06_1606,59.9967478861,FEMA4ImagesEEG,001,202906,
AFNE01.JPG,AFNE01.JPG,AFNE01.JPG,AFNE01.JPG,AFNE01.JPG,AFNE01.JPG,,,,,,,,,,,,,,,,,5,2,52,9,,,,,,,AFNE10.jpg,AFSA15.jpg,AFSA11.jpg,AFNE17.jpg,AFSA11.jpg,FS,4,num_2,16,num_2,0.683447639458,,,2018_Feb_06_1606,59.9967478861,FEMA4ImagesEEG,001,202906,
AFNE01.JPG,AFNE01.JPG,AFNE01.JPG,AFNE01.JPG,AFNE01.JPG,AFNE01.JPG,,,,,,,,,,,,,,,,,5,3,53,0,,,,,,,AFSA03.jpg,AFNE05.jpg,AFNE18.jpg,AFSA18.jpg,AFSA03.jpg,FS,4,num_8,16,num_8,0.616821428761,,,2018_Feb_06_1606,59.9967478861,FEMA4ImagesEEG,001,202906,
AFNE01.JPG,AFNE01.JPG,AFNE01.JPG,AFNE01.JPG,AFNE01.JPG,AFNE01.JPG,,,,,,,,,,,,,,,,,5,4,54,5,,,,,,,AFNE17.jpg,AFNE14.jpg,AFSA20.jpg,AFSA05.jpg,AFNE17.jpg,FN,3,num_8,32,num_2,1.05012353277,,,2018_Feb_06_1606,59.9967478861,FEMA4ImagesEEG,001,202906,
AFNE01.JPG,AFNE01.JPG,AFNE01.JPG,AFNE01.JPG,AFNE01.JPG,AFNE01.JPG,,,,,,,,,,,,,,,,,5,5,55,4,,,,,,,AFNE05.jpg,AFNE18.jpg,AFSA08.jpg,AFSA01.jpg,AFSA01.jpg,FS,4,num_4,32,num_8,0.600157418754,,,2018_Feb_06_1606,59.9967478861,FEMA4ImagesEEG,001,202906,
AFNE01.JPG,AFNE01.JPG,AFNE01.JPG,AFNE01.JPG,AFNE01.JPG,AFNE01.JPG,,,,,,,,,,,,,,,,,5,6,56,1,,,,,,,AFNE07.jpg,AFNE09.jpg,AFSA20.jpg,AFSA15.jpg,AFSA15.jpg,FS,4,num_4,16,num_4,1.06673141313,,,2018_Feb_06_1606,59.9967478861,FEMA4ImagesEEG,001,202906,
AFNE01.JPG,AFNE01.JPG,AFNE01.JPG,AFNE01.JPG,AFNE01.JPG,AFNE01.JPG,,,,,,,,,,,,,,,,,5,7,57,6,,,,,,,AFSA18.jpg,AFSA09.jpg,AFNE14.jpg,AFNE07.jpg,AFSA09.jpg,FS,4,num_6,32,num_8,0.850147395628,,,2018_Feb_06_1606,59.9967478861,FEMA4ImagesEEG,001,202906,
AFNE01.JPG,AFNE01.JPG,AFNE01.JPG,AFNE01.JPG,AFNE01.JPG,AFNE01.JPG,,,,,,,,,,,,,,,,,5,8,58,2,,,,,,,AFNE02.jpg,AFSA01.jpg,AFSA11.jpg,AFNE10.jpg,AFSA01.jpg,FS,4,num_6,32,num_2,0.4335166784,,,2018_Feb_06_1606,59.9967478861,FEMA4ImagesEEG,001,202906,
AFNE01.JPG,AFNE01.JPG,AFNE01.JPG,AFNE01.JPG,AFNE01.JPG,AFNE01.JPG,,,,,,,,,,,,,,,,,5,9,59,7,,,,,,,AFSA13.jpg,AFNE09.jpg,AFNE20.jpg,AFSA06.jpg,AFNE20.jpg,FN,3,num_2,32,num_8,0.81677030283,,,2018_Feb_06_1606,59.9967478861,FEMA4ImagesEEG,001,202906,
,,,,,,,,,,,,,,,,,,,,,,,,,,,,,,,,,,,,,,,,,,,space,17.3152087836,2018_Feb_06_1606,59.9967478861,FEMA4ImagesEEG,001,202906,
AFNE01.JPG,AFNE01.JPG,AFNE01.JPG,AFNE01.JPG,AFNE01.JPG,AFNE01.JPG,,,,,,,,,,,,,,,,,,,,,0,0,0,2,,,AMNE11.jpg,AMSA07.jpg,AMSA13.jpg,AMNE15.jpg,AMSA13.jpg,MS,2,num_2,32,num_8,0.616826560581,,,2018_Feb_06_1606,59.9967478861,FEMA4ImagesEEG,001,202906,
AFNE01.JPG,AFNE01.JPG,AFNE01.JPG,AFNE01.JPG,AFNE01.JPG,AFNE01.JPG,,,,,,,,,,,,,,,,,,,,,0,1,1,7,,,AMNE03.jpg,AMNE18.jpg,AMSA01.jpg,AMSA19.jpg,AMSA19.jpg,MS,2,num_4,32,num_8,0.866782859666,,,2018_Feb_06_1606,59.9967478861,FEMA4ImagesEEG,001,202906,
AFNE01.JPG,AFNE01.JPG,AFNE01.JPG,AFNE01.JPG,AFNE01.JPG,AFNE01.JPG,,,,,,,,,,,,,,,,,,,,,0,2,2,8,,,AMSA01.jpg,AMSA03.jpg,AMNE18.jpg,AMNE10.jpg,AMNE10.jpg,MN,1,num_4,16,num_4,0.816874863813,,,2018_Feb_06_1606,59.9967478861,FEMA4ImagesEEG,001,202906,
AFNE01.JPG,AFNE01.JPG,AFNE01.JPG,AFNE01.JPG,AFNE01.JPG,AFNE01.JPG,,,,,,,,,,,,,,,,,,,,,0,3,3,6,,,AMNE20.jpg,AMNE14.jpg,AMSA09.jpg,AMSA14.jpg,AMNE14.jpg,MN,1,num_6,16,num_6,1.05014694668,,,2018_Feb_06_1606,59.9967478861,FEMA4ImagesEEG,001,202906,
AFNE01.JPG,AFNE01.JPG,AFNE01.JPG,AFNE01.JPG,AFNE01.JPG,AFNE01.JPG,,,,,,,,,,,,,,,,,,,,,0,4,4,0,,,AMSA07.jpg,AMNE14.jpg,AMSA12.jpg,AMNE10.jpg,AMNE14.jpg,MN,1,num_6,16,num_6,0.800124575151,,,2018_Feb_06_1606,59.9967478861,FEMA4ImagesEEG,001,202906,
AFNE01.JPG,AFNE01.JPG,AFNE01.JPG,AFNE01.JPG,AFNE01.JPG,AFNE01.JPG,,,,,,,,,,,,,,,,,,,,,0,5,5,3,,,AMNE16.jpg,AMSA04.jpg,AMSA09.jpg,AMNE19.jpg,AMNE19.jpg,MN,1,num_4,32,num_8,0.650147523964,,,2018_Feb_06_1606,59.9967478861,FEMA4ImagesEEG,001,202906,
AFNE01.JPG,AFNE01.JPG,AFNE01.JPG,AFNE01.JPG,AFNE01.JPG,AFNE01.JPG,,,,,,,,,,,,,,,,,,,,,0,6,6,1,,,AMSA08.jpg,AMNE02.jpg,AMNE14.jpg,AMSA17.jpg,AMNE02.jpg,MN,1,num_6,32,num_2,1.65006477316,,,2018_Feb_06_1606,59.9967478861,FEMA4ImagesEEG,001,202906,
AFNE01.JPG,AFNE01.JPG,AFNE01.JPG,AFNE01.JPG,AFNE01.JPG,AFNE01.JPG,,,,,,,,,,,,,,,,,,,,,0,7,7,5,,,AMSA13.jpg,AMSA20.jpg,AMNE20.jpg,AMNE06.jpg,AMSA20.jpg,MS,2,num_6,32,num_8,0.783429453615,,,2018_Feb_06_1606,59.9967478861,FEMA4ImagesEEG,001,202906,
AFNE01.JPG,AFNE01.JPG,AFNE01.JPG,AFNE01.JPG,AFNE01.JPG,AFNE01.JPG,,,,,,,,,,,,,,,,,,,,,0,8,8,9,,,AMSA04.jpg,AMSA16.jpg,AMNE12.jpg,AMNE20.jpg,AMNE20.jpg,MN,1,num_4,32,num_6,1.01675349614,,,2018_Feb_06_1606,59.9967478861,FEMA4ImagesEEG,001,202906,
AFNE01.JPG,AFNE01.JPG,AFNE01.JPG,AFNE01.JPG,AFNE01.JPG,AFNE01.JPG,,,,,,,,,,,,,,,,,,,,,0,9,9,4,,,AMSA08.jpg,AMSA09.jpg,AMNE17.jpg,AMNE10.jpg,AMNE17.jpg,MN,1,num_2,32,num_8,0.633449836634,,,2018_Feb_06_1606,59.9967478861,FEMA4ImagesEEG,001,202906,
AFNE01.JPG,AFNE01.JPG,AFNE01.JPG,AFNE01.JPG,AFNE01.JPG,AFNE01.JPG,,,,,,,,,,,,,,,,,,,,,1,0,10,2,,,AMSA15.jpg,AMNE01.jpg,AMSA07.jpg,AMNE11.jpg,AMSA07.jpg,MS,2,num_2,32,num_8,0.633506928105,,,2018_Feb_06_1606,59.9967478861,FEMA4ImagesEEG,001,202906,
AFNE01.JPG,AFNE01.JPG,AFNE01.JPG,AFNE01.JPG,AFNE01.JPG,AFNE01.JPG,,,,,,,,,,,,,,,,,,,,,1,1,11,8,,,AMNE15.jpg,AMSA11.jpg,AMSA09.jpg,AMNE11.jpg,AMSA11.jpg,MS,2,num_6,32,num_2,0.683458544547,,,2018_Feb_06_1606,59.9967478861,FEMA4ImagesEEG,001,202906,
AFNE01.JPG,AFNE01.JPG,AFNE01.JPG,AFNE01.JPG,AFNE01.JPG,AFNE01.JPG,,,,,,,,,,,,,,,,,,,,,1,2,12,4,,,AMSA05.jpg,AMNE02.jpg,AMSA14.jpg,AMNE04.jpg,AMSA05.jpg,MS,2,num_8,16,num_8,0.716827298282,,,2018_Feb_06_1606,59.9967478861,FEMA4ImagesEEG,001,202906,
AFNE01.JPG,AFNE01.JPG,AFNE01.JPG,AFNE01.JPG,AFNE01.JPG,AFNE01.JPG,,,,,,,,,,,,,,,,,,,,,1,3,13,7,,,AMNE11.jpg,AMNE15.jpg,AMSA09.jpg,AMSA10.jpg,AMSA09.jpg,MS,2,num_2,32,num_6,0.73347912007,,,2018_Feb_06_1606,59.9967478861,FEMA4ImagesEEG,001,202906,
AFNE01.JPG,AFNE01.JPG,AFNE01.JPG,AFNE01.JPG,AFNE01.JPG,AFNE01.JPG,,,,,,,,,,,,,,,,,,,,,1,4,14,1,,,AMNE18.jpg,AMNE15.jpg,AMSA01.jpg,AMSA08.jpg,AMSA08.jpg,MS,2,num_4,16,num_4,0.833435916342,,,2018_Feb_06_1606,59.9967478861,FEMA4ImagesEEG,001,202906,
AFNE01.JPG,AFNE01.JPG,AFNE01.JPG,AFNE01.JPG,AFNE01.JPG,AFNE01.JPG,,,,,,,,,,,,,,,,,,,,,1,5,15,6,,,AMSA13.jpg,AMNE15.jpg,AMNE06.jpg,AMSA06.jpg,AMSA06.jpg,MS,2,num_4,32,num_8,0.78344773571,,,2018_Feb_06_1606,59.9967478861,FEMA4ImagesEEG,001,202906,
AFNE01.JPG,AFNE01.JPG,AFNE01.JPG,AFNE01.JPG,AFNE01.JPG,AFNE01.JPG,,,,,,,,,,,,,,,,,,,,,1,6,16,0,,,AMSA11.jpg,AMNE07.jpg,AMSA19.jpg,AMNE05.jpg,AMSA11.jpg,MS,2,num_8,32,num_2,0.816758114845,,,2018_Feb_06_1606,59.9967478861,FEMA4ImagesEEG,001,202906,
AFNE01.JPG,AFNE01.JPG,AFNE01.JPG,AFNE01.JPG,AFNE01.JPG,AFNE01.JPG,,,,,,,,,,,,,,,,,,,,,1,7,17,9,,,AMSA03.jpg,AMNE05.jpg,AMNE04.jpg,AMSA19.jpg,AMSA19.jpg,MS,2,num_4,32,num_2,1.05010236404,,,2018_Feb_06_1606,59.9967478861,FEMA4ImagesEEG,001,202906,
AFNE01.JPG,AFNE01.JPG,AFNE01.JPG,AFNE01.JPG,AFNE01.JPG,AFNE01.JPG,,,,,,,,,,,,,,,,,,,,,1,8,18,3,,,AMSA10.jpg,AMSA07.jpg,AMNE17.jpg,AMNE04.jpg,AMSA10.jpg,MS,2,num_8,16,num_8,1.23344175378,,,2018_Feb_06_1606,59.9967478861,FEMA4ImagesEEG,001,202906,
AFNE01.JPG,AFNE01.JPG,AFNE01.JPG,AFNE01.JPG,AFNE01.JPG,AFNE01.JPG,,,,,,,,,,,,,,,,,,,,,1,9,19,5,,,AMNE15.jpg,AMNE06.jpg,AMSA20.jpg,AMSA14.jpg,AMNE15.jpg,MN,1,num_8,16,num_8,0.650125713553,,,2018_Feb_06_1606,59.9967478861,FEMA4ImagesEEG,001,202906,
AFNE01.JPG,AFNE01.JPG,AFNE01.JPG,AFNE01.JPG,AFNE01.JPG,AFNE01.JPG,,,,,,,,,,,,,,,,,,,,,2,0,20,3,,,AMNE17.jpg,AMNE08.jpg,AMSA18.jpg,AMSA17.jpg,AMSA17.jpg,MS,2,num_4,32,num_8,1.25009100977,,,2018_Feb_06_1606,59.9967478861,FEMA4ImagesEEG,001,202906,
AFNE01.JPG,AFNE01.JPG,AFNE01.JPG,AFNE01.JPG,AFNE01.JPG,AFNE01.JPG,,,,,,,,,,,,,,,,,,,,,2,1,21,7,,,AMSA19.jpg,AMSA05.jpg,AMNE20.jpg,AMNE10.jpg,AMSA05.jpg,MS,2,num_6,16,num_6,0.716786243487,,,2018_Feb_06_1606,59.9967478861,FEMA4ImagesEEG,001,202906,
AFNE01.JPG,AFNE01.JPG,AFNE01.JPG,AFNE01.JPG,AFNE01.JPG,AFNE01.JPG,,,,,,,,,,,,,,,,,,,,,2,2,22,2,,,AMNE12.jpg,AMSA05.jpg,AMNE20.jpg,AMSA17.jpg,AMSA05.jpg,MS,2,num_6,16,num_6,0.533482776489,,,2018_Feb_06_1606,59.9967478861,FEMA4ImagesEEG,001,202906,
AFNE01.JPG,AFNE01.JPG,AFNE01.JPG,AFNE01.JPG,AFNE01.JPG,AFNE01.JPG,,,,,,,,,,,,,,,,,,,,,2,3,23,0,,,AMNE12.jpg,AMNE19.jpg,AMSA07.jpg,AMSA14.jpg,AMNE19.jpg,MN,1,num_6,32,num_8,0.666851626243,,,2018_Feb_06_1606,59.9967478861,FEMA4ImagesEEG,001,202906,
AFNE01.JPG,AFNE01.JPG,AFNE01.JPG,AFNE01.JPG,AFNE01.JPG,AFNE01.JPG,,,,,,,,,,,,,,,,,,,,,2,4,24,4,,,AMSA04.jpg,AMNE02.jpg,AMSA09.jpg,AMNE18.jpg,AMSA09.jpg,MS,2,num_2,32,num_4,1.05015496514,,,2018_Feb_06_1606,59.9967478861,FEMA4ImagesEEG,001,202906,
AFNE01.JPG,AFNE01.JPG,AFNE01.JPG,AFNE01.JPG,AFNE01.JPG,AFNE01.JPG,,,,,,,,,,,,,,,,,,,,,2,5,25,5,,,AMSA09.jpg,AMNE06.jpg,AMNE18.jpg,AMSA02.jpg,AMNE18.jpg,MN,1,num_2,16,num_2,0.650159391342,,,2018_Feb_06_1606,59.9967478861,FEMA4ImagesEEG,001,202906,
AFNE01.JPG,AFNE01.JPG,AFNE01.JPG,AFNE01.JPG,AFNE01.JPG,AFNE01.JPG,,,,,,,,,,,,,,,,,,,,,2,6,26,6,,,AMNE20.jpg,AMNE14.jpg,AMSA09.jpg,AMSA11.jpg,AMSA09.jpg,MS,2,num_2,32,num_6,0.916798944818,,,2018_Feb_06_1606,59.9967478861,FEMA4ImagesEEG,001,202906,
AFNE01.JPG,AFNE01.JPG,AFNE01.JPG,AFNE01.JPG,AFNE01.JPG,AFNE01.JPG,,,,,,,,,,,,,,,,,,,,,2,7,27,9,,,AMSA04.jpg,AMSA14.jpg,AMNE03.jpg,AMNE05.jpg,AMNE03.jpg,MN,1,num_2,16,num_2,0.983430928783,,,2018_Feb_06_1606,59.9967478861,FEMA4ImagesEEG,001,202906,
AFNE01.JPG,AFNE01.JPG,AFNE01.JPG,AFNE01.JPG,AFNE01.JPG,AFNE01.JPG,,,,,,,,,,,,,,,,,,,,,2,8,28,8,,,AMSA16.jpg,AMSA09.jpg,AMNE14.jpg,AMNE20.jpg,AMNE20.jpg,MN,1,num_4,16,num_4,0.750163657125,,,2018_Feb_06_1606,59.9967478861,FEMA4ImagesEEG,001,202906,
AFNE01.JPG,AFNE01.JPG,AFNE01.JPG,AFNE01.JPG,AFNE01.JPG,AFNE01.JPG,,,,,,,,,,,,,,,,,,,,,2,9,29,1,,,AMNE03.jpg,AMNE17.jpg,AMSA13.jpg,AMSA04.jpg,AMSA04.jpg,MS,2,num_4,32,num_2,0.850113076624,,,2018_Feb_06_1606,59.9967478861,FEMA4ImagesEEG,001,202906,
AFNE01.JPG,AFNE01.JPG,AFNE01.JPG,AFNE01.JPG,AFNE01.JPG,AFNE01.JPG,,,,,,,,,,,,,,,,,,,,,3,0,30,5,,,AMSA06.jpg,AMNE11.jpg,AMSA03.jpg,AMNE02.jpg,AMSA03.jpg,MS,2,num_2,16,num_2,0.65017125872,,,2018_Feb_06_1606,59.9967478861,FEMA4ImagesEEG,001,202906,
AFNE01.JPG,AFNE01.JPG,AFNE01.JPG,AFNE01.JPG,AFNE01.JPG,AFNE01.JPG,,,,,,,,,,,,,,,,,,,,,3,1,31,3,,,AMNE03.jpg,AMSA05.jpg,AMNE05.jpg,AMSA04.jpg,AMSA05.jpg,MS,2,num_6,16,num_6,0.600132401101,,,2018_Feb_06_1606,59.9967478861,FEMA4ImagesEEG,001,202906,
AFNE01.JPG,AFNE01.JPG,AFNE01.JPG,AFNE01.JPG,AFNE01.JPG,AFNE01.JPG,,,,,,,,,,,,,,,,,,,,,3,2,32,0,,,AMSA16.jpg,AMSA01.jpg,AMNE08.jpg,AMNE17.jpg,AMSA16.jpg,MS,2,num_8,16,num_8,0.449846477946,,,2018_Feb_06_1606,59.9967478861,FEMA4ImagesEEG,001,202906,
AFNE01.JPG,AFNE01.JPG,AFNE01.JPG,AFNE01.JPG,AFNE01.JPG,AFNE01.JPG,,,,,,,,,,,,,,,,,,,,,3,3,33,7,,,AMSA20.jpg,AMSA10.jpg,AMNE09.jpg,AMNE17.jpg,AMSA20.jpg,MS,2,num_8,32,num_6,0.633485438535,,,2018_Feb_06_1606,59.9967478861,FEMA4ImagesEEG,001,202906,
AFNE01.JPG,AFNE01.JPG,AFNE01.JPG,AFNE01.JPG,AFNE01.JPG,AFNE01.JPG,,,,,,,,,,,,,,,,,,,,,3,4,34,1,,,AMSA09.jpg,AMNE15.jpg,AMSA06.jpg,AMNE07.jpg,AMSA09.jpg,MS,2,num_8,32,num_2,0.916771040531,,,2018_Feb_06_1606,59.9967478861,FEMA4ImagesEEG,001,202906,
AFNE01.JPG,AFNE01.JPG,AFNE01.JPG,AFNE01.JPG,AFNE01.JPG,AFNE01.JPG,,,,,,,,,,,,,,,,,,,,,3,5,35,4,,,AMNE19.jpg,AMNE18.jpg,AMSA03.jpg,AMSA12.jpg,AMNE19.jpg,MN,1,num_8,16,num_8,0.950095211621,,,2018_Feb_06_1606,59.9967478861,FEMA4ImagesEEG,001,202906,
AFNE01.JPG,AFNE01.JPG,AFNE01.JPG,AFNE01.JPG,AFNE01.JPG,AFNE01.JPG,,,,,,,,,,,,,,,,,,,,,3,6,36,9,,,AMNE20.jpg,AMNE01.jpg,AMSA01.jpg,AMSA10.jpg,AMSA10.jpg,MS,2,num_4,16,num_4,1.10010658181,,,2018_Feb_06_1606,59.9967478861,FEMA4ImagesEEG,001,202906,
AFNE01.JPG,AFNE01.JPG,AFNE01.JPG,AFNE01.JPG,AFNE01.JPG,AFNE01.JPG,,,,,,,,,,,,,,,,,,,,,3,7,37,6,,,AMNE05.jpg,AMSA05.jpg,AMNE13.jpg,AMSA02.jpg,AMSA02.jpg,MS,2,num_4,32,num_6,0.966768202139,,,2018_Feb_06_1606,59.9967478861,FEMA4ImagesEEG,001,202906,
AFNE01.JPG,AFNE01.JPG,AFNE01.JPG,AFNE01.JPG,AFNE01.JPG,AFNE01.JPG,,,,,,,,,,,,,,,,,,,,,3,8,38,8,,,AMSA06.jpg,AMSA15.jpg,AMNE03.jpg,AMNE05.jpg,AMNE03.jpg,MN,1,num_2,32,num_8,0.750161091331,,,2018_Feb_06_1606,59.9967478861,FEMA4ImagesEEG,001,202906,
