IPosition2,IPosition3,IPosition1,IPosition6,IPosition4,IPosition5,TrialsM1.thisRepN,TrialsM1.thisTrialN,TrialsM1.thisN,TrialsM1.thisIndex,TrialsF1.thisRepN,TrialsF1.thisTrialN,TrialsF1.thisN,TrialsF1.thisIndex,TrialsM2.thisRepN,TrialsM2.thisTrialN,TrialsM2.thisN,TrialsM2.thisIndex,TrialsF2.thisRepN,TrialsF2.thisTrialN,TrialsF2.thisN,TrialsF2.thisIndex,TrialsM3.thisRepN,TrialsM3.thisTrialN,TrialsM3.thisN,TrialsM3.thisIndex,TrialsF3.thisRepN,TrialsF3.thisTrialN,TrialsF3.thisN,TrialsF3.thisIndex,InstrKey_resp.keys,InstrKey_resp.rt,Image0 _Position,Image1 _Position,Image2 _Position,Image3 _Position,Center_image,condition,code,correct_answer,accuracy,Key_Resp.keys,Key_Resp.rt,BreakKey_resp.keys,BreakKey_resp.rt,date,frameRate,expName,session,participant,
,,,,,,,,,,,,,,,,,,,,,,,,,,,,,,space,13.682818756,,,,,,,,,,,,,,2018_Feb_23_1624,60.0067554988,MAFE4ImagesEEG,001,203068,
AMNE23.JPG,AMNE24.JPG,AMNE22.JPG,AMSA24.JPG,AMSA22.JPG,AMSA23.JPG,0,0,0,9,,,,,,,,,,,,,,,,,,,,,,,AMNE10.jpg,AMSA12.jpg,AMSA03.jpg,AMNE02.jpg,AMNE10.jpg,MN,1,num_8,32,num_6,0.783484577783,,,2018_Feb_23_1624,60.0067554988,MAFE4ImagesEEG,001,203068,
AMNE22.JPG,AMSA24.JPG,AMSA22.JPG,AMNE25.JPG,AMNE24.JPG,AMSA25.JPG,0,1,1,7,,,,,,,,,,,,,,,,,,,,,,,AMSA09.jpg,AMNE12.jpg,AMNE03.jpg,AMSA02.jpg,AMNE03.jpg,MN,1,num_2,32,num_8,1.16673001263,,,2018_Feb_23_1624,60.0067554988,MAFE4ImagesEEG,001,203068,
AFSA21.JPG,AFNE22.JPG,AFNE21.JPG,AFSA23.JPG,AFSA22.JPG,AFNE23.JPG,0,2,2,0,,,,,,,,,,,,,,,,,,,,,,,AMSA07.jpg,AMNE15.jpg,AMSA05.jpg,AMNE11.jpg,AMNE15.jpg,MN,1,num_6,16,num_6,0.750205353135,,,2018_Feb_23_1624,60.0067554988,MAFE4ImagesEEG,001,203068,
AFSA21.JPG,AFNE23.JPG,AFNE21.JPG,AFSA25.JPG,AFNE25.JPG,AFSA23.JPG,0,3,3,4,,,,,,,,,,,,,,,,,,,,,,,AMNE16.jpg,AMSA18.jpg,AMSA05.jpg,AMNE02.jpg,AMNE16.jpg,MN,1,num_8,16,num_8,1.10007822816,,,2018_Feb_23_1624,60.0067554988,MAFE4ImagesEEG,001,203068,
AFNE22.JPG,AFSA24.JPG,AFSA22.JPG,AFNE25.JPG,AFNE24.JPG,AFSA25.JPG,0,4,4,6,,,,,,,,,,,,,,,,,,,,,,,AMSA08.jpg,AMNE16.jpg,AMSA09.jpg,AMNE20.jpg,AMSA08.jpg,MS,2,num_8,32,num_4,1.04994706204,,,2018_Feb_23_1624,60.0067554988,MAFE4ImagesEEG,001,203068,
AFSA25.JPG,AFNE24.JPG,AFSA24.JPG,AFNE21.JPG,AFSA21.JPG,AFNE25.JPG,0,5,5,2,,,,,,,,,,,,,,,,,,,,,,,AMNE19.jpg,AMSA01.jpg,AMSA04.jpg,AMNE09.jpg,AMNE09.jpg,MN,1,num_4,16,num_4,1.26660232642,,,2018_Feb_23_1624,60.0067554988,MAFE4ImagesEEG,001,203068,
AMSA25.JPG,AMNE24.JPG,AMSA24.JPG,AMNE26.JPG,AMSA21.JPG,AMNE25.JPG,0,6,6,3,,,,,,,,,,,,,,,,,,,,,,,AMNE17.jpg,AMSA16.jpg,AMSA09.jpg,AMNE04.jpg,AMNE17.jpg,MN,1,num_8,32,num_6,0.850102363736,,,2018_Feb_23_1624,60.0067554988,MAFE4ImagesEEG,001,203068,
AMSA21.JPG,AMNE23.JPG,AMNE21.JPG,AMSA25.JPG,AMNE25.JPG,AMSA23.JPG,0,7,7,5,,,,,,,,,,,,,,,,,,,,,,,AMNE16.jpg,AMNE08.jpg,AMSA04.jpg,AMSA15.jpg,AMSA04.jpg,MS,2,num_2,32,num_4,0.483490447281,,,2018_Feb_23_1624,60.0067554988,MAFE4ImagesEEG,001,203068,
AMSA21.JPG,AMNE22.JPG,AMNE21.JPG,AMSA23.JPG,AMSA22.JPG,AMNE23.JPG,0,8,8,1,,,,,,,,,,,,,,,,,,,,,,,AMNE09.jpg,AMSA07.jpg,AMNE17.jpg,AMSA18.jpg,AMNE09.jpg,MN,1,num_8,32,num_6,0.833498032764,,,2018_Feb_23_1624,60.0067554988,MAFE4ImagesEEG,001,203068,
AFNE23.JPG,AFNE24.JPG,AFNE22.JPG,AFSA24.JPG,AFSA22.JPG,AFSA23.JPG,0,9,9,8,,,,,,,,,,,,,,,,,,,,,,,AMSA05.jpg,AMSA12.jpg,AMNE20.jpg,AMNE07.jpg,AMSA05.jpg,MS,2,num_8,32,num_4,1.75010335806,,,2018_Feb_23_1624,60.0067554988,MAFE4ImagesEEG,001,203068,
AFSA21.JPG,AFNE23.JPG,AFNE21.JPG,AFSA25.JPG,AFNE25.JPG,AFSA23.JPG,,,,,0,0,0,4,,,,,,,,,,,,,,,,,,,AFNE06.jpg,AFNE05.jpg,AFSA06.jpg,AFSA13.jpg,AFNE06.jpg,FN,3,num_8,32,num_6,0.866627472336,,,2018_Feb_23_1624,60.0067554988,MAFE4ImagesEEG,001,203068,
AMSA21.JPG,AMNE22.JPG,AMNE21.JPG,AMSA23.JPG,AMSA22.JPG,AMNE23.JPG,,,,,0,1,1,1,,,,,,,,,,,,,,,,,,,AFSA16.jpg,AFSA04.jpg,AFNE20.jpg,AFNE10.jpg,AFNE10.jpg,FN,3,num_4,16,num_4,0.63340508251,,,2018_Feb_23_1624,60.0067554988,MAFE4ImagesEEG,001,203068,
AMSA21.JPG,AMNE23.JPG,AMNE21.JPG,AMSA25.JPG,AMNE25.JPG,AMSA23.JPG,,,,,0,2,2,5,,,,,,,,,,,,,,,,,,,AFNE17.jpg,AFSA02.jpg,AFSA10.jpg,AFNE12.jpg,AFNE17.jpg,FN,3,num_8,32,num_2,1.65008959838,,,2018_Feb_23_1624,60.0067554988,MAFE4ImagesEEG,001,203068,
AFNE23.JPG,AFNE24.JPG,AFNE22.JPG,AFSA24.JPG,AFSA22.JPG,AFSA23.JPG,,,,,0,3,3,8,,,,,,,,,,,,,,,,,,,AFNE20.jpg,AFNE16.jpg,AFSA17.jpg,AFSA08.jpg,AFNE20.jpg,FN,3,num_8,32,num_6,0.816779197892,,,2018_Feb_23_1624,60.0067554988,MAFE4ImagesEEG,001,203068,
AFNE22.JPG,AFSA24.JPG,AFSA22.JPG,AFNE25.JPG,AFNE24.JPG,AFSA25.JPG,,,,,0,4,4,6,,,,,,,,,,,,,,,,,,,AFSA17.jpg,AFNE19.jpg,AFSA11.jpg,AFNE05.jpg,AFSA17.jpg,FS,4,num_8,32,num_2,1.05014816532,,,2018_Feb_23_1624,60.0067554988,MAFE4ImagesEEG,001,203068,
AFSA21.JPG,AFNE22.JPG,AFNE21.JPG,AFSA23.JPG,AFSA22.JPG,AFNE23.JPG,,,,,0,5,5,0,,,,,,,,,,,,,,,,,,,AFSA18.jpg,AFNE15.jpg,AFSA08.jpg,AFNE04.jpg,AFNE15.jpg,FN,3,num_6,16,num_6,0.550233000773,,,2018_Feb_23_1624,60.0067554988,MAFE4ImagesEEG,001,203068,
AFSA25.JPG,AFNE24.JPG,AFSA24.JPG,AFNE21.JPG,AFSA21.JPG,AFNE25.JPG,,,,,0,6,6,2,,,,,,,,,,,,,,,,,,,AFSA12.jpg,AFNE13.jpg,AFSA09.jpg,AFNE14.jpg,AFNE14.jpg,FN,3,num_4,32,num_2,0.733511215076,,,2018_Feb_23_1624,60.0067554988,MAFE4ImagesEEG,001,203068,
AMSA25.JPG,AMNE24.JPG,AMSA24.JPG,AMNE26.JPG,AMSA21.JPG,AMNE25.JPG,,,,,0,7,7,3,,,,,,,,,,,,,,,,,,,AFNE13.jpg,AFNE12.jpg,AFSA02.jpg,AFSA04.jpg,AFSA02.jpg,FS,4,num_2,16,num_2,0.9501279908,,,2018_Feb_23_1624,60.0067554988,MAFE4ImagesEEG,001,203068,
AMNE22.JPG,AMSA24.JPG,AMSA22.JPG,AMNE25.JPG,AMNE24.JPG,AMSA25.JPG,,,,,0,8,8,7,,,,,,,,,,,,,,,,,,,AFNE19.jpg,AFSA03.jpg,AFSA20.jpg,AFNE13.jpg,AFSA03.jpg,FS,4,num_6,16,num_6,0.933442512876,,,2018_Feb_23_1624,60.0067554988,MAFE4ImagesEEG,001,203068,
AMNE23.JPG,AMNE24.JPG,AMNE22.JPG,AMSA24.JPG,AMSA22.JPG,AMSA23.JPG,,,,,0,9,9,9,,,,,,,,,,,,,,,,,,,AFNE06.jpg,AFSA20.jpg,AFNE04.jpg,AFSA05.jpg,AFNE06.jpg,FN,3,num_8,16,num_8,1.33341768768,,,2018_Feb_23_1624,60.0067554988,MAFE4ImagesEEG,001,203068,
AMSA21.JPG,AMNE22.JPG,AMNE21.JPG,AMSA23.JPG,AMSA22.JPG,AMNE23.JPG,,,,,,,,,0,0,0,1,,,,,,,,,,,,,,,AMNE12.jpg,AMNE08.jpg,AMSA13.jpg,AMSA08.jpg,AMSA08.jpg,MS,2,num_4,32,num_2,1.13353193481,,,2018_Feb_23_1624,60.0067554988,MAFE4ImagesEEG,001,203068,
AFSA25.JPG,AFNE24.JPG,AFSA24.JPG,AFNE21.JPG,AFSA21.JPG,AFNE25.JPG,,,,,,,,,0,1,1,2,,,,,,,,,,,,,,,AMSA20.jpg,AMSA13.jpg,AMNE09.jpg,AMNE18.jpg,AMNE09.jpg,MN,1,num_2,16,num_2,2.08376641094,,,2018_Feb_23_1624,60.0067554988,MAFE4ImagesEEG,001,203068,
AMNE23.JPG,AMNE24.JPG,AMNE22.JPG,AMSA24.JPG,AMSA22.JPG,AMSA23.JPG,,,,,,,,,0,2,2,9,,,,,,,,,,,,,,,AMSA02.jpg,AMSA13.jpg,AMNE20.jpg,AMNE15.jpg,AMNE15.jpg,MN,1,num_4,16,num_4,0.600171402912,,,2018_Feb_23_1624,60.0067554988,MAFE4ImagesEEG,001,203068,
AFSA21.JPG,AFNE22.JPG,AFNE21.JPG,AFSA23.JPG,AFSA22.JPG,AFNE23.JPG,,,,,,,,,0,3,3,0,,,,,,,,,,,,,,,AMNE06.jpg,AMSA01.jpg,AMNE11.jpg,AMSA20.jpg,AMSA20.jpg,MS,2,num_4,16,num_4,1.53342211386,,,2018_Feb_23_1624,60.0067554988,MAFE4ImagesEEG,001,203068,
AMSA25.JPG,AMNE24.JPG,AMSA24.JPG,AMNE26.JPG,AMSA21.JPG,AMNE25.JPG,,,,,,,,,0,4,4,3,,,,,,,,,,,,,,,AMNE02.jpg,AMNE13.jpg,AMSA03.jpg,AMSA18.jpg,AMSA03.jpg,MS,2,num_2,32,num_6,1.76670384035,,,2018_Feb_23_1624,60.0067554988,MAFE4ImagesEEG,001,203068,
AMNE22.JPG,AMSA24.JPG,AMSA22.JPG,AMNE25.JPG,AMNE24.JPG,AMSA25.JPG,,,,,,,,,0,5,5,7,,,,,,,,,,,,,,,AMSA12.jpg,AMSA18.jpg,AMNE10.jpg,AMNE05.jpg,AMSA18.jpg,MS,2,num_6,16,num_6,0.433526065317,,,2018_Feb_23_1624,60.0067554988,MAFE4ImagesEEG,001,203068,
AMSA21.JPG,AMNE23.JPG,AMNE21.JPG,AMSA25.JPG,AMNE25.JPG,AMSA23.JPG,,,,,,,,,0,6,6,5,,,,,,,,,,,,,,,AMSA13.jpg,AMSA17.jpg,AMNE03.jpg,AMNE09.jpg,AMSA13.jpg,MS,2,num_8,32,num_6,0.883435472613,,,2018_Feb_23_1624,60.0067554988,MAFE4ImagesEEG,001,203068,
AFSA21.JPG,AFNE23.JPG,AFNE21.JPG,AFSA25.JPG,AFNE25.JPG,AFSA23.JPG,,,,,,,,,0,7,7,4,,,,,,,,,,,,,,,AMNE08.jpg,AMSA07.jpg,AMNE19.jpg,AMSA09.jpg,AMNE08.jpg,MN,1,num_8,32,num_2,1.60010116105,,,2018_Feb_23_1624,60.0067554988,MAFE4ImagesEEG,001,203068,
AFNE22.JPG,AFSA24.JPG,AFSA22.JPG,AFNE25.JPG,AFNE24.JPG,AFSA25.JPG,,,,,,,,,0,8,8,6,,,,,,,,,,,,,,,AMSA05.jpg,AMSA12.jpg,AMNE03.jpg,AMNE14.jpg,AMNE03.jpg,MN,1,num_2,32,num_4,0.450162149617,,,2018_Feb_23_1624,60.0067554988,MAFE4ImagesEEG,001,203068,
AFNE23.JPG,AFNE24.JPG,AFNE22.JPG,AFSA24.JPG,AFSA22.JPG,AFSA23.JPG,,,,,,,,,0,9,9,8,,,,,,,,,,,,,,,AMSA07.jpg,AMNE05.jpg,AMSA05.jpg,AMNE01.jpg,AMSA05.jpg,MS,2,num_2,32,num_8,0.833389622974,,,2018_Feb_23_1624,60.0067554988,MAFE4ImagesEEG,001,203068,
AFSA21.JPG,AFNE23.JPG,AFNE21.JPG,AFSA25.JPG,AFNE25.JPG,AFSA23.JPG,,,,,,,,,,,,,0,0,0,4,,,,,,,,,,,AFSA01.jpg,AFNE12.jpg,AFSA11.jpg,AFNE03.jpg,AFSA01.jpg,FS,4,num_8,32,num_2,0.850204037968,,,2018_Feb_23_1624,60.0067554988,MAFE4ImagesEEG,001,203068,
AMNE22.JPG,AMSA24.JPG,AMSA22.JPG,AMNE25.JPG,AMNE24.JPG,AMSA25.JPG,,,,,,,,,,,,,0,1,1,7,,,,,,,,,,,AFNE01.jpg,AFSA08.jpg,AFNE18.jpg,AFSA18.jpg,AFSA08.jpg,FS,4,num_6,16,num_6,0.71683728369,,,2018_Feb_23_1624,60.0067554988,MAFE4ImagesEEG,001,203068,
AFSA25.JPG,AFNE24.JPG,AFSA24.JPG,AFNE21.JPG,AFSA21.JPG,AFNE25.JPG,,,,,,,,,,,,,0,2,2,2,,,,,,,,,,,AFSA06.jpg,AFSA08.jpg,AFNE14.jpg,AFNE10.jpg,AFSA06.jpg,FS,4,num_8,32,num_6,1.23342445528,,,2018_Feb_23_1624,60.0067554988,MAFE4ImagesEEG,001,203068,
AMSA21.JPG,AMNE22.JPG,AMNE21.JPG,AMSA23.JPG,AMSA22.JPG,AMNE23.JPG,,,,,,,,,,,,,0,3,3,1,,,,,,,,,,,AFSA10.jpg,AFNE20.jpg,AFNE09.jpg,AFSA19.jpg,AFNE09.jpg,FN,3,num_2,16,num_2,0.56664585066,,,2018_Feb_23_1624,60.0067554988,MAFE4ImagesEEG,001,203068,
AFSA21.JPG,AFNE22.JPG,AFNE21.JPG,AFSA23.JPG,AFSA22.JPG,AFNE23.JPG,,,,,,,,,,,,,0,4,4,0,,,,,,,,,,,AFSA17.jpg,AFSA12.jpg,AFNE07.jpg,AFNE04.jpg,AFSA17.jpg,FS,4,num_8,16,num_8,0.883465622086,,,2018_Feb_23_1624,60.0067554988,MAFE4ImagesEEG,001,203068,
AMSA25.JPG,AMNE24.JPG,AMSA24.JPG,AMNE26.JPG,AMSA21.JPG,AMNE25.JPG,,,,,,,,,,,,,0,5,5,3,,,,,,,,,,,AFSA17.jpg,AFNE05.jpg,AFNE08.jpg,AFSA19.jpg,AFNE08.jpg,FN,3,num_2,16,num_2,0.583470850135,,,2018_Feb_23_1624,60.0067554988,MAFE4ImagesEEG,001,203068,
AFNE22.JPG,AFSA24.JPG,AFSA22.JPG,AFNE25.JPG,AFNE24.JPG,AFSA25.JPG,,,,,,,,,,,,,0,6,6,6,,,,,,,,,,,AFNE09.jpg,AFNE20.jpg,AFSA06.jpg,AFSA05.jpg,AFNE09.jpg,FN,3,num_8,16,num_8,1.08346908598,,,2018_Feb_23_1624,60.0067554988,MAFE4ImagesEEG,001,203068,
AMSA21.JPG,AMNE23.JPG,AMNE21.JPG,AMSA25.JPG,AMNE25.JPG,AMSA23.JPG,,,,,,,,,,,,,0,7,7,5,,,,,,,,,,,AFNE05.jpg,AFSA01.jpg,AFNE03.jpg,AFSA09.jpg,AFNE03.jpg,FN,3,num_2,16,num_2,0.616770602064,,,2018_Feb_23_1624,60.0067554988,MAFE4ImagesEEG,001,203068,
AMNE23.JPG,AMNE24.JPG,AMNE22.JPG,AMSA24.JPG,AMSA22.JPG,AMSA23.JPG,,,,,,,,,,,,,0,8,8,9,,,,,,,,,,,AFNE08.jpg,AFSA08.jpg,AFSA02.jpg,AFNE18.jpg,AFSA02.jpg,FS,4,num_2,16,num_2,0.633597526001,,,2018_Feb_23_1624,60.0067554988,MAFE4ImagesEEG,001,203068,
AFNE23.JPG,AFNE24.JPG,AFNE22.JPG,AFSA24.JPG,AFSA22.JPG,AFSA23.JPG,,,,,,,,,,,,,0,9,9,8,,,,,,,,,,,AFSA07.jpg,AFNE07.jpg,AFSA17.jpg,AFNE11.jpg,AFNE11.jpg,FN,3,num_4,16,num_4,0.933484529611,,,2018_Feb_23_1624,60.0067554988,MAFE4ImagesEEG,001,203068,
AMSA21.JPG,AMNE23.JPG,AMNE21.JPG,AMSA25.JPG,AMNE25.JPG,AMSA23.JPG,,,,,,,,,,,,,,,,,0,0,0,5,,,,,,,AMSA03.jpg,AMNE12.jpg,AMNE01.jpg,AMSA16.jpg,AMNE12.jpg,MN,1,num_6,32,num_4,0.866756730131,,,2018_Feb_23_1624,60.0067554988,MAFE4ImagesEEG,001,203068,
AFNE22.JPG,AFSA24.JPG,AFSA22.JPG,AFNE25.JPG,AFNE24.JPG,AFSA25.JPG,,,,,,,,,,,,,,,,,0,1,1,6,,,,,,,AMNE18.jpg,AMSA03.jpg,AMNE11.jpg,AMSA17.jpg,AMSA17.jpg,MS,2,num_4,32,num_6,0.866749353125,,,2018_Feb_23_1624,60.0067554988,MAFE4ImagesEEG,001,203068,
AFSA21.JPG,AFNE22.JPG,AFNE21.JPG,AFSA23.JPG,AFSA22.JPG,AFNE23.JPG,,,,,,,,,,,,,,,,,0,2,2,0,,,,,,,AMNE16.jpg,AMNE13.jpg,AMSA13.jpg,AMSA08.jpg,AMSA13.jpg,MS,2,num_2,32,num_6,0.93346143642,,,2018_Feb_23_1624,60.0067554988,MAFE4ImagesEEG,001,203068,
AMNE23.JPG,AMNE24.JPG,AMNE22.JPG,AMSA24.JPG,AMSA22.JPG,AMSA23.JPG,,,,,,,,,,,,,,,,,0,3,3,9,,,,,,,AMNE02.jpg,AMSA16.jpg,AMNE08.jpg,AMSA08.jpg,AMNE02.jpg,MN,1,num_8,16,num_8,0.53346573445,,,2018_Feb_23_1624,60.0067554988,MAFE4ImagesEEG,001,203068,
AMSA21.JPG,AMNE22.JPG,AMNE21.JPG,AMSA23.JPG,AMSA22.JPG,AMNE23.JPG,,,,,,,,,,,,,,,,,0,4,4,1,,,,,,,AMNE11.jpg,AMSA12.jpg,AMSA10.jpg,AMNE17.jpg,AMNE11.jpg,MN,1,num_8,32,num_2,0.833470769925,,,2018_Feb_23_1624,60.0067554988,MAFE4ImagesEEG,001,203068,
AFSA25.JPG,AFNE24.JPG,AFSA24.JPG,AFNE21.JPG,AFSA21.JPG,AFNE25.JPG,,,,,,,,,,,,,,,,,0,5,5,2,,,,,,,AMSA03.jpg,AMSA12.jpg,AMNE14.jpg,AMNE19.jpg,AMNE14.jpg,MN,1,num_2,16,num_2,0.633487512474,,,2018_Feb_23_1624,60.0067554988,MAFE4ImagesEEG,001,203068,
AMNE22.JPG,AMSA24.JPG,AMSA22.JPG,AMNE25.JPG,AMNE24.JPG,AMSA25.JPG,,,,,,,,,,,,,,,,,0,6,6,7,,,,,,,AMSA10.jpg,AMNE07.jpg,AMNE05.jpg,AMSA19.jpg,AMNE05.jpg,MN,1,num_2,32,num_4,0.916746450472,,,2018_Feb_23_1624,60.0067554988,MAFE4ImagesEEG,001,203068,
AFNE23.JPG,AFNE24.JPG,AFNE22.JPG,AFSA24.JPG,AFSA22.JPG,AFSA23.JPG,,,,,,,,,,,,,,,,,0,7,7,8,,,,,,,AMNE13.jpg,AMSA03.jpg,AMNE12.jpg,AMSA15.jpg,AMSA03.jpg,MS,2,num_6,32,num_4,1.35006948805,,,2018_Feb_23_1624,60.0067554988,MAFE4ImagesEEG,001,203068,
AMSA25.JPG,AMNE24.JPG,AMSA24.JPG,AMNE26.JPG,AMSA21.JPG,AMNE25.JPG,,,,,,,,,,,,,,,,,0,8,8,3,,,,,,,AMSA01.jpg,AMSA16.jpg,AMNE06.jpg,AMNE01.jpg,AMSA16.jpg,MS,2,num_6,32,num_4,1.66672921076,,,2018_Feb_23_1624,60.0067554988,MAFE4ImagesEEG,001,203068,
AFSA21.JPG,AFNE23.JPG,AFNE21.JPG,AFSA25.JPG,AFNE25.JPG,AFSA23.JPG,,,,,,,,,,,,,,,,,0,9,9,4,,,,,,,AMSA08.jpg,AMNE07.jpg,AMSA06.jpg,AMNE13.jpg,AMSA08.jpg,MS,2,num_8,32,num_2,0.500161171192,,,2018_Feb_23_1624,60.0067554988,MAFE4ImagesEEG,001,203068,
AMSA21.JPG,AMNE23.JPG,AMNE21.JPG,AMSA25.JPG,AMNE25.JPG,AMSA23.JPG,,,,,,,,,,,,,,,,,,,,,0,0,0,5,,,AFNE06.jpg,AFSA13.jpg,AFSA03.jpg,AFNE18.jpg,AFNE06.jpg,FN,3,num_8,32,num_4,0.983438968658,,,2018_Feb_23_1624,60.0067554988,MAFE4ImagesEEG,001,203068,
AMNE22.JPG,AMSA24.JPG,AMSA22.JPG,AMNE25.JPG,AMNE24.JPG,AMSA25.JPG,,,,,,,,,,,,,,,,,,,,,0,1,1,7,,,AFSA20.jpg,AFNE14.jpg,AFNE05.jpg,AFSA09.jpg,AFNE14.jpg,FN,3,num_6,16,num_6,0.916333980276,,,2018_Feb_23_1624,60.0067554988,MAFE4ImagesEEG,001,203068,
AFSA21.JPG,AFNE23.JPG,AFNE21.JPG,AFSA25.JPG,AFNE25.JPG,AFSA23.JPG,,,,,,,,,,,,,,,,,,,,,0,2,2,4,,,AFSA15.jpg,AFSA18.jpg,AFNE12.jpg,AFNE17.jpg,AFSA18.jpg,FS,4,num_6,16,num_6,0.500202546595,,,2018_Feb_23_1624,60.0067554988,MAFE4ImagesEEG,001,203068,
AMSA25.JPG,AMNE24.JPG,AMSA24.JPG,AMNE26.JPG,AMSA21.JPG,AMNE25.JPG,,,,,,,,,,,,,,,,,,,,,0,3,3,3,,,AFSA18.jpg,AFNE08.jpg,AFSA19.jpg,AFNE02.jpg,AFSA18.jpg,FS,4,num_8,16,num_8,1.10009971773,,,2018_Feb_23_1624,60.0067554988,MAFE4ImagesEEG,001,203068,
AFNE23.JPG,AFNE24.JPG,AFNE22.JPG,AFSA24.JPG,AFSA22.JPG,AFSA23.JPG,,,,,,,,,,,,,,,,,,,,,0,4,4,8,,,AFSA13.jpg,AFNE09.jpg,AFSA11.jpg,AFNE11.jpg,AFNE11.jpg,FN,3,num_4,16,num_4,2.04990023409,,,2018_Feb_23_1624,60.0067554988,MAFE4ImagesEEG,001,203068,
AMNE23.JPG,AMNE24.JPG,AMNE22.JPG,AMSA24.JPG,AMSA22.JPG,AMSA23.JPG,,,,,,,,,,,,,,,,,,,,,0,5,5,9,,,AFSA14.jpg,AFNE06.jpg,AFSA05.jpg,AFNE01.jpg,AFSA05.jpg,FS,4,num_2,32,num_4,1.05005611328,,,2018_Feb_23_1624,60.0067554988,MAFE4ImagesEEG,001,203068,
AMSA21.JPG,AMNE22.JPG,AMNE21.JPG,AMSA23.JPG,AMSA22.JPG,AMNE23.JPG,,,,,,,,,,,,,,,,,,,,,0,6,6,1,,,AFNE17.jpg,AFSA13.jpg,AFSA19.jpg,AFNE03.jpg,AFSA13.jpg,FS,4,num_6,16,num_6,0.766763497726,,,2018_Feb_23_1624,60.0067554988,MAFE4ImagesEEG,001,203068,
AFSA25.JPG,AFNE24.JPG,AFSA24.JPG,AFNE21.JPG,AFSA21.JPG,AFNE25.JPG,,,,,,,,,,,,,,,,,,,,,0,7,7,2,,,AFSA10.jpg,AFNE13.jpg,AFSA07.jpg,AFNE01.jpg,AFNE13.jpg,FN,3,num_6,16,num_6,1.06676404306,,,2018_Feb_23_1624,60.0067554988,MAFE4ImagesEEG,001,203068,
AFNE22.JPG,AFSA24.JPG,AFSA22.JPG,AFNE25.JPG,AFNE24.JPG,AFSA25.JPG,,,,,,,,,,,,,,,,,,,,,0,8,8,6,,,AFSA15.jpg,AFNE20.jpg,AFNE05.jpg,AFSA18.jpg,AFNE05.jpg,FN,3,num_2,16,num_2,1.21673320397,,,2018_Feb_23_1624,60.0067554988,MAFE4ImagesEEG,001,203068,
AFSA21.JPG,AFNE22.JPG,AFNE21.JPG,AFSA23.JPG,AFSA22.JPG,AFNE23.JPG,,,,,,,,,,,,,,,,,,,,,0,9,9,0,,,AFNE02.jpg,AFSA11.jpg,AFSA10.jpg,AFNE15.jpg,AFSA11.jpg,FS,4,num_6,16,num_6,1.13347901299,,,2018_Feb_23_1624,60.0067554988,MAFE4ImagesEEG,001,203068,
,,,,,,,,,,,,,,,,,,,,,,,,,,,,,,,,,,,,,,,,,,,space,7.03290043201,2018_Feb_23_1624,60.0067554988,MAFE4ImagesEEG,001,203068,
AFNE01.JPG,AFNE01.JPG,AFNE01.JPG,AFNE01.JPG,AFNE01.JPG,AFNE01.JPG,0,0,0,5,,,,,,,,,,,,,,,,,,,,,,,AMSA19.jpg,AMSA06.jpg,AMNE17.jpg,AMNE13.jpg,AMNE13.jpg,MN,1,num_4,32,num_2,0.933511471725,,,2018_Feb_23_1624,60.0067554988,MAFE4ImagesEEG,001,203068,
AFNE01.JPG,AFNE01.JPG,AFNE01.JPG,AFNE01.JPG,AFNE01.JPG,AFNE01.JPG,0,1,1,4,,,,,,,,,,,,,,,,,,,,,,,AMNE05.jpg,AMSA15.jpg,AMSA07.jpg,AMNE13.jpg,AMSA07.jpg,MS,2,num_2,16,num_2,0.833479429944,,,2018_Feb_23_1624,60.0067554988,MAFE4ImagesEEG,001,203068,
AFNE01.JPG,AFNE01.JPG,AFNE01.JPG,AFNE01.JPG,AFNE01.JPG,AFNE01.JPG,0,2,2,3,,,,,,,,,,,,,,,,,,,,,,,AMNE11.jpg,AMSA03.jpg,AMSA06.jpg,AMNE03.jpg,AMNE11.jpg,MN,1,num_8,32,num_6,1.41672127252,,,2018_Feb_23_1624,60.0067554988,MAFE4ImagesEEG,001,203068,
AFNE01.JPG,AFNE01.JPG,AFNE01.JPG,AFNE01.JPG,AFNE01.JPG,AFNE01.JPG,0,3,3,6,,,,,,,,,,,,,,,,,,,,,,,AMSA08.jpg,AMNE16.jpg,AMNE11.jpg,AMSA11.jpg,AMSA08.jpg,MS,2,num_8,32,num_6,1.30038928078,,,2018_Feb_23_1624,60.0067554988,MAFE4ImagesEEG,001,203068,
AFNE01.JPG,AFNE01.JPG,AFNE01.JPG,AFNE01.JPG,AFNE01.JPG,AFNE01.JPG,0,4,4,8,,,,,,,,,,,,,,,,,,,,,,,AMSA19.jpg,AMNE06.jpg,AMSA05.jpg,AMNE11.jpg,AMNE06.jpg,MN,1,num_6,16,num_6,0.800109436037,,,2018_Feb_23_1624,60.0067554988,MAFE4ImagesEEG,001,203068,
AFNE01.JPG,AFNE01.JPG,AFNE01.JPG,AFNE01.JPG,AFNE01.JPG,AFNE01.JPG,0,5,5,1,,,,,,,,,,,,,,,,,,,,,,,AMNE02.jpg,AMSA19.jpg,AMSA09.jpg,AMNE01.jpg,AMSA09.jpg,MS,2,num_2,32,num_6,1.05013629794,,,2018_Feb_23_1624,60.0067554988,MAFE4ImagesEEG,001,203068,
AFNE01.JPG,AFNE01.JPG,AFNE01.JPG,AFNE01.JPG,AFNE01.JPG,AFNE01.JPG,0,6,6,0,,,,,,,,,,,,,,,,,,,,,,,AMNE20.jpg,AMSA12.jpg,AMSA05.jpg,AMNE10.jpg,AMSA12.jpg,MS,2,num_6,16,num_6,0.750129337888,,,2018_Feb_23_1624,60.0067554988,MAFE4ImagesEEG,001,203068,
AFNE01.JPG,AFNE01.JPG,AFNE01.JPG,AFNE01.JPG,AFNE01.JPG,AFNE01.JPG,0,7,7,2,,,,,,,,,,,,,,,,,,,,,,,AMNE05.jpg,AMNE12.jpg,AMSA14.jpg,AMSA08.jpg,AMSA14.jpg,MS,2,num_2,16,num_2,1.13345142943,,,2018_Feb_23_1624,60.0067554988,MAFE4ImagesEEG,001,203068,
AFNE01.JPG,AFNE01.JPG,AFNE01.JPG,AFNE01.JPG,AFNE01.JPG,AFNE01.JPG,0,8,8,7,,,,,,,,,,,,,,,,,,,,,,,AMNE14.jpg,AMSA19.jpg,AMSA01.jpg,AMNE04.jpg,AMSA19.jpg,MS,2,num_6,16,num_6,0.633474041591,,,2018_Feb_23_1624,60.0067554988,MAFE4ImagesEEG,001,203068,
AFNE01.JPG,AFNE01.JPG,AFNE01.JPG,AFNE01.JPG,AFNE01.JPG,AFNE01.JPG,0,9,9,9,,,,,,,,,,,,,,,,,,,,,,,AMSA07.jpg,AMNE14.jpg,AMNE03.jpg,AMSA05.jpg,AMSA07.jpg,MS,2,num_8,32,num_4,1.0001635768,,,2018_Feb_23_1624,60.0067554988,MAFE4ImagesEEG,001,203068,
AFNE01.JPG,AFNE01.JPG,AFNE01.JPG,AFNE01.JPG,AFNE01.JPG,AFNE01.JPG,1,0,10,0,,,,,,,,,,,,,,,,,,,,,,,AMSA03.jpg,AMNE20.jpg,AMNE09.jpg,AMSA01.jpg,AMSA01.jpg,MS,2,num_4,16,num_4,0.53347567725,,,2018_Feb_23_1624,60.0067554988,MAFE4ImagesEEG,001,203068,
AFNE01.JPG,AFNE01.JPG,AFNE01.JPG,AFNE01.JPG,AFNE01.JPG,AFNE01.JPG,1,1,11,2,,,,,,,,,,,,,,,,,,,,,,,AMSA04.jpg,AMNE13.jpg,AMSA19.jpg,AMNE04.jpg,AMSA19.jpg,MS,2,num_2,16,num_2,0.750114263268,,,2018_Feb_23_1624,60.0067554988,MAFE4ImagesEEG,001,203068,
AFNE01.JPG,AFNE01.JPG,AFNE01.JPG,AFNE01.JPG,AFNE01.JPG,AFNE01.JPG,1,2,12,9,,,,,,,,,,,,,,,,,,,,,,,AMNE02.jpg,AMNE19.jpg,AMSA01.jpg,AMSA16.jpg,AMNE02.jpg,MN,1,num_8,32,num_2,0.950095916982,,,2018_Feb_23_1624,60.0067554988,MAFE4ImagesEEG,001,203068,
AFNE01.JPG,AFNE01.JPG,AFNE01.JPG,AFNE01.JPG,AFNE01.JPG,AFNE01.JPG,1,3,13,5,,,,,,,,,,,,,,,,,,,,,,,AMSA01.jpg,AMSA12.jpg,AMNE16.jpg,AMNE20.jpg,AMNE20.jpg,MN,1,num_4,16,num_4,0.666642611264,,,2018_Feb_23_1624,60.0067554988,MAFE4ImagesEEG,001,203068,
AFNE01.JPG,AFNE01.JPG,AFNE01.JPG,AFNE01.JPG,AFNE01.JPG,AFNE01.JPG,1,4,14,1,,,,,,,,,,,,,,,,,,,,,,,AMNE12.jpg,AMNE15.jpg,AMSA02.jpg,AMSA01.jpg,AMSA01.jpg,MS,2,num_4,16,num_4,0.400226313388,,,2018_Feb_23_1624,60.0067554988,MAFE4ImagesEEG,001,203068,
AFNE01.JPG,AFNE01.JPG,AFNE01.JPG,AFNE01.JPG,AFNE01.JPG,AFNE01.JPG,1,5,15,8,,,,,,,,,,,,,,,,,,,,,,,AMNE10.jpg,AMSA08.jpg,AMNE08.jpg,AMSA06.jpg,AMSA06.jpg,MS,2,num_4,32,num_8,1.38366207469,,,2018_Feb_23_1624,60.0067554988,MAFE4ImagesEEG,001,203068,
AFNE01.JPG,AFNE01.JPG,AFNE01.JPG,AFNE01.JPG,AFNE01.JPG,AFNE01.JPG,1,6,16,6,,,,,,,,,,,,,,,,,,,,,,,AMNE16.jpg,AMSA15.jpg,AMSA12.jpg,AMNE17.jpg,AMNE17.jpg,MN,1,num_4,16,num_4,0.683475949802,,,2018_Feb_23_1624,60.0067554988,MAFE4ImagesEEG,001,203068,
AFNE01.JPG,AFNE01.JPG,AFNE01.JPG,AFNE01.JPG,AFNE01.JPG,AFNE01.JPG,1,7,17,3,,,,,,,,,,,,,,,,,,,,,,,AMNE02.jpg,AMSA02.jpg,AMNE16.jpg,AMSA08.jpg,AMNE02.jpg,MN,1,num_8,32,num_4,0.700121014728,,,2018_Feb_23_1624,60.0067554988,MAFE4ImagesEEG,001,203068,
AFNE01.JPG,AFNE01.JPG,AFNE01.JPG,AFNE01.JPG,AFNE01.JPG,AFNE01.JPG,1,8,18,7,,,,,,,,,,,,,,,,,,,,,,,AMNE03.jpg,AMNE16.jpg,AMSA19.jpg,AMSA14.jpg,AMNE03.jpg,MN,1,num_8,32,num_4,0.800124510773,,,2018_Feb_23_1624,60.0067554988,MAFE4ImagesEEG,001,203068,
AFNE01.JPG,AFNE01.JPG,AFNE01.JPG,AFNE01.JPG,AFNE01.JPG,AFNE01.JPG,1,9,19,4,,,,,,,,,,,,,,,,,,,,,,,AMNE01.jpg,AMSA01.jpg,AMSA07.jpg,AMNE08.jpg,AMNE01.jpg,MN,1,num_8,16,num_8,1.16673065408,,,2018_Feb_23_1624,60.0067554988,MAFE4ImagesEEG,001,203068,
AFNE01.JPG,AFNE01.JPG,AFNE01.JPG,AFNE01.JPG,AFNE01.JPG,AFNE01.JPG,2,0,20,9,,,,,,,,,,,,,,,,,,,,,,,AMSA08.jpg,AMSA05.jpg,AMNE11.jpg,AMNE15.jpg,AMNE15.jpg,MN,1,num_4,16,num_4,0.750111376517,,,2018_Feb_23_1624,60.0067554988,MAFE4ImagesEEG,001,203068,
AFNE01.JPG,AFNE01.JPG,AFNE01.JPG,AFNE01.JPG,AFNE01.JPG,AFNE01.JPG,2,1,21,0,,,,,,,,,,,,,,,,,,,,,,,AMSA03.jpg,AMNE14.jpg,AMSA02.jpg,AMNE17.jpg,AMSA03.jpg,MS,2,num_8,16,num_8,1.25009742437,,,2018_Feb_23_1624,60.0067554988,MAFE4ImagesEEG,001,203068,
AFNE01.JPG,AFNE01.JPG,AFNE01.JPG,AFNE01.JPG,AFNE01.JPG,AFNE01.JPG,2,2,22,6,,,,,,,,,,,,,,,,,,,,,,,AMSA17.jpg,AMSA01.jpg,AMNE03.jpg,AMNE05.jpg,AMSA17.jpg,MS,2,num_8,32,num_4,0.933442833601,,,2018_Feb_23_1624,60.0067554988,MAFE4ImagesEEG,001,203068,
AFNE01.JPG,AFNE01.JPG,AFNE01.JPG,AFNE01.JPG,AFNE01.JPG,AFNE01.JPG,2,3,23,5,,,,,,,,,,,,,,,,,,,,,,,AMNE09.jpg,AMSA15.jpg,AMSA12.jpg,AMNE01.jpg,AMNE09.jpg,MN,1,num_8,16,num_8,1.88292357337,,,2018_Feb_23_1624,60.0067554988,MAFE4ImagesEEG,001,203068,
AFNE01.JPG,AFNE01.JPG,AFNE01.JPG,AFNE01.JPG,AFNE01.JPG,AFNE01.JPG,2,4,24,4,,,,,,,,,,,,,,,,,,,,,,,AMSA07.jpg,AMSA11.jpg,AMNE15.jpg,AMNE09.jpg,AMNE09.jpg,MN,1,num_4,16,num_4,1.06679900351,,,2018_Feb_23_1624,60.0067554988,MAFE4ImagesEEG,001,203068,
AFNE01.JPG,AFNE01.JPG,AFNE01.JPG,AFNE01.JPG,AFNE01.JPG,AFNE01.JPG,2,5,25,7,,,,,,,,,,,,,,,,,,,,,,,AMNE01.jpg,AMSA18.jpg,AMNE14.jpg,AMSA17.jpg,AMNE01.jpg,MN,1,num_8,16,num_8,0.500116267824,,,2018_Feb_23_1624,60.0067554988,MAFE4ImagesEEG,001,203068,
AFNE01.JPG,AFNE01.JPG,AFNE01.JPG,AFNE01.JPG,AFNE01.JPG,AFNE01.JPG,2,6,26,8,,,,,,,,,,,,,,,,,,,,,,,AMNE08.jpg,AMNE11.jpg,AMSA13.jpg,AMSA02.jpg,AMNE11.jpg,MN,1,num_6,32,num_4,1.13343667542,,,2018_Feb_23_1624,60.0067554988,MAFE4ImagesEEG,001,203068,
AFNE01.JPG,AFNE01.JPG,AFNE01.JPG,AFNE01.JPG,AFNE01.JPG,AFNE01.JPG,2,7,27,1,,,,,,,,,,,,,,,,,,,,,,,AMSA07.jpg,AMNE04.jpg,AMNE11.jpg,AMSA03.jpg,AMSA03.jpg,MS,2,num_4,32,num_6,0.950137612992,,,2018_Feb_23_1624,60.0067554988,MAFE4ImagesEEG,001,203068,
AFNE01.JPG,AFNE01.JPG,AFNE01.JPG,AFNE01.JPG,AFNE01.JPG,AFNE01.JPG,2,8,28,3,,,,,,,,,,,,,,,,,,,,,,,AMNE16.jpg,AMSA01.jpg,AMSA18.jpg,AMNE11.jpg,AMNE16.jpg,MN,1,num_8,16,num_8,0.91664734215,,,2018_Feb_23_1624,60.0067554988,MAFE4ImagesEEG,001,203068,
AFNE01.JPG,AFNE01.JPG,AFNE01.JPG,AFNE01.JPG,AFNE01.JPG,AFNE01.JPG,2,9,29,2,,,,,,,,,,,,,,,,,,,,,,,AMSA11.jpg,AMNE01.jpg,AMNE16.jpg,AMSA20.jpg,AMNE01.jpg,MN,1,num_6,32,num_4,0.900139553472,,,2018_Feb_23_1624,60.0067554988,MAFE4ImagesEEG,001,203068,
AFNE01.JPG,AFNE01.JPG,AFNE01.JPG,AFNE01.JPG,AFNE01.JPG,AFNE01.JPG,3,0,30,2,,,,,,,,,,,,,,,,,,,,,,,AMSA18.jpg,AMNE08.jpg,AMSA13.jpg,AMNE07.jpg,AMSA13.jpg,MS,2,num_2,16,num_2,1.70005365962,,,2018_Feb_23_1624,60.0067554988,MAFE4ImagesEEG,001,203068,
AFNE01.JPG,AFNE01.JPG,AFNE01.JPG,AFNE01.JPG,AFNE01.JPG,AFNE01.JPG,3,1,31,9,,,,,,,,,,,,,,,,,,,,,,,AMSA19.jpg,AMNE17.jpg,AMSA14.jpg,AMNE02.jpg,AMNE02.jpg,MN,1,num_4,16,num_4,1.10008977482,,,2018_Feb_23_1624,60.0067554988,MAFE4ImagesEEG,001,203068,
AFNE01.JPG,AFNE01.JPG,AFNE01.JPG,AFNE01.JPG,AFNE01.JPG,AFNE01.JPG,3,2,32,6,,,,,,,,,,,,,,,,,,,,,,,AMNE08.jpg,AMSA17.jpg,AMNE05.jpg,AMSA10.jpg,AMNE05.jpg,MN,1,num_2,32,num_6,1.30008073,,,2018_Feb_23_1624,60.0067554988,MAFE4ImagesEEG,001,203068,
AFNE01.JPG,AFNE01.JPG,AFNE01.JPG,AFNE01.JPG,AFNE01.JPG,AFNE01.JPG,3,3,33,1,,,,,,,,,,,,,,,,,,,,,,,AMNE18.jpg,AMNE06.jpg,AMSA07.jpg,AMSA09.jpg,AMNE06.jpg,MN,1,num_6,16,num_6,1.03342323645,,,2018_Feb_23_1624,60.0067554988,MAFE4ImagesEEG,001,203068,
AFNE01.JPG,AFNE01.JPG,AFNE01.JPG,AFNE01.JPG,AFNE01.JPG,AFNE01.JPG,3,4,34,0,,,,,,,,,,,,,,,,,,,,,,,AMSA17.jpg,AMNE11.jpg,AMSA19.jpg,AMNE13.jpg,AMNE11.jpg,MN,1,num_6,32,num_2,0.750171034015,,,2018_Feb_23_1624,60.0067554988,MAFE4ImagesEEG,001,203068,
AFNE01.JPG,AFNE01.JPG,AFNE01.JPG,AFNE01.JPG,AFNE01.JPG,AFNE01.JPG,3,5,35,4,,,,,,,,,,,,,,,,,,,,,,,AMSA04.jpg,AMNE17.jpg,AMSA03.jpg,AMNE11.jpg,AMSA04.jpg,MS,2,num_8,16,num_8,0.850119683775,,,2018_Feb_23_1624,60.0067554988,MAFE4ImagesEEG,001,203068,
AFNE01.JPG,AFNE01.JPG,AFNE01.JPG,AFNE01.JPG,AFNE01.JPG,AFNE01.JPG,3,6,36,5,,,,,,,,,,,,,,,,,,,,,,,AMNE08.jpg,AMNE18.jpg,AMSA11.jpg,AMSA15.jpg,AMSA15.jpg,MS,2,num_4,32,num_2,0.750143450452,,,2018_Feb_23_1624,60.0067554988,MAFE4ImagesEEG,001,203068,
AFNE01.JPG,AFNE01.JPG,AFNE01.JPG,AFNE01.JPG,AFNE01.JPG,AFNE01.JPG,3,7,37,8,,,,,,,,,,,,,,,,,,,,,,,AMSA02.jpg,AMSA04.jpg,AMNE03.jpg,AMNE18.jpg,AMSA04.jpg,MS,2,num_6,16,num_6,0.733704299899,,,2018_Feb_23_1624,60.0067554988,MAFE4ImagesEEG,001,203068,
AFNE01.JPG,AFNE01.JPG,AFNE01.JPG,AFNE01.JPG,AFNE01.JPG,AFNE01.JPG,3,8,38,3,,,,,,,,,,,,,,,,,,,,,,,AMSA12.jpg,AMSA02.jpg,AMNE17.jpg,AMNE11.jpg,AMNE11.jpg,MN,1,num_4,32,num_2,1.20006600802,,,2018_Feb_23_1624,60.0067554988,MAFE4ImagesEEG,001,203068,
AFNE01.JPG,AFNE01.JPG,AFNE01.JPG,AFNE01.JPG,AFNE01.JPG,AFNE01.JPG,3,9,39,7,,,,,,,,,,,,,,,,,,,,,,,AMNE02.jpg,AMNE18.jpg,AMSA01.jpg,AMSA19.jpg,AMSA01.jpg,MS,2,num_2,32,num_4,0.89999105141,,,2018_Feb_23_1624,60.0067554988,MAFE4ImagesEEG,001,203068,
AFNE01.JPG,AFNE01.JPG,AFNE01.JPG,AFNE01.JPG,AFNE01.JPG,AFNE01.JPG,4,0,40,3,,,,,,,,,,,,,,,,,,,,,,,AMSA03.jpg,AMNE02.jpg,AMSA13.jpg,AMNE09.jpg,AMSA13.jpg,MS,2,num_2,16,num_2,0.733440331765,,,2018_Feb_23_1624,60.0067554988,MAFE4ImagesEEG,001,203068,
AFNE01.JPG,AFNE01.JPG,AFNE01.JPG,AFNE01.JPG,AFNE01.JPG,AFNE01.JPG,4,1,41,7,,,,,,,,,,,,,,,,,,,,,,,AMSA14.jpg,AMSA13.jpg,AMNE14.jpg,AMNE03.jpg,AMSA13.jpg,MS,2,num_6,32,num_4,0.900134421652,,,2018_Feb_23_1624,60.0067554988,MAFE4ImagesEEG,001,203068,
AFNE01.JPG,AFNE01.JPG,AFNE01.JPG,AFNE01.JPG,AFNE01.JPG,AFNE01.JPG,4,2,42,1,,,,,,,,,,,,,,,,,,,,,,,AMSA10.jpg,AMNE05.jpg,AMSA07.jpg,AMNE03.jpg,AMNE03.jpg,MN,1,num_4,32,num_6,1.38343467086,,,2018_Feb_23_1624,60.0067554988,MAFE4ImagesEEG,001,203068,
AFNE01.JPG,AFNE01.JPG,AFNE01.JPG,AFNE01.JPG,AFNE01.JPG,AFNE01.JPG,4,3,43,6,,,,,,,,,,,,,,,,,,,,,,,AMNE10.jpg,AMSA01.jpg,AMNE19.jpg,AMSA09.jpg,AMSA09.jpg,MS,2,num_4,16,num_4,0.616785356076,,,2018_Feb_23_1624,60.0067554988,MAFE4ImagesEEG,001,203068,
AFNE01.JPG,AFNE01.JPG,AFNE01.JPG,AFNE01.JPG,AFNE01.JPG,AFNE01.JPG,4,4,44,2,,,,,,,,,,,,,,,,,,,,,,,AMSA05.jpg,AMNE07.jpg,AMNE14.jpg,AMSA11.jpg,AMNE14.jpg,MN,1,num_2,16,num_2,1.20010064787,,,2018_Feb_23_1624,60.0067554988,MAFE4ImagesEEG,001,203068,
AFNE01.JPG,AFNE01.JPG,AFNE01.JPG,AFNE01.JPG,AFNE01.JPG,AFNE01.JPG,4,5,45,8,,,,,,,,,,,,,,,,,,,,,,,AMNE16.jpg,AMSA17.jpg,AMSA14.jpg,AMNE07.jpg,AMNE16.jpg,MN,1,num_8,32,num_4,1.60010597215,,,2018_Feb_23_1624,60.0067554988,MAFE4ImagesEEG,001,203068,
AFNE01.JPG,AFNE01.JPG,AFNE01.JPG,AFNE01.JPG,AFNE01.JPG,AFNE01.JPG,4,6,46,5,,,,,,,,,,,,,,,,,,,,,,,AMNE06.jpg,AMNE19.jpg,AMSA20.jpg,AMSA17.jpg,AMNE06.jpg,MN,1,num_8,32,num_6,0.71680328541,,,2018_Feb_23_1624,60.0067554988,MAFE4ImagesEEG,001,203068,
AFNE01.JPG,AFNE01.JPG,AFNE01.JPG,AFNE01.JPG,AFNE01.JPG,AFNE01.JPG,4,7,47,9,,,,,,,,,,,,,,,,,,,,,,,AMNE18.jpg,AMSA11.jpg,AMNE01.jpg,AMSA14.jpg,AMSA14.jpg,MS,2,num_4,16,num_4,0.950111633167,,,2018_Feb_23_1624,60.0067554988,MAFE4ImagesEEG,001,203068,
AFNE01.JPG,AFNE01.JPG,AFNE01.JPG,AFNE01.JPG,AFNE01.JPG,AFNE01.JPG,4,8,48,4,,,,,,,,,,,,,,,,,,,,,,,AMSA09.jpg,AMNE02.jpg,AMNE12.jpg,AMSA17.jpg,AMNE02.jpg,MN,1,num_6,32,num_4,0.916772751021,,,2018_Feb_23_1624,60.0067554988,MAFE4ImagesEEG,001,203068,
AFNE01.JPG,AFNE01.JPG,AFNE01.JPG,AFNE01.JPG,AFNE01.JPG,AFNE01.JPG,4,9,49,0,,,,,,,,,,,,,,,,,,,,,,,AMSA06.jpg,AMNE08.jpg,AMSA04.jpg,AMNE04.jpg,AMNE08.jpg,MN,1,num_6,32,num_4,0.86673620285,,,2018_Feb_23_1624,60.0067554988,MAFE4ImagesEEG,001,203068,
AFNE01.JPG,AFNE01.JPG,AFNE01.JPG,AFNE01.JPG,AFNE01.JPG,AFNE01.JPG,5,0,50,3,,,,,,,,,,,,,,,,,,,,,,,AMNE07.jpg,AMSA14.jpg,AMNE17.jpg,AMSA20.jpg,AMNE07.jpg,MN,1,num_8,32,num_2,1.53342211386,,,2018_Feb_23_1624,60.0067554988,MAFE4ImagesEEG,001,203068,
AFNE01.JPG,AFNE01.JPG,AFNE01.JPG,AFNE01.JPG,AFNE01.JPG,AFNE01.JPG,5,1,51,9,,,,,,,,,,,,,,,,,,,,,,,AMNE06.jpg,AMSA05.jpg,AMNE19.jpg,AMSA06.jpg,AMNE19.jpg,MN,1,num_2,32,num_4,0.716782437288,,,2018_Feb_23_1624,60.0067554988,MAFE4ImagesEEG,001,203068,
AFNE01.JPG,AFNE01.JPG,AFNE01.JPG,AFNE01.JPG,AFNE01.JPG,AFNE01.JPG,5,2,52,4,,,,,,,,,,,,,,,,,,,,,,,AMNE05.jpg,AMSA02.jpg,AMSA08.jpg,AMNE03.jpg,AMSA02.jpg,MS,2,num_6,32,num_4,0.733499989263,,,2018_Feb_23_1624,60.0067554988,MAFE4ImagesEEG,001,203068,
AFNE01.JPG,AFNE01.JPG,AFNE01.JPG,AFNE01.JPG,AFNE01.JPG,AFNE01.JPG,5,3,53,8,,,,,,,,,,,,,,,,,,,,,,,AMSA05.jpg,AMSA13.jpg,AMNE10.jpg,AMNE08.jpg,AMSA05.jpg,MS,2,num_8,16,num_8,0.866797784693,,,2018_Feb_23_1624,60.0067554988,MAFE4ImagesEEG,001,203068,
AFNE01.JPG,AFNE01.JPG,AFNE01.JPG,AFNE01.JPG,AFNE01.JPG,AFNE01.JPG,5,4,54,6,,,,,,,,,,,,,,,,,,,,,,,AMNE18.jpg,AMSA01.jpg,AMNE16.jpg,AMSA04.jpg,AMSA04.jpg,MS,2,num_4,32,num_6,1.20008845977,,,2018_Feb_23_1624,60.0067554988,MAFE4ImagesEEG,001,203068,
AFNE01.JPG,AFNE01.JPG,AFNE01.JPG,AFNE01.JPG,AFNE01.JPG,AFNE01.JPG,5,5,55,2,,,,,,,,,,,,,,,,,,,,,,,AMSA02.jpg,AMNE02.jpg,AMNE15.jpg,AMSA10.jpg,AMNE15.jpg,MN,1,num_2,32,num_4,1.60006555903,,,2018_Feb_23_1624,60.0067554988,MAFE4ImagesEEG,001,203068,
AFNE01.JPG,AFNE01.JPG,AFNE01.JPG,AFNE01.JPG,AFNE01.JPG,AFNE01.JPG,5,6,56,5,,,,,,,,,,,,,,,,,,,,,,,AMNE16.jpg,AMNE17.jpg,AMSA08.jpg,AMSA04.jpg,AMSA04.jpg,MS,2,num_4,32,num_2,0.900125440909,,,2018_Feb_23_1624,60.0067554988,MAFE4ImagesEEG,001,203068,
AFNE01.JPG,AFNE01.JPG,AFNE01.JPG,AFNE01.JPG,AFNE01.JPG,AFNE01.JPG,5,7,57,0,,,,,,,,,,,,,,,,,,,,,,,AMNE11.jpg,AMNE06.jpg,AMSA11.jpg,AMSA02.jpg,AMSA02.jpg,MS,2,num_4,16,num_4,0.716773456661,,,2018_Feb_23_1624,60.0067554988,MAFE4ImagesEEG,001,203068,
AFNE01.JPG,AFNE01.JPG,AFNE01.JPG,AFNE01.JPG,AFNE01.JPG,AFNE01.JPG,5,8,58,1,,,,,,,,,,,,,,,,,,,,,,,AMSA02.jpg,AMNE01.jpg,AMSA10.jpg,AMNE20.jpg,AMSA02.jpg,MS,2,num_8,32,num_6,1.23343086999,,,2018_Feb_23_1624,60.0067554988,MAFE4ImagesEEG,001,203068,
AFNE01.JPG,AFNE01.JPG,AFNE01.JPG,AFNE01.JPG,AFNE01.JPG,AFNE01.JPG,5,9,59,7,,,,,,,,,,,,,,,,,,,,,,,AMSA13.jpg,AMNE18.jpg,AMNE06.jpg,AMSA16.jpg,AMNE18.jpg,MN,1,num_6,16,num_6,0.817104747868,,,2018_Feb_23_1624,60.0067554988,MAFE4ImagesEEG,001,203068,
,,,,,,,,,,,,,,,,,,,,,,,,,,,,,,,,,,,,,,,,,,,space,27.7812294626,2018_Feb_23_1624,60.0067554988,MAFE4ImagesEEG,001,203068,
AFNE01.JPG,AFNE01.JPG,AFNE01.JPG,AFNE01.JPG,AFNE01.JPG,AFNE01.JPG,,,,,0,0,0,2,,,,,,,,,,,,,,,,,,,AFNE04.jpg,AFNE01.jpg,AFSA11.jpg,AFSA03.jpg,AFNE04.jpg,FN,3,num_8,16,num_8,1.00009141059,,,2018_Feb_23_1624,60.0067554988,MAFE4ImagesEEG,001,203068,
AFNE01.JPG,AFNE01.JPG,AFNE01.JPG,AFNE01.JPG,AFNE01.JPG,AFNE01.JPG,,,,,0,1,1,9,,,,,,,,,,,,,,,,,,,AFSA14.jpg,AFNE16.jpg,AFSA03.jpg,AFNE20.jpg,AFNE16.jpg,FN,3,num_6,32,num_4,0.816815762082,,,2018_Feb_23_1624,60.0067554988,MAFE4ImagesEEG,001,203068,
AFNE01.JPG,AFNE01.JPG,AFNE01.JPG,AFNE01.JPG,AFNE01.JPG,AFNE01.JPG,,,,,0,2,2,5,,,,,,,,,,,,,,,,,,,AFSA19.jpg,AFSA13.jpg,AFNE07.jpg,AFNE14.jpg,AFNE14.jpg,FN,3,num_4,16,num_4,0.750144412625,,,2018_Feb_23_1624,60.0067554988,MAFE4ImagesEEG,001,203068,
AFNE01.JPG,AFNE01.JPG,AFNE01.JPG,AFNE01.JPG,AFNE01.JPG,AFNE01.JPG,,,,,0,3,3,4,,,,,,,,,,,,,,,,,,,AFSA17.jpg,AFNE13.jpg,AFSA11.jpg,AFNE11.jpg,AFNE13.jpg,FN,3,num_6,32,num_8,0.816760595073,,,2018_Feb_23_1624,60.0067554988,MAFE4ImagesEEG,001,203068,
AFNE01.JPG,AFNE01.JPG,AFNE01.JPG,AFNE01.JPG,AFNE01.JPG,AFNE01.JPG,,,,,0,4,4,3,,,,,,,,,,,,,,,,,,,AFNE17.jpg,AFNE10.jpg,AFSA12.jpg,AFSA18.jpg,AFNE10.jpg,FN,3,num_6,32,num_8,0.866864498472,,,2018_Feb_23_1624,60.0067554988,MAFE4ImagesEEG,001,203068,
AFNE01.JPG,AFNE01.JPG,AFNE01.JPG,AFNE01.JPG,AFNE01.JPG,AFNE01.JPG,,,,,0,5,5,6,,,,,,,,,,,,,,,,,,,AFSA08.jpg,AFNE10.jpg,AFSA06.jpg,AFNE12.jpg,AFSA06.jpg,FS,4,num_2,32,num_8,0.866802595789,,,2018_Feb_23_1624,60.0067554988,MAFE4ImagesEEG,001,203068,
AFNE01.JPG,AFNE01.JPG,AFNE01.JPG,AFNE01.JPG,AFNE01.JPG,AFNE01.JPG,,,,,0,6,6,7,,,,,,,,,,,,,,,,,,,AFNE01.jpg,AFNE09.jpg,AFSA12.jpg,AFSA07.jpg,AFSA07.jpg,FS,4,num_4,16,num_4,0.95010169025,,,2018_Feb_23_1624,60.0067554988,MAFE4ImagesEEG,001,203068,
AFNE01.JPG,AFNE01.JPG,AFNE01.JPG,AFNE01.JPG,AFNE01.JPG,AFNE01.JPG,,,,,0,7,7,1,,,,,,,,,,,,,,,,,,,AFSA19.jpg,AFNE13.jpg,AFSA11.jpg,AFNE06.jpg,AFNE06.jpg,FN,3,num_4,16,num_4,0.933452134952,,,2018_Feb_23_1624,60.0067554988,MAFE4ImagesEEG,001,203068,
AFNE01.JPG,AFNE01.JPG,AFNE01.JPG,AFNE01.JPG,AFNE01.JPG,AFNE01.JPG,,,,,0,8,8,0,,,,,,,,,,,,,,,,,,,AFSA17.jpg,AFNE13.jpg,AFNE09.jpg,AFSA09.jpg,AFNE09.jpg,FN,3,num_2,16,num_2,0.750137997791,,,2018_Feb_23_1624,60.0067554988,MAFE4ImagesEEG,001,203068,
AFNE01.JPG,AFNE01.JPG,AFNE01.JPG,AFNE01.JPG,AFNE01.JPG,AFNE01.JPG,,,,,0,9,9,8,,,,,,,,,,,,,,,,,,,AFNE08.jpg,AFSA03.jpg,AFSA05.jpg,AFNE16.jpg,AFSA03.jpg,FS,4,num_6,32,num_4,1.11677012104,,,2018_Feb_23_1624,60.0067554988,MAFE4ImagesEEG,001,203068,
AFNE01.JPG,AFNE01.JPG,AFNE01.JPG,AFNE01.JPG,AFNE01.JPG,AFNE01.JPG,,,,,1,0,10,0,,,,,,,,,,,,,,,,,,,AFSA13.jpg,AFSA03.jpg,AFNE14.jpg,AFNE08.jpg,AFNE08.jpg,FN,3,num_4,16,num_4,0.533322684816,,,2018_Feb_23_1624,60.0067554988,MAFE4ImagesEEG,001,203068,
AFNE01.JPG,AFNE01.JPG,AFNE01.JPG,AFNE01.JPG,AFNE01.JPG,AFNE01.JPG,,,,,1,1,11,5,,,,,,,,,,,,,,,,,,,AFNE01.jpg,AFSA16.jpg,AFNE10.jpg,AFSA15.jpg,AFNE10.jpg,FN,3,num_2,16,num_2,1.88343835936,,,2018_Feb_23_1624,60.0067554988,MAFE4ImagesEEG,001,203068,
AFNE01.JPG,AFNE01.JPG,AFNE01.JPG,AFNE01.JPG,AFNE01.JPG,AFNE01.JPG,,,,,1,2,12,6,,,,,,,,,,,,,,,,,,,AFSA04.jpg,AFNE18.jpg,AFSA14.jpg,AFNE01.jpg,AFSA14.jpg,FS,4,num_2,16,num_2,1.11653373647,,,2018_Feb_23_1624,60.0067554988,MAFE4ImagesEEG,001,203068,
AFNE01.JPG,AFNE01.JPG,AFNE01.JPG,AFNE01.JPG,AFNE01.JPG,AFNE01.JPG,,,,,1,3,13,2,,,,,,,,,,,,,,,,,,,AFSA01.jpg,AFSA06.jpg,AFNE10.jpg,AFNE07.jpg,AFSA06.jpg,FS,4,num_6,16,num_6,0.800169093534,,,2018_Feb_23_1624,60.0067554988,MAFE4ImagesEEG,001,203068,
AFNE01.JPG,AFNE01.JPG,AFNE01.JPG,AFNE01.JPG,AFNE01.JPG,AFNE01.JPG,,,,,1,4,14,1,,,,,,,,,,,,,,,,,,,AFSA04.jpg,AFSA10.jpg,AFNE02.jpg,AFNE14.jpg,AFNE02.jpg,FN,3,num_2,16,num_2,0.766846248414,,,2018_Feb_23_1624,60.0067554988,MAFE4ImagesEEG,001,203068,
AFNE01.JPG,AFNE01.JPG,AFNE01.JPG,AFNE01.JPG,AFNE01.JPG,AFNE01.JPG,,,,,1,5,15,4,,,,,,,,,,,,,,,,,,,AFNE13.jpg,AFSA05.jpg,AFSA04.jpg,AFNE12.jpg,AFNE13.jpg,FN,3,num_8,32,num_6,0.833450563368,,,2018_Feb_23_1624,60.0067554988,MAFE4ImagesEEG,001,203068,
AFNE01.JPG,AFNE01.JPG,AFNE01.JPG,AFNE01.JPG,AFNE01.JPG,AFNE01.JPG,,,,,1,6,16,9,,,,,,,,,,,,,,,,,,,AFSA14.jpg,AFNE14.jpg,AFSA04.jpg,AFNE09.jpg,AFNE09.jpg,FN,3,num_4,32,num_2,0.783429731382,,,2018_Feb_23_1624,60.0067554988,MAFE4ImagesEEG,001,203068,
AFNE01.JPG,AFNE01.JPG,AFNE01.JPG,AFNE01.JPG,AFNE01.JPG,AFNE01.JPG,,,,,1,7,17,8,,,,,,,,,,,,,,,,,,,AFNE01.jpg,AFNE09.jpg,AFSA08.jpg,AFSA09.jpg,AFNE01.jpg,FN,3,num_8,16,num_8,0.833648138563,,,2018_Feb_23_1624,60.0067554988,MAFE4ImagesEEG,001,203068,
AFNE01.JPG,AFNE01.JPG,AFNE01.JPG,AFNE01.JPG,AFNE01.JPG,AFNE01.JPG,,,,,1,8,18,3,,,,,,,,,,,,,,,,,,,AFSA11.jpg,AFNE02.jpg,AFNE14.jpg,AFSA07.jpg,AFSA11.jpg,FS,4,num_8,16,num_8,0.766747140093,,,2018_Feb_23_1624,60.0067554988,MAFE4ImagesEEG,001,203068,
AFNE01.JPG,AFNE01.JPG,AFNE01.JPG,AFNE01.JPG,AFNE01.JPG,AFNE01.JPG,,,,,1,9,19,7,,,,,,,,,,,,,,,,,,,AFSA19.jpg,AFNE16.jpg,AFSA06.jpg,AFNE06.jpg,AFSA06.jpg,FS,4,num_2,32,num_6,0.46680079971,,,2018_Feb_23_1624,60.0067554988,MAFE4ImagesEEG,001,203068,
AFNE01.JPG,AFNE01.JPG,AFNE01.JPG,AFNE01.JPG,AFNE01.JPG,AFNE01.JPG,,,,,2,0,20,8,,,,,,,,,,,,,,,,,,,AFSA10.jpg,AFSA04.jpg,AFNE19.jpg,AFNE16.jpg,AFSA04.jpg,FS,4,num_6,16,num_6,0.750146978535,,,2018_Feb_23_1624,60.0067554988,MAFE4ImagesEEG,001,203068,
AFNE01.JPG,AFNE01.JPG,AFNE01.JPG,AFNE01.JPG,AFNE01.JPG,AFNE01.JPG,,,,,2,1,21,3,,,,,,,,,,,,,,,,,,,AFSA14.jpg,AFSA15.jpg,AFNE15.jpg,AFNE12.jpg,AFSA15.jpg,FS,4,num_6,16,num_6,0.616822561831,,,2018_Feb_23_1624,60.0067554988,MAFE4ImagesEEG,001,203068,
AFNE01.JPG,AFNE01.JPG,AFNE01.JPG,AFNE01.JPG,AFNE01.JPG,AFNE01.JPG,,,,,2,2,22,0,,,,,,,,,,,,,,,,,,,AFNE03.jpg,AFNE20.jpg,AFSA11.jpg,AFSA01.jpg,AFNE20.jpg,FN,3,num_6,32,num_4,0.733508649282,,,2018_Feb_23_1624,60.0067554988,MAFE4ImagesEEG,001,203068,
AFNE01.JPG,AFNE01.JPG,AFNE01.JPG,AFNE01.JPG,AFNE01.JPG,AFNE01.JPG,,,,,2,3,23,4,,,,,,,,,,,,,,,,,,,AFNE13.jpg,AFSA15.jpg,AFNE16.jpg,AFSA07.jpg,AFSA07.jpg,FS,4,num_4,16,num_4,0.600188401993,,,2018_Feb_23_1624,60.0067554988,MAFE4ImagesEEG,001,203068,
AFNE01.JPG,AFNE01.JPG,AFNE01.JPG,AFNE01.JPG,AFNE01.JPG,AFNE01.JPG,,,,,2,4,24,1,,,,,,,,,,,,,,,,,,,AFSA13.jpg,AFNE07.jpg,AFNE11.jpg,AFSA03.jpg,AFNE11.jpg,FN,3,num_2,16,num_2,0.700140259112,,,2018_Feb_23_1624,60.0067554988,MAFE4ImagesEEG,001,203068,
AFNE01.JPG,AFNE01.JPG,AFNE01.JPG,AFNE01.JPG,AFNE01.JPG,AFNE01.JPG,,,,,2,5,25,7,,,,,,,,,,,,,,,,,,,AFSA18.jpg,AFSA15.jpg,AFNE10.jpg,AFNE18.jpg,AFSA15.jpg,FS,4,num_6,16,num_6,0.650130011491,,,2018_Feb_23_1624,60.0067554988,MAFE4ImagesEEG,001,203068,
AFNE01.JPG,AFNE01.JPG,AFNE01.JPG,AFNE01.JPG,AFNE01.JPG,AFNE01.JPG,,,,,2,6,26,6,,,,,,,,,,,,,,,,,,,AFNE13.jpg,AFSA02.jpg,AFNE14.jpg,AFSA04.jpg,AFNE13.jpg,FN,3,num_8,32,num_4,0.700218840153,,,2018_Feb_23_1624,60.0067554988,MAFE4ImagesEEG,001,203068,
AFNE01.JPG,AFNE01.JPG,AFNE01.JPG,AFNE01.JPG,AFNE01.JPG,AFNE01.JPG,,,,,2,7,27,9,,,,,,,,,,,,,,,,,,,AFNE02.jpg,AFSA14.jpg,AFNE14.jpg,AFSA15.jpg,AFSA14.jpg,FS,4,num_6,16,num_6,0.883519506198,,,2018_Feb_23_1624,60.0067554988,MAFE4ImagesEEG,001,203068,
AFNE01.JPG,AFNE01.JPG,AFNE01.JPG,AFNE01.JPG,AFNE01.JPG,AFNE01.JPG,,,,,2,8,28,2,,,,,,,,,,,,,,,,,,,AFSA20.jpg,AFNE06.jpg,AFNE11.jpg,AFSA08.jpg,AFSA08.jpg,FS,4,num_4,16,num_4,0.60014029115,,,2018_Feb_23_1624,60.0067554988,MAFE4ImagesEEG,001,203068,
AFNE01.JPG,AFNE01.JPG,AFNE01.JPG,AFNE01.JPG,AFNE01.JPG,AFNE01.JPG,,,,,2,9,29,5,,,,,,,,,,,,,,,,,,,AFNE20.jpg,AFNE19.jpg,AFSA16.jpg,AFSA14.jpg,AFSA16.jpg,FS,4,num_2,16,num_2,0.933308123262,,,2018_Feb_23_1624,60.0067554988,MAFE4ImagesEEG,001,203068,
AFNE01.JPG,AFNE01.JPG,AFNE01.JPG,AFNE01.JPG,AFNE01.JPG,AFNE01.JPG,,,,,3,0,30,3,,,,,,,,,,,,,,,,,,,AFSA02.jpg,AFSA12.jpg,AFNE12.jpg,AFNE14.jpg,AFNE14.jpg,FN,3,num_4,32,num_8,0.683510589646,,,2018_Feb_23_1624,60.0067554988,MAFE4ImagesEEG,001,203068,
AFNE01.JPG,AFNE01.JPG,AFNE01.JPG,AFNE01.JPG,AFNE01.JPG,AFNE01.JPG,,,,,3,1,31,6,,,,,,,,,,,,,,,,,,,AFSA09.jpg,AFSA04.jpg,AFNE05.jpg,AFNE09.jpg,AFSA04.jpg,FS,4,num_6,32,num_4,0.700125825824,,,2018_Feb_23_1624,60.0067554988,MAFE4ImagesEEG,001,203068,
AFNE01.JPG,AFNE01.JPG,AFNE01.JPG,AFNE01.JPG,AFNE01.JPG,AFNE01.JPG,,,,,3,2,32,1,,,,,,,,,,,,,,,,,,,AFSA13.jpg,AFNE15.jpg,AFSA07.jpg,AFNE14.jpg,AFNE14.jpg,FN,3,num_4,16,num_4,0.716746193939,,,2018_Feb_23_1624,60.0067554988,MAFE4ImagesEEG,001,203068,
AFNE01.JPG,AFNE01.JPG,AFNE01.JPG,AFNE01.JPG,AFNE01.JPG,AFNE01.JPG,,,,,3,3,33,8,,,,,,,,,,,,,,,,,,,AFSA19.jpg,AFNE11.jpg,AFSA15.jpg,AFNE02.jpg,AFSA19.jpg,FS,4,num_8,32,num_6,0.950087257079,,,2018_Feb_23_1624,60.0067554988,MAFE4ImagesEEG,001,203068,
AFNE01.JPG,AFNE01.JPG,AFNE01.JPG,AFNE01.JPG,AFNE01.JPG,AFNE01.JPG,,,,,3,4,34,2,,,,,,,,,,,,,,,,,,,AFSA03.jpg,AFNE19.jpg,AFNE20.jpg,AFSA19.jpg,AFNE19.jpg,FN,3,num_6,16,num_6,1.13348927652,,,2018_Feb_23_1624,60.0067554988,MAFE4ImagesEEG,001,203068,
AFNE01.JPG,AFNE01.JPG,AFNE01.JPG,AFNE01.JPG,AFNE01.JPG,AFNE01.JPG,,,,,3,5,35,9,,,,,,,,,,,,,,,,,,,AFNE04.jpg,AFSA01.jpg,AFSA08.jpg,AFNE06.jpg,AFNE06.jpg,FN,3,num_4,32,num_6,1.31644194096,,,2018_Feb_23_1624,60.0067554988,MAFE4ImagesEEG,001,203068,
AFNE01.JPG,AFNE01.JPG,AFNE01.JPG,AFNE01.JPG,AFNE01.JPG,AFNE01.JPG,,,,,3,6,36,7,,,,,,,,,,,,,,,,,,,AFSA04.jpg,AFNE13.jpg,AFSA14.jpg,AFNE09.jpg,AFNE09.jpg,FN,3,num_4,16,num_4,1.03341233137,,,2018_Feb_23_1624,60.0067554988,MAFE4ImagesEEG,001,203068,
AFNE01.JPG,AFNE01.JPG,AFNE01.JPG,AFNE01.JPG,AFNE01.JPG,AFNE01.JPG,,,,,3,7,37,4,,,,,,,,,,,,,,,,,,,AFNE07.jpg,AFSA18.jpg,AFNE09.jpg,AFSA13.jpg,AFSA18.jpg,FS,4,num_6,32,num_4,1.01669253432,,,2018_Feb_23_1624,60.0067554988,MAFE4ImagesEEG,001,203068,
AFNE01.JPG,AFNE01.JPG,AFNE01.JPG,AFNE01.JPG,AFNE01.JPG,AFNE01.JPG,,,,,3,8,38,5,,,,,,,,,,,,,,,,,,,AFSA17.jpg,AFSA18.jpg,AFNE03.jpg,AFNE06.jpg,AFNE06.jpg,FN,3,num_4,32,num_8,0.933492868789,,,2018_Feb_23_1624,60.0067554988,MAFE4ImagesEEG,001,203068,
AFNE01.JPG,AFNE01.JPG,AFNE01.JPG,AFNE01.JPG,AFNE01.JPG,AFNE01.JPG,,,,,3,9,39,0,,,,,,,,,,,,,,,,,,,AFNE16.jpg,AFSA13.jpg,AFNE15.jpg,AFSA17.jpg,AFSA13.jpg,FS,4,num_6,16,num_6,0.816806781339,,,2018_Feb_23_1624,60.0067554988,MAFE4ImagesEEG,001,203068,
AFNE01.JPG,AFNE01.JPG,AFNE01.JPG,AFNE01.JPG,AFNE01.JPG,AFNE01.JPG,,,,,4,0,40,5,,,,,,,,,,,,,,,,,,,AFSA01.jpg,AFNE19.jpg,AFNE03.jpg,AFSA08.jpg,AFNE19.jpg,FN,3,num_6,16,num_6,0.416834493284,,,2018_Feb_23_1624,60.0067554988,MAFE4ImagesEEG,001,203068,
AFNE01.JPG,AFNE01.JPG,AFNE01.JPG,AFNE01.JPG,AFNE01.JPG,AFNE01.JPG,,,,,4,1,41,9,,,,,,,,,,,,,,,,,,,AFNE08.jpg,AFNE17.jpg,AFSA09.jpg,AFSA01.jpg,AFNE08.jpg,FN,3,num_8,32,num_4,0.866792973597,,,2018_Feb_23_1624,60.0067554988,MAFE4ImagesEEG,001,203068,
AFNE01.JPG,AFNE01.JPG,AFNE01.JPG,AFNE01.JPG,AFNE01.JPG,AFNE01.JPG,,,,,4,2,42,4,,,,,,,,,,,,,,,,,,,AFSA05.jpg,AFSA04.jpg,AFNE14.jpg,AFNE03.jpg,AFNE14.jpg,FN,3,num_2,32,num_4,0.500166623853,,,2018_Feb_23_1624,60.0067554988,MAFE4ImagesEEG,001,203068,
AFNE01.JPG,AFNE01.JPG,AFNE01.JPG,AFNE01.JPG,AFNE01.JPG,AFNE01.JPG,,,,,4,3,43,0,,,,,,,,,,,,,,,,,,,AFNE01.jpg,AFSA02.jpg,AFNE06.jpg,AFSA10.jpg,AFSA10.jpg,FS,4,num_4,32,num_6,0.700111392536,,,2018_Feb_23_1624,60.0067554988,MAFE4ImagesEEG,001,203068,
AFNE01.JPG,AFNE01.JPG,AFNE01.JPG,AFNE01.JPG,AFNE01.JPG,AFNE01.JPG,,,,,4,4,44,3,,,,,,,,,,,,,,,,,,,AFSA15.jpg,AFSA07.jpg,AFNE15.jpg,AFNE10.jpg,AFSA07.jpg,FS,4,num_6,32,num_4,0.683456064085,,,2018_Feb_23_1624,60.0067554988,MAFE4ImagesEEG,001,203068,
AFNE01.JPG,AFNE01.JPG,AFNE01.JPG,AFNE01.JPG,AFNE01.JPG,AFNE01.JPG,,,,,4,5,45,2,,,,,,,,,,,,,,,,,,,AFNE16.jpg,AFSA17.jpg,AFSA05.jpg,AFNE12.jpg,AFSA17.jpg,FS,4,num_6,16,num_6,0.800134453806,,,2018_Feb_23_1624,60.0067554988,MAFE4ImagesEEG,001,203068,
AFNE01.JPG,AFNE01.JPG,AFNE01.JPG,AFNE01.JPG,AFNE01.JPG,AFNE01.JPG,,,,,4,6,46,7,,,,,,,,,,,,,,,,,,,AFSA04.jpg,AFSA17.jpg,AFNE03.jpg,AFNE18.jpg,AFNE18.jpg,FN,3,num_4,16,num_4,0.83344992192,,,2018_Feb_23_1624,60.0067554988,MAFE4ImagesEEG,001,203068,
AFNE01.JPG,AFNE01.JPG,AFNE01.JPG,AFNE01.JPG,AFNE01.JPG,AFNE01.JPG,,,,,4,7,47,1,,,,,,,,,,,,,,,,,,,AFSA09.jpg,AFNE15.jpg,AFNE20.jpg,AFSA02.jpg,AFSA02.jpg,FS,4,num_4,16,num_4,0.583492981154,,,2018_Feb_23_1624,60.0067554988,MAFE4ImagesEEG,001,203068,
AFNE01.JPG,AFNE01.JPG,AFNE01.JPG,AFNE01.JPG,AFNE01.JPG,AFNE01.JPG,,,,,4,8,48,6,,,,,,,,,,,,,,,,,,,AFSA08.jpg,AFNE17.jpg,AFSA20.jpg,AFNE04.jpg,AFNE17.jpg,FN,3,num_6,16,num_6,0.850083761034,,,2018_Feb_23_1624,60.0067554988,MAFE4ImagesEEG,001,203068,
AFNE01.JPG,AFNE01.JPG,AFNE01.JPG,AFNE01.JPG,AFNE01.JPG,AFNE01.JPG,,,,,4,9,49,8,,,,,,,,,,,,,,,,,,,AFSA04.jpg,AFNE01.jpg,AFSA07.jpg,AFNE09.jpg,AFSA04.jpg,FS,4,num_8,16,num_8,0.433485972928,,,2018_Feb_23_1624,60.0067554988,MAFE4ImagesEEG,001,203068,
AFNE01.JPG,AFNE01.JPG,AFNE01.JPG,AFNE01.JPG,AFNE01.JPG,AFNE01.JPG,,,,,5,0,50,8,,,,,,,,,,,,,,,,,,,AFSA20.jpg,AFSA08.jpg,AFNE16.jpg,AFNE18.jpg,AFNE16.jpg,FN,3,num_2,32,num_8,0.766862606048,,,2018_Feb_23_1624,60.0067554988,MAFE4ImagesEEG,001,203068,
AFNE01.JPG,AFNE01.JPG,AFNE01.JPG,AFNE01.JPG,AFNE01.JPG,AFNE01.JPG,,,,,5,1,51,1,,,,,,,,,,,,,,,,,,,AFSA11.jpg,AFSA06.jpg,AFNE10.jpg,AFNE14.jpg,AFSA06.jpg,FS,4,num_6,32,num_4,0.73353302537,,,2018_Feb_23_1624,60.0067554988,MAFE4ImagesEEG,001,203068,
AFNE01.JPG,AFNE01.JPG,AFNE01.JPG,AFNE01.JPG,AFNE01.JPG,AFNE01.JPG,,,,,5,2,52,5,,,,,,,,,,,,,,,,,,,AFNE03.jpg,AFSA07.jpg,AFNE19.jpg,AFSA09.jpg,AFNE03.jpg,FN,3,num_8,32,num_2,0.716778267757,,,2018_Feb_23_1624,60.0067554988,MAFE4ImagesEEG,001,203068,
AFNE01.JPG,AFNE01.JPG,AFNE01.JPG,AFNE01.JPG,AFNE01.JPG,AFNE01.JPG,,,,,5,3,53,0,,,,,,,,,,,,,,,,,,,AFSA03.jpg,AFNE15.jpg,AFSA02.jpg,AFNE13.jpg,AFSA03.jpg,FS,4,num_8,16,num_8,0.583490735968,,,2018_Feb_23_1624,60.0067554988,MAFE4ImagesEEG,001,203068,
AFNE01.JPG,AFNE01.JPG,AFNE01.JPG,AFNE01.JPG,AFNE01.JPG,AFNE01.JPG,,,,,5,4,54,7,,,,,,,,,,,,,,,,,,,AFNE07.jpg,AFNE17.jpg,AFSA14.jpg,AFSA05.jpg,AFSA14.jpg,FS,4,num_2,32,num_8,1.16676946345,,,2018_Feb_23_1624,60.0067554988,MAFE4ImagesEEG,001,203068,
AFNE01.JPG,AFNE01.JPG,AFNE01.JPG,AFNE01.JPG,AFNE01.JPG,AFNE01.JPG,,,,,5,5,55,9,,,,,,,,,,,,,,,,,,,AFNE10.jpg,AFNE15.jpg,AFSA05.jpg,AFSA06.jpg,AFNE15.jpg,FN,3,num_6,16,num_6,0.950220684404,,,2018_Feb_23_1624,60.0067554988,MAFE4ImagesEEG,001,203068,
AFNE01.JPG,AFNE01.JPG,AFNE01.JPG,AFNE01.JPG,AFNE01.JPG,AFNE01.JPG,,,,,5,6,56,3,,,,,,,,,,,,,,,,,,,AFNE18.jpg,AFSA08.jpg,AFNE10.jpg,AFSA16.jpg,AFSA08.jpg,FS,4,num_6,32,num_4,0.783409204101,,,2018_Feb_23_1624,60.0067554988,MAFE4ImagesEEG,001,203068,
AFNE01.JPG,AFNE01.JPG,AFNE01.JPG,AFNE01.JPG,AFNE01.JPG,AFNE01.JPG,,,,,5,7,57,6,,,,,,,,,,,,,,,,,,,AFNE08.jpg,AFSA13.jpg,AFNE20.jpg,AFSA15.jpg,AFNE20.jpg,FN,3,num_2,32,num_4,0.95009399252,,,2018_Feb_23_1624,60.0067554988,MAFE4ImagesEEG,001,203068,
AFNE01.JPG,AFNE01.JPG,AFNE01.JPG,AFNE01.JPG,AFNE01.JPG,AFNE01.JPG,,,,,5,8,58,2,,,,,,,,,,,,,,,,,,,AFSA02.jpg,AFSA10.jpg,AFNE01.jpg,AFNE15.jpg,AFNE01.jpg,FN,3,num_2,32,num_4,0.633597846725,,,2018_Feb_23_1624,60.0067554988,MAFE4ImagesEEG,001,203068,
AFNE01.JPG,AFNE01.JPG,AFNE01.JPG,AFNE01.JPG,AFNE01.JPG,AFNE01.JPG,,,,,5,9,59,4,,,,,,,,,,,,,,,,,,,AFNE03.jpg,AFNE18.jpg,AFSA20.jpg,AFSA08.jpg,AFSA08.jpg,FS,4,num_4,32,num_2,0.683516683755,,,2018_Feb_23_1624,60.0067554988,MAFE4ImagesEEG,001,203068,
,,,,,,,,,,,,,,,,,,,,,,,,,,,,,,,,,,,,,,,,,,,space,35.6641934492,2018_Feb_23_1624,60.0067554988,MAFE4ImagesEEG,001,203068,
AFNE01.JPG,AFNE01.JPG,AFNE01.JPG,AFNE01.JPG,AFNE01.JPG,AFNE01.JPG,,,,,,,,,0,0,0,3,,,,,,,,,,,,,,,AMSA19.jpg,AMNE03.jpg,AMSA15.jpg,AMNE15.jpg,AMSA15.jpg,MS,2,num_2,32,num_4,0.650115898927,,,2018_Feb_23_1624,60.0067554988,MAFE4ImagesEEG,001,203068,
AFNE01.JPG,AFNE01.JPG,AFNE01.JPG,AFNE01.JPG,AFNE01.JPG,AFNE01.JPG,,,,,,,,,0,1,1,5,,,,,,,,,,,,,,,AMSA11.jpg,AMNE13.jpg,AMNE03.jpg,AMSA13.jpg,AMSA11.jpg,MS,2,num_8,32,num_4,0.500223715324,,,2018_Feb_23_1624,60.0067554988,MAFE4ImagesEEG,001,203068,
AFNE01.JPG,AFNE01.JPG,AFNE01.JPG,AFNE01.JPG,AFNE01.JPG,AFNE01.JPG,,,,,,,,,0,2,2,7,,,,,,,,,,,,,,,AMSA14.jpg,AMNE07.jpg,AMNE15.jpg,AMSA04.jpg,AMNE07.jpg,MN,1,num_6,32,num_8,0.766632957035,,,2018_Feb_23_1624,60.0067554988,MAFE4ImagesEEG,001,203068,
AFNE01.JPG,AFNE01.JPG,AFNE01.JPG,AFNE01.JPG,AFNE01.JPG,AFNE01.JPG,,,,,,,,,0,3,3,0,,,,,,,,,,,,,,,AMNE17.jpg,AMNE09.jpg,AMSA15.jpg,AMSA13.jpg,AMSA13.jpg,MS,2,num_4,32,num_6,0.483332323027,,,2018_Feb_23_1624,60.0067554988,MAFE4ImagesEEG,001,203068,
AFNE01.JPG,AFNE01.JPG,AFNE01.JPG,AFNE01.JPG,AFNE01.JPG,AFNE01.JPG,,,,,,,,,0,4,4,8,,,,,,,,,,,,,,,AMNE10.jpg,AMSA15.jpg,AMSA19.jpg,AMNE01.jpg,AMSA19.jpg,MS,2,num_2,16,num_2,0.883456962067,,,2018_Feb_23_1624,60.0067554988,MAFE4ImagesEEG,001,203068,
AFNE01.JPG,AFNE01.JPG,AFNE01.JPG,AFNE01.JPG,AFNE01.JPG,AFNE01.JPG,,,,,,,,,0,5,5,2,,,,,,,,,,,,,,,AMSA13.jpg,AMNE02.jpg,AMSA03.jpg,AMNE13.jpg,AMSA13.jpg,MS,2,num_8,32,num_2,0.850433045533,,,2018_Feb_23_1624,60.0067554988,MAFE4ImagesEEG,001,203068,
AFNE01.JPG,AFNE01.JPG,AFNE01.JPG,AFNE01.JPG,AFNE01.JPG,AFNE01.JPG,,,,,,,,,0,6,6,1,,,,,,,,,,,,,,,AMSA11.jpg,AMSA12.jpg,AMNE09.jpg,AMNE07.jpg,AMNE07.jpg,MN,1,num_4,16,num_4,1.11675440473,,,2018_Feb_23_1624,60.0067554988,MAFE4ImagesEEG,001,203068,
AFNE01.JPG,AFNE01.JPG,AFNE01.JPG,AFNE01.JPG,AFNE01.JPG,AFNE01.JPG,,,,,,,,,0,7,7,6,,,,,,,,,,,,,,,AMNE18.jpg,AMNE08.jpg,AMSA16.jpg,AMSA15.jpg,AMSA15.jpg,MS,2,num_4,16,num_4,0.500251940335,,,2018_Feb_23_1624,60.0067554988,MAFE4ImagesEEG,001,203068,
AFNE01.JPG,AFNE01.JPG,AFNE01.JPG,AFNE01.JPG,AFNE01.JPG,AFNE01.JPG,,,,,,,,,0,8,8,9,,,,,,,,,,,,,,,AMSA14.jpg,AMNE17.jpg,AMSA11.jpg,AMNE10.jpg,AMSA14.jpg,MS,2,num_8,16,num_8,1.31671424827,,,2018_Feb_23_1624,60.0067554988,MAFE4ImagesEEG,001,203068,
AFNE01.JPG,AFNE01.JPG,AFNE01.JPG,AFNE01.JPG,AFNE01.JPG,AFNE01.JPG,,,,,,,,,0,9,9,4,,,,,,,,,,,,,,,AMSA11.jpg,AMSA05.jpg,AMNE13.jpg,AMNE14.jpg,AMSA11.jpg,MS,2,num_8,32,num_4,0.666796886595,,,2018_Feb_23_1624,60.0067554988,MAFE4ImagesEEG,001,203068,
AFNE01.JPG,AFNE01.JPG,AFNE01.JPG,AFNE01.JPG,AFNE01.JPG,AFNE01.JPG,,,,,,,,,1,0,10,9,,,,,,,,,,,,,,,AMNE13.jpg,AMNE08.jpg,AMSA20.jpg,AMSA03.jpg,AMSA03.jpg,MS,2,num_4,16,num_4,0.766662464943,,,2018_Feb_23_1624,60.0067554988,MAFE4ImagesEEG,001,203068,
AFNE01.JPG,AFNE01.JPG,AFNE01.JPG,AFNE01.JPG,AFNE01.JPG,AFNE01.JPG,,,,,,,,,1,1,11,4,,,,,,,,,,,,,,,AMSA12.jpg,AMSA06.jpg,AMNE09.jpg,AMNE20.jpg,AMNE09.jpg,MN,1,num_2,32,num_8,0.733571834746,,,2018_Feb_23_1624,60.0067554988,MAFE4ImagesEEG,001,203068,
AFNE01.JPG,AFNE01.JPG,AFNE01.JPG,AFNE01.JPG,AFNE01.JPG,AFNE01.JPG,,,,,,,,,1,2,12,2,,,,,,,,,,,,,,,AMNE05.jpg,AMSA17.jpg,AMNE03.jpg,AMSA20.jpg,AMSA17.jpg,MS,2,num_6,32,num_4,0.566841180669,,,2018_Feb_23_1624,60.0067554988,MAFE4ImagesEEG,001,203068,
AFNE01.JPG,AFNE01.JPG,AFNE01.JPG,AFNE01.JPG,AFNE01.JPG,AFNE01.JPG,,,,,,,,,1,3,13,3,,,,,,,,,,,,,,,AMSA20.jpg,AMSA04.jpg,AMNE16.jpg,AMNE09.jpg,AMSA04.jpg,MS,2,num_6,16,num_6,0.766845286125,,,2018_Feb_23_1624,60.0067554988,MAFE4ImagesEEG,001,203068,
AFNE01.JPG,AFNE01.JPG,AFNE01.JPG,AFNE01.JPG,AFNE01.JPG,AFNE01.JPG,,,,,,,,,1,4,14,0,,,,,,,,,,,,,,,AMNE04.jpg,AMSA06.jpg,AMNE09.jpg,AMSA20.jpg,AMNE09.jpg,MN,1,num_2,16,num_2,1.64990260755,,,2018_Feb_23_1624,60.0067554988,MAFE4ImagesEEG,001,203068,
AFNE01.JPG,AFNE01.JPG,AFNE01.JPG,AFNE01.JPG,AFNE01.JPG,AFNE01.JPG,,,,,,,,,1,5,15,6,,,,,,,,,,,,,,,AMSA08.jpg,AMNE19.jpg,AMSA12.jpg,AMNE16.jpg,AMSA12.jpg,MS,2,num_2,32,num_4,0.750145695638,,,2018_Feb_23_1624,60.0067554988,MAFE4ImagesEEG,001,203068,
AFNE01.JPG,AFNE01.JPG,AFNE01.JPG,AFNE01.JPG,AFNE01.JPG,AFNE01.JPG,,,,,,,,,1,6,16,7,,,,,,,,,,,,,,,AMSA08.jpg,AMNE08.jpg,AMSA04.jpg,AMNE12.jpg,AMNE08.jpg,MN,1,num_6,32,num_8,0.833487448283,,,2018_Feb_23_1624,60.0067554988,MAFE4ImagesEEG,001,203068,
AFNE01.JPG,AFNE01.JPG,AFNE01.JPG,AFNE01.JPG,AFNE01.JPG,AFNE01.JPG,,,,,,,,,1,7,17,1,,,,,,,,,,,,,,,AMNE01.jpg,AMSA06.jpg,AMNE20.jpg,AMSA10.jpg,AMSA06.jpg,MS,2,num_6,32,num_4,0.683449970093,,,2018_Feb_23_1624,60.0067554988,MAFE4ImagesEEG,001,203068,
AFNE01.JPG,AFNE01.JPG,AFNE01.JPG,AFNE01.JPG,AFNE01.JPG,AFNE01.JPG,,,,,,,,,1,8,18,8,,,,,,,,,,,,,,,AMSA05.jpg,AMSA11.jpg,AMNE11.jpg,AMNE15.jpg,AMSA05.jpg,MS,2,num_8,32,num_4,0.633517020498,,,2018_Feb_23_1624,60.0067554988,MAFE4ImagesEEG,001,203068,
AFNE01.JPG,AFNE01.JPG,AFNE01.JPG,AFNE01.JPG,AFNE01.JPG,AFNE01.JPG,,,,,,,,,1,9,19,5,,,,,,,,,,,,,,,AMNE09.jpg,AMSA07.jpg,AMSA04.jpg,AMNE17.jpg,AMSA07.jpg,MS,2,num_6,16,num_6,0.700131599209,,,2018_Feb_23_1624,60.0067554988,MAFE4ImagesEEG,001,203068,
AFNE01.JPG,AFNE01.JPG,AFNE01.JPG,AFNE01.JPG,AFNE01.JPG,AFNE01.JPG,,,,,,,,,2,0,20,8,,,,,,,,,,,,,,,AMNE03.jpg,AMNE06.jpg,AMSA06.jpg,AMSA03.jpg,AMNE03.jpg,MN,1,num_8,32,num_6,0.83345248783,,,2018_Feb_23_1624,60.0067554988,MAFE4ImagesEEG,001,203068,
AFNE01.JPG,AFNE01.JPG,AFNE01.JPG,AFNE01.JPG,AFNE01.JPG,AFNE01.JPG,,,,,,,,,2,1,21,6,,,,,,,,,,,,,,,AMSA06.jpg,AMNE13.jpg,AMNE09.jpg,AMSA20.jpg,AMNE13.jpg,MN,1,num_6,32,num_4,0.41680274019,,,2018_Feb_23_1624,60.0067554988,MAFE4ImagesEEG,001,203068,
AFNE01.JPG,AFNE01.JPG,AFNE01.JPG,AFNE01.JPG,AFNE01.JPG,AFNE01.JPG,,,,,,,,,2,2,22,0,,,,,,,,,,,,,,,AMNE18.jpg,AMSA20.jpg,AMNE15.jpg,AMSA07.jpg,AMNE18.jpg,MN,1,num_8,32,num_2,1.3001028609,,,2018_Feb_23_1624,60.0067554988,MAFE4ImagesEEG,001,203068,
AFNE01.JPG,AFNE01.JPG,AFNE01.JPG,AFNE01.JPG,AFNE01.JPG,AFNE01.JPG,,,,,,,,,2,3,23,1,,,,,,,,,,,,,,,AMSA16.jpg,AMNE19.jpg,AMNE10.jpg,AMSA06.jpg,AMNE19.jpg,MN,1,num_6,16,num_6,0.900131855742,,,2018_Feb_23_1624,60.0067554988,MAFE4ImagesEEG,001,203068,
AFNE01.JPG,AFNE01.JPG,AFNE01.JPG,AFNE01.JPG,AFNE01.JPG,AFNE01.JPG,,,,,,,,,2,4,24,4,,,,,,,,,,,,,,,AMSA05.jpg,AMSA07.jpg,AMNE06.jpg,AMNE02.jpg,AMSA05.jpg,MS,2,num_8,16,num_8,0.63348205993,,,2018_Feb_23_1624,60.0067554988,MAFE4ImagesEEG,001,203068,
AFNE01.JPG,AFNE01.JPG,AFNE01.JPG,AFNE01.JPG,AFNE01.JPG,AFNE01.JPG,,,,,,,,,2,5,25,2,,,,,,,,,,,,,,,AMSA04.jpg,AMNE03.jpg,AMNE13.jpg,AMSA01.jpg,AMNE03.jpg,MN,1,num_6,32,num_2,0.516760049737,,,2018_Feb_23_1624,60.0067554988,MAFE4ImagesEEG,001,203068,
AFNE01.JPG,AFNE01.JPG,AFNE01.JPG,AFNE01.JPG,AFNE01.JPG,AFNE01.JPG,,,,,,,,,2,6,26,3,,,,,,,,,,,,,,,AMNE06.jpg,AMNE19.jpg,AMSA12.jpg,AMSA09.jpg,AMSA09.jpg,MS,2,num_4,16,num_4,0.600108538056,,,2018_Feb_23_1624,60.0067554988,MAFE4ImagesEEG,001,203068,
AFNE01.JPG,AFNE01.JPG,AFNE01.JPG,AFNE01.JPG,AFNE01.JPG,AFNE01.JPG,,,,,,,,,2,7,27,5,,,,,,,,,,,,,,,AMSA09.jpg,AMNE02.jpg,AMSA04.jpg,AMNE05.jpg,AMSA09.jpg,MS,2,num_8,16,num_8,0.383330751443,,,2018_Feb_23_1624,60.0067554988,MAFE4ImagesEEG,001,203068,
AFNE01.JPG,AFNE01.JPG,AFNE01.JPG,AFNE01.JPG,AFNE01.JPG,AFNE01.JPG,,,,,,,,,2,8,28,7,,,,,,,,,,,,,,,AMNE09.jpg,AMSA19.jpg,AMNE04.jpg,AMSA06.jpg,AMSA06.jpg,MS,2,num_4,32,num_8,1.68365235627,,,2018_Feb_23_1624,60.0067554988,MAFE4ImagesEEG,001,203068,
AFNE01.JPG,AFNE01.JPG,AFNE01.JPG,AFNE01.JPG,AFNE01.JPG,AFNE01.JPG,,,,,,,,,2,9,29,9,,,,,,,,,,,,,,,AMNE16.jpg,AMNE06.jpg,AMSA03.jpg,AMSA11.jpg,AMNE16.jpg,MN,1,num_8,32,num_6,0.550184569205,,,2018_Feb_23_1624,60.0067554988,MAFE4ImagesEEG,001,203068,
AFNE01.JPG,AFNE01.JPG,AFNE01.JPG,AFNE01.JPG,AFNE01.JPG,AFNE01.JPG,,,,,,,,,3,0,30,7,,,,,,,,,,,,,,,AMNE14.jpg,AMNE06.jpg,AMSA13.jpg,AMSA14.jpg,AMNE06.jpg,MN,1,num_6,16,num_6,0.833454412175,,,2018_Feb_23_1624,60.0067554988,MAFE4ImagesEEG,001,203068,
AFNE01.JPG,AFNE01.JPG,AFNE01.JPG,AFNE01.JPG,AFNE01.JPG,AFNE01.JPG,,,,,,,,,3,1,31,3,,,,,,,,,,,,,,,AMNE06.jpg,AMSA04.jpg,AMSA03.jpg,AMNE11.jpg,AMSA03.jpg,MS,2,num_2,32,num_6,0.85017453006,,,2018_Feb_23_1624,60.0067554988,MAFE4ImagesEEG,001,203068,
AFNE01.JPG,AFNE01.JPG,AFNE01.JPG,AFNE01.JPG,AFNE01.JPG,AFNE01.JPG,,,,,,,,,3,2,32,0,,,,,,,,,,,,,,,AMSA20.jpg,AMNE08.jpg,AMNE14.jpg,AMSA02.jpg,AMSA20.jpg,MS,2,num_8,16,num_8,1.04994225095,,,2018_Feb_23_1624,60.0067554988,MAFE4ImagesEEG,001,203068,
AFNE01.JPG,AFNE01.JPG,AFNE01.JPG,AFNE01.JPG,AFNE01.JPG,AFNE01.JPG,,,,,,,,,3,3,33,2,,,,,,,,,,,,,,,AMNE19.jpg,AMSA03.jpg,AMSA05.jpg,AMNE14.jpg,AMSA03.jpg,MS,2,num_6,32,num_8,0.95011035027,,,2018_Feb_23_1624,60.0067554988,MAFE4ImagesEEG,001,203068,
AFNE01.JPG,AFNE01.JPG,AFNE01.JPG,AFNE01.JPG,AFNE01.JPG,AFNE01.JPG,,,,,,,,,3,4,34,4,,,,,,,,,,,,,,,AMNE13.jpg,AMNE11.jpg,AMSA10.jpg,AMSA13.jpg,AMNE13.jpg,MN,1,num_8,32,num_2,0.883517581853,,,2018_Feb_23_1624,60.0067554988,MAFE4ImagesEEG,001,203068,
AFNE01.JPG,AFNE01.JPG,AFNE01.JPG,AFNE01.JPG,AFNE01.JPG,AFNE01.JPG,,,,,,,,,3,5,35,1,,,,,,,,,,,,,,,AMSA01.jpg,AMNE14.jpg,AMNE05.jpg,AMSA10.jpg,AMSA10.jpg,MS,2,num_4,32,num_6,1.61673500005,,,2018_Feb_23_1624,60.0067554988,MAFE4ImagesEEG,001,203068,
AFNE01.JPG,AFNE01.JPG,AFNE01.JPG,AFNE01.JPG,AFNE01.JPG,AFNE01.JPG,,,,,,,,,3,6,36,9,,,,,,,,,,,,,,,AMSA04.jpg,AMSA12.jpg,AMNE15.jpg,AMNE06.jpg,AMSA04.jpg,MS,2,num_8,32,num_6,0.999860478565,,,2018_Feb_23_1624,60.0067554988,MAFE4ImagesEEG,001,203068,
AFNE01.JPG,AFNE01.JPG,AFNE01.JPG,AFNE01.JPG,AFNE01.JPG,AFNE01.JPG,,,,,,,,,3,7,37,8,,,,,,,,,,,,,,,AMSA13.jpg,AMSA06.jpg,AMNE03.jpg,AMNE04.jpg,AMNE04.jpg,MN,1,num_4,16,num_4,0.533474394237,,,2018_Feb_23_1624,60.0067554988,MAFE4ImagesEEG,001,203068,
AFNE01.JPG,AFNE01.JPG,AFNE01.JPG,AFNE01.JPG,AFNE01.JPG,AFNE01.JPG,,,,,,,,,3,8,38,6,,,,,,,,,,,,,,,AMNE15.jpg,AMSA05.jpg,AMNE12.jpg,AMSA20.jpg,AMSA05.jpg,MS,2,num_6,32,num_8,1.16673803097,,,2018_Feb_23_1624,60.0067554988,MAFE4ImagesEEG,001,203068,
AFNE01.JPG,AFNE01.JPG,AFNE01.JPG,AFNE01.JPG,AFNE01.JPG,AFNE01.JPG,,,,,,,,,3,9,39,5,,,,,,,,,,,,,,,AMSA19.jpg,AMNE14.jpg,AMSA11.jpg,AMNE20.jpg,AMSA19.jpg,MS,2,num_8,16,num_8,0.650130973663,,,2018_Feb_23_1624,60.0067554988,MAFE4ImagesEEG,001,203068,
AFNE01.JPG,AFNE01.JPG,AFNE01.JPG,AFNE01.JPG,AFNE01.JPG,AFNE01.JPG,,,,,,,,,4,0,40,5,,,,,,,,,,,,,,,AMSA15.jpg,AMSA03.jpg,AMNE17.jpg,AMNE12.jpg,AMSA03.jpg,MS,2,num_6,32,num_4,3.18320636882,,,2018_Feb_23_1624,60.0067554988,MAFE4ImagesEEG,001,203068,
AFNE01.JPG,AFNE01.JPG,AFNE01.JPG,AFNE01.JPG,AFNE01.JPG,AFNE01.JPG,,,,,,,,,4,1,41,1,,,,,,,,,,,,,,,AMNE11.jpg,AMSA14.jpg,AMSA02.jpg,AMNE10.jpg,AMSA02.jpg,MS,2,num_2,32,num_6,0.700237442972,,,2018_Feb_23_1624,60.0067554988,MAFE4ImagesEEG,001,203068,
AFNE01.JPG,AFNE01.JPG,AFNE01.JPG,AFNE01.JPG,AFNE01.JPG,AFNE01.JPG,,,,,,,,,4,2,42,6,,,,,,,,,,,,,,,AMNE15.jpg,AMSA18.jpg,AMNE20.jpg,AMSA03.jpg,AMNE15.jpg,MN,1,num_8,16,num_8,0.80010815314,,,2018_Feb_23_1624,60.0067554988,MAFE4ImagesEEG,001,203068,
AFNE01.JPG,AFNE01.JPG,AFNE01.JPG,AFNE01.JPG,AFNE01.JPG,AFNE01.JPG,,,,,,,,,4,3,43,3,,,,,,,,,,,,,,,AMNE18.jpg,AMNE04.jpg,AMSA19.jpg,AMSA06.jpg,AMNE18.jpg,MN,1,num_8,32,num_2,0.900153986644,,,2018_Feb_23_1624,60.0067554988,MAFE4ImagesEEG,001,203068,
AFNE01.JPG,AFNE01.JPG,AFNE01.JPG,AFNE01.JPG,AFNE01.JPG,AFNE01.JPG,,,,,,,,,4,4,44,7,,,,,,,,,,,,,,,AMSA07.jpg,AMNE03.jpg,AMSA06.jpg,AMNE20.jpg,AMNE20.jpg,MN,1,num_4,16,num_4,0.600151196239,,,2018_Feb_23_1624,60.0067554988,MAFE4ImagesEEG,001,203068,
AFNE01.JPG,AFNE01.JPG,AFNE01.JPG,AFNE01.JPG,AFNE01.JPG,AFNE01.JPG,,,,,,,,,4,5,45,9,,,,,,,,,,,,,,,AMSA17.jpg,AMNE01.jpg,AMSA19.jpg,AMNE13.jpg,AMSA19.jpg,MS,2,num_2,32,num_8,0.983301371685,,,2018_Feb_23_1624,60.0067554988,MAFE4ImagesEEG,001,203068,
AFNE01.JPG,AFNE01.JPG,AFNE01.JPG,AFNE01.JPG,AFNE01.JPG,AFNE01.JPG,,,,,,,,,4,6,46,2,,,,,,,,,,,,,,,AMNE01.jpg,AMSA14.jpg,AMSA03.jpg,AMNE10.jpg,AMSA14.jpg,MS,2,num_6,32,num_2,1.2167495616,,,2018_Feb_23_1624,60.0067554988,MAFE4ImagesEEG,001,203068,
AFNE01.JPG,AFNE01.JPG,AFNE01.JPG,AFNE01.JPG,AFNE01.JPG,AFNE01.JPG,,,,,,,,,4,7,47,0,,,,,,,,,,,,,,,AMSA20.jpg,AMNE01.jpg,AMNE05.jpg,AMSA04.jpg,AMNE01.jpg,MN,1,num_6,16,num_6,0.916768902098,,,2018_Feb_23_1624,60.0067554988,MAFE4ImagesEEG,001,203068,
AFNE01.JPG,AFNE01.JPG,AFNE01.JPG,AFNE01.JPG,AFNE01.JPG,AFNE01.JPG,,,,,,,,,4,8,48,4,,,,,,,,,,,,,,,AMSA12.jpg,AMNE12.jpg,AMSA13.jpg,AMNE19.jpg,AMSA12.jpg,MS,2,num_8,32,num_2,0.616844051401,,,2018_Feb_23_1624,60.0067554988,MAFE4ImagesEEG,001,203068,
AFNE01.JPG,AFNE01.JPG,AFNE01.JPG,AFNE01.JPG,AFNE01.JPG,AFNE01.JPG,,,,,,,,,4,9,49,8,,,,,,,,,,,,,,,AMSA02.jpg,AMNE16.jpg,AMNE01.jpg,AMSA15.jpg,AMNE16.jpg,MN,1,num_6,32,num_4,0.766628145939,,,2018_Feb_23_1624,60.0067554988,MAFE4ImagesEEG,001,203068,
AFNE01.JPG,AFNE01.JPG,AFNE01.JPG,AFNE01.JPG,AFNE01.JPG,AFNE01.JPG,,,,,,,,,5,0,50,2,,,,,,,,,,,,,,,AMSA11.jpg,AMNE08.jpg,AMSA07.jpg,AMNE06.jpg,AMNE06.jpg,MN,1,num_4,32,num_6,0.650160160963,,,2018_Feb_23_1624,60.0067554988,MAFE4ImagesEEG,001,203068,
AFNE01.JPG,AFNE01.JPG,AFNE01.JPG,AFNE01.JPG,AFNE01.JPG,AFNE01.JPG,,,,,,,,,5,1,51,4,,,,,,,,,,,,,,,AMSA11.jpg,AMSA05.jpg,AMNE16.jpg,AMNE17.jpg,AMSA05.jpg,MS,2,num_6,32,num_4,0.466824534349,,,2018_Feb_23_1624,60.0067554988,MAFE4ImagesEEG,001,203068,
AFNE01.JPG,AFNE01.JPG,AFNE01.JPG,AFNE01.JPG,AFNE01.JPG,AFNE01.JPG,,,,,,,,,5,2,52,5,,,,,,,,,,,,,,,AMSA19.jpg,AMNE13.jpg,AMSA05.jpg,AMNE12.jpg,AMSA05.jpg,MS,2,num_2,16,num_2,0.80013188778,,,2018_Feb_23_1624,60.0067554988,MAFE4ImagesEEG,001,203068,
AFNE01.JPG,AFNE01.JPG,AFNE01.JPG,AFNE01.JPG,AFNE01.JPG,AFNE01.JPG,,,,,,,,,5,3,53,7,,,,,,,,,,,,,,,AMNE08.jpg,AMNE02.jpg,AMSA13.jpg,AMSA10.jpg,AMSA13.jpg,MS,2,num_2,32,num_6,1.23346005718,,,2018_Feb_23_1624,60.0067554988,MAFE4ImagesEEG,001,203068,
AFNE01.JPG,AFNE01.JPG,AFNE01.JPG,AFNE01.JPG,AFNE01.JPG,AFNE01.JPG,,,,,,,,,5,4,54,3,,,,,,,,,,,,,,,AMSA11.jpg,AMNE13.jpg,AMSA19.jpg,AMNE03.jpg,AMSA11.jpg,MS,2,num_8,32,num_6,0.800187375629,,,2018_Feb_23_1624,60.0067554988,MAFE4ImagesEEG,001,203068,
AFNE01.JPG,AFNE01.JPG,AFNE01.JPG,AFNE01.JPG,AFNE01.JPG,AFNE01.JPG,,,,,,,,,5,5,55,0,,,,,,,,,,,,,,,AMNE09.jpg,AMNE01.jpg,AMSA14.jpg,AMSA01.jpg,AMNE09.jpg,MN,1,num_8,32,num_4,0.716776343295,,,2018_Feb_23_1624,60.0067554988,MAFE4ImagesEEG,001,203068,
AFNE01.JPG,AFNE01.JPG,AFNE01.JPG,AFNE01.JPG,AFNE01.JPG,AFNE01.JPG,,,,,,,,,5,6,56,6,,,,,,,,,,,,,,,AMSA05.jpg,AMNE02.jpg,AMSA16.jpg,AMNE11.jpg,AMSA16.jpg,MS,2,num_2,32,num_8,0.950117085711,,,2018_Feb_23_1624,60.0067554988,MAFE4ImagesEEG,001,203068,
AFNE01.JPG,AFNE01.JPG,AFNE01.JPG,AFNE01.JPG,AFNE01.JPG,AFNE01.JPG,,,,,,,,,5,7,57,9,,,,,,,,,,,,,,,AMSA15.jpg,AMNE19.jpg,AMNE05.jpg,AMSA06.jpg,AMNE19.jpg,MN,1,num_6,16,num_6,0.566810069024,,,2018_Feb_23_1624,60.0067554988,MAFE4ImagesEEG,001,203068,
AFNE01.JPG,AFNE01.JPG,AFNE01.JPG,AFNE01.JPG,AFNE01.JPG,AFNE01.JPG,,,,,,,,,5,8,58,1,,,,,,,,,,,,,,,AMNE03.jpg,AMNE15.jpg,AMSA13.jpg,AMSA06.jpg,AMNE03.jpg,MN,1,num_8,32,num_4,0.400112771778,,,2018_Feb_23_1624,60.0067554988,MAFE4ImagesEEG,001,203068,
AFNE01.JPG,AFNE01.JPG,AFNE01.JPG,AFNE01.JPG,AFNE01.JPG,AFNE01.JPG,,,,,,,,,5,9,59,8,,,,,,,,,,,,,,,AMSA14.jpg,AMSA06.jpg,AMNE04.jpg,AMNE19.jpg,AMNE04.jpg,MN,1,num_2,32,num_6,1.13341871405,,,2018_Feb_23_1624,60.0067554988,MAFE4ImagesEEG,001,203068,
,,,,,,,,,,,,,,,,,,,,,,,,,,,,,,,,,,,,,,,,,,,space,81.9272288386,2018_Feb_23_1624,60.0067554988,MAFE4ImagesEEG,001,203068,
AFNE01.JPG,AFNE01.JPG,AFNE01.JPG,AFNE01.JPG,AFNE01.JPG,AFNE01.JPG,,,,,,,,,,,,,0,0,0,1,,,,,,,,,,,AFNE17.jpg,AFSA20.jpg,AFNE12.jpg,AFSA01.jpg,AFNE17.jpg,FN,3,num_8,32,num_6,0.683467931463,,,2018_Feb_23_1624,60.0067554988,MAFE4ImagesEEG,001,203068,
AFNE01.JPG,AFNE01.JPG,AFNE01.JPG,AFNE01.JPG,AFNE01.JPG,AFNE01.JPG,,,,,,,,,,,,,0,1,1,2,,,,,,,,,,,AFSA10.jpg,AFNE15.jpg,AFSA14.jpg,AFNE20.jpg,AFSA10.jpg,FS,4,num_8,32,num_4,0.783470785944,,,2018_Feb_23_1624,60.0067554988,MAFE4ImagesEEG,001,203068,
AFNE01.JPG,AFNE01.JPG,AFNE01.JPG,AFNE01.JPG,AFNE01.JPG,AFNE01.JPG,,,,,,,,,,,,,0,2,2,0,,,,,,,,,,,AFSA03.jpg,AFNE18.jpg,AFSA20.jpg,AFNE06.jpg,AFNE18.jpg,FN,3,num_6,32,num_4,0.516815537587,,,2018_Feb_23_1624,60.0067554988,MAFE4ImagesEEG,001,203068,
AFNE01.JPG,AFNE01.JPG,AFNE01.JPG,AFNE01.JPG,AFNE01.JPG,AFNE01.JPG,,,,,,,,,,,,,0,3,3,7,,,,,,,,,,,AFSA08.jpg,AFNE16.jpg,AFSA07.jpg,AFNE11.jpg,AFSA07.jpg,FS,4,num_2,32,num_4,0.583473416045,,,2018_Feb_23_1624,60.0067554988,MAFE4ImagesEEG,001,203068,
AFNE01.JPG,AFNE01.JPG,AFNE01.JPG,AFNE01.JPG,AFNE01.JPG,AFNE01.JPG,,,,,,,,,,,,,0,4,4,4,,,,,,,,,,,AFSA05.jpg,AFNE20.jpg,AFNE19.jpg,AFSA02.jpg,AFNE19.jpg,FN,3,num_2,16,num_2,1.21672454395,,,2018_Feb_23_1624,60.0067554988,MAFE4ImagesEEG,001,203068,
AFNE01.JPG,AFNE01.JPG,AFNE01.JPG,AFNE01.JPG,AFNE01.JPG,AFNE01.JPG,,,,,,,,,,,,,0,5,5,6,,,,,,,,,,,AFSA10.jpg,AFNE04.jpg,AFNE05.jpg,AFSA20.jpg,AFSA20.jpg,FS,4,num_4,16,num_4,0.983442176017,,,2018_Feb_23_1624,60.0067554988,MAFE4ImagesEEG,001,203068,
AFNE01.JPG,AFNE01.JPG,AFNE01.JPG,AFNE01.JPG,AFNE01.JPG,AFNE01.JPG,,,,,,,,,,,,,0,6,6,9,,,,,,,,,,,AFSA12.jpg,AFNE16.jpg,AFNE11.jpg,AFSA02.jpg,AFNE11.jpg,FN,3,num_2,16,num_2,0.933431286947,,,2018_Feb_23_1624,60.0067554988,MAFE4ImagesEEG,001,203068,
AFNE01.JPG,AFNE01.JPG,AFNE01.JPG,AFNE01.JPG,AFNE01.JPG,AFNE01.JPG,,,,,,,,,,,,,0,7,7,8,,,,,,,,,,,AFNE01.jpg,AFSA10.jpg,AFNE15.jpg,AFSA14.jpg,AFSA14.jpg,FS,4,num_4,16,num_4,0.533495242358,,,2018_Feb_23_1624,60.0067554988,MAFE4ImagesEEG,001,203068,
AFNE01.JPG,AFNE01.JPG,AFNE01.JPG,AFNE01.JPG,AFNE01.JPG,AFNE01.JPG,,,,,,,,,,,,,0,8,8,3,,,,,,,,,,,AFNE18.jpg,AFNE17.jpg,AFSA04.jpg,AFSA13.jpg,AFSA13.jpg,FS,4,num_4,32,num_8,0.883430020069,,,2018_Feb_23_1624,60.0067554988,MAFE4ImagesEEG,001,203068,
AFNE01.JPG,AFNE01.JPG,AFNE01.JPG,AFNE01.JPG,AFNE01.JPG,AFNE01.JPG,,,,,,,,,,,,,0,9,9,5,,,,,,,,,,,AFSA17.jpg,AFNE12.jpg,AFNE06.jpg,AFSA10.jpg,AFNE12.jpg,FN,3,num_6,16,num_6,0.850012556883,,,2018_Feb_23_1624,60.0067554988,MAFE4ImagesEEG,001,203068,
AFNE01.JPG,AFNE01.JPG,AFNE01.JPG,AFNE01.JPG,AFNE01.JPG,AFNE01.JPG,,,,,,,,,,,,,1,0,10,2,,,,,,,,,,,AFSA19.jpg,AFNE19.jpg,AFSA01.jpg,AFNE10.jpg,AFSA19.jpg,FS,4,num_8,16,num_8,0.566806540941,,,2018_Feb_23_1624,60.0067554988,MAFE4ImagesEEG,001,203068,
AFNE01.JPG,AFNE01.JPG,AFNE01.JPG,AFNE01.JPG,AFNE01.JPG,AFNE01.JPG,,,,,,,,,,,,,1,1,11,0,,,,,,,,,,,AFSA18.jpg,AFNE06.jpg,AFNE19.jpg,AFSA15.jpg,AFSA18.jpg,FS,4,num_8,16,num_8,1.68339416152,,,2018_Feb_23_1624,60.0067554988,MAFE4ImagesEEG,001,203068,
AFNE01.JPG,AFNE01.JPG,AFNE01.JPG,AFNE01.JPG,AFNE01.JPG,AFNE01.JPG,,,,,,,,,,,,,1,2,12,9,,,,,,,,,,,AFSA05.jpg,AFSA06.jpg,AFNE20.jpg,AFNE14.jpg,AFNE20.jpg,FN,3,num_2,16,num_2,0.750108489883,,,2018_Feb_23_1624,60.0067554988,MAFE4ImagesEEG,001,203068,
AFNE01.JPG,AFNE01.JPG,AFNE01.JPG,AFNE01.JPG,AFNE01.JPG,AFNE01.JPG,,,,,,,,,,,,,1,3,13,6,,,,,,,,,,,AFSA09.jpg,AFNE06.jpg,AFNE13.jpg,AFSA12.jpg,AFSA12.jpg,FS,4,num_4,32,num_6,0.666899202392,,,2018_Feb_23_1624,60.0067554988,MAFE4ImagesEEG,001,203068,
AFNE01.JPG,AFNE01.JPG,AFNE01.JPG,AFNE01.JPG,AFNE01.JPG,AFNE01.JPG,,,,,,,,,,,,,1,4,14,7,,,,,,,,,,,AFNE01.jpg,AFSA10.jpg,AFNE14.jpg,AFSA20.jpg,AFNE01.jpg,FN,3,num_8,32,num_4,0.883484545746,,,2018_Feb_23_1624,60.0067554988,MAFE4ImagesEEG,001,203068,
AFNE01.JPG,AFNE01.JPG,AFNE01.JPG,AFNE01.JPG,AFNE01.JPG,AFNE01.JPG,,,,,,,,,,,,,1,5,15,8,,,,,,,,,,,AFNE17.jpg,AFSA14.jpg,AFSA03.jpg,AFNE09.jpg,AFNE17.jpg,FN,3,num_8,32,num_2,0.48349654139,,,2018_Feb_23_1624,60.0067554988,MAFE4ImagesEEG,001,203068,
AFNE01.JPG,AFNE01.JPG,AFNE01.JPG,AFNE01.JPG,AFNE01.JPG,AFNE01.JPG,,,,,,,,,,,,,1,6,16,4,,,,,,,,,,,AFSA18.jpg,AFNE04.jpg,AFSA06.jpg,AFNE05.jpg,AFSA18.jpg,FS,4,num_8,32,num_4,0.699984380044,,,2018_Feb_23_1624,60.0067554988,MAFE4ImagesEEG,001,203068,
AFNE01.JPG,AFNE01.JPG,AFNE01.JPG,AFNE01.JPG,AFNE01.JPG,AFNE01.JPG,,,,,,,,,,,,,1,7,17,5,,,,,,,,,,,AFSA13.jpg,AFNE16.jpg,AFSA07.jpg,AFNE14.jpg,AFNE14.jpg,FN,3,num_4,32,num_8,1.01672140078,,,2018_Feb_23_1624,60.0067554988,MAFE4ImagesEEG,001,203068,
AFNE01.JPG,AFNE01.JPG,AFNE01.JPG,AFNE01.JPG,AFNE01.JPG,AFNE01.JPG,,,,,,,,,,,,,1,8,18,1,,,,,,,,,,,AFSA02.jpg,AFSA11.jpg,AFNE16.jpg,AFNE11.jpg,AFNE16.jpg,FN,3,num_2,16,num_2,0.750124206184,,,2018_Feb_23_1624,60.0067554988,MAFE4ImagesEEG,001,203068,
AFNE01.JPG,AFNE01.JPG,AFNE01.JPG,AFNE01.JPG,AFNE01.JPG,AFNE01.JPG,,,,,,,,,,,,,1,9,19,3,,,,,,,,,,,AFSA03.jpg,AFNE01.jpg,AFNE09.jpg,AFSA13.jpg,AFSA13.jpg,FS,4,num_4,32,num_6,0.766792043461,,,2018_Feb_23_1624,60.0067554988,MAFE4ImagesEEG,001,203068,
AFNE01.JPG,AFNE01.JPG,AFNE01.JPG,AFNE01.JPG,AFNE01.JPG,AFNE01.JPG,,,,,,,,,,,,,2,0,20,0,,,,,,,,,,,AFNE20.jpg,AFSA19.jpg,AFSA03.jpg,AFNE08.jpg,AFSA03.jpg,FS,4,num_2,16,num_2,0.716832151986,,,2018_Feb_23_1624,60.0067554988,MAFE4ImagesEEG,001,203068,
AFNE01.JPG,AFNE01.JPG,AFNE01.JPG,AFNE01.JPG,AFNE01.JPG,AFNE01.JPG,,,,,,,,,,,,,2,1,21,4,,,,,,,,,,,AFSA13.jpg,AFSA14.jpg,AFNE14.jpg,AFNE20.jpg,AFNE14.jpg,FN,3,num_2,16,num_2,1.51675972913,,,2018_Feb_23_1624,60.0067554988,MAFE4ImagesEEG,001,203068,
AFNE01.JPG,AFNE01.JPG,AFNE01.JPG,AFNE01.JPG,AFNE01.JPG,AFNE01.JPG,,,,,,,,,,,,,2,2,22,1,,,,,,,,,,,AFNE17.jpg,AFNE11.jpg,AFSA09.jpg,AFSA02.jpg,AFNE17.jpg,FN,3,num_8,32,num_2,1.15015615174,,,2018_Feb_23_1624,60.0067554988,MAFE4ImagesEEG,001,203068,
AFNE01.JPG,AFNE01.JPG,AFNE01.JPG,AFNE01.JPG,AFNE01.JPG,AFNE01.JPG,,,,,,,,,,,,,2,3,23,7,,,,,,,,,,,AFSA06.jpg,AFSA14.jpg,AFNE18.jpg,AFNE03.jpg,AFSA14.jpg,FS,4,num_6,32,num_4,0.800023478107,,,2018_Feb_23_1624,60.0067554988,MAFE4ImagesEEG,001,203068,
AFNE01.JPG,AFNE01.JPG,AFNE01.JPG,AFNE01.JPG,AFNE01.JPG,AFNE01.JPG,,,,,,,,,,,,,2,4,24,9,,,,,,,,,,,AFNE01.jpg,AFSA09.jpg,AFNE02.jpg,AFSA18.jpg,AFSA18.jpg,FS,4,num_4,32,num_8,0.883340533939,,,2018_Feb_23_1624,60.0067554988,MAFE4ImagesEEG,001,203068,
AFNE01.JPG,AFNE01.JPG,AFNE01.JPG,AFNE01.JPG,AFNE01.JPG,AFNE01.JPG,,,,,,,,,,,,,2,5,25,3,,,,,,,,,,,AFSA13.jpg,AFNE14.jpg,AFSA03.jpg,AFNE08.jpg,AFNE08.jpg,FN,3,num_4,16,num_4,0.600165629527,,,2018_Feb_23_1624,60.0067554988,MAFE4ImagesEEG,001,203068,
AFNE01.JPG,AFNE01.JPG,AFNE01.JPG,AFNE01.JPG,AFNE01.JPG,AFNE01.JPG,,,,,,,,,,,,,2,6,26,5,,,,,,,,,,,AFNE13.jpg,AFNE06.jpg,AFSA05.jpg,AFSA11.jpg,AFNE13.jpg,FN,3,num_8,32,num_2,0.88348230056,,,2018_Feb_23_1624,60.0067554988,MAFE4ImagesEEG,001,203068,
AFNE01.JPG,AFNE01.JPG,AFNE01.JPG,AFNE01.JPG,AFNE01.JPG,AFNE01.JPG,,,,,,,,,,,,,2,7,27,8,,,,,,,,,,,AFNE08.jpg,AFSA19.jpg,AFSA05.jpg,AFNE17.jpg,AFNE08.jpg,FN,3,num_8,16,num_8,1.06675506232,,,2018_Feb_23_1624,60.0067554988,MAFE4ImagesEEG,001,203068,
AFNE01.JPG,AFNE01.JPG,AFNE01.JPG,AFNE01.JPG,AFNE01.JPG,AFNE01.JPG,,,,,,,,,,,,,2,8,28,6,,,,,,,,,,,AFNE09.jpg,AFSA08.jpg,AFSA10.jpg,AFNE19.jpg,AFNE09.jpg,FN,3,num_8,16,num_8,0.583470850135,,,2018_Feb_23_1624,60.0067554988,MAFE4ImagesEEG,001,203068,
AFNE01.JPG,AFNE01.JPG,AFNE01.JPG,AFNE01.JPG,AFNE01.JPG,AFNE01.JPG,,,,,,,,,,,,,2,9,29,2,,,,,,,,,,,AFNE19.jpg,AFNE16.jpg,AFSA06.jpg,AFSA01.jpg,AFSA06.jpg,FS,4,num_2,32,num_8,0.566789541743,,,2018_Feb_23_1624,60.0067554988,MAFE4ImagesEEG,001,203068,
AFNE01.JPG,AFNE01.JPG,AFNE01.JPG,AFNE01.JPG,AFNE01.JPG,AFNE01.JPG,,,,,,,,,,,,,3,0,30,7,,,,,,,,,,,AFSA02.jpg,AFNE15.jpg,AFSA13.jpg,AFNE12.jpg,AFNE15.jpg,FN,3,num_6,16,num_6,0.283553055488,,,2018_Feb_23_1624,60.0067554988,MAFE4ImagesEEG,001,203068,
AFNE01.JPG,AFNE01.JPG,AFNE01.JPG,AFNE01.JPG,AFNE01.JPG,AFNE01.JPG,,,,,,,,,,,,,3,1,31,3,,,,,,,,,,,AFSA17.jpg,AFNE07.jpg,AFSA06.jpg,AFNE12.jpg,AFNE07.jpg,FN,3,num_6,32,num_8,0.31680116849,,,2018_Feb_23_1624,60.0067554988,MAFE4ImagesEEG,001,203068,
AFNE01.JPG,AFNE01.JPG,AFNE01.JPG,AFNE01.JPG,AFNE01.JPG,AFNE01.JPG,,,,,,,,,,,,,3,2,32,2,,,,,,,,,,,AFNE19.jpg,AFSA17.jpg,AFSA06.jpg,AFNE12.jpg,AFNE12.jpg,FN,3,num_4,32,num_2,0.91680001386,,,2018_Feb_23_1624,60.0067554988,MAFE4ImagesEEG,001,203068,
AFNE01.JPG,AFNE01.JPG,AFNE01.JPG,AFNE01.JPG,AFNE01.JPG,AFNE01.JPG,,,,,,,,,,,,,3,3,33,9,,,,,,,,,,,AFSA15.jpg,AFSA14.jpg,AFNE02.jpg,AFNE05.jpg,AFSA14.jpg,FS,4,num_6,32,num_4,0.983462061966,,,2018_Feb_23_1624,60.0067554988,MAFE4ImagesEEG,001,203068,
AFNE01.JPG,AFNE01.JPG,AFNE01.JPG,AFNE01.JPG,AFNE01.JPG,AFNE01.JPG,,,,,,,,,,,,,3,4,34,6,,,,,,,,,,,AFSA20.jpg,AFSA07.jpg,AFNE16.jpg,AFNE08.jpg,AFNE08.jpg,FN,3,num_4,16,num_4,0.683440989349,,,2018_Feb_23_1624,60.0067554988,MAFE4ImagesEEG,001,203068,
AFNE01.JPG,AFNE01.JPG,AFNE01.JPG,AFNE01.JPG,AFNE01.JPG,AFNE01.JPG,,,,,,,,,,,,,3,5,35,0,,,,,,,,,,,AFNE09.jpg,AFSA14.jpg,AFSA12.jpg,AFNE04.jpg,AFSA14.jpg,FS,4,num_6,16,num_6,0.800135415979,,,2018_Feb_23_1624,60.0067554988,MAFE4ImagesEEG,001,203068,
AFNE01.JPG,AFNE01.JPG,AFNE01.JPG,AFNE01.JPG,AFNE01.JPG,AFNE01.JPG,,,,,,,,,,,,,3,6,36,1,,,,,,,,,,,AFNE15.jpg,AFSA09.jpg,AFNE12.jpg,AFSA04.jpg,AFSA09.jpg,FS,4,num_6,32,num_4,0.516783143044,,,2018_Feb_23_1624,60.0067554988,MAFE4ImagesEEG,001,203068,
AFNE01.JPG,AFNE01.JPG,AFNE01.JPG,AFNE01.JPG,AFNE01.JPG,AFNE01.JPG,,,,,,,,,,,,,3,7,37,5,,,,,,,,,,,AFNE04.jpg,AFSA12.jpg,AFSA20.jpg,AFNE08.jpg,AFSA20.jpg,FS,4,num_2,16,num_2,0.500161171309,,,2018_Feb_23_1624,60.0067554988,MAFE4ImagesEEG,001,203068,
AFNE01.JPG,AFNE01.JPG,AFNE01.JPG,AFNE01.JPG,AFNE01.JPG,AFNE01.JPG,,,,,,,,,,,,,3,8,38,8,,,,,,,,,,,AFNE15.jpg,AFSA20.jpg,AFNE10.jpg,AFSA07.jpg,AFNE10.jpg,FN,3,num_2,16,num_2,0.633521190146,,,2018_Feb_23_1624,60.0067554988,MAFE4ImagesEEG,001,203068,
AFNE01.JPG,AFNE01.JPG,AFNE01.JPG,AFNE01.JPG,AFNE01.JPG,AFNE01.JPG,,,,,,,,,,,,,3,9,39,4,,,,,,,,,,,AFNE16.jpg,AFSA09.jpg,AFNE05.jpg,AFSA15.jpg,AFNE16.jpg,FN,3,num_8,32,num_6,0.616777016898,,,2018_Feb_23_1624,60.0067554988,MAFE4ImagesEEG,001,203068,
AFNE01.JPG,AFNE01.JPG,AFNE01.JPG,AFNE01.JPG,AFNE01.JPG,AFNE01.JPG,,,,,,,,,,,,,4,0,40,4,,,,,,,,,,,AFNE10.jpg,AFSA19.jpg,AFSA02.jpg,AFNE01.jpg,AFNE01.jpg,FN,3,num_4,32,num_2,0.900151100126,,,2018_Feb_23_1624,60.0067554988,MAFE4ImagesEEG,001,203068,
AFNE01.JPG,AFNE01.JPG,AFNE01.JPG,AFNE01.JPG,AFNE01.JPG,AFNE01.JPG,,,,,,,,,,,,,4,1,41,1,,,,,,,,,,,AFSA17.jpg,AFSA03.jpg,AFNE07.jpg,AFNE13.jpg,AFNE07.jpg,FN,3,num_2,16,num_2,0.81675418024,,,2018_Feb_23_1624,60.0067554988,MAFE4ImagesEEG,001,203068,
AFNE01.JPG,AFNE01.JPG,AFNE01.JPG,AFNE01.JPG,AFNE01.JPG,AFNE01.JPG,,,,,,,,,,,,,4,2,42,9,,,,,,,,,,,AFNE18.jpg,AFNE09.jpg,AFSA15.jpg,AFSA09.jpg,AFSA09.jpg,FS,4,num_4,16,num_4,0.883477489464,,,2018_Feb_23_1624,60.0067554988,MAFE4ImagesEEG,001,203068,
AFNE01.JPG,AFNE01.JPG,AFNE01.JPG,AFNE01.JPG,AFNE01.JPG,AFNE01.JPG,,,,,,,,,,,,,4,3,43,5,,,,,,,,,,,AFNE07.jpg,AFSA19.jpg,AFNE13.jpg,AFSA02.jpg,AFNE13.jpg,FN,3,num_2,32,num_6,0.816761557246,,,2018_Feb_23_1624,60.0067554988,MAFE4ImagesEEG,001,203068,
AFNE01.JPG,AFNE01.JPG,AFNE01.JPG,AFNE01.JPG,AFNE01.JPG,AFNE01.JPG,,,,,,,,,,,,,4,4,44,6,,,,,,,,,,,AFNE04.jpg,AFNE18.jpg,AFSA20.jpg,AFSA12.jpg,AFSA12.jpg,FS,4,num_4,16,num_4,0.966818279936,,,2018_Feb_23_1624,60.0067554988,MAFE4ImagesEEG,001,203068,
AFNE01.JPG,AFNE01.JPG,AFNE01.JPG,AFNE01.JPG,AFNE01.JPG,AFNE01.JPG,,,,,,,,,,,,,4,5,45,2,,,,,,,,,,,AFNE09.jpg,AFSA06.jpg,AFNE02.jpg,AFSA20.jpg,AFSA20.jpg,FS,4,num_4,32,num_2,0.700169446412,,,2018_Feb_23_1624,60.0067554988,MAFE4ImagesEEG,001,203068,
AFNE01.JPG,AFNE01.JPG,AFNE01.JPG,AFNE01.JPG,AFNE01.JPG,AFNE01.JPG,,,,,,,,,,,,,4,6,46,8,,,,,,,,,,,AFSA19.jpg,AFNE08.jpg,AFSA10.jpg,AFNE12.jpg,AFSA10.jpg,FS,4,num_2,32,num_4,0.833503485308,,,2018_Feb_23_1624,60.0067554988,MAFE4ImagesEEG,001,203068,
AFNE01.JPG,AFNE01.JPG,AFNE01.JPG,AFNE01.JPG,AFNE01.JPG,AFNE01.JPG,,,,,,,,,,,,,4,7,47,7,,,,,,,,,,,AFSA05.jpg,AFSA12.jpg,AFNE20.jpg,AFNE11.jpg,AFNE11.jpg,FN,3,num_4,16,num_4,0.750169109553,,,2018_Feb_23_1624,60.0067554988,MAFE4ImagesEEG,001,203068,
AFNE01.JPG,AFNE01.JPG,AFNE01.JPG,AFNE01.JPG,AFNE01.JPG,AFNE01.JPG,,,,,,,,,,,,,4,8,48,0,,,,,,,,,,,AFSA03.jpg,AFNE13.jpg,AFSA17.jpg,AFNE18.jpg,AFNE13.jpg,FN,3,num_6,16,num_6,0.716828623787,,,2018_Feb_23_1624,60.0067554988,MAFE4ImagesEEG,001,203068,
AFNE01.JPG,AFNE01.JPG,AFNE01.JPG,AFNE01.JPG,AFNE01.JPG,AFNE01.JPG,,,,,,,,,,,,,4,9,49,3,,,,,,,,,,,AFNE10.jpg,AFNE05.jpg,AFSA20.jpg,AFSA02.jpg,AFNE10.jpg,FN,3,num_8,32,num_2,0.999814933748,,,2018_Feb_23_1624,60.0067554988,MAFE4ImagesEEG,001,203068,
AFNE01.JPG,AFNE01.JPG,AFNE01.JPG,AFNE01.JPG,AFNE01.JPG,AFNE01.JPG,,,,,,,,,,,,,5,0,50,1,,,,,,,,,,,AFNE04.jpg,AFSA18.jpg,AFSA11.jpg,AFNE01.jpg,AFNE04.jpg,FN,3,num_8,32,num_4,0.900139553589,,,2018_Feb_23_1624,60.0067554988,MAFE4ImagesEEG,001,203068,
AFNE01.JPG,AFNE01.JPG,AFNE01.JPG,AFNE01.JPG,AFNE01.JPG,AFNE01.JPG,,,,,,,,,,,,,5,1,51,7,,,,,,,,,,,AFNE10.jpg,AFSA17.jpg,AFNE17.jpg,AFSA10.jpg,AFNE10.jpg,FN,3,num_8,32,num_4,0.766844644677,,,2018_Feb_23_1624,60.0067554988,MAFE4ImagesEEG,001,203068,
AFNE01.JPG,AFNE01.JPG,AFNE01.JPG,AFNE01.JPG,AFNE01.JPG,AFNE01.JPG,,,,,,,,,,,,,5,2,52,0,,,,,,,,,,,AFSA02.jpg,AFNE15.jpg,AFNE10.jpg,AFSA13.jpg,AFNE10.jpg,FN,3,num_2,32,num_6,0.900099140359,,,2018_Feb_23_1624,60.0067554988,MAFE4ImagesEEG,001,203068,
AFNE01.JPG,AFNE01.JPG,AFNE01.JPG,AFNE01.JPG,AFNE01.JPG,AFNE01.JPG,,,,,,,,,,,,,5,3,53,8,,,,,,,,,,,AFSA02.jpg,AFNE13.jpg,AFSA18.jpg,AFNE07.jpg,AFSA02.jpg,FS,4,num_8,16,num_8,0.61683090101,,,2018_Feb_23_1624,60.0067554988,MAFE4ImagesEEG,001,203068,
AFNE01.JPG,AFNE01.JPG,AFNE01.JPG,AFNE01.JPG,AFNE01.JPG,AFNE01.JPG,,,,,,,,,,,,,5,4,54,5,,,,,,,,,,,AFSA06.jpg,AFNE20.jpg,AFSA10.jpg,AFNE04.jpg,AFNE04.jpg,FN,3,num_4,32,num_8,0.800145358895,,,2018_Feb_23_1624,60.0067554988,MAFE4ImagesEEG,001,203068,
AFNE01.JPG,AFNE01.JPG,AFNE01.JPG,AFNE01.JPG,AFNE01.JPG,AFNE01.JPG,,,,,,,,,,,,,5,5,55,3,,,,,,,,,,,AFNE17.jpg,AFSA09.jpg,AFSA12.jpg,AFNE03.jpg,AFSA09.jpg,FS,4,num_6,16,num_6,0.816757708322,,,2018_Feb_23_1624,60.0067554988,MAFE4ImagesEEG,001,203068,
AFNE01.JPG,AFNE01.JPG,AFNE01.JPG,AFNE01.JPG,AFNE01.JPG,AFNE01.JPG,,,,,,,,,,,,,5,6,56,9,,,,,,,,,,,AFSA19.jpg,AFSA07.jpg,AFNE01.jpg,AFNE20.jpg,AFNE01.jpg,FN,3,num_2,32,num_4,0.583474698942,,,2018_Feb_23_1624,60.0067554988,MAFE4ImagesEEG,001,203068,
AFNE01.JPG,AFNE01.JPG,AFNE01.JPG,AFNE01.JPG,AFNE01.JPG,AFNE01.JPG,,,,,,,,,,,,,5,7,57,6,,,,,,,,,,,AFSA01.jpg,AFNE07.jpg,AFNE13.jpg,AFSA14.jpg,AFSA14.jpg,FS,4,num_4,16,num_4,0.600136442343,,,2018_Feb_23_1624,60.0067554988,MAFE4ImagesEEG,001,203068,
AFNE01.JPG,AFNE01.JPG,AFNE01.JPG,AFNE01.JPG,AFNE01.JPG,AFNE01.JPG,,,,,,,,,,,,,5,8,58,4,,,,,,,,,,,AFNE17.jpg,AFNE16.jpg,AFSA18.jpg,AFSA06.jpg,AFSA06.jpg,FS,4,num_4,32,num_2,0.983361670631,,,2018_Feb_23_1624,60.0067554988,MAFE4ImagesEEG,001,203068,
AFNE01.JPG,AFNE01.JPG,AFNE01.JPG,AFNE01.JPG,AFNE01.JPG,AFNE01.JPG,,,,,,,,,,,,,5,9,59,2,,,,,,,,,,,AFSA01.jpg,AFNE06.jpg,AFNE19.jpg,AFSA18.jpg,AFSA18.jpg,FS,4,num_4,16,num_4,0.633456400945,,,2018_Feb_23_1624,60.0067554988,MAFE4ImagesEEG,001,203068,
,,,,,,,,,,,,,,,,,,,,,,,,,,,,,,,,,,,,,,,,,,,space,50.6460810038,2018_Feb_23_1624,60.0067554988,MAFE4ImagesEEG,001,203068,
AFNE01.JPG,AFNE01.JPG,AFNE01.JPG,AFNE01.JPG,AFNE01.JPG,AFNE01.JPG,,,,,,,,,,,,,,,,,0,0,0,2,,,,,,,AMSA05.jpg,AMSA19.jpg,AMNE07.jpg,AMNE10.jpg,AMSA19.jpg,MS,2,num_6,16,num_6,0.416821663734,,,2018_Feb_23_1624,60.0067554988,MAFE4ImagesEEG,001,203068,
AFNE01.JPG,AFNE01.JPG,AFNE01.JPG,AFNE01.JPG,AFNE01.JPG,AFNE01.JPG,,,,,,,,,,,,,,,,,0,1,1,9,,,,,,,AMSA19.jpg,AMNE12.jpg,AMSA18.jpg,AMNE14.jpg,AMSA19.jpg,MS,2,num_8,16,num_8,0.783482332481,,,2018_Feb_23_1624,60.0067554988,MAFE4ImagesEEG,001,203068,
AFNE01.JPG,AFNE01.JPG,AFNE01.JPG,AFNE01.JPG,AFNE01.JPG,AFNE01.JPG,,,,,,,,,,,,,,,,,0,2,2,8,,,,,,,AMSA13.jpg,AMNE11.jpg,AMSA15.jpg,AMNE01.jpg,AMSA13.jpg,MS,2,num_8,32,num_4,0.650130011607,,,2018_Feb_23_1624,60.0067554988,MAFE4ImagesEEG,001,203068,
AFNE01.JPG,AFNE01.JPG,AFNE01.JPG,AFNE01.JPG,AFNE01.JPG,AFNE01.JPG,,,,,,,,,,,,,,,,,0,3,3,1,,,,,,,AMSA08.jpg,AMNE13.jpg,AMNE05.jpg,AMSA17.jpg,AMNE13.jpg,MN,1,num_6,16,num_6,0.716818039306,,,2018_Feb_23_1624,60.0067554988,MAFE4ImagesEEG,001,203068,
AFNE01.JPG,AFNE01.JPG,AFNE01.JPG,AFNE01.JPG,AFNE01.JPG,AFNE01.JPG,,,,,,,,,,,,,,,,,0,4,4,4,,,,,,,AMNE01.jpg,AMSA18.jpg,AMNE15.jpg,AMSA20.jpg,AMNE01.jpg,MN,1,num_8,16,num_8,0.566796598025,,,2018_Feb_23_1624,60.0067554988,MAFE4ImagesEEG,001,203068,
AFNE01.JPG,AFNE01.JPG,AFNE01.JPG,AFNE01.JPG,AFNE01.JPG,AFNE01.JPG,,,,,,,,,,,,,,,,,0,5,5,3,,,,,,,AMNE13.jpg,AMNE20.jpg,AMSA06.jpg,AMSA17.jpg,AMSA06.jpg,MS,2,num_2,32,num_8,1.01676630415,,,2018_Feb_23_1624,60.0067554988,MAFE4ImagesEEG,001,203068,
AFNE01.JPG,AFNE01.JPG,AFNE01.JPG,AFNE01.JPG,AFNE01.JPG,AFNE01.JPG,,,,,,,,,,,,,,,,,0,6,6,7,,,,,,,AMSA09.jpg,AMNE19.jpg,AMNE18.jpg,AMSA02.jpg,AMSA02.jpg,MS,2,num_4,16,num_4,1.05016708898,,,2018_Feb_23_1624,60.0067554988,MAFE4ImagesEEG,001,203068,
AFNE01.JPG,AFNE01.JPG,AFNE01.JPG,AFNE01.JPG,AFNE01.JPG,AFNE01.JPG,,,,,,,,,,,,,,,,,0,7,7,0,,,,,,,AMNE06.jpg,AMSA01.jpg,AMNE07.jpg,AMSA12.jpg,AMNE07.jpg,MN,1,num_2,32,num_4,0.733448029612,,,2018_Feb_23_1624,60.0067554988,MAFE4ImagesEEG,001,203068,
AFNE01.JPG,AFNE01.JPG,AFNE01.JPG,AFNE01.JPG,AFNE01.JPG,AFNE01.JPG,,,,,,,,,,,,,,,,,0,8,8,5,,,,,,,AMNE02.jpg,AMNE19.jpg,AMSA20.jpg,AMSA07.jpg,AMSA07.jpg,MS,2,num_4,16,num_4,0.583436210291,,,2018_Feb_23_1624,60.0067554988,MAFE4ImagesEEG,001,203068,
AFNE01.JPG,AFNE01.JPG,AFNE01.JPG,AFNE01.JPG,AFNE01.JPG,AFNE01.JPG,,,,,,,,,,,,,,,,,0,9,9,6,,,,,,,AMSA16.jpg,AMNE07.jpg,AMNE19.jpg,AMSA11.jpg,AMNE07.jpg,MN,1,num_6,16,num_6,0.533486903179,,,2018_Feb_23_1624,60.0067554988,MAFE4ImagesEEG,001,203068,
AFNE01.JPG,AFNE01.JPG,AFNE01.JPG,AFNE01.JPG,AFNE01.JPG,AFNE01.JPG,,,,,,,,,,,,,,,,,1,0,10,0,,,,,,,AMSA10.jpg,AMSA07.jpg,AMNE19.jpg,AMNE04.jpg,AMNE19.jpg,MN,1,num_2,16,num_2,0.866735561285,,,2018_Feb_23_1624,60.0067554988,MAFE4ImagesEEG,001,203068,
AFNE01.JPG,AFNE01.JPG,AFNE01.JPG,AFNE01.JPG,AFNE01.JPG,AFNE01.JPG,,,,,,,,,,,,,,,,,1,1,11,2,,,,,,,AMNE16.jpg,AMSA02.jpg,AMNE08.jpg,AMSA07.jpg,AMNE16.jpg,MN,1,num_8,16,num_8,0.850145022152,,,2018_Feb_23_1624,60.0067554988,MAFE4ImagesEEG,001,203068,
AFNE01.JPG,AFNE01.JPG,AFNE01.JPG,AFNE01.JPG,AFNE01.JPG,AFNE01.JPG,,,,,,,,,,,,,,,,,1,2,12,9,,,,,,,AMSA02.jpg,AMNE13.jpg,AMSA06.jpg,AMNE12.jpg,AMSA06.jpg,MS,2,num_2,32,num_6,0.68346664845,,,2018_Feb_23_1624,60.0067554988,MAFE4ImagesEEG,001,203068,
AFNE01.JPG,AFNE01.JPG,AFNE01.JPG,AFNE01.JPG,AFNE01.JPG,AFNE01.JPG,,,,,,,,,,,,,,,,,1,3,13,6,,,,,,,AMNE02.jpg,AMNE14.jpg,AMSA12.jpg,AMSA05.jpg,AMNE14.jpg,MN,1,num_6,32,num_2,0.766835984774,,,2018_Feb_23_1624,60.0067554988,MAFE4ImagesEEG,001,203068,
AFNE01.JPG,AFNE01.JPG,AFNE01.JPG,AFNE01.JPG,AFNE01.JPG,AFNE01.JPG,,,,,,,,,,,,,,,,,1,4,14,8,,,,,,,AMNE10.jpg,AMNE17.jpg,AMSA17.jpg,AMSA19.jpg,AMNE17.jpg,MN,1,num_6,16,num_6,0.65017010388,,,2018_Feb_23_1624,60.0067554988,MAFE4ImagesEEG,001,203068,
AFNE01.JPG,AFNE01.JPG,AFNE01.JPG,AFNE01.JPG,AFNE01.JPG,AFNE01.JPG,,,,,,,,,,,,,,,,,1,5,15,3,,,,,,,AMSA12.jpg,AMSA17.jpg,AMNE02.jpg,AMNE03.jpg,AMSA17.jpg,MS,2,num_6,16,num_6,1.13344758051,,,2018_Feb_23_1624,60.0067554988,MAFE4ImagesEEG,001,203068,
AFNE01.JPG,AFNE01.JPG,AFNE01.JPG,AFNE01.JPG,AFNE01.JPG,AFNE01.JPG,,,,,,,,,,,,,,,,,1,6,16,4,,,,,,,AMNE14.jpg,AMSA20.jpg,AMNE17.jpg,AMSA18.jpg,AMSA20.jpg,MS,2,num_6,16,num_6,1.11676466849,,,2018_Feb_23_1624,60.0067554988,MAFE4ImagesEEG,001,203068,
AFNE01.JPG,AFNE01.JPG,AFNE01.JPG,AFNE01.JPG,AFNE01.JPG,AFNE01.JPG,,,,,,,,,,,,,,,,,1,7,17,5,,,,,,,AMSA18.jpg,AMNE01.jpg,AMSA10.jpg,AMNE04.jpg,AMNE01.jpg,MN,1,num_6,16,num_6,0.666781811975,,,2018_Feb_23_1624,60.0067554988,MAFE4ImagesEEG,001,203068,
AFNE01.JPG,AFNE01.JPG,AFNE01.JPG,AFNE01.JPG,AFNE01.JPG,AFNE01.JPG,,,,,,,,,,,,,,,,,1,8,18,1,,,,,,,AMSA15.jpg,AMNE14.jpg,AMSA19.jpg,AMNE10.jpg,AMNE10.jpg,MN,1,num_4,16,num_4,0.683539135498,,,2018_Feb_23_1624,60.0067554988,MAFE4ImagesEEG,001,203068,
AFNE01.JPG,AFNE01.JPG,AFNE01.JPG,AFNE01.JPG,AFNE01.JPG,AFNE01.JPG,,,,,,,,,,,,,,,,,1,9,19,7,,,,,,,AMSA08.jpg,AMSA07.jpg,AMNE13.jpg,AMNE14.jpg,AMSA07.jpg,MS,2,num_6,16,num_6,0.750194768654,,,2018_Feb_23_1624,60.0067554988,MAFE4ImagesEEG,001,203068,
AFNE01.JPG,AFNE01.JPG,AFNE01.JPG,AFNE01.JPG,AFNE01.JPG,AFNE01.JPG,,,,,,,,,,,,,,,,,2,0,20,7,,,,,,,AMSA04.jpg,AMSA07.jpg,AMNE01.jpg,AMNE03.jpg,AMSA07.jpg,MS,2,num_6,32,num_2,0.683469855925,,,2018_Feb_23_1624,60.0067554988,MAFE4ImagesEEG,001,203068,
AFNE01.JPG,AFNE01.JPG,AFNE01.JPG,AFNE01.JPG,AFNE01.JPG,AFNE01.JPG,,,,,,,,,,,,,,,,,2,1,21,9,,,,,,,AMNE13.jpg,AMNE19.jpg,AMSA01.jpg,AMSA18.jpg,AMNE19.jpg,MN,1,num_6,16,num_6,0.900120629929,,,2018_Feb_23_1624,60.0067554988,MAFE4ImagesEEG,001,203068,
AFNE01.JPG,AFNE01.JPG,AFNE01.JPG,AFNE01.JPG,AFNE01.JPG,AFNE01.JPG,,,,,,,,,,,,,,,,,2,2,22,0,,,,,,,AMSA10.jpg,AMSA02.jpg,AMNE08.jpg,AMNE11.jpg,AMSA02.jpg,MS,2,num_6,32,num_2,0.683449007804,,,2018_Feb_23_1624,60.0067554988,MAFE4ImagesEEG,001,203068,
AFNE01.JPG,AFNE01.JPG,AFNE01.JPG,AFNE01.JPG,AFNE01.JPG,AFNE01.JPG,,,,,,,,,,,,,,,,,2,3,23,5,,,,,,,AMNE17.jpg,AMNE20.jpg,AMSA08.jpg,AMSA06.jpg,AMNE20.jpg,MN,1,num_6,16,num_6,0.616675984114,,,2018_Feb_23_1624,60.0067554988,MAFE4ImagesEEG,001,203068,
AFNE01.JPG,AFNE01.JPG,AFNE01.JPG,AFNE01.JPG,AFNE01.JPG,AFNE01.JPG,,,,,,,,,,,,,,,,,2,4,24,4,,,,,,,AMNE14.jpg,AMSA08.jpg,AMSA01.jpg,AMNE04.jpg,AMNE14.jpg,MN,1,num_8,32,num_4,0.600139008253,,,2018_Feb_23_1624,60.0067554988,MAFE4ImagesEEG,001,203068,
AFNE01.JPG,AFNE01.JPG,AFNE01.JPG,AFNE01.JPG,AFNE01.JPG,AFNE01.JPG,,,,,,,,,,,,,,,,,2,5,25,1,,,,,,,AMNE12.jpg,AMSA11.jpg,AMNE18.jpg,AMSA13.jpg,AMSA11.jpg,MS,2,num_6,16,num_6,0.466801120318,,,2018_Feb_23_1624,60.0067554988,MAFE4ImagesEEG,001,203068,
AFNE01.JPG,AFNE01.JPG,AFNE01.JPG,AFNE01.JPG,AFNE01.JPG,AFNE01.JPG,,,,,,,,,,,,,,,,,2,6,26,6,,,,,,,AMNE15.jpg,AMSA03.jpg,AMSA04.jpg,AMNE08.jpg,AMSA03.jpg,MS,2,num_6,16,num_6,0.466951546958,,,2018_Feb_23_1624,60.0067554988,MAFE4ImagesEEG,001,203068,
AFNE01.JPG,AFNE01.JPG,AFNE01.JPG,AFNE01.JPG,AFNE01.JPG,AFNE01.JPG,,,,,,,,,,,,,,,,,2,7,27,2,,,,,,,AMSA05.jpg,AMNE08.jpg,AMNE09.jpg,AMSA19.jpg,AMSA19.jpg,MS,2,num_4,32,num_6,0.583538205363,,,2018_Feb_23_1624,60.0067554988,MAFE4ImagesEEG,001,203068,
AFNE01.JPG,AFNE01.JPG,AFNE01.JPG,AFNE01.JPG,AFNE01.JPG,AFNE01.JPG,,,,,,,,,,,,,,,,,2,8,28,3,,,,,,,AMSA08.jpg,AMSA11.jpg,AMNE01.jpg,AMNE07.jpg,AMNE01.jpg,MN,1,num_2,16,num_2,0.533476960147,,,2018_Feb_23_1624,60.0067554988,MAFE4ImagesEEG,001,203068,
AFNE01.JPG,AFNE01.JPG,AFNE01.JPG,AFNE01.JPG,AFNE01.JPG,AFNE01.JPG,,,,,,,,,,,,,,,,,2,9,29,8,,,,,,,AMSA08.jpg,AMSA10.jpg,AMNE04.jpg,AMNE15.jpg,AMNE15.jpg,MN,1,num_4,16,num_4,0.483510653838,,,2018_Feb_23_1624,60.0067554988,MAFE4ImagesEEG,001,203068,
AFNE01.JPG,AFNE01.JPG,AFNE01.JPG,AFNE01.JPG,AFNE01.JPG,AFNE01.JPG,,,,,,,,,,,,,,,,,3,0,30,5,,,,,,,AMSA09.jpg,AMNE15.jpg,AMSA10.jpg,AMNE18.jpg,AMSA09.jpg,MS,2,num_8,32,num_2,0.916754148202,,,2018_Feb_23_1624,60.0067554988,MAFE4ImagesEEG,001,203068,
AFNE01.JPG,AFNE01.JPG,AFNE01.JPG,AFNE01.JPG,AFNE01.JPG,AFNE01.JPG,,,,,,,,,,,,,,,,,3,1,31,7,,,,,,,AMSA19.jpg,AMSA06.jpg,AMNE18.jpg,AMNE12.jpg,AMSA06.jpg,MS,2,num_6,16,num_6,0.550163400476,,,2018_Feb_23_1624,60.0067554988,MAFE4ImagesEEG,001,203068,
AFNE01.JPG,AFNE01.JPG,AFNE01.JPG,AFNE01.JPG,AFNE01.JPG,AFNE01.JPG,,,,,,,,,,,,,,,,,3,2,32,4,,,,,,,AMNE16.jpg,AMSA11.jpg,AMSA17.jpg,AMNE06.jpg,AMNE06.jpg,MN,1,num_4,32,num_2,0.866801633616,,,2018_Feb_23_1624,60.0067554988,MAFE4ImagesEEG,001,203068,
AFNE01.JPG,AFNE01.JPG,AFNE01.JPG,AFNE01.JPG,AFNE01.JPG,AFNE01.JPG,,,,,,,,,,,,,,,,,3,3,33,9,,,,,,,AMNE20.jpg,AMSA20.jpg,AMNE17.jpg,AMSA16.jpg,AMSA16.jpg,MS,2,num_4,16,num_4,0.750170071842,,,2018_Feb_23_1624,60.0067554988,MAFE4ImagesEEG,001,203068,
AFNE01.JPG,AFNE01.JPG,AFNE01.JPG,AFNE01.JPG,AFNE01.JPG,AFNE01.JPG,,,,,,,,,,,,,,,,,3,4,34,0,,,,,,,AMNE12.jpg,AMSA11.jpg,AMNE05.jpg,AMSA12.jpg,AMSA11.jpg,MS,2,num_6,32,num_4,0.800141189247,,,2018_Feb_23_1624,60.0067554988,MAFE4ImagesEEG,001,203068,
AFNE01.JPG,AFNE01.JPG,AFNE01.JPG,AFNE01.JPG,AFNE01.JPG,AFNE01.JPG,,,,,,,,,,,,,,,,,3,5,35,8,,,,,,,AMSA13.jpg,AMNE14.jpg,AMSA06.jpg,AMNE06.jpg,AMSA06.jpg,MS,2,num_2,16,num_2,0.566787617281,,,2018_Feb_23_1624,60.0067554988,MAFE4ImagesEEG,001,203068,
AFNE01.JPG,AFNE01.JPG,AFNE01.JPG,AFNE01.JPG,AFNE01.JPG,AFNE01.JPG,,,,,,,,,,,,,,,,,3,6,36,3,,,,,,,AMSA14.jpg,AMNE20.jpg,AMSA01.jpg,AMNE19.jpg,AMNE20.jpg,MN,1,num_6,32,num_2,0.700111392536,,,2018_Feb_23_1624,60.0067554988,MAFE4ImagesEEG,001,203068,
AFNE01.JPG,AFNE01.JPG,AFNE01.JPG,AFNE01.JPG,AFNE01.JPG,AFNE01.JPG,,,,,,,,,,,,,,,,,3,7,37,6,,,,,,,AMNE11.jpg,AMSA07.jpg,AMNE01.jpg,AMSA09.jpg,AMSA09.jpg,MS,2,num_4,16,num_4,0.666806188063,,,2018_Feb_23_1624,60.0067554988,MAFE4ImagesEEG,001,203068,
AFNE01.JPG,AFNE01.JPG,AFNE01.JPG,AFNE01.JPG,AFNE01.JPG,AFNE01.JPG,,,,,,,,,,,,,,,,,3,8,38,2,,,,,,,AMNE05.jpg,AMNE01.jpg,AMSA09.jpg,AMSA03.jpg,AMNE01.jpg,MN,1,num_6,32,num_4,0.666828639805,,,2018_Feb_23_1624,60.0067554988,MAFE4ImagesEEG,001,203068,
AFNE01.JPG,AFNE01.JPG,AFNE01.JPG,AFNE01.JPG,AFNE01.JPG,AFNE01.JPG,,,,,,,,,,,,,,,,,3,9,39,1,,,,,,,AMSA12.jpg,AMSA01.jpg,AMNE05.jpg,AMNE19.jpg,AMNE19.jpg,MN,1,num_4,16,num_4,0.683455743361,,,2018_Feb_23_1624,60.0067554988,MAFE4ImagesEEG,001,203068,
AFNE01.JPG,AFNE01.JPG,AFNE01.JPG,AFNE01.JPG,AFNE01.JPG,AFNE01.JPG,,,,,,,,,,,,,,,,,4,0,40,7,,,,,,,AMSA08.jpg,AMNE20.jpg,AMNE08.jpg,AMSA04.jpg,AMNE20.jpg,MN,1,num_6,16,num_6,0.466833835817,,,2018_Feb_23_1624,60.0067554988,MAFE4ImagesEEG,001,203068,
AFNE01.JPG,AFNE01.JPG,AFNE01.JPG,AFNE01.JPG,AFNE01.JPG,AFNE01.JPG,,,,,,,,,,,,,,,,,4,1,41,3,,,,,,,AMSA15.jpg,AMNE05.jpg,AMSA19.jpg,AMNE09.jpg,AMNE05.jpg,MN,1,num_6,32,num_2,0.51679019921,,,2018_Feb_23_1624,60.0067554988,MAFE4ImagesEEG,001,203068,
AFNE01.JPG,AFNE01.JPG,AFNE01.JPG,AFNE01.JPG,AFNE01.JPG,AFNE01.JPG,,,,,,,,,,,,,,,,,4,2,42,5,,,,,,,AMSA16.jpg,AMSA06.jpg,AMNE19.jpg,AMNE07.jpg,AMSA16.jpg,MS,2,num_8,16,num_8,1.33328939206,,,2018_Feb_23_1624,60.0067554988,MAFE4ImagesEEG,001,203068,
AFNE01.JPG,AFNE01.JPG,AFNE01.JPG,AFNE01.JPG,AFNE01.JPG,AFNE01.JPG,,,,,,,,,,,,,,,,,4,3,43,9,,,,,,,AMSA06.jpg,AMNE20.jpg,AMNE18.jpg,AMSA20.jpg,AMSA20.jpg,MS,2,num_4,16,num_4,0.500150907552,,,2018_Feb_23_1624,60.0067554988,MAFE4ImagesEEG,001,203068,
AFNE01.JPG,AFNE01.JPG,AFNE01.JPG,AFNE01.JPG,AFNE01.JPG,AFNE01.JPG,,,,,,,,,,,,,,,,,4,4,44,1,,,,,,,AMSA03.jpg,AMNE11.jpg,AMSA02.jpg,AMNE14.jpg,AMSA03.jpg,MS,2,num_8,32,num_4,0.383498818614,,,2018_Feb_23_1624,60.0067554988,MAFE4ImagesEEG,001,203068,
AFNE01.JPG,AFNE01.JPG,AFNE01.JPG,AFNE01.JPG,AFNE01.JPG,AFNE01.JPG,,,,,,,,,,,,,,,,,4,5,45,6,,,,,,,AMNE18.jpg,AMSA17.jpg,AMSA16.jpg,AMNE03.jpg,AMSA16.jpg,MS,2,num_2,32,num_6,0.583494584891,,,2018_Feb_23_1624,60.0067554988,MAFE4ImagesEEG,001,203068,
AFNE01.JPG,AFNE01.JPG,AFNE01.JPG,AFNE01.JPG,AFNE01.JPG,AFNE01.JPG,,,,,,,,,,,,,,,,,4,6,46,4,,,,,,,AMSA13.jpg,AMNE07.jpg,AMNE06.jpg,AMSA20.jpg,AMNE06.jpg,MN,1,num_2,32,num_8,1.00012540899,,,2018_Feb_23_1624,60.0067554988,MAFE4ImagesEEG,001,203068,
AFNE01.JPG,AFNE01.JPG,AFNE01.JPG,AFNE01.JPG,AFNE01.JPG,AFNE01.JPG,,,,,,,,,,,,,,,,,4,7,47,0,,,,,,,AMSA18.jpg,AMNE11.jpg,AMSA08.jpg,AMNE20.jpg,AMSA18.jpg,MS,2,num_8,32,num_6,0.8501164763,,,2018_Feb_23_1624,60.0067554988,MAFE4ImagesEEG,001,203068,
AFNE01.JPG,AFNE01.JPG,AFNE01.JPG,AFNE01.JPG,AFNE01.JPG,AFNE01.JPG,,,,,,,,,,,,,,,,,4,8,48,2,,,,,,,AMNE01.jpg,AMSA07.jpg,AMNE20.jpg,AMSA02.jpg,AMNE20.jpg,MN,1,num_2,16,num_2,1.61676835688,,,2018_Feb_23_1624,60.0067554988,MAFE4ImagesEEG,001,203068,
AFNE01.JPG,AFNE01.JPG,AFNE01.JPG,AFNE01.JPG,AFNE01.JPG,AFNE01.JPG,,,,,,,,,,,,,,,,,4,9,49,8,,,,,,,AMNE08.jpg,AMSA12.jpg,AMNE13.jpg,AMSA04.jpg,AMNE08.jpg,MN,1,num_8,32,num_4,0.500129097374,,,2018_Feb_23_1624,60.0067554988,MAFE4ImagesEEG,001,203068,
AFNE01.JPG,AFNE01.JPG,AFNE01.JPG,AFNE01.JPG,AFNE01.JPG,AFNE01.JPG,,,,,,,,,,,,,,,,,5,0,50,8,,,,,,,AMSA13.jpg,AMSA18.jpg,AMNE08.jpg,AMNE20.jpg,AMNE20.jpg,MN,1,num_4,32,num_8,0.566793069826,,,2018_Feb_23_1624,60.0067554988,MAFE4ImagesEEG,001,203068,
AFNE01.JPG,AFNE01.JPG,AFNE01.JPG,AFNE01.JPG,AFNE01.JPG,AFNE01.JPG,,,,,,,,,,,,,,,,,5,1,51,6,,,,,,,AMSA03.jpg,AMNE11.jpg,AMSA09.jpg,AMNE15.jpg,AMSA03.jpg,MS,2,num_8,32,num_4,0.683491986827,,,2018_Feb_23_1624,60.0067554988,MAFE4ImagesEEG,001,203068,
AFNE01.JPG,AFNE01.JPG,AFNE01.JPG,AFNE01.JPG,AFNE01.JPG,AFNE01.JPG,,,,,,,,,,,,,,,,,5,2,52,5,,,,,,,AMNE03.jpg,AMSA03.jpg,AMNE20.jpg,AMSA09.jpg,AMNE20.jpg,MN,1,num_2,16,num_2,0.56676452409,,,2018_Feb_23_1624,60.0067554988,MAFE4ImagesEEG,001,203068,
AFNE01.JPG,AFNE01.JPG,AFNE01.JPG,AFNE01.JPG,AFNE01.JPG,AFNE01.JPG,,,,,,,,,,,,,,,,,5,3,53,2,,,,,,,AMNE15.jpg,AMNE19.jpg,AMSA10.jpg,AMSA20.jpg,AMSA10.jpg,MS,2,num_2,32,num_8,0.733474650886,,,2018_Feb_23_1624,60.0067554988,MAFE4ImagesEEG,001,203068,
AFNE01.JPG,AFNE01.JPG,AFNE01.JPG,AFNE01.JPG,AFNE01.JPG,AFNE01.JPG,,,,,,,,,,,,,,,,,5,4,54,7,,,,,,,AMSA17.jpg,AMNE20.jpg,AMSA02.jpg,AMNE14.jpg,AMNE20.jpg,MN,1,num_6,16,num_6,0.616805562633,,,2018_Feb_23_1624,60.0067554988,MAFE4ImagesEEG,001,203068,
AFNE01.JPG,AFNE01.JPG,AFNE01.JPG,AFNE01.JPG,AFNE01.JPG,AFNE01.JPG,,,,,,,,,,,,,,,,,5,5,55,1,,,,,,,AMSA13.jpg,AMNE19.jpg,AMNE05.jpg,AMSA10.jpg,AMSA10.jpg,MS,2,num_4,32,num_8,0.566836048849,,,2018_Feb_23_1624,60.0067554988,MAFE4ImagesEEG,001,203068,
AFNE01.JPG,AFNE01.JPG,AFNE01.JPG,AFNE01.JPG,AFNE01.JPG,AFNE01.JPG,,,,,,,,,,,,,,,,,5,6,56,4,,,,,,,AMNE11.jpg,AMSA14.jpg,AMSA02.jpg,AMNE18.jpg,AMSA14.jpg,MS,2,num_6,32,num_8,1.15011381416,,,2018_Feb_23_1624,60.0067554988,MAFE4ImagesEEG,001,203068,
AFNE01.JPG,AFNE01.JPG,AFNE01.JPG,AFNE01.JPG,AFNE01.JPG,AFNE01.JPG,,,,,,,,,,,,,,,,,5,7,57,0,,,,,,,AMNE12.jpg,AMNE05.jpg,AMSA14.jpg,AMSA10.jpg,AMSA10.jpg,MS,2,num_4,16,num_4,1.08344855881,,,2018_Feb_23_1624,60.0067554988,MAFE4ImagesEEG,001,203068,
AFNE01.JPG,AFNE01.JPG,AFNE01.JPG,AFNE01.JPG,AFNE01.JPG,AFNE01.JPG,,,,,,,,,,,,,,,,,5,8,58,3,,,,,,,AMNE07.jpg,AMSA19.jpg,AMNE19.jpg,AMSA11.jpg,AMNE07.jpg,MN,1,num_8,16,num_8,1.91672528163,,,2018_Feb_23_1624,60.0067554988,MAFE4ImagesEEG,001,203068,
AFNE01.JPG,AFNE01.JPG,AFNE01.JPG,AFNE01.JPG,AFNE01.JPG,AFNE01.JPG,,,,,,,,,,,,,,,,,5,9,59,9,,,,,,,AMSA13.jpg,AMNE12.jpg,AMSA11.jpg,AMNE02.jpg,AMSA13.jpg,MS,2,num_8,16,num_8,1.08344503061,,,2018_Feb_23_1624,60.0067554988,MAFE4ImagesEEG,001,203068,
,,,,,,,,,,,,,,,,,,,,,,,,,,,,,,,,,,,,,,,,,,,space,47.7966534747,2018_Feb_23_1624,60.0067554988,MAFE4ImagesEEG,001,203068,
AFNE01.JPG,AFNE01.JPG,AFNE01.JPG,AFNE01.JPG,AFNE01.JPG,AFNE01.JPG,,,,,,,,,,,,,,,,,,,,,0,0,0,8,,,AFSA16.jpg,AFSA04.jpg,AFNE16.jpg,AFNE19.jpg,AFSA16.jpg,FS,4,num_8,32,num_2,0.616637816303,,,2018_Feb_23_1624,60.0067554988,MAFE4ImagesEEG,001,203068,
AFNE01.JPG,AFNE01.JPG,AFNE01.JPG,AFNE01.JPG,AFNE01.JPG,AFNE01.JPG,,,,,,,,,,,,,,,,,,,,,0,1,1,9,,,AFSA14.jpg,AFNE09.jpg,AFNE11.jpg,AFSA13.jpg,AFSA14.jpg,FS,4,num_8,32,num_4,0.633569300873,,,2018_Feb_23_1624,60.0067554988,MAFE4ImagesEEG,001,203068,
AFNE01.JPG,AFNE01.JPG,AFNE01.JPG,AFNE01.JPG,AFNE01.JPG,AFNE01.JPG,,,,,,,,,,,,,,,,,,,,,0,2,2,2,,,AFNE10.jpg,AFSA02.jpg,AFSA11.jpg,AFNE14.jpg,AFNE14.jpg,FN,3,num_4,32,num_8,0.80018513056,,,2018_Feb_23_1624,60.0067554988,MAFE4ImagesEEG,001,203068,
AFNE01.JPG,AFNE01.JPG,AFNE01.JPG,AFNE01.JPG,AFNE01.JPG,AFNE01.JPG,,,,,,,,,,,,,,,,,,,,,0,3,3,4,,,AFNE03.jpg,AFNE19.jpg,AFSA15.jpg,AFSA20.jpg,AFNE03.jpg,FN,3,num_8,16,num_8,1.03345370665,,,2018_Feb_23_1624,60.0067554988,MAFE4ImagesEEG,001,203068,
AFNE01.JPG,AFNE01.JPG,AFNE01.JPG,AFNE01.JPG,AFNE01.JPG,AFNE01.JPG,,,,,,,,,,,,,,,,,,,,,0,4,4,3,,,AFSA08.jpg,AFNE02.jpg,AFSA03.jpg,AFNE09.jpg,AFSA03.jpg,FS,4,num_2,16,num_2,0.600236192113,,,2018_Feb_23_1624,60.0067554988,MAFE4ImagesEEG,001,203068,
AFNE01.JPG,AFNE01.JPG,AFNE01.JPG,AFNE01.JPG,AFNE01.JPG,AFNE01.JPG,,,,,,,,,,,,,,,,,,,,,0,5,5,6,,,AFNE16.jpg,AFSA20.jpg,AFNE18.jpg,AFSA11.jpg,AFNE16.jpg,FN,3,num_8,16,num_8,1.03344183927,,,2018_Feb_23_1624,60.0067554988,MAFE4ImagesEEG,001,203068,
AFNE01.JPG,AFNE01.JPG,AFNE01.JPG,AFNE01.JPG,AFNE01.JPG,AFNE01.JPG,,,,,,,,,,,,,,,,,,,,,0,6,6,0,,,AFSA09.jpg,AFSA18.jpg,AFNE12.jpg,AFNE11.jpg,AFNE12.jpg,FN,3,num_2,16,num_2,0.566787617281,,,2018_Feb_23_1624,60.0067554988,MAFE4ImagesEEG,001,203068,
AFNE01.JPG,AFNE01.JPG,AFNE01.JPG,AFNE01.JPG,AFNE01.JPG,AFNE01.JPG,,,,,,,,,,,,,,,,,,,,,0,7,7,5,,,AFSA14.jpg,AFNE04.jpg,AFSA17.jpg,AFNE09.jpg,AFSA17.jpg,FS,4,num_2,16,num_2,0.466830307618,,,2018_Feb_23_1624,60.0067554988,MAFE4ImagesEEG,001,203068,
AFNE01.JPG,AFNE01.JPG,AFNE01.JPG,AFNE01.JPG,AFNE01.JPG,AFNE01.JPG,,,,,,,,,,,,,,,,,,,,,0,8,8,1,,,AFSA08.jpg,AFNE19.jpg,AFNE18.jpg,AFSA11.jpg,AFSA08.jpg,FS,4,num_8,16,num_8,1.16675759619,,,2018_Feb_23_1624,60.0067554988,MAFE4ImagesEEG,001,203068,
AFNE01.JPG,AFNE01.JPG,AFNE01.JPG,AFNE01.JPG,AFNE01.JPG,AFNE01.JPG,,,,,,,,,,,,,,,,,,,,,0,9,9,7,,,AFSA19.jpg,AFNE07.jpg,AFSA15.jpg,AFNE03.jpg,AFNE07.jpg,FN,3,num_6,16,num_6,0.933462719433,,,2018_Feb_23_1624,60.0067554988,MAFE4ImagesEEG,001,203068,
AFNE01.JPG,AFNE01.JPG,AFNE01.JPG,AFNE01.JPG,AFNE01.JPG,AFNE01.JPG,,,,,,,,,,,,,,,,,,,,,1,0,10,0,,,AFNE08.jpg,AFNE19.jpg,AFSA08.jpg,AFSA05.jpg,AFNE08.jpg,FN,3,num_8,32,num_2,0.683483326808,,,2018_Feb_23_1624,60.0067554988,MAFE4ImagesEEG,001,203068,
AFNE01.JPG,AFNE01.JPG,AFNE01.JPG,AFNE01.JPG,AFNE01.JPG,AFNE01.JPG,,,,,,,,,,,,,,,,,,,,,1,1,11,2,,,AFSA07.jpg,AFNE07.jpg,AFNE04.jpg,AFSA10.jpg,AFSA10.jpg,FS,4,num_4,16,num_4,0.766505944426,,,2018_Feb_23_1624,60.0067554988,MAFE4ImagesEEG,001,203068,
AFNE01.JPG,AFNE01.JPG,AFNE01.JPG,AFNE01.JPG,AFNE01.JPG,AFNE01.JPG,,,,,,,,,,,,,,,,,,,,,1,2,12,4,,,AFSA16.jpg,AFNE11.jpg,AFNE20.jpg,AFSA14.jpg,AFNE11.jpg,FN,3,num_6,16,num_6,2.45001396816,,,2018_Feb_23_1624,60.0067554988,MAFE4ImagesEEG,001,203068,
AFNE01.JPG,AFNE01.JPG,AFNE01.JPG,AFNE01.JPG,AFNE01.JPG,AFNE01.JPG,,,,,,,,,,,,,,,,,,,,,1,3,13,9,,,AFNE01.jpg,AFSA18.jpg,AFNE04.jpg,AFSA17.jpg,AFSA18.jpg,FS,4,num_6,32,num_4,1.03341553872,,,2018_Feb_23_1624,60.0067554988,MAFE4ImagesEEG,001,203068,
AFNE01.JPG,AFNE01.JPG,AFNE01.JPG,AFNE01.JPG,AFNE01.JPG,AFNE01.JPG,,,,,,,,,,,,,,,,,,,,,1,4,14,6,,,AFSA20.jpg,AFNE04.jpg,AFNE15.jpg,AFSA10.jpg,AFSA20.jpg,FS,4,num_8,32,num_4,0.666839545011,,,2018_Feb_23_1624,60.0067554988,MAFE4ImagesEEG,001,203068,
AFNE01.JPG,AFNE01.JPG,AFNE01.JPG,AFNE01.JPG,AFNE01.JPG,AFNE01.JPG,,,,,,,,,,,,,,,,,,,,,1,5,15,5,,,AFSA19.jpg,AFSA14.jpg,AFNE07.jpg,AFNE14.jpg,AFNE14.jpg,FN,3,num_4,32,num_8,0.83352080523,,,2018_Feb_23_1624,60.0067554988,MAFE4ImagesEEG,001,203068,
AFNE01.JPG,AFNE01.JPG,AFNE01.JPG,AFNE01.JPG,AFNE01.JPG,AFNE01.JPG,,,,,,,,,,,,,,,,,,,,,1,6,16,3,,,AFNE12.jpg,AFNE04.jpg,AFSA19.jpg,AFSA15.jpg,AFNE04.jpg,FN,3,num_6,32,num_4,0.650154387695,,,2018_Feb_23_1624,60.0067554988,MAFE4ImagesEEG,001,203068,
AFNE01.JPG,AFNE01.JPG,AFNE01.JPG,AFNE01.JPG,AFNE01.JPG,AFNE01.JPG,,,,,,,,,,,,,,,,,,,,,1,7,17,7,,,AFNE04.jpg,AFSA08.jpg,AFNE05.jpg,AFSA16.jpg,AFSA08.jpg,FS,4,num_6,16,num_6,0.633568017976,,,2018_Feb_23_1624,60.0067554988,MAFE4ImagesEEG,001,203068,
AFNE01.JPG,AFNE01.JPG,AFNE01.JPG,AFNE01.JPG,AFNE01.JPG,AFNE01.JPG,,,,,,,,,,,,,,,,,,,,,1,8,18,8,,,AFNE07.jpg,AFSA19.jpg,AFNE01.jpg,AFSA20.jpg,AFSA19.jpg,FS,4,num_6,16,num_6,0.483520596754,,,2018_Feb_23_1624,60.0067554988,MAFE4ImagesEEG,001,203068,
AFNE01.JPG,AFNE01.JPG,AFNE01.JPG,AFNE01.JPG,AFNE01.JPG,AFNE01.JPG,,,,,,,,,,,,,,,,,,,,,1,9,19,1,,,AFSA01.jpg,AFNE13.jpg,AFNE17.jpg,AFSA10.jpg,AFNE17.jpg,FN,3,num_2,16,num_2,0.516815216863,,,2018_Feb_23_1624,60.0067554988,MAFE4ImagesEEG,001,203068,
AFNE01.JPG,AFNE01.JPG,AFNE01.JPG,AFNE01.JPG,AFNE01.JPG,AFNE01.JPG,,,,,,,,,,,,,,,,,,,,,2,0,20,3,,,AFNE05.jpg,AFNE11.jpg,AFSA02.jpg,AFSA16.jpg,AFSA16.jpg,FS,4,num_4,32,num_6,0.650294229854,,,2018_Feb_23_1624,60.0067554988,MAFE4ImagesEEG,001,203068,
AFNE01.JPG,AFNE01.JPG,AFNE01.JPG,AFNE01.JPG,AFNE01.JPG,AFNE01.JPG,,,,,,,,,,,,,,,,,,,,,2,1,21,2,,,AFNE14.jpg,AFNE12.jpg,AFSA16.jpg,AFSA15.jpg,AFNE14.jpg,FN,3,num_8,32,num_4,0.833503485308,,,2018_Feb_23_1624,60.0067554988,MAFE4ImagesEEG,001,203068,
AFNE01.JPG,AFNE01.JPG,AFNE01.JPG,AFNE01.JPG,AFNE01.JPG,AFNE01.JPG,,,,,,,,,,,,,,,,,,,,,2,2,22,8,,,AFSA17.jpg,AFSA04.jpg,AFNE06.jpg,AFNE14.jpg,AFSA04.jpg,FS,4,num_6,32,num_4,0.450151244411,,,2018_Feb_23_1624,60.0067554988,MAFE4ImagesEEG,001,203068,
AFNE01.JPG,AFNE01.JPG,AFNE01.JPG,AFNE01.JPG,AFNE01.JPG,AFNE01.JPG,,,,,,,,,,,,,,,,,,,,,2,3,23,9,,,AFNE04.jpg,AFSA10.jpg,AFNE15.jpg,AFSA05.jpg,AFNE04.jpg,FN,3,num_8,32,num_4,0.716795587679,,,2018_Feb_23_1624,60.0067554988,MAFE4ImagesEEG,001,203068,
AFNE01.JPG,AFNE01.JPG,AFNE01.JPG,AFNE01.JPG,AFNE01.JPG,AFNE01.JPG,,,,,,,,,,,,,,,,,,,,,2,4,24,0,,,AFNE18.jpg,AFSA07.jpg,AFNE02.jpg,AFSA11.jpg,AFSA07.jpg,FS,4,num_6,32,num_4,0.683502891916,,,2018_Feb_23_1624,60.0067554988,MAFE4ImagesEEG,001,203068,
AFNE01.JPG,AFNE01.JPG,AFNE01.JPG,AFNE01.JPG,AFNE01.JPG,AFNE01.JPG,,,,,,,,,,,,,,,,,,,,,2,5,25,1,,,AFSA17.jpg,AFNE11.jpg,AFNE05.jpg,AFSA19.jpg,AFNE11.jpg,FN,3,num_6,16,num_6,1.41673474351,,,2018_Feb_23_1624,60.0067554988,MAFE4ImagesEEG,001,203068,
AFNE01.JPG,AFNE01.JPG,AFNE01.JPG,AFNE01.JPG,AFNE01.JPG,AFNE01.JPG,,,,,,,,,,,,,,,,,,,,,2,6,26,6,,,AFSA02.jpg,AFNE15.jpg,AFNE08.jpg,AFSA14.jpg,AFSA14.jpg,FS,4,num_4,32,num_2,0.80013734044,,,2018_Feb_23_1624,60.0067554988,MAFE4ImagesEEG,001,203068,
AFNE01.JPG,AFNE01.JPG,AFNE01.JPG,AFNE01.JPG,AFNE01.JPG,AFNE01.JPG,,,,,,,,,,,,,,,,,,,,,2,7,27,7,,,AFSA07.jpg,AFSA18.jpg,AFNE06.jpg,AFNE20.jpg,AFSA18.jpg,FS,4,num_6,16,num_6,0.783459239407,,,2018_Feb_23_1624,60.0067554988,MAFE4ImagesEEG,001,203068,
AFNE01.JPG,AFNE01.JPG,AFNE01.JPG,AFNE01.JPG,AFNE01.JPG,AFNE01.JPG,,,,,,,,,,,,,,,,,,,,,2,8,28,5,,,AFSA13.jpg,AFNE06.jpg,AFSA05.jpg,AFNE08.jpg,AFNE08.jpg,FN,3,num_4,16,num_4,0.550159551552,,,2018_Feb_23_1624,60.0067554988,MAFE4ImagesEEG,001,203068,
AFNE01.JPG,AFNE01.JPG,AFNE01.JPG,AFNE01.JPG,AFNE01.JPG,AFNE01.JPG,,,,,,,,,,,,,,,,,,,,,2,9,29,4,,,AFSA02.jpg,AFNE19.jpg,AFNE05.jpg,AFSA04.jpg,AFNE19.jpg,FN,3,num_6,16,num_6,0.383448783308,,,2018_Feb_23_1624,60.0067554988,MAFE4ImagesEEG,001,203068,
AFNE01.JPG,AFNE01.JPG,AFNE01.JPG,AFNE01.JPG,AFNE01.JPG,AFNE01.JPG,,,,,,,,,,,,,,,,,,,,,3,0,30,7,,,AFNE01.jpg,AFSA07.jpg,AFSA11.jpg,AFNE15.jpg,AFNE01.jpg,FN,3,num_8,32,num_4,1.11677332839,,,2018_Feb_23_1624,60.0067554988,MAFE4ImagesEEG,001,203068,
AFNE01.JPG,AFNE01.JPG,AFNE01.JPG,AFNE01.JPG,AFNE01.JPG,AFNE01.JPG,,,,,,,,,,,,,,,,,,,,,3,1,31,8,,,AFSA11.jpg,AFNE15.jpg,AFNE14.jpg,AFSA01.jpg,AFNE14.jpg,FN,3,num_2,32,num_6,0.716850754688,,,2018_Feb_23_1624,60.0067554988,MAFE4ImagesEEG,001,203068,
AFNE01.JPG,AFNE01.JPG,AFNE01.JPG,AFNE01.JPG,AFNE01.JPG,AFNE01.JPG,,,,,,,,,,,,,,,,,,,,,3,2,32,3,,,AFNE05.jpg,AFNE20.jpg,AFSA13.jpg,AFSA07.jpg,AFNE20.jpg,FN,3,num_6,32,num_2,1.03350887366,,,2018_Feb_23_1624,60.0067554988,MAFE4ImagesEEG,001,203068,
AFNE01.JPG,AFNE01.JPG,AFNE01.JPG,AFNE01.JPG,AFNE01.JPG,AFNE01.JPG,,,,,,,,,,,,,,,,,,,,,3,3,33,1,,,AFSA19.jpg,AFNE02.jpg,AFNE03.jpg,AFSA14.jpg,AFSA14.jpg,FS,4,num_4,32,num_6,0.800005516736,,,2018_Feb_23_1624,60.0067554988,MAFE4ImagesEEG,001,203068,
AFNE01.JPG,AFNE01.JPG,AFNE01.JPG,AFNE01.JPG,AFNE01.JPG,AFNE01.JPG,,,,,,,,,,,,,,,,,,,,,3,4,34,2,,,AFNE19.jpg,AFSA15.jpg,AFSA18.jpg,AFNE18.jpg,AFNE18.jpg,FN,3,num_4,16,num_4,0.716799757327,,,2018_Feb_23_1624,60.0067554988,MAFE4ImagesEEG,001,203068,
AFNE01.JPG,AFNE01.JPG,AFNE01.JPG,AFNE01.JPG,AFNE01.JPG,AFNE01.JPG,,,,,,,,,,,,,,,,,,,,,3,5,35,5,,,AFSA02.jpg,AFSA12.jpg,AFNE10.jpg,AFNE06.jpg,AFSA12.jpg,FS,4,num_6,16,num_6,0.466850514174,,,2018_Feb_23_1624,60.0067554988,MAFE4ImagesEEG,001,203068,
AFNE01.JPG,AFNE01.JPG,AFNE01.JPG,AFNE01.JPG,AFNE01.JPG,AFNE01.JPG,,,,,,,,,,,,,,,,,,,,,3,6,36,0,,,AFSA13.jpg,AFNE01.jpg,AFSA02.jpg,AFNE14.jpg,AFNE01.jpg,FN,3,num_6,32,num_4,0.56678825873,,,2018_Feb_23_1624,60.0067554988,MAFE4ImagesEEG,001,203068,
AFNE01.JPG,AFNE01.JPG,AFNE01.JPG,AFNE01.JPG,AFNE01.JPG,AFNE01.JPG,,,,,,,,,,,,,,,,,,,,,3,7,37,9,,,AFNE18.jpg,AFNE07.jpg,AFSA08.jpg,AFSA18.jpg,AFNE18.jpg,FN,3,num_8,32,num_6,0.316860184539,,,2018_Feb_23_1624,60.0067554988,MAFE4ImagesEEG,001,203068,
AFNE01.JPG,AFNE01.JPG,AFNE01.JPG,AFNE01.JPG,AFNE01.JPG,AFNE01.JPG,,,,,,,,,,,,,,,,,,,,,3,8,38,6,,,AFNE12.jpg,AFSA06.jpg,AFNE13.jpg,AFSA02.jpg,AFSA02.jpg,FS,4,num_4,16,num_4,0.150162887177,,,2018_Feb_23_1624,60.0067554988,MAFE4ImagesEEG,001,203068,
