IPosition2,IPosition3,IPosition1,IPosition6,IPosition4,IPosition5,TrialsF1.thisRepN,TrialsF1.thisTrialN,TrialsF1.thisN,TrialsF1.thisIndex,TrialsM1.thisRepN,TrialsM1.thisTrialN,TrialsM1.thisN,TrialsM1.thisIndex,TrialsF2.thisRepN,TrialsF2.thisTrialN,TrialsF2.thisN,TrialsF2.thisIndex,TrialsM2.thisRepN,TrialsM2.thisTrialN,TrialsM2.thisN,TrialsM2.thisIndex,TrialsF3.thisRepN,TrialsF3.thisTrialN,TrialsF3.thisN,TrialsF3.thisIndex,TrialsM3.thisRepN,TrialsM3.thisTrialN,TrialsM3.thisN,TrialsM3.thisIndex,InstrKey_resp.keys,InstrKey_resp.rt,Image0 _Position,Image1 _Position,Image2 _Position,Image3 _Position,Center_image,condition,code,correct_answer,accuracy,Key_Resp.keys,Key_Resp.rt,BreakKey_resp.keys,BreakKey_resp.rt,date,frameRate,expName,session,participant,
,,,,,,,,,,,,,,,,,,,,,,,,,,,,,,space,16.6992264742,,,,,,,,,,,,,,2018_Mar_01_1254,60.0023671987,FEMA4ImagesEEG,001,203080,
AFSA25.JPG,AFNE24.JPG,AFSA24.JPG,AFNE21.JPG,AFSA21.JPG,AFNE25.JPG,0,0,0,2,,,,,,,,,,,,,,,,,,,,,,,AFSA18.jpg,AFNE14.jpg,AFSA01.jpg,AFNE09.jpg,AFSA18.jpg,FS,4,num_8,32,num_2,3.64989234391,,,2018_Mar_01_1254,60.0023671987,FEMA4ImagesEEG,001,203080,
AFNE23.JPG,AFNE24.JPG,AFNE22.JPG,AFSA24.JPG,AFSA22.JPG,AFSA23.JPG,0,1,1,8,,,,,,,,,,,,,,,,,,,,,,,AFNE01.jpg,AFNE04.jpg,AFSA04.jpg,AFSA20.jpg,AFSA20.jpg,FS,4,num_4,32,num_8,0.950080200797,,,2018_Mar_01_1254,60.0023671987,FEMA4ImagesEEG,001,203080,
AMNE23.JPG,AMNE24.JPG,AMNE22.JPG,AMSA24.JPG,AMSA22.JPG,AMSA23.JPG,0,2,2,9,,,,,,,,,,,,,,,,,,,,,,,AFNE04.jpg,AFSA12.jpg,AFNE09.jpg,AFSA02.jpg,AFSA02.jpg,FS,4,num_4,16,num_4,0.733544251183,,,2018_Mar_01_1254,60.0023671987,FEMA4ImagesEEG,001,203080,
AMSA21.JPG,AMNE22.JPG,AMNE21.JPG,AMSA23.JPG,AMSA22.JPG,AMNE23.JPG,0,3,3,1,,,,,,,,,,,,,,,,,,,,,,,AFNE12.jpg,AFNE20.jpg,AFSA02.jpg,AFSA14.jpg,AFNE12.jpg,FN,3,num_8,32,num_4,0.783539744793,,,2018_Mar_01_1254,60.0023671987,FEMA4ImagesEEG,001,203080,
AFSA21.JPG,AFNE23.JPG,AFNE21.JPG,AFSA25.JPG,AFNE25.JPG,AFSA23.JPG,0,4,4,4,,,,,,,,,,,,,,,,,,,,,,,AFNE01.jpg,AFNE13.jpg,AFSA02.jpg,AFSA08.jpg,AFSA02.jpg,FS,4,num_2,32,num_4,0.850148870843,,,2018_Mar_01_1254,60.0023671987,FEMA4ImagesEEG,001,203080,
AFNE22.JPG,AFSA24.JPG,AFSA22.JPG,AFNE25.JPG,AFNE24.JPG,AFSA25.JPG,0,5,5,6,,,,,,,,,,,,,,,,,,,,,,,AFSA13.jpg,AFNE04.jpg,AFNE08.jpg,AFSA17.jpg,AFSA17.jpg,FS,4,num_4,32,num_8,0.533465092769,,,2018_Mar_01_1254,60.0023671987,FEMA4ImagesEEG,001,203080,
AMNE22.JPG,AMSA24.JPG,AMSA22.JPG,AMNE25.JPG,AMNE24.JPG,AMSA25.JPG,0,6,6,7,,,,,,,,,,,,,,,,,,,,,,,AFNE15.jpg,AFNE08.jpg,AFSA03.jpg,AFSA05.jpg,AFSA05.jpg,FS,4,num_4,32,num_2,0.333470930113,,,2018_Mar_01_1254,60.0023671987,FEMA4ImagesEEG,001,203080,
AMSA25.JPG,AMNE24.JPG,AMSA24.JPG,AMNE26.JPG,AMSA21.JPG,AMNE25.JPG,0,7,7,3,,,,,,,,,,,,,,,,,,,,,,,AFSA18.jpg,AFSA16.jpg,AFNE20.jpg,AFNE04.jpg,AFNE04.jpg,FN,3,num_4,48,None,,,,2018_Mar_01_1254,60.0023671987,FEMA4ImagesEEG,001,203080,
AMSA21.JPG,AMNE23.JPG,AMNE21.JPG,AMSA25.JPG,AMNE25.JPG,AMSA23.JPG,0,8,8,5,,,,,,,,,,,,,,,,,,,,,,,AFSA08.jpg,AFNE06.jpg,AFNE17.jpg,AFSA14.jpg,AFNE17.jpg,FN,3,num_2,16,num_2,1.56684599188,,,2018_Mar_01_1254,60.0023671987,FEMA4ImagesEEG,001,203080,
AFSA21.JPG,AFNE22.JPG,AFNE21.JPG,AFSA23.JPG,AFSA22.JPG,AFNE23.JPG,0,9,9,0,,,,,,,,,,,,,,,,,,,,,,,AFNE07.jpg,AFSA04.jpg,AFSA12.jpg,AFNE09.jpg,AFSA04.jpg,FS,4,num_6,32,num_2,0.750158525305,,,2018_Mar_01_1254,60.0023671987,FEMA4ImagesEEG,001,203080,
AMNE23.JPG,AMNE24.JPG,AMNE22.JPG,AMSA24.JPG,AMSA22.JPG,AMSA23.JPG,,,,,0,0,0,9,,,,,,,,,,,,,,,,,,,AMNE10.jpg,AMSA02.jpg,AMSA19.jpg,AMNE03.jpg,AMNE03.jpg,MN,1,num_4,32,num_2,0.783462126041,,,2018_Mar_01_1254,60.0023671987,FEMA4ImagesEEG,001,203080,
AMNE22.JPG,AMSA24.JPG,AMSA22.JPG,AMNE25.JPG,AMNE24.JPG,AMSA25.JPG,,,,,0,1,1,7,,,,,,,,,,,,,,,,,,,AMNE03.jpg,AMNE17.jpg,AMSA06.jpg,AMSA11.jpg,AMNE03.jpg,MN,1,num_8,32,num_2,0.700167842675,,,2018_Mar_01_1254,60.0023671987,FEMA4ImagesEEG,001,203080,
AMSA25.JPG,AMNE24.JPG,AMSA24.JPG,AMNE26.JPG,AMSA21.JPG,AMNE25.JPG,,,,,0,2,2,3,,,,,,,,,,,,,,,,,,,AMSA01.jpg,AMNE01.jpg,AMNE07.jpg,AMSA14.jpg,AMSA14.jpg,MS,2,num_4,16,num_4,0.683416292537,,,2018_Mar_01_1254,60.0023671987,FEMA4ImagesEEG,001,203080,
AFSA21.JPG,AFNE23.JPG,AFNE21.JPG,AFSA25.JPG,AFNE25.JPG,AFSA23.JPG,,,,,0,3,3,4,,,,,,,,,,,,,,,,,,,AMNE04.jpg,AMNE01.jpg,AMSA06.jpg,AMSA18.jpg,AMNE04.jpg,MN,1,num_8,16,num_8,0.716783720534,,,2018_Mar_01_1254,60.0023671987,FEMA4ImagesEEG,001,203080,
AFNE22.JPG,AFSA24.JPG,AFSA22.JPG,AFNE25.JPG,AFNE24.JPG,AFSA25.JPG,,,,,0,4,4,6,,,,,,,,,,,,,,,,,,,AMNE02.jpg,AMNE10.jpg,AMSA15.jpg,AMSA19.jpg,AMSA19.jpg,MS,2,num_4,16,num_4,0.566773825558,,,2018_Mar_01_1254,60.0023671987,FEMA4ImagesEEG,001,203080,
AMSA21.JPG,AMNE23.JPG,AMNE21.JPG,AMSA25.JPG,AMNE25.JPG,AMSA23.JPG,,,,,0,5,5,5,,,,,,,,,,,,,,,,,,,AMNE02.jpg,AMNE09.jpg,AMSA10.jpg,AMSA03.jpg,AMSA03.jpg,MS,2,num_4,32,num_2,0.683461837471,,,2018_Mar_01_1254,60.0023671987,FEMA4ImagesEEG,001,203080,
AFSA25.JPG,AFNE24.JPG,AFSA24.JPG,AFNE21.JPG,AFSA21.JPG,AFNE25.JPG,,,,,0,6,6,2,,,,,,,,,,,,,,,,,,,AMSA11.jpg,AMNE11.jpg,AMNE06.jpg,AMSA13.jpg,AMSA11.jpg,MS,2,num_8,16,num_8,0.449997610413,,,2018_Mar_01_1254,60.0023671987,FEMA4ImagesEEG,001,203080,
AFNE23.JPG,AFNE24.JPG,AFNE22.JPG,AFSA24.JPG,AFSA22.JPG,AFSA23.JPG,,,,,0,7,7,8,,,,,,,,,,,,,,,,,,,AMSA01.jpg,AMNE04.jpg,AMSA20.jpg,AMNE08.jpg,AMNE08.jpg,MN,1,num_4,32,num_2,0.650180046912,,,2018_Mar_01_1254,60.0023671987,FEMA4ImagesEEG,001,203080,
AFSA21.JPG,AFNE22.JPG,AFNE21.JPG,AFSA23.JPG,AFSA22.JPG,AFNE23.JPG,,,,,0,8,8,0,,,,,,,,,,,,,,,,,,,AMNE11.jpg,AMNE02.jpg,AMSA18.jpg,AMSA04.jpg,AMSA04.jpg,MS,2,num_4,16,num_4,0.816780480789,,,2018_Mar_01_1254,60.0023671987,FEMA4ImagesEEG,001,203080,
AMSA21.JPG,AMNE22.JPG,AMNE21.JPG,AMSA23.JPG,AMSA22.JPG,AMNE23.JPG,,,,,0,9,9,1,,,,,,,,,,,,,,,,,,,AMNE08.jpg,AMNE05.jpg,AMSA09.jpg,AMSA16.jpg,AMSA16.jpg,MS,2,num_4,32,num_8,0.533478563884,,,2018_Mar_01_1254,60.0023671987,FEMA4ImagesEEG,001,203080,
AMSA21.JPG,AMNE23.JPG,AMNE21.JPG,AMSA25.JPG,AMNE25.JPG,AMSA23.JPG,,,,,,,,,0,0,0,5,,,,,,,,,,,,,,,AFNE10.jpg,AFNE03.jpg,AFSA16.jpg,AFSA19.jpg,AFNE10.jpg,FN,3,num_8,32,num_6,0.600382769713,,,2018_Mar_01_1254,60.0023671987,FEMA4ImagesEEG,001,203080,
AMNE22.JPG,AMSA24.JPG,AMSA22.JPG,AMNE25.JPG,AMNE24.JPG,AMSA25.JPG,,,,,,,,,0,1,1,7,,,,,,,,,,,,,,,AFNE16.jpg,AFSA08.jpg,AFNE18.jpg,AFSA17.jpg,AFNE16.jpg,FN,3,num_8,32,num_4,0.633474362083,,,2018_Mar_01_1254,60.0023671987,FEMA4ImagesEEG,001,203080,
AFSA21.JPG,AFNE23.JPG,AFNE21.JPG,AFSA25.JPG,AFNE25.JPG,AFSA23.JPG,,,,,,,,,0,2,2,4,,,,,,,,,,,,,,,AFSA13.jpg,AFNE18.jpg,AFNE07.jpg,AFSA02.jpg,AFNE18.jpg,FN,3,num_6,16,num_6,0.716786286328,,,2018_Mar_01_1254,60.0023671987,FEMA4ImagesEEG,001,203080,
AMSA25.JPG,AMNE24.JPG,AMSA24.JPG,AMNE26.JPG,AMSA21.JPG,AMNE25.JPG,,,,,,,,,0,3,3,3,,,,,,,,,,,,,,,AFSA08.jpg,AFSA06.jpg,AFNE19.jpg,AFNE10.jpg,AFSA06.jpg,FS,4,num_6,32,num_8,0.600275642937,,,2018_Mar_01_1254,60.0023671987,FEMA4ImagesEEG,001,203080,
AMNE23.JPG,AMNE24.JPG,AMNE22.JPG,AMSA24.JPG,AMSA22.JPG,AMSA23.JPG,,,,,,,,,0,4,4,9,,,,,,,,,,,,,,,AFNE16.jpg,AFNE14.jpg,AFSA03.jpg,AFSA13.jpg,AFSA13.jpg,FS,4,num_4,32,num_6,0.733502876014,,,2018_Mar_01_1254,60.0023671987,FEMA4ImagesEEG,001,203080,
AFNE23.JPG,AFNE24.JPG,AFNE22.JPG,AFSA24.JPG,AFSA22.JPG,AFSA23.JPG,,,,,,,,,0,5,5,8,,,,,,,,,,,,,,,AFSA07.jpg,AFNE16.jpg,AFNE01.jpg,AFSA17.jpg,AFNE16.jpg,FN,3,num_6,32,num_2,0.500165020349,,,2018_Mar_01_1254,60.0023671987,FEMA4ImagesEEG,001,203080,
AFNE22.JPG,AFSA24.JPG,AFSA22.JPG,AFNE25.JPG,AFNE24.JPG,AFSA25.JPG,,,,,,,,,0,6,6,6,,,,,,,,,,,,,,,AFNE14.jpg,AFSA06.jpg,AFNE03.jpg,AFSA09.jpg,AFNE14.jpg,FN,3,num_8,16,num_8,0.533443603432,,,2018_Mar_01_1254,60.0023671987,FEMA4ImagesEEG,001,203080,
AFSA25.JPG,AFNE24.JPG,AFSA24.JPG,AFNE21.JPG,AFSA21.JPG,AFNE25.JPG,,,,,,,,,0,7,7,2,,,,,,,,,,,,,,,AFNE11.jpg,AFSA18.jpg,AFNE07.jpg,AFSA11.jpg,AFSA18.jpg,FS,4,num_6,32,num_8,0.51680783974,,,2018_Mar_01_1254,60.0023671987,FEMA4ImagesEEG,001,203080,
AFSA21.JPG,AFNE22.JPG,AFNE21.JPG,AFSA23.JPG,AFSA22.JPG,AFNE23.JPG,,,,,,,,,0,8,8,0,,,,,,,,,,,,,,,AFNE14.jpg,AFSA10.jpg,AFNE03.jpg,AFSA17.jpg,AFSA17.jpg,FS,4,num_4,16,num_4,0.633490720065,,,2018_Mar_01_1254,60.0023671987,FEMA4ImagesEEG,001,203080,
AMSA21.JPG,AMNE22.JPG,AMNE21.JPG,AMSA23.JPG,AMSA22.JPG,AMNE23.JPG,,,,,,,,,0,9,9,1,,,,,,,,,,,,,,,AFNE19.jpg,AFSA19.jpg,AFNE17.jpg,AFSA14.jpg,AFSA19.jpg,FS,4,num_6,32,num_2,0.366805642843,,,2018_Mar_01_1254,60.0023671987,FEMA4ImagesEEG,001,203080,
AFSA21.JPG,AFNE23.JPG,AFNE21.JPG,AFSA25.JPG,AFNE25.JPG,AFSA23.JPG,,,,,,,,,,,,,0,0,0,4,,,,,,,,,,,AMSA17.jpg,AMNE02.jpg,AMSA10.jpg,AMNE16.jpg,AMSA10.jpg,MS,2,num_2,32,num_4,0.733485876583,,,2018_Mar_01_1254,60.0023671987,FEMA4ImagesEEG,001,203080,
AFNE22.JPG,AFSA24.JPG,AFSA22.JPG,AFNE25.JPG,AFNE24.JPG,AFSA25.JPG,,,,,,,,,,,,,0,1,1,6,,,,,,,,,,,AMNE12.jpg,AMNE11.jpg,AMSA10.jpg,AMSA04.jpg,AMSA04.jpg,MS,2,num_4,32,num_8,0.516833178233,,,2018_Mar_01_1254,60.0023671987,FEMA4ImagesEEG,001,203080,
AFNE23.JPG,AFNE24.JPG,AFNE22.JPG,AFSA24.JPG,AFSA22.JPG,AFSA23.JPG,,,,,,,,,,,,,0,2,2,8,,,,,,,,,,,AMSA04.jpg,AMNE10.jpg,AMSA16.jpg,AMNE20.jpg,AMNE10.jpg,MN,1,num_6,32,num_4,0.616762263002,,,2018_Mar_01_1254,60.0023671987,FEMA4ImagesEEG,001,203080,
AMSA21.JPG,AMNE23.JPG,AMNE21.JPG,AMSA25.JPG,AMNE25.JPG,AMSA23.JPG,,,,,,,,,,,,,0,3,3,5,,,,,,,,,,,AMNE18.jpg,AMNE04.jpg,AMSA14.jpg,AMSA20.jpg,AMNE04.jpg,MN,1,num_6,32,num_8,0.750142488163,,,2018_Mar_01_1254,60.0023671987,FEMA4ImagesEEG,001,203080,
AFSA21.JPG,AFNE22.JPG,AFNE21.JPG,AFSA23.JPG,AFSA22.JPG,AFNE23.JPG,,,,,,,,,,,,,0,4,4,0,,,,,,,,,,,AMNE10.jpg,AMNE04.jpg,AMSA18.jpg,AMSA03.jpg,AMSA18.jpg,MS,2,num_2,16,num_2,0.700206972891,,,2018_Mar_01_1254,60.0023671987,FEMA4ImagesEEG,001,203080,
AMSA25.JPG,AMNE24.JPG,AMSA24.JPG,AMNE26.JPG,AMSA21.JPG,AMNE25.JPG,,,,,,,,,,,,,0,5,5,3,,,,,,,,,,,AMSA03.jpg,AMSA13.jpg,AMNE03.jpg,AMNE13.jpg,AMNE13.jpg,MN,1,num_4,16,num_4,0.483486919198,,,2018_Mar_01_1254,60.0023671987,FEMA4ImagesEEG,001,203080,
AMNE23.JPG,AMNE24.JPG,AMNE22.JPG,AMSA24.JPG,AMSA22.JPG,AMSA23.JPG,,,,,,,,,,,,,0,6,6,9,,,,,,,,,,,AMSA18.jpg,AMNE13.jpg,AMSA09.jpg,AMNE14.jpg,AMNE14.jpg,MN,1,num_4,32,num_8,0.533466055058,,,2018_Mar_01_1254,60.0023671987,FEMA4ImagesEEG,001,203080,
AMSA21.JPG,AMNE22.JPG,AMNE21.JPG,AMSA23.JPG,AMSA22.JPG,AMNE23.JPG,,,,,,,,,,,,,0,7,7,1,,,,,,,,,,,AMSA03.jpg,AMSA05.jpg,AMNE07.jpg,AMNE16.jpg,AMNE07.jpg,MN,1,num_2,16,num_2,0.0668198515195,,,2018_Mar_01_1254,60.0023671987,FEMA4ImagesEEG,001,203080,
AFSA25.JPG,AFNE24.JPG,AFSA24.JPG,AFNE21.JPG,AFSA21.JPG,AFNE25.JPG,,,,,,,,,,,,,0,8,8,2,,,,,,,,,,,AMSA19.jpg,AMNE17.jpg,AMNE03.jpg,AMSA14.jpg,AMNE03.jpg,MN,1,num_2,32,num_4,0.783457314828,,,2018_Mar_01_1254,60.0023671987,FEMA4ImagesEEG,001,203080,
AMNE22.JPG,AMSA24.JPG,AMSA22.JPG,AMNE25.JPG,AMNE24.JPG,AMSA25.JPG,,,,,,,,,,,,,0,9,9,7,,,,,,,,,,,AMSA16.jpg,AMNE09.jpg,AMSA15.jpg,AMNE10.jpg,AMSA15.jpg,MS,2,num_2,16,num_2,0.533566446509,,,2018_Mar_01_1254,60.0023671987,FEMA4ImagesEEG,001,203080,
AFNE22.JPG,AFSA24.JPG,AFSA22.JPG,AFNE25.JPG,AFNE24.JPG,AFSA25.JPG,,,,,,,,,,,,,,,,,0,0,0,6,,,,,,,AFNE15.jpg,AFSA03.jpg,AFNE03.jpg,AFSA14.jpg,AFSA03.jpg,FS,4,num_6,32,num_4,0.616794657428,,,2018_Mar_01_1254,60.0023671987,FEMA4ImagesEEG,001,203080,
AFSA25.JPG,AFNE24.JPG,AFSA24.JPG,AFNE21.JPG,AFSA21.JPG,AFNE25.JPG,,,,,,,,,,,,,,,,,0,1,1,2,,,,,,,AFSA04.jpg,AFNE03.jpg,AFNE15.jpg,AFSA10.jpg,AFSA10.jpg,FS,4,num_4,32,num_2,0.666893749731,,,2018_Mar_01_1254,60.0023671987,FEMA4ImagesEEG,001,203080,
AMSA21.JPG,AMNE23.JPG,AMNE21.JPG,AMSA25.JPG,AMNE25.JPG,AMSA23.JPG,,,,,,,,,,,,,,,,,0,2,2,5,,,,,,,AFNE06.jpg,AFSA01.jpg,AFNE02.jpg,AFSA04.jpg,AFNE02.jpg,FN,3,num_2,16,num_2,0.83350540977,,,2018_Mar_01_1254,60.0023671987,FEMA4ImagesEEG,001,203080,
AMNE23.JPG,AMNE24.JPG,AMNE22.JPG,AMSA24.JPG,AMSA22.JPG,AMSA23.JPG,,,,,,,,,,,,,,,,,0,3,3,9,,,,,,,AFNE11.jpg,AFSA12.jpg,AFNE09.jpg,AFSA06.jpg,AFNE09.jpg,FN,3,num_2,32,num_4,0.600180062698,,,2018_Mar_01_1254,60.0023671987,FEMA4ImagesEEG,001,203080,
AFSA21.JPG,AFNE22.JPG,AFNE21.JPG,AFSA23.JPG,AFSA22.JPG,AFNE23.JPG,,,,,,,,,,,,,,,,,0,4,4,0,,,,,,,AFNE03.jpg,AFNE14.jpg,AFSA20.jpg,AFSA10.jpg,AFNE14.jpg,FN,3,num_6,32,num_4,0.516811688663,,,2018_Mar_01_1254,60.0023671987,FEMA4ImagesEEG,001,203080,
AMSA21.JPG,AMNE22.JPG,AMNE21.JPG,AMSA23.JPG,AMSA22.JPG,AMNE23.JPG,,,,,,,,,,,,,,,,,0,5,5,1,,,,,,,AFNE19.jpg,AFSA03.jpg,AFNE11.jpg,AFSA05.jpg,AFNE11.jpg,FN,3,num_2,32,num_6,0.600150554907,,,2018_Mar_01_1254,60.0023671987,FEMA4ImagesEEG,001,203080,
AMNE22.JPG,AMSA24.JPG,AMSA22.JPG,AMNE25.JPG,AMNE24.JPG,AMSA25.JPG,,,,,,,,,,,,,,,,,0,6,6,7,,,,,,,AFSA10.jpg,AFNE19.jpg,AFNE18.jpg,AFSA08.jpg,AFNE18.jpg,FN,3,num_2,32,num_4,0.450187167153,,,2018_Mar_01_1254,60.0023671987,FEMA4ImagesEEG,001,203080,
AFNE23.JPG,AFNE24.JPG,AFNE22.JPG,AFSA24.JPG,AFSA22.JPG,AFSA23.JPG,,,,,,,,,,,,,,,,,0,7,7,8,,,,,,,AFSA03.jpg,AFSA11.jpg,AFNE09.jpg,AFNE15.jpg,AFSA11.jpg,FS,4,num_6,32,num_2,0.68343521608,,,2018_Mar_01_1254,60.0023671987,FEMA4ImagesEEG,001,203080,
AFSA21.JPG,AFNE23.JPG,AFNE21.JPG,AFSA25.JPG,AFNE25.JPG,AFSA23.JPG,,,,,,,,,,,,,,,,,0,8,8,4,,,,,,,AFSA08.jpg,AFNE16.jpg,AFSA11.jpg,AFNE20.jpg,AFNE16.jpg,FN,3,num_6,32,num_2,0.633485908853,,,2018_Mar_01_1254,60.0023671987,FEMA4ImagesEEG,001,203080,
AMSA25.JPG,AMNE24.JPG,AMSA24.JPG,AMNE26.JPG,AMSA21.JPG,AMNE25.JPG,,,,,,,,,,,,,,,,,0,9,9,3,,,,,,,AFNE07.jpg,AFSA14.jpg,AFSA10.jpg,AFNE20.jpg,AFSA10.jpg,FS,4,num_2,32,num_8,0.53345418768,,,2018_Mar_01_1254,60.0023671987,FEMA4ImagesEEG,001,203080,
AFSA25.JPG,AFNE24.JPG,AFSA24.JPG,AFNE21.JPG,AFSA21.JPG,AFNE25.JPG,,,,,,,,,,,,,,,,,,,,,0,0,0,2,,,AMNE03.jpg,AMNE02.jpg,AMSA01.jpg,AMSA13.jpg,AMNE03.jpg,MN,1,num_8,32,num_2,0.466757820686,,,2018_Mar_01_1254,60.0023671987,FEMA4ImagesEEG,001,203080,
AFSA21.JPG,AFNE22.JPG,AFNE21.JPG,AFSA23.JPG,AFSA22.JPG,AFNE23.JPG,,,,,,,,,,,,,,,,,,,,,0,1,1,0,,,AMSA04.jpg,AMSA10.jpg,AMNE03.jpg,AMNE10.jpg,AMNE03.jpg,MN,1,num_2,32,num_4,0.633448702982,,,2018_Mar_01_1254,60.0023671987,FEMA4ImagesEEG,001,203080,
AMNE22.JPG,AMSA24.JPG,AMSA22.JPG,AMNE25.JPG,AMNE24.JPG,AMSA25.JPG,,,,,,,,,,,,,,,,,,,,,0,2,2,7,,,AMNE05.jpg,AMSA08.jpg,AMSA12.jpg,AMNE02.jpg,AMNE02.jpg,MN,1,num_4,32,num_6,0.333505249349,,,2018_Mar_01_1254,60.0023671987,FEMA4ImagesEEG,001,203080,
AFNE23.JPG,AFNE24.JPG,AFNE22.JPG,AFSA24.JPG,AFSA22.JPG,AFSA23.JPG,,,,,,,,,,,,,,,,,,,,,0,3,3,8,,,AMSA17.jpg,AMNE07.jpg,AMSA01.jpg,AMNE03.jpg,AMSA01.jpg,MS,2,num_2,16,num_2,0.533241858706,,,2018_Mar_01_1254,60.0023671987,FEMA4ImagesEEG,001,203080,
AMSA25.JPG,AMNE24.JPG,AMSA24.JPG,AMNE26.JPG,AMSA21.JPG,AMNE25.JPG,,,,,,,,,,,,,,,,,,,,,0,4,4,3,,,AMNE18.jpg,AMNE05.jpg,AMSA20.jpg,AMSA01.jpg,AMSA20.jpg,MS,2,num_2,32,num_8,0.683516362915,,,2018_Mar_01_1254,60.0023671987,FEMA4ImagesEEG,001,203080,
AFSA21.JPG,AFNE23.JPG,AFNE21.JPG,AFSA25.JPG,AFNE25.JPG,AFSA23.JPG,,,,,,,,,,,,,,,,,,,,,0,5,5,4,,,AMNE02.jpg,AMSA12.jpg,AMNE19.jpg,AMSA01.jpg,AMSA12.jpg,MS,2,num_6,32,num_2,0.616752640577,,,2018_Mar_01_1254,60.0023671987,FEMA4ImagesEEG,001,203080,
AMNE23.JPG,AMNE24.JPG,AMNE22.JPG,AMSA24.JPG,AMSA22.JPG,AMSA23.JPG,,,,,,,,,,,,,,,,,,,,,0,6,6,9,,,AMSA01.jpg,AMNE13.jpg,AMSA16.jpg,AMNE03.jpg,AMSA01.jpg,MS,2,num_8,32,num_4,0.716763193021,,,2018_Mar_01_1254,60.0023671987,FEMA4ImagesEEG,001,203080,
AMSA21.JPG,AMNE22.JPG,AMNE21.JPG,AMSA23.JPG,AMSA22.JPG,AMNE23.JPG,,,,,,,,,,,,,,,,,,,,,0,7,7,1,,,AMNE09.jpg,AMSA14.jpg,AMNE10.jpg,AMSA10.jpg,AMSA14.jpg,MS,2,num_6,16,num_6,0.6335718669,,,2018_Mar_01_1254,60.0023671987,FEMA4ImagesEEG,001,203080,
AMSA21.JPG,AMNE23.JPG,AMNE21.JPG,AMSA25.JPG,AMNE25.JPG,AMSA23.JPG,,,,,,,,,,,,,,,,,,,,,0,8,8,5,,,AMSA19.jpg,AMNE15.jpg,AMNE04.jpg,AMSA02.jpg,AMNE15.jpg,MN,1,num_6,32,num_4,0.58347662352,,,2018_Mar_01_1254,60.0023671987,FEMA4ImagesEEG,001,203080,
AFNE22.JPG,AFSA24.JPG,AFSA22.JPG,AFNE25.JPG,AFNE24.JPG,AFSA25.JPG,,,,,,,,,,,,,,,,,,,,,0,9,9,6,,,AMNE05.jpg,AMNE08.jpg,AMSA01.jpg,AMSA19.jpg,AMNE05.jpg,MN,1,num_8,32,num_2,0.433501368389,,,2018_Mar_01_1254,60.0023671987,FEMA4ImagesEEG,001,203080,
,,,,,,,,,,,,,,,,,,,,,,,,,,,,,,,,,,,,,,,,,,,space,3.89991247049,2018_Mar_01_1254,60.0023671987,FEMA4ImagesEEG,001,203080,
AFNE01.JPG,AFNE01.JPG,AFNE01.JPG,AFNE01.JPG,AFNE01.JPG,AFNE01.JPG,0,0,0,6,,,,,,,,,,,,,,,,,,,,,,,AFSA03.jpg,AFNE05.jpg,AFNE17.jpg,AFSA02.jpg,AFSA02.jpg,FS,4,num_4,32,num_8,0.683504816378,,,2018_Mar_01_1254,60.0023671987,FEMA4ImagesEEG,001,203080,
AFNE01.JPG,AFNE01.JPG,AFNE01.JPG,AFNE01.JPG,AFNE01.JPG,AFNE01.JPG,0,1,1,1,,,,,,,,,,,,,,,,,,,,,,,AFNE13.jpg,AFSA13.jpg,AFSA16.jpg,AFNE18.jpg,AFNE18.jpg,FN,3,num_4,32,num_2,0.633328425931,,,2018_Mar_01_1254,60.0023671987,FEMA4ImagesEEG,001,203080,
AFNE01.JPG,AFNE01.JPG,AFNE01.JPG,AFNE01.JPG,AFNE01.JPG,AFNE01.JPG,0,2,2,2,,,,,,,,,,,,,,,,,,,,,,,AFSA06.jpg,AFNE12.jpg,AFSA17.jpg,AFNE10.jpg,AFSA17.jpg,FS,4,num_2,32,num_8,0.583474057494,,,2018_Mar_01_1254,60.0023671987,FEMA4ImagesEEG,001,203080,
AFNE01.JPG,AFNE01.JPG,AFNE01.JPG,AFNE01.JPG,AFNE01.JPG,AFNE01.JPG,0,3,3,9,,,,,,,,,,,,,,,,,,,,,,,AFSA02.jpg,AFNE19.jpg,AFSA16.jpg,AFNE12.jpg,AFSA16.jpg,FS,4,num_2,32,num_8,0.600115915062,,,2018_Mar_01_1254,60.0023671987,FEMA4ImagesEEG,001,203080,
AFNE01.JPG,AFNE01.JPG,AFNE01.JPG,AFNE01.JPG,AFNE01.JPG,AFNE01.JPG,0,4,4,7,,,,,,,,,,,,,,,,,,,,,,,AFNE07.jpg,AFNE03.jpg,AFSA10.jpg,AFSA14.jpg,AFSA10.jpg,FS,4,num_2,16,num_2,0.616825448582,,,2018_Mar_01_1254,60.0023671987,FEMA4ImagesEEG,001,203080,
AFNE01.JPG,AFNE01.JPG,AFNE01.JPG,AFNE01.JPG,AFNE01.JPG,AFNE01.JPG,0,5,5,8,,,,,,,,,,,,,,,,,,,,,,,AFNE05.jpg,AFSA01.jpg,AFNE02.jpg,AFSA14.jpg,AFNE05.jpg,FN,3,num_8,16,num_8,0.583601711551,,,2018_Mar_01_1254,60.0023671987,FEMA4ImagesEEG,001,203080,
AFNE01.JPG,AFNE01.JPG,AFNE01.JPG,AFNE01.JPG,AFNE01.JPG,AFNE01.JPG,0,6,6,4,,,,,,,,,,,,,,,,,,,,,,,AFSA17.jpg,AFSA15.jpg,AFNE10.jpg,AFNE17.jpg,AFNE17.jpg,FN,3,num_4,32,num_8,0.483506163582,,,2018_Mar_01_1254,60.0023671987,FEMA4ImagesEEG,001,203080,
AFNE01.JPG,AFNE01.JPG,AFNE01.JPG,AFNE01.JPG,AFNE01.JPG,AFNE01.JPG,0,7,7,5,,,,,,,,,,,,,,,,,,,,,,,AFNE08.jpg,AFNE16.jpg,AFSA01.jpg,AFSA10.jpg,AFNE16.jpg,FN,3,num_6,32,num_4,1.66671477747,,,2018_Mar_01_1254,60.0023671987,FEMA4ImagesEEG,001,203080,
AFNE01.JPG,AFNE01.JPG,AFNE01.JPG,AFNE01.JPG,AFNE01.JPG,AFNE01.JPG,0,8,8,3,,,,,,,,,,,,,,,,,,,,,,,AFSA10.jpg,AFNE11.jpg,AFNE04.jpg,AFSA14.jpg,AFNE11.jpg,FN,3,num_6,32,num_2,0.666811961215,,,2018_Mar_01_1254,60.0023671987,FEMA4ImagesEEG,001,203080,
AFNE01.JPG,AFNE01.JPG,AFNE01.JPG,AFNE01.JPG,AFNE01.JPG,AFNE01.JPG,0,9,9,0,,,,,,,,,,,,,,,,,,,,,,,AFNE15.jpg,AFSA01.jpg,AFNE20.jpg,AFSA14.jpg,AFSA14.jpg,FS,4,num_4,32,num_2,0.683466327609,,,2018_Mar_01_1254,60.0023671987,FEMA4ImagesEEG,001,203080,
AFNE01.JPG,AFNE01.JPG,AFNE01.JPG,AFNE01.JPG,AFNE01.JPG,AFNE01.JPG,1,0,10,9,,,,,,,,,,,,,,,,,,,,,,,AFSA11.jpg,AFSA07.jpg,AFNE12.jpg,AFNE17.jpg,AFNE12.jpg,FN,3,num_2,16,num_2,0.500259638298,,,2018_Mar_01_1254,60.0023671987,FEMA4ImagesEEG,001,203080,
AFNE01.JPG,AFNE01.JPG,AFNE01.JPG,AFNE01.JPG,AFNE01.JPG,AFNE01.JPG,1,1,11,3,,,,,,,,,,,,,,,,,,,,,,,AFNE19.jpg,AFSA15.jpg,AFSA02.jpg,AFNE16.jpg,AFNE19.jpg,FN,3,num_8,32,num_6,0.749925348209,,,2018_Mar_01_1254,60.0023671987,FEMA4ImagesEEG,001,203080,
AFNE01.JPG,AFNE01.JPG,AFNE01.JPG,AFNE01.JPG,AFNE01.JPG,AFNE01.JPG,1,2,12,5,,,,,,,,,,,,,,,,,,,,,,,AFSA12.jpg,AFNE17.jpg,AFNE11.jpg,AFSA05.jpg,AFNE11.jpg,FN,3,num_2,16,num_2,0.716800398892,,,2018_Mar_01_1254,60.0023671987,FEMA4ImagesEEG,001,203080,
AFNE01.JPG,AFNE01.JPG,AFNE01.JPG,AFNE01.JPG,AFNE01.JPG,AFNE01.JPG,1,3,13,0,,,,,,,,,,,,,,,,,,,,,,,AFNE16.jpg,AFSA09.jpg,AFSA16.jpg,AFNE07.jpg,AFSA09.jpg,FS,4,num_6,32,num_4,0.583514470607,,,2018_Mar_01_1254,60.0023671987,FEMA4ImagesEEG,001,203080,
AFNE01.JPG,AFNE01.JPG,AFNE01.JPG,AFNE01.JPG,AFNE01.JPG,AFNE01.JPG,1,4,14,8,,,,,,,,,,,,,,,,,,,,,,,AFNE08.jpg,AFSA09.jpg,AFNE18.jpg,AFSA06.jpg,AFNE18.jpg,FN,3,num_2,16,num_2,0.616785997758,,,2018_Mar_01_1254,60.0023671987,FEMA4ImagesEEG,001,203080,
AFNE01.JPG,AFNE01.JPG,AFNE01.JPG,AFNE01.JPG,AFNE01.JPG,AFNE01.JPG,1,5,15,2,,,,,,,,,,,,,,,,,,,,,,,AFNE06.jpg,AFSA19.jpg,AFNE18.jpg,AFSA20.jpg,AFNE18.jpg,FN,3,num_2,16,num_2,0.61673115124,,,2018_Mar_01_1254,60.0023671987,FEMA4ImagesEEG,001,203080,
AFNE01.JPG,AFNE01.JPG,AFNE01.JPG,AFNE01.JPG,AFNE01.JPG,AFNE01.JPG,1,6,16,6,,,,,,,,,,,,,,,,,,,,,,,AFSA04.jpg,AFSA09.jpg,AFNE16.jpg,AFNE20.jpg,AFNE16.jpg,FN,3,num_2,32,num_4,0.750140242977,,,2018_Mar_01_1254,60.0023671987,FEMA4ImagesEEG,001,203080,
AFNE01.JPG,AFNE01.JPG,AFNE01.JPG,AFNE01.JPG,AFNE01.JPG,AFNE01.JPG,1,7,17,7,,,,,,,,,,,,,,,,,,,,,,,AFNE06.jpg,AFNE20.jpg,AFSA11.jpg,AFSA17.jpg,AFNE06.jpg,FN,3,num_8,16,num_8,0.566842463799,,,2018_Mar_01_1254,60.0023671987,FEMA4ImagesEEG,001,203080,
AFNE01.JPG,AFNE01.JPG,AFNE01.JPG,AFNE01.JPG,AFNE01.JPG,AFNE01.JPG,1,8,18,1,,,,,,,,,,,,,,,,,,,,,,,AFNE19.jpg,AFNE14.jpg,AFSA01.jpg,AFSA17.jpg,AFNE19.jpg,FN,3,num_8,32,num_6,0.86676506931,,,2018_Mar_01_1254,60.0023671987,FEMA4ImagesEEG,001,203080,
AFNE01.JPG,AFNE01.JPG,AFNE01.JPG,AFNE01.JPG,AFNE01.JPG,AFNE01.JPG,1,9,19,4,,,,,,,,,,,,,,,,,,,,,,,AFNE08.jpg,AFSA08.jpg,AFSA20.jpg,AFNE14.jpg,AFNE08.jpg,FN,3,num_8,32,num_2,0.583592089359,,,2018_Mar_01_1254,60.0023671987,FEMA4ImagesEEG,001,203080,
AFNE01.JPG,AFNE01.JPG,AFNE01.JPG,AFNE01.JPG,AFNE01.JPG,AFNE01.JPG,2,0,20,4,,,,,,,,,,,,,,,,,,,,,,,AFSA17.jpg,AFNE13.jpg,AFNE08.jpg,AFSA06.jpg,AFSA06.jpg,FS,4,num_4,32,num_2,0.616812939756,,,2018_Mar_01_1254,60.0023671987,FEMA4ImagesEEG,001,203080,
AFNE01.JPG,AFNE01.JPG,AFNE01.JPG,AFNE01.JPG,AFNE01.JPG,AFNE01.JPG,2,1,21,9,,,,,,,,,,,,,,,,,,,,,,,AFSA04.jpg,AFNE12.jpg,AFNE16.jpg,AFSA10.jpg,AFNE16.jpg,FN,3,num_2,16,num_2,0.616757451789,,,2018_Mar_01_1254,60.0023671987,FEMA4ImagesEEG,001,203080,
AFNE01.JPG,AFNE01.JPG,AFNE01.JPG,AFNE01.JPG,AFNE01.JPG,AFNE01.JPG,2,2,22,3,,,,,,,,,,,,,,,,,,,,,,,AFNE09.jpg,AFSA09.jpg,AFNE03.jpg,AFSA16.jpg,AFSA16.jpg,FS,4,num_4,16,num_4,0.75015018601,,,2018_Mar_01_1254,60.0023671987,FEMA4ImagesEEG,001,203080,
AFNE01.JPG,AFNE01.JPG,AFNE01.JPG,AFNE01.JPG,AFNE01.JPG,AFNE01.JPG,2,3,23,0,,,,,,,,,,,,,,,,,,,,,,,AFNE08.jpg,AFSA20.jpg,AFNE03.jpg,AFSA02.jpg,AFSA20.jpg,FS,4,num_6,32,num_2,0.683461195789,,,2018_Mar_01_1254,60.0023671987,FEMA4ImagesEEG,001,203080,
AFNE01.JPG,AFNE01.JPG,AFNE01.JPG,AFNE01.JPG,AFNE01.JPG,AFNE01.JPG,2,4,24,1,,,,,,,,,,,,,,,,,,,,,,,AFNE13.jpg,AFNE11.jpg,AFSA14.jpg,AFSA02.jpg,AFNE11.jpg,FN,3,num_6,16,num_6,0.816506249132,,,2018_Mar_01_1254,60.0023671987,FEMA4ImagesEEG,001,203080,
AFNE01.JPG,AFNE01.JPG,AFNE01.JPG,AFNE01.JPG,AFNE01.JPG,AFNE01.JPG,2,5,25,7,,,,,,,,,,,,,,,,,,,,,,,AFNE02.jpg,AFSA01.jpg,AFNE09.jpg,AFSA19.jpg,AFNE09.jpg,FN,3,num_2,16,num_2,0.633653334575,,,2018_Mar_01_1254,60.0023671987,FEMA4ImagesEEG,001,203080,
AFNE01.JPG,AFNE01.JPG,AFNE01.JPG,AFNE01.JPG,AFNE01.JPG,AFNE01.JPG,2,6,26,6,,,,,,,,,,,,,,,,,,,,,,,AFSA07.jpg,AFNE19.jpg,AFSA18.jpg,AFNE03.jpg,AFNE19.jpg,FN,3,num_6,16,num_6,0.816730445717,,,2018_Mar_01_1254,60.0023671987,FEMA4ImagesEEG,001,203080,
AFNE01.JPG,AFNE01.JPG,AFNE01.JPG,AFNE01.JPG,AFNE01.JPG,AFNE01.JPG,2,7,27,8,,,,,,,,,,,,,,,,,,,,,,,AFSA15.jpg,AFNE04.jpg,AFSA14.jpg,AFNE08.jpg,AFSA14.jpg,FS,4,num_2,32,num_8,0.266888104845,,,2018_Mar_01_1254,60.0023671987,FEMA4ImagesEEG,001,203080,
AFNE01.JPG,AFNE01.JPG,AFNE01.JPG,AFNE01.JPG,AFNE01.JPG,AFNE01.JPG,2,8,28,2,,,,,,,,,,,,,,,,,,,,,,,AFNE11.jpg,AFSA16.jpg,AFNE06.jpg,AFSA19.jpg,AFNE11.jpg,FN,3,num_8,32,num_4,0.533469903748,,,2018_Mar_01_1254,60.0023671987,FEMA4ImagesEEG,001,203080,
AFNE01.JPG,AFNE01.JPG,AFNE01.JPG,AFNE01.JPG,AFNE01.JPG,AFNE01.JPG,2,9,29,5,,,,,,,,,,,,,,,,,,,,,,,AFNE07.jpg,AFNE16.jpg,AFSA19.jpg,AFSA12.jpg,AFNE07.jpg,FN,3,num_8,32,num_2,0.616805241909,,,2018_Mar_01_1254,60.0023671987,FEMA4ImagesEEG,001,203080,
AFNE01.JPG,AFNE01.JPG,AFNE01.JPG,AFNE01.JPG,AFNE01.JPG,AFNE01.JPG,3,0,30,9,,,,,,,,,,,,,,,,,,,,,,,AFSA12.jpg,AFNE14.jpg,AFSA08.jpg,AFNE03.jpg,AFSA08.jpg,FS,4,num_2,32,num_8,0.716793983942,,,2018_Mar_01_1254,60.0023671987,FEMA4ImagesEEG,001,203080,
AFNE01.JPG,AFNE01.JPG,AFNE01.JPG,AFNE01.JPG,AFNE01.JPG,AFNE01.JPG,3,1,31,1,,,,,,,,,,,,,,,,,,,,,,,AFNE17.jpg,AFNE16.jpg,AFSA14.jpg,AFSA01.jpg,AFSA01.jpg,FS,4,num_4,32,num_2,0.616752961418,,,2018_Mar_01_1254,60.0023671987,FEMA4ImagesEEG,001,203080,
AFNE01.JPG,AFNE01.JPG,AFNE01.JPG,AFNE01.JPG,AFNE01.JPG,AFNE01.JPG,3,2,32,8,,,,,,,,,,,,,,,,,,,,,,,AFSA17.jpg,AFSA08.jpg,AFNE01.jpg,AFNE03.jpg,AFNE01.jpg,FN,3,num_2,32,num_8,0.416814607568,,,2018_Mar_01_1254,60.0023671987,FEMA4ImagesEEG,001,203080,
AFNE01.JPG,AFNE01.JPG,AFNE01.JPG,AFNE01.JPG,AFNE01.JPG,AFNE01.JPG,3,3,33,6,,,,,,,,,,,,,,,,,,,,,,,AFNE17.jpg,AFSA02.jpg,AFSA01.jpg,AFNE02.jpg,AFNE17.jpg,FN,3,num_8,16,num_8,0.766818664968,,,2018_Mar_01_1254,60.0023671987,FEMA4ImagesEEG,001,203080,
AFNE01.JPG,AFNE01.JPG,AFNE01.JPG,AFNE01.JPG,AFNE01.JPG,AFNE01.JPG,3,4,34,0,,,,,,,,,,,,,,,,,,,,,,,AFNE15.jpg,AFNE01.jpg,AFSA09.jpg,AFSA18.jpg,AFNE01.jpg,FN,3,num_6,32,num_4,0.300189781236,,,2018_Mar_01_1254,60.0023671987,FEMA4ImagesEEG,001,203080,
AFNE01.JPG,AFNE01.JPG,AFNE01.JPG,AFNE01.JPG,AFNE01.JPG,AFNE01.JPG,3,5,35,7,,,,,,,,,,,,,,,,,,,,,,,AFSA13.jpg,AFNE18.jpg,AFNE03.jpg,AFSA05.jpg,AFNE18.jpg,FN,3,num_6,16,num_6,0.383543401258,,,2018_Mar_01_1254,60.0023671987,FEMA4ImagesEEG,001,203080,
AFNE01.JPG,AFNE01.JPG,AFNE01.JPG,AFNE01.JPG,AFNE01.JPG,AFNE01.JPG,3,6,36,3,,,,,,,,,,,,,,,,,,,,,,,AFSA08.jpg,AFNE09.jpg,AFSA11.jpg,AFNE11.jpg,AFSA08.jpg,FS,4,num_8,16,num_8,0.733476895839,,,2018_Mar_01_1254,60.0023671987,FEMA4ImagesEEG,001,203080,
AFNE01.JPG,AFNE01.JPG,AFNE01.JPG,AFNE01.JPG,AFNE01.JPG,AFNE01.JPG,3,7,37,5,,,,,,,,,,,,,,,,,,,,,,,AFSA03.jpg,AFNE14.jpg,AFSA09.jpg,AFNE18.jpg,AFNE18.jpg,FN,3,num_4,16,num_4,0.48345324141,,,2018_Mar_01_1254,60.0023671987,FEMA4ImagesEEG,001,203080,
AFNE01.JPG,AFNE01.JPG,AFNE01.JPG,AFNE01.JPG,AFNE01.JPG,AFNE01.JPG,3,8,38,4,,,,,,,,,,,,,,,,,,,,,,,AFSA05.jpg,AFNE07.jpg,AFSA06.jpg,AFNE16.jpg,AFNE07.jpg,FN,3,num_6,16,num_6,0.549981541466,,,2018_Mar_01_1254,60.0023671987,FEMA4ImagesEEG,001,203080,
AFNE01.JPG,AFNE01.JPG,AFNE01.JPG,AFNE01.JPG,AFNE01.JPG,AFNE01.JPG,3,9,39,2,,,,,,,,,,,,,,,,,,,,,,,AFNE12.jpg,AFSA08.jpg,AFSA19.jpg,AFNE19.jpg,AFSA19.jpg,FS,4,num_2,16,num_2,0.766778251622,,,2018_Mar_01_1254,60.0023671987,FEMA4ImagesEEG,001,203080,
AFNE01.JPG,AFNE01.JPG,AFNE01.JPG,AFNE01.JPG,AFNE01.JPG,AFNE01.JPG,4,0,40,4,,,,,,,,,,,,,,,,,,,,,,,AFSA09.jpg,AFSA06.jpg,AFNE20.jpg,AFNE04.jpg,AFSA09.jpg,FS,4,num_8,32,num_6,0.683137891116,,,2018_Mar_01_1254,60.0023671987,FEMA4ImagesEEG,001,203080,
AFNE01.JPG,AFNE01.JPG,AFNE01.JPG,AFNE01.JPG,AFNE01.JPG,AFNE01.JPG,4,1,41,5,,,,,,,,,,,,,,,,,,,,,,,AFNE19.jpg,AFNE10.jpg,AFSA09.jpg,AFSA12.jpg,AFSA12.jpg,FS,4,num_4,16,num_4,0.583520564483,,,2018_Mar_01_1254,60.0023671987,FEMA4ImagesEEG,001,203080,
AFNE01.JPG,AFNE01.JPG,AFNE01.JPG,AFNE01.JPG,AFNE01.JPG,AFNE01.JPG,4,2,42,7,,,,,,,,,,,,,,,,,,,,,,,AFNE07.jpg,AFSA04.jpg,AFNE10.jpg,AFSA15.jpg,AFNE10.jpg,FN,3,num_2,16,num_2,0.700144428527,,,2018_Mar_01_1254,60.0023671987,FEMA4ImagesEEG,001,203080,
AFNE01.JPG,AFNE01.JPG,AFNE01.JPG,AFNE01.JPG,AFNE01.JPG,AFNE01.JPG,4,3,43,9,,,,,,,,,,,,,,,,,,,,,,,AFSA19.jpg,AFNE20.jpg,AFSA10.jpg,AFNE09.jpg,AFSA19.jpg,FS,4,num_8,32,num_2,0.583614861825,,,2018_Mar_01_1254,60.0023671987,FEMA4ImagesEEG,001,203080,
AFNE01.JPG,AFNE01.JPG,AFNE01.JPG,AFNE01.JPG,AFNE01.JPG,AFNE01.JPG,4,4,44,8,,,,,,,,,,,,,,,,,,,,,,,AFSA02.jpg,AFSA15.jpg,AFNE19.jpg,AFNE14.jpg,AFNE19.jpg,FN,3,num_2,32,num_6,0.73331460217,,,2018_Mar_01_1254,60.0023671987,FEMA4ImagesEEG,001,203080,
AFNE01.JPG,AFNE01.JPG,AFNE01.JPG,AFNE01.JPG,AFNE01.JPG,AFNE01.JPG,4,5,45,3,,,,,,,,,,,,,,,,,,,,,,,AFSA16.jpg,AFNE03.jpg,AFNE14.jpg,AFSA19.jpg,AFSA19.jpg,FS,4,num_4,16,num_4,0.483301211381,,,2018_Mar_01_1254,60.0023671987,FEMA4ImagesEEG,001,203080,
AFNE01.JPG,AFNE01.JPG,AFNE01.JPG,AFNE01.JPG,AFNE01.JPG,AFNE01.JPG,4,6,46,6,,,,,,,,,,,,,,,,,,,,,,,AFNE05.jpg,AFNE13.jpg,AFSA12.jpg,AFSA03.jpg,AFSA12.jpg,FS,4,num_2,32,num_4,0.800169734983,,,2018_Mar_01_1254,60.0023671987,FEMA4ImagesEEG,001,203080,
AFNE01.JPG,AFNE01.JPG,AFNE01.JPG,AFNE01.JPG,AFNE01.JPG,AFNE01.JPG,4,7,47,0,,,,,,,,,,,,,,,,,,,,,,,AFSA04.jpg,AFNE08.jpg,AFSA10.jpg,AFNE07.jpg,AFSA10.jpg,FS,4,num_2,16,num_2,0.600111745531,,,2018_Mar_01_1254,60.0023671987,FEMA4ImagesEEG,001,203080,
AFNE01.JPG,AFNE01.JPG,AFNE01.JPG,AFNE01.JPG,AFNE01.JPG,AFNE01.JPG,4,8,48,1,,,,,,,,,,,,,,,,,,,,,,,AFNE10.jpg,AFSA01.jpg,AFNE12.jpg,AFSA04.jpg,AFSA01.jpg,FS,4,num_6,32,num_2,0.550143514527,,,2018_Mar_01_1254,60.0023671987,FEMA4ImagesEEG,001,203080,
AFNE01.JPG,AFNE01.JPG,AFNE01.JPG,AFNE01.JPG,AFNE01.JPG,AFNE01.JPG,4,9,49,2,,,,,,,,,,,,,,,,,,,,,,,AFSA19.jpg,AFNE08.jpg,AFSA03.jpg,AFNE07.jpg,AFSA19.jpg,FS,4,num_8,16,num_8,0.300178234465,,,2018_Mar_01_1254,60.0023671987,FEMA4ImagesEEG,001,203080,
AFNE01.JPG,AFNE01.JPG,AFNE01.JPG,AFNE01.JPG,AFNE01.JPG,AFNE01.JPG,5,0,50,1,,,,,,,,,,,,,,,,,,,,,,,AFNE05.jpg,AFNE11.jpg,AFSA01.jpg,AFSA07.jpg,AFSA07.jpg,FS,4,num_4,16,num_4,0.41678253375,,,2018_Mar_01_1254,60.0023671987,FEMA4ImagesEEG,001,203080,
AFNE01.JPG,AFNE01.JPG,AFNE01.JPG,AFNE01.JPG,AFNE01.JPG,AFNE01.JPG,5,1,51,2,,,,,,,,,,,,,,,,,,,,,,,AFNE16.jpg,AFSA07.jpg,AFNE20.jpg,AFSA16.jpg,AFNE16.jpg,FN,3,num_8,16,num_8,0.600212778198,,,2018_Mar_01_1254,60.0023671987,FEMA4ImagesEEG,001,203080,
AFNE01.JPG,AFNE01.JPG,AFNE01.JPG,AFNE01.JPG,AFNE01.JPG,AFNE01.JPG,5,2,52,8,,,,,,,,,,,,,,,,,,,,,,,AFNE20.jpg,AFNE16.jpg,AFSA02.jpg,AFSA12.jpg,AFNE20.jpg,FN,3,num_8,32,num_2,0.616810373729,,,2018_Mar_01_1254,60.0023671987,FEMA4ImagesEEG,001,203080,
AFNE01.JPG,AFNE01.JPG,AFNE01.JPG,AFNE01.JPG,AFNE01.JPG,AFNE01.JPG,5,3,53,4,,,,,,,,,,,,,,,,,,,,,,,AFSA18.jpg,AFNE03.jpg,AFSA10.jpg,AFNE15.jpg,AFSA10.jpg,FS,4,num_2,32,num_6,0.0835335545707,,,2018_Mar_01_1254,60.0023671987,FEMA4ImagesEEG,001,203080,
AFNE01.JPG,AFNE01.JPG,AFNE01.JPG,AFNE01.JPG,AFNE01.JPG,AFNE01.JPG,5,4,54,0,,,,,,,,,,,,,,,,,,,,,,,AFNE11.jpg,AFSA13.jpg,AFSA08.jpg,AFNE05.jpg,AFNE05.jpg,FN,3,num_4,32,num_8,0.216808256693,,,2018_Mar_01_1254,60.0023671987,FEMA4ImagesEEG,001,203080,
AFNE01.JPG,AFNE01.JPG,AFNE01.JPG,AFNE01.JPG,AFNE01.JPG,AFNE01.JPG,5,5,55,5,,,,,,,,,,,,,,,,,,,,,,,AFNE07.jpg,AFNE18.jpg,AFSA18.jpg,AFSA05.jpg,AFNE07.jpg,FN,3,num_8,32,num_4,0.350149031496,,,2018_Mar_01_1254,60.0023671987,FEMA4ImagesEEG,001,203080,
AFNE01.JPG,AFNE01.JPG,AFNE01.JPG,AFNE01.JPG,AFNE01.JPG,AFNE01.JPG,5,6,56,7,,,,,,,,,,,,,,,,,,,,,,,AFNE17.jpg,AFSA03.jpg,AFNE11.jpg,AFSA04.jpg,AFNE11.jpg,FN,3,num_2,16,num_2,0.550164362649,,,2018_Mar_01_1254,60.0023671987,FEMA4ImagesEEG,001,203080,
AFNE01.JPG,AFNE01.JPG,AFNE01.JPG,AFNE01.JPG,AFNE01.JPG,AFNE01.JPG,5,7,57,6,,,,,,,,,,,,,,,,,,,,,,,AFSA15.jpg,AFNE16.jpg,AFNE17.jpg,AFSA11.jpg,AFNE16.jpg,FN,3,num_6,32,num_8,0.600121046882,,,2018_Mar_01_1254,60.0023671987,FEMA4ImagesEEG,001,203080,
AFNE01.JPG,AFNE01.JPG,AFNE01.JPG,AFNE01.JPG,AFNE01.JPG,AFNE01.JPG,5,8,58,9,,,,,,,,,,,,,,,,,,,,,,,AFSA08.jpg,AFNE04.jpg,AFSA04.jpg,AFNE17.jpg,AFSA08.jpg,FS,4,num_8,32,num_4,0.600134197157,,,2018_Mar_01_1254,60.0023671987,FEMA4ImagesEEG,001,203080,
AFNE01.JPG,AFNE01.JPG,AFNE01.JPG,AFNE01.JPG,AFNE01.JPG,AFNE01.JPG,5,9,59,3,,,,,,,,,,,,,,,,,,,,,,,AFSA13.jpg,AFSA09.jpg,AFNE18.jpg,AFNE03.jpg,AFNE03.jpg,FN,3,num_4,16,num_4,0.616733396426,,,2018_Mar_01_1254,60.0023671987,FEMA4ImagesEEG,001,203080,
,,,,,,,,,,,,,,,,,,,,,,,,,,,,,,,,,,,,,,,,,,,space,2.84995257854,2018_Mar_01_1254,60.0023671987,FEMA4ImagesEEG,001,203080,
AFNE01.JPG,AFNE01.JPG,AFNE01.JPG,AFNE01.JPG,AFNE01.JPG,AFNE01.JPG,,,,,0,0,0,1,,,,,,,,,,,,,,,,,,,AMSA11.jpg,AMNE12.jpg,AMSA10.jpg,AMNE09.jpg,AMSA10.jpg,MS,2,num_2,16,num_2,1.05011769524,,,2018_Mar_01_1254,60.0023671987,FEMA4ImagesEEG,001,203080,
AFNE01.JPG,AFNE01.JPG,AFNE01.JPG,AFNE01.JPG,AFNE01.JPG,AFNE01.JPG,,,,,0,1,1,2,,,,,,,,,,,,,,,,,,,AMSA13.jpg,AMSA15.jpg,AMNE05.jpg,AMNE15.jpg,AMSA15.jpg,MS,2,num_6,16,num_6,0.650217252551,,,2018_Mar_01_1254,60.0023671987,FEMA4ImagesEEG,001,203080,
AFNE01.JPG,AFNE01.JPG,AFNE01.JPG,AFNE01.JPG,AFNE01.JPG,AFNE01.JPG,,,,,0,2,2,6,,,,,,,,,,,,,,,,,,,AMSA03.jpg,AMNE11.jpg,AMSA07.jpg,AMNE04.jpg,AMSA07.jpg,MS,2,num_2,32,num_4,0.633465381572,,,2018_Mar_01_1254,60.0023671987,FEMA4ImagesEEG,001,203080,
AFNE01.JPG,AFNE01.JPG,AFNE01.JPG,AFNE01.JPG,AFNE01.JPG,AFNE01.JPG,,,,,0,3,3,3,,,,,,,,,,,,,,,,,,,AMSA08.jpg,AMNE12.jpg,AMSA19.jpg,AMNE08.jpg,AMNE08.jpg,MN,1,num_4,16,num_4,0.600134197157,,,2018_Mar_01_1254,60.0023671987,FEMA4ImagesEEG,001,203080,
AFNE01.JPG,AFNE01.JPG,AFNE01.JPG,AFNE01.JPG,AFNE01.JPG,AFNE01.JPG,,,,,0,4,4,8,,,,,,,,,,,,,,,,,,,AMNE19.jpg,AMSA03.jpg,AMSA05.jpg,AMNE16.jpg,AMNE19.jpg,MN,1,num_8,32,num_2,0.5501537784,,,2018_Mar_01_1254,60.0023671987,FEMA4ImagesEEG,001,203080,
AFNE01.JPG,AFNE01.JPG,AFNE01.JPG,AFNE01.JPG,AFNE01.JPG,AFNE01.JPG,,,,,0,5,5,4,,,,,,,,,,,,,,,,,,,AMSA10.jpg,AMNE17.jpg,AMSA16.jpg,AMNE07.jpg,AMNE07.jpg,MN,1,num_4,32,num_2,0.600148630561,,,2018_Mar_01_1254,60.0023671987,FEMA4ImagesEEG,001,203080,
AFNE01.JPG,AFNE01.JPG,AFNE01.JPG,AFNE01.JPG,AFNE01.JPG,AFNE01.JPG,,,,,0,6,6,9,,,,,,,,,,,,,,,,,,,AMNE04.jpg,AMNE01.jpg,AMSA19.jpg,AMSA01.jpg,AMNE01.jpg,MN,1,num_6,32,num_2,0.650156632764,,,2018_Mar_01_1254,60.0023671987,FEMA4ImagesEEG,001,203080,
AFNE01.JPG,AFNE01.JPG,AFNE01.JPG,AFNE01.JPG,AFNE01.JPG,AFNE01.JPG,,,,,0,7,7,5,,,,,,,,,,,,,,,,,,,AMSA07.jpg,AMNE01.jpg,AMNE09.jpg,AMSA19.jpg,AMSA07.jpg,MS,2,num_8,16,num_8,0.533306327183,,,2018_Mar_01_1254,60.0023671987,FEMA4ImagesEEG,001,203080,
AFNE01.JPG,AFNE01.JPG,AFNE01.JPG,AFNE01.JPG,AFNE01.JPG,AFNE01.JPG,,,,,0,8,8,0,,,,,,,,,,,,,,,,,,,AMSA20.jpg,AMSA16.jpg,AMNE14.jpg,AMNE17.jpg,AMNE14.jpg,MN,1,num_2,16,num_2,0.550152816111,,,2018_Mar_01_1254,60.0023671987,FEMA4ImagesEEG,001,203080,
AFNE01.JPG,AFNE01.JPG,AFNE01.JPG,AFNE01.JPG,AFNE01.JPG,AFNE01.JPG,,,,,0,9,9,7,,,,,,,,,,,,,,,,,,,AMSA03.jpg,AMNE07.jpg,AMSA15.jpg,AMNE10.jpg,AMNE10.jpg,MN,1,num_4,32,num_2,0.666841148632,,,2018_Mar_01_1254,60.0023671987,FEMA4ImagesEEG,001,203080,
AFNE01.JPG,AFNE01.JPG,AFNE01.JPG,AFNE01.JPG,AFNE01.JPG,AFNE01.JPG,,,,,1,0,10,7,,,,,,,,,,,,,,,,,,,AMSA09.jpg,AMNE01.jpg,AMSA17.jpg,AMNE03.jpg,AMSA09.jpg,MS,2,num_8,16,num_8,0.683531437535,,,2018_Mar_01_1254,60.0023671987,FEMA4ImagesEEG,001,203080,
AFNE01.JPG,AFNE01.JPG,AFNE01.JPG,AFNE01.JPG,AFNE01.JPG,AFNE01.JPG,,,,,1,1,11,1,,,,,,,,,,,,,,,,,,,AMSA09.jpg,AMNE03.jpg,AMSA04.jpg,AMNE08.jpg,AMSA04.jpg,MS,2,num_2,32,num_8,0.683553247945,,,2018_Mar_01_1254,60.0023671987,FEMA4ImagesEEG,001,203080,
AFNE01.JPG,AFNE01.JPG,AFNE01.JPG,AFNE01.JPG,AFNE01.JPG,AFNE01.JPG,,,,,1,2,12,6,,,,,,,,,,,,,,,,,,,AMNE14.jpg,AMNE12.jpg,AMSA03.jpg,AMSA19.jpg,AMNE14.jpg,MN,1,num_8,32,num_2,0.583468284225,,,2018_Mar_01_1254,60.0023671987,FEMA4ImagesEEG,001,203080,
AFNE01.JPG,AFNE01.JPG,AFNE01.JPG,AFNE01.JPG,AFNE01.JPG,AFNE01.JPG,,,,,1,3,13,3,,,,,,,,,,,,,,,,,,,AMSA09.jpg,AMNE02.jpg,AMSA15.jpg,AMNE14.jpg,AMSA09.jpg,MS,2,num_8,32,num_2,0.533502619248,,,2018_Mar_01_1254,60.0023671987,FEMA4ImagesEEG,001,203080,
AFNE01.JPG,AFNE01.JPG,AFNE01.JPG,AFNE01.JPG,AFNE01.JPG,AFNE01.JPG,,,,,1,4,14,2,,,,,,,,,,,,,,,,,,,AMSA10.jpg,AMNE14.jpg,AMNE18.jpg,AMSA05.jpg,AMNE18.jpg,MN,1,num_2,16,num_2,0.900131535018,,,2018_Mar_01_1254,60.0023671987,FEMA4ImagesEEG,001,203080,
AFNE01.JPG,AFNE01.JPG,AFNE01.JPG,AFNE01.JPG,AFNE01.JPG,AFNE01.JPG,,,,,1,5,15,5,,,,,,,,,,,,,,,,,,,AMNE15.jpg,AMSA11.jpg,AMSA08.jpg,AMNE11.jpg,AMNE11.jpg,MN,1,num_4,32,num_2,0.933455342427,,,2018_Mar_01_1254,60.0023671987,FEMA4ImagesEEG,001,203080,
AFNE01.JPG,AFNE01.JPG,AFNE01.JPG,AFNE01.JPG,AFNE01.JPG,AFNE01.JPG,,,,,1,6,16,4,,,,,,,,,,,,,,,,,,,AMSA16.jpg,AMNE05.jpg,AMSA15.jpg,AMNE02.jpg,AMSA15.jpg,MS,2,num_2,16,num_2,0.466817798791,,,2018_Mar_01_1254,60.0023671987,FEMA4ImagesEEG,001,203080,
AFNE01.JPG,AFNE01.JPG,AFNE01.JPG,AFNE01.JPG,AFNE01.JPG,AFNE01.JPG,,,,,1,7,17,9,,,,,,,,,,,,,,,,,,,AMNE17.jpg,AMNE18.jpg,AMSA05.jpg,AMSA10.jpg,AMNE17.jpg,MN,1,num_8,32,num_2,0.716861980734,,,2018_Mar_01_1254,60.0023671987,FEMA4ImagesEEG,001,203080,
AFNE01.JPG,AFNE01.JPG,AFNE01.JPG,AFNE01.JPG,AFNE01.JPG,AFNE01.JPG,,,,,1,8,18,8,,,,,,,,,,,,,,,,,,,AMSA02.jpg,AMSA04.jpg,AMNE17.jpg,AMNE02.jpg,AMSA02.jpg,MS,2,num_8,32,num_6,0.733505762415,,,2018_Mar_01_1254,60.0023671987,FEMA4ImagesEEG,001,203080,
AFNE01.JPG,AFNE01.JPG,AFNE01.JPG,AFNE01.JPG,AFNE01.JPG,AFNE01.JPG,,,,,1,9,19,0,,,,,,,,,,,,,,,,,,,AMNE16.jpg,AMSA10.jpg,AMSA11.jpg,AMNE11.jpg,AMNE11.jpg,MN,1,num_4,16,num_4,0.700135448016,,,2018_Mar_01_1254,60.0023671987,FEMA4ImagesEEG,001,203080,
AFNE01.JPG,AFNE01.JPG,AFNE01.JPG,AFNE01.JPG,AFNE01.JPG,AFNE01.JPG,,,,,2,0,20,5,,,,,,,,,,,,,,,,,,,AMNE15.jpg,AMSA12.jpg,AMSA02.jpg,AMNE07.jpg,AMNE15.jpg,MN,1,num_8,32,num_6,0.633436835837,,,2018_Mar_01_1254,60.0023671987,FEMA4ImagesEEG,001,203080,
AFNE01.JPG,AFNE01.JPG,AFNE01.JPG,AFNE01.JPG,AFNE01.JPG,AFNE01.JPG,,,,,2,1,21,7,,,,,,,,,,,,,,,,,,,AMSA18.jpg,AMSA16.jpg,AMNE06.jpg,AMNE01.jpg,AMSA16.jpg,MS,2,num_6,16,num_6,0.666753586847,,,2018_Mar_01_1254,60.0023671987,FEMA4ImagesEEG,001,203080,
AFNE01.JPG,AFNE01.JPG,AFNE01.JPG,AFNE01.JPG,AFNE01.JPG,AFNE01.JPG,,,,,2,2,22,2,,,,,,,,,,,,,,,,,,,AMNE06.jpg,AMSA05.jpg,AMNE05.jpg,AMSA20.jpg,AMSA20.jpg,MS,2,num_4,32,num_6,0.666876429692,,,2018_Mar_01_1254,60.0023671987,FEMA4ImagesEEG,001,203080,
AFNE01.JPG,AFNE01.JPG,AFNE01.JPG,AFNE01.JPG,AFNE01.JPG,AFNE01.JPG,,,,,2,3,23,6,,,,,,,,,,,,,,,,,,,AMSA18.jpg,AMSA17.jpg,AMNE07.jpg,AMNE11.jpg,AMSA17.jpg,MS,2,num_6,32,num_4,0.400156071642,,,2018_Mar_01_1254,60.0023671987,FEMA4ImagesEEG,001,203080,
AFNE01.JPG,AFNE01.JPG,AFNE01.JPG,AFNE01.JPG,AFNE01.JPG,AFNE01.JPG,,,,,2,4,24,3,,,,,,,,,,,,,,,,,,,AMNE19.jpg,AMNE05.jpg,AMSA09.jpg,AMSA17.jpg,AMSA09.jpg,MS,2,num_2,16,num_2,0.566798842978,,,2018_Mar_01_1254,60.0023671987,FEMA4ImagesEEG,001,203080,
AFNE01.JPG,AFNE01.JPG,AFNE01.JPG,AFNE01.JPG,AFNE01.JPG,AFNE01.JPG,,,,,2,5,25,4,,,,,,,,,,,,,,,,,,,AMNE08.jpg,AMSA02.jpg,AMSA01.jpg,AMNE09.jpg,AMSA02.jpg,MS,2,num_6,32,num_2,0.716789814178,,,2018_Mar_01_1254,60.0023671987,FEMA4ImagesEEG,001,203080,
AFNE01.JPG,AFNE01.JPG,AFNE01.JPG,AFNE01.JPG,AFNE01.JPG,AFNE01.JPG,,,,,2,6,26,1,,,,,,,,,,,,,,,,,,,AMNE11.jpg,AMSA16.jpg,AMNE18.jpg,AMSA12.jpg,AMNE18.jpg,MN,1,num_2,32,num_6,0.483474410372,,,2018_Mar_01_1254,60.0023671987,FEMA4ImagesEEG,001,203080,
AFNE01.JPG,AFNE01.JPG,AFNE01.JPG,AFNE01.JPG,AFNE01.JPG,AFNE01.JPG,,,,,2,7,27,9,,,,,,,,,,,,,,,,,,,AMNE01.jpg,AMNE05.jpg,AMSA18.jpg,AMSA16.jpg,AMSA18.jpg,MS,2,num_2,16,num_2,0.616669890005,,,2018_Mar_01_1254,60.0023671987,FEMA4ImagesEEG,001,203080,
AFNE01.JPG,AFNE01.JPG,AFNE01.JPG,AFNE01.JPG,AFNE01.JPG,AFNE01.JPG,,,,,2,8,28,8,,,,,,,,,,,,,,,,,,,AMNE06.jpg,AMNE10.jpg,AMSA03.jpg,AMSA07.jpg,AMNE06.jpg,MN,1,num_8,32,num_2,0.766776968725,,,2018_Mar_01_1254,60.0023671987,FEMA4ImagesEEG,001,203080,
AFNE01.JPG,AFNE01.JPG,AFNE01.JPG,AFNE01.JPG,AFNE01.JPG,AFNE01.JPG,,,,,2,9,29,0,,,,,,,,,,,,,,,,,,,AMNE16.jpg,AMSA08.jpg,AMSA20.jpg,AMNE02.jpg,AMSA20.jpg,MS,2,num_2,32,num_4,0.516804632498,,,2018_Mar_01_1254,60.0023671987,FEMA4ImagesEEG,001,203080,
AFNE01.JPG,AFNE01.JPG,AFNE01.JPG,AFNE01.JPG,AFNE01.JPG,AFNE01.JPG,,,,,3,0,30,7,,,,,,,,,,,,,,,,,,,AMNE13.jpg,AMSA01.jpg,AMNE03.jpg,AMSA06.jpg,AMSA06.jpg,MS,2,num_4,32,num_2,0.666815810138,,,2018_Mar_01_1254,60.0023671987,FEMA4ImagesEEG,001,203080,
AFNE01.JPG,AFNE01.JPG,AFNE01.JPG,AFNE01.JPG,AFNE01.JPG,AFNE01.JPG,,,,,3,1,31,5,,,,,,,,,,,,,,,,,,,AMNE03.jpg,AMSA01.jpg,AMSA09.jpg,AMNE09.jpg,AMNE03.jpg,MN,1,num_8,32,num_2,0.633724217769,,,2018_Mar_01_1254,60.0023671987,FEMA4ImagesEEG,001,203080,
AFNE01.JPG,AFNE01.JPG,AFNE01.JPG,AFNE01.JPG,AFNE01.JPG,AFNE01.JPG,,,,,3,2,32,4,,,,,,,,,,,,,,,,,,,AMSA07.jpg,AMNE10.jpg,AMNE14.jpg,AMSA04.jpg,AMSA04.jpg,MS,2,num_4,16,num_4,0.500193245243,,,2018_Mar_01_1254,60.0023671987,FEMA4ImagesEEG,001,203080,
AFNE01.JPG,AFNE01.JPG,AFNE01.JPG,AFNE01.JPG,AFNE01.JPG,AFNE01.JPG,,,,,3,3,33,2,,,,,,,,,,,,,,,,,,,AMNE20.jpg,AMNE05.jpg,AMSA08.jpg,AMSA14.jpg,AMSA08.jpg,MS,2,num_2,16,num_2,0.616803958779,,,2018_Mar_01_1254,60.0023671987,FEMA4ImagesEEG,001,203080,
AFNE01.JPG,AFNE01.JPG,AFNE01.JPG,AFNE01.JPG,AFNE01.JPG,AFNE01.JPG,,,,,3,4,34,8,,,,,,,,,,,,,,,,,,,AMSA20.jpg,AMSA04.jpg,AMNE08.jpg,AMNE18.jpg,AMNE08.jpg,MN,1,num_2,32,num_4,0.70011780737,,,2018_Mar_01_1254,60.0023671987,FEMA4ImagesEEG,001,203080,
AFNE01.JPG,AFNE01.JPG,AFNE01.JPG,AFNE01.JPG,AFNE01.JPG,AFNE01.JPG,,,,,3,5,35,0,,,,,,,,,,,,,,,,,,,AMNE16.jpg,AMSA19.jpg,AMSA08.jpg,AMNE01.jpg,AMSA08.jpg,MS,2,num_2,16,num_2,0.466831269907,,,2018_Mar_01_1254,60.0023671987,FEMA4ImagesEEG,001,203080,
AFNE01.JPG,AFNE01.JPG,AFNE01.JPG,AFNE01.JPG,AFNE01.JPG,AFNE01.JPG,,,,,3,6,36,3,,,,,,,,,,,,,,,,,,,AMSA19.jpg,AMSA13.jpg,AMNE17.jpg,AMNE09.jpg,AMNE17.jpg,MN,1,num_2,16,num_2,0.566812634934,,,2018_Mar_01_1254,60.0023671987,FEMA4ImagesEEG,001,203080,
AFNE01.JPG,AFNE01.JPG,AFNE01.JPG,AFNE01.JPG,AFNE01.JPG,AFNE01.JPG,,,,,3,7,37,6,,,,,,,,,,,,,,,,,,,AMSA13.jpg,AMSA10.jpg,AMNE01.jpg,AMNE19.jpg,AMSA13.jpg,MS,2,num_8,32,num_6,0.683458950836,,,2018_Mar_01_1254,60.0023671987,FEMA4ImagesEEG,001,203080,
AFNE01.JPG,AFNE01.JPG,AFNE01.JPG,AFNE01.JPG,AFNE01.JPG,AFNE01.JPG,,,,,3,8,38,9,,,,,,,,,,,,,,,,,,,AMSA18.jpg,AMSA04.jpg,AMNE17.jpg,AMNE10.jpg,AMSA04.jpg,MS,2,num_6,32,num_4,0.600154403597,,,2018_Mar_01_1254,60.0023671987,FEMA4ImagesEEG,001,203080,
AFNE01.JPG,AFNE01.JPG,AFNE01.JPG,AFNE01.JPG,AFNE01.JPG,AFNE01.JPG,,,,,3,9,39,1,,,,,,,,,,,,,,,,,,,AMNE08.jpg,AMNE18.jpg,AMSA11.jpg,AMSA18.jpg,AMNE18.jpg,MN,1,num_6,32,num_2,0.550160834333,,,2018_Mar_01_1254,60.0023671987,FEMA4ImagesEEG,001,203080,
AFNE01.JPG,AFNE01.JPG,AFNE01.JPG,AFNE01.JPG,AFNE01.JPG,AFNE01.JPG,,,,,4,0,40,2,,,,,,,,,,,,,,,,,,,AMSA09.jpg,AMNE05.jpg,AMSA03.jpg,AMNE02.jpg,AMNE02.jpg,MN,1,num_4,16,num_4,0.600140612107,,,2018_Mar_01_1254,60.0023671987,FEMA4ImagesEEG,001,203080,
AFNE01.JPG,AFNE01.JPG,AFNE01.JPG,AFNE01.JPG,AFNE01.JPG,AFNE01.JPG,,,,,4,1,41,5,,,,,,,,,,,,,,,,,,,AMNE19.jpg,AMSA03.jpg,AMNE18.jpg,AMSA19.jpg,AMNE18.jpg,MN,1,num_2,32,num_8,0.583463473246,,,2018_Mar_01_1254,60.0023671987,FEMA4ImagesEEG,001,203080,
AFNE01.JPG,AFNE01.JPG,AFNE01.JPG,AFNE01.JPG,AFNE01.JPG,AFNE01.JPG,,,,,4,2,42,0,,,,,,,,,,,,,,,,,,,AMNE09.jpg,AMSA13.jpg,AMSA08.jpg,AMNE04.jpg,AMNE09.jpg,MN,1,num_8,32,num_4,0.783464371227,,,2018_Mar_01_1254,60.0023671987,FEMA4ImagesEEG,001,203080,
AFNE01.JPG,AFNE01.JPG,AFNE01.JPG,AFNE01.JPG,AFNE01.JPG,AFNE01.JPG,,,,,4,3,43,9,,,,,,,,,,,,,,,,,,,AMSA01.jpg,AMNE04.jpg,AMSA11.jpg,AMNE18.jpg,AMSA11.jpg,MS,2,num_2,32,num_6,0.350043187384,,,2018_Mar_01_1254,60.0023671987,FEMA4ImagesEEG,001,203080,
AFNE01.JPG,AFNE01.JPG,AFNE01.JPG,AFNE01.JPG,AFNE01.JPG,AFNE01.JPG,,,,,4,4,44,4,,,,,,,,,,,,,,,,,,,AMSA01.jpg,AMNE07.jpg,AMSA19.jpg,AMNE13.jpg,AMNE13.jpg,MN,1,num_4,16,num_4,0.516895722365,,,2018_Mar_01_1254,60.0023671987,FEMA4ImagesEEG,001,203080,
AFNE01.JPG,AFNE01.JPG,AFNE01.JPG,AFNE01.JPG,AFNE01.JPG,AFNE01.JPG,,,,,4,5,45,6,,,,,,,,,,,,,,,,,,,AMSA02.jpg,AMSA11.jpg,AMNE07.jpg,AMNE05.jpg,AMNE05.jpg,MN,1,num_4,32,num_2,0.566828351235,,,2018_Mar_01_1254,60.0023671987,FEMA4ImagesEEG,001,203080,
AFNE01.JPG,AFNE01.JPG,AFNE01.JPG,AFNE01.JPG,AFNE01.JPG,AFNE01.JPG,,,,,4,6,46,1,,,,,,,,,,,,,,,,,,,AMNE15.jpg,AMNE07.jpg,AMSA10.jpg,AMSA14.jpg,AMSA14.jpg,MS,2,num_4,16,num_4,0.550231076311,,,2018_Mar_01_1254,60.0023671987,FEMA4ImagesEEG,001,203080,
AFNE01.JPG,AFNE01.JPG,AFNE01.JPG,AFNE01.JPG,AFNE01.JPG,AFNE01.JPG,,,,,4,7,47,8,,,,,,,,,,,,,,,,,,,AMNE09.jpg,AMNE06.jpg,AMSA04.jpg,AMSA20.jpg,AMNE09.jpg,MN,1,num_8,16,num_8,0.41681909794,,,2018_Mar_01_1254,60.0023671987,FEMA4ImagesEEG,001,203080,
AFNE01.JPG,AFNE01.JPG,AFNE01.JPG,AFNE01.JPG,AFNE01.JPG,AFNE01.JPG,,,,,4,8,48,3,,,,,,,,,,,,,,,,,,,AMNE16.jpg,AMSA08.jpg,AMNE07.jpg,AMSA18.jpg,AMSA18.jpg,MS,2,num_4,32,num_2,0.666784057161,,,2018_Mar_01_1254,60.0023671987,FEMA4ImagesEEG,001,203080,
AFNE01.JPG,AFNE01.JPG,AFNE01.JPG,AFNE01.JPG,AFNE01.JPG,AFNE01.JPG,,,,,4,9,49,7,,,,,,,,,,,,,,,,,,,AMSA14.jpg,AMSA13.jpg,AMNE13.jpg,AMNE06.jpg,AMNE13.jpg,MN,1,num_2,32,num_6,0.583457699977,,,2018_Mar_01_1254,60.0023671987,FEMA4ImagesEEG,001,203080,
AFNE01.JPG,AFNE01.JPG,AFNE01.JPG,AFNE01.JPG,AFNE01.JPG,AFNE01.JPG,,,,,5,0,50,8,,,,,,,,,,,,,,,,,,,AMSA10.jpg,AMNE16.jpg,AMSA07.jpg,AMNE13.jpg,AMSA07.jpg,MS,2,num_2,16,num_2,0.566776070744,,,2018_Mar_01_1254,60.0023671987,FEMA4ImagesEEG,001,203080,
AFNE01.JPG,AFNE01.JPG,AFNE01.JPG,AFNE01.JPG,AFNE01.JPG,AFNE01.JPG,,,,,5,1,51,6,,,,,,,,,,,,,,,,,,,AMSA03.jpg,AMNE06.jpg,AMSA07.jpg,AMNE15.jpg,AMSA03.jpg,MS,2,num_8,32,num_2,0.533466055058,,,2018_Mar_01_1254,60.0023671987,FEMA4ImagesEEG,001,203080,
AFNE01.JPG,AFNE01.JPG,AFNE01.JPG,AFNE01.JPG,AFNE01.JPG,AFNE01.JPG,,,,,5,2,52,2,,,,,,,,,,,,,,,,,,,AMNE15.jpg,AMSA01.jpg,AMSA09.jpg,AMNE02.jpg,AMNE02.jpg,MN,1,num_4,16,num_4,0.549867358292,,,2018_Mar_01_1254,60.0023671987,FEMA4ImagesEEG,001,203080,
AFNE01.JPG,AFNE01.JPG,AFNE01.JPG,AFNE01.JPG,AFNE01.JPG,AFNE01.JPG,,,,,5,3,53,1,,,,,,,,,,,,,,,,,,,AMNE05.jpg,AMSA17.jpg,AMNE19.jpg,AMSA06.jpg,AMNE05.jpg,MN,1,num_8,32,num_2,0.583487207768,,,2018_Mar_01_1254,60.0023671987,FEMA4ImagesEEG,001,203080,
AFNE01.JPG,AFNE01.JPG,AFNE01.JPG,AFNE01.JPG,AFNE01.JPG,AFNE01.JPG,,,,,5,4,54,9,,,,,,,,,,,,,,,,,,,AMNE20.jpg,AMSA07.jpg,AMNE12.jpg,AMSA13.jpg,AMNE12.jpg,MN,1,num_2,16,num_2,0.483452279121,,,2018_Mar_01_1254,60.0023671987,FEMA4ImagesEEG,001,203080,
AFNE01.JPG,AFNE01.JPG,AFNE01.JPG,AFNE01.JPG,AFNE01.JPG,AFNE01.JPG,,,,,5,5,55,5,,,,,,,,,,,,,,,,,,,AMNE05.jpg,AMSA03.jpg,AMSA18.jpg,AMNE14.jpg,AMNE14.jpg,MN,1,num_4,16,num_4,0.566796918632,,,2018_Mar_01_1254,60.0023671987,FEMA4ImagesEEG,001,203080,
AFNE01.JPG,AFNE01.JPG,AFNE01.JPG,AFNE01.JPG,AFNE01.JPG,AFNE01.JPG,,,,,5,6,56,7,,,,,,,,,,,,,,,,,,,AMNE01.jpg,AMNE03.jpg,AMSA16.jpg,AMSA10.jpg,AMSA16.jpg,MS,2,num_2,16,num_2,0.533509034198,,,2018_Mar_01_1254,60.0023671987,FEMA4ImagesEEG,001,203080,
AFNE01.JPG,AFNE01.JPG,AFNE01.JPG,AFNE01.JPG,AFNE01.JPG,AFNE01.JPG,,,,,5,7,57,3,,,,,,,,,,,,,,,,,,,AMNE02.jpg,AMSA08.jpg,AMNE16.jpg,AMSA06.jpg,AMSA06.jpg,MS,2,num_4,32,num_6,0.566777353641,,,2018_Mar_01_1254,60.0023671987,FEMA4ImagesEEG,001,203080,
AFNE01.JPG,AFNE01.JPG,AFNE01.JPG,AFNE01.JPG,AFNE01.JPG,AFNE01.JPG,,,,,5,8,58,4,,,,,,,,,,,,,,,,,,,AMNE12.jpg,AMNE09.jpg,AMSA13.jpg,AMSA03.jpg,AMNE09.jpg,MN,1,num_6,32,num_4,0.600146064302,,,2018_Mar_01_1254,60.0023671987,FEMA4ImagesEEG,001,203080,
AFNE01.JPG,AFNE01.JPG,AFNE01.JPG,AFNE01.JPG,AFNE01.JPG,AFNE01.JPG,,,,,5,9,59,0,,,,,,,,,,,,,,,,,,,AMNE09.jpg,AMSA01.jpg,AMNE20.jpg,AMSA02.jpg,AMSA02.jpg,MS,2,num_4,32,num_8,0.483550104545,,,2018_Mar_01_1254,60.0023671987,FEMA4ImagesEEG,001,203080,
,,,,,,,,,,,,,,,,,,,,,,,,,,,,,,,,,,,,,,,,,,,space,3.53323833039,2018_Mar_01_1254,60.0023671987,FEMA4ImagesEEG,001,203080,
AFNE01.JPG,AFNE01.JPG,AFNE01.JPG,AFNE01.JPG,AFNE01.JPG,AFNE01.JPG,,,,,,,,,0,0,0,7,,,,,,,,,,,,,,,AFSA07.jpg,AFNE13.jpg,AFNE08.jpg,AFSA13.jpg,AFSA13.jpg,FS,4,num_4,32,num_2,0.516797897173,,,2018_Mar_01_1254,60.0023671987,FEMA4ImagesEEG,001,203080,
AFNE01.JPG,AFNE01.JPG,AFNE01.JPG,AFNE01.JPG,AFNE01.JPG,AFNE01.JPG,,,,,,,,,0,1,1,0,,,,,,,,,,,,,,,AFNE09.jpg,AFSA05.jpg,AFSA07.jpg,AFNE07.jpg,AFSA05.jpg,FS,4,num_6,16,num_6,0.516811368056,,,2018_Mar_01_1254,60.0023671987,FEMA4ImagesEEG,001,203080,
AFNE01.JPG,AFNE01.JPG,AFNE01.JPG,AFNE01.JPG,AFNE01.JPG,AFNE01.JPG,,,,,,,,,0,2,2,8,,,,,,,,,,,,,,,AFSA15.jpg,AFNE01.jpg,AFSA20.jpg,AFNE17.jpg,AFSA20.jpg,FS,4,num_2,16,num_2,0.600161459995,,,2018_Mar_01_1254,60.0023671987,FEMA4ImagesEEG,001,203080,
AFNE01.JPG,AFNE01.JPG,AFNE01.JPG,AFNE01.JPG,AFNE01.JPG,AFNE01.JPG,,,,,,,,,0,3,3,1,,,,,,,,,,,,,,,AFSA13.jpg,AFSA10.jpg,AFNE09.jpg,AFNE14.jpg,AFSA13.jpg,FS,4,num_8,32,num_4,0.616794657428,,,2018_Mar_01_1254,60.0023671987,FEMA4ImagesEEG,001,203080,
AFNE01.JPG,AFNE01.JPG,AFNE01.JPG,AFNE01.JPG,AFNE01.JPG,AFNE01.JPG,,,,,,,,,0,4,4,2,,,,,,,,,,,,,,,AFSA16.jpg,AFNE05.jpg,AFSA04.jpg,AFNE12.jpg,AFNE05.jpg,FN,3,num_6,32,num_2,0.533499091165,,,2018_Mar_01_1254,60.0023671987,FEMA4ImagesEEG,001,203080,
AFNE01.JPG,AFNE01.JPG,AFNE01.JPG,AFNE01.JPG,AFNE01.JPG,AFNE01.JPG,,,,,,,,,0,5,5,9,,,,,,,,,,,,,,,AFSA05.jpg,AFNE03.jpg,AFNE05.jpg,AFSA03.jpg,AFNE03.jpg,FN,3,num_6,32,num_2,0.549965183716,,,2018_Mar_01_1254,60.0023671987,FEMA4ImagesEEG,001,203080,
AFNE01.JPG,AFNE01.JPG,AFNE01.JPG,AFNE01.JPG,AFNE01.JPG,AFNE01.JPG,,,,,,,,,0,6,6,6,,,,,,,,,,,,,,,AFNE03.jpg,AFSA01.jpg,AFNE08.jpg,AFSA12.jpg,AFSA01.jpg,FS,4,num_6,16,num_6,0.583478547866,,,2018_Mar_01_1254,60.0023671987,FEMA4ImagesEEG,001,203080,
AFNE01.JPG,AFNE01.JPG,AFNE01.JPG,AFNE01.JPG,AFNE01.JPG,AFNE01.JPG,,,,,,,,,0,7,7,4,,,,,,,,,,,,,,,AFSA08.jpg,AFSA09.jpg,AFNE04.jpg,AFNE03.jpg,AFSA09.jpg,FS,4,num_6,32,num_4,0.533492355607,,,2018_Mar_01_1254,60.0023671987,FEMA4ImagesEEG,001,203080,
AFNE01.JPG,AFNE01.JPG,AFNE01.JPG,AFNE01.JPG,AFNE01.JPG,AFNE01.JPG,,,,,,,,,0,8,8,5,,,,,,,,,,,,,,,AFSA06.jpg,AFNE12.jpg,AFSA09.jpg,AFNE03.jpg,AFNE12.jpg,FN,3,num_6,16,num_6,0.516753635136,,,2018_Mar_01_1254,60.0023671987,FEMA4ImagesEEG,001,203080,
AFNE01.JPG,AFNE01.JPG,AFNE01.JPG,AFNE01.JPG,AFNE01.JPG,AFNE01.JPG,,,,,,,,,0,9,9,3,,,,,,,,,,,,,,,AFSA13.jpg,AFNE20.jpg,AFSA07.jpg,AFNE07.jpg,AFNE07.jpg,FN,3,num_4,32,num_2,0.46686013625,,,2018_Mar_01_1254,60.0023671987,FEMA4ImagesEEG,001,203080,
AFNE01.JPG,AFNE01.JPG,AFNE01.JPG,AFNE01.JPG,AFNE01.JPG,AFNE01.JPG,,,,,,,,,1,0,10,6,,,,,,,,,,,,,,,AFSA13.jpg,AFNE12.jpg,AFSA03.jpg,AFNE14.jpg,AFSA03.jpg,FS,4,num_2,16,num_2,0.816798762884,,,2018_Mar_01_1254,60.0023671987,FEMA4ImagesEEG,001,203080,
AFNE01.JPG,AFNE01.JPG,AFNE01.JPG,AFNE01.JPG,AFNE01.JPG,AFNE01.JPG,,,,,,,,,1,1,11,0,,,,,,,,,,,,,,,AFNE17.jpg,AFNE09.jpg,AFSA20.jpg,AFSA16.jpg,AFSA20.jpg,FS,4,num_2,32,num_4,0.483672947623,,,2018_Mar_01_1254,60.0023671987,FEMA4ImagesEEG,001,203080,
AFNE01.JPG,AFNE01.JPG,AFNE01.JPG,AFNE01.JPG,AFNE01.JPG,AFNE01.JPG,,,,,,,,,1,2,12,3,,,,,,,,,,,,,,,AFNE19.jpg,AFSA01.jpg,AFSA03.jpg,AFNE14.jpg,AFSA01.jpg,FS,4,num_6,32,num_8,0.600139008369,,,2018_Mar_01_1254,60.0023671987,FEMA4ImagesEEG,001,203080,
AFNE01.JPG,AFNE01.JPG,AFNE01.JPG,AFNE01.JPG,AFNE01.JPG,AFNE01.JPG,,,,,,,,,1,3,13,9,,,,,,,,,,,,,,,AFSA04.jpg,AFSA05.jpg,AFNE05.jpg,AFNE19.jpg,AFSA05.jpg,FS,4,num_6,32,num_2,0.550184889929,,,2018_Mar_01_1254,60.0023671987,FEMA4ImagesEEG,001,203080,
AFNE01.JPG,AFNE01.JPG,AFNE01.JPG,AFNE01.JPG,AFNE01.JPG,AFNE01.JPG,,,,,,,,,1,4,14,4,,,,,,,,,,,,,,,AFNE15.jpg,AFNE08.jpg,AFSA07.jpg,AFSA05.jpg,AFSA07.jpg,FS,4,num_2,32,num_8,0.49999342463,,,2018_Mar_01_1254,60.0023671987,FEMA4ImagesEEG,001,203080,
AFNE01.JPG,AFNE01.JPG,AFNE01.JPG,AFNE01.JPG,AFNE01.JPG,AFNE01.JPG,,,,,,,,,1,5,15,7,,,,,,,,,,,,,,,AFSA01.jpg,AFSA06.jpg,AFNE13.jpg,AFNE12.jpg,AFNE13.jpg,FN,3,num_2,32,num_6,0.616844051285,,,2018_Mar_01_1254,60.0023671987,FEMA4ImagesEEG,001,203080,
AFNE01.JPG,AFNE01.JPG,AFNE01.JPG,AFNE01.JPG,AFNE01.JPG,AFNE01.JPG,,,,,,,,,1,6,16,8,,,,,,,,,,,,,,,AFNE18.jpg,AFSA06.jpg,AFSA19.jpg,AFNE20.jpg,AFSA19.jpg,FS,4,num_2,32,num_6,0.516859158175,,,2018_Mar_01_1254,60.0023671987,FEMA4ImagesEEG,001,203080,
AFNE01.JPG,AFNE01.JPG,AFNE01.JPG,AFNE01.JPG,AFNE01.JPG,AFNE01.JPG,,,,,,,,,1,7,17,5,,,,,,,,,,,,,,,AFSA07.jpg,AFSA03.jpg,AFNE15.jpg,AFNE06.jpg,AFSA03.jpg,FS,4,num_6,32,num_4,0.616800751537,,,2018_Mar_01_1254,60.0023671987,FEMA4ImagesEEG,001,203080,
AFNE01.JPG,AFNE01.JPG,AFNE01.JPG,AFNE01.JPG,AFNE01.JPG,AFNE01.JPG,,,,,,,,,1,8,18,2,,,,,,,,,,,,,,,AFSA18.jpg,AFSA11.jpg,AFNE12.jpg,AFNE05.jpg,AFNE05.jpg,FN,3,num_4,32,num_2,0.616885426687,,,2018_Mar_01_1254,60.0023671987,FEMA4ImagesEEG,001,203080,
AFNE01.JPG,AFNE01.JPG,AFNE01.JPG,AFNE01.JPG,AFNE01.JPG,AFNE01.JPG,,,,,,,,,1,9,19,1,,,,,,,,,,,,,,,AFSA10.jpg,AFSA14.jpg,AFNE04.jpg,AFNE16.jpg,AFSA10.jpg,FS,4,num_8,32,num_4,0.733769730665,,,2018_Mar_01_1254,60.0023671987,FEMA4ImagesEEG,001,203080,
AFNE01.JPG,AFNE01.JPG,AFNE01.JPG,AFNE01.JPG,AFNE01.JPG,AFNE01.JPG,,,,,,,,,2,0,20,3,,,,,,,,,,,,,,,AFSA12.jpg,AFSA05.jpg,AFNE05.jpg,AFNE01.jpg,AFNE05.jpg,FN,3,num_2,32,num_6,0.566763241077,,,2018_Mar_01_1254,60.0023671987,FEMA4ImagesEEG,001,203080,
AFNE01.JPG,AFNE01.JPG,AFNE01.JPG,AFNE01.JPG,AFNE01.JPG,AFNE01.JPG,,,,,,,,,2,1,21,8,,,,,,,,,,,,,,,AFSA01.jpg,AFNE12.jpg,AFNE02.jpg,AFSA08.jpg,AFSA01.jpg,FS,4,num_8,16,num_8,0.716760947835,,,2018_Mar_01_1254,60.0023671987,FEMA4ImagesEEG,001,203080,
AFNE01.JPG,AFNE01.JPG,AFNE01.JPG,AFNE01.JPG,AFNE01.JPG,AFNE01.JPG,,,,,,,,,2,2,22,6,,,,,,,,,,,,,,,AFSA19.jpg,AFNE13.jpg,AFSA05.jpg,AFNE14.jpg,AFNE13.jpg,FN,3,num_6,32,num_2,0.300652928185,,,2018_Mar_01_1254,60.0023671987,FEMA4ImagesEEG,001,203080,
AFNE01.JPG,AFNE01.JPG,AFNE01.JPG,AFNE01.JPG,AFNE01.JPG,AFNE01.JPG,,,,,,,,,2,3,23,4,,,,,,,,,,,,,,,AFNE04.jpg,AFNE19.jpg,AFSA06.jpg,AFSA19.jpg,AFNE04.jpg,FN,3,num_8,32,num_4,0.38351004431,,,2018_Mar_01_1254,60.0023671987,FEMA4ImagesEEG,001,203080,
AFNE01.JPG,AFNE01.JPG,AFNE01.JPG,AFNE01.JPG,AFNE01.JPG,AFNE01.JPG,,,,,,,,,2,4,24,7,,,,,,,,,,,,,,,AFNE03.jpg,AFSA19.jpg,AFNE15.jpg,AFSA20.jpg,AFNE03.jpg,FN,3,num_8,32,num_2,0.400116941426,,,2018_Mar_01_1254,60.0023671987,FEMA4ImagesEEG,001,203080,
AFNE01.JPG,AFNE01.JPG,AFNE01.JPG,AFNE01.JPG,AFNE01.JPG,AFNE01.JPG,,,,,,,,,2,5,25,2,,,,,,,,,,,,,,,AFSA20.jpg,AFNE08.jpg,AFSA08.jpg,AFNE04.jpg,AFNE08.jpg,FN,3,num_6,16,num_6,0.300154499942,,,2018_Mar_01_1254,60.0023671987,FEMA4ImagesEEG,001,203080,
AFNE01.JPG,AFNE01.JPG,AFNE01.JPG,AFNE01.JPG,AFNE01.JPG,AFNE01.JPG,,,,,,,,,2,6,26,0,,,,,,,,,,,,,,,AFNE11.jpg,AFSA03.jpg,AFSA16.jpg,AFNE03.jpg,AFNE11.jpg,FN,3,num_8,32,num_4,0.500193886459,,,2018_Mar_01_1254,60.0023671987,FEMA4ImagesEEG,001,203080,
AFNE01.JPG,AFNE01.JPG,AFNE01.JPG,AFNE01.JPG,AFNE01.JPG,AFNE01.JPG,,,,,,,,,2,7,27,5,,,,,,,,,,,,,,,AFNE01.jpg,AFNE03.jpg,AFSA12.jpg,AFSA13.jpg,AFNE03.jpg,FN,3,num_6,32,num_2,0.450140980771,,,2018_Mar_01_1254,60.0023671987,FEMA4ImagesEEG,001,203080,
AFNE01.JPG,AFNE01.JPG,AFNE01.JPG,AFNE01.JPG,AFNE01.JPG,AFNE01.JPG,,,,,,,,,2,8,28,9,,,,,,,,,,,,,,,AFSA17.jpg,AFNE12.jpg,AFSA15.jpg,AFNE16.jpg,AFNE12.jpg,FN,3,num_6,32,num_2,0.399865482235,,,2018_Mar_01_1254,60.0023671987,FEMA4ImagesEEG,001,203080,
AFNE01.JPG,AFNE01.JPG,AFNE01.JPG,AFNE01.JPG,AFNE01.JPG,AFNE01.JPG,,,,,,,,,2,9,29,1,,,,,,,,,,,,,,,AFSA08.jpg,AFSA09.jpg,AFNE19.jpg,AFNE09.jpg,AFSA08.jpg,FS,4,num_8,32,num_4,0.483578009065,,,2018_Mar_01_1254,60.0023671987,FEMA4ImagesEEG,001,203080,
AFNE01.JPG,AFNE01.JPG,AFNE01.JPG,AFNE01.JPG,AFNE01.JPG,AFNE01.JPG,,,,,,,,,3,0,30,6,,,,,,,,,,,,,,,AFNE02.jpg,AFNE15.jpg,AFSA03.jpg,AFSA06.jpg,AFNE15.jpg,FN,3,num_6,32,num_8,0.666807791684,,,2018_Mar_01_1254,60.0023671987,FEMA4ImagesEEG,001,203080,
AFNE01.JPG,AFNE01.JPG,AFNE01.JPG,AFNE01.JPG,AFNE01.JPG,AFNE01.JPG,,,,,,,,,3,1,31,3,,,,,,,,,,,,,,,AFNE03.jpg,AFSA09.jpg,AFSA12.jpg,AFNE15.jpg,AFNE03.jpg,FN,3,num_8,32,num_2,0.350126900245,,,2018_Mar_01_1254,60.0023671987,FEMA4ImagesEEG,001,203080,
AFNE01.JPG,AFNE01.JPG,AFNE01.JPG,AFNE01.JPG,AFNE01.JPG,AFNE01.JPG,,,,,,,,,3,2,32,5,,,,,,,,,,,,,,,AFNE05.jpg,AFNE12.jpg,AFSA02.jpg,AFSA04.jpg,AFNE05.jpg,FN,3,num_8,32,num_2,0.566783126909,,,2018_Mar_01_1254,60.0023671987,FEMA4ImagesEEG,001,203080,
AFNE01.JPG,AFNE01.JPG,AFNE01.JPG,AFNE01.JPG,AFNE01.JPG,AFNE01.JPG,,,,,,,,,3,3,33,7,,,,,,,,,,,,,,,AFNE11.jpg,AFNE08.jpg,AFSA16.jpg,AFSA12.jpg,AFSA16.jpg,FS,4,num_2,16,num_2,0.53342884942,,,2018_Mar_01_1254,60.0023671987,FEMA4ImagesEEG,001,203080,
AFNE01.JPG,AFNE01.JPG,AFNE01.JPG,AFNE01.JPG,AFNE01.JPG,AFNE01.JPG,,,,,,,,,3,4,34,2,,,,,,,,,,,,,,,AFSA07.jpg,AFNE04.jpg,AFSA17.jpg,AFNE09.jpg,AFSA07.jpg,FS,4,num_8,32,num_2,0.566630775807,,,2018_Mar_01_1254,60.0023671987,FEMA4ImagesEEG,001,203080,
AFNE01.JPG,AFNE01.JPG,AFNE01.JPG,AFNE01.JPG,AFNE01.JPG,AFNE01.JPG,,,,,,,,,3,5,35,9,,,,,,,,,,,,,,,AFNE20.jpg,AFNE19.jpg,AFSA07.jpg,AFSA05.jpg,AFSA05.jpg,FS,4,num_4,16,num_4,0.283520981437,,,2018_Mar_01_1254,60.0023671987,FEMA4ImagesEEG,001,203080,
AFNE01.JPG,AFNE01.JPG,AFNE01.JPG,AFNE01.JPG,AFNE01.JPG,AFNE01.JPG,,,,,,,,,3,6,36,0,,,,,,,,,,,,,,,AFSA20.jpg,AFNE08.jpg,AFSA04.jpg,AFNE18.jpg,AFSA04.jpg,FS,4,num_2,32,num_6,0.283531886758,,,2018_Mar_01_1254,60.0023671987,FEMA4ImagesEEG,001,203080,
AFNE01.JPG,AFNE01.JPG,AFNE01.JPG,AFNE01.JPG,AFNE01.JPG,AFNE01.JPG,,,,,,,,,3,7,37,1,,,,,,,,,,,,,,,AFNE20.jpg,AFSA19.jpg,AFNE09.jpg,AFSA12.jpg,AFSA12.jpg,FS,4,num_4,32,num_2,0.60012810328,,,2018_Mar_01_1254,60.0023671987,FEMA4ImagesEEG,001,203080,
AFNE01.JPG,AFNE01.JPG,AFNE01.JPG,AFNE01.JPG,AFNE01.JPG,AFNE01.JPG,,,,,,,,,3,8,38,8,,,,,,,,,,,,,,,AFNE15.jpg,AFSA01.jpg,AFSA14.jpg,AFNE16.jpg,AFSA14.jpg,FS,4,num_2,16,num_2,0.566776070744,,,2018_Mar_01_1254,60.0023671987,FEMA4ImagesEEG,001,203080,
AFNE01.JPG,AFNE01.JPG,AFNE01.JPG,AFNE01.JPG,AFNE01.JPG,AFNE01.JPG,,,,,,,,,3,9,39,4,,,,,,,,,,,,,,,AFNE08.jpg,AFSA08.jpg,AFNE02.jpg,AFSA05.jpg,AFSA05.jpg,FS,4,num_4,16,num_4,0.250205192715,,,2018_Mar_01_1254,60.0023671987,FEMA4ImagesEEG,001,203080,
AFNE01.JPG,AFNE01.JPG,AFNE01.JPG,AFNE01.JPG,AFNE01.JPG,AFNE01.JPG,,,,,,,,,4,0,40,2,,,,,,,,,,,,,,,AFNE15.jpg,AFSA04.jpg,AFNE08.jpg,AFSA08.jpg,AFSA08.jpg,FS,4,num_4,32,num_2,0.333506532246,,,2018_Mar_01_1254,60.0023671987,FEMA4ImagesEEG,001,203080,
AFNE01.JPG,AFNE01.JPG,AFNE01.JPG,AFNE01.JPG,AFNE01.JPG,AFNE01.JPG,,,,,,,,,4,1,41,3,,,,,,,,,,,,,,,AFSA05.jpg,AFNE06.jpg,AFNE11.jpg,AFSA06.jpg,AFNE11.jpg,FN,3,num_2,32,num_8,0.683438102715,,,2018_Mar_01_1254,60.0023671987,FEMA4ImagesEEG,001,203080,
AFNE01.JPG,AFNE01.JPG,AFNE01.JPG,AFNE01.JPG,AFNE01.JPG,AFNE01.JPG,,,,,,,,,4,2,42,5,,,,,,,,,,,,,,,AFSA07.jpg,AFSA16.jpg,AFNE15.jpg,AFNE16.jpg,AFNE16.jpg,FN,3,num_4,32,num_2,0.317023440497,,,2018_Mar_01_1254,60.0023671987,FEMA4ImagesEEG,001,203080,
AFNE01.JPG,AFNE01.JPG,AFNE01.JPG,AFNE01.JPG,AFNE01.JPG,AFNE01.JPG,,,,,,,,,4,3,43,6,,,,,,,,,,,,,,,AFNE12.jpg,AFSA02.jpg,AFSA04.jpg,AFNE10.jpg,AFNE12.jpg,FN,3,num_8,32,num_4,0.316800206434,,,2018_Mar_01_1254,60.0023671987,FEMA4ImagesEEG,001,203080,
AFNE01.JPG,AFNE01.JPG,AFNE01.JPG,AFNE01.JPG,AFNE01.JPG,AFNE01.JPG,,,,,,,,,4,4,44,7,,,,,,,,,,,,,,,AFNE10.jpg,AFNE05.jpg,AFSA05.jpg,AFSA18.jpg,AFNE05.jpg,FN,3,num_6,32,num_8,0.317118379287,,,2018_Mar_01_1254,60.0023671987,FEMA4ImagesEEG,001,203080,
AFNE01.JPG,AFNE01.JPG,AFNE01.JPG,AFNE01.JPG,AFNE01.JPG,AFNE01.JPG,,,,,,,,,4,5,45,1,,,,,,,,,,,,,,,AFNE03.jpg,AFSA16.jpg,AFSA03.jpg,AFNE10.jpg,AFSA03.jpg,FS,4,num_2,16,num_2,0.316791867139,,,2018_Mar_01_1254,60.0023671987,FEMA4ImagesEEG,001,203080,
AFNE01.JPG,AFNE01.JPG,AFNE01.JPG,AFNE01.JPG,AFNE01.JPG,AFNE01.JPG,,,,,,,,,4,6,46,9,,,,,,,,,,,,,,,AFNE09.jpg,AFNE20.jpg,AFSA13.jpg,AFSA02.jpg,AFSA13.jpg,FS,4,num_2,16,num_2,0.583448077552,,,2018_Mar_01_1254,60.0023671987,FEMA4ImagesEEG,001,203080,
AFNE01.JPG,AFNE01.JPG,AFNE01.JPG,AFNE01.JPG,AFNE01.JPG,AFNE01.JPG,,,,,,,,,4,7,47,8,,,,,,,,,,,,,,,AFNE14.jpg,AFNE10.jpg,AFSA12.jpg,AFSA01.jpg,AFSA01.jpg,FS,4,num_4,32,num_2,0.550175267737,,,2018_Mar_01_1254,60.0023671987,FEMA4ImagesEEG,001,203080,
AFNE01.JPG,AFNE01.JPG,AFNE01.JPG,AFNE01.JPG,AFNE01.JPG,AFNE01.JPG,,,,,,,,,4,8,48,0,,,,,,,,,,,,,,,AFNE12.jpg,AFSA11.jpg,AFSA10.jpg,AFNE05.jpg,AFNE12.jpg,FN,3,num_8,16,num_8,0.500119154574,,,2018_Mar_01_1254,60.0023671987,FEMA4ImagesEEG,001,203080,
AFNE01.JPG,AFNE01.JPG,AFNE01.JPG,AFNE01.JPG,AFNE01.JPG,AFNE01.JPG,,,,,,,,,4,9,49,4,,,,,,,,,,,,,,,AFSA07.jpg,AFNE12.jpg,AFSA03.jpg,AFNE02.jpg,AFNE02.jpg,FN,3,num_4,32,num_2,0.366819113959,,,2018_Mar_01_1254,60.0023671987,FEMA4ImagesEEG,001,203080,
AFNE01.JPG,AFNE01.JPG,AFNE01.JPG,AFNE01.JPG,AFNE01.JPG,AFNE01.JPG,,,,,,,,,5,0,50,5,,,,,,,,,,,,,,,AFNE17.jpg,AFSA16.jpg,AFNE07.jpg,AFSA08.jpg,AFSA08.jpg,FS,4,num_4,32,num_2,0.450182997622,,,2018_Mar_01_1254,60.0023671987,FEMA4ImagesEEG,001,203080,
AFNE01.JPG,AFNE01.JPG,AFNE01.JPG,AFNE01.JPG,AFNE01.JPG,AFNE01.JPG,,,,,,,,,5,1,51,6,,,,,,,,,,,,,,,AFSA10.jpg,AFSA11.jpg,AFNE17.jpg,AFNE12.jpg,AFNE12.jpg,FN,3,num_4,16,num_4,0.333486967254,,,2018_Mar_01_1254,60.0023671987,FEMA4ImagesEEG,001,203080,
AFNE01.JPG,AFNE01.JPG,AFNE01.JPG,AFNE01.JPG,AFNE01.JPG,AFNE01.JPG,,,,,,,,,5,2,52,7,,,,,,,,,,,,,,,AFSA07.jpg,AFSA20.jpg,AFNE04.jpg,AFNE19.jpg,AFNE19.jpg,FN,3,num_4,32,num_2,0.616788884392,,,2018_Mar_01_1254,60.0023671987,FEMA4ImagesEEG,001,203080,
AFNE01.JPG,AFNE01.JPG,AFNE01.JPG,AFNE01.JPG,AFNE01.JPG,AFNE01.JPG,,,,,,,,,5,3,53,4,,,,,,,,,,,,,,,AFNE20.jpg,AFSA07.jpg,AFNE08.jpg,AFSA04.jpg,AFNE20.jpg,FN,3,num_8,32,num_2,0.516816499876,,,2018_Mar_01_1254,60.0023671987,FEMA4ImagesEEG,001,203080,
AFNE01.JPG,AFNE01.JPG,AFNE01.JPG,AFNE01.JPG,AFNE01.JPG,AFNE01.JPG,,,,,,,,,5,4,54,3,,,,,,,,,,,,,,,AFSA01.jpg,AFNE17.jpg,AFSA04.jpg,AFNE11.jpg,AFNE17.jpg,FN,3,num_6,32,num_2,0.533514807466,,,2018_Mar_01_1254,60.0023671987,FEMA4ImagesEEG,001,203080,
AFNE01.JPG,AFNE01.JPG,AFNE01.JPG,AFNE01.JPG,AFNE01.JPG,AFNE01.JPG,,,,,,,,,5,5,55,2,,,,,,,,,,,,,,,AFNE12.jpg,AFSA08.jpg,AFNE02.jpg,AFSA17.jpg,AFSA08.jpg,FS,4,num_6,16,num_6,4.76648445474,,,2018_Mar_01_1254,60.0023671987,FEMA4ImagesEEG,001,203080,
AFNE01.JPG,AFNE01.JPG,AFNE01.JPG,AFNE01.JPG,AFNE01.JPG,AFNE01.JPG,,,,,,,,,5,6,56,8,,,,,,,,,,,,,,,AFNE07.jpg,AFSA20.jpg,AFSA13.jpg,AFNE18.jpg,AFNE18.jpg,FN,3,num_4,32,num_8,0.400165372761,,,2018_Mar_01_1254,60.0023671987,FEMA4ImagesEEG,001,203080,
AFNE01.JPG,AFNE01.JPG,AFNE01.JPG,AFNE01.JPG,AFNE01.JPG,AFNE01.JPG,,,,,,,,,5,7,57,0,,,,,,,,,,,,,,,AFSA18.jpg,AFNE03.jpg,AFNE01.jpg,AFSA04.jpg,AFSA04.jpg,FS,4,num_4,16,num_4,0.633454476483,,,2018_Mar_01_1254,60.0023671987,FEMA4ImagesEEG,001,203080,
AFNE01.JPG,AFNE01.JPG,AFNE01.JPG,AFNE01.JPG,AFNE01.JPG,AFNE01.JPG,,,,,,,,,5,8,58,9,,,,,,,,,,,,,,,AFSA17.jpg,AFSA16.jpg,AFNE01.jpg,AFNE04.jpg,AFSA17.jpg,FS,4,num_8,32,num_2,0.516761974199,,,2018_Mar_01_1254,60.0023671987,FEMA4ImagesEEG,001,203080,
AFNE01.JPG,AFNE01.JPG,AFNE01.JPG,AFNE01.JPG,AFNE01.JPG,AFNE01.JPG,,,,,,,,,5,9,59,1,,,,,,,,,,,,,,,AFSA09.jpg,AFNE04.jpg,AFNE17.jpg,AFSA04.jpg,AFNE04.jpg,FN,3,num_6,32,num_2,0.400111809606,,,2018_Mar_01_1254,60.0023671987,FEMA4ImagesEEG,001,203080,
,,,,,,,,,,,,,,,,,,,,,,,,,,,,,,,,,,,,,,,,,,,space,2.10003204178,2018_Mar_01_1254,60.0023671987,FEMA4ImagesEEG,001,203080,
AFNE01.JPG,AFNE01.JPG,AFNE01.JPG,AFNE01.JPG,AFNE01.JPG,AFNE01.JPG,,,,,,,,,,,,,0,0,0,2,,,,,,,,,,,AMNE02.jpg,AMSA05.jpg,AMNE06.jpg,AMSA14.jpg,AMSA05.jpg,MS,2,num_6,32,num_2,0.283517132746,,,2018_Mar_01_1254,60.0023671987,FEMA4ImagesEEG,001,203080,
AFNE01.JPG,AFNE01.JPG,AFNE01.JPG,AFNE01.JPG,AFNE01.JPG,AFNE01.JPG,,,,,,,,,,,,,0,1,1,8,,,,,,,,,,,AMSA05.jpg,AMNE14.jpg,AMSA04.jpg,AMNE19.jpg,AMSA04.jpg,MS,2,num_2,32,num_6,0.316975008929,,,2018_Mar_01_1254,60.0023671987,FEMA4ImagesEEG,001,203080,
AFNE01.JPG,AFNE01.JPG,AFNE01.JPG,AFNE01.JPG,AFNE01.JPG,AFNE01.JPG,,,,,,,,,,,,,0,2,2,6,,,,,,,,,,,AMSA19.jpg,AMSA04.jpg,AMNE16.jpg,AMNE18.jpg,AMSA04.jpg,MS,2,num_6,32,num_4,0.350298495498,,,2018_Mar_01_1254,60.0023671987,FEMA4ImagesEEG,001,203080,
AFNE01.JPG,AFNE01.JPG,AFNE01.JPG,AFNE01.JPG,AFNE01.JPG,AFNE01.JPG,,,,,,,,,,,,,0,3,3,3,,,,,,,,,,,AMNE02.jpg,AMSA09.jpg,AMNE07.jpg,AMSA04.jpg,AMNE02.jpg,MN,1,num_8,16,num_8,0.316852166085,,,2018_Mar_01_1254,60.0023671987,FEMA4ImagesEEG,001,203080,
AFNE01.JPG,AFNE01.JPG,AFNE01.JPG,AFNE01.JPG,AFNE01.JPG,AFNE01.JPG,,,,,,,,,,,,,0,4,4,7,,,,,,,,,,,AMSA01.jpg,AMSA13.jpg,AMNE10.jpg,AMNE04.jpg,AMSA01.jpg,MS,2,num_8,32,num_6,0.433459030697,,,2018_Mar_01_1254,60.0023671987,FEMA4ImagesEEG,001,203080,
AFNE01.JPG,AFNE01.JPG,AFNE01.JPG,AFNE01.JPG,AFNE01.JPG,AFNE01.JPG,,,,,,,,,,,,,0,5,5,4,,,,,,,,,,,AMNE05.jpg,AMSA07.jpg,AMSA09.jpg,AMNE20.jpg,AMNE05.jpg,MN,1,num_8,32,num_2,0.266897406196,,,2018_Mar_01_1254,60.0023671987,FEMA4ImagesEEG,001,203080,
AFNE01.JPG,AFNE01.JPG,AFNE01.JPG,AFNE01.JPG,AFNE01.JPG,AFNE01.JPG,,,,,,,,,,,,,0,6,6,5,,,,,,,,,,,AMSA08.jpg,AMNE11.jpg,AMNE20.jpg,AMSA02.jpg,AMSA02.jpg,MS,2,num_4,16,num_4,0.150392857147,,,2018_Mar_01_1254,60.0023671987,FEMA4ImagesEEG,001,203080,
AFNE01.JPG,AFNE01.JPG,AFNE01.JPG,AFNE01.JPG,AFNE01.JPG,AFNE01.JPG,,,,,,,,,,,,,0,7,7,9,,,,,,,,,,,AMNE09.jpg,AMSA20.jpg,AMNE18.jpg,AMSA16.jpg,AMSA16.jpg,MS,2,num_4,32,num_8,0.35041941423,,,2018_Mar_01_1254,60.0023671987,FEMA4ImagesEEG,001,203080,
AFNE01.JPG,AFNE01.JPG,AFNE01.JPG,AFNE01.JPG,AFNE01.JPG,AFNE01.JPG,,,,,,,,,,,,,0,8,8,0,,,,,,,,,,,AMNE15.jpg,AMSA01.jpg,AMSA08.jpg,AMNE08.jpg,AMNE15.jpg,MN,1,num_8,32,num_4,0.266820749501,,,2018_Mar_01_1254,60.0023671987,FEMA4ImagesEEG,001,203080,
AFNE01.JPG,AFNE01.JPG,AFNE01.JPG,AFNE01.JPG,AFNE01.JPG,AFNE01.JPG,,,,,,,,,,,,,0,9,9,1,,,,,,,,,,,AMSA14.jpg,AMNE19.jpg,AMSA06.jpg,AMNE12.jpg,AMSA14.jpg,MS,2,num_8,32,num_6,0.300143915461,,,2018_Mar_01_1254,60.0023671987,FEMA4ImagesEEG,001,203080,
AFNE01.JPG,AFNE01.JPG,AFNE01.JPG,AFNE01.JPG,AFNE01.JPG,AFNE01.JPG,,,,,,,,,,,,,1,0,10,4,,,,,,,,,,,AMNE08.jpg,AMNE15.jpg,AMSA04.jpg,AMSA11.jpg,AMNE08.jpg,MN,1,num_8,16,num_8,0.450235598721,,,2018_Mar_01_1254,60.0023671987,FEMA4ImagesEEG,001,203080,
AFNE01.JPG,AFNE01.JPG,AFNE01.JPG,AFNE01.JPG,AFNE01.JPG,AFNE01.JPG,,,,,,,,,,,,,1,1,11,5,,,,,,,,,,,AMNE10.jpg,AMSA15.jpg,AMNE04.jpg,AMSA18.jpg,AMNE10.jpg,MN,1,num_8,32,num_4,0.333330126014,,,2018_Mar_01_1254,60.0023671987,FEMA4ImagesEEG,001,203080,
AFNE01.JPG,AFNE01.JPG,AFNE01.JPG,AFNE01.JPG,AFNE01.JPG,AFNE01.JPG,,,,,,,,,,,,,1,2,12,9,,,,,,,,,,,AMSA05.jpg,AMNE05.jpg,AMSA09.jpg,AMNE17.jpg,AMSA05.jpg,MS,2,num_8,16,num_8,0.300155782839,,,2018_Mar_01_1254,60.0023671987,FEMA4ImagesEEG,001,203080,
AFNE01.JPG,AFNE01.JPG,AFNE01.JPG,AFNE01.JPG,AFNE01.JPG,AFNE01.JPG,,,,,,,,,,,,,1,3,13,7,,,,,,,,,,,AMSA10.jpg,AMSA05.jpg,AMNE15.jpg,AMNE10.jpg,AMNE10.jpg,MN,1,num_4,32,num_6,0.250144252321,,,2018_Mar_01_1254,60.0023671987,FEMA4ImagesEEG,001,203080,
AFNE01.JPG,AFNE01.JPG,AFNE01.JPG,AFNE01.JPG,AFNE01.JPG,AFNE01.JPG,,,,,,,,,,,,,1,4,14,3,,,,,,,,,,,AMSA08.jpg,AMSA02.jpg,AMNE03.jpg,AMNE16.jpg,AMNE03.jpg,MN,1,num_2,16,num_2,0.533469583141,,,2018_Mar_01_1254,60.0023671987,FEMA4ImagesEEG,001,203080,
AFNE01.JPG,AFNE01.JPG,AFNE01.JPG,AFNE01.JPG,AFNE01.JPG,AFNE01.JPG,,,,,,,,,,,,,1,5,15,2,,,,,,,,,,,AMSA14.jpg,AMNE12.jpg,AMSA15.jpg,AMNE13.jpg,AMSA15.jpg,MS,2,num_2,32,num_4,0.466770970961,,,2018_Mar_01_1254,60.0023671987,FEMA4ImagesEEG,001,203080,
AFNE01.JPG,AFNE01.JPG,AFNE01.JPG,AFNE01.JPG,AFNE01.JPG,AFNE01.JPG,,,,,,,,,,,,,1,6,16,1,,,,,,,,,,,AMNE06.jpg,AMSA19.jpg,AMSA18.jpg,AMNE14.jpg,AMNE06.jpg,MN,1,num_8,32,num_2,0.683485251386,,,2018_Mar_01_1254,60.0023671987,FEMA4ImagesEEG,001,203080,
AFNE01.JPG,AFNE01.JPG,AFNE01.JPG,AFNE01.JPG,AFNE01.JPG,AFNE01.JPG,,,,,,,,,,,,,1,7,17,8,,,,,,,,,,,AMSA18.jpg,AMSA17.jpg,AMNE08.jpg,AMNE13.jpg,AMSA17.jpg,MS,2,num_6,32,num_2,0.633510285057,,,2018_Mar_01_1254,60.0023671987,FEMA4ImagesEEG,001,203080,
AFNE01.JPG,AFNE01.JPG,AFNE01.JPG,AFNE01.JPG,AFNE01.JPG,AFNE01.JPG,,,,,,,,,,,,,1,8,18,6,,,,,,,,,,,AMSA10.jpg,AMNE03.jpg,AMSA09.jpg,AMNE16.jpg,AMSA10.jpg,MS,2,num_8,16,num_8,0.400142921135,,,2018_Mar_01_1254,60.0023671987,FEMA4ImagesEEG,001,203080,
AFNE01.JPG,AFNE01.JPG,AFNE01.JPG,AFNE01.JPG,AFNE01.JPG,AFNE01.JPG,,,,,,,,,,,,,1,9,19,0,,,,,,,,,,,AMSA06.jpg,AMNE18.jpg,AMNE15.jpg,AMSA16.jpg,AMSA16.jpg,MS,2,num_4,32,num_2,0.333486325806,,,2018_Mar_01_1254,60.0023671987,FEMA4ImagesEEG,001,203080,
AFNE01.JPG,AFNE01.JPG,AFNE01.JPG,AFNE01.JPG,AFNE01.JPG,AFNE01.JPG,,,,,,,,,,,,,2,0,20,4,,,,,,,,,,,AMSA13.jpg,AMNE15.jpg,AMNE18.jpg,AMSA03.jpg,AMSA13.jpg,MS,2,num_8,32,num_2,0.63349232357,,,2018_Mar_01_1254,60.0023671987,FEMA4ImagesEEG,001,203080,
AFNE01.JPG,AFNE01.JPG,AFNE01.JPG,AFNE01.JPG,AFNE01.JPG,AFNE01.JPG,,,,,,,,,,,,,2,1,21,5,,,,,,,,,,,AMSA08.jpg,AMNE09.jpg,AMSA06.jpg,AMNE04.jpg,AMSA06.jpg,MS,2,num_2,16,num_2,0.516792123672,,,2018_Mar_01_1254,60.0023671987,FEMA4ImagesEEG,001,203080,
AFNE01.JPG,AFNE01.JPG,AFNE01.JPG,AFNE01.JPG,AFNE01.JPG,AFNE01.JPG,,,,,,,,,,,,,2,2,22,1,,,,,,,,,,,AMSA16.jpg,AMSA15.jpg,AMNE03.jpg,AMNE08.jpg,AMNE03.jpg,MN,1,num_2,32,num_4,0.283523868304,,,2018_Mar_01_1254,60.0023671987,FEMA4ImagesEEG,001,203080,
AFNE01.JPG,AFNE01.JPG,AFNE01.JPG,AFNE01.JPG,AFNE01.JPG,AFNE01.JPG,,,,,,,,,,,,,2,3,23,8,,,,,,,,,,,AMNE20.jpg,AMSA09.jpg,AMSA19.jpg,AMNE16.jpg,AMNE16.jpg,MN,1,num_4,32,num_6,0.13352519949,,,2018_Mar_01_1254,60.0023671987,FEMA4ImagesEEG,001,203080,
AFNE01.JPG,AFNE01.JPG,AFNE01.JPG,AFNE01.JPG,AFNE01.JPG,AFNE01.JPG,,,,,,,,,,,,,2,4,24,7,,,,,,,,,,,AMNE18.jpg,AMNE20.jpg,AMSA19.jpg,AMSA18.jpg,AMNE20.jpg,MN,1,num_6,32,num_2,0.300241740886,,,2018_Mar_01_1254,60.0023671987,FEMA4ImagesEEG,001,203080,
AFNE01.JPG,AFNE01.JPG,AFNE01.JPG,AFNE01.JPG,AFNE01.JPG,AFNE01.JPG,,,,,,,,,,,,,2,5,25,6,,,,,,,,,,,AMNE15.jpg,AMSA16.jpg,AMNE03.jpg,AMSA07.jpg,AMNE15.jpg,MN,1,num_8,32,num_2,0.300187215442,,,2018_Mar_01_1254,60.0023671987,FEMA4ImagesEEG,001,203080,
AFNE01.JPG,AFNE01.JPG,AFNE01.JPG,AFNE01.JPG,AFNE01.JPG,AFNE01.JPG,,,,,,,,,,,,,2,6,26,3,,,,,,,,,,,AMNE18.jpg,AMSA18.jpg,AMNE13.jpg,AMSA13.jpg,AMNE13.jpg,MN,1,num_2,32,num_8,0.333560737316,,,2018_Mar_01_1254,60.0023671987,FEMA4ImagesEEG,001,203080,
AFNE01.JPG,AFNE01.JPG,AFNE01.JPG,AFNE01.JPG,AFNE01.JPG,AFNE01.JPG,,,,,,,,,,,,,2,7,27,0,,,,,,,,,,,AMSA05.jpg,AMNE04.jpg,AMNE20.jpg,AMSA18.jpg,AMSA18.jpg,MS,2,num_4,16,num_4,0.366867545526,,,2018_Mar_01_1254,60.0023671987,FEMA4ImagesEEG,001,203080,
AFNE01.JPG,AFNE01.JPG,AFNE01.JPG,AFNE01.JPG,AFNE01.JPG,AFNE01.JPG,,,,,,,,,,,,,2,8,28,2,,,,,,,,,,,AMSA18.jpg,AMNE15.jpg,AMNE09.jpg,AMSA05.jpg,AMNE15.jpg,MN,1,num_6,32,num_2,0.5668681229,,,2018_Mar_01_1254,60.0023671987,FEMA4ImagesEEG,001,203080,
AFNE01.JPG,AFNE01.JPG,AFNE01.JPG,AFNE01.JPG,AFNE01.JPG,AFNE01.JPG,,,,,,,,,,,,,2,9,29,9,,,,,,,,,,,AMSA11.jpg,AMNE04.jpg,AMNE06.jpg,AMSA09.jpg,AMNE04.jpg,MN,1,num_6,32,num_2,0.666777000995,,,2018_Mar_01_1254,60.0023671987,FEMA4ImagesEEG,001,203080,
AFNE01.JPG,AFNE01.JPG,AFNE01.JPG,AFNE01.JPG,AFNE01.JPG,AFNE01.JPG,,,,,,,,,,,,,3,0,30,2,,,,,,,,,,,AMSA20.jpg,AMSA01.jpg,AMNE02.jpg,AMNE12.jpg,AMSA01.jpg,MS,2,num_6,32,num_4,0.316846392816,,,2018_Mar_01_1254,60.0023671987,FEMA4ImagesEEG,001,203080,
AFNE01.JPG,AFNE01.JPG,AFNE01.JPG,AFNE01.JPG,AFNE01.JPG,AFNE01.JPG,,,,,,,,,,,,,3,1,31,6,,,,,,,,,,,AMNE11.jpg,AMSA10.jpg,AMSA09.jpg,AMNE08.jpg,AMSA09.jpg,MS,2,num_2,16,num_2,0.483515785541,,,2018_Mar_01_1254,60.0023671987,FEMA4ImagesEEG,001,203080,
AFNE01.JPG,AFNE01.JPG,AFNE01.JPG,AFNE01.JPG,AFNE01.JPG,AFNE01.JPG,,,,,,,,,,,,,3,2,32,5,,,,,,,,,,,AMSA15.jpg,AMNE15.jpg,AMSA20.jpg,AMNE16.jpg,AMNE15.jpg,MN,1,num_6,16,num_6,0.600118480856,,,2018_Mar_01_1254,60.0023671987,FEMA4ImagesEEG,001,203080,
AFNE01.JPG,AFNE01.JPG,AFNE01.JPG,AFNE01.JPG,AFNE01.JPG,AFNE01.JPG,,,,,,,,,,,,,3,3,33,3,,,,,,,,,,,AMNE09.jpg,AMNE03.jpg,AMSA07.jpg,AMSA06.jpg,AMSA06.jpg,MS,2,num_4,32,num_2,0.4001628072,,,2018_Mar_01_1254,60.0023671987,FEMA4ImagesEEG,001,203080,
AFNE01.JPG,AFNE01.JPG,AFNE01.JPG,AFNE01.JPG,AFNE01.JPG,AFNE01.JPG,,,,,,,,,,,,,3,4,34,8,,,,,,,,,,,AMNE04.jpg,AMSA14.jpg,AMSA11.jpg,AMNE17.jpg,AMSA14.jpg,MS,2,num_6,32,num_4,0.21679959679,,,2018_Mar_01_1254,60.0023671987,FEMA4ImagesEEG,001,203080,
AFNE01.JPG,AFNE01.JPG,AFNE01.JPG,AFNE01.JPG,AFNE01.JPG,AFNE01.JPG,,,,,,,,,,,,,3,5,35,7,,,,,,,,,,,AMSA02.jpg,AMNE06.jpg,AMNE03.jpg,AMSA03.jpg,AMSA03.jpg,MS,2,num_4,32,num_2,0.416808513459,,,2018_Mar_01_1254,60.0023671987,FEMA4ImagesEEG,001,203080,
AFNE01.JPG,AFNE01.JPG,AFNE01.JPG,AFNE01.JPG,AFNE01.JPG,AFNE01.JPG,,,,,,,,,,,,,3,6,36,9,,,,,,,,,,,AMNE18.jpg,AMSA18.jpg,AMSA03.jpg,AMNE20.jpg,AMNE18.jpg,MN,1,num_8,32,num_2,0.516675054096,,,2018_Mar_01_1254,60.0023671987,FEMA4ImagesEEG,001,203080,
AFNE01.JPG,AFNE01.JPG,AFNE01.JPG,AFNE01.JPG,AFNE01.JPG,AFNE01.JPG,,,,,,,,,,,,,3,7,37,1,,,,,,,,,,,AMNE18.jpg,AMNE12.jpg,AMSA01.jpg,AMSA15.jpg,AMSA01.jpg,MS,2,num_2,32,num_4,0.31681111129,,,2018_Mar_01_1254,60.0023671987,FEMA4ImagesEEG,001,203080,
AFNE01.JPG,AFNE01.JPG,AFNE01.JPG,AFNE01.JPG,AFNE01.JPG,AFNE01.JPG,,,,,,,,,,,,,3,8,38,0,,,,,,,,,,,AMSA12.jpg,AMNE17.jpg,AMSA11.jpg,AMNE18.jpg,AMSA12.jpg,MS,2,num_8,16,num_8,0.250192683889,,,2018_Mar_01_1254,60.0023671987,FEMA4ImagesEEG,001,203080,
AFNE01.JPG,AFNE01.JPG,AFNE01.JPG,AFNE01.JPG,AFNE01.JPG,AFNE01.JPG,,,,,,,,,,,,,3,9,39,4,,,,,,,,,,,AMSA09.jpg,AMNE14.jpg,AMNE17.jpg,AMSA14.jpg,AMSA09.jpg,MS,2,num_8,16,num_8,0.366823924938,,,2018_Mar_01_1254,60.0023671987,FEMA4ImagesEEG,001,203080,
AFNE01.JPG,AFNE01.JPG,AFNE01.JPG,AFNE01.JPG,AFNE01.JPG,AFNE01.JPG,,,,,,,,,,,,,4,0,40,8,,,,,,,,,,,AMSA19.jpg,AMSA06.jpg,AMNE10.jpg,AMNE03.jpg,AMSA19.jpg,MS,2,num_8,32,num_4,0.300132368924,,,2018_Mar_01_1254,60.0023671987,FEMA4ImagesEEG,001,203080,
AFNE01.JPG,AFNE01.JPG,AFNE01.JPG,AFNE01.JPG,AFNE01.JPG,AFNE01.JPG,,,,,,,,,,,,,4,1,41,5,,,,,,,,,,,AMNE12.jpg,AMNE15.jpg,AMSA13.jpg,AMSA11.jpg,AMSA11.jpg,MS,2,num_4,32,num_6,0.300167650217,,,2018_Mar_01_1254,60.0023671987,FEMA4ImagesEEG,001,203080,
AFNE01.JPG,AFNE01.JPG,AFNE01.JPG,AFNE01.JPG,AFNE01.JPG,AFNE01.JPG,,,,,,,,,,,,,4,2,42,6,,,,,,,,,,,AMSA02.jpg,AMSA10.jpg,AMNE10.jpg,AMNE18.jpg,AMNE18.jpg,MN,1,num_4,32,num_8,0.283494360279,,,2018_Mar_01_1254,60.0023671987,FEMA4ImagesEEG,001,203080,
AFNE01.JPG,AFNE01.JPG,AFNE01.JPG,AFNE01.JPG,AFNE01.JPG,AFNE01.JPG,,,,,,,,,,,,,4,3,43,7,,,,,,,,,,,AMSA05.jpg,AMSA17.jpg,AMNE20.jpg,AMNE01.jpg,AMNE20.jpg,MN,1,num_2,32,num_8,0.333519682521,,,2018_Mar_01_1254,60.0023671987,FEMA4ImagesEEG,001,203080,
AFNE01.JPG,AFNE01.JPG,AFNE01.JPG,AFNE01.JPG,AFNE01.JPG,AFNE01.JPG,,,,,,,,,,,,,4,4,44,9,,,,,,,,,,,AMSA05.jpg,AMSA01.jpg,AMNE10.jpg,AMNE18.jpg,AMNE10.jpg,MN,1,num_2,16,num_2,0.283448173897,,,2018_Mar_01_1254,60.0023671987,FEMA4ImagesEEG,001,203080,
AFNE01.JPG,AFNE01.JPG,AFNE01.JPG,AFNE01.JPG,AFNE01.JPG,AFNE01.JPG,,,,,,,,,,,,,4,5,45,2,,,,,,,,,,,AMNE01.jpg,AMNE13.jpg,AMSA11.jpg,AMSA08.jpg,AMSA08.jpg,MS,2,num_4,16,num_4,0.35020355694,,,2018_Mar_01_1254,60.0023671987,FEMA4ImagesEEG,001,203080,
AFNE01.JPG,AFNE01.JPG,AFNE01.JPG,AFNE01.JPG,AFNE01.JPG,AFNE01.JPG,,,,,,,,,,,,,4,6,46,0,,,,,,,,,,,AMNE07.jpg,AMNE15.jpg,AMSA08.jpg,AMSA16.jpg,AMSA16.jpg,MS,2,num_4,32,num_8,0.350389906205,,,2018_Mar_01_1254,60.0023671987,FEMA4ImagesEEG,001,203080,
AFNE01.JPG,AFNE01.JPG,AFNE01.JPG,AFNE01.JPG,AFNE01.JPG,AFNE01.JPG,,,,,,,,,,,,,4,7,47,4,,,,,,,,,,,AMSA20.jpg,AMNE01.jpg,AMNE10.jpg,AMSA06.jpg,AMNE01.jpg,MN,1,num_6,32,num_8,0.233430869877,,,2018_Mar_01_1254,60.0023671987,FEMA4ImagesEEG,001,203080,
AFNE01.JPG,AFNE01.JPG,AFNE01.JPG,AFNE01.JPG,AFNE01.JPG,AFNE01.JPG,,,,,,,,,,,,,4,8,48,1,,,,,,,,,,,AMNE08.jpg,AMNE10.jpg,AMSA02.jpg,AMSA15.jpg,AMNE10.jpg,MN,1,num_6,16,num_6,0.466785083525,,,2018_Mar_01_1254,60.0023671987,FEMA4ImagesEEG,001,203080,
AFNE01.JPG,AFNE01.JPG,AFNE01.JPG,AFNE01.JPG,AFNE01.JPG,AFNE01.JPG,,,,,,,,,,,,,4,9,49,3,,,,,,,,,,,AMNE15.jpg,AMNE08.jpg,AMSA19.jpg,AMSA06.jpg,AMSA19.jpg,MS,2,num_2,16,num_2,0.300186573761,,,2018_Mar_01_1254,60.0023671987,FEMA4ImagesEEG,001,203080,
AFNE01.JPG,AFNE01.JPG,AFNE01.JPG,AFNE01.JPG,AFNE01.JPG,AFNE01.JPG,,,,,,,,,,,,,5,0,50,8,,,,,,,,,,,AMSA05.jpg,AMNE20.jpg,AMSA08.jpg,AMNE02.jpg,AMNE02.jpg,MN,1,num_4,16,num_4,0.466868154705,,,2018_Mar_01_1254,60.0023671987,FEMA4ImagesEEG,001,203080,
AFNE01.JPG,AFNE01.JPG,AFNE01.JPG,AFNE01.JPG,AFNE01.JPG,AFNE01.JPG,,,,,,,,,,,,,5,1,51,4,,,,,,,,,,,AMNE09.jpg,AMNE15.jpg,AMSA10.jpg,AMSA09.jpg,AMSA10.jpg,MS,2,num_2,32,num_8,0.250180816511,,,2018_Mar_01_1254,60.0023671987,FEMA4ImagesEEG,001,203080,
AFNE01.JPG,AFNE01.JPG,AFNE01.JPG,AFNE01.JPG,AFNE01.JPG,AFNE01.JPG,,,,,,,,,,,,,5,2,52,6,,,,,,,,,,,AMSA03.jpg,AMSA10.jpg,AMNE16.jpg,AMNE06.jpg,AMNE06.jpg,MN,1,num_4,32,num_2,0.266853785608,,,2018_Mar_01_1254,60.0023671987,FEMA4ImagesEEG,001,203080,
AFNE01.JPG,AFNE01.JPG,AFNE01.JPG,AFNE01.JPG,AFNE01.JPG,AFNE01.JPG,,,,,,,,,,,,,5,3,53,9,,,,,,,,,,,AMSA06.jpg,AMNE12.jpg,AMSA19.jpg,AMNE15.jpg,AMNE15.jpg,MN,1,num_4,16,num_4,0.216931100003,,,2018_Mar_01_1254,60.0023671987,FEMA4ImagesEEG,001,203080,
AFNE01.JPG,AFNE01.JPG,AFNE01.JPG,AFNE01.JPG,AFNE01.JPG,AFNE01.JPG,,,,,,,,,,,,,5,4,54,5,,,,,,,,,,,AMNE10.jpg,AMNE05.jpg,AMSA04.jpg,AMSA13.jpg,AMNE10.jpg,MN,1,num_8,32,num_6,0.316808866337,,,2018_Mar_01_1254,60.0023671987,FEMA4ImagesEEG,001,203080,
AFNE01.JPG,AFNE01.JPG,AFNE01.JPG,AFNE01.JPG,AFNE01.JPG,AFNE01.JPG,,,,,,,,,,,,,5,5,55,1,,,,,,,,,,,AMNE09.jpg,AMSA19.jpg,AMSA04.jpg,AMNE11.jpg,AMSA04.jpg,MS,2,num_2,32,num_8,0.400167297339,,,2018_Mar_01_1254,60.0023671987,FEMA4ImagesEEG,001,203080,
AFNE01.JPG,AFNE01.JPG,AFNE01.JPG,AFNE01.JPG,AFNE01.JPG,AFNE01.JPG,,,,,,,,,,,,,5,6,56,2,,,,,,,,,,,AMSA16.jpg,AMNE10.jpg,AMNE11.jpg,AMSA19.jpg,AMSA19.jpg,MS,2,num_4,32,num_8,0.383522873977,,,2018_Mar_01_1254,60.0023671987,FEMA4ImagesEEG,001,203080,
AFNE01.JPG,AFNE01.JPG,AFNE01.JPG,AFNE01.JPG,AFNE01.JPG,AFNE01.JPG,,,,,,,,,,,,,5,7,57,0,,,,,,,,,,,AMSA11.jpg,AMNE11.jpg,AMSA06.jpg,AMNE14.jpg,AMNE11.jpg,MN,1,num_6,32,num_2,0.333519041073,,,2018_Mar_01_1254,60.0023671987,FEMA4ImagesEEG,001,203080,
AFNE01.JPG,AFNE01.JPG,AFNE01.JPG,AFNE01.JPG,AFNE01.JPG,AFNE01.JPG,,,,,,,,,,,,,5,8,58,3,,,,,,,,,,,AMSA11.jpg,AMSA07.jpg,AMNE14.jpg,AMNE04.jpg,AMSA11.jpg,MS,2,num_8,32,num_2,0.266719396226,,,2018_Mar_01_1254,60.0023671987,FEMA4ImagesEEG,001,203080,
AFNE01.JPG,AFNE01.JPG,AFNE01.JPG,AFNE01.JPG,AFNE01.JPG,AFNE01.JPG,,,,,,,,,,,,,5,9,59,7,,,,,,,,,,,AMSA13.jpg,AMNE04.jpg,AMNE12.jpg,AMSA16.jpg,AMSA13.jpg,MS,2,num_8,32,num_2,0.500145775732,,,2018_Mar_01_1254,60.0023671987,FEMA4ImagesEEG,001,203080,
,,,,,,,,,,,,,,,,,,,,,,,,,,,,,,,,,,,,,,,,,,,space,2.31670206017,2018_Mar_01_1254,60.0023671987,FEMA4ImagesEEG,001,203080,
AFNE01.JPG,AFNE01.JPG,AFNE01.JPG,AFNE01.JPG,AFNE01.JPG,AFNE01.JPG,,,,,,,,,,,,,,,,,0,0,0,2,,,,,,,AFSA07.jpg,AFNE14.jpg,AFNE15.jpg,AFSA14.jpg,AFSA14.jpg,FS,4,num_4,32,num_2,0.300156745128,,,2018_Mar_01_1254,60.0023671987,FEMA4ImagesEEG,001,203080,
AFNE01.JPG,AFNE01.JPG,AFNE01.JPG,AFNE01.JPG,AFNE01.JPG,AFNE01.JPG,,,,,,,,,,,,,,,,,0,1,1,8,,,,,,,AFNE06.jpg,AFSA08.jpg,AFNE11.jpg,AFSA16.jpg,AFSA08.jpg,FS,4,num_6,32,num_8,0.300145519199,,,2018_Mar_01_1254,60.0023671987,FEMA4ImagesEEG,001,203080,
AFNE01.JPG,AFNE01.JPG,AFNE01.JPG,AFNE01.JPG,AFNE01.JPG,AFNE01.JPG,,,,,,,,,,,,,,,,,0,2,2,4,,,,,,,AFSA11.jpg,AFNE17.jpg,AFSA02.jpg,AFNE06.jpg,AFNE17.jpg,FN,3,num_6,32,num_4,0.283491153037,,,2018_Mar_01_1254,60.0023671987,FEMA4ImagesEEG,001,203080,
AFNE01.JPG,AFNE01.JPG,AFNE01.JPG,AFNE01.JPG,AFNE01.JPG,AFNE01.JPG,,,,,,,,,,,,,,,,,0,3,3,0,,,,,,,AFNE04.jpg,AFSA13.jpg,AFSA17.jpg,AFNE11.jpg,AFSA13.jpg,FS,4,num_6,32,num_4,0.350347568514,,,2018_Mar_01_1254,60.0023671987,FEMA4ImagesEEG,001,203080,
AFNE01.JPG,AFNE01.JPG,AFNE01.JPG,AFNE01.JPG,AFNE01.JPG,AFNE01.JPG,,,,,,,,,,,,,,,,,0,4,4,7,,,,,,,AFNE06.jpg,AFSA11.jpg,AFNE10.jpg,AFSA19.jpg,AFSA19.jpg,FS,4,num_4,32,num_8,0.533579917392,,,2018_Mar_01_1254,60.0023671987,FEMA4ImagesEEG,001,203080,
AFNE01.JPG,AFNE01.JPG,AFNE01.JPG,AFNE01.JPG,AFNE01.JPG,AFNE01.JPG,,,,,,,,,,,,,,,,,0,5,5,5,,,,,,,AFNE20.jpg,AFNE10.jpg,AFSA02.jpg,AFSA05.jpg,AFSA02.jpg,FS,4,num_2,16,num_2,0.400185258826,,,2018_Mar_01_1254,60.0023671987,FEMA4ImagesEEG,001,203080,
AFNE01.JPG,AFNE01.JPG,AFNE01.JPG,AFNE01.JPG,AFNE01.JPG,AFNE01.JPG,,,,,,,,,,,,,,,,,0,6,6,6,,,,,,,AFNE05.jpg,AFNE06.jpg,AFSA18.jpg,AFSA03.jpg,AFNE05.jpg,FN,3,num_8,16,num_8,0.533564521931,,,2018_Mar_01_1254,60.0023671987,FEMA4ImagesEEG,001,203080,
AFNE01.JPG,AFNE01.JPG,AFNE01.JPG,AFNE01.JPG,AFNE01.JPG,AFNE01.JPG,,,,,,,,,,,,,,,,,0,7,7,3,,,,,,,AFSA16.jpg,AFSA02.jpg,AFNE14.jpg,AFNE18.jpg,AFNE18.jpg,FN,3,num_4,32,num_6,0.30013589724,,,2018_Mar_01_1254,60.0023671987,FEMA4ImagesEEG,001,203080,
AFNE01.JPG,AFNE01.JPG,AFNE01.JPG,AFNE01.JPG,AFNE01.JPG,AFNE01.JPG,,,,,,,,,,,,,,,,,0,8,8,1,,,,,,,AFSA01.jpg,AFNE06.jpg,AFNE03.jpg,AFSA09.jpg,AFSA09.jpg,FS,4,num_4,32,num_2,0.250239511719,,,2018_Mar_01_1254,60.0023671987,FEMA4ImagesEEG,001,203080,
AFNE01.JPG,AFNE01.JPG,AFNE01.JPG,AFNE01.JPG,AFNE01.JPG,AFNE01.JPG,,,,,,,,,,,,,,,,,0,9,9,9,,,,,,,AFSA04.jpg,AFNE02.jpg,AFNE07.jpg,AFSA01.jpg,AFNE07.jpg,FN,3,num_2,32,num_4,0.433510669973,,,2018_Mar_01_1254,60.0023671987,FEMA4ImagesEEG,001,203080,
AFNE01.JPG,AFNE01.JPG,AFNE01.JPG,AFNE01.JPG,AFNE01.JPG,AFNE01.JPG,,,,,,,,,,,,,,,,,1,0,10,7,,,,,,,AFNE20.jpg,AFSA11.jpg,AFSA16.jpg,AFNE10.jpg,AFNE10.jpg,FN,3,num_4,32,num_8,0.266821390949,,,2018_Mar_01_1254,60.0023671987,FEMA4ImagesEEG,001,203080,
AFNE01.JPG,AFNE01.JPG,AFNE01.JPG,AFNE01.JPG,AFNE01.JPG,AFNE01.JPG,,,,,,,,,,,,,,,,,1,1,11,9,,,,,,,AFNE19.jpg,AFSA19.jpg,AFNE07.jpg,AFSA06.jpg,AFNE07.jpg,FN,3,num_2,16,num_2,0.266946800053,,,2018_Mar_01_1254,60.0023671987,FEMA4ImagesEEG,001,203080,
AFNE01.JPG,AFNE01.JPG,AFNE01.JPG,AFNE01.JPG,AFNE01.JPG,AFNE01.JPG,,,,,,,,,,,,,,,,,1,2,12,3,,,,,,,AFNE10.jpg,AFSA16.jpg,AFNE15.jpg,AFSA13.jpg,AFSA13.jpg,FS,4,num_4,16,num_4,0.366778059164,,,2018_Mar_01_1254,60.0023671987,FEMA4ImagesEEG,001,203080,
AFNE01.JPG,AFNE01.JPG,AFNE01.JPG,AFNE01.JPG,AFNE01.JPG,AFNE01.JPG,,,,,,,,,,,,,,,,,1,3,13,0,,,,,,,AFSA15.jpg,AFNE12.jpg,AFSA04.jpg,AFNE15.jpg,AFSA15.jpg,FS,4,num_8,32,num_2,0.283573582768,,,2018_Mar_01_1254,60.0023671987,FEMA4ImagesEEG,001,203080,
AFNE01.JPG,AFNE01.JPG,AFNE01.JPG,AFNE01.JPG,AFNE01.JPG,AFNE01.JPG,,,,,,,,,,,,,,,,,1,4,14,5,,,,,,,AFSA07.jpg,AFNE06.jpg,AFSA10.jpg,AFNE13.jpg,AFSA07.jpg,FS,4,num_8,16,num_8,0.266830371693,,,2018_Mar_01_1254,60.0023671987,FEMA4ImagesEEG,001,203080,
AFNE01.JPG,AFNE01.JPG,AFNE01.JPG,AFNE01.JPG,AFNE01.JPG,AFNE01.JPG,,,,,,,,,,,,,,,,,1,5,15,1,,,,,,,AFNE15.jpg,AFSA13.jpg,AFSA08.jpg,AFNE19.jpg,AFSA08.jpg,FS,4,num_2,32,num_4,0.283515529241,,,2018_Mar_01_1254,60.0023671987,FEMA4ImagesEEG,001,203080,
AFNE01.JPG,AFNE01.JPG,AFNE01.JPG,AFNE01.JPG,AFNE01.JPG,AFNE01.JPG,,,,,,,,,,,,,,,,,1,6,16,6,,,,,,,AFNE20.jpg,AFSA15.jpg,AFNE10.jpg,AFSA02.jpg,AFNE10.jpg,FN,3,num_2,32,num_8,1.31674279389,,,2018_Mar_01_1254,60.0023671987,FEMA4ImagesEEG,001,203080,
AFNE01.JPG,AFNE01.JPG,AFNE01.JPG,AFNE01.JPG,AFNE01.JPG,AFNE01.JPG,,,,,,,,,,,,,,,,,1,7,17,8,,,,,,,AFNE19.jpg,AFNE13.jpg,AFSA11.jpg,AFSA07.jpg,AFSA07.jpg,FS,4,num_4,32,num_6,0.283687124262,,,2018_Mar_01_1254,60.0023671987,FEMA4ImagesEEG,001,203080,
AFNE01.JPG,AFNE01.JPG,AFNE01.JPG,AFNE01.JPG,AFNE01.JPG,AFNE01.JPG,,,,,,,,,,,,,,,,,1,8,18,2,,,,,,,AFSA19.jpg,AFNE07.jpg,AFNE16.jpg,AFSA11.jpg,AFNE07.jpg,FN,3,num_6,32,num_2,0.350290156435,,,2018_Mar_01_1254,60.0023671987,FEMA4ImagesEEG,001,203080,
AFNE01.JPG,AFNE01.JPG,AFNE01.JPG,AFNE01.JPG,AFNE01.JPG,AFNE01.JPG,,,,,,,,,,,,,,,,,1,9,19,4,,,,,,,AFNE03.jpg,AFSA17.jpg,AFNE11.jpg,AFSA12.jpg,AFNE03.jpg,FN,3,num_8,32,num_4,0.250181137118,,,2018_Mar_01_1254,60.0023671987,FEMA4ImagesEEG,001,203080,
AFNE01.JPG,AFNE01.JPG,AFNE01.JPG,AFNE01.JPG,AFNE01.JPG,AFNE01.JPG,,,,,,,,,,,,,,,,,2,0,20,4,,,,,,,AFNE16.jpg,AFSA20.jpg,AFSA14.jpg,AFNE05.jpg,AFNE05.jpg,FN,3,num_4,32,num_8,0.383324015886,,,2018_Mar_01_1254,60.0023671987,FEMA4ImagesEEG,001,203080,
AFNE01.JPG,AFNE01.JPG,AFNE01.JPG,AFNE01.JPG,AFNE01.JPG,AFNE01.JPG,,,,,,,,,,,,,,,,,2,1,21,7,,,,,,,AFNE19.jpg,AFSA06.jpg,AFSA16.jpg,AFNE16.jpg,AFNE16.jpg,FN,3,num_4,32,num_2,0.41686592577,,,2018_Mar_01_1254,60.0023671987,FEMA4ImagesEEG,001,203080,
AFNE01.JPG,AFNE01.JPG,AFNE01.JPG,AFNE01.JPG,AFNE01.JPG,AFNE01.JPG,,,,,,,,,,,,,,,,,2,2,22,1,,,,,,,AFNE10.jpg,AFSA11.jpg,AFNE11.jpg,AFSA03.jpg,AFSA03.jpg,FS,4,num_4,16,num_4,0.300149047282,,,2018_Mar_01_1254,60.0023671987,FEMA4ImagesEEG,001,203080,
AFNE01.JPG,AFNE01.JPG,AFNE01.JPG,AFNE01.JPG,AFNE01.JPG,AFNE01.JPG,,,,,,,,,,,,,,,,,2,3,23,0,,,,,,,AFSA07.jpg,AFSA14.jpg,AFNE14.jpg,AFNE18.jpg,AFSA14.jpg,FS,4,num_6,32,num_8,0.350163464667,,,2018_Mar_01_1254,60.0023671987,FEMA4ImagesEEG,001,203080,
AFNE01.JPG,AFNE01.JPG,AFNE01.JPG,AFNE01.JPG,AFNE01.JPG,AFNE01.JPG,,,,,,,,,,,,,,,,,2,4,24,9,,,,,,,AFNE11.jpg,AFNE07.jpg,AFSA19.jpg,AFSA14.jpg,AFSA19.jpg,FS,4,num_2,16,num_2,0.366795058595,,,2018_Mar_01_1254,60.0023671987,FEMA4ImagesEEG,001,203080,
AFNE01.JPG,AFNE01.JPG,AFNE01.JPG,AFNE01.JPG,AFNE01.JPG,AFNE01.JPG,,,,,,,,,,,,,,,,,2,5,25,8,,,,,,,AFNE06.jpg,AFSA03.jpg,AFNE12.jpg,AFSA04.jpg,AFNE06.jpg,FN,3,num_8,32,num_4,0.366783832433,,,2018_Mar_01_1254,60.0023671987,FEMA4ImagesEEG,001,203080,
AFNE01.JPG,AFNE01.JPG,AFNE01.JPG,AFNE01.JPG,AFNE01.JPG,AFNE01.JPG,,,,,,,,,,,,,,,,,2,6,26,5,,,,,,,AFSA09.jpg,AFNE17.jpg,AFSA13.jpg,AFNE12.jpg,AFSA13.jpg,FS,4,num_2,32,num_8,0.233560127905,,,2018_Mar_01_1254,60.0023671987,FEMA4ImagesEEG,001,203080,
AFNE01.JPG,AFNE01.JPG,AFNE01.JPG,AFNE01.JPG,AFNE01.JPG,AFNE01.JPG,,,,,,,,,,,,,,,,,2,7,27,2,,,,,,,AFSA01.jpg,AFNE06.jpg,AFSA16.jpg,AFNE19.jpg,AFSA01.jpg,FS,4,num_8,32,num_2,0.450196789345,,,2018_Mar_01_1254,60.0023671987,FEMA4ImagesEEG,001,203080,
AFNE01.JPG,AFNE01.JPG,AFNE01.JPG,AFNE01.JPG,AFNE01.JPG,AFNE01.JPG,,,,,,,,,,,,,,,,,2,8,28,3,,,,,,,AFSA01.jpg,AFNE14.jpg,AFSA20.jpg,AFNE01.jpg,AFNE01.jpg,FN,3,num_4,32,num_8,0.266852502944,,,2018_Mar_01_1254,60.0023671987,FEMA4ImagesEEG,001,203080,
AFNE01.JPG,AFNE01.JPG,AFNE01.JPG,AFNE01.JPG,AFNE01.JPG,AFNE01.JPG,,,,,,,,,,,,,,,,,2,9,29,6,,,,,,,AFSA20.jpg,AFSA02.jpg,AFNE07.jpg,AFNE06.jpg,AFSA02.jpg,FS,4,num_6,32,num_2,0.483498786576,,,2018_Mar_01_1254,60.0023671987,FEMA4ImagesEEG,001,203080,
AFNE01.JPG,AFNE01.JPG,AFNE01.JPG,AFNE01.JPG,AFNE01.JPG,AFNE01.JPG,,,,,,,,,,,,,,,,,3,0,30,7,,,,,,,AFNE07.jpg,AFSA15.jpg,AFNE05.jpg,AFSA14.jpg,AFSA14.jpg,FS,4,num_4,16,num_4,0.250214173226,,,2018_Mar_01_1254,60.0023671987,FEMA4ImagesEEG,001,203080,
AFNE01.JPG,AFNE01.JPG,AFNE01.JPG,AFNE01.JPG,AFNE01.JPG,AFNE01.JPG,,,,,,,,,,,,,,,,,3,1,31,6,,,,,,,AFSA11.jpg,AFNE18.jpg,AFNE02.jpg,AFSA12.jpg,AFNE18.jpg,FN,3,num_6,16,num_6,0.300170857459,,,2018_Mar_01_1254,60.0023671987,FEMA4ImagesEEG,001,203080,
AFNE01.JPG,AFNE01.JPG,AFNE01.JPG,AFNE01.JPG,AFNE01.JPG,AFNE01.JPG,,,,,,,,,,,,,,,,,3,2,32,4,,,,,,,AFNE20.jpg,AFNE04.jpg,AFSA07.jpg,AFSA05.jpg,AFNE04.jpg,FN,3,num_6,32,num_2,0.316823940957,,,2018_Mar_01_1254,60.0023671987,FEMA4ImagesEEG,001,203080,
AFNE01.JPG,AFNE01.JPG,AFNE01.JPG,AFNE01.JPG,AFNE01.JPG,AFNE01.JPG,,,,,,,,,,,,,,,,,3,3,33,5,,,,,,,AFSA15.jpg,AFNE01.jpg,AFNE12.jpg,AFSA07.jpg,AFSA07.jpg,FS,4,num_4,32,num_2,0.300233401591,,,2018_Mar_01_1254,60.0023671987,FEMA4ImagesEEG,001,203080,
AFNE01.JPG,AFNE01.JPG,AFNE01.JPG,AFNE01.JPG,AFNE01.JPG,AFNE01.JPG,,,,,,,,,,,,,,,,,3,4,34,1,,,,,,,AFSA12.jpg,AFNE14.jpg,AFSA16.jpg,AFNE06.jpg,AFSA16.jpg,FS,4,num_2,32,num_8,0.683459592052,,,2018_Mar_01_1254,60.0023671987,FEMA4ImagesEEG,001,203080,
AFNE01.JPG,AFNE01.JPG,AFNE01.JPG,AFNE01.JPG,AFNE01.JPG,AFNE01.JPG,,,,,,,,,,,,,,,,,3,5,35,0,,,,,,,AFSA14.jpg,AFNE02.jpg,AFNE03.jpg,AFSA02.jpg,AFNE03.jpg,FN,3,num_2,32,num_8,0.566777995089,,,2018_Mar_01_1254,60.0023671987,FEMA4ImagesEEG,001,203080,
AFNE01.JPG,AFNE01.JPG,AFNE01.JPG,AFNE01.JPG,AFNE01.JPG,AFNE01.JPG,,,,,,,,,,,,,,,,,3,6,36,2,,,,,,,AFNE09.jpg,AFSA12.jpg,AFNE17.jpg,AFSA07.jpg,AFNE09.jpg,FN,3,num_8,32,num_2,0.883450868074,,,2018_Mar_01_1254,60.0023671987,FEMA4ImagesEEG,001,203080,
AFNE01.JPG,AFNE01.JPG,AFNE01.JPG,AFNE01.JPG,AFNE01.JPG,AFNE01.JPG,,,,,,,,,,,,,,,,,3,7,37,8,,,,,,,AFNE17.jpg,AFSA12.jpg,AFNE10.jpg,AFSA07.jpg,AFNE17.jpg,FN,3,num_8,32,num_2,0.716643878259,,,2018_Mar_01_1254,60.0023671987,FEMA4ImagesEEG,001,203080,
AFNE01.JPG,AFNE01.JPG,AFNE01.JPG,AFNE01.JPG,AFNE01.JPG,AFNE01.JPG,,,,,,,,,,,,,,,,,3,8,38,9,,,,,,,AFSA07.jpg,AFNE18.jpg,AFNE09.jpg,AFSA05.jpg,AFNE18.jpg,FN,3,num_6,16,num_6,0.250202626688,,,2018_Mar_01_1254,60.0023671987,FEMA4ImagesEEG,001,203080,
AFNE01.JPG,AFNE01.JPG,AFNE01.JPG,AFNE01.JPG,AFNE01.JPG,AFNE01.JPG,,,,,,,,,,,,,,,,,3,9,39,3,,,,,,,AFNE10.jpg,AFSA20.jpg,AFNE16.jpg,AFSA08.jpg,AFNE10.jpg,FN,3,num_8,32,num_4,0.483520275913,,,2018_Mar_01_1254,60.0023671987,FEMA4ImagesEEG,001,203080,
AFNE01.JPG,AFNE01.JPG,AFNE01.JPG,AFNE01.JPG,AFNE01.JPG,AFNE01.JPG,,,,,,,,,,,,,,,,,4,0,40,4,,,,,,,AFSA01.jpg,AFSA11.jpg,AFNE08.jpg,AFNE10.jpg,AFSA11.jpg,FS,4,num_6,32,num_2,3.1166392595,,,2018_Mar_01_1254,60.0023671987,FEMA4ImagesEEG,001,203080,
AFNE01.JPG,AFNE01.JPG,AFNE01.JPG,AFNE01.JPG,AFNE01.JPG,AFNE01.JPG,,,,,,,,,,,,,,,,,4,1,41,3,,,,,,,AFNE07.jpg,AFSA17.jpg,AFSA14.jpg,AFNE10.jpg,AFSA14.jpg,FS,4,num_2,32,num_4,0.366842848714,,,2018_Mar_01_1254,60.0023671987,FEMA4ImagesEEG,001,203080,
AFNE01.JPG,AFNE01.JPG,AFNE01.JPG,AFNE01.JPG,AFNE01.JPG,AFNE01.JPG,,,,,,,,,,,,,,,,,4,2,42,1,,,,,,,AFSA08.jpg,AFNE09.jpg,AFNE10.jpg,AFSA17.jpg,AFNE09.jpg,FN,3,num_6,32,num_8,0.400160561781,,,2018_Mar_01_1254,60.0023671987,FEMA4ImagesEEG,001,203080,
AFNE01.JPG,AFNE01.JPG,AFNE01.JPG,AFNE01.JPG,AFNE01.JPG,AFNE01.JPG,,,,,,,,,,,,,,,,,4,3,43,5,,,,,,,AFNE13.jpg,AFSA15.jpg,AFNE09.jpg,AFSA14.jpg,AFNE13.jpg,FN,3,num_8,32,num_4,0.266796373297,,,2018_Mar_01_1254,60.0023671987,FEMA4ImagesEEG,001,203080,
AFNE01.JPG,AFNE01.JPG,AFNE01.JPG,AFNE01.JPG,AFNE01.JPG,AFNE01.JPG,,,,,,,,,,,,,,,,,4,4,44,9,,,,,,,AFSA03.jpg,AFSA18.jpg,AFNE15.jpg,AFNE13.jpg,AFSA18.jpg,FS,4,num_6,16,num_6,0.316824903246,,,2018_Mar_01_1254,60.0023671987,FEMA4ImagesEEG,001,203080,
AFNE01.JPG,AFNE01.JPG,AFNE01.JPG,AFNE01.JPG,AFNE01.JPG,AFNE01.JPG,,,,,,,,,,,,,,,,,4,5,45,8,,,,,,,AFNE16.jpg,AFSA02.jpg,AFSA11.jpg,AFNE05.jpg,AFSA11.jpg,FS,4,num_2,32,num_4,0.566458218498,,,2018_Mar_01_1254,60.0023671987,FEMA4ImagesEEG,001,203080,
AFNE01.JPG,AFNE01.JPG,AFNE01.JPG,AFNE01.JPG,AFNE01.JPG,AFNE01.JPG,,,,,,,,,,,,,,,,,4,6,46,2,,,,,,,AFNE07.jpg,AFSA10.jpg,AFNE04.jpg,AFSA01.jpg,AFSA10.jpg,FS,4,num_6,16,num_6,0.566796598025,,,2018_Mar_01_1254,60.0023671987,FEMA4ImagesEEG,001,203080,
AFNE01.JPG,AFNE01.JPG,AFNE01.JPG,AFNE01.JPG,AFNE01.JPG,AFNE01.JPG,,,,,,,,,,,,,,,,,4,7,47,0,,,,,,,AFNE15.jpg,AFSA17.jpg,AFSA19.jpg,AFNE18.jpg,AFSA19.jpg,FS,4,num_2,32,num_4,0.466905681416,,,2018_Mar_01_1254,60.0023671987,FEMA4ImagesEEG,001,203080,
AFNE01.JPG,AFNE01.JPG,AFNE01.JPG,AFNE01.JPG,AFNE01.JPG,AFNE01.JPG,,,,,,,,,,,,,,,,,4,8,48,7,,,,,,,AFNE18.jpg,AFSA12.jpg,AFSA14.jpg,AFNE09.jpg,AFNE18.jpg,FN,3,num_8,32,num_2,0.300157386577,,,2018_Mar_01_1254,60.0023671987,FEMA4ImagesEEG,001,203080,
AFNE01.JPG,AFNE01.JPG,AFNE01.JPG,AFNE01.JPG,AFNE01.JPG,AFNE01.JPG,,,,,,,,,,,,,,,,,4,9,49,6,,,,,,,AFSA18.jpg,AFNE10.jpg,AFSA06.jpg,AFNE03.jpg,AFNE03.jpg,FN,3,num_4,32,num_8,0.33347413782,,,2018_Mar_01_1254,60.0023671987,FEMA4ImagesEEG,001,203080,
AFNE01.JPG,AFNE01.JPG,AFNE01.JPG,AFNE01.JPG,AFNE01.JPG,AFNE01.JPG,,,,,,,,,,,,,,,,,5,0,50,4,,,,,,,AFSA08.jpg,AFSA04.jpg,AFNE13.jpg,AFNE14.jpg,AFSA04.jpg,FS,4,num_6,32,num_2,0.450149961514,,,2018_Mar_01_1254,60.0023671987,FEMA4ImagesEEG,001,203080,
AFNE01.JPG,AFNE01.JPG,AFNE01.JPG,AFNE01.JPG,AFNE01.JPG,AFNE01.JPG,,,,,,,,,,,,,,,,,5,1,51,7,,,,,,,AFNE04.jpg,AFSA18.jpg,AFNE08.jpg,AFSA01.jpg,AFNE04.jpg,FN,3,num_8,32,num_4,0.300177593017,,,2018_Mar_01_1254,60.0023671987,FEMA4ImagesEEG,001,203080,
AFNE01.JPG,AFNE01.JPG,AFNE01.JPG,AFNE01.JPG,AFNE01.JPG,AFNE01.JPG,,,,,,,,,,,,,,,,,5,2,52,6,,,,,,,AFSA14.jpg,AFNE10.jpg,AFNE20.jpg,AFSA04.jpg,AFNE20.jpg,FN,3,num_2,32,num_6,0.0668153611477,,,2018_Mar_01_1254,60.0023671987,FEMA4ImagesEEG,001,203080,
AFNE01.JPG,AFNE01.JPG,AFNE01.JPG,AFNE01.JPG,AFNE01.JPG,AFNE01.JPG,,,,,,,,,,,,,,,,,5,3,53,5,,,,,,,AFSA11.jpg,AFSA14.jpg,AFNE10.jpg,AFNE17.jpg,AFSA14.jpg,FS,4,num_6,32,num_4,0.433547555003,,,2018_Mar_01_1254,60.0023671987,FEMA4ImagesEEG,001,203080,
AFNE01.JPG,AFNE01.JPG,AFNE01.JPG,AFNE01.JPG,AFNE01.JPG,AFNE01.JPG,,,,,,,,,,,,,,,,,5,4,54,3,,,,,,,AFSA10.jpg,AFSA18.jpg,AFNE04.jpg,AFNE07.jpg,AFNE04.jpg,FN,3,num_2,32,num_8,0.40016633505,,,2018_Mar_01_1254,60.0023671987,FEMA4ImagesEEG,001,203080,
AFNE01.JPG,AFNE01.JPG,AFNE01.JPG,AFNE01.JPG,AFNE01.JPG,AFNE01.JPG,,,,,,,,,,,,,,,,,5,5,55,2,,,,,,,AFSA18.jpg,AFSA08.jpg,AFNE19.jpg,AFNE17.jpg,AFSA08.jpg,FS,4,num_6,32,num_8,0.616786638973,,,2018_Mar_01_1254,60.0023671987,FEMA4ImagesEEG,001,203080,
AFNE01.JPG,AFNE01.JPG,AFNE01.JPG,AFNE01.JPG,AFNE01.JPG,AFNE01.JPG,,,,,,,,,,,,,,,,,5,6,56,9,,,,,,,AFNE03.jpg,AFSA19.jpg,AFNE06.jpg,AFSA20.jpg,AFNE06.jpg,FN,3,num_2,16,num_2,0.333471892634,,,2018_Mar_01_1254,60.0023671987,FEMA4ImagesEEG,001,203080,
AFNE01.JPG,AFNE01.JPG,AFNE01.JPG,AFNE01.JPG,AFNE01.JPG,AFNE01.JPG,,,,,,,,,,,,,,,,,5,7,57,1,,,,,,,AFSA08.jpg,AFNE17.jpg,AFNE08.jpg,AFSA16.jpg,AFSA08.jpg,FS,4,num_8,32,num_4,0.350200349465,,,2018_Mar_01_1254,60.0023671987,FEMA4ImagesEEG,001,203080,
AFNE01.JPG,AFNE01.JPG,AFNE01.JPG,AFNE01.JPG,AFNE01.JPG,AFNE01.JPG,,,,,,,,,,,,,,,,,5,8,58,0,,,,,,,AFNE01.jpg,AFSA05.jpg,AFNE10.jpg,AFSA16.jpg,AFNE10.jpg,FN,3,num_2,32,num_8,0.433506821049,,,2018_Mar_01_1254,60.0023671987,FEMA4ImagesEEG,001,203080,
AFNE01.JPG,AFNE01.JPG,AFNE01.JPG,AFNE01.JPG,AFNE01.JPG,AFNE01.JPG,,,,,,,,,,,,,,,,,5,9,59,8,,,,,,,AFSA08.jpg,AFSA04.jpg,AFNE15.jpg,AFNE17.jpg,AFNE15.jpg,FN,3,num_2,32,num_6,0.316828431096,,,2018_Mar_01_1254,60.0023671987,FEMA4ImagesEEG,001,203080,
,,,,,,,,,,,,,,,,,,,,,,,,,,,,,,,,,,,,,,,,,,,space,2.16668382613,2018_Mar_01_1254,60.0023671987,FEMA4ImagesEEG,001,203080,
AFNE01.JPG,AFNE01.JPG,AFNE01.JPG,AFNE01.JPG,AFNE01.JPG,AFNE01.JPG,,,,,,,,,,,,,,,,,,,,,0,0,0,3,,,AMNE13.jpg,AMSA17.jpg,AMNE19.jpg,AMSA06.jpg,AMNE13.jpg,MN,1,num_8,32,num_2,0.466795026325,,,2018_Mar_01_1254,60.0023671987,FEMA4ImagesEEG,001,203080,
AFNE01.JPG,AFNE01.JPG,AFNE01.JPG,AFNE01.JPG,AFNE01.JPG,AFNE01.JPG,,,,,,,,,,,,,,,,,,,,,0,1,1,8,,,AMNE16.jpg,AMNE07.jpg,AMSA04.jpg,AMSA13.jpg,AMNE16.jpg,MN,1,num_8,32,num_4,0.266857634764,,,2018_Mar_01_1254,60.0023671987,FEMA4ImagesEEG,001,203080,
AFNE01.JPG,AFNE01.JPG,AFNE01.JPG,AFNE01.JPG,AFNE01.JPG,AFNE01.JPG,,,,,,,,,,,,,,,,,,,,,0,2,2,0,,,AMNE08.jpg,AMNE02.jpg,AMSA11.jpg,AMSA18.jpg,AMNE02.jpg,MN,1,num_6,32,num_8,0.233438888565,,,2018_Mar_01_1254,60.0023671987,FEMA4ImagesEEG,001,203080,
AFNE01.JPG,AFNE01.JPG,AFNE01.JPG,AFNE01.JPG,AFNE01.JPG,AFNE01.JPG,,,,,,,,,,,,,,,,,,,,,0,3,3,7,,,AMNE10.jpg,AMSA12.jpg,AMNE05.jpg,AMSA01.jpg,AMNE10.jpg,MN,1,num_8,32,num_6,0.266857313924,,,2018_Mar_01_1254,60.0023671987,FEMA4ImagesEEG,001,203080,
AFNE01.JPG,AFNE01.JPG,AFNE01.JPG,AFNE01.JPG,AFNE01.JPG,AFNE01.JPG,,,,,,,,,,,,,,,,,,,,,0,4,4,2,,,AMNE04.jpg,AMSA14.jpg,AMNE11.jpg,AMSA04.jpg,AMNE11.jpg,MN,1,num_2,16,num_2,0.333460346097,,,2018_Mar_01_1254,60.0023671987,FEMA4ImagesEEG,001,203080,
AFNE01.JPG,AFNE01.JPG,AFNE01.JPG,AFNE01.JPG,AFNE01.JPG,AFNE01.JPG,,,,,,,,,,,,,,,,,,,,,0,5,5,1,,,AMSA19.jpg,AMSA12.jpg,AMNE15.jpg,AMNE03.jpg,AMSA19.jpg,MS,2,num_8,32,num_4,0.166794480989,,,2018_Mar_01_1254,60.0023671987,FEMA4ImagesEEG,001,203080,
AFNE01.JPG,AFNE01.JPG,AFNE01.JPG,AFNE01.JPG,AFNE01.JPG,AFNE01.JPG,,,,,,,,,,,,,,,,,,,,,0,6,6,5,,,AMSA08.jpg,AMNE12.jpg,AMSA04.jpg,AMNE08.jpg,AMSA08.jpg,MS,2,num_8,16,num_8,0.783487785142,,,2018_Mar_01_1254,60.0023671987,FEMA4ImagesEEG,001,203080,
AFNE01.JPG,AFNE01.JPG,AFNE01.JPG,AFNE01.JPG,AFNE01.JPG,AFNE01.JPG,,,,,,,,,,,,,,,,,,,,,0,7,7,9,,,AMNE10.jpg,AMNE01.jpg,AMSA01.jpg,AMSA06.jpg,AMSA01.jpg,MS,2,num_2,32,num_4,0.566805578768,,,2018_Mar_01_1254,60.0023671987,FEMA4ImagesEEG,001,203080,
AFNE01.JPG,AFNE01.JPG,AFNE01.JPG,AFNE01.JPG,AFNE01.JPG,AFNE01.JPG,,,,,,,,,,,,,,,,,,,,,0,8,8,6,,,AMSA13.jpg,AMNE04.jpg,AMSA18.jpg,AMNE12.jpg,AMNE04.jpg,MN,1,num_6,32,num_2,0.383497856325,,,2018_Mar_01_1254,60.0023671987,FEMA4ImagesEEG,001,203080,
AFNE01.JPG,AFNE01.JPG,AFNE01.JPG,AFNE01.JPG,AFNE01.JPG,AFNE01.JPG,,,,,,,,,,,,,,,,,,,,,0,9,9,4,,,AMSA12.jpg,AMSA06.jpg,AMNE02.jpg,AMNE20.jpg,AMNE02.jpg,MN,1,num_2,32,num_4,0.366777097108,,,2018_Mar_01_1254,60.0023671987,FEMA4ImagesEEG,001,203080,
AFNE01.JPG,AFNE01.JPG,AFNE01.JPG,AFNE01.JPG,AFNE01.JPG,AFNE01.JPG,,,,,,,,,,,,,,,,,,,,,1,0,10,8,,,AMSA06.jpg,AMSA07.jpg,AMNE04.jpg,AMNE17.jpg,AMSA07.jpg,MS,2,num_6,32,num_8,0.43319506268,,,2018_Mar_01_1254,60.0023671987,FEMA4ImagesEEG,001,203080,
AFNE01.JPG,AFNE01.JPG,AFNE01.JPG,AFNE01.JPG,AFNE01.JPG,AFNE01.JPG,,,,,,,,,,,,,,,,,,,,,1,1,11,3,,,AMNE03.jpg,AMNE08.jpg,AMSA14.jpg,AMSA07.jpg,AMNE08.jpg,MN,1,num_6,32,num_4,0.333488570992,,,2018_Mar_01_1254,60.0023671987,FEMA4ImagesEEG,001,203080,
AFNE01.JPG,AFNE01.JPG,AFNE01.JPG,AFNE01.JPG,AFNE01.JPG,AFNE01.JPG,,,,,,,,,,,,,,,,,,,,,1,2,12,5,,,AMNE18.jpg,AMNE02.jpg,AMSA17.jpg,AMSA09.jpg,AMNE18.jpg,MN,1,num_8,32,num_2,0.383515817579,,,2018_Mar_01_1254,60.0023671987,FEMA4ImagesEEG,001,203080,
AFNE01.JPG,AFNE01.JPG,AFNE01.JPG,AFNE01.JPG,AFNE01.JPG,AFNE01.JPG,,,,,,,,,,,,,,,,,,,,,1,3,13,0,,,AMSA07.jpg,AMNE10.jpg,AMSA01.jpg,AMNE09.jpg,AMNE10.jpg,MN,1,num_6,32,num_2,0.667049308075,,,2018_Mar_01_1254,60.0023671987,FEMA4ImagesEEG,001,203080,
AFNE01.JPG,AFNE01.JPG,AFNE01.JPG,AFNE01.JPG,AFNE01.JPG,AFNE01.JPG,,,,,,,,,,,,,,,,,,,,,1,4,14,1,,,AMSA14.jpg,AMNE13.jpg,AMNE17.jpg,AMSA18.jpg,AMNE13.jpg,MN,1,num_6,32,num_4,0.550139344996,,,2018_Mar_01_1254,60.0023671987,FEMA4ImagesEEG,001,203080,
AFNE01.JPG,AFNE01.JPG,AFNE01.JPG,AFNE01.JPG,AFNE01.JPG,AFNE01.JPG,,,,,,,,,,,,,,,,,,,,,1,5,15,2,,,AMSA05.jpg,AMNE19.jpg,AMNE16.jpg,AMSA04.jpg,AMSA04.jpg,MS,2,num_4,16,num_4,0.33351070201,,,2018_Mar_01_1254,60.0023671987,FEMA4ImagesEEG,001,203080,
AFNE01.JPG,AFNE01.JPG,AFNE01.JPG,AFNE01.JPG,AFNE01.JPG,AFNE01.JPG,,,,,,,,,,,,,,,,,,,,,1,6,16,7,,,AMSA17.jpg,AMNE08.jpg,AMNE13.jpg,AMSA12.jpg,AMSA17.jpg,MS,2,num_8,16,num_8,0.283558828756,,,2018_Mar_01_1254,60.0023671987,FEMA4ImagesEEG,001,203080,
AFNE01.JPG,AFNE01.JPG,AFNE01.JPG,AFNE01.JPG,AFNE01.JPG,AFNE01.JPG,,,,,,,,,,,,,,,,,,,,,1,7,17,4,,,AMNE13.jpg,AMNE10.jpg,AMSA10.jpg,AMSA01.jpg,AMSA01.jpg,MS,2,num_4,32,num_8,0.750182580668,,,2018_Mar_01_1254,60.0023671987,FEMA4ImagesEEG,001,203080,
AFNE01.JPG,AFNE01.JPG,AFNE01.JPG,AFNE01.JPG,AFNE01.JPG,AFNE01.JPG,,,,,,,,,,,,,,,,,,,,,1,8,18,6,,,AMSA02.jpg,AMSA13.jpg,AMNE02.jpg,AMNE03.jpg,AMNE03.jpg,MN,1,num_4,32,num_2,4.04988419707,,,2018_Mar_01_1254,60.0023671987,FEMA4ImagesEEG,001,203080,
AFNE01.JPG,AFNE01.JPG,AFNE01.JPG,AFNE01.JPG,AFNE01.JPG,AFNE01.JPG,,,,,,,,,,,,,,,,,,,,,1,9,19,9,,,AMSA18.jpg,AMNE18.jpg,AMSA14.jpg,AMNE03.jpg,AMSA14.jpg,MS,2,num_2,32,num_4,0.283477681922,,,2018_Mar_01_1254,60.0023671987,FEMA4ImagesEEG,001,203080,
AFNE01.JPG,AFNE01.JPG,AFNE01.JPG,AFNE01.JPG,AFNE01.JPG,AFNE01.JPG,,,,,,,,,,,,,,,,,,,,,2,0,20,4,,,AMSA13.jpg,AMNE09.jpg,AMNE03.jpg,AMSA20.jpg,AMSA20.jpg,MS,2,num_4,16,num_4,0.383338449057,,,2018_Mar_01_1254,60.0023671987,FEMA4ImagesEEG,001,203080,
AFNE01.JPG,AFNE01.JPG,AFNE01.JPG,AFNE01.JPG,AFNE01.JPG,AFNE01.JPG,,,,,,,,,,,,,,,,,,,,,2,1,21,3,,,AMNE11.jpg,AMSA09.jpg,AMSA02.jpg,AMNE15.jpg,AMNE15.jpg,MN,1,num_4,16,num_4,0.28347447468,,,2018_Mar_01_1254,60.0023671987,FEMA4ImagesEEG,001,203080,
AFNE01.JPG,AFNE01.JPG,AFNE01.JPG,AFNE01.JPG,AFNE01.JPG,AFNE01.JPG,,,,,,,,,,,,,,,,,,,,,2,2,22,2,,,AMNE11.jpg,AMSA18.jpg,AMSA20.jpg,AMNE05.jpg,AMNE05.jpg,MN,1,num_4,32,num_8,0.300236609066,,,2018_Mar_01_1254,60.0023671987,FEMA4ImagesEEG,001,203080,
AFNE01.JPG,AFNE01.JPG,AFNE01.JPG,AFNE01.JPG,AFNE01.JPG,AFNE01.JPG,,,,,,,,,,,,,,,,,,,,,2,3,23,0,,,AMNE12.jpg,AMSA05.jpg,AMSA04.jpg,AMNE19.jpg,AMSA05.jpg,MS,2,num_6,32,num_2,0.283453626558,,,2018_Mar_01_1254,60.0023671987,FEMA4ImagesEEG,001,203080,
AFNE01.JPG,AFNE01.JPG,AFNE01.JPG,AFNE01.JPG,AFNE01.JPG,AFNE01.JPG,,,,,,,,,,,,,,,,,,,,,2,4,24,9,,,AMSA18.jpg,AMSA10.jpg,AMNE02.jpg,AMNE07.jpg,AMSA10.jpg,MS,2,num_6,32,num_4,0.283435023623,,,2018_Mar_01_1254,60.0023671987,FEMA4ImagesEEG,001,203080,
AFNE01.JPG,AFNE01.JPG,AFNE01.JPG,AFNE01.JPG,AFNE01.JPG,AFNE01.JPG,,,,,,,,,,,,,,,,,,,,,2,5,25,1,,,AMSA01.jpg,AMNE10.jpg,AMSA15.jpg,AMNE04.jpg,AMSA15.jpg,MS,2,num_2,32,num_8,0.116858965717,,,2018_Mar_01_1254,60.0023671987,FEMA4ImagesEEG,001,203080,
AFNE01.JPG,AFNE01.JPG,AFNE01.JPG,AFNE01.JPG,AFNE01.JPG,AFNE01.JPG,,,,,,,,,,,,,,,,,,,,,2,6,26,8,,,AMNE15.jpg,AMNE13.jpg,AMSA15.jpg,AMSA04.jpg,AMSA04.jpg,MS,2,num_4,32,num_2,0.383500742959,,,2018_Mar_01_1254,60.0023671987,FEMA4ImagesEEG,001,203080,
AFNE01.JPG,AFNE01.JPG,AFNE01.JPG,AFNE01.JPG,AFNE01.JPG,AFNE01.JPG,,,,,,,,,,,,,,,,,,,,,2,7,27,7,,,AMSA01.jpg,AMNE01.jpg,AMNE14.jpg,AMSA04.jpg,AMSA04.jpg,MS,2,num_4,16,num_4,0.450146112591,,,2018_Mar_01_1254,60.0023671987,FEMA4ImagesEEG,001,203080,
AFNE01.JPG,AFNE01.JPG,AFNE01.JPG,AFNE01.JPG,AFNE01.JPG,AFNE01.JPG,,,,,,,,,,,,,,,,,,,,,2,8,28,5,,,AMNE15.jpg,AMSA04.jpg,AMNE07.jpg,AMSA16.jpg,AMNE07.jpg,MN,1,num_2,32,num_8,0.300153217046,,,2018_Mar_01_1254,60.0023671987,FEMA4ImagesEEG,001,203080,
AFNE01.JPG,AFNE01.JPG,AFNE01.JPG,AFNE01.JPG,AFNE01.JPG,AFNE01.JPG,,,,,,,,,,,,,,,,,,,,,2,9,29,6,,,AMNE19.jpg,AMSA10.jpg,AMNE07.jpg,AMSA08.jpg,AMNE19.jpg,MN,1,num_8,32,num_2,0.316810470074,,,2018_Mar_01_1254,60.0023671987,FEMA4ImagesEEG,001,203080,
AFNE01.JPG,AFNE01.JPG,AFNE01.JPG,AFNE01.JPG,AFNE01.JPG,AFNE01.JPG,,,,,,,,,,,,,,,,,,,,,3,0,30,2,,,AMNE07.jpg,AMSA04.jpg,AMSA15.jpg,AMNE05.jpg,AMNE07.jpg,MN,1,num_8,32,num_6,0.250159327174,,,2018_Mar_01_1254,60.0023671987,FEMA4ImagesEEG,001,203080,
AFNE01.JPG,AFNE01.JPG,AFNE01.JPG,AFNE01.JPG,AFNE01.JPG,AFNE01.JPG,,,,,,,,,,,,,,,,,,,,,3,1,31,4,,,AMNE09.jpg,AMSA07.jpg,AMNE14.jpg,AMSA01.jpg,AMNE14.jpg,MN,1,num_2,32,num_8,0.28353156615,,,2018_Mar_01_1254,60.0023671987,FEMA4ImagesEEG,001,203080,
AFNE01.JPG,AFNE01.JPG,AFNE01.JPG,AFNE01.JPG,AFNE01.JPG,AFNE01.JPG,,,,,,,,,,,,,,,,,,,,,3,2,32,8,,,AMNE14.jpg,AMSA05.jpg,AMSA03.jpg,AMNE03.jpg,AMSA05.jpg,MS,2,num_6,32,num_4,0.233531902777,,,2018_Mar_01_1254,60.0023671987,FEMA4ImagesEEG,001,203080,
AFNE01.JPG,AFNE01.JPG,AFNE01.JPG,AFNE01.JPG,AFNE01.JPG,AFNE01.JPG,,,,,,,,,,,,,,,,,,,,,3,3,33,5,,,AMSA05.jpg,AMSA01.jpg,AMNE08.jpg,AMNE16.jpg,AMSA01.jpg,MS,2,num_6,32,num_2,0.350164747331,,,2018_Mar_01_1254,60.0023671987,FEMA4ImagesEEG,001,203080,
AFNE01.JPG,AFNE01.JPG,AFNE01.JPG,AFNE01.JPG,AFNE01.JPG,AFNE01.JPG,,,,,,,,,,,,,,,,,,,,,3,4,34,3,,,AMNE13.jpg,AMSA08.jpg,AMSA17.jpg,AMNE04.jpg,AMSA17.jpg,MS,2,num_2,32,num_8,0.300168291898,,,2018_Mar_01_1254,60.0023671987,FEMA4ImagesEEG,001,203080,
AFNE01.JPG,AFNE01.JPG,AFNE01.JPG,AFNE01.JPG,AFNE01.JPG,AFNE01.JPG,,,,,,,,,,,,,,,,,,,,,3,5,35,6,,,AMSA17.jpg,AMNE01.jpg,AMSA03.jpg,AMNE05.jpg,AMNE01.jpg,MN,1,num_6,32,num_2,0.266831654822,,,2018_Mar_01_1254,60.0023671987,FEMA4ImagesEEG,001,203080,
AFNE01.JPG,AFNE01.JPG,AFNE01.JPG,AFNE01.JPG,AFNE01.JPG,AFNE01.JPG,,,,,,,,,,,,,,,,,,,,,3,6,36,1,,,AMNE06.jpg,AMSA19.jpg,AMNE15.jpg,AMSA04.jpg,AMSA04.jpg,MS,2,num_4,16,num_4,0.383510685991,,,2018_Mar_01_1254,60.0023671987,FEMA4ImagesEEG,001,203080,
AFNE01.JPG,AFNE01.JPG,AFNE01.JPG,AFNE01.JPG,AFNE01.JPG,AFNE01.JPG,,,,,,,,,,,,,,,,,,,,,3,7,37,7,,,AMNE13.jpg,AMSA19.jpg,AMNE08.jpg,AMSA08.jpg,AMSA08.jpg,MS,2,num_4,32,num_6,0.383472838672,,,2018_Mar_01_1254,60.0023671987,FEMA4ImagesEEG,001,203080,
AFNE01.JPG,AFNE01.JPG,AFNE01.JPG,AFNE01.JPG,AFNE01.JPG,AFNE01.JPG,,,,,,,,,,,,,,,,,,,,,3,8,38,0,,,AMNE08.jpg,AMSA08.jpg,AMSA09.jpg,AMNE01.jpg,AMNE08.jpg,MN,1,num_8,32,num_2,0.400188145461,,,2018_Mar_01_1254,60.0023671987,FEMA4ImagesEEG,001,203080,
