IPosition2,IPosition3,IPosition1,IPosition6,IPosition4,IPosition5,TrialsF1.thisRepN,TrialsF1.thisTrialN,TrialsF1.thisN,TrialsF1.thisIndex,TrialsM1.thisRepN,TrialsM1.thisTrialN,TrialsM1.thisN,TrialsM1.thisIndex,TrialsF2.thisRepN,TrialsF2.thisTrialN,TrialsF2.thisN,TrialsF2.thisIndex,TrialsM2.thisRepN,TrialsM2.thisTrialN,TrialsM2.thisN,TrialsM2.thisIndex,TrialsF3.thisRepN,TrialsF3.thisTrialN,TrialsF3.thisN,TrialsF3.thisIndex,TrialsM3.thisRepN,TrialsM3.thisTrialN,TrialsM3.thisN,TrialsM3.thisIndex,InstrKey_resp.keys,InstrKey_resp.rt,Image0 _Position,Image1 _Position,Image2 _Position,Image3 _Position,Center_image,condition,code,correct_answer,accuracy,Key_Resp.keys,Key_Resp.rt,BreakKey_resp.keys,BreakKey_resp.rt,date,frameRate,expName,session,participant,
,,,,,,,,,,,,,,,,,,,,,,,,,,,,,,space,2.38337955187,,,,,,,,,,,,,,2018_Mar_28_1832,60.0030022685,FEMA4ImagesEEG,001,203054,
AFSA21.JPG,AFNE22.JPG,AFNE21.JPG,AFSA23.JPG,AFSA22.JPG,AFNE23.JPG,0,0,0,0,,,,,,,,,,,,,,,,,,,,,,,AFNE11.jpg,AFNE04.jpg,AFSA01.jpg,AFSA16.jpg,AFSA01.jpg,FS,4,num_2,32,num_8,0.65017361613,,,2018_Mar_28_1832,60.0030022685,FEMA4ImagesEEG,001,203054,
AMNE22.JPG,AMSA24.JPG,AMSA22.JPG,AMNE25.JPG,AMNE24.JPG,AMSA25.JPG,0,1,1,7,,,,,,,,,,,,,,,,,,,,,,,AFNE15.jpg,AFSA08.jpg,AFSA20.jpg,AFNE12.jpg,AFNE12.jpg,FN,3,num_4,16,num_4,1.65008509211,,,2018_Mar_28_1832,60.0030022685,FEMA4ImagesEEG,001,203054,
AFSA25.JPG,AFNE24.JPG,AFSA24.JPG,AFNE21.JPG,AFSA21.JPG,AFNE25.JPG,0,2,2,2,,,,,,,,,,,,,,,,,,,,,,,AFNE07.jpg,AFSA10.jpg,AFNE05.jpg,AFSA11.jpg,AFSA10.jpg,FS,4,num_6,16,num_6,0.633493574627,,,2018_Mar_28_1832,60.0030022685,FEMA4ImagesEEG,001,203054,
AMSA25.JPG,AMNE24.JPG,AMSA24.JPG,AMNE26.JPG,AMSA21.JPG,AMNE25.JPG,0,3,3,3,,,,,,,,,,,,,,,,,,,,,,,AFNE20.jpg,AFSA05.jpg,AFSA14.jpg,AFNE05.jpg,AFSA14.jpg,FS,4,num_2,32,num_8,0.750168548431,,,2018_Mar_28_1832,60.0030022685,FEMA4ImagesEEG,001,203054,
AFSA21.JPG,AFNE23.JPG,AFNE21.JPG,AFSA25.JPG,AFNE25.JPG,AFSA23.JPG,0,4,4,4,,,,,,,,,,,,,,,,,,,,,,,AFNE19.jpg,AFNE07.jpg,AFSA18.jpg,AFSA04.jpg,AFSA04.jpg,FS,4,num_4,16,num_4,0.833473175589,,,2018_Mar_28_1832,60.0030022685,FEMA4ImagesEEG,001,203054,
AMSA21.JPG,AMNE23.JPG,AMNE21.JPG,AMSA25.JPG,AMNE25.JPG,AMSA23.JPG,0,5,5,5,,,,,,,,,,,,,,,,,,,,,,,AFSA06.jpg,AFNE19.jpg,AFSA02.jpg,AFNE04.jpg,AFNE04.jpg,FN,3,num_4,16,num_4,0.833489533281,,,2018_Mar_28_1832,60.0030022685,FEMA4ImagesEEG,001,203054,
AMNE23.JPG,AMNE24.JPG,AMNE22.JPG,AMSA24.JPG,AMSA22.JPG,AMSA23.JPG,0,6,6,9,,,,,,,,,,,,,,,,,,,,,,,AFSA17.jpg,AFSA13.jpg,AFNE08.jpg,AFNE19.jpg,AFNE19.jpg,FN,3,num_4,32,num_8,0.70018744003,,,2018_Mar_28_1832,60.0030022685,FEMA4ImagesEEG,001,203054,
AFNE22.JPG,AFSA24.JPG,AFSA22.JPG,AFNE25.JPG,AFNE24.JPG,AFSA25.JPG,0,7,7,6,,,,,,,,,,,,,,,,,,,,,,,AFNE12.jpg,AFSA03.jpg,AFSA04.jpg,AFNE16.jpg,AFSA03.jpg,FS,4,num_6,16,num_6,0.450217749807,,,2018_Mar_28_1832,60.0030022685,FEMA4ImagesEEG,001,203054,
AFNE23.JPG,AFNE24.JPG,AFNE22.JPG,AFSA24.JPG,AFSA22.JPG,AFSA23.JPG,0,8,8,8,,,,,,,,,,,,,,,,,,,,,,,AFSA14.jpg,AFNE14.jpg,AFNE16.jpg,AFSA01.jpg,AFSA14.jpg,FS,4,num_8,16,num_8,0.56681414257,,,2018_Mar_28_1832,60.0030022685,FEMA4ImagesEEG,001,203054,
AMSA21.JPG,AMNE22.JPG,AMNE21.JPG,AMSA23.JPG,AMSA22.JPG,AMNE23.JPG,0,9,9,1,,,,,,,,,,,,,,,,,,,,,,,AFNE10.jpg,AFSA13.jpg,AFNE11.jpg,AFSA02.jpg,AFNE11.jpg,FN,3,num_2,32,num_8,0.583494504797,,,2018_Mar_28_1832,60.0030022685,FEMA4ImagesEEG,001,203054,
AFSA21.JPG,AFNE23.JPG,AFNE21.JPG,AFSA25.JPG,AFNE25.JPG,AFSA23.JPG,,,,,0,0,0,4,,,,,,,,,,,,,,,,,,,AMNE17.jpg,AMSA17.jpg,AMNE13.jpg,AMSA04.jpg,AMSA17.jpg,MS,2,num_6,32,num_4,0.533498000819,,,2018_Mar_28_1832,60.0030022685,FEMA4ImagesEEG,001,203054,
AMSA21.JPG,AMNE23.JPG,AMNE21.JPG,AMSA25.JPG,AMNE25.JPG,AMSA23.JPG,,,,,0,1,1,5,,,,,,,,,,,,,,,,,,,AMNE17.jpg,AMSA08.jpg,AMSA12.jpg,AMNE04.jpg,AMSA12.jpg,MS,2,num_2,32,num_6,0.350188498385,,,2018_Mar_28_1832,60.0030022685,FEMA4ImagesEEG,001,203054,
AMNE23.JPG,AMNE24.JPG,AMNE22.JPG,AMSA24.JPG,AMSA22.JPG,AMSA23.JPG,,,,,0,2,2,9,,,,,,,,,,,,,,,,,,,AMNE01.jpg,AMSA06.jpg,AMNE17.jpg,AMSA17.jpg,AMSA06.jpg,MS,2,num_6,32,num_8,0.416675166285,,,2018_Mar_28_1832,60.0030022685,FEMA4ImagesEEG,001,203054,
AFSA25.JPG,AFNE24.JPG,AFSA24.JPG,AFNE21.JPG,AFSA21.JPG,AFNE25.JPG,,,,,0,3,3,2,,,,,,,,,,,,,,,,,,,AMSA14.jpg,AMSA18.jpg,AMNE14.jpg,AMNE08.jpg,AMSA14.jpg,MS,2,num_8,16,num_8,0.433518784761,,,2018_Mar_28_1832,60.0030022685,FEMA4ImagesEEG,001,203054,
AFSA21.JPG,AFNE22.JPG,AFNE21.JPG,AFSA23.JPG,AFSA22.JPG,AFNE23.JPG,,,,,0,4,4,0,,,,,,,,,,,,,,,,,,,AMSA06.jpg,AMSA03.jpg,AMNE11.jpg,AMNE15.jpg,AMNE15.jpg,MN,1,num_4,32,num_2,0.566772767168,,,2018_Mar_28_1832,60.0030022685,FEMA4ImagesEEG,001,203054,
AMNE22.JPG,AMSA24.JPG,AMSA22.JPG,AMNE25.JPG,AMNE24.JPG,AMSA25.JPG,,,,,0,5,5,7,,,,,,,,,,,,,,,,,,,AMSA08.jpg,AMNE16.jpg,AMNE03.jpg,AMSA02.jpg,AMSA08.jpg,MS,2,num_8,32,num_4,0.616820268624,,,2018_Mar_28_1832,60.0030022685,FEMA4ImagesEEG,001,203054,
AMSA25.JPG,AMNE24.JPG,AMSA24.JPG,AMNE26.JPG,AMSA21.JPG,AMNE25.JPG,,,,,0,6,6,3,,,,,,,,,,,,,,,,,,,AMSA02.jpg,AMNE16.jpg,AMSA13.jpg,AMNE03.jpg,AMSA02.jpg,MS,2,num_8,32,num_4,0.783487576817,,,2018_Mar_28_1832,60.0030022685,FEMA4ImagesEEG,001,203054,
AFNE22.JPG,AFSA24.JPG,AFSA22.JPG,AFNE25.JPG,AFNE24.JPG,AFSA25.JPG,,,,,0,7,7,6,,,,,,,,,,,,,,,,,,,AMNE02.jpg,AMNE07.jpg,AMSA06.jpg,AMSA14.jpg,AMSA06.jpg,MS,2,num_2,32,num_6,0.400165437255,,,2018_Mar_28_1832,60.0030022685,FEMA4ImagesEEG,001,203054,
AFNE23.JPG,AFNE24.JPG,AFNE22.JPG,AFSA24.JPG,AFSA22.JPG,AFSA23.JPG,,,,,0,8,8,8,,,,,,,,,,,,,,,,,,,AMSA06.jpg,AMNE17.jpg,AMSA11.jpg,AMNE07.jpg,AMSA06.jpg,MS,2,num_8,16,num_8,0.433393696439,,,2018_Mar_28_1832,60.0030022685,FEMA4ImagesEEG,001,203054,
AMSA21.JPG,AMNE22.JPG,AMNE21.JPG,AMSA23.JPG,AMSA22.JPG,AMNE23.JPG,,,,,0,9,9,1,,,,,,,,,,,,,,,,,,,AMSA02.jpg,AMSA13.jpg,AMNE05.jpg,AMNE06.jpg,AMSA02.jpg,MS,2,num_8,32,num_2,0.583530748321,,,2018_Mar_28_1832,60.0030022685,FEMA4ImagesEEG,001,203054,
AMSA21.JPG,AMNE23.JPG,AMNE21.JPG,AMSA25.JPG,AMNE25.JPG,AMSA23.JPG,,,,,,,,,0,0,0,5,,,,,,,,,,,,,,,AFSA08.jpg,AFSA19.jpg,AFNE06.jpg,AFNE12.jpg,AFSA19.jpg,FS,4,num_6,16,num_6,0.350168291829,,,2018_Mar_28_1832,60.0030022685,FEMA4ImagesEEG,001,203054,
AFNE22.JPG,AFSA24.JPG,AFSA22.JPG,AFNE25.JPG,AFNE24.JPG,AFSA25.JPG,,,,,,,,,0,1,1,6,,,,,,,,,,,,,,,AFNE14.jpg,AFNE05.jpg,AFSA01.jpg,AFSA07.jpg,AFSA07.jpg,FS,4,num_4,32,num_8,0.583526899398,,,2018_Mar_28_1832,60.0030022685,FEMA4ImagesEEG,001,203054,
AMSA21.JPG,AMNE22.JPG,AMNE21.JPG,AMSA23.JPG,AMSA22.JPG,AMNE23.JPG,,,,,,,,,0,2,2,1,,,,,,,,,,,,,,,AFNE04.jpg,AFSA07.jpg,AFNE06.jpg,AFSA12.jpg,AFSA07.jpg,FS,4,num_6,16,num_6,0.433545085369,,,2018_Mar_28_1832,60.0030022685,FEMA4ImagesEEG,001,203054,
AFNE23.JPG,AFNE24.JPG,AFNE22.JPG,AFSA24.JPG,AFSA22.JPG,AFSA23.JPG,,,,,,,,,0,3,3,8,,,,,,,,,,,,,,,AFNE08.jpg,AFNE11.jpg,AFSA19.jpg,AFSA03.jpg,AFNE08.jpg,FN,3,num_8,32,num_4,0.50019340578,,,2018_Mar_28_1832,60.0030022685,FEMA4ImagesEEG,001,203054,
AMNE22.JPG,AMSA24.JPG,AMSA22.JPG,AMNE25.JPG,AMNE24.JPG,AMSA25.JPG,,,,,,,,,0,4,4,7,,,,,,,,,,,,,,,AFSA16.jpg,AFSA18.jpg,AFNE10.jpg,AFNE17.jpg,AFSA18.jpg,FS,4,num_6,16,num_6,0.350228911557,,,2018_Mar_28_1832,60.0030022685,FEMA4ImagesEEG,001,203054,
AFSA21.JPG,AFNE22.JPG,AFNE21.JPG,AFSA23.JPG,AFSA22.JPG,AFNE23.JPG,,,,,,,,,0,5,5,0,,,,,,,,,,,,,,,AFNE01.jpg,AFNE13.jpg,AFSA14.jpg,AFSA06.jpg,AFSA14.jpg,FS,4,num_2,32,num_8,0.466828511679,,,2018_Mar_28_1832,60.0030022685,FEMA4ImagesEEG,001,203054,
AFSA25.JPG,AFNE24.JPG,AFSA24.JPG,AFNE21.JPG,AFSA21.JPG,AFNE25.JPG,,,,,,,,,0,6,6,2,,,,,,,,,,,,,,,AFNE05.jpg,AFSA18.jpg,AFSA10.jpg,AFNE13.jpg,AFNE13.jpg,FN,3,num_4,32,num_8,0.633504800498,,,2018_Mar_28_1832,60.0030022685,FEMA4ImagesEEG,001,203054,
AMSA25.JPG,AMNE24.JPG,AMSA24.JPG,AMNE26.JPG,AMSA21.JPG,AMNE25.JPG,,,,,,,,,0,7,7,3,,,,,,,,,,,,,,,AFNE17.jpg,AFSA16.jpg,AFNE09.jpg,AFSA06.jpg,AFSA16.jpg,FS,4,num_6,32,num_4,0.86678835511,,,2018_Mar_28_1832,60.0030022685,FEMA4ImagesEEG,001,203054,
AMNE23.JPG,AMNE24.JPG,AMNE22.JPG,AMSA24.JPG,AMSA22.JPG,AMSA23.JPG,,,,,,,,,0,8,8,9,,,,,,,,,,,,,,,AFSA01.jpg,AFNE14.jpg,AFSA05.jpg,AFNE17.jpg,AFNE17.jpg,FN,3,num_4,32,num_6,0.500316890306,,,2018_Mar_28_1832,60.0030022685,FEMA4ImagesEEG,001,203054,
AFSA21.JPG,AFNE23.JPG,AFNE21.JPG,AFSA25.JPG,AFNE25.JPG,AFSA23.JPG,,,,,,,,,0,9,9,4,,,,,,,,,,,,,,,AFSA13.jpg,AFSA09.jpg,AFNE07.jpg,AFNE11.jpg,AFNE11.jpg,FN,3,num_4,16,num_4,0.616762535647,,,2018_Mar_28_1832,60.0030022685,FEMA4ImagesEEG,001,203054,
AFSA21.JPG,AFNE22.JPG,AFNE21.JPG,AFSA23.JPG,AFSA22.JPG,AFNE23.JPG,,,,,,,,,,,,,0,0,0,0,,,,,,,,,,,AMSA02.jpg,AMNE09.jpg,AMSA06.jpg,AMNE02.jpg,AMSA02.jpg,MS,2,num_8,32,num_6,0.616808401304,,,2018_Mar_28_1832,60.0030022685,FEMA4ImagesEEG,001,203054,
AFNE22.JPG,AFSA24.JPG,AFSA22.JPG,AFNE25.JPG,AFNE24.JPG,AFSA25.JPG,,,,,,,,,,,,,0,1,1,6,,,,,,,,,,,AMSA13.jpg,AMNE07.jpg,AMSA04.jpg,AMNE20.jpg,AMSA13.jpg,MS,2,num_8,16,num_8,0.533489340858,,,2018_Mar_28_1832,60.0030022685,FEMA4ImagesEEG,001,203054,
AFNE23.JPG,AFNE24.JPG,AFNE22.JPG,AFSA24.JPG,AFSA22.JPG,AFSA23.JPG,,,,,,,,,,,,,0,2,2,8,,,,,,,,,,,AMNE10.jpg,AMSA09.jpg,AMNE19.jpg,AMSA16.jpg,AMNE10.jpg,MN,1,num_8,32,num_6,0.650166239124,,,2018_Mar_28_1832,60.0030022685,FEMA4ImagesEEG,001,203054,
AMSA25.JPG,AMNE24.JPG,AMSA24.JPG,AMNE26.JPG,AMSA21.JPG,AMNE25.JPG,,,,,,,,,,,,,0,3,3,3,,,,,,,,,,,AMSA18.jpg,AMSA12.jpg,AMNE09.jpg,AMNE17.jpg,AMSA18.jpg,MS,2,num_8,16,num_8,0.633343147987,,,2018_Mar_28_1832,60.0030022685,FEMA4ImagesEEG,001,203054,
AMNE23.JPG,AMNE24.JPG,AMNE22.JPG,AMSA24.JPG,AMSA22.JPG,AMSA23.JPG,,,,,,,,,,,,,0,4,4,9,,,,,,,,,,,AMNE19.jpg,AMSA04.jpg,AMSA12.jpg,AMNE17.jpg,AMNE19.jpg,MN,1,num_8,32,num_4,0.866818825365,,,2018_Mar_28_1832,60.0030022685,FEMA4ImagesEEG,001,203054,
AMNE22.JPG,AMSA24.JPG,AMSA22.JPG,AMNE25.JPG,AMNE24.JPG,AMSA25.JPG,,,,,,,,,,,,,0,5,5,7,,,,,,,,,,,AMNE13.jpg,AMSA10.jpg,AMSA08.jpg,AMNE09.jpg,AMNE09.jpg,MN,1,num_4,32,num_8,1.0501350633,,,2018_Mar_28_1832,60.0030022685,FEMA4ImagesEEG,001,203054,
AMSA21.JPG,AMNE22.JPG,AMNE21.JPG,AMSA23.JPG,AMSA22.JPG,AMNE23.JPG,,,,,,,,,,,,,0,6,6,1,,,,,,,,,,,AMNE11.jpg,AMSA01.jpg,AMSA20.jpg,AMNE05.jpg,AMSA01.jpg,MS,2,num_6,32,num_4,1.35011408693,,,2018_Mar_28_1832,60.0030022685,FEMA4ImagesEEG,001,203054,
AFSA25.JPG,AFNE24.JPG,AFSA24.JPG,AFNE21.JPG,AFSA21.JPG,AFNE25.JPG,,,,,,,,,,,,,0,7,7,2,,,,,,,,,,,AMNE02.jpg,AMSA02.jpg,AMNE17.jpg,AMSA18.jpg,AMNE17.jpg,MN,1,num_2,32,num_6,0.516810903093,,,2018_Mar_28_1832,60.0030022685,FEMA4ImagesEEG,001,203054,
AMSA21.JPG,AMNE23.JPG,AMNE21.JPG,AMSA25.JPG,AMNE25.JPG,AMSA23.JPG,,,,,,,,,,,,,0,8,8,5,,,,,,,,,,,AMNE12.jpg,AMSA07.jpg,AMSA18.jpg,AMNE01.jpg,AMSA18.jpg,MS,2,num_2,16,num_2,0.80019231519,,,2018_Mar_28_1832,60.0030022685,FEMA4ImagesEEG,001,203054,
AFSA21.JPG,AFNE23.JPG,AFNE21.JPG,AFSA25.JPG,AFNE25.JPG,AFSA23.JPG,,,,,,,,,,,,,0,9,9,4,,,,,,,,,,,AMSA17.jpg,AMNE19.jpg,AMNE17.jpg,AMSA12.jpg,AMNE19.jpg,MN,1,num_6,16,num_6,1.30011020595,,,2018_Mar_28_1832,60.0030022685,FEMA4ImagesEEG,001,203054,
AMSA21.JPG,AMNE23.JPG,AMNE21.JPG,AMSA25.JPG,AMNE25.JPG,AMSA23.JPG,,,,,,,,,,,,,,,,,0,0,0,5,,,,,,,AFNE12.jpg,AFSA03.jpg,AFNE16.jpg,AFSA15.jpg,AFNE12.jpg,FN,3,num_8,32,num_4,0.616752913396,,,2018_Mar_28_1832,60.0030022685,FEMA4ImagesEEG,001,203054,
AMSA25.JPG,AMNE24.JPG,AMSA24.JPG,AMNE26.JPG,AMSA21.JPG,AMNE25.JPG,,,,,,,,,,,,,,,,,0,1,1,3,,,,,,,AFNE06.jpg,AFSA19.jpg,AFNE17.jpg,AFSA14.jpg,AFNE17.jpg,FN,3,num_2,32,num_4,0.733464772231,,,2018_Mar_28_1832,60.0030022685,FEMA4ImagesEEG,001,203054,
AMNE22.JPG,AMSA24.JPG,AMSA22.JPG,AMNE25.JPG,AMNE24.JPG,AMSA25.JPG,,,,,,,,,,,,,,,,,0,2,2,7,,,,,,,AFSA12.jpg,AFSA01.jpg,AFNE16.jpg,AFNE09.jpg,AFSA12.jpg,FS,4,num_8,16,num_8,0.883484754304,,,2018_Mar_28_1832,60.0030022685,FEMA4ImagesEEG,001,203054,
AFSA21.JPG,AFNE23.JPG,AFNE21.JPG,AFSA25.JPG,AFNE25.JPG,AFSA23.JPG,,,,,,,,,,,,,,,,,0,3,3,4,,,,,,,AFSA18.jpg,AFSA17.jpg,AFNE10.jpg,AFNE09.jpg,AFNE09.jpg,FN,3,num_4,32,num_8,0.883505602367,,,2018_Mar_28_1832,60.0030022685,FEMA4ImagesEEG,001,203054,
AMNE23.JPG,AMNE24.JPG,AMNE22.JPG,AMSA24.JPG,AMSA22.JPG,AMSA23.JPG,,,,,,,,,,,,,,,,,0,4,4,9,,,,,,,AFNE18.jpg,AFNE01.jpg,AFSA05.jpg,AFSA20.jpg,AFNE01.jpg,FN,3,num_6,32,num_2,0.900124382635,,,2018_Mar_28_1832,60.0030022685,FEMA4ImagesEEG,001,203054,
AFNE22.JPG,AFSA24.JPG,AFSA22.JPG,AFNE25.JPG,AFNE24.JPG,AFSA25.JPG,,,,,,,,,,,,,,,,,0,5,5,6,,,,,,,AFSA12.jpg,AFNE07.jpg,AFNE11.jpg,AFSA13.jpg,AFNE11.jpg,FN,3,num_2,32,num_4,0.883473528433,,,2018_Mar_28_1832,60.0030022685,FEMA4ImagesEEG,001,203054,
AFSA25.JPG,AFNE24.JPG,AFSA24.JPG,AFNE21.JPG,AFSA21.JPG,AFNE25.JPG,,,,,,,,,,,,,,,,,0,6,6,2,,,,,,,AFSA06.jpg,AFSA14.jpg,AFNE10.jpg,AFNE05.jpg,AFNE05.jpg,FN,3,num_4,32,num_2,0.500186990947,,,2018_Mar_28_1832,60.0030022685,FEMA4ImagesEEG,001,203054,
AFSA21.JPG,AFNE22.JPG,AFNE21.JPG,AFSA23.JPG,AFSA22.JPG,AFNE23.JPG,,,,,,,,,,,,,,,,,0,7,7,0,,,,,,,AFSA09.jpg,AFSA01.jpg,AFNE15.jpg,AFNE19.jpg,AFNE15.jpg,FN,3,num_2,32,num_6,0.566653131449,,,2018_Mar_28_1832,60.0030022685,FEMA4ImagesEEG,001,203054,
AFNE23.JPG,AFNE24.JPG,AFNE22.JPG,AFSA24.JPG,AFSA22.JPG,AFSA23.JPG,,,,,,,,,,,,,,,,,0,8,8,8,,,,,,,AFNE16.jpg,AFSA04.jpg,AFSA03.jpg,AFNE13.jpg,AFNE16.jpg,FN,3,num_8,16,num_8,0.483481611009,,,2018_Mar_28_1832,60.0030022685,FEMA4ImagesEEG,001,203054,
AMSA21.JPG,AMNE22.JPG,AMNE21.JPG,AMSA23.JPG,AMSA22.JPG,AMNE23.JPG,,,,,,,,,,,,,,,,,0,9,9,1,,,,,,,AFNE09.jpg,AFSA19.jpg,AFSA08.jpg,AFNE08.jpg,AFSA08.jpg,FS,4,num_2,16,num_2,0.533606410725,,,2018_Mar_28_1832,60.0030022685,FEMA4ImagesEEG,001,203054,
AFNE22.JPG,AFSA24.JPG,AFSA22.JPG,AFNE25.JPG,AFNE24.JPG,AFSA25.JPG,,,,,,,,,,,,,,,,,,,,,0,0,0,6,,,AMSA12.jpg,AMNE20.jpg,AMNE01.jpg,AMSA04.jpg,AMNE01.jpg,MN,1,num_2,32,num_4,0.550224549486,,,2018_Mar_28_1832,60.0030022685,FEMA4ImagesEEG,001,203054,
AMSA25.JPG,AMNE24.JPG,AMSA24.JPG,AMNE26.JPG,AMSA21.JPG,AMNE25.JPG,,,,,,,,,,,,,,,,,,,,,0,1,1,3,,,AMSA04.jpg,AMNE15.jpg,AMSA01.jpg,AMNE11.jpg,AMNE15.jpg,MN,1,num_6,32,num_8,0.633503838268,,,2018_Mar_28_1832,60.0030022685,FEMA4ImagesEEG,001,203054,
AFSA25.JPG,AFNE24.JPG,AFSA24.JPG,AFNE21.JPG,AFSA21.JPG,AFNE25.JPG,,,,,,,,,,,,,,,,,,,,,0,2,2,2,,,AMNE06.jpg,AMSA15.jpg,AMNE04.jpg,AMSA02.jpg,AMNE04.jpg,MN,1,num_2,32,num_4,0.566812859615,,,2018_Mar_28_1832,60.0030022685,FEMA4ImagesEEG,001,203054,
AMNE23.JPG,AMNE24.JPG,AMNE22.JPG,AMSA24.JPG,AMSA22.JPG,AMSA23.JPG,,,,,,,,,,,,,,,,,,,,,0,3,3,9,,,AMNE07.jpg,AMSA19.jpg,AMSA03.jpg,AMNE12.jpg,AMNE07.jpg,MN,1,num_8,32,num_2,0.633555156528,,,2018_Mar_28_1832,60.0030022685,FEMA4ImagesEEG,001,203054,
AMSA21.JPG,AMNE23.JPG,AMNE21.JPG,AMSA25.JPG,AMNE25.JPG,AMSA23.JPG,,,,,,,,,,,,,,,,,,,,,0,4,4,5,,,AMSA13.jpg,AMSA20.jpg,AMNE17.jpg,AMNE08.jpg,AMNE08.jpg,MN,1,num_4,16,num_4,0.650130316324,,,2018_Mar_28_1832,60.0030022685,FEMA4ImagesEEG,001,203054,
AMNE22.JPG,AMSA24.JPG,AMSA22.JPG,AMNE25.JPG,AMNE24.JPG,AMSA25.JPG,,,,,,,,,,,,,,,,,,,,,0,5,5,7,,,AMSA17.jpg,AMNE19.jpg,AMSA13.jpg,AMNE07.jpg,AMNE19.jpg,MN,1,num_6,32,num_4,0.616834381188,,,2018_Mar_28_1832,60.0030022685,FEMA4ImagesEEG,001,203054,
AFSA21.JPG,AFNE22.JPG,AFNE21.JPG,AFSA23.JPG,AFSA22.JPG,AFNE23.JPG,,,,,,,,,,,,,,,,,,,,,0,6,6,0,,,AMSA08.jpg,AMNE04.jpg,AMSA14.jpg,AMNE08.jpg,AMNE08.jpg,MN,1,num_4,32,num_6,0.500161331845,,,2018_Mar_28_1832,60.0030022685,FEMA4ImagesEEG,001,203054,
AFSA21.JPG,AFNE23.JPG,AFNE21.JPG,AFSA25.JPG,AFNE25.JPG,AFSA23.JPG,,,,,,,,,,,,,,,,,,,,,0,7,7,4,,,AMNE11.jpg,AMSA17.jpg,AMSA03.jpg,AMNE18.jpg,AMSA03.jpg,MS,2,num_2,16,num_2,0.650163993996,,,2018_Mar_28_1832,60.0030022685,FEMA4ImagesEEG,001,203054,
AMSA21.JPG,AMNE22.JPG,AMNE21.JPG,AMSA23.JPG,AMSA22.JPG,AMNE23.JPG,,,,,,,,,,,,,,,,,,,,,0,8,8,1,,,AMSA20.jpg,AMNE12.jpg,AMSA05.jpg,AMNE01.jpg,AMNE12.jpg,MN,1,num_6,32,num_4,0.716806541022,,,2018_Mar_28_1832,60.0030022685,FEMA4ImagesEEG,001,203054,
AFNE23.JPG,AFNE24.JPG,AFNE22.JPG,AFSA24.JPG,AFSA22.JPG,AFSA23.JPG,,,,,,,,,,,,,,,,,,,,,0,9,9,8,,,AMSA06.jpg,AMSA03.jpg,AMNE17.jpg,AMNE01.jpg,AMSA03.jpg,MS,2,num_6,32,num_2,0.900150362577,,,2018_Mar_28_1832,60.0030022685,FEMA4ImagesEEG,001,203054,
,,,,,,,,,,,,,,,,,,,,,,,,,,,,,,,,,,,,,,,,,,,space,2.31669338426,2018_Mar_28_1832,60.0030022685,FEMA4ImagesEEG,001,203054,
AFNE01.JPG,AFNE01.JPG,AFNE01.JPG,AFNE01.JPG,AFNE01.JPG,AFNE01.JPG,0,0,0,7,,,,,,,,,,,,,,,,,,,,,,,AFSA01.jpg,AFSA07.jpg,AFNE09.jpg,AFNE10.jpg,AFNE10.jpg,FN,3,num_4,32,num_2,0.683483022323,,,2018_Mar_28_1832,60.0030022685,FEMA4ImagesEEG,001,203054,
AFNE01.JPG,AFNE01.JPG,AFNE01.JPG,AFNE01.JPG,AFNE01.JPG,AFNE01.JPG,0,1,1,6,,,,,,,,,,,,,,,,,,,,,,,AFSA04.jpg,AFNE02.jpg,AFNE16.jpg,AFSA15.jpg,AFNE02.jpg,FN,3,num_6,32,num_4,0.450189524796,,,2018_Mar_28_1832,60.0030022685,FEMA4ImagesEEG,001,203054,
AFNE01.JPG,AFNE01.JPG,AFNE01.JPG,AFNE01.JPG,AFNE01.JPG,AFNE01.JPG,0,2,2,3,,,,,,,,,,,,,,,,,,,,,,,AFSA10.jpg,AFSA13.jpg,AFNE04.jpg,AFNE03.jpg,AFSA10.jpg,FS,4,num_8,32,num_6,0.366845446697,,,2018_Mar_28_1832,60.0030022685,FEMA4ImagesEEG,001,203054,
AFNE01.JPG,AFNE01.JPG,AFNE01.JPG,AFNE01.JPG,AFNE01.JPG,AFNE01.JPG,0,3,3,9,,,,,,,,,,,,,,,,,,,,,,,AFSA07.jpg,AFNE08.jpg,AFSA11.jpg,AFNE16.jpg,AFSA11.jpg,FS,4,num_2,32,num_8,0.500192122767,,,2018_Mar_28_1832,60.0030022685,FEMA4ImagesEEG,001,203054,
AFNE01.JPG,AFNE01.JPG,AFNE01.JPG,AFNE01.JPG,AFNE01.JPG,AFNE01.JPG,0,4,4,5,,,,,,,,,,,,,,,,,,,,,,,AFSA14.jpg,AFNE20.jpg,AFSA18.jpg,AFNE16.jpg,AFNE16.jpg,FN,3,num_4,16,num_4,0.400202963792,,,2018_Mar_28_1832,60.0030022685,FEMA4ImagesEEG,001,203054,
AFNE01.JPG,AFNE01.JPG,AFNE01.JPG,AFNE01.JPG,AFNE01.JPG,AFNE01.JPG,0,5,5,8,,,,,,,,,,,,,,,,,,,,,,,AFNE17.jpg,AFSA16.jpg,AFSA06.jpg,AFNE12.jpg,AFSA06.jpg,FS,4,num_2,32,num_6,0.383544411743,,,2018_Mar_28_1832,60.0030022685,FEMA4ImagesEEG,001,203054,
AFNE01.JPG,AFNE01.JPG,AFNE01.JPG,AFNE01.JPG,AFNE01.JPG,AFNE01.JPG,0,6,6,1,,,,,,,,,,,,,,,,,,,,,,,AFSA07.jpg,AFSA08.jpg,AFNE06.jpg,AFNE19.jpg,AFSA07.jpg,FS,4,num_8,16,num_8,0.350159311143,,,2018_Mar_28_1832,60.0030022685,FEMA4ImagesEEG,001,203054,
AFNE01.JPG,AFNE01.JPG,AFNE01.JPG,AFNE01.JPG,AFNE01.JPG,AFNE01.JPG,0,7,7,2,,,,,,,,,,,,,,,,,,,,,,,AFNE16.jpg,AFNE04.jpg,AFSA03.jpg,AFSA17.jpg,AFNE04.jpg,FN,3,num_6,32,num_4,0.333489854063,,,2018_Mar_28_1832,60.0030022685,FEMA4ImagesEEG,001,203054,
AFNE01.JPG,AFNE01.JPG,AFNE01.JPG,AFNE01.JPG,AFNE01.JPG,AFNE01.JPG,0,8,8,4,,,,,,,,,,,,,,,,,,,,,,,AFSA09.jpg,AFNE07.jpg,AFSA20.jpg,AFNE20.jpg,AFSA20.jpg,FS,4,num_2,32,num_6,0.383511696418,,,2018_Mar_28_1832,60.0030022685,FEMA4ImagesEEG,001,203054,
AFNE01.JPG,AFNE01.JPG,AFNE01.JPG,AFNE01.JPG,AFNE01.JPG,AFNE01.JPG,0,9,9,0,,,,,,,,,,,,,,,,,,,,,,,AFSA09.jpg,AFNE08.jpg,AFNE04.jpg,AFSA06.jpg,AFSA09.jpg,FS,4,num_8,32,num_4,0.416629300511,,,2018_Mar_28_1832,60.0030022685,FEMA4ImagesEEG,001,203054,
AFNE01.JPG,AFNE01.JPG,AFNE01.JPG,AFNE01.JPG,AFNE01.JPG,AFNE01.JPG,1,0,10,8,,,,,,,,,,,,,,,,,,,,,,,AFSA12.jpg,AFNE11.jpg,AFNE09.jpg,AFSA07.jpg,AFNE09.jpg,FN,3,num_2,32,num_6,0.333516154671,,,2018_Mar_28_1832,60.0030022685,FEMA4ImagesEEG,001,203054,
AFNE01.JPG,AFNE01.JPG,AFNE01.JPG,AFNE01.JPG,AFNE01.JPG,AFNE01.JPG,1,1,11,9,,,,,,,,,,,,,,,,,,,,,,,AFSA05.jpg,AFSA20.jpg,AFNE03.jpg,AFNE19.jpg,AFNE19.jpg,FN,3,num_4,32,num_8,0.416870817193,,,2018_Mar_28_1832,60.0030022685,FEMA4ImagesEEG,001,203054,
AFNE01.JPG,AFNE01.JPG,AFNE01.JPG,AFNE01.JPG,AFNE01.JPG,AFNE01.JPG,1,2,12,6,,,,,,,,,,,,,,,,,,,,,,,AFNE11.jpg,AFSA10.jpg,AFSA07.jpg,AFNE16.jpg,AFSA10.jpg,FS,4,num_6,32,num_4,0.650123901549,,,2018_Mar_28_1832,60.0030022685,FEMA4ImagesEEG,001,203054,
AFNE01.JPG,AFNE01.JPG,AFNE01.JPG,AFNE01.JPG,AFNE01.JPG,AFNE01.JPG,1,3,13,5,,,,,,,,,,,,,,,,,,,,,,,AFSA12.jpg,AFSA03.jpg,AFNE15.jpg,AFNE02.jpg,AFSA03.jpg,FS,4,num_6,32,num_4,0.5668577631,,,2018_Mar_28_1832,60.0030022685,FEMA4ImagesEEG,001,203054,
AFNE01.JPG,AFNE01.JPG,AFNE01.JPG,AFNE01.JPG,AFNE01.JPG,AFNE01.JPG,1,4,14,4,,,,,,,,,,,,,,,,,,,,,,,AFNE13.jpg,AFSA18.jpg,AFNE10.jpg,AFSA15.jpg,AFNE10.jpg,FN,3,num_2,16,num_2,0.633487801359,,,2018_Mar_28_1832,60.0030022685,FEMA4ImagesEEG,001,203054,
AFNE01.JPG,AFNE01.JPG,AFNE01.JPG,AFNE01.JPG,AFNE01.JPG,AFNE01.JPG,1,5,15,0,,,,,,,,,,,,,,,,,,,,,,,AFNE15.jpg,AFSA10.jpg,AFNE13.jpg,AFSA20.jpg,AFNE13.jpg,FN,3,num_2,32,num_4,0.566789766366,,,2018_Mar_28_1832,60.0030022685,FEMA4ImagesEEG,001,203054,
AFNE01.JPG,AFNE01.JPG,AFNE01.JPG,AFNE01.JPG,AFNE01.JPG,AFNE01.JPG,1,6,16,2,,,,,,,,,,,,,,,,,,,,,,,AFNE14.jpg,AFSA07.jpg,AFNE17.jpg,AFSA05.jpg,AFNE17.jpg,FN,3,num_2,32,num_4,0.483517213084,,,2018_Mar_28_1832,60.0030022685,FEMA4ImagesEEG,001,203054,
AFNE01.JPG,AFNE01.JPG,AFNE01.JPG,AFNE01.JPG,AFNE01.JPG,AFNE01.JPG,1,7,17,3,,,,,,,,,,,,,,,,,,,,,,,AFSA05.jpg,AFNE10.jpg,AFNE19.jpg,AFSA11.jpg,AFSA05.jpg,FS,4,num_8,32,num_4,0.550163609092,,,2018_Mar_28_1832,60.0030022685,FEMA4ImagesEEG,001,203054,
AFNE01.JPG,AFNE01.JPG,AFNE01.JPG,AFNE01.JPG,AFNE01.JPG,AFNE01.JPG,1,8,18,7,,,,,,,,,,,,,,,,,,,,,,,AFNE12.jpg,AFSA03.jpg,AFSA16.jpg,AFNE01.jpg,AFNE12.jpg,FN,3,num_8,32,num_4,0.516809620138,,,2018_Mar_28_1832,60.0030022685,FEMA4ImagesEEG,001,203054,
AFNE01.JPG,AFNE01.JPG,AFNE01.JPG,AFNE01.JPG,AFNE01.JPG,AFNE01.JPG,1,9,19,1,,,,,,,,,,,,,,,,,,,,,,,AFNE16.jpg,AFSA03.jpg,AFNE19.jpg,AFSA18.jpg,AFSA03.jpg,FS,4,num_6,32,num_8,0.333574849938,,,2018_Mar_28_1832,60.0030022685,FEMA4ImagesEEG,001,203054,
AFNE01.JPG,AFNE01.JPG,AFNE01.JPG,AFNE01.JPG,AFNE01.JPG,AFNE01.JPG,2,0,20,4,,,,,,,,,,,,,,,,,,,,,,,AFSA20.jpg,AFSA07.jpg,AFNE18.jpg,AFNE17.jpg,AFNE18.jpg,FN,3,num_2,32,num_6,0.366701434774,,,2018_Mar_28_1832,60.0030022685,FEMA4ImagesEEG,001,203054,
AFNE01.JPG,AFNE01.JPG,AFNE01.JPG,AFNE01.JPG,AFNE01.JPG,AFNE01.JPG,2,1,21,2,,,,,,,,,,,,,,,,,,,,,,,AFSA02.jpg,AFSA01.jpg,AFNE19.jpg,AFNE10.jpg,AFSA02.jpg,FS,4,num_8,32,num_6,0.650150843663,,,2018_Mar_28_1832,60.0030022685,FEMA4ImagesEEG,001,203054,
AFNE01.JPG,AFNE01.JPG,AFNE01.JPG,AFNE01.JPG,AFNE01.JPG,AFNE01.JPG,2,2,22,7,,,,,,,,,,,,,,,,,,,,,,,AFSA18.jpg,AFSA19.jpg,AFNE04.jpg,AFNE16.jpg,AFNE16.jpg,FN,3,num_4,32,num_8,0.400154211442,,,2018_Mar_28_1832,60.0030022685,FEMA4ImagesEEG,001,203054,
AFNE01.JPG,AFNE01.JPG,AFNE01.JPG,AFNE01.JPG,AFNE01.JPG,AFNE01.JPG,2,3,23,0,,,,,,,,,,,,,,,,,,,,,,,AFNE10.jpg,AFSA18.jpg,AFSA02.jpg,AFNE06.jpg,AFSA18.jpg,FS,4,num_6,32,num_8,0.433521029889,,,2018_Mar_28_1832,60.0030022685,FEMA4ImagesEEG,001,203054,
AFNE01.JPG,AFNE01.JPG,AFNE01.JPG,AFNE01.JPG,AFNE01.JPG,AFNE01.JPG,2,4,24,3,,,,,,,,,,,,,,,,,,,,,,,AFNE04.jpg,AFSA20.jpg,AFSA06.jpg,AFNE13.jpg,AFNE13.jpg,FN,3,num_4,32,num_2,0.483533250052,,,2018_Mar_28_1832,60.0030022685,FEMA4ImagesEEG,001,203054,
AFNE01.JPG,AFNE01.JPG,AFNE01.JPG,AFNE01.JPG,AFNE01.JPG,AFNE01.JPG,2,5,25,8,,,,,,,,,,,,,,,,,,,,,,,AFNE13.jpg,AFSA08.jpg,AFNE04.jpg,AFSA12.jpg,AFSA08.jpg,FS,4,num_6,32,num_8,0.383484754304,,,2018_Mar_28_1832,60.0030022685,FEMA4ImagesEEG,001,203054,
AFNE01.JPG,AFNE01.JPG,AFNE01.JPG,AFNE01.JPG,AFNE01.JPG,AFNE01.JPG,2,6,26,5,,,,,,,,,,,,,,,,,,,,,,,AFNE02.jpg,AFSA06.jpg,AFNE15.jpg,AFSA10.jpg,AFNE15.jpg,FN,3,num_2,32,num_6,0.400205850427,,,2018_Mar_28_1832,60.0030022685,FEMA4ImagesEEG,001,203054,
AFNE01.JPG,AFNE01.JPG,AFNE01.JPG,AFNE01.JPG,AFNE01.JPG,AFNE01.JPG,2,7,27,9,,,,,,,,,,,,,,,,,,,,,,,AFSA06.jpg,AFSA13.jpg,AFNE19.jpg,AFNE16.jpg,AFNE19.jpg,FN,3,num_2,32,num_8,0.366677058628,,,2018_Mar_28_1832,60.0030022685,FEMA4ImagesEEG,001,203054,
AFNE01.JPG,AFNE01.JPG,AFNE01.JPG,AFNE01.JPG,AFNE01.JPG,AFNE01.JPG,2,8,28,6,,,,,,,,,,,,,,,,,,,,,,,AFSA03.jpg,AFNE09.jpg,AFSA19.jpg,AFNE05.jpg,AFSA03.jpg,FS,4,num_8,32,num_4,0.383546977711,,,2018_Mar_28_1832,60.0030022685,FEMA4ImagesEEG,001,203054,
AFNE01.JPG,AFNE01.JPG,AFNE01.JPG,AFNE01.JPG,AFNE01.JPG,AFNE01.JPG,2,9,29,1,,,,,,,,,,,,,,,,,,,,,,,AFSA18.jpg,AFNE11.jpg,AFSA10.jpg,AFNE20.jpg,AFSA10.jpg,FS,4,num_2,16,num_2,0.483515609405,,,2018_Mar_28_1832,60.0030022685,FEMA4ImagesEEG,001,203054,
AFNE01.JPG,AFNE01.JPG,AFNE01.JPG,AFNE01.JPG,AFNE01.JPG,AFNE01.JPG,3,0,30,0,,,,,,,,,,,,,,,,,,,,,,,AFNE18.jpg,AFNE05.jpg,AFSA18.jpg,AFSA13.jpg,AFNE18.jpg,FN,3,num_8,32,num_4,0.566674941743,,,2018_Mar_28_1832,60.0030022685,FEMA4ImagesEEG,001,203054,
AFNE01.JPG,AFNE01.JPG,AFNE01.JPG,AFNE01.JPG,AFNE01.JPG,AFNE01.JPG,3,1,31,4,,,,,,,,,,,,,,,,,,,,,,,AFNE14.jpg,AFSA08.jpg,AFSA16.jpg,AFNE11.jpg,AFNE14.jpg,FN,3,num_8,32,num_6,0.550116781145,,,2018_Mar_28_1832,60.0030022685,FEMA4ImagesEEG,001,203054,
AFNE01.JPG,AFNE01.JPG,AFNE01.JPG,AFNE01.JPG,AFNE01.JPG,AFNE01.JPG,3,2,32,5,,,,,,,,,,,,,,,,,,,,,,,AFSA15.jpg,AFNE19.jpg,AFSA01.jpg,AFNE15.jpg,AFNE15.jpg,FN,3,num_4,16,num_4,0.600153377454,,,2018_Mar_28_1832,60.0030022685,FEMA4ImagesEEG,001,203054,
AFNE01.JPG,AFNE01.JPG,AFNE01.JPG,AFNE01.JPG,AFNE01.JPG,AFNE01.JPG,3,3,33,1,,,,,,,,,,,,,,,,,,,,,,,AFSA14.jpg,AFNE20.jpg,AFSA16.jpg,AFNE19.jpg,AFSA16.jpg,FS,4,num_2,32,num_8,0.666803943051,,,2018_Mar_28_1832,60.0030022685,FEMA4ImagesEEG,001,203054,
AFNE01.JPG,AFNE01.JPG,AFNE01.JPG,AFNE01.JPG,AFNE01.JPG,AFNE01.JPG,3,4,34,6,,,,,,,,,,,,,,,,,,,,,,,AFSA15.jpg,AFSA19.jpg,AFNE01.jpg,AFNE16.jpg,AFNE16.jpg,FN,3,num_4,32,num_8,0.600156584871,,,2018_Mar_28_1832,60.0030022685,FEMA4ImagesEEG,001,203054,
AFNE01.JPG,AFNE01.JPG,AFNE01.JPG,AFNE01.JPG,AFNE01.JPG,AFNE01.JPG,3,5,35,2,,,,,,,,,,,,,,,,,,,,,,,AFSA18.jpg,AFNE14.jpg,AFNE12.jpg,AFSA16.jpg,AFSA18.jpg,FS,4,num_8,16,num_8,0.483516250912,,,2018_Mar_28_1832,60.0030022685,FEMA4ImagesEEG,001,203054,
AFNE01.JPG,AFNE01.JPG,AFNE01.JPG,AFNE01.JPG,AFNE01.JPG,AFNE01.JPG,3,6,36,3,,,,,,,,,,,,,,,,,,,,,,,AFSA06.jpg,AFNE18.jpg,AFNE12.jpg,AFSA10.jpg,AFSA10.jpg,FS,4,num_4,32,num_2,0.416828479618,,,2018_Mar_28_1832,60.0030022685,FEMA4ImagesEEG,001,203054,
AFNE01.JPG,AFNE01.JPG,AFNE01.JPG,AFNE01.JPG,AFNE01.JPG,AFNE01.JPG,3,7,37,7,,,,,,,,,,,,,,,,,,,,,,,AFNE18.jpg,AFNE11.jpg,AFSA07.jpg,AFSA05.jpg,AFSA07.jpg,FS,4,num_2,32,num_6,0.383505923091,,,2018_Mar_28_1832,60.0030022685,FEMA4ImagesEEG,001,203054,
AFNE01.JPG,AFNE01.JPG,AFNE01.JPG,AFNE01.JPG,AFNE01.JPG,AFNE01.JPG,3,8,38,9,,,,,,,,,,,,,,,,,,,,,,,AFSA19.jpg,AFNE04.jpg,AFNE08.jpg,AFSA06.jpg,AFSA06.jpg,FS,4,num_4,32,num_8,0.466840699781,,,2018_Mar_28_1832,60.0030022685,FEMA4ImagesEEG,001,203054,
AFNE01.JPG,AFNE01.JPG,AFNE01.JPG,AFNE01.JPG,AFNE01.JPG,AFNE01.JPG,3,9,39,8,,,,,,,,,,,,,,,,,,,,,,,AFSA06.jpg,AFNE19.jpg,AFSA17.jpg,AFNE16.jpg,AFNE19.jpg,FN,3,num_6,32,num_4,0.450211014308,,,2018_Mar_28_1832,60.0030022685,FEMA4ImagesEEG,001,203054,
AFNE01.JPG,AFNE01.JPG,AFNE01.JPG,AFNE01.JPG,AFNE01.JPG,AFNE01.JPG,4,0,40,4,,,,,,,,,,,,,,,,,,,,,,,AFNE13.jpg,AFSA04.jpg,AFSA17.jpg,AFNE05.jpg,AFNE05.jpg,FN,3,num_4,32,num_8,0.316876847064,,,2018_Mar_28_1832,60.0030022685,FEMA4ImagesEEG,001,203054,
AFNE01.JPG,AFNE01.JPG,AFNE01.JPG,AFNE01.JPG,AFNE01.JPG,AFNE01.JPG,4,1,41,9,,,,,,,,,,,,,,,,,,,,,,,AFNE18.jpg,AFNE03.jpg,AFSA16.jpg,AFSA14.jpg,AFSA16.jpg,FS,4,num_2,32,num_6,0.466794834007,,,2018_Mar_28_1832,60.0030022685,FEMA4ImagesEEG,001,203054,
AFNE01.JPG,AFNE01.JPG,AFNE01.JPG,AFNE01.JPG,AFNE01.JPG,AFNE01.JPG,4,2,42,0,,,,,,,,,,,,,,,,,,,,,,,AFNE03.jpg,AFSA01.jpg,AFNE04.jpg,AFSA09.jpg,AFNE04.jpg,FN,3,num_2,32,num_4,0.433599290263,,,2018_Mar_28_1832,60.0030022685,FEMA4ImagesEEG,001,203054,
AFNE01.JPG,AFNE01.JPG,AFNE01.JPG,AFNE01.JPG,AFNE01.JPG,AFNE01.JPG,4,3,43,5,,,,,,,,,,,,,,,,,,,,,,,AFNE13.jpg,AFNE03.jpg,AFSA08.jpg,AFSA20.jpg,AFNE03.jpg,FN,3,num_6,32,num_8,0.483521062008,,,2018_Mar_28_1832,60.0030022685,FEMA4ImagesEEG,001,203054,
AFNE01.JPG,AFNE01.JPG,AFNE01.JPG,AFNE01.JPG,AFNE01.JPG,AFNE01.JPG,4,4,44,7,,,,,,,,,,,,,,,,,,,,,,,AFNE05.jpg,AFSA01.jpg,AFSA12.jpg,AFNE01.jpg,AFNE01.jpg,FN,3,num_4,32,num_2,0.633544892888,,,2018_Mar_28_1832,60.0030022685,FEMA4ImagesEEG,001,203054,
AFNE01.JPG,AFNE01.JPG,AFNE01.JPG,AFNE01.JPG,AFNE01.JPG,AFNE01.JPG,4,5,45,3,,,,,,,,,,,,,,,,,,,,,,,AFSA04.jpg,AFSA11.jpg,AFNE19.jpg,AFNE14.jpg,AFNE19.jpg,FN,3,num_2,32,num_4,0.383532865206,,,2018_Mar_28_1832,60.0030022685,FEMA4ImagesEEG,001,203054,
AFNE01.JPG,AFNE01.JPG,AFNE01.JPG,AFNE01.JPG,AFNE01.JPG,AFNE01.JPG,4,6,46,2,,,,,,,,,,,,,,,,,,,,,,,AFNE15.jpg,AFNE05.jpg,AFSA11.jpg,AFSA04.jpg,AFNE05.jpg,FN,3,num_6,16,num_6,0.616790119151,,,2018_Mar_28_1832,60.0030022685,FEMA4ImagesEEG,001,203054,
AFNE01.JPG,AFNE01.JPG,AFNE01.JPG,AFNE01.JPG,AFNE01.JPG,AFNE01.JPG,4,7,47,1,,,,,,,,,,,,,,,,,,,,,,,AFSA07.jpg,AFSA15.jpg,AFNE06.jpg,AFNE18.jpg,AFNE06.jpg,FN,3,num_2,32,num_6,0.966535997519,,,2018_Mar_28_1832,60.0030022685,FEMA4ImagesEEG,001,203054,
AFNE01.JPG,AFNE01.JPG,AFNE01.JPG,AFNE01.JPG,AFNE01.JPG,AFNE01.JPG,4,8,48,6,,,,,,,,,,,,,,,,,,,,,,,AFNE17.jpg,AFSA07.jpg,AFSA19.jpg,AFNE16.jpg,AFNE17.jpg,FN,3,num_8,16,num_8,0.500162935525,,,2018_Mar_28_1832,60.0030022685,FEMA4ImagesEEG,001,203054,
AFNE01.JPG,AFNE01.JPG,AFNE01.JPG,AFNE01.JPG,AFNE01.JPG,AFNE01.JPG,4,9,49,8,,,,,,,,,,,,,,,,,,,,,,,AFNE02.jpg,AFNE12.jpg,AFSA11.jpg,AFSA08.jpg,AFSA08.jpg,FS,4,num_4,32,num_2,0.433487352275,,,2018_Mar_28_1832,60.0030022685,FEMA4ImagesEEG,001,203054,
AFNE01.JPG,AFNE01.JPG,AFNE01.JPG,AFNE01.JPG,AFNE01.JPG,AFNE01.JPG,5,0,50,6,,,,,,,,,,,,,,,,,,,,,,,AFNE01.jpg,AFNE13.jpg,AFSA11.jpg,AFSA09.jpg,AFNE13.jpg,FN,3,num_6,32,num_8,0.416829121066,,,2018_Mar_28_1832,60.0030022685,FEMA4ImagesEEG,001,203054,
AFNE01.JPG,AFNE01.JPG,AFNE01.JPG,AFNE01.JPG,AFNE01.JPG,AFNE01.JPG,5,1,51,9,,,,,,,,,,,,,,,,,,,,,,,AFSA12.jpg,AFNE03.jpg,AFNE02.jpg,AFSA02.jpg,AFNE03.jpg,FN,3,num_6,16,num_6,0.43350082339,,,2018_Mar_28_1832,60.0030022685,FEMA4ImagesEEG,001,203054,
AFNE01.JPG,AFNE01.JPG,AFNE01.JPG,AFNE01.JPG,AFNE01.JPG,AFNE01.JPG,5,2,52,8,,,,,,,,,,,,,,,,,,,,,,,AFNE16.jpg,AFNE18.jpg,AFSA05.jpg,AFSA12.jpg,AFNE18.jpg,FN,3,num_6,32,num_4,0.833484080795,,,2018_Mar_28_1832,60.0030022685,FEMA4ImagesEEG,001,203054,
AFNE01.JPG,AFNE01.JPG,AFNE01.JPG,AFNE01.JPG,AFNE01.JPG,AFNE01.JPG,5,3,53,2,,,,,,,,,,,,,,,,,,,,,,,AFSA09.jpg,AFSA14.jpg,AFNE15.jpg,AFNE07.jpg,AFNE15.jpg,FN,3,num_2,32,num_8,0.466870528529,,,2018_Mar_28_1832,60.0030022685,FEMA4ImagesEEG,001,203054,
AFNE01.JPG,AFNE01.JPG,AFNE01.JPG,AFNE01.JPG,AFNE01.JPG,AFNE01.JPG,5,4,54,5,,,,,,,,,,,,,,,,,,,,,,,AFSA17.jpg,AFSA06.jpg,AFNE12.jpg,AFNE04.jpg,AFNE12.jpg,FN,3,num_2,32,num_6,1.1833152757,,,2018_Mar_28_1832,60.0030022685,FEMA4ImagesEEG,001,203054,
AFNE01.JPG,AFNE01.JPG,AFNE01.JPG,AFNE01.JPG,AFNE01.JPG,AFNE01.JPG,5,5,55,3,,,,,,,,,,,,,,,,,,,,,,,AFNE12.jpg,AFSA20.jpg,AFNE11.jpg,AFSA13.jpg,AFNE11.jpg,FN,3,num_2,16,num_2,0.716776070767,,,2018_Mar_28_1832,60.0030022685,FEMA4ImagesEEG,001,203054,
AFNE01.JPG,AFNE01.JPG,AFNE01.JPG,AFNE01.JPG,AFNE01.JPG,AFNE01.JPG,5,6,56,1,,,,,,,,,,,,,,,,,,,,,,,AFSA18.jpg,AFNE15.jpg,AFNE16.jpg,AFSA14.jpg,AFNE16.jpg,FN,3,num_2,32,num_4,0.683560320467,,,2018_Mar_28_1832,60.0030022685,FEMA4ImagesEEG,001,203054,
AFNE01.JPG,AFNE01.JPG,AFNE01.JPG,AFNE01.JPG,AFNE01.JPG,AFNE01.JPG,5,7,57,0,,,,,,,,,,,,,,,,,,,,,,,AFSA05.jpg,AFNE20.jpg,AFNE09.jpg,AFSA17.jpg,AFSA17.jpg,FS,4,num_4,32,num_8,0.433513973607,,,2018_Mar_28_1832,60.0030022685,FEMA4ImagesEEG,001,203054,
AFNE01.JPG,AFNE01.JPG,AFNE01.JPG,AFNE01.JPG,AFNE01.JPG,AFNE01.JPG,5,8,58,4,,,,,,,,,,,,,,,,,,,,,,,AFSA19.jpg,AFSA08.jpg,AFNE05.jpg,AFNE10.jpg,AFSA08.jpg,FS,4,num_6,32,num_2,0.516809299414,,,2018_Mar_28_1832,60.0030022685,FEMA4ImagesEEG,001,203054,
AFNE01.JPG,AFNE01.JPG,AFNE01.JPG,AFNE01.JPG,AFNE01.JPG,AFNE01.JPG,5,9,59,7,,,,,,,,,,,,,,,,,,,,,,,AFSA18.jpg,AFSA17.jpg,AFNE10.jpg,AFNE07.jpg,AFSA18.jpg,FS,4,num_8,32,num_6,0.649866989464,,,2018_Mar_28_1832,60.0030022685,FEMA4ImagesEEG,001,203054,
,,,,,,,,,,,,,,,,,,,,,,,,,,,,,,,,,,,,,,,,,,,space,9.54940377793,2018_Mar_28_1832,60.0030022685,FEMA4ImagesEEG,001,203054,
AFNE01.JPG,AFNE01.JPG,AFNE01.JPG,AFNE01.JPG,AFNE01.JPG,AFNE01.JPG,,,,,0,0,0,9,,,,,,,,,,,,,,,,,,,AMSA20.jpg,AMNE17.jpg,AMSA11.jpg,AMNE02.jpg,AMNE02.jpg,MN,1,num_4,32,num_8,0.633464066603,,,2018_Mar_28_1832,60.0030022685,FEMA4ImagesEEG,001,203054,
AFNE01.JPG,AFNE01.JPG,AFNE01.JPG,AFNE01.JPG,AFNE01.JPG,AFNE01.JPG,,,,,0,1,1,6,,,,,,,,,,,,,,,,,,,AMSA01.jpg,AMNE08.jpg,AMNE09.jpg,AMSA17.jpg,AMNE08.jpg,MN,1,num_6,32,num_4,0.950126980606,,,2018_Mar_28_1832,60.0030022685,FEMA4ImagesEEG,001,203054,
AFNE01.JPG,AFNE01.JPG,AFNE01.JPG,AFNE01.JPG,AFNE01.JPG,AFNE01.JPG,,,,,0,2,2,7,,,,,,,,,,,,,,,,,,,AMNE15.jpg,AMSA06.jpg,AMSA17.jpg,AMNE08.jpg,AMNE08.jpg,MN,1,num_4,32,num_6,0.516834317008,,,2018_Mar_28_1832,60.0030022685,FEMA4ImagesEEG,001,203054,
AFNE01.JPG,AFNE01.JPG,AFNE01.JPG,AFNE01.JPG,AFNE01.JPG,AFNE01.JPG,,,,,0,3,3,8,,,,,,,,,,,,,,,,,,,AMSA17.jpg,AMSA06.jpg,AMNE09.jpg,AMNE17.jpg,AMSA17.jpg,MS,2,num_8,16,num_8,0.616791402164,,,2018_Mar_28_1832,60.0030022685,FEMA4ImagesEEG,001,203054,
AFNE01.JPG,AFNE01.JPG,AFNE01.JPG,AFNE01.JPG,AFNE01.JPG,AFNE01.JPG,,,,,0,4,4,2,,,,,,,,,,,,,,,,,,,AMNE15.jpg,AMNE03.jpg,AMSA03.jpg,AMSA10.jpg,AMNE15.jpg,MN,1,num_8,16,num_8,0.983501496899,,,2018_Mar_28_1832,60.0030022685,FEMA4ImagesEEG,001,203054,
AFNE01.JPG,AFNE01.JPG,AFNE01.JPG,AFNE01.JPG,AFNE01.JPG,AFNE01.JPG,,,,,0,5,5,4,,,,,,,,,,,,,,,,,,,AMSA02.jpg,AMNE04.jpg,AMSA17.jpg,AMNE19.jpg,AMSA17.jpg,MS,2,num_2,32,num_4,0.733492676518,,,2018_Mar_28_1832,60.0030022685,FEMA4ImagesEEG,001,203054,
AFNE01.JPG,AFNE01.JPG,AFNE01.JPG,AFNE01.JPG,AFNE01.JPG,AFNE01.JPG,,,,,0,6,6,5,,,,,,,,,,,,,,,,,,,AMSA08.jpg,AMSA15.jpg,AMNE17.jpg,AMNE14.jpg,AMSA15.jpg,MS,2,num_6,32,num_8,0.866824919358,,,2018_Mar_28_1832,60.0030022685,FEMA4ImagesEEG,001,203054,
AFNE01.JPG,AFNE01.JPG,AFNE01.JPG,AFNE01.JPG,AFNE01.JPG,AFNE01.JPG,,,,,0,7,7,1,,,,,,,,,,,,,,,,,,,AMSA12.jpg,AMSA06.jpg,AMNE19.jpg,AMNE07.jpg,AMSA06.jpg,MS,2,num_6,32,num_4,0.950177657418,,,2018_Mar_28_1832,60.0030022685,FEMA4ImagesEEG,001,203054,
AFNE01.JPG,AFNE01.JPG,AFNE01.JPG,AFNE01.JPG,AFNE01.JPG,AFNE01.JPG,,,,,0,8,8,0,,,,,,,,,,,,,,,,,,,AMNE19.jpg,AMNE14.jpg,AMSA07.jpg,AMSA09.jpg,AMNE14.jpg,MN,1,num_6,32,num_4,0.616833418957,,,2018_Mar_28_1832,60.0030022685,FEMA4ImagesEEG,001,203054,
AFNE01.JPG,AFNE01.JPG,AFNE01.JPG,AFNE01.JPG,AFNE01.JPG,AFNE01.JPG,,,,,0,9,9,3,,,,,,,,,,,,,,,,,,,AMSA04.jpg,AMNE17.jpg,AMSA13.jpg,AMNE14.jpg,AMNE17.jpg,MN,1,num_6,32,num_4,0.566811255878,,,2018_Mar_28_1832,60.0030022685,FEMA4ImagesEEG,001,203054,
AFNE01.JPG,AFNE01.JPG,AFNE01.JPG,AFNE01.JPG,AFNE01.JPG,AFNE01.JPG,,,,,1,0,10,9,,,,,,,,,,,,,,,,,,,AMSA02.jpg,AMSA07.jpg,AMNE14.jpg,AMNE03.jpg,AMNE03.jpg,MN,1,num_4,32,num_2,0.66685077094,,,2018_Mar_28_1832,60.0030022685,FEMA4ImagesEEG,001,203054,
AFNE01.JPG,AFNE01.JPG,AFNE01.JPG,AFNE01.JPG,AFNE01.JPG,AFNE01.JPG,,,,,1,1,11,5,,,,,,,,,,,,,,,,,,,AMSA08.jpg,AMSA16.jpg,AMNE14.jpg,AMNE04.jpg,AMSA16.jpg,MS,2,num_6,32,num_4,0.63351185678,,,2018_Mar_28_1832,60.0030022685,FEMA4ImagesEEG,001,203054,
AFNE01.JPG,AFNE01.JPG,AFNE01.JPG,AFNE01.JPG,AFNE01.JPG,AFNE01.JPG,,,,,1,2,12,8,,,,,,,,,,,,,,,,,,,AMNE03.jpg,AMSA05.jpg,AMNE10.jpg,AMSA09.jpg,AMNE03.jpg,MN,1,num_8,32,num_4,0.683461532812,,,2018_Mar_28_1832,60.0030022685,FEMA4ImagesEEG,001,203054,
AFNE01.JPG,AFNE01.JPG,AFNE01.JPG,AFNE01.JPG,AFNE01.JPG,AFNE01.JPG,,,,,1,3,13,3,,,,,,,,,,,,,,,,,,,AMSA13.jpg,AMNE01.jpg,AMSA11.jpg,AMNE12.jpg,AMSA11.jpg,MS,2,num_2,32,num_4,1.44991850015,,,2018_Mar_28_1832,60.0030022685,FEMA4ImagesEEG,001,203054,
AFNE01.JPG,AFNE01.JPG,AFNE01.JPG,AFNE01.JPG,AFNE01.JPG,AFNE01.JPG,,,,,1,4,14,6,,,,,,,,,,,,,,,,,,,AMSA20.jpg,AMNE03.jpg,AMNE07.jpg,AMSA12.jpg,AMNE03.jpg,MN,1,num_6,32,num_8,0.83349979698,,,2018_Mar_28_1832,60.0030022685,FEMA4ImagesEEG,001,203054,
AFNE01.JPG,AFNE01.JPG,AFNE01.JPG,AFNE01.JPG,AFNE01.JPG,AFNE01.JPG,,,,,1,5,15,7,,,,,,,,,,,,,,,,,,,AMNE15.jpg,AMSA05.jpg,AMSA17.jpg,AMNE13.jpg,AMNE15.jpg,MN,1,num_8,16,num_8,0.833504608017,,,2018_Mar_28_1832,60.0030022685,FEMA4ImagesEEG,001,203054,
AFNE01.JPG,AFNE01.JPG,AFNE01.JPG,AFNE01.JPG,AFNE01.JPG,AFNE01.JPG,,,,,1,6,16,1,,,,,,,,,,,,,,,,,,,AMNE18.jpg,AMNE09.jpg,AMSA20.jpg,AMSA11.jpg,AMSA11.jpg,MS,2,num_4,16,num_4,0.766813629365,,,2018_Mar_28_1832,60.0030022685,FEMA4ImagesEEG,001,203054,
AFNE01.JPG,AFNE01.JPG,AFNE01.JPG,AFNE01.JPG,AFNE01.JPG,AFNE01.JPG,,,,,1,7,17,0,,,,,,,,,,,,,,,,,,,AMNE17.jpg,AMNE13.jpg,AMSA05.jpg,AMSA18.jpg,AMSA18.jpg,MS,2,num_4,32,num_8,0.866645946924,,,2018_Mar_28_1832,60.0030022685,FEMA4ImagesEEG,001,203054,
AFNE01.JPG,AFNE01.JPG,AFNE01.JPG,AFNE01.JPG,AFNE01.JPG,AFNE01.JPG,,,,,1,8,18,4,,,,,,,,,,,,,,,,,,,AMNE15.jpg,AMNE20.jpg,AMSA06.jpg,AMSA05.jpg,AMNE20.jpg,MN,1,num_6,32,num_8,1.06679393596,,,2018_Mar_28_1832,60.0030022685,FEMA4ImagesEEG,001,203054,
AFNE01.JPG,AFNE01.JPG,AFNE01.JPG,AFNE01.JPG,AFNE01.JPG,AFNE01.JPG,,,,,1,9,19,2,,,,,,,,,,,,,,,,,,,AMSA05.jpg,AMNE01.jpg,AMSA09.jpg,AMNE08.jpg,AMSA09.jpg,MS,2,num_2,32,num_4,0.783489501278,,,2018_Mar_28_1832,60.0030022685,FEMA4ImagesEEG,001,203054,
AFNE01.JPG,AFNE01.JPG,AFNE01.JPG,AFNE01.JPG,AFNE01.JPG,AFNE01.JPG,,,,,2,0,20,5,,,,,,,,,,,,,,,,,,,AMSA09.jpg,AMNE14.jpg,AMNE05.jpg,AMSA17.jpg,AMSA09.jpg,MS,2,num_8,32,num_4,0.600147604127,,,2018_Mar_28_1832,60.0030022685,FEMA4ImagesEEG,001,203054,
AFNE01.JPG,AFNE01.JPG,AFNE01.JPG,AFNE01.JPG,AFNE01.JPG,AFNE01.JPG,,,,,2,1,21,2,,,,,,,,,,,,,,,,,,,AMNE12.jpg,AMSA20.jpg,AMNE03.jpg,AMSA13.jpg,AMNE12.jpg,MN,1,num_8,16,num_8,0.883445303363,,,2018_Mar_28_1832,60.0030022685,FEMA4ImagesEEG,001,203054,
AFNE01.JPG,AFNE01.JPG,AFNE01.JPG,AFNE01.JPG,AFNE01.JPG,AFNE01.JPG,,,,,2,2,22,4,,,,,,,,,,,,,,,,,,,AMNE08.jpg,AMSA20.jpg,AMSA07.jpg,AMNE06.jpg,AMSA20.jpg,MS,2,num_6,32,num_2,0.90020777483,,,2018_Mar_28_1832,60.0030022685,FEMA4ImagesEEG,001,203054,
AFNE01.JPG,AFNE01.JPG,AFNE01.JPG,AFNE01.JPG,AFNE01.JPG,AFNE01.JPG,,,,,2,3,23,6,,,,,,,,,,,,,,,,,,,AMSA11.jpg,AMNE01.jpg,AMSA19.jpg,AMNE03.jpg,AMNE03.jpg,MN,1,num_4,32,num_8,0.700097633002,,,2018_Mar_28_1832,60.0030022685,FEMA4ImagesEEG,001,203054,
AFNE01.JPG,AFNE01.JPG,AFNE01.JPG,AFNE01.JPG,AFNE01.JPG,AFNE01.JPG,,,,,2,4,24,0,,,,,,,,,,,,,,,,,,,AMSA18.jpg,AMSA17.jpg,AMNE18.jpg,AMNE13.jpg,AMSA18.jpg,MS,2,num_8,32,num_4,1.55006834952,,,2018_Mar_28_1832,60.0030022685,FEMA4ImagesEEG,001,203054,
AFNE01.JPG,AFNE01.JPG,AFNE01.JPG,AFNE01.JPG,AFNE01.JPG,AFNE01.JPG,,,,,2,5,25,9,,,,,,,,,,,,,,,,,,,AMNE06.jpg,AMNE02.jpg,AMSA15.jpg,AMSA14.jpg,AMNE06.jpg,MN,1,num_8,16,num_8,0.716644567729,,,2018_Mar_28_1832,60.0030022685,FEMA4ImagesEEG,001,203054,
AFNE01.JPG,AFNE01.JPG,AFNE01.JPG,AFNE01.JPG,AFNE01.JPG,AFNE01.JPG,,,,,2,6,26,3,,,,,,,,,,,,,,,,,,,AMNE07.jpg,AMSA07.jpg,AMSA14.jpg,AMNE06.jpg,AMSA14.jpg,MS,2,num_2,32,num_8,0.950108377787,,,2018_Mar_28_1832,60.0030022685,FEMA4ImagesEEG,001,203054,
AFNE01.JPG,AFNE01.JPG,AFNE01.JPG,AFNE01.JPG,AFNE01.JPG,AFNE01.JPG,,,,,2,7,27,7,,,,,,,,,,,,,,,,,,,AMSA06.jpg,AMNE12.jpg,AMSA14.jpg,AMNE02.jpg,AMSA14.jpg,MS,2,num_2,16,num_2,0.633528535196,,,2018_Mar_28_1832,60.0030022685,FEMA4ImagesEEG,001,203054,
AFNE01.JPG,AFNE01.JPG,AFNE01.JPG,AFNE01.JPG,AFNE01.JPG,AFNE01.JPG,,,,,2,8,28,8,,,,,,,,,,,,,,,,,,,AMNE14.jpg,AMSA19.jpg,AMNE05.jpg,AMSA03.jpg,AMNE05.jpg,MN,1,num_2,32,num_4,1.06676988053,,,2018_Mar_28_1832,60.0030022685,FEMA4ImagesEEG,001,203054,
AFNE01.JPG,AFNE01.JPG,AFNE01.JPG,AFNE01.JPG,AFNE01.JPG,AFNE01.JPG,,,,,2,9,29,1,,,,,,,,,,,,,,,,,,,AMSA16.jpg,AMSA08.jpg,AMNE16.jpg,AMNE08.jpg,AMNE08.jpg,MN,1,num_4,32,num_6,1.10013669904,,,2018_Mar_28_1832,60.0030022685,FEMA4ImagesEEG,001,203054,
AFNE01.JPG,AFNE01.JPG,AFNE01.JPG,AFNE01.JPG,AFNE01.JPG,AFNE01.JPG,,,,,3,0,30,1,,,,,,,,,,,,,,,,,,,AMSA07.jpg,AMNE04.jpg,AMSA19.jpg,AMNE20.jpg,AMSA19.jpg,MS,2,num_2,32,num_8,0.650210180436,,,2018_Mar_28_1832,60.0030022685,FEMA4ImagesEEG,001,203054,
AFNE01.JPG,AFNE01.JPG,AFNE01.JPG,AFNE01.JPG,AFNE01.JPG,AFNE01.JPG,,,,,3,1,31,0,,,,,,,,,,,,,,,,,,,AMNE06.jpg,AMSA14.jpg,AMSA15.jpg,AMNE08.jpg,AMNE08.jpg,MN,1,num_4,16,num_4,0.600167810742,,,2018_Mar_28_1832,60.0030022685,FEMA4ImagesEEG,001,203054,
AFNE01.JPG,AFNE01.JPG,AFNE01.JPG,AFNE01.JPG,AFNE01.JPG,AFNE01.JPG,,,,,3,2,32,3,,,,,,,,,,,,,,,,,,,AMSA09.jpg,AMNE11.jpg,AMNE04.jpg,AMSA18.jpg,AMNE11.jpg,MN,1,num_6,32,num_2,0.666910107713,,,2018_Mar_28_1832,60.0030022685,FEMA4ImagesEEG,001,203054,
AFNE01.JPG,AFNE01.JPG,AFNE01.JPG,AFNE01.JPG,AFNE01.JPG,AFNE01.JPG,,,,,3,3,33,5,,,,,,,,,,,,,,,,,,,AMSA18.jpg,AMNE13.jpg,AMSA14.jpg,AMNE08.jpg,AMNE08.jpg,MN,1,num_4,32,num_8,0.816770361678,,,2018_Mar_28_1832,60.0030022685,FEMA4ImagesEEG,001,203054,
AFNE01.JPG,AFNE01.JPG,AFNE01.JPG,AFNE01.JPG,AFNE01.JPG,AFNE01.JPG,,,,,3,4,34,4,,,,,,,,,,,,,,,,,,,AMNE20.jpg,AMNE16.jpg,AMSA11.jpg,AMSA08.jpg,AMNE20.jpg,MN,1,num_8,32,num_4,0.666816772602,,,2018_Mar_28_1832,60.0030022685,FEMA4ImagesEEG,001,203054,
AFNE01.JPG,AFNE01.JPG,AFNE01.JPG,AFNE01.JPG,AFNE01.JPG,AFNE01.JPG,,,,,3,5,35,2,,,,,,,,,,,,,,,,,,,AMNE18.jpg,AMSA16.jpg,AMNE03.jpg,AMSA07.jpg,AMSA16.jpg,MS,2,num_6,16,num_6,0.933533217991,,,2018_Mar_28_1832,60.0030022685,FEMA4ImagesEEG,001,203054,
AFNE01.JPG,AFNE01.JPG,AFNE01.JPG,AFNE01.JPG,AFNE01.JPG,AFNE01.JPG,,,,,3,6,36,6,,,,,,,,,,,,,,,,,,,AMNE20.jpg,AMNE06.jpg,AMSA20.jpg,AMSA15.jpg,AMNE20.jpg,MN,1,num_8,32,num_4,0.883490206848,,,2018_Mar_28_1832,60.0030022685,FEMA4ImagesEEG,001,203054,
AFNE01.JPG,AFNE01.JPG,AFNE01.JPG,AFNE01.JPG,AFNE01.JPG,AFNE01.JPG,,,,,3,7,37,9,,,,,,,,,,,,,,,,,,,AMSA13.jpg,AMNE20.jpg,AMNE15.jpg,AMSA02.jpg,AMSA02.jpg,MS,2,num_4,32,num_8,0.600145038217,,,2018_Mar_28_1832,60.0030022685,FEMA4ImagesEEG,001,203054,
AFNE01.JPG,AFNE01.JPG,AFNE01.JPG,AFNE01.JPG,AFNE01.JPG,AFNE01.JPG,,,,,3,8,38,8,,,,,,,,,,,,,,,,,,,AMSA09.jpg,AMSA19.jpg,AMNE17.jpg,AMNE15.jpg,AMSA19.jpg,MS,2,num_6,32,num_4,0.734105609125,,,2018_Mar_28_1832,60.0030022685,FEMA4ImagesEEG,001,203054,
AFNE01.JPG,AFNE01.JPG,AFNE01.JPG,AFNE01.JPG,AFNE01.JPG,AFNE01.JPG,,,,,3,9,39,7,,,,,,,,,,,,,,,,,,,AMSA19.jpg,AMNE01.jpg,AMSA18.jpg,AMNE14.jpg,AMNE14.jpg,MN,1,num_4,32,num_8,0.566785917501,,,2018_Mar_28_1832,60.0030022685,FEMA4ImagesEEG,001,203054,
AFNE01.JPG,AFNE01.JPG,AFNE01.JPG,AFNE01.JPG,AFNE01.JPG,AFNE01.JPG,,,,,4,0,40,5,,,,,,,,,,,,,,,,,,,AMNE18.jpg,AMSA02.jpg,AMSA11.jpg,AMNE12.jpg,AMNE18.jpg,MN,1,num_8,32,num_4,0.733479205519,,,2018_Mar_28_1832,60.0030022685,FEMA4ImagesEEG,001,203054,
AFNE01.JPG,AFNE01.JPG,AFNE01.JPG,AFNE01.JPG,AFNE01.JPG,AFNE01.JPG,,,,,4,1,41,0,,,,,,,,,,,,,,,,,,,AMNE01.jpg,AMSA14.jpg,AMNE18.jpg,AMSA06.jpg,AMSA06.jpg,MS,2,num_4,16,num_4,0.750182340271,,,2018_Mar_28_1832,60.0030022685,FEMA4ImagesEEG,001,203054,
AFNE01.JPG,AFNE01.JPG,AFNE01.JPG,AFNE01.JPG,AFNE01.JPG,AFNE01.JPG,,,,,4,2,42,2,,,,,,,,,,,,,,,,,,,AMSA04.jpg,AMNE10.jpg,AMSA09.jpg,AMNE19.jpg,AMNE10.jpg,MN,1,num_6,32,num_4,0.650200558186,,,2018_Mar_28_1832,60.0030022685,FEMA4ImagesEEG,001,203054,
AFNE01.JPG,AFNE01.JPG,AFNE01.JPG,AFNE01.JPG,AFNE01.JPG,AFNE01.JPG,,,,,4,3,43,8,,,,,,,,,,,,,,,,,,,AMNE06.jpg,AMNE07.jpg,AMSA04.jpg,AMSA08.jpg,AMNE06.jpg,MN,1,num_8,32,num_4,0.749841073761,,,2018_Mar_28_1832,60.0030022685,FEMA4ImagesEEG,001,203054,
AFNE01.JPG,AFNE01.JPG,AFNE01.JPG,AFNE01.JPG,AFNE01.JPG,AFNE01.JPG,,,,,4,4,44,1,,,,,,,,,,,,,,,,,,,AMSA07.jpg,AMSA01.jpg,AMNE03.jpg,AMNE10.jpg,AMSA01.jpg,MS,2,num_6,32,num_4,0.583514069847,,,2018_Mar_28_1832,60.0030022685,FEMA4ImagesEEG,001,203054,
AFNE01.JPG,AFNE01.JPG,AFNE01.JPG,AFNE01.JPG,AFNE01.JPG,AFNE01.JPG,,,,,4,5,45,4,,,,,,,,,,,,,,,,,,,AMSA20.jpg,AMSA08.jpg,AMNE06.jpg,AMNE04.jpg,AMNE04.jpg,MN,1,num_4,16,num_4,0.616883133538,,,2018_Mar_28_1832,60.0030022685,FEMA4ImagesEEG,001,203054,
AFNE01.JPG,AFNE01.JPG,AFNE01.JPG,AFNE01.JPG,AFNE01.JPG,AFNE01.JPG,,,,,4,6,46,7,,,,,,,,,,,,,,,,,,,AMSA12.jpg,AMNE08.jpg,AMSA20.jpg,AMNE20.jpg,AMSA12.jpg,MS,2,num_8,16,num_8,0.733478564071,,,2018_Mar_28_1832,60.0030022685,FEMA4ImagesEEG,001,203054,
AFNE01.JPG,AFNE01.JPG,AFNE01.JPG,AFNE01.JPG,AFNE01.JPG,AFNE01.JPG,,,,,4,7,47,3,,,,,,,,,,,,,,,,,,,AMNE20.jpg,AMSA20.jpg,AMSA11.jpg,AMNE16.jpg,AMSA11.jpg,MS,2,num_2,32,num_6,0.41685510095,,,2018_Mar_28_1832,60.0030022685,FEMA4ImagesEEG,001,203054,
AFNE01.JPG,AFNE01.JPG,AFNE01.JPG,AFNE01.JPG,AFNE01.JPG,AFNE01.JPG,,,,,4,8,48,6,,,,,,,,,,,,,,,,,,,AMNE18.jpg,AMNE17.jpg,AMSA09.jpg,AMSA20.jpg,AMNE17.jpg,MN,1,num_6,32,num_4,0.966800928058,,,2018_Mar_28_1832,60.0030022685,FEMA4ImagesEEG,001,203054,
AFNE01.JPG,AFNE01.JPG,AFNE01.JPG,AFNE01.JPG,AFNE01.JPG,AFNE01.JPG,,,,,4,9,49,9,,,,,,,,,,,,,,,,,,,AMSA02.jpg,AMNE01.jpg,AMNE11.jpg,AMSA16.jpg,AMNE01.jpg,MN,1,num_6,32,num_4,0.71687389625,,,2018_Mar_28_1832,60.0030022685,FEMA4ImagesEEG,001,203054,
AFNE01.JPG,AFNE01.JPG,AFNE01.JPG,AFNE01.JPG,AFNE01.JPG,AFNE01.JPG,,,,,5,0,50,1,,,,,,,,,,,,,,,,,,,AMNE05.jpg,AMSA05.jpg,AMSA17.jpg,AMNE11.jpg,AMSA17.jpg,MS,2,num_2,32,num_8,0.666794641584,,,2018_Mar_28_1832,60.0030022685,FEMA4ImagesEEG,001,203054,
AFNE01.JPG,AFNE01.JPG,AFNE01.JPG,AFNE01.JPG,AFNE01.JPG,AFNE01.JPG,,,,,5,1,51,0,,,,,,,,,,,,,,,,,,,AMNE06.jpg,AMSA09.jpg,AMNE08.jpg,AMSA20.jpg,AMNE06.jpg,MN,1,num_8,16,num_8,0.566854234959,,,2018_Mar_28_1832,60.0030022685,FEMA4ImagesEEG,001,203054,
AFNE01.JPG,AFNE01.JPG,AFNE01.JPG,AFNE01.JPG,AFNE01.JPG,AFNE01.JPG,,,,,5,2,52,2,,,,,,,,,,,,,,,,,,,AMNE12.jpg,AMSA08.jpg,AMNE10.jpg,AMSA15.jpg,AMNE10.jpg,MN,1,num_2,32,num_8,0.850098691415,,,2018_Mar_28_1832,60.0030022685,FEMA4ImagesEEG,001,203054,
AFNE01.JPG,AFNE01.JPG,AFNE01.JPG,AFNE01.JPG,AFNE01.JPG,AFNE01.JPG,,,,,5,3,53,4,,,,,,,,,,,,,,,,,,,AMNE11.jpg,AMSA05.jpg,AMSA07.jpg,AMNE14.jpg,AMNE14.jpg,MN,1,num_4,32,num_8,0.666806508962,,,2018_Mar_28_1832,60.0030022685,FEMA4ImagesEEG,001,203054,
AFNE01.JPG,AFNE01.JPG,AFNE01.JPG,AFNE01.JPG,AFNE01.JPG,AFNE01.JPG,,,,,5,4,54,5,,,,,,,,,,,,,,,,,,,AMSA17.jpg,AMNE18.jpg,AMSA05.jpg,AMNE09.jpg,AMNE18.jpg,MN,1,num_6,32,num_4,0.716787617421,,,2018_Mar_28_1832,60.0030022685,FEMA4ImagesEEG,001,203054,
AFNE01.JPG,AFNE01.JPG,AFNE01.JPG,AFNE01.JPG,AFNE01.JPG,AFNE01.JPG,,,,,5,5,55,9,,,,,,,,,,,,,,,,,,,AMNE04.jpg,AMSA02.jpg,AMNE20.jpg,AMSA13.jpg,AMNE04.jpg,MN,1,num_8,32,num_4,0.716790824838,,,2018_Mar_28_1832,60.0030022685,FEMA4ImagesEEG,001,203054,
AFNE01.JPG,AFNE01.JPG,AFNE01.JPG,AFNE01.JPG,AFNE01.JPG,AFNE01.JPG,,,,,5,6,56,6,,,,,,,,,,,,,,,,,,,AMSA10.jpg,AMNE17.jpg,AMNE10.jpg,AMSA19.jpg,AMNE10.jpg,MN,1,num_2,32,num_6,0.666791113501,,,2018_Mar_28_1832,60.0030022685,FEMA4ImagesEEG,001,203054,
AFNE01.JPG,AFNE01.JPG,AFNE01.JPG,AFNE01.JPG,AFNE01.JPG,AFNE01.JPG,,,,,5,7,57,7,,,,,,,,,,,,,,,,,,,AMNE19.jpg,AMSA12.jpg,AMSA11.jpg,AMNE11.jpg,AMSA11.jpg,MS,2,num_2,32,num_4,0.616830853047,,,2018_Mar_28_1832,60.0030022685,FEMA4ImagesEEG,001,203054,
AFNE01.JPG,AFNE01.JPG,AFNE01.JPG,AFNE01.JPG,AFNE01.JPG,AFNE01.JPG,,,,,5,8,58,3,,,,,,,,,,,,,,,,,,,AMNE20.jpg,AMSA12.jpg,AMSA06.jpg,AMNE13.jpg,AMNE20.jpg,MN,1,num_8,16,num_8,0.600161395967,,,2018_Mar_28_1832,60.0030022685,FEMA4ImagesEEG,001,203054,
AFNE01.JPG,AFNE01.JPG,AFNE01.JPG,AFNE01.JPG,AFNE01.JPG,AFNE01.JPG,,,,,5,9,59,8,,,,,,,,,,,,,,,,,,,AMSA17.jpg,AMSA01.jpg,AMNE05.jpg,AMNE17.jpg,AMNE05.jpg,MN,1,num_2,16,num_2,1.31676811643,,,2018_Mar_28_1832,60.0030022685,FEMA4ImagesEEG,001,203054,
,,,,,,,,,,,,,,,,,,,,,,,,,,,,,,,,,,,,,,,,,,,space,2.13333320501,2018_Mar_28_1832,60.0030022685,FEMA4ImagesEEG,001,203054,
AFNE01.JPG,AFNE01.JPG,AFNE01.JPG,AFNE01.JPG,AFNE01.JPG,AFNE01.JPG,,,,,,,,,0,0,0,5,,,,,,,,,,,,,,,AFNE12.jpg,AFSA18.jpg,AFNE19.jpg,AFSA16.jpg,AFNE12.jpg,FN,3,num_8,16,num_8,0.666784057161,,,2018_Mar_28_1832,60.0030022685,FEMA4ImagesEEG,001,203054,
AFNE01.JPG,AFNE01.JPG,AFNE01.JPG,AFNE01.JPG,AFNE01.JPG,AFNE01.JPG,,,,,,,,,0,1,1,8,,,,,,,,,,,,,,,AFSA13.jpg,AFSA19.jpg,AFNE01.jpg,AFNE17.jpg,AFSA13.jpg,FS,4,num_8,32,num_4,4.29982955917,,,2018_Mar_28_1832,60.0030022685,FEMA4ImagesEEG,001,203054,
AFNE01.JPG,AFNE01.JPG,AFNE01.JPG,AFNE01.JPG,AFNE01.JPG,AFNE01.JPG,,,,,,,,,0,2,2,0,,,,,,,,,,,,,,,AFNE15.jpg,AFNE14.jpg,AFSA02.jpg,AFSA06.jpg,AFSA02.jpg,FS,4,num_2,32,num_8,0.966792268096,,,2018_Mar_28_1832,60.0030022685,FEMA4ImagesEEG,001,203054,
AFNE01.JPG,AFNE01.JPG,AFNE01.JPG,AFNE01.JPG,AFNE01.JPG,AFNE01.JPG,,,,,,,,,0,3,3,1,,,,,,,,,,,,,,,AFNE19.jpg,AFNE15.jpg,AFSA20.jpg,AFSA09.jpg,AFNE15.jpg,FN,3,num_6,32,num_8,0.950215825404,,,2018_Mar_28_1832,60.0030022685,FEMA4ImagesEEG,001,203054,
AFNE01.JPG,AFNE01.JPG,AFNE01.JPG,AFNE01.JPG,AFNE01.JPG,AFNE01.JPG,,,,,,,,,0,4,4,2,,,,,,,,,,,,,,,AFNE18.jpg,AFSA06.jpg,AFSA08.jpg,AFNE02.jpg,AFSA06.jpg,FS,4,num_6,32,num_4,0.816782228998,,,2018_Mar_28_1832,60.0030022685,FEMA4ImagesEEG,001,203054,
AFNE01.JPG,AFNE01.JPG,AFNE01.JPG,AFNE01.JPG,AFNE01.JPG,AFNE01.JPG,,,,,,,,,0,5,5,3,,,,,,,,,,,,,,,AFNE06.jpg,AFNE12.jpg,AFSA10.jpg,AFSA18.jpg,AFSA10.jpg,FS,4,num_2,32,num_4,0.73324153776,,,2018_Mar_28_1832,60.0030022685,FEMA4ImagesEEG,001,203054,
AFNE01.JPG,AFNE01.JPG,AFNE01.JPG,AFNE01.JPG,AFNE01.JPG,AFNE01.JPG,,,,,,,,,0,6,6,6,,,,,,,,,,,,,,,AFNE18.jpg,AFNE10.jpg,AFSA17.jpg,AFSA03.jpg,AFSA03.jpg,FS,4,num_4,16,num_4,0.750127493811,,,2018_Mar_28_1832,60.0030022685,FEMA4ImagesEEG,001,203054,
AFNE01.JPG,AFNE01.JPG,AFNE01.JPG,AFNE01.JPG,AFNE01.JPG,AFNE01.JPG,,,,,,,,,0,7,7,4,,,,,,,,,,,,,,,AFNE09.jpg,AFSA13.jpg,AFSA20.jpg,AFNE08.jpg,AFSA13.jpg,FS,4,num_6,32,num_8,0.850207101263,,,2018_Mar_28_1832,60.0030022685,FEMA4ImagesEEG,001,203054,
AFNE01.JPG,AFNE01.JPG,AFNE01.JPG,AFNE01.JPG,AFNE01.JPG,AFNE01.JPG,,,,,,,,,0,8,8,7,,,,,,,,,,,,,,,AFSA16.jpg,AFNE07.jpg,AFNE08.jpg,AFSA10.jpg,AFNE08.jpg,FN,3,num_2,16,num_2,0.750148341875,,,2018_Mar_28_1832,60.0030022685,FEMA4ImagesEEG,001,203054,
AFNE01.JPG,AFNE01.JPG,AFNE01.JPG,AFNE01.JPG,AFNE01.JPG,AFNE01.JPG,,,,,,,,,0,9,9,9,,,,,,,,,,,,,,,AFSA09.jpg,AFNE12.jpg,AFNE18.jpg,AFSA16.jpg,AFSA16.jpg,FS,4,num_4,32,num_8,0.850091635191,,,2018_Mar_28_1832,60.0030022685,FEMA4ImagesEEG,001,203054,
AFNE01.JPG,AFNE01.JPG,AFNE01.JPG,AFNE01.JPG,AFNE01.JPG,AFNE01.JPG,,,,,,,,,1,0,10,8,,,,,,,,,,,,,,,AFSA10.jpg,AFNE05.jpg,AFSA04.jpg,AFNE04.jpg,AFNE05.jpg,FN,3,num_6,16,num_6,0.516837845149,,,2018_Mar_28_1832,60.0030022685,FEMA4ImagesEEG,001,203054,
AFNE01.JPG,AFNE01.JPG,AFNE01.JPG,AFNE01.JPG,AFNE01.JPG,AFNE01.JPG,,,,,,,,,1,1,11,7,,,,,,,,,,,,,,,AFNE14.jpg,AFNE06.jpg,AFSA03.jpg,AFSA06.jpg,AFNE14.jpg,FN,3,num_8,32,num_4,0.716821295035,,,2018_Mar_28_1832,60.0030022685,FEMA4ImagesEEG,001,203054,
AFNE01.JPG,AFNE01.JPG,AFNE01.JPG,AFNE01.JPG,AFNE01.JPG,AFNE01.JPG,,,,,,,,,1,2,12,1,,,,,,,,,,,,,,,AFNE02.jpg,AFSA08.jpg,AFNE14.jpg,AFSA01.jpg,AFNE02.jpg,FN,3,num_8,16,num_8,0.583511503937,,,2018_Mar_28_1832,60.0030022685,FEMA4ImagesEEG,001,203054,
