IPosition2,IPosition3,IPosition1,IPosition6,IPosition4,IPosition5,TrialsM1.thisRepN,TrialsM1.thisTrialN,TrialsM1.thisN,TrialsM1.thisIndex,TrialsF1.thisRepN,TrialsF1.thisTrialN,TrialsF1.thisN,TrialsF1.thisIndex,TrialsM2.thisRepN,TrialsM2.thisTrialN,TrialsM2.thisN,TrialsM2.thisIndex,TrialsF2.thisRepN,TrialsF2.thisTrialN,TrialsF2.thisN,TrialsF2.thisIndex,TrialsM3.thisRepN,TrialsM3.thisTrialN,TrialsM3.thisN,TrialsM3.thisIndex,TrialsF3.thisRepN,TrialsF3.thisTrialN,TrialsF3.thisN,TrialsF3.thisIndex,InstrKey_resp.keys,InstrKey_resp.rt,Image0 _Position,Image1 _Position,Image2 _Position,Image3 _Position,Center_image,condition,code,correct_answer,accuracy,Key_Resp.keys,Key_Resp.rt,BreakKey_resp.keys,BreakKey_resp.rt,date,frameRate,expName,session,participant,
,,,,,,,,,,,,,,,,,,,,,,,,,,,,,,space,119.940690815,,,,,,,,,,,,,,2018_Feb_12_1202,60.0027520447,MAFE4ImagesEEG,001,203024,
AFSA21.JPG,AFNE22.JPG,AFNE21.JPG,AFSA23.JPG,AFSA22.JPG,AFNE23.JPG,0,0,0,0,,,,,,,,,,,,,,,,,,,,,,,AMSA17.jpg,AMSA02.jpg,AMNE07.jpg,AMNE18.jpg,AMNE07.jpg,MN,1,num_2,32,num_8,2.35004235362,,,2018_Feb_12_1202,60.0027520447,MAFE4ImagesEEG,001,203024,
AMNE22.JPG,AMSA24.JPG,AMSA22.JPG,AMNE25.JPG,AMNE24.JPG,AMSA25.JPG,0,1,1,7,,,,,,,,,,,,,,,,,,,,,,,AMNE05.jpg,AMSA19.jpg,AMSA05.jpg,AMNE14.jpg,AMSA19.jpg,MS,2,num_6,16,num_6,1.11673980043,,,2018_Feb_12_1202,60.0027520447,MAFE4ImagesEEG,001,203024,
AMSA25.JPG,AMNE24.JPG,AMSA24.JPG,AMNE26.JPG,AMSA21.JPG,AMNE25.JPG,0,2,2,3,,,,,,,,,,,,,,,,,,,,,,,AMNE13.jpg,AMSA05.jpg,AMNE06.jpg,AMSA07.jpg,AMSA07.jpg,MS,2,num_4,32,num_2,1.00009141071,,,2018_Feb_12_1202,60.0027520447,MAFE4ImagesEEG,001,203024,
AMNE23.JPG,AMNE24.JPG,AMNE22.JPG,AMSA24.JPG,AMSA22.JPG,AMSA23.JPG,0,3,3,9,,,,,,,,,,,,,,,,,,,,,,,AMSA18.jpg,AMSA03.jpg,AMNE07.jpg,AMNE12.jpg,AMSA18.jpg,MS,2,num_8,16,num_8,0.883455850417,,,2018_Feb_12_1202,60.0027520447,MAFE4ImagesEEG,001,203024,
AFSA21.JPG,AFNE23.JPG,AFNE21.JPG,AFSA25.JPG,AFNE25.JPG,AFSA23.JPG,0,4,4,4,,,,,,,,,,,,,,,,,,,,,,,AMNE17.jpg,AMSA01.jpg,AMNE10.jpg,AMSA09.jpg,AMNE17.jpg,MN,1,num_8,32,num_2,1.33344537835,,,2018_Feb_12_1202,60.0027520447,MAFE4ImagesEEG,001,203024,
AMSA21.JPG,AMNE23.JPG,AMNE21.JPG,AMSA25.JPG,AMNE25.JPG,AMSA23.JPG,0,5,5,5,,,,,,,,,,,,,,,,,,,,,,,AMSA13.jpg,AMSA06.jpg,AMNE06.jpg,AMNE05.jpg,AMNE05.jpg,MN,1,num_4,16,num_4,0.666845211759,,,2018_Feb_12_1202,60.0027520447,MAFE4ImagesEEG,001,203024,
AFSA25.JPG,AFNE24.JPG,AFSA24.JPG,AFNE21.JPG,AFSA21.JPG,AFNE25.JPG,0,6,6,2,,,,,,,,,,,,,,,,,,,,,,,AMSA11.jpg,AMNE17.jpg,AMNE18.jpg,AMSA16.jpg,AMNE18.jpg,MN,1,num_2,16,num_2,0.983362290775,,,2018_Feb_12_1202,60.0027520447,MAFE4ImagesEEG,001,203024,
AMSA21.JPG,AMNE22.JPG,AMNE21.JPG,AMSA23.JPG,AMSA22.JPG,AMNE23.JPG,0,7,7,1,,,,,,,,,,,,,,,,,,,,,,,AMSA12.jpg,AMSA19.jpg,AMNE11.jpg,AMNE07.jpg,AMSA19.jpg,MS,2,num_6,32,num_8,0.650184088154,,,2018_Feb_12_1202,60.0027520447,MAFE4ImagesEEG,001,203024,
AFNE22.JPG,AFSA24.JPG,AFSA22.JPG,AFNE25.JPG,AFNE24.JPG,AFSA25.JPG,0,8,8,6,,,,,,,,,,,,,,,,,,,,,,,AMNE03.jpg,AMNE15.jpg,AMSA14.jpg,AMSA04.jpg,AMSA14.jpg,MS,2,num_2,32,num_4,0.783505468862,,,2018_Feb_12_1202,60.0027520447,MAFE4ImagesEEG,001,203024,
AFNE23.JPG,AFNE24.JPG,AFNE22.JPG,AFSA24.JPG,AFSA22.JPG,AFSA23.JPG,0,9,9,8,,,,,,,,,,,,,,,,,,,,,,,AMNE17.jpg,AMSA15.jpg,AMNE13.jpg,AMSA04.jpg,AMSA04.jpg,MS,2,num_4,32,num_8,1.3833036595,,,2018_Feb_12_1202,60.0027520447,MAFE4ImagesEEG,001,203024,
AFSA25.JPG,AFNE24.JPG,AFSA24.JPG,AFNE21.JPG,AFSA21.JPG,AFNE25.JPG,,,,,0,0,0,2,,,,,,,,,,,,,,,,,,,AFNE12.jpg,AFSA05.jpg,AFNE13.jpg,AFSA01.jpg,AFNE13.jpg,FN,3,num_2,16,num_2,1.86653364543,,,2018_Feb_12_1202,60.0027520447,MAFE4ImagesEEG,001,203024,
AFSA21.JPG,AFNE23.JPG,AFNE21.JPG,AFSA25.JPG,AFNE25.JPG,AFSA23.JPG,,,,,0,1,1,4,,,,,,,,,,,,,,,,,,,AFNE19.jpg,AFSA02.jpg,AFNE02.jpg,AFSA03.jpg,AFSA02.jpg,FS,4,num_6,16,num_6,1.10016816342,,,2018_Feb_12_1202,60.0027520447,MAFE4ImagesEEG,001,203024,
AFNE23.JPG,AFNE24.JPG,AFNE22.JPG,AFSA24.JPG,AFSA22.JPG,AFSA23.JPG,,,,,0,2,2,8,,,,,,,,,,,,,,,,,,,AFSA19.jpg,AFSA06.jpg,AFNE07.jpg,AFNE12.jpg,AFNE07.jpg,FN,3,num_2,32,num_8,1.98338121432,,,2018_Feb_12_1202,60.0027520447,MAFE4ImagesEEG,001,203024,
AFNE22.JPG,AFSA24.JPG,AFSA22.JPG,AFNE25.JPG,AFNE24.JPG,AFSA25.JPG,,,,,0,3,3,6,,,,,,,,,,,,,,,,,,,AFNE14.jpg,AFSA07.jpg,AFNE13.jpg,AFSA02.jpg,AFSA07.jpg,FS,4,num_6,32,num_4,1.45009857928,,,2018_Feb_12_1202,60.0027520447,MAFE4ImagesEEG,001,203024,
AMSA25.JPG,AMNE24.JPG,AMSA24.JPG,AMNE26.JPG,AMSA21.JPG,AMNE25.JPG,,,,,0,4,4,3,,,,,,,,,,,,,,,,,,,AFSA02.jpg,AFNE18.jpg,AFNE03.jpg,AFSA15.jpg,AFSA02.jpg,FS,4,num_8,32,num_2,2.58330385201,,,2018_Feb_12_1202,60.0027520447,MAFE4ImagesEEG,001,203024,
AFSA21.JPG,AFNE22.JPG,AFNE21.JPG,AFSA23.JPG,AFSA22.JPG,AFNE23.JPG,,,,,0,5,5,0,,,,,,,,,,,,,,,,,,,AFNE10.jpg,AFSA09.jpg,AFSA11.jpg,AFNE01.jpg,AFSA11.jpg,FS,4,num_2,32,num_8,1.28314030706,,,2018_Feb_12_1202,60.0027520447,MAFE4ImagesEEG,001,203024,
AMNE22.JPG,AMSA24.JPG,AMSA22.JPG,AMNE25.JPG,AMNE24.JPG,AMSA25.JPG,,,,,0,6,6,7,,,,,,,,,,,,,,,,,,,AFNE11.jpg,AFSA01.jpg,AFNE19.jpg,AFSA08.jpg,AFNE19.jpg,FN,3,num_2,16,num_2,1.06677535456,,,2018_Feb_12_1202,60.0027520447,MAFE4ImagesEEG,001,203024,
AMNE23.JPG,AMNE24.JPG,AMNE22.JPG,AMSA24.JPG,AMSA22.JPG,AMSA23.JPG,,,,,0,7,7,9,,,,,,,,,,,,,,,,,,,AFSA07.jpg,AFNE17.jpg,AFNE08.jpg,AFSA05.jpg,AFSA05.jpg,FS,4,num_4,32,num_8,1.3501199726,,,2018_Feb_12_1202,60.0027520447,MAFE4ImagesEEG,001,203024,
AMSA21.JPG,AMNE22.JPG,AMNE21.JPG,AMSA23.JPG,AMSA22.JPG,AMNE23.JPG,,,,,0,8,8,1,,,,,,,,,,,,,,,,,,,AFNE03.jpg,AFSA17.jpg,AFSA02.jpg,AFNE20.jpg,AFSA17.jpg,FS,4,num_6,16,num_6,1.20034915674,,,2018_Feb_12_1202,60.0027520447,MAFE4ImagesEEG,001,203024,
AMSA21.JPG,AMNE23.JPG,AMNE21.JPG,AMSA25.JPG,AMNE25.JPG,AMSA23.JPG,,,,,0,9,9,5,,,,,,,,,,,,,,,,,,,AFNE09.jpg,AFSA02.jpg,AFNE11.jpg,AFSA04.jpg,AFSA02.jpg,FS,4,num_6,32,num_4,2.41669133678,,,2018_Feb_12_1202,60.0027520447,MAFE4ImagesEEG,001,203024,
AFSA21.JPG,AFNE22.JPG,AFNE21.JPG,AFSA23.JPG,AFSA22.JPG,AFNE23.JPG,,,,,,,,,0,0,0,0,,,,,,,,,,,,,,,AMNE19.jpg,AMNE13.jpg,AMSA02.jpg,AMSA06.jpg,AMNE19.jpg,MN,1,num_8,32,num_2,1.51673633675,,,2018_Feb_12_1202,60.0027520447,MAFE4ImagesEEG,001,203024,
AFNE23.JPG,AFNE24.JPG,AFNE22.JPG,AFSA24.JPG,AFSA22.JPG,AFSA23.JPG,,,,,,,,,0,1,1,8,,,,,,,,,,,,,,,AMNE01.jpg,AMSA15.jpg,AMNE16.jpg,AMSA14.jpg,AMNE16.jpg,MN,1,num_2,32,num_6,1.60008878075,,,2018_Feb_12_1202,60.0027520447,MAFE4ImagesEEG,001,203024,
AFSA25.JPG,AFNE24.JPG,AFSA24.JPG,AFNE21.JPG,AFSA21.JPG,AFNE25.JPG,,,,,,,,,0,2,2,2,,,,,,,,,,,,,,,AMSA02.jpg,AMSA19.jpg,AMNE06.jpg,AMNE01.jpg,AMNE01.jpg,MN,1,num_4,32,num_6,1.31674929452,,,2018_Feb_12_1202,60.0027520447,MAFE4ImagesEEG,001,203024,
AMSA21.JPG,AMNE22.JPG,AMNE21.JPG,AMSA23.JPG,AMSA22.JPG,AMNE23.JPG,,,,,,,,,0,3,3,1,,,,,,,,,,,,,,,AMSA03.jpg,AMNE10.jpg,AMNE06.jpg,AMSA10.jpg,AMNE06.jpg,MN,1,num_2,32,num_4,1.23345297994,,,2018_Feb_12_1202,60.0027520447,MAFE4ImagesEEG,001,203024,
AFSA21.JPG,AFNE23.JPG,AFNE21.JPG,AFSA25.JPG,AFNE25.JPG,AFSA23.JPG,,,,,,,,,0,4,4,4,,,,,,,,,,,,,,,AMSA04.jpg,AMNE07.jpg,AMNE13.jpg,AMSA14.jpg,AMNE13.jpg,MN,1,num_2,32,num_8,0.783493601484,,,2018_Feb_12_1202,60.0027520447,MAFE4ImagesEEG,001,203024,
AMNE23.JPG,AMNE24.JPG,AMNE22.JPG,AMSA24.JPG,AMSA22.JPG,AMSA23.JPG,,,,,,,,,0,5,5,9,,,,,,,,,,,,,,,AMSA19.jpg,AMNE08.jpg,AMSA05.jpg,AMNE09.jpg,AMNE08.jpg,MN,1,num_6,32,num_8,1.13343652571,,,2018_Feb_12_1202,60.0027520447,MAFE4ImagesEEG,001,203024,
AMSA21.JPG,AMNE23.JPG,AMNE21.JPG,AMSA25.JPG,AMNE25.JPG,AMSA23.JPG,,,,,,,,,0,6,6,5,,,,,,,,,,,,,,,AMNE02.jpg,AMSA15.jpg,AMNE15.jpg,AMSA08.jpg,AMNE15.jpg,MN,1,num_2,16,num_2,2.16670552967,,,2018_Feb_12_1202,60.0027520447,MAFE4ImagesEEG,001,203024,
AFNE22.JPG,AFSA24.JPG,AFSA22.JPG,AFNE25.JPG,AFNE24.JPG,AFSA25.JPG,,,,,,,,,0,7,7,6,,,,,,,,,,,,,,,AMNE04.jpg,AMSA11.jpg,AMSA17.jpg,AMNE08.jpg,AMNE08.jpg,MN,1,num_4,32,num_6,1.01675926941,,,2018_Feb_12_1202,60.0027520447,MAFE4ImagesEEG,001,203024,
AMNE22.JPG,AMSA24.JPG,AMSA22.JPG,AMNE25.JPG,AMNE24.JPG,AMSA25.JPG,,,,,,,,,0,8,8,7,,,,,,,,,,,,,,,AMSA04.jpg,AMNE08.jpg,AMNE19.jpg,AMSA01.jpg,AMNE08.jpg,MN,1,num_6,32,num_8,0.933448842261,,,2018_Feb_12_1202,60.0027520447,MAFE4ImagesEEG,001,203024,
AMSA25.JPG,AMNE24.JPG,AMSA24.JPG,AMNE26.JPG,AMSA21.JPG,AMNE25.JPG,,,,,,,,,0,9,9,3,,,,,,,,,,,,,,,AMNE07.jpg,AMNE10.jpg,AMSA13.jpg,AMSA16.jpg,AMNE10.jpg,MN,1,num_6,32,num_4,1.08345251461,,,2018_Feb_12_1202,60.0027520447,MAFE4ImagesEEG,001,203024,
AMNE23.JPG,AMNE24.JPG,AMNE22.JPG,AMSA24.JPG,AMSA22.JPG,AMSA23.JPG,,,,,,,,,,,,,0,0,0,9,,,,,,,,,,,AFNE01.jpg,AFNE03.jpg,AFSA05.jpg,AFSA12.jpg,AFSA12.jpg,FS,4,num_4,32,num_2,1.0667615626,,,2018_Feb_12_1202,60.0027520447,MAFE4ImagesEEG,001,203024,
AFNE23.JPG,AFNE24.JPG,AFNE22.JPG,AFSA24.JPG,AFSA22.JPG,AFSA23.JPG,,,,,,,,,,,,,0,1,1,8,,,,,,,,,,,AFNE10.jpg,AFSA08.jpg,AFNE16.jpg,AFSA07.jpg,AFSA08.jpg,FS,4,num_6,32,num_8,1.06677342998,,,2018_Feb_12_1202,60.0027520447,MAFE4ImagesEEG,001,203024,
AMNE22.JPG,AMSA24.JPG,AMSA22.JPG,AMNE25.JPG,AMNE24.JPG,AMSA25.JPG,,,,,,,,,,,,,0,2,2,7,,,,,,,,,,,AFNE13.jpg,AFNE12.jpg,AFSA10.jpg,AFSA02.jpg,AFSA10.jpg,FS,4,num_2,32,num_8,1.23347511096,,,2018_Feb_12_1202,60.0027520447,MAFE4ImagesEEG,001,203024,
AFSA21.JPG,AFNE23.JPG,AFNE21.JPG,AFSA25.JPG,AFNE25.JPG,AFSA23.JPG,,,,,,,,,,,,,0,3,3,4,,,,,,,,,,,AFSA04.jpg,AFSA03.jpg,AFNE13.jpg,AFNE11.jpg,AFSA04.jpg,FS,4,num_8,32,num_4,1.03344348585,,,2018_Feb_12_1202,60.0027520447,MAFE4ImagesEEG,001,203024,
AFNE22.JPG,AFSA24.JPG,AFSA22.JPG,AFNE25.JPG,AFNE24.JPG,AFSA25.JPG,,,,,,,,,,,,,0,4,4,6,,,,,,,,,,,AFNE03.jpg,AFSA02.jpg,AFSA03.jpg,AFNE13.jpg,AFSA03.jpg,FS,4,num_2,32,num_6,1.1002114634,,,2018_Feb_12_1202,60.0027520447,MAFE4ImagesEEG,001,203024,
AFSA21.JPG,AFNE22.JPG,AFNE21.JPG,AFSA23.JPG,AFSA22.JPG,AFNE23.JPG,,,,,,,,,,,,,0,5,5,0,,,,,,,,,,,AFSA17.jpg,AFSA02.jpg,AFNE09.jpg,AFNE18.jpg,AFSA02.jpg,FS,4,num_6,32,num_8,0.733568285592,,,2018_Feb_12_1202,60.0027520447,MAFE4ImagesEEG,001,203024,
AMSA21.JPG,AMNE23.JPG,AMNE21.JPG,AMSA25.JPG,AMNE25.JPG,AMSA23.JPG,,,,,,,,,,,,,0,6,6,5,,,,,,,,,,,AFNE12.jpg,AFSA01.jpg,AFSA07.jpg,AFNE10.jpg,AFSA01.jpg,FS,4,num_6,16,num_6,0.816462713759,,,2018_Feb_12_1202,60.0027520447,MAFE4ImagesEEG,001,203024,
AMSA25.JPG,AMNE24.JPG,AMSA24.JPG,AMNE26.JPG,AMSA21.JPG,AMNE25.JPG,,,,,,,,,,,,,0,7,7,3,,,,,,,,,,,AFSA13.jpg,AFNE09.jpg,AFNE14.jpg,AFSA04.jpg,AFSA04.jpg,FS,4,num_4,16,num_4,2.26668253262,,,2018_Feb_12_1202,60.0027520447,MAFE4ImagesEEG,001,203024,
AFSA25.JPG,AFNE24.JPG,AFSA24.JPG,AFNE21.JPG,AFSA21.JPG,AFNE25.JPG,,,,,,,,,,,,,0,8,8,2,,,,,,,,,,,AFNE20.jpg,AFSA03.jpg,AFSA10.jpg,AFNE18.jpg,AFSA10.jpg,FS,4,num_2,16,num_2,1.06678818399,,,2018_Feb_12_1202,60.0027520447,MAFE4ImagesEEG,001,203024,
AMSA21.JPG,AMNE22.JPG,AMNE21.JPG,AMSA23.JPG,AMSA22.JPG,AMNE23.JPG,,,,,,,,,,,,,0,9,9,1,,,,,,,,,,,AFSA04.jpg,AFSA03.jpg,AFNE20.jpg,AFNE02.jpg,AFSA03.jpg,FS,4,num_6,32,num_4,0.716804525815,,,2018_Feb_12_1202,60.0027520447,MAFE4ImagesEEG,001,203024,
AMNE23.JPG,AMNE24.JPG,AMNE22.JPG,AMSA24.JPG,AMSA22.JPG,AMSA23.JPG,,,,,,,,,,,,,,,,,0,0,0,9,,,,,,,AMSA10.jpg,AMSA17.jpg,AMNE05.jpg,AMNE16.jpg,AMSA17.jpg,MS,2,num_6,16,num_6,4.89981708233,,,2018_Feb_12_1202,60.0027520447,MAFE4ImagesEEG,001,203024,
AFNE23.JPG,AFNE24.JPG,AFNE22.JPG,AFSA24.JPG,AFSA22.JPG,AFSA23.JPG,,,,,,,,,,,,,,,,,0,1,1,8,,,,,,,AMNE04.jpg,AMSA18.jpg,AMSA01.jpg,AMNE02.jpg,AMSA18.jpg,MS,2,num_6,32,num_2,1.10012422246,,,2018_Feb_12_1202,60.0027520447,MAFE4ImagesEEG,001,203024,
AMSA25.JPG,AMNE24.JPG,AMSA24.JPG,AMNE26.JPG,AMSA21.JPG,AMNE25.JPG,,,,,,,,,,,,,,,,,0,2,2,3,,,,,,,AMSA10.jpg,AMNE16.jpg,AMNE14.jpg,AMSA13.jpg,AMSA10.jpg,MS,2,num_8,16,num_8,1.05010653357,,,2018_Feb_12_1202,60.0027520447,MAFE4ImagesEEG,001,203024,
AMSA21.JPG,AMNE22.JPG,AMNE21.JPG,AMSA23.JPG,AMSA22.JPG,AMNE23.JPG,,,,,,,,,,,,,,,,,0,3,3,1,,,,,,,AMSA13.jpg,AMNE13.jpg,AMNE11.jpg,AMSA03.jpg,AMNE11.jpg,MN,1,num_2,32,num_6,0.883432436502,,,2018_Feb_12_1202,60.0027520447,MAFE4ImagesEEG,001,203024,
AFNE22.JPG,AFSA24.JPG,AFSA22.JPG,AFNE25.JPG,AFNE24.JPG,AFSA25.JPG,,,,,,,,,,,,,,,,,0,4,4,6,,,,,,,AMNE13.jpg,AMSA13.jpg,AMNE11.jpg,AMSA14.jpg,AMSA13.jpg,MS,2,num_6,32,num_8,0.816773189697,,,2018_Feb_12_1202,60.0027520447,MAFE4ImagesEEG,001,203024,
AFSA21.JPG,AFNE23.JPG,AFNE21.JPG,AFSA25.JPG,AFNE25.JPG,AFSA23.JPG,,,,,,,,,,,,,,,,,0,5,5,4,,,,,,,AMSA06.jpg,AMNE06.jpg,AMSA16.jpg,AMNE18.jpg,AMNE18.jpg,MN,1,num_4,32,num_2,1.08346630656,,,2018_Feb_12_1202,60.0027520447,MAFE4ImagesEEG,001,203024,
AMNE22.JPG,AMSA24.JPG,AMSA22.JPG,AMNE25.JPG,AMNE24.JPG,AMSA25.JPG,,,,,,,,,,,,,,,,,0,6,6,7,,,,,,,AMSA18.jpg,AMNE09.jpg,AMNE06.jpg,AMSA06.jpg,AMNE09.jpg,MN,1,num_6,32,num_8,0.916464093141,,,2018_Feb_12_1202,60.0027520447,MAFE4ImagesEEG,001,203024,
AFSA21.JPG,AFNE22.JPG,AFNE21.JPG,AFSA23.JPG,AFSA22.JPG,AFNE23.JPG,,,,,,,,,,,,,,,,,0,7,7,0,,,,,,,AMSA03.jpg,AMSA06.jpg,AMNE13.jpg,AMNE09.jpg,AMSA06.jpg,MS,2,num_6,16,num_6,0.733630188275,,,2018_Feb_12_1202,60.0027520447,MAFE4ImagesEEG,001,203024,
AFSA25.JPG,AFNE24.JPG,AFSA24.JPG,AFNE21.JPG,AFSA21.JPG,AFNE25.JPG,,,,,,,,,,,,,,,,,0,8,8,2,,,,,,,AMSA07.jpg,AMNE06.jpg,AMSA03.jpg,AMNE11.jpg,AMNE06.jpg,MN,1,num_6,32,num_4,1.10010561929,,,2018_Feb_12_1202,60.0027520447,MAFE4ImagesEEG,001,203024,
AMSA21.JPG,AMNE23.JPG,AMNE21.JPG,AMSA25.JPG,AMNE25.JPG,AMSA23.JPG,,,,,,,,,,,,,,,,,0,9,9,5,,,,,,,AMNE11.jpg,AMSA01.jpg,AMNE17.jpg,AMSA02.jpg,AMNE11.jpg,MN,1,num_8,16,num_8,0.91681850981,,,2018_Feb_12_1202,60.0027520447,MAFE4ImagesEEG,001,203024,
AFNE22.JPG,AFSA24.JPG,AFSA22.JPG,AFNE25.JPG,AFNE24.JPG,AFSA25.JPG,,,,,,,,,,,,,,,,,,,,,0,0,0,6,,,AFSA09.jpg,AFNE12.jpg,AFNE09.jpg,AFSA14.jpg,AFNE12.jpg,FN,3,num_6,16,num_6,0.733577586943,,,2018_Feb_12_1202,60.0027520447,MAFE4ImagesEEG,001,203024,
AFSA21.JPG,AFNE22.JPG,AFNE21.JPG,AFSA23.JPG,AFSA22.JPG,AFNE23.JPG,,,,,,,,,,,,,,,,,,,,,0,1,1,0,,,AFNE08.jpg,AFSA10.jpg,AFNE11.jpg,AFSA14.jpg,AFNE11.jpg,FN,3,num_2,16,num_2,1.01677498571,,,2018_Feb_12_1202,60.0027520447,MAFE4ImagesEEG,001,203024,
AMSA21.JPG,AMNE22.JPG,AMNE21.JPG,AMSA23.JPG,AMSA22.JPG,AMNE23.JPG,,,,,,,,,,,,,,,,,,,,,0,2,2,1,,,AFNE16.jpg,AFSA20.jpg,AFSA08.jpg,AFNE04.jpg,AFSA08.jpg,FS,4,num_2,32,num_6,1.50007970375,,,2018_Feb_12_1202,60.0027520447,MAFE4ImagesEEG,001,203024,
AFSA25.JPG,AFNE24.JPG,AFSA24.JPG,AFNE21.JPG,AFSA21.JPG,AFNE25.JPG,,,,,,,,,,,,,,,,,,,,,0,3,3,2,,,AFSA15.jpg,AFNE17.jpg,AFNE09.jpg,AFSA03.jpg,AFNE09.jpg,FN,3,num_2,32,num_8,1.19993989356,,,2018_Feb_12_1202,60.0027520447,MAFE4ImagesEEG,001,203024,
AMNE23.JPG,AMNE24.JPG,AMNE22.JPG,AMSA24.JPG,AMSA22.JPG,AMSA23.JPG,,,,,,,,,,,,,,,,,,,,,0,4,4,9,,,AFNE11.jpg,AFNE08.jpg,AFSA10.jpg,AFSA06.jpg,AFNE11.jpg,FN,3,num_8,16,num_8,1.80007806793,,,2018_Feb_12_1202,60.0027520447,MAFE4ImagesEEG,001,203024,
AFNE23.JPG,AFNE24.JPG,AFNE22.JPG,AFSA24.JPG,AFSA22.JPG,AFSA23.JPG,,,,,,,,,,,,,,,,,,,,,0,5,5,8,,,AFNE15.jpg,AFSA06.jpg,AFNE03.jpg,AFSA15.jpg,AFSA15.jpg,FS,4,num_4,16,num_4,1.20019744709,,,2018_Feb_12_1202,60.0027520447,MAFE4ImagesEEG,001,203024,
AMNE22.JPG,AMSA24.JPG,AMSA22.JPG,AMNE25.JPG,AMNE24.JPG,AMSA25.JPG,,,,,,,,,,,,,,,,,,,,,0,6,6,7,,,AFSA19.jpg,AFSA02.jpg,AFNE07.jpg,AFNE08.jpg,AFSA02.jpg,FS,4,num_6,32,num_2,1.60010610055,,,2018_Feb_12_1202,60.0027520447,MAFE4ImagesEEG,001,203024,
AMSA21.JPG,AMNE23.JPG,AMNE21.JPG,AMSA25.JPG,AMNE25.JPG,AMSA23.JPG,,,,,,,,,,,,,,,,,,,,,0,7,7,5,,,AFNE05.jpg,AFNE13.jpg,AFSA20.jpg,AFSA15.jpg,AFSA20.jpg,FS,4,num_2,32,num_6,1.78341726563,,,2018_Feb_12_1202,60.0027520447,MAFE4ImagesEEG,001,203024,
AMSA25.JPG,AMNE24.JPG,AMSA24.JPG,AMNE26.JPG,AMSA21.JPG,AMNE25.JPG,,,,,,,,,,,,,,,,,,,,,0,8,8,3,,,AFSA19.jpg,AFNE12.jpg,AFSA17.jpg,AFNE08.jpg,AFNE08.jpg,FN,3,num_4,32,num_8,0.866772596259,,,2018_Feb_12_1202,60.0027520447,MAFE4ImagesEEG,001,203024,
AFSA21.JPG,AFNE23.JPG,AFNE21.JPG,AFSA25.JPG,AFNE25.JPG,AFSA23.JPG,,,,,,,,,,,,,,,,,,,,,0,9,9,4,,,AFNE02.jpg,AFSA18.jpg,AFSA01.jpg,AFNE17.jpg,AFNE17.jpg,FN,3,num_4,32,num_2,1.23382888618,,,2018_Feb_12_1202,60.0027520447,MAFE4ImagesEEG,001,203024,
,,,,,,,,,,,,,,,,,,,,,,,,,,,,,,,,,,,,,,,,,,,space,20.1319329001,2018_Feb_12_1202,60.0027520447,MAFE4ImagesEEG,001,203024,
AFNE01.JPG,AFNE01.JPG,AFNE01.JPG,AFNE01.JPG,AFNE01.JPG,AFNE01.JPG,0,0,0,2,,,,,,,,,,,,,,,,,,,,,,,AMSA06.jpg,AMNE04.jpg,AMNE07.jpg,AMSA04.jpg,AMSA06.jpg,MS,2,num_8,16,num_8,0.850137773668,,,2018_Feb_12_1202,60.0027520447,MAFE4ImagesEEG,001,203024,
AFNE01.JPG,AFNE01.JPG,AFNE01.JPG,AFNE01.JPG,AFNE01.JPG,AFNE01.JPG,0,1,1,9,,,,,,,,,,,,,,,,,,,,,,,AMSA05.jpg,AMNE06.jpg,AMSA17.jpg,AMNE10.jpg,AMNE10.jpg,MN,1,num_4,32,num_6,0.966796747874,,,2018_Feb_12_1202,60.0027520447,MAFE4ImagesEEG,001,203024,
AFNE01.JPG,AFNE01.JPG,AFNE01.JPG,AFNE01.JPG,AFNE01.JPG,AFNE01.JPG,0,2,2,1,,,,,,,,,,,,,,,,,,,,,,,AMSA20.jpg,AMNE13.jpg,AMNE05.jpg,AMSA01.jpg,AMSA01.jpg,MS,2,num_4,32,num_2,1.18342887633,,,2018_Feb_12_1202,60.0027520447,MAFE4ImagesEEG,001,203024,
AFNE01.JPG,AFNE01.JPG,AFNE01.JPG,AFNE01.JPG,AFNE01.JPG,AFNE01.JPG,0,3,3,7,,,,,,,,,,,,,,,,,,,,,,,AMNE08.jpg,AMNE15.jpg,AMSA10.jpg,AMSA03.jpg,AMSA10.jpg,MS,2,num_2,32,num_6,0.733146834187,,,2018_Feb_12_1202,60.0027520447,MAFE4ImagesEEG,001,203024,
AFNE01.JPG,AFNE01.JPG,AFNE01.JPG,AFNE01.JPG,AFNE01.JPG,AFNE01.JPG,0,4,4,4,,,,,,,,,,,,,,,,,,,,,,,AMSA14.jpg,AMNE03.jpg,AMSA05.jpg,AMNE09.jpg,AMNE09.jpg,MN,1,num_4,32,num_2,1.46663685911,,,2018_Feb_12_1202,60.0027520447,MAFE4ImagesEEG,001,203024,
AFNE01.JPG,AFNE01.JPG,AFNE01.JPG,AFNE01.JPG,AFNE01.JPG,AFNE01.JPG,0,5,5,5,,,,,,,,,,,,,,,,,,,,,,,AMNE04.jpg,AMSA17.jpg,AMSA06.jpg,AMNE20.jpg,AMNE04.jpg,MN,1,num_8,32,num_6,1.30009651044,,,2018_Feb_12_1202,60.0027520447,MAFE4ImagesEEG,001,203024,
AFNE01.JPG,AFNE01.JPG,AFNE01.JPG,AFNE01.JPG,AFNE01.JPG,AFNE01.JPG,0,6,6,0,,,,,,,,,,,,,,,,,,,,,,,AMSA12.jpg,AMNE14.jpg,AMNE02.jpg,AMSA09.jpg,AMSA12.jpg,MS,2,num_8,32,num_4,1.11701371195,,,2018_Feb_12_1202,60.0027520447,MAFE4ImagesEEG,001,203024,
AFNE01.JPG,AFNE01.JPG,AFNE01.JPG,AFNE01.JPG,AFNE01.JPG,AFNE01.JPG,0,7,7,6,,,,,,,,,,,,,,,,,,,,,,,AMSA15.jpg,AMNE09.jpg,AMSA18.jpg,AMNE15.jpg,AMSA15.jpg,MS,2,num_8,16,num_8,0.733487459365,,,2018_Feb_12_1202,60.0027520447,MAFE4ImagesEEG,001,203024,
AFNE01.JPG,AFNE01.JPG,AFNE01.JPG,AFNE01.JPG,AFNE01.JPG,AFNE01.JPG,0,8,8,3,,,,,,,,,,,,,,,,,,,,,,,AMNE20.jpg,AMSA01.jpg,AMSA03.jpg,AMNE19.jpg,AMSA03.jpg,MS,2,num_2,16,num_2,1.41675291886,,,2018_Feb_12_1202,60.0027520447,MAFE4ImagesEEG,001,203024,
AFNE01.JPG,AFNE01.JPG,AFNE01.JPG,AFNE01.JPG,AFNE01.JPG,AFNE01.JPG,0,9,9,8,,,,,,,,,,,,,,,,,,,,,,,AMSA09.jpg,AMNE19.jpg,AMSA06.jpg,AMNE05.jpg,AMSA09.jpg,MS,2,num_8,32,num_4,1.73337744549,,,2018_Feb_12_1202,60.0027520447,MAFE4ImagesEEG,001,203024,
AFNE01.JPG,AFNE01.JPG,AFNE01.JPG,AFNE01.JPG,AFNE01.JPG,AFNE01.JPG,1,0,10,7,,,,,,,,,,,,,,,,,,,,,,,AMSA14.jpg,AMNE08.jpg,AMNE06.jpg,AMSA20.jpg,AMSA20.jpg,MS,2,num_4,32,num_2,1.23344624415,,,2018_Feb_12_1202,60.0027520447,MAFE4ImagesEEG,001,203024,
AFNE01.JPG,AFNE01.JPG,AFNE01.JPG,AFNE01.JPG,AFNE01.JPG,AFNE01.JPG,1,1,11,1,,,,,,,,,,,,,,,,,,,,,,,AMNE13.jpg,AMSA01.jpg,AMNE03.jpg,AMSA13.jpg,AMSA01.jpg,MS,2,num_6,16,num_6,3.36666306364,,,2018_Feb_12_1202,60.0027520447,MAFE4ImagesEEG,001,203024,
AFNE01.JPG,AFNE01.JPG,AFNE01.JPG,AFNE01.JPG,AFNE01.JPG,AFNE01.JPG,1,2,12,6,,,,,,,,,,,,,,,,,,,,,,,AMSA12.jpg,AMSA04.jpg,AMNE17.jpg,AMNE09.jpg,AMNE17.jpg,MN,1,num_2,16,num_2,2.78329891269,,,2018_Feb_12_1202,60.0027520447,MAFE4ImagesEEG,001,203024,
AFNE01.JPG,AFNE01.JPG,AFNE01.JPG,AFNE01.JPG,AFNE01.JPG,AFNE01.JPG,1,3,13,3,,,,,,,,,,,,,,,,,,,,,,,AMNE03.jpg,AMSA04.jpg,AMNE05.jpg,AMSA12.jpg,AMSA04.jpg,MS,2,num_6,32,num_8,0.633504683152,,,2018_Feb_12_1202,60.0027520447,MAFE4ImagesEEG,001,203024,
AFNE01.JPG,AFNE01.JPG,AFNE01.JPG,AFNE01.JPG,AFNE01.JPG,AFNE01.JPG,1,4,14,9,,,,,,,,,,,,,,,,,,,,,,,AMNE08.jpg,AMNE13.jpg,AMSA16.jpg,AMSA02.jpg,AMNE08.jpg,MN,1,num_8,32,num_6,1.36673651286,,,2018_Feb_12_1202,60.0027520447,MAFE4ImagesEEG,001,203024,
AFNE01.JPG,AFNE01.JPG,AFNE01.JPG,AFNE01.JPG,AFNE01.JPG,AFNE01.JPG,1,5,15,4,,,,,,,,,,,,,,,,,,,,,,,AMNE12.jpg,AMNE09.jpg,AMSA06.jpg,AMSA10.jpg,AMSA10.jpg,MS,2,num_4,16,num_4,0.483508387581,,,2018_Feb_12_1202,60.0027520447,MAFE4ImagesEEG,001,203024,
AFNE01.JPG,AFNE01.JPG,AFNE01.JPG,AFNE01.JPG,AFNE01.JPG,AFNE01.JPG,1,6,16,8,,,,,,,,,,,,,,,,,,,,,,,AMSA12.jpg,AMNE20.jpg,AMNE05.jpg,AMSA07.jpg,AMNE05.jpg,MN,1,num_2,16,num_2,0.966790974606,,,2018_Feb_12_1202,60.0027520447,MAFE4ImagesEEG,001,203024,
AFNE01.JPG,AFNE01.JPG,AFNE01.JPG,AFNE01.JPG,AFNE01.JPG,AFNE01.JPG,1,7,17,5,,,,,,,,,,,,,,,,,,,,,,,AMNE08.jpg,AMSA09.jpg,AMSA10.jpg,AMNE19.jpg,AMSA09.jpg,MS,2,num_6,16,num_6,1.40010462515,,,2018_Feb_12_1202,60.0027520447,MAFE4ImagesEEG,001,203024,
AFNE01.JPG,AFNE01.JPG,AFNE01.JPG,AFNE01.JPG,AFNE01.JPG,AFNE01.JPG,1,8,18,0,,,,,,,,,,,,,,,,,,,,,,,AMSA12.jpg,AMNE01.jpg,AMNE07.jpg,AMSA11.jpg,AMNE07.jpg,MN,1,num_2,16,num_2,0.933450125158,,,2018_Feb_12_1202,60.0027520447,MAFE4ImagesEEG,001,203024,
AFNE01.JPG,AFNE01.JPG,AFNE01.JPG,AFNE01.JPG,AFNE01.JPG,AFNE01.JPG,1,9,19,2,,,,,,,,,,,,,,,,,,,,,,,AMSA16.jpg,AMNE17.jpg,AMSA14.jpg,AMNE19.jpg,AMSA14.jpg,MS,2,num_2,32,num_6,4.5665388091,,,2018_Feb_12_1202,60.0027520447,MAFE4ImagesEEG,001,203024,
AFNE01.JPG,AFNE01.JPG,AFNE01.JPG,AFNE01.JPG,AFNE01.JPG,AFNE01.JPG,2,0,20,8,,,,,,,,,,,,,,,,,,,,,,,AMNE16.jpg,AMSA11.jpg,AMNE17.jpg,AMSA19.jpg,AMNE16.jpg,MN,1,num_8,16,num_8,1.73336846498,,,2018_Feb_12_1202,60.0027520447,MAFE4ImagesEEG,001,203024,
AFNE01.JPG,AFNE01.JPG,AFNE01.JPG,AFNE01.JPG,AFNE01.JPG,AFNE01.JPG,2,1,21,1,,,,,,,,,,,,,,,,,,,,,,,AMNE11.jpg,AMSA01.jpg,AMNE17.jpg,AMSA09.jpg,AMNE11.jpg,MN,1,num_8,32,num_4,2.46670710109,,,2018_Feb_12_1202,60.0027520447,MAFE4ImagesEEG,001,203024,
AFNE01.JPG,AFNE01.JPG,AFNE01.JPG,AFNE01.JPG,AFNE01.JPG,AFNE01.JPG,2,2,22,7,,,,,,,,,,,,,,,,,,,,,,,AMSA01.jpg,AMNE18.jpg,AMNE04.jpg,AMSA06.jpg,AMSA01.jpg,MS,2,num_8,16,num_8,1.06675611017,,,2018_Feb_12_1202,60.0027520447,MAFE4ImagesEEG,001,203024,
AFNE01.JPG,AFNE01.JPG,AFNE01.JPG,AFNE01.JPG,AFNE01.JPG,AFNE01.JPG,2,3,23,6,,,,,,,,,,,,,,,,,,,,,,,AMSA11.jpg,AMNE12.jpg,AMNE07.jpg,AMSA19.jpg,AMSA11.jpg,MS,2,num_8,32,num_2,1.23342924495,,,2018_Feb_12_1202,60.0027520447,MAFE4ImagesEEG,001,203024,
AFNE01.JPG,AFNE01.JPG,AFNE01.JPG,AFNE01.JPG,AFNE01.JPG,AFNE01.JPG,2,4,24,5,,,,,,,,,,,,,,,,,,,,,,,AMSA13.jpg,AMSA09.jpg,AMNE15.jpg,AMNE14.jpg,AMNE14.jpg,MN,1,num_4,32,num_6,1.01674547745,,,2018_Feb_12_1202,60.0027520447,MAFE4ImagesEEG,001,203024,
AFNE01.JPG,AFNE01.JPG,AFNE01.JPG,AFNE01.JPG,AFNE01.JPG,AFNE01.JPG,2,5,25,3,,,,,,,,,,,,,,,,,,,,,,,AMSA20.jpg,AMNE17.jpg,AMSA06.jpg,AMNE16.jpg,AMSA06.jpg,MS,2,num_2,16,num_2,1.51674082689,,,2018_Feb_12_1202,60.0027520447,MAFE4ImagesEEG,001,203024,
AFNE01.JPG,AFNE01.JPG,AFNE01.JPG,AFNE01.JPG,AFNE01.JPG,AFNE01.JPG,2,6,26,9,,,,,,,,,,,,,,,,,,,,,,,AMSA02.jpg,AMNE07.jpg,AMNE13.jpg,AMSA11.jpg,AMSA11.jpg,MS,2,num_4,32,num_8,1.53345198557,,,2018_Feb_12_1202,60.0027520447,MAFE4ImagesEEG,001,203024,
AFNE01.JPG,AFNE01.JPG,AFNE01.JPG,AFNE01.JPG,AFNE01.JPG,AFNE01.JPG,2,7,27,4,,,,,,,,,,,,,,,,,,,,,,,AMSA11.jpg,AMSA19.jpg,AMNE11.jpg,AMNE13.jpg,AMSA19.jpg,MS,2,num_6,32,num_4,1.14998410735,,,2018_Feb_12_1202,60.0027520447,MAFE4ImagesEEG,001,203024,
AFNE01.JPG,AFNE01.JPG,AFNE01.JPG,AFNE01.JPG,AFNE01.JPG,AFNE01.JPG,2,8,28,2,,,,,,,,,,,,,,,,,,,,,,,AMSA08.jpg,AMSA02.jpg,AMNE18.jpg,AMNE05.jpg,AMSA02.jpg,MS,2,num_6,16,num_6,2.26649586228,,,2018_Feb_12_1202,60.0027520447,MAFE4ImagesEEG,001,203024,
AFNE01.JPG,AFNE01.JPG,AFNE01.JPG,AFNE01.JPG,AFNE01.JPG,AFNE01.JPG,2,9,29,0,,,,,,,,,,,,,,,,,,,,,,,AMNE20.jpg,AMSA05.jpg,AMNE03.jpg,AMSA14.jpg,AMNE03.jpg,MN,1,num_2,32,num_8,2.06669003796,,,2018_Feb_12_1202,60.0027520447,MAFE4ImagesEEG,001,203024,
AFNE01.JPG,AFNE01.JPG,AFNE01.JPG,AFNE01.JPG,AFNE01.JPG,AFNE01.JPG,3,0,30,1,,,,,,,,,,,,,,,,,,,,,,,AMSA19.jpg,AMNE10.jpg,AMSA05.jpg,AMNE09.jpg,AMSA19.jpg,MS,2,num_8,32,num_2,2.40003983583,,,2018_Feb_12_1202,60.0027520447,MAFE4ImagesEEG,001,203024,
AFNE01.JPG,AFNE01.JPG,AFNE01.JPG,AFNE01.JPG,AFNE01.JPG,AFNE01.JPG,3,1,31,4,,,,,,,,,,,,,,,,,,,,,,,AMNE02.jpg,AMNE17.jpg,AMSA12.jpg,AMSA03.jpg,AMSA03.jpg,MS,2,num_4,32,num_8,1.30010260455,,,2018_Feb_12_1202,60.0027520447,MAFE4ImagesEEG,001,203024,
AFNE01.JPG,AFNE01.JPG,AFNE01.JPG,AFNE01.JPG,AFNE01.JPG,AFNE01.JPG,3,2,32,8,,,,,,,,,,,,,,,,,,,,,,,AMSA16.jpg,AMNE14.jpg,AMNE03.jpg,AMSA07.jpg,AMNE03.jpg,MN,1,num_2,32,num_6,1.21670365334,,,2018_Feb_12_1202,60.0027520447,MAFE4ImagesEEG,001,203024,
AFNE01.JPG,AFNE01.JPG,AFNE01.JPG,AFNE01.JPG,AFNE01.JPG,AFNE01.JPG,3,3,33,0,,,,,,,,,,,,,,,,,,,,,,,AMNE13.jpg,AMSA18.jpg,AMNE08.jpg,AMSA10.jpg,AMNE08.jpg,MN,1,num_2,16,num_2,1.15010085632,,,2018_Feb_12_1202,60.0027520447,MAFE4ImagesEEG,001,203024,
AFNE01.JPG,AFNE01.JPG,AFNE01.JPG,AFNE01.JPG,AFNE01.JPG,AFNE01.JPG,3,4,34,9,,,,,,,,,,,,,,,,,,,,,,,AMSA12.jpg,AMSA03.jpg,AMNE20.jpg,AMNE06.jpg,AMSA03.jpg,MS,2,num_6,32,num_4,2.00014818157,,,2018_Feb_12_1202,60.0027520447,MAFE4ImagesEEG,001,203024,
AFNE01.JPG,AFNE01.JPG,AFNE01.JPG,AFNE01.JPG,AFNE01.JPG,AFNE01.JPG,3,5,35,5,,,,,,,,,,,,,,,,,,,,,,,AMSA01.jpg,AMSA16.jpg,AMNE10.jpg,AMNE13.jpg,AMSA16.jpg,MS,2,num_6,32,num_2,1.31675795442,,,2018_Feb_12_1202,60.0027520447,MAFE4ImagesEEG,001,203024,
AFNE01.JPG,AFNE01.JPG,AFNE01.JPG,AFNE01.JPG,AFNE01.JPG,AFNE01.JPG,3,6,36,7,,,,,,,,,,,,,,,,,,,,,,,AMSA07.jpg,AMNE09.jpg,AMNE10.jpg,AMSA16.jpg,AMSA07.jpg,MS,2,num_8,16,num_8,1.00015010592,,,2018_Feb_12_1202,60.0027520447,MAFE4ImagesEEG,001,203024,
AFNE01.JPG,AFNE01.JPG,AFNE01.JPG,AFNE01.JPG,AFNE01.JPG,AFNE01.JPG,3,7,37,3,,,,,,,,,,,,,,,,,,,,,,,AMNE07.jpg,AMNE10.jpg,AMSA02.jpg,AMSA08.jpg,AMSA02.jpg,MS,2,num_2,32,num_6,1.04991601454,,,2018_Feb_12_1202,60.0027520447,MAFE4ImagesEEG,001,203024,
AFNE01.JPG,AFNE01.JPG,AFNE01.JPG,AFNE01.JPG,AFNE01.JPG,AFNE01.JPG,3,8,38,2,,,,,,,,,,,,,,,,,,,,,,,AMNE05.jpg,AMSA16.jpg,AMNE17.jpg,AMSA07.jpg,AMSA16.jpg,MS,2,num_6,32,num_4,1.0834765702,,,2018_Feb_12_1202,60.0027520447,MAFE4ImagesEEG,001,203024,
AFNE01.JPG,AFNE01.JPG,AFNE01.JPG,AFNE01.JPG,AFNE01.JPG,AFNE01.JPG,3,9,39,6,,,,,,,,,,,,,,,,,,,,,,,AMSA16.jpg,AMSA06.jpg,AMNE16.jpg,AMNE15.jpg,AMNE16.jpg,MN,1,num_2,32,num_8,1.0501094202,,,2018_Feb_12_1202,60.0027520447,MAFE4ImagesEEG,001,203024,
AFNE01.JPG,AFNE01.JPG,AFNE01.JPG,AFNE01.JPG,AFNE01.JPG,AFNE01.JPG,4,0,40,9,,,,,,,,,,,,,,,,,,,,,,,AMSA04.jpg,AMSA08.jpg,AMNE14.jpg,AMNE20.jpg,AMNE20.jpg,MN,1,num_4,32,num_6,1.28329682793,,,2018_Feb_12_1202,60.0027520447,MAFE4ImagesEEG,001,203024,
AFNE01.JPG,AFNE01.JPG,AFNE01.JPG,AFNE01.JPG,AFNE01.JPG,AFNE01.JPG,4,1,41,8,,,,,,,,,,,,,,,,,,,,,,,AMSA15.jpg,AMNE05.jpg,AMSA02.jpg,AMNE04.jpg,AMSA15.jpg,MS,2,num_8,32,num_2,1.35011387849,,,2018_Feb_12_1202,60.0027520447,MAFE4ImagesEEG,001,203024,
AFNE01.JPG,AFNE01.JPG,AFNE01.JPG,AFNE01.JPG,AFNE01.JPG,AFNE01.JPG,4,2,42,6,,,,,,,,,,,,,,,,,,,,,,,AMSA19.jpg,AMNE19.jpg,AMSA09.jpg,AMNE13.jpg,AMNE19.jpg,MN,1,num_6,32,num_8,1.21673219907,,,2018_Feb_12_1202,60.0027520447,MAFE4ImagesEEG,001,203024,
AFNE01.JPG,AFNE01.JPG,AFNE01.JPG,AFNE01.JPG,AFNE01.JPG,AFNE01.JPG,4,3,43,7,,,,,,,,,,,,,,,,,,,,,,,AMSA11.jpg,AMNE07.jpg,AMSA14.jpg,AMNE13.jpg,AMNE13.jpg,MN,1,num_4,16,num_4,0.950122795068,,,2018_Feb_12_1202,60.0027520447,MAFE4ImagesEEG,001,203024,
AFNE01.JPG,AFNE01.JPG,AFNE01.JPG,AFNE01.JPG,AFNE01.JPG,AFNE01.JPG,4,4,44,0,,,,,,,,,,,,,,,,,,,,,,,AMNE08.jpg,AMSA15.jpg,AMSA16.jpg,AMNE05.jpg,AMSA15.jpg,MS,2,num_6,16,num_6,0.733526589349,,,2018_Feb_12_1202,60.0027520447,MAFE4ImagesEEG,001,203024,
AFNE01.JPG,AFNE01.JPG,AFNE01.JPG,AFNE01.JPG,AFNE01.JPG,AFNE01.JPG,4,5,45,2,,,,,,,,,,,,,,,,,,,,,,,AMNE05.jpg,AMSA19.jpg,AMNE17.jpg,AMSA17.jpg,AMSA17.jpg,MS,2,num_4,32,num_8,1.00014529494,,,2018_Feb_12_1202,60.0027520447,MAFE4ImagesEEG,001,203024,
AFNE01.JPG,AFNE01.JPG,AFNE01.JPG,AFNE01.JPG,AFNE01.JPG,AFNE01.JPG,4,6,46,5,,,,,,,,,,,,,,,,,,,,,,,AMNE17.jpg,AMNE10.jpg,AMSA05.jpg,AMSA15.jpg,AMNE17.jpg,MN,1,num_8,32,num_4,1.10036285245,,,2018_Feb_12_1202,60.0027520447,MAFE4ImagesEEG,001,203024,
AFNE01.JPG,AFNE01.JPG,AFNE01.JPG,AFNE01.JPG,AFNE01.JPG,AFNE01.JPG,4,7,47,3,,,,,,,,,,,,,,,,,,,,,,,AMNE12.jpg,AMSA09.jpg,AMSA11.jpg,AMNE04.jpg,AMSA11.jpg,MS,2,num_2,32,num_4,1.93335486576,,,2018_Feb_12_1202,60.0027520447,MAFE4ImagesEEG,001,203024,
AFNE01.JPG,AFNE01.JPG,AFNE01.JPG,AFNE01.JPG,AFNE01.JPG,AFNE01.JPG,4,8,48,4,,,,,,,,,,,,,,,,,,,,,,,AMNE17.jpg,AMSA14.jpg,AMSA05.jpg,AMNE01.jpg,AMNE01.jpg,MN,1,num_4,32,num_8,2.53336987621,,,2018_Feb_12_1202,60.0027520447,MAFE4ImagesEEG,001,203024,
AFNE01.JPG,AFNE01.JPG,AFNE01.JPG,AFNE01.JPG,AFNE01.JPG,AFNE01.JPG,4,9,49,1,,,,,,,,,,,,,,,,,,,,,,,AMNE01.jpg,AMSA02.jpg,AMNE19.jpg,AMSA09.jpg,AMNE19.jpg,MN,1,num_2,32,num_6,0.966812784784,,,2018_Feb_12_1202,60.0027520447,MAFE4ImagesEEG,001,203024,
AFNE01.JPG,AFNE01.JPG,AFNE01.JPG,AFNE01.JPG,AFNE01.JPG,AFNE01.JPG,5,0,50,5,,,,,,,,,,,,,,,,,,,,,,,AMSA15.jpg,AMNE04.jpg,AMSA08.jpg,AMNE03.jpg,AMNE03.jpg,MN,1,num_4,32,num_6,4.26651382353,,,2018_Feb_12_1202,60.0027520447,MAFE4ImagesEEG,001,203024,
AFNE01.JPG,AFNE01.JPG,AFNE01.JPG,AFNE01.JPG,AFNE01.JPG,AFNE01.JPG,5,1,51,8,,,,,,,,,,,,,,,,,,,,,,,AMNE20.jpg,AMNE09.jpg,AMSA16.jpg,AMSA19.jpg,AMNE09.jpg,MN,1,num_6,48,None,,,,2018_Feb_12_1202,60.0027520447,MAFE4ImagesEEG,001,203024,
AFNE01.JPG,AFNE01.JPG,AFNE01.JPG,AFNE01.JPG,AFNE01.JPG,AFNE01.JPG,5,2,52,4,,,,,,,,,,,,,,,,,,,,,,,AMSA19.jpg,AMNE01.jpg,AMSA16.jpg,AMNE09.jpg,AMNE09.jpg,MN,1,num_4,16,num_4,0.766780839069,,,2018_Feb_12_1202,60.0027520447,MAFE4ImagesEEG,001,203024,
AFNE01.JPG,AFNE01.JPG,AFNE01.JPG,AFNE01.JPG,AFNE01.JPG,AFNE01.JPG,5,3,53,9,,,,,,,,,,,,,,,,,,,,,,,AMNE07.jpg,AMSA07.jpg,AMNE20.jpg,AMSA08.jpg,AMSA07.jpg,MS,2,num_6,32,num_8,1.70006963238,,,2018_Feb_12_1202,60.0027520447,MAFE4ImagesEEG,001,203024,
AFNE01.JPG,AFNE01.JPG,AFNE01.JPG,AFNE01.JPG,AFNE01.JPG,AFNE01.JPG,5,4,54,3,,,,,,,,,,,,,,,,,,,,,,,AMNE05.jpg,AMNE18.jpg,AMSA05.jpg,AMSA03.jpg,AMNE18.jpg,MN,1,num_6,16,num_6,0.750149865402,,,2018_Feb_12_1202,60.0027520447,MAFE4ImagesEEG,001,203024,
AFNE01.JPG,AFNE01.JPG,AFNE01.JPG,AFNE01.JPG,AFNE01.JPG,AFNE01.JPG,5,5,55,1,,,,,,,,,,,,,,,,,,,,,,,AMSA13.jpg,AMSA10.jpg,AMNE11.jpg,AMNE12.jpg,AMNE12.jpg,MN,1,num_4,16,num_4,2.48327841749,,,2018_Feb_12_1202,60.0027520447,MAFE4ImagesEEG,001,203024,
AFNE01.JPG,AFNE01.JPG,AFNE01.JPG,AFNE01.JPG,AFNE01.JPG,AFNE01.JPG,5,6,56,2,,,,,,,,,,,,,,,,,,,,,,,AMNE13.jpg,AMSA01.jpg,AMSA08.jpg,AMNE20.jpg,AMSA08.jpg,MS,2,num_2,32,num_6,2.21658016858,,,2018_Feb_12_1202,60.0027520447,MAFE4ImagesEEG,001,203024,
AFNE01.JPG,AFNE01.JPG,AFNE01.JPG,AFNE01.JPG,AFNE01.JPG,AFNE01.JPG,5,7,57,6,,,,,,,,,,,,,,,,,,,,,,,AMNE16.jpg,AMSA05.jpg,AMSA20.jpg,AMNE04.jpg,AMSA05.jpg,MS,2,num_6,32,num_8,0.666842004051,,,2018_Feb_12_1202,60.0027520447,MAFE4ImagesEEG,001,203024,
AFNE01.JPG,AFNE01.JPG,AFNE01.JPG,AFNE01.JPG,AFNE01.JPG,AFNE01.JPG,5,8,58,7,,,,,,,,,,,,,,,,,,,,,,,AMSA07.jpg,AMNE13.jpg,AMSA15.jpg,AMNE14.jpg,AMNE13.jpg,MN,1,num_6,16,num_6,1.03353233077,,,2018_Feb_12_1202,60.0027520447,MAFE4ImagesEEG,001,203024,
AFNE01.JPG,AFNE01.JPG,AFNE01.JPG,AFNE01.JPG,AFNE01.JPG,AFNE01.JPG,5,9,59,0,,,,,,,,,,,,,,,,,,,,,,,AMNE02.jpg,AMNE11.jpg,AMSA18.jpg,AMSA06.jpg,AMSA18.jpg,MS,2,num_2,16,num_2,1.03346401337,,,2018_Feb_12_1202,60.0027520447,MAFE4ImagesEEG,001,203024,
,,,,,,,,,,,,,,,,,,,,,,,,,,,,,,,,,,,,,,,,,,,space,21.3315427527,2018_Feb_12_1202,60.0027520447,MAFE4ImagesEEG,001,203024,
AFNE01.JPG,AFNE01.JPG,AFNE01.JPG,AFNE01.JPG,AFNE01.JPG,AFNE01.JPG,,,,,0,0,0,0,,,,,,,,,,,,,,,,,,,AFNE14.jpg,AFNE03.jpg,AFSA06.jpg,AFSA01.jpg,AFSA01.jpg,FS,4,num_4,32,num_2,2.14991322393,,,2018_Feb_12_1202,60.0027520447,MAFE4ImagesEEG,001,203024,
AFNE01.JPG,AFNE01.JPG,AFNE01.JPG,AFNE01.JPG,AFNE01.JPG,AFNE01.JPG,,,,,0,1,1,5,,,,,,,,,,,,,,,,,,,AFNE03.jpg,AFSA07.jpg,AFSA10.jpg,AFNE06.jpg,AFSA10.jpg,FS,4,num_2,32,num_8,2.0166922349,,,2018_Feb_12_1202,60.0027520447,MAFE4ImagesEEG,001,203024,
AFNE01.JPG,AFNE01.JPG,AFNE01.JPG,AFNE01.JPG,AFNE01.JPG,AFNE01.JPG,,,,,0,2,2,7,,,,,,,,,,,,,,,,,,,AFSA19.jpg,AFSA08.jpg,AFNE20.jpg,AFNE02.jpg,AFNE20.jpg,FN,3,num_2,16,num_2,0.716677833581,,,2018_Feb_12_1202,60.0027520447,MAFE4ImagesEEG,001,203024,
AFNE01.JPG,AFNE01.JPG,AFNE01.JPG,AFNE01.JPG,AFNE01.JPG,AFNE01.JPG,,,,,0,3,3,1,,,,,,,,,,,,,,,,,,,AFSA02.jpg,AFNE04.jpg,AFSA14.jpg,AFNE03.jpg,AFNE04.jpg,FN,3,num_6,32,num_2,1.68336585094,,,2018_Feb_12_1202,60.0027520447,MAFE4ImagesEEG,001,203024,
AFNE01.JPG,AFNE01.JPG,AFNE01.JPG,AFNE01.JPG,AFNE01.JPG,AFNE01.JPG,,,,,0,4,4,9,,,,,,,,,,,,,,,,,,,AFNE13.jpg,AFSA17.jpg,AFNE17.jpg,AFSA09.jpg,AFNE17.jpg,FN,3,num_2,32,num_6,1.18346255389,,,2018_Feb_12_1202,60.0027520447,MAFE4ImagesEEG,001,203024,
AFNE01.JPG,AFNE01.JPG,AFNE01.JPG,AFNE01.JPG,AFNE01.JPG,AFNE01.JPG,,,,,0,5,5,8,,,,,,,,,,,,,,,,,,,AFNE18.jpg,AFSA18.jpg,AFNE08.jpg,AFSA07.jpg,AFSA18.jpg,FS,4,num_6,16,num_6,0.783447414869,,,2018_Feb_12_1202,60.0027520447,MAFE4ImagesEEG,001,203024,
AFNE01.JPG,AFNE01.JPG,AFNE01.JPG,AFNE01.JPG,AFNE01.JPG,AFNE01.JPG,,,,,0,6,6,4,,,,,,,,,,,,,,,,,,,AFNE19.jpg,AFNE05.jpg,AFSA08.jpg,AFSA14.jpg,AFNE05.jpg,FN,3,num_6,32,num_4,1.00009654253,,,2018_Feb_12_1202,60.0027520447,MAFE4ImagesEEG,001,203024,
AFNE01.JPG,AFNE01.JPG,AFNE01.JPG,AFNE01.JPG,AFNE01.JPG,AFNE01.JPG,,,,,0,7,7,2,,,,,,,,,,,,,,,,,,,AFSA19.jpg,AFNE02.jpg,AFNE11.jpg,AFSA04.jpg,AFNE02.jpg,FN,3,num_6,32,num_8,0.833469914738,,,2018_Feb_12_1202,60.0027520447,MAFE4ImagesEEG,001,203024,
AFNE01.JPG,AFNE01.JPG,AFNE01.JPG,AFNE01.JPG,AFNE01.JPG,AFNE01.JPG,,,,,0,8,8,3,,,,,,,,,,,,,,,,,,,AFNE06.jpg,AFSA02.jpg,AFNE15.jpg,AFSA16.jpg,AFSA02.jpg,FS,4,num_6,32,num_8,1.78296951344,,,2018_Feb_12_1202,60.0027520447,MAFE4ImagesEEG,001,203024,
AFNE01.JPG,AFNE01.JPG,AFNE01.JPG,AFNE01.JPG,AFNE01.JPG,AFNE01.JPG,,,,,0,9,9,6,,,,,,,,,,,,,,,,,,,AFNE09.jpg,AFNE08.jpg,AFSA09.jpg,AFSA11.jpg,AFSA11.jpg,FS,4,num_4,16,num_4,1.30008849199,,,2018_Feb_12_1202,60.0027520447,MAFE4ImagesEEG,001,203024,
AFNE01.JPG,AFNE01.JPG,AFNE01.JPG,AFNE01.JPG,AFNE01.JPG,AFNE01.JPG,,,,,1,0,10,6,,,,,,,,,,,,,,,,,,,AFSA09.jpg,AFNE06.jpg,AFNE03.jpg,AFSA03.jpg,AFSA03.jpg,FS,4,num_4,32,num_2,2.08368312637,,,2018_Feb_12_1202,60.0027520447,MAFE4ImagesEEG,001,203024,
AFNE01.JPG,AFNE01.JPG,AFNE01.JPG,AFNE01.JPG,AFNE01.JPG,AFNE01.JPG,,,,,1,1,11,8,,,,,,,,,,,,,,,,,,,AFNE10.jpg,AFNE06.jpg,AFSA08.jpg,AFSA10.jpg,AFNE06.jpg,FN,3,num_6,16,num_6,1.71674454748,,,2018_Feb_12_1202,60.0027520447,MAFE4ImagesEEG,001,203024,
AFNE01.JPG,AFNE01.JPG,AFNE01.JPG,AFNE01.JPG,AFNE01.JPG,AFNE01.JPG,,,,,1,2,12,7,,,,,,,,,,,,,,,,,,,AFNE10.jpg,AFSA01.jpg,AFSA11.jpg,AFNE15.jpg,AFNE15.jpg,FN,3,num_4,32,num_8,1.05015079561,,,2018_Feb_12_1202,60.0027520447,MAFE4ImagesEEG,001,203024,
AFNE01.JPG,AFNE01.JPG,AFNE01.JPG,AFNE01.JPG,AFNE01.JPG,AFNE01.JPG,,,,,1,3,13,0,,,,,,,,,,,,,,,,,,,AFNE09.jpg,AFNE18.jpg,AFSA01.jpg,AFSA12.jpg,AFSA01.jpg,FS,4,num_2,16,num_2,1.90004416578,,,2018_Feb_12_1202,60.0027520447,MAFE4ImagesEEG,001,203024,
AFNE01.JPG,AFNE01.JPG,AFNE01.JPG,AFNE01.JPG,AFNE01.JPG,AFNE01.JPG,,,,,1,4,14,4,,,,,,,,,,,,,,,,,,,AFSA04.jpg,AFNE12.jpg,AFSA13.jpg,AFNE18.jpg,AFSA13.jpg,FS,4,num_2,32,num_6,1.06677310937,,,2018_Feb_12_1202,60.0027520447,MAFE4ImagesEEG,001,203024,
AFNE01.JPG,AFNE01.JPG,AFNE01.JPG,AFNE01.JPG,AFNE01.JPG,AFNE01.JPG,,,,,1,5,15,5,,,,,,,,,,,,,,,,,,,AFSA06.jpg,AFNE10.jpg,AFNE08.jpg,AFSA08.jpg,AFSA06.jpg,FS,4,num_8,16,num_8,2.13338841498,,,2018_Feb_12_1202,60.0027520447,MAFE4ImagesEEG,001,203024,
AFNE01.JPG,AFNE01.JPG,AFNE01.JPG,AFNE01.JPG,AFNE01.JPG,AFNE01.JPG,,,,,1,6,16,9,,,,,,,,,,,,,,,,,,,AFNE08.jpg,AFSA06.jpg,AFSA14.jpg,AFNE14.jpg,AFSA06.jpg,FS,4,num_6,48,None,,,,2018_Feb_12_1202,60.0027520447,MAFE4ImagesEEG,001,203024,
AFNE01.JPG,AFNE01.JPG,AFNE01.JPG,AFNE01.JPG,AFNE01.JPG,AFNE01.JPG,,,,,1,7,17,2,,,,,,,,,,,,,,,,,,,AFSA17.jpg,AFNE01.jpg,AFNE12.jpg,AFSA12.jpg,AFSA17.jpg,FS,4,num_8,32,num_6,0.683485807618,,,2018_Feb_12_1202,60.0027520447,MAFE4ImagesEEG,001,203024,
AFNE01.JPG,AFNE01.JPG,AFNE01.JPG,AFNE01.JPG,AFNE01.JPG,AFNE01.JPG,,,,,1,8,18,3,,,,,,,,,,,,,,,,,,,AFNE04.jpg,AFNE05.jpg,AFSA01.jpg,AFSA04.jpg,AFNE05.jpg,FN,3,num_6,32,num_8,0.650149127701,,,2018_Feb_12_1202,60.0027520447,MAFE4ImagesEEG,001,203024,
AFNE01.JPG,AFNE01.JPG,AFNE01.JPG,AFNE01.JPG,AFNE01.JPG,AFNE01.JPG,,,,,1,9,19,1,,,,,,,,,,,,,,,,,,,AFNE09.jpg,AFNE13.jpg,AFSA14.jpg,AFSA05.jpg,AFNE13.jpg,FN,3,num_6,32,num_2,1.05020147236,,,2018_Feb_12_1202,60.0027520447,MAFE4ImagesEEG,001,203024,
AFNE01.JPG,AFNE01.JPG,AFNE01.JPG,AFNE01.JPG,AFNE01.JPG,AFNE01.JPG,,,,,2,0,20,5,,,,,,,,,,,,,,,,,,,AFSA06.jpg,AFSA16.jpg,AFNE05.jpg,AFNE01.jpg,AFNE01.jpg,FN,3,num_4,16,num_4,0.733521457762,,,2018_Feb_12_1202,60.0027520447,MAFE4ImagesEEG,001,203024,
AFNE01.JPG,AFNE01.JPG,AFNE01.JPG,AFNE01.JPG,AFNE01.JPG,AFNE01.JPG,,,,,2,1,21,9,,,,,,,,,,,,,,,,,,,AFSA16.jpg,AFNE12.jpg,AFNE07.jpg,AFSA18.jpg,AFNE12.jpg,FN,3,num_6,16,num_6,1.33344666124,,,2018_Feb_12_1202,60.0027520447,MAFE4ImagesEEG,001,203024,
AFNE01.JPG,AFNE01.JPG,AFNE01.JPG,AFNE01.JPG,AFNE01.JPG,AFNE01.JPG,,,,,2,2,22,4,,,,,,,,,,,,,,,,,,,AFSA17.jpg,AFNE08.jpg,AFSA06.jpg,AFNE12.jpg,AFSA06.jpg,FS,4,num_2,32,num_4,1.56669885828,,,2018_Feb_12_1202,60.0027520447,MAFE4ImagesEEG,001,203024,
AFNE01.JPG,AFNE01.JPG,AFNE01.JPG,AFNE01.JPG,AFNE01.JPG,AFNE01.JPG,,,,,2,3,23,6,,,,,,,,,,,,,,,,,,,AFSA02.jpg,AFSA08.jpg,AFNE12.jpg,AFNE02.jpg,AFSA08.jpg,FS,4,num_6,32,num_4,1.2001124511,,,2018_Feb_12_1202,60.0027520447,MAFE4ImagesEEG,001,203024,
AFNE01.JPG,AFNE01.JPG,AFNE01.JPG,AFNE01.JPG,AFNE01.JPG,AFNE01.JPG,,,,,2,4,24,2,,,,,,,,,,,,,,,,,,,AFSA05.jpg,AFNE09.jpg,AFSA03.jpg,AFNE19.jpg,AFSA05.jpg,FS,4,num_8,32,num_6,2.85003674077,,,2018_Feb_12_1202,60.0027520447,MAFE4ImagesEEG,001,203024,
AFNE01.JPG,AFNE01.JPG,AFNE01.JPG,AFNE01.JPG,AFNE01.JPG,AFNE01.JPG,,,,,2,5,25,7,,,,,,,,,,,,,,,,,,,AFSA07.jpg,AFNE15.jpg,AFNE10.jpg,AFSA04.jpg,AFNE10.jpg,FN,3,num_2,32,num_4,2.01667170762,,,2018_Feb_12_1202,60.0027520447,MAFE4ImagesEEG,001,203024,
AFNE01.JPG,AFNE01.JPG,AFNE01.JPG,AFNE01.JPG,AFNE01.JPG,AFNE01.JPG,,,,,2,6,26,8,,,,,,,,,,,,,,,,,,,AFSA03.jpg,AFSA10.jpg,AFNE03.jpg,AFNE02.jpg,AFNE03.jpg,FN,3,num_2,32,num_8,1.44995873678,,,2018_Feb_12_1202,60.0027520447,MAFE4ImagesEEG,001,203024,
AFNE01.JPG,AFNE01.JPG,AFNE01.JPG,AFNE01.JPG,AFNE01.JPG,AFNE01.JPG,,,,,2,7,27,1,,,,,,,,,,,,,,,,,,,AFSA08.jpg,AFNE14.jpg,AFSA19.jpg,AFNE13.jpg,AFSA19.jpg,FS,4,num_2,32,num_6,4.18291633483,,,2018_Feb_12_1202,60.0027520447,MAFE4ImagesEEG,001,203024,
AFNE01.JPG,AFNE01.JPG,AFNE01.JPG,AFNE01.JPG,AFNE01.JPG,AFNE01.JPG,,,,,2,8,28,0,,,,,,,,,,,,,,,,,,,AFSA15.jpg,AFNE09.jpg,AFSA18.jpg,AFNE13.jpg,AFNE09.jpg,FN,3,num_6,32,num_8,2.44997926406,,,2018_Feb_12_1202,60.0027520447,MAFE4ImagesEEG,001,203024,
AFNE01.JPG,AFNE01.JPG,AFNE01.JPG,AFNE01.JPG,AFNE01.JPG,AFNE01.JPG,,,,,2,9,29,3,,,,,,,,,,,,,,,,,,,AFSA16.jpg,AFNE11.jpg,AFSA03.jpg,AFNE03.jpg,AFNE11.jpg,FN,3,num_6,32,num_8,2.06667881203,,,2018_Feb_12_1202,60.0027520447,MAFE4ImagesEEG,001,203024,
AFNE01.JPG,AFNE01.JPG,AFNE01.JPG,AFNE01.JPG,AFNE01.JPG,AFNE01.JPG,,,,,3,0,30,5,,,,,,,,,,,,,,,,,,,AFSA07.jpg,AFSA10.jpg,AFNE03.jpg,AFNE12.jpg,AFSA10.jpg,FS,4,num_6,32,num_8,0.700168420328,,,2018_Feb_12_1202,60.0027520447,MAFE4ImagesEEG,001,203024,
AFNE01.JPG,AFNE01.JPG,AFNE01.JPG,AFNE01.JPG,AFNE01.JPG,AFNE01.JPG,,,,,3,1,31,9,,,,,,,,,,,,,,,,,,,AFSA05.jpg,AFNE10.jpg,AFNE07.jpg,AFSA17.jpg,AFNE10.jpg,FN,3,num_6,32,num_8,3.28325865977,,,2018_Feb_12_1202,60.0027520447,MAFE4ImagesEEG,001,203024,
AFNE01.JPG,AFNE01.JPG,AFNE01.JPG,AFNE01.JPG,AFNE01.JPG,AFNE01.JPG,,,,,3,2,32,2,,,,,,,,,,,,,,,,,,,AFSA07.jpg,AFNE03.jpg,AFSA10.jpg,AFNE06.jpg,AFNE03.jpg,FN,3,num_6,32,num_4,1.11679272261,,,2018_Feb_12_1202,60.0027520447,MAFE4ImagesEEG,001,203024,
AFNE01.JPG,AFNE01.JPG,AFNE01.JPG,AFNE01.JPG,AFNE01.JPG,AFNE01.JPG,,,,,3,3,33,6,,,,,,,,,,,,,,,,,,,AFSA07.jpg,AFNE19.jpg,AFSA06.jpg,AFNE15.jpg,AFNE19.jpg,FN,3,num_6,32,num_2,1.91671523196,,,2018_Feb_12_1202,60.0027520447,MAFE4ImagesEEG,001,203024,
AFNE01.JPG,AFNE01.JPG,AFNE01.JPG,AFNE01.JPG,AFNE01.JPG,AFNE01.JPG,,,,,3,4,34,4,,,,,,,,,,,,,,,,,,,AFNE15.jpg,AFNE03.jpg,AFSA12.jpg,AFSA18.jpg,AFNE03.jpg,FN,3,num_6,16,num_6,0.750115225557,,,2018_Feb_12_1202,60.0027520447,MAFE4ImagesEEG,001,203024,
AFNE01.JPG,AFNE01.JPG,AFNE01.JPG,AFNE01.JPG,AFNE01.JPG,AFNE01.JPG,,,,,3,5,35,0,,,,,,,,,,,,,,,,,,,AFSA14.jpg,AFSA17.jpg,AFNE19.jpg,AFNE04.jpg,AFSA17.jpg,FS,4,num_6,48,None,,,,2018_Feb_12_1202,60.0027520447,MAFE4ImagesEEG,001,203024,
AFNE01.JPG,AFNE01.JPG,AFNE01.JPG,AFNE01.JPG,AFNE01.JPG,AFNE01.JPG,,,,,3,6,36,3,,,,,,,,,,,,,,,,,,,AFSA18.jpg,AFSA09.jpg,AFNE04.jpg,AFNE11.jpg,AFNE11.jpg,FN,3,num_4,16,num_4,0.733499967959,,,2018_Feb_12_1202,60.0027520447,MAFE4ImagesEEG,001,203024,
AFNE01.JPG,AFNE01.JPG,AFNE01.JPG,AFNE01.JPG,AFNE01.JPG,AFNE01.JPG,,,,,3,7,37,8,,,,,,,,,,,,,,,,,,,AFSA03.jpg,AFSA14.jpg,AFNE06.jpg,AFNE09.jpg,AFNE09.jpg,FN,3,num_4,32,num_6,1.48344135308,,,2018_Feb_12_1202,60.0027520447,MAFE4ImagesEEG,001,203024,
AFNE01.JPG,AFNE01.JPG,AFNE01.JPG,AFNE01.JPG,AFNE01.JPG,AFNE01.JPG,,,,,3,8,38,7,,,,,,,,,,,,,,,,,,,AFNE17.jpg,AFSA14.jpg,AFSA10.jpg,AFNE15.jpg,AFNE17.jpg,FN,3,num_8,32,num_4,3.28358004079,,,2018_Feb_12_1202,60.0027520447,MAFE4ImagesEEG,001,203024,
AFNE01.JPG,AFNE01.JPG,AFNE01.JPG,AFNE01.JPG,AFNE01.JPG,AFNE01.JPG,,,,,3,9,39,1,,,,,,,,,,,,,,,,,,,AFNE15.jpg,AFSA03.jpg,AFSA04.jpg,AFNE08.jpg,AFSA04.jpg,FS,4,num_2,32,num_4,4.46647873498,,,2018_Feb_12_1202,60.0027520447,MAFE4ImagesEEG,001,203024,
AFNE01.JPG,AFNE01.JPG,AFNE01.JPG,AFNE01.JPG,AFNE01.JPG,AFNE01.JPG,,,,,4,0,40,1,,,,,,,,,,,,,,,,,,,AFSA03.jpg,AFSA02.jpg,AFNE20.jpg,AFNE01.jpg,AFSA02.jpg,FS,4,num_6,32,num_8,0.850152848288,,,2018_Feb_12_1202,60.0027520447,MAFE4ImagesEEG,001,203024,
AFNE01.JPG,AFNE01.JPG,AFNE01.JPG,AFNE01.JPG,AFNE01.JPG,AFNE01.JPG,,,,,4,1,41,8,,,,,,,,,,,,,,,,,,,AFNE06.jpg,AFNE19.jpg,AFSA16.jpg,AFSA04.jpg,AFNE06.jpg,FN,3,num_8,32,num_6,0.5501811055,,,2018_Feb_12_1202,60.0027520447,MAFE4ImagesEEG,001,203024,
AFNE01.JPG,AFNE01.JPG,AFNE01.JPG,AFNE01.JPG,AFNE01.JPG,AFNE01.JPG,,,,,4,2,42,7,,,,,,,,,,,,,,,,,,,AFNE08.jpg,AFSA11.jpg,AFSA15.jpg,AFNE11.jpg,AFNE08.jpg,FN,3,num_8,32,num_2,4.09991574171,,,2018_Feb_12_1202,60.0027520447,MAFE4ImagesEEG,001,203024,
AFNE01.JPG,AFNE01.JPG,AFNE01.JPG,AFNE01.JPG,AFNE01.JPG,AFNE01.JPG,,,,,4,3,43,2,,,,,,,,,,,,,,,,,,,AFSA06.jpg,AFNE03.jpg,AFNE11.jpg,AFSA13.jpg,AFNE11.jpg,FN,3,num_2,32,num_6,1.05011391058,,,2018_Feb_12_1202,60.0027520447,MAFE4ImagesEEG,001,203024,
AFNE01.JPG,AFNE01.JPG,AFNE01.JPG,AFNE01.JPG,AFNE01.JPG,AFNE01.JPG,,,,,4,4,44,9,,,,,,,,,,,,,,,,,,,AFNE10.jpg,AFSA17.jpg,AFSA11.jpg,AFNE11.jpg,AFNE10.jpg,FN,3,num_8,16,num_8,0.50017945352,,,2018_Feb_12_1202,60.0027520447,MAFE4ImagesEEG,001,203024,
AFNE01.JPG,AFNE01.JPG,AFNE01.JPG,AFNE01.JPG,AFNE01.JPG,AFNE01.JPG,,,,,4,5,45,5,,,,,,,,,,,,,,,,,,,AFNE13.jpg,AFSA14.jpg,AFSA15.jpg,AFNE10.jpg,AFNE10.jpg,FN,3,num_4,16,num_4,1.65009620576,,,2018_Feb_12_1202,60.0027520447,MAFE4ImagesEEG,001,203024,
AFNE01.JPG,AFNE01.JPG,AFNE01.JPG,AFNE01.JPG,AFNE01.JPG,AFNE01.JPG,,,,,4,6,46,6,,,,,,,,,,,,,,,,,,,AFSA06.jpg,AFNE07.jpg,AFSA11.jpg,AFNE16.jpg,AFSA06.jpg,FS,4,num_8,32,num_4,0.783544278238,,,2018_Feb_12_1202,60.0027520447,MAFE4ImagesEEG,001,203024,
AFNE01.JPG,AFNE01.JPG,AFNE01.JPG,AFNE01.JPG,AFNE01.JPG,AFNE01.JPG,,,,,4,7,47,4,,,,,,,,,,,,,,,,,,,AFSA03.jpg,AFNE19.jpg,AFSA05.jpg,AFNE09.jpg,AFSA05.jpg,FS,4,num_2,16,num_2,1.9003806212,,,2018_Feb_12_1202,60.0027520447,MAFE4ImagesEEG,001,203024,
AFNE01.JPG,AFNE01.JPG,AFNE01.JPG,AFNE01.JPG,AFNE01.JPG,AFNE01.JPG,,,,,4,8,48,0,,,,,,,,,,,,,,,,,,,AFSA10.jpg,AFNE15.jpg,AFNE09.jpg,AFSA16.jpg,AFNE15.jpg,FN,3,num_6,48,None,,,,2018_Feb_12_1202,60.0027520447,MAFE4ImagesEEG,001,203024,
AFNE01.JPG,AFNE01.JPG,AFNE01.JPG,AFNE01.JPG,AFNE01.JPG,AFNE01.JPG,,,,,4,9,49,3,,,,,,,,,,,,,,,,,,,AFSA05.jpg,AFNE20.jpg,AFNE17.jpg,AFSA01.jpg,AFNE17.jpg,FN,3,num_2,32,num_8,2.28338438971,,,2018_Feb_12_1202,60.0027520447,MAFE4ImagesEEG,001,203024,
AFNE01.JPG,AFNE01.JPG,AFNE01.JPG,AFNE01.JPG,AFNE01.JPG,AFNE01.JPG,,,,,5,0,50,8,,,,,,,,,,,,,,,,,,,AFNE15.jpg,AFSA13.jpg,AFSA04.jpg,AFNE13.jpg,AFNE15.jpg,FN,3,num_8,16,num_8,0.816667666426,,,2018_Feb_12_1202,60.0027520447,MAFE4ImagesEEG,001,203024,
AFNE01.JPG,AFNE01.JPG,AFNE01.JPG,AFNE01.JPG,AFNE01.JPG,AFNE01.JPG,,,,,5,1,51,3,,,,,,,,,,,,,,,,,,,AFSA17.jpg,AFNE07.jpg,AFSA01.jpg,AFNE15.jpg,AFSA17.jpg,FS,4,num_8,32,num_2,1.08344353386,,,2018_Feb_12_1202,60.0027520447,MAFE4ImagesEEG,001,203024,
AFNE01.JPG,AFNE01.JPG,AFNE01.JPG,AFNE01.JPG,AFNE01.JPG,AFNE01.JPG,,,,,5,2,52,7,,,,,,,,,,,,,,,,,,,AFNE20.jpg,AFNE15.jpg,AFSA10.jpg,AFSA06.jpg,AFSA10.jpg,FS,4,num_2,32,num_6,1.15020028548,,,2018_Feb_12_1202,60.0027520447,MAFE4ImagesEEG,001,203024,
AFNE01.JPG,AFNE01.JPG,AFNE01.JPG,AFNE01.JPG,AFNE01.JPG,AFNE01.JPG,,,,,5,3,53,2,,,,,,,,,,,,,,,,,,,AFNE10.jpg,AFSA11.jpg,AFNE01.jpg,AFSA03.jpg,AFNE01.jpg,FN,3,num_2,16,num_2,0.716771489475,,,2018_Feb_12_1202,60.0027520447,MAFE4ImagesEEG,001,203024,
AFNE01.JPG,AFNE01.JPG,AFNE01.JPG,AFNE01.JPG,AFNE01.JPG,AFNE01.JPG,,,,,5,4,54,0,,,,,,,,,,,,,,,,,,,AFSA08.jpg,AFSA16.jpg,AFNE08.jpg,AFNE05.jpg,AFNE08.jpg,FN,3,num_2,32,num_4,1.26672134199,,,2018_Feb_12_1202,60.0027520447,MAFE4ImagesEEG,001,203024,
AFNE01.JPG,AFNE01.JPG,AFNE01.JPG,AFNE01.JPG,AFNE01.JPG,AFNE01.JPG,,,,,5,5,55,9,,,,,,,,,,,,,,,,,,,AFSA20.jpg,AFSA01.jpg,AFNE14.jpg,AFNE19.jpg,AFNE14.jpg,FN,3,num_2,32,num_8,1.55297282012,,,2018_Feb_12_1202,60.0027520447,MAFE4ImagesEEG,001,203024,
AFNE01.JPG,AFNE01.JPG,AFNE01.JPG,AFNE01.JPG,AFNE01.JPG,AFNE01.JPG,,,,,5,6,56,4,,,,,,,,,,,,,,,,,,,AFNE09.jpg,AFNE08.jpg,AFSA06.jpg,AFSA04.jpg,AFSA06.jpg,FS,4,num_2,32,num_4,0.699988164706,,,2018_Feb_12_1202,60.0027520447,MAFE4ImagesEEG,001,203024,
AFNE01.JPG,AFNE01.JPG,AFNE01.JPG,AFNE01.JPG,AFNE01.JPG,AFNE01.JPG,,,,,5,7,57,1,,,,,,,,,,,,,,,,,,,AFNE17.jpg,AFSA04.jpg,AFSA01.jpg,AFNE20.jpg,AFSA04.jpg,FS,4,num_6,48,None,,,,2018_Feb_12_1202,60.0027520447,MAFE4ImagesEEG,001,203024,
AFNE01.JPG,AFNE01.JPG,AFNE01.JPG,AFNE01.JPG,AFNE01.JPG,AFNE01.JPG,,,,,5,8,58,6,,,,,,,,,,,,,,,,,,,AFSA06.jpg,AFNE11.jpg,AFSA12.jpg,AFNE17.jpg,AFSA12.jpg,FS,4,num_2,16,num_2,4.68329625065,,,2018_Feb_12_1202,60.0027520447,MAFE4ImagesEEG,001,203024,
AFNE01.JPG,AFNE01.JPG,AFNE01.JPG,AFNE01.JPG,AFNE01.JPG,AFNE01.JPG,,,,,5,9,59,5,,,,,,,,,,,,,,,,,,,AFSA13.jpg,AFSA02.jpg,AFNE03.jpg,AFNE10.jpg,AFNE03.jpg,FN,3,num_2,32,num_6,0.783519260585,,,2018_Feb_12_1202,60.0027520447,MAFE4ImagesEEG,001,203024,
,,,,,,,,,,,,,,,,,,,,,,,,,,,,,,,,,,,,,,,,,,,space,97.5757882888,2018_Feb_12_1202,60.0027520447,MAFE4ImagesEEG,001,203024,
AFNE01.JPG,AFNE01.JPG,AFNE01.JPG,AFNE01.JPG,AFNE01.JPG,AFNE01.JPG,,,,,,,,,0,0,0,3,,,,,,,,,,,,,,,AMSA06.jpg,AMSA13.jpg,AMNE11.jpg,AMNE17.jpg,AMNE11.jpg,MN,1,num_2,32,num_8,1.4834634841,,,2018_Feb_12_1202,60.0027520447,MAFE4ImagesEEG,001,203024,
AFNE01.JPG,AFNE01.JPG,AFNE01.JPG,AFNE01.JPG,AFNE01.JPG,AFNE01.JPG,,,,,,,,,0,1,1,0,,,,,,,,,,,,,,,AMSA04.jpg,AMNE04.jpg,AMNE13.jpg,AMSA01.jpg,AMSA01.jpg,MS,2,num_4,32,num_6,0.96677237167,,,2018_Feb_12_1202,60.0027520447,MAFE4ImagesEEG,001,203024,
AFNE01.JPG,AFNE01.JPG,AFNE01.JPG,AFNE01.JPG,AFNE01.JPG,AFNE01.JPG,,,,,,,,,0,2,2,2,,,,,,,,,,,,,,,AMSA12.jpg,AMNE13.jpg,AMNE10.jpg,AMSA06.jpg,AMSA06.jpg,MS,2,num_4,32,num_8,0.833489159122,,,2018_Feb_12_1202,60.0027520447,MAFE4ImagesEEG,001,203024,
AFNE01.JPG,AFNE01.JPG,AFNE01.JPG,AFNE01.JPG,AFNE01.JPG,AFNE01.JPG,,,,,,,,,0,3,3,8,,,,,,,,,,,,,,,AMSA20.jpg,AMSA16.jpg,AMNE09.jpg,AMNE06.jpg,AMNE06.jpg,MN,1,num_4,32,num_2,1.15008257446,,,2018_Feb_12_1202,60.0027520447,MAFE4ImagesEEG,001,203024,
AFNE01.JPG,AFNE01.JPG,AFNE01.JPG,AFNE01.JPG,AFNE01.JPG,AFNE01.JPG,,,,,,,,,0,4,4,1,,,,,,,,,,,,,,,AMSA20.jpg,AMSA15.jpg,AMNE17.jpg,AMNE18.jpg,AMSA15.jpg,MS,2,num_6,32,num_4,0.633476778632,,,2018_Feb_12_1202,60.0027520447,MAFE4ImagesEEG,001,203024,
AFNE01.JPG,AFNE01.JPG,AFNE01.JPG,AFNE01.JPG,AFNE01.JPG,AFNE01.JPG,,,,,,,,,0,5,5,9,,,,,,,,,,,,,,,AMSA04.jpg,AMNE06.jpg,AMNE12.jpg,AMSA08.jpg,AMSA04.jpg,MS,2,num_8,32,num_6,0.716810619691,,,2018_Feb_12_1202,60.0027520447,MAFE4ImagesEEG,001,203024,
AFNE01.JPG,AFNE01.JPG,AFNE01.JPG,AFNE01.JPG,AFNE01.JPG,AFNE01.JPG,,,,,,,,,0,6,6,5,,,,,,,,,,,,,,,AMSA14.jpg,AMNE11.jpg,AMNE14.jpg,AMSA16.jpg,AMNE11.jpg,MN,1,num_6,32,num_4,0.633496343624,,,2018_Feb_12_1202,60.0027520447,MAFE4ImagesEEG,001,203024,
AFNE01.JPG,AFNE01.JPG,AFNE01.JPG,AFNE01.JPG,AFNE01.JPG,AFNE01.JPG,,,,,,,,,0,7,7,4,,,,,,,,,,,,,,,AMNE12.jpg,AMNE01.jpg,AMSA02.jpg,AMSA05.jpg,AMNE12.jpg,MN,1,num_8,16,num_8,0.833447463112,,,2018_Feb_12_1202,60.0027520447,MAFE4ImagesEEG,001,203024,
AFNE01.JPG,AFNE01.JPG,AFNE01.JPG,AFNE01.JPG,AFNE01.JPG,AFNE01.JPG,,,,,,,,,0,8,8,6,,,,,,,,,,,,,,,AMNE14.jpg,AMSA08.jpg,AMNE04.jpg,AMSA19.jpg,AMNE04.jpg,MN,1,num_2,32,num_4,0.79999275133,,,2018_Feb_12_1202,60.0027520447,MAFE4ImagesEEG,001,203024,
AFNE01.JPG,AFNE01.JPG,AFNE01.JPG,AFNE01.JPG,AFNE01.JPG,AFNE01.JPG,,,,,,,,,0,9,9,7,,,,,,,,,,,,,,,AMNE20.jpg,AMSA11.jpg,AMNE16.jpg,AMSA18.jpg,AMSA11.jpg,MS,2,num_6,16,num_6,0.750112980371,,,2018_Feb_12_1202,60.0027520447,MAFE4ImagesEEG,001,203024,
AFNE01.JPG,AFNE01.JPG,AFNE01.JPG,AFNE01.JPG,AFNE01.JPG,AFNE01.JPG,,,,,,,,,1,0,10,5,,,,,,,,,,,,,,,AMSA11.jpg,AMNE06.jpg,AMSA06.jpg,AMNE12.jpg,AMNE12.jpg,MN,1,num_4,32,num_2,1.31676116167,,,2018_Feb_12_1202,60.0027520447,MAFE4ImagesEEG,001,203024,
AFNE01.JPG,AFNE01.JPG,AFNE01.JPG,AFNE01.JPG,AFNE01.JPG,AFNE01.JPG,,,,,,,,,1,1,11,9,,,,,,,,,,,,,,,AMSA14.jpg,AMNE15.jpg,AMSA10.jpg,AMNE06.jpg,AMSA10.jpg,MS,2,num_2,32,num_8,0.70018189121,,,2018_Feb_12_1202,60.0027520447,MAFE4ImagesEEG,001,203024,
AFNE01.JPG,AFNE01.JPG,AFNE01.JPG,AFNE01.JPG,AFNE01.JPG,AFNE01.JPG,,,,,,,,,1,2,12,3,,,,,,,,,,,,,,,AMSA18.jpg,AMSA11.jpg,AMNE18.jpg,AMNE12.jpg,AMNE18.jpg,MN,1,num_2,16,num_2,0.416823160835,,,2018_Feb_12_1202,60.0027520447,MAFE4ImagesEEG,001,203024,
AFNE01.JPG,AFNE01.JPG,AFNE01.JPG,AFNE01.JPG,AFNE01.JPG,AFNE01.JPG,,,,,,,,,1,3,13,4,,,,,,,,,,,,,,,AMSA14.jpg,AMNE17.jpg,AMSA07.jpg,AMNE15.jpg,AMSA14.jpg,MS,2,num_8,32,num_4,0.816779283574,,,2018_Feb_12_1202,60.0027520447,MAFE4ImagesEEG,001,203024,
AFNE01.JPG,AFNE01.JPG,AFNE01.JPG,AFNE01.JPG,AFNE01.JPG,AFNE01.JPG,,,,,,,,,1,4,14,1,,,,,,,,,,,,,,,AMSA02.jpg,AMNE08.jpg,AMNE01.jpg,AMSA01.jpg,AMNE08.jpg,MN,1,num_6,16,num_6,0.733452819288,,,2018_Feb_12_1202,60.0027520447,MAFE4ImagesEEG,001,203024,
AFNE01.JPG,AFNE01.JPG,AFNE01.JPG,AFNE01.JPG,AFNE01.JPG,AFNE01.JPG,,,,,,,,,1,5,15,0,,,,,,,,,,,,,,,AMNE09.jpg,AMNE03.jpg,AMSA18.jpg,AMSA05.jpg,AMSA05.jpg,MS,2,num_4,32,num_8,1.40011585085,,,2018_Feb_12_1202,60.0027520447,MAFE4ImagesEEG,001,203024,
AFNE01.JPG,AFNE01.JPG,AFNE01.JPG,AFNE01.JPG,AFNE01.JPG,AFNE01.JPG,,,,,,,,,1,6,16,6,,,,,,,,,,,,,,,AMNE07.jpg,AMNE08.jpg,AMSA05.jpg,AMSA12.jpg,AMNE08.jpg,MN,1,num_6,32,num_2,2.91662029293,,,2018_Feb_12_1202,60.0027520447,MAFE4ImagesEEG,001,203024,
AFNE01.JPG,AFNE01.JPG,AFNE01.JPG,AFNE01.JPG,AFNE01.JPG,AFNE01.JPG,,,,,,,,,1,7,17,2,,,,,,,,,,,,,,,AMSA07.jpg,AMNE10.jpg,AMNE17.jpg,AMSA12.jpg,AMSA12.jpg,MS,2,num_4,32,num_8,2.20005760482,,,2018_Feb_12_1202,60.0027520447,MAFE4ImagesEEG,001,203024,
AFNE01.JPG,AFNE01.JPG,AFNE01.JPG,AFNE01.JPG,AFNE01.JPG,AFNE01.JPG,,,,,,,,,1,8,18,7,,,,,,,,,,,,,,,AMNE10.jpg,AMSA18.jpg,AMSA05.jpg,AMNE20.jpg,AMSA18.jpg,MS,2,num_6,16,num_6,0.966770447325,,,2018_Feb_12_1202,60.0027520447,MAFE4ImagesEEG,001,203024,
AFNE01.JPG,AFNE01.JPG,AFNE01.JPG,AFNE01.JPG,AFNE01.JPG,AFNE01.JPG,,,,,,,,,1,9,19,8,,,,,,,,,,,,,,,AMSA16.jpg,AMNE16.jpg,AMSA09.jpg,AMNE10.jpg,AMNE10.jpg,MN,1,num_4,16,num_4,1.00019051903,,,2018_Feb_12_1202,60.0027520447,MAFE4ImagesEEG,001,203024,
AFNE01.JPG,AFNE01.JPG,AFNE01.JPG,AFNE01.JPG,AFNE01.JPG,AFNE01.JPG,,,,,,,,,2,0,20,3,,,,,,,,,,,,,,,AMSA12.jpg,AMNE17.jpg,AMNE20.jpg,AMSA19.jpg,AMSA12.jpg,MS,2,num_8,32,num_6,1.06674873317,,,2018_Feb_12_1202,60.0027520447,MAFE4ImagesEEG,001,203024,
AFNE01.JPG,AFNE01.JPG,AFNE01.JPG,AFNE01.JPG,AFNE01.JPG,AFNE01.JPG,,,,,,,,,2,1,21,2,,,,,,,,,,,,,,,AMSA10.jpg,AMNE08.jpg,AMNE07.jpg,AMSA12.jpg,AMSA12.jpg,MS,2,num_4,32,num_6,0.833492045989,,,2018_Feb_12_1202,60.0027520447,MAFE4ImagesEEG,001,203024,
AFNE01.JPG,AFNE01.JPG,AFNE01.JPG,AFNE01.JPG,AFNE01.JPG,AFNE01.JPG,,,,,,,,,2,2,22,8,,,,,,,,,,,,,,,AMSA10.jpg,AMNE12.jpg,AMNE16.jpg,AMSA07.jpg,AMNE12.jpg,MN,1,num_6,32,num_8,0.916791567812,,,2018_Feb_12_1202,60.0027520447,MAFE4ImagesEEG,001,203024,
AFNE01.JPG,AFNE01.JPG,AFNE01.JPG,AFNE01.JPG,AFNE01.JPG,AFNE01.JPG,,,,,,,,,2,3,23,4,,,,,,,,,,,,,,,AMNE08.jpg,AMSA06.jpg,AMSA19.jpg,AMNE15.jpg,AMSA19.jpg,MS,2,num_2,16,num_2,0.900009205332,,,2018_Feb_12_1202,60.0027520447,MAFE4ImagesEEG,001,203024,
AFNE01.JPG,AFNE01.JPG,AFNE01.JPG,AFNE01.JPG,AFNE01.JPG,AFNE01.JPG,,,,,,,,,2,4,24,7,,,,,,,,,,,,,,,AMNE11.jpg,AMNE07.jpg,AMSA05.jpg,AMSA08.jpg,AMNE11.jpg,MN,1,num_8,16,num_8,0.700150458841,,,2018_Feb_12_1202,60.0027520447,MAFE4ImagesEEG,001,203024,
AFNE01.JPG,AFNE01.JPG,AFNE01.JPG,AFNE01.JPG,AFNE01.JPG,AFNE01.JPG,,,,,,,,,2,5,25,1,,,,,,,,,,,,,,,AMSA05.jpg,AMNE17.jpg,AMNE05.jpg,AMSA06.jpg,AMSA05.jpg,MS,2,num_8,32,num_6,0.633527455619,,,2018_Feb_12_1202,60.0027520447,MAFE4ImagesEEG,001,203024,
AFNE01.JPG,AFNE01.JPG,AFNE01.JPG,AFNE01.JPG,AFNE01.JPG,AFNE01.JPG,,,,,,,,,2,6,26,9,,,,,,,,,,,,,,,AMNE17.jpg,AMNE07.jpg,AMSA10.jpg,AMSA07.jpg,AMNE17.jpg,MN,1,num_8,32,num_6,0.866803708021,,,2018_Feb_12_1202,60.0027520447,MAFE4ImagesEEG,001,203024,
AFNE01.JPG,AFNE01.JPG,AFNE01.JPG,AFNE01.JPG,AFNE01.JPG,AFNE01.JPG,,,,,,,,,2,7,27,0,,,,,,,,,,,,,,,AMNE17.jpg,AMSA09.jpg,AMNE19.jpg,AMSA07.jpg,AMSA07.jpg,MS,2,num_4,32,num_2,1.10018387996,,,2018_Feb_12_1202,60.0027520447,MAFE4ImagesEEG,001,203024,
AFNE01.JPG,AFNE01.JPG,AFNE01.JPG,AFNE01.JPG,AFNE01.JPG,AFNE01.JPG,,,,,,,,,2,8,28,5,,,,,,,,,,,,,,,AMNE01.jpg,AMSA01.jpg,AMSA12.jpg,AMNE11.jpg,AMNE11.jpg,MN,1,num_4,16,num_4,0.450139954686,,,2018_Feb_12_1202,60.0027520447,MAFE4ImagesEEG,001,203024,
AFNE01.JPG,AFNE01.JPG,AFNE01.JPG,AFNE01.JPG,AFNE01.JPG,AFNE01.JPG,,,,,,,,,2,9,29,6,,,,,,,,,,,,,,,AMSA16.jpg,AMNE08.jpg,AMSA12.jpg,AMNE17.jpg,AMNE17.jpg,MN,1,num_4,32,num_8,0.650203653378,,,2018_Feb_12_1202,60.0027520447,MAFE4ImagesEEG,001,203024,
AFNE01.JPG,AFNE01.JPG,AFNE01.JPG,AFNE01.JPG,AFNE01.JPG,AFNE01.JPG,,,,,,,,,3,0,30,8,,,,,,,,,,,,,,,AMNE13.jpg,AMNE01.jpg,AMSA08.jpg,AMSA04.jpg,AMNE01.jpg,MN,1,num_6,32,num_8,0.833559401101,,,2018_Feb_12_1202,60.0027520447,MAFE4ImagesEEG,001,203024,
AFNE01.JPG,AFNE01.JPG,AFNE01.JPG,AFNE01.JPG,AFNE01.JPG,AFNE01.JPG,,,,,,,,,3,1,31,2,,,,,,,,,,,,,,,AMSA15.jpg,AMNE04.jpg,AMNE14.jpg,AMSA04.jpg,AMNE14.jpg,MN,1,num_2,48,None,,,,2018_Feb_12_1202,60.0027520447,MAFE4ImagesEEG,001,203024,
AFNE01.JPG,AFNE01.JPG,AFNE01.JPG,AFNE01.JPG,AFNE01.JPG,AFNE01.JPG,,,,,,,,,3,2,32,0,,,,,,,,,,,,,,,AMSA17.jpg,AMNE11.jpg,AMNE15.jpg,AMSA18.jpg,AMSA18.jpg,MS,2,num_4,32,num_8,0.950303050457,,,2018_Feb_12_1202,60.0027520447,MAFE4ImagesEEG,001,203024,
AFNE01.JPG,AFNE01.JPG,AFNE01.JPG,AFNE01.JPG,AFNE01.JPG,AFNE01.JPG,,,,,,,,,3,3,33,5,,,,,,,,,,,,,,,AMNE15.jpg,AMNE07.jpg,AMSA14.jpg,AMSA10.jpg,AMNE15.jpg,MN,1,num_8,32,num_2,0.900138142519,,,2018_Feb_12_1202,60.0027520447,MAFE4ImagesEEG,001,203024,
AFNE01.JPG,AFNE01.JPG,AFNE01.JPG,AFNE01.JPG,AFNE01.JPG,AFNE01.JPG,,,,,,,,,3,4,34,4,,,,,,,,,,,,,,,AMNE20.jpg,AMSA16.jpg,AMSA07.jpg,AMNE03.jpg,AMSA16.jpg,MS,2,num_6,16,num_6,0.533520944417,,,2018_Feb_12_1202,60.0027520447,MAFE4ImagesEEG,001,203024,
AFNE01.JPG,AFNE01.JPG,AFNE01.JPG,AFNE01.JPG,AFNE01.JPG,AFNE01.JPG,,,,,,,,,3,5,35,7,,,,,,,,,,,,,,,AMNE15.jpg,AMSA11.jpg,AMNE06.jpg,AMSA19.jpg,AMNE06.jpg,MN,1,num_2,16,num_2,0.583483786788,,,2018_Feb_12_1202,60.0027520447,MAFE4ImagesEEG,001,203024,
AFNE01.JPG,AFNE01.JPG,AFNE01.JPG,AFNE01.JPG,AFNE01.JPG,AFNE01.JPG,,,,,,,,,3,6,36,6,,,,,,,,,,,,,,,AMNE10.jpg,AMSA03.jpg,AMSA07.jpg,AMNE20.jpg,AMSA03.jpg,MS,2,num_6,16,num_6,0.866932965815,,,2018_Feb_12_1202,60.0027520447,MAFE4ImagesEEG,001,203024,
AFNE01.JPG,AFNE01.JPG,AFNE01.JPG,AFNE01.JPG,AFNE01.JPG,AFNE01.JPG,,,,,,,,,3,7,37,3,,,,,,,,,,,,,,,AMSA12.jpg,AMNE15.jpg,AMSA11.jpg,AMNE16.jpg,AMNE15.jpg,MN,1,num_6,32,num_8,0.783212313196,,,2018_Feb_12_1202,60.0027520447,MAFE4ImagesEEG,001,203024,
AFNE01.JPG,AFNE01.JPG,AFNE01.JPG,AFNE01.JPG,AFNE01.JPG,AFNE01.JPG,,,,,,,,,3,8,38,1,,,,,,,,,,,,,,,AMNE17.jpg,AMNE11.jpg,AMSA04.jpg,AMSA03.jpg,AMSA03.jpg,MS,2,num_4,32,num_6,1.40006164601,,,2018_Feb_12_1202,60.0027520447,MAFE4ImagesEEG,001,203024,
AFNE01.JPG,AFNE01.JPG,AFNE01.JPG,AFNE01.JPG,AFNE01.JPG,AFNE01.JPG,,,,,,,,,3,9,39,9,,,,,,,,,,,,,,,AMNE01.jpg,AMSA17.jpg,AMSA15.jpg,AMNE10.jpg,AMSA17.jpg,MS,2,num_6,16,num_6,0.733473667409,,,2018_Feb_12_1202,60.0027520447,MAFE4ImagesEEG,001,203024,
AFNE01.JPG,AFNE01.JPG,AFNE01.JPG,AFNE01.JPG,AFNE01.JPG,AFNE01.JPG,,,,,,,,,4,0,40,1,,,,,,,,,,,,,,,AMSA10.jpg,AMNE16.jpg,AMNE05.jpg,AMSA02.jpg,AMSA10.jpg,MS,2,num_8,32,num_2,1.25012821564,,,2018_Feb_12_1202,60.0027520447,MAFE4ImagesEEG,001,203024,
AFNE01.JPG,AFNE01.JPG,AFNE01.JPG,AFNE01.JPG,AFNE01.JPG,AFNE01.JPG,,,,,,,,,4,1,41,4,,,,,,,,,,,,,,,AMNE04.jpg,AMNE16.jpg,AMSA05.jpg,AMSA10.jpg,AMSA10.jpg,MS,2,num_4,16,num_4,1.15008064988,,,2018_Feb_12_1202,60.0027520447,MAFE4ImagesEEG,001,203024,
AFNE01.JPG,AFNE01.JPG,AFNE01.JPG,AFNE01.JPG,AFNE01.JPG,AFNE01.JPG,,,,,,,,,4,2,42,0,,,,,,,,,,,,,,,AMNE11.jpg,AMSA11.jpg,AMNE09.jpg,AMSA14.jpg,AMNE09.jpg,MN,1,num_2,32,num_8,1.16674016928,,,2018_Feb_12_1202,60.0027520447,MAFE4ImagesEEG,001,203024,
AFNE01.JPG,AFNE01.JPG,AFNE01.JPG,AFNE01.JPG,AFNE01.JPG,AFNE01.JPG,,,,,,,,,4,3,43,6,,,,,,,,,,,,,,,AMNE04.jpg,AMSA07.jpg,AMNE20.jpg,AMSA15.jpg,AMNE04.jpg,MN,1,num_8,32,num_2,0.75015178998,,,2018_Feb_12_1202,60.0027520447,MAFE4ImagesEEG,001,203024,
AFNE01.JPG,AFNE01.JPG,AFNE01.JPG,AFNE01.JPG,AFNE01.JPG,AFNE01.JPG,,,,,,,,,4,4,44,3,,,,,,,,,,,,,,,AMNE17.jpg,AMSA08.jpg,AMNE04.jpg,AMSA18.jpg,AMNE17.jpg,MN,1,num_8,32,num_2,1.28344019852,,,2018_Feb_12_1202,60.0027520447,MAFE4ImagesEEG,001,203024,
AFNE01.JPG,AFNE01.JPG,AFNE01.JPG,AFNE01.JPG,AFNE01.JPG,AFNE01.JPG,,,,,,,,,4,5,45,5,,,,,,,,,,,,,,,AMNE10.jpg,AMNE03.jpg,AMSA07.jpg,AMSA06.jpg,AMSA06.jpg,MS,2,num_4,32,num_6,0.933434729697,,,2018_Feb_12_1202,60.0027520447,MAFE4ImagesEEG,001,203024,
AFNE01.JPG,AFNE01.JPG,AFNE01.JPG,AFNE01.JPG,AFNE01.JPG,AFNE01.JPG,,,,,,,,,4,6,46,8,,,,,,,,,,,,,,,AMNE06.jpg,AMNE13.jpg,AMSA19.jpg,AMSA08.jpg,AMNE13.jpg,MN,1,num_6,32,num_8,0.750186108984,,,2018_Feb_12_1202,60.0027520447,MAFE4ImagesEEG,001,203024,
AFNE01.JPG,AFNE01.JPG,AFNE01.JPG,AFNE01.JPG,AFNE01.JPG,AFNE01.JPG,,,,,,,,,4,7,47,2,,,,,,,,,,,,,,,AMSA17.jpg,AMSA15.jpg,AMNE06.jpg,AMNE16.jpg,AMNE16.jpg,MN,1,num_4,32,num_2,0.900150330504,,,2018_Feb_12_1202,60.0027520447,MAFE4ImagesEEG,001,203024,
AFNE01.JPG,AFNE01.JPG,AFNE01.JPG,AFNE01.JPG,AFNE01.JPG,AFNE01.JPG,,,,,,,,,4,8,48,9,,,,,,,,,,,,,,,AMNE12.jpg,AMSA16.jpg,AMSA11.jpg,AMNE02.jpg,AMNE12.jpg,MN,1,num_8,32,num_6,0.699870132608,,,2018_Feb_12_1202,60.0027520447,MAFE4ImagesEEG,001,203024,
AFNE01.JPG,AFNE01.JPG,AFNE01.JPG,AFNE01.JPG,AFNE01.JPG,AFNE01.JPG,,,,,,,,,4,9,49,7,,,,,,,,,,,,,,,AMNE14.jpg,AMNE06.jpg,AMSA17.jpg,AMSA09.jpg,AMNE06.jpg,MN,1,num_6,32,num_8,0.716657947982,,,2018_Feb_12_1202,60.0027520447,MAFE4ImagesEEG,001,203024,
AFNE01.JPG,AFNE01.JPG,AFNE01.JPG,AFNE01.JPG,AFNE01.JPG,AFNE01.JPG,,,,,,,,,5,0,50,3,,,,,,,,,,,,,,,AMNE20.jpg,AMNE07.jpg,AMSA13.jpg,AMSA15.jpg,AMNE20.jpg,MN,1,num_8,32,num_2,1.03345118347,,,2018_Feb_12_1202,60.0027520447,MAFE4ImagesEEG,001,203024,
AFNE01.JPG,AFNE01.JPG,AFNE01.JPG,AFNE01.JPG,AFNE01.JPG,AFNE01.JPG,,,,,,,,,5,1,51,6,,,,,,,,,,,,,,,AMSA17.jpg,AMNE12.jpg,AMSA06.jpg,AMNE13.jpg,AMNE13.jpg,MN,1,num_4,32,num_8,1.2500922929,,,2018_Feb_12_1202,60.0027520447,MAFE4ImagesEEG,001,203024,
AFNE01.JPG,AFNE01.JPG,AFNE01.JPG,AFNE01.JPG,AFNE01.JPG,AFNE01.JPG,,,,,,,,,5,2,52,1,,,,,,,,,,,,,,,AMNE15.jpg,AMSA16.jpg,AMNE09.jpg,AMSA11.jpg,AMNE09.jpg,MN,1,num_2,32,num_6,0.70016649575,,,2018_Feb_12_1202,60.0027520447,MAFE4ImagesEEG,001,203024,
AFNE01.JPG,AFNE01.JPG,AFNE01.JPG,AFNE01.JPG,AFNE01.JPG,AFNE01.JPG,,,,,,,,,5,3,53,7,,,,,,,,,,,,,,,AMNE15.jpg,AMSA19.jpg,AMNE03.jpg,AMSA13.jpg,AMSA13.jpg,MS,2,num_4,16,num_4,0.816813923419,,,2018_Feb_12_1202,60.0027520447,MAFE4ImagesEEG,001,203024,
AFNE01.JPG,AFNE01.JPG,AFNE01.JPG,AFNE01.JPG,AFNE01.JPG,AFNE01.JPG,,,,,,,,,5,4,54,8,,,,,,,,,,,,,,,AMSA19.jpg,AMNE10.jpg,AMSA09.jpg,AMNE07.jpg,AMSA09.jpg,MS,2,num_2,16,num_2,0.666772082914,,,2018_Feb_12_1202,60.0027520447,MAFE4ImagesEEG,001,203024,
AFNE01.JPG,AFNE01.JPG,AFNE01.JPG,AFNE01.JPG,AFNE01.JPG,AFNE01.JPG,,,,,,,,,5,5,55,4,,,,,,,,,,,,,,,AMSA11.jpg,AMSA17.jpg,AMNE15.jpg,AMNE12.jpg,AMNE12.jpg,MN,1,num_4,32,num_8,0.816782811657,,,2018_Feb_12_1202,60.0027520447,MAFE4ImagesEEG,001,203024,
AFNE01.JPG,AFNE01.JPG,AFNE01.JPG,AFNE01.JPG,AFNE01.JPG,AFNE01.JPG,,,,,,,,,5,6,56,2,,,,,,,,,,,,,,,AMSA07.jpg,AMSA02.jpg,AMNE05.jpg,AMNE04.jpg,AMNE04.jpg,MN,1,num_4,16,num_4,0.750154355774,,,2018_Feb_12_1202,60.0027520447,MAFE4ImagesEEG,001,203024,
AFNE01.JPG,AFNE01.JPG,AFNE01.JPG,AFNE01.JPG,AFNE01.JPG,AFNE01.JPG,,,,,,,,,5,7,57,5,,,,,,,,,,,,,,,AMSA02.jpg,AMNE10.jpg,AMNE13.jpg,AMSA03.jpg,AMNE13.jpg,MN,1,num_2,32,num_6,1.65009043226,,,2018_Feb_12_1202,60.0027520447,MAFE4ImagesEEG,001,203024,
AFNE01.JPG,AFNE01.JPG,AFNE01.JPG,AFNE01.JPG,AFNE01.JPG,AFNE01.JPG,,,,,,,,,5,8,58,0,,,,,,,,,,,,,,,AMSA17.jpg,AMSA10.jpg,AMNE02.jpg,AMNE10.jpg,AMNE02.jpg,MN,1,num_2,32,num_4,0.733422670048,,,2018_Feb_12_1202,60.0027520447,MAFE4ImagesEEG,001,203024,
AFNE01.JPG,AFNE01.JPG,AFNE01.JPG,AFNE01.JPG,AFNE01.JPG,AFNE01.JPG,,,,,,,,,5,9,59,9,,,,,,,,,,,,,,,AMSA20.jpg,AMSA10.jpg,AMNE13.jpg,AMNE12.jpg,AMSA20.jpg,MS,2,num_8,32,num_6,1.00016004872,,,2018_Feb_12_1202,60.0027520447,MAFE4ImagesEEG,001,203024,
,,,,,,,,,,,,,,,,,,,,,,,,,,,,,,,,,,,,,,,,,,,space,33.5808550077,2018_Feb_12_1202,60.0027520447,MAFE4ImagesEEG,001,203024,
AFNE01.JPG,AFNE01.JPG,AFNE01.JPG,AFNE01.JPG,AFNE01.JPG,AFNE01.JPG,,,,,,,,,,,,,0,0,0,7,,,,,,,,,,,AFNE18.jpg,AFSA14.jpg,AFNE06.jpg,AFSA13.jpg,AFSA14.jpg,FS,4,num_6,16,num_6,0.75014665816,,,2018_Feb_12_1202,60.0027520447,MAFE4ImagesEEG,001,203024,
AFNE01.JPG,AFNE01.JPG,AFNE01.JPG,AFNE01.JPG,AFNE01.JPG,AFNE01.JPG,,,,,,,,,,,,,0,1,1,8,,,,,,,,,,,AFNE05.jpg,AFNE07.jpg,AFSA11.jpg,AFSA18.jpg,AFSA18.jpg,FS,4,num_4,16,num_4,0.816843110835,,,2018_Feb_12_1202,60.0027520447,MAFE4ImagesEEG,001,203024,
AFNE01.JPG,AFNE01.JPG,AFNE01.JPG,AFNE01.JPG,AFNE01.JPG,AFNE01.JPG,,,,,,,,,,,,,0,2,2,6,,,,,,,,,,,AFNE07.jpg,AFSA07.jpg,AFSA13.jpg,AFNE01.jpg,AFNE07.jpg,FN,3,num_8,16,num_8,0.650034303078,,,2018_Feb_12_1202,60.0027520447,MAFE4ImagesEEG,001,203024,
AFNE01.JPG,AFNE01.JPG,AFNE01.JPG,AFNE01.JPG,AFNE01.JPG,AFNE01.JPG,,,,,,,,,,,,,0,3,3,3,,,,,,,,,,,AFSA19.jpg,AFNE04.jpg,AFSA18.jpg,AFNE08.jpg,AFSA19.jpg,FS,4,num_8,32,num_4,0.883213692345,,,2018_Feb_12_1202,60.0027520447,MAFE4ImagesEEG,001,203024,
AFNE01.JPG,AFNE01.JPG,AFNE01.JPG,AFNE01.JPG,AFNE01.JPG,AFNE01.JPG,,,,,,,,,,,,,0,4,4,0,,,,,,,,,,,AFNE14.jpg,AFSA06.jpg,AFSA02.jpg,AFNE13.jpg,AFSA06.jpg,FS,4,num_6,16,num_6,0.56684222864,,,2018_Feb_12_1202,60.0027520447,MAFE4ImagesEEG,001,203024,
AFNE01.JPG,AFNE01.JPG,AFNE01.JPG,AFNE01.JPG,AFNE01.JPG,AFNE01.JPG,,,,,,,,,,,,,0,5,5,5,,,,,,,,,,,AFSA04.jpg,AFNE14.jpg,AFNE19.jpg,AFSA18.jpg,AFNE19.jpg,FN,3,num_2,32,num_8,0.683492222102,,,2018_Feb_12_1202,60.0027520447,MAFE4ImagesEEG,001,203024,
AFNE01.JPG,AFNE01.JPG,AFNE01.JPG,AFNE01.JPG,AFNE01.JPG,AFNE01.JPG,,,,,,,,,,,,,0,6,6,1,,,,,,,,,,,AFSA02.jpg,AFNE04.jpg,AFNE16.jpg,AFSA03.jpg,AFSA03.jpg,FS,4,num_4,32,num_6,3.50017271796,,,2018_Feb_12_1202,60.0027520447,MAFE4ImagesEEG,001,203024,
AFNE01.JPG,AFNE01.JPG,AFNE01.JPG,AFNE01.JPG,AFNE01.JPG,AFNE01.JPG,,,,,,,,,,,,,0,7,7,4,,,,,,,,,,,AFNE13.jpg,AFSA19.jpg,AFSA07.jpg,AFNE08.jpg,AFSA19.jpg,FS,4,num_6,32,num_8,2.23340743477,,,2018_Feb_12_1202,60.0027520447,MAFE4ImagesEEG,001,203024,
AFNE01.JPG,AFNE01.JPG,AFNE01.JPG,AFNE01.JPG,AFNE01.JPG,AFNE01.JPG,,,,,,,,,,,,,0,8,8,2,,,,,,,,,,,AFNE19.jpg,AFSA01.jpg,AFNE17.jpg,AFSA18.jpg,AFSA01.jpg,FS,4,num_6,32,num_2,1.51671837526,,,2018_Feb_12_1202,60.0027520447,MAFE4ImagesEEG,001,203024,
AFNE01.JPG,AFNE01.JPG,AFNE01.JPG,AFNE01.JPG,AFNE01.JPG,AFNE01.JPG,,,,,,,,,,,,,0,9,9,9,,,,,,,,,,,AFSA04.jpg,AFNE03.jpg,AFNE14.jpg,AFSA08.jpg,AFNE03.jpg,FN,3,num_6,32,num_8,1.05013155122,,,2018_Feb_12_1202,60.0027520447,MAFE4ImagesEEG,001,203024,
AFNE01.JPG,AFNE01.JPG,AFNE01.JPG,AFNE01.JPG,AFNE01.JPG,AFNE01.JPG,,,,,,,,,,,,,1,0,10,1,,,,,,,,,,,AFNE09.jpg,AFNE04.jpg,AFSA05.jpg,AFSA01.jpg,AFNE04.jpg,FN,3,num_6,32,num_8,1.23346484709,,,2018_Feb_12_1202,60.0027520447,MAFE4ImagesEEG,001,203024,
AFNE01.JPG,AFNE01.JPG,AFNE01.JPG,AFNE01.JPG,AFNE01.JPG,AFNE01.JPG,,,,,,,,,,,,,1,1,11,8,,,,,,,,,,,AFNE19.jpg,AFSA01.jpg,AFNE16.jpg,AFSA16.jpg,AFNE19.jpg,FN,3,num_8,32,num_2,2.35005037207,,,2018_Feb_12_1202,60.0027520447,MAFE4ImagesEEG,001,203024,
AFNE01.JPG,AFNE01.JPG,AFNE01.JPG,AFNE01.JPG,AFNE01.JPG,AFNE01.JPG,,,,,,,,,,,,,1,2,12,0,,,,,,,,,,,AFSA15.jpg,AFNE08.jpg,AFNE14.jpg,AFSA16.jpg,AFNE14.jpg,FN,3,num_2,32,num_8,2.48331722687,,,2018_Feb_12_1202,60.0027520447,MAFE4ImagesEEG,001,203024,
AFNE01.JPG,AFNE01.JPG,AFNE01.JPG,AFNE01.JPG,AFNE01.JPG,AFNE01.JPG,,,,,,,,,,,,,1,3,13,3,,,,,,,,,,,AFNE19.jpg,AFSA02.jpg,AFSA12.jpg,AFNE01.jpg,AFNE19.jpg,FN,3,num_8,16,num_8,1.18344812049,,,2018_Feb_12_1202,60.0027520447,MAFE4ImagesEEG,001,203024,
AFNE01.JPG,AFNE01.JPG,AFNE01.JPG,AFNE01.JPG,AFNE01.JPG,AFNE01.JPG,,,,,,,,,,,,,1,4,14,5,,,,,,,,,,,AFNE02.jpg,AFNE14.jpg,AFSA01.jpg,AFSA02.jpg,AFNE14.jpg,FN,3,num_6,16,num_6,1.13347501447,,,2018_Feb_12_1202,60.0027520447,MAFE4ImagesEEG,001,203024,
AFNE01.JPG,AFNE01.JPG,AFNE01.JPG,AFNE01.JPG,AFNE01.JPG,AFNE01.JPG,,,,,,,,,,,,,1,5,15,4,,,,,,,,,,,AFSA18.jpg,AFNE15.jpg,AFNE20.jpg,AFSA05.jpg,AFSA18.jpg,FS,4,num_8,32,num_4,0.850136169931,,,2018_Feb_12_1202,60.0027520447,MAFE4ImagesEEG,001,203024,
AFNE01.JPG,AFNE01.JPG,AFNE01.JPG,AFNE01.JPG,AFNE01.JPG,AFNE01.JPG,,,,,,,,,,,,,1,6,16,6,,,,,,,,,,,AFNE13.jpg,AFSA02.jpg,AFNE15.jpg,AFSA20.jpg,AFNE13.jpg,FN,3,num_8,16,num_8,1.76671861578,,,2018_Feb_12_1202,60.0027520447,MAFE4ImagesEEG,001,203024,
AFNE01.JPG,AFNE01.JPG,AFNE01.JPG,AFNE01.JPG,AFNE01.JPG,AFNE01.JPG,,,,,,,,,,,,,1,7,17,9,,,,,,,,,,,AFNE17.jpg,AFSA17.jpg,AFSA16.jpg,AFNE19.jpg,AFNE19.jpg,FN,3,num_4,16,num_4,1.36675607809,,,2018_Feb_12_1202,60.0027520447,MAFE4ImagesEEG,001,203024,
AFNE01.JPG,AFNE01.JPG,AFNE01.JPG,AFNE01.JPG,AFNE01.JPG,AFNE01.JPG,,,,,,,,,,,,,1,8,18,7,,,,,,,,,,,AFSA13.jpg,AFNE14.jpg,AFNE05.jpg,AFSA07.jpg,AFNE14.jpg,FN,3,num_6,32,num_2,1.1834943071,,,2018_Feb_12_1202,60.0027520447,MAFE4ImagesEEG,001,203024,
AFNE01.JPG,AFNE01.JPG,AFNE01.JPG,AFNE01.JPG,AFNE01.JPG,AFNE01.JPG,,,,,,,,,,,,,1,9,19,2,,,,,,,,,,,AFNE20.jpg,AFSA03.jpg,AFSA10.jpg,AFNE01.jpg,AFSA10.jpg,FS,4,num_2,32,num_8,1.40009949333,,,2018_Feb_12_1202,60.0027520447,MAFE4ImagesEEG,001,203024,
AFNE01.JPG,AFNE01.JPG,AFNE01.JPG,AFNE01.JPG,AFNE01.JPG,AFNE01.JPG,,,,,,,,,,,,,2,0,20,1,,,,,,,,,,,AFNE17.jpg,AFSA01.jpg,AFSA10.jpg,AFNE13.jpg,AFNE13.jpg,FN,3,num_4,32,num_8,0.900164763909,,,2018_Feb_12_1202,60.0027520447,MAFE4ImagesEEG,001,203024,
AFNE01.JPG,AFNE01.JPG,AFNE01.JPG,AFNE01.JPG,AFNE01.JPG,AFNE01.JPG,,,,,,,,,,,,,2,1,21,3,,,,,,,,,,,AFSA16.jpg,AFSA13.jpg,AFNE14.jpg,AFNE11.jpg,AFSA13.jpg,FS,4,num_6,16,num_6,1.21672129375,,,2018_Feb_12_1202,60.0027520447,MAFE4ImagesEEG,001,203024,
AFNE01.JPG,AFNE01.JPG,AFNE01.JPG,AFNE01.JPG,AFNE01.JPG,AFNE01.JPG,,,,,,,,,,,,,2,2,22,2,,,,,,,,,,,AFNE17.jpg,AFSA18.jpg,AFNE18.jpg,AFSA03.jpg,AFSA18.jpg,FS,4,num_6,32,num_8,1.13344422379,,,2018_Feb_12_1202,60.0027520447,MAFE4ImagesEEG,001,203024,
AFNE01.JPG,AFNE01.JPG,AFNE01.JPG,AFNE01.JPG,AFNE01.JPG,AFNE01.JPG,,,,,,,,,,,,,2,3,23,4,,,,,,,,,,,AFNE07.jpg,AFSA02.jpg,AFNE01.jpg,AFSA07.jpg,AFNE01.jpg,FN,3,num_2,32,num_4,0.916767833289,,,2018_Feb_12_1202,60.0027520447,MAFE4ImagesEEG,001,203024,
AFNE01.JPG,AFNE01.JPG,AFNE01.JPG,AFNE01.JPG,AFNE01.JPG,AFNE01.JPG,,,,,,,,,,,,,2,4,24,5,,,,,,,,,,,AFNE03.jpg,AFSA19.jpg,AFSA16.jpg,AFNE08.jpg,AFNE08.jpg,FN,3,num_4,32,num_2,1.50009958958,,,2018_Feb_12_1202,60.0027520447,MAFE4ImagesEEG,001,203024,
AFNE01.JPG,AFNE01.JPG,AFNE01.JPG,AFNE01.JPG,AFNE01.JPG,AFNE01.JPG,,,,,,,,,,,,,2,5,25,9,,,,,,,,,,,AFSA09.jpg,AFSA20.jpg,AFNE12.jpg,AFNE06.jpg,AFNE12.jpg,FN,3,num_2,32,num_8,0.933483802713,,,2018_Feb_12_1202,60.0027520447,MAFE4ImagesEEG,001,203024,
AFNE01.JPG,AFNE01.JPG,AFNE01.JPG,AFNE01.JPG,AFNE01.JPG,AFNE01.JPG,,,,,,,,,,,,,2,6,26,8,,,,,,,,,,,AFNE04.jpg,AFSA15.jpg,AFNE18.jpg,AFSA17.jpg,AFNE04.jpg,FN,3,num_8,32,num_4,1.43343553157,,,2018_Feb_12_1202,60.0027520447,MAFE4ImagesEEG,001,203024,
AFNE01.JPG,AFNE01.JPG,AFNE01.JPG,AFNE01.JPG,AFNE01.JPG,AFNE01.JPG,,,,,,,,,,,,,2,7,27,6,,,,,,,,,,,AFNE02.jpg,AFNE13.jpg,AFSA02.jpg,AFSA07.jpg,AFSA02.jpg,FS,4,num_2,32,num_6,1.05015368224,,,2018_Feb_12_1202,60.0027520447,MAFE4ImagesEEG,001,203024,
AFNE01.JPG,AFNE01.JPG,AFNE01.JPG,AFNE01.JPG,AFNE01.JPG,AFNE01.JPG,,,,,,,,,,,,,2,8,28,7,,,,,,,,,,,AFNE12.jpg,AFSA12.jpg,AFNE10.jpg,AFSA17.jpg,AFSA17.jpg,FS,4,num_4,16,num_4,0.750130941626,,,2018_Feb_12_1202,60.0027520447,MAFE4ImagesEEG,001,203024,
AFNE01.JPG,AFNE01.JPG,AFNE01.JPG,AFNE01.JPG,AFNE01.JPG,AFNE01.JPG,,,,,,,,,,,,,2,9,29,0,,,,,,,,,,,AFSA05.jpg,AFNE16.jpg,AFNE03.jpg,AFSA14.jpg,AFSA05.jpg,FS,4,num_8,16,num_8,1.56673542247,,,2018_Feb_12_1202,60.0027520447,MAFE4ImagesEEG,001,203024,
AFNE01.JPG,AFNE01.JPG,AFNE01.JPG,AFNE01.JPG,AFNE01.JPG,AFNE01.JPG,,,,,,,,,,,,,3,0,30,3,,,,,,,,,,,AFNE14.jpg,AFSA06.jpg,AFSA17.jpg,AFNE06.jpg,AFSA17.jpg,FS,4,num_2,32,num_4,1.20011790376,,,2018_Feb_12_1202,60.0027520447,MAFE4ImagesEEG,001,203024,
AFNE01.JPG,AFNE01.JPG,AFNE01.JPG,AFNE01.JPG,AFNE01.JPG,AFNE01.JPG,,,,,,,,,,,,,3,1,31,8,,,,,,,,,,,AFNE14.jpg,AFSA16.jpg,AFNE16.jpg,AFSA05.jpg,AFSA16.jpg,FS,4,num_6,32,num_2,1.46678055055,,,2018_Feb_12_1202,60.0027520447,MAFE4ImagesEEG,001,203024,
AFNE01.JPG,AFNE01.JPG,AFNE01.JPG,AFNE01.JPG,AFNE01.JPG,AFNE01.JPG,,,,,,,,,,,,,3,2,32,0,,,,,,,,,,,AFSA18.jpg,AFSA09.jpg,AFNE14.jpg,AFNE19.jpg,AFNE19.jpg,FN,3,num_4,32,num_6,1.46674943878,,,2018_Feb_12_1202,60.0027520447,MAFE4ImagesEEG,001,203024,
AFNE01.JPG,AFNE01.JPG,AFNE01.JPG,AFNE01.JPG,AFNE01.JPG,AFNE01.JPG,,,,,,,,,,,,,3,3,33,7,,,,,,,,,,,AFSA10.jpg,AFNE16.jpg,AFSA11.jpg,AFNE19.jpg,AFSA11.jpg,FS,4,num_2,32,num_8,1.64992813836,,,2018_Feb_12_1202,60.0027520447,MAFE4ImagesEEG,001,203024,
AFNE01.JPG,AFNE01.JPG,AFNE01.JPG,AFNE01.JPG,AFNE01.JPG,AFNE01.JPG,,,,,,,,,,,,,3,4,34,1,,,,,,,,,,,AFNE08.jpg,AFSA18.jpg,AFNE07.jpg,AFSA05.jpg,AFNE08.jpg,FN,3,num_8,32,num_4,0.950120549882,,,2018_Feb_12_1202,60.0027520447,MAFE4ImagesEEG,001,203024,
AFNE01.JPG,AFNE01.JPG,AFNE01.JPG,AFNE01.JPG,AFNE01.JPG,AFNE01.JPG,,,,,,,,,,,,,3,5,35,6,,,,,,,,,,,AFNE14.jpg,AFSA14.jpg,AFSA02.jpg,AFNE07.jpg,AFNE07.jpg,FN,3,num_4,32,num_8,0.733504137723,,,2018_Feb_12_1202,60.0027520447,MAFE4ImagesEEG,001,203024,
AFNE01.JPG,AFNE01.JPG,AFNE01.JPG,AFNE01.JPG,AFNE01.JPG,AFNE01.JPG,,,,,,,,,,,,,3,6,36,5,,,,,,,,,,,AFNE04.jpg,AFSA13.jpg,AFNE09.jpg,AFSA06.jpg,AFNE09.jpg,FN,3,num_2,16,num_2,0.950113172876,,,2018_Feb_12_1202,60.0027520447,MAFE4ImagesEEG,001,203024,
AFNE01.JPG,AFNE01.JPG,AFNE01.JPG,AFNE01.JPG,AFNE01.JPG,AFNE01.JPG,,,,,,,,,,,,,3,7,37,2,,,,,,,,,,,AFNE13.jpg,AFSA09.jpg,AFSA11.jpg,AFNE20.jpg,AFNE20.jpg,FN,3,num_4,32,num_8,1.23348441231,,,2018_Feb_12_1202,60.0027520447,MAFE4ImagesEEG,001,203024,
AFNE01.JPG,AFNE01.JPG,AFNE01.JPG,AFNE01.JPG,AFNE01.JPG,AFNE01.JPG,,,,,,,,,,,,,3,8,38,4,,,,,,,,,,,AFSA05.jpg,AFNE07.jpg,AFNE16.jpg,AFSA20.jpg,AFNE16.jpg,FN,3,num_2,32,num_4,1.0167663258,,,2018_Feb_12_1202,60.0027520447,MAFE4ImagesEEG,001,203024,
AFNE01.JPG,AFNE01.JPG,AFNE01.JPG,AFNE01.JPG,AFNE01.JPG,AFNE01.JPG,,,,,,,,,,,,,3,9,39,9,,,,,,,,,,,AFNE19.jpg,AFSA14.jpg,AFNE03.jpg,AFSA13.jpg,AFNE03.jpg,FN,3,num_2,16,num_2,1.23343309388,,,2018_Feb_12_1202,60.0027520447,MAFE4ImagesEEG,001,203024,
AFNE01.JPG,AFNE01.JPG,AFNE01.JPG,AFNE01.JPG,AFNE01.JPG,AFNE01.JPG,,,,,,,,,,,,,4,0,40,6,,,,,,,,,,,AFSA17.jpg,AFSA15.jpg,AFNE05.jpg,AFNE15.jpg,AFNE05.jpg,FN,3,num_2,16,num_2,1.41675580549,,,2018_Feb_12_1202,60.0027520447,MAFE4ImagesEEG,001,203024,
AFNE01.JPG,AFNE01.JPG,AFNE01.JPG,AFNE01.JPG,AFNE01.JPG,AFNE01.JPG,,,,,,,,,,,,,4,1,41,0,,,,,,,,,,,AFSA05.jpg,AFNE02.jpg,AFSA07.jpg,AFNE03.jpg,AFSA07.jpg,FS,4,num_2,32,num_8,1.26668926817,,,2018_Feb_12_1202,60.0027520447,MAFE4ImagesEEG,001,203024,
AFNE01.JPG,AFNE01.JPG,AFNE01.JPG,AFNE01.JPG,AFNE01.JPG,AFNE01.JPG,,,,,,,,,,,,,4,2,42,2,,,,,,,,,,,AFNE11.jpg,AFSA18.jpg,AFNE13.jpg,AFSA08.jpg,AFNE13.jpg,FN,3,num_2,16,num_2,1.71673364216,,,2018_Feb_12_1202,60.0027520447,MAFE4ImagesEEG,001,203024,
AFNE01.JPG,AFNE01.JPG,AFNE01.JPG,AFNE01.JPG,AFNE01.JPG,AFNE01.JPG,,,,,,,,,,,,,4,3,43,8,,,,,,,,,,,AFNE05.jpg,AFSA01.jpg,AFNE16.jpg,AFSA11.jpg,AFNE16.jpg,FN,3,num_2,32,num_8,1.81670038169,,,2018_Feb_12_1202,60.0027520447,MAFE4ImagesEEG,001,203024,
AFNE01.JPG,AFNE01.JPG,AFNE01.JPG,AFNE01.JPG,AFNE01.JPG,AFNE01.JPG,,,,,,,,,,,,,4,4,44,9,,,,,,,,,,,AFNE11.jpg,AFSA01.jpg,AFNE18.jpg,AFSA11.jpg,AFNE11.jpg,FN,3,num_8,32,num_4,2.44972940837,,,2018_Feb_12_1202,60.0027520447,MAFE4ImagesEEG,001,203024,
AFNE01.JPG,AFNE01.JPG,AFNE01.JPG,AFNE01.JPG,AFNE01.JPG,AFNE01.JPG,,,,,,,,,,,,,4,5,45,4,,,,,,,,,,,AFSA10.jpg,AFNE08.jpg,AFSA06.jpg,AFNE18.jpg,AFSA06.jpg,FS,4,num_2,32,num_6,1.283446613,,,2018_Feb_12_1202,60.0027520447,MAFE4ImagesEEG,001,203024,
AFNE01.JPG,AFNE01.JPG,AFNE01.JPG,AFNE01.JPG,AFNE01.JPG,AFNE01.JPG,,,,,,,,,,,,,4,6,46,5,,,,,,,,,,,AFSA01.jpg,AFSA06.jpg,AFNE05.jpg,AFNE03.jpg,AFSA01.jpg,FS,4,num_8,32,num_2,0.983509189449,,,2018_Feb_12_1202,60.0027520447,MAFE4ImagesEEG,001,203024,
AFNE01.JPG,AFNE01.JPG,AFNE01.JPG,AFNE01.JPG,AFNE01.JPG,AFNE01.JPG,,,,,,,,,,,,,4,7,47,3,,,,,,,,,,,AFNE12.jpg,AFSA03.jpg,AFSA19.jpg,AFNE02.jpg,AFSA19.jpg,FS,4,num_2,32,num_4,0.400450702989,,,2018_Feb_12_1202,60.0027520447,MAFE4ImagesEEG,001,203024,
AFNE01.JPG,AFNE01.JPG,AFNE01.JPG,AFNE01.JPG,AFNE01.JPG,AFNE01.JPG,,,,,,,,,,,,,4,8,48,1,,,,,,,,,,,AFSA11.jpg,AFNE07.jpg,AFNE11.jpg,AFSA02.jpg,AFNE07.jpg,FN,3,num_6,32,num_8,1.06661883369,,,2018_Feb_12_1202,60.0027520447,MAFE4ImagesEEG,001,203024,
AFNE01.JPG,AFNE01.JPG,AFNE01.JPG,AFNE01.JPG,AFNE01.JPG,AFNE01.JPG,,,,,,,,,,,,,4,9,49,7,,,,,,,,,,,AFSA18.jpg,AFSA13.jpg,AFNE02.jpg,AFNE18.jpg,AFSA18.jpg,FS,4,num_8,16,num_8,0.783503544284,,,2018_Feb_12_1202,60.0027520447,MAFE4ImagesEEG,001,203024,
AFNE01.JPG,AFNE01.JPG,AFNE01.JPG,AFNE01.JPG,AFNE01.JPG,AFNE01.JPG,,,,,,,,,,,,,5,0,50,7,,,,,,,,,,,AFNE16.jpg,AFSA04.jpg,AFNE19.jpg,AFSA05.jpg,AFNE19.jpg,FN,3,num_2,32,num_8,1.15009315871,,,2018_Feb_12_1202,60.0027520447,MAFE4ImagesEEG,001,203024,
AFNE01.JPG,AFNE01.JPG,AFNE01.JPG,AFNE01.JPG,AFNE01.JPG,AFNE01.JPG,,,,,,,,,,,,,5,1,51,5,,,,,,,,,,,AFSA15.jpg,AFNE20.jpg,AFSA08.jpg,AFNE09.jpg,AFNE20.jpg,FN,3,num_6,32,num_4,1.56675883639,,,2018_Feb_12_1202,60.0027520447,MAFE4ImagesEEG,001,203024,
AFNE01.JPG,AFNE01.JPG,AFNE01.JPG,AFNE01.JPG,AFNE01.JPG,AFNE01.JPG,,,,,,,,,,,,,5,2,52,9,,,,,,,,,,,AFNE02.jpg,AFNE01.jpg,AFSA07.jpg,AFSA19.jpg,AFNE01.jpg,FN,3,num_6,32,num_2,0.433505452704,,,2018_Feb_12_1202,60.0027520447,MAFE4ImagesEEG,001,203024,
AFNE01.JPG,AFNE01.JPG,AFNE01.JPG,AFNE01.JPG,AFNE01.JPG,AFNE01.JPG,,,,,,,,,,,,,5,3,53,1,,,,,,,,,,,AFSA11.jpg,AFNE14.jpg,AFNE06.jpg,AFSA07.jpg,AFSA07.jpg,FS,4,num_4,32,num_8,0.283521024743,,,2018_Feb_12_1202,60.0027520447,MAFE4ImagesEEG,001,203024,
AFNE01.JPG,AFNE01.JPG,AFNE01.JPG,AFNE01.JPG,AFNE01.JPG,AFNE01.JPG,,,,,,,,,,,,,5,4,54,8,,,,,,,,,,,AFSA13.jpg,AFNE08.jpg,AFNE13.jpg,AFSA08.jpg,AFSA13.jpg,FS,4,num_8,48,None,,,,2018_Feb_12_1202,60.0027520447,MAFE4ImagesEEG,001,203024,
AFNE01.JPG,AFNE01.JPG,AFNE01.JPG,AFNE01.JPG,AFNE01.JPG,AFNE01.JPG,,,,,,,,,,,,,5,5,55,4,,,,,,,,,,,AFSA07.jpg,AFSA08.jpg,AFNE04.jpg,AFNE05.jpg,AFNE05.jpg,FN,3,num_4,32,num_6,1.56672195136,,,2018_Feb_12_1202,60.0027520447,MAFE4ImagesEEG,001,203024,
AFNE01.JPG,AFNE01.JPG,AFNE01.JPG,AFNE01.JPG,AFNE01.JPG,AFNE01.JPG,,,,,,,,,,,,,5,6,56,3,,,,,,,,,,,AFNE14.jpg,AFNE20.jpg,AFSA10.jpg,AFSA02.jpg,AFNE20.jpg,FN,3,num_6,32,num_4,1.15019002184,,,2018_Feb_12_1202,60.0027520447,MAFE4ImagesEEG,001,203024,
AFNE01.JPG,AFNE01.JPG,AFNE01.JPG,AFNE01.JPG,AFNE01.JPG,AFNE01.JPG,,,,,,,,,,,,,5,7,57,2,,,,,,,,,,,AFNE08.jpg,AFSA13.jpg,AFSA03.jpg,AFNE16.jpg,AFSA13.jpg,FS,4,num_6,32,num_8,0.9001358971,,,2018_Feb_12_1202,60.0027520447,MAFE4ImagesEEG,001,203024,
AFNE01.JPG,AFNE01.JPG,AFNE01.JPG,AFNE01.JPG,AFNE01.JPG,AFNE01.JPG,,,,,,,,,,,,,5,8,58,6,,,,,,,,,,,AFSA01.jpg,AFNE05.jpg,AFSA09.jpg,AFNE03.jpg,AFSA09.jpg,FS,4,num_2,32,num_8,1.13343845028,,,2018_Feb_12_1202,60.0027520447,MAFE4ImagesEEG,001,203024,
AFNE01.JPG,AFNE01.JPG,AFNE01.JPG,AFNE01.JPG,AFNE01.JPG,AFNE01.JPG,,,,,,,,,,,,,5,9,59,0,,,,,,,,,,,AFSA20.jpg,AFNE12.jpg,AFSA18.jpg,AFNE20.jpg,AFNE20.jpg,FN,3,num_4,32,num_8,1.21670589829,,,2018_Feb_12_1202,60.0027520447,MAFE4ImagesEEG,001,203024,
,,,,,,,,,,,,,,,,,,,,,,,,,,,,,,,,,,,,,,,,,,,space,18.3154198301,2018_Feb_12_1202,60.0027520447,MAFE4ImagesEEG,001,203024,
AFNE01.JPG,AFNE01.JPG,AFNE01.JPG,AFNE01.JPG,AFNE01.JPG,AFNE01.JPG,,,,,,,,,,,,,,,,,0,0,0,7,,,,,,,AMNE12.jpg,AMNE14.jpg,AMSA11.jpg,AMSA02.jpg,AMNE12.jpg,MN,1,num_8,16,num_8,1.33338315482,,,2018_Feb_12_1202,60.0027520447,MAFE4ImagesEEG,001,203024,
AFNE01.JPG,AFNE01.JPG,AFNE01.JPG,AFNE01.JPG,AFNE01.JPG,AFNE01.JPG,,,,,,,,,,,,,,,,,0,1,1,3,,,,,,,AMSA03.jpg,AMNE17.jpg,AMNE14.jpg,AMSA08.jpg,AMSA03.jpg,MS,2,num_8,32,num_2,1.06648733071,,,2018_Feb_12_1202,60.0027520447,MAFE4ImagesEEG,001,203024,
AFNE01.JPG,AFNE01.JPG,AFNE01.JPG,AFNE01.JPG,AFNE01.JPG,AFNE01.JPG,,,,,,,,,,,,,,,,,0,2,2,9,,,,,,,AMNE12.jpg,AMSA17.jpg,AMSA12.jpg,AMNE07.jpg,AMSA17.jpg,MS,2,num_6,16,num_6,0.700129610719,,,2018_Feb_12_1202,60.0027520447,MAFE4ImagesEEG,001,203024,
AFNE01.JPG,AFNE01.JPG,AFNE01.JPG,AFNE01.JPG,AFNE01.JPG,AFNE01.JPG,,,,,,,,,,,,,,,,,0,3,3,1,,,,,,,AMSA11.jpg,AMSA02.jpg,AMNE17.jpg,AMNE03.jpg,AMNE03.jpg,MN,1,num_4,32,num_8,0.616808919935,,,2018_Feb_12_1202,60.0027520447,MAFE4ImagesEEG,001,203024,
AFNE01.JPG,AFNE01.JPG,AFNE01.JPG,AFNE01.JPG,AFNE01.JPG,AFNE01.JPG,,,,,,,,,,,,,,,,,0,4,4,2,,,,,,,AMNE14.jpg,AMSA20.jpg,AMSA12.jpg,AMNE02.jpg,AMNE02.jpg,MN,1,num_4,32,num_2,1.06678337301,,,2018_Feb_12_1202,60.0027520447,MAFE4ImagesEEG,001,203024,
AFNE01.JPG,AFNE01.JPG,AFNE01.JPG,AFNE01.JPG,AFNE01.JPG,AFNE01.JPG,,,,,,,,,,,,,,,,,0,5,5,0,,,,,,,AMSA04.jpg,AMSA14.jpg,AMNE06.jpg,AMNE03.jpg,AMNE06.jpg,MN,1,num_2,32,num_4,2.3166501862,,,2018_Feb_12_1202,60.0027520447,MAFE4ImagesEEG,001,203024,
AFNE01.JPG,AFNE01.JPG,AFNE01.JPG,AFNE01.JPG,AFNE01.JPG,AFNE01.JPG,,,,,,,,,,,,,,,,,0,6,6,8,,,,,,,AMSA10.jpg,AMNE12.jpg,AMSA20.jpg,AMNE04.jpg,AMNE04.jpg,MN,1,num_4,32,num_2,1.30006251205,,,2018_Feb_12_1202,60.0027520447,MAFE4ImagesEEG,001,203024,
AFNE01.JPG,AFNE01.JPG,AFNE01.JPG,AFNE01.JPG,AFNE01.JPG,AFNE01.JPG,,,,,,,,,,,,,,,,,0,7,7,5,,,,,,,AMSA03.jpg,AMNE18.jpg,AMNE07.jpg,AMSA13.jpg,AMNE07.jpg,MN,1,num_2,32,num_8,0.866768426728,,,2018_Feb_12_1202,60.0027520447,MAFE4ImagesEEG,001,203024,
AFNE01.JPG,AFNE01.JPG,AFNE01.JPG,AFNE01.JPG,AFNE01.JPG,AFNE01.JPG,,,,,,,,,,,,,,,,,0,8,8,4,,,,,,,AMSA02.jpg,AMSA17.jpg,AMNE09.jpg,AMNE19.jpg,AMSA02.jpg,MS,2,num_8,32,num_4,2.0667115273,,,2018_Feb_12_1202,60.0027520447,MAFE4ImagesEEG,001,203024,
AFNE01.JPG,AFNE01.JPG,AFNE01.JPG,AFNE01.JPG,AFNE01.JPG,AFNE01.JPG,,,,,,,,,,,,,,,,,0,9,9,6,,,,,,,AMNE13.jpg,AMSA08.jpg,AMNE14.jpg,AMSA01.jpg,AMSA01.jpg,MS,2,num_4,32,num_8,0.883424417814,,,2018_Feb_12_1202,60.0027520447,MAFE4ImagesEEG,001,203024,
AFNE01.JPG,AFNE01.JPG,AFNE01.JPG,AFNE01.JPG,AFNE01.JPG,AFNE01.JPG,,,,,,,,,,,,,,,,,1,0,10,5,,,,,,,AMNE04.jpg,AMNE09.jpg,AMSA12.jpg,AMSA11.jpg,AMSA12.jpg,MS,2,num_2,32,num_6,1.31671689963,,,2018_Feb_12_1202,60.0027520447,MAFE4ImagesEEG,001,203024,
AFNE01.JPG,AFNE01.JPG,AFNE01.JPG,AFNE01.JPG,AFNE01.JPG,AFNE01.JPG,,,,,,,,,,,,,,,,,1,1,11,3,,,,,,,AMNE16.jpg,AMNE02.jpg,AMSA13.jpg,AMSA01.jpg,AMSA13.jpg,MS,2,num_2,16,num_2,2.26665494894,,,2018_Feb_12_1202,60.0027520447,MAFE4ImagesEEG,001,203024,
AFNE01.JPG,AFNE01.JPG,AFNE01.JPG,AFNE01.JPG,AFNE01.JPG,AFNE01.JPG,,,,,,,,,,,,,,,,,1,2,12,2,,,,,,,AMNE18.jpg,AMNE09.jpg,AMSA10.jpg,AMSA01.jpg,AMNE09.jpg,MN,1,num_6,32,num_4,0.700126082636,,,2018_Feb_12_1202,60.0027520447,MAFE4ImagesEEG,001,203024,
AFNE01.JPG,AFNE01.JPG,AFNE01.JPG,AFNE01.JPG,AFNE01.JPG,AFNE01.JPG,,,,,,,,,,,,,,,,,1,3,13,6,,,,,,,AMSA20.jpg,AMNE19.jpg,AMSA19.jpg,AMNE07.jpg,AMNE19.jpg,MN,1,num_6,32,num_4,2.88332498865,,,2018_Feb_12_1202,60.0027520447,MAFE4ImagesEEG,001,203024,
AFNE01.JPG,AFNE01.JPG,AFNE01.JPG,AFNE01.JPG,AFNE01.JPG,AFNE01.JPG,,,,,,,,,,,,,,,,,1,4,14,4,,,,,,,AMSA13.jpg,AMNE04.jpg,AMNE05.jpg,AMSA17.jpg,AMSA13.jpg,MS,2,num_8,32,num_4,3.08327193861,,,2018_Feb_12_1202,60.0027520447,MAFE4ImagesEEG,001,203024,
AFNE01.JPG,AFNE01.JPG,AFNE01.JPG,AFNE01.JPG,AFNE01.JPG,AFNE01.JPG,,,,,,,,,,,,,,,,,1,5,15,7,,,,,,,AMNE18.jpg,AMSA19.jpg,AMNE05.jpg,AMSA16.jpg,AMNE18.jpg,MN,1,num_8,32,num_6,1.63338344335,,,2018_Feb_12_1202,60.0027520447,MAFE4ImagesEEG,001,203024,
AFNE01.JPG,AFNE01.JPG,AFNE01.JPG,AFNE01.JPG,AFNE01.JPG,AFNE01.JPG,,,,,,,,,,,,,,,,,1,6,16,1,,,,,,,AMNE18.jpg,AMNE06.jpg,AMSA14.jpg,AMSA09.jpg,AMNE06.jpg,MN,1,num_6,32,num_8,0.75015050685,,,2018_Feb_12_1202,60.0027520447,MAFE4ImagesEEG,001,203024,
AFNE01.JPG,AFNE01.JPG,AFNE01.JPG,AFNE01.JPG,AFNE01.JPG,AFNE01.JPG,,,,,,,,,,,,,,,,,1,7,17,0,,,,,,,AMSA07.jpg,AMNE16.jpg,AMNE03.jpg,AMSA14.jpg,AMNE16.jpg,MN,1,num_6,16,num_6,0.583481220994,,,2018_Feb_12_1202,60.0027520447,MAFE4ImagesEEG,001,203024,
AFNE01.JPG,AFNE01.JPG,AFNE01.JPG,AFNE01.JPG,AFNE01.JPG,AFNE01.JPG,,,,,,,,,,,,,,,,,1,8,18,8,,,,,,,AMSA04.jpg,AMSA06.jpg,AMNE06.jpg,AMNE19.jpg,AMNE06.jpg,MN,1,num_2,32,num_8,3.59980524704,,,2018_Feb_12_1202,60.0027520447,MAFE4ImagesEEG,001,203024,
AFNE01.JPG,AFNE01.JPG,AFNE01.JPG,AFNE01.JPG,AFNE01.JPG,AFNE01.JPG,,,,,,,,,,,,,,,,,1,9,19,9,,,,,,,AMNE19.jpg,AMNE14.jpg,AMSA15.jpg,AMSA14.jpg,AMNE14.jpg,MN,1,num_6,32,num_4,0.516860141885,,,2018_Feb_12_1202,60.0027520447,MAFE4ImagesEEG,001,203024,
AFNE01.JPG,AFNE01.JPG,AFNE01.JPG,AFNE01.JPG,AFNE01.JPG,AFNE01.JPG,,,,,,,,,,,,,,,,,2,0,20,1,,,,,,,AMSA08.jpg,AMNE06.jpg,AMNE04.jpg,AMSA20.jpg,AMSA20.jpg,MS,2,num_4,32,num_8,0.833353806986,,,2018_Feb_12_1202,60.0027520447,MAFE4ImagesEEG,001,203024,
AFNE01.JPG,AFNE01.JPG,AFNE01.JPG,AFNE01.JPG,AFNE01.JPG,AFNE01.JPG,,,,,,,,,,,,,,,,,2,1,21,3,,,,,,,AMNE18.jpg,AMSA05.jpg,AMSA04.jpg,AMNE12.jpg,AMSA05.jpg,MS,2,num_6,16,num_6,0.616507104132,,,2018_Feb_12_1202,60.0027520447,MAFE4ImagesEEG,001,203024,
AFNE01.JPG,AFNE01.JPG,AFNE01.JPG,AFNE01.JPG,AFNE01.JPG,AFNE01.JPG,,,,,,,,,,,,,,,,,2,2,22,8,,,,,,,AMSA04.jpg,AMNE13.jpg,AMNE19.jpg,AMSA16.jpg,AMSA16.jpg,MS,2,num_4,48,None,,,,2018_Feb_12_1202,60.0027520447,MAFE4ImagesEEG,001,203024,
AFNE01.JPG,AFNE01.JPG,AFNE01.JPG,AFNE01.JPG,AFNE01.JPG,AFNE01.JPG,,,,,,,,,,,,,,,,,2,3,23,4,,,,,,,AMSA14.jpg,AMSA18.jpg,AMNE07.jpg,AMNE01.jpg,AMNE01.jpg,MN,1,num_4,48,None,,,,2018_Feb_12_1202,60.0027520447,MAFE4ImagesEEG,001,203024,
AFNE01.JPG,AFNE01.JPG,AFNE01.JPG,AFNE01.JPG,AFNE01.JPG,AFNE01.JPG,,,,,,,,,,,,,,,,,2,4,24,6,,,,,,,AMNE14.jpg,AMSA14.jpg,AMSA01.jpg,AMNE06.jpg,AMSA14.jpg,MS,2,num_6,48,None,,,,2018_Feb_12_1202,60.0027520447,MAFE4ImagesEEG,001,203024,
AFNE01.JPG,AFNE01.JPG,AFNE01.JPG,AFNE01.JPG,AFNE01.JPG,AFNE01.JPG,,,,,,,,,,,,,,,,,2,5,25,9,,,,,,,AMNE11.jpg,AMNE19.jpg,AMSA20.jpg,AMSA09.jpg,AMNE19.jpg,MN,1,num_6,32,num_4,0.600210340694,,,2018_Feb_12_1202,60.0027520447,MAFE4ImagesEEG,001,203024,
AFNE01.JPG,AFNE01.JPG,AFNE01.JPG,AFNE01.JPG,AFNE01.JPG,AFNE01.JPG,,,,,,,,,,,,,,,,,2,6,26,7,,,,,,,AMNE01.jpg,AMSA13.jpg,AMNE12.jpg,AMSA01.jpg,AMSA01.jpg,MS,2,num_4,48,None,,,,2018_Feb_12_1202,60.0027520447,MAFE4ImagesEEG,001,203024,
AFNE01.JPG,AFNE01.JPG,AFNE01.JPG,AFNE01.JPG,AFNE01.JPG,AFNE01.JPG,,,,,,,,,,,,,,,,,2,7,27,5,,,,,,,AMSA11.jpg,AMNE07.jpg,AMNE03.jpg,AMSA20.jpg,AMNE07.jpg,MN,1,num_6,32,num_8,0.93353961152,,,2018_Feb_12_1202,60.0027520447,MAFE4ImagesEEG,001,203024,
AFNE01.JPG,AFNE01.JPG,AFNE01.JPG,AFNE01.JPG,AFNE01.JPG,AFNE01.JPG,,,,,,,,,,,,,,,,,2,8,28,0,,,,,,,AMNE08.jpg,AMNE18.jpg,AMSA04.jpg,AMSA07.jpg,AMSA04.jpg,MS,2,num_2,48,None,,,,2018_Feb_12_1202,60.0027520447,MAFE4ImagesEEG,001,203024,
AFNE01.JPG,AFNE01.JPG,AFNE01.JPG,AFNE01.JPG,AFNE01.JPG,AFNE01.JPG,,,,,,,,,,,,,,,,,2,9,29,2,,,,,,,AMSA16.jpg,AMNE19.jpg,AMNE14.jpg,AMSA09.jpg,AMNE19.jpg,MN,1,num_6,32,num_4,4.84984910814,,,2018_Feb_12_1202,60.0027520447,MAFE4ImagesEEG,001,203024,
AFNE01.JPG,AFNE01.JPG,AFNE01.JPG,AFNE01.JPG,AFNE01.JPG,AFNE01.JPG,,,,,,,,,,,,,,,,,3,0,30,9,,,,,,,AMNE20.jpg,AMSA15.jpg,AMNE11.jpg,AMSA07.jpg,AMNE11.jpg,MN,1,num_2,48,None,,,,2018_Feb_12_1202,60.0027520447,MAFE4ImagesEEG,001,203024,
AFNE01.JPG,AFNE01.JPG,AFNE01.JPG,AFNE01.JPG,AFNE01.JPG,AFNE01.JPG,,,,,,,,,,,,,,,,,3,1,31,8,,,,,,,AMNE19.jpg,AMSA11.jpg,AMNE15.jpg,AMSA17.jpg,AMNE15.jpg,MN,1,num_2,32,num_6,1.03344733478,,,2018_Feb_12_1202,60.0027520447,MAFE4ImagesEEG,001,203024,
AFNE01.JPG,AFNE01.JPG,AFNE01.JPG,AFNE01.JPG,AFNE01.JPG,AFNE01.JPG,,,,,,,,,,,,,,,,,3,2,32,3,,,,,,,AMSA07.jpg,AMNE09.jpg,AMNE10.jpg,AMSA03.jpg,AMSA07.jpg,MS,2,num_8,32,num_2,2.08339157421,,,2018_Feb_12_1202,60.0027520447,MAFE4ImagesEEG,001,203024,
AFNE01.JPG,AFNE01.JPG,AFNE01.JPG,AFNE01.JPG,AFNE01.JPG,AFNE01.JPG,,,,,,,,,,,,,,,,,3,3,33,1,,,,,,,AMSA06.jpg,AMNE13.jpg,AMNE14.jpg,AMSA19.jpg,AMSA19.jpg,MS,2,num_4,48,None,,,,2018_Feb_12_1202,60.0027520447,MAFE4ImagesEEG,001,203024,
AFNE01.JPG,AFNE01.JPG,AFNE01.JPG,AFNE01.JPG,AFNE01.JPG,AFNE01.JPG,,,,,,,,,,,,,,,,,3,4,34,0,,,,,,,AMSA14.jpg,AMNE08.jpg,AMSA07.jpg,AMNE04.jpg,AMSA14.jpg,MS,2,num_8,32,num_6,1.91668508248,,,2018_Feb_12_1202,60.0027520447,MAFE4ImagesEEG,001,203024,
AFNE01.JPG,AFNE01.JPG,AFNE01.JPG,AFNE01.JPG,AFNE01.JPG,AFNE01.JPG,,,,,,,,,,,,,,,,,3,5,35,2,,,,,,,AMNE15.jpg,AMNE18.jpg,AMSA15.jpg,AMSA11.jpg,AMSA11.jpg,MS,2,num_4,48,None,,,,2018_Feb_12_1202,60.0027520447,MAFE4ImagesEEG,001,203024,
AFNE01.JPG,AFNE01.JPG,AFNE01.JPG,AFNE01.JPG,AFNE01.JPG,AFNE01.JPG,,,,,,,,,,,,,,,,,3,6,36,5,,,,,,,AMSA03.jpg,AMNE11.jpg,AMSA09.jpg,AMNE09.jpg,AMNE11.jpg,MN,1,num_6,16,num_6,0.683466883842,,,2018_Feb_12_1202,60.0027520447,MAFE4ImagesEEG,001,203024,
AFNE01.JPG,AFNE01.JPG,AFNE01.JPG,AFNE01.JPG,AFNE01.JPG,AFNE01.JPG,,,,,,,,,,,,,,,,,3,7,37,7,,,,,,,AMNE10.jpg,AMSA20.jpg,AMNE12.jpg,AMSA15.jpg,AMSA20.jpg,MS,2,num_6,48,None,,,,2018_Feb_12_1202,60.0027520447,MAFE4ImagesEEG,001,203024,
AFNE01.JPG,AFNE01.JPG,AFNE01.JPG,AFNE01.JPG,AFNE01.JPG,AFNE01.JPG,,,,,,,,,,,,,,,,,3,8,38,4,,,,,,,AMSA07.jpg,AMNE19.jpg,AMSA03.jpg,AMNE18.jpg,AMNE19.jpg,MN,1,num_6,48,None,,,,2018_Feb_12_1202,60.0027520447,MAFE4ImagesEEG,001,203024,
AFNE01.JPG,AFNE01.JPG,AFNE01.JPG,AFNE01.JPG,AFNE01.JPG,AFNE01.JPG,,,,,,,,,,,,,,,,,3,9,39,6,,,,,,,AMNE11.jpg,AMNE14.jpg,AMSA01.jpg,AMSA05.jpg,AMNE11.jpg,MN,1,num_8,32,num_4,2.06669388688,,,2018_Feb_12_1202,60.0027520447,MAFE4ImagesEEG,001,203024,
AFNE01.JPG,AFNE01.JPG,AFNE01.JPG,AFNE01.JPG,AFNE01.JPG,AFNE01.JPG,,,,,,,,,,,,,,,,,4,0,40,1,,,,,,,AMNE16.jpg,AMSA18.jpg,AMNE17.jpg,AMSA07.jpg,AMNE17.jpg,MN,1,num_2,48,None,,,,2018_Feb_12_1202,60.0027520447,MAFE4ImagesEEG,001,203024,
AFNE01.JPG,AFNE01.JPG,AFNE01.JPG,AFNE01.JPG,AFNE01.JPG,AFNE01.JPG,,,,,,,,,,,,,,,,,4,1,41,4,,,,,,,AMSA05.jpg,AMSA17.jpg,AMNE03.jpg,AMNE05.jpg,AMNE03.jpg,MN,1,num_2,32,num_6,2.55001945281,,,2018_Feb_12_1202,60.0027520447,MAFE4ImagesEEG,001,203024,
AFNE01.JPG,AFNE01.JPG,AFNE01.JPG,AFNE01.JPG,AFNE01.JPG,AFNE01.JPG,,,,,,,,,,,,,,,,,4,2,42,0,,,,,,,AMSA11.jpg,AMNE16.jpg,AMNE17.jpg,AMSA04.jpg,AMNE17.jpg,MN,1,num_2,32,num_4,3.01664412394,,,2018_Feb_12_1202,60.0027520447,MAFE4ImagesEEG,001,203024,
AFNE01.JPG,AFNE01.JPG,AFNE01.JPG,AFNE01.JPG,AFNE01.JPG,AFNE01.JPG,,,,,,,,,,,,,,,,,4,3,43,6,,,,,,,AMSA14.jpg,AMSA02.jpg,AMNE06.jpg,AMNE10.jpg,AMSA14.jpg,MS,2,num_8,48,None,,,,2018_Feb_12_1202,60.0027520447,MAFE4ImagesEEG,001,203024,
AFNE01.JPG,AFNE01.JPG,AFNE01.JPG,AFNE01.JPG,AFNE01.JPG,AFNE01.JPG,,,,,,,,,,,,,,,,,4,4,44,8,,,,,,,AMNE10.jpg,AMSA08.jpg,AMSA04.jpg,AMNE16.jpg,AMSA04.jpg,MS,2,num_2,32,num_6,3.66685066419,,,2018_Feb_12_1202,60.0027520447,MAFE4ImagesEEG,001,203024,
AFNE01.JPG,AFNE01.JPG,AFNE01.JPG,AFNE01.JPG,AFNE01.JPG,AFNE01.JPG,,,,,,,,,,,,,,,,,4,5,45,9,,,,,,,AMNE09.jpg,AMSA01.jpg,AMSA02.jpg,AMNE11.jpg,AMSA01.jpg,MS,2,num_6,32,num_8,1.01676408038,,,2018_Feb_12_1202,60.0027520447,MAFE4ImagesEEG,001,203024,
AFNE01.JPG,AFNE01.JPG,AFNE01.JPG,AFNE01.JPG,AFNE01.JPG,AFNE01.JPG,,,,,,,,,,,,,,,,,4,6,46,2,,,,,,,AMSA19.jpg,AMNE17.jpg,AMNE04.jpg,AMSA10.jpg,AMSA19.jpg,MS,2,num_8,48,None,,,,2018_Feb_12_1202,60.0027520447,MAFE4ImagesEEG,001,203024,
AFNE01.JPG,AFNE01.JPG,AFNE01.JPG,AFNE01.JPG,AFNE01.JPG,AFNE01.JPG,,,,,,,,,,,,,,,,,4,7,47,5,,,,,,,AMSA14.jpg,AMNE18.jpg,AMNE13.jpg,AMSA05.jpg,AMNE18.jpg,MN,1,num_6,48,None,,,,2018_Feb_12_1202,60.0027520447,MAFE4ImagesEEG,001,203024,
AFNE01.JPG,AFNE01.JPG,AFNE01.JPG,AFNE01.JPG,AFNE01.JPG,AFNE01.JPG,,,,,,,,,,,,,,,,,4,8,48,7,,,,,,,AMNE17.jpg,AMSA14.jpg,AMSA19.jpg,AMNE14.jpg,AMSA14.jpg,MS,2,num_6,32,num_8,3.74987851991,,,2018_Feb_12_1202,60.0027520447,MAFE4ImagesEEG,001,203024,
AFNE01.JPG,AFNE01.JPG,AFNE01.JPG,AFNE01.JPG,AFNE01.JPG,AFNE01.JPG,,,,,,,,,,,,,,,,,4,9,49,3,,,,,,,AMNE15.jpg,AMSA17.jpg,AMSA16.jpg,AMNE02.jpg,AMSA17.jpg,MS,2,num_6,16,num_6,2.89999477216,,,2018_Feb_12_1202,60.0027520447,MAFE4ImagesEEG,001,203024,
AFNE01.JPG,AFNE01.JPG,AFNE01.JPG,AFNE01.JPG,AFNE01.JPG,AFNE01.JPG,,,,,,,,,,,,,,,,,5,0,50,4,,,,,,,AMNE17.jpg,AMNE16.jpg,AMSA18.jpg,AMSA05.jpg,AMSA05.jpg,MS,2,num_4,48,None,,,,2018_Feb_12_1202,60.0027520447,MAFE4ImagesEEG,001,203024,
AFNE01.JPG,AFNE01.JPG,AFNE01.JPG,AFNE01.JPG,AFNE01.JPG,AFNE01.JPG,,,,,,,,,,,,,,,,,5,1,51,2,,,,,,,AMSA09.jpg,AMSA12.jpg,AMNE01.jpg,AMNE05.jpg,AMSA09.jpg,MS,2,num_8,48,None,,,,2018_Feb_12_1202,60.0027520447,MAFE4ImagesEEG,001,203024,
AFNE01.JPG,AFNE01.JPG,AFNE01.JPG,AFNE01.JPG,AFNE01.JPG,AFNE01.JPG,,,,,,,,,,,,,,,,,5,2,52,9,,,,,,,AMSA16.jpg,AMNE13.jpg,AMSA20.jpg,AMNE17.jpg,AMNE13.jpg,MN,1,num_6,32,num_8,2.01669897046,,,2018_Feb_12_1202,60.0027520447,MAFE4ImagesEEG,001,203024,
AFNE01.JPG,AFNE01.JPG,AFNE01.JPG,AFNE01.JPG,AFNE01.JPG,AFNE01.JPG,,,,,,,,,,,,,,,,,5,3,53,6,,,,,,,AMSA08.jpg,AMNE08.jpg,AMNE19.jpg,AMSA05.jpg,AMSA05.jpg,MS,2,num_4,32,num_8,0.783508355496,,,2018_Feb_12_1202,60.0027520447,MAFE4ImagesEEG,001,203024,
AFNE01.JPG,AFNE01.JPG,AFNE01.JPG,AFNE01.JPG,AFNE01.JPG,AFNE01.JPG,,,,,,,,,,,,,,,,,5,4,54,0,,,,,,,AMSA20.jpg,AMNE15.jpg,AMNE07.jpg,AMSA17.jpg,AMSA20.jpg,MS,2,num_8,32,num_4,0.65014367504,,,2018_Feb_12_1202,60.0027520447,MAFE4ImagesEEG,001,203024,
AFNE01.JPG,AFNE01.JPG,AFNE01.JPG,AFNE01.JPG,AFNE01.JPG,AFNE01.JPG,,,,,,,,,,,,,,,,,5,5,55,5,,,,,,,AMSA16.jpg,AMSA09.jpg,AMNE05.jpg,AMNE15.jpg,AMNE05.jpg,MN,1,num_2,32,num_8,0.750150827691,,,2018_Feb_12_1202,60.0027520447,MAFE4ImagesEEG,001,203024,
AFNE01.JPG,AFNE01.JPG,AFNE01.JPG,AFNE01.JPG,AFNE01.JPG,AFNE01.JPG,,,,,,,,,,,,,,,,,5,6,56,1,,,,,,,AMNE01.jpg,AMSA07.jpg,AMSA09.jpg,AMNE20.jpg,AMNE20.jpg,MN,1,num_4,32,num_2,1.00010905135,,,2018_Feb_12_1202,60.0027520447,MAFE4ImagesEEG,001,203024,
AFNE01.JPG,AFNE01.JPG,AFNE01.JPG,AFNE01.JPG,AFNE01.JPG,AFNE01.JPG,,,,,,,,,,,,,,,,,5,7,57,7,,,,,,,AMNE01.jpg,AMNE13.jpg,AMSA07.jpg,AMSA20.jpg,AMSA20.jpg,MS,2,num_4,48,None,,,,2018_Feb_12_1202,60.0027520447,MAFE4ImagesEEG,001,203024,
AFNE01.JPG,AFNE01.JPG,AFNE01.JPG,AFNE01.JPG,AFNE01.JPG,AFNE01.JPG,,,,,,,,,,,,,,,,,5,8,58,8,,,,,,,AMNE06.jpg,AMSA04.jpg,AMNE05.jpg,AMSA19.jpg,AMNE06.jpg,MN,1,num_8,48,None,,,,2018_Feb_12_1202,60.0027520447,MAFE4ImagesEEG,001,203024,
AFNE01.JPG,AFNE01.JPG,AFNE01.JPG,AFNE01.JPG,AFNE01.JPG,AFNE01.JPG,,,,,,,,,,,,,,,,,5,9,59,3,,,,,,,AMSA12.jpg,AMNE10.jpg,AMNE13.jpg,AMSA06.jpg,AMNE13.jpg,MN,1,num_2,32,num_4,1.4167776159,,,2018_Feb_12_1202,60.0027520447,MAFE4ImagesEEG,001,203024,
,,,,,,,,,,,,,,,,,,,,,,,,,,,,,,,,,,,,,,,,,,,space,55.2293250649,2018_Feb_12_1202,60.0027520447,MAFE4ImagesEEG,001,203024,
AFNE01.JPG,AFNE01.JPG,AFNE01.JPG,AFNE01.JPG,AFNE01.JPG,AFNE01.JPG,,,,,,,,,,,,,,,,,,,,,0,0,0,8,,,AFSA02.jpg,AFNE14.jpg,AFSA06.jpg,AFNE01.jpg,AFNE14.jpg,FN,3,num_6,16,num_6,0.800179100828,,,2018_Feb_12_1202,60.0027520447,MAFE4ImagesEEG,001,203024,
AFNE01.JPG,AFNE01.JPG,AFNE01.JPG,AFNE01.JPG,AFNE01.JPG,AFNE01.JPG,,,,,,,,,,,,,,,,,,,,,0,1,1,5,,,AFNE01.jpg,AFNE11.jpg,AFSA05.jpg,AFSA17.jpg,AFSA05.jpg,FS,4,num_2,16,num_2,0.866786387982,,,2018_Feb_12_1202,60.0027520447,MAFE4ImagesEEG,001,203024,
AFNE01.JPG,AFNE01.JPG,AFNE01.JPG,AFNE01.JPG,AFNE01.JPG,AFNE01.JPG,,,,,,,,,,,,,,,,,,,,,0,2,2,6,,,AFSA04.jpg,AFSA18.jpg,AFNE04.jpg,AFNE05.jpg,AFSA18.jpg,FS,4,num_6,16,num_6,1.0834111392,,,2018_Feb_12_1202,60.0027520447,MAFE4ImagesEEG,001,203024,
AFNE01.JPG,AFNE01.JPG,AFNE01.JPG,AFNE01.JPG,AFNE01.JPG,AFNE01.JPG,,,,,,,,,,,,,,,,,,,,,0,3,3,0,,,AFNE17.jpg,AFSA15.jpg,AFSA12.jpg,AFNE12.jpg,AFSA15.jpg,FS,4,num_6,16,num_6,0.750081548002,,,2018_Feb_12_1202,60.0027520447,MAFE4ImagesEEG,001,203024,
AFNE01.JPG,AFNE01.JPG,AFNE01.JPG,AFNE01.JPG,AFNE01.JPG,AFNE01.JPG,,,,,,,,,,,,,,,,,,,,,0,4,4,7,,,AFNE16.jpg,AFNE06.jpg,AFSA07.jpg,AFSA14.jpg,AFSA07.jpg,FS,4,num_2,32,num_8,0.966780390125,,,2018_Feb_12_1202,60.0027520447,MAFE4ImagesEEG,001,203024,
AFNE01.JPG,AFNE01.JPG,AFNE01.JPG,AFNE01.JPG,AFNE01.JPG,AFNE01.JPG,,,,,,,,,,,,,,,,,,,,,0,5,5,4,,,AFSA04.jpg,AFSA16.jpg,AFNE11.jpg,AFNE14.jpg,AFNE11.jpg,FN,3,num_2,16,num_2,0.816792113241,,,2018_Feb_12_1202,60.0027520447,MAFE4ImagesEEG,001,203024,
AFNE01.JPG,AFNE01.JPG,AFNE01.JPG,AFNE01.JPG,AFNE01.JPG,AFNE01.JPG,,,,,,,,,,,,,,,,,,,,,0,6,6,2,,,AFSA17.jpg,AFNE03.jpg,AFNE07.jpg,AFSA18.jpg,AFNE03.jpg,FN,3,num_6,32,num_2,1.30014269706,,,2018_Feb_12_1202,60.0027520447,MAFE4ImagesEEG,001,203024,
AFNE01.JPG,AFNE01.JPG,AFNE01.JPG,AFNE01.JPG,AFNE01.JPG,AFNE01.JPG,,,,,,,,,,,,,,,,,,,,,0,7,7,9,,,AFNE20.jpg,AFSA13.jpg,AFNE03.jpg,AFSA20.jpg,AFNE03.jpg,FN,3,num_2,32,num_4,1.06687157624,,,2018_Feb_12_1202,60.0027520447,MAFE4ImagesEEG,001,203024,
AFNE01.JPG,AFNE01.JPG,AFNE01.JPG,AFNE01.JPG,AFNE01.JPG,AFNE01.JPG,,,,,,,,,,,,,,,,,,,,,0,8,8,3,,,AFNE10.jpg,AFSA03.jpg,AFSA11.jpg,AFNE03.jpg,AFSA03.jpg,FS,4,num_6,32,num_4,1.10011716606,,,2018_Feb_12_1202,60.0027520447,MAFE4ImagesEEG,001,203024,
AFNE01.JPG,AFNE01.JPG,AFNE01.JPG,AFNE01.JPG,AFNE01.JPG,AFNE01.JPG,,,,,,,,,,,,,,,,,,,,,0,9,9,1,,,AFSA09.jpg,AFNE06.jpg,AFSA04.jpg,AFNE11.jpg,AFSA04.jpg,FS,4,num_2,48,None,,,,2018_Feb_12_1202,60.0027520447,MAFE4ImagesEEG,001,203024,
AFNE01.JPG,AFNE01.JPG,AFNE01.JPG,AFNE01.JPG,AFNE01.JPG,AFNE01.JPG,,,,,,,,,,,,,,,,,,,,,1,0,10,9,,,AFNE09.jpg,AFSA05.jpg,AFSA03.jpg,AFNE06.jpg,AFNE06.jpg,FN,3,num_4,48,None,,,,2018_Feb_12_1202,60.0027520447,MAFE4ImagesEEG,001,203024,
AFNE01.JPG,AFNE01.JPG,AFNE01.JPG,AFNE01.JPG,AFNE01.JPG,AFNE01.JPG,,,,,,,,,,,,,,,,,,,,,1,1,11,7,,,AFSA11.jpg,AFSA14.jpg,AFNE16.jpg,AFNE07.jpg,AFSA11.jpg,FS,4,num_8,48,None,,,,2018_Feb_12_1202,60.0027520447,MAFE4ImagesEEG,001,203024,
AFNE01.JPG,AFNE01.JPG,AFNE01.JPG,AFNE01.JPG,AFNE01.JPG,AFNE01.JPG,,,,,,,,,,,,,,,,,,,,,1,2,12,0,,,AFNE11.jpg,AFSA02.jpg,AFSA13.jpg,AFNE03.jpg,AFNE03.jpg,FN,3,num_4,32,num_6,3.63331769197,,,2018_Feb_12_1202,60.0027520447,MAFE4ImagesEEG,001,203024,
AFNE01.JPG,AFNE01.JPG,AFNE01.JPG,AFNE01.JPG,AFNE01.JPG,AFNE01.JPG,,,,,,,,,,,,,,,,,,,,,1,3,13,3,,,AFNE08.jpg,AFSA19.jpg,AFSA17.jpg,AFNE04.jpg,AFSA17.jpg,FS,4,num_2,16,num_2,0.800126820337,,,2018_Feb_12_1202,60.0027520447,MAFE4ImagesEEG,001,203024,
AFNE01.JPG,AFNE01.JPG,AFNE01.JPG,AFNE01.JPG,AFNE01.JPG,AFNE01.JPG,,,,,,,,,,,,,,,,,,,,,1,4,14,6,,,AFSA07.jpg,AFSA05.jpg,AFNE07.jpg,AFNE19.jpg,AFSA05.jpg,FS,4,num_6,48,None,,,,2018_Feb_12_1202,60.0027520447,MAFE4ImagesEEG,001,203024,
AFNE01.JPG,AFNE01.JPG,AFNE01.JPG,AFNE01.JPG,AFNE01.JPG,AFNE01.JPG,,,,,,,,,,,,,,,,,,,,,1,5,15,4,,,AFSA10.jpg,AFNE14.jpg,AFNE12.jpg,AFSA14.jpg,AFSA14.jpg,FS,4,num_4,48,None,,,,2018_Feb_12_1202,60.0027520447,MAFE4ImagesEEG,001,203024,
AFNE01.JPG,AFNE01.JPG,AFNE01.JPG,AFNE01.JPG,AFNE01.JPG,AFNE01.JPG,,,,,,,,,,,,,,,,,,,,,1,6,16,1,,,AFSA08.jpg,AFNE07.jpg,AFSA13.jpg,AFNE04.jpg,AFNE07.jpg,FN,3,num_6,48,None,,,,2018_Feb_12_1202,60.0027520447,MAFE4ImagesEEG,001,203024,
AFNE01.JPG,AFNE01.JPG,AFNE01.JPG,AFNE01.JPG,AFNE01.JPG,AFNE01.JPG,,,,,,,,,,,,,,,,,,,,,1,7,17,8,,,AFNE09.jpg,AFSA06.jpg,AFNE13.jpg,AFSA01.jpg,AFNE09.jpg,FN,3,num_8,32,num_2,3.68325904477,,,2018_Feb_12_1202,60.0027520447,MAFE4ImagesEEG,001,203024,
AFNE01.JPG,AFNE01.JPG,AFNE01.JPG,AFNE01.JPG,AFNE01.JPG,AFNE01.JPG,,,,,,,,,,,,,,,,,,,,,1,8,18,5,,,AFNE04.jpg,AFSA12.jpg,AFSA16.jpg,AFNE05.jpg,AFSA16.jpg,FS,4,num_2,32,num_8,0.983412326081,,,2018_Feb_12_1202,60.0027520447,MAFE4ImagesEEG,001,203024,
AFNE01.JPG,AFNE01.JPG,AFNE01.JPG,AFNE01.JPG,AFNE01.JPG,AFNE01.JPG,,,,,,,,,,,,,,,,,,,,,1,9,19,2,,,AFNE11.jpg,AFSA15.jpg,AFNE06.jpg,AFSA12.jpg,AFSA12.jpg,FS,4,num_4,48,None,,,,2018_Feb_12_1202,60.0027520447,MAFE4ImagesEEG,001,203024,
AFNE01.JPG,AFNE01.JPG,AFNE01.JPG,AFNE01.JPG,AFNE01.JPG,AFNE01.JPG,,,,,,,,,,,,,,,,,,,,,2,0,20,9,,,AFSA13.jpg,AFSA10.jpg,AFNE12.jpg,AFNE16.jpg,AFSA10.jpg,FS,4,num_6,16,num_6,1.95008174051,,,2018_Feb_12_1202,60.0027520447,MAFE4ImagesEEG,001,203024,
AFNE01.JPG,AFNE01.JPG,AFNE01.JPG,AFNE01.JPG,AFNE01.JPG,AFNE01.JPG,,,,,,,,,,,,,,,,,,,,,2,1,21,7,,,AFSA12.jpg,AFSA04.jpg,AFNE05.jpg,AFNE15.jpg,AFSA04.jpg,FS,4,num_6,48,None,,,,2018_Feb_12_1202,60.0027520447,MAFE4ImagesEEG,001,203024,
AFNE01.JPG,AFNE01.JPG,AFNE01.JPG,AFNE01.JPG,AFNE01.JPG,AFNE01.JPG,,,,,,,,,,,,,,,,,,,,,2,2,22,2,,,AFSA14.jpg,AFNE01.jpg,AFSA15.jpg,AFNE14.jpg,AFSA15.jpg,FS,4,num_2,32,num_8,0.983443437843,,,2018_Feb_12_1202,60.0027520447,MAFE4ImagesEEG,001,203024,
AFNE01.JPG,AFNE01.JPG,AFNE01.JPG,AFNE01.JPG,AFNE01.JPG,AFNE01.JPG,,,,,,,,,,,,,,,,,,,,,2,3,23,8,,,AFNE11.jpg,AFSA12.jpg,AFSA18.jpg,AFNE06.jpg,AFNE06.jpg,FN,3,num_4,48,None,,,,2018_Feb_12_1202,60.0027520447,MAFE4ImagesEEG,001,203024,
AFNE01.JPG,AFNE01.JPG,AFNE01.JPG,AFNE01.JPG,AFNE01.JPG,AFNE01.JPG,,,,,,,,,,,,,,,,,,,,,2,4,24,4,,,AFSA05.jpg,AFNE04.jpg,AFSA01.jpg,AFNE17.jpg,AFSA05.jpg,FS,4,num_8,32,num_6,0.283546363004,,,2018_Feb_12_1202,60.0027520447,MAFE4ImagesEEG,001,203024,
AFNE01.JPG,AFNE01.JPG,AFNE01.JPG,AFNE01.JPG,AFNE01.JPG,AFNE01.JPG,,,,,,,,,,,,,,,,,,,,,2,5,25,5,,,AFSA19.jpg,AFSA06.jpg,AFNE02.jpg,AFNE01.jpg,AFNE01.jpg,FN,3,num_4,48,None,,,,2018_Feb_12_1202,60.0027520447,MAFE4ImagesEEG,001,203024,
AFNE01.JPG,AFNE01.JPG,AFNE01.JPG,AFNE01.JPG,AFNE01.JPG,AFNE01.JPG,,,,,,,,,,,,,,,,,,,,,2,6,26,0,,,AFSA13.jpg,AFNE04.jpg,AFNE02.jpg,AFSA07.jpg,AFSA07.jpg,FS,4,num_4,48,None,,,,2018_Feb_12_1202,60.0027520447,MAFE4ImagesEEG,001,203024,
AFNE01.JPG,AFNE01.JPG,AFNE01.JPG,AFNE01.JPG,AFNE01.JPG,AFNE01.JPG,,,,,,,,,,,,,,,,,,,,,2,7,27,3,,,AFSA01.jpg,AFSA03.jpg,AFNE18.jpg,AFNE04.jpg,AFNE18.jpg,FN,3,num_2,32,num_8,2.69997501443,,,2018_Feb_12_1202,60.0027520447,MAFE4ImagesEEG,001,203024,
AFNE01.JPG,AFNE01.JPG,AFNE01.JPG,AFNE01.JPG,AFNE01.JPG,AFNE01.JPG,,,,,,,,,,,,,,,,,,,,,2,8,28,6,,,AFSA06.jpg,AFNE01.jpg,AFNE18.jpg,AFSA19.jpg,AFNE01.jpg,FN,3,num_6,48,None,,,,2018_Feb_12_1202,60.0027520447,MAFE4ImagesEEG,001,203024,
AFNE01.JPG,AFNE01.JPG,AFNE01.JPG,AFNE01.JPG,AFNE01.JPG,AFNE01.JPG,,,,,,,,,,,,,,,,,,,,,2,9,29,1,,,AFNE09.jpg,AFNE20.jpg,AFSA06.jpg,AFSA09.jpg,AFNE09.jpg,FN,3,num_8,48,None,,,,2018_Feb_12_1202,60.0027520447,MAFE4ImagesEEG,001,203024,
AFNE01.JPG,AFNE01.JPG,AFNE01.JPG,AFNE01.JPG,AFNE01.JPG,AFNE01.JPG,,,,,,,,,,,,,,,,,,,,,3,0,30,9,,,AFNE02.jpg,AFSA07.jpg,AFSA01.jpg,AFNE04.jpg,AFSA07.jpg,FS,4,num_6,48,None,,,,2018_Feb_12_1202,60.0027520447,MAFE4ImagesEEG,001,203024,
AFNE01.JPG,AFNE01.JPG,AFNE01.JPG,AFNE01.JPG,AFNE01.JPG,AFNE01.JPG,,,,,,,,,,,,,,,,,,,,,3,1,31,4,,,AFSA17.jpg,AFNE08.jpg,AFSA01.jpg,AFNE15.jpg,AFNE08.jpg,FN,3,num_6,48,None,,,,2018_Feb_12_1202,60.0027520447,MAFE4ImagesEEG,001,203024,
AFNE01.JPG,AFNE01.JPG,AFNE01.JPG,AFNE01.JPG,AFNE01.JPG,AFNE01.JPG,,,,,,,,,,,,,,,,,,,,,3,2,32,3,,,AFNE05.jpg,AFSA04.jpg,AFNE12.jpg,AFSA14.jpg,AFSA14.jpg,FS,4,num_4,32,num_6,0.816728285979,,,2018_Feb_12_1202,60.0027520447,MAFE4ImagesEEG,001,203024,
AFNE01.JPG,AFNE01.JPG,AFNE01.JPG,AFNE01.JPG,AFNE01.JPG,AFNE01.JPG,,,,,,,,,,,,,,,,,,,,,3,3,33,0,,,AFSA12.jpg,AFNE04.jpg,AFSA03.jpg,AFNE11.jpg,AFSA03.jpg,FS,4,num_2,48,None,,,,2018_Feb_12_1202,60.0027520447,MAFE4ImagesEEG,001,203024,
AFNE01.JPG,AFNE01.JPG,AFNE01.JPG,AFNE01.JPG,AFNE01.JPG,AFNE01.JPG,,,,,,,,,,,,,,,,,,,,,3,4,34,6,,,AFNE20.jpg,AFNE05.jpg,AFSA17.jpg,AFSA05.jpg,AFSA05.jpg,FS,4,num_4,48,None,,,,2018_Feb_12_1202,60.0027520447,MAFE4ImagesEEG,001,203024,
AFNE01.JPG,AFNE01.JPG,AFNE01.JPG,AFNE01.JPG,AFNE01.JPG,AFNE01.JPG,,,,,,,,,,,,,,,,,,,,,3,5,35,7,,,AFNE02.jpg,AFSA12.jpg,AFNE08.jpg,AFSA19.jpg,AFSA12.jpg,FS,4,num_6,32,num_8,1.2167960261,,,2018_Feb_12_1202,60.0027520447,MAFE4ImagesEEG,001,203024,
AFNE01.JPG,AFNE01.JPG,AFNE01.JPG,AFNE01.JPG,AFNE01.JPG,AFNE01.JPG,,,,,,,,,,,,,,,,,,,,,3,6,36,1,,,AFSA17.jpg,AFNE10.jpg,AFSA08.jpg,AFNE01.jpg,AFSA17.jpg,FS,4,num_8,32,num_2,0.966828501085,,,2018_Feb_12_1202,60.0027520447,MAFE4ImagesEEG,001,203024,
AFNE01.JPG,AFNE01.JPG,AFNE01.JPG,AFNE01.JPG,AFNE01.JPG,AFNE01.JPG,,,,,,,,,,,,,,,,,,,,,3,7,37,8,,,AFSA03.jpg,AFSA06.jpg,AFNE17.jpg,AFNE02.jpg,AFSA03.jpg,FS,4,num_8,48,None,,,,2018_Feb_12_1202,60.0027520447,MAFE4ImagesEEG,001,203024,
AFNE01.JPG,AFNE01.JPG,AFNE01.JPG,AFNE01.JPG,AFNE01.JPG,AFNE01.JPG,,,,,,,,,,,,,,,,,,,,,3,8,38,5,,,AFSA09.jpg,AFNE18.jpg,AFSA07.jpg,AFNE01.jpg,AFNE18.jpg,FN,3,num_6,32,num_8,0.61677428009,,,2018_Feb_12_1202,60.0027520447,MAFE4ImagesEEG,001,203024,
AFNE01.JPG,AFNE01.JPG,AFNE01.JPG,AFNE01.JPG,AFNE01.JPG,AFNE01.JPG,,,,,,,,,,,,,,,,,,,,,3,9,39,2,,,AFSA01.jpg,AFNE20.jpg,AFNE17.jpg,AFSA16.jpg,AFNE17.jpg,FN,3,num_2,32,num_6,0.616638607346,,,2018_Feb_12_1202,60.0027520447,MAFE4ImagesEEG,001,203024,
AFNE01.JPG,AFNE01.JPG,AFNE01.JPG,AFNE01.JPG,AFNE01.JPG,AFNE01.JPG,,,,,,,,,,,,,,,,,,,,,4,0,40,0,,,AFNE16.jpg,AFSA09.jpg,AFNE12.jpg,AFSA04.jpg,AFNE12.jpg,FN,3,num_2,48,None,,,,2018_Feb_12_1202,60.0027520447,MAFE4ImagesEEG,001,203024,
AFNE01.JPG,AFNE01.JPG,AFNE01.JPG,AFNE01.JPG,AFNE01.JPG,AFNE01.JPG,,,,,,,,,,,,,,,,,,,,,4,1,41,9,,,AFNE10.jpg,AFSA18.jpg,AFNE18.jpg,AFSA03.jpg,AFNE10.jpg,FN,3,num_8,16,num_8,2.06666983129,,,2018_Feb_12_1202,60.0027520447,MAFE4ImagesEEG,001,203024,
