IPosition2,IPosition3,IPosition1,IPosition6,IPosition4,IPosition5,TrialsM1.thisRepN,TrialsM1.thisTrialN,TrialsM1.thisN,TrialsM1.thisIndex,TrialsF1.thisRepN,TrialsF1.thisTrialN,TrialsF1.thisN,TrialsF1.thisIndex,TrialsM2.thisRepN,TrialsM2.thisTrialN,TrialsM2.thisN,TrialsM2.thisIndex,TrialsF2.thisRepN,TrialsF2.thisTrialN,TrialsF2.thisN,TrialsF2.thisIndex,TrialsM3.thisRepN,TrialsM3.thisTrialN,TrialsM3.thisN,TrialsM3.thisIndex,TrialsF3.thisRepN,TrialsF3.thisTrialN,TrialsF3.thisN,TrialsF3.thisIndex,InstrKey_resp.keys,InstrKey_resp.rt,Image0 _Position,Image1 _Position,Image2 _Position,Image3 _Position,Center_image,condition,code,correct_answer,accuracy,Key_Resp.keys,Key_Resp.rt,BreakKey_resp.keys,BreakKey_resp.rt,date,frameRate,expName,session,participant,
,,,,,,,,,,,,,,,,,,,,,,,,,,,,,,space,13.8995230934,,,,,,,,,,,,,,2018_Feb_22_1009,60.0008660028,MAFE4ImagesEEG,001,203061,
AMNE23.JPG,AMNE24.JPG,AMNE22.JPG,AMSA24.JPG,AMSA22.JPG,AMSA23.JPG,0,0,0,9,,,,,,,,,,,,,,,,,,,,,,,AMNE12.jpg,AMSA11.jpg,AMSA13.jpg,AMNE17.jpg,AMSA13.jpg,MS,2,num_2,32,num_6,1.03348161094,,,2018_Feb_22_1009,60.0008660028,MAFE4ImagesEEG,001,203061,
AMSA21.JPG,AMNE22.JPG,AMNE21.JPG,AMSA23.JPG,AMSA22.JPG,AMNE23.JPG,0,1,1,1,,,,,,,,,,,,,,,,,,,,,,,AMNE20.jpg,AMNE14.jpg,AMSA12.jpg,AMSA07.jpg,AMNE14.jpg,MN,1,num_6,16,num_6,0.600121688331,,,2018_Feb_22_1009,60.0008660028,MAFE4ImagesEEG,001,203061,
AMSA21.JPG,AMNE23.JPG,AMNE21.JPG,AMSA25.JPG,AMNE25.JPG,AMSA23.JPG,0,2,2,5,,,,,,,,,,,,,,,,,,,,,,,AMNE05.jpg,AMNE06.jpg,AMSA09.jpg,AMSA19.jpg,AMSA19.jpg,MS,2,num_4,32,num_2,0.950202081527,,,2018_Feb_22_1009,60.0008660028,MAFE4ImagesEEG,001,203061,
AFSA21.JPG,AFNE22.JPG,AFNE21.JPG,AFSA23.JPG,AFSA22.JPG,AFNE23.JPG,0,3,3,0,,,,,,,,,,,,,,,,,,,,,,,AMSA02.jpg,AMNE20.jpg,AMNE02.jpg,AMSA06.jpg,AMSA06.jpg,MS,2,num_4,32,num_8,0.416661294294,,,2018_Feb_22_1009,60.0008660028,MAFE4ImagesEEG,001,203061,
AFSA25.JPG,AFNE24.JPG,AFSA24.JPG,AFNE21.JPG,AFSA21.JPG,AFNE25.JPG,0,4,4,2,,,,,,,,,,,,,,,,,,,,,,,AMNE18.jpg,AMSA11.jpg,AMNE11.jpg,AMSA02.jpg,AMNE18.jpg,MN,1,num_8,32,num_4,0.683545229491,,,2018_Feb_22_1009,60.0008660028,MAFE4ImagesEEG,001,203061,
AFSA21.JPG,AFNE23.JPG,AFNE21.JPG,AFSA25.JPG,AFNE25.JPG,AFSA23.JPG,0,5,5,4,,,,,,,,,,,,,,,,,,,,,,,AMSA07.jpg,AMSA05.jpg,AMNE20.jpg,AMNE08.jpg,AMNE08.jpg,MN,1,num_4,32,num_2,0.800107190968,,,2018_Feb_22_1009,60.0008660028,MAFE4ImagesEEG,001,203061,
AFNE23.JPG,AFNE24.JPG,AFNE22.JPG,AFSA24.JPG,AFSA22.JPG,AFSA23.JPG,0,6,6,8,,,,,,,,,,,,,,,,,,,,,,,AMNE04.jpg,AMSA12.jpg,AMSA17.jpg,AMNE08.jpg,AMNE08.jpg,MN,1,num_4,32,num_6,0.266820428893,,,2018_Feb_22_1009,60.0008660028,MAFE4ImagesEEG,001,203061,
AMNE22.JPG,AMSA24.JPG,AMSA22.JPG,AMNE25.JPG,AMNE24.JPG,AMSA25.JPG,0,7,7,7,,,,,,,,,,,,,,,,,,,,,,,AMSA18.jpg,AMSA20.jpg,AMNE19.jpg,AMNE15.jpg,AMNE15.jpg,MN,1,num_4,16,num_4,0.649848723493,,,2018_Feb_22_1009,60.0008660028,MAFE4ImagesEEG,001,203061,
AMSA25.JPG,AMNE24.JPG,AMSA24.JPG,AMNE26.JPG,AMSA21.JPG,AMNE25.JPG,0,8,8,3,,,,,,,,,,,,,,,,,,,,,,,AMSA14.jpg,AMNE11.jpg,AMNE05.jpg,AMSA08.jpg,AMSA14.jpg,MS,2,num_8,32,num_2,0.550163079693,,,2018_Feb_22_1009,60.0008660028,MAFE4ImagesEEG,001,203061,
AFNE22.JPG,AFSA24.JPG,AFSA22.JPG,AFNE25.JPG,AFNE24.JPG,AFSA25.JPG,0,9,9,6,,,,,,,,,,,,,,,,,,,,,,,AMNE08.jpg,AMSA13.jpg,AMNE03.jpg,AMSA05.jpg,AMSA05.jpg,MS,2,num_4,32,num_6,1.46674627409,,,2018_Feb_22_1009,60.0008660028,MAFE4ImagesEEG,001,203061,
AFSA21.JPG,AFNE23.JPG,AFNE21.JPG,AFSA25.JPG,AFNE25.JPG,AFSA23.JPG,,,,,0,0,0,4,,,,,,,,,,,,,,,,,,,AFNE13.jpg,AFSA19.jpg,AFNE12.jpg,AFSA08.jpg,AFSA08.jpg,FS,4,num_4,32,num_6,0.583515432838,,,2018_Feb_22_1009,60.0008660028,MAFE4ImagesEEG,001,203061,
AMSA21.JPG,AMNE23.JPG,AMNE21.JPG,AMSA25.JPG,AMNE25.JPG,AMSA23.JPG,,,,,0,1,1,5,,,,,,,,,,,,,,,,,,,AFSA05.jpg,AFSA04.jpg,AFNE17.jpg,AFNE02.jpg,AFSA04.jpg,FS,4,num_6,32,num_4,0.566867160494,,,2018_Feb_22_1009,60.0008660028,MAFE4ImagesEEG,001,203061,
AMSA21.JPG,AMNE22.JPG,AMNE21.JPG,AMSA23.JPG,AMSA22.JPG,AMNE23.JPG,,,,,0,2,2,1,,,,,,,,,,,,,,,,,,,AFSA06.jpg,AFSA07.jpg,AFNE18.jpg,AFNE10.jpg,AFNE10.jpg,FN,3,num_4,32,num_2,0.5001092116,,,2018_Feb_22_1009,60.0008660028,MAFE4ImagesEEG,001,203061,
AFSA25.JPG,AFNE24.JPG,AFSA24.JPG,AFNE21.JPG,AFSA21.JPG,AFNE25.JPG,,,,,0,3,3,2,,,,,,,,,,,,,,,,,,,AFSA09.jpg,AFNE08.jpg,AFNE09.jpg,AFSA01.jpg,AFNE09.jpg,FN,3,num_2,32,num_6,0.550087706011,,,2018_Feb_22_1009,60.0008660028,MAFE4ImagesEEG,001,203061,
AMNE23.JPG,AMNE24.JPG,AMNE22.JPG,AMSA24.JPG,AMSA22.JPG,AMSA23.JPG,,,,,0,4,4,9,,,,,,,,,,,,,,,,,,,AFNE18.jpg,AFSA07.jpg,AFNE16.jpg,AFSA12.jpg,AFNE18.jpg,FN,3,num_8,32,num_2,0.616791450127,,,2018_Feb_22_1009,60.0008660028,MAFE4ImagesEEG,001,203061,
AMNE22.JPG,AMSA24.JPG,AMSA22.JPG,AMNE25.JPG,AMNE24.JPG,AMSA25.JPG,,,,,0,5,5,7,,,,,,,,,,,,,,,,,,,AFSA05.jpg,AFSA09.jpg,AFNE11.jpg,AFNE03.jpg,AFSA09.jpg,FS,4,num_6,32,num_8,1.03344889556,,,2018_Feb_22_1009,60.0008660028,MAFE4ImagesEEG,001,203061,
AFNE23.JPG,AFNE24.JPG,AFNE22.JPG,AFSA24.JPG,AFSA22.JPG,AFSA23.JPG,,,,,0,6,6,8,,,,,,,,,,,,,,,,,,,AFSA18.jpg,AFNE15.jpg,AFSA06.jpg,AFNE18.jpg,AFSA06.jpg,FS,4,num_2,32,num_4,0.633493285801,,,2018_Feb_22_1009,60.0008660028,MAFE4ImagesEEG,001,203061,
AFNE22.JPG,AFSA24.JPG,AFSA22.JPG,AFNE25.JPG,AFNE24.JPG,AFSA25.JPG,,,,,0,7,7,6,,,,,,,,,,,,,,,,,,,AFNE13.jpg,AFSA12.jpg,AFNE18.jpg,AFSA06.jpg,AFSA12.jpg,FS,4,num_6,16,num_6,0.616775413218,,,2018_Feb_22_1009,60.0008660028,MAFE4ImagesEEG,001,203061,
AMSA25.JPG,AMNE24.JPG,AMSA24.JPG,AMNE26.JPG,AMSA21.JPG,AMNE25.JPG,,,,,0,8,8,3,,,,,,,,,,,,,,,,,,,AFNE07.jpg,AFSA17.jpg,AFNE03.jpg,AFSA08.jpg,AFNE03.jpg,FN,3,num_2,32,num_4,0.68340602878,,,2018_Feb_22_1009,60.0008660028,MAFE4ImagesEEG,001,203061,
AFSA21.JPG,AFNE22.JPG,AFNE21.JPG,AFSA23.JPG,AFSA22.JPG,AFNE23.JPG,,,,,0,9,9,0,,,,,,,,,,,,,,,,,,,AFSA05.jpg,AFSA13.jpg,AFNE11.jpg,AFNE17.jpg,AFNE11.jpg,FN,3,num_2,16,num_2,0.566782485461,,,2018_Feb_22_1009,60.0008660028,MAFE4ImagesEEG,001,203061,
AMSA21.JPG,AMNE22.JPG,AMNE21.JPG,AMSA23.JPG,AMSA22.JPG,AMNE23.JPG,,,,,,,,,0,0,0,1,,,,,,,,,,,,,,,AMSA01.jpg,AMNE08.jpg,AMNE20.jpg,AMSA07.jpg,AMSA01.jpg,MS,2,num_8,16,num_8,0.666790151154,,,2018_Feb_22_1009,60.0008660028,MAFE4ImagesEEG,001,203061,
AMSA25.JPG,AMNE24.JPG,AMSA24.JPG,AMNE26.JPG,AMSA21.JPG,AMNE25.JPG,,,,,,,,,0,1,1,3,,,,,,,,,,,,,,,AMNE10.jpg,AMSA05.jpg,AMSA15.jpg,AMNE17.jpg,AMSA05.jpg,MS,2,num_6,16,num_6,1.36676202237,,,2018_Feb_22_1009,60.0008660028,MAFE4ImagesEEG,001,203061,
AFSA21.JPG,AFNE22.JPG,AFNE21.JPG,AFSA23.JPG,AFSA22.JPG,AFNE23.JPG,,,,,,,,,0,2,2,0,,,,,,,,,,,,,,,AMSA19.jpg,AMNE14.jpg,AMNE08.jpg,AMSA13.jpg,AMNE08.jpg,MN,1,num_2,32,num_4,1.0003887355,,,2018_Feb_22_1009,60.0008660028,MAFE4ImagesEEG,001,203061,
AMNE22.JPG,AMSA24.JPG,AMSA22.JPG,AMNE25.JPG,AMNE24.JPG,AMSA25.JPG,,,,,,,,,0,3,3,7,,,,,,,,,,,,,,,AMSA11.jpg,AMNE14.jpg,AMNE18.jpg,AMSA20.jpg,AMNE18.jpg,MN,1,num_2,16,num_2,0.933321594319,,,2018_Feb_22_1009,60.0008660028,MAFE4ImagesEEG,001,203061,
AFNE22.JPG,AFSA24.JPG,AFSA22.JPG,AFNE25.JPG,AFNE24.JPG,AFSA25.JPG,,,,,,,,,0,4,4,6,,,,,,,,,,,,,,,AMNE18.jpg,AMSA17.jpg,AMNE14.jpg,AMSA18.jpg,AMSA18.jpg,MS,2,num_4,32,num_8,1.26676558255,,,2018_Feb_22_1009,60.0008660028,MAFE4ImagesEEG,001,203061,
AMSA21.JPG,AMNE23.JPG,AMNE21.JPG,AMSA25.JPG,AMNE25.JPG,AMSA23.JPG,,,,,,,,,0,5,5,5,,,,,,,,,,,,,,,AMNE18.jpg,AMNE15.jpg,AMSA09.jpg,AMSA13.jpg,AMNE18.jpg,MN,1,num_8,16,num_8,1.18352069292,,,2018_Feb_22_1009,60.0008660028,MAFE4ImagesEEG,001,203061,
AFSA25.JPG,AFNE24.JPG,AFSA24.JPG,AFNE21.JPG,AFSA21.JPG,AFNE25.JPG,,,,,,,,,0,6,6,2,,,,,,,,,,,,,,,AMNE10.jpg,AMSA19.jpg,AMSA09.jpg,AMNE09.jpg,AMSA09.jpg,MS,2,num_2,32,num_4,0.90011389443,,,2018_Feb_22_1009,60.0008660028,MAFE4ImagesEEG,001,203061,
AFNE23.JPG,AFNE24.JPG,AFNE22.JPG,AFSA24.JPG,AFSA22.JPG,AFSA23.JPG,,,,,,,,,0,7,7,8,,,,,,,,,,,,,,,AMSA16.jpg,AMSA15.jpg,AMNE20.jpg,AMNE05.jpg,AMNE05.jpg,MN,1,num_4,32,num_6,1.09999034577,,,2018_Feb_22_1009,60.0008660028,MAFE4ImagesEEG,001,203061,
AMNE23.JPG,AMNE24.JPG,AMNE22.JPG,AMSA24.JPG,AMSA22.JPG,AMSA23.JPG,,,,,,,,,0,8,8,9,,,,,,,,,,,,,,,AMNE07.jpg,AMSA07.jpg,AMNE19.jpg,AMSA20.jpg,AMSA20.jpg,MS,2,num_4,32,num_2,1.05006926355,,,2018_Feb_22_1009,60.0008660028,MAFE4ImagesEEG,001,203061,
AFSA21.JPG,AFNE23.JPG,AFNE21.JPG,AFSA25.JPG,AFNE25.JPG,AFSA23.JPG,,,,,,,,,0,9,9,4,,,,,,,,,,,,,,,AMSA09.jpg,AMSA13.jpg,AMNE10.jpg,AMNE03.jpg,AMSA13.jpg,MS,2,num_6,32,num_8,0.916802900494,,,2018_Feb_22_1009,60.0008660028,MAFE4ImagesEEG,001,203061,
AFNE23.JPG,AFNE24.JPG,AFNE22.JPG,AFSA24.JPG,AFSA22.JPG,AFSA23.JPG,,,,,,,,,,,,,0,0,0,8,,,,,,,,,,,AFNE14.jpg,AFNE07.jpg,AFSA09.jpg,AFSA04.jpg,AFNE07.jpg,FN,3,num_6,16,num_6,0.700140900619,,,2018_Feb_22_1009,60.0008660028,MAFE4ImagesEEG,001,203061,
AMNE22.JPG,AMSA24.JPG,AMSA22.JPG,AMNE25.JPG,AMNE24.JPG,AMSA25.JPG,,,,,,,,,,,,,0,1,1,7,,,,,,,,,,,AFNE08.jpg,AFSA01.jpg,AFSA11.jpg,AFNE17.jpg,AFSA01.jpg,FS,4,num_6,32,num_2,0.649994659703,,,2018_Feb_22_1009,60.0008660028,MAFE4ImagesEEG,001,203061,
AMSA21.JPG,AMNE23.JPG,AMNE21.JPG,AMSA25.JPG,AMNE25.JPG,AMSA23.JPG,,,,,,,,,,,,,0,2,2,5,,,,,,,,,,,AFSA09.jpg,AFNE10.jpg,AFSA02.jpg,AFNE20.jpg,AFNE10.jpg,FN,3,num_6,16,num_6,0.700251555536,,,2018_Feb_22_1009,60.0008660028,MAFE4ImagesEEG,001,203061,
AFSA21.JPG,AFNE22.JPG,AFNE21.JPG,AFSA23.JPG,AFSA22.JPG,AFNE23.JPG,,,,,,,,,,,,,0,3,3,0,,,,,,,,,,,AFSA09.jpg,AFNE14.jpg,AFSA12.jpg,AFNE06.jpg,AFNE06.jpg,FN,3,num_4,32,num_8,1.43336152629,,,2018_Feb_22_1009,60.0008660028,MAFE4ImagesEEG,001,203061,
AFNE22.JPG,AFSA24.JPG,AFSA22.JPG,AFNE25.JPG,AFNE24.JPG,AFSA25.JPG,,,,,,,,,,,,,0,4,4,6,,,,,,,,,,,AFNE10.jpg,AFSA13.jpg,AFSA16.jpg,AFNE17.jpg,AFNE17.jpg,FN,3,num_4,32,num_6,1.0501106389,,,2018_Feb_22_1009,60.0008660028,MAFE4ImagesEEG,001,203061,
AFSA25.JPG,AFNE24.JPG,AFSA24.JPG,AFNE21.JPG,AFSA21.JPG,AFNE25.JPG,,,,,,,,,,,,,0,5,5,2,,,,,,,,,,,AFSA17.jpg,AFNE07.jpg,AFNE04.jpg,AFSA14.jpg,AFNE04.jpg,FN,3,num_2,32,num_4,0.51667858212,,,2018_Feb_22_1009,60.0008660028,MAFE4ImagesEEG,001,203061,
AFSA21.JPG,AFNE23.JPG,AFNE21.JPG,AFSA25.JPG,AFNE25.JPG,AFSA23.JPG,,,,,,,,,,,,,0,6,6,4,,,,,,,,,,,AFSA04.jpg,AFSA10.jpg,AFNE17.jpg,AFNE18.jpg,AFSA04.jpg,FS,4,num_8,32,num_6,1.15008141956,,,2018_Feb_22_1009,60.0008660028,MAFE4ImagesEEG,001,203061,
AMSA21.JPG,AMNE22.JPG,AMNE21.JPG,AMSA23.JPG,AMSA22.JPG,AMNE23.JPG,,,,,,,,,,,,,0,7,7,1,,,,,,,,,,,AFNE07.jpg,AFNE10.jpg,AFSA10.jpg,AFSA15.jpg,AFNE07.jpg,FN,3,num_8,32,num_2,1.500097665,,,2018_Feb_22_1009,60.0008660028,MAFE4ImagesEEG,001,203061,
AMNE23.JPG,AMNE24.JPG,AMNE22.JPG,AMSA24.JPG,AMSA22.JPG,AMSA23.JPG,,,,,,,,,,,,,0,8,8,9,,,,,,,,,,,AFNE09.jpg,AFSA11.jpg,AFSA09.jpg,AFNE15.jpg,AFNE15.jpg,FN,3,num_4,16,num_4,1.2002071332,,,2018_Feb_22_1009,60.0008660028,MAFE4ImagesEEG,001,203061,
AMSA25.JPG,AMNE24.JPG,AMSA24.JPG,AMNE26.JPG,AMSA21.JPG,AMNE25.JPG,,,,,,,,,,,,,0,9,9,3,,,,,,,,,,,AFSA01.jpg,AFNE04.jpg,AFNE03.jpg,AFSA15.jpg,AFSA01.jpg,FS,4,num_8,32,num_2,0.616784393904,,,2018_Feb_22_1009,60.0008660028,MAFE4ImagesEEG,001,203061,
AFSA21.JPG,AFNE22.JPG,AFNE21.JPG,AFSA23.JPG,AFSA22.JPG,AFNE23.JPG,,,,,,,,,,,,,,,,,0,0,0,0,,,,,,,AMSA16.jpg,AMNE13.jpg,AMNE16.jpg,AMSA02.jpg,AMSA02.jpg,MS,2,num_4,16,num_4,0.716873206489,,,2018_Feb_22_1009,60.0008660028,MAFE4ImagesEEG,001,203061,
AFSA21.JPG,AFNE23.JPG,AFNE21.JPG,AFSA25.JPG,AFNE25.JPG,AFSA23.JPG,,,,,,,,,,,,,,,,,0,1,1,4,,,,,,,AMNE09.jpg,AMSA14.jpg,AMSA10.jpg,AMNE02.jpg,AMNE02.jpg,MN,1,num_4,32,num_8,0.766517491022,,,2018_Feb_22_1009,60.0008660028,MAFE4ImagesEEG,001,203061,
AFNE23.JPG,AFNE24.JPG,AFNE22.JPG,AFSA24.JPG,AFSA22.JPG,AFSA23.JPG,,,,,,,,,,,,,,,,,0,2,2,8,,,,,,,AMSA03.jpg,AMNE18.jpg,AMSA17.jpg,AMNE17.jpg,AMSA03.jpg,MS,2,num_8,16,num_8,0.483511295286,,,2018_Feb_22_1009,60.0008660028,MAFE4ImagesEEG,001,203061,
AFSA25.JPG,AFNE24.JPG,AFSA24.JPG,AFNE21.JPG,AFSA21.JPG,AFNE25.JPG,,,,,,,,,,,,,,,,,0,3,3,2,,,,,,,AMNE11.jpg,AMNE05.jpg,AMSA09.jpg,AMSA20.jpg,AMSA20.jpg,MS,2,num_4,32,num_6,0.933611542278,,,2018_Feb_22_1009,60.0008660028,MAFE4ImagesEEG,001,203061,
AMNE23.JPG,AMNE24.JPG,AMNE22.JPG,AMSA24.JPG,AMSA22.JPG,AMSA23.JPG,,,,,,,,,,,,,,,,,0,4,4,9,,,,,,,AMNE15.jpg,AMSA08.jpg,AMNE17.jpg,AMSA20.jpg,AMSA20.jpg,MS,2,num_4,16,num_4,1.51685691293,,,2018_Feb_22_1009,60.0008660028,MAFE4ImagesEEG,001,203061,
AMNE22.JPG,AMSA24.JPG,AMSA22.JPG,AMNE25.JPG,AMNE24.JPG,AMSA25.JPG,,,,,,,,,,,,,,,,,0,5,5,7,,,,,,,AMSA02.jpg,AMNE15.jpg,AMSA12.jpg,AMNE02.jpg,AMNE02.jpg,MN,1,num_4,32,num_8,0.583534035657,,,2018_Feb_22_1009,60.0008660028,MAFE4ImagesEEG,001,203061,
AMSA25.JPG,AMNE24.JPG,AMSA24.JPG,AMNE26.JPG,AMSA21.JPG,AMNE25.JPG,,,,,,,,,,,,,,,,,0,6,6,3,,,,,,,AMNE10.jpg,AMSA06.jpg,AMNE02.jpg,AMSA20.jpg,AMSA20.jpg,MS,2,num_4,16,num_4,0.866859687318,,,2018_Feb_22_1009,60.0008660028,MAFE4ImagesEEG,001,203061,
AMSA21.JPG,AMNE23.JPG,AMNE21.JPG,AMSA25.JPG,AMNE25.JPG,AMSA23.JPG,,,,,,,,,,,,,,,,,0,7,7,5,,,,,,,AMSA07.jpg,AMSA09.jpg,AMNE07.jpg,AMNE10.jpg,AMNE10.jpg,MN,1,num_4,32,num_6,0.666826715344,,,2018_Feb_22_1009,60.0008660028,MAFE4ImagesEEG,001,203061,
AMSA21.JPG,AMNE22.JPG,AMNE21.JPG,AMSA23.JPG,AMSA22.JPG,AMNE23.JPG,,,,,,,,,,,,,,,,,0,8,8,1,,,,,,,AMNE09.jpg,AMNE15.jpg,AMSA06.jpg,AMSA19.jpg,AMNE15.jpg,MN,1,num_6,32,num_8,0.750044662913,,,2018_Feb_22_1009,60.0008660028,MAFE4ImagesEEG,001,203061,
AFNE22.JPG,AFSA24.JPG,AFSA22.JPG,AFNE25.JPG,AFNE24.JPG,AFSA25.JPG,,,,,,,,,,,,,,,,,0,9,9,6,,,,,,,AMSA08.jpg,AMNE10.jpg,AMNE02.jpg,AMSA13.jpg,AMNE02.jpg,MN,1,num_2,32,num_8,1.25009357557,,,2018_Feb_22_1009,60.0008660028,MAFE4ImagesEEG,001,203061,
AMSA25.JPG,AMNE24.JPG,AMSA24.JPG,AMNE26.JPG,AMSA21.JPG,AMNE25.JPG,,,,,,,,,,,,,,,,,,,,,0,0,0,3,,,AFSA20.jpg,AFNE04.jpg,AFNE17.jpg,AFSA11.jpg,AFNE04.jpg,FN,3,num_6,16,num_6,0.883403077954,,,2018_Feb_22_1009,60.0008660028,MAFE4ImagesEEG,001,203061,
AFSA21.JPG,AFNE23.JPG,AFNE21.JPG,AFSA25.JPG,AFNE25.JPG,AFSA23.JPG,,,,,,,,,,,,,,,,,,,,,0,1,1,4,,,AFSA07.jpg,AFSA04.jpg,AFNE18.jpg,AFNE17.jpg,AFNE17.jpg,FN,3,num_4,32,num_8,0.833446073055,,,2018_Feb_22_1009,60.0008660028,MAFE4ImagesEEG,001,203061,
AFNE22.JPG,AFSA24.JPG,AFSA22.JPG,AFNE25.JPG,AFNE24.JPG,AFSA25.JPG,,,,,,,,,,,,,,,,,,,,,0,2,2,6,,,AFSA19.jpg,AFSA14.jpg,AFNE19.jpg,AFNE05.jpg,AFSA14.jpg,FS,4,num_6,32,num_8,1.78339188418,,,2018_Feb_22_1009,60.0008660028,MAFE4ImagesEEG,001,203061,
AFSA21.JPG,AFNE22.JPG,AFNE21.JPG,AFSA23.JPG,AFSA22.JPG,AFNE23.JPG,,,,,,,,,,,,,,,,,,,,,0,3,3,0,,,AFNE06.jpg,AFSA13.jpg,AFSA03.jpg,AFNE08.jpg,AFSA03.jpg,FS,4,num_2,32,num_4,0.866824726749,,,2018_Feb_22_1009,60.0008660028,MAFE4ImagesEEG,001,203061,
AFSA25.JPG,AFNE24.JPG,AFSA24.JPG,AFNE21.JPG,AFSA21.JPG,AFNE25.JPG,,,,,,,,,,,,,,,,,,,,,0,4,4,2,,,AFSA06.jpg,AFNE19.jpg,AFNE17.jpg,AFSA10.jpg,AFNE17.jpg,FN,3,num_2,32,num_4,0.650059448963,,,2018_Feb_22_1009,60.0008660028,MAFE4ImagesEEG,001,203061,
AMSA21.JPG,AMNE22.JPG,AMNE21.JPG,AMSA23.JPG,AMSA22.JPG,AMNE23.JPG,,,,,,,,,,,,,,,,,,,,,0,5,5,1,,,AFSA10.jpg,AFSA07.jpg,AFNE03.jpg,AFNE15.jpg,AFNE03.jpg,FN,3,num_2,16,num_2,0.90014628903,,,2018_Feb_22_1009,60.0008660028,MAFE4ImagesEEG,001,203061,
AMSA21.JPG,AMNE23.JPG,AMNE21.JPG,AMSA25.JPG,AMNE25.JPG,AMSA23.JPG,,,,,,,,,,,,,,,,,,,,,0,6,6,5,,,AFNE13.jpg,AFNE18.jpg,AFSA07.jpg,AFSA06.jpg,AFNE13.jpg,FN,3,num_8,16,num_8,0.966807054065,,,2018_Feb_22_1009,60.0008660028,MAFE4ImagesEEG,001,203061,
AMNE23.JPG,AMNE24.JPG,AMNE22.JPG,AMSA24.JPG,AMSA22.JPG,AMSA23.JPG,,,,,,,,,,,,,,,,,,,,,0,7,7,9,,,AFNE03.jpg,AFNE08.jpg,AFSA09.jpg,AFSA01.jpg,AFSA01.jpg,FS,4,num_4,16,num_4,0.783474955591,,,2018_Feb_22_1009,60.0008660028,MAFE4ImagesEEG,001,203061,
AFNE23.JPG,AFNE24.JPG,AFNE22.JPG,AFSA24.JPG,AFSA22.JPG,AFSA23.JPG,,,,,,,,,,,,,,,,,,,,,0,8,8,8,,,AFSA04.jpg,AFNE01.jpg,AFNE09.jpg,AFSA18.jpg,AFNE01.jpg,FN,3,num_6,48,None,,,,2018_Feb_22_1009,60.0008660028,MAFE4ImagesEEG,001,203061,
AMNE22.JPG,AMSA24.JPG,AMSA22.JPG,AMNE25.JPG,AMNE24.JPG,AMSA25.JPG,,,,,,,,,,,,,,,,,,,,,0,9,9,7,,,AFNE08.jpg,AFNE06.jpg,AFSA11.jpg,AFSA18.jpg,AFSA18.jpg,FS,4,num_4,32,num_6,3.28325957939,,,2018_Feb_22_1009,60.0008660028,MAFE4ImagesEEG,001,203061,
,,,,,,,,,,,,,,,,,,,,,,,,,,,,,,,,,,,,,,,,,,,space,58.7620977092,2018_Feb_22_1009,60.0008660028,MAFE4ImagesEEG,001,203061,
AFNE01.JPG,AFNE01.JPG,AFNE01.JPG,AFNE01.JPG,AFNE01.JPG,AFNE01.JPG,0,0,0,5,,,,,,,,,,,,,,,,,,,,,,,AMSA20.jpg,AMNE03.jpg,AMNE07.jpg,AMSA03.jpg,AMSA03.jpg,MS,2,num_4,32,num_6,0.56680814462,,,2018_Feb_22_1009,60.0008660028,MAFE4ImagesEEG,001,203061,
AFNE01.JPG,AFNE01.JPG,AFNE01.JPG,AFNE01.JPG,AFNE01.JPG,AFNE01.JPG,0,1,1,7,,,,,,,,,,,,,,,,,,,,,,,AMSA11.jpg,AMNE11.jpg,AMNE02.jpg,AMSA13.jpg,AMSA11.jpg,MS,2,num_8,32,num_4,0.866888233111,,,2018_Feb_22_1009,60.0008660028,MAFE4ImagesEEG,001,203061,
AFNE01.JPG,AFNE01.JPG,AFNE01.JPG,AFNE01.JPG,AFNE01.JPG,AFNE01.JPG,0,2,2,8,,,,,,,,,,,,,,,,,,,,,,,AMNE20.jpg,AMSA06.jpg,AMNE03.jpg,AMSA13.jpg,AMSA13.jpg,MS,2,num_4,32,num_8,0.600272435579,,,2018_Feb_22_1009,60.0008660028,MAFE4ImagesEEG,001,203061,
AFNE01.JPG,AFNE01.JPG,AFNE01.JPG,AFNE01.JPG,AFNE01.JPG,AFNE01.JPG,0,3,3,4,,,,,,,,,,,,,,,,,,,,,,,AMSA13.jpg,AMNE12.jpg,AMNE08.jpg,AMSA06.jpg,AMSA13.jpg,MS,2,num_8,32,num_6,0.733427502273,,,2018_Feb_22_1009,60.0008660028,MAFE4ImagesEEG,001,203061,
AFNE01.JPG,AFNE01.JPG,AFNE01.JPG,AFNE01.JPG,AFNE01.JPG,AFNE01.JPG,0,4,4,9,,,,,,,,,,,,,,,,,,,,,,,AMNE07.jpg,AMSA14.jpg,AMSA04.jpg,AMNE05.jpg,AMNE05.jpg,MN,1,num_4,32,num_8,0.833445110824,,,2018_Feb_22_1009,60.0008660028,MAFE4ImagesEEG,001,203061,
AFNE01.JPG,AFNE01.JPG,AFNE01.JPG,AFNE01.JPG,AFNE01.JPG,AFNE01.JPG,0,5,5,3,,,,,,,,,,,,,,,,,,,,,,,AMNE03.jpg,AMSA05.jpg,AMSA04.jpg,AMNE12.jpg,AMNE03.jpg,MN,1,num_8,32,num_2,1.08348351927,,,2018_Feb_22_1009,60.0008660028,MAFE4ImagesEEG,001,203061,
AFNE01.JPG,AFNE01.JPG,AFNE01.JPG,AFNE01.JPG,AFNE01.JPG,AFNE01.JPG,0,6,6,2,,,,,,,,,,,,,,,,,,,,,,,AMNE10.jpg,AMNE19.jpg,AMSA02.jpg,AMSA13.jpg,AMSA02.jpg,MS,2,num_2,16,num_2,0.566790503974,,,2018_Feb_22_1009,60.0008660028,MAFE4ImagesEEG,001,203061,
AFNE01.JPG,AFNE01.JPG,AFNE01.JPG,AFNE01.JPG,AFNE01.JPG,AFNE01.JPG,0,7,7,6,,,,,,,,,,,,,,,,,,,,,,,AMSA04.jpg,AMNE20.jpg,AMNE19.jpg,AMSA16.jpg,AMNE19.jpg,MN,1,num_2,16,num_2,0.983437364979,,,2018_Feb_22_1009,60.0008660028,MAFE4ImagesEEG,001,203061,
AFNE01.JPG,AFNE01.JPG,AFNE01.JPG,AFNE01.JPG,AFNE01.JPG,AFNE01.JPG,0,8,8,0,,,,,,,,,,,,,,,,,,,,,,,AMSA18.jpg,AMSA02.jpg,AMNE09.jpg,AMNE08.jpg,AMSA18.jpg,MS,2,num_8,16,num_8,0.750241917325,,,2018_Feb_22_1009,60.0008660028,MAFE4ImagesEEG,001,203061,
AFNE01.JPG,AFNE01.JPG,AFNE01.JPG,AFNE01.JPG,AFNE01.JPG,AFNE01.JPG,0,9,9,1,,,,,,,,,,,,,,,,,,,,,,,AMSA07.jpg,AMSA06.jpg,AMNE06.jpg,AMNE10.jpg,AMSA07.jpg,MS,2,num_8,32,num_6,1.18344660226,,,2018_Feb_22_1009,60.0008660028,MAFE4ImagesEEG,001,203061,
AFNE01.JPG,AFNE01.JPG,AFNE01.JPG,AFNE01.JPG,AFNE01.JPG,AFNE01.JPG,1,0,10,2,,,,,,,,,,,,,,,,,,,,,,,AMNE17.jpg,AMSA18.jpg,AMSA05.jpg,AMNE19.jpg,AMNE17.jpg,MN,1,num_8,32,num_4,0.649988565652,,,2018_Feb_22_1009,60.0008660028,MAFE4ImagesEEG,001,203061,
AFNE01.JPG,AFNE01.JPG,AFNE01.JPG,AFNE01.JPG,AFNE01.JPG,AFNE01.JPG,1,1,11,0,,,,,,,,,,,,,,,,,,,,,,,AMNE05.jpg,AMSA20.jpg,AMSA13.jpg,AMNE02.jpg,AMSA20.jpg,MS,2,num_6,32,num_8,0.716917789192,,,2018_Feb_22_1009,60.0008660028,MAFE4ImagesEEG,001,203061,
AFNE01.JPG,AFNE01.JPG,AFNE01.JPG,AFNE01.JPG,AFNE01.JPG,AFNE01.JPG,1,2,12,6,,,,,,,,,,,,,,,,,,,,,,,AMSA03.jpg,AMSA04.jpg,AMNE19.jpg,AMNE15.jpg,AMSA04.jpg,MS,2,num_6,16,num_6,1.15011766303,,,2018_Feb_22_1009,60.0008660028,MAFE4ImagesEEG,001,203061,
AFNE01.JPG,AFNE01.JPG,AFNE01.JPG,AFNE01.JPG,AFNE01.JPG,AFNE01.JPG,1,3,13,9,,,,,,,,,,,,,,,,,,,,,,,AMNE17.jpg,AMNE13.jpg,AMSA18.jpg,AMSA08.jpg,AMNE17.jpg,MN,1,num_8,16,num_8,0.783566366183,,,2018_Feb_22_1009,60.0008660028,MAFE4ImagesEEG,001,203061,
AFNE01.JPG,AFNE01.JPG,AFNE01.JPG,AFNE01.JPG,AFNE01.JPG,AFNE01.JPG,1,4,14,8,,,,,,,,,,,,,,,,,,,,,,,AMSA06.jpg,AMSA14.jpg,AMNE07.jpg,AMNE14.jpg,AMNE07.jpg,MN,1,num_2,16,num_2,1.11676595139,,,2018_Feb_22_1009,60.0008660028,MAFE4ImagesEEG,001,203061,
AFNE01.JPG,AFNE01.JPG,AFNE01.JPG,AFNE01.JPG,AFNE01.JPG,AFNE01.JPG,1,5,15,1,,,,,,,,,,,,,,,,,,,,,,,AMSA18.jpg,AMNE01.jpg,AMSA03.jpg,AMNE02.jpg,AMNE02.jpg,MN,1,num_4,32,num_8,0.583438455535,,,2018_Feb_22_1009,60.0008660028,MAFE4ImagesEEG,001,203061,
AFNE01.JPG,AFNE01.JPG,AFNE01.JPG,AFNE01.JPG,AFNE01.JPG,AFNE01.JPG,1,6,16,3,,,,,,,,,,,,,,,,,,,,,,,AMNE18.jpg,AMSA06.jpg,AMNE20.jpg,AMSA09.jpg,AMNE18.jpg,MN,1,num_8,32,num_2,0.716783720301,,,2018_Feb_22_1009,60.0008660028,MAFE4ImagesEEG,001,203061,
AFNE01.JPG,AFNE01.JPG,AFNE01.JPG,AFNE01.JPG,AFNE01.JPG,AFNE01.JPG,1,7,17,7,,,,,,,,,,,,,,,,,,,,,,,AMSA12.jpg,AMSA04.jpg,AMNE16.jpg,AMNE03.jpg,AMSA12.jpg,MS,2,num_8,32,num_2,0.633502266486,,,2018_Feb_22_1009,60.0008660028,MAFE4ImagesEEG,001,203061,
AFNE01.JPG,AFNE01.JPG,AFNE01.JPG,AFNE01.JPG,AFNE01.JPG,AFNE01.JPG,1,8,18,4,,,,,,,,,,,,,,,,,,,,,,,AMSA18.jpg,AMNE13.jpg,AMNE17.jpg,AMSA14.jpg,AMSA18.jpg,MS,2,num_8,32,num_2,1.08346716163,,,2018_Feb_22_1009,60.0008660028,MAFE4ImagesEEG,001,203061,
AFNE01.JPG,AFNE01.JPG,AFNE01.JPG,AFNE01.JPG,AFNE01.JPG,AFNE01.JPG,1,9,19,5,,,,,,,,,,,,,,,,,,,,,,,AMNE13.jpg,AMNE14.jpg,AMSA08.jpg,AMSA14.jpg,AMNE14.jpg,MN,1,num_6,16,num_6,0.833476863976,,,2018_Feb_22_1009,60.0008660028,MAFE4ImagesEEG,001,203061,
AFNE01.JPG,AFNE01.JPG,AFNE01.JPG,AFNE01.JPG,AFNE01.JPG,AFNE01.JPG,2,0,20,0,,,,,,,,,,,,,,,,,,,,,,,AMSA16.jpg,AMSA14.jpg,AMNE04.jpg,AMNE03.jpg,AMSA16.jpg,MS,2,num_8,16,num_8,1.63340379967,,,2018_Feb_22_1009,60.0008660028,MAFE4ImagesEEG,001,203061,
AFNE01.JPG,AFNE01.JPG,AFNE01.JPG,AFNE01.JPG,AFNE01.JPG,AFNE01.JPG,2,1,21,7,,,,,,,,,,,,,,,,,,,,,,,AMNE20.jpg,AMSA12.jpg,AMSA13.jpg,AMNE16.jpg,AMNE20.jpg,MN,1,num_8,32,num_2,0.983463986311,,,2018_Feb_22_1009,60.0008660028,MAFE4ImagesEEG,001,203061,
AFNE01.JPG,AFNE01.JPG,AFNE01.JPG,AFNE01.JPG,AFNE01.JPG,AFNE01.JPG,2,2,22,9,,,,,,,,,,,,,,,,,,,,,,,AMSA11.jpg,AMNE14.jpg,AMSA15.jpg,AMNE06.jpg,AMNE06.jpg,MN,1,num_4,32,num_2,0.883340854663,,,2018_Feb_22_1009,60.0008660028,MAFE4ImagesEEG,001,203061,
AFNE01.JPG,AFNE01.JPG,AFNE01.JPG,AFNE01.JPG,AFNE01.JPG,AFNE01.JPG,2,3,23,4,,,,,,,,,,,,,,,,,,,,,,,AMSA09.jpg,AMNE16.jpg,AMNE12.jpg,AMSA07.jpg,AMNE16.jpg,MN,1,num_6,16,num_6,1.38355302345,,,2018_Feb_22_1009,60.0008660028,MAFE4ImagesEEG,001,203061,
AFNE01.JPG,AFNE01.JPG,AFNE01.JPG,AFNE01.JPG,AFNE01.JPG,AFNE01.JPG,2,4,24,6,,,,,,,,,,,,,,,,,,,,,,,AMNE05.jpg,AMSA18.jpg,AMSA09.jpg,AMNE01.jpg,AMNE05.jpg,MN,1,num_8,16,num_8,0.816801008186,,,2018_Feb_22_1009,60.0008660028,MAFE4ImagesEEG,001,203061,
AFNE01.JPG,AFNE01.JPG,AFNE01.JPG,AFNE01.JPG,AFNE01.JPG,AFNE01.JPG,2,5,25,5,,,,,,,,,,,,,,,,,,,,,,,AMNE19.jpg,AMNE08.jpg,AMSA04.jpg,AMSA17.jpg,AMNE08.jpg,MN,1,num_6,32,num_4,1.41661382496,,,2018_Feb_22_1009,60.0008660028,MAFE4ImagesEEG,001,203061,
AFNE01.JPG,AFNE01.JPG,AFNE01.JPG,AFNE01.JPG,AFNE01.JPG,AFNE01.JPG,2,6,26,8,,,,,,,,,,,,,,,,,,,,,,,AMNE17.jpg,AMNE03.jpg,AMSA08.jpg,AMSA09.jpg,AMSA09.jpg,MS,2,num_4,32,num_2,0.716790455859,,,2018_Feb_22_1009,60.0008660028,MAFE4ImagesEEG,001,203061,
AFNE01.JPG,AFNE01.JPG,AFNE01.JPG,AFNE01.JPG,AFNE01.JPG,AFNE01.JPG,2,7,27,1,,,,,,,,,,,,,,,,,,,,,,,AMSA08.jpg,AMNE16.jpg,AMSA15.jpg,AMNE03.jpg,AMNE03.jpg,MN,1,num_4,32,num_8,0.783438712126,,,2018_Feb_22_1009,60.0008660028,MAFE4ImagesEEG,001,203061,
AFNE01.JPG,AFNE01.JPG,AFNE01.JPG,AFNE01.JPG,AFNE01.JPG,AFNE01.JPG,2,8,28,3,,,,,,,,,,,,,,,,,,,,,,,AMNE14.jpg,AMSA03.jpg,AMNE09.jpg,AMSA02.jpg,AMNE09.jpg,MN,1,num_2,16,num_2,1.93347266229,,,2018_Feb_22_1009,60.0008660028,MAFE4ImagesEEG,001,203061,
AFNE01.JPG,AFNE01.JPG,AFNE01.JPG,AFNE01.JPG,AFNE01.JPG,AFNE01.JPG,2,9,29,2,,,,,,,,,,,,,,,,,,,,,,,AMSA11.jpg,AMNE08.jpg,AMNE03.jpg,AMSA10.jpg,AMNE08.jpg,MN,1,num_6,16,num_6,0.800120020518,,,2018_Feb_22_1009,60.0008660028,MAFE4ImagesEEG,001,203061,
AFNE01.JPG,AFNE01.JPG,AFNE01.JPG,AFNE01.JPG,AFNE01.JPG,AFNE01.JPG,3,0,30,5,,,,,,,,,,,,,,,,,,,,,,,AMNE09.jpg,AMSA20.jpg,AMSA19.jpg,AMNE13.jpg,AMSA20.jpg,MS,2,num_6,32,num_4,0.866778219701,,,2018_Feb_22_1009,60.0008660028,MAFE4ImagesEEG,001,203061,
AFNE01.JPG,AFNE01.JPG,AFNE01.JPG,AFNE01.JPG,AFNE01.JPG,AFNE01.JPG,3,1,31,9,,,,,,,,,,,,,,,,,,,,,,,AMNE19.jpg,AMSA01.jpg,AMSA15.jpg,AMNE16.jpg,AMSA15.jpg,MS,2,num_2,16,num_2,1.01680703805,,,2018_Feb_22_1009,60.0008660028,MAFE4ImagesEEG,001,203061,
AFNE01.JPG,AFNE01.JPG,AFNE01.JPG,AFNE01.JPG,AFNE01.JPG,AFNE01.JPG,3,2,32,1,,,,,,,,,,,,,,,,,,,,,,,AMSA16.jpg,AMNE14.jpg,AMSA18.jpg,AMNE04.jpg,AMNE04.jpg,MN,1,num_4,16,num_4,1.03346332879,,,2018_Feb_22_1009,60.0008660028,MAFE4ImagesEEG,001,203061,
AFNE01.JPG,AFNE01.JPG,AFNE01.JPG,AFNE01.JPG,AFNE01.JPG,AFNE01.JPG,3,3,33,8,,,,,,,,,,,,,,,,,,,,,,,AMNE17.jpg,AMSA14.jpg,AMSA17.jpg,AMNE16.jpg,AMSA14.jpg,MS,2,num_6,16,num_6,0.716912978096,,,2018_Feb_22_1009,60.0008660028,MAFE4ImagesEEG,001,203061,
AFNE01.JPG,AFNE01.JPG,AFNE01.JPG,AFNE01.JPG,AFNE01.JPG,AFNE01.JPG,3,4,34,2,,,,,,,,,,,,,,,,,,,,,,,AMSA07.jpg,AMSA03.jpg,AMNE04.jpg,AMNE07.jpg,AMSA03.jpg,MS,2,num_6,32,num_2,0.683458629996,,,2018_Feb_22_1009,60.0008660028,MAFE4ImagesEEG,001,203061,
AFNE01.JPG,AFNE01.JPG,AFNE01.JPG,AFNE01.JPG,AFNE01.JPG,AFNE01.JPG,3,5,35,3,,,,,,,,,,,,,,,,,,,,,,,AMNE07.jpg,AMNE06.jpg,AMSA20.jpg,AMSA10.jpg,AMSA10.jpg,MS,2,num_4,32,num_8,0.799990762724,,,2018_Feb_22_1009,60.0008660028,MAFE4ImagesEEG,001,203061,
AFNE01.JPG,AFNE01.JPG,AFNE01.JPG,AFNE01.JPG,AFNE01.JPG,AFNE01.JPG,3,6,36,6,,,,,,,,,,,,,,,,,,,,,,,AMNE07.jpg,AMSA01.jpg,AMSA10.jpg,AMNE01.jpg,AMNE01.jpg,MN,1,num_4,16,num_4,0.850066441053,,,2018_Feb_22_1009,60.0008660028,MAFE4ImagesEEG,001,203061,
AFNE01.JPG,AFNE01.JPG,AFNE01.JPG,AFNE01.JPG,AFNE01.JPG,AFNE01.JPG,3,7,37,4,,,,,,,,,,,,,,,,,,,,,,,AMSA02.jpg,AMNE20.jpg,AMNE02.jpg,AMSA01.jpg,AMNE02.jpg,MN,1,num_2,48,None,,,,2018_Feb_22_1009,60.0008660028,MAFE4ImagesEEG,001,203061,
AFNE01.JPG,AFNE01.JPG,AFNE01.JPG,AFNE01.JPG,AFNE01.JPG,AFNE01.JPG,3,8,38,7,,,,,,,,,,,,,,,,,,,,,,,AMNE09.jpg,AMSA07.jpg,AMNE19.jpg,AMSA03.jpg,AMSA03.jpg,MS,2,num_4,32,num_6,0.733750165557,,,2018_Feb_22_1009,60.0008660028,MAFE4ImagesEEG,001,203061,
AFNE01.JPG,AFNE01.JPG,AFNE01.JPG,AFNE01.JPG,AFNE01.JPG,AFNE01.JPG,3,9,39,0,,,,,,,,,,,,,,,,,,,,,,,AMSA06.jpg,AMSA07.jpg,AMNE18.jpg,AMNE11.jpg,AMNE18.jpg,MN,1,num_2,16,num_2,0.633503870224,,,2018_Feb_22_1009,60.0008660028,MAFE4ImagesEEG,001,203061,
AFNE01.JPG,AFNE01.JPG,AFNE01.JPG,AFNE01.JPG,AFNE01.JPG,AFNE01.JPG,4,0,40,0,,,,,,,,,,,,,,,,,,,,,,,AMSA03.jpg,AMNE12.jpg,AMSA07.jpg,AMNE09.jpg,AMNE09.jpg,MN,1,num_4,32,num_6,0.566785051371,,,2018_Feb_22_1009,60.0008660028,MAFE4ImagesEEG,001,203061,
AFNE01.JPG,AFNE01.JPG,AFNE01.JPG,AFNE01.JPG,AFNE01.JPG,AFNE01.JPG,4,1,41,7,,,,,,,,,,,,,,,,,,,,,,,AMNE07.jpg,AMSA14.jpg,AMSA02.jpg,AMNE09.jpg,AMNE09.jpg,MN,1,num_4,32,num_8,0.800150811439,,,2018_Feb_22_1009,60.0008660028,MAFE4ImagesEEG,001,203061,
AFNE01.JPG,AFNE01.JPG,AFNE01.JPG,AFNE01.JPG,AFNE01.JPG,AFNE01.JPG,4,2,42,8,,,,,,,,,,,,,,,,,,,,,,,AMSA05.jpg,AMNE07.jpg,AMSA15.jpg,AMNE05.jpg,AMNE05.jpg,MN,1,num_4,16,num_4,0.316917275952,,,2018_Feb_22_1009,60.0008660028,MAFE4ImagesEEG,001,203061,
AFNE01.JPG,AFNE01.JPG,AFNE01.JPG,AFNE01.JPG,AFNE01.JPG,AFNE01.JPG,4,3,43,4,,,,,,,,,,,,,,,,,,,,,,,AMNE05.jpg,AMSA11.jpg,AMNE20.jpg,AMSA10.jpg,AMNE20.jpg,MN,1,num_2,32,num_8,0.550224340812,,,2018_Feb_22_1009,60.0008660028,MAFE4ImagesEEG,001,203061,
AFNE01.JPG,AFNE01.JPG,AFNE01.JPG,AFNE01.JPG,AFNE01.JPG,AFNE01.JPG,4,4,44,9,,,,,,,,,,,,,,,,,,,,,,,AMNE13.jpg,AMNE19.jpg,AMSA12.jpg,AMSA14.jpg,AMNE13.jpg,MN,1,num_8,32,num_6,0.600173006533,,,2018_Feb_22_1009,60.0008660028,MAFE4ImagesEEG,001,203061,
AFNE01.JPG,AFNE01.JPG,AFNE01.JPG,AFNE01.JPG,AFNE01.JPG,AFNE01.JPG,4,5,45,5,,,,,,,,,,,,,,,,,,,,,,,AMSA11.jpg,AMNE03.jpg,AMNE11.jpg,AMSA08.jpg,AMSA08.jpg,MS,2,num_4,32,num_2,0.650136105542,,,2018_Feb_22_1009,60.0008660028,MAFE4ImagesEEG,001,203061,
AFNE01.JPG,AFNE01.JPG,AFNE01.JPG,AFNE01.JPG,AFNE01.JPG,AFNE01.JPG,4,6,46,3,,,,,,,,,,,,,,,,,,,,,,,AMNE02.jpg,AMNE07.jpg,AMSA13.jpg,AMSA09.jpg,AMSA13.jpg,MS,2,num_2,32,num_6,0.633484625898,,,2018_Feb_22_1009,60.0008660028,MAFE4ImagesEEG,001,203061,
AFNE01.JPG,AFNE01.JPG,AFNE01.JPG,AFNE01.JPG,AFNE01.JPG,AFNE01.JPG,4,7,47,2,,,,,,,,,,,,,,,,,,,,,,,AMSA01.jpg,AMNE05.jpg,AMSA17.jpg,AMNE20.jpg,AMNE05.jpg,MN,1,num_6,32,num_8,0.833432281273,,,2018_Feb_22_1009,60.0008660028,MAFE4ImagesEEG,001,203061,
AFNE01.JPG,AFNE01.JPG,AFNE01.JPG,AFNE01.JPG,AFNE01.JPG,AFNE01.JPG,4,8,48,1,,,,,,,,,,,,,,,,,,,,,,,AMNE08.jpg,AMNE18.jpg,AMSA09.jpg,AMSA20.jpg,AMNE18.jpg,MN,1,num_6,16,num_6,3.38348630973,,,2018_Feb_22_1009,60.0008660028,MAFE4ImagesEEG,001,203061,
AFNE01.JPG,AFNE01.JPG,AFNE01.JPG,AFNE01.JPG,AFNE01.JPG,AFNE01.JPG,4,9,49,6,,,,,,,,,,,,,,,,,,,,,,,AMNE12.jpg,AMNE08.jpg,AMSA12.jpg,AMSA18.jpg,AMNE08.jpg,MN,1,num_6,32,num_8,0.73344770883,,,2018_Feb_22_1009,60.0008660028,MAFE4ImagesEEG,001,203061,
AFNE01.JPG,AFNE01.JPG,AFNE01.JPG,AFNE01.JPG,AFNE01.JPG,AFNE01.JPG,5,0,50,2,,,,,,,,,,,,,,,,,,,,,,,AMNE14.jpg,AMSA06.jpg,AMSA17.jpg,AMNE07.jpg,AMNE14.jpg,MN,1,num_8,16,num_8,0.53361391573,,,2018_Feb_22_1009,60.0008660028,MAFE4ImagesEEG,001,203061,
AFNE01.JPG,AFNE01.JPG,AFNE01.JPG,AFNE01.JPG,AFNE01.JPG,AFNE01.JPG,5,1,51,8,,,,,,,,,,,,,,,,,,,,,,,AMSA12.jpg,AMNE18.jpg,AMNE15.jpg,AMSA16.jpg,AMNE18.jpg,MN,1,num_6,16,num_6,1.26679188316,,,2018_Feb_22_1009,60.0008660028,MAFE4ImagesEEG,001,203061,
AFNE01.JPG,AFNE01.JPG,AFNE01.JPG,AFNE01.JPG,AFNE01.JPG,AFNE01.JPG,5,2,52,3,,,,,,,,,,,,,,,,,,,,,,,AMNE05.jpg,AMSA14.jpg,AMNE13.jpg,AMSA16.jpg,AMSA16.jpg,MS,2,num_4,32,num_8,0.650247081183,,,2018_Feb_22_1009,60.0008660028,MAFE4ImagesEEG,001,203061,
AFNE01.JPG,AFNE01.JPG,AFNE01.JPG,AFNE01.JPG,AFNE01.JPG,AFNE01.JPG,5,3,53,6,,,,,,,,,,,,,,,,,,,,,,,AMSA07.jpg,AMNE09.jpg,AMSA18.jpg,AMNE05.jpg,AMNE09.jpg,MN,1,num_6,16,num_6,0.833487127617,,,2018_Feb_22_1009,60.0008660028,MAFE4ImagesEEG,001,203061,
AFNE01.JPG,AFNE01.JPG,AFNE01.JPG,AFNE01.JPG,AFNE01.JPG,AFNE01.JPG,5,4,54,9,,,,,,,,,,,,,,,,,,,,,,,AMNE13.jpg,AMSA07.jpg,AMNE17.jpg,AMSA03.jpg,AMNE17.jpg,MN,1,num_2,16,num_2,0.833514390397,,,2018_Feb_22_1009,60.0008660028,MAFE4ImagesEEG,001,203061,
AFNE01.JPG,AFNE01.JPG,AFNE01.JPG,AFNE01.JPG,AFNE01.JPG,AFNE01.JPG,5,5,55,4,,,,,,,,,,,,,,,,,,,,,,,AMNE18.jpg,AMSA10.jpg,AMNE10.jpg,AMSA15.jpg,AMNE18.jpg,MN,1,num_8,32,num_2,1.11655137705,,,2018_Feb_22_1009,60.0008660028,MAFE4ImagesEEG,001,203061,
AFNE01.JPG,AFNE01.JPG,AFNE01.JPG,AFNE01.JPG,AFNE01.JPG,AFNE01.JPG,5,6,56,0,,,,,,,,,,,,,,,,,,,,,,,AMSA14.jpg,AMNE11.jpg,AMSA15.jpg,AMNE16.jpg,AMSA14.jpg,MS,2,num_8,16,num_8,0.750117791351,,,2018_Feb_22_1009,60.0008660028,MAFE4ImagesEEG,001,203061,
AFNE01.JPG,AFNE01.JPG,AFNE01.JPG,AFNE01.JPG,AFNE01.JPG,AFNE01.JPG,5,7,57,7,,,,,,,,,,,,,,,,,,,,,,,AMSA19.jpg,AMSA06.jpg,AMNE09.jpg,AMNE18.jpg,AMNE18.jpg,MN,1,num_4,32,num_8,0.783434221754,,,2018_Feb_22_1009,60.0008660028,MAFE4ImagesEEG,001,203061,
AFNE01.JPG,AFNE01.JPG,AFNE01.JPG,AFNE01.JPG,AFNE01.JPG,AFNE01.JPG,5,8,58,1,,,,,,,,,,,,,,,,,,,,,,,AMSA06.jpg,AMNE12.jpg,AMNE14.jpg,AMSA15.jpg,AMNE12.jpg,MN,1,num_6,32,num_8,2.88368436601,,,2018_Feb_22_1009,60.0008660028,MAFE4ImagesEEG,001,203061,
AFNE01.JPG,AFNE01.JPG,AFNE01.JPG,AFNE01.JPG,AFNE01.JPG,AFNE01.JPG,5,9,59,5,,,,,,,,,,,,,,,,,,,,,,,AMNE13.jpg,AMSA15.jpg,AMNE09.jpg,AMSA11.jpg,AMSA15.jpg,MS,2,num_6,16,num_6,0.866774691502,,,2018_Feb_22_1009,60.0008660028,MAFE4ImagesEEG,001,203061,
,,,,,,,,,,,,,,,,,,,,,,,,,,,,,,,,,,,,,,,,,,,space,103.341841574,2018_Feb_22_1009,60.0008660028,MAFE4ImagesEEG,001,203061,
AFNE01.JPG,AFNE01.JPG,AFNE01.JPG,AFNE01.JPG,AFNE01.JPG,AFNE01.JPG,,,,,0,0,0,2,,,,,,,,,,,,,,,,,,,AFNE13.jpg,AFNE15.jpg,AFSA07.jpg,AFSA15.jpg,AFSA07.jpg,FS,4,num_2,32,num_4,1.00019212253,,,2018_Feb_22_1009,60.0008660028,MAFE4ImagesEEG,001,203061,
AFNE01.JPG,AFNE01.JPG,AFNE01.JPG,AFNE01.JPG,AFNE01.JPG,AFNE01.JPG,,,,,0,1,1,1,,,,,,,,,,,,,,,,,,,AFSA07.jpg,AFSA06.jpg,AFNE11.jpg,AFNE17.jpg,AFSA07.jpg,FS,4,num_8,16,num_8,0.966782998643,,,2018_Feb_22_1009,60.0008660028,MAFE4ImagesEEG,001,203061,
AFNE01.JPG,AFNE01.JPG,AFNE01.JPG,AFNE01.JPG,AFNE01.JPG,AFNE01.JPG,,,,,0,2,2,4,,,,,,,,,,,,,,,,,,,AFSA16.jpg,AFSA11.jpg,AFNE18.jpg,AFNE06.jpg,AFSA16.jpg,FS,4,num_8,32,num_2,0.633580526803,,,2018_Feb_22_1009,60.0008660028,MAFE4ImagesEEG,001,203061,
AFNE01.JPG,AFNE01.JPG,AFNE01.JPG,AFNE01.JPG,AFNE01.JPG,AFNE01.JPG,,,,,0,3,3,5,,,,,,,,,,,,,,,,,,,AFNE07.jpg,AFSA02.jpg,AFSA19.jpg,AFNE06.jpg,AFSA19.jpg,FS,4,num_2,16,num_2,1.05008273461,,,2018_Feb_22_1009,60.0008660028,MAFE4ImagesEEG,001,203061,
AFNE01.JPG,AFNE01.JPG,AFNE01.JPG,AFNE01.JPG,AFNE01.JPG,AFNE01.JPG,,,,,0,4,4,8,,,,,,,,,,,,,,,,,,,AFSA19.jpg,AFNE11.jpg,AFSA03.jpg,AFNE18.jpg,AFNE18.jpg,FN,3,num_4,16,num_4,0.783521783422,,,2018_Feb_22_1009,60.0008660028,MAFE4ImagesEEG,001,203061,
AFNE01.JPG,AFNE01.JPG,AFNE01.JPG,AFNE01.JPG,AFNE01.JPG,AFNE01.JPG,,,,,0,5,5,3,,,,,,,,,,,,,,,,,,,AFNE15.jpg,AFSA06.jpg,AFSA20.jpg,AFNE05.jpg,AFNE15.jpg,FN,3,num_8,16,num_8,0.950186044618,,,2018_Feb_22_1009,60.0008660028,MAFE4ImagesEEG,001,203061,
AFNE01.JPG,AFNE01.JPG,AFNE01.JPG,AFNE01.JPG,AFNE01.JPG,AFNE01.JPG,,,,,0,6,6,9,,,,,,,,,,,,,,,,,,,AFNE19.jpg,AFSA18.jpg,AFSA08.jpg,AFNE08.jpg,AFNE19.jpg,FN,3,num_8,32,num_2,1.03345114074,,,2018_Feb_22_1009,60.0008660028,MAFE4ImagesEEG,001,203061,
AFNE01.JPG,AFNE01.JPG,AFNE01.JPG,AFNE01.JPG,AFNE01.JPG,AFNE01.JPG,,,,,0,7,7,6,,,,,,,,,,,,,,,,,,,AFSA11.jpg,AFNE05.jpg,AFNE04.jpg,AFSA03.jpg,AFSA11.jpg,FS,4,num_8,16,num_8,0.600148951111,,,2018_Feb_22_1009,60.0008660028,MAFE4ImagesEEG,001,203061,
AFNE01.JPG,AFNE01.JPG,AFNE01.JPG,AFNE01.JPG,AFNE01.JPG,AFNE01.JPG,,,,,0,8,8,7,,,,,,,,,,,,,,,,,,,AFSA03.jpg,AFSA01.jpg,AFNE04.jpg,AFNE17.jpg,AFNE04.jpg,FN,3,num_2,32,num_6,0.550141590124,,,2018_Feb_22_1009,60.0008660028,MAFE4ImagesEEG,001,203061,
AFNE01.JPG,AFNE01.JPG,AFNE01.JPG,AFNE01.JPG,AFNE01.JPG,AFNE01.JPG,,,,,0,9,9,0,,,,,,,,,,,,,,,,,,,AFSA18.jpg,AFNE01.jpg,AFSA12.jpg,AFNE02.jpg,AFNE02.jpg,FN,3,num_4,32,num_2,1.55027341383,,,2018_Feb_22_1009,60.0008660028,MAFE4ImagesEEG,001,203061,
AFNE01.JPG,AFNE01.JPG,AFNE01.JPG,AFNE01.JPG,AFNE01.JPG,AFNE01.JPG,,,,,1,0,10,7,,,,,,,,,,,,,,,,,,,AFSA06.jpg,AFNE06.jpg,AFSA18.jpg,AFNE03.jpg,AFSA06.jpg,FS,4,num_8,32,num_6,0.483548501041,,,2018_Feb_22_1009,60.0008660028,MAFE4ImagesEEG,001,203061,
AFNE01.JPG,AFNE01.JPG,AFNE01.JPG,AFNE01.JPG,AFNE01.JPG,AFNE01.JPG,,,,,1,1,11,6,,,,,,,,,,,,,,,,,,,AFNE02.jpg,AFSA05.jpg,AFNE07.jpg,AFSA16.jpg,AFSA05.jpg,FS,4,num_6,32,num_8,0.51677320007,,,2018_Feb_22_1009,60.0008660028,MAFE4ImagesEEG,001,203061,
AFNE01.JPG,AFNE01.JPG,AFNE01.JPG,AFNE01.JPG,AFNE01.JPG,AFNE01.JPG,,,,,1,2,12,0,,,,,,,,,,,,,,,,,,,AFNE02.jpg,AFSA19.jpg,AFNE20.jpg,AFSA14.jpg,AFSA19.jpg,FS,4,num_6,32,num_2,0.850223603135,,,2018_Feb_22_1009,60.0008660028,MAFE4ImagesEEG,001,203061,
AFNE01.JPG,AFNE01.JPG,AFNE01.JPG,AFNE01.JPG,AFNE01.JPG,AFNE01.JPG,,,,,1,3,13,5,,,,,,,,,,,,,,,,,,,AFNE16.jpg,AFSA10.jpg,AFSA04.jpg,AFNE20.jpg,AFSA10.jpg,FS,4,num_6,16,num_6,0.300160593993,,,2018_Feb_22_1009,60.0008660028,MAFE4ImagesEEG,001,203061,
AFNE01.JPG,AFNE01.JPG,AFNE01.JPG,AFNE01.JPG,AFNE01.JPG,AFNE01.JPG,,,,,1,4,14,8,,,,,,,,,,,,,,,,,,,AFNE07.jpg,AFSA12.jpg,AFSA01.jpg,AFNE14.jpg,AFNE07.jpg,FN,3,num_8,32,num_6,0.283491794369,,,2018_Feb_22_1009,60.0008660028,MAFE4ImagesEEG,001,203061,
AFNE01.JPG,AFNE01.JPG,AFNE01.JPG,AFNE01.JPG,AFNE01.JPG,AFNE01.JPG,,,,,1,5,15,3,,,,,,,,,,,,,,,,,,,AFSA11.jpg,AFNE11.jpg,AFNE20.jpg,AFSA07.jpg,AFNE11.jpg,FN,3,num_6,32,num_2,0.583527941606,,,2018_Feb_22_1009,60.0008660028,MAFE4ImagesEEG,001,203061,
AFNE01.JPG,AFNE01.JPG,AFNE01.JPG,AFNE01.JPG,AFNE01.JPG,AFNE01.JPG,,,,,1,6,16,2,,,,,,,,,,,,,,,,,,,AFSA16.jpg,AFNE02.jpg,AFNE10.jpg,AFSA06.jpg,AFNE10.jpg,FN,3,num_2,32,num_8,0.633443571278,,,2018_Feb_22_1009,60.0008660028,MAFE4ImagesEEG,001,203061,
AFNE01.JPG,AFNE01.JPG,AFNE01.JPG,AFNE01.JPG,AFNE01.JPG,AFNE01.JPG,,,,,1,7,17,1,,,,,,,,,,,,,,,,,,,AFSA15.jpg,AFSA13.jpg,AFNE01.jpg,AFNE02.jpg,AFNE02.jpg,FN,3,num_4,32,num_2,0.333456497057,,,2018_Feb_22_1009,60.0008660028,MAFE4ImagesEEG,001,203061,
AFNE01.JPG,AFNE01.JPG,AFNE01.JPG,AFNE01.JPG,AFNE01.JPG,AFNE01.JPG,,,,,1,8,18,4,,,,,,,,,,,,,,,,,,,AFNE02.jpg,AFSA08.jpg,AFNE14.jpg,AFSA03.jpg,AFNE14.jpg,FN,3,num_2,32,num_6,0.616833146138,,,2018_Feb_22_1009,60.0008660028,MAFE4ImagesEEG,001,203061,
AFNE01.JPG,AFNE01.JPG,AFNE01.JPG,AFNE01.JPG,AFNE01.JPG,AFNE01.JPG,,,,,1,9,19,9,,,,,,,,,,,,,,,,,,,AFNE14.jpg,AFNE10.jpg,AFSA08.jpg,AFSA11.jpg,AFNE10.jpg,FN,3,num_6,16,num_6,0.533621934184,,,2018_Feb_22_1009,60.0008660028,MAFE4ImagesEEG,001,203061,
AFNE01.JPG,AFNE01.JPG,AFNE01.JPG,AFNE01.JPG,AFNE01.JPG,AFNE01.JPG,,,,,2,0,20,4,,,,,,,,,,,,,,,,,,,AFSA01.jpg,AFNE20.jpg,AFSA15.jpg,AFNE18.jpg,AFSA01.jpg,FS,4,num_8,16,num_8,0.916817333782,,,2018_Feb_22_1009,60.0008660028,MAFE4ImagesEEG,001,203061,
AFNE01.JPG,AFNE01.JPG,AFNE01.JPG,AFNE01.JPG,AFNE01.JPG,AFNE01.JPG,,,,,2,1,21,0,,,,,,,,,,,,,,,,,,,AFSA07.jpg,AFNE05.jpg,AFSA04.jpg,AFNE09.jpg,AFSA07.jpg,FS,4,num_8,16,num_8,0.766779213969,,,2018_Feb_22_1009,60.0008660028,MAFE4ImagesEEG,001,203061,
AFNE01.JPG,AFNE01.JPG,AFNE01.JPG,AFNE01.JPG,AFNE01.JPG,AFNE01.JPG,,,,,2,2,22,1,,,,,,,,,,,,,,,,,,,AFSA03.jpg,AFNE16.jpg,AFNE15.jpg,AFSA11.jpg,AFSA11.jpg,FS,4,num_4,32,num_6,0.533468300244,,,2018_Feb_22_1009,60.0008660028,MAFE4ImagesEEG,001,203061,
AFNE01.JPG,AFNE01.JPG,AFNE01.JPG,AFNE01.JPG,AFNE01.JPG,AFNE01.JPG,,,,,2,3,23,8,,,,,,,,,,,,,,,,,,,AFNE03.jpg,AFSA07.jpg,AFSA13.jpg,AFNE15.jpg,AFNE15.jpg,FN,3,num_4,32,num_2,0.566587476234,,,2018_Feb_22_1009,60.0008660028,MAFE4ImagesEEG,001,203061,
AFNE01.JPG,AFNE01.JPG,AFNE01.JPG,AFNE01.JPG,AFNE01.JPG,AFNE01.JPG,,,,,2,4,24,9,,,,,,,,,,,,,,,,,,,AFNE11.jpg,AFNE17.jpg,AFSA10.jpg,AFSA13.jpg,AFNE17.jpg,FN,3,num_6,32,num_2,0.783433580247,,,2018_Feb_22_1009,60.0008660028,MAFE4ImagesEEG,001,203061,
AFNE01.JPG,AFNE01.JPG,AFNE01.JPG,AFNE01.JPG,AFNE01.JPG,AFNE01.JPG,,,,,2,5,25,6,,,,,,,,,,,,,,,,,,,AFSA14.jpg,AFNE16.jpg,AFNE03.jpg,AFSA13.jpg,AFSA14.jpg,FS,4,num_8,32,num_4,0.683587887732,,,2018_Feb_22_1009,60.0008660028,MAFE4ImagesEEG,001,203061,
AFNE01.JPG,AFNE01.JPG,AFNE01.JPG,AFNE01.JPG,AFNE01.JPG,AFNE01.JPG,,,,,2,6,26,7,,,,,,,,,,,,,,,,,,,AFNE06.jpg,AFNE18.jpg,AFSA07.jpg,AFSA19.jpg,AFNE18.jpg,FN,3,num_6,16,num_6,0.600146385259,,,2018_Feb_22_1009,60.0008660028,MAFE4ImagesEEG,001,203061,
AFNE01.JPG,AFNE01.JPG,AFNE01.JPG,AFNE01.JPG,AFNE01.JPG,AFNE01.JPG,,,,,2,7,27,3,,,,,,,,,,,,,,,,,,,AFSA18.jpg,AFSA04.jpg,AFNE13.jpg,AFNE20.jpg,AFSA04.jpg,FS,4,num_6,32,num_2,0.80013894412,,,2018_Feb_22_1009,60.0008660028,MAFE4ImagesEEG,001,203061,
AFNE01.JPG,AFNE01.JPG,AFNE01.JPG,AFNE01.JPG,AFNE01.JPG,AFNE01.JPG,,,,,2,8,28,2,,,,,,,,,,,,,,,,,,,AFSA05.jpg,AFNE17.jpg,AFNE12.jpg,AFSA03.jpg,AFSA03.jpg,FS,4,num_4,16,num_4,0.616796261223,,,2018_Feb_22_1009,60.0008660028,MAFE4ImagesEEG,001,203061,
AFNE01.JPG,AFNE01.JPG,AFNE01.JPG,AFNE01.JPG,AFNE01.JPG,AFNE01.JPG,,,,,2,9,29,5,,,,,,,,,,,,,,,,,,,AFSA11.jpg,AFSA20.jpg,AFNE07.jpg,AFNE15.jpg,AFSA11.jpg,FS,4,num_8,16,num_8,0.61672184983,,,2018_Feb_22_1009,60.0008660028,MAFE4ImagesEEG,001,203061,
AFNE01.JPG,AFNE01.JPG,AFNE01.JPG,AFNE01.JPG,AFNE01.JPG,AFNE01.JPG,,,,,3,0,30,2,,,,,,,,,,,,,,,,,,,AFNE10.jpg,AFNE14.jpg,AFSA06.jpg,AFSA16.jpg,AFSA16.jpg,FS,4,num_4,32,num_8,0.983458854491,,,2018_Feb_22_1009,60.0008660028,MAFE4ImagesEEG,001,203061,
AFNE01.JPG,AFNE01.JPG,AFNE01.JPG,AFNE01.JPG,AFNE01.JPG,AFNE01.JPG,,,,,3,1,31,6,,,,,,,,,,,,,,,,,,,AFSA12.jpg,AFNE10.jpg,AFSA10.jpg,AFNE16.jpg,AFSA10.jpg,FS,4,num_2,16,num_2,0.733459576149,,,2018_Feb_22_1009,60.0008660028,MAFE4ImagesEEG,001,203061,
AFNE01.JPG,AFNE01.JPG,AFNE01.JPG,AFNE01.JPG,AFNE01.JPG,AFNE01.JPG,,,,,3,2,32,9,,,,,,,,,,,,,,,,,,,AFNE16.jpg,AFSA12.jpg,AFSA01.jpg,AFNE14.jpg,AFSA01.jpg,FS,4,num_2,16,num_2,0.683420141286,,,2018_Feb_22_1009,60.0008660028,MAFE4ImagesEEG,001,203061,
AFNE01.JPG,AFNE01.JPG,AFNE01.JPG,AFNE01.JPG,AFNE01.JPG,AFNE01.JPG,,,,,3,3,33,8,,,,,,,,,,,,,,,,,,,AFNE05.jpg,AFSA06.jpg,AFSA04.jpg,AFNE16.jpg,AFSA06.jpg,FS,4,num_6,16,num_6,0.616862012655,,,2018_Feb_22_1009,60.0008660028,MAFE4ImagesEEG,001,203061,
AFNE01.JPG,AFNE01.JPG,AFNE01.JPG,AFNE01.JPG,AFNE01.JPG,AFNE01.JPG,,,,,3,4,34,0,,,,,,,,,,,,,,,,,,,AFSA20.jpg,AFSA01.jpg,AFNE12.jpg,AFNE08.jpg,AFSA20.jpg,FS,4,num_8,32,num_2,0.566920723883,,,2018_Feb_22_1009,60.0008660028,MAFE4ImagesEEG,001,203061,
AFNE01.JPG,AFNE01.JPG,AFNE01.JPG,AFNE01.JPG,AFNE01.JPG,AFNE01.JPG,,,,,3,5,35,4,,,,,,,,,,,,,,,,,,,AFSA03.jpg,AFNE05.jpg,AFNE04.jpg,AFSA10.jpg,AFSA10.jpg,FS,4,num_4,16,num_4,0.883439642203,,,2018_Feb_22_1009,60.0008660028,MAFE4ImagesEEG,001,203061,
AFNE01.JPG,AFNE01.JPG,AFNE01.JPG,AFNE01.JPG,AFNE01.JPG,AFNE01.JPG,,,,,3,6,36,1,,,,,,,,,,,,,,,,,,,AFSA11.jpg,AFSA04.jpg,AFNE17.jpg,AFNE14.jpg,AFSA04.jpg,FS,4,num_6,32,num_4,0.966704738385,,,2018_Feb_22_1009,60.0008660028,MAFE4ImagesEEG,001,203061,
AFNE01.JPG,AFNE01.JPG,AFNE01.JPG,AFNE01.JPG,AFNE01.JPG,AFNE01.JPG,,,,,3,7,37,7,,,,,,,,,,,,,,,,,,,AFNE15.jpg,AFSA15.jpg,AFNE05.jpg,AFSA05.jpg,AFSA15.jpg,FS,4,num_6,32,num_8,0.783562196593,,,2018_Feb_22_1009,60.0008660028,MAFE4ImagesEEG,001,203061,
AFNE01.JPG,AFNE01.JPG,AFNE01.JPG,AFNE01.JPG,AFNE01.JPG,AFNE01.JPG,,,,,3,8,38,3,,,,,,,,,,,,,,,,,,,AFNE08.jpg,AFSA20.jpg,AFNE18.jpg,AFSA18.jpg,AFSA20.jpg,FS,4,num_6,32,num_4,0.966766640951,,,2018_Feb_22_1009,60.0008660028,MAFE4ImagesEEG,001,203061,
AFNE01.JPG,AFNE01.JPG,AFNE01.JPG,AFNE01.JPG,AFNE01.JPG,AFNE01.JPG,,,,,3,9,39,5,,,,,,,,,,,,,,,,,,,AFSA19.jpg,AFNE10.jpg,AFSA07.jpg,AFNE17.jpg,AFSA19.jpg,FS,4,num_8,16,num_8,1.33354373806,,,2018_Feb_22_1009,60.0008660028,MAFE4ImagesEEG,001,203061,
AFNE01.JPG,AFNE01.JPG,AFNE01.JPG,AFNE01.JPG,AFNE01.JPG,AFNE01.JPG,,,,,4,0,40,5,,,,,,,,,,,,,,,,,,,AFSA08.jpg,AFNE08.jpg,AFNE09.jpg,AFSA09.jpg,AFSA08.jpg,FS,4,num_8,32,num_6,0.633631845005,,,2018_Feb_22_1009,60.0008660028,MAFE4ImagesEEG,001,203061,
AFNE01.JPG,AFNE01.JPG,AFNE01.JPG,AFNE01.JPG,AFNE01.JPG,AFNE01.JPG,,,,,4,1,41,3,,,,,,,,,,,,,,,,,,,AFSA12.jpg,AFNE02.jpg,AFSA15.jpg,AFNE07.jpg,AFSA15.jpg,FS,4,num_2,32,num_8,0.783190460235,,,2018_Feb_22_1009,60.0008660028,MAFE4ImagesEEG,001,203061,
AFNE01.JPG,AFNE01.JPG,AFNE01.JPG,AFNE01.JPG,AFNE01.JPG,AFNE01.JPG,,,,,4,2,42,4,,,,,,,,,,,,,,,,,,,AFSA01.jpg,AFNE20.jpg,AFNE04.jpg,AFSA12.jpg,AFSA12.jpg,FS,4,num_4,16,num_4,0.500127493695,,,2018_Feb_22_1009,60.0008660028,MAFE4ImagesEEG,001,203061,
AFNE01.JPG,AFNE01.JPG,AFNE01.JPG,AFNE01.JPG,AFNE01.JPG,AFNE01.JPG,,,,,4,3,43,8,,,,,,,,,,,,,,,,,,,AFNE07.jpg,AFSA15.jpg,AFSA20.jpg,AFNE09.jpg,AFSA20.jpg,FS,4,num_2,16,num_2,0.816744558106,,,2018_Feb_22_1009,60.0008660028,MAFE4ImagesEEG,001,203061,
AFNE01.JPG,AFNE01.JPG,AFNE01.JPG,AFNE01.JPG,AFNE01.JPG,AFNE01.JPG,,,,,4,4,44,0,,,,,,,,,,,,,,,,,,,AFNE04.jpg,AFNE13.jpg,AFSA09.jpg,AFSA18.jpg,AFNE04.jpg,FN,3,num_8,16,num_8,0.80015850917,,,2018_Feb_22_1009,60.0008660028,MAFE4ImagesEEG,001,203061,
AFNE01.JPG,AFNE01.JPG,AFNE01.JPG,AFNE01.JPG,AFNE01.JPG,AFNE01.JPG,,,,,4,5,45,1,,,,,,,,,,,,,,,,,,,AFNE20.jpg,AFSA08.jpg,AFSA16.jpg,AFNE18.jpg,AFNE18.jpg,FN,3,num_4,32,num_8,0.800112002005,,,2018_Feb_22_1009,60.0008660028,MAFE4ImagesEEG,001,203061,
AFNE01.JPG,AFNE01.JPG,AFNE01.JPG,AFNE01.JPG,AFNE01.JPG,AFNE01.JPG,,,,,4,6,46,6,,,,,,,,,,,,,,,,,,,AFSA10.jpg,AFNE06.jpg,AFSA17.jpg,AFNE15.jpg,AFNE06.jpg,FN,3,num_6,16,num_6,0.566844388086,,,2018_Feb_22_1009,60.0008660028,MAFE4ImagesEEG,001,203061,
AFNE01.JPG,AFNE01.JPG,AFNE01.JPG,AFNE01.JPG,AFNE01.JPG,AFNE01.JPG,,,,,4,7,47,9,,,,,,,,,,,,,,,,,,,AFSA05.jpg,AFNE04.jpg,AFNE01.jpg,AFSA08.jpg,AFNE01.jpg,FN,3,num_2,16,num_2,1.05014784459,,,2018_Feb_22_1009,60.0008660028,MAFE4ImagesEEG,001,203061,
AFNE01.JPG,AFNE01.JPG,AFNE01.JPG,AFNE01.JPG,AFNE01.JPG,AFNE01.JPG,,,,,4,8,48,2,,,,,,,,,,,,,,,,,,,AFSA17.jpg,AFSA05.jpg,AFNE07.jpg,AFNE05.jpg,AFNE05.jpg,FN,3,num_4,32,num_6,0.633445174957,,,2018_Feb_22_1009,60.0008660028,MAFE4ImagesEEG,001,203061,
AFNE01.JPG,AFNE01.JPG,AFNE01.JPG,AFNE01.JPG,AFNE01.JPG,AFNE01.JPG,,,,,4,9,49,7,,,,,,,,,,,,,,,,,,,AFNE20.jpg,AFNE01.jpg,AFSA17.jpg,AFSA04.jpg,AFNE20.jpg,FN,3,num_8,32,num_6,0.800247033068,,,2018_Feb_22_1009,60.0008660028,MAFE4ImagesEEG,001,203061,
AFNE01.JPG,AFNE01.JPG,AFNE01.JPG,AFNE01.JPG,AFNE01.JPG,AFNE01.JPG,,,,,5,0,50,9,,,,,,,,,,,,,,,,,,,AFNE08.jpg,AFSA04.jpg,AFNE02.jpg,AFSA15.jpg,AFNE08.jpg,FN,3,num_8,32,num_4,0.583631219575,,,2018_Feb_22_1009,60.0008660028,MAFE4ImagesEEG,001,203061,
AFNE01.JPG,AFNE01.JPG,AFNE01.JPG,AFNE01.JPG,AFNE01.JPG,AFNE01.JPG,,,,,5,1,51,4,,,,,,,,,,,,,,,,,,,AFSA06.jpg,AFSA19.jpg,AFNE18.jpg,AFNE01.jpg,AFNE01.jpg,FN,3,num_4,32,num_8,0.483490447281,,,2018_Feb_22_1009,60.0008660028,MAFE4ImagesEEG,001,203061,
AFNE01.JPG,AFNE01.JPG,AFNE01.JPG,AFNE01.JPG,AFNE01.JPG,AFNE01.JPG,,,,,5,2,52,1,,,,,,,,,,,,,,,,,,,AFSA20.jpg,AFNE14.jpg,AFSA11.jpg,AFNE08.jpg,AFNE08.jpg,FN,3,num_4,16,num_4,0.716651896655,,,2018_Feb_22_1009,60.0008660028,MAFE4ImagesEEG,001,203061,
AFNE01.JPG,AFNE01.JPG,AFNE01.JPG,AFNE01.JPG,AFNE01.JPG,AFNE01.JPG,,,,,5,3,53,7,,,,,,,,,,,,,,,,,,,AFNE18.jpg,AFNE14.jpg,AFSA05.jpg,AFSA10.jpg,AFNE18.jpg,FN,3,num_8,32,num_4,0.716784041084,,,2018_Feb_22_1009,60.0008660028,MAFE4ImagesEEG,001,203061,
AFNE01.JPG,AFNE01.JPG,AFNE01.JPG,AFNE01.JPG,AFNE01.JPG,AFNE01.JPG,,,,,5,4,54,3,,,,,,,,,,,,,,,,,,,AFSA12.jpg,AFNE10.jpg,AFSA07.jpg,AFNE08.jpg,AFSA07.jpg,FS,4,num_2,16,num_2,0.550171098148,,,2018_Feb_22_1009,60.0008660028,MAFE4ImagesEEG,001,203061,
AFNE01.JPG,AFNE01.JPG,AFNE01.JPG,AFNE01.JPG,AFNE01.JPG,AFNE01.JPG,,,,,5,5,55,8,,,,,,,,,,,,,,,,,,,AFSA01.jpg,AFNE05.jpg,AFNE12.jpg,AFSA12.jpg,AFNE05.jpg,FN,3,num_6,16,num_6,0.33351038117,,,2018_Feb_22_1009,60.0008660028,MAFE4ImagesEEG,001,203061,
AFNE01.JPG,AFNE01.JPG,AFNE01.JPG,AFNE01.JPG,AFNE01.JPG,AFNE01.JPG,,,,,5,6,56,2,,,,,,,,,,,,,,,,,,,AFNE20.jpg,AFNE06.jpg,AFSA13.jpg,AFSA10.jpg,AFSA10.jpg,FS,4,num_4,32,num_2,0.733475613117,,,2018_Feb_22_1009,60.0008660028,MAFE4ImagesEEG,001,203061,
AFNE01.JPG,AFNE01.JPG,AFNE01.JPG,AFNE01.JPG,AFNE01.JPG,AFNE01.JPG,,,,,5,7,57,0,,,,,,,,,,,,,,,,,,,AFNE13.jpg,AFSA17.jpg,AFNE18.jpg,AFSA12.jpg,AFNE13.jpg,FN,3,num_8,16,num_8,0.533432377502,,,2018_Feb_22_1009,60.0008660028,MAFE4ImagesEEG,001,203061,
AFNE01.JPG,AFNE01.JPG,AFNE01.JPG,AFNE01.JPG,AFNE01.JPG,AFNE01.JPG,,,,,5,8,58,5,,,,,,,,,,,,,,,,,,,AFNE10.jpg,AFNE01.jpg,AFSA09.jpg,AFSA08.jpg,AFSA09.jpg,FS,4,num_2,32,num_6,0.60008929373,,,2018_Feb_22_1009,60.0008660028,MAFE4ImagesEEG,001,203061,
AFNE01.JPG,AFNE01.JPG,AFNE01.JPG,AFNE01.JPG,AFNE01.JPG,AFNE01.JPG,,,,,5,9,59,6,,,,,,,,,,,,,,,,,,,AFNE08.jpg,AFSA15.jpg,AFNE15.jpg,AFSA12.jpg,AFSA12.jpg,FS,4,num_4,16,num_4,0.866946607537,,,2018_Feb_22_1009,60.0008660028,MAFE4ImagesEEG,001,203061,
,,,,,,,,,,,,,,,,,,,,,,,,,,,,,,,,,,,,,,,,,,,space,3.29988732439,2018_Feb_22_1009,60.0008660028,MAFE4ImagesEEG,001,203061,
AFNE01.JPG,AFNE01.JPG,AFNE01.JPG,AFNE01.JPG,AFNE01.JPG,AFNE01.JPG,,,,,,,,,0,0,0,1,,,,,,,,,,,,,,,AMSA06.jpg,AMNE04.jpg,AMSA16.jpg,AMNE08.jpg,AMNE08.jpg,MN,1,num_4,32,num_8,0.816738784837,,,2018_Feb_22_1009,60.0008660028,MAFE4ImagesEEG,001,203061,
AFNE01.JPG,AFNE01.JPG,AFNE01.JPG,AFNE01.JPG,AFNE01.JPG,AFNE01.JPG,,,,,,,,,0,1,1,9,,,,,,,,,,,,,,,AMNE19.jpg,AMSA05.jpg,AMSA18.jpg,AMNE17.jpg,AMSA05.jpg,MS,2,num_6,32,num_4,0.700254442112,,,2018_Feb_22_1009,60.0008660028,MAFE4ImagesEEG,001,203061,
AFNE01.JPG,AFNE01.JPG,AFNE01.JPG,AFNE01.JPG,AFNE01.JPG,AFNE01.JPG,,,,,,,,,0,2,2,5,,,,,,,,,,,,,,,AMNE17.jpg,AMSA02.jpg,AMSA12.jpg,AMNE08.jpg,AMNE08.jpg,MN,1,num_4,32,num_8,0.666767378687,,,2018_Feb_22_1009,60.0008660028,MAFE4ImagesEEG,001,203061,
AFNE01.JPG,AFNE01.JPG,AFNE01.JPG,AFNE01.JPG,AFNE01.JPG,AFNE01.JPG,,,,,,,,,0,3,3,6,,,,,,,,,,,,,,,AMSA15.jpg,AMNE16.jpg,AMNE15.jpg,AMSA16.jpg,AMNE15.jpg,MN,1,num_2,32,num_4,0.516824839055,,,2018_Feb_22_1009,60.0008660028,MAFE4ImagesEEG,001,203061,
AFNE01.JPG,AFNE01.JPG,AFNE01.JPG,AFNE01.JPG,AFNE01.JPG,AFNE01.JPG,,,,,,,,,0,4,4,4,,,,,,,,,,,,,,,AMSA18.jpg,AMSA15.jpg,AMNE11.jpg,AMNE15.jpg,AMNE15.jpg,MN,1,num_4,32,num_2,0.883320968831,,,2018_Feb_22_1009,60.0008660028,MAFE4ImagesEEG,001,203061,
AFNE01.JPG,AFNE01.JPG,AFNE01.JPG,AFNE01.JPG,AFNE01.JPG,AFNE01.JPG,,,,,,,,,0,5,5,3,,,,,,,,,,,,,,,AMNE10.jpg,AMNE11.jpg,AMSA14.jpg,AMSA10.jpg,AMNE11.jpg,MN,1,num_6,32,num_4,1.1500355539,,,2018_Feb_22_1009,60.0008660028,MAFE4ImagesEEG,001,203061,
AFNE01.JPG,AFNE01.JPG,AFNE01.JPG,AFNE01.JPG,AFNE01.JPG,AFNE01.JPG,,,,,,,,,0,6,6,0,,,,,,,,,,,,,,,AMSA04.jpg,AMNE20.jpg,AMSA05.jpg,AMNE07.jpg,AMSA04.jpg,MS,2,num_8,32,num_4,0.916844275838,,,2018_Feb_22_1009,60.0008660028,MAFE4ImagesEEG,001,203061,
AFNE01.JPG,AFNE01.JPG,AFNE01.JPG,AFNE01.JPG,AFNE01.JPG,AFNE01.JPG,,,,,,,,,0,7,7,8,,,,,,,,,,,,,,,AMNE15.jpg,AMNE18.jpg,AMSA01.jpg,AMSA11.jpg,AMSA11.jpg,MS,2,num_4,32,num_2,1.13339273416,,,2018_Feb_22_1009,60.0008660028,MAFE4ImagesEEG,001,203061,
AFNE01.JPG,AFNE01.JPG,AFNE01.JPG,AFNE01.JPG,AFNE01.JPG,AFNE01.JPG,,,,,,,,,0,8,8,7,,,,,,,,,,,,,,,AMNE05.jpg,AMNE04.jpg,AMSA17.jpg,AMSA15.jpg,AMSA17.jpg,MS,2,num_2,48,None,,,,2018_Feb_22_1009,60.0008660028,MAFE4ImagesEEG,001,203061,
AFNE01.JPG,AFNE01.JPG,AFNE01.JPG,AFNE01.JPG,AFNE01.JPG,AFNE01.JPG,,,,,,,,,0,9,9,2,,,,,,,,,,,,,,,AMSA11.jpg,AMNE20.jpg,AMNE15.jpg,AMSA17.jpg,AMSA17.jpg,MS,2,num_4,16,num_4,1.03347102652,,,2018_Feb_22_1009,60.0008660028,MAFE4ImagesEEG,001,203061,
AFNE01.JPG,AFNE01.JPG,AFNE01.JPG,AFNE01.JPG,AFNE01.JPG,AFNE01.JPG,,,,,,,,,1,0,10,5,,,,,,,,,,,,,,,AMNE04.jpg,AMSA17.jpg,AMSA06.jpg,AMNE19.jpg,AMNE19.jpg,MN,1,num_4,32,num_6,1.03345531033,,,2018_Feb_22_1009,60.0008660028,MAFE4ImagesEEG,001,203061,
AFNE01.JPG,AFNE01.JPG,AFNE01.JPG,AFNE01.JPG,AFNE01.JPG,AFNE01.JPG,,,,,,,,,1,1,11,9,,,,,,,,,,,,,,,AMNE11.jpg,AMNE07.jpg,AMSA08.jpg,AMSA09.jpg,AMSA09.jpg,MS,2,num_4,16,num_4,0.816815441358,,,2018_Feb_22_1009,60.0008660028,MAFE4ImagesEEG,001,203061,
AFNE01.JPG,AFNE01.JPG,AFNE01.JPG,AFNE01.JPG,AFNE01.JPG,AFNE01.JPG,,,,,,,,,1,2,12,2,,,,,,,,,,,,,,,AMNE20.jpg,AMSA08.jpg,AMSA06.jpg,AMNE11.jpg,AMNE11.jpg,MN,1,num_4,32,num_8,0.950184120156,,,2018_Feb_22_1009,60.0008660028,MAFE4ImagesEEG,001,203061,
AFNE01.JPG,AFNE01.JPG,AFNE01.JPG,AFNE01.JPG,AFNE01.JPG,AFNE01.JPG,,,,,,,,,1,3,13,8,,,,,,,,,,,,,,,AMNE14.jpg,AMSA13.jpg,AMNE11.jpg,AMSA09.jpg,AMNE11.jpg,MN,1,num_2,16,num_2,1.03346685693,,,2018_Feb_22_1009,60.0008660028,MAFE4ImagesEEG,001,203061,
AFNE01.JPG,AFNE01.JPG,AFNE01.JPG,AFNE01.JPG,AFNE01.JPG,AFNE01.JPG,,,,,,,,,1,4,14,4,,,,,,,,,,,,,,,AMNE12.jpg,AMNE18.jpg,AMSA08.jpg,AMSA20.jpg,AMSA08.jpg,MS,2,num_2,16,num_2,0.666801056243,,,2018_Feb_22_1009,60.0008660028,MAFE4ImagesEEG,001,203061,
AFNE01.JPG,AFNE01.JPG,AFNE01.JPG,AFNE01.JPG,AFNE01.JPG,AFNE01.JPG,,,,,,,,,1,5,15,0,,,,,,,,,,,,,,,AMNE01.jpg,AMSA17.jpg,AMSA05.jpg,AMNE03.jpg,AMNE01.jpg,MN,1,num_8,16,num_8,0.816850081203,,,2018_Feb_22_1009,60.0008660028,MAFE4ImagesEEG,001,203061,
AFNE01.JPG,AFNE01.JPG,AFNE01.JPG,AFNE01.JPG,AFNE01.JPG,AFNE01.JPG,,,,,,,,,1,6,16,7,,,,,,,,,,,,,,,AMNE11.jpg,AMSA13.jpg,AMSA09.jpg,AMNE04.jpg,AMSA13.jpg,MS,2,num_6,16,num_6,0.650106597575,,,2018_Feb_22_1009,60.0008660028,MAFE4ImagesEEG,001,203061,
AFNE01.JPG,AFNE01.JPG,AFNE01.JPG,AFNE01.JPG,AFNE01.JPG,AFNE01.JPG,,,,,,,,,1,7,17,1,,,,,,,,,,,,,,,AMNE20.jpg,AMSA07.jpg,AMNE13.jpg,AMSA16.jpg,AMSA07.jpg,MS,2,num_6,32,num_8,1.9334380225,,,2018_Feb_22_1009,60.0008660028,MAFE4ImagesEEG,001,203061,
AFNE01.JPG,AFNE01.JPG,AFNE01.JPG,AFNE01.JPG,AFNE01.JPG,AFNE01.JPG,,,,,,,,,1,8,18,6,,,,,,,,,,,,,,,AMNE14.jpg,AMNE09.jpg,AMSA11.jpg,AMSA16.jpg,AMSA11.jpg,MS,2,num_2,16,num_2,0.950175460253,,,2018_Feb_22_1009,60.0008660028,MAFE4ImagesEEG,001,203061,
AFNE01.JPG,AFNE01.JPG,AFNE01.JPG,AFNE01.JPG,AFNE01.JPG,AFNE01.JPG,,,,,,,,,1,9,19,3,,,,,,,,,,,,,,,AMNE19.jpg,AMSA04.jpg,AMNE16.jpg,AMSA16.jpg,AMNE16.jpg,MN,1,num_2,16,num_2,0.73338291957,,,2018_Feb_22_1009,60.0008660028,MAFE4ImagesEEG,001,203061,
AFNE01.JPG,AFNE01.JPG,AFNE01.JPG,AFNE01.JPG,AFNE01.JPG,AFNE01.JPG,,,,,,,,,2,0,20,8,,,,,,,,,,,,,,,AMSA05.jpg,AMNE18.jpg,AMNE10.jpg,AMSA06.jpg,AMNE18.jpg,MN,1,num_6,16,num_6,0.73348427302,,,2018_Feb_22_1009,60.0008660028,MAFE4ImagesEEG,001,203061,
AFNE01.JPG,AFNE01.JPG,AFNE01.JPG,AFNE01.JPG,AFNE01.JPG,AFNE01.JPG,,,,,,,,,2,1,21,7,,,,,,,,,,,,,,,AMNE17.jpg,AMSA09.jpg,AMNE10.jpg,AMSA14.jpg,AMNE10.jpg,MN,1,num_2,32,num_6,0.800134453748,,,2018_Feb_22_1009,60.0008660028,MAFE4ImagesEEG,001,203061,
AFNE01.JPG,AFNE01.JPG,AFNE01.JPG,AFNE01.JPG,AFNE01.JPG,AFNE01.JPG,,,,,,,,,2,2,22,0,,,,,,,,,,,,,,,AMSA04.jpg,AMSA16.jpg,AMNE01.jpg,AMNE15.jpg,AMNE15.jpg,MN,1,num_4,32,num_6,0.650200894801,,,2018_Feb_22_1009,60.0008660028,MAFE4ImagesEEG,001,203061,
AFNE01.JPG,AFNE01.JPG,AFNE01.JPG,AFNE01.JPG,AFNE01.JPG,AFNE01.JPG,,,,,,,,,2,3,23,1,,,,,,,,,,,,,,,AMSA19.jpg,AMNE19.jpg,AMSA06.jpg,AMNE20.jpg,AMNE19.jpg,MN,1,num_6,16,num_6,0.766870945285,,,2018_Feb_22_1009,60.0008660028,MAFE4ImagesEEG,001,203061,
AFNE01.JPG,AFNE01.JPG,AFNE01.JPG,AFNE01.JPG,AFNE01.JPG,AFNE01.JPG,,,,,,,,,2,4,24,6,,,,,,,,,,,,,,,AMNE05.jpg,AMSA04.jpg,AMNE20.jpg,AMSA18.jpg,AMNE20.jpg,MN,1,num_2,16,num_2,0.866796181013,,,2018_Feb_22_1009,60.0008660028,MAFE4ImagesEEG,001,203061,
AFNE01.JPG,AFNE01.JPG,AFNE01.JPG,AFNE01.JPG,AFNE01.JPG,AFNE01.JPG,,,,,,,,,2,5,25,5,,,,,,,,,,,,,,,AMSA07.jpg,AMNE13.jpg,AMSA05.jpg,AMNE12.jpg,AMSA05.jpg,MS,2,num_2,32,num_4,0.683479798725,,,2018_Feb_22_1009,60.0008660028,MAFE4ImagesEEG,001,203061,
AFNE01.JPG,AFNE01.JPG,AFNE01.JPG,AFNE01.JPG,AFNE01.JPG,AFNE01.JPG,,,,,,,,,2,6,26,4,,,,,,,,,,,,,,,AMNE17.jpg,AMNE08.jpg,AMSA19.jpg,AMSA20.jpg,AMNE08.jpg,MN,1,num_6,16,num_6,0.583515112055,,,2018_Feb_22_1009,60.0008660028,MAFE4ImagesEEG,001,203061,
AFNE01.JPG,AFNE01.JPG,AFNE01.JPG,AFNE01.JPG,AFNE01.JPG,AFNE01.JPG,,,,,,,,,2,7,27,2,,,,,,,,,,,,,,,AMNE05.jpg,AMNE19.jpg,AMSA20.jpg,AMSA05.jpg,AMNE19.jpg,MN,1,num_6,32,num_2,0.916797127225,,,2018_Feb_22_1009,60.0008660028,MAFE4ImagesEEG,001,203061,
AFNE01.JPG,AFNE01.JPG,AFNE01.JPG,AFNE01.JPG,AFNE01.JPG,AFNE01.JPG,,,,,,,,,2,8,28,9,,,,,,,,,,,,,,,AMSA18.jpg,AMSA16.jpg,AMNE03.jpg,AMNE06.jpg,AMSA18.jpg,MS,2,num_8,32,num_6,0.533489789756,,,2018_Feb_22_1009,60.0008660028,MAFE4ImagesEEG,001,203061,
AFNE01.JPG,AFNE01.JPG,AFNE01.JPG,AFNE01.JPG,AFNE01.JPG,AFNE01.JPG,,,,,,,,,2,9,29,3,,,,,,,,,,,,,,,AMSA10.jpg,AMNE03.jpg,AMSA19.jpg,AMNE08.jpg,AMNE08.jpg,MN,1,num_4,32,num_8,0.833434847184,,,2018_Feb_22_1009,60.0008660028,MAFE4ImagesEEG,001,203061,
AFNE01.JPG,AFNE01.JPG,AFNE01.JPG,AFNE01.JPG,AFNE01.JPG,AFNE01.JPG,,,,,,,,,3,0,30,2,,,,,,,,,,,,,,,AMSA20.jpg,AMNE09.jpg,AMNE15.jpg,AMSA12.jpg,AMNE09.jpg,MN,1,num_6,32,num_2,0.750208560436,,,2018_Feb_22_1009,60.0008660028,MAFE4ImagesEEG,001,203061,
AFNE01.JPG,AFNE01.JPG,AFNE01.JPG,AFNE01.JPG,AFNE01.JPG,AFNE01.JPG,,,,,,,,,3,1,31,8,,,,,,,,,,,,,,,AMNE18.jpg,AMSA06.jpg,AMNE03.jpg,AMSA07.jpg,AMSA07.jpg,MS,2,num_4,32,num_8,2.66674588912,,,2018_Feb_22_1009,60.0008660028,MAFE4ImagesEEG,001,203061,
AFNE01.JPG,AFNE01.JPG,AFNE01.JPG,AFNE01.JPG,AFNE01.JPG,AFNE01.JPG,,,,,,,,,3,2,32,5,,,,,,,,,,,,,,,AMSA14.jpg,AMNE16.jpg,AMSA19.jpg,AMNE06.jpg,AMSA14.jpg,MS,2,num_8,16,num_8,0.766815136652,,,2018_Feb_22_1009,60.0008660028,MAFE4ImagesEEG,001,203061,
AFNE01.JPG,AFNE01.JPG,AFNE01.JPG,AFNE01.JPG,AFNE01.JPG,AFNE01.JPG,,,,,,,,,3,3,33,9,,,,,,,,,,,,,,,AMNE02.jpg,AMSA17.jpg,AMSA16.jpg,AMNE09.jpg,AMNE09.jpg,MN,1,num_4,32,num_2,0.733444501471,,,2018_Feb_22_1009,60.0008660028,MAFE4ImagesEEG,001,203061,
AFNE01.JPG,AFNE01.JPG,AFNE01.JPG,AFNE01.JPG,AFNE01.JPG,AFNE01.JPG,,,,,,,,,3,4,34,0,,,,,,,,,,,,,,,AMSA09.jpg,AMNE18.jpg,AMNE12.jpg,AMSA06.jpg,AMNE18.jpg,MN,1,num_6,16,num_6,0.583496188454,,,2018_Feb_22_1009,60.0008660028,MAFE4ImagesEEG,001,203061,
AFNE01.JPG,AFNE01.JPG,AFNE01.JPG,AFNE01.JPG,AFNE01.JPG,AFNE01.JPG,,,,,,,,,3,5,35,7,,,,,,,,,,,,,,,AMNE20.jpg,AMNE09.jpg,AMSA19.jpg,AMSA02.jpg,AMNE09.jpg,MN,1,num_6,32,num_4,0.683583397418,,,2018_Feb_22_1009,60.0008660028,MAFE4ImagesEEG,001,203061,
AFNE01.JPG,AFNE01.JPG,AFNE01.JPG,AFNE01.JPG,AFNE01.JPG,AFNE01.JPG,,,,,,,,,3,6,36,1,,,,,,,,,,,,,,,AMNE05.jpg,AMSA09.jpg,AMSA12.jpg,AMNE13.jpg,AMSA12.jpg,MS,2,num_2,32,num_6,1.16666682699,,,2018_Feb_22_1009,60.0008660028,MAFE4ImagesEEG,001,203061,
AFNE01.JPG,AFNE01.JPG,AFNE01.JPG,AFNE01.JPG,AFNE01.JPG,AFNE01.JPG,,,,,,,,,3,7,37,6,,,,,,,,,,,,,,,AMSA19.jpg,AMNE19.jpg,AMNE09.jpg,AMSA11.jpg,AMNE09.jpg,MN,1,num_2,16,num_2,0.633466664469,,,2018_Feb_22_1009,60.0008660028,MAFE4ImagesEEG,001,203061,
AFNE01.JPG,AFNE01.JPG,AFNE01.JPG,AFNE01.JPG,AFNE01.JPG,AFNE01.JPG,,,,,,,,,3,8,38,3,,,,,,,,,,,,,,,AMSA14.jpg,AMNE16.jpg,AMSA07.jpg,AMNE12.jpg,AMNE12.jpg,MN,1,num_4,32,num_8,0.600245814247,,,2018_Feb_22_1009,60.0008660028,MAFE4ImagesEEG,001,203061,
AFNE01.JPG,AFNE01.JPG,AFNE01.JPG,AFNE01.JPG,AFNE01.JPG,AFNE01.JPG,,,,,,,,,3,9,39,4,,,,,,,,,,,,,,,AMSA01.jpg,AMNE05.jpg,AMNE17.jpg,AMSA11.jpg,AMNE05.jpg,MN,1,num_6,32,num_8,0.616883502167,,,2018_Feb_22_1009,60.0008660028,MAFE4ImagesEEG,001,203061,
AFNE01.JPG,AFNE01.JPG,AFNE01.JPG,AFNE01.JPG,AFNE01.JPG,AFNE01.JPG,,,,,,,,,4,0,40,8,,,,,,,,,,,,,,,AMSA14.jpg,AMSA05.jpg,AMNE11.jpg,AMNE07.jpg,AMSA05.jpg,MS,2,num_6,32,num_8,0.766802627884,,,2018_Feb_22_1009,60.0008660028,MAFE4ImagesEEG,001,203061,
AFNE01.JPG,AFNE01.JPG,AFNE01.JPG,AFNE01.JPG,AFNE01.JPG,AFNE01.JPG,,,,,,,,,4,1,41,6,,,,,,,,,,,,,,,AMSA12.jpg,AMSA15.jpg,AMNE17.jpg,AMNE14.jpg,AMSA12.jpg,MS,2,num_8,32,num_6,1.41671517841,,,2018_Feb_22_1009,60.0008660028,MAFE4ImagesEEG,001,203061,
AFNE01.JPG,AFNE01.JPG,AFNE01.JPG,AFNE01.JPG,AFNE01.JPG,AFNE01.JPG,,,,,,,,,4,2,42,2,,,,,,,,,,,,,,,AMSA03.jpg,AMNE01.jpg,AMSA16.jpg,AMNE16.jpg,AMNE16.jpg,MN,1,num_4,16,num_4,1.1501802071,,,2018_Feb_22_1009,60.0008660028,MAFE4ImagesEEG,001,203061,
AFNE01.JPG,AFNE01.JPG,AFNE01.JPG,AFNE01.JPG,AFNE01.JPG,AFNE01.JPG,,,,,,,,,4,3,43,7,,,,,,,,,,,,,,,AMNE04.jpg,AMSA05.jpg,AMNE10.jpg,AMSA18.jpg,AMNE10.jpg,MN,1,num_2,16,num_2,0.500080986531,,,2018_Feb_22_1009,60.0008660028,MAFE4ImagesEEG,001,203061,
AFNE01.JPG,AFNE01.JPG,AFNE01.JPG,AFNE01.JPG,AFNE01.JPG,AFNE01.JPG,,,,,,,,,4,4,44,4,,,,,,,,,,,,,,,AMNE12.jpg,AMNE09.jpg,AMSA06.jpg,AMSA09.jpg,AMNE09.jpg,MN,1,num_6,16,num_6,0.533555220463,,,2018_Feb_22_1009,60.0008660028,MAFE4ImagesEEG,001,203061,
AFNE01.JPG,AFNE01.JPG,AFNE01.JPG,AFNE01.JPG,AFNE01.JPG,AFNE01.JPG,,,,,,,,,4,5,45,5,,,,,,,,,,,,,,,AMNE13.jpg,AMSA15.jpg,AMSA10.jpg,AMNE02.jpg,AMSA10.jpg,MS,2,num_2,32,num_6,2.43343208887,,,2018_Feb_22_1009,60.0008660028,MAFE4ImagesEEG,001,203061,
AFNE01.JPG,AFNE01.JPG,AFNE01.JPG,AFNE01.JPG,AFNE01.JPG,AFNE01.JPG,,,,,,,,,4,6,46,0,,,,,,,,,,,,,,,AMNE20.jpg,AMNE17.jpg,AMSA01.jpg,AMSA12.jpg,AMNE20.jpg,MN,1,num_8,32,num_4,0.700164956041,,,2018_Feb_22_1009,60.0008660028,MAFE4ImagesEEG,001,203061,
AFNE01.JPG,AFNE01.JPG,AFNE01.JPG,AFNE01.JPG,AFNE01.JPG,AFNE01.JPG,,,,,,,,,4,7,47,9,,,,,,,,,,,,,,,AMSA06.jpg,AMNE13.jpg,AMNE01.jpg,AMSA11.jpg,AMNE01.jpg,MN,1,num_2,16,num_2,0.73345540656,,,2018_Feb_22_1009,60.0008660028,MAFE4ImagesEEG,001,203061,
AFNE01.JPG,AFNE01.JPG,AFNE01.JPG,AFNE01.JPG,AFNE01.JPG,AFNE01.JPG,,,,,,,,,4,8,48,3,,,,,,,,,,,,,,,AMNE18.jpg,AMSA09.jpg,AMSA17.jpg,AMNE17.jpg,AMNE18.jpg,MN,1,num_8,16,num_8,0.70010594005,,,2018_Feb_22_1009,60.0008660028,MAFE4ImagesEEG,001,203061,
AFNE01.JPG,AFNE01.JPG,AFNE01.JPG,AFNE01.JPG,AFNE01.JPG,AFNE01.JPG,,,,,,,,,4,9,49,1,,,,,,,,,,,,,,,AMSA19.jpg,AMNE15.jpg,AMSA17.jpg,AMNE07.jpg,AMNE07.jpg,MN,1,num_4,16,num_4,0.566771901096,,,2018_Feb_22_1009,60.0008660028,MAFE4ImagesEEG,001,203061,
AFNE01.JPG,AFNE01.JPG,AFNE01.JPG,AFNE01.JPG,AFNE01.JPG,AFNE01.JPG,,,,,,,,,5,0,50,5,,,,,,,,,,,,,,,AMNE17.jpg,AMSA01.jpg,AMNE18.jpg,AMSA06.jpg,AMNE17.jpg,MN,1,num_8,16,num_8,0.650138029945,,,2018_Feb_22_1009,60.0008660028,MAFE4ImagesEEG,001,203061,
AFNE01.JPG,AFNE01.JPG,AFNE01.JPG,AFNE01.JPG,AFNE01.JPG,AFNE01.JPG,,,,,,,,,5,1,51,3,,,,,,,,,,,,,,,AMSA13.jpg,AMNE01.jpg,AMSA07.jpg,AMNE04.jpg,AMNE01.jpg,MN,1,num_6,32,num_8,0.866813180153,,,2018_Feb_22_1009,60.0008660028,MAFE4ImagesEEG,001,203061,
AFNE01.JPG,AFNE01.JPG,AFNE01.JPG,AFNE01.JPG,AFNE01.JPG,AFNE01.JPG,,,,,,,,,5,2,52,7,,,,,,,,,,,,,,,AMNE10.jpg,AMSA08.jpg,AMNE07.jpg,AMSA15.jpg,AMNE10.jpg,MN,1,num_8,32,num_2,1.35007878946,,,2018_Feb_22_1009,60.0008660028,MAFE4ImagesEEG,001,203061,
AFNE01.JPG,AFNE01.JPG,AFNE01.JPG,AFNE01.JPG,AFNE01.JPG,AFNE01.JPG,,,,,,,,,5,3,53,1,,,,,,,,,,,,,,,AMSA09.jpg,AMSA02.jpg,AMNE11.jpg,AMNE15.jpg,AMNE11.jpg,MN,1,num_2,32,num_4,0.616797544179,,,2018_Feb_22_1009,60.0008660028,MAFE4ImagesEEG,001,203061,
AFNE01.JPG,AFNE01.JPG,AFNE01.JPG,AFNE01.JPG,AFNE01.JPG,AFNE01.JPG,,,,,,,,,5,4,54,6,,,,,,,,,,,,,,,AMSA06.jpg,AMNE18.jpg,AMSA19.jpg,AMNE06.jpg,AMNE18.jpg,MN,1,num_6,16,num_6,2.83329853317,,,2018_Feb_22_1009,60.0008660028,MAFE4ImagesEEG,001,203061,
AFNE01.JPG,AFNE01.JPG,AFNE01.JPG,AFNE01.JPG,AFNE01.JPG,AFNE01.JPG,,,,,,,,,5,5,55,2,,,,,,,,,,,,,,,AMNE12.jpg,AMSA13.jpg,AMSA15.jpg,AMNE10.jpg,AMSA13.jpg,MS,2,num_6,32,num_2,0.616795298993,,,2018_Feb_22_1009,60.0008660028,MAFE4ImagesEEG,001,203061,
AFNE01.JPG,AFNE01.JPG,AFNE01.JPG,AFNE01.JPG,AFNE01.JPG,AFNE01.JPG,,,,,,,,,5,6,56,4,,,,,,,,,,,,,,,AMSA19.jpg,AMSA10.jpg,AMNE09.jpg,AMNE08.jpg,AMNE09.jpg,MN,1,num_2,32,num_8,1.18342928239,,,2018_Feb_22_1009,60.0008660028,MAFE4ImagesEEG,001,203061,
AFNE01.JPG,AFNE01.JPG,AFNE01.JPG,AFNE01.JPG,AFNE01.JPG,AFNE01.JPG,,,,,,,,,5,7,57,9,,,,,,,,,,,,,,,AMSA13.jpg,AMNE06.jpg,AMNE14.jpg,AMSA17.jpg,AMNE14.jpg,MN,1,num_2,16,num_2,1.08345497359,,,2018_Feb_22_1009,60.0008660028,MAFE4ImagesEEG,001,203061,
AFNE01.JPG,AFNE01.JPG,AFNE01.JPG,AFNE01.JPG,AFNE01.JPG,AFNE01.JPG,,,,,,,,,5,8,58,8,,,,,,,,,,,,,,,AMSA12.jpg,AMNE05.jpg,AMSA13.jpg,AMNE19.jpg,AMNE05.jpg,MN,1,num_6,16,num_6,0.616776375391,,,2018_Feb_22_1009,60.0008660028,MAFE4ImagesEEG,001,203061,
AFNE01.JPG,AFNE01.JPG,AFNE01.JPG,AFNE01.JPG,AFNE01.JPG,AFNE01.JPG,,,,,,,,,5,9,59,0,,,,,,,,,,,,,,,AMNE02.jpg,AMNE13.jpg,AMSA15.jpg,AMSA11.jpg,AMNE13.jpg,MN,1,num_6,32,num_8,2.74972264108,,,2018_Feb_22_1009,60.0008660028,MAFE4ImagesEEG,001,203061,
,,,,,,,,,,,,,,,,,,,,,,,,,,,,,,,,,,,,,,,,,,,space,20.6322029533,2018_Feb_22_1009,60.0008660028,MAFE4ImagesEEG,001,203061,
AFNE01.JPG,AFNE01.JPG,AFNE01.JPG,AFNE01.JPG,AFNE01.JPG,AFNE01.JPG,,,,,,,,,,,,,0,0,0,9,,,,,,,,,,,AFNE18.jpg,AFSA10.jpg,AFSA19.jpg,AFNE02.jpg,AFNE18.jpg,FN,3,num_8,16,num_8,0.716819001595,,,2018_Feb_22_1009,60.0008660028,MAFE4ImagesEEG,001,203061,
AFNE01.JPG,AFNE01.JPG,AFNE01.JPG,AFNE01.JPG,AFNE01.JPG,AFNE01.JPG,,,,,,,,,,,,,0,1,1,7,,,,,,,,,,,AFNE11.jpg,AFSA03.jpg,AFSA02.jpg,AFNE14.jpg,AFNE11.jpg,FN,3,num_8,32,num_6,1.20022605674,,,2018_Feb_22_1009,60.0008660028,MAFE4ImagesEEG,001,203061,
AFNE01.JPG,AFNE01.JPG,AFNE01.JPG,AFNE01.JPG,AFNE01.JPG,AFNE01.JPG,,,,,,,,,,,,,0,2,2,2,,,,,,,,,,,AFSA09.jpg,AFNE20.jpg,AFNE18.jpg,AFSA16.jpg,AFSA16.jpg,FS,4,num_4,32,num_2,0.783485539956,,,2018_Feb_22_1009,60.0008660028,MAFE4ImagesEEG,001,203061,
AFNE01.JPG,AFNE01.JPG,AFNE01.JPG,AFNE01.JPG,AFNE01.JPG,AFNE01.JPG,,,,,,,,,,,,,0,3,3,6,,,,,,,,,,,AFSA06.jpg,AFSA09.jpg,AFNE01.jpg,AFNE11.jpg,AFNE01.jpg,FN,3,num_2,32,num_6,0.916711810627,,,2018_Feb_22_1009,60.0008660028,MAFE4ImagesEEG,001,203061,
AFNE01.JPG,AFNE01.JPG,AFNE01.JPG,AFNE01.JPG,AFNE01.JPG,AFNE01.JPG,,,,,,,,,,,,,0,4,4,1,,,,,,,,,,,AFNE17.jpg,AFSA12.jpg,AFNE14.jpg,AFSA07.jpg,AFNE14.jpg,FN,3,num_2,16,num_2,0.866837877082,,,2018_Feb_22_1009,60.0008660028,MAFE4ImagesEEG,001,203061,
AFNE01.JPG,AFNE01.JPG,AFNE01.JPG,AFNE01.JPG,AFNE01.JPG,AFNE01.JPG,,,,,,,,,,,,,0,5,5,3,,,,,,,,,,,AFSA20.jpg,AFNE01.jpg,AFSA04.jpg,AFNE10.jpg,AFNE01.jpg,FN,3,num_6,32,num_4,0.616820958094,,,2018_Feb_22_1009,60.0008660028,MAFE4ImagesEEG,001,203061,
AFNE01.JPG,AFNE01.JPG,AFNE01.JPG,AFNE01.JPG,AFNE01.JPG,AFNE01.JPG,,,,,,,,,,,,,0,6,6,0,,,,,,,,,,,AFNE20.jpg,AFSA01.jpg,AFSA09.jpg,AFNE06.jpg,AFNE20.jpg,FN,3,num_8,32,num_6,0.866810614301,,,2018_Feb_22_1009,60.0008660028,MAFE4ImagesEEG,001,203061,
AFNE01.JPG,AFNE01.JPG,AFNE01.JPG,AFNE01.JPG,AFNE01.JPG,AFNE01.JPG,,,,,,,,,,,,,0,7,7,5,,,,,,,,,,,AFSA19.jpg,AFNE01.jpg,AFSA12.jpg,AFNE14.jpg,AFSA19.jpg,FS,4,num_8,32,num_6,1.15009906021,,,2018_Feb_22_1009,60.0008660028,MAFE4ImagesEEG,001,203061,
AFNE01.JPG,AFNE01.JPG,AFNE01.JPG,AFNE01.JPG,AFNE01.JPG,AFNE01.JPG,,,,,,,,,,,,,0,8,8,4,,,,,,,,,,,AFNE12.jpg,AFSA07.jpg,AFNE09.jpg,AFSA12.jpg,AFSA07.jpg,FS,4,num_6,32,num_2,0.916647662874,,,2018_Feb_22_1009,60.0008660028,MAFE4ImagesEEG,001,203061,
AFNE01.JPG,AFNE01.JPG,AFNE01.JPG,AFNE01.JPG,AFNE01.JPG,AFNE01.JPG,,,,,,,,,,,,,0,9,9,8,,,,,,,,,,,AFNE16.jpg,AFSA20.jpg,AFNE12.jpg,AFSA14.jpg,AFNE16.jpg,FN,3,num_8,32,num_4,0.766892114014,,,2018_Feb_22_1009,60.0008660028,MAFE4ImagesEEG,001,203061,
AFNE01.JPG,AFNE01.JPG,AFNE01.JPG,AFNE01.JPG,AFNE01.JPG,AFNE01.JPG,,,,,,,,,,,,,1,0,10,5,,,,,,,,,,,AFNE20.jpg,AFNE15.jpg,AFSA05.jpg,AFSA20.jpg,AFSA05.jpg,FS,4,num_2,16,num_2,0.783345697797,,,2018_Feb_22_1009,60.0008660028,MAFE4ImagesEEG,001,203061,
AFNE01.JPG,AFNE01.JPG,AFNE01.JPG,AFNE01.JPG,AFNE01.JPG,AFNE01.JPG,,,,,,,,,,,,,1,1,11,8,,,,,,,,,,,AFNE14.jpg,AFSA17.jpg,AFSA11.jpg,AFNE20.jpg,AFSA11.jpg,FS,4,num_2,32,num_6,0.883473640541,,,2018_Feb_22_1009,60.0008660028,MAFE4ImagesEEG,001,203061,
AFNE01.JPG,AFNE01.JPG,AFNE01.JPG,AFNE01.JPG,AFNE01.JPG,AFNE01.JPG,,,,,,,,,,,,,1,2,12,3,,,,,,,,,,,AFNE02.jpg,AFSA14.jpg,AFNE04.jpg,AFSA18.jpg,AFSA18.jpg,FS,4,num_4,32,num_6,1.4500595131,,,2018_Feb_22_1009,60.0008660028,MAFE4ImagesEEG,001,203061,
AFNE01.JPG,AFNE01.JPG,AFNE01.JPG,AFNE01.JPG,AFNE01.JPG,AFNE01.JPG,,,,,,,,,,,,,1,3,13,9,,,,,,,,,,,AFNE17.jpg,AFNE05.jpg,AFSA19.jpg,AFSA02.jpg,AFNE17.jpg,FN,3,num_8,32,num_6,0.883510204789,,,2018_Feb_22_1009,60.0008660028,MAFE4ImagesEEG,001,203061,
AFNE01.JPG,AFNE01.JPG,AFNE01.JPG,AFNE01.JPG,AFNE01.JPG,AFNE01.JPG,,,,,,,,,,,,,1,4,14,6,,,,,,,,,,,AFSA14.jpg,AFNE19.jpg,AFSA01.jpg,AFNE11.jpg,AFSA01.jpg,FS,4,num_2,32,num_8,0.566816804523,,,2018_Feb_22_1009,60.0008660028,MAFE4ImagesEEG,001,203061,
AFNE01.JPG,AFNE01.JPG,AFNE01.JPG,AFNE01.JPG,AFNE01.JPG,AFNE01.JPG,,,,,,,,,,,,,1,5,15,7,,,,,,,,,,,AFNE03.jpg,AFSA02.jpg,AFSA07.jpg,AFNE02.jpg,AFSA07.jpg,FS,4,num_2,16,num_2,0.833453129337,,,2018_Feb_22_1009,60.0008660028,MAFE4ImagesEEG,001,203061,
AFNE01.JPG,AFNE01.JPG,AFNE01.JPG,AFNE01.JPG,AFNE01.JPG,AFNE01.JPG,,,,,,,,,,,,,1,6,16,2,,,,,,,,,,,AFSA02.jpg,AFSA13.jpg,AFNE19.jpg,AFNE04.jpg,AFNE04.jpg,FN,3,num_4,16,num_4,0.583462510898,,,2018_Feb_22_1009,60.0008660028,MAFE4ImagesEEG,001,203061,
AFNE01.JPG,AFNE01.JPG,AFNE01.JPG,AFNE01.JPG,AFNE01.JPG,AFNE01.JPG,,,,,,,,,,,,,1,7,17,1,,,,,,,,,,,AFNE20.jpg,AFSA09.jpg,AFNE19.jpg,AFSA04.jpg,AFNE19.jpg,FN,3,num_2,32,num_6,0.733535270556,,,2018_Feb_22_1009,60.0008660028,MAFE4ImagesEEG,001,203061,
AFNE01.JPG,AFNE01.JPG,AFNE01.JPG,AFNE01.JPG,AFNE01.JPG,AFNE01.JPG,,,,,,,,,,,,,1,8,18,0,,,,,,,,,,,AFSA12.jpg,AFNE06.jpg,AFNE08.jpg,AFSA08.jpg,AFSA08.jpg,FS,4,num_4,16,num_4,0.400140034617,,,2018_Feb_22_1009,60.0008660028,MAFE4ImagesEEG,001,203061,
AFNE01.JPG,AFNE01.JPG,AFNE01.JPG,AFNE01.JPG,AFNE01.JPG,AFNE01.JPG,,,,,,,,,,,,,1,9,19,4,,,,,,,,,,,AFSA01.jpg,AFNE08.jpg,AFSA10.jpg,AFNE03.jpg,AFSA01.jpg,FS,4,num_8,16,num_8,0.500142889214,,,2018_Feb_22_1009,60.0008660028,MAFE4ImagesEEG,001,203061,
AFNE01.JPG,AFNE01.JPG,AFNE01.JPG,AFNE01.JPG,AFNE01.JPG,AFNE01.JPG,,,,,,,,,,,,,2,0,20,2,,,,,,,,,,,AFNE09.jpg,AFSA20.jpg,AFNE01.jpg,AFSA16.jpg,AFSA20.jpg,FS,4,num_6,16,num_6,0.516596152273,,,2018_Feb_22_1009,60.0008660028,MAFE4ImagesEEG,001,203061,
AFNE01.JPG,AFNE01.JPG,AFNE01.JPG,AFNE01.JPG,AFNE01.JPG,AFNE01.JPG,,,,,,,,,,,,,2,1,21,6,,,,,,,,,,,AFSA19.jpg,AFNE15.jpg,AFSA11.jpg,AFNE09.jpg,AFNE15.jpg,FN,3,num_6,16,num_6,0.683443875983,,,2018_Feb_22_1009,60.0008660028,MAFE4ImagesEEG,001,203061,
AFNE01.JPG,AFNE01.JPG,AFNE01.JPG,AFNE01.JPG,AFNE01.JPG,AFNE01.JPG,,,,,,,,,,,,,2,2,22,7,,,,,,,,,,,AFSA11.jpg,AFSA12.jpg,AFNE17.jpg,AFNE19.jpg,AFNE17.jpg,FN,3,num_2,16,num_2,0.866768597509,,,2018_Feb_22_1009,60.0008660028,MAFE4ImagesEEG,001,203061,
AFNE01.JPG,AFNE01.JPG,AFNE01.JPG,AFNE01.JPG,AFNE01.JPG,AFNE01.JPG,,,,,,,,,,,,,2,3,23,0,,,,,,,,,,,AFSA19.jpg,AFSA20.jpg,AFNE20.jpg,AFNE16.jpg,AFNE16.jpg,FN,3,num_4,32,num_8,0.550167249283,,,2018_Feb_22_1009,60.0008660028,MAFE4ImagesEEG,001,203061,
AFNE01.JPG,AFNE01.JPG,AFNE01.JPG,AFNE01.JPG,AFNE01.JPG,AFNE01.JPG,,,,,,,,,,,,,2,4,24,4,,,,,,,,,,,AFSA18.jpg,AFSA08.jpg,AFNE20.jpg,AFNE02.jpg,AFSA08.jpg,FS,4,num_6,32,num_2,1.2500964622,,,2018_Feb_22_1009,60.0008660028,MAFE4ImagesEEG,001,203061,
AFNE01.JPG,AFNE01.JPG,AFNE01.JPG,AFNE01.JPG,AFNE01.JPG,AFNE01.JPG,,,,,,,,,,,,,2,5,25,9,,,,,,,,,,,AFNE08.jpg,AFNE13.jpg,AFSA07.jpg,AFSA12.jpg,AFSA12.jpg,FS,4,num_4,16,num_4,0.450213788543,,,2018_Feb_22_1009,60.0008660028,MAFE4ImagesEEG,001,203061,
AFNE01.JPG,AFNE01.JPG,AFNE01.JPG,AFNE01.JPG,AFNE01.JPG,AFNE01.JPG,,,,,,,,,,,,,2,6,26,3,,,,,,,,,,,AFSA20.jpg,AFNE03.jpg,AFSA18.jpg,AFNE02.jpg,AFSA20.jpg,FS,4,num_8,48,None,,,,2018_Feb_22_1009,60.0008660028,MAFE4ImagesEEG,001,203061,
AFNE01.JPG,AFNE01.JPG,AFNE01.JPG,AFNE01.JPG,AFNE01.JPG,AFNE01.JPG,,,,,,,,,,,,,2,7,27,5,,,,,,,,,,,AFNE04.jpg,AFNE13.jpg,AFSA03.jpg,AFSA02.jpg,AFSA02.jpg,FS,4,num_4,32,num_8,0.833515031904,,,2018_Feb_22_1009,60.0008660028,MAFE4ImagesEEG,001,203061,
AFNE01.JPG,AFNE01.JPG,AFNE01.JPG,AFNE01.JPG,AFNE01.JPG,AFNE01.JPG,,,,,,,,,,,,,2,8,28,8,,,,,,,,,,,AFSA16.jpg,AFSA03.jpg,AFNE02.jpg,AFNE17.jpg,AFSA03.jpg,FS,4,num_6,32,num_4,0.850132192485,,,2018_Feb_22_1009,60.0008660028,MAFE4ImagesEEG,001,203061,
AFNE01.JPG,AFNE01.JPG,AFNE01.JPG,AFNE01.JPG,AFNE01.JPG,AFNE01.JPG,,,,,,,,,,,,,2,9,29,1,,,,,,,,,,,AFSA01.jpg,AFSA09.jpg,AFNE08.jpg,AFNE16.jpg,AFSA09.jpg,FS,4,num_6,32,num_2,0.766781138373,,,2018_Feb_22_1009,60.0008660028,MAFE4ImagesEEG,001,203061,
AFNE01.JPG,AFNE01.JPG,AFNE01.JPG,AFNE01.JPG,AFNE01.JPG,AFNE01.JPG,,,,,,,,,,,,,3,0,30,6,,,,,,,,,,,AFNE12.jpg,AFSA03.jpg,AFSA19.jpg,AFNE11.jpg,AFSA03.jpg,FS,4,num_6,16,num_6,1.03353228769,,,2018_Feb_22_1009,60.0008660028,MAFE4ImagesEEG,001,203061,
AFNE01.JPG,AFNE01.JPG,AFNE01.JPG,AFNE01.JPG,AFNE01.JPG,AFNE01.JPG,,,,,,,,,,,,,3,1,31,8,,,,,,,,,,,AFSA04.jpg,AFSA18.jpg,AFNE19.jpg,AFNE09.jpg,AFNE19.jpg,FN,3,num_2,32,num_4,0.30019010196,,,2018_Feb_22_1009,60.0008660028,MAFE4ImagesEEG,001,203061,
AFNE01.JPG,AFNE01.JPG,AFNE01.JPG,AFNE01.JPG,AFNE01.JPG,AFNE01.JPG,,,,,,,,,,,,,3,2,32,4,,,,,,,,,,,AFSA20.jpg,AFNE04.jpg,AFNE15.jpg,AFSA04.jpg,AFNE04.jpg,FN,3,num_6,16,num_6,0.60020347673,,,2018_Feb_22_1009,60.0008660028,MAFE4ImagesEEG,001,203061,
AFNE01.JPG,AFNE01.JPG,AFNE01.JPG,AFNE01.JPG,AFNE01.JPG,AFNE01.JPG,,,,,,,,,,,,,3,3,33,2,,,,,,,,,,,AFSA18.jpg,AFNE13.jpg,AFSA15.jpg,AFNE03.jpg,AFNE03.jpg,FN,3,num_4,16,num_4,0.750165902195,,,2018_Feb_22_1009,60.0008660028,MAFE4ImagesEEG,001,203061,
AFNE01.JPG,AFNE01.JPG,AFNE01.JPG,AFNE01.JPG,AFNE01.JPG,AFNE01.JPG,,,,,,,,,,,,,3,4,34,0,,,,,,,,,,,AFSA08.jpg,AFNE03.jpg,AFSA03.jpg,AFNE04.jpg,AFNE03.jpg,FN,3,num_6,16,num_6,0.700167842617,,,2018_Feb_22_1009,60.0008660028,MAFE4ImagesEEG,001,203061,
AFNE01.JPG,AFNE01.JPG,AFNE01.JPG,AFNE01.JPG,AFNE01.JPG,AFNE01.JPG,,,,,,,,,,,,,3,5,35,3,,,,,,,,,,,AFNE02.jpg,AFSA16.jpg,AFSA14.jpg,AFNE03.jpg,AFSA16.jpg,FS,4,num_6,16,num_6,1.16675791686,,,2018_Feb_22_1009,60.0008660028,MAFE4ImagesEEG,001,203061,
AFNE01.JPG,AFNE01.JPG,AFNE01.JPG,AFNE01.JPG,AFNE01.JPG,AFNE01.JPG,,,,,,,,,,,,,3,6,36,1,,,,,,,,,,,AFNE01.jpg,AFNE13.jpg,AFSA14.jpg,AFSA13.jpg,AFSA13.jpg,FS,4,num_4,32,num_8,0.866825047473,,,2018_Feb_22_1009,60.0008660028,MAFE4ImagesEEG,001,203061,
AFNE01.JPG,AFNE01.JPG,AFNE01.JPG,AFNE01.JPG,AFNE01.JPG,AFNE01.JPG,,,,,,,,,,,,,3,7,37,9,,,,,,,,,,,AFSA10.jpg,AFSA07.jpg,AFNE10.jpg,AFNE12.jpg,AFNE12.jpg,FN,3,num_4,32,num_2,0.766791081289,,,2018_Feb_22_1009,60.0008660028,MAFE4ImagesEEG,001,203061,
AFNE01.JPG,AFNE01.JPG,AFNE01.JPG,AFNE01.JPG,AFNE01.JPG,AFNE01.JPG,,,,,,,,,,,,,3,8,38,5,,,,,,,,,,,AFSA12.jpg,AFNE10.jpg,AFSA18.jpg,AFNE05.jpg,AFNE05.jpg,FN,3,num_4,32,num_6,0.766817702621,,,2018_Feb_22_1009,60.0008660028,MAFE4ImagesEEG,001,203061,
AFNE01.JPG,AFNE01.JPG,AFNE01.JPG,AFNE01.JPG,AFNE01.JPG,AFNE01.JPG,,,,,,,,,,,,,3,9,39,7,,,,,,,,,,,AFSA01.jpg,AFNE13.jpg,AFSA13.jpg,AFNE06.jpg,AFNE13.jpg,FN,3,num_6,32,num_8,0.916792316129,,,2018_Feb_22_1009,60.0008660028,MAFE4ImagesEEG,001,203061,
AFNE01.JPG,AFNE01.JPG,AFNE01.JPG,AFNE01.JPG,AFNE01.JPG,AFNE01.JPG,,,,,,,,,,,,,4,0,40,1,,,,,,,,,,,AFSA02.jpg,AFNE20.jpg,AFNE12.jpg,AFSA04.jpg,AFSA04.jpg,FS,4,num_4,16,num_4,0.55014896713,,,2018_Feb_22_1009,60.0008660028,MAFE4ImagesEEG,001,203061,
AFNE01.JPG,AFNE01.JPG,AFNE01.JPG,AFNE01.JPG,AFNE01.JPG,AFNE01.JPG,,,,,,,,,,,,,4,1,41,4,,,,,,,,,,,AFSA10.jpg,AFSA04.jpg,AFNE14.jpg,AFNE03.jpg,AFSA10.jpg,FS,4,num_8,32,num_6,0.650107880472,,,2018_Feb_22_1009,60.0008660028,MAFE4ImagesEEG,001,203061,
AFNE01.JPG,AFNE01.JPG,AFNE01.JPG,AFNE01.JPG,AFNE01.JPG,AFNE01.JPG,,,,,,,,,,,,,4,2,42,8,,,,,,,,,,,AFNE04.jpg,AFSA13.jpg,AFSA07.jpg,AFNE11.jpg,AFNE11.jpg,FN,3,num_4,16,num_4,0.749981156609,,,2018_Feb_22_1009,60.0008660028,MAFE4ImagesEEG,001,203061,
AFNE01.JPG,AFNE01.JPG,AFNE01.JPG,AFNE01.JPG,AFNE01.JPG,AFNE01.JPG,,,,,,,,,,,,,4,3,43,7,,,,,,,,,,,AFSA03.jpg,AFSA11.jpg,AFNE16.jpg,AFNE17.jpg,AFNE17.jpg,FN,3,num_4,16,num_4,0.800169735041,,,2018_Feb_22_1009,60.0008660028,MAFE4ImagesEEG,001,203061,
AFNE01.JPG,AFNE01.JPG,AFNE01.JPG,AFNE01.JPG,AFNE01.JPG,AFNE01.JPG,,,,,,,,,,,,,4,4,44,0,,,,,,,,,,,AFNE13.jpg,AFSA17.jpg,AFNE20.jpg,AFSA04.jpg,AFSA04.jpg,FS,4,num_4,16,num_4,0.516888345359,,,2018_Feb_22_1009,60.0008660028,MAFE4ImagesEEG,001,203061,
AFNE01.JPG,AFNE01.JPG,AFNE01.JPG,AFNE01.JPG,AFNE01.JPG,AFNE01.JPG,,,,,,,,,,,,,4,5,45,2,,,,,,,,,,,AFSA10.jpg,AFNE06.jpg,AFSA07.jpg,AFNE18.jpg,AFSA07.jpg,FS,4,num_2,32,num_8,0.816778877168,,,2018_Feb_22_1009,60.0008660028,MAFE4ImagesEEG,001,203061,
AFNE01.JPG,AFNE01.JPG,AFNE01.JPG,AFNE01.JPG,AFNE01.JPG,AFNE01.JPG,,,,,,,,,,,,,4,6,46,9,,,,,,,,,,,AFSA19.jpg,AFSA13.jpg,AFNE06.jpg,AFNE12.jpg,AFSA13.jpg,FS,4,num_6,16,num_6,0.600236192113,,,2018_Feb_22_1009,60.0008660028,MAFE4ImagesEEG,001,203061,
AFNE01.JPG,AFNE01.JPG,AFNE01.JPG,AFNE01.JPG,AFNE01.JPG,AFNE01.JPG,,,,,,,,,,,,,4,7,47,6,,,,,,,,,,,AFSA07.jpg,AFNE15.jpg,AFSA06.jpg,AFNE06.jpg,AFNE06.jpg,FN,3,num_4,32,num_2,0.766769912501,,,2018_Feb_22_1009,60.0008660028,MAFE4ImagesEEG,001,203061,
AFNE01.JPG,AFNE01.JPG,AFNE01.JPG,AFNE01.JPG,AFNE01.JPG,AFNE01.JPG,,,,,,,,,,,,,4,8,48,5,,,,,,,,,,,AFSA09.jpg,AFSA18.jpg,AFNE09.jpg,AFNE10.jpg,AFNE09.jpg,FN,3,num_2,32,num_6,0.750002325396,,,2018_Feb_22_1009,60.0008660028,MAFE4ImagesEEG,001,203061,
AFNE01.JPG,AFNE01.JPG,AFNE01.JPG,AFNE01.JPG,AFNE01.JPG,AFNE01.JPG,,,,,,,,,,,,,4,9,49,3,,,,,,,,,,,AFSA01.jpg,AFNE20.jpg,AFNE15.jpg,AFSA16.jpg,AFSA16.jpg,FS,4,num_4,32,num_8,0.516760370519,,,2018_Feb_22_1009,60.0008660028,MAFE4ImagesEEG,001,203061,
AFNE01.JPG,AFNE01.JPG,AFNE01.JPG,AFNE01.JPG,AFNE01.JPG,AFNE01.JPG,,,,,,,,,,,,,5,0,50,7,,,,,,,,,,,AFSA11.jpg,AFNE13.jpg,AFSA19.jpg,AFNE18.jpg,AFNE18.jpg,FN,3,num_4,16,num_4,0.566794032056,,,2018_Feb_22_1009,60.0008660028,MAFE4ImagesEEG,001,203061,
AFNE01.JPG,AFNE01.JPG,AFNE01.JPG,AFNE01.JPG,AFNE01.JPG,AFNE01.JPG,,,,,,,,,,,,,5,1,51,2,,,,,,,,,,,AFNE14.jpg,AFSA03.jpg,AFNE07.jpg,AFSA01.jpg,AFSA01.jpg,FS,4,num_4,16,num_4,0.749705000431,,,2018_Feb_22_1009,60.0008660028,MAFE4ImagesEEG,001,203061,
AFNE01.JPG,AFNE01.JPG,AFNE01.JPG,AFNE01.JPG,AFNE01.JPG,AFNE01.JPG,,,,,,,,,,,,,5,2,52,5,,,,,,,,,,,AFSA20.jpg,AFNE20.jpg,AFNE11.jpg,AFSA13.jpg,AFNE20.jpg,FN,3,num_6,16,num_6,0.716776984802,,,2018_Feb_22_1009,60.0008660028,MAFE4ImagesEEG,001,203061,
AFNE01.JPG,AFNE01.JPG,AFNE01.JPG,AFNE01.JPG,AFNE01.JPG,AFNE01.JPG,,,,,,,,,,,,,5,3,53,1,,,,,,,,,,,AFSA14.jpg,AFNE04.jpg,AFNE05.jpg,AFSA07.jpg,AFNE05.jpg,FN,3,num_2,32,num_6,1.15009585285,,,2018_Feb_22_1009,60.0008660028,MAFE4ImagesEEG,001,203061,
AFNE01.JPG,AFNE01.JPG,AFNE01.JPG,AFNE01.JPG,AFNE01.JPG,AFNE01.JPG,,,,,,,,,,,,,5,4,54,9,,,,,,,,,,,AFSA04.jpg,AFSA07.jpg,AFNE09.jpg,AFNE17.jpg,AFNE09.jpg,FN,3,num_2,16,num_2,0.866771804867,,,2018_Feb_22_1009,60.0008660028,MAFE4ImagesEEG,001,203061,
AFNE01.JPG,AFNE01.JPG,AFNE01.JPG,AFNE01.JPG,AFNE01.JPG,AFNE01.JPG,,,,,,,,,,,,,5,5,55,8,,,,,,,,,,,AFNE04.jpg,AFSA19.jpg,AFSA05.jpg,AFNE01.jpg,AFNE04.jpg,FN,3,num_8,32,num_6,1.08345497353,,,2018_Feb_22_1009,60.0008660028,MAFE4ImagesEEG,001,203061,
AFNE01.JPG,AFNE01.JPG,AFNE01.JPG,AFNE01.JPG,AFNE01.JPG,AFNE01.JPG,,,,,,,,,,,,,5,6,56,3,,,,,,,,,,,AFNE05.jpg,AFNE10.jpg,AFSA13.jpg,AFSA05.jpg,AFNE05.jpg,FN,3,num_8,32,num_4,0.816772141668,,,2018_Feb_22_1009,60.0008660028,MAFE4ImagesEEG,001,203061,
AFNE01.JPG,AFNE01.JPG,AFNE01.JPG,AFNE01.JPG,AFNE01.JPG,AFNE01.JPG,,,,,,,,,,,,,5,7,57,6,,,,,,,,,,,AFSA09.jpg,AFNE08.jpg,AFNE01.jpg,AFSA01.jpg,AFNE01.jpg,FN,3,num_2,32,num_8,0.950135688588,,,2018_Feb_22_1009,60.0008660028,MAFE4ImagesEEG,001,203061,
AFNE01.JPG,AFNE01.JPG,AFNE01.JPG,AFNE01.JPG,AFNE01.JPG,AFNE01.JPG,,,,,,,,,,,,,5,8,58,4,,,,,,,,,,,AFNE08.jpg,AFSA19.jpg,AFSA06.jpg,AFNE01.jpg,AFSA06.jpg,FS,4,num_2,16,num_2,0.716777947033,,,2018_Feb_22_1009,60.0008660028,MAFE4ImagesEEG,001,203061,
AFNE01.JPG,AFNE01.JPG,AFNE01.JPG,AFNE01.JPG,AFNE01.JPG,AFNE01.JPG,,,,,,,,,,,,,5,9,59,0,,,,,,,,,,,AFSA17.jpg,AFSA20.jpg,AFNE18.jpg,AFNE03.jpg,AFSA20.jpg,FS,4,num_6,16,num_6,1.15015422733,,,2018_Feb_22_1009,60.0008660028,MAFE4ImagesEEG,001,203061,
,,,,,,,,,,,,,,,,,,,,,,,,,,,,,,,,,,,,,,,,,,,space,22.8480922933,2018_Feb_22_1009,60.0008660028,MAFE4ImagesEEG,001,203061,
AFNE01.JPG,AFNE01.JPG,AFNE01.JPG,AFNE01.JPG,AFNE01.JPG,AFNE01.JPG,,,,,,,,,,,,,,,,,0,0,0,3,,,,,,,AMSA06.jpg,AMNE17.jpg,AMSA19.jpg,AMNE11.jpg,AMSA19.jpg,MS,2,num_2,32,num_6,0.600055616116,,,2018_Feb_22_1009,60.0008660028,MAFE4ImagesEEG,001,203061,
AFNE01.JPG,AFNE01.JPG,AFNE01.JPG,AFNE01.JPG,AFNE01.JPG,AFNE01.JPG,,,,,,,,,,,,,,,,,0,1,1,2,,,,,,,AMSA16.jpg,AMNE12.jpg,AMSA11.jpg,AMNE16.jpg,AMSA16.jpg,MS,2,num_8,32,num_4,0.616788884217,,,2018_Feb_22_1009,60.0008660028,MAFE4ImagesEEG,001,203061,
AFNE01.JPG,AFNE01.JPG,AFNE01.JPG,AFNE01.JPG,AFNE01.JPG,AFNE01.JPG,,,,,,,,,,,,,,,,,0,2,2,8,,,,,,,AMSA18.jpg,AMNE15.jpg,AMSA17.jpg,AMNE07.jpg,AMSA18.jpg,MS,2,num_8,32,num_6,0.633417591453,,,2018_Feb_22_1009,60.0008660028,MAFE4ImagesEEG,001,203061,
AFNE01.JPG,AFNE01.JPG,AFNE01.JPG,AFNE01.JPG,AFNE01.JPG,AFNE01.JPG,,,,,,,,,,,,,,,,,0,3,3,7,,,,,,,AMSA17.jpg,AMSA02.jpg,AMNE18.jpg,AMNE20.jpg,AMSA02.jpg,MS,2,num_6,16,num_6,0.45018877089,,,2018_Feb_22_1009,60.0008660028,MAFE4ImagesEEG,001,203061,
AFNE01.JPG,AFNE01.JPG,AFNE01.JPG,AFNE01.JPG,AFNE01.JPG,AFNE01.JPG,,,,,,,,,,,,,,,,,0,4,4,5,,,,,,,AMSA12.jpg,AMSA20.jpg,AMNE10.jpg,AMNE07.jpg,AMNE10.jpg,MN,1,num_2,32,num_4,0.700188369956,,,2018_Feb_22_1009,60.0008660028,MAFE4ImagesEEG,001,203061,
AFNE01.JPG,AFNE01.JPG,AFNE01.JPG,AFNE01.JPG,AFNE01.JPG,AFNE01.JPG,,,,,,,,,,,,,,,,,0,5,5,1,,,,,,,AMNE06.jpg,AMSA06.jpg,AMNE16.jpg,AMSA19.jpg,AMSA19.jpg,MS,2,num_4,32,num_2,0.466824213625,,,2018_Feb_22_1009,60.0008660028,MAFE4ImagesEEG,001,203061,
AFNE01.JPG,AFNE01.JPG,AFNE01.JPG,AFNE01.JPG,AFNE01.JPG,AFNE01.JPG,,,,,,,,,,,,,,,,,0,6,6,4,,,,,,,AMNE11.jpg,AMSA02.jpg,AMSA10.jpg,AMNE13.jpg,AMNE13.jpg,MN,1,num_4,32,num_6,0.783440636529,,,2018_Feb_22_1009,60.0008660028,MAFE4ImagesEEG,001,203061,
AFNE01.JPG,AFNE01.JPG,AFNE01.JPG,AFNE01.JPG,AFNE01.JPG,AFNE01.JPG,,,,,,,,,,,,,,,,,0,7,7,6,,,,,,,AMNE06.jpg,AMSA19.jpg,AMNE18.jpg,AMSA08.jpg,AMSA19.jpg,MS,2,num_6,16,num_6,0.533471828385,,,2018_Feb_22_1009,60.0008660028,MAFE4ImagesEEG,001,203061,
AFNE01.JPG,AFNE01.JPG,AFNE01.JPG,AFNE01.JPG,AFNE01.JPG,AFNE01.JPG,,,,,,,,,,,,,,,,,0,8,8,9,,,,,,,AMSA04.jpg,AMSA07.jpg,AMNE20.jpg,AMNE08.jpg,AMSA07.jpg,MS,2,num_6,16,num_6,0.416787665396,,,2018_Feb_22_1009,60.0008660028,MAFE4ImagesEEG,001,203061,
AFNE01.JPG,AFNE01.JPG,AFNE01.JPG,AFNE01.JPG,AFNE01.JPG,AFNE01.JPG,,,,,,,,,,,,,,,,,0,9,9,0,,,,,,,AMSA14.jpg,AMSA10.jpg,AMNE15.jpg,AMNE07.jpg,AMSA14.jpg,MS,2,num_8,16,num_8,0.683144305833,,,2018_Feb_22_1009,60.0008660028,MAFE4ImagesEEG,001,203061,
AFNE01.JPG,AFNE01.JPG,AFNE01.JPG,AFNE01.JPG,AFNE01.JPG,AFNE01.JPG,,,,,,,,,,,,,,,,,1,0,10,2,,,,,,,AMNE07.jpg,AMSA17.jpg,AMNE13.jpg,AMSA07.jpg,AMNE07.jpg,MN,1,num_8,32,num_2,0.550225303043,,,2018_Feb_22_1009,60.0008660028,MAFE4ImagesEEG,001,203061,
AFNE01.JPG,AFNE01.JPG,AFNE01.JPG,AFNE01.JPG,AFNE01.JPG,AFNE01.JPG,,,,,,,,,,,,,,,,,1,1,11,9,,,,,,,AMNE10.jpg,AMSA09.jpg,AMNE13.jpg,AMSA16.jpg,AMNE10.jpg,MN,1,num_8,32,num_6,0.60009859514,,,2018_Feb_22_1009,60.0008660028,MAFE4ImagesEEG,001,203061,
AFNE01.JPG,AFNE01.JPG,AFNE01.JPG,AFNE01.JPG,AFNE01.JPG,AFNE01.JPG,,,,,,,,,,,,,,,,,1,2,12,7,,,,,,,AMNE07.jpg,AMSA14.jpg,AMSA13.jpg,AMNE19.jpg,AMSA14.jpg,MS,2,num_6,16,num_6,0.550283998251,,,2018_Feb_22_1009,60.0008660028,MAFE4ImagesEEG,001,203061,
AFNE01.JPG,AFNE01.JPG,AFNE01.JPG,AFNE01.JPG,AFNE01.JPG,AFNE01.JPG,,,,,,,,,,,,,,,,,1,3,13,0,,,,,,,AMSA09.jpg,AMNE14.jpg,AMSA12.jpg,AMNE08.jpg,AMSA12.jpg,MS,2,num_2,16,num_2,0.800138302613,,,2018_Feb_22_1009,60.0008660028,MAFE4ImagesEEG,001,203061,
AFNE01.JPG,AFNE01.JPG,AFNE01.JPG,AFNE01.JPG,AFNE01.JPG,AFNE01.JPG,,,,,,,,,,,,,,,,,1,4,14,8,,,,,,,AMNE16.jpg,AMNE14.jpg,AMSA01.jpg,AMSA10.jpg,AMNE14.jpg,MN,1,num_6,16,num_6,0.550092517107,,,2018_Feb_22_1009,60.0008660028,MAFE4ImagesEEG,001,203061,
AFNE01.JPG,AFNE01.JPG,AFNE01.JPG,AFNE01.JPG,AFNE01.JPG,AFNE01.JPG,,,,,,,,,,,,,,,,,1,5,15,4,,,,,,,AMNE03.jpg,AMSA04.jpg,AMNE11.jpg,AMSA08.jpg,AMSA08.jpg,MS,2,num_4,32,num_2,0.700115882966,,,2018_Feb_22_1009,60.0008660028,MAFE4ImagesEEG,001,203061,
AFNE01.JPG,AFNE01.JPG,AFNE01.JPG,AFNE01.JPG,AFNE01.JPG,AFNE01.JPG,,,,,,,,,,,,,,,,,1,6,16,5,,,,,,,AMSA01.jpg,AMNE02.jpg,AMSA13.jpg,AMNE16.jpg,AMSA01.jpg,MS,2,num_8,32,num_6,0.750165260746,,,2018_Feb_22_1009,60.0008660028,MAFE4ImagesEEG,001,203061,
AFNE01.JPG,AFNE01.JPG,AFNE01.JPG,AFNE01.JPG,AFNE01.JPG,AFNE01.JPG,,,,,,,,,,,,,,,,,1,7,17,6,,,,,,,AMSA03.jpg,AMNE18.jpg,AMNE06.jpg,AMSA07.jpg,AMSA03.jpg,MS,2,num_8,32,num_2,0.633505473903,,,2018_Feb_22_1009,60.0008660028,MAFE4ImagesEEG,001,203061,
AFNE01.JPG,AFNE01.JPG,AFNE01.JPG,AFNE01.JPG,AFNE01.JPG,AFNE01.JPG,,,,,,,,,,,,,,,,,1,8,18,3,,,,,,,AMNE19.jpg,AMSA01.jpg,AMNE10.jpg,AMSA15.jpg,AMNE19.jpg,MN,1,num_8,16,num_8,0.500213130959,,,2018_Feb_22_1009,60.0008660028,MAFE4ImagesEEG,001,203061,
AFNE01.JPG,AFNE01.JPG,AFNE01.JPG,AFNE01.JPG,AFNE01.JPG,AFNE01.JPG,,,,,,,,,,,,,,,,,1,9,19,1,,,,,,,AMSA12.jpg,AMNE01.jpg,AMSA10.jpg,AMNE07.jpg,AMSA10.jpg,MS,2,num_2,32,num_8,0.700186445552,,,2018_Feb_22_1009,60.0008660028,MAFE4ImagesEEG,001,203061,
AFNE01.JPG,AFNE01.JPG,AFNE01.JPG,AFNE01.JPG,AFNE01.JPG,AFNE01.JPG,,,,,,,,,,,,,,,,,2,0,20,0,,,,,,,AMNE13.jpg,AMSA13.jpg,AMSA11.jpg,AMNE05.jpg,AMSA11.jpg,MS,2,num_2,16,num_2,0.816786254174,,,2018_Feb_22_1009,60.0008660028,MAFE4ImagesEEG,001,203061,
AFNE01.JPG,AFNE01.JPG,AFNE01.JPG,AFNE01.JPG,AFNE01.JPG,AFNE01.JPG,,,,,,,,,,,,,,,,,2,1,21,4,,,,,,,AMSA03.jpg,AMNE14.jpg,AMNE15.jpg,AMSA02.jpg,AMSA02.jpg,MS,2,num_4,16,num_4,0.549935996532,,,2018_Feb_22_1009,60.0008660028,MAFE4ImagesEEG,001,203061,
AFNE01.JPG,AFNE01.JPG,AFNE01.JPG,AFNE01.JPG,AFNE01.JPG,AFNE01.JPG,,,,,,,,,,,,,,,,,2,2,22,7,,,,,,,AMSA01.jpg,AMNE15.jpg,AMNE09.jpg,AMSA16.jpg,AMSA16.jpg,MS,2,num_4,32,num_2,0.849984011147,,,2018_Feb_22_1009,60.0008660028,MAFE4ImagesEEG,001,203061,
AFNE01.JPG,AFNE01.JPG,AFNE01.JPG,AFNE01.JPG,AFNE01.JPG,AFNE01.JPG,,,,,,,,,,,,,,,,,2,3,23,2,,,,,,,AMNE17.jpg,AMNE07.jpg,AMSA14.jpg,AMSA10.jpg,AMSA10.jpg,MS,2,num_4,32,num_6,0.783446409798,,,2018_Feb_22_1009,60.0008660028,MAFE4ImagesEEG,001,203061,
AFNE01.JPG,AFNE01.JPG,AFNE01.JPG,AFNE01.JPG,AFNE01.JPG,AFNE01.JPG,,,,,,,,,,,,,,,,,2,4,24,3,,,,,,,AMNE11.jpg,AMSA08.jpg,AMSA19.jpg,AMNE12.jpg,AMSA08.jpg,MS,2,num_6,16,num_6,1.13341646886,,,2018_Feb_22_1009,60.0008660028,MAFE4ImagesEEG,001,203061,
AFNE01.JPG,AFNE01.JPG,AFNE01.JPG,AFNE01.JPG,AFNE01.JPG,AFNE01.JPG,,,,,,,,,,,,,,,,,2,5,25,9,,,,,,,AMNE17.jpg,AMSA03.jpg,AMNE01.jpg,AMSA13.jpg,AMNE01.jpg,MN,1,num_2,16,num_2,0.950150442601,,,2018_Feb_22_1009,60.0008660028,MAFE4ImagesEEG,001,203061,
AFNE01.JPG,AFNE01.JPG,AFNE01.JPG,AFNE01.JPG,AFNE01.JPG,AFNE01.JPG,,,,,,,,,,,,,,,,,2,6,26,1,,,,,,,AMSA12.jpg,AMSA15.jpg,AMNE01.jpg,AMNE18.jpg,AMNE18.jpg,MN,1,num_4,32,num_6,1.11672489683,,,2018_Feb_22_1009,60.0008660028,MAFE4ImagesEEG,001,203061,
AFNE01.JPG,AFNE01.JPG,AFNE01.JPG,AFNE01.JPG,AFNE01.JPG,AFNE01.JPG,,,,,,,,,,,,,,,,,2,7,27,8,,,,,,,AMNE03.jpg,AMSA01.jpg,AMNE01.jpg,AMSA08.jpg,AMNE03.jpg,MN,1,num_8,32,num_4,1.15010483348,,,2018_Feb_22_1009,60.0008660028,MAFE4ImagesEEG,001,203061,
AFNE01.JPG,AFNE01.JPG,AFNE01.JPG,AFNE01.JPG,AFNE01.JPG,AFNE01.JPG,,,,,,,,,,,,,,,,,2,8,28,6,,,,,,,AMSA10.jpg,AMNE12.jpg,AMSA08.jpg,AMNE14.jpg,AMNE14.jpg,MN,1,num_4,16,num_4,0.750114583992,,,2018_Feb_22_1009,60.0008660028,MAFE4ImagesEEG,001,203061,
AFNE01.JPG,AFNE01.JPG,AFNE01.JPG,AFNE01.JPG,AFNE01.JPG,AFNE01.JPG,,,,,,,,,,,,,,,,,2,9,29,5,,,,,,,AMNE06.jpg,AMSA14.jpg,AMSA08.jpg,AMNE11.jpg,AMSA14.jpg,MS,2,num_6,16,num_6,0.600122971286,,,2018_Feb_22_1009,60.0008660028,MAFE4ImagesEEG,001,203061,
AFNE01.JPG,AFNE01.JPG,AFNE01.JPG,AFNE01.JPG,AFNE01.JPG,AFNE01.JPG,,,,,,,,,,,,,,,,,3,0,30,2,,,,,,,AMNE08.jpg,AMSA06.jpg,AMNE16.jpg,AMSA03.jpg,AMSA06.jpg,MS,2,num_6,32,num_2,0.633478211064,,,2018_Feb_22_1009,60.0008660028,MAFE4ImagesEEG,001,203061,
AFNE01.JPG,AFNE01.JPG,AFNE01.JPG,AFNE01.JPG,AFNE01.JPG,AFNE01.JPG,,,,,,,,,,,,,,,,,3,1,31,8,,,,,,,AMSA04.jpg,AMNE10.jpg,AMSA19.jpg,AMNE20.jpg,AMSA04.jpg,MS,2,num_8,16,num_8,0.516801745864,,,2018_Feb_22_1009,60.0008660028,MAFE4ImagesEEG,001,203061,
AFNE01.JPG,AFNE01.JPG,AFNE01.JPG,AFNE01.JPG,AFNE01.JPG,AFNE01.JPG,,,,,,,,,,,,,,,,,3,2,32,6,,,,,,,AMNE11.jpg,AMSA13.jpg,AMSA11.jpg,AMNE19.jpg,AMNE19.jpg,MN,1,num_4,32,num_6,0.883466263535,,,2018_Feb_22_1009,60.0008660028,MAFE4ImagesEEG,001,203061,
AFNE01.JPG,AFNE01.JPG,AFNE01.JPG,AFNE01.JPG,AFNE01.JPG,AFNE01.JPG,,,,,,,,,,,,,,,,,3,3,33,3,,,,,,,AMSA04.jpg,AMSA13.jpg,AMNE01.jpg,AMNE05.jpg,AMNE05.jpg,MN,1,num_4,32,num_6,0.533492034941,,,2018_Feb_22_1009,60.0008660028,MAFE4ImagesEEG,001,203061,
AFNE01.JPG,AFNE01.JPG,AFNE01.JPG,AFNE01.JPG,AFNE01.JPG,AFNE01.JPG,,,,,,,,,,,,,,,,,3,4,34,4,,,,,,,AMSA01.jpg,AMNE14.jpg,AMSA08.jpg,AMNE05.jpg,AMSA08.jpg,MS,2,num_2,16,num_2,0.866812538705,,,2018_Feb_22_1009,60.0008660028,MAFE4ImagesEEG,001,203061,
AFNE01.JPG,AFNE01.JPG,AFNE01.JPG,AFNE01.JPG,AFNE01.JPG,AFNE01.JPG,,,,,,,,,,,,,,,,,3,5,35,7,,,,,,,AMSA12.jpg,AMSA14.jpg,AMNE08.jpg,AMNE04.jpg,AMNE08.jpg,MN,1,num_2,32,num_8,0.816800687404,,,2018_Feb_22_1009,60.0008660028,MAFE4ImagesEEG,001,203061,
AFNE01.JPG,AFNE01.JPG,AFNE01.JPG,AFNE01.JPG,AFNE01.JPG,AFNE01.JPG,,,,,,,,,,,,,,,,,3,6,36,0,,,,,,,AMNE04.jpg,AMNE02.jpg,AMSA05.jpg,AMSA14.jpg,AMNE04.jpg,MN,1,num_8,32,num_4,0.916631305183,,,2018_Feb_22_1009,60.0008660028,MAFE4ImagesEEG,001,203061,
AFNE01.JPG,AFNE01.JPG,AFNE01.JPG,AFNE01.JPG,AFNE01.JPG,AFNE01.JPG,,,,,,,,,,,,,,,,,3,7,37,1,,,,,,,AMSA20.jpg,AMNE18.jpg,AMSA01.jpg,AMNE06.jpg,AMSA20.jpg,MS,2,num_8,32,num_4,0.783457314945,,,2018_Feb_22_1009,60.0008660028,MAFE4ImagesEEG,001,203061,
AFNE01.JPG,AFNE01.JPG,AFNE01.JPG,AFNE01.JPG,AFNE01.JPG,AFNE01.JPG,,,,,,,,,,,,,,,,,3,8,38,5,,,,,,,AMSA04.jpg,AMNE11.jpg,AMSA09.jpg,AMNE15.jpg,AMNE15.jpg,MN,1,num_4,32,num_6,0.51681938651,,,2018_Feb_22_1009,60.0008660028,MAFE4ImagesEEG,001,203061,
AFNE01.JPG,AFNE01.JPG,AFNE01.JPG,AFNE01.JPG,AFNE01.JPG,AFNE01.JPG,,,,,,,,,,,,,,,,,3,9,39,9,,,,,,,AMNE17.jpg,AMNE19.jpg,AMSA17.jpg,AMSA18.jpg,AMSA17.jpg,MS,2,num_2,32,num_4,0.900153345254,,,2018_Feb_22_1009,60.0008660028,MAFE4ImagesEEG,001,203061,
AFNE01.JPG,AFNE01.JPG,AFNE01.JPG,AFNE01.JPG,AFNE01.JPG,AFNE01.JPG,,,,,,,,,,,,,,,,,4,0,40,4,,,,,,,AMNE05.jpg,AMSA20.jpg,AMNE09.jpg,AMSA11.jpg,AMNE05.jpg,MN,1,num_8,32,num_2,0.566809748299,,,2018_Feb_22_1009,60.0008660028,MAFE4ImagesEEG,001,203061,
AFNE01.JPG,AFNE01.JPG,AFNE01.JPG,AFNE01.JPG,AFNE01.JPG,AFNE01.JPG,,,,,,,,,,,,,,,,,4,1,41,3,,,,,,,AMNE03.jpg,AMSA10.jpg,AMNE10.jpg,AMSA13.jpg,AMNE10.jpg,MN,1,num_2,32,num_6,0.950136971544,,,2018_Feb_22_1009,60.0008660028,MAFE4ImagesEEG,001,203061,
AFNE01.JPG,AFNE01.JPG,AFNE01.JPG,AFNE01.JPG,AFNE01.JPG,AFNE01.JPG,,,,,,,,,,,,,,,,,4,2,42,8,,,,,,,AMSA07.jpg,AMSA19.jpg,AMNE20.jpg,AMNE15.jpg,AMNE20.jpg,MN,1,num_2,16,num_2,0.666778283776,,,2018_Feb_22_1009,60.0008660028,MAFE4ImagesEEG,001,203061,
AFNE01.JPG,AFNE01.JPG,AFNE01.JPG,AFNE01.JPG,AFNE01.JPG,AFNE01.JPG,,,,,,,,,,,,,,,,,4,3,43,6,,,,,,,AMNE12.jpg,AMSA02.jpg,AMNE09.jpg,AMSA09.jpg,AMNE09.jpg,MN,1,num_2,32,num_4,1.11675921583,,,2018_Feb_22_1009,60.0008660028,MAFE4ImagesEEG,001,203061,
AFNE01.JPG,AFNE01.JPG,AFNE01.JPG,AFNE01.JPG,AFNE01.JPG,AFNE01.JPG,,,,,,,,,,,,,,,,,4,4,44,1,,,,,,,AMNE10.jpg,AMNE06.jpg,AMSA06.jpg,AMSA08.jpg,AMNE10.jpg,MN,1,num_8,16,num_8,1.6998916865,,,2018_Feb_22_1009,60.0008660028,MAFE4ImagesEEG,001,203061,
AFNE01.JPG,AFNE01.JPG,AFNE01.JPG,AFNE01.JPG,AFNE01.JPG,AFNE01.JPG,,,,,,,,,,,,,,,,,4,5,45,5,,,,,,,AMNE14.jpg,AMNE12.jpg,AMSA01.jpg,AMSA13.jpg,AMSA13.jpg,MS,2,num_4,16,num_4,1.31673573778,,,2018_Feb_22_1009,60.0008660028,MAFE4ImagesEEG,001,203061,
AFNE01.JPG,AFNE01.JPG,AFNE01.JPG,AFNE01.JPG,AFNE01.JPG,AFNE01.JPG,,,,,,,,,,,,,,,,,4,6,46,2,,,,,,,AMNE01.jpg,AMNE20.jpg,AMSA09.jpg,AMSA19.jpg,AMNE01.jpg,MN,1,num_8,32,num_2,0.966799997841,,,2018_Feb_22_1009,60.0008660028,MAFE4ImagesEEG,001,203061,
AFNE01.JPG,AFNE01.JPG,AFNE01.JPG,AFNE01.JPG,AFNE01.JPG,AFNE01.JPG,,,,,,,,,,,,,,,,,4,7,47,7,,,,,,,AMSA05.jpg,AMSA13.jpg,AMNE02.jpg,AMNE08.jpg,AMNE02.jpg,MN,1,num_2,32,num_8,0.766716990562,,,2018_Feb_22_1009,60.0008660028,MAFE4ImagesEEG,001,203061,
AFNE01.JPG,AFNE01.JPG,AFNE01.JPG,AFNE01.JPG,AFNE01.JPG,AFNE01.JPG,,,,,,,,,,,,,,,,,4,8,48,0,,,,,,,AMSA12.jpg,AMSA13.jpg,AMNE10.jpg,AMNE07.jpg,AMSA12.jpg,MS,2,num_8,32,num_2,0.766817702563,,,2018_Feb_22_1009,60.0008660028,MAFE4ImagesEEG,001,203061,
AFNE01.JPG,AFNE01.JPG,AFNE01.JPG,AFNE01.JPG,AFNE01.JPG,AFNE01.JPG,,,,,,,,,,,,,,,,,4,9,49,9,,,,,,,AMNE11.jpg,AMNE03.jpg,AMSA19.jpg,AMSA09.jpg,AMNE03.jpg,MN,1,num_6,32,num_8,0.700170729309,,,2018_Feb_22_1009,60.0008660028,MAFE4ImagesEEG,001,203061,
AFNE01.JPG,AFNE01.JPG,AFNE01.JPG,AFNE01.JPG,AFNE01.JPG,AFNE01.JPG,,,,,,,,,,,,,,,,,5,0,50,6,,,,,,,AMSA07.jpg,AMNE18.jpg,AMSA05.jpg,AMNE06.jpg,AMNE18.jpg,MN,1,num_6,32,num_4,0.71682124678,,,2018_Feb_22_1009,60.0008660028,MAFE4ImagesEEG,001,203061,
AFNE01.JPG,AFNE01.JPG,AFNE01.JPG,AFNE01.JPG,AFNE01.JPG,AFNE01.JPG,,,,,,,,,,,,,,,,,5,1,51,8,,,,,,,AMNE04.jpg,AMSA08.jpg,AMNE19.jpg,AMSA14.jpg,AMSA14.jpg,MS,2,num_4,16,num_4,0.950115802814,,,2018_Feb_22_1009,60.0008660028,MAFE4ImagesEEG,001,203061,
AFNE01.JPG,AFNE01.JPG,AFNE01.JPG,AFNE01.JPG,AFNE01.JPG,AFNE01.JPG,,,,,,,,,,,,,,,,,5,2,52,4,,,,,,,AMSA19.jpg,AMNE07.jpg,AMNE20.jpg,AMSA07.jpg,AMSA07.jpg,MS,2,num_4,16,num_4,0.666787905968,,,2018_Feb_22_1009,60.0008660028,MAFE4ImagesEEG,001,203061,
AFNE01.JPG,AFNE01.JPG,AFNE01.JPG,AFNE01.JPG,AFNE01.JPG,AFNE01.JPG,,,,,,,,,,,,,,,,,5,3,53,7,,,,,,,AMSA10.jpg,AMNE04.jpg,AMSA11.jpg,AMNE14.jpg,AMSA10.jpg,MS,2,num_8,16,num_8,1.01664955524,,,2018_Feb_22_1009,60.0008660028,MAFE4ImagesEEG,001,203061,
AFNE01.JPG,AFNE01.JPG,AFNE01.JPG,AFNE01.JPG,AFNE01.JPG,AFNE01.JPG,,,,,,,,,,,,,,,,,5,4,54,5,,,,,,,AMSA07.jpg,AMSA02.jpg,AMNE17.jpg,AMNE02.jpg,AMSA07.jpg,MS,2,num_8,32,num_6,1.16674187989,,,2018_Feb_22_1009,60.0008660028,MAFE4ImagesEEG,001,203061,
AFNE01.JPG,AFNE01.JPG,AFNE01.JPG,AFNE01.JPG,AFNE01.JPG,AFNE01.JPG,,,,,,,,,,,,,,,,,5,5,55,1,,,,,,,AMSA20.jpg,AMNE09.jpg,AMSA16.jpg,AMNE03.jpg,AMNE09.jpg,MN,1,num_6,32,num_8,0.983273788181,,,2018_Feb_22_1009,60.0008660028,MAFE4ImagesEEG,001,203061,
AFNE01.JPG,AFNE01.JPG,AFNE01.JPG,AFNE01.JPG,AFNE01.JPG,AFNE01.JPG,,,,,,,,,,,,,,,,,5,6,56,2,,,,,,,AMSA10.jpg,AMSA19.jpg,AMNE04.jpg,AMNE11.jpg,AMSA10.jpg,MS,2,num_8,16,num_8,0.600140932656,,,2018_Feb_22_1009,60.0008660028,MAFE4ImagesEEG,001,203061,
AFNE01.JPG,AFNE01.JPG,AFNE01.JPG,AFNE01.JPG,AFNE01.JPG,AFNE01.JPG,,,,,,,,,,,,,,,,,5,7,57,3,,,,,,,AMSA05.jpg,AMNE18.jpg,AMSA10.jpg,AMNE16.jpg,AMSA10.jpg,MS,2,num_2,32,num_4,0.266897406196,,,2018_Feb_22_1009,60.0008660028,MAFE4ImagesEEG,001,203061,
AFNE01.JPG,AFNE01.JPG,AFNE01.JPG,AFNE01.JPG,AFNE01.JPG,AFNE01.JPG,,,,,,,,,,,,,,,,,5,8,58,9,,,,,,,AMNE20.jpg,AMNE03.jpg,AMSA11.jpg,AMSA07.jpg,AMSA11.jpg,MS,2,num_2,16,num_2,0.683520853287,,,2018_Feb_22_1009,60.0008660028,MAFE4ImagesEEG,001,203061,
AFNE01.JPG,AFNE01.JPG,AFNE01.JPG,AFNE01.JPG,AFNE01.JPG,AFNE01.JPG,,,,,,,,,,,,,,,,,5,9,59,0,,,,,,,AMSA02.jpg,AMNE02.jpg,AMSA17.jpg,AMNE12.jpg,AMSA17.jpg,MS,2,num_2,16,num_2,0.533558107156,,,2018_Feb_22_1009,60.0008660028,MAFE4ImagesEEG,001,203061,
,,,,,,,,,,,,,,,,,,,,,,,,,,,,,,,,,,,,,,,,,,,space,68.9279636513,2018_Feb_22_1009,60.0008660028,MAFE4ImagesEEG,001,203061,
AFNE01.JPG,AFNE01.JPG,AFNE01.JPG,AFNE01.JPG,AFNE01.JPG,AFNE01.JPG,,,,,,,,,,,,,,,,,,,,,0,0,0,6,,,AFNE20.jpg,AFSA19.jpg,AFSA18.jpg,AFNE13.jpg,AFSA19.jpg,FS,4,num_6,32,num_2,0.583522168337,,,2018_Feb_22_1009,60.0008660028,MAFE4ImagesEEG,001,203061,
AFNE01.JPG,AFNE01.JPG,AFNE01.JPG,AFNE01.JPG,AFNE01.JPG,AFNE01.JPG,,,,,,,,,,,,,,,,,,,,,0,1,1,5,,,AFNE17.jpg,AFSA08.jpg,AFSA17.jpg,AFNE08.jpg,AFSA17.jpg,FS,4,num_2,32,num_6,0.300179196813,,,2018_Feb_22_1009,60.0008660028,MAFE4ImagesEEG,001,203061,
AFNE01.JPG,AFNE01.JPG,AFNE01.JPG,AFNE01.JPG,AFNE01.JPG,AFNE01.JPG,,,,,,,,,,,,,,,,,,,,,0,2,2,4,,,AFNE07.jpg,AFSA01.jpg,AFSA04.jpg,AFNE12.jpg,AFSA01.jpg,FS,4,num_6,32,num_2,0.56681744603,,,2018_Feb_22_1009,60.0008660028,MAFE4ImagesEEG,001,203061,
AFNE01.JPG,AFNE01.JPG,AFNE01.JPG,AFNE01.JPG,AFNE01.JPG,AFNE01.JPG,,,,,,,,,,,,,,,,,,,,,0,3,3,9,,,AFSA05.jpg,AFNE12.jpg,AFSA02.jpg,AFNE09.jpg,AFNE12.jpg,FN,3,num_6,16,num_6,0.800069664489,,,2018_Feb_22_1009,60.0008660028,MAFE4ImagesEEG,001,203061,
AFNE01.JPG,AFNE01.JPG,AFNE01.JPG,AFNE01.JPG,AFNE01.JPG,AFNE01.JPG,,,,,,,,,,,,,,,,,,,,,0,4,4,7,,,AFNE11.jpg,AFSA12.jpg,AFSA14.jpg,AFNE14.jpg,AFNE14.jpg,FN,3,num_4,32,num_2,1.35009963752,,,2018_Feb_22_1009,60.0008660028,MAFE4ImagesEEG,001,203061,
AFNE01.JPG,AFNE01.JPG,AFNE01.JPG,AFNE01.JPG,AFNE01.JPG,AFNE01.JPG,,,,,,,,,,,,,,,,,,,,,0,5,5,3,,,AFSA15.jpg,AFNE18.jpg,AFSA12.jpg,AFNE01.jpg,AFNE01.jpg,FN,3,num_4,32,num_2,0.666849487869,,,2018_Feb_22_1009,60.0008660028,MAFE4ImagesEEG,001,203061,
AFNE01.JPG,AFNE01.JPG,AFNE01.JPG,AFNE01.JPG,AFNE01.JPG,AFNE01.JPG,,,,,,,,,,,,,,,,,,,,,0,6,6,2,,,AFNE04.jpg,AFNE02.jpg,AFSA03.jpg,AFSA04.jpg,AFNE02.jpg,FN,3,num_6,16,num_6,1.16677491606,,,2018_Feb_22_1009,60.0008660028,MAFE4ImagesEEG,001,203061,
AFNE01.JPG,AFNE01.JPG,AFNE01.JPG,AFNE01.JPG,AFNE01.JPG,AFNE01.JPG,,,,,,,,,,,,,,,,,,,,,0,7,7,1,,,AFSA18.jpg,AFNE07.jpg,AFNE13.jpg,AFSA02.jpg,AFSA02.jpg,FS,4,num_4,16,num_4,0.81675770838,,,2018_Feb_22_1009,60.0008660028,MAFE4ImagesEEG,001,203061,
AFNE01.JPG,AFNE01.JPG,AFNE01.JPG,AFNE01.JPG,AFNE01.JPG,AFNE01.JPG,,,,,,,,,,,,,,,,,,,,,0,8,8,8,,,AFSA14.jpg,AFSA08.jpg,AFNE04.jpg,AFNE01.jpg,AFNE04.jpg,FN,3,num_2,32,num_6,1.81673301151,,,2018_Feb_22_1009,60.0008660028,MAFE4ImagesEEG,001,203061,
AFNE01.JPG,AFNE01.JPG,AFNE01.JPG,AFNE01.JPG,AFNE01.JPG,AFNE01.JPG,,,,,,,,,,,,,,,,,,,,,0,9,9,0,,,AFNE08.jpg,AFNE17.jpg,AFSA14.jpg,AFSA11.jpg,AFSA11.jpg,FS,4,num_4,16,num_4,0.616794978268,,,2018_Feb_22_1009,60.0008660028,MAFE4ImagesEEG,001,203061,
AFNE01.JPG,AFNE01.JPG,AFNE01.JPG,AFNE01.JPG,AFNE01.JPG,AFNE01.JPG,,,,,,,,,,,,,,,,,,,,,1,0,10,3,,,AFNE16.jpg,AFSA04.jpg,AFSA20.jpg,AFNE09.jpg,AFSA04.jpg,FS,4,num_6,32,num_4,0.750122602447,,,2018_Feb_22_1009,60.0008660028,MAFE4ImagesEEG,001,203061,
AFNE01.JPG,AFNE01.JPG,AFNE01.JPG,AFNE01.JPG,AFNE01.JPG,AFNE01.JPG,,,,,,,,,,,,,,,,,,,,,1,1,11,0,,,AFNE01.jpg,AFNE15.jpg,AFSA04.jpg,AFSA09.jpg,AFSA04.jpg,FS,4,num_2,32,num_4,0.866741655394,,,2018_Feb_22_1009,60.0008660028,MAFE4ImagesEEG,001,203061,
AFNE01.JPG,AFNE01.JPG,AFNE01.JPG,AFNE01.JPG,AFNE01.JPG,AFNE01.JPG,,,,,,,,,,,,,,,,,,,,,1,2,12,1,,,AFNE02.jpg,AFNE16.jpg,AFSA02.jpg,AFSA10.jpg,AFNE02.jpg,FN,3,num_8,16,num_8,1.1335085209,,,2018_Feb_22_1009,60.0008660028,MAFE4ImagesEEG,001,203061,
AFNE01.JPG,AFNE01.JPG,AFNE01.JPG,AFNE01.JPG,AFNE01.JPG,AFNE01.JPG,,,,,,,,,,,,,,,,,,,,,1,3,13,9,,,AFSA06.jpg,AFNE03.jpg,AFNE04.jpg,AFSA19.jpg,AFNE03.jpg,FN,3,num_6,32,num_2,2.81649694772,,,2018_Feb_22_1009,60.0008660028,MAFE4ImagesEEG,001,203061,
AFNE01.JPG,AFNE01.JPG,AFNE01.JPG,AFNE01.JPG,AFNE01.JPG,AFNE01.JPG,,,,,,,,,,,,,,,,,,,,,1,4,14,4,,,AFSA05.jpg,AFSA16.jpg,AFNE14.jpg,AFNE12.jpg,AFNE14.jpg,FN,3,num_2,32,num_4,0.700136089465,,,2018_Feb_22_1009,60.0008660028,MAFE4ImagesEEG,001,203061,
AFNE01.JPG,AFNE01.JPG,AFNE01.JPG,AFNE01.JPG,AFNE01.JPG,AFNE01.JPG,,,,,,,,,,,,,,,,,,,,,1,5,15,5,,,AFSA03.jpg,AFNE20.jpg,AFSA06.jpg,AFNE01.jpg,AFSA03.jpg,FS,4,num_8,16,num_8,0.616812618915,,,2018_Feb_22_1009,60.0008660028,MAFE4ImagesEEG,001,203061,
AFNE01.JPG,AFNE01.JPG,AFNE01.JPG,AFNE01.JPG,AFNE01.JPG,AFNE01.JPG,,,,,,,,,,,,,,,,,,,,,1,6,16,7,,,AFSA09.jpg,AFNE04.jpg,AFNE18.jpg,AFSA06.jpg,AFSA06.jpg,FS,4,num_4,32,num_2,0.716842736292,,,2018_Feb_22_1009,60.0008660028,MAFE4ImagesEEG,001,203061,
AFNE01.JPG,AFNE01.JPG,AFNE01.JPG,AFNE01.JPG,AFNE01.JPG,AFNE01.JPG,,,,,,,,,,,,,,,,,,,,,1,7,17,2,,,AFNE19.jpg,AFNE15.jpg,AFSA20.jpg,AFSA14.jpg,AFSA14.jpg,FS,4,num_4,16,num_4,0.650164009829,,,2018_Feb_22_1009,60.0008660028,MAFE4ImagesEEG,001,203061,
AFNE01.JPG,AFNE01.JPG,AFNE01.JPG,AFNE01.JPG,AFNE01.JPG,AFNE01.JPG,,,,,,,,,,,,,,,,,,,,,1,8,18,8,,,AFNE19.jpg,AFSA19.jpg,AFNE05.jpg,AFSA08.jpg,AFSA19.jpg,FS,4,num_6,32,num_8,0.550162438245,,,2018_Feb_22_1009,60.0008660028,MAFE4ImagesEEG,001,203061,
AFNE01.JPG,AFNE01.JPG,AFNE01.JPG,AFNE01.JPG,AFNE01.JPG,AFNE01.JPG,,,,,,,,,,,,,,,,,,,,,1,9,19,6,,,AFNE06.jpg,AFSA14.jpg,AFNE13.jpg,AFSA10.jpg,AFNE13.jpg,FN,3,num_2,32,num_6,0.816778877168,,,2018_Feb_22_1009,60.0008660028,MAFE4ImagesEEG,001,203061,
AFNE01.JPG,AFNE01.JPG,AFNE01.JPG,AFNE01.JPG,AFNE01.JPG,AFNE01.JPG,,,,,,,,,,,,,,,,,,,,,2,0,20,8,,,AFNE04.jpg,AFSA12.jpg,AFSA14.jpg,AFNE06.jpg,AFSA12.jpg,FS,4,num_6,32,num_4,1.13348093739,,,2018_Feb_22_1009,60.0008660028,MAFE4ImagesEEG,001,203061,
AFNE01.JPG,AFNE01.JPG,AFNE01.JPG,AFNE01.JPG,AFNE01.JPG,AFNE01.JPG,,,,,,,,,,,,,,,,,,,,,2,1,21,3,,,AFSA04.jpg,AFSA19.jpg,AFNE01.jpg,AFNE03.jpg,AFSA04.jpg,FS,4,num_8,32,num_2,1.26670143474,,,2018_Feb_22_1009,60.0008660028,MAFE4ImagesEEG,001,203061,
AFNE01.JPG,AFNE01.JPG,AFNE01.JPG,AFNE01.JPG,AFNE01.JPG,AFNE01.JPG,,,,,,,,,,,,,,,,,,,,,2,2,22,2,,,AFSA13.jpg,AFSA03.jpg,AFNE14.jpg,AFNE05.jpg,AFNE14.jpg,FN,3,num_2,32,num_4,0.633494248032,,,2018_Feb_22_1009,60.0008660028,MAFE4ImagesEEG,001,203061,
AFNE01.JPG,AFNE01.JPG,AFNE01.JPG,AFNE01.JPG,AFNE01.JPG,AFNE01.JPG,,,,,,,,,,,,,,,,,,,,,2,3,23,4,,,AFNE02.jpg,AFSA12.jpg,AFSA14.jpg,AFNE11.jpg,AFSA14.jpg,FS,4,num_2,16,num_2,0.70012293919,,,2018_Feb_22_1009,60.0008660028,MAFE4ImagesEEG,001,203061,
AFNE01.JPG,AFNE01.JPG,AFNE01.JPG,AFNE01.JPG,AFNE01.JPG,AFNE01.JPG,,,,,,,,,,,,,,,,,,,,,2,4,24,9,,,AFNE16.jpg,AFSA04.jpg,AFSA05.jpg,AFNE15.jpg,AFNE15.jpg,FN,3,num_4,32,num_2,0.583466680488,,,2018_Feb_22_1009,60.0008660028,MAFE4ImagesEEG,001,203061,
AFNE01.JPG,AFNE01.JPG,AFNE01.JPG,AFNE01.JPG,AFNE01.JPG,AFNE01.JPG,,,,,,,,,,,,,,,,,,,,,2,5,25,5,,,AFNE04.jpg,AFNE15.jpg,AFSA06.jpg,AFSA13.jpg,AFNE15.jpg,FN,3,num_6,16,num_6,0.666525220848,,,2018_Feb_22_1009,60.0008660028,MAFE4ImagesEEG,001,203061,
AFNE01.JPG,AFNE01.JPG,AFNE01.JPG,AFNE01.JPG,AFNE01.JPG,AFNE01.JPG,,,,,,,,,,,,,,,,,,,,,2,6,26,1,,,AFNE18.jpg,AFSA11.jpg,AFNE10.jpg,AFSA08.jpg,AFNE18.jpg,FN,3,num_8,32,num_4,0.716794625449,,,2018_Feb_22_1009,60.0008660028,MAFE4ImagesEEG,001,203061,
AFNE01.JPG,AFNE01.JPG,AFNE01.JPG,AFNE01.JPG,AFNE01.JPG,AFNE01.JPG,,,,,,,,,,,,,,,,,,,,,2,7,27,6,,,AFNE09.jpg,AFSA15.jpg,AFSA20.jpg,AFNE11.jpg,AFSA15.jpg,FS,4,num_6,16,num_6,0.683477553597,,,2018_Feb_22_1009,60.0008660028,MAFE4ImagesEEG,001,203061,
AFNE01.JPG,AFNE01.JPG,AFNE01.JPG,AFNE01.JPG,AFNE01.JPG,AFNE01.JPG,,,,,,,,,,,,,,,,,,,,,2,8,28,0,,,AFSA12.jpg,AFNE04.jpg,AFSA19.jpg,AFNE01.jpg,AFNE01.jpg,FN,3,num_4,32,num_2,0.800087625918,,,2018_Feb_22_1009,60.0008660028,MAFE4ImagesEEG,001,203061,
AFNE01.JPG,AFNE01.JPG,AFNE01.JPG,AFNE01.JPG,AFNE01.JPG,AFNE01.JPG,,,,,,,,,,,,,,,,,,,,,2,9,29,7,,,AFNE15.jpg,AFSA01.jpg,AFSA09.jpg,AFNE17.jpg,AFNE15.jpg,FN,3,num_8,16,num_8,0.716754853842,,,2018_Feb_22_1009,60.0008660028,MAFE4ImagesEEG,001,203061,
AFNE01.JPG,AFNE01.JPG,AFNE01.JPG,AFNE01.JPG,AFNE01.JPG,AFNE01.JPG,,,,,,,,,,,,,,,,,,,,,3,0,30,0,,,AFNE04.jpg,AFNE01.jpg,AFSA13.jpg,AFSA04.jpg,AFSA04.jpg,FS,4,num_4,16,num_4,1.51680591545,,,2018_Feb_22_1009,60.0008660028,MAFE4ImagesEEG,001,203061,
AFNE01.JPG,AFNE01.JPG,AFNE01.JPG,AFNE01.JPG,AFNE01.JPG,AFNE01.JPG,,,,,,,,,,,,,,,,,,,,,3,1,31,8,,,AFSA06.jpg,AFNE15.jpg,AFNE14.jpg,AFSA04.jpg,AFSA06.jpg,FS,4,num_8,16,num_8,3.11654560379,,,2018_Feb_22_1009,60.0008660028,MAFE4ImagesEEG,001,203061,
AFNE01.JPG,AFNE01.JPG,AFNE01.JPG,AFNE01.JPG,AFNE01.JPG,AFNE01.JPG,,,,,,,,,,,,,,,,,,,,,3,2,32,7,,,AFNE18.jpg,AFSA18.jpg,AFSA01.jpg,AFNE15.jpg,AFNE18.jpg,FN,3,num_8,16,num_8,0.783480087412,,,2018_Feb_22_1009,60.0008660028,MAFE4ImagesEEG,001,203061,
AFNE01.JPG,AFNE01.JPG,AFNE01.JPG,AFNE01.JPG,AFNE01.JPG,AFNE01.JPG,,,,,,,,,,,,,,,,,,,,,3,3,33,5,,,AFSA18.jpg,AFNE11.jpg,AFSA13.jpg,AFNE15.jpg,AFNE11.jpg,FN,3,num_6,16,num_6,0.533498449717,,,2018_Feb_22_1009,60.0008660028,MAFE4ImagesEEG,001,203061,
AFNE01.JPG,AFNE01.JPG,AFNE01.JPG,AFNE01.JPG,AFNE01.JPG,AFNE01.JPG,,,,,,,,,,,,,,,,,,,,,3,4,34,2,,,AFNE18.jpg,AFSA02.jpg,AFSA10.jpg,AFNE17.jpg,AFNE18.jpg,FN,3,num_8,32,num_4,0.75014858233,,,2018_Feb_22_1009,60.0008660028,MAFE4ImagesEEG,001,203061,
AFNE01.JPG,AFNE01.JPG,AFNE01.JPG,AFNE01.JPG,AFNE01.JPG,AFNE01.JPG,,,,,,,,,,,,,,,,,,,,,3,5,35,6,,,AFNE03.jpg,AFSA01.jpg,AFSA18.jpg,AFNE20.jpg,AFSA18.jpg,FS,4,num_2,16,num_2,0.583528262388,,,2018_Feb_22_1009,60.0008660028,MAFE4ImagesEEG,001,203061,
AFNE01.JPG,AFNE01.JPG,AFNE01.JPG,AFNE01.JPG,AFNE01.JPG,AFNE01.JPG,,,,,,,,,,,,,,,,,,,,,3,6,36,3,,,AFSA09.jpg,AFNE05.jpg,AFNE14.jpg,AFSA05.jpg,AFSA09.jpg,FS,4,num_8,32,num_6,0.69997026748,,,2018_Feb_22_1009,60.0008660028,MAFE4ImagesEEG,001,203061,
AFNE01.JPG,AFNE01.JPG,AFNE01.JPG,AFNE01.JPG,AFNE01.JPG,AFNE01.JPG,,,,,,,,,,,,,,,,,,,,,3,7,37,1,,,AFNE05.jpg,AFNE11.jpg,AFSA19.jpg,AFSA12.jpg,AFNE11.jpg,FN,3,num_6,16,num_6,0.383506195561,,,2018_Feb_22_1009,60.0008660028,MAFE4ImagesEEG,001,203061,
AFNE01.JPG,AFNE01.JPG,AFNE01.JPG,AFNE01.JPG,AFNE01.JPG,AFNE01.JPG,,,,,,,,,,,,,,,,,,,,,3,8,38,9,,,AFNE04.jpg,AFNE07.jpg,AFSA18.jpg,AFSA13.jpg,AFNE04.jpg,FN,3,num_8,32,num_2,0.333502362715,,,2018_Feb_22_1009,60.0008660028,MAFE4ImagesEEG,001,203061,
