IPosition2,IPosition3,IPosition1,IPosition6,IPosition4,IPosition5,TrialsM1.thisRepN,TrialsM1.thisTrialN,TrialsM1.thisN,TrialsM1.thisIndex,TrialsF1.thisRepN,TrialsF1.thisTrialN,TrialsF1.thisN,TrialsF1.thisIndex,TrialsM2.thisRepN,TrialsM2.thisTrialN,TrialsM2.thisN,TrialsM2.thisIndex,TrialsF2.thisRepN,TrialsF2.thisTrialN,TrialsF2.thisN,TrialsF2.thisIndex,TrialsM3.thisRepN,TrialsM3.thisTrialN,TrialsM3.thisN,TrialsM3.thisIndex,TrialsF3.thisRepN,TrialsF3.thisTrialN,TrialsF3.thisN,TrialsF3.thisIndex,InstrKey_resp.keys,InstrKey_resp.rt,Image0 _Position,Image1 _Position,Image2 _Position,Image3 _Position,Center_image,condition,code,correct_answer,accuracy,Key_Resp.keys,Key_Resp.rt,BreakKey_resp.keys,BreakKey_resp.rt,date,frameRate,expName,session,participant,
,,,,,,,,,,,,,,,,,,,,,,,,,,,,,,space,11.3660737167,,,,,,,,,,,,,,2018_Mar_07_1613,59.9982103215,MAFE4ImagesEEG,001,203063,
AFNE22.JPG,AFSA24.JPG,AFSA22.JPG,AFNE25.JPG,AFNE24.JPG,AFSA25.JPG,0,0,0,6,,,,,,,,,,,,,,,,,,,,,,,AMNE20.jpg,AMSA08.jpg,AMNE07.jpg,AMSA18.jpg,AMNE20.jpg,MN,1,num_8,16,num_8,0.783490992384,,,2018_Mar_07_1613,59.9982103215,MAFE4ImagesEEG,001,203063,
AMSA25.JPG,AMNE24.JPG,AMSA24.JPG,AMNE26.JPG,AMSA21.JPG,AMNE25.JPG,0,1,1,3,,,,,,,,,,,,,,,,,,,,,,,AMSA09.jpg,AMNE13.jpg,AMNE09.jpg,AMSA04.jpg,AMNE09.jpg,MN,1,num_2,16,num_2,1.40007364145,,,2018_Mar_07_1613,59.9982103215,MAFE4ImagesEEG,001,203063,
AMNE23.JPG,AMNE24.JPG,AMNE22.JPG,AMSA24.JPG,AMSA22.JPG,AMSA23.JPG,0,2,2,9,,,,,,,,,,,,,,,,,,,,,,,AMSA05.jpg,AMNE16.jpg,AMNE12.jpg,AMSA06.jpg,AMSA06.jpg,MS,2,num_4,16,num_4,0.883460810874,,,2018_Mar_07_1613,59.9982103215,MAFE4ImagesEEG,001,203063,
AFSA21.JPG,AFNE22.JPG,AFNE21.JPG,AFSA23.JPG,AFSA22.JPG,AFNE23.JPG,0,3,3,0,,,,,,,,,,,,,,,,,,,,,,,AMNE17.jpg,AMNE14.jpg,AMSA01.jpg,AMSA11.jpg,AMNE17.jpg,MN,1,num_8,16,num_8,0.900134101044,,,2018_Mar_07_1613,59.9982103215,MAFE4ImagesEEG,001,203063,
AMSA21.JPG,AMNE22.JPG,AMNE21.JPG,AMSA23.JPG,AMSA22.JPG,AMNE23.JPG,0,4,4,1,,,,,,,,,,,,,,,,,,,,,,,AMSA12.jpg,AMNE19.jpg,AMSA18.jpg,AMNE10.jpg,AMNE19.jpg,MN,1,num_6,32,num_2,1.98339695181,,,2018_Mar_07_1613,59.9982103215,MAFE4ImagesEEG,001,203063,
AFNE23.JPG,AFNE24.JPG,AFNE22.JPG,AFSA24.JPG,AFSA22.JPG,AFSA23.JPG,0,5,5,8,,,,,,,,,,,,,,,,,,,,,,,AMSA07.jpg,AMNE01.jpg,AMNE17.jpg,AMSA10.jpg,AMSA10.jpg,MS,2,num_4,32,num_8,1.80010943604,,,2018_Mar_07_1613,59.9982103215,MAFE4ImagesEEG,001,203063,
AFSA25.JPG,AFNE24.JPG,AFSA24.JPG,AFNE21.JPG,AFSA21.JPG,AFNE25.JPG,0,6,6,2,,,,,,,,,,,,,,,,,,,,,,,AMNE17.jpg,AMNE05.jpg,AMSA09.jpg,AMSA15.jpg,AMNE05.jpg,MN,1,num_6,32,num_8,0.950086615514,,,2018_Mar_07_1613,59.9982103215,MAFE4ImagesEEG,001,203063,
AMSA21.JPG,AMNE23.JPG,AMNE21.JPG,AMSA25.JPG,AMNE25.JPG,AMSA23.JPG,0,7,7,5,,,,,,,,,,,,,,,,,,,,,,,AMNE03.jpg,AMSA20.jpg,AMSA16.jpg,AMNE14.jpg,AMSA20.jpg,MS,2,num_6,16,num_6,0.683262979146,,,2018_Mar_07_1613,59.9982103215,MAFE4ImagesEEG,001,203063,
AFSA21.JPG,AFNE23.JPG,AFNE21.JPG,AFSA25.JPG,AFNE25.JPG,AFSA23.JPG,0,8,8,4,,,,,,,,,,,,,,,,,,,,,,,AMSA07.jpg,AMNE13.jpg,AMNE05.jpg,AMSA13.jpg,AMNE13.jpg,MN,1,num_6,32,num_2,2.56665771804,,,2018_Mar_07_1613,59.9982103215,MAFE4ImagesEEG,001,203063,
AMNE22.JPG,AMSA24.JPG,AMSA22.JPG,AMNE25.JPG,AMNE24.JPG,AMSA25.JPG,0,9,9,7,,,,,,,,,,,,,,,,,,,,,,,AMNE19.jpg,AMSA15.jpg,AMNE05.jpg,AMSA04.jpg,AMSA15.jpg,MS,2,num_6,32,num_2,1.63371138833,,,2018_Mar_07_1613,59.9982103215,MAFE4ImagesEEG,001,203063,
AMNE23.JPG,AMNE24.JPG,AMNE22.JPG,AMSA24.JPG,AMSA22.JPG,AMSA23.JPG,,,,,0,0,0,9,,,,,,,,,,,,,,,,,,,AFNE17.jpg,AFSA03.jpg,AFNE20.jpg,AFSA11.jpg,AFSA03.jpg,FS,4,num_6,32,num_4,0.716810662299,,,2018_Mar_07_1613,59.9982103215,MAFE4ImagesEEG,001,203063,
AFSA25.JPG,AFNE24.JPG,AFSA24.JPG,AFNE21.JPG,AFSA21.JPG,AFNE25.JPG,,,,,0,1,1,2,,,,,,,,,,,,,,,,,,,AFSA03.jpg,AFNE19.jpg,AFNE13.jpg,AFSA02.jpg,AFNE13.jpg,FN,3,num_2,32,num_6,1.38339489908,,,2018_Mar_07_1613,59.9982103215,MAFE4ImagesEEG,001,203063,
AFNE23.JPG,AFNE24.JPG,AFNE22.JPG,AFSA24.JPG,AFSA22.JPG,AFSA23.JPG,,,,,0,2,2,8,,,,,,,,,,,,,,,,,,,AFNE05.jpg,AFSA09.jpg,AFNE02.jpg,AFSA12.jpg,AFNE02.jpg,FN,3,num_2,16,num_2,1.06677430682,,,2018_Mar_07_1613,59.9982103215,MAFE4ImagesEEG,001,203063,
AFSA21.JPG,AFNE23.JPG,AFNE21.JPG,AFSA25.JPG,AFNE25.JPG,AFSA23.JPG,,,,,0,3,3,4,,,,,,,,,,,,,,,,,,,AFSA13.jpg,AFNE06.jpg,AFNE14.jpg,AFSA19.jpg,AFSA19.jpg,FS,4,num_4,32,num_8,1.28353926376,,,2018_Mar_07_1613,59.9982103215,MAFE4ImagesEEG,001,203063,
AMSA21.JPG,AMNE22.JPG,AMNE21.JPG,AMSA23.JPG,AMSA22.JPG,AMNE23.JPG,,,,,0,4,4,1,,,,,,,,,,,,,,,,,,,AFNE18.jpg,AFSA02.jpg,AFSA09.jpg,AFNE04.jpg,AFNE18.jpg,FN,3,num_8,16,num_8,0.933491585776,,,2018_Mar_07_1613,59.9982103215,MAFE4ImagesEEG,001,203063,
AMNE22.JPG,AMSA24.JPG,AMSA22.JPG,AMNE25.JPG,AMNE24.JPG,AMSA25.JPG,,,,,0,5,5,7,,,,,,,,,,,,,,,,,,,AFSA05.jpg,AFNE18.jpg,AFNE13.jpg,AFSA06.jpg,AFSA05.jpg,FS,4,num_8,32,num_4,1.13344918424,,,2018_Mar_07_1613,59.9982103215,MAFE4ImagesEEG,001,203063,
AFSA21.JPG,AFNE22.JPG,AFNE21.JPG,AFSA23.JPG,AFSA22.JPG,AFNE23.JPG,,,,,0,6,6,0,,,,,,,,,,,,,,,,,,,AFNE15.jpg,AFSA03.jpg,AFSA06.jpg,AFNE10.jpg,AFNE15.jpg,FN,3,num_8,32,num_6,1.28347575734,,,2018_Mar_07_1613,59.9982103215,MAFE4ImagesEEG,001,203063,
AFNE22.JPG,AFSA24.JPG,AFSA22.JPG,AFNE25.JPG,AFNE24.JPG,AFSA25.JPG,,,,,0,7,7,6,,,,,,,,,,,,,,,,,,,AFNE12.jpg,AFSA18.jpg,AFNE09.jpg,AFSA12.jpg,AFNE12.jpg,FN,3,num_8,16,num_8,1.00013310672,,,2018_Mar_07_1613,59.9982103215,MAFE4ImagesEEG,001,203063,
AMSA25.JPG,AMNE24.JPG,AMSA24.JPG,AMNE26.JPG,AMSA21.JPG,AMNE25.JPG,,,,,0,8,8,3,,,,,,,,,,,,,,,,,,,AFNE10.jpg,AFSA20.jpg,AFNE07.jpg,AFSA03.jpg,AFNE10.jpg,FN,3,num_8,32,num_2,2.38334550546,,,2018_Mar_07_1613,59.9982103215,MAFE4ImagesEEG,001,203063,
AMSA21.JPG,AMNE23.JPG,AMNE21.JPG,AMSA25.JPG,AMNE25.JPG,AMSA23.JPG,,,,,0,9,9,5,,,,,,,,,,,,,,,,,,,AFNE02.jpg,AFSA03.jpg,AFSA10.jpg,AFNE09.jpg,AFNE09.jpg,FN,3,num_4,32,num_8,1.36675656959,,,2018_Mar_07_1613,59.9982103215,MAFE4ImagesEEG,001,203063,
AMNE23.JPG,AMNE24.JPG,AMNE22.JPG,AMSA24.JPG,AMSA22.JPG,AMSA23.JPG,,,,,,,,,0,0,0,9,,,,,,,,,,,,,,,AMNE19.jpg,AMNE14.jpg,AMSA07.jpg,AMSA09.jpg,AMSA09.jpg,MS,2,num_4,32,num_8,1.20041272673,,,2018_Mar_07_1613,59.9982103215,MAFE4ImagesEEG,001,203063,
AMNE22.JPG,AMSA24.JPG,AMSA22.JPG,AMNE25.JPG,AMNE24.JPG,AMSA25.JPG,,,,,,,,,0,1,1,7,,,,,,,,,,,,,,,AMNE08.jpg,AMSA20.jpg,AMNE18.jpg,AMSA17.jpg,AMSA20.jpg,MS,2,num_6,32,num_2,1.75009854697,,,2018_Mar_07_1613,59.9982103215,MAFE4ImagesEEG,001,203063,
AMSA21.JPG,AMNE22.JPG,AMNE21.JPG,AMSA23.JPG,AMSA22.JPG,AMNE23.JPG,,,,,,,,,0,2,2,1,,,,,,,,,,,,,,,AMSA18.jpg,AMNE15.jpg,AMNE19.jpg,AMSA05.jpg,AMNE19.jpg,MN,1,num_2,32,num_4,1.36677324818,,,2018_Mar_07_1613,59.9982103215,MAFE4ImagesEEG,001,203063,
AFSA25.JPG,AFNE24.JPG,AFSA24.JPG,AFNE21.JPG,AFSA21.JPG,AFNE25.JPG,,,,,,,,,0,3,3,2,,,,,,,,,,,,,,,AMNE04.jpg,AMSA16.jpg,AMNE08.jpg,AMSA08.jpg,AMNE08.jpg,MN,1,num_2,16,num_2,2.56668466027,,,2018_Mar_07_1613,59.9982103215,MAFE4ImagesEEG,001,203063,
AFSA21.JPG,AFNE23.JPG,AFNE21.JPG,AFSA25.JPG,AFNE25.JPG,AFSA23.JPG,,,,,,,,,0,4,4,4,,,,,,,,,,,,,,,AMSA11.jpg,AMNE13.jpg,AMSA10.jpg,AMNE04.jpg,AMNE13.jpg,MN,1,num_6,16,num_6,1.0667804007,,,2018_Mar_07_1613,59.9982103215,MAFE4ImagesEEG,001,203063,
AFNE23.JPG,AFNE24.JPG,AFNE22.JPG,AFSA24.JPG,AFSA22.JPG,AFSA23.JPG,,,,,,,,,0,5,5,8,,,,,,,,,,,,,,,AMSA20.jpg,AMSA16.jpg,AMNE06.jpg,AMNE11.jpg,AMNE06.jpg,MN,1,num_2,32,num_8,1.15011349344,,,2018_Mar_07_1613,59.9982103215,MAFE4ImagesEEG,001,203063,
AFSA21.JPG,AFNE22.JPG,AFNE21.JPG,AFSA23.JPG,AFSA22.JPG,AFNE23.JPG,,,,,,,,,0,6,6,0,,,,,,,,,,,,,,,AMSA08.jpg,AMSA14.jpg,AMNE15.jpg,AMNE04.jpg,AMNE15.jpg,MN,1,num_2,32,num_4,0.900132817915,,,2018_Mar_07_1613,59.9982103215,MAFE4ImagesEEG,001,203063,
AMSA21.JPG,AMNE23.JPG,AMNE21.JPG,AMSA25.JPG,AMNE25.JPG,AMSA23.JPG,,,,,,,,,0,7,7,5,,,,,,,,,,,,,,,AMNE01.jpg,AMNE05.jpg,AMSA19.jpg,AMSA12.jpg,AMNE05.jpg,MN,1,num_6,32,num_2,2.26638839347,,,2018_Mar_07_1613,59.9982103215,MAFE4ImagesEEG,001,203063,
AFNE22.JPG,AFSA24.JPG,AFSA22.JPG,AFNE25.JPG,AFNE24.JPG,AFSA25.JPG,,,,,,,,,0,8,8,6,,,,,,,,,,,,,,,AMSA13.jpg,AMSA03.jpg,AMNE15.jpg,AMNE02.jpg,AMNE02.jpg,MN,1,num_4,32,num_8,1.60009731213,,,2018_Mar_07_1613,59.9982103215,MAFE4ImagesEEG,001,203063,
AMSA25.JPG,AMNE24.JPG,AMSA24.JPG,AMNE26.JPG,AMSA21.JPG,AMNE25.JPG,,,,,,,,,0,9,9,3,,,,,,,,,,,,,,,AMSA09.jpg,AMNE14.jpg,AMSA03.jpg,AMNE05.jpg,AMNE14.jpg,MN,1,num_6,16,num_6,0.816916474141,,,2018_Mar_07_1613,59.9982103215,MAFE4ImagesEEG,001,203063,
AMNE23.JPG,AMNE24.JPG,AMNE22.JPG,AMSA24.JPG,AMSA22.JPG,AMSA23.JPG,,,,,,,,,,,,,0,0,0,9,,,,,,,,,,,AFSA06.jpg,AFNE19.jpg,AFNE18.jpg,AFSA02.jpg,AFSA02.jpg,FS,4,num_4,32,num_8,1.05011128029,,,2018_Mar_07_1613,59.9982103215,MAFE4ImagesEEG,001,203063,
AFNE22.JPG,AFSA24.JPG,AFSA22.JPG,AFNE25.JPG,AFNE24.JPG,AFSA25.JPG,,,,,,,,,,,,,0,1,1,6,,,,,,,,,,,AFNE08.jpg,AFSA07.jpg,AFNE12.jpg,AFSA18.jpg,AFNE08.jpg,FN,3,num_8,16,num_8,1.20012502419,,,2018_Mar_07_1613,59.9982103215,MAFE4ImagesEEG,001,203063,
AFNE23.JPG,AFNE24.JPG,AFNE22.JPG,AFSA24.JPG,AFSA22.JPG,AFSA23.JPG,,,,,,,,,,,,,0,2,2,8,,,,,,,,,,,AFNE17.jpg,AFNE02.jpg,AFSA01.jpg,AFSA16.jpg,AFSA01.jpg,FS,4,num_2,32,num_4,1.05012122332,,,2018_Mar_07_1613,59.9982103215,MAFE4ImagesEEG,001,203063,
AFSA21.JPG,AFNE23.JPG,AFNE21.JPG,AFSA25.JPG,AFNE25.JPG,AFSA23.JPG,,,,,,,,,,,,,0,3,3,4,,,,,,,,,,,AFNE05.jpg,AFSA06.jpg,AFSA01.jpg,AFNE03.jpg,AFSA01.jpg,FS,4,num_2,32,num_6,1.41676585516,,,2018_Mar_07_1613,59.9982103215,MAFE4ImagesEEG,001,203063,
AFSA21.JPG,AFNE22.JPG,AFNE21.JPG,AFSA23.JPG,AFSA22.JPG,AFNE23.JPG,,,,,,,,,,,,,0,4,4,0,,,,,,,,,,,AFSA08.jpg,AFNE11.jpg,AFNE06.jpg,AFSA07.jpg,AFSA07.jpg,FS,4,num_4,32,num_8,0.733436162351,,,2018_Mar_07_1613,59.9982103215,MAFE4ImagesEEG,001,203063,
AMSA21.JPG,AMNE23.JPG,AMNE21.JPG,AMSA25.JPG,AMNE25.JPG,AMSA23.JPG,,,,,,,,,,,,,0,5,5,5,,,,,,,,,,,AFNE06.jpg,AFSA12.jpg,AFSA16.jpg,AFNE09.jpg,AFNE06.jpg,FN,3,num_8,32,num_2,1.83338064235,,,2018_Mar_07_1613,59.9982103215,MAFE4ImagesEEG,001,203063,
AFSA25.JPG,AFNE24.JPG,AFSA24.JPG,AFNE21.JPG,AFSA21.JPG,AFNE25.JPG,,,,,,,,,,,,,0,6,6,2,,,,,,,,,,,AFNE09.jpg,AFSA03.jpg,AFNE14.jpg,AFSA15.jpg,AFNE09.jpg,FN,3,num_8,16,num_8,1.16676625609,,,2018_Mar_07_1613,59.9982103215,MAFE4ImagesEEG,001,203063,
AMSA25.JPG,AMNE24.JPG,AMSA24.JPG,AMNE26.JPG,AMSA21.JPG,AMNE25.JPG,,,,,,,,,,,,,0,7,7,3,,,,,,,,,,,AFNE06.jpg,AFSA11.jpg,AFSA01.jpg,AFNE02.jpg,AFSA11.jpg,FS,4,num_6,32,num_4,1.58334159246,,,2018_Mar_07_1613,59.9982103215,MAFE4ImagesEEG,001,203063,
AMNE22.JPG,AMSA24.JPG,AMSA22.JPG,AMNE25.JPG,AMNE24.JPG,AMSA25.JPG,,,,,,,,,,,,,0,8,8,7,,,,,,,,,,,AFNE03.jpg,AFNE09.jpg,AFSA03.jpg,AFSA10.jpg,AFNE09.jpg,FN,3,num_6,16,num_6,1.70020985929,,,2018_Mar_07_1613,59.9982103215,MAFE4ImagesEEG,001,203063,
AMSA21.JPG,AMNE22.JPG,AMNE21.JPG,AMSA23.JPG,AMSA22.JPG,AMNE23.JPG,,,,,,,,,,,,,0,9,9,1,,,,,,,,,,,AFSA08.jpg,AFNE10.jpg,AFNE08.jpg,AFSA09.jpg,AFSA08.jpg,FS,4,num_8,16,num_8,0.816828591749,,,2018_Mar_07_1613,59.9982103215,MAFE4ImagesEEG,001,203063,
AFSA21.JPG,AFNE23.JPG,AFNE21.JPG,AFSA25.JPG,AFNE25.JPG,AFSA23.JPG,,,,,,,,,,,,,,,,,0,0,0,4,,,,,,,AMNE11.jpg,AMSA18.jpg,AMNE09.jpg,AMSA15.jpg,AMSA15.jpg,MS,2,num_4,32,num_8,1.63343587355,,,2018_Mar_07_1613,59.9982103215,MAFE4ImagesEEG,001,203063,
AFSA21.JPG,AFNE22.JPG,AFNE21.JPG,AFSA23.JPG,AFSA22.JPG,AFNE23.JPG,,,,,,,,,,,,,,,,,0,1,1,0,,,,,,,AMNE06.jpg,AMSA16.jpg,AMNE17.jpg,AMSA13.jpg,AMSA13.jpg,MS,2,num_4,16,num_4,2.30003133626,,,2018_Mar_07_1613,59.9982103215,MAFE4ImagesEEG,001,203063,
AMSA21.JPG,AMNE23.JPG,AMNE21.JPG,AMSA25.JPG,AMNE25.JPG,AMSA23.JPG,,,,,,,,,,,,,,,,,0,2,2,5,,,,,,,AMSA13.jpg,AMSA15.jpg,AMNE10.jpg,AMNE04.jpg,AMSA13.jpg,MS,2,num_8,16,num_8,0.900100102648,,,2018_Mar_07_1613,59.9982103215,MAFE4ImagesEEG,001,203063,
AFSA25.JPG,AFNE24.JPG,AFSA24.JPG,AFNE21.JPG,AFSA21.JPG,AFNE25.JPG,,,,,,,,,,,,,,,,,0,3,3,2,,,,,,,AMNE13.jpg,AMSA19.jpg,AMNE10.jpg,AMSA03.jpg,AMNE13.jpg,MN,1,num_8,16,num_8,0.850161379669,,,2018_Mar_07_1613,59.9982103215,MAFE4ImagesEEG,001,203063,
AMSA21.JPG,AMNE22.JPG,AMNE21.JPG,AMSA23.JPG,AMSA22.JPG,AMNE23.JPG,,,,,,,,,,,,,,,,,0,4,4,1,,,,,,,AMNE07.jpg,AMSA13.jpg,AMSA05.jpg,AMNE17.jpg,AMNE07.jpg,MN,1,num_8,32,num_2,1.93339343974,,,2018_Mar_07_1613,59.9982103215,MAFE4ImagesEEG,001,203063,
AMNE22.JPG,AMSA24.JPG,AMSA22.JPG,AMNE25.JPG,AMNE24.JPG,AMSA25.JPG,,,,,,,,,,,,,,,,,0,5,5,7,,,,,,,AMSA19.jpg,AMNE06.jpg,AMNE04.jpg,AMSA13.jpg,AMSA19.jpg,MS,2,num_8,32,num_6,2.56671545096,,,2018_Mar_07_1613,59.9982103215,MAFE4ImagesEEG,001,203063,
AMSA25.JPG,AMNE24.JPG,AMSA24.JPG,AMNE26.JPG,AMSA21.JPG,AMNE25.JPG,,,,,,,,,,,,,,,,,0,6,6,3,,,,,,,AMNE05.jpg,AMSA19.jpg,AMSA01.jpg,AMNE18.jpg,AMNE05.jpg,MN,1,num_8,48,None,,,,2018_Mar_07_1613,59.9982103215,MAFE4ImagesEEG,001,203063,
AFNE23.JPG,AFNE24.JPG,AFNE22.JPG,AFSA24.JPG,AFSA22.JPG,AFSA23.JPG,,,,,,,,,,,,,,,,,0,7,7,8,,,,,,,AMNE05.jpg,AMSA13.jpg,AMNE08.jpg,AMSA19.jpg,AMNE05.jpg,MN,1,num_8,32,num_4,2.15002978058,,,2018_Mar_07_1613,59.9982103215,MAFE4ImagesEEG,001,203063,
AFNE22.JPG,AFSA24.JPG,AFSA22.JPG,AFNE25.JPG,AFNE24.JPG,AFSA25.JPG,,,,,,,,,,,,,,,,,0,8,8,6,,,,,,,AMSA14.jpg,AMNE20.jpg,AMNE09.jpg,AMSA19.jpg,AMNE09.jpg,MN,1,num_2,16,num_2,1.2502414363,,,2018_Mar_07_1613,59.9982103215,MAFE4ImagesEEG,001,203063,
AMNE23.JPG,AMNE24.JPG,AMNE22.JPG,AMSA24.JPG,AMSA22.JPG,AMSA23.JPG,,,,,,,,,,,,,,,,,0,9,9,9,,,,,,,AMSA14.jpg,AMNE02.jpg,AMNE13.jpg,AMSA20.jpg,AMSA14.jpg,MS,2,num_8,16,num_8,1.03377797361,,,2018_Mar_07_1613,59.9982103215,MAFE4ImagesEEG,001,203063,
AMSA21.JPG,AMNE22.JPG,AMNE21.JPG,AMSA23.JPG,AMSA22.JPG,AMNE23.JPG,,,,,,,,,,,,,,,,,,,,,0,0,0,1,,,AFNE04.jpg,AFSA10.jpg,AFNE08.jpg,AFSA01.jpg,AFNE08.jpg,FN,3,num_2,32,num_6,0.883424246684,,,2018_Mar_07_1613,59.9982103215,MAFE4ImagesEEG,001,203063,
AFSA21.JPG,AFNE23.JPG,AFNE21.JPG,AFSA25.JPG,AFNE25.JPG,AFSA23.JPG,,,,,,,,,,,,,,,,,,,,,0,1,1,4,,,AFSA14.jpg,AFNE20.jpg,AFNE06.jpg,AFSA17.jpg,AFNE20.jpg,FN,3,num_6,32,num_8,0.950128632365,,,2018_Mar_07_1613,59.9982103215,MAFE4ImagesEEG,001,203063,
AFNE23.JPG,AFNE24.JPG,AFNE22.JPG,AFSA24.JPG,AFSA22.JPG,AFSA23.JPG,,,,,,,,,,,,,,,,,,,,,0,2,2,8,,,AFSA07.jpg,AFSA20.jpg,AFNE08.jpg,AFNE15.jpg,AFSA07.jpg,FS,4,num_8,32,num_4,1.01680447208,,,2018_Mar_07_1613,59.9982103215,MAFE4ImagesEEG,001,203063,
AFSA25.JPG,AFNE24.JPG,AFSA24.JPG,AFNE21.JPG,AFSA21.JPG,AFNE25.JPG,,,,,,,,,,,,,,,,,,,,,0,3,3,2,,,AFNE15.jpg,AFSA10.jpg,AFNE09.jpg,AFSA09.jpg,AFNE09.jpg,FN,3,num_2,32,num_8,0.750153393485,,,2018_Mar_07_1613,59.9982103215,MAFE4ImagesEEG,001,203063,
AMNE23.JPG,AMNE24.JPG,AMNE22.JPG,AMSA24.JPG,AMSA22.JPG,AMSA23.JPG,,,,,,,,,,,,,,,,,,,,,0,4,4,9,,,AFNE19.jpg,AFSA16.jpg,AFSA04.jpg,AFNE07.jpg,AFSA04.jpg,FS,4,num_2,32,num_4,0.716683329083,,,2018_Mar_07_1613,59.9982103215,MAFE4ImagesEEG,001,203063,
AMNE22.JPG,AMSA24.JPG,AMSA22.JPG,AMNE25.JPG,AMNE24.JPG,AMSA25.JPG,,,,,,,,,,,,,,,,,,,,,0,5,5,7,,,AFSA15.jpg,AFNE12.jpg,AFNE03.jpg,AFSA02.jpg,AFSA15.jpg,FS,4,num_8,16,num_8,0.900136987679,,,2018_Mar_07_1613,59.9982103215,MAFE4ImagesEEG,001,203063,
AFSA21.JPG,AFNE22.JPG,AFNE21.JPG,AFSA23.JPG,AFSA22.JPG,AFNE23.JPG,,,,,,,,,,,,,,,,,,,,,0,6,6,0,,,AFNE12.jpg,AFNE02.jpg,AFSA18.jpg,AFSA01.jpg,AFSA18.jpg,FS,4,num_2,16,num_2,2.06650873483,,,2018_Mar_07_1613,59.9982103215,MAFE4ImagesEEG,001,203063,
AFNE22.JPG,AFSA24.JPG,AFSA22.JPG,AFNE25.JPG,AFNE24.JPG,AFSA25.JPG,,,,,,,,,,,,,,,,,,,,,0,7,7,6,,,AFNE14.jpg,AFNE16.jpg,AFSA15.jpg,AFSA02.jpg,AFNE14.jpg,FN,3,num_8,32,num_6,1.68339961395,,,2018_Mar_07_1613,59.9982103215,MAFE4ImagesEEG,001,203063,
AMSA25.JPG,AMNE24.JPG,AMSA24.JPG,AMNE26.JPG,AMSA21.JPG,AMNE25.JPG,,,,,,,,,,,,,,,,,,,,,0,8,8,3,,,AFNE02.jpg,AFSA07.jpg,AFNE08.jpg,AFSA08.jpg,AFNE08.jpg,FN,3,num_2,32,num_4,1.35006628069,,,2018_Mar_07_1613,59.9982103215,MAFE4ImagesEEG,001,203063,
AMSA21.JPG,AMNE23.JPG,AMNE21.JPG,AMSA25.JPG,AMNE25.JPG,AMSA23.JPG,,,,,,,,,,,,,,,,,,,,,0,9,9,5,,,AFNE07.jpg,AFSA18.jpg,AFNE06.jpg,AFSA04.jpg,AFNE06.jpg,FN,3,num_2,32,num_8,1.51674272981,,,2018_Mar_07_1613,59.9982103215,MAFE4ImagesEEG,001,203063,
,,,,,,,,,,,,,,,,,,,,,,,,,,,,,,,,,,,,,,,,,,,space,8.6997691642,2018_Mar_07_1613,59.9982103215,MAFE4ImagesEEG,001,203063,
AFNE01.JPG,AFNE01.JPG,AFNE01.JPG,AFNE01.JPG,AFNE01.JPG,AFNE01.JPG,0,0,0,7,,,,,,,,,,,,,,,,,,,,,,,AMSA19.jpg,AMNE14.jpg,AMSA18.jpg,AMNE18.jpg,AMSA19.jpg,MS,2,num_8,16,num_8,0.850099156378,,,2018_Mar_07_1613,59.9982103215,MAFE4ImagesEEG,001,203063,
AFNE01.JPG,AFNE01.JPG,AFNE01.JPG,AFNE01.JPG,AFNE01.JPG,AFNE01.JPG,0,1,1,8,,,,,,,,,,,,,,,,,,,,,,,AMSA17.jpg,AMNE17.jpg,AMSA02.jpg,AMNE19.jpg,AMSA02.jpg,MS,2,num_2,32,num_4,1.0501600327,,,2018_Mar_07_1613,59.9982103215,MAFE4ImagesEEG,001,203063,
AFNE01.JPG,AFNE01.JPG,AFNE01.JPG,AFNE01.JPG,AFNE01.JPG,AFNE01.JPG,0,2,2,9,,,,,,,,,,,,,,,,,,,,,,,AMNE19.jpg,AMSA19.jpg,AMNE15.jpg,AMSA07.jpg,AMNE15.jpg,MN,1,num_2,32,num_8,0.783456352772,,,2018_Mar_07_1613,59.9982103215,MAFE4ImagesEEG,001,203063,
AFNE01.JPG,AFNE01.JPG,AFNE01.JPG,AFNE01.JPG,AFNE01.JPG,AFNE01.JPG,0,3,3,3,,,,,,,,,,,,,,,,,,,,,,,AMSA06.jpg,AMNE05.jpg,AMNE09.jpg,AMSA17.jpg,AMSA17.jpg,MS,2,num_4,32,num_2,1.95003144862,,,2018_Mar_07_1613,59.9982103215,MAFE4ImagesEEG,001,203063,
AFNE01.JPG,AFNE01.JPG,AFNE01.JPG,AFNE01.JPG,AFNE01.JPG,AFNE01.JPG,0,4,4,6,,,,,,,,,,,,,,,,,,,,,,,AMNE03.jpg,AMNE16.jpg,AMSA15.jpg,AMSA09.jpg,AMSA09.jpg,MS,2,num_4,32,num_6,0.850154965185,,,2018_Mar_07_1613,59.9982103215,MAFE4ImagesEEG,001,203063,
AFNE01.JPG,AFNE01.JPG,AFNE01.JPG,AFNE01.JPG,AFNE01.JPG,AFNE01.JPG,0,5,5,2,,,,,,,,,,,,,,,,,,,,,,,AMNE14.jpg,AMNE15.jpg,AMSA19.jpg,AMSA09.jpg,AMSA09.jpg,MS,2,num_4,32,num_8,1.18343120674,,,2018_Mar_07_1613,59.9982103215,MAFE4ImagesEEG,001,203063,
AFNE01.JPG,AFNE01.JPG,AFNE01.JPG,AFNE01.JPG,AFNE01.JPG,AFNE01.JPG,0,6,6,5,,,,,,,,,,,,,,,,,,,,,,,AMSA06.jpg,AMNE20.jpg,AMNE04.jpg,AMSA17.jpg,AMSA17.jpg,MS,2,num_4,32,num_2,1.64976950106,,,2018_Mar_07_1613,59.9982103215,MAFE4ImagesEEG,001,203063,
AFNE01.JPG,AFNE01.JPG,AFNE01.JPG,AFNE01.JPG,AFNE01.JPG,AFNE01.JPG,0,7,7,0,,,,,,,,,,,,,,,,,,,,,,,AMSA03.jpg,AMNE14.jpg,AMSA12.jpg,AMNE08.jpg,AMNE08.jpg,MN,1,num_4,32,num_6,1.71673272271,,,2018_Mar_07_1613,59.9982103215,MAFE4ImagesEEG,001,203063,
AFNE01.JPG,AFNE01.JPG,AFNE01.JPG,AFNE01.JPG,AFNE01.JPG,AFNE01.JPG,0,8,8,4,,,,,,,,,,,,,,,,,,,,,,,AMSA14.jpg,AMSA20.jpg,AMNE16.jpg,AMNE13.jpg,AMNE16.jpg,MN,1,num_2,32,num_4,1.50039017899,,,2018_Mar_07_1613,59.9982103215,MAFE4ImagesEEG,001,203063,
AFNE01.JPG,AFNE01.JPG,AFNE01.JPG,AFNE01.JPG,AFNE01.JPG,AFNE01.JPG,0,9,9,1,,,,,,,,,,,,,,,,,,,,,,,AMSA14.jpg,AMNE05.jpg,AMSA08.jpg,AMNE04.jpg,AMSA08.jpg,MS,2,num_2,16,num_2,2.40002520988,,,2018_Mar_07_1613,59.9982103215,MAFE4ImagesEEG,001,203063,
AFNE01.JPG,AFNE01.JPG,AFNE01.JPG,AFNE01.JPG,AFNE01.JPG,AFNE01.JPG,1,0,10,5,,,,,,,,,,,,,,,,,,,,,,,AMSA19.jpg,AMNE03.jpg,AMNE10.jpg,AMSA01.jpg,AMSA01.jpg,MS,2,num_4,32,num_8,3.43324317364,,,2018_Mar_07_1613,59.9982103215,MAFE4ImagesEEG,001,203063,
AFNE01.JPG,AFNE01.JPG,AFNE01.JPG,AFNE01.JPG,AFNE01.JPG,AFNE01.JPG,1,1,11,6,,,,,,,,,,,,,,,,,,,,,,,AMNE12.jpg,AMNE20.jpg,AMSA18.jpg,AMSA10.jpg,AMSA10.jpg,MS,2,num_4,16,num_4,1.13332986925,,,2018_Mar_07_1613,59.9982103215,MAFE4ImagesEEG,001,203063,
AFNE01.JPG,AFNE01.JPG,AFNE01.JPG,AFNE01.JPG,AFNE01.JPG,AFNE01.JPG,1,2,12,8,,,,,,,,,,,,,,,,,,,,,,,AMNE04.jpg,AMNE15.jpg,AMSA17.jpg,AMSA12.jpg,AMNE15.jpg,MN,1,num_6,16,num_6,0.60014798888,,,2018_Mar_07_1613,59.9982103215,MAFE4ImagesEEG,001,203063,
AFNE01.JPG,AFNE01.JPG,AFNE01.JPG,AFNE01.JPG,AFNE01.JPG,AFNE01.JPG,1,3,13,2,,,,,,,,,,,,,,,,,,,,,,,AMNE19.jpg,AMSA02.jpg,AMNE17.jpg,AMSA03.jpg,AMNE19.jpg,MN,1,num_8,16,num_8,2.68329954357,,,2018_Mar_07_1613,59.9982103215,MAFE4ImagesEEG,001,203063,
AFNE01.JPG,AFNE01.JPG,AFNE01.JPG,AFNE01.JPG,AFNE01.JPG,AFNE01.JPG,1,4,14,9,,,,,,,,,,,,,,,,,,,,,,,AMSA10.jpg,AMSA19.jpg,AMNE19.jpg,AMNE03.jpg,AMNE03.jpg,MN,1,num_4,32,num_6,3.7665909403,,,2018_Mar_07_1613,59.9982103215,MAFE4ImagesEEG,001,203063,
AFNE01.JPG,AFNE01.JPG,AFNE01.JPG,AFNE01.JPG,AFNE01.JPG,AFNE01.JPG,1,5,15,4,,,,,,,,,,,,,,,,,,,,,,,AMNE20.jpg,AMNE10.jpg,AMSA01.jpg,AMSA16.jpg,AMNE10.jpg,MN,1,num_6,32,num_4,1.98336808523,,,2018_Mar_07_1613,59.9982103215,MAFE4ImagesEEG,001,203063,
AFNE01.JPG,AFNE01.JPG,AFNE01.JPG,AFNE01.JPG,AFNE01.JPG,AFNE01.JPG,1,6,16,7,,,,,,,,,,,,,,,,,,,,,,,AMNE17.jpg,AMSA06.jpg,AMNE12.jpg,AMSA18.jpg,AMNE12.jpg,MN,1,num_2,16,num_2,3.84987624292,,,2018_Mar_07_1613,59.9982103215,MAFE4ImagesEEG,001,203063,
AFNE01.JPG,AFNE01.JPG,AFNE01.JPG,AFNE01.JPG,AFNE01.JPG,AFNE01.JPG,1,7,17,0,,,,,,,,,,,,,,,,,,,,,,,AMNE17.jpg,AMNE01.jpg,AMSA03.jpg,AMSA01.jpg,AMSA03.jpg,MS,2,num_2,32,num_8,2.63357282919,,,2018_Mar_07_1613,59.9982103215,MAFE4ImagesEEG,001,203063,
AFNE01.JPG,AFNE01.JPG,AFNE01.JPG,AFNE01.JPG,AFNE01.JPG,AFNE01.JPG,1,8,18,1,,,,,,,,,,,,,,,,,,,,,,,AMSA11.jpg,AMNE20.jpg,AMSA02.jpg,AMNE16.jpg,AMNE16.jpg,MN,1,num_4,16,num_4,0.816791706719,,,2018_Mar_07_1613,59.9982103215,MAFE4ImagesEEG,001,203063,
AFNE01.JPG,AFNE01.JPG,AFNE01.JPG,AFNE01.JPG,AFNE01.JPG,AFNE01.JPG,1,9,19,3,,,,,,,,,,,,,,,,,,,,,,,AMNE09.jpg,AMSA17.jpg,AMNE12.jpg,AMSA02.jpg,AMSA17.jpg,MS,2,num_6,16,num_6,1.20008910121,,,2018_Mar_07_1613,59.9982103215,MAFE4ImagesEEG,001,203063,
AFNE01.JPG,AFNE01.JPG,AFNE01.JPG,AFNE01.JPG,AFNE01.JPG,AFNE01.JPG,2,0,20,2,,,,,,,,,,,,,,,,,,,,,,,AMSA06.jpg,AMNE01.jpg,AMSA11.jpg,AMNE20.jpg,AMNE20.jpg,MN,1,num_4,32,num_8,1.11676466838,,,2018_Mar_07_1613,59.9982103215,MAFE4ImagesEEG,001,203063,
AFNE01.JPG,AFNE01.JPG,AFNE01.JPG,AFNE01.JPG,AFNE01.JPG,AFNE01.JPG,2,1,21,9,,,,,,,,,,,,,,,,,,,,,,,AMNE05.jpg,AMSA16.jpg,AMNE15.jpg,AMSA02.jpg,AMNE15.jpg,MN,1,num_2,16,num_2,2.65003090329,,,2018_Mar_07_1613,59.9982103215,MAFE4ImagesEEG,001,203063,
AFNE01.JPG,AFNE01.JPG,AFNE01.JPG,AFNE01.JPG,AFNE01.JPG,AFNE01.JPG,2,2,22,1,,,,,,,,,,,,,,,,,,,,,,,AMNE12.jpg,AMSA01.jpg,AMNE02.jpg,AMSA12.jpg,AMSA12.jpg,MS,2,num_4,16,num_4,3.94990186999,,,2018_Mar_07_1613,59.9982103215,MAFE4ImagesEEG,001,203063,
AFNE01.JPG,AFNE01.JPG,AFNE01.JPG,AFNE01.JPG,AFNE01.JPG,AFNE01.JPG,2,3,23,3,,,,,,,,,,,,,,,,,,,,,,,AMNE08.jpg,AMSA10.jpg,AMNE19.jpg,AMSA05.jpg,AMSA05.jpg,MS,2,num_4,16,num_4,2.81666469411,,,2018_Mar_07_1613,59.9982103215,MAFE4ImagesEEG,001,203063,
AFNE01.JPG,AFNE01.JPG,AFNE01.JPG,AFNE01.JPG,AFNE01.JPG,AFNE01.JPG,2,4,24,8,,,,,,,,,,,,,,,,,,,,,,,AMSA01.jpg,AMSA17.jpg,AMNE05.jpg,AMNE18.jpg,AMSA17.jpg,MS,2,num_6,32,num_4,4.84978739824,,,2018_Mar_07_1613,59.9982103215,MAFE4ImagesEEG,001,203063,
AFNE01.JPG,AFNE01.JPG,AFNE01.JPG,AFNE01.JPG,AFNE01.JPG,AFNE01.JPG,2,5,25,5,,,,,,,,,,,,,,,,,,,,,,,AMSA19.jpg,AMNE05.jpg,AMNE20.jpg,AMSA06.jpg,AMNE20.jpg,MN,1,num_2,32,num_6,0.616871314123,,,2018_Mar_07_1613,59.9982103215,MAFE4ImagesEEG,001,203063,
AFNE01.JPG,AFNE01.JPG,AFNE01.JPG,AFNE01.JPG,AFNE01.JPG,AFNE01.JPG,2,6,26,0,,,,,,,,,,,,,,,,,,,,,,,AMSA19.jpg,AMNE07.jpg,AMSA02.jpg,AMNE18.jpg,AMNE07.jpg,MN,1,num_6,32,num_8,1.03339853953,,,2018_Mar_07_1613,59.9982103215,MAFE4ImagesEEG,001,203063,
AFNE01.JPG,AFNE01.JPG,AFNE01.JPG,AFNE01.JPG,AFNE01.JPG,AFNE01.JPG,2,7,27,4,,,,,,,,,,,,,,,,,,,,,,,AMSA02.jpg,AMSA08.jpg,AMNE05.jpg,AMNE06.jpg,AMSA02.jpg,MS,2,num_8,32,num_6,1.43346448336,,,2018_Mar_07_1613,59.9982103215,MAFE4ImagesEEG,001,203063,
AFNE01.JPG,AFNE01.JPG,AFNE01.JPG,AFNE01.JPG,AFNE01.JPG,AFNE01.JPG,2,8,28,7,,,,,,,,,,,,,,,,,,,,,,,AMSA14.jpg,AMSA11.jpg,AMNE17.jpg,AMNE07.jpg,AMNE17.jpg,MN,1,num_2,32,num_4,2.93326867232,,,2018_Mar_07_1613,59.9982103215,MAFE4ImagesEEG,001,203063,
AFNE01.JPG,AFNE01.JPG,AFNE01.JPG,AFNE01.JPG,AFNE01.JPG,AFNE01.JPG,2,9,29,6,,,,,,,,,,,,,,,,,,,,,,,AMNE16.jpg,AMSA11.jpg,AMNE05.jpg,AMSA16.jpg,AMSA11.jpg,MS,2,num_6,16,num_6,3.1666369983,,,2018_Mar_07_1613,59.9982103215,MAFE4ImagesEEG,001,203063,
AFNE01.JPG,AFNE01.JPG,AFNE01.JPG,AFNE01.JPG,AFNE01.JPG,AFNE01.JPG,3,0,30,4,,,,,,,,,,,,,,,,,,,,,,,AMNE04.jpg,AMSA04.jpg,AMSA08.jpg,AMNE11.jpg,AMNE04.jpg,MN,1,num_8,16,num_8,1.65008607041,,,2018_Mar_07_1613,59.9982103215,MAFE4ImagesEEG,001,203063,
AFNE01.JPG,AFNE01.JPG,AFNE01.JPG,AFNE01.JPG,AFNE01.JPG,AFNE01.JPG,3,1,31,8,,,,,,,,,,,,,,,,,,,,,,,AMSA02.jpg,AMNE16.jpg,AMSA06.jpg,AMNE10.jpg,AMSA02.jpg,MS,2,num_8,32,num_4,1.61670132237,,,2018_Mar_07_1613,59.9982103215,MAFE4ImagesEEG,001,203063,
AFNE01.JPG,AFNE01.JPG,AFNE01.JPG,AFNE01.JPG,AFNE01.JPG,AFNE01.JPG,3,2,32,5,,,,,,,,,,,,,,,,,,,,,,,AMSA04.jpg,AMNE02.jpg,AMSA01.jpg,AMNE01.jpg,AMSA04.jpg,MS,2,num_8,32,num_6,1.00012123934,,,2018_Mar_07_1613,59.9982103215,MAFE4ImagesEEG,001,203063,
AFNE01.JPG,AFNE01.JPG,AFNE01.JPG,AFNE01.JPG,AFNE01.JPG,AFNE01.JPG,3,3,33,3,,,,,,,,,,,,,,,,,,,,,,,AMSA04.jpg,AMSA11.jpg,AMNE12.jpg,AMNE01.jpg,AMNE01.jpg,MN,1,num_4,32,num_8,0.766777931014,,,2018_Mar_07_1613,59.9982103215,MAFE4ImagesEEG,001,203063,
AFNE01.JPG,AFNE01.JPG,AFNE01.JPG,AFNE01.JPG,AFNE01.JPG,AFNE01.JPG,3,4,34,2,,,,,,,,,,,,,,,,,,,,,,,AMSA05.jpg,AMSA04.jpg,AMNE05.jpg,AMNE19.jpg,AMNE05.jpg,MN,1,num_2,16,num_2,1.0501956346,,,2018_Mar_07_1613,59.9982103215,MAFE4ImagesEEG,001,203063,
AFNE01.JPG,AFNE01.JPG,AFNE01.JPG,AFNE01.JPG,AFNE01.JPG,AFNE01.JPG,3,5,35,7,,,,,,,,,,,,,,,,,,,,,,,AMNE18.jpg,AMSA16.jpg,AMSA09.jpg,AMNE02.jpg,AMSA09.jpg,MS,2,num_2,32,num_6,1.13343090215,,,2018_Mar_07_1613,59.9982103215,MAFE4ImagesEEG,001,203063,
AFNE01.JPG,AFNE01.JPG,AFNE01.JPG,AFNE01.JPG,AFNE01.JPG,AFNE01.JPG,3,6,36,9,,,,,,,,,,,,,,,,,,,,,,,AMNE17.jpg,AMSA11.jpg,AMSA06.jpg,AMNE10.jpg,AMSA06.jpg,MS,2,num_2,32,num_8,0.900136666838,,,2018_Mar_07_1613,59.9982103215,MAFE4ImagesEEG,001,203063,
AFNE01.JPG,AFNE01.JPG,AFNE01.JPG,AFNE01.JPG,AFNE01.JPG,AFNE01.JPG,3,7,37,1,,,,,,,,,,,,,,,,,,,,,,,AMNE07.jpg,AMSA03.jpg,AMSA17.jpg,AMNE18.jpg,AMSA03.jpg,MS,2,num_6,32,num_8,1.2167444299,,,2018_Mar_07_1613,59.9982103215,MAFE4ImagesEEG,001,203063,
AFNE01.JPG,AFNE01.JPG,AFNE01.JPG,AFNE01.JPG,AFNE01.JPG,AFNE01.JPG,3,8,38,0,,,,,,,,,,,,,,,,,,,,,,,AMNE11.jpg,AMNE19.jpg,AMSA20.jpg,AMSA09.jpg,AMSA09.jpg,MS,2,num_4,32,num_8,1.65006073192,,,2018_Mar_07_1613,59.9982103215,MAFE4ImagesEEG,001,203063,
AFNE01.JPG,AFNE01.JPG,AFNE01.JPG,AFNE01.JPG,AFNE01.JPG,AFNE01.JPG,3,9,39,6,,,,,,,,,,,,,,,,,,,,,,,AMNE03.jpg,AMNE20.jpg,AMSA14.jpg,AMSA10.jpg,AMNE03.jpg,MN,1,num_8,32,num_6,4.21648302767,,,2018_Mar_07_1613,59.9982103215,MAFE4ImagesEEG,001,203063,
AFNE01.JPG,AFNE01.JPG,AFNE01.JPG,AFNE01.JPG,AFNE01.JPG,AFNE01.JPG,4,0,40,4,,,,,,,,,,,,,,,,,,,,,,,AMNE20.jpg,AMSA20.jpg,AMNE02.jpg,AMSA14.jpg,AMSA20.jpg,MS,2,num_6,32,num_8,2.08335137507,,,2018_Mar_07_1613,59.9982103215,MAFE4ImagesEEG,001,203063,
AFNE01.JPG,AFNE01.JPG,AFNE01.JPG,AFNE01.JPG,AFNE01.JPG,AFNE01.JPG,4,1,41,1,,,,,,,,,,,,,,,,,,,,,,,AMNE04.jpg,AMSA09.jpg,AMNE15.jpg,AMSA12.jpg,AMNE15.jpg,MN,1,num_2,16,num_2,1.01677977527,,,2018_Mar_07_1613,59.9982103215,MAFE4ImagesEEG,001,203063,
AFNE01.JPG,AFNE01.JPG,AFNE01.JPG,AFNE01.JPG,AFNE01.JPG,AFNE01.JPG,4,2,42,5,,,,,,,,,,,,,,,,,,,,,,,AMNE04.jpg,AMSA04.jpg,AMSA10.jpg,AMNE15.jpg,AMNE04.jpg,MN,1,num_8,32,num_6,1.83302205615,,,2018_Mar_07_1613,59.9982103215,MAFE4ImagesEEG,001,203063,
AFNE01.JPG,AFNE01.JPG,AFNE01.JPG,AFNE01.JPG,AFNE01.JPG,AFNE01.JPG,4,3,43,8,,,,,,,,,,,,,,,,,,,,,,,AMSA04.jpg,AMNE02.jpg,AMSA02.jpg,AMNE09.jpg,AMSA04.jpg,MS,2,num_8,48,None,,,,2018_Mar_07_1613,59.9982103215,MAFE4ImagesEEG,001,203063,
AFNE01.JPG,AFNE01.JPG,AFNE01.JPG,AFNE01.JPG,AFNE01.JPG,AFNE01.JPG,4,4,44,7,,,,,,,,,,,,,,,,,,,,,,,AMNE14.jpg,AMNE04.jpg,AMSA17.jpg,AMSA03.jpg,AMNE14.jpg,MN,1,num_8,16,num_8,0.850142135518,,,2018_Mar_07_1613,59.9982103215,MAFE4ImagesEEG,001,203063,
AFNE01.JPG,AFNE01.JPG,AFNE01.JPG,AFNE01.JPG,AFNE01.JPG,AFNE01.JPG,4,5,45,6,,,,,,,,,,,,,,,,,,,,,,,AMSA18.jpg,AMNE15.jpg,AMNE14.jpg,AMSA12.jpg,AMNE15.jpg,MN,1,num_6,16,num_6,1.06676404295,,,2018_Mar_07_1613,59.9982103215,MAFE4ImagesEEG,001,203063,
AFNE01.JPG,AFNE01.JPG,AFNE01.JPG,AFNE01.JPG,AFNE01.JPG,AFNE01.JPG,4,6,46,0,,,,,,,,,,,,,,,,,,,,,,,AMSA05.jpg,AMNE05.jpg,AMNE09.jpg,AMSA17.jpg,AMNE05.jpg,MN,1,num_6,32,num_4,1.13343346794,,,2018_Mar_07_1613,59.9982103215,MAFE4ImagesEEG,001,203063,
AFNE01.JPG,AFNE01.JPG,AFNE01.JPG,AFNE01.JPG,AFNE01.JPG,AFNE01.JPG,4,7,47,9,,,,,,,,,,,,,,,,,,,,,,,AMSA01.jpg,AMNE20.jpg,AMSA05.jpg,AMNE13.jpg,AMSA01.jpg,MS,2,num_8,32,num_2,1.28341898671,,,2018_Mar_07_1613,59.9982103215,MAFE4ImagesEEG,001,203063,
AFNE01.JPG,AFNE01.JPG,AFNE01.JPG,AFNE01.JPG,AFNE01.JPG,AFNE01.JPG,4,8,48,2,,,,,,,,,,,,,,,,,,,,,,,AMSA15.jpg,AMNE09.jpg,AMSA17.jpg,AMNE07.jpg,AMNE09.jpg,MN,1,num_6,16,num_6,0.90010844171,,,2018_Mar_07_1613,59.9982103215,MAFE4ImagesEEG,001,203063,
AFNE01.JPG,AFNE01.JPG,AFNE01.JPG,AFNE01.JPG,AFNE01.JPG,AFNE01.JPG,4,9,49,3,,,,,,,,,,,,,,,,,,,,,,,AMNE16.jpg,AMSA05.jpg,AMSA03.jpg,AMNE04.jpg,AMNE16.jpg,MN,1,num_8,16,num_8,1.10012858431,,,2018_Mar_07_1613,59.9982103215,MAFE4ImagesEEG,001,203063,
AFNE01.JPG,AFNE01.JPG,AFNE01.JPG,AFNE01.JPG,AFNE01.JPG,AFNE01.JPG,5,0,50,6,,,,,,,,,,,,,,,,,,,,,,,AMSA13.jpg,AMNE05.jpg,AMSA18.jpg,AMNE20.jpg,AMSA18.jpg,MS,2,num_2,32,num_4,1.30017502722,,,2018_Mar_07_1613,59.9982103215,MAFE4ImagesEEG,001,203063,
AFNE01.JPG,AFNE01.JPG,AFNE01.JPG,AFNE01.JPG,AFNE01.JPG,AFNE01.JPG,5,1,51,1,,,,,,,,,,,,,,,,,,,,,,,AMSA05.jpg,AMNE19.jpg,AMNE14.jpg,AMSA20.jpg,AMSA20.jpg,MS,2,num_4,32,num_6,1.6833476543,,,2018_Mar_07_1613,59.9982103215,MAFE4ImagesEEG,001,203063,
AFNE01.JPG,AFNE01.JPG,AFNE01.JPG,AFNE01.JPG,AFNE01.JPG,AFNE01.JPG,5,2,52,9,,,,,,,,,,,,,,,,,,,,,,,AMSA16.jpg,AMSA19.jpg,AMNE15.jpg,AMNE12.jpg,AMSA19.jpg,MS,2,num_6,32,num_8,0.850151116261,,,2018_Mar_07_1613,59.9982103215,MAFE4ImagesEEG,001,203063,
AFNE01.JPG,AFNE01.JPG,AFNE01.JPG,AFNE01.JPG,AFNE01.JPG,AFNE01.JPG,5,3,53,3,,,,,,,,,,,,,,,,,,,,,,,AMNE02.jpg,AMNE01.jpg,AMSA09.jpg,AMSA12.jpg,AMNE02.jpg,MN,1,num_8,32,num_2,1.40010250802,,,2018_Mar_07_1613,59.9982103215,MAFE4ImagesEEG,001,203063,
AFNE01.JPG,AFNE01.JPG,AFNE01.JPG,AFNE01.JPG,AFNE01.JPG,AFNE01.JPG,5,4,54,2,,,,,,,,,,,,,,,,,,,,,,,AMNE01.jpg,AMNE06.jpg,AMSA04.jpg,AMSA03.jpg,AMNE06.jpg,MN,1,num_6,16,num_6,0.93344764458,,,2018_Mar_07_1613,59.9982103215,MAFE4ImagesEEG,001,203063,
AFNE01.JPG,AFNE01.JPG,AFNE01.JPG,AFNE01.JPG,AFNE01.JPG,AFNE01.JPG,5,5,55,5,,,,,,,,,,,,,,,,,,,,,,,AMSA17.jpg,AMNE04.jpg,AMSA20.jpg,AMNE11.jpg,AMNE11.jpg,MN,1,num_4,32,num_2,1.90007604728,,,2018_Mar_07_1613,59.9982103215,MAFE4ImagesEEG,001,203063,
AFNE01.JPG,AFNE01.JPG,AFNE01.JPG,AFNE01.JPG,AFNE01.JPG,AFNE01.JPG,5,6,56,0,,,,,,,,,,,,,,,,,,,,,,,AMNE20.jpg,AMSA12.jpg,AMSA06.jpg,AMNE03.jpg,AMSA12.jpg,MS,2,num_6,32,num_8,0.866793935886,,,2018_Mar_07_1613,59.9982103215,MAFE4ImagesEEG,001,203063,
AFNE01.JPG,AFNE01.JPG,AFNE01.JPG,AFNE01.JPG,AFNE01.JPG,AFNE01.JPG,5,7,57,7,,,,,,,,,,,,,,,,,,,,,,,AMNE18.jpg,AMNE02.jpg,AMSA13.jpg,AMSA18.jpg,AMSA18.jpg,MS,2,num_4,16,num_4,1.0001366348,,,2018_Mar_07_1613,59.9982103215,MAFE4ImagesEEG,001,203063,
AFNE01.JPG,AFNE01.JPG,AFNE01.JPG,AFNE01.JPG,AFNE01.JPG,AFNE01.JPG,5,8,58,4,,,,,,,,,,,,,,,,,,,,,,,AMNE18.jpg,AMSA04.jpg,AMSA19.jpg,AMNE11.jpg,AMSA04.jpg,MS,2,num_6,32,num_8,0.750170071842,,,2018_Mar_07_1613,59.9982103215,MAFE4ImagesEEG,001,203063,
AFNE01.JPG,AFNE01.JPG,AFNE01.JPG,AFNE01.JPG,AFNE01.JPG,AFNE01.JPG,5,9,59,8,,,,,,,,,,,,,,,,,,,,,,,AMNE01.jpg,AMNE19.jpg,AMSA20.jpg,AMSA16.jpg,AMSA20.jpg,MS,2,num_2,16,num_2,0.950131518999,,,2018_Mar_07_1613,59.9982103215,MAFE4ImagesEEG,001,203063,
,,,,,,,,,,,,,,,,,,,,,,,,,,,,,,,,,,,,,,,,,,,space,32.897547021,2018_Mar_07_1613,59.9982103215,MAFE4ImagesEEG,001,203063,
AFNE01.JPG,AFNE01.JPG,AFNE01.JPG,AFNE01.JPG,AFNE01.JPG,AFNE01.JPG,,,,,0,0,0,1,,,,,,,,,,,,,,,,,,,AFSA05.jpg,AFNE14.jpg,AFNE16.jpg,AFSA07.jpg,AFSA05.jpg,FS,4,num_8,32,num_4,1.15012215334,,,2018_Mar_07_1613,59.9982103215,MAFE4ImagesEEG,001,203063,
AFNE01.JPG,AFNE01.JPG,AFNE01.JPG,AFNE01.JPG,AFNE01.JPG,AFNE01.JPG,,,,,0,1,1,8,,,,,,,,,,,,,,,,,,,AFNE10.jpg,AFSA18.jpg,AFSA07.jpg,AFNE12.jpg,AFSA07.jpg,FS,4,num_2,32,num_8,1.18344564014,,,2018_Mar_07_1613,59.9982103215,MAFE4ImagesEEG,001,203063,
AFNE01.JPG,AFNE01.JPG,AFNE01.JPG,AFNE01.JPG,AFNE01.JPG,AFNE01.JPG,,,,,0,2,2,7,,,,,,,,,,,,,,,,,,,AFNE01.jpg,AFNE13.jpg,AFSA10.jpg,AFSA02.jpg,AFSA02.jpg,FS,4,num_4,16,num_4,0.866769239074,,,2018_Mar_07_1613,59.9982103215,MAFE4ImagesEEG,001,203063,
AFNE01.JPG,AFNE01.JPG,AFNE01.JPG,AFNE01.JPG,AFNE01.JPG,AFNE01.JPG,,,,,0,3,3,0,,,,,,,,,,,,,,,,,,,AFNE03.jpg,AFNE10.jpg,AFSA12.jpg,AFSA03.jpg,AFNE03.jpg,FN,3,num_8,16,num_8,0.916776600061,,,2018_Mar_07_1613,59.9982103215,MAFE4ImagesEEG,001,203063,
AFNE01.JPG,AFNE01.JPG,AFNE01.JPG,AFNE01.JPG,AFNE01.JPG,AFNE01.JPG,,,,,0,4,4,2,,,,,,,,,,,,,,,,,,,AFNE14.jpg,AFSA05.jpg,AFSA08.jpg,AFNE19.jpg,AFSA08.jpg,FS,4,num_2,32,num_4,1.55005883961,,,2018_Mar_07_1613,59.9982103215,MAFE4ImagesEEG,001,203063,
AFNE01.JPG,AFNE01.JPG,AFNE01.JPG,AFNE01.JPG,AFNE01.JPG,AFNE01.JPG,,,,,0,5,5,4,,,,,,,,,,,,,,,,,,,AFNE09.jpg,AFNE18.jpg,AFSA19.jpg,AFSA02.jpg,AFNE09.jpg,FN,3,num_8,16,num_8,1.80007351353,,,2018_Mar_07_1613,59.9982103215,MAFE4ImagesEEG,001,203063,
AFNE01.JPG,AFNE01.JPG,AFNE01.JPG,AFNE01.JPG,AFNE01.JPG,AFNE01.JPG,,,,,0,6,6,5,,,,,,,,,,,,,,,,,,,AFSA10.jpg,AFSA08.jpg,AFNE19.jpg,AFNE12.jpg,AFNE12.jpg,FN,3,num_4,16,num_4,3.48296507704,,,2018_Mar_07_1613,59.9982103215,MAFE4ImagesEEG,001,203063,
AFNE01.JPG,AFNE01.JPG,AFNE01.JPG,AFNE01.JPG,AFNE01.JPG,AFNE01.JPG,,,,,0,7,7,3,,,,,,,,,,,,,,,,,,,AFNE13.jpg,AFSA07.jpg,AFNE02.jpg,AFSA01.jpg,AFSA01.jpg,FS,4,num_4,32,num_8,3.89975017658,,,2018_Mar_07_1613,59.9982103215,MAFE4ImagesEEG,001,203063,
AFNE01.JPG,AFNE01.JPG,AFNE01.JPG,AFNE01.JPG,AFNE01.JPG,AFNE01.JPG,,,,,0,8,8,6,,,,,,,,,,,,,,,,,,,AFSA09.jpg,AFNE10.jpg,AFSA10.jpg,AFNE05.jpg,AFSA09.jpg,FS,4,num_8,16,num_8,0.866742938524,,,2018_Mar_07_1613,59.9982103215,MAFE4ImagesEEG,001,203063,
AFNE01.JPG,AFNE01.JPG,AFNE01.JPG,AFNE01.JPG,AFNE01.JPG,AFNE01.JPG,,,,,0,9,9,9,,,,,,,,,,,,,,,,,,,AFSA06.jpg,AFSA14.jpg,AFNE12.jpg,AFNE17.jpg,AFNE12.jpg,FN,3,num_2,32,num_4,2.0166957418,,,2018_Mar_07_1613,59.9982103215,MAFE4ImagesEEG,001,203063,
AFNE01.JPG,AFNE01.JPG,AFNE01.JPG,AFNE01.JPG,AFNE01.JPG,AFNE01.JPG,,,,,1,0,10,4,,,,,,,,,,,,,,,,,,,AFSA20.jpg,AFSA11.jpg,AFNE17.jpg,AFNE08.jpg,AFSA11.jpg,FS,4,num_6,16,num_6,2.30001241271,,,2018_Mar_07_1613,59.9982103215,MAFE4ImagesEEG,001,203063,
AFNE01.JPG,AFNE01.JPG,AFNE01.JPG,AFNE01.JPG,AFNE01.JPG,AFNE01.JPG,,,,,1,1,11,2,,,,,,,,,,,,,,,,,,,AFNE09.jpg,AFSA08.jpg,AFSA16.jpg,AFNE16.jpg,AFSA16.jpg,FS,4,num_2,32,num_4,2.83328955248,,,2018_Mar_07_1613,59.9982103215,MAFE4ImagesEEG,001,203063,
AFNE01.JPG,AFNE01.JPG,AFNE01.JPG,AFNE01.JPG,AFNE01.JPG,AFNE01.JPG,,,,,1,2,12,1,,,,,,,,,,,,,,,,,,,AFNE14.jpg,AFNE20.jpg,AFSA11.jpg,AFSA06.jpg,AFNE20.jpg,FN,3,num_6,32,num_8,1.10008047358,,,2018_Mar_07_1613,59.9982103215,MAFE4ImagesEEG,001,203063,
AFNE01.JPG,AFNE01.JPG,AFNE01.JPG,AFNE01.JPG,AFNE01.JPG,AFNE01.JPG,,,,,1,3,13,8,,,,,,,,,,,,,,,,,,,AFSA20.jpg,AFNE14.jpg,AFNE19.jpg,AFSA04.jpg,AFSA20.jpg,FS,4,num_8,32,num_6,3.18328045961,,,2018_Mar_07_1613,59.9982103215,MAFE4ImagesEEG,001,203063,
AFNE01.JPG,AFNE01.JPG,AFNE01.JPG,AFNE01.JPG,AFNE01.JPG,AFNE01.JPG,,,,,1,4,14,6,,,,,,,,,,,,,,,,,,,AFNE08.jpg,AFNE14.jpg,AFSA03.jpg,AFSA10.jpg,AFNE14.jpg,FN,3,num_6,48,None,,,,2018_Mar_07_1613,59.9982103215,MAFE4ImagesEEG,001,203063,
AFNE01.JPG,AFNE01.JPG,AFNE01.JPG,AFNE01.JPG,AFNE01.JPG,AFNE01.JPG,,,,,1,5,15,5,,,,,,,,,,,,,,,,,,,AFSA06.jpg,AFSA05.jpg,AFNE06.jpg,AFNE07.jpg,AFNE06.jpg,FN,3,num_2,32,num_6,1.23343375674,,,2018_Mar_07_1613,59.9982103215,MAFE4ImagesEEG,001,203063,
AFNE01.JPG,AFNE01.JPG,AFNE01.JPG,AFNE01.JPG,AFNE01.JPG,AFNE01.JPG,,,,,1,6,16,3,,,,,,,,,,,,,,,,,,,AFNE19.jpg,AFNE13.jpg,AFSA01.jpg,AFSA08.jpg,AFSA01.jpg,FS,4,num_2,16,num_2,1.61677797907,,,2018_Mar_07_1613,59.9982103215,MAFE4ImagesEEG,001,203063,
AFNE01.JPG,AFNE01.JPG,AFNE01.JPG,AFNE01.JPG,AFNE01.JPG,AFNE01.JPG,,,,,1,7,17,0,,,,,,,,,,,,,,,,,,,AFNE03.jpg,AFNE02.jpg,AFSA17.jpg,AFSA12.jpg,AFSA17.jpg,FS,4,num_2,32,num_4,1.38340644585,,,2018_Mar_07_1613,59.9982103215,MAFE4ImagesEEG,001,203063,
AFNE01.JPG,AFNE01.JPG,AFNE01.JPG,AFNE01.JPG,AFNE01.JPG,AFNE01.JPG,,,,,1,8,18,9,,,,,,,,,,,,,,,,,,,AFNE02.jpg,AFSA06.jpg,AFSA01.jpg,AFNE16.jpg,AFSA06.jpg,FS,4,num_6,16,num_6,1.83332451293,,,2018_Mar_07_1613,59.9982103215,MAFE4ImagesEEG,001,203063,
AFNE01.JPG,AFNE01.JPG,AFNE01.JPG,AFNE01.JPG,AFNE01.JPG,AFNE01.JPG,,,,,1,9,19,7,,,,,,,,,,,,,,,,,,,AFNE09.jpg,AFSA15.jpg,AFNE14.jpg,AFSA18.jpg,AFNE09.jpg,FN,3,num_8,16,num_8,1.16659915121,,,2018_Mar_07_1613,59.9982103215,MAFE4ImagesEEG,001,203063,
AFNE01.JPG,AFNE01.JPG,AFNE01.JPG,AFNE01.JPG,AFNE01.JPG,AFNE01.JPG,,,,,2,0,20,5,,,,,,,,,,,,,,,,,,,AFSA01.jpg,AFSA20.jpg,AFNE20.jpg,AFNE07.jpg,AFSA01.jpg,FS,4,num_8,32,num_4,2.10004294687,,,2018_Mar_07_1613,59.9982103215,MAFE4ImagesEEG,001,203063,
AFNE01.JPG,AFNE01.JPG,AFNE01.JPG,AFNE01.JPG,AFNE01.JPG,AFNE01.JPG,,,,,2,1,21,1,,,,,,,,,,,,,,,,,,,AFSA02.jpg,AFNE14.jpg,AFNE01.jpg,AFSA15.jpg,AFNE01.jpg,FN,3,num_2,16,num_2,1.46659103641,,,2018_Mar_07_1613,59.9982103215,MAFE4ImagesEEG,001,203063,
AFNE01.JPG,AFNE01.JPG,AFNE01.JPG,AFNE01.JPG,AFNE01.JPG,AFNE01.JPG,,,,,2,2,22,0,,,,,,,,,,,,,,,,,,,AFNE02.jpg,AFNE07.jpg,AFSA08.jpg,AFSA17.jpg,AFNE02.jpg,FN,3,num_8,16,num_8,1.45004668343,,,2018_Mar_07_1613,59.9982103215,MAFE4ImagesEEG,001,203063,
AFNE01.JPG,AFNE01.JPG,AFNE01.JPG,AFNE01.JPG,AFNE01.JPG,AFNE01.JPG,,,,,2,3,23,7,,,,,,,,,,,,,,,,,,,AFSA08.jpg,AFSA07.jpg,AFNE10.jpg,AFNE18.jpg,AFSA08.jpg,FS,4,num_8,32,num_6,1.71677890909,,,2018_Mar_07_1613,59.9982103215,MAFE4ImagesEEG,001,203063,
AFNE01.JPG,AFNE01.JPG,AFNE01.JPG,AFNE01.JPG,AFNE01.JPG,AFNE01.JPG,,,,,2,4,24,9,,,,,,,,,,,,,,,,,,,AFSA13.jpg,AFSA15.jpg,AFNE06.jpg,AFNE16.jpg,AFNE16.jpg,FN,3,num_4,16,num_4,2.01668002526,,,2018_Mar_07_1613,59.9982103215,MAFE4ImagesEEG,001,203063,
AFNE01.JPG,AFNE01.JPG,AFNE01.JPG,AFNE01.JPG,AFNE01.JPG,AFNE01.JPG,,,,,2,5,25,2,,,,,,,,,,,,,,,,,,,AFNE13.jpg,AFSA05.jpg,AFNE12.jpg,AFSA13.jpg,AFNE13.jpg,FN,3,num_8,16,num_8,0.800127397524,,,2018_Mar_07_1613,59.9982103215,MAFE4ImagesEEG,001,203063,
AFNE01.JPG,AFNE01.JPG,AFNE01.JPG,AFNE01.JPG,AFNE01.JPG,AFNE01.JPG,,,,,2,6,26,3,,,,,,,,,,,,,,,,,,,AFNE11.jpg,AFNE04.jpg,AFSA08.jpg,AFSA12.jpg,AFSA08.jpg,FS,4,num_2,32,num_6,0.900488196639,,,2018_Mar_07_1613,59.9982103215,MAFE4ImagesEEG,001,203063,
AFNE01.JPG,AFNE01.JPG,AFNE01.JPG,AFNE01.JPG,AFNE01.JPG,AFNE01.JPG,,,,,2,7,27,6,,,,,,,,,,,,,,,,,,,AFSA19.jpg,AFNE15.jpg,AFSA06.jpg,AFNE17.jpg,AFSA06.jpg,FS,4,num_2,16,num_2,1.68351347651,,,2018_Mar_07_1613,59.9982103215,MAFE4ImagesEEG,001,203063,
AFNE01.JPG,AFNE01.JPG,AFNE01.JPG,AFNE01.JPG,AFNE01.JPG,AFNE01.JPG,,,,,2,8,28,8,,,,,,,,,,,,,,,,,,,AFSA07.jpg,AFSA01.jpg,AFNE09.jpg,AFNE14.jpg,AFNE09.jpg,FN,3,num_2,32,num_8,1.70005718758,,,2018_Mar_07_1613,59.9982103215,MAFE4ImagesEEG,001,203063,
AFNE01.JPG,AFNE01.JPG,AFNE01.JPG,AFNE01.JPG,AFNE01.JPG,AFNE01.JPG,,,,,2,9,29,4,,,,,,,,,,,,,,,,,,,AFNE05.jpg,AFNE14.jpg,AFSA07.jpg,AFSA04.jpg,AFNE05.jpg,FN,3,num_8,16,num_8,1.08344438928,,,2018_Mar_07_1613,59.9982103215,MAFE4ImagesEEG,001,203063,
AFNE01.JPG,AFNE01.JPG,AFNE01.JPG,AFNE01.JPG,AFNE01.JPG,AFNE01.JPG,,,,,3,0,30,4,,,,,,,,,,,,,,,,,,,AFNE08.jpg,AFSA03.jpg,AFNE10.jpg,AFSA14.jpg,AFSA14.jpg,FS,4,num_4,32,num_8,1.15013209637,,,2018_Mar_07_1613,59.9982103215,MAFE4ImagesEEG,001,203063,
AFNE01.JPG,AFNE01.JPG,AFNE01.JPG,AFNE01.JPG,AFNE01.JPG,AFNE01.JPG,,,,,3,1,31,8,,,,,,,,,,,,,,,,,,,AFSA05.jpg,AFNE05.jpg,AFNE15.jpg,AFSA01.jpg,AFSA01.jpg,FS,4,num_4,16,num_4,1.71674491093,,,2018_Mar_07_1613,59.9982103215,MAFE4ImagesEEG,001,203063,
AFNE01.JPG,AFNE01.JPG,AFNE01.JPG,AFNE01.JPG,AFNE01.JPG,AFNE01.JPG,,,,,3,2,32,2,,,,,,,,,,,,,,,,,,,AFNE01.jpg,AFSA14.jpg,AFSA18.jpg,AFNE13.jpg,AFSA18.jpg,FS,4,num_2,32,num_6,1.58337976015,,,2018_Mar_07_1613,59.9982103215,MAFE4ImagesEEG,001,203063,
AFNE01.JPG,AFNE01.JPG,AFNE01.JPG,AFNE01.JPG,AFNE01.JPG,AFNE01.JPG,,,,,3,3,33,9,,,,,,,,,,,,,,,,,,,AFSA18.jpg,AFNE09.jpg,AFSA13.jpg,AFNE17.jpg,AFNE17.jpg,FN,3,num_4,16,num_4,0.833480392117,,,2018_Mar_07_1613,59.9982103215,MAFE4ImagesEEG,001,203063,
AFNE01.JPG,AFNE01.JPG,AFNE01.JPG,AFNE01.JPG,AFNE01.JPG,AFNE01.JPG,,,,,3,4,34,3,,,,,,,,,,,,,,,,,,,AFNE05.jpg,AFSA20.jpg,AFSA02.jpg,AFNE13.jpg,AFNE05.jpg,FN,3,num_8,32,num_2,1.20014555124,,,2018_Mar_07_1613,59.9982103215,MAFE4ImagesEEG,001,203063,
AFNE01.JPG,AFNE01.JPG,AFNE01.JPG,AFNE01.JPG,AFNE01.JPG,AFNE01.JPG,,,,,3,5,35,5,,,,,,,,,,,,,,,,,,,AFNE12.jpg,AFSA14.jpg,AFSA10.jpg,AFNE14.jpg,AFSA14.jpg,FS,4,num_6,32,num_8,1.56673373305,,,2018_Mar_07_1613,59.9982103215,MAFE4ImagesEEG,001,203063,
AFNE01.JPG,AFNE01.JPG,AFNE01.JPG,AFNE01.JPG,AFNE01.JPG,AFNE01.JPG,,,,,3,6,36,0,,,,,,,,,,,,,,,,,,,AFNE08.jpg,AFNE06.jpg,AFSA01.jpg,AFSA15.jpg,AFNE08.jpg,FN,3,num_8,32,num_4,1.1668005751,,,2018_Mar_07_1613,59.9982103215,MAFE4ImagesEEG,001,203063,
AFNE01.JPG,AFNE01.JPG,AFNE01.JPG,AFNE01.JPG,AFNE01.JPG,AFNE01.JPG,,,,,3,7,37,1,,,,,,,,,,,,,,,,,,,AFNE15.jpg,AFSA16.jpg,AFNE07.jpg,AFSA04.jpg,AFNE15.jpg,FN,3,num_8,16,num_8,2.10001504282,,,2018_Mar_07_1613,59.9982103215,MAFE4ImagesEEG,001,203063,
AFNE01.JPG,AFNE01.JPG,AFNE01.JPG,AFNE01.JPG,AFNE01.JPG,AFNE01.JPG,,,,,3,8,38,6,,,,,,,,,,,,,,,,,,,AFNE08.jpg,AFNE15.jpg,AFSA19.jpg,AFSA04.jpg,AFNE08.jpg,FN,3,num_8,32,num_6,2.01668932685,,,2018_Mar_07_1613,59.9982103215,MAFE4ImagesEEG,001,203063,
AFNE01.JPG,AFNE01.JPG,AFNE01.JPG,AFNE01.JPG,AFNE01.JPG,AFNE01.JPG,,,,,3,9,39,7,,,,,,,,,,,,,,,,,,,AFSA06.jpg,AFNE17.jpg,AFNE05.jpg,AFSA16.jpg,AFSA06.jpg,FS,4,num_8,16,num_8,2.16660909401,,,2018_Mar_07_1613,59.9982103215,MAFE4ImagesEEG,001,203063,
AFNE01.JPG,AFNE01.JPG,AFNE01.JPG,AFNE01.JPG,AFNE01.JPG,AFNE01.JPG,,,,,4,0,40,1,,,,,,,,,,,,,,,,,,,AFSA08.jpg,AFNE12.jpg,AFNE04.jpg,AFSA06.jpg,AFSA06.jpg,FS,4,num_4,16,num_4,0.816773424624,,,2018_Mar_07_1613,59.9982103215,MAFE4ImagesEEG,001,203063,
AFNE01.JPG,AFNE01.JPG,AFNE01.JPG,AFNE01.JPG,AFNE01.JPG,AFNE01.JPG,,,,,4,1,41,7,,,,,,,,,,,,,,,,,,,AFNE13.jpg,AFNE19.jpg,AFSA15.jpg,AFSA20.jpg,AFNE19.jpg,FN,3,num_6,32,num_4,0.966770489933,,,2018_Mar_07_1613,59.9982103215,MAFE4ImagesEEG,001,203063,
AFNE01.JPG,AFNE01.JPG,AFNE01.JPG,AFNE01.JPG,AFNE01.JPG,AFNE01.JPG,,,,,4,2,42,6,,,,,,,,,,,,,,,,,,,AFNE13.jpg,AFNE18.jpg,AFSA03.jpg,AFSA01.jpg,AFSA03.jpg,FS,4,num_2,32,num_6,2.23333817651,,,2018_Mar_07_1613,59.9982103215,MAFE4ImagesEEG,001,203063,
AFNE01.JPG,AFNE01.JPG,AFNE01.JPG,AFNE01.JPG,AFNE01.JPG,AFNE01.JPG,,,,,4,3,43,4,,,,,,,,,,,,,,,,,,,AFNE08.jpg,AFSA06.jpg,AFSA08.jpg,AFNE03.jpg,AFSA06.jpg,FS,4,num_6,32,num_8,1.03350791149,,,2018_Mar_07_1613,59.9982103215,MAFE4ImagesEEG,001,203063,
AFNE01.JPG,AFNE01.JPG,AFNE01.JPG,AFNE01.JPG,AFNE01.JPG,AFNE01.JPG,,,,,4,4,44,2,,,,,,,,,,,,,,,,,,,AFSA19.jpg,AFSA18.jpg,AFNE06.jpg,AFNE02.jpg,AFSA19.jpg,FS,4,num_8,32,num_2,2.31666581682,,,2018_Mar_07_1613,59.9982103215,MAFE4ImagesEEG,001,203063,
AFNE01.JPG,AFNE01.JPG,AFNE01.JPG,AFNE01.JPG,AFNE01.JPG,AFNE01.JPG,,,,,4,5,45,9,,,,,,,,,,,,,,,,,,,AFNE18.jpg,AFSA01.jpg,AFNE12.jpg,AFSA11.jpg,AFSA11.jpg,FS,4,num_4,16,num_4,1.06678617396,,,2018_Mar_07_1613,59.9982103215,MAFE4ImagesEEG,001,203063,
AFNE01.JPG,AFNE01.JPG,AFNE01.JPG,AFNE01.JPG,AFNE01.JPG,AFNE01.JPG,,,,,4,6,46,3,,,,,,,,,,,,,,,,,,,AFNE05.jpg,AFSA14.jpg,AFNE09.jpg,AFSA19.jpg,AFSA14.jpg,FS,4,num_6,32,num_8,1.3003235294,,,2018_Mar_07_1613,59.9982103215,MAFE4ImagesEEG,001,203063,
AFNE01.JPG,AFNE01.JPG,AFNE01.JPG,AFNE01.JPG,AFNE01.JPG,AFNE01.JPG,,,,,4,7,47,8,,,,,,,,,,,,,,,,,,,AFNE16.jpg,AFNE17.jpg,AFSA03.jpg,AFSA05.jpg,AFNE16.jpg,FN,3,num_8,32,num_6,0.700170087861,,,2018_Mar_07_1613,59.9982103215,MAFE4ImagesEEG,001,203063,
AFNE01.JPG,AFNE01.JPG,AFNE01.JPG,AFNE01.JPG,AFNE01.JPG,AFNE01.JPG,,,,,4,8,48,5,,,,,,,,,,,,,,,,,,,AFSA16.jpg,AFNE08.jpg,AFSA10.jpg,AFNE10.jpg,AFNE10.jpg,FN,3,num_4,32,num_6,0.833461147733,,,2018_Mar_07_1613,59.9982103215,MAFE4ImagesEEG,001,203063,
AFNE01.JPG,AFNE01.JPG,AFNE01.JPG,AFNE01.JPG,AFNE01.JPG,AFNE01.JPG,,,,,4,9,49,0,,,,,,,,,,,,,,,,,,,AFSA06.jpg,AFNE17.jpg,AFNE05.jpg,AFSA02.jpg,AFNE05.jpg,FN,3,num_2,32,num_8,1.78336045193,,,2018_Mar_07_1613,59.9982103215,MAFE4ImagesEEG,001,203063,
AFNE01.JPG,AFNE01.JPG,AFNE01.JPG,AFNE01.JPG,AFNE01.JPG,AFNE01.JPG,,,,,5,0,50,8,,,,,,,,,,,,,,,,,,,AFSA09.jpg,AFNE03.jpg,AFSA13.jpg,AFNE15.jpg,AFSA09.jpg,FS,4,num_8,32,num_2,3.36655835318,,,2018_Mar_07_1613,59.9982103215,MAFE4ImagesEEG,001,203063,
AFNE01.JPG,AFNE01.JPG,AFNE01.JPG,AFNE01.JPG,AFNE01.JPG,AFNE01.JPG,,,,,5,1,51,4,,,,,,,,,,,,,,,,,,,AFSA01.jpg,AFNE05.jpg,AFSA14.jpg,AFNE01.jpg,AFSA14.jpg,FS,4,num_2,32,num_8,1.6667102871,,,2018_Mar_07_1613,59.9982103215,MAFE4ImagesEEG,001,203063,
AFNE01.JPG,AFNE01.JPG,AFNE01.JPG,AFNE01.JPG,AFNE01.JPG,AFNE01.JPG,,,,,5,2,52,5,,,,,,,,,,,,,,,,,,,AFSA02.jpg,AFNE04.jpg,AFSA15.jpg,AFNE16.jpg,AFNE04.jpg,FN,3,num_6,32,num_4,1.43342118384,,,2018_Mar_07_1613,59.9982103215,MAFE4ImagesEEG,001,203063,
AFNE01.JPG,AFNE01.JPG,AFNE01.JPG,AFNE01.JPG,AFNE01.JPG,AFNE01.JPG,,,,,5,3,53,1,,,,,,,,,,,,,,,,,,,AFNE12.jpg,AFSA19.jpg,AFNE01.jpg,AFSA20.jpg,AFNE12.jpg,FN,3,num_8,16,num_8,4.38299012673,,,2018_Mar_07_1613,59.9982103215,MAFE4ImagesEEG,001,203063,
AFNE01.JPG,AFNE01.JPG,AFNE01.JPG,AFNE01.JPG,AFNE01.JPG,AFNE01.JPG,,,,,5,4,54,0,,,,,,,,,,,,,,,,,,,AFSA09.jpg,AFNE12.jpg,AFNE02.jpg,AFSA06.jpg,AFNE02.jpg,FN,3,num_2,48,None,,,,2018_Mar_07_1613,59.9982103215,MAFE4ImagesEEG,001,203063,
AFNE01.JPG,AFNE01.JPG,AFNE01.JPG,AFNE01.JPG,AFNE01.JPG,AFNE01.JPG,,,,,5,5,55,6,,,,,,,,,,,,,,,,,,,AFNE19.jpg,AFSA04.jpg,AFSA19.jpg,AFNE06.jpg,AFSA19.jpg,FS,4,num_2,32,num_8,1.18368683569,,,2018_Mar_07_1613,59.9982103215,MAFE4ImagesEEG,001,203063,
AFNE01.JPG,AFNE01.JPG,AFNE01.JPG,AFNE01.JPG,AFNE01.JPG,AFNE01.JPG,,,,,5,6,56,2,,,,,,,,,,,,,,,,,,,AFSA08.jpg,AFNE16.jpg,AFSA06.jpg,AFNE02.jpg,AFSA06.jpg,FS,4,num_2,32,num_4,0.800144396489,,,2018_Mar_07_1613,59.9982103215,MAFE4ImagesEEG,001,203063,
AFNE01.JPG,AFNE01.JPG,AFNE01.JPG,AFNE01.JPG,AFNE01.JPG,AFNE01.JPG,,,,,5,7,57,3,,,,,,,,,,,,,,,,,,,AFNE06.jpg,AFNE04.jpg,AFSA08.jpg,AFSA19.jpg,AFSA08.jpg,FS,4,num_2,32,num_6,3.34992098599,,,2018_Mar_07_1613,59.9982103215,MAFE4ImagesEEG,001,203063,
AFNE01.JPG,AFNE01.JPG,AFNE01.JPG,AFNE01.JPG,AFNE01.JPG,AFNE01.JPG,,,,,5,8,58,9,,,,,,,,,,,,,,,,,,,AFNE20.jpg,AFSA15.jpg,AFSA05.jpg,AFNE13.jpg,AFNE13.jpg,FN,3,num_4,32,num_8,0.933461115696,,,2018_Mar_07_1613,59.9982103215,MAFE4ImagesEEG,001,203063,
AFNE01.JPG,AFNE01.JPG,AFNE01.JPG,AFNE01.JPG,AFNE01.JPG,AFNE01.JPG,,,,,5,9,59,7,,,,,,,,,,,,,,,,,,,AFNE15.jpg,AFNE17.jpg,AFSA19.jpg,AFSA06.jpg,AFSA19.jpg,FS,4,num_2,32,num_8,1.10010645329,,,2018_Mar_07_1613,59.9982103215,MAFE4ImagesEEG,001,203063,
,,,,,,,,,,,,,,,,,,,,,,,,,,,,,,,,,,,,,,,,,,,space,27.3643545562,2018_Mar_07_1613,59.9982103215,MAFE4ImagesEEG,001,203063,
AFNE01.JPG,AFNE01.JPG,AFNE01.JPG,AFNE01.JPG,AFNE01.JPG,AFNE01.JPG,,,,,,,,,0,0,0,3,,,,,,,,,,,,,,,AMSA02.jpg,AMSA01.jpg,AMNE06.jpg,AMNE08.jpg,AMNE06.jpg,MN,1,num_2,32,num_8,1.10011511319,,,2018_Mar_07_1613,59.9982103215,MAFE4ImagesEEG,001,203063,
AFNE01.JPG,AFNE01.JPG,AFNE01.JPG,AFNE01.JPG,AFNE01.JPG,AFNE01.JPG,,,,,,,,,0,1,1,6,,,,,,,,,,,,,,,AMSA19.jpg,AMSA05.jpg,AMNE04.jpg,AMNE02.jpg,AMSA19.jpg,MS,2,num_8,32,num_6,0.833487127442,,,2018_Mar_07_1613,59.9982103215,MAFE4ImagesEEG,001,203063,
AFNE01.JPG,AFNE01.JPG,AFNE01.JPG,AFNE01.JPG,AFNE01.JPG,AFNE01.JPG,,,,,,,,,0,2,2,4,,,,,,,,,,,,,,,AMNE17.jpg,AMSA09.jpg,AMNE14.jpg,AMSA17.jpg,AMNE14.jpg,MN,1,num_2,16,num_2,1.13350820006,,,2018_Mar_07_1613,59.9982103215,MAFE4ImagesEEG,001,203063,
AFNE01.JPG,AFNE01.JPG,AFNE01.JPG,AFNE01.JPG,AFNE01.JPG,AFNE01.JPG,,,,,,,,,0,3,3,8,,,,,,,,,,,,,,,AMNE18.jpg,AMSA15.jpg,AMSA10.jpg,AMNE14.jpg,AMSA10.jpg,MS,2,num_2,32,num_6,1.4667116343,,,2018_Mar_07_1613,59.9982103215,MAFE4ImagesEEG,001,203063,
AFNE01.JPG,AFNE01.JPG,AFNE01.JPG,AFNE01.JPG,AFNE01.JPG,AFNE01.JPG,,,,,,,,,0,4,4,2,,,,,,,,,,,,,,,AMNE19.jpg,AMSA08.jpg,AMNE10.jpg,AMSA06.jpg,AMSA06.jpg,MS,2,num_4,32,num_8,2.63332714303,,,2018_Mar_07_1613,59.9982103215,MAFE4ImagesEEG,001,203063,
AFNE01.JPG,AFNE01.JPG,AFNE01.JPG,AFNE01.JPG,AFNE01.JPG,AFNE01.JPG,,,,,,,,,0,5,5,0,,,,,,,,,,,,,,,AMNE09.jpg,AMSA02.jpg,AMSA01.jpg,AMNE15.jpg,AMSA01.jpg,MS,2,num_2,32,num_6,1.6167122277,,,2018_Mar_07_1613,59.9982103215,MAFE4ImagesEEG,001,203063,
AFNE01.JPG,AFNE01.JPG,AFNE01.JPG,AFNE01.JPG,AFNE01.JPG,AFNE01.JPG,,,,,,,,,0,6,6,5,,,,,,,,,,,,,,,AMSA20.jpg,AMNE15.jpg,AMSA04.jpg,AMNE05.jpg,AMNE05.jpg,MN,1,num_4,16,num_4,2.06667263247,,,2018_Mar_07_1613,59.9982103215,MAFE4ImagesEEG,001,203063,
AFNE01.JPG,AFNE01.JPG,AFNE01.JPG,AFNE01.JPG,AFNE01.JPG,AFNE01.JPG,,,,,,,,,0,7,7,9,,,,,,,,,,,,,,,AMNE19.jpg,AMSA15.jpg,AMNE04.jpg,AMSA16.jpg,AMSA16.jpg,MS,2,num_4,32,num_6,1.51684247982,,,2018_Mar_07_1613,59.9982103215,MAFE4ImagesEEG,001,203063,
AFNE01.JPG,AFNE01.JPG,AFNE01.JPG,AFNE01.JPG,AFNE01.JPG,AFNE01.JPG,,,,,,,,,0,8,8,1,,,,,,,,,,,,,,,AMNE16.jpg,AMSA11.jpg,AMNE18.jpg,AMSA12.jpg,AMNE18.jpg,MN,1,num_2,16,num_2,1.43343144725,,,2018_Mar_07_1613,59.9982103215,MAFE4ImagesEEG,001,203063,
AFNE01.JPG,AFNE01.JPG,AFNE01.JPG,AFNE01.JPG,AFNE01.JPG,AFNE01.JPG,,,,,,,,,0,9,9,7,,,,,,,,,,,,,,,AMSA02.jpg,AMNE13.jpg,AMNE04.jpg,AMSA17.jpg,AMNE13.jpg,MN,1,num_6,32,num_4,0.816703824326,,,2018_Mar_07_1613,59.9982103215,MAFE4ImagesEEG,001,203063,
AFNE01.JPG,AFNE01.JPG,AFNE01.JPG,AFNE01.JPG,AFNE01.JPG,AFNE01.JPG,,,,,,,,,1,0,10,9,,,,,,,,,,,,,,,AMNE20.jpg,AMNE09.jpg,AMSA04.jpg,AMSA09.jpg,AMNE20.jpg,MN,1,num_8,16,num_8,1.70008348837,,,2018_Mar_07_1613,59.9982103215,MAFE4ImagesEEG,001,203063,
AFNE01.JPG,AFNE01.JPG,AFNE01.JPG,AFNE01.JPG,AFNE01.JPG,AFNE01.JPG,,,,,,,,,1,1,11,3,,,,,,,,,,,,,,,AMSA17.jpg,AMNE12.jpg,AMNE06.jpg,AMSA03.jpg,AMSA17.jpg,MS,2,num_8,16,num_8,1.60006940784,,,2018_Mar_07_1613,59.9982103215,MAFE4ImagesEEG,001,203063,
AFNE01.JPG,AFNE01.JPG,AFNE01.JPG,AFNE01.JPG,AFNE01.JPG,AFNE01.JPG,,,,,,,,,1,2,12,4,,,,,,,,,,,,,,,AMNE07.jpg,AMNE20.jpg,AMSA17.jpg,AMSA15.jpg,AMSA17.jpg,MS,2,num_2,32,num_8,0.816777273547,,,2018_Mar_07_1613,59.9982103215,MAFE4ImagesEEG,001,203063,
AFNE01.JPG,AFNE01.JPG,AFNE01.JPG,AFNE01.JPG,AFNE01.JPG,AFNE01.JPG,,,,,,,,,1,3,13,7,,,,,,,,,,,,,,,AMSA02.jpg,AMSA15.jpg,AMNE09.jpg,AMNE17.jpg,AMNE09.jpg,MN,1,num_2,32,num_6,1.55005980167,,,2018_Mar_07_1613,59.9982103215,MAFE4ImagesEEG,001,203063,
AFNE01.JPG,AFNE01.JPG,AFNE01.JPG,AFNE01.JPG,AFNE01.JPG,AFNE01.JPG,,,,,,,,,1,4,14,0,,,,,,,,,,,,,,,AMNE16.jpg,AMNE18.jpg,AMSA18.jpg,AMSA08.jpg,AMSA08.jpg,MS,2,num_4,32,num_2,3.06658827793,,,2018_Mar_07_1613,59.9982103215,MAFE4ImagesEEG,001,203063,
AFNE01.JPG,AFNE01.JPG,AFNE01.JPG,AFNE01.JPG,AFNE01.JPG,AFNE01.JPG,,,,,,,,,1,5,15,2,,,,,,,,,,,,,,,AMNE09.jpg,AMNE12.jpg,AMSA02.jpg,AMSA01.jpg,AMNE09.jpg,MN,1,num_8,48,None,,,,2018_Mar_07_1613,59.9982103215,MAFE4ImagesEEG,001,203063,
AFNE01.JPG,AFNE01.JPG,AFNE01.JPG,AFNE01.JPG,AFNE01.JPG,AFNE01.JPG,,,,,,,,,1,6,16,5,,,,,,,,,,,,,,,AMSA11.jpg,AMNE04.jpg,AMSA15.jpg,AMNE17.jpg,AMSA11.jpg,MS,2,num_8,32,num_2,0.966756056529,,,2018_Mar_07_1613,59.9982103215,MAFE4ImagesEEG,001,203063,
AFNE01.JPG,AFNE01.JPG,AFNE01.JPG,AFNE01.JPG,AFNE01.JPG,AFNE01.JPG,,,,,,,,,1,7,17,6,,,,,,,,,,,,,,,AMSA08.jpg,AMNE02.jpg,AMSA06.jpg,AMNE06.jpg,AMSA06.jpg,MS,2,num_2,32,num_4,1.15011830465,,,2018_Mar_07_1613,59.9982103215,MAFE4ImagesEEG,001,203063,
AFNE01.JPG,AFNE01.JPG,AFNE01.JPG,AFNE01.JPG,AFNE01.JPG,AFNE01.JPG,,,,,,,,,1,8,18,1,,,,,,,,,,,,,,,AMSA03.jpg,AMNE06.jpg,AMSA17.jpg,AMNE13.jpg,AMNE13.jpg,MN,1,num_4,32,num_6,1.66661470686,,,2018_Mar_07_1613,59.9982103215,MAFE4ImagesEEG,001,203063,
AFNE01.JPG,AFNE01.JPG,AFNE01.JPG,AFNE01.JPG,AFNE01.JPG,AFNE01.JPG,,,,,,,,,1,9,19,8,,,,,,,,,,,,,,,AMNE09.jpg,AMSA19.jpg,AMNE18.jpg,AMSA05.jpg,AMNE18.jpg,MN,1,num_2,32,num_8,2.10003877734,,,2018_Mar_07_1613,59.9982103215,MAFE4ImagesEEG,001,203063,
AFNE01.JPG,AFNE01.JPG,AFNE01.JPG,AFNE01.JPG,AFNE01.JPG,AFNE01.JPG,,,,,,,,,2,0,20,8,,,,,,,,,,,,,,,AMNE17.jpg,AMSA10.jpg,AMNE15.jpg,AMSA17.jpg,AMNE17.jpg,MN,1,num_8,16,num_8,1.0001552375,,,2018_Mar_07_1613,59.9982103215,MAFE4ImagesEEG,001,203063,
AFNE01.JPG,AFNE01.JPG,AFNE01.JPG,AFNE01.JPG,AFNE01.JPG,AFNE01.JPG,,,,,,,,,2,1,21,0,,,,,,,,,,,,,,,AMNE12.jpg,AMSA19.jpg,AMSA20.jpg,AMNE06.jpg,AMSA20.jpg,MS,2,num_2,32,num_4,1.66669745767,,,2018_Mar_07_1613,59.9982103215,MAFE4ImagesEEG,001,203063,
AFNE01.JPG,AFNE01.JPG,AFNE01.JPG,AFNE01.JPG,AFNE01.JPG,AFNE01.JPG,,,,,,,,,2,2,22,1,,,,,,,,,,,,,,,AMSA14.jpg,AMSA13.jpg,AMNE06.jpg,AMNE10.jpg,AMSA14.jpg,MS,2,num_8,16,num_8,0.750130941626,,,2018_Mar_07_1613,59.9982103215,MAFE4ImagesEEG,001,203063,
AFNE01.JPG,AFNE01.JPG,AFNE01.JPG,AFNE01.JPG,AFNE01.JPG,AFNE01.JPG,,,,,,,,,2,3,23,9,,,,,,,,,,,,,,,AMNE08.jpg,AMSA02.jpg,AMSA12.jpg,AMNE05.jpg,AMSA12.jpg,MS,2,num_2,32,num_6,1.10012569767,,,2018_Mar_07_1613,59.9982103215,MAFE4ImagesEEG,001,203063,
AFNE01.JPG,AFNE01.JPG,AFNE01.JPG,AFNE01.JPG,AFNE01.JPG,AFNE01.JPG,,,,,,,,,2,4,24,3,,,,,,,,,,,,,,,AMSA08.jpg,AMNE01.jpg,AMSA12.jpg,AMNE14.jpg,AMNE14.jpg,MN,1,num_4,32,num_8,1.20008204505,,,2018_Mar_07_1613,59.9982103215,MAFE4ImagesEEG,001,203063,
AFNE01.JPG,AFNE01.JPG,AFNE01.JPG,AFNE01.JPG,AFNE01.JPG,AFNE01.JPG,,,,,,,,,2,5,25,5,,,,,,,,,,,,,,,AMNE20.jpg,AMSA06.jpg,AMSA08.jpg,AMNE01.jpg,AMNE01.jpg,MN,1,num_4,16,num_4,1.43344139028,,,2018_Mar_07_1613,59.9982103215,MAFE4ImagesEEG,001,203063,
AFNE01.JPG,AFNE01.JPG,AFNE01.JPG,AFNE01.JPG,AFNE01.JPG,AFNE01.JPG,,,,,,,,,2,6,26,4,,,,,,,,,,,,,,,AMSA12.jpg,AMSA14.jpg,AMNE19.jpg,AMNE06.jpg,AMNE06.jpg,MN,1,num_4,32,num_6,1.01672877767,,,2018_Mar_07_1613,59.9982103215,MAFE4ImagesEEG,001,203063,
AFNE01.JPG,AFNE01.JPG,AFNE01.JPG,AFNE01.JPG,AFNE01.JPG,AFNE01.JPG,,,,,,,,,2,7,27,6,,,,,,,,,,,,,,,AMNE11.jpg,AMSA20.jpg,AMSA13.jpg,AMNE01.jpg,AMNE01.jpg,MN,1,num_4,16,num_4,1.15009809798,,,2018_Mar_07_1613,59.9982103215,MAFE4ImagesEEG,001,203063,
AFNE01.JPG,AFNE01.JPG,AFNE01.JPG,AFNE01.JPG,AFNE01.JPG,AFNE01.JPG,,,,,,,,,2,8,28,7,,,,,,,,,,,,,,,AMSA02.jpg,AMNE13.jpg,AMNE09.jpg,AMSA17.jpg,AMSA17.jpg,MS,2,num_4,32,num_6,1.53348594089,,,2018_Mar_07_1613,59.9982103215,MAFE4ImagesEEG,001,203063,
AFNE01.JPG,AFNE01.JPG,AFNE01.JPG,AFNE01.JPG,AFNE01.JPG,AFNE01.JPG,,,,,,,,,2,9,29,2,,,,,,,,,,,,,,,AMSA16.jpg,AMNE12.jpg,AMNE18.jpg,AMSA10.jpg,AMNE12.jpg,MN,1,num_6,48,None,,,,2018_Mar_07_1613,59.9982103215,MAFE4ImagesEEG,001,203063,
AFNE01.JPG,AFNE01.JPG,AFNE01.JPG,AFNE01.JPG,AFNE01.JPG,AFNE01.JPG,,,,,,,,,3,0,30,6,,,,,,,,,,,,,,,AMNE11.jpg,AMNE07.jpg,AMSA12.jpg,AMSA04.jpg,AMSA04.jpg,MS,2,num_4,16,num_4,1.33340133005,,,2018_Mar_07_1613,59.9982103215,MAFE4ImagesEEG,001,203063,
AFNE01.JPG,AFNE01.JPG,AFNE01.JPG,AFNE01.JPG,AFNE01.JPG,AFNE01.JPG,,,,,,,,,3,1,31,5,,,,,,,,,,,,,,,AMSA04.jpg,AMNE04.jpg,AMSA03.jpg,AMNE15.jpg,AMSA04.jpg,MS,2,num_8,32,num_6,1.68344130996,,,2018_Mar_07_1613,59.9982103215,MAFE4ImagesEEG,001,203063,
AFNE01.JPG,AFNE01.JPG,AFNE01.JPG,AFNE01.JPG,AFNE01.JPG,AFNE01.JPG,,,,,,,,,3,2,32,3,,,,,,,,,,,,,,,AMSA08.jpg,AMNE12.jpg,AMNE11.jpg,AMSA03.jpg,AMNE11.jpg,MN,1,num_2,16,num_2,2.46663818485,,,2018_Mar_07_1613,59.9982103215,MAFE4ImagesEEG,001,203063,
AFNE01.JPG,AFNE01.JPG,AFNE01.JPG,AFNE01.JPG,AFNE01.JPG,AFNE01.JPG,,,,,,,,,3,3,33,7,,,,,,,,,,,,,,,AMNE03.jpg,AMSA17.jpg,AMNE06.jpg,AMSA04.jpg,AMSA17.jpg,MS,2,num_6,32,num_8,1.75005749241,,,2018_Mar_07_1613,59.9982103215,MAFE4ImagesEEG,001,203063,
AFNE01.JPG,AFNE01.JPG,AFNE01.JPG,AFNE01.JPG,AFNE01.JPG,AFNE01.JPG,,,,,,,,,3,4,34,8,,,,,,,,,,,,,,,AMSA20.jpg,AMSA09.jpg,AMNE09.jpg,AMNE20.jpg,AMSA09.jpg,MS,2,num_6,32,num_8,3.31656125584,,,2018_Mar_07_1613,59.9982103215,MAFE4ImagesEEG,001,203063,
AFNE01.JPG,AFNE01.JPG,AFNE01.JPG,AFNE01.JPG,AFNE01.JPG,AFNE01.JPG,,,,,,,,,3,5,35,4,,,,,,,,,,,,,,,AMNE09.jpg,AMNE06.jpg,AMSA09.jpg,AMSA05.jpg,AMSA05.jpg,MS,2,num_4,32,num_8,0.799861825537,,,2018_Mar_07_1613,59.9982103215,MAFE4ImagesEEG,001,203063,
AFNE01.JPG,AFNE01.JPG,AFNE01.JPG,AFNE01.JPG,AFNE01.JPG,AFNE01.JPG,,,,,,,,,3,6,36,1,,,,,,,,,,,,,,,AMNE14.jpg,AMSA11.jpg,AMSA10.jpg,AMNE02.jpg,AMNE14.jpg,MN,1,num_8,16,num_8,2.0999970811,,,2018_Mar_07_1613,59.9982103215,MAFE4ImagesEEG,001,203063,
AFNE01.JPG,AFNE01.JPG,AFNE01.JPG,AFNE01.JPG,AFNE01.JPG,AFNE01.JPG,,,,,,,,,3,7,37,2,,,,,,,,,,,,,,,AMNE05.jpg,AMSA06.jpg,AMSA05.jpg,AMNE04.jpg,AMNE04.jpg,MN,1,num_4,16,num_4,1.96697704564,,,2018_Mar_07_1613,59.9982103215,MAFE4ImagesEEG,001,203063,
AFNE01.JPG,AFNE01.JPG,AFNE01.JPG,AFNE01.JPG,AFNE01.JPG,AFNE01.JPG,,,,,,,,,3,8,38,0,,,,,,,,,,,,,,,AMSA02.jpg,AMNE19.jpg,AMNE08.jpg,AMSA19.jpg,AMNE19.jpg,MN,1,num_6,48,None,,,,2018_Mar_07_1613,59.9982103215,MAFE4ImagesEEG,001,203063,
AFNE01.JPG,AFNE01.JPG,AFNE01.JPG,AFNE01.JPG,AFNE01.JPG,AFNE01.JPG,,,,,,,,,3,9,39,9,,,,,,,,,,,,,,,AMSA06.jpg,AMNE13.jpg,AMNE02.jpg,AMSA09.jpg,AMNE13.jpg,MN,1,num_6,32,num_8,0.800167169189,,,2018_Mar_07_1613,59.9982103215,MAFE4ImagesEEG,001,203063,
AFNE01.JPG,AFNE01.JPG,AFNE01.JPG,AFNE01.JPG,AFNE01.JPG,AFNE01.JPG,,,,,,,,,4,0,40,9,,,,,,,,,,,,,,,AMNE03.jpg,AMSA12.jpg,AMSA01.jpg,AMNE19.jpg,AMSA01.jpg,MS,2,num_2,32,num_4,0.683488779468,,,2018_Mar_07_1613,59.9982103215,MAFE4ImagesEEG,001,203063,
AFNE01.JPG,AFNE01.JPG,AFNE01.JPG,AFNE01.JPG,AFNE01.JPG,AFNE01.JPG,,,,,,,,,4,1,41,0,,,,,,,,,,,,,,,AMNE01.jpg,AMNE06.jpg,AMSA08.jpg,AMSA15.jpg,AMSA15.jpg,MS,2,num_4,32,num_6,0.666821262799,,,2018_Mar_07_1613,59.9982103215,MAFE4ImagesEEG,001,203063,
AFNE01.JPG,AFNE01.JPG,AFNE01.JPG,AFNE01.JPG,AFNE01.JPG,AFNE01.JPG,,,,,,,,,4,2,42,2,,,,,,,,,,,,,,,AMNE03.jpg,AMSA16.jpg,AMSA19.jpg,AMNE20.jpg,AMSA19.jpg,MS,2,num_2,32,num_4,1.5001316634,,,2018_Mar_07_1613,59.9982103215,MAFE4ImagesEEG,001,203063,
AFNE01.JPG,AFNE01.JPG,AFNE01.JPG,AFNE01.JPG,AFNE01.JPG,AFNE01.JPG,,,,,,,,,4,3,43,5,,,,,,,,,,,,,,,AMNE19.jpg,AMNE08.jpg,AMSA15.jpg,AMSA03.jpg,AMSA15.jpg,MS,2,num_2,32,num_8,1.91653540428,,,2018_Mar_07_1613,59.9982103215,MAFE4ImagesEEG,001,203063,
AFNE01.JPG,AFNE01.JPG,AFNE01.JPG,AFNE01.JPG,AFNE01.JPG,AFNE01.JPG,,,,,,,,,4,4,44,4,,,,,,,,,,,,,,,AMSA04.jpg,AMSA09.jpg,AMNE19.jpg,AMNE18.jpg,AMSA04.jpg,MS,2,num_8,32,num_4,1.3834269729,,,2018_Mar_07_1613,59.9982103215,MAFE4ImagesEEG,001,203063,
AFNE01.JPG,AFNE01.JPG,AFNE01.JPG,AFNE01.JPG,AFNE01.JPG,AFNE01.JPG,,,,,,,,,4,5,45,8,,,,,,,,,,,,,,,AMSA04.jpg,AMNE19.jpg,AMNE12.jpg,AMSA19.jpg,AMSA04.jpg,MS,2,num_8,32,num_6,0.566603513202,,,2018_Mar_07_1613,59.9982103215,MAFE4ImagesEEG,001,203063,
AFNE01.JPG,AFNE01.JPG,AFNE01.JPG,AFNE01.JPG,AFNE01.JPG,AFNE01.JPG,,,,,,,,,4,6,46,7,,,,,,,,,,,,,,,AMSA14.jpg,AMNE09.jpg,AMSA07.jpg,AMNE05.jpg,AMSA07.jpg,MS,2,num_2,16,num_2,1.70006584772,,,2018_Mar_07_1613,59.9982103215,MAFE4ImagesEEG,001,203063,
AFNE01.JPG,AFNE01.JPG,AFNE01.JPG,AFNE01.JPG,AFNE01.JPG,AFNE01.JPG,,,,,,,,,4,7,47,3,,,,,,,,,,,,,,,AMSA08.jpg,AMNE06.jpg,AMSA15.jpg,AMNE11.jpg,AMSA15.jpg,MS,2,num_2,48,None,,,,2018_Mar_07_1613,59.9982103215,MAFE4ImagesEEG,001,203063,
AFNE01.JPG,AFNE01.JPG,AFNE01.JPG,AFNE01.JPG,AFNE01.JPG,AFNE01.JPG,,,,,,,,,4,8,48,1,,,,,,,,,,,,,,,AMSA16.jpg,AMNE05.jpg,AMNE13.jpg,AMSA02.jpg,AMSA02.jpg,MS,2,num_4,16,num_4,0.55014704261,,,2018_Mar_07_1613,59.9982103215,MAFE4ImagesEEG,001,203063,
AFNE01.JPG,AFNE01.JPG,AFNE01.JPG,AFNE01.JPG,AFNE01.JPG,AFNE01.JPG,,,,,,,,,4,9,49,6,,,,,,,,,,,,,,,AMNE19.jpg,AMSA06.jpg,AMNE13.jpg,AMSA19.jpg,AMNE19.jpg,MN,1,num_8,16,num_8,2.08336773259,,,2018_Mar_07_1613,59.9982103215,MAFE4ImagesEEG,001,203063,
AFNE01.JPG,AFNE01.JPG,AFNE01.JPG,AFNE01.JPG,AFNE01.JPG,AFNE01.JPG,,,,,,,,,5,0,50,7,,,,,,,,,,,,,,,AMNE07.jpg,AMSA07.jpg,AMSA03.jpg,AMNE02.jpg,AMNE07.jpg,MN,1,num_8,48,None,,,,2018_Mar_07_1613,59.9982103215,MAFE4ImagesEEG,001,203063,
AFNE01.JPG,AFNE01.JPG,AFNE01.JPG,AFNE01.JPG,AFNE01.JPG,AFNE01.JPG,,,,,,,,,5,1,51,1,,,,,,,,,,,,,,,AMSA14.jpg,AMNE09.jpg,AMSA04.jpg,AMNE10.jpg,AMSA04.jpg,MS,2,num_2,32,num_6,0.600131310523,,,2018_Mar_07_1613,59.9982103215,MAFE4ImagesEEG,001,203063,
AFNE01.JPG,AFNE01.JPG,AFNE01.JPG,AFNE01.JPG,AFNE01.JPG,AFNE01.JPG,,,,,,,,,5,2,52,4,,,,,,,,,,,,,,,AMSA15.jpg,AMSA05.jpg,AMNE19.jpg,AMNE05.jpg,AMSA15.jpg,MS,2,num_8,32,num_4,3.56658106134,,,2018_Mar_07_1613,59.9982103215,MAFE4ImagesEEG,001,203063,
AFNE01.JPG,AFNE01.JPG,AFNE01.JPG,AFNE01.JPG,AFNE01.JPG,AFNE01.JPG,,,,,,,,,5,3,53,8,,,,,,,,,,,,,,,AMNE18.jpg,AMSA06.jpg,AMNE15.jpg,AMSA12.jpg,AMSA06.jpg,MS,2,num_6,32,num_2,4.36623536912,,,2018_Mar_07_1613,59.9982103215,MAFE4ImagesEEG,001,203063,
AFNE01.JPG,AFNE01.JPG,AFNE01.JPG,AFNE01.JPG,AFNE01.JPG,AFNE01.JPG,,,,,,,,,5,4,54,6,,,,,,,,,,,,,,,AMNE19.jpg,AMNE01.jpg,AMSA03.jpg,AMSA14.jpg,AMSA03.jpg,MS,2,num_2,32,num_8,2.28321210993,,,2018_Mar_07_1613,59.9982103215,MAFE4ImagesEEG,001,203063,
AFNE01.JPG,AFNE01.JPG,AFNE01.JPG,AFNE01.JPG,AFNE01.JPG,AFNE01.JPG,,,,,,,,,5,5,55,3,,,,,,,,,,,,,,,AMSA10.jpg,AMNE08.jpg,AMNE04.jpg,AMSA15.jpg,AMSA15.jpg,MS,2,num_4,16,num_4,0.550124590984,,,2018_Mar_07_1613,59.9982103215,MAFE4ImagesEEG,001,203063,
AFNE01.JPG,AFNE01.JPG,AFNE01.JPG,AFNE01.JPG,AFNE01.JPG,AFNE01.JPG,,,,,,,,,5,6,56,9,,,,,,,,,,,,,,,AMSA20.jpg,AMNE04.jpg,AMSA10.jpg,AMNE03.jpg,AMSA20.jpg,MS,2,num_8,16,num_8,0.666782132583,,,2018_Mar_07_1613,59.9982103215,MAFE4ImagesEEG,001,203063,
AFNE01.JPG,AFNE01.JPG,AFNE01.JPG,AFNE01.JPG,AFNE01.JPG,AFNE01.JPG,,,,,,,,,5,7,57,2,,,,,,,,,,,,,,,AMSA01.jpg,AMNE09.jpg,AMSA04.jpg,AMNE16.jpg,AMSA01.jpg,MS,2,num_8,16,num_8,2.21667001839,,,2018_Mar_07_1613,59.9982103215,MAFE4ImagesEEG,001,203063,
AFNE01.JPG,AFNE01.JPG,AFNE01.JPG,AFNE01.JPG,AFNE01.JPG,AFNE01.JPG,,,,,,,,,5,8,58,0,,,,,,,,,,,,,,,AMNE12.jpg,AMSA07.jpg,AMSA04.jpg,AMNE10.jpg,AMSA07.jpg,MS,2,num_6,32,num_2,1.28343341989,,,2018_Mar_07_1613,59.9982103215,MAFE4ImagesEEG,001,203063,
AFNE01.JPG,AFNE01.JPG,AFNE01.JPG,AFNE01.JPG,AFNE01.JPG,AFNE01.JPG,,,,,,,,,5,9,59,5,,,,,,,,,,,,,,,AMSA01.jpg,AMNE08.jpg,AMSA15.jpg,AMNE18.jpg,AMNE08.jpg,MN,1,num_6,32,num_2,1.4334038638,,,2018_Mar_07_1613,59.9982103215,MAFE4ImagesEEG,001,203063,
,,,,,,,,,,,,,,,,,,,,,,,,,,,,,,,,,,,,,,,,,,,space,11.2492670314,2018_Mar_07_1613,59.9982103215,MAFE4ImagesEEG,001,203063,
AFNE01.JPG,AFNE01.JPG,AFNE01.JPG,AFNE01.JPG,AFNE01.JPG,AFNE01.JPG,,,,,,,,,,,,,0,0,0,3,,,,,,,,,,,AFNE03.jpg,AFNE14.jpg,AFSA16.jpg,AFSA13.jpg,AFNE14.jpg,FN,3,num_6,32,num_8,0.650203781435,,,2018_Mar_07_1613,59.9982103215,MAFE4ImagesEEG,001,203063,
AFNE01.JPG,AFNE01.JPG,AFNE01.JPG,AFNE01.JPG,AFNE01.JPG,AFNE01.JPG,,,,,,,,,,,,,0,1,1,0,,,,,,,,,,,AFSA06.jpg,AFNE07.jpg,AFSA09.jpg,AFNE03.jpg,AFNE03.jpg,FN,3,num_4,32,num_2,1.15014556726,,,2018_Mar_07_1613,59.9982103215,MAFE4ImagesEEG,001,203063,
AFNE01.JPG,AFNE01.JPG,AFNE01.JPG,AFNE01.JPG,AFNE01.JPG,AFNE01.JPG,,,,,,,,,,,,,0,2,2,6,,,,,,,,,,,AFNE20.jpg,AFNE02.jpg,AFSA05.jpg,AFSA20.jpg,AFSA05.jpg,FS,4,num_2,32,num_4,0.866780785611,,,2018_Mar_07_1613,59.9982103215,MAFE4ImagesEEG,001,203063,
AFNE01.JPG,AFNE01.JPG,AFNE01.JPG,AFNE01.JPG,AFNE01.JPG,AFNE01.JPG,,,,,,,,,,,,,0,3,3,4,,,,,,,,,,,AFNE17.jpg,AFNE15.jpg,AFSA04.jpg,AFSA08.jpg,AFNE17.jpg,FN,3,num_8,32,num_6,1.33369993791,,,2018_Mar_07_1613,59.9982103215,MAFE4ImagesEEG,001,203063,
AFNE01.JPG,AFNE01.JPG,AFNE01.JPG,AFNE01.JPG,AFNE01.JPG,AFNE01.JPG,,,,,,,,,,,,,0,4,4,7,,,,,,,,,,,AFSA08.jpg,AFNE03.jpg,AFSA07.jpg,AFNE15.jpg,AFNE15.jpg,FN,3,num_4,32,num_8,0.55003221822,,,2018_Mar_07_1613,59.9982103215,MAFE4ImagesEEG,001,203063,
AFNE01.JPG,AFNE01.JPG,AFNE01.JPG,AFNE01.JPG,AFNE01.JPG,AFNE01.JPG,,,,,,,,,,,,,0,5,5,9,,,,,,,,,,,AFNE07.jpg,AFSA19.jpg,AFSA07.jpg,AFNE14.jpg,AFNE07.jpg,FN,3,num_8,32,num_6,1.16678838711,,,2018_Mar_07_1613,59.9982103215,MAFE4ImagesEEG,001,203063,
AFNE01.JPG,AFNE01.JPG,AFNE01.JPG,AFNE01.JPG,AFNE01.JPG,AFNE01.JPG,,,,,,,,,,,,,0,6,6,5,,,,,,,,,,,AFSA11.jpg,AFSA09.jpg,AFNE06.jpg,AFNE19.jpg,AFSA11.jpg,FS,4,num_8,32,num_4,2.59984809789,,,2018_Mar_07_1613,59.9982103215,MAFE4ImagesEEG,001,203063,
AFNE01.JPG,AFNE01.JPG,AFNE01.JPG,AFNE01.JPG,AFNE01.JPG,AFNE01.JPG,,,,,,,,,,,,,0,7,7,8,,,,,,,,,,,AFNE18.jpg,AFSA12.jpg,AFNE17.jpg,AFSA18.jpg,AFNE18.jpg,FN,3,num_8,32,num_2,0.950128632365,,,2018_Mar_07_1613,59.9982103215,MAFE4ImagesEEG,001,203063,
AFNE01.JPG,AFNE01.JPG,AFNE01.JPG,AFNE01.JPG,AFNE01.JPG,AFNE01.JPG,,,,,,,,,,,,,0,8,8,2,,,,,,,,,,,AFSA05.jpg,AFNE10.jpg,AFSA03.jpg,AFNE16.jpg,AFSA03.jpg,FS,4,num_2,32,num_6,1.73338195728,,,2018_Mar_07_1613,59.9982103215,MAFE4ImagesEEG,001,203063,
AFNE01.JPG,AFNE01.JPG,AFNE01.JPG,AFNE01.JPG,AFNE01.JPG,AFNE01.JPG,,,,,,,,,,,,,0,9,9,1,,,,,,,,,,,AFNE18.jpg,AFSA12.jpg,AFSA13.jpg,AFNE16.jpg,AFSA13.jpg,FS,4,num_2,32,num_8,1.21674603363,,,2018_Mar_07_1613,59.9982103215,MAFE4ImagesEEG,001,203063,
AFNE01.JPG,AFNE01.JPG,AFNE01.JPG,AFNE01.JPG,AFNE01.JPG,AFNE01.JPG,,,,,,,,,,,,,1,0,10,1,,,,,,,,,,,AFSA04.jpg,AFSA11.jpg,AFNE04.jpg,AFNE10.jpg,AFSA04.jpg,FS,4,num_8,32,num_4,1.73336624121,,,2018_Mar_07_1613,59.9982103215,MAFE4ImagesEEG,001,203063,
AFNE01.JPG,AFNE01.JPG,AFNE01.JPG,AFNE01.JPG,AFNE01.JPG,AFNE01.JPG,,,,,,,,,,,,,1,1,11,3,,,,,,,,,,,AFSA12.jpg,AFNE16.jpg,AFNE18.jpg,AFSA02.jpg,AFNE16.jpg,FN,3,num_6,16,num_6,0.816892418778,,,2018_Mar_07_1613,59.9982103215,MAFE4ImagesEEG,001,203063,
AFNE01.JPG,AFNE01.JPG,AFNE01.JPG,AFNE01.JPG,AFNE01.JPG,AFNE01.JPG,,,,,,,,,,,,,1,2,12,2,,,,,,,,,,,AFSA09.jpg,AFNE19.jpg,AFNE02.jpg,AFSA18.jpg,AFSA09.jpg,FS,4,num_8,32,num_4,0.633475003764,,,2018_Mar_07_1613,59.9982103215,MAFE4ImagesEEG,001,203063,
AFNE01.JPG,AFNE01.JPG,AFNE01.JPG,AFNE01.JPG,AFNE01.JPG,AFNE01.JPG,,,,,,,,,,,,,1,3,13,8,,,,,,,,,,,AFSA02.jpg,AFNE10.jpg,AFSA10.jpg,AFNE14.jpg,AFNE10.jpg,FN,3,num_6,32,num_8,0.50024231826,,,2018_Mar_07_1613,59.9982103215,MAFE4ImagesEEG,001,203063,
AFNE01.JPG,AFNE01.JPG,AFNE01.JPG,AFNE01.JPG,AFNE01.JPG,AFNE01.JPG,,,,,,,,,,,,,1,4,14,7,,,,,,,,,,,AFNE07.jpg,AFNE04.jpg,AFSA12.jpg,AFSA10.jpg,AFNE07.jpg,FN,3,num_8,16,num_8,2.34999379376,,,2018_Mar_07_1613,59.9982103215,MAFE4ImagesEEG,001,203063,
AFNE01.JPG,AFNE01.JPG,AFNE01.JPG,AFNE01.JPG,AFNE01.JPG,AFNE01.JPG,,,,,,,,,,,,,1,5,15,0,,,,,,,,,,,AFNE14.jpg,AFSA10.jpg,AFNE13.jpg,AFSA09.jpg,AFSA10.jpg,FS,4,num_6,32,num_8,1.74989006692,,,2018_Mar_07_1613,59.9982103215,MAFE4ImagesEEG,001,203063,
AFNE01.JPG,AFNE01.JPG,AFNE01.JPG,AFNE01.JPG,AFNE01.JPG,AFNE01.JPG,,,,,,,,,,,,,1,6,16,9,,,,,,,,,,,AFSA13.jpg,AFNE07.jpg,AFSA10.jpg,AFNE12.jpg,AFSA10.jpg,FS,4,num_2,16,num_2,1.36673411797,,,2018_Mar_07_1613,59.9982103215,MAFE4ImagesEEG,001,203063,
AFNE01.JPG,AFNE01.JPG,AFNE01.JPG,AFNE01.JPG,AFNE01.JPG,AFNE01.JPG,,,,,,,,,,,,,1,7,17,4,,,,,,,,,,,AFNE12.jpg,AFNE14.jpg,AFSA13.jpg,AFSA12.jpg,AFNE12.jpg,FN,3,num_8,32,num_4,0.0335550601594,,,2018_Mar_07_1613,59.9982103215,MAFE4ImagesEEG,001,203063,
AFNE01.JPG,AFNE01.JPG,AFNE01.JPG,AFNE01.JPG,AFNE01.JPG,AFNE01.JPG,,,,,,,,,,,,,1,8,18,6,,,,,,,,,,,AFSA07.jpg,AFNE20.jpg,AFSA06.jpg,AFNE17.jpg,AFSA07.jpg,FS,4,num_8,32,num_6,1.26674473449,,,2018_Mar_07_1613,59.9982103215,MAFE4ImagesEEG,001,203063,
AFNE01.JPG,AFNE01.JPG,AFNE01.JPG,AFNE01.JPG,AFNE01.JPG,AFNE01.JPG,,,,,,,,,,,,,1,9,19,5,,,,,,,,,,,AFSA13.jpg,AFSA17.jpg,AFNE20.jpg,AFNE14.jpg,AFNE20.jpg,FN,3,num_2,32,num_4,0.683496797923,,,2018_Mar_07_1613,59.9982103215,MAFE4ImagesEEG,001,203063,
AFNE01.JPG,AFNE01.JPG,AFNE01.JPG,AFNE01.JPG,AFNE01.JPG,AFNE01.JPG,,,,,,,,,,,,,2,0,20,7,,,,,,,,,,,AFSA12.jpg,AFNE07.jpg,AFNE08.jpg,AFSA09.jpg,AFSA12.jpg,FS,4,num_8,16,num_8,0.56677350495,,,2018_Mar_07_1613,59.9982103215,MAFE4ImagesEEG,001,203063,
AFNE01.JPG,AFNE01.JPG,AFNE01.JPG,AFNE01.JPG,AFNE01.JPG,AFNE01.JPG,,,,,,,,,,,,,2,1,21,4,,,,,,,,,,,AFNE04.jpg,AFSA13.jpg,AFSA03.jpg,AFNE03.jpg,AFSA03.jpg,FS,4,num_2,16,num_2,1.50008355244,,,2018_Mar_07_1613,59.9982103215,MAFE4ImagesEEG,001,203063,
AFNE01.JPG,AFNE01.JPG,AFNE01.JPG,AFNE01.JPG,AFNE01.JPG,AFNE01.JPG,,,,,,,,,,,,,2,2,22,8,,,,,,,,,,,AFSA05.jpg,AFNE08.jpg,AFSA20.jpg,AFNE16.jpg,AFSA20.jpg,FS,4,num_2,32,num_8,0.566760675283,,,2018_Mar_07_1613,59.9982103215,MAFE4ImagesEEG,001,203063,
AFNE01.JPG,AFNE01.JPG,AFNE01.JPG,AFNE01.JPG,AFNE01.JPG,AFNE01.JPG,,,,,,,,,,,,,2,3,23,5,,,,,,,,,,,AFSA14.jpg,AFNE16.jpg,AFNE02.jpg,AFSA03.jpg,AFNE02.jpg,FN,3,num_2,32,num_4,0.783490992384,,,2018_Mar_07_1613,59.9982103215,MAFE4ImagesEEG,001,203063,
AFNE01.JPG,AFNE01.JPG,AFNE01.JPG,AFNE01.JPG,AFNE01.JPG,AFNE01.JPG,,,,,,,,,,,,,2,4,24,3,,,,,,,,,,,AFSA12.jpg,AFSA05.jpg,AFNE05.jpg,AFNE07.jpg,AFNE07.jpg,FN,3,num_4,32,num_8,1.55005050031,,,2018_Mar_07_1613,59.9982103215,MAFE4ImagesEEG,001,203063,
AFNE01.JPG,AFNE01.JPG,AFNE01.JPG,AFNE01.JPG,AFNE01.JPG,AFNE01.JPG,,,,,,,,,,,,,2,5,25,2,,,,,,,,,,,AFNE10.jpg,AFSA14.jpg,AFNE17.jpg,AFSA11.jpg,AFNE10.jpg,FN,3,num_8,32,num_4,2.11663541058,,,2018_Mar_07_1613,59.9982103215,MAFE4ImagesEEG,001,203063,
AFNE01.JPG,AFNE01.JPG,AFNE01.JPG,AFNE01.JPG,AFNE01.JPG,AFNE01.JPG,,,,,,,,,,,,,2,6,26,9,,,,,,,,,,,AFSA04.jpg,AFSA15.jpg,AFNE02.jpg,AFNE03.jpg,AFNE02.jpg,FN,3,num_2,32,num_6,0.616749754176,,,2018_Mar_07_1613,59.9982103215,MAFE4ImagesEEG,001,203063,
AFNE01.JPG,AFNE01.JPG,AFNE01.JPG,AFNE01.JPG,AFNE01.JPG,AFNE01.JPG,,,,,,,,,,,,,2,7,27,0,,,,,,,,,,,AFSA19.jpg,AFSA16.jpg,AFNE14.jpg,AFNE02.jpg,AFNE02.jpg,FN,3,num_4,32,num_8,0.650143161882,,,2018_Mar_07_1613,59.9982103215,MAFE4ImagesEEG,001,203063,
AFNE01.JPG,AFNE01.JPG,AFNE01.JPG,AFNE01.JPG,AFNE01.JPG,AFNE01.JPG,,,,,,,,,,,,,2,8,28,6,,,,,,,,,,,AFSA19.jpg,AFNE14.jpg,AFSA15.jpg,AFNE11.jpg,AFSA15.jpg,FS,4,num_2,16,num_2,4.46635240689,,,2018_Mar_07_1613,59.9982103215,MAFE4ImagesEEG,001,203063,
AFNE01.JPG,AFNE01.JPG,AFNE01.JPG,AFNE01.JPG,AFNE01.JPG,AFNE01.JPG,,,,,,,,,,,,,2,9,29,1,,,,,,,,,,,AFSA17.jpg,AFSA19.jpg,AFNE14.jpg,AFNE03.jpg,AFSA19.jpg,FS,4,num_6,32,num_8,0.650124879554,,,2018_Mar_07_1613,59.9982103215,MAFE4ImagesEEG,001,203063,
AFNE01.JPG,AFNE01.JPG,AFNE01.JPG,AFNE01.JPG,AFNE01.JPG,AFNE01.JPG,,,,,,,,,,,,,3,0,30,8,,,,,,,,,,,AFSA20.jpg,AFNE18.jpg,AFNE20.jpg,AFSA15.jpg,AFNE18.jpg,FN,3,num_6,16,num_6,0.833506372059,,,2018_Mar_07_1613,59.9982103215,MAFE4ImagesEEG,001,203063,
AFNE01.JPG,AFNE01.JPG,AFNE01.JPG,AFNE01.JPG,AFNE01.JPG,AFNE01.JPG,,,,,,,,,,,,,3,1,31,3,,,,,,,,,,,AFSA13.jpg,AFSA15.jpg,AFNE12.jpg,AFNE05.jpg,AFNE05.jpg,FN,3,num_4,16,num_4,0.450282747392,,,2018_Mar_07_1613,59.9982103215,MAFE4ImagesEEG,001,203063,
AFNE01.JPG,AFNE01.JPG,AFNE01.JPG,AFNE01.JPG,AFNE01.JPG,AFNE01.JPG,,,,,,,,,,,,,3,2,32,0,,,,,,,,,,,AFSA15.jpg,AFSA06.jpg,AFNE11.jpg,AFNE12.jpg,AFSA06.jpg,FS,4,num_6,16,num_6,0.849826849066,,,2018_Mar_07_1613,59.9982103215,MAFE4ImagesEEG,001,203063,
AFNE01.JPG,AFNE01.JPG,AFNE01.JPG,AFNE01.JPG,AFNE01.JPG,AFNE01.JPG,,,,,,,,,,,,,3,3,33,1,,,,,,,,,,,AFNE19.jpg,AFSA11.jpg,AFSA08.jpg,AFNE20.jpg,AFNE20.jpg,FN,3,num_4,16,num_4,1.19999448326,,,2018_Mar_07_1613,59.9982103215,MAFE4ImagesEEG,001,203063,
AFNE01.JPG,AFNE01.JPG,AFNE01.JPG,AFNE01.JPG,AFNE01.JPG,AFNE01.JPG,,,,,,,,,,,,,3,4,34,2,,,,,,,,,,,AFSA09.jpg,AFNE02.jpg,AFSA07.jpg,AFNE07.jpg,AFSA07.jpg,FS,4,num_2,48,None,,,,2018_Mar_07_1613,59.9982103215,MAFE4ImagesEEG,001,203063,
AFNE01.JPG,AFNE01.JPG,AFNE01.JPG,AFNE01.JPG,AFNE01.JPG,AFNE01.JPG,,,,,,,,,,,,,3,5,35,5,,,,,,,,,,,AFNE12.jpg,AFSA19.jpg,AFNE20.jpg,AFSA11.jpg,AFNE12.jpg,FN,3,num_8,16,num_8,1.18343986664,,,2018_Mar_07_1613,59.9982103215,MAFE4ImagesEEG,001,203063,
AFNE01.JPG,AFNE01.JPG,AFNE01.JPG,AFNE01.JPG,AFNE01.JPG,AFNE01.JPG,,,,,,,,,,,,,3,6,36,9,,,,,,,,,,,AFSA13.jpg,AFNE07.jpg,AFNE08.jpg,AFSA02.jpg,AFNE07.jpg,FN,3,num_6,32,num_2,1.15011894586,,,2018_Mar_07_1613,59.9982103215,MAFE4ImagesEEG,001,203063,
AFNE01.JPG,AFNE01.JPG,AFNE01.JPG,AFNE01.JPG,AFNE01.JPG,AFNE01.JPG,,,,,,,,,,,,,3,7,37,6,,,,,,,,,,,AFSA12.jpg,AFNE04.jpg,AFNE14.jpg,AFSA03.jpg,AFNE04.jpg,FN,3,num_6,16,num_6,4.71647677338,,,2018_Mar_07_1613,59.9982103215,MAFE4ImagesEEG,001,203063,
AFNE01.JPG,AFNE01.JPG,AFNE01.JPG,AFNE01.JPG,AFNE01.JPG,AFNE01.JPG,,,,,,,,,,,,,3,8,38,7,,,,,,,,,,,AFSA13.jpg,AFNE02.jpg,AFNE13.jpg,AFSA05.jpg,AFSA13.jpg,FS,4,num_8,32,num_2,2.75000489131,,,2018_Mar_07_1613,59.9982103215,MAFE4ImagesEEG,001,203063,
AFNE01.JPG,AFNE01.JPG,AFNE01.JPG,AFNE01.JPG,AFNE01.JPG,AFNE01.JPG,,,,,,,,,,,,,3,9,39,4,,,,,,,,,,,AFNE20.jpg,AFSA20.jpg,AFSA15.jpg,AFNE04.jpg,AFSA20.jpg,FS,4,num_6,32,num_4,2.83332772041,,,2018_Mar_07_1613,59.9982103215,MAFE4ImagesEEG,001,203063,
AFNE01.JPG,AFNE01.JPG,AFNE01.JPG,AFNE01.JPG,AFNE01.JPG,AFNE01.JPG,,,,,,,,,,,,,4,0,40,7,,,,,,,,,,,AFNE08.jpg,AFNE07.jpg,AFSA14.jpg,AFSA05.jpg,AFSA14.jpg,FS,4,num_2,32,num_6,2.01670119422,,,2018_Mar_07_1613,59.9982103215,MAFE4ImagesEEG,001,203063,
AFNE01.JPG,AFNE01.JPG,AFNE01.JPG,AFNE01.JPG,AFNE01.JPG,AFNE01.JPG,,,,,,,,,,,,,4,1,41,4,,,,,,,,,,,AFNE01.jpg,AFNE13.jpg,AFSA18.jpg,AFSA15.jpg,AFSA15.jpg,FS,4,num_4,32,num_8,0.683476912091,,,2018_Mar_07_1613,59.9982103215,MAFE4ImagesEEG,001,203063,
AFNE01.JPG,AFNE01.JPG,AFNE01.JPG,AFNE01.JPG,AFNE01.JPG,AFNE01.JPG,,,,,,,,,,,,,4,2,42,0,,,,,,,,,,,AFNE02.jpg,AFSA07.jpg,AFSA02.jpg,AFNE17.jpg,AFSA07.jpg,FS,4,num_6,32,num_2,0.95013568853,,,2018_Mar_07_1613,59.9982103215,MAFE4ImagesEEG,001,203063,
AFNE01.JPG,AFNE01.JPG,AFNE01.JPG,AFNE01.JPG,AFNE01.JPG,AFNE01.JPG,,,,,,,,,,,,,4,3,43,5,,,,,,,,,,,AFSA09.jpg,AFNE02.jpg,AFNE17.jpg,AFSA15.jpg,AFNE17.jpg,FN,3,num_2,32,num_8,1.45007009734,,,2018_Mar_07_1613,59.9982103215,MAFE4ImagesEEG,001,203063,
AFNE01.JPG,AFNE01.JPG,AFNE01.JPG,AFNE01.JPG,AFNE01.JPG,AFNE01.JPG,,,,,,,,,,,,,4,4,44,8,,,,,,,,,,,AFSA16.jpg,AFSA18.jpg,AFNE11.jpg,AFNE09.jpg,AFNE09.jpg,FN,3,num_4,16,num_4,0.766768308822,,,2018_Mar_07_1613,59.9982103215,MAFE4ImagesEEG,001,203063,
AFNE01.JPG,AFNE01.JPG,AFNE01.JPG,AFNE01.JPG,AFNE01.JPG,AFNE01.JPG,,,,,,,,,,,,,4,5,45,2,,,,,,,,,,,AFNE01.jpg,AFNE08.jpg,AFSA03.jpg,AFSA02.jpg,AFSA02.jpg,FS,4,num_4,32,num_2,1.70010016696,,,2018_Mar_07_1613,59.9982103215,MAFE4ImagesEEG,001,203063,
AFNE01.JPG,AFNE01.JPG,AFNE01.JPG,AFNE01.JPG,AFNE01.JPG,AFNE01.JPG,,,,,,,,,,,,,4,6,46,3,,,,,,,,,,,AFSA13.jpg,AFNE19.jpg,AFNE04.jpg,AFSA15.jpg,AFNE19.jpg,FN,3,num_6,32,num_8,3.54990520561,,,2018_Mar_07_1613,59.9982103215,MAFE4ImagesEEG,001,203063,
AFNE01.JPG,AFNE01.JPG,AFNE01.JPG,AFNE01.JPG,AFNE01.JPG,AFNE01.JPG,,,,,,,,,,,,,4,7,47,1,,,,,,,,,,,AFNE16.jpg,AFSA08.jpg,AFSA09.jpg,AFNE07.jpg,AFNE16.jpg,FN,3,num_8,48,None,,,,2018_Mar_07_1613,59.9982103215,MAFE4ImagesEEG,001,203063,
AFNE01.JPG,AFNE01.JPG,AFNE01.JPG,AFNE01.JPG,AFNE01.JPG,AFNE01.JPG,,,,,,,,,,,,,4,8,48,6,,,,,,,,,,,AFSA19.jpg,AFSA01.jpg,AFNE02.jpg,AFNE13.jpg,AFNE02.jpg,FN,3,num_2,16,num_2,1.4833833205,,,2018_Mar_07_1613,59.9982103215,MAFE4ImagesEEG,001,203063,
AFNE01.JPG,AFNE01.JPG,AFNE01.JPG,AFNE01.JPG,AFNE01.JPG,AFNE01.JPG,,,,,,,,,,,,,4,9,49,9,,,,,,,,,,,AFNE07.jpg,AFSA13.jpg,AFSA17.jpg,AFNE03.jpg,AFNE03.jpg,FN,3,num_4,32,num_6,1.43339007208,,,2018_Mar_07_1613,59.9982103215,MAFE4ImagesEEG,001,203063,
AFNE01.JPG,AFNE01.JPG,AFNE01.JPG,AFNE01.JPG,AFNE01.JPG,AFNE01.JPG,,,,,,,,,,,,,5,0,50,4,,,,,,,,,,,AFSA20.jpg,AFSA04.jpg,AFNE01.jpg,AFNE10.jpg,AFSA04.jpg,FS,4,num_6,32,num_8,0.666764171328,,,2018_Mar_07_1613,59.9982103215,MAFE4ImagesEEG,001,203063,
AFNE01.JPG,AFNE01.JPG,AFNE01.JPG,AFNE01.JPG,AFNE01.JPG,AFNE01.JPG,,,,,,,,,,,,,5,1,51,0,,,,,,,,,,,AFNE05.jpg,AFNE07.jpg,AFSA17.jpg,AFSA20.jpg,AFNE05.jpg,FN,3,num_8,32,num_4,0.633461853489,,,2018_Mar_07_1613,59.9982103215,MAFE4ImagesEEG,001,203063,
AFNE01.JPG,AFNE01.JPG,AFNE01.JPG,AFNE01.JPG,AFNE01.JPG,AFNE01.JPG,,,,,,,,,,,,,5,2,52,5,,,,,,,,,,,AFSA04.jpg,AFSA11.jpg,AFNE04.jpg,AFNE18.jpg,AFNE18.jpg,FN,3,num_4,32,num_8,1.10010709474,,,2018_Mar_07_1613,59.9982103215,MAFE4ImagesEEG,001,203063,
AFNE01.JPG,AFNE01.JPG,AFNE01.JPG,AFNE01.JPG,AFNE01.JPG,AFNE01.JPG,,,,,,,,,,,,,5,3,53,3,,,,,,,,,,,AFSA09.jpg,AFNE02.jpg,AFNE14.jpg,AFSA20.jpg,AFNE02.jpg,FN,3,num_6,32,num_2,2.51671739155,,,2018_Mar_07_1613,59.9982103215,MAFE4ImagesEEG,001,203063,
AFNE01.JPG,AFNE01.JPG,AFNE01.JPG,AFNE01.JPG,AFNE01.JPG,AFNE01.JPG,,,,,,,,,,,,,5,4,54,2,,,,,,,,,,,AFNE18.jpg,AFSA20.jpg,AFSA12.jpg,AFNE14.jpg,AFSA20.jpg,FS,4,num_6,16,num_6,2.05005996209,,,2018_Mar_07_1613,59.9982103215,MAFE4ImagesEEG,001,203063,
AFNE01.JPG,AFNE01.JPG,AFNE01.JPG,AFNE01.JPG,AFNE01.JPG,AFNE01.JPG,,,,,,,,,,,,,5,5,55,9,,,,,,,,,,,AFNE13.jpg,AFSA08.jpg,AFNE03.jpg,AFSA16.jpg,AFNE03.jpg,FN,3,num_2,32,num_4,1.78345090034,,,2018_Mar_07_1613,59.9982103215,MAFE4ImagesEEG,001,203063,
AFNE01.JPG,AFNE01.JPG,AFNE01.JPG,AFNE01.JPG,AFNE01.JPG,AFNE01.JPG,,,,,,,,,,,,,5,6,56,6,,,,,,,,,,,AFNE13.jpg,AFNE05.jpg,AFSA16.jpg,AFSA09.jpg,AFNE13.jpg,FN,3,num_8,16,num_8,0.616836353671,,,2018_Mar_07_1613,59.9982103215,MAFE4ImagesEEG,001,203063,
AFNE01.JPG,AFNE01.JPG,AFNE01.JPG,AFNE01.JPG,AFNE01.JPG,AFNE01.JPG,,,,,,,,,,,,,5,7,57,8,,,,,,,,,,,AFSA15.jpg,AFNE05.jpg,AFSA05.jpg,AFNE02.jpg,AFSA05.jpg,FS,4,num_2,32,num_8,0.683516362915,,,2018_Mar_07_1613,59.9982103215,MAFE4ImagesEEG,001,203063,
AFNE01.JPG,AFNE01.JPG,AFNE01.JPG,AFNE01.JPG,AFNE01.JPG,AFNE01.JPG,,,,,,,,,,,,,5,8,58,7,,,,,,,,,,,AFSA09.jpg,AFSA11.jpg,AFNE17.jpg,AFNE19.jpg,AFNE17.jpg,FN,3,num_2,32,num_8,0.600146705983,,,2018_Mar_07_1613,59.9982103215,MAFE4ImagesEEG,001,203063,
AFNE01.JPG,AFNE01.JPG,AFNE01.JPG,AFNE01.JPG,AFNE01.JPG,AFNE01.JPG,,,,,,,,,,,,,5,9,59,1,,,,,,,,,,,AFNE18.jpg,AFSA10.jpg,AFSA13.jpg,AFNE13.jpg,AFSA10.jpg,FS,4,num_6,32,num_8,0.88345311326,,,2018_Mar_07_1613,59.9982103215,MAFE4ImagesEEG,001,203063,
,,,,,,,,,,,,,,,,,,,,,,,,,,,,,,,,,,,,,,,,,,,space,23.0816684582,2018_Mar_07_1613,59.9982103215,MAFE4ImagesEEG,001,203063,
AFNE01.JPG,AFNE01.JPG,AFNE01.JPG,AFNE01.JPG,AFNE01.JPG,AFNE01.JPG,,,,,,,,,,,,,,,,,0,0,0,5,,,,,,,AMNE04.jpg,AMSA16.jpg,AMSA17.jpg,AMNE07.jpg,AMNE07.jpg,MN,1,num_4,32,num_8,0.750119394856,,,2018_Mar_07_1613,59.9982103215,MAFE4ImagesEEG,001,203063,
AFNE01.JPG,AFNE01.JPG,AFNE01.JPG,AFNE01.JPG,AFNE01.JPG,AFNE01.JPG,,,,,,,,,,,,,,,,,0,1,1,0,,,,,,,AMNE15.jpg,AMNE09.jpg,AMSA07.jpg,AMSA02.jpg,AMNE09.jpg,MN,1,num_6,16,num_6,0.75015018601,,,2018_Mar_07_1613,59.9982103215,MAFE4ImagesEEG,001,203063,
AFNE01.JPG,AFNE01.JPG,AFNE01.JPG,AFNE01.JPG,AFNE01.JPG,AFNE01.JPG,,,,,,,,,,,,,,,,,0,2,2,9,,,,,,,AMSA04.jpg,AMNE11.jpg,AMSA08.jpg,AMNE01.jpg,AMSA08.jpg,MS,2,num_2,16,num_2,1.03341008606,,,2018_Mar_07_1613,59.9982103215,MAFE4ImagesEEG,001,203063,
AFNE01.JPG,AFNE01.JPG,AFNE01.JPG,AFNE01.JPG,AFNE01.JPG,AFNE01.JPG,,,,,,,,,,,,,,,,,0,3,3,2,,,,,,,AMNE13.jpg,AMSA15.jpg,AMSA20.jpg,AMNE18.jpg,AMSA20.jpg,MS,2,num_2,32,num_6,0.733496461296,,,2018_Mar_07_1613,59.9982103215,MAFE4ImagesEEG,001,203063,
AFNE01.JPG,AFNE01.JPG,AFNE01.JPG,AFNE01.JPG,AFNE01.JPG,AFNE01.JPG,,,,,,,,,,,,,,,,,0,4,4,7,,,,,,,AMNE04.jpg,AMSA08.jpg,AMNE11.jpg,AMSA03.jpg,AMNE04.jpg,MN,1,num_8,16,num_8,0.60013291426,,,2018_Mar_07_1613,59.9982103215,MAFE4ImagesEEG,001,203063,
AFNE01.JPG,AFNE01.JPG,AFNE01.JPG,AFNE01.JPG,AFNE01.JPG,AFNE01.JPG,,,,,,,,,,,,,,,,,0,5,5,3,,,,,,,AMNE05.jpg,AMSA06.jpg,AMNE20.jpg,AMSA18.jpg,AMNE05.jpg,MN,1,num_8,32,num_6,1.30006276863,,,2018_Mar_07_1613,59.9982103215,MAFE4ImagesEEG,001,203063,
AFNE01.JPG,AFNE01.JPG,AFNE01.JPG,AFNE01.JPG,AFNE01.JPG,AFNE01.JPG,,,,,,,,,,,,,,,,,0,6,6,1,,,,,,,AMNE10.jpg,AMSA15.jpg,AMNE18.jpg,AMSA05.jpg,AMSA05.jpg,MS,2,num_4,16,num_4,0.75018193922,,,2018_Mar_07_1613,59.9982103215,MAFE4ImagesEEG,001,203063,
AFNE01.JPG,AFNE01.JPG,AFNE01.JPG,AFNE01.JPG,AFNE01.JPG,AFNE01.JPG,,,,,,,,,,,,,,,,,0,7,7,4,,,,,,,AMNE02.jpg,AMNE13.jpg,AMSA15.jpg,AMSA03.jpg,AMSA03.jpg,MS,2,num_4,32,num_6,0.716790455859,,,2018_Mar_07_1613,59.9982103215,MAFE4ImagesEEG,001,203063,
AFNE01.JPG,AFNE01.JPG,AFNE01.JPG,AFNE01.JPG,AFNE01.JPG,AFNE01.JPG,,,,,,,,,,,,,,,,,0,8,8,6,,,,,,,AMNE11.jpg,AMSA15.jpg,AMNE18.jpg,AMSA11.jpg,AMSA15.jpg,MS,2,num_6,32,num_4,1.20024947077,,,2018_Mar_07_1613,59.9982103215,MAFE4ImagesEEG,001,203063,
AFNE01.JPG,AFNE01.JPG,AFNE01.JPG,AFNE01.JPG,AFNE01.JPG,AFNE01.JPG,,,,,,,,,,,,,,,,,0,9,9,8,,,,,,,AMNE09.jpg,AMNE01.jpg,AMSA02.jpg,AMSA08.jpg,AMNE01.jpg,MN,1,num_6,16,num_6,2.21668092348,,,2018_Mar_07_1613,59.9982103215,MAFE4ImagesEEG,001,203063,
AFNE01.JPG,AFNE01.JPG,AFNE01.JPG,AFNE01.JPG,AFNE01.JPG,AFNE01.JPG,,,,,,,,,,,,,,,,,1,0,10,7,,,,,,,AMSA17.jpg,AMSA04.jpg,AMNE18.jpg,AMNE15.jpg,AMNE15.jpg,MN,1,num_4,16,num_4,0.616812618915,,,2018_Mar_07_1613,59.9982103215,MAFE4ImagesEEG,001,203063,
AFNE01.JPG,AFNE01.JPG,AFNE01.JPG,AFNE01.JPG,AFNE01.JPG,AFNE01.JPG,,,,,,,,,,,,,,,,,1,1,11,5,,,,,,,AMNE01.jpg,AMSA14.jpg,AMNE09.jpg,AMSA16.jpg,AMNE01.jpg,MN,1,num_8,16,num_8,4.23334266688,,,2018_Mar_07_1613,59.9982103215,MAFE4ImagesEEG,001,203063,
AFNE01.JPG,AFNE01.JPG,AFNE01.JPG,AFNE01.JPG,AFNE01.JPG,AFNE01.JPG,,,,,,,,,,,,,,,,,1,2,12,1,,,,,,,AMSA05.jpg,AMSA09.jpg,AMNE05.jpg,AMNE20.jpg,AMNE05.jpg,MN,1,num_2,32,num_8,3.46657724469,,,2018_Mar_07_1613,59.9982103215,MAFE4ImagesEEG,001,203063,
AFNE01.JPG,AFNE01.JPG,AFNE01.JPG,AFNE01.JPG,AFNE01.JPG,AFNE01.JPG,,,,,,,,,,,,,,,,,1,3,13,4,,,,,,,AMSA20.jpg,AMSA10.jpg,AMNE09.jpg,AMNE13.jpg,AMNE09.jpg,MN,1,num_2,32,num_6,1.18350048619,,,2018_Mar_07_1613,59.9982103215,MAFE4ImagesEEG,001,203063,
AFNE01.JPG,AFNE01.JPG,AFNE01.JPG,AFNE01.JPG,AFNE01.JPG,AFNE01.JPG,,,,,,,,,,,,,,,,,1,4,14,6,,,,,,,AMSA03.jpg,AMNE07.jpg,AMSA06.jpg,AMNE04.jpg,AMSA06.jpg,MS,2,num_2,32,num_4,0.600015844451,,,2018_Mar_07_1613,59.9982103215,MAFE4ImagesEEG,001,203063,
AFNE01.JPG,AFNE01.JPG,AFNE01.JPG,AFNE01.JPG,AFNE01.JPG,AFNE01.JPG,,,,,,,,,,,,,,,,,1,5,15,8,,,,,,,AMNE15.jpg,AMNE05.jpg,AMSA15.jpg,AMSA14.jpg,AMNE15.jpg,MN,1,num_8,16,num_8,0.716769607738,,,2018_Mar_07_1613,59.9982103215,MAFE4ImagesEEG,001,203063,
AFNE01.JPG,AFNE01.JPG,AFNE01.JPG,AFNE01.JPG,AFNE01.JPG,AFNE01.JPG,,,,,,,,,,,,,,,,,1,6,16,9,,,,,,,AMSA10.jpg,AMSA05.jpg,AMNE04.jpg,AMNE13.jpg,AMSA05.jpg,MS,2,num_6,16,num_6,0.866781747667,,,2018_Mar_07_1613,59.9982103215,MAFE4ImagesEEG,001,203063,
AFNE01.JPG,AFNE01.JPG,AFNE01.JPG,AFNE01.JPG,AFNE01.JPG,AFNE01.JPG,,,,,,,,,,,,,,,,,1,7,17,0,,,,,,,AMSA07.jpg,AMSA13.jpg,AMNE09.jpg,AMNE08.jpg,AMSA13.jpg,MS,2,num_6,32,num_4,0.683451252989,,,2018_Mar_07_1613,59.9982103215,MAFE4ImagesEEG,001,203063,
AFNE01.JPG,AFNE01.JPG,AFNE01.JPG,AFNE01.JPG,AFNE01.JPG,AFNE01.JPG,,,,,,,,,,,,,,,,,1,8,18,3,,,,,,,AMSA07.jpg,AMNE11.jpg,AMSA06.jpg,AMNE05.jpg,AMSA07.jpg,MS,2,num_8,32,num_2,1.25009453786,,,2018_Mar_07_1613,59.9982103215,MAFE4ImagesEEG,001,203063,
AFNE01.JPG,AFNE01.JPG,AFNE01.JPG,AFNE01.JPG,AFNE01.JPG,AFNE01.JPG,,,,,,,,,,,,,,,,,1,9,19,2,,,,,,,AMSA16.jpg,AMSA07.jpg,AMNE03.jpg,AMNE06.jpg,AMSA16.jpg,MS,2,num_8,16,num_8,0.916762808105,,,2018_Mar_07_1613,59.9982103215,MAFE4ImagesEEG,001,203063,
AFNE01.JPG,AFNE01.JPG,AFNE01.JPG,AFNE01.JPG,AFNE01.JPG,AFNE01.JPG,,,,,,,,,,,,,,,,,2,0,20,4,,,,,,,AMSA04.jpg,AMNE19.jpg,AMSA07.jpg,AMNE02.jpg,AMNE02.jpg,MN,1,num_4,32,num_6,1.80009436142,,,2018_Mar_07_1613,59.9982103215,MAFE4ImagesEEG,001,203063,
AFNE01.JPG,AFNE01.JPG,AFNE01.JPG,AFNE01.JPG,AFNE01.JPG,AFNE01.JPG,,,,,,,,,,,,,,,,,2,1,21,5,,,,,,,AMSA20.jpg,AMSA03.jpg,AMNE01.jpg,AMNE10.jpg,AMNE10.jpg,MN,1,num_4,16,num_4,1.23342124792,,,2018_Mar_07_1613,59.9982103215,MAFE4ImagesEEG,001,203063,
AFNE01.JPG,AFNE01.JPG,AFNE01.JPG,AFNE01.JPG,AFNE01.JPG,AFNE01.JPG,,,,,,,,,,,,,,,,,2,2,22,8,,,,,,,AMNE16.jpg,AMSA13.jpg,AMSA15.jpg,AMNE08.jpg,AMNE16.jpg,MN,1,num_8,16,num_8,0.650189027423,,,2018_Mar_07_1613,59.9982103215,MAFE4ImagesEEG,001,203063,
AFNE01.JPG,AFNE01.JPG,AFNE01.JPG,AFNE01.JPG,AFNE01.JPG,AFNE01.JPG,,,,,,,,,,,,,,,,,2,3,23,7,,,,,,,AMSA15.jpg,AMNE14.jpg,AMNE11.jpg,AMSA20.jpg,AMSA20.jpg,MS,2,num_4,16,num_4,0.866817349801,,,2018_Mar_07_1613,59.9982103215,MAFE4ImagesEEG,001,203063,
AFNE01.JPG,AFNE01.JPG,AFNE01.JPG,AFNE01.JPG,AFNE01.JPG,AFNE01.JPG,,,,,,,,,,,,,,,,,2,4,24,3,,,,,,,AMSA08.jpg,AMNE18.jpg,AMNE14.jpg,AMSA18.jpg,AMNE14.jpg,MN,1,num_2,16,num_2,1.40011758287,,,2018_Mar_07_1613,59.9982103215,MAFE4ImagesEEG,001,203063,
AFNE01.JPG,AFNE01.JPG,AFNE01.JPG,AFNE01.JPG,AFNE01.JPG,AFNE01.JPG,,,,,,,,,,,,,,,,,2,5,25,9,,,,,,,AMSA05.jpg,AMNE01.jpg,AMNE08.jpg,AMSA06.jpg,AMNE01.jpg,MN,1,num_6,32,num_8,1.75006615231,,,2018_Mar_07_1613,59.9982103215,MAFE4ImagesEEG,001,203063,
AFNE01.JPG,AFNE01.JPG,AFNE01.JPG,AFNE01.JPG,AFNE01.JPG,AFNE01.JPG,,,,,,,,,,,,,,,,,2,6,26,6,,,,,,,AMSA20.jpg,AMNE16.jpg,AMSA16.jpg,AMNE13.jpg,AMSA16.jpg,MS,2,num_2,48,None,,,,2018_Mar_07_1613,59.9982103215,MAFE4ImagesEEG,001,203063,
AFNE01.JPG,AFNE01.JPG,AFNE01.JPG,AFNE01.JPG,AFNE01.JPG,AFNE01.JPG,,,,,,,,,,,,,,,,,2,7,27,2,,,,,,,AMNE09.jpg,AMNE14.jpg,AMSA04.jpg,AMSA17.jpg,AMNE14.jpg,MN,1,num_6,32,num_4,1.183429603,,,2018_Mar_07_1613,59.9982103215,MAFE4ImagesEEG,001,203063,
AFNE01.JPG,AFNE01.JPG,AFNE01.JPG,AFNE01.JPG,AFNE01.JPG,AFNE01.JPG,,,,,,,,,,,,,,,,,2,8,28,0,,,,,,,AMNE11.jpg,AMSA12.jpg,AMNE12.jpg,AMSA10.jpg,AMSA12.jpg,MS,2,num_6,16,num_6,1.1001481493,,,2018_Mar_07_1613,59.9982103215,MAFE4ImagesEEG,001,203063,
AFNE01.JPG,AFNE01.JPG,AFNE01.JPG,AFNE01.JPG,AFNE01.JPG,AFNE01.JPG,,,,,,,,,,,,,,,,,2,9,29,1,,,,,,,AMSA15.jpg,AMNE19.jpg,AMNE06.jpg,AMSA01.jpg,AMNE19.jpg,MN,1,num_6,32,num_8,0.550442122389,,,2018_Mar_07_1613,59.9982103215,MAFE4ImagesEEG,001,203063,
AFNE01.JPG,AFNE01.JPG,AFNE01.JPG,AFNE01.JPG,AFNE01.JPG,AFNE01.JPG,,,,,,,,,,,,,,,,,3,0,30,5,,,,,,,AMSA08.jpg,AMSA14.jpg,AMNE05.jpg,AMNE16.jpg,AMSA08.jpg,MS,2,num_8,32,num_2,0.500136474613,,,2018_Mar_07_1613,59.9982103215,MAFE4ImagesEEG,001,203063,
AFNE01.JPG,AFNE01.JPG,AFNE01.JPG,AFNE01.JPG,AFNE01.JPG,AFNE01.JPG,,,,,,,,,,,,,,,,,3,1,31,8,,,,,,,AMNE12.jpg,AMSA10.jpg,AMNE03.jpg,AMSA18.jpg,AMSA18.jpg,MS,2,num_4,32,num_6,0.666803622153,,,2018_Mar_07_1613,59.9982103215,MAFE4ImagesEEG,001,203063,
AFNE01.JPG,AFNE01.JPG,AFNE01.JPG,AFNE01.JPG,AFNE01.JPG,AFNE01.JPG,,,,,,,,,,,,,,,,,3,2,32,2,,,,,,,AMNE15.jpg,AMSA20.jpg,AMNE17.jpg,AMSA04.jpg,AMNE17.jpg,MN,1,num_2,16,num_2,1.26671362296,,,2018_Mar_07_1613,59.9982103215,MAFE4ImagesEEG,001,203063,
AFNE01.JPG,AFNE01.JPG,AFNE01.JPG,AFNE01.JPG,AFNE01.JPG,AFNE01.JPG,,,,,,,,,,,,,,,,,3,3,33,4,,,,,,,AMNE06.jpg,AMSA10.jpg,AMSA20.jpg,AMNE05.jpg,AMSA10.jpg,MS,2,num_6,16,num_6,2.00005933666,,,2018_Mar_07_1613,59.9982103215,MAFE4ImagesEEG,001,203063,
AFNE01.JPG,AFNE01.JPG,AFNE01.JPG,AFNE01.JPG,AFNE01.JPG,AFNE01.JPG,,,,,,,,,,,,,,,,,3,4,34,9,,,,,,,AMSA16.jpg,AMSA18.jpg,AMNE08.jpg,AMNE04.jpg,AMSA16.jpg,MS,2,num_8,32,num_6,3.23331059306,,,2018_Mar_07_1613,59.9982103215,MAFE4ImagesEEG,001,203063,
AFNE01.JPG,AFNE01.JPG,AFNE01.JPG,AFNE01.JPG,AFNE01.JPG,AFNE01.JPG,,,,,,,,,,,,,,,,,3,5,35,7,,,,,,,AMSA08.jpg,AMNE08.jpg,AMNE10.jpg,AMSA13.jpg,AMNE08.jpg,MN,1,num_6,32,num_8,4.71648318786,,,2018_Mar_07_1613,59.9982103215,MAFE4ImagesEEG,001,203063,
AFNE01.JPG,AFNE01.JPG,AFNE01.JPG,AFNE01.JPG,AFNE01.JPG,AFNE01.JPG,,,,,,,,,,,,,,,,,3,6,36,3,,,,,,,AMSA13.jpg,AMNE06.jpg,AMSA12.jpg,AMNE01.jpg,AMSA13.jpg,MS,2,num_8,16,num_8,0.766756441444,,,2018_Mar_07_1613,59.9982103215,MAFE4ImagesEEG,001,203063,
AFNE01.JPG,AFNE01.JPG,AFNE01.JPG,AFNE01.JPG,AFNE01.JPG,AFNE01.JPG,,,,,,,,,,,,,,,,,3,7,37,0,,,,,,,AMSA19.jpg,AMNE12.jpg,AMNE02.jpg,AMSA12.jpg,AMNE12.jpg,MN,1,num_6,32,num_4,0.616834108485,,,2018_Mar_07_1613,59.9982103215,MAFE4ImagesEEG,001,203063,
AFNE01.JPG,AFNE01.JPG,AFNE01.JPG,AFNE01.JPG,AFNE01.JPG,AFNE01.JPG,,,,,,,,,,,,,,,,,3,8,38,1,,,,,,,AMSA14.jpg,AMNE05.jpg,AMSA13.jpg,AMNE06.jpg,AMNE05.jpg,MN,1,num_6,16,num_6,1.08327985019,,,2018_Mar_07_1613,59.9982103215,MAFE4ImagesEEG,001,203063,
AFNE01.JPG,AFNE01.JPG,AFNE01.JPG,AFNE01.JPG,AFNE01.JPG,AFNE01.JPG,,,,,,,,,,,,,,,,,3,9,39,6,,,,,,,AMNE17.jpg,AMSA08.jpg,AMNE07.jpg,AMSA02.jpg,AMSA08.jpg,MS,2,num_6,32,num_8,1.58341632457,,,2018_Mar_07_1613,59.9982103215,MAFE4ImagesEEG,001,203063,
AFNE01.JPG,AFNE01.JPG,AFNE01.JPG,AFNE01.JPG,AFNE01.JPG,AFNE01.JPG,,,,,,,,,,,,,,,,,4,0,40,4,,,,,,,AMSA08.jpg,AMNE20.jpg,AMNE08.jpg,AMSA11.jpg,AMNE20.jpg,MN,1,num_6,32,num_4,0.78344673058,,,2018_Mar_07_1613,59.9982103215,MAFE4ImagesEEG,001,203063,
AFNE01.JPG,AFNE01.JPG,AFNE01.JPG,AFNE01.JPG,AFNE01.JPG,AFNE01.JPG,,,,,,,,,,,,,,,,,4,1,41,7,,,,,,,AMSA01.jpg,AMNE20.jpg,AMNE15.jpg,AMSA06.jpg,AMNE20.jpg,MN,1,num_6,16,num_6,0.750124206068,,,2018_Mar_07_1613,59.9982103215,MAFE4ImagesEEG,001,203063,
AFNE01.JPG,AFNE01.JPG,AFNE01.JPG,AFNE01.JPG,AFNE01.JPG,AFNE01.JPG,,,,,,,,,,,,,,,,,4,2,42,6,,,,,,,AMSA20.jpg,AMNE05.jpg,AMSA17.jpg,AMNE01.jpg,AMSA17.jpg,MS,2,num_2,32,num_4,1.51668403461,,,2018_Mar_07_1613,59.9982103215,MAFE4ImagesEEG,001,203063,
AFNE01.JPG,AFNE01.JPG,AFNE01.JPG,AFNE01.JPG,AFNE01.JPG,AFNE01.JPG,,,,,,,,,,,,,,,,,4,3,43,3,,,,,,,AMSA19.jpg,AMSA09.jpg,AMNE09.jpg,AMNE19.jpg,AMNE09.jpg,MN,1,num_2,32,num_6,1.20010225172,,,2018_Mar_07_1613,59.9982103215,MAFE4ImagesEEG,001,203063,
AFNE01.JPG,AFNE01.JPG,AFNE01.JPG,AFNE01.JPG,AFNE01.JPG,AFNE01.JPG,,,,,,,,,,,,,,,,,4,4,44,0,,,,,,,AMSA13.jpg,AMSA11.jpg,AMNE01.jpg,AMNE19.jpg,AMSA13.jpg,MS,2,num_8,32,num_4,2.41663916316,,,2018_Mar_07_1613,59.9982103215,MAFE4ImagesEEG,001,203063,
AFNE01.JPG,AFNE01.JPG,AFNE01.JPG,AFNE01.JPG,AFNE01.JPG,AFNE01.JPG,,,,,,,,,,,,,,,,,4,5,45,9,,,,,,,AMSA19.jpg,AMNE15.jpg,AMSA13.jpg,AMNE11.jpg,AMNE15.jpg,MN,1,num_6,32,num_8,0.633443892002,,,2018_Mar_07_1613,59.9982103215,MAFE4ImagesEEG,001,203063,
AFNE01.JPG,AFNE01.JPG,AFNE01.JPG,AFNE01.JPG,AFNE01.JPG,AFNE01.JPG,,,,,,,,,,,,,,,,,4,6,46,1,,,,,,,AMSA10.jpg,AMSA19.jpg,AMNE18.jpg,AMNE10.jpg,AMNE18.jpg,MN,1,num_2,16,num_2,1.60007903003,,,2018_Mar_07_1613,59.9982103215,MAFE4ImagesEEG,001,203063,
AFNE01.JPG,AFNE01.JPG,AFNE01.JPG,AFNE01.JPG,AFNE01.JPG,AFNE01.JPG,,,,,,,,,,,,,,,,,4,7,47,2,,,,,,,AMSA18.jpg,AMNE19.jpg,AMNE06.jpg,AMSA20.jpg,AMNE06.jpg,MN,1,num_2,48,None,,,,2018_Mar_07_1613,59.9982103215,MAFE4ImagesEEG,001,203063,
AFNE01.JPG,AFNE01.JPG,AFNE01.JPG,AFNE01.JPG,AFNE01.JPG,AFNE01.JPG,,,,,,,,,,,,,,,,,4,8,48,8,,,,,,,AMSA03.jpg,AMNE09.jpg,AMSA10.jpg,AMNE16.jpg,AMSA10.jpg,MS,2,num_2,32,num_8,0.750111376634,,,2018_Mar_07_1613,59.9982103215,MAFE4ImagesEEG,001,203063,
AFNE01.JPG,AFNE01.JPG,AFNE01.JPG,AFNE01.JPG,AFNE01.JPG,AFNE01.JPG,,,,,,,,,,,,,,,,,4,9,49,5,,,,,,,AMSA06.jpg,AMNE08.jpg,AMSA07.jpg,AMNE02.jpg,AMSA06.jpg,MS,2,num_8,32,num_4,1.70009631803,,,2018_Mar_07_1613,59.9982103215,MAFE4ImagesEEG,001,203063,
AFNE01.JPG,AFNE01.JPG,AFNE01.JPG,AFNE01.JPG,AFNE01.JPG,AFNE01.JPG,,,,,,,,,,,,,,,,,5,0,50,1,,,,,,,AMNE15.jpg,AMNE17.jpg,AMSA08.jpg,AMSA19.jpg,AMSA19.jpg,MS,2,num_4,32,num_6,3.2332769155,,,2018_Mar_07_1613,59.9982103215,MAFE4ImagesEEG,001,203063,
AFNE01.JPG,AFNE01.JPG,AFNE01.JPG,AFNE01.JPG,AFNE01.JPG,AFNE01.JPG,,,,,,,,,,,,,,,,,5,1,51,4,,,,,,,AMNE14.jpg,AMSA11.jpg,AMNE13.jpg,AMSA14.jpg,AMNE14.jpg,MN,1,num_8,16,num_8,0.483460939256,,,2018_Mar_07_1613,59.9982103215,MAFE4ImagesEEG,001,203063,
AFNE01.JPG,AFNE01.JPG,AFNE01.JPG,AFNE01.JPG,AFNE01.JPG,AFNE01.JPG,,,,,,,,,,,,,,,,,5,2,52,2,,,,,,,AMSA04.jpg,AMNE16.jpg,AMSA06.jpg,AMNE20.jpg,AMNE20.jpg,MN,1,num_4,32,num_8,1.08340301388,,,2018_Mar_07_1613,59.9982103215,MAFE4ImagesEEG,001,203063,
AFNE01.JPG,AFNE01.JPG,AFNE01.JPG,AFNE01.JPG,AFNE01.JPG,AFNE01.JPG,,,,,,,,,,,,,,,,,5,3,53,0,,,,,,,AMNE06.jpg,AMSA17.jpg,AMNE14.jpg,AMSA06.jpg,AMSA06.jpg,MS,2,num_4,32,num_2,1.00015684124,,,2018_Mar_07_1613,59.9982103215,MAFE4ImagesEEG,001,203063,
AFNE01.JPG,AFNE01.JPG,AFNE01.JPG,AFNE01.JPG,AFNE01.JPG,AFNE01.JPG,,,,,,,,,,,,,,,,,5,4,54,9,,,,,,,AMSA13.jpg,AMNE09.jpg,AMSA07.jpg,AMNE06.jpg,AMSA13.jpg,MS,2,num_8,32,num_6,0.583489132347,,,2018_Mar_07_1613,59.9982103215,MAFE4ImagesEEG,001,203063,
AFNE01.JPG,AFNE01.JPG,AFNE01.JPG,AFNE01.JPG,AFNE01.JPG,AFNE01.JPG,,,,,,,,,,,,,,,,,5,5,55,6,,,,,,,AMNE03.jpg,AMSA12.jpg,AMSA13.jpg,AMNE12.jpg,AMSA13.jpg,MS,2,num_2,16,num_2,0.816783688264,,,2018_Mar_07_1613,59.9982103215,MAFE4ImagesEEG,001,203063,
AFNE01.JPG,AFNE01.JPG,AFNE01.JPG,AFNE01.JPG,AFNE01.JPG,AFNE01.JPG,,,,,,,,,,,,,,,,,5,6,56,5,,,,,,,AMSA14.jpg,AMSA01.jpg,AMNE15.jpg,AMNE07.jpg,AMSA01.jpg,MS,2,num_6,32,num_4,1.06646479364,,,2018_Mar_07_1613,59.9982103215,MAFE4ImagesEEG,001,203063,
AFNE01.JPG,AFNE01.JPG,AFNE01.JPG,AFNE01.JPG,AFNE01.JPG,AFNE01.JPG,,,,,,,,,,,,,,,,,5,7,57,8,,,,,,,AMSA03.jpg,AMNE09.jpg,AMNE02.jpg,AMSA18.jpg,AMNE09.jpg,MN,1,num_6,32,num_8,0.750106244581,,,2018_Mar_07_1613,59.9982103215,MAFE4ImagesEEG,001,203063,
AFNE01.JPG,AFNE01.JPG,AFNE01.JPG,AFNE01.JPG,AFNE01.JPG,AFNE01.JPG,,,,,,,,,,,,,,,,,5,8,58,7,,,,,,,AMSA10.jpg,AMSA20.jpg,AMNE15.jpg,AMNE06.jpg,AMSA20.jpg,MS,2,num_6,16,num_6,0.650139633799,,,2018_Mar_07_1613,59.9982103215,MAFE4ImagesEEG,001,203063,
AFNE01.JPG,AFNE01.JPG,AFNE01.JPG,AFNE01.JPG,AFNE01.JPG,AFNE01.JPG,,,,,,,,,,,,,,,,,5,9,59,3,,,,,,,AMNE19.jpg,AMSA12.jpg,AMNE04.jpg,AMSA08.jpg,AMSA12.jpg,MS,2,num_6,16,num_6,0.933473945362,,,2018_Mar_07_1613,59.9982103215,MAFE4ImagesEEG,001,203063,
,,,,,,,,,,,,,,,,,,,,,,,,,,,,,,,,,,,,,,,,,,,space,16.5154950556,2018_Mar_07_1613,59.9982103215,MAFE4ImagesEEG,001,203063,
AFNE01.JPG,AFNE01.JPG,AFNE01.JPG,AFNE01.JPG,AFNE01.JPG,AFNE01.JPG,,,,,,,,,,,,,,,,,,,,,0,0,0,4,,,AFNE11.jpg,AFSA18.jpg,AFNE07.jpg,AFSA06.jpg,AFSA18.jpg,FS,4,num_6,16,num_6,0.516810405767,,,2018_Mar_07_1613,59.9982103215,MAFE4ImagesEEG,001,203063,
AFNE01.JPG,AFNE01.JPG,AFNE01.JPG,AFNE01.JPG,AFNE01.JPG,AFNE01.JPG,,,,,,,,,,,,,,,,,,,,,0,1,1,9,,,AFNE17.jpg,AFNE09.jpg,AFSA05.jpg,AFSA06.jpg,AFSA05.jpg,FS,4,num_2,32,num_4,0.866768597625,,,2018_Mar_07_1613,59.9982103215,MAFE4ImagesEEG,001,203063,
AFNE01.JPG,AFNE01.JPG,AFNE01.JPG,AFNE01.JPG,AFNE01.JPG,AFNE01.JPG,,,,,,,,,,,,,,,,,,,,,0,2,2,7,,,AFNE06.jpg,AFSA14.jpg,AFSA09.jpg,AFNE02.jpg,AFNE06.jpg,FN,3,num_8,16,num_8,0.833488731412,,,2018_Mar_07_1613,59.9982103215,MAFE4ImagesEEG,001,203063,
AFNE01.JPG,AFNE01.JPG,AFNE01.JPG,AFNE01.JPG,AFNE01.JPG,AFNE01.JPG,,,,,,,,,,,,,,,,,,,,,0,3,3,5,,,AFNE07.jpg,AFSA13.jpg,AFNE01.jpg,AFSA16.jpg,AFNE01.jpg,FN,3,num_2,32,num_6,1.5667257146,,,2018_Mar_07_1613,59.9982103215,MAFE4ImagesEEG,001,203063,
AFNE01.JPG,AFNE01.JPG,AFNE01.JPG,AFNE01.JPG,AFNE01.JPG,AFNE01.JPG,,,,,,,,,,,,,,,,,,,,,0,4,4,1,,,AFSA07.jpg,AFNE19.jpg,AFNE01.jpg,AFSA20.jpg,AFNE19.jpg,FN,3,num_6,32,num_8,1.56665707659,,,2018_Mar_07_1613,59.9982103215,MAFE4ImagesEEG,001,203063,
AFNE01.JPG,AFNE01.JPG,AFNE01.JPG,AFNE01.JPG,AFNE01.JPG,AFNE01.JPG,,,,,,,,,,,,,,,,,,,,,0,5,5,2,,,AFSA12.jpg,AFSA17.jpg,AFNE10.jpg,AFNE12.jpg,AFNE12.jpg,FN,3,num_4,32,num_8,4.96648503211,,,2018_Mar_07_1613,59.9982103215,MAFE4ImagesEEG,001,203063,
AFNE01.JPG,AFNE01.JPG,AFNE01.JPG,AFNE01.JPG,AFNE01.JPG,AFNE01.JPG,,,,,,,,,,,,,,,,,,,,,0,6,6,3,,,AFSA09.jpg,AFNE04.jpg,AFNE12.jpg,AFSA14.jpg,AFSA09.jpg,FS,4,num_8,32,num_4,1.18343441421,,,2018_Mar_07_1613,59.9982103215,MAFE4ImagesEEG,001,203063,
AFNE01.JPG,AFNE01.JPG,AFNE01.JPG,AFNE01.JPG,AFNE01.JPG,AFNE01.JPG,,,,,,,,,,,,,,,,,,,,,0,7,7,8,,,AFNE20.jpg,AFSA07.jpg,AFNE09.jpg,AFSA05.jpg,AFSA05.jpg,FS,4,num_4,32,num_6,1.01681441511,,,2018_Mar_07_1613,59.9982103215,MAFE4ImagesEEG,001,203063,
AFNE01.JPG,AFNE01.JPG,AFNE01.JPG,AFNE01.JPG,AFNE01.JPG,AFNE01.JPG,,,,,,,,,,,,,,,,,,,,,0,8,8,0,,,AFSA11.jpg,AFSA08.jpg,AFNE10.jpg,AFNE19.jpg,AFSA11.jpg,FS,4,num_8,16,num_8,0.716793983942,,,2018_Mar_07_1613,59.9982103215,MAFE4ImagesEEG,001,203063,
AFNE01.JPG,AFNE01.JPG,AFNE01.JPG,AFNE01.JPG,AFNE01.JPG,AFNE01.JPG,,,,,,,,,,,,,,,,,,,,,0,9,9,6,,,AFSA05.jpg,AFNE11.jpg,AFSA02.jpg,AFNE15.jpg,AFNE11.jpg,FN,3,num_6,16,num_6,0.650198008167,,,2018_Mar_07_1613,59.9982103215,MAFE4ImagesEEG,001,203063,
AFNE01.JPG,AFNE01.JPG,AFNE01.JPG,AFNE01.JPG,AFNE01.JPG,AFNE01.JPG,,,,,,,,,,,,,,,,,,,,,1,0,10,9,,,AFSA06.jpg,AFNE09.jpg,AFNE19.jpg,AFSA17.jpg,AFNE09.jpg,FN,3,num_6,32,num_4,0.866785275983,,,2018_Mar_07_1613,59.9982103215,MAFE4ImagesEEG,001,203063,
AFNE01.JPG,AFNE01.JPG,AFNE01.JPG,AFNE01.JPG,AFNE01.JPG,AFNE01.JPG,,,,,,,,,,,,,,,,,,,,,1,1,11,2,,,AFSA05.jpg,AFNE13.jpg,AFNE02.jpg,AFSA18.jpg,AFSA05.jpg,FS,4,num_8,32,num_6,3.63321809191,,,2018_Mar_07_1613,59.9982103215,MAFE4ImagesEEG,001,203063,
AFNE01.JPG,AFNE01.JPG,AFNE01.JPG,AFNE01.JPG,AFNE01.JPG,AFNE01.JPG,,,,,,,,,,,,,,,,,,,,,1,2,12,1,,,AFSA10.jpg,AFNE01.jpg,AFSA01.jpg,AFNE03.jpg,AFSA01.jpg,FS,4,num_2,32,num_8,0.966844901443,,,2018_Mar_07_1613,59.9982103215,MAFE4ImagesEEG,001,203063,
AFNE01.JPG,AFNE01.JPG,AFNE01.JPG,AFNE01.JPG,AFNE01.JPG,AFNE01.JPG,,,,,,,,,,,,,,,,,,,,,1,3,13,8,,,AFNE18.jpg,AFSA10.jpg,AFSA05.jpg,AFNE04.jpg,AFNE04.jpg,FN,3,num_4,32,num_2,0.900149817113,,,2018_Mar_07_1613,59.9982103215,MAFE4ImagesEEG,001,203063,
AFNE01.JPG,AFNE01.JPG,AFNE01.JPG,AFNE01.JPG,AFNE01.JPG,AFNE01.JPG,,,,,,,,,,,,,,,,,,,,,1,4,14,3,,,AFNE05.jpg,AFNE18.jpg,AFSA15.jpg,AFSA06.jpg,AFSA15.jpg,FS,4,num_2,32,num_6,1.11681374162,,,2018_Mar_07_1613,59.9982103215,MAFE4ImagesEEG,001,203063,
AFNE01.JPG,AFNE01.JPG,AFNE01.JPG,AFNE01.JPG,AFNE01.JPG,AFNE01.JPG,,,,,,,,,,,,,,,,,,,,,1,5,15,6,,,AFNE03.jpg,AFSA17.jpg,AFNE20.jpg,AFSA19.jpg,AFNE03.jpg,FN,3,num_8,16,num_8,0.783473993419,,,2018_Mar_07_1613,59.9982103215,MAFE4ImagesEEG,001,203063,
AFNE01.JPG,AFNE01.JPG,AFNE01.JPG,AFNE01.JPG,AFNE01.JPG,AFNE01.JPG,,,,,,,,,,,,,,,,,,,,,1,6,16,5,,,AFNE14.jpg,AFSA09.jpg,AFNE17.jpg,AFSA19.jpg,AFSA19.jpg,FS,4,num_4,16,num_4,0.766798778903,,,2018_Mar_07_1613,59.9982103215,MAFE4ImagesEEG,001,203063,
AFNE01.JPG,AFNE01.JPG,AFNE01.JPG,AFNE01.JPG,AFNE01.JPG,AFNE01.JPG,,,,,,,,,,,,,,,,,,,,,1,7,17,4,,,AFNE04.jpg,AFSA11.jpg,AFNE10.jpg,AFSA16.jpg,AFSA11.jpg,FS,4,num_6,48,None,,,,2018_Mar_07_1613,59.9982103215,MAFE4ImagesEEG,001,203063,
AFNE01.JPG,AFNE01.JPG,AFNE01.JPG,AFNE01.JPG,AFNE01.JPG,AFNE01.JPG,,,,,,,,,,,,,,,,,,,,,1,8,18,0,,,AFNE19.jpg,AFSA14.jpg,AFNE03.jpg,AFSA07.jpg,AFNE19.jpg,FN,3,num_8,32,num_4,1.00012123911,,,2018_Mar_07_1613,59.9982103215,MAFE4ImagesEEG,001,203063,
AFNE01.JPG,AFNE01.JPG,AFNE01.JPG,AFNE01.JPG,AFNE01.JPG,AFNE01.JPG,,,,,,,,,,,,,,,,,,,,,1,9,19,7,,,AFSA09.jpg,AFSA16.jpg,AFNE01.jpg,AFNE09.jpg,AFNE09.jpg,FN,3,num_4,32,num_8,0.783313944703,,,2018_Mar_07_1613,59.9982103215,MAFE4ImagesEEG,001,203063,
AFNE01.JPG,AFNE01.JPG,AFNE01.JPG,AFNE01.JPG,AFNE01.JPG,AFNE01.JPG,,,,,,,,,,,,,,,,,,,,,2,0,20,7,,,AFNE12.jpg,AFSA11.jpg,AFNE16.jpg,AFSA15.jpg,AFNE16.jpg,FN,3,num_2,16,num_2,0.866784313694,,,2018_Mar_07_1613,59.9982103215,MAFE4ImagesEEG,001,203063,
AFNE01.JPG,AFNE01.JPG,AFNE01.JPG,AFNE01.JPG,AFNE01.JPG,AFNE01.JPG,,,,,,,,,,,,,,,,,,,,,2,1,21,8,,,AFNE05.jpg,AFSA11.jpg,AFSA03.jpg,AFNE06.jpg,AFSA11.jpg,FS,4,num_6,16,num_6,0.650142199593,,,2018_Mar_07_1613,59.9982103215,MAFE4ImagesEEG,001,203063,
AFNE01.JPG,AFNE01.JPG,AFNE01.JPG,AFNE01.JPG,AFNE01.JPG,AFNE01.JPG,,,,,,,,,,,,,,,,,,,,,2,2,22,3,,,AFNE03.jpg,AFNE18.jpg,AFSA07.jpg,AFSA06.jpg,AFNE03.jpg,FN,3,num_8,32,num_4,4.18321182136,,,2018_Mar_07_1613,59.9982103215,MAFE4ImagesEEG,001,203063,
AFNE01.JPG,AFNE01.JPG,AFNE01.JPG,AFNE01.JPG,AFNE01.JPG,AFNE01.JPG,,,,,,,,,,,,,,,,,,,,,2,3,23,0,,,AFSA01.jpg,AFNE13.jpg,AFNE19.jpg,AFSA10.jpg,AFNE19.jpg,FN,3,num_2,32,num_6,0.599828212289,,,2018_Mar_07_1613,59.9982103215,MAFE4ImagesEEG,001,203063,
AFNE01.JPG,AFNE01.JPG,AFNE01.JPG,AFNE01.JPG,AFNE01.JPG,AFNE01.JPG,,,,,,,,,,,,,,,,,,,,,2,4,24,1,,,AFSA09.jpg,AFNE06.jpg,AFNE08.jpg,AFSA01.jpg,AFNE08.jpg,FN,3,num_2,32,num_8,0.633462815545,,,2018_Mar_07_1613,59.9982103215,MAFE4ImagesEEG,001,203063,
AFNE01.JPG,AFNE01.JPG,AFNE01.JPG,AFNE01.JPG,AFNE01.JPG,AFNE01.JPG,,,,,,,,,,,,,,,,,,,,,2,5,25,4,,,AFNE18.jpg,AFSA04.jpg,AFNE01.jpg,AFSA18.jpg,AFSA04.jpg,FS,4,num_6,16,num_6,0.916756713996,,,2018_Mar_07_1613,59.9982103215,MAFE4ImagesEEG,001,203063,
AFNE01.JPG,AFNE01.JPG,AFNE01.JPG,AFNE01.JPG,AFNE01.JPG,AFNE01.JPG,,,,,,,,,,,,,,,,,,,,,2,6,26,2,,,AFSA05.jpg,AFNE02.jpg,AFSA18.jpg,AFNE07.jpg,AFSA18.jpg,FS,4,num_2,32,num_6,0.8334512047,,,2018_Mar_07_1613,59.9982103215,MAFE4ImagesEEG,001,203063,
AFNE01.JPG,AFNE01.JPG,AFNE01.JPG,AFNE01.JPG,AFNE01.JPG,AFNE01.JPG,,,,,,,,,,,,,,,,,,,,,2,7,27,9,,,AFSA18.jpg,AFNE19.jpg,AFSA17.jpg,AFNE05.jpg,AFSA17.jpg,FS,4,num_2,32,num_4,1.06683620927,,,2018_Mar_07_1613,59.9982103215,MAFE4ImagesEEG,001,203063,
AFNE01.JPG,AFNE01.JPG,AFNE01.JPG,AFNE01.JPG,AFNE01.JPG,AFNE01.JPG,,,,,,,,,,,,,,,,,,,,,2,8,28,5,,,AFSA02.jpg,AFSA20.jpg,AFNE07.jpg,AFNE14.jpg,AFNE14.jpg,FN,3,num_4,32,num_8,0.633466664469,,,2018_Mar_07_1613,59.9982103215,MAFE4ImagesEEG,001,203063,
AFNE01.JPG,AFNE01.JPG,AFNE01.JPG,AFNE01.JPG,AFNE01.JPG,AFNE01.JPG,,,,,,,,,,,,,,,,,,,,,2,9,29,6,,,AFNE06.jpg,AFNE15.jpg,AFSA04.jpg,AFSA18.jpg,AFSA18.jpg,FS,4,num_4,32,num_8,0.733470801963,,,2018_Mar_07_1613,59.9982103215,MAFE4ImagesEEG,001,203063,
AFNE01.JPG,AFNE01.JPG,AFNE01.JPG,AFNE01.JPG,AFNE01.JPG,AFNE01.JPG,,,,,,,,,,,,,,,,,,,,,3,0,30,0,,,AFNE03.jpg,AFSA13.jpg,AFNE16.jpg,AFSA06.jpg,AFNE03.jpg,FN,3,num_8,48,None,,,,2018_Mar_07_1613,59.9982103215,MAFE4ImagesEEG,001,203063,
AFNE01.JPG,AFNE01.JPG,AFNE01.JPG,AFNE01.JPG,AFNE01.JPG,AFNE01.JPG,,,,,,,,,,,,,,,,,,,,,3,1,31,8,,,AFSA03.jpg,AFSA02.jpg,AFNE04.jpg,AFNE13.jpg,AFNE13.jpg,FN,3,num_4,32,num_6,0.566830917029,,,2018_Mar_07_1613,59.9982103215,MAFE4ImagesEEG,001,203063,
AFNE01.JPG,AFNE01.JPG,AFNE01.JPG,AFNE01.JPG,AFNE01.JPG,AFNE01.JPG,,,,,,,,,,,,,,,,,,,,,3,2,32,1,,,AFNE08.jpg,AFNE01.jpg,AFSA09.jpg,AFSA10.jpg,AFNE01.jpg,FN,3,num_6,32,num_4,1.00017480273,,,2018_Mar_07_1613,59.9982103215,MAFE4ImagesEEG,001,203063,
AFNE01.JPG,AFNE01.JPG,AFNE01.JPG,AFNE01.JPG,AFNE01.JPG,AFNE01.JPG,,,,,,,,,,,,,,,,,,,,,3,3,33,7,,,AFNE16.jpg,AFNE03.jpg,AFSA10.jpg,AFSA11.jpg,AFSA10.jpg,FS,4,num_2,32,num_8,0.950214590412,,,2018_Mar_07_1613,59.9982103215,MAFE4ImagesEEG,001,203063,
AFNE01.JPG,AFNE01.JPG,AFNE01.JPG,AFNE01.JPG,AFNE01.JPG,AFNE01.JPG,,,,,,,,,,,,,,,,,,,,,3,4,34,2,,,AFSA07.jpg,AFSA01.jpg,AFNE12.jpg,AFNE10.jpg,AFSA07.jpg,FS,4,num_8,16,num_8,0.950127990684,,,2018_Mar_07_1613,59.9982103215,MAFE4ImagesEEG,001,203063,
AFNE01.JPG,AFNE01.JPG,AFNE01.JPG,AFNE01.JPG,AFNE01.JPG,AFNE01.JPG,,,,,,,,,,,,,,,,,,,,,3,5,35,4,,,AFNE11.jpg,AFSA02.jpg,AFNE06.jpg,AFSA18.jpg,AFSA18.jpg,FS,4,num_4,32,num_2,1.80003726995,,,2018_Mar_07_1613,59.9982103215,MAFE4ImagesEEG,001,203063,
AFNE01.JPG,AFNE01.JPG,AFNE01.JPG,AFNE01.JPG,AFNE01.JPG,AFNE01.JPG,,,,,,,,,,,,,,,,,,,,,3,6,36,3,,,AFNE09.jpg,AFSA01.jpg,AFNE08.jpg,AFSA19.jpg,AFNE08.jpg,FN,3,num_2,32,num_8,3.63349360647,,,2018_Mar_07_1613,59.9982103215,MAFE4ImagesEEG,001,203063,
AFNE01.JPG,AFNE01.JPG,AFNE01.JPG,AFNE01.JPG,AFNE01.JPG,AFNE01.JPG,,,,,,,,,,,,,,,,,,,,,3,7,37,9,,,AFNE17.jpg,AFSA04.jpg,AFNE05.jpg,AFSA08.jpg,AFNE17.jpg,FN,3,num_8,32,num_4,1.26676109224,,,2018_Mar_07_1613,59.9982103215,MAFE4ImagesEEG,001,203063,
AFNE01.JPG,AFNE01.JPG,AFNE01.JPG,AFNE01.JPG,AFNE01.JPG,AFNE01.JPG,,,,,,,,,,,,,,,,,,,,,3,8,38,6,,,AFNE06.jpg,AFNE11.jpg,AFSA14.jpg,AFSA07.jpg,AFSA07.jpg,FS,4,num_4,16,num_4,0.666814206634,,,2018_Mar_07_1613,59.9982103215,MAFE4ImagesEEG,001,203063,
AFNE01.JPG,AFNE01.JPG,AFNE01.JPG,AFNE01.JPG,AFNE01.JPG,AFNE01.JPG,,,,,,,,,,,,,,,,,,,,,3,9,39,5,,,AFSA11.jpg,AFNE01.jpg,AFNE11.jpg,AFSA15.jpg,AFNE11.jpg,FN,3,num_2,32,num_8,0.700120373163,,,2018_Mar_07_1613,59.9982103215,MAFE4ImagesEEG,001,203063,
