IPosition2,IPosition3,IPosition1,IPosition6,IPosition4,IPosition5,TrialsF1.thisRepN,TrialsF1.thisTrialN,TrialsF1.thisN,TrialsF1.thisIndex,TrialsM1.thisRepN,TrialsM1.thisTrialN,TrialsM1.thisN,TrialsM1.thisIndex,TrialsF2.thisRepN,TrialsF2.thisTrialN,TrialsF2.thisN,TrialsF2.thisIndex,TrialsM2.thisRepN,TrialsM2.thisTrialN,TrialsM2.thisN,TrialsM2.thisIndex,TrialsF3.thisRepN,TrialsF3.thisTrialN,TrialsF3.thisN,TrialsF3.thisIndex,TrialsM3.thisRepN,TrialsM3.thisTrialN,TrialsM3.thisN,TrialsM3.thisIndex,InstrKey_resp.keys,InstrKey_resp.rt,Image0 _Position,Image1 _Position,Image2 _Position,Image3 _Position,Center_image,condition,code,correct_answer,accuracy,Key_Resp.keys,Key_Resp.rt,BreakKey_resp.keys,BreakKey_resp.rt,date,frameRate,expName,session,participant,
,,,,,,,,,,,,,,,,,,,,,,,,,,,,,,space,7.7163555338,,,,,,,,,,,,,,2018_Mar_07_1305,60.0106825138,FEMA4ImagesEEG,001,203117,
AFSA25.JPG,AFNE24.JPG,AFSA24.JPG,AFNE21.JPG,AFSA21.JPG,AFNE25.JPG,0,0,0,2,,,,,,,,,,,,,,,,,,,,,,,AFSA06.jpg,AFSA11.jpg,AFNE04.jpg,AFNE20.jpg,AFSA06.jpg,FS,4,num_8,32,num_4,2.79999012128,,,2018_Mar_07_1305,60.0106825138,FEMA4ImagesEEG,001,203117,
AFNE23.JPG,AFNE24.JPG,AFNE22.JPG,AFSA24.JPG,AFSA22.JPG,AFSA23.JPG,0,1,1,8,,,,,,,,,,,,,,,,,,,,,,,AFSA06.jpg,AFNE05.jpg,AFNE08.jpg,AFSA02.jpg,AFSA06.jpg,FS,4,num_8,16,num_8,0.716813228326,,,2018_Mar_07_1305,60.0106825138,FEMA4ImagesEEG,001,203117,
AFNE22.JPG,AFSA24.JPG,AFSA22.JPG,AFNE25.JPG,AFNE24.JPG,AFSA25.JPG,0,2,2,6,,,,,,,,,,,,,,,,,,,,,,,AFSA02.jpg,AFSA19.jpg,AFNE03.jpg,AFNE05.jpg,AFSA19.jpg,FS,4,num_6,16,num_6,0.533529882319,,,2018_Mar_07_1305,60.0106825138,FEMA4ImagesEEG,001,203117,
AMSA25.JPG,AMNE24.JPG,AMSA24.JPG,AMNE26.JPG,AMSA21.JPG,AMNE25.JPG,0,3,3,3,,,,,,,,,,,,,,,,,,,,,,,AFNE05.jpg,AFNE17.jpg,AFSA16.jpg,AFSA19.jpg,AFNE05.jpg,FN,3,num_8,32,num_4,0.666763209272,,,2018_Mar_07_1305,60.0106825138,FEMA4ImagesEEG,001,203117,
AMSA21.JPG,AMNE22.JPG,AMNE21.JPG,AMSA23.JPG,AMSA22.JPG,AMNE23.JPG,0,4,4,1,,,,,,,,,,,,,,,,,,,,,,,AFNE07.jpg,AFSA04.jpg,AFSA08.jpg,AFNE18.jpg,AFNE07.jpg,FN,3,num_8,16,num_8,0.750142809004,,,2018_Mar_07_1305,60.0106825138,FEMA4ImagesEEG,001,203117,
AMSA21.JPG,AMNE23.JPG,AMNE21.JPG,AMSA25.JPG,AMNE25.JPG,AMSA23.JPG,0,5,5,5,,,,,,,,,,,,,,,,,,,,,,,AFSA05.jpg,AFNE13.jpg,AFNE19.jpg,AFSA06.jpg,AFNE19.jpg,FN,3,num_2,16,num_2,0.733455727343,,,2018_Mar_07_1305,60.0106825138,FEMA4ImagesEEG,001,203117,
AMNE22.JPG,AMSA24.JPG,AMSA22.JPG,AMNE25.JPG,AMNE24.JPG,AMSA25.JPG,0,6,6,7,,,,,,,,,,,,,,,,,,,,,,,AFNE08.jpg,AFSA04.jpg,AFNE16.jpg,AFSA09.jpg,AFNE08.jpg,FN,3,num_8,16,num_8,0.86677052197,,,2018_Mar_07_1305,60.0106825138,FEMA4ImagesEEG,001,203117,
AMNE23.JPG,AMNE24.JPG,AMNE22.JPG,AMSA24.JPG,AMSA22.JPG,AMSA23.JPG,0,7,7,9,,,,,,,,,,,,,,,,,,,,,,,AFSA20.jpg,AFSA05.jpg,AFNE18.jpg,AFNE19.jpg,AFSA20.jpg,FS,4,num_8,32,num_6,0.666803622153,,,2018_Mar_07_1305,60.0106825138,FEMA4ImagesEEG,001,203117,
AFSA21.JPG,AFNE22.JPG,AFNE21.JPG,AFSA23.JPG,AFSA22.JPG,AFNE23.JPG,0,8,8,0,,,,,,,,,,,,,,,,,,,,,,,AFSA17.jpg,AFNE05.jpg,AFNE04.jpg,AFSA15.jpg,AFSA15.jpg,FS,4,num_4,16,num_4,0.545506271999,,,2018_Mar_07_1305,60.0106825138,FEMA4ImagesEEG,001,203117,
AFSA21.JPG,AFNE23.JPG,AFNE21.JPG,AFSA25.JPG,AFNE25.JPG,AFSA23.JPG,0,9,9,4,,,,,,,,,,,,,,,,,,,,,,,AFNE07.jpg,AFSA14.jpg,AFSA08.jpg,AFNE06.jpg,AFSA08.jpg,FS,4,num_2,16,num_2,0.650129049318,,,2018_Mar_07_1305,60.0106825138,FEMA4ImagesEEG,001,203117,
AFNE22.JPG,AFSA24.JPG,AFSA22.JPG,AFNE25.JPG,AFNE24.JPG,AFSA25.JPG,,,,,0,0,0,6,,,,,,,,,,,,,,,,,,,AMNE10.jpg,AMSA07.jpg,AMNE03.jpg,AMSA17.jpg,AMSA17.jpg,MS,2,num_4,16,num_4,0.583526017144,,,2018_Mar_07_1305,60.0106825138,FEMA4ImagesEEG,001,203117,
AFNE23.JPG,AFNE24.JPG,AFNE22.JPG,AFSA24.JPG,AFSA22.JPG,AFSA23.JPG,,,,,0,1,1,8,,,,,,,,,,,,,,,,,,,AMNE16.jpg,AMSA15.jpg,AMNE09.jpg,AMSA08.jpg,AMSA08.jpg,MS,2,num_4,16,num_4,0.766761252424,,,2018_Mar_07_1305,60.0106825138,FEMA4ImagesEEG,001,203117,
AMSA21.JPG,AMNE22.JPG,AMNE21.JPG,AMSA23.JPG,AMSA22.JPG,AMNE23.JPG,,,,,0,2,2,1,,,,,,,,,,,,,,,,,,,AMSA20.jpg,AMNE19.jpg,AMSA19.jpg,AMNE10.jpg,AMSA19.jpg,MS,2,num_2,16,num_2,0.650130332215,,,2018_Mar_07_1305,60.0106825138,FEMA4ImagesEEG,001,203117,
AFSA21.JPG,AFNE23.JPG,AFNE21.JPG,AFSA25.JPG,AFNE25.JPG,AFSA23.JPG,,,,,0,3,3,4,,,,,,,,,,,,,,,,,,,AMSA10.jpg,AMSA04.jpg,AMNE10.jpg,AMNE16.jpg,AMNE16.jpg,MN,1,num_4,32,num_8,1.08343957807,,,2018_Mar_07_1305,60.0106825138,FEMA4ImagesEEG,001,203117,
AMSA25.JPG,AMNE24.JPG,AMSA24.JPG,AMNE26.JPG,AMSA21.JPG,AMNE25.JPG,,,,,0,4,4,3,,,,,,,,,,,,,,,,,,,AMSA10.jpg,AMNE10.jpg,AMNE04.jpg,AMSA05.jpg,AMNE10.jpg,MN,1,num_6,32,num_8,0.850073176669,,,2018_Mar_07_1305,60.0106825138,FEMA4ImagesEEG,001,203117,
AFSA25.JPG,AFNE24.JPG,AFSA24.JPG,AFNE21.JPG,AFSA21.JPG,AFNE25.JPG,,,,,0,5,5,2,,,,,,,,,,,,,,,,,,,AMSA01.jpg,AMSA19.jpg,AMNE20.jpg,AMNE16.jpg,AMSA01.jpg,MS,2,num_8,32,num_2,1.15012856829,,,2018_Mar_07_1305,60.0106825138,FEMA4ImagesEEG,001,203117,
AMSA21.JPG,AMNE23.JPG,AMNE21.JPG,AMSA25.JPG,AMNE25.JPG,AMSA23.JPG,,,,,0,6,6,5,,,,,,,,,,,,,,,,,,,AMNE16.jpg,AMSA06.jpg,AMNE07.jpg,AMSA03.jpg,AMSA06.jpg,MS,2,num_6,16,num_6,0.800128680421,,,2018_Mar_07_1305,60.0106825138,FEMA4ImagesEEG,001,203117,
AMNE22.JPG,AMSA24.JPG,AMSA22.JPG,AMNE25.JPG,AMNE24.JPG,AMSA25.JPG,,,,,0,7,7,7,,,,,,,,,,,,,,,,,,,AMNE10.jpg,AMSA13.jpg,AMSA17.jpg,AMNE01.jpg,AMSA17.jpg,MS,2,num_2,16,num_2,1.31682554469,,,2018_Mar_07_1305,60.0106825138,FEMA4ImagesEEG,001,203117,
AMNE23.JPG,AMNE24.JPG,AMNE22.JPG,AMSA24.JPG,AMSA22.JPG,AMSA23.JPG,,,,,0,8,8,9,,,,,,,,,,,,,,,,,,,AMNE05.jpg,AMSA18.jpg,AMNE06.jpg,AMSA19.jpg,AMNE06.jpg,MN,1,num_2,32,num_8,0.750144733349,,,2018_Mar_07_1305,60.0106825138,FEMA4ImagesEEG,001,203117,
AFSA21.JPG,AFNE22.JPG,AFNE21.JPG,AFSA23.JPG,AFSA22.JPG,AFNE23.JPG,,,,,0,9,9,0,,,,,,,,,,,,,,,,,,,AMSA05.jpg,AMSA08.jpg,AMNE06.jpg,AMNE17.jpg,AMSA08.jpg,MS,2,num_6,16,num_6,0.616772526409,,,2018_Mar_07_1305,60.0106825138,FEMA4ImagesEEG,001,203117,
AFSA21.JPG,AFNE23.JPG,AFNE21.JPG,AFSA25.JPG,AFNE25.JPG,AFSA23.JPG,,,,,,,,,0,0,0,4,,,,,,,,,,,,,,,AFSA04.jpg,AFNE20.jpg,AFNE04.jpg,AFSA16.jpg,AFSA04.jpg,FS,4,num_8,32,num_2,2.08337767562,,,2018_Mar_07_1305,60.0106825138,FEMA4ImagesEEG,001,203117,
AFNE22.JPG,AFSA24.JPG,AFSA22.JPG,AFNE25.JPG,AFNE24.JPG,AFSA25.JPG,,,,,,,,,0,1,1,6,,,,,,,,,,,,,,,AFSA01.jpg,AFNE09.jpg,AFSA12.jpg,AFNE15.jpg,AFSA12.jpg,FS,4,num_2,32,num_6,1.40013746871,,,2018_Mar_07_1305,60.0106825138,FEMA4ImagesEEG,001,203117,
AMNE22.JPG,AMSA24.JPG,AMSA22.JPG,AMNE25.JPG,AMNE24.JPG,AMSA25.JPG,,,,,,,,,0,2,2,7,,,,,,,,,,,,,,,AFNE08.jpg,AFSA20.jpg,AFNE14.jpg,AFSA04.jpg,AFSA04.jpg,FS,4,num_4,16,num_4,0.600170440739,,,2018_Mar_07_1305,60.0106825138,FEMA4ImagesEEG,001,203117,
AMNE23.JPG,AMNE24.JPG,AMNE22.JPG,AMSA24.JPG,AMSA22.JPG,AMSA23.JPG,,,,,,,,,0,3,3,9,,,,,,,,,,,,,,,AFSA17.jpg,AFNE04.jpg,AFNE20.jpg,AFSA20.jpg,AFSA20.jpg,FS,4,num_4,32,num_8,0.666811961215,,,2018_Mar_07_1305,60.0106825138,FEMA4ImagesEEG,001,203117,
AMSA21.JPG,AMNE22.JPG,AMNE21.JPG,AMSA23.JPG,AMSA22.JPG,AMNE23.JPG,,,,,,,,,0,4,4,1,,,,,,,,,,,,,,,AFNE15.jpg,AFSA02.jpg,AFSA16.jpg,AFNE02.jpg,AFNE02.jpg,FN,3,num_4,32,num_6,1.03345531039,,,2018_Mar_07_1305,60.0106825138,FEMA4ImagesEEG,001,203117,
AFSA25.JPG,AFNE24.JPG,AFSA24.JPG,AFNE21.JPG,AFSA21.JPG,AFNE25.JPG,,,,,,,,,0,5,5,2,,,,,,,,,,,,,,,AFSA10.jpg,AFNE14.jpg,AFNE07.jpg,AFSA15.jpg,AFNE07.jpg,FN,3,num_2,32,num_8,0.550137741491,,,2018_Mar_07_1305,60.0106825138,FEMA4ImagesEEG,001,203117,
AMSA25.JPG,AMNE24.JPG,AMSA24.JPG,AMNE26.JPG,AMSA21.JPG,AMNE25.JPG,,,,,,,,,0,6,6,3,,,,,,,,,,,,,,,AFNE01.jpg,AFSA01.jpg,AFNE06.jpg,AFSA15.jpg,AFSA15.jpg,FS,4,num_4,16,num_4,0.483508408535,,,2018_Mar_07_1305,60.0106825138,FEMA4ImagesEEG,001,203117,
AMSA21.JPG,AMNE23.JPG,AMNE21.JPG,AMSA25.JPG,AMNE25.JPG,AMSA23.JPG,,,,,,,,,0,7,7,5,,,,,,,,,,,,,,,AFSA07.jpg,AFSA17.jpg,AFNE11.jpg,AFNE12.jpg,AFNE11.jpg,FN,3,num_2,16,num_2,1.15007243888,,,2018_Mar_07_1305,60.0106825138,FEMA4ImagesEEG,001,203117,
AFNE23.JPG,AFNE24.JPG,AFNE22.JPG,AFSA24.JPG,AFSA22.JPG,AFSA23.JPG,,,,,,,,,0,8,8,8,,,,,,,,,,,,,,,AFSA01.jpg,AFSA19.jpg,AFNE12.jpg,AFNE03.jpg,AFSA01.jpg,FS,4,num_8,32,num_6,0.666818055324,,,2018_Mar_07_1305,60.0106825138,FEMA4ImagesEEG,001,203117,
AFSA21.JPG,AFNE22.JPG,AFNE21.JPG,AFSA23.JPG,AFSA22.JPG,AFNE23.JPG,,,,,,,,,0,9,9,0,,,,,,,,,,,,,,,AFNE16.jpg,AFSA16.jpg,AFSA07.jpg,AFNE01.jpg,AFSA07.jpg,FS,4,num_2,16,num_2,0.716663764091,,,2018_Mar_07_1305,60.0106825138,FEMA4ImagesEEG,001,203117,
AMSA21.JPG,AMNE23.JPG,AMNE21.JPG,AMSA25.JPG,AMNE25.JPG,AMSA23.JPG,,,,,,,,,,,,,0,0,0,5,,,,,,,,,,,AMSA14.jpg,AMSA05.jpg,AMNE11.jpg,AMNE15.jpg,AMSA14.jpg,MS,2,num_8,32,num_6,0.51679276512,,,2018_Mar_07_1305,60.0106825138,FEMA4ImagesEEG,001,203117,
AFSA21.JPG,AFNE22.JPG,AFNE21.JPG,AFSA23.JPG,AFSA22.JPG,AFNE23.JPG,,,,,,,,,,,,,0,1,1,0,,,,,,,,,,,AMSA08.jpg,AMSA07.jpg,AMNE06.jpg,AMNE12.jpg,AMNE12.jpg,MN,1,num_4,32,num_8,0.583457058296,,,2018_Mar_07_1305,60.0106825138,FEMA4ImagesEEG,001,203117,
AMNE22.JPG,AMSA24.JPG,AMSA22.JPG,AMNE25.JPG,AMNE24.JPG,AMSA25.JPG,,,,,,,,,,,,,0,2,2,7,,,,,,,,,,,AMNE08.jpg,AMNE16.jpg,AMSA01.jpg,AMSA19.jpg,AMNE16.jpg,MN,1,num_6,16,num_6,1.03341618017,,,2018_Mar_07_1305,60.0106825138,FEMA4ImagesEEG,001,203117,
AFSA21.JPG,AFNE23.JPG,AFNE21.JPG,AFSA25.JPG,AFNE25.JPG,AFSA23.JPG,,,,,,,,,,,,,0,3,3,4,,,,,,,,,,,AMSA07.jpg,AMNE18.jpg,AMSA11.jpg,AMNE12.jpg,AMSA07.jpg,MS,2,num_8,16,num_8,0.333496268606,,,2018_Mar_07_1305,60.0106825138,FEMA4ImagesEEG,001,203117,
AFNE23.JPG,AFNE24.JPG,AFNE22.JPG,AFSA24.JPG,AFSA22.JPG,AFSA23.JPG,,,,,,,,,,,,,0,4,4,8,,,,,,,,,,,AMSA09.jpg,AMSA08.jpg,AMNE10.jpg,AMNE14.jpg,AMSA09.jpg,MS,2,num_8,32,num_6,0.650141878752,,,2018_Mar_07_1305,60.0106825138,FEMA4ImagesEEG,001,203117,
AFSA25.JPG,AFNE24.JPG,AFSA24.JPG,AFNE21.JPG,AFSA21.JPG,AFNE25.JPG,,,,,,,,,,,,,0,5,5,2,,,,,,,,,,,AMSA18.jpg,AMNE09.jpg,AMSA05.jpg,AMNE07.jpg,AMNE07.jpg,MN,1,num_4,16,num_4,0.800130604766,,,2018_Mar_07_1305,60.0106825138,FEMA4ImagesEEG,001,203117,
AMSA21.JPG,AMNE22.JPG,AMNE21.JPG,AMSA23.JPG,AMSA22.JPG,AMNE23.JPG,,,,,,,,,,,,,0,6,6,1,,,,,,,,,,,AMNE09.jpg,AMNE06.jpg,AMSA17.jpg,AMSA10.jpg,AMNE09.jpg,MN,1,num_8,32,num_2,1.03348898795,,,2018_Mar_07_1305,60.0106825138,FEMA4ImagesEEG,001,203117,
AMSA25.JPG,AMNE24.JPG,AMSA24.JPG,AMNE26.JPG,AMSA21.JPG,AMNE25.JPG,,,,,,,,,,,,,0,7,7,3,,,,,,,,,,,AMNE06.jpg,AMSA07.jpg,AMSA19.jpg,AMNE10.jpg,AMNE10.jpg,MN,1,num_4,32,num_6,1.00011354149,,,2018_Mar_07_1305,60.0106825138,FEMA4ImagesEEG,001,203117,
AFNE22.JPG,AFSA24.JPG,AFSA22.JPG,AFNE25.JPG,AFNE24.JPG,AFSA25.JPG,,,,,,,,,,,,,0,8,8,6,,,,,,,,,,,AMSA09.jpg,AMSA12.jpg,AMNE02.jpg,AMNE20.jpg,AMSA09.jpg,MS,2,num_8,32,num_2,0.666789188981,,,2018_Mar_07_1305,60.0106825138,FEMA4ImagesEEG,001,203117,
AMNE23.JPG,AMNE24.JPG,AMNE22.JPG,AMSA24.JPG,AMSA22.JPG,AMSA23.JPG,,,,,,,,,,,,,0,9,9,9,,,,,,,,,,,AMNE18.jpg,AMSA01.jpg,AMSA09.jpg,AMNE01.jpg,AMSA01.jpg,MS,2,num_6,32,num_4,0.5834814345,,,2018_Mar_07_1305,60.0106825138,FEMA4ImagesEEG,001,203117,
AMSA21.JPG,AMNE22.JPG,AMNE21.JPG,AMSA23.JPG,AMSA22.JPG,AMNE23.JPG,,,,,,,,,,,,,,,,,0,0,0,1,,,,,,,AFSA17.jpg,AFNE15.jpg,AFNE08.jpg,AFSA09.jpg,AFNE15.jpg,FN,3,num_6,32,num_2,1.08346299198,,,2018_Mar_07_1305,60.0106825138,FEMA4ImagesEEG,001,203117,
AMNE22.JPG,AMSA24.JPG,AMSA22.JPG,AMNE25.JPG,AMNE24.JPG,AMSA25.JPG,,,,,,,,,,,,,,,,,0,1,1,7,,,,,,,AFSA16.jpg,AFSA17.jpg,AFNE01.jpg,AFNE09.jpg,AFNE09.jpg,FN,3,num_4,16,num_4,0.783514085691,,,2018_Mar_07_1305,60.0106825138,FEMA4ImagesEEG,001,203117,
AFNE23.JPG,AFNE24.JPG,AFNE22.JPG,AFSA24.JPG,AFSA22.JPG,AFSA23.JPG,,,,,,,,,,,,,,,,,0,2,2,8,,,,,,,AFNE13.jpg,AFSA03.jpg,AFSA08.jpg,AFNE14.jpg,AFSA03.jpg,FS,4,num_6,32,num_8,0.383492083056,,,2018_Mar_07_1305,60.0106825138,FEMA4ImagesEEG,001,203117,
AFSA25.JPG,AFNE24.JPG,AFSA24.JPG,AFNE21.JPG,AFSA21.JPG,AFNE25.JPG,,,,,,,,,,,,,,,,,0,3,3,2,,,,,,,AFSA15.jpg,AFSA09.jpg,AFNE05.jpg,AFNE17.jpg,AFSA09.jpg,FS,4,num_6,16,num_6,0.433485972928,,,2018_Mar_07_1305,60.0106825138,FEMA4ImagesEEG,001,203117,
AMSA25.JPG,AMNE24.JPG,AMSA24.JPG,AMNE26.JPG,AMSA21.JPG,AMNE25.JPG,,,,,,,,,,,,,,,,,0,4,4,3,,,,,,,AFSA18.jpg,AFSA11.jpg,AFNE03.jpg,AFNE15.jpg,AFNE15.jpg,FN,3,num_4,16,num_4,0.0834992355667,,,2018_Mar_07_1305,60.0106825138,FEMA4ImagesEEG,001,203117,
AFSA21.JPG,AFNE22.JPG,AFNE21.JPG,AFSA23.JPG,AFSA22.JPG,AFNE23.JPG,,,,,,,,,,,,,,,,,0,5,5,0,,,,,,,AFNE03.jpg,AFNE09.jpg,AFSA02.jpg,AFSA01.jpg,AFNE09.jpg,FN,3,num_6,32,num_4,0.83345761965,,,2018_Mar_07_1305,60.0106825138,FEMA4ImagesEEG,001,203117,
AFNE22.JPG,AFSA24.JPG,AFSA22.JPG,AFNE25.JPG,AFNE24.JPG,AFSA25.JPG,,,,,,,,,,,,,,,,,0,6,6,6,,,,,,,AFSA13.jpg,AFNE11.jpg,AFNE03.jpg,AFSA09.jpg,AFNE03.jpg,FN,3,num_2,32,num_6,1.41673281905,,,2018_Mar_07_1305,60.0106825138,FEMA4ImagesEEG,001,203117,
AFSA21.JPG,AFNE23.JPG,AFNE21.JPG,AFSA25.JPG,AFNE25.JPG,AFSA23.JPG,,,,,,,,,,,,,,,,,0,7,7,4,,,,,,,AFSA07.jpg,AFNE07.jpg,AFSA15.jpg,AFNE15.jpg,AFNE07.jpg,FN,3,num_6,16,num_6,0.833423621487,,,2018_Mar_07_1305,60.0106825138,FEMA4ImagesEEG,001,203117,
AMNE23.JPG,AMNE24.JPG,AMNE22.JPG,AMSA24.JPG,AMSA22.JPG,AMSA23.JPG,,,,,,,,,,,,,,,,,0,8,8,9,,,,,,,AFSA12.jpg,AFSA13.jpg,AFNE08.jpg,AFNE12.jpg,AFNE12.jpg,FN,3,num_4,32,num_2,1.01675924798,,,2018_Mar_07_1305,60.0106825138,FEMA4ImagesEEG,001,203117,
AMSA21.JPG,AMNE23.JPG,AMNE21.JPG,AMSA25.JPG,AMNE25.JPG,AMSA23.JPG,,,,,,,,,,,,,,,,,0,9,9,5,,,,,,,AFNE19.jpg,AFNE13.jpg,AFSA07.jpg,AFSA18.jpg,AFNE13.jpg,FN,3,num_6,16,num_6,1.06674576085,,,2018_Mar_07_1305,60.0106825138,FEMA4ImagesEEG,001,203117,
AFSA25.JPG,AFNE24.JPG,AFSA24.JPG,AFNE21.JPG,AFSA21.JPG,AFNE25.JPG,,,,,,,,,,,,,,,,,,,,,0,0,0,2,,,AMSA06.jpg,AMSA11.jpg,AMNE13.jpg,AMNE07.jpg,AMSA06.jpg,MS,2,num_8,16,num_8,1.40007973555,,,2018_Mar_07_1305,60.0106825138,FEMA4ImagesEEG,001,203117,
AFSA21.JPG,AFNE22.JPG,AFNE21.JPG,AFSA23.JPG,AFSA22.JPG,AFNE23.JPG,,,,,,,,,,,,,,,,,,,,,0,1,1,0,,,AMNE14.jpg,AMSA18.jpg,AMSA06.jpg,AMNE06.jpg,AMNE14.jpg,MN,1,num_8,16,num_8,0.833490014076,,,2018_Mar_07_1305,60.0106825138,FEMA4ImagesEEG,001,203117,
AFSA21.JPG,AFNE23.JPG,AFNE21.JPG,AFSA25.JPG,AFNE25.JPG,AFSA23.JPG,,,,,,,,,,,,,,,,,,,,,0,2,2,4,,,AMSA07.jpg,AMNE18.jpg,AMNE07.jpg,AMSA20.jpg,AMNE07.jpg,MN,1,num_2,32,num_8,0.933455021586,,,2018_Mar_07_1305,60.0106825138,FEMA4ImagesEEG,001,203117,
AMSA21.JPG,AMNE22.JPG,AMNE21.JPG,AMSA23.JPG,AMSA22.JPG,AMNE23.JPG,,,,,,,,,,,,,,,,,,,,,0,3,3,1,,,AMNE13.jpg,AMNE03.jpg,AMSA03.jpg,AMSA17.jpg,AMSA17.jpg,MS,2,num_4,16,num_4,0.833473335952,,,2018_Mar_07_1305,60.0106825138,FEMA4ImagesEEG,001,203117,
AMSA21.JPG,AMNE23.JPG,AMNE21.JPG,AMSA25.JPG,AMNE25.JPG,AMSA23.JPG,,,,,,,,,,,,,,,,,,,,,0,4,4,5,,,AMNE16.jpg,AMSA13.jpg,AMSA17.jpg,AMNE08.jpg,AMSA17.jpg,MS,2,num_2,16,num_2,1.15006858995,,,2018_Mar_07_1305,60.0106825138,FEMA4ImagesEEG,001,203117,
AMNE22.JPG,AMSA24.JPG,AMSA22.JPG,AMNE25.JPG,AMNE24.JPG,AMSA25.JPG,,,,,,,,,,,,,,,,,,,,,0,5,5,7,,,AMSA09.jpg,AMSA04.jpg,AMNE16.jpg,AMNE18.jpg,AMNE16.jpg,MN,1,num_2,32,num_8,0.90033937362,,,2018_Mar_07_1305,60.0106825138,FEMA4ImagesEEG,001,203117,
AMSA25.JPG,AMNE24.JPG,AMSA24.JPG,AMNE26.JPG,AMSA21.JPG,AMNE25.JPG,,,,,,,,,,,,,,,,,,,,,0,6,6,3,,,AMSA18.jpg,AMNE04.jpg,AMNE12.jpg,AMSA07.jpg,AMNE04.jpg,MN,1,num_6,32,num_2,1.00025498751,,,2018_Mar_07_1305,60.0106825138,FEMA4ImagesEEG,001,203117,
AFNE23.JPG,AFNE24.JPG,AFNE22.JPG,AFSA24.JPG,AFSA22.JPG,AFSA23.JPG,,,,,,,,,,,,,,,,,,,,,0,7,7,8,,,AMNE14.jpg,AMSA10.jpg,AMNE10.jpg,AMSA03.jpg,AMSA03.jpg,MS,2,num_4,16,num_4,0.533640216338,,,2018_Mar_07_1305,60.0106825138,FEMA4ImagesEEG,001,203117,
AFNE22.JPG,AFSA24.JPG,AFSA22.JPG,AFNE25.JPG,AFNE24.JPG,AFSA25.JPG,,,,,,,,,,,,,,,,,,,,,0,8,8,6,,,AMSA06.jpg,AMSA19.jpg,AMNE02.jpg,AMNE17.jpg,AMSA19.jpg,MS,2,num_6,16,num_6,0.500191962346,,,2018_Mar_07_1305,60.0106825138,FEMA4ImagesEEG,001,203117,
AMNE23.JPG,AMNE24.JPG,AMNE22.JPG,AMSA24.JPG,AMSA22.JPG,AMSA23.JPG,,,,,,,,,,,,,,,,,,,,,0,9,9,9,,,AMNE18.jpg,AMSA02.jpg,AMNE09.jpg,AMSA03.jpg,AMNE18.jpg,MN,1,num_8,16,num_8,1.96669864422,,,2018_Mar_07_1305,60.0106825138,FEMA4ImagesEEG,001,203117,
,,,,,,,,,,,,,,,,,,,,,,,,,,,,,,,,,,,,,,,,,,,space,4.79972198349,2018_Mar_07_1305,60.0106825138,FEMA4ImagesEEG,001,203117,
AFNE01.JPG,AFNE01.JPG,AFNE01.JPG,AFNE01.JPG,AFNE01.JPG,AFNE01.JPG,0,0,0,5,,,,,,,,,,,,,,,,,,,,,,,AFSA02.jpg,AFNE13.jpg,AFNE19.jpg,AFSA14.jpg,AFNE19.jpg,FN,3,num_2,32,num_4,0.96674547228,,,2018_Mar_07_1305,60.0106825138,FEMA4ImagesEEG,001,203117,
AFNE01.JPG,AFNE01.JPG,AFNE01.JPG,AFNE01.JPG,AFNE01.JPG,AFNE01.JPG,0,1,1,1,,,,,,,,,,,,,,,,,,,,,,,AFSA10.jpg,AFNE05.jpg,AFNE01.jpg,AFSA11.jpg,AFNE01.jpg,FN,3,num_2,32,num_8,0.750147940591,,,2018_Mar_07_1305,60.0106825138,FEMA4ImagesEEG,001,203117,
AFNE01.JPG,AFNE01.JPG,AFNE01.JPG,AFNE01.JPG,AFNE01.JPG,AFNE01.JPG,0,2,2,7,,,,,,,,,,,,,,,,,,,,,,,AFNE04.jpg,AFSA18.jpg,AFNE15.jpg,AFSA05.jpg,AFSA05.jpg,FS,4,num_4,32,num_2,0.800168772694,,,2018_Mar_07_1305,60.0106825138,FEMA4ImagesEEG,001,203117,
AFNE01.JPG,AFNE01.JPG,AFNE01.JPG,AFNE01.JPG,AFNE01.JPG,AFNE01.JPG,0,3,3,0,,,,,,,,,,,,,,,,,,,,,,,AFNE17.jpg,AFSA06.jpg,AFSA16.jpg,AFNE05.jpg,AFNE17.jpg,FN,3,num_8,32,num_4,1.10010035918,,,2018_Mar_07_1305,60.0106825138,FEMA4ImagesEEG,001,203117,
AFNE01.JPG,AFNE01.JPG,AFNE01.JPG,AFNE01.JPG,AFNE01.JPG,AFNE01.JPG,0,4,4,2,,,,,,,,,,,,,,,,,,,,,,,AFSA17.jpg,AFNE12.jpg,AFNE10.jpg,AFSA10.jpg,AFSA10.jpg,FS,4,num_4,32,num_2,0.950178026222,,,2018_Mar_07_1305,60.0106825138,FEMA4ImagesEEG,001,203117,
AFNE01.JPG,AFNE01.JPG,AFNE01.JPG,AFNE01.JPG,AFNE01.JPG,AFNE01.JPG,0,5,5,8,,,,,,,,,,,,,,,,,,,,,,,AFSA18.jpg,AFSA10.jpg,AFNE16.jpg,AFNE15.jpg,AFSA10.jpg,FS,4,num_6,16,num_6,0.900154628092,,,2018_Mar_07_1305,60.0106825138,FEMA4ImagesEEG,001,203117,
AFNE01.JPG,AFNE01.JPG,AFNE01.JPG,AFNE01.JPG,AFNE01.JPG,AFNE01.JPG,0,6,6,3,,,,,,,,,,,,,,,,,,,,,,,AFNE20.jpg,AFNE17.jpg,AFSA06.jpg,AFSA07.jpg,AFSA06.jpg,FS,4,num_2,16,num_2,0.80011809594,,,2018_Mar_07_1305,60.0106825138,FEMA4ImagesEEG,001,203117,
AFNE01.JPG,AFNE01.JPG,AFNE01.JPG,AFNE01.JPG,AFNE01.JPG,AFNE01.JPG,0,7,7,4,,,,,,,,,,,,,,,,,,,,,,,AFNE16.jpg,AFNE06.jpg,AFSA09.jpg,AFSA07.jpg,AFNE16.jpg,FN,3,num_8,16,num_8,1.41676040273,,,2018_Mar_07_1305,60.0106825138,FEMA4ImagesEEG,001,203117,
AFNE01.JPG,AFNE01.JPG,AFNE01.JPG,AFNE01.JPG,AFNE01.JPG,AFNE01.JPG,0,8,8,6,,,,,,,,,,,,,,,,,,,,,,,AFSA18.jpg,AFSA11.jpg,AFNE20.jpg,AFNE18.jpg,AFSA18.jpg,FS,4,num_8,32,num_6,1.48339486704,,,2018_Mar_07_1305,60.0106825138,FEMA4ImagesEEG,001,203117,
AFNE01.JPG,AFNE01.JPG,AFNE01.JPG,AFNE01.JPG,AFNE01.JPG,AFNE01.JPG,0,9,9,9,,,,,,,,,,,,,,,,,,,,,,,AFSA15.jpg,AFNE06.jpg,AFSA20.jpg,AFNE03.jpg,AFNE03.jpg,FN,3,num_4,16,num_4,1.26676975214,,,2018_Mar_07_1305,60.0106825138,FEMA4ImagesEEG,001,203117,
AFNE01.JPG,AFNE01.JPG,AFNE01.JPG,AFNE01.JPG,AFNE01.JPG,AFNE01.JPG,1,0,10,9,,,,,,,,,,,,,,,,,,,,,,,AFNE01.jpg,AFSA08.jpg,AFSA18.jpg,AFNE13.jpg,AFNE01.jpg,FN,3,num_8,32,num_2,1.23344851052,,,2018_Mar_07_1305,60.0106825138,FEMA4ImagesEEG,001,203117,
AFNE01.JPG,AFNE01.JPG,AFNE01.JPG,AFNE01.JPG,AFNE01.JPG,AFNE01.JPG,1,1,11,4,,,,,,,,,,,,,,,,,,,,,,,AFSA14.jpg,AFNE08.jpg,AFSA08.jpg,AFNE05.jpg,AFNE08.jpg,FN,3,num_6,32,num_4,1.06673742179,,,2018_Mar_07_1305,60.0106825138,FEMA4ImagesEEG,001,203117,
AFNE01.JPG,AFNE01.JPG,AFNE01.JPG,AFNE01.JPG,AFNE01.JPG,AFNE01.JPG,1,2,12,6,,,,,,,,,,,,,,,,,,,,,,,AFSA10.jpg,AFNE10.jpg,AFSA02.jpg,AFNE02.jpg,AFNE10.jpg,FN,3,num_6,32,num_8,0.616769960616,,,2018_Mar_07_1305,60.0106825138,FEMA4ImagesEEG,001,203117,
AFNE01.JPG,AFNE01.JPG,AFNE01.JPG,AFNE01.JPG,AFNE01.JPG,AFNE01.JPG,1,3,13,3,,,,,,,,,,,,,,,,,,,,,,,AFSA09.jpg,AFNE04.jpg,AFSA05.jpg,AFNE19.jpg,AFNE19.jpg,FN,3,num_4,32,num_2,0.883429378504,,,2018_Mar_07_1305,60.0106825138,FEMA4ImagesEEG,001,203117,
AFNE01.JPG,AFNE01.JPG,AFNE01.JPG,AFNE01.JPG,AFNE01.JPG,AFNE01.JPG,1,4,14,7,,,,,,,,,,,,,,,,,,,,,,,AFNE16.jpg,AFNE19.jpg,AFSA01.jpg,AFSA10.jpg,AFSA01.jpg,FS,4,num_2,32,num_4,0.750100471545,,,2018_Mar_07_1305,60.0106825138,FEMA4ImagesEEG,001,203117,
AFNE01.JPG,AFNE01.JPG,AFNE01.JPG,AFNE01.JPG,AFNE01.JPG,AFNE01.JPG,1,5,15,8,,,,,,,,,,,,,,,,,,,,,,,AFNE17.jpg,AFSA06.jpg,AFSA05.jpg,AFNE05.jpg,AFNE05.jpg,FN,3,num_4,32,num_8,0.650244515389,,,2018_Mar_07_1305,60.0106825138,FEMA4ImagesEEG,001,203117,
AFNE01.JPG,AFNE01.JPG,AFNE01.JPG,AFNE01.JPG,AFNE01.JPG,AFNE01.JPG,1,6,16,2,,,,,,,,,,,,,,,,,,,,,,,AFNE05.jpg,AFSA16.jpg,AFSA19.jpg,AFNE12.jpg,AFSA16.jpg,FS,4,num_6,32,num_2,0.600128103048,,,2018_Mar_07_1305,60.0106825138,FEMA4ImagesEEG,001,203117,
AFNE01.JPG,AFNE01.JPG,AFNE01.JPG,AFNE01.JPG,AFNE01.JPG,AFNE01.JPG,1,7,17,0,,,,,,,,,,,,,,,,,,,,,,,AFSA06.jpg,AFNE09.jpg,AFSA03.jpg,AFNE06.jpg,AFNE09.jpg,FN,3,num_6,32,num_4,1.11673933011,,,2018_Mar_07_1305,60.0106825138,FEMA4ImagesEEG,001,203117,
AFNE01.JPG,AFNE01.JPG,AFNE01.JPG,AFNE01.JPG,AFNE01.JPG,AFNE01.JPG,1,8,18,5,,,,,,,,,,,,,,,,,,,,,,,AFSA18.jpg,AFNE19.jpg,AFNE06.jpg,AFSA06.jpg,AFSA06.jpg,FS,4,num_4,32,num_8,1.45004347619,,,2018_Mar_07_1305,60.0106825138,FEMA4ImagesEEG,001,203117,
AFNE01.JPG,AFNE01.JPG,AFNE01.JPG,AFNE01.JPG,AFNE01.JPG,AFNE01.JPG,1,9,19,1,,,,,,,,,,,,,,,,,,,,,,,AFSA10.jpg,AFNE06.jpg,AFNE12.jpg,AFSA04.jpg,AFSA04.jpg,FS,4,num_4,16,num_4,0.783457315061,,,2018_Mar_07_1305,60.0106825138,FEMA4ImagesEEG,001,203117,
AFNE01.JPG,AFNE01.JPG,AFNE01.JPG,AFNE01.JPG,AFNE01.JPG,AFNE01.JPG,2,0,20,1,,,,,,,,,,,,,,,,,,,,,,,AFNE19.jpg,AFNE16.jpg,AFSA09.jpg,AFSA19.jpg,AFSA19.jpg,FS,4,num_4,16,num_4,0.866777257528,,,2018_Mar_07_1305,60.0106825138,FEMA4ImagesEEG,001,203117,
AFNE01.JPG,AFNE01.JPG,AFNE01.JPG,AFNE01.JPG,AFNE01.JPG,AFNE01.JPG,2,1,21,8,,,,,,,,,,,,,,,,,,,,,,,AFSA01.jpg,AFNE13.jpg,AFNE05.jpg,AFSA07.jpg,AFSA07.jpg,FS,4,num_4,16,num_4,0.533516731812,,,2018_Mar_07_1305,60.0106825138,FEMA4ImagesEEG,001,203117,
AFNE01.JPG,AFNE01.JPG,AFNE01.JPG,AFNE01.JPG,AFNE01.JPG,AFNE01.JPG,2,2,22,9,,,,,,,,,,,,,,,,,,,,,,,AFSA03.jpg,AFSA17.jpg,AFNE01.jpg,AFNE02.jpg,AFSA03.jpg,FS,4,num_8,32,num_2,1.85003693309,,,2018_Mar_07_1305,60.0106825138,FEMA4ImagesEEG,001,203117,
AFNE01.JPG,AFNE01.JPG,AFNE01.JPG,AFNE01.JPG,AFNE01.JPG,AFNE01.JPG,2,3,23,4,,,,,,,,,,,,,,,,,,,,,,,AFNE16.jpg,AFSA12.jpg,AFSA11.jpg,AFNE11.jpg,AFSA11.jpg,FS,4,num_2,32,num_8,0.666810999159,,,2018_Mar_07_1305,60.0106825138,FEMA4ImagesEEG,001,203117,
AFNE01.JPG,AFNE01.JPG,AFNE01.JPG,AFNE01.JPG,AFNE01.JPG,AFNE01.JPG,2,4,24,7,,,,,,,,,,,,,,,,,,,,,,,AFNE02.jpg,AFSA16.jpg,AFSA09.jpg,AFNE17.jpg,AFNE02.jpg,FN,3,num_8,32,num_4,0.533529882086,,,2018_Mar_07_1305,60.0106825138,FEMA4ImagesEEG,001,203117,
AFNE01.JPG,AFNE01.JPG,AFNE01.JPG,AFNE01.JPG,AFNE01.JPG,AFNE01.JPG,2,5,25,0,,,,,,,,,,,,,,,,,,,,,,,AFNE19.jpg,AFSA12.jpg,AFNE12.jpg,AFSA17.jpg,AFSA17.jpg,FS,4,num_4,32,num_6,0.733475613175,,,2018_Mar_07_1305,60.0106825138,FEMA4ImagesEEG,001,203117,
AFNE01.JPG,AFNE01.JPG,AFNE01.JPG,AFNE01.JPG,AFNE01.JPG,AFNE01.JPG,2,6,26,5,,,,,,,,,,,,,,,,,,,,,,,AFSA09.jpg,AFNE18.jpg,AFSA12.jpg,AFNE03.jpg,AFSA12.jpg,FS,4,num_2,32,num_8,0.583191486541,,,2018_Mar_07_1305,60.0106825138,FEMA4ImagesEEG,001,203117,
AFNE01.JPG,AFNE01.JPG,AFNE01.JPG,AFNE01.JPG,AFNE01.JPG,AFNE01.JPG,2,7,27,3,,,,,,,,,,,,,,,,,,,,,,,AFSA20.jpg,AFSA13.jpg,AFNE11.jpg,AFNE13.jpg,AFSA13.jpg,FS,4,num_6,32,num_4,0.616814864101,,,2018_Mar_07_1305,60.0106825138,FEMA4ImagesEEG,001,203117,
AFNE01.JPG,AFNE01.JPG,AFNE01.JPG,AFNE01.JPG,AFNE01.JPG,AFNE01.JPG,2,8,28,6,,,,,,,,,,,,,,,,,,,,,,,AFNE07.jpg,AFNE03.jpg,AFSA19.jpg,AFSA16.jpg,AFSA16.jpg,FS,4,num_4,16,num_4,0.466857249616,,,2018_Mar_07_1305,60.0106825138,FEMA4ImagesEEG,001,203117,
AFNE01.JPG,AFNE01.JPG,AFNE01.JPG,AFNE01.JPG,AFNE01.JPG,AFNE01.JPG,2,9,29,2,,,,,,,,,,,,,,,,,,,,,,,AFSA09.jpg,AFNE13.jpg,AFSA19.jpg,AFNE03.jpg,AFSA09.jpg,FS,4,num_8,32,num_2,1.15012215334,,,2018_Mar_07_1305,60.0106825138,FEMA4ImagesEEG,001,203117,
AFNE01.JPG,AFNE01.JPG,AFNE01.JPG,AFNE01.JPG,AFNE01.JPG,AFNE01.JPG,3,0,30,7,,,,,,,,,,,,,,,,,,,,,,,AFNE15.jpg,AFNE01.jpg,AFSA17.jpg,AFSA01.jpg,AFSA01.jpg,FS,4,num_4,32,num_6,0.66678501945,,,2018_Mar_07_1305,60.0106825138,FEMA4ImagesEEG,001,203117,
AFNE01.JPG,AFNE01.JPG,AFNE01.JPG,AFNE01.JPG,AFNE01.JPG,AFNE01.JPG,3,1,31,2,,,,,,,,,,,,,,,,,,,,,,,AFNE01.jpg,AFSA19.jpg,AFNE12.jpg,AFSA15.jpg,AFNE12.jpg,FN,3,num_2,16,num_2,0.800161716528,,,2018_Mar_07_1305,60.0106825138,FEMA4ImagesEEG,001,203117,
AFNE01.JPG,AFNE01.JPG,AFNE01.JPG,AFNE01.JPG,AFNE01.JPG,AFNE01.JPG,3,2,32,3,,,,,,,,,,,,,,,,,,,,,,,AFNE17.jpg,AFSA08.jpg,AFNE14.jpg,AFSA04.jpg,AFSA04.jpg,FS,4,num_4,32,num_8,0.366818793118,,,2018_Mar_07_1305,60.0106825138,FEMA4ImagesEEG,001,203117,
AFNE01.JPG,AFNE01.JPG,AFNE01.JPG,AFNE01.JPG,AFNE01.JPG,AFNE01.JPG,3,3,33,4,,,,,,,,,,,,,,,,,,,,,,,AFSA13.jpg,AFNE04.jpg,AFSA07.jpg,AFNE20.jpg,AFSA13.jpg,FS,4,num_8,32,num_4,1.26672901842,,,2018_Mar_07_1305,60.0106825138,FEMA4ImagesEEG,001,203117,
AFNE01.JPG,AFNE01.JPG,AFNE01.JPG,AFNE01.JPG,AFNE01.JPG,AFNE01.JPG,3,4,34,1,,,,,,,,,,,,,,,,,,,,,,,AFSA03.jpg,AFNE03.jpg,AFSA15.jpg,AFNE18.jpg,AFSA15.jpg,FS,4,num_2,16,num_2,0.816792027559,,,2018_Mar_07_1305,60.0106825138,FEMA4ImagesEEG,001,203117,
AFNE01.JPG,AFNE01.JPG,AFNE01.JPG,AFNE01.JPG,AFNE01.JPG,AFNE01.JPG,3,5,35,5,,,,,,,,,,,,,,,,,,,,,,,AFSA19.jpg,AFNE18.jpg,AFSA06.jpg,AFNE01.jpg,AFNE18.jpg,FN,3,num_6,16,num_6,0.500165661564,,,2018_Mar_07_1305,60.0106825138,FEMA4ImagesEEG,001,203117,
AFNE01.JPG,AFNE01.JPG,AFNE01.JPG,AFNE01.JPG,AFNE01.JPG,AFNE01.JPG,3,6,36,6,,,,,,,,,,,,,,,,,,,,,,,AFNE19.jpg,AFSA06.jpg,AFSA17.jpg,AFNE03.jpg,AFSA06.jpg,FS,4,num_6,32,num_2,0.633465381572,,,2018_Mar_07_1305,60.0106825138,FEMA4ImagesEEG,001,203117,
AFNE01.JPG,AFNE01.JPG,AFNE01.JPG,AFNE01.JPG,AFNE01.JPG,AFNE01.JPG,3,7,37,8,,,,,,,,,,,,,,,,,,,,,,,AFNE04.jpg,AFNE15.jpg,AFSA01.jpg,AFSA10.jpg,AFSA01.jpg,FS,4,num_2,32,num_6,0.916750299279,,,2018_Mar_07_1305,60.0106825138,FEMA4ImagesEEG,001,203117,
AFNE01.JPG,AFNE01.JPG,AFNE01.JPG,AFNE01.JPG,AFNE01.JPG,AFNE01.JPG,3,8,38,9,,,,,,,,,,,,,,,,,,,,,,,AFNE20.jpg,AFNE10.jpg,AFSA12.jpg,AFSA01.jpg,AFNE10.jpg,FN,3,num_6,16,num_6,0.833453450119,,,2018_Mar_07_1305,60.0106825138,FEMA4ImagesEEG,001,203117,
AFNE01.JPG,AFNE01.JPG,AFNE01.JPG,AFNE01.JPG,AFNE01.JPG,AFNE01.JPG,3,9,39,0,,,,,,,,,,,,,,,,,,,,,,,AFSA13.jpg,AFNE11.jpg,AFSA19.jpg,AFNE04.jpg,AFSA13.jpg,FS,4,num_8,32,num_2,0.850128664402,,,2018_Mar_07_1305,60.0106825138,FEMA4ImagesEEG,001,203117,
AFNE01.JPG,AFNE01.JPG,AFNE01.JPG,AFNE01.JPG,AFNE01.JPG,AFNE01.JPG,4,0,40,3,,,,,,,,,,,,,,,,,,,,,,,AFNE12.jpg,AFNE01.jpg,AFSA01.jpg,AFSA20.jpg,AFSA01.jpg,FS,4,num_2,32,num_8,0.983490928542,,,2018_Mar_07_1305,60.0106825138,FEMA4ImagesEEG,001,203117,
AFNE01.JPG,AFNE01.JPG,AFNE01.JPG,AFNE01.JPG,AFNE01.JPG,AFNE01.JPG,4,1,41,2,,,,,,,,,,,,,,,,,,,,,,,AFNE06.jpg,AFSA19.jpg,AFSA06.jpg,AFNE20.jpg,AFSA06.jpg,FS,4,num_2,32,num_6,3.28330704872,,,2018_Mar_07_1305,60.0106825138,FEMA4ImagesEEG,001,203117,
AFNE01.JPG,AFNE01.JPG,AFNE01.JPG,AFNE01.JPG,AFNE01.JPG,AFNE01.JPG,4,2,42,6,,,,,,,,,,,,,,,,,,,,,,,AFSA11.jpg,AFNE01.jpg,AFNE05.jpg,AFSA10.jpg,AFNE01.jpg,FN,3,num_6,32,num_2,1.90004782239,,,2018_Mar_07_1305,60.0106825138,FEMA4ImagesEEG,001,203117,
AFNE01.JPG,AFNE01.JPG,AFNE01.JPG,AFNE01.JPG,AFNE01.JPG,AFNE01.JPG,4,3,43,7,,,,,,,,,,,,,,,,,,,,,,,AFSA01.jpg,AFNE09.jpg,AFSA12.jpg,AFNE07.jpg,AFNE09.jpg,FN,3,num_6,16,num_6,1.20016222959,,,2018_Mar_07_1305,60.0106825138,FEMA4ImagesEEG,001,203117,
AFNE01.JPG,AFNE01.JPG,AFNE01.JPG,AFNE01.JPG,AFNE01.JPG,AFNE01.JPG,4,4,44,8,,,,,,,,,,,,,,,,,,,,,,,AFNE20.jpg,AFSA20.jpg,AFSA07.jpg,AFNE11.jpg,AFSA20.jpg,FS,4,num_6,32,num_2,1.2332951976,,,2018_Mar_07_1305,60.0106825138,FEMA4ImagesEEG,001,203117,
AFNE01.JPG,AFNE01.JPG,AFNE01.JPG,AFNE01.JPG,AFNE01.JPG,AFNE01.JPG,4,5,45,9,,,,,,,,,,,,,,,,,,,,,,,AFSA17.jpg,AFSA05.jpg,AFNE14.jpg,AFNE15.jpg,AFSA17.jpg,FS,4,num_8,16,num_8,1.33345553488,,,2018_Mar_07_1305,60.0106825138,FEMA4ImagesEEG,001,203117,
AFNE01.JPG,AFNE01.JPG,AFNE01.JPG,AFNE01.JPG,AFNE01.JPG,AFNE01.JPG,4,6,46,0,,,,,,,,,,,,,,,,,,,,,,,AFSA17.jpg,AFNE17.jpg,AFSA08.jpg,AFNE07.jpg,AFSA08.jpg,FS,4,num_2,16,num_2,0.916733620921,,,2018_Mar_07_1305,60.0106825138,FEMA4ImagesEEG,001,203117,
AFNE01.JPG,AFNE01.JPG,AFNE01.JPG,AFNE01.JPG,AFNE01.JPG,AFNE01.JPG,4,7,47,5,,,,,,,,,,,,,,,,,,,,,,,AFSA05.jpg,AFNE02.jpg,AFNE13.jpg,AFSA13.jpg,AFSA05.jpg,FS,4,num_8,32,num_2,0.700187728507,,,2018_Mar_07_1305,60.0106825138,FEMA4ImagesEEG,001,203117,
AFNE01.JPG,AFNE01.JPG,AFNE01.JPG,AFNE01.JPG,AFNE01.JPG,AFNE01.JPG,4,8,48,4,,,,,,,,,,,,,,,,,,,,,,,AFNE11.jpg,AFSA16.jpg,AFSA01.jpg,AFNE01.jpg,AFSA01.jpg,FS,4,num_2,16,num_2,0.949703653343,,,2018_Mar_07_1305,60.0106825138,FEMA4ImagesEEG,001,203117,
AFNE01.JPG,AFNE01.JPG,AFNE01.JPG,AFNE01.JPG,AFNE01.JPG,AFNE01.JPG,4,9,49,1,,,,,,,,,,,,,,,,,,,,,,,AFSA20.jpg,AFNE12.jpg,AFSA09.jpg,AFNE14.jpg,AFSA09.jpg,FS,4,num_2,32,num_4,0.550184889929,,,2018_Mar_07_1305,60.0106825138,FEMA4ImagesEEG,001,203117,
AFNE01.JPG,AFNE01.JPG,AFNE01.JPG,AFNE01.JPG,AFNE01.JPG,AFNE01.JPG,5,0,50,1,,,,,,,,,,,,,,,,,,,,,,,AFNE08.jpg,AFSA16.jpg,AFNE16.jpg,AFSA15.jpg,AFNE08.jpg,FN,3,num_8,16,num_8,0.683494552737,,,2018_Mar_07_1305,60.0106825138,FEMA4ImagesEEG,001,203117,
AFNE01.JPG,AFNE01.JPG,AFNE01.JPG,AFNE01.JPG,AFNE01.JPG,AFNE01.JPG,5,1,51,5,,,,,,,,,,,,,,,,,,,,,,,AFNE06.jpg,AFNE01.jpg,AFSA14.jpg,AFSA19.jpg,AFSA19.jpg,FS,4,num_4,16,num_4,0.533481771359,,,2018_Mar_07_1305,60.0106825138,FEMA4ImagesEEG,001,203117,
AFNE01.JPG,AFNE01.JPG,AFNE01.JPG,AFNE01.JPG,AFNE01.JPG,AFNE01.JPG,5,2,52,3,,,,,,,,,,,,,,,,,,,,,,,AFSA15.jpg,AFNE10.jpg,AFSA13.jpg,AFNE07.jpg,AFNE10.jpg,FN,3,num_6,32,num_8,1.73335854337,,,2018_Mar_07_1305,60.0106825138,FEMA4ImagesEEG,001,203117,
AFNE01.JPG,AFNE01.JPG,AFNE01.JPG,AFNE01.JPG,AFNE01.JPG,AFNE01.JPG,5,3,53,9,,,,,,,,,,,,,,,,,,,,,,,AFNE07.jpg,AFSA07.jpg,AFNE20.jpg,AFSA03.jpg,AFNE07.jpg,FN,3,num_8,16,num_8,0.783518896671,,,2018_Mar_07_1305,60.0106825138,FEMA4ImagesEEG,001,203117,
AFNE01.JPG,AFNE01.JPG,AFNE01.JPG,AFNE01.JPG,AFNE01.JPG,AFNE01.JPG,5,4,54,2,,,,,,,,,,,,,,,,,,,,,,,AFSA17.jpg,AFNE14.jpg,AFNE17.jpg,AFSA06.jpg,AFNE14.jpg,FN,3,num_6,16,num_6,0.900126724038,,,2018_Mar_07_1305,60.0106825138,FEMA4ImagesEEG,001,203117,
AFNE01.JPG,AFNE01.JPG,AFNE01.JPG,AFNE01.JPG,AFNE01.JPG,AFNE01.JPG,5,5,55,8,,,,,,,,,,,,,,,,,,,,,,,AFNE07.jpg,AFNE04.jpg,AFSA19.jpg,AFSA08.jpg,AFNE04.jpg,FN,3,num_6,16,num_6,0.983457250986,,,2018_Mar_07_1305,60.0106825138,FEMA4ImagesEEG,001,203117,
AFNE01.JPG,AFNE01.JPG,AFNE01.JPG,AFNE01.JPG,AFNE01.JPG,AFNE01.JPG,5,6,56,7,,,,,,,,,,,,,,,,,,,,,,,AFSA13.jpg,AFNE08.jpg,AFSA05.jpg,AFNE06.jpg,AFSA05.jpg,FS,4,num_2,16,num_2,0.666760643246,,,2018_Mar_07_1305,60.0106825138,FEMA4ImagesEEG,001,203117,
AFNE01.JPG,AFNE01.JPG,AFNE01.JPG,AFNE01.JPG,AFNE01.JPG,AFNE01.JPG,5,7,57,6,,,,,,,,,,,,,,,,,,,,,,,AFSA08.jpg,AFNE13.jpg,AFNE14.jpg,AFSA15.jpg,AFNE14.jpg,FN,3,num_2,16,num_2,0.81678721658,,,2018_Mar_07_1305,60.0106825138,FEMA4ImagesEEG,001,203117,
AFNE01.JPG,AFNE01.JPG,AFNE01.JPG,AFNE01.JPG,AFNE01.JPG,AFNE01.JPG,5,8,58,4,,,,,,,,,,,,,,,,,,,,,,,AFNE15.jpg,AFSA11.jpg,AFNE09.jpg,AFSA04.jpg,AFSA04.jpg,FS,4,num_4,32,num_6,0.766789156944,,,2018_Mar_07_1305,60.0106825138,FEMA4ImagesEEG,001,203117,
AFNE01.JPG,AFNE01.JPG,AFNE01.JPG,AFNE01.JPG,AFNE01.JPG,AFNE01.JPG,5,9,59,0,,,,,,,,,,,,,,,,,,,,,,,AFSA13.jpg,AFNE09.jpg,AFSA04.jpg,AFNE06.jpg,AFNE06.jpg,FN,3,num_4,32,num_2,0.983478740323,,,2018_Mar_07_1305,60.0106825138,FEMA4ImagesEEG,001,203117,
,,,,,,,,,,,,,,,,,,,,,,,,,,,,,,,,,,,,,,,,,,,space,3.03282249253,2018_Mar_07_1305,60.0106825138,FEMA4ImagesEEG,001,203117,
AFNE01.JPG,AFNE01.JPG,AFNE01.JPG,AFNE01.JPG,AFNE01.JPG,AFNE01.JPG,,,,,0,0,0,7,,,,,,,,,,,,,,,,,,,AMNE03.jpg,AMSA07.jpg,AMSA17.jpg,AMNE13.jpg,AMSA07.jpg,MS,2,num_6,16,num_6,0.483487881487,,,2018_Mar_07_1305,60.0106825138,FEMA4ImagesEEG,001,203117,
AFNE01.JPG,AFNE01.JPG,AFNE01.JPG,AFNE01.JPG,AFNE01.JPG,AFNE01.JPG,,,,,0,1,1,2,,,,,,,,,,,,,,,,,,,AMNE13.jpg,AMSA08.jpg,AMNE14.jpg,AMSA10.jpg,AMSA10.jpg,MS,2,num_4,32,num_2,0.966777546098,,,2018_Mar_07_1305,60.0106825138,FEMA4ImagesEEG,001,203117,
AFNE01.JPG,AFNE01.JPG,AFNE01.JPG,AFNE01.JPG,AFNE01.JPG,AFNE01.JPG,,,,,0,2,2,0,,,,,,,,,,,,,,,,,,,AMNE08.jpg,AMNE15.jpg,AMSA09.jpg,AMSA11.jpg,AMNE08.jpg,MN,1,num_8,32,num_4,0.533744135872,,,2018_Mar_07_1305,60.0106825138,FEMA4ImagesEEG,001,203117,
AFNE01.JPG,AFNE01.JPG,AFNE01.JPG,AFNE01.JPG,AFNE01.JPG,AFNE01.JPG,,,,,0,3,3,6,,,,,,,,,,,,,,,,,,,AMNE16.jpg,AMSA11.jpg,AMNE03.jpg,AMSA03.jpg,AMSA03.jpg,MS,2,num_4,16,num_4,0.766821230762,,,2018_Mar_07_1305,60.0106825138,FEMA4ImagesEEG,001,203117,
AFNE01.JPG,AFNE01.JPG,AFNE01.JPG,AFNE01.JPG,AFNE01.JPG,AFNE01.JPG,,,,,0,4,4,3,,,,,,,,,,,,,,,,,,,AMSA17.jpg,AMSA11.jpg,AMNE06.jpg,AMNE20.jpg,AMNE20.jpg,MN,1,num_4,32,num_2,1.03353036335,,,2018_Mar_07_1305,60.0106825138,FEMA4ImagesEEG,001,203117,
AFNE01.JPG,AFNE01.JPG,AFNE01.JPG,AFNE01.JPG,AFNE01.JPG,AFNE01.JPG,,,,,0,5,5,5,,,,,,,,,,,,,,,,,,,AMNE09.jpg,AMSA20.jpg,AMSA14.jpg,AMNE02.jpg,AMSA14.jpg,MS,2,num_2,16,num_2,0.983520436333,,,2018_Mar_07_1305,60.0106825138,FEMA4ImagesEEG,001,203117,
AFNE01.JPG,AFNE01.JPG,AFNE01.JPG,AFNE01.JPG,AFNE01.JPG,AFNE01.JPG,,,,,0,6,6,4,,,,,,,,,,,,,,,,,,,AMNE10.jpg,AMNE01.jpg,AMSA11.jpg,AMSA04.jpg,AMNE10.jpg,MN,1,num_8,32,num_4,0.816784009105,,,2018_Mar_07_1305,60.0106825138,FEMA4ImagesEEG,001,203117,
AFNE01.JPG,AFNE01.JPG,AFNE01.JPG,AFNE01.JPG,AFNE01.JPG,AFNE01.JPG,,,,,0,7,7,8,,,,,,,,,,,,,,,,,,,AMSA17.jpg,AMSA13.jpg,AMNE03.jpg,AMNE19.jpg,AMSA13.jpg,MS,2,num_6,32,num_8,0.566803974798,,,2018_Mar_07_1305,60.0106825138,FEMA4ImagesEEG,001,203117,
AFNE01.JPG,AFNE01.JPG,AFNE01.JPG,AFNE01.JPG,AFNE01.JPG,AFNE01.JPG,,,,,0,8,8,9,,,,,,,,,,,,,,,,,,,AMNE16.jpg,AMNE19.jpg,AMSA01.jpg,AMSA20.jpg,AMSA20.jpg,MS,2,num_4,16,num_4,0.783486181404,,,2018_Mar_07_1305,60.0106825138,FEMA4ImagesEEG,001,203117,
AFNE01.JPG,AFNE01.JPG,AFNE01.JPG,AFNE01.JPG,AFNE01.JPG,AFNE01.JPG,,,,,0,9,9,1,,,,,,,,,,,,,,,,,,,AMNE01.jpg,AMNE03.jpg,AMSA12.jpg,AMSA16.jpg,AMNE01.jpg,MN,1,num_8,32,num_2,1.10011030221,,,2018_Mar_07_1305,60.0106825138,FEMA4ImagesEEG,001,203117,
AFNE01.JPG,AFNE01.JPG,AFNE01.JPG,AFNE01.JPG,AFNE01.JPG,AFNE01.JPG,,,,,1,0,10,2,,,,,,,,,,,,,,,,,,,AMSA01.jpg,AMSA15.jpg,AMNE09.jpg,AMNE06.jpg,AMSA01.jpg,MS,2,num_8,16,num_8,0.650128728477,,,2018_Mar_07_1305,60.0106825138,FEMA4ImagesEEG,001,203117,
AFNE01.JPG,AFNE01.JPG,AFNE01.JPG,AFNE01.JPG,AFNE01.JPG,AFNE01.JPG,,,,,1,1,11,8,,,,,,,,,,,,,,,,,,,AMSA04.jpg,AMNE11.jpg,AMSA07.jpg,AMNE02.jpg,AMSA04.jpg,MS,2,num_8,16,num_8,0.950108105084,,,2018_Mar_07_1305,60.0106825138,FEMA4ImagesEEG,001,203117,
AFNE01.JPG,AFNE01.JPG,AFNE01.JPG,AFNE01.JPG,AFNE01.JPG,AFNE01.JPG,,,,,1,2,12,9,,,,,,,,,,,,,,,,,,,AMNE03.jpg,AMSA12.jpg,AMSA19.jpg,AMNE14.jpg,AMNE03.jpg,MN,1,num_8,32,num_6,1.06679451326,,,2018_Mar_07_1305,60.0106825138,FEMA4ImagesEEG,001,203117,
AFNE01.JPG,AFNE01.JPG,AFNE01.JPG,AFNE01.JPG,AFNE01.JPG,AFNE01.JPG,,,,,1,3,13,5,,,,,,,,,,,,,,,,,,,AMNE10.jpg,AMSA15.jpg,AMSA12.jpg,AMNE01.jpg,AMNE01.jpg,MN,1,num_4,16,num_4,1.08344182326,,,2018_Mar_07_1305,60.0106825138,FEMA4ImagesEEG,001,203117,
AFNE01.JPG,AFNE01.JPG,AFNE01.JPG,AFNE01.JPG,AFNE01.JPG,AFNE01.JPG,,,,,1,4,14,4,,,,,,,,,,,,,,,,,,,AMSA01.jpg,AMNE14.jpg,AMNE01.jpg,AMSA04.jpg,AMSA04.jpg,MS,2,num_4,16,num_4,1.6000591442,,,2018_Mar_07_1305,60.0106825138,FEMA4ImagesEEG,001,203117,
AFNE01.JPG,AFNE01.JPG,AFNE01.JPG,AFNE01.JPG,AFNE01.JPG,AFNE01.JPG,,,,,1,5,15,1,,,,,,,,,,,,,,,,,,,AMSA09.jpg,AMSA19.jpg,AMNE01.jpg,AMNE18.jpg,AMSA09.jpg,MS,2,num_8,32,num_2,1.1334216008,,,2018_Mar_07_1305,60.0106825138,FEMA4ImagesEEG,001,203117,
AFNE01.JPG,AFNE01.JPG,AFNE01.JPG,AFNE01.JPG,AFNE01.JPG,AFNE01.JPG,,,,,1,6,16,3,,,,,,,,,,,,,,,,,,,AMNE18.jpg,AMNE14.jpg,AMSA05.jpg,AMSA10.jpg,AMNE18.jpg,MN,1,num_8,32,num_2,0.866746787215,,,2018_Mar_07_1305,60.0106825138,FEMA4ImagesEEG,001,203117,
AFNE01.JPG,AFNE01.JPG,AFNE01.JPG,AFNE01.JPG,AFNE01.JPG,AFNE01.JPG,,,,,1,7,17,6,,,,,,,,,,,,,,,,,,,AMSA05.jpg,AMNE06.jpg,AMNE10.jpg,AMSA01.jpg,AMNE06.jpg,MN,1,num_6,32,num_2,0.90010972484,,,2018_Mar_07_1305,60.0106825138,FEMA4ImagesEEG,001,203117,
AFNE01.JPG,AFNE01.JPG,AFNE01.JPG,AFNE01.JPG,AFNE01.JPG,AFNE01.JPG,,,,,1,8,18,7,,,,,,,,,,,,,,,,,,,AMNE17.jpg,AMSA09.jpg,AMNE16.jpg,AMSA19.jpg,AMNE17.jpg,MN,1,num_8,16,num_8,2.98328116513,,,2018_Mar_07_1305,60.0106825138,FEMA4ImagesEEG,001,203117,
AFNE01.JPG,AFNE01.JPG,AFNE01.JPG,AFNE01.JPG,AFNE01.JPG,AFNE01.JPG,,,,,1,9,19,0,,,,,,,,,,,,,,,,,,,AMSA08.jpg,AMSA14.jpg,AMNE14.jpg,AMNE03.jpg,AMNE03.jpg,MN,1,num_4,16,num_4,1.28342091106,,,2018_Mar_07_1305,60.0106825138,FEMA4ImagesEEG,001,203117,
AFNE01.JPG,AFNE01.JPG,AFNE01.JPG,AFNE01.JPG,AFNE01.JPG,AFNE01.JPG,,,,,2,0,20,5,,,,,,,,,,,,,,,,,,,AMNE11.jpg,AMNE05.jpg,AMSA10.jpg,AMSA06.jpg,AMNE05.jpg,MN,1,num_6,32,num_4,0.966748679522,,,2018_Mar_07_1305,60.0106825138,FEMA4ImagesEEG,001,203117,
AFNE01.JPG,AFNE01.JPG,AFNE01.JPG,AFNE01.JPG,AFNE01.JPG,AFNE01.JPG,,,,,2,1,21,6,,,,,,,,,,,,,,,,,,,AMSA16.jpg,AMSA12.jpg,AMNE18.jpg,AMNE12.jpg,AMNE18.jpg,MN,1,num_2,32,num_8,1.01688882639,,,2018_Mar_07_1305,60.0106825138,FEMA4ImagesEEG,001,203117,
AFNE01.JPG,AFNE01.JPG,AFNE01.JPG,AFNE01.JPG,AFNE01.JPG,AFNE01.JPG,,,,,2,2,22,3,,,,,,,,,,,,,,,,,,,AMNE10.jpg,AMSA05.jpg,AMSA06.jpg,AMNE12.jpg,AMNE12.jpg,MN,1,num_4,32,num_2,1.46671580384,,,2018_Mar_07_1305,60.0106825138,FEMA4ImagesEEG,001,203117,
AFNE01.JPG,AFNE01.JPG,AFNE01.JPG,AFNE01.JPG,AFNE01.JPG,AFNE01.JPG,,,,,2,3,23,0,,,,,,,,,,,,,,,,,,,AMNE19.jpg,AMSA20.jpg,AMNE15.jpg,AMSA12.jpg,AMSA12.jpg,MS,2,num_4,32,num_6,0.633495851653,,,2018_Mar_07_1305,60.0106825138,FEMA4ImagesEEG,001,203117,
AFNE01.JPG,AFNE01.JPG,AFNE01.JPG,AFNE01.JPG,AFNE01.JPG,AFNE01.JPG,,,,,2,4,24,9,,,,,,,,,,,,,,,,,,,AMSA17.jpg,AMNE17.jpg,AMSA15.jpg,AMNE14.jpg,AMSA15.jpg,MS,2,num_2,16,num_2,0.43349559512,,,2018_Mar_07_1305,60.0106825138,FEMA4ImagesEEG,001,203117,
AFNE01.JPG,AFNE01.JPG,AFNE01.JPG,AFNE01.JPG,AFNE01.JPG,AFNE01.JPG,,,,,2,5,25,4,,,,,,,,,,,,,,,,,,,AMNE08.jpg,AMSA11.jpg,AMSA17.jpg,AMNE09.jpg,AMNE08.jpg,MN,1,num_8,32,num_6,0.583572845208,,,2018_Mar_07_1305,60.0106825138,FEMA4ImagesEEG,001,203117,
AFNE01.JPG,AFNE01.JPG,AFNE01.JPG,AFNE01.JPG,AFNE01.JPG,AFNE01.JPG,,,,,2,6,26,8,,,,,,,,,,,,,,,,,,,AMSA17.jpg,AMNE10.jpg,AMSA20.jpg,AMNE11.jpg,AMNE11.jpg,MN,1,num_4,32,num_6,0.81678080163,,,2018_Mar_07_1305,60.0106825138,FEMA4ImagesEEG,001,203117,
AFNE01.JPG,AFNE01.JPG,AFNE01.JPG,AFNE01.JPG,AFNE01.JPG,AFNE01.JPG,,,,,2,7,27,7,,,,,,,,,,,,,,,,,,,AMSA01.jpg,AMNE03.jpg,AMNE13.jpg,AMSA05.jpg,AMSA01.jpg,MS,2,num_8,32,num_4,0.583436210407,,,2018_Mar_07_1305,60.0106825138,FEMA4ImagesEEG,001,203117,
AFNE01.JPG,AFNE01.JPG,AFNE01.JPG,AFNE01.JPG,AFNE01.JPG,AFNE01.JPG,,,,,2,8,28,2,,,,,,,,,,,,,,,,,,,AMSA16.jpg,AMSA19.jpg,AMNE01.jpg,AMNE19.jpg,AMSA19.jpg,MS,2,num_6,32,num_8,0.516750427661,,,2018_Mar_07_1305,60.0106825138,FEMA4ImagesEEG,001,203117,
AFNE01.JPG,AFNE01.JPG,AFNE01.JPG,AFNE01.JPG,AFNE01.JPG,AFNE01.JPG,,,,,2,9,29,1,,,,,,,,,,,,,,,,,,,AMNE03.jpg,AMSA07.jpg,AMNE07.jpg,AMSA08.jpg,AMNE03.jpg,MN,1,num_8,32,num_4,0.533524108818,,,2018_Mar_07_1305,60.0106825138,FEMA4ImagesEEG,001,203117,
AFNE01.JPG,AFNE01.JPG,AFNE01.JPG,AFNE01.JPG,AFNE01.JPG,AFNE01.JPG,,,,,3,0,30,6,,,,,,,,,,,,,,,,,,,AMSA07.jpg,AMSA16.jpg,AMNE06.jpg,AMNE12.jpg,AMSA16.jpg,MS,2,num_6,16,num_6,0.850086647784,,,2018_Mar_07_1305,60.0106825138,FEMA4ImagesEEG,001,203117,
AFNE01.JPG,AFNE01.JPG,AFNE01.JPG,AFNE01.JPG,AFNE01.JPG,AFNE01.JPG,,,,,3,1,31,3,,,,,,,,,,,,,,,,,,,AMSA11.jpg,AMNE17.jpg,AMNE18.jpg,AMSA14.jpg,AMNE17.jpg,MN,1,num_6,32,num_8,0.900141477818,,,2018_Mar_07_1305,60.0106825138,FEMA4ImagesEEG,001,203117,
AFNE01.JPG,AFNE01.JPG,AFNE01.JPG,AFNE01.JPG,AFNE01.JPG,AFNE01.JPG,,,,,3,2,32,9,,,,,,,,,,,,,,,,,,,AMSA03.jpg,AMNE11.jpg,AMSA04.jpg,AMNE10.jpg,AMNE10.jpg,MN,1,num_4,16,num_4,0.816626526183,,,2018_Mar_07_1305,60.0106825138,FEMA4ImagesEEG,001,203117,
AFNE01.JPG,AFNE01.JPG,AFNE01.JPG,AFNE01.JPG,AFNE01.JPG,AFNE01.JPG,,,,,3,3,33,0,,,,,,,,,,,,,,,,,,,AMNE09.jpg,AMNE19.jpg,AMSA02.jpg,AMSA17.jpg,AMSA02.jpg,MS,2,num_2,16,num_2,0.51681425469,,,2018_Mar_07_1305,60.0106825138,FEMA4ImagesEEG,001,203117,
AFNE01.JPG,AFNE01.JPG,AFNE01.JPG,AFNE01.JPG,AFNE01.JPG,AFNE01.JPG,,,,,3,4,34,5,,,,,,,,,,,,,,,,,,,AMSA19.jpg,AMNE09.jpg,AMSA06.jpg,AMNE16.jpg,AMNE16.jpg,MN,1,num_4,16,num_4,0.950095917098,,,2018_Mar_07_1305,60.0106825138,FEMA4ImagesEEG,001,203117,
AFNE01.JPG,AFNE01.JPG,AFNE01.JPG,AFNE01.JPG,AFNE01.JPG,AFNE01.JPG,,,,,3,5,35,4,,,,,,,,,,,,,,,,,,,AMNE04.jpg,AMSA17.jpg,AMSA14.jpg,AMNE06.jpg,AMNE04.jpg,MN,1,num_8,16,num_8,0.967041514115,,,2018_Mar_07_1305,60.0106825138,FEMA4ImagesEEG,001,203117,
AFNE01.JPG,AFNE01.JPG,AFNE01.JPG,AFNE01.JPG,AFNE01.JPG,AFNE01.JPG,,,,,3,6,36,7,,,,,,,,,,,,,,,,,,,AMSA05.jpg,AMNE11.jpg,AMSA14.jpg,AMNE14.jpg,AMSA05.jpg,MS,2,num_8,16,num_8,0.700350343017,,,2018_Mar_07_1305,60.0106825138,FEMA4ImagesEEG,001,203117,
AFNE01.JPG,AFNE01.JPG,AFNE01.JPG,AFNE01.JPG,AFNE01.JPG,AFNE01.JPG,,,,,3,7,37,1,,,,,,,,,,,,,,,,,,,AMNE19.jpg,AMSA19.jpg,AMSA01.jpg,AMNE10.jpg,AMNE10.jpg,MN,1,num_4,16,num_4,0.833334135357,,,2018_Mar_07_1305,60.0106825138,FEMA4ImagesEEG,001,203117,
AFNE01.JPG,AFNE01.JPG,AFNE01.JPG,AFNE01.JPG,AFNE01.JPG,AFNE01.JPG,,,,,3,8,38,2,,,,,,,,,,,,,,,,,,,AMNE12.jpg,AMSA16.jpg,AMSA07.jpg,AMNE18.jpg,AMSA07.jpg,MS,2,num_2,16,num_2,0.800148887094,,,2018_Mar_07_1305,60.0106825138,FEMA4ImagesEEG,001,203117,
AFNE01.JPG,AFNE01.JPG,AFNE01.JPG,AFNE01.JPG,AFNE01.JPG,AFNE01.JPG,,,,,3,9,39,8,,,,,,,,,,,,,,,,,,,AMNE01.jpg,AMSA15.jpg,AMSA09.jpg,AMNE15.jpg,AMNE15.jpg,MN,1,num_4,32,num_6,0.850135079119,,,2018_Mar_07_1305,60.0106825138,FEMA4ImagesEEG,001,203117,
AFNE01.JPG,AFNE01.JPG,AFNE01.JPG,AFNE01.JPG,AFNE01.JPG,AFNE01.JPG,,,,,4,0,40,2,,,,,,,,,,,,,,,,,,,AMSA04.jpg,AMSA09.jpg,AMNE04.jpg,AMNE10.jpg,AMSA04.jpg,MS,2,num_8,16,num_8,0.816825063666,,,2018_Mar_07_1305,60.0106825138,FEMA4ImagesEEG,001,203117,
AFNE01.JPG,AFNE01.JPG,AFNE01.JPG,AFNE01.JPG,AFNE01.JPG,AFNE01.JPG,,,,,4,1,41,7,,,,,,,,,,,,,,,,,,,AMNE13.jpg,AMSA18.jpg,AMSA17.jpg,AMNE10.jpg,AMNE10.jpg,MN,1,num_4,16,num_4,1.28344400413,,,2018_Mar_07_1305,60.0106825138,FEMA4ImagesEEG,001,203117,
AFNE01.JPG,AFNE01.JPG,AFNE01.JPG,AFNE01.JPG,AFNE01.JPG,AFNE01.JPG,,,,,4,2,42,8,,,,,,,,,,,,,,,,,,,AMNE01.jpg,AMNE17.jpg,AMSA14.jpg,AMSA04.jpg,AMSA14.jpg,MS,2,num_2,16,num_2,1.25010095257,,,2018_Mar_07_1305,60.0106825138,FEMA4ImagesEEG,001,203117,
AFNE01.JPG,AFNE01.JPG,AFNE01.JPG,AFNE01.JPG,AFNE01.JPG,AFNE01.JPG,,,,,4,3,43,0,,,,,,,,,,,,,,,,,,,AMSA08.jpg,AMNE07.jpg,AMSA11.jpg,AMNE04.jpg,AMSA08.jpg,MS,2,num_8,16,num_8,1.23342702119,,,2018_Mar_07_1305,60.0106825138,FEMA4ImagesEEG,001,203117,
AFNE01.JPG,AFNE01.JPG,AFNE01.JPG,AFNE01.JPG,AFNE01.JPG,AFNE01.JPG,,,,,4,4,44,3,,,,,,,,,,,,,,,,,,,AMNE08.jpg,AMSA12.jpg,AMNE18.jpg,AMSA01.jpg,AMNE18.jpg,MN,1,num_2,32,num_8,1.85004591383,,,2018_Mar_07_1305,60.0106825138,FEMA4ImagesEEG,001,203117,
AFNE01.JPG,AFNE01.JPG,AFNE01.JPG,AFNE01.JPG,AFNE01.JPG,AFNE01.JPG,,,,,4,5,45,9,,,,,,,,,,,,,,,,,,,AMNE20.jpg,AMSA14.jpg,AMNE05.jpg,AMSA06.jpg,AMSA06.jpg,MS,2,num_4,32,num_6,0.733523403062,,,2018_Mar_07_1305,60.0106825138,FEMA4ImagesEEG,001,203117,
AFNE01.JPG,AFNE01.JPG,AFNE01.JPG,AFNE01.JPG,AFNE01.JPG,AFNE01.JPG,,,,,4,6,46,5,,,,,,,,,,,,,,,,,,,AMSA14.jpg,AMNE18.jpg,AMNE08.jpg,AMSA09.jpg,AMSA14.jpg,MS,2,num_8,32,num_2,1.25009293412,,,2018_Mar_07_1305,60.0106825138,FEMA4ImagesEEG,001,203117,
AFNE01.JPG,AFNE01.JPG,AFNE01.JPG,AFNE01.JPG,AFNE01.JPG,AFNE01.JPG,,,,,4,7,47,1,,,,,,,,,,,,,,,,,,,AMSA16.jpg,AMNE15.jpg,AMSA15.jpg,AMNE11.jpg,AMNE15.jpg,MN,1,num_6,16,num_6,0.816771179438,,,2018_Mar_07_1305,60.0106825138,FEMA4ImagesEEG,001,203117,
AFNE01.JPG,AFNE01.JPG,AFNE01.JPG,AFNE01.JPG,AFNE01.JPG,AFNE01.JPG,,,,,4,8,48,4,,,,,,,,,,,,,,,,,,,AMSA12.jpg,AMNE05.jpg,AMSA06.jpg,AMNE16.jpg,AMSA12.jpg,MS,2,num_8,32,num_2,1.45012494386,,,2018_Mar_07_1305,60.0106825138,FEMA4ImagesEEG,001,203117,
AFNE01.JPG,AFNE01.JPG,AFNE01.JPG,AFNE01.JPG,AFNE01.JPG,AFNE01.JPG,,,,,4,9,49,6,,,,,,,,,,,,,,,,,,,AMSA15.jpg,AMSA07.jpg,AMNE18.jpg,AMNE05.jpg,AMSA07.jpg,MS,2,num_6,16,num_6,1.23344145436,,,2018_Mar_07_1305,60.0106825138,FEMA4ImagesEEG,001,203117,
AFNE01.JPG,AFNE01.JPG,AFNE01.JPG,AFNE01.JPG,AFNE01.JPG,AFNE01.JPG,,,,,5,0,50,6,,,,,,,,,,,,,,,,,,,AMSA14.jpg,AMNE20.jpg,AMSA16.jpg,AMNE19.jpg,AMSA16.jpg,MS,2,num_2,16,num_2,1.43347057747,,,2018_Mar_07_1305,60.0106825138,FEMA4ImagesEEG,001,203117,
AFNE01.JPG,AFNE01.JPG,AFNE01.JPG,AFNE01.JPG,AFNE01.JPG,AFNE01.JPG,,,,,5,1,51,9,,,,,,,,,,,,,,,,,,,AMNE18.jpg,AMNE16.jpg,AMSA09.jpg,AMSA20.jpg,AMSA09.jpg,MS,2,num_2,32,num_8,1.1834366594,,,2018_Mar_07_1305,60.0106825138,FEMA4ImagesEEG,001,203117,
AFNE01.JPG,AFNE01.JPG,AFNE01.JPG,AFNE01.JPG,AFNE01.JPG,AFNE01.JPG,,,,,5,2,52,2,,,,,,,,,,,,,,,,,,,AMNE05.jpg,AMSA09.jpg,AMSA03.jpg,AMNE19.jpg,AMNE05.jpg,MN,1,num_8,32,num_4,1.20009711967,,,2018_Mar_07_1305,60.0106825138,FEMA4ImagesEEG,001,203117,
AFNE01.JPG,AFNE01.JPG,AFNE01.JPG,AFNE01.JPG,AFNE01.JPG,AFNE01.JPG,,,,,5,3,53,5,,,,,,,,,,,,,,,,,,,AMNE18.jpg,AMSA13.jpg,AMSA03.jpg,AMNE13.jpg,AMNE13.jpg,MN,1,num_4,32,num_8,0.633504190948,,,2018_Mar_07_1305,60.0106825138,FEMA4ImagesEEG,001,203117,
AFNE01.JPG,AFNE01.JPG,AFNE01.JPG,AFNE01.JPG,AFNE01.JPG,AFNE01.JPG,,,,,5,4,54,8,,,,,,,,,,,,,,,,,,,AMSA18.jpg,AMNE20.jpg,AMSA03.jpg,AMNE10.jpg,AMSA03.jpg,MS,2,num_2,16,num_2,1.38314215699,,,2018_Mar_07_1305,60.0106825138,FEMA4ImagesEEG,001,203117,
AFNE01.JPG,AFNE01.JPG,AFNE01.JPG,AFNE01.JPG,AFNE01.JPG,AFNE01.JPG,,,,,5,5,55,4,,,,,,,,,,,,,,,,,,,AMNE16.jpg,AMNE10.jpg,AMSA17.jpg,AMSA06.jpg,AMNE10.jpg,MN,1,num_6,16,num_6,0.916779486695,,,2018_Mar_07_1305,60.0106825138,FEMA4ImagesEEG,001,203117,
AFNE01.JPG,AFNE01.JPG,AFNE01.JPG,AFNE01.JPG,AFNE01.JPG,AFNE01.JPG,,,,,5,6,56,3,,,,,,,,,,,,,,,,,,,AMNE09.jpg,AMSA02.jpg,AMNE02.jpg,AMSA07.jpg,AMSA07.jpg,MS,2,num_4,16,num_4,1.01681441488,,,2018_Mar_07_1305,60.0106825138,FEMA4ImagesEEG,001,203117,
AFNE01.JPG,AFNE01.JPG,AFNE01.JPG,AFNE01.JPG,AFNE01.JPG,AFNE01.JPG,,,,,5,7,57,1,,,,,,,,,,,,,,,,,,,AMNE05.jpg,AMSA14.jpg,AMNE04.jpg,AMSA04.jpg,AMNE04.jpg,MN,1,num_2,16,num_2,1.30007976759,,,2018_Mar_07_1305,60.0106825138,FEMA4ImagesEEG,001,203117,
AFNE01.JPG,AFNE01.JPG,AFNE01.JPG,AFNE01.JPG,AFNE01.JPG,AFNE01.JPG,,,,,5,8,58,0,,,,,,,,,,,,,,,,,,,AMNE07.jpg,AMSA09.jpg,AMNE14.jpg,AMSA01.jpg,AMSA09.jpg,MS,2,num_6,32,num_8,1.18344756449,,,2018_Mar_07_1305,60.0106825138,FEMA4ImagesEEG,001,203117,
AFNE01.JPG,AFNE01.JPG,AFNE01.JPG,AFNE01.JPG,AFNE01.JPG,AFNE01.JPG,,,,,5,9,59,7,,,,,,,,,,,,,,,,,,,AMNE14.jpg,AMNE12.jpg,AMSA18.jpg,AMSA08.jpg,AMNE12.jpg,MN,1,num_6,32,num_8,1.25013270555,,,2018_Mar_07_1305,60.0106825138,FEMA4ImagesEEG,001,203117,
,,,,,,,,,,,,,,,,,,,,,,,,,,,,,,,,,,,,,,,,,,,space,2.88348358334,2018_Mar_07_1305,60.0106825138,FEMA4ImagesEEG,001,203117,
AFNE01.JPG,AFNE01.JPG,AFNE01.JPG,AFNE01.JPG,AFNE01.JPG,AFNE01.JPG,,,,,,,,,0,0,0,9,,,,,,,,,,,,,,,AFSA07.jpg,AFNE20.jpg,AFNE15.jpg,AFSA04.jpg,AFNE15.jpg,FN,3,num_2,32,num_8,1.30006790045,,,2018_Mar_07_1305,60.0106825138,FEMA4ImagesEEG,001,203117,
AFNE01.JPG,AFNE01.JPG,AFNE01.JPG,AFNE01.JPG,AFNE01.JPG,AFNE01.JPG,,,,,,,,,0,1,1,1,,,,,,,,,,,,,,,AFSA13.jpg,AFNE19.jpg,AFNE15.jpg,AFSA07.jpg,AFNE15.jpg,FN,3,num_2,16,num_2,0.600128744496,,,2018_Mar_07_1305,60.0106825138,FEMA4ImagesEEG,001,203117,
AFNE01.JPG,AFNE01.JPG,AFNE01.JPG,AFNE01.JPG,AFNE01.JPG,AFNE01.JPG,,,,,,,,,0,2,2,2,,,,,,,,,,,,,,,AFSA03.jpg,AFSA06.jpg,AFNE17.jpg,AFNE11.jpg,AFSA06.jpg,FS,4,num_6,32,num_8,0.516794689465,,,2018_Mar_07_1305,60.0106825138,FEMA4ImagesEEG,001,203117,
AFNE01.JPG,AFNE01.JPG,AFNE01.JPG,AFNE01.JPG,AFNE01.JPG,AFNE01.JPG,,,,,,,,,0,3,3,0,,,,,,,,,,,,,,,AFNE07.jpg,AFNE17.jpg,AFSA09.jpg,AFSA15.jpg,AFSA09.jpg,FS,4,num_2,32,num_6,0.733435199829,,,2018_Mar_07_1305,60.0106825138,FEMA4ImagesEEG,001,203117,
AFNE01.JPG,AFNE01.JPG,AFNE01.JPG,AFNE01.JPG,AFNE01.JPG,AFNE01.JPG,,,,,,,,,0,4,4,8,,,,,,,,,,,,,,,AFSA16.jpg,AFNE11.jpg,AFSA09.jpg,AFNE09.jpg,AFSA16.jpg,FS,4,num_8,16,num_8,0.533459960949,,,2018_Mar_07_1305,60.0106825138,FEMA4ImagesEEG,001,203117,
AFNE01.JPG,AFNE01.JPG,AFNE01.JPG,AFNE01.JPG,AFNE01.JPG,AFNE01.JPG,,,,,,,,,0,5,5,3,,,,,,,,,,,,,,,AFSA14.jpg,AFNE12.jpg,AFNE16.jpg,AFSA12.jpg,AFSA14.jpg,FS,4,num_8,32,num_4,0.733585947426,,,2018_Mar_07_1305,60.0106825138,FEMA4ImagesEEG,001,203117,
AFNE01.JPG,AFNE01.JPG,AFNE01.JPG,AFNE01.JPG,AFNE01.JPG,AFNE01.JPG,,,,,,,,,0,6,6,5,,,,,,,,,,,,,,,AFNE07.jpg,AFNE10.jpg,AFSA12.jpg,AFSA08.jpg,AFSA12.jpg,FS,4,num_2,16,num_2,1.3334776659,,,2018_Mar_07_1305,60.0106825138,FEMA4ImagesEEG,001,203117,
AFNE01.JPG,AFNE01.JPG,AFNE01.JPG,AFNE01.JPG,AFNE01.JPG,AFNE01.JPG,,,,,,,,,0,7,7,6,,,,,,,,,,,,,,,AFSA06.jpg,AFNE14.jpg,AFSA17.jpg,AFNE12.jpg,AFSA06.jpg,FS,4,num_8,32,num_6,1.65014091646,,,2018_Mar_07_1305,60.0106825138,FEMA4ImagesEEG,001,203117,
AFNE01.JPG,AFNE01.JPG,AFNE01.JPG,AFNE01.JPG,AFNE01.JPG,AFNE01.JPG,,,,,,,,,0,8,8,7,,,,,,,,,,,,,,,AFNE03.jpg,AFSA05.jpg,AFSA09.jpg,AFNE10.jpg,AFNE10.jpg,FN,3,num_4,32,num_8,1.05010582763,,,2018_Mar_07_1305,60.0106825138,FEMA4ImagesEEG,001,203117,
AFNE01.JPG,AFNE01.JPG,AFNE01.JPG,AFNE01.JPG,AFNE01.JPG,AFNE01.JPG,,,,,,,,,0,9,9,4,,,,,,,,,,,,,,,AFNE11.jpg,AFSA14.jpg,AFNE08.jpg,AFSA17.jpg,AFSA17.jpg,FS,4,num_4,32,num_8,0.866790728411,,,2018_Mar_07_1305,60.0106825138,FEMA4ImagesEEG,001,203117,
AFNE01.JPG,AFNE01.JPG,AFNE01.JPG,AFNE01.JPG,AFNE01.JPG,AFNE01.JPG,,,,,,,,,1,0,10,1,,,,,,,,,,,,,,,AFSA20.jpg,AFSA13.jpg,AFNE19.jpg,AFNE17.jpg,AFNE19.jpg,FN,3,num_2,16,num_2,3.68324694224,,,2018_Mar_07_1305,60.0106825138,FEMA4ImagesEEG,001,203117,
AFNE01.JPG,AFNE01.JPG,AFNE01.JPG,AFNE01.JPG,AFNE01.JPG,AFNE01.JPG,,,,,,,,,1,1,11,5,,,,,,,,,,,,,,,AFNE16.jpg,AFSA03.jpg,AFSA15.jpg,AFNE12.jpg,AFSA15.jpg,FS,4,num_2,16,num_2,1.21662030369,,,2018_Mar_07_1305,60.0106825138,FEMA4ImagesEEG,001,203117,
AFNE01.JPG,AFNE01.JPG,AFNE01.JPG,AFNE01.JPG,AFNE01.JPG,AFNE01.JPG,,,,,,,,,1,2,12,4,,,,,,,,,,,,,,,AFSA09.jpg,AFNE17.jpg,AFSA02.jpg,AFNE15.jpg,AFSA02.jpg,FS,4,num_2,16,num_2,1.8333742274,,,2018_Mar_07_1305,60.0106825138,FEMA4ImagesEEG,001,203117,
AFNE01.JPG,AFNE01.JPG,AFNE01.JPG,AFNE01.JPG,AFNE01.JPG,AFNE01.JPG,,,,,,,,,1,3,13,8,,,,,,,,,,,,,,,AFSA07.jpg,AFNE06.jpg,AFNE11.jpg,AFSA06.jpg,AFNE06.jpg,FN,3,num_6,16,num_6,2.40002392698,,,2018_Mar_07_1305,60.0106825138,FEMA4ImagesEEG,001,203117,
AFNE01.JPG,AFNE01.JPG,AFNE01.JPG,AFNE01.JPG,AFNE01.JPG,AFNE01.JPG,,,,,,,,,1,4,14,6,,,,,,,,,,,,,,,AFNE14.jpg,AFNE15.jpg,AFSA01.jpg,AFSA17.jpg,AFNE15.jpg,FN,3,num_6,32,num_8,0.68347178027,,,2018_Mar_07_1305,60.0106825138,FEMA4ImagesEEG,001,203117,
AFNE01.JPG,AFNE01.JPG,AFNE01.JPG,AFNE01.JPG,AFNE01.JPG,AFNE01.JPG,,,,,,,,,1,5,15,3,,,,,,,,,,,,,,,AFSA09.jpg,AFSA19.jpg,AFNE11.jpg,AFNE13.jpg,AFSA09.jpg,FS,4,num_8,32,num_4,0.799988838146,,,2018_Mar_07_1305,60.0106825138,FEMA4ImagesEEG,001,203117,
AFNE01.JPG,AFNE01.JPG,AFNE01.JPG,AFNE01.JPG,AFNE01.JPG,AFNE01.JPG,,,,,,,,,1,6,16,2,,,,,,,,,,,,,,,AFSA06.jpg,AFNE04.jpg,AFNE20.jpg,AFSA15.jpg,AFSA15.jpg,FS,4,num_4,32,num_8,0.900110366289,,,2018_Mar_07_1305,60.0106825138,FEMA4ImagesEEG,001,203117,
AFNE01.JPG,AFNE01.JPG,AFNE01.JPG,AFNE01.JPG,AFNE01.JPG,AFNE01.JPG,,,,,,,,,1,7,17,0,,,,,,,,,,,,,,,AFNE13.jpg,AFSA06.jpg,AFSA03.jpg,AFNE01.jpg,AFNE13.jpg,FN,3,num_8,32,num_4,0.766857794952,,,2018_Mar_07_1305,60.0106825138,FEMA4ImagesEEG,001,203117,
AFNE01.JPG,AFNE01.JPG,AFNE01.JPG,AFNE01.JPG,AFNE01.JPG,AFNE01.JPG,,,,,,,,,1,8,18,9,,,,,,,,,,,,,,,AFNE19.jpg,AFNE04.jpg,AFSA15.jpg,AFSA17.jpg,AFSA15.jpg,FS,4,num_2,16,num_2,1.11677461141,,,2018_Mar_07_1305,60.0106825138,FEMA4ImagesEEG,001,203117,
AFNE01.JPG,AFNE01.JPG,AFNE01.JPG,AFNE01.JPG,AFNE01.JPG,AFNE01.JPG,,,,,,,,,1,9,19,7,,,,,,,,,,,,,,,AFSA05.jpg,AFNE17.jpg,AFSA08.jpg,AFNE20.jpg,AFNE17.jpg,FN,3,num_6,32,num_8,0.900117101846,,,2018_Mar_07_1305,60.0106825138,FEMA4ImagesEEG,001,203117,
AFNE01.JPG,AFNE01.JPG,AFNE01.JPG,AFNE01.JPG,AFNE01.JPG,AFNE01.JPG,,,,,,,,,2,0,20,7,,,,,,,,,,,,,,,AFNE06.jpg,AFNE14.jpg,AFSA20.jpg,AFSA14.jpg,AFNE14.jpg,FN,3,num_6,32,num_4,1.35015031416,,,2018_Mar_07_1305,60.0106825138,FEMA4ImagesEEG,001,203117,
AFNE01.JPG,AFNE01.JPG,AFNE01.JPG,AFNE01.JPG,AFNE01.JPG,AFNE01.JPG,,,,,,,,,2,1,21,6,,,,,,,,,,,,,,,AFNE14.jpg,AFSA14.jpg,AFSA10.jpg,AFNE09.jpg,AFNE14.jpg,FN,3,num_8,32,num_6,0.533516731812,,,2018_Mar_07_1305,60.0106825138,FEMA4ImagesEEG,001,203117,
AFNE01.JPG,AFNE01.JPG,AFNE01.JPG,AFNE01.JPG,AFNE01.JPG,AFNE01.JPG,,,,,,,,,2,2,22,2,,,,,,,,,,,,,,,AFNE18.jpg,AFSA14.jpg,AFNE04.jpg,AFSA10.jpg,AFNE18.jpg,FN,3,num_8,16,num_8,0.45011532167,,,2018_Mar_07_1305,60.0106825138,FEMA4ImagesEEG,001,203117,
AFNE01.JPG,AFNE01.JPG,AFNE01.JPG,AFNE01.JPG,AFNE01.JPG,AFNE01.JPG,,,,,,,,,2,3,23,4,,,,,,,,,,,,,,,AFNE05.jpg,AFSA06.jpg,AFNE20.jpg,AFSA18.jpg,AFNE05.jpg,FN,3,num_8,32,num_4,1.25009325473,,,2018_Mar_07_1305,60.0106825138,FEMA4ImagesEEG,001,203117,
AFNE01.JPG,AFNE01.JPG,AFNE01.JPG,AFNE01.JPG,AFNE01.JPG,AFNE01.JPG,,,,,,,,,2,4,24,8,,,,,,,,,,,,,,,AFNE17.jpg,AFSA03.jpg,AFSA04.jpg,AFNE20.jpg,AFSA04.jpg,FS,4,num_2,32,num_6,0.58332876279,,,2018_Mar_07_1305,60.0106825138,FEMA4ImagesEEG,001,203117,
AFNE01.JPG,AFNE01.JPG,AFNE01.JPG,AFNE01.JPG,AFNE01.JPG,AFNE01.JPG,,,,,,,,,2,5,25,3,,,,,,,,,,,,,,,AFNE20.jpg,AFSA17.jpg,AFNE03.jpg,AFSA01.jpg,AFSA01.jpg,FS,4,num_4,32,num_2,1.30014455691,,,2018_Mar_07_1305,60.0106825138,FEMA4ImagesEEG,001,203117,
AFNE01.JPG,AFNE01.JPG,AFNE01.JPG,AFNE01.JPG,AFNE01.JPG,AFNE01.JPG,,,,,,,,,2,6,26,0,,,,,,,,,,,,,,,AFSA06.jpg,AFNE11.jpg,AFNE06.jpg,AFSA11.jpg,AFSA11.jpg,FS,4,num_4,32,num_2,1.10012313165,,,2018_Mar_07_1305,60.0106825138,FEMA4ImagesEEG,001,203117,
AFNE01.JPG,AFNE01.JPG,AFNE01.JPG,AFNE01.JPG,AFNE01.JPG,AFNE01.JPG,,,,,,,,,2,7,27,9,,,,,,,,,,,,,,,AFNE17.jpg,AFSA11.jpg,AFNE10.jpg,AFSA02.jpg,AFNE17.jpg,FN,3,num_8,32,num_4,0.987310928525,,,2018_Mar_07_1305,60.0106825138,FEMA4ImagesEEG,001,203117,
AFNE01.JPG,AFNE01.JPG,AFNE01.JPG,AFNE01.JPG,AFNE01.JPG,AFNE01.JPG,,,,,,,,,2,8,28,5,,,,,,,,,,,,,,,AFSA02.jpg,AFNE18.jpg,AFNE07.jpg,AFSA20.jpg,AFNE18.jpg,FN,3,num_6,32,num_4,1.01675187098,,,2018_Mar_07_1305,60.0106825138,FEMA4ImagesEEG,001,203117,
AFNE01.JPG,AFNE01.JPG,AFNE01.JPG,AFNE01.JPG,AFNE01.JPG,AFNE01.JPG,,,,,,,,,2,9,29,1,,,,,,,,,,,,,,,AFNE07.jpg,AFSA07.jpg,AFNE14.jpg,AFSA13.jpg,AFNE14.jpg,FN,3,num_2,16,num_2,1.10006668163,,,2018_Mar_07_1305,60.0106825138,FEMA4ImagesEEG,001,203117,
AFNE01.JPG,AFNE01.JPG,AFNE01.JPG,AFNE01.JPG,AFNE01.JPG,AFNE01.JPG,,,,,,,,,3,0,30,6,,,,,,,,,,,,,,,AFNE06.jpg,AFNE17.jpg,AFSA04.jpg,AFSA02.jpg,AFNE17.jpg,FN,3,num_6,16,num_6,0.933446041076,,,2018_Mar_07_1305,60.0106825138,FEMA4ImagesEEG,001,203117,
AFNE01.JPG,AFNE01.JPG,AFNE01.JPG,AFNE01.JPG,AFNE01.JPG,AFNE01.JPG,,,,,,,,,3,1,31,0,,,,,,,,,,,,,,,AFSA17.jpg,AFNE10.jpg,AFSA08.jpg,AFNE14.jpg,AFNE10.jpg,FN,3,num_6,16,num_6,1.06673293118,,,2018_Mar_07_1305,60.0106825138,FEMA4ImagesEEG,001,203117,
AFNE01.JPG,AFNE01.JPG,AFNE01.JPG,AFNE01.JPG,AFNE01.JPG,AFNE01.JPG,,,,,,,,,3,2,32,2,,,,,,,,,,,,,,,AFNE04.jpg,AFSA20.jpg,AFNE15.jpg,AFSA15.jpg,AFNE04.jpg,FN,3,num_8,32,num_4,1.08346844465,,,2018_Mar_07_1305,60.0106825138,FEMA4ImagesEEG,001,203117,
AFNE01.JPG,AFNE01.JPG,AFNE01.JPG,AFNE01.JPG,AFNE01.JPG,AFNE01.JPG,,,,,,,,,3,3,33,3,,,,,,,,,,,,,,,AFNE01.jpg,AFSA07.jpg,AFNE16.jpg,AFSA13.jpg,AFNE01.jpg,FN,3,num_8,32,num_4,0.899973089807,,,2018_Mar_07_1305,60.0106825138,FEMA4ImagesEEG,001,203117,
AFNE01.JPG,AFNE01.JPG,AFNE01.JPG,AFNE01.JPG,AFNE01.JPG,AFNE01.JPG,,,,,,,,,3,4,34,1,,,,,,,,,,,,,,,AFSA04.jpg,AFNE17.jpg,AFSA11.jpg,AFNE07.jpg,AFNE07.jpg,FN,3,num_4,16,num_4,3.03327248921,,,2018_Mar_07_1305,60.0106825138,FEMA4ImagesEEG,001,203117,
AFNE01.JPG,AFNE01.JPG,AFNE01.JPG,AFNE01.JPG,AFNE01.JPG,AFNE01.JPG,,,,,,,,,3,5,35,4,,,,,,,,,,,,,,,AFNE05.jpg,AFNE18.jpg,AFSA10.jpg,AFSA15.jpg,AFSA15.jpg,FS,4,num_4,32,num_8,1.68342174497,,,2018_Mar_07_1305,60.0106825138,FEMA4ImagesEEG,001,203117,
AFNE01.JPG,AFNE01.JPG,AFNE01.JPG,AFNE01.JPG,AFNE01.JPG,AFNE01.JPG,,,,,,,,,3,6,36,9,,,,,,,,,,,,,,,AFSA13.jpg,AFNE07.jpg,AFSA03.jpg,AFNE05.jpg,AFSA03.jpg,FS,4,num_2,16,num_2,0.800109756878,,,2018_Mar_07_1305,60.0106825138,FEMA4ImagesEEG,001,203117,
AFNE01.JPG,AFNE01.JPG,AFNE01.JPG,AFNE01.JPG,AFNE01.JPG,AFNE01.JPG,,,,,,,,,3,7,37,5,,,,,,,,,,,,,,,AFSA09.jpg,AFNE10.jpg,AFNE11.jpg,AFSA14.jpg,AFNE10.jpg,FN,3,num_6,16,num_6,0.983433515998,,,2018_Mar_07_1305,60.0106825138,FEMA4ImagesEEG,001,203117,
AFNE01.JPG,AFNE01.JPG,AFNE01.JPG,AFNE01.JPG,AFNE01.JPG,AFNE01.JPG,,,,,,,,,3,8,38,8,,,,,,,,,,,,,,,AFNE02.jpg,AFNE10.jpg,AFSA17.jpg,AFSA06.jpg,AFNE10.jpg,FN,3,num_6,16,num_6,1.06674191216,,,2018_Mar_07_1305,60.0106825138,FEMA4ImagesEEG,001,203117,
AFNE01.JPG,AFNE01.JPG,AFNE01.JPG,AFNE01.JPG,AFNE01.JPG,AFNE01.JPG,,,,,,,,,3,9,39,7,,,,,,,,,,,,,,,AFSA04.jpg,AFNE03.jpg,AFSA08.jpg,AFNE05.jpg,AFSA08.jpg,FS,4,num_2,32,num_4,0.983430629363,,,2018_Mar_07_1305,60.0106825138,FEMA4ImagesEEG,001,203117,
AFNE01.JPG,AFNE01.JPG,AFNE01.JPG,AFNE01.JPG,AFNE01.JPG,AFNE01.JPG,,,,,,,,,4,0,40,7,,,,,,,,,,,,,,,AFSA14.jpg,AFNE01.jpg,AFNE20.jpg,AFSA11.jpg,AFNE01.jpg,FN,3,num_6,16,num_6,1.16674027615,,,2018_Mar_07_1305,60.0106825138,FEMA4ImagesEEG,001,203117,
AFNE01.JPG,AFNE01.JPG,AFNE01.JPG,AFNE01.JPG,AFNE01.JPG,AFNE01.JPG,,,,,,,,,4,1,41,0,,,,,,,,,,,,,,,AFNE11.jpg,AFSA18.jpg,AFNE18.jpg,AFSA05.jpg,AFSA05.jpg,FS,4,num_4,32,num_2,1.06677302369,,,2018_Mar_07_1305,60.0106825138,FEMA4ImagesEEG,001,203117,
AFNE01.JPG,AFNE01.JPG,AFNE01.JPG,AFNE01.JPG,AFNE01.JPG,AFNE01.JPG,,,,,,,,,4,2,42,8,,,,,,,,,,,,,,,AFSA05.jpg,AFSA03.jpg,AFNE06.jpg,AFNE08.jpg,AFNE06.jpg,FN,3,num_2,32,num_4,0.833436771762,,,2018_Mar_07_1305,60.0106825138,FEMA4ImagesEEG,001,203117,
AFNE01.JPG,AFNE01.JPG,AFNE01.JPG,AFNE01.JPG,AFNE01.JPG,AFNE01.JPG,,,,,,,,,4,3,43,9,,,,,,,,,,,,,,,AFSA08.jpg,AFNE10.jpg,AFNE18.jpg,AFSA11.jpg,AFNE10.jpg,FN,3,num_6,16,num_6,0.933470096206,,,2018_Mar_07_1305,60.0106825138,FEMA4ImagesEEG,001,203117,
AFNE01.JPG,AFNE01.JPG,AFNE01.JPG,AFNE01.JPG,AFNE01.JPG,AFNE01.JPG,,,,,,,,,4,4,44,4,,,,,,,,,,,,,,,AFNE20.jpg,AFSA08.jpg,AFSA09.jpg,AFNE18.jpg,AFNE18.jpg,FN,3,num_4,16,num_4,0.883450868074,,,2018_Mar_07_1305,60.0106825138,FEMA4ImagesEEG,001,203117,
AFNE01.JPG,AFNE01.JPG,AFNE01.JPG,AFNE01.JPG,AFNE01.JPG,AFNE01.JPG,,,,,,,,,4,5,45,3,,,,,,,,,,,,,,,AFSA18.jpg,AFSA08.jpg,AFNE11.jpg,AFNE08.jpg,AFNE11.jpg,FN,3,num_2,32,num_4,0.866611435544,,,2018_Mar_07_1305,60.0106825138,FEMA4ImagesEEG,001,203117,
AFNE01.JPG,AFNE01.JPG,AFNE01.JPG,AFNE01.JPG,AFNE01.JPG,AFNE01.JPG,,,,,,,,,4,6,46,5,,,,,,,,,,,,,,,AFNE12.jpg,AFSA06.jpg,AFSA13.jpg,AFNE20.jpg,AFNE12.jpg,FN,3,num_8,32,num_4,0.700186445378,,,2018_Mar_07_1305,60.0106825138,FEMA4ImagesEEG,001,203117,
AFNE01.JPG,AFNE01.JPG,AFNE01.JPG,AFNE01.JPG,AFNE01.JPG,AFNE01.JPG,,,,,,,,,4,7,47,2,,,,,,,,,,,,,,,AFNE05.jpg,AFSA01.jpg,AFSA20.jpg,AFNE16.jpg,AFNE16.jpg,FN,3,num_4,16,num_4,0.500186830293,,,2018_Mar_07_1305,60.0106825138,FEMA4ImagesEEG,001,203117,
AFNE01.JPG,AFNE01.JPG,AFNE01.JPG,AFNE01.JPG,AFNE01.JPG,AFNE01.JPG,,,,,,,,,4,8,48,6,,,,,,,,,,,,,,,AFNE14.jpg,AFNE11.jpg,AFSA20.jpg,AFSA05.jpg,AFNE11.jpg,FN,3,num_6,32,num_8,1.80004208093,,,2018_Mar_07_1305,60.0106825138,FEMA4ImagesEEG,001,203117,
AFNE01.JPG,AFNE01.JPG,AFNE01.JPG,AFNE01.JPG,AFNE01.JPG,AFNE01.JPG,,,,,,,,,4,9,49,1,,,,,,,,,,,,,,,AFNE11.jpg,AFSA18.jpg,AFNE09.jpg,AFSA20.jpg,AFSA18.jpg,FS,4,num_6,16,num_6,0.616831542458,,,2018_Mar_07_1305,60.0106825138,FEMA4ImagesEEG,001,203117,
AFNE01.JPG,AFNE01.JPG,AFNE01.JPG,AFNE01.JPG,AFNE01.JPG,AFNE01.JPG,,,,,,,,,5,0,50,2,,,,,,,,,,,,,,,AFNE20.jpg,AFNE06.jpg,AFSA20.jpg,AFSA03.jpg,AFNE20.jpg,FN,3,num_8,32,num_6,1.06679258868,,,2018_Mar_07_1305,60.0106825138,FEMA4ImagesEEG,001,203117,
AFNE01.JPG,AFNE01.JPG,AFNE01.JPG,AFNE01.JPG,AFNE01.JPG,AFNE01.JPG,,,,,,,,,5,1,51,3,,,,,,,,,,,,,,,AFNE11.jpg,AFSA06.jpg,AFSA12.jpg,AFNE08.jpg,AFNE11.jpg,FN,3,num_8,16,num_8,0.816780480789,,,2018_Mar_07_1305,60.0106825138,FEMA4ImagesEEG,001,203117,
AFNE01.JPG,AFNE01.JPG,AFNE01.JPG,AFNE01.JPG,AFNE01.JPG,AFNE01.JPG,,,,,,,,,5,2,52,0,,,,,,,,,,,,,,,AFSA03.jpg,AFSA04.jpg,AFNE18.jpg,AFNE08.jpg,AFSA03.jpg,FS,4,num_8,32,num_4,0.866750956746,,,2018_Mar_07_1305,60.0106825138,FEMA4ImagesEEG,001,203117,
AFNE01.JPG,AFNE01.JPG,AFNE01.JPG,AFNE01.JPG,AFNE01.JPG,AFNE01.JPG,,,,,,,,,5,3,53,9,,,,,,,,,,,,,,,AFNE07.jpg,AFSA04.jpg,AFSA06.jpg,AFNE17.jpg,AFNE17.jpg,FN,3,num_4,16,num_4,0.849964446155,,,2018_Mar_07_1305,60.0106825138,FEMA4ImagesEEG,001,203117,
AFNE01.JPG,AFNE01.JPG,AFNE01.JPG,AFNE01.JPG,AFNE01.JPG,AFNE01.JPG,,,,,,,,,5,4,54,1,,,,,,,,,,,,,,,AFSA08.jpg,AFSA06.jpg,AFNE03.jpg,AFNE10.jpg,AFNE10.jpg,FN,3,num_4,16,num_4,0.700106902281,,,2018_Mar_07_1305,60.0106825138,FEMA4ImagesEEG,001,203117,
AFNE01.JPG,AFNE01.JPG,AFNE01.JPG,AFNE01.JPG,AFNE01.JPG,AFNE01.JPG,,,,,,,,,5,5,55,6,,,,,,,,,,,,,,,AFSA17.jpg,AFSA12.jpg,AFNE11.jpg,AFNE09.jpg,AFSA12.jpg,FS,4,num_6,16,num_6,0.550056273583,,,2018_Mar_07_1305,60.0106825138,FEMA4ImagesEEG,001,203117,
AFNE01.JPG,AFNE01.JPG,AFNE01.JPG,AFNE01.JPG,AFNE01.JPG,AFNE01.JPG,,,,,,,,,5,6,56,5,,,,,,,,,,,,,,,AFSA11.jpg,AFSA19.jpg,AFNE06.jpg,AFNE04.jpg,AFSA19.jpg,FS,4,num_6,32,num_2,1.6000604271,,,2018_Mar_07_1305,60.0106825138,FEMA4ImagesEEG,001,203117,
AFNE01.JPG,AFNE01.JPG,AFNE01.JPG,AFNE01.JPG,AFNE01.JPG,AFNE01.JPG,,,,,,,,,5,7,57,4,,,,,,,,,,,,,,,AFNE20.jpg,AFNE11.jpg,AFSA10.jpg,AFSA06.jpg,AFNE11.jpg,FN,3,num_6,16,num_6,0.983466231497,,,2018_Mar_07_1305,60.0106825138,FEMA4ImagesEEG,001,203117,
AFNE01.JPG,AFNE01.JPG,AFNE01.JPG,AFNE01.JPG,AFNE01.JPG,AFNE01.JPG,,,,,,,,,5,8,58,8,,,,,,,,,,,,,,,AFNE09.jpg,AFSA01.jpg,AFSA05.jpg,AFNE19.jpg,AFNE19.jpg,FN,3,num_4,16,num_4,0.833507334115,,,2018_Mar_07_1305,60.0106825138,FEMA4ImagesEEG,001,203117,
AFNE01.JPG,AFNE01.JPG,AFNE01.JPG,AFNE01.JPG,AFNE01.JPG,AFNE01.JPG,,,,,,,,,5,9,59,7,,,,,,,,,,,,,,,AFNE16.jpg,AFSA03.jpg,AFNE03.jpg,AFSA10.jpg,AFNE16.jpg,FN,3,num_8,16,num_8,0.483470882056,,,2018_Mar_07_1305,60.0106825138,FEMA4ImagesEEG,001,203117,
,,,,,,,,,,,,,,,,,,,,,,,,,,,,,,,,,,,,,,,,,,,space,8.09953778307,2018_Mar_07_1305,60.0106825138,FEMA4ImagesEEG,001,203117,
AFNE01.JPG,AFNE01.JPG,AFNE01.JPG,AFNE01.JPG,AFNE01.JPG,AFNE01.JPG,,,,,,,,,,,,,0,0,0,6,,,,,,,,,,,AMNE09.jpg,AMSA14.jpg,AMNE18.jpg,AMSA16.jpg,AMNE09.jpg,MN,1,num_8,32,num_6,1.75031023473,,,2018_Mar_07_1305,60.0106825138,FEMA4ImagesEEG,001,203117,
AFNE01.JPG,AFNE01.JPG,AFNE01.JPG,AFNE01.JPG,AFNE01.JPG,AFNE01.JPG,,,,,,,,,,,,,0,1,1,2,,,,,,,,,,,AMSA03.jpg,AMNE02.jpg,AMNE18.jpg,AMSA09.jpg,AMNE02.jpg,MN,1,num_6,32,num_4,0.550140307285,,,2018_Mar_07_1305,60.0106825138,FEMA4ImagesEEG,001,203117,
AFNE01.JPG,AFNE01.JPG,AFNE01.JPG,AFNE01.JPG,AFNE01.JPG,AFNE01.JPG,,,,,,,,,,,,,0,2,2,3,,,,,,,,,,,AMSA03.jpg,AMSA05.jpg,AMNE15.jpg,AMNE07.jpg,AMNE07.jpg,MN,1,num_4,16,num_4,0.633516058093,,,2018_Mar_07_1305,60.0106825138,FEMA4ImagesEEG,001,203117,
AFNE01.JPG,AFNE01.JPG,AFNE01.JPG,AFNE01.JPG,AFNE01.JPG,AFNE01.JPG,,,,,,,,,,,,,0,3,3,4,,,,,,,,,,,AMSA07.jpg,AMNE10.jpg,AMSA18.jpg,AMNE05.jpg,AMNE10.jpg,MN,1,num_6,32,num_4,0.666817734716,,,2018_Mar_07_1305,60.0106825138,FEMA4ImagesEEG,001,203117,
AFNE01.JPG,AFNE01.JPG,AFNE01.JPG,AFNE01.JPG,AFNE01.JPG,AFNE01.JPG,,,,,,,,,,,,,0,4,4,8,,,,,,,,,,,AMSA04.jpg,AMNE06.jpg,AMSA16.jpg,AMNE16.jpg,AMSA04.jpg,MS,2,num_8,32,num_4,1.25013366784,,,2018_Mar_07_1305,60.0106825138,FEMA4ImagesEEG,001,203117,
AFNE01.JPG,AFNE01.JPG,AFNE01.JPG,AFNE01.JPG,AFNE01.JPG,AFNE01.JPG,,,,,,,,,,,,,0,5,5,5,,,,,,,,,,,AMNE20.jpg,AMSA16.jpg,AMNE14.jpg,AMSA19.jpg,AMNE14.jpg,MN,1,num_2,16,num_2,1.60007646424,,,2018_Mar_07_1305,60.0106825138,FEMA4ImagesEEG,001,203117,
AFNE01.JPG,AFNE01.JPG,AFNE01.JPG,AFNE01.JPG,AFNE01.JPG,AFNE01.JPG,,,,,,,,,,,,,0,6,6,7,,,,,,,,,,,AMNE17.jpg,AMSA01.jpg,AMSA06.jpg,AMNE01.jpg,AMSA06.jpg,MS,2,num_2,32,num_4,0.900104913628,,,2018_Mar_07_1305,60.0106825138,FEMA4ImagesEEG,001,203117,
AFNE01.JPG,AFNE01.JPG,AFNE01.JPG,AFNE01.JPG,AFNE01.JPG,AFNE01.JPG,,,,,,,,,,,,,0,7,7,9,,,,,,,,,,,AMNE12.jpg,AMSA12.jpg,AMNE11.jpg,AMSA13.jpg,AMNE12.jpg,MN,1,num_8,32,num_2,0.7168007195,,,2018_Mar_07_1305,60.0106825138,FEMA4ImagesEEG,001,203117,
AFNE01.JPG,AFNE01.JPG,AFNE01.JPG,AFNE01.JPG,AFNE01.JPG,AFNE01.JPG,,,,,,,,,,,,,0,8,8,1,,,,,,,,,,,AMNE03.jpg,AMSA20.jpg,AMNE08.jpg,AMSA07.jpg,AMNE08.jpg,MN,1,num_2,16,num_2,1.300101578,,,2018_Mar_07_1305,60.0106825138,FEMA4ImagesEEG,001,203117,
AFNE01.JPG,AFNE01.JPG,AFNE01.JPG,AFNE01.JPG,AFNE01.JPG,AFNE01.JPG,,,,,,,,,,,,,0,9,9,0,,,,,,,,,,,AMSA15.jpg,AMNE02.jpg,AMNE11.jpg,AMSA09.jpg,AMNE11.jpg,MN,1,num_2,32,num_6,0.66687322245,,,2018_Mar_07_1305,60.0106825138,FEMA4ImagesEEG,001,203117,
AFNE01.JPG,AFNE01.JPG,AFNE01.JPG,AFNE01.JPG,AFNE01.JPG,AFNE01.JPG,,,,,,,,,,,,,1,0,10,4,,,,,,,,,,,AMNE13.jpg,AMSA05.jpg,AMNE19.jpg,AMSA02.jpg,AMSA05.jpg,MS,2,num_6,16,num_6,0.516795972595,,,2018_Mar_07_1305,60.0106825138,FEMA4ImagesEEG,001,203117,
AFNE01.JPG,AFNE01.JPG,AFNE01.JPG,AFNE01.JPG,AFNE01.JPG,AFNE01.JPG,,,,,,,,,,,,,1,1,11,5,,,,,,,,,,,AMSA06.jpg,AMSA03.jpg,AMNE09.jpg,AMNE18.jpg,AMSA03.jpg,MS,2,num_6,16,num_6,0.833471732214,,,2018_Mar_07_1305,60.0106825138,FEMA4ImagesEEG,001,203117,
AFNE01.JPG,AFNE01.JPG,AFNE01.JPG,AFNE01.JPG,AFNE01.JPG,AFNE01.JPG,,,,,,,,,,,,,1,2,12,2,,,,,,,,,,,AMNE20.jpg,AMSA07.jpg,AMSA16.jpg,AMNE06.jpg,AMSA16.jpg,MS,2,num_2,16,num_2,0.583370138193,,,2018_Mar_07_1305,60.0106825138,FEMA4ImagesEEG,001,203117,
AFNE01.JPG,AFNE01.JPG,AFNE01.JPG,AFNE01.JPG,AFNE01.JPG,AFNE01.JPG,,,,,,,,,,,,,1,3,13,8,,,,,,,,,,,AMNE15.jpg,AMNE04.jpg,AMSA11.jpg,AMSA02.jpg,AMNE04.jpg,MN,1,num_6,32,num_4,0.666788547533,,,2018_Mar_07_1305,60.0106825138,FEMA4ImagesEEG,001,203117,
AFNE01.JPG,AFNE01.JPG,AFNE01.JPG,AFNE01.JPG,AFNE01.JPG,AFNE01.JPG,,,,,,,,,,,,,1,4,14,0,,,,,,,,,,,AMSA19.jpg,AMSA15.jpg,AMNE02.jpg,AMNE05.jpg,AMSA19.jpg,MS,2,num_8,16,num_8,0.616774771595,,,2018_Mar_07_1305,60.0106825138,FEMA4ImagesEEG,001,203117,
AFNE01.JPG,AFNE01.JPG,AFNE01.JPG,AFNE01.JPG,AFNE01.JPG,AFNE01.JPG,,,,,,,,,,,,,1,5,15,7,,,,,,,,,,,AMNE11.jpg,AMNE07.jpg,AMSA02.jpg,AMSA14.jpg,AMSA14.jpg,MS,2,num_4,16,num_4,0.833446714561,,,2018_Mar_07_1305,60.0106825138,FEMA4ImagesEEG,001,203117,
AFNE01.JPG,AFNE01.JPG,AFNE01.JPG,AFNE01.JPG,AFNE01.JPG,AFNE01.JPG,,,,,,,,,,,,,1,6,16,3,,,,,,,,,,,AMSA09.jpg,AMNE14.jpg,AMNE18.jpg,AMSA02.jpg,AMNE18.jpg,MN,1,num_2,16,num_2,1.3167206631,,,2018_Mar_07_1305,60.0106825138,FEMA4ImagesEEG,001,203117,
AFNE01.JPG,AFNE01.JPG,AFNE01.JPG,AFNE01.JPG,AFNE01.JPG,AFNE01.JPG,,,,,,,,,,,,,1,7,17,1,,,,,,,,,,,AMNE01.jpg,AMSA06.jpg,AMNE03.jpg,AMSA15.jpg,AMNE01.jpg,MN,1,num_8,16,num_8,1.10010260437,,,2018_Mar_07_1305,60.0106825138,FEMA4ImagesEEG,001,203117,
AFNE01.JPG,AFNE01.JPG,AFNE01.JPG,AFNE01.JPG,AFNE01.JPG,AFNE01.JPG,,,,,,,,,,,,,1,8,18,9,,,,,,,,,,,AMNE01.jpg,AMSA01.jpg,AMNE03.jpg,AMSA14.jpg,AMNE03.jpg,MN,1,num_2,32,num_6,1.0834180885,,,2018_Mar_07_1305,60.0106825138,FEMA4ImagesEEG,001,203117,
AFNE01.JPG,AFNE01.JPG,AFNE01.JPG,AFNE01.JPG,AFNE01.JPG,AFNE01.JPG,,,,,,,,,,,,,1,9,19,6,,,,,,,,,,,AMSA12.jpg,AMNE18.jpg,AMSA14.jpg,AMNE16.jpg,AMSA12.jpg,MS,2,num_8,32,num_2,1.13342609094,,,2018_Mar_07_1305,60.0106825138,FEMA4ImagesEEG,001,203117,
AFNE01.JPG,AFNE01.JPG,AFNE01.JPG,AFNE01.JPG,AFNE01.JPG,AFNE01.JPG,,,,,,,,,,,,,2,0,20,8,,,,,,,,,,,AMSA10.jpg,AMNE10.jpg,AMNE14.jpg,AMSA04.jpg,AMSA04.jpg,MS,2,num_4,32,num_8,3.44977822504,,,2018_Mar_07_1305,60.0106825138,FEMA4ImagesEEG,001,203117,
AFNE01.JPG,AFNE01.JPG,AFNE01.JPG,AFNE01.JPG,AFNE01.JPG,AFNE01.JPG,,,,,,,,,,,,,2,1,21,0,,,,,,,,,,,AMNE04.jpg,AMNE07.jpg,AMSA03.jpg,AMSA19.jpg,AMNE07.jpg,MN,1,num_6,32,num_8,0.766797175398,,,2018_Mar_07_1305,60.0106825138,FEMA4ImagesEEG,001,203117,
AFNE01.JPG,AFNE01.JPG,AFNE01.JPG,AFNE01.JPG,AFNE01.JPG,AFNE01.JPG,,,,,,,,,,,,,2,2,22,9,,,,,,,,,,,AMNE12.jpg,AMSA18.jpg,AMSA05.jpg,AMNE06.jpg,AMNE12.jpg,MN,1,num_8,16,num_8,0.500145134283,,,2018_Mar_07_1305,60.0106825138,FEMA4ImagesEEG,001,203117,
AFNE01.JPG,AFNE01.JPG,AFNE01.JPG,AFNE01.JPG,AFNE01.JPG,AFNE01.JPG,,,,,,,,,,,,,2,3,23,6,,,,,,,,,,,AMSA10.jpg,AMNE08.jpg,AMSA02.jpg,AMNE12.jpg,AMNE08.jpg,MN,1,num_6,32,num_2,0.533494601026,,,2018_Mar_07_1305,60.0106825138,FEMA4ImagesEEG,001,203117,
AFNE01.JPG,AFNE01.JPG,AFNE01.JPG,AFNE01.JPG,AFNE01.JPG,AFNE01.JPG,,,,,,,,,,,,,2,4,24,1,,,,,,,,,,,AMNE16.jpg,AMSA02.jpg,AMSA12.jpg,AMNE10.jpg,AMNE16.jpg,MN,1,num_8,32,num_4,0.516805273946,,,2018_Mar_07_1305,60.0106825138,FEMA4ImagesEEG,001,203117,
AFNE01.JPG,AFNE01.JPG,AFNE01.JPG,AFNE01.JPG,AFNE01.JPG,AFNE01.JPG,,,,,,,,,,,,,2,5,25,2,,,,,,,,,,,AMSA15.jpg,AMSA07.jpg,AMNE14.jpg,AMNE12.jpg,AMSA07.jpg,MS,2,num_6,16,num_6,0.700161748566,,,2018_Mar_07_1305,60.0106825138,FEMA4ImagesEEG,001,203117,
AFNE01.JPG,AFNE01.JPG,AFNE01.JPG,AFNE01.JPG,AFNE01.JPG,AFNE01.JPG,,,,,,,,,,,,,2,6,26,4,,,,,,,,,,,AMNE02.jpg,AMSA12.jpg,AMSA03.jpg,AMNE04.jpg,AMSA03.jpg,MS,2,num_2,16,num_2,0.566927780397,,,2018_Mar_07_1305,60.0106825138,FEMA4ImagesEEG,001,203117,
AFNE01.JPG,AFNE01.JPG,AFNE01.JPG,AFNE01.JPG,AFNE01.JPG,AFNE01.JPG,,,,,,,,,,,,,2,7,27,7,,,,,,,,,,,AMSA12.jpg,AMNE06.jpg,AMNE08.jpg,AMSA19.jpg,AMNE08.jpg,MN,1,num_2,16,num_2,0.749981477158,,,2018_Mar_07_1305,60.0106825138,FEMA4ImagesEEG,001,203117,
AFNE01.JPG,AFNE01.JPG,AFNE01.JPG,AFNE01.JPG,AFNE01.JPG,AFNE01.JPG,,,,,,,,,,,,,2,8,28,5,,,,,,,,,,,AMNE05.jpg,AMNE19.jpg,AMSA17.jpg,AMSA09.jpg,AMNE05.jpg,MN,1,num_8,32,num_4,0.41679247655,,,2018_Mar_07_1305,60.0106825138,FEMA4ImagesEEG,001,203117,
AFNE01.JPG,AFNE01.JPG,AFNE01.JPG,AFNE01.JPG,AFNE01.JPG,AFNE01.JPG,,,,,,,,,,,,,2,9,29,3,,,,,,,,,,,AMSA10.jpg,AMSA16.jpg,AMNE03.jpg,AMNE04.jpg,AMSA16.jpg,MS,2,num_6,32,num_8,0.533289007144,,,2018_Mar_07_1305,60.0106825138,FEMA4ImagesEEG,001,203117,
AFNE01.JPG,AFNE01.JPG,AFNE01.JPG,AFNE01.JPG,AFNE01.JPG,AFNE01.JPG,,,,,,,,,,,,,3,0,30,0,,,,,,,,,,,AMSA13.jpg,AMNE07.jpg,AMSA08.jpg,AMNE13.jpg,AMNE07.jpg,MN,1,num_6,16,num_6,0.550143835368,,,2018_Mar_07_1305,60.0106825138,FEMA4ImagesEEG,001,203117,
AFNE01.JPG,AFNE01.JPG,AFNE01.JPG,AFNE01.JPG,AFNE01.JPG,AFNE01.JPG,,,,,,,,,,,,,3,1,31,5,,,,,,,,,,,AMSA06.jpg,AMNE10.jpg,AMSA04.jpg,AMNE15.jpg,AMSA04.jpg,MS,2,num_2,16,num_2,1.00009461818,,,2018_Mar_07_1305,60.0106825138,FEMA4ImagesEEG,001,203117,
AFNE01.JPG,AFNE01.JPG,AFNE01.JPG,AFNE01.JPG,AFNE01.JPG,AFNE01.JPG,,,,,,,,,,,,,3,2,32,3,,,,,,,,,,,AMSA12.jpg,AMNE04.jpg,AMNE06.jpg,AMSA07.jpg,AMNE06.jpg,MN,1,num_2,32,num_8,0.466706502484,,,2018_Mar_07_1305,60.0106825138,FEMA4ImagesEEG,001,203117,
AFNE01.JPG,AFNE01.JPG,AFNE01.JPG,AFNE01.JPG,AFNE01.JPG,AFNE01.JPG,,,,,,,,,,,,,3,3,33,9,,,,,,,,,,,AMSA17.jpg,AMSA18.jpg,AMNE18.jpg,AMNE10.jpg,AMSA17.jpg,MS,2,num_8,16,num_8,0.483349963557,,,2018_Mar_07_1305,60.0106825138,FEMA4ImagesEEG,001,203117,
AFNE01.JPG,AFNE01.JPG,AFNE01.JPG,AFNE01.JPG,AFNE01.JPG,AFNE01.JPG,,,,,,,,,,,,,3,4,34,6,,,,,,,,,,,AMNE03.jpg,AMSA18.jpg,AMNE06.jpg,AMSA10.jpg,AMSA10.jpg,MS,2,num_4,32,num_6,0.550151532982,,,2018_Mar_07_1305,60.0106825138,FEMA4ImagesEEG,001,203117,
AFNE01.JPG,AFNE01.JPG,AFNE01.JPG,AFNE01.JPG,AFNE01.JPG,AFNE01.JPG,,,,,,,,,,,,,3,5,35,4,,,,,,,,,,,AMNE07.jpg,AMSA15.jpg,AMNE11.jpg,AMSA08.jpg,AMSA08.jpg,MS,2,num_4,32,num_2,0.566804616479,,,2018_Mar_07_1305,60.0106825138,FEMA4ImagesEEG,001,203117,
AFNE01.JPG,AFNE01.JPG,AFNE01.JPG,AFNE01.JPG,AFNE01.JPG,AFNE01.JPG,,,,,,,,,,,,,3,6,36,1,,,,,,,,,,,AMSA17.jpg,AMNE07.jpg,AMNE01.jpg,AMSA01.jpg,AMSA01.jpg,MS,2,num_4,32,num_2,0.55015858938,,,2018_Mar_07_1305,60.0106825138,FEMA4ImagesEEG,001,203117,
AFNE01.JPG,AFNE01.JPG,AFNE01.JPG,AFNE01.JPG,AFNE01.JPG,AFNE01.JPG,,,,,,,,,,,,,3,7,37,2,,,,,,,,,,,AMSA20.jpg,AMNE11.jpg,AMSA09.jpg,AMNE10.jpg,AMSA20.jpg,MS,2,num_8,16,num_8,0.983456288697,,,2018_Mar_07_1305,60.0106825138,FEMA4ImagesEEG,001,203117,
AFNE01.JPG,AFNE01.JPG,AFNE01.JPG,AFNE01.JPG,AFNE01.JPG,AFNE01.JPG,,,,,,,,,,,,,3,8,38,7,,,,,,,,,,,AMSA08.jpg,AMSA03.jpg,AMNE04.jpg,AMNE01.jpg,AMNE01.jpg,MN,1,num_4,16,num_4,0.600114632165,,,2018_Mar_07_1305,60.0106825138,FEMA4ImagesEEG,001,203117,
AFNE01.JPG,AFNE01.JPG,AFNE01.JPG,AFNE01.JPG,AFNE01.JPG,AFNE01.JPG,,,,,,,,,,,,,3,9,39,8,,,,,,,,,,,AMNE16.jpg,AMSA18.jpg,AMNE13.jpg,AMSA02.jpg,AMSA02.jpg,MS,2,num_4,32,num_8,0.716750684194,,,2018_Mar_07_1305,60.0106825138,FEMA4ImagesEEG,001,203117,
AFNE01.JPG,AFNE01.JPG,AFNE01.JPG,AFNE01.JPG,AFNE01.JPG,AFNE01.JPG,,,,,,,,,,,,,4,0,40,0,,,,,,,,,,,AMNE15.jpg,AMNE10.jpg,AMSA12.jpg,AMSA17.jpg,AMNE10.jpg,MN,1,num_6,32,num_4,2.4833150031,,,2018_Mar_07_1305,60.0106825138,FEMA4ImagesEEG,001,203117,
AFNE01.JPG,AFNE01.JPG,AFNE01.JPG,AFNE01.JPG,AFNE01.JPG,AFNE01.JPG,,,,,,,,,,,,,4,1,41,3,,,,,,,,,,,AMSA13.jpg,AMSA04.jpg,AMNE17.jpg,AMNE16.jpg,AMNE16.jpg,MN,1,num_4,16,num_4,0.816798442043,,,2018_Mar_07_1305,60.0106825138,FEMA4ImagesEEG,001,203117,
AFNE01.JPG,AFNE01.JPG,AFNE01.JPG,AFNE01.JPG,AFNE01.JPG,AFNE01.JPG,,,,,,,,,,,,,4,2,42,8,,,,,,,,,,,AMSA18.jpg,AMNE04.jpg,AMNE16.jpg,AMSA09.jpg,AMSA18.jpg,MS,2,num_8,16,num_8,1.6997435051,,,2018_Mar_07_1305,60.0106825138,FEMA4ImagesEEG,001,203117,
AFNE01.JPG,AFNE01.JPG,AFNE01.JPG,AFNE01.JPG,AFNE01.JPG,AFNE01.JPG,,,,,,,,,,,,,4,3,43,2,,,,,,,,,,,AMNE19.jpg,AMNE08.jpg,AMSA10.jpg,AMSA02.jpg,AMNE08.jpg,MN,1,num_6,16,num_6,1.1500961734,,,2018_Mar_07_1305,60.0106825138,FEMA4ImagesEEG,001,203117,
AFNE01.JPG,AFNE01.JPG,AFNE01.JPG,AFNE01.JPG,AFNE01.JPG,AFNE01.JPG,,,,,,,,,,,,,4,4,44,5,,,,,,,,,,,AMSA02.jpg,AMSA17.jpg,AMNE07.jpg,AMNE08.jpg,AMNE08.jpg,MN,1,num_4,32,num_2,1.25010704668,,,2018_Mar_07_1305,60.0106825138,FEMA4ImagesEEG,001,203117,
AFNE01.JPG,AFNE01.JPG,AFNE01.JPG,AFNE01.JPG,AFNE01.JPG,AFNE01.JPG,,,,,,,,,,,,,4,5,45,9,,,,,,,,,,,AMSA02.jpg,AMNE02.jpg,AMNE10.jpg,AMSA01.jpg,AMSA02.jpg,MS,2,num_8,32,num_4,0.516820669407,,,2018_Mar_07_1305,60.0106825138,FEMA4ImagesEEG,001,203117,
AFNE01.JPG,AFNE01.JPG,AFNE01.JPG,AFNE01.JPG,AFNE01.JPG,AFNE01.JPG,,,,,,,,,,,,,4,6,46,7,,,,,,,,,,,AMNE03.jpg,AMSA18.jpg,AMSA12.jpg,AMNE17.jpg,AMNE17.jpg,MN,1,num_4,32,num_8,0.650142520433,,,2018_Mar_07_1305,60.0106825138,FEMA4ImagesEEG,001,203117,
AFNE01.JPG,AFNE01.JPG,AFNE01.JPG,AFNE01.JPG,AFNE01.JPG,AFNE01.JPG,,,,,,,,,,,,,4,7,47,1,,,,,,,,,,,AMNE16.jpg,AMNE10.jpg,AMSA01.jpg,AMSA19.jpg,AMNE16.jpg,MN,1,num_8,32,num_4,0.516811688663,,,2018_Mar_07_1305,60.0106825138,FEMA4ImagesEEG,001,203117,
AFNE01.JPG,AFNE01.JPG,AFNE01.JPG,AFNE01.JPG,AFNE01.JPG,AFNE01.JPG,,,,,,,,,,,,,4,8,48,4,,,,,,,,,,,AMNE12.jpg,AMSA06.jpg,AMSA11.jpg,AMNE15.jpg,AMNE15.jpg,MN,1,num_4,32,num_6,0.566820973996,,,2018_Mar_07_1305,60.0106825138,FEMA4ImagesEEG,001,203117,
AFNE01.JPG,AFNE01.JPG,AFNE01.JPG,AFNE01.JPG,AFNE01.JPG,AFNE01.JPG,,,,,,,,,,,,,4,9,49,6,,,,,,,,,,,AMNE02.jpg,AMNE10.jpg,AMSA16.jpg,AMSA20.jpg,AMSA20.jpg,MS,2,num_4,32,num_8,0.716828623787,,,2018_Mar_07_1305,60.0106825138,FEMA4ImagesEEG,001,203117,
AFNE01.JPG,AFNE01.JPG,AFNE01.JPG,AFNE01.JPG,AFNE01.JPG,AFNE01.JPG,,,,,,,,,,,,,5,0,50,3,,,,,,,,,,,AMNE07.jpg,AMSA05.jpg,AMSA09.jpg,AMNE03.jpg,AMSA05.jpg,MS,2,num_6,32,num_8,0.333494344028,,,2018_Mar_07_1305,60.0106825138,FEMA4ImagesEEG,001,203117,
AFNE01.JPG,AFNE01.JPG,AFNE01.JPG,AFNE01.JPG,AFNE01.JPG,AFNE01.JPG,,,,,,,,,,,,,5,1,51,9,,,,,,,,,,,AMSA13.jpg,AMSA17.jpg,AMNE03.jpg,AMNE10.jpg,AMNE03.jpg,MN,1,num_2,16,num_2,0.583557770355,,,2018_Mar_07_1305,60.0106825138,FEMA4ImagesEEG,001,203117,
AFNE01.JPG,AFNE01.JPG,AFNE01.JPG,AFNE01.JPG,AFNE01.JPG,AFNE01.JPG,,,,,,,,,,,,,5,2,52,6,,,,,,,,,,,AMNE05.jpg,AMNE20.jpg,AMSA19.jpg,AMSA01.jpg,AMNE05.jpg,MN,1,num_8,16,num_8,0.70016110735,,,2018_Mar_07_1305,60.0106825138,FEMA4ImagesEEG,001,203117,
AFNE01.JPG,AFNE01.JPG,AFNE01.JPG,AFNE01.JPG,AFNE01.JPG,AFNE01.JPG,,,,,,,,,,,,,5,3,53,4,,,,,,,,,,,AMSA16.jpg,AMNE08.jpg,AMNE05.jpg,AMSA15.jpg,AMNE08.jpg,MN,1,num_6,32,num_8,0.666788547533,,,2018_Mar_07_1305,60.0106825138,FEMA4ImagesEEG,001,203117,
AFNE01.JPG,AFNE01.JPG,AFNE01.JPG,AFNE01.JPG,AFNE01.JPG,AFNE01.JPG,,,,,,,,,,,,,5,4,54,8,,,,,,,,,,,AMNE14.jpg,AMSA12.jpg,AMNE19.jpg,AMSA09.jpg,AMNE19.jpg,MN,1,num_2,32,num_8,0.716802323237,,,2018_Mar_07_1305,60.0106825138,FEMA4ImagesEEG,001,203117,
AFNE01.JPG,AFNE01.JPG,AFNE01.JPG,AFNE01.JPG,AFNE01.JPG,AFNE01.JPG,,,,,,,,,,,,,5,5,55,5,,,,,,,,,,,AMNE02.jpg,AMSA13.jpg,AMSA19.jpg,AMNE06.jpg,AMSA19.jpg,MS,2,num_2,32,num_8,0.650129370159,,,2018_Mar_07_1305,60.0106825138,FEMA4ImagesEEG,001,203117,
AFNE01.JPG,AFNE01.JPG,AFNE01.JPG,AFNE01.JPG,AFNE01.JPG,AFNE01.JPG,,,,,,,,,,,,,5,6,56,1,,,,,,,,,,,AMNE09.jpg,AMSA02.jpg,AMSA11.jpg,AMNE11.jpg,AMNE11.jpg,MN,1,num_4,32,num_8,0.833439337555,,,2018_Mar_07_1305,60.0106825138,FEMA4ImagesEEG,001,203117,
AFNE01.JPG,AFNE01.JPG,AFNE01.JPG,AFNE01.JPG,AFNE01.JPG,AFNE01.JPG,,,,,,,,,,,,,5,7,57,0,,,,,,,,,,,AMNE02.jpg,AMSA07.jpg,AMSA16.jpg,AMNE13.jpg,AMNE13.jpg,MN,1,num_4,32,num_8,0.566792749101,,,2018_Mar_07_1305,60.0106825138,FEMA4ImagesEEG,001,203117,
AFNE01.JPG,AFNE01.JPG,AFNE01.JPG,AFNE01.JPG,AFNE01.JPG,AFNE01.JPG,,,,,,,,,,,,,5,8,58,7,,,,,,,,,,,AMNE09.jpg,AMNE18.jpg,AMSA11.jpg,AMSA17.jpg,AMNE18.jpg,MN,1,num_6,32,num_8,0.400180447847,,,2018_Mar_07_1305,60.0106825138,FEMA4ImagesEEG,001,203117,
AFNE01.JPG,AFNE01.JPG,AFNE01.JPG,AFNE01.JPG,AFNE01.JPG,AFNE01.JPG,,,,,,,,,,,,,5,9,59,2,,,,,,,,,,,AMNE20.jpg,AMSA11.jpg,AMNE01.jpg,AMSA05.jpg,AMSA05.jpg,MS,2,num_4,32,num_2,0.516802708153,,,2018_Mar_07_1305,60.0106825138,FEMA4ImagesEEG,001,203117,
,,,,,,,,,,,,,,,,,,,,,,,,,,,,,,,,,,,,,,,,,,,space,2.2166661697,2018_Mar_07_1305,60.0106825138,FEMA4ImagesEEG,001,203117,
AFNE01.JPG,AFNE01.JPG,AFNE01.JPG,AFNE01.JPG,AFNE01.JPG,AFNE01.JPG,,,,,,,,,,,,,,,,,0,0,0,5,,,,,,,AFSA02.jpg,AFNE18.jpg,AFSA12.jpg,AFNE17.jpg,AFNE17.jpg,FN,3,num_4,16,num_4,2.30002780794,,,2018_Mar_07_1305,60.0106825138,FEMA4ImagesEEG,001,203117,
AFNE01.JPG,AFNE01.JPG,AFNE01.JPG,AFNE01.JPG,AFNE01.JPG,AFNE01.JPG,,,,,,,,,,,,,,,,,0,1,1,7,,,,,,,AFNE07.jpg,AFSA02.jpg,AFSA19.jpg,AFNE06.jpg,AFSA19.jpg,FS,4,num_2,16,num_2,0.416799532715,,,2018_Mar_07_1305,60.0106825138,FEMA4ImagesEEG,001,203117,
AFNE01.JPG,AFNE01.JPG,AFNE01.JPG,AFNE01.JPG,AFNE01.JPG,AFNE01.JPG,,,,,,,,,,,,,,,,,0,2,2,3,,,,,,,AFSA06.jpg,AFNE07.jpg,AFSA14.jpg,AFNE04.jpg,AFSA14.jpg,FS,4,num_2,32,num_6,0.866777257295,,,2018_Mar_07_1305,60.0106825138,FEMA4ImagesEEG,001,203117,
AFNE01.JPG,AFNE01.JPG,AFNE01.JPG,AFNE01.JPG,AFNE01.JPG,AFNE01.JPG,,,,,,,,,,,,,,,,,0,3,3,0,,,,,,,AFSA18.jpg,AFSA09.jpg,AFNE06.jpg,AFNE19.jpg,AFSA09.jpg,FS,4,num_6,32,num_2,0.850136041408,,,2018_Mar_07_1305,60.0106825138,FEMA4ImagesEEG,001,203117,
AFNE01.JPG,AFNE01.JPG,AFNE01.JPG,AFNE01.JPG,AFNE01.JPG,AFNE01.JPG,,,,,,,,,,,,,,,,,0,4,4,4,,,,,,,AFSA20.jpg,AFNE15.jpg,AFNE17.jpg,AFSA13.jpg,AFNE17.jpg,FN,3,num_2,32,num_8,1.43344010739,,,2018_Mar_07_1305,60.0106825138,FEMA4ImagesEEG,001,203117,
AFNE01.JPG,AFNE01.JPG,AFNE01.JPG,AFNE01.JPG,AFNE01.JPG,AFNE01.JPG,,,,,,,,,,,,,,,,,0,5,5,8,,,,,,,AFSA17.jpg,AFNE02.jpg,AFSA14.jpg,AFNE20.jpg,AFSA14.jpg,FS,4,num_2,16,num_2,1.00016261451,,,2018_Mar_07_1305,60.0106825138,FEMA4ImagesEEG,001,203117,
AFNE01.JPG,AFNE01.JPG,AFNE01.JPG,AFNE01.JPG,AFNE01.JPG,AFNE01.JPG,,,,,,,,,,,,,,,,,0,6,6,2,,,,,,,AFSA01.jpg,AFSA13.jpg,AFNE11.jpg,AFNE19.jpg,AFSA13.jpg,FS,4,num_6,32,num_8,0.966799356276,,,2018_Mar_07_1305,60.0106825138,FEMA4ImagesEEG,001,203117,
AFNE01.JPG,AFNE01.JPG,AFNE01.JPG,AFNE01.JPG,AFNE01.JPG,AFNE01.JPG,,,,,,,,,,,,,,,,,0,7,7,9,,,,,,,AFNE08.jpg,AFSA06.jpg,AFSA15.jpg,AFNE04.jpg,AFNE08.jpg,FN,3,num_8,32,num_2,1.01681409427,,,2018_Mar_07_1305,60.0106825138,FEMA4ImagesEEG,001,203117,
AFNE01.JPG,AFNE01.JPG,AFNE01.JPG,AFNE01.JPG,AFNE01.JPG,AFNE01.JPG,,,,,,,,,,,,,,,,,0,8,8,6,,,,,,,AFNE16.jpg,AFSA05.jpg,AFNE10.jpg,AFSA10.jpg,AFNE16.jpg,FN,3,num_8,32,num_2,0.550156344194,,,2018_Mar_07_1305,60.0106825138,FEMA4ImagesEEG,001,203117,
AFNE01.JPG,AFNE01.JPG,AFNE01.JPG,AFNE01.JPG,AFNE01.JPG,AFNE01.JPG,,,,,,,,,,,,,,,,,0,9,9,1,,,,,,,AFSA06.jpg,AFSA03.jpg,AFNE08.jpg,AFNE11.jpg,AFSA06.jpg,FS,4,num_8,32,num_6,1.21679671016,,,2018_Mar_07_1305,60.0106825138,FEMA4ImagesEEG,001,203117,
AFNE01.JPG,AFNE01.JPG,AFNE01.JPG,AFNE01.JPG,AFNE01.JPG,AFNE01.JPG,,,,,,,,,,,,,,,,,1,0,10,2,,,,,,,AFSA04.jpg,AFNE16.jpg,AFSA14.jpg,AFNE07.jpg,AFNE16.jpg,FN,3,num_6,16,num_6,1.23345524631,,,2018_Mar_07_1305,60.0106825138,FEMA4ImagesEEG,001,203117,
AFNE01.JPG,AFNE01.JPG,AFNE01.JPG,AFNE01.JPG,AFNE01.JPG,AFNE01.JPG,,,,,,,,,,,,,,,,,1,1,11,5,,,,,,,AFSA19.jpg,AFNE02.jpg,AFNE07.jpg,AFSA13.jpg,AFNE02.jpg,FN,3,num_6,16,num_6,0.816861307016,,,2018_Mar_07_1305,60.0106825138,FEMA4ImagesEEG,001,203117,
AFNE01.JPG,AFNE01.JPG,AFNE01.JPG,AFNE01.JPG,AFNE01.JPG,AFNE01.JPG,,,,,,,,,,,,,,,,,1,2,12,4,,,,,,,AFSA13.jpg,AFSA17.jpg,AFNE12.jpg,AFNE14.jpg,AFNE12.jpg,FN,3,num_2,16,num_2,0.766795892501,,,2018_Mar_07_1305,60.0106825138,FEMA4ImagesEEG,001,203117,
AFNE01.JPG,AFNE01.JPG,AFNE01.JPG,AFNE01.JPG,AFNE01.JPG,AFNE01.JPG,,,,,,,,,,,,,,,,,1,3,13,0,,,,,,,AFNE16.jpg,AFSA19.jpg,AFNE17.jpg,AFSA02.jpg,AFNE17.jpg,FN,3,num_2,32,num_6,1.13344629738,,,2018_Mar_07_1305,60.0106825138,FEMA4ImagesEEG,001,203117,
AFNE01.JPG,AFNE01.JPG,AFNE01.JPG,AFNE01.JPG,AFNE01.JPG,AFNE01.JPG,,,,,,,,,,,,,,,,,1,4,14,3,,,,,,,AFSA15.jpg,AFNE05.jpg,AFSA13.jpg,AFNE13.jpg,AFSA15.jpg,FS,4,num_8,16,num_8,2.11667935201,,,2018_Mar_07_1305,60.0106825138,FEMA4ImagesEEG,001,203117,
AFNE01.JPG,AFNE01.JPG,AFNE01.JPG,AFNE01.JPG,AFNE01.JPG,AFNE01.JPG,,,,,,,,,,,,,,,,,1,5,15,7,,,,,,,AFNE20.jpg,AFSA17.jpg,AFNE11.jpg,AFSA09.jpg,AFSA09.jpg,FS,4,num_4,32,num_6,1.85002153763,,,2018_Mar_07_1305,60.0106825138,FEMA4ImagesEEG,001,203117,
AFNE01.JPG,AFNE01.JPG,AFNE01.JPG,AFNE01.JPG,AFNE01.JPG,AFNE01.JPG,,,,,,,,,,,,,,,,,1,6,16,1,,,,,,,AFSA10.jpg,AFSA08.jpg,AFNE10.jpg,AFNE11.jpg,AFSA10.jpg,FS,4,num_8,32,num_6,0.61683218414,,,2018_Mar_07_1305,60.0106825138,FEMA4ImagesEEG,001,203117,
AFNE01.JPG,AFNE01.JPG,AFNE01.JPG,AFNE01.JPG,AFNE01.JPG,AFNE01.JPG,,,,,,,,,,,,,,,,,1,7,17,8,,,,,,,AFNE02.jpg,AFSA05.jpg,AFNE12.jpg,AFSA09.jpg,AFNE12.jpg,FN,3,num_2,32,num_8,1.15011381428,,,2018_Mar_07_1305,60.0106825138,FEMA4ImagesEEG,001,203117,
AFNE01.JPG,AFNE01.JPG,AFNE01.JPG,AFNE01.JPG,AFNE01.JPG,AFNE01.JPG,,,,,,,,,,,,,,,,,1,8,18,9,,,,,,,AFSA09.jpg,AFNE05.jpg,AFNE20.jpg,AFSA17.jpg,AFSA09.jpg,FS,4,num_8,16,num_8,1.15010002232,,,2018_Mar_07_1305,60.0106825138,FEMA4ImagesEEG,001,203117,
AFNE01.JPG,AFNE01.JPG,AFNE01.JPG,AFNE01.JPG,AFNE01.JPG,AFNE01.JPG,,,,,,,,,,,,,,,,,1,9,19,6,,,,,,,AFSA13.jpg,AFSA18.jpg,AFNE11.jpg,AFNE05.jpg,AFNE05.jpg,FN,3,num_4,32,num_6,1.58344262512,,,2018_Mar_07_1305,60.0106825138,FEMA4ImagesEEG,001,203117,
AFNE01.JPG,AFNE01.JPG,AFNE01.JPG,AFNE01.JPG,AFNE01.JPG,AFNE01.JPG,,,,,,,,,,,,,,,,,2,0,20,6,,,,,,,AFSA17.jpg,AFNE16.jpg,AFSA09.jpg,AFNE05.jpg,AFNE16.jpg,FN,3,num_6,16,num_6,1.03348545986,,,2018_Mar_07_1305,60.0106825138,FEMA4ImagesEEG,001,203117,
AFNE01.JPG,AFNE01.JPG,AFNE01.JPG,AFNE01.JPG,AFNE01.JPG,AFNE01.JPG,,,,,,,,,,,,,,,,,2,1,21,0,,,,,,,AFNE06.jpg,AFNE04.jpg,AFSA12.jpg,AFSA18.jpg,AFNE06.jpg,FN,3,num_8,16,num_8,1.43339776993,,,2018_Mar_07_1305,60.0106825138,FEMA4ImagesEEG,001,203117,
AFNE01.JPG,AFNE01.JPG,AFNE01.JPG,AFNE01.JPG,AFNE01.JPG,AFNE01.JPG,,,,,,,,,,,,,,,,,2,2,22,8,,,,,,,AFNE03.jpg,AFSA06.jpg,AFNE15.jpg,AFSA04.jpg,AFNE15.jpg,FN,3,num_2,16,num_2,1.21676848526,,,2018_Mar_07_1305,60.0106825138,FEMA4ImagesEEG,001,203117,
AFNE01.JPG,AFNE01.JPG,AFNE01.JPG,AFNE01.JPG,AFNE01.JPG,AFNE01.JPG,,,,,,,,,,,,,,,,,2,3,23,4,,,,,,,AFSA18.jpg,AFNE02.jpg,AFSA02.jpg,AFNE03.jpg,AFSA18.jpg,FS,4,num_8,16,num_8,1.56672154507,,,2018_Mar_07_1305,60.0106825138,FEMA4ImagesEEG,001,203117,
AFNE01.JPG,AFNE01.JPG,AFNE01.JPG,AFNE01.JPG,AFNE01.JPG,AFNE01.JPG,,,,,,,,,,,,,,,,,2,4,24,1,,,,,,,AFNE16.jpg,AFSA06.jpg,AFNE07.jpg,AFSA02.jpg,AFSA06.jpg,FS,4,num_6,16,num_6,1.21680472861,,,2018_Mar_07_1305,60.0106825138,FEMA4ImagesEEG,001,203117,
AFNE01.JPG,AFNE01.JPG,AFNE01.JPG,AFNE01.JPG,AFNE01.JPG,AFNE01.JPG,,,,,,,,,,,,,,,,,2,5,25,3,,,,,,,AFNE10.jpg,AFSA04.jpg,AFNE19.jpg,AFSA14.jpg,AFNE10.jpg,FN,3,num_8,16,num_8,1.45006753155,,,2018_Mar_07_1305,60.0106825138,FEMA4ImagesEEG,001,203117,
AFNE01.JPG,AFNE01.JPG,AFNE01.JPG,AFNE01.JPG,AFNE01.JPG,AFNE01.JPG,,,,,,,,,,,,,,,,,2,6,26,2,,,,,,,AFSA14.jpg,AFNE15.jpg,AFSA03.jpg,AFNE09.jpg,AFSA03.jpg,FS,4,num_2,16,num_2,0.500149945263,,,2018_Mar_07_1305,60.0106825138,FEMA4ImagesEEG,001,203117,
AFNE01.JPG,AFNE01.JPG,AFNE01.JPG,AFNE01.JPG,AFNE01.JPG,AFNE01.JPG,,,,,,,,,,,,,,,,,2,7,27,9,,,,,,,AFSA12.jpg,AFNE04.jpg,AFNE12.jpg,AFSA02.jpg,AFNE12.jpg,FN,3,num_2,32,num_8,0.666791113326,,,2018_Mar_07_1305,60.0106825138,FEMA4ImagesEEG,001,203117,
AFNE01.JPG,AFNE01.JPG,AFNE01.JPG,AFNE01.JPG,AFNE01.JPG,AFNE01.JPG,,,,,,,,,,,,,,,,,2,8,28,5,,,,,,,AFSA08.jpg,AFSA14.jpg,AFNE05.jpg,AFNE13.jpg,AFNE13.jpg,FN,3,num_4,32,num_2,1.55004568934,,,2018_Mar_07_1305,60.0106825138,FEMA4ImagesEEG,001,203117,
AFNE01.JPG,AFNE01.JPG,AFNE01.JPG,AFNE01.JPG,AFNE01.JPG,AFNE01.JPG,,,,,,,,,,,,,,,,,2,9,29,7,,,,,,,AFSA12.jpg,AFNE04.jpg,AFSA01.jpg,AFNE13.jpg,AFNE04.jpg,FN,3,num_6,32,num_8,1.91669032117,,,2018_Mar_07_1305,60.0106825138,FEMA4ImagesEEG,001,203117,
AFNE01.JPG,AFNE01.JPG,AFNE01.JPG,AFNE01.JPG,AFNE01.JPG,AFNE01.JPG,,,,,,,,,,,,,,,,,3,0,30,5,,,,,,,AFSA19.jpg,AFNE20.jpg,AFNE05.jpg,AFSA15.jpg,AFNE20.jpg,FN,3,num_6,16,num_6,0.883437717799,,,2018_Mar_07_1305,60.0106825138,FEMA4ImagesEEG,001,203117,
AFNE01.JPG,AFNE01.JPG,AFNE01.JPG,AFNE01.JPG,AFNE01.JPG,AFNE01.JPG,,,,,,,,,,,,,,,,,3,1,31,2,,,,,,,AFSA01.jpg,AFNE19.jpg,AFNE10.jpg,AFSA20.jpg,AFNE10.jpg,FN,3,num_2,32,num_8,1.7333854856,,,2018_Mar_07_1305,60.0106825138,FEMA4ImagesEEG,001,203117,
AFNE01.JPG,AFNE01.JPG,AFNE01.JPG,AFNE01.JPG,AFNE01.JPG,AFNE01.JPG,,,,,,,,,,,,,,,,,3,2,32,9,,,,,,,AFNE04.jpg,AFSA01.jpg,AFSA08.jpg,AFNE12.jpg,AFSA08.jpg,FS,4,num_2,32,num_4,0.416823267471,,,2018_Mar_07_1305,60.0106825138,FEMA4ImagesEEG,001,203117,
AFNE01.JPG,AFNE01.JPG,AFNE01.JPG,AFNE01.JPG,AFNE01.JPG,AFNE01.JPG,,,,,,,,,,,,,,,,,3,3,33,0,,,,,,,AFSA04.jpg,AFNE12.jpg,AFNE17.jpg,AFSA15.jpg,AFNE17.jpg,FN,3,num_2,32,num_8,0.31683773268,,,2018_Mar_07_1305,60.0106825138,FEMA4ImagesEEG,001,203117,
AFNE01.JPG,AFNE01.JPG,AFNE01.JPG,AFNE01.JPG,AFNE01.JPG,AFNE01.JPG,,,,,,,,,,,,,,,,,3,4,34,7,,,,,,,AFNE03.jpg,AFSA17.jpg,AFNE05.jpg,AFSA19.jpg,AFNE05.jpg,FN,3,num_2,32,num_8,4.03323945287,,,2018_Mar_07_1305,60.0106825138,FEMA4ImagesEEG,001,203117,
AFNE01.JPG,AFNE01.JPG,AFNE01.JPG,AFNE01.JPG,AFNE01.JPG,AFNE01.JPG,,,,,,,,,,,,,,,,,3,5,35,3,,,,,,,AFSA20.jpg,AFNE20.jpg,AFSA16.jpg,AFNE11.jpg,AFNE11.jpg,FN,3,num_4,16,num_4,0.750197976129,,,2018_Mar_07_1305,60.0106825138,FEMA4ImagesEEG,001,203117,
AFNE01.JPG,AFNE01.JPG,AFNE01.JPG,AFNE01.JPG,AFNE01.JPG,AFNE01.JPG,,,,,,,,,,,,,,,,,3,6,36,4,,,,,,,AFSA10.jpg,AFNE18.jpg,AFSA06.jpg,AFNE15.jpg,AFSA10.jpg,FS,4,num_8,16,num_8,0.53347054543,,,2018_Mar_07_1305,60.0106825138,FEMA4ImagesEEG,001,203117,
AFNE01.JPG,AFNE01.JPG,AFNE01.JPG,AFNE01.JPG,AFNE01.JPG,AFNE01.JPG,,,,,,,,,,,,,,,,,3,7,37,1,,,,,,,AFSA16.jpg,AFSA04.jpg,AFNE08.jpg,AFNE02.jpg,AFNE08.jpg,FN,3,num_2,16,num_2,0.900125120301,,,2018_Mar_07_1305,60.0106825138,FEMA4ImagesEEG,001,203117,
AFNE01.JPG,AFNE01.JPG,AFNE01.JPG,AFNE01.JPG,AFNE01.JPG,AFNE01.JPG,,,,,,,,,,,,,,,,,3,8,38,6,,,,,,,AFNE16.jpg,AFNE20.jpg,AFSA12.jpg,AFSA09.jpg,AFSA09.jpg,FS,4,num_4,32,num_8,0.716842094669,,,2018_Mar_07_1305,60.0106825138,FEMA4ImagesEEG,001,203117,
AFNE01.JPG,AFNE01.JPG,AFNE01.JPG,AFNE01.JPG,AFNE01.JPG,AFNE01.JPG,,,,,,,,,,,,,,,,,3,9,39,8,,,,,,,AFNE12.jpg,AFSA06.jpg,AFNE08.jpg,AFSA08.jpg,AFSA06.jpg,FS,4,num_6,16,num_6,0.433476030128,,,2018_Mar_07_1305,60.0106825138,FEMA4ImagesEEG,001,203117,
AFNE01.JPG,AFNE01.JPG,AFNE01.JPG,AFNE01.JPG,AFNE01.JPG,AFNE01.JPG,,,,,,,,,,,,,,,,,4,0,40,3,,,,,,,AFSA19.jpg,AFNE12.jpg,AFSA05.jpg,AFNE11.jpg,AFSA05.jpg,FS,4,num_2,32,num_8,0.400127846515,,,2018_Mar_07_1305,60.0106825138,FEMA4ImagesEEG,001,203117,
AFNE01.JPG,AFNE01.JPG,AFNE01.JPG,AFNE01.JPG,AFNE01.JPG,AFNE01.JPG,,,,,,,,,,,,,,,,,4,1,41,5,,,,,,,AFSA01.jpg,AFNE16.jpg,AFSA06.jpg,AFNE07.jpg,AFNE16.jpg,FN,3,num_6,32,num_8,0.533469903981,,,2018_Mar_07_1305,60.0106825138,FEMA4ImagesEEG,001,203117,
AFNE01.JPG,AFNE01.JPG,AFNE01.JPG,AFNE01.JPG,AFNE01.JPG,AFNE01.JPG,,,,,,,,,,,,,,,,,4,2,42,8,,,,,,,AFNE08.jpg,AFSA05.jpg,AFNE04.jpg,AFSA20.jpg,AFNE08.jpg,FN,3,num_8,16,num_8,1.13349504978,,,2018_Mar_07_1305,60.0106825138,FEMA4ImagesEEG,001,203117,
AFNE01.JPG,AFNE01.JPG,AFNE01.JPG,AFNE01.JPG,AFNE01.JPG,AFNE01.JPG,,,,,,,,,,,,,,,,,4,3,43,1,,,,,,,AFNE12.jpg,AFNE04.jpg,AFSA12.jpg,AFSA05.jpg,AFSA05.jpg,FS,4,num_4,32,num_6,0.749973138096,,,2018_Mar_07_1305,60.0106825138,FEMA4ImagesEEG,001,203117,
AFNE01.JPG,AFNE01.JPG,AFNE01.JPG,AFNE01.JPG,AFNE01.JPG,AFNE01.JPG,,,,,,,,,,,,,,,,,4,4,44,0,,,,,,,AFNE01.jpg,AFSA14.jpg,AFSA01.jpg,AFNE19.jpg,AFNE19.jpg,FN,3,num_4,16,num_4,0.416796966689,,,2018_Mar_07_1305,60.0106825138,FEMA4ImagesEEG,001,203117,
AFNE01.JPG,AFNE01.JPG,AFNE01.JPG,AFNE01.JPG,AFNE01.JPG,AFNE01.JPG,,,,,,,,,,,,,,,,,4,5,45,9,,,,,,,AFSA14.jpg,AFSA13.jpg,AFNE16.jpg,AFNE01.jpg,AFSA13.jpg,FS,4,num_6,16,num_6,1.11668865336,,,2018_Mar_07_1305,60.0106825138,FEMA4ImagesEEG,001,203117,
AFNE01.JPG,AFNE01.JPG,AFNE01.JPG,AFNE01.JPG,AFNE01.JPG,AFNE01.JPG,,,,,,,,,,,,,,,,,4,6,46,6,,,,,,,AFSA15.jpg,AFNE18.jpg,AFSA14.jpg,AFNE10.jpg,AFNE18.jpg,FN,3,num_6,32,num_4,1.06681055017,,,2018_Mar_07_1305,60.0106825138,FEMA4ImagesEEG,001,203117,
AFNE01.JPG,AFNE01.JPG,AFNE01.JPG,AFNE01.JPG,AFNE01.JPG,AFNE01.JPG,,,,,,,,,,,,,,,,,4,7,47,7,,,,,,,AFNE17.jpg,AFNE14.jpg,AFSA12.jpg,AFSA15.jpg,AFNE14.jpg,FN,3,num_6,16,num_6,0.883471395355,,,2018_Mar_07_1305,60.0106825138,FEMA4ImagesEEG,001,203117,
AFNE01.JPG,AFNE01.JPG,AFNE01.JPG,AFNE01.JPG,AFNE01.JPG,AFNE01.JPG,,,,,,,,,,,,,,,,,4,8,48,2,,,,,,,AFSA13.jpg,AFNE16.jpg,AFSA20.jpg,AFNE04.jpg,AFSA20.jpg,FS,4,num_2,32,num_8,0.300022996962,,,2018_Mar_07_1305,60.0106825138,FEMA4ImagesEEG,001,203117,
AFNE01.JPG,AFNE01.JPG,AFNE01.JPG,AFNE01.JPG,AFNE01.JPG,AFNE01.JPG,,,,,,,,,,,,,,,,,4,9,49,4,,,,,,,AFSA04.jpg,AFNE03.jpg,AFSA03.jpg,AFNE08.jpg,AFSA04.jpg,FS,4,num_8,16,num_8,1.61671479349,,,2018_Mar_07_1305,60.0106825138,FEMA4ImagesEEG,001,203117,
AFNE01.JPG,AFNE01.JPG,AFNE01.JPG,AFNE01.JPG,AFNE01.JPG,AFNE01.JPG,,,,,,,,,,,,,,,,,5,0,50,2,,,,,,,AFNE15.jpg,AFNE18.jpg,AFSA16.jpg,AFSA04.jpg,AFSA04.jpg,FS,4,num_4,32,num_6,1.15014492581,,,2018_Mar_07_1305,60.0106825138,FEMA4ImagesEEG,001,203117,
AFNE01.JPG,AFNE01.JPG,AFNE01.JPG,AFNE01.JPG,AFNE01.JPG,AFNE01.JPG,,,,,,,,,,,,,,,,,5,1,51,7,,,,,,,AFSA05.jpg,AFSA14.jpg,AFNE08.jpg,AFNE12.jpg,AFNE08.jpg,FN,3,num_2,32,num_6,0.950064805336,,,2018_Mar_07_1305,60.0106825138,FEMA4ImagesEEG,001,203117,
AFNE01.JPG,AFNE01.JPG,AFNE01.JPG,AFNE01.JPG,AFNE01.JPG,AFNE01.JPG,,,,,,,,,,,,,,,,,5,2,52,3,,,,,,,AFSA12.jpg,AFSA13.jpg,AFNE03.jpg,AFNE12.jpg,AFNE03.jpg,FN,3,num_2,32,num_8,0.500117229996,,,2018_Mar_07_1305,60.0106825138,FEMA4ImagesEEG,001,203117,
AFNE01.JPG,AFNE01.JPG,AFNE01.JPG,AFNE01.JPG,AFNE01.JPG,AFNE01.JPG,,,,,,,,,,,,,,,,,5,3,53,5,,,,,,,AFSA05.jpg,AFNE11.jpg,AFNE18.jpg,AFSA16.jpg,AFSA16.jpg,FS,4,num_4,16,num_4,2.76649952959,,,2018_Mar_07_1305,60.0106825138,FEMA4ImagesEEG,001,203117,
AFNE01.JPG,AFNE01.JPG,AFNE01.JPG,AFNE01.JPG,AFNE01.JPG,AFNE01.JPG,,,,,,,,,,,,,,,,,5,4,54,1,,,,,,,AFSA13.jpg,AFNE15.jpg,AFSA20.jpg,AFNE14.jpg,AFNE14.jpg,FN,3,num_4,32,num_6,0.633490719832,,,2018_Mar_07_1305,60.0106825138,FEMA4ImagesEEG,001,203117,
AFNE01.JPG,AFNE01.JPG,AFNE01.JPG,AFNE01.JPG,AFNE01.JPG,AFNE01.JPG,,,,,,,,,,,,,,,,,5,5,55,0,,,,,,,AFNE13.jpg,AFSA02.jpg,AFSA09.jpg,AFNE19.jpg,AFNE19.jpg,FN,3,num_4,16,num_4,0.516676016152,,,2018_Mar_07_1305,60.0106825138,FEMA4ImagesEEG,001,203117,
AFNE01.JPG,AFNE01.JPG,AFNE01.JPG,AFNE01.JPG,AFNE01.JPG,AFNE01.JPG,,,,,,,,,,,,,,,,,5,6,56,8,,,,,,,AFNE14.jpg,AFNE17.jpg,AFSA20.jpg,AFSA15.jpg,AFNE17.jpg,FN,3,num_6,32,num_2,0.633479173295,,,2018_Mar_07_1305,60.0106825138,FEMA4ImagesEEG,001,203117,
AFNE01.JPG,AFNE01.JPG,AFNE01.JPG,AFNE01.JPG,AFNE01.JPG,AFNE01.JPG,,,,,,,,,,,,,,,,,5,7,57,9,,,,,,,AFSA10.jpg,AFNE03.jpg,AFSA15.jpg,AFNE19.jpg,AFSA15.jpg,FS,4,num_2,32,num_8,0.383485347498,,,2018_Mar_07_1305,60.0106825138,FEMA4ImagesEEG,001,203117,
AFNE01.JPG,AFNE01.JPG,AFNE01.JPG,AFNE01.JPG,AFNE01.JPG,AFNE01.JPG,,,,,,,,,,,,,,,,,5,8,58,4,,,,,,,AFNE02.jpg,AFNE18.jpg,AFSA17.jpg,AFSA16.jpg,AFSA16.jpg,FS,4,num_4,16,num_4,0.283451060532,,,2018_Mar_07_1305,60.0106825138,FEMA4ImagesEEG,001,203117,
AFNE01.JPG,AFNE01.JPG,AFNE01.JPG,AFNE01.JPG,AFNE01.JPG,AFNE01.JPG,,,,,,,,,,,,,,,,,5,9,59,6,,,,,,,AFSA14.jpg,AFSA05.jpg,AFNE08.jpg,AFNE17.jpg,AFSA05.jpg,FS,4,num_6,32,num_8,0.300182403997,,,2018_Mar_07_1305,60.0106825138,FEMA4ImagesEEG,001,203117,
,,,,,,,,,,,,,,,,,,,,,,,,,,,,,,,,,,,,,,,,,,,space,1.84975885251,2018_Mar_07_1305,60.0106825138,FEMA4ImagesEEG,001,203117,
AFNE01.JPG,AFNE01.JPG,AFNE01.JPG,AFNE01.JPG,AFNE01.JPG,AFNE01.JPG,,,,,,,,,,,,,,,,,,,,,0,0,0,4,,,AMNE07.jpg,AMSA03.jpg,AMSA12.jpg,AMNE16.jpg,AMNE07.jpg,MN,1,num_8,32,num_6,0.450151565252,,,2018_Mar_07_1305,60.0106825138,FEMA4ImagesEEG,001,203117,
AFNE01.JPG,AFNE01.JPG,AFNE01.JPG,AFNE01.JPG,AFNE01.JPG,AFNE01.JPG,,,,,,,,,,,,,,,,,,,,,0,1,1,3,,,AMNE03.jpg,AMSA07.jpg,AMSA18.jpg,AMNE04.jpg,AMSA07.jpg,MS,2,num_6,32,num_8,0.35021382058,,,2018_Mar_07_1305,60.0106825138,FEMA4ImagesEEG,001,203117,
AFNE01.JPG,AFNE01.JPG,AFNE01.JPG,AFNE01.JPG,AFNE01.JPG,AFNE01.JPG,,,,,,,,,,,,,,,,,,,,,0,2,2,0,,,AMSA13.jpg,AMNE19.jpg,AMNE14.jpg,AMSA05.jpg,AMSA05.jpg,MS,2,num_4,32,num_8,0.5001416062,,,2018_Mar_07_1305,60.0106825138,FEMA4ImagesEEG,001,203117,
AFNE01.JPG,AFNE01.JPG,AFNE01.JPG,AFNE01.JPG,AFNE01.JPG,AFNE01.JPG,,,,,,,,,,,,,,,,,,,,,0,3,3,8,,,AMNE11.jpg,AMSA13.jpg,AMSA10.jpg,AMNE01.jpg,AMSA13.jpg,MS,2,num_6,32,num_4,1.1334575233,,,2018_Mar_07_1305,60.0106825138,FEMA4ImagesEEG,001,203117,
AFNE01.JPG,AFNE01.JPG,AFNE01.JPG,AFNE01.JPG,AFNE01.JPG,AFNE01.JPG,,,,,,,,,,,,,,,,,,,,,0,4,4,7,,,AMNE20.jpg,AMNE08.jpg,AMSA10.jpg,AMSA06.jpg,AMNE20.jpg,MN,1,num_8,16,num_8,1.45011884975,,,2018_Mar_07_1305,60.0106825138,FEMA4ImagesEEG,001,203117,
AFNE01.JPG,AFNE01.JPG,AFNE01.JPG,AFNE01.JPG,AFNE01.JPG,AFNE01.JPG,,,,,,,,,,,,,,,,,,,,,0,5,5,9,,,AMNE17.jpg,AMSA20.jpg,AMSA17.jpg,AMNE01.jpg,AMSA20.jpg,MS,2,num_6,16,num_6,0.383498177165,,,2018_Mar_07_1305,60.0106825138,FEMA4ImagesEEG,001,203117,
AFNE01.JPG,AFNE01.JPG,AFNE01.JPG,AFNE01.JPG,AFNE01.JPG,AFNE01.JPG,,,,,,,,,,,,,,,,,,,,,0,6,6,6,,,AMSA14.jpg,AMNE20.jpg,AMNE01.jpg,AMSA03.jpg,AMNE01.jpg,MN,1,num_2,32,num_8,0.666821583407,,,2018_Mar_07_1305,60.0106825138,FEMA4ImagesEEG,001,203117,
AFNE01.JPG,AFNE01.JPG,AFNE01.JPG,AFNE01.JPG,AFNE01.JPG,AFNE01.JPG,,,,,,,,,,,,,,,,,,,,,0,7,7,5,,,AMNE19.jpg,AMSA19.jpg,AMNE18.jpg,AMSA11.jpg,AMSA11.jpg,MS,2,num_4,32,num_8,0.700193822617,,,2018_Mar_07_1305,60.0106825138,FEMA4ImagesEEG,001,203117,
AFNE01.JPG,AFNE01.JPG,AFNE01.JPG,AFNE01.JPG,AFNE01.JPG,AFNE01.JPG,,,,,,,,,,,,,,,,,,,,,0,8,8,2,,,AMNE11.jpg,AMNE09.jpg,AMSA07.jpg,AMSA17.jpg,AMSA17.jpg,MS,2,num_4,32,num_6,0.43345389911,,,2018_Mar_07_1305,60.0106825138,FEMA4ImagesEEG,001,203117,
AFNE01.JPG,AFNE01.JPG,AFNE01.JPG,AFNE01.JPG,AFNE01.JPG,AFNE01.JPG,,,,,,,,,,,,,,,,,,,,,0,9,9,1,,,AMNE09.jpg,AMNE05.jpg,AMSA03.jpg,AMSA13.jpg,AMSA13.jpg,MS,2,num_4,16,num_4,1.38341831323,,,2018_Mar_07_1305,60.0106825138,FEMA4ImagesEEG,001,203117,
AFNE01.JPG,AFNE01.JPG,AFNE01.JPG,AFNE01.JPG,AFNE01.JPG,AFNE01.JPG,,,,,,,,,,,,,,,,,,,,,1,0,10,9,,,AMNE02.jpg,AMSA14.jpg,AMNE13.jpg,AMSA19.jpg,AMSA19.jpg,MS,2,num_4,16,num_4,1.08344182326,,,2018_Mar_07_1305,60.0106825138,FEMA4ImagesEEG,001,203117,
AFNE01.JPG,AFNE01.JPG,AFNE01.JPG,AFNE01.JPG,AFNE01.JPG,AFNE01.JPG,,,,,,,,,,,,,,,,,,,,,1,1,11,2,,,AMSA03.jpg,AMNE12.jpg,AMSA14.jpg,AMNE16.jpg,AMSA03.jpg,MS,2,num_8,32,num_2,1.48341026274,,,2018_Mar_07_1305,60.0106825138,FEMA4ImagesEEG,001,203117,
AFNE01.JPG,AFNE01.JPG,AFNE01.JPG,AFNE01.JPG,AFNE01.JPG,AFNE01.JPG,,,,,,,,,,,,,,,,,,,,,1,2,12,6,,,AMSA16.jpg,AMNE19.jpg,AMNE02.jpg,AMSA03.jpg,AMSA16.jpg,MS,2,num_8,32,num_2,0.983276353916,,,2018_Mar_07_1305,60.0106825138,FEMA4ImagesEEG,001,203117,
AFNE01.JPG,AFNE01.JPG,AFNE01.JPG,AFNE01.JPG,AFNE01.JPG,AFNE01.JPG,,,,,,,,,,,,,,,,,,,,,1,3,13,0,,,AMNE08.jpg,AMNE16.jpg,AMSA13.jpg,AMSA15.jpg,AMSA15.jpg,MS,2,num_4,32,num_2,0.966762792086,,,2018_Mar_07_1305,60.0106825138,FEMA4ImagesEEG,001,203117,
AFNE01.JPG,AFNE01.JPG,AFNE01.JPG,AFNE01.JPG,AFNE01.JPG,AFNE01.JPG,,,,,,,,,,,,,,,,,,,,,1,4,14,4,,,AMSA06.jpg,AMSA14.jpg,AMNE17.jpg,AMNE05.jpg,AMSA06.jpg,MS,2,num_8,32,num_4,1.23344081291,,,2018_Mar_07_1305,60.0106825138,FEMA4ImagesEEG,001,203117,
AFNE01.JPG,AFNE01.JPG,AFNE01.JPG,AFNE01.JPG,AFNE01.JPG,AFNE01.JPG,,,,,,,,,,,,,,,,,,,,,1,5,15,5,,,AMSA20.jpg,AMNE05.jpg,AMSA11.jpg,AMNE03.jpg,AMNE03.jpg,MN,1,num_4,16,num_4,1.2167360906,,,2018_Mar_07_1305,60.0106825138,FEMA4ImagesEEG,001,203117,
AFNE01.JPG,AFNE01.JPG,AFNE01.JPG,AFNE01.JPG,AFNE01.JPG,AFNE01.JPG,,,,,,,,,,,,,,,,,,,,,1,6,16,3,,,AMSA07.jpg,AMSA03.jpg,AMNE20.jpg,AMNE04.jpg,AMSA03.jpg,MS,2,num_6,32,num_8,1.61672601942,,,2018_Mar_07_1305,60.0106825138,FEMA4ImagesEEG,001,203117,
AFNE01.JPG,AFNE01.JPG,AFNE01.JPG,AFNE01.JPG,AFNE01.JPG,AFNE01.JPG,,,,,,,,,,,,,,,,,,,,,1,7,17,7,,,AMNE07.jpg,AMSA04.jpg,AMNE09.jpg,AMSA16.jpg,AMSA16.jpg,MS,2,num_4,32,num_6,1.25012147985,,,2018_Mar_07_1305,60.0106825138,FEMA4ImagesEEG,001,203117,
AFNE01.JPG,AFNE01.JPG,AFNE01.JPG,AFNE01.JPG,AFNE01.JPG,AFNE01.JPG,,,,,,,,,,,,,,,,,,,,,1,8,18,1,,,AMSA09.jpg,AMSA02.jpg,AMNE01.jpg,AMNE03.jpg,AMSA02.jpg,MS,2,num_6,16,num_6,2.06666461402,,,2018_Mar_07_1305,60.0106825138,FEMA4ImagesEEG,001,203117,
AFNE01.JPG,AFNE01.JPG,AFNE01.JPG,AFNE01.JPG,AFNE01.JPG,AFNE01.JPG,,,,,,,,,,,,,,,,,,,,,1,9,19,8,,,AMSA03.jpg,AMNE07.jpg,AMNE09.jpg,AMSA16.jpg,AMSA16.jpg,MS,2,num_4,32,num_6,0.85029833531,,,2018_Mar_07_1305,60.0106825138,FEMA4ImagesEEG,001,203117,
AFNE01.JPG,AFNE01.JPG,AFNE01.JPG,AFNE01.JPG,AFNE01.JPG,AFNE01.JPG,,,,,,,,,,,,,,,,,,,,,2,0,20,0,,,AMNE13.jpg,AMSA07.jpg,AMSA15.jpg,AMNE20.jpg,AMSA15.jpg,MS,2,num_2,32,num_6,1.66670707962,,,2018_Mar_07_1305,60.0106825138,FEMA4ImagesEEG,001,203117,
AFNE01.JPG,AFNE01.JPG,AFNE01.JPG,AFNE01.JPG,AFNE01.JPG,AFNE01.JPG,,,,,,,,,,,,,,,,,,,,,2,1,21,6,,,AMSA14.jpg,AMSA05.jpg,AMNE15.jpg,AMNE07.jpg,AMSA14.jpg,MS,2,num_8,32,num_6,0.900083744898,,,2018_Mar_07_1305,60.0106825138,FEMA4ImagesEEG,001,203117,
AFNE01.JPG,AFNE01.JPG,AFNE01.JPG,AFNE01.JPG,AFNE01.JPG,AFNE01.JPG,,,,,,,,,,,,,,,,,,,,,2,2,22,8,,,AMNE16.jpg,AMSA11.jpg,AMNE17.jpg,AMSA03.jpg,AMSA03.jpg,MS,2,num_4,32,num_6,0.6168575224,,,2018_Mar_07_1305,60.0106825138,FEMA4ImagesEEG,001,203117,
AFNE01.JPG,AFNE01.JPG,AFNE01.JPG,AFNE01.JPG,AFNE01.JPG,AFNE01.JPG,,,,,,,,,,,,,,,,,,,,,2,3,23,4,,,AMNE18.jpg,AMNE17.jpg,AMSA14.jpg,AMSA11.jpg,AMSA14.jpg,MS,2,num_2,16,num_2,1.10010741535,,,2018_Mar_07_1305,60.0106825138,FEMA4ImagesEEG,001,203117,
AFNE01.JPG,AFNE01.JPG,AFNE01.JPG,AFNE01.JPG,AFNE01.JPG,AFNE01.JPG,,,,,,,,,,,,,,,,,,,,,2,4,24,2,,,AMNE20.jpg,AMSA07.jpg,AMNE18.jpg,AMSA18.jpg,AMSA07.jpg,MS,2,num_6,16,num_6,0.833453450119,,,2018_Mar_07_1305,60.0106825138,FEMA4ImagesEEG,001,203117,
AFNE01.JPG,AFNE01.JPG,AFNE01.JPG,AFNE01.JPG,AFNE01.JPG,AFNE01.JPG,,,,,,,,,,,,,,,,,,,,,2,5,25,1,,,AMNE18.jpg,AMSA02.jpg,AMNE08.jpg,AMSA08.jpg,AMSA02.jpg,MS,2,num_6,16,num_6,0.833507975563,,,2018_Mar_07_1305,60.0106825138,FEMA4ImagesEEG,001,203117,
AFNE01.JPG,AFNE01.JPG,AFNE01.JPG,AFNE01.JPG,AFNE01.JPG,AFNE01.JPG,,,,,,,,,,,,,,,,,,,,,2,6,26,5,,,AMNE02.jpg,AMSA02.jpg,AMNE15.jpg,AMSA08.jpg,AMSA02.jpg,MS,2,num_6,32,num_2,1.06675057183,,,2018_Mar_07_1305,60.0106825138,FEMA4ImagesEEG,001,203117,
AFNE01.JPG,AFNE01.JPG,AFNE01.JPG,AFNE01.JPG,AFNE01.JPG,AFNE01.JPG,,,,,,,,,,,,,,,,,,,,,2,7,27,7,,,AMNE17.jpg,AMSA14.jpg,AMSA16.jpg,AMNE09.jpg,AMNE09.jpg,MN,1,num_4,32,num_6,3.11661680788,,,2018_Mar_07_1305,60.0106825138,FEMA4ImagesEEG,001,203117,
AFNE01.JPG,AFNE01.JPG,AFNE01.JPG,AFNE01.JPG,AFNE01.JPG,AFNE01.JPG,,,,,,,,,,,,,,,,,,,,,2,8,28,3,,,AMSA14.jpg,AMNE16.jpg,AMSA01.jpg,AMNE18.jpg,AMNE16.jpg,MN,1,num_6,32,num_2,1.20015998464,,,2018_Mar_07_1305,60.0106825138,FEMA4ImagesEEG,001,203117,
AFNE01.JPG,AFNE01.JPG,AFNE01.JPG,AFNE01.JPG,AFNE01.JPG,AFNE01.JPG,,,,,,,,,,,,,,,,,,,,,2,9,29,9,,,AMNE16.jpg,AMSA16.jpg,AMSA13.jpg,AMNE10.jpg,AMSA13.jpg,MS,2,num_2,32,num_6,0.983426460065,,,2018_Mar_07_1305,60.0106825138,FEMA4ImagesEEG,001,203117,
AFNE01.JPG,AFNE01.JPG,AFNE01.JPG,AFNE01.JPG,AFNE01.JPG,AFNE01.JPG,,,,,,,,,,,,,,,,,,,,,3,0,30,7,,,AMSA02.jpg,AMSA16.jpg,AMNE12.jpg,AMNE20.jpg,AMSA16.jpg,MS,2,num_6,16,num_6,0.90010330989,,,2018_Mar_07_1305,60.0106825138,FEMA4ImagesEEG,001,203117,
AFNE01.JPG,AFNE01.JPG,AFNE01.JPG,AFNE01.JPG,AFNE01.JPG,AFNE01.JPG,,,,,,,,,,,,,,,,,,,,,3,1,31,6,,,AMSA20.jpg,AMSA17.jpg,AMNE11.jpg,AMNE19.jpg,AMSA17.jpg,MS,2,num_6,32,num_2,1.23342894553,,,2018_Mar_07_1305,60.0106825138,FEMA4ImagesEEG,001,203117,
AFNE01.JPG,AFNE01.JPG,AFNE01.JPG,AFNE01.JPG,AFNE01.JPG,AFNE01.JPG,,,,,,,,,,,,,,,,,,,,,3,2,32,0,,,AMSA06.jpg,AMNE18.jpg,AMSA01.jpg,AMNE14.jpg,AMSA06.jpg,MS,2,num_8,32,num_6,0.9167711474,,,2018_Mar_07_1305,60.0106825138,FEMA4ImagesEEG,001,203117,
AFNE01.JPG,AFNE01.JPG,AFNE01.JPG,AFNE01.JPG,AFNE01.JPG,AFNE01.JPG,,,,,,,,,,,,,,,,,,,,,3,3,33,4,,,AMNE16.jpg,AMNE10.jpg,AMSA08.jpg,AMSA16.jpg,AMNE10.jpg,MN,1,num_6,16,num_6,1.28349179425,,,2018_Mar_07_1305,60.0106825138,FEMA4ImagesEEG,001,203117,
AFNE01.JPG,AFNE01.JPG,AFNE01.JPG,AFNE01.JPG,AFNE01.JPG,AFNE01.JPG,,,,,,,,,,,,,,,,,,,,,3,4,34,5,,,AMNE19.jpg,AMNE05.jpg,AMSA13.jpg,AMSA02.jpg,AMNE19.jpg,MN,1,num_8,16,num_8,1.01667264849,,,2018_Mar_07_1305,60.0106825138,FEMA4ImagesEEG,001,203117,
AFNE01.JPG,AFNE01.JPG,AFNE01.JPG,AFNE01.JPG,AFNE01.JPG,AFNE01.JPG,,,,,,,,,,,,,,,,,,,,,3,5,35,3,,,AMNE05.jpg,AMSA16.jpg,AMSA20.jpg,AMNE15.jpg,AMSA16.jpg,MS,2,num_6,16,num_6,0.816761557246,,,2018_Mar_07_1305,60.0106825138,FEMA4ImagesEEG,001,203117,
AFNE01.JPG,AFNE01.JPG,AFNE01.JPG,AFNE01.JPG,AFNE01.JPG,AFNE01.JPG,,,,,,,,,,,,,,,,,,,,,3,6,36,2,,,AMNE19.jpg,AMSA15.jpg,AMSA05.jpg,AMNE09.jpg,AMSA05.jpg,MS,2,num_2,16,num_2,1.25011121621,,,2018_Mar_07_1305,60.0106825138,FEMA4ImagesEEG,001,203117,
AFNE01.JPG,AFNE01.JPG,AFNE01.JPG,AFNE01.JPG,AFNE01.JPG,AFNE01.JPG,,,,,,,,,,,,,,,,,,,,,3,7,37,9,,,AMSA16.jpg,AMSA17.jpg,AMNE01.jpg,AMNE06.jpg,AMNE06.jpg,MN,1,num_4,32,num_6,0.816793310456,,,2018_Mar_07_1305,60.0106825138,FEMA4ImagesEEG,001,203117,
AFNE01.JPG,AFNE01.JPG,AFNE01.JPG,AFNE01.JPG,AFNE01.JPG,AFNE01.JPG,,,,,,,,,,,,,,,,,,,,,3,8,38,1,,,AMSA07.jpg,AMNE13.jpg,AMSA11.jpg,AMNE11.jpg,AMSA07.jpg,MS,2,num_8,16,num_8,0.983472004766,,,2018_Mar_07_1305,60.0106825138,FEMA4ImagesEEG,001,203117,
