IPosition2,IPosition3,IPosition1,IPosition6,IPosition4,IPosition5,TrialsM1.thisRepN,TrialsM1.thisTrialN,TrialsM1.thisN,TrialsM1.thisIndex,TrialsF1.thisRepN,TrialsF1.thisTrialN,TrialsF1.thisN,TrialsF1.thisIndex,TrialsM2.thisRepN,TrialsM2.thisTrialN,TrialsM2.thisN,TrialsM2.thisIndex,TrialsF2.thisRepN,TrialsF2.thisTrialN,TrialsF2.thisN,TrialsF2.thisIndex,TrialsM3.thisRepN,TrialsM3.thisTrialN,TrialsM3.thisN,TrialsM3.thisIndex,TrialsF3.thisRepN,TrialsF3.thisTrialN,TrialsF3.thisN,TrialsF3.thisIndex,InstrKey_resp.keys,InstrKey_resp.rt,Image0 _Position,Image1 _Position,Image2 _Position,Image3 _Position,Center_image,condition,code,correct_answer,accuracy,Key_Resp.keys,Key_Resp.rt,BreakKey_resp.keys,BreakKey_resp.rt,date,frameRate,expName,session,participant,
,,,,,,,,,,,,,,,,,,,,,,,,,,,,,,space,13.5828360273,,,,,,,,,,,,,,2018_Apr_02_1302,60.0065822902,MAFE4ImagesEEG,001,203218,
AFNE23.JPG,AFNE24.JPG,AFNE22.JPG,AFSA24.JPG,AFSA22.JPG,AFSA23.JPG,0,0,0,8,,,,,,,,,,,,,,,,,,,,,,,AMSA19.jpg,AMNE14.jpg,AMSA08.jpg,AMNE19.jpg,AMNE19.jpg,MN,1,num_4,32,num_2,1.20012778253,,,2018_Apr_02_1302,60.0065822902,MAFE4ImagesEEG,001,203218,
AMSA21.JPG,AMNE23.JPG,AMNE21.JPG,AMSA25.JPG,AMNE25.JPG,AMSA23.JPG,0,1,1,5,,,,,,,,,,,,,,,,,,,,,,,AMSA12.jpg,AMSA10.jpg,AMNE05.jpg,AMNE15.jpg,AMNE15.jpg,MN,1,num_4,16,num_4,1.10011456802,,,2018_Apr_02_1302,60.0065822902,MAFE4ImagesEEG,001,203218,
AMSA25.JPG,AMNE24.JPG,AMSA24.JPG,AMNE26.JPG,AMSA21.JPG,AMNE25.JPG,0,2,2,3,,,,,,,,,,,,,,,,,,,,,,,AMSA03.jpg,AMNE04.jpg,AMSA05.jpg,AMNE17.jpg,AMNE04.jpg,MN,1,num_6,16,num_6,0.950142055401,,,2018_Apr_02_1302,60.0065822902,MAFE4ImagesEEG,001,203218,
AFSA25.JPG,AFNE24.JPG,AFSA24.JPG,AFNE21.JPG,AFSA21.JPG,AFNE25.JPG,0,3,3,2,,,,,,,,,,,,,,,,,,,,,,,AMSA17.jpg,AMSA14.jpg,AMNE05.jpg,AMNE11.jpg,AMNE05.jpg,MN,1,num_2,32,num_4,0.833403575234,,,2018_Apr_02_1302,60.0065822902,MAFE4ImagesEEG,001,203218,
AFSA21.JPG,AFNE23.JPG,AFNE21.JPG,AFSA25.JPG,AFNE25.JPG,AFSA23.JPG,0,4,4,4,,,,,,,,,,,,,,,,,,,,,,,AMNE14.jpg,AMSA13.jpg,AMNE18.jpg,AMSA09.jpg,AMNE18.jpg,MN,1,num_2,16,num_2,1.36678290262,,,2018_Apr_02_1302,60.0065822902,MAFE4ImagesEEG,001,203218,
AFSA21.JPG,AFNE22.JPG,AFNE21.JPG,AFSA23.JPG,AFSA22.JPG,AFNE23.JPG,0,5,5,0,,,,,,,,,,,,,,,,,,,,,,,AMNE14.jpg,AMSA11.jpg,AMSA05.jpg,AMNE07.jpg,AMSA11.jpg,MS,2,num_6,16,num_6,0.916821423336,,,2018_Apr_02_1302,60.0065822902,MAFE4ImagesEEG,001,203218,
AMSA21.JPG,AMNE22.JPG,AMNE21.JPG,AMSA23.JPG,AMSA22.JPG,AMNE23.JPG,0,6,6,1,,,,,,,,,,,,,,,,,,,,,,,AMSA03.jpg,AMNE14.jpg,AMNE01.jpg,AMSA08.jpg,AMSA08.jpg,MS,2,num_4,32,num_2,1.55007155694,,,2018_Apr_02_1302,60.0065822902,MAFE4ImagesEEG,001,203218,
AFNE22.JPG,AFSA24.JPG,AFSA22.JPG,AFNE25.JPG,AFNE24.JPG,AFSA25.JPG,0,7,7,6,,,,,,,,,,,,,,,,,,,,,,,AMNE05.jpg,AMSA15.jpg,AMNE17.jpg,AMSA02.jpg,AMNE05.jpg,MN,1,num_8,16,num_8,1.06659507763,,,2018_Apr_02_1302,60.0065822902,MAFE4ImagesEEG,001,203218,
AMNE23.JPG,AMNE24.JPG,AMNE22.JPG,AMSA24.JPG,AMSA22.JPG,AMSA23.JPG,0,8,8,9,,,,,,,,,,,,,,,,,,,,,,,AMNE12.jpg,AMNE15.jpg,AMSA09.jpg,AMSA11.jpg,AMNE15.jpg,MN,1,num_6,16,num_6,1.05011646042,,,2018_Apr_02_1302,60.0065822902,MAFE4ImagesEEG,001,203218,
AMNE22.JPG,AMSA24.JPG,AMSA22.JPG,AMNE25.JPG,AMNE24.JPG,AMSA25.JPG,0,9,9,7,,,,,,,,,,,,,,,,,,,,,,,AMSA12.jpg,AMNE01.jpg,AMNE19.jpg,AMSA09.jpg,AMSA12.jpg,MS,2,num_8,16,num_8,0.56683370762,,,2018_Apr_02_1302,60.0065822902,MAFE4ImagesEEG,001,203218,
AMNE23.JPG,AMNE24.JPG,AMNE22.JPG,AMSA24.JPG,AMSA22.JPG,AMSA23.JPG,,,,,0,0,0,9,,,,,,,,,,,,,,,,,,,AFSA20.jpg,AFNE05.jpg,AFNE12.jpg,AFSA19.jpg,AFSA20.jpg,FS,4,num_8,32,num_2,0.683457363164,,,2018_Apr_02_1302,60.0065822902,MAFE4ImagesEEG,001,203218,
AFSA25.JPG,AFNE24.JPG,AFSA24.JPG,AFNE21.JPG,AFSA21.JPG,AFNE25.JPG,,,,,0,1,1,2,,,,,,,,,,,,,,,,,,,AFNE10.jpg,AFSA15.jpg,AFSA10.jpg,AFNE06.jpg,AFSA15.jpg,FS,4,num_6,16,num_6,0.633505121223,,,2018_Apr_02_1302,60.0065822902,MAFE4ImagesEEG,001,203218,
AFNE23.JPG,AFNE24.JPG,AFNE22.JPG,AFSA24.JPG,AFSA22.JPG,AFSA23.JPG,,,,,0,2,2,8,,,,,,,,,,,,,,,,,,,AFSA05.jpg,AFNE19.jpg,AFNE09.jpg,AFSA14.jpg,AFNE19.jpg,FN,3,num_6,32,num_8,0.916798330145,,,2018_Apr_02_1302,60.0065822902,MAFE4ImagesEEG,001,203218,
AFNE22.JPG,AFSA24.JPG,AFSA22.JPG,AFNE25.JPG,AFNE24.JPG,AFSA25.JPG,,,,,0,3,3,6,,,,,,,,,,,,,,,,,,,AFSA05.jpg,AFNE03.jpg,AFNE07.jpg,AFSA02.jpg,AFSA02.jpg,FS,4,num_4,32,num_8,0.733478243346,,,2018_Apr_02_1302,60.0065822902,MAFE4ImagesEEG,001,203218,
AMSA21.JPG,AMNE22.JPG,AMNE21.JPG,AMSA23.JPG,AMSA22.JPG,AMNE23.JPG,,,,,0,4,4,1,,,,,,,,,,,,,,,,,,,AFNE12.jpg,AFNE07.jpg,AFSA02.jpg,AFSA05.jpg,AFSA05.jpg,FS,4,num_4,16,num_4,0.816770040896,,,2018_Apr_02_1302,60.0065822902,MAFE4ImagesEEG,001,203218,
AMNE22.JPG,AMSA24.JPG,AMSA22.JPG,AMNE25.JPG,AMNE24.JPG,AMSA25.JPG,,,,,0,5,5,7,,,,,,,,,,,,,,,,,,,AFSA07.jpg,AFNE13.jpg,AFNE12.jpg,AFSA05.jpg,AFSA07.jpg,FS,4,num_8,32,num_6,0.65015469247,,,2018_Apr_02_1302,60.0065822902,MAFE4ImagesEEG,001,203218,
AMSA25.JPG,AMNE24.JPG,AMSA24.JPG,AMNE26.JPG,AMSA21.JPG,AMNE25.JPG,,,,,0,6,6,3,,,,,,,,,,,,,,,,,,,AFSA19.jpg,AFNE02.jpg,AFSA15.jpg,AFNE16.jpg,AFSA19.jpg,FS,4,num_8,16,num_8,1.01660851669,,,2018_Apr_02_1302,60.0065822902,MAFE4ImagesEEG,001,203218,
AFSA21.JPG,AFNE23.JPG,AFNE21.JPG,AFSA25.JPG,AFNE25.JPG,AFSA23.JPG,,,,,0,7,7,4,,,,,,,,,,,,,,,,,,,AFNE16.jpg,AFNE05.jpg,AFSA18.jpg,AFSA15.jpg,AFNE05.jpg,FN,3,num_6,32,num_4,0.700130669167,,,2018_Apr_02_1302,60.0065822902,MAFE4ImagesEEG,001,203218,
AFSA21.JPG,AFNE22.JPG,AFNE21.JPG,AFSA23.JPG,AFSA22.JPG,AFNE23.JPG,,,,,0,8,8,0,,,,,,,,,,,,,,,,,,,AFSA19.jpg,AFSA14.jpg,AFNE05.jpg,AFNE09.jpg,AFNE05.jpg,FN,3,num_2,16,num_2,1.28341412754,,,2018_Apr_02_1302,60.0065822902,MAFE4ImagesEEG,001,203218,
AMSA21.JPG,AMNE23.JPG,AMNE21.JPG,AMSA25.JPG,AMNE25.JPG,AMSA23.JPG,,,,,0,9,9,5,,,,,,,,,,,,,,,,,,,AFNE14.jpg,AFSA19.jpg,AFNE09.jpg,AFSA01.jpg,AFSA19.jpg,FS,4,num_6,32,num_4,0.650146353291,,,2018_Apr_02_1302,60.0065822902,MAFE4ImagesEEG,001,203218,
AMNE23.JPG,AMNE24.JPG,AMNE22.JPG,AMSA24.JPG,AMSA22.JPG,AMSA23.JPG,,,,,,,,,0,0,0,9,,,,,,,,,,,,,,,AMNE05.jpg,AMNE04.jpg,AMSA04.jpg,AMSA06.jpg,AMSA04.jpg,MS,2,num_2,16,num_2,0.483398218872,,,2018_Apr_02_1302,60.0065822902,MAFE4ImagesEEG,001,203218,
AFSA21.JPG,AFNE22.JPG,AFNE21.JPG,AFSA23.JPG,AFSA22.JPG,AFNE23.JPG,,,,,,,,,0,1,1,0,,,,,,,,,,,,,,,AMNE14.jpg,AMSA07.jpg,AMNE03.jpg,AMSA06.jpg,AMSA07.jpg,MS,2,num_6,32,num_4,1.36676750705,,,2018_Apr_02_1302,60.0065822902,MAFE4ImagesEEG,001,203218,
AFNE22.JPG,AFSA24.JPG,AFSA22.JPG,AFNE25.JPG,AFNE24.JPG,AFSA25.JPG,,,,,,,,,0,2,2,6,,,,,,,,,,,,,,,AMSA15.jpg,AMNE08.jpg,AMSA11.jpg,AMNE16.jpg,AMSA11.jpg,MS,2,num_2,32,num_8,0.666840186575,,,2018_Apr_02_1302,60.0065822902,MAFE4ImagesEEG,001,203218,
AMSA21.JPG,AMNE23.JPG,AMNE21.JPG,AMSA25.JPG,AMNE25.JPG,AMSA23.JPG,,,,,,,,,0,3,3,5,,,,,,,,,,,,,,,AMNE19.jpg,AMNE13.jpg,AMSA13.jpg,AMSA07.jpg,AMSA07.jpg,MS,2,num_4,16,num_4,0.600190903991,,,2018_Apr_02_1302,60.0065822902,MAFE4ImagesEEG,001,203218,
AFNE23.JPG,AFNE24.JPG,AFNE22.JPG,AFSA24.JPG,AFSA22.JPG,AFSA23.JPG,,,,,,,,,0,4,4,8,,,,,,,,,,,,,,,AMNE17.jpg,AMSA17.jpg,AMSA02.jpg,AMNE19.jpg,AMSA17.jpg,MS,2,num_6,32,num_4,0.783495274605,,,2018_Apr_02_1302,60.0065822902,MAFE4ImagesEEG,001,203218,
AMSA25.JPG,AMNE24.JPG,AMSA24.JPG,AMNE26.JPG,AMSA21.JPG,AMNE25.JPG,,,,,,,,,0,5,5,3,,,,,,,,,,,,,,,AMNE13.jpg,AMSA04.jpg,AMSA07.jpg,AMNE09.jpg,AMNE13.jpg,MN,1,num_8,16,num_8,1.15011556237,,,2018_Apr_02_1302,60.0065822902,MAFE4ImagesEEG,001,203218,
AFSA21.JPG,AFNE23.JPG,AFNE21.JPG,AFSA25.JPG,AFNE25.JPG,AFSA23.JPG,,,,,,,,,0,6,6,4,,,,,,,,,,,,,,,AMSA19.jpg,AMNE09.jpg,AMNE14.jpg,AMSA07.jpg,AMNE14.jpg,MN,1,num_2,16,num_2,1.26681555377,,,2018_Apr_02_1302,60.0065822902,MAFE4ImagesEEG,001,203218,
AMNE22.JPG,AMSA24.JPG,AMSA22.JPG,AMNE25.JPG,AMNE24.JPG,AMSA25.JPG,,,,,,,,,0,7,7,7,,,,,,,,,,,,,,,AMNE13.jpg,AMNE02.jpg,AMSA02.jpg,AMSA04.jpg,AMNE13.jpg,MN,1,num_8,16,num_8,1.08347141149,,,2018_Apr_02_1302,60.0065822902,MAFE4ImagesEEG,001,203218,
AFSA25.JPG,AFNE24.JPG,AFSA24.JPG,AFNE21.JPG,AFSA21.JPG,AFNE25.JPG,,,,,,,,,0,8,8,2,,,,,,,,,,,,,,,AMSA17.jpg,AMNE15.jpg,AMNE07.jpg,AMSA19.jpg,AMNE15.jpg,MN,1,num_6,16,num_6,1.01678460243,,,2018_Apr_02_1302,60.0065822902,MAFE4ImagesEEG,001,203218,
AMSA21.JPG,AMNE22.JPG,AMNE21.JPG,AMSA23.JPG,AMSA22.JPG,AMNE23.JPG,,,,,,,,,0,9,9,1,,,,,,,,,,,,,,,AMSA12.jpg,AMNE07.jpg,AMSA20.jpg,AMNE09.jpg,AMNE07.jpg,MN,1,num_6,32,num_4,0.866499689873,,,2018_Apr_02_1302,60.0065822902,MAFE4ImagesEEG,001,203218,
AFSA21.JPG,AFNE23.JPG,AFNE21.JPG,AFSA25.JPG,AFNE25.JPG,AFSA23.JPG,,,,,,,,,,,,,0,0,0,4,,,,,,,,,,,AFSA12.jpg,AFNE10.jpg,AFSA10.jpg,AFNE11.jpg,AFNE10.jpg,FN,3,num_6,16,num_6,0.833469326724,,,2018_Apr_02_1302,60.0065822902,MAFE4ImagesEEG,001,203218,
AFNE23.JPG,AFNE24.JPG,AFNE22.JPG,AFSA24.JPG,AFSA22.JPG,AFSA23.JPG,,,,,,,,,,,,,0,1,1,8,,,,,,,,,,,AFSA09.jpg,AFNE14.jpg,AFNE20.jpg,AFSA19.jpg,AFSA19.jpg,FS,4,num_4,16,num_4,1.14990740258,,,2018_Apr_02_1302,60.0065822902,MAFE4ImagesEEG,001,203218,
AFSA25.JPG,AFNE24.JPG,AFSA24.JPG,AFNE21.JPG,AFSA21.JPG,AFNE25.JPG,,,,,,,,,,,,,0,2,2,2,,,,,,,,,,,AFNE20.jpg,AFSA03.jpg,AFNE18.jpg,AFSA20.jpg,AFNE18.jpg,FN,3,num_2,16,num_2,1.76693518949,,,2018_Apr_02_1302,60.0065822902,MAFE4ImagesEEG,001,203218,
AFNE22.JPG,AFSA24.JPG,AFSA22.JPG,AFNE25.JPG,AFNE24.JPG,AFSA25.JPG,,,,,,,,,,,,,0,3,3,6,,,,,,,,,,,AFNE05.jpg,AFSA14.jpg,AFSA12.jpg,AFNE06.jpg,AFNE05.jpg,FN,3,num_8,16,num_8,1.53347105882,,,2018_Apr_02_1302,60.0065822902,MAFE4ImagesEEG,001,203218,
AMNE22.JPG,AMSA24.JPG,AMSA22.JPG,AMNE25.JPG,AMNE24.JPG,AMSA25.JPG,,,,,,,,,,,,,0,4,4,7,,,,,,,,,,,AFSA15.jpg,AFNE05.jpg,AFNE09.jpg,AFSA13.jpg,AFSA15.jpg,FS,4,num_8,32,num_4,1.1334364831,,,2018_Apr_02_1302,60.0065822902,MAFE4ImagesEEG,001,203218,
AMNE23.JPG,AMNE24.JPG,AMNE22.JPG,AMSA24.JPG,AMSA22.JPG,AMSA23.JPG,,,,,,,,,,,,,0,5,5,9,,,,,,,,,,,AFNE11.jpg,AFSA20.jpg,AFSA08.jpg,AFNE20.jpg,AFSA20.jpg,FS,4,num_6,32,num_2,0.566804199596,,,2018_Apr_02_1302,60.0065822902,MAFE4ImagesEEG,001,203218,
AMSA25.JPG,AMNE24.JPG,AMSA24.JPG,AMNE26.JPG,AMSA21.JPG,AMNE25.JPG,,,,,,,,,,,,,0,6,6,3,,,,,,,,,,,AFNE07.jpg,AFNE02.jpg,AFSA14.jpg,AFSA19.jpg,AFNE07.jpg,FN,3,num_8,32,num_6,0.883489886066,,,2018_Apr_02_1302,60.0065822902,MAFE4ImagesEEG,001,203218,
AMSA21.JPG,AMNE23.JPG,AMNE21.JPG,AMSA25.JPG,AMNE25.JPG,AMSA23.JPG,,,,,,,,,,,,,0,7,7,5,,,,,,,,,,,AFSA17.jpg,AFSA15.jpg,AFNE19.jpg,AFNE06.jpg,AFSA15.jpg,FS,4,num_6,16,num_6,0.516823091195,,,2018_Apr_02_1302,60.0065822902,MAFE4ImagesEEG,001,203218,
AFSA21.JPG,AFNE22.JPG,AFNE21.JPG,AFSA23.JPG,AFSA22.JPG,AFNE23.JPG,,,,,,,,,,,,,0,8,8,0,,,,,,,,,,,AFSA18.jpg,AFNE12.jpg,AFSA06.jpg,AFNE04.jpg,AFSA18.jpg,FS,4,num_8,32,num_2,1.70009795378,,,2018_Apr_02_1302,60.0065822902,MAFE4ImagesEEG,001,203218,
AMSA21.JPG,AMNE22.JPG,AMNE21.JPG,AMSA23.JPG,AMSA22.JPG,AMNE23.JPG,,,,,,,,,,,,,0,9,9,1,,,,,,,,,,,AFNE01.jpg,AFSA01.jpg,AFSA19.jpg,AFNE19.jpg,AFNE19.jpg,FN,3,num_4,32,num_8,1.03341492941,,,2018_Apr_02_1302,60.0065822902,MAFE4ImagesEEG,001,203218,
AFSA21.JPG,AFNE22.JPG,AFNE21.JPG,AFSA23.JPG,AFSA22.JPG,AFNE23.JPG,,,,,,,,,,,,,,,,,0,0,0,0,,,,,,,AMSA16.jpg,AMNE19.jpg,AMNE09.jpg,AMSA01.jpg,AMSA01.jpg,MS,2,num_4,16,num_4,0.683584375889,,,2018_Apr_02_1302,60.0065822902,MAFE4ImagesEEG,001,203218,
AFNE22.JPG,AFSA24.JPG,AFSA22.JPG,AFNE25.JPG,AFNE24.JPG,AFSA25.JPG,,,,,,,,,,,,,,,,,0,1,1,6,,,,,,,AMSA17.jpg,AMSA02.jpg,AMNE06.jpg,AMNE15.jpg,AMSA02.jpg,MS,2,num_6,16,num_6,0.666807791917,,,2018_Apr_02_1302,60.0065822902,MAFE4ImagesEEG,001,203218,
AFSA25.JPG,AFNE24.JPG,AFSA24.JPG,AFNE21.JPG,AFSA21.JPG,AFNE25.JPG,,,,,,,,,,,,,,,,,0,2,2,2,,,,,,,AMNE09.jpg,AMSA02.jpg,AMNE06.jpg,AMSA01.jpg,AMSA01.jpg,MS,2,num_4,16,num_4,1.21678857971,,,2018_Apr_02_1302,60.0065822902,MAFE4ImagesEEG,001,203218,
AMSA21.JPG,AMNE23.JPG,AMNE21.JPG,AMSA25.JPG,AMNE25.JPG,AMSA23.JPG,,,,,,,,,,,,,,,,,0,3,3,5,,,,,,,AMNE13.jpg,AMSA03.jpg,AMNE09.jpg,AMSA19.jpg,AMSA19.jpg,MS,2,num_4,32,num_6,0.816872998141,,,2018_Apr_02_1302,60.0065822902,MAFE4ImagesEEG,001,203218,
AFSA21.JPG,AFNE23.JPG,AFNE21.JPG,AFSA25.JPG,AFNE25.JPG,AFSA23.JPG,,,,,,,,,,,,,,,,,0,4,4,4,,,,,,,AMSA14.jpg,AMNE11.jpg,AMSA02.jpg,AMNE07.jpg,AMNE07.jpg,MN,1,num_4,16,num_4,0.800173070864,,,2018_Apr_02_1302,60.0065822902,MAFE4ImagesEEG,001,203218,
AMSA25.JPG,AMNE24.JPG,AMSA24.JPG,AMNE26.JPG,AMSA21.JPG,AMNE25.JPG,,,,,,,,,,,,,,,,,0,5,5,3,,,,,,,AMSA11.jpg,AMNE15.jpg,AMNE12.jpg,AMSA08.jpg,AMSA08.jpg,MS,2,num_4,16,num_4,0.900130476686,,,2018_Apr_02_1302,60.0065822902,MAFE4ImagesEEG,001,203218,
AMSA21.JPG,AMNE22.JPG,AMNE21.JPG,AMSA23.JPG,AMSA22.JPG,AMNE23.JPG,,,,,,,,,,,,,,,,,0,6,6,1,,,,,,,AMSA07.jpg,AMNE20.jpg,AMSA01.jpg,AMNE10.jpg,AMNE10.jpg,MN,1,num_4,32,num_6,0.966810550308,,,2018_Apr_02_1302,60.0065822902,MAFE4ImagesEEG,001,203218,
AFNE23.JPG,AFNE24.JPG,AFNE22.JPG,AFSA24.JPG,AFSA22.JPG,AFSA23.JPG,,,,,,,,,,,,,,,,,0,7,7,8,,,,,,,AMSA01.jpg,AMSA10.jpg,AMNE02.jpg,AMNE15.jpg,AMSA01.jpg,MS,2,num_8,32,num_2,1.30013041256,,,2018_Apr_02_1302,60.0065822902,MAFE4ImagesEEG,001,203218,
AMNE22.JPG,AMSA24.JPG,AMSA22.JPG,AMNE25.JPG,AMNE24.JPG,AMSA25.JPG,,,,,,,,,,,,,,,,,0,8,8,7,,,,,,,AMNE15.jpg,AMSA04.jpg,AMNE11.jpg,AMSA19.jpg,AMNE11.jpg,MN,1,num_2,32,num_4,0.750163737452,,,2018_Apr_02_1302,60.0065822902,MAFE4ImagesEEG,001,203218,
AMNE23.JPG,AMNE24.JPG,AMNE22.JPG,AMSA24.JPG,AMSA22.JPG,AMSA23.JPG,,,,,,,,,,,,,,,,,0,9,9,9,,,,,,,AMSA05.jpg,AMNE19.jpg,AMSA02.jpg,AMNE08.jpg,AMSA05.jpg,MS,2,num_8,16,num_8,1.033492869,,,2018_Apr_02_1302,60.0065822902,MAFE4ImagesEEG,001,203218,
AFSA21.JPG,AFNE22.JPG,AFNE21.JPG,AFSA23.JPG,AFSA22.JPG,AFNE23.JPG,,,,,,,,,,,,,,,,,,,,,0,0,0,0,,,AFNE07.jpg,AFNE04.jpg,AFSA03.jpg,AFSA02.jpg,AFNE07.jpg,FN,3,num_8,16,num_8,0.800112451194,,,2018_Apr_02_1302,60.0065822902,MAFE4ImagesEEG,001,203218,
AMSA21.JPG,AMNE23.JPG,AMNE21.JPG,AMSA25.JPG,AMNE25.JPG,AMSA23.JPG,,,,,,,,,,,,,,,,,,,,,0,1,1,5,,,AFSA03.jpg,AFNE15.jpg,AFSA17.jpg,AFNE03.jpg,AFNE15.jpg,FN,3,num_6,16,num_6,0.966466397163,,,2018_Apr_02_1302,60.0065822902,MAFE4ImagesEEG,001,203218,
AFSA21.JPG,AFNE23.JPG,AFNE21.JPG,AFSA25.JPG,AFNE25.JPG,AFSA23.JPG,,,,,,,,,,,,,,,,,,,,,0,2,2,4,,,AFNE01.jpg,AFNE02.jpg,AFSA18.jpg,AFSA17.jpg,AFNE01.jpg,FN,3,num_8,32,num_4,0.383478981094,,,2018_Apr_02_1302,60.0065822902,MAFE4ImagesEEG,001,203218,
AMSA25.JPG,AMNE24.JPG,AMSA24.JPG,AMNE26.JPG,AMSA21.JPG,AMNE25.JPG,,,,,,,,,,,,,,,,,,,,,0,3,3,3,,,AFNE11.jpg,AFNE14.jpg,AFSA01.jpg,AFSA09.jpg,AFSA09.jpg,FS,4,num_4,32,num_8,0.550186702283,,,2018_Apr_02_1302,60.0065822902,MAFE4ImagesEEG,001,203218,
AFSA25.JPG,AFNE24.JPG,AFSA24.JPG,AFNE21.JPG,AFSA21.JPG,AFNE25.JPG,,,,,,,,,,,,,,,,,,,,,0,4,4,2,,,AFNE13.jpg,AFSA18.jpg,AFSA17.jpg,AFNE08.jpg,AFSA17.jpg,FS,4,num_2,32,num_6,0.733530844562,,,2018_Apr_02_1302,60.0065822902,MAFE4ImagesEEG,001,203218,
AFNE22.JPG,AFSA24.JPG,AFSA22.JPG,AFNE25.JPG,AFNE24.JPG,AFSA25.JPG,,,,,,,,,,,,,,,,,,,,,0,5,5,6,,,AFNE11.jpg,AFNE10.jpg,AFSA01.jpg,AFSA11.jpg,AFNE10.jpg,FN,3,num_6,32,num_4,0.333360596211,,,2018_Apr_02_1302,60.0065822902,MAFE4ImagesEEG,001,203218,
AMSA21.JPG,AMNE22.JPG,AMNE21.JPG,AMSA23.JPG,AMSA22.JPG,AMNE23.JPG,,,,,,,,,,,,,,,,,,,,,0,6,6,1,,,AFSA15.jpg,AFSA01.jpg,AFNE19.jpg,AFNE06.jpg,AFSA01.jpg,FS,4,num_6,16,num_6,0.566752560553,,,2018_Apr_02_1302,60.0065822902,MAFE4ImagesEEG,001,203218,
AMNE23.JPG,AMNE24.JPG,AMNE22.JPG,AMSA24.JPG,AMSA22.JPG,AMSA23.JPG,,,,,,,,,,,,,,,,,,,,,0,7,7,9,,,AFNE06.jpg,AFSA05.jpg,AFSA09.jpg,AFNE13.jpg,AFNE06.jpg,FN,3,num_8,32,num_2,0.633533987682,,,2018_Apr_02_1302,60.0065822902,MAFE4ImagesEEG,001,203218,
AFNE23.JPG,AFNE24.JPG,AFNE22.JPG,AFSA24.JPG,AFSA22.JPG,AFSA23.JPG,,,,,,,,,,,,,,,,,,,,,0,8,8,8,,,AFNE17.jpg,AFSA02.jpg,AFNE01.jpg,AFSA07.jpg,AFSA02.jpg,FS,4,num_6,32,num_4,0.433504030691,,,2018_Apr_02_1302,60.0065822902,MAFE4ImagesEEG,001,203218,
AMNE22.JPG,AMSA24.JPG,AMSA22.JPG,AMNE25.JPG,AMNE24.JPG,AMSA25.JPG,,,,,,,,,,,,,,,,,,,,,0,9,9,7,,,AFSA06.jpg,AFSA12.jpg,AFNE06.jpg,AFNE08.jpg,AFNE06.jpg,FN,3,num_2,32,num_8,0.550174834905,,,2018_Apr_02_1302,60.0065822902,MAFE4ImagesEEG,001,203218,
,,,,,,,,,,,,,,,,,,,,,,,,,,,,,,,,,,,,,,,,,,,space,3.54989707482,2018_Apr_02_1302,60.0065822902,MAFE4ImagesEEG,001,203218,
AFNE01.JPG,AFNE01.JPG,AFNE01.JPG,AFNE01.JPG,AFNE01.JPG,AFNE01.JPG,0,0,0,6,,,,,,,,,,,,,,,,,,,,,,,AMNE20.jpg,AMSA19.jpg,AMSA02.jpg,AMNE07.jpg,AMNE07.jpg,MN,1,num_4,32,num_2,0.366815297166,,,2018_Apr_02_1302,60.0065822902,MAFE4ImagesEEG,001,203218,
AFNE01.JPG,AFNE01.JPG,AFNE01.JPG,AFNE01.JPG,AFNE01.JPG,AFNE01.JPG,0,1,1,9,,,,,,,,,,,,,,,,,,,,,,,AMSA07.jpg,AMSA03.jpg,AMNE04.jpg,AMNE17.jpg,AMNE17.jpg,MN,1,num_4,32,num_6,0.383540242212,,,2018_Apr_02_1302,60.0065822902,MAFE4ImagesEEG,001,203218,
AFNE01.JPG,AFNE01.JPG,AFNE01.JPG,AFNE01.JPG,AFNE01.JPG,AFNE01.JPG,0,2,2,2,,,,,,,,,,,,,,,,,,,,,,,AMNE09.jpg,AMNE08.jpg,AMSA01.jpg,AMSA02.jpg,AMSA02.jpg,MS,2,num_4,16,num_4,0.816832264303,,,2018_Apr_02_1302,60.0065822902,MAFE4ImagesEEG,001,203218,
AFNE01.JPG,AFNE01.JPG,AFNE01.JPG,AFNE01.JPG,AFNE01.JPG,AFNE01.JPG,0,3,3,7,,,,,,,,,,,,,,,,,,,,,,,AMSA16.jpg,AMNE18.jpg,AMNE07.jpg,AMSA11.jpg,AMNE07.jpg,MN,1,num_2,32,num_6,0.283531518071,,,2018_Apr_02_1302,60.0065822902,MAFE4ImagesEEG,001,203218,
AFNE01.JPG,AFNE01.JPG,AFNE01.JPG,AFNE01.JPG,AFNE01.JPG,AFNE01.JPG,0,4,4,1,,,,,,,,,,,,,,,,,,,,,,,AMNE09.jpg,AMSA12.jpg,AMSA04.jpg,AMNE08.jpg,AMSA12.jpg,MS,2,num_6,32,num_2,0.683322652709,,,2018_Apr_02_1302,60.0065822902,MAFE4ImagesEEG,001,203218,
AFNE01.JPG,AFNE01.JPG,AFNE01.JPG,AFNE01.JPG,AFNE01.JPG,AFNE01.JPG,0,5,5,0,,,,,,,,,,,,,,,,,,,,,,,AMNE14.jpg,AMNE19.jpg,AMSA08.jpg,AMSA17.jpg,AMNE14.jpg,MN,1,num_8,16,num_8,0.600197318709,,,2018_Apr_02_1302,60.0065822902,MAFE4ImagesEEG,001,203218,
AFNE01.JPG,AFNE01.JPG,AFNE01.JPG,AFNE01.JPG,AFNE01.JPG,AFNE01.JPG,0,6,6,8,,,,,,,,,,,,,,,,,,,,,,,AMSA08.jpg,AMNE11.jpg,AMNE15.jpg,AMSA01.jpg,AMSA08.jpg,MS,2,num_8,32,num_4,0.516849391861,,,2018_Apr_02_1302,60.0065822902,MAFE4ImagesEEG,001,203218,
AFNE01.JPG,AFNE01.JPG,AFNE01.JPG,AFNE01.JPG,AFNE01.JPG,AFNE01.JPG,0,7,7,4,,,,,,,,,,,,,,,,,,,,,,,AMNE12.jpg,AMSA08.jpg,AMSA12.jpg,AMNE06.jpg,AMSA12.jpg,MS,2,num_2,16,num_2,1.03343994706,,,2018_Apr_02_1302,60.0065822902,MAFE4ImagesEEG,001,203218,
AFNE01.JPG,AFNE01.JPG,AFNE01.JPG,AFNE01.JPG,AFNE01.JPG,AFNE01.JPG,0,8,8,5,,,,,,,,,,,,,,,,,,,,,,,AMNE12.jpg,AMSA01.jpg,AMNE18.jpg,AMSA05.jpg,AMNE12.jpg,MN,1,num_8,16,num_8,1.25014032342,,,2018_Apr_02_1302,60.0065822902,MAFE4ImagesEEG,001,203218,
AFNE01.JPG,AFNE01.JPG,AFNE01.JPG,AFNE01.JPG,AFNE01.JPG,AFNE01.JPG,0,9,9,3,,,,,,,,,,,,,,,,,,,,,,,AMSA14.jpg,AMNE03.jpg,AMSA17.jpg,AMNE07.jpg,AMSA17.jpg,MS,2,num_2,16,num_2,1.30011405481,,,2018_Apr_02_1302,60.0065822902,MAFE4ImagesEEG,001,203218,
AFNE01.JPG,AFNE01.JPG,AFNE01.JPG,AFNE01.JPG,AFNE01.JPG,AFNE01.JPG,1,0,10,3,,,,,,,,,,,,,,,,,,,,,,,AMSA10.jpg,AMNE08.jpg,AMNE04.jpg,AMSA03.jpg,AMNE08.jpg,MN,1,num_6,16,num_6,0.983478724374,,,2018_Apr_02_1302,60.0065822902,MAFE4ImagesEEG,001,203218,
AFNE01.JPG,AFNE01.JPG,AFNE01.JPG,AFNE01.JPG,AFNE01.JPG,AFNE01.JPG,1,1,11,1,,,,,,,,,,,,,,,,,,,,,,,AMNE09.jpg,AMSA18.jpg,AMNE18.jpg,AMSA10.jpg,AMNE18.jpg,MN,1,num_2,16,num_2,1.73339453037,,,2018_Apr_02_1302,60.0065822902,MAFE4ImagesEEG,001,203218,
AFNE01.JPG,AFNE01.JPG,AFNE01.JPG,AFNE01.JPG,AFNE01.JPG,AFNE01.JPG,1,2,12,0,,,,,,,,,,,,,,,,,,,,,,,AMSA07.jpg,AMNE11.jpg,AMSA16.jpg,AMNE07.jpg,AMSA07.jpg,MS,2,num_8,32,num_2,0.883462944068,,,2018_Apr_02_1302,60.0065822902,MAFE4ImagesEEG,001,203218,
AFNE01.JPG,AFNE01.JPG,AFNE01.JPG,AFNE01.JPG,AFNE01.JPG,AFNE01.JPG,1,3,13,2,,,,,,,,,,,,,,,,,,,,,,,AMSA12.jpg,AMNE05.jpg,AMSA17.jpg,AMNE03.jpg,AMNE03.jpg,MN,1,num_4,32,num_6,0.750122041325,,,2018_Apr_02_1302,60.0065822902,MAFE4ImagesEEG,001,203218,
AFNE01.JPG,AFNE01.JPG,AFNE01.JPG,AFNE01.JPG,AFNE01.JPG,AFNE01.JPG,1,4,14,7,,,,,,,,,,,,,,,,,,,,,,,AMNE01.jpg,AMSA19.jpg,AMNE20.jpg,AMSA05.jpg,AMSA19.jpg,MS,2,num_6,16,num_6,1.2001078967,,,2018_Apr_02_1302,60.0065822902,MAFE4ImagesEEG,001,203218,
AFNE01.JPG,AFNE01.JPG,AFNE01.JPG,AFNE01.JPG,AFNE01.JPG,AFNE01.JPG,1,5,15,4,,,,,,,,,,,,,,,,,,,,,,,AMNE08.jpg,AMNE17.jpg,AMSA15.jpg,AMSA05.jpg,AMSA05.jpg,MS,2,num_4,16,num_4,0.983341768733,,,2018_Apr_02_1302,60.0065822902,MAFE4ImagesEEG,001,203218,
AFNE01.JPG,AFNE01.JPG,AFNE01.JPG,AFNE01.JPG,AFNE01.JPG,AFNE01.JPG,1,6,16,5,,,,,,,,,,,,,,,,,,,,,,,AMSA06.jpg,AMNE08.jpg,AMNE01.jpg,AMSA04.jpg,AMNE01.jpg,MN,1,num_2,16,num_2,1.43349954044,,,2018_Apr_02_1302,60.0065822902,MAFE4ImagesEEG,001,203218,
AFNE01.JPG,AFNE01.JPG,AFNE01.JPG,AFNE01.JPG,AFNE01.JPG,AFNE01.JPG,1,7,17,8,,,,,,,,,,,,,,,,,,,,,,,AMSA08.jpg,AMNE11.jpg,AMSA13.jpg,AMNE18.jpg,AMSA13.jpg,MS,2,num_2,32,num_8,0.666774435085,,,2018_Apr_02_1302,60.0065822902,MAFE4ImagesEEG,001,203218,
AFNE01.JPG,AFNE01.JPG,AFNE01.JPG,AFNE01.JPG,AFNE01.JPG,AFNE01.JPG,1,8,18,9,,,,,,,,,,,,,,,,,,,,,,,AMNE04.jpg,AMSA14.jpg,AMNE09.jpg,AMSA10.jpg,AMSA14.jpg,MS,2,num_6,32,num_4,0.500017640647,,,2018_Apr_02_1302,60.0065822902,MAFE4ImagesEEG,001,203218,
AFNE01.JPG,AFNE01.JPG,AFNE01.JPG,AFNE01.JPG,AFNE01.JPG,AFNE01.JPG,1,9,19,6,,,,,,,,,,,,,,,,,,,,,,,AMNE15.jpg,AMSA20.jpg,AMNE20.jpg,AMSA02.jpg,AMNE15.jpg,MN,1,num_8,32,num_2,1.11675515864,,,2018_Apr_02_1302,60.0065822902,MAFE4ImagesEEG,001,203218,
AFNE01.JPG,AFNE01.JPG,AFNE01.JPG,AFNE01.JPG,AFNE01.JPG,AFNE01.JPG,2,0,20,3,,,,,,,,,,,,,,,,,,,,,,,AMSA14.jpg,AMSA04.jpg,AMNE16.jpg,AMNE06.jpg,AMSA04.jpg,MS,2,num_6,16,num_6,0.616773120011,,,2018_Apr_02_1302,60.0065822902,MAFE4ImagesEEG,001,203218,
AFNE01.JPG,AFNE01.JPG,AFNE01.JPG,AFNE01.JPG,AFNE01.JPG,AFNE01.JPG,2,1,21,0,,,,,,,,,,,,,,,,,,,,,,,AMNE14.jpg,AMNE11.jpg,AMSA06.jpg,AMSA12.jpg,AMSA12.jpg,MS,2,num_4,16,num_4,0.650179389399,,,2018_Apr_02_1302,60.0065822902,MAFE4ImagesEEG,001,203218,
AFNE01.JPG,AFNE01.JPG,AFNE01.JPG,AFNE01.JPG,AFNE01.JPG,AFNE01.JPG,2,2,22,1,,,,,,,,,,,,,,,,,,,,,,,AMNE03.jpg,AMSA03.jpg,AMSA12.jpg,AMNE14.jpg,AMNE03.jpg,MN,1,num_8,32,num_2,1.70006267237,,,2018_Apr_02_1302,60.0065822902,MAFE4ImagesEEG,001,203218,
AFNE01.JPG,AFNE01.JPG,AFNE01.JPG,AFNE01.JPG,AFNE01.JPG,AFNE01.JPG,2,3,23,5,,,,,,,,,,,,,,,,,,,,,,,AMNE17.jpg,AMSA10.jpg,AMSA20.jpg,AMNE04.jpg,AMNE17.jpg,MN,1,num_8,32,num_2,0.650159503566,,,2018_Apr_02_1302,60.0065822902,MAFE4ImagesEEG,001,203218,
AFNE01.JPG,AFNE01.JPG,AFNE01.JPG,AFNE01.JPG,AFNE01.JPG,AFNE01.JPG,2,4,24,4,,,,,,,,,,,,,,,,,,,,,,,AMNE04.jpg,AMNE10.jpg,AMSA18.jpg,AMSA04.jpg,AMSA18.jpg,MS,2,num_2,16,num_2,1.60006741947,,,2018_Apr_02_1302,60.0065822902,MAFE4ImagesEEG,001,203218,
AFNE01.JPG,AFNE01.JPG,AFNE01.JPG,AFNE01.JPG,AFNE01.JPG,AFNE01.JPG,2,5,25,9,,,,,,,,,,,,,,,,,,,,,,,AMNE16.jpg,AMSA11.jpg,AMNE08.jpg,AMSA09.jpg,AMSA11.jpg,MS,2,num_6,16,num_6,1.01667202299,,,2018_Apr_02_1302,60.0065822902,MAFE4ImagesEEG,001,203218,
AFNE01.JPG,AFNE01.JPG,AFNE01.JPG,AFNE01.JPG,AFNE01.JPG,AFNE01.JPG,2,6,26,8,,,,,,,,,,,,,,,,,,,,,,,AMNE08.jpg,AMSA16.jpg,AMSA01.jpg,AMNE01.jpg,AMNE08.jpg,MN,1,num_8,32,num_2,2.13337490102,,,2018_Apr_02_1302,60.0065822902,MAFE4ImagesEEG,001,203218,
AFNE01.JPG,AFNE01.JPG,AFNE01.JPG,AFNE01.JPG,AFNE01.JPG,AFNE01.JPG,2,7,27,6,,,,,,,,,,,,,,,,,,,,,,,AMNE11.jpg,AMSA05.jpg,AMSA13.jpg,AMNE16.jpg,AMSA05.jpg,MS,2,num_6,32,num_4,2.33362360229,,,2018_Apr_02_1302,60.0065822902,MAFE4ImagesEEG,001,203218,
AFNE01.JPG,AFNE01.JPG,AFNE01.JPG,AFNE01.JPG,AFNE01.JPG,AFNE01.JPG,2,8,28,7,,,,,,,,,,,,,,,,,,,,,,,AMSA10.jpg,AMSA18.jpg,AMNE02.jpg,AMNE19.jpg,AMSA10.jpg,MS,2,num_8,32,num_4,1.30009865935,,,2018_Apr_02_1302,60.0065822902,MAFE4ImagesEEG,001,203218,
AFNE01.JPG,AFNE01.JPG,AFNE01.JPG,AFNE01.JPG,AFNE01.JPG,AFNE01.JPG,2,9,29,2,,,,,,,,,,,,,,,,,,,,,,,AMSA14.jpg,AMSA13.jpg,AMNE10.jpg,AMNE14.jpg,AMSA13.jpg,MS,2,num_6,32,num_4,0.816709421226,,,2018_Apr_02_1302,60.0065822902,MAFE4ImagesEEG,001,203218,
AFNE01.JPG,AFNE01.JPG,AFNE01.JPG,AFNE01.JPG,AFNE01.JPG,AFNE01.JPG,3,0,30,3,,,,,,,,,,,,,,,,,,,,,,,AMSA03.jpg,AMNE17.jpg,AMNE09.jpg,AMSA18.jpg,AMNE17.jpg,MN,1,num_6,32,num_8,1.05015142099,,,2018_Apr_02_1302,60.0065822902,MAFE4ImagesEEG,001,203218,
AFNE01.JPG,AFNE01.JPG,AFNE01.JPG,AFNE01.JPG,AFNE01.JPG,AFNE01.JPG,3,1,31,4,,,,,,,,,,,,,,,,,,,,,,,AMNE11.jpg,AMNE17.jpg,AMSA12.jpg,AMSA19.jpg,AMSA19.jpg,MS,2,num_4,32,num_6,0.96677719336,,,2018_Apr_02_1302,60.0065822902,MAFE4ImagesEEG,001,203218,
AFNE01.JPG,AFNE01.JPG,AFNE01.JPG,AFNE01.JPG,AFNE01.JPG,AFNE01.JPG,3,2,32,2,,,,,,,,,,,,,,,,,,,,,,,AMSA09.jpg,AMNE19.jpg,AMNE02.jpg,AMSA18.jpg,AMSA18.jpg,MS,2,num_4,16,num_4,1.53343994706,,,2018_Apr_02_1302,60.0065822902,MAFE4ImagesEEG,001,203218,
AFNE01.JPG,AFNE01.JPG,AFNE01.JPG,AFNE01.JPG,AFNE01.JPG,AFNE01.JPG,3,3,33,6,,,,,,,,,,,,,,,,,,,,,,,AMNE06.jpg,AMSA11.jpg,AMNE03.jpg,AMSA17.jpg,AMSA17.jpg,MS,2,num_4,32,num_8,0.398831482977,,,2018_Apr_02_1302,60.0065822902,MAFE4ImagesEEG,001,203218,
AFNE01.JPG,AFNE01.JPG,AFNE01.JPG,AFNE01.JPG,AFNE01.JPG,AFNE01.JPG,3,4,34,5,,,,,,,,,,,,,,,,,,,,,,,AMSA14.jpg,AMNE13.jpg,AMSA17.jpg,AMNE02.jpg,AMNE13.jpg,MN,1,num_6,16,num_6,0.816853112308,,,2018_Apr_02_1302,60.0065822902,MAFE4ImagesEEG,001,203218,
AFNE01.JPG,AFNE01.JPG,AFNE01.JPG,AFNE01.JPG,AFNE01.JPG,AFNE01.JPG,3,5,35,0,,,,,,,,,,,,,,,,,,,,,,,AMNE05.jpg,AMSA03.jpg,AMNE17.jpg,AMSA20.jpg,AMSA20.jpg,MS,2,num_4,32,num_6,0.73352378828,,,2018_Apr_02_1302,60.0065822902,MAFE4ImagesEEG,001,203218,
AFNE01.JPG,AFNE01.JPG,AFNE01.JPG,AFNE01.JPG,AFNE01.JPG,AFNE01.JPG,3,6,36,8,,,,,,,,,,,,,,,,,,,,,,,AMSA14.jpg,AMNE08.jpg,AMSA07.jpg,AMNE05.jpg,AMNE05.jpg,MN,1,num_4,32,num_2,1.93338311207,,,2018_Apr_02_1302,60.0065822902,MAFE4ImagesEEG,001,203218,
AFNE01.JPG,AFNE01.JPG,AFNE01.JPG,AFNE01.JPG,AFNE01.JPG,AFNE01.JPG,3,7,37,7,,,,,,,,,,,,,,,,,,,,,,,AMSA20.jpg,AMNE04.jpg,AMSA05.jpg,AMNE17.jpg,AMNE17.jpg,MN,1,num_4,16,num_4,0.850200365763,,,2018_Apr_02_1302,60.0065822902,MAFE4ImagesEEG,001,203218,
AFNE01.JPG,AFNE01.JPG,AFNE01.JPG,AFNE01.JPG,AFNE01.JPG,AFNE01.JPG,3,8,38,9,,,,,,,,,,,,,,,,,,,,,,,AMNE20.jpg,AMSA12.jpg,AMSA18.jpg,AMNE11.jpg,AMSA18.jpg,MS,2,num_2,16,num_2,0.966807663557,,,2018_Apr_02_1302,60.0065822902,MAFE4ImagesEEG,001,203218,
AFNE01.JPG,AFNE01.JPG,AFNE01.JPG,AFNE01.JPG,AFNE01.JPG,AFNE01.JPG,3,9,39,1,,,,,,,,,,,,,,,,,,,,,,,AMSA05.jpg,AMNE03.jpg,AMNE19.jpg,AMSA13.jpg,AMNE03.jpg,MN,1,num_6,32,num_4,1.45012088655,,,2018_Apr_02_1302,60.0065822902,MAFE4ImagesEEG,001,203218,
AFNE01.JPG,AFNE01.JPG,AFNE01.JPG,AFNE01.JPG,AFNE01.JPG,AFNE01.JPG,4,0,40,2,,,,,,,,,,,,,,,,,,,,,,,AMSA02.jpg,AMSA08.jpg,AMNE12.jpg,AMNE06.jpg,AMNE06.jpg,MN,1,num_4,32,num_2,0.816869470058,,,2018_Apr_02_1302,60.0065822902,MAFE4ImagesEEG,001,203218,
AFNE01.JPG,AFNE01.JPG,AFNE01.JPG,AFNE01.JPG,AFNE01.JPG,AFNE01.JPG,4,1,41,9,,,,,,,,,,,,,,,,,,,,,,,AMNE18.jpg,AMNE03.jpg,AMSA02.jpg,AMSA01.jpg,AMNE03.jpg,MN,1,num_6,32,num_8,1.10000936559,,,2018_Apr_02_1302,60.0065822902,MAFE4ImagesEEG,001,203218,
AFNE01.JPG,AFNE01.JPG,AFNE01.JPG,AFNE01.JPG,AFNE01.JPG,AFNE01.JPG,4,2,42,1,,,,,,,,,,,,,,,,,,,,,,,AMSA20.jpg,AMSA02.jpg,AMNE01.jpg,AMNE10.jpg,AMNE10.jpg,MN,1,num_4,16,num_4,1.1334438601,,,2018_Apr_02_1302,60.0065822902,MAFE4ImagesEEG,001,203218,
AFNE01.JPG,AFNE01.JPG,AFNE01.JPG,AFNE01.JPG,AFNE01.JPG,AFNE01.JPG,4,3,43,4,,,,,,,,,,,,,,,,,,,,,,,AMNE05.jpg,AMSA16.jpg,AMNE17.jpg,AMSA12.jpg,AMSA12.jpg,MS,2,num_4,16,num_4,0.833506211755,,,2018_Apr_02_1302,60.0065822902,MAFE4ImagesEEG,001,203218,
AFNE01.JPG,AFNE01.JPG,AFNE01.JPG,AFNE01.JPG,AFNE01.JPG,AFNE01.JPG,4,4,44,7,,,,,,,,,,,,,,,,,,,,,,,AMNE20.jpg,AMSA03.jpg,AMNE05.jpg,AMSA19.jpg,AMSA19.jpg,MS,2,num_4,32,num_6,1.26672286016,,,2018_Apr_02_1302,60.0065822902,MAFE4ImagesEEG,001,203218,
AFNE01.JPG,AFNE01.JPG,AFNE01.JPG,AFNE01.JPG,AFNE01.JPG,AFNE01.JPG,4,5,45,3,,,,,,,,,,,,,,,,,,,,,,,AMSA12.jpg,AMSA10.jpg,AMNE05.jpg,AMNE07.jpg,AMNE05.jpg,MN,1,num_2,32,num_4,0.933479333878,,,2018_Apr_02_1302,60.0065822902,MAFE4ImagesEEG,001,203218,
AFNE01.JPG,AFNE01.JPG,AFNE01.JPG,AFNE01.JPG,AFNE01.JPG,AFNE01.JPG,4,6,46,8,,,,,,,,,,,,,,,,,,,,,,,AMSA07.jpg,AMNE03.jpg,AMSA08.jpg,AMNE11.jpg,AMNE03.jpg,MN,1,num_6,32,num_2,1.03302106168,,,2018_Apr_02_1302,60.0065822902,MAFE4ImagesEEG,001,203218,
AFNE01.JPG,AFNE01.JPG,AFNE01.JPG,AFNE01.JPG,AFNE01.JPG,AFNE01.JPG,4,7,47,6,,,,,,,,,,,,,,,,,,,,,,,AMSA18.jpg,AMNE07.jpg,AMNE20.jpg,AMSA14.jpg,AMNE07.jpg,MN,1,num_6,16,num_6,1.01678652689,,,2018_Apr_02_1302,60.0065822902,MAFE4ImagesEEG,001,203218,
AFNE01.JPG,AFNE01.JPG,AFNE01.JPG,AFNE01.JPG,AFNE01.JPG,AFNE01.JPG,4,8,48,0,,,,,,,,,,,,,,,,,,,,,,,AMNE05.jpg,AMNE20.jpg,AMSA08.jpg,AMSA04.jpg,AMNE20.jpg,MN,1,num_6,32,num_8,0.916654638946,,,2018_Apr_02_1302,60.0065822902,MAFE4ImagesEEG,001,203218,
AFNE01.JPG,AFNE01.JPG,AFNE01.JPG,AFNE01.JPG,AFNE01.JPG,AFNE01.JPG,4,9,49,5,,,,,,,,,,,,,,,,,,,,,,,AMNE10.jpg,AMSA20.jpg,AMNE11.jpg,AMSA17.jpg,AMSA20.jpg,MS,2,num_6,16,num_6,0.63351795089,,,2018_Apr_02_1302,60.0065822902,MAFE4ImagesEEG,001,203218,
AFNE01.JPG,AFNE01.JPG,AFNE01.JPG,AFNE01.JPG,AFNE01.JPG,AFNE01.JPG,5,0,50,0,,,,,,,,,,,,,,,,,,,,,,,AMSA02.jpg,AMSA04.jpg,AMNE17.jpg,AMNE13.jpg,AMSA02.jpg,MS,2,num_8,32,num_6,1.0168169972,,,2018_Apr_02_1302,60.0065822902,MAFE4ImagesEEG,001,203218,
AFNE01.JPG,AFNE01.JPG,AFNE01.JPG,AFNE01.JPG,AFNE01.JPG,AFNE01.JPG,5,1,51,1,,,,,,,,,,,,,,,,,,,,,,,AMSA02.jpg,AMNE04.jpg,AMSA01.jpg,AMNE16.jpg,AMSA01.jpg,MS,2,num_2,16,num_2,0.816811095574,,,2018_Apr_02_1302,60.0065822902,MAFE4ImagesEEG,001,203218,
AFNE01.JPG,AFNE01.JPG,AFNE01.JPG,AFNE01.JPG,AFNE01.JPG,AFNE01.JPG,5,2,52,8,,,,,,,,,,,,,,,,,,,,,,,AMSA20.jpg,AMNE10.jpg,AMNE08.jpg,AMSA14.jpg,AMNE10.jpg,MN,1,num_6,16,num_6,1.06677244639,,,2018_Apr_02_1302,60.0065822902,MAFE4ImagesEEG,001,203218,
AFNE01.JPG,AFNE01.JPG,AFNE01.JPG,AFNE01.JPG,AFNE01.JPG,AFNE01.JPG,5,3,53,3,,,,,,,,,,,,,,,,,,,,,,,AMSA15.jpg,AMSA14.jpg,AMNE18.jpg,AMNE01.jpg,AMSA15.jpg,MS,2,num_8,32,num_2,1.06676859758,,,2018_Apr_02_1302,60.0065822902,MAFE4ImagesEEG,001,203218,
AFNE01.JPG,AFNE01.JPG,AFNE01.JPG,AFNE01.JPG,AFNE01.JPG,AFNE01.JPG,5,4,54,7,,,,,,,,,,,,,,,,,,,,,,,AMSA10.jpg,AMNE03.jpg,AMSA20.jpg,AMNE10.jpg,AMSA10.jpg,MS,2,num_8,32,num_2,0.866779695149,,,2018_Apr_02_1302,60.0065822902,MAFE4ImagesEEG,001,203218,
AFNE01.JPG,AFNE01.JPG,AFNE01.JPG,AFNE01.JPG,AFNE01.JPG,AFNE01.JPG,5,5,55,2,,,,,,,,,,,,,,,,,,,,,,,AMNE08.jpg,AMSA18.jpg,AMNE02.jpg,AMSA16.jpg,AMNE08.jpg,MN,1,num_8,32,num_2,0.950151036028,,,2018_Apr_02_1302,60.0065822902,MAFE4ImagesEEG,001,203218,
AFNE01.JPG,AFNE01.JPG,AFNE01.JPG,AFNE01.JPG,AFNE01.JPG,AFNE01.JPG,5,6,56,6,,,,,,,,,,,,,,,,,,,,,,,AMNE11.jpg,AMSA06.jpg,AMSA15.jpg,AMNE08.jpg,AMNE08.jpg,MN,1,num_4,16,num_4,0.91679512267,,,2018_Apr_02_1302,60.0065822902,MAFE4ImagesEEG,001,203218,
AFNE01.JPG,AFNE01.JPG,AFNE01.JPG,AFNE01.JPG,AFNE01.JPG,AFNE01.JPG,5,7,57,4,,,,,,,,,,,,,,,,,,,,,,,AMNE13.jpg,AMNE20.jpg,AMSA11.jpg,AMSA09.jpg,AMSA11.jpg,MS,2,num_2,16,num_2,0.866751149413,,,2018_Apr_02_1302,60.0065822902,MAFE4ImagesEEG,001,203218,
AFNE01.JPG,AFNE01.JPG,AFNE01.JPG,AFNE01.JPG,AFNE01.JPG,AFNE01.JPG,5,8,58,5,,,,,,,,,,,,,,,,,,,,,,,AMNE11.jpg,AMSA03.jpg,AMSA07.jpg,AMNE12.jpg,AMNE11.jpg,MN,1,num_8,16,num_8,1.0501456476,,,2018_Apr_02_1302,60.0065822902,MAFE4ImagesEEG,001,203218,
AFNE01.JPG,AFNE01.JPG,AFNE01.JPG,AFNE01.JPG,AFNE01.JPG,AFNE01.JPG,5,9,59,9,,,,,,,,,,,,,,,,,,,,,,,AMNE07.jpg,AMSA16.jpg,AMNE09.jpg,AMSA05.jpg,AMSA16.jpg,MS,2,num_6,32,num_4,0.983438632102,,,2018_Apr_02_1302,60.0065822902,MAFE4ImagesEEG,001,203218,
,,,,,,,,,,,,,,,,,,,,,,,,,,,,,,,,,,,,,,,,,,,space,2.01669864438,2018_Apr_02_1302,60.0065822902,MAFE4ImagesEEG,001,203218,
AFNE01.JPG,AFNE01.JPG,AFNE01.JPG,AFNE01.JPG,AFNE01.JPG,AFNE01.JPG,,,,,0,0,0,5,,,,,,,,,,,,,,,,,,,AFNE20.jpg,AFSA10.jpg,AFSA14.jpg,AFNE15.jpg,AFNE20.jpg,FN,3,num_8,16,num_8,1.20014414017,,,2018_Apr_02_1302,60.0065822902,MAFE4ImagesEEG,001,203218,
AFNE01.JPG,AFNE01.JPG,AFNE01.JPG,AFNE01.JPG,AFNE01.JPG,AFNE01.JPG,,,,,0,1,1,7,,,,,,,,,,,,,,,,,,,AFSA03.jpg,AFNE02.jpg,AFNE20.jpg,AFSA09.jpg,AFSA03.jpg,FS,4,num_8,16,num_8,0.600164603442,,,2018_Apr_02_1302,60.0065822902,MAFE4ImagesEEG,001,203218,
AFNE01.JPG,AFNE01.JPG,AFNE01.JPG,AFNE01.JPG,AFNE01.JPG,AFNE01.JPG,,,,,0,2,2,9,,,,,,,,,,,,,,,,,,,AFSA03.jpg,AFNE09.jpg,AFNE06.jpg,AFSA14.jpg,AFSA14.jpg,FS,4,num_4,16,num_4,1.31672064704,,,2018_Apr_02_1302,60.0065822902,MAFE4ImagesEEG,001,203218,
AFNE01.JPG,AFNE01.JPG,AFNE01.JPG,AFNE01.JPG,AFNE01.JPG,AFNE01.JPG,,,,,0,3,3,2,,,,,,,,,,,,,,,,,,,AFSA01.jpg,AFNE01.jpg,AFSA20.jpg,AFNE14.jpg,AFSA20.jpg,FS,4,num_2,16,num_2,0.650149881374,,,2018_Apr_02_1302,60.0065822902,MAFE4ImagesEEG,001,203218,
AFNE01.JPG,AFNE01.JPG,AFNE01.JPG,AFNE01.JPG,AFNE01.JPG,AFNE01.JPG,,,,,0,4,4,1,,,,,,,,,,,,,,,,,,,AFSA19.jpg,AFNE18.jpg,AFNE17.jpg,AFSA08.jpg,AFSA08.jpg,FS,4,num_4,16,num_4,0.633498385665,,,2018_Apr_02_1302,60.0065822902,MAFE4ImagesEEG,001,203218,
AFNE01.JPG,AFNE01.JPG,AFNE01.JPG,AFNE01.JPG,AFNE01.JPG,AFNE01.JPG,,,,,0,5,5,6,,,,,,,,,,,,,,,,,,,AFNE20.jpg,AFSA12.jpg,AFNE10.jpg,AFSA11.jpg,AFSA12.jpg,FS,4,num_6,16,num_6,0.566797464038,,,2018_Apr_02_1302,60.0065822902,MAFE4ImagesEEG,001,203218,
AFNE01.JPG,AFNE01.JPG,AFNE01.JPG,AFNE01.JPG,AFNE01.JPG,AFNE01.JPG,,,,,0,6,6,4,,,,,,,,,,,,,,,,,,,AFSA06.jpg,AFNE03.jpg,AFSA08.jpg,AFNE17.jpg,AFNE03.jpg,FN,3,num_6,32,num_4,1.06675223983,,,2018_Apr_02_1302,60.0065822902,MAFE4ImagesEEG,001,203218,
AFNE01.JPG,AFNE01.JPG,AFNE01.JPG,AFNE01.JPG,AFNE01.JPG,AFNE01.JPG,,,,,0,7,7,3,,,,,,,,,,,,,,,,,,,AFNE08.jpg,AFSA03.jpg,AFSA12.jpg,AFNE16.jpg,AFNE16.jpg,FN,3,num_4,16,num_4,0.966760194278,,,2018_Apr_02_1302,60.0065822902,MAFE4ImagesEEG,001,203218,
AFNE01.JPG,AFNE01.JPG,AFNE01.JPG,AFNE01.JPG,AFNE01.JPG,AFNE01.JPG,,,,,0,8,8,0,,,,,,,,,,,,,,,,,,,AFSA20.jpg,AFSA02.jpg,AFNE09.jpg,AFNE08.jpg,AFNE08.jpg,FN,3,num_4,32,num_8,1.04982490849,,,2018_Apr_02_1302,60.0065822902,MAFE4ImagesEEG,001,203218,
AFNE01.JPG,AFNE01.JPG,AFNE01.JPG,AFNE01.JPG,AFNE01.JPG,AFNE01.JPG,,,,,0,9,9,8,,,,,,,,,,,,,,,,,,,AFNE15.jpg,AFNE01.jpg,AFSA11.jpg,AFSA17.jpg,AFNE15.jpg,FN,3,num_8,32,num_6,1.03346688917,,,2018_Apr_02_1302,60.0065822902,MAFE4ImagesEEG,001,203218,
AFNE01.JPG,AFNE01.JPG,AFNE01.JPG,AFNE01.JPG,AFNE01.JPG,AFNE01.JPG,,,,,1,0,10,4,,,,,,,,,,,,,,,,,,,AFSA04.jpg,AFSA15.jpg,AFNE09.jpg,AFNE13.jpg,AFNE13.jpg,FN,3,num_4,16,num_4,0.883489244618,,,2018_Apr_02_1302,60.0065822902,MAFE4ImagesEEG,001,203218,
AFNE01.JPG,AFNE01.JPG,AFNE01.JPG,AFNE01.JPG,AFNE01.JPG,AFNE01.JPG,,,,,1,1,11,3,,,,,,,,,,,,,,,,,,,AFSA06.jpg,AFSA12.jpg,AFNE20.jpg,AFNE19.jpg,AFNE19.jpg,FN,3,num_4,16,num_4,0.566788162687,,,2018_Apr_02_1302,60.0065822902,MAFE4ImagesEEG,001,203218,
AFNE01.JPG,AFNE01.JPG,AFNE01.JPG,AFNE01.JPG,AFNE01.JPG,AFNE01.JPG,,,,,1,2,12,9,,,,,,,,,,,,,,,,,,,AFSA13.jpg,AFSA02.jpg,AFNE14.jpg,AFNE08.jpg,AFNE14.jpg,FN,3,num_2,32,num_4,0.633488442749,,,2018_Apr_02_1302,60.0065822902,MAFE4ImagesEEG,001,203218,
AFNE01.JPG,AFNE01.JPG,AFNE01.JPG,AFNE01.JPG,AFNE01.JPG,AFNE01.JPG,,,,,1,3,13,6,,,,,,,,,,,,,,,,,,,AFNE03.jpg,AFSA10.jpg,AFSA18.jpg,AFNE06.jpg,AFSA10.jpg,FS,4,num_6,32,num_2,1.03342198557,,,2018_Apr_02_1302,60.0065822902,MAFE4ImagesEEG,001,203218,
AFNE01.JPG,AFNE01.JPG,AFNE01.JPG,AFNE01.JPG,AFNE01.JPG,AFNE01.JPG,,,,,1,4,14,1,,,,,,,,,,,,,,,,,,,AFNE18.jpg,AFSA13.jpg,AFNE16.jpg,AFSA15.jpg,AFSA15.jpg,FS,4,num_4,16,num_4,0.666830885108,,,2018_Apr_02_1302,60.0065822902,MAFE4ImagesEEG,001,203218,
AFNE01.JPG,AFNE01.JPG,AFNE01.JPG,AFNE01.JPG,AFNE01.JPG,AFNE01.JPG,,,,,1,5,15,8,,,,,,,,,,,,,,,,,,,AFSA04.jpg,AFSA11.jpg,AFNE04.jpg,AFNE18.jpg,AFNE04.jpg,FN,3,num_2,32,num_4,1.050158798,,,2018_Apr_02_1302,60.0065822902,MAFE4ImagesEEG,001,203218,
AFNE01.JPG,AFNE01.JPG,AFNE01.JPG,AFNE01.JPG,AFNE01.JPG,AFNE01.JPG,,,,,1,6,16,7,,,,,,,,,,,,,,,,,,,AFSA16.jpg,AFNE18.jpg,AFSA02.jpg,AFNE14.jpg,AFNE18.jpg,FN,3,num_6,32,num_4,0.933441165835,,,2018_Apr_02_1302,60.0065822902,MAFE4ImagesEEG,001,203218,
AFNE01.JPG,AFNE01.JPG,AFNE01.JPG,AFNE01.JPG,AFNE01.JPG,AFNE01.JPG,,,,,1,7,17,5,,,,,,,,,,,,,,,,,,,AFSA06.jpg,AFSA12.jpg,AFNE04.jpg,AFNE18.jpg,AFNE18.jpg,FN,3,num_4,16,num_4,0.833485042909,,,2018_Apr_02_1302,60.0065822902,MAFE4ImagesEEG,001,203218,
AFNE01.JPG,AFNE01.JPG,AFNE01.JPG,AFNE01.JPG,AFNE01.JPG,AFNE01.JPG,,,,,1,8,18,0,,,,,,,,,,,,,,,,,,,AFNE05.jpg,AFSA07.jpg,AFSA10.jpg,AFNE06.jpg,AFSA10.jpg,FS,4,num_2,16,num_2,0.883470641682,,,2018_Apr_02_1302,60.0065822902,MAFE4ImagesEEG,001,203218,
AFNE01.JPG,AFNE01.JPG,AFNE01.JPG,AFNE01.JPG,AFNE01.JPG,AFNE01.JPG,,,,,1,9,19,2,,,,,,,,,,,,,,,,,,,AFSA02.jpg,AFSA03.jpg,AFNE08.jpg,AFNE05.jpg,AFNE08.jpg,FN,3,num_2,32,num_4,1.01673520869,,,2018_Apr_02_1302,60.0065822902,MAFE4ImagesEEG,001,203218,
AFNE01.JPG,AFNE01.JPG,AFNE01.JPG,AFNE01.JPG,AFNE01.JPG,AFNE01.JPG,,,,,2,0,20,0,,,,,,,,,,,,,,,,,,,AFSA04.jpg,AFNE11.jpg,AFNE01.jpg,AFSA17.jpg,AFNE11.jpg,FN,3,num_6,32,num_2,1.66673498414,,,2018_Apr_02_1302,60.0065822902,MAFE4ImagesEEG,001,203218,
AFNE01.JPG,AFNE01.JPG,AFNE01.JPG,AFNE01.JPG,AFNE01.JPG,AFNE01.JPG,,,,,2,1,21,9,,,,,,,,,,,,,,,,,,,AFNE14.jpg,AFSA07.jpg,AFNE10.jpg,AFSA13.jpg,AFSA07.jpg,FS,4,num_6,16,num_6,0.933469390846,,,2018_Apr_02_1302,60.0065822902,MAFE4ImagesEEG,001,203218,
AFNE01.JPG,AFNE01.JPG,AFNE01.JPG,AFNE01.JPG,AFNE01.JPG,AFNE01.JPG,,,,,2,2,22,8,,,,,,,,,,,,,,,,,,,AFNE15.jpg,AFSA12.jpg,AFSA01.jpg,AFNE17.jpg,AFNE17.jpg,FN,3,num_4,16,num_4,0.966810870916,,,2018_Apr_02_1302,60.0065822902,MAFE4ImagesEEG,001,203218,
AFNE01.JPG,AFNE01.JPG,AFNE01.JPG,AFNE01.JPG,AFNE01.JPG,AFNE01.JPG,,,,,2,3,23,3,,,,,,,,,,,,,,,,,,,AFSA05.jpg,AFSA18.jpg,AFNE11.jpg,AFNE19.jpg,AFNE19.jpg,FN,3,num_4,16,num_4,1.1001569056,,,2018_Apr_02_1302,60.0065822902,MAFE4ImagesEEG,001,203218,
AFNE01.JPG,AFNE01.JPG,AFNE01.JPG,AFNE01.JPG,AFNE01.JPG,AFNE01.JPG,,,,,2,4,24,7,,,,,,,,,,,,,,,,,,,AFNE14.jpg,AFSA11.jpg,AFSA03.jpg,AFNE11.jpg,AFSA03.jpg,FS,4,num_2,16,num_2,1.41673482372,,,2018_Apr_02_1302,60.0065822902,MAFE4ImagesEEG,001,203218,
AFNE01.JPG,AFNE01.JPG,AFNE01.JPG,AFNE01.JPG,AFNE01.JPG,AFNE01.JPG,,,,,2,5,25,2,,,,,,,,,,,,,,,,,,,AFNE01.jpg,AFSA10.jpg,AFSA14.jpg,AFNE14.jpg,AFSA14.jpg,FS,4,num_2,32,num_4,1.1334207668,,,2018_Apr_02_1302,60.0065822902,MAFE4ImagesEEG,001,203218,
AFNE01.JPG,AFNE01.JPG,AFNE01.JPG,AFNE01.JPG,AFNE01.JPG,AFNE01.JPG,,,,,2,6,26,5,,,,,,,,,,,,,,,,,,,AFSA05.jpg,AFNE02.jpg,AFSA19.jpg,AFNE18.jpg,AFNE02.jpg,FN,3,num_6,32,num_4,1.0167634337,,,2018_Apr_02_1302,60.0065822902,MAFE4ImagesEEG,001,203218,
AFNE01.JPG,AFNE01.JPG,AFNE01.JPG,AFNE01.JPG,AFNE01.JPG,AFNE01.JPG,,,,,2,7,27,4,,,,,,,,,,,,,,,,,,,AFNE12.jpg,AFNE11.jpg,AFSA06.jpg,AFSA17.jpg,AFNE12.jpg,FN,3,num_8,32,num_6,1.21675971313,,,2018_Apr_02_1302,60.0065822902,MAFE4ImagesEEG,001,203218,
AFNE01.JPG,AFNE01.JPG,AFNE01.JPG,AFNE01.JPG,AFNE01.JPG,AFNE01.JPG,,,,,2,8,28,1,,,,,,,,,,,,,,,,,,,AFNE05.jpg,AFNE20.jpg,AFSA03.jpg,AFSA01.jpg,AFSA03.jpg,FS,4,num_2,32,num_4,0.950150715304,,,2018_Apr_02_1302,60.0065822902,MAFE4ImagesEEG,001,203218,
AFNE01.JPG,AFNE01.JPG,AFNE01.JPG,AFNE01.JPG,AFNE01.JPG,AFNE01.JPG,,,,,2,9,29,6,,,,,,,,,,,,,,,,,,,AFNE09.jpg,AFNE20.jpg,AFSA04.jpg,AFSA12.jpg,AFNE09.jpg,FN,3,num_8,16,num_8,1.98345851782,,,2018_Apr_02_1302,60.0065822902,MAFE4ImagesEEG,001,203218,
AFNE01.JPG,AFNE01.JPG,AFNE01.JPG,AFNE01.JPG,AFNE01.JPG,AFNE01.JPG,,,,,3,0,30,0,,,,,,,,,,,,,,,,,,,AFSA10.jpg,AFSA04.jpg,AFNE10.jpg,AFNE05.jpg,AFNE05.jpg,FN,3,num_4,16,num_4,1.34978917812,,,2018_Apr_02_1302,60.0065822902,MAFE4ImagesEEG,001,203218,
AFNE01.JPG,AFNE01.JPG,AFNE01.JPG,AFNE01.JPG,AFNE01.JPG,AFNE01.JPG,,,,,3,1,31,7,,,,,,,,,,,,,,,,,,,AFSA14.jpg,AFNE01.jpg,AFNE12.jpg,AFSA04.jpg,AFSA14.jpg,FS,4,num_8,32,num_4,0.616848814418,,,2018_Apr_02_1302,60.0065822902,MAFE4ImagesEEG,001,203218,
AFNE01.JPG,AFNE01.JPG,AFNE01.JPG,AFNE01.JPG,AFNE01.JPG,AFNE01.JPG,,,,,3,2,32,6,,,,,,,,,,,,,,,,,,,AFNE02.jpg,AFNE16.jpg,AFSA04.jpg,AFSA16.jpg,AFSA04.jpg,FS,4,num_2,16,num_2,0.850095484057,,,2018_Apr_02_1302,60.0065822902,MAFE4ImagesEEG,001,203218,
AFNE01.JPG,AFNE01.JPG,AFNE01.JPG,AFNE01.JPG,AFNE01.JPG,AFNE01.JPG,,,,,3,3,33,2,,,,,,,,,,,,,,,,,,,AFNE02.jpg,AFNE14.jpg,AFSA20.jpg,AFSA09.jpg,AFSA20.jpg,FS,4,num_2,32,num_4,0.700176214101,,,2018_Apr_02_1302,60.0065822902,MAFE4ImagesEEG,001,203218,
AFNE01.JPG,AFNE01.JPG,AFNE01.JPG,AFNE01.JPG,AFNE01.JPG,AFNE01.JPG,,,,,3,4,34,1,,,,,,,,,,,,,,,,,,,AFNE11.jpg,AFSA19.jpg,AFSA15.jpg,AFNE08.jpg,AFSA15.jpg,FS,4,num_2,32,num_6,0.750137436786,,,2018_Apr_02_1302,60.0065822902,MAFE4ImagesEEG,001,203218,
AFNE01.JPG,AFNE01.JPG,AFNE01.JPG,AFNE01.JPG,AFNE01.JPG,AFNE01.JPG,,,,,3,5,35,9,,,,,,,,,,,,,,,,,,,AFNE20.jpg,AFNE15.jpg,AFSA07.jpg,AFSA10.jpg,AFNE15.jpg,FN,3,num_6,32,num_8,1.18337653694,,,2018_Apr_02_1302,60.0065822902,MAFE4ImagesEEG,001,203218,
AFNE01.JPG,AFNE01.JPG,AFNE01.JPG,AFNE01.JPG,AFNE01.JPG,AFNE01.JPG,,,,,3,6,36,8,,,,,,,,,,,,,,,,,,,AFNE19.jpg,AFNE03.jpg,AFSA20.jpg,AFSA10.jpg,AFNE03.jpg,FN,3,num_6,16,num_6,0.983482573298,,,2018_Apr_02_1302,60.0065822902,MAFE4ImagesEEG,001,203218,
AFNE01.JPG,AFNE01.JPG,AFNE01.JPG,AFNE01.JPG,AFNE01.JPG,AFNE01.JPG,,,,,3,7,37,3,,,,,,,,,,,,,,,,,,,AFNE14.jpg,AFSA11.jpg,AFNE16.jpg,AFSA01.jpg,AFNE14.jpg,FN,3,num_8,32,num_2,0.916798009304,,,2018_Apr_02_1302,60.0065822902,MAFE4ImagesEEG,001,203218,
AFNE01.JPG,AFNE01.JPG,AFNE01.JPG,AFNE01.JPG,AFNE01.JPG,AFNE01.JPG,,,,,3,8,38,4,,,,,,,,,,,,,,,,,,,AFSA15.jpg,AFNE03.jpg,AFSA12.jpg,AFNE11.jpg,AFSA15.jpg,FS,4,num_8,32,num_2,0.783464804408,,,2018_Apr_02_1302,60.0065822902,MAFE4ImagesEEG,001,203218,
AFNE01.JPG,AFNE01.JPG,AFNE01.JPG,AFNE01.JPG,AFNE01.JPG,AFNE01.JPG,,,,,3,9,39,5,,,,,,,,,,,,,,,,,,,AFNE03.jpg,AFNE15.jpg,AFSA04.jpg,AFSA19.jpg,AFNE03.jpg,FN,3,num_8,16,num_8,0.983462687465,,,2018_Apr_02_1302,60.0065822902,MAFE4ImagesEEG,001,203218,
AFNE01.JPG,AFNE01.JPG,AFNE01.JPG,AFNE01.JPG,AFNE01.JPG,AFNE01.JPG,,,,,4,0,40,2,,,,,,,,,,,,,,,,,,,AFSA19.jpg,AFNE07.jpg,AFSA08.jpg,AFNE02.jpg,AFNE07.jpg,FN,3,num_6,16,num_6,1.01676118851,,,2018_Apr_02_1302,60.0065822902,MAFE4ImagesEEG,001,203218,
AFNE01.JPG,AFNE01.JPG,AFNE01.JPG,AFNE01.JPG,AFNE01.JPG,AFNE01.JPG,,,,,4,1,41,0,,,,,,,,,,,,,,,,,,,AFNE09.jpg,AFNE07.jpg,AFSA01.jpg,AFSA14.jpg,AFSA01.jpg,FS,4,num_2,16,num_2,1.18302019569,,,2018_Apr_02_1302,60.0065822902,MAFE4ImagesEEG,001,203218,
AFNE01.JPG,AFNE01.JPG,AFNE01.JPG,AFNE01.JPG,AFNE01.JPG,AFNE01.JPG,,,,,4,2,42,4,,,,,,,,,,,,,,,,,,,AFNE11.jpg,AFSA09.jpg,AFSA17.jpg,AFNE17.jpg,AFSA09.jpg,FS,4,num_6,16,num_6,0.783457427286,,,2018_Apr_02_1302,60.0065822902,MAFE4ImagesEEG,001,203218,
AFNE01.JPG,AFNE01.JPG,AFNE01.JPG,AFNE01.JPG,AFNE01.JPG,AFNE01.JPG,,,,,4,3,43,6,,,,,,,,,,,,,,,,,,,AFNE16.jpg,AFSA01.jpg,AFSA16.jpg,AFNE04.jpg,AFNE16.jpg,FN,3,num_8,32,num_4,0.866808241,,,2018_Apr_02_1302,60.0065822902,MAFE4ImagesEEG,001,203218,
AFNE01.JPG,AFNE01.JPG,AFNE01.JPG,AFNE01.JPG,AFNE01.JPG,AFNE01.JPG,,,,,4,4,44,3,,,,,,,,,,,,,,,,,,,AFSA12.jpg,AFSA15.jpg,AFNE03.jpg,AFNE18.jpg,AFNE03.jpg,FN,3,num_2,32,num_4,1.36698560975,,,2018_Apr_02_1302,60.0065822902,MAFE4ImagesEEG,001,203218,
AFNE01.JPG,AFNE01.JPG,AFNE01.JPG,AFNE01.JPG,AFNE01.JPG,AFNE01.JPG,,,,,4,5,45,5,,,,,,,,,,,,,,,,,,,AFSA14.jpg,AFNE18.jpg,AFNE16.jpg,AFSA18.jpg,AFSA18.jpg,FS,4,num_4,16,num_4,0.650109788985,,,2018_Apr_02_1302,60.0065822902,MAFE4ImagesEEG,001,203218,
AFNE01.JPG,AFNE01.JPG,AFNE01.JPG,AFNE01.JPG,AFNE01.JPG,AFNE01.JPG,,,,,4,6,46,7,,,,,,,,,,,,,,,,,,,AFNE01.jpg,AFNE11.jpg,AFSA15.jpg,AFSA11.jpg,AFSA11.jpg,FS,4,num_4,16,num_4,0.700130027719,,,2018_Apr_02_1302,60.0065822902,MAFE4ImagesEEG,001,203218,
AFNE01.JPG,AFNE01.JPG,AFNE01.JPG,AFNE01.JPG,AFNE01.JPG,AFNE01.JPG,,,,,4,7,47,1,,,,,,,,,,,,,,,,,,,AFSA16.jpg,AFSA03.jpg,AFNE16.jpg,AFNE12.jpg,AFNE12.jpg,FN,3,num_4,16,num_4,0.866788355168,,,2018_Apr_02_1302,60.0065822902,MAFE4ImagesEEG,001,203218,
AFNE01.JPG,AFNE01.JPG,AFNE01.JPG,AFNE01.JPG,AFNE01.JPG,AFNE01.JPG,,,,,4,8,48,8,,,,,,,,,,,,,,,,,,,AFSA01.jpg,AFNE01.jpg,AFNE03.jpg,AFSA02.jpg,AFSA02.jpg,FS,4,num_4,32,num_8,0.78343401337,,,2018_Apr_02_1302,60.0065822902,MAFE4ImagesEEG,001,203218,
AFNE01.JPG,AFNE01.JPG,AFNE01.JPG,AFNE01.JPG,AFNE01.JPG,AFNE01.JPG,,,,,4,9,49,9,,,,,,,,,,,,,,,,,,,AFNE09.jpg,AFSA12.jpg,AFNE18.jpg,AFSA10.jpg,AFSA10.jpg,FS,4,num_4,16,num_4,0.633579211892,,,2018_Apr_02_1302,60.0065822902,MAFE4ImagesEEG,001,203218,
AFNE01.JPG,AFNE01.JPG,AFNE01.JPG,AFNE01.JPG,AFNE01.JPG,AFNE01.JPG,,,,,5,0,50,8,,,,,,,,,,,,,,,,,,,AFNE06.jpg,AFNE05.jpg,AFSA12.jpg,AFSA14.jpg,AFNE06.jpg,FN,3,num_8,16,num_8,1.41661679163,,,2018_Apr_02_1302,60.0065822902,MAFE4ImagesEEG,001,203218,
AFNE01.JPG,AFNE01.JPG,AFNE01.JPG,AFNE01.JPG,AFNE01.JPG,AFNE01.JPG,,,,,5,1,51,5,,,,,,,,,,,,,,,,,,,AFSA11.jpg,AFSA09.jpg,AFNE07.jpg,AFNE02.jpg,AFNE02.jpg,FN,3,num_4,32,num_6,2.19998409133,,,2018_Apr_02_1302,60.0065822902,MAFE4ImagesEEG,001,203218,
AFNE01.JPG,AFNE01.JPG,AFNE01.JPG,AFNE01.JPG,AFNE01.JPG,AFNE01.JPG,,,,,5,2,52,6,,,,,,,,,,,,,,,,,,,AFSA03.jpg,AFNE14.jpg,AFNE05.jpg,AFSA16.jpg,AFSA03.jpg,FS,4,num_8,16,num_8,1.64971977018,,,2018_Apr_02_1302,60.0065822902,MAFE4ImagesEEG,001,203218,
AFNE01.JPG,AFNE01.JPG,AFNE01.JPG,AFNE01.JPG,AFNE01.JPG,AFNE01.JPG,,,,,5,3,53,3,,,,,,,,,,,,,,,,,,,AFNE05.jpg,AFNE16.jpg,AFSA07.jpg,AFSA06.jpg,AFNE16.jpg,FN,3,num_6,32,num_2,0.683472758625,,,2018_Apr_02_1302,60.0065822902,MAFE4ImagesEEG,001,203218,
AFNE01.JPG,AFNE01.JPG,AFNE01.JPG,AFNE01.JPG,AFNE01.JPG,AFNE01.JPG,,,,,5,4,54,0,,,,,,,,,,,,,,,,,,,AFNE10.jpg,AFSA01.jpg,AFNE05.jpg,AFSA15.jpg,AFSA15.jpg,FS,4,num_4,16,num_4,0.866917933803,,,2018_Apr_02_1302,60.0065822902,MAFE4ImagesEEG,001,203218,
AFNE01.JPG,AFNE01.JPG,AFNE01.JPG,AFNE01.JPG,AFNE01.JPG,AFNE01.JPG,,,,,5,5,55,4,,,,,,,,,,,,,,,,,,,AFSA08.jpg,AFNE10.jpg,AFNE15.jpg,AFSA01.jpg,AFSA08.jpg,FS,4,num_8,32,num_4,0.850197799853,,,2018_Apr_02_1302,60.0065822902,MAFE4ImagesEEG,001,203218,
AFNE01.JPG,AFNE01.JPG,AFNE01.JPG,AFNE01.JPG,AFNE01.JPG,AFNE01.JPG,,,,,5,6,56,2,,,,,,,,,,,,,,,,,,,AFSA12.jpg,AFNE18.jpg,AFSA20.jpg,AFNE13.jpg,AFSA20.jpg,FS,4,num_2,16,num_2,0.783483407227,,,2018_Apr_02_1302,60.0065822902,MAFE4ImagesEEG,001,203218,
AFNE01.JPG,AFNE01.JPG,AFNE01.JPG,AFNE01.JPG,AFNE01.JPG,AFNE01.JPG,,,,,5,7,57,9,,,,,,,,,,,,,,,,,,,AFSA11.jpg,AFNE01.jpg,AFSA01.jpg,AFNE02.jpg,AFSA11.jpg,FS,4,num_8,32,num_4,1.03345630469,,,2018_Apr_02_1302,60.0065822902,MAFE4ImagesEEG,001,203218,
AFNE01.JPG,AFNE01.JPG,AFNE01.JPG,AFNE01.JPG,AFNE01.JPG,AFNE01.JPG,,,,,5,8,58,7,,,,,,,,,,,,,,,,,,,AFNE08.jpg,AFNE18.jpg,AFSA20.jpg,AFSA12.jpg,AFNE18.jpg,FN,3,num_6,32,num_4,1.18344581663,,,2018_Apr_02_1302,60.0065822902,MAFE4ImagesEEG,001,203218,
AFNE01.JPG,AFNE01.JPG,AFNE01.JPG,AFNE01.JPG,AFNE01.JPG,AFNE01.JPG,,,,,5,9,59,1,,,,,,,,,,,,,,,,,,,AFSA03.jpg,AFNE18.jpg,AFNE17.jpg,AFSA07.jpg,AFNE17.jpg,FN,3,num_2,32,num_8,0.633495499147,,,2018_Apr_02_1302,60.0065822902,MAFE4ImagesEEG,001,203218,
,,,,,,,,,,,,,,,,,,,,,,,,,,,,,,,,,,,,,,,,,,,space,1.7832297025,2018_Apr_02_1302,60.0065822902,MAFE4ImagesEEG,001,203218,
AFNE01.JPG,AFNE01.JPG,AFNE01.JPG,AFNE01.JPG,AFNE01.JPG,AFNE01.JPG,,,,,,,,,0,0,0,2,,,,,,,,,,,,,,,AMSA15.jpg,AMNE13.jpg,AMSA11.jpg,AMNE10.jpg,AMNE13.jpg,MN,1,num_6,32,num_2,0.733553296188,,,2018_Apr_02_1302,60.0065822902,MAFE4ImagesEEG,001,203218,
AFNE01.JPG,AFNE01.JPG,AFNE01.JPG,AFNE01.JPG,AFNE01.JPG,AFNE01.JPG,,,,,,,,,0,1,1,8,,,,,,,,,,,,,,,AMNE01.jpg,AMSA20.jpg,AMNE18.jpg,AMSA11.jpg,AMSA20.jpg,MS,2,num_6,16,num_6,0.53351339628,,,2018_Apr_02_1302,60.0065822902,MAFE4ImagesEEG,001,203218,
AFNE01.JPG,AFNE01.JPG,AFNE01.JPG,AFNE01.JPG,AFNE01.JPG,AFNE01.JPG,,,,,,,,,0,2,2,1,,,,,,,,,,,,,,,AMNE18.jpg,AMNE19.jpg,AMSA04.jpg,AMSA11.jpg,AMNE18.jpg,MN,1,num_8,16,num_8,0.950124735478,,,2018_Apr_02_1302,60.0065822902,MAFE4ImagesEEG,001,203218,
AFNE01.JPG,AFNE01.JPG,AFNE01.JPG,AFNE01.JPG,AFNE01.JPG,AFNE01.JPG,,,,,,,,,0,3,3,4,,,,,,,,,,,,,,,AMNE08.jpg,AMSA04.jpg,AMNE02.jpg,AMSA08.jpg,AMSA08.jpg,MS,2,num_4,16,num_4,0.56653542025,,,2018_Apr_02_1302,60.0065822902,MAFE4ImagesEEG,001,203218,
AFNE01.JPG,AFNE01.JPG,AFNE01.JPG,AFNE01.JPG,AFNE01.JPG,AFNE01.JPG,,,,,,,,,0,4,4,9,,,,,,,,,,,,,,,AMSA16.jpg,AMSA10.jpg,AMNE10.jpg,AMNE08.jpg,AMSA16.jpg,MS,2,num_8,16,num_8,0.50016678439,,,2018_Apr_02_1302,60.0065822902,MAFE4ImagesEEG,001,203218,
AFNE01.JPG,AFNE01.JPG,AFNE01.JPG,AFNE01.JPG,AFNE01.JPG,AFNE01.JPG,,,,,,,,,0,5,5,7,,,,,,,,,,,,,,,AMSA13.jpg,AMSA19.jpg,AMNE01.jpg,AMNE15.jpg,AMNE01.jpg,MN,1,num_2,16,num_2,0.833554643439,,,2018_Apr_02_1302,60.0065822902,MAFE4ImagesEEG,001,203218,
AFNE01.JPG,AFNE01.JPG,AFNE01.JPG,AFNE01.JPG,AFNE01.JPG,AFNE01.JPG,,,,,,,,,0,6,6,3,,,,,,,,,,,,,,,AMNE17.jpg,AMSA11.jpg,AMNE08.jpg,AMSA06.jpg,AMNE08.jpg,MN,1,num_2,32,num_8,0.733459961135,,,2018_Apr_02_1302,60.0065822902,MAFE4ImagesEEG,001,203218,
AFNE01.JPG,AFNE01.JPG,AFNE01.JPG,AFNE01.JPG,AFNE01.JPG,AFNE01.JPG,,,,,,,,,0,7,7,6,,,,,,,,,,,,,,,AMSA09.jpg,AMSA12.jpg,AMNE16.jpg,AMNE08.jpg,AMSA09.jpg,MS,2,num_8,16,num_8,0.850191705744,,,2018_Apr_02_1302,60.0065822902,MAFE4ImagesEEG,001,203218,
AFNE01.JPG,AFNE01.JPG,AFNE01.JPG,AFNE01.JPG,AFNE01.JPG,AFNE01.JPG,,,,,,,,,0,8,8,5,,,,,,,,,,,,,,,AMNE16.jpg,AMNE05.jpg,AMSA10.jpg,AMSA13.jpg,AMNE05.jpg,MN,1,num_6,16,num_6,1.78357417649,,,2018_Apr_02_1302,60.0065822902,MAFE4ImagesEEG,001,203218,
AFNE01.JPG,AFNE01.JPG,AFNE01.JPG,AFNE01.JPG,AFNE01.JPG,AFNE01.JPG,,,,,,,,,0,9,9,0,,,,,,,,,,,,,,,AMNE20.jpg,AMSA08.jpg,AMNE01.jpg,AMSA13.jpg,AMNE20.jpg,MN,1,num_8,16,num_8,0.800127846655,,,2018_Apr_02_1302,60.0065822902,MAFE4ImagesEEG,001,203218,
AFNE01.JPG,AFNE01.JPG,AFNE01.JPG,AFNE01.JPG,AFNE01.JPG,AFNE01.JPG,,,,,,,,,1,0,10,0,,,,,,,,,,,,,,,AMNE01.jpg,AMSA12.jpg,AMSA17.jpg,AMNE20.jpg,AMSA17.jpg,MS,2,num_2,32,num_6,0.916773633217,,,2018_Apr_02_1302,60.0065822902,MAFE4ImagesEEG,001,203218,
AFNE01.JPG,AFNE01.JPG,AFNE01.JPG,AFNE01.JPG,AFNE01.JPG,AFNE01.JPG,,,,,,,,,1,1,11,6,,,,,,,,,,,,,,,AMSA09.jpg,AMSA12.jpg,AMNE16.jpg,AMNE17.jpg,AMNE16.jpg,MN,1,num_2,16,num_2,0.883460698882,,,2018_Apr_02_1302,60.0065822902,MAFE4ImagesEEG,001,203218,
AFNE01.JPG,AFNE01.JPG,AFNE01.JPG,AFNE01.JPG,AFNE01.JPG,AFNE01.JPG,,,,,,,,,1,2,12,3,,,,,,,,,,,,,,,AMNE06.jpg,AMSA06.jpg,AMNE12.jpg,AMSA10.jpg,AMNE12.jpg,MN,1,num_2,32,num_8,0.983459480107,,,2018_Apr_02_1302,60.0065822902,MAFE4ImagesEEG,001,203218,
AFNE01.JPG,AFNE01.JPG,AFNE01.JPG,AFNE01.JPG,AFNE01.JPG,AFNE01.JPG,,,,,,,,,1,3,13,5,,,,,,,,,,,,,,,AMSA13.jpg,AMSA04.jpg,AMNE11.jpg,AMNE15.jpg,AMNE15.jpg,MN,1,num_4,16,num_4,1.13344193564,,,2018_Apr_02_1302,60.0065822902,MAFE4ImagesEEG,001,203218,
AFNE01.JPG,AFNE01.JPG,AFNE01.JPG,AFNE01.JPG,AFNE01.JPG,AFNE01.JPG,,,,,,,,,1,4,14,8,,,,,,,,,,,,,,,AMNE13.jpg,AMSA09.jpg,AMNE20.jpg,AMSA11.jpg,AMNE13.jpg,MN,1,num_8,32,num_4,0.866809523897,,,2018_Apr_02_1302,60.0065822902,MAFE4ImagesEEG,001,203218,
AFNE01.JPG,AFNE01.JPG,AFNE01.JPG,AFNE01.JPG,AFNE01.JPG,AFNE01.JPG,,,,,,,,,1,5,15,9,,,,,,,,,,,,,,,AMSA02.jpg,AMNE19.jpg,AMSA11.jpg,AMNE11.jpg,AMNE19.jpg,MN,1,num_6,32,num_2,0.33349562739,,,2018_Apr_02_1302,60.0065822902,MAFE4ImagesEEG,001,203218,
AFNE01.JPG,AFNE01.JPG,AFNE01.JPG,AFNE01.JPG,AFNE01.JPG,AFNE01.JPG,,,,,,,,,1,6,16,1,,,,,,,,,,,,,,,AMNE13.jpg,AMNE18.jpg,AMSA08.jpg,AMSA16.jpg,AMNE13.jpg,MN,1,num_8,32,num_6,0.250168869155,,,2018_Apr_02_1302,60.0065822902,MAFE4ImagesEEG,001,203218,
AFNE01.JPG,AFNE01.JPG,AFNE01.JPG,AFNE01.JPG,AFNE01.JPG,AFNE01.JPG,,,,,,,,,1,7,17,2,,,,,,,,,,,,,,,AMNE03.jpg,AMNE02.jpg,AMSA05.jpg,AMSA19.jpg,AMSA19.jpg,MS,2,num_4,32,num_2,0.600144396769,,,2018_Apr_02_1302,60.0065822902,MAFE4ImagesEEG,001,203218,
AFNE01.JPG,AFNE01.JPG,AFNE01.JPG,AFNE01.JPG,AFNE01.JPG,AFNE01.JPG,,,,,,,,,1,8,18,7,,,,,,,,,,,,,,,AMSA16.jpg,AMSA11.jpg,AMNE06.jpg,AMNE04.jpg,AMSA16.jpg,MS,2,num_8,16,num_8,0.500203348696,,,2018_Apr_02_1302,60.0065822902,MAFE4ImagesEEG,001,203218,
AFNE01.JPG,AFNE01.JPG,AFNE01.JPG,AFNE01.JPG,AFNE01.JPG,AFNE01.JPG,,,,,,,,,1,9,19,4,,,,,,,,,,,,,,,AMNE03.jpg,AMSA15.jpg,AMNE07.jpg,AMSA10.jpg,AMNE07.jpg,MN,1,num_2,16,num_2,0.96676692972,,,2018_Apr_02_1302,60.0065822902,MAFE4ImagesEEG,001,203218,
AFNE01.JPG,AFNE01.JPG,AFNE01.JPG,AFNE01.JPG,AFNE01.JPG,AFNE01.JPG,,,,,,,,,2,0,20,2,,,,,,,,,,,,,,,AMSA11.jpg,AMNE10.jpg,AMSA04.jpg,AMNE12.jpg,AMNE12.jpg,MN,1,num_4,32,num_6,0.883473528433,,,2018_Apr_02_1302,60.0065822902,MAFE4ImagesEEG,001,203218,
AFNE01.JPG,AFNE01.JPG,AFNE01.JPG,AFNE01.JPG,AFNE01.JPG,AFNE01.JPG,,,,,,,,,2,1,21,8,,,,,,,,,,,,,,,AMNE08.jpg,AMSA02.jpg,AMNE15.jpg,AMSA15.jpg,AMNE08.jpg,MN,1,num_8,32,num_6,0.500133106718,,,2018_Apr_02_1302,60.0065822902,MAFE4ImagesEEG,001,203218,
AFNE01.JPG,AFNE01.JPG,AFNE01.JPG,AFNE01.JPG,AFNE01.JPG,AFNE01.JPG,,,,,,,,,2,2,22,5,,,,,,,,,,,,,,,AMSA19.jpg,AMNE05.jpg,AMSA09.jpg,AMNE06.jpg,AMNE05.jpg,MN,1,num_6,32,num_4,0.716828030534,,,2018_Apr_02_1302,60.0065822902,MAFE4ImagesEEG,001,203218,
AFNE01.JPG,AFNE01.JPG,AFNE01.JPG,AFNE01.JPG,AFNE01.JPG,AFNE01.JPG,,,,,,,,,2,3,23,0,,,,,,,,,,,,,,,AMSA06.jpg,AMNE01.jpg,AMSA16.jpg,AMNE14.jpg,AMNE01.jpg,MN,1,num_6,16,num_6,0.98346814001,,,2018_Apr_02_1302,60.0065822902,MAFE4ImagesEEG,001,203218,
AFNE01.JPG,AFNE01.JPG,AFNE01.JPG,AFNE01.JPG,AFNE01.JPG,AFNE01.JPG,,,,,,,,,2,4,24,3,,,,,,,,,,,,,,,AMNE11.jpg,AMSA11.jpg,AMSA02.jpg,AMNE04.jpg,AMSA11.jpg,MS,2,num_6,32,num_2,1.11676670518,,,2018_Apr_02_1302,60.0065822902,MAFE4ImagesEEG,001,203218,
AFNE01.JPG,AFNE01.JPG,AFNE01.JPG,AFNE01.JPG,AFNE01.JPG,AFNE01.JPG,,,,,,,,,2,5,25,4,,,,,,,,,,,,,,,AMNE12.jpg,AMSA13.jpg,AMNE06.jpg,AMSA16.jpg,AMNE06.jpg,MN,1,num_2,16,num_2,1.65007162106,,,2018_Apr_02_1302,60.0065822902,MAFE4ImagesEEG,001,203218,
AFNE01.JPG,AFNE01.JPG,AFNE01.JPG,AFNE01.JPG,AFNE01.JPG,AFNE01.JPG,,,,,,,,,2,6,26,6,,,,,,,,,,,,,,,AMNE01.jpg,AMSA05.jpg,AMNE15.jpg,AMSA19.jpg,AMNE01.jpg,MN,1,num_8,16,num_8,0.800146770314,,,2018_Apr_02_1302,60.0065822902,MAFE4ImagesEEG,001,203218,
AFNE01.JPG,AFNE01.JPG,AFNE01.JPG,AFNE01.JPG,AFNE01.JPG,AFNE01.JPG,,,,,,,,,2,7,27,7,,,,,,,,,,,,,,,AMSA15.jpg,AMSA12.jpg,AMNE10.jpg,AMNE17.jpg,AMNE10.jpg,MN,1,num_2,32,num_4,0.900156456511,,,2018_Apr_02_1302,60.0065822902,MAFE4ImagesEEG,001,203218,
AFNE01.JPG,AFNE01.JPG,AFNE01.JPG,AFNE01.JPG,AFNE01.JPG,AFNE01.JPG,,,,,,,,,2,8,28,9,,,,,,,,,,,,,,,AMSA09.jpg,AMNE18.jpg,AMNE01.jpg,AMSA06.jpg,AMSA09.jpg,MS,2,num_8,16,num_8,0.883405211032,,,2018_Apr_02_1302,60.0065822902,MAFE4ImagesEEG,001,203218,
AFNE01.JPG,AFNE01.JPG,AFNE01.JPG,AFNE01.JPG,AFNE01.JPG,AFNE01.JPG,,,,,,,,,2,9,29,1,,,,,,,,,,,,,,,AMNE06.jpg,AMSA05.jpg,AMNE08.jpg,AMSA02.jpg,AMNE08.jpg,MN,1,num_2,16,num_2,1.10012707685,,,2018_Apr_02_1302,60.0065822902,MAFE4ImagesEEG,001,203218,
AFNE01.JPG,AFNE01.JPG,AFNE01.JPG,AFNE01.JPG,AFNE01.JPG,AFNE01.JPG,,,,,,,,,3,0,30,4,,,,,,,,,,,,,,,AMSA10.jpg,AMNE18.jpg,AMNE04.jpg,AMSA16.jpg,AMSA16.jpg,MS,2,num_4,16,num_4,0.650182276149,,,2018_Apr_02_1302,60.0065822902,MAFE4ImagesEEG,001,203218,
AFNE01.JPG,AFNE01.JPG,AFNE01.JPG,AFNE01.JPG,AFNE01.JPG,AFNE01.JPG,,,,,,,,,3,1,31,2,,,,,,,,,,,,,,,AMSA08.jpg,AMNE16.jpg,AMSA12.jpg,AMNE07.jpg,AMSA12.jpg,MS,2,num_2,16,num_2,0.58349803288,,,2018_Apr_02_1302,60.0065822902,MAFE4ImagesEEG,001,203218,
AFNE01.JPG,AFNE01.JPG,AFNE01.JPG,AFNE01.JPG,AFNE01.JPG,AFNE01.JPG,,,,,,,,,3,2,32,7,,,,,,,,,,,,,,,AMNE16.jpg,AMNE11.jpg,AMSA19.jpg,AMSA16.jpg,AMSA19.jpg,MS,2,num_2,16,num_2,0.783311491017,,,2018_Apr_02_1302,60.0065822902,MAFE4ImagesEEG,001,203218,
AFNE01.JPG,AFNE01.JPG,AFNE01.JPG,AFNE01.JPG,AFNE01.JPG,AFNE01.JPG,,,,,,,,,3,3,33,6,,,,,,,,,,,,,,,AMSA05.jpg,AMNE05.jpg,AMNE15.jpg,AMSA02.jpg,AMNE15.jpg,MN,1,num_2,32,num_6,0.850193309481,,,2018_Apr_02_1302,60.0065822902,MAFE4ImagesEEG,001,203218,
AFNE01.JPG,AFNE01.JPG,AFNE01.JPG,AFNE01.JPG,AFNE01.JPG,AFNE01.JPG,,,,,,,,,3,4,34,3,,,,,,,,,,,,,,,AMSA06.jpg,AMNE11.jpg,AMNE19.jpg,AMSA12.jpg,AMNE19.jpg,MN,1,num_2,32,num_6,1.11676221492,,,2018_Apr_02_1302,60.0065822902,MAFE4ImagesEEG,001,203218,
AFNE01.JPG,AFNE01.JPG,AFNE01.JPG,AFNE01.JPG,AFNE01.JPG,AFNE01.JPG,,,,,,,,,3,5,35,0,,,,,,,,,,,,,,,AMSA17.jpg,AMNE08.jpg,AMSA11.jpg,AMNE12.jpg,AMSA11.jpg,MS,2,num_2,16,num_2,0.783451333176,,,2018_Apr_02_1302,60.0065822902,MAFE4ImagesEEG,001,203218,
AFNE01.JPG,AFNE01.JPG,AFNE01.JPG,AFNE01.JPG,AFNE01.JPG,AFNE01.JPG,,,,,,,,,3,6,36,8,,,,,,,,,,,,,,,AMSA01.jpg,AMNE01.jpg,AMNE17.jpg,AMSA07.jpg,AMNE17.jpg,MN,1,num_2,16,num_2,1.13343904901,,,2018_Apr_02_1302,60.0065822902,MAFE4ImagesEEG,001,203218,
AFNE01.JPG,AFNE01.JPG,AFNE01.JPG,AFNE01.JPG,AFNE01.JPG,AFNE01.JPG,,,,,,,,,3,7,37,1,,,,,,,,,,,,,,,AMSA19.jpg,AMNE11.jpg,AMNE03.jpg,AMSA16.jpg,AMNE11.jpg,MN,1,num_6,32,num_2,0.716802050592,,,2018_Apr_02_1302,60.0065822902,MAFE4ImagesEEG,001,203218,
AFNE01.JPG,AFNE01.JPG,AFNE01.JPG,AFNE01.JPG,AFNE01.JPG,AFNE01.JPG,,,,,,,,,3,8,38,9,,,,,,,,,,,,,,,AMSA07.jpg,AMSA03.jpg,AMNE18.jpg,AMNE02.jpg,AMNE02.jpg,MN,1,num_4,16,num_4,0.716855934821,,,2018_Apr_02_1302,60.0065822902,MAFE4ImagesEEG,001,203218,
AFNE01.JPG,AFNE01.JPG,AFNE01.JPG,AFNE01.JPG,AFNE01.JPG,AFNE01.JPG,,,,,,,,,3,9,39,5,,,,,,,,,,,,,,,AMNE07.jpg,AMNE02.jpg,AMSA02.jpg,AMSA18.jpg,AMNE07.jpg,MN,1,num_8,16,num_8,0.550178683829,,,2018_Apr_02_1302,60.0065822902,MAFE4ImagesEEG,001,203218,
AFNE01.JPG,AFNE01.JPG,AFNE01.JPG,AFNE01.JPG,AFNE01.JPG,AFNE01.JPG,,,,,,,,,4,0,40,7,,,,,,,,,,,,,,,AMSA04.jpg,AMNE06.jpg,AMSA07.jpg,AMNE15.jpg,AMSA04.jpg,MS,2,num_8,32,num_2,0.883483792073,,,2018_Apr_02_1302,60.0065822902,MAFE4ImagesEEG,001,203218,
AFNE01.JPG,AFNE01.JPG,AFNE01.JPG,AFNE01.JPG,AFNE01.JPG,AFNE01.JPG,,,,,,,,,4,1,41,4,,,,,,,,,,,,,,,AMNE10.jpg,AMSA04.jpg,AMNE08.jpg,AMSA20.jpg,AMNE10.jpg,MN,1,num_8,16,num_8,0.833471892634,,,2018_Apr_02_1302,60.0065822902,MAFE4ImagesEEG,001,203218,
AFNE01.JPG,AFNE01.JPG,AFNE01.JPG,AFNE01.JPG,AFNE01.JPG,AFNE01.JPG,,,,,,,,,4,2,42,5,,,,,,,,,,,,,,,AMSA06.jpg,AMNE16.jpg,AMNE10.jpg,AMSA18.jpg,AMNE10.jpg,MN,1,num_2,32,num_6,0.683497455553,,,2018_Apr_02_1302,60.0065822902,MAFE4ImagesEEG,001,203218,
AFNE01.JPG,AFNE01.JPG,AFNE01.JPG,AFNE01.JPG,AFNE01.JPG,AFNE01.JPG,,,,,,,,,4,3,43,1,,,,,,,,,,,,,,,AMSA08.jpg,AMSA04.jpg,AMNE10.jpg,AMNE04.jpg,AMSA04.jpg,MS,2,num_6,16,num_6,0.550026332727,,,2018_Apr_02_1302,60.0065822902,MAFE4ImagesEEG,001,203218,
AFNE01.JPG,AFNE01.JPG,AFNE01.JPG,AFNE01.JPG,AFNE01.JPG,AFNE01.JPG,,,,,,,,,4,4,44,9,,,,,,,,,,,,,,,AMSA04.jpg,AMNE02.jpg,AMNE04.jpg,AMSA11.jpg,AMSA11.jpg,MS,2,num_4,16,num_4,0.950220636441,,,2018_Apr_02_1302,60.0065822902,MAFE4ImagesEEG,001,203218,
AFNE01.JPG,AFNE01.JPG,AFNE01.JPG,AFNE01.JPG,AFNE01.JPG,AFNE01.JPG,,,,,,,,,4,5,45,8,,,,,,,,,,,,,,,AMNE16.jpg,AMSA19.jpg,AMSA03.jpg,AMNE06.jpg,AMNE16.jpg,MN,1,num_8,32,num_4,0.800132016302,,,2018_Apr_02_1302,60.0065822902,MAFE4ImagesEEG,001,203218,
AFNE01.JPG,AFNE01.JPG,AFNE01.JPG,AFNE01.JPG,AFNE01.JPG,AFNE01.JPG,,,,,,,,,4,6,46,3,,,,,,,,,,,,,,,AMNE08.jpg,AMSA10.jpg,AMNE15.jpg,AMSA18.jpg,AMNE08.jpg,MN,1,num_8,16,num_8,0.866647229879,,,2018_Apr_02_1302,60.0065822902,MAFE4ImagesEEG,001,203218,
AFNE01.JPG,AFNE01.JPG,AFNE01.JPG,AFNE01.JPG,AFNE01.JPG,AFNE01.JPG,,,,,,,,,4,7,47,2,,,,,,,,,,,,,,,AMNE16.jpg,AMSA18.jpg,AMNE18.jpg,AMSA01.jpg,AMNE18.jpg,MN,1,num_2,16,num_2,1.03348003945,,,2018_Apr_02_1302,60.0065822902,MAFE4ImagesEEG,001,203218,
AFNE01.JPG,AFNE01.JPG,AFNE01.JPG,AFNE01.JPG,AFNE01.JPG,AFNE01.JPG,,,,,,,,,4,8,48,6,,,,,,,,,,,,,,,AMNE08.jpg,AMSA07.jpg,AMNE13.jpg,AMSA02.jpg,AMSA07.jpg,MS,2,num_6,32,num_8,0.933318643481,,,2018_Apr_02_1302,60.0065822902,MAFE4ImagesEEG,001,203218,
AFNE01.JPG,AFNE01.JPG,AFNE01.JPG,AFNE01.JPG,AFNE01.JPG,AFNE01.JPG,,,,,,,,,4,9,49,0,,,,,,,,,,,,,,,AMSA16.jpg,AMSA01.jpg,AMNE17.jpg,AMNE03.jpg,AMNE17.jpg,MN,1,num_2,32,num_8,0.783455182216,,,2018_Apr_02_1302,60.0065822902,MAFE4ImagesEEG,001,203218,
AFNE01.JPG,AFNE01.JPG,AFNE01.JPG,AFNE01.JPG,AFNE01.JPG,AFNE01.JPG,,,,,,,,,5,0,50,6,,,,,,,,,,,,,,,AMNE10.jpg,AMSA18.jpg,AMNE15.jpg,AMSA13.jpg,AMNE15.jpg,MN,1,num_2,32,num_6,0.533477473538,,,2018_Apr_02_1302,60.0065822902,MAFE4ImagesEEG,001,203218,
AFNE01.JPG,AFNE01.JPG,AFNE01.JPG,AFNE01.JPG,AFNE01.JPG,AFNE01.JPG,,,,,,,,,5,1,51,5,,,,,,,,,,,,,,,AMSA20.jpg,AMNE02.jpg,AMNE04.jpg,AMSA11.jpg,AMSA20.jpg,MS,2,num_8,32,num_4,0.333553039702,,,2018_Apr_02_1302,60.0065822902,MAFE4ImagesEEG,001,203218,
AFNE01.JPG,AFNE01.JPG,AFNE01.JPG,AFNE01.JPG,AFNE01.JPG,AFNE01.JPG,,,,,,,,,5,2,52,1,,,,,,,,,,,,,,,AMSA13.jpg,AMNE03.jpg,AMNE12.jpg,AMSA18.jpg,AMNE03.jpg,MN,1,num_6,32,num_8,0.566844291985,,,2018_Apr_02_1302,60.0065822902,MAFE4ImagesEEG,001,203218,
AFNE01.JPG,AFNE01.JPG,AFNE01.JPG,AFNE01.JPG,AFNE01.JPG,AFNE01.JPG,,,,,,,,,5,3,53,9,,,,,,,,,,,,,,,AMNE06.jpg,AMNE10.jpg,AMSA06.jpg,AMSA18.jpg,AMNE10.jpg,MN,1,num_6,32,num_8,1.08339603781,,,2018_Apr_02_1302,60.0065822902,MAFE4ImagesEEG,001,203218,
AFNE01.JPG,AFNE01.JPG,AFNE01.JPG,AFNE01.JPG,AFNE01.JPG,AFNE01.JPG,,,,,,,,,5,4,54,7,,,,,,,,,,,,,,,AMNE12.jpg,AMNE05.jpg,AMSA01.jpg,AMSA15.jpg,AMSA15.jpg,MS,2,num_4,32,num_2,0.516802243073,,,2018_Apr_02_1302,60.0065822902,MAFE4ImagesEEG,001,203218,
AFNE01.JPG,AFNE01.JPG,AFNE01.JPG,AFNE01.JPG,AFNE01.JPG,AFNE01.JPG,,,,,,,,,5,5,55,2,,,,,,,,,,,,,,,AMSA14.jpg,AMNE03.jpg,AMNE14.jpg,AMSA05.jpg,AMSA14.jpg,MS,2,num_8,16,num_8,0.650180993136,,,2018_Apr_02_1302,60.0065822902,MAFE4ImagesEEG,001,203218,
AFNE01.JPG,AFNE01.JPG,AFNE01.JPG,AFNE01.JPG,AFNE01.JPG,AFNE01.JPG,,,,,,,,,5,6,56,0,,,,,,,,,,,,,,,AMNE01.jpg,AMSA12.jpg,AMSA08.jpg,AMNE06.jpg,AMSA08.jpg,MS,2,num_2,32,num_6,1.10013669904,,,2018_Apr_02_1302,60.0065822902,MAFE4ImagesEEG,001,203218,
AFNE01.JPG,AFNE01.JPG,AFNE01.JPG,AFNE01.JPG,AFNE01.JPG,AFNE01.JPG,,,,,,,,,5,7,57,4,,,,,,,,,,,,,,,AMNE05.jpg,AMSA17.jpg,AMSA04.jpg,AMNE18.jpg,AMNE18.jpg,MN,1,num_4,32,num_2,0.850135255721,,,2018_Apr_02_1302,60.0065822902,MAFE4ImagesEEG,001,203218,
AFNE01.JPG,AFNE01.JPG,AFNE01.JPG,AFNE01.JPG,AFNE01.JPG,AFNE01.JPG,,,,,,,,,5,8,58,8,,,,,,,,,,,,,,,AMNE04.jpg,AMNE11.jpg,AMSA14.jpg,AMSA15.jpg,AMSA15.jpg,MS,2,num_4,32,num_6,0.533490944537,,,2018_Apr_02_1302,60.0065822902,MAFE4ImagesEEG,001,203218,
AFNE01.JPG,AFNE01.JPG,AFNE01.JPG,AFNE01.JPG,AFNE01.JPG,AFNE01.JPG,,,,,,,,,5,9,59,3,,,,,,,,,,,,,,,AMNE08.jpg,AMSA16.jpg,AMNE02.jpg,AMSA12.jpg,AMNE02.jpg,MN,1,num_2,32,num_8,1.64994075941,,,2018_Apr_02_1302,60.0065822902,MAFE4ImagesEEG,001,203218,
,,,,,,,,,,,,,,,,,,,,,,,,,,,,,,,,,,,,,,,,,,,space,1.95005513506,2018_Apr_02_1302,60.0065822902,MAFE4ImagesEEG,001,203218,
AFNE01.JPG,AFNE01.JPG,AFNE01.JPG,AFNE01.JPG,AFNE01.JPG,AFNE01.JPG,,,,,,,,,,,,,0,0,0,8,,,,,,,,,,,AFNE05.jpg,AFNE01.jpg,AFSA17.jpg,AFSA20.jpg,AFNE01.jpg,FN,3,num_6,32,num_4,0.900137212244,,,2018_Apr_02_1302,60.0065822902,MAFE4ImagesEEG,001,203218,
AFNE01.JPG,AFNE01.JPG,AFNE01.JPG,AFNE01.JPG,AFNE01.JPG,AFNE01.JPG,,,,,,,,,,,,,0,1,1,5,,,,,,,,,,,AFSA10.jpg,AFSA06.jpg,AFNE03.jpg,AFNE14.jpg,AFNE03.jpg,FN,3,num_2,32,num_6,0.300039322581,,,2018_Apr_02_1302,60.0065822902,MAFE4ImagesEEG,001,203218,
AFNE01.JPG,AFNE01.JPG,AFNE01.JPG,AFNE01.JPG,AFNE01.JPG,AFNE01.JPG,,,,,,,,,,,,,0,2,2,1,,,,,,,,,,,AFSA11.jpg,AFNE18.jpg,AFNE04.jpg,AFSA09.jpg,AFNE18.jpg,FN,3,num_6,16,num_6,0.900184681523,,,2018_Apr_02_1302,60.0065822902,MAFE4ImagesEEG,001,203218,
AFNE01.JPG,AFNE01.JPG,AFNE01.JPG,AFNE01.JPG,AFNE01.JPG,AFNE01.JPG,,,,,,,,,,,,,0,3,3,9,,,,,,,,,,,AFNE03.jpg,AFNE13.jpg,AFSA18.jpg,AFSA19.jpg,AFSA18.jpg,FS,4,num_2,32,num_4,0.583520805347,,,2018_Apr_02_1302,60.0065822902,MAFE4ImagesEEG,001,203218,
AFNE01.JPG,AFNE01.JPG,AFNE01.JPG,AFNE01.JPG,AFNE01.JPG,AFNE01.JPG,,,,,,,,,,,,,0,4,4,3,,,,,,,,,,,AFSA10.jpg,AFNE08.jpg,AFSA17.jpg,AFNE10.jpg,AFNE08.jpg,FN,3,num_6,16,num_6,0.350226987153,,,2018_Apr_02_1302,60.0065822902,MAFE4ImagesEEG,001,203218,
AFNE01.JPG,AFNE01.JPG,AFNE01.JPG,AFNE01.JPG,AFNE01.JPG,AFNE01.JPG,,,,,,,,,,,,,0,5,5,7,,,,,,,,,,,AFNE02.jpg,AFNE12.jpg,AFSA08.jpg,AFSA18.jpg,AFNE12.jpg,FN,3,num_6,32,num_4,0.55020690884,,,2018_Apr_02_1302,60.0065822902,MAFE4ImagesEEG,001,203218,
AFNE01.JPG,AFNE01.JPG,AFNE01.JPG,AFNE01.JPG,AFNE01.JPG,AFNE01.JPG,,,,,,,,,,,,,0,6,6,0,,,,,,,,,,,AFNE20.jpg,AFSA15.jpg,AFSA17.jpg,AFNE06.jpg,AFNE20.jpg,FN,3,num_8,32,num_4,1.06675512658,,,2018_Apr_02_1302,60.0065822902,MAFE4ImagesEEG,001,203218,
AFNE01.JPG,AFNE01.JPG,AFNE01.JPG,AFNE01.JPG,AFNE01.JPG,AFNE01.JPG,,,,,,,,,,,,,0,7,7,6,,,,,,,,,,,AFNE18.jpg,AFNE14.jpg,AFSA05.jpg,AFSA02.jpg,AFSA05.jpg,FS,4,num_2,32,num_8,0.0168641457567,,,2018_Apr_02_1302,60.0065822902,MAFE4ImagesEEG,001,203218,
AFNE01.JPG,AFNE01.JPG,AFNE01.JPG,AFNE01.JPG,AFNE01.JPG,AFNE01.JPG,,,,,,,,,,,,,0,8,8,4,,,,,,,,,,,AFNE08.jpg,AFSA12.jpg,AFSA07.jpg,AFNE02.jpg,AFNE02.jpg,FN,3,num_4,32,num_2,0.666791434167,,,2018_Apr_02_1302,60.0065822902,MAFE4ImagesEEG,001,203218,
AFNE01.JPG,AFNE01.JPG,AFNE01.JPG,AFNE01.JPG,AFNE01.JPG,AFNE01.JPG,,,,,,,,,,,,,0,9,9,2,,,,,,,,,,,AFSA15.jpg,AFSA17.jpg,AFNE05.jpg,AFNE08.jpg,AFSA15.jpg,FS,4,num_8,32,num_6,0.350142312003,,,2018_Apr_02_1302,60.0065822902,MAFE4ImagesEEG,001,203218,
AFNE01.JPG,AFNE01.JPG,AFNE01.JPG,AFNE01.JPG,AFNE01.JPG,AFNE01.JPG,,,,,,,,,,,,,1,0,10,1,,,,,,,,,,,AFNE11.jpg,AFNE04.jpg,AFSA20.jpg,AFSA07.jpg,AFNE11.jpg,FN,3,num_8,16,num_8,0.383534789551,,,2018_Apr_02_1302,60.0065822902,MAFE4ImagesEEG,001,203218,
AFNE01.JPG,AFNE01.JPG,AFNE01.JPG,AFNE01.JPG,AFNE01.JPG,AFNE01.JPG,,,,,,,,,,,,,1,1,11,9,,,,,,,,,,,AFSA19.jpg,AFNE12.jpg,AFSA03.jpg,AFNE13.jpg,AFNE12.jpg,FN,3,num_6,32,num_4,0.433540915721,,,2018_Apr_02_1302,60.0065822902,MAFE4ImagesEEG,001,203218,
AFNE01.JPG,AFNE01.JPG,AFNE01.JPG,AFNE01.JPG,AFNE01.JPG,AFNE01.JPG,,,,,,,,,,,,,1,2,12,2,,,,,,,,,,,AFSA09.jpg,AFNE18.jpg,AFNE01.jpg,AFSA06.jpg,AFSA09.jpg,FS,4,num_8,32,num_2,0.383490527631,,,2018_Apr_02_1302,60.0065822902,MAFE4ImagesEEG,001,203218,
AFNE01.JPG,AFNE01.JPG,AFNE01.JPG,AFNE01.JPG,AFNE01.JPG,AFNE01.JPG,,,,,,,,,,,,,1,3,13,4,,,,,,,,,,,AFNE12.jpg,AFNE05.jpg,AFSA19.jpg,AFSA08.jpg,AFNE12.jpg,FN,3,num_8,32,num_6,0.650141221471,,,2018_Apr_02_1302,60.0065822902,MAFE4ImagesEEG,001,203218,
AFNE01.JPG,AFNE01.JPG,AFNE01.JPG,AFNE01.JPG,AFNE01.JPG,AFNE01.JPG,,,,,,,,,,,,,1,4,14,3,,,,,,,,,,,AFNE06.jpg,AFSA11.jpg,AFNE04.jpg,AFSA17.jpg,AFNE04.jpg,FN,3,num_2,32,num_8,0.583463713876,,,2018_Apr_02_1302,60.0065822902,MAFE4ImagesEEG,001,203218,
AFNE01.JPG,AFNE01.JPG,AFNE01.JPG,AFNE01.JPG,AFNE01.JPG,AFNE01.JPG,,,,,,,,,,,,,1,5,15,8,,,,,,,,,,,AFNE12.jpg,AFSA17.jpg,AFSA12.jpg,AFNE08.jpg,AFNE08.jpg,FN,3,num_4,16,num_4,1.63374278904,,,2018_Apr_02_1302,60.0065822902,MAFE4ImagesEEG,001,203218,
AFNE01.JPG,AFNE01.JPG,AFNE01.JPG,AFNE01.JPG,AFNE01.JPG,AFNE01.JPG,,,,,,,,,,,,,1,6,16,5,,,,,,,,,,,AFSA02.jpg,AFSA07.jpg,AFNE03.jpg,AFNE13.jpg,AFNE03.jpg,FN,3,num_2,32,num_8,0.683467626804,,,2018_Apr_02_1302,60.0065822902,MAFE4ImagesEEG,001,203218,
AFNE01.JPG,AFNE01.JPG,AFNE01.JPG,AFNE01.JPG,AFNE01.JPG,AFNE01.JPG,,,,,,,,,,,,,1,7,17,0,,,,,,,,,,,AFNE05.jpg,AFNE11.jpg,AFSA18.jpg,AFSA15.jpg,AFSA15.jpg,FS,4,num_4,32,num_6,0.733523467556,,,2018_Apr_02_1302,60.0065822902,MAFE4ImagesEEG,001,203218,
AFNE01.JPG,AFNE01.JPG,AFNE01.JPG,AFNE01.JPG,AFNE01.JPG,AFNE01.JPG,,,,,,,,,,,,,1,8,18,7,,,,,,,,,,,AFNE17.jpg,AFSA04.jpg,AFSA06.jpg,AFNE19.jpg,AFSA04.jpg,FS,4,num_6,32,num_4,0.51679967728,,,2018_Apr_02_1302,60.0065822902,MAFE4ImagesEEG,001,203218,
AFNE01.JPG,AFNE01.JPG,AFNE01.JPG,AFNE01.JPG,AFNE01.JPG,AFNE01.JPG,,,,,,,,,,,,,1,9,19,6,,,,,,,,,,,AFNE11.jpg,AFSA15.jpg,AFSA06.jpg,AFNE10.jpg,AFSA15.jpg,FS,4,num_6,32,num_8,0.45009234082,,,2018_Apr_02_1302,60.0065822902,MAFE4ImagesEEG,001,203218,
AFNE01.JPG,AFNE01.JPG,AFNE01.JPG,AFNE01.JPG,AFNE01.JPG,AFNE01.JPG,,,,,,,,,,,,,2,0,20,4,,,,,,,,,,,AFSA11.jpg,AFSA04.jpg,AFNE09.jpg,AFNE17.jpg,AFSA11.jpg,FS,4,num_8,16,num_8,0.700196420657,,,2018_Apr_02_1302,60.0065822902,MAFE4ImagesEEG,001,203218,
AFNE01.JPG,AFNE01.JPG,AFNE01.JPG,AFNE01.JPG,AFNE01.JPG,AFNE01.JPG,,,,,,,,,,,,,2,1,21,3,,,,,,,,,,,AFNE15.jpg,AFSA07.jpg,AFNE02.jpg,AFSA20.jpg,AFSA20.jpg,FS,4,num_4,32,num_2,0.716786334524,,,2018_Apr_02_1302,60.0065822902,MAFE4ImagesEEG,001,203218,
AFNE01.JPG,AFNE01.JPG,AFNE01.JPG,AFNE01.JPG,AFNE01.JPG,AFNE01.JPG,,,,,,,,,,,,,2,2,22,2,,,,,,,,,,,AFSA09.jpg,AFNE10.jpg,AFNE05.jpg,AFSA04.jpg,AFNE10.jpg,FN,3,num_6,16,num_6,1.23341890657,,,2018_Apr_02_1302,60.0065822902,MAFE4ImagesEEG,001,203218,
AFNE01.JPG,AFNE01.JPG,AFNE01.JPG,AFNE01.JPG,AFNE01.JPG,AFNE01.JPG,,,,,,,,,,,,,2,3,23,0,,,,,,,,,,,AFNE12.jpg,AFNE10.jpg,AFSA02.jpg,AFSA20.jpg,AFSA20.jpg,FS,4,num_4,16,num_4,1.28346448357,,,2018_Apr_02_1302,60.0065822902,MAFE4ImagesEEG,001,203218,
AFNE01.JPG,AFNE01.JPG,AFNE01.JPG,AFNE01.JPG,AFNE01.JPG,AFNE01.JPG,,,,,,,,,,,,,2,4,24,1,,,,,,,,,,,AFNE10.jpg,AFSA04.jpg,AFSA15.jpg,AFNE04.jpg,AFSA15.jpg,FS,4,num_2,32,num_6,0.800147411646,,,2018_Apr_02_1302,60.0065822902,MAFE4ImagesEEG,001,203218,
AFNE01.JPG,AFNE01.JPG,AFNE01.JPG,AFNE01.JPG,AFNE01.JPG,AFNE01.JPG,,,,,,,,,,,,,2,5,25,9,,,,,,,,,,,AFNE01.jpg,AFNE20.jpg,AFSA03.jpg,AFSA10.jpg,AFNE01.jpg,FN,3,num_8,16,num_8,0.800193598145,,,2018_Apr_02_1302,60.0065822902,MAFE4ImagesEEG,001,203218,
AFNE01.JPG,AFNE01.JPG,AFNE01.JPG,AFNE01.JPG,AFNE01.JPG,AFNE01.JPG,,,,,,,,,,,,,2,6,26,8,,,,,,,,,,,AFNE01.jpg,AFSA08.jpg,AFSA15.jpg,AFNE04.jpg,AFNE01.jpg,FN,3,num_8,16,num_8,0.816774851992,,,2018_Apr_02_1302,60.0065822902,MAFE4ImagesEEG,001,203218,
AFNE01.JPG,AFNE01.JPG,AFNE01.JPG,AFNE01.JPG,AFNE01.JPG,AFNE01.JPG,,,,,,,,,,,,,2,7,27,6,,,,,,,,,,,AFSA02.jpg,AFNE04.jpg,AFSA10.jpg,AFNE18.jpg,AFSA02.jpg,FS,4,num_8,16,num_8,1.16699253768,,,2018_Apr_02_1302,60.0065822902,MAFE4ImagesEEG,001,203218,
AFNE01.JPG,AFNE01.JPG,AFNE01.JPG,AFNE01.JPG,AFNE01.JPG,AFNE01.JPG,,,,,,,,,,,,,2,8,28,7,,,,,,,,,,,AFNE11.jpg,AFNE03.jpg,AFSA09.jpg,AFSA13.jpg,AFSA13.jpg,FS,4,num_4,32,num_8,1.05013987434,,,2018_Apr_02_1302,60.0065822902,MAFE4ImagesEEG,001,203218,
AFNE01.JPG,AFNE01.JPG,AFNE01.JPG,AFNE01.JPG,AFNE01.JPG,AFNE01.JPG,,,,,,,,,,,,,2,9,29,5,,,,,,,,,,,AFNE11.jpg,AFNE15.jpg,AFSA11.jpg,AFSA10.jpg,AFNE11.jpg,FN,3,num_8,16,num_8,0.766831590794,,,2018_Apr_02_1302,60.0065822902,MAFE4ImagesEEG,001,203218,
AFNE01.JPG,AFNE01.JPG,AFNE01.JPG,AFNE01.JPG,AFNE01.JPG,AFNE01.JPG,,,,,,,,,,,,,3,0,30,1,,,,,,,,,,,AFSA17.jpg,AFNE12.jpg,AFSA09.jpg,AFNE09.jpg,AFSA17.jpg,FS,4,num_8,16,num_8,0.850161877112,,,2018_Apr_02_1302,60.0065822902,MAFE4ImagesEEG,001,203218,
AFNE01.JPG,AFNE01.JPG,AFNE01.JPG,AFNE01.JPG,AFNE01.JPG,AFNE01.JPG,,,,,,,,,,,,,3,1,31,4,,,,,,,,,,,AFNE11.jpg,AFSA18.jpg,AFNE08.jpg,AFSA06.jpg,AFSA18.jpg,FS,4,num_6,16,num_6,0.833512305748,,,2018_Apr_02_1302,60.0065822902,MAFE4ImagesEEG,001,203218,
AFNE01.JPG,AFNE01.JPG,AFNE01.JPG,AFNE01.JPG,AFNE01.JPG,AFNE01.JPG,,,,,,,,,,,,,3,2,32,5,,,,,,,,,,,AFNE12.jpg,AFSA14.jpg,AFSA06.jpg,AFNE04.jpg,AFSA14.jpg,FS,4,num_6,32,num_4,0.866788034327,,,2018_Apr_02_1302,60.0065822902,MAFE4ImagesEEG,001,203218,
AFNE01.JPG,AFNE01.JPG,AFNE01.JPG,AFNE01.JPG,AFNE01.JPG,AFNE01.JPG,,,,,,,,,,,,,3,3,33,6,,,,,,,,,,,AFSA20.jpg,AFNE04.jpg,AFNE20.jpg,AFSA19.jpg,AFNE04.jpg,FN,3,num_6,16,num_6,0.833471892634,,,2018_Apr_02_1302,60.0065822902,MAFE4ImagesEEG,001,203218,
AFNE01.JPG,AFNE01.JPG,AFNE01.JPG,AFNE01.JPG,AFNE01.JPG,AFNE01.JPG,,,,,,,,,,,,,3,4,34,0,,,,,,,,,,,AFNE05.jpg,AFNE09.jpg,AFSA11.jpg,AFSA05.jpg,AFNE09.jpg,FN,3,num_6,32,num_8,1.06676988059,,,2018_Apr_02_1302,60.0065822902,MAFE4ImagesEEG,001,203218,
AFNE01.JPG,AFNE01.JPG,AFNE01.JPG,AFNE01.JPG,AFNE01.JPG,AFNE01.JPG,,,,,,,,,,,,,3,5,35,8,,,,,,,,,,,AFSA08.jpg,AFNE19.jpg,AFNE11.jpg,AFSA05.jpg,AFSA05.jpg,FS,4,num_4,32,num_6,1.23301830329,,,2018_Apr_02_1302,60.0065822902,MAFE4ImagesEEG,001,203218,
AFNE01.JPG,AFNE01.JPG,AFNE01.JPG,AFNE01.JPG,AFNE01.JPG,AFNE01.JPG,,,,,,,,,,,,,3,6,36,7,,,,,,,,,,,AFNE01.jpg,AFNE12.jpg,AFSA08.jpg,AFSA20.jpg,AFSA08.jpg,FS,4,num_2,16,num_2,0.900128873065,,,2018_Apr_02_1302,60.0065822902,MAFE4ImagesEEG,001,203218,
AFNE01.JPG,AFNE01.JPG,AFNE01.JPG,AFNE01.JPG,AFNE01.JPG,AFNE01.JPG,,,,,,,,,,,,,3,7,37,3,,,,,,,,,,,AFSA18.jpg,AFSA02.jpg,AFNE10.jpg,AFNE19.jpg,AFNE19.jpg,FN,3,num_4,16,num_4,0.983447292005,,,2018_Apr_02_1302,60.0065822902,MAFE4ImagesEEG,001,203218,
AFNE01.JPG,AFNE01.JPG,AFNE01.JPG,AFNE01.JPG,AFNE01.JPG,AFNE01.JPG,,,,,,,,,,,,,3,8,38,9,,,,,,,,,,,AFNE03.jpg,AFSA05.jpg,AFNE04.jpg,AFSA20.jpg,AFSA05.jpg,FS,4,num_6,32,num_4,0.583506051335,,,2018_Apr_02_1302,60.0065822902,MAFE4ImagesEEG,001,203218,
AFNE01.JPG,AFNE01.JPG,AFNE01.JPG,AFNE01.JPG,AFNE01.JPG,AFNE01.JPG,,,,,,,,,,,,,3,9,39,2,,,,,,,,,,,AFSA20.jpg,AFNE13.jpg,AFSA09.jpg,AFNE02.jpg,AFSA20.jpg,FS,4,num_8,32,num_4,0.883458132972,,,2018_Apr_02_1302,60.0065822902,MAFE4ImagesEEG,001,203218,
AFNE01.JPG,AFNE01.JPG,AFNE01.JPG,AFNE01.JPG,AFNE01.JPG,AFNE01.JPG,,,,,,,,,,,,,4,0,40,5,,,,,,,,,,,AFSA07.jpg,AFSA06.jpg,AFNE03.jpg,AFNE04.jpg,AFNE04.jpg,FN,3,num_4,32,num_8,0.500125729828,,,2018_Apr_02_1302,60.0065822902,MAFE4ImagesEEG,001,203218,
AFNE01.JPG,AFNE01.JPG,AFNE01.JPG,AFNE01.JPG,AFNE01.JPG,AFNE01.JPG,,,,,,,,,,,,,4,1,41,8,,,,,,,,,,,AFSA13.jpg,AFNE02.jpg,AFNE09.jpg,AFSA18.jpg,AFSA18.jpg,FS,4,num_4,32,num_6,0.700157290441,,,2018_Apr_02_1302,60.0065822902,MAFE4ImagesEEG,001,203218,
AFNE01.JPG,AFNE01.JPG,AFNE01.JPG,AFNE01.JPG,AFNE01.JPG,AFNE01.JPG,,,,,,,,,,,,,4,2,42,0,,,,,,,,,,,AFSA02.jpg,AFSA14.jpg,AFNE04.jpg,AFNE10.jpg,AFSA14.jpg,FS,4,num_6,16,num_6,0.650230707717,,,2018_Apr_02_1302,60.0065822902,MAFE4ImagesEEG,001,203218,
AFNE01.JPG,AFNE01.JPG,AFNE01.JPG,AFNE01.JPG,AFNE01.JPG,AFNE01.JPG,,,,,,,,,,,,,4,3,43,6,,,,,,,,,,,AFSA06.jpg,AFSA10.jpg,AFNE14.jpg,AFNE17.jpg,AFNE17.jpg,FN,3,num_4,16,num_4,0.350222817506,,,2018_Apr_02_1302,60.0065822902,MAFE4ImagesEEG,001,203218,
AFNE01.JPG,AFNE01.JPG,AFNE01.JPG,AFNE01.JPG,AFNE01.JPG,AFNE01.JPG,,,,,,,,,,,,,4,4,44,2,,,,,,,,,,,AFNE11.jpg,AFSA16.jpg,AFSA13.jpg,AFNE14.jpg,AFNE14.jpg,FN,3,num_4,32,num_8,0.416832649149,,,2018_Apr_02_1302,60.0065822902,MAFE4ImagesEEG,001,203218,
AFNE01.JPG,AFNE01.JPG,AFNE01.JPG,AFNE01.JPG,AFNE01.JPG,AFNE01.JPG,,,,,,,,,,,,,4,5,45,4,,,,,,,,,,,AFSA06.jpg,AFSA07.jpg,AFNE02.jpg,AFNE03.jpg,AFNE02.jpg,FN,3,num_2,32,num_6,0.316869149334,,,2018_Apr_02_1302,60.0065822902,MAFE4ImagesEEG,001,203218,
AFNE01.JPG,AFNE01.JPG,AFNE01.JPG,AFNE01.JPG,AFNE01.JPG,AFNE01.JPG,,,,,,,,,,,,,4,6,46,9,,,,,,,,,,,AFNE05.jpg,AFSA14.jpg,AFNE08.jpg,AFSA13.jpg,AFNE08.jpg,FN,3,num_2,32,num_4,0.350248155883,,,2018_Apr_02_1302,60.0065822902,MAFE4ImagesEEG,001,203218,
AFNE01.JPG,AFNE01.JPG,AFNE01.JPG,AFNE01.JPG,AFNE01.JPG,AFNE01.JPG,,,,,,,,,,,,,4,7,47,3,,,,,,,,,,,AFNE16.jpg,AFSA11.jpg,AFSA15.jpg,AFNE19.jpg,AFNE19.jpg,FN,3,num_4,32,num_6,0.366477558739,,,2018_Apr_02_1302,60.0065822902,MAFE4ImagesEEG,001,203218,
AFNE01.JPG,AFNE01.JPG,AFNE01.JPG,AFNE01.JPG,AFNE01.JPG,AFNE01.JPG,,,,,,,,,,,,,4,8,48,7,,,,,,,,,,,AFSA09.jpg,AFSA05.jpg,AFNE16.jpg,AFNE13.jpg,AFSA05.jpg,FS,4,num_6,32,num_8,0.516871202039,,,2018_Apr_02_1302,60.0065822902,MAFE4ImagesEEG,001,203218,
AFNE01.JPG,AFNE01.JPG,AFNE01.JPG,AFNE01.JPG,AFNE01.JPG,AFNE01.JPG,,,,,,,,,,,,,4,9,49,1,,,,,,,,,,,AFSA17.jpg,AFNE03.jpg,AFSA03.jpg,AFNE20.jpg,AFSA17.jpg,FS,4,num_8,16,num_8,0.950230258633,,,2018_Apr_02_1302,60.0065822902,MAFE4ImagesEEG,001,203218,
AFNE01.JPG,AFNE01.JPG,AFNE01.JPG,AFNE01.JPG,AFNE01.JPG,AFNE01.JPG,,,,,,,,,,,,,5,0,50,2,,,,,,,,,,,AFNE09.jpg,AFSA07.jpg,AFNE02.jpg,AFSA10.jpg,AFNE09.jpg,FN,3,num_8,32,num_4,0.583498353604,,,2018_Apr_02_1302,60.0065822902,MAFE4ImagesEEG,001,203218,
AFNE01.JPG,AFNE01.JPG,AFNE01.JPG,AFNE01.JPG,AFNE01.JPG,AFNE01.JPG,,,,,,,,,,,,,5,1,51,9,,,,,,,,,,,AFNE02.jpg,AFSA03.jpg,AFNE17.jpg,AFSA16.jpg,AFSA03.jpg,FS,4,num_6,16,num_6,0.533337631263,,,2018_Apr_02_1302,60.0065822902,MAFE4ImagesEEG,001,203218,
AFNE01.JPG,AFNE01.JPG,AFNE01.JPG,AFNE01.JPG,AFNE01.JPG,AFNE01.JPG,,,,,,,,,,,,,5,2,52,1,,,,,,,,,,,AFNE19.jpg,AFNE18.jpg,AFSA06.jpg,AFSA18.jpg,AFNE19.jpg,FN,3,num_8,32,num_2,1.80008486751,,,2018_Apr_02_1302,60.0065822902,MAFE4ImagesEEG,001,203218,
AFNE01.JPG,AFNE01.JPG,AFNE01.JPG,AFNE01.JPG,AFNE01.JPG,AFNE01.JPG,,,,,,,,,,,,,5,3,53,4,,,,,,,,,,,AFSA14.jpg,AFNE14.jpg,AFSA19.jpg,AFNE16.jpg,AFNE14.jpg,FN,3,num_6,32,num_8,1.54995416629,,,2018_Apr_02_1302,60.0065822902,MAFE4ImagesEEG,001,203218,
AFNE01.JPG,AFNE01.JPG,AFNE01.JPG,AFNE01.JPG,AFNE01.JPG,AFNE01.JPG,,,,,,,,,,,,,5,4,54,8,,,,,,,,,,,AFNE13.jpg,AFSA01.jpg,AFNE02.jpg,AFSA07.jpg,AFNE02.jpg,FN,3,num_2,32,num_4,0.633519233787,,,2018_Apr_02_1302,60.0065822902,MAFE4ImagesEEG,001,203218,
AFNE01.JPG,AFNE01.JPG,AFNE01.JPG,AFNE01.JPG,AFNE01.JPG,AFNE01.JPG,,,,,,,,,,,,,5,5,55,0,,,,,,,,,,,AFNE14.jpg,AFSA08.jpg,AFSA10.jpg,AFNE18.jpg,AFSA08.jpg,FS,4,num_6,32,num_4,0.450150715304,,,2018_Apr_02_1302,60.0065822902,MAFE4ImagesEEG,001,203218,
AFNE01.JPG,AFNE01.JPG,AFNE01.JPG,AFNE01.JPG,AFNE01.JPG,AFNE01.JPG,,,,,,,,,,,,,5,6,56,3,,,,,,,,,,,AFSA18.jpg,AFSA03.jpg,AFNE13.jpg,AFNE20.jpg,AFSA03.jpg,FS,4,num_6,32,num_8,0.800166014582,,,2018_Apr_02_1302,60.0065822902,MAFE4ImagesEEG,001,203218,
AFNE01.JPG,AFNE01.JPG,AFNE01.JPG,AFNE01.JPG,AFNE01.JPG,AFNE01.JPG,,,,,,,,,,,,,5,7,57,7,,,,,,,,,,,AFNE19.jpg,AFNE18.jpg,AFSA10.jpg,AFSA11.jpg,AFNE18.jpg,FN,3,num_6,32,num_4,0.400149079622,,,2018_Apr_02_1302,60.0065822902,MAFE4ImagesEEG,001,203218,
AFNE01.JPG,AFNE01.JPG,AFNE01.JPG,AFNE01.JPG,AFNE01.JPG,AFNE01.JPG,,,,,,,,,,,,,5,8,58,6,,,,,,,,,,,AFSA15.jpg,AFSA14.jpg,AFNE13.jpg,AFNE19.jpg,AFSA14.jpg,FS,4,num_6,32,num_4,0.750218904461,,,2018_Apr_02_1302,60.0065822902,MAFE4ImagesEEG,001,203218,
AFNE01.JPG,AFNE01.JPG,AFNE01.JPG,AFNE01.JPG,AFNE01.JPG,AFNE01.JPG,,,,,,,,,,,,,5,9,59,5,,,,,,,,,,,AFSA07.jpg,AFNE17.jpg,AFSA03.jpg,AFNE02.jpg,AFSA03.jpg,FS,4,num_2,32,num_4,0.300189428497,,,2018_Apr_02_1302,60.0065822902,MAFE4ImagesEEG,001,203218,
,,,,,,,,,,,,,,,,,,,,,,,,,,,,,,,,,,,,,,,,,,,space,1.7333473817,2018_Apr_02_1302,60.0065822902,MAFE4ImagesEEG,001,203218,
AFNE01.JPG,AFNE01.JPG,AFNE01.JPG,AFNE01.JPG,AFNE01.JPG,AFNE01.JPG,,,,,,,,,,,,,,,,,0,0,0,7,,,,,,,AMNE20.jpg,AMSA03.jpg,AMSA13.jpg,AMNE03.jpg,AMSA13.jpg,MS,2,num_2,32,num_4,0.333507494768,,,2018_Apr_02_1302,60.0065822902,MAFE4ImagesEEG,001,203218,
AFNE01.JPG,AFNE01.JPG,AFNE01.JPG,AFNE01.JPG,AFNE01.JPG,AFNE01.JPG,,,,,,,,,,,,,,,,,0,1,1,0,,,,,,,AMSA09.jpg,AMSA15.jpg,AMNE18.jpg,AMNE14.jpg,AMNE18.jpg,MN,1,num_2,32,num_6,0.36686116294,,,2018_Apr_02_1302,60.0065822902,MAFE4ImagesEEG,001,203218,
AFNE01.JPG,AFNE01.JPG,AFNE01.JPG,AFNE01.JPG,AFNE01.JPG,AFNE01.JPG,,,,,,,,,,,,,,,,,0,2,2,5,,,,,,,AMSA09.jpg,AMNE03.jpg,AMNE01.jpg,AMSA11.jpg,AMNE03.jpg,MN,1,num_6,32,num_2,0.816767795826,,,2018_Apr_02_1302,60.0065822902,MAFE4ImagesEEG,001,203218,
AFNE01.JPG,AFNE01.JPG,AFNE01.JPG,AFNE01.JPG,AFNE01.JPG,AFNE01.JPG,,,,,,,,,,,,,,,,,0,3,3,9,,,,,,,AMSA10.jpg,AMNE07.jpg,AMNE03.jpg,AMSA20.jpg,AMNE03.jpg,MN,1,num_2,32,num_4,0.300191994524,,,2018_Apr_02_1302,60.0065822902,MAFE4ImagesEEG,001,203218,
AFNE01.JPG,AFNE01.JPG,AFNE01.JPG,AFNE01.JPG,AFNE01.JPG,AFNE01.JPG,,,,,,,,,,,,,,,,,0,4,4,1,,,,,,,AMSA11.jpg,AMSA01.jpg,AMNE16.jpg,AMNE05.jpg,AMNE16.jpg,MN,1,num_2,32,num_8,0.33341351815,,,2018_Apr_02_1302,60.0065822902,MAFE4ImagesEEG,001,203218,
AFNE01.JPG,AFNE01.JPG,AFNE01.JPG,AFNE01.JPG,AFNE01.JPG,AFNE01.JPG,,,,,,,,,,,,,,,,,0,5,5,6,,,,,,,AMNE20.jpg,AMNE15.jpg,AMSA17.jpg,AMSA11.jpg,AMNE15.jpg,MN,1,num_6,16,num_6,0.283515160438,,,2018_Apr_02_1302,60.0065822902,MAFE4ImagesEEG,001,203218,
AFNE01.JPG,AFNE01.JPG,AFNE01.JPG,AFNE01.JPG,AFNE01.JPG,AFNE01.JPG,,,,,,,,,,,,,,,,,0,6,6,3,,,,,,,AMSA06.jpg,AMNE09.jpg,AMNE04.jpg,AMSA19.jpg,AMNE04.jpg,MN,1,num_2,16,num_2,0.3168236044,,,2018_Apr_02_1302,60.0065822902,MAFE4ImagesEEG,001,203218,
AFNE01.JPG,AFNE01.JPG,AFNE01.JPG,AFNE01.JPG,AFNE01.JPG,AFNE01.JPG,,,,,,,,,,,,,,,,,0,7,7,2,,,,,,,AMNE06.jpg,AMNE01.jpg,AMSA13.jpg,AMSA10.jpg,AMSA10.jpg,MS,2,num_4,16,num_4,0.916764331749,,,2018_Apr_02_1302,60.0065822902,MAFE4ImagesEEG,001,203218,
AFNE01.JPG,AFNE01.JPG,AFNE01.JPG,AFNE01.JPG,AFNE01.JPG,AFNE01.JPG,,,,,,,,,,,,,,,,,0,8,8,4,,,,,,,AMSA07.jpg,AMSA03.jpg,AMNE18.jpg,AMNE17.jpg,AMSA07.jpg,MS,2,num_8,16,num_8,0.466819851659,,,2018_Apr_02_1302,60.0065822902,MAFE4ImagesEEG,001,203218,
AFNE01.JPG,AFNE01.JPG,AFNE01.JPG,AFNE01.JPG,AFNE01.JPG,AFNE01.JPG,,,,,,,,,,,,,,,,,0,9,9,8,,,,,,,AMNE13.jpg,AMNE10.jpg,AMSA10.jpg,AMSA03.jpg,AMNE13.jpg,MN,1,num_8,32,num_6,0.33353219158,,,2018_Apr_02_1302,60.0065822902,MAFE4ImagesEEG,001,203218,
AFNE01.JPG,AFNE01.JPG,AFNE01.JPG,AFNE01.JPG,AFNE01.JPG,AFNE01.JPG,,,,,,,,,,,,,,,,,1,0,10,5,,,,,,,AMNE07.jpg,AMSA14.jpg,AMSA04.jpg,AMNE16.jpg,AMNE16.jpg,MN,1,num_4,32,num_2,0.416831686976,,,2018_Apr_02_1302,60.0065822902,MAFE4ImagesEEG,001,203218,
AFNE01.JPG,AFNE01.JPG,AFNE01.JPG,AFNE01.JPG,AFNE01.JPG,AFNE01.JPG,,,,,,,,,,,,,,,,,1,1,11,9,,,,,,,AMNE05.jpg,AMSA07.jpg,AMNE03.jpg,AMSA10.jpg,AMNE05.jpg,MN,1,num_8,32,num_4,0.350192988757,,,2018_Apr_02_1302,60.0065822902,MAFE4ImagesEEG,001,203218,
AFNE01.JPG,AFNE01.JPG,AFNE01.JPG,AFNE01.JPG,AFNE01.JPG,AFNE01.JPG,,,,,,,,,,,,,,,,,1,2,12,6,,,,,,,AMNE13.jpg,AMSA09.jpg,AMNE04.jpg,AMSA05.jpg,AMSA09.jpg,MS,2,num_6,32,num_8,0.30003771896,,,2018_Apr_02_1302,60.0065822902,MAFE4ImagesEEG,001,203218,
AFNE01.JPG,AFNE01.JPG,AFNE01.JPG,AFNE01.JPG,AFNE01.JPG,AFNE01.JPG,,,,,,,,,,,,,,,,,1,3,13,4,,,,,,,AMNE13.jpg,AMSA05.jpg,AMNE02.jpg,AMSA11.jpg,AMSA05.jpg,MS,2,num_6,16,num_6,0.266824213671,,,2018_Apr_02_1302,60.0065822902,MAFE4ImagesEEG,001,203218,
AFNE01.JPG,AFNE01.JPG,AFNE01.JPG,AFNE01.JPG,AFNE01.JPG,AFNE01.JPG,,,,,,,,,,,,,,,,,1,4,14,8,,,,,,,AMNE11.jpg,AMSA02.jpg,AMSA16.jpg,AMNE15.jpg,AMNE15.jpg,MN,1,num_4,32,num_2,0.450200429885,,,2018_Apr_02_1302,60.0065822902,MAFE4ImagesEEG,001,203218,
AFNE01.JPG,AFNE01.JPG,AFNE01.JPG,AFNE01.JPG,AFNE01.JPG,AFNE01.JPG,,,,,,,,,,,,,,,,,1,5,15,1,,,,,,,AMNE12.jpg,AMSA13.jpg,AMSA14.jpg,AMNE17.jpg,AMSA13.jpg,MS,2,num_6,32,num_4,0.300178202684,,,2018_Apr_02_1302,60.0065822902,MAFE4ImagesEEG,001,203218,
AFNE01.JPG,AFNE01.JPG,AFNE01.JPG,AFNE01.JPG,AFNE01.JPG,AFNE01.JPG,,,,,,,,,,,,,,,,,1,6,16,3,,,,,,,AMNE17.jpg,AMSA17.jpg,AMNE05.jpg,AMSA05.jpg,AMNE17.jpg,MN,1,num_8,16,num_8,0.416795764118,,,2018_Apr_02_1302,60.0065822902,MAFE4ImagesEEG,001,203218,
AFNE01.JPG,AFNE01.JPG,AFNE01.JPG,AFNE01.JPG,AFNE01.JPG,AFNE01.JPG,,,,,,,,,,,,,,,,,1,7,17,0,,,,,,,AMSA11.jpg,AMNE12.jpg,AMSA17.jpg,AMNE08.jpg,AMNE12.jpg,MN,1,num_6,16,num_6,0.300178523408,,,2018_Apr_02_1302,60.0065822902,MAFE4ImagesEEG,001,203218,
AFNE01.JPG,AFNE01.JPG,AFNE01.JPG,AFNE01.JPG,AFNE01.JPG,AFNE01.JPG,,,,,,,,,,,,,,,,,1,8,18,7,,,,,,,AMNE18.jpg,AMSA05.jpg,AMNE13.jpg,AMSA06.jpg,AMNE13.jpg,MN,1,num_2,16,num_2,0.516797752818,,,2018_Apr_02_1302,60.0065822902,MAFE4ImagesEEG,001,203218,
AFNE01.JPG,AFNE01.JPG,AFNE01.JPG,AFNE01.JPG,AFNE01.JPG,AFNE01.JPG,,,,,,,,,,,,,,,,,1,9,19,2,,,,,,,AMNE15.jpg,AMNE18.jpg,AMSA16.jpg,AMSA02.jpg,AMNE18.jpg,MN,1,num_6,32,num_4,0.28350585897,,,2018_Apr_02_1302,60.0065822902,MAFE4ImagesEEG,001,203218,
AFNE01.JPG,AFNE01.JPG,AFNE01.JPG,AFNE01.JPG,AFNE01.JPG,AFNE01.JPG,,,,,,,,,,,,,,,,,2,0,20,3,,,,,,,AMSA11.jpg,AMSA08.jpg,AMNE19.jpg,AMNE02.jpg,AMSA11.jpg,MS,2,num_8,32,num_4,0.566873158561,,,2018_Apr_02_1302,60.0065822902,MAFE4ImagesEEG,001,203218,
AFNE01.JPG,AFNE01.JPG,AFNE01.JPG,AFNE01.JPG,AFNE01.JPG,AFNE01.JPG,,,,,,,,,,,,,,,,,2,1,21,9,,,,,,,AMSA10.jpg,AMNE04.jpg,AMNE12.jpg,AMSA02.jpg,AMSA10.jpg,MS,2,num_8,32,num_6,0.283494312316,,,2018_Apr_02_1302,60.0065822902,MAFE4ImagesEEG,001,203218,
AFNE01.JPG,AFNE01.JPG,AFNE01.JPG,AFNE01.JPG,AFNE01.JPG,AFNE01.JPG,,,,,,,,,,,,,,,,,2,2,22,8,,,,,,,AMSA20.jpg,AMSA15.jpg,AMNE18.jpg,AMNE04.jpg,AMNE18.jpg,MN,1,num_2,16,num_2,0.466810550308,,,2018_Apr_02_1302,60.0065822902,MAFE4ImagesEEG,001,203218,
AFNE01.JPG,AFNE01.JPG,AFNE01.JPG,AFNE01.JPG,AFNE01.JPG,AFNE01.JPG,,,,,,,,,,,,,,,,,2,3,23,1,,,,,,,AMNE17.jpg,AMNE19.jpg,AMSA18.jpg,AMSA12.jpg,AMSA12.jpg,MS,2,num_4,16,num_4,0.500161973294,,,2018_Apr_02_1302,60.0065822902,MAFE4ImagesEEG,001,203218,
AFNE01.JPG,AFNE01.JPG,AFNE01.JPG,AFNE01.JPG,AFNE01.JPG,AFNE01.JPG,,,,,,,,,,,,,,,,,2,4,24,6,,,,,,,AMSA20.jpg,AMNE13.jpg,AMSA10.jpg,AMNE15.jpg,AMSA20.jpg,MS,2,num_8,16,num_8,0.466865396709,,,2018_Apr_02_1302,60.0065822902,MAFE4ImagesEEG,001,203218,
AFNE01.JPG,AFNE01.JPG,AFNE01.JPG,AFNE01.JPG,AFNE01.JPG,AFNE01.JPG,,,,,,,,,,,,,,,,,2,5,25,5,,,,,,,AMNE20.jpg,AMSA09.jpg,AMSA18.jpg,AMNE19.jpg,AMSA18.jpg,MS,2,num_2,32,num_6,0.316834188765,,,2018_Apr_02_1302,60.0065822902,MAFE4ImagesEEG,001,203218,
AFNE01.JPG,AFNE01.JPG,AFNE01.JPG,AFNE01.JPG,AFNE01.JPG,AFNE01.JPG,,,,,,,,,,,,,,,,,2,6,26,7,,,,,,,AMSA13.jpg,AMNE11.jpg,AMSA05.jpg,AMNE14.jpg,AMNE14.jpg,MN,1,num_4,32,num_2,0.550181891187,,,2018_Apr_02_1302,60.0065822902,MAFE4ImagesEEG,001,203218,
AFNE01.JPG,AFNE01.JPG,AFNE01.JPG,AFNE01.JPG,AFNE01.JPG,AFNE01.JPG,,,,,,,,,,,,,,,,,2,7,27,2,,,,,,,AMNE02.jpg,AMSA20.jpg,AMSA19.jpg,AMNE08.jpg,AMNE08.jpg,MN,1,num_4,16,num_4,0.566786238225,,,2018_Apr_02_1302,60.0065822902,MAFE4ImagesEEG,001,203218,
AFNE01.JPG,AFNE01.JPG,AFNE01.JPG,AFNE01.JPG,AFNE01.JPG,AFNE01.JPG,,,,,,,,,,,,,,,,,2,8,28,0,,,,,,,AMSA08.jpg,AMSA01.jpg,AMNE13.jpg,AMNE12.jpg,AMSA01.jpg,MS,2,num_6,32,num_8,0.333500438486,,,2018_Apr_02_1302,60.0065822902,MAFE4ImagesEEG,001,203218,
AFNE01.JPG,AFNE01.JPG,AFNE01.JPG,AFNE01.JPG,AFNE01.JPG,AFNE01.JPG,,,,,,,,,,,,,,,,,2,9,29,4,,,,,,,AMNE02.jpg,AMSA04.jpg,AMSA10.jpg,AMNE01.jpg,AMNE01.jpg,MN,1,num_4,32,num_6,0.366820428986,,,2018_Apr_02_1302,60.0065822902,MAFE4ImagesEEG,001,203218,
AFNE01.JPG,AFNE01.JPG,AFNE01.JPG,AFNE01.JPG,AFNE01.JPG,AFNE01.JPG,,,,,,,,,,,,,,,,,3,0,30,1,,,,,,,AMSA06.jpg,AMNE12.jpg,AMSA16.jpg,AMNE10.jpg,AMNE10.jpg,MN,1,num_4,32,num_2,0.333518720581,,,2018_Apr_02_1302,60.0065822902,MAFE4ImagesEEG,001,203218,
AFNE01.JPG,AFNE01.JPG,AFNE01.JPG,AFNE01.JPG,AFNE01.JPG,AFNE01.JPG,,,,,,,,,,,,,,,,,3,1,31,5,,,,,,,AMSA02.jpg,AMSA12.jpg,AMNE08.jpg,AMNE17.jpg,AMNE17.jpg,MN,1,num_4,16,num_4,0.366845767363,,,2018_Apr_02_1302,60.0065822902,MAFE4ImagesEEG,001,203218,
AFNE01.JPG,AFNE01.JPG,AFNE01.JPG,AFNE01.JPG,AFNE01.JPG,AFNE01.JPG,,,,,,,,,,,,,,,,,3,2,32,4,,,,,,,AMSA18.jpg,AMSA10.jpg,AMNE13.jpg,AMNE01.jpg,AMSA10.jpg,MS,2,num_6,32,num_8,0.250229168101,,,2018_Apr_02_1302,60.0065822902,MAFE4ImagesEEG,001,203218,
AFNE01.JPG,AFNE01.JPG,AFNE01.JPG,AFNE01.JPG,AFNE01.JPG,AFNE01.JPG,,,,,,,,,,,,,,,,,3,3,33,7,,,,,,,AMSA04.jpg,AMSA09.jpg,AMNE17.jpg,AMNE03.jpg,AMNE17.jpg,MN,1,num_2,32,num_6,0.233487544698,,,2018_Apr_02_1302,60.0065822902,MAFE4ImagesEEG,001,203218,
AFNE01.JPG,AFNE01.JPG,AFNE01.JPG,AFNE01.JPG,AFNE01.JPG,AFNE01.JPG,,,,,,,,,,,,,,,,,3,4,34,6,,,,,,,AMNE02.jpg,AMNE01.jpg,AMSA05.jpg,AMSA18.jpg,AMSA18.jpg,MS,2,num_4,32,num_2,0.183539793128,,,2018_Apr_02_1302,60.0065822902,MAFE4ImagesEEG,001,203218,
AFNE01.JPG,AFNE01.JPG,AFNE01.JPG,AFNE01.JPG,AFNE01.JPG,AFNE01.JPG,,,,,,,,,,,,,,,,,3,5,35,8,,,,,,,AMSA04.jpg,AMNE08.jpg,AMSA08.jpg,AMNE01.jpg,AMNE01.jpg,MN,1,num_4,16,num_4,0.31683611311,,,2018_Apr_02_1302,60.0065822902,MAFE4ImagesEEG,001,203218,
AFNE01.JPG,AFNE01.JPG,AFNE01.JPG,AFNE01.JPG,AFNE01.JPG,AFNE01.JPG,,,,,,,,,,,,,,,,,3,6,36,3,,,,,,,AMNE01.jpg,AMNE09.jpg,AMSA02.jpg,AMSA18.jpg,AMSA02.jpg,MS,2,num_2,32,num_8,0.63350929087,,,2018_Apr_02_1302,60.0065822902,MAFE4ImagesEEG,001,203218,
AFNE01.JPG,AFNE01.JPG,AFNE01.JPG,AFNE01.JPG,AFNE01.JPG,AFNE01.JPG,,,,,,,,,,,,,,,,,3,7,37,2,,,,,,,AMNE20.jpg,AMSA01.jpg,AMSA02.jpg,AMNE05.jpg,AMNE20.jpg,MN,1,num_8,32,num_6,0.266840892145,,,2018_Apr_02_1302,60.0065822902,MAFE4ImagesEEG,001,203218,
AFNE01.JPG,AFNE01.JPG,AFNE01.JPG,AFNE01.JPG,AFNE01.JPG,AFNE01.JPG,,,,,,,,,,,,,,,,,3,8,38,0,,,,,,,AMNE04.jpg,AMSA07.jpg,AMSA16.jpg,AMNE14.jpg,AMNE14.jpg,MN,1,num_4,32,num_8,0.566814463353,,,2018_Apr_02_1302,60.0065822902,MAFE4ImagesEEG,001,203218,
AFNE01.JPG,AFNE01.JPG,AFNE01.JPG,AFNE01.JPG,AFNE01.JPG,AFNE01.JPG,,,,,,,,,,,,,,,,,3,9,39,9,,,,,,,AMSA08.jpg,AMSA13.jpg,AMNE12.jpg,AMNE16.jpg,AMSA08.jpg,MS,2,num_8,16,num_8,0.483575266902,,,2018_Apr_02_1302,60.0065822902,MAFE4ImagesEEG,001,203218,
AFNE01.JPG,AFNE01.JPG,AFNE01.JPG,AFNE01.JPG,AFNE01.JPG,AFNE01.JPG,,,,,,,,,,,,,,,,,4,0,40,0,,,,,,,AMNE06.jpg,AMNE20.jpg,AMSA01.jpg,AMSA11.jpg,AMSA11.jpg,MS,2,num_4,32,num_2,0.450183109962,,,2018_Apr_02_1302,60.0065822902,MAFE4ImagesEEG,001,203218,
AFNE01.JPG,AFNE01.JPG,AFNE01.JPG,AFNE01.JPG,AFNE01.JPG,AFNE01.JPG,,,,,,,,,,,,,,,,,4,1,41,6,,,,,,,AMSA15.jpg,AMNE09.jpg,AMNE02.jpg,AMSA05.jpg,AMSA15.jpg,MS,2,num_8,32,num_2,0.76680464868,,,2018_Apr_02_1302,60.0065822902,MAFE4ImagesEEG,001,203218,
AFNE01.JPG,AFNE01.JPG,AFNE01.JPG,AFNE01.JPG,AFNE01.JPG,AFNE01.JPG,,,,,,,,,,,,,,,,,4,2,42,8,,,,,,,AMNE13.jpg,AMSA13.jpg,AMNE02.jpg,AMSA12.jpg,AMNE13.jpg,MN,1,num_8,16,num_8,1.00013374828,,,2018_Apr_02_1302,60.0065822902,MAFE4ImagesEEG,001,203218,
AFNE01.JPG,AFNE01.JPG,AFNE01.JPG,AFNE01.JPG,AFNE01.JPG,AFNE01.JPG,,,,,,,,,,,,,,,,,4,3,43,2,,,,,,,AMSA14.jpg,AMSA20.jpg,AMNE08.jpg,AMNE19.jpg,AMSA14.jpg,MS,2,num_8,16,num_8,0.766832552967,,,2018_Apr_02_1302,60.0065822902,MAFE4ImagesEEG,001,203218,
AFNE01.JPG,AFNE01.JPG,AFNE01.JPG,AFNE01.JPG,AFNE01.JPG,AFNE01.JPG,,,,,,,,,,,,,,,,,4,4,44,4,,,,,,,AMSA16.jpg,AMSA11.jpg,AMNE05.jpg,AMNE07.jpg,AMNE07.jpg,MN,1,num_4,16,num_4,0.866894840612,,,2018_Apr_02_1302,60.0065822902,MAFE4ImagesEEG,001,203218,
AFNE01.JPG,AFNE01.JPG,AFNE01.JPG,AFNE01.JPG,AFNE01.JPG,AFNE01.JPG,,,,,,,,,,,,,,,,,4,5,45,5,,,,,,,AMNE09.jpg,AMSA10.jpg,AMNE10.jpg,AMSA08.jpg,AMSA08.jpg,MS,2,num_4,16,num_4,1.01679775282,,,2018_Apr_02_1302,60.0065822902,MAFE4ImagesEEG,001,203218,
AFNE01.JPG,AFNE01.JPG,AFNE01.JPG,AFNE01.JPG,AFNE01.JPG,AFNE01.JPG,,,,,,,,,,,,,,,,,4,6,46,1,,,,,,,AMSA17.jpg,AMSA04.jpg,AMNE18.jpg,AMNE02.jpg,AMNE18.jpg,MN,1,num_2,32,num_4,1.38341643685,,,2018_Apr_02_1302,60.0065822902,MAFE4ImagesEEG,001,203218,
AFNE01.JPG,AFNE01.JPG,AFNE01.JPG,AFNE01.JPG,AFNE01.JPG,AFNE01.JPG,,,,,,,,,,,,,,,,,4,7,47,9,,,,,,,AMNE08.jpg,AMNE14.jpg,AMSA04.jpg,AMSA11.jpg,AMSA11.jpg,MS,2,num_4,16,num_4,0.933467466501,,,2018_Apr_02_1302,60.0065822902,MAFE4ImagesEEG,001,203218,
AFNE01.JPG,AFNE01.JPG,AFNE01.JPG,AFNE01.JPG,AFNE01.JPG,AFNE01.JPG,,,,,,,,,,,,,,,,,4,8,48,7,,,,,,,AMSA18.jpg,AMNE16.jpg,AMSA02.jpg,AMNE19.jpg,AMSA02.jpg,MS,2,num_2,32,num_8,0.116864851327,,,2018_Apr_02_1302,60.0065822902,MAFE4ImagesEEG,001,203218,
AFNE01.JPG,AFNE01.JPG,AFNE01.JPG,AFNE01.JPG,AFNE01.JPG,AFNE01.JPG,,,,,,,,,,,,,,,,,4,9,49,3,,,,,,,AMSA10.jpg,AMNE09.jpg,AMSA08.jpg,AMNE11.jpg,AMSA08.jpg,MS,2,num_2,32,num_6,0.466664934647,,,2018_Apr_02_1302,60.0065822902,MAFE4ImagesEEG,001,203218,
AFNE01.JPG,AFNE01.JPG,AFNE01.JPG,AFNE01.JPG,AFNE01.JPG,AFNE01.JPG,,,,,,,,,,,,,,,,,5,0,50,2,,,,,,,AMNE07.jpg,AMSA11.jpg,AMSA06.jpg,AMNE14.jpg,AMNE14.jpg,MN,1,num_4,32,num_2,0.433511728421,,,2018_Apr_02_1302,60.0065822902,MAFE4ImagesEEG,001,203218,
AFNE01.JPG,AFNE01.JPG,AFNE01.JPG,AFNE01.JPG,AFNE01.JPG,AFNE01.JPG,,,,,,,,,,,,,,,,,5,1,51,4,,,,,,,AMSA01.jpg,AMNE02.jpg,AMNE18.jpg,AMSA08.jpg,AMNE02.jpg,MN,1,num_6,32,num_4,0.400486176484,,,2018_Apr_02_1302,60.0065822902,MAFE4ImagesEEG,001,203218,
AFNE01.JPG,AFNE01.JPG,AFNE01.JPG,AFNE01.JPG,AFNE01.JPG,AFNE01.JPG,,,,,,,,,,,,,,,,,5,2,52,3,,,,,,,AMNE11.jpg,AMNE05.jpg,AMSA04.jpg,AMSA18.jpg,AMNE11.jpg,MN,1,num_8,32,num_6,0.950156488572,,,2018_Apr_02_1302,60.0065822902,MAFE4ImagesEEG,001,203218,
AFNE01.JPG,AFNE01.JPG,AFNE01.JPG,AFNE01.JPG,AFNE01.JPG,AFNE01.JPG,,,,,,,,,,,,,,,,,5,3,53,6,,,,,,,AMSA17.jpg,AMNE10.jpg,AMNE04.jpg,AMSA01.jpg,AMSA17.jpg,MS,2,num_8,32,num_4,0.533507623011,,,2018_Apr_02_1302,60.0065822902,MAFE4ImagesEEG,001,203218,
AFNE01.JPG,AFNE01.JPG,AFNE01.JPG,AFNE01.JPG,AFNE01.JPG,AFNE01.JPG,,,,,,,,,,,,,,,,,5,4,54,0,,,,,,,AMNE18.jpg,AMSA13.jpg,AMSA05.jpg,AMNE04.jpg,AMNE18.jpg,MN,1,num_8,32,num_6,0.383499508258,,,2018_Apr_02_1302,60.0065822902,MAFE4ImagesEEG,001,203218,
AFNE01.JPG,AFNE01.JPG,AFNE01.JPG,AFNE01.JPG,AFNE01.JPG,AFNE01.JPG,,,,,,,,,,,,,,,,,5,5,55,9,,,,,,,AMNE12.jpg,AMNE16.jpg,AMSA09.jpg,AMSA01.jpg,AMSA01.jpg,MS,2,num_4,16,num_4,0.416801537503,,,2018_Apr_02_1302,60.0065822902,MAFE4ImagesEEG,001,203218,
AFNE01.JPG,AFNE01.JPG,AFNE01.JPG,AFNE01.JPG,AFNE01.JPG,AFNE01.JPG,,,,,,,,,,,,,,,,,5,6,56,8,,,,,,,AMSA06.jpg,AMNE11.jpg,AMSA05.jpg,AMNE18.jpg,AMSA06.jpg,MS,2,num_8,16,num_8,0.516836882918,,,2018_Apr_02_1302,60.0065822902,MAFE4ImagesEEG,001,203218,
AFNE01.JPG,AFNE01.JPG,AFNE01.JPG,AFNE01.JPG,AFNE01.JPG,AFNE01.JPG,,,,,,,,,,,,,,,,,5,7,57,1,,,,,,,AMNE03.jpg,AMSA12.jpg,AMNE19.jpg,AMSA13.jpg,AMNE19.jpg,MN,1,num_2,32,num_6,0.316819114028,,,2018_Apr_02_1302,60.0065822902,MAFE4ImagesEEG,001,203218,
AFNE01.JPG,AFNE01.JPG,AFNE01.JPG,AFNE01.JPG,AFNE01.JPG,AFNE01.JPG,,,,,,,,,,,,,,,,,5,8,58,7,,,,,,,AMNE20.jpg,AMSA13.jpg,AMSA03.jpg,AMNE18.jpg,AMSA03.jpg,MS,2,num_2,16,num_2,0.633515064139,,,2018_Apr_02_1302,60.0065822902,MAFE4ImagesEEG,001,203218,
AFNE01.JPG,AFNE01.JPG,AFNE01.JPG,AFNE01.JPG,AFNE01.JPG,AFNE01.JPG,,,,,,,,,,,,,,,,,5,9,59,5,,,,,,,AMNE15.jpg,AMNE10.jpg,AMSA11.jpg,AMSA16.jpg,AMNE10.jpg,MN,1,num_6,16,num_6,0.500192443491,,,2018_Apr_02_1302,60.0065822902,MAFE4ImagesEEG,001,203218,
,,,,,,,,,,,,,,,,,,,,,,,,,,,,,,,,,,,,,,,,,,,space,1.80002264422,2018_Apr_02_1302,60.0065822902,MAFE4ImagesEEG,001,203218,
AFNE01.JPG,AFNE01.JPG,AFNE01.JPG,AFNE01.JPG,AFNE01.JPG,AFNE01.JPG,,,,,,,,,,,,,,,,,,,,,0,0,0,5,,,AFSA20.jpg,AFSA03.jpg,AFNE03.jpg,AFNE02.jpg,AFSA20.jpg,FS,4,num_8,32,num_6,0.333195094718,,,2018_Apr_02_1302,60.0065822902,MAFE4ImagesEEG,001,203218,
AFNE01.JPG,AFNE01.JPG,AFNE01.JPG,AFNE01.JPG,AFNE01.JPG,AFNE01.JPG,,,,,,,,,,,,,,,,,,,,,0,1,1,0,,,AFNE19.jpg,AFSA18.jpg,AFSA02.jpg,AFNE02.jpg,AFSA02.jpg,FS,4,num_2,32,num_6,0.283535687719,,,2018_Apr_02_1302,60.0065822902,MAFE4ImagesEEG,001,203218,
AFNE01.JPG,AFNE01.JPG,AFNE01.JPG,AFNE01.JPG,AFNE01.JPG,AFNE01.JPG,,,,,,,,,,,,,,,,,,,,,0,2,2,8,,,AFSA06.jpg,AFNE03.jpg,AFNE08.jpg,AFSA12.jpg,AFSA06.jpg,FS,4,num_8,32,num_4,0.116844644886,,,2018_Apr_02_1302,60.0065822902,MAFE4ImagesEEG,001,203218,
AFNE01.JPG,AFNE01.JPG,AFNE01.JPG,AFNE01.JPG,AFNE01.JPG,AFNE01.JPG,,,,,,,,,,,,,,,,,,,,,0,3,3,1,,,AFNE04.jpg,AFSA13.jpg,AFNE03.jpg,AFSA03.jpg,AFSA03.jpg,FS,4,num_4,32,num_2,0.366833900101,,,2018_Apr_02_1302,60.0065822902,MAFE4ImagesEEG,001,203218,
AFNE01.JPG,AFNE01.JPG,AFNE01.JPG,AFNE01.JPG,AFNE01.JPG,AFNE01.JPG,,,,,,,,,,,,,,,,,,,,,0,4,4,9,,,AFSA18.jpg,AFSA14.jpg,AFNE11.jpg,AFNE05.jpg,AFNE11.jpg,FN,3,num_2,32,num_6,0.316842848668,,,2018_Apr_02_1302,60.0065822902,MAFE4ImagesEEG,001,203218,
AFNE01.JPG,AFNE01.JPG,AFNE01.JPG,AFNE01.JPG,AFNE01.JPG,AFNE01.JPG,,,,,,,,,,,,,,,,,,,,,0,5,5,6,,,AFNE19.jpg,AFNE04.jpg,AFSA10.jpg,AFSA14.jpg,AFNE04.jpg,FN,3,num_6,32,num_4,0.266827100306,,,2018_Apr_02_1302,60.0065822902,MAFE4ImagesEEG,001,203218,
AFNE01.JPG,AFNE01.JPG,AFNE01.JPG,AFNE01.JPG,AFNE01.JPG,AFNE01.JPG,,,,,,,,,,,,,,,,,,,,,0,6,6,4,,,AFNE16.jpg,AFSA17.jpg,AFNE09.jpg,AFSA14.jpg,AFSA14.jpg,FS,4,num_4,32,num_6,0.366816259455,,,2018_Apr_02_1302,60.0065822902,MAFE4ImagesEEG,001,203218,
AFNE01.JPG,AFNE01.JPG,AFNE01.JPG,AFNE01.JPG,AFNE01.JPG,AFNE01.JPG,,,,,,,,,,,,,,,,,,,,,0,7,7,7,,,AFNE02.jpg,AFSA14.jpg,AFNE10.jpg,AFSA09.jpg,AFNE02.jpg,FN,3,num_8,32,num_4,0.383504640078,,,2018_Apr_02_1302,60.0065822902,MAFE4ImagesEEG,001,203218,
AFNE01.JPG,AFNE01.JPG,AFNE01.JPG,AFNE01.JPG,AFNE01.JPG,AFNE01.JPG,,,,,,,,,,,,,,,,,,,,,0,8,8,2,,,AFNE02.jpg,AFNE15.jpg,AFSA01.jpg,AFSA18.jpg,AFNE02.jpg,FN,3,num_8,32,num_2,0.333499155473,,,2018_Apr_02_1302,60.0065822902,MAFE4ImagesEEG,001,203218,
AFNE01.JPG,AFNE01.JPG,AFNE01.JPG,AFNE01.JPG,AFNE01.JPG,AFNE01.JPG,,,,,,,,,,,,,,,,,,,,,0,9,9,3,,,AFNE20.jpg,AFNE05.jpg,AFSA16.jpg,AFSA17.jpg,AFSA17.jpg,FS,4,num_4,32,num_2,0.733484978788,,,2018_Apr_02_1302,60.0065822902,MAFE4ImagesEEG,001,203218,
AFNE01.JPG,AFNE01.JPG,AFNE01.JPG,AFNE01.JPG,AFNE01.JPG,AFNE01.JPG,,,,,,,,,,,,,,,,,,,,,1,0,10,1,,,AFNE13.jpg,AFNE10.jpg,AFSA03.jpg,AFSA12.jpg,AFSA03.jpg,FS,4,num_2,32,num_6,0.300191673683,,,2018_Apr_02_1302,60.0065822902,MAFE4ImagesEEG,001,203218,
AFNE01.JPG,AFNE01.JPG,AFNE01.JPG,AFNE01.JPG,AFNE01.JPG,AFNE01.JPG,,,,,,,,,,,,,,,,,,,,,1,1,11,6,,,AFNE11.jpg,AFSA06.jpg,AFSA19.jpg,AFNE12.jpg,AFSA19.jpg,FS,4,num_2,32,num_4,0.300217012176,,,2018_Apr_02_1302,60.0065822902,MAFE4ImagesEEG,001,203218,
AFNE01.JPG,AFNE01.JPG,AFNE01.JPG,AFNE01.JPG,AFNE01.JPG,AFNE01.JPG,,,,,,,,,,,,,,,,,,,,,1,2,12,8,,,AFNE04.jpg,AFSA17.jpg,AFNE05.jpg,AFSA19.jpg,AFNE04.jpg,FN,3,num_8,16,num_8,0.300138751743,,,2018_Apr_02_1302,60.0065822902,MAFE4ImagesEEG,001,203218,
AFNE01.JPG,AFNE01.JPG,AFNE01.JPG,AFNE01.JPG,AFNE01.JPG,AFNE01.JPG,,,,,,,,,,,,,,,,,,,,,1,3,13,5,,,AFSA20.jpg,AFNE11.jpg,AFSA04.jpg,AFNE06.jpg,AFNE11.jpg,FN,3,num_6,32,num_4,0.333533474593,,,2018_Apr_02_1302,60.0065822902,MAFE4ImagesEEG,001,203218,
AFNE01.JPG,AFNE01.JPG,AFNE01.JPG,AFNE01.JPG,AFNE01.JPG,AFNE01.JPG,,,,,,,,,,,,,,,,,,,,,1,4,14,4,,,AFSA12.jpg,AFSA17.jpg,AFNE07.jpg,AFNE02.jpg,AFNE02.jpg,FN,3,num_4,32,num_6,0.283507783315,,,2018_Apr_02_1302,60.0065822902,MAFE4ImagesEEG,001,203218,
AFNE01.JPG,AFNE01.JPG,AFNE01.JPG,AFNE01.JPG,AFNE01.JPG,AFNE01.JPG,,,,,,,,,,,,,,,,,,,,,1,5,15,3,,,AFSA02.jpg,AFNE04.jpg,AFNE01.jpg,AFSA08.jpg,AFNE01.jpg,FN,3,num_2,32,num_6,0.216889933217,,,2018_Apr_02_1302,60.0065822902,MAFE4ImagesEEG,001,203218,
AFNE01.JPG,AFNE01.JPG,AFNE01.JPG,AFNE01.JPG,AFNE01.JPG,AFNE01.JPG,,,,,,,,,,,,,,,,,,,,,1,6,16,9,,,AFNE01.jpg,AFSA04.jpg,AFNE20.jpg,AFSA12.jpg,AFNE20.jpg,FN,3,num_2,32,num_4,0.667093891301,,,2018_Apr_02_1302,60.0065822902,MAFE4ImagesEEG,001,203218,
AFNE01.JPG,AFNE01.JPG,AFNE01.JPG,AFNE01.JPG,AFNE01.JPG,AFNE01.JPG,,,,,,,,,,,,,,,,,,,,,1,7,17,0,,,AFNE10.jpg,AFSA04.jpg,AFNE18.jpg,AFSA19.jpg,AFSA19.jpg,FS,4,num_4,16,num_4,0.750143530779,,,2018_Apr_02_1302,60.0065822902,MAFE4ImagesEEG,001,203218,
AFNE01.JPG,AFNE01.JPG,AFNE01.JPG,AFNE01.JPG,AFNE01.JPG,AFNE01.JPG,,,,,,,,,,,,,,,,,,,,,1,8,18,2,,,AFSA13.jpg,AFNE20.jpg,AFNE01.jpg,AFSA09.jpg,AFNE01.jpg,FN,3,num_2,32,num_8,0.316830660682,,,2018_Apr_02_1302,60.0065822902,MAFE4ImagesEEG,001,203218,
AFNE01.JPG,AFNE01.JPG,AFNE01.JPG,AFNE01.JPG,AFNE01.JPG,AFNE01.JPG,,,,,,,,,,,,,,,,,,,,,1,9,19,7,,,AFSA05.jpg,AFNE12.jpg,AFNE14.jpg,AFSA13.jpg,AFNE14.jpg,FN,3,num_2,32,num_6,0.983419387601,,,2018_Apr_02_1302,60.0065822902,MAFE4ImagesEEG,001,203218,
AFNE01.JPG,AFNE01.JPG,AFNE01.JPG,AFNE01.JPG,AFNE01.JPG,AFNE01.JPG,,,,,,,,,,,,,,,,,,,,,2,0,20,4,,,AFNE18.jpg,AFNE16.jpg,AFSA16.jpg,AFSA07.jpg,AFNE16.jpg,FN,3,num_6,32,num_8,0.500194047228,,,2018_Apr_02_1302,60.0065822902,MAFE4ImagesEEG,001,203218,
AFNE01.JPG,AFNE01.JPG,AFNE01.JPG,AFNE01.JPG,AFNE01.JPG,AFNE01.JPG,,,,,,,,,,,,,,,,,,,,,2,1,21,3,,,AFSA13.jpg,AFNE01.jpg,AFNE19.jpg,AFSA09.jpg,AFNE01.jpg,FN,3,num_6,32,num_4,0.416850289796,,,2018_Apr_02_1302,60.0065822902,MAFE4ImagesEEG,001,203218,
AFNE01.JPG,AFNE01.JPG,AFNE01.JPG,AFNE01.JPG,AFNE01.JPG,AFNE01.JPG,,,,,,,,,,,,,,,,,,,,,2,2,22,6,,,AFSA13.jpg,AFNE20.jpg,AFSA03.jpg,AFNE05.jpg,AFSA13.jpg,FS,4,num_8,32,num_2,0.416825272259,,,2018_Apr_02_1302,60.0065822902,MAFE4ImagesEEG,001,203218,
AFNE01.JPG,AFNE01.JPG,AFNE01.JPG,AFNE01.JPG,AFNE01.JPG,AFNE01.JPG,,,,,,,,,,,,,,,,,,,,,2,3,23,0,,,AFNE07.jpg,AFSA07.jpg,AFNE06.jpg,AFSA03.jpg,AFNE07.jpg,FN,3,num_8,32,num_6,0.366857955582,,,2018_Apr_02_1302,60.0065822902,MAFE4ImagesEEG,001,203218,
AFNE01.JPG,AFNE01.JPG,AFNE01.JPG,AFNE01.JPG,AFNE01.JPG,AFNE01.JPG,,,,,,,,,,,,,,,,,,,,,2,4,24,9,,,AFNE15.jpg,AFSA08.jpg,AFSA14.jpg,AFNE19.jpg,AFNE19.jpg,FN,3,num_4,16,num_4,0.300249406835,,,2018_Apr_02_1302,60.0065822902,MAFE4ImagesEEG,001,203218,
AFNE01.JPG,AFNE01.JPG,AFNE01.JPG,AFNE01.JPG,AFNE01.JPG,AFNE01.JPG,,,,,,,,,,,,,,,,,,,,,2,5,25,5,,,AFNE06.jpg,AFNE07.jpg,AFSA17.jpg,AFSA11.jpg,AFNE06.jpg,FN,3,num_8,32,num_2,0.316870432231,,,2018_Apr_02_1302,60.0065822902,MAFE4ImagesEEG,001,203218,
AFNE01.JPG,AFNE01.JPG,AFNE01.JPG,AFNE01.JPG,AFNE01.JPG,AFNE01.JPG,,,,,,,,,,,,,,,,,,,,,2,6,26,2,,,AFNE20.jpg,AFNE19.jpg,AFSA01.jpg,AFSA10.jpg,AFNE20.jpg,FN,3,num_8,16,num_8,0.333598263911,,,2018_Apr_02_1302,60.0065822902,MAFE4ImagesEEG,001,203218,
AFNE01.JPG,AFNE01.JPG,AFNE01.JPG,AFNE01.JPG,AFNE01.JPG,AFNE01.JPG,,,,,,,,,,,,,,,,,,,,,2,7,27,7,,,AFNE08.jpg,AFNE16.jpg,AFSA06.jpg,AFSA03.jpg,AFSA06.jpg,FS,4,num_2,32,num_6,0.550139232888,,,2018_Apr_02_1302,60.0065822902,MAFE4ImagesEEG,001,203218,
AFNE01.JPG,AFNE01.JPG,AFNE01.JPG,AFNE01.JPG,AFNE01.JPG,AFNE01.JPG,,,,,,,,,,,,,,,,,,,,,2,8,28,8,,,AFSA10.jpg,AFSA20.jpg,AFNE19.jpg,AFNE07.jpg,AFSA10.jpg,FS,4,num_8,32,num_4,0.400189172011,,,2018_Apr_02_1302,60.0065822902,MAFE4ImagesEEG,001,203218,
AFNE01.JPG,AFNE01.JPG,AFNE01.JPG,AFNE01.JPG,AFNE01.JPG,AFNE01.JPG,,,,,,,,,,,,,,,,,,,,,2,9,29,1,,,AFNE14.jpg,AFSA17.jpg,AFSA16.jpg,AFNE18.jpg,AFSA16.jpg,FS,4,num_2,16,num_2,0.266869758721,,,2018_Apr_02_1302,60.0065822902,MAFE4ImagesEEG,001,203218,
AFNE01.JPG,AFNE01.JPG,AFNE01.JPG,AFNE01.JPG,AFNE01.JPG,AFNE01.JPG,,,,,,,,,,,,,,,,,,,,,3,0,30,4,,,AFSA19.jpg,AFNE19.jpg,AFNE11.jpg,AFSA12.jpg,AFNE19.jpg,FN,3,num_6,32,num_4,0.316828736104,,,2018_Apr_02_1302,60.0065822902,MAFE4ImagesEEG,001,203218,
AFNE01.JPG,AFNE01.JPG,AFNE01.JPG,AFNE01.JPG,AFNE01.JPG,AFNE01.JPG,,,,,,,,,,,,,,,,,,,,,3,1,31,7,,,AFNE08.jpg,AFNE09.jpg,AFSA03.jpg,AFSA15.jpg,AFNE08.jpg,FN,3,num_8,32,num_6,0.333503966685,,,2018_Apr_02_1302,60.0065822902,MAFE4ImagesEEG,001,203218,
AFNE01.JPG,AFNE01.JPG,AFNE01.JPG,AFNE01.JPG,AFNE01.JPG,AFNE01.JPG,,,,,,,,,,,,,,,,,,,,,3,2,32,6,,,AFSA16.jpg,AFSA18.jpg,AFNE10.jpg,AFNE14.jpg,AFNE14.jpg,FN,3,num_4,32,num_2,0.733501977986,,,2018_Apr_02_1302,60.0065822902,MAFE4ImagesEEG,001,203218,
AFNE01.JPG,AFNE01.JPG,AFNE01.JPG,AFNE01.JPG,AFNE01.JPG,AFNE01.JPG,,,,,,,,,,,,,,,,,,,,,3,3,33,9,,,AFSA08.jpg,AFSA15.jpg,AFNE16.jpg,AFNE02.jpg,AFSA08.jpg,FS,4,num_8,32,num_4,0.533556696144,,,2018_Apr_02_1302,60.0065822902,MAFE4ImagesEEG,001,203218,
AFNE01.JPG,AFNE01.JPG,AFNE01.JPG,AFNE01.JPG,AFNE01.JPG,AFNE01.JPG,,,,,,,,,,,,,,,,,,,,,3,4,34,5,,,AFNE03.jpg,AFSA10.jpg,AFNE15.jpg,AFSA14.jpg,AFNE15.jpg,FN,3,num_2,32,num_8,0.366798618692,,,2018_Apr_02_1302,60.0065822902,MAFE4ImagesEEG,001,203218,
AFNE01.JPG,AFNE01.JPG,AFNE01.JPG,AFNE01.JPG,AFNE01.JPG,AFNE01.JPG,,,,,,,,,,,,,,,,,,,,,3,5,35,1,,,AFSA07.jpg,AFNE04.jpg,AFSA16.jpg,AFNE18.jpg,AFNE04.jpg,FN,3,num_6,32,num_4,0.233498770627,,,2018_Apr_02_1302,60.0065822902,MAFE4ImagesEEG,001,203218,
AFNE01.JPG,AFNE01.JPG,AFNE01.JPG,AFNE01.JPG,AFNE01.JPG,AFNE01.JPG,,,,,,,,,,,,,,,,,,,,,3,6,36,3,,,AFNE11.jpg,AFSA20.jpg,AFSA07.jpg,AFNE10.jpg,AFNE10.jpg,FN,3,num_4,32,num_6,0.316813019919,,,2018_Apr_02_1302,60.0065822902,MAFE4ImagesEEG,001,203218,
AFNE01.JPG,AFNE01.JPG,AFNE01.JPG,AFNE01.JPG,AFNE01.JPG,AFNE01.JPG,,,,,,,,,,,,,,,,,,,,,3,7,37,8,,,AFSA03.jpg,AFNE19.jpg,AFSA14.jpg,AFNE18.jpg,AFNE18.jpg,FN,3,num_4,16,num_4,0.300191032351,,,2018_Apr_02_1302,60.0065822902,MAFE4ImagesEEG,001,203218,
AFNE01.JPG,AFNE01.JPG,AFNE01.JPG,AFNE01.JPG,AFNE01.JPG,AFNE01.JPG,,,,,,,,,,,,,,,,,,,,,3,8,38,2,,,AFSA20.jpg,AFNE04.jpg,AFNE12.jpg,AFSA05.jpg,AFSA05.jpg,FS,4,num_4,16,num_4,0.333516796236,,,2018_Apr_02_1302,60.0065822902,MAFE4ImagesEEG,001,203218,
