IPosition2,IPosition3,IPosition1,IPosition6,IPosition4,IPosition5,TrialsF1.thisRepN,TrialsF1.thisTrialN,TrialsF1.thisN,TrialsF1.thisIndex,TrialsM1.thisRepN,TrialsM1.thisTrialN,TrialsM1.thisN,TrialsM1.thisIndex,TrialsF2.thisRepN,TrialsF2.thisTrialN,TrialsF2.thisN,TrialsF2.thisIndex,TrialsM2.thisRepN,TrialsM2.thisTrialN,TrialsM2.thisN,TrialsM2.thisIndex,TrialsF3.thisRepN,TrialsF3.thisTrialN,TrialsF3.thisN,TrialsF3.thisIndex,TrialsM3.thisRepN,TrialsM3.thisTrialN,TrialsM3.thisN,TrialsM3.thisIndex,InstrKey_resp.keys,InstrKey_resp.rt,Image0 _Position,Image1 _Position,Image2 _Position,Image3 _Position,Center_image,condition,code,correct_answer,accuracy,Key_Resp.keys,Key_Resp.rt,BreakKey_resp.keys,BreakKey_resp.rt,date,frameRate,expName,session,participant,
,,,,,,,,,,,,,,,,,,,,,,,,,,,,,,space,3.11668716185,,,,,,,,,,,,,,2018_Mar_28_1120,60.0057738568,FEMA4ImagesEEG,001,203292,
AMSA25.JPG,AMNE24.JPG,AMSA24.JPG,AMNE26.JPG,AMSA21.JPG,AMNE25.JPG,0,0,0,3,,,,,,,,,,,,,,,,,,,,,,,AFSA15.jpg,AFSA12.jpg,AFNE04.jpg,AFNE12.jpg,AFNE12.jpg,FN,3,num_4,32,num_8,0.883507206046,,,2018_Mar_28_1120,60.0057738568,FEMA4ImagesEEG,001,203292,
AFNE22.JPG,AFSA24.JPG,AFSA22.JPG,AFNE25.JPG,AFNE24.JPG,AFSA25.JPG,0,1,1,6,,,,,,,,,,,,,,,,,,,,,,,AFSA07.jpg,AFSA19.jpg,AFNE18.jpg,AFNE01.jpg,AFNE01.jpg,FN,3,num_4,32,num_6,0.700401693757,,,2018_Mar_28_1120,60.0057738568,FEMA4ImagesEEG,001,203292,
AMNE23.JPG,AMNE24.JPG,AMNE22.JPG,AMSA24.JPG,AMSA22.JPG,AMSA23.JPG,0,2,2,9,,,,,,,,,,,,,,,,,,,,,,,AFNE15.jpg,AFSA03.jpg,AFNE09.jpg,AFSA05.jpg,AFSA05.jpg,FS,4,num_4,32,num_2,1.61673848017,,,2018_Mar_28_1120,60.0057738568,FEMA4ImagesEEG,001,203292,
AMNE22.JPG,AMSA24.JPG,AMSA22.JPG,AMNE25.JPG,AMNE24.JPG,AMSA25.JPG,0,3,3,7,,,,,,,,,,,,,,,,,,,,,,,AFSA18.jpg,AFSA10.jpg,AFNE20.jpg,AFNE17.jpg,AFNE17.jpg,FN,3,num_4,32,num_8,0.750170152169,,,2018_Mar_28_1120,60.0057738568,FEMA4ImagesEEG,001,203292,
AMSA21.JPG,AMNE22.JPG,AMNE21.JPG,AMSA23.JPG,AMSA22.JPG,AMNE23.JPG,0,4,4,1,,,,,,,,,,,,,,,,,,,,,,,AFSA03.jpg,AFSA16.jpg,AFNE15.jpg,AFNE03.jpg,AFSA03.jpg,FS,4,num_8,16,num_8,0.949991628702,,,2018_Mar_28_1120,60.0057738568,FEMA4ImagesEEG,001,203292,
AFSA21.JPG,AFNE22.JPG,AFNE21.JPG,AFSA23.JPG,AFSA22.JPG,AFNE23.JPG,0,5,5,0,,,,,,,,,,,,,,,,,,,,,,,AFNE09.jpg,AFSA03.jpg,AFNE10.jpg,AFSA11.jpg,AFNE10.jpg,FN,3,num_2,32,num_8,0.833483760012,,,2018_Mar_28_1120,60.0057738568,FEMA4ImagesEEG,001,203292,
AFSA25.JPG,AFNE24.JPG,AFSA24.JPG,AFNE21.JPG,AFSA21.JPG,AFNE25.JPG,0,6,6,2,,,,,,,,,,,,,,,,,,,,,,,AFNE19.jpg,AFSA10.jpg,AFNE03.jpg,AFSA08.jpg,AFSA10.jpg,FS,4,num_6,32,num_8,0.733485941018,,,2018_Mar_28_1120,60.0057738568,FEMA4ImagesEEG,001,203292,
AFSA21.JPG,AFNE23.JPG,AFNE21.JPG,AFSA25.JPG,AFNE25.JPG,AFSA23.JPG,0,7,7,4,,,,,,,,,,,,,,,,,,,,,,,AFNE01.jpg,AFSA16.jpg,AFNE04.jpg,AFSA14.jpg,AFSA16.jpg,FS,4,num_6,32,num_2,2.66653548437,,,2018_Mar_28_1120,60.0057738568,FEMA4ImagesEEG,001,203292,
AMSA21.JPG,AMNE23.JPG,AMNE21.JPG,AMSA25.JPG,AMNE25.JPG,AMSA23.JPG,0,8,8,5,,,,,,,,,,,,,,,,,,,,,,,AFSA01.jpg,AFNE16.jpg,AFSA06.jpg,AFNE10.jpg,AFSA01.jpg,FS,4,num_8,16,num_8,1.10016396188,,,2018_Mar_28_1120,60.0057738568,FEMA4ImagesEEG,001,203292,
AFNE23.JPG,AFNE24.JPG,AFNE22.JPG,AFSA24.JPG,AFSA22.JPG,AFSA23.JPG,0,9,9,8,,,,,,,,,,,,,,,,,,,,,,,AFSA12.jpg,AFNE06.jpg,AFSA11.jpg,AFNE17.jpg,AFNE06.jpg,FN,3,num_6,32,num_8,0.733482412936,,,2018_Mar_28_1120,60.0057738568,FEMA4ImagesEEG,001,203292,
AFSA21.JPG,AFNE22.JPG,AFNE21.JPG,AFSA23.JPG,AFSA22.JPG,AFNE23.JPG,,,,,0,0,0,0,,,,,,,,,,,,,,,,,,,AMSA20.jpg,AMNE12.jpg,AMNE05.jpg,AMSA02.jpg,AMSA20.jpg,MS,2,num_8,32,num_6,1.28341573122,,,2018_Mar_28_1120,60.0057738568,FEMA4ImagesEEG,001,203292,
AMNE23.JPG,AMNE24.JPG,AMNE22.JPG,AMSA24.JPG,AMSA22.JPG,AMSA23.JPG,,,,,0,1,1,9,,,,,,,,,,,,,,,,,,,AMNE13.jpg,AMSA06.jpg,AMNE10.jpg,AMSA18.jpg,AMNE13.jpg,MN,1,num_8,16,num_8,0.616827324964,,,2018_Mar_28_1120,60.0057738568,FEMA4ImagesEEG,001,203292,
AMSA25.JPG,AMNE24.JPG,AMSA24.JPG,AMNE26.JPG,AMSA21.JPG,AMNE25.JPG,,,,,0,2,2,3,,,,,,,,,,,,,,,,,,,AMNE19.jpg,AMNE01.jpg,AMSA16.jpg,AMSA05.jpg,AMSA16.jpg,MS,2,num_2,32,num_8,0.800124639238,,,2018_Mar_28_1120,60.0057738568,FEMA4ImagesEEG,001,203292,
AFNE22.JPG,AFSA24.JPG,AFSA22.JPG,AFNE25.JPG,AFNE24.JPG,AFSA25.JPG,,,,,0,3,3,6,,,,,,,,,,,,,,,,,,,AMNE06.jpg,AMSA01.jpg,AMSA03.jpg,AMNE14.jpg,AMSA01.jpg,MS,2,num_6,32,num_2,1.6334384075,,,2018_Mar_28_1120,60.0057738568,FEMA4ImagesEEG,001,203292,
AFSA25.JPG,AFNE24.JPG,AFSA24.JPG,AFNE21.JPG,AFSA21.JPG,AFNE25.JPG,,,,,0,4,4,2,,,,,,,,,,,,,,,,,,,AMNE11.jpg,AMNE10.jpg,AMSA18.jpg,AMSA13.jpg,AMNE10.jpg,MN,1,num_6,32,num_8,0.816877488513,,,2018_Mar_28_1120,60.0057738568,FEMA4ImagesEEG,001,203292,
AMSA21.JPG,AMNE22.JPG,AMNE21.JPG,AMSA23.JPG,AMSA22.JPG,AMNE23.JPG,,,,,0,5,5,1,,,,,,,,,,,,,,,,,,,AMNE11.jpg,AMSA06.jpg,AMNE10.jpg,AMSA07.jpg,AMNE10.jpg,MN,1,num_2,32,num_8,0.850096767012,,,2018_Mar_28_1120,60.0057738568,FEMA4ImagesEEG,001,203292,
AMNE22.JPG,AMSA24.JPG,AMSA22.JPG,AMNE25.JPG,AMNE24.JPG,AMSA25.JPG,,,,,0,6,6,7,,,,,,,,,,,,,,,,,,,AMNE11.jpg,AMSA06.jpg,AMNE01.jpg,AMSA10.jpg,AMSA06.jpg,MS,2,num_6,32,num_8,0.733470866282,,,2018_Mar_28_1120,60.0057738568,FEMA4ImagesEEG,001,203292,
AFSA21.JPG,AFNE23.JPG,AFNE21.JPG,AFSA25.JPG,AFNE25.JPG,AFSA23.JPG,,,,,0,7,7,4,,,,,,,,,,,,,,,,,,,AMNE06.jpg,AMNE10.jpg,AMSA15.jpg,AMSA18.jpg,AMNE10.jpg,MN,1,num_6,32,num_8,0.750160850701,,,2018_Mar_28_1120,60.0057738568,FEMA4ImagesEEG,001,203292,
AMSA21.JPG,AMNE23.JPG,AMNE21.JPG,AMSA25.JPG,AMNE25.JPG,AMSA23.JPG,,,,,0,8,8,5,,,,,,,,,,,,,,,,,,,AMNE01.jpg,AMNE13.jpg,AMSA13.jpg,AMSA06.jpg,AMNE13.jpg,MN,1,num_6,32,num_8,2.01675509446,,,2018_Mar_28_1120,60.0057738568,FEMA4ImagesEEG,001,203292,
AFNE23.JPG,AFNE24.JPG,AFNE22.JPG,AFSA24.JPG,AFSA22.JPG,AFSA23.JPG,,,,,0,9,9,8,,,,,,,,,,,,,,,,,,,AMSA05.jpg,AMNE19.jpg,AMNE07.jpg,AMSA19.jpg,AMNE19.jpg,MN,1,num_6,16,num_6,1.08347109077,,,2018_Mar_28_1120,60.0057738568,FEMA4ImagesEEG,001,203292,
AFNE22.JPG,AFSA24.JPG,AFSA22.JPG,AFNE25.JPG,AFNE24.JPG,AFSA25.JPG,,,,,,,,,0,0,0,6,,,,,,,,,,,,,,,AFSA20.jpg,AFNE11.jpg,AFNE19.jpg,AFSA15.jpg,AFNE11.jpg,FN,3,num_6,16,num_6,1.15007739438,,,2018_Mar_28_1120,60.0057738568,FEMA4ImagesEEG,001,203292,
AFNE23.JPG,AFNE24.JPG,AFNE22.JPG,AFSA24.JPG,AFSA22.JPG,AFSA23.JPG,,,,,,,,,0,1,1,8,,,,,,,,,,,,,,,AFSA20.jpg,AFSA16.jpg,AFNE05.jpg,AFNE04.jpg,AFSA20.jpg,FS,4,num_8,16,num_8,1.06679201155,,,2018_Mar_28_1120,60.0057738568,FEMA4ImagesEEG,001,203292,
AMSA25.JPG,AMNE24.JPG,AMSA24.JPG,AMNE26.JPG,AMSA21.JPG,AMNE25.JPG,,,,,,,,,0,2,2,3,,,,,,,,,,,,,,,AFSA07.jpg,AFNE10.jpg,AFSA16.jpg,AFNE19.jpg,AFSA16.jpg,FS,4,num_2,32,num_8,0.90044223523,,,2018_Mar_28_1120,60.0057738568,FEMA4ImagesEEG,001,203292,
AMNE23.JPG,AMNE24.JPG,AMNE22.JPG,AMSA24.JPG,AMSA22.JPG,AMSA23.JPG,,,,,,,,,0,3,3,9,,,,,,,,,,,,,,,AFSA20.jpg,AFNE01.jpg,AFSA13.jpg,AFNE07.jpg,AFNE01.jpg,FN,3,num_6,32,num_8,1.63344867114,,,2018_Mar_28_1120,60.0057738568,FEMA4ImagesEEG,001,203292,
AFSA21.JPG,AFNE22.JPG,AFNE21.JPG,AFSA23.JPG,AFSA22.JPG,AFNE23.JPG,,,,,,,,,0,4,4,0,,,,,,,,,,,,,,,AFSA02.jpg,AFSA20.jpg,AFNE13.jpg,AFNE16.jpg,AFSA02.jpg,FS,4,num_8,16,num_8,0.733459961193,,,2018_Mar_28_1120,60.0057738568,FEMA4ImagesEEG,001,203292,
AFSA25.JPG,AFNE24.JPG,AFSA24.JPG,AFNE21.JPG,AFSA21.JPG,AFNE25.JPG,,,,,,,,,0,5,5,2,,,,,,,,,,,,,,,AFSA12.jpg,AFNE09.jpg,AFNE06.jpg,AFSA11.jpg,AFNE09.jpg,FN,3,num_6,32,num_2,1.76673472754,,,2018_Mar_28_1120,60.0057738568,FEMA4ImagesEEG,001,203292,
AMNE22.JPG,AMSA24.JPG,AMSA22.JPG,AMNE25.JPG,AMNE24.JPG,AMSA25.JPG,,,,,,,,,0,6,6,7,,,,,,,,,,,,,,,AFNE17.jpg,AFSA07.jpg,AFSA18.jpg,AFNE01.jpg,AFNE17.jpg,FN,3,num_8,32,num_6,1.18333484081,,,2018_Mar_28_1120,60.0057738568,FEMA4ImagesEEG,001,203292,
AMSA21.JPG,AMNE23.JPG,AMNE21.JPG,AMSA25.JPG,AMNE25.JPG,AMSA23.JPG,,,,,,,,,0,7,7,5,,,,,,,,,,,,,,,AFNE09.jpg,AFSA09.jpg,AFSA02.jpg,AFNE13.jpg,AFSA02.jpg,FS,4,num_2,16,num_2,1.01681763859,,,2018_Mar_28_1120,60.0057738568,FEMA4ImagesEEG,001,203292,
AMSA21.JPG,AMNE22.JPG,AMNE21.JPG,AMSA23.JPG,AMSA22.JPG,AMNE23.JPG,,,,,,,,,0,8,8,1,,,,,,,,,,,,,,,AFSA02.jpg,AFNE14.jpg,AFNE17.jpg,AFSA20.jpg,AFSA20.jpg,FS,4,num_4,16,num_4,1.10014600051,,,2018_Mar_28_1120,60.0057738568,FEMA4ImagesEEG,001,203292,
AFSA21.JPG,AFNE23.JPG,AFNE21.JPG,AFSA25.JPG,AFNE25.JPG,AFSA23.JPG,,,,,,,,,0,9,9,4,,,,,,,,,,,,,,,AFSA06.jpg,AFNE12.jpg,AFSA13.jpg,AFNE05.jpg,AFNE12.jpg,FN,3,num_6,16,num_6,1.41674188001,,,2018_Mar_28_1120,60.0057738568,FEMA4ImagesEEG,001,203292,
AMSA21.JPG,AMNE23.JPG,AMNE21.JPG,AMSA25.JPG,AMNE25.JPG,AMSA23.JPG,,,,,,,,,,,,,0,0,0,5,,,,,,,,,,,AMSA15.jpg,AMNE13.jpg,AMSA20.jpg,AMNE03.jpg,AMNE13.jpg,MN,1,num_6,32,num_8,0.783532801026,,,2018_Mar_28_1120,60.0057738568,FEMA4ImagesEEG,001,203292,
AFNE22.JPG,AFSA24.JPG,AFSA22.JPG,AFNE25.JPG,AFNE24.JPG,AFSA25.JPG,,,,,,,,,,,,,0,1,1,6,,,,,,,,,,,AMNE16.jpg,AMSA04.jpg,AMSA09.jpg,AMNE15.jpg,AMNE16.jpg,MN,1,num_8,16,num_8,0.750137436728,,,2018_Mar_28_1120,60.0057738568,FEMA4ImagesEEG,001,203292,
AFSA21.JPG,AFNE22.JPG,AFNE21.JPG,AFSA23.JPG,AFSA22.JPG,AFNE23.JPG,,,,,,,,,,,,,0,2,2,0,,,,,,,,,,,AMSA09.jpg,AMSA20.jpg,AMNE06.jpg,AMNE01.jpg,AMSA20.jpg,MS,2,num_6,16,num_6,0.633488442807,,,2018_Mar_28_1120,60.0057738568,FEMA4ImagesEEG,001,203292,
AFSA25.JPG,AFNE24.JPG,AFSA24.JPG,AFNE21.JPG,AFSA21.JPG,AFNE25.JPG,,,,,,,,,,,,,0,3,3,2,,,,,,,,,,,AMNE10.jpg,AMSA12.jpg,AMNE01.jpg,AMSA06.jpg,AMSA06.jpg,MS,2,num_4,32,num_8,0.700206684298,,,2018_Mar_28_1120,60.0057738568,FEMA4ImagesEEG,001,203292,
AMNE22.JPG,AMSA24.JPG,AMSA22.JPG,AMNE25.JPG,AMNE24.JPG,AMSA25.JPG,,,,,,,,,,,,,0,4,4,7,,,,,,,,,,,AMSA14.jpg,AMSA10.jpg,AMNE06.jpg,AMNE15.jpg,AMSA14.jpg,MS,2,num_8,16,num_8,1.10011264362,,,2018_Mar_28_1120,60.0057738568,FEMA4ImagesEEG,001,203292,
AFNE23.JPG,AFNE24.JPG,AFNE22.JPG,AFSA24.JPG,AFSA22.JPG,AFSA23.JPG,,,,,,,,,,,,,0,5,5,8,,,,,,,,,,,AMNE17.jpg,AMNE07.jpg,AMSA04.jpg,AMSA03.jpg,AMSA04.jpg,MS,2,num_2,16,num_2,2.48334690061,,,2018_Mar_28_1120,60.0057738568,FEMA4ImagesEEG,001,203292,
AMNE23.JPG,AMNE24.JPG,AMNE22.JPG,AMSA24.JPG,AMSA22.JPG,AMSA23.JPG,,,,,,,,,,,,,0,6,6,9,,,,,,,,,,,AMSA14.jpg,AMNE19.jpg,AMNE08.jpg,AMSA18.jpg,AMSA18.jpg,MS,2,num_4,16,num_4,1.58338417049,,,2018_Mar_28_1120,60.0057738568,FEMA4ImagesEEG,001,203292,
AMSA25.JPG,AMNE24.JPG,AMSA24.JPG,AMNE26.JPG,AMSA21.JPG,AMNE25.JPG,,,,,,,,,,,,,0,7,7,3,,,,,,,,,,,AMNE18.jpg,AMSA14.jpg,AMNE05.jpg,AMSA12.jpg,AMSA12.jpg,MS,2,num_4,32,num_8,0.916773633217,,,2018_Mar_28_1120,60.0057738568,FEMA4ImagesEEG,001,203292,
AMSA21.JPG,AMNE22.JPG,AMNE21.JPG,AMSA23.JPG,AMSA22.JPG,AMNE23.JPG,,,,,,,,,,,,,0,8,8,1,,,,,,,,,,,AMNE02.jpg,AMSA17.jpg,AMNE04.jpg,AMSA05.jpg,AMSA17.jpg,MS,2,num_6,32,num_2,1.26672863349,,,2018_Mar_28_1120,60.0057738568,FEMA4ImagesEEG,001,203292,
AFSA21.JPG,AFNE23.JPG,AFNE21.JPG,AFSA25.JPG,AFNE25.JPG,AFSA23.JPG,,,,,,,,,,,,,0,9,9,4,,,,,,,,,,,AMSA08.jpg,AMSA14.jpg,AMNE09.jpg,AMNE10.jpg,AMNE10.jpg,MN,1,num_4,16,num_4,0.76680464868,,,2018_Mar_28_1120,60.0057738568,FEMA4ImagesEEG,001,203292,
AMSA21.JPG,AMNE22.JPG,AMNE21.JPG,AMSA23.JPG,AMSA22.JPG,AMNE23.JPG,,,,,,,,,,,,,,,,,0,0,0,1,,,,,,,AFSA06.jpg,AFSA17.jpg,AFNE08.jpg,AFNE01.jpg,AFNE01.jpg,FN,3,num_4,32,num_8,1.73341120884,,,2018_Mar_28_1120,60.0057738568,FEMA4ImagesEEG,001,203292,
AFSA21.JPG,AFNE23.JPG,AFNE21.JPG,AFSA25.JPG,AFNE25.JPG,AFSA23.JPG,,,,,,,,,,,,,,,,,0,1,1,4,,,,,,,AFNE16.jpg,AFSA19.jpg,AFSA03.jpg,AFNE09.jpg,AFSA03.jpg,FS,4,num_2,32,num_6,0.650145070336,,,2018_Mar_28_1120,60.0057738568,FEMA4ImagesEEG,001,203292,
AFSA25.JPG,AFNE24.JPG,AFSA24.JPG,AFNE21.JPG,AFSA21.JPG,AFNE25.JPG,,,,,,,,,,,,,,,,,0,2,2,2,,,,,,,AFNE04.jpg,AFSA02.jpg,AFNE14.jpg,AFSA08.jpg,AFNE14.jpg,FN,3,num_2,16,num_2,0.950132753933,,,2018_Mar_28_1120,60.0057738568,FEMA4ImagesEEG,001,203292,
AFNE23.JPG,AFNE24.JPG,AFNE22.JPG,AFSA24.JPG,AFSA22.JPG,AFSA23.JPG,,,,,,,,,,,,,,,,,0,3,3,8,,,,,,,AFSA15.jpg,AFNE13.jpg,AFSA09.jpg,AFNE02.jpg,AFNE13.jpg,FN,3,num_6,16,num_6,1.01679326239,,,2018_Mar_28_1120,60.0057738568,FEMA4ImagesEEG,001,203292,
AFNE22.JPG,AFSA24.JPG,AFSA22.JPG,AFNE25.JPG,AFNE24.JPG,AFSA25.JPG,,,,,,,,,,,,,,,,,0,4,4,6,,,,,,,AFSA18.jpg,AFNE16.jpg,AFNE17.jpg,AFSA06.jpg,AFSA06.jpg,FS,4,num_4,16,num_4,0.650281384529,,,2018_Mar_28_1120,60.0057738568,FEMA4ImagesEEG,001,203292,
AMNE22.JPG,AMSA24.JPG,AMSA22.JPG,AMNE25.JPG,AMNE24.JPG,AMSA25.JPG,,,,,,,,,,,,,,,,,0,5,5,7,,,,,,,AFNE05.jpg,AFNE17.jpg,AFSA12.jpg,AFSA08.jpg,AFNE17.jpg,FN,3,num_6,32,num_8,1.25012653158,,,2018_Mar_28_1120,60.0057738568,FEMA4ImagesEEG,001,203292,
AFSA21.JPG,AFNE22.JPG,AFNE21.JPG,AFSA23.JPG,AFSA22.JPG,AFNE23.JPG,,,,,,,,,,,,,,,,,0,6,6,0,,,,,,,AFNE14.jpg,AFNE01.jpg,AFSA14.jpg,AFSA08.jpg,AFSA08.jpg,FS,4,num_4,32,num_6,1.15013576893,,,2018_Mar_28_1120,60.0057738568,FEMA4ImagesEEG,001,203292,
AMSA21.JPG,AMNE23.JPG,AMNE21.JPG,AMSA25.JPG,AMNE25.JPG,AMSA23.JPG,,,,,,,,,,,,,,,,,0,7,7,5,,,,,,,AFSA06.jpg,AFNE07.jpg,AFSA15.jpg,AFNE13.jpg,AFNE07.jpg,FN,3,num_6,32,num_2,1.03338381764,,,2018_Mar_28_1120,60.0057738568,FEMA4ImagesEEG,001,203292,
AMSA25.JPG,AMNE24.JPG,AMSA24.JPG,AMNE26.JPG,AMSA21.JPG,AMNE25.JPG,,,,,,,,,,,,,,,,,0,8,8,3,,,,,,,AFSA13.jpg,AFNE16.jpg,AFSA20.jpg,AFNE08.jpg,AFNE08.jpg,FN,3,num_4,32,num_6,1.61676189414,,,2018_Mar_28_1120,60.0057738568,FEMA4ImagesEEG,001,203292,
AMNE23.JPG,AMNE24.JPG,AMNE22.JPG,AMSA24.JPG,AMSA22.JPG,AMSA23.JPG,,,,,,,,,,,,,,,,,0,9,9,9,,,,,,,AFNE13.jpg,AFSA05.jpg,AFSA13.jpg,AFNE05.jpg,AFSA05.jpg,FS,4,num_6,16,num_6,1.18338872498,,,2018_Mar_28_1120,60.0057738568,FEMA4ImagesEEG,001,203292,
AFSA21.JPG,AFNE22.JPG,AFNE21.JPG,AFSA23.JPG,AFSA22.JPG,AFNE23.JPG,,,,,,,,,,,,,,,,,,,,,0,0,0,0,,,AMSA11.jpg,AMSA16.jpg,AMNE13.jpg,AMNE05.jpg,AMSA11.jpg,MS,2,num_8,32,num_2,1.81664912222,,,2018_Mar_28_1120,60.0057738568,FEMA4ImagesEEG,001,203292,
AMSA21.JPG,AMNE22.JPG,AMNE21.JPG,AMSA23.JPG,AMSA22.JPG,AMNE23.JPG,,,,,,,,,,,,,,,,,,,,,0,1,1,1,,,AMNE07.jpg,AMSA14.jpg,AMNE20.jpg,AMSA04.jpg,AMNE07.jpg,MN,1,num_8,32,num_2,1.18344998616,,,2018_Mar_28_1120,60.0057738568,FEMA4ImagesEEG,001,203292,
AMNE22.JPG,AMSA24.JPG,AMSA22.JPG,AMNE25.JPG,AMNE24.JPG,AMSA25.JPG,,,,,,,,,,,,,,,,,,,,,0,2,2,7,,,AMNE06.jpg,AMSA19.jpg,AMSA08.jpg,AMNE01.jpg,AMNE01.jpg,MN,1,num_4,16,num_4,0.900153569877,,,2018_Mar_28_1120,60.0057738568,FEMA4ImagesEEG,001,203292,
AFSA21.JPG,AFNE23.JPG,AFNE21.JPG,AFSA25.JPG,AFNE25.JPG,AFSA23.JPG,,,,,,,,,,,,,,,,,,,,,0,3,3,4,,,AMNE06.jpg,AMSA12.jpg,AMNE18.jpg,AMSA19.jpg,AMSA12.jpg,MS,2,num_6,32,num_8,0.83350749471,,,2018_Mar_28_1120,60.0057738568,FEMA4ImagesEEG,001,203292,
AFNE23.JPG,AFNE24.JPG,AFNE22.JPG,AFSA24.JPG,AFSA22.JPG,AFSA23.JPG,,,,,,,,,,,,,,,,,,,,,0,4,4,8,,,AMSA06.jpg,AMNE02.jpg,AMNE06.jpg,AMSA14.jpg,AMNE02.jpg,MN,1,num_6,32,num_4,1.36681080685,,,2018_Mar_28_1120,60.0057738568,FEMA4ImagesEEG,001,203292,
AMSA21.JPG,AMNE23.JPG,AMNE21.JPG,AMSA25.JPG,AMNE25.JPG,AMSA23.JPG,,,,,,,,,,,,,,,,,,,,,0,5,5,5,,,AMNE02.jpg,AMSA07.jpg,AMSA08.jpg,AMNE19.jpg,AMSA08.jpg,MS,2,num_2,16,num_2,1.76672286016,,,2018_Mar_28_1120,60.0057738568,FEMA4ImagesEEG,001,203292,
AFNE22.JPG,AFSA24.JPG,AFSA22.JPG,AFNE25.JPG,AFNE24.JPG,AFSA25.JPG,,,,,,,,,,,,,,,,,,,,,0,6,6,6,,,AMSA15.jpg,AMNE12.jpg,AMSA05.jpg,AMNE09.jpg,AMSA15.jpg,MS,2,num_8,16,num_8,1.43329971988,,,2018_Mar_28_1120,60.0057738568,FEMA4ImagesEEG,001,203292,
AMNE23.JPG,AMNE24.JPG,AMNE22.JPG,AMSA24.JPG,AMSA22.JPG,AMSA23.JPG,,,,,,,,,,,,,,,,,,,,,0,7,7,9,,,AMSA11.jpg,AMNE04.jpg,AMSA01.jpg,AMNE02.jpg,AMSA11.jpg,MS,2,num_8,32,num_4,0.950139489491,,,2018_Mar_28_1120,60.0057738568,FEMA4ImagesEEG,001,203292,
AMSA25.JPG,AMNE24.JPG,AMSA24.JPG,AMNE26.JPG,AMSA21.JPG,AMNE25.JPG,,,,,,,,,,,,,,,,,,,,,0,8,8,3,,,AMSA19.jpg,AMSA08.jpg,AMNE01.jpg,AMNE16.jpg,AMNE01.jpg,MN,1,num_2,16,num_2,1.51672302058,,,2018_Mar_28_1120,60.0057738568,FEMA4ImagesEEG,001,203292,
AFSA25.JPG,AFNE24.JPG,AFSA24.JPG,AFNE21.JPG,AFSA21.JPG,AFNE25.JPG,,,,,,,,,,,,,,,,,,,,,0,9,9,2,,,AMSA06.jpg,AMNE10.jpg,AMNE08.jpg,AMSA02.jpg,AMNE08.jpg,MN,1,num_2,32,num_8,0.750214093365,,,2018_Mar_28_1120,60.0057738568,FEMA4ImagesEEG,001,203292,
,,,,,,,,,,,,,,,,,,,,,,,,,,,,,,,,,,,,,,,,,,,space,11.6992794274,2018_Mar_28_1120,60.0057738568,FEMA4ImagesEEG,001,203292,
AFNE01.JPG,AFNE01.JPG,AFNE01.JPG,AFNE01.JPG,AFNE01.JPG,AFNE01.JPG,0,0,0,4,,,,,,,,,,,,,,,,,,,,,,,AFSA12.jpg,AFNE12.jpg,AFNE01.jpg,AFSA17.jpg,AFNE01.jpg,FN,3,num_2,32,num_6,1.23350582691,,,2018_Mar_28_1120,60.0057738568,FEMA4ImagesEEG,001,203292,
AFNE01.JPG,AFNE01.JPG,AFNE01.JPG,AFNE01.JPG,AFNE01.JPG,AFNE01.JPG,0,1,1,7,,,,,,,,,,,,,,,,,,,,,,,AFSA01.jpg,AFSA14.jpg,AFNE01.jpg,AFNE07.jpg,AFNE01.jpg,FN,3,num_2,32,num_8,0.883472245478,,,2018_Mar_28_1120,60.0057738568,FEMA4ImagesEEG,001,203292,
AFNE01.JPG,AFNE01.JPG,AFNE01.JPG,AFNE01.JPG,AFNE01.JPG,AFNE01.JPG,0,2,2,9,,,,,,,,,,,,,,,,,,,,,,,AFNE05.jpg,AFSA05.jpg,AFNE06.jpg,AFSA10.jpg,AFSA10.jpg,FS,4,num_4,32,num_2,1.31718443596,,,2018_Mar_28_1120,60.0057738568,FEMA4ImagesEEG,001,203292,
AFNE01.JPG,AFNE01.JPG,AFNE01.JPG,AFNE01.JPG,AFNE01.JPG,AFNE01.JPG,0,3,3,1,,,,,,,,,,,,,,,,,,,,,,,AFNE03.jpg,AFSA19.jpg,AFNE08.jpg,AFSA09.jpg,AFSA09.jpg,FS,4,num_4,32,num_6,1.13340986171,,,2018_Mar_28_1120,60.0057738568,FEMA4ImagesEEG,001,203292,
AFNE01.JPG,AFNE01.JPG,AFNE01.JPG,AFNE01.JPG,AFNE01.JPG,AFNE01.JPG,0,4,4,0,,,,,,,,,,,,,,,,,,,,,,,AFNE01.jpg,AFSA06.jpg,AFNE13.jpg,AFSA16.jpg,AFSA16.jpg,FS,4,num_4,16,num_4,0.816802756337,,,2018_Mar_28_1120,60.0057738568,FEMA4ImagesEEG,001,203292,
AFNE01.JPG,AFNE01.JPG,AFNE01.JPG,AFNE01.JPG,AFNE01.JPG,AFNE01.JPG,0,5,5,8,,,,,,,,,,,,,,,,,,,,,,,AFSA20.jpg,AFNE05.jpg,AFNE03.jpg,AFSA18.jpg,AFNE03.jpg,FN,3,num_2,32,num_8,0.866754356772,,,2018_Mar_28_1120,60.0057738568,FEMA4ImagesEEG,001,203292,
AFNE01.JPG,AFNE01.JPG,AFNE01.JPG,AFNE01.JPG,AFNE01.JPG,AFNE01.JPG,0,6,6,6,,,,,,,,,,,,,,,,,,,,,,,AFSA17.jpg,AFNE05.jpg,AFSA07.jpg,AFNE06.jpg,AFSA07.jpg,FS,4,num_2,32,num_6,2.1500466034,,,2018_Mar_28_1120,60.0057738568,FEMA4ImagesEEG,001,203292,
AFNE01.JPG,AFNE01.JPG,AFNE01.JPG,AFNE01.JPG,AFNE01.JPG,AFNE01.JPG,0,7,7,3,,,,,,,,,,,,,,,,,,,,,,,AFNE03.jpg,AFSA16.jpg,AFSA01.jpg,AFNE13.jpg,AFSA16.jpg,FS,4,num_6,32,num_4,0.750165982521,,,2018_Mar_28_1120,60.0057738568,FEMA4ImagesEEG,001,203292,
AFNE01.JPG,AFNE01.JPG,AFNE01.JPG,AFNE01.JPG,AFNE01.JPG,AFNE01.JPG,0,8,8,2,,,,,,,,,,,,,,,,,,,,,,,AFNE08.jpg,AFSA15.jpg,AFNE16.jpg,AFSA06.jpg,AFNE08.jpg,FN,3,num_8,16,num_8,1.01678748912,,,2018_Mar_28_1120,60.0057738568,FEMA4ImagesEEG,001,203292,
AFNE01.JPG,AFNE01.JPG,AFNE01.JPG,AFNE01.JPG,AFNE01.JPG,AFNE01.JPG,0,9,9,5,,,,,,,,,,,,,,,,,,,,,,,AFSA02.jpg,AFNE17.jpg,AFNE08.jpg,AFSA07.jpg,AFNE17.jpg,FN,3,num_6,16,num_6,1.63343680376,,,2018_Mar_28_1120,60.0057738568,FEMA4ImagesEEG,001,203292,
AFNE01.JPG,AFNE01.JPG,AFNE01.JPG,AFNE01.JPG,AFNE01.JPG,AFNE01.JPG,1,0,10,6,,,,,,,,,,,,,,,,,,,,,,,AFNE04.jpg,AFSA11.jpg,AFNE12.jpg,AFSA19.jpg,AFSA19.jpg,FS,4,num_4,32,num_6,1.25014770043,,,2018_Mar_28_1120,60.0057738568,FEMA4ImagesEEG,001,203292,
AFNE01.JPG,AFNE01.JPG,AFNE01.JPG,AFNE01.JPG,AFNE01.JPG,AFNE01.JPG,1,1,11,1,,,,,,,,,,,,,,,,,,,,,,,AFNE09.jpg,AFSA08.jpg,AFSA01.jpg,AFNE20.jpg,AFNE20.jpg,FN,3,num_4,32,num_8,0.783329452388,,,2018_Mar_28_1120,60.0057738568,FEMA4ImagesEEG,001,203292,
AFNE01.JPG,AFNE01.JPG,AFNE01.JPG,AFNE01.JPG,AFNE01.JPG,AFNE01.JPG,1,2,12,8,,,,,,,,,,,,,,,,,,,,,,,AFSA20.jpg,AFNE06.jpg,AFNE16.jpg,AFSA12.jpg,AFSA20.jpg,FS,4,num_8,32,num_6,0.800105394912,,,2018_Mar_28_1120,60.0057738568,FEMA4ImagesEEG,001,203292,
AFNE01.JPG,AFNE01.JPG,AFNE01.JPG,AFNE01.JPG,AFNE01.JPG,AFNE01.JPG,1,3,13,5,,,,,,,,,,,,,,,,,,,,,,,AFSA03.jpg,AFNE14.jpg,AFSA17.jpg,AFNE03.jpg,AFSA17.jpg,FS,4,num_2,32,num_4,0.633552590618,,,2018_Mar_28_1120,60.0057738568,FEMA4ImagesEEG,001,203292,
AFNE01.JPG,AFNE01.JPG,AFNE01.JPG,AFNE01.JPG,AFNE01.JPG,AFNE01.JPG,1,4,14,0,,,,,,,,,,,,,,,,,,,,,,,AFNE17.jpg,AFNE18.jpg,AFSA07.jpg,AFSA06.jpg,AFSA06.jpg,FS,4,num_4,32,num_2,1.13347400952,,,2018_Mar_28_1120,60.0057738568,FEMA4ImagesEEG,001,203292,
AFNE01.JPG,AFNE01.JPG,AFNE01.JPG,AFNE01.JPG,AFNE01.JPG,AFNE01.JPG,1,5,15,7,,,,,,,,,,,,,,,,,,,,,,,AFNE16.jpg,AFNE15.jpg,AFSA20.jpg,AFSA01.jpg,AFNE15.jpg,FN,3,num_6,32,num_8,1.38347384916,,,2018_Mar_28_1120,60.0057738568,FEMA4ImagesEEG,001,203292,
AFNE01.JPG,AFNE01.JPG,AFNE01.JPG,AFNE01.JPG,AFNE01.JPG,AFNE01.JPG,1,6,16,3,,,,,,,,,,,,,,,,,,,,,,,AFSA15.jpg,AFNE10.jpg,AFNE16.jpg,AFSA03.jpg,AFNE16.jpg,FN,3,num_2,16,num_2,1.21675458126,,,2018_Mar_28_1120,60.0057738568,FEMA4ImagesEEG,001,203292,
AFNE01.JPG,AFNE01.JPG,AFNE01.JPG,AFNE01.JPG,AFNE01.JPG,AFNE01.JPG,1,7,17,2,,,,,,,,,,,,,,,,,,,,,,,AFNE13.jpg,AFSA05.jpg,AFSA14.jpg,AFNE09.jpg,AFNE09.jpg,FN,3,num_4,32,num_6,1.08330366493,,,2018_Mar_28_1120,60.0057738568,FEMA4ImagesEEG,001,203292,
AFNE01.JPG,AFNE01.JPG,AFNE01.JPG,AFNE01.JPG,AFNE01.JPG,AFNE01.JPG,1,8,18,9,,,,,,,,,,,,,,,,,,,,,,,AFNE07.jpg,AFNE17.jpg,AFSA08.jpg,AFSA10.jpg,AFNE17.jpg,FN,3,num_6,32,num_4,0.833489533281,,,2018_Mar_28_1120,60.0057738568,FEMA4ImagesEEG,001,203292,
AFNE01.JPG,AFNE01.JPG,AFNE01.JPG,AFNE01.JPG,AFNE01.JPG,AFNE01.JPG,1,9,19,4,,,,,,,,,,,,,,,,,,,,,,,AFSA15.jpg,AFNE03.jpg,AFNE10.jpg,AFSA03.jpg,AFSA03.jpg,FS,4,num_4,16,num_4,0.550157835765,,,2018_Mar_28_1120,60.0057738568,FEMA4ImagesEEG,001,203292,
AFNE01.JPG,AFNE01.JPG,AFNE01.JPG,AFNE01.JPG,AFNE01.JPG,AFNE01.JPG,2,0,20,1,,,,,,,,,,,,,,,,,,,,,,,AFNE14.jpg,AFSA10.jpg,AFSA04.jpg,AFNE06.jpg,AFNE06.jpg,FN,3,num_4,32,num_6,1.81668023393,,,2018_Mar_28_1120,60.0057738568,FEMA4ImagesEEG,001,203292,
AFNE01.JPG,AFNE01.JPG,AFNE01.JPG,AFNE01.JPG,AFNE01.JPG,AFNE01.JPG,2,1,21,6,,,,,,,,,,,,,,,,,,,,,,,AFSA01.jpg,AFNE15.jpg,AFNE13.jpg,AFSA17.jpg,AFSA01.jpg,FS,4,num_8,32,num_4,1.26649385242,,,2018_Mar_28_1120,60.0057738568,FEMA4ImagesEEG,001,203292,
AFNE01.JPG,AFNE01.JPG,AFNE01.JPG,AFNE01.JPG,AFNE01.JPG,AFNE01.JPG,2,2,22,2,,,,,,,,,,,,,,,,,,,,,,,AFNE15.jpg,AFSA11.jpg,AFNE19.jpg,AFSA02.jpg,AFSA11.jpg,FS,4,num_6,16,num_6,0.733522826049,,,2018_Mar_28_1120,60.0057738568,FEMA4ImagesEEG,001,203292,
AFNE01.JPG,AFNE01.JPG,AFNE01.JPG,AFNE01.JPG,AFNE01.JPG,AFNE01.JPG,2,3,23,9,,,,,,,,,,,,,,,,,,,,,,,AFNE19.jpg,AFSA17.jpg,AFSA09.jpg,AFNE16.jpg,AFNE19.jpg,FN,3,num_8,32,num_4,1.36681722163,,,2018_Mar_28_1120,60.0057738568,FEMA4ImagesEEG,001,203292,
AFNE01.JPG,AFNE01.JPG,AFNE01.JPG,AFNE01.JPG,AFNE01.JPG,AFNE01.JPG,2,4,24,8,,,,,,,,,,,,,,,,,,,,,,,AFSA19.jpg,AFNE07.jpg,AFNE18.jpg,AFSA13.jpg,AFSA19.jpg,FS,4,num_8,32,num_4,0.8668149765,,,2018_Mar_28_1120,60.0057738568,FEMA4ImagesEEG,001,203292,
AFNE01.JPG,AFNE01.JPG,AFNE01.JPG,AFNE01.JPG,AFNE01.JPG,AFNE01.JPG,2,5,25,0,,,,,,,,,,,,,,,,,,,,,,,AFSA02.jpg,AFNE04.jpg,AFNE18.jpg,AFSA06.jpg,AFNE04.jpg,FN,3,num_6,16,num_6,0.516836562194,,,2018_Mar_28_1120,60.0057738568,FEMA4ImagesEEG,001,203292,
AFNE01.JPG,AFNE01.JPG,AFNE01.JPG,AFNE01.JPG,AFNE01.JPG,AFNE01.JPG,2,6,26,4,,,,,,,,,,,,,,,,,,,,,,,AFNE14.jpg,AFNE07.jpg,AFSA16.jpg,AFSA01.jpg,AFSA16.jpg,FS,4,num_2,32,num_4,0.766783800616,,,2018_Mar_28_1120,60.0057738568,FEMA4ImagesEEG,001,203292,
AFNE01.JPG,AFNE01.JPG,AFNE01.JPG,AFNE01.JPG,AFNE01.JPG,AFNE01.JPG,2,7,27,3,,,,,,,,,,,,,,,,,,,,,,,AFSA13.jpg,AFNE16.jpg,AFSA19.jpg,AFNE12.jpg,AFSA13.jpg,FS,4,num_8,16,num_8,0.800151581352,,,2018_Mar_28_1120,60.0057738568,FEMA4ImagesEEG,001,203292,
AFNE01.JPG,AFNE01.JPG,AFNE01.JPG,AFNE01.JPG,AFNE01.JPG,AFNE01.JPG,2,8,28,5,,,,,,,,,,,,,,,,,,,,,,,AFNE01.jpg,AFSA10.jpg,AFNE15.jpg,AFSA20.jpg,AFSA10.jpg,FS,4,num_6,16,num_6,0.900024953473,,,2018_Mar_28_1120,60.0057738568,FEMA4ImagesEEG,001,203292,
AFNE01.JPG,AFNE01.JPG,AFNE01.JPG,AFNE01.JPG,AFNE01.JPG,AFNE01.JPG,2,9,29,7,,,,,,,,,,,,,,,,,,,,,,,AFNE20.jpg,AFSA08.jpg,AFSA10.jpg,AFNE03.jpg,AFSA10.jpg,FS,4,num_2,32,num_4,2.06673684443,,,2018_Mar_28_1120,60.0057738568,FEMA4ImagesEEG,001,203292,
AFNE01.JPG,AFNE01.JPG,AFNE01.JPG,AFNE01.JPG,AFNE01.JPG,AFNE01.JPG,3,0,30,0,,,,,,,,,,,,,,,,,,,,,,,AFSA11.jpg,AFSA02.jpg,AFNE01.jpg,AFNE04.jpg,AFNE01.jpg,FN,3,num_2,32,num_6,0.983473271888,,,2018_Mar_28_1120,60.0057738568,FEMA4ImagesEEG,001,203292,
AFNE01.JPG,AFNE01.JPG,AFNE01.JPG,AFNE01.JPG,AFNE01.JPG,AFNE01.JPG,3,1,31,4,,,,,,,,,,,,,,,,,,,,,,,AFNE11.jpg,AFNE09.jpg,AFSA16.jpg,AFSA17.jpg,AFNE11.jpg,FN,3,num_8,16,num_8,0.816752079525,,,2018_Mar_28_1120,60.0057738568,FEMA4ImagesEEG,001,203292,
AFNE01.JPG,AFNE01.JPG,AFNE01.JPG,AFNE01.JPG,AFNE01.JPG,AFNE01.JPG,3,2,32,2,,,,,,,,,,,,,,,,,,,,,,,AFNE15.jpg,AFSA20.jpg,AFSA19.jpg,AFNE06.jpg,AFSA19.jpg,FS,4,num_2,32,num_6,0.933493125543,,,2018_Mar_28_1120,60.0057738568,FEMA4ImagesEEG,001,203292,
AFNE01.JPG,AFNE01.JPG,AFNE01.JPG,AFNE01.JPG,AFNE01.JPG,AFNE01.JPG,3,3,33,5,,,,,,,,,,,,,,,,,,,,,,,AFNE04.jpg,AFSA16.jpg,AFSA03.jpg,AFNE08.jpg,AFSA16.jpg,FS,4,num_6,32,num_2,0.733523467497,,,2018_Mar_28_1120,60.0057738568,FEMA4ImagesEEG,001,203292,
AFNE01.JPG,AFNE01.JPG,AFNE01.JPG,AFNE01.JPG,AFNE01.JPG,AFNE01.JPG,3,4,34,1,,,,,,,,,,,,,,,,,,,,,,,AFNE12.jpg,AFNE02.jpg,AFSA20.jpg,AFSA03.jpg,AFNE12.jpg,FN,3,num_8,16,num_8,0.600179357338,,,2018_Mar_28_1120,60.0057738568,FEMA4ImagesEEG,001,203292,
AFNE01.JPG,AFNE01.JPG,AFNE01.JPG,AFNE01.JPG,AFNE01.JPG,AFNE01.JPG,3,5,35,8,,,,,,,,,,,,,,,,,,,,,,,AFNE14.jpg,AFNE19.jpg,AFSA15.jpg,AFSA09.jpg,AFNE19.jpg,FN,3,num_6,32,num_8,1.01675541518,,,2018_Mar_28_1120,60.0057738568,FEMA4ImagesEEG,001,203292,
AFNE01.JPG,AFNE01.JPG,AFNE01.JPG,AFNE01.JPG,AFNE01.JPG,AFNE01.JPG,3,6,36,3,,,,,,,,,,,,,,,,,,,,,,,AFNE10.jpg,AFSA15.jpg,AFSA12.jpg,AFNE12.jpg,AFSA12.jpg,FS,4,num_2,16,num_2,1.03345887066,,,2018_Mar_28_1120,60.0057738568,FEMA4ImagesEEG,001,203292,
AFNE01.JPG,AFNE01.JPG,AFNE01.JPG,AFNE01.JPG,AFNE01.JPG,AFNE01.JPG,3,7,37,9,,,,,,,,,,,,,,,,,,,,,,,AFSA03.jpg,AFNE03.jpg,AFNE04.jpg,AFSA05.jpg,AFNE04.jpg,FN,3,num_2,32,num_8,0.650150202157,,,2018_Mar_28_1120,60.0057738568,FEMA4ImagesEEG,001,203292,
AFNE01.JPG,AFNE01.JPG,AFNE01.JPG,AFNE01.JPG,AFNE01.JPG,AFNE01.JPG,3,8,38,7,,,,,,,,,,,,,,,,,,,,,,,AFSA07.jpg,AFNE09.jpg,AFSA18.jpg,AFNE12.jpg,AFNE12.jpg,FN,3,num_4,16,num_4,0.583459864953,,,2018_Mar_28_1120,60.0057738568,FEMA4ImagesEEG,001,203292,
AFNE01.JPG,AFNE01.JPG,AFNE01.JPG,AFNE01.JPG,AFNE01.JPG,AFNE01.JPG,3,9,39,6,,,,,,,,,,,,,,,,,,,,,,,AFNE06.jpg,AFSA19.jpg,AFSA05.jpg,AFNE03.jpg,AFSA19.jpg,FS,4,num_6,32,num_2,0.983500855393,,,2018_Mar_28_1120,60.0057738568,FEMA4ImagesEEG,001,203292,
AFNE01.JPG,AFNE01.JPG,AFNE01.JPG,AFNE01.JPG,AFNE01.JPG,AFNE01.JPG,4,0,40,5,,,,,,,,,,,,,,,,,,,,,,,AFSA02.jpg,AFNE14.jpg,AFSA06.jpg,AFNE18.jpg,AFSA06.jpg,FS,4,num_2,32,num_6,0.683542679821,,,2018_Mar_28_1120,60.0057738568,FEMA4ImagesEEG,001,203292,
AFNE01.JPG,AFNE01.JPG,AFNE01.JPG,AFNE01.JPG,AFNE01.JPG,AFNE01.JPG,4,1,41,0,,,,,,,,,,,,,,,,,,,,,,,AFNE09.jpg,AFSA14.jpg,AFSA09.jpg,AFNE07.jpg,AFNE09.jpg,FN,3,num_8,16,num_8,0.583489693701,,,2018_Mar_28_1120,60.0057738568,FEMA4ImagesEEG,001,203292,
AFNE01.JPG,AFNE01.JPG,AFNE01.JPG,AFNE01.JPG,AFNE01.JPG,AFNE01.JPG,4,2,42,4,,,,,,,,,,,,,,,,,,,,,,,AFSA07.jpg,AFNE09.jpg,AFSA18.jpg,AFNE04.jpg,AFNE04.jpg,FN,3,num_4,16,num_4,0.466824983538,,,2018_Mar_28_1120,60.0057738568,FEMA4ImagesEEG,001,203292,
AFNE01.JPG,AFNE01.JPG,AFNE01.JPG,AFNE01.JPG,AFNE01.JPG,AFNE01.JPG,4,3,43,7,,,,,,,,,,,,,,,,,,,,,,,AFSA14.jpg,AFNE15.jpg,AFNE16.jpg,AFSA07.jpg,AFSA07.jpg,FS,4,num_4,32,num_8,0.55015142099,,,2018_Mar_28_1120,60.0057738568,FEMA4ImagesEEG,001,203292,
AFNE01.JPG,AFNE01.JPG,AFNE01.JPG,AFNE01.JPG,AFNE01.JPG,AFNE01.JPG,4,4,44,6,,,,,,,,,,,,,,,,,,,,,,,AFNE07.jpg,AFSA08.jpg,AFNE16.jpg,AFSA18.jpg,AFNE07.jpg,FN,3,num_8,32,num_6,2.81662378384,,,2018_Mar_28_1120,60.0057738568,FEMA4ImagesEEG,001,203292,
AFNE01.JPG,AFNE01.JPG,AFNE01.JPG,AFNE01.JPG,AFNE01.JPG,AFNE01.JPG,4,5,45,2,,,,,,,,,,,,,,,,,,,,,,,AFNE18.jpg,AFSA05.jpg,AFSA16.jpg,AFNE20.jpg,AFNE18.jpg,FN,3,num_8,16,num_8,0.550199211109,,,2018_Mar_28_1120,60.0057738568,FEMA4ImagesEEG,001,203292,
AFNE01.JPG,AFNE01.JPG,AFNE01.JPG,AFNE01.JPG,AFNE01.JPG,AFNE01.JPG,4,6,46,1,,,,,,,,,,,,,,,,,,,,,,,AFNE09.jpg,AFNE13.jpg,AFSA12.jpg,AFSA01.jpg,AFSA01.jpg,FS,4,num_4,16,num_4,0.600168772973,,,2018_Mar_28_1120,60.0057738568,FEMA4ImagesEEG,001,203292,
AFNE01.JPG,AFNE01.JPG,AFNE01.JPG,AFNE01.JPG,AFNE01.JPG,AFNE01.JPG,4,7,47,8,,,,,,,,,,,,,,,,,,,,,,,AFNE13.jpg,AFSA12.jpg,AFNE11.jpg,AFSA13.jpg,AFSA13.jpg,FS,4,num_4,32,num_6,2.25005308236,,,2018_Mar_28_1120,60.0057738568,FEMA4ImagesEEG,001,203292,
AFNE01.JPG,AFNE01.JPG,AFNE01.JPG,AFNE01.JPG,AFNE01.JPG,AFNE01.JPG,4,8,48,9,,,,,,,,,,,,,,,,,,,,,,,AFNE07.jpg,AFNE12.jpg,AFSA14.jpg,AFSA05.jpg,AFNE07.jpg,FN,3,num_8,16,num_8,0.733485941077,,,2018_Mar_28_1120,60.0057738568,FEMA4ImagesEEG,001,203292,
AFNE01.JPG,AFNE01.JPG,AFNE01.JPG,AFNE01.JPG,AFNE01.JPG,AFNE01.JPG,4,9,49,3,,,,,,,,,,,,,,,,,,,,,,,AFSA16.jpg,AFNE04.jpg,AFSA15.jpg,AFNE05.jpg,AFNE04.jpg,FN,3,num_6,32,num_8,1.03348677495,,,2018_Mar_28_1120,60.0057738568,FEMA4ImagesEEG,001,203292,
AFNE01.JPG,AFNE01.JPG,AFNE01.JPG,AFNE01.JPG,AFNE01.JPG,AFNE01.JPG,5,0,50,6,,,,,,,,,,,,,,,,,,,,,,,AFSA08.jpg,AFNE12.jpg,AFSA15.jpg,AFNE20.jpg,AFSA08.jpg,FS,4,num_8,32,num_4,0.983567889896,,,2018_Mar_28_1120,60.0057738568,FEMA4ImagesEEG,001,203292,
AFNE01.JPG,AFNE01.JPG,AFNE01.JPG,AFNE01.JPG,AFNE01.JPG,AFNE01.JPG,5,1,51,0,,,,,,,,,,,,,,,,,,,,,,,AFNE16.jpg,AFSA12.jpg,AFNE19.jpg,AFSA11.jpg,AFSA11.jpg,FS,4,num_4,32,num_8,1.41673706891,,,2018_Mar_28_1120,60.0057738568,FEMA4ImagesEEG,001,203292,
AFNE01.JPG,AFNE01.JPG,AFNE01.JPG,AFNE01.JPG,AFNE01.JPG,AFNE01.JPG,5,2,52,9,,,,,,,,,,,,,,,,,,,,,,,AFSA04.jpg,AFSA16.jpg,AFNE11.jpg,AFNE08.jpg,AFSA16.jpg,FS,4,num_6,16,num_6,0.666785660898,,,2018_Mar_28_1120,60.0057738568,FEMA4ImagesEEG,001,203292,
AFNE01.JPG,AFNE01.JPG,AFNE01.JPG,AFNE01.JPG,AFNE01.JPG,AFNE01.JPG,5,3,53,8,,,,,,,,,,,,,,,,,,,,,,,AFNE08.jpg,AFSA10.jpg,AFSA03.jpg,AFNE01.jpg,AFNE01.jpg,FN,3,num_4,32,num_8,0.850103823293,,,2018_Mar_28_1120,60.0057738568,FEMA4ImagesEEG,001,203292,
AFNE01.JPG,AFNE01.JPG,AFNE01.JPG,AFNE01.JPG,AFNE01.JPG,AFNE01.JPG,5,4,54,7,,,,,,,,,,,,,,,,,,,,,,,AFNE08.jpg,AFSA18.jpg,AFSA15.jpg,AFNE02.jpg,AFNE08.jpg,FN,3,num_8,32,num_4,0.850147764548,,,2018_Mar_28_1120,60.0057738568,FEMA4ImagesEEG,001,203292,
AFNE01.JPG,AFNE01.JPG,AFNE01.JPG,AFNE01.JPG,AFNE01.JPG,AFNE01.JPG,5,5,55,3,,,,,,,,,,,,,,,,,,,,,,,AFNE10.jpg,AFSA12.jpg,AFNE02.jpg,AFSA18.jpg,AFNE02.jpg,FN,3,num_2,32,num_8,0.650136089593,,,2018_Mar_28_1120,60.0057738568,FEMA4ImagesEEG,001,203292,
AFNE01.JPG,AFNE01.JPG,AFNE01.JPG,AFNE01.JPG,AFNE01.JPG,AFNE01.JPG,5,6,56,1,,,,,,,,,,,,,,,,,,,,,,,AFNE17.jpg,AFNE03.jpg,AFSA05.jpg,AFSA15.jpg,AFNE17.jpg,FN,3,num_8,32,num_6,0.833503966569,,,2018_Mar_28_1120,60.0057738568,FEMA4ImagesEEG,001,203292,
AFNE01.JPG,AFNE01.JPG,AFNE01.JPG,AFNE01.JPG,AFNE01.JPG,AFNE01.JPG,5,7,57,5,,,,,,,,,,,,,,,,,,,,,,,AFNE13.jpg,AFSA06.jpg,AFSA16.jpg,AFNE01.jpg,AFNE13.jpg,FN,3,num_8,32,num_4,0.700187760754,,,2018_Mar_28_1120,60.0057738568,FEMA4ImagesEEG,001,203292,
AFNE01.JPG,AFNE01.JPG,AFNE01.JPG,AFNE01.JPG,AFNE01.JPG,AFNE01.JPG,5,8,58,2,,,,,,,,,,,,,,,,,,,,,,,AFSA02.jpg,AFNE11.jpg,AFSA03.jpg,AFNE20.jpg,AFSA03.jpg,FS,4,num_2,32,num_6,0.800128167379,,,2018_Mar_28_1120,60.0057738568,FEMA4ImagesEEG,001,203292,
AFNE01.JPG,AFNE01.JPG,AFNE01.JPG,AFNE01.JPG,AFNE01.JPG,AFNE01.JPG,5,9,59,4,,,,,,,,,,,,,,,,,,,,,,,AFNE13.jpg,AFNE01.jpg,AFSA17.jpg,AFSA11.jpg,AFNE01.jpg,FN,3,num_6,16,num_6,0.933455599123,,,2018_Mar_28_1120,60.0057738568,FEMA4ImagesEEG,001,203292,
,,,,,,,,,,,,,,,,,,,,,,,,,,,,,,,,,,,,,,,,,,,space,11.5993014942,2018_Mar_28_1120,60.0057738568,FEMA4ImagesEEG,001,203292,
AFNE01.JPG,AFNE01.JPG,AFNE01.JPG,AFNE01.JPG,AFNE01.JPG,AFNE01.JPG,,,,,0,0,0,1,,,,,,,,,,,,,,,,,,,AMSA01.jpg,AMSA09.jpg,AMNE14.jpg,AMNE10.jpg,AMNE10.jpg,MN,1,num_4,32,num_6,0.750151549233,,,2018_Mar_28_1120,60.0057738568,FEMA4ImagesEEG,001,203292,
AFNE01.JPG,AFNE01.JPG,AFNE01.JPG,AFNE01.JPG,AFNE01.JPG,AFNE01.JPG,,,,,0,1,1,9,,,,,,,,,,,,,,,,,,,AMNE10.jpg,AMNE18.jpg,AMSA03.jpg,AMSA19.jpg,AMSA19.jpg,MS,2,num_4,16,num_4,0.816766192031,,,2018_Mar_28_1120,60.0057738568,FEMA4ImagesEEG,001,203292,
AFNE01.JPG,AFNE01.JPG,AFNE01.JPG,AFNE01.JPG,AFNE01.JPG,AFNE01.JPG,,,,,0,2,2,4,,,,,,,,,,,,,,,,,,,AMSA19.jpg,AMNE05.jpg,AMNE10.jpg,AMSA13.jpg,AMNE10.jpg,MN,1,num_2,32,num_6,0.683463457215,,,2018_Mar_28_1120,60.0057738568,FEMA4ImagesEEG,001,203292,
AFNE01.JPG,AFNE01.JPG,AFNE01.JPG,AFNE01.JPG,AFNE01.JPG,AFNE01.JPG,,,,,0,3,3,6,,,,,,,,,,,,,,,,,,,AMSA01.jpg,AMNE09.jpg,AMNE12.jpg,AMSA12.jpg,AMSA12.jpg,MS,2,num_4,32,num_8,1.01678396104,,,2018_Mar_28_1120,60.0057738568,FEMA4ImagesEEG,001,203292,
AFNE01.JPG,AFNE01.JPG,AFNE01.JPG,AFNE01.JPG,AFNE01.JPG,AFNE01.JPG,,,,,0,4,4,7,,,,,,,,,,,,,,,,,,,AMNE09.jpg,AMSA20.jpg,AMNE08.jpg,AMSA12.jpg,AMNE08.jpg,MN,1,num_2,32,num_8,0.766804007173,,,2018_Mar_28_1120,60.0057738568,FEMA4ImagesEEG,001,203292,
AFNE01.JPG,AFNE01.JPG,AFNE01.JPG,AFNE01.JPG,AFNE01.JPG,AFNE01.JPG,,,,,0,5,5,2,,,,,,,,,,,,,,,,,,,AMSA07.jpg,AMNE06.jpg,AMSA10.jpg,AMNE03.jpg,AMSA10.jpg,MS,2,num_2,32,num_6,1.03347426612,,,2018_Mar_28_1120,60.0057738568,FEMA4ImagesEEG,001,203292,
AFNE01.JPG,AFNE01.JPG,AFNE01.JPG,AFNE01.JPG,AFNE01.JPG,AFNE01.JPG,,,,,0,6,6,0,,,,,,,,,,,,,,,,,,,AMNE09.jpg,AMSA17.jpg,AMSA20.jpg,AMNE01.jpg,AMSA17.jpg,MS,2,num_6,32,num_8,0.850184970303,,,2018_Mar_28_1120,60.0057738568,FEMA4ImagesEEG,001,203292,
AFNE01.JPG,AFNE01.JPG,AFNE01.JPG,AFNE01.JPG,AFNE01.JPG,AFNE01.JPG,,,,,0,7,7,3,,,,,,,,,,,,,,,,,,,AMNE13.jpg,AMNE10.jpg,AMSA11.jpg,AMSA07.jpg,AMSA11.jpg,MS,2,num_2,32,num_4,0.833503966569,,,2018_Mar_28_1120,60.0057738568,FEMA4ImagesEEG,001,203292,
AFNE01.JPG,AFNE01.JPG,AFNE01.JPG,AFNE01.JPG,AFNE01.JPG,AFNE01.JPG,,,,,0,8,8,5,,,,,,,,,,,,,,,,,,,AMNE01.jpg,AMSA03.jpg,AMNE19.jpg,AMSA06.jpg,AMSA06.jpg,MS,2,num_4,32,num_6,1.01676599955,,,2018_Mar_28_1120,60.0057738568,FEMA4ImagesEEG,001,203292,
AFNE01.JPG,AFNE01.JPG,AFNE01.JPG,AFNE01.JPG,AFNE01.JPG,AFNE01.JPG,,,,,0,9,9,8,,,,,,,,,,,,,,,,,,,AMNE04.jpg,AMSA14.jpg,AMNE14.jpg,AMSA19.jpg,AMSA19.jpg,MS,2,num_4,32,num_2,0.966748647625,,,2018_Mar_28_1120,60.0057738568,FEMA4ImagesEEG,001,203292,
AFNE01.JPG,AFNE01.JPG,AFNE01.JPG,AFNE01.JPG,AFNE01.JPG,AFNE01.JPG,,,,,1,0,10,0,,,,,,,,,,,,,,,,,,,AMNE11.jpg,AMNE04.jpg,AMSA17.jpg,AMSA10.jpg,AMSA17.jpg,MS,2,num_2,32,num_6,0.883507526771,,,2018_Mar_28_1120,60.0057738568,FEMA4ImagesEEG,001,203292,
AFNE01.JPG,AFNE01.JPG,AFNE01.JPG,AFNE01.JPG,AFNE01.JPG,AFNE01.JPG,,,,,1,1,11,8,,,,,,,,,,,,,,,,,,,AMSA06.jpg,AMNE18.jpg,AMNE14.jpg,AMSA07.jpg,AMSA07.jpg,MS,2,num_4,16,num_4,0.666786302405,,,2018_Mar_28_1120,60.0057738568,FEMA4ImagesEEG,001,203292,
AFNE01.JPG,AFNE01.JPG,AFNE01.JPG,AFNE01.JPG,AFNE01.JPG,AFNE01.JPG,,,,,1,2,12,1,,,,,,,,,,,,,,,,,,,AMNE13.jpg,AMNE06.jpg,AMSA12.jpg,AMSA02.jpg,AMNE13.jpg,MN,1,num_8,16,num_8,0.700115915155,,,2018_Mar_28_1120,60.0057738568,FEMA4ImagesEEG,001,203292,
AFNE01.JPG,AFNE01.JPG,AFNE01.JPG,AFNE01.JPG,AFNE01.JPG,AFNE01.JPG,,,,,1,3,13,5,,,,,,,,,,,,,,,,,,,AMNE03.jpg,AMNE19.jpg,AMSA10.jpg,AMSA18.jpg,AMNE19.jpg,MN,1,num_6,32,num_4,0.700222400541,,,2018_Mar_28_1120,60.0057738568,FEMA4ImagesEEG,001,203292,
AFNE01.JPG,AFNE01.JPG,AFNE01.JPG,AFNE01.JPG,AFNE01.JPG,AFNE01.JPG,,,,,1,4,14,3,,,,,,,,,,,,,,,,,,,AMNE03.jpg,AMSA01.jpg,AMSA12.jpg,AMNE06.jpg,AMSA12.jpg,MS,2,num_2,32,num_8,0.616861964751,,,2018_Mar_28_1120,60.0057738568,FEMA4ImagesEEG,001,203292,
AFNE01.JPG,AFNE01.JPG,AFNE01.JPG,AFNE01.JPG,AFNE01.JPG,AFNE01.JPG,,,,,1,5,15,9,,,,,,,,,,,,,,,,,,,AMNE12.jpg,AMSA08.jpg,AMSA13.jpg,AMNE04.jpg,AMNE12.jpg,MN,1,num_8,32,num_6,0.783565837191,,,2018_Mar_28_1120,60.0057738568,FEMA4ImagesEEG,001,203292,
AFNE01.JPG,AFNE01.JPG,AFNE01.JPG,AFNE01.JPG,AFNE01.JPG,AFNE01.JPG,,,,,1,6,16,4,,,,,,,,,,,,,,,,,,,AMSA04.jpg,AMNE08.jpg,AMNE18.jpg,AMSA03.jpg,AMSA03.jpg,MS,2,num_4,16,num_4,1.0501626468,,,2018_Mar_28_1120,60.0057738568,FEMA4ImagesEEG,001,203292,
AFNE01.JPG,AFNE01.JPG,AFNE01.JPG,AFNE01.JPG,AFNE01.JPG,AFNE01.JPG,,,,,1,7,17,2,,,,,,,,,,,,,,,,,,,AMSA20.jpg,AMNE04.jpg,AMNE06.jpg,AMSA02.jpg,AMNE04.jpg,MN,1,num_6,32,num_4,0.700147668365,,,2018_Mar_28_1120,60.0057738568,FEMA4ImagesEEG,001,203292,
AFNE01.JPG,AFNE01.JPG,AFNE01.JPG,AFNE01.JPG,AFNE01.JPG,AFNE01.JPG,,,,,1,8,18,6,,,,,,,,,,,,,,,,,,,AMSA15.jpg,AMNE19.jpg,AMNE16.jpg,AMSA10.jpg,AMSA15.jpg,MS,2,num_8,16,num_8,0.600143434538,,,2018_Mar_28_1120,60.0057738568,FEMA4ImagesEEG,001,203292,
AFNE01.JPG,AFNE01.JPG,AFNE01.JPG,AFNE01.JPG,AFNE01.JPG,AFNE01.JPG,,,,,1,9,19,7,,,,,,,,,,,,,,,,,,,AMNE06.jpg,AMSA14.jpg,AMSA10.jpg,AMNE16.jpg,AMSA14.jpg,MS,2,num_6,32,num_2,1.03348036017,,,2018_Mar_28_1120,60.0057738568,FEMA4ImagesEEG,001,203292,
AFNE01.JPG,AFNE01.JPG,AFNE01.JPG,AFNE01.JPG,AFNE01.JPG,AFNE01.JPG,,,,,2,0,20,0,,,,,,,,,,,,,,,,,,,AMSA06.jpg,AMNE03.jpg,AMNE20.jpg,AMSA09.jpg,AMNE03.jpg,MN,1,num_6,32,num_4,1.01676664106,,,2018_Mar_28_1120,60.0057738568,FEMA4ImagesEEG,001,203292,
AFNE01.JPG,AFNE01.JPG,AFNE01.JPG,AFNE01.JPG,AFNE01.JPG,AFNE01.JPG,,,,,2,1,21,5,,,,,,,,,,,,,,,,,,,AMSA04.jpg,AMNE14.jpg,AMSA07.jpg,AMNE11.jpg,AMNE11.jpg,MN,1,num_4,32,num_6,2.93334815151,,,2018_Mar_28_1120,60.0057738568,FEMA4ImagesEEG,001,203292,
AFNE01.JPG,AFNE01.JPG,AFNE01.JPG,AFNE01.JPG,AFNE01.JPG,AFNE01.JPG,,,,,2,2,22,2,,,,,,,,,,,,,,,,,,,AMNE08.jpg,AMNE16.jpg,AMSA17.jpg,AMSA06.jpg,AMSA17.jpg,MS,2,num_2,32,num_4,0.833514550992,,,2018_Mar_28_1120,60.0057738568,FEMA4ImagesEEG,001,203292,
AFNE01.JPG,AFNE01.JPG,AFNE01.JPG,AFNE01.JPG,AFNE01.JPG,AFNE01.JPG,,,,,2,3,23,6,,,,,,,,,,,,,,,,,,,AMSA01.jpg,AMSA13.jpg,AMNE17.jpg,AMNE19.jpg,AMSA13.jpg,MS,2,num_6,32,num_4,0.916603320686,,,2018_Mar_28_1120,60.0057738568,FEMA4ImagesEEG,001,203292,
AFNE01.JPG,AFNE01.JPG,AFNE01.JPG,AFNE01.JPG,AFNE01.JPG,AFNE01.JPG,,,,,2,4,24,3,,,,,,,,,,,,,,,,,,,AMNE06.jpg,AMNE19.jpg,AMSA05.jpg,AMSA15.jpg,AMNE19.jpg,MN,1,num_6,32,num_8,0.6501299956,,,2018_Mar_28_1120,60.0057738568,FEMA4ImagesEEG,001,203292,
AFNE01.JPG,AFNE01.JPG,AFNE01.JPG,AFNE01.JPG,AFNE01.JPG,AFNE01.JPG,,,,,2,5,25,7,,,,,,,,,,,,,,,,,,,AMSA18.jpg,AMNE19.jpg,AMNE06.jpg,AMSA04.jpg,AMSA04.jpg,MS,2,num_4,16,num_4,0.700171082281,,,2018_Mar_28_1120,60.0057738568,FEMA4ImagesEEG,001,203292,
AFNE01.JPG,AFNE01.JPG,AFNE01.JPG,AFNE01.JPG,AFNE01.JPG,AFNE01.JPG,,,,,2,6,26,9,,,,,,,,,,,,,,,,,,,AMNE06.jpg,AMSA10.jpg,AMSA11.jpg,AMNE12.jpg,AMSA11.jpg,MS,2,num_2,16,num_2,0.800132337026,,,2018_Mar_28_1120,60.0057738568,FEMA4ImagesEEG,001,203292,
AFNE01.JPG,AFNE01.JPG,AFNE01.JPG,AFNE01.JPG,AFNE01.JPG,AFNE01.JPG,,,,,2,7,27,4,,,,,,,,,,,,,,,,,,,AMNE19.jpg,AMSA09.jpg,AMNE13.jpg,AMSA15.jpg,AMNE13.jpg,MN,1,num_2,32,num_8,0.650195747148,,,2018_Mar_28_1120,60.0057738568,FEMA4ImagesEEG,001,203292,
AFNE01.JPG,AFNE01.JPG,AFNE01.JPG,AFNE01.JPG,AFNE01.JPG,AFNE01.JPG,,,,,2,8,28,8,,,,,,,,,,,,,,,,,,,AMSA09.jpg,AMSA02.jpg,AMNE09.jpg,AMNE17.jpg,AMNE09.jpg,MN,1,num_2,32,num_6,0.599996856763,,,2018_Mar_28_1120,60.0057738568,FEMA4ImagesEEG,001,203292,
AFNE01.JPG,AFNE01.JPG,AFNE01.JPG,AFNE01.JPG,AFNE01.JPG,AFNE01.JPG,,,,,2,9,29,1,,,,,,,,,,,,,,,,,,,AMNE16.jpg,AMSA20.jpg,AMSA06.jpg,AMNE08.jpg,AMNE16.jpg,MN,1,num_8,32,num_4,0.583475581196,,,2018_Mar_28_1120,60.0057738568,FEMA4ImagesEEG,001,203292,
AFNE01.JPG,AFNE01.JPG,AFNE01.JPG,AFNE01.JPG,AFNE01.JPG,AFNE01.JPG,,,,,3,0,30,0,,,,,,,,,,,,,,,,,,,AMSA14.jpg,AMSA02.jpg,AMNE07.jpg,AMNE12.jpg,AMNE12.jpg,MN,1,num_4,32,num_2,1.00009429728,,,2018_Mar_28_1120,60.0057738568,FEMA4ImagesEEG,001,203292,
AFNE01.JPG,AFNE01.JPG,AFNE01.JPG,AFNE01.JPG,AFNE01.JPG,AFNE01.JPG,,,,,3,1,31,8,,,,,,,,,,,,,,,,,,,AMSA18.jpg,AMNE13.jpg,AMSA02.jpg,AMNE18.jpg,AMNE18.jpg,MN,1,num_4,16,num_4,0.583513428399,,,2018_Mar_28_1120,60.0057738568,FEMA4ImagesEEG,001,203292,
AFNE01.JPG,AFNE01.JPG,AFNE01.JPG,AFNE01.JPG,AFNE01.JPG,AFNE01.JPG,,,,,3,2,32,2,,,,,,,,,,,,,,,,,,,AMNE15.jpg,AMSA18.jpg,AMNE10.jpg,AMSA12.jpg,AMNE15.jpg,MN,1,num_8,32,num_6,0.650131920003,,,2018_Mar_28_1120,60.0057738568,FEMA4ImagesEEG,001,203292,
AFNE01.JPG,AFNE01.JPG,AFNE01.JPG,AFNE01.JPG,AFNE01.JPG,AFNE01.JPG,,,,,3,3,33,1,,,,,,,,,,,,,,,,,,,AMSA10.jpg,AMNE09.jpg,AMSA05.jpg,AMNE17.jpg,AMNE09.jpg,MN,1,num_6,32,num_4,0.633435841592,,,2018_Mar_28_1120,60.0057738568,FEMA4ImagesEEG,001,203292,
AFNE01.JPG,AFNE01.JPG,AFNE01.JPG,AFNE01.JPG,AFNE01.JPG,AFNE01.JPG,,,,,3,4,34,3,,,,,,,,,,,,,,,,,,,AMNE07.jpg,AMSA19.jpg,AMNE13.jpg,AMSA04.jpg,AMSA04.jpg,MS,2,num_4,32,num_8,0.68348366383,,,2018_Mar_28_1120,60.0057738568,FEMA4ImagesEEG,001,203292,
AFNE01.JPG,AFNE01.JPG,AFNE01.JPG,AFNE01.JPG,AFNE01.JPG,AFNE01.JPG,,,,,3,5,35,7,,,,,,,,,,,,,,,,,,,AMNE02.jpg,AMSA02.jpg,AMNE04.jpg,AMSA05.jpg,AMSA05.jpg,MS,2,num_4,32,num_8,0.616843682597,,,2018_Mar_28_1120,60.0057738568,FEMA4ImagesEEG,001,203292,
AFNE01.JPG,AFNE01.JPG,AFNE01.JPG,AFNE01.JPG,AFNE01.JPG,AFNE01.JPG,,,,,3,6,36,6,,,,,,,,,,,,,,,,,,,AMSA13.jpg,AMSA10.jpg,AMNE12.jpg,AMNE19.jpg,AMSA10.jpg,MS,2,num_6,16,num_6,0.633354053076,,,2018_Mar_28_1120,60.0057738568,FEMA4ImagesEEG,001,203292,
AFNE01.JPG,AFNE01.JPG,AFNE01.JPG,AFNE01.JPG,AFNE01.JPG,AFNE01.JPG,,,,,3,7,37,9,,,,,,,,,,,,,,,,,,,AMSA06.jpg,AMNE05.jpg,AMNE14.jpg,AMSA08.jpg,AMNE05.jpg,MN,1,num_6,32,num_8,0.616844965611,,,2018_Mar_28_1120,60.0057738568,FEMA4ImagesEEG,001,203292,
AFNE01.JPG,AFNE01.JPG,AFNE01.JPG,AFNE01.JPG,AFNE01.JPG,AFNE01.JPG,,,,,3,8,38,5,,,,,,,,,,,,,,,,,,,AMNE02.jpg,AMNE03.jpg,AMSA19.jpg,AMSA18.jpg,AMSA19.jpg,MS,2,num_2,16,num_2,0.600215921644,,,2018_Mar_28_1120,60.0057738568,FEMA4ImagesEEG,001,203292,
AFNE01.JPG,AFNE01.JPG,AFNE01.JPG,AFNE01.JPG,AFNE01.JPG,AFNE01.JPG,,,,,3,9,39,4,,,,,,,,,,,,,,,,,,,AMNE05.jpg,AMNE01.jpg,AMSA17.jpg,AMSA14.jpg,AMNE01.jpg,MN,1,num_6,32,num_4,1.21674752503,,,2018_Mar_28_1120,60.0057738568,FEMA4ImagesEEG,001,203292,
AFNE01.JPG,AFNE01.JPG,AFNE01.JPG,AFNE01.JPG,AFNE01.JPG,AFNE01.JPG,,,,,4,0,40,8,,,,,,,,,,,,,,,,,,,AMNE04.jpg,AMNE10.jpg,AMSA16.jpg,AMSA03.jpg,AMNE10.jpg,MN,1,num_6,16,num_6,1.55006482138,,,2018_Mar_28_1120,60.0057738568,FEMA4ImagesEEG,001,203292,
AFNE01.JPG,AFNE01.JPG,AFNE01.JPG,AFNE01.JPG,AFNE01.JPG,AFNE01.JPG,,,,,4,1,41,3,,,,,,,,,,,,,,,,,,,AMSA07.jpg,AMSA18.jpg,AMNE18.jpg,AMNE11.jpg,AMNE11.jpg,MN,1,num_4,32,num_8,0.68346474017,,,2018_Mar_28_1120,60.0057738568,FEMA4ImagesEEG,001,203292,
AFNE01.JPG,AFNE01.JPG,AFNE01.JPG,AFNE01.JPG,AFNE01.JPG,AFNE01.JPG,,,,,4,2,42,1,,,,,,,,,,,,,,,,,,,AMSA15.jpg,AMNE06.jpg,AMNE18.jpg,AMSA03.jpg,AMNE06.jpg,MN,1,num_6,32,num_4,0.666771548393,,,2018_Mar_28_1120,60.0057738568,FEMA4ImagesEEG,001,203292,
AFNE01.JPG,AFNE01.JPG,AFNE01.JPG,AFNE01.JPG,AFNE01.JPG,AFNE01.JPG,,,,,4,3,43,7,,,,,,,,,,,,,,,,,,,AMSA17.jpg,AMNE17.jpg,AMNE01.jpg,AMSA06.jpg,AMSA17.jpg,MS,2,num_8,16,num_8,0.666827356967,,,2018_Mar_28_1120,60.0057738568,FEMA4ImagesEEG,001,203292,
AFNE01.JPG,AFNE01.JPG,AFNE01.JPG,AFNE01.JPG,AFNE01.JPG,AFNE01.JPG,,,,,4,4,44,4,,,,,,,,,,,,,,,,,,,AMNE09.jpg,AMSA01.jpg,AMSA15.jpg,AMNE07.jpg,AMSA15.jpg,MS,2,num_2,32,num_6,0.666798169725,,,2018_Mar_28_1120,60.0057738568,FEMA4ImagesEEG,001,203292,
AFNE01.JPG,AFNE01.JPG,AFNE01.JPG,AFNE01.JPG,AFNE01.JPG,AFNE01.JPG,,,,,4,5,45,6,,,,,,,,,,,,,,,,,,,AMSA02.jpg,AMNE03.jpg,AMSA01.jpg,AMNE11.jpg,AMNE11.jpg,MN,1,num_4,32,num_8,0.616835343419,,,2018_Mar_28_1120,60.0057738568,FEMA4ImagesEEG,001,203292,
AFNE01.JPG,AFNE01.JPG,AFNE01.JPG,AFNE01.JPG,AFNE01.JPG,AFNE01.JPG,,,,,4,6,46,9,,,,,,,,,,,,,,,,,,,AMNE13.jpg,AMNE09.jpg,AMSA15.jpg,AMSA16.jpg,AMSA15.jpg,MS,2,num_2,32,num_8,0.933459447988,,,2018_Mar_28_1120,60.0057738568,FEMA4ImagesEEG,001,203292,
AFNE01.JPG,AFNE01.JPG,AFNE01.JPG,AFNE01.JPG,AFNE01.JPG,AFNE01.JPG,,,,,4,7,47,5,,,,,,,,,,,,,,,,,,,AMNE08.jpg,AMNE19.jpg,AMSA13.jpg,AMSA16.jpg,AMNE19.jpg,MN,1,num_6,32,num_4,0.800167939044,,,2018_Mar_28_1120,60.0057738568,FEMA4ImagesEEG,001,203292,
AFNE01.JPG,AFNE01.JPG,AFNE01.JPG,AFNE01.JPG,AFNE01.JPG,AFNE01.JPG,,,,,4,8,48,2,,,,,,,,,,,,,,,,,,,AMNE08.jpg,AMSA15.jpg,AMNE02.jpg,AMSA10.jpg,AMNE02.jpg,MN,1,num_2,16,num_2,0.766740180086,,,2018_Mar_28_1120,60.0057738568,FEMA4ImagesEEG,001,203292,
AFNE01.JPG,AFNE01.JPG,AFNE01.JPG,AFNE01.JPG,AFNE01.JPG,AFNE01.JPG,,,,,4,9,49,0,,,,,,,,,,,,,,,,,,,AMSA20.jpg,AMNE14.jpg,AMSA15.jpg,AMNE13.jpg,AMSA15.jpg,MS,2,num_2,32,num_8,0.800001154654,,,2018_Mar_28_1120,60.0057738568,FEMA4ImagesEEG,001,203292,
AFNE01.JPG,AFNE01.JPG,AFNE01.JPG,AFNE01.JPG,AFNE01.JPG,AFNE01.JPG,,,,,5,0,50,6,,,,,,,,,,,,,,,,,,,AMNE08.jpg,AMSA09.jpg,AMNE19.jpg,AMSA20.jpg,AMNE08.jpg,MN,1,num_8,16,num_8,0.783491746406,,,2018_Mar_28_1120,60.0057738568,FEMA4ImagesEEG,001,203292,
AFNE01.JPG,AFNE01.JPG,AFNE01.JPG,AFNE01.JPG,AFNE01.JPG,AFNE01.JPG,,,,,5,1,51,8,,,,,,,,,,,,,,,,,,,AMNE06.jpg,AMSA11.jpg,AMSA09.jpg,AMNE04.jpg,AMNE04.jpg,MN,1,num_4,16,num_4,0.816819755477,,,2018_Mar_28_1120,60.0057738568,FEMA4ImagesEEG,001,203292,
AFNE01.JPG,AFNE01.JPG,AFNE01.JPG,AFNE01.JPG,AFNE01.JPG,AFNE01.JPG,,,,,5,2,52,3,,,,,,,,,,,,,,,,,,,AMSA12.jpg,AMNE15.jpg,AMSA06.jpg,AMNE20.jpg,AMNE20.jpg,MN,1,num_4,16,num_4,0.683679635404,,,2018_Mar_28_1120,60.0057738568,FEMA4ImagesEEG,001,203292,
AFNE01.JPG,AFNE01.JPG,AFNE01.JPG,AFNE01.JPG,AFNE01.JPG,AFNE01.JPG,,,,,5,3,53,5,,,,,,,,,,,,,,,,,,,AMNE14.jpg,AMSA20.jpg,AMNE12.jpg,AMSA14.jpg,AMNE14.jpg,MN,1,num_8,32,num_4,0.633519875235,,,2018_Mar_28_1120,60.0057738568,FEMA4ImagesEEG,001,203292,
AFNE01.JPG,AFNE01.JPG,AFNE01.JPG,AFNE01.JPG,AFNE01.JPG,AFNE01.JPG,,,,,5,4,54,2,,,,,,,,,,,,,,,,,,,AMNE03.jpg,AMSA03.jpg,AMNE18.jpg,AMSA18.jpg,AMSA03.jpg,MS,2,num_6,16,num_6,2.16670130647,,,2018_Mar_28_1120,60.0057738568,FEMA4ImagesEEG,001,203292,
AFNE01.JPG,AFNE01.JPG,AFNE01.JPG,AFNE01.JPG,AFNE01.JPG,AFNE01.JPG,,,,,5,5,55,7,,,,,,,,,,,,,,,,,,,AMNE08.jpg,AMNE16.jpg,AMSA07.jpg,AMSA06.jpg,AMSA07.jpg,MS,2,num_2,32,num_8,0.916785179754,,,2018_Mar_28_1120,60.0057738568,FEMA4ImagesEEG,001,203292,
AFNE01.JPG,AFNE01.JPG,AFNE01.JPG,AFNE01.JPG,AFNE01.JPG,AFNE01.JPG,,,,,5,6,56,0,,,,,,,,,,,,,,,,,,,AMNE11.jpg,AMNE09.jpg,AMSA18.jpg,AMSA13.jpg,AMSA13.jpg,MS,2,num_4,32,num_2,0.41680474492,,,2018_Mar_28_1120,60.0057738568,FEMA4ImagesEEG,001,203292,
AFNE01.JPG,AFNE01.JPG,AFNE01.JPG,AFNE01.JPG,AFNE01.JPG,AFNE01.JPG,,,,,5,7,57,1,,,,,,,,,,,,,,,,,,,AMNE13.jpg,AMSA06.jpg,AMSA09.jpg,AMNE04.jpg,AMNE13.jpg,MN,1,num_8,32,num_6,1.10016941442,,,2018_Mar_28_1120,60.0057738568,FEMA4ImagesEEG,001,203292,
AFNE01.JPG,AFNE01.JPG,AFNE01.JPG,AFNE01.JPG,AFNE01.JPG,AFNE01.JPG,,,,,5,8,58,4,,,,,,,,,,,,,,,,,,,AMNE01.jpg,AMSA01.jpg,AMNE06.jpg,AMSA05.jpg,AMNE01.jpg,MN,1,num_8,16,num_8,0.933476126462,,,2018_Mar_28_1120,60.0057738568,FEMA4ImagesEEG,001,203292,
AFNE01.JPG,AFNE01.JPG,AFNE01.JPG,AFNE01.JPG,AFNE01.JPG,AFNE01.JPG,,,,,5,9,59,9,,,,,,,,,,,,,,,,,,,AMNE08.jpg,AMSA18.jpg,AMSA01.jpg,AMNE15.jpg,AMNE15.jpg,MN,1,num_4,16,num_4,0.70002482523,,,2018_Mar_28_1120,60.0057738568,FEMA4ImagesEEG,001,203292,
,,,,,,,,,,,,,,,,,,,,,,,,,,,,,,,,,,,,,,,,,,,space,9.91577228543,2018_Mar_28_1120,60.0057738568,FEMA4ImagesEEG,001,203292,
AFNE01.JPG,AFNE01.JPG,AFNE01.JPG,AFNE01.JPG,AFNE01.JPG,AFNE01.JPG,,,,,,,,,0,0,0,2,,,,,,,,,,,,,,,AFSA17.jpg,AFNE08.jpg,AFNE05.jpg,AFSA13.jpg,AFNE05.jpg,FN,3,num_2,32,num_6,0.650170408713,,,2018_Mar_28_1120,60.0057738568,FEMA4ImagesEEG,001,203292,
AFNE01.JPG,AFNE01.JPG,AFNE01.JPG,AFNE01.JPG,AFNE01.JPG,AFNE01.JPG,,,,,,,,,0,1,1,0,,,,,,,,,,,,,,,AFNE07.jpg,AFSA17.jpg,AFSA14.jpg,AFNE20.jpg,AFNE07.jpg,FN,3,num_8,16,num_8,0.633899309672,,,2018_Mar_28_1120,60.0057738568,FEMA4ImagesEEG,001,203292,
AFNE01.JPG,AFNE01.JPG,AFNE01.JPG,AFNE01.JPG,AFNE01.JPG,AFNE01.JPG,,,,,,,,,0,2,2,3,,,,,,,,,,,,,,,AFNE07.jpg,AFNE02.jpg,AFSA01.jpg,AFSA17.jpg,AFNE07.jpg,FN,3,num_8,16,num_8,0.566745183605,,,2018_Mar_28_1120,60.0057738568,FEMA4ImagesEEG,001,203292,
AFNE01.JPG,AFNE01.JPG,AFNE01.JPG,AFNE01.JPG,AFNE01.JPG,AFNE01.JPG,,,,,,,,,0,3,3,7,,,,,,,,,,,,,,,AFNE04.jpg,AFSA15.jpg,AFNE11.jpg,AFSA08.jpg,AFNE04.jpg,FN,3,num_8,32,num_2,4.44979533629,,,2018_Mar_28_1120,60.0057738568,FEMA4ImagesEEG,001,203292,
AFNE01.JPG,AFNE01.JPG,AFNE01.JPG,AFNE01.JPG,AFNE01.JPG,AFNE01.JPG,,,,,,,,,0,4,4,8,,,,,,,,,,,,,,,AFNE12.jpg,AFSA09.jpg,AFSA07.jpg,AFNE08.jpg,AFNE08.jpg,FN,3,num_4,32,num_6,0.883467755106,,,2018_Mar_28_1120,60.0057738568,FEMA4ImagesEEG,001,203292,
AFNE01.JPG,AFNE01.JPG,AFNE01.JPG,AFNE01.JPG,AFNE01.JPG,AFNE01.JPG,,,,,,,,,0,5,5,1,,,,,,,,,,,,,,,AFNE03.jpg,AFSA02.jpg,AFNE13.jpg,AFSA17.jpg,AFNE13.jpg,FN,3,num_2,32,num_4,0.850150971906,,,2018_Mar_28_1120,60.0057738568,FEMA4ImagesEEG,001,203292,
AFNE01.JPG,AFNE01.JPG,AFNE01.JPG,AFNE01.JPG,AFNE01.JPG,AFNE01.JPG,,,,,,,,,0,6,6,5,,,,,,,,,,,,,,,AFNE12.jpg,AFNE18.jpg,AFSA06.jpg,AFSA14.jpg,AFNE12.jpg,FN,3,num_8,16,num_8,1.2835372914,,,2018_Mar_28_1120,60.0057738568,FEMA4ImagesEEG,001,203292,
AFNE01.JPG,AFNE01.JPG,AFNE01.JPG,AFNE01.JPG,AFNE01.JPG,AFNE01.JPG,,,,,,,,,0,7,7,6,,,,,,,,,,,,,,,AFNE19.jpg,AFSA11.jpg,AFSA20.jpg,AFNE09.jpg,AFNE19.jpg,FN,3,num_8,32,num_2,1.15001132205,,,2018_Mar_28_1120,60.0057738568,FEMA4ImagesEEG,001,203292,
AFNE01.JPG,AFNE01.JPG,AFNE01.JPG,AFNE01.JPG,AFNE01.JPG,AFNE01.JPG,,,,,,,,,0,8,8,9,,,,,,,,,,,,,,,AFNE05.jpg,AFSA12.jpg,AFNE18.jpg,AFSA06.jpg,AFNE18.jpg,FN,3,num_2,16,num_2,1.30013490288,,,2018_Mar_28_1120,60.0057738568,FEMA4ImagesEEG,001,203292,
AFNE01.JPG,AFNE01.JPG,AFNE01.JPG,AFNE01.JPG,AFNE01.JPG,AFNE01.JPG,,,,,,,,,0,9,9,4,,,,,,,,,,,,,,,AFNE01.jpg,AFNE19.jpg,AFSA07.jpg,AFSA17.jpg,AFNE01.jpg,FN,3,num_8,32,num_2,1.01679358311,,,2018_Mar_28_1120,60.0057738568,FEMA4ImagesEEG,001,203292,
AFNE01.JPG,AFNE01.JPG,AFNE01.JPG,AFNE01.JPG,AFNE01.JPG,AFNE01.JPG,,,,,,,,,1,0,10,3,,,,,,,,,,,,,,,AFNE04.jpg,AFNE12.jpg,AFSA07.jpg,AFSA14.jpg,AFNE12.jpg,FN,3,num_6,16,num_6,0.566802595917,,,2018_Mar_28_1120,60.0057738568,FEMA4ImagesEEG,001,203292,
AFNE01.JPG,AFNE01.JPG,AFNE01.JPG,AFNE01.JPG,AFNE01.JPG,AFNE01.JPG,,,,,,,,,1,1,11,8,,,,,,,,,,,,,,,AFNE11.jpg,AFSA17.jpg,AFNE14.jpg,AFSA03.jpg,AFSA17.jpg,FS,4,num_6,16,num_6,0.716782164876,,,2018_Mar_28_1120,60.0057738568,FEMA4ImagesEEG,001,203292,
AFNE01.JPG,AFNE01.JPG,AFNE01.JPG,AFNE01.JPG,AFNE01.JPG,AFNE01.JPG,,,,,,,,,1,2,12,9,,,,,,,,,,,,,,,AFSA19.jpg,AFNE20.jpg,AFSA14.jpg,AFNE17.jpg,AFSA14.jpg,FS,4,num_2,32,num_6,1.05038908875,,,2018_Mar_28_1120,60.0057738568,FEMA4ImagesEEG,001,203292,
AFNE01.JPG,AFNE01.JPG,AFNE01.JPG,AFNE01.JPG,AFNE01.JPG,AFNE01.JPG,,,,,,,,,1,3,13,2,,,,,,,,,,,,,,,AFSA12.jpg,AFNE02.jpg,AFSA18.jpg,AFNE17.jpg,AFNE02.jpg,FN,3,num_6,32,num_8,0.650173936854,,,2018_Mar_28_1120,60.0057738568,FEMA4ImagesEEG,001,203292,
AFNE01.JPG,AFNE01.JPG,AFNE01.JPG,AFNE01.JPG,AFNE01.JPG,AFNE01.JPG,,,,,,,,,1,4,14,7,,,,,,,,,,,,,,,AFSA04.jpg,AFSA16.jpg,AFNE18.jpg,AFNE02.jpg,AFNE02.jpg,FN,3,num_4,32,num_8,0.783471860574,,,2018_Mar_28_1120,60.0057738568,FEMA4ImagesEEG,001,203292,
AFNE01.JPG,AFNE01.JPG,AFNE01.JPG,AFNE01.JPG,AFNE01.JPG,AFNE01.JPG,,,,,,,,,1,5,15,1,,,,,,,,,,,,,,,AFSA13.jpg,AFNE07.jpg,AFNE10.jpg,AFSA03.jpg,AFNE07.jpg,FN,3,num_6,32,num_8,0.900142023282,,,2018_Mar_28_1120,60.0057738568,FEMA4ImagesEEG,001,203292,
AFNE01.JPG,AFNE01.JPG,AFNE01.JPG,AFNE01.JPG,AFNE01.JPG,AFNE01.JPG,,,,,,,,,1,6,16,4,,,,,,,,,,,,,,,AFNE19.jpg,AFSA17.jpg,AFNE11.jpg,AFSA11.jpg,AFSA17.jpg,FS,4,num_6,16,num_6,0.65015725838,,,2018_Mar_28_1120,60.0057738568,FEMA4ImagesEEG,001,203292,
AFNE01.JPG,AFNE01.JPG,AFNE01.JPG,AFNE01.JPG,AFNE01.JPG,AFNE01.JPG,,,,,,,,,1,7,17,5,,,,,,,,,,,,,,,AFSA05.jpg,AFNE19.jpg,AFSA06.jpg,AFNE08.jpg,AFSA06.jpg,FS,4,num_2,32,num_8,0.683480135631,,,2018_Mar_28_1120,60.0057738568,FEMA4ImagesEEG,001,203292,
AFNE01.JPG,AFNE01.JPG,AFNE01.JPG,AFNE01.JPG,AFNE01.JPG,AFNE01.JPG,,,,,,,,,1,8,18,6,,,,,,,,,,,,,,,AFSA19.jpg,AFNE03.jpg,AFNE08.jpg,AFSA20.jpg,AFSA19.jpg,FS,4,num_8,32,num_4,1.20013291435,,,2018_Mar_28_1120,60.0057738568,FEMA4ImagesEEG,001,203292,
AFNE01.JPG,AFNE01.JPG,AFNE01.JPG,AFNE01.JPG,AFNE01.JPG,AFNE01.JPG,,,,,,,,,1,9,19,0,,,,,,,,,,,,,,,AFNE09.jpg,AFSA09.jpg,AFNE04.jpg,AFSA02.jpg,AFNE09.jpg,FN,3,num_8,32,num_4,1.90005381999,,,2018_Mar_28_1120,60.0057738568,FEMA4ImagesEEG,001,203292,
AFNE01.JPG,AFNE01.JPG,AFNE01.JPG,AFNE01.JPG,AFNE01.JPG,AFNE01.JPG,,,,,,,,,2,0,20,3,,,,,,,,,,,,,,,AFNE05.jpg,AFSA11.jpg,AFNE10.jpg,AFSA08.jpg,AFSA08.jpg,FS,4,num_4,16,num_4,0.583187557408,,,2018_Mar_28_1120,60.0057738568,FEMA4ImagesEEG,001,203292,
AFNE01.JPG,AFNE01.JPG,AFNE01.JPG,AFNE01.JPG,AFNE01.JPG,AFNE01.JPG,,,,,,,,,2,1,21,5,,,,,,,,,,,,,,,AFNE06.jpg,AFNE01.jpg,AFSA13.jpg,AFSA01.jpg,AFSA13.jpg,FS,4,num_2,32,num_6,0.833505249524,,,2018_Mar_28_1120,60.0057738568,FEMA4ImagesEEG,001,203292,
AFNE01.JPG,AFNE01.JPG,AFNE01.JPG,AFNE01.JPG,AFNE01.JPG,AFNE01.JPG,,,,,,,,,2,2,22,8,,,,,,,,,,,,,,,AFSA01.jpg,AFSA10.jpg,AFNE19.jpg,AFNE10.jpg,AFSA10.jpg,FS,4,num_6,32,num_8,1.08347910928,,,2018_Mar_28_1120,60.0057738568,FEMA4ImagesEEG,001,203292,
AFNE01.JPG,AFNE01.JPG,AFNE01.JPG,AFNE01.JPG,AFNE01.JPG,AFNE01.JPG,,,,,,,,,2,3,23,1,,,,,,,,,,,,,,,AFNE15.jpg,AFSA04.jpg,AFSA08.jpg,AFNE01.jpg,AFNE15.jpg,FN,3,num_8,32,num_6,0.716770297498,,,2018_Mar_28_1120,60.0057738568,FEMA4ImagesEEG,001,203292,
AFNE01.JPG,AFNE01.JPG,AFNE01.JPG,AFNE01.JPG,AFNE01.JPG,AFNE01.JPG,,,,,,,,,2,4,24,6,,,,,,,,,,,,,,,AFSA08.jpg,AFNE13.jpg,AFSA01.jpg,AFNE11.jpg,AFSA01.jpg,FS,4,num_2,16,num_2,0.583470449375,,,2018_Mar_28_1120,60.0057738568,FEMA4ImagesEEG,001,203292,
AFNE01.JPG,AFNE01.JPG,AFNE01.JPG,AFNE01.JPG,AFNE01.JPG,AFNE01.JPG,,,,,,,,,2,5,25,7,,,,,,,,,,,,,,,AFSA11.jpg,AFSA06.jpg,AFNE01.jpg,AFNE16.jpg,AFNE16.jpg,FN,3,num_4,32,num_2,0.800093527534,,,2018_Mar_28_1120,60.0057738568,FEMA4ImagesEEG,001,203292,
AFNE01.JPG,AFNE01.JPG,AFNE01.JPG,AFNE01.JPG,AFNE01.JPG,AFNE01.JPG,,,,,,,,,2,6,26,4,,,,,,,,,,,,,,,AFSA05.jpg,AFNE09.jpg,AFSA06.jpg,AFNE03.jpg,AFSA05.jpg,FS,4,num_8,32,num_4,0.88345620851,,,2018_Mar_28_1120,60.0057738568,FEMA4ImagesEEG,001,203292,
AFNE01.JPG,AFNE01.JPG,AFNE01.JPG,AFNE01.JPG,AFNE01.JPG,AFNE01.JPG,,,,,,,,,2,7,27,0,,,,,,,,,,,,,,,AFNE20.jpg,AFSA20.jpg,AFSA06.jpg,AFNE17.jpg,AFSA20.jpg,FS,4,num_6,16,num_6,0.733515128319,,,2018_Mar_28_1120,60.0057738568,FEMA4ImagesEEG,001,203292,
AFNE01.JPG,AFNE01.JPG,AFNE01.JPG,AFNE01.JPG,AFNE01.JPG,AFNE01.JPG,,,,,,,,,2,8,28,9,,,,,,,,,,,,,,,AFNE06.jpg,AFSA05.jpg,AFSA18.jpg,AFNE16.jpg,AFNE06.jpg,FN,3,num_8,16,num_8,0.850144557189,,,2018_Mar_28_1120,60.0057738568,FEMA4ImagesEEG,001,203292,
AFNE01.JPG,AFNE01.JPG,AFNE01.JPG,AFNE01.JPG,AFNE01.JPG,AFNE01.JPG,,,,,,,,,2,9,29,2,,,,,,,,,,,,,,,AFNE10.jpg,AFSA15.jpg,AFNE20.jpg,AFSA05.jpg,AFNE10.jpg,FN,3,num_8,32,num_2,0.983480648836,,,2018_Mar_28_1120,60.0057738568,FEMA4ImagesEEG,001,203292,
AFNE01.JPG,AFNE01.JPG,AFNE01.JPG,AFNE01.JPG,AFNE01.JPG,AFNE01.JPG,,,,,,,,,3,0,30,0,,,,,,,,,,,,,,,AFSA05.jpg,AFSA04.jpg,AFNE04.jpg,AFNE03.jpg,AFNE04.jpg,FN,3,num_2,32,num_8,0.766784762789,,,2018_Mar_28_1120,60.0057738568,FEMA4ImagesEEG,001,203292,
AFNE01.JPG,AFNE01.JPG,AFNE01.JPG,AFNE01.JPG,AFNE01.JPG,AFNE01.JPG,,,,,,,,,3,1,31,6,,,,,,,,,,,,,,,AFSA04.jpg,AFNE13.jpg,AFSA09.jpg,AFNE06.jpg,AFNE13.jpg,FN,3,num_6,16,num_6,0.90016672021,,,2018_Mar_28_1120,60.0057738568,FEMA4ImagesEEG,001,203292,
AFNE01.JPG,AFNE01.JPG,AFNE01.JPG,AFNE01.JPG,AFNE01.JPG,AFNE01.JPG,,,,,,,,,3,2,32,3,,,,,,,,,,,,,,,AFNE20.jpg,AFSA15.jpg,AFNE15.jpg,AFSA16.jpg,AFNE20.jpg,FN,3,num_8,32,num_4,1.68344357138,,,2018_Mar_28_1120,60.0057738568,FEMA4ImagesEEG,001,203292,
AFNE01.JPG,AFNE01.JPG,AFNE01.JPG,AFNE01.JPG,AFNE01.JPG,AFNE01.JPG,,,,,,,,,3,3,33,4,,,,,,,,,,,,,,,AFSA15.jpg,AFNE07.jpg,AFSA09.jpg,AFNE17.jpg,AFNE17.jpg,FN,3,num_4,16,num_4,0.616825400502,,,2018_Mar_28_1120,60.0057738568,FEMA4ImagesEEG,001,203292,
AFNE01.JPG,AFNE01.JPG,AFNE01.JPG,AFNE01.JPG,AFNE01.JPG,AFNE01.JPG,,,,,,,,,3,4,34,1,,,,,,,,,,,,,,,AFSA04.jpg,AFNE04.jpg,AFNE01.jpg,AFSA13.jpg,AFNE04.jpg,FN,3,num_6,32,num_4,0.700206684298,,,2018_Mar_28_1120,60.0057738568,FEMA4ImagesEEG,001,203292,
AFNE01.JPG,AFNE01.JPG,AFNE01.JPG,AFNE01.JPG,AFNE01.JPG,AFNE01.JPG,,,,,,,,,3,5,35,7,,,,,,,,,,,,,,,AFNE01.jpg,AFSA04.jpg,AFNE11.jpg,AFSA11.jpg,AFNE01.jpg,FN,3,num_8,32,num_4,1.60006870236,,,2018_Mar_28_1120,60.0057738568,FEMA4ImagesEEG,001,203292,
AFNE01.JPG,AFNE01.JPG,AFNE01.JPG,AFNE01.JPG,AFNE01.JPG,AFNE01.JPG,,,,,,,,,3,6,36,5,,,,,,,,,,,,,,,AFNE08.jpg,AFSA08.jpg,AFSA04.jpg,AFNE16.jpg,AFNE16.jpg,FN,3,num_4,16,num_4,0.750138078234,,,2018_Mar_28_1120,60.0057738568,FEMA4ImagesEEG,001,203292,
AFNE01.JPG,AFNE01.JPG,AFNE01.JPG,AFNE01.JPG,AFNE01.JPG,AFNE01.JPG,,,,,,,,,3,7,37,2,,,,,,,,,,,,,,,AFNE07.jpg,AFSA07.jpg,AFSA05.jpg,AFNE20.jpg,AFSA05.jpg,FS,4,num_2,16,num_2,1.3167036479,,,2018_Mar_28_1120,60.0057738568,FEMA4ImagesEEG,001,203292,
AFNE01.JPG,AFNE01.JPG,AFNE01.JPG,AFNE01.JPG,AFNE01.JPG,AFNE01.JPG,,,,,,,,,3,8,38,8,,,,,,,,,,,,,,,AFSA18.jpg,AFNE05.jpg,AFNE07.jpg,AFSA19.jpg,AFSA19.jpg,FS,4,num_4,16,num_4,0.900191096356,,,2018_Mar_28_1120,60.0057738568,FEMA4ImagesEEG,001,203292,
AFNE01.JPG,AFNE01.JPG,AFNE01.JPG,AFNE01.JPG,AFNE01.JPG,AFNE01.JPG,,,,,,,,,3,9,39,9,,,,,,,,,,,,,,,AFSA08.jpg,AFSA03.jpg,AFNE07.jpg,AFNE17.jpg,AFNE17.jpg,FN,3,num_4,16,num_4,0.700136763218,,,2018_Mar_28_1120,60.0057738568,FEMA4ImagesEEG,001,203292,
AFNE01.JPG,AFNE01.JPG,AFNE01.JPG,AFNE01.JPG,AFNE01.JPG,AFNE01.JPG,,,,,,,,,4,0,40,5,,,,,,,,,,,,,,,AFNE15.jpg,AFSA05.jpg,AFNE01.jpg,AFSA09.jpg,AFNE15.jpg,FN,3,num_8,16,num_8,0.650098883896,,,2018_Mar_28_1120,60.0057738568,FEMA4ImagesEEG,001,203292,
AFNE01.JPG,AFNE01.JPG,AFNE01.JPG,AFNE01.JPG,AFNE01.JPG,AFNE01.JPG,,,,,,,,,4,1,41,1,,,,,,,,,,,,,,,AFNE20.jpg,AFNE01.jpg,AFSA16.jpg,AFSA03.jpg,AFSA16.jpg,FS,4,num_2,32,num_4,0.600135095359,,,2018_Mar_28_1120,60.0057738568,FEMA4ImagesEEG,001,203292,
AFNE01.JPG,AFNE01.JPG,AFNE01.JPG,AFNE01.JPG,AFNE01.JPG,AFNE01.JPG,,,,,,,,,4,2,42,6,,,,,,,,,,,,,,,AFSA08.jpg,AFNE17.jpg,AFSA20.jpg,AFNE10.jpg,AFNE17.jpg,FN,3,num_6,32,num_8,0.600145679782,,,2018_Mar_28_1120,60.0057738568,FEMA4ImagesEEG,001,203292,
AFNE01.JPG,AFNE01.JPG,AFNE01.JPG,AFNE01.JPG,AFNE01.JPG,AFNE01.JPG,,,,,,,,,4,3,43,4,,,,,,,,,,,,,,,AFNE04.jpg,AFSA18.jpg,AFSA01.jpg,AFNE14.jpg,AFSA18.jpg,FS,4,num_6,16,num_6,0.583502202469,,,2018_Mar_28_1120,60.0057738568,FEMA4ImagesEEG,001,203292,
AFNE01.JPG,AFNE01.JPG,AFNE01.JPG,AFNE01.JPG,AFNE01.JPG,AFNE01.JPG,,,,,,,,,4,4,44,0,,,,,,,,,,,,,,,AFNE11.jpg,AFSA18.jpg,AFNE19.jpg,AFSA06.jpg,AFSA18.jpg,FS,4,num_6,32,num_8,1.11680198653,,,2018_Mar_28_1120,60.0057738568,FEMA4ImagesEEG,001,203292,
AFNE01.JPG,AFNE01.JPG,AFNE01.JPG,AFNE01.JPG,AFNE01.JPG,AFNE01.JPG,,,,,,,,,4,5,45,8,,,,,,,,,,,,,,,AFSA16.jpg,AFNE01.jpg,AFSA19.jpg,AFNE10.jpg,AFNE01.jpg,FN,3,num_6,32,num_8,0.500203348638,,,2018_Mar_28_1120,60.0057738568,FEMA4ImagesEEG,001,203292,
AFNE01.JPG,AFNE01.JPG,AFNE01.JPG,AFNE01.JPG,AFNE01.JPG,AFNE01.JPG,,,,,,,,,4,6,46,2,,,,,,,,,,,,,,,AFNE07.jpg,AFSA10.jpg,AFSA15.jpg,AFNE14.jpg,AFSA10.jpg,FS,4,num_6,32,num_4,0.716823540221,,,2018_Mar_28_1120,60.0057738568,FEMA4ImagesEEG,001,203292,
AFNE01.JPG,AFNE01.JPG,AFNE01.JPG,AFNE01.JPG,AFNE01.JPG,AFNE01.JPG,,,,,,,,,4,7,47,9,,,,,,,,,,,,,,,AFSA12.jpg,AFNE05.jpg,AFNE04.jpg,AFSA04.jpg,AFSA12.jpg,FS,4,num_8,16,num_8,0.566784313763,,,2018_Mar_28_1120,60.0057738568,FEMA4ImagesEEG,001,203292,
AFNE01.JPG,AFNE01.JPG,AFNE01.JPG,AFNE01.JPG,AFNE01.JPG,AFNE01.JPG,,,,,,,,,4,8,48,7,,,,,,,,,,,,,,,AFSA20.jpg,AFSA16.jpg,AFNE18.jpg,AFNE15.jpg,AFNE15.jpg,FN,3,num_4,16,num_4,0.516814110451,,,2018_Mar_28_1120,60.0057738568,FEMA4ImagesEEG,001,203292,
AFNE01.JPG,AFNE01.JPG,AFNE01.JPG,AFNE01.JPG,AFNE01.JPG,AFNE01.JPG,,,,,,,,,4,9,49,3,,,,,,,,,,,,,,,AFNE04.jpg,AFSA08.jpg,AFSA05.jpg,AFNE15.jpg,AFSA05.jpg,FS,4,num_2,16,num_2,1.31674502324,,,2018_Mar_28_1120,60.0057738568,FEMA4ImagesEEG,001,203292,
AFNE01.JPG,AFNE01.JPG,AFNE01.JPG,AFNE01.JPG,AFNE01.JPG,AFNE01.JPG,,,,,,,,,5,0,50,7,,,,,,,,,,,,,,,AFSA03.jpg,AFNE18.jpg,AFNE01.jpg,AFSA02.jpg,AFNE01.jpg,FN,3,num_2,32,num_6,0.6501299956,,,2018_Mar_28_1120,60.0057738568,FEMA4ImagesEEG,001,203292,
AFNE01.JPG,AFNE01.JPG,AFNE01.JPG,AFNE01.JPG,AFNE01.JPG,AFNE01.JPG,,,,,,,,,5,1,51,6,,,,,,,,,,,,,,,AFNE09.jpg,AFSA07.jpg,AFSA12.jpg,AFNE03.jpg,AFNE09.jpg,FN,3,num_8,32,num_4,0.566821198852,,,2018_Mar_28_1120,60.0057738568,FEMA4ImagesEEG,001,203292,
AFNE01.JPG,AFNE01.JPG,AFNE01.JPG,AFNE01.JPG,AFNE01.JPG,AFNE01.JPG,,,,,,,,,5,2,52,2,,,,,,,,,,,,,,,AFNE14.jpg,AFSA06.jpg,AFSA03.jpg,AFNE10.jpg,AFSA06.jpg,FS,4,num_6,32,num_8,0.516795828298,,,2018_Mar_28_1120,60.0057738568,FEMA4ImagesEEG,001,203292,
AFNE01.JPG,AFNE01.JPG,AFNE01.JPG,AFNE01.JPG,AFNE01.JPG,AFNE01.JPG,,,,,,,,,5,3,53,3,,,,,,,,,,,,,,,AFNE04.jpg,AFSA05.jpg,AFSA07.jpg,AFNE10.jpg,AFSA05.jpg,FS,4,num_6,16,num_6,0.53352109401,,,2018_Mar_28_1120,60.0057738568,FEMA4ImagesEEG,001,203292,
AFNE01.JPG,AFNE01.JPG,AFNE01.JPG,AFNE01.JPG,AFNE01.JPG,AFNE01.JPG,,,,,,,,,5,4,54,5,,,,,,,,,,,,,,,AFSA02.jpg,AFNE14.jpg,AFNE08.jpg,AFSA11.jpg,AFSA11.jpg,FS,4,num_4,16,num_4,0.566771804995,,,2018_Mar_28_1120,60.0057738568,FEMA4ImagesEEG,001,203292,
AFNE01.JPG,AFNE01.JPG,AFNE01.JPG,AFNE01.JPG,AFNE01.JPG,AFNE01.JPG,,,,,,,,,5,5,55,8,,,,,,,,,,,,,,,AFNE05.jpg,AFSA19.jpg,AFSA06.jpg,AFNE15.jpg,AFSA19.jpg,FS,4,num_6,16,num_6,0.416693769163,,,2018_Mar_28_1120,60.0057738568,FEMA4ImagesEEG,001,203292,
AFNE01.JPG,AFNE01.JPG,AFNE01.JPG,AFNE01.JPG,AFNE01.JPG,AFNE01.JPG,,,,,,,,,5,6,56,0,,,,,,,,,,,,,,,AFNE14.jpg,AFNE04.jpg,AFSA04.jpg,AFSA03.jpg,AFSA03.jpg,FS,4,num_4,16,num_4,0.666791754949,,,2018_Mar_28_1120,60.0057738568,FEMA4ImagesEEG,001,203292,
AFNE01.JPG,AFNE01.JPG,AFNE01.JPG,AFNE01.JPG,AFNE01.JPG,AFNE01.JPG,,,,,,,,,5,7,57,9,,,,,,,,,,,,,,,AFNE13.jpg,AFSA12.jpg,AFNE06.jpg,AFSA11.jpg,AFSA11.jpg,FS,4,num_4,16,num_4,0.616796533985,,,2018_Mar_28_1120,60.0057738568,FEMA4ImagesEEG,001,203292,
AFNE01.JPG,AFNE01.JPG,AFNE01.JPG,AFNE01.JPG,AFNE01.JPG,AFNE01.JPG,,,,,,,,,5,8,58,4,,,,,,,,,,,,,,,AFSA18.jpg,AFNE02.jpg,AFSA17.jpg,AFNE10.jpg,AFSA18.jpg,FS,4,num_8,32,num_2,1.18370337016,,,2018_Mar_28_1120,60.0057738568,FEMA4ImagesEEG,001,203292,
AFNE01.JPG,AFNE01.JPG,AFNE01.JPG,AFNE01.JPG,AFNE01.JPG,AFNE01.JPG,,,,,,,,,5,9,59,1,,,,,,,,,,,,,,,AFNE11.jpg,AFSA06.jpg,AFNE09.jpg,AFSA15.jpg,AFSA06.jpg,FS,4,num_6,16,num_6,0.73347343225,,,2018_Mar_28_1120,60.0057738568,FEMA4ImagesEEG,001,203292,
,,,,,,,,,,,,,,,,,,,,,,,,,,,,,,,,,,,,,,,,,,,space,8.51618449949,2018_Mar_28_1120,60.0057738568,FEMA4ImagesEEG,001,203292,
AFNE01.JPG,AFNE01.JPG,AFNE01.JPG,AFNE01.JPG,AFNE01.JPG,AFNE01.JPG,,,,,,,,,,,,,0,0,0,7,,,,,,,,,,,AMSA04.jpg,AMSA15.jpg,AMNE11.jpg,AMNE14.jpg,AMNE14.jpg,MN,1,num_4,16,num_4,1.03344604111,,,2018_Mar_28_1120,60.0057738568,FEMA4ImagesEEG,001,203292,
AFNE01.JPG,AFNE01.JPG,AFNE01.JPG,AFNE01.JPG,AFNE01.JPG,AFNE01.JPG,,,,,,,,,,,,,0,1,1,2,,,,,,,,,,,AMNE01.jpg,AMSA11.jpg,AMSA06.jpg,AMNE05.jpg,AMNE01.jpg,MN,1,num_8,32,num_2,1.60008313559,,,2018_Mar_28_1120,60.0057738568,FEMA4ImagesEEG,001,203292,
AFNE01.JPG,AFNE01.JPG,AFNE01.JPG,AFNE01.JPG,AFNE01.JPG,AFNE01.JPG,,,,,,,,,,,,,0,2,2,8,,,,,,,,,,,AMSA18.jpg,AMSA14.jpg,AMNE07.jpg,AMNE02.jpg,AMSA18.jpg,MS,2,num_8,32,num_6,1.18339866796,,,2018_Mar_28_1120,60.0057738568,FEMA4ImagesEEG,001,203292,
AFNE01.JPG,AFNE01.JPG,AFNE01.JPG,AFNE01.JPG,AFNE01.JPG,AFNE01.JPG,,,,,,,,,,,,,0,3,3,5,,,,,,,,,,,AMSA07.jpg,AMSA20.jpg,AMNE10.jpg,AMNE15.jpg,AMNE10.jpg,MN,1,num_2,32,num_4,0.783483727952,,,2018_Mar_28_1120,60.0057738568,FEMA4ImagesEEG,001,203292,
AFNE01.JPG,AFNE01.JPG,AFNE01.JPG,AFNE01.JPG,AFNE01.JPG,AFNE01.JPG,,,,,,,,,,,,,0,4,4,4,,,,,,,,,,,AMSA14.jpg,AMSA05.jpg,AMNE09.jpg,AMNE20.jpg,AMNE09.jpg,MN,1,num_2,32,num_8,0.683475003811,,,2018_Mar_28_1120,60.0057738568,FEMA4ImagesEEG,001,203292,
AFNE01.JPG,AFNE01.JPG,AFNE01.JPG,AFNE01.JPG,AFNE01.JPG,AFNE01.JPG,,,,,,,,,,,,,0,5,5,9,,,,,,,,,,,AMNE09.jpg,AMNE03.jpg,AMSA07.jpg,AMSA01.jpg,AMSA07.jpg,MS,2,num_2,32,num_4,0.900135287782,,,2018_Mar_28_1120,60.0057738568,FEMA4ImagesEEG,001,203292,
AFNE01.JPG,AFNE01.JPG,AFNE01.JPG,AFNE01.JPG,AFNE01.JPG,AFNE01.JPG,,,,,,,,,,,,,0,6,6,3,,,,,,,,,,,AMSA10.jpg,AMSA13.jpg,AMNE09.jpg,AMNE08.jpg,AMSA10.jpg,MS,2,num_8,32,num_6,0.683498417784,,,2018_Mar_28_1120,60.0057738568,FEMA4ImagesEEG,001,203292,
AFNE01.JPG,AFNE01.JPG,AFNE01.JPG,AFNE01.JPG,AFNE01.JPG,AFNE01.JPG,,,,,,,,,,,,,0,7,7,1,,,,,,,,,,,AMNE04.jpg,AMSA08.jpg,AMSA15.jpg,AMNE01.jpg,AMSA08.jpg,MS,2,num_6,16,num_6,0.750137757452,,,2018_Mar_28_1120,60.0057738568,FEMA4ImagesEEG,001,203292,
AFNE01.JPG,AFNE01.JPG,AFNE01.JPG,AFNE01.JPG,AFNE01.JPG,AFNE01.JPG,,,,,,,,,,,,,0,8,8,6,,,,,,,,,,,AMSA05.jpg,AMNE04.jpg,AMNE10.jpg,AMSA14.jpg,AMSA14.jpg,MS,2,num_4,32,num_8,0.700120726193,,,2018_Mar_28_1120,60.0057738568,FEMA4ImagesEEG,001,203292,
AFNE01.JPG,AFNE01.JPG,AFNE01.JPG,AFNE01.JPG,AFNE01.JPG,AFNE01.JPG,,,,,,,,,,,,,0,9,9,0,,,,,,,,,,,AMNE15.jpg,AMNE07.jpg,AMSA15.jpg,AMSA18.jpg,AMSA18.jpg,MS,2,num_4,16,num_4,0.666767699528,,,2018_Mar_28_1120,60.0057738568,FEMA4ImagesEEG,001,203292,
AFNE01.JPG,AFNE01.JPG,AFNE01.JPG,AFNE01.JPG,AFNE01.JPG,AFNE01.JPG,,,,,,,,,,,,,1,0,10,5,,,,,,,,,,,AMSA04.jpg,AMSA03.jpg,AMNE07.jpg,AMNE10.jpg,AMNE10.jpg,MN,1,num_4,16,num_4,0.550258868607,,,2018_Mar_28_1120,60.0057738568,FEMA4ImagesEEG,001,203292,
AFNE01.JPG,AFNE01.JPG,AFNE01.JPG,AFNE01.JPG,AFNE01.JPG,AFNE01.JPG,,,,,,,,,,,,,1,1,11,1,,,,,,,,,,,AMNE16.jpg,AMNE13.jpg,AMSA10.jpg,AMSA07.jpg,AMSA07.jpg,MS,2,num_4,16,num_4,0.53351083037,,,2018_Mar_28_1120,60.0057738568,FEMA4ImagesEEG,001,203292,
AFNE01.JPG,AFNE01.JPG,AFNE01.JPG,AFNE01.JPG,AFNE01.JPG,AFNE01.JPG,,,,,,,,,,,,,1,2,12,0,,,,,,,,,,,AMSA20.jpg,AMSA15.jpg,AMNE15.jpg,AMNE09.jpg,AMNE15.jpg,MN,1,num_2,16,num_2,0.516761509294,,,2018_Mar_28_1120,60.0057738568,FEMA4ImagesEEG,001,203292,
AFNE01.JPG,AFNE01.JPG,AFNE01.JPG,AFNE01.JPG,AFNE01.JPG,AFNE01.JPG,,,,,,,,,,,,,1,3,13,9,,,,,,,,,,,AMSA16.jpg,AMNE10.jpg,AMSA15.jpg,AMNE16.jpg,AMSA15.jpg,MS,2,num_2,32,num_8,0.50013086159,,,2018_Mar_28_1120,60.0057738568,FEMA4ImagesEEG,001,203292,
AFNE01.JPG,AFNE01.JPG,AFNE01.JPG,AFNE01.JPG,AFNE01.JPG,AFNE01.JPG,,,,,,,,,,,,,1,4,14,6,,,,,,,,,,,AMSA03.jpg,AMNE12.jpg,AMSA15.jpg,AMNE20.jpg,AMSA15.jpg,MS,2,num_2,32,num_8,0.583514711296,,,2018_Mar_28_1120,60.0057738568,FEMA4ImagesEEG,001,203292,
AFNE01.JPG,AFNE01.JPG,AFNE01.JPG,AFNE01.JPG,AFNE01.JPG,AFNE01.JPG,,,,,,,,,,,,,1,5,15,3,,,,,,,,,,,AMSA06.jpg,AMSA03.jpg,AMNE10.jpg,AMNE20.jpg,AMSA03.jpg,MS,2,num_6,32,num_8,0.70016338455,,,2018_Mar_28_1120,60.0057738568,FEMA4ImagesEEG,001,203292,
AFNE01.JPG,AFNE01.JPG,AFNE01.JPG,AFNE01.JPG,AFNE01.JPG,AFNE01.JPG,,,,,,,,,,,,,1,6,16,2,,,,,,,,,,,AMNE18.jpg,AMNE14.jpg,AMSA18.jpg,AMSA08.jpg,AMNE14.jpg,MN,1,num_6,16,num_6,0.45021646691,,,2018_Mar_28_1120,60.0057738568,FEMA4ImagesEEG,001,203292,
AFNE01.JPG,AFNE01.JPG,AFNE01.JPG,AFNE01.JPG,AFNE01.JPG,AFNE01.JPG,,,,,,,,,,,,,1,7,17,4,,,,,,,,,,,AMNE03.jpg,AMSA14.jpg,AMSA04.jpg,AMNE13.jpg,AMSA04.jpg,MS,2,num_2,16,num_2,0.750114343478,,,2018_Mar_28_1120,60.0057738568,FEMA4ImagesEEG,001,203292,
AFNE01.JPG,AFNE01.JPG,AFNE01.JPG,AFNE01.JPG,AFNE01.JPG,AFNE01.JPG,,,,,,,,,,,,,1,8,18,8,,,,,,,,,,,AMNE20.jpg,AMSA01.jpg,AMSA03.jpg,AMNE01.jpg,AMSA01.jpg,MS,2,num_6,32,num_2,1.01676920702,,,2018_Mar_28_1120,60.0057738568,FEMA4ImagesEEG,001,203292,
AFNE01.JPG,AFNE01.JPG,AFNE01.JPG,AFNE01.JPG,AFNE01.JPG,AFNE01.JPG,,,,,,,,,,,,,1,9,19,7,,,,,,,,,,,AMNE01.jpg,AMSA14.jpg,AMNE10.jpg,AMSA18.jpg,AMSA14.jpg,MS,2,num_6,16,num_6,3.06688791257,,,2018_Mar_28_1120,60.0057738568,FEMA4ImagesEEG,001,203292,
AFNE01.JPG,AFNE01.JPG,AFNE01.JPG,AFNE01.JPG,AFNE01.JPG,AFNE01.JPG,,,,,,,,,,,,,2,0,20,5,,,,,,,,,,,AMSA15.jpg,AMSA06.jpg,AMNE14.jpg,AMNE04.jpg,AMSA15.jpg,MS,2,num_8,32,num_6,0.583498032938,,,2018_Mar_28_1120,60.0057738568,FEMA4ImagesEEG,001,203292,
AFNE01.JPG,AFNE01.JPG,AFNE01.JPG,AFNE01.JPG,AFNE01.JPG,AFNE01.JPG,,,,,,,,,,,,,2,1,21,6,,,,,,,,,,,AMSA08.jpg,AMNE13.jpg,AMSA16.jpg,AMNE02.jpg,AMNE02.jpg,MN,1,num_4,32,num_8,2.79998255178,,,2018_Mar_28_1120,60.0057738568,FEMA4ImagesEEG,001,203292,
AFNE01.JPG,AFNE01.JPG,AFNE01.JPG,AFNE01.JPG,AFNE01.JPG,AFNE01.JPG,,,,,,,,,,,,,2,2,22,7,,,,,,,,,,,AMSA20.jpg,AMSA01.jpg,AMNE03.jpg,AMNE08.jpg,AMNE08.jpg,MN,1,num_4,16,num_4,0.416836818855,,,2018_Mar_28_1120,60.0057738568,FEMA4ImagesEEG,001,203292,
AFNE01.JPG,AFNE01.JPG,AFNE01.JPG,AFNE01.JPG,AFNE01.JPG,AFNE01.JPG,,,,,,,,,,,,,2,3,23,4,,,,,,,,,,,AMNE07.jpg,AMSA16.jpg,AMNE20.jpg,AMSA07.jpg,AMSA16.jpg,MS,2,num_6,16,num_6,0.650183558988,,,2018_Mar_28_1120,60.0057738568,FEMA4ImagesEEG,001,203292,
AFNE01.JPG,AFNE01.JPG,AFNE01.JPG,AFNE01.JPG,AFNE01.JPG,AFNE01.JPG,,,,,,,,,,,,,2,4,24,9,,,,,,,,,,,AMNE16.jpg,AMSA18.jpg,AMNE17.jpg,AMSA15.jpg,AMSA15.jpg,MS,2,num_4,16,num_4,0.750080986647,,,2018_Mar_28_1120,60.0057738568,FEMA4ImagesEEG,001,203292,
AFNE01.JPG,AFNE01.JPG,AFNE01.JPG,AFNE01.JPG,AFNE01.JPG,AFNE01.JPG,,,,,,,,,,,,,2,5,25,1,,,,,,,,,,,AMNE05.jpg,AMNE09.jpg,AMSA11.jpg,AMSA06.jpg,AMSA06.jpg,MS,2,num_4,32,num_8,0.666830564383,,,2018_Mar_28_1120,60.0057738568,FEMA4ImagesEEG,001,203292,
AFNE01.JPG,AFNE01.JPG,AFNE01.JPG,AFNE01.JPG,AFNE01.JPG,AFNE01.JPG,,,,,,,,,,,,,2,6,26,8,,,,,,,,,,,AMNE20.jpg,AMNE11.jpg,AMSA01.jpg,AMSA04.jpg,AMSA04.jpg,MS,2,num_4,32,num_8,0.616769912594,,,2018_Mar_28_1120,60.0057738568,FEMA4ImagesEEG,001,203292,
AFNE01.JPG,AFNE01.JPG,AFNE01.JPG,AFNE01.JPG,AFNE01.JPG,AFNE01.JPG,,,,,,,,,,,,,2,7,27,2,,,,,,,,,,,AMSA09.jpg,AMNE20.jpg,AMSA02.jpg,AMNE14.jpg,AMSA09.jpg,MS,2,num_8,32,num_2,0.716807182471,,,2018_Mar_28_1120,60.0057738568,FEMA4ImagesEEG,001,203292,
AFNE01.JPG,AFNE01.JPG,AFNE01.JPG,AFNE01.JPG,AFNE01.JPG,AFNE01.JPG,,,,,,,,,,,,,2,8,28,0,,,,,,,,,,,AMSA16.jpg,AMNE08.jpg,AMNE10.jpg,AMSA10.jpg,AMSA16.jpg,MS,2,num_8,32,num_6,0.600171018101,,,2018_Mar_28_1120,60.0057738568,FEMA4ImagesEEG,001,203292,
AFNE01.JPG,AFNE01.JPG,AFNE01.JPG,AFNE01.JPG,AFNE01.JPG,AFNE01.JPG,,,,,,,,,,,,,2,9,29,3,,,,,,,,,,,AMSA20.jpg,AMNE02.jpg,AMSA13.jpg,AMNE01.jpg,AMNE01.jpg,MN,1,num_4,32,num_8,0.583488090022,,,2018_Mar_28_1120,60.0057738568,FEMA4ImagesEEG,001,203292,
AFNE01.JPG,AFNE01.JPG,AFNE01.JPG,AFNE01.JPG,AFNE01.JPG,AFNE01.JPG,,,,,,,,,,,,,3,0,30,0,,,,,,,,,,,AMNE16.jpg,AMNE08.jpg,AMSA14.jpg,AMSA17.jpg,AMNE08.jpg,MN,1,num_6,32,num_2,0.633559646958,,,2018_Mar_28_1120,60.0057738568,FEMA4ImagesEEG,001,203292,
AFNE01.JPG,AFNE01.JPG,AFNE01.JPG,AFNE01.JPG,AFNE01.JPG,AFNE01.JPG,,,,,,,,,,,,,3,1,31,7,,,,,,,,,,,AMNE20.jpg,AMSA07.jpg,AMSA10.jpg,AMNE17.jpg,AMSA10.jpg,MS,2,num_2,32,num_6,0.783531518071,,,2018_Mar_28_1120,60.0057738568,FEMA4ImagesEEG,001,203292,
AFNE01.JPG,AFNE01.JPG,AFNE01.JPG,AFNE01.JPG,AFNE01.JPG,AFNE01.JPG,,,,,,,,,,,,,3,2,32,5,,,,,,,,,,,AMNE05.jpg,AMSA13.jpg,AMSA03.jpg,AMNE03.jpg,AMSA13.jpg,MS,2,num_6,32,num_8,0.900156456628,,,2018_Mar_28_1120,60.0057738568,FEMA4ImagesEEG,001,203292,
AFNE01.JPG,AFNE01.JPG,AFNE01.JPG,AFNE01.JPG,AFNE01.JPG,AFNE01.JPG,,,,,,,,,,,,,3,3,33,8,,,,,,,,,,,AMNE13.jpg,AMSA16.jpg,AMSA13.jpg,AMNE10.jpg,AMSA13.jpg,MS,2,num_2,32,num_8,1.1500818847,,,2018_Mar_28_1120,60.0057738568,FEMA4ImagesEEG,001,203292,
AFNE01.JPG,AFNE01.JPG,AFNE01.JPG,AFNE01.JPG,AFNE01.JPG,AFNE01.JPG,,,,,,,,,,,,,3,4,34,3,,,,,,,,,,,AMSA12.jpg,AMSA02.jpg,AMNE09.jpg,AMNE17.jpg,AMSA12.jpg,MS,2,num_8,32,num_2,0.650157258438,,,2018_Mar_28_1120,60.0057738568,FEMA4ImagesEEG,001,203292,
AFNE01.JPG,AFNE01.JPG,AFNE01.JPG,AFNE01.JPG,AFNE01.JPG,AFNE01.JPG,,,,,,,,,,,,,3,5,35,2,,,,,,,,,,,AMSA02.jpg,AMSA10.jpg,AMNE14.jpg,AMNE03.jpg,AMNE14.jpg,MN,1,num_2,32,num_6,0.516702172521,,,2018_Mar_28_1120,60.0057738568,FEMA4ImagesEEG,001,203292,
AFNE01.JPG,AFNE01.JPG,AFNE01.JPG,AFNE01.JPG,AFNE01.JPG,AFNE01.JPG,,,,,,,,,,,,,3,6,36,4,,,,,,,,,,,AMSA06.jpg,AMNE08.jpg,AMSA02.jpg,AMNE07.jpg,AMNE08.jpg,MN,1,num_6,32,num_8,0.533507302229,,,2018_Mar_28_1120,60.0057738568,FEMA4ImagesEEG,001,203292,
AFNE01.JPG,AFNE01.JPG,AFNE01.JPG,AFNE01.JPG,AFNE01.JPG,AFNE01.JPG,,,,,,,,,,,,,3,7,37,1,,,,,,,,,,,AMSA01.jpg,AMNE11.jpg,AMNE05.jpg,AMSA16.jpg,AMNE05.jpg,MN,1,num_2,16,num_2,0.950168356008,,,2018_Mar_28_1120,60.0057738568,FEMA4ImagesEEG,001,203292,
AFNE01.JPG,AFNE01.JPG,AFNE01.JPG,AFNE01.JPG,AFNE01.JPG,AFNE01.JPG,,,,,,,,,,,,,3,8,38,9,,,,,,,,,,,AMSA14.jpg,AMNE15.jpg,AMNE09.jpg,AMSA10.jpg,AMNE15.jpg,MN,1,num_6,32,num_8,2.5330640407,,,2018_Mar_28_1120,60.0057738568,FEMA4ImagesEEG,001,203292,
AFNE01.JPG,AFNE01.JPG,AFNE01.JPG,AFNE01.JPG,AFNE01.JPG,AFNE01.JPG,,,,,,,,,,,,,3,9,39,6,,,,,,,,,,,AMSA08.jpg,AMNE09.jpg,AMSA17.jpg,AMNE10.jpg,AMNE09.jpg,MN,1,num_6,16,num_6,0.833496910345,,,2018_Mar_28_1120,60.0057738568,FEMA4ImagesEEG,001,203292,
AFNE01.JPG,AFNE01.JPG,AFNE01.JPG,AFNE01.JPG,AFNE01.JPG,AFNE01.JPG,,,,,,,,,,,,,4,0,40,7,,,,,,,,,,,AMSA09.jpg,AMNE15.jpg,AMSA18.jpg,AMNE07.jpg,AMNE15.jpg,MN,1,num_6,32,num_8,0.816800511151,,,2018_Mar_28_1120,60.0057738568,FEMA4ImagesEEG,001,203292,
AFNE01.JPG,AFNE01.JPG,AFNE01.JPG,AFNE01.JPG,AFNE01.JPG,AFNE01.JPG,,,,,,,,,,,,,4,1,41,5,,,,,,,,,,,AMNE12.jpg,AMSA20.jpg,AMSA12.jpg,AMNE03.jpg,AMNE03.jpg,MN,1,num_4,16,num_4,0.766821968602,,,2018_Mar_28_1120,60.0057738568,FEMA4ImagesEEG,001,203292,
AFNE01.JPG,AFNE01.JPG,AFNE01.JPG,AFNE01.JPG,AFNE01.JPG,AFNE01.JPG,,,,,,,,,,,,,4,2,42,2,,,,,,,,,,,AMNE08.jpg,AMSA04.jpg,AMNE01.jpg,AMSA18.jpg,AMSA04.jpg,MS,2,num_6,32,num_2,0.466807663615,,,2018_Mar_28_1120,60.0057738568,FEMA4ImagesEEG,001,203292,
AFNE01.JPG,AFNE01.JPG,AFNE01.JPG,AFNE01.JPG,AFNE01.JPG,AFNE01.JPG,,,,,,,,,,,,,4,3,43,3,,,,,,,,,,,AMSA16.jpg,AMNE17.jpg,AMSA06.jpg,AMNE19.jpg,AMNE19.jpg,MN,1,num_4,32,num_6,1.18349039933,,,2018_Mar_28_1120,60.0057738568,FEMA4ImagesEEG,001,203292,
AFNE01.JPG,AFNE01.JPG,AFNE01.JPG,AFNE01.JPG,AFNE01.JPG,AFNE01.JPG,,,,,,,,,,,,,4,4,44,0,,,,,,,,,,,AMSA04.jpg,AMNE17.jpg,AMNE09.jpg,AMSA10.jpg,AMSA04.jpg,MS,2,num_8,16,num_8,0.783502972277,,,2018_Mar_28_1120,60.0057738568,FEMA4ImagesEEG,001,203292,
AFNE01.JPG,AFNE01.JPG,AFNE01.JPG,AFNE01.JPG,AFNE01.JPG,AFNE01.JPG,,,,,,,,,,,,,4,5,45,6,,,,,,,,,,,AMNE17.jpg,AMSA10.jpg,AMNE14.jpg,AMSA14.jpg,AMSA10.jpg,MS,2,num_6,32,num_8,0.783515160379,,,2018_Mar_28_1120,60.0057738568,FEMA4ImagesEEG,001,203292,
AFNE01.JPG,AFNE01.JPG,AFNE01.JPG,AFNE01.JPG,AFNE01.JPG,AFNE01.JPG,,,,,,,,,,,,,4,6,46,1,,,,,,,,,,,AMNE10.jpg,AMSA12.jpg,AMSA02.jpg,AMNE02.jpg,AMNE02.jpg,MN,1,num_4,16,num_4,0.800094489765,,,2018_Mar_28_1120,60.0057738568,FEMA4ImagesEEG,001,203292,
AFNE01.JPG,AFNE01.JPG,AFNE01.JPG,AFNE01.JPG,AFNE01.JPG,AFNE01.JPG,,,,,,,,,,,,,4,7,47,4,,,,,,,,,,,AMSA13.jpg,AMNE05.jpg,AMSA17.jpg,AMNE08.jpg,AMNE08.jpg,MN,1,num_4,32,num_8,0.800158958358,,,2018_Mar_28_1120,60.0057738568,FEMA4ImagesEEG,001,203292,
AFNE01.JPG,AFNE01.JPG,AFNE01.JPG,AFNE01.JPG,AFNE01.JPG,AFNE01.JPG,,,,,,,,,,,,,4,8,48,9,,,,,,,,,,,AMSA15.jpg,AMNE09.jpg,AMNE02.jpg,AMSA09.jpg,AMSA09.jpg,MS,2,num_4,32,num_6,0.883448831504,,,2018_Mar_28_1120,60.0057738568,FEMA4ImagesEEG,001,203292,
AFNE01.JPG,AFNE01.JPG,AFNE01.JPG,AFNE01.JPG,AFNE01.JPG,AFNE01.JPG,,,,,,,,,,,,,4,9,49,8,,,,,,,,,,,AMNE11.jpg,AMSA20.jpg,AMSA17.jpg,AMNE14.jpg,AMNE14.jpg,MN,1,num_4,32,num_6,1.23359852051,,,2018_Mar_28_1120,60.0057738568,FEMA4ImagesEEG,001,203292,
AFNE01.JPG,AFNE01.JPG,AFNE01.JPG,AFNE01.JPG,AFNE01.JPG,AFNE01.JPG,,,,,,,,,,,,,5,0,50,6,,,,,,,,,,,AMSA15.jpg,AMSA14.jpg,AMNE16.jpg,AMNE15.jpg,AMSA15.jpg,MS,2,num_8,16,num_8,0.616742970538,,,2018_Mar_28_1120,60.0057738568,FEMA4ImagesEEG,001,203292,
AFNE01.JPG,AFNE01.JPG,AFNE01.JPG,AFNE01.JPG,AFNE01.JPG,AFNE01.JPG,,,,,,,,,,,,,5,1,51,2,,,,,,,,,,,AMNE17.jpg,AMSA06.jpg,AMSA10.jpg,AMNE02.jpg,AMSA06.jpg,MS,2,num_6,32,num_8,0.633463104372,,,2018_Mar_28_1120,60.0057738568,FEMA4ImagesEEG,001,203292,
AFNE01.JPG,AFNE01.JPG,AFNE01.JPG,AFNE01.JPG,AFNE01.JPG,AFNE01.JPG,,,,,,,,,,,,,5,2,52,7,,,,,,,,,,,AMSA08.jpg,AMNE08.jpg,AMNE13.jpg,AMSA18.jpg,AMNE13.jpg,MN,1,num_2,32,num_8,0.533534565126,,,2018_Mar_28_1120,60.0057738568,FEMA4ImagesEEG,001,203292,
AFNE01.JPG,AFNE01.JPG,AFNE01.JPG,AFNE01.JPG,AFNE01.JPG,AFNE01.JPG,,,,,,,,,,,,,5,3,53,1,,,,,,,,,,,AMSA14.jpg,AMNE14.jpg,AMSA02.jpg,AMNE16.jpg,AMNE14.jpg,MN,1,num_6,16,num_6,0.73345194268,,,2018_Mar_28_1120,60.0057738568,FEMA4ImagesEEG,001,203292,
AFNE01.JPG,AFNE01.JPG,AFNE01.JPG,AFNE01.JPG,AFNE01.JPG,AFNE01.JPG,,,,,,,,,,,,,5,4,54,0,,,,,,,,,,,AMNE18.jpg,AMSA01.jpg,AMSA09.jpg,AMNE17.jpg,AMNE17.jpg,MN,1,num_4,32,num_2,1.16672728636,,,2018_Mar_28_1120,60.0057738568,FEMA4ImagesEEG,001,203292,
AFNE01.JPG,AFNE01.JPG,AFNE01.JPG,AFNE01.JPG,AFNE01.JPG,AFNE01.JPG,,,,,,,,,,,,,5,5,55,8,,,,,,,,,,,AMNE07.jpg,AMNE16.jpg,AMSA02.jpg,AMSA14.jpg,AMSA14.jpg,MS,2,num_4,16,num_4,0.516807695676,,,2018_Mar_28_1120,60.0057738568,FEMA4ImagesEEG,001,203292,
AFNE01.JPG,AFNE01.JPG,AFNE01.JPG,AFNE01.JPG,AFNE01.JPG,AFNE01.JPG,,,,,,,,,,,,,5,6,56,3,,,,,,,,,,,AMNE12.jpg,AMSA16.jpg,AMNE08.jpg,AMSA04.jpg,AMSA04.jpg,MS,2,num_4,32,num_2,0.93345014652,,,2018_Mar_28_1120,60.0057738568,FEMA4ImagesEEG,001,203292,
AFNE01.JPG,AFNE01.JPG,AFNE01.JPG,AFNE01.JPG,AFNE01.JPG,AFNE01.JPG,,,,,,,,,,,,,5,7,57,9,,,,,,,,,,,AMSA13.jpg,AMSA18.jpg,AMNE10.jpg,AMNE09.jpg,AMNE10.jpg,MN,1,num_2,32,num_6,0.583496108477,,,2018_Mar_28_1120,60.0057738568,FEMA4ImagesEEG,001,203292,
AFNE01.JPG,AFNE01.JPG,AFNE01.JPG,AFNE01.JPG,AFNE01.JPG,AFNE01.JPG,,,,,,,,,,,,,5,8,58,5,,,,,,,,,,,AMNE14.jpg,AMNE07.jpg,AMSA08.jpg,AMSA04.jpg,AMNE07.jpg,MN,1,num_6,32,num_2,0.700252229348,,,2018_Mar_28_1120,60.0057738568,FEMA4ImagesEEG,001,203292,
AFNE01.JPG,AFNE01.JPG,AFNE01.JPG,AFNE01.JPG,AFNE01.JPG,AFNE01.JPG,,,,,,,,,,,,,5,9,59,4,,,,,,,,,,,AMSA10.jpg,AMSA19.jpg,AMNE17.jpg,AMNE09.jpg,AMNE17.jpg,MN,1,num_2,32,num_8,0.550179325277,,,2018_Mar_28_1120,60.0057738568,FEMA4ImagesEEG,001,203292,
,,,,,,,,,,,,,,,,,,,,,,,,,,,,,,,,,,,,,,,,,,,space,17.33187397,2018_Mar_28_1120,60.0057738568,FEMA4ImagesEEG,001,203292,
AFNE01.JPG,AFNE01.JPG,AFNE01.JPG,AFNE01.JPG,AFNE01.JPG,AFNE01.JPG,,,,,,,,,,,,,,,,,0,0,0,3,,,,,,,AFNE16.jpg,AFSA10.jpg,AFSA15.jpg,AFNE02.jpg,AFNE16.jpg,FN,3,num_8,32,num_4,3.50015940738,,,2018_Mar_28_1120,60.0057738568,FEMA4ImagesEEG,001,203292,
AFNE01.JPG,AFNE01.JPG,AFNE01.JPG,AFNE01.JPG,AFNE01.JPG,AFNE01.JPG,,,,,,,,,,,,,,,,,0,1,1,5,,,,,,,AFSA16.jpg,AFNE09.jpg,AFNE07.jpg,AFSA13.jpg,AFSA13.jpg,FS,4,num_4,16,num_4,0.783479558304,,,2018_Mar_28_1120,60.0057738568,FEMA4ImagesEEG,001,203292,
AFNE01.JPG,AFNE01.JPG,AFNE01.JPG,AFNE01.JPG,AFNE01.JPG,AFNE01.JPG,,,,,,,,,,,,,,,,,0,2,2,9,,,,,,,AFNE18.jpg,AFSA17.jpg,AFSA03.jpg,AFNE14.jpg,AFSA17.jpg,FS,4,num_6,16,num_6,0.533482605359,,,2018_Mar_28_1120,60.0057738568,FEMA4ImagesEEG,001,203292,
AFNE01.JPG,AFNE01.JPG,AFNE01.JPG,AFNE01.JPG,AFNE01.JPG,AFNE01.JPG,,,,,,,,,,,,,,,,,0,3,3,0,,,,,,,AFSA02.jpg,AFSA18.jpg,AFNE07.jpg,AFNE20.jpg,AFSA02.jpg,FS,4,num_8,32,num_6,0.61677632737,,,2018_Mar_28_1120,60.0057738568,FEMA4ImagesEEG,001,203292,
AFNE01.JPG,AFNE01.JPG,AFNE01.JPG,AFNE01.JPG,AFNE01.JPG,AFNE01.JPG,,,,,,,,,,,,,,,,,0,4,4,1,,,,,,,AFSA18.jpg,AFSA17.jpg,AFNE09.jpg,AFNE14.jpg,AFSA17.jpg,FS,4,num_6,16,num_6,0.700234909367,,,2018_Mar_28_1120,60.0057738568,FEMA4ImagesEEG,001,203292,
AFNE01.JPG,AFNE01.JPG,AFNE01.JPG,AFNE01.JPG,AFNE01.JPG,AFNE01.JPG,,,,,,,,,,,,,,,,,0,5,5,6,,,,,,,AFNE16.jpg,AFSA18.jpg,AFNE15.jpg,AFSA01.jpg,AFSA18.jpg,FS,4,num_6,32,num_4,0.933461051725,,,2018_Mar_28_1120,60.0057738568,FEMA4ImagesEEG,001,203292,
AFNE01.JPG,AFNE01.JPG,AFNE01.JPG,AFNE01.JPG,AFNE01.JPG,AFNE01.JPG,,,,,,,,,,,,,,,,,0,6,6,8,,,,,,,AFSA14.jpg,AFNE10.jpg,AFSA08.jpg,AFNE05.jpg,AFNE10.jpg,FN,3,num_6,32,num_8,0.683526963578,,,2018_Mar_28_1120,60.0057738568,FEMA4ImagesEEG,001,203292,
AFNE01.JPG,AFNE01.JPG,AFNE01.JPG,AFNE01.JPG,AFNE01.JPG,AFNE01.JPG,,,,,,,,,,,,,,,,,0,7,7,2,,,,,,,AFNE12.jpg,AFSA07.jpg,AFSA03.jpg,AFNE05.jpg,AFNE05.jpg,FN,3,num_4,32,num_2,1.00016614288,,,2018_Mar_28_1120,60.0057738568,FEMA4ImagesEEG,001,203292,
AFNE01.JPG,AFNE01.JPG,AFNE01.JPG,AFNE01.JPG,AFNE01.JPG,AFNE01.JPG,,,,,,,,,,,,,,,,,0,8,8,4,,,,,,,AFNE11.jpg,AFSA11.jpg,AFNE08.jpg,AFSA19.jpg,AFSA19.jpg,FS,4,num_4,16,num_4,0.683424968505,,,2018_Mar_28_1120,60.0057738568,FEMA4ImagesEEG,001,203292,
AFNE01.JPG,AFNE01.JPG,AFNE01.JPG,AFNE01.JPG,AFNE01.JPG,AFNE01.JPG,,,,,,,,,,,,,,,,,0,9,9,7,,,,,,,AFNE03.jpg,AFNE14.jpg,AFSA08.jpg,AFSA03.jpg,AFNE14.jpg,FN,3,num_6,32,num_4,0.783513235976,,,2018_Mar_28_1120,60.0057738568,FEMA4ImagesEEG,001,203292,
AFNE01.JPG,AFNE01.JPG,AFNE01.JPG,AFNE01.JPG,AFNE01.JPG,AFNE01.JPG,,,,,,,,,,,,,,,,,1,0,10,3,,,,,,,AFNE02.jpg,AFSA02.jpg,AFSA08.jpg,AFNE20.jpg,AFSA08.jpg,FS,4,num_2,32,num_6,1.11677632737,,,2018_Mar_28_1120,60.0057738568,FEMA4ImagesEEG,001,203292,
AFNE01.JPG,AFNE01.JPG,AFNE01.JPG,AFNE01.JPG,AFNE01.JPG,AFNE01.JPG,,,,,,,,,,,,,,,,,1,1,11,9,,,,,,,AFNE08.jpg,AFNE15.jpg,AFSA14.jpg,AFSA13.jpg,AFSA14.jpg,FS,4,num_2,32,num_4,0.700170440774,,,2018_Mar_28_1120,60.0057738568,FEMA4ImagesEEG,001,203292,
AFNE01.JPG,AFNE01.JPG,AFNE01.JPG,AFNE01.JPG,AFNE01.JPG,AFNE01.JPG,,,,,,,,,,,,,,,,,1,2,12,8,,,,,,,AFNE15.jpg,AFNE02.jpg,AFSA14.jpg,AFSA04.jpg,AFNE15.jpg,FN,3,num_8,16,num_8,0.566822802473,,,2018_Mar_28_1120,60.0057738568,FEMA4ImagesEEG,001,203292,
AFNE01.JPG,AFNE01.JPG,AFNE01.JPG,AFNE01.JPG,AFNE01.JPG,AFNE01.JPG,,,,,,,,,,,,,,,,,1,3,13,1,,,,,,,AFNE04.jpg,AFSA06.jpg,AFSA13.jpg,AFNE17.jpg,AFSA13.jpg,FS,4,num_2,32,num_6,0.900133684103,,,2018_Mar_28_1120,60.0057738568,FEMA4ImagesEEG,001,203292,
AFNE01.JPG,AFNE01.JPG,AFNE01.JPG,AFNE01.JPG,AFNE01.JPG,AFNE01.JPG,,,,,,,,,,,,,,,,,1,4,14,2,,,,,,,AFNE16.jpg,AFSA15.jpg,AFNE01.jpg,AFSA05.jpg,AFSA15.jpg,FS,4,num_6,32,num_8,0.666807471134,,,2018_Mar_28_1120,60.0057738568,FEMA4ImagesEEG,001,203292,
AFNE01.JPG,AFNE01.JPG,AFNE01.JPG,AFNE01.JPG,AFNE01.JPG,AFNE01.JPG,,,,,,,,,,,,,,,,,1,5,15,6,,,,,,,AFNE20.jpg,AFNE09.jpg,AFSA20.jpg,AFSA06.jpg,AFSA06.jpg,FS,4,num_4,16,num_4,4.91645161103,,,2018_Mar_28_1120,60.0057738568,FEMA4ImagesEEG,001,203292,
AFNE01.JPG,AFNE01.JPG,AFNE01.JPG,AFNE01.JPG,AFNE01.JPG,AFNE01.JPG,,,,,,,,,,,,,,,,,1,6,16,0,,,,,,,AFNE17.jpg,AFNE04.jpg,AFSA03.jpg,AFSA05.jpg,AFNE17.jpg,FN,3,num_8,32,num_6,0.483510798309,,,2018_Mar_28_1120,60.0057738568,FEMA4ImagesEEG,001,203292,
AFNE01.JPG,AFNE01.JPG,AFNE01.JPG,AFNE01.JPG,AFNE01.JPG,AFNE01.JPG,,,,,,,,,,,,,,,,,1,7,17,5,,,,,,,AFSA19.jpg,AFNE06.jpg,AFNE11.jpg,AFSA09.jpg,AFSA09.jpg,FS,4,num_4,32,num_2,0.616810325766,,,2018_Mar_28_1120,60.0057738568,FEMA4ImagesEEG,001,203292,
AFNE01.JPG,AFNE01.JPG,AFNE01.JPG,AFNE01.JPG,AFNE01.JPG,AFNE01.JPG,,,,,,,,,,,,,,,,,1,8,18,4,,,,,,,AFNE06.jpg,AFNE14.jpg,AFSA11.jpg,AFSA10.jpg,AFSA10.jpg,FS,4,num_4,32,num_8,0.566776616033,,,2018_Mar_28_1120,60.0057738568,FEMA4ImagesEEG,001,203292,
AFNE01.JPG,AFNE01.JPG,AFNE01.JPG,AFNE01.JPG,AFNE01.JPG,AFNE01.JPG,,,,,,,,,,,,,,,,,1,9,19,7,,,,,,,AFNE06.jpg,AFNE19.jpg,AFSA04.jpg,AFSA07.jpg,AFNE19.jpg,FN,3,num_6,32,num_4,0.833199264365,,,2018_Mar_28_1120,60.0057738568,FEMA4ImagesEEG,001,203292,
AFNE01.JPG,AFNE01.JPG,AFNE01.JPG,AFNE01.JPG,AFNE01.JPG,AFNE01.JPG,,,,,,,,,,,,,,,,,2,0,20,9,,,,,,,AFSA12.jpg,AFNE09.jpg,AFNE20.jpg,AFSA03.jpg,AFNE20.jpg,FN,3,num_2,32,num_6,0.73343654722,,,2018_Mar_28_1120,60.0057738568,FEMA4ImagesEEG,001,203292,
AFNE01.JPG,AFNE01.JPG,AFNE01.JPG,AFNE01.JPG,AFNE01.JPG,AFNE01.JPG,,,,,,,,,,,,,,,,,2,1,21,1,,,,,,,AFSA01.jpg,AFNE01.jpg,AFNE06.jpg,AFSA06.jpg,AFSA06.jpg,FS,4,num_4,16,num_4,0.683538830897,,,2018_Mar_28_1120,60.0057738568,FEMA4ImagesEEG,001,203292,
AFNE01.JPG,AFNE01.JPG,AFNE01.JPG,AFNE01.JPG,AFNE01.JPG,AFNE01.JPG,,,,,,,,,,,,,,,,,2,2,22,8,,,,,,,AFNE14.jpg,AFSA12.jpg,AFNE08.jpg,AFSA20.jpg,AFNE08.jpg,FN,3,num_2,32,num_6,2.91685317649,,,2018_Mar_28_1120,60.0057738568,FEMA4ImagesEEG,001,203292,
AFNE01.JPG,AFNE01.JPG,AFNE01.JPG,AFNE01.JPG,AFNE01.JPG,AFNE01.JPG,,,,,,,,,,,,,,,,,2,3,23,4,,,,,,,AFNE14.jpg,AFSA02.jpg,AFNE19.jpg,AFSA07.jpg,AFSA02.jpg,FS,4,num_6,16,num_6,0.68353915168,,,2018_Mar_28_1120,60.0057738568,FEMA4ImagesEEG,001,203292,
AFNE01.JPG,AFNE01.JPG,AFNE01.JPG,AFNE01.JPG,AFNE01.JPG,AFNE01.JPG,,,,,,,,,,,,,,,,,2,4,24,2,,,,,,,AFSA03.jpg,AFNE18.jpg,AFSA13.jpg,AFNE12.jpg,AFNE12.jpg,FN,3,num_4,32,num_8,0.700188722985,,,2018_Mar_28_1120,60.0057738568,FEMA4ImagesEEG,001,203292,
AFNE01.JPG,AFNE01.JPG,AFNE01.JPG,AFNE01.JPG,AFNE01.JPG,AFNE01.JPG,,,,,,,,,,,,,,,,,2,5,25,7,,,,,,,AFSA16.jpg,AFSA12.jpg,AFNE10.jpg,AFNE01.jpg,AFNE10.jpg,FN,3,num_2,32,num_8,0.73349716689,,,2018_Mar_28_1120,60.0057738568,FEMA4ImagesEEG,001,203292,
AFNE01.JPG,AFNE01.JPG,AFNE01.JPG,AFNE01.JPG,AFNE01.JPG,AFNE01.JPG,,,,,,,,,,,,,,,,,2,6,26,5,,,,,,,AFSA20.jpg,AFSA13.jpg,AFNE17.jpg,AFNE14.jpg,AFSA13.jpg,FS,4,num_6,32,num_8,1.00014176674,,,2018_Mar_28_1120,60.0057738568,FEMA4ImagesEEG,001,203292,
AFNE01.JPG,AFNE01.JPG,AFNE01.JPG,AFNE01.JPG,AFNE01.JPG,AFNE01.JPG,,,,,,,,,,,,,,,,,2,7,27,6,,,,,,,AFSA08.jpg,AFNE17.jpg,AFNE12.jpg,AFSA19.jpg,AFSA08.jpg,FS,4,num_8,32,num_6,0.800119186635,,,2018_Mar_28_1120,60.0057738568,FEMA4ImagesEEG,001,203292,
AFNE01.JPG,AFNE01.JPG,AFNE01.JPG,AFNE01.JPG,AFNE01.JPG,AFNE01.JPG,,,,,,,,,,,,,,,,,2,8,28,3,,,,,,,AFSA07.jpg,AFNE06.jpg,AFNE12.jpg,AFSA20.jpg,AFSA20.jpg,FS,4,num_4,16,num_4,0.566825047659,,,2018_Mar_28_1120,60.0057738568,FEMA4ImagesEEG,001,203292,
AFNE01.JPG,AFNE01.JPG,AFNE01.JPG,AFNE01.JPG,AFNE01.JPG,AFNE01.JPG,,,,,,,,,,,,,,,,,2,9,29,0,,,,,,,AFSA08.jpg,AFSA04.jpg,AFNE10.jpg,AFNE05.jpg,AFSA08.jpg,FS,4,num_8,32,num_4,0.533503132639,,,2018_Mar_28_1120,60.0057738568,FEMA4ImagesEEG,001,203292,
AFNE01.JPG,AFNE01.JPG,AFNE01.JPG,AFNE01.JPG,AFNE01.JPG,AFNE01.JPG,,,,,,,,,,,,,,,,,3,0,30,2,,,,,,,AFSA03.jpg,AFSA20.jpg,AFNE11.jpg,AFNE04.jpg,AFNE04.jpg,FN,3,num_4,32,num_6,0.516864145815,,,2018_Mar_28_1120,60.0057738568,FEMA4ImagesEEG,001,203292,
AFNE01.JPG,AFNE01.JPG,AFNE01.JPG,AFNE01.JPG,AFNE01.JPG,AFNE01.JPG,,,,,,,,,,,,,,,,,3,1,31,7,,,,,,,AFNE11.jpg,AFSA02.jpg,AFNE09.jpg,AFSA09.jpg,AFSA02.jpg,FS,4,num_6,32,num_8,0.666791754949,,,2018_Mar_28_1120,60.0057738568,FEMA4ImagesEEG,001,203292,
AFNE01.JPG,AFNE01.JPG,AFNE01.JPG,AFNE01.JPG,AFNE01.JPG,AFNE01.JPG,,,,,,,,,,,,,,,,,3,2,32,6,,,,,,,AFNE04.jpg,AFNE10.jpg,AFSA18.jpg,AFSA02.jpg,AFSA02.jpg,FS,4,num_4,32,num_8,0.650183238322,,,2018_Mar_28_1120,60.0057738568,FEMA4ImagesEEG,001,203292,
AFNE01.JPG,AFNE01.JPG,AFNE01.JPG,AFNE01.JPG,AFNE01.JPG,AFNE01.JPG,,,,,,,,,,,,,,,,,3,3,33,0,,,,,,,AFSA04.jpg,AFNE14.jpg,AFSA16.jpg,AFNE01.jpg,AFSA04.jpg,FS,4,num_8,32,num_4,0.633576004591,,,2018_Mar_28_1120,60.0057738568,FEMA4ImagesEEG,001,203292,
AFNE01.JPG,AFNE01.JPG,AFNE01.JPG,AFNE01.JPG,AFNE01.JPG,AFNE01.JPG,,,,,,,,,,,,,,,,,3,4,34,3,,,,,,,AFNE18.jpg,AFSA05.jpg,AFNE19.jpg,AFSA14.jpg,AFSA05.jpg,FS,4,num_6,16,num_6,0.766829345608,,,2018_Mar_28_1120,60.0057738568,FEMA4ImagesEEG,001,203292,
AFNE01.JPG,AFNE01.JPG,AFNE01.JPG,AFNE01.JPG,AFNE01.JPG,AFNE01.JPG,,,,,,,,,,,,,,,,,3,5,35,8,,,,,,,AFSA10.jpg,AFNE19.jpg,AFNE15.jpg,AFSA08.jpg,AFSA08.jpg,FS,4,num_4,32,num_8,0.583461468632,,,2018_Mar_28_1120,60.0057738568,FEMA4ImagesEEG,001,203292,
AFNE01.JPG,AFNE01.JPG,AFNE01.JPG,AFNE01.JPG,AFNE01.JPG,AFNE01.JPG,,,,,,,,,,,,,,,,,3,6,36,4,,,,,,,AFNE03.jpg,AFSA08.jpg,AFNE14.jpg,AFSA17.jpg,AFSA17.jpg,FS,4,num_4,16,num_4,0.733557145169,,,2018_Mar_28_1120,60.0057738568,FEMA4ImagesEEG,001,203292,
AFNE01.JPG,AFNE01.JPG,AFNE01.JPG,AFNE01.JPG,AFNE01.JPG,AFNE01.JPG,,,,,,,,,,,,,,,,,3,7,37,1,,,,,,,AFNE12.jpg,AFSA19.jpg,AFSA02.jpg,AFNE08.jpg,AFNE12.jpg,FN,3,num_8,32,num_6,2.18341406336,,,2018_Mar_28_1120,60.0057738568,FEMA4ImagesEEG,001,203292,
AFNE01.JPG,AFNE01.JPG,AFNE01.JPG,AFNE01.JPG,AFNE01.JPG,AFNE01.JPG,,,,,,,,,,,,,,,,,3,8,38,5,,,,,,,AFNE03.jpg,AFSA09.jpg,AFNE05.jpg,AFSA20.jpg,AFSA09.jpg,FS,4,num_6,32,num_4,0.599997818994,,,2018_Mar_28_1120,60.0057738568,FEMA4ImagesEEG,001,203292,
AFNE01.JPG,AFNE01.JPG,AFNE01.JPG,AFNE01.JPG,AFNE01.JPG,AFNE01.JPG,,,,,,,,,,,,,,,,,3,9,39,9,,,,,,,AFSA20.jpg,AFNE12.jpg,AFNE10.jpg,AFSA10.jpg,AFSA10.jpg,FS,4,num_4,32,num_2,1.20012136776,,,2018_Mar_28_1120,60.0057738568,FEMA4ImagesEEG,001,203292,
AFNE01.JPG,AFNE01.JPG,AFNE01.JPG,AFNE01.JPG,AFNE01.JPG,AFNE01.JPG,,,,,,,,,,,,,,,,,4,0,40,8,,,,,,,AFNE15.jpg,AFSA19.jpg,AFNE01.jpg,AFSA10.jpg,AFNE15.jpg,FN,3,num_8,16,num_8,0.549957373762,,,2018_Mar_28_1120,60.0057738568,FEMA4ImagesEEG,001,203292,
AFNE01.JPG,AFNE01.JPG,AFNE01.JPG,AFNE01.JPG,AFNE01.JPG,AFNE01.JPG,,,,,,,,,,,,,,,,,4,1,41,5,,,,,,,AFSA09.jpg,AFSA14.jpg,AFNE02.jpg,AFNE09.jpg,AFNE09.jpg,FN,3,num_4,16,num_4,2.10008409782,,,2018_Mar_28_1120,60.0057738568,FEMA4ImagesEEG,001,203292,
AFNE01.JPG,AFNE01.JPG,AFNE01.JPG,AFNE01.JPG,AFNE01.JPG,AFNE01.JPG,,,,,,,,,,,,,,,,,4,2,42,4,,,,,,,AFNE06.jpg,AFNE11.jpg,AFSA07.jpg,AFSA02.jpg,AFSA02.jpg,FS,4,num_4,32,num_6,0.750165982521,,,2018_Mar_28_1120,60.0057738568,FEMA4ImagesEEG,001,203292,
AFNE01.JPG,AFNE01.JPG,AFNE01.JPG,AFNE01.JPG,AFNE01.JPG,AFNE01.JPG,,,,,,,,,,,,,,,,,4,3,43,7,,,,,,,AFSA03.jpg,AFNE15.jpg,AFNE04.jpg,AFSA16.jpg,AFNE04.jpg,FN,3,num_2,16,num_2,2.23340671847,,,2018_Mar_28_1120,60.0057738568,FEMA4ImagesEEG,001,203292,
AFNE01.JPG,AFNE01.JPG,AFNE01.JPG,AFNE01.JPG,AFNE01.JPG,AFNE01.JPG,,,,,,,,,,,,,,,,,4,4,44,1,,,,,,,AFSA12.jpg,AFNE10.jpg,AFNE18.jpg,AFSA02.jpg,AFSA12.jpg,FS,4,num_8,16,num_8,1.16674813442,,,2018_Mar_28_1120,60.0057738568,FEMA4ImagesEEG,001,203292,
AFNE01.JPG,AFNE01.JPG,AFNE01.JPG,AFNE01.JPG,AFNE01.JPG,AFNE01.JPG,,,,,,,,,,,,,,,,,4,5,45,0,,,,,,,AFNE04.jpg,AFSA01.jpg,AFNE11.jpg,AFSA16.jpg,AFSA16.jpg,FS,4,num_4,32,num_2,1.01678299875,,,2018_Mar_28_1120,60.0057738568,FEMA4ImagesEEG,001,203292,
AFNE01.JPG,AFNE01.JPG,AFNE01.JPG,AFNE01.JPG,AFNE01.JPG,AFNE01.JPG,,,,,,,,,,,,,,,,,4,6,46,2,,,,,,,AFNE06.jpg,AFSA16.jpg,AFSA09.jpg,AFNE15.jpg,AFSA09.jpg,FS,4,num_2,16,num_2,0.766807856096,,,2018_Mar_28_1120,60.0057738568,FEMA4ImagesEEG,001,203292,
AFNE01.JPG,AFNE01.JPG,AFNE01.JPG,AFNE01.JPG,AFNE01.JPG,AFNE01.JPG,,,,,,,,,,,,,,,,,4,7,47,6,,,,,,,AFNE08.jpg,AFSA17.jpg,AFNE10.jpg,AFSA12.jpg,AFNE08.jpg,FN,3,num_8,16,num_8,0.766846024024,,,2018_Mar_28_1120,60.0057738568,FEMA4ImagesEEG,001,203292,
AFNE01.JPG,AFNE01.JPG,AFNE01.JPG,AFNE01.JPG,AFNE01.JPG,AFNE01.JPG,,,,,,,,,,,,,,,,,4,8,48,3,,,,,,,AFSA06.jpg,AFSA10.jpg,AFNE17.jpg,AFNE20.jpg,AFSA10.jpg,FS,4,num_6,16,num_6,0.600154018961,,,2018_Mar_28_1120,60.0057738568,FEMA4ImagesEEG,001,203292,
AFNE01.JPG,AFNE01.JPG,AFNE01.JPG,AFNE01.JPG,AFNE01.JPG,AFNE01.JPG,,,,,,,,,,,,,,,,,4,9,49,9,,,,,,,AFNE13.jpg,AFNE10.jpg,AFSA15.jpg,AFSA01.jpg,AFNE13.jpg,FN,3,num_8,32,num_4,0.566792011494,,,2018_Mar_28_1120,60.0057738568,FEMA4ImagesEEG,001,203292,
AFNE01.JPG,AFNE01.JPG,AFNE01.JPG,AFNE01.JPG,AFNE01.JPG,AFNE01.JPG,,,,,,,,,,,,,,,,,5,0,50,3,,,,,,,AFNE07.jpg,AFNE01.jpg,AFSA12.jpg,AFSA10.jpg,AFNE07.jpg,FN,3,num_8,16,num_8,0.566823764762,,,2018_Mar_28_1120,60.0057738568,FEMA4ImagesEEG,001,203292,
AFNE01.JPG,AFNE01.JPG,AFNE01.JPG,AFNE01.JPG,AFNE01.JPG,AFNE01.JPG,,,,,,,,,,,,,,,,,5,1,51,9,,,,,,,AFSA05.jpg,AFNE04.jpg,AFSA11.jpg,AFNE02.jpg,AFNE02.jpg,FN,3,num_4,32,num_2,1.13343712449,,,2018_Mar_28_1120,60.0057738568,FEMA4ImagesEEG,001,203292,
AFNE01.JPG,AFNE01.JPG,AFNE01.JPG,AFNE01.JPG,AFNE01.JPG,AFNE01.JPG,,,,,,,,,,,,,,,,,5,2,52,1,,,,,,,AFNE04.jpg,AFSA09.jpg,AFNE13.jpg,AFSA18.jpg,AFNE04.jpg,FN,3,num_8,16,num_8,0.516836562252,,,2018_Mar_28_1120,60.0057738568,FEMA4ImagesEEG,001,203292,
AFNE01.JPG,AFNE01.JPG,AFNE01.JPG,AFNE01.JPG,AFNE01.JPG,AFNE01.JPG,,,,,,,,,,,,,,,,,5,3,53,0,,,,,,,AFSA07.jpg,AFNE05.jpg,AFNE11.jpg,AFSA19.jpg,AFSA19.jpg,FS,4,num_4,16,num_4,0.483496685803,,,2018_Mar_28_1120,60.0057738568,FEMA4ImagesEEG,001,203292,
AFNE01.JPG,AFNE01.JPG,AFNE01.JPG,AFNE01.JPG,AFNE01.JPG,AFNE01.JPG,,,,,,,,,,,,,,,,,5,4,54,8,,,,,,,AFSA09.jpg,AFNE08.jpg,AFNE12.jpg,AFSA06.jpg,AFNE12.jpg,FN,3,num_2,32,num_6,1.00003143249,,,2018_Mar_28_1120,60.0057738568,FEMA4ImagesEEG,001,203292,
AFNE01.JPG,AFNE01.JPG,AFNE01.JPG,AFNE01.JPG,AFNE01.JPG,AFNE01.JPG,,,,,,,,,,,,,,,,,5,5,55,6,,,,,,,AFNE10.jpg,AFSA13.jpg,AFNE13.jpg,AFSA18.jpg,AFNE10.jpg,FN,3,num_8,32,num_2,0.916836498014,,,2018_Mar_28_1120,60.0057738568,FEMA4ImagesEEG,001,203292,
AFNE01.JPG,AFNE01.JPG,AFNE01.JPG,AFNE01.JPG,AFNE01.JPG,AFNE01.JPG,,,,,,,,,,,,,,,,,5,6,56,7,,,,,,,AFNE02.jpg,AFSA06.jpg,AFNE17.jpg,AFSA05.jpg,AFSA05.jpg,FS,4,num_4,32,num_6,2.41668927873,,,2018_Mar_28_1120,60.0057738568,FEMA4ImagesEEG,001,203292,
AFNE01.JPG,AFNE01.JPG,AFNE01.JPG,AFNE01.JPG,AFNE01.JPG,AFNE01.JPG,,,,,,,,,,,,,,,,,5,7,57,2,,,,,,,AFNE14.jpg,AFNE08.jpg,AFSA06.jpg,AFSA08.jpg,AFSA06.jpg,FS,4,num_2,32,num_8,0.500188915408,,,2018_Mar_28_1120,60.0057738568,FEMA4ImagesEEG,001,203292,
AFNE01.JPG,AFNE01.JPG,AFNE01.JPG,AFNE01.JPG,AFNE01.JPG,AFNE01.JPG,,,,,,,,,,,,,,,,,5,8,58,4,,,,,,,AFSA11.jpg,AFSA15.jpg,AFNE05.jpg,AFNE04.jpg,AFNE05.jpg,FN,3,num_2,16,num_2,0.933433788829,,,2018_Mar_28_1120,60.0057738568,FEMA4ImagesEEG,001,203292,
AFNE01.JPG,AFNE01.JPG,AFNE01.JPG,AFNE01.JPG,AFNE01.JPG,AFNE01.JPG,,,,,,,,,,,,,,,,,5,9,59,5,,,,,,,AFSA15.jpg,AFNE11.jpg,AFNE01.jpg,AFSA11.jpg,AFNE01.jpg,FN,3,num_2,16,num_2,1.06680195441,,,2018_Mar_28_1120,60.0057738568,FEMA4ImagesEEG,001,203292,
,,,,,,,,,,,,,,,,,,,,,,,,,,,,,,,,,,,,,,,,,,,space,26.0145625214,2018_Mar_28_1120,60.0057738568,FEMA4ImagesEEG,001,203292,
AFNE01.JPG,AFNE01.JPG,AFNE01.JPG,AFNE01.JPG,AFNE01.JPG,AFNE01.JPG,,,,,,,,,,,,,,,,,,,,,0,0,0,7,,,AMNE14.jpg,AMNE04.jpg,AMSA09.jpg,AMSA05.jpg,AMSA05.jpg,MS,2,num_4,32,num_8,0.633452199283,,,2018_Mar_28_1120,60.0057738568,FEMA4ImagesEEG,001,203292,
AFNE01.JPG,AFNE01.JPG,AFNE01.JPG,AFNE01.JPG,AFNE01.JPG,AFNE01.JPG,,,,,,,,,,,,,,,,,,,,,0,1,1,3,,,AMSA06.jpg,AMNE11.jpg,AMNE13.jpg,AMSA20.jpg,AMSA06.jpg,MS,2,num_8,32,num_4,0.566821519518,,,2018_Mar_28_1120,60.0057738568,FEMA4ImagesEEG,001,203292,
AFNE01.JPG,AFNE01.JPG,AFNE01.JPG,AFNE01.JPG,AFNE01.JPG,AFNE01.JPG,,,,,,,,,,,,,,,,,,,,,0,2,2,1,,,AMSA12.jpg,AMNE02.jpg,AMNE07.jpg,AMSA11.jpg,AMNE02.jpg,MN,1,num_6,32,num_4,0.583504126931,,,2018_Mar_28_1120,60.0057738568,FEMA4ImagesEEG,001,203292,
AFNE01.JPG,AFNE01.JPG,AFNE01.JPG,AFNE01.JPG,AFNE01.JPG,AFNE01.JPG,,,,,,,,,,,,,,,,,,,,,0,3,3,4,,,AMNE08.jpg,AMSA09.jpg,AMSA16.jpg,AMNE01.jpg,AMNE08.jpg,MN,1,num_8,32,num_6,0.6835083607,,,2018_Mar_28_1120,60.0057738568,FEMA4ImagesEEG,001,203292,
AFNE01.JPG,AFNE01.JPG,AFNE01.JPG,AFNE01.JPG,AFNE01.JPG,AFNE01.JPG,,,,,,,,,,,,,,,,,,,,,0,4,4,5,,,AMSA12.jpg,AMSA15.jpg,AMNE05.jpg,AMNE18.jpg,AMSA12.jpg,MS,2,num_8,32,num_4,0.76681234641,,,2018_Mar_28_1120,60.0057738568,FEMA4ImagesEEG,001,203292,
AFNE01.JPG,AFNE01.JPG,AFNE01.JPG,AFNE01.JPG,AFNE01.JPG,AFNE01.JPG,,,,,,,,,,,,,,,,,,,,,0,5,5,6,,,AMNE02.jpg,AMSA13.jpg,AMNE10.jpg,AMSA17.jpg,AMNE10.jpg,MN,1,num_2,32,num_8,0.766906643752,,,2018_Mar_28_1120,60.0057738568,FEMA4ImagesEEG,001,203292,
AFNE01.JPG,AFNE01.JPG,AFNE01.JPG,AFNE01.JPG,AFNE01.JPG,AFNE01.JPG,,,,,,,,,,,,,,,,,,,,,0,6,6,9,,,AMSA18.jpg,AMNE11.jpg,AMNE20.jpg,AMSA12.jpg,AMNE11.jpg,MN,1,num_6,32,num_8,0.683294106915,,,2018_Mar_28_1120,60.0057738568,FEMA4ImagesEEG,001,203292,
AFNE01.JPG,AFNE01.JPG,AFNE01.JPG,AFNE01.JPG,AFNE01.JPG,AFNE01.JPG,,,,,,,,,,,,,,,,,,,,,0,7,7,8,,,AMNE09.jpg,AMNE12.jpg,AMSA09.jpg,AMSA06.jpg,AMSA09.jpg,MS,2,num_2,16,num_2,0.833469326724,,,2018_Mar_28_1120,60.0057738568,FEMA4ImagesEEG,001,203292,
AFNE01.JPG,AFNE01.JPG,AFNE01.JPG,AFNE01.JPG,AFNE01.JPG,AFNE01.JPG,,,,,,,,,,,,,,,,,,,,,0,8,8,0,,,AMNE15.jpg,AMSA20.jpg,AMSA02.jpg,AMNE18.jpg,AMNE18.jpg,MN,1,num_4,16,num_4,0.566805482609,,,2018_Mar_28_1120,60.0057738568,FEMA4ImagesEEG,001,203292,
AFNE01.JPG,AFNE01.JPG,AFNE01.JPG,AFNE01.JPG,AFNE01.JPG,AFNE01.JPG,,,,,,,,,,,,,,,,,,,,,0,9,9,2,,,AMNE14.jpg,AMSA14.jpg,AMNE05.jpg,AMSA02.jpg,AMNE05.jpg,MN,1,num_2,32,num_8,0.850112483255,,,2018_Mar_28_1120,60.0057738568,FEMA4ImagesEEG,001,203292,
AFNE01.JPG,AFNE01.JPG,AFNE01.JPG,AFNE01.JPG,AFNE01.JPG,AFNE01.JPG,,,,,,,,,,,,,,,,,,,,,1,0,10,3,,,AMSA01.jpg,AMNE03.jpg,AMSA20.jpg,AMNE05.jpg,AMSA20.jpg,MS,2,num_2,32,num_6,0.650167842803,,,2018_Mar_28_1120,60.0057738568,FEMA4ImagesEEG,001,203292,
AFNE01.JPG,AFNE01.JPG,AFNE01.JPG,AFNE01.JPG,AFNE01.JPG,AFNE01.JPG,,,,,,,,,,,,,,,,,,,,,1,1,11,1,,,AMSA13.jpg,AMNE01.jpg,AMNE18.jpg,AMSA02.jpg,AMNE01.jpg,MN,1,num_6,32,num_4,0.500170312531,,,2018_Mar_28_1120,60.0057738568,FEMA4ImagesEEG,001,203292,
AFNE01.JPG,AFNE01.JPG,AFNE01.JPG,AFNE01.JPG,AFNE01.JPG,AFNE01.JPG,,,,,,,,,,,,,,,,,,,,,1,2,12,9,,,AMSA18.jpg,AMSA13.jpg,AMNE02.jpg,AMNE01.jpg,AMNE01.jpg,MN,1,num_4,16,num_4,0.600189941761,,,2018_Mar_28_1120,60.0057738568,FEMA4ImagesEEG,001,203292,
AFNE01.JPG,AFNE01.JPG,AFNE01.JPG,AFNE01.JPG,AFNE01.JPG,AFNE01.JPG,,,,,,,,,,,,,,,,,,,,,1,3,13,4,,,AMSA10.jpg,AMNE15.jpg,AMSA16.jpg,AMNE13.jpg,AMSA16.jpg,MS,2,num_2,16,num_2,0.81676106021,,,2018_Mar_28_1120,60.0057738568,FEMA4ImagesEEG,001,203292,
AFNE01.JPG,AFNE01.JPG,AFNE01.JPG,AFNE01.JPG,AFNE01.JPG,AFNE01.JPG,,,,,,,,,,,,,,,,,,,,,1,4,14,7,,,AMNE18.jpg,AMSA11.jpg,AMNE03.jpg,AMSA10.jpg,AMSA10.jpg,MS,2,num_4,16,num_4,0.583331889997,,,2018_Mar_28_1120,60.0057738568,FEMA4ImagesEEG,001,203292,
AFNE01.JPG,AFNE01.JPG,AFNE01.JPG,AFNE01.JPG,AFNE01.JPG,AFNE01.JPG,,,,,,,,,,,,,,,,,,,,,1,5,15,6,,,AMSA20.jpg,AMNE03.jpg,AMNE12.jpg,AMSA10.jpg,AMSA10.jpg,MS,2,num_4,32,num_8,0.650243537268,,,2018_Mar_28_1120,60.0057738568,FEMA4ImagesEEG,001,203292,
AFNE01.JPG,AFNE01.JPG,AFNE01.JPG,AFNE01.JPG,AFNE01.JPG,AFNE01.JPG,,,,,,,,,,,,,,,,,,,,,1,6,16,2,,,AMNE13.jpg,AMSA05.jpg,AMNE10.jpg,AMSA03.jpg,AMSA03.jpg,MS,2,num_4,16,num_4,0.583409829647,,,2018_Mar_28_1120,60.0057738568,FEMA4ImagesEEG,001,203292,
AFNE01.JPG,AFNE01.JPG,AFNE01.JPG,AFNE01.JPG,AFNE01.JPG,AFNE01.JPG,,,,,,,,,,,,,,,,,,,,,1,7,17,0,,,AMSA11.jpg,AMSA03.jpg,AMNE04.jpg,AMNE19.jpg,AMNE19.jpg,MN,1,num_4,32,num_8,0.583450884209,,,2018_Mar_28_1120,60.0057738568,FEMA4ImagesEEG,001,203292,
AFNE01.JPG,AFNE01.JPG,AFNE01.JPG,AFNE01.JPG,AFNE01.JPG,AFNE01.JPG,,,,,,,,,,,,,,,,,,,,,1,8,18,5,,,AMNE10.jpg,AMSA18.jpg,AMNE05.jpg,AMSA03.jpg,AMSA18.jpg,MS,2,num_6,32,num_2,0.88336126972,,,2018_Mar_28_1120,60.0057738568,FEMA4ImagesEEG,001,203292,
AFNE01.JPG,AFNE01.JPG,AFNE01.JPG,AFNE01.JPG,AFNE01.JPG,AFNE01.JPG,,,,,,,,,,,,,,,,,,,,,1,9,19,8,,,AMSA14.jpg,AMNE10.jpg,AMSA06.jpg,AMNE20.jpg,AMSA06.jpg,MS,2,num_2,32,num_6,0.633430709771,,,2018_Mar_28_1120,60.0057738568,FEMA4ImagesEEG,001,203292,
AFNE01.JPG,AFNE01.JPG,AFNE01.JPG,AFNE01.JPG,AFNE01.JPG,AFNE01.JPG,,,,,,,,,,,,,,,,,,,,,2,0,20,7,,,AMNE08.jpg,AMNE03.jpg,AMSA05.jpg,AMSA07.jpg,AMNE03.jpg,MN,1,num_6,32,num_8,0.616778572556,,,2018_Mar_28_1120,60.0057738568,FEMA4ImagesEEG,001,203292,
AFNE01.JPG,AFNE01.JPG,AFNE01.JPG,AFNE01.JPG,AFNE01.JPG,AFNE01.JPG,,,,,,,,,,,,,,,,,,,,,2,1,21,4,,,AMSA09.jpg,AMNE12.jpg,AMNE02.jpg,AMSA07.jpg,AMSA09.jpg,MS,2,num_8,32,num_2,0.833494985884,,,2018_Mar_28_1120,60.0057738568,FEMA4ImagesEEG,001,203292,
AFNE01.JPG,AFNE01.JPG,AFNE01.JPG,AFNE01.JPG,AFNE01.JPG,AFNE01.JPG,,,,,,,,,,,,,,,,,,,,,2,2,22,5,,,AMNE12.jpg,AMSA13.jpg,AMSA20.jpg,AMNE08.jpg,AMSA20.jpg,MS,2,num_2,32,num_6,1.01661140332,,,2018_Mar_28_1120,60.0057738568,FEMA4ImagesEEG,001,203292,
AFNE01.JPG,AFNE01.JPG,AFNE01.JPG,AFNE01.JPG,AFNE01.JPG,AFNE01.JPG,,,,,,,,,,,,,,,,,,,,,2,3,23,6,,,AMSA16.jpg,AMNE16.jpg,AMSA09.jpg,AMNE01.jpg,AMSA09.jpg,MS,2,num_2,32,num_8,0.600156584871,,,2018_Mar_28_1120,60.0057738568,FEMA4ImagesEEG,001,203292,
AFNE01.JPG,AFNE01.JPG,AFNE01.JPG,AFNE01.JPG,AFNE01.JPG,AFNE01.JPG,,,,,,,,,,,,,,,,,,,,,2,4,24,3,,,AMNE08.jpg,AMNE09.jpg,AMSA11.jpg,AMSA14.jpg,AMSA11.jpg,MS,2,num_2,32,num_4,0.700134838757,,,2018_Mar_28_1120,60.0057738568,FEMA4ImagesEEG,001,203292,
AFNE01.JPG,AFNE01.JPG,AFNE01.JPG,AFNE01.JPG,AFNE01.JPG,AFNE01.JPG,,,,,,,,,,,,,,,,,,,,,2,5,25,2,,,AMSA08.jpg,AMNE20.jpg,AMSA06.jpg,AMNE02.jpg,AMNE20.jpg,MN,1,num_6,32,num_4,0.63350929087,,,2018_Mar_28_1120,60.0057738568,FEMA4ImagesEEG,001,203292,
AFNE01.JPG,AFNE01.JPG,AFNE01.JPG,AFNE01.JPG,AFNE01.JPG,AFNE01.JPG,,,,,,,,,,,,,,,,,,,,,2,6,26,9,,,AMSA05.jpg,AMSA20.jpg,AMNE16.jpg,AMNE09.jpg,AMSA05.jpg,MS,2,num_8,16,num_8,0.716775750043,,,2018_Mar_28_1120,60.0057738568,FEMA4ImagesEEG,001,203292,
AFNE01.JPG,AFNE01.JPG,AFNE01.JPG,AFNE01.JPG,AFNE01.JPG,AFNE01.JPG,,,,,,,,,,,,,,,,,,,,,2,7,27,1,,,AMNE06.jpg,AMSA18.jpg,AMNE12.jpg,AMSA17.jpg,AMNE12.jpg,MN,1,num_2,32,num_6,0.616839192284,,,2018_Mar_28_1120,60.0057738568,FEMA4ImagesEEG,001,203292,
AFNE01.JPG,AFNE01.JPG,AFNE01.JPG,AFNE01.JPG,AFNE01.JPG,AFNE01.JPG,,,,,,,,,,,,,,,,,,,,,2,8,28,0,,,AMNE12.jpg,AMSA14.jpg,AMNE11.jpg,AMSA07.jpg,AMSA07.jpg,MS,2,num_4,16,num_4,0.68348173931,,,2018_Mar_28_1120,60.0057738568,FEMA4ImagesEEG,001,203292,
AFNE01.JPG,AFNE01.JPG,AFNE01.JPG,AFNE01.JPG,AFNE01.JPG,AFNE01.JPG,,,,,,,,,,,,,,,,,,,,,2,9,29,8,,,AMSA08.jpg,AMSA16.jpg,AMNE01.jpg,AMNE02.jpg,AMSA08.jpg,MS,2,num_8,16,num_8,2.83332146599,,,2018_Mar_28_1120,60.0057738568,FEMA4ImagesEEG,001,203292,
AFNE01.JPG,AFNE01.JPG,AFNE01.JPG,AFNE01.JPG,AFNE01.JPG,AFNE01.JPG,,,,,,,,,,,,,,,,,,,,,3,0,30,0,,,AMSA05.jpg,AMNE15.jpg,AMNE12.jpg,AMSA07.jpg,AMSA07.jpg,MS,2,num_4,32,num_8,1.20011366997,,,2018_Mar_28_1120,60.0057738568,FEMA4ImagesEEG,001,203292,
AFNE01.JPG,AFNE01.JPG,AFNE01.JPG,AFNE01.JPG,AFNE01.JPG,AFNE01.JPG,,,,,,,,,,,,,,,,,,,,,3,1,31,8,,,AMSA17.jpg,AMNE01.jpg,AMSA09.jpg,AMNE05.jpg,AMSA09.jpg,MS,2,num_2,32,num_6,0.616686841182,,,2018_Mar_28_1120,60.0057738568,FEMA4ImagesEEG,001,203292,
AFNE01.JPG,AFNE01.JPG,AFNE01.JPG,AFNE01.JPG,AFNE01.JPG,AFNE01.JPG,,,,,,,,,,,,,,,,,,,,,3,2,32,6,,,AMNE05.jpg,AMNE08.jpg,AMSA18.jpg,AMSA11.jpg,AMNE05.jpg,MN,1,num_8,16,num_8,0.450159054599,,,2018_Mar_28_1120,60.0057738568,FEMA4ImagesEEG,001,203292,
AFNE01.JPG,AFNE01.JPG,AFNE01.JPG,AFNE01.JPG,AFNE01.JPG,AFNE01.JPG,,,,,,,,,,,,,,,,,,,,,3,3,33,9,,,AMNE16.jpg,AMSA15.jpg,AMSA18.jpg,AMNE17.jpg,AMSA18.jpg,MS,2,num_2,32,num_4,0.883482188394,,,2018_Mar_28_1120,60.0057738568,FEMA4ImagesEEG,001,203292,
AFNE01.JPG,AFNE01.JPG,AFNE01.JPG,AFNE01.JPG,AFNE01.JPG,AFNE01.JPG,,,,,,,,,,,,,,,,,,,,,3,4,34,2,,,AMSA11.jpg,AMNE13.jpg,AMSA04.jpg,AMNE14.jpg,AMNE13.jpg,MN,1,num_6,32,num_4,0.800245237187,,,2018_Mar_28_1120,60.0057738568,FEMA4ImagesEEG,001,203292,
AFNE01.JPG,AFNE01.JPG,AFNE01.JPG,AFNE01.JPG,AFNE01.JPG,AFNE01.JPG,,,,,,,,,,,,,,,,,,,,,3,5,35,3,,,AMNE02.jpg,AMSA10.jpg,AMSA11.jpg,AMNE03.jpg,AMSA11.jpg,MS,2,num_2,32,num_6,1.36688906723,,,2018_Mar_28_1120,60.0057738568,FEMA4ImagesEEG,001,203292,
AFNE01.JPG,AFNE01.JPG,AFNE01.JPG,AFNE01.JPG,AFNE01.JPG,AFNE01.JPG,,,,,,,,,,,,,,,,,,,,,3,6,36,5,,,AMSA13.jpg,AMNE06.jpg,AMSA12.jpg,AMNE15.jpg,AMSA13.jpg,MS,2,num_8,16,num_8,0.683551660448,,,2018_Mar_28_1120,60.0057738568,FEMA4ImagesEEG,001,203292,
AFNE01.JPG,AFNE01.JPG,AFNE01.JPG,AFNE01.JPG,AFNE01.JPG,AFNE01.JPG,,,,,,,,,,,,,,,,,,,,,3,7,37,4,,,AMNE01.jpg,AMSA19.jpg,AMSA01.jpg,AMNE06.jpg,AMNE06.jpg,MN,1,num_4,32,num_6,0.950228975737,,,2018_Mar_28_1120,60.0057738568,FEMA4ImagesEEG,001,203292,
AFNE01.JPG,AFNE01.JPG,AFNE01.JPG,AFNE01.JPG,AFNE01.JPG,AFNE01.JPG,,,,,,,,,,,,,,,,,,,,,3,8,38,1,,,AMSA17.jpg,AMNE13.jpg,AMSA10.jpg,AMNE20.jpg,AMNE13.jpg,MN,1,num_6,16,num_6,0.900233113265,,,2018_Mar_28_1120,60.0057738568,FEMA4ImagesEEG,001,203292,
