IPosition2,IPosition3,IPosition1,IPosition6,IPosition4,IPosition5,TrialsM1.thisRepN,TrialsM1.thisTrialN,TrialsM1.thisN,TrialsM1.thisIndex,TrialsF1.thisRepN,TrialsF1.thisTrialN,TrialsF1.thisN,TrialsF1.thisIndex,TrialsM2.thisRepN,TrialsM2.thisTrialN,TrialsM2.thisN,TrialsM2.thisIndex,TrialsF2.thisRepN,TrialsF2.thisTrialN,TrialsF2.thisN,TrialsF2.thisIndex,TrialsM3.thisRepN,TrialsM3.thisTrialN,TrialsM3.thisN,TrialsM3.thisIndex,TrialsF3.thisRepN,TrialsF3.thisTrialN,TrialsF3.thisN,TrialsF3.thisIndex,InstrKey_resp.keys,InstrKey_resp.rt,Image0 _Position,Image1 _Position,Image2 _Position,Image3 _Position,Center_image,condition,code,correct_answer,accuracy,Key_Resp.keys,Key_Resp.rt,BreakKey_resp.keys,BreakKey_resp.rt,date,frameRate,expName,session,participant,
,,,,,,,,,,,,,,,,,,,,,,,,,,,,,,space,13.2161186682,,,,,,,,,,,,,,2018_Mar_05_1352,60.0120686516,MAFE4ImagesEEG,001,203231,
AFSA25.JPG,AFNE24.JPG,AFSA24.JPG,AFNE21.JPG,AFSA21.JPG,AFNE25.JPG,0,0,0,2,,,,,,,,,,,,,,,,,,,,,,,AMNE14.jpg,AMSA17.jpg,AMSA16.jpg,AMNE03.jpg,AMSA17.jpg,MS,2,num_6,16,num_6,0.600167233264,,,2018_Mar_05_1352,60.0120686516,MAFE4ImagesEEG,001,203231,
AFSA21.JPG,AFNE22.JPG,AFNE21.JPG,AFSA23.JPG,AFSA22.JPG,AFNE23.JPG,0,1,1,0,,,,,,,,,,,,,,,,,,,,,,,AMSA12.jpg,AMNE10.jpg,AMNE20.jpg,AMSA16.jpg,AMNE20.jpg,MN,1,num_2,16,num_2,0.750142809004,,,2018_Mar_05_1352,60.0120686516,MAFE4ImagesEEG,001,203231,
AFNE22.JPG,AFSA24.JPG,AFSA22.JPG,AFNE25.JPG,AFNE24.JPG,AFSA25.JPG,0,2,2,6,,,,,,,,,,,,,,,,,,,,,,,AMSA13.jpg,AMNE16.jpg,AMSA08.jpg,AMNE07.jpg,AMSA13.jpg,MS,2,num_8,16,num_8,0.500133267138,,,2018_Mar_05_1352,60.0120686516,MAFE4ImagesEEG,001,203231,
AMSA21.JPG,AMNE22.JPG,AMNE21.JPG,AMSA23.JPG,AMSA22.JPG,AMNE23.JPG,0,3,3,1,,,,,,,,,,,,,,,,,,,,,,,AMSA07.jpg,AMSA18.jpg,AMNE18.jpg,AMNE20.jpg,AMNE20.jpg,MN,1,num_4,32,num_8,0.683483326808,,,2018_Mar_05_1352,60.0120686516,MAFE4ImagesEEG,001,203231,
AMSA21.JPG,AMNE23.JPG,AMNE21.JPG,AMSA25.JPG,AMNE25.JPG,AMSA23.JPG,0,4,4,5,,,,,,,,,,,,,,,,,,,,,,,AMNE16.jpg,AMSA16.jpg,AMNE20.jpg,AMSA08.jpg,AMSA08.jpg,MS,2,num_4,16,num_4,1.61669426621,,,2018_Mar_05_1352,60.0120686516,MAFE4ImagesEEG,001,203231,
AMNE23.JPG,AMNE24.JPG,AMNE22.JPG,AMSA24.JPG,AMSA22.JPG,AMSA23.JPG,0,5,5,9,,,,,,,,,,,,,,,,,,,,,,,AMSA03.jpg,AMNE08.jpg,AMSA11.jpg,AMNE14.jpg,AMNE14.jpg,MN,1,num_4,32,num_6,0.716748439008,,,2018_Mar_05_1352,60.0120686516,MAFE4ImagesEEG,001,203231,
AMSA25.JPG,AMNE24.JPG,AMSA24.JPG,AMNE26.JPG,AMSA21.JPG,AMNE25.JPG,0,6,6,3,,,,,,,,,,,,,,,,,,,,,,,AMSA19.jpg,AMNE09.jpg,AMNE17.jpg,AMSA11.jpg,AMSA19.jpg,MS,2,num_8,16,num_8,0.833449600963,,,2018_Mar_05_1352,60.0120686516,MAFE4ImagesEEG,001,203231,
AFSA21.JPG,AFNE23.JPG,AFNE21.JPG,AFSA25.JPG,AFNE25.JPG,AFSA23.JPG,0,7,7,4,,,,,,,,,,,,,,,,,,,,,,,AMNE04.jpg,AMSA20.jpg,AMNE16.jpg,AMSA04.jpg,AMSA04.jpg,MS,2,num_4,16,num_4,0.683175738202,,,2018_Mar_05_1352,60.0120686516,MAFE4ImagesEEG,001,203231,
AFNE23.JPG,AFNE24.JPG,AFNE22.JPG,AFSA24.JPG,AFSA22.JPG,AFSA23.JPG,0,8,8,8,,,,,,,,,,,,,,,,,,,,,,,AMSA15.jpg,AMSA12.jpg,AMNE19.jpg,AMNE16.jpg,AMNE16.jpg,MN,1,num_4,16,num_4,0.833477505483,,,2018_Mar_05_1352,60.0120686516,MAFE4ImagesEEG,001,203231,
AMNE22.JPG,AMSA24.JPG,AMSA22.JPG,AMNE25.JPG,AMNE24.JPG,AMSA25.JPG,0,9,9,7,,,,,,,,,,,,,,,,,,,,,,,AMSA19.jpg,AMSA03.jpg,AMNE14.jpg,AMNE04.jpg,AMSA03.jpg,MS,2,num_6,32,num_8,0.633525680518,,,2018_Mar_05_1352,60.0120686516,MAFE4ImagesEEG,001,203231,
AMNE23.JPG,AMNE24.JPG,AMNE22.JPG,AMSA24.JPG,AMSA22.JPG,AMSA23.JPG,,,,,0,0,0,9,,,,,,,,,,,,,,,,,,,AFNE20.jpg,AFNE08.jpg,AFSA08.jpg,AFSA13.jpg,AFNE08.jpg,FN,3,num_6,16,num_6,0.71658999403,,,2018_Mar_05_1352,60.0120686516,MAFE4ImagesEEG,001,203231,
AFSA21.JPG,AFNE22.JPG,AFNE21.JPG,AFSA23.JPG,AFSA22.JPG,AFNE23.JPG,,,,,0,1,1,0,,,,,,,,,,,,,,,,,,,AFNE07.jpg,AFSA02.jpg,AFSA01.jpg,AFNE12.jpg,AFNE07.jpg,FN,3,num_8,16,num_8,0.833453129278,,,2018_Mar_05_1352,60.0120686516,MAFE4ImagesEEG,001,203231,
AMSA25.JPG,AMNE24.JPG,AMSA24.JPG,AMNE26.JPG,AMSA21.JPG,AMNE25.JPG,,,,,0,2,2,3,,,,,,,,,,,,,,,,,,,AFSA14.jpg,AFSA17.jpg,AFNE15.jpg,AFNE09.jpg,AFSA14.jpg,FS,4,num_8,16,num_8,1.03344183927,,,2018_Mar_05_1352,60.0120686516,MAFE4ImagesEEG,001,203231,
AMSA21.JPG,AMNE23.JPG,AMNE21.JPG,AMSA25.JPG,AMNE25.JPG,AMSA23.JPG,,,,,0,3,3,5,,,,,,,,,,,,,,,,,,,AFSA03.jpg,AFNE13.jpg,AFSA16.jpg,AFNE08.jpg,AFSA16.jpg,FS,4,num_2,32,num_8,0.733563495567,,,2018_Mar_05_1352,60.0120686516,MAFE4ImagesEEG,001,203231,
AMSA21.JPG,AMNE22.JPG,AMNE21.JPG,AMSA23.JPG,AMSA22.JPG,AMNE23.JPG,,,,,0,4,4,1,,,,,,,,,,,,,,,,,,,AFSA14.jpg,AFSA19.jpg,AFNE10.jpg,AFNE15.jpg,AFNE15.jpg,FN,3,num_4,16,num_4,0.600160818547,,,2018_Mar_05_1352,60.0120686516,MAFE4ImagesEEG,001,203231,
AFSA21.JPG,AFNE23.JPG,AFNE21.JPG,AFSA25.JPG,AFNE25.JPG,AFSA23.JPG,,,,,0,5,5,4,,,,,,,,,,,,,,,,,,,AFNE02.jpg,AFSA05.jpg,AFNE17.jpg,AFSA09.jpg,AFNE02.jpg,FN,3,num_8,32,num_2,1.73336688266,,,2018_Mar_05_1352,60.0120686516,MAFE4ImagesEEG,001,203231,
AFNE22.JPG,AFSA24.JPG,AFSA22.JPG,AFNE25.JPG,AFNE24.JPG,AFSA25.JPG,,,,,0,6,6,6,,,,,,,,,,,,,,,,,,,AFNE15.jpg,AFSA09.jpg,AFSA18.jpg,AFNE12.jpg,AFNE12.jpg,FN,3,num_4,16,num_4,0.716796229128,,,2018_Mar_05_1352,60.0120686516,MAFE4ImagesEEG,001,203231,
AMNE22.JPG,AMSA24.JPG,AMSA22.JPG,AMNE25.JPG,AMNE24.JPG,AMSA25.JPG,,,,,0,7,7,7,,,,,,,,,,,,,,,,,,,AFSA16.jpg,AFSA10.jpg,AFNE02.jpg,AFNE04.jpg,AFSA16.jpg,FS,4,num_8,16,num_8,0.616789525608,,,2018_Mar_05_1352,60.0120686516,MAFE4ImagesEEG,001,203231,
AFSA25.JPG,AFNE24.JPG,AFSA24.JPG,AFNE21.JPG,AFSA21.JPG,AFNE25.JPG,,,,,0,8,8,2,,,,,,,,,,,,,,,,,,,AFSA17.jpg,AFSA12.jpg,AFNE11.jpg,AFNE15.jpg,AFSA12.jpg,FS,4,num_6,16,num_6,0.466768084327,,,2018_Mar_05_1352,60.0120686516,MAFE4ImagesEEG,001,203231,
AFNE23.JPG,AFNE24.JPG,AFNE22.JPG,AFSA24.JPG,AFSA22.JPG,AFSA23.JPG,,,,,0,9,9,8,,,,,,,,,,,,,,,,,,,AFNE11.jpg,AFSA06.jpg,AFNE19.jpg,AFSA04.jpg,AFNE19.jpg,FN,3,num_2,32,num_8,0.833466600394,,,2018_Mar_05_1352,60.0120686516,MAFE4ImagesEEG,001,203231,
AFSA25.JPG,AFNE24.JPG,AFSA24.JPG,AFNE21.JPG,AFSA21.JPG,AFNE25.JPG,,,,,,,,,0,0,0,2,,,,,,,,,,,,,,,AMNE03.jpg,AMSA01.jpg,AMSA05.jpg,AMNE13.jpg,AMNE03.jpg,MN,1,num_8,16,num_8,0.750125809805,,,2018_Mar_05_1352,60.0120686516,MAFE4ImagesEEG,001,203231,
AMSA25.JPG,AMNE24.JPG,AMSA24.JPG,AMNE26.JPG,AMSA21.JPG,AMNE25.JPG,,,,,,,,,0,1,1,3,,,,,,,,,,,,,,,AMSA19.jpg,AMNE19.jpg,AMNE12.jpg,AMSA07.jpg,AMSA19.jpg,MS,2,num_8,32,num_4,0.750197334681,,,2018_Mar_05_1352,60.0120686516,MAFE4ImagesEEG,001,203231,
AFNE22.JPG,AFSA24.JPG,AFSA22.JPG,AFNE25.JPG,AFNE24.JPG,AFSA25.JPG,,,,,,,,,0,2,2,6,,,,,,,,,,,,,,,AMNE12.jpg,AMSA15.jpg,AMNE01.jpg,AMSA12.jpg,AMNE12.jpg,MN,1,num_8,16,num_8,0.583615824115,,,2018_Mar_05_1352,60.0120686516,MAFE4ImagesEEG,001,203231,
AMNE22.JPG,AMSA24.JPG,AMSA22.JPG,AMNE25.JPG,AMNE24.JPG,AMSA25.JPG,,,,,,,,,0,3,3,7,,,,,,,,,,,,,,,AMNE03.jpg,AMSA03.jpg,AMSA06.jpg,AMNE16.jpg,AMSA03.jpg,MS,2,num_6,16,num_6,0.783486822853,,,2018_Mar_05_1352,60.0120686516,MAFE4ImagesEEG,001,203231,
AFNE23.JPG,AFNE24.JPG,AFNE22.JPG,AFSA24.JPG,AFSA22.JPG,AFSA23.JPG,,,,,,,,,0,4,4,8,,,,,,,,,,,,,,,AMNE01.jpg,AMSA08.jpg,AMNE08.jpg,AMSA03.jpg,AMNE01.jpg,MN,1,num_8,16,num_8,0.800188658526,,,2018_Mar_05_1352,60.0120686516,MAFE4ImagesEEG,001,203231,
AFSA21.JPG,AFNE22.JPG,AFNE21.JPG,AFSA23.JPG,AFSA22.JPG,AFNE23.JPG,,,,,,,,,0,5,5,0,,,,,,,,,,,,,,,AMSA08.jpg,AMNE19.jpg,AMNE17.jpg,AMSA07.jpg,AMNE17.jpg,MN,1,num_2,16,num_2,0.783457315061,,,2018_Mar_05_1352,60.0120686516,MAFE4ImagesEEG,001,203231,
AMSA21.JPG,AMNE23.JPG,AMNE21.JPG,AMSA25.JPG,AMNE25.JPG,AMSA23.JPG,,,,,,,,,0,6,6,5,,,,,,,,,,,,,,,AMSA13.jpg,AMNE16.jpg,AMNE13.jpg,AMSA15.jpg,AMSA13.jpg,MS,2,num_8,32,num_4,0.733434237773,,,2018_Mar_05_1352,60.0120686516,MAFE4ImagesEEG,001,203231,
AMSA21.JPG,AMNE22.JPG,AMNE21.JPG,AMSA23.JPG,AMSA22.JPG,AMNE23.JPG,,,,,,,,,0,7,7,1,,,,,,,,,,,,,,,AMSA15.jpg,AMSA16.jpg,AMNE11.jpg,AMNE08.jpg,AMNE08.jpg,MN,1,num_4,32,num_2,0.683492307551,,,2018_Mar_05_1352,60.0120686516,MAFE4ImagesEEG,001,203231,
AMNE23.JPG,AMNE24.JPG,AMNE22.JPG,AMSA24.JPG,AMSA22.JPG,AMSA23.JPG,,,,,,,,,0,8,8,9,,,,,,,,,,,,,,,AMSA09.jpg,AMSA17.jpg,AMNE13.jpg,AMNE16.jpg,AMSA17.jpg,MS,2,num_6,16,num_6,0.633474041475,,,2018_Mar_05_1352,60.0120686516,MAFE4ImagesEEG,001,203231,
AFSA21.JPG,AFNE23.JPG,AFNE21.JPG,AFSA25.JPG,AFNE25.JPG,AFSA23.JPG,,,,,,,,,0,9,9,4,,,,,,,,,,,,,,,AMSA10.jpg,AMSA18.jpg,AMNE19.jpg,AMNE01.jpg,AMNE01.jpg,MN,1,num_4,16,num_4,0.733459576033,,,2018_Mar_05_1352,60.0120686516,MAFE4ImagesEEG,001,203231,
AMNE22.JPG,AMSA24.JPG,AMSA22.JPG,AMNE25.JPG,AMNE24.JPG,AMSA25.JPG,,,,,,,,,,,,,0,0,0,7,,,,,,,,,,,AFNE05.jpg,AFSA18.jpg,AFNE11.jpg,AFSA07.jpg,AFSA18.jpg,FS,4,num_6,16,num_6,0.683299543569,,,2018_Mar_05_1352,60.0120686516,MAFE4ImagesEEG,001,203231,
AMSA21.JPG,AMNE22.JPG,AMNE21.JPG,AMSA23.JPG,AMSA22.JPG,AMNE23.JPG,,,,,,,,,,,,,0,1,1,1,,,,,,,,,,,AFNE07.jpg,AFNE14.jpg,AFSA10.jpg,AFSA08.jpg,AFNE07.jpg,FN,3,num_8,16,num_8,0.633461853256,,,2018_Mar_05_1352,60.0120686516,MAFE4ImagesEEG,001,203231,
AFSA21.JPG,AFNE22.JPG,AFNE21.JPG,AFSA23.JPG,AFSA22.JPG,AFNE23.JPG,,,,,,,,,,,,,0,2,2,0,,,,,,,,,,,AFNE16.jpg,AFSA16.jpg,AFNE03.jpg,AFSA05.jpg,AFNE16.jpg,FN,3,num_8,32,num_2,1.16676625609,,,2018_Mar_05_1352,60.0120686516,MAFE4ImagesEEG,001,203231,
AFSA21.JPG,AFNE23.JPG,AFNE21.JPG,AFSA25.JPG,AFNE25.JPG,AFSA23.JPG,,,,,,,,,,,,,0,3,3,4,,,,,,,,,,,AFNE06.jpg,AFSA03.jpg,AFSA17.jpg,AFNE03.jpg,AFSA03.jpg,FS,4,num_6,32,num_4,0.68345638481,,,2018_Mar_05_1352,60.0120686516,MAFE4ImagesEEG,001,203231,
AFSA25.JPG,AFNE24.JPG,AFSA24.JPG,AFNE21.JPG,AFSA21.JPG,AFNE25.JPG,,,,,,,,,,,,,0,4,4,2,,,,,,,,,,,AFNE20.jpg,AFNE12.jpg,AFSA14.jpg,AFSA04.jpg,AFNE12.jpg,FN,3,num_6,16,num_6,0.950130236102,,,2018_Mar_05_1352,60.0120686516,MAFE4ImagesEEG,001,203231,
AMSA21.JPG,AMNE23.JPG,AMNE21.JPG,AMSA25.JPG,AMNE25.JPG,AMSA23.JPG,,,,,,,,,,,,,0,5,5,5,,,,,,,,,,,AFNE01.jpg,AFNE02.jpg,AFSA06.jpg,AFSA12.jpg,AFSA06.jpg,FS,4,num_2,32,num_8,0.733466632431,,,2018_Mar_05_1352,60.0120686516,MAFE4ImagesEEG,001,203231,
AFNE23.JPG,AFNE24.JPG,AFNE22.JPG,AFSA24.JPG,AFSA22.JPG,AFSA23.JPG,,,,,,,,,,,,,0,6,6,8,,,,,,,,,,,AFSA13.jpg,AFNE07.jpg,AFNE20.jpg,AFSA19.jpg,AFSA13.jpg,FS,4,num_8,16,num_8,0.76680038264,,,2018_Mar_05_1352,60.0120686516,MAFE4ImagesEEG,001,203231,
AFNE22.JPG,AFSA24.JPG,AFSA22.JPG,AFNE25.JPG,AFNE24.JPG,AFSA25.JPG,,,,,,,,,,,,,0,7,7,6,,,,,,,,,,,AFSA01.jpg,AFSA10.jpg,AFNE04.jpg,AFNE14.jpg,AFNE14.jpg,FN,3,num_4,16,num_4,1.21675148606,,,2018_Mar_05_1352,60.0120686516,MAFE4ImagesEEG,001,203231,
AMSA25.JPG,AMNE24.JPG,AMSA24.JPG,AMNE26.JPG,AMSA21.JPG,AMNE25.JPG,,,,,,,,,,,,,0,8,8,3,,,,,,,,,,,AFNE03.jpg,AFSA19.jpg,AFSA12.jpg,AFNE04.jpg,AFNE04.jpg,FN,3,num_4,32,num_8,0.600137404399,,,2018_Mar_05_1352,60.0120686516,MAFE4ImagesEEG,001,203231,
AMNE23.JPG,AMNE24.JPG,AMNE22.JPG,AMSA24.JPG,AMSA22.JPG,AMSA23.JPG,,,,,,,,,,,,,0,9,9,9,,,,,,,,,,,AFNE08.jpg,AFNE09.jpg,AFSA03.jpg,AFSA10.jpg,AFNE09.jpg,FN,3,num_6,16,num_6,0.783442881657,,,2018_Mar_05_1352,60.0120686516,MAFE4ImagesEEG,001,203231,
AFSA25.JPG,AFNE24.JPG,AFSA24.JPG,AFNE21.JPG,AFSA21.JPG,AFNE25.JPG,,,,,,,,,,,,,,,,,0,0,0,2,,,,,,,AMNE09.jpg,AMSA12.jpg,AMNE16.jpg,AMSA13.jpg,AMNE16.jpg,MN,1,num_2,32,num_8,0.73352532764,,,2018_Mar_05_1352,60.0120686516,MAFE4ImagesEEG,001,203231,
AFNE22.JPG,AFSA24.JPG,AFSA22.JPG,AFNE25.JPG,AFNE24.JPG,AFSA25.JPG,,,,,,,,,,,,,,,,,0,1,1,6,,,,,,,AMNE01.jpg,AMNE07.jpg,AMSA07.jpg,AMSA20.jpg,AMNE07.jpg,MN,1,num_6,16,num_6,0.800202450482,,,2018_Mar_05_1352,60.0120686516,MAFE4ImagesEEG,001,203231,
AMSA21.JPG,AMNE23.JPG,AMNE21.JPG,AMSA25.JPG,AMNE25.JPG,AMSA23.JPG,,,,,,,,,,,,,,,,,0,2,2,5,,,,,,,AMSA18.jpg,AMSA10.jpg,AMNE20.jpg,AMNE05.jpg,AMNE05.jpg,MN,1,num_4,16,num_4,0.800131887896,,,2018_Mar_05_1352,60.0120686516,MAFE4ImagesEEG,001,203231,
AFSA21.JPG,AFNE23.JPG,AFNE21.JPG,AFSA25.JPG,AFNE25.JPG,AFSA23.JPG,,,,,,,,,,,,,,,,,0,3,3,4,,,,,,,AMSA04.jpg,AMNE10.jpg,AMSA10.jpg,AMNE17.jpg,AMNE10.jpg,MN,1,num_6,16,num_6,0.716792701045,,,2018_Mar_05_1352,60.0120686516,MAFE4ImagesEEG,001,203231,
AMSA25.JPG,AMNE24.JPG,AMSA24.JPG,AMNE26.JPG,AMSA21.JPG,AMNE25.JPG,,,,,,,,,,,,,,,,,0,4,4,3,,,,,,,AMSA10.jpg,AMNE16.jpg,AMSA02.jpg,AMNE10.jpg,AMSA02.jpg,MS,2,num_2,32,num_8,1.11675761221,,,2018_Mar_05_1352,60.0120686516,MAFE4ImagesEEG,001,203231,
AMNE23.JPG,AMNE24.JPG,AMNE22.JPG,AMSA24.JPG,AMSA22.JPG,AMSA23.JPG,,,,,,,,,,,,,,,,,0,5,5,9,,,,,,,AMNE04.jpg,AMSA13.jpg,AMNE09.jpg,AMSA12.jpg,AMSA13.jpg,MS,2,num_6,32,num_4,1.05012956238,,,2018_Mar_05_1352,60.0120686516,MAFE4ImagesEEG,001,203231,
AMNE22.JPG,AMSA24.JPG,AMSA22.JPG,AMNE25.JPG,AMNE24.JPG,AMSA25.JPG,,,,,,,,,,,,,,,,,0,6,6,7,,,,,,,AMSA11.jpg,AMNE14.jpg,AMNE10.jpg,AMSA15.jpg,AMNE14.jpg,MN,1,num_6,16,num_6,0.850248620613,,,2018_Mar_05_1352,60.0120686516,MAFE4ImagesEEG,001,203231,
AMSA21.JPG,AMNE22.JPG,AMNE21.JPG,AMSA23.JPG,AMSA22.JPG,AMNE23.JPG,,,,,,,,,,,,,,,,,0,7,7,1,,,,,,,AMNE01.jpg,AMNE18.jpg,AMSA02.jpg,AMSA13.jpg,AMSA02.jpg,MS,2,num_2,16,num_2,0.666652875021,,,2018_Mar_05_1352,60.0120686516,MAFE4ImagesEEG,001,203231,
AFSA21.JPG,AFNE22.JPG,AFNE21.JPG,AFSA23.JPG,AFSA22.JPG,AFNE23.JPG,,,,,,,,,,,,,,,,,0,8,8,0,,,,,,,AMNE13.jpg,AMSA15.jpg,AMNE05.jpg,AMSA14.jpg,AMNE13.jpg,MN,1,num_8,32,num_6,0.716758381808,,,2018_Mar_05_1352,60.0120686516,MAFE4ImagesEEG,001,203231,
AFNE23.JPG,AFNE24.JPG,AFNE22.JPG,AFSA24.JPG,AFSA22.JPG,AFSA23.JPG,,,,,,,,,,,,,,,,,0,9,9,8,,,,,,,AMSA13.jpg,AMNE13.jpg,AMSA04.jpg,AMNE05.jpg,AMNE05.jpg,MN,1,num_4,32,num_8,0.63344549574,,,2018_Mar_05_1352,60.0120686516,MAFE4ImagesEEG,001,203231,
AFSA21.JPG,AFNE22.JPG,AFNE21.JPG,AFSA23.JPG,AFSA22.JPG,AFNE23.JPG,,,,,,,,,,,,,,,,,,,,,0,0,0,0,,,AFNE19.jpg,AFSA14.jpg,AFSA05.jpg,AFNE02.jpg,AFSA05.jpg,FS,4,num_2,16,num_2,0.683442913927,,,2018_Mar_05_1352,60.0120686516,MAFE4ImagesEEG,001,203231,
AFNE22.JPG,AFSA24.JPG,AFSA22.JPG,AFNE25.JPG,AFNE24.JPG,AFSA25.JPG,,,,,,,,,,,,,,,,,,,,,0,1,1,6,,,AFNE01.jpg,AFNE14.jpg,AFSA20.jpg,AFSA11.jpg,AFSA20.jpg,FS,4,num_2,32,num_8,0.633449985879,,,2018_Mar_05_1352,60.0120686516,MAFE4ImagesEEG,001,203231,
AFNE23.JPG,AFNE24.JPG,AFNE22.JPG,AFSA24.JPG,AFSA22.JPG,AFSA23.JPG,,,,,,,,,,,,,,,,,,,,,0,2,2,8,,,AFNE01.jpg,AFSA20.jpg,AFSA18.jpg,AFNE13.jpg,AFSA20.jpg,FS,4,num_6,16,num_6,0.616801072378,,,2018_Mar_05_1352,60.0120686516,MAFE4ImagesEEG,001,203231,
AMSA25.JPG,AMNE24.JPG,AMSA24.JPG,AMNE26.JPG,AMSA21.JPG,AMNE25.JPG,,,,,,,,,,,,,,,,,,,,,0,3,3,3,,,AFNE13.jpg,AFSA06.jpg,AFSA07.jpg,AFNE06.jpg,AFNE13.jpg,FN,3,num_8,32,num_4,0.666781170527,,,2018_Mar_05_1352,60.0120686516,MAFE4ImagesEEG,001,203231,
AFSA21.JPG,AFNE23.JPG,AFNE21.JPG,AFSA25.JPG,AFNE25.JPG,AFSA23.JPG,,,,,,,,,,,,,,,,,,,,,0,4,4,4,,,AFNE04.jpg,AFSA04.jpg,AFSA12.jpg,AFNE11.jpg,AFNE11.jpg,FN,3,num_4,16,num_4,0.783478804398,,,2018_Mar_05_1352,60.0120686516,MAFE4ImagesEEG,001,203231,
AMNE23.JPG,AMNE24.JPG,AMNE22.JPG,AMSA24.JPG,AMSA22.JPG,AMSA23.JPG,,,,,,,,,,,,,,,,,,,,,0,5,5,9,,,AFSA03.jpg,AFNE04.jpg,AFNE18.jpg,AFSA09.jpg,AFNE04.jpg,FN,3,num_6,16,num_6,0.683410198428,,,2018_Mar_05_1352,60.0120686516,MAFE4ImagesEEG,001,203231,
AFSA25.JPG,AFNE24.JPG,AFSA24.JPG,AFNE21.JPG,AFSA21.JPG,AFNE25.JPG,,,,,,,,,,,,,,,,,,,,,0,6,6,2,,,AFSA04.jpg,AFNE10.jpg,AFSA10.jpg,AFNE13.jpg,AFSA10.jpg,FS,4,num_2,16,num_2,1.06663446454,,,2018_Mar_05_1352,60.0120686516,MAFE4ImagesEEG,001,203231,
AMNE22.JPG,AMSA24.JPG,AMSA22.JPG,AMNE25.JPG,AMNE24.JPG,AMSA25.JPG,,,,,,,,,,,,,,,,,,,,,0,7,7,7,,,AFSA04.jpg,AFNE16.jpg,AFNE01.jpg,AFSA10.jpg,AFSA10.jpg,FS,4,num_4,16,num_4,0.900128648384,,,2018_Mar_05_1352,60.0120686516,MAFE4ImagesEEG,001,203231,
AMSA21.JPG,AMNE23.JPG,AMNE21.JPG,AMSA25.JPG,AMNE25.JPG,AMSA23.JPG,,,,,,,,,,,,,,,,,,,,,0,8,8,5,,,AFNE11.jpg,AFNE04.jpg,AFSA11.jpg,AFSA04.jpg,AFSA11.jpg,FS,4,num_2,16,num_2,0.833446393954,,,2018_Mar_05_1352,60.0120686516,MAFE4ImagesEEG,001,203231,
AMSA21.JPG,AMNE22.JPG,AMNE21.JPG,AMSA23.JPG,AMSA22.JPG,AMNE23.JPG,,,,,,,,,,,,,,,,,,,,,0,9,9,1,,,AFNE04.jpg,AFSA10.jpg,AFSA18.jpg,AFNE05.jpg,AFNE05.jpg,FN,3,num_4,32,num_8,0.800141830929,,,2018_Mar_05_1352,60.0120686516,MAFE4ImagesEEG,001,203231,
,,,,,,,,,,,,,,,,,,,,,,,,,,,,,,,,,,,,,,,,,,,space,4.83325651637,2018_Mar_05_1352,60.0120686516,MAFE4ImagesEEG,001,203231,
AFNE01.JPG,AFNE01.JPG,AFNE01.JPG,AFNE01.JPG,AFNE01.JPG,AFNE01.JPG,0,0,0,4,,,,,,,,,,,,,,,,,,,,,,,AMNE16.jpg,AMSA13.jpg,AMSA19.jpg,AMNE11.jpg,AMNE16.jpg,MN,1,num_8,16,num_8,0.616783110891,,,2018_Mar_05_1352,60.0120686516,MAFE4ImagesEEG,001,203231,
AFNE01.JPG,AFNE01.JPG,AFNE01.JPG,AFNE01.JPG,AFNE01.JPG,AFNE01.JPG,0,1,1,3,,,,,,,,,,,,,,,,,,,,,,,AMNE15.jpg,AMNE09.jpg,AMSA03.jpg,AMSA16.jpg,AMNE15.jpg,MN,1,num_8,16,num_8,0.733467915328,,,2018_Mar_05_1352,60.0120686516,MAFE4ImagesEEG,001,203231,
AFNE01.JPG,AFNE01.JPG,AFNE01.JPG,AFNE01.JPG,AFNE01.JPG,AFNE01.JPG,0,2,2,1,,,,,,,,,,,,,,,,,,,,,,,AMNE14.jpg,AMNE01.jpg,AMSA12.jpg,AMSA02.jpg,AMSA12.jpg,MS,2,num_2,16,num_2,0.716781795956,,,2018_Mar_05_1352,60.0120686516,MAFE4ImagesEEG,001,203231,
AFNE01.JPG,AFNE01.JPG,AFNE01.JPG,AFNE01.JPG,AFNE01.JPG,AFNE01.JPG,0,3,3,2,,,,,,,,,,,,,,,,,,,,,,,AMSA11.jpg,AMNE13.jpg,AMNE19.jpg,AMSA20.jpg,AMNE19.jpg,MN,1,num_2,32,num_6,0.716785003198,,,2018_Mar_05_1352,60.0120686516,MAFE4ImagesEEG,001,203231,
AFNE01.JPG,AFNE01.JPG,AFNE01.JPG,AFNE01.JPG,AFNE01.JPG,AFNE01.JPG,0,4,4,7,,,,,,,,,,,,,,,,,,,,,,,AMSA03.jpg,AMSA16.jpg,AMNE14.jpg,AMNE12.jpg,AMSA03.jpg,MS,2,num_8,16,num_8,0.483476014109,,,2018_Mar_05_1352,60.0120686516,MAFE4ImagesEEG,001,203231,
AFNE01.JPG,AFNE01.JPG,AFNE01.JPG,AFNE01.JPG,AFNE01.JPG,AFNE01.JPG,0,5,5,6,,,,,,,,,,,,,,,,,,,,,,,AMNE18.jpg,AMSA15.jpg,AMSA01.jpg,AMNE09.jpg,AMSA15.jpg,MS,2,num_6,16,num_6,0.550153778167,,,2018_Mar_05_1352,60.0120686516,MAFE4ImagesEEG,001,203231,
AFNE01.JPG,AFNE01.JPG,AFNE01.JPG,AFNE01.JPG,AFNE01.JPG,AFNE01.JPG,0,6,6,0,,,,,,,,,,,,,,,,,,,,,,,AMSA17.jpg,AMNE19.jpg,AMSA06.jpg,AMNE14.jpg,AMSA06.jpg,MS,2,num_2,32,num_4,1.00011290004,,,2018_Mar_05_1352,60.0120686516,MAFE4ImagesEEG,001,203231,
AFNE01.JPG,AFNE01.JPG,AFNE01.JPG,AFNE01.JPG,AFNE01.JPG,AFNE01.JPG,0,7,7,9,,,,,,,,,,,,,,,,,,,,,,,AMNE02.jpg,AMSA03.jpg,AMSA14.jpg,AMNE03.jpg,AMSA03.jpg,MS,2,num_6,16,num_6,0.616781827994,,,2018_Mar_05_1352,60.0120686516,MAFE4ImagesEEG,001,203231,
AFNE01.JPG,AFNE01.JPG,AFNE01.JPG,AFNE01.JPG,AFNE01.JPG,AFNE01.JPG,0,8,8,8,,,,,,,,,,,,,,,,,,,,,,,AMNE02.jpg,AMSA16.jpg,AMNE10.jpg,AMSA01.jpg,AMNE10.jpg,MN,1,num_2,16,num_2,0.800146321068,,,2018_Mar_05_1352,60.0120686516,MAFE4ImagesEEG,001,203231,
AFNE01.JPG,AFNE01.JPG,AFNE01.JPG,AFNE01.JPG,AFNE01.JPG,AFNE01.JPG,0,9,9,5,,,,,,,,,,,,,,,,,,,,,,,AMSA13.jpg,AMSA02.jpg,AMNE11.jpg,AMNE17.jpg,AMNE11.jpg,MN,1,num_2,32,num_4,0.716847226722,,,2018_Mar_05_1352,60.0120686516,MAFE4ImagesEEG,001,203231,
AFNE01.JPG,AFNE01.JPG,AFNE01.JPG,AFNE01.JPG,AFNE01.JPG,AFNE01.JPG,1,0,10,7,,,,,,,,,,,,,,,,,,,,,,,AMNE04.jpg,AMSA12.jpg,AMNE14.jpg,AMSA13.jpg,AMSA12.jpg,MS,2,num_6,32,num_4,0.91680257977,,,2018_Mar_05_1352,60.0120686516,MAFE4ImagesEEG,001,203231,
AFNE01.JPG,AFNE01.JPG,AFNE01.JPG,AFNE01.JPG,AFNE01.JPG,AFNE01.JPG,1,1,11,3,,,,,,,,,,,,,,,,,,,,,,,AMSA10.jpg,AMNE09.jpg,AMNE14.jpg,AMSA05.jpg,AMNE09.jpg,MN,1,num_6,16,num_6,0.633535623318,,,2018_Mar_05_1352,60.0120686516,MAFE4ImagesEEG,001,203231,
AFNE01.JPG,AFNE01.JPG,AFNE01.JPG,AFNE01.JPG,AFNE01.JPG,AFNE01.JPG,1,2,12,6,,,,,,,,,,,,,,,,,,,,,,,AMNE09.jpg,AMSA16.jpg,AMNE12.jpg,AMSA10.jpg,AMNE09.jpg,MN,1,num_8,16,num_8,0.566800767556,,,2018_Mar_05_1352,60.0120686516,MAFE4ImagesEEG,001,203231,
AFNE01.JPG,AFNE01.JPG,AFNE01.JPG,AFNE01.JPG,AFNE01.JPG,AFNE01.JPG,1,3,13,0,,,,,,,,,,,,,,,,,,,,,,,AMNE04.jpg,AMSA13.jpg,AMNE05.jpg,AMSA11.jpg,AMNE05.jpg,MN,1,num_2,32,num_8,0.583485604031,,,2018_Mar_05_1352,60.0120686516,MAFE4ImagesEEG,001,203231,
AFNE01.JPG,AFNE01.JPG,AFNE01.JPG,AFNE01.JPG,AFNE01.JPG,AFNE01.JPG,1,4,14,2,,,,,,,,,,,,,,,,,,,,,,,AMNE18.jpg,AMSA18.jpg,AMNE17.jpg,AMSA13.jpg,AMSA18.jpg,MS,2,num_6,16,num_6,0.583503244678,,,2018_Mar_05_1352,60.0120686516,MAFE4ImagesEEG,001,203231,
AFNE01.JPG,AFNE01.JPG,AFNE01.JPG,AFNE01.JPG,AFNE01.JPG,AFNE01.JPG,1,5,15,8,,,,,,,,,,,,,,,,,,,,,,,AMSA19.jpg,AMNE20.jpg,AMNE08.jpg,AMSA03.jpg,AMSA03.jpg,MS,2,num_4,16,num_4,0.683489100309,,,2018_Mar_05_1352,60.0120686516,MAFE4ImagesEEG,001,203231,
AFNE01.JPG,AFNE01.JPG,AFNE01.JPG,AFNE01.JPG,AFNE01.JPG,AFNE01.JPG,1,6,16,5,,,,,,,,,,,,,,,,,,,,,,,AMSA18.jpg,AMNE17.jpg,AMNE11.jpg,AMSA20.jpg,AMNE17.jpg,MN,1,num_6,32,num_8,0.316788659664,,,2018_Mar_05_1352,60.0120686516,MAFE4ImagesEEG,001,203231,
AFNE01.JPG,AFNE01.JPG,AFNE01.JPG,AFNE01.JPG,AFNE01.JPG,AFNE01.JPG,1,7,17,1,,,,,,,,,,,,,,,,,,,,,,,AMNE19.jpg,AMSA01.jpg,AMSA03.jpg,AMNE15.jpg,AMSA03.jpg,MS,2,num_2,16,num_2,0.583488490665,,,2018_Mar_05_1352,60.0120686516,MAFE4ImagesEEG,001,203231,
AFNE01.JPG,AFNE01.JPG,AFNE01.JPG,AFNE01.JPG,AFNE01.JPG,AFNE01.JPG,1,8,18,4,,,,,,,,,,,,,,,,,,,,,,,AMNE08.jpg,AMSA17.jpg,AMNE19.jpg,AMSA01.jpg,AMSA01.jpg,MS,2,num_4,16,num_4,0.500282089924,,,2018_Mar_05_1352,60.0120686516,MAFE4ImagesEEG,001,203231,
AFNE01.JPG,AFNE01.JPG,AFNE01.JPG,AFNE01.JPG,AFNE01.JPG,AFNE01.JPG,1,9,19,9,,,,,,,,,,,,,,,,,,,,,,,AMNE08.jpg,AMSA10.jpg,AMSA20.jpg,AMNE02.jpg,AMSA20.jpg,MS,2,num_2,32,num_8,0.583585674642,,,2018_Mar_05_1352,60.0120686516,MAFE4ImagesEEG,001,203231,
AFNE01.JPG,AFNE01.JPG,AFNE01.JPG,AFNE01.JPG,AFNE01.JPG,AFNE01.JPG,2,0,20,1,,,,,,,,,,,,,,,,,,,,,,,AMSA05.jpg,AMNE03.jpg,AMNE11.jpg,AMSA03.jpg,AMSA05.jpg,MS,2,num_8,32,num_6,0.566752335988,,,2018_Mar_05_1352,60.0120686516,MAFE4ImagesEEG,001,203231,
AFNE01.JPG,AFNE01.JPG,AFNE01.JPG,AFNE01.JPG,AFNE01.JPG,AFNE01.JPG,2,1,21,8,,,,,,,,,,,,,,,,,,,,,,,AMSA03.jpg,AMNE14.jpg,AMNE01.jpg,AMSA01.jpg,AMNE01.jpg,MN,1,num_2,32,num_4,0.616806524806,,,2018_Mar_05_1352,60.0120686516,MAFE4ImagesEEG,001,203231,
AFNE01.JPG,AFNE01.JPG,AFNE01.JPG,AFNE01.JPG,AFNE01.JPG,AFNE01.JPG,2,2,22,7,,,,,,,,,,,,,,,,,,,,,,,AMNE19.jpg,AMSA19.jpg,AMSA06.jpg,AMNE15.jpg,AMNE15.jpg,MN,1,num_4,16,num_4,0.583468605066,,,2018_Mar_05_1352,60.0120686516,MAFE4ImagesEEG,001,203231,
AFNE01.JPG,AFNE01.JPG,AFNE01.JPG,AFNE01.JPG,AFNE01.JPG,AFNE01.JPG,2,3,23,5,,,,,,,,,,,,,,,,,,,,,,,AMSA17.jpg,AMSA18.jpg,AMNE08.jpg,AMNE15.jpg,AMSA18.jpg,MS,2,num_6,16,num_6,0.6167991478,,,2018_Mar_05_1352,60.0120686516,MAFE4ImagesEEG,001,203231,
AFNE01.JPG,AFNE01.JPG,AFNE01.JPG,AFNE01.JPG,AFNE01.JPG,AFNE01.JPG,2,4,24,0,,,,,,,,,,,,,,,,,,,,,,,AMSA08.jpg,AMNE16.jpg,AMNE18.jpg,AMSA06.jpg,AMNE16.jpg,MN,1,num_6,16,num_6,0.916779486462,,,2018_Mar_05_1352,60.0120686516,MAFE4ImagesEEG,001,203231,
AFNE01.JPG,AFNE01.JPG,AFNE01.JPG,AFNE01.JPG,AFNE01.JPG,AFNE01.JPG,2,5,25,3,,,,,,,,,,,,,,,,,,,,,,,AMSA04.jpg,AMSA12.jpg,AMNE15.jpg,AMNE06.jpg,AMSA12.jpg,MS,2,num_6,16,num_6,0.516842158977,,,2018_Mar_05_1352,60.0120686516,MAFE4ImagesEEG,001,203231,
AFNE01.JPG,AFNE01.JPG,AFNE01.JPG,AFNE01.JPG,AFNE01.JPG,AFNE01.JPG,2,6,26,2,,,,,,,,,,,,,,,,,,,,,,,AMNE16.jpg,AMNE20.jpg,AMSA08.jpg,AMSA06.jpg,AMSA06.jpg,MS,2,num_4,32,num_8,0.883414303651,,,2018_Mar_05_1352,60.0120686516,MAFE4ImagesEEG,001,203231,
AFNE01.JPG,AFNE01.JPG,AFNE01.JPG,AFNE01.JPG,AFNE01.JPG,AFNE01.JPG,2,7,27,4,,,,,,,,,,,,,,,,,,,,,,,AMSA07.jpg,AMNE05.jpg,AMSA16.jpg,AMNE20.jpg,AMNE20.jpg,MN,1,num_4,16,num_4,0.733485235367,,,2018_Mar_05_1352,60.0120686516,MAFE4ImagesEEG,001,203231,
AFNE01.JPG,AFNE01.JPG,AFNE01.JPG,AFNE01.JPG,AFNE01.JPG,AFNE01.JPG,2,8,28,6,,,,,,,,,,,,,,,,,,,,,,,AMNE12.jpg,AMSA14.jpg,AMNE11.jpg,AMSA03.jpg,AMSA14.jpg,MS,2,num_6,16,num_6,0.583511904813,,,2018_Mar_05_1352,60.0120686516,MAFE4ImagesEEG,001,203231,
AFNE01.JPG,AFNE01.JPG,AFNE01.JPG,AFNE01.JPG,AFNE01.JPG,AFNE01.JPG,2,9,29,9,,,,,,,,,,,,,,,,,,,,,,,AMNE02.jpg,AMSA07.jpg,AMNE20.jpg,AMSA17.jpg,AMSA07.jpg,MS,2,num_6,16,num_6,0.683462799527,,,2018_Mar_05_1352,60.0120686516,MAFE4ImagesEEG,001,203231,
AFNE01.JPG,AFNE01.JPG,AFNE01.JPG,AFNE01.JPG,AFNE01.JPG,AFNE01.JPG,3,0,30,6,,,,,,,,,,,,,,,,,,,,,,,AMNE20.jpg,AMNE16.jpg,AMSA01.jpg,AMSA05.jpg,AMNE20.jpg,MN,1,num_8,32,num_6,0.750111055793,,,2018_Mar_05_1352,60.0120686516,MAFE4ImagesEEG,001,203231,
AFNE01.JPG,AFNE01.JPG,AFNE01.JPG,AFNE01.JPG,AFNE01.JPG,AFNE01.JPG,3,1,31,2,,,,,,,,,,,,,,,,,,,,,,,AMNE02.jpg,AMNE18.jpg,AMSA10.jpg,AMSA17.jpg,AMNE18.jpg,MN,1,num_6,32,num_8,0.683443234535,,,2018_Mar_05_1352,60.0120686516,MAFE4ImagesEEG,001,203231,
AFNE01.JPG,AFNE01.JPG,AFNE01.JPG,AFNE01.JPG,AFNE01.JPG,AFNE01.JPG,3,2,32,7,,,,,,,,,,,,,,,,,,,,,,,AMNE10.jpg,AMSA02.jpg,AMSA16.jpg,AMNE08.jpg,AMSA02.jpg,MS,2,num_6,32,num_2,1.55009315861,,,2018_Mar_05_1352,60.0120686516,MAFE4ImagesEEG,001,203231,
AFNE01.JPG,AFNE01.JPG,AFNE01.JPG,AFNE01.JPG,AFNE01.JPG,AFNE01.JPG,3,3,33,9,,,,,,,,,,,,,,,,,,,,,,,AMSA03.jpg,AMNE03.jpg,AMSA11.jpg,AMNE20.jpg,AMNE03.jpg,MN,1,num_6,32,num_8,1.05006028293,,,2018_Mar_05_1352,60.0120686516,MAFE4ImagesEEG,001,203231,
AFNE01.JPG,AFNE01.JPG,AFNE01.JPG,AFNE01.JPG,AFNE01.JPG,AFNE01.JPG,3,4,34,1,,,,,,,,,,,,,,,,,,,,,,,AMNE18.jpg,AMSA10.jpg,AMNE07.jpg,AMSA15.jpg,AMSA10.jpg,MS,2,num_6,32,num_2,0.85010749544,,,2018_Mar_05_1352,60.0120686516,MAFE4ImagesEEG,001,203231,
AFNE01.JPG,AFNE01.JPG,AFNE01.JPG,AFNE01.JPG,AFNE01.JPG,AFNE01.JPG,3,5,35,0,,,,,,,,,,,,,,,,,,,,,,,AMNE14.jpg,AMSA18.jpg,AMSA12.jpg,AMNE09.jpg,AMSA18.jpg,MS,2,num_6,16,num_6,0.500151228392,,,2018_Mar_05_1352,60.0120686516,MAFE4ImagesEEG,001,203231,
AFNE01.JPG,AFNE01.JPG,AFNE01.JPG,AFNE01.JPG,AFNE01.JPG,AFNE01.JPG,3,6,36,4,,,,,,,,,,,,,,,,,,,,,,,AMNE10.jpg,AMSA14.jpg,AMSA05.jpg,AMNE09.jpg,AMNE09.jpg,MN,1,num_4,32,num_8,0.683464403264,,,2018_Mar_05_1352,60.0120686516,MAFE4ImagesEEG,001,203231,
AFNE01.JPG,AFNE01.JPG,AFNE01.JPG,AFNE01.JPG,AFNE01.JPG,AFNE01.JPG,3,7,37,3,,,,,,,,,,,,,,,,,,,,,,,AMNE15.jpg,AMSA04.jpg,AMNE16.jpg,AMSA06.jpg,AMNE16.jpg,MN,1,num_2,32,num_4,0.783456031932,,,2018_Mar_05_1352,60.0120686516,MAFE4ImagesEEG,001,203231,
AFNE01.JPG,AFNE01.JPG,AFNE01.JPG,AFNE01.JPG,AFNE01.JPG,AFNE01.JPG,3,8,38,8,,,,,,,,,,,,,,,,,,,,,,,AMSA04.jpg,AMNE11.jpg,AMSA19.jpg,AMNE19.jpg,AMSA04.jpg,MS,2,num_8,32,num_2,0.833479750669,,,2018_Mar_05_1352,60.0120686516,MAFE4ImagesEEG,001,203231,
AFNE01.JPG,AFNE01.JPG,AFNE01.JPG,AFNE01.JPG,AFNE01.JPG,AFNE01.JPG,3,9,39,5,,,,,,,,,,,,,,,,,,,,,,,AMSA14.jpg,AMSA02.jpg,AMNE11.jpg,AMNE08.jpg,AMNE08.jpg,MN,1,num_4,16,num_4,0.566794994287,,,2018_Mar_05_1352,60.0120686516,MAFE4ImagesEEG,001,203231,
AFNE01.JPG,AFNE01.JPG,AFNE01.JPG,AFNE01.JPG,AFNE01.JPG,AFNE01.JPG,4,0,40,1,,,,,,,,,,,,,,,,,,,,,,,AMNE20.jpg,AMSA05.jpg,AMSA13.jpg,AMNE02.jpg,AMNE20.jpg,MN,1,num_8,16,num_8,0.700112034101,,,2018_Mar_05_1352,60.0120686516,MAFE4ImagesEEG,001,203231,
AFNE01.JPG,AFNE01.JPG,AFNE01.JPG,AFNE01.JPG,AFNE01.JPG,AFNE01.JPG,4,1,41,6,,,,,,,,,,,,,,,,,,,,,,,AMSA20.jpg,AMSA05.jpg,AMNE17.jpg,AMNE01.jpg,AMNE01.jpg,MN,1,num_4,16,num_4,0.700152767822,,,2018_Mar_05_1352,60.0120686516,MAFE4ImagesEEG,001,203231,
AFNE01.JPG,AFNE01.JPG,AFNE01.JPG,AFNE01.JPG,AFNE01.JPG,AFNE01.JPG,4,2,42,2,,,,,,,,,,,,,,,,,,,,,,,AMNE03.jpg,AMSA10.jpg,AMSA19.jpg,AMNE19.jpg,AMNE03.jpg,MN,1,num_8,32,num_6,0.516806557076,,,2018_Mar_05_1352,60.0120686516,MAFE4ImagesEEG,001,203231,
AFNE01.JPG,AFNE01.JPG,AFNE01.JPG,AFNE01.JPG,AFNE01.JPG,AFNE01.JPG,4,3,43,5,,,,,,,,,,,,,,,,,,,,,,,AMNE05.jpg,AMNE18.jpg,AMSA11.jpg,AMSA05.jpg,AMSA11.jpg,MS,2,num_2,16,num_2,0.616785356076,,,2018_Mar_05_1352,60.0120686516,MAFE4ImagesEEG,001,203231,
AFNE01.JPG,AFNE01.JPG,AFNE01.JPG,AFNE01.JPG,AFNE01.JPG,AFNE01.JPG,4,4,44,9,,,,,,,,,,,,,,,,,,,,,,,AMSA15.jpg,AMNE12.jpg,AMSA04.jpg,AMNE15.jpg,AMNE12.jpg,MN,1,num_6,32,num_4,0.650137388613,,,2018_Mar_05_1352,60.0120686516,MAFE4ImagesEEG,001,203231,
AFNE01.JPG,AFNE01.JPG,AFNE01.JPG,AFNE01.JPG,AFNE01.JPG,AFNE01.JPG,4,5,45,3,,,,,,,,,,,,,,,,,,,,,,,AMNE02.jpg,AMNE04.jpg,AMSA15.jpg,AMSA03.jpg,AMNE04.jpg,MN,1,num_6,16,num_6,0.483479863033,,,2018_Mar_05_1352,60.0120686516,MAFE4ImagesEEG,001,203231,
AFNE01.JPG,AFNE01.JPG,AFNE01.JPG,AFNE01.JPG,AFNE01.JPG,AFNE01.JPG,4,6,46,4,,,,,,,,,,,,,,,,,,,,,,,AMSA16.jpg,AMNE18.jpg,AMNE15.jpg,AMSA12.jpg,AMSA12.jpg,MS,2,num_4,32,num_6,0.633432986913,,,2018_Mar_05_1352,60.0120686516,MAFE4ImagesEEG,001,203231,
AFNE01.JPG,AFNE01.JPG,AFNE01.JPG,AFNE01.JPG,AFNE01.JPG,AFNE01.JPG,4,7,47,0,,,,,,,,,,,,,,,,,,,,,,,AMNE18.jpg,AMSA02.jpg,AMSA19.jpg,AMNE02.jpg,AMSA19.jpg,MS,2,num_2,32,num_8,0.666828960413,,,2018_Mar_05_1352,60.0120686516,MAFE4ImagesEEG,001,203231,
AFNE01.JPG,AFNE01.JPG,AFNE01.JPG,AFNE01.JPG,AFNE01.JPG,AFNE01.JPG,4,8,48,7,,,,,,,,,,,,,,,,,,,,,,,AMSA11.jpg,AMSA07.jpg,AMNE05.jpg,AMNE03.jpg,AMSA11.jpg,MS,2,num_8,32,num_6,0.616824806901,,,2018_Mar_05_1352,60.0120686516,MAFE4ImagesEEG,001,203231,
AFNE01.JPG,AFNE01.JPG,AFNE01.JPG,AFNE01.JPG,AFNE01.JPG,AFNE01.JPG,4,9,49,8,,,,,,,,,,,,,,,,,,,,,,,AMNE10.jpg,AMSA09.jpg,AMSA06.jpg,AMNE12.jpg,AMSA06.jpg,MS,2,num_2,32,num_8,0.783477200894,,,2018_Mar_05_1352,60.0120686516,MAFE4ImagesEEG,001,203231,
AFNE01.JPG,AFNE01.JPG,AFNE01.JPG,AFNE01.JPG,AFNE01.JPG,AFNE01.JPG,5,0,50,5,,,,,,,,,,,,,,,,,,,,,,,AMNE18.jpg,AMNE10.jpg,AMSA01.jpg,AMSA15.jpg,AMNE18.jpg,MN,1,num_8,16,num_8,0.766792685026,,,2018_Mar_05_1352,60.0120686516,MAFE4ImagesEEG,001,203231,
AFNE01.JPG,AFNE01.JPG,AFNE01.JPG,AFNE01.JPG,AFNE01.JPG,AFNE01.JPG,5,1,51,9,,,,,,,,,,,,,,,,,,,,,,,AMNE16.jpg,AMSA18.jpg,AMSA06.jpg,AMNE20.jpg,AMNE20.jpg,MN,1,num_4,32,num_8,0.63344934443,,,2018_Mar_05_1352,60.0120686516,MAFE4ImagesEEG,001,203231,
AFNE01.JPG,AFNE01.JPG,AFNE01.JPG,AFNE01.JPG,AFNE01.JPG,AFNE01.JPG,5,2,52,4,,,,,,,,,,,,,,,,,,,,,,,AMNE05.jpg,AMNE15.jpg,AMSA06.jpg,AMSA02.jpg,AMNE05.jpg,MN,1,num_8,32,num_6,0.783526915358,,,2018_Mar_05_1352,60.0120686516,MAFE4ImagesEEG,001,203231,
AFNE01.JPG,AFNE01.JPG,AFNE01.JPG,AFNE01.JPG,AFNE01.JPG,AFNE01.JPG,5,3,53,0,,,,,,,,,,,,,,,,,,,,,,,AMNE09.jpg,AMNE20.jpg,AMSA14.jpg,AMSA04.jpg,AMSA14.jpg,MS,2,num_2,16,num_2,0.600152479252,,,2018_Mar_05_1352,60.0120686516,MAFE4ImagesEEG,001,203231,
AFNE01.JPG,AFNE01.JPG,AFNE01.JPG,AFNE01.JPG,AFNE01.JPG,AFNE01.JPG,5,4,54,8,,,,,,,,,,,,,,,,,,,,,,,AMSA10.jpg,AMNE02.jpg,AMNE19.jpg,AMSA04.jpg,AMSA04.jpg,MS,2,num_4,16,num_4,0.650192555506,,,2018_Mar_05_1352,60.0120686516,MAFE4ImagesEEG,001,203231,
AFNE01.JPG,AFNE01.JPG,AFNE01.JPG,AFNE01.JPG,AFNE01.JPG,AFNE01.JPG,5,5,55,7,,,,,,,,,,,,,,,,,,,,,,,AMSA16.jpg,AMNE05.jpg,AMSA01.jpg,AMNE10.jpg,AMSA16.jpg,MS,2,num_8,16,num_8,0.516773200128,,,2018_Mar_05_1352,60.0120686516,MAFE4ImagesEEG,001,203231,
AFNE01.JPG,AFNE01.JPG,AFNE01.JPG,AFNE01.JPG,AFNE01.JPG,AFNE01.JPG,5,6,56,3,,,,,,,,,,,,,,,,,,,,,,,AMNE10.jpg,AMSA15.jpg,AMSA03.jpg,AMNE08.jpg,AMNE08.jpg,MN,1,num_4,16,num_4,0.616798506351,,,2018_Mar_05_1352,60.0120686516,MAFE4ImagesEEG,001,203231,
AFNE01.JPG,AFNE01.JPG,AFNE01.JPG,AFNE01.JPG,AFNE01.JPG,AFNE01.JPG,5,7,57,6,,,,,,,,,,,,,,,,,,,,,,,AMSA02.jpg,AMNE04.jpg,AMNE01.jpg,AMSA20.jpg,AMNE01.jpg,MN,1,num_2,32,num_6,0.933481642976,,,2018_Mar_05_1352,60.0120686516,MAFE4ImagesEEG,001,203231,
AFNE01.JPG,AFNE01.JPG,AFNE01.JPG,AFNE01.JPG,AFNE01.JPG,AFNE01.JPG,5,8,58,2,,,,,,,,,,,,,,,,,,,,,,,AMSA16.jpg,AMNE01.jpg,AMNE16.jpg,AMSA03.jpg,AMNE01.jpg,MN,1,num_6,16,num_6,0.500161171425,,,2018_Mar_05_1352,60.0120686516,MAFE4ImagesEEG,001,203231,
AFNE01.JPG,AFNE01.JPG,AFNE01.JPG,AFNE01.JPG,AFNE01.JPG,AFNE01.JPG,5,9,59,1,,,,,,,,,,,,,,,,,,,,,,,AMSA03.jpg,AMNE05.jpg,AMSA12.jpg,AMNE04.jpg,AMNE05.jpg,MN,1,num_6,16,num_6,0.650092805736,,,2018_Mar_05_1352,60.0120686516,MAFE4ImagesEEG,001,203231,
,,,,,,,,,,,,,,,,,,,,,,,,,,,,,,,,,,,,,,,,,,,space,6.29968141019,2018_Mar_05_1352,60.0120686516,MAFE4ImagesEEG,001,203231,
AFNE01.JPG,AFNE01.JPG,AFNE01.JPG,AFNE01.JPG,AFNE01.JPG,AFNE01.JPG,,,,,0,0,0,1,,,,,,,,,,,,,,,,,,,AFSA18.jpg,AFNE03.jpg,AFNE07.jpg,AFSA02.jpg,AFSA02.jpg,FS,4,num_4,16,num_4,0.650184216443,,,2018_Mar_05_1352,60.0120686516,MAFE4ImagesEEG,001,203231,
AFNE01.JPG,AFNE01.JPG,AFNE01.JPG,AFNE01.JPG,AFNE01.JPG,AFNE01.JPG,,,,,0,1,1,6,,,,,,,,,,,,,,,,,,,AFSA14.jpg,AFSA09.jpg,AFNE07.jpg,AFNE18.jpg,AFSA09.jpg,FS,4,num_6,32,num_8,0.616773809539,,,2018_Mar_05_1352,60.0120686516,MAFE4ImagesEEG,001,203231,
AFNE01.JPG,AFNE01.JPG,AFNE01.JPG,AFNE01.JPG,AFNE01.JPG,AFNE01.JPG,,,,,0,2,2,7,,,,,,,,,,,,,,,,,,,AFNE04.jpg,AFNE07.jpg,AFSA02.jpg,AFSA09.jpg,AFSA09.jpg,FS,4,num_4,16,num_4,0.63346602302,,,2018_Mar_05_1352,60.0120686516,MAFE4ImagesEEG,001,203231,
AFNE01.JPG,AFNE01.JPG,AFNE01.JPG,AFNE01.JPG,AFNE01.JPG,AFNE01.JPG,,,,,0,3,3,8,,,,,,,,,,,,,,,,,,,AFNE20.jpg,AFSA12.jpg,AFNE19.jpg,AFSA13.jpg,AFSA13.jpg,FS,4,num_4,16,num_4,0.483463505283,,,2018_Mar_05_1352,60.0120686516,MAFE4ImagesEEG,001,203231,
AFNE01.JPG,AFNE01.JPG,AFNE01.JPG,AFNE01.JPG,AFNE01.JPG,AFNE01.JPG,,,,,0,4,4,2,,,,,,,,,,,,,,,,,,,AFNE19.jpg,AFSA09.jpg,AFSA13.jpg,AFNE08.jpg,AFNE08.jpg,FN,3,num_4,32,num_8,0.866786238039,,,2018_Mar_05_1352,60.0120686516,MAFE4ImagesEEG,001,203231,
AFNE01.JPG,AFNE01.JPG,AFNE01.JPG,AFNE01.JPG,AFNE01.JPG,AFNE01.JPG,,,,,0,5,5,3,,,,,,,,,,,,,,,,,,,AFSA01.jpg,AFNE16.jpg,AFNE05.jpg,AFSA19.jpg,AFSA01.jpg,FS,4,num_8,32,num_4,0.5334692623,,,2018_Mar_05_1352,60.0120686516,MAFE4ImagesEEG,001,203231,
AFNE01.JPG,AFNE01.JPG,AFNE01.JPG,AFNE01.JPG,AFNE01.JPG,AFNE01.JPG,,,,,0,6,6,4,,,,,,,,,,,,,,,,,,,AFNE04.jpg,AFSA04.jpg,AFSA13.jpg,AFNE17.jpg,AFSA13.jpg,FS,4,num_2,16,num_2,0.683454460464,,,2018_Mar_05_1352,60.0120686516,MAFE4ImagesEEG,001,203231,
AFNE01.JPG,AFNE01.JPG,AFNE01.JPG,AFNE01.JPG,AFNE01.JPG,AFNE01.JPG,,,,,0,7,7,5,,,,,,,,,,,,,,,,,,,AFNE08.jpg,AFNE13.jpg,AFSA04.jpg,AFSA09.jpg,AFNE08.jpg,FN,3,num_8,16,num_8,0.716763834702,,,2018_Mar_05_1352,60.0120686516,MAFE4ImagesEEG,001,203231,
AFNE01.JPG,AFNE01.JPG,AFNE01.JPG,AFNE01.JPG,AFNE01.JPG,AFNE01.JPG,,,,,0,8,8,0,,,,,,,,,,,,,,,,,,,AFNE15.jpg,AFSA07.jpg,AFSA10.jpg,AFNE07.jpg,AFSA07.jpg,FS,4,num_6,16,num_6,0.466823251219,,,2018_Mar_05_1352,60.0120686516,MAFE4ImagesEEG,001,203231,
AFNE01.JPG,AFNE01.JPG,AFNE01.JPG,AFNE01.JPG,AFNE01.JPG,AFNE01.JPG,,,,,0,9,9,9,,,,,,,,,,,,,,,,,,,AFSA18.jpg,AFNE04.jpg,AFSA01.jpg,AFNE20.jpg,AFNE20.jpg,FN,3,num_4,32,num_6,0.650149576599,,,2018_Mar_05_1352,60.0120686516,MAFE4ImagesEEG,001,203231,
AFNE01.JPG,AFNE01.JPG,AFNE01.JPG,AFNE01.JPG,AFNE01.JPG,AFNE01.JPG,,,,,1,0,10,9,,,,,,,,,,,,,,,,,,,AFSA16.jpg,AFSA05.jpg,AFNE01.jpg,AFNE18.jpg,AFNE01.jpg,FN,3,num_2,32,num_8,1.0833994858,,,2018_Mar_05_1352,60.0120686516,MAFE4ImagesEEG,001,203231,
AFNE01.JPG,AFNE01.JPG,AFNE01.JPG,AFNE01.JPG,AFNE01.JPG,AFNE01.JPG,,,,,1,1,11,7,,,,,,,,,,,,,,,,,,,AFSA08.jpg,AFSA05.jpg,AFNE11.jpg,AFNE19.jpg,AFNE19.jpg,FN,3,num_4,16,num_4,0.750153072644,,,2018_Mar_05_1352,60.0120686516,MAFE4ImagesEEG,001,203231,
AFNE01.JPG,AFNE01.JPG,AFNE01.JPG,AFNE01.JPG,AFNE01.JPG,AFNE01.JPG,,,,,1,2,12,6,,,,,,,,,,,,,,,,,,,AFSA18.jpg,AFNE09.jpg,AFNE14.jpg,AFSA12.jpg,AFNE09.jpg,FN,3,num_6,16,num_6,0.883472036803,,,2018_Mar_05_1352,60.0120686516,MAFE4ImagesEEG,001,203231,
AFNE01.JPG,AFNE01.JPG,AFNE01.JPG,AFNE01.JPG,AFNE01.JPG,AFNE01.JPG,,,,,1,3,13,1,,,,,,,,,,,,,,,,,,,AFNE04.jpg,AFNE06.jpg,AFSA02.jpg,AFSA15.jpg,AFNE04.jpg,FN,3,num_8,16,num_8,0.816773104016,,,2018_Mar_05_1352,60.0120686516,MAFE4ImagesEEG,001,203231,
AFNE01.JPG,AFNE01.JPG,AFNE01.JPG,AFNE01.JPG,AFNE01.JPG,AFNE01.JPG,,,,,1,4,14,2,,,,,,,,,,,,,,,,,,,AFSA02.jpg,AFNE15.jpg,AFNE06.jpg,AFSA18.jpg,AFNE15.jpg,FN,3,num_6,16,num_6,0.6001431779,,,2018_Mar_05_1352,60.0120686516,MAFE4ImagesEEG,001,203231,
AFNE01.JPG,AFNE01.JPG,AFNE01.JPG,AFNE01.JPG,AFNE01.JPG,AFNE01.JPG,,,,,1,5,15,0,,,,,,,,,,,,,,,,,,,AFNE10.jpg,AFNE19.jpg,AFSA05.jpg,AFSA11.jpg,AFSA11.jpg,FS,4,num_4,16,num_4,0.816781443078,,,2018_Mar_05_1352,60.0120686516,MAFE4ImagesEEG,001,203231,
AFNE01.JPG,AFNE01.JPG,AFNE01.JPG,AFNE01.JPG,AFNE01.JPG,AFNE01.JPG,,,,,1,6,16,3,,,,,,,,,,,,,,,,,,,AFSA13.jpg,AFNE11.jpg,AFNE09.jpg,AFSA02.jpg,AFSA02.jpg,FS,4,num_4,32,num_8,0.600114952773,,,2018_Mar_05_1352,60.0120686516,MAFE4ImagesEEG,001,203231,
AFNE01.JPG,AFNE01.JPG,AFNE01.JPG,AFNE01.JPG,AFNE01.JPG,AFNE01.JPG,,,,,1,7,17,4,,,,,,,,,,,,,,,,,,,AFSA19.jpg,AFSA20.jpg,AFNE03.jpg,AFNE02.jpg,AFNE03.jpg,FN,3,num_2,16,num_2,1.16673738975,,,2018_Mar_05_1352,60.0120686516,MAFE4ImagesEEG,001,203231,
AFNE01.JPG,AFNE01.JPG,AFNE01.JPG,AFNE01.JPG,AFNE01.JPG,AFNE01.JPG,,,,,1,8,18,8,,,,,,,,,,,,,,,,,,,AFSA19.jpg,AFNE20.jpg,AFNE10.jpg,AFSA06.jpg,AFNE20.jpg,FN,3,num_6,16,num_6,0.916832408402,,,2018_Mar_05_1352,60.0120686516,MAFE4ImagesEEG,001,203231,
AFNE01.JPG,AFNE01.JPG,AFNE01.JPG,AFNE01.JPG,AFNE01.JPG,AFNE01.JPG,,,,,1,9,19,5,,,,,,,,,,,,,,,,,,,AFSA13.jpg,AFSA02.jpg,AFNE15.jpg,AFNE03.jpg,AFNE03.jpg,FN,3,num_4,16,num_4,0.633481418481,,,2018_Mar_05_1352,60.0120686516,MAFE4ImagesEEG,001,203231,
AFNE01.JPG,AFNE01.JPG,AFNE01.JPG,AFNE01.JPG,AFNE01.JPG,AFNE01.JPG,,,,,2,0,20,2,,,,,,,,,,,,,,,,,,,AFSA14.jpg,AFNE14.jpg,AFSA10.jpg,AFNE12.jpg,AFNE14.jpg,FN,3,num_6,16,num_6,0.716666650726,,,2018_Mar_05_1352,60.0120686516,MAFE4ImagesEEG,001,203231,
AFNE01.JPG,AFNE01.JPG,AFNE01.JPG,AFNE01.JPG,AFNE01.JPG,AFNE01.JPG,,,,,2,1,21,8,,,,,,,,,,,,,,,,,,,AFSA08.jpg,AFNE15.jpg,AFNE06.jpg,AFSA16.jpg,AFSA16.jpg,FS,4,num_4,16,num_4,0.56680493732,,,2018_Mar_05_1352,60.0120686516,MAFE4ImagesEEG,001,203231,
AFNE01.JPG,AFNE01.JPG,AFNE01.JPG,AFNE01.JPG,AFNE01.JPG,AFNE01.JPG,,,,,2,2,22,7,,,,,,,,,,,,,,,,,,,AFSA16.jpg,AFNE02.jpg,AFNE17.jpg,AFSA05.jpg,AFNE02.jpg,FN,3,num_6,16,num_6,0.61678952584,,,2018_Mar_05_1352,60.0120686516,MAFE4ImagesEEG,001,203231,
AFNE01.JPG,AFNE01.JPG,AFNE01.JPG,AFNE01.JPG,AFNE01.JPG,AFNE01.JPG,,,,,2,3,23,6,,,,,,,,,,,,,,,,,,,AFSA06.jpg,AFNE04.jpg,AFNE18.jpg,AFSA03.jpg,AFNE18.jpg,FN,3,num_2,16,num_2,0.750134469941,,,2018_Mar_05_1352,60.0120686516,MAFE4ImagesEEG,001,203231,
AFNE01.JPG,AFNE01.JPG,AFNE01.JPG,AFNE01.JPG,AFNE01.JPG,AFNE01.JPG,,,,,2,4,24,1,,,,,,,,,,,,,,,,,,,AFSA02.jpg,AFSA04.jpg,AFNE18.jpg,AFNE06.jpg,AFNE18.jpg,FN,3,num_2,32,num_4,0.683444517432,,,2018_Mar_05_1352,60.0120686516,MAFE4ImagesEEG,001,203231,
AFNE01.JPG,AFNE01.JPG,AFNE01.JPG,AFNE01.JPG,AFNE01.JPG,AFNE01.JPG,,,,,2,5,25,4,,,,,,,,,,,,,,,,,,,AFNE04.jpg,AFSA03.jpg,AFNE08.jpg,AFSA18.jpg,AFSA03.jpg,FS,4,num_6,16,num_6,0.783484577667,,,2018_Mar_05_1352,60.0120686516,MAFE4ImagesEEG,001,203231,
AFNE01.JPG,AFNE01.JPG,AFNE01.JPG,AFNE01.JPG,AFNE01.JPG,AFNE01.JPG,,,,,2,6,26,5,,,,,,,,,,,,,,,,,,,AFSA03.jpg,AFNE20.jpg,AFNE04.jpg,AFSA04.jpg,AFNE04.jpg,FN,3,num_2,16,num_2,1.00012123934,,,2018_Mar_05_1352,60.0120686516,MAFE4ImagesEEG,001,203231,
AFNE01.JPG,AFNE01.JPG,AFNE01.JPG,AFNE01.JPG,AFNE01.JPG,AFNE01.JPG,,,,,2,7,27,9,,,,,,,,,,,,,,,,,,,AFNE06.jpg,AFNE13.jpg,AFSA13.jpg,AFSA02.jpg,AFSA13.jpg,FS,4,num_2,16,num_2,0.600148630328,,,2018_Mar_05_1352,60.0120686516,MAFE4ImagesEEG,001,203231,
AFNE01.JPG,AFNE01.JPG,AFNE01.JPG,AFNE01.JPG,AFNE01.JPG,AFNE01.JPG,,,,,2,8,28,0,,,,,,,,,,,,,,,,,,,AFSA15.jpg,AFNE01.jpg,AFSA07.jpg,AFNE09.jpg,AFNE01.jpg,FN,3,num_6,32,num_4,0.900119346799,,,2018_Mar_05_1352,60.0120686516,MAFE4ImagesEEG,001,203231,
AFNE01.JPG,AFNE01.JPG,AFNE01.JPG,AFNE01.JPG,AFNE01.JPG,AFNE01.JPG,,,,,2,9,29,3,,,,,,,,,,,,,,,,,,,AFNE16.jpg,AFNE19.jpg,AFSA20.jpg,AFSA10.jpg,AFSA10.jpg,FS,4,num_4,16,num_4,0.550182324136,,,2018_Mar_05_1352,60.0120686516,MAFE4ImagesEEG,001,203231,
AFNE01.JPG,AFNE01.JPG,AFNE01.JPG,AFNE01.JPG,AFNE01.JPG,AFNE01.JPG,,,,,3,0,30,7,,,,,,,,,,,,,,,,,,,AFSA04.jpg,AFSA12.jpg,AFNE19.jpg,AFNE09.jpg,AFNE19.jpg,FN,3,num_2,16,num_2,0.916752865072,,,2018_Mar_05_1352,60.0120686516,MAFE4ImagesEEG,001,203231,
AFNE01.JPG,AFNE01.JPG,AFNE01.JPG,AFNE01.JPG,AFNE01.JPG,AFNE01.JPG,,,,,3,1,31,0,,,,,,,,,,,,,,,,,,,AFSA11.jpg,AFSA05.jpg,AFNE02.jpg,AFNE11.jpg,AFNE11.jpg,FN,3,num_4,32,num_8,0.500168548198,,,2018_Mar_05_1352,60.0120686516,MAFE4ImagesEEG,001,203231,
AFNE01.JPG,AFNE01.JPG,AFNE01.JPG,AFNE01.JPG,AFNE01.JPG,AFNE01.JPG,,,,,3,2,32,5,,,,,,,,,,,,,,,,,,,AFSA15.jpg,AFSA08.jpg,AFNE09.jpg,AFNE01.jpg,AFNE09.jpg,FN,3,num_2,16,num_2,1.10010581161,,,2018_Mar_05_1352,60.0120686516,MAFE4ImagesEEG,001,203231,
AFNE01.JPG,AFNE01.JPG,AFNE01.JPG,AFNE01.JPG,AFNE01.JPG,AFNE01.JPG,,,,,3,3,33,8,,,,,,,,,,,,,,,,,,,AFSA17.jpg,AFNE15.jpg,AFSA19.jpg,AFNE01.jpg,AFNE15.jpg,FN,3,num_6,16,num_6,0.566772863269,,,2018_Mar_05_1352,60.0120686516,MAFE4ImagesEEG,001,203231,
AFNE01.JPG,AFNE01.JPG,AFNE01.JPG,AFNE01.JPG,AFNE01.JPG,AFNE01.JPG,,,,,3,4,34,1,,,,,,,,,,,,,,,,,,,AFSA03.jpg,AFNE11.jpg,AFNE05.jpg,AFSA14.jpg,AFNE05.jpg,FN,3,num_2,32,num_8,0.766765101347,,,2018_Mar_05_1352,60.0120686516,MAFE4ImagesEEG,001,203231,
AFNE01.JPG,AFNE01.JPG,AFNE01.JPG,AFNE01.JPG,AFNE01.JPG,AFNE01.JPG,,,,,3,5,35,6,,,,,,,,,,,,,,,,,,,AFSA01.jpg,AFNE01.jpg,AFSA12.jpg,AFNE09.jpg,AFNE09.jpg,FN,3,num_4,16,num_4,0.71677955077,,,2018_Mar_05_1352,60.0120686516,MAFE4ImagesEEG,001,203231,
AFNE01.JPG,AFNE01.JPG,AFNE01.JPG,AFNE01.JPG,AFNE01.JPG,AFNE01.JPG,,,,,3,6,36,9,,,,,,,,,,,,,,,,,,,AFNE04.jpg,AFNE01.jpg,AFSA03.jpg,AFSA18.jpg,AFSA03.jpg,FS,4,num_2,32,num_4,0.933467530645,,,2018_Mar_05_1352,60.0120686516,MAFE4ImagesEEG,001,203231,
AFNE01.JPG,AFNE01.JPG,AFNE01.JPG,AFNE01.JPG,AFNE01.JPG,AFNE01.JPG,,,,,3,7,37,4,,,,,,,,,,,,,,,,,,,AFNE04.jpg,AFNE17.jpg,AFSA14.jpg,AFSA03.jpg,AFNE04.jpg,FN,3,num_8,16,num_8,0.633480135351,,,2018_Mar_05_1352,60.0120686516,MAFE4ImagesEEG,001,203231,
AFNE01.JPG,AFNE01.JPG,AFNE01.JPG,AFNE01.JPG,AFNE01.JPG,AFNE01.JPG,,,,,3,8,38,3,,,,,,,,,,,,,,,,,,,AFSA20.jpg,AFNE06.jpg,AFNE12.jpg,AFSA14.jpg,AFSA14.jpg,FS,4,num_4,32,num_8,0.983458213042,,,2018_Mar_05_1352,60.0120686516,MAFE4ImagesEEG,001,203231,
AFNE01.JPG,AFNE01.JPG,AFNE01.JPG,AFNE01.JPG,AFNE01.JPG,AFNE01.JPG,,,,,3,9,39,2,,,,,,,,,,,,,,,,,,,AFSA06.jpg,AFSA11.jpg,AFNE10.jpg,AFNE15.jpg,AFNE10.jpg,FN,3,num_2,16,num_2,1.10010260437,,,2018_Mar_05_1352,60.0120686516,MAFE4ImagesEEG,001,203231,
AFNE01.JPG,AFNE01.JPG,AFNE01.JPG,AFNE01.JPG,AFNE01.JPG,AFNE01.JPG,,,,,4,0,40,4,,,,,,,,,,,,,,,,,,,AFSA04.jpg,AFSA15.jpg,AFNE06.jpg,AFNE01.jpg,AFSA04.jpg,FS,4,num_8,16,num_8,0.58379223058,,,2018_Mar_05_1352,60.0120686516,MAFE4ImagesEEG,001,203231,
AFNE01.JPG,AFNE01.JPG,AFNE01.JPG,AFNE01.JPG,AFNE01.JPG,AFNE01.JPG,,,,,4,1,41,5,,,,,,,,,,,,,,,,,,,AFSA20.jpg,AFNE07.jpg,AFSA13.jpg,AFNE03.jpg,AFSA13.jpg,FS,4,num_2,32,num_8,0.616844372125,,,2018_Mar_05_1352,60.0120686516,MAFE4ImagesEEG,001,203231,
AFNE01.JPG,AFNE01.JPG,AFNE01.JPG,AFNE01.JPG,AFNE01.JPG,AFNE01.JPG,,,,,4,2,42,1,,,,,,,,,,,,,,,,,,,AFSA04.jpg,AFNE01.jpg,AFSA17.jpg,AFNE12.jpg,AFSA04.jpg,FS,4,num_8,16,num_8,0.550167570123,,,2018_Mar_05_1352,60.0120686516,MAFE4ImagesEEG,001,203231,
AFNE01.JPG,AFNE01.JPG,AFNE01.JPG,AFNE01.JPG,AFNE01.JPG,AFNE01.JPG,,,,,4,3,43,0,,,,,,,,,,,,,,,,,,,AFNE07.jpg,AFNE04.jpg,AFSA11.jpg,AFSA10.jpg,AFSA10.jpg,FS,4,num_4,16,num_4,0.60024260683,,,2018_Mar_05_1352,60.0120686516,MAFE4ImagesEEG,001,203231,
AFNE01.JPG,AFNE01.JPG,AFNE01.JPG,AFNE01.JPG,AFNE01.JPG,AFNE01.JPG,,,,,4,4,44,6,,,,,,,,,,,,,,,,,,,AFNE13.jpg,AFSA03.jpg,AFSA14.jpg,AFNE18.jpg,AFSA03.jpg,FS,4,num_6,32,num_8,1.28342572204,,,2018_Mar_05_1352,60.0120686516,MAFE4ImagesEEG,001,203231,
AFNE01.JPG,AFNE01.JPG,AFNE01.JPG,AFNE01.JPG,AFNE01.JPG,AFNE01.JPG,,,,,4,5,45,7,,,,,,,,,,,,,,,,,,,AFNE19.jpg,AFNE13.jpg,AFSA06.jpg,AFSA07.jpg,AFNE13.jpg,FN,3,num_6,16,num_6,0.700083809206,,,2018_Mar_05_1352,60.0120686516,MAFE4ImagesEEG,001,203231,
AFNE01.JPG,AFNE01.JPG,AFNE01.JPG,AFNE01.JPG,AFNE01.JPG,AFNE01.JPG,,,,,4,6,46,9,,,,,,,,,,,,,,,,,,,AFNE05.jpg,AFSA17.jpg,AFNE16.jpg,AFSA19.jpg,AFNE16.jpg,FN,3,num_2,32,num_8,0.70012422232,,,2018_Mar_05_1352,60.0120686516,MAFE4ImagesEEG,001,203231,
AFNE01.JPG,AFNE01.JPG,AFNE01.JPG,AFNE01.JPG,AFNE01.JPG,AFNE01.JPG,,,,,4,7,47,3,,,,,,,,,,,,,,,,,,,AFSA17.jpg,AFNE05.jpg,AFNE16.jpg,AFSA13.jpg,AFNE05.jpg,FN,3,num_6,16,num_6,0.533322684933,,,2018_Mar_05_1352,60.0120686516,MAFE4ImagesEEG,001,203231,
AFNE01.JPG,AFNE01.JPG,AFNE01.JPG,AFNE01.JPG,AFNE01.JPG,AFNE01.JPG,,,,,4,8,48,2,,,,,,,,,,,,,,,,,,,AFSA08.jpg,AFNE02.jpg,AFSA12.jpg,AFNE09.jpg,AFNE09.jpg,FN,3,num_4,16,num_4,0.733499347698,,,2018_Mar_05_1352,60.0120686516,MAFE4ImagesEEG,001,203231,
AFNE01.JPG,AFNE01.JPG,AFNE01.JPG,AFNE01.JPG,AFNE01.JPG,AFNE01.JPG,,,,,4,9,49,8,,,,,,,,,,,,,,,,,,,AFNE08.jpg,AFSA10.jpg,AFSA09.jpg,AFNE10.jpg,AFSA09.jpg,FS,4,num_2,16,num_2,0.766799741192,,,2018_Mar_05_1352,60.0120686516,MAFE4ImagesEEG,001,203231,
AFNE01.JPG,AFNE01.JPG,AFNE01.JPG,AFNE01.JPG,AFNE01.JPG,AFNE01.JPG,,,,,5,0,50,4,,,,,,,,,,,,,,,,,,,AFSA12.jpg,AFSA10.jpg,AFNE06.jpg,AFNE18.jpg,AFSA12.jpg,FS,4,num_8,16,num_8,0.5169242681,,,2018_Mar_05_1352,60.0120686516,MAFE4ImagesEEG,001,203231,
AFNE01.JPG,AFNE01.JPG,AFNE01.JPG,AFNE01.JPG,AFNE01.JPG,AFNE01.JPG,,,,,5,1,51,0,,,,,,,,,,,,,,,,,,,AFNE06.jpg,AFNE16.jpg,AFSA14.jpg,AFSA13.jpg,AFSA14.jpg,FS,4,num_2,32,num_4,0.783499652287,,,2018_Mar_05_1352,60.0120686516,MAFE4ImagesEEG,001,203231,
AFNE01.JPG,AFNE01.JPG,AFNE01.JPG,AFNE01.JPG,AFNE01.JPG,AFNE01.JPG,,,,,5,2,52,3,,,,,,,,,,,,,,,,,,,AFSA18.jpg,AFNE14.jpg,AFNE02.jpg,AFSA17.jpg,AFNE14.jpg,FN,3,num_6,16,num_6,0.400164090097,,,2018_Mar_05_1352,60.0120686516,MAFE4ImagesEEG,001,203231,
AFNE01.JPG,AFNE01.JPG,AFNE01.JPG,AFNE01.JPG,AFNE01.JPG,AFNE01.JPG,,,,,5,3,53,9,,,,,,,,,,,,,,,,,,,AFNE07.jpg,AFSA12.jpg,AFSA04.jpg,AFNE12.jpg,AFNE12.jpg,FN,3,num_4,16,num_4,0.566823860863,,,2018_Mar_05_1352,60.0120686516,MAFE4ImagesEEG,001,203231,
AFNE01.JPG,AFNE01.JPG,AFNE01.JPG,AFNE01.JPG,AFNE01.JPG,AFNE01.JPG,,,,,5,4,54,2,,,,,,,,,,,,,,,,,,,AFNE15.jpg,AFSA14.jpg,AFSA04.jpg,AFNE02.jpg,AFSA14.jpg,FS,4,num_6,16,num_6,0.666795282857,,,2018_Mar_05_1352,60.0120686516,MAFE4ImagesEEG,001,203231,
AFNE01.JPG,AFNE01.JPG,AFNE01.JPG,AFNE01.JPG,AFNE01.JPG,AFNE01.JPG,,,,,5,5,55,5,,,,,,,,,,,,,,,,,,,AFNE09.jpg,AFSA19.jpg,AFSA10.jpg,AFNE05.jpg,AFNE09.jpg,FN,3,num_8,16,num_8,0.900108762551,,,2018_Mar_05_1352,60.0120686516,MAFE4ImagesEEG,001,203231,
AFNE01.JPG,AFNE01.JPG,AFNE01.JPG,AFNE01.JPG,AFNE01.JPG,AFNE01.JPG,,,,,5,6,56,7,,,,,,,,,,,,,,,,,,,AFNE08.jpg,AFSA04.jpg,AFSA14.jpg,AFNE15.jpg,AFNE08.jpg,FN,3,num_8,16,num_8,0.650174594251,,,2018_Mar_05_1352,60.0120686516,MAFE4ImagesEEG,001,203231,
AFNE01.JPG,AFNE01.JPG,AFNE01.JPG,AFNE01.JPG,AFNE01.JPG,AFNE01.JPG,,,,,5,7,57,6,,,,,,,,,,,,,,,,,,,AFSA06.jpg,AFSA15.jpg,AFNE12.jpg,AFNE18.jpg,AFSA06.jpg,FS,4,num_8,16,num_8,0.53351224144,,,2018_Mar_05_1352,60.0120686516,MAFE4ImagesEEG,001,203231,
AFNE01.JPG,AFNE01.JPG,AFNE01.JPG,AFNE01.JPG,AFNE01.JPG,AFNE01.JPG,,,,,5,8,58,8,,,,,,,,,,,,,,,,,,,AFNE15.jpg,AFSA08.jpg,AFSA05.jpg,AFNE13.jpg,AFSA05.jpg,FS,4,num_2,32,num_6,0.60017461027,,,2018_Mar_05_1352,60.0120686516,MAFE4ImagesEEG,001,203231,
AFNE01.JPG,AFNE01.JPG,AFNE01.JPG,AFNE01.JPG,AFNE01.JPG,AFNE01.JPG,,,,,5,9,59,1,,,,,,,,,,,,,,,,,,,AFSA16.jpg,AFSA11.jpg,AFNE01.jpg,AFNE04.jpg,AFSA11.jpg,FS,4,num_6,16,num_6,0.616802996723,,,2018_Mar_05_1352,60.0120686516,MAFE4ImagesEEG,001,203231,
,,,,,,,,,,,,,,,,,,,,,,,,,,,,,,,,,,,,,,,,,,,space,4.89976877929,2018_Mar_05_1352,60.0120686516,MAFE4ImagesEEG,001,203231,
AFNE01.JPG,AFNE01.JPG,AFNE01.JPG,AFNE01.JPG,AFNE01.JPG,AFNE01.JPG,,,,,,,,,0,0,0,1,,,,,,,,,,,,,,,AMNE11.jpg,AMNE19.jpg,AMSA01.jpg,AMSA05.jpg,AMSA05.jpg,MS,2,num_4,32,num_8,0.633412139025,,,2018_Mar_05_1352,60.0120686516,MAFE4ImagesEEG,001,203231,
AFNE01.JPG,AFNE01.JPG,AFNE01.JPG,AFNE01.JPG,AFNE01.JPG,AFNE01.JPG,,,,,,,,,0,1,1,5,,,,,,,,,,,,,,,AMNE06.jpg,AMSA02.jpg,AMNE18.jpg,AMSA06.jpg,AMNE18.jpg,MN,1,num_2,32,num_4,0.716780192219,,,2018_Mar_05_1352,60.0120686516,MAFE4ImagesEEG,001,203231,
AFNE01.JPG,AFNE01.JPG,AFNE01.JPG,AFNE01.JPG,AFNE01.JPG,AFNE01.JPG,,,,,,,,,0,2,2,8,,,,,,,,,,,,,,,AMSA08.jpg,AMNE13.jpg,AMSA17.jpg,AMNE19.jpg,AMSA08.jpg,MS,2,num_8,32,num_4,1.33327175141,,,2018_Mar_05_1352,60.0120686516,MAFE4ImagesEEG,001,203231,
AFNE01.JPG,AFNE01.JPG,AFNE01.JPG,AFNE01.JPG,AFNE01.JPG,AFNE01.JPG,,,,,,,,,0,3,3,4,,,,,,,,,,,,,,,AMNE02.jpg,AMSA20.jpg,AMNE10.jpg,AMSA02.jpg,AMNE02.jpg,MN,1,num_8,16,num_8,0.666791113326,,,2018_Mar_05_1352,60.0120686516,MAFE4ImagesEEG,001,203231,
AFNE01.JPG,AFNE01.JPG,AFNE01.JPG,AFNE01.JPG,AFNE01.JPG,AFNE01.JPG,,,,,,,,,0,4,4,6,,,,,,,,,,,,,,,AMNE05.jpg,AMSA03.jpg,AMSA14.jpg,AMNE14.jpg,AMSA03.jpg,MS,2,num_6,16,num_6,0.950117727276,,,2018_Mar_05_1352,60.0120686516,MAFE4ImagesEEG,001,203231,
AFNE01.JPG,AFNE01.JPG,AFNE01.JPG,AFNE01.JPG,AFNE01.JPG,AFNE01.JPG,,,,,,,,,0,5,5,0,,,,,,,,,,,,,,,AMNE01.jpg,AMNE04.jpg,AMSA20.jpg,AMSA10.jpg,AMSA20.jpg,MS,2,num_2,16,num_2,0.50021088589,,,2018_Mar_05_1352,60.0120686516,MAFE4ImagesEEG,001,203231,
AFNE01.JPG,AFNE01.JPG,AFNE01.JPG,AFNE01.JPG,AFNE01.JPG,AFNE01.JPG,,,,,,,,,0,6,6,2,,,,,,,,,,,,,,,AMNE19.jpg,AMSA20.jpg,AMSA11.jpg,AMNE02.jpg,AMSA11.jpg,MS,2,num_2,16,num_2,0.616846296471,,,2018_Mar_05_1352,60.0120686516,MAFE4ImagesEEG,001,203231,
AFNE01.JPG,AFNE01.JPG,AFNE01.JPG,AFNE01.JPG,AFNE01.JPG,AFNE01.JPG,,,,,,,,,0,7,7,9,,,,,,,,,,,,,,,AMNE03.jpg,AMNE11.jpg,AMSA15.jpg,AMSA12.jpg,AMSA15.jpg,MS,2,num_2,16,num_2,0.600160818547,,,2018_Mar_05_1352,60.0120686516,MAFE4ImagesEEG,001,203231,
AFNE01.JPG,AFNE01.JPG,AFNE01.JPG,AFNE01.JPG,AFNE01.JPG,AFNE01.JPG,,,,,,,,,0,8,8,7,,,,,,,,,,,,,,,AMSA14.jpg,AMSA19.jpg,AMNE18.jpg,AMNE06.jpg,AMNE18.jpg,MN,1,num_2,32,num_6,0.500087080523,,,2018_Mar_05_1352,60.0120686516,MAFE4ImagesEEG,001,203231,
AFNE01.JPG,AFNE01.JPG,AFNE01.JPG,AFNE01.JPG,AFNE01.JPG,AFNE01.JPG,,,,,,,,,0,9,9,3,,,,,,,,,,,,,,,AMSA01.jpg,AMNE03.jpg,AMSA07.jpg,AMNE18.jpg,AMNE18.jpg,MN,1,num_4,16,num_4,0.51681938651,,,2018_Mar_05_1352,60.0120686516,MAFE4ImagesEEG,001,203231,
AFNE01.JPG,AFNE01.JPG,AFNE01.JPG,AFNE01.JPG,AFNE01.JPG,AFNE01.JPG,,,,,,,,,1,0,10,2,,,,,,,,,,,,,,,AMNE05.jpg,AMSA17.jpg,AMNE06.jpg,AMSA02.jpg,AMNE06.jpg,MN,1,num_2,16,num_2,0.700095676351,,,2018_Mar_05_1352,60.0120686516,MAFE4ImagesEEG,001,203231,
AFNE01.JPG,AFNE01.JPG,AFNE01.JPG,AFNE01.JPG,AFNE01.JPG,AFNE01.JPG,,,,,,,,,1,1,11,1,,,,,,,,,,,,,,,AMSA04.jpg,AMNE09.jpg,AMSA20.jpg,AMNE13.jpg,AMSA20.jpg,MS,2,num_2,16,num_2,1.14982322487,,,2018_Mar_05_1352,60.0120686516,MAFE4ImagesEEG,001,203231,
AFNE01.JPG,AFNE01.JPG,AFNE01.JPG,AFNE01.JPG,AFNE01.JPG,AFNE01.JPG,,,,,,,,,1,2,12,0,,,,,,,,,,,,,,,AMSA03.jpg,AMNE10.jpg,AMNE12.jpg,AMSA07.jpg,AMSA07.jpg,MS,2,num_4,16,num_4,0.550201568287,,,2018_Mar_05_1352,60.0120686516,MAFE4ImagesEEG,001,203231,
AFNE01.JPG,AFNE01.JPG,AFNE01.JPG,AFNE01.JPG,AFNE01.JPG,AFNE01.JPG,,,,,,,,,1,3,13,5,,,,,,,,,,,,,,,AMNE12.jpg,AMNE04.jpg,AMSA02.jpg,AMSA17.jpg,AMSA17.jpg,MS,2,num_4,16,num_4,0.516778331948,,,2018_Mar_05_1352,60.0120686516,MAFE4ImagesEEG,001,203231,
AFNE01.JPG,AFNE01.JPG,AFNE01.JPG,AFNE01.JPG,AFNE01.JPG,AFNE01.JPG,,,,,,,,,1,4,14,4,,,,,,,,,,,,,,,AMSA14.jpg,AMNE08.jpg,AMNE07.jpg,AMSA08.jpg,AMNE07.jpg,MN,1,num_2,32,num_8,0.500117871445,,,2018_Mar_05_1352,60.0120686516,MAFE4ImagesEEG,001,203231,
AFNE01.JPG,AFNE01.JPG,AFNE01.JPG,AFNE01.JPG,AFNE01.JPG,AFNE01.JPG,,,,,,,,,1,5,15,8,,,,,,,,,,,,,,,AMSA18.jpg,AMNE15.jpg,AMSA08.jpg,AMNE16.jpg,AMNE15.jpg,MN,1,num_6,16,num_6,0.550175909186,,,2018_Mar_05_1352,60.0120686516,MAFE4ImagesEEG,001,203231,
AFNE01.JPG,AFNE01.JPG,AFNE01.JPG,AFNE01.JPG,AFNE01.JPG,AFNE01.JPG,,,,,,,,,1,6,16,7,,,,,,,,,,,,,,,AMNE09.jpg,AMSA02.jpg,AMNE19.jpg,AMSA05.jpg,AMSA05.jpg,MS,2,num_4,32,num_8,0.683493590681,,,2018_Mar_05_1352,60.0120686516,MAFE4ImagesEEG,001,203231,
AFNE01.JPG,AFNE01.JPG,AFNE01.JPG,AFNE01.JPG,AFNE01.JPG,AFNE01.JPG,,,,,,,,,1,7,17,3,,,,,,,,,,,,,,,AMNE16.jpg,AMSA02.jpg,AMSA01.jpg,AMNE10.jpg,AMSA02.jpg,MS,2,num_6,16,num_6,0.499998556683,,,2018_Mar_05_1352,60.0120686516,MAFE4ImagesEEG,001,203231,
AFNE01.JPG,AFNE01.JPG,AFNE01.JPG,AFNE01.JPG,AFNE01.JPG,AFNE01.JPG,,,,,,,,,1,8,18,9,,,,,,,,,,,,,,,AMSA05.jpg,AMNE15.jpg,AMSA02.jpg,AMNE07.jpg,AMNE15.jpg,MN,1,num_6,32,num_8,0.466804648517,,,2018_Mar_05_1352,60.0120686516,MAFE4ImagesEEG,001,203231,
AFNE01.JPG,AFNE01.JPG,AFNE01.JPG,AFNE01.JPG,AFNE01.JPG,AFNE01.JPG,,,,,,,,,1,9,19,6,,,,,,,,,,,,,,,AMNE03.jpg,AMNE08.jpg,AMSA17.jpg,AMSA20.jpg,AMSA17.jpg,MS,2,num_2,16,num_2,1.26675211149,,,2018_Mar_05_1352,60.0120686516,MAFE4ImagesEEG,001,203231,
AFNE01.JPG,AFNE01.JPG,AFNE01.JPG,AFNE01.JPG,AFNE01.JPG,AFNE01.JPG,,,,,,,,,2,0,20,1,,,,,,,,,,,,,,,AMNE01.jpg,AMSA11.jpg,AMNE10.jpg,AMSA06.jpg,AMNE01.jpg,MN,1,num_8,16,num_8,0.633468268206,,,2018_Mar_05_1352,60.0120686516,MAFE4ImagesEEG,001,203231,
AFNE01.JPG,AFNE01.JPG,AFNE01.JPG,AFNE01.JPG,AFNE01.JPG,AFNE01.JPG,,,,,,,,,2,1,21,4,,,,,,,,,,,,,,,AMSA17.jpg,AMSA10.jpg,AMNE11.jpg,AMNE06.jpg,AMNE06.jpg,MN,1,num_4,32,num_2,0.950132802129,,,2018_Mar_05_1352,60.0120686516,MAFE4ImagesEEG,001,203231,
AFNE01.JPG,AFNE01.JPG,AFNE01.JPG,AFNE01.JPG,AFNE01.JPG,AFNE01.JPG,,,,,,,,,2,2,22,8,,,,,,,,,,,,,,,AMSA20.jpg,AMNE10.jpg,AMSA09.jpg,AMNE20.jpg,AMSA09.jpg,MS,2,num_2,16,num_2,0.700138655491,,,2018_Mar_05_1352,60.0120686516,MAFE4ImagesEEG,001,203231,
AFNE01.JPG,AFNE01.JPG,AFNE01.JPG,AFNE01.JPG,AFNE01.JPG,AFNE01.JPG,,,,,,,,,2,3,23,9,,,,,,,,,,,,,,,AMNE18.jpg,AMSA17.jpg,AMNE16.jpg,AMSA13.jpg,AMSA13.jpg,MS,2,num_4,32,num_6,0.566534554353,,,2018_Mar_05_1352,60.0120686516,MAFE4ImagesEEG,001,203231,
AFNE01.JPG,AFNE01.JPG,AFNE01.JPG,AFNE01.JPG,AFNE01.JPG,AFNE01.JPG,,,,,,,,,2,4,24,2,,,,,,,,,,,,,,,AMSA08.jpg,AMNE12.jpg,AMNE01.jpg,AMSA15.jpg,AMSA15.jpg,MS,2,num_4,16,num_4,0.616795299109,,,2018_Mar_05_1352,60.0120686516,MAFE4ImagesEEG,001,203231,
AFNE01.JPG,AFNE01.JPG,AFNE01.JPG,AFNE01.JPG,AFNE01.JPG,AFNE01.JPG,,,,,,,,,2,5,25,6,,,,,,,,,,,,,,,AMSA11.jpg,AMNE13.jpg,AMSA13.jpg,AMNE08.jpg,AMSA11.jpg,MS,2,num_8,16,num_8,0.716761268675,,,2018_Mar_05_1352,60.0120686516,MAFE4ImagesEEG,001,203231,
AFNE01.JPG,AFNE01.JPG,AFNE01.JPG,AFNE01.JPG,AFNE01.JPG,AFNE01.JPG,,,,,,,,,2,6,26,7,,,,,,,,,,,,,,,AMSA10.jpg,AMNE01.jpg,AMNE07.jpg,AMSA14.jpg,AMSA10.jpg,MS,2,num_8,32,num_2,1.01674353168,,,2018_Mar_05_1352,60.0120686516,MAFE4ImagesEEG,001,203231,
AFNE01.JPG,AFNE01.JPG,AFNE01.JPG,AFNE01.JPG,AFNE01.JPG,AFNE01.JPG,,,,,,,,,2,7,27,0,,,,,,,,,,,,,,,AMNE15.jpg,AMSA04.jpg,AMSA02.jpg,AMNE12.jpg,AMNE12.jpg,MN,1,num_4,32,num_8,0.516775445314,,,2018_Mar_05_1352,60.0120686516,MAFE4ImagesEEG,001,203231,
AFNE01.JPG,AFNE01.JPG,AFNE01.JPG,AFNE01.JPG,AFNE01.JPG,AFNE01.JPG,,,,,,,,,2,8,28,5,,,,,,,,,,,,,,,AMNE19.jpg,AMNE03.jpg,AMSA01.jpg,AMSA16.jpg,AMSA01.jpg,MS,2,num_2,16,num_2,0.583615503507,,,2018_Mar_05_1352,60.0120686516,MAFE4ImagesEEG,001,203231,
AFNE01.JPG,AFNE01.JPG,AFNE01.JPG,AFNE01.JPG,AFNE01.JPG,AFNE01.JPG,,,,,,,,,2,9,29,3,,,,,,,,,,,,,,,AMSA19.jpg,AMSA03.jpg,AMNE08.jpg,AMNE10.jpg,AMNE08.jpg,MN,1,num_2,16,num_2,0.550142873079,,,2018_Mar_05_1352,60.0120686516,MAFE4ImagesEEG,001,203231,
AFNE01.JPG,AFNE01.JPG,AFNE01.JPG,AFNE01.JPG,AFNE01.JPG,AFNE01.JPG,,,,,,,,,3,0,30,8,,,,,,,,,,,,,,,AMSA10.jpg,AMNE16.jpg,AMSA02.jpg,AMNE08.jpg,AMNE16.jpg,MN,1,num_6,16,num_6,0.500150907552,,,2018_Mar_05_1352,60.0120686516,MAFE4ImagesEEG,001,203231,
AFNE01.JPG,AFNE01.JPG,AFNE01.JPG,AFNE01.JPG,AFNE01.JPG,AFNE01.JPG,,,,,,,,,3,1,31,0,,,,,,,,,,,,,,,AMSA10.jpg,AMSA01.jpg,AMNE01.jpg,AMNE10.jpg,AMNE01.jpg,MN,1,num_2,16,num_2,0.733480103547,,,2018_Mar_05_1352,60.0120686516,MAFE4ImagesEEG,001,203231,
AFNE01.JPG,AFNE01.JPG,AFNE01.JPG,AFNE01.JPG,AFNE01.JPG,AFNE01.JPG,,,,,,,,,3,2,32,3,,,,,,,,,,,,,,,AMSA17.jpg,AMNE13.jpg,AMSA10.jpg,AMNE08.jpg,AMSA10.jpg,MS,2,num_2,16,num_2,0.83350573061,,,2018_Mar_05_1352,60.0120686516,MAFE4ImagesEEG,001,203231,
AFNE01.JPG,AFNE01.JPG,AFNE01.JPG,AFNE01.JPG,AFNE01.JPG,AFNE01.JPG,,,,,,,,,3,3,33,9,,,,,,,,,,,,,,,AMNE08.jpg,AMNE20.jpg,AMSA07.jpg,AMSA16.jpg,AMSA16.jpg,MS,2,num_4,16,num_4,0.566792428261,,,2018_Mar_05_1352,60.0120686516,MAFE4ImagesEEG,001,203231,
AFNE01.JPG,AFNE01.JPG,AFNE01.JPG,AFNE01.JPG,AFNE01.JPG,AFNE01.JPG,,,,,,,,,3,4,34,2,,,,,,,,,,,,,,,AMNE02.jpg,AMSA13.jpg,AMSA06.jpg,AMNE18.jpg,AMSA06.jpg,MS,2,num_2,16,num_2,0.63348751259,,,2018_Mar_05_1352,60.0120686516,MAFE4ImagesEEG,001,203231,
AFNE01.JPG,AFNE01.JPG,AFNE01.JPG,AFNE01.JPG,AFNE01.JPG,AFNE01.JPG,,,,,,,,,3,5,35,4,,,,,,,,,,,,,,,AMNE14.jpg,AMSA01.jpg,AMNE06.jpg,AMSA15.jpg,AMSA01.jpg,MS,2,num_6,16,num_6,0.783444164554,,,2018_Mar_05_1352,60.0120686516,MAFE4ImagesEEG,001,203231,
AFNE01.JPG,AFNE01.JPG,AFNE01.JPG,AFNE01.JPG,AFNE01.JPG,AFNE01.JPG,,,,,,,,,3,6,36,1,,,,,,,,,,,,,,,AMNE13.jpg,AMNE11.jpg,AMSA17.jpg,AMSA05.jpg,AMSA05.jpg,MS,2,num_4,16,num_4,0.550152495271,,,2018_Mar_05_1352,60.0120686516,MAFE4ImagesEEG,001,203231,
AFNE01.JPG,AFNE01.JPG,AFNE01.JPG,AFNE01.JPG,AFNE01.JPG,AFNE01.JPG,,,,,,,,,3,7,37,5,,,,,,,,,,,,,,,AMSA03.jpg,AMNE18.jpg,AMNE14.jpg,AMSA06.jpg,AMSA03.jpg,MS,2,num_8,16,num_8,0.533473111223,,,2018_Mar_05_1352,60.0120686516,MAFE4ImagesEEG,001,203231,
AFNE01.JPG,AFNE01.JPG,AFNE01.JPG,AFNE01.JPG,AFNE01.JPG,AFNE01.JPG,,,,,,,,,3,8,38,7,,,,,,,,,,,,,,,AMNE12.jpg,AMSA08.jpg,AMNE11.jpg,AMSA11.jpg,AMSA08.jpg,MS,2,num_6,32,num_8,1.00010327785,,,2018_Mar_05_1352,60.0120686516,MAFE4ImagesEEG,001,203231,
AFNE01.JPG,AFNE01.JPG,AFNE01.JPG,AFNE01.JPG,AFNE01.JPG,AFNE01.JPG,,,,,,,,,3,9,39,6,,,,,,,,,,,,,,,AMSA14.jpg,AMNE02.jpg,AMSA12.jpg,AMNE12.jpg,AMNE12.jpg,MN,1,num_4,32,num_6,0.766791081289,,,2018_Mar_05_1352,60.0120686516,MAFE4ImagesEEG,001,203231,
AFNE01.JPG,AFNE01.JPG,AFNE01.JPG,AFNE01.JPG,AFNE01.JPG,AFNE01.JPG,,,,,,,,,4,0,40,5,,,,,,,,,,,,,,,AMNE15.jpg,AMSA20.jpg,AMSA04.jpg,AMNE18.jpg,AMNE15.jpg,MN,1,num_8,16,num_8,0.766777289333,,,2018_Mar_05_1352,60.0120686516,MAFE4ImagesEEG,001,203231,
AFNE01.JPG,AFNE01.JPG,AFNE01.JPG,AFNE01.JPG,AFNE01.JPG,AFNE01.JPG,,,,,,,,,4,1,41,9,,,,,,,,,,,,,,,AMNE15.jpg,AMSA12.jpg,AMSA08.jpg,AMNE11.jpg,AMNE15.jpg,MN,1,num_8,16,num_8,0.60018102522,,,2018_Mar_05_1352,60.0120686516,MAFE4ImagesEEG,001,203231,
AFNE01.JPG,AFNE01.JPG,AFNE01.JPG,AFNE01.JPG,AFNE01.JPG,AFNE01.JPG,,,,,,,,,4,2,42,4,,,,,,,,,,,,,,,AMSA06.jpg,AMSA20.jpg,AMNE12.jpg,AMNE16.jpg,AMNE12.jpg,MN,1,num_2,32,num_4,0.633488474879,,,2018_Mar_05_1352,60.0120686516,MAFE4ImagesEEG,001,203231,
AFNE01.JPG,AFNE01.JPG,AFNE01.JPG,AFNE01.JPG,AFNE01.JPG,AFNE01.JPG,,,,,,,,,4,3,43,7,,,,,,,,,,,,,,,AMNE12.jpg,AMSA19.jpg,AMNE08.jpg,AMSA03.jpg,AMNE12.jpg,MN,1,num_8,16,num_8,0.533489148365,,,2018_Mar_05_1352,60.0120686516,MAFE4ImagesEEG,001,203231,
AFNE01.JPG,AFNE01.JPG,AFNE01.JPG,AFNE01.JPG,AFNE01.JPG,AFNE01.JPG,,,,,,,,,4,4,44,2,,,,,,,,,,,,,,,AMNE13.jpg,AMSA01.jpg,AMNE16.jpg,AMSA14.jpg,AMNE16.jpg,MN,1,num_2,32,num_8,0.483514182037,,,2018_Mar_05_1352,60.0120686516,MAFE4ImagesEEG,001,203231,
AFNE01.JPG,AFNE01.JPG,AFNE01.JPG,AFNE01.JPG,AFNE01.JPG,AFNE01.JPG,,,,,,,,,4,5,45,1,,,,,,,,,,,,,,,AMSA11.jpg,AMNE13.jpg,AMSA08.jpg,AMNE20.jpg,AMSA11.jpg,MS,2,num_8,16,num_8,0.550115289632,,,2018_Mar_05_1352,60.0120686516,MAFE4ImagesEEG,001,203231,
AFNE01.JPG,AFNE01.JPG,AFNE01.JPG,AFNE01.JPG,AFNE01.JPG,AFNE01.JPG,,,,,,,,,4,6,46,3,,,,,,,,,,,,,,,AMSA07.jpg,AMSA17.jpg,AMNE20.jpg,AMNE02.jpg,AMSA07.jpg,MS,2,num_8,16,num_8,0.966781074181,,,2018_Mar_05_1352,60.0120686516,MAFE4ImagesEEG,001,203231,
AFNE01.JPG,AFNE01.JPG,AFNE01.JPG,AFNE01.JPG,AFNE01.JPG,AFNE01.JPG,,,,,,,,,4,7,47,0,,,,,,,,,,,,,,,AMNE06.jpg,AMSA17.jpg,AMSA11.jpg,AMNE16.jpg,AMSA17.jpg,MS,2,num_6,32,num_8,0.633343179943,,,2018_Mar_05_1352,60.0120686516,MAFE4ImagesEEG,001,203231,
AFNE01.JPG,AFNE01.JPG,AFNE01.JPG,AFNE01.JPG,AFNE01.JPG,AFNE01.JPG,,,,,,,,,4,8,48,6,,,,,,,,,,,,,,,AMSA05.jpg,AMSA13.jpg,AMNE03.jpg,AMNE02.jpg,AMNE02.jpg,MN,1,num_4,32,num_8,0.583490735851,,,2018_Mar_05_1352,60.0120686516,MAFE4ImagesEEG,001,203231,
AFNE01.JPG,AFNE01.JPG,AFNE01.JPG,AFNE01.JPG,AFNE01.JPG,AFNE01.JPG,,,,,,,,,4,9,49,8,,,,,,,,,,,,,,,AMNE04.jpg,AMSA13.jpg,AMNE09.jpg,AMSA11.jpg,AMNE09.jpg,MN,1,num_2,32,num_8,0.566781844012,,,2018_Mar_05_1352,60.0120686516,MAFE4ImagesEEG,001,203231,
AFNE01.JPG,AFNE01.JPG,AFNE01.JPG,AFNE01.JPG,AFNE01.JPG,AFNE01.JPG,,,,,,,,,5,0,50,1,,,,,,,,,,,,,,,AMNE06.jpg,AMSA04.jpg,AMNE08.jpg,AMSA13.jpg,AMSA04.jpg,MS,2,num_6,16,num_6,0.700369587401,,,2018_Mar_05_1352,60.0120686516,MAFE4ImagesEEG,001,203231,
AFNE01.JPG,AFNE01.JPG,AFNE01.JPG,AFNE01.JPG,AFNE01.JPG,AFNE01.JPG,,,,,,,,,5,1,51,3,,,,,,,,,,,,,,,AMSA06.jpg,AMNE13.jpg,AMNE19.jpg,AMSA12.jpg,AMNE13.jpg,MN,1,num_6,16,num_6,0.866820877884,,,2018_Mar_05_1352,60.0120686516,MAFE4ImagesEEG,001,203231,
AFNE01.JPG,AFNE01.JPG,AFNE01.JPG,AFNE01.JPG,AFNE01.JPG,AFNE01.JPG,,,,,,,,,5,2,52,7,,,,,,,,,,,,,,,AMSA09.jpg,AMSA07.jpg,AMNE04.jpg,AMNE16.jpg,AMNE04.jpg,MN,1,num_2,16,num_2,0.650205385173,,,2018_Mar_05_1352,60.0120686516,MAFE4ImagesEEG,001,203231,
AFNE01.JPG,AFNE01.JPG,AFNE01.JPG,AFNE01.JPG,AFNE01.JPG,AFNE01.JPG,,,,,,,,,5,3,53,5,,,,,,,,,,,,,,,AMSA08.jpg,AMNE16.jpg,AMNE15.jpg,AMSA19.jpg,AMSA19.jpg,MS,2,num_4,16,num_4,0.466799837537,,,2018_Mar_05_1352,60.0120686516,MAFE4ImagesEEG,001,203231,
AFNE01.JPG,AFNE01.JPG,AFNE01.JPG,AFNE01.JPG,AFNE01.JPG,AFNE01.JPG,,,,,,,,,5,4,54,9,,,,,,,,,,,,,,,AMSA02.jpg,AMNE06.jpg,AMNE14.jpg,AMSA12.jpg,AMSA12.jpg,MS,2,num_4,16,num_4,0.766754196258,,,2018_Mar_05_1352,60.0120686516,MAFE4ImagesEEG,001,203231,
AFNE01.JPG,AFNE01.JPG,AFNE01.JPG,AFNE01.JPG,AFNE01.JPG,AFNE01.JPG,,,,,,,,,5,5,55,0,,,,,,,,,,,,,,,AMNE16.jpg,AMSA14.jpg,AMSA18.jpg,AMNE09.jpg,AMNE09.jpg,MN,1,num_4,32,num_8,0.766788194655,,,2018_Mar_05_1352,60.0120686516,MAFE4ImagesEEG,001,203231,
AFNE01.JPG,AFNE01.JPG,AFNE01.JPG,AFNE01.JPG,AFNE01.JPG,AFNE01.JPG,,,,,,,,,5,6,56,6,,,,,,,,,,,,,,,AMSA13.jpg,AMNE16.jpg,AMSA10.jpg,AMNE08.jpg,AMSA10.jpg,MS,2,num_2,32,num_8,0.516795331147,,,2018_Mar_05_1352,60.0120686516,MAFE4ImagesEEG,001,203231,
AFNE01.JPG,AFNE01.JPG,AFNE01.JPG,AFNE01.JPG,AFNE01.JPG,AFNE01.JPG,,,,,,,,,5,7,57,2,,,,,,,,,,,,,,,AMSA12.jpg,AMSA20.jpg,AMNE02.jpg,AMNE13.jpg,AMSA20.jpg,MS,2,num_6,32,num_8,0.5167876333,,,2018_Mar_05_1352,60.0120686516,MAFE4ImagesEEG,001,203231,
AFNE01.JPG,AFNE01.JPG,AFNE01.JPG,AFNE01.JPG,AFNE01.JPG,AFNE01.JPG,,,,,,,,,5,8,58,4,,,,,,,,,,,,,,,AMNE03.jpg,AMNE17.jpg,AMSA03.jpg,AMSA16.jpg,AMSA03.jpg,MS,2,num_2,32,num_4,0.566780560883,,,2018_Mar_05_1352,60.0120686516,MAFE4ImagesEEG,001,203231,
AFNE01.JPG,AFNE01.JPG,AFNE01.JPG,AFNE01.JPG,AFNE01.JPG,AFNE01.JPG,,,,,,,,,5,9,59,8,,,,,,,,,,,,,,,AMSA05.jpg,AMNE13.jpg,AMNE03.jpg,AMSA14.jpg,AMNE03.jpg,MN,1,num_2,32,num_8,0.683451894438,,,2018_Mar_05_1352,60.0120686516,MAFE4ImagesEEG,001,203231,
,,,,,,,,,,,,,,,,,,,,,,,,,,,,,,,,,,,,,,,,,,,space,5.66639852896,2018_Mar_05_1352,60.0120686516,MAFE4ImagesEEG,001,203231,
AFNE01.JPG,AFNE01.JPG,AFNE01.JPG,AFNE01.JPG,AFNE01.JPG,AFNE01.JPG,,,,,,,,,,,,,0,0,0,6,,,,,,,,,,,AFNE07.jpg,AFNE09.jpg,AFSA04.jpg,AFSA02.jpg,AFSA02.jpg,FS,4,num_4,16,num_4,0.566817766754,,,2018_Mar_05_1352,60.0120686516,MAFE4ImagesEEG,001,203231,
AFNE01.JPG,AFNE01.JPG,AFNE01.JPG,AFNE01.JPG,AFNE01.JPG,AFNE01.JPG,,,,,,,,,,,,,0,1,1,8,,,,,,,,,,,AFSA20.jpg,AFNE15.jpg,AFNE19.jpg,AFSA12.jpg,AFNE19.jpg,FN,3,num_2,32,num_8,0.550165004097,,,2018_Mar_05_1352,60.0120686516,MAFE4ImagesEEG,001,203231,
AFNE01.JPG,AFNE01.JPG,AFNE01.JPG,AFNE01.JPG,AFNE01.JPG,AFNE01.JPG,,,,,,,,,,,,,0,2,2,5,,,,,,,,,,,AFSA09.jpg,AFNE12.jpg,AFSA16.jpg,AFNE13.jpg,AFSA09.jpg,FS,4,num_8,16,num_8,0.650131615344,,,2018_Mar_05_1352,60.0120686516,MAFE4ImagesEEG,001,203231,
AFNE01.JPG,AFNE01.JPG,AFNE01.JPG,AFNE01.JPG,AFNE01.JPG,AFNE01.JPG,,,,,,,,,,,,,0,3,3,1,,,,,,,,,,,AFSA15.jpg,AFSA07.jpg,AFNE19.jpg,AFNE11.jpg,AFSA07.jpg,FS,4,num_6,16,num_6,0.566823860863,,,2018_Mar_05_1352,60.0120686516,MAFE4ImagesEEG,001,203231,
AFNE01.JPG,AFNE01.JPG,AFNE01.JPG,AFNE01.JPG,AFNE01.JPG,AFNE01.JPG,,,,,,,,,,,,,0,4,4,7,,,,,,,,,,,AFNE18.jpg,AFSA20.jpg,AFSA09.jpg,AFNE11.jpg,AFNE11.jpg,FN,3,num_4,16,num_4,0.933480039239,,,2018_Mar_05_1352,60.0120686516,MAFE4ImagesEEG,001,203231,
AFNE01.JPG,AFNE01.JPG,AFNE01.JPG,AFNE01.JPG,AFNE01.JPG,AFNE01.JPG,,,,,,,,,,,,,0,5,5,0,,,,,,,,,,,AFSA20.jpg,AFSA10.jpg,AFNE08.jpg,AFNE15.jpg,AFSA20.jpg,FS,4,num_8,16,num_8,0.63345447625,,,2018_Mar_05_1352,60.0120686516,MAFE4ImagesEEG,001,203231,
AFNE01.JPG,AFNE01.JPG,AFNE01.JPG,AFNE01.JPG,AFNE01.JPG,AFNE01.JPG,,,,,,,,,,,,,0,6,6,2,,,,,,,,,,,AFNE18.jpg,AFSA20.jpg,AFNE04.jpg,AFSA01.jpg,AFSA20.jpg,FS,4,num_6,32,num_4,0.783482653322,,,2018_Mar_05_1352,60.0120686516,MAFE4ImagesEEG,001,203231,
AFNE01.JPG,AFNE01.JPG,AFNE01.JPG,AFNE01.JPG,AFNE01.JPG,AFNE01.JPG,,,,,,,,,,,,,0,7,7,3,,,,,,,,,,,AFSA08.jpg,AFSA18.jpg,AFNE04.jpg,AFNE18.jpg,AFNE04.jpg,FN,3,num_2,32,num_4,0.733448670944,,,2018_Mar_05_1352,60.0120686516,MAFE4ImagesEEG,001,203231,
AFNE01.JPG,AFNE01.JPG,AFNE01.JPG,AFNE01.JPG,AFNE01.JPG,AFNE01.JPG,,,,,,,,,,,,,0,8,8,4,,,,,,,,,,,AFNE15.jpg,AFNE06.jpg,AFSA10.jpg,AFSA11.jpg,AFNE15.jpg,FN,3,num_8,32,num_6,0.683448045515,,,2018_Mar_05_1352,60.0120686516,MAFE4ImagesEEG,001,203231,
AFNE01.JPG,AFNE01.JPG,AFNE01.JPG,AFNE01.JPG,AFNE01.JPG,AFNE01.JPG,,,,,,,,,,,,,0,9,9,9,,,,,,,,,,,AFNE04.jpg,AFSA13.jpg,AFSA15.jpg,AFNE10.jpg,AFNE10.jpg,FN,3,num_4,32,num_2,1.06673998758,,,2018_Mar_05_1352,60.0120686516,MAFE4ImagesEEG,001,203231,
AFNE01.JPG,AFNE01.JPG,AFNE01.JPG,AFNE01.JPG,AFNE01.JPG,AFNE01.JPG,,,,,,,,,,,,,1,0,10,6,,,,,,,,,,,AFNE14.jpg,AFSA13.jpg,AFNE15.jpg,AFSA17.jpg,AFNE14.jpg,FN,3,num_8,16,num_8,0.750079623424,,,2018_Mar_05_1352,60.0120686516,MAFE4ImagesEEG,001,203231,
AFNE01.JPG,AFNE01.JPG,AFNE01.JPG,AFNE01.JPG,AFNE01.JPG,AFNE01.JPG,,,,,,,,,,,,,1,1,11,9,,,,,,,,,,,AFSA07.jpg,AFNE02.jpg,AFSA18.jpg,AFNE09.jpg,AFSA07.jpg,FS,4,num_8,16,num_8,0.583461227827,,,2018_Mar_05_1352,60.0120686516,MAFE4ImagesEEG,001,203231,
AFNE01.JPG,AFNE01.JPG,AFNE01.JPG,AFNE01.JPG,AFNE01.JPG,AFNE01.JPG,,,,,,,,,,,,,1,2,12,4,,,,,,,,,,,AFSA19.jpg,AFNE09.jpg,AFNE18.jpg,AFSA20.jpg,AFNE18.jpg,FN,3,num_2,32,num_6,0.800115530146,,,2018_Mar_05_1352,60.0120686516,MAFE4ImagesEEG,001,203231,
AFNE01.JPG,AFNE01.JPG,AFNE01.JPG,AFNE01.JPG,AFNE01.JPG,AFNE01.JPG,,,,,,,,,,,,,1,3,13,2,,,,,,,,,,,AFSA12.jpg,AFNE02.jpg,AFNE17.jpg,AFSA19.jpg,AFNE17.jpg,FN,3,num_2,16,num_2,0.816784971161,,,2018_Mar_05_1352,60.0120686516,MAFE4ImagesEEG,001,203231,
AFNE01.JPG,AFNE01.JPG,AFNE01.JPG,AFNE01.JPG,AFNE01.JPG,AFNE01.JPG,,,,,,,,,,,,,1,4,14,0,,,,,,,,,,,AFNE03.jpg,AFSA19.jpg,AFSA15.jpg,AFNE20.jpg,AFNE20.jpg,FN,3,num_4,32,num_8,0.566822898574,,,2018_Mar_05_1352,60.0120686516,MAFE4ImagesEEG,001,203231,
AFNE01.JPG,AFNE01.JPG,AFNE01.JPG,AFNE01.JPG,AFNE01.JPG,AFNE01.JPG,,,,,,,,,,,,,1,5,15,1,,,,,,,,,,,AFNE18.jpg,AFSA07.jpg,AFSA01.jpg,AFNE11.jpg,AFNE11.jpg,FN,3,num_4,16,num_4,0.700223651249,,,2018_Mar_05_1352,60.0120686516,MAFE4ImagesEEG,001,203231,
AFNE01.JPG,AFNE01.JPG,AFNE01.JPG,AFNE01.JPG,AFNE01.JPG,AFNE01.JPG,,,,,,,,,,,,,1,6,16,5,,,,,,,,,,,AFNE17.jpg,AFSA19.jpg,AFSA01.jpg,AFNE02.jpg,AFSA19.jpg,FS,4,num_6,16,num_6,0.618355052313,,,2018_Mar_05_1352,60.0120686516,MAFE4ImagesEEG,001,203231,
AFNE01.JPG,AFNE01.JPG,AFNE01.JPG,AFNE01.JPG,AFNE01.JPG,AFNE01.JPG,,,,,,,,,,,,,1,7,17,3,,,,,,,,,,,AFNE01.jpg,AFSA16.jpg,AFNE15.jpg,AFSA12.jpg,AFSA16.jpg,FS,4,num_6,32,num_8,0.783498048782,,,2018_Mar_05_1352,60.0120686516,MAFE4ImagesEEG,001,203231,
AFNE01.JPG,AFNE01.JPG,AFNE01.JPG,AFNE01.JPG,AFNE01.JPG,AFNE01.JPG,,,,,,,,,,,,,1,8,18,7,,,,,,,,,,,AFNE18.jpg,AFSA14.jpg,AFNE16.jpg,AFSA16.jpg,AFSA16.jpg,FS,4,num_4,16,num_4,0.516870384105,,,2018_Mar_05_1352,60.0120686516,MAFE4ImagesEEG,001,203231,
AFNE01.JPG,AFNE01.JPG,AFNE01.JPG,AFNE01.JPG,AFNE01.JPG,AFNE01.JPG,,,,,,,,,,,,,1,9,19,8,,,,,,,,,,,AFNE14.jpg,AFSA14.jpg,AFSA13.jpg,AFNE12.jpg,AFNE14.jpg,FN,3,num_8,16,num_8,0.766630070284,,,2018_Mar_05_1352,60.0120686516,MAFE4ImagesEEG,001,203231,
AFNE01.JPG,AFNE01.JPG,AFNE01.JPG,AFNE01.JPG,AFNE01.JPG,AFNE01.JPG,,,,,,,,,,,,,2,0,20,9,,,,,,,,,,,AFNE16.jpg,AFNE01.jpg,AFSA14.jpg,AFSA03.jpg,AFSA03.jpg,FS,4,num_4,16,num_4,0.433502972126,,,2018_Mar_05_1352,60.0120686516,MAFE4ImagesEEG,001,203231,
AFNE01.JPG,AFNE01.JPG,AFNE01.JPG,AFNE01.JPG,AFNE01.JPG,AFNE01.JPG,,,,,,,,,,,,,2,1,21,7,,,,,,,,,,,AFNE10.jpg,AFSA15.jpg,AFNE02.jpg,AFSA09.jpg,AFNE10.jpg,FN,3,num_8,16,num_8,0.650186461629,,,2018_Mar_05_1352,60.0120686516,MAFE4ImagesEEG,001,203231,
AFNE01.JPG,AFNE01.JPG,AFNE01.JPG,AFNE01.JPG,AFNE01.JPG,AFNE01.JPG,,,,,,,,,,,,,2,2,22,2,,,,,,,,,,,AFNE02.jpg,AFSA14.jpg,AFNE09.jpg,AFSA09.jpg,AFSA14.jpg,FS,4,num_6,32,num_4,0.850149833132,,,2018_Mar_05_1352,60.0120686516,MAFE4ImagesEEG,001,203231,
AFNE01.JPG,AFNE01.JPG,AFNE01.JPG,AFNE01.JPG,AFNE01.JPG,AFNE01.JPG,,,,,,,,,,,,,2,3,23,3,,,,,,,,,,,AFSA04.jpg,AFNE05.jpg,AFSA15.jpg,AFNE18.jpg,AFSA15.jpg,FS,4,num_2,16,num_2,0.566795635736,,,2018_Mar_05_1352,60.0120686516,MAFE4ImagesEEG,001,203231,
AFNE01.JPG,AFNE01.JPG,AFNE01.JPG,AFNE01.JPG,AFNE01.JPG,AFNE01.JPG,,,,,,,,,,,,,2,4,24,1,,,,,,,,,,,AFNE09.jpg,AFNE05.jpg,AFSA10.jpg,AFSA05.jpg,AFSA05.jpg,FS,4,num_4,16,num_4,0.400140034501,,,2018_Mar_05_1352,60.0120686516,MAFE4ImagesEEG,001,203231,
AFNE01.JPG,AFNE01.JPG,AFNE01.JPG,AFNE01.JPG,AFNE01.JPG,AFNE01.JPG,,,,,,,,,,,,,2,5,25,8,,,,,,,,,,,AFSA01.jpg,AFNE19.jpg,AFNE11.jpg,AFSA13.jpg,AFNE19.jpg,FN,3,num_6,16,num_6,0.666791113326,,,2018_Mar_05_1352,60.0120686516,MAFE4ImagesEEG,001,203231,
AFNE01.JPG,AFNE01.JPG,AFNE01.JPG,AFNE01.JPG,AFNE01.JPG,AFNE01.JPG,,,,,,,,,,,,,2,6,26,6,,,,,,,,,,,AFNE17.jpg,AFSA04.jpg,AFNE09.jpg,AFSA12.jpg,AFNE17.jpg,FN,3,num_8,32,num_2,0.950107463403,,,2018_Mar_05_1352,60.0120686516,MAFE4ImagesEEG,001,203231,
AFNE01.JPG,AFNE01.JPG,AFNE01.JPG,AFNE01.JPG,AFNE01.JPG,AFNE01.JPG,,,,,,,,,,,,,2,7,27,0,,,,,,,,,,,AFSA05.jpg,AFNE17.jpg,AFNE10.jpg,AFSA14.jpg,AFNE10.jpg,FN,3,num_2,16,num_2,0.650151180336,,,2018_Mar_05_1352,60.0120686516,MAFE4ImagesEEG,001,203231,
AFNE01.JPG,AFNE01.JPG,AFNE01.JPG,AFNE01.JPG,AFNE01.JPG,AFNE01.JPG,,,,,,,,,,,,,2,8,28,4,,,,,,,,,,,AFSA17.jpg,AFSA08.jpg,AFNE17.jpg,AFNE13.jpg,AFSA17.jpg,FS,4,num_8,16,num_8,0.516910797218,,,2018_Mar_05_1352,60.0120686516,MAFE4ImagesEEG,001,203231,
AFNE01.JPG,AFNE01.JPG,AFNE01.JPG,AFNE01.JPG,AFNE01.JPG,AFNE01.JPG,,,,,,,,,,,,,2,9,29,5,,,,,,,,,,,AFSA14.jpg,AFNE14.jpg,AFNE01.jpg,AFSA10.jpg,AFNE14.jpg,FN,3,num_6,16,num_6,0.583534677047,,,2018_Mar_05_1352,60.0120686516,MAFE4ImagesEEG,001,203231,
AFNE01.JPG,AFNE01.JPG,AFNE01.JPG,AFNE01.JPG,AFNE01.JPG,AFNE01.JPG,,,,,,,,,,,,,3,0,30,4,,,,,,,,,,,AFSA14.jpg,AFSA12.jpg,AFNE19.jpg,AFNE11.jpg,AFSA12.jpg,FS,4,num_6,16,num_6,0.466765197692,,,2018_Mar_05_1352,60.0120686516,MAFE4ImagesEEG,001,203231,
AFNE01.JPG,AFNE01.JPG,AFNE01.JPG,AFNE01.JPG,AFNE01.JPG,AFNE01.JPG,,,,,,,,,,,,,3,1,31,3,,,,,,,,,,,AFNE12.jpg,AFNE16.jpg,AFSA18.jpg,AFSA19.jpg,AFNE12.jpg,FN,3,num_8,16,num_8,0.483525087126,,,2018_Mar_05_1352,60.0120686516,MAFE4ImagesEEG,001,203231,
AFNE01.JPG,AFNE01.JPG,AFNE01.JPG,AFNE01.JPG,AFNE01.JPG,AFNE01.JPG,,,,,,,,,,,,,3,2,32,1,,,,,,,,,,,AFNE19.jpg,AFSA18.jpg,AFSA06.jpg,AFNE12.jpg,AFNE19.jpg,FN,3,num_8,16,num_8,0.883456641342,,,2018_Mar_05_1352,60.0120686516,MAFE4ImagesEEG,001,203231,
AFNE01.JPG,AFNE01.JPG,AFNE01.JPG,AFNE01.JPG,AFNE01.JPG,AFNE01.JPG,,,,,,,,,,,,,3,3,33,7,,,,,,,,,,,AFNE12.jpg,AFSA10.jpg,AFNE20.jpg,AFSA16.jpg,AFSA10.jpg,FS,4,num_6,16,num_6,0.666757435771,,,2018_Mar_05_1352,60.0120686516,MAFE4ImagesEEG,001,203231,
AFNE01.JPG,AFNE01.JPG,AFNE01.JPG,AFNE01.JPG,AFNE01.JPG,AFNE01.JPG,,,,,,,,,,,,,3,4,34,6,,,,,,,,,,,AFSA16.jpg,AFNE09.jpg,AFNE04.jpg,AFSA09.jpg,AFSA09.jpg,FS,4,num_4,32,num_8,0.650130973896,,,2018_Mar_05_1352,60.0120686516,MAFE4ImagesEEG,001,203231,
AFNE01.JPG,AFNE01.JPG,AFNE01.JPG,AFNE01.JPG,AFNE01.JPG,AFNE01.JPG,,,,,,,,,,,,,3,5,35,0,,,,,,,,,,,AFSA20.jpg,AFNE09.jpg,AFNE18.jpg,AFSA05.jpg,AFSA05.jpg,FS,4,num_4,32,num_8,0.583472453756,,,2018_Mar_05_1352,60.0120686516,MAFE4ImagesEEG,001,203231,
AFNE01.JPG,AFNE01.JPG,AFNE01.JPG,AFNE01.JPG,AFNE01.JPG,AFNE01.JPG,,,,,,,,,,,,,3,6,36,2,,,,,,,,,,,AFSA09.jpg,AFSA11.jpg,AFNE13.jpg,AFNE20.jpg,AFNE20.jpg,FN,3,num_4,16,num_4,0.783558026887,,,2018_Mar_05_1352,60.0120686516,MAFE4ImagesEEG,001,203231,
AFNE01.JPG,AFNE01.JPG,AFNE01.JPG,AFNE01.JPG,AFNE01.JPG,AFNE01.JPG,,,,,,,,,,,,,3,7,37,9,,,,,,,,,,,AFNE18.jpg,AFSA06.jpg,AFSA18.jpg,AFNE17.jpg,AFSA18.jpg,FS,4,num_2,16,num_2,1.01678490709,,,2018_Mar_05_1352,60.0120686516,MAFE4ImagesEEG,001,203231,
AFNE01.JPG,AFNE01.JPG,AFNE01.JPG,AFNE01.JPG,AFNE01.JPG,AFNE01.JPG,,,,,,,,,,,,,3,8,38,5,,,,,,,,,,,AFSA12.jpg,AFNE04.jpg,AFNE05.jpg,AFSA02.jpg,AFNE05.jpg,FN,3,num_2,32,num_6,0.816804536385,,,2018_Mar_05_1352,60.0120686516,MAFE4ImagesEEG,001,203231,
AFNE01.JPG,AFNE01.JPG,AFNE01.JPG,AFNE01.JPG,AFNE01.JPG,AFNE01.JPG,,,,,,,,,,,,,3,9,39,8,,,,,,,,,,,AFNE13.jpg,AFSA20.jpg,AFNE16.jpg,AFSA04.jpg,AFSA04.jpg,FS,4,num_4,32,num_6,1.16675695474,,,2018_Mar_05_1352,60.0120686516,MAFE4ImagesEEG,001,203231,
AFNE01.JPG,AFNE01.JPG,AFNE01.JPG,AFNE01.JPG,AFNE01.JPG,AFNE01.JPG,,,,,,,,,,,,,4,0,40,1,,,,,,,,,,,AFSA20.jpg,AFNE13.jpg,AFSA03.jpg,AFNE11.jpg,AFNE13.jpg,FN,3,num_6,32,num_8,0.533493317897,,,2018_Mar_05_1352,60.0120686516,MAFE4ImagesEEG,001,203231,
AFNE01.JPG,AFNE01.JPG,AFNE01.JPG,AFNE01.JPG,AFNE01.JPG,AFNE01.JPG,,,,,,,,,,,,,4,1,41,0,,,,,,,,,,,AFNE11.jpg,AFNE20.jpg,AFSA14.jpg,AFSA18.jpg,AFNE20.jpg,FN,3,num_6,16,num_6,0.600136121502,,,2018_Mar_05_1352,60.0120686516,MAFE4ImagesEEG,001,203231,
AFNE01.JPG,AFNE01.JPG,AFNE01.JPG,AFNE01.JPG,AFNE01.JPG,AFNE01.JPG,,,,,,,,,,,,,4,2,42,8,,,,,,,,,,,AFNE17.jpg,AFNE16.jpg,AFSA08.jpg,AFSA03.jpg,AFSA08.jpg,FS,4,num_2,32,num_4,0.600161139155,,,2018_Mar_05_1352,60.0120686516,MAFE4ImagesEEG,001,203231,
AFNE01.JPG,AFNE01.JPG,AFNE01.JPG,AFNE01.JPG,AFNE01.JPG,AFNE01.JPG,,,,,,,,,,,,,4,3,43,2,,,,,,,,,,,AFNE20.jpg,AFNE14.jpg,AFSA09.jpg,AFSA02.jpg,AFNE14.jpg,FN,3,num_6,32,num_8,0.616767073981,,,2018_Mar_05_1352,60.0120686516,MAFE4ImagesEEG,001,203231,
AFNE01.JPG,AFNE01.JPG,AFNE01.JPG,AFNE01.JPG,AFNE01.JPG,AFNE01.JPG,,,,,,,,,,,,,4,4,44,4,,,,,,,,,,,AFSA02.jpg,AFNE19.jpg,AFNE12.jpg,AFSA15.jpg,AFNE19.jpg,FN,3,num_6,16,num_6,0.566775108455,,,2018_Mar_05_1352,60.0120686516,MAFE4ImagesEEG,001,203231,
AFNE01.JPG,AFNE01.JPG,AFNE01.JPG,AFNE01.JPG,AFNE01.JPG,AFNE01.JPG,,,,,,,,,,,,,4,5,45,6,,,,,,,,,,,AFNE07.jpg,AFSA16.jpg,AFNE04.jpg,AFSA11.jpg,AFSA11.jpg,FS,4,num_4,16,num_4,0.566792428493,,,2018_Mar_05_1352,60.0120686516,MAFE4ImagesEEG,001,203231,
AFNE01.JPG,AFNE01.JPG,AFNE01.JPG,AFNE01.JPG,AFNE01.JPG,AFNE01.JPG,,,,,,,,,,,,,4,6,46,5,,,,,,,,,,,AFNE02.jpg,AFSA02.jpg,AFNE03.jpg,AFSA09.jpg,AFNE03.jpg,FN,3,num_2,16,num_2,0.683493590681,,,2018_Mar_05_1352,60.0120686516,MAFE4ImagesEEG,001,203231,
AFNE01.JPG,AFNE01.JPG,AFNE01.JPG,AFNE01.JPG,AFNE01.JPG,AFNE01.JPG,,,,,,,,,,,,,4,7,47,9,,,,,,,,,,,AFNE12.jpg,AFNE04.jpg,AFSA10.jpg,AFSA19.jpg,AFNE04.jpg,FN,3,num_6,16,num_6,0.566822257126,,,2018_Mar_05_1352,60.0120686516,MAFE4ImagesEEG,001,203231,
AFNE01.JPG,AFNE01.JPG,AFNE01.JPG,AFNE01.JPG,AFNE01.JPG,AFNE01.JPG,,,,,,,,,,,,,4,8,48,3,,,,,,,,,,,AFNE12.jpg,AFNE01.jpg,AFSA11.jpg,AFSA07.jpg,AFSA07.jpg,FS,4,num_4,16,num_4,0.650120710023,,,2018_Mar_05_1352,60.0120686516,MAFE4ImagesEEG,001,203231,
AFNE01.JPG,AFNE01.JPG,AFNE01.JPG,AFNE01.JPG,AFNE01.JPG,AFNE01.JPG,,,,,,,,,,,,,4,9,49,7,,,,,,,,,,,AFNE16.jpg,AFNE10.jpg,AFSA13.jpg,AFSA03.jpg,AFSA13.jpg,FS,4,num_2,16,num_2,0.750137035735,,,2018_Mar_05_1352,60.0120686516,MAFE4ImagesEEG,001,203231,
AFNE01.JPG,AFNE01.JPG,AFNE01.JPG,AFNE01.JPG,AFNE01.JPG,AFNE01.JPG,,,,,,,,,,,,,5,0,50,1,,,,,,,,,,,AFNE07.jpg,AFSA17.jpg,AFNE18.jpg,AFSA06.jpg,AFNE07.jpg,FN,3,num_8,16,num_8,0.616759696975,,,2018_Mar_05_1352,60.0120686516,MAFE4ImagesEEG,001,203231,
AFNE01.JPG,AFNE01.JPG,AFNE01.JPG,AFNE01.JPG,AFNE01.JPG,AFNE01.JPG,,,,,,,,,,,,,5,1,51,2,,,,,,,,,,,AFSA06.jpg,AFNE10.jpg,AFNE05.jpg,AFSA17.jpg,AFSA06.jpg,FS,4,num_8,16,num_8,0.583463473013,,,2018_Mar_05_1352,60.0120686516,MAFE4ImagesEEG,001,203231,
AFNE01.JPG,AFNE01.JPG,AFNE01.JPG,AFNE01.JPG,AFNE01.JPG,AFNE01.JPG,,,,,,,,,,,,,5,2,52,9,,,,,,,,,,,AFNE09.jpg,AFSA10.jpg,AFNE05.jpg,AFSA12.jpg,AFNE09.jpg,FN,3,num_8,16,num_8,0.650181329576,,,2018_Mar_05_1352,60.0120686516,MAFE4ImagesEEG,001,203231,
AFNE01.JPG,AFNE01.JPG,AFNE01.JPG,AFNE01.JPG,AFNE01.JPG,AFNE01.JPG,,,,,,,,,,,,,5,3,53,0,,,,,,,,,,,AFNE01.jpg,AFNE14.jpg,AFSA05.jpg,AFSA15.jpg,AFSA15.jpg,FS,4,num_4,16,num_4,0.633478211006,,,2018_Mar_05_1352,60.0120686516,MAFE4ImagesEEG,001,203231,
AFNE01.JPG,AFNE01.JPG,AFNE01.JPG,AFNE01.JPG,AFNE01.JPG,AFNE01.JPG,,,,,,,,,,,,,5,4,54,6,,,,,,,,,,,AFNE09.jpg,AFSA16.jpg,AFNE15.jpg,AFSA02.jpg,AFSA02.jpg,FS,4,num_4,32,num_6,0.583483679686,,,2018_Mar_05_1352,60.0120686516,MAFE4ImagesEEG,001,203231,
AFNE01.JPG,AFNE01.JPG,AFNE01.JPG,AFNE01.JPG,AFNE01.JPG,AFNE01.JPG,,,,,,,,,,,,,5,5,55,3,,,,,,,,,,,AFSA03.jpg,AFSA11.jpg,AFNE02.jpg,AFNE16.jpg,AFSA11.jpg,FS,4,num_6,16,num_6,0.533527957508,,,2018_Mar_05_1352,60.0120686516,MAFE4ImagesEEG,001,203231,
AFNE01.JPG,AFNE01.JPG,AFNE01.JPG,AFNE01.JPG,AFNE01.JPG,AFNE01.JPG,,,,,,,,,,,,,5,6,56,8,,,,,,,,,,,AFNE19.jpg,AFSA16.jpg,AFNE10.jpg,AFSA04.jpg,AFSA04.jpg,FS,4,num_4,16,num_4,0.600145422854,,,2018_Mar_05_1352,60.0120686516,MAFE4ImagesEEG,001,203231,
AFNE01.JPG,AFNE01.JPG,AFNE01.JPG,AFNE01.JPG,AFNE01.JPG,AFNE01.JPG,,,,,,,,,,,,,5,7,57,7,,,,,,,,,,,AFSA15.jpg,AFNE16.jpg,AFSA04.jpg,AFNE19.jpg,AFSA15.jpg,FS,4,num_8,32,num_6,0.733454444446,,,2018_Mar_05_1352,60.0120686516,MAFE4ImagesEEG,001,203231,
AFNE01.JPG,AFNE01.JPG,AFNE01.JPG,AFNE01.JPG,AFNE01.JPG,AFNE01.JPG,,,,,,,,,,,,,5,8,58,5,,,,,,,,,,,AFSA08.jpg,AFNE14.jpg,AFSA15.jpg,AFNE01.jpg,AFNE01.jpg,FN,3,num_4,32,num_6,0.950119651621,,,2018_Mar_05_1352,60.0120686516,MAFE4ImagesEEG,001,203231,
AFNE01.JPG,AFNE01.JPG,AFNE01.JPG,AFNE01.JPG,AFNE01.JPG,AFNE01.JPG,,,,,,,,,,,,,5,9,59,4,,,,,,,,,,,AFSA04.jpg,AFSA18.jpg,AFNE15.jpg,AFNE12.jpg,AFNE12.jpg,FN,3,num_4,16,num_4,0.55015987251,,,2018_Mar_05_1352,60.0120686516,MAFE4ImagesEEG,001,203231,
,,,,,,,,,,,,,,,,,,,,,,,,,,,,,,,,,,,,,,,,,,,space,2.41660612728,2018_Mar_05_1352,60.0120686516,MAFE4ImagesEEG,001,203231,
AFNE01.JPG,AFNE01.JPG,AFNE01.JPG,AFNE01.JPG,AFNE01.JPG,AFNE01.JPG,,,,,,,,,,,,,,,,,0,0,0,3,,,,,,,AMNE01.jpg,AMSA06.jpg,AMSA09.jpg,AMNE04.jpg,AMNE04.jpg,MN,1,num_4,16,num_4,0.633454476483,,,2018_Mar_05_1352,60.0120686516,MAFE4ImagesEEG,001,203231,
AFNE01.JPG,AFNE01.JPG,AFNE01.JPG,AFNE01.JPG,AFNE01.JPG,AFNE01.JPG,,,,,,,,,,,,,,,,,0,1,1,9,,,,,,,AMSA07.jpg,AMNE10.jpg,AMSA15.jpg,AMNE14.jpg,AMNE10.jpg,MN,1,num_6,16,num_6,0.683467610506,,,2018_Mar_05_1352,60.0120686516,MAFE4ImagesEEG,001,203231,
AFNE01.JPG,AFNE01.JPG,AFNE01.JPG,AFNE01.JPG,AFNE01.JPG,AFNE01.JPG,,,,,,,,,,,,,,,,,0,2,2,5,,,,,,,AMNE13.jpg,AMSA14.jpg,AMNE20.jpg,AMSA11.jpg,AMNE13.jpg,MN,1,num_8,16,num_8,0.616762263002,,,2018_Mar_05_1352,60.0120686516,MAFE4ImagesEEG,001,203231,
AFNE01.JPG,AFNE01.JPG,AFNE01.JPG,AFNE01.JPG,AFNE01.JPG,AFNE01.JPG,,,,,,,,,,,,,,,,,0,3,3,2,,,,,,,AMNE19.jpg,AMSA08.jpg,AMNE06.jpg,AMSA18.jpg,AMSA18.jpg,MS,2,num_4,16,num_4,0.733465990983,,,2018_Mar_05_1352,60.0120686516,MAFE4ImagesEEG,001,203231,
AFNE01.JPG,AFNE01.JPG,AFNE01.JPG,AFNE01.JPG,AFNE01.JPG,AFNE01.JPG,,,,,,,,,,,,,,,,,0,4,4,4,,,,,,,AMSA12.jpg,AMNE06.jpg,AMSA18.jpg,AMNE05.jpg,AMNE05.jpg,MN,1,num_4,16,num_4,0.633620298468,,,2018_Mar_05_1352,60.0120686516,MAFE4ImagesEEG,001,203231,
AFNE01.JPG,AFNE01.JPG,AFNE01.JPG,AFNE01.JPG,AFNE01.JPG,AFNE01.JPG,,,,,,,,,,,,,,,,,0,5,5,0,,,,,,,AMSA14.jpg,AMSA19.jpg,AMNE19.jpg,AMNE10.jpg,AMSA14.jpg,MS,2,num_8,16,num_8,0.766812891467,,,2018_Mar_05_1352,60.0120686516,MAFE4ImagesEEG,001,203231,
AFNE01.JPG,AFNE01.JPG,AFNE01.JPG,AFNE01.JPG,AFNE01.JPG,AFNE01.JPG,,,,,,,,,,,,,,,,,0,6,6,6,,,,,,,AMSA11.jpg,AMNE15.jpg,AMSA07.jpg,AMNE07.jpg,AMNE07.jpg,MN,1,num_4,32,num_6,0.65018036752,,,2018_Mar_05_1352,60.0120686516,MAFE4ImagesEEG,001,203231,
AFNE01.JPG,AFNE01.JPG,AFNE01.JPG,AFNE01.JPG,AFNE01.JPG,AFNE01.JPG,,,,,,,,,,,,,,,,,0,7,7,8,,,,,,,AMNE19.jpg,AMNE11.jpg,AMSA20.jpg,AMSA11.jpg,AMSA11.jpg,MS,2,num_4,32,num_2,0.733496461064,,,2018_Mar_05_1352,60.0120686516,MAFE4ImagesEEG,001,203231,
AFNE01.JPG,AFNE01.JPG,AFNE01.JPG,AFNE01.JPG,AFNE01.JPG,AFNE01.JPG,,,,,,,,,,,,,,,,,0,8,8,7,,,,,,,AMNE07.jpg,AMNE05.jpg,AMSA20.jpg,AMSA06.jpg,AMNE05.jpg,MN,1,num_6,16,num_6,0.76675868663,,,2018_Mar_05_1352,60.0120686516,MAFE4ImagesEEG,001,203231,
AFNE01.JPG,AFNE01.JPG,AFNE01.JPG,AFNE01.JPG,AFNE01.JPG,AFNE01.JPG,,,,,,,,,,,,,,,,,0,9,9,1,,,,,,,AMNE01.jpg,AMSA12.jpg,AMNE06.jpg,AMSA04.jpg,AMNE06.jpg,MN,1,num_2,16,num_2,0.816818007268,,,2018_Mar_05_1352,60.0120686516,MAFE4ImagesEEG,001,203231,
AFNE01.JPG,AFNE01.JPG,AFNE01.JPG,AFNE01.JPG,AFNE01.JPG,AFNE01.JPG,,,,,,,,,,,,,,,,,1,0,10,0,,,,,,,AMSA14.jpg,AMNE05.jpg,AMSA10.jpg,AMNE17.jpg,AMSA14.jpg,MS,2,num_8,16,num_8,0.566817446146,,,2018_Mar_05_1352,60.0120686516,MAFE4ImagesEEG,001,203231,
AFNE01.JPG,AFNE01.JPG,AFNE01.JPG,AFNE01.JPG,AFNE01.JPG,AFNE01.JPG,,,,,,,,,,,,,,,,,1,1,11,2,,,,,,,AMNE08.jpg,AMNE02.jpg,AMSA01.jpg,AMSA20.jpg,AMNE02.jpg,MN,1,num_6,16,num_6,0.767031635391,,,2018_Mar_05_1352,60.0120686516,MAFE4ImagesEEG,001,203231,
AFNE01.JPG,AFNE01.JPG,AFNE01.JPG,AFNE01.JPG,AFNE01.JPG,AFNE01.JPG,,,,,,,,,,,,,,,,,1,2,12,7,,,,,,,AMSA14.jpg,AMNE12.jpg,AMNE07.jpg,AMSA07.jpg,AMSA14.jpg,MS,2,num_8,16,num_8,0.566811031196,,,2018_Mar_05_1352,60.0120686516,MAFE4ImagesEEG,001,203231,
AFNE01.JPG,AFNE01.JPG,AFNE01.JPG,AFNE01.JPG,AFNE01.JPG,AFNE01.JPG,,,,,,,,,,,,,,,,,1,3,13,4,,,,,,,AMSA13.jpg,AMSA02.jpg,AMNE18.jpg,AMNE13.jpg,AMNE13.jpg,MN,1,num_4,32,num_2,1.06678617396,,,2018_Mar_05_1352,60.0120686516,MAFE4ImagesEEG,001,203231,
AFNE01.JPG,AFNE01.JPG,AFNE01.JPG,AFNE01.JPG,AFNE01.JPG,AFNE01.JPG,,,,,,,,,,,,,,,,,1,4,14,1,,,,,,,AMSA12.jpg,AMSA05.jpg,AMNE18.jpg,AMNE11.jpg,AMNE18.jpg,MN,1,num_2,32,num_4,0.750109452289,,,2018_Mar_05_1352,60.0120686516,MAFE4ImagesEEG,001,203231,
AFNE01.JPG,AFNE01.JPG,AFNE01.JPG,AFNE01.JPG,AFNE01.JPG,AFNE01.JPG,,,,,,,,,,,,,,,,,1,5,15,6,,,,,,,AMSA20.jpg,AMNE06.jpg,AMNE15.jpg,AMSA01.jpg,AMSA20.jpg,MS,2,num_8,16,num_8,0.616785676917,,,2018_Mar_05_1352,60.0120686516,MAFE4ImagesEEG,001,203231,
AFNE01.JPG,AFNE01.JPG,AFNE01.JPG,AFNE01.JPG,AFNE01.JPG,AFNE01.JPG,,,,,,,,,,,,,,,,,1,6,16,9,,,,,,,AMSA07.jpg,AMSA05.jpg,AMNE11.jpg,AMNE01.jpg,AMSA07.jpg,MS,2,num_8,16,num_8,0.516767426627,,,2018_Mar_05_1352,60.0120686516,MAFE4ImagesEEG,001,203231,
AFNE01.JPG,AFNE01.JPG,AFNE01.JPG,AFNE01.JPG,AFNE01.JPG,AFNE01.JPG,,,,,,,,,,,,,,,,,1,7,17,3,,,,,,,AMSA14.jpg,AMNE02.jpg,AMSA09.jpg,AMNE04.jpg,AMSA14.jpg,MS,2,num_8,16,num_8,0.783427807037,,,2018_Mar_05_1352,60.0120686516,MAFE4ImagesEEG,001,203231,
AFNE01.JPG,AFNE01.JPG,AFNE01.JPG,AFNE01.JPG,AFNE01.JPG,AFNE01.JPG,,,,,,,,,,,,,,,,,1,8,18,5,,,,,,,AMSA05.jpg,AMNE16.jpg,AMSA11.jpg,AMNE04.jpg,AMSA11.jpg,MS,2,num_2,32,num_8,0.550067499513,,,2018_Mar_05_1352,60.0120686516,MAFE4ImagesEEG,001,203231,
AFNE01.JPG,AFNE01.JPG,AFNE01.JPG,AFNE01.JPG,AFNE01.JPG,AFNE01.JPG,,,,,,,,,,,,,,,,,1,9,19,8,,,,,,,AMNE11.jpg,AMSA10.jpg,AMSA07.jpg,AMNE06.jpg,AMNE06.jpg,MN,1,num_4,16,num_4,0.850118079921,,,2018_Mar_05_1352,60.0120686516,MAFE4ImagesEEG,001,203231,
AFNE01.JPG,AFNE01.JPG,AFNE01.JPG,AFNE01.JPG,AFNE01.JPG,AFNE01.JPG,,,,,,,,,,,,,,,,,2,0,20,7,,,,,,,AMNE09.jpg,AMSA04.jpg,AMNE06.jpg,AMSA01.jpg,AMNE09.jpg,MN,1,num_8,16,num_8,0.633470192784,,,2018_Mar_05_1352,60.0120686516,MAFE4ImagesEEG,001,203231,
AFNE01.JPG,AFNE01.JPG,AFNE01.JPG,AFNE01.JPG,AFNE01.JPG,AFNE01.JPG,,,,,,,,,,,,,,,,,2,1,21,9,,,,,,,AMSA07.jpg,AMSA20.jpg,AMNE06.jpg,AMNE16.jpg,AMNE06.jpg,MN,1,num_2,32,num_4,0.766782741994,,,2018_Mar_05_1352,60.0120686516,MAFE4ImagesEEG,001,203231,
AFNE01.JPG,AFNE01.JPG,AFNE01.JPG,AFNE01.JPG,AFNE01.JPG,AFNE01.JPG,,,,,,,,,,,,,,,,,2,2,22,5,,,,,,,AMNE02.jpg,AMSA03.jpg,AMSA11.jpg,AMNE19.jpg,AMNE02.jpg,MN,1,num_8,16,num_8,0.850000689505,,,2018_Mar_05_1352,60.0120686516,MAFE4ImagesEEG,001,203231,
AFNE01.JPG,AFNE01.JPG,AFNE01.JPG,AFNE01.JPG,AFNE01.JPG,AFNE01.JPG,,,,,,,,,,,,,,,,,2,3,23,3,,,,,,,AMNE18.jpg,AMSA10.jpg,AMNE14.jpg,AMSA15.jpg,AMNE14.jpg,MN,1,num_2,16,num_2,0.716787248617,,,2018_Mar_05_1352,60.0120686516,MAFE4ImagesEEG,001,203231,
AFNE01.JPG,AFNE01.JPG,AFNE01.JPG,AFNE01.JPG,AFNE01.JPG,AFNE01.JPG,,,,,,,,,,,,,,,,,2,4,24,6,,,,,,,AMSA03.jpg,AMNE09.jpg,AMSA05.jpg,AMNE07.jpg,AMSA03.jpg,MS,2,num_8,16,num_8,0.600073577603,,,2018_Mar_05_1352,60.0120686516,MAFE4ImagesEEG,001,203231,
AFNE01.JPG,AFNE01.JPG,AFNE01.JPG,AFNE01.JPG,AFNE01.JPG,AFNE01.JPG,,,,,,,,,,,,,,,,,2,5,25,2,,,,,,,AMSA13.jpg,AMSA15.jpg,AMNE03.jpg,AMNE05.jpg,AMNE05.jpg,MN,1,num_4,16,num_4,0.650154708419,,,2018_Mar_05_1352,60.0120686516,MAFE4ImagesEEG,001,203231,
AFNE01.JPG,AFNE01.JPG,AFNE01.JPG,AFNE01.JPG,AFNE01.JPG,AFNE01.JPG,,,,,,,,,,,,,,,,,2,6,26,0,,,,,,,AMNE06.jpg,AMSA09.jpg,AMSA19.jpg,AMNE19.jpg,AMNE19.jpg,MN,1,num_4,16,num_4,0.716823491966,,,2018_Mar_05_1352,60.0120686516,MAFE4ImagesEEG,001,203231,
AFNE01.JPG,AFNE01.JPG,AFNE01.JPG,AFNE01.JPG,AFNE01.JPG,AFNE01.JPG,,,,,,,,,,,,,,,,,2,7,27,8,,,,,,,AMSA17.jpg,AMNE15.jpg,AMNE20.jpg,AMSA11.jpg,AMNE15.jpg,MN,1,num_6,16,num_6,0.516764860833,,,2018_Mar_05_1352,60.0120686516,MAFE4ImagesEEG,001,203231,
AFNE01.JPG,AFNE01.JPG,AFNE01.JPG,AFNE01.JPG,AFNE01.JPG,AFNE01.JPG,,,,,,,,,,,,,,,,,2,8,28,1,,,,,,,AMNE16.jpg,AMNE17.jpg,AMSA14.jpg,AMSA11.jpg,AMNE17.jpg,MN,1,num_6,16,num_6,0.700136410305,,,2018_Mar_05_1352,60.0120686516,MAFE4ImagesEEG,001,203231,
AFNE01.JPG,AFNE01.JPG,AFNE01.JPG,AFNE01.JPG,AFNE01.JPG,AFNE01.JPG,,,,,,,,,,,,,,,,,2,9,29,4,,,,,,,AMSA02.jpg,AMNE12.jpg,AMNE05.jpg,AMSA06.jpg,AMSA02.jpg,MS,2,num_8,16,num_8,0.55011561024,,,2018_Mar_05_1352,60.0120686516,MAFE4ImagesEEG,001,203231,
AFNE01.JPG,AFNE01.JPG,AFNE01.JPG,AFNE01.JPG,AFNE01.JPG,AFNE01.JPG,,,,,,,,,,,,,,,,,3,0,30,7,,,,,,,AMNE03.jpg,AMSA10.jpg,AMNE05.jpg,AMSA08.jpg,AMNE05.jpg,MN,1,num_2,32,num_8,0.866784634534,,,2018_Mar_05_1352,60.0120686516,MAFE4ImagesEEG,001,203231,
AFNE01.JPG,AFNE01.JPG,AFNE01.JPG,AFNE01.JPG,AFNE01.JPG,AFNE01.JPG,,,,,,,,,,,,,,,,,3,1,31,3,,,,,,,AMNE09.jpg,AMNE07.jpg,AMSA09.jpg,AMSA18.jpg,AMNE07.jpg,MN,1,num_6,16,num_6,0.650147010572,,,2018_Mar_05_1352,60.0120686516,MAFE4ImagesEEG,001,203231,
AFNE01.JPG,AFNE01.JPG,AFNE01.JPG,AFNE01.JPG,AFNE01.JPG,AFNE01.JPG,,,,,,,,,,,,,,,,,3,2,32,9,,,,,,,AMSA03.jpg,AMSA18.jpg,AMNE09.jpg,AMNE07.jpg,AMNE07.jpg,MN,1,num_4,16,num_4,0.983286296949,,,2018_Mar_05_1352,60.0120686516,MAFE4ImagesEEG,001,203231,
AFNE01.JPG,AFNE01.JPG,AFNE01.JPG,AFNE01.JPG,AFNE01.JPG,AFNE01.JPG,,,,,,,,,,,,,,,,,3,3,33,8,,,,,,,AMNE16.jpg,AMSA03.jpg,AMNE12.jpg,AMSA11.jpg,AMSA11.jpg,MS,2,num_4,32,num_6,0.633480777033,,,2018_Mar_05_1352,60.0120686516,MAFE4ImagesEEG,001,203231,
AFNE01.JPG,AFNE01.JPG,AFNE01.JPG,AFNE01.JPG,AFNE01.JPG,AFNE01.JPG,,,,,,,,,,,,,,,,,3,4,34,6,,,,,,,AMSA19.jpg,AMNE16.jpg,AMSA18.jpg,AMNE18.jpg,AMNE18.jpg,MN,1,num_4,16,num_4,0.850094986847,,,2018_Mar_05_1352,60.0120686516,MAFE4ImagesEEG,001,203231,
AFNE01.JPG,AFNE01.JPG,AFNE01.JPG,AFNE01.JPG,AFNE01.JPG,AFNE01.JPG,,,,,,,,,,,,,,,,,3,5,35,0,,,,,,,AMNE20.jpg,AMSA10.jpg,AMNE01.jpg,AMSA02.jpg,AMNE01.jpg,MN,1,num_2,32,num_4,0.633490078617,,,2018_Mar_05_1352,60.0120686516,MAFE4ImagesEEG,001,203231,
AFNE01.JPG,AFNE01.JPG,AFNE01.JPG,AFNE01.JPG,AFNE01.JPG,AFNE01.JPG,,,,,,,,,,,,,,,,,3,6,36,5,,,,,,,AMSA03.jpg,AMSA08.jpg,AMNE05.jpg,AMNE10.jpg,AMSA03.jpg,MS,2,num_8,16,num_8,0.916694490705,,,2018_Mar_05_1352,60.0120686516,MAFE4ImagesEEG,001,203231,
AFNE01.JPG,AFNE01.JPG,AFNE01.JPG,AFNE01.JPG,AFNE01.JPG,AFNE01.JPG,,,,,,,,,,,,,,,,,3,7,37,2,,,,,,,AMNE04.jpg,AMNE10.jpg,AMSA14.jpg,AMSA10.jpg,AMNE04.jpg,MN,1,num_8,32,num_2,0.733482027892,,,2018_Mar_05_1352,60.0120686516,MAFE4ImagesEEG,001,203231,
AFNE01.JPG,AFNE01.JPG,AFNE01.JPG,AFNE01.JPG,AFNE01.JPG,AFNE01.JPG,,,,,,,,,,,,,,,,,3,8,38,1,,,,,,,AMSA12.jpg,AMNE08.jpg,AMNE14.jpg,AMSA16.jpg,AMSA16.jpg,MS,2,num_4,16,num_4,0.866763786413,,,2018_Mar_05_1352,60.0120686516,MAFE4ImagesEEG,001,203231,
AFNE01.JPG,AFNE01.JPG,AFNE01.JPG,AFNE01.JPG,AFNE01.JPG,AFNE01.JPG,,,,,,,,,,,,,,,,,3,9,39,4,,,,,,,AMNE15.jpg,AMSA15.jpg,AMNE06.jpg,AMSA16.jpg,AMSA15.jpg,MS,2,num_6,16,num_6,0.566811672645,,,2018_Mar_05_1352,60.0120686516,MAFE4ImagesEEG,001,203231,
AFNE01.JPG,AFNE01.JPG,AFNE01.JPG,AFNE01.JPG,AFNE01.JPG,AFNE01.JPG,,,,,,,,,,,,,,,,,4,0,40,9,,,,,,,AMSA13.jpg,AMSA17.jpg,AMNE12.jpg,AMNE04.jpg,AMSA17.jpg,MS,2,num_6,16,num_6,0.48350135237,,,2018_Mar_05_1352,60.0120686516,MAFE4ImagesEEG,001,203231,
AFNE01.JPG,AFNE01.JPG,AFNE01.JPG,AFNE01.JPG,AFNE01.JPG,AFNE01.JPG,,,,,,,,,,,,,,,,,4,1,41,1,,,,,,,AMSA03.jpg,AMNE05.jpg,AMSA11.jpg,AMNE08.jpg,AMNE05.jpg,MN,1,num_6,32,num_4,0.816781443078,,,2018_Mar_05_1352,60.0120686516,MAFE4ImagesEEG,001,203231,
AFNE01.JPG,AFNE01.JPG,AFNE01.JPG,AFNE01.JPG,AFNE01.JPG,AFNE01.JPG,,,,,,,,,,,,,,,,,4,2,42,0,,,,,,,AMSA02.jpg,AMNE06.jpg,AMNE03.jpg,AMSA19.jpg,AMNE06.jpg,MN,1,num_6,16,num_6,0.616741735721,,,2018_Mar_05_1352,60.0120686516,MAFE4ImagesEEG,001,203231,
AFNE01.JPG,AFNE01.JPG,AFNE01.JPG,AFNE01.JPG,AFNE01.JPG,AFNE01.JPG,,,,,,,,,,,,,,,,,4,3,43,4,,,,,,,AMSA10.jpg,AMNE07.jpg,AMNE18.jpg,AMSA11.jpg,AMNE18.jpg,MN,1,num_2,16,num_2,0.950207854854,,,2018_Mar_05_1352,60.0120686516,MAFE4ImagesEEG,001,203231,
AFNE01.JPG,AFNE01.JPG,AFNE01.JPG,AFNE01.JPG,AFNE01.JPG,AFNE01.JPG,,,,,,,,,,,,,,,,,4,4,44,6,,,,,,,AMNE07.jpg,AMNE03.jpg,AMSA01.jpg,AMSA13.jpg,AMSA01.jpg,MS,2,num_2,16,num_2,0.58349779225,,,2018_Mar_05_1352,60.0120686516,MAFE4ImagesEEG,001,203231,
AFNE01.JPG,AFNE01.JPG,AFNE01.JPG,AFNE01.JPG,AFNE01.JPG,AFNE01.JPG,,,,,,,,,,,,,,,,,4,5,45,2,,,,,,,AMNE10.jpg,AMSA14.jpg,AMSA17.jpg,AMNE14.jpg,AMNE10.jpg,MN,1,num_8,16,num_8,0.683433291502,,,2018_Mar_05_1352,60.0120686516,MAFE4ImagesEEG,001,203231,
AFNE01.JPG,AFNE01.JPG,AFNE01.JPG,AFNE01.JPG,AFNE01.JPG,AFNE01.JPG,,,,,,,,,,,,,,,,,4,6,46,8,,,,,,,AMSA13.jpg,AMNE11.jpg,AMNE09.jpg,AMSA11.jpg,AMNE11.jpg,MN,1,num_6,16,num_6,0.700147315394,,,2018_Mar_05_1352,60.0120686516,MAFE4ImagesEEG,001,203231,
AFNE01.JPG,AFNE01.JPG,AFNE01.JPG,AFNE01.JPG,AFNE01.JPG,AFNE01.JPG,,,,,,,,,,,,,,,,,4,7,47,3,,,,,,,AMSA10.jpg,AMNE19.jpg,AMSA20.jpg,AMNE17.jpg,AMSA10.jpg,MS,2,num_8,16,num_8,0.883455037838,,,2018_Mar_05_1352,60.0120686516,MAFE4ImagesEEG,001,203231,
AFNE01.JPG,AFNE01.JPG,AFNE01.JPG,AFNE01.JPG,AFNE01.JPG,AFNE01.JPG,,,,,,,,,,,,,,,,,4,8,48,5,,,,,,,AMNE15.jpg,AMSA15.jpg,AMNE14.jpg,AMSA17.jpg,AMSA15.jpg,MS,2,num_6,32,num_4,0.800137340557,,,2018_Mar_05_1352,60.0120686516,MAFE4ImagesEEG,001,203231,
AFNE01.JPG,AFNE01.JPG,AFNE01.JPG,AFNE01.JPG,AFNE01.JPG,AFNE01.JPG,,,,,,,,,,,,,,,,,4,9,49,7,,,,,,,AMSA09.jpg,AMNE14.jpg,AMNE10.jpg,AMSA10.jpg,AMSA10.jpg,MS,2,num_4,32,num_8,0.666789830429,,,2018_Mar_05_1352,60.0120686516,MAFE4ImagesEEG,001,203231,
AFNE01.JPG,AFNE01.JPG,AFNE01.JPG,AFNE01.JPG,AFNE01.JPG,AFNE01.JPG,,,,,,,,,,,,,,,,,5,0,50,7,,,,,,,AMSA11.jpg,AMSA14.jpg,AMNE03.jpg,AMNE18.jpg,AMNE18.jpg,MN,1,num_4,16,num_4,0.683508023852,,,2018_Mar_05_1352,60.0120686516,MAFE4ImagesEEG,001,203231,
AFNE01.JPG,AFNE01.JPG,AFNE01.JPG,AFNE01.JPG,AFNE01.JPG,AFNE01.JPG,,,,,,,,,,,,,,,,,5,1,51,1,,,,,,,AMSA06.jpg,AMSA07.jpg,AMNE19.jpg,AMNE03.jpg,AMSA06.jpg,MS,2,num_8,16,num_8,0.716781154508,,,2018_Mar_05_1352,60.0120686516,MAFE4ImagesEEG,001,203231,
AFNE01.JPG,AFNE01.JPG,AFNE01.JPG,AFNE01.JPG,AFNE01.JPG,AFNE01.JPG,,,,,,,,,,,,,,,,,5,2,52,8,,,,,,,AMSA01.jpg,AMSA15.jpg,AMNE14.jpg,AMNE01.jpg,AMSA15.jpg,MS,2,num_6,16,num_6,0.600188081153,,,2018_Mar_05_1352,60.0120686516,MAFE4ImagesEEG,001,203231,
AFNE01.JPG,AFNE01.JPG,AFNE01.JPG,AFNE01.JPG,AFNE01.JPG,AFNE01.JPG,,,,,,,,,,,,,,,,,5,3,53,5,,,,,,,AMSA12.jpg,AMSA10.jpg,AMNE11.jpg,AMNE05.jpg,AMNE11.jpg,MN,1,num_2,32,num_6,0.733493253589,,,2018_Mar_05_1352,60.0120686516,MAFE4ImagesEEG,001,203231,
AFNE01.JPG,AFNE01.JPG,AFNE01.JPG,AFNE01.JPG,AFNE01.JPG,AFNE01.JPG,,,,,,,,,,,,,,,,,5,4,54,4,,,,,,,AMSA16.jpg,AMNE02.jpg,AMNE06.jpg,AMSA08.jpg,AMSA08.jpg,MS,2,num_4,16,num_4,1.2167787489,,,2018_Mar_05_1352,60.0120686516,MAFE4ImagesEEG,001,203231,
AFNE01.JPG,AFNE01.JPG,AFNE01.JPG,AFNE01.JPG,AFNE01.JPG,AFNE01.JPG,,,,,,,,,,,,,,,,,5,5,55,2,,,,,,,AMSA19.jpg,AMSA04.jpg,AMNE16.jpg,AMNE17.jpg,AMSA19.jpg,MS,2,num_8,16,num_8,0.66681003687,,,2018_Mar_05_1352,60.0120686516,MAFE4ImagesEEG,001,203231,
AFNE01.JPG,AFNE01.JPG,AFNE01.JPG,AFNE01.JPG,AFNE01.JPG,AFNE01.JPG,,,,,,,,,,,,,,,,,5,6,56,6,,,,,,,AMSA16.jpg,AMSA11.jpg,AMNE04.jpg,AMNE03.jpg,AMSA11.jpg,MS,2,num_6,32,num_8,0.566764203366,,,2018_Mar_05_1352,60.0120686516,MAFE4ImagesEEG,001,203231,
AFNE01.JPG,AFNE01.JPG,AFNE01.JPG,AFNE01.JPG,AFNE01.JPG,AFNE01.JPG,,,,,,,,,,,,,,,,,5,7,57,3,,,,,,,AMNE18.jpg,AMNE15.jpg,AMSA15.jpg,AMSA05.jpg,AMNE18.jpg,MN,1,num_8,16,num_8,0.700002982747,,,2018_Mar_05_1352,60.0120686516,MAFE4ImagesEEG,001,203231,
AFNE01.JPG,AFNE01.JPG,AFNE01.JPG,AFNE01.JPG,AFNE01.JPG,AFNE01.JPG,,,,,,,,,,,,,,,,,5,8,58,9,,,,,,,AMNE14.jpg,AMNE12.jpg,AMSA07.jpg,AMSA11.jpg,AMSA07.jpg,MS,2,num_2,32,num_4,0.567086225376,,,2018_Mar_05_1352,60.0120686516,MAFE4ImagesEEG,001,203231,
AFNE01.JPG,AFNE01.JPG,AFNE01.JPG,AFNE01.JPG,AFNE01.JPG,AFNE01.JPG,,,,,,,,,,,,,,,,,5,9,59,0,,,,,,,AMNE02.jpg,AMSA09.jpg,AMNE08.jpg,AMSA11.jpg,AMNE08.jpg,MN,1,num_2,16,num_2,0.600162742892,,,2018_Mar_05_1352,60.0120686516,MAFE4ImagesEEG,001,203231,
,,,,,,,,,,,,,,,,,,,,,,,,,,,,,,,,,,,,,,,,,,,space,5.16625307384,2018_Mar_05_1352,60.0120686516,MAFE4ImagesEEG,001,203231,
AFNE01.JPG,AFNE01.JPG,AFNE01.JPG,AFNE01.JPG,AFNE01.JPG,AFNE01.JPG,,,,,,,,,,,,,,,,,,,,,0,0,0,1,,,AFSA15.jpg,AFSA04.jpg,AFNE06.jpg,AFNE18.jpg,AFNE18.jpg,FN,3,num_4,32,num_8,0.966750924708,,,2018_Mar_05_1352,60.0120686516,MAFE4ImagesEEG,001,203231,
AFNE01.JPG,AFNE01.JPG,AFNE01.JPG,AFNE01.JPG,AFNE01.JPG,AFNE01.JPG,,,,,,,,,,,,,,,,,,,,,0,1,1,5,,,AFNE15.jpg,AFSA11.jpg,AFSA17.jpg,AFNE02.jpg,AFSA11.jpg,FS,4,num_6,16,num_6,0.450200958876,,,2018_Mar_05_1352,60.0120686516,MAFE4ImagesEEG,001,203231,
AFNE01.JPG,AFNE01.JPG,AFNE01.JPG,AFNE01.JPG,AFNE01.JPG,AFNE01.JPG,,,,,,,,,,,,,,,,,,,,,0,2,2,9,,,AFSA07.jpg,AFNE13.jpg,AFNE07.jpg,AFSA18.jpg,AFNE13.jpg,FN,3,num_6,32,num_4,0.516765502281,,,2018_Mar_05_1352,60.0120686516,MAFE4ImagesEEG,001,203231,
AFNE01.JPG,AFNE01.JPG,AFNE01.JPG,AFNE01.JPG,AFNE01.JPG,AFNE01.JPG,,,,,,,,,,,,,,,,,,,,,0,3,3,6,,,AFNE06.jpg,AFSA13.jpg,AFSA05.jpg,AFNE04.jpg,AFNE06.jpg,FN,3,num_8,32,num_4,0.500181698706,,,2018_Mar_05_1352,60.0120686516,MAFE4ImagesEEG,001,203231,
AFNE01.JPG,AFNE01.JPG,AFNE01.JPG,AFNE01.JPG,AFNE01.JPG,AFNE01.JPG,,,,,,,,,,,,,,,,,,,,,0,4,4,4,,,AFNE05.jpg,AFSA10.jpg,AFSA14.jpg,AFNE14.jpg,AFNE14.jpg,FN,3,num_4,32,num_8,0.483507446479,,,2018_Mar_05_1352,60.0120686516,MAFE4ImagesEEG,001,203231,
AFNE01.JPG,AFNE01.JPG,AFNE01.JPG,AFNE01.JPG,AFNE01.JPG,AFNE01.JPG,,,,,,,,,,,,,,,,,,,,,0,5,5,7,,,AFNE08.jpg,AFNE17.jpg,AFSA11.jpg,AFSA13.jpg,AFNE08.jpg,FN,3,num_8,16,num_8,0.550175267737,,,2018_Mar_05_1352,60.0120686516,MAFE4ImagesEEG,001,203231,
AFNE01.JPG,AFNE01.JPG,AFNE01.JPG,AFNE01.JPG,AFNE01.JPG,AFNE01.JPG,,,,,,,,,,,,,,,,,,,,,0,6,6,8,,,AFSA17.jpg,AFSA07.jpg,AFNE13.jpg,AFNE12.jpg,AFSA17.jpg,FS,4,num_8,16,num_8,0.599894284504,,,2018_Mar_05_1352,60.0120686516,MAFE4ImagesEEG,001,203231,
AFNE01.JPG,AFNE01.JPG,AFNE01.JPG,AFNE01.JPG,AFNE01.JPG,AFNE01.JPG,,,,,,,,,,,,,,,,,,,,,0,7,7,2,,,AFNE19.jpg,AFSA18.jpg,AFSA09.jpg,AFNE07.jpg,AFSA09.jpg,FS,4,num_2,32,num_4,0.700136089465,,,2018_Mar_05_1352,60.0120686516,MAFE4ImagesEEG,001,203231,
AFNE01.JPG,AFNE01.JPG,AFNE01.JPG,AFNE01.JPG,AFNE01.JPG,AFNE01.JPG,,,,,,,,,,,,,,,,,,,,,0,8,8,0,,,AFSA13.jpg,AFNE12.jpg,AFNE19.jpg,AFSA01.jpg,AFSA01.jpg,FS,4,num_4,32,num_8,0.516769671813,,,2018_Mar_05_1352,60.0120686516,MAFE4ImagesEEG,001,203231,
AFNE01.JPG,AFNE01.JPG,AFNE01.JPG,AFNE01.JPG,AFNE01.JPG,AFNE01.JPG,,,,,,,,,,,,,,,,,,,,,0,9,9,3,,,AFSA11.jpg,AFSA14.jpg,AFNE15.jpg,AFNE11.jpg,AFNE11.jpg,FN,3,num_4,32,num_8,0.533457395155,,,2018_Mar_05_1352,60.0120686516,MAFE4ImagesEEG,001,203231,
AFNE01.JPG,AFNE01.JPG,AFNE01.JPG,AFNE01.JPG,AFNE01.JPG,AFNE01.JPG,,,,,,,,,,,,,,,,,,,,,1,0,10,6,,,AFSA19.jpg,AFNE15.jpg,AFNE18.jpg,AFSA04.jpg,AFNE15.jpg,FN,3,num_6,16,num_6,0.800161716528,,,2018_Mar_05_1352,60.0120686516,MAFE4ImagesEEG,001,203231,
AFNE01.JPG,AFNE01.JPG,AFNE01.JPG,AFNE01.JPG,AFNE01.JPG,AFNE01.JPG,,,,,,,,,,,,,,,,,,,,,1,1,11,3,,,AFNE06.jpg,AFSA17.jpg,AFNE12.jpg,AFSA14.jpg,AFNE12.jpg,FN,3,num_2,16,num_2,0.616761621553,,,2018_Mar_05_1352,60.0120686516,MAFE4ImagesEEG,001,203231,
AFNE01.JPG,AFNE01.JPG,AFNE01.JPG,AFNE01.JPG,AFNE01.JPG,AFNE01.JPG,,,,,,,,,,,,,,,,,,,,,1,2,12,5,,,AFNE14.jpg,AFSA04.jpg,AFNE07.jpg,AFSA19.jpg,AFSA04.jpg,FS,4,num_6,32,num_4,0.533485620283,,,2018_Mar_05_1352,60.0120686516,MAFE4ImagesEEG,001,203231,
AFNE01.JPG,AFNE01.JPG,AFNE01.JPG,AFNE01.JPG,AFNE01.JPG,AFNE01.JPG,,,,,,,,,,,,,,,,,,,,,1,3,13,7,,,AFSA19.jpg,AFSA16.jpg,AFNE14.jpg,AFNE19.jpg,AFSA19.jpg,FS,4,num_8,32,num_4,0.583453209605,,,2018_Mar_05_1352,60.0120686516,MAFE4ImagesEEG,001,203231,
AFNE01.JPG,AFNE01.JPG,AFNE01.JPG,AFNE01.JPG,AFNE01.JPG,AFNE01.JPG,,,,,,,,,,,,,,,,,,,,,1,4,14,4,,,AFNE13.jpg,AFNE08.jpg,AFSA15.jpg,AFSA17.jpg,AFNE08.jpg,FN,3,num_6,16,num_6,0.516817141324,,,2018_Mar_05_1352,60.0120686516,MAFE4ImagesEEG,001,203231,
AFNE01.JPG,AFNE01.JPG,AFNE01.JPG,AFNE01.JPG,AFNE01.JPG,AFNE01.JPG,,,,,,,,,,,,,,,,,,,,,1,5,15,2,,,AFSA12.jpg,AFSA16.jpg,AFNE17.jpg,AFNE18.jpg,AFSA16.jpg,FS,4,num_6,16,num_6,0.483474089764,,,2018_Mar_05_1352,60.0120686516,MAFE4ImagesEEG,001,203231,
AFNE01.JPG,AFNE01.JPG,AFNE01.JPG,AFNE01.JPG,AFNE01.JPG,AFNE01.JPG,,,,,,,,,,,,,,,,,,,,,1,6,16,8,,,AFNE07.jpg,AFNE12.jpg,AFSA02.jpg,AFSA16.jpg,AFNE07.jpg,FN,3,num_8,16,num_8,0.533495242475,,,2018_Mar_05_1352,60.0120686516,MAFE4ImagesEEG,001,203231,
AFNE01.JPG,AFNE01.JPG,AFNE01.JPG,AFNE01.JPG,AFNE01.JPG,AFNE01.JPG,,,,,,,,,,,,,,,,,,,,,1,7,17,0,,,AFNE04.jpg,AFSA19.jpg,AFNE07.jpg,AFSA01.jpg,AFSA19.jpg,FS,4,num_6,16,num_6,0.466805931646,,,2018_Mar_05_1352,60.0120686516,MAFE4ImagesEEG,001,203231,
AFNE01.JPG,AFNE01.JPG,AFNE01.JPG,AFNE01.JPG,AFNE01.JPG,AFNE01.JPG,,,,,,,,,,,,,,,,,,,,,1,8,18,9,,,AFSA07.jpg,AFNE11.jpg,AFSA02.jpg,AFNE13.jpg,AFNE11.jpg,FN,3,num_6,32,num_8,0.56679371139,,,2018_Mar_05_1352,60.0120686516,MAFE4ImagesEEG,001,203231,
AFNE01.JPG,AFNE01.JPG,AFNE01.JPG,AFNE01.JPG,AFNE01.JPG,AFNE01.JPG,,,,,,,,,,,,,,,,,,,,,1,9,19,1,,,AFSA12.jpg,AFNE01.jpg,AFSA19.jpg,AFNE07.jpg,AFNE01.jpg,FN,3,num_6,16,num_6,0.716808417346,,,2018_Mar_05_1352,60.0120686516,MAFE4ImagesEEG,001,203231,
AFNE01.JPG,AFNE01.JPG,AFNE01.JPG,AFNE01.JPG,AFNE01.JPG,AFNE01.JPG,,,,,,,,,,,,,,,,,,,,,2,0,20,2,,,AFNE05.jpg,AFSA03.jpg,AFNE18.jpg,AFSA15.jpg,AFSA15.jpg,FS,4,num_4,16,num_4,0.533494280186,,,2018_Mar_05_1352,60.0120686516,MAFE4ImagesEEG,001,203231,
AFNE01.JPG,AFNE01.JPG,AFNE01.JPG,AFNE01.JPG,AFNE01.JPG,AFNE01.JPG,,,,,,,,,,,,,,,,,,,,,2,1,21,0,,,AFSA15.jpg,AFSA19.jpg,AFNE15.jpg,AFNE03.jpg,AFNE15.jpg,FN,3,num_2,16,num_2,0.616817109287,,,2018_Mar_05_1352,60.0120686516,MAFE4ImagesEEG,001,203231,
AFNE01.JPG,AFNE01.JPG,AFNE01.JPG,AFNE01.JPG,AFNE01.JPG,AFNE01.JPG,,,,,,,,,,,,,,,,,,,,,2,2,22,7,,,AFSA01.jpg,AFNE20.jpg,AFSA12.jpg,AFNE13.jpg,AFNE20.jpg,FN,3,num_6,16,num_6,0.483545935014,,,2018_Mar_05_1352,60.0120686516,MAFE4ImagesEEG,001,203231,
AFNE01.JPG,AFNE01.JPG,AFNE01.JPG,AFNE01.JPG,AFNE01.JPG,AFNE01.JPG,,,,,,,,,,,,,,,,,,,,,2,3,23,8,,,AFSA05.jpg,AFNE20.jpg,AFSA13.jpg,AFNE15.jpg,AFSA05.jpg,FS,4,num_8,32,num_2,0.866784955142,,,2018_Mar_05_1352,60.0120686516,MAFE4ImagesEEG,001,203231,
AFNE01.JPG,AFNE01.JPG,AFNE01.JPG,AFNE01.JPG,AFNE01.JPG,AFNE01.JPG,,,,,,,,,,,,,,,,,,,,,2,4,24,4,,,AFSA18.jpg,AFNE18.jpg,AFSA04.jpg,AFNE15.jpg,AFNE15.jpg,FN,3,num_4,16,num_4,0.533342891373,,,2018_Mar_05_1352,60.0120686516,MAFE4ImagesEEG,001,203231,
AFNE01.JPG,AFNE01.JPG,AFNE01.JPG,AFNE01.JPG,AFNE01.JPG,AFNE01.JPG,,,,,,,,,,,,,,,,,,,,,2,5,25,1,,,AFSA07.jpg,AFNE17.jpg,AFSA10.jpg,AFNE07.jpg,AFNE07.jpg,FN,3,num_4,16,num_4,0.516780577134,,,2018_Mar_05_1352,60.0120686516,MAFE4ImagesEEG,001,203231,
AFNE01.JPG,AFNE01.JPG,AFNE01.JPG,AFNE01.JPG,AFNE01.JPG,AFNE01.JPG,,,,,,,,,,,,,,,,,,,,,2,6,26,5,,,AFNE05.jpg,AFSA05.jpg,AFNE10.jpg,AFSA16.jpg,AFSA05.jpg,FS,4,num_6,16,num_6,0.70019125659,,,2018_Mar_05_1352,60.0120686516,MAFE4ImagesEEG,001,203231,
AFNE01.JPG,AFNE01.JPG,AFNE01.JPG,AFNE01.JPG,AFNE01.JPG,AFNE01.JPG,,,,,,,,,,,,,,,,,,,,,2,7,27,9,,,AFNE08.jpg,AFSA04.jpg,AFNE07.jpg,AFSA01.jpg,AFNE07.jpg,FN,3,num_2,16,num_2,1.08347261418,,,2018_Mar_05_1352,60.0120686516,MAFE4ImagesEEG,001,203231,
AFNE01.JPG,AFNE01.JPG,AFNE01.JPG,AFNE01.JPG,AFNE01.JPG,AFNE01.JPG,,,,,,,,,,,,,,,,,,,,,2,8,28,6,,,AFSA04.jpg,AFSA07.jpg,AFNE03.jpg,AFNE08.jpg,AFSA07.jpg,FS,4,num_6,16,num_6,0.566796598025,,,2018_Mar_05_1352,60.0120686516,MAFE4ImagesEEG,001,203231,
AFNE01.JPG,AFNE01.JPG,AFNE01.JPG,AFNE01.JPG,AFNE01.JPG,AFNE01.JPG,,,,,,,,,,,,,,,,,,,,,2,9,29,3,,,AFNE13.jpg,AFSA10.jpg,AFSA03.jpg,AFNE08.jpg,AFNE13.jpg,FN,3,num_8,32,num_4,0.650104352273,,,2018_Mar_05_1352,60.0120686516,MAFE4ImagesEEG,001,203231,
AFNE01.JPG,AFNE01.JPG,AFNE01.JPG,AFNE01.JPG,AFNE01.JPG,AFNE01.JPG,,,,,,,,,,,,,,,,,,,,,3,0,30,1,,,AFNE03.jpg,AFSA02.jpg,AFSA03.jpg,AFNE18.jpg,AFNE18.jpg,FN,3,num_4,32,num_8,0.633477569791,,,2018_Mar_05_1352,60.0120686516,MAFE4ImagesEEG,001,203231,
AFNE01.JPG,AFNE01.JPG,AFNE01.JPG,AFNE01.JPG,AFNE01.JPG,AFNE01.JPG,,,,,,,,,,,,,,,,,,,,,3,1,31,9,,,AFNE12.jpg,AFSA07.jpg,AFSA01.jpg,AFNE04.jpg,AFSA01.jpg,FS,4,num_2,16,num_2,0.516813292401,,,2018_Mar_05_1352,60.0120686516,MAFE4ImagesEEG,001,203231,
AFNE01.JPG,AFNE01.JPG,AFNE01.JPG,AFNE01.JPG,AFNE01.JPG,AFNE01.JPG,,,,,,,,,,,,,,,,,,,,,3,2,32,5,,,AFSA01.jpg,AFNE16.jpg,AFNE19.jpg,AFSA12.jpg,AFNE16.jpg,FN,3,num_6,16,num_6,0.900173872709,,,2018_Mar_05_1352,60.0120686516,MAFE4ImagesEEG,001,203231,
AFNE01.JPG,AFNE01.JPG,AFNE01.JPG,AFNE01.JPG,AFNE01.JPG,AFNE01.JPG,,,,,,,,,,,,,,,,,,,,,3,3,33,8,,,AFSA20.jpg,AFSA05.jpg,AFNE05.jpg,AFNE14.jpg,AFSA20.jpg,FS,4,num_8,16,num_8,0.750438850839,,,2018_Mar_05_1352,60.0120686516,MAFE4ImagesEEG,001,203231,
AFNE01.JPG,AFNE01.JPG,AFNE01.JPG,AFNE01.JPG,AFNE01.JPG,AFNE01.JPG,,,,,,,,,,,,,,,,,,,,,3,4,34,3,,,AFNE07.jpg,AFSA18.jpg,AFSA11.jpg,AFNE16.jpg,AFSA18.jpg,FS,4,num_6,16,num_6,0.600156969624,,,2018_Mar_05_1352,60.0120686516,MAFE4ImagesEEG,001,203231,
AFNE01.JPG,AFNE01.JPG,AFNE01.JPG,AFNE01.JPG,AFNE01.JPG,AFNE01.JPG,,,,,,,,,,,,,,,,,,,,,3,5,35,7,,,AFNE14.jpg,AFSA01.jpg,AFSA13.jpg,AFNE06.jpg,AFSA13.jpg,FS,4,num_2,32,num_6,0.650161123136,,,2018_Mar_05_1352,60.0120686516,MAFE4ImagesEEG,001,203231,
AFNE01.JPG,AFNE01.JPG,AFNE01.JPG,AFNE01.JPG,AFNE01.JPG,AFNE01.JPG,,,,,,,,,,,,,,,,,,,,,3,6,36,6,,,AFNE12.jpg,AFSA02.jpg,AFSA16.jpg,AFNE13.jpg,AFNE12.jpg,FN,3,num_8,16,num_8,0.46679695067,,,2018_Mar_05_1352,60.0120686516,MAFE4ImagesEEG,001,203231,
AFNE01.JPG,AFNE01.JPG,AFNE01.JPG,AFNE01.JPG,AFNE01.JPG,AFNE01.JPG,,,,,,,,,,,,,,,,,,,,,3,7,37,4,,,AFSA06.jpg,AFNE16.jpg,AFSA19.jpg,AFNE19.jpg,AFNE16.jpg,FN,3,num_6,16,num_6,1.01685899775,,,2018_Mar_05_1352,60.0120686516,MAFE4ImagesEEG,001,203231,
AFNE01.JPG,AFNE01.JPG,AFNE01.JPG,AFNE01.JPG,AFNE01.JPG,AFNE01.JPG,,,,,,,,,,,,,,,,,,,,,3,8,38,0,,,AFSA20.jpg,AFNE03.jpg,AFNE15.jpg,AFSA08.jpg,AFNE03.jpg,FN,3,num_6,16,num_6,0.550163079519,,,2018_Mar_05_1352,60.0120686516,MAFE4ImagesEEG,001,203231,
