IPosition2,IPosition3,IPosition1,IPosition6,IPosition4,IPosition5,TrialsF1.thisRepN,TrialsF1.thisTrialN,TrialsF1.thisN,TrialsF1.thisIndex,TrialsM1.thisRepN,TrialsM1.thisTrialN,TrialsM1.thisN,TrialsM1.thisIndex,TrialsF2.thisRepN,TrialsF2.thisTrialN,TrialsF2.thisN,TrialsF2.thisIndex,TrialsM2.thisRepN,TrialsM2.thisTrialN,TrialsM2.thisN,TrialsM2.thisIndex,TrialsF3.thisRepN,TrialsF3.thisTrialN,TrialsF3.thisN,TrialsF3.thisIndex,TrialsM3.thisRepN,TrialsM3.thisTrialN,TrialsM3.thisN,TrialsM3.thisIndex,InstrKey_resp.keys,InstrKey_resp.rt,Image0 _Position,Image1 _Position,Image2 _Position,Image3 _Position,Center_image,condition,code,correct_answer,accuracy,Key_Resp.keys,Key_Resp.rt,BreakKey_resp.keys,BreakKey_resp.rt,date,frameRate,expName,session,participant,
,,,,,,,,,,,,,,,,,,,,,,,,,,,,,,space,8.2995960936,,,,,,,,,,,,,,2018_Mar_02_1145,60.0064090407,FEMA4ImagesEEG,001,203206,
AFNE23.JPG,AFNE24.JPG,AFNE22.JPG,AFSA24.JPG,AFSA22.JPG,AFSA23.JPG,0,0,0,8,,,,,,,,,,,,,,,,,,,,,,,AFNE07.jpg,AFSA20.jpg,AFNE19.jpg,AFSA12.jpg,AFNE19.jpg,FN,3,num_2,32,num_8,1.21674571279,,,2018_Mar_02_1145,60.0064090407,FEMA4ImagesEEG,001,203206,
AMSA21.JPG,AMNE23.JPG,AMNE21.JPG,AMSA25.JPG,AMNE25.JPG,AMSA23.JPG,0,1,1,5,,,,,,,,,,,,,,,,,,,,,,,AFSA09.jpg,AFNE01.jpg,AFNE07.jpg,AFSA19.jpg,AFSA19.jpg,FS,4,num_4,16,num_4,0.766784345731,,,2018_Mar_02_1145,60.0064090407,FEMA4ImagesEEG,001,203206,
AFSA21.JPG,AFNE23.JPG,AFNE21.JPG,AFSA25.JPG,AFNE25.JPG,AFSA23.JPG,0,2,2,4,,,,,,,,,,,,,,,,,,,,,,,AFNE03.jpg,AFSA19.jpg,AFNE13.jpg,AFSA15.jpg,AFSA15.jpg,FS,4,num_4,32,num_2,0.983454364119,,,2018_Mar_02_1145,60.0064090407,FEMA4ImagesEEG,001,203206,
AMSA21.JPG,AMNE22.JPG,AMNE21.JPG,AMSA23.JPG,AMSA22.JPG,AMNE23.JPG,0,3,3,1,,,,,,,,,,,,,,,,,,,,,,,AFSA13.jpg,AFSA16.jpg,AFNE03.jpg,AFNE09.jpg,AFNE03.jpg,FN,3,num_2,32,num_4,0.900238340953,,,2018_Mar_02_1145,60.0064090407,FEMA4ImagesEEG,001,203206,
AMNE23.JPG,AMNE24.JPG,AMNE22.JPG,AMSA24.JPG,AMSA22.JPG,AMSA23.JPG,0,4,4,9,,,,,,,,,,,,,,,,,,,,,,,AFNE15.jpg,AFSA05.jpg,AFNE16.jpg,AFSA20.jpg,AFSA05.jpg,FS,4,num_6,16,num_6,0.533467658795,,,2018_Mar_02_1145,60.0064090407,FEMA4ImagesEEG,001,203206,
AFSA25.JPG,AFNE24.JPG,AFSA24.JPG,AFNE21.JPG,AFSA21.JPG,AFNE25.JPG,0,5,5,2,,,,,,,,,,,,,,,,,,,,,,,AFNE11.jpg,AFSA19.jpg,AFNE18.jpg,AFSA18.jpg,AFNE18.jpg,FN,3,num_2,16,num_2,1.016808321,,,2018_Mar_02_1145,60.0064090407,FEMA4ImagesEEG,001,203206,
AFNE22.JPG,AFSA24.JPG,AFSA22.JPG,AFNE25.JPG,AFNE24.JPG,AFSA25.JPG,0,6,6,6,,,,,,,,,,,,,,,,,,,,,,,AFSA09.jpg,AFNE12.jpg,AFNE18.jpg,AFSA19.jpg,AFSA09.jpg,FS,4,num_8,32,num_4,0.750238389242,,,2018_Mar_02_1145,60.0064090407,FEMA4ImagesEEG,001,203206,
AMSA25.JPG,AMNE24.JPG,AMSA24.JPG,AMNE26.JPG,AMSA21.JPG,AMNE25.JPG,0,7,7,3,,,,,,,,,,,,,,,,,,,,,,,AFSA06.jpg,AFNE19.jpg,AFNE10.jpg,AFSA17.jpg,AFSA06.jpg,FS,4,num_8,16,num_8,1.01686861995,,,2018_Mar_02_1145,60.0064090407,FEMA4ImagesEEG,001,203206,
AFSA21.JPG,AFNE22.JPG,AFNE21.JPG,AFSA23.JPG,AFSA22.JPG,AFNE23.JPG,0,8,8,0,,,,,,,,,,,,,,,,,,,,,,,AFSA04.jpg,AFNE02.jpg,AFNE13.jpg,AFSA07.jpg,AFNE13.jpg,FN,3,num_2,16,num_2,0.9167810902,,,2018_Mar_02_1145,60.0064090407,FEMA4ImagesEEG,001,203206,
AMNE22.JPG,AMSA24.JPG,AMSA22.JPG,AMNE25.JPG,AMNE24.JPG,AMSA25.JPG,0,9,9,7,,,,,,,,,,,,,,,,,,,,,,,AFNE12.jpg,AFSA06.jpg,AFSA10.jpg,AFNE07.jpg,AFSA10.jpg,FS,4,num_2,32,num_4,0.883450547233,,,2018_Mar_02_1145,60.0064090407,FEMA4ImagesEEG,001,203206,
AFNE22.JPG,AFSA24.JPG,AFSA22.JPG,AFNE25.JPG,AFNE24.JPG,AFSA25.JPG,,,,,0,0,0,6,,,,,,,,,,,,,,,,,,,AMNE17.jpg,AMSA19.jpg,AMSA05.jpg,AMNE05.jpg,AMSA05.jpg,MS,2,num_2,16,num_2,1.10010901908,,,2018_Mar_02_1145,60.0064090407,FEMA4ImagesEEG,001,203206,
AFSA21.JPG,AFNE23.JPG,AFNE21.JPG,AFSA25.JPG,AFNE25.JPG,AFSA23.JPG,,,,,0,1,1,4,,,,,,,,,,,,,,,,,,,AMSA17.jpg,AMNE04.jpg,AMSA05.jpg,AMNE03.jpg,AMNE03.jpg,MN,1,num_4,16,num_4,0.8504359324,,,2018_Mar_02_1145,60.0064090407,FEMA4ImagesEEG,001,203206,
AMSA25.JPG,AMNE24.JPG,AMSA24.JPG,AMNE26.JPG,AMSA21.JPG,AMNE25.JPG,,,,,0,2,2,3,,,,,,,,,,,,,,,,,,,AMNE12.jpg,AMSA12.jpg,AMSA20.jpg,AMNE04.jpg,AMSA12.jpg,MS,2,num_6,16,num_6,0.90015270398,,,2018_Mar_02_1145,60.0064090407,FEMA4ImagesEEG,001,203206,
AMNE22.JPG,AMSA24.JPG,AMSA22.JPG,AMNE25.JPG,AMNE24.JPG,AMSA25.JPG,,,,,0,3,3,7,,,,,,,,,,,,,,,,,,,AMSA17.jpg,AMNE19.jpg,AMSA11.jpg,AMNE11.jpg,AMSA11.jpg,MS,2,num_2,16,num_2,0.799981140532,,,2018_Mar_02_1145,60.0064090407,FEMA4ImagesEEG,001,203206,
AFSA21.JPG,AFNE22.JPG,AFNE21.JPG,AFSA23.JPG,AFSA22.JPG,AFNE23.JPG,,,,,0,4,4,0,,,,,,,,,,,,,,,,,,,AMNE20.jpg,AMSA12.jpg,AMNE07.jpg,AMSA17.jpg,AMSA17.jpg,MS,2,num_4,16,num_4,0.866785917431,,,2018_Mar_02_1145,60.0064090407,FEMA4ImagesEEG,001,203206,
AMNE23.JPG,AMNE24.JPG,AMNE22.JPG,AMSA24.JPG,AMSA22.JPG,AMSA23.JPG,,,,,0,5,5,9,,,,,,,,,,,,,,,,,,,AMNE09.jpg,AMNE03.jpg,AMSA08.jpg,AMSA19.jpg,AMSA19.jpg,MS,2,num_4,16,num_4,0.983544491697,,,2018_Mar_02_1145,60.0064090407,FEMA4ImagesEEG,001,203206,
AMSA21.JPG,AMNE23.JPG,AMNE21.JPG,AMSA25.JPG,AMNE25.JPG,AMSA23.JPG,,,,,0,6,6,5,,,,,,,,,,,,,,,,,,,AMNE03.jpg,AMSA04.jpg,AMSA03.jpg,AMNE20.jpg,AMSA03.jpg,MS,2,num_2,32,num_6,0.766786590917,,,2018_Mar_02_1145,60.0064090407,FEMA4ImagesEEG,001,203206,
AFNE23.JPG,AFNE24.JPG,AFNE22.JPG,AFSA24.JPG,AFSA22.JPG,AFSA23.JPG,,,,,0,7,7,8,,,,,,,,,,,,,,,,,,,AMNE04.jpg,AMSA09.jpg,AMSA13.jpg,AMNE13.jpg,AMSA09.jpg,MS,2,num_6,32,num_2,0.866738447919,,,2018_Mar_02_1145,60.0064090407,FEMA4ImagesEEG,001,203206,
AFSA25.JPG,AFNE24.JPG,AFSA24.JPG,AFNE21.JPG,AFSA21.JPG,AFNE25.JPG,,,,,0,8,8,2,,,,,,,,,,,,,,,,,,,AMSA08.jpg,AMNE10.jpg,AMSA13.jpg,AMNE15.jpg,AMSA08.jpg,MS,2,num_8,32,num_4,0.783449938055,,,2018_Mar_02_1145,60.0064090407,FEMA4ImagesEEG,001,203206,
AMSA21.JPG,AMNE22.JPG,AMNE21.JPG,AMSA23.JPG,AMSA22.JPG,AMNE23.JPG,,,,,0,9,9,1,,,,,,,,,,,,,,,,,,,AMNE10.jpg,AMSA03.jpg,AMNE14.jpg,AMSA13.jpg,AMSA03.jpg,MS,2,num_6,16,num_6,0.58349298127,,,2018_Mar_02_1145,60.0064090407,FEMA4ImagesEEG,001,203206,
AFSA21.JPG,AFNE23.JPG,AFNE21.JPG,AFSA25.JPG,AFNE25.JPG,AFSA23.JPG,,,,,,,,,0,0,0,4,,,,,,,,,,,,,,,AFNE18.jpg,AFNE02.jpg,AFSA01.jpg,AFSA14.jpg,AFSA01.jpg,FS,4,num_2,16,num_2,0.566815521568,,,2018_Mar_02_1145,60.0064090407,FEMA4ImagesEEG,001,203206,
AFSA21.JPG,AFNE22.JPG,AFNE21.JPG,AFSA23.JPG,AFSA22.JPG,AFNE23.JPG,,,,,,,,,0,1,1,0,,,,,,,,,,,,,,,AFNE01.jpg,AFNE05.jpg,AFSA16.jpg,AFSA15.jpg,AFNE05.jpg,FN,3,num_6,16,num_6,0.600190005498,,,2018_Mar_02_1145,60.0064090407,FEMA4ImagesEEG,001,203206,
AMSA21.JPG,AMNE22.JPG,AMNE21.JPG,AMSA23.JPG,AMSA22.JPG,AMNE23.JPG,,,,,,,,,0,2,2,1,,,,,,,,,,,,,,,AFSA14.jpg,AFNE18.jpg,AFNE10.jpg,AFSA01.jpg,AFNE10.jpg,FN,3,num_2,16,num_2,0.966800639173,,,2018_Mar_02_1145,60.0064090407,FEMA4ImagesEEG,001,203206,
AMSA21.JPG,AMNE23.JPG,AMNE21.JPG,AMSA25.JPG,AMNE25.JPG,AMSA23.JPG,,,,,,,,,0,3,3,5,,,,,,,,,,,,,,,AFNE03.jpg,AFSA10.jpg,AFSA09.jpg,AFNE20.jpg,AFNE20.jpg,FN,3,num_4,32,num_6,0.716793021653,,,2018_Mar_02_1145,60.0064090407,FEMA4ImagesEEG,001,203206,
AFSA25.JPG,AFNE24.JPG,AFSA24.JPG,AFNE21.JPG,AFSA21.JPG,AFNE25.JPG,,,,,,,,,0,4,4,2,,,,,,,,,,,,,,,AFSA18.jpg,AFNE07.jpg,AFNE02.jpg,AFSA12.jpg,AFSA12.jpg,FS,4,num_4,16,num_4,0.883523996454,,,2018_Mar_02_1145,60.0064090407,FEMA4ImagesEEG,001,203206,
AMNE22.JPG,AMSA24.JPG,AMSA22.JPG,AMNE25.JPG,AMNE24.JPG,AMSA25.JPG,,,,,,,,,0,5,5,7,,,,,,,,,,,,,,,AFNE14.jpg,AFSA19.jpg,AFNE06.jpg,AFSA01.jpg,AFSA01.jpg,FS,4,num_4,16,num_4,0.733343147906,,,2018_Mar_02_1145,60.0064090407,FEMA4ImagesEEG,001,203206,
AMSA25.JPG,AMNE24.JPG,AMSA24.JPG,AMNE26.JPG,AMSA21.JPG,AMNE25.JPG,,,,,,,,,0,6,6,3,,,,,,,,,,,,,,,AFNE17.jpg,AFSA09.jpg,AFNE11.jpg,AFSA07.jpg,AFSA07.jpg,FS,4,num_4,32,num_8,0.850108136889,,,2018_Mar_02_1145,60.0064090407,FEMA4ImagesEEG,001,203206,
AFNE22.JPG,AFSA24.JPG,AFSA22.JPG,AFNE25.JPG,AFNE24.JPG,AFSA25.JPG,,,,,,,,,0,7,7,6,,,,,,,,,,,,,,,AFSA13.jpg,AFNE15.jpg,AFNE04.jpg,AFSA16.jpg,AFSA13.jpg,FS,4,num_8,32,num_4,0.916788467206,,,2018_Mar_02_1145,60.0064090407,FEMA4ImagesEEG,001,203206,
AFNE23.JPG,AFNE24.JPG,AFNE22.JPG,AFSA24.JPG,AFSA22.JPG,AFSA23.JPG,,,,,,,,,0,8,8,8,,,,,,,,,,,,,,,AFNE06.jpg,AFSA05.jpg,AFNE05.jpg,AFSA08.jpg,AFNE06.jpg,FN,3,num_8,32,num_6,0.850155927241,,,2018_Mar_02_1145,60.0064090407,FEMA4ImagesEEG,001,203206,
AMNE23.JPG,AMNE24.JPG,AMNE22.JPG,AMSA24.JPG,AMSA22.JPG,AMSA23.JPG,,,,,,,,,0,9,9,9,,,,,,,,,,,,,,,AFNE20.jpg,AFSA20.jpg,AFNE16.jpg,AFSA09.jpg,AFSA09.jpg,FS,4,num_4,16,num_4,1.41673057387,,,2018_Mar_02_1145,60.0064090407,FEMA4ImagesEEG,001,203206,
AFSA21.JPG,AFNE22.JPG,AFNE21.JPG,AFSA23.JPG,AFSA22.JPG,AFNE23.JPG,,,,,,,,,,,,,0,0,0,0,,,,,,,,,,,AMSA05.jpg,AMNE04.jpg,AMSA06.jpg,AMNE18.jpg,AMNE04.jpg,MN,1,num_6,16,num_6,0.666785019217,,,2018_Mar_02_1145,60.0064090407,FEMA4ImagesEEG,001,203206,
AFNE23.JPG,AFNE24.JPG,AFNE22.JPG,AFSA24.JPG,AFSA22.JPG,AFSA23.JPG,,,,,,,,,,,,,0,1,1,8,,,,,,,,,,,AMSA13.jpg,AMSA19.jpg,AMNE15.jpg,AMNE06.jpg,AMNE06.jpg,MN,1,num_4,32,num_2,1.06669444265,,,2018_Mar_02_1145,60.0064090407,FEMA4ImagesEEG,001,203206,
AFNE22.JPG,AFSA24.JPG,AFSA22.JPG,AFNE25.JPG,AFNE24.JPG,AFSA25.JPG,,,,,,,,,,,,,0,2,2,6,,,,,,,,,,,AMSA19.jpg,AMNE16.jpg,AMSA07.jpg,AMNE19.jpg,AMNE19.jpg,MN,1,num_4,32,num_6,0.516777369659,,,2018_Mar_02_1145,60.0064090407,FEMA4ImagesEEG,001,203206,
AMNE22.JPG,AMSA24.JPG,AMSA22.JPG,AMNE25.JPG,AMNE24.JPG,AMSA25.JPG,,,,,,,,,,,,,0,3,3,7,,,,,,,,,,,AMNE10.jpg,AMNE06.jpg,AMSA18.jpg,AMSA06.jpg,AMSA18.jpg,MS,2,num_2,16,num_2,0.966774018016,,,2018_Mar_02_1145,60.0064090407,FEMA4ImagesEEG,001,203206,
AMSA21.JPG,AMNE22.JPG,AMNE21.JPG,AMSA23.JPG,AMSA22.JPG,AMNE23.JPG,,,,,,,,,,,,,0,4,4,1,,,,,,,,,,,AMSA15.jpg,AMNE15.jpg,AMSA01.jpg,AMNE19.jpg,AMSA15.jpg,MS,2,num_8,32,num_6,1.70005013142,,,2018_Mar_02_1145,60.0064090407,FEMA4ImagesEEG,001,203206,
AMSA25.JPG,AMNE24.JPG,AMSA24.JPG,AMNE26.JPG,AMSA21.JPG,AMNE25.JPG,,,,,,,,,,,,,0,5,5,3,,,,,,,,,,,AMSA15.jpg,AMSA09.jpg,AMNE01.jpg,AMNE14.jpg,AMNE14.jpg,MN,1,num_4,32,num_2,0.816785292001,,,2018_Mar_02_1145,60.0064090407,FEMA4ImagesEEG,001,203206,
AFSA21.JPG,AFNE23.JPG,AFNE21.JPG,AFSA25.JPG,AFNE25.JPG,AFSA23.JPG,,,,,,,,,,,,,0,6,6,4,,,,,,,,,,,AMNE01.jpg,AMSA15.jpg,AMSA16.jpg,AMNE20.jpg,AMNE01.jpg,MN,1,num_8,32,num_4,0.833517277148,,,2018_Mar_02_1145,60.0064090407,FEMA4ImagesEEG,001,203206,
AFSA25.JPG,AFNE24.JPG,AFSA24.JPG,AFNE21.JPG,AFSA21.JPG,AFNE25.JPG,,,,,,,,,,,,,0,7,7,2,,,,,,,,,,,AMNE05.jpg,AMNE14.jpg,AMSA11.jpg,AMSA05.jpg,AMNE14.jpg,MN,1,num_6,32,num_4,0.783530443441,,,2018_Mar_02_1145,60.0064090407,FEMA4ImagesEEG,001,203206,
AMSA21.JPG,AMNE23.JPG,AMNE21.JPG,AMSA25.JPG,AMNE25.JPG,AMSA23.JPG,,,,,,,,,,,,,0,8,8,5,,,,,,,,,,,AMNE05.jpg,AMSA20.jpg,AMNE07.jpg,AMSA05.jpg,AMNE07.jpg,MN,1,num_2,32,num_4,1.05012250622,,,2018_Mar_02_1145,60.0064090407,FEMA4ImagesEEG,001,203206,
AMNE23.JPG,AMNE24.JPG,AMNE22.JPG,AMSA24.JPG,AMSA22.JPG,AMSA23.JPG,,,,,,,,,,,,,0,9,9,9,,,,,,,,,,,AMSA18.jpg,AMNE01.jpg,AMSA16.jpg,AMNE08.jpg,AMSA18.jpg,MS,2,num_8,32,num_6,0.900185098406,,,2018_Mar_02_1145,60.0064090407,FEMA4ImagesEEG,001,203206,
AMNE23.JPG,AMNE24.JPG,AMNE22.JPG,AMSA24.JPG,AMSA22.JPG,AMSA23.JPG,,,,,,,,,,,,,,,,,0,0,0,9,,,,,,,AFSA14.jpg,AFNE18.jpg,AFNE20.jpg,AFSA11.jpg,AFSA14.jpg,FS,4,num_8,32,num_2,1.066703744,,,2018_Mar_02_1145,60.0064090407,FEMA4ImagesEEG,001,203206,
AFSA21.JPG,AFNE23.JPG,AFNE21.JPG,AFSA25.JPG,AFNE25.JPG,AFSA23.JPG,,,,,,,,,,,,,,,,,0,1,1,4,,,,,,,AFNE18.jpg,AFSA03.jpg,AFSA09.jpg,AFNE04.jpg,AFSA09.jpg,FS,4,num_2,32,num_6,0.500226922566,,,2018_Mar_02_1145,60.0064090407,FEMA4ImagesEEG,001,203206,
AMSA21.JPG,AMNE23.JPG,AMNE21.JPG,AMSA25.JPG,AMNE25.JPG,AMSA23.JPG,,,,,,,,,,,,,,,,,0,2,2,5,,,,,,,AFSA01.jpg,AFSA19.jpg,AFNE01.jpg,AFNE16.jpg,AFNE01.jpg,FN,3,num_2,32,num_8,0.950212666066,,,2018_Mar_02_1145,60.0064090407,FEMA4ImagesEEG,001,203206,
AFNE23.JPG,AFNE24.JPG,AFNE22.JPG,AFSA24.JPG,AFSA22.JPG,AFSA23.JPG,,,,,,,,,,,,,,,,,0,3,3,8,,,,,,,AFNE13.jpg,AFSA15.jpg,AFSA04.jpg,AFNE12.jpg,AFSA04.jpg,FS,4,num_2,16,num_2,0.800121624023,,,2018_Mar_02_1145,60.0064090407,FEMA4ImagesEEG,001,203206,
AMSA25.JPG,AMNE24.JPG,AMSA24.JPG,AMNE26.JPG,AMSA21.JPG,AMNE25.JPG,,,,,,,,,,,,,,,,,0,4,4,3,,,,,,,AFNE20.jpg,AFSA18.jpg,AFSA04.jpg,AFNE17.jpg,AFNE17.jpg,FN,3,num_4,32,num_6,0.650132577401,,,2018_Mar_02_1145,60.0064090407,FEMA4ImagesEEG,001,203206,
AFSA25.JPG,AFNE24.JPG,AFSA24.JPG,AFNE21.JPG,AFSA21.JPG,AFNE25.JPG,,,,,,,,,,,,,,,,,0,5,5,2,,,,,,,AFNE16.jpg,AFSA10.jpg,AFNE05.jpg,AFSA20.jpg,AFNE05.jpg,FN,3,num_2,32,num_4,0.650166896405,,,2018_Mar_02_1145,60.0064090407,FEMA4ImagesEEG,001,203206,
AFSA21.JPG,AFNE22.JPG,AFNE21.JPG,AFSA23.JPG,AFSA22.JPG,AFNE23.JPG,,,,,,,,,,,,,,,,,0,6,6,0,,,,,,,AFSA14.jpg,AFSA18.jpg,AFNE14.jpg,AFNE06.jpg,AFSA14.jpg,FS,4,num_8,32,num_4,0.76676381845,,,2018_Mar_02_1145,60.0064090407,FEMA4ImagesEEG,001,203206,
AMNE22.JPG,AMSA24.JPG,AMSA22.JPG,AMNE25.JPG,AMNE24.JPG,AMSA25.JPG,,,,,,,,,,,,,,,,,0,7,7,7,,,,,,,AFNE18.jpg,AFSA15.jpg,AFSA17.jpg,AFNE08.jpg,AFNE18.jpg,FN,3,num_8,32,num_4,0.766807118198,,,2018_Mar_02_1145,60.0064090407,FEMA4ImagesEEG,001,203206,
AMSA21.JPG,AMNE22.JPG,AMNE21.JPG,AMSA23.JPG,AMSA22.JPG,AMNE23.JPG,,,,,,,,,,,,,,,,,0,8,8,1,,,,,,,AFSA05.jpg,AFNE07.jpg,AFSA04.jpg,AFNE01.jpg,AFNE07.jpg,FN,3,num_6,16,num_6,1.36672385433,,,2018_Mar_02_1145,60.0064090407,FEMA4ImagesEEG,001,203206,
AFNE22.JPG,AFSA24.JPG,AFSA22.JPG,AFNE25.JPG,AFNE24.JPG,AFSA25.JPG,,,,,,,,,,,,,,,,,0,9,9,6,,,,,,,AFNE05.jpg,AFSA18.jpg,AFNE07.jpg,AFSA02.jpg,AFSA02.jpg,FS,4,num_4,16,num_4,0.733478820417,,,2018_Mar_02_1145,60.0064090407,FEMA4ImagesEEG,001,203206,
AFNE23.JPG,AFNE24.JPG,AFNE22.JPG,AFSA24.JPG,AFSA22.JPG,AFSA23.JPG,,,,,,,,,,,,,,,,,,,,,0,0,0,8,,,AMSA04.jpg,AMSA02.jpg,AMNE14.jpg,AMNE13.jpg,AMNE14.jpg,MN,1,num_2,32,num_6,0.716787248384,,,2018_Mar_02_1145,60.0064090407,FEMA4ImagesEEG,001,203206,
AFSA21.JPG,AFNE22.JPG,AFNE21.JPG,AFSA23.JPG,AFSA22.JPG,AFNE23.JPG,,,,,,,,,,,,,,,,,,,,,0,1,1,0,,,AMSA07.jpg,AMSA11.jpg,AMNE06.jpg,AMNE10.jpg,AMSA07.jpg,MS,2,num_8,32,num_6,1.2167543727,,,2018_Mar_02_1145,60.0064090407,FEMA4ImagesEEG,001,203206,
AMSA25.JPG,AMNE24.JPG,AMSA24.JPG,AMNE26.JPG,AMSA21.JPG,AMNE25.JPG,,,,,,,,,,,,,,,,,,,,,0,2,2,3,,,AMSA16.jpg,AMNE03.jpg,AMNE15.jpg,AMSA15.jpg,AMSA16.jpg,MS,2,num_8,16,num_8,0.883430340793,,,2018_Mar_02_1145,60.0064090407,FEMA4ImagesEEG,001,203206,
AMNE23.JPG,AMNE24.JPG,AMNE22.JPG,AMSA24.JPG,AMSA22.JPG,AMSA23.JPG,,,,,,,,,,,,,,,,,,,,,0,3,3,9,,,AMNE06.jpg,AMSA12.jpg,AMSA19.jpg,AMNE17.jpg,AMSA12.jpg,MS,2,num_6,16,num_6,1.45006913529,,,2018_Mar_02_1145,60.0064090407,FEMA4ImagesEEG,001,203206,
AMSA21.JPG,AMNE22.JPG,AMNE21.JPG,AMSA23.JPG,AMSA22.JPG,AMNE23.JPG,,,,,,,,,,,,,,,,,,,,,0,4,4,1,,,AMSA08.jpg,AMNE09.jpg,AMSA07.jpg,AMNE05.jpg,AMSA08.jpg,MS,2,num_8,32,num_4,0.733392220922,,,2018_Mar_02_1145,60.0064090407,FEMA4ImagesEEG,001,203206,
AFSA25.JPG,AFNE24.JPG,AFSA24.JPG,AFNE21.JPG,AFSA21.JPG,AFNE25.JPG,,,,,,,,,,,,,,,,,,,,,0,5,5,2,,,AMSA20.jpg,AMNE16.jpg,AMNE12.jpg,AMSA05.jpg,AMSA20.jpg,MS,2,num_8,32,num_4,1.00009461795,,,2018_Mar_02_1145,60.0064090407,FEMA4ImagesEEG,001,203206,
AFSA21.JPG,AFNE23.JPG,AFNE21.JPG,AFSA25.JPG,AFNE25.JPG,AFSA23.JPG,,,,,,,,,,,,,,,,,,,,,0,6,6,4,,,AMSA01.jpg,AMSA08.jpg,AMNE06.jpg,AMNE07.jpg,AMSA08.jpg,MS,2,num_6,32,num_4,0.883500261931,,,2018_Mar_02_1145,60.0064090407,FEMA4ImagesEEG,001,203206,
AMSA21.JPG,AMNE23.JPG,AMNE21.JPG,AMSA25.JPG,AMNE25.JPG,AMSA23.JPG,,,,,,,,,,,,,,,,,,,,,0,7,7,5,,,AMSA18.jpg,AMNE02.jpg,AMSA12.jpg,AMNE04.jpg,AMSA18.jpg,MS,2,num_8,32,num_2,0.800129322102,,,2018_Mar_02_1145,60.0064090407,FEMA4ImagesEEG,001,203206,
AFNE22.JPG,AFSA24.JPG,AFSA22.JPG,AFNE25.JPG,AFNE24.JPG,AFSA25.JPG,,,,,,,,,,,,,,,,,,,,,0,8,8,6,,,AMSA17.jpg,AMNE11.jpg,AMNE18.jpg,AMSA07.jpg,AMSA17.jpg,MS,2,num_8,32,num_6,0.850133796223,,,2018_Mar_02_1145,60.0064090407,FEMA4ImagesEEG,001,203206,
AMNE22.JPG,AMSA24.JPG,AMSA22.JPG,AMNE25.JPG,AMNE24.JPG,AMSA25.JPG,,,,,,,,,,,,,,,,,,,,,0,9,9,7,,,AMNE08.jpg,AMSA05.jpg,AMNE19.jpg,AMSA07.jpg,AMNE19.jpg,MN,1,num_2,32,num_8,1.11672714213,,,2018_Mar_02_1145,60.0064090407,FEMA4ImagesEEG,001,203206,
,,,,,,,,,,,,,,,,,,,,,,,,,,,,,,,,,,,,,,,,,,,space,10.9825832373,2018_Mar_02_1145,60.0064090407,FEMA4ImagesEEG,001,203206,
AFNE01.JPG,AFNE01.JPG,AFNE01.JPG,AFNE01.JPG,AFNE01.JPG,AFNE01.JPG,0,0,0,9,,,,,,,,,,,,,,,,,,,,,,,AFNE02.jpg,AFNE09.jpg,AFSA05.jpg,AFSA17.jpg,AFSA05.jpg,FS,4,num_2,32,num_4,0.666844035266,,,2018_Mar_02_1145,60.0064090407,FEMA4ImagesEEG,001,203206,
AFNE01.JPG,AFNE01.JPG,AFNE01.JPG,AFNE01.JPG,AFNE01.JPG,AFNE01.JPG,0,1,1,8,,,,,,,,,,,,,,,,,,,,,,,AFSA09.jpg,AFSA17.jpg,AFNE06.jpg,AFNE12.jpg,AFSA09.jpg,FS,4,num_8,32,num_6,0.666795924539,,,2018_Mar_02_1145,60.0064090407,FEMA4ImagesEEG,001,203206,
AFNE01.JPG,AFNE01.JPG,AFNE01.JPG,AFNE01.JPG,AFNE01.JPG,AFNE01.JPG,0,2,2,3,,,,,,,,,,,,,,,,,,,,,,,AFNE05.jpg,AFNE10.jpg,AFSA01.jpg,AFSA08.jpg,AFSA08.jpg,FS,4,num_4,32,num_8,0.866527081234,,,2018_Mar_02_1145,60.0064090407,FEMA4ImagesEEG,001,203206,
AFNE01.JPG,AFNE01.JPG,AFNE01.JPG,AFNE01.JPG,AFNE01.JPG,AFNE01.JPG,0,3,3,6,,,,,,,,,,,,,,,,,,,,,,,AFNE11.jpg,AFSA10.jpg,AFNE14.jpg,AFSA02.jpg,AFNE11.jpg,FN,3,num_8,32,num_4,0.58350677276,,,2018_Mar_02_1145,60.0064090407,FEMA4ImagesEEG,001,203206,
AFNE01.JPG,AFNE01.JPG,AFNE01.JPG,AFNE01.JPG,AFNE01.JPG,AFNE01.JPG,0,4,4,4,,,,,,,,,,,,,,,,,,,,,,,AFSA15.jpg,AFSA07.jpg,AFNE16.jpg,AFNE02.jpg,AFNE02.jpg,FN,3,num_4,32,num_6,0.783482332481,,,2018_Mar_02_1145,60.0064090407,FEMA4ImagesEEG,001,203206,
AFNE01.JPG,AFNE01.JPG,AFNE01.JPG,AFNE01.JPG,AFNE01.JPG,AFNE01.JPG,0,5,5,0,,,,,,,,,,,,,,,,,,,,,,,AFNE07.jpg,AFSA05.jpg,AFSA12.jpg,AFNE05.jpg,AFSA05.jpg,FS,4,num_6,32,num_4,0.733469839673,,,2018_Mar_02_1145,60.0064090407,FEMA4ImagesEEG,001,203206,
AFNE01.JPG,AFNE01.JPG,AFNE01.JPG,AFNE01.JPG,AFNE01.JPG,AFNE01.JPG,0,6,6,1,,,,,,,,,,,,,,,,,,,,,,,AFSA19.jpg,AFNE14.jpg,AFSA08.jpg,AFNE04.jpg,AFSA19.jpg,FS,4,num_8,32,num_2,0.916779807303,,,2018_Mar_02_1145,60.0064090407,FEMA4ImagesEEG,001,203206,
AFNE01.JPG,AFNE01.JPG,AFNE01.JPG,AFNE01.JPG,AFNE01.JPG,AFNE01.JPG,0,7,7,5,,,,,,,,,,,,,,,,,,,,,,,AFSA14.jpg,AFSA11.jpg,AFNE15.jpg,AFNE08.jpg,AFSA14.jpg,FS,4,num_8,32,num_6,0.783438712126,,,2018_Mar_02_1145,60.0064090407,FEMA4ImagesEEG,001,203206,
AFNE01.JPG,AFNE01.JPG,AFNE01.JPG,AFNE01.JPG,AFNE01.JPG,AFNE01.JPG,0,8,8,2,,,,,,,,,,,,,,,,,,,,,,,AFNE19.jpg,AFSA19.jpg,AFSA14.jpg,AFNE11.jpg,AFNE11.jpg,FN,3,num_4,16,num_4,0.666827677516,,,2018_Mar_02_1145,60.0064090407,FEMA4ImagesEEG,001,203206,
AFNE01.JPG,AFNE01.JPG,AFNE01.JPG,AFNE01.JPG,AFNE01.JPG,AFNE01.JPG,0,9,9,7,,,,,,,,,,,,,,,,,,,,,,,AFSA10.jpg,AFNE08.jpg,AFSA18.jpg,AFNE18.jpg,AFNE18.jpg,FN,3,num_4,32,num_6,0.816747124074,,,2018_Mar_02_1145,60.0064090407,FEMA4ImagesEEG,001,203206,
AFNE01.JPG,AFNE01.JPG,AFNE01.JPG,AFNE01.JPG,AFNE01.JPG,AFNE01.JPG,1,0,10,9,,,,,,,,,,,,,,,,,,,,,,,AFSA13.jpg,AFSA18.jpg,AFNE07.jpg,AFNE16.jpg,AFNE16.jpg,FN,3,num_4,32,num_6,0.800099813845,,,2018_Mar_02_1145,60.0064090407,FEMA4ImagesEEG,001,203206,
AFNE01.JPG,AFNE01.JPG,AFNE01.JPG,AFNE01.JPG,AFNE01.JPG,AFNE01.JPG,1,1,11,6,,,,,,,,,,,,,,,,,,,,,,,AFNE05.jpg,AFNE20.jpg,AFSA20.jpg,AFSA12.jpg,AFNE05.jpg,FN,3,num_8,32,num_2,0.866751919035,,,2018_Mar_02_1145,60.0064090407,FEMA4ImagesEEG,001,203206,
AFNE01.JPG,AFNE01.JPG,AFNE01.JPG,AFNE01.JPG,AFNE01.JPG,AFNE01.JPG,1,2,12,2,,,,,,,,,,,,,,,,,,,,,,,AFSA18.jpg,AFNE20.jpg,AFSA19.jpg,AFNE01.jpg,AFNE01.jpg,FN,3,num_4,16,num_4,0.98347008042,,,2018_Mar_02_1145,60.0064090407,FEMA4ImagesEEG,001,203206,
AFNE01.JPG,AFNE01.JPG,AFNE01.JPG,AFNE01.JPG,AFNE01.JPG,AFNE01.JPG,1,3,13,1,,,,,,,,,,,,,,,,,,,,,,,AFSA08.jpg,AFNE02.jpg,AFNE07.jpg,AFSA06.jpg,AFSA08.jpg,FS,4,num_8,32,num_4,0.96675156639,,,2018_Mar_02_1145,60.0064090407,FEMA4ImagesEEG,001,203206,
AFNE01.JPG,AFNE01.JPG,AFNE01.JPG,AFNE01.JPG,AFNE01.JPG,AFNE01.JPG,1,4,14,8,,,,,,,,,,,,,,,,,,,,,,,AFNE18.jpg,AFSA12.jpg,AFNE20.jpg,AFSA02.jpg,AFSA02.jpg,FS,4,num_4,16,num_4,0.95011035027,,,2018_Mar_02_1145,60.0064090407,FEMA4ImagesEEG,001,203206,
AFNE01.JPG,AFNE01.JPG,AFNE01.JPG,AFNE01.JPG,AFNE01.JPG,AFNE01.JPG,1,5,15,0,,,,,,,,,,,,,,,,,,,,,,,AFNE04.jpg,AFNE16.jpg,AFSA17.jpg,AFSA13.jpg,AFNE16.jpg,FN,3,num_6,32,num_4,0.816738784779,,,2018_Mar_02_1145,60.0064090407,FEMA4ImagesEEG,001,203206,
AFNE01.JPG,AFNE01.JPG,AFNE01.JPG,AFNE01.JPG,AFNE01.JPG,AFNE01.JPG,1,6,16,7,,,,,,,,,,,,,,,,,,,,,,,AFNE05.jpg,AFNE20.jpg,AFSA12.jpg,AFSA10.jpg,AFNE05.jpg,FN,3,num_8,32,num_4,0.966783639975,,,2018_Mar_02_1145,60.0064090407,FEMA4ImagesEEG,001,203206,
AFNE01.JPG,AFNE01.JPG,AFNE01.JPG,AFNE01.JPG,AFNE01.JPG,AFNE01.JPG,1,7,17,3,,,,,,,,,,,,,,,,,,,,,,,AFNE15.jpg,AFSA02.jpg,AFSA08.jpg,AFNE13.jpg,AFSA02.jpg,FS,4,num_6,32,num_2,0.866792973597,,,2018_Mar_02_1145,60.0064090407,FEMA4ImagesEEG,001,203206,
AFNE01.JPG,AFNE01.JPG,AFNE01.JPG,AFNE01.JPG,AFNE01.JPG,AFNE01.JPG,1,8,18,4,,,,,,,,,,,,,,,,,,,,,,,AFNE05.jpg,AFSA12.jpg,AFNE10.jpg,AFSA19.jpg,AFSA12.jpg,FS,4,num_6,16,num_6,0.983457892202,,,2018_Mar_02_1145,60.0064090407,FEMA4ImagesEEG,001,203206,
AFNE01.JPG,AFNE01.JPG,AFNE01.JPG,AFNE01.JPG,AFNE01.JPG,AFNE01.JPG,1,9,19,5,,,,,,,,,,,,,,,,,,,,,,,AFNE10.jpg,AFSA02.jpg,AFSA01.jpg,AFNE19.jpg,AFSA01.jpg,FS,4,num_2,16,num_2,2.21659945603,,,2018_Mar_02_1145,60.0064090407,FEMA4ImagesEEG,001,203206,
AFNE01.JPG,AFNE01.JPG,AFNE01.JPG,AFNE01.JPG,AFNE01.JPG,AFNE01.JPG,2,0,20,6,,,,,,,,,,,,,,,,,,,,,,,AFSA20.jpg,AFNE01.jpg,AFNE12.jpg,AFSA03.jpg,AFNE01.jpg,FN,3,num_6,32,num_8,0.783463729778,,,2018_Mar_02_1145,60.0064090407,FEMA4ImagesEEG,001,203206,
AFNE01.JPG,AFNE01.JPG,AFNE01.JPG,AFNE01.JPG,AFNE01.JPG,AFNE01.JPG,2,1,21,2,,,,,,,,,,,,,,,,,,,,,,,AFNE02.jpg,AFSA03.jpg,AFNE13.jpg,AFSA19.jpg,AFNE02.jpg,FN,3,num_8,16,num_8,1.23347032093,,,2018_Mar_02_1145,60.0064090407,FEMA4ImagesEEG,001,203206,
AFNE01.JPG,AFNE01.JPG,AFNE01.JPG,AFNE01.JPG,AFNE01.JPG,AFNE01.JPG,2,2,22,3,,,,,,,,,,,,,,,,,,,,,,,AFSA14.jpg,AFNE03.jpg,AFNE18.jpg,AFSA20.jpg,AFSA20.jpg,FS,4,num_4,16,num_4,0.81677599065,,,2018_Mar_02_1145,60.0064090407,FEMA4ImagesEEG,001,203206,
AFNE01.JPG,AFNE01.JPG,AFNE01.JPG,AFNE01.JPG,AFNE01.JPG,AFNE01.JPG,2,3,23,5,,,,,,,,,,,,,,,,,,,,,,,AFNE12.jpg,AFSA08.jpg,AFNE11.jpg,AFSA14.jpg,AFNE11.jpg,FN,3,num_2,32,num_6,1.45013039629,,,2018_Mar_02_1145,60.0064090407,FEMA4ImagesEEG,001,203206,
AFNE01.JPG,AFNE01.JPG,AFNE01.JPG,AFNE01.JPG,AFNE01.JPG,AFNE01.JPG,2,4,24,4,,,,,,,,,,,,,,,,,,,,,,,AFSA04.jpg,AFNE14.jpg,AFSA11.jpg,AFNE08.jpg,AFSA11.jpg,FS,4,num_2,32,num_4,0.916752223857,,,2018_Mar_02_1145,60.0064090407,FEMA4ImagesEEG,001,203206,
AFNE01.JPG,AFNE01.JPG,AFNE01.JPG,AFNE01.JPG,AFNE01.JPG,AFNE01.JPG,2,5,25,7,,,,,,,,,,,,,,,,,,,,,,,AFSA04.jpg,AFNE10.jpg,AFNE02.jpg,AFSA19.jpg,AFSA19.jpg,FS,4,num_4,16,num_4,0.800136698876,,,2018_Mar_02_1145,60.0064090407,FEMA4ImagesEEG,001,203206,
AFNE01.JPG,AFNE01.JPG,AFNE01.JPG,AFNE01.JPG,AFNE01.JPG,AFNE01.JPG,2,6,26,0,,,,,,,,,,,,,,,,,,,,,,,AFNE11.jpg,AFSA03.jpg,AFSA15.jpg,AFNE20.jpg,AFNE11.jpg,FN,3,num_8,32,num_6,1.18339945353,,,2018_Mar_02_1145,60.0064090407,FEMA4ImagesEEG,001,203206,
AFNE01.JPG,AFNE01.JPG,AFNE01.JPG,AFNE01.JPG,AFNE01.JPG,AFNE01.JPG,2,7,27,1,,,,,,,,,,,,,,,,,,,,,,,AFSA01.jpg,AFSA12.jpg,AFNE12.jpg,AFNE13.jpg,AFSA01.jpg,FS,4,num_8,32,num_4,0.86676506931,,,2018_Mar_02_1145,60.0064090407,FEMA4ImagesEEG,001,203206,
AFNE01.JPG,AFNE01.JPG,AFNE01.JPG,AFNE01.JPG,AFNE01.JPG,AFNE01.JPG,2,8,28,8,,,,,,,,,,,,,,,,,,,,,,,AFNE07.jpg,AFSA10.jpg,AFNE06.jpg,AFSA07.jpg,AFSA07.jpg,FS,4,num_4,16,num_4,0.733592362143,,,2018_Mar_02_1145,60.0064090407,FEMA4ImagesEEG,001,203206,
AFNE01.JPG,AFNE01.JPG,AFNE01.JPG,AFNE01.JPG,AFNE01.JPG,AFNE01.JPG,2,9,29,9,,,,,,,,,,,,,,,,,,,,,,,AFNE11.jpg,AFNE14.jpg,AFSA01.jpg,AFSA19.jpg,AFNE11.jpg,FN,3,num_8,32,num_2,0.983457250753,,,2018_Mar_02_1145,60.0064090407,FEMA4ImagesEEG,001,203206,
AFNE01.JPG,AFNE01.JPG,AFNE01.JPG,AFNE01.JPG,AFNE01.JPG,AFNE01.JPG,3,0,30,3,,,,,,,,,,,,,,,,,,,,,,,AFSA10.jpg,AFSA15.jpg,AFNE15.jpg,AFNE06.jpg,AFSA15.jpg,FS,4,num_6,16,num_6,0.950115161249,,,2018_Mar_02_1145,60.0064090407,FEMA4ImagesEEG,001,203206,
AFNE01.JPG,AFNE01.JPG,AFNE01.JPG,AFNE01.JPG,AFNE01.JPG,AFNE01.JPG,3,1,31,2,,,,,,,,,,,,,,,,,,,,,,,AFSA01.jpg,AFSA10.jpg,AFNE15.jpg,AFNE07.jpg,AFSA10.jpg,FS,4,num_6,32,num_4,0.7501440919,,,2018_Mar_02_1145,60.0064090407,FEMA4ImagesEEG,001,203206,
AFNE01.JPG,AFNE01.JPG,AFNE01.JPG,AFNE01.JPG,AFNE01.JPG,AFNE01.JPG,3,2,32,4,,,,,,,,,,,,,,,,,,,,,,,AFSA08.jpg,AFNE15.jpg,AFNE18.jpg,AFSA05.jpg,AFSA05.jpg,FS,4,num_4,16,num_4,0.93344379589,,,2018_Mar_02_1145,60.0064090407,FEMA4ImagesEEG,001,203206,
AFNE01.JPG,AFNE01.JPG,AFNE01.JPG,AFNE01.JPG,AFNE01.JPG,AFNE01.JPG,3,3,33,1,,,,,,,,,,,,,,,,,,,,,,,AFNE05.jpg,AFSA17.jpg,AFNE02.jpg,AFSA09.jpg,AFSA17.jpg,FS,4,num_6,16,num_6,1.01677111536,,,2018_Mar_02_1145,60.0064090407,FEMA4ImagesEEG,001,203206,
AFNE01.JPG,AFNE01.JPG,AFNE01.JPG,AFNE01.JPG,AFNE01.JPG,AFNE01.JPG,3,4,34,7,,,,,,,,,,,,,,,,,,,,,,,AFSA19.jpg,AFSA07.jpg,AFNE02.jpg,AFNE20.jpg,AFSA07.jpg,FS,4,num_6,16,num_6,1.3834157472,,,2018_Mar_02_1145,60.0064090407,FEMA4ImagesEEG,001,203206,
AFNE01.JPG,AFNE01.JPG,AFNE01.JPG,AFNE01.JPG,AFNE01.JPG,AFNE01.JPG,3,5,35,8,,,,,,,,,,,,,,,,,,,,,,,AFSA01.jpg,AFNE07.jpg,AFNE16.jpg,AFSA05.jpg,AFSA01.jpg,FS,4,num_8,32,num_4,0.833471732214,,,2018_Mar_02_1145,60.0064090407,FEMA4ImagesEEG,001,203206,
AFNE01.JPG,AFNE01.JPG,AFNE01.JPG,AFNE01.JPG,AFNE01.JPG,AFNE01.JPG,3,6,36,9,,,,,,,,,,,,,,,,,,,,,,,AFSA14.jpg,AFNE12.jpg,AFNE02.jpg,AFSA05.jpg,AFSA14.jpg,FS,4,num_8,32,num_2,0.750095660333,,,2018_Mar_02_1145,60.0064090407,FEMA4ImagesEEG,001,203206,
AFNE01.JPG,AFNE01.JPG,AFNE01.JPG,AFNE01.JPG,AFNE01.JPG,AFNE01.JPG,3,7,37,0,,,,,,,,,,,,,,,,,,,,,,,AFNE12.jpg,AFSA11.jpg,AFNE17.jpg,AFSA07.jpg,AFSA07.jpg,FS,4,num_4,16,num_4,0.700273365714,,,2018_Mar_02_1145,60.0064090407,FEMA4ImagesEEG,001,203206,
AFNE01.JPG,AFNE01.JPG,AFNE01.JPG,AFNE01.JPG,AFNE01.JPG,AFNE01.JPG,3,8,38,5,,,,,,,,,,,,,,,,,,,,,,,AFSA08.jpg,AFNE04.jpg,AFSA16.jpg,AFNE11.jpg,AFSA16.jpg,FS,4,num_2,32,num_6,0.65017395257,,,2018_Mar_02_1145,60.0064090407,FEMA4ImagesEEG,001,203206,
AFNE01.JPG,AFNE01.JPG,AFNE01.JPG,AFNE01.JPG,AFNE01.JPG,AFNE01.JPG,3,9,39,6,,,,,,,,,,,,,,,,,,,,,,,AFNE09.jpg,AFSA14.jpg,AFSA20.jpg,AFNE18.jpg,AFSA14.jpg,FS,4,num_6,16,num_6,1.6666660253,,,2018_Mar_02_1145,60.0064090407,FEMA4ImagesEEG,001,203206,
AFNE01.JPG,AFNE01.JPG,AFNE01.JPG,AFNE01.JPG,AFNE01.JPG,AFNE01.JPG,4,0,40,4,,,,,,,,,,,,,,,,,,,,,,,AFNE17.jpg,AFNE20.jpg,AFSA04.jpg,AFSA14.jpg,AFNE17.jpg,FN,3,num_8,16,num_8,1.25011666887,,,2018_Mar_02_1145,60.0064090407,FEMA4ImagesEEG,001,203206,
AFNE01.JPG,AFNE01.JPG,AFNE01.JPG,AFNE01.JPG,AFNE01.JPG,AFNE01.JPG,4,1,41,1,,,,,,,,,,,,,,,,,,,,,,,AFSA04.jpg,AFNE02.jpg,AFSA15.jpg,AFNE06.jpg,AFSA04.jpg,FS,4,num_8,32,num_4,0.833440620685,,,2018_Mar_02_1145,60.0064090407,FEMA4ImagesEEG,001,203206,
AFNE01.JPG,AFNE01.JPG,AFNE01.JPG,AFNE01.JPG,AFNE01.JPG,AFNE01.JPG,4,2,42,9,,,,,,,,,,,,,,,,,,,,,,,AFSA16.jpg,AFNE17.jpg,AFSA17.jpg,AFNE13.jpg,AFNE13.jpg,FN,3,num_4,16,num_4,1.08344342699,,,2018_Mar_02_1145,60.0064090407,FEMA4ImagesEEG,001,203206,
AFNE01.JPG,AFNE01.JPG,AFNE01.JPG,AFNE01.JPG,AFNE01.JPG,AFNE01.JPG,4,3,43,5,,,,,,,,,,,,,,,,,,,,,,,AFNE10.jpg,AFSA03.jpg,AFNE15.jpg,AFSA11.jpg,AFSA03.jpg,FS,4,num_6,32,num_4,1.31675530295,,,2018_Mar_02_1145,60.0064090407,FEMA4ImagesEEG,001,203206,
AFNE01.JPG,AFNE01.JPG,AFNE01.JPG,AFNE01.JPG,AFNE01.JPG,AFNE01.JPG,4,4,44,2,,,,,,,,,,,,,,,,,,,,,,,AFSA20.jpg,AFSA16.jpg,AFNE07.jpg,AFNE18.jpg,AFSA20.jpg,FS,4,num_8,32,num_6,1.18345911102,,,2018_Mar_02_1145,60.0064090407,FEMA4ImagesEEG,001,203206,
AFNE01.JPG,AFNE01.JPG,AFNE01.JPG,AFNE01.JPG,AFNE01.JPG,AFNE01.JPG,4,5,45,0,,,,,,,,,,,,,,,,,,,,,,,AFSA12.jpg,AFNE03.jpg,AFNE16.jpg,AFSA08.jpg,AFNE16.jpg,FN,3,num_2,32,num_4,0.750141526107,,,2018_Mar_02_1145,60.0064090407,FEMA4ImagesEEG,001,203206,
AFNE01.JPG,AFNE01.JPG,AFNE01.JPG,AFNE01.JPG,AFNE01.JPG,AFNE01.JPG,4,6,46,6,,,,,,,,,,,,,,,,,,,,,,,AFSA07.jpg,AFNE03.jpg,AFSA19.jpg,AFNE15.jpg,AFSA07.jpg,FS,4,num_8,32,num_4,1.30014391546,,,2018_Mar_02_1145,60.0064090407,FEMA4ImagesEEG,001,203206,
AFNE01.JPG,AFNE01.JPG,AFNE01.JPG,AFNE01.JPG,AFNE01.JPG,AFNE01.JPG,4,7,47,8,,,,,,,,,,,,,,,,,,,,,,,AFNE13.jpg,AFNE14.jpg,AFSA15.jpg,AFSA17.jpg,AFSA17.jpg,FS,4,num_4,16,num_4,1.01682115067,,,2018_Mar_02_1145,60.0064090407,FEMA4ImagesEEG,001,203206,
AFNE01.JPG,AFNE01.JPG,AFNE01.JPG,AFNE01.JPG,AFNE01.JPG,AFNE01.JPG,4,8,48,7,,,,,,,,,,,,,,,,,,,,,,,AFSA18.jpg,AFNE15.jpg,AFNE10.jpg,AFSA01.jpg,AFNE10.jpg,FN,3,num_2,32,num_6,1.03344985773,,,2018_Mar_02_1145,60.0064090407,FEMA4ImagesEEG,001,203206,
AFNE01.JPG,AFNE01.JPG,AFNE01.JPG,AFNE01.JPG,AFNE01.JPG,AFNE01.JPG,4,9,49,3,,,,,,,,,,,,,,,,,,,,,,,AFNE14.jpg,AFSA12.jpg,AFSA14.jpg,AFNE03.jpg,AFNE03.jpg,FN,3,num_4,16,num_4,0.800146321068,,,2018_Mar_02_1145,60.0064090407,FEMA4ImagesEEG,001,203206,
AFNE01.JPG,AFNE01.JPG,AFNE01.JPG,AFNE01.JPG,AFNE01.JPG,AFNE01.JPG,5,0,50,9,,,,,,,,,,,,,,,,,,,,,,,AFNE07.jpg,AFSA02.jpg,AFSA20.jpg,AFNE08.jpg,AFSA02.jpg,FS,4,num_6,16,num_6,0.88351116702,,,2018_Mar_02_1145,60.0064090407,FEMA4ImagesEEG,001,203206,
AFNE01.JPG,AFNE01.JPG,AFNE01.JPG,AFNE01.JPG,AFNE01.JPG,AFNE01.JPG,5,1,51,7,,,,,,,,,,,,,,,,,,,,,,,AFNE04.jpg,AFSA10.jpg,AFNE16.jpg,AFSA13.jpg,AFSA13.jpg,FS,4,num_4,16,num_4,0.833474298008,,,2018_Mar_02_1145,60.0064090407,FEMA4ImagesEEG,001,203206,
AFNE01.JPG,AFNE01.JPG,AFNE01.JPG,AFNE01.JPG,AFNE01.JPG,AFNE01.JPG,5,2,52,5,,,,,,,,,,,,,,,,,,,,,,,AFNE14.jpg,AFNE01.jpg,AFSA11.jpg,AFSA12.jpg,AFSA11.jpg,FS,4,num_2,16,num_2,0.76681674039,,,2018_Mar_02_1145,60.0064090407,FEMA4ImagesEEG,001,203206,
AFNE01.JPG,AFNE01.JPG,AFNE01.JPG,AFNE01.JPG,AFNE01.JPG,AFNE01.JPG,5,3,53,4,,,,,,,,,,,,,,,,,,,,,,,AFNE16.jpg,AFSA01.jpg,AFNE06.jpg,AFSA15.jpg,AFSA01.jpg,FS,4,num_6,32,num_2,1.03344408446,,,2018_Mar_02_1145,60.0064090407,FEMA4ImagesEEG,001,203206,
AFNE01.JPG,AFNE01.JPG,AFNE01.JPG,AFNE01.JPG,AFNE01.JPG,AFNE01.JPG,5,4,54,1,,,,,,,,,,,,,,,,,,,,,,,AFSA19.jpg,AFNE15.jpg,AFNE19.jpg,AFSA07.jpg,AFSA19.jpg,FS,4,num_8,32,num_4,1.58337110048,,,2018_Mar_02_1145,60.0064090407,FEMA4ImagesEEG,001,203206,
AFNE01.JPG,AFNE01.JPG,AFNE01.JPG,AFNE01.JPG,AFNE01.JPG,AFNE01.JPG,5,5,55,3,,,,,,,,,,,,,,,,,,,,,,,AFSA14.jpg,AFNE10.jpg,AFSA13.jpg,AFNE03.jpg,AFNE03.jpg,FN,3,num_4,16,num_4,2.01674449397,,,2018_Mar_02_1145,60.0064090407,FEMA4ImagesEEG,001,203206,
AFNE01.JPG,AFNE01.JPG,AFNE01.JPG,AFNE01.JPG,AFNE01.JPG,AFNE01.JPG,5,6,56,6,,,,,,,,,,,,,,,,,,,,,,,AFNE07.jpg,AFSA05.jpg,AFSA09.jpg,AFNE19.jpg,AFSA05.jpg,FS,4,num_6,16,num_6,0.783458918566,,,2018_Mar_02_1145,60.0064090407,FEMA4ImagesEEG,001,203206,
AFNE01.JPG,AFNE01.JPG,AFNE01.JPG,AFNE01.JPG,AFNE01.JPG,AFNE01.JPG,5,7,57,8,,,,,,,,,,,,,,,,,,,,,,,AFNE04.jpg,AFSA17.jpg,AFSA15.jpg,AFNE17.jpg,AFSA15.jpg,FS,4,num_2,32,num_8,1.26672869758,,,2018_Mar_02_1145,60.0064090407,FEMA4ImagesEEG,001,203206,
AFNE01.JPG,AFNE01.JPG,AFNE01.JPG,AFNE01.JPG,AFNE01.JPG,AFNE01.JPG,5,8,58,2,,,,,,,,,,,,,,,,,,,,,,,AFSA08.jpg,AFNE19.jpg,AFSA07.jpg,AFNE01.jpg,AFNE19.jpg,FN,3,num_6,16,num_6,0.983524606097,,,2018_Mar_02_1145,60.0064090407,FEMA4ImagesEEG,001,203206,
AFNE01.JPG,AFNE01.JPG,AFNE01.JPG,AFNE01.JPG,AFNE01.JPG,AFNE01.JPG,5,9,59,0,,,,,,,,,,,,,,,,,,,,,,,AFNE02.jpg,AFSA11.jpg,AFSA09.jpg,AFNE20.jpg,AFNE02.jpg,FN,3,num_8,32,num_4,0.83328955248,,,2018_Mar_02_1145,60.0064090407,FEMA4ImagesEEG,001,203206,
,,,,,,,,,,,,,,,,,,,,,,,,,,,,,,,,,,,,,,,,,,,space,11.6661165995,2018_Mar_02_1145,60.0064090407,FEMA4ImagesEEG,001,203206,
AFNE01.JPG,AFNE01.JPG,AFNE01.JPG,AFNE01.JPG,AFNE01.JPG,AFNE01.JPG,,,,,0,0,0,8,,,,,,,,,,,,,,,,,,,AMSA08.jpg,AMSA05.jpg,AMNE11.jpg,AMNE08.jpg,AMSA08.jpg,MS,2,num_8,32,num_4,0.800144075882,,,2018_Mar_02_1145,60.0064090407,FEMA4ImagesEEG,001,203206,
AFNE01.JPG,AFNE01.JPG,AFNE01.JPG,AFNE01.JPG,AFNE01.JPG,AFNE01.JPG,,,,,0,1,1,4,,,,,,,,,,,,,,,,,,,AMNE03.jpg,AMSA15.jpg,AMSA17.jpg,AMNE14.jpg,AMNE03.jpg,MN,1,num_8,32,num_6,0.666792717064,,,2018_Mar_02_1145,60.0064090407,FEMA4ImagesEEG,001,203206,
AFNE01.JPG,AFNE01.JPG,AFNE01.JPG,AFNE01.JPG,AFNE01.JPG,AFNE01.JPG,,,,,0,2,2,9,,,,,,,,,,,,,,,,,,,AMSA20.jpg,AMNE05.jpg,AMSA05.jpg,AMNE09.jpg,AMSA20.jpg,MS,2,num_8,16,num_8,1.21681306791,,,2018_Mar_02_1145,60.0064090407,FEMA4ImagesEEG,001,203206,
AFNE01.JPG,AFNE01.JPG,AFNE01.JPG,AFNE01.JPG,AFNE01.JPG,AFNE01.JPG,,,,,0,3,3,7,,,,,,,,,,,,,,,,,,,AMSA10.jpg,AMNE04.jpg,AMSA03.jpg,AMNE20.jpg,AMNE04.jpg,MN,1,num_6,32,num_2,0.866820557276,,,2018_Mar_02_1145,60.0064090407,FEMA4ImagesEEG,001,203206,
AFNE01.JPG,AFNE01.JPG,AFNE01.JPG,AFNE01.JPG,AFNE01.JPG,AFNE01.JPG,,,,,0,4,4,5,,,,,,,,,,,,,,,,,,,AMSA03.jpg,AMNE10.jpg,AMSA07.jpg,AMNE04.jpg,AMSA03.jpg,MS,2,num_8,32,num_4,0.7168789797,,,2018_Mar_02_1145,60.0064090407,FEMA4ImagesEEG,001,203206,
AFNE01.JPG,AFNE01.JPG,AFNE01.JPG,AFNE01.JPG,AFNE01.JPG,AFNE01.JPG,,,,,0,5,5,2,,,,,,,,,,,,,,,,,,,AMNE11.jpg,AMSA20.jpg,AMNE13.jpg,AMSA11.jpg,AMSA20.jpg,MS,2,num_6,16,num_6,0.700160465669,,,2018_Mar_02_1145,60.0064090407,FEMA4ImagesEEG,001,203206,
AFNE01.JPG,AFNE01.JPG,AFNE01.JPG,AFNE01.JPG,AFNE01.JPG,AFNE01.JPG,,,,,0,6,6,6,,,,,,,,,,,,,,,,,,,AMSA20.jpg,AMSA12.jpg,AMNE04.jpg,AMNE14.jpg,AMNE04.jpg,MN,1,num_2,16,num_2,0.816505286843,,,2018_Mar_02_1145,60.0064090407,FEMA4ImagesEEG,001,203206,
AFNE01.JPG,AFNE01.JPG,AFNE01.JPG,AFNE01.JPG,AFNE01.JPG,AFNE01.JPG,,,,,0,7,7,3,,,,,,,,,,,,,,,,,,,AMSA05.jpg,AMNE06.jpg,AMNE02.jpg,AMSA19.jpg,AMNE06.jpg,MN,1,num_6,16,num_6,1.08347902889,,,2018_Mar_02_1145,60.0064090407,FEMA4ImagesEEG,001,203206,
AFNE01.JPG,AFNE01.JPG,AFNE01.JPG,AFNE01.JPG,AFNE01.JPG,AFNE01.JPG,,,,,0,8,8,1,,,,,,,,,,,,,,,,,,,AMNE19.jpg,AMSA18.jpg,AMSA03.jpg,AMNE06.jpg,AMSA03.jpg,MS,2,num_2,16,num_2,1.03342836816,,,2018_Mar_02_1145,60.0064090407,FEMA4ImagesEEG,001,203206,
AFNE01.JPG,AFNE01.JPG,AFNE01.JPG,AFNE01.JPG,AFNE01.JPG,AFNE01.JPG,,,,,0,9,9,0,,,,,,,,,,,,,,,,,,,AMSA05.jpg,AMSA01.jpg,AMNE09.jpg,AMNE12.jpg,AMSA01.jpg,MS,2,num_6,32,num_2,1.46672735061,,,2018_Mar_02_1145,60.0064090407,FEMA4ImagesEEG,001,203206,
AFNE01.JPG,AFNE01.JPG,AFNE01.JPG,AFNE01.JPG,AFNE01.JPG,AFNE01.JPG,,,,,1,0,10,0,,,,,,,,,,,,,,,,,,,AMNE19.jpg,AMNE11.jpg,AMSA01.jpg,AMSA17.jpg,AMSA01.jpg,MS,2,num_2,16,num_2,0.650152142392,,,2018_Mar_02_1145,60.0064090407,FEMA4ImagesEEG,001,203206,
AFNE01.JPG,AFNE01.JPG,AFNE01.JPG,AFNE01.JPG,AFNE01.JPG,AFNE01.JPG,,,,,1,1,11,9,,,,,,,,,,,,,,,,,,,AMNE13.jpg,AMSA11.jpg,AMNE04.jpg,AMSA18.jpg,AMSA18.jpg,MS,2,num_4,32,num_6,1.28348024772,,,2018_Mar_02_1145,60.0064090407,FEMA4ImagesEEG,001,203206,
AFNE01.JPG,AFNE01.JPG,AFNE01.JPG,AFNE01.JPG,AFNE01.JPG,AFNE01.JPG,,,,,1,2,12,7,,,,,,,,,,,,,,,,,,,AMNE18.jpg,AMSA20.jpg,AMNE07.jpg,AMSA11.jpg,AMSA20.jpg,MS,2,num_6,16,num_6,1.11674093385,,,2018_Mar_02_1145,60.0064090407,FEMA4ImagesEEG,001,203206,
AFNE01.JPG,AFNE01.JPG,AFNE01.JPG,AFNE01.JPG,AFNE01.JPG,AFNE01.JPG,,,,,1,3,13,5,,,,,,,,,,,,,,,,,,,AMNE02.jpg,AMNE11.jpg,AMSA20.jpg,AMSA12.jpg,AMSA20.jpg,MS,2,num_2,32,num_8,1.88338960707,,,2018_Mar_02_1145,60.0064090407,FEMA4ImagesEEG,001,203206,
AFNE01.JPG,AFNE01.JPG,AFNE01.JPG,AFNE01.JPG,AFNE01.JPG,AFNE01.JPG,,,,,1,4,14,3,,,,,,,,,,,,,,,,,,,AMNE14.jpg,AMNE20.jpg,AMSA18.jpg,AMSA11.jpg,AMSA18.jpg,MS,2,num_2,16,num_2,0.933458229061,,,2018_Mar_02_1145,60.0064090407,FEMA4ImagesEEG,001,203206,
AFNE01.JPG,AFNE01.JPG,AFNE01.JPG,AFNE01.JPG,AFNE01.JPG,AFNE01.JPG,,,,,1,5,15,1,,,,,,,,,,,,,,,,,,,AMSA14.jpg,AMNE04.jpg,AMNE03.jpg,AMSA19.jpg,AMSA14.jpg,MS,2,num_8,32,num_2,0.816752897343,,,2018_Mar_02_1145,60.0064090407,FEMA4ImagesEEG,001,203206,
AFNE01.JPG,AFNE01.JPG,AFNE01.JPG,AFNE01.JPG,AFNE01.JPG,AFNE01.JPG,,,,,1,6,16,6,,,,,,,,,,,,,,,,,,,AMSA01.jpg,AMNE08.jpg,AMSA18.jpg,AMNE04.jpg,AMSA01.jpg,MS,2,num_8,32,num_4,1.06674415711,,,2018_Mar_02_1145,60.0064090407,FEMA4ImagesEEG,001,203206,
AFNE01.JPG,AFNE01.JPG,AFNE01.JPG,AFNE01.JPG,AFNE01.JPG,AFNE01.JPG,,,,,1,7,17,4,,,,,,,,,,,,,,,,,,,AMSA19.jpg,AMNE05.jpg,AMSA01.jpg,AMNE11.jpg,AMNE11.jpg,MN,1,num_4,16,num_4,2.11669442663,,,2018_Mar_02_1145,60.0064090407,FEMA4ImagesEEG,001,203206,
AFNE01.JPG,AFNE01.JPG,AFNE01.JPG,AFNE01.JPG,AFNE01.JPG,AFNE01.JPG,,,,,1,8,18,2,,,,,,,,,,,,,,,,,,,AMNE12.jpg,AMSA17.jpg,AMSA15.jpg,AMNE13.jpg,AMSA15.jpg,MS,2,num_2,32,num_8,1.06677847612,,,2018_Mar_02_1145,60.0064090407,FEMA4ImagesEEG,001,203206,
AFNE01.JPG,AFNE01.JPG,AFNE01.JPG,AFNE01.JPG,AFNE01.JPG,AFNE01.JPG,,,,,1,9,19,8,,,,,,,,,,,,,,,,,,,AMSA03.jpg,AMSA17.jpg,AMNE04.jpg,AMNE12.jpg,AMSA03.jpg,MS,2,num_8,32,num_2,1.21680889837,,,2018_Mar_02_1145,60.0064090407,FEMA4ImagesEEG,001,203206,
AFNE01.JPG,AFNE01.JPG,AFNE01.JPG,AFNE01.JPG,AFNE01.JPG,AFNE01.JPG,,,,,2,0,20,6,,,,,,,,,,,,,,,,,,,AMNE01.jpg,AMSA15.jpg,AMNE03.jpg,AMSA06.jpg,AMSA15.jpg,MS,2,num_6,32,num_4,0.716830227291,,,2018_Mar_02_1145,60.0064090407,FEMA4ImagesEEG,001,203206,
AFNE01.JPG,AFNE01.JPG,AFNE01.JPG,AFNE01.JPG,AFNE01.JPG,AFNE01.JPG,,,,,2,1,21,5,,,,,,,,,,,,,,,,,,,AMSA01.jpg,AMNE02.jpg,AMNE19.jpg,AMSA15.jpg,AMSA01.jpg,MS,2,num_8,16,num_8,0.833435809473,,,2018_Mar_02_1145,60.0064090407,FEMA4ImagesEEG,001,203206,
AFNE01.JPG,AFNE01.JPG,AFNE01.JPG,AFNE01.JPG,AFNE01.JPG,AFNE01.JPG,,,,,2,2,22,0,,,,,,,,,,,,,,,,,,,AMSA18.jpg,AMNE20.jpg,AMSA03.jpg,AMNE10.jpg,AMSA03.jpg,MS,2,num_2,32,num_6,1.53331947746,,,2018_Mar_02_1145,60.0064090407,FEMA4ImagesEEG,001,203206,
AFNE01.JPG,AFNE01.JPG,AFNE01.JPG,AFNE01.JPG,AFNE01.JPG,AFNE01.JPG,,,,,2,3,23,8,,,,,,,,,,,,,,,,,,,AMSA14.jpg,AMNE03.jpg,AMNE16.jpg,AMSA10.jpg,AMSA14.jpg,MS,2,num_8,16,num_8,0.833471411373,,,2018_Mar_02_1145,60.0064090407,FEMA4ImagesEEG,001,203206,
AFNE01.JPG,AFNE01.JPG,AFNE01.JPG,AFNE01.JPG,AFNE01.JPG,AFNE01.JPG,,,,,2,4,24,1,,,,,,,,,,,,,,,,,,,AMSA03.jpg,AMSA14.jpg,AMNE10.jpg,AMNE18.jpg,AMNE10.jpg,MN,1,num_2,32,num_4,0.866777578369,,,2018_Mar_02_1145,60.0064090407,FEMA4ImagesEEG,001,203206,
AFNE01.JPG,AFNE01.JPG,AFNE01.JPG,AFNE01.JPG,AFNE01.JPG,AFNE01.JPG,,,,,2,5,25,2,,,,,,,,,,,,,,,,,,,AMSA02.jpg,AMSA20.jpg,AMNE02.jpg,AMNE12.jpg,AMSA02.jpg,MS,2,num_8,32,num_2,1.45011403877,,,2018_Mar_02_1145,60.0064090407,FEMA4ImagesEEG,001,203206,
AFNE01.JPG,AFNE01.JPG,AFNE01.JPG,AFNE01.JPG,AFNE01.JPG,AFNE01.JPG,,,,,2,6,26,9,,,,,,,,,,,,,,,,,,,AMSA06.jpg,AMNE13.jpg,AMSA01.jpg,AMNE06.jpg,AMSA01.jpg,MS,2,num_2,32,num_8,3.44988727616,,,2018_Mar_02_1145,60.0064090407,FEMA4ImagesEEG,001,203206,
AFNE01.JPG,AFNE01.JPG,AFNE01.JPG,AFNE01.JPG,AFNE01.JPG,AFNE01.JPG,,,,,2,7,27,4,,,,,,,,,,,,,,,,,,,AMSA01.jpg,AMNE09.jpg,AMSA02.jpg,AMNE15.jpg,AMSA01.jpg,MS,2,num_8,16,num_8,0.850075421855,,,2018_Mar_02_1145,60.0064090407,FEMA4ImagesEEG,001,203206,
AFNE01.JPG,AFNE01.JPG,AFNE01.JPG,AFNE01.JPG,AFNE01.JPG,AFNE01.JPG,,,,,2,8,28,7,,,,,,,,,,,,,,,,,,,AMNE09.jpg,AMSA01.jpg,AMSA18.jpg,AMNE03.jpg,AMSA18.jpg,MS,2,num_2,16,num_2,1.21674892004,,,2018_Mar_02_1145,60.0064090407,FEMA4ImagesEEG,001,203206,
AFNE01.JPG,AFNE01.JPG,AFNE01.JPG,AFNE01.JPG,AFNE01.JPG,AFNE01.JPG,,,,,2,9,29,3,,,,,,,,,,,,,,,,,,,AMNE12.jpg,AMSA19.jpg,AMSA16.jpg,AMNE03.jpg,AMSA19.jpg,MS,2,num_6,32,num_8,0.950123500545,,,2018_Mar_02_1145,60.0064090407,FEMA4ImagesEEG,001,203206,
AFNE01.JPG,AFNE01.JPG,AFNE01.JPG,AFNE01.JPG,AFNE01.JPG,AFNE01.JPG,,,,,3,0,30,5,,,,,,,,,,,,,,,,,,,AMSA18.jpg,AMNE06.jpg,AMSA19.jpg,AMNE20.jpg,AMNE20.jpg,MN,1,num_4,32,num_6,0.81678080163,,,2018_Mar_02_1145,60.0064090407,FEMA4ImagesEEG,001,203206,
AFNE01.JPG,AFNE01.JPG,AFNE01.JPG,AFNE01.JPG,AFNE01.JPG,AFNE01.JPG,,,,,3,1,31,8,,,,,,,,,,,,,,,,,,,AMNE15.jpg,AMSA07.jpg,AMSA16.jpg,AMNE08.jpg,AMNE15.jpg,MN,1,num_8,32,num_4,0.783510878449,,,2018_Mar_02_1145,60.0064090407,FEMA4ImagesEEG,001,203206,
AFNE01.JPG,AFNE01.JPG,AFNE01.JPG,AFNE01.JPG,AFNE01.JPG,AFNE01.JPG,,,,,3,2,32,1,,,,,,,,,,,,,,,,,,,AMNE06.jpg,AMSA20.jpg,AMNE05.jpg,AMSA13.jpg,AMNE06.jpg,MN,1,num_8,32,num_4,1.15010483353,,,2018_Mar_02_1145,60.0064090407,FEMA4ImagesEEG,001,203206,
AFNE01.JPG,AFNE01.JPG,AFNE01.JPG,AFNE01.JPG,AFNE01.JPG,AFNE01.JPG,,,,,3,3,33,4,,,,,,,,,,,,,,,,,,,AMSA11.jpg,AMNE04.jpg,AMNE07.jpg,AMSA19.jpg,AMNE07.jpg,MN,1,num_2,32,num_4,1.50009958958,,,2018_Mar_02_1145,60.0064090407,FEMA4ImagesEEG,001,203206,
AFNE01.JPG,AFNE01.JPG,AFNE01.JPG,AFNE01.JPG,AFNE01.JPG,AFNE01.JPG,,,,,3,4,34,3,,,,,,,,,,,,,,,,,,,AMNE06.jpg,AMNE13.jpg,AMSA03.jpg,AMSA01.jpg,AMNE13.jpg,MN,1,num_6,32,num_2,0.683594302507,,,2018_Mar_02_1145,60.0064090407,FEMA4ImagesEEG,001,203206,
AFNE01.JPG,AFNE01.JPG,AFNE01.JPG,AFNE01.JPG,AFNE01.JPG,AFNE01.JPG,,,,,3,5,35,9,,,,,,,,,,,,,,,,,,,AMNE06.jpg,AMSA10.jpg,AMSA19.jpg,AMNE18.jpg,AMNE06.jpg,MN,1,num_8,32,num_4,0.900111328578,,,2018_Mar_02_1145,60.0064090407,FEMA4ImagesEEG,001,203206,
AFNE01.JPG,AFNE01.JPG,AFNE01.JPG,AFNE01.JPG,AFNE01.JPG,AFNE01.JPG,,,,,3,6,36,0,,,,,,,,,,,,,,,,,,,AMNE05.jpg,AMNE10.jpg,AMSA12.jpg,AMSA01.jpg,AMSA01.jpg,MS,2,num_4,16,num_4,1.21678291843,,,2018_Mar_02_1145,60.0064090407,FEMA4ImagesEEG,001,203206,
AFNE01.JPG,AFNE01.JPG,AFNE01.JPG,AFNE01.JPG,AFNE01.JPG,AFNE01.JPG,,,,,3,7,37,7,,,,,,,,,,,,,,,,,,,AMNE12.jpg,AMNE18.jpg,AMSA15.jpg,AMSA17.jpg,AMSA17.jpg,MS,2,num_4,32,num_6,0.716794945998,,,2018_Mar_02_1145,60.0064090407,FEMA4ImagesEEG,001,203206,
AFNE01.JPG,AFNE01.JPG,AFNE01.JPG,AFNE01.JPG,AFNE01.JPG,AFNE01.JPG,,,,,3,8,38,2,,,,,,,,,,,,,,,,,,,AMSA03.jpg,AMSA20.jpg,AMNE10.jpg,AMNE16.jpg,AMSA03.jpg,MS,2,num_8,16,num_8,1.38314408134,,,2018_Mar_02_1145,60.0064090407,FEMA4ImagesEEG,001,203206,
AFNE01.JPG,AFNE01.JPG,AFNE01.JPG,AFNE01.JPG,AFNE01.JPG,AFNE01.JPG,,,,,3,9,39,6,,,,,,,,,,,,,,,,,,,AMNE02.jpg,AMNE01.jpg,AMSA05.jpg,AMSA09.jpg,AMSA09.jpg,MS,2,num_4,16,num_4,0.916808673879,,,2018_Mar_02_1145,60.0064090407,FEMA4ImagesEEG,001,203206,
AFNE01.JPG,AFNE01.JPG,AFNE01.JPG,AFNE01.JPG,AFNE01.JPG,AFNE01.JPG,,,,,4,0,40,9,,,,,,,,,,,,,,,,,,,AMSA06.jpg,AMNE18.jpg,AMNE16.jpg,AMSA05.jpg,AMSA06.jpg,MS,2,num_8,16,num_8,1.08355825138,,,2018_Mar_02_1145,60.0064090407,FEMA4ImagesEEG,001,203206,
AFNE01.JPG,AFNE01.JPG,AFNE01.JPG,AFNE01.JPG,AFNE01.JPG,AFNE01.JPG,,,,,4,1,41,0,,,,,,,,,,,,,,,,,,,AMNE15.jpg,AMSA01.jpg,AMNE19.jpg,AMSA04.jpg,AMSA04.jpg,MS,2,num_4,16,num_4,1.45016663987,,,2018_Mar_02_1145,60.0064090407,FEMA4ImagesEEG,001,203206,
AFNE01.JPG,AFNE01.JPG,AFNE01.JPG,AFNE01.JPG,AFNE01.JPG,AFNE01.JPG,,,,,4,2,42,3,,,,,,,,,,,,,,,,,,,AMNE15.jpg,AMNE20.jpg,AMSA08.jpg,AMSA03.jpg,AMSA03.jpg,MS,2,num_4,32,num_2,2.88346979162,,,2018_Mar_02_1145,60.0064090407,FEMA4ImagesEEG,001,203206,
AFNE01.JPG,AFNE01.JPG,AFNE01.JPG,AFNE01.JPG,AFNE01.JPG,AFNE01.JPG,,,,,4,3,43,4,,,,,,,,,,,,,,,,,,,AMSA15.jpg,AMSA19.jpg,AMNE19.jpg,AMNE11.jpg,AMSA15.jpg,MS,2,num_8,32,num_4,1.6668356962,,,2018_Mar_02_1145,60.0064090407,FEMA4ImagesEEG,001,203206,
AFNE01.JPG,AFNE01.JPG,AFNE01.JPG,AFNE01.JPG,AFNE01.JPG,AFNE01.JPG,,,,,4,4,44,7,,,,,,,,,,,,,,,,,,,AMNE05.jpg,AMSA19.jpg,AMNE06.jpg,AMSA14.jpg,AMSA19.jpg,MS,2,num_6,32,num_8,0.683492949,,,2018_Mar_02_1145,60.0064090407,FEMA4ImagesEEG,001,203206,
AFNE01.JPG,AFNE01.JPG,AFNE01.JPG,AFNE01.JPG,AFNE01.JPG,AFNE01.JPG,,,,,4,5,45,2,,,,,,,,,,,,,,,,,,,AMSA16.jpg,AMNE06.jpg,AMNE17.jpg,AMSA06.jpg,AMNE17.jpg,MN,1,num_2,32,num_4,0.766746498644,,,2018_Mar_02_1145,60.0064090407,FEMA4ImagesEEG,001,203206,
AFNE01.JPG,AFNE01.JPG,AFNE01.JPG,AFNE01.JPG,AFNE01.JPG,AFNE01.JPG,,,,,4,6,46,8,,,,,,,,,,,,,,,,,,,AMNE18.jpg,AMSA04.jpg,AMNE14.jpg,AMSA19.jpg,AMSA19.jpg,MS,2,num_4,32,num_8,0.800089871045,,,2018_Mar_02_1145,60.0064090407,FEMA4ImagesEEG,001,203206,
AFNE01.JPG,AFNE01.JPG,AFNE01.JPG,AFNE01.JPG,AFNE01.JPG,AFNE01.JPG,,,,,4,7,47,5,,,,,,,,,,,,,,,,,,,AMNE20.jpg,AMSA04.jpg,AMNE06.jpg,AMSA18.jpg,AMSA18.jpg,MS,2,num_4,16,num_4,0.733475934016,,,2018_Mar_02_1145,60.0064090407,FEMA4ImagesEEG,001,203206,
AFNE01.JPG,AFNE01.JPG,AFNE01.JPG,AFNE01.JPG,AFNE01.JPG,AFNE01.JPG,,,,,4,8,48,6,,,,,,,,,,,,,,,,,,,AMNE20.jpg,AMSA11.jpg,AMSA07.jpg,AMNE04.jpg,AMNE20.jpg,MN,1,num_8,16,num_8,0.833438054658,,,2018_Mar_02_1145,60.0064090407,FEMA4ImagesEEG,001,203206,
AFNE01.JPG,AFNE01.JPG,AFNE01.JPG,AFNE01.JPG,AFNE01.JPG,AFNE01.JPG,,,,,4,9,49,1,,,,,,,,,,,,,,,,,,,AMNE17.jpg,AMNE15.jpg,AMSA09.jpg,AMSA07.jpg,AMSA07.jpg,MS,2,num_4,16,num_4,0.650122955209,,,2018_Mar_02_1145,60.0064090407,FEMA4ImagesEEG,001,203206,
AFNE01.JPG,AFNE01.JPG,AFNE01.JPG,AFNE01.JPG,AFNE01.JPG,AFNE01.JPG,,,,,5,0,50,3,,,,,,,,,,,,,,,,,,,AMNE07.jpg,AMSA04.jpg,AMSA05.jpg,AMNE11.jpg,AMNE07.jpg,MN,1,num_8,32,num_4,0.983419082826,,,2018_Mar_02_1145,60.0064090407,FEMA4ImagesEEG,001,203206,
AFNE01.JPG,AFNE01.JPG,AFNE01.JPG,AFNE01.JPG,AFNE01.JPG,AFNE01.JPG,,,,,5,1,51,8,,,,,,,,,,,,,,,,,,,AMNE18.jpg,AMSA14.jpg,AMNE02.jpg,AMSA16.jpg,AMNE02.jpg,MN,1,num_2,16,num_2,0.983453722671,,,2018_Mar_02_1145,60.0064090407,FEMA4ImagesEEG,001,203206,
AFNE01.JPG,AFNE01.JPG,AFNE01.JPG,AFNE01.JPG,AFNE01.JPG,AFNE01.JPG,,,,,5,2,52,9,,,,,,,,,,,,,,,,,,,AMNE19.jpg,AMSA18.jpg,AMNE05.jpg,AMSA20.jpg,AMSA20.jpg,MS,2,num_4,32,num_8,1.26675403607,,,2018_Mar_02_1145,60.0064090407,FEMA4ImagesEEG,001,203206,
AFNE01.JPG,AFNE01.JPG,AFNE01.JPG,AFNE01.JPG,AFNE01.JPG,AFNE01.JPG,,,,,5,3,53,2,,,,,,,,,,,,,,,,,,,AMSA01.jpg,AMSA19.jpg,AMNE04.jpg,AMNE13.jpg,AMSA01.jpg,MS,2,num_8,32,num_2,1.18344467785,,,2018_Mar_02_1145,60.0064090407,FEMA4ImagesEEG,001,203206,
AFNE01.JPG,AFNE01.JPG,AFNE01.JPG,AFNE01.JPG,AFNE01.JPG,AFNE01.JPG,,,,,5,4,54,0,,,,,,,,,,,,,,,,,,,AMNE15.jpg,AMNE04.jpg,AMSA16.jpg,AMSA20.jpg,AMNE04.jpg,MN,1,num_6,16,num_6,0.950161347631,,,2018_Mar_02_1145,60.0064090407,FEMA4ImagesEEG,001,203206,
AFNE01.JPG,AFNE01.JPG,AFNE01.JPG,AFNE01.JPG,AFNE01.JPG,AFNE01.JPG,,,,,5,5,55,4,,,,,,,,,,,,,,,,,,,AMNE11.jpg,AMSA07.jpg,AMNE09.jpg,AMSA05.jpg,AMNE09.jpg,MN,1,num_2,32,num_4,0.766777289333,,,2018_Mar_02_1145,60.0064090407,FEMA4ImagesEEG,001,203206,
AFNE01.JPG,AFNE01.JPG,AFNE01.JPG,AFNE01.JPG,AFNE01.JPG,AFNE01.JPG,,,,,5,6,56,5,,,,,,,,,,,,,,,,,,,AMNE13.jpg,AMNE14.jpg,AMSA12.jpg,AMSA20.jpg,AMSA12.jpg,MS,2,num_2,32,num_4,0.766827966319,,,2018_Mar_02_1145,60.0064090407,FEMA4ImagesEEG,001,203206,
AFNE01.JPG,AFNE01.JPG,AFNE01.JPG,AFNE01.JPG,AFNE01.JPG,AFNE01.JPG,,,,,5,7,57,7,,,,,,,,,,,,,,,,,,,AMSA13.jpg,AMNE20.jpg,AMNE15.jpg,AMSA20.jpg,AMNE15.jpg,MN,1,num_2,16,num_2,0.533342570532,,,2018_Mar_02_1145,60.0064090407,FEMA4ImagesEEG,001,203206,
AFNE01.JPG,AFNE01.JPG,AFNE01.JPG,AFNE01.JPG,AFNE01.JPG,AFNE01.JPG,,,,,5,8,58,1,,,,,,,,,,,,,,,,,,,AMSA01.jpg,AMNE01.jpg,AMNE06.jpg,AMSA20.jpg,AMSA01.jpg,MS,2,num_8,32,num_4,0.750163015677,,,2018_Mar_02_1145,60.0064090407,FEMA4ImagesEEG,001,203206,
AFNE01.JPG,AFNE01.JPG,AFNE01.JPG,AFNE01.JPG,AFNE01.JPG,AFNE01.JPG,,,,,5,9,59,6,,,,,,,,,,,,,,,,,,,AMSA16.jpg,AMNE18.jpg,AMNE08.jpg,AMSA05.jpg,AMSA16.jpg,MS,2,num_8,16,num_8,0.816836289363,,,2018_Mar_02_1145,60.0064090407,FEMA4ImagesEEG,001,203206,
,,,,,,,,,,,,,,,,,,,,,,,,,,,,,,,,,,,,,,,,,,,space,2.63327935291,2018_Mar_02_1145,60.0064090407,FEMA4ImagesEEG,001,203206,
AFNE01.JPG,AFNE01.JPG,AFNE01.JPG,AFNE01.JPG,AFNE01.JPG,AFNE01.JPG,,,,,,,,,0,0,0,9,,,,,,,,,,,,,,,AFNE07.jpg,AFNE12.jpg,AFSA03.jpg,AFSA15.jpg,AFSA03.jpg,FS,4,num_2,16,num_2,1.13345078798,,,2018_Mar_02_1145,60.0064090407,FEMA4ImagesEEG,001,203206,
AFNE01.JPG,AFNE01.JPG,AFNE01.JPG,AFNE01.JPG,AFNE01.JPG,AFNE01.JPG,,,,,,,,,0,1,1,8,,,,,,,,,,,,,,,AFNE18.jpg,AFSA15.jpg,AFNE19.jpg,AFSA08.jpg,AFSA15.jpg,FS,4,num_6,16,num_6,1.18342415057,,,2018_Mar_02_1145,60.0064090407,FEMA4ImagesEEG,001,203206,
AFNE01.JPG,AFNE01.JPG,AFNE01.JPG,AFNE01.JPG,AFNE01.JPG,AFNE01.JPG,,,,,,,,,0,2,2,3,,,,,,,,,,,,,,,AFSA18.jpg,AFNE10.jpg,AFNE04.jpg,AFSA06.jpg,AFNE10.jpg,FN,3,num_6,16,num_6,0.866764427861,,,2018_Mar_02_1145,60.0064090407,FEMA4ImagesEEG,001,203206,
AFNE01.JPG,AFNE01.JPG,AFNE01.JPG,AFNE01.JPG,AFNE01.JPG,AFNE01.JPG,,,,,,,,,0,3,3,0,,,,,,,,,,,,,,,AFSA18.jpg,AFNE10.jpg,AFNE07.jpg,AFSA16.jpg,AFSA16.jpg,FS,4,num_4,16,num_4,0.81673269067,,,2018_Mar_02_1145,60.0064090407,FEMA4ImagesEEG,001,203206,
AFNE01.JPG,AFNE01.JPG,AFNE01.JPG,AFNE01.JPG,AFNE01.JPG,AFNE01.JPG,,,,,,,,,0,4,4,4,,,,,,,,,,,,,,,AFNE07.jpg,AFNE20.jpg,AFSA06.jpg,AFSA10.jpg,AFSA06.jpg,FS,4,num_2,16,num_2,0.516831253888,,,2018_Mar_02_1145,60.0064090407,FEMA4ImagesEEG,001,203206,
AFNE01.JPG,AFNE01.JPG,AFNE01.JPG,AFNE01.JPG,AFNE01.JPG,AFNE01.JPG,,,,,,,,,0,5,5,5,,,,,,,,,,,,,,,AFNE16.jpg,AFSA09.jpg,AFSA02.jpg,AFNE15.jpg,AFNE15.jpg,FN,3,num_4,16,num_4,0.683536890196,,,2018_Mar_02_1145,60.0064090407,FEMA4ImagesEEG,001,203206,
AFNE01.JPG,AFNE01.JPG,AFNE01.JPG,AFNE01.JPG,AFNE01.JPG,AFNE01.JPG,,,,,,,,,0,6,6,6,,,,,,,,,,,,,,,AFNE05.jpg,AFNE01.jpg,AFSA18.jpg,AFSA12.jpg,AFSA18.jpg,FS,4,num_2,32,num_6,1.08346331283,,,2018_Mar_02_1145,60.0064090407,FEMA4ImagesEEG,001,203206,
AFNE01.JPG,AFNE01.JPG,AFNE01.JPG,AFNE01.JPG,AFNE01.JPG,AFNE01.JPG,,,,,,,,,0,7,7,7,,,,,,,,,,,,,,,AFNE03.jpg,AFSA16.jpg,AFNE07.jpg,AFSA15.jpg,AFSA16.jpg,FS,4,num_6,16,num_6,0.666770586045,,,2018_Mar_02_1145,60.0064090407,FEMA4ImagesEEG,001,203206,
AFNE01.JPG,AFNE01.JPG,AFNE01.JPG,AFNE01.JPG,AFNE01.JPG,AFNE01.JPG,,,,,,,,,0,8,8,2,,,,,,,,,,,,,,,AFSA12.jpg,AFSA08.jpg,AFNE09.jpg,AFNE12.jpg,AFNE12.jpg,FN,3,num_4,16,num_4,0.983432553941,,,2018_Mar_02_1145,60.0064090407,FEMA4ImagesEEG,001,203206,
AFNE01.JPG,AFNE01.JPG,AFNE01.JPG,AFNE01.JPG,AFNE01.JPG,AFNE01.JPG,,,,,,,,,0,9,9,1,,,,,,,,,,,,,,,AFSA05.jpg,AFNE04.jpg,AFNE11.jpg,AFSA06.jpg,AFSA06.jpg,FS,4,num_4,16,num_4,0.65018549934,,,2018_Mar_02_1145,60.0064090407,FEMA4ImagesEEG,001,203206,
AFNE01.JPG,AFNE01.JPG,AFNE01.JPG,AFNE01.JPG,AFNE01.JPG,AFNE01.JPG,,,,,,,,,1,0,10,2,,,,,,,,,,,,,,,AFNE05.jpg,AFNE09.jpg,AFSA07.jpg,AFSA20.jpg,AFSA07.jpg,FS,4,num_2,16,num_2,0.800060363021,,,2018_Mar_02_1145,60.0064090407,FEMA4ImagesEEG,001,203206,
AFNE01.JPG,AFNE01.JPG,AFNE01.JPG,AFNE01.JPG,AFNE01.JPG,AFNE01.JPG,,,,,,,,,1,1,11,9,,,,,,,,,,,,,,,AFSA03.jpg,AFNE18.jpg,AFSA05.jpg,AFNE20.jpg,AFSA03.jpg,FS,4,num_8,32,num_2,1.83352497476,,,2018_Mar_02_1145,60.0064090407,FEMA4ImagesEEG,001,203206,
AFNE01.JPG,AFNE01.JPG,AFNE01.JPG,AFNE01.JPG,AFNE01.JPG,AFNE01.JPG,,,,,,,,,1,2,12,5,,,,,,,,,,,,,,,AFSA05.jpg,AFNE15.jpg,AFSA09.jpg,AFNE14.jpg,AFSA05.jpg,FS,4,num_8,16,num_8,0.950103294104,,,2018_Mar_02_1145,60.0064090407,FEMA4ImagesEEG,001,203206,
AFNE01.JPG,AFNE01.JPG,AFNE01.JPG,AFNE01.JPG,AFNE01.JPG,AFNE01.JPG,,,,,,,,,1,3,13,7,,,,,,,,,,,,,,,AFNE20.jpg,AFSA12.jpg,AFSA16.jpg,AFNE18.jpg,AFNE20.jpg,FN,3,num_8,32,num_4,1.81662588473,,,2018_Mar_02_1145,60.0064090407,FEMA4ImagesEEG,001,203206,
AFNE01.JPG,AFNE01.JPG,AFNE01.JPG,AFNE01.JPG,AFNE01.JPG,AFNE01.JPG,,,,,,,,,1,4,14,0,,,,,,,,,,,,,,,AFNE09.jpg,AFNE08.jpg,AFSA10.jpg,AFSA07.jpg,AFNE09.jpg,FN,3,num_8,16,num_8,0.950156215811,,,2018_Mar_02_1145,60.0064090407,FEMA4ImagesEEG,001,203206,
AFNE01.JPG,AFNE01.JPG,AFNE01.JPG,AFNE01.JPG,AFNE01.JPG,AFNE01.JPG,,,,,,,,,1,5,15,8,,,,,,,,,,,,,,,AFNE09.jpg,AFNE06.jpg,AFSA17.jpg,AFSA08.jpg,AFNE06.jpg,FN,3,num_6,32,num_8,0.966747717466,,,2018_Mar_02_1145,60.0064090407,FEMA4ImagesEEG,001,203206,
AFNE01.JPG,AFNE01.JPG,AFNE01.JPG,AFNE01.JPG,AFNE01.JPG,AFNE01.JPG,,,,,,,,,1,6,16,3,,,,,,,,,,,,,,,AFNE09.jpg,AFNE13.jpg,AFSA17.jpg,AFSA20.jpg,AFNE09.jpg,FN,3,num_8,16,num_8,0.916636116104,,,2018_Mar_02_1145,60.0064090407,FEMA4ImagesEEG,001,203206,
AFNE01.JPG,AFNE01.JPG,AFNE01.JPG,AFNE01.JPG,AFNE01.JPG,AFNE01.JPG,,,,,,,,,1,7,17,1,,,,,,,,,,,,,,,AFNE08.jpg,AFNE18.jpg,AFSA10.jpg,AFSA11.jpg,AFNE08.jpg,FN,3,num_8,32,num_4,0.800107832532,,,2018_Mar_02_1145,60.0064090407,FEMA4ImagesEEG,001,203206,
AFNE01.JPG,AFNE01.JPG,AFNE01.JPG,AFNE01.JPG,AFNE01.JPG,AFNE01.JPG,,,,,,,,,1,8,18,4,,,,,,,,,,,,,,,AFNE18.jpg,AFSA11.jpg,AFNE08.jpg,AFSA03.jpg,AFNE18.jpg,FN,3,num_8,32,num_2,2.05005354737,,,2018_Mar_02_1145,60.0064090407,FEMA4ImagesEEG,001,203206,
AFNE01.JPG,AFNE01.JPG,AFNE01.JPG,AFNE01.JPG,AFNE01.JPG,AFNE01.JPG,,,,,,,,,1,9,19,6,,,,,,,,,,,,,,,AFSA15.jpg,AFNE16.jpg,AFSA02.jpg,AFNE17.jpg,AFSA02.jpg,FS,4,num_2,32,num_4,1.55003959523,,,2018_Mar_02_1145,60.0064090407,FEMA4ImagesEEG,001,203206,
AFNE01.JPG,AFNE01.JPG,AFNE01.JPG,AFNE01.JPG,AFNE01.JPG,AFNE01.JPG,,,,,,,,,2,0,20,8,,,,,,,,,,,,,,,AFNE17.jpg,AFSA08.jpg,AFNE20.jpg,AFSA03.jpg,AFNE20.jpg,FN,3,num_2,32,num_4,1.00012861635,,,2018_Mar_02_1145,60.0064090407,FEMA4ImagesEEG,001,203206,
AFNE01.JPG,AFNE01.JPG,AFNE01.JPG,AFNE01.JPG,AFNE01.JPG,AFNE01.JPG,,,,,,,,,2,1,21,0,,,,,,,,,,,,,,,AFSA04.jpg,AFNE05.jpg,AFSA16.jpg,AFNE04.jpg,AFNE04.jpg,FN,3,num_4,16,num_4,1.09982676897,,,2018_Mar_02_1145,60.0064090407,FEMA4ImagesEEG,001,203206,
AFNE01.JPG,AFNE01.JPG,AFNE01.JPG,AFNE01.JPG,AFNE01.JPG,AFNE01.JPG,,,,,,,,,2,2,22,9,,,,,,,,,,,,,,,AFSA06.jpg,AFNE03.jpg,AFSA14.jpg,AFNE12.jpg,AFSA06.jpg,FS,4,num_8,32,num_2,1.63347404147,,,2018_Mar_02_1145,60.0064090407,FEMA4ImagesEEG,001,203206,
AFNE01.JPG,AFNE01.JPG,AFNE01.JPG,AFNE01.JPG,AFNE01.JPG,AFNE01.JPG,,,,,,,,,2,3,23,7,,,,,,,,,,,,,,,AFSA10.jpg,AFSA09.jpg,AFNE01.jpg,AFNE16.jpg,AFSA10.jpg,FS,4,num_8,32,num_4,0.983460458228,,,2018_Mar_02_1145,60.0064090407,FEMA4ImagesEEG,001,203206,
AFNE01.JPG,AFNE01.JPG,AFNE01.JPG,AFNE01.JPG,AFNE01.JPG,AFNE01.JPG,,,,,,,,,2,4,24,5,,,,,,,,,,,,,,,AFNE09.jpg,AFNE05.jpg,AFSA07.jpg,AFSA14.jpg,AFSA07.jpg,FS,4,num_2,32,num_4,0.816787537187,,,2018_Mar_02_1145,60.0064090407,FEMA4ImagesEEG,001,203206,
AFNE01.JPG,AFNE01.JPG,AFNE01.JPG,AFNE01.JPG,AFNE01.JPG,AFNE01.JPG,,,,,,,,,2,5,25,6,,,,,,,,,,,,,,,AFNE13.jpg,AFSA02.jpg,AFNE11.jpg,AFSA04.jpg,AFNE11.jpg,FN,3,num_2,16,num_2,1.01677400176,,,2018_Mar_02_1145,60.0064090407,FEMA4ImagesEEG,001,203206,
AFNE01.JPG,AFNE01.JPG,AFNE01.JPG,AFNE01.JPG,AFNE01.JPG,AFNE01.JPG,,,,,,,,,2,6,26,1,,,,,,,,,,,,,,,AFSA11.jpg,AFNE03.jpg,AFNE15.jpg,AFSA19.jpg,AFNE03.jpg,FN,3,num_6,16,num_6,0.816794272745,,,2018_Mar_02_1145,60.0064090407,FEMA4ImagesEEG,001,203206,
AFNE01.JPG,AFNE01.JPG,AFNE01.JPG,AFNE01.JPG,AFNE01.JPG,AFNE01.JPG,,,,,,,,,2,7,27,4,,,,,,,,,,,,,,,AFSA19.jpg,AFNE17.jpg,AFNE16.jpg,AFSA17.jpg,AFNE16.jpg,FN,3,num_2,32,num_4,1.51672573085,,,2018_Mar_02_1145,60.0064090407,FEMA4ImagesEEG,001,203206,
AFNE01.JPG,AFNE01.JPG,AFNE01.JPG,AFNE01.JPG,AFNE01.JPG,AFNE01.JPG,,,,,,,,,2,8,28,2,,,,,,,,,,,,,,,AFNE10.jpg,AFSA17.jpg,AFNE07.jpg,AFSA05.jpg,AFNE07.jpg,FN,3,num_2,32,num_8,0.633475645212,,,2018_Mar_02_1145,60.0064090407,FEMA4ImagesEEG,001,203206,
AFNE01.JPG,AFNE01.JPG,AFNE01.JPG,AFNE01.JPG,AFNE01.JPG,AFNE01.JPG,,,,,,,,,2,9,29,3,,,,,,,,,,,,,,,AFSA01.jpg,AFNE02.jpg,AFSA20.jpg,AFNE06.jpg,AFNE02.jpg,FN,3,num_6,32,num_2,0.833504126873,,,2018_Mar_02_1145,60.0064090407,FEMA4ImagesEEG,001,203206,
AFNE01.JPG,AFNE01.JPG,AFNE01.JPG,AFNE01.JPG,AFNE01.JPG,AFNE01.JPG,,,,,,,,,3,0,30,8,,,,,,,,,,,,,,,AFSA17.jpg,AFNE19.jpg,AFSA03.jpg,AFNE12.jpg,AFSA03.jpg,FS,4,num_2,32,num_6,0.616762263002,,,2018_Mar_02_1145,60.0064090407,FEMA4ImagesEEG,001,203206,
AFNE01.JPG,AFNE01.JPG,AFNE01.JPG,AFNE01.JPG,AFNE01.JPG,AFNE01.JPG,,,,,,,,,3,1,31,1,,,,,,,,,,,,,,,AFNE17.jpg,AFSA06.jpg,AFNE18.jpg,AFSA09.jpg,AFNE17.jpg,FN,3,num_8,32,num_6,0.783464371227,,,2018_Mar_02_1145,60.0064090407,FEMA4ImagesEEG,001,203206,
AFNE01.JPG,AFNE01.JPG,AFNE01.JPG,AFNE01.JPG,AFNE01.JPG,AFNE01.JPG,,,,,,,,,3,2,32,0,,,,,,,,,,,,,,,AFNE19.jpg,AFNE07.jpg,AFSA10.jpg,AFSA12.jpg,AFSA12.jpg,FS,4,num_4,32,num_6,0.766839833697,,,2018_Mar_02_1145,60.0064090407,FEMA4ImagesEEG,001,203206,
AFNE01.JPG,AFNE01.JPG,AFNE01.JPG,AFNE01.JPG,AFNE01.JPG,AFNE01.JPG,,,,,,,,,3,3,33,9,,,,,,,,,,,,,,,AFSA02.jpg,AFNE19.jpg,AFNE16.jpg,AFSA13.jpg,AFNE19.jpg,FN,3,num_6,32,num_4,0.933507302077,,,2018_Mar_02_1145,60.0064090407,FEMA4ImagesEEG,001,203206,
AFNE01.JPG,AFNE01.JPG,AFNE01.JPG,AFNE01.JPG,AFNE01.JPG,AFNE01.JPG,,,,,,,,,3,4,34,5,,,,,,,,,,,,,,,AFSA13.jpg,AFNE13.jpg,AFSA18.jpg,AFNE03.jpg,AFNE03.jpg,FN,3,num_4,32,num_2,0.783505746396,,,2018_Mar_02_1145,60.0064090407,FEMA4ImagesEEG,001,203206,
AFNE01.JPG,AFNE01.JPG,AFNE01.JPG,AFNE01.JPG,AFNE01.JPG,AFNE01.JPG,,,,,,,,,3,5,35,2,,,,,,,,,,,,,,,AFNE02.jpg,AFNE07.jpg,AFSA03.jpg,AFSA12.jpg,AFNE07.jpg,FN,3,num_6,32,num_4,1.76669934997,,,2018_Mar_02_1145,60.0064090407,FEMA4ImagesEEG,001,203206,
AFNE01.JPG,AFNE01.JPG,AFNE01.JPG,AFNE01.JPG,AFNE01.JPG,AFNE01.JPG,,,,,,,,,3,6,36,7,,,,,,,,,,,,,,,AFSA04.jpg,AFNE01.jpg,AFSA19.jpg,AFNE11.jpg,AFSA04.jpg,FS,4,num_8,32,num_4,0.950146593619,,,2018_Mar_02_1145,60.0064090407,FEMA4ImagesEEG,001,203206,
AFNE01.JPG,AFNE01.JPG,AFNE01.JPG,AFNE01.JPG,AFNE01.JPG,AFNE01.JPG,,,,,,,,,3,7,37,6,,,,,,,,,,,,,,,AFNE19.jpg,AFNE13.jpg,AFSA14.jpg,AFSA04.jpg,AFSA14.jpg,FS,4,num_2,32,num_6,2.25007978384,,,2018_Mar_02_1145,60.0064090407,FEMA4ImagesEEG,001,203206,
AFNE01.JPG,AFNE01.JPG,AFNE01.JPG,AFNE01.JPG,AFNE01.JPG,AFNE01.JPG,,,,,,,,,3,8,38,4,,,,,,,,,,,,,,,AFSA18.jpg,AFNE13.jpg,AFNE17.jpg,AFSA11.jpg,AFSA18.jpg,FS,4,num_8,32,num_4,1.68337491713,,,2018_Mar_02_1145,60.0064090407,FEMA4ImagesEEG,001,203206,
AFNE01.JPG,AFNE01.JPG,AFNE01.JPG,AFNE01.JPG,AFNE01.JPG,AFNE01.JPG,,,,,,,,,3,9,39,3,,,,,,,,,,,,,,,AFNE14.jpg,AFSA12.jpg,AFSA10.jpg,AFNE13.jpg,AFSA10.jpg,FS,4,num_2,32,num_6,0.816751293605,,,2018_Mar_02_1145,60.0064090407,FEMA4ImagesEEG,001,203206,
AFNE01.JPG,AFNE01.JPG,AFNE01.JPG,AFNE01.JPG,AFNE01.JPG,AFNE01.JPG,,,,,,,,,4,0,40,0,,,,,,,,,,,,,,,AFSA18.jpg,AFNE11.jpg,AFNE07.jpg,AFSA09.jpg,AFSA18.jpg,FS,4,num_8,32,num_4,1.41674853535,,,2018_Mar_02_1145,60.0064090407,FEMA4ImagesEEG,001,203206,
AFNE01.JPG,AFNE01.JPG,AFNE01.JPG,AFNE01.JPG,AFNE01.JPG,AFNE01.JPG,,,,,,,,,4,1,41,1,,,,,,,,,,,,,,,AFNE13.jpg,AFSA18.jpg,AFNE18.jpg,AFSA06.jpg,AFSA18.jpg,FS,4,num_6,32,num_8,0.983467835234,,,2018_Mar_02_1145,60.0064090407,FEMA4ImagesEEG,001,203206,
AFNE01.JPG,AFNE01.JPG,AFNE01.JPG,AFNE01.JPG,AFNE01.JPG,AFNE01.JPG,,,,,,,,,4,2,42,4,,,,,,,,,,,,,,,AFSA15.jpg,AFNE10.jpg,AFNE12.jpg,AFSA03.jpg,AFSA03.jpg,FS,4,num_4,16,num_4,0.900141477818,,,2018_Mar_02_1145,60.0064090407,FEMA4ImagesEEG,001,203206,
AFNE01.JPG,AFNE01.JPG,AFNE01.JPG,AFNE01.JPG,AFNE01.JPG,AFNE01.JPG,,,,,,,,,4,3,43,2,,,,,,,,,,,,,,,AFNE16.jpg,AFSA14.jpg,AFNE03.jpg,AFSA18.jpg,AFSA14.jpg,FS,4,num_6,16,num_6,0.666833771626,,,2018_Mar_02_1145,60.0064090407,FEMA4ImagesEEG,001,203206,
AFNE01.JPG,AFNE01.JPG,AFNE01.JPG,AFNE01.JPG,AFNE01.JPG,AFNE01.JPG,,,,,,,,,4,4,44,7,,,,,,,,,,,,,,,AFSA02.jpg,AFSA07.jpg,AFNE04.jpg,AFNE10.jpg,AFNE04.jpg,FN,3,num_2,32,num_6,0.950268795248,,,2018_Mar_02_1145,60.0064090407,FEMA4ImagesEEG,001,203206,
AFNE01.JPG,AFNE01.JPG,AFNE01.JPG,AFNE01.JPG,AFNE01.JPG,AFNE01.JPG,,,,,,,,,4,5,45,8,,,,,,,,,,,,,,,AFSA09.jpg,AFSA04.jpg,AFNE14.jpg,AFNE17.jpg,AFNE14.jpg,FN,3,num_2,16,num_2,1.20003970759,,,2018_Mar_02_1145,60.0064090407,FEMA4ImagesEEG,001,203206,
AFNE01.JPG,AFNE01.JPG,AFNE01.JPG,AFNE01.JPG,AFNE01.JPG,AFNE01.JPG,,,,,,,,,4,6,46,5,,,,,,,,,,,,,,,AFSA10.jpg,AFNE10.jpg,AFNE20.jpg,AFSA09.jpg,AFNE20.jpg,FN,3,num_2,32,num_8,0.883437717799,,,2018_Mar_02_1145,60.0064090407,FEMA4ImagesEEG,001,203206,
AFNE01.JPG,AFNE01.JPG,AFNE01.JPG,AFNE01.JPG,AFNE01.JPG,AFNE01.JPG,,,,,,,,,4,7,47,6,,,,,,,,,,,,,,,AFNE11.jpg,AFSA05.jpg,AFSA20.jpg,AFNE02.jpg,AFNE11.jpg,FN,3,num_8,32,num_2,1.13348959712,,,2018_Mar_02_1145,60.0064090407,FEMA4ImagesEEG,001,203206,
AFNE01.JPG,AFNE01.JPG,AFNE01.JPG,AFNE01.JPG,AFNE01.JPG,AFNE01.JPG,,,,,,,,,4,8,48,3,,,,,,,,,,,,,,,AFSA16.jpg,AFNE04.jpg,AFSA08.jpg,AFNE17.jpg,AFNE04.jpg,FN,3,num_6,16,num_6,0.816779518733,,,2018_Mar_02_1145,60.0064090407,FEMA4ImagesEEG,001,203206,
AFNE01.JPG,AFNE01.JPG,AFNE01.JPG,AFNE01.JPG,AFNE01.JPG,AFNE01.JPG,,,,,,,,,4,9,49,9,,,,,,,,,,,,,,,AFSA17.jpg,AFNE19.jpg,AFSA14.jpg,AFNE13.jpg,AFNE13.jpg,FN,3,num_4,16,num_4,1.10011639632,,,2018_Mar_02_1145,60.0064090407,FEMA4ImagesEEG,001,203206,
AFNE01.JPG,AFNE01.JPG,AFNE01.JPG,AFNE01.JPG,AFNE01.JPG,AFNE01.JPG,,,,,,,,,5,0,50,6,,,,,,,,,,,,,,,AFNE06.jpg,AFNE18.jpg,AFSA03.jpg,AFSA04.jpg,AFSA03.jpg,FS,4,num_2,32,num_4,0.900145647582,,,2018_Mar_02_1145,60.0064090407,FEMA4ImagesEEG,001,203206,
AFNE01.JPG,AFNE01.JPG,AFNE01.JPG,AFNE01.JPG,AFNE01.JPG,AFNE01.JPG,,,,,,,,,5,1,51,2,,,,,,,,,,,,,,,AFNE19.jpg,AFSA12.jpg,AFNE01.jpg,AFSA07.jpg,AFNE19.jpg,FN,3,num_8,32,num_2,0.983276354149,,,2018_Mar_02_1145,60.0064090407,FEMA4ImagesEEG,001,203206,
AFNE01.JPG,AFNE01.JPG,AFNE01.JPG,AFNE01.JPG,AFNE01.JPG,AFNE01.JPG,,,,,,,,,5,2,52,7,,,,,,,,,,,,,,,AFNE15.jpg,AFSA18.jpg,AFNE11.jpg,AFSA08.jpg,AFNE11.jpg,FN,3,num_2,32,num_6,0.716840170557,,,2018_Mar_02_1145,60.0064090407,FEMA4ImagesEEG,001,203206,
AFNE01.JPG,AFNE01.JPG,AFNE01.JPG,AFNE01.JPG,AFNE01.JPG,AFNE01.JPG,,,,,,,,,5,3,53,1,,,,,,,,,,,,,,,AFNE08.jpg,AFSA11.jpg,AFSA05.jpg,AFNE05.jpg,AFNE08.jpg,FN,3,num_8,32,num_4,1.45005983394,,,2018_Mar_02_1145,60.0064090407,FEMA4ImagesEEG,001,203206,
AFNE01.JPG,AFNE01.JPG,AFNE01.JPG,AFNE01.JPG,AFNE01.JPG,AFNE01.JPG,,,,,,,,,5,4,54,3,,,,,,,,,,,,,,,AFNE05.jpg,AFNE18.jpg,AFSA15.jpg,AFSA09.jpg,AFSA09.jpg,FS,4,num_4,16,num_4,1.68346279953,,,2018_Mar_02_1145,60.0064090407,FEMA4ImagesEEG,001,203206,
AFNE01.JPG,AFNE01.JPG,AFNE01.JPG,AFNE01.JPG,AFNE01.JPG,AFNE01.JPG,,,,,,,,,5,5,55,8,,,,,,,,,,,,,,,AFSA15.jpg,AFSA03.jpg,AFNE12.jpg,AFNE19.jpg,AFNE12.jpg,FN,3,num_2,32,num_8,1.20011091162,,,2018_Mar_02_1145,60.0064090407,FEMA4ImagesEEG,001,203206,
AFNE01.JPG,AFNE01.JPG,AFNE01.JPG,AFNE01.JPG,AFNE01.JPG,AFNE01.JPG,,,,,,,,,5,6,56,4,,,,,,,,,,,,,,,AFNE03.jpg,AFNE11.jpg,AFSA04.jpg,AFSA11.jpg,AFSA11.jpg,FS,4,num_4,16,num_4,0.900117422454,,,2018_Mar_02_1145,60.0064090407,FEMA4ImagesEEG,001,203206,
AFNE01.JPG,AFNE01.JPG,AFNE01.JPG,AFNE01.JPG,AFNE01.JPG,AFNE01.JPG,,,,,,,,,5,7,57,5,,,,,,,,,,,,,,,AFNE13.jpg,AFSA12.jpg,AFSA06.jpg,AFNE03.jpg,AFNE03.jpg,FN,3,num_4,32,num_6,0.866767956177,,,2018_Mar_02_1145,60.0064090407,FEMA4ImagesEEG,001,203206,
AFNE01.JPG,AFNE01.JPG,AFNE01.JPG,AFNE01.JPG,AFNE01.JPG,AFNE01.JPG,,,,,,,,,5,8,58,9,,,,,,,,,,,,,,,AFNE05.jpg,AFSA08.jpg,AFSA15.jpg,AFNE06.jpg,AFNE05.jpg,FN,3,num_8,32,num_2,1.00020366907,,,2018_Mar_02_1145,60.0064090407,FEMA4ImagesEEG,001,203206,
AFNE01.JPG,AFNE01.JPG,AFNE01.JPG,AFNE01.JPG,AFNE01.JPG,AFNE01.JPG,,,,,,,,,5,9,59,0,,,,,,,,,,,,,,,AFNE20.jpg,AFNE10.jpg,AFSA05.jpg,AFSA03.jpg,AFSA05.jpg,FS,4,num_2,32,num_6,0.833503806032,,,2018_Mar_02_1145,60.0064090407,FEMA4ImagesEEG,001,203206,
,,,,,,,,,,,,,,,,,,,,,,,,,,,,,,,,,,,,,,,,,,,space,5.86637280579,2018_Mar_02_1145,60.0064090407,FEMA4ImagesEEG,001,203206,
AFNE01.JPG,AFNE01.JPG,AFNE01.JPG,AFNE01.JPG,AFNE01.JPG,AFNE01.JPG,,,,,,,,,,,,,0,0,0,6,,,,,,,,,,,AMNE10.jpg,AMNE05.jpg,AMSA01.jpg,AMSA16.jpg,AMSA01.jpg,MS,2,num_2,16,num_2,0.450526188128,,,2018_Mar_02_1145,60.0064090407,FEMA4ImagesEEG,001,203206,
AFNE01.JPG,AFNE01.JPG,AFNE01.JPG,AFNE01.JPG,AFNE01.JPG,AFNE01.JPG,,,,,,,,,,,,,0,1,1,9,,,,,,,,,,,AMNE12.jpg,AMNE15.jpg,AMSA01.jpg,AMSA03.jpg,AMNE15.jpg,MN,1,num_6,16,num_6,0.70014956058,,,2018_Mar_02_1145,60.0064090407,FEMA4ImagesEEG,001,203206,
AFNE01.JPG,AFNE01.JPG,AFNE01.JPG,AFNE01.JPG,AFNE01.JPG,AFNE01.JPG,,,,,,,,,,,,,0,2,2,1,,,,,,,,,,,AMNE13.jpg,AMSA07.jpg,AMNE10.jpg,AMSA04.jpg,AMSA07.jpg,MS,2,num_6,32,num_2,1.01677303971,,,2018_Mar_02_1145,60.0064090407,FEMA4ImagesEEG,001,203206,
AFNE01.JPG,AFNE01.JPG,AFNE01.JPG,AFNE01.JPG,AFNE01.JPG,AFNE01.JPG,,,,,,,,,,,,,0,3,3,7,,,,,,,,,,,AMSA17.jpg,AMSA18.jpg,AMNE06.jpg,AMNE18.jpg,AMNE18.jpg,MN,1,num_4,16,num_4,0.866735240677,,,2018_Mar_02_1145,60.0064090407,FEMA4ImagesEEG,001,203206,
AFNE01.JPG,AFNE01.JPG,AFNE01.JPG,AFNE01.JPG,AFNE01.JPG,AFNE01.JPG,,,,,,,,,,,,,0,4,4,2,,,,,,,,,,,AMSA16.jpg,AMNE03.jpg,AMNE08.jpg,AMSA01.jpg,AMNE03.jpg,MN,1,num_6,32,num_2,1.61659964849,,,2018_Mar_02_1145,60.0064090407,FEMA4ImagesEEG,001,203206,
AFNE01.JPG,AFNE01.JPG,AFNE01.JPG,AFNE01.JPG,AFNE01.JPG,AFNE01.JPG,,,,,,,,,,,,,0,5,5,4,,,,,,,,,,,AMSA04.jpg,AMNE10.jpg,AMNE20.jpg,AMSA15.jpg,AMSA15.jpg,MS,2,num_4,32,num_6,0.783467899309,,,2018_Mar_02_1145,60.0064090407,FEMA4ImagesEEG,001,203206,
AFNE01.JPG,AFNE01.JPG,AFNE01.JPG,AFNE01.JPG,AFNE01.JPG,AFNE01.JPG,,,,,,,,,,,,,0,6,6,0,,,,,,,,,,,AMSA09.jpg,AMSA03.jpg,AMNE05.jpg,AMNE06.jpg,AMSA03.jpg,MS,2,num_6,16,num_6,0.500192603562,,,2018_Mar_02_1145,60.0064090407,FEMA4ImagesEEG,001,203206,
AFNE01.JPG,AFNE01.JPG,AFNE01.JPG,AFNE01.JPG,AFNE01.JPG,AFNE01.JPG,,,,,,,,,,,,,0,7,7,3,,,,,,,,,,,AMNE10.jpg,AMSA03.jpg,AMNE14.jpg,AMSA13.jpg,AMNE14.jpg,MN,1,num_2,16,num_2,1.48338781088,,,2018_Mar_02_1145,60.0064090407,FEMA4ImagesEEG,001,203206,
AFNE01.JPG,AFNE01.JPG,AFNE01.JPG,AFNE01.JPG,AFNE01.JPG,AFNE01.JPG,,,,,,,,,,,,,0,8,8,5,,,,,,,,,,,AMSA03.jpg,AMSA02.jpg,AMNE08.jpg,AMNE09.jpg,AMNE09.jpg,MN,1,num_4,16,num_4,0.850101401564,,,2018_Mar_02_1145,60.0064090407,FEMA4ImagesEEG,001,203206,
AFNE01.JPG,AFNE01.JPG,AFNE01.JPG,AFNE01.JPG,AFNE01.JPG,AFNE01.JPG,,,,,,,,,,,,,0,9,9,8,,,,,,,,,,,AMNE13.jpg,AMSA05.jpg,AMSA09.jpg,AMNE15.jpg,AMNE15.jpg,MN,1,num_4,16,num_4,0.883497695904,,,2018_Mar_02_1145,60.0064090407,FEMA4ImagesEEG,001,203206,
AFNE01.JPG,AFNE01.JPG,AFNE01.JPG,AFNE01.JPG,AFNE01.JPG,AFNE01.JPG,,,,,,,,,,,,,1,0,10,9,,,,,,,,,,,AMSA13.jpg,AMNE10.jpg,AMNE12.jpg,AMSA10.jpg,AMNE12.jpg,MN,1,num_2,16,num_2,2.1834209431,,,2018_Mar_02_1145,60.0064090407,FEMA4ImagesEEG,001,203206,
AFNE01.JPG,AFNE01.JPG,AFNE01.JPG,AFNE01.JPG,AFNE01.JPG,AFNE01.JPG,,,,,,,,,,,,,1,1,11,6,,,,,,,,,,,AMNE16.jpg,AMSA13.jpg,AMNE01.jpg,AMSA11.jpg,AMSA13.jpg,MS,2,num_6,16,num_6,0.800144075882,,,2018_Mar_02_1145,60.0064090407,FEMA4ImagesEEG,001,203206,
AFNE01.JPG,AFNE01.JPG,AFNE01.JPG,AFNE01.JPG,AFNE01.JPG,AFNE01.JPG,,,,,,,,,,,,,1,2,12,0,,,,,,,,,,,AMSA19.jpg,AMNE13.jpg,AMSA13.jpg,AMNE05.jpg,AMNE13.jpg,MN,1,num_6,16,num_6,1.1834966375,,,2018_Mar_02_1145,60.0064090407,FEMA4ImagesEEG,001,203206,
AFNE01.JPG,AFNE01.JPG,AFNE01.JPG,AFNE01.JPG,AFNE01.JPG,AFNE01.JPG,,,,,,,,,,,,,1,3,13,2,,,,,,,,,,,AMSA13.jpg,AMSA04.jpg,AMNE11.jpg,AMNE19.jpg,AMNE11.jpg,MN,1,num_2,32,num_4,0.683458950836,,,2018_Mar_02_1145,60.0064090407,FEMA4ImagesEEG,001,203206,
AFNE01.JPG,AFNE01.JPG,AFNE01.JPG,AFNE01.JPG,AFNE01.JPG,AFNE01.JPG,,,,,,,,,,,,,1,4,14,7,,,,,,,,,,,AMSA02.jpg,AMNE10.jpg,AMNE19.jpg,AMSA14.jpg,AMSA14.jpg,MS,2,num_4,16,num_4,0.71682252991,,,2018_Mar_02_1145,60.0064090407,FEMA4ImagesEEG,001,203206,
AFNE01.JPG,AFNE01.JPG,AFNE01.JPG,AFNE01.JPG,AFNE01.JPG,AFNE01.JPG,,,,,,,,,,,,,1,5,15,8,,,,,,,,,,,AMNE12.jpg,AMNE15.jpg,AMSA03.jpg,AMSA11.jpg,AMSA11.jpg,MS,2,num_4,32,num_2,1.03339821892,,,2018_Mar_02_1145,60.0064090407,FEMA4ImagesEEG,001,203206,
AFNE01.JPG,AFNE01.JPG,AFNE01.JPG,AFNE01.JPG,AFNE01.JPG,AFNE01.JPG,,,,,,,,,,,,,1,6,16,3,,,,,,,,,,,AMNE08.jpg,AMSA20.jpg,AMNE19.jpg,AMSA14.jpg,AMNE19.jpg,MN,1,num_2,32,num_8,2.08341808873,,,2018_Mar_02_1145,60.0064090407,FEMA4ImagesEEG,001,203206,
AFNE01.JPG,AFNE01.JPG,AFNE01.JPG,AFNE01.JPG,AFNE01.JPG,AFNE01.JPG,,,,,,,,,,,,,1,7,17,1,,,,,,,,,,,AMSA05.jpg,AMNE10.jpg,AMNE13.jpg,AMSA18.jpg,AMNE13.jpg,MN,1,num_2,32,num_6,0.833452808438,,,2018_Mar_02_1145,60.0064090407,FEMA4ImagesEEG,001,203206,
AFNE01.JPG,AFNE01.JPG,AFNE01.JPG,AFNE01.JPG,AFNE01.JPG,AFNE01.JPG,,,,,,,,,,,,,1,8,18,5,,,,,,,,,,,AMNE11.jpg,AMSA17.jpg,AMNE12.jpg,AMSA16.jpg,AMSA16.jpg,MS,2,num_4,32,num_2,1.93336810148,,,2018_Mar_02_1145,60.0064090407,FEMA4ImagesEEG,001,203206,
AFNE01.JPG,AFNE01.JPG,AFNE01.JPG,AFNE01.JPG,AFNE01.JPG,AFNE01.JPG,,,,,,,,,,,,,1,9,19,4,,,,,,,,,,,AMSA11.jpg,AMNE12.jpg,AMNE16.jpg,AMSA16.jpg,AMSA16.jpg,MS,2,num_4,16,num_4,0.750133507652,,,2018_Mar_02_1145,60.0064090407,FEMA4ImagesEEG,001,203206,
AFNE01.JPG,AFNE01.JPG,AFNE01.JPG,AFNE01.JPG,AFNE01.JPG,AFNE01.JPG,,,,,,,,,,,,,2,0,20,8,,,,,,,,,,,AMNE07.jpg,AMNE12.jpg,AMSA14.jpg,AMSA18.jpg,AMNE12.jpg,MN,1,num_6,16,num_6,0.700122297741,,,2018_Mar_02_1145,60.0064090407,FEMA4ImagesEEG,001,203206,
AFNE01.JPG,AFNE01.JPG,AFNE01.JPG,AFNE01.JPG,AFNE01.JPG,AFNE01.JPG,,,,,,,,,,,,,2,1,21,5,,,,,,,,,,,AMSA10.jpg,AMSA16.jpg,AMNE05.jpg,AMNE07.jpg,AMSA10.jpg,MS,2,num_8,32,num_4,0.750188995386,,,2018_Mar_02_1145,60.0064090407,FEMA4ImagesEEG,001,203206,
AFNE01.JPG,AFNE01.JPG,AFNE01.JPG,AFNE01.JPG,AFNE01.JPG,AFNE01.JPG,,,,,,,,,,,,,2,2,22,9,,,,,,,,,,,AMSA12.jpg,AMNE20.jpg,AMSA10.jpg,AMNE02.jpg,AMNE02.jpg,MN,1,num_4,16,num_4,0.916795844212,,,2018_Mar_02_1145,60.0064090407,FEMA4ImagesEEG,001,203206,
AFNE01.JPG,AFNE01.JPG,AFNE01.JPG,AFNE01.JPG,AFNE01.JPG,AFNE01.JPG,,,,,,,,,,,,,2,3,23,3,,,,,,,,,,,AMNE09.jpg,AMSA12.jpg,AMSA05.jpg,AMNE12.jpg,AMSA05.jpg,MS,2,num_2,32,num_8,1.11677332828,,,2018_Mar_02_1145,60.0064090407,FEMA4ImagesEEG,001,203206,
AFNE01.JPG,AFNE01.JPG,AFNE01.JPG,AFNE01.JPG,AFNE01.JPG,AFNE01.JPG,,,,,,,,,,,,,2,4,24,4,,,,,,,,,,,AMNE17.jpg,AMNE02.jpg,AMSA18.jpg,AMSA09.jpg,AMSA09.jpg,MS,2,num_4,32,num_2,2.75007930258,,,2018_Mar_02_1145,60.0064090407,FEMA4ImagesEEG,001,203206,
AFNE01.JPG,AFNE01.JPG,AFNE01.JPG,AFNE01.JPG,AFNE01.JPG,AFNE01.JPG,,,,,,,,,,,,,2,5,25,0,,,,,,,,,,,AMSA14.jpg,AMNE10.jpg,AMNE13.jpg,AMSA06.jpg,AMNE10.jpg,MN,1,num_6,32,num_4,0.66668911837,,,2018_Mar_02_1145,60.0064090407,FEMA4ImagesEEG,001,203206,
AFNE01.JPG,AFNE01.JPG,AFNE01.JPG,AFNE01.JPG,AFNE01.JPG,AFNE01.JPG,,,,,,,,,,,,,2,6,26,2,,,,,,,,,,,AMNE02.jpg,AMNE01.jpg,AMSA16.jpg,AMSA18.jpg,AMSA16.jpg,MS,2,num_2,32,num_4,0.850094666239,,,2018_Mar_02_1145,60.0064090407,FEMA4ImagesEEG,001,203206,
AFNE01.JPG,AFNE01.JPG,AFNE01.JPG,AFNE01.JPG,AFNE01.JPG,AFNE01.JPG,,,,,,,,,,,,,2,7,27,7,,,,,,,,,,,AMSA09.jpg,AMSA10.jpg,AMNE13.jpg,AMNE19.jpg,AMSA10.jpg,MS,2,num_6,32,num_8,0.633498096839,,,2018_Mar_02_1145,60.0064090407,FEMA4ImagesEEG,001,203206,
AFNE01.JPG,AFNE01.JPG,AFNE01.JPG,AFNE01.JPG,AFNE01.JPG,AFNE01.JPG,,,,,,,,,,,,,2,8,28,6,,,,,,,,,,,AMSA15.jpg,AMNE10.jpg,AMSA11.jpg,AMNE08.jpg,AMSA11.jpg,MS,2,num_2,32,num_4,0.883463697741,,,2018_Mar_02_1145,60.0064090407,FEMA4ImagesEEG,001,203206,
AFNE01.JPG,AFNE01.JPG,AFNE01.JPG,AFNE01.JPG,AFNE01.JPG,AFNE01.JPG,,,,,,,,,,,,,2,9,29,1,,,,,,,,,,,AMSA01.jpg,AMNE12.jpg,AMSA06.jpg,AMNE06.jpg,AMNE12.jpg,MN,1,num_6,32,num_8,1.26671522646,,,2018_Mar_02_1145,60.0064090407,FEMA4ImagesEEG,001,203206,
AFNE01.JPG,AFNE01.JPG,AFNE01.JPG,AFNE01.JPG,AFNE01.JPG,AFNE01.JPG,,,,,,,,,,,,,3,0,30,7,,,,,,,,,,,AMSA16.jpg,AMNE15.jpg,AMSA09.jpg,AMNE03.jpg,AMSA16.jpg,MS,2,num_8,32,num_6,0.55007904605,,,2018_Mar_02_1145,60.0064090407,FEMA4ImagesEEG,001,203206,
AFNE01.JPG,AFNE01.JPG,AFNE01.JPG,AFNE01.JPG,AFNE01.JPG,AFNE01.JPG,,,,,,,,,,,,,3,1,31,3,,,,,,,,,,,AMNE06.jpg,AMNE03.jpg,AMSA08.jpg,AMSA03.jpg,AMSA03.jpg,MS,2,num_4,16,num_4,0.883461131714,,,2018_Mar_02_1145,60.0064090407,FEMA4ImagesEEG,001,203206,
AFNE01.JPG,AFNE01.JPG,AFNE01.JPG,AFNE01.JPG,AFNE01.JPG,AFNE01.JPG,,,,,,,,,,,,,3,2,32,6,,,,,,,,,,,AMNE07.jpg,AMSA08.jpg,AMSA06.jpg,AMNE11.jpg,AMSA08.jpg,MS,2,num_6,32,num_8,0.866784313694,,,2018_Mar_02_1145,60.0064090407,FEMA4ImagesEEG,001,203206,
AFNE01.JPG,AFNE01.JPG,AFNE01.JPG,AFNE01.JPG,AFNE01.JPG,AFNE01.JPG,,,,,,,,,,,,,3,3,33,5,,,,,,,,,,,AMNE05.jpg,AMNE12.jpg,AMSA01.jpg,AMSA17.jpg,AMSA17.jpg,MS,2,num_4,32,num_6,0.650837882189,,,2018_Mar_02_1145,60.0064090407,FEMA4ImagesEEG,001,203206,
AFNE01.JPG,AFNE01.JPG,AFNE01.JPG,AFNE01.JPG,AFNE01.JPG,AFNE01.JPG,,,,,,,,,,,,,3,4,34,0,,,,,,,,,,,AMSA05.jpg,AMSA03.jpg,AMNE12.jpg,AMNE09.jpg,AMSA03.jpg,MS,2,num_6,32,num_4,0.966867673676,,,2018_Mar_02_1145,60.0064090407,FEMA4ImagesEEG,001,203206,
AFNE01.JPG,AFNE01.JPG,AFNE01.JPG,AFNE01.JPG,AFNE01.JPG,AFNE01.JPG,,,,,,,,,,,,,3,5,35,1,,,,,,,,,,,AMSA09.jpg,AMSA07.jpg,AMNE02.jpg,AMNE07.jpg,AMNE07.jpg,MN,1,num_4,16,num_4,0.96678203647,,,2018_Mar_02_1145,60.0064090407,FEMA4ImagesEEG,001,203206,
AFNE01.JPG,AFNE01.JPG,AFNE01.JPG,AFNE01.JPG,AFNE01.JPG,AFNE01.JPG,,,,,,,,,,,,,3,6,36,8,,,,,,,,,,,AMNE07.jpg,AMSA05.jpg,AMNE18.jpg,AMSA11.jpg,AMNE07.jpg,MN,1,num_8,32,num_2,0.683494873578,,,2018_Mar_02_1145,60.0064090407,FEMA4ImagesEEG,001,203206,
AFNE01.JPG,AFNE01.JPG,AFNE01.JPG,AFNE01.JPG,AFNE01.JPG,AFNE01.JPG,,,,,,,,,,,,,3,7,37,2,,,,,,,,,,,AMSA17.jpg,AMSA07.jpg,AMNE01.jpg,AMNE06.jpg,AMSA07.jpg,MS,2,num_6,16,num_6,0.733493895037,,,2018_Mar_02_1145,60.0064090407,FEMA4ImagesEEG,001,203206,
AFNE01.JPG,AFNE01.JPG,AFNE01.JPG,AFNE01.JPG,AFNE01.JPG,AFNE01.JPG,,,,,,,,,,,,,3,8,38,9,,,,,,,,,,,AMSA04.jpg,AMNE11.jpg,AMSA13.jpg,AMNE09.jpg,AMSA13.jpg,MS,2,num_2,32,num_8,1.10001247679,,,2018_Mar_02_1145,60.0064090407,FEMA4ImagesEEG,001,203206,
AFNE01.JPG,AFNE01.JPG,AFNE01.JPG,AFNE01.JPG,AFNE01.JPG,AFNE01.JPG,,,,,,,,,,,,,3,9,39,4,,,,,,,,,,,AMNE13.jpg,AMSA11.jpg,AMSA06.jpg,AMNE12.jpg,AMSA06.jpg,MS,2,num_2,32,num_6,1.81675161445,,,2018_Mar_02_1145,60.0064090407,FEMA4ImagesEEG,001,203206,
AFNE01.JPG,AFNE01.JPG,AFNE01.JPG,AFNE01.JPG,AFNE01.JPG,AFNE01.JPG,,,,,,,,,,,,,4,0,40,2,,,,,,,,,,,AMNE05.jpg,AMNE10.jpg,AMSA08.jpg,AMSA14.jpg,AMNE10.jpg,MN,1,num_6,16,num_6,1.31674119039,,,2018_Mar_02_1145,60.0064090407,FEMA4ImagesEEG,001,203206,
AFNE01.JPG,AFNE01.JPG,AFNE01.JPG,AFNE01.JPG,AFNE01.JPG,AFNE01.JPG,,,,,,,,,,,,,4,1,41,6,,,,,,,,,,,AMSA07.jpg,AMSA20.jpg,AMNE12.jpg,AMNE19.jpg,AMSA07.jpg,MS,2,num_8,32,num_2,1.25008587772,,,2018_Mar_02_1145,60.0064090407,FEMA4ImagesEEG,001,203206,
AFNE01.JPG,AFNE01.JPG,AFNE01.JPG,AFNE01.JPG,AFNE01.JPG,AFNE01.JPG,,,,,,,,,,,,,4,2,42,0,,,,,,,,,,,AMSA10.jpg,AMNE14.jpg,AMNE16.jpg,AMSA09.jpg,AMNE14.jpg,MN,1,num_6,32,num_4,1.05013982602,,,2018_Mar_02_1145,60.0064090407,FEMA4ImagesEEG,001,203206,
AFNE01.JPG,AFNE01.JPG,AFNE01.JPG,AFNE01.JPG,AFNE01.JPG,AFNE01.JPG,,,,,,,,,,,,,4,3,43,4,,,,,,,,,,,AMSA06.jpg,AMSA04.jpg,AMNE17.jpg,AMNE15.jpg,AMSA04.jpg,MS,2,num_6,16,num_6,0.650124879787,,,2018_Mar_02_1145,60.0064090407,FEMA4ImagesEEG,001,203206,
AFNE01.JPG,AFNE01.JPG,AFNE01.JPG,AFNE01.JPG,AFNE01.JPG,AFNE01.JPG,,,,,,,,,,,,,4,4,44,5,,,,,,,,,,,AMSA10.jpg,AMSA15.jpg,AMNE02.jpg,AMNE08.jpg,AMSA10.jpg,MS,2,num_8,32,num_4,0.866810293635,,,2018_Mar_02_1145,60.0064090407,FEMA4ImagesEEG,001,203206,
AFNE01.JPG,AFNE01.JPG,AFNE01.JPG,AFNE01.JPG,AFNE01.JPG,AFNE01.JPG,,,,,,,,,,,,,4,5,45,8,,,,,,,,,,,AMSA01.jpg,AMNE16.jpg,AMNE04.jpg,AMSA10.jpg,AMNE16.jpg,MN,1,num_6,16,num_6,0.566786975833,,,2018_Mar_02_1145,60.0064090407,FEMA4ImagesEEG,001,203206,
AFNE01.JPG,AFNE01.JPG,AFNE01.JPG,AFNE01.JPG,AFNE01.JPG,AFNE01.JPG,,,,,,,,,,,,,4,6,46,9,,,,,,,,,,,AMSA16.jpg,AMNE13.jpg,AMSA09.jpg,AMNE14.jpg,AMNE13.jpg,MN,1,num_6,32,num_8,1.11680219485,,,2018_Mar_02_1145,60.0064090407,FEMA4ImagesEEG,001,203206,
AFNE01.JPG,AFNE01.JPG,AFNE01.JPG,AFNE01.JPG,AFNE01.JPG,AFNE01.JPG,,,,,,,,,,,,,4,7,47,3,,,,,,,,,,,AMNE20.jpg,AMSA19.jpg,AMSA07.jpg,AMNE04.jpg,AMSA19.jpg,MS,2,num_6,32,num_8,1.4667241429,,,2018_Mar_02_1145,60.0064090407,FEMA4ImagesEEG,001,203206,
AFNE01.JPG,AFNE01.JPG,AFNE01.JPG,AFNE01.JPG,AFNE01.JPG,AFNE01.JPG,,,,,,,,,,,,,4,8,48,7,,,,,,,,,,,AMSA15.jpg,AMNE16.jpg,AMNE15.jpg,AMSA03.jpg,AMNE16.jpg,MN,1,num_6,16,num_6,0.800132529344,,,2018_Mar_02_1145,60.0064090407,FEMA4ImagesEEG,001,203206,
AFNE01.JPG,AFNE01.JPG,AFNE01.JPG,AFNE01.JPG,AFNE01.JPG,AFNE01.JPG,,,,,,,,,,,,,4,9,49,1,,,,,,,,,,,AMSA02.jpg,AMNE15.jpg,AMSA01.jpg,AMNE14.jpg,AMNE14.jpg,MN,1,num_4,16,num_4,1.08345401147,,,2018_Mar_02_1145,60.0064090407,FEMA4ImagesEEG,001,203206,
AFNE01.JPG,AFNE01.JPG,AFNE01.JPG,AFNE01.JPG,AFNE01.JPG,AFNE01.JPG,,,,,,,,,,,,,5,0,50,5,,,,,,,,,,,AMSA20.jpg,AMSA18.jpg,AMNE18.jpg,AMNE10.jpg,AMSA18.jpg,MS,2,num_6,16,num_6,0.683545550099,,,2018_Mar_02_1145,60.0064090407,FEMA4ImagesEEG,001,203206,
AFNE01.JPG,AFNE01.JPG,AFNE01.JPG,AFNE01.JPG,AFNE01.JPG,AFNE01.JPG,,,,,,,,,,,,,5,1,51,8,,,,,,,,,,,AMSA16.jpg,AMNE15.jpg,AMNE09.jpg,AMSA15.jpg,AMSA16.jpg,MS,2,num_8,32,num_6,1.23347673565,,,2018_Mar_02_1145,60.0064090407,FEMA4ImagesEEG,001,203206,
AFNE01.JPG,AFNE01.JPG,AFNE01.JPG,AFNE01.JPG,AFNE01.JPG,AFNE01.JPG,,,,,,,,,,,,,5,2,52,2,,,,,,,,,,,AMSA14.jpg,AMNE14.jpg,AMNE03.jpg,AMSA06.jpg,AMNE03.jpg,MN,1,num_2,32,num_8,0.9501571781,,,2018_Mar_02_1145,60.0064090407,FEMA4ImagesEEG,001,203206,
AFNE01.JPG,AFNE01.JPG,AFNE01.JPG,AFNE01.JPG,AFNE01.JPG,AFNE01.JPG,,,,,,,,,,,,,5,3,53,4,,,,,,,,,,,AMNE11.jpg,AMNE15.jpg,AMSA04.jpg,AMSA18.jpg,AMNE11.jpg,MN,1,num_8,32,num_6,1.21672390238,,,2018_Mar_02_1145,60.0064090407,FEMA4ImagesEEG,001,203206,
AFNE01.JPG,AFNE01.JPG,AFNE01.JPG,AFNE01.JPG,AFNE01.JPG,AFNE01.JPG,,,,,,,,,,,,,5,4,54,9,,,,,,,,,,,AMSA04.jpg,AMNE03.jpg,AMNE04.jpg,AMSA20.jpg,AMNE04.jpg,MN,1,num_2,16,num_2,0.933433211409,,,2018_Mar_02_1145,60.0064090407,FEMA4ImagesEEG,001,203206,
AFNE01.JPG,AFNE01.JPG,AFNE01.JPG,AFNE01.JPG,AFNE01.JPG,AFNE01.JPG,,,,,,,,,,,,,5,5,55,6,,,,,,,,,,,AMSA06.jpg,AMNE19.jpg,AMNE09.jpg,AMSA01.jpg,AMNE09.jpg,MN,1,num_2,32,num_8,0.816657317104,,,2018_Mar_02_1145,60.0064090407,FEMA4ImagesEEG,001,203206,
AFNE01.JPG,AFNE01.JPG,AFNE01.JPG,AFNE01.JPG,AFNE01.JPG,AFNE01.JPG,,,,,,,,,,,,,5,6,56,0,,,,,,,,,,,AMNE11.jpg,AMSA10.jpg,AMNE02.jpg,AMSA03.jpg,AMSA03.jpg,MS,2,num_4,16,num_4,0.750129337888,,,2018_Mar_02_1145,60.0064090407,FEMA4ImagesEEG,001,203206,
AFNE01.JPG,AFNE01.JPG,AFNE01.JPG,AFNE01.JPG,AFNE01.JPG,AFNE01.JPG,,,,,,,,,,,,,5,7,57,1,,,,,,,,,,,AMNE04.jpg,AMSA19.jpg,AMNE15.jpg,AMSA17.jpg,AMSA17.jpg,MS,2,num_4,16,num_4,0.800101096975,,,2018_Mar_02_1145,60.0064090407,FEMA4ImagesEEG,001,203206,
AFNE01.JPG,AFNE01.JPG,AFNE01.JPG,AFNE01.JPG,AFNE01.JPG,AFNE01.JPG,,,,,,,,,,,,,5,8,58,7,,,,,,,,,,,AMSA02.jpg,AMSA07.jpg,AMNE19.jpg,AMNE02.jpg,AMSA07.jpg,MS,2,num_6,32,num_2,0.983455326408,,,2018_Mar_02_1145,60.0064090407,FEMA4ImagesEEG,001,203206,
AFNE01.JPG,AFNE01.JPG,AFNE01.JPG,AFNE01.JPG,AFNE01.JPG,AFNE01.JPG,,,,,,,,,,,,,5,9,59,3,,,,,,,,,,,AMNE10.jpg,AMNE04.jpg,AMSA18.jpg,AMSA10.jpg,AMNE04.jpg,MN,1,num_6,16,num_6,0.816825704882,,,2018_Mar_02_1145,60.0064090407,FEMA4ImagesEEG,001,203206,
,,,,,,,,,,,,,,,,,,,,,,,,,,,,,,,,,,,,,,,,,,,space,1.46673087846,2018_Mar_02_1145,60.0064090407,FEMA4ImagesEEG,001,203206,
AFNE01.JPG,AFNE01.JPG,AFNE01.JPG,AFNE01.JPG,AFNE01.JPG,AFNE01.JPG,,,,,,,,,,,,,,,,,0,0,0,2,,,,,,,AFSA03.jpg,AFNE09.jpg,AFSA11.jpg,AFNE13.jpg,AFNE13.jpg,FN,3,num_4,16,num_4,0.950128632365,,,2018_Mar_02_1145,60.0064090407,FEMA4ImagesEEG,001,203206,
AFNE01.JPG,AFNE01.JPG,AFNE01.JPG,AFNE01.JPG,AFNE01.JPG,AFNE01.JPG,,,,,,,,,,,,,,,,,0,1,1,4,,,,,,,AFSA19.jpg,AFNE11.jpg,AFSA02.jpg,AFNE10.jpg,AFSA19.jpg,FS,4,num_8,32,num_6,0.833427149337,,,2018_Mar_02_1145,60.0064090407,FEMA4ImagesEEG,001,203206,
AFNE01.JPG,AFNE01.JPG,AFNE01.JPG,AFNE01.JPG,AFNE01.JPG,AFNE01.JPG,,,,,,,,,,,,,,,,,0,2,2,7,,,,,,,AFNE19.jpg,AFSA15.jpg,AFNE12.jpg,AFSA10.jpg,AFSA15.jpg,FS,4,num_6,16,num_6,1.00014016288,,,2018_Mar_02_1145,60.0064090407,FEMA4ImagesEEG,001,203206,
AFNE01.JPG,AFNE01.JPG,AFNE01.JPG,AFNE01.JPG,AFNE01.JPG,AFNE01.JPG,,,,,,,,,,,,,,,,,0,3,3,5,,,,,,,AFNE07.jpg,AFSA06.jpg,AFSA04.jpg,AFNE03.jpg,AFSA06.jpg,FS,4,num_6,32,num_2,1.3500922604,,,2018_Mar_02_1145,60.0064090407,FEMA4ImagesEEG,001,203206,
AFNE01.JPG,AFNE01.JPG,AFNE01.JPG,AFNE01.JPG,AFNE01.JPG,AFNE01.JPG,,,,,,,,,,,,,,,,,0,4,4,9,,,,,,,AFSA14.jpg,AFNE09.jpg,AFSA08.jpg,AFNE18.jpg,AFSA14.jpg,FS,4,num_8,32,num_4,0.699972833507,,,2018_Mar_02_1145,60.0064090407,FEMA4ImagesEEG,001,203206,
AFNE01.JPG,AFNE01.JPG,AFNE01.JPG,AFNE01.JPG,AFNE01.JPG,AFNE01.JPG,,,,,,,,,,,,,,,,,0,5,5,0,,,,,,,AFSA08.jpg,AFNE03.jpg,AFNE19.jpg,AFSA03.jpg,AFNE19.jpg,FN,3,num_2,16,num_2,0.966754773632,,,2018_Mar_02_1145,60.0064090407,FEMA4ImagesEEG,001,203206,
AFNE01.JPG,AFNE01.JPG,AFNE01.JPG,AFNE01.JPG,AFNE01.JPG,AFNE01.JPG,,,,,,,,,,,,,,,,,0,6,6,6,,,,,,,AFSA02.jpg,AFNE15.jpg,AFSA17.jpg,AFNE02.jpg,AFSA02.jpg,FS,4,num_8,32,num_2,0.833444469376,,,2018_Mar_02_1145,60.0064090407,FEMA4ImagesEEG,001,203206,
AFNE01.JPG,AFNE01.JPG,AFNE01.JPG,AFNE01.JPG,AFNE01.JPG,AFNE01.JPG,,,,,,,,,,,,,,,,,0,7,7,3,,,,,,,AFSA06.jpg,AFSA13.jpg,AFNE10.jpg,AFNE08.jpg,AFSA06.jpg,FS,4,num_8,32,num_4,0.950139858294,,,2018_Mar_02_1145,60.0064090407,FEMA4ImagesEEG,001,203206,
AFNE01.JPG,AFNE01.JPG,AFNE01.JPG,AFNE01.JPG,AFNE01.JPG,AFNE01.JPG,,,,,,,,,,,,,,,,,0,8,8,8,,,,,,,AFSA18.jpg,AFSA19.jpg,AFNE01.jpg,AFNE10.jpg,AFSA18.jpg,FS,4,num_8,32,num_6,0.750169109553,,,2018_Mar_02_1145,60.0064090407,FEMA4ImagesEEG,001,203206,
AFNE01.JPG,AFNE01.JPG,AFNE01.JPG,AFNE01.JPG,AFNE01.JPG,AFNE01.JPG,,,,,,,,,,,,,,,,,0,9,9,1,,,,,,,AFSA04.jpg,AFNE13.jpg,AFNE04.jpg,AFSA16.jpg,AFNE04.jpg,FN,3,num_2,16,num_2,1.05009716772,,,2018_Mar_02_1145,60.0064090407,FEMA4ImagesEEG,001,203206,
AFNE01.JPG,AFNE01.JPG,AFNE01.JPG,AFNE01.JPG,AFNE01.JPG,AFNE01.JPG,,,,,,,,,,,,,,,,,1,0,10,5,,,,,,,AFSA05.jpg,AFNE08.jpg,AFNE02.jpg,AFSA15.jpg,AFNE08.jpg,FN,3,num_6,32,num_4,0.78346822015,,,2018_Mar_02_1145,60.0064090407,FEMA4ImagesEEG,001,203206,
AFNE01.JPG,AFNE01.JPG,AFNE01.JPG,AFNE01.JPG,AFNE01.JPG,AFNE01.JPG,,,,,,,,,,,,,,,,,1,1,11,2,,,,,,,AFSA06.jpg,AFSA15.jpg,AFNE01.jpg,AFNE11.jpg,AFNE01.jpg,FN,3,num_2,32,num_4,0.783482653322,,,2018_Mar_02_1145,60.0064090407,FEMA4ImagesEEG,001,203206,
AFNE01.JPG,AFNE01.JPG,AFNE01.JPG,AFNE01.JPG,AFNE01.JPG,AFNE01.JPG,,,,,,,,,,,,,,,,,1,2,12,3,,,,,,,AFNE15.jpg,AFSA01.jpg,AFSA04.jpg,AFNE03.jpg,AFSA01.jpg,FS,4,num_6,16,num_6,0.933459191117,,,2018_Mar_02_1145,60.0064090407,FEMA4ImagesEEG,001,203206,
AFNE01.JPG,AFNE01.JPG,AFNE01.JPG,AFNE01.JPG,AFNE01.JPG,AFNE01.JPG,,,,,,,,,,,,,,,,,1,3,13,6,,,,,,,AFNE13.jpg,AFSA17.jpg,AFSA04.jpg,AFNE01.jpg,AFSA17.jpg,FS,4,num_6,16,num_6,0.933468813542,,,2018_Mar_02_1145,60.0064090407,FEMA4ImagesEEG,001,203206,
AFNE01.JPG,AFNE01.JPG,AFNE01.JPG,AFNE01.JPG,AFNE01.JPG,AFNE01.JPG,,,,,,,,,,,,,,,,,1,4,14,8,,,,,,,AFNE03.jpg,AFNE11.jpg,AFSA07.jpg,AFSA18.jpg,AFNE11.jpg,FN,3,num_6,16,num_6,0.78344673058,,,2018_Mar_02_1145,60.0064090407,FEMA4ImagesEEG,001,203206,
AFNE01.JPG,AFNE01.JPG,AFNE01.JPG,AFNE01.JPG,AFNE01.JPG,AFNE01.JPG,,,,,,,,,,,,,,,,,1,5,15,9,,,,,,,AFSA06.jpg,AFNE05.jpg,AFSA16.jpg,AFNE02.jpg,AFNE02.jpg,FN,3,num_4,16,num_4,0.983476495137,,,2018_Mar_02_1145,60.0064090407,FEMA4ImagesEEG,001,203206,
AFNE01.JPG,AFNE01.JPG,AFNE01.JPG,AFNE01.JPG,AFNE01.JPG,AFNE01.JPG,,,,,,,,,,,,,,,,,1,6,16,0,,,,,,,AFSA17.jpg,AFNE06.jpg,AFSA20.jpg,AFNE18.jpg,AFNE18.jpg,FN,3,num_4,16,num_4,0.700141541893,,,2018_Mar_02_1145,60.0064090407,FEMA4ImagesEEG,001,203206,
AFNE01.JPG,AFNE01.JPG,AFNE01.JPG,AFNE01.JPG,AFNE01.JPG,AFNE01.JPG,,,,,,,,,,,,,,,,,1,7,17,7,,,,,,,AFSA04.jpg,AFSA10.jpg,AFNE10.jpg,AFNE11.jpg,AFNE11.jpg,FN,3,num_4,16,num_4,0.883462414844,,,2018_Mar_02_1145,60.0064090407,FEMA4ImagesEEG,001,203206,
AFNE01.JPG,AFNE01.JPG,AFNE01.JPG,AFNE01.JPG,AFNE01.JPG,AFNE01.JPG,,,,,,,,,,,,,,,,,1,8,18,4,,,,,,,AFSA15.jpg,AFSA05.jpg,AFNE13.jpg,AFNE04.jpg,AFNE13.jpg,FN,3,num_2,32,num_6,1.35008744965,,,2018_Mar_02_1145,60.0064090407,FEMA4ImagesEEG,001,203206,
AFNE01.JPG,AFNE01.JPG,AFNE01.JPG,AFNE01.JPG,AFNE01.JPG,AFNE01.JPG,,,,,,,,,,,,,,,,,1,9,19,1,,,,,,,AFSA06.jpg,AFSA20.jpg,AFNE13.jpg,AFNE14.jpg,AFNE14.jpg,FN,3,num_4,32,num_6,0.583469567355,,,2018_Mar_02_1145,60.0064090407,FEMA4ImagesEEG,001,203206,
AFNE01.JPG,AFNE01.JPG,AFNE01.JPG,AFNE01.JPG,AFNE01.JPG,AFNE01.JPG,,,,,,,,,,,,,,,,,2,0,20,8,,,,,,,AFNE05.jpg,AFNE09.jpg,AFSA17.jpg,AFSA10.jpg,AFSA17.jpg,FS,4,num_2,32,num_6,0.933465926675,,,2018_Mar_02_1145,60.0064090407,FEMA4ImagesEEG,001,203206,
AFNE01.JPG,AFNE01.JPG,AFNE01.JPG,AFNE01.JPG,AFNE01.JPG,AFNE01.JPG,,,,,,,,,,,,,,,,,2,1,21,9,,,,,,,AFNE18.jpg,AFNE17.jpg,AFSA20.jpg,AFSA07.jpg,AFSA20.jpg,FS,4,num_2,32,num_6,0.933441229863,,,2018_Mar_02_1145,60.0064090407,FEMA4ImagesEEG,001,203206,
AFNE01.JPG,AFNE01.JPG,AFNE01.JPG,AFNE01.JPG,AFNE01.JPG,AFNE01.JPG,,,,,,,,,,,,,,,,,2,2,22,5,,,,,,,AFSA02.jpg,AFNE07.jpg,AFSA18.jpg,AFNE08.jpg,AFSA02.jpg,FS,4,num_8,32,num_2,0.750151468907,,,2018_Mar_02_1145,60.0064090407,FEMA4ImagesEEG,001,203206,
AFNE01.JPG,AFNE01.JPG,AFNE01.JPG,AFNE01.JPG,AFNE01.JPG,AFNE01.JPG,,,,,,,,,,,,,,,,,2,3,23,0,,,,,,,AFSA16.jpg,AFSA13.jpg,AFNE04.jpg,AFNE19.jpg,AFNE19.jpg,FN,3,num_4,16,num_4,0.966789734317,,,2018_Mar_02_1145,60.0064090407,FEMA4ImagesEEG,001,203206,
AFNE01.JPG,AFNE01.JPG,AFNE01.JPG,AFNE01.JPG,AFNE01.JPG,AFNE01.JPG,,,,,,,,,,,,,,,,,2,4,24,3,,,,,,,AFSA16.jpg,AFSA19.jpg,AFNE15.jpg,AFNE19.jpg,AFNE19.jpg,FN,3,num_4,16,num_4,1.13341358234,,,2018_Mar_02_1145,60.0064090407,FEMA4ImagesEEG,001,203206,
AFNE01.JPG,AFNE01.JPG,AFNE01.JPG,AFNE01.JPG,AFNE01.JPG,AFNE01.JPG,,,,,,,,,,,,,,,,,2,5,25,7,,,,,,,AFSA04.jpg,AFNE14.jpg,AFNE12.jpg,AFSA11.jpg,AFSA04.jpg,FS,4,num_8,32,num_6,0.66676834086,,,2018_Mar_02_1145,60.0064090407,FEMA4ImagesEEG,001,203206,
AFNE01.JPG,AFNE01.JPG,AFNE01.JPG,AFNE01.JPG,AFNE01.JPG,AFNE01.JPG,,,,,,,,,,,,,,,,,2,6,26,2,,,,,,,AFSA19.jpg,AFSA18.jpg,AFNE04.jpg,AFNE12.jpg,AFSA18.jpg,FS,4,num_6,16,num_6,0.983492211439,,,2018_Mar_02_1145,60.0064090407,FEMA4ImagesEEG,001,203206,
AFNE01.JPG,AFNE01.JPG,AFNE01.JPG,AFNE01.JPG,AFNE01.JPG,AFNE01.JPG,,,,,,,,,,,,,,,,,2,7,27,4,,,,,,,AFSA20.jpg,AFNE04.jpg,AFSA05.jpg,AFNE12.jpg,AFSA05.jpg,FS,4,num_2,32,num_8,1.13344982569,,,2018_Mar_02_1145,60.0064090407,FEMA4ImagesEEG,001,203206,
AFNE01.JPG,AFNE01.JPG,AFNE01.JPG,AFNE01.JPG,AFNE01.JPG,AFNE01.JPG,,,,,,,,,,,,,,,,,2,8,28,1,,,,,,,AFNE01.jpg,AFSA10.jpg,AFSA06.jpg,AFNE07.jpg,AFNE07.jpg,FN,3,num_4,16,num_4,1.00012380513,,,2018_Mar_02_1145,60.0064090407,FEMA4ImagesEEG,001,203206,
AFNE01.JPG,AFNE01.JPG,AFNE01.JPG,AFNE01.JPG,AFNE01.JPG,AFNE01.JPG,,,,,,,,,,,,,,,,,2,9,29,6,,,,,,,AFSA07.jpg,AFNE14.jpg,AFNE11.jpg,AFSA18.jpg,AFNE14.jpg,FN,3,num_6,16,num_6,0.750169430161,,,2018_Mar_02_1145,60.0064090407,FEMA4ImagesEEG,001,203206,
AFNE01.JPG,AFNE01.JPG,AFNE01.JPG,AFNE01.JPG,AFNE01.JPG,AFNE01.JPG,,,,,,,,,,,,,,,,,3,0,30,5,,,,,,,AFNE02.jpg,AFSA20.jpg,AFSA09.jpg,AFNE16.jpg,AFSA20.jpg,FS,4,num_6,16,num_6,0.800155622419,,,2018_Mar_02_1145,60.0064090407,FEMA4ImagesEEG,001,203206,
AFNE01.JPG,AFNE01.JPG,AFNE01.JPG,AFNE01.JPG,AFNE01.JPG,AFNE01.JPG,,,,,,,,,,,,,,,,,3,1,31,2,,,,,,,AFSA09.jpg,AFNE18.jpg,AFSA08.jpg,AFNE08.jpg,AFNE08.jpg,FN,3,num_4,16,num_4,1.15009040036,,,2018_Mar_02_1145,60.0064090407,FEMA4ImagesEEG,001,203206,
AFNE01.JPG,AFNE01.JPG,AFNE01.JPG,AFNE01.JPG,AFNE01.JPG,AFNE01.JPG,,,,,,,,,,,,,,,,,3,2,32,4,,,,,,,AFSA10.jpg,AFNE04.jpg,AFSA20.jpg,AFNE03.jpg,AFNE03.jpg,FN,3,num_4,32,num_2,1.28344143834,,,2018_Mar_02_1145,60.0064090407,FEMA4ImagesEEG,001,203206,
AFNE01.JPG,AFNE01.JPG,AFNE01.JPG,AFNE01.JPG,AFNE01.JPG,AFNE01.JPG,,,,,,,,,,,,,,,,,3,3,33,6,,,,,,,AFNE07.jpg,AFSA04.jpg,AFSA07.jpg,AFNE09.jpg,AFSA07.jpg,FS,4,num_2,16,num_2,1.58342658821,,,2018_Mar_02_1145,60.0064090407,FEMA4ImagesEEG,001,203206,
AFNE01.JPG,AFNE01.JPG,AFNE01.JPG,AFNE01.JPG,AFNE01.JPG,AFNE01.JPG,,,,,,,,,,,,,,,,,3,4,34,3,,,,,,,AFNE03.jpg,AFNE04.jpg,AFSA02.jpg,AFSA17.jpg,AFSA02.jpg,FS,4,num_2,32,num_4,0.833483278751,,,2018_Mar_02_1145,60.0064090407,FEMA4ImagesEEG,001,203206,
AFNE01.JPG,AFNE01.JPG,AFNE01.JPG,AFNE01.JPG,AFNE01.JPG,AFNE01.JPG,,,,,,,,,,,,,,,,,3,5,35,8,,,,,,,AFNE04.jpg,AFSA20.jpg,AFSA13.jpg,AFNE02.jpg,AFNE02.jpg,FN,3,num_4,16,num_4,0.733524044743,,,2018_Mar_02_1145,60.0064090407,FEMA4ImagesEEG,001,203206,
AFNE01.JPG,AFNE01.JPG,AFNE01.JPG,AFNE01.JPG,AFNE01.JPG,AFNE01.JPG,,,,,,,,,,,,,,,,,3,6,36,1,,,,,,,AFSA04.jpg,AFNE18.jpg,AFNE12.jpg,AFSA17.jpg,AFNE18.jpg,FN,3,num_6,16,num_6,0.966857730877,,,2018_Mar_02_1145,60.0064090407,FEMA4ImagesEEG,001,203206,
AFNE01.JPG,AFNE01.JPG,AFNE01.JPG,AFNE01.JPG,AFNE01.JPG,AFNE01.JPG,,,,,,,,,,,,,,,,,3,7,37,9,,,,,,,AFNE02.jpg,AFSA20.jpg,AFSA05.jpg,AFNE16.jpg,AFNE16.jpg,FN,3,num_4,32,num_6,0.983447949402,,,2018_Mar_02_1145,60.0064090407,FEMA4ImagesEEG,001,203206,
AFNE01.JPG,AFNE01.JPG,AFNE01.JPG,AFNE01.JPG,AFNE01.JPG,AFNE01.JPG,,,,,,,,,,,,,,,,,3,8,38,0,,,,,,,AFSA20.jpg,AFSA13.jpg,AFNE08.jpg,AFNE09.jpg,AFSA13.jpg,FS,4,num_6,16,num_6,1.10011222656,,,2018_Mar_02_1145,60.0064090407,FEMA4ImagesEEG,001,203206,
AFNE01.JPG,AFNE01.JPG,AFNE01.JPG,AFNE01.JPG,AFNE01.JPG,AFNE01.JPG,,,,,,,,,,,,,,,,,3,9,39,7,,,,,,,AFSA08.jpg,AFNE19.jpg,AFSA17.jpg,AFNE09.jpg,AFSA08.jpg,FS,4,num_8,32,num_6,1.48333424749,,,2018_Mar_02_1145,60.0064090407,FEMA4ImagesEEG,001,203206,
AFNE01.JPG,AFNE01.JPG,AFNE01.JPG,AFNE01.JPG,AFNE01.JPG,AFNE01.JPG,,,,,,,,,,,,,,,,,4,0,40,1,,,,,,,AFSA13.jpg,AFNE09.jpg,AFSA19.jpg,AFNE13.jpg,AFNE13.jpg,FN,3,num_4,16,num_4,1.05008113082,,,2018_Mar_02_1145,60.0064090407,FEMA4ImagesEEG,001,203206,
AFNE01.JPG,AFNE01.JPG,AFNE01.JPG,AFNE01.JPG,AFNE01.JPG,AFNE01.JPG,,,,,,,,,,,,,,,,,4,1,41,8,,,,,,,AFSA14.jpg,AFSA04.jpg,AFNE13.jpg,AFNE08.jpg,AFNE13.jpg,FN,3,num_2,32,num_4,1.45009639813,,,2018_Mar_02_1145,60.0064090407,FEMA4ImagesEEG,001,203206,
AFNE01.JPG,AFNE01.JPG,AFNE01.JPG,AFNE01.JPG,AFNE01.JPG,AFNE01.JPG,,,,,,,,,,,,,,,,,4,2,42,4,,,,,,,AFNE07.jpg,AFNE08.jpg,AFSA02.jpg,AFSA14.jpg,AFSA02.jpg,FS,4,num_2,32,num_4,1.10012665973,,,2018_Mar_02_1145,60.0064090407,FEMA4ImagesEEG,001,203206,
AFNE01.JPG,AFNE01.JPG,AFNE01.JPG,AFNE01.JPG,AFNE01.JPG,AFNE01.JPG,,,,,,,,,,,,,,,,,4,3,43,3,,,,,,,AFNE08.jpg,AFSA16.jpg,AFNE13.jpg,AFSA14.jpg,AFNE13.jpg,FN,3,num_2,16,num_2,0.700108826626,,,2018_Mar_02_1145,60.0064090407,FEMA4ImagesEEG,001,203206,
AFNE01.JPG,AFNE01.JPG,AFNE01.JPG,AFNE01.JPG,AFNE01.JPG,AFNE01.JPG,,,,,,,,,,,,,,,,,4,4,44,6,,,,,,,AFSA17.jpg,AFSA14.jpg,AFNE05.jpg,AFNE12.jpg,AFSA14.jpg,FS,4,num_6,32,num_4,0.80013477453,,,2018_Mar_02_1145,60.0064090407,FEMA4ImagesEEG,001,203206,
AFNE01.JPG,AFNE01.JPG,AFNE01.JPG,AFNE01.JPG,AFNE01.JPG,AFNE01.JPG,,,,,,,,,,,,,,,,,4,5,45,9,,,,,,,AFNE03.jpg,AFSA12.jpg,AFNE12.jpg,AFSA19.jpg,AFSA12.jpg,FS,4,num_6,16,num_6,0.616797223454,,,2018_Mar_02_1145,60.0064090407,FEMA4ImagesEEG,001,203206,
AFNE01.JPG,AFNE01.JPG,AFNE01.JPG,AFNE01.JPG,AFNE01.JPG,AFNE01.JPG,,,,,,,,,,,,,,,,,4,6,46,2,,,,,,,AFSA02.jpg,AFNE16.jpg,AFNE01.jpg,AFSA18.jpg,AFSA18.jpg,FS,4,num_4,16,num_4,0.666753907688,,,2018_Mar_02_1145,60.0064090407,FEMA4ImagesEEG,001,203206,
AFNE01.JPG,AFNE01.JPG,AFNE01.JPG,AFNE01.JPG,AFNE01.JPG,AFNE01.JPG,,,,,,,,,,,,,,,,,4,7,47,5,,,,,,,AFNE10.jpg,AFNE02.jpg,AFSA20.jpg,AFSA06.jpg,AFSA20.jpg,FS,4,num_2,32,num_6,0.733392220922,,,2018_Mar_02_1145,60.0064090407,FEMA4ImagesEEG,001,203206,
AFNE01.JPG,AFNE01.JPG,AFNE01.JPG,AFNE01.JPG,AFNE01.JPG,AFNE01.JPG,,,,,,,,,,,,,,,,,4,8,48,0,,,,,,,AFSA01.jpg,AFNE02.jpg,AFSA14.jpg,AFNE08.jpg,AFSA14.jpg,FS,4,num_2,32,num_8,1.7834460889,,,2018_Mar_02_1145,60.0064090407,FEMA4ImagesEEG,001,203206,
AFNE01.JPG,AFNE01.JPG,AFNE01.JPG,AFNE01.JPG,AFNE01.JPG,AFNE01.JPG,,,,,,,,,,,,,,,,,4,9,49,7,,,,,,,AFNE05.jpg,AFSA07.jpg,AFSA13.jpg,AFNE03.jpg,AFNE03.jpg,FN,3,num_4,16,num_4,0.683493911289,,,2018_Mar_02_1145,60.0064090407,FEMA4ImagesEEG,001,203206,
AFNE01.JPG,AFNE01.JPG,AFNE01.JPG,AFNE01.JPG,AFNE01.JPG,AFNE01.JPG,,,,,,,,,,,,,,,,,5,0,50,7,,,,,,,AFSA09.jpg,AFNE13.jpg,AFSA03.jpg,AFNE06.jpg,AFSA03.jpg,FS,4,num_2,16,num_2,1.53338522883,,,2018_Mar_02_1145,60.0064090407,FEMA4ImagesEEG,001,203206,
AFNE01.JPG,AFNE01.JPG,AFNE01.JPG,AFNE01.JPG,AFNE01.JPG,AFNE01.JPG,,,,,,,,,,,,,,,,,5,1,51,5,,,,,,,AFSA06.jpg,AFNE08.jpg,AFNE04.jpg,AFSA05.jpg,AFNE08.jpg,FN,3,num_6,16,num_6,0.866772125708,,,2018_Mar_02_1145,60.0064090407,FEMA4ImagesEEG,001,203206,
AFNE01.JPG,AFNE01.JPG,AFNE01.JPG,AFNE01.JPG,AFNE01.JPG,AFNE01.JPG,,,,,,,,,,,,,,,,,5,2,52,3,,,,,,,AFNE12.jpg,AFNE10.jpg,AFSA02.jpg,AFSA20.jpg,AFSA02.jpg,FS,4,num_2,32,num_4,0.900102347834,,,2018_Mar_02_1145,60.0064090407,FEMA4ImagesEEG,001,203206,
AFNE01.JPG,AFNE01.JPG,AFNE01.JPG,AFNE01.JPG,AFNE01.JPG,AFNE01.JPG,,,,,,,,,,,,,,,,,5,3,53,0,,,,,,,AFSA07.jpg,AFNE10.jpg,AFNE11.jpg,AFSA03.jpg,AFNE11.jpg,FN,3,num_2,32,num_4,0.833481995855,,,2018_Mar_02_1145,60.0064090407,FEMA4ImagesEEG,001,203206,
AFNE01.JPG,AFNE01.JPG,AFNE01.JPG,AFNE01.JPG,AFNE01.JPG,AFNE01.JPG,,,,,,,,,,,,,,,,,5,4,54,4,,,,,,,AFSA13.jpg,AFNE12.jpg,AFSA16.jpg,AFNE08.jpg,AFNE08.jpg,FN,3,num_4,32,num_6,0.70012678788,,,2018_Mar_02_1145,60.0064090407,FEMA4ImagesEEG,001,203206,
AFNE01.JPG,AFNE01.JPG,AFNE01.JPG,AFNE01.JPG,AFNE01.JPG,AFNE01.JPG,,,,,,,,,,,,,,,,,5,5,55,1,,,,,,,AFNE18.jpg,AFSA09.jpg,AFSA16.jpg,AFNE20.jpg,AFSA09.jpg,FS,4,num_6,32,num_4,0.933451814344,,,2018_Mar_02_1145,60.0064090407,FEMA4ImagesEEG,001,203206,
AFNE01.JPG,AFNE01.JPG,AFNE01.JPG,AFNE01.JPG,AFNE01.JPG,AFNE01.JPG,,,,,,,,,,,,,,,,,5,6,56,6,,,,,,,AFSA03.jpg,AFNE15.jpg,AFNE13.jpg,AFSA02.jpg,AFSA02.jpg,FS,4,num_4,32,num_6,0.666803301312,,,2018_Mar_02_1145,60.0064090407,FEMA4ImagesEEG,001,203206,
AFNE01.JPG,AFNE01.JPG,AFNE01.JPG,AFNE01.JPG,AFNE01.JPG,AFNE01.JPG,,,,,,,,,,,,,,,,,5,7,57,8,,,,,,,AFSA08.jpg,AFSA15.jpg,AFNE12.jpg,AFNE11.jpg,AFSA15.jpg,FS,4,num_6,16,num_6,0.85039808508,,,2018_Mar_02_1145,60.0064090407,FEMA4ImagesEEG,001,203206,
AFNE01.JPG,AFNE01.JPG,AFNE01.JPG,AFNE01.JPG,AFNE01.JPG,AFNE01.JPG,,,,,,,,,,,,,,,,,5,8,58,2,,,,,,,AFSA12.jpg,AFNE20.jpg,AFNE12.jpg,AFSA01.jpg,AFSA01.jpg,FS,4,num_4,16,num_4,1.0167557199,,,2018_Mar_02_1145,60.0064090407,FEMA4ImagesEEG,001,203206,
AFNE01.JPG,AFNE01.JPG,AFNE01.JPG,AFNE01.JPG,AFNE01.JPG,AFNE01.JPG,,,,,,,,,,,,,,,,,5,9,59,9,,,,,,,AFSA09.jpg,AFNE07.jpg,AFSA01.jpg,AFNE13.jpg,AFSA01.jpg,FS,4,num_2,16,num_2,0.450153168757,,,2018_Mar_02_1145,60.0064090407,FEMA4ImagesEEG,001,203206,
,,,,,,,,,,,,,,,,,,,,,,,,,,,,,,,,,,,,,,,,,,,space,9.96587883565,2018_Mar_02_1145,60.0064090407,FEMA4ImagesEEG,001,203206,
AFNE01.JPG,AFNE01.JPG,AFNE01.JPG,AFNE01.JPG,AFNE01.JPG,AFNE01.JPG,,,,,,,,,,,,,,,,,,,,,0,0,0,8,,,AMNE14.jpg,AMSA16.jpg,AMNE18.jpg,AMSA04.jpg,AMSA04.jpg,MS,2,num_4,16,num_4,0.600148951169,,,2018_Mar_02_1145,60.0064090407,FEMA4ImagesEEG,001,203206,
AFNE01.JPG,AFNE01.JPG,AFNE01.JPG,AFNE01.JPG,AFNE01.JPG,AFNE01.JPG,,,,,,,,,,,,,,,,,,,,,0,1,1,6,,,AMSA07.jpg,AMNE16.jpg,AMSA12.jpg,AMNE06.jpg,AMSA07.jpg,MS,2,num_8,16,num_8,1.73333480861,,,2018_Mar_02_1145,60.0064090407,FEMA4ImagesEEG,001,203206,
AFNE01.JPG,AFNE01.JPG,AFNE01.JPG,AFNE01.JPG,AFNE01.JPG,AFNE01.JPG,,,,,,,,,,,,,,,,,,,,,0,2,2,4,,,AMNE17.jpg,AMSA08.jpg,AMSA02.jpg,AMNE09.jpg,AMSA02.jpg,MS,2,num_2,16,num_2,0.416792155709,,,2018_Mar_02_1145,60.0064090407,FEMA4ImagesEEG,001,203206,
AFNE01.JPG,AFNE01.JPG,AFNE01.JPG,AFNE01.JPG,AFNE01.JPG,AFNE01.JPG,,,,,,,,,,,,,,,,,,,,,0,3,3,7,,,AMSA10.jpg,AMSA03.jpg,AMNE01.jpg,AMNE08.jpg,AMNE01.jpg,MN,1,num_2,16,num_2,0.399890179047,,,2018_Mar_02_1145,60.0064090407,FEMA4ImagesEEG,001,203206,
AFNE01.JPG,AFNE01.JPG,AFNE01.JPG,AFNE01.JPG,AFNE01.JPG,AFNE01.JPG,,,,,,,,,,,,,,,,,,,,,0,4,4,3,,,AMNE04.jpg,AMSA02.jpg,AMSA10.jpg,AMNE12.jpg,AMSA02.jpg,MS,2,num_6,32,num_8,0.466794705717,,,2018_Mar_02_1145,60.0064090407,FEMA4ImagesEEG,001,203206,
AFNE01.JPG,AFNE01.JPG,AFNE01.JPG,AFNE01.JPG,AFNE01.JPG,AFNE01.JPG,,,,,,,,,,,,,,,,,,,,,0,5,5,1,,,AMSA09.jpg,AMNE18.jpg,AMNE20.jpg,AMSA20.jpg,AMSA20.jpg,MS,2,num_4,16,num_4,1.15032261517,,,2018_Mar_02_1145,60.0064090407,FEMA4ImagesEEG,001,203206,
AFNE01.JPG,AFNE01.JPG,AFNE01.JPG,AFNE01.JPG,AFNE01.JPG,AFNE01.JPG,,,,,,,,,,,,,,,,,,,,,0,6,6,9,,,AMNE13.jpg,AMNE12.jpg,AMSA09.jpg,AMSA06.jpg,AMNE12.jpg,MN,1,num_6,16,num_6,0.633447420085,,,2018_Mar_02_1145,60.0064090407,FEMA4ImagesEEG,001,203206,
AFNE01.JPG,AFNE01.JPG,AFNE01.JPG,AFNE01.JPG,AFNE01.JPG,AFNE01.JPG,,,,,,,,,,,,,,,,,,,,,0,7,7,2,,,AMNE17.jpg,AMSA12.jpg,AMNE01.jpg,AMSA05.jpg,AMNE01.jpg,MN,1,num_2,32,num_4,1.13342705322,,,2018_Mar_02_1145,60.0064090407,FEMA4ImagesEEG,001,203206,
AFNE01.JPG,AFNE01.JPG,AFNE01.JPG,AFNE01.JPG,AFNE01.JPG,AFNE01.JPG,,,,,,,,,,,,,,,,,,,,,0,8,8,5,,,AMNE03.jpg,AMSA10.jpg,AMNE02.jpg,AMSA15.jpg,AMSA10.jpg,MS,2,num_6,32,num_8,2.28336766851,,,2018_Mar_02_1145,60.0064090407,FEMA4ImagesEEG,001,203206,
AFNE01.JPG,AFNE01.JPG,AFNE01.JPG,AFNE01.JPG,AFNE01.JPG,AFNE01.JPG,,,,,,,,,,,,,,,,,,,,,0,9,9,0,,,AMNE12.jpg,AMSA03.jpg,AMNE06.jpg,AMSA06.jpg,AMSA03.jpg,MS,2,num_6,16,num_6,0.650164330611,,,2018_Mar_02_1145,60.0064090407,FEMA4ImagesEEG,001,203206,
AFNE01.JPG,AFNE01.JPG,AFNE01.JPG,AFNE01.JPG,AFNE01.JPG,AFNE01.JPG,,,,,,,,,,,,,,,,,,,,,1,0,10,1,,,AMSA17.jpg,AMNE20.jpg,AMSA15.jpg,AMNE01.jpg,AMNE20.jpg,MN,1,num_6,16,num_6,0.816764444113,,,2018_Mar_02_1145,60.0064090407,FEMA4ImagesEEG,001,203206,
AFNE01.JPG,AFNE01.JPG,AFNE01.JPG,AFNE01.JPG,AFNE01.JPG,AFNE01.JPG,,,,,,,,,,,,,,,,,,,,,1,1,11,9,,,AMNE01.jpg,AMNE18.jpg,AMSA10.jpg,AMSA19.jpg,AMSA10.jpg,MS,2,num_2,32,num_6,0.816573604243,,,2018_Mar_02_1145,60.0064090407,FEMA4ImagesEEG,001,203206,
AFNE01.JPG,AFNE01.JPG,AFNE01.JPG,AFNE01.JPG,AFNE01.JPG,AFNE01.JPG,,,,,,,,,,,,,,,,,,,,,1,2,12,7,,,AMSA03.jpg,AMNE04.jpg,AMSA20.jpg,AMNE13.jpg,AMSA03.jpg,MS,2,num_8,16,num_8,1.20011925092,,,2018_Mar_02_1145,60.0064090407,FEMA4ImagesEEG,001,203206,
AFNE01.JPG,AFNE01.JPG,AFNE01.JPG,AFNE01.JPG,AFNE01.JPG,AFNE01.JPG,,,,,,,,,,,,,,,,,,,,,1,3,13,6,,,AMSA13.jpg,AMNE05.jpg,AMSA09.jpg,AMNE01.jpg,AMSA09.jpg,MS,2,num_2,32,num_6,0.900117101846,,,2018_Mar_02_1145,60.0064090407,FEMA4ImagesEEG,001,203206,
AFNE01.JPG,AFNE01.JPG,AFNE01.JPG,AFNE01.JPG,AFNE01.JPG,AFNE01.JPG,,,,,,,,,,,,,,,,,,,,,1,4,14,8,,,AMSA14.jpg,AMNE19.jpg,AMSA01.jpg,AMNE08.jpg,AMNE19.jpg,MN,1,num_6,32,num_4,0.916493387427,,,2018_Mar_02_1145,60.0064090407,FEMA4ImagesEEG,001,203206,
AFNE01.JPG,AFNE01.JPG,AFNE01.JPG,AFNE01.JPG,AFNE01.JPG,AFNE01.JPG,,,,,,,,,,,,,,,,,,,,,1,5,15,4,,,AMNE14.jpg,AMSA03.jpg,AMNE15.jpg,AMSA13.jpg,AMNE15.jpg,MN,1,num_2,16,num_2,0.516844404163,,,2018_Mar_02_1145,60.0064090407,FEMA4ImagesEEG,001,203206,
AFNE01.JPG,AFNE01.JPG,AFNE01.JPG,AFNE01.JPG,AFNE01.JPG,AFNE01.JPG,,,,,,,,,,,,,,,,,,,,,1,6,16,2,,,AMNE02.jpg,AMSA15.jpg,AMNE03.jpg,AMSA08.jpg,AMNE03.jpg,MN,1,num_2,32,num_8,2.28334489581,,,2018_Mar_02_1145,60.0064090407,FEMA4ImagesEEG,001,203206,
AFNE01.JPG,AFNE01.JPG,AFNE01.JPG,AFNE01.JPG,AFNE01.JPG,AFNE01.JPG,,,,,,,,,,,,,,,,,,,,,1,7,17,0,,,AMNE18.jpg,AMSA12.jpg,AMSA14.jpg,AMNE04.jpg,AMNE18.jpg,MN,1,num_8,32,num_6,0.883482300444,,,2018_Mar_02_1145,60.0064090407,FEMA4ImagesEEG,001,203206,
AFNE01.JPG,AFNE01.JPG,AFNE01.JPG,AFNE01.JPG,AFNE01.JPG,AFNE01.JPG,,,,,,,,,,,,,,,,,,,,,1,8,18,5,,,AMNE05.jpg,AMNE20.jpg,AMSA20.jpg,AMSA06.jpg,AMSA20.jpg,MS,2,num_2,32,num_6,0.733473688597,,,2018_Mar_02_1145,60.0064090407,FEMA4ImagesEEG,001,203206,
AFNE01.JPG,AFNE01.JPG,AFNE01.JPG,AFNE01.JPG,AFNE01.JPG,AFNE01.JPG,,,,,,,,,,,,,,,,,,,,,1,9,19,3,,,AMNE11.jpg,AMSA08.jpg,AMNE10.jpg,AMSA19.jpg,AMNE11.jpg,MN,1,num_8,32,num_6,0.666780208237,,,2018_Mar_02_1145,60.0064090407,FEMA4ImagesEEG,001,203206,
AFNE01.JPG,AFNE01.JPG,AFNE01.JPG,AFNE01.JPG,AFNE01.JPG,AFNE01.JPG,,,,,,,,,,,,,,,,,,,,,2,0,20,8,,,AMSA13.jpg,AMSA11.jpg,AMNE01.jpg,AMNE19.jpg,AMNE19.jpg,MN,1,num_4,16,num_4,0.816830836702,,,2018_Mar_02_1145,60.0064090407,FEMA4ImagesEEG,001,203206,
AFNE01.JPG,AFNE01.JPG,AFNE01.JPG,AFNE01.JPG,AFNE01.JPG,AFNE01.JPG,,,,,,,,,,,,,,,,,,,,,2,1,21,4,,,AMNE09.jpg,AMSA09.jpg,AMSA03.jpg,AMNE02.jpg,AMNE09.jpg,MN,1,num_8,16,num_8,0.883483904181,,,2018_Mar_02_1145,60.0064090407,FEMA4ImagesEEG,001,203206,
AFNE01.JPG,AFNE01.JPG,AFNE01.JPG,AFNE01.JPG,AFNE01.JPG,AFNE01.JPG,,,,,,,,,,,,,,,,,,,,,2,2,22,1,,,AMNE13.jpg,AMSA14.jpg,AMNE04.jpg,AMSA17.jpg,AMSA17.jpg,MS,2,num_4,32,num_6,0.550175588345,,,2018_Mar_02_1145,60.0064090407,FEMA4ImagesEEG,001,203206,
AFNE01.JPG,AFNE01.JPG,AFNE01.JPG,AFNE01.JPG,AFNE01.JPG,AFNE01.JPG,,,,,,,,,,,,,,,,,,,,,2,3,23,6,,,AMSA08.jpg,AMSA17.jpg,AMNE07.jpg,AMNE08.jpg,AMNE08.jpg,MN,1,num_4,16,num_4,0.966768244747,,,2018_Mar_02_1145,60.0064090407,FEMA4ImagesEEG,001,203206,
AFNE01.JPG,AFNE01.JPG,AFNE01.JPG,AFNE01.JPG,AFNE01.JPG,AFNE01.JPG,,,,,,,,,,,,,,,,,,,,,2,4,24,0,,,AMSA19.jpg,AMNE02.jpg,AMSA03.jpg,AMNE14.jpg,AMNE02.jpg,MN,1,num_6,16,num_6,0.666662176372,,,2018_Mar_02_1145,60.0064090407,FEMA4ImagesEEG,001,203206,
AFNE01.JPG,AFNE01.JPG,AFNE01.JPG,AFNE01.JPG,AFNE01.JPG,AFNE01.JPG,,,,,,,,,,,,,,,,,,,,,2,5,25,3,,,AMNE01.jpg,AMSA20.jpg,AMSA04.jpg,AMNE08.jpg,AMNE08.jpg,MN,1,num_4,32,num_6,0.866781106219,,,2018_Mar_02_1145,60.0064090407,FEMA4ImagesEEG,001,203206,
AFNE01.JPG,AFNE01.JPG,AFNE01.JPG,AFNE01.JPG,AFNE01.JPG,AFNE01.JPG,,,,,,,,,,,,,,,,,,,,,2,6,26,7,,,AMSA04.jpg,AMSA20.jpg,AMNE01.jpg,AMNE09.jpg,AMSA04.jpg,MS,2,num_8,32,num_2,0.883529449115,,,2018_Mar_02_1145,60.0064090407,FEMA4ImagesEEG,001,203206,
AFNE01.JPG,AFNE01.JPG,AFNE01.JPG,AFNE01.JPG,AFNE01.JPG,AFNE01.JPG,,,,,,,,,,,,,,,,,,,,,2,7,27,2,,,AMSA18.jpg,AMNE16.jpg,AMSA03.jpg,AMNE02.jpg,AMSA18.jpg,MS,2,num_8,32,num_2,1.06678360817,,,2018_Mar_02_1145,60.0064090407,FEMA4ImagesEEG,001,203206,
AFNE01.JPG,AFNE01.JPG,AFNE01.JPG,AFNE01.JPG,AFNE01.JPG,AFNE01.JPG,,,,,,,,,,,,,,,,,,,,,2,8,28,5,,,AMNE08.jpg,AMSA10.jpg,AMSA09.jpg,AMNE03.jpg,AMNE03.jpg,MN,1,num_4,16,num_4,0.900396144483,,,2018_Mar_02_1145,60.0064090407,FEMA4ImagesEEG,001,203206,
AFNE01.JPG,AFNE01.JPG,AFNE01.JPG,AFNE01.JPG,AFNE01.JPG,AFNE01.JPG,,,,,,,,,,,,,,,,,,,,,2,9,29,9,,,AMSA11.jpg,AMNE03.jpg,AMSA20.jpg,AMNE13.jpg,AMNE03.jpg,MN,1,num_6,16,num_6,0.883396663237,,,2018_Mar_02_1145,60.0064090407,FEMA4ImagesEEG,001,203206,
AFNE01.JPG,AFNE01.JPG,AFNE01.JPG,AFNE01.JPG,AFNE01.JPG,AFNE01.JPG,,,,,,,,,,,,,,,,,,,,,3,0,30,3,,,AMNE15.jpg,AMSA07.jpg,AMNE03.jpg,AMSA01.jpg,AMSA07.jpg,MS,2,num_6,32,num_8,1.68338774657,,,2018_Mar_02_1145,60.0064090407,FEMA4ImagesEEG,001,203206,
AFNE01.JPG,AFNE01.JPG,AFNE01.JPG,AFNE01.JPG,AFNE01.JPG,AFNE01.JPG,,,,,,,,,,,,,,,,,,,,,3,1,31,1,,,AMNE07.jpg,AMSA04.jpg,AMSA06.jpg,AMNE20.jpg,AMNE07.jpg,MN,1,num_8,16,num_8,1.05008979095,,,2018_Mar_02_1145,60.0064090407,FEMA4ImagesEEG,001,203206,
AFNE01.JPG,AFNE01.JPG,AFNE01.JPG,AFNE01.JPG,AFNE01.JPG,AFNE01.JPG,,,,,,,,,,,,,,,,,,,,,3,2,32,6,,,AMSA16.jpg,AMNE07.jpg,AMSA05.jpg,AMNE19.jpg,AMNE19.jpg,MN,1,num_4,32,num_2,0.950188289629,,,2018_Mar_02_1145,60.0064090407,FEMA4ImagesEEG,001,203206,
AFNE01.JPG,AFNE01.JPG,AFNE01.JPG,AFNE01.JPG,AFNE01.JPG,AFNE01.JPG,,,,,,,,,,,,,,,,,,,,,3,3,33,9,,,AMNE15.jpg,AMSA15.jpg,AMSA05.jpg,AMNE02.jpg,AMNE15.jpg,MN,1,num_8,16,num_8,0.966809619917,,,2018_Mar_02_1145,60.0064090407,FEMA4ImagesEEG,001,203206,
AFNE01.JPG,AFNE01.JPG,AFNE01.JPG,AFNE01.JPG,AFNE01.JPG,AFNE01.JPG,,,,,,,,,,,,,,,,,,,,,3,4,34,7,,,AMNE14.jpg,AMSA20.jpg,AMNE04.jpg,AMSA15.jpg,AMNE04.jpg,MN,1,num_2,16,num_2,1.21675982513,,,2018_Mar_02_1145,60.0064090407,FEMA4ImagesEEG,001,203206,
AFNE01.JPG,AFNE01.JPG,AFNE01.JPG,AFNE01.JPG,AFNE01.JPG,AFNE01.JPG,,,,,,,,,,,,,,,,,,,,,3,5,35,0,,,AMNE17.jpg,AMSA16.jpg,AMNE10.jpg,AMSA18.jpg,AMSA16.jpg,MS,2,num_6,16,num_6,0.950130877551,,,2018_Mar_02_1145,60.0064090407,FEMA4ImagesEEG,001,203206,
AFNE01.JPG,AFNE01.JPG,AFNE01.JPG,AFNE01.JPG,AFNE01.JPG,AFNE01.JPG,,,,,,,,,,,,,,,,,,,,,3,6,36,5,,,AMSA11.jpg,AMSA13.jpg,AMNE03.jpg,AMNE08.jpg,AMNE03.jpg,MN,1,num_2,32,num_8,0.883574031759,,,2018_Mar_02_1145,60.0064090407,FEMA4ImagesEEG,001,203206,
AFNE01.JPG,AFNE01.JPG,AFNE01.JPG,AFNE01.JPG,AFNE01.JPG,AFNE01.JPG,,,,,,,,,,,,,,,,,,,,,3,7,37,4,,,AMSA19.jpg,AMNE10.jpg,AMSA14.jpg,AMNE07.jpg,AMSA19.jpg,MS,2,num_8,32,num_6,0.650126162684,,,2018_Mar_02_1145,60.0064090407,FEMA4ImagesEEG,001,203206,
AFNE01.JPG,AFNE01.JPG,AFNE01.JPG,AFNE01.JPG,AFNE01.JPG,AFNE01.JPG,,,,,,,,,,,,,,,,,,,,,3,8,38,8,,,AMNE11.jpg,AMSA03.jpg,AMNE20.jpg,AMSA11.jpg,AMSA11.jpg,MS,2,num_4,32,num_6,0.98345981678,,,2018_Mar_02_1145,60.0064090407,FEMA4ImagesEEG,001,203206,
