IPosition2,IPosition3,IPosition1,IPosition6,IPosition4,IPosition5,TrialsF1.thisRepN,TrialsF1.thisTrialN,TrialsF1.thisN,TrialsF1.thisIndex,TrialsM1.thisRepN,TrialsM1.thisTrialN,TrialsM1.thisN,TrialsM1.thisIndex,TrialsF2.thisRepN,TrialsF2.thisTrialN,TrialsF2.thisN,TrialsF2.thisIndex,TrialsM2.thisRepN,TrialsM2.thisTrialN,TrialsM2.thisN,TrialsM2.thisIndex,TrialsF3.thisRepN,TrialsF3.thisTrialN,TrialsF3.thisN,TrialsF3.thisIndex,TrialsM3.thisRepN,TrialsM3.thisTrialN,TrialsM3.thisN,TrialsM3.thisIndex,InstrKey_resp.keys,InstrKey_resp.rt,Image0 _Position,Image1 _Position,Image2 _Position,Image3 _Position,Center_image,condition,code,correct_answer,accuracy,Key_Resp.keys,Key_Resp.rt,BreakKey_resp.keys,BreakKey_resp.rt,date,frameRate,expName,session,participant,
,,,,,,,,,,,,,,,,,,,,,,,,,,,,,,space,11.6827802827,,,,,,,,,,,,,,2018_Mar_29_1748,60.0132815643,FEMA4ImagesEEG,001,203271,
AFNE23.JPG,AFNE24.JPG,AFNE22.JPG,AFSA24.JPG,AFSA22.JPG,AFSA23.JPG,0,0,0,8,,,,,,,,,,,,,,,,,,,,,,,AFNE09.jpg,AFSA11.jpg,AFSA07.jpg,AFNE13.jpg,AFSA11.jpg,FS,4,num_6,16,num_6,1.35013301054,,,2018_Mar_29_1748,60.0132815643,FEMA4ImagesEEG,001,203271,
AMSA21.JPG,AMNE22.JPG,AMNE21.JPG,AMSA23.JPG,AMSA22.JPG,AMNE23.JPG,0,1,1,1,,,,,,,,,,,,,,,,,,,,,,,AFNE09.jpg,AFNE16.jpg,AFSA03.jpg,AFSA19.jpg,AFNE16.jpg,FN,3,num_6,32,num_4,0.88351169636,,,2018_Mar_29_1748,60.0132815643,FEMA4ImagesEEG,001,203271,
AFSA21.JPG,AFNE23.JPG,AFNE21.JPG,AFSA25.JPG,AFNE25.JPG,AFSA23.JPG,0,2,2,4,,,,,,,,,,,,,,,,,,,,,,,AFSA13.jpg,AFSA04.jpg,AFNE13.jpg,AFNE09.jpg,AFSA04.jpg,FS,4,num_6,32,num_2,1.65007514914,,,2018_Mar_29_1748,60.0132815643,FEMA4ImagesEEG,001,203271,
AMSA25.JPG,AMNE24.JPG,AMSA24.JPG,AMNE26.JPG,AMSA21.JPG,AMNE25.JPG,0,3,3,3,,,,,,,,,,,,,,,,,,,,,,,AFNE02.jpg,AFSA08.jpg,AFSA04.jpg,AFNE13.jpg,AFSA04.jpg,FS,4,num_2,16,num_2,1.38337794819,,,2018_Mar_29_1748,60.0132815643,FEMA4ImagesEEG,001,203271,
AMNE23.JPG,AMNE24.JPG,AMNE22.JPG,AMSA24.JPG,AMSA22.JPG,AMSA23.JPG,0,4,4,9,,,,,,,,,,,,,,,,,,,,,,,AFSA20.jpg,AFNE05.jpg,AFSA16.jpg,AFNE04.jpg,AFNE04.jpg,FN,3,num_4,16,num_4,0.899948296836,,,2018_Mar_29_1748,60.0132815643,FEMA4ImagesEEG,001,203271,
AMSA21.JPG,AMNE23.JPG,AMNE21.JPG,AMSA25.JPG,AMNE25.JPG,AMSA23.JPG,0,5,5,5,,,,,,,,,,,,,,,,,,,,,,,AFSA18.jpg,AFNE16.jpg,AFNE04.jpg,AFSA19.jpg,AFNE16.jpg,FN,3,num_6,32,num_8,1.00012027717,,,2018_Mar_29_1748,60.0132815643,FEMA4ImagesEEG,001,203271,
AFSA21.JPG,AFNE22.JPG,AFNE21.JPG,AFSA23.JPG,AFSA22.JPG,AFNE23.JPG,0,6,6,0,,,,,,,,,,,,,,,,,,,,,,,AFSA12.jpg,AFSA15.jpg,AFNE07.jpg,AFNE03.jpg,AFNE03.jpg,FN,3,num_4,16,num_4,0.850118256523,,,2018_Mar_29_1748,60.0132815643,FEMA4ImagesEEG,001,203271,
AFSA25.JPG,AFNE24.JPG,AFSA24.JPG,AFNE21.JPG,AFSA21.JPG,AFNE25.JPG,0,7,7,2,,,,,,,,,,,,,,,,,,,,,,,AFNE19.jpg,AFSA12.jpg,AFNE20.jpg,AFSA15.jpg,AFNE20.jpg,FN,3,num_2,16,num_2,1.15024546173,,,2018_Mar_29_1748,60.0132815643,FEMA4ImagesEEG,001,203271,
AFNE22.JPG,AFSA24.JPG,AFSA22.JPG,AFNE25.JPG,AFNE24.JPG,AFSA25.JPG,0,8,8,6,,,,,,,,,,,,,,,,,,,,,,,AFNE01.jpg,AFSA19.jpg,AFNE14.jpg,AFSA10.jpg,AFNE14.jpg,FN,3,num_2,32,num_4,0.916819819598,,,2018_Mar_29_1748,60.0132815643,FEMA4ImagesEEG,001,203271,
AMNE22.JPG,AMSA24.JPG,AMSA22.JPG,AMNE25.JPG,AMNE24.JPG,AMSA25.JPG,0,9,9,7,,,,,,,,,,,,,,,,,,,,,,,AFSA16.jpg,AFSA02.jpg,AFNE08.jpg,AFNE12.jpg,AFSA02.jpg,FS,4,num_6,16,num_6,1.06674614584,,,2018_Mar_29_1748,60.0132815643,FEMA4ImagesEEG,001,203271,
AFNE23.JPG,AFNE24.JPG,AFNE22.JPG,AFSA24.JPG,AFSA22.JPG,AFSA23.JPG,,,,,0,0,0,8,,,,,,,,,,,,,,,,,,,AMSA06.jpg,AMNE07.jpg,AMNE04.jpg,AMSA10.jpg,AMNE07.jpg,MN,1,num_6,32,num_4,1.13339991879,,,2018_Mar_29_1748,60.0132815643,FEMA4ImagesEEG,001,203271,
AMSA21.JPG,AMNE23.JPG,AMNE21.JPG,AMSA25.JPG,AMNE25.JPG,AMSA23.JPG,,,,,0,1,1,5,,,,,,,,,,,,,,,,,,,AMNE02.jpg,AMNE20.jpg,AMSA10.jpg,AMSA09.jpg,AMNE20.jpg,MN,1,num_6,32,num_2,0.983412652044,,,2018_Mar_29_1748,60.0132815643,FEMA4ImagesEEG,001,203271,
AMSA21.JPG,AMNE22.JPG,AMNE21.JPG,AMSA23.JPG,AMSA22.JPG,AMNE23.JPG,,,,,0,2,2,1,,,,,,,,,,,,,,,,,,,AMSA03.jpg,AMSA06.jpg,AMNE04.jpg,AMNE12.jpg,AMSA03.jpg,MS,2,num_8,32,num_6,0.966766608995,,,2018_Mar_29_1748,60.0132815643,FEMA4ImagesEEG,001,203271,
AMNE23.JPG,AMNE24.JPG,AMNE22.JPG,AMSA24.JPG,AMSA22.JPG,AMSA23.JPG,,,,,0,3,3,9,,,,,,,,,,,,,,,,,,,AMSA02.jpg,AMSA17.jpg,AMNE03.jpg,AMNE04.jpg,AMSA02.jpg,MS,2,num_8,32,num_4,0.883437284851,,,2018_Mar_29_1748,60.0132815643,FEMA4ImagesEEG,001,203271,
AFSA21.JPG,AFNE23.JPG,AFNE21.JPG,AFSA25.JPG,AFNE25.JPG,AFSA23.JPG,,,,,0,4,4,4,,,,,,,,,,,,,,,,,,,AMNE07.jpg,AMSA20.jpg,AMSA02.jpg,AMNE04.jpg,AMSA02.jpg,MS,2,num_2,16,num_2,0.783499764977,,,2018_Mar_29_1748,60.0132815643,FEMA4ImagesEEG,001,203271,
AMSA25.JPG,AMNE24.JPG,AMSA24.JPG,AMNE26.JPG,AMSA21.JPG,AMNE25.JPG,,,,,0,5,5,3,,,,,,,,,,,,,,,,,,,AMSA19.jpg,AMSA08.jpg,AMNE20.jpg,AMNE07.jpg,AMNE07.jpg,MN,1,num_4,16,num_4,1.5500272949,,,2018_Mar_29_1748,60.0132815643,FEMA4ImagesEEG,001,203271,
AMNE22.JPG,AMSA24.JPG,AMSA22.JPG,AMNE25.JPG,AMNE24.JPG,AMSA25.JPG,,,,,0,6,6,7,,,,,,,,,,,,,,,,,,,AMSA17.jpg,AMNE20.jpg,AMNE18.jpg,AMSA10.jpg,AMNE20.jpg,MN,1,num_6,16,num_6,1.35009259731,,,2018_Mar_29_1748,60.0132815643,FEMA4ImagesEEG,001,203271,
AFSA21.JPG,AFNE22.JPG,AFNE21.JPG,AFSA23.JPG,AFSA22.JPG,AFNE23.JPG,,,,,0,7,7,0,,,,,,,,,,,,,,,,,,,AMNE09.jpg,AMSA11.jpg,AMNE13.jpg,AMSA13.jpg,AMSA11.jpg,MS,2,num_6,32,num_4,1.18343587371,,,2018_Mar_29_1748,60.0132815643,FEMA4ImagesEEG,001,203271,
AFSA25.JPG,AFNE24.JPG,AFSA24.JPG,AFNE21.JPG,AFSA21.JPG,AFNE25.JPG,,,,,0,8,8,2,,,,,,,,,,,,,,,,,,,AMNE13.jpg,AMNE17.jpg,AMSA15.jpg,AMSA10.jpg,AMSA10.jpg,MS,2,num_4,32,num_8,1.01685067476,,,2018_Mar_29_1748,60.0132815643,FEMA4ImagesEEG,001,203271,
AFNE22.JPG,AFSA24.JPG,AFSA22.JPG,AFNE25.JPG,AFNE24.JPG,AFSA25.JPG,,,,,0,9,9,6,,,,,,,,,,,,,,,,,,,AMSA16.jpg,AMSA20.jpg,AMNE05.jpg,AMNE20.jpg,AMNE05.jpg,MN,1,num_2,16,num_2,0.816757852794,,,2018_Mar_29_1748,60.0132815643,FEMA4ImagesEEG,001,203271,
AMNE22.JPG,AMSA24.JPG,AMSA22.JPG,AMNE25.JPG,AMNE24.JPG,AMSA25.JPG,,,,,,,,,0,0,0,7,,,,,,,,,,,,,,,AFNE07.jpg,AFSA16.jpg,AFNE20.jpg,AFSA09.jpg,AFNE20.jpg,FN,3,num_2,32,num_4,1.25010279682,,,2018_Mar_29_1748,60.0132815643,FEMA4ImagesEEG,001,203271,
AFSA25.JPG,AFNE24.JPG,AFSA24.JPG,AFNE21.JPG,AFSA21.JPG,AFNE25.JPG,,,,,,,,,0,1,1,2,,,,,,,,,,,,,,,AFNE13.jpg,AFSA09.jpg,AFSA10.jpg,AFNE17.jpg,AFSA09.jpg,FS,4,num_6,32,num_4,1.19995811151,,,2018_Mar_29_1748,60.0132815643,FEMA4ImagesEEG,001,203271,
AMSA25.JPG,AMNE24.JPG,AMSA24.JPG,AMNE26.JPG,AMSA21.JPG,AMNE25.JPG,,,,,,,,,0,2,2,3,,,,,,,,,,,,,,,AFNE09.jpg,AFSA02.jpg,AFSA15.jpg,AFNE12.jpg,AFSA15.jpg,FS,4,num_2,16,num_2,0.95029344433,,,2018_Mar_29_1748,60.0132815643,FEMA4ImagesEEG,001,203271,
AFNE23.JPG,AFNE24.JPG,AFNE22.JPG,AFSA24.JPG,AFSA22.JPG,AFSA23.JPG,,,,,,,,,0,3,3,8,,,,,,,,,,,,,,,AFNE06.jpg,AFSA01.jpg,AFSA09.jpg,AFNE17.jpg,AFSA09.jpg,FS,4,num_2,32,num_8,0.866839994094,,,2018_Mar_29_1748,60.0132815643,FEMA4ImagesEEG,001,203271,
AMSA21.JPG,AMNE23.JPG,AMNE21.JPG,AMSA25.JPG,AMNE25.JPG,AMSA23.JPG,,,,,,,,,0,4,4,5,,,,,,,,,,,,,,,AFNE01.jpg,AFNE11.jpg,AFSA18.jpg,AFSA01.jpg,AFSA18.jpg,FS,4,num_2,16,num_2,1.86671779247,,,2018_Mar_29_1748,60.0132815643,FEMA4ImagesEEG,001,203271,
AFNE22.JPG,AFSA24.JPG,AFSA22.JPG,AFNE25.JPG,AFNE24.JPG,AFSA25.JPG,,,,,,,,,0,5,5,6,,,,,,,,,,,,,,,AFSA04.jpg,AFSA10.jpg,AFNE11.jpg,AFNE02.jpg,AFSA04.jpg,FS,4,num_8,32,num_6,1.0167477174,,,2018_Mar_29_1748,60.0132815643,FEMA4ImagesEEG,001,203271,
AMSA21.JPG,AMNE22.JPG,AMNE21.JPG,AMSA23.JPG,AMSA22.JPG,AMNE23.JPG,,,,,,,,,0,6,6,1,,,,,,,,,,,,,,,AFSA20.jpg,AFNE20.jpg,AFNE02.jpg,AFSA08.jpg,AFNE20.jpg,FN,3,num_6,32,num_4,1.08342394221,,,2018_Mar_29_1748,60.0132815643,FEMA4ImagesEEG,001,203271,
AMNE23.JPG,AMNE24.JPG,AMNE22.JPG,AMSA24.JPG,AMSA22.JPG,AMSA23.JPG,,,,,,,,,0,7,7,9,,,,,,,,,,,,,,,AFNE19.jpg,AFSA09.jpg,AFSA17.jpg,AFNE08.jpg,AFNE08.jpg,FN,3,num_4,16,num_4,1.00014240819,,,2018_Mar_29_1748,60.0132815643,FEMA4ImagesEEG,001,203271,
AFSA21.JPG,AFNE22.JPG,AFNE21.JPG,AFSA23.JPG,AFSA22.JPG,AFNE23.JPG,,,,,,,,,0,8,8,0,,,,,,,,,,,,,,,AFSA10.jpg,AFNE03.jpg,AFSA11.jpg,AFNE05.jpg,AFNE03.jpg,FN,3,num_6,32,num_4,1.00007376994,,,2018_Mar_29_1748,60.0132815643,FEMA4ImagesEEG,001,203271,
AFSA21.JPG,AFNE23.JPG,AFNE21.JPG,AFSA25.JPG,AFNE25.JPG,AFSA23.JPG,,,,,,,,,0,9,9,4,,,,,,,,,,,,,,,AFSA08.jpg,AFSA09.jpg,AFNE03.jpg,AFNE14.jpg,AFNE14.jpg,FN,3,num_4,16,num_4,1.21662692702,,,2018_Mar_29_1748,60.0132815643,FEMA4ImagesEEG,001,203271,
AMNE23.JPG,AMNE24.JPG,AMNE22.JPG,AMSA24.JPG,AMSA22.JPG,AMSA23.JPG,,,,,,,,,,,,,0,0,0,9,,,,,,,,,,,AMSA14.jpg,AMNE19.jpg,AMSA05.jpg,AMNE15.jpg,AMNE19.jpg,MN,1,num_6,32,num_4,1.00016101112,,,2018_Mar_29_1748,60.0132815643,FEMA4ImagesEEG,001,203271,
AFSA21.JPG,AFNE22.JPG,AFNE21.JPG,AFSA23.JPG,AFSA22.JPG,AFNE23.JPG,,,,,,,,,,,,,0,1,1,0,,,,,,,,,,,AMNE05.jpg,AMNE18.jpg,AMSA08.jpg,AMSA03.jpg,AMNE18.jpg,MN,1,num_6,16,num_6,0.966747685452,,,2018_Mar_29_1748,60.0132815643,FEMA4ImagesEEG,001,203271,
AMNE22.JPG,AMSA24.JPG,AMSA22.JPG,AMNE25.JPG,AMNE24.JPG,AMSA25.JPG,,,,,,,,,,,,,0,2,2,7,,,,,,,,,,,AMSA03.jpg,AMSA12.jpg,AMNE18.jpg,AMNE02.jpg,AMSA12.jpg,MS,2,num_6,32,num_2,1.10010270076,,,2018_Mar_29_1748,60.0132815643,FEMA4ImagesEEG,001,203271,
AFSA25.JPG,AFNE24.JPG,AFSA24.JPG,AFNE21.JPG,AFSA21.JPG,AFNE25.JPG,,,,,,,,,,,,,0,3,3,2,,,,,,,,,,,AMNE10.jpg,AMSA13.jpg,AMSA19.jpg,AMNE01.jpg,AMSA13.jpg,MS,2,num_6,32,num_4,1.55021556886,,,2018_Mar_29_1748,60.0132815643,FEMA4ImagesEEG,001,203271,
AMSA21.JPG,AMNE22.JPG,AMNE21.JPG,AMSA23.JPG,AMSA22.JPG,AMNE23.JPG,,,,,,,,,,,,,0,4,4,1,,,,,,,,,,,AMNE20.jpg,AMNE13.jpg,AMSA06.jpg,AMSA09.jpg,AMNE13.jpg,MN,1,num_6,32,num_8,0.88358610787,,,2018_Mar_29_1748,60.0132815643,FEMA4ImagesEEG,001,203271,
AFNE23.JPG,AFNE24.JPG,AFNE22.JPG,AFSA24.JPG,AFSA22.JPG,AFSA23.JPG,,,,,,,,,,,,,0,5,5,8,,,,,,,,,,,AMNE09.jpg,AMNE01.jpg,AMSA02.jpg,AMSA11.jpg,AMSA02.jpg,MS,2,num_2,16,num_2,0.933473560493,,,2018_Mar_29_1748,60.0132815643,FEMA4ImagesEEG,001,203271,
AFNE22.JPG,AFSA24.JPG,AFSA22.JPG,AFNE25.JPG,AFNE24.JPG,AFSA25.JPG,,,,,,,,,,,,,0,6,6,6,,,,,,,,,,,AMNE18.jpg,AMNE10.jpg,AMSA15.jpg,AMSA05.jpg,AMSA05.jpg,MS,2,num_4,32,num_6,0.933462976129,,,2018_Mar_29_1748,60.0132815643,FEMA4ImagesEEG,001,203271,
AFSA21.JPG,AFNE23.JPG,AFNE21.JPG,AFSA25.JPG,AFNE25.JPG,AFSA23.JPG,,,,,,,,,,,,,0,7,7,4,,,,,,,,,,,AMSA02.jpg,AMNE10.jpg,AMSA09.jpg,AMNE11.jpg,AMNE11.jpg,MN,1,num_4,16,num_4,0.900114119053,,,2018_Mar_29_1748,60.0132815643,FEMA4ImagesEEG,001,203271,
AMSA21.JPG,AMNE23.JPG,AMNE21.JPG,AMSA25.JPG,AMNE25.JPG,AMSA23.JPG,,,,,,,,,,,,,0,8,8,5,,,,,,,,,,,AMSA19.jpg,AMNE18.jpg,AMNE13.jpg,AMSA06.jpg,AMNE13.jpg,MN,1,num_2,16,num_2,1.00013855938,,,2018_Mar_29_1748,60.0132815643,FEMA4ImagesEEG,001,203271,
AMSA25.JPG,AMNE24.JPG,AMSA24.JPG,AMNE26.JPG,AMSA21.JPG,AMNE25.JPG,,,,,,,,,,,,,0,9,9,3,,,,,,,,,,,AMNE12.jpg,AMSA01.jpg,AMSA16.jpg,AMNE08.jpg,AMSA01.jpg,MS,2,num_6,32,num_4,2.56638018251,,,2018_Mar_29_1748,60.0132815643,FEMA4ImagesEEG,001,203271,
AMSA25.JPG,AMNE24.JPG,AMSA24.JPG,AMNE26.JPG,AMSA21.JPG,AMNE25.JPG,,,,,,,,,,,,,,,,,0,0,0,3,,,,,,,AFNE06.jpg,AFSA08.jpg,AFSA15.jpg,AFNE15.jpg,AFNE15.jpg,FN,3,num_4,32,num_8,1.58338769863,,,2018_Mar_29_1748,60.0132815643,FEMA4ImagesEEG,001,203271,
AMNE23.JPG,AMNE24.JPG,AMNE22.JPG,AMSA24.JPG,AMSA22.JPG,AMSA23.JPG,,,,,,,,,,,,,,,,,0,1,1,9,,,,,,,AFNE12.jpg,AFSA09.jpg,AFSA19.jpg,AFNE19.jpg,AFNE19.jpg,FN,3,num_4,32,num_2,0.916909626569,,,2018_Mar_29_1748,60.0132815643,FEMA4ImagesEEG,001,203271,
AFSA25.JPG,AFNE24.JPG,AFSA24.JPG,AFNE21.JPG,AFSA21.JPG,AFNE25.JPG,,,,,,,,,,,,,,,,,0,2,2,2,,,,,,,AFSA20.jpg,AFNE20.jpg,AFNE19.jpg,AFSA13.jpg,AFSA20.jpg,FS,4,num_8,16,num_8,0.966864755144,,,2018_Mar_29_1748,60.0132815643,FEMA4ImagesEEG,001,203271,
AMNE22.JPG,AMSA24.JPG,AMSA22.JPG,AMNE25.JPG,AMNE24.JPG,AMSA25.JPG,,,,,,,,,,,,,,,,,0,3,3,7,,,,,,,AFSA06.jpg,AFNE10.jpg,AFSA15.jpg,AFNE20.jpg,AFNE20.jpg,FN,3,num_4,32,num_6,0.800138431019,,,2018_Mar_29_1748,60.0132815643,FEMA4ImagesEEG,001,203271,
AFNE22.JPG,AFSA24.JPG,AFSA22.JPG,AFNE25.JPG,AFNE24.JPG,AFSA25.JPG,,,,,,,,,,,,,,,,,0,4,4,6,,,,,,,AFSA15.jpg,AFSA05.jpg,AFNE14.jpg,AFNE10.jpg,AFSA15.jpg,FS,4,num_8,16,num_8,2.08336396399,,,2018_Mar_29_1748,60.0132815643,FEMA4ImagesEEG,001,203271,
AMSA21.JPG,AMNE23.JPG,AMNE21.JPG,AMSA25.JPG,AMNE25.JPG,AMSA23.JPG,,,,,,,,,,,,,,,,,0,5,5,5,,,,,,,AFNE12.jpg,AFSA16.jpg,AFSA02.jpg,AFNE03.jpg,AFNE03.jpg,FN,3,num_4,16,num_4,0.816784794908,,,2018_Mar_29_1748,60.0132815643,FEMA4ImagesEEG,001,203271,
AMSA21.JPG,AMNE22.JPG,AMNE21.JPG,AMSA23.JPG,AMSA22.JPG,AMNE23.JPG,,,,,,,,,,,,,,,,,0,6,6,1,,,,,,,AFNE13.jpg,AFSA01.jpg,AFNE14.jpg,AFSA11.jpg,AFNE13.jpg,FN,3,num_8,32,num_6,1.31677517272,,,2018_Mar_29_1748,60.0132815643,FEMA4ImagesEEG,001,203271,
AFSA21.JPG,AFNE23.JPG,AFNE21.JPG,AFSA25.JPG,AFNE25.JPG,AFSA23.JPG,,,,,,,,,,,,,,,,,0,7,7,4,,,,,,,AFNE15.jpg,AFSA10.jpg,AFNE07.jpg,AFSA12.jpg,AFSA10.jpg,FS,4,num_6,32,num_8,0.86681305198,,,2018_Mar_29_1748,60.0132815643,FEMA4ImagesEEG,001,203271,
AFSA21.JPG,AFNE22.JPG,AFNE21.JPG,AFSA23.JPG,AFSA22.JPG,AFNE23.JPG,,,,,,,,,,,,,,,,,0,8,8,0,,,,,,,AFSA03.jpg,AFSA15.jpg,AFNE02.jpg,AFNE05.jpg,AFSA03.jpg,FS,4,num_8,16,num_8,1.40007691318,,,2018_Mar_29_1748,60.0132815643,FEMA4ImagesEEG,001,203271,
AFNE23.JPG,AFNE24.JPG,AFNE22.JPG,AFSA24.JPG,AFSA22.JPG,AFSA23.JPG,,,,,,,,,,,,,,,,,0,9,9,8,,,,,,,AFSA13.jpg,AFNE04.jpg,AFSA18.jpg,AFNE01.jpg,AFSA18.jpg,FS,4,num_2,32,num_8,0.733514486812,,,2018_Mar_29_1748,60.0132815643,FEMA4ImagesEEG,001,203271,
AFNE22.JPG,AFSA24.JPG,AFSA22.JPG,AFNE25.JPG,AFNE24.JPG,AFSA25.JPG,,,,,,,,,,,,,,,,,,,,,0,0,0,6,,,AMNE11.jpg,AMSA16.jpg,AMSA06.jpg,AMNE16.jpg,AMNE11.jpg,MN,1,num_8,32,num_4,1.18358597963,,,2018_Mar_29_1748,60.0132815643,FEMA4ImagesEEG,001,203271,
AMSA21.JPG,AMNE22.JPG,AMNE21.JPG,AMSA23.JPG,AMSA22.JPG,AMNE23.JPG,,,,,,,,,,,,,,,,,,,,,0,1,1,1,,,AMSA13.jpg,AMNE11.jpg,AMSA05.jpg,AMNE15.jpg,AMNE11.jpg,MN,1,num_6,32,num_2,1.36676013016,,,2018_Mar_29_1748,60.0132815643,FEMA4ImagesEEG,001,203271,
AFSA21.JPG,AFNE22.JPG,AFNE21.JPG,AFSA23.JPG,AFSA22.JPG,AFNE23.JPG,,,,,,,,,,,,,,,,,,,,,0,2,2,0,,,AMNE19.jpg,AMNE01.jpg,AMSA08.jpg,AMSA09.jpg,AMSA08.jpg,MS,2,num_2,32,num_8,1.01701842144,,,2018_Mar_29_1748,60.0132815643,FEMA4ImagesEEG,001,203271,
AMNE22.JPG,AMSA24.JPG,AMSA22.JPG,AMNE25.JPG,AMNE24.JPG,AMSA25.JPG,,,,,,,,,,,,,,,,,,,,,0,3,3,7,,,AMSA07.jpg,AMSA02.jpg,AMNE01.jpg,AMNE02.jpg,AMNE01.jpg,MN,1,num_2,16,num_2,0.983396935859,,,2018_Mar_29_1748,60.0132815643,FEMA4ImagesEEG,001,203271,
AMNE23.JPG,AMNE24.JPG,AMNE22.JPG,AMSA24.JPG,AMSA22.JPG,AMSA23.JPG,,,,,,,,,,,,,,,,,,,,,0,4,4,9,,,AMSA19.jpg,AMSA17.jpg,AMNE15.jpg,AMNE18.jpg,AMSA17.jpg,MS,2,num_6,32,num_2,1.03339183622,,,2018_Mar_29_1748,60.0132815643,FEMA4ImagesEEG,001,203271,
AFSA21.JPG,AFNE23.JPG,AFNE21.JPG,AFSA25.JPG,AFNE25.JPG,AFSA23.JPG,,,,,,,,,,,,,,,,,,,,,0,5,5,4,,,AMSA04.jpg,AMNE18.jpg,AMNE01.jpg,AMSA20.jpg,AMNE18.jpg,MN,1,num_6,32,num_8,0.816915977281,,,2018_Mar_29_1748,60.0132815643,FEMA4ImagesEEG,001,203271,
AMSA21.JPG,AMNE23.JPG,AMNE21.JPG,AMSA25.JPG,AMNE25.JPG,AMSA23.JPG,,,,,,,,,,,,,,,,,,,,,0,6,6,5,,,AMNE04.jpg,AMSA01.jpg,AMNE16.jpg,AMSA18.jpg,AMNE04.jpg,MN,1,num_8,32,num_4,1.03348292608,,,2018_Mar_29_1748,60.0132815643,FEMA4ImagesEEG,001,203271,
AFNE23.JPG,AFNE24.JPG,AFNE22.JPG,AFSA24.JPG,AFSA22.JPG,AFSA23.JPG,,,,,,,,,,,,,,,,,,,,,0,7,7,8,,,AMNE05.jpg,AMSA08.jpg,AMSA20.jpg,AMNE12.jpg,AMSA08.jpg,MS,2,num_6,16,num_6,0.866747942055,,,2018_Mar_29_1748,60.0132815643,FEMA4ImagesEEG,001,203271,
AFSA25.JPG,AFNE24.JPG,AFSA24.JPG,AFNE21.JPG,AFSA21.JPG,AFNE25.JPG,,,,,,,,,,,,,,,,,,,,,0,8,8,2,,,AMSA05.jpg,AMNE01.jpg,AMNE14.jpg,AMSA19.jpg,AMNE14.jpg,MN,1,num_2,32,num_8,0.95018727961,,,2018_Mar_29_1748,60.0132815643,FEMA4ImagesEEG,001,203271,
AMSA25.JPG,AMNE24.JPG,AMSA24.JPG,AMNE26.JPG,AMSA21.JPG,AMNE25.JPG,,,,,,,,,,,,,,,,,,,,,0,9,9,3,,,AMNE05.jpg,AMSA04.jpg,AMSA11.jpg,AMNE01.jpg,AMSA04.jpg,MS,2,num_6,32,num_2,0.666770265438,,,2018_Mar_29_1748,60.0132815643,FEMA4ImagesEEG,001,203271,
,,,,,,,,,,,,,,,,,,,,,,,,,,,,,,,,,,,,,,,,,,,space,19.5483661867,2018_Mar_29_1748,60.0132815643,FEMA4ImagesEEG,001,203271,
AFNE01.JPG,AFNE01.JPG,AFNE01.JPG,AFNE01.JPG,AFNE01.JPG,AFNE01.JPG,0,0,0,7,,,,,,,,,,,,,,,,,,,,,,,AFNE11.jpg,AFSA05.jpg,AFNE04.jpg,AFSA10.jpg,AFSA10.jpg,FS,4,num_4,16,num_4,0.916772029479,,,2018_Mar_29_1748,60.0132815643,FEMA4ImagesEEG,001,203271,
AFNE01.JPG,AFNE01.JPG,AFNE01.JPG,AFNE01.JPG,AFNE01.JPG,AFNE01.JPG,0,1,1,1,,,,,,,,,,,,,,,,,,,,,,,AFSA16.jpg,AFNE09.jpg,AFSA03.jpg,AFNE13.jpg,AFSA16.jpg,FS,4,num_8,32,num_6,0.966697650147,,,2018_Mar_29_1748,60.0132815643,FEMA4ImagesEEG,001,203271,
AFNE01.JPG,AFNE01.JPG,AFNE01.JPG,AFNE01.JPG,AFNE01.JPG,AFNE01.JPG,0,2,2,6,,,,,,,,,,,,,,,,,,,,,,,AFSA01.jpg,AFNE04.jpg,AFNE12.jpg,AFSA18.jpg,AFNE12.jpg,FN,3,num_2,16,num_2,1.11678755318,,,2018_Mar_29_1748,60.0132815643,FEMA4ImagesEEG,001,203271,
AFNE01.JPG,AFNE01.JPG,AFNE01.JPG,AFNE01.JPG,AFNE01.JPG,AFNE01.JPG,0,3,3,9,,,,,,,,,,,,,,,,,,,,,,,AFNE14.jpg,AFSA14.jpg,AFNE19.jpg,AFSA04.jpg,AFNE14.jpg,FN,3,num_8,16,num_8,2.79994598753,,,2018_Mar_29_1748,60.0132815643,FEMA4ImagesEEG,001,203271,
AFNE01.JPG,AFNE01.JPG,AFNE01.JPG,AFNE01.JPG,AFNE01.JPG,AFNE01.JPG,0,4,4,4,,,,,,,,,,,,,,,,,,,,,,,AFSA13.jpg,AFSA12.jpg,AFNE10.jpg,AFNE01.jpg,AFNE01.jpg,FN,3,num_4,32,num_8,1.15009118617,,,2018_Mar_29_1748,60.0132815643,FEMA4ImagesEEG,001,203271,
AFNE01.JPG,AFNE01.JPG,AFNE01.JPG,AFNE01.JPG,AFNE01.JPG,AFNE01.JPG,0,5,5,5,,,,,,,,,,,,,,,,,,,,,,,AFNE08.jpg,AFSA17.jpg,AFSA01.jpg,AFNE19.jpg,AFSA17.jpg,FS,4,num_6,32,num_8,1.33340742416,,,2018_Mar_29_1748,60.0132815643,FEMA4ImagesEEG,001,203271,
AFNE01.JPG,AFNE01.JPG,AFNE01.JPG,AFNE01.JPG,AFNE01.JPG,AFNE01.JPG,0,6,6,8,,,,,,,,,,,,,,,,,,,,,,,AFNE19.jpg,AFNE03.jpg,AFSA08.jpg,AFSA02.jpg,AFNE19.jpg,FN,3,num_8,32,num_4,1.1334342378,,,2018_Mar_29_1748,60.0132815643,FEMA4ImagesEEG,001,203271,
AFNE01.JPG,AFNE01.JPG,AFNE01.JPG,AFNE01.JPG,AFNE01.JPG,AFNE01.JPG,0,7,7,3,,,,,,,,,,,,,,,,,,,,,,,AFSA13.jpg,AFSA03.jpg,AFNE11.jpg,AFNE17.jpg,AFSA03.jpg,FS,4,num_6,32,num_8,0.750102155376,,,2018_Mar_29_1748,60.0132815643,FEMA4ImagesEEG,001,203271,
AFNE01.JPG,AFNE01.JPG,AFNE01.JPG,AFNE01.JPG,AFNE01.JPG,AFNE01.JPG,0,8,8,2,,,,,,,,,,,,,,,,,,,,,,,AFNE02.jpg,AFSA01.jpg,AFSA02.jpg,AFNE06.jpg,AFSA02.jpg,FS,4,num_2,32,num_6,0.816744060954,,,2018_Mar_29_1748,60.0132815643,FEMA4ImagesEEG,001,203271,
AFNE01.JPG,AFNE01.JPG,AFNE01.JPG,AFNE01.JPG,AFNE01.JPG,AFNE01.JPG,0,9,9,0,,,,,,,,,,,,,,,,,,,,,,,AFNE11.jpg,AFSA16.jpg,AFSA12.jpg,AFNE19.jpg,AFNE19.jpg,FN,3,num_4,16,num_4,0.816852150136,,,2018_Mar_29_1748,60.0132815643,FEMA4ImagesEEG,001,203271,
AFNE01.JPG,AFNE01.JPG,AFNE01.JPG,AFNE01.JPG,AFNE01.JPG,AFNE01.JPG,1,0,10,3,,,,,,,,,,,,,,,,,,,,,,,AFSA15.jpg,AFNE06.jpg,AFNE11.jpg,AFSA13.jpg,AFNE06.jpg,FN,3,num_6,32,num_8,0.783517405507,,,2018_Mar_29_1748,60.0132815643,FEMA4ImagesEEG,001,203271,
AFNE01.JPG,AFNE01.JPG,AFNE01.JPG,AFNE01.JPG,AFNE01.JPG,AFNE01.JPG,1,1,11,8,,,,,,,,,,,,,,,,,,,,,,,AFSA08.jpg,AFNE08.jpg,AFSA05.jpg,AFNE07.jpg,AFNE08.jpg,FN,3,num_6,16,num_6,0.950116075459,,,2018_Mar_29_1748,60.0132815643,FEMA4ImagesEEG,001,203271,
AFNE01.JPG,AFNE01.JPG,AFNE01.JPG,AFNE01.JPG,AFNE01.JPG,AFNE01.JPG,1,2,12,1,,,,,,,,,,,,,,,,,,,,,,,AFSA12.jpg,AFSA01.jpg,AFNE17.jpg,AFNE02.jpg,AFNE17.jpg,FN,3,num_2,32,num_6,1.76671227568,,,2018_Mar_29_1748,60.0132815643,FEMA4ImagesEEG,001,203271,
AFNE01.JPG,AFNE01.JPG,AFNE01.JPG,AFNE01.JPG,AFNE01.JPG,AFNE01.JPG,1,3,13,0,,,,,,,,,,,,,,,,,,,,,,,AFNE18.jpg,AFSA16.jpg,AFNE20.jpg,AFSA08.jpg,AFSA08.jpg,FS,4,num_4,16,num_4,1.53343898477,,,2018_Mar_29_1748,60.0132815643,FEMA4ImagesEEG,001,203271,
AFNE01.JPG,AFNE01.JPG,AFNE01.JPG,AFNE01.JPG,AFNE01.JPG,AFNE01.JPG,1,4,14,6,,,,,,,,,,,,,,,,,,,,,,,AFSA03.jpg,AFNE20.jpg,AFSA08.jpg,AFNE18.jpg,AFNE18.jpg,FN,3,num_4,32,num_8,0.716785693076,,,2018_Mar_29_1748,60.0132815643,FEMA4ImagesEEG,001,203271,
AFNE01.JPG,AFNE01.JPG,AFNE01.JPG,AFNE01.JPG,AFNE01.JPG,AFNE01.JPG,1,5,15,4,,,,,,,,,,,,,,,,,,,,,,,AFSA12.jpg,AFSA09.jpg,AFNE11.jpg,AFNE10.jpg,AFNE10.jpg,FN,3,num_4,32,num_6,1.08344062057,,,2018_Mar_29_1748,60.0132815643,FEMA4ImagesEEG,001,203271,
AFNE01.JPG,AFNE01.JPG,AFNE01.JPG,AFNE01.JPG,AFNE01.JPG,AFNE01.JPG,1,6,16,9,,,,,,,,,,,,,,,,,,,,,,,AFSA17.jpg,AFSA04.jpg,AFNE19.jpg,AFNE18.jpg,AFSA04.jpg,FS,4,num_6,16,num_6,1.00011482462,,,2018_Mar_29_1748,60.0132815643,FEMA4ImagesEEG,001,203271,
AFNE01.JPG,AFNE01.JPG,AFNE01.JPG,AFNE01.JPG,AFNE01.JPG,AFNE01.JPG,1,7,17,7,,,,,,,,,,,,,,,,,,,,,,,AFNE06.jpg,AFSA01.jpg,AFNE17.jpg,AFSA08.jpg,AFSA08.jpg,FS,4,num_4,16,num_4,1.05016585416,,,2018_Mar_29_1748,60.0132815643,FEMA4ImagesEEG,001,203271,
AFNE01.JPG,AFNE01.JPG,AFNE01.JPG,AFNE01.JPG,AFNE01.JPG,AFNE01.JPG,1,8,18,2,,,,,,,,,,,,,,,,,,,,,,,AFSA03.jpg,AFNE04.jpg,AFNE10.jpg,AFSA13.jpg,AFSA03.jpg,FS,4,num_8,16,num_8,0.76680208277,,,2018_Mar_29_1748,60.0132815643,FEMA4ImagesEEG,001,203271,
AFNE01.JPG,AFNE01.JPG,AFNE01.JPG,AFNE01.JPG,AFNE01.JPG,AFNE01.JPG,1,9,19,5,,,,,,,,,,,,,,,,,,,,,,,AFSA03.jpg,AFNE01.jpg,AFSA12.jpg,AFNE02.jpg,AFSA03.jpg,FS,4,num_8,16,num_8,0.950247257832,,,2018_Mar_29_1748,60.0132815643,FEMA4ImagesEEG,001,203271,
AFNE01.JPG,AFNE01.JPG,AFNE01.JPG,AFNE01.JPG,AFNE01.JPG,AFNE01.JPG,2,0,20,3,,,,,,,,,,,,,,,,,,,,,,,AFNE02.jpg,AFNE08.jpg,AFSA03.jpg,AFSA20.jpg,AFNE08.jpg,FN,3,num_6,16,num_6,1.05011004559,,,2018_Mar_29_1748,60.0132815643,FEMA4ImagesEEG,001,203271,
AFNE01.JPG,AFNE01.JPG,AFNE01.JPG,AFNE01.JPG,AFNE01.JPG,AFNE01.JPG,2,1,21,9,,,,,,,,,,,,,,,,,,,,,,,AFNE08.jpg,AFSA06.jpg,AFNE04.jpg,AFSA16.jpg,AFNE04.jpg,FN,3,num_2,32,num_8,0.850372923422,,,2018_Mar_29_1748,60.0132815643,FEMA4ImagesEEG,001,203271,
AFNE01.JPG,AFNE01.JPG,AFNE01.JPG,AFNE01.JPG,AFNE01.JPG,AFNE01.JPG,2,2,22,6,,,,,,,,,,,,,,,,,,,,,,,AFSA18.jpg,AFNE05.jpg,AFSA17.jpg,AFNE14.jpg,AFNE05.jpg,FN,3,num_6,16,num_6,0.966759873438,,,2018_Mar_29_1748,60.0132815643,FEMA4ImagesEEG,001,203271,
AFNE01.JPG,AFNE01.JPG,AFNE01.JPG,AFNE01.JPG,AFNE01.JPG,AFNE01.JPG,2,3,23,5,,,,,,,,,,,,,,,,,,,,,,,AFSA19.jpg,AFNE02.jpg,AFSA07.jpg,AFNE08.jpg,AFNE02.jpg,FN,3,num_6,32,num_8,1.86668732227,,,2018_Mar_29_1748,60.0132815643,FEMA4ImagesEEG,001,203271,
AFNE01.JPG,AFNE01.JPG,AFNE01.JPG,AFNE01.JPG,AFNE01.JPG,AFNE01.JPG,2,4,24,2,,,,,,,,,,,,,,,,,,,,,,,AFNE06.jpg,AFSA20.jpg,AFSA15.jpg,AFNE02.jpg,AFNE02.jpg,FN,3,num_4,32,num_2,1.38353960065,,,2018_Mar_29_1748,60.0132815643,FEMA4ImagesEEG,001,203271,
AFNE01.JPG,AFNE01.JPG,AFNE01.JPG,AFNE01.JPG,AFNE01.JPG,AFNE01.JPG,2,5,25,8,,,,,,,,,,,,,,,,,,,,,,,AFNE17.jpg,AFSA11.jpg,AFSA07.jpg,AFNE11.jpg,AFSA11.jpg,FS,4,num_6,16,num_6,0.766798233846,,,2018_Mar_29_1748,60.0132815643,FEMA4ImagesEEG,001,203271,
AFNE01.JPG,AFNE01.JPG,AFNE01.JPG,AFNE01.JPG,AFNE01.JPG,AFNE01.JPG,2,6,26,4,,,,,,,,,,,,,,,,,,,,,,,AFNE04.jpg,AFNE07.jpg,AFSA09.jpg,AFSA10.jpg,AFSA10.jpg,FS,4,num_4,16,num_4,0.93345688202,,,2018_Mar_29_1748,60.0132815643,FEMA4ImagesEEG,001,203271,
AFNE01.JPG,AFNE01.JPG,AFNE01.JPG,AFNE01.JPG,AFNE01.JPG,AFNE01.JPG,2,7,27,7,,,,,,,,,,,,,,,,,,,,,,,AFNE04.jpg,AFNE11.jpg,AFSA18.jpg,AFSA01.jpg,AFSA01.jpg,FS,4,num_4,32,num_8,1.66661983868,,,2018_Mar_29_1748,60.0132815643,FEMA4ImagesEEG,001,203271,
AFNE01.JPG,AFNE01.JPG,AFNE01.JPG,AFNE01.JPG,AFNE01.JPG,AFNE01.JPG,2,8,28,0,,,,,,,,,,,,,,,,,,,,,,,AFSA04.jpg,AFSA14.jpg,AFNE03.jpg,AFNE19.jpg,AFSA14.jpg,FS,4,num_6,16,num_6,0.850184328854,,,2018_Mar_29_1748,60.0132815643,FEMA4ImagesEEG,001,203271,
AFNE01.JPG,AFNE01.JPG,AFNE01.JPG,AFNE01.JPG,AFNE01.JPG,AFNE01.JPG,2,9,29,1,,,,,,,,,,,,,,,,,,,,,,,AFNE09.jpg,AFSA08.jpg,AFNE18.jpg,AFSA19.jpg,AFNE18.jpg,FN,3,num_2,32,num_8,0.866838390357,,,2018_Mar_29_1748,60.0132815643,FEMA4ImagesEEG,001,203271,
AFNE01.JPG,AFNE01.JPG,AFNE01.JPG,AFNE01.JPG,AFNE01.JPG,AFNE01.JPG,3,0,30,8,,,,,,,,,,,,,,,,,,,,,,,AFNE10.jpg,AFSA19.jpg,AFNE12.jpg,AFSA18.jpg,AFNE12.jpg,FN,3,num_2,32,num_8,0.98342387809,,,2018_Mar_29_1748,60.0132815643,FEMA4ImagesEEG,001,203271,
AFNE01.JPG,AFNE01.JPG,AFNE01.JPG,AFNE01.JPG,AFNE01.JPG,AFNE01.JPG,3,1,31,0,,,,,,,,,,,,,,,,,,,,,,,AFSA14.jpg,AFNE16.jpg,AFSA18.jpg,AFNE06.jpg,AFNE16.jpg,FN,3,num_6,16,num_6,0.883447548491,,,2018_Mar_29_1748,60.0132815643,FEMA4ImagesEEG,001,203271,
AFNE01.JPG,AFNE01.JPG,AFNE01.JPG,AFNE01.JPG,AFNE01.JPG,AFNE01.JPG,3,2,32,5,,,,,,,,,,,,,,,,,,,,,,,AFNE12.jpg,AFNE03.jpg,AFSA10.jpg,AFSA02.jpg,AFSA10.jpg,FS,4,num_2,32,num_6,1.89989569562,,,2018_Mar_29_1748,60.0132815643,FEMA4ImagesEEG,001,203271,
AFNE01.JPG,AFNE01.JPG,AFNE01.JPG,AFNE01.JPG,AFNE01.JPG,AFNE01.JPG,3,3,33,3,,,,,,,,,,,,,,,,,,,,,,,AFNE10.jpg,AFSA06.jpg,AFSA09.jpg,AFNE05.jpg,AFSA06.jpg,FS,4,num_6,16,num_6,0.900005709147,,,2018_Mar_29_1748,60.0132815643,FEMA4ImagesEEG,001,203271,
AFNE01.JPG,AFNE01.JPG,AFNE01.JPG,AFNE01.JPG,AFNE01.JPG,AFNE01.JPG,3,4,34,9,,,,,,,,,,,,,,,,,,,,,,,AFNE18.jpg,AFSA16.jpg,AFNE16.jpg,AFSA03.jpg,AFNE18.jpg,FN,3,num_8,32,num_4,0.850132689811,,,2018_Mar_29_1748,60.0132815643,FEMA4ImagesEEG,001,203271,
AFNE01.JPG,AFNE01.JPG,AFNE01.JPG,AFNE01.JPG,AFNE01.JPG,AFNE01.JPG,3,5,35,7,,,,,,,,,,,,,,,,,,,,,,,AFNE20.jpg,AFSA19.jpg,AFSA16.jpg,AFNE07.jpg,AFNE20.jpg,FN,3,num_8,32,num_2,1.10023933556,,,2018_Mar_29_1748,60.0132815643,FEMA4ImagesEEG,001,203271,
AFNE01.JPG,AFNE01.JPG,AFNE01.JPG,AFNE01.JPG,AFNE01.JPG,AFNE01.JPG,3,6,36,2,,,,,,,,,,,,,,,,,,,,,,,AFNE18.jpg,AFSA12.jpg,AFSA15.jpg,AFNE14.jpg,AFNE18.jpg,FN,3,num_8,32,num_4,1.2667549341,,,2018_Mar_29_1748,60.0132815643,FEMA4ImagesEEG,001,203271,
AFNE01.JPG,AFNE01.JPG,AFNE01.JPG,AFNE01.JPG,AFNE01.JPG,AFNE01.JPG,3,7,37,4,,,,,,,,,,,,,,,,,,,,,,,AFSA11.jpg,AFNE07.jpg,AFSA03.jpg,AFNE12.jpg,AFNE07.jpg,FN,3,num_6,32,num_4,0.766756537836,,,2018_Mar_29_1748,60.0132815643,FEMA4ImagesEEG,001,203271,
AFNE01.JPG,AFNE01.JPG,AFNE01.JPG,AFNE01.JPG,AFNE01.JPG,AFNE01.JPG,3,8,38,6,,,,,,,,,,,,,,,,,,,,,,,AFNE20.jpg,AFNE16.jpg,AFSA12.jpg,AFSA16.jpg,AFSA12.jpg,FS,4,num_2,32,num_8,1.11680872203,,,2018_Mar_29_1748,60.0132815643,FEMA4ImagesEEG,001,203271,
AFNE01.JPG,AFNE01.JPG,AFNE01.JPG,AFNE01.JPG,AFNE01.JPG,AFNE01.JPG,3,9,39,1,,,,,,,,,,,,,,,,,,,,,,,AFNE15.jpg,AFSA13.jpg,AFNE08.jpg,AFSA02.jpg,AFSA13.jpg,FS,4,num_6,16,num_6,1.54991824355,,,2018_Mar_29_1748,60.0132815643,FEMA4ImagesEEG,001,203271,
AFNE01.JPG,AFNE01.JPG,AFNE01.JPG,AFNE01.JPG,AFNE01.JPG,AFNE01.JPG,4,0,40,6,,,,,,,,,,,,,,,,,,,,,,,AFNE06.jpg,AFSA18.jpg,AFNE17.jpg,AFSA14.jpg,AFSA14.jpg,FS,4,num_4,16,num_4,1.48339918104,,,2018_Mar_29_1748,60.0132815643,FEMA4ImagesEEG,001,203271,
AFNE01.JPG,AFNE01.JPG,AFNE01.JPG,AFNE01.JPG,AFNE01.JPG,AFNE01.JPG,4,1,41,2,,,,,,,,,,,,,,,,,,,,,,,AFSA07.jpg,AFSA15.jpg,AFNE05.jpg,AFNE10.jpg,AFSA15.jpg,FS,4,num_6,48,None,,,,2018_Mar_29_1748,60.0132815643,FEMA4ImagesEEG,001,203271,
AFNE01.JPG,AFNE01.JPG,AFNE01.JPG,AFNE01.JPG,AFNE01.JPG,AFNE01.JPG,4,2,42,5,,,,,,,,,,,,,,,,,,,,,,,AFSA20.jpg,AFNE19.jpg,AFNE12.jpg,AFSA16.jpg,AFNE12.jpg,FN,3,num_2,32,num_4,2.41667324188,,,2018_Mar_29_1748,60.0132815643,FEMA4ImagesEEG,001,203271,
AFNE01.JPG,AFNE01.JPG,AFNE01.JPG,AFNE01.JPG,AFNE01.JPG,AFNE01.JPG,4,3,43,7,,,,,,,,,,,,,,,,,,,,,,,AFNE17.jpg,AFNE20.jpg,AFSA18.jpg,AFSA02.jpg,AFNE17.jpg,FN,3,num_8,16,num_8,0.850150009734,,,2018_Mar_29_1748,60.0132815643,FEMA4ImagesEEG,001,203271,
AFNE01.JPG,AFNE01.JPG,AFNE01.JPG,AFNE01.JPG,AFNE01.JPG,AFNE01.JPG,4,4,44,1,,,,,,,,,,,,,,,,,,,,,,,AFNE02.jpg,AFSA10.jpg,AFNE12.jpg,AFSA02.jpg,AFNE12.jpg,FN,3,num_2,16,num_2,0.866900934605,,,2018_Mar_29_1748,60.0132815643,FEMA4ImagesEEG,001,203271,
AFNE01.JPG,AFNE01.JPG,AFNE01.JPG,AFNE01.JPG,AFNE01.JPG,AFNE01.JPG,4,5,45,3,,,,,,,,,,,,,,,,,,,,,,,AFNE13.jpg,AFSA02.jpg,AFNE20.jpg,AFSA05.jpg,AFNE20.jpg,FN,3,num_2,16,num_2,1.06687700748,,,2018_Mar_29_1748,60.0132815643,FEMA4ImagesEEG,001,203271,
AFNE01.JPG,AFNE01.JPG,AFNE01.JPG,AFNE01.JPG,AFNE01.JPG,AFNE01.JPG,4,6,46,0,,,,,,,,,,,,,,,,,,,,,,,AFNE20.jpg,AFSA01.jpg,AFSA05.jpg,AFNE15.jpg,AFSA05.jpg,FS,4,num_2,32,num_6,0.833594735828,,,2018_Mar_29_1748,60.0132815643,FEMA4ImagesEEG,001,203271,
AFNE01.JPG,AFNE01.JPG,AFNE01.JPG,AFNE01.JPG,AFNE01.JPG,AFNE01.JPG,4,7,47,8,,,,,,,,,,,,,,,,,,,,,,,AFSA14.jpg,AFNE12.jpg,AFSA07.jpg,AFNE20.jpg,AFSA07.jpg,FS,4,num_2,32,num_4,0.83346387418,,,2018_Mar_29_1748,60.0132815643,FEMA4ImagesEEG,001,203271,
AFNE01.JPG,AFNE01.JPG,AFNE01.JPG,AFNE01.JPG,AFNE01.JPG,AFNE01.JPG,4,8,48,4,,,,,,,,,,,,,,,,,,,,,,,AFNE16.jpg,AFSA03.jpg,AFNE13.jpg,AFSA09.jpg,AFNE16.jpg,FN,3,num_8,32,num_2,0.933441165835,,,2018_Mar_29_1748,60.0132815643,FEMA4ImagesEEG,001,203271,
AFNE01.JPG,AFNE01.JPG,AFNE01.JPG,AFNE01.JPG,AFNE01.JPG,AFNE01.JPG,4,9,49,9,,,,,,,,,,,,,,,,,,,,,,,AFSA13.jpg,AFNE19.jpg,AFNE08.jpg,AFSA15.jpg,AFSA15.jpg,FS,4,num_4,32,num_8,0.633516347152,,,2018_Mar_29_1748,60.0132815643,FEMA4ImagesEEG,001,203271,
AFNE01.JPG,AFNE01.JPG,AFNE01.JPG,AFNE01.JPG,AFNE01.JPG,AFNE01.JPG,5,0,50,2,,,,,,,,,,,,,,,,,,,,,,,AFNE04.jpg,AFSA20.jpg,AFNE03.jpg,AFSA10.jpg,AFSA20.jpg,FS,4,num_6,16,num_6,1.03346977581,,,2018_Mar_29_1748,60.0132815643,FEMA4ImagesEEG,001,203271,
AFNE01.JPG,AFNE01.JPG,AFNE01.JPG,AFNE01.JPG,AFNE01.JPG,AFNE01.JPG,5,1,51,1,,,,,,,,,,,,,,,,,,,,,,,AFNE18.jpg,AFNE01.jpg,AFSA06.jpg,AFSA17.jpg,AFNE01.jpg,FN,3,num_6,32,num_4,0.800112451194,,,2018_Mar_29_1748,60.0132815643,FEMA4ImagesEEG,001,203271,
AFNE01.JPG,AFNE01.JPG,AFNE01.JPG,AFNE01.JPG,AFNE01.JPG,AFNE01.JPG,5,2,52,3,,,,,,,,,,,,,,,,,,,,,,,AFSA05.jpg,AFNE20.jpg,AFNE03.jpg,AFSA19.jpg,AFSA05.jpg,FS,4,num_8,16,num_8,0.800228558714,,,2018_Mar_29_1748,60.0132815643,FEMA4ImagesEEG,001,203271,
AFNE01.JPG,AFNE01.JPG,AFNE01.JPG,AFNE01.JPG,AFNE01.JPG,AFNE01.JPG,5,3,53,5,,,,,,,,,,,,,,,,,,,,,,,AFNE03.jpg,AFSA01.jpg,AFNE10.jpg,AFSA20.jpg,AFNE10.jpg,FN,3,num_2,32,num_6,1.01671468129,,,2018_Mar_29_1748,60.0132815643,FEMA4ImagesEEG,001,203271,
AFNE01.JPG,AFNE01.JPG,AFNE01.JPG,AFNE01.JPG,AFNE01.JPG,AFNE01.JPG,5,4,54,9,,,,,,,,,,,,,,,,,,,,,,,AFSA03.jpg,AFSA15.jpg,AFNE11.jpg,AFNE15.jpg,AFNE11.jpg,FN,3,num_2,32,num_8,1.01679133798,,,2018_Mar_29_1748,60.0132815643,FEMA4ImagesEEG,001,203271,
AFNE01.JPG,AFNE01.JPG,AFNE01.JPG,AFNE01.JPG,AFNE01.JPG,AFNE01.JPG,5,5,55,6,,,,,,,,,,,,,,,,,,,,,,,AFSA14.jpg,AFSA01.jpg,AFNE01.jpg,AFNE04.jpg,AFSA14.jpg,FS,4,num_8,32,num_4,1.16673209751,,,2018_Mar_29_1748,60.0132815643,FEMA4ImagesEEG,001,203271,
AFNE01.JPG,AFNE01.JPG,AFNE01.JPG,AFNE01.JPG,AFNE01.JPG,AFNE01.JPG,5,6,56,7,,,,,,,,,,,,,,,,,,,,,,,AFSA06.jpg,AFNE07.jpg,AFNE01.jpg,AFSA12.jpg,AFSA06.jpg,FS,4,num_8,16,num_8,1.01676311297,,,2018_Mar_29_1748,60.0132815643,FEMA4ImagesEEG,001,203271,
AFNE01.JPG,AFNE01.JPG,AFNE01.JPG,AFNE01.JPG,AFNE01.JPG,AFNE01.JPG,5,7,57,8,,,,,,,,,,,,,,,,,,,,,,,AFSA11.jpg,AFNE05.jpg,AFSA06.jpg,AFNE06.jpg,AFSA11.jpg,FS,4,num_8,16,num_8,0.800020399038,,,2018_Mar_29_1748,60.0132815643,FEMA4ImagesEEG,001,203271,
AFNE01.JPG,AFNE01.JPG,AFNE01.JPG,AFNE01.JPG,AFNE01.JPG,AFNE01.JPG,5,8,58,0,,,,,,,,,,,,,,,,,,,,,,,AFNE15.jpg,AFSA08.jpg,AFNE04.jpg,AFSA09.jpg,AFSA09.jpg,FS,4,num_4,32,num_8,1.03358588333,,,2018_Mar_29_1748,60.0132815643,FEMA4ImagesEEG,001,203271,
AFNE01.JPG,AFNE01.JPG,AFNE01.JPG,AFNE01.JPG,AFNE01.JPG,AFNE01.JPG,5,9,59,4,,,,,,,,,,,,,,,,,,,,,,,AFNE02.jpg,AFNE06.jpg,AFSA20.jpg,AFSA06.jpg,AFNE06.jpg,FN,3,num_6,32,num_4,1.00011193799,,,2018_Mar_29_1748,60.0132815643,FEMA4ImagesEEG,001,203271,
,,,,,,,,,,,,,,,,,,,,,,,,,,,,,,,,,,,,,,,,,,,space,29.1812481117,2018_Mar_29_1748,60.0132815643,FEMA4ImagesEEG,001,203271,
AFNE01.JPG,AFNE01.JPG,AFNE01.JPG,AFNE01.JPG,AFNE01.JPG,AFNE01.JPG,,,,,0,0,0,9,,,,,,,,,,,,,,,,,,,AMSA03.jpg,AMNE13.jpg,AMNE14.jpg,AMSA13.jpg,AMNE13.jpg,MN,1,num_6,32,num_2,0.800361986272,,,2018_Mar_29_1748,60.0132815643,FEMA4ImagesEEG,001,203271,
AFNE01.JPG,AFNE01.JPG,AFNE01.JPG,AFNE01.JPG,AFNE01.JPG,AFNE01.JPG,,,,,0,1,1,2,,,,,,,,,,,,,,,,,,,AMSA15.jpg,AMNE03.jpg,AMSA17.jpg,AMNE11.jpg,AMNE11.jpg,MN,1,num_4,16,num_4,0.700195137761,,,2018_Mar_29_1748,60.0132815643,FEMA4ImagesEEG,001,203271,
AFNE01.JPG,AFNE01.JPG,AFNE01.JPG,AFNE01.JPG,AFNE01.JPG,AFNE01.JPG,,,,,0,2,2,7,,,,,,,,,,,,,,,,,,,AMNE08.jpg,AMSA05.jpg,AMNE09.jpg,AMSA15.jpg,AMNE08.jpg,MN,1,num_8,32,num_6,0.650169767207,,,2018_Mar_29_1748,60.0132815643,FEMA4ImagesEEG,001,203271,
AFNE01.JPG,AFNE01.JPG,AFNE01.JPG,AFNE01.JPG,AFNE01.JPG,AFNE01.JPG,,,,,0,3,3,1,,,,,,,,,,,,,,,,,,,AMNE08.jpg,AMNE09.jpg,AMSA18.jpg,AMSA11.jpg,AMSA18.jpg,MS,2,num_2,16,num_2,0.700155366096,,,2018_Mar_29_1748,60.0132815643,FEMA4ImagesEEG,001,203271,
AFNE01.JPG,AFNE01.JPG,AFNE01.JPG,AFNE01.JPG,AFNE01.JPG,AFNE01.JPG,,,,,0,4,4,5,,,,,,,,,,,,,,,,,,,AMNE15.jpg,AMSA07.jpg,AMNE06.jpg,AMSA03.jpg,AMNE15.jpg,MN,1,num_8,32,num_6,0.800159920473,,,2018_Mar_29_1748,60.0132815643,FEMA4ImagesEEG,001,203271,
AFNE01.JPG,AFNE01.JPG,AFNE01.JPG,AFNE01.JPG,AFNE01.JPG,AFNE01.JPG,,,,,0,5,5,3,,,,,,,,,,,,,,,,,,,AMNE01.jpg,AMNE13.jpg,AMSA13.jpg,AMSA15.jpg,AMSA13.jpg,MS,2,num_2,32,num_6,0.983289167518,,,2018_Mar_29_1748,60.0132815643,FEMA4ImagesEEG,001,203271,
AFNE01.JPG,AFNE01.JPG,AFNE01.JPG,AFNE01.JPG,AFNE01.JPG,AFNE01.JPG,,,,,0,6,6,0,,,,,,,,,,,,,,,,,,,AMSA01.jpg,AMNE01.jpg,AMNE12.jpg,AMSA12.jpg,AMSA01.jpg,MS,2,num_8,16,num_8,0.816781908274,,,2018_Mar_29_1748,60.0132815643,FEMA4ImagesEEG,001,203271,
AFNE01.JPG,AFNE01.JPG,AFNE01.JPG,AFNE01.JPG,AFNE01.JPG,AFNE01.JPG,,,,,0,7,7,6,,,,,,,,,,,,,,,,,,,AMNE11.jpg,AMSA06.jpg,AMSA07.jpg,AMNE14.jpg,AMSA06.jpg,MS,2,num_6,16,num_6,0.816758173634,,,2018_Mar_29_1748,60.0132815643,FEMA4ImagesEEG,001,203271,
AFNE01.JPG,AFNE01.JPG,AFNE01.JPG,AFNE01.JPG,AFNE01.JPG,AFNE01.JPG,,,,,0,8,8,8,,,,,,,,,,,,,,,,,,,AMSA05.jpg,AMSA18.jpg,AMNE17.jpg,AMNE04.jpg,AMNE17.jpg,MN,1,num_2,16,num_2,0.800136827282,,,2018_Mar_29_1748,60.0132815643,FEMA4ImagesEEG,001,203271,
AFNE01.JPG,AFNE01.JPG,AFNE01.JPG,AFNE01.JPG,AFNE01.JPG,AFNE01.JPG,,,,,0,9,9,4,,,,,,,,,,,,,,,,,,,AMSA12.jpg,AMNE11.jpg,AMNE06.jpg,AMSA20.jpg,AMNE11.jpg,MN,1,num_6,32,num_8,0.916781972395,,,2018_Mar_29_1748,60.0132815643,FEMA4ImagesEEG,001,203271,
AFNE01.JPG,AFNE01.JPG,AFNE01.JPG,AFNE01.JPG,AFNE01.JPG,AFNE01.JPG,,,,,1,0,10,0,,,,,,,,,,,,,,,,,,,AMNE10.jpg,AMSA19.jpg,AMNE19.jpg,AMSA13.jpg,AMNE19.jpg,MN,1,num_2,32,num_4,0.816789926728,,,2018_Mar_29_1748,60.0132815643,FEMA4ImagesEEG,001,203271,
AFNE01.JPG,AFNE01.JPG,AFNE01.JPG,AFNE01.JPG,AFNE01.JPG,AFNE01.JPG,,,,,1,1,11,6,,,,,,,,,,,,,,,,,,,AMNE10.jpg,AMSA05.jpg,AMNE02.jpg,AMSA11.jpg,AMSA05.jpg,MS,2,num_6,32,num_2,0.700217268779,,,2018_Mar_29_1748,60.0132815643,FEMA4ImagesEEG,001,203271,
AFNE01.JPG,AFNE01.JPG,AFNE01.JPG,AFNE01.JPG,AFNE01.JPG,AFNE01.JPG,,,,,1,2,12,5,,,,,,,,,,,,,,,,,,,AMSA12.jpg,AMNE15.jpg,AMSA10.jpg,AMNE18.jpg,AMSA12.jpg,MS,2,num_8,16,num_8,0.783467691042,,,2018_Mar_29_1748,60.0132815643,FEMA4ImagesEEG,001,203271,
AFNE01.JPG,AFNE01.JPG,AFNE01.JPG,AFNE01.JPG,AFNE01.JPG,AFNE01.JPG,,,,,1,3,13,1,,,,,,,,,,,,,,,,,,,AMSA12.jpg,AMSA14.jpg,AMNE11.jpg,AMNE02.jpg,AMNE11.jpg,MN,1,num_2,32,num_4,1.01676118851,,,2018_Mar_29_1748,60.0132815643,FEMA4ImagesEEG,001,203271,
AFNE01.JPG,AFNE01.JPG,AFNE01.JPG,AFNE01.JPG,AFNE01.JPG,AFNE01.JPG,,,,,1,4,14,3,,,,,,,,,,,,,,,,,,,AMSA07.jpg,AMNE06.jpg,AMSA18.jpg,AMNE02.jpg,AMSA18.jpg,MS,2,num_2,32,num_8,1.15014603257,,,2018_Mar_29_1748,60.0132815643,FEMA4ImagesEEG,001,203271,
AFNE01.JPG,AFNE01.JPG,AFNE01.JPG,AFNE01.JPG,AFNE01.JPG,AFNE01.JPG,,,,,1,5,15,4,,,,,,,,,,,,,,,,,,,AMSA11.jpg,AMSA17.jpg,AMNE02.jpg,AMNE03.jpg,AMSA17.jpg,MS,2,num_6,16,num_6,0.76677802729,,,2018_Mar_29_1748,60.0132815643,FEMA4ImagesEEG,001,203271,
AFNE01.JPG,AFNE01.JPG,AFNE01.JPG,AFNE01.JPG,AFNE01.JPG,AFNE01.JPG,,,,,1,6,16,8,,,,,,,,,,,,,,,,,,,AMNE20.jpg,AMNE15.jpg,AMSA07.jpg,AMSA13.jpg,AMNE20.jpg,MN,1,num_8,16,num_8,0.81677292753,,,2018_Mar_29_1748,60.0132815643,FEMA4ImagesEEG,001,203271,
AFNE01.JPG,AFNE01.JPG,AFNE01.JPG,AFNE01.JPG,AFNE01.JPG,AFNE01.JPG,,,,,1,7,17,7,,,,,,,,,,,,,,,,,,,AMSA01.jpg,AMNE10.jpg,AMSA13.jpg,AMNE08.jpg,AMNE08.jpg,MN,1,num_4,32,num_2,0.816780945985,,,2018_Mar_29_1748,60.0132815643,FEMA4ImagesEEG,001,203271,
AFNE01.JPG,AFNE01.JPG,AFNE01.JPG,AFNE01.JPG,AFNE01.JPG,AFNE01.JPG,,,,,1,8,18,2,,,,,,,,,,,,,,,,,,,AMSA03.jpg,AMNE11.jpg,AMNE10.jpg,AMSA14.jpg,AMNE11.jpg,MN,1,num_6,32,num_2,1.08340662229,,,2018_Mar_29_1748,60.0132815643,FEMA4ImagesEEG,001,203271,
AFNE01.JPG,AFNE01.JPG,AFNE01.JPG,AFNE01.JPG,AFNE01.JPG,AFNE01.JPG,,,,,1,9,19,9,,,,,,,,,,,,,,,,,,,AMNE13.jpg,AMNE15.jpg,AMSA04.jpg,AMSA09.jpg,AMSA09.jpg,MS,2,num_4,16,num_4,1.01675573597,,,2018_Mar_29_1748,60.0132815643,FEMA4ImagesEEG,001,203271,
AFNE01.JPG,AFNE01.JPG,AFNE01.JPG,AFNE01.JPG,AFNE01.JPG,AFNE01.JPG,,,,,2,0,20,2,,,,,,,,,,,,,,,,,,,AMNE01.jpg,AMSA18.jpg,AMSA19.jpg,AMNE06.jpg,AMSA18.jpg,MS,2,num_6,16,num_6,0.950096831191,,,2018_Mar_29_1748,60.0132815643,FEMA4ImagesEEG,001,203271,
AFNE01.JPG,AFNE01.JPG,AFNE01.JPG,AFNE01.JPG,AFNE01.JPG,AFNE01.JPG,,,,,2,1,21,0,,,,,,,,,,,,,,,,,,,AMNE15.jpg,AMSA18.jpg,AMNE05.jpg,AMSA15.jpg,AMSA18.jpg,MS,2,num_6,16,num_6,0.73345803679,,,2018_Mar_29_1748,60.0132815643,FEMA4ImagesEEG,001,203271,
AFNE01.JPG,AFNE01.JPG,AFNE01.JPG,AFNE01.JPG,AFNE01.JPG,AFNE01.JPG,,,,,2,2,22,4,,,,,,,,,,,,,,,,,,,AMSA04.jpg,AMNE08.jpg,AMNE18.jpg,AMSA14.jpg,AMNE18.jpg,MN,1,num_2,32,num_6,1.41680795222,,,2018_Mar_29_1748,60.0132815643,FEMA4ImagesEEG,001,203271,
AFNE01.JPG,AFNE01.JPG,AFNE01.JPG,AFNE01.JPG,AFNE01.JPG,AFNE01.JPG,,,,,2,3,23,5,,,,,,,,,,,,,,,,,,,AMSA08.jpg,AMNE06.jpg,AMNE08.jpg,AMSA02.jpg,AMNE08.jpg,MN,1,num_2,16,num_2,0.900180191267,,,2018_Mar_29_1748,60.0132815643,FEMA4ImagesEEG,001,203271,
AFNE01.JPG,AFNE01.JPG,AFNE01.JPG,AFNE01.JPG,AFNE01.JPG,AFNE01.JPG,,,,,2,4,24,9,,,,,,,,,,,,,,,,,,,AMSA17.jpg,AMNE12.jpg,AMSA18.jpg,AMNE06.jpg,AMSA18.jpg,MS,2,num_2,32,num_8,0.81681590667,,,2018_Mar_29_1748,60.0132815643,FEMA4ImagesEEG,001,203271,
AFNE01.JPG,AFNE01.JPG,AFNE01.JPG,AFNE01.JPG,AFNE01.JPG,AFNE01.JPG,,,,,2,5,25,6,,,,,,,,,,,,,,,,,,,AMNE18.jpg,AMSA08.jpg,AMSA14.jpg,AMNE08.jpg,AMNE08.jpg,MN,1,num_4,16,num_4,0.766783159226,,,2018_Mar_29_1748,60.0132815643,FEMA4ImagesEEG,001,203271,
AFNE01.JPG,AFNE01.JPG,AFNE01.JPG,AFNE01.JPG,AFNE01.JPG,AFNE01.JPG,,,,,2,6,26,7,,,,,,,,,,,,,,,,,,,AMNE01.jpg,AMSA01.jpg,AMNE16.jpg,AMSA11.jpg,AMNE01.jpg,MN,1,num_8,32,num_2,0.933513332158,,,2018_Mar_29_1748,60.0132815643,FEMA4ImagesEEG,001,203271,
AFNE01.JPG,AFNE01.JPG,AFNE01.JPG,AFNE01.JPG,AFNE01.JPG,AFNE01.JPG,,,,,2,7,27,3,,,,,,,,,,,,,,,,,,,AMSA14.jpg,AMSA13.jpg,AMNE03.jpg,AMNE04.jpg,AMNE03.jpg,MN,1,num_2,32,num_4,0.700137725449,,,2018_Mar_29_1748,60.0132815643,FEMA4ImagesEEG,001,203271,
AFNE01.JPG,AFNE01.JPG,AFNE01.JPG,AFNE01.JPG,AFNE01.JPG,AFNE01.JPG,,,,,2,8,28,1,,,,,,,,,,,,,,,,,,,AMSA16.jpg,AMNE19.jpg,AMSA13.jpg,AMNE15.jpg,AMNE15.jpg,MN,1,num_4,16,num_4,0.950140130939,,,2018_Mar_29_1748,60.0132815643,FEMA4ImagesEEG,001,203271,
AFNE01.JPG,AFNE01.JPG,AFNE01.JPG,AFNE01.JPG,AFNE01.JPG,AFNE01.JPG,,,,,2,9,29,8,,,,,,,,,,,,,,,,,,,AMNE04.jpg,AMSA06.jpg,AMSA15.jpg,AMNE20.jpg,AMSA06.jpg,MS,2,num_6,32,num_4,0.916769142845,,,2018_Mar_29_1748,60.0132815643,FEMA4ImagesEEG,001,203271,
AFNE01.JPG,AFNE01.JPG,AFNE01.JPG,AFNE01.JPG,AFNE01.JPG,AFNE01.JPG,,,,,3,0,30,5,,,,,,,,,,,,,,,,,,,AMNE13.jpg,AMSA02.jpg,AMSA14.jpg,AMNE17.jpg,AMSA14.jpg,MS,2,num_2,32,num_6,1.85008169233,,,2018_Mar_29_1748,60.0132815643,FEMA4ImagesEEG,001,203271,
AFNE01.JPG,AFNE01.JPG,AFNE01.JPG,AFNE01.JPG,AFNE01.JPG,AFNE01.JPG,,,,,3,1,31,9,,,,,,,,,,,,,,,,,,,AMNE08.jpg,AMNE12.jpg,AMSA09.jpg,AMSA13.jpg,AMNE08.jpg,MN,1,num_8,32,num_4,0.683435552986,,,2018_Mar_29_1748,60.0132815643,FEMA4ImagesEEG,001,203271,
AFNE01.JPG,AFNE01.JPG,AFNE01.JPG,AFNE01.JPG,AFNE01.JPG,AFNE01.JPG,,,,,3,2,32,6,,,,,,,,,,,,,,,,,,,AMSA14.jpg,AMNE05.jpg,AMNE12.jpg,AMSA04.jpg,AMNE05.jpg,MN,1,num_6,32,num_4,0.816728024161,,,2018_Mar_29_1748,60.0132815643,FEMA4ImagesEEG,001,203271,
AFNE01.JPG,AFNE01.JPG,AFNE01.JPG,AFNE01.JPG,AFNE01.JPG,AFNE01.JPG,,,,,3,3,33,7,,,,,,,,,,,,,,,,,,,AMNE01.jpg,AMSA09.jpg,AMSA14.jpg,AMNE13.jpg,AMSA09.jpg,MS,2,num_6,32,num_4,0.766730878735,,,2018_Mar_29_1748,60.0132815643,FEMA4ImagesEEG,001,203271,
AFNE01.JPG,AFNE01.JPG,AFNE01.JPG,AFNE01.JPG,AFNE01.JPG,AFNE01.JPG,,,,,3,4,34,8,,,,,,,,,,,,,,,,,,,AMNE08.jpg,AMSA15.jpg,AMSA02.jpg,AMNE04.jpg,AMSA02.jpg,MS,2,num_2,16,num_2,1.0334453996,,,2018_Mar_29_1748,60.0132815643,FEMA4ImagesEEG,001,203271,
AFNE01.JPG,AFNE01.JPG,AFNE01.JPG,AFNE01.JPG,AFNE01.JPG,AFNE01.JPG,,,,,3,5,35,3,,,,,,,,,,,,,,,,,,,AMNE04.jpg,AMSA08.jpg,AMNE14.jpg,AMSA03.jpg,AMNE04.jpg,MN,1,num_8,16,num_8,1.43343475112,,,2018_Mar_29_1748,60.0132815643,FEMA4ImagesEEG,001,203271,
AFNE01.JPG,AFNE01.JPG,AFNE01.JPG,AFNE01.JPG,AFNE01.JPG,AFNE01.JPG,,,,,3,6,36,0,,,,,,,,,,,,,,,,,,,AMSA19.jpg,AMSA06.jpg,AMNE07.jpg,AMNE03.jpg,AMSA19.jpg,MS,2,num_8,32,num_2,0.83364605403,,,2018_Mar_29_1748,60.0132815643,FEMA4ImagesEEG,001,203271,
AFNE01.JPG,AFNE01.JPG,AFNE01.JPG,AFNE01.JPG,AFNE01.JPG,AFNE01.JPG,,,,,3,7,37,1,,,,,,,,,,,,,,,,,,,AMSA18.jpg,AMNE05.jpg,AMSA06.jpg,AMNE20.jpg,AMSA18.jpg,MS,2,num_8,32,num_4,1.03347971872,,,2018_Mar_29_1748,60.0132815643,FEMA4ImagesEEG,001,203271,
AFNE01.JPG,AFNE01.JPG,AFNE01.JPG,AFNE01.JPG,AFNE01.JPG,AFNE01.JPG,,,,,3,8,38,2,,,,,,,,,,,,,,,,,,,AMSA19.jpg,AMNE03.jpg,AMNE09.jpg,AMSA06.jpg,AMSA06.jpg,MS,2,num_4,32,num_2,1.10012964276,,,2018_Mar_29_1748,60.0132815643,FEMA4ImagesEEG,001,203271,
AFNE01.JPG,AFNE01.JPG,AFNE01.JPG,AFNE01.JPG,AFNE01.JPG,AFNE01.JPG,,,,,3,9,39,4,,,,,,,,,,,,,,,,,,,AMNE14.jpg,AMSA02.jpg,AMNE06.jpg,AMSA01.jpg,AMSA02.jpg,MS,2,num_6,32,num_4,3.83322396118,,,2018_Mar_29_1748,60.0132815643,FEMA4ImagesEEG,001,203271,
AFNE01.JPG,AFNE01.JPG,AFNE01.JPG,AFNE01.JPG,AFNE01.JPG,AFNE01.JPG,,,,,4,0,40,5,,,,,,,,,,,,,,,,,,,AMSA02.jpg,AMSA11.jpg,AMNE11.jpg,AMNE02.jpg,AMNE02.jpg,MN,1,num_4,16,num_4,0.766787007917,,,2018_Mar_29_1748,60.0132815643,FEMA4ImagesEEG,001,203271,
AFNE01.JPG,AFNE01.JPG,AFNE01.JPG,AFNE01.JPG,AFNE01.JPG,AFNE01.JPG,,,,,4,1,41,6,,,,,,,,,,,,,,,,,,,AMNE05.jpg,AMNE02.jpg,AMSA19.jpg,AMSA20.jpg,AMNE02.jpg,MN,1,num_6,32,num_4,1.15009150689,,,2018_Mar_29_1748,60.0132815643,FEMA4ImagesEEG,001,203271,
AFNE01.JPG,AFNE01.JPG,AFNE01.JPG,AFNE01.JPG,AFNE01.JPG,AFNE01.JPG,,,,,4,2,42,9,,,,,,,,,,,,,,,,,,,AMSA10.jpg,AMNE13.jpg,AMNE19.jpg,AMSA13.jpg,AMNE13.jpg,MN,1,num_6,32,num_8,0.850103502627,,,2018_Mar_29_1748,60.0132815643,FEMA4ImagesEEG,001,203271,
AFNE01.JPG,AFNE01.JPG,AFNE01.JPG,AFNE01.JPG,AFNE01.JPG,AFNE01.JPG,,,,,4,3,43,1,,,,,,,,,,,,,,,,,,,AMSA20.jpg,AMNE04.jpg,AMSA05.jpg,AMNE06.jpg,AMSA20.jpg,MS,2,num_8,32,num_4,0.816749834339,,,2018_Mar_29_1748,60.0132815643,FEMA4ImagesEEG,001,203271,
AFNE01.JPG,AFNE01.JPG,AFNE01.JPG,AFNE01.JPG,AFNE01.JPG,AFNE01.JPG,,,,,4,4,44,7,,,,,,,,,,,,,,,,,,,AMNE18.jpg,AMNE06.jpg,AMSA10.jpg,AMSA11.jpg,AMSA11.jpg,MS,2,num_4,32,num_8,0.800123035558,,,2018_Mar_29_1748,60.0132815643,FEMA4ImagesEEG,001,203271,
AFNE01.JPG,AFNE01.JPG,AFNE01.JPG,AFNE01.JPG,AFNE01.JPG,AFNE01.JPG,,,,,4,5,45,0,,,,,,,,,,,,,,,,,,,AMSA10.jpg,AMSA04.jpg,AMNE16.jpg,AMNE06.jpg,AMNE06.jpg,MN,1,num_4,16,num_4,0.783422787557,,,2018_Mar_29_1748,60.0132815643,FEMA4ImagesEEG,001,203271,
AFNE01.JPG,AFNE01.JPG,AFNE01.JPG,AFNE01.JPG,AFNE01.JPG,AFNE01.JPG,,,,,4,6,46,8,,,,,,,,,,,,,,,,,,,AMNE14.jpg,AMNE03.jpg,AMSA03.jpg,AMSA20.jpg,AMSA03.jpg,MS,2,num_2,16,num_2,1.01678716834,,,2018_Mar_29_1748,60.0132815643,FEMA4ImagesEEG,001,203271,
AFNE01.JPG,AFNE01.JPG,AFNE01.JPG,AFNE01.JPG,AFNE01.JPG,AFNE01.JPG,,,,,4,7,47,3,,,,,,,,,,,,,,,,,,,AMNE12.jpg,AMSA02.jpg,AMSA03.jpg,AMNE04.jpg,AMSA02.jpg,MS,2,num_6,32,num_4,0.716764844954,,,2018_Mar_29_1748,60.0132815643,FEMA4ImagesEEG,001,203271,
AFNE01.JPG,AFNE01.JPG,AFNE01.JPG,AFNE01.JPG,AFNE01.JPG,AFNE01.JPG,,,,,4,8,48,4,,,,,,,,,,,,,,,,,,,AMSA02.jpg,AMNE20.jpg,AMNE11.jpg,AMSA19.jpg,AMSA19.jpg,MS,2,num_4,16,num_4,1.3334738171,,,2018_Mar_29_1748,60.0132815643,FEMA4ImagesEEG,001,203271,
AFNE01.JPG,AFNE01.JPG,AFNE01.JPG,AFNE01.JPG,AFNE01.JPG,AFNE01.JPG,,,,,4,9,49,2,,,,,,,,,,,,,,,,,,,AMSA05.jpg,AMNE03.jpg,AMNE08.jpg,AMSA01.jpg,AMSA01.jpg,MS,2,num_4,16,num_4,0.433632967877,,,2018_Mar_29_1748,60.0132815643,FEMA4ImagesEEG,001,203271,
AFNE01.JPG,AFNE01.JPG,AFNE01.JPG,AFNE01.JPG,AFNE01.JPG,AFNE01.JPG,,,,,5,0,50,9,,,,,,,,,,,,,,,,,,,AMNE06.jpg,AMSA07.jpg,AMSA19.jpg,AMNE20.jpg,AMSA07.jpg,MS,2,num_6,32,num_8,1.15010465728,,,2018_Mar_29_1748,60.0132815643,FEMA4ImagesEEG,001,203271,
AFNE01.JPG,AFNE01.JPG,AFNE01.JPG,AFNE01.JPG,AFNE01.JPG,AFNE01.JPG,,,,,5,1,51,6,,,,,,,,,,,,,,,,,,,AMNE19.jpg,AMNE06.jpg,AMSA05.jpg,AMSA10.jpg,AMNE06.jpg,MN,1,num_6,16,num_6,1.66668238293,,,2018_Mar_29_1748,60.0132815643,FEMA4ImagesEEG,001,203271,
AFNE01.JPG,AFNE01.JPG,AFNE01.JPG,AFNE01.JPG,AFNE01.JPG,AFNE01.JPG,,,,,5,2,52,2,,,,,,,,,,,,,,,,,,,AMNE07.jpg,AMSA15.jpg,AMSA12.jpg,AMNE17.jpg,AMSA15.jpg,MS,2,num_6,16,num_6,1.01678780979,,,2018_Mar_29_1748,60.0132815643,FEMA4ImagesEEG,001,203271,
AFNE01.JPG,AFNE01.JPG,AFNE01.JPG,AFNE01.JPG,AFNE01.JPG,AFNE01.JPG,,,,,5,3,53,7,,,,,,,,,,,,,,,,,,,AMSA02.jpg,AMSA15.jpg,AMNE13.jpg,AMNE04.jpg,AMNE13.jpg,MN,1,num_2,16,num_2,0.70016338455,,,2018_Mar_29_1748,60.0132815643,FEMA4ImagesEEG,001,203271,
AFNE01.JPG,AFNE01.JPG,AFNE01.JPG,AFNE01.JPG,AFNE01.JPG,AFNE01.JPG,,,,,5,4,54,0,,,,,,,,,,,,,,,,,,,AMSA13.jpg,AMNE04.jpg,AMSA01.jpg,AMNE17.jpg,AMNE04.jpg,MN,1,num_6,16,num_6,0.766720935819,,,2018_Mar_29_1748,60.0132815643,FEMA4ImagesEEG,001,203271,
AFNE01.JPG,AFNE01.JPG,AFNE01.JPG,AFNE01.JPG,AFNE01.JPG,AFNE01.JPG,,,,,5,5,55,3,,,,,,,,,,,,,,,,,,,AMNE04.jpg,AMSA14.jpg,AMNE08.jpg,AMSA10.jpg,AMNE04.jpg,MN,1,num_8,16,num_8,0.750306466245,,,2018_Mar_29_1748,60.0132815643,FEMA4ImagesEEG,001,203271,
AFNE01.JPG,AFNE01.JPG,AFNE01.JPG,AFNE01.JPG,AFNE01.JPG,AFNE01.JPG,,,,,5,6,56,5,,,,,,,,,,,,,,,,,,,AMSA09.jpg,AMNE14.jpg,AMNE06.jpg,AMSA17.jpg,AMNE14.jpg,MN,1,num_6,32,num_2,0.966812474653,,,2018_Mar_29_1748,60.0132815643,FEMA4ImagesEEG,001,203271,
AFNE01.JPG,AFNE01.JPG,AFNE01.JPG,AFNE01.JPG,AFNE01.JPG,AFNE01.JPG,,,,,5,7,57,4,,,,,,,,,,,,,,,,,,,AMNE05.jpg,AMSA05.jpg,AMNE18.jpg,AMSA02.jpg,AMSA05.jpg,MS,2,num_6,32,num_8,1.46669572557,,,2018_Mar_29_1748,60.0132815643,FEMA4ImagesEEG,001,203271,
AFNE01.JPG,AFNE01.JPG,AFNE01.JPG,AFNE01.JPG,AFNE01.JPG,AFNE01.JPG,,,,,5,8,58,8,,,,,,,,,,,,,,,,,,,AMSA01.jpg,AMSA08.jpg,AMNE08.jpg,AMNE05.jpg,AMSA01.jpg,MS,2,num_8,32,num_2,1.91680827306,,,2018_Mar_29_1748,60.0132815643,FEMA4ImagesEEG,001,203271,
AFNE01.JPG,AFNE01.JPG,AFNE01.JPG,AFNE01.JPG,AFNE01.JPG,AFNE01.JPG,,,,,5,9,59,1,,,,,,,,,,,,,,,,,,,AMNE05.jpg,AMSA15.jpg,AMNE12.jpg,AMSA14.jpg,AMNE05.jpg,MN,1,num_8,16,num_8,0.73350486462,,,2018_Mar_29_1748,60.0132815643,FEMA4ImagesEEG,001,203271,
,,,,,,,,,,,,,,,,,,,,,,,,,,,,,,,,,,,,,,,,,,,space,21.0651539966,2018_Mar_29_1748,60.0132815643,FEMA4ImagesEEG,001,203271,
AFNE01.JPG,AFNE01.JPG,AFNE01.JPG,AFNE01.JPG,AFNE01.JPG,AFNE01.JPG,,,,,,,,,0,0,0,3,,,,,,,,,,,,,,,AFSA15.jpg,AFNE18.jpg,AFNE19.jpg,AFSA14.jpg,AFSA14.jpg,FS,4,num_4,16,num_4,0.933472919045,,,2018_Mar_29_1748,60.0132815643,FEMA4ImagesEEG,001,203271,
AFNE01.JPG,AFNE01.JPG,AFNE01.JPG,AFNE01.JPG,AFNE01.JPG,AFNE01.JPG,,,,,,,,,0,1,1,7,,,,,,,,,,,,,,,AFSA04.jpg,AFSA05.jpg,AFNE12.jpg,AFNE19.jpg,AFNE19.jpg,FN,3,num_4,32,num_6,0.800138431019,,,2018_Mar_29_1748,60.0132815643,FEMA4ImagesEEG,001,203271,
AFNE01.JPG,AFNE01.JPG,AFNE01.JPG,AFNE01.JPG,AFNE01.JPG,AFNE01.JPG,,,,,,,,,0,2,2,5,,,,,,,,,,,,,,,AFNE18.jpg,AFSA11.jpg,AFNE08.jpg,AFSA05.jpg,AFNE08.jpg,FN,3,num_2,16,num_2,0.900143306353,,,2018_Mar_29_1748,60.0132815643,FEMA4ImagesEEG,001,203271,
AFNE01.JPG,AFNE01.JPG,AFNE01.JPG,AFNE01.JPG,AFNE01.JPG,AFNE01.JPG,,,,,,,,,0,3,3,1,,,,,,,,,,,,,,,AFSA09.jpg,AFNE04.jpg,AFNE18.jpg,AFSA02.jpg,AFSA02.jpg,FS,4,num_4,32,num_6,1.28356230911,,,2018_Mar_29_1748,60.0132815643,FEMA4ImagesEEG,001,203271,
AFNE01.JPG,AFNE01.JPG,AFNE01.JPG,AFNE01.JPG,AFNE01.JPG,AFNE01.JPG,,,,,,,,,0,4,4,4,,,,,,,,,,,,,,,AFSA02.jpg,AFSA17.jpg,AFNE18.jpg,AFNE10.jpg,AFSA17.jpg,FS,4,num_6,32,num_4,0.650125505286,,,2018_Mar_29_1748,60.0132815643,FEMA4ImagesEEG,001,203271,
AFNE01.JPG,AFNE01.JPG,AFNE01.JPG,AFNE01.JPG,AFNE01.JPG,AFNE01.JPG,,,,,,,,,0,5,5,8,,,,,,,,,,,,,,,AFNE14.jpg,AFSA13.jpg,AFSA18.jpg,AFNE15.jpg,AFNE15.jpg,FN,3,num_4,32,num_8,1.01675766043,,,2018_Mar_29_1748,60.0132815643,FEMA4ImagesEEG,001,203271,
AFNE01.JPG,AFNE01.JPG,AFNE01.JPG,AFNE01.JPG,AFNE01.JPG,AFNE01.JPG,,,,,,,,,0,6,6,2,,,,,,,,,,,,,,,AFSA14.jpg,AFNE11.jpg,AFSA07.jpg,AFNE20.jpg,AFNE20.jpg,FN,3,num_4,16,num_4,1.03349158599,,,2018_Mar_29_1748,60.0132815643,FEMA4ImagesEEG,001,203271,
AFNE01.JPG,AFNE01.JPG,AFNE01.JPG,AFNE01.JPG,AFNE01.JPG,AFNE01.JPG,,,,,,,,,0,7,7,9,,,,,,,,,,,,,,,AFSA04.jpg,AFNE05.jpg,AFNE09.jpg,AFSA09.jpg,AFSA09.jpg,FS,4,num_4,32,num_8,0.666762888315,,,2018_Mar_29_1748,60.0132815643,FEMA4ImagesEEG,001,203271,
AFNE01.JPG,AFNE01.JPG,AFNE01.JPG,AFNE01.JPG,AFNE01.JPG,AFNE01.JPG,,,,,,,,,0,8,8,6,,,,,,,,,,,,,,,AFNE09.jpg,AFSA19.jpg,AFNE04.jpg,AFSA04.jpg,AFNE04.jpg,FN,3,num_2,16,num_2,0.883441775222,,,2018_Mar_29_1748,60.0132815643,FEMA4ImagesEEG,001,203271,
AFNE01.JPG,AFNE01.JPG,AFNE01.JPG,AFNE01.JPG,AFNE01.JPG,AFNE01.JPG,,,,,,,,,0,9,9,0,,,,,,,,,,,,,,,AFSA19.jpg,AFNE11.jpg,AFSA17.jpg,AFNE15.jpg,AFSA17.jpg,FS,4,num_2,32,num_8,0.850112803862,,,2018_Mar_29_1748,60.0132815643,FEMA4ImagesEEG,001,203271,
AFNE01.JPG,AFNE01.JPG,AFNE01.JPG,AFNE01.JPG,AFNE01.JPG,AFNE01.JPG,,,,,,,,,1,0,10,7,,,,,,,,,,,,,,,AFSA19.jpg,AFNE01.jpg,AFNE14.jpg,AFSA17.jpg,AFSA19.jpg,FS,4,num_8,32,num_2,0.91683296999,,,2018_Mar_29_1748,60.0132815643,FEMA4ImagesEEG,001,203271,
AFNE01.JPG,AFNE01.JPG,AFNE01.JPG,AFNE01.JPG,AFNE01.JPG,AFNE01.JPG,,,,,,,,,1,1,11,9,,,,,,,,,,,,,,,AFSA11.jpg,AFNE03.jpg,AFNE18.jpg,AFSA06.jpg,AFSA11.jpg,FS,4,num_8,16,num_8,0.666779566905,,,2018_Mar_29_1748,60.0132815643,FEMA4ImagesEEG,001,203271,
AFNE01.JPG,AFNE01.JPG,AFNE01.JPG,AFNE01.JPG,AFNE01.JPG,AFNE01.JPG,,,,,,,,,1,2,12,4,,,,,,,,,,,,,,,AFSA07.jpg,AFNE16.jpg,AFSA18.jpg,AFNE08.jpg,AFSA18.jpg,FS,4,num_2,32,num_6,0.933553745272,,,2018_Mar_29_1748,60.0132815643,FEMA4ImagesEEG,001,203271,
AFNE01.JPG,AFNE01.JPG,AFNE01.JPG,AFNE01.JPG,AFNE01.JPG,AFNE01.JPG,,,,,,,,,1,3,13,1,,,,,,,,,,,,,,,AFSA15.jpg,AFNE08.jpg,AFSA19.jpg,AFNE10.jpg,AFNE10.jpg,FN,3,num_4,16,num_4,0.850101257325,,,2018_Mar_29_1748,60.0132815643,FEMA4ImagesEEG,001,203271,
AFNE01.JPG,AFNE01.JPG,AFNE01.JPG,AFNE01.JPG,AFNE01.JPG,AFNE01.JPG,,,,,,,,,1,4,14,3,,,,,,,,,,,,,,,AFNE11.jpg,AFNE20.jpg,AFSA18.jpg,AFSA12.jpg,AFNE20.jpg,FN,3,num_6,16,num_6,1.51675926405,,,2018_Mar_29_1748,60.0132815643,FEMA4ImagesEEG,001,203271,
AFNE01.JPG,AFNE01.JPG,AFNE01.JPG,AFNE01.JPG,AFNE01.JPG,AFNE01.JPG,,,,,,,,,1,5,15,5,,,,,,,,,,,,,,,AFNE06.jpg,AFNE08.jpg,AFSA03.jpg,AFSA11.jpg,AFSA11.jpg,FS,4,num_4,32,num_2,0.833414159715,,,2018_Mar_29_1748,60.0132815643,FEMA4ImagesEEG,001,203271,
AFNE01.JPG,AFNE01.JPG,AFNE01.JPG,AFNE01.JPG,AFNE01.JPG,AFNE01.JPG,,,,,,,,,1,6,16,0,,,,,,,,,,,,,,,AFNE15.jpg,AFNE19.jpg,AFSA11.jpg,AFSA03.jpg,AFNE19.jpg,FN,3,num_6,32,num_8,1.25017432182,,,2018_Mar_29_1748,60.0132815643,FEMA4ImagesEEG,001,203271,
AFNE01.JPG,AFNE01.JPG,AFNE01.JPG,AFNE01.JPG,AFNE01.JPG,AFNE01.JPG,,,,,,,,,1,7,17,6,,,,,,,,,,,,,,,AFSA12.jpg,AFNE17.jpg,AFSA04.jpg,AFNE15.jpg,AFNE15.jpg,FN,3,num_4,16,num_4,0.933490880416,,,2018_Mar_29_1748,60.0132815643,FEMA4ImagesEEG,001,203271,
AFNE01.JPG,AFNE01.JPG,AFNE01.JPG,AFNE01.JPG,AFNE01.JPG,AFNE01.JPG,,,,,,,,,1,8,18,8,,,,,,,,,,,,,,,AFNE06.jpg,AFNE04.jpg,AFSA17.jpg,AFSA13.jpg,AFSA17.jpg,FS,4,num_2,32,num_6,0.716429672437,,,2018_Mar_29_1748,60.0132815643,FEMA4ImagesEEG,001,203271,
AFNE01.JPG,AFNE01.JPG,AFNE01.JPG,AFNE01.JPG,AFNE01.JPG,AFNE01.JPG,,,,,,,,,1,9,19,2,,,,,,,,,,,,,,,AFNE19.jpg,AFNE03.jpg,AFSA08.jpg,AFSA17.jpg,AFSA08.jpg,FS,4,num_2,32,num_4,0.90013945743,,,2018_Mar_29_1748,60.0132815643,FEMA4ImagesEEG,001,203271,
AFNE01.JPG,AFNE01.JPG,AFNE01.JPG,AFNE01.JPG,AFNE01.JPG,AFNE01.JPG,,,,,,,,,2,0,20,1,,,,,,,,,,,,,,,AFNE12.jpg,AFNE17.jpg,AFSA02.jpg,AFSA13.jpg,AFSA13.jpg,FS,4,num_4,32,num_6,1.60004143952,,,2018_Mar_29_1748,60.0132815643,FEMA4ImagesEEG,001,203271,
AFNE01.JPG,AFNE01.JPG,AFNE01.JPG,AFNE01.JPG,AFNE01.JPG,AFNE01.JPG,,,,,,,,,2,1,21,2,,,,,,,,,,,,,,,AFNE06.jpg,AFSA19.jpg,AFSA02.jpg,AFNE07.jpg,AFNE06.jpg,FN,3,num_8,32,num_6,0.750179453637,,,2018_Mar_29_1748,60.0132815643,FEMA4ImagesEEG,001,203271,
AFNE01.JPG,AFNE01.JPG,AFNE01.JPG,AFNE01.JPG,AFNE01.JPG,AFNE01.JPG,,,,,,,,,2,2,22,0,,,,,,,,,,,,,,,AFNE13.jpg,AFSA17.jpg,AFNE04.jpg,AFSA14.jpg,AFNE04.jpg,FN,3,num_2,32,num_4,0.700153441634,,,2018_Mar_29_1748,60.0132815643,FEMA4ImagesEEG,001,203271,
AFNE01.JPG,AFNE01.JPG,AFNE01.JPG,AFNE01.JPG,AFNE01.JPG,AFNE01.JPG,,,,,,,,,2,3,23,3,,,,,,,,,,,,,,,AFSA05.jpg,AFNE18.jpg,AFNE02.jpg,AFSA10.jpg,AFNE18.jpg,FN,3,num_6,32,num_4,0.800094489707,,,2018_Mar_29_1748,60.0132815643,FEMA4ImagesEEG,001,203271,
AFNE01.JPG,AFNE01.JPG,AFNE01.JPG,AFNE01.JPG,AFNE01.JPG,AFNE01.JPG,,,,,,,,,2,4,24,4,,,,,,,,,,,,,,,AFSA10.jpg,AFNE19.jpg,AFSA03.jpg,AFNE07.jpg,AFSA10.jpg,FS,4,num_8,32,num_4,0.800128808827,,,2018_Mar_29_1748,60.0132815643,FEMA4ImagesEEG,001,203271,
AFNE01.JPG,AFNE01.JPG,AFNE01.JPG,AFNE01.JPG,AFNE01.JPG,AFNE01.JPG,,,,,,,,,2,5,25,6,,,,,,,,,,,,,,,AFSA14.jpg,AFSA05.jpg,AFNE02.jpg,AFNE12.jpg,AFSA05.jpg,FS,4,num_6,16,num_6,1.25009991031,,,2018_Mar_29_1748,60.0132815643,FEMA4ImagesEEG,001,203271,
AFNE01.JPG,AFNE01.JPG,AFNE01.JPG,AFNE01.JPG,AFNE01.JPG,AFNE01.JPG,,,,,,,,,2,6,26,8,,,,,,,,,,,,,,,AFSA08.jpg,AFNE20.jpg,AFNE04.jpg,AFSA03.jpg,AFSA03.jpg,FS,4,num_4,32,num_8,1.15017169167,,,2018_Mar_29_1748,60.0132815643,FEMA4ImagesEEG,001,203271,
AFNE01.JPG,AFNE01.JPG,AFNE01.JPG,AFNE01.JPG,AFNE01.JPG,AFNE01.JPG,,,,,,,,,2,7,27,7,,,,,,,,,,,,,,,AFSA16.jpg,AFSA07.jpg,AFNE12.jpg,AFNE02.jpg,AFNE02.jpg,FN,3,num_4,16,num_4,1.13345444447,,,2018_Mar_29_1748,60.0132815643,FEMA4ImagesEEG,001,203271,
AFNE01.JPG,AFNE01.JPG,AFNE01.JPG,AFNE01.JPG,AFNE01.JPG,AFNE01.JPG,,,,,,,,,2,8,28,5,,,,,,,,,,,,,,,AFNE14.jpg,AFSA01.jpg,AFNE16.jpg,AFSA10.jpg,AFSA10.jpg,FS,4,num_4,32,num_8,1.00011386245,,,2018_Mar_29_1748,60.0132815643,FEMA4ImagesEEG,001,203271,
AFNE01.JPG,AFNE01.JPG,AFNE01.JPG,AFNE01.JPG,AFNE01.JPG,AFNE01.JPG,,,,,,,,,2,9,29,9,,,,,,,,,,,,,,,AFSA13.jpg,AFNE18.jpg,AFNE10.jpg,AFSA11.jpg,AFSA13.jpg,FS,4,num_8,32,num_4,0.999835460796,,,2018_Mar_29_1748,60.0132815643,FEMA4ImagesEEG,001,203271,
AFNE01.JPG,AFNE01.JPG,AFNE01.JPG,AFNE01.JPG,AFNE01.JPG,AFNE01.JPG,,,,,,,,,3,0,30,4,,,,,,,,,,,,,,,AFNE17.jpg,AFSA18.jpg,AFSA02.jpg,AFNE04.jpg,AFNE17.jpg,FN,3,num_8,16,num_8,1.133437766,,,2018_Mar_29_1748,60.0132815643,FEMA4ImagesEEG,001,203271,
AFNE01.JPG,AFNE01.JPG,AFNE01.JPG,AFNE01.JPG,AFNE01.JPG,AFNE01.JPG,,,,,,,,,3,1,31,6,,,,,,,,,,,,,,,AFSA02.jpg,AFNE16.jpg,AFSA05.jpg,AFNE15.jpg,AFSA05.jpg,FS,4,num_2,32,num_6,0.783480199869,,,2018_Mar_29_1748,60.0132815643,FEMA4ImagesEEG,001,203271,
AFNE01.JPG,AFNE01.JPG,AFNE01.JPG,AFNE01.JPG,AFNE01.JPG,AFNE01.JPG,,,,,,,,,3,2,32,1,,,,,,,,,,,,,,,AFSA01.jpg,AFSA16.jpg,AFNE10.jpg,AFNE07.jpg,AFSA01.jpg,FS,4,num_8,16,num_8,0.783562950557,,,2018_Mar_29_1748,60.0132815643,FEMA4ImagesEEG,001,203271,
AFNE01.JPG,AFNE01.JPG,AFNE01.JPG,AFNE01.JPG,AFNE01.JPG,AFNE01.JPG,,,,,,,,,3,3,33,9,,,,,,,,,,,,,,,AFSA18.jpg,AFNE06.jpg,AFSA11.jpg,AFNE11.jpg,AFSA11.jpg,FS,4,num_2,16,num_2,1.03340049612,,,2018_Mar_29_1748,60.0132815643,FEMA4ImagesEEG,001,203271,
AFNE01.JPG,AFNE01.JPG,AFNE01.JPG,AFNE01.JPG,AFNE01.JPG,AFNE01.JPG,,,,,,,,,3,4,34,8,,,,,,,,,,,,,,,AFSA01.jpg,AFNE03.jpg,AFSA07.jpg,AFNE20.jpg,AFNE20.jpg,FN,3,num_4,16,num_4,1.00012444681,,,2018_Mar_29_1748,60.0132815643,FEMA4ImagesEEG,001,203271,
AFNE01.JPG,AFNE01.JPG,AFNE01.JPG,AFNE01.JPG,AFNE01.JPG,AFNE01.JPG,,,,,,,,,3,5,35,0,,,,,,,,,,,,,,,AFNE02.jpg,AFSA16.jpg,AFSA11.jpg,AFNE20.jpg,AFSA16.jpg,FS,4,num_6,16,num_6,0.900315543171,,,2018_Mar_29_1748,60.0132815643,FEMA4ImagesEEG,001,203271,
AFNE01.JPG,AFNE01.JPG,AFNE01.JPG,AFNE01.JPG,AFNE01.JPG,AFNE01.JPG,,,,,,,,,3,6,36,5,,,,,,,,,,,,,,,AFSA10.jpg,AFNE08.jpg,AFNE15.jpg,AFSA13.jpg,AFSA13.jpg,FS,4,num_4,32,num_8,1.63340825797,,,2018_Mar_29_1748,60.0132815643,FEMA4ImagesEEG,001,203271,
AFNE01.JPG,AFNE01.JPG,AFNE01.JPG,AFNE01.JPG,AFNE01.JPG,AFNE01.JPG,,,,,,,,,3,7,37,3,,,,,,,,,,,,,,,AFNE08.jpg,AFNE19.jpg,AFSA03.jpg,AFSA04.jpg,AFSA03.jpg,FS,4,num_2,32,num_4,0.733489148435,,,2018_Mar_29_1748,60.0132815643,FEMA4ImagesEEG,001,203271,
AFNE01.JPG,AFNE01.JPG,AFNE01.JPG,AFNE01.JPG,AFNE01.JPG,AFNE01.JPG,,,,,,,,,3,8,38,7,,,,,,,,,,,,,,,AFSA20.jpg,AFNE01.jpg,AFSA13.jpg,AFNE18.jpg,AFSA13.jpg,FS,4,num_2,32,num_6,0.883430549409,,,2018_Mar_29_1748,60.0132815643,FEMA4ImagesEEG,001,203271,
AFNE01.JPG,AFNE01.JPG,AFNE01.JPG,AFNE01.JPG,AFNE01.JPG,AFNE01.JPG,,,,,,,,,3,9,39,2,,,,,,,,,,,,,,,AFSA17.jpg,AFNE12.jpg,AFSA13.jpg,AFNE05.jpg,AFNE05.jpg,FN,3,num_4,16,num_4,0.866754036047,,,2018_Mar_29_1748,60.0132815643,FEMA4ImagesEEG,001,203271,
AFNE01.JPG,AFNE01.JPG,AFNE01.JPG,AFNE01.JPG,AFNE01.JPG,AFNE01.JPG,,,,,,,,,4,0,40,4,,,,,,,,,,,,,,,AFSA16.jpg,AFNE05.jpg,AFNE13.jpg,AFSA19.jpg,AFSA19.jpg,FS,4,num_4,32,num_6,0.733425962855,,,2018_Mar_29_1748,60.0132815643,FEMA4ImagesEEG,001,203271,
AFNE01.JPG,AFNE01.JPG,AFNE01.JPG,AFNE01.JPG,AFNE01.JPG,AFNE01.JPG,,,,,,,,,4,1,41,3,,,,,,,,,,,,,,,AFSA19.jpg,AFNE16.jpg,AFNE02.jpg,AFSA13.jpg,AFNE16.jpg,FN,3,num_6,32,num_2,0.850131727639,,,2018_Mar_29_1748,60.0132815643,FEMA4ImagesEEG,001,203271,
AFNE01.JPG,AFNE01.JPG,AFNE01.JPG,AFNE01.JPG,AFNE01.JPG,AFNE01.JPG,,,,,,,,,4,2,42,1,,,,,,,,,,,,,,,AFSA01.jpg,AFNE16.jpg,AFSA19.jpg,AFNE13.jpg,AFSA01.jpg,FS,4,num_8,16,num_8,0.833486005198,,,2018_Mar_29_1748,60.0132815643,FEMA4ImagesEEG,001,203271,
AFNE01.JPG,AFNE01.JPG,AFNE01.JPG,AFNE01.JPG,AFNE01.JPG,AFNE01.JPG,,,,,,,,,4,3,43,7,,,,,,,,,,,,,,,AFNE04.jpg,AFNE05.jpg,AFSA04.jpg,AFSA09.jpg,AFSA04.jpg,FS,4,num_2,32,num_4,0.650165276835,,,2018_Mar_29_1748,60.0132815643,FEMA4ImagesEEG,001,203271,
AFNE01.JPG,AFNE01.JPG,AFNE01.JPG,AFNE01.JPG,AFNE01.JPG,AFNE01.JPG,,,,,,,,,4,4,44,5,,,,,,,,,,,,,,,AFSA05.jpg,AFNE18.jpg,AFSA19.jpg,AFNE09.jpg,AFNE09.jpg,FN,3,num_4,16,num_4,0.700150555,,,2018_Mar_29_1748,60.0132815643,FEMA4ImagesEEG,001,203271,
AFNE01.JPG,AFNE01.JPG,AFNE01.JPG,AFNE01.JPG,AFNE01.JPG,AFNE01.JPG,,,,,,,,,4,5,45,8,,,,,,,,,,,,,,,AFNE09.jpg,AFSA15.jpg,AFNE15.jpg,AFSA17.jpg,AFNE09.jpg,FN,3,num_8,32,num_4,0.950086567551,,,2018_Mar_29_1748,60.0132815643,FEMA4ImagesEEG,001,203271,
AFNE01.JPG,AFNE01.JPG,AFNE01.JPG,AFNE01.JPG,AFNE01.JPG,AFNE01.JPG,,,,,,,,,4,6,46,9,,,,,,,,,,,,,,,AFNE13.jpg,AFSA02.jpg,AFNE12.jpg,AFSA03.jpg,AFSA02.jpg,FS,4,num_6,32,num_8,0.86673607456,,,2018_Mar_29_1748,60.0132815643,FEMA4ImagesEEG,001,203271,
AFNE01.JPG,AFNE01.JPG,AFNE01.JPG,AFNE01.JPG,AFNE01.JPG,AFNE01.JPG,,,,,,,,,4,7,47,2,,,,,,,,,,,,,,,AFNE02.jpg,AFSA16.jpg,AFSA07.jpg,AFNE01.jpg,AFNE02.jpg,FN,3,num_8,16,num_8,0.750129097607,,,2018_Mar_29_1748,60.0132815643,FEMA4ImagesEEG,001,203271,
AFNE01.JPG,AFNE01.JPG,AFNE01.JPG,AFNE01.JPG,AFNE01.JPG,AFNE01.JPG,,,,,,,,,4,8,48,0,,,,,,,,,,,,,,,AFSA07.jpg,AFNE12.jpg,AFSA13.jpg,AFNE04.jpg,AFNE04.jpg,FN,3,num_4,16,num_4,0.816786398645,,,2018_Mar_29_1748,60.0132815643,FEMA4ImagesEEG,001,203271,
AFNE01.JPG,AFNE01.JPG,AFNE01.JPG,AFNE01.JPG,AFNE01.JPG,AFNE01.JPG,,,,,,,,,4,9,49,6,,,,,,,,,,,,,,,AFSA11.jpg,AFNE18.jpg,AFSA17.jpg,AFNE08.jpg,AFSA11.jpg,FS,4,num_8,16,num_8,0.783510349225,,,2018_Mar_29_1748,60.0132815643,FEMA4ImagesEEG,001,203271,
AFNE01.JPG,AFNE01.JPG,AFNE01.JPG,AFNE01.JPG,AFNE01.JPG,AFNE01.JPG,,,,,,,,,5,0,50,9,,,,,,,,,,,,,,,AFNE14.jpg,AFNE20.jpg,AFSA03.jpg,AFSA07.jpg,AFSA07.jpg,FS,4,num_4,32,num_6,0.916786142043,,,2018_Mar_29_1748,60.0132815643,FEMA4ImagesEEG,001,203271,
AFNE01.JPG,AFNE01.JPG,AFNE01.JPG,AFNE01.JPG,AFNE01.JPG,AFNE01.JPG,,,,,,,,,5,1,51,6,,,,,,,,,,,,,,,AFNE17.jpg,AFNE13.jpg,AFSA20.jpg,AFSA14.jpg,AFSA20.jpg,FS,4,num_2,32,num_8,0.700101802708,,,2018_Mar_29_1748,60.0132815643,FEMA4ImagesEEG,001,203271,
AFNE01.JPG,AFNE01.JPG,AFNE01.JPG,AFNE01.JPG,AFNE01.JPG,AFNE01.JPG,,,,,,,,,5,2,52,2,,,,,,,,,,,,,,,AFNE02.jpg,AFSA17.jpg,AFSA04.jpg,AFNE10.jpg,AFSA04.jpg,FS,4,num_2,16,num_2,0.600149528589,,,2018_Mar_29_1748,60.0132815643,FEMA4ImagesEEG,001,203271,
AFNE01.JPG,AFNE01.JPG,AFNE01.JPG,AFNE01.JPG,AFNE01.JPG,AFNE01.JPG,,,,,,,,,5,3,53,4,,,,,,,,,,,,,,,AFNE13.jpg,AFSA20.jpg,AFNE10.jpg,AFSA17.jpg,AFNE10.jpg,FN,3,num_2,16,num_2,0.866763337399,,,2018_Mar_29_1748,60.0132815643,FEMA4ImagesEEG,001,203271,
AFNE01.JPG,AFNE01.JPG,AFNE01.JPG,AFNE01.JPG,AFNE01.JPG,AFNE01.JPG,,,,,,,,,5,4,54,0,,,,,,,,,,,,,,,AFSA08.jpg,AFNE10.jpg,AFSA07.jpg,AFNE17.jpg,AFNE17.jpg,FN,3,num_4,32,num_8,1.58341464074,,,2018_Mar_29_1748,60.0132815643,FEMA4ImagesEEG,001,203271,
AFNE01.JPG,AFNE01.JPG,AFNE01.JPG,AFNE01.JPG,AFNE01.JPG,AFNE01.JPG,,,,,,,,,5,5,55,7,,,,,,,,,,,,,,,AFNE04.jpg,AFNE08.jpg,AFSA19.jpg,AFSA13.jpg,AFNE04.jpg,FN,3,num_8,32,num_6,0.966598220984,,,2018_Mar_29_1748,60.0132815643,FEMA4ImagesEEG,001,203271,
AFNE01.JPG,AFNE01.JPG,AFNE01.JPG,AFNE01.JPG,AFNE01.JPG,AFNE01.JPG,,,,,,,,,5,6,56,8,,,,,,,,,,,,,,,AFSA14.jpg,AFNE02.jpg,AFNE14.jpg,AFSA15.jpg,AFNE02.jpg,FN,3,num_6,32,num_2,0.650180030847,,,2018_Mar_29_1748,60.0132815643,FEMA4ImagesEEG,001,203271,
AFNE01.JPG,AFNE01.JPG,AFNE01.JPG,AFNE01.JPG,AFNE01.JPG,AFNE01.JPG,,,,,,,,,5,7,57,1,,,,,,,,,,,,,,,AFSA01.jpg,AFNE13.jpg,AFSA10.jpg,AFNE02.jpg,AFNE13.jpg,FN,3,num_6,32,num_8,0.766801762045,,,2018_Mar_29_1748,60.0132815643,FEMA4ImagesEEG,001,203271,
AFNE01.JPG,AFNE01.JPG,AFNE01.JPG,AFNE01.JPG,AFNE01.JPG,AFNE01.JPG,,,,,,,,,5,8,58,5,,,,,,,,,,,,,,,AFNE03.jpg,AFSA05.jpg,AFNE14.jpg,AFSA12.jpg,AFSA12.jpg,FS,4,num_4,16,num_4,0.783466408029,,,2018_Mar_29_1748,60.0132815643,FEMA4ImagesEEG,001,203271,
AFNE01.JPG,AFNE01.JPG,AFNE01.JPG,AFNE01.JPG,AFNE01.JPG,AFNE01.JPG,,,,,,,,,5,9,59,3,,,,,,,,,,,,,,,AFNE02.jpg,AFSA14.jpg,AFSA18.jpg,AFNE08.jpg,AFSA14.jpg,FS,4,num_6,32,num_4,0.683448061696,,,2018_Mar_29_1748,60.0132815643,FEMA4ImagesEEG,001,203271,
,,,,,,,,,,,,,,,,,,,,,,,,,,,,,,,,,,,,,,,,,,,space,21.8981313093,2018_Mar_29_1748,60.0132815643,FEMA4ImagesEEG,001,203271,
AFNE01.JPG,AFNE01.JPG,AFNE01.JPG,AFNE01.JPG,AFNE01.JPG,AFNE01.JPG,,,,,,,,,,,,,0,0,0,9,,,,,,,,,,,AMNE07.jpg,AMSA18.jpg,AMSA04.jpg,AMNE13.jpg,AMNE07.jpg,MN,1,num_8,16,num_8,0.900185964536,,,2018_Mar_29_1748,60.0132815643,FEMA4ImagesEEG,001,203271,
AFNE01.JPG,AFNE01.JPG,AFNE01.JPG,AFNE01.JPG,AFNE01.JPG,AFNE01.JPG,,,,,,,,,,,,,0,1,1,3,,,,,,,,,,,AMSA08.jpg,AMNE14.jpg,AMSA03.jpg,AMNE10.jpg,AMSA08.jpg,MS,2,num_8,16,num_8,0.833468043827,,,2018_Mar_29_1748,60.0132815643,FEMA4ImagesEEG,001,203271,
AFNE01.JPG,AFNE01.JPG,AFNE01.JPG,AFNE01.JPG,AFNE01.JPG,AFNE01.JPG,,,,,,,,,,,,,0,2,2,5,,,,,,,,,,,AMSA10.jpg,AMNE10.jpg,AMSA03.jpg,AMNE01.jpg,AMSA10.jpg,MS,2,num_8,32,num_4,0.633600060013,,,2018_Mar_29_1748,60.0132815643,FEMA4ImagesEEG,001,203271,
AFNE01.JPG,AFNE01.JPG,AFNE01.JPG,AFNE01.JPG,AFNE01.JPG,AFNE01.JPG,,,,,,,,,,,,,0,3,3,6,,,,,,,,,,,AMSA11.jpg,AMNE20.jpg,AMNE03.jpg,AMSA02.jpg,AMSA11.jpg,MS,2,num_8,32,num_2,0.666681420757,,,2018_Mar_29_1748,60.0132815643,FEMA4ImagesEEG,001,203271,
AFNE01.JPG,AFNE01.JPG,AFNE01.JPG,AFNE01.JPG,AFNE01.JPG,AFNE01.JPG,,,,,,,,,,,,,0,4,4,0,,,,,,,,,,,AMSA01.jpg,AMNE09.jpg,AMNE07.jpg,AMSA08.jpg,AMSA08.jpg,MS,2,num_4,32,num_8,0.683456080267,,,2018_Mar_29_1748,60.0132815643,FEMA4ImagesEEG,001,203271,
AFNE01.JPG,AFNE01.JPG,AFNE01.JPG,AFNE01.JPG,AFNE01.JPG,AFNE01.JPG,,,,,,,,,,,,,0,5,5,1,,,,,,,,,,,AMNE20.jpg,AMSA14.jpg,AMNE01.jpg,AMSA10.jpg,AMSA14.jpg,MS,2,num_6,32,num_2,0.71674046875,,,2018_Mar_29_1748,60.0132815643,FEMA4ImagesEEG,001,203271,
AFNE01.JPG,AFNE01.JPG,AFNE01.JPG,AFNE01.JPG,AFNE01.JPG,AFNE01.JPG,,,,,,,,,,,,,0,6,6,7,,,,,,,,,,,AMNE09.jpg,AMNE02.jpg,AMSA12.jpg,AMSA20.jpg,AMSA20.jpg,MS,2,num_4,16,num_4,0.800091923913,,,2018_Mar_29_1748,60.0132815643,FEMA4ImagesEEG,001,203271,
AFNE01.JPG,AFNE01.JPG,AFNE01.JPG,AFNE01.JPG,AFNE01.JPG,AFNE01.JPG,,,,,,,,,,,,,0,7,7,4,,,,,,,,,,,AMSA12.jpg,AMNE15.jpg,AMSA14.jpg,AMNE09.jpg,AMNE15.jpg,MN,1,num_6,32,num_8,0.866756601958,,,2018_Mar_29_1748,60.0132815643,FEMA4ImagesEEG,001,203271,
AFNE01.JPG,AFNE01.JPG,AFNE01.JPG,AFNE01.JPG,AFNE01.JPG,AFNE01.JPG,,,,,,,,,,,,,0,8,8,2,,,,,,,,,,,AMSA08.jpg,AMNE20.jpg,AMNE01.jpg,AMSA03.jpg,AMSA08.jpg,MS,2,num_8,16,num_8,0.916593377711,,,2018_Mar_29_1748,60.0132815643,FEMA4ImagesEEG,001,203271,
AFNE01.JPG,AFNE01.JPG,AFNE01.JPG,AFNE01.JPG,AFNE01.JPG,AFNE01.JPG,,,,,,,,,,,,,0,9,9,8,,,,,,,,,,,AMNE20.jpg,AMNE01.jpg,AMSA09.jpg,AMSA02.jpg,AMNE20.jpg,MN,1,num_8,16,num_8,0.833444309072,,,2018_Mar_29_1748,60.0132815643,FEMA4ImagesEEG,001,203271,
AFNE01.JPG,AFNE01.JPG,AFNE01.JPG,AFNE01.JPG,AFNE01.JPG,AFNE01.JPG,,,,,,,,,,,,,1,0,10,3,,,,,,,,,,,AMNE17.jpg,AMNE18.jpg,AMSA01.jpg,AMSA18.jpg,AMSA18.jpg,MS,2,num_4,16,num_4,0.633451557835,,,2018_Mar_29_1748,60.0132815643,FEMA4ImagesEEG,001,203271,
AFNE01.JPG,AFNE01.JPG,AFNE01.JPG,AFNE01.JPG,AFNE01.JPG,AFNE01.JPG,,,,,,,,,,,,,1,1,11,2,,,,,,,,,,,AMSA09.jpg,AMSA19.jpg,AMNE08.jpg,AMNE15.jpg,AMNE15.jpg,MN,1,num_4,16,num_4,0.750025178073,,,2018_Mar_29_1748,60.0132815643,FEMA4ImagesEEG,001,203271,
AFNE01.JPG,AFNE01.JPG,AFNE01.JPG,AFNE01.JPG,AFNE01.JPG,AFNE01.JPG,,,,,,,,,,,,,1,2,12,1,,,,,,,,,,,AMSA06.jpg,AMSA12.jpg,AMNE01.jpg,AMNE10.jpg,AMNE01.jpg,MN,1,num_2,16,num_2,0.683473079349,,,2018_Mar_29_1748,60.0132815643,FEMA4ImagesEEG,001,203271,
AFNE01.JPG,AFNE01.JPG,AFNE01.JPG,AFNE01.JPG,AFNE01.JPG,AFNE01.JPG,,,,,,,,,,,,,1,3,13,4,,,,,,,,,,,AMSA11.jpg,AMNE16.jpg,AMSA20.jpg,AMNE12.jpg,AMSA11.jpg,MS,2,num_8,16,num_8,1.11703131499,,,2018_Mar_29_1748,60.0132815643,FEMA4ImagesEEG,001,203271,
AFNE01.JPG,AFNE01.JPG,AFNE01.JPG,AFNE01.JPG,AFNE01.JPG,AFNE01.JPG,,,,,,,,,,,,,1,4,14,0,,,,,,,,,,,AMSA07.jpg,AMNE20.jpg,AMNE10.jpg,AMSA13.jpg,AMNE10.jpg,MN,1,num_2,32,num_4,0.900116043398,,,2018_Mar_29_1748,60.0132815643,FEMA4ImagesEEG,001,203271,
AFNE01.JPG,AFNE01.JPG,AFNE01.JPG,AFNE01.JPG,AFNE01.JPG,AFNE01.JPG,,,,,,,,,,,,,1,5,15,5,,,,,,,,,,,AMNE11.jpg,AMNE05.jpg,AMSA05.jpg,AMSA06.jpg,AMNE05.jpg,MN,1,num_6,32,num_8,1.00008980697,,,2018_Mar_29_1748,60.0132815643,FEMA4ImagesEEG,001,203271,
AFNE01.JPG,AFNE01.JPG,AFNE01.JPG,AFNE01.JPG,AFNE01.JPG,AFNE01.JPG,,,,,,,,,,,,,1,6,16,7,,,,,,,,,,,AMSA01.jpg,AMNE17.jpg,AMSA14.jpg,AMNE03.jpg,AMSA01.jpg,MS,2,num_8,16,num_8,0.716728601372,,,2018_Mar_29_1748,60.0132815643,FEMA4ImagesEEG,001,203271,
AFNE01.JPG,AFNE01.JPG,AFNE01.JPG,AFNE01.JPG,AFNE01.JPG,AFNE01.JPG,,,,,,,,,,,,,1,7,17,6,,,,,,,,,,,AMSA14.jpg,AMNE06.jpg,AMNE13.jpg,AMSA11.jpg,AMSA11.jpg,MS,2,num_4,16,num_4,0.76677802729,,,2018_Mar_29_1748,60.0132815643,FEMA4ImagesEEG,001,203271,
AFNE01.JPG,AFNE01.JPG,AFNE01.JPG,AFNE01.JPG,AFNE01.JPG,AFNE01.JPG,,,,,,,,,,,,,1,8,18,8,,,,,,,,,,,AMSA10.jpg,AMNE04.jpg,AMNE16.jpg,AMSA17.jpg,AMSA17.jpg,MS,2,num_4,16,num_4,1.11689468019,,,2018_Mar_29_1748,60.0132815643,FEMA4ImagesEEG,001,203271,
AFNE01.JPG,AFNE01.JPG,AFNE01.JPG,AFNE01.JPG,AFNE01.JPG,AFNE01.JPG,,,,,,,,,,,,,1,9,19,9,,,,,,,,,,,AMSA16.jpg,AMNE17.jpg,AMSA10.jpg,AMNE11.jpg,AMSA16.jpg,MS,2,num_8,16,num_8,0.716782485601,,,2018_Mar_29_1748,60.0132815643,FEMA4ImagesEEG,001,203271,
AFNE01.JPG,AFNE01.JPG,AFNE01.JPG,AFNE01.JPG,AFNE01.JPG,AFNE01.JPG,,,,,,,,,,,,,2,0,20,0,,,,,,,,,,,AMSA04.jpg,AMNE10.jpg,AMSA11.jpg,AMNE11.jpg,AMNE11.jpg,MN,1,num_4,16,num_4,1.00017127465,,,2018_Mar_29_1748,60.0132815643,FEMA4ImagesEEG,001,203271,
AFNE01.JPG,AFNE01.JPG,AFNE01.JPG,AFNE01.JPG,AFNE01.JPG,AFNE01.JPG,,,,,,,,,,,,,2,1,21,2,,,,,,,,,,,AMSA08.jpg,AMSA09.jpg,AMNE15.jpg,AMNE20.jpg,AMNE20.jpg,MN,1,num_4,32,num_2,1.18315715122,,,2018_Mar_29_1748,60.0132815643,FEMA4ImagesEEG,001,203271,
AFNE01.JPG,AFNE01.JPG,AFNE01.JPG,AFNE01.JPG,AFNE01.JPG,AFNE01.JPG,,,,,,,,,,,,,2,2,22,9,,,,,,,,,,,AMNE08.jpg,AMSA10.jpg,AMNE14.jpg,AMSA04.jpg,AMNE14.jpg,MN,1,num_2,32,num_4,0.783515801886,,,2018_Mar_29_1748,60.0132815643,FEMA4ImagesEEG,001,203271,
AFNE01.JPG,AFNE01.JPG,AFNE01.JPG,AFNE01.JPG,AFNE01.JPG,AFNE01.JPG,,,,,,,,,,,,,2,3,23,1,,,,,,,,,,,AMSA11.jpg,AMSA15.jpg,AMNE17.jpg,AMNE05.jpg,AMSA11.jpg,MS,2,num_8,16,num_8,1.2167789574,,,2018_Mar_29_1748,60.0132815643,FEMA4ImagesEEG,001,203271,
AFNE01.JPG,AFNE01.JPG,AFNE01.JPG,AFNE01.JPG,AFNE01.JPG,AFNE01.JPG,,,,,,,,,,,,,2,4,24,7,,,,,,,,,,,AMNE15.jpg,AMNE17.jpg,AMSA03.jpg,AMSA17.jpg,AMSA03.jpg,MS,2,num_2,16,num_2,0.750156681053,,,2018_Mar_29_1748,60.0132815643,FEMA4ImagesEEG,001,203271,
AFNE01.JPG,AFNE01.JPG,AFNE01.JPG,AFNE01.JPG,AFNE01.JPG,AFNE01.JPG,,,,,,,,,,,,,2,5,25,4,,,,,,,,,,,AMNE13.jpg,AMSA18.jpg,AMSA04.jpg,AMNE20.jpg,AMNE20.jpg,MN,1,num_4,32,num_8,0.866729659843,,,2018_Mar_29_1748,60.0132815643,FEMA4ImagesEEG,001,203271,
AFNE01.JPG,AFNE01.JPG,AFNE01.JPG,AFNE01.JPG,AFNE01.JPG,AFNE01.JPG,,,,,,,,,,,,,2,6,26,3,,,,,,,,,,,AMSA14.jpg,AMSA01.jpg,AMNE01.jpg,AMNE17.jpg,AMSA14.jpg,MS,2,num_8,32,num_2,1.05014244025,,,2018_Mar_29_1748,60.0132815643,FEMA4ImagesEEG,001,203271,
AFNE01.JPG,AFNE01.JPG,AFNE01.JPG,AFNE01.JPG,AFNE01.JPG,AFNE01.JPG,,,,,,,,,,,,,2,7,27,6,,,,,,,,,,,AMNE08.jpg,AMSA10.jpg,AMSA18.jpg,AMNE15.jpg,AMNE15.jpg,MN,1,num_4,32,num_8,1.30006401951,,,2018_Mar_29_1748,60.0132815643,FEMA4ImagesEEG,001,203271,
AFNE01.JPG,AFNE01.JPG,AFNE01.JPG,AFNE01.JPG,AFNE01.JPG,AFNE01.JPG,,,,,,,,,,,,,2,8,28,8,,,,,,,,,,,AMNE15.jpg,AMSA08.jpg,AMNE14.jpg,AMSA17.jpg,AMSA08.jpg,MS,2,num_6,32,num_2,0.816771644633,,,2018_Mar_29_1748,60.0132815643,FEMA4ImagesEEG,001,203271,
AFNE01.JPG,AFNE01.JPG,AFNE01.JPG,AFNE01.JPG,AFNE01.JPG,AFNE01.JPG,,,,,,,,,,,,,2,9,29,5,,,,,,,,,,,AMSA08.jpg,AMNE02.jpg,AMNE12.jpg,AMSA01.jpg,AMNE02.jpg,MN,1,num_6,32,num_4,1.06678912486,,,2018_Mar_29_1748,60.0132815643,FEMA4ImagesEEG,001,203271,
AFNE01.JPG,AFNE01.JPG,AFNE01.JPG,AFNE01.JPG,AFNE01.JPG,AFNE01.JPG,,,,,,,,,,,,,3,0,30,7,,,,,,,,,,,AMSA18.jpg,AMNE16.jpg,AMNE06.jpg,AMSA08.jpg,AMNE06.jpg,MN,1,num_2,16,num_2,0.683553905576,,,2018_Mar_29_1748,60.0132815643,FEMA4ImagesEEG,001,203271,
AFNE01.JPG,AFNE01.JPG,AFNE01.JPG,AFNE01.JPG,AFNE01.JPG,AFNE01.JPG,,,,,,,,,,,,,3,1,31,5,,,,,,,,,,,AMSA06.jpg,AMNE08.jpg,AMSA20.jpg,AMNE16.jpg,AMSA20.jpg,MS,2,num_2,16,num_2,0.783545630635,,,2018_Mar_29_1748,60.0132815643,FEMA4ImagesEEG,001,203271,
AFNE01.JPG,AFNE01.JPG,AFNE01.JPG,AFNE01.JPG,AFNE01.JPG,AFNE01.JPG,,,,,,,,,,,,,3,2,32,4,,,,,,,,,,,AMSA14.jpg,AMNE20.jpg,AMNE10.jpg,AMSA01.jpg,AMNE10.jpg,MN,1,num_2,32,num_6,0.800135544385,,,2018_Mar_29_1748,60.0132815643,FEMA4ImagesEEG,001,203271,
AFNE01.JPG,AFNE01.JPG,AFNE01.JPG,AFNE01.JPG,AFNE01.JPG,AFNE01.JPG,,,,,,,,,,,,,3,3,33,3,,,,,,,,,,,AMSA16.jpg,AMNE16.jpg,AMSA11.jpg,AMNE03.jpg,AMSA11.jpg,MS,2,num_2,32,num_4,0.933463617694,,,2018_Mar_29_1748,60.0132815643,FEMA4ImagesEEG,001,203271,
AFNE01.JPG,AFNE01.JPG,AFNE01.JPG,AFNE01.JPG,AFNE01.JPG,AFNE01.JPG,,,,,,,,,,,,,3,4,34,1,,,,,,,,,,,AMNE13.jpg,AMSA10.jpg,AMSA20.jpg,AMNE10.jpg,AMSA20.jpg,MS,2,num_2,32,num_8,0.966754741734,,,2018_Mar_29_1748,60.0132815643,FEMA4ImagesEEG,001,203271,
AFNE01.JPG,AFNE01.JPG,AFNE01.JPG,AFNE01.JPG,AFNE01.JPG,AFNE01.JPG,,,,,,,,,,,,,3,5,35,8,,,,,,,,,,,AMSA04.jpg,AMNE05.jpg,AMSA15.jpg,AMNE07.jpg,AMNE07.jpg,MN,1,num_4,32,num_2,1.01676599961,,,2018_Mar_29_1748,60.0132815643,FEMA4ImagesEEG,001,203271,
AFNE01.JPG,AFNE01.JPG,AFNE01.JPG,AFNE01.JPG,AFNE01.JPG,AFNE01.JPG,,,,,,,,,,,,,3,6,36,9,,,,,,,,,,,AMNE02.jpg,AMSA07.jpg,AMNE20.jpg,AMSA19.jpg,AMNE02.jpg,MN,1,num_8,16,num_8,0.616709292983,,,2018_Mar_29_1748,60.0132815643,FEMA4ImagesEEG,001,203271,
AFNE01.JPG,AFNE01.JPG,AFNE01.JPG,AFNE01.JPG,AFNE01.JPG,AFNE01.JPG,,,,,,,,,,,,,3,7,37,2,,,,,,,,,,,AMSA12.jpg,AMNE20.jpg,AMNE07.jpg,AMSA14.jpg,AMSA14.jpg,MS,2,num_4,16,num_4,0.766830949229,,,2018_Mar_29_1748,60.0132815643,FEMA4ImagesEEG,001,203271,
AFNE01.JPG,AFNE01.JPG,AFNE01.JPG,AFNE01.JPG,AFNE01.JPG,AFNE01.JPG,,,,,,,,,,,,,3,8,38,6,,,,,,,,,,,AMSA05.jpg,AMSA07.jpg,AMNE20.jpg,AMNE05.jpg,AMNE05.jpg,MN,1,num_4,32,num_8,0.883482188452,,,2018_Mar_29_1748,60.0132815643,FEMA4ImagesEEG,001,203271,
AFNE01.JPG,AFNE01.JPG,AFNE01.JPG,AFNE01.JPG,AFNE01.JPG,AFNE01.JPG,,,,,,,,,,,,,3,9,39,0,,,,,,,,,,,AMSA20.jpg,AMNE18.jpg,AMSA02.jpg,AMNE01.jpg,AMSA02.jpg,MS,2,num_2,32,num_4,0.866774242604,,,2018_Mar_29_1748,60.0132815643,FEMA4ImagesEEG,001,203271,
AFNE01.JPG,AFNE01.JPG,AFNE01.JPG,AFNE01.JPG,AFNE01.JPG,AFNE01.JPG,,,,,,,,,,,,,4,0,40,5,,,,,,,,,,,AMSA16.jpg,AMSA20.jpg,AMNE16.jpg,AMNE14.jpg,AMSA16.jpg,MS,2,num_8,32,num_2,0.933458165033,,,2018_Mar_29_1748,60.0132815643,FEMA4ImagesEEG,001,203271,
AFNE01.JPG,AFNE01.JPG,AFNE01.JPG,AFNE01.JPG,AFNE01.JPG,AFNE01.JPG,,,,,,,,,,,,,4,1,41,8,,,,,,,,,,,AMSA03.jpg,AMSA07.jpg,AMNE15.jpg,AMNE12.jpg,AMSA07.jpg,MS,2,num_6,16,num_6,0.983486742829,,,2018_Mar_29_1748,60.0132815643,FEMA4ImagesEEG,001,203271,
AFNE01.JPG,AFNE01.JPG,AFNE01.JPG,AFNE01.JPG,AFNE01.JPG,AFNE01.JPG,,,,,,,,,,,,,4,2,42,2,,,,,,,,,,,AMSA19.jpg,AMNE06.jpg,AMSA11.jpg,AMNE09.jpg,AMNE09.jpg,MN,1,num_4,32,num_8,0.816820076201,,,2018_Mar_29_1748,60.0132815643,FEMA4ImagesEEG,001,203271,
AFNE01.JPG,AFNE01.JPG,AFNE01.JPG,AFNE01.JPG,AFNE01.JPG,AFNE01.JPG,,,,,,,,,,,,,4,3,43,7,,,,,,,,,,,AMSA13.jpg,AMNE12.jpg,AMSA12.jpg,AMNE19.jpg,AMSA13.jpg,MS,2,num_8,32,num_4,0.833474779385,,,2018_Mar_29_1748,60.0132815643,FEMA4ImagesEEG,001,203271,
AFNE01.JPG,AFNE01.JPG,AFNE01.JPG,AFNE01.JPG,AFNE01.JPG,AFNE01.JPG,,,,,,,,,,,,,4,4,44,3,,,,,,,,,,,AMNE07.jpg,AMSA07.jpg,AMNE10.jpg,AMSA13.jpg,AMNE07.jpg,MN,1,num_8,16,num_8,1.93337798025,,,2018_Mar_29_1748,60.0132815643,FEMA4ImagesEEG,001,203271,
AFNE01.JPG,AFNE01.JPG,AFNE01.JPG,AFNE01.JPG,AFNE01.JPG,AFNE01.JPG,,,,,,,,,,,,,4,5,45,6,,,,,,,,,,,AMNE13.jpg,AMSA13.jpg,AMNE14.jpg,AMSA01.jpg,AMSA13.jpg,MS,2,num_6,32,num_8,1.13350800797,,,2018_Mar_29_1748,60.0132815643,FEMA4ImagesEEG,001,203271,
AFNE01.JPG,AFNE01.JPG,AFNE01.JPG,AFNE01.JPG,AFNE01.JPG,AFNE01.JPG,,,,,,,,,,,,,4,6,46,1,,,,,,,,,,,AMNE18.jpg,AMNE07.jpg,AMSA04.jpg,AMSA14.jpg,AMSA14.jpg,MS,2,num_4,16,num_4,0.700176534941,,,2018_Mar_29_1748,60.0132815643,FEMA4ImagesEEG,001,203271,
AFNE01.JPG,AFNE01.JPG,AFNE01.JPG,AFNE01.JPG,AFNE01.JPG,AFNE01.JPG,,,,,,,,,,,,,4,7,47,4,,,,,,,,,,,AMNE20.jpg,AMSA08.jpg,AMNE09.jpg,AMSA15.jpg,AMNE09.jpg,MN,1,num_2,32,num_4,1.13351153606,,,2018_Mar_29_1748,60.0132815643,FEMA4ImagesEEG,001,203271,
AFNE01.JPG,AFNE01.JPG,AFNE01.JPG,AFNE01.JPG,AFNE01.JPG,AFNE01.JPG,,,,,,,,,,,,,4,8,48,9,,,,,,,,,,,AMNE05.jpg,AMSA16.jpg,AMSA19.jpg,AMNE17.jpg,AMSA16.jpg,MS,2,num_6,32,num_2,0.783457748126,,,2018_Mar_29_1748,60.0132815643,FEMA4ImagesEEG,001,203271,
AFNE01.JPG,AFNE01.JPG,AFNE01.JPG,AFNE01.JPG,AFNE01.JPG,AFNE01.JPG,,,,,,,,,,,,,4,9,49,0,,,,,,,,,,,AMNE02.jpg,AMSA19.jpg,AMSA17.jpg,AMNE13.jpg,AMNE13.jpg,MN,1,num_4,32,num_8,0.916756313294,,,2018_Mar_29_1748,60.0132815643,FEMA4ImagesEEG,001,203271,
AFNE01.JPG,AFNE01.JPG,AFNE01.JPG,AFNE01.JPG,AFNE01.JPG,AFNE01.JPG,,,,,,,,,,,,,5,0,50,0,,,,,,,,,,,AMSA17.jpg,AMNE12.jpg,AMNE08.jpg,AMSA19.jpg,AMNE12.jpg,MN,1,num_6,32,num_4,1.56674871175,,,2018_Mar_29_1748,60.0132815643,FEMA4ImagesEEG,001,203271,
AFNE01.JPG,AFNE01.JPG,AFNE01.JPG,AFNE01.JPG,AFNE01.JPG,AFNE01.JPG,,,,,,,,,,,,,5,1,51,8,,,,,,,,,,,AMSA01.jpg,AMSA13.jpg,AMNE05.jpg,AMNE08.jpg,AMSA01.jpg,MS,2,num_8,16,num_8,0.633545213612,,,2018_Mar_29_1748,60.0132815643,FEMA4ImagesEEG,001,203271,
AFNE01.JPG,AFNE01.JPG,AFNE01.JPG,AFNE01.JPG,AFNE01.JPG,AFNE01.JPG,,,,,,,,,,,,,5,2,52,4,,,,,,,,,,,AMSA14.jpg,AMSA06.jpg,AMNE11.jpg,AMNE03.jpg,AMSA06.jpg,MS,2,num_6,16,num_6,0.750149304047,,,2018_Mar_29_1748,60.0132815643,FEMA4ImagesEEG,001,203271,
AFNE01.JPG,AFNE01.JPG,AFNE01.JPG,AFNE01.JPG,AFNE01.JPG,AFNE01.JPG,,,,,,,,,,,,,5,3,53,2,,,,,,,,,,,AMNE11.jpg,AMSA16.jpg,AMNE07.jpg,AMSA10.jpg,AMSA10.jpg,MS,2,num_4,32,num_2,1.00015331327,,,2018_Mar_29_1748,60.0132815643,FEMA4ImagesEEG,001,203271,
AFNE01.JPG,AFNE01.JPG,AFNE01.JPG,AFNE01.JPG,AFNE01.JPG,AFNE01.JPG,,,,,,,,,,,,,5,4,54,3,,,,,,,,,,,AMNE17.jpg,AMNE05.jpg,AMSA09.jpg,AMSA19.jpg,AMSA19.jpg,MS,2,num_4,16,num_4,0.9334382792,,,2018_Mar_29_1748,60.0132815643,FEMA4ImagesEEG,001,203271,
AFNE01.JPG,AFNE01.JPG,AFNE01.JPG,AFNE01.JPG,AFNE01.JPG,AFNE01.JPG,,,,,,,,,,,,,5,5,55,1,,,,,,,,,,,AMNE12.jpg,AMSA05.jpg,AMNE13.jpg,AMSA02.jpg,AMNE12.jpg,MN,1,num_8,32,num_6,0.650174899027,,,2018_Mar_29_1748,60.0132815643,FEMA4ImagesEEG,001,203271,
AFNE01.JPG,AFNE01.JPG,AFNE01.JPG,AFNE01.JPG,AFNE01.JPG,AFNE01.JPG,,,,,,,,,,,,,5,6,56,7,,,,,,,,,,,AMNE10.jpg,AMSA12.jpg,AMNE08.jpg,AMSA05.jpg,AMSA12.jpg,MS,2,num_6,32,num_8,0.750133587862,,,2018_Mar_29_1748,60.0132815643,FEMA4ImagesEEG,001,203271,
AFNE01.JPG,AFNE01.JPG,AFNE01.JPG,AFNE01.JPG,AFNE01.JPG,AFNE01.JPG,,,,,,,,,,,,,5,7,57,9,,,,,,,,,,,AMNE19.jpg,AMSA10.jpg,AMNE15.jpg,AMSA01.jpg,AMNE15.jpg,MN,1,num_2,16,num_2,0.850131727522,,,2018_Mar_29_1748,60.0132815643,FEMA4ImagesEEG,001,203271,
AFNE01.JPG,AFNE01.JPG,AFNE01.JPG,AFNE01.JPG,AFNE01.JPG,AFNE01.JPG,,,,,,,,,,,,,5,8,58,5,,,,,,,,,,,AMNE09.jpg,AMNE01.jpg,AMSA16.jpg,AMSA06.jpg,AMSA06.jpg,MS,2,num_4,32,num_8,0.716771901236,,,2018_Mar_29_1748,60.0132815643,FEMA4ImagesEEG,001,203271,
AFNE01.JPG,AFNE01.JPG,AFNE01.JPG,AFNE01.JPG,AFNE01.JPG,AFNE01.JPG,,,,,,,,,,,,,5,9,59,6,,,,,,,,,,,AMSA05.jpg,AMNE03.jpg,AMNE19.jpg,AMSA12.jpg,AMNE19.jpg,MN,1,num_2,32,num_6,0.616779855569,,,2018_Mar_29_1748,60.0132815643,FEMA4ImagesEEG,001,203271,
,,,,,,,,,,,,,,,,,,,,,,,,,,,,,,,,,,,,,,,,,,,space,50.3129336794,2018_Mar_29_1748,60.0132815643,FEMA4ImagesEEG,001,203271,
AFNE01.JPG,AFNE01.JPG,AFNE01.JPG,AFNE01.JPG,AFNE01.JPG,AFNE01.JPG,,,,,,,,,,,,,,,,,0,0,0,5,,,,,,,AFSA16.jpg,AFNE20.jpg,AFSA19.jpg,AFNE12.jpg,AFSA16.jpg,FS,4,num_8,32,num_6,0.833404216683,,,2018_Mar_29_1748,60.0132815643,FEMA4ImagesEEG,001,203271,
AFNE01.JPG,AFNE01.JPG,AFNE01.JPG,AFNE01.JPG,AFNE01.JPG,AFNE01.JPG,,,,,,,,,,,,,,,,,0,1,1,9,,,,,,,AFSA07.jpg,AFNE03.jpg,AFSA20.jpg,AFNE01.jpg,AFNE03.jpg,FN,3,num_6,32,num_4,0.933486710885,,,2018_Mar_29_1748,60.0132815643,FEMA4ImagesEEG,001,203271,
AFNE01.JPG,AFNE01.JPG,AFNE01.JPG,AFNE01.JPG,AFNE01.JPG,AFNE01.JPG,,,,,,,,,,,,,,,,,0,2,2,6,,,,,,,AFNE02.jpg,AFNE11.jpg,AFSA04.jpg,AFSA13.jpg,AFSA13.jpg,FS,4,num_4,16,num_4,0.966743515804,,,2018_Mar_29_1748,60.0132815643,FEMA4ImagesEEG,001,203271,
AFNE01.JPG,AFNE01.JPG,AFNE01.JPG,AFNE01.JPG,AFNE01.JPG,AFNE01.JPG,,,,,,,,,,,,,,,,,0,3,3,4,,,,,,,AFSA04.jpg,AFSA02.jpg,AFNE17.jpg,AFNE02.jpg,AFNE02.jpg,FN,3,num_4,32,num_2,0.883496621624,,,2018_Mar_29_1748,60.0132815643,FEMA4ImagesEEG,001,203271,
AFNE01.JPG,AFNE01.JPG,AFNE01.JPG,AFNE01.JPG,AFNE01.JPG,AFNE01.JPG,,,,,,,,,,,,,,,,,0,4,4,1,,,,,,,AFSA06.jpg,AFNE06.jpg,AFNE15.jpg,AFSA20.jpg,AFSA06.jpg,FS,4,num_8,32,num_4,0.883585466305,,,2018_Mar_29_1748,60.0132815643,FEMA4ImagesEEG,001,203271,
AFNE01.JPG,AFNE01.JPG,AFNE01.JPG,AFNE01.JPG,AFNE01.JPG,AFNE01.JPG,,,,,,,,,,,,,,,,,0,5,5,3,,,,,,,AFSA07.jpg,AFNE01.jpg,AFSA11.jpg,AFNE10.jpg,AFSA11.jpg,FS,4,num_2,32,num_8,0.750099589583,,,2018_Mar_29_1748,60.0132815643,FEMA4ImagesEEG,001,203271,
AFNE01.JPG,AFNE01.JPG,AFNE01.JPG,AFNE01.JPG,AFNE01.JPG,AFNE01.JPG,,,,,,,,,,,,,,,,,0,6,6,0,,,,,,,AFNE09.jpg,AFSA19.jpg,AFNE06.jpg,AFSA08.jpg,AFSA08.jpg,FS,4,num_4,32,num_6,0.816612557974,,,2018_Mar_29_1748,60.0132815643,FEMA4ImagesEEG,001,203271,
AFNE01.JPG,AFNE01.JPG,AFNE01.JPG,AFNE01.JPG,AFNE01.JPG,AFNE01.JPG,,,,,,,,,,,,,,,,,0,7,7,8,,,,,,,AFNE13.jpg,AFSA07.jpg,AFNE16.jpg,AFSA05.jpg,AFNE13.jpg,FN,3,num_8,32,num_4,0.883444982697,,,2018_Mar_29_1748,60.0132815643,FEMA4ImagesEEG,001,203271,
AFNE01.JPG,AFNE01.JPG,AFNE01.JPG,AFNE01.JPG,AFNE01.JPG,AFNE01.JPG,,,,,,,,,,,,,,,,,0,8,8,7,,,,,,,AFSA04.jpg,AFNE02.jpg,AFSA03.jpg,AFNE18.jpg,AFNE18.jpg,FN,3,num_4,32,num_8,0.800128167379,,,2018_Mar_29_1748,60.0132815643,FEMA4ImagesEEG,001,203271,
AFNE01.JPG,AFNE01.JPG,AFNE01.JPG,AFNE01.JPG,AFNE01.JPG,AFNE01.JPG,,,,,,,,,,,,,,,,,0,9,9,2,,,,,,,AFSA01.jpg,AFNE06.jpg,AFSA16.jpg,AFNE07.jpg,AFSA16.jpg,FS,4,num_2,32,num_6,0.916742842179,,,2018_Mar_29_1748,60.0132815643,FEMA4ImagesEEG,001,203271,
AFNE01.JPG,AFNE01.JPG,AFNE01.JPG,AFNE01.JPG,AFNE01.JPG,AFNE01.JPG,,,,,,,,,,,,,,,,,1,0,10,3,,,,,,,AFSA01.jpg,AFNE12.jpg,AFNE15.jpg,AFSA02.jpg,AFSA01.jpg,FS,4,num_8,32,num_4,0.766889644554,,,2018_Mar_29_1748,60.0132815643,FEMA4ImagesEEG,001,203271,
AFNE01.JPG,AFNE01.JPG,AFNE01.JPG,AFNE01.JPG,AFNE01.JPG,AFNE01.JPG,,,,,,,,,,,,,,,,,1,1,11,9,,,,,,,AFNE20.jpg,AFSA02.jpg,AFNE09.jpg,AFSA13.jpg,AFSA02.jpg,FS,4,num_6,16,num_6,0.683518303558,,,2018_Mar_29_1748,60.0132815643,FEMA4ImagesEEG,001,203271,
AFNE01.JPG,AFNE01.JPG,AFNE01.JPG,AFNE01.JPG,AFNE01.JPG,AFNE01.JPG,,,,,,,,,,,,,,,,,1,2,12,1,,,,,,,AFNE15.jpg,AFSA20.jpg,AFSA10.jpg,AFNE17.jpg,AFSA20.jpg,FS,4,num_6,16,num_6,1.06682825508,,,2018_Mar_29_1748,60.0132815643,FEMA4ImagesEEG,001,203271,
AFNE01.JPG,AFNE01.JPG,AFNE01.JPG,AFNE01.JPG,AFNE01.JPG,AFNE01.JPG,,,,,,,,,,,,,,,,,1,3,13,7,,,,,,,AFNE15.jpg,AFSA09.jpg,AFNE11.jpg,AFSA16.jpg,AFNE11.jpg,FN,3,num_2,16,num_2,0.900181474164,,,2018_Mar_29_1748,60.0132815643,FEMA4ImagesEEG,001,203271,
AFNE01.JPG,AFNE01.JPG,AFNE01.JPG,AFNE01.JPG,AFNE01.JPG,AFNE01.JPG,,,,,,,,,,,,,,,,,1,4,14,4,,,,,,,AFNE14.jpg,AFNE09.jpg,AFSA18.jpg,AFSA05.jpg,AFSA18.jpg,FS,4,num_2,32,num_4,0.983473592671,,,2018_Mar_29_1748,60.0132815643,FEMA4ImagesEEG,001,203271,
AFNE01.JPG,AFNE01.JPG,AFNE01.JPG,AFNE01.JPG,AFNE01.JPG,AFNE01.JPG,,,,,,,,,,,,,,,,,1,5,15,8,,,,,,,AFSA14.jpg,AFNE18.jpg,AFSA16.jpg,AFNE08.jpg,AFSA14.jpg,FS,4,num_8,16,num_8,1.05015462846,,,2018_Mar_29_1748,60.0132815643,FEMA4ImagesEEG,001,203271,
AFNE01.JPG,AFNE01.JPG,AFNE01.JPG,AFNE01.JPG,AFNE01.JPG,AFNE01.JPG,,,,,,,,,,,,,,,,,1,6,16,0,,,,,,,AFSA19.jpg,AFNE02.jpg,AFSA02.jpg,AFNE17.jpg,AFNE02.jpg,FN,3,num_6,32,num_8,0.866752753034,,,2018_Mar_29_1748,60.0132815643,FEMA4ImagesEEG,001,203271,
AFNE01.JPG,AFNE01.JPG,AFNE01.JPG,AFNE01.JPG,AFNE01.JPG,AFNE01.JPG,,,,,,,,,,,,,,,,,1,7,17,6,,,,,,,AFSA10.jpg,AFSA13.jpg,AFNE04.jpg,AFNE15.jpg,AFSA10.jpg,FS,4,num_8,32,num_4,0.750145775964,,,2018_Mar_29_1748,60.0132815643,FEMA4ImagesEEG,001,203271,
AFNE01.JPG,AFNE01.JPG,AFNE01.JPG,AFNE01.JPG,AFNE01.JPG,AFNE01.JPG,,,,,,,,,,,,,,,,,1,8,18,5,,,,,,,AFSA15.jpg,AFSA18.jpg,AFNE12.jpg,AFNE04.jpg,AFNE04.jpg,FN,3,num_4,32,num_2,0.733532769023,,,2018_Mar_29_1748,60.0132815643,FEMA4ImagesEEG,001,203271,
AFNE01.JPG,AFNE01.JPG,AFNE01.JPG,AFNE01.JPG,AFNE01.JPG,AFNE01.JPG,,,,,,,,,,,,,,,,,1,9,19,2,,,,,,,AFNE18.jpg,AFSA12.jpg,AFSA01.jpg,AFNE07.jpg,AFSA12.jpg,FS,4,num_6,16,num_6,0.716776391491,,,2018_Mar_29_1748,60.0132815643,FEMA4ImagesEEG,001,203271,
AFNE01.JPG,AFNE01.JPG,AFNE01.JPG,AFNE01.JPG,AFNE01.JPG,AFNE01.JPG,,,,,,,,,,,,,,,,,2,0,20,3,,,,,,,AFSA10.jpg,AFSA20.jpg,AFNE19.jpg,AFNE16.jpg,AFSA20.jpg,FS,4,num_6,32,num_4,1.16660957504,,,2018_Mar_29_1748,60.0132815643,FEMA4ImagesEEG,001,203271,
AFNE01.JPG,AFNE01.JPG,AFNE01.JPG,AFNE01.JPG,AFNE01.JPG,AFNE01.JPG,,,,,,,,,,,,,,,,,2,1,21,0,,,,,,,AFSA03.jpg,AFNE12.jpg,AFNE06.jpg,AFSA09.jpg,AFSA03.jpg,FS,4,num_8,32,num_4,1.0668115766,,,2018_Mar_29_1748,60.0132815643,FEMA4ImagesEEG,001,203271,
AFNE01.JPG,AFNE01.JPG,AFNE01.JPG,AFNE01.JPG,AFNE01.JPG,AFNE01.JPG,,,,,,,,,,,,,,,,,2,2,22,7,,,,,,,AFSA07.jpg,AFNE12.jpg,AFSA14.jpg,AFNE03.jpg,AFSA14.jpg,FS,4,num_2,16,num_2,0.883367042989,,,2018_Mar_29_1748,60.0132815643,FEMA4ImagesEEG,001,203271,
AFNE01.JPG,AFNE01.JPG,AFNE01.JPG,AFNE01.JPG,AFNE01.JPG,AFNE01.JPG,,,,,,,,,,,,,,,,,2,3,23,1,,,,,,,AFNE01.jpg,AFNE19.jpg,AFSA19.jpg,AFSA14.jpg,AFSA14.jpg,FS,4,num_4,32,num_8,0.833462270442,,,2018_Mar_29_1748,60.0132815643,FEMA4ImagesEEG,001,203271,
AFNE01.JPG,AFNE01.JPG,AFNE01.JPG,AFNE01.JPG,AFNE01.JPG,AFNE01.JPG,,,,,,,,,,,,,,,,,2,4,24,4,,,,,,,AFNE07.jpg,AFSA19.jpg,AFNE12.jpg,AFSA20.jpg,AFSA19.jpg,FS,4,num_6,16,num_6,0.66684082814,,,2018_Mar_29_1748,60.0132815643,FEMA4ImagesEEG,001,203271,
AFNE01.JPG,AFNE01.JPG,AFNE01.JPG,AFNE01.JPG,AFNE01.JPG,AFNE01.JPG,,,,,,,,,,,,,,,,,2,5,25,6,,,,,,,AFSA03.jpg,AFNE10.jpg,AFSA18.jpg,AFNE18.jpg,AFSA18.jpg,FS,4,num_2,32,num_8,0.666854940588,,,2018_Mar_29_1748,60.0132815643,FEMA4ImagesEEG,001,203271,
AFNE01.JPG,AFNE01.JPG,AFNE01.JPG,AFNE01.JPG,AFNE01.JPG,AFNE01.JPG,,,,,,,,,,,,,,,,,2,6,26,9,,,,,,,AFNE07.jpg,AFSA15.jpg,AFSA20.jpg,AFNE09.jpg,AFNE07.jpg,FN,3,num_8,32,num_6,0.800186862587,,,2018_Mar_29_1748,60.0132815643,FEMA4ImagesEEG,001,203271,
AFNE01.JPG,AFNE01.JPG,AFNE01.JPG,AFNE01.JPG,AFNE01.JPG,AFNE01.JPG,,,,,,,,,,,,,,,,,2,7,27,2,,,,,,,AFNE18.jpg,AFSA18.jpg,AFSA17.jpg,AFNE17.jpg,AFNE18.jpg,FN,3,num_8,16,num_8,0.983496365021,,,2018_Mar_29_1748,60.0132815643,FEMA4ImagesEEG,001,203271,
AFNE01.JPG,AFNE01.JPG,AFNE01.JPG,AFNE01.JPG,AFNE01.JPG,AFNE01.JPG,,,,,,,,,,,,,,,,,2,8,28,8,,,,,,,AFSA03.jpg,AFNE07.jpg,AFSA02.jpg,AFNE03.jpg,AFSA03.jpg,FS,4,num_8,32,num_2,1.31671070412,,,2018_Mar_29_1748,60.0132815643,FEMA4ImagesEEG,001,203271,
AFNE01.JPG,AFNE01.JPG,AFNE01.JPG,AFNE01.JPG,AFNE01.JPG,AFNE01.JPG,,,,,,,,,,,,,,,,,2,9,29,5,,,,,,,AFNE12.jpg,AFSA19.jpg,AFSA16.jpg,AFNE08.jpg,AFNE08.jpg,FN,3,num_4,32,num_8,0.966757948976,,,2018_Mar_29_1748,60.0132815643,FEMA4ImagesEEG,001,203271,
AFNE01.JPG,AFNE01.JPG,AFNE01.JPG,AFNE01.JPG,AFNE01.JPG,AFNE01.JPG,,,,,,,,,,,,,,,,,3,0,30,5,,,,,,,AFSA05.jpg,AFNE19.jpg,AFSA19.jpg,AFNE04.jpg,AFNE19.jpg,FN,3,num_6,16,num_6,0.766799196135,,,2018_Mar_29_1748,60.0132815643,FEMA4ImagesEEG,001,203271,
AFNE01.JPG,AFNE01.JPG,AFNE01.JPG,AFNE01.JPG,AFNE01.JPG,AFNE01.JPG,,,,,,,,,,,,,,,,,3,1,31,2,,,,,,,AFSA11.jpg,AFNE01.jpg,AFNE06.jpg,AFSA15.jpg,AFSA15.jpg,FS,4,num_4,16,num_4,0.933580687502,,,2018_Mar_29_1748,60.0132815643,FEMA4ImagesEEG,001,203271,
AFNE01.JPG,AFNE01.JPG,AFNE01.JPG,AFNE01.JPG,AFNE01.JPG,AFNE01.JPG,,,,,,,,,,,,,,,,,3,2,32,1,,,,,,,AFNE08.jpg,AFSA11.jpg,AFNE02.jpg,AFSA09.jpg,AFSA09.jpg,FS,4,num_4,32,num_2,0.950069247629,,,2018_Mar_29_1748,60.0132815643,FEMA4ImagesEEG,001,203271,
AFNE01.JPG,AFNE01.JPG,AFNE01.JPG,AFNE01.JPG,AFNE01.JPG,AFNE01.JPG,,,,,,,,,,,,,,,,,3,3,33,4,,,,,,,AFNE17.jpg,AFSA17.jpg,AFNE13.jpg,AFSA13.jpg,AFNE13.jpg,FN,3,num_2,32,num_8,1.23343654722,,,2018_Mar_29_1748,60.0132815643,FEMA4ImagesEEG,001,203271,
AFNE01.JPG,AFNE01.JPG,AFNE01.JPG,AFNE01.JPG,AFNE01.JPG,AFNE01.JPG,,,,,,,,,,,,,,,,,3,4,34,3,,,,,,,AFSA05.jpg,AFSA07.jpg,AFNE06.jpg,AFNE05.jpg,AFNE06.jpg,FN,3,num_2,16,num_2,1.23347696033,,,2018_Mar_29_1748,60.0132815643,FEMA4ImagesEEG,001,203271,
AFNE01.JPG,AFNE01.JPG,AFNE01.JPG,AFNE01.JPG,AFNE01.JPG,AFNE01.JPG,,,,,,,,,,,,,,,,,3,5,35,0,,,,,,,AFNE06.jpg,AFSA19.jpg,AFSA18.jpg,AFNE16.jpg,AFSA18.jpg,FS,4,num_2,32,num_6,1.10010654957,,,2018_Mar_29_1748,60.0132815643,FEMA4ImagesEEG,001,203271,
AFNE01.JPG,AFNE01.JPG,AFNE01.JPG,AFNE01.JPG,AFNE01.JPG,AFNE01.JPG,,,,,,,,,,,,,,,,,3,6,36,8,,,,,,,AFSA13.jpg,AFNE20.jpg,AFSA15.jpg,AFNE07.jpg,AFNE20.jpg,FN,3,num_6,32,num_2,1.0000926936,,,2018_Mar_29_1748,60.0132815643,FEMA4ImagesEEG,001,203271,
AFNE01.JPG,AFNE01.JPG,AFNE01.JPG,AFNE01.JPG,AFNE01.JPG,AFNE01.JPG,,,,,,,,,,,,,,,,,3,7,37,9,,,,,,,AFNE01.jpg,AFSA14.jpg,AFNE17.jpg,AFSA09.jpg,AFNE17.jpg,FN,3,num_2,32,num_6,0.933419355541,,,2018_Mar_29_1748,60.0132815643,FEMA4ImagesEEG,001,203271,
AFNE01.JPG,AFNE01.JPG,AFNE01.JPG,AFNE01.JPG,AFNE01.JPG,AFNE01.JPG,,,,,,,,,,,,,,,,,3,8,38,6,,,,,,,AFNE14.jpg,AFSA19.jpg,AFNE05.jpg,AFSA10.jpg,AFSA19.jpg,FS,4,num_6,16,num_6,0.666743964888,,,2018_Mar_29_1748,60.0132815643,FEMA4ImagesEEG,001,203271,
AFNE01.JPG,AFNE01.JPG,AFNE01.JPG,AFNE01.JPG,AFNE01.JPG,AFNE01.JPG,,,,,,,,,,,,,,,,,3,9,39,7,,,,,,,AFSA01.jpg,AFSA16.jpg,AFNE12.jpg,AFNE03.jpg,AFSA16.jpg,FS,4,num_6,32,num_4,0.900188209722,,,2018_Mar_29_1748,60.0132815643,FEMA4ImagesEEG,001,203271,
AFNE01.JPG,AFNE01.JPG,AFNE01.JPG,AFNE01.JPG,AFNE01.JPG,AFNE01.JPG,,,,,,,,,,,,,,,,,4,0,40,2,,,,,,,AFSA08.jpg,AFNE14.jpg,AFSA18.jpg,AFNE05.jpg,AFSA18.jpg,FS,4,num_2,32,num_4,0.766762631829,,,2018_Mar_29_1748,60.0132815643,FEMA4ImagesEEG,001,203271,
AFNE01.JPG,AFNE01.JPG,AFNE01.JPG,AFNE01.JPG,AFNE01.JPG,AFNE01.JPG,,,,,,,,,,,,,,,,,4,1,41,8,,,,,,,AFSA09.jpg,AFNE08.jpg,AFNE05.jpg,AFSA10.jpg,AFNE05.jpg,FN,3,num_2,32,num_6,0.683428496588,,,2018_Mar_29_1748,60.0132815643,FEMA4ImagesEEG,001,203271,
AFNE01.JPG,AFNE01.JPG,AFNE01.JPG,AFNE01.JPG,AFNE01.JPG,AFNE01.JPG,,,,,,,,,,,,,,,,,4,2,42,0,,,,,,,AFNE08.jpg,AFSA10.jpg,AFSA09.jpg,AFNE02.jpg,AFSA09.jpg,FS,4,num_2,32,num_8,0.650149881491,,,2018_Mar_29_1748,60.0132815643,FEMA4ImagesEEG,001,203271,
AFNE01.JPG,AFNE01.JPG,AFNE01.JPG,AFNE01.JPG,AFNE01.JPG,AFNE01.JPG,,,,,,,,,,,,,,,,,4,3,43,4,,,,,,,AFSA01.jpg,AFNE15.jpg,AFSA03.jpg,AFNE09.jpg,AFSA01.jpg,FS,4,num_8,16,num_8,0.666768661817,,,2018_Mar_29_1748,60.0132815643,FEMA4ImagesEEG,001,203271,
AFNE01.JPG,AFNE01.JPG,AFNE01.JPG,AFNE01.JPG,AFNE01.JPG,AFNE01.JPG,,,,,,,,,,,,,,,,,4,4,44,3,,,,,,,AFSA04.jpg,AFSA08.jpg,AFNE18.jpg,AFNE03.jpg,AFNE03.jpg,FN,3,num_4,32,num_2,0.900156777352,,,2018_Mar_29_1748,60.0132815643,FEMA4ImagesEEG,001,203271,
AFNE01.JPG,AFNE01.JPG,AFNE01.JPG,AFNE01.JPG,AFNE01.JPG,AFNE01.JPG,,,,,,,,,,,,,,,,,4,5,45,7,,,,,,,AFNE09.jpg,AFSA19.jpg,AFNE01.jpg,AFSA20.jpg,AFNE09.jpg,FN,3,num_8,32,num_4,0.699993071961,,,2018_Mar_29_1748,60.0132815643,FEMA4ImagesEEG,001,203271,
AFNE01.JPG,AFNE01.JPG,AFNE01.JPG,AFNE01.JPG,AFNE01.JPG,AFNE01.JPG,,,,,,,,,,,,,,,,,4,6,46,9,,,,,,,AFSA10.jpg,AFNE19.jpg,AFNE01.jpg,AFSA20.jpg,AFSA10.jpg,FS,4,num_8,16,num_8,0.766745311907,,,2018_Mar_29_1748,60.0132815643,FEMA4ImagesEEG,001,203271,
AFNE01.JPG,AFNE01.JPG,AFNE01.JPG,AFNE01.JPG,AFNE01.JPG,AFNE01.JPG,,,,,,,,,,,,,,,,,4,7,47,6,,,,,,,AFNE20.jpg,AFSA04.jpg,AFNE06.jpg,AFSA06.jpg,AFSA04.jpg,FS,4,num_6,16,num_6,0.66690112697,,,2018_Mar_29_1748,60.0132815643,FEMA4ImagesEEG,001,203271,
AFNE01.JPG,AFNE01.JPG,AFNE01.JPG,AFNE01.JPG,AFNE01.JPG,AFNE01.JPG,,,,,,,,,,,,,,,,,4,8,48,1,,,,,,,AFNE05.jpg,AFSA02.jpg,AFNE13.jpg,AFSA15.jpg,AFSA15.jpg,FS,4,num_4,16,num_4,0.816757532069,,,2018_Mar_29_1748,60.0132815643,FEMA4ImagesEEG,001,203271,
AFNE01.JPG,AFNE01.JPG,AFNE01.JPG,AFNE01.JPG,AFNE01.JPG,AFNE01.JPG,,,,,,,,,,,,,,,,,4,9,49,5,,,,,,,AFNE15.jpg,AFSA17.jpg,AFNE14.jpg,AFSA16.jpg,AFSA16.jpg,FS,4,num_4,16,num_4,0.750117871678,,,2018_Mar_29_1748,60.0132815643,FEMA4ImagesEEG,001,203271,
AFNE01.JPG,AFNE01.JPG,AFNE01.JPG,AFNE01.JPG,AFNE01.JPG,AFNE01.JPG,,,,,,,,,,,,,,,,,5,0,50,8,,,,,,,AFSA08.jpg,AFSA07.jpg,AFNE12.jpg,AFNE15.jpg,AFSA07.jpg,FS,4,num_6,32,num_2,1.78335960198,,,2018_Mar_29_1748,60.0132815643,FEMA4ImagesEEG,001,203271,
AFNE01.JPG,AFNE01.JPG,AFNE01.JPG,AFNE01.JPG,AFNE01.JPG,AFNE01.JPG,,,,,,,,,,,,,,,,,5,1,51,4,,,,,,,AFNE03.jpg,AFNE15.jpg,AFSA05.jpg,AFSA01.jpg,AFNE03.jpg,FN,3,num_8,32,num_4,0.933397865971,,,2018_Mar_29_1748,60.0132815643,FEMA4ImagesEEG,001,203271,
AFNE01.JPG,AFNE01.JPG,AFNE01.JPG,AFNE01.JPG,AFNE01.JPG,AFNE01.JPG,,,,,,,,,,,,,,,,,5,2,52,1,,,,,,,AFNE01.jpg,AFSA03.jpg,AFSA20.jpg,AFNE03.jpg,AFNE03.jpg,FN,3,num_4,16,num_4,0.716888971045,,,2018_Mar_29_1748,60.0132815643,FEMA4ImagesEEG,001,203271,
AFNE01.JPG,AFNE01.JPG,AFNE01.JPG,AFNE01.JPG,AFNE01.JPG,AFNE01.JPG,,,,,,,,,,,,,,,,,5,3,53,0,,,,,,,AFSA13.jpg,AFSA17.jpg,AFNE15.jpg,AFNE03.jpg,AFNE03.jpg,FN,3,num_4,16,num_4,0.750117230229,,,2018_Mar_29_1748,60.0132815643,FEMA4ImagesEEG,001,203271,
AFNE01.JPG,AFNE01.JPG,AFNE01.JPG,AFNE01.JPG,AFNE01.JPG,AFNE01.JPG,,,,,,,,,,,,,,,,,5,4,54,3,,,,,,,AFNE19.jpg,AFNE01.jpg,AFSA09.jpg,AFSA15.jpg,AFNE01.jpg,FN,3,num_6,16,num_6,0.683416308602,,,2018_Mar_29_1748,60.0132815643,FEMA4ImagesEEG,001,203271,
AFNE01.JPG,AFNE01.JPG,AFNE01.JPG,AFNE01.JPG,AFNE01.JPG,AFNE01.JPG,,,,,,,,,,,,,,,,,5,5,55,2,,,,,,,AFNE20.jpg,AFNE05.jpg,AFSA18.jpg,AFSA15.jpg,AFNE05.jpg,FN,3,num_6,32,num_8,0.683461532812,,,2018_Mar_29_1748,60.0132815643,FEMA4ImagesEEG,001,203271,
AFNE01.JPG,AFNE01.JPG,AFNE01.JPG,AFNE01.JPG,AFNE01.JPG,AFNE01.JPG,,,,,,,,,,,,,,,,,5,6,56,5,,,,,,,AFNE17.jpg,AFNE16.jpg,AFSA10.jpg,AFSA01.jpg,AFSA01.jpg,FS,4,num_4,16,num_4,0.750178812072,,,2018_Mar_29_1748,60.0132815643,FEMA4ImagesEEG,001,203271,
AFNE01.JPG,AFNE01.JPG,AFNE01.JPG,AFNE01.JPG,AFNE01.JPG,AFNE01.JPG,,,,,,,,,,,,,,,,,5,7,57,7,,,,,,,AFSA15.jpg,AFNE10.jpg,AFNE08.jpg,AFSA05.jpg,AFNE10.jpg,FN,3,num_6,32,num_8,0.866757884971,,,2018_Mar_29_1748,60.0132815643,FEMA4ImagesEEG,001,203271,
AFNE01.JPG,AFNE01.JPG,AFNE01.JPG,AFNE01.JPG,AFNE01.JPG,AFNE01.JPG,,,,,,,,,,,,,,,,,5,8,58,9,,,,,,,AFNE12.jpg,AFSA03.jpg,AFSA02.jpg,AFNE07.jpg,AFSA03.jpg,FS,4,num_6,16,num_6,0.600055231364,,,2018_Mar_29_1748,60.0132815643,FEMA4ImagesEEG,001,203271,
AFNE01.JPG,AFNE01.JPG,AFNE01.JPG,AFNE01.JPG,AFNE01.JPG,AFNE01.JPG,,,,,,,,,,,,,,,,,5,9,59,6,,,,,,,AFNE06.jpg,AFNE17.jpg,AFSA19.jpg,AFSA02.jpg,AFSA19.jpg,FS,4,num_2,16,num_2,0.816763946903,,,2018_Mar_29_1748,60.0132815643,FEMA4ImagesEEG,001,203271,
,,,,,,,,,,,,,,,,,,,,,,,,,,,,,,,,,,,,,,,,,,,space,13.2157987785,2018_Mar_29_1748,60.0132815643,FEMA4ImagesEEG,001,203271,
AFNE01.JPG,AFNE01.JPG,AFNE01.JPG,AFNE01.JPG,AFNE01.JPG,AFNE01.JPG,,,,,,,,,,,,,,,,,,,,,0,0,0,8,,,AMSA09.jpg,AMNE08.jpg,AMNE05.jpg,AMSA12.jpg,AMSA12.jpg,MS,2,num_4,32,num_8,0.716804295895,,,2018_Mar_29_1748,60.0132815643,FEMA4ImagesEEG,001,203271,
AFNE01.JPG,AFNE01.JPG,AFNE01.JPG,AFNE01.JPG,AFNE01.JPG,AFNE01.JPG,,,,,,,,,,,,,,,,,,,,,0,1,1,3,,,AMNE18.jpg,AMSA08.jpg,AMSA11.jpg,AMNE08.jpg,AMNE08.jpg,MN,1,num_4,32,num_6,0.633483311045,,,2018_Mar_29_1748,60.0132815643,FEMA4ImagesEEG,001,203271,
AFNE01.JPG,AFNE01.JPG,AFNE01.JPG,AFNE01.JPG,AFNE01.JPG,AFNE01.JPG,,,,,,,,,,,,,,,,,,,,,0,2,2,0,,,AMNE12.jpg,AMSA05.jpg,AMSA20.jpg,AMNE08.jpg,AMSA20.jpg,MS,2,num_2,16,num_2,1.10006357043,,,2018_Mar_29_1748,60.0132815643,FEMA4ImagesEEG,001,203271,
AFNE01.JPG,AFNE01.JPG,AFNE01.JPG,AFNE01.JPG,AFNE01.JPG,AFNE01.JPG,,,,,,,,,,,,,,,,,,,,,0,3,3,9,,,AMNE20.jpg,AMSA09.jpg,AMSA11.jpg,AMNE12.jpg,AMNE20.jpg,MN,1,num_8,16,num_8,0.816762343165,,,2018_Mar_29_1748,60.0132815643,FEMA4ImagesEEG,001,203271,
AFNE01.JPG,AFNE01.JPG,AFNE01.JPG,AFNE01.JPG,AFNE01.JPG,AFNE01.JPG,,,,,,,,,,,,,,,,,,,,,0,4,4,2,,,AMNE06.jpg,AMNE16.jpg,AMSA12.jpg,AMSA11.jpg,AMSA12.jpg,MS,2,num_2,32,num_6,0.666981311864,,,2018_Mar_29_1748,60.0132815643,FEMA4ImagesEEG,001,203271,
AFNE01.JPG,AFNE01.JPG,AFNE01.JPG,AFNE01.JPG,AFNE01.JPG,AFNE01.JPG,,,,,,,,,,,,,,,,,,,,,0,5,5,6,,,AMNE14.jpg,AMSA10.jpg,AMNE20.jpg,AMSA04.jpg,AMNE20.jpg,MN,1,num_2,16,num_2,0.716817125329,,,2018_Mar_29_1748,60.0132815643,FEMA4ImagesEEG,001,203271,
AFNE01.JPG,AFNE01.JPG,AFNE01.JPG,AFNE01.JPG,AFNE01.JPG,AFNE01.JPG,,,,,,,,,,,,,,,,,,,,,0,6,6,4,,,AMNE08.jpg,AMSA12.jpg,AMSA07.jpg,AMNE01.jpg,AMNE08.jpg,MN,1,num_8,16,num_8,0.916690240963,,,2018_Mar_29_1748,60.0132815643,FEMA4ImagesEEG,001,203271,
AFNE01.JPG,AFNE01.JPG,AFNE01.JPG,AFNE01.JPG,AFNE01.JPG,AFNE01.JPG,,,,,,,,,,,,,,,,,,,,,0,7,7,1,,,AMNE03.jpg,AMSA01.jpg,AMSA10.jpg,AMNE09.jpg,AMNE03.jpg,MN,1,num_8,32,num_6,0.866876879125,,,2018_Mar_29_1748,60.0132815643,FEMA4ImagesEEG,001,203271,
AFNE01.JPG,AFNE01.JPG,AFNE01.JPG,AFNE01.JPG,AFNE01.JPG,AFNE01.JPG,,,,,,,,,,,,,,,,,,,,,0,8,8,7,,,AMNE16.jpg,AMSA06.jpg,AMSA03.jpg,AMNE07.jpg,AMNE16.jpg,MN,1,num_8,32,num_6,1.41678389686,,,2018_Mar_29_1748,60.0132815643,FEMA4ImagesEEG,001,203271,
AFNE01.JPG,AFNE01.JPG,AFNE01.JPG,AFNE01.JPG,AFNE01.JPG,AFNE01.JPG,,,,,,,,,,,,,,,,,,,,,0,9,9,5,,,AMSA09.jpg,AMSA14.jpg,AMNE07.jpg,AMNE05.jpg,AMNE07.jpg,MN,1,num_2,32,num_8,1.06677661615,,,2018_Mar_29_1748,60.0132815643,FEMA4ImagesEEG,001,203271,
AFNE01.JPG,AFNE01.JPG,AFNE01.JPG,AFNE01.JPG,AFNE01.JPG,AFNE01.JPG,,,,,,,,,,,,,,,,,,,,,1,0,10,3,,,AMNE01.jpg,AMNE08.jpg,AMSA16.jpg,AMSA08.jpg,AMSA08.jpg,MS,2,num_4,32,num_8,1.76676872582,,,2018_Mar_29_1748,60.0132815643,FEMA4ImagesEEG,001,203271,
AFNE01.JPG,AFNE01.JPG,AFNE01.JPG,AFNE01.JPG,AFNE01.JPG,AFNE01.JPG,,,,,,,,,,,,,,,,,,,,,1,1,11,4,,,AMSA06.jpg,AMNE15.jpg,AMNE16.jpg,AMSA16.jpg,AMNE16.jpg,MN,1,num_2,32,num_4,0.833518079133,,,2018_Mar_29_1748,60.0132815643,FEMA4ImagesEEG,001,203271,
AFNE01.JPG,AFNE01.JPG,AFNE01.JPG,AFNE01.JPG,AFNE01.JPG,AFNE01.JPG,,,,,,,,,,,,,,,,,,,,,1,2,12,7,,,AMNE19.jpg,AMSA18.jpg,AMNE10.jpg,AMSA15.jpg,AMSA18.jpg,MS,2,num_6,32,num_4,0.55019696604,,,2018_Mar_29_1748,60.0132815643,FEMA4ImagesEEG,001,203271,
AFNE01.JPG,AFNE01.JPG,AFNE01.JPG,AFNE01.JPG,AFNE01.JPG,AFNE01.JPG,,,,,,,,,,,,,,,,,,,,,1,3,13,2,,,AMNE08.jpg,AMNE14.jpg,AMSA06.jpg,AMSA16.jpg,AMSA06.jpg,MS,2,num_2,32,num_4,0.783488859772,,,2018_Mar_29_1748,60.0132815643,FEMA4ImagesEEG,001,203271,
AFNE01.JPG,AFNE01.JPG,AFNE01.JPG,AFNE01.JPG,AFNE01.JPG,AFNE01.JPG,,,,,,,,,,,,,,,,,,,,,1,4,14,1,,,AMNE01.jpg,AMNE17.jpg,AMSA01.jpg,AMSA03.jpg,AMNE01.jpg,MN,1,num_8,32,num_2,0.816752400249,,,2018_Mar_29_1748,60.0132815643,FEMA4ImagesEEG,001,203271,
AFNE01.JPG,AFNE01.JPG,AFNE01.JPG,AFNE01.JPG,AFNE01.JPG,AFNE01.JPG,,,,,,,,,,,,,,,,,,,,,1,5,15,6,,,AMSA14.jpg,AMSA07.jpg,AMNE14.jpg,AMNE18.jpg,AMNE14.jpg,MN,1,num_2,16,num_2,0.733448735322,,,2018_Mar_29_1748,60.0132815643,FEMA4ImagesEEG,001,203271,
AFNE01.JPG,AFNE01.JPG,AFNE01.JPG,AFNE01.JPG,AFNE01.JPG,AFNE01.JPG,,,,,,,,,,,,,,,,,,,,,1,6,16,9,,,AMSA15.jpg,AMNE10.jpg,AMSA12.jpg,AMNE15.jpg,AMSA12.jpg,MS,2,num_2,32,num_8,0.71665322769,,,2018_Mar_29_1748,60.0132815643,FEMA4ImagesEEG,001,203271,
AFNE01.JPG,AFNE01.JPG,AFNE01.JPG,AFNE01.JPG,AFNE01.JPG,AFNE01.JPG,,,,,,,,,,,,,,,,,,,,,1,7,17,8,,,AMSA09.jpg,AMSA13.jpg,AMNE07.jpg,AMNE14.jpg,AMSA13.jpg,MS,2,num_6,16,num_6,0.683511888841,,,2018_Mar_29_1748,60.0132815643,FEMA4ImagesEEG,001,203271,
AFNE01.JPG,AFNE01.JPG,AFNE01.JPG,AFNE01.JPG,AFNE01.JPG,AFNE01.JPG,,,,,,,,,,,,,,,,,,,,,1,8,18,0,,,AMNE06.jpg,AMNE18.jpg,AMSA15.jpg,AMSA04.jpg,AMNE18.jpg,MN,1,num_6,16,num_6,0.883454925497,,,2018_Mar_29_1748,60.0132815643,FEMA4ImagesEEG,001,203271,
AFNE01.JPG,AFNE01.JPG,AFNE01.JPG,AFNE01.JPG,AFNE01.JPG,AFNE01.JPG,,,,,,,,,,,,,,,,,,,,,1,9,19,5,,,AMSA13.jpg,AMNE14.jpg,AMNE16.jpg,AMSA10.jpg,AMSA13.jpg,MS,2,num_8,32,num_2,0.616758365999,,,2018_Mar_29_1748,60.0132815643,FEMA4ImagesEEG,001,203271,
AFNE01.JPG,AFNE01.JPG,AFNE01.JPG,AFNE01.JPG,AFNE01.JPG,AFNE01.JPG,,,,,,,,,,,,,,,,,,,,,2,0,20,8,,,AMNE07.jpg,AMSA05.jpg,AMSA08.jpg,AMNE08.jpg,AMSA05.jpg,MS,2,num_6,32,num_4,0.700169157819,,,2018_Mar_29_1748,60.0132815643,FEMA4ImagesEEG,001,203271,
AFNE01.JPG,AFNE01.JPG,AFNE01.JPG,AFNE01.JPG,AFNE01.JPG,AFNE01.JPG,,,,,,,,,,,,,,,,,,,,,2,1,21,4,,,AMNE04.jpg,AMSA14.jpg,AMSA19.jpg,AMNE15.jpg,AMSA14.jpg,MS,2,num_6,16,num_6,0.850116011454,,,2018_Mar_29_1748,60.0132815643,FEMA4ImagesEEG,001,203271,
AFNE01.JPG,AFNE01.JPG,AFNE01.JPG,AFNE01.JPG,AFNE01.JPG,AFNE01.JPG,,,,,,,,,,,,,,,,,,,,,2,2,22,7,,,AMSA04.jpg,AMNE13.jpg,AMSA19.jpg,AMNE10.jpg,AMNE13.jpg,MN,1,num_6,32,num_4,0.850110558793,,,2018_Mar_29_1748,60.0132815643,FEMA4ImagesEEG,001,203271,
AFNE01.JPG,AFNE01.JPG,AFNE01.JPG,AFNE01.JPG,AFNE01.JPG,AFNE01.JPG,,,,,,,,,,,,,,,,,,,,,2,3,23,0,,,AMNE19.jpg,AMNE02.jpg,AMSA04.jpg,AMSA20.jpg,AMNE19.jpg,MN,1,num_8,16,num_8,0.816757211345,,,2018_Mar_29_1748,60.0132815643,FEMA4ImagesEEG,001,203271,
AFNE01.JPG,AFNE01.JPG,AFNE01.JPG,AFNE01.JPG,AFNE01.JPG,AFNE01.JPG,,,,,,,,,,,,,,,,,,,,,2,4,24,5,,,AMNE01.jpg,AMSA20.jpg,AMSA05.jpg,AMNE14.jpg,AMSA20.jpg,MS,2,num_6,16,num_6,1.38343087013,,,2018_Mar_29_1748,60.0132815643,FEMA4ImagesEEG,001,203271,
AFNE01.JPG,AFNE01.JPG,AFNE01.JPG,AFNE01.JPG,AFNE01.JPG,AFNE01.JPG,,,,,,,,,,,,,,,,,,,,,2,5,25,3,,,AMSA04.jpg,AMSA14.jpg,AMNE08.jpg,AMNE20.jpg,AMNE08.jpg,MN,1,num_2,32,num_4,1.00014240819,,,2018_Mar_29_1748,60.0132815643,FEMA4ImagesEEG,001,203271,
AFNE01.JPG,AFNE01.JPG,AFNE01.JPG,AFNE01.JPG,AFNE01.JPG,AFNE01.JPG,,,,,,,,,,,,,,,,,,,,,2,6,26,9,,,AMNE07.jpg,AMNE18.jpg,AMSA20.jpg,AMSA03.jpg,AMNE18.jpg,MN,1,num_6,16,num_6,0.883450755966,,,2018_Mar_29_1748,60.0132815643,FEMA4ImagesEEG,001,203271,
AFNE01.JPG,AFNE01.JPG,AFNE01.JPG,AFNE01.JPG,AFNE01.JPG,AFNE01.JPG,,,,,,,,,,,,,,,,,,,,,2,7,27,6,,,AMNE20.jpg,AMNE03.jpg,AMSA08.jpg,AMSA17.jpg,AMSA17.jpg,MS,2,num_4,32,num_8,0.933495050063,,,2018_Mar_29_1748,60.0132815643,FEMA4ImagesEEG,001,203271,
AFNE01.JPG,AFNE01.JPG,AFNE01.JPG,AFNE01.JPG,AFNE01.JPG,AFNE01.JPG,,,,,,,,,,,,,,,,,,,,,2,8,28,2,,,AMSA05.jpg,AMNE06.jpg,AMNE10.jpg,AMSA19.jpg,AMNE06.jpg,MN,1,num_6,32,num_2,0.850168612553,,,2018_Mar_29_1748,60.0132815643,FEMA4ImagesEEG,001,203271,
AFNE01.JPG,AFNE01.JPG,AFNE01.JPG,AFNE01.JPG,AFNE01.JPG,AFNE01.JPG,,,,,,,,,,,,,,,,,,,,,2,9,29,1,,,AMSA07.jpg,AMNE13.jpg,AMSA15.jpg,AMNE07.jpg,AMSA07.jpg,MS,2,num_8,16,num_8,0.616787874023,,,2018_Mar_29_1748,60.0132815643,FEMA4ImagesEEG,001,203271,
AFNE01.JPG,AFNE01.JPG,AFNE01.JPG,AFNE01.JPG,AFNE01.JPG,AFNE01.JPG,,,,,,,,,,,,,,,,,,,,,3,0,30,3,,,AMNE14.jpg,AMSA09.jpg,AMNE09.jpg,AMSA18.jpg,AMSA09.jpg,MS,2,num_6,16,num_6,0.833434686996,,,2018_Mar_29_1748,60.0132815643,FEMA4ImagesEEG,001,203271,
AFNE01.JPG,AFNE01.JPG,AFNE01.JPG,AFNE01.JPG,AFNE01.JPG,AFNE01.JPG,,,,,,,,,,,,,,,,,,,,,3,1,31,6,,,AMSA13.jpg,AMNE09.jpg,AMNE20.jpg,AMSA02.jpg,AMNE09.jpg,MN,1,num_6,32,num_4,0.766763914842,,,2018_Mar_29_1748,60.0132815643,FEMA4ImagesEEG,001,203271,
AFNE01.JPG,AFNE01.JPG,AFNE01.JPG,AFNE01.JPG,AFNE01.JPG,AFNE01.JPG,,,,,,,,,,,,,,,,,,,,,3,2,32,7,,,AMNE16.jpg,AMSA10.jpg,AMSA18.jpg,AMNE08.jpg,AMSA18.jpg,MS,2,num_2,32,num_8,0.850133651984,,,2018_Mar_29_1748,60.0132815643,FEMA4ImagesEEG,001,203271,
AFNE01.JPG,AFNE01.JPG,AFNE01.JPG,AFNE01.JPG,AFNE01.JPG,AFNE01.JPG,,,,,,,,,,,,,,,,,,,,,3,3,33,9,,,AMNE18.jpg,AMSA04.jpg,AMNE15.jpg,AMSA11.jpg,AMSA04.jpg,MS,2,num_6,32,num_4,0.850143274176,,,2018_Mar_29_1748,60.0132815643,FEMA4ImagesEEG,001,203271,
AFNE01.JPG,AFNE01.JPG,AFNE01.JPG,AFNE01.JPG,AFNE01.JPG,AFNE01.JPG,,,,,,,,,,,,,,,,,,,,,3,4,34,2,,,AMNE12.jpg,AMSA12.jpg,AMSA17.jpg,AMNE13.jpg,AMSA12.jpg,MS,2,num_6,16,num_6,0.81683226442,,,2018_Mar_29_1748,60.0132815643,FEMA4ImagesEEG,001,203271,
AFNE01.JPG,AFNE01.JPG,AFNE01.JPG,AFNE01.JPG,AFNE01.JPG,AFNE01.JPG,,,,,,,,,,,,,,,,,,,,,3,5,35,0,,,AMSA04.jpg,AMNE05.jpg,AMNE07.jpg,AMSA03.jpg,AMNE05.jpg,MN,1,num_6,32,num_2,0.933431864367,,,2018_Mar_29_1748,60.0132815643,FEMA4ImagesEEG,001,203271,
AFNE01.JPG,AFNE01.JPG,AFNE01.JPG,AFNE01.JPG,AFNE01.JPG,AFNE01.JPG,,,,,,,,,,,,,,,,,,,,,3,6,36,8,,,AMNE05.jpg,AMNE16.jpg,AMSA09.jpg,AMSA04.jpg,AMNE05.jpg,MN,1,num_8,16,num_8,0.750139040523,,,2018_Mar_29_1748,60.0132815643,FEMA4ImagesEEG,001,203271,
AFNE01.JPG,AFNE01.JPG,AFNE01.JPG,AFNE01.JPG,AFNE01.JPG,AFNE01.JPG,,,,,,,,,,,,,,,,,,,,,3,7,37,1,,,AMNE19.jpg,AMNE14.jpg,AMSA03.jpg,AMSA19.jpg,AMNE19.jpg,MN,1,num_8,32,num_4,0.66675839806,,,2018_Mar_29_1748,60.0132815643,FEMA4ImagesEEG,001,203271,
AFNE01.JPG,AFNE01.JPG,AFNE01.JPG,AFNE01.JPG,AFNE01.JPG,AFNE01.JPG,,,,,,,,,,,,,,,,,,,,,3,8,38,4,,,AMSA05.jpg,AMNE03.jpg,AMNE06.jpg,AMSA14.jpg,AMNE03.jpg,MN,1,num_6,16,num_6,0.616761252633,,,2018_Mar_29_1748,60.0132815643,FEMA4ImagesEEG,001,203271,
