IPosition2,IPosition3,IPosition1,IPosition6,IPosition4,IPosition5,TrialsF1.thisRepN,TrialsF1.thisTrialN,TrialsF1.thisN,TrialsF1.thisIndex,TrialsM1.thisRepN,TrialsM1.thisTrialN,TrialsM1.thisN,TrialsM1.thisIndex,TrialsF2.thisRepN,TrialsF2.thisTrialN,TrialsF2.thisN,TrialsF2.thisIndex,TrialsM2.thisRepN,TrialsM2.thisTrialN,TrialsM2.thisN,TrialsM2.thisIndex,TrialsF3.thisRepN,TrialsF3.thisTrialN,TrialsF3.thisN,TrialsF3.thisIndex,TrialsM3.thisRepN,TrialsM3.thisTrialN,TrialsM3.thisN,TrialsM3.thisIndex,InstrKey_resp.keys,InstrKey_resp.rt,Image0 _Position,Image1 _Position,Image2 _Position,Image3 _Position,Center_image,condition,code,correct_answer,accuracy,Key_Resp.keys,Key_Resp.rt,BreakKey_resp.keys,BreakKey_resp.rt,date,frameRate,expName,session,participant,
,,,,,,,,,,,,,,,,,,,,,,,,,,,,,,space,14.8494191901,,,,,,,,,,,,,,2018_Mar_08_1659,60.004099338,FEMA4ImagesEEG,001,203213,
AMSA25.JPG,AMNE24.JPG,AMSA24.JPG,AMNE26.JPG,AMSA21.JPG,AMNE25.JPG,0,0,0,3,,,,,,,,,,,,,,,,,,,,,,,AFSA13.jpg,AFSA05.jpg,AFNE05.jpg,AFNE03.jpg,AFSA13.jpg,FS,4,num_8,16,num_8,0.666791754775,,,2018_Mar_08_1659,60.004099338,FEMA4ImagesEEG,001,203213,
AMNE23.JPG,AMNE24.JPG,AMNE22.JPG,AMSA24.JPG,AMSA22.JPG,AMSA23.JPG,0,1,1,9,,,,,,,,,,,,,,,,,,,,,,,AFNE13.jpg,AFSA09.jpg,AFNE07.jpg,AFSA16.jpg,AFSA16.jpg,FS,4,num_4,16,num_4,0.916752544465,,,2018_Mar_08_1659,60.004099338,FEMA4ImagesEEG,001,203213,
AFSA21.JPG,AFNE22.JPG,AFNE21.JPG,AFSA23.JPG,AFSA22.JPG,AFNE23.JPG,0,2,2,0,,,,,,,,,,,,,,,,,,,,,,,AFSA05.jpg,AFNE11.jpg,AFNE10.jpg,AFSA07.jpg,AFSA05.jpg,FS,4,num_8,32,num_6,0.716835679952,,,2018_Mar_08_1659,60.004099338,FEMA4ImagesEEG,001,203213,
AMNE22.JPG,AMSA24.JPG,AMSA22.JPG,AMNE25.JPG,AMNE24.JPG,AMSA25.JPG,0,3,3,7,,,,,,,,,,,,,,,,,,,,,,,AFSA08.jpg,AFNE17.jpg,AFNE11.jpg,AFSA12.jpg,AFNE11.jpg,FN,3,num_2,16,num_2,1.20010481752,,,2018_Mar_08_1659,60.004099338,FEMA4ImagesEEG,001,203213,
AMSA21.JPG,AMNE22.JPG,AMNE21.JPG,AMSA23.JPG,AMSA22.JPG,AMNE23.JPG,0,4,4,1,,,,,,,,,,,,,,,,,,,,,,,AFNE13.jpg,AFSA01.jpg,AFNE05.jpg,AFSA11.jpg,AFSA11.jpg,FS,4,num_4,16,num_4,0.700177144026,,,2018_Mar_08_1659,60.004099338,FEMA4ImagesEEG,001,203213,
AFSA21.JPG,AFNE23.JPG,AFNE21.JPG,AFSA25.JPG,AFNE25.JPG,AFSA23.JPG,0,5,5,4,,,,,,,,,,,,,,,,,,,,,,,AFSA16.jpg,AFNE08.jpg,AFSA11.jpg,AFNE07.jpg,AFSA16.jpg,FS,4,num_8,32,num_6,1.11680893041,,,2018_Mar_08_1659,60.004099338,FEMA4ImagesEEG,001,203213,
AMSA21.JPG,AMNE23.JPG,AMNE21.JPG,AMSA25.JPG,AMNE25.JPG,AMSA23.JPG,0,6,6,5,,,,,,,,,,,,,,,,,,,,,,,AFNE11.jpg,AFSA11.jpg,AFSA01.jpg,AFNE15.jpg,AFSA11.jpg,FS,4,num_6,16,num_6,0.550152815878,,,2018_Mar_08_1659,60.004099338,FEMA4ImagesEEG,001,203213,
AFNE22.JPG,AFSA24.JPG,AFSA22.JPG,AFNE25.JPG,AFNE24.JPG,AFSA25.JPG,0,7,7,6,,,,,,,,,,,,,,,,,,,,,,,AFNE13.jpg,AFSA15.jpg,AFNE14.jpg,AFSA09.jpg,AFNE13.jpg,FN,3,num_8,16,num_8,1.03344119783,,,2018_Mar_08_1659,60.004099338,FEMA4ImagesEEG,001,203213,
AFNE23.JPG,AFNE24.JPG,AFNE22.JPG,AFSA24.JPG,AFSA22.JPG,AFSA23.JPG,0,8,8,8,,,,,,,,,,,,,,,,,,,,,,,AFSA01.jpg,AFSA10.jpg,AFNE13.jpg,AFNE02.jpg,AFNE13.jpg,FN,3,num_2,32,num_4,0.683494552737,,,2018_Mar_08_1659,60.004099338,FEMA4ImagesEEG,001,203213,
AFSA25.JPG,AFNE24.JPG,AFSA24.JPG,AFNE21.JPG,AFSA21.JPG,AFNE25.JPG,0,9,9,2,,,,,,,,,,,,,,,,,,,,,,,AFNE15.jpg,AFSA20.jpg,AFNE02.jpg,AFSA05.jpg,AFNE02.jpg,FN,3,num_2,16,num_2,1.28375768685,,,2018_Mar_08_1659,60.004099338,FEMA4ImagesEEG,001,203213,
AFSA21.JPG,AFNE22.JPG,AFNE21.JPG,AFSA23.JPG,AFSA22.JPG,AFNE23.JPG,,,,,0,0,0,0,,,,,,,,,,,,,,,,,,,AMSA15.jpg,AMNE05.jpg,AMSA11.jpg,AMNE01.jpg,AMNE01.jpg,MN,1,num_4,16,num_4,0.666814847849,,,2018_Mar_08_1659,60.004099338,FEMA4ImagesEEG,001,203213,
AFNE22.JPG,AFSA24.JPG,AFSA22.JPG,AFNE25.JPG,AFNE24.JPG,AFSA25.JPG,,,,,0,1,1,6,,,,,,,,,,,,,,,,,,,AMNE16.jpg,AMNE20.jpg,AMSA13.jpg,AMSA15.jpg,AMSA13.jpg,MS,2,num_2,16,num_2,1.06679194723,,,2018_Mar_08_1659,60.004099338,FEMA4ImagesEEG,001,203213,
AFSA25.JPG,AFNE24.JPG,AFSA24.JPG,AFNE21.JPG,AFSA21.JPG,AFNE25.JPG,,,,,0,2,2,2,,,,,,,,,,,,,,,,,,,AMNE19.jpg,AMNE15.jpg,AMSA12.jpg,AMSA06.jpg,AMSA06.jpg,MS,2,num_4,16,num_4,0.550156985642,,,2018_Mar_08_1659,60.004099338,FEMA4ImagesEEG,001,203213,
AMSA21.JPG,AMNE23.JPG,AMNE21.JPG,AMSA25.JPG,AMNE25.JPG,AMSA23.JPG,,,,,0,3,3,5,,,,,,,,,,,,,,,,,,,AMSA19.jpg,AMSA15.jpg,AMNE05.jpg,AMNE01.jpg,AMNE01.jpg,MN,1,num_4,32,num_8,0.850155927241,,,2018_Mar_08_1659,60.004099338,FEMA4ImagesEEG,001,203213,
AFNE23.JPG,AFNE24.JPG,AFNE22.JPG,AFSA24.JPG,AFSA22.JPG,AFSA23.JPG,,,,,0,4,4,8,,,,,,,,,,,,,,,,,,,AMSA19.jpg,AMSA09.jpg,AMNE10.jpg,AMNE07.jpg,AMNE10.jpg,MN,1,num_2,16,num_2,1.45011500083,,,2018_Mar_08_1659,60.004099338,FEMA4ImagesEEG,001,203213,
AFSA21.JPG,AFNE23.JPG,AFNE21.JPG,AFSA25.JPG,AFNE25.JPG,AFSA23.JPG,,,,,0,5,5,4,,,,,,,,,,,,,,,,,,,AMNE15.jpg,AMSA17.jpg,AMSA11.jpg,AMNE11.jpg,AMNE15.jpg,MN,1,num_8,32,num_6,0.800129001262,,,2018_Mar_08_1659,60.004099338,FEMA4ImagesEEG,001,203213,
AMSA25.JPG,AMNE24.JPG,AMSA24.JPG,AMNE26.JPG,AMSA21.JPG,AMNE25.JPG,,,,,0,6,6,3,,,,,,,,,,,,,,,,,,,AMSA15.jpg,AMSA03.jpg,AMNE20.jpg,AMNE07.jpg,AMNE07.jpg,MN,1,num_4,16,num_4,0.60011655651,,,2018_Mar_08_1659,60.004099338,FEMA4ImagesEEG,001,203213,
AMSA21.JPG,AMNE22.JPG,AMNE21.JPG,AMSA23.JPG,AMSA22.JPG,AMNE23.JPG,,,,,0,7,7,1,,,,,,,,,,,,,,,,,,,AMNE19.jpg,AMSA11.jpg,AMSA19.jpg,AMNE14.jpg,AMNE19.jpg,MN,1,num_8,16,num_8,0.633441646816,,,2018_Mar_08_1659,60.004099338,FEMA4ImagesEEG,001,203213,
AMNE22.JPG,AMSA24.JPG,AMSA22.JPG,AMNE25.JPG,AMNE24.JPG,AMSA25.JPG,,,,,0,8,8,7,,,,,,,,,,,,,,,,,,,AMNE15.jpg,AMSA16.jpg,AMNE14.jpg,AMSA17.jpg,AMSA17.jpg,MS,2,num_4,32,num_2,0.866769880522,,,2018_Mar_08_1659,60.004099338,FEMA4ImagesEEG,001,203213,
AMNE23.JPG,AMNE24.JPG,AMNE22.JPG,AMSA24.JPG,AMSA22.JPG,AMSA23.JPG,,,,,0,9,9,9,,,,,,,,,,,,,,,,,,,AMNE03.jpg,AMNE18.jpg,AMSA18.jpg,AMSA06.jpg,AMNE03.jpg,MN,1,num_8,16,num_8,1.11674446194,,,2018_Mar_08_1659,60.004099338,FEMA4ImagesEEG,001,203213,
AMNE23.JPG,AMNE24.JPG,AMNE22.JPG,AMSA24.JPG,AMSA22.JPG,AMSA23.JPG,,,,,,,,,0,0,0,9,,,,,,,,,,,,,,,AFNE13.jpg,AFNE05.jpg,AFSA13.jpg,AFSA05.jpg,AFNE05.jpg,FN,3,num_6,16,num_6,1.10009651026,,,2018_Mar_08_1659,60.004099338,FEMA4ImagesEEG,001,203213,
AFSA25.JPG,AFNE24.JPG,AFSA24.JPG,AFNE21.JPG,AFSA21.JPG,AFNE25.JPG,,,,,,,,,0,1,1,2,,,,,,,,,,,,,,,AFNE05.jpg,AFSA08.jpg,AFSA06.jpg,AFNE20.jpg,AFSA08.jpg,FS,4,num_6,32,num_8,1.41679183487,,,2018_Mar_08_1659,60.004099338,FEMA4ImagesEEG,001,203213,
AMSA25.JPG,AMNE24.JPG,AMSA24.JPG,AMNE26.JPG,AMSA21.JPG,AMNE25.JPG,,,,,,,,,0,2,2,3,,,,,,,,,,,,,,,AFSA05.jpg,AFNE05.jpg,AFSA19.jpg,AFNE13.jpg,AFNE05.jpg,FN,3,num_6,16,num_6,1.48343816679,,,2018_Mar_08_1659,60.004099338,FEMA4ImagesEEG,001,203213,
AMSA21.JPG,AMNE23.JPG,AMNE21.JPG,AMSA25.JPG,AMNE25.JPG,AMSA23.JPG,,,,,,,,,0,3,3,5,,,,,,,,,,,,,,,AFSA01.jpg,AFNE18.jpg,AFSA10.jpg,AFNE06.jpg,AFSA10.jpg,FS,4,num_2,16,num_2,1.25010640523,,,2018_Mar_08_1659,60.004099338,FEMA4ImagesEEG,001,203213,
AFSA21.JPG,AFNE22.JPG,AFNE21.JPG,AFSA23.JPG,AFSA22.JPG,AFNE23.JPG,,,,,,,,,0,4,4,0,,,,,,,,,,,,,,,AFNE08.jpg,AFSA07.jpg,AFNE04.jpg,AFSA05.jpg,AFNE04.jpg,FN,3,num_2,16,num_2,1.15013305843,,,2018_Mar_08_1659,60.004099338,FEMA4ImagesEEG,001,203213,
AFNE23.JPG,AFNE24.JPG,AFNE22.JPG,AFSA24.JPG,AFSA22.JPG,AFSA23.JPG,,,,,,,,,0,5,5,8,,,,,,,,,,,,,,,AFNE11.jpg,AFSA09.jpg,AFSA13.jpg,AFNE05.jpg,AFSA13.jpg,FS,4,num_2,32,num_6,1.06673581805,,,2018_Mar_08_1659,60.004099338,FEMA4ImagesEEG,001,203213,
AMSA21.JPG,AMNE22.JPG,AMNE21.JPG,AMSA23.JPG,AMSA22.JPG,AMNE23.JPG,,,,,,,,,0,6,6,1,,,,,,,,,,,,,,,AFNE06.jpg,AFSA18.jpg,AFNE09.jpg,AFSA17.jpg,AFNE06.jpg,FN,3,num_8,32,num_2,1.00010007061,,,2018_Mar_08_1659,60.004099338,FEMA4ImagesEEG,001,203213,
AFSA21.JPG,AFNE23.JPG,AFNE21.JPG,AFSA25.JPG,AFNE25.JPG,AFSA23.JPG,,,,,,,,,0,7,7,4,,,,,,,,,,,,,,,AFNE08.jpg,AFSA11.jpg,AFSA14.jpg,AFNE18.jpg,AFNE18.jpg,FN,3,num_4,32,num_8,1.19997523911,,,2018_Mar_08_1659,60.004099338,FEMA4ImagesEEG,001,203213,
AFNE22.JPG,AFSA24.JPG,AFSA22.JPG,AFNE25.JPG,AFNE24.JPG,AFSA25.JPG,,,,,,,,,0,8,8,6,,,,,,,,,,,,,,,AFNE04.jpg,AFNE03.jpg,AFSA15.jpg,AFSA17.jpg,AFNE03.jpg,FN,3,num_6,32,num_4,1.55012202519,,,2018_Mar_08_1659,60.004099338,FEMA4ImagesEEG,001,203213,
AMNE22.JPG,AMSA24.JPG,AMSA22.JPG,AMNE25.JPG,AMNE24.JPG,AMSA25.JPG,,,,,,,,,0,9,9,7,,,,,,,,,,,,,,,AFNE14.jpg,AFSA04.jpg,AFNE20.jpg,AFSA09.jpg,AFNE14.jpg,FN,3,num_8,32,num_2,1.28347704047,,,2018_Mar_08_1659,60.004099338,FEMA4ImagesEEG,001,203213,
AFNE22.JPG,AFSA24.JPG,AFSA22.JPG,AFNE25.JPG,AFNE24.JPG,AFSA25.JPG,,,,,,,,,,,,,0,0,0,6,,,,,,,,,,,AMNE05.jpg,AMNE19.jpg,AMSA12.jpg,AMSA14.jpg,AMSA12.jpg,MS,2,num_2,16,num_2,1.58341921121,,,2018_Mar_08_1659,60.004099338,FEMA4ImagesEEG,001,203213,
AMSA21.JPG,AMNE22.JPG,AMNE21.JPG,AMSA23.JPG,AMSA22.JPG,AMNE23.JPG,,,,,,,,,,,,,0,1,1,1,,,,,,,,,,,AMSA17.jpg,AMSA14.jpg,AMNE01.jpg,AMNE06.jpg,AMNE01.jpg,MN,1,num_2,16,num_2,1.66661182046,,,2018_Mar_08_1659,60.004099338,FEMA4ImagesEEG,001,203213,
AFNE23.JPG,AFNE24.JPG,AFNE22.JPG,AFSA24.JPG,AFSA22.JPG,AFSA23.JPG,,,,,,,,,,,,,0,2,2,8,,,,,,,,,,,AMSA09.jpg,AMSA17.jpg,AMNE07.jpg,AMNE18.jpg,AMNE07.jpg,MN,1,num_2,32,num_6,1.50006559095,,,2018_Mar_08_1659,60.004099338,FEMA4ImagesEEG,001,203213,
AMNE23.JPG,AMNE24.JPG,AMNE22.JPG,AMSA24.JPG,AMSA22.JPG,AMSA23.JPG,,,,,,,,,,,,,0,3,3,9,,,,,,,,,,,AMNE06.jpg,AMNE14.jpg,AMSA10.jpg,AMSA11.jpg,AMSA10.jpg,MS,2,num_2,32,num_8,1.36674790969,,,2018_Mar_08_1659,60.004099338,FEMA4ImagesEEG,001,203213,
AMSA25.JPG,AMNE24.JPG,AMSA24.JPG,AMNE26.JPG,AMSA21.JPG,AMNE25.JPG,,,,,,,,,,,,,0,4,4,3,,,,,,,,,,,AMSA11.jpg,AMSA16.jpg,AMNE11.jpg,AMNE17.jpg,AMNE11.jpg,MN,1,num_2,32,num_4,1.40004317136,,,2018_Mar_08_1659,60.004099338,FEMA4ImagesEEG,001,203213,
AFSA21.JPG,AFNE22.JPG,AFNE21.JPG,AFSA23.JPG,AFSA22.JPG,AFNE23.JPG,,,,,,,,,,,,,0,5,5,0,,,,,,,,,,,AMSA13.jpg,AMSA14.jpg,AMNE11.jpg,AMNE05.jpg,AMSA14.jpg,MS,2,num_6,16,num_6,1.01677271887,,,2018_Mar_08_1659,60.004099338,FEMA4ImagesEEG,001,203213,
AMNE22.JPG,AMSA24.JPG,AMSA22.JPG,AMNE25.JPG,AMNE24.JPG,AMSA25.JPG,,,,,,,,,,,,,0,6,6,7,,,,,,,,,,,AMNE10.jpg,AMNE05.jpg,AMSA14.jpg,AMSA04.jpg,AMNE10.jpg,MN,1,num_8,16,num_8,1.20008300734,,,2018_Mar_08_1659,60.004099338,FEMA4ImagesEEG,001,203213,
AFSA21.JPG,AFNE23.JPG,AFNE21.JPG,AFSA25.JPG,AFNE25.JPG,AFSA23.JPG,,,,,,,,,,,,,0,7,7,4,,,,,,,,,,,AMNE15.jpg,AMNE08.jpg,AMSA14.jpg,AMSA08.jpg,AMNE08.jpg,MN,1,num_6,32,num_4,3.03341585933,,,2018_Mar_08_1659,60.004099338,FEMA4ImagesEEG,001,203213,
AMSA21.JPG,AMNE23.JPG,AMNE21.JPG,AMSA25.JPG,AMNE25.JPG,AMSA23.JPG,,,,,,,,,,,,,0,8,8,5,,,,,,,,,,,AMNE10.jpg,AMSA17.jpg,AMNE09.jpg,AMSA06.jpg,AMSA06.jpg,MS,2,num_4,16,num_4,1.5164447634,,,2018_Mar_08_1659,60.004099338,FEMA4ImagesEEG,001,203213,
AFSA25.JPG,AFNE24.JPG,AFSA24.JPG,AFNE21.JPG,AFSA21.JPG,AFNE25.JPG,,,,,,,,,,,,,0,9,9,2,,,,,,,,,,,AMNE09.jpg,AMSA04.jpg,AMNE19.jpg,AMSA16.jpg,AMNE19.jpg,MN,1,num_2,32,num_6,1.61685656011,,,2018_Mar_08_1659,60.004099338,FEMA4ImagesEEG,001,203213,
AMSA21.JPG,AMNE23.JPG,AMNE21.JPG,AMSA25.JPG,AMNE25.JPG,AMSA23.JPG,,,,,,,,,,,,,,,,,0,0,0,5,,,,,,,AFSA02.jpg,AFSA07.jpg,AFNE20.jpg,AFNE02.jpg,AFSA07.jpg,FS,4,num_6,16,num_6,0.533501977799,,,2018_Mar_08_1659,60.004099338,FEMA4ImagesEEG,001,203213,
AFSA21.JPG,AFNE23.JPG,AFNE21.JPG,AFSA25.JPG,AFNE25.JPG,AFSA23.JPG,,,,,,,,,,,,,,,,,0,1,1,4,,,,,,,AFNE11.jpg,AFSA12.jpg,AFNE02.jpg,AFSA19.jpg,AFSA19.jpg,FS,4,num_4,32,num_2,1.08371316851,,,2018_Mar_08_1659,60.004099338,FEMA4ImagesEEG,001,203213,
AFSA25.JPG,AFNE24.JPG,AFSA24.JPG,AFNE21.JPG,AFSA21.JPG,AFNE25.JPG,,,,,,,,,,,,,,,,,0,2,2,2,,,,,,,AFNE05.jpg,AFSA14.jpg,AFNE18.jpg,AFSA10.jpg,AFSA10.jpg,FS,4,num_4,16,num_4,0.950124783441,,,2018_Mar_08_1659,60.004099338,FEMA4ImagesEEG,001,203213,
AMNE22.JPG,AMSA24.JPG,AMSA22.JPG,AMNE25.JPG,AMNE24.JPG,AMSA25.JPG,,,,,,,,,,,,,,,,,0,3,3,7,,,,,,,AFNE05.jpg,AFNE08.jpg,AFSA07.jpg,AFSA11.jpg,AFNE08.jpg,FN,3,num_6,32,num_8,1.2167004887,,,2018_Mar_08_1659,60.004099338,FEMA4ImagesEEG,001,203213,
AFSA21.JPG,AFNE22.JPG,AFNE21.JPG,AFSA23.JPG,AFSA22.JPG,AFNE23.JPG,,,,,,,,,,,,,,,,,0,4,4,0,,,,,,,AFSA08.jpg,AFSA17.jpg,AFNE11.jpg,AFNE06.jpg,AFNE11.jpg,FN,3,num_2,32,num_6,1.49999919813,,,2018_Mar_08_1659,60.004099338,FEMA4ImagesEEG,001,203213,
AMSA21.JPG,AMNE22.JPG,AMNE21.JPG,AMSA23.JPG,AMSA22.JPG,AMNE23.JPG,,,,,,,,,,,,,,,,,0,5,5,1,,,,,,,AFNE19.jpg,AFNE16.jpg,AFSA13.jpg,AFSA12.jpg,AFNE16.jpg,FN,3,num_6,32,num_2,3.23331540404,,,2018_Mar_08_1659,60.004099338,FEMA4ImagesEEG,001,203213,
AMNE23.JPG,AMNE24.JPG,AMNE22.JPG,AMSA24.JPG,AMSA22.JPG,AMSA23.JPG,,,,,,,,,,,,,,,,,0,6,6,9,,,,,,,AFSA03.jpg,AFNE07.jpg,AFNE09.jpg,AFSA07.jpg,AFNE07.jpg,FN,3,num_6,16,num_6,1.66670002346,,,2018_Mar_08_1659,60.004099338,FEMA4ImagesEEG,001,203213,
AFNE22.JPG,AFSA24.JPG,AFSA22.JPG,AFNE25.JPG,AFNE24.JPG,AFSA25.JPG,,,,,,,,,,,,,,,,,0,7,7,6,,,,,,,AFNE09.jpg,AFSA02.jpg,AFNE06.jpg,AFSA08.jpg,AFNE09.jpg,FN,3,num_8,16,num_8,1.73336784495,,,2018_Mar_08_1659,60.004099338,FEMA4ImagesEEG,001,203213,
AMSA25.JPG,AMNE24.JPG,AMSA24.JPG,AMNE26.JPG,AMSA21.JPG,AMNE25.JPG,,,,,,,,,,,,,,,,,0,8,8,3,,,,,,,AFSA10.jpg,AFSA03.jpg,AFNE03.jpg,AFNE12.jpg,AFNE12.jpg,FN,3,num_4,16,num_4,1.21647725417,,,2018_Mar_08_1659,60.004099338,FEMA4ImagesEEG,001,203213,
AFNE23.JPG,AFNE24.JPG,AFNE22.JPG,AFSA24.JPG,AFSA22.JPG,AFSA23.JPG,,,,,,,,,,,,,,,,,0,9,9,8,,,,,,,AFNE15.jpg,AFSA17.jpg,AFSA07.jpg,AFNE08.jpg,AFNE15.jpg,FN,3,num_8,32,num_6,1.71673913766,,,2018_Mar_08_1659,60.004099338,FEMA4ImagesEEG,001,203213,
AMSA25.JPG,AMNE24.JPG,AMSA24.JPG,AMNE26.JPG,AMSA21.JPG,AMNE25.JPG,,,,,,,,,,,,,,,,,,,,,0,0,0,3,,,AMSA16.jpg,AMNE08.jpg,AMNE06.jpg,AMSA01.jpg,AMSA01.jpg,MS,2,num_4,16,num_4,1.26675724331,,,2018_Mar_08_1659,60.004099338,FEMA4ImagesEEG,001,203213,
AFSA21.JPG,AFNE23.JPG,AFNE21.JPG,AFSA25.JPG,AFNE25.JPG,AFSA23.JPG,,,,,,,,,,,,,,,,,,,,,0,1,1,4,,,AMSA11.jpg,AMNE05.jpg,AMNE09.jpg,AMSA10.jpg,AMNE09.jpg,MN,1,num_2,32,num_8,4.36633928842,,,2018_Mar_08_1659,60.004099338,FEMA4ImagesEEG,001,203213,
AFNE22.JPG,AFSA24.JPG,AFSA22.JPG,AFNE25.JPG,AFNE24.JPG,AFSA25.JPG,,,,,,,,,,,,,,,,,,,,,0,2,2,6,,,AMNE03.jpg,AMSA11.jpg,AMNE11.jpg,AMSA16.jpg,AMSA16.jpg,MS,2,num_4,32,num_2,1.30010767188,,,2018_Mar_08_1659,60.004099338,FEMA4ImagesEEG,001,203213,
AMNE23.JPG,AMNE24.JPG,AMNE22.JPG,AMSA24.JPG,AMSA22.JPG,AMSA23.JPG,,,,,,,,,,,,,,,,,,,,,0,3,3,9,,,AMSA18.jpg,AMNE18.jpg,AMNE14.jpg,AMSA04.jpg,AMSA04.jpg,MS,2,num_4,16,num_4,1.38347732904,,,2018_Mar_08_1659,60.004099338,FEMA4ImagesEEG,001,203213,
AFSA21.JPG,AFNE22.JPG,AFNE21.JPG,AFSA23.JPG,AFSA22.JPG,AFNE23.JPG,,,,,,,,,,,,,,,,,,,,,0,4,4,0,,,AMNE16.jpg,AMNE08.jpg,AMSA09.jpg,AMSA01.jpg,AMSA01.jpg,MS,2,num_4,32,num_2,1.06674960977,,,2018_Mar_08_1659,60.004099338,FEMA4ImagesEEG,001,203213,
AMSA21.JPG,AMNE22.JPG,AMNE21.JPG,AMSA23.JPG,AMSA22.JPG,AMNE23.JPG,,,,,,,,,,,,,,,,,,,,,0,5,5,1,,,AMNE01.jpg,AMSA13.jpg,AMSA03.jpg,AMNE11.jpg,AMSA03.jpg,MS,2,num_2,16,num_2,1.10010324582,,,2018_Mar_08_1659,60.004099338,FEMA4ImagesEEG,001,203213,
AMSA21.JPG,AMNE23.JPG,AMNE21.JPG,AMSA25.JPG,AMNE25.JPG,AMSA23.JPG,,,,,,,,,,,,,,,,,,,,,0,6,6,5,,,AMNE12.jpg,AMNE19.jpg,AMSA12.jpg,AMSA13.jpg,AMNE12.jpg,MN,1,num_8,32,num_6,1.31657729275,,,2018_Mar_08_1659,60.004099338,FEMA4ImagesEEG,001,203213,
AFNE23.JPG,AFNE24.JPG,AFNE22.JPG,AFSA24.JPG,AFSA22.JPG,AFSA23.JPG,,,,,,,,,,,,,,,,,,,,,0,7,7,8,,,AMNE08.jpg,AMSA08.jpg,AMNE04.jpg,AMSA06.jpg,AMNE08.jpg,MN,1,num_8,32,num_4,1.36671359069,,,2018_Mar_08_1659,60.004099338,FEMA4ImagesEEG,001,203213,
AFSA25.JPG,AFNE24.JPG,AFSA24.JPG,AFNE21.JPG,AFSA21.JPG,AFNE25.JPG,,,,,,,,,,,,,,,,,,,,,0,8,8,2,,,AMSA07.jpg,AMSA09.jpg,AMNE15.jpg,AMNE10.jpg,AMNE10.jpg,MN,1,num_4,16,num_4,1.10017284611,,,2018_Mar_08_1659,60.004099338,FEMA4ImagesEEG,001,203213,
AMNE22.JPG,AMSA24.JPG,AMSA22.JPG,AMNE25.JPG,AMNE24.JPG,AMSA25.JPG,,,,,,,,,,,,,,,,,,,,,0,9,9,7,,,AMSA07.jpg,AMNE01.jpg,AMSA19.jpg,AMNE13.jpg,AMSA07.jpg,MS,2,num_8,16,num_8,1.38343050121,,,2018_Mar_08_1659,60.004099338,FEMA4ImagesEEG,001,203213,
,,,,,,,,,,,,,,,,,,,,,,,,,,,,,,,,,,,,,,,,,,,space,4.78317153663,2018_Mar_08_1659,60.004099338,FEMA4ImagesEEG,001,203213,
AFNE01.JPG,AFNE01.JPG,AFNE01.JPG,AFNE01.JPG,AFNE01.JPG,AFNE01.JPG,0,0,0,7,,,,,,,,,,,,,,,,,,,,,,,AFNE16.jpg,AFSA11.jpg,AFNE10.jpg,AFSA09.jpg,AFSA11.jpg,FS,4,num_6,16,num_6,0.950132160448,,,2018_Mar_08_1659,60.004099338,FEMA4ImagesEEG,001,203213,
AFNE01.JPG,AFNE01.JPG,AFNE01.JPG,AFNE01.JPG,AFNE01.JPG,AFNE01.JPG,0,1,1,9,,,,,,,,,,,,,,,,,,,,,,,AFNE08.jpg,AFNE09.jpg,AFSA10.jpg,AFSA13.jpg,AFNE09.jpg,FN,3,num_6,32,num_2,0.999959907727,,,2018_Mar_08_1659,60.004099338,FEMA4ImagesEEG,001,203213,
AFNE01.JPG,AFNE01.JPG,AFNE01.JPG,AFNE01.JPG,AFNE01.JPG,AFNE01.JPG,0,2,2,0,,,,,,,,,,,,,,,,,,,,,,,AFNE20.jpg,AFSA11.jpg,AFSA20.jpg,AFNE15.jpg,AFNE20.jpg,FN,3,num_8,16,num_8,1.66660476406,,,2018_Mar_08_1659,60.004099338,FEMA4ImagesEEG,001,203213,
AFNE01.JPG,AFNE01.JPG,AFNE01.JPG,AFNE01.JPG,AFNE01.JPG,AFNE01.JPG,0,3,3,8,,,,,,,,,,,,,,,,,,,,,,,AFSA05.jpg,AFNE08.jpg,AFSA12.jpg,AFNE01.jpg,AFNE01.jpg,FN,3,num_4,16,num_4,1.216677716,,,2018_Mar_08_1659,60.004099338,FEMA4ImagesEEG,001,203213,
AFNE01.JPG,AFNE01.JPG,AFNE01.JPG,AFNE01.JPG,AFNE01.JPG,AFNE01.JPG,0,4,4,6,,,,,,,,,,,,,,,,,,,,,,,AFSA05.jpg,AFNE20.jpg,AFNE13.jpg,AFSA01.jpg,AFNE13.jpg,FN,3,num_2,16,num_2,1.21671331814,,,2018_Mar_08_1659,60.004099338,FEMA4ImagesEEG,001,203213,
AFNE01.JPG,AFNE01.JPG,AFNE01.JPG,AFNE01.JPG,AFNE01.JPG,AFNE01.JPG,0,5,5,1,,,,,,,,,,,,,,,,,,,,,,,AFNE05.jpg,AFSA10.jpg,AFSA04.jpg,AFNE06.jpg,AFNE05.jpg,FN,3,num_8,16,num_8,1.15006730705,,,2018_Mar_08_1659,60.004099338,FEMA4ImagesEEG,001,203213,
AFNE01.JPG,AFNE01.JPG,AFNE01.JPG,AFNE01.JPG,AFNE01.JPG,AFNE01.JPG,0,6,6,3,,,,,,,,,,,,,,,,,,,,,,,AFSA13.jpg,AFNE10.jpg,AFSA04.jpg,AFNE07.jpg,AFNE10.jpg,FN,3,num_6,32,num_4,1.78339958191,,,2018_Mar_08_1659,60.004099338,FEMA4ImagesEEG,001,203213,
AFNE01.JPG,AFNE01.JPG,AFNE01.JPG,AFNE01.JPG,AFNE01.JPG,AFNE01.JPG,0,7,7,5,,,,,,,,,,,,,,,,,,,,,,,AFSA08.jpg,AFNE13.jpg,AFSA12.jpg,AFNE06.jpg,AFNE06.jpg,FN,3,num_4,32,num_6,1.36673604255,,,2018_Mar_08_1659,60.004099338,FEMA4ImagesEEG,001,203213,
AFNE01.JPG,AFNE01.JPG,AFNE01.JPG,AFNE01.JPG,AFNE01.JPG,AFNE01.JPG,0,8,8,4,,,,,,,,,,,,,,,,,,,,,,,AFSA14.jpg,AFNE06.jpg,AFNE10.jpg,AFSA15.jpg,AFSA14.jpg,FS,4,num_8,16,num_8,1.15000444232,,,2018_Mar_08_1659,60.004099338,FEMA4ImagesEEG,001,203213,
AFNE01.JPG,AFNE01.JPG,AFNE01.JPG,AFNE01.JPG,AFNE01.JPG,AFNE01.JPG,0,9,9,2,,,,,,,,,,,,,,,,,,,,,,,AFNE11.jpg,AFSA03.jpg,AFSA20.jpg,AFNE05.jpg,AFSA03.jpg,FS,4,num_6,32,num_2,1.4834102625,,,2018_Mar_08_1659,60.004099338,FEMA4ImagesEEG,001,203213,
AFNE01.JPG,AFNE01.JPG,AFNE01.JPG,AFNE01.JPG,AFNE01.JPG,AFNE01.JPG,1,0,10,3,,,,,,,,,,,,,,,,,,,,,,,AFSA01.jpg,AFNE18.jpg,AFNE14.jpg,AFSA07.jpg,AFSA01.jpg,FS,4,num_8,32,num_6,1.18342479202,,,2018_Mar_08_1659,60.004099338,FEMA4ImagesEEG,001,203213,
AFNE01.JPG,AFNE01.JPG,AFNE01.JPG,AFNE01.JPG,AFNE01.JPG,AFNE01.JPG,1,1,11,4,,,,,,,,,,,,,,,,,,,,,,,AFNE09.jpg,AFSA15.jpg,AFNE03.jpg,AFSA04.jpg,AFSA15.jpg,FS,4,num_6,32,num_8,1.13346040994,,,2018_Mar_08_1659,60.004099338,FEMA4ImagesEEG,001,203213,
AFNE01.JPG,AFNE01.JPG,AFNE01.JPG,AFNE01.JPG,AFNE01.JPG,AFNE01.JPG,1,2,12,5,,,,,,,,,,,,,,,,,,,,,,,AFNE05.jpg,AFSA04.jpg,AFNE01.jpg,AFSA18.jpg,AFSA04.jpg,FS,4,num_6,16,num_6,0.983440572396,,,2018_Mar_08_1659,60.004099338,FEMA4ImagesEEG,001,203213,
AFNE01.JPG,AFNE01.JPG,AFNE01.JPG,AFNE01.JPG,AFNE01.JPG,AFNE01.JPG,1,3,13,2,,,,,,,,,,,,,,,,,,,,,,,AFSA19.jpg,AFNE09.jpg,AFNE14.jpg,AFSA03.jpg,AFNE14.jpg,FN,3,num_2,16,num_2,1.00017512357,,,2018_Mar_08_1659,60.004099338,FEMA4ImagesEEG,001,203213,
AFNE01.JPG,AFNE01.JPG,AFNE01.JPG,AFNE01.JPG,AFNE01.JPG,AFNE01.JPG,1,4,14,1,,,,,,,,,,,,,,,,,,,,,,,AFNE04.jpg,AFNE14.jpg,AFSA07.jpg,AFSA19.jpg,AFSA19.jpg,FS,4,num_4,16,num_4,1.21673801495,,,2018_Mar_08_1659,60.004099338,FEMA4ImagesEEG,001,203213,
AFNE01.JPG,AFNE01.JPG,AFNE01.JPG,AFNE01.JPG,AFNE01.JPG,AFNE01.JPG,1,5,15,6,,,,,,,,,,,,,,,,,,,,,,,AFSA07.jpg,AFNE08.jpg,AFNE07.jpg,AFSA11.jpg,AFNE08.jpg,FN,3,num_6,32,num_2,1.23338949471,,,2018_Mar_08_1659,60.004099338,FEMA4ImagesEEG,001,203213,
AFNE01.JPG,AFNE01.JPG,AFNE01.JPG,AFNE01.JPG,AFNE01.JPG,AFNE01.JPG,1,6,16,9,,,,,,,,,,,,,,,,,,,,,,,AFNE06.jpg,AFSA10.jpg,AFSA12.jpg,AFNE02.jpg,AFNE02.jpg,FN,3,num_4,32,num_8,0.883512449916,,,2018_Mar_08_1659,60.004099338,FEMA4ImagesEEG,001,203213,
AFNE01.JPG,AFNE01.JPG,AFNE01.JPG,AFNE01.JPG,AFNE01.JPG,AFNE01.JPG,1,7,17,0,,,,,,,,,,,,,,,,,,,,,,,AFSA12.jpg,AFNE03.jpg,AFNE02.jpg,AFSA07.jpg,AFNE03.jpg,FN,3,num_6,32,num_2,1.30009837076,,,2018_Mar_08_1659,60.004099338,FEMA4ImagesEEG,001,203213,
AFNE01.JPG,AFNE01.JPG,AFNE01.JPG,AFNE01.JPG,AFNE01.JPG,AFNE01.JPG,1,8,18,8,,,,,,,,,,,,,,,,,,,,,,,AFNE12.jpg,AFSA19.jpg,AFSA07.jpg,AFNE01.jpg,AFNE12.jpg,FN,3,num_8,32,num_2,1.25012789457,,,2018_Mar_08_1659,60.004099338,FEMA4ImagesEEG,001,203213,
AFNE01.JPG,AFNE01.JPG,AFNE01.JPG,AFNE01.JPG,AFNE01.JPG,AFNE01.JPG,1,9,19,7,,,,,,,,,,,,,,,,,,,,,,,AFSA08.jpg,AFSA19.jpg,AFNE11.jpg,AFNE01.jpg,AFSA08.jpg,FS,4,num_8,32,num_6,1.06675602449,,,2018_Mar_08_1659,60.004099338,FEMA4ImagesEEG,001,203213,
AFNE01.JPG,AFNE01.JPG,AFNE01.JPG,AFNE01.JPG,AFNE01.JPG,AFNE01.JPG,2,0,20,9,,,,,,,,,,,,,,,,,,,,,,,AFSA12.jpg,AFNE08.jpg,AFSA08.jpg,AFNE14.jpg,AFNE14.jpg,FN,3,num_4,32,num_8,1.13341486501,,,2018_Mar_08_1659,60.004099338,FEMA4ImagesEEG,001,203213,
AFNE01.JPG,AFNE01.JPG,AFNE01.JPG,AFNE01.JPG,AFNE01.JPG,AFNE01.JPG,2,1,21,4,,,,,,,,,,,,,,,,,,,,,,,AFSA16.jpg,AFSA17.jpg,AFNE01.jpg,AFNE11.jpg,AFNE01.jpg,FN,3,num_2,32,num_4,1.65008895705,,,2018_Mar_08_1659,60.004099338,FEMA4ImagesEEG,001,203213,
AFNE01.JPG,AFNE01.JPG,AFNE01.JPG,AFNE01.JPG,AFNE01.JPG,AFNE01.JPG,2,2,22,6,,,,,,,,,,,,,,,,,,,,,,,AFSA12.jpg,AFNE18.jpg,AFSA15.jpg,AFNE10.jpg,AFNE10.jpg,FN,3,num_4,16,num_4,1.36673155217,,,2018_Mar_08_1659,60.004099338,FEMA4ImagesEEG,001,203213,
AFNE01.JPG,AFNE01.JPG,AFNE01.JPG,AFNE01.JPG,AFNE01.JPG,AFNE01.JPG,2,3,23,5,,,,,,,,,,,,,,,,,,,,,,,AFSA17.jpg,AFNE09.jpg,AFSA15.jpg,AFNE12.jpg,AFSA17.jpg,FS,4,num_8,32,num_6,0.950106501346,,,2018_Mar_08_1659,60.004099338,FEMA4ImagesEEG,001,203213,
AFNE01.JPG,AFNE01.JPG,AFNE01.JPG,AFNE01.JPG,AFNE01.JPG,AFNE01.JPG,2,4,24,7,,,,,,,,,,,,,,,,,,,,,,,AFSA13.jpg,AFSA17.jpg,AFNE05.jpg,AFNE13.jpg,AFNE05.jpg,FN,3,num_2,16,num_2,0.583467001328,,,2018_Mar_08_1659,60.004099338,FEMA4ImagesEEG,001,203213,
AFNE01.JPG,AFNE01.JPG,AFNE01.JPG,AFNE01.JPG,AFNE01.JPG,AFNE01.JPG,2,5,25,3,,,,,,,,,,,,,,,,,,,,,,,AFNE02.jpg,AFNE03.jpg,AFSA04.jpg,AFSA11.jpg,AFSA04.jpg,FS,4,num_2,32,num_4,1.40009320667,,,2018_Mar_08_1659,60.004099338,FEMA4ImagesEEG,001,203213,
AFNE01.JPG,AFNE01.JPG,AFNE01.JPG,AFNE01.JPG,AFNE01.JPG,AFNE01.JPG,2,6,26,1,,,,,,,,,,,,,,,,,,,,,,,AFNE11.jpg,AFSA15.jpg,AFSA20.jpg,AFNE15.jpg,AFSA20.jpg,FS,4,num_2,16,num_2,1.13345624041,,,2018_Mar_08_1659,60.004099338,FEMA4ImagesEEG,001,203213,
AFNE01.JPG,AFNE01.JPG,AFNE01.JPG,AFNE01.JPG,AFNE01.JPG,AFNE01.JPG,2,7,27,0,,,,,,,,,,,,,,,,,,,,,,,AFNE01.jpg,AFNE05.jpg,AFSA14.jpg,AFSA20.jpg,AFNE01.jpg,FN,3,num_8,16,num_8,1.08351591392,,,2018_Mar_08_1659,60.004099338,FEMA4ImagesEEG,001,203213,
AFNE01.JPG,AFNE01.JPG,AFNE01.JPG,AFNE01.JPG,AFNE01.JPG,AFNE01.JPG,2,8,28,8,,,,,,,,,,,,,,,,,,,,,,,AFNE10.jpg,AFSA16.jpg,AFNE02.jpg,AFSA04.jpg,AFNE02.jpg,FN,3,num_2,16,num_2,1.65006522229,,,2018_Mar_08_1659,60.004099338,FEMA4ImagesEEG,001,203213,
AFNE01.JPG,AFNE01.JPG,AFNE01.JPG,AFNE01.JPG,AFNE01.JPG,AFNE01.JPG,2,9,29,2,,,,,,,,,,,,,,,,,,,,,,,AFSA13.jpg,AFSA16.jpg,AFNE12.jpg,AFNE03.jpg,AFSA13.jpg,FS,4,num_8,32,num_6,1.25008427422,,,2018_Mar_08_1659,60.004099338,FEMA4ImagesEEG,001,203213,
AFNE01.JPG,AFNE01.JPG,AFNE01.JPG,AFNE01.JPG,AFNE01.JPG,AFNE01.JPG,3,0,30,8,,,,,,,,,,,,,,,,,,,,,,,AFSA16.jpg,AFNE06.jpg,AFNE19.jpg,AFSA06.jpg,AFSA16.jpg,FS,4,num_8,16,num_8,1.18341516983,,,2018_Mar_08_1659,60.004099338,FEMA4ImagesEEG,001,203213,
AFNE01.JPG,AFNE01.JPG,AFNE01.JPG,AFNE01.JPG,AFNE01.JPG,AFNE01.JPG,3,1,31,9,,,,,,,,,,,,,,,,,,,,,,,AFSA04.jpg,AFNE04.jpg,AFNE08.jpg,AFSA09.jpg,AFNE04.jpg,FN,3,num_6,32,num_4,0.766834381036,,,2018_Mar_08_1659,60.004099338,FEMA4ImagesEEG,001,203213,
AFNE01.JPG,AFNE01.JPG,AFNE01.JPG,AFNE01.JPG,AFNE01.JPG,AFNE01.JPG,3,2,32,4,,,,,,,,,,,,,,,,,,,,,,,AFSA20.jpg,AFNE04.jpg,AFNE07.jpg,AFSA12.jpg,AFNE04.jpg,FN,3,num_6,16,num_6,1.01674064505,,,2018_Mar_08_1659,60.004099338,FEMA4ImagesEEG,001,203213,
AFNE01.JPG,AFNE01.JPG,AFNE01.JPG,AFNE01.JPG,AFNE01.JPG,AFNE01.JPG,3,3,33,7,,,,,,,,,,,,,,,,,,,,,,,AFSA13.jpg,AFNE02.jpg,AFNE03.jpg,AFSA07.jpg,AFNE03.jpg,FN,3,num_2,16,num_2,0.950137933716,,,2018_Mar_08_1659,60.004099338,FEMA4ImagesEEG,001,203213,
AFNE01.JPG,AFNE01.JPG,AFNE01.JPG,AFNE01.JPG,AFNE01.JPG,AFNE01.JPG,3,4,34,0,,,,,,,,,,,,,,,,,,,,,,,AFNE20.jpg,AFNE10.jpg,AFSA09.jpg,AFSA13.jpg,AFNE10.jpg,FN,3,num_6,16,num_6,1.18353095651,,,2018_Mar_08_1659,60.004099338,FEMA4ImagesEEG,001,203213,
AFNE01.JPG,AFNE01.JPG,AFNE01.JPG,AFNE01.JPG,AFNE01.JPG,AFNE01.JPG,3,5,35,2,,,,,,,,,,,,,,,,,,,,,,,AFSA18.jpg,AFNE02.jpg,AFSA05.jpg,AFNE11.jpg,AFSA18.jpg,FS,4,num_8,16,num_8,1.78336462146,,,2018_Mar_08_1659,60.004099338,FEMA4ImagesEEG,001,203213,
AFNE01.JPG,AFNE01.JPG,AFNE01.JPG,AFNE01.JPG,AFNE01.JPG,AFNE01.JPG,3,6,36,3,,,,,,,,,,,,,,,,,,,,,,,AFSA07.jpg,AFNE10.jpg,AFNE15.jpg,AFSA09.jpg,AFNE15.jpg,FN,3,num_2,16,num_2,1.61666283384,,,2018_Mar_08_1659,60.004099338,FEMA4ImagesEEG,001,203213,
AFNE01.JPG,AFNE01.JPG,AFNE01.JPG,AFNE01.JPG,AFNE01.JPG,AFNE01.JPG,3,7,37,5,,,,,,,,,,,,,,,,,,,,,,,AFNE20.jpg,AFSA04.jpg,AFSA03.jpg,AFNE10.jpg,AFSA03.jpg,FS,4,num_2,32,num_4,0.933390873717,,,2018_Mar_08_1659,60.004099338,FEMA4ImagesEEG,001,203213,
AFNE01.JPG,AFNE01.JPG,AFNE01.JPG,AFNE01.JPG,AFNE01.JPG,AFNE01.JPG,3,8,38,6,,,,,,,,,,,,,,,,,,,,,,,AFNE13.jpg,AFSA09.jpg,AFSA19.jpg,AFNE01.jpg,AFNE01.jpg,FN,3,num_4,32,num_6,1.18345109257,,,2018_Mar_08_1659,60.004099338,FEMA4ImagesEEG,001,203213,
AFNE01.JPG,AFNE01.JPG,AFNE01.JPG,AFNE01.JPG,AFNE01.JPG,AFNE01.JPG,3,9,39,1,,,,,,,,,,,,,,,,,,,,,,,AFNE18.jpg,AFSA11.jpg,AFSA17.jpg,AFNE12.jpg,AFNE18.jpg,FN,3,num_8,32,num_4,1.16648496827,,,2018_Mar_08_1659,60.004099338,FEMA4ImagesEEG,001,203213,
AFNE01.JPG,AFNE01.JPG,AFNE01.JPG,AFNE01.JPG,AFNE01.JPG,AFNE01.JPG,4,0,40,6,,,,,,,,,,,,,,,,,,,,,,,AFSA06.jpg,AFNE06.jpg,AFNE02.jpg,AFSA19.jpg,AFSA06.jpg,FS,4,num_8,16,num_8,0.883455679286,,,2018_Mar_08_1659,60.004099338,FEMA4ImagesEEG,001,203213,
AFNE01.JPG,AFNE01.JPG,AFNE01.JPG,AFNE01.JPG,AFNE01.JPG,AFNE01.JPG,4,1,41,4,,,,,,,,,,,,,,,,,,,,,,,AFSA17.jpg,AFNE16.jpg,AFSA15.jpg,AFNE20.jpg,AFNE20.jpg,FN,3,num_4,16,num_4,1.48339679162,,,2018_Mar_08_1659,60.004099338,FEMA4ImagesEEG,001,203213,
AFNE01.JPG,AFNE01.JPG,AFNE01.JPG,AFNE01.JPG,AFNE01.JPG,AFNE01.JPG,4,2,42,0,,,,,,,,,,,,,,,,,,,,,,,AFNE11.jpg,AFNE06.jpg,AFSA10.jpg,AFSA17.jpg,AFSA10.jpg,FS,4,num_2,32,num_6,1.13371732179,,,2018_Mar_08_1659,60.004099338,FEMA4ImagesEEG,001,203213,
AFNE01.JPG,AFNE01.JPG,AFNE01.JPG,AFNE01.JPG,AFNE01.JPG,AFNE01.JPG,4,3,43,2,,,,,,,,,,,,,,,,,,,,,,,AFSA05.jpg,AFSA06.jpg,AFNE19.jpg,AFNE20.jpg,AFNE20.jpg,FN,3,num_4,16,num_4,0.950089822989,,,2018_Mar_08_1659,60.004099338,FEMA4ImagesEEG,001,203213,
AFNE01.JPG,AFNE01.JPG,AFNE01.JPG,AFNE01.JPG,AFNE01.JPG,AFNE01.JPG,4,4,44,9,,,,,,,,,,,,,,,,,,,,,,,AFNE19.jpg,AFNE04.jpg,AFSA06.jpg,AFSA03.jpg,AFSA06.jpg,FS,4,num_2,16,num_2,1.15007340093,,,2018_Mar_08_1659,60.004099338,FEMA4ImagesEEG,001,203213,
AFNE01.JPG,AFNE01.JPG,AFNE01.JPG,AFNE01.JPG,AFNE01.JPG,AFNE01.JPG,4,5,45,5,,,,,,,,,,,,,,,,,,,,,,,AFNE09.jpg,AFSA06.jpg,AFNE04.jpg,AFSA16.jpg,AFSA06.jpg,FS,4,num_6,32,num_8,1.05001570005,,,2018_Mar_08_1659,60.004099338,FEMA4ImagesEEG,001,203213,
AFNE01.JPG,AFNE01.JPG,AFNE01.JPG,AFNE01.JPG,AFNE01.JPG,AFNE01.JPG,4,6,46,7,,,,,,,,,,,,,,,,,,,,,,,AFNE20.jpg,AFSA19.jpg,AFSA03.jpg,AFNE17.jpg,AFNE17.jpg,FN,3,num_4,16,num_4,1.21677457914,,,2018_Mar_08_1659,60.004099338,FEMA4ImagesEEG,001,203213,
AFNE01.JPG,AFNE01.JPG,AFNE01.JPG,AFNE01.JPG,AFNE01.JPG,AFNE01.JPG,4,7,47,1,,,,,,,,,,,,,,,,,,,,,,,AFNE05.jpg,AFSA05.jpg,AFSA12.jpg,AFNE16.jpg,AFNE16.jpg,FN,3,num_4,32,num_2,1.41676232708,,,2018_Mar_08_1659,60.004099338,FEMA4ImagesEEG,001,203213,
AFNE01.JPG,AFNE01.JPG,AFNE01.JPG,AFNE01.JPG,AFNE01.JPG,AFNE01.JPG,4,8,48,3,,,,,,,,,,,,,,,,,,,,,,,AFSA04.jpg,AFSA08.jpg,AFNE14.jpg,AFNE20.jpg,AFSA08.jpg,FS,4,num_6,32,num_4,1.08345882222,,,2018_Mar_08_1659,60.004099338,FEMA4ImagesEEG,001,203213,
AFNE01.JPG,AFNE01.JPG,AFNE01.JPG,AFNE01.JPG,AFNE01.JPG,AFNE01.JPG,4,9,49,8,,,,,,,,,,,,,,,,,,,,,,,AFNE07.jpg,AFSA07.jpg,AFNE16.jpg,AFSA10.jpg,AFNE07.jpg,FN,3,num_8,32,num_4,1.2000044263,,,2018_Mar_08_1659,60.004099338,FEMA4ImagesEEG,001,203213,
AFNE01.JPG,AFNE01.JPG,AFNE01.JPG,AFNE01.JPG,AFNE01.JPG,AFNE01.JPG,5,0,50,4,,,,,,,,,,,,,,,,,,,,,,,AFSA05.jpg,AFNE17.jpg,AFSA19.jpg,AFNE03.jpg,AFNE17.jpg,FN,3,num_6,16,num_6,1.2167630326,,,2018_Mar_08_1659,60.004099338,FEMA4ImagesEEG,001,203213,
AFNE01.JPG,AFNE01.JPG,AFNE01.JPG,AFNE01.JPG,AFNE01.JPG,AFNE01.JPG,5,1,51,5,,,,,,,,,,,,,,,,,,,,,,,AFNE03.jpg,AFSA02.jpg,AFNE17.jpg,AFSA17.jpg,AFSA02.jpg,FS,4,num_6,32,num_2,0.866752560483,,,2018_Mar_08_1659,60.004099338,FEMA4ImagesEEG,001,203213,
AFNE01.JPG,AFNE01.JPG,AFNE01.JPG,AFNE01.JPG,AFNE01.JPG,AFNE01.JPG,5,2,52,1,,,,,,,,,,,,,,,,,,,,,,,AFSA10.jpg,AFSA09.jpg,AFNE13.jpg,AFNE05.jpg,AFNE13.jpg,FN,3,num_2,32,num_8,1.15028765472,,,2018_Mar_08_1659,60.004099338,FEMA4ImagesEEG,001,203213,
AFNE01.JPG,AFNE01.JPG,AFNE01.JPG,AFNE01.JPG,AFNE01.JPG,AFNE01.JPG,5,3,53,6,,,,,,,,,,,,,,,,,,,,,,,AFSA13.jpg,AFNE03.jpg,AFNE14.jpg,AFSA03.jpg,AFNE03.jpg,FN,3,num_6,32,num_4,1.08347485936,,,2018_Mar_08_1659,60.004099338,FEMA4ImagesEEG,001,203213,
AFNE01.JPG,AFNE01.JPG,AFNE01.JPG,AFNE01.JPG,AFNE01.JPG,AFNE01.JPG,5,4,54,8,,,,,,,,,,,,,,,,,,,,,,,AFNE16.jpg,AFSA09.jpg,AFSA01.jpg,AFNE03.jpg,AFSA09.jpg,FS,4,num_6,16,num_6,1.06662772899,,,2018_Mar_08_1659,60.004099338,FEMA4ImagesEEG,001,203213,
AFNE01.JPG,AFNE01.JPG,AFNE01.JPG,AFNE01.JPG,AFNE01.JPG,AFNE01.JPG,5,5,55,7,,,,,,,,,,,,,,,,,,,,,,,AFSA11.jpg,AFNE09.jpg,AFNE07.jpg,AFSA03.jpg,AFNE09.jpg,FN,3,num_6,32,num_2,0.900133459363,,,2018_Mar_08_1659,60.004099338,FEMA4ImagesEEG,001,203213,
AFNE01.JPG,AFNE01.JPG,AFNE01.JPG,AFNE01.JPG,AFNE01.JPG,AFNE01.JPG,5,6,56,0,,,,,,,,,,,,,,,,,,,,,,,AFSA04.jpg,AFNE06.jpg,AFSA05.jpg,AFNE17.jpg,AFSA04.jpg,FS,4,num_8,32,num_6,1.10010356666,,,2018_Mar_08_1659,60.004099338,FEMA4ImagesEEG,001,203213,
AFNE01.JPG,AFNE01.JPG,AFNE01.JPG,AFNE01.JPG,AFNE01.JPG,AFNE01.JPG,5,7,57,3,,,,,,,,,,,,,,,,,,,,,,,AFNE09.jpg,AFNE08.jpg,AFSA18.jpg,AFSA08.jpg,AFSA08.jpg,FS,4,num_4,16,num_4,1.01680896268,,,2018_Mar_08_1659,60.004099338,FEMA4ImagesEEG,001,203213,
AFNE01.JPG,AFNE01.JPG,AFNE01.JPG,AFNE01.JPG,AFNE01.JPG,AFNE01.JPG,5,8,58,2,,,,,,,,,,,,,,,,,,,,,,,AFNE03.jpg,AFNE13.jpg,AFSA16.jpg,AFSA03.jpg,AFNE13.jpg,FN,3,num_6,32,num_2,1.06679451303,,,2018_Mar_08_1659,60.004099338,FEMA4ImagesEEG,001,203213,
AFNE01.JPG,AFNE01.JPG,AFNE01.JPG,AFNE01.JPG,AFNE01.JPG,AFNE01.JPG,5,9,59,9,,,,,,,,,,,,,,,,,,,,,,,AFSA08.jpg,AFNE05.jpg,AFNE03.jpg,AFSA10.jpg,AFNE05.jpg,FN,3,num_6,16,num_6,0.966793903848,,,2018_Mar_08_1659,60.004099338,FEMA4ImagesEEG,001,203213,
,,,,,,,,,,,,,,,,,,,,,,,,,,,,,,,,,,,,,,,,,,,space,2.31667864625,2018_Mar_08_1659,60.004099338,FEMA4ImagesEEG,001,203213,
AFNE01.JPG,AFNE01.JPG,AFNE01.JPG,AFNE01.JPG,AFNE01.JPG,AFNE01.JPG,,,,,0,0,0,5,,,,,,,,,,,,,,,,,,,AMNE13.jpg,AMNE20.jpg,AMSA13.jpg,AMSA01.jpg,AMNE20.jpg,MN,1,num_6,16,num_6,0.899849284673,,,2018_Mar_08_1659,60.004099338,FEMA4ImagesEEG,001,203213,
AFNE01.JPG,AFNE01.JPG,AFNE01.JPG,AFNE01.JPG,AFNE01.JPG,AFNE01.JPG,,,,,0,1,1,1,,,,,,,,,,,,,,,,,,,AMNE15.jpg,AMNE07.jpg,AMSA13.jpg,AMSA04.jpg,AMSA04.jpg,MS,2,num_4,32,num_8,1.01678137877,,,2018_Mar_08_1659,60.004099338,FEMA4ImagesEEG,001,203213,
AFNE01.JPG,AFNE01.JPG,AFNE01.JPG,AFNE01.JPG,AFNE01.JPG,AFNE01.JPG,,,,,0,2,2,4,,,,,,,,,,,,,,,,,,,AMNE09.jpg,AMSA05.jpg,AMNE17.jpg,AMSA09.jpg,AMSA05.jpg,MS,2,num_6,32,num_2,1.05014142976,,,2018_Mar_08_1659,60.004099338,FEMA4ImagesEEG,001,203213,
AFNE01.JPG,AFNE01.JPG,AFNE01.JPG,AFNE01.JPG,AFNE01.JPG,AFNE01.JPG,,,,,0,3,3,7,,,,,,,,,,,,,,,,,,,AMSA12.jpg,AMSA14.jpg,AMNE18.jpg,AMNE17.jpg,AMSA12.jpg,MS,2,num_8,32,num_2,1.46697848896,,,2018_Mar_08_1659,60.004099338,FEMA4ImagesEEG,001,203213,
AFNE01.JPG,AFNE01.JPG,AFNE01.JPG,AFNE01.JPG,AFNE01.JPG,AFNE01.JPG,,,,,0,4,4,2,,,,,,,,,,,,,,,,,,,AMNE05.jpg,AMNE03.jpg,AMSA07.jpg,AMSA08.jpg,AMSA08.jpg,MS,2,num_4,16,num_4,1.18350112787,,,2018_Mar_08_1659,60.004099338,FEMA4ImagesEEG,001,203213,
AFNE01.JPG,AFNE01.JPG,AFNE01.JPG,AFNE01.JPG,AFNE01.JPG,AFNE01.JPG,,,,,0,5,5,0,,,,,,,,,,,,,,,,,,,AMSA12.jpg,AMNE08.jpg,AMSA13.jpg,AMNE18.jpg,AMSA12.jpg,MS,2,num_8,32,num_4,1.1000968311,,,2018_Mar_08_1659,60.004099338,FEMA4ImagesEEG,001,203213,
AFNE01.JPG,AFNE01.JPG,AFNE01.JPG,AFNE01.JPG,AFNE01.JPG,AFNE01.JPG,,,,,0,6,6,6,,,,,,,,,,,,,,,,,,,AMSA09.jpg,AMNE18.jpg,AMSA16.jpg,AMNE07.jpg,AMNE07.jpg,MN,1,num_4,16,num_4,1.25015227101,,,2018_Mar_08_1659,60.004099338,FEMA4ImagesEEG,001,203213,
AFNE01.JPG,AFNE01.JPG,AFNE01.JPG,AFNE01.JPG,AFNE01.JPG,AFNE01.JPG,,,,,0,7,7,3,,,,,,,,,,,,,,,,,,,AMSA20.jpg,AMNE13.jpg,AMSA09.jpg,AMNE06.jpg,AMNE06.jpg,MN,1,num_4,16,num_4,1.28346421081,,,2018_Mar_08_1659,60.004099338,FEMA4ImagesEEG,001,203213,
AFNE01.JPG,AFNE01.JPG,AFNE01.JPG,AFNE01.JPG,AFNE01.JPG,AFNE01.JPG,,,,,0,8,8,9,,,,,,,,,,,,,,,,,,,AMNE12.jpg,AMNE14.jpg,AMSA11.jpg,AMSA03.jpg,AMSA03.jpg,MS,2,num_4,32,num_6,1.5833592331,,,2018_Mar_08_1659,60.004099338,FEMA4ImagesEEG,001,203213,
AFNE01.JPG,AFNE01.JPG,AFNE01.JPG,AFNE01.JPG,AFNE01.JPG,AFNE01.JPG,,,,,0,9,9,8,,,,,,,,,,,,,,,,,,,AMSA13.jpg,AMSA15.jpg,AMNE01.jpg,AMNE04.jpg,AMSA13.jpg,MS,2,num_8,16,num_8,1.16679704702,,,2018_Mar_08_1659,60.004099338,FEMA4ImagesEEG,001,203213,
AFNE01.JPG,AFNE01.JPG,AFNE01.JPG,AFNE01.JPG,AFNE01.JPG,AFNE01.JPG,,,,,1,0,10,3,,,,,,,,,,,,,,,,,,,AMNE18.jpg,AMSA08.jpg,AMSA09.jpg,AMNE01.jpg,AMSA09.jpg,MS,2,num_2,16,num_2,0.933462719433,,,2018_Mar_08_1659,60.004099338,FEMA4ImagesEEG,001,203213,
AFNE01.JPG,AFNE01.JPG,AFNE01.JPG,AFNE01.JPG,AFNE01.JPG,AFNE01.JPG,,,,,1,1,11,9,,,,,,,,,,,,,,,,,,,AMNE19.jpg,AMSA07.jpg,AMSA04.jpg,AMNE15.jpg,AMNE19.jpg,MN,1,num_8,32,num_6,1.01680607582,,,2018_Mar_08_1659,60.004099338,FEMA4ImagesEEG,001,203213,
AFNE01.JPG,AFNE01.JPG,AFNE01.JPG,AFNE01.JPG,AFNE01.JPG,AFNE01.JPG,,,,,1,2,12,0,,,,,,,,,,,,,,,,,,,AMSA18.jpg,AMSA03.jpg,AMNE19.jpg,AMNE16.jpg,AMNE19.jpg,MN,1,num_2,16,num_2,1.20009166724,,,2018_Mar_08_1659,60.004099338,FEMA4ImagesEEG,001,203213,
AFNE01.JPG,AFNE01.JPG,AFNE01.JPG,AFNE01.JPG,AFNE01.JPG,AFNE01.JPG,,,,,1,3,13,2,,,,,,,,,,,,,,,,,,,AMNE08.jpg,AMNE11.jpg,AMSA04.jpg,AMSA19.jpg,AMSA04.jpg,MS,2,num_2,16,num_2,1.01711911708,,,2018_Mar_08_1659,60.004099338,FEMA4ImagesEEG,001,203213,
AFNE01.JPG,AFNE01.JPG,AFNE01.JPG,AFNE01.JPG,AFNE01.JPG,AFNE01.JPG,,,,,1,4,14,1,,,,,,,,,,,,,,,,,,,AMNE06.jpg,AMSA01.jpg,AMNE13.jpg,AMSA08.jpg,AMNE13.jpg,MN,1,num_2,16,num_2,0.983438968658,,,2018_Mar_08_1659,60.004099338,FEMA4ImagesEEG,001,203213,
AFNE01.JPG,AFNE01.JPG,AFNE01.JPG,AFNE01.JPG,AFNE01.JPG,AFNE01.JPG,,,,,1,5,15,8,,,,,,,,,,,,,,,,,,,AMSA15.jpg,AMNE14.jpg,AMNE03.jpg,AMSA12.jpg,AMSA15.jpg,MS,2,num_8,16,num_8,1.80008858792,,,2018_Mar_08_1659,60.004099338,FEMA4ImagesEEG,001,203213,
AFNE01.JPG,AFNE01.JPG,AFNE01.JPG,AFNE01.JPG,AFNE01.JPG,AFNE01.JPG,,,,,1,6,16,7,,,,,,,,,,,,,,,,,,,AMSA18.jpg,AMNE17.jpg,AMSA17.jpg,AMNE02.jpg,AMSA17.jpg,MS,2,num_2,32,num_4,1.25010159402,,,2018_Mar_08_1659,60.004099338,FEMA4ImagesEEG,001,203213,
AFNE01.JPG,AFNE01.JPG,AFNE01.JPG,AFNE01.JPG,AFNE01.JPG,AFNE01.JPG,,,,,1,7,17,5,,,,,,,,,,,,,,,,,,,AMNE05.jpg,AMSA04.jpg,AMNE14.jpg,AMSA15.jpg,AMNE14.jpg,MN,1,num_2,16,num_2,1.10021710815,,,2018_Mar_08_1659,60.004099338,FEMA4ImagesEEG,001,203213,
AFNE01.JPG,AFNE01.JPG,AFNE01.JPG,AFNE01.JPG,AFNE01.JPG,AFNE01.JPG,,,,,1,8,18,6,,,,,,,,,,,,,,,,,,,AMNE01.jpg,AMSA13.jpg,AMSA17.jpg,AMNE12.jpg,AMNE01.jpg,MN,1,num_8,16,num_8,1.33328939206,,,2018_Mar_08_1659,60.004099338,FEMA4ImagesEEG,001,203213,
AFNE01.JPG,AFNE01.JPG,AFNE01.JPG,AFNE01.JPG,AFNE01.JPG,AFNE01.JPG,,,,,1,9,19,4,,,,,,,,,,,,,,,,,,,AMNE11.jpg,AMNE09.jpg,AMSA05.jpg,AMSA03.jpg,AMSA05.jpg,MS,2,num_2,16,num_2,1.03343831119,,,2018_Mar_08_1659,60.004099338,FEMA4ImagesEEG,001,203213,
AFNE01.JPG,AFNE01.JPG,AFNE01.JPG,AFNE01.JPG,AFNE01.JPG,AFNE01.JPG,,,,,2,0,20,6,,,,,,,,,,,,,,,,,,,AMNE07.jpg,AMSA19.jpg,AMNE08.jpg,AMSA05.jpg,AMNE07.jpg,MN,1,num_8,32,num_6,1.83338288753,,,2018_Mar_08_1659,60.004099338,FEMA4ImagesEEG,001,203213,
AFNE01.JPG,AFNE01.JPG,AFNE01.JPG,AFNE01.JPG,AFNE01.JPG,AFNE01.JPG,,,,,2,1,21,7,,,,,,,,,,,,,,,,,,,AMNE15.jpg,AMSA13.jpg,AMSA04.jpg,AMNE17.jpg,AMNE17.jpg,MN,1,num_4,16,num_4,0.833483278751,,,2018_Mar_08_1659,60.004099338,FEMA4ImagesEEG,001,203213,
AFNE01.JPG,AFNE01.JPG,AFNE01.JPG,AFNE01.JPG,AFNE01.JPG,AFNE01.JPG,,,,,2,2,22,9,,,,,,,,,,,,,,,,,,,AMNE13.jpg,AMSA08.jpg,AMSA15.jpg,AMNE05.jpg,AMNE05.jpg,MN,1,num_4,32,num_2,1.83341656509,,,2018_Mar_08_1659,60.004099338,FEMA4ImagesEEG,001,203213,
AFNE01.JPG,AFNE01.JPG,AFNE01.JPG,AFNE01.JPG,AFNE01.JPG,AFNE01.JPG,,,,,2,3,23,3,,,,,,,,,,,,,,,,,,,AMSA14.jpg,AMNE20.jpg,AMNE17.jpg,AMSA17.jpg,AMNE17.jpg,MN,1,num_2,32,num_4,1.2501490633,,,2018_Mar_08_1659,60.004099338,FEMA4ImagesEEG,001,203213,
AFNE01.JPG,AFNE01.JPG,AFNE01.JPG,AFNE01.JPG,AFNE01.JPG,AFNE01.JPG,,,,,2,4,24,4,,,,,,,,,,,,,,,,,,,AMSA17.jpg,AMNE16.jpg,AMNE19.jpg,AMSA10.jpg,AMNE16.jpg,MN,1,num_6,32,num_4,1.43372684787,,,2018_Mar_08_1659,60.004099338,FEMA4ImagesEEG,001,203213,
AFNE01.JPG,AFNE01.JPG,AFNE01.JPG,AFNE01.JPG,AFNE01.JPG,AFNE01.JPG,,,,,2,5,25,0,,,,,,,,,,,,,,,,,,,AMSA06.jpg,AMSA08.jpg,AMNE11.jpg,AMNE18.jpg,AMNE18.jpg,MN,1,num_4,32,num_6,1.05011929874,,,2018_Mar_08_1659,60.004099338,FEMA4ImagesEEG,001,203213,
AFNE01.JPG,AFNE01.JPG,AFNE01.JPG,AFNE01.JPG,AFNE01.JPG,AFNE01.JPG,,,,,2,6,26,2,,,,,,,,,,,,,,,,,,,AMNE10.jpg,AMNE05.jpg,AMSA05.jpg,AMSA07.jpg,AMSA05.jpg,MS,2,num_2,32,num_4,1.25012725312,,,2018_Mar_08_1659,60.004099338,FEMA4ImagesEEG,001,203213,
AFNE01.JPG,AFNE01.JPG,AFNE01.JPG,AFNE01.JPG,AFNE01.JPG,AFNE01.JPG,,,,,2,7,27,5,,,,,,,,,,,,,,,,,,,AMSA12.jpg,AMSA06.jpg,AMNE17.jpg,AMNE20.jpg,AMSA12.jpg,MS,2,num_8,16,num_8,1.18341773562,,,2018_Mar_08_1659,60.004099338,FEMA4ImagesEEG,001,203213,
AFNE01.JPG,AFNE01.JPG,AFNE01.JPG,AFNE01.JPG,AFNE01.JPG,AFNE01.JPG,,,,,2,8,28,1,,,,,,,,,,,,,,,,,,,AMNE19.jpg,AMNE03.jpg,AMSA02.jpg,AMSA03.jpg,AMNE03.jpg,MN,1,num_6,16,num_6,1.78345378675,,,2018_Mar_08_1659,60.004099338,FEMA4ImagesEEG,001,203213,
AFNE01.JPG,AFNE01.JPG,AFNE01.JPG,AFNE01.JPG,AFNE01.JPG,AFNE01.JPG,,,,,2,9,29,8,,,,,,,,,,,,,,,,,,,AMSA14.jpg,AMNE19.jpg,AMSA07.jpg,AMNE09.jpg,AMSA07.jpg,MS,2,num_2,32,num_4,1.31671937997,,,2018_Mar_08_1659,60.004099338,FEMA4ImagesEEG,001,203213,
AFNE01.JPG,AFNE01.JPG,AFNE01.JPG,AFNE01.JPG,AFNE01.JPG,AFNE01.JPG,,,,,3,0,30,7,,,,,,,,,,,,,,,,,,,AMNE17.jpg,AMSA17.jpg,AMSA08.jpg,AMNE19.jpg,AMSA17.jpg,MS,2,num_6,16,num_6,0.900162325939,,,2018_Mar_08_1659,60.004099338,FEMA4ImagesEEG,001,203213,
AFNE01.JPG,AFNE01.JPG,AFNE01.JPG,AFNE01.JPG,AFNE01.JPG,AFNE01.JPG,,,,,3,1,31,8,,,,,,,,,,,,,,,,,,,AMNE06.jpg,AMNE09.jpg,AMSA09.jpg,AMSA18.jpg,AMSA09.jpg,MS,2,num_2,16,num_2,1.466600338,,,2018_Mar_08_1659,60.004099338,FEMA4ImagesEEG,001,203213,
AFNE01.JPG,AFNE01.JPG,AFNE01.JPG,AFNE01.JPG,AFNE01.JPG,AFNE01.JPG,,,,,3,2,32,1,,,,,,,,,,,,,,,,,,,AMNE06.jpg,AMSA10.jpg,AMNE14.jpg,AMSA04.jpg,AMSA04.jpg,MS,2,num_4,16,num_4,1.1334716361,,,2018_Mar_08_1659,60.004099338,FEMA4ImagesEEG,001,203213,
AFNE01.JPG,AFNE01.JPG,AFNE01.JPG,AFNE01.JPG,AFNE01.JPG,AFNE01.JPG,,,,,3,3,33,9,,,,,,,,,,,,,,,,,,,AMSA10.jpg,AMNE11.jpg,AMSA13.jpg,AMNE04.jpg,AMNE11.jpg,MN,1,num_6,32,num_2,1.033275055,,,2018_Mar_08_1659,60.004099338,FEMA4ImagesEEG,001,203213,
AFNE01.JPG,AFNE01.JPG,AFNE01.JPG,AFNE01.JPG,AFNE01.JPG,AFNE01.JPG,,,,,3,4,34,6,,,,,,,,,,,,,,,,,,,AMSA04.jpg,AMSA14.jpg,AMNE09.jpg,AMNE18.jpg,AMNE09.jpg,MN,1,num_2,32,num_8,1.10011415114,,,2018_Mar_08_1659,60.004099338,FEMA4ImagesEEG,001,203213,
AFNE01.JPG,AFNE01.JPG,AFNE01.JPG,AFNE01.JPG,AFNE01.JPG,AFNE01.JPG,,,,,3,5,35,3,,,,,,,,,,,,,,,,,,,AMSA18.jpg,AMSA06.jpg,AMNE16.jpg,AMNE05.jpg,AMSA06.jpg,MS,2,num_6,32,num_2,1.0001122586,,,2018_Mar_08_1659,60.004099338,FEMA4ImagesEEG,001,203213,
AFNE01.JPG,AFNE01.JPG,AFNE01.JPG,AFNE01.JPG,AFNE01.JPG,AFNE01.JPG,,,,,3,6,36,0,,,,,,,,,,,,,,,,,,,AMSA06.jpg,AMNE10.jpg,AMSA16.jpg,AMNE18.jpg,AMSA06.jpg,MS,2,num_8,16,num_8,1.1834110003,,,2018_Mar_08_1659,60.004099338,FEMA4ImagesEEG,001,203213,
AFNE01.JPG,AFNE01.JPG,AFNE01.JPG,AFNE01.JPG,AFNE01.JPG,AFNE01.JPG,,,,,3,7,37,2,,,,,,,,,,,,,,,,,,,AMSA20.jpg,AMSA08.jpg,AMNE20.jpg,AMNE13.jpg,AMNE13.jpg,MN,1,num_4,32,num_2,1.88342424668,,,2018_Mar_08_1659,60.004099338,FEMA4ImagesEEG,001,203213,
AFNE01.JPG,AFNE01.JPG,AFNE01.JPG,AFNE01.JPG,AFNE01.JPG,AFNE01.JPG,,,,,3,8,38,4,,,,,,,,,,,,,,,,,,,AMSA08.jpg,AMNE14.jpg,AMNE06.jpg,AMSA01.jpg,AMSA08.jpg,MS,2,num_8,32,num_6,0.900075084995,,,2018_Mar_08_1659,60.004099338,FEMA4ImagesEEG,001,203213,
AFNE01.JPG,AFNE01.JPG,AFNE01.JPG,AFNE01.JPG,AFNE01.JPG,AFNE01.JPG,,,,,3,9,39,5,,,,,,,,,,,,,,,,,,,AMNE02.jpg,AMSA14.jpg,AMSA04.jpg,AMNE12.jpg,AMNE02.jpg,MN,1,num_8,32,num_2,1.5167632571,,,2018_Mar_08_1659,60.004099338,FEMA4ImagesEEG,001,203213,
AFNE01.JPG,AFNE01.JPG,AFNE01.JPG,AFNE01.JPG,AFNE01.JPG,AFNE01.JPG,,,,,4,0,40,6,,,,,,,,,,,,,,,,,,,AMNE07.jpg,AMNE05.jpg,AMSA08.jpg,AMSA20.jpg,AMSA08.jpg,MS,2,num_2,32,num_4,2.86658641766,,,2018_Mar_08_1659,60.004099338,FEMA4ImagesEEG,001,203213,
AFNE01.JPG,AFNE01.JPG,AFNE01.JPG,AFNE01.JPG,AFNE01.JPG,AFNE01.JPG,,,,,4,1,41,7,,,,,,,,,,,,,,,,,,,AMNE13.jpg,AMSA08.jpg,AMSA06.jpg,AMNE16.jpg,AMNE13.jpg,MN,1,num_8,32,num_6,1.18345237547,,,2018_Mar_08_1659,60.004099338,FEMA4ImagesEEG,001,203213,
AFNE01.JPG,AFNE01.JPG,AFNE01.JPG,AFNE01.JPG,AFNE01.JPG,AFNE01.JPG,,,,,4,2,42,1,,,,,,,,,,,,,,,,,,,AMSA15.jpg,AMNE03.jpg,AMSA19.jpg,AMNE06.jpg,AMNE06.jpg,MN,1,num_4,32,num_8,1.24994731857,,,2018_Mar_08_1659,60.004099338,FEMA4ImagesEEG,001,203213,
AFNE01.JPG,AFNE01.JPG,AFNE01.JPG,AFNE01.JPG,AFNE01.JPG,AFNE01.JPG,,,,,4,3,43,2,,,,,,,,,,,,,,,,,,,AMSA16.jpg,AMNE17.jpg,AMNE14.jpg,AMSA08.jpg,AMNE14.jpg,MN,1,num_2,16,num_2,0.866698997095,,,2018_Mar_08_1659,60.004099338,FEMA4ImagesEEG,001,203213,
AFNE01.JPG,AFNE01.JPG,AFNE01.JPG,AFNE01.JPG,AFNE01.JPG,AFNE01.JPG,,,,,4,4,44,0,,,,,,,,,,,,,,,,,,,AMSA07.jpg,AMSA09.jpg,AMNE11.jpg,AMNE09.jpg,AMNE09.jpg,MN,1,num_4,32,num_6,0.883464339189,,,2018_Mar_08_1659,60.004099338,FEMA4ImagesEEG,001,203213,
AFNE01.JPG,AFNE01.JPG,AFNE01.JPG,AFNE01.JPG,AFNE01.JPG,AFNE01.JPG,,,,,4,5,45,8,,,,,,,,,,,,,,,,,,,AMNE11.jpg,AMSA18.jpg,AMSA05.jpg,AMNE02.jpg,AMSA18.jpg,MS,2,num_6,32,num_4,0.966800639173,,,2018_Mar_08_1659,60.004099338,FEMA4ImagesEEG,001,203213,
AFNE01.JPG,AFNE01.JPG,AFNE01.JPG,AFNE01.JPG,AFNE01.JPG,AFNE01.JPG,,,,,4,6,46,5,,,,,,,,,,,,,,,,,,,AMNE12.jpg,AMNE13.jpg,AMSA07.jpg,AMSA09.jpg,AMNE13.jpg,MN,1,num_6,32,num_2,1.18340907595,,,2018_Mar_08_1659,60.004099338,FEMA4ImagesEEG,001,203213,
AFNE01.JPG,AFNE01.JPG,AFNE01.JPG,AFNE01.JPG,AFNE01.JPG,AFNE01.JPG,,,,,4,7,47,9,,,,,,,,,,,,,,,,,,,AMSA12.jpg,AMNE07.jpg,AMSA06.jpg,AMNE19.jpg,AMNE19.jpg,MN,1,num_4,16,num_4,0.96675028326,,,2018_Mar_08_1659,60.004099338,FEMA4ImagesEEG,001,203213,
AFNE01.JPG,AFNE01.JPG,AFNE01.JPG,AFNE01.JPG,AFNE01.JPG,AFNE01.JPG,,,,,4,8,48,4,,,,,,,,,,,,,,,,,,,AMSA11.jpg,AMNE06.jpg,AMNE12.jpg,AMSA03.jpg,AMNE12.jpg,MN,1,num_2,32,num_8,0.96670249314,,,2018_Mar_08_1659,60.004099338,FEMA4ImagesEEG,001,203213,
AFNE01.JPG,AFNE01.JPG,AFNE01.JPG,AFNE01.JPG,AFNE01.JPG,AFNE01.JPG,,,,,4,9,49,3,,,,,,,,,,,,,,,,,,,AMNE12.jpg,AMSA16.jpg,AMSA09.jpg,AMNE04.jpg,AMSA09.jpg,MS,2,num_2,16,num_2,0.883555749664,,,2018_Mar_08_1659,60.004099338,FEMA4ImagesEEG,001,203213,
AFNE01.JPG,AFNE01.JPG,AFNE01.JPG,AFNE01.JPG,AFNE01.JPG,AFNE01.JPG,,,,,5,0,50,0,,,,,,,,,,,,,,,,,,,AMNE16.jpg,AMSA03.jpg,AMSA19.jpg,AMNE11.jpg,AMNE11.jpg,MN,1,num_4,32,num_8,1.11674863147,,,2018_Mar_08_1659,60.004099338,FEMA4ImagesEEG,001,203213,
AFNE01.JPG,AFNE01.JPG,AFNE01.JPG,AFNE01.JPG,AFNE01.JPG,AFNE01.JPG,,,,,5,1,51,3,,,,,,,,,,,,,,,,,,,AMNE18.jpg,AMNE15.jpg,AMSA19.jpg,AMSA10.jpg,AMNE18.jpg,MN,1,num_8,32,num_6,0.566794031998,,,2018_Mar_08_1659,60.004099338,FEMA4ImagesEEG,001,203213,
AFNE01.JPG,AFNE01.JPG,AFNE01.JPG,AFNE01.JPG,AFNE01.JPG,AFNE01.JPG,,,,,5,2,52,1,,,,,,,,,,,,,,,,,,,AMNE15.jpg,AMSA13.jpg,AMSA19.jpg,AMNE01.jpg,AMNE15.jpg,MN,1,num_8,16,num_8,1.41676393081,,,2018_Mar_08_1659,60.004099338,FEMA4ImagesEEG,001,203213,
AFNE01.JPG,AFNE01.JPG,AFNE01.JPG,AFNE01.JPG,AFNE01.JPG,AFNE01.JPG,,,,,5,3,53,8,,,,,,,,,,,,,,,,,,,AMNE16.jpg,AMNE10.jpg,AMSA12.jpg,AMSA03.jpg,AMSA03.jpg,MS,2,num_4,32,num_2,1.15024307207,,,2018_Mar_08_1659,60.004099338,FEMA4ImagesEEG,001,203213,
AFNE01.JPG,AFNE01.JPG,AFNE01.JPG,AFNE01.JPG,AFNE01.JPG,AFNE01.JPG,,,,,5,4,54,7,,,,,,,,,,,,,,,,,,,AMNE19.jpg,AMNE17.jpg,AMSA10.jpg,AMSA04.jpg,AMNE19.jpg,MN,1,num_8,16,num_8,0.750179694034,,,2018_Mar_08_1659,60.004099338,FEMA4ImagesEEG,001,203213,
AFNE01.JPG,AFNE01.JPG,AFNE01.JPG,AFNE01.JPG,AFNE01.JPG,AFNE01.JPG,,,,,5,5,55,2,,,,,,,,,,,,,,,,,,,AMSA11.jpg,AMNE12.jpg,AMSA10.jpg,AMNE01.jpg,AMNE01.jpg,MN,1,num_4,16,num_4,0.866872196319,,,2018_Mar_08_1659,60.004099338,FEMA4ImagesEEG,001,203213,
AFNE01.JPG,AFNE01.JPG,AFNE01.JPG,AFNE01.JPG,AFNE01.JPG,AFNE01.JPG,,,,,5,6,56,5,,,,,,,,,,,,,,,,,,,AMNE11.jpg,AMNE15.jpg,AMSA08.jpg,AMSA13.jpg,AMSA13.jpg,MS,2,num_4,16,num_4,0.88353265659,,,2018_Mar_08_1659,60.004099338,FEMA4ImagesEEG,001,203213,
AFNE01.JPG,AFNE01.JPG,AFNE01.JPG,AFNE01.JPG,AFNE01.JPG,AFNE01.JPG,,,,,5,7,57,6,,,,,,,,,,,,,,,,,,,AMNE07.jpg,AMSA02.jpg,AMNE15.jpg,AMSA18.jpg,AMNE15.jpg,MN,1,num_2,16,num_2,1.90012319572,,,2018_Mar_08_1659,60.004099338,FEMA4ImagesEEG,001,203213,
AFNE01.JPG,AFNE01.JPG,AFNE01.JPG,AFNE01.JPG,AFNE01.JPG,AFNE01.JPG,,,,,5,8,58,9,,,,,,,,,,,,,,,,,,,AMNE04.jpg,AMSA02.jpg,AMNE17.jpg,AMSA06.jpg,AMNE04.jpg,MN,1,num_8,32,num_6,1.2000826865,,,2018_Mar_08_1659,60.004099338,FEMA4ImagesEEG,001,203213,
AFNE01.JPG,AFNE01.JPG,AFNE01.JPG,AFNE01.JPG,AFNE01.JPG,AFNE01.JPG,,,,,5,9,59,4,,,,,,,,,,,,,,,,,,,AMNE15.jpg,AMSA09.jpg,AMSA11.jpg,AMNE08.jpg,AMNE08.jpg,MN,1,num_4,32,num_2,1.21674250532,,,2018_Mar_08_1659,60.004099338,FEMA4ImagesEEG,001,203213,
,,,,,,,,,,,,,,,,,,,,,,,,,,,,,,,,,,,,,,,,,,,space,4.39996843925,2018_Mar_08_1659,60.004099338,FEMA4ImagesEEG,001,203213,
AFNE01.JPG,AFNE01.JPG,AFNE01.JPG,AFNE01.JPG,AFNE01.JPG,AFNE01.JPG,,,,,,,,,0,0,0,1,,,,,,,,,,,,,,,AFSA12.jpg,AFNE05.jpg,AFNE08.jpg,AFSA20.jpg,AFSA12.jpg,FS,4,num_8,32,num_6,1.0502527263,,,2018_Mar_08_1659,60.004099338,FEMA4ImagesEEG,001,203213,
AFNE01.JPG,AFNE01.JPG,AFNE01.JPG,AFNE01.JPG,AFNE01.JPG,AFNE01.JPG,,,,,,,,,0,1,1,5,,,,,,,,,,,,,,,AFSA13.jpg,AFSA17.jpg,AFNE09.jpg,AFNE06.jpg,AFSA17.jpg,FS,4,num_6,32,num_4,1.33339555655,,,2018_Mar_08_1659,60.004099338,FEMA4ImagesEEG,001,203213,
AFNE01.JPG,AFNE01.JPG,AFNE01.JPG,AFNE01.JPG,AFNE01.JPG,AFNE01.JPG,,,,,,,,,0,2,2,2,,,,,,,,,,,,,,,AFSA04.jpg,AFNE19.jpg,AFSA16.jpg,AFNE17.jpg,AFSA04.jpg,FS,4,num_8,32,num_2,1.58343332377,,,2018_Mar_08_1659,60.004099338,FEMA4ImagesEEG,001,203213,
AFNE01.JPG,AFNE01.JPG,AFNE01.JPG,AFNE01.JPG,AFNE01.JPG,AFNE01.JPG,,,,,,,,,0,3,3,4,,,,,,,,,,,,,,,AFSA12.jpg,AFNE11.jpg,AFNE12.jpg,AFSA02.jpg,AFNE11.jpg,FN,3,num_6,16,num_6,1.08352810191,,,2018_Mar_08_1659,60.004099338,FEMA4ImagesEEG,001,203213,
AFNE01.JPG,AFNE01.JPG,AFNE01.JPG,AFNE01.JPG,AFNE01.JPG,AFNE01.JPG,,,,,,,,,0,4,4,7,,,,,,,,,,,,,,,AFNE16.jpg,AFSA08.jpg,AFSA01.jpg,AFNE14.jpg,AFNE14.jpg,FN,3,num_4,16,num_4,1.38348181942,,,2018_Mar_08_1659,60.004099338,FEMA4ImagesEEG,001,203213,
AFNE01.JPG,AFNE01.JPG,AFNE01.JPG,AFNE01.JPG,AFNE01.JPG,AFNE01.JPG,,,,,,,,,0,5,5,0,,,,,,,,,,,,,,,AFSA10.jpg,AFSA01.jpg,AFNE16.jpg,AFNE13.jpg,AFSA10.jpg,FS,4,num_8,16,num_8,0.733494857326,,,2018_Mar_08_1659,60.004099338,FEMA4ImagesEEG,001,203213,
AFNE01.JPG,AFNE01.JPG,AFNE01.JPG,AFNE01.JPG,AFNE01.JPG,AFNE01.JPG,,,,,,,,,0,6,6,9,,,,,,,,,,,,,,,AFNE15.jpg,AFSA16.jpg,AFNE14.jpg,AFSA01.jpg,AFNE15.jpg,FN,3,num_8,16,num_8,1.00014176662,,,2018_Mar_08_1659,60.004099338,FEMA4ImagesEEG,001,203213,
AFNE01.JPG,AFNE01.JPG,AFNE01.JPG,AFNE01.JPG,AFNE01.JPG,AFNE01.JPG,,,,,,,,,0,7,7,6,,,,,,,,,,,,,,,AFSA12.jpg,AFSA14.jpg,AFNE02.jpg,AFNE01.jpg,AFNE01.jpg,FN,3,num_4,16,num_4,0.916632908862,,,2018_Mar_08_1659,60.004099338,FEMA4ImagesEEG,001,203213,
AFNE01.JPG,AFNE01.JPG,AFNE01.JPG,AFNE01.JPG,AFNE01.JPG,AFNE01.JPG,,,,,,,,,0,8,8,8,,,,,,,,,,,,,,,AFSA10.jpg,AFNE20.jpg,AFNE12.jpg,AFSA09.jpg,AFNE12.jpg,FN,3,num_2,32,num_6,0.666810999159,,,2018_Mar_08_1659,60.004099338,FEMA4ImagesEEG,001,203213,
AFNE01.JPG,AFNE01.JPG,AFNE01.JPG,AFNE01.JPG,AFNE01.JPG,AFNE01.JPG,,,,,,,,,0,9,9,3,,,,,,,,,,,,,,,AFNE16.jpg,AFSA10.jpg,AFNE17.jpg,AFSA04.jpg,AFNE17.jpg,FN,3,num_2,16,num_2,1.03347455454,,,2018_Mar_08_1659,60.004099338,FEMA4ImagesEEG,001,203213,
AFNE01.JPG,AFNE01.JPG,AFNE01.JPG,AFNE01.JPG,AFNE01.JPG,AFNE01.JPG,,,,,,,,,1,0,10,5,,,,,,,,,,,,,,,AFSA17.jpg,AFNE01.jpg,AFSA03.jpg,AFNE09.jpg,AFNE01.jpg,FN,3,num_6,32,num_4,0.850137965754,,,2018_Mar_08_1659,60.004099338,FEMA4ImagesEEG,001,203213,
AFNE01.JPG,AFNE01.JPG,AFNE01.JPG,AFNE01.JPG,AFNE01.JPG,AFNE01.JPG,,,,,,,,,1,1,11,8,,,,,,,,,,,,,,,AFNE01.jpg,AFSA03.jpg,AFSA20.jpg,AFNE05.jpg,AFSA03.jpg,FS,4,num_6,16,num_6,0.766795892501,,,2018_Mar_08_1659,60.004099338,FEMA4ImagesEEG,001,203213,
AFNE01.JPG,AFNE01.JPG,AFNE01.JPG,AFNE01.JPG,AFNE01.JPG,AFNE01.JPG,,,,,,,,,1,2,12,6,,,,,,,,,,,,,,,AFNE16.jpg,AFSA15.jpg,AFNE15.jpg,AFSA11.jpg,AFNE15.jpg,FN,3,num_2,16,num_2,1.64994430379,,,2018_Mar_08_1659,60.004099338,FEMA4ImagesEEG,001,203213,
AFNE01.JPG,AFNE01.JPG,AFNE01.JPG,AFNE01.JPG,AFNE01.JPG,AFNE01.JPG,,,,,,,,,1,3,13,9,,,,,,,,,,,,,,,AFNE10.jpg,AFNE04.jpg,AFSA17.jpg,AFSA04.jpg,AFNE04.jpg,FN,3,num_6,16,num_6,1.06681568199,,,2018_Mar_08_1659,60.004099338,FEMA4ImagesEEG,001,203213,
AFNE01.JPG,AFNE01.JPG,AFNE01.JPG,AFNE01.JPG,AFNE01.JPG,AFNE01.JPG,,,,,,,,,1,4,14,4,,,,,,,,,,,,,,,AFSA14.jpg,AFSA13.jpg,AFNE14.jpg,AFNE19.jpg,AFNE19.jpg,FN,3,num_4,16,num_4,1.11685511679,,,2018_Mar_08_1659,60.004099338,FEMA4ImagesEEG,001,203213,
AFNE01.JPG,AFNE01.JPG,AFNE01.JPG,AFNE01.JPG,AFNE01.JPG,AFNE01.JPG,,,,,,,,,1,5,15,1,,,,,,,,,,,,,,,AFSA10.jpg,AFNE18.jpg,AFSA03.jpg,AFNE10.jpg,AFSA10.jpg,FS,4,num_8,32,num_4,1.18345943163,,,2018_Mar_08_1659,60.004099338,FEMA4ImagesEEG,001,203213,
AFNE01.JPG,AFNE01.JPG,AFNE01.JPG,AFNE01.JPG,AFNE01.JPG,AFNE01.JPG,,,,,,,,,1,6,16,2,,,,,,,,,,,,,,,AFNE13.jpg,AFNE20.jpg,AFSA16.jpg,AFSA11.jpg,AFSA16.jpg,FS,4,num_2,16,num_2,1.10013403674,,,2018_Mar_08_1659,60.004099338,FEMA4ImagesEEG,001,203213,
AFNE01.JPG,AFNE01.JPG,AFNE01.JPG,AFNE01.JPG,AFNE01.JPG,AFNE01.JPG,,,,,,,,,1,7,17,0,,,,,,,,,,,,,,,AFNE02.jpg,AFSA15.jpg,AFSA13.jpg,AFNE17.jpg,AFSA13.jpg,FS,4,num_2,32,num_4,1.0001295784,,,2018_Mar_08_1659,60.004099338,FEMA4ImagesEEG,001,203213,
AFNE01.JPG,AFNE01.JPG,AFNE01.JPG,AFNE01.JPG,AFNE01.JPG,AFNE01.JPG,,,,,,,,,1,8,18,7,,,,,,,,,,,,,,,AFNE03.jpg,AFSA19.jpg,AFSA02.jpg,AFNE19.jpg,AFNE19.jpg,FN,3,num_4,32,num_6,0.483497503679,,,2018_Mar_08_1659,60.004099338,FEMA4ImagesEEG,001,203213,
AFNE01.JPG,AFNE01.JPG,AFNE01.JPG,AFNE01.JPG,AFNE01.JPG,AFNE01.JPG,,,,,,,,,1,9,19,3,,,,,,,,,,,,,,,AFNE09.jpg,AFNE04.jpg,AFSA11.jpg,AFSA10.jpg,AFSA11.jpg,FS,4,num_2,32,num_8,1.16671750369,,,2018_Mar_08_1659,60.004099338,FEMA4ImagesEEG,001,203213,
AFNE01.JPG,AFNE01.JPG,AFNE01.JPG,AFNE01.JPG,AFNE01.JPG,AFNE01.JPG,,,,,,,,,2,0,20,1,,,,,,,,,,,,,,,AFNE07.jpg,AFNE13.jpg,AFSA14.jpg,AFSA12.jpg,AFNE07.jpg,FN,3,num_8,32,num_2,2.00003848854,,,2018_Mar_08_1659,60.004099338,FEMA4ImagesEEG,001,203213,
AFNE01.JPG,AFNE01.JPG,AFNE01.JPG,AFNE01.JPG,AFNE01.JPG,AFNE01.JPG,,,,,,,,,2,1,21,5,,,,,,,,,,,,,,,AFSA20.jpg,AFNE07.jpg,AFSA03.jpg,AFNE11.jpg,AFNE11.jpg,FN,3,num_4,16,num_4,1.00010071206,,,2018_Mar_08_1659,60.004099338,FEMA4ImagesEEG,001,203213,
AFNE01.JPG,AFNE01.JPG,AFNE01.JPG,AFNE01.JPG,AFNE01.JPG,AFNE01.JPG,,,,,,,,,2,2,22,9,,,,,,,,,,,,,,,AFSA04.jpg,AFSA02.jpg,AFNE06.jpg,AFNE04.jpg,AFNE04.jpg,FN,3,num_4,32,num_2,1.26684288075,,,2018_Mar_08_1659,60.004099338,FEMA4ImagesEEG,001,203213,
AFNE01.JPG,AFNE01.JPG,AFNE01.JPG,AFNE01.JPG,AFNE01.JPG,AFNE01.JPG,,,,,,,,,2,3,23,0,,,,,,,,,,,,,,,AFSA05.jpg,AFNE06.jpg,AFNE17.jpg,AFSA15.jpg,AFNE06.jpg,FN,3,num_6,16,num_6,1.05017382442,,,2018_Mar_08_1659,60.004099338,FEMA4ImagesEEG,001,203213,
AFNE01.JPG,AFNE01.JPG,AFNE01.JPG,AFNE01.JPG,AFNE01.JPG,AFNE01.JPG,,,,,,,,,2,4,24,6,,,,,,,,,,,,,,,AFSA16.jpg,AFNE13.jpg,AFNE12.jpg,AFSA18.jpg,AFNE12.jpg,FN,3,num_2,16,num_2,1.06658346695,,,2018_Mar_08_1659,60.004099338,FEMA4ImagesEEG,001,203213,
AFNE01.JPG,AFNE01.JPG,AFNE01.JPG,AFNE01.JPG,AFNE01.JPG,AFNE01.JPG,,,,,,,,,2,5,25,2,,,,,,,,,,,,,,,AFNE09.jpg,AFNE01.jpg,AFSA04.jpg,AFSA18.jpg,AFSA04.jpg,FS,4,num_2,32,num_6,1.06670534774,,,2018_Mar_08_1659,60.004099338,FEMA4ImagesEEG,001,203213,
AFNE01.JPG,AFNE01.JPG,AFNE01.JPG,AFNE01.JPG,AFNE01.JPG,AFNE01.JPG,,,,,,,,,2,6,26,4,,,,,,,,,,,,,,,AFSA12.jpg,AFNE07.jpg,AFNE08.jpg,AFSA05.jpg,AFNE07.jpg,FN,3,num_6,16,num_6,1.18349375087,,,2018_Mar_08_1659,60.004099338,FEMA4ImagesEEG,001,203213,
AFNE01.JPG,AFNE01.JPG,AFNE01.JPG,AFNE01.JPG,AFNE01.JPG,AFNE01.JPG,,,,,,,,,2,7,27,7,,,,,,,,,,,,,,,AFSA18.jpg,AFNE11.jpg,AFSA16.jpg,AFNE09.jpg,AFSA18.jpg,FS,4,num_8,32,num_6,3.44992640638,,,2018_Mar_08_1659,60.004099338,FEMA4ImagesEEG,001,203213,
AFNE01.JPG,AFNE01.JPG,AFNE01.JPG,AFNE01.JPG,AFNE01.JPG,AFNE01.JPG,,,,,,,,,2,8,28,8,,,,,,,,,,,,,,,AFSA12.jpg,AFSA15.jpg,AFNE03.jpg,AFNE16.jpg,AFNE16.jpg,FN,3,num_4,16,num_4,1.75008539669,,,2018_Mar_08_1659,60.004099338,FEMA4ImagesEEG,001,203213,
AFNE01.JPG,AFNE01.JPG,AFNE01.JPG,AFNE01.JPG,AFNE01.JPG,AFNE01.JPG,,,,,,,,,2,9,29,3,,,,,,,,,,,,,,,AFSA01.jpg,AFSA10.jpg,AFNE01.jpg,AFNE15.jpg,AFSA10.jpg,FS,4,num_6,32,num_2,1.10013596108,,,2018_Mar_08_1659,60.004099338,FEMA4ImagesEEG,001,203213,
AFNE01.JPG,AFNE01.JPG,AFNE01.JPG,AFNE01.JPG,AFNE01.JPG,AFNE01.JPG,,,,,,,,,3,0,30,6,,,,,,,,,,,,,,,AFSA13.jpg,AFNE17.jpg,AFSA10.jpg,AFNE01.jpg,AFNE17.jpg,FN,3,num_6,16,num_6,0.966785564553,,,2018_Mar_08_1659,60.004099338,FEMA4ImagesEEG,001,203213,
AFNE01.JPG,AFNE01.JPG,AFNE01.JPG,AFNE01.JPG,AFNE01.JPG,AFNE01.JPG,,,,,,,,,3,1,31,2,,,,,,,,,,,,,,,AFNE09.jpg,AFSA19.jpg,AFSA12.jpg,AFNE20.jpg,AFNE20.jpg,FN,3,num_4,16,num_4,1.2167117144,,,2018_Mar_08_1659,60.004099338,FEMA4ImagesEEG,001,203213,
AFNE01.JPG,AFNE01.JPG,AFNE01.JPG,AFNE01.JPG,AFNE01.JPG,AFNE01.JPG,,,,,,,,,3,2,32,9,,,,,,,,,,,,,,,AFNE15.jpg,AFSA15.jpg,AFSA07.jpg,AFNE07.jpg,AFSA15.jpg,FS,4,num_6,16,num_6,1.4000899992,,,2018_Mar_08_1659,60.004099338,FEMA4ImagesEEG,001,203213,
AFNE01.JPG,AFNE01.JPG,AFNE01.JPG,AFNE01.JPG,AFNE01.JPG,AFNE01.JPG,,,,,,,,,3,3,33,5,,,,,,,,,,,,,,,AFNE03.jpg,AFNE18.jpg,AFSA07.jpg,AFSA11.jpg,AFNE18.jpg,FN,3,num_6,32,num_4,1.5500527455,,,2018_Mar_08_1659,60.004099338,FEMA4ImagesEEG,001,203213,
AFNE01.JPG,AFNE01.JPG,AFNE01.JPG,AFNE01.JPG,AFNE01.JPG,AFNE01.JPG,,,,,,,,,3,4,34,0,,,,,,,,,,,,,,,AFSA01.jpg,AFSA13.jpg,AFNE16.jpg,AFNE05.jpg,AFSA13.jpg,FS,4,num_6,32,num_2,1.51644893317,,,2018_Mar_08_1659,60.004099338,FEMA4ImagesEEG,001,203213,
AFNE01.JPG,AFNE01.JPG,AFNE01.JPG,AFNE01.JPG,AFNE01.JPG,AFNE01.JPG,,,,,,,,,3,5,35,8,,,,,,,,,,,,,,,AFNE06.jpg,AFNE11.jpg,AFSA02.jpg,AFSA18.jpg,AFNE06.jpg,FN,3,num_8,16,num_8,1.33346483624,,,2018_Mar_08_1659,60.004099338,FEMA4ImagesEEG,001,203213,
AFNE01.JPG,AFNE01.JPG,AFNE01.JPG,AFNE01.JPG,AFNE01.JPG,AFNE01.JPG,,,,,,,,,3,6,36,3,,,,,,,,,,,,,,,AFNE06.jpg,AFSA19.jpg,AFSA20.jpg,AFNE14.jpg,AFSA20.jpg,FS,4,num_2,32,num_6,1.08347004815,,,2018_Mar_08_1659,60.004099338,FEMA4ImagesEEG,001,203213,
AFNE01.JPG,AFNE01.JPG,AFNE01.JPG,AFNE01.JPG,AFNE01.JPG,AFNE01.JPG,,,,,,,,,3,7,37,1,,,,,,,,,,,,,,,AFNE20.jpg,AFNE19.jpg,AFSA01.jpg,AFSA03.jpg,AFSA03.jpg,FS,4,num_4,16,num_4,0.600136121735,,,2018_Mar_08_1659,60.004099338,FEMA4ImagesEEG,001,203213,
AFNE01.JPG,AFNE01.JPG,AFNE01.JPG,AFNE01.JPG,AFNE01.JPG,AFNE01.JPG,,,,,,,,,3,8,38,7,,,,,,,,,,,,,,,AFSA16.jpg,AFNE02.jpg,AFSA01.jpg,AFNE17.jpg,AFNE17.jpg,FN,3,num_4,32,num_2,0.616794657661,,,2018_Mar_08_1659,60.004099338,FEMA4ImagesEEG,001,203213,
AFNE01.JPG,AFNE01.JPG,AFNE01.JPG,AFNE01.JPG,AFNE01.JPG,AFNE01.JPG,,,,,,,,,3,9,39,4,,,,,,,,,,,,,,,AFNE20.jpg,AFSA16.jpg,AFNE14.jpg,AFSA13.jpg,AFSA16.jpg,FS,4,num_6,32,num_2,1.48344650608,,,2018_Mar_08_1659,60.004099338,FEMA4ImagesEEG,001,203213,
AFNE01.JPG,AFNE01.JPG,AFNE01.JPG,AFNE01.JPG,AFNE01.JPG,AFNE01.JPG,,,,,,,,,4,0,40,5,,,,,,,,,,,,,,,AFSA12.jpg,AFNE10.jpg,AFNE20.jpg,AFSA08.jpg,AFSA08.jpg,FS,4,num_4,16,num_4,0.6001858362,,,2018_Mar_08_1659,60.004099338,FEMA4ImagesEEG,001,203213,
AFNE01.JPG,AFNE01.JPG,AFNE01.JPG,AFNE01.JPG,AFNE01.JPG,AFNE01.JPG,,,,,,,,,4,1,41,7,,,,,,,,,,,,,,,AFSA19.jpg,AFSA18.jpg,AFNE02.jpg,AFNE13.jpg,AFNE13.jpg,FN,3,num_4,32,num_2,0.566832199926,,,2018_Mar_08_1659,60.004099338,FEMA4ImagesEEG,001,203213,
AFNE01.JPG,AFNE01.JPG,AFNE01.JPG,AFNE01.JPG,AFNE01.JPG,AFNE01.JPG,,,,,,,,,4,2,42,0,,,,,,,,,,,,,,,AFSA01.jpg,AFNE19.jpg,AFNE07.jpg,AFSA17.jpg,AFNE19.jpg,FN,3,num_6,32,num_4,0.816806460731,,,2018_Mar_08_1659,60.004099338,FEMA4ImagesEEG,001,203213,
AFNE01.JPG,AFNE01.JPG,AFNE01.JPG,AFNE01.JPG,AFNE01.JPG,AFNE01.JPG,,,,,,,,,4,3,43,8,,,,,,,,,,,,,,,AFSA11.jpg,AFNE04.jpg,AFSA20.jpg,AFNE09.jpg,AFNE04.jpg,FN,3,num_6,16,num_6,0.816855213139,,,2018_Mar_08_1659,60.004099338,FEMA4ImagesEEG,001,203213,
AFNE01.JPG,AFNE01.JPG,AFNE01.JPG,AFNE01.JPG,AFNE01.JPG,AFNE01.JPG,,,,,,,,,4,4,44,1,,,,,,,,,,,,,,,AFSA04.jpg,AFNE11.jpg,AFSA13.jpg,AFNE10.jpg,AFNE10.jpg,FN,3,num_4,16,num_4,1.13349921955,,,2018_Mar_08_1659,60.004099338,FEMA4ImagesEEG,001,203213,
AFNE01.JPG,AFNE01.JPG,AFNE01.JPG,AFNE01.JPG,AFNE01.JPG,AFNE01.JPG,,,,,,,,,4,5,45,3,,,,,,,,,,,,,,,AFSA09.jpg,AFNE19.jpg,AFNE16.jpg,AFSA11.jpg,AFSA09.jpg,FS,4,num_8,32,num_2,1.10011383006,,,2018_Mar_08_1659,60.004099338,FEMA4ImagesEEG,001,203213,
AFNE01.JPG,AFNE01.JPG,AFNE01.JPG,AFNE01.JPG,AFNE01.JPG,AFNE01.JPG,,,,,,,,,4,6,46,9,,,,,,,,,,,,,,,AFSA04.jpg,AFNE19.jpg,AFSA14.jpg,AFNE18.jpg,AFNE18.jpg,FN,3,num_4,32,num_2,1.11679289327,,,2018_Mar_08_1659,60.004099338,FEMA4ImagesEEG,001,203213,
AFNE01.JPG,AFNE01.JPG,AFNE01.JPG,AFNE01.JPG,AFNE01.JPG,AFNE01.JPG,,,,,,,,,4,7,47,6,,,,,,,,,,,,,,,AFNE04.jpg,AFSA02.jpg,AFNE18.jpg,AFSA11.jpg,AFSA02.jpg,FS,4,num_6,16,num_6,1.06678585312,,,2018_Mar_08_1659,60.004099338,FEMA4ImagesEEG,001,203213,
AFNE01.JPG,AFNE01.JPG,AFNE01.JPG,AFNE01.JPG,AFNE01.JPG,AFNE01.JPG,,,,,,,,,4,8,48,2,,,,,,,,,,,,,,,AFNE17.jpg,AFSA15.jpg,AFNE18.jpg,AFSA17.jpg,AFNE17.jpg,FN,3,num_8,16,num_8,1.23342766264,,,2018_Mar_08_1659,60.004099338,FEMA4ImagesEEG,001,203213,
AFNE01.JPG,AFNE01.JPG,AFNE01.JPG,AFNE01.JPG,AFNE01.JPG,AFNE01.JPG,,,,,,,,,4,9,49,4,,,,,,,,,,,,,,,AFSA06.jpg,AFSA05.jpg,AFNE04.jpg,AFNE09.jpg,AFSA05.jpg,FS,4,num_6,32,num_2,0.900133780204,,,2018_Mar_08_1659,60.004099338,FEMA4ImagesEEG,001,203213,
AFNE01.JPG,AFNE01.JPG,AFNE01.JPG,AFNE01.JPG,AFNE01.JPG,AFNE01.JPG,,,,,,,,,5,0,50,5,,,,,,,,,,,,,,,AFNE03.jpg,AFNE09.jpg,AFSA07.jpg,AFSA03.jpg,AFNE09.jpg,FN,3,num_6,16,num_6,1.01687503466,,,2018_Mar_08_1659,60.004099338,FEMA4ImagesEEG,001,203213,
AFNE01.JPG,AFNE01.JPG,AFNE01.JPG,AFNE01.JPG,AFNE01.JPG,AFNE01.JPG,,,,,,,,,5,1,51,0,,,,,,,,,,,,,,,AFNE09.jpg,AFSA05.jpg,AFSA16.jpg,AFNE11.jpg,AFNE09.jpg,FN,3,num_8,16,num_8,1.11680219485,,,2018_Mar_08_1659,60.004099338,FEMA4ImagesEEG,001,203213,
AFNE01.JPG,AFNE01.JPG,AFNE01.JPG,AFNE01.JPG,AFNE01.JPG,AFNE01.JPG,,,,,,,,,5,2,52,7,,,,,,,,,,,,,,,AFSA20.jpg,AFNE02.jpg,AFNE09.jpg,AFSA03.jpg,AFSA20.jpg,FS,4,num_8,32,num_4,1.18348252517,,,2018_Mar_08_1659,60.004099338,FEMA4ImagesEEG,001,203213,
AFNE01.JPG,AFNE01.JPG,AFNE01.JPG,AFNE01.JPG,AFNE01.JPG,AFNE01.JPG,,,,,,,,,5,3,53,6,,,,,,,,,,,,,,,AFNE10.jpg,AFNE18.jpg,AFSA04.jpg,AFSA03.jpg,AFNE10.jpg,FN,3,num_8,32,num_6,1.00013150298,,,2018_Mar_08_1659,60.004099338,FEMA4ImagesEEG,001,203213,
AFNE01.JPG,AFNE01.JPG,AFNE01.JPG,AFNE01.JPG,AFNE01.JPG,AFNE01.JPG,,,,,,,,,5,4,54,4,,,,,,,,,,,,,,,AFNE03.jpg,AFSA09.jpg,AFSA13.jpg,AFNE20.jpg,AFNE03.jpg,FN,3,num_8,32,num_2,1.18342318828,,,2018_Mar_08_1659,60.004099338,FEMA4ImagesEEG,001,203213,
AFNE01.JPG,AFNE01.JPG,AFNE01.JPG,AFNE01.JPG,AFNE01.JPG,AFNE01.JPG,,,,,,,,,5,5,55,1,,,,,,,,,,,,,,,AFSA20.jpg,AFNE16.jpg,AFSA13.jpg,AFNE04.jpg,AFSA20.jpg,FS,4,num_8,16,num_8,0.883470753906,,,2018_Mar_08_1659,60.004099338,FEMA4ImagesEEG,001,203213,
AFNE01.JPG,AFNE01.JPG,AFNE01.JPG,AFNE01.JPG,AFNE01.JPG,AFNE01.JPG,,,,,,,,,5,6,56,2,,,,,,,,,,,,,,,AFSA04.jpg,AFSA13.jpg,AFNE03.jpg,AFNE11.jpg,AFSA04.jpg,FS,4,num_8,32,num_6,0.866481856909,,,2018_Mar_08_1659,60.004099338,FEMA4ImagesEEG,001,203213,
AFNE01.JPG,AFNE01.JPG,AFNE01.JPG,AFNE01.JPG,AFNE01.JPG,AFNE01.JPG,,,,,,,,,5,7,57,9,,,,,,,,,,,,,,,AFNE11.jpg,AFSA17.jpg,AFNE02.jpg,AFSA01.jpg,AFSA17.jpg,FS,4,num_6,32,num_8,1.33346387418,,,2018_Mar_08_1659,60.004099338,FEMA4ImagesEEG,001,203213,
AFNE01.JPG,AFNE01.JPG,AFNE01.JPG,AFNE01.JPG,AFNE01.JPG,AFNE01.JPG,,,,,,,,,5,8,58,3,,,,,,,,,,,,,,,AFNE09.jpg,AFSA06.jpg,AFSA10.jpg,AFNE07.jpg,AFNE07.jpg,FN,3,num_4,16,num_4,1.11674414109,,,2018_Mar_08_1659,60.004099338,FEMA4ImagesEEG,001,203213,
AFNE01.JPG,AFNE01.JPG,AFNE01.JPG,AFNE01.JPG,AFNE01.JPG,AFNE01.JPG,,,,,,,,,5,9,59,8,,,,,,,,,,,,,,,AFSA20.jpg,AFNE20.jpg,AFSA09.jpg,AFNE05.jpg,AFSA20.jpg,FS,4,num_8,32,num_6,1.83367347694,,,2018_Mar_08_1659,60.004099338,FEMA4ImagesEEG,001,203213,
,,,,,,,,,,,,,,,,,,,,,,,,,,,,,,,,,,,,,,,,,,,space,6.99959618971,2018_Mar_08_1659,60.004099338,FEMA4ImagesEEG,001,203213,
AFNE01.JPG,AFNE01.JPG,AFNE01.JPG,AFNE01.JPG,AFNE01.JPG,AFNE01.JPG,,,,,,,,,,,,,0,0,0,6,,,,,,,,,,,AMSA20.jpg,AMNE05.jpg,AMNE06.jpg,AMSA03.jpg,AMSA20.jpg,MS,2,num_8,16,num_8,0.933445078786,,,2018_Mar_08_1659,60.004099338,FEMA4ImagesEEG,001,203213,
AFNE01.JPG,AFNE01.JPG,AFNE01.JPG,AFNE01.JPG,AFNE01.JPG,AFNE01.JPG,,,,,,,,,,,,,0,1,1,7,,,,,,,,,,,AMSA10.jpg,AMNE08.jpg,AMNE07.jpg,AMSA15.jpg,AMNE07.jpg,MN,1,num_2,16,num_2,1.01672524959,,,2018_Mar_08_1659,60.004099338,FEMA4ImagesEEG,001,203213,
AFNE01.JPG,AFNE01.JPG,AFNE01.JPG,AFNE01.JPG,AFNE01.JPG,AFNE01.JPG,,,,,,,,,,,,,0,2,2,3,,,,,,,,,,,AMSA10.jpg,AMNE18.jpg,AMSA15.jpg,AMNE10.jpg,AMSA15.jpg,MS,2,num_2,32,num_6,1.08347485936,,,2018_Mar_08_1659,60.004099338,FEMA4ImagesEEG,001,203213,
AFNE01.JPG,AFNE01.JPG,AFNE01.JPG,AFNE01.JPG,AFNE01.JPG,AFNE01.JPG,,,,,,,,,,,,,0,3,3,1,,,,,,,,,,,AMSA07.jpg,AMSA05.jpg,AMNE07.jpg,AMNE18.jpg,AMSA07.jpg,MS,2,num_8,32,num_2,1.1001141509,,,2018_Mar_08_1659,60.004099338,FEMA4ImagesEEG,001,203213,
AFNE01.JPG,AFNE01.JPG,AFNE01.JPG,AFNE01.JPG,AFNE01.JPG,AFNE01.JPG,,,,,,,,,,,,,0,4,4,2,,,,,,,,,,,AMNE06.jpg,AMSA04.jpg,AMNE13.jpg,AMSA14.jpg,AMNE06.jpg,MN,1,num_8,32,num_2,1.1834536586,,,2018_Mar_08_1659,60.004099338,FEMA4ImagesEEG,001,203213,
AFNE01.JPG,AFNE01.JPG,AFNE01.JPG,AFNE01.JPG,AFNE01.JPG,AFNE01.JPG,,,,,,,,,,,,,0,5,5,5,,,,,,,,,,,AMSA17.jpg,AMSA20.jpg,AMNE05.jpg,AMNE13.jpg,AMNE13.jpg,MN,1,num_4,16,num_4,0.750170713291,,,2018_Mar_08_1659,60.004099338,FEMA4ImagesEEG,001,203213,
AFNE01.JPG,AFNE01.JPG,AFNE01.JPG,AFNE01.JPG,AFNE01.JPG,AFNE01.JPG,,,,,,,,,,,,,0,6,6,8,,,,,,,,,,,AMNE08.jpg,AMSA08.jpg,AMNE02.jpg,AMSA20.jpg,AMNE08.jpg,MN,1,num_8,16,num_8,0.75017552427,,,2018_Mar_08_1659,60.004099338,FEMA4ImagesEEG,001,203213,
AFNE01.JPG,AFNE01.JPG,AFNE01.JPG,AFNE01.JPG,AFNE01.JPG,AFNE01.JPG,,,,,,,,,,,,,0,7,7,4,,,,,,,,,,,AMNE15.jpg,AMSA01.jpg,AMNE19.jpg,AMSA12.jpg,AMNE15.jpg,MN,1,num_8,32,num_4,0.650008772267,,,2018_Mar_08_1659,60.004099338,FEMA4ImagesEEG,001,203213,
AFNE01.JPG,AFNE01.JPG,AFNE01.JPG,AFNE01.JPG,AFNE01.JPG,AFNE01.JPG,,,,,,,,,,,,,0,8,8,9,,,,,,,,,,,AMNE16.jpg,AMNE18.jpg,AMSA02.jpg,AMSA11.jpg,AMSA02.jpg,MS,2,num_2,16,num_2,0.850438177353,,,2018_Mar_08_1659,60.004099338,FEMA4ImagesEEG,001,203213,
AFNE01.JPG,AFNE01.JPG,AFNE01.JPG,AFNE01.JPG,AFNE01.JPG,AFNE01.JPG,,,,,,,,,,,,,0,9,9,0,,,,,,,,,,,AMNE08.jpg,AMSA15.jpg,AMNE07.jpg,AMSA06.jpg,AMNE08.jpg,MN,1,num_8,32,num_6,0.816712484229,,,2018_Mar_08_1659,60.004099338,FEMA4ImagesEEG,001,203213,
AFNE01.JPG,AFNE01.JPG,AFNE01.JPG,AFNE01.JPG,AFNE01.JPG,AFNE01.JPG,,,,,,,,,,,,,1,0,10,9,,,,,,,,,,,AMSA17.jpg,AMSA11.jpg,AMNE10.jpg,AMNE08.jpg,AMNE08.jpg,MN,1,num_4,16,num_4,0.533555541188,,,2018_Mar_08_1659,60.004099338,FEMA4ImagesEEG,001,203213,
AFNE01.JPG,AFNE01.JPG,AFNE01.JPG,AFNE01.JPG,AFNE01.JPG,AFNE01.JPG,,,,,,,,,,,,,1,1,11,0,,,,,,,,,,,AMSA14.jpg,AMSA06.jpg,AMNE06.jpg,AMNE12.jpg,AMNE12.jpg,MN,1,num_4,32,num_2,1.35013235291,,,2018_Mar_08_1659,60.004099338,FEMA4ImagesEEG,001,203213,
AFNE01.JPG,AFNE01.JPG,AFNE01.JPG,AFNE01.JPG,AFNE01.JPG,AFNE01.JPG,,,,,,,,,,,,,1,2,12,6,,,,,,,,,,,AMSA01.jpg,AMSA20.jpg,AMNE09.jpg,AMNE19.jpg,AMSA01.jpg,MS,2,num_8,16,num_8,0.866789766122,,,2018_Mar_08_1659,60.004099338,FEMA4ImagesEEG,001,203213,
AFNE01.JPG,AFNE01.JPG,AFNE01.JPG,AFNE01.JPG,AFNE01.JPG,AFNE01.JPG,,,,,,,,,,,,,1,3,13,8,,,,,,,,,,,AMSA18.jpg,AMNE09.jpg,AMSA11.jpg,AMNE02.jpg,AMNE02.jpg,MN,1,num_4,32,num_6,0.683504174929,,,2018_Mar_08_1659,60.004099338,FEMA4ImagesEEG,001,203213,
AFNE01.JPG,AFNE01.JPG,AFNE01.JPG,AFNE01.JPG,AFNE01.JPG,AFNE01.JPG,,,,,,,,,,,,,1,4,14,2,,,,,,,,,,,AMNE09.jpg,AMSA02.jpg,AMNE14.jpg,AMSA05.jpg,AMSA05.jpg,MS,2,num_4,16,num_4,0.633523435099,,,2018_Mar_08_1659,60.004099338,FEMA4ImagesEEG,001,203213,
AFNE01.JPG,AFNE01.JPG,AFNE01.JPG,AFNE01.JPG,AFNE01.JPG,AFNE01.JPG,,,,,,,,,,,,,1,5,15,1,,,,,,,,,,,AMNE18.jpg,AMNE16.jpg,AMSA12.jpg,AMSA17.jpg,AMSA17.jpg,MS,2,num_4,16,num_4,0.800146321068,,,2018_Mar_08_1659,60.004099338,FEMA4ImagesEEG,001,203213,
AFNE01.JPG,AFNE01.JPG,AFNE01.JPG,AFNE01.JPG,AFNE01.JPG,AFNE01.JPG,,,,,,,,,,,,,1,6,16,4,,,,,,,,,,,AMSA11.jpg,AMNE14.jpg,AMSA16.jpg,AMNE16.jpg,AMNE14.jpg,MN,1,num_6,16,num_6,0.900190551067,,,2018_Mar_08_1659,60.004099338,FEMA4ImagesEEG,001,203213,
AFNE01.JPG,AFNE01.JPG,AFNE01.JPG,AFNE01.JPG,AFNE01.JPG,AFNE01.JPG,,,,,,,,,,,,,1,7,17,7,,,,,,,,,,,AMSA16.jpg,AMSA05.jpg,AMNE08.jpg,AMNE20.jpg,AMNE08.jpg,MN,1,num_2,32,num_4,0.933506018948,,,2018_Mar_08_1659,60.004099338,FEMA4ImagesEEG,001,203213,
AFNE01.JPG,AFNE01.JPG,AFNE01.JPG,AFNE01.JPG,AFNE01.JPG,AFNE01.JPG,,,,,,,,,,,,,1,8,18,5,,,,,,,,,,,AMNE02.jpg,AMSA20.jpg,AMNE12.jpg,AMSA19.jpg,AMNE12.jpg,MN,1,num_2,16,num_2,0.616822882555,,,2018_Mar_08_1659,60.004099338,FEMA4ImagesEEG,001,203213,
AFNE01.JPG,AFNE01.JPG,AFNE01.JPG,AFNE01.JPG,AFNE01.JPG,AFNE01.JPG,,,,,,,,,,,,,1,9,19,3,,,,,,,,,,,AMNE13.jpg,AMNE01.jpg,AMSA20.jpg,AMSA16.jpg,AMSA16.jpg,MS,2,num_4,16,num_4,0.650173311122,,,2018_Mar_08_1659,60.004099338,FEMA4ImagesEEG,001,203213,
AFNE01.JPG,AFNE01.JPG,AFNE01.JPG,AFNE01.JPG,AFNE01.JPG,AFNE01.JPG,,,,,,,,,,,,,2,0,20,8,,,,,,,,,,,AMSA20.jpg,AMNE07.jpg,AMNE04.jpg,AMSA15.jpg,AMSA15.jpg,MS,2,num_4,16,num_4,1.30030139838,,,2018_Mar_08_1659,60.004099338,FEMA4ImagesEEG,001,203213,
AFNE01.JPG,AFNE01.JPG,AFNE01.JPG,AFNE01.JPG,AFNE01.JPG,AFNE01.JPG,,,,,,,,,,,,,2,1,21,6,,,,,,,,,,,AMSA16.jpg,AMNE17.jpg,AMSA05.jpg,AMNE09.jpg,AMNE09.jpg,MN,1,num_4,32,num_6,0.916615589056,,,2018_Mar_08_1659,60.004099338,FEMA4ImagesEEG,001,203213,
AFNE01.JPG,AFNE01.JPG,AFNE01.JPG,AFNE01.JPG,AFNE01.JPG,AFNE01.JPG,,,,,,,,,,,,,2,2,22,0,,,,,,,,,,,AMSA01.jpg,AMSA18.jpg,AMNE13.jpg,AMNE15.jpg,AMNE15.jpg,MN,1,num_4,16,num_4,1.33339555655,,,2018_Mar_08_1659,60.004099338,FEMA4ImagesEEG,001,203213,
AFNE01.JPG,AFNE01.JPG,AFNE01.JPG,AFNE01.JPG,AFNE01.JPG,AFNE01.JPG,,,,,,,,,,,,,2,3,23,1,,,,,,,,,,,AMNE20.jpg,AMNE13.jpg,AMSA18.jpg,AMSA12.jpg,AMSA12.jpg,MS,2,num_4,16,num_4,1.53345162189,,,2018_Mar_08_1659,60.004099338,FEMA4ImagesEEG,001,203213,
AFNE01.JPG,AFNE01.JPG,AFNE01.JPG,AFNE01.JPG,AFNE01.JPG,AFNE01.JPG,,,,,,,,,,,,,2,4,24,7,,,,,,,,,,,AMNE15.jpg,AMSA18.jpg,AMNE02.jpg,AMSA12.jpg,AMNE15.jpg,MN,1,num_8,16,num_8,1.41671293322,,,2018_Mar_08_1659,60.004099338,FEMA4ImagesEEG,001,203213,
AFNE01.JPG,AFNE01.JPG,AFNE01.JPG,AFNE01.JPG,AFNE01.JPG,AFNE01.JPG,,,,,,,,,,,,,2,5,25,9,,,,,,,,,,,AMSA17.jpg,AMNE07.jpg,AMNE13.jpg,AMSA16.jpg,AMSA17.jpg,MS,2,num_8,32,num_6,0.616822882555,,,2018_Mar_08_1659,60.004099338,FEMA4ImagesEEG,001,203213,
AFNE01.JPG,AFNE01.JPG,AFNE01.JPG,AFNE01.JPG,AFNE01.JPG,AFNE01.JPG,,,,,,,,,,,,,2,6,26,4,,,,,,,,,,,AMNE14.jpg,AMSA19.jpg,AMSA16.jpg,AMNE11.jpg,AMSA19.jpg,MS,2,num_6,32,num_4,0.950118689565,,,2018_Mar_08_1659,60.004099338,FEMA4ImagesEEG,001,203213,
AFNE01.JPG,AFNE01.JPG,AFNE01.JPG,AFNE01.JPG,AFNE01.JPG,AFNE01.JPG,,,,,,,,,,,,,2,7,27,3,,,,,,,,,,,AMSA07.jpg,AMNE13.jpg,AMNE15.jpg,AMSA09.jpg,AMNE15.jpg,MN,1,num_2,16,num_2,0.983390857931,,,2018_Mar_08_1659,60.004099338,FEMA4ImagesEEG,001,203213,
AFNE01.JPG,AFNE01.JPG,AFNE01.JPG,AFNE01.JPG,AFNE01.JPG,AFNE01.JPG,,,,,,,,,,,,,2,8,28,2,,,,,,,,,,,AMSA13.jpg,AMSA20.jpg,AMNE03.jpg,AMNE12.jpg,AMNE03.jpg,MN,1,num_2,32,num_8,1.16680506547,,,2018_Mar_08_1659,60.004099338,FEMA4ImagesEEG,001,203213,
AFNE01.JPG,AFNE01.JPG,AFNE01.JPG,AFNE01.JPG,AFNE01.JPG,AFNE01.JPG,,,,,,,,,,,,,2,9,29,5,,,,,,,,,,,AMSA20.jpg,AMNE16.jpg,AMSA12.jpg,AMNE03.jpg,AMSA12.jpg,MS,2,num_2,32,num_6,1.96669511637,,,2018_Mar_08_1659,60.004099338,FEMA4ImagesEEG,001,203213,
AFNE01.JPG,AFNE01.JPG,AFNE01.JPG,AFNE01.JPG,AFNE01.JPG,AFNE01.JPG,,,,,,,,,,,,,3,0,30,6,,,,,,,,,,,AMNE06.jpg,AMNE03.jpg,AMSA05.jpg,AMSA11.jpg,AMNE03.jpg,MN,1,num_6,32,num_2,1.36710457131,,,2018_Mar_08_1659,60.004099338,FEMA4ImagesEEG,001,203213,
AFNE01.JPG,AFNE01.JPG,AFNE01.JPG,AFNE01.JPG,AFNE01.JPG,AFNE01.JPG,,,,,,,,,,,,,3,1,31,0,,,,,,,,,,,AMNE05.jpg,AMSA13.jpg,AMSA12.jpg,AMNE08.jpg,AMSA12.jpg,MS,2,num_2,16,num_2,1.26676109224,,,2018_Mar_08_1659,60.004099338,FEMA4ImagesEEG,001,203213,
AFNE01.JPG,AFNE01.JPG,AFNE01.JPG,AFNE01.JPG,AFNE01.JPG,AFNE01.JPG,,,,,,,,,,,,,3,2,32,7,,,,,,,,,,,AMSA06.jpg,AMNE10.jpg,AMNE03.jpg,AMSA07.jpg,AMNE10.jpg,MN,1,num_6,32,num_8,0.916765374132,,,2018_Mar_08_1659,60.004099338,FEMA4ImagesEEG,001,203213,
AFNE01.JPG,AFNE01.JPG,AFNE01.JPG,AFNE01.JPG,AFNE01.JPG,AFNE01.JPG,,,,,,,,,,,,,3,3,33,9,,,,,,,,,,,AMSA19.jpg,AMNE10.jpg,AMNE02.jpg,AMSA20.jpg,AMNE10.jpg,MN,1,num_6,32,num_4,1.18346328079,,,2018_Mar_08_1659,60.004099338,FEMA4ImagesEEG,001,203213,
AFNE01.JPG,AFNE01.JPG,AFNE01.JPG,AFNE01.JPG,AFNE01.JPG,AFNE01.JPG,,,,,,,,,,,,,3,4,34,8,,,,,,,,,,,AMSA08.jpg,AMSA07.jpg,AMNE05.jpg,AMNE16.jpg,AMSA08.jpg,MS,2,num_8,16,num_8,0.900175796822,,,2018_Mar_08_1659,60.004099338,FEMA4ImagesEEG,001,203213,
AFNE01.JPG,AFNE01.JPG,AFNE01.JPG,AFNE01.JPG,AFNE01.JPG,AFNE01.JPG,,,,,,,,,,,,,3,5,35,3,,,,,,,,,,,AMNE01.jpg,AMNE04.jpg,AMSA11.jpg,AMSA15.jpg,AMNE04.jpg,MN,1,num_6,32,num_8,0.966789413476,,,2018_Mar_08_1659,60.004099338,FEMA4ImagesEEG,001,203213,
AFNE01.JPG,AFNE01.JPG,AFNE01.JPG,AFNE01.JPG,AFNE01.JPG,AFNE01.JPG,,,,,,,,,,,,,3,6,36,4,,,,,,,,,,,AMSA08.jpg,AMNE15.jpg,AMSA17.jpg,AMNE03.jpg,AMNE15.jpg,MN,1,num_6,32,num_2,1.25007978361,,,2018_Mar_08_1659,60.004099338,FEMA4ImagesEEG,001,203213,
AFNE01.JPG,AFNE01.JPG,AFNE01.JPG,AFNE01.JPG,AFNE01.JPG,AFNE01.JPG,,,,,,,,,,,,,3,7,37,1,,,,,,,,,,,AMSA11.jpg,AMNE04.jpg,AMSA07.jpg,AMNE06.jpg,AMNE04.jpg,MN,1,num_6,16,num_6,0.433504575863,,,2018_Mar_08_1659,60.004099338,FEMA4ImagesEEG,001,203213,
AFNE01.JPG,AFNE01.JPG,AFNE01.JPG,AFNE01.JPG,AFNE01.JPG,AFNE01.JPG,,,,,,,,,,,,,3,8,38,5,,,,,,,,,,,AMSA19.jpg,AMSA05.jpg,AMNE15.jpg,AMNE12.jpg,AMNE12.jpg,MN,1,num_4,32,num_8,0.883429057896,,,2018_Mar_08_1659,60.004099338,FEMA4ImagesEEG,001,203213,
AFNE01.JPG,AFNE01.JPG,AFNE01.JPG,AFNE01.JPG,AFNE01.JPG,AFNE01.JPG,,,,,,,,,,,,,3,9,39,2,,,,,,,,,,,AMNE15.jpg,AMSA16.jpg,AMNE12.jpg,AMSA01.jpg,AMSA16.jpg,MS,2,num_6,32,num_2,0.866749032401,,,2018_Mar_08_1659,60.004099338,FEMA4ImagesEEG,001,203213,
AFNE01.JPG,AFNE01.JPG,AFNE01.JPG,AFNE01.JPG,AFNE01.JPG,AFNE01.JPG,,,,,,,,,,,,,4,0,40,9,,,,,,,,,,,AMNE10.jpg,AMNE07.jpg,AMSA17.jpg,AMSA05.jpg,AMSA17.jpg,MS,2,num_2,32,num_6,0.900137308287,,,2018_Mar_08_1659,60.004099338,FEMA4ImagesEEG,001,203213,
AFNE01.JPG,AFNE01.JPG,AFNE01.JPG,AFNE01.JPG,AFNE01.JPG,AFNE01.JPG,,,,,,,,,,,,,4,1,41,2,,,,,,,,,,,AMSA13.jpg,AMNE08.jpg,AMSA09.jpg,AMNE03.jpg,AMSA13.jpg,MS,2,num_8,16,num_8,0.933467530413,,,2018_Mar_08_1659,60.004099338,FEMA4ImagesEEG,001,203213,
AFNE01.JPG,AFNE01.JPG,AFNE01.JPG,AFNE01.JPG,AFNE01.JPG,AFNE01.JPG,,,,,,,,,,,,,4,2,42,4,,,,,,,,,,,AMSA05.jpg,AMSA06.jpg,AMNE18.jpg,AMNE09.jpg,AMNE18.jpg,MN,1,num_2,32,num_4,1.33344815788,,,2018_Mar_08_1659,60.004099338,FEMA4ImagesEEG,001,203213,
AFNE01.JPG,AFNE01.JPG,AFNE01.JPG,AFNE01.JPG,AFNE01.JPG,AFNE01.JPG,,,,,,,,,,,,,4,3,43,1,,,,,,,,,,,AMSA18.jpg,AMNE13.jpg,AMSA16.jpg,AMNE11.jpg,AMSA18.jpg,MS,2,num_8,16,num_8,1.00009974977,,,2018_Mar_08_1659,60.004099338,FEMA4ImagesEEG,001,203213,
AFNE01.JPG,AFNE01.JPG,AFNE01.JPG,AFNE01.JPG,AFNE01.JPG,AFNE01.JPG,,,,,,,,,,,,,4,4,44,7,,,,,,,,,,,AMNE10.jpg,AMNE01.jpg,AMSA16.jpg,AMSA13.jpg,AMNE10.jpg,MN,1,num_8,16,num_8,1.05011641211,,,2018_Mar_08_1659,60.004099338,FEMA4ImagesEEG,001,203213,
AFNE01.JPG,AFNE01.JPG,AFNE01.JPG,AFNE01.JPG,AFNE01.JPG,AFNE01.JPG,,,,,,,,,,,,,4,5,45,8,,,,,,,,,,,AMSA07.jpg,AMNE06.jpg,AMSA04.jpg,AMNE04.jpg,AMSA07.jpg,MS,2,num_8,32,num_6,0.850157851586,,,2018_Mar_08_1659,60.004099338,FEMA4ImagesEEG,001,203213,
AFNE01.JPG,AFNE01.JPG,AFNE01.JPG,AFNE01.JPG,AFNE01.JPG,AFNE01.JPG,,,,,,,,,,,,,4,6,46,3,,,,,,,,,,,AMNE15.jpg,AMSA07.jpg,AMSA06.jpg,AMNE14.jpg,AMSA06.jpg,MS,2,num_2,16,num_2,1.10025848355,,,2018_Mar_08_1659,60.004099338,FEMA4ImagesEEG,001,203213,
AFNE01.JPG,AFNE01.JPG,AFNE01.JPG,AFNE01.JPG,AFNE01.JPG,AFNE01.JPG,,,,,,,,,,,,,4,7,47,6,,,,,,,,,,,AMSA14.jpg,AMNE02.jpg,AMSA11.jpg,AMNE07.jpg,AMSA11.jpg,MS,2,num_2,32,num_4,0.683514759177,,,2018_Mar_08_1659,60.004099338,FEMA4ImagesEEG,001,203213,
AFNE01.JPG,AFNE01.JPG,AFNE01.JPG,AFNE01.JPG,AFNE01.JPG,AFNE01.JPG,,,,,,,,,,,,,4,8,48,0,,,,,,,,,,,AMSA01.jpg,AMNE08.jpg,AMSA10.jpg,AMNE16.jpg,AMNE16.jpg,MN,1,num_4,16,num_4,0.783301115036,,,2018_Mar_08_1659,60.004099338,FEMA4ImagesEEG,001,203213,
AFNE01.JPG,AFNE01.JPG,AFNE01.JPG,AFNE01.JPG,AFNE01.JPG,AFNE01.JPG,,,,,,,,,,,,,4,9,49,5,,,,,,,,,,,AMSA12.jpg,AMNE08.jpg,AMSA03.jpg,AMNE11.jpg,AMNE11.jpg,MN,1,num_4,32,num_8,0.933496717829,,,2018_Mar_08_1659,60.004099338,FEMA4ImagesEEG,001,203213,
AFNE01.JPG,AFNE01.JPG,AFNE01.JPG,AFNE01.JPG,AFNE01.JPG,AFNE01.JPG,,,,,,,,,,,,,5,0,50,5,,,,,,,,,,,AMNE03.jpg,AMSA14.jpg,AMSA19.jpg,AMNE15.jpg,AMNE15.jpg,MN,1,num_4,16,num_4,0.516830933047,,,2018_Mar_08_1659,60.004099338,FEMA4ImagesEEG,001,203213,
AFNE01.JPG,AFNE01.JPG,AFNE01.JPG,AFNE01.JPG,AFNE01.JPG,AFNE01.JPG,,,,,,,,,,,,,5,1,51,0,,,,,,,,,,,AMNE05.jpg,AMSA10.jpg,AMNE06.jpg,AMSA03.jpg,AMNE05.jpg,MN,1,num_8,32,num_6,1.13345848559,,,2018_Mar_08_1659,60.004099338,FEMA4ImagesEEG,001,203213,
AFNE01.JPG,AFNE01.JPG,AFNE01.JPG,AFNE01.JPG,AFNE01.JPG,AFNE01.JPG,,,,,,,,,,,,,5,2,52,2,,,,,,,,,,,AMNE11.jpg,AMSA17.jpg,AMSA07.jpg,AMNE01.jpg,AMSA17.jpg,MS,2,num_6,32,num_2,1.1334219214,,,2018_Mar_08_1659,60.004099338,FEMA4ImagesEEG,001,203213,
AFNE01.JPG,AFNE01.JPG,AFNE01.JPG,AFNE01.JPG,AFNE01.JPG,AFNE01.JPG,,,,,,,,,,,,,5,3,53,3,,,,,,,,,,,AMNE14.jpg,AMSA08.jpg,AMNE11.jpg,AMSA01.jpg,AMNE11.jpg,MN,1,num_2,32,num_6,1.33344719559,,,2018_Mar_08_1659,60.004099338,FEMA4ImagesEEG,001,203213,
AFNE01.JPG,AFNE01.JPG,AFNE01.JPG,AFNE01.JPG,AFNE01.JPG,AFNE01.JPG,,,,,,,,,,,,,5,4,54,9,,,,,,,,,,,AMNE18.jpg,AMSA11.jpg,AMSA09.jpg,AMNE06.jpg,AMNE06.jpg,MN,1,num_4,16,num_4,0.416845719097,,,2018_Mar_08_1659,60.004099338,FEMA4ImagesEEG,001,203213,
AFNE01.JPG,AFNE01.JPG,AFNE01.JPG,AFNE01.JPG,AFNE01.JPG,AFNE01.JPG,,,,,,,,,,,,,5,5,55,8,,,,,,,,,,,AMNE11.jpg,AMSA10.jpg,AMSA12.jpg,AMNE06.jpg,AMSA10.jpg,MS,2,num_6,16,num_6,1.01678715227,,,2018_Mar_08_1659,60.004099338,FEMA4ImagesEEG,001,203213,
AFNE01.JPG,AFNE01.JPG,AFNE01.JPG,AFNE01.JPG,AFNE01.JPG,AFNE01.JPG,,,,,,,,,,,,,5,6,56,7,,,,,,,,,,,AMNE13.jpg,AMSA05.jpg,AMNE16.jpg,AMSA20.jpg,AMNE13.jpg,MN,1,num_8,16,num_8,1.08347582165,,,2018_Mar_08_1659,60.004099338,FEMA4ImagesEEG,001,203213,
AFNE01.JPG,AFNE01.JPG,AFNE01.JPG,AFNE01.JPG,AFNE01.JPG,AFNE01.JPG,,,,,,,,,,,,,5,7,57,6,,,,,,,,,,,AMSA15.jpg,AMSA07.jpg,AMNE03.jpg,AMNE16.jpg,AMSA15.jpg,MS,2,num_8,16,num_8,2.1333648297,,,2018_Mar_08_1659,60.004099338,FEMA4ImagesEEG,001,203213,
AFNE01.JPG,AFNE01.JPG,AFNE01.JPG,AFNE01.JPG,AFNE01.JPG,AFNE01.JPG,,,,,,,,,,,,,5,8,58,1,,,,,,,,,,,AMNE15.jpg,AMSA02.jpg,AMSA01.jpg,AMNE16.jpg,AMSA01.jpg,MS,2,num_2,16,num_2,0.933463360881,,,2018_Mar_08_1659,60.004099338,FEMA4ImagesEEG,001,203213,
AFNE01.JPG,AFNE01.JPG,AFNE01.JPG,AFNE01.JPG,AFNE01.JPG,AFNE01.JPG,,,,,,,,,,,,,5,9,59,4,,,,,,,,,,,AMSA02.jpg,AMNE12.jpg,AMNE07.jpg,AMSA05.jpg,AMSA02.jpg,MS,2,num_8,32,num_6,0.600142215611,,,2018_Mar_08_1659,60.004099338,FEMA4ImagesEEG,001,203213,
,,,,,,,,,,,,,,,,,,,,,,,,,,,,,,,,,,,,,,,,,,,space,16.7985442304,2018_Mar_08_1659,60.004099338,FEMA4ImagesEEG,001,203213,
AFNE01.JPG,AFNE01.JPG,AFNE01.JPG,AFNE01.JPG,AFNE01.JPG,AFNE01.JPG,,,,,,,,,,,,,,,,,0,0,0,9,,,,,,,AFNE01.jpg,AFNE11.jpg,AFSA15.jpg,AFSA08.jpg,AFNE11.jpg,FN,3,num_6,16,num_6,0.733501272043,,,2018_Mar_08_1659,60.004099338,FEMA4ImagesEEG,001,203213,
AFNE01.JPG,AFNE01.JPG,AFNE01.JPG,AFNE01.JPG,AFNE01.JPG,AFNE01.JPG,,,,,,,,,,,,,,,,,0,1,1,6,,,,,,,AFNE05.jpg,AFSA09.jpg,AFSA18.jpg,AFNE01.jpg,AFSA18.jpg,FS,4,num_2,32,num_4,1.05013950518,,,2018_Mar_08_1659,60.004099338,FEMA4ImagesEEG,001,203213,
AFNE01.JPG,AFNE01.JPG,AFNE01.JPG,AFNE01.JPG,AFNE01.JPG,AFNE01.JPG,,,,,,,,,,,,,,,,,0,2,2,8,,,,,,,AFSA17.jpg,AFNE07.jpg,AFNE18.jpg,AFSA18.jpg,AFNE18.jpg,FN,3,num_2,32,num_6,0.58349298127,,,2018_Mar_08_1659,60.004099338,FEMA4ImagesEEG,001,203213,
AFNE01.JPG,AFNE01.JPG,AFNE01.JPG,AFNE01.JPG,AFNE01.JPG,AFNE01.JPG,,,,,,,,,,,,,,,,,0,3,3,2,,,,,,,AFSA06.jpg,AFSA14.jpg,AFNE15.jpg,AFNE08.jpg,AFSA06.jpg,FS,4,num_8,32,num_4,0.533512562281,,,2018_Mar_08_1659,60.004099338,FEMA4ImagesEEG,001,203213,
AFNE01.JPG,AFNE01.JPG,AFNE01.JPG,AFNE01.JPG,AFNE01.JPG,AFNE01.JPG,,,,,,,,,,,,,,,,,0,4,4,4,,,,,,,AFNE19.jpg,AFNE13.jpg,AFSA15.jpg,AFSA09.jpg,AFNE19.jpg,FN,3,num_8,16,num_8,0.850141814677,,,2018_Mar_08_1659,60.004099338,FEMA4ImagesEEG,001,203213,
AFNE01.JPG,AFNE01.JPG,AFNE01.JPG,AFNE01.JPG,AFNE01.JPG,AFNE01.JPG,,,,,,,,,,,,,,,,,0,5,5,3,,,,,,,AFNE13.jpg,AFSA20.jpg,AFNE01.jpg,AFSA04.jpg,AFNE01.jpg,FN,3,num_2,16,num_2,1.08347838745,,,2018_Mar_08_1659,60.004099338,FEMA4ImagesEEG,001,203213,
AFNE01.JPG,AFNE01.JPG,AFNE01.JPG,AFNE01.JPG,AFNE01.JPG,AFNE01.JPG,,,,,,,,,,,,,,,,,0,6,6,1,,,,,,,AFSA16.jpg,AFSA02.jpg,AFNE07.jpg,AFNE08.jpg,AFNE08.jpg,FN,3,num_4,16,num_4,0.316789301112,,,2018_Mar_08_1659,60.004099338,FEMA4ImagesEEG,001,203213,
AFNE01.JPG,AFNE01.JPG,AFNE01.JPG,AFNE01.JPG,AFNE01.JPG,AFNE01.JPG,,,,,,,,,,,,,,,,,0,7,7,7,,,,,,,AFNE02.jpg,AFSA17.jpg,AFNE09.jpg,AFSA07.jpg,AFNE02.jpg,FN,3,num_8,32,num_6,1.40015382622,,,2018_Mar_08_1659,60.004099338,FEMA4ImagesEEG,001,203213,
AFNE01.JPG,AFNE01.JPG,AFNE01.JPG,AFNE01.JPG,AFNE01.JPG,AFNE01.JPG,,,,,,,,,,,,,,,,,0,8,8,5,,,,,,,AFSA13.jpg,AFSA15.jpg,AFNE06.jpg,AFNE04.jpg,AFSA15.jpg,FS,4,num_6,32,num_8,0.300233080983,,,2018_Mar_08_1659,60.004099338,FEMA4ImagesEEG,001,203213,
AFNE01.JPG,AFNE01.JPG,AFNE01.JPG,AFNE01.JPG,AFNE01.JPG,AFNE01.JPG,,,,,,,,,,,,,,,,,0,9,9,0,,,,,,,AFSA05.jpg,AFSA17.jpg,AFNE17.jpg,AFNE09.jpg,AFSA17.jpg,FS,4,num_6,32,num_4,0.300031656865,,,2018_Mar_08_1659,60.004099338,FEMA4ImagesEEG,001,203213,
AFNE01.JPG,AFNE01.JPG,AFNE01.JPG,AFNE01.JPG,AFNE01.JPG,AFNE01.JPG,,,,,,,,,,,,,,,,,1,0,10,1,,,,,,,AFSA16.jpg,AFNE19.jpg,AFSA17.jpg,AFNE01.jpg,AFNE19.jpg,FN,3,num_6,32,num_2,0.216875291197,,,2018_Mar_08_1659,60.004099338,FEMA4ImagesEEG,001,203213,
AFNE01.JPG,AFNE01.JPG,AFNE01.JPG,AFNE01.JPG,AFNE01.JPG,AFNE01.JPG,,,,,,,,,,,,,,,,,1,1,11,0,,,,,,,AFNE16.jpg,AFSA11.jpg,AFSA08.jpg,AFNE05.jpg,AFSA11.jpg,FS,4,num_6,16,num_6,0.40017275,,,2018_Mar_08_1659,60.004099338,FEMA4ImagesEEG,001,203213,
AFNE01.JPG,AFNE01.JPG,AFNE01.JPG,AFNE01.JPG,AFNE01.JPG,AFNE01.JPG,,,,,,,,,,,,,,,,,1,2,12,7,,,,,,,AFSA13.jpg,AFSA11.jpg,AFNE16.jpg,AFNE15.jpg,AFSA13.jpg,FS,4,num_8,16,num_8,1.06698952243,,,2018_Mar_08_1659,60.004099338,FEMA4ImagesEEG,001,203213,
AFNE01.JPG,AFNE01.JPG,AFNE01.JPG,AFNE01.JPG,AFNE01.JPG,AFNE01.JPG,,,,,,,,,,,,,,,,,1,3,13,4,,,,,,,AFNE02.jpg,AFSA18.jpg,AFNE03.jpg,AFSA01.jpg,AFSA18.jpg,FS,4,num_6,32,num_2,2.28343277844,,,2018_Mar_08_1659,60.004099338,FEMA4ImagesEEG,001,203213,
AFNE01.JPG,AFNE01.JPG,AFNE01.JPG,AFNE01.JPG,AFNE01.JPG,AFNE01.JPG,,,,,,,,,,,,,,,,,1,4,14,8,,,,,,,AFNE10.jpg,AFSA01.jpg,AFNE18.jpg,AFSA17.jpg,AFSA17.jpg,FS,4,num_4,16,num_4,0.583422097843,,,2018_Mar_08_1659,60.004099338,FEMA4ImagesEEG,001,203213,
AFNE01.JPG,AFNE01.JPG,AFNE01.JPG,AFNE01.JPG,AFNE01.JPG,AFNE01.JPG,,,,,,,,,,,,,,,,,1,5,15,6,,,,,,,AFNE03.jpg,AFNE06.jpg,AFSA20.jpg,AFSA09.jpg,AFNE06.jpg,FN,3,num_6,32,num_2,0.500185868004,,,2018_Mar_08_1659,60.004099338,FEMA4ImagesEEG,001,203213,
AFNE01.JPG,AFNE01.JPG,AFNE01.JPG,AFNE01.JPG,AFNE01.JPG,AFNE01.JPG,,,,,,,,,,,,,,,,,1,6,16,3,,,,,,,AFSA07.jpg,AFNE14.jpg,AFSA06.jpg,AFNE17.jpg,AFNE14.jpg,FN,3,num_6,16,num_6,0.233490206767,,,2018_Mar_08_1659,60.004099338,FEMA4ImagesEEG,001,203213,
AFNE01.JPG,AFNE01.JPG,AFNE01.JPG,AFNE01.JPG,AFNE01.JPG,AFNE01.JPG,,,,,,,,,,,,,,,,,1,7,17,9,,,,,,,AFSA18.jpg,AFSA01.jpg,AFNE18.jpg,AFNE05.jpg,AFNE05.jpg,FN,3,num_4,16,num_4,1.08345433208,,,2018_Mar_08_1659,60.004099338,FEMA4ImagesEEG,001,203213,
AFNE01.JPG,AFNE01.JPG,AFNE01.JPG,AFNE01.JPG,AFNE01.JPG,AFNE01.JPG,,,,,,,,,,,,,,,,,1,8,18,5,,,,,,,AFSA07.jpg,AFNE16.jpg,AFNE14.jpg,AFSA01.jpg,AFSA01.jpg,FS,4,num_4,32,num_8,0.950124783441,,,2018_Mar_08_1659,60.004099338,FEMA4ImagesEEG,001,203213,
AFNE01.JPG,AFNE01.JPG,AFNE01.JPG,AFNE01.JPG,AFNE01.JPG,AFNE01.JPG,,,,,,,,,,,,,,,,,1,9,19,2,,,,,,,AFSA07.jpg,AFNE18.jpg,AFNE11.jpg,AFSA08.jpg,AFNE18.jpg,FN,3,num_6,32,num_4,0.533506468171,,,2018_Mar_08_1659,60.004099338,FEMA4ImagesEEG,001,203213,
AFNE01.JPG,AFNE01.JPG,AFNE01.JPG,AFNE01.JPG,AFNE01.JPG,AFNE01.JPG,,,,,,,,,,,,,,,,,2,0,20,5,,,,,,,AFSA07.jpg,AFNE16.jpg,AFNE03.jpg,AFSA12.jpg,AFSA07.jpg,FS,4,num_8,32,num_4,0.650130332215,,,2018_Mar_08_1659,60.004099338,FEMA4ImagesEEG,001,203213,
AFNE01.JPG,AFNE01.JPG,AFNE01.JPG,AFNE01.JPG,AFNE01.JPG,AFNE01.JPG,,,,,,,,,,,,,,,,,2,1,21,7,,,,,,,AFSA15.jpg,AFNE06.jpg,AFSA02.jpg,AFNE07.jpg,AFSA02.jpg,FS,4,num_2,16,num_2,1.20010513812,,,2018_Mar_08_1659,60.004099338,FEMA4ImagesEEG,001,203213,
AFNE01.JPG,AFNE01.JPG,AFNE01.JPG,AFNE01.JPG,AFNE01.JPG,AFNE01.JPG,,,,,,,,,,,,,,,,,2,2,22,9,,,,,,,AFNE10.jpg,AFSA05.jpg,AFNE12.jpg,AFSA10.jpg,AFNE12.jpg,FN,3,num_2,16,num_2,0.966782677919,,,2018_Mar_08_1659,60.004099338,FEMA4ImagesEEG,001,203213,
AFNE01.JPG,AFNE01.JPG,AFNE01.JPG,AFNE01.JPG,AFNE01.JPG,AFNE01.JPG,,,,,,,,,,,,,,,,,2,3,23,4,,,,,,,AFNE18.jpg,AFNE14.jpg,AFSA13.jpg,AFSA09.jpg,AFSA13.jpg,FS,4,num_2,32,num_8,0.816797479987,,,2018_Mar_08_1659,60.004099338,FEMA4ImagesEEG,001,203213,
AFNE01.JPG,AFNE01.JPG,AFNE01.JPG,AFNE01.JPG,AFNE01.JPG,AFNE01.JPG,,,,,,,,,,,,,,,,,2,4,24,6,,,,,,,AFNE06.jpg,AFSA10.jpg,AFNE16.jpg,AFSA11.jpg,AFNE16.jpg,FN,3,num_2,16,num_2,1.21675854223,,,2018_Mar_08_1659,60.004099338,FEMA4ImagesEEG,001,203213,
AFNE01.JPG,AFNE01.JPG,AFNE01.JPG,AFNE01.JPG,AFNE01.JPG,AFNE01.JPG,,,,,,,,,,,,,,,,,2,5,25,1,,,,,,,AFSA15.jpg,AFNE07.jpg,AFNE08.jpg,AFSA04.jpg,AFSA04.jpg,FS,4,num_4,16,num_4,1.51668211026,,,2018_Mar_08_1659,60.004099338,FEMA4ImagesEEG,001,203213,
AFNE01.JPG,AFNE01.JPG,AFNE01.JPG,AFNE01.JPG,AFNE01.JPG,AFNE01.JPG,,,,,,,,,,,,,,,,,2,6,26,8,,,,,,,AFSA20.jpg,AFNE11.jpg,AFNE19.jpg,AFSA16.jpg,AFNE11.jpg,FN,3,num_6,32,num_2,1.10011960356,,,2018_Mar_08_1659,60.004099338,FEMA4ImagesEEG,001,203213,
AFNE01.JPG,AFNE01.JPG,AFNE01.JPG,AFNE01.JPG,AFNE01.JPG,AFNE01.JPG,,,,,,,,,,,,,,,,,2,7,27,0,,,,,,,AFSA20.jpg,AFSA07.jpg,AFNE11.jpg,AFNE03.jpg,AFNE03.jpg,FN,3,num_4,32,num_8,1.53340286948,,,2018_Mar_08_1659,60.004099338,FEMA4ImagesEEG,001,203213,
AFNE01.JPG,AFNE01.JPG,AFNE01.JPG,AFNE01.JPG,AFNE01.JPG,AFNE01.JPG,,,,,,,,,,,,,,,,,2,8,28,3,,,,,,,AFNE01.jpg,AFSA16.jpg,AFSA10.jpg,AFNE08.jpg,AFSA16.jpg,FS,4,num_6,16,num_6,1.95008853986,,,2018_Mar_08_1659,60.004099338,FEMA4ImagesEEG,001,203213,
AFNE01.JPG,AFNE01.JPG,AFNE01.JPG,AFNE01.JPG,AFNE01.JPG,AFNE01.JPG,,,,,,,,,,,,,,,,,2,9,29,2,,,,,,,AFNE08.jpg,AFSA15.jpg,AFSA16.jpg,AFNE17.jpg,AFSA16.jpg,FS,4,num_2,16,num_2,1.10010805703,,,2018_Mar_08_1659,60.004099338,FEMA4ImagesEEG,001,203213,
AFNE01.JPG,AFNE01.JPG,AFNE01.JPG,AFNE01.JPG,AFNE01.JPG,AFNE01.JPG,,,,,,,,,,,,,,,,,3,0,30,8,,,,,,,AFNE17.jpg,AFSA19.jpg,AFSA08.jpg,AFNE14.jpg,AFNE17.jpg,FN,3,num_8,32,num_6,1.18363680062,,,2018_Mar_08_1659,60.004099338,FEMA4ImagesEEG,001,203213,
AFNE01.JPG,AFNE01.JPG,AFNE01.JPG,AFNE01.JPG,AFNE01.JPG,AFNE01.JPG,,,,,,,,,,,,,,,,,3,1,31,3,,,,,,,AFNE02.jpg,AFNE13.jpg,AFSA03.jpg,AFSA15.jpg,AFNE02.jpg,FN,3,num_8,16,num_8,1.06679932424,,,2018_Mar_08_1659,60.004099338,FEMA4ImagesEEG,001,203213,
AFNE01.JPG,AFNE01.JPG,AFNE01.JPG,AFNE01.JPG,AFNE01.JPG,AFNE01.JPG,,,,,,,,,,,,,,,,,3,2,32,6,,,,,,,AFSA15.jpg,AFNE14.jpg,AFSA12.jpg,AFNE20.jpg,AFNE14.jpg,FN,3,num_6,16,num_6,0.950127028627,,,2018_Mar_08_1659,60.004099338,FEMA4ImagesEEG,001,203213,
AFNE01.JPG,AFNE01.JPG,AFNE01.JPG,AFNE01.JPG,AFNE01.JPG,AFNE01.JPG,,,,,,,,,,,,,,,,,3,3,33,5,,,,,,,AFSA15.jpg,AFSA04.jpg,AFNE19.jpg,AFNE05.jpg,AFSA04.jpg,FS,4,num_6,16,num_6,1.05010294123,,,2018_Mar_08_1659,60.004099338,FEMA4ImagesEEG,001,203213,
AFNE01.JPG,AFNE01.JPG,AFNE01.JPG,AFNE01.JPG,AFNE01.JPG,AFNE01.JPG,,,,,,,,,,,,,,,,,3,4,34,1,,,,,,,AFNE06.jpg,AFSA19.jpg,AFSA11.jpg,AFNE04.jpg,AFSA19.jpg,FS,4,num_6,32,num_8,0.933515320532,,,2018_Mar_08_1659,60.004099338,FEMA4ImagesEEG,001,203213,
AFNE01.JPG,AFNE01.JPG,AFNE01.JPG,AFNE01.JPG,AFNE01.JPG,AFNE01.JPG,,,,,,,,,,,,,,,,,3,5,35,2,,,,,,,AFNE13.jpg,AFNE03.jpg,AFSA01.jpg,AFSA13.jpg,AFSA13.jpg,FS,4,num_4,16,num_4,1.03348353528,,,2018_Mar_08_1659,60.004099338,FEMA4ImagesEEG,001,203213,
AFNE01.JPG,AFNE01.JPG,AFNE01.JPG,AFNE01.JPG,AFNE01.JPG,AFNE01.JPG,,,,,,,,,,,,,,,,,3,6,36,7,,,,,,,AFNE14.jpg,AFSA09.jpg,AFNE18.jpg,AFSA03.jpg,AFSA09.jpg,FS,4,num_6,32,num_2,1.81668522139,,,2018_Mar_08_1659,60.004099338,FEMA4ImagesEEG,001,203213,
AFNE01.JPG,AFNE01.JPG,AFNE01.JPG,AFNE01.JPG,AFNE01.JPG,AFNE01.JPG,,,,,,,,,,,,,,,,,3,7,37,4,,,,,,,AFNE02.jpg,AFNE20.jpg,AFSA12.jpg,AFSA14.jpg,AFNE20.jpg,FN,3,num_6,16,num_6,0.816776631866,,,2018_Mar_08_1659,60.004099338,FEMA4ImagesEEG,001,203213,
AFNE01.JPG,AFNE01.JPG,AFNE01.JPG,AFNE01.JPG,AFNE01.JPG,AFNE01.JPG,,,,,,,,,,,,,,,,,3,8,38,0,,,,,,,AFNE18.jpg,AFSA11.jpg,AFNE09.jpg,AFSA10.jpg,AFSA11.jpg,FS,4,num_6,32,num_8,1.38344268943,,,2018_Mar_08_1659,60.004099338,FEMA4ImagesEEG,001,203213,
AFNE01.JPG,AFNE01.JPG,AFNE01.JPG,AFNE01.JPG,AFNE01.JPG,AFNE01.JPG,,,,,,,,,,,,,,,,,3,9,39,9,,,,,,,AFNE10.jpg,AFSA01.jpg,AFNE19.jpg,AFSA03.jpg,AFNE10.jpg,FN,3,num_8,32,num_4,0.650180688128,,,2018_Mar_08_1659,60.004099338,FEMA4ImagesEEG,001,203213,
AFNE01.JPG,AFNE01.JPG,AFNE01.JPG,AFNE01.JPG,AFNE01.JPG,AFNE01.JPG,,,,,,,,,,,,,,,,,4,0,40,1,,,,,,,AFSA11.jpg,AFNE04.jpg,AFNE07.jpg,AFSA17.jpg,AFNE04.jpg,FN,3,num_6,16,num_6,1.63335761311,,,2018_Mar_08_1659,60.004099338,FEMA4ImagesEEG,001,203213,
AFNE01.JPG,AFNE01.JPG,AFNE01.JPG,AFNE01.JPG,AFNE01.JPG,AFNE01.JPG,,,,,,,,,,,,,,,,,4,1,41,6,,,,,,,AFSA16.jpg,AFSA17.jpg,AFNE05.jpg,AFNE12.jpg,AFNE05.jpg,FN,3,num_2,32,num_8,0.766798778903,,,2018_Mar_08_1659,60.004099338,FEMA4ImagesEEG,001,203213,
AFNE01.JPG,AFNE01.JPG,AFNE01.JPG,AFNE01.JPG,AFNE01.JPG,AFNE01.JPG,,,,,,,,,,,,,,,,,4,2,42,5,,,,,,,AFSA18.jpg,AFSA19.jpg,AFNE14.jpg,AFNE07.jpg,AFNE14.jpg,FN,3,num_2,32,num_8,0.68347145943,,,2018_Mar_08_1659,60.004099338,FEMA4ImagesEEG,001,203213,
AFNE01.JPG,AFNE01.JPG,AFNE01.JPG,AFNE01.JPG,AFNE01.JPG,AFNE01.JPG,,,,,,,,,,,,,,,,,4,3,43,2,,,,,,,AFSA19.jpg,AFNE09.jpg,AFSA18.jpg,AFNE11.jpg,AFNE09.jpg,FN,3,num_6,32,num_4,0.600180062698,,,2018_Mar_08_1659,60.004099338,FEMA4ImagesEEG,001,203213,
AFNE01.JPG,AFNE01.JPG,AFNE01.JPG,AFNE01.JPG,AFNE01.JPG,AFNE01.JPG,,,,,,,,,,,,,,,,,4,4,44,8,,,,,,,AFSA11.jpg,AFNE13.jpg,AFSA01.jpg,AFNE05.jpg,AFSA01.jpg,FS,4,num_2,16,num_2,0.816789461533,,,2018_Mar_08_1659,60.004099338,FEMA4ImagesEEG,001,203213,
AFNE01.JPG,AFNE01.JPG,AFNE01.JPG,AFNE01.JPG,AFNE01.JPG,AFNE01.JPG,,,,,,,,,,,,,,,,,4,5,45,4,,,,,,,AFNE15.jpg,AFSA13.jpg,AFNE05.jpg,AFSA18.jpg,AFNE05.jpg,FN,3,num_2,32,num_4,1.283446891,,,2018_Mar_08_1659,60.004099338,FEMA4ImagesEEG,001,203213,
AFNE01.JPG,AFNE01.JPG,AFNE01.JPG,AFNE01.JPG,AFNE01.JPG,AFNE01.JPG,,,,,,,,,,,,,,,,,4,6,46,0,,,,,,,AFNE07.jpg,AFSA01.jpg,AFNE06.jpg,AFSA19.jpg,AFSA19.jpg,FS,4,num_4,32,num_6,1.35006018658,,,2018_Mar_08_1659,60.004099338,FEMA4ImagesEEG,001,203213,
AFNE01.JPG,AFNE01.JPG,AFNE01.JPG,AFNE01.JPG,AFNE01.JPG,AFNE01.JPG,,,,,,,,,,,,,,,,,4,7,47,7,,,,,,,AFNE10.jpg,AFSA15.jpg,AFNE12.jpg,AFSA05.jpg,AFNE12.jpg,FN,3,num_2,16,num_2,0.833528502844,,,2018_Mar_08_1659,60.004099338,FEMA4ImagesEEG,001,203213,
AFNE01.JPG,AFNE01.JPG,AFNE01.JPG,AFNE01.JPG,AFNE01.JPG,AFNE01.JPG,,,,,,,,,,,,,,,,,4,8,48,9,,,,,,,AFNE06.jpg,AFNE10.jpg,AFSA16.jpg,AFSA01.jpg,AFNE06.jpg,FN,3,num_8,32,num_2,1.03343959432,,,2018_Mar_08_1659,60.004099338,FEMA4ImagesEEG,001,203213,
AFNE01.JPG,AFNE01.JPG,AFNE01.JPG,AFNE01.JPG,AFNE01.JPG,AFNE01.JPG,,,,,,,,,,,,,,,,,4,9,49,3,,,,,,,AFNE10.jpg,AFSA20.jpg,AFSA05.jpg,AFNE14.jpg,AFSA20.jpg,FS,4,num_6,32,num_8,0.633490398992,,,2018_Mar_08_1659,60.004099338,FEMA4ImagesEEG,001,203213,
AFNE01.JPG,AFNE01.JPG,AFNE01.JPG,AFNE01.JPG,AFNE01.JPG,AFNE01.JPG,,,,,,,,,,,,,,,,,5,0,50,8,,,,,,,AFNE01.jpg,AFNE05.jpg,AFSA10.jpg,AFSA17.jpg,AFNE01.jpg,FN,3,num_8,32,num_4,0.633509964217,,,2018_Mar_08_1659,60.004099338,FEMA4ImagesEEG,001,203213,
AFNE01.JPG,AFNE01.JPG,AFNE01.JPG,AFNE01.JPG,AFNE01.JPG,AFNE01.JPG,,,,,,,,,,,,,,,,,5,1,51,2,,,,,,,AFSA02.jpg,AFSA05.jpg,AFNE05.jpg,AFNE18.jpg,AFSA05.jpg,FS,4,num_6,32,num_4,0.499977387954,,,2018_Mar_08_1659,60.004099338,FEMA4ImagesEEG,001,203213,
AFNE01.JPG,AFNE01.JPG,AFNE01.JPG,AFNE01.JPG,AFNE01.JPG,AFNE01.JPG,,,,,,,,,,,,,,,,,5,2,52,9,,,,,,,AFSA20.jpg,AFSA04.jpg,AFNE19.jpg,AFNE11.jpg,AFSA20.jpg,FS,4,num_8,32,num_2,0.36682841531,,,2018_Mar_08_1659,60.004099338,FEMA4ImagesEEG,001,203213,
AFNE01.JPG,AFNE01.JPG,AFNE01.JPG,AFNE01.JPG,AFNE01.JPG,AFNE01.JPG,,,,,,,,,,,,,,,,,5,3,53,6,,,,,,,AFNE17.jpg,AFNE15.jpg,AFSA12.jpg,AFSA13.jpg,AFNE17.jpg,FN,3,num_8,32,num_6,1.24979849579,,,2018_Mar_08_1659,60.004099338,FEMA4ImagesEEG,001,203213,
AFNE01.JPG,AFNE01.JPG,AFNE01.JPG,AFNE01.JPG,AFNE01.JPG,AFNE01.JPG,,,,,,,,,,,,,,,,,5,4,54,4,,,,,,,AFSA15.jpg,AFNE17.jpg,AFNE15.jpg,AFSA18.jpg,AFSA18.jpg,FS,4,num_4,16,num_4,0.650130653055,,,2018_Mar_08_1659,60.004099338,FEMA4ImagesEEG,001,203213,
AFNE01.JPG,AFNE01.JPG,AFNE01.JPG,AFNE01.JPG,AFNE01.JPG,AFNE01.JPG,,,,,,,,,,,,,,,,,5,5,55,0,,,,,,,AFSA03.jpg,AFSA02.jpg,AFNE19.jpg,AFNE09.jpg,AFSA03.jpg,FS,4,num_8,32,num_4,0.266814014176,,,2018_Mar_08_1659,60.004099338,FEMA4ImagesEEG,001,203213,
AFNE01.JPG,AFNE01.JPG,AFNE01.JPG,AFNE01.JPG,AFNE01.JPG,AFNE01.JPG,,,,,,,,,,,,,,,,,5,6,56,5,,,,,,,AFSA12.jpg,AFNE19.jpg,AFSA03.jpg,AFNE10.jpg,AFSA03.jpg,FS,4,num_2,16,num_2,0.450163753238,,,2018_Mar_08_1659,60.004099338,FEMA4ImagesEEG,001,203213,
AFNE01.JPG,AFNE01.JPG,AFNE01.JPG,AFNE01.JPG,AFNE01.JPG,AFNE01.JPG,,,,,,,,,,,,,,,,,5,7,57,3,,,,,,,AFSA16.jpg,AFNE10.jpg,AFNE05.jpg,AFSA17.jpg,AFSA17.jpg,FS,4,num_4,32,num_8,1.00008467492,,,2018_Mar_08_1659,60.004099338,FEMA4ImagesEEG,001,203213,
AFNE01.JPG,AFNE01.JPG,AFNE01.JPG,AFNE01.JPG,AFNE01.JPG,AFNE01.JPG,,,,,,,,,,,,,,,,,5,8,58,1,,,,,,,AFSA07.jpg,AFNE13.jpg,AFSA09.jpg,AFNE02.jpg,AFNE02.jpg,FN,3,num_4,16,num_4,0.950230627321,,,2018_Mar_08_1659,60.004099338,FEMA4ImagesEEG,001,203213,
AFNE01.JPG,AFNE01.JPG,AFNE01.JPG,AFNE01.JPG,AFNE01.JPG,AFNE01.JPG,,,,,,,,,,,,,,,,,5,9,59,7,,,,,,,AFSA02.jpg,AFSA03.jpg,AFNE10.jpg,AFNE09.jpg,AFNE10.jpg,FN,3,num_2,16,num_2,0.900141478051,,,2018_Mar_08_1659,60.004099338,FEMA4ImagesEEG,001,203213,
,,,,,,,,,,,,,,,,,,,,,,,,,,,,,,,,,,,,,,,,,,,space,8.16619918961,2018_Mar_08_1659,60.004099338,FEMA4ImagesEEG,001,203213,
AFNE01.JPG,AFNE01.JPG,AFNE01.JPG,AFNE01.JPG,AFNE01.JPG,AFNE01.JPG,,,,,,,,,,,,,,,,,,,,,0,0,0,6,,,AMNE18.jpg,AMSA02.jpg,AMNE20.jpg,AMSA06.jpg,AMNE18.jpg,MN,1,num_8,32,num_4,0.933454700746,,,2018_Mar_08_1659,60.004099338,FEMA4ImagesEEG,001,203213,
AFNE01.JPG,AFNE01.JPG,AFNE01.JPG,AFNE01.JPG,AFNE01.JPG,AFNE01.JPG,,,,,,,,,,,,,,,,,,,,,0,1,1,9,,,AMNE14.jpg,AMNE06.jpg,AMSA13.jpg,AMSA20.jpg,AMSA13.jpg,MS,2,num_2,32,num_8,0.433519650484,,,2018_Mar_08_1659,60.004099338,FEMA4ImagesEEG,001,203213,
AFNE01.JPG,AFNE01.JPG,AFNE01.JPG,AFNE01.JPG,AFNE01.JPG,AFNE01.JPG,,,,,,,,,,,,,,,,,,,,,0,2,2,5,,,AMNE13.jpg,AMNE09.jpg,AMSA19.jpg,AMSA09.jpg,AMSA09.jpg,MS,2,num_4,32,num_2,1.06669444265,,,2018_Mar_08_1659,60.004099338,FEMA4ImagesEEG,001,203213,
AFNE01.JPG,AFNE01.JPG,AFNE01.JPG,AFNE01.JPG,AFNE01.JPG,AFNE01.JPG,,,,,,,,,,,,,,,,,,,,,0,3,3,4,,,AMNE07.jpg,AMNE05.jpg,AMSA16.jpg,AMSA04.jpg,AMNE07.jpg,MN,1,num_8,32,num_6,0.466869437601,,,2018_Mar_08_1659,60.004099338,FEMA4ImagesEEG,001,203213,
AFNE01.JPG,AFNE01.JPG,AFNE01.JPG,AFNE01.JPG,AFNE01.JPG,AFNE01.JPG,,,,,,,,,,,,,,,,,,,,,0,4,4,7,,,AMNE02.jpg,AMSA17.jpg,AMNE06.jpg,AMSA20.jpg,AMNE06.jpg,MN,1,num_2,32,num_4,0.416825512657,,,2018_Mar_08_1659,60.004099338,FEMA4ImagesEEG,001,203213,
AFNE01.JPG,AFNE01.JPG,AFNE01.JPG,AFNE01.JPG,AFNE01.JPG,AFNE01.JPG,,,,,,,,,,,,,,,,,,,,,0,5,5,0,,,AMNE18.jpg,AMSA12.jpg,AMSA07.jpg,AMNE20.jpg,AMNE18.jpg,MN,1,num_8,32,num_2,0.900063859299,,,2018_Mar_08_1659,60.004099338,FEMA4ImagesEEG,001,203213,
AFNE01.JPG,AFNE01.JPG,AFNE01.JPG,AFNE01.JPG,AFNE01.JPG,AFNE01.JPG,,,,,,,,,,,,,,,,,,,,,0,6,6,3,,,AMSA12.jpg,AMSA18.jpg,AMNE20.jpg,AMNE08.jpg,AMNE20.jpg,MN,1,num_2,32,num_8,0.383481819415,,,2018_Mar_08_1659,60.004099338,FEMA4ImagesEEG,001,203213,
AFNE01.JPG,AFNE01.JPG,AFNE01.JPG,AFNE01.JPG,AFNE01.JPG,AFNE01.JPG,,,,,,,,,,,,,,,,,,,,,0,7,7,1,,,AMSA02.jpg,AMNE12.jpg,AMSA01.jpg,AMNE19.jpg,AMNE19.jpg,MN,1,num_4,32,num_2,1.00012508803,,,2018_Mar_08_1659,60.004099338,FEMA4ImagesEEG,001,203213,
AFNE01.JPG,AFNE01.JPG,AFNE01.JPG,AFNE01.JPG,AFNE01.JPG,AFNE01.JPG,,,,,,,,,,,,,,,,,,,,,0,8,8,8,,,AMNE14.jpg,AMSA09.jpg,AMNE12.jpg,AMSA07.jpg,AMSA09.jpg,MS,2,num_6,16,num_6,0.866650565527,,,2018_Mar_08_1659,60.004099338,FEMA4ImagesEEG,001,203213,
AFNE01.JPG,AFNE01.JPG,AFNE01.JPG,AFNE01.JPG,AFNE01.JPG,AFNE01.JPG,,,,,,,,,,,,,,,,,,,,,0,9,9,2,,,AMNE17.jpg,AMNE06.jpg,AMSA18.jpg,AMSA20.jpg,AMSA18.jpg,MS,2,num_2,32,num_4,0.8667589752,,,2018_Mar_08_1659,60.004099338,FEMA4ImagesEEG,001,203213,
AFNE01.JPG,AFNE01.JPG,AFNE01.JPG,AFNE01.JPG,AFNE01.JPG,AFNE01.JPG,,,,,,,,,,,,,,,,,,,,,1,0,10,6,,,AMNE19.jpg,AMSA18.jpg,AMSA11.jpg,AMNE03.jpg,AMNE19.jpg,MN,1,num_8,16,num_8,0.400213483954,,,2018_Mar_08_1659,60.004099338,FEMA4ImagesEEG,001,203213,
AFNE01.JPG,AFNE01.JPG,AFNE01.JPG,AFNE01.JPG,AFNE01.JPG,AFNE01.JPG,,,,,,,,,,,,,,,,,,,,,1,1,11,0,,,AMSA13.jpg,AMSA18.jpg,AMNE08.jpg,AMNE20.jpg,AMNE08.jpg,MN,1,num_2,16,num_2,0.416810758645,,,2018_Mar_08_1659,60.004099338,FEMA4ImagesEEG,001,203213,
AFNE01.JPG,AFNE01.JPG,AFNE01.JPG,AFNE01.JPG,AFNE01.JPG,AFNE01.JPG,,,,,,,,,,,,,,,,,,,,,1,2,12,9,,,AMSA05.jpg,AMNE06.jpg,AMSA06.jpg,AMNE09.jpg,AMSA05.jpg,MS,2,num_8,32,num_2,0.216717808507,,,2018_Mar_08_1659,60.004099338,FEMA4ImagesEEG,001,203213,
AFNE01.JPG,AFNE01.JPG,AFNE01.JPG,AFNE01.JPG,AFNE01.JPG,AFNE01.JPG,,,,,,,,,,,,,,,,,,,,,1,3,13,1,,,AMNE15.jpg,AMNE16.jpg,AMSA17.jpg,AMSA11.jpg,AMSA11.jpg,MS,2,num_4,16,num_4,0.300190422684,,,2018_Mar_08_1659,60.004099338,FEMA4ImagesEEG,001,203213,
AFNE01.JPG,AFNE01.JPG,AFNE01.JPG,AFNE01.JPG,AFNE01.JPG,AFNE01.JPG,,,,,,,,,,,,,,,,,,,,,1,4,14,2,,,AMNE03.jpg,AMSA02.jpg,AMSA20.jpg,AMNE17.jpg,AMNE17.jpg,MN,1,num_4,32,num_8,1.13355149981,,,2018_Mar_08_1659,60.004099338,FEMA4ImagesEEG,001,203213,
AFNE01.JPG,AFNE01.JPG,AFNE01.JPG,AFNE01.JPG,AFNE01.JPG,AFNE01.JPG,,,,,,,,,,,,,,,,,,,,,1,5,15,7,,,AMNE08.jpg,AMNE07.jpg,AMSA03.jpg,AMSA06.jpg,AMNE07.jpg,MN,1,num_6,32,num_2,1.08340301388,,,2018_Mar_08_1659,60.004099338,FEMA4ImagesEEG,001,203213,
AFNE01.JPG,AFNE01.JPG,AFNE01.JPG,AFNE01.JPG,AFNE01.JPG,AFNE01.JPG,,,,,,,,,,,,,,,,,,,,,1,6,16,8,,,AMNE20.jpg,AMNE19.jpg,AMSA16.jpg,AMSA09.jpg,AMSA09.jpg,MS,2,num_4,16,num_4,1.01675892714,,,2018_Mar_08_1659,60.004099338,FEMA4ImagesEEG,001,203213,
AFNE01.JPG,AFNE01.JPG,AFNE01.JPG,AFNE01.JPG,AFNE01.JPG,AFNE01.JPG,,,,,,,,,,,,,,,,,,,,,1,7,17,4,,,AMSA17.jpg,AMSA05.jpg,AMNE01.jpg,AMNE13.jpg,AMSA17.jpg,MS,2,num_8,32,num_6,1.76672340534,,,2018_Mar_08_1659,60.004099338,FEMA4ImagesEEG,001,203213,
AFNE01.JPG,AFNE01.JPG,AFNE01.JPG,AFNE01.JPG,AFNE01.JPG,AFNE01.JPG,,,,,,,,,,,,,,,,,,,,,1,8,18,5,,,AMSA02.jpg,AMNE16.jpg,AMSA10.jpg,AMNE03.jpg,AMNE16.jpg,MN,1,num_6,16,num_6,0.933428079588,,,2018_Mar_08_1659,60.004099338,FEMA4ImagesEEG,001,203213,
AFNE01.JPG,AFNE01.JPG,AFNE01.JPG,AFNE01.JPG,AFNE01.JPG,AFNE01.JPG,,,,,,,,,,,,,,,,,,,,,1,9,19,3,,,AMSA17.jpg,AMNE17.jpg,AMSA12.jpg,AMNE19.jpg,AMNE17.jpg,MN,1,num_6,32,num_4,1.08346940693,,,2018_Mar_08_1659,60.004099338,FEMA4ImagesEEG,001,203213,
AFNE01.JPG,AFNE01.JPG,AFNE01.JPG,AFNE01.JPG,AFNE01.JPG,AFNE01.JPG,,,,,,,,,,,,,,,,,,,,,2,0,20,7,,,AMSA12.jpg,AMNE18.jpg,AMNE08.jpg,AMSA11.jpg,AMSA12.jpg,MS,2,num_8,32,num_2,1.46678219689,,,2018_Mar_08_1659,60.004099338,FEMA4ImagesEEG,001,203213,
AFNE01.JPG,AFNE01.JPG,AFNE01.JPG,AFNE01.JPG,AFNE01.JPG,AFNE01.JPG,,,,,,,,,,,,,,,,,,,,,2,1,21,2,,,AMNE04.jpg,AMNE08.jpg,AMSA06.jpg,AMSA09.jpg,AMNE04.jpg,MN,1,num_8,16,num_8,1.09998553456,,,2018_Mar_08_1659,60.004099338,FEMA4ImagesEEG,001,203213,
AFNE01.JPG,AFNE01.JPG,AFNE01.JPG,AFNE01.JPG,AFNE01.JPG,AFNE01.JPG,,,,,,,,,,,,,,,,,,,,,2,2,22,4,,,AMSA07.jpg,AMNE01.jpg,AMNE05.jpg,AMSA08.jpg,AMSA08.jpg,MS,2,num_4,16,num_4,0.700099525275,,,2018_Mar_08_1659,60.004099338,FEMA4ImagesEEG,001,203213,
AFNE01.JPG,AFNE01.JPG,AFNE01.JPG,AFNE01.JPG,AFNE01.JPG,AFNE01.JPG,,,,,,,,,,,,,,,,,,,,,2,3,23,8,,,AMSA20.jpg,AMSA04.jpg,AMNE11.jpg,AMNE08.jpg,AMSA04.jpg,MS,2,num_6,16,num_6,1.3167318888,,,2018_Mar_08_1659,60.004099338,FEMA4ImagesEEG,001,203213,
AFNE01.JPG,AFNE01.JPG,AFNE01.JPG,AFNE01.JPG,AFNE01.JPG,AFNE01.JPG,,,,,,,,,,,,,,,,,,,,,2,4,24,5,,,AMSA07.jpg,AMNE06.jpg,AMNE14.jpg,AMSA15.jpg,AMSA15.jpg,MS,2,num_4,32,num_2,1.38341767155,,,2018_Mar_08_1659,60.004099338,FEMA4ImagesEEG,001,203213,
AFNE01.JPG,AFNE01.JPG,AFNE01.JPG,AFNE01.JPG,AFNE01.JPG,AFNE01.JPG,,,,,,,,,,,,,,,,,,,,,2,5,25,9,,,AMNE12.jpg,AMSA13.jpg,AMNE05.jpg,AMSA05.jpg,AMSA05.jpg,MS,2,num_4,32,num_8,0.883462094003,,,2018_Mar_08_1659,60.004099338,FEMA4ImagesEEG,001,203213,
AFNE01.JPG,AFNE01.JPG,AFNE01.JPG,AFNE01.JPG,AFNE01.JPG,AFNE01.JPG,,,,,,,,,,,,,,,,,,,,,2,6,26,6,,,AMNE14.jpg,AMSA09.jpg,AMSA17.jpg,AMNE20.jpg,AMSA09.jpg,MS,2,num_6,32,num_2,0.916780448752,,,2018_Mar_08_1659,60.004099338,FEMA4ImagesEEG,001,203213,
AFNE01.JPG,AFNE01.JPG,AFNE01.JPG,AFNE01.JPG,AFNE01.JPG,AFNE01.JPG,,,,,,,,,,,,,,,,,,,,,2,7,27,1,,,AMSA14.jpg,AMSA15.jpg,AMNE16.jpg,AMNE04.jpg,AMSA15.jpg,MS,2,num_6,16,num_6,1.23342670035,,,2018_Mar_08_1659,60.004099338,FEMA4ImagesEEG,001,203213,
AFNE01.JPG,AFNE01.JPG,AFNE01.JPG,AFNE01.JPG,AFNE01.JPG,AFNE01.JPG,,,,,,,,,,,,,,,,,,,,,2,8,28,0,,,AMNE20.jpg,AMNE01.jpg,AMSA01.jpg,AMSA12.jpg,AMSA12.jpg,MS,2,num_4,16,num_4,1.06678168359,,,2018_Mar_08_1659,60.004099338,FEMA4ImagesEEG,001,203213,
AFNE01.JPG,AFNE01.JPG,AFNE01.JPG,AFNE01.JPG,AFNE01.JPG,AFNE01.JPG,,,,,,,,,,,,,,,,,,,,,2,9,29,3,,,AMSA07.jpg,AMNE19.jpg,AMSA10.jpg,AMNE17.jpg,AMNE19.jpg,MN,1,num_6,32,num_8,1.30010670982,,,2018_Mar_08_1659,60.004099338,FEMA4ImagesEEG,001,203213,
AFNE01.JPG,AFNE01.JPG,AFNE01.JPG,AFNE01.JPG,AFNE01.JPG,AFNE01.JPG,,,,,,,,,,,,,,,,,,,,,3,0,30,0,,,AMNE06.jpg,AMNE10.jpg,AMSA13.jpg,AMSA05.jpg,AMNE10.jpg,MN,1,num_6,16,num_6,0.750083151506,,,2018_Mar_08_1659,60.004099338,FEMA4ImagesEEG,001,203213,
AFNE01.JPG,AFNE01.JPG,AFNE01.JPG,AFNE01.JPG,AFNE01.JPG,AFNE01.JPG,,,,,,,,,,,,,,,,,,,,,3,1,31,9,,,AMNE08.jpg,AMSA13.jpg,AMNE19.jpg,AMSA16.jpg,AMNE19.jpg,MN,1,num_2,32,num_4,1.0001196356,,,2018_Mar_08_1659,60.004099338,FEMA4ImagesEEG,001,203213,
AFNE01.JPG,AFNE01.JPG,AFNE01.JPG,AFNE01.JPG,AFNE01.JPG,AFNE01.JPG,,,,,,,,,,,,,,,,,,,,,3,2,32,7,,,AMNE19.jpg,AMSA13.jpg,AMSA04.jpg,AMNE13.jpg,AMSA04.jpg,MS,2,num_2,32,num_8,1.7834274862,,,2018_Mar_08_1659,60.004099338,FEMA4ImagesEEG,001,203213,
AFNE01.JPG,AFNE01.JPG,AFNE01.JPG,AFNE01.JPG,AFNE01.JPG,AFNE01.JPG,,,,,,,,,,,,,,,,,,,,,3,3,33,1,,,AMNE02.jpg,AMSA14.jpg,AMNE15.jpg,AMSA17.jpg,AMNE15.jpg,MN,1,num_2,16,num_2,1.06677879696,,,2018_Mar_08_1659,60.004099338,FEMA4ImagesEEG,001,203213,
AFNE01.JPG,AFNE01.JPG,AFNE01.JPG,AFNE01.JPG,AFNE01.JPG,AFNE01.JPG,,,,,,,,,,,,,,,,,,,,,3,4,34,3,,,AMNE03.jpg,AMNE12.jpg,AMSA03.jpg,AMSA20.jpg,AMSA03.jpg,MS,2,num_2,32,num_8,0.700156616978,,,2018_Mar_08_1659,60.004099338,FEMA4ImagesEEG,001,203213,
AFNE01.JPG,AFNE01.JPG,AFNE01.JPG,AFNE01.JPG,AFNE01.JPG,AFNE01.JPG,,,,,,,,,,,,,,,,,,,,,3,5,35,8,,,AMNE10.jpg,AMSA18.jpg,AMNE01.jpg,AMSA01.jpg,AMSA18.jpg,MS,2,num_6,32,num_2,1.06674672314,,,2018_Mar_08_1659,60.004099338,FEMA4ImagesEEG,001,203213,
AFNE01.JPG,AFNE01.JPG,AFNE01.JPG,AFNE01.JPG,AFNE01.JPG,AFNE01.JPG,,,,,,,,,,,,,,,,,,,,,3,6,36,5,,,AMSA06.jpg,AMSA12.jpg,AMNE09.jpg,AMNE07.jpg,AMSA12.jpg,MS,2,num_6,32,num_4,1.26644420205,,,2018_Mar_08_1659,60.004099338,FEMA4ImagesEEG,001,203213,
AFNE01.JPG,AFNE01.JPG,AFNE01.JPG,AFNE01.JPG,AFNE01.JPG,AFNE01.JPG,,,,,,,,,,,,,,,,,,,,,3,7,37,6,,,AMSA07.jpg,AMNE15.jpg,AMNE19.jpg,AMSA03.jpg,AMSA07.jpg,MS,2,num_8,16,num_8,0.90010459302,,,2018_Mar_08_1659,60.004099338,FEMA4ImagesEEG,001,203213,
AFNE01.JPG,AFNE01.JPG,AFNE01.JPG,AFNE01.JPG,AFNE01.JPG,AFNE01.JPG,,,,,,,,,,,,,,,,,,,,,3,8,38,4,,,AMNE17.jpg,AMSA16.jpg,AMSA15.jpg,AMNE03.jpg,AMNE03.jpg,MN,1,num_4,16,num_4,0.950027920306,,,2018_Mar_08_1659,60.004099338,FEMA4ImagesEEG,001,203213,
AFNE01.JPG,AFNE01.JPG,AFNE01.JPG,AFNE01.JPG,AFNE01.JPG,AFNE01.JPG,,,,,,,,,,,,,,,,,,,,,3,9,39,2,,,AMNE12.jpg,AMNE01.jpg,AMSA03.jpg,AMSA11.jpg,AMNE12.jpg,MN,1,num_8,16,num_8,1.60008704849,,,2018_Mar_08_1659,60.004099338,FEMA4ImagesEEG,001,203213,
AFNE01.JPG,AFNE01.JPG,AFNE01.JPG,AFNE01.JPG,AFNE01.JPG,AFNE01.JPG,,,,,,,,,,,,,,,,,,,,,4,0,40,9,,,AMNE08.jpg,AMNE02.jpg,AMSA06.jpg,AMSA04.jpg,AMNE02.jpg,MN,1,num_6,16,num_6,2.40003387001,,,2018_Mar_08_1659,60.004099338,FEMA4ImagesEEG,001,203213,
