IPosition2,IPosition3,IPosition1,IPosition6,IPosition4,IPosition5,TrialsF1.thisRepN,TrialsF1.thisTrialN,TrialsF1.thisN,TrialsF1.thisIndex,TrialsM1.thisRepN,TrialsM1.thisTrialN,TrialsM1.thisN,TrialsM1.thisIndex,TrialsF2.thisRepN,TrialsF2.thisTrialN,TrialsF2.thisN,TrialsF2.thisIndex,TrialsM2.thisRepN,TrialsM2.thisTrialN,TrialsM2.thisN,TrialsM2.thisIndex,TrialsF3.thisRepN,TrialsF3.thisTrialN,TrialsF3.thisN,TrialsF3.thisIndex,TrialsM3.thisRepN,TrialsM3.thisTrialN,TrialsM3.thisN,TrialsM3.thisIndex,InstrKey_resp.keys,InstrKey_resp.rt,Image0 _Position,Image1 _Position,Image2 _Position,Image3 _Position,Center_image,condition,code,correct_answer,accuracy,Key_Resp.keys,Key_Resp.rt,BreakKey_resp.keys,BreakKey_resp.rt,date,frameRate,expName,session,participant,
,,,,,,,,,,,,,,,,,,,,,,,,,,,,,,space,11.1991592795,,,,,,,,,,,,,,2018_Mar_16_1215,60.0114911633,FEMA4ImagesEEG,001,203346,
AFSA21.JPG,AFNE22.JPG,AFNE21.JPG,AFSA23.JPG,AFSA22.JPG,AFNE23.JPG,0,0,0,0,,,,,,,,,,,,,,,,,,,,,,,AFSA08.jpg,AFNE16.jpg,AFNE06.jpg,AFSA13.jpg,AFNE06.jpg,FN,3,num_2,32,num_6,0.716916827019,,,2018_Mar_16_1215,60.0114911633,FEMA4ImagesEEG,001,203346,
AFNE22.JPG,AFSA24.JPG,AFSA22.JPG,AFNE25.JPG,AFNE24.JPG,AFSA25.JPG,0,1,1,6,,,,,,,,,,,,,,,,,,,,,,,AFSA03.jpg,AFNE10.jpg,AFSA11.jpg,AFNE03.jpg,AFNE03.jpg,FN,3,num_4,16,num_4,0.550131326541,,,2018_Mar_16_1215,60.0114911633,FEMA4ImagesEEG,001,203346,
AFSA21.JPG,AFNE23.JPG,AFNE21.JPG,AFSA25.JPG,AFNE25.JPG,AFSA23.JPG,0,2,2,4,,,,,,,,,,,,,,,,,,,,,,,AFNE19.jpg,AFNE17.jpg,AFSA03.jpg,AFSA08.jpg,AFNE19.jpg,FN,3,num_8,16,num_8,0.600156649016,,,2018_Mar_16_1215,60.0114911633,FEMA4ImagesEEG,001,203346,
AMNE23.JPG,AMNE24.JPG,AMNE22.JPG,AMSA24.JPG,AMSA22.JPG,AMSA23.JPG,0,3,3,9,,,,,,,,,,,,,,,,,,,,,,,AFNE10.jpg,AFSA08.jpg,AFSA18.jpg,AFNE16.jpg,AFSA18.jpg,FS,4,num_2,32,num_6,0.533506467938,,,2018_Mar_16_1215,60.0114911633,FEMA4ImagesEEG,001,203346,
AMNE22.JPG,AMSA24.JPG,AMSA22.JPG,AMNE25.JPG,AMNE24.JPG,AMSA25.JPG,0,4,4,7,,,,,,,,,,,,,,,,,,,,,,,AFSA18.jpg,AFNE16.jpg,AFNE10.jpg,AFSA02.jpg,AFNE16.jpg,FN,3,num_6,32,num_8,0.850163304247,,,2018_Mar_16_1215,60.0114911633,FEMA4ImagesEEG,001,203346,
AMSA25.JPG,AMNE24.JPG,AMSA24.JPG,AMNE26.JPG,AMSA21.JPG,AMNE25.JPG,0,5,5,3,,,,,,,,,,,,,,,,,,,,,,,AFSA15.jpg,AFSA13.jpg,AFNE03.jpg,AFNE12.jpg,AFNE12.jpg,FN,3,num_4,16,num_4,1.1001269808,,,2018_Mar_16_1215,60.0114911633,FEMA4ImagesEEG,001,203346,
AFNE23.JPG,AFNE24.JPG,AFNE22.JPG,AFSA24.JPG,AFSA22.JPG,AFSA23.JPG,0,6,6,8,,,,,,,,,,,,,,,,,,,,,,,AFNE20.jpg,AFNE06.jpg,AFSA17.jpg,AFSA15.jpg,AFSA17.jpg,FS,4,num_2,32,num_4,0.80015947111,,,2018_Mar_16_1215,60.0114911633,FEMA4ImagesEEG,001,203346,
AMSA21.JPG,AMNE23.JPG,AMNE21.JPG,AMSA25.JPG,AMNE25.JPG,AMSA23.JPG,0,7,7,5,,,,,,,,,,,,,,,,,,,,,,,AFNE02.jpg,AFSA18.jpg,AFNE13.jpg,AFSA07.jpg,AFNE13.jpg,FN,3,num_2,32,num_6,0.583501961548,,,2018_Mar_16_1215,60.0114911633,FEMA4ImagesEEG,001,203346,
AFSA25.JPG,AFNE24.JPG,AFSA24.JPG,AFNE21.JPG,AFSA21.JPG,AFNE25.JPG,0,8,8,2,,,,,,,,,,,,,,,,,,,,,,,AFNE03.jpg,AFNE14.jpg,AFSA15.jpg,AFSA08.jpg,AFSA15.jpg,FS,4,num_2,16,num_2,1.01679003891,,,2018_Mar_16_1215,60.0114911633,FEMA4ImagesEEG,001,203346,
AMSA21.JPG,AMNE22.JPG,AMNE21.JPG,AMSA23.JPG,AMSA22.JPG,AMNE23.JPG,0,9,9,1,,,,,,,,,,,,,,,,,,,,,,,AFNE02.jpg,AFSA18.jpg,AFSA10.jpg,AFNE16.jpg,AFSA18.jpg,FS,4,num_6,16,num_6,0.633521510754,,,2018_Mar_16_1215,60.0114911633,FEMA4ImagesEEG,001,203346,
AMSA21.JPG,AMNE22.JPG,AMNE21.JPG,AMSA23.JPG,AMSA22.JPG,AMNE23.JPG,,,,,0,0,0,1,,,,,,,,,,,,,,,,,,,AMNE09.jpg,AMSA03.jpg,AMSA12.jpg,AMNE05.jpg,AMNE09.jpg,MN,1,num_8,32,num_4,0.616864578798,,,2018_Mar_16_1215,60.0114911633,FEMA4ImagesEEG,001,203346,
AFSA21.JPG,AFNE23.JPG,AFNE21.JPG,AFSA25.JPG,AFNE25.JPG,AFSA23.JPG,,,,,0,1,1,4,,,,,,,,,,,,,,,,,,,AMNE04.jpg,AMSA06.jpg,AMNE01.jpg,AMSA17.jpg,AMNE04.jpg,MN,1,num_8,16,num_8,0.616757131182,,,2018_Mar_16_1215,60.0114911633,FEMA4ImagesEEG,001,203346,
AFSA25.JPG,AFNE24.JPG,AFSA24.JPG,AFNE21.JPG,AFSA21.JPG,AFNE25.JPG,,,,,0,2,2,2,,,,,,,,,,,,,,,,,,,AMSA03.jpg,AMNE14.jpg,AMNE07.jpg,AMSA14.jpg,AMNE14.jpg,MN,1,num_6,32,num_4,0.766770554241,,,2018_Mar_16_1215,60.0114911633,FEMA4ImagesEEG,001,203346,
AMNE22.JPG,AMSA24.JPG,AMSA22.JPG,AMNE25.JPG,AMNE24.JPG,AMSA25.JPG,,,,,0,3,3,7,,,,,,,,,,,,,,,,,,,AMNE20.jpg,AMNE03.jpg,AMSA02.jpg,AMSA04.jpg,AMNE20.jpg,MN,1,num_8,32,num_6,0.583488811739,,,2018_Mar_16_1215,60.0114911633,FEMA4ImagesEEG,001,203346,
AFSA21.JPG,AFNE22.JPG,AFNE21.JPG,AFSA23.JPG,AFSA22.JPG,AFNE23.JPG,,,,,0,4,4,0,,,,,,,,,,,,,,,,,,,AMSA06.jpg,AMNE01.jpg,AMSA02.jpg,AMNE14.jpg,AMSA06.jpg,MS,2,num_8,16,num_8,0.733523403294,,,2018_Mar_16_1215,60.0114911633,FEMA4ImagesEEG,001,203346,
AFNE23.JPG,AFNE24.JPG,AFNE22.JPG,AFSA24.JPG,AFSA22.JPG,AFSA23.JPG,,,,,0,5,5,8,,,,,,,,,,,,,,,,,,,AMSA10.jpg,AMNE20.jpg,AMNE04.jpg,AMSA08.jpg,AMSA08.jpg,MS,2,num_4,16,num_4,0.750154355541,,,2018_Mar_16_1215,60.0114911633,FEMA4ImagesEEG,001,203346,
AFNE22.JPG,AFSA24.JPG,AFSA22.JPG,AFNE25.JPG,AFNE24.JPG,AFSA25.JPG,,,,,0,6,6,6,,,,,,,,,,,,,,,,,,,AMNE09.jpg,AMSA03.jpg,AMSA02.jpg,AMNE01.jpg,AMSA02.jpg,MS,2,num_2,32,num_6,0.666766095906,,,2018_Mar_16_1215,60.0114911633,FEMA4ImagesEEG,001,203346,
AMSA21.JPG,AMNE23.JPG,AMNE21.JPG,AMSA25.JPG,AMNE25.JPG,AMSA23.JPG,,,,,0,7,7,5,,,,,,,,,,,,,,,,,,,AMSA09.jpg,AMNE12.jpg,AMNE08.jpg,AMSA19.jpg,AMNE08.jpg,MN,1,num_2,32,num_8,0.833600027487,,,2018_Mar_16_1215,60.0114911633,FEMA4ImagesEEG,001,203346,
AMNE23.JPG,AMNE24.JPG,AMNE22.JPG,AMSA24.JPG,AMSA22.JPG,AMSA23.JPG,,,,,0,8,8,9,,,,,,,,,,,,,,,,,,,AMSA15.jpg,AMNE12.jpg,AMNE01.jpg,AMSA09.jpg,AMNE01.jpg,MN,1,num_2,16,num_2,0.466796630062,,,2018_Mar_16_1215,60.0114911633,FEMA4ImagesEEG,001,203346,
AMSA25.JPG,AMNE24.JPG,AMSA24.JPG,AMNE26.JPG,AMSA21.JPG,AMNE25.JPG,,,,,0,9,9,3,,,,,,,,,,,,,,,,,,,AMSA18.jpg,AMNE18.jpg,AMNE01.jpg,AMSA19.jpg,AMNE18.jpg,MN,1,num_6,32,num_8,0.816638072953,,,2018_Mar_16_1215,60.0114911633,FEMA4ImagesEEG,001,203346,
AMNE22.JPG,AMSA24.JPG,AMSA22.JPG,AMNE25.JPG,AMNE24.JPG,AMSA25.JPG,,,,,,,,,0,0,0,7,,,,,,,,,,,,,,,AFSA05.jpg,AFSA07.jpg,AFNE03.jpg,AFNE17.jpg,AFSA05.jpg,FS,4,num_8,32,num_2,1.03345370665,,,2018_Mar_16_1215,60.0114911633,FEMA4ImagesEEG,001,203346,
AFSA21.JPG,AFNE22.JPG,AFNE21.JPG,AFSA23.JPG,AFSA22.JPG,AFNE23.JPG,,,,,,,,,0,1,1,0,,,,,,,,,,,,,,,AFNE11.jpg,AFSA11.jpg,AFSA04.jpg,AFNE12.jpg,AFSA04.jpg,FS,4,num_2,16,num_2,0.516795651987,,,2018_Mar_16_1215,60.0114911633,FEMA4ImagesEEG,001,203346,
AMSA21.JPG,AMNE23.JPG,AMNE21.JPG,AMSA25.JPG,AMNE25.JPG,AMSA23.JPG,,,,,,,,,0,2,2,5,,,,,,,,,,,,,,,AFNE19.jpg,AFSA05.jpg,AFNE08.jpg,AFSA20.jpg,AFSA20.jpg,FS,4,num_4,16,num_4,0.683402821422,,,2018_Mar_16_1215,60.0114911633,FEMA4ImagesEEG,001,203346,
AMSA25.JPG,AMNE24.JPG,AMSA24.JPG,AMNE26.JPG,AMSA21.JPG,AMNE25.JPG,,,,,,,,,0,3,3,3,,,,,,,,,,,,,,,AFNE09.jpg,AFSA06.jpg,AFNE13.jpg,AFSA10.jpg,AFSA06.jpg,FS,4,num_6,16,num_6,0.483541765716,,,2018_Mar_16_1215,60.0114911633,FEMA4ImagesEEG,001,203346,
AFNE22.JPG,AFSA24.JPG,AFSA22.JPG,AFNE25.JPG,AFNE24.JPG,AFSA25.JPG,,,,,,,,,0,4,4,6,,,,,,,,,,,,,,,AFSA17.jpg,AFSA02.jpg,AFNE13.jpg,AFNE15.jpg,AFSA17.jpg,FS,4,num_8,32,num_6,0.850177416578,,,2018_Mar_16_1215,60.0114911633,FEMA4ImagesEEG,001,203346,
AFNE23.JPG,AFNE24.JPG,AFNE22.JPG,AFSA24.JPG,AFSA22.JPG,AFSA23.JPG,,,,,,,,,0,5,5,8,,,,,,,,,,,,,,,AFNE15.jpg,AFSA01.jpg,AFSA10.jpg,AFNE17.jpg,AFNE15.jpg,FN,3,num_8,16,num_8,0.750177769456,,,2018_Mar_16_1215,60.0114911633,FEMA4ImagesEEG,001,203346,
AMNE23.JPG,AMNE24.JPG,AMNE22.JPG,AMSA24.JPG,AMSA22.JPG,AMSA23.JPG,,,,,,,,,0,6,6,9,,,,,,,,,,,,,,,AFNE02.jpg,AFSA17.jpg,AFNE05.jpg,AFSA04.jpg,AFNE02.jpg,FN,3,num_8,32,num_6,0.783510236535,,,2018_Mar_16_1215,60.0114911633,FEMA4ImagesEEG,001,203346,
AFSA21.JPG,AFNE23.JPG,AFNE21.JPG,AFSA25.JPG,AFNE25.JPG,AFSA23.JPG,,,,,,,,,0,7,7,4,,,,,,,,,,,,,,,AFSA13.jpg,AFNE20.jpg,AFNE09.jpg,AFSA15.jpg,AFSA15.jpg,FS,4,num_4,16,num_4,0.566774146631,,,2018_Mar_16_1215,60.0114911633,FEMA4ImagesEEG,001,203346,
AMSA21.JPG,AMNE22.JPG,AMNE21.JPG,AMSA23.JPG,AMSA22.JPG,AMNE23.JPG,,,,,,,,,0,8,8,1,,,,,,,,,,,,,,,AFSA10.jpg,AFNE12.jpg,AFNE02.jpg,AFSA05.jpg,AFSA05.jpg,FS,4,num_4,16,num_4,0.733511535916,,,2018_Mar_16_1215,60.0114911633,FEMA4ImagesEEG,001,203346,
AFSA25.JPG,AFNE24.JPG,AFSA24.JPG,AFNE21.JPG,AFSA21.JPG,AFNE25.JPG,,,,,,,,,0,9,9,2,,,,,,,,,,,,,,,AFNE11.jpg,AFNE07.jpg,AFSA07.jpg,AFSA15.jpg,AFSA15.jpg,FS,4,num_4,16,num_4,0.633612280246,,,2018_Mar_16_1215,60.0114911633,FEMA4ImagesEEG,001,203346,
AMNE23.JPG,AMNE24.JPG,AMNE22.JPG,AMSA24.JPG,AMSA22.JPG,AMSA23.JPG,,,,,,,,,,,,,0,0,0,9,,,,,,,,,,,AMNE11.jpg,AMSA09.jpg,AMSA01.jpg,AMNE16.jpg,AMSA01.jpg,MS,2,num_2,16,num_2,0.566768372897,,,2018_Mar_16_1215,60.0114911633,FEMA4ImagesEEG,001,203346,
AMSA25.JPG,AMNE24.JPG,AMSA24.JPG,AMNE26.JPG,AMSA21.JPG,AMNE25.JPG,,,,,,,,,,,,,0,1,1,3,,,,,,,,,,,AMSA04.jpg,AMSA07.jpg,AMNE08.jpg,AMNE17.jpg,AMNE17.jpg,MN,1,num_4,32,num_6,0.883172466885,,,2018_Mar_16_1215,60.0114911633,FEMA4ImagesEEG,001,203346,
AFNE23.JPG,AFNE24.JPG,AFNE22.JPG,AFSA24.JPG,AFSA22.JPG,AFSA23.JPG,,,,,,,,,,,,,0,2,2,8,,,,,,,,,,,AMNE07.jpg,AMNE02.jpg,AMSA12.jpg,AMSA20.jpg,AMNE07.jpg,MN,1,num_8,32,num_4,0.766811929643,,,2018_Mar_16_1215,60.0114911633,FEMA4ImagesEEG,001,203346,
AFSA21.JPG,AFNE23.JPG,AFNE21.JPG,AFSA25.JPG,AFNE25.JPG,AFSA23.JPG,,,,,,,,,,,,,0,3,3,4,,,,,,,,,,,AMSA03.jpg,AMSA20.jpg,AMNE08.jpg,AMNE12.jpg,AMSA03.jpg,MS,2,num_8,16,num_8,0.683484289329,,,2018_Mar_16_1215,60.0114911633,FEMA4ImagesEEG,001,203346,
AFSA21.JPG,AFNE22.JPG,AFNE21.JPG,AFSA23.JPG,AFSA22.JPG,AFNE23.JPG,,,,,,,,,,,,,0,4,4,0,,,,,,,,,,,AMSA07.jpg,AMNE13.jpg,AMNE05.jpg,AMSA03.jpg,AMNE05.jpg,MN,1,num_2,32,num_6,0.750137356576,,,2018_Mar_16_1215,60.0114911633,FEMA4ImagesEEG,001,203346,
AMSA21.JPG,AMNE23.JPG,AMNE21.JPG,AMSA25.JPG,AMNE25.JPG,AMSA23.JPG,,,,,,,,,,,,,0,5,5,5,,,,,,,,,,,AMNE17.jpg,AMSA13.jpg,AMSA15.jpg,AMNE02.jpg,AMSA13.jpg,MS,2,num_6,32,num_2,0.600150234066,,,2018_Mar_16_1215,60.0114911633,FEMA4ImagesEEG,001,203346,
AFSA25.JPG,AFNE24.JPG,AFSA24.JPG,AFNE21.JPG,AFSA21.JPG,AFNE25.JPG,,,,,,,,,,,,,0,6,6,2,,,,,,,,,,,AMSA11.jpg,AMNE15.jpg,AMNE02.jpg,AMSA19.jpg,AMSA11.jpg,MS,2,num_8,32,num_6,0.833457299042,,,2018_Mar_16_1215,60.0114911633,FEMA4ImagesEEG,001,203346,
AMNE22.JPG,AMSA24.JPG,AMSA22.JPG,AMNE25.JPG,AMNE24.JPG,AMSA25.JPG,,,,,,,,,,,,,0,7,7,7,,,,,,,,,,,AMNE10.jpg,AMSA02.jpg,AMSA14.jpg,AMNE16.jpg,AMSA02.jpg,MS,2,num_6,32,num_2,0.566835407168,,,2018_Mar_16_1215,60.0114911633,FEMA4ImagesEEG,001,203346,
AFNE22.JPG,AFSA24.JPG,AFSA22.JPG,AFNE25.JPG,AFNE24.JPG,AFSA25.JPG,,,,,,,,,,,,,0,8,8,6,,,,,,,,,,,AMNE06.jpg,AMNE17.jpg,AMSA11.jpg,AMSA06.jpg,AMSA11.jpg,MS,2,num_2,32,num_4,1.0334614045,,,2018_Mar_16_1215,60.0114911633,FEMA4ImagesEEG,001,203346,
AMSA21.JPG,AMNE22.JPG,AMNE21.JPG,AMSA23.JPG,AMSA22.JPG,AMNE23.JPG,,,,,,,,,,,,,0,9,9,1,,,,,,,,,,,AMSA10.jpg,AMNE03.jpg,AMSA15.jpg,AMNE06.jpg,AMNE03.jpg,MN,1,num_6,16,num_6,0.783483935986,,,2018_Mar_16_1215,60.0114911633,FEMA4ImagesEEG,001,203346,
AMNE23.JPG,AMNE24.JPG,AMNE22.JPG,AMSA24.JPG,AMSA22.JPG,AMSA23.JPG,,,,,,,,,,,,,,,,,0,0,0,9,,,,,,,AFNE10.jpg,AFSA17.jpg,AFSA02.jpg,AFNE17.jpg,AFSA02.jpg,FS,4,num_2,32,num_4,0.966761188582,,,2018_Mar_16_1215,60.0114911633,FEMA4ImagesEEG,001,203346,
AMSA21.JPG,AMNE22.JPG,AMNE21.JPG,AMSA23.JPG,AMSA22.JPG,AMNE23.JPG,,,,,,,,,,,,,,,,,0,1,1,1,,,,,,,AFSA15.jpg,AFNE03.jpg,AFNE12.jpg,AFSA05.jpg,AFSA05.jpg,FS,4,num_4,16,num_4,0.56682386063,,,2018_Mar_16_1215,60.0114911633,FEMA4ImagesEEG,001,203346,
AFSA25.JPG,AFNE24.JPG,AFSA24.JPG,AFNE21.JPG,AFSA21.JPG,AFNE25.JPG,,,,,,,,,,,,,,,,,0,2,2,2,,,,,,,AFSA16.jpg,AFNE02.jpg,AFSA05.jpg,AFNE16.jpg,AFNE02.jpg,FN,3,num_6,16,num_6,1.26661964646,,,2018_Mar_16_1215,60.0114911633,FEMA4ImagesEEG,001,203346,
AMNE22.JPG,AMSA24.JPG,AMSA22.JPG,AMNE25.JPG,AMNE24.JPG,AMSA25.JPG,,,,,,,,,,,,,,,,,0,3,3,7,,,,,,,AFSA20.jpg,AFNE08.jpg,AFSA18.jpg,AFNE10.jpg,AFSA20.jpg,FS,4,num_8,32,num_4,1.16680827271,,,2018_Mar_16_1215,60.0114911633,FEMA4ImagesEEG,001,203346,
AFNE22.JPG,AFSA24.JPG,AFSA22.JPG,AFNE25.JPG,AFNE24.JPG,AFSA25.JPG,,,,,,,,,,,,,,,,,0,4,4,6,,,,,,,AFNE10.jpg,AFSA14.jpg,AFSA15.jpg,AFNE19.jpg,AFNE10.jpg,FN,3,num_8,32,num_4,1.18344018748,,,2018_Mar_16_1215,60.0114911633,FEMA4ImagesEEG,001,203346,
AFSA21.JPG,AFNE22.JPG,AFNE21.JPG,AFSA23.JPG,AFSA22.JPG,AFNE23.JPG,,,,,,,,,,,,,,,,,0,5,5,0,,,,,,,AFSA03.jpg,AFSA20.jpg,AFNE12.jpg,AFNE03.jpg,AFNE03.jpg,FN,3,num_4,32,num_2,0.650166575797,,,2018_Mar_16_1215,60.0114911633,FEMA4ImagesEEG,001,203346,
AMSA25.JPG,AMNE24.JPG,AMSA24.JPG,AMNE26.JPG,AMSA21.JPG,AMNE25.JPG,,,,,,,,,,,,,,,,,0,6,6,3,,,,,,,AFSA14.jpg,AFNE10.jpg,AFNE08.jpg,AFSA06.jpg,AFNE08.jpg,FN,3,num_2,32,num_6,1.00009076903,,,2018_Mar_16_1215,60.0114911633,FEMA4ImagesEEG,001,203346,
AFSA21.JPG,AFNE23.JPG,AFNE21.JPG,AFSA25.JPG,AFNE25.JPG,AFSA23.JPG,,,,,,,,,,,,,,,,,0,7,7,4,,,,,,,AFSA03.jpg,AFSA01.jpg,AFNE06.jpg,AFNE08.jpg,AFSA03.jpg,FS,4,num_8,32,num_6,0.600157611072,,,2018_Mar_16_1215,60.0114911633,FEMA4ImagesEEG,001,203346,
AMSA21.JPG,AMNE23.JPG,AMNE21.JPG,AMSA25.JPG,AMNE25.JPG,AMSA23.JPG,,,,,,,,,,,,,,,,,0,8,8,5,,,,,,,AFNE11.jpg,AFSA16.jpg,AFNE03.jpg,AFSA18.jpg,AFNE03.jpg,FN,3,num_2,32,num_8,0.883488073479,,,2018_Mar_16_1215,60.0114911633,FEMA4ImagesEEG,001,203346,
AFNE23.JPG,AFNE24.JPG,AFNE22.JPG,AFSA24.JPG,AFSA22.JPG,AFSA23.JPG,,,,,,,,,,,,,,,,,0,9,9,8,,,,,,,AFSA11.jpg,AFNE08.jpg,AFNE04.jpg,AFSA19.jpg,AFNE08.jpg,FN,3,num_6,16,num_6,1.18342158431,,,2018_Mar_16_1215,60.0114911633,FEMA4ImagesEEG,001,203346,
AFSA21.JPG,AFNE23.JPG,AFNE21.JPG,AFSA25.JPG,AFNE25.JPG,AFSA23.JPG,,,,,,,,,,,,,,,,,,,,,0,0,0,4,,,AMSA08.jpg,AMNE11.jpg,AMNE19.jpg,AMSA19.jpg,AMNE19.jpg,MN,1,num_2,32,num_6,0.833444789983,,,2018_Mar_16_1215,60.0114911633,FEMA4ImagesEEG,001,203346,
AMSA25.JPG,AMNE24.JPG,AMSA24.JPG,AMNE26.JPG,AMSA21.JPG,AMNE25.JPG,,,,,,,,,,,,,,,,,,,,,0,1,1,3,,,AMNE03.jpg,AMNE17.jpg,AMSA02.jpg,AMSA07.jpg,AMSA02.jpg,MS,2,num_2,16,num_2,0.633476286661,,,2018_Mar_16_1215,60.0114911633,FEMA4ImagesEEG,001,203346,
AMNE23.JPG,AMNE24.JPG,AMNE22.JPG,AMSA24.JPG,AMSA22.JPG,AMSA23.JPG,,,,,,,,,,,,,,,,,,,,,0,2,2,9,,,AMNE03.jpg,AMSA05.jpg,AMNE02.jpg,AMSA08.jpg,AMSA08.jpg,MS,2,num_4,32,num_8,2.43336120574,,,2018_Mar_16_1215,60.0114911633,FEMA4ImagesEEG,001,203346,
AFNE23.JPG,AFNE24.JPG,AFNE22.JPG,AFSA24.JPG,AFSA22.JPG,AFSA23.JPG,,,,,,,,,,,,,,,,,,,,,0,3,3,8,,,AMSA08.jpg,AMNE16.jpg,AMSA04.jpg,AMNE06.jpg,AMNE06.jpg,MN,1,num_4,32,num_6,0.683530475479,,,2018_Mar_16_1215,60.0114911633,FEMA4ImagesEEG,001,203346,
AMSA21.JPG,AMNE23.JPG,AMNE21.JPG,AMSA25.JPG,AMNE25.JPG,AMSA23.JPG,,,,,,,,,,,,,,,,,,,,,0,4,4,5,,,AMSA11.jpg,AMNE10.jpg,AMNE08.jpg,AMSA20.jpg,AMNE08.jpg,MN,1,num_2,16,num_2,0.50014770031,,,2018_Mar_16_1215,60.0114911633,FEMA4ImagesEEG,001,203346,
AFSA25.JPG,AFNE24.JPG,AFSA24.JPG,AFNE21.JPG,AFSA21.JPG,AFNE25.JPG,,,,,,,,,,,,,,,,,,,,,0,5,5,2,,,AMSA16.jpg,AMNE14.jpg,AMNE15.jpg,AMSA01.jpg,AMNE15.jpg,MN,1,num_2,32,num_6,0.616886388976,,,2018_Mar_16_1215,60.0114911633,FEMA4ImagesEEG,001,203346,
AFNE22.JPG,AFSA24.JPG,AFSA22.JPG,AFNE25.JPG,AFNE24.JPG,AFSA25.JPG,,,,,,,,,,,,,,,,,,,,,0,6,6,6,,,AMNE14.jpg,AMSA13.jpg,AMSA06.jpg,AMNE19.jpg,AMNE19.jpg,MN,1,num_4,32,num_2,0.733476575464,,,2018_Mar_16_1215,60.0114911633,FEMA4ImagesEEG,001,203346,
AFSA21.JPG,AFNE22.JPG,AFNE21.JPG,AFSA23.JPG,AFSA22.JPG,AFNE23.JPG,,,,,,,,,,,,,,,,,,,,,0,7,7,0,,,AMNE16.jpg,AMNE09.jpg,AMSA17.jpg,AMSA07.jpg,AMSA07.jpg,MS,2,num_4,16,num_4,0.700481845997,,,2018_Mar_16_1215,60.0114911633,FEMA4ImagesEEG,001,203346,
AMSA21.JPG,AMNE22.JPG,AMNE21.JPG,AMSA23.JPG,AMSA22.JPG,AMNE23.JPG,,,,,,,,,,,,,,,,,,,,,0,8,8,1,,,AMSA03.jpg,AMNE19.jpg,AMNE03.jpg,AMSA06.jpg,AMSA03.jpg,MS,2,num_8,32,num_2,0.666816772427,,,2018_Mar_16_1215,60.0114911633,FEMA4ImagesEEG,001,203346,
AMNE22.JPG,AMSA24.JPG,AMSA22.JPG,AMNE25.JPG,AMNE24.JPG,AMSA25.JPG,,,,,,,,,,,,,,,,,,,,,0,9,9,7,,,AMNE16.jpg,AMSA01.jpg,AMNE07.jpg,AMSA18.jpg,AMNE07.jpg,MN,1,num_2,32,num_8,0.750117791351,,,2018_Mar_16_1215,60.0114911633,FEMA4ImagesEEG,001,203346,
,,,,,,,,,,,,,,,,,,,,,,,,,,,,,,,,,,,,,,,,,,,space,7.11624539224,2018_Mar_16_1215,60.0114911633,FEMA4ImagesEEG,001,203346,
AFNE01.JPG,AFNE01.JPG,AFNE01.JPG,AFNE01.JPG,AFNE01.JPG,AFNE01.JPG,0,0,0,9,,,,,,,,,,,,,,,,,,,,,,,AFNE15.jpg,AFSA07.jpg,AFSA19.jpg,AFNE07.jpg,AFSA07.jpg,FS,4,num_6,32,num_4,0.683475949802,,,2018_Mar_16_1215,60.0114911633,FEMA4ImagesEEG,001,203346,
AFNE01.JPG,AFNE01.JPG,AFNE01.JPG,AFNE01.JPG,AFNE01.JPG,AFNE01.JPG,0,1,1,8,,,,,,,,,,,,,,,,,,,,,,,AFSA02.jpg,AFNE06.jpg,AFSA03.jpg,AFNE20.jpg,AFNE20.jpg,FN,3,num_4,32,num_6,0.550262508914,,,2018_Mar_16_1215,60.0114911633,FEMA4ImagesEEG,001,203346,
AFNE01.JPG,AFNE01.JPG,AFNE01.JPG,AFNE01.JPG,AFNE01.JPG,AFNE01.JPG,0,2,2,0,,,,,,,,,,,,,,,,,,,,,,,AFSA10.jpg,AFNE10.jpg,AFNE04.jpg,AFSA09.jpg,AFNE10.jpg,FN,3,num_6,16,num_6,0.616785997525,,,2018_Mar_16_1215,60.0114911633,FEMA4ImagesEEG,001,203346,
AFNE01.JPG,AFNE01.JPG,AFNE01.JPG,AFNE01.JPG,AFNE01.JPG,AFNE01.JPG,0,3,3,2,,,,,,,,,,,,,,,,,,,,,,,AFSA03.jpg,AFSA05.jpg,AFNE04.jpg,AFNE14.jpg,AFSA03.jpg,FS,4,num_8,16,num_8,0.883523675613,,,2018_Mar_16_1215,60.0114911633,FEMA4ImagesEEG,001,203346,
AFNE01.JPG,AFNE01.JPG,AFNE01.JPG,AFNE01.JPG,AFNE01.JPG,AFNE01.JPG,0,4,4,1,,,,,,,,,,,,,,,,,,,,,,,AFSA17.jpg,AFNE09.jpg,AFSA03.jpg,AFNE20.jpg,AFSA03.jpg,FS,4,num_2,32,num_8,0.816830195021,,,2018_Mar_16_1215,60.0114911633,FEMA4ImagesEEG,001,203346,
AFNE01.JPG,AFNE01.JPG,AFNE01.JPG,AFNE01.JPG,AFNE01.JPG,AFNE01.JPG,0,5,5,4,,,,,,,,,,,,,,,,,,,,,,,AFSA15.jpg,AFNE01.jpg,AFSA06.jpg,AFNE19.jpg,AFNE19.jpg,FN,3,num_4,32,num_6,1.68340121768,,,2018_Mar_16_1215,60.0114911633,FEMA4ImagesEEG,001,203346,
AFNE01.JPG,AFNE01.JPG,AFNE01.JPG,AFNE01.JPG,AFNE01.JPG,AFNE01.JPG,0,6,6,3,,,,,,,,,,,,,,,,,,,,,,,AFNE12.jpg,AFSA15.jpg,AFNE11.jpg,AFSA12.jpg,AFNE12.jpg,FN,3,num_8,32,num_6,0.716779229697,,,2018_Mar_16_1215,60.0114911633,FEMA4ImagesEEG,001,203346,
AFNE01.JPG,AFNE01.JPG,AFNE01.JPG,AFNE01.JPG,AFNE01.JPG,AFNE01.JPG,0,7,7,7,,,,,,,,,,,,,,,,,,,,,,,AFSA17.jpg,AFSA13.jpg,AFNE09.jpg,AFNE20.jpg,AFSA17.jpg,FS,4,num_8,16,num_8,0.583752779756,,,2018_Mar_16_1215,60.0114911633,FEMA4ImagesEEG,001,203346,
AFNE01.JPG,AFNE01.JPG,AFNE01.JPG,AFNE01.JPG,AFNE01.JPG,AFNE01.JPG,0,8,8,5,,,,,,,,,,,,,,,,,,,,,,,AFNE10.jpg,AFNE05.jpg,AFSA10.jpg,AFSA12.jpg,AFNE05.jpg,FN,3,num_6,16,num_6,0.750197334215,,,2018_Mar_16_1215,60.0114911633,FEMA4ImagesEEG,001,203346,
AFNE01.JPG,AFNE01.JPG,AFNE01.JPG,AFNE01.JPG,AFNE01.JPG,AFNE01.JPG,0,9,9,6,,,,,,,,,,,,,,,,,,,,,,,AFNE05.jpg,AFSA09.jpg,AFNE13.jpg,AFSA13.jpg,AFSA09.jpg,FS,4,num_6,16,num_6,0.600162422284,,,2018_Mar_16_1215,60.0114911633,FEMA4ImagesEEG,001,203346,
AFNE01.JPG,AFNE01.JPG,AFNE01.JPG,AFNE01.JPG,AFNE01.JPG,AFNE01.JPG,1,0,10,6,,,,,,,,,,,,,,,,,,,,,,,AFNE13.jpg,AFSA09.jpg,AFSA02.jpg,AFNE15.jpg,AFSA02.jpg,FS,4,num_2,32,num_6,0.550155381672,,,2018_Mar_16_1215,60.0114911633,FEMA4ImagesEEG,001,203346,
AFNE01.JPG,AFNE01.JPG,AFNE01.JPG,AFNE01.JPG,AFNE01.JPG,AFNE01.JPG,1,1,11,8,,,,,,,,,,,,,,,,,,,,,,,AFSA07.jpg,AFNE17.jpg,AFNE13.jpg,AFSA15.jpg,AFSA15.jpg,FS,4,num_4,32,num_6,0.516893156338,,,2018_Mar_16_1215,60.0114911633,FEMA4ImagesEEG,001,203346,
AFNE01.JPG,AFNE01.JPG,AFNE01.JPG,AFNE01.JPG,AFNE01.JPG,AFNE01.JPG,1,2,12,3,,,,,,,,,,,,,,,,,,,,,,,AFSA03.jpg,AFNE03.jpg,AFSA10.jpg,AFNE01.jpg,AFSA10.jpg,FS,4,num_2,32,num_8,0.600144781172,,,2018_Mar_16_1215,60.0114911633,FEMA4ImagesEEG,001,203346,
AFNE01.JPG,AFNE01.JPG,AFNE01.JPG,AFNE01.JPG,AFNE01.JPG,AFNE01.JPG,1,3,13,2,,,,,,,,,,,,,,,,,,,,,,,AFNE02.jpg,AFSA12.jpg,AFNE13.jpg,AFSA17.jpg,AFNE02.jpg,FN,3,num_8,32,num_4,0.866766031366,,,2018_Mar_16_1215,60.0114911633,FEMA4ImagesEEG,001,203346,
AFNE01.JPG,AFNE01.JPG,AFNE01.JPG,AFNE01.JPG,AFNE01.JPG,AFNE01.JPG,1,4,14,9,,,,,,,,,,,,,,,,,,,,,,,AFNE03.jpg,AFNE18.jpg,AFSA05.jpg,AFSA08.jpg,AFNE03.jpg,FN,3,num_8,32,num_6,0.616698435508,,,2018_Mar_16_1215,60.0114911633,FEMA4ImagesEEG,001,203346,
AFNE01.JPG,AFNE01.JPG,AFNE01.JPG,AFNE01.JPG,AFNE01.JPG,AFNE01.JPG,1,5,15,7,,,,,,,,,,,,,,,,,,,,,,,AFNE09.jpg,AFSA10.jpg,AFNE04.jpg,AFSA15.jpg,AFNE09.jpg,FN,3,num_8,32,num_6,0.950170007534,,,2018_Mar_16_1215,60.0114911633,FEMA4ImagesEEG,001,203346,
AFNE01.JPG,AFNE01.JPG,AFNE01.JPG,AFNE01.JPG,AFNE01.JPG,AFNE01.JPG,1,6,16,4,,,,,,,,,,,,,,,,,,,,,,,AFNE11.jpg,AFSA11.jpg,AFNE17.jpg,AFSA03.jpg,AFSA11.jpg,FS,4,num_6,32,num_4,0.783501577098,,,2018_Mar_16_1215,60.0114911633,FEMA4ImagesEEG,001,203346,
AFNE01.JPG,AFNE01.JPG,AFNE01.JPG,AFNE01.JPG,AFNE01.JPG,AFNE01.JPG,1,7,17,1,,,,,,,,,,,,,,,,,,,,,,,AFSA11.jpg,AFSA13.jpg,AFNE19.jpg,AFNE02.jpg,AFSA11.jpg,FS,4,num_8,16,num_8,0.500012028031,,,2018_Mar_16_1215,60.0114911633,FEMA4ImagesEEG,001,203346,
AFNE01.JPG,AFNE01.JPG,AFNE01.JPG,AFNE01.JPG,AFNE01.JPG,AFNE01.JPG,1,8,18,5,,,,,,,,,,,,,,,,,,,,,,,AFNE14.jpg,AFNE02.jpg,AFSA09.jpg,AFSA10.jpg,AFSA10.jpg,FS,4,num_4,32,num_2,0.466793101747,,,2018_Mar_16_1215,60.0114911633,FEMA4ImagesEEG,001,203346,
AFNE01.JPG,AFNE01.JPG,AFNE01.JPG,AFNE01.JPG,AFNE01.JPG,AFNE01.JPG,1,9,19,0,,,,,,,,,,,,,,,,,,,,,,,AFNE12.jpg,AFSA14.jpg,AFNE19.jpg,AFSA05.jpg,AFSA05.jpg,FS,4,num_4,16,num_4,0.483340341132,,,2018_Mar_16_1215,60.0114911633,FEMA4ImagesEEG,001,203346,
AFNE01.JPG,AFNE01.JPG,AFNE01.JPG,AFNE01.JPG,AFNE01.JPG,AFNE01.JPG,2,0,20,3,,,,,,,,,,,,,,,,,,,,,,,AFNE17.jpg,AFSA04.jpg,AFSA01.jpg,AFNE03.jpg,AFNE03.jpg,FN,3,num_4,16,num_4,0.966793904081,,,2018_Mar_16_1215,60.0114911633,FEMA4ImagesEEG,001,203346,
AFNE01.JPG,AFNE01.JPG,AFNE01.JPG,AFNE01.JPG,AFNE01.JPG,AFNE01.JPG,2,1,21,5,,,,,,,,,,,,,,,,,,,,,,,AFNE09.jpg,AFSA16.jpg,AFSA10.jpg,AFNE18.jpg,AFNE09.jpg,FN,3,num_8,32,num_2,0.61674622586,,,2018_Mar_16_1215,60.0114911633,FEMA4ImagesEEG,001,203346,
AFNE01.JPG,AFNE01.JPG,AFNE01.JPG,AFNE01.JPG,AFNE01.JPG,AFNE01.JPG,2,2,22,7,,,,,,,,,,,,,,,,,,,,,,,AFNE07.jpg,AFNE01.jpg,AFSA19.jpg,AFSA06.jpg,AFSA19.jpg,FS,4,num_2,16,num_2,0.583514150232,,,2018_Mar_16_1215,60.0114911633,FEMA4ImagesEEG,001,203346,
AFNE01.JPG,AFNE01.JPG,AFNE01.JPG,AFNE01.JPG,AFNE01.JPG,AFNE01.JPG,2,3,23,1,,,,,,,,,,,,,,,,,,,,,,,AFNE14.jpg,AFNE04.jpg,AFSA08.jpg,AFSA18.jpg,AFNE14.jpg,FN,3,num_8,32,num_6,0.666793679353,,,2018_Mar_16_1215,60.0114911633,FEMA4ImagesEEG,001,203346,
AFNE01.JPG,AFNE01.JPG,AFNE01.JPG,AFNE01.JPG,AFNE01.JPG,AFNE01.JPG,2,4,24,9,,,,,,,,,,,,,,,,,,,,,,,AFNE15.jpg,AFSA01.jpg,AFNE09.jpg,AFSA07.jpg,AFNE09.jpg,FN,3,num_2,32,num_8,0.933451814577,,,2018_Mar_16_1215,60.0114911633,FEMA4ImagesEEG,001,203346,
AFNE01.JPG,AFNE01.JPG,AFNE01.JPG,AFNE01.JPG,AFNE01.JPG,AFNE01.JPG,2,5,25,6,,,,,,,,,,,,,,,,,,,,,,,AFSA18.jpg,AFSA13.jpg,AFNE20.jpg,AFNE03.jpg,AFSA13.jpg,FS,4,num_6,16,num_6,0.683316542767,,,2018_Mar_16_1215,60.0114911633,FEMA4ImagesEEG,001,203346,
AFNE01.JPG,AFNE01.JPG,AFNE01.JPG,AFNE01.JPG,AFNE01.JPG,AFNE01.JPG,2,6,26,8,,,,,,,,,,,,,,,,,,,,,,,AFNE05.jpg,AFSA08.jpg,AFSA04.jpg,AFNE04.jpg,AFSA04.jpg,FS,4,num_2,16,num_2,0.466774499044,,,2018_Mar_16_1215,60.0114911633,FEMA4ImagesEEG,001,203346,
AFNE01.JPG,AFNE01.JPG,AFNE01.JPG,AFNE01.JPG,AFNE01.JPG,AFNE01.JPG,2,7,27,0,,,,,,,,,,,,,,,,,,,,,,,AFSA16.jpg,AFNE18.jpg,AFNE04.jpg,AFSA18.jpg,AFNE18.jpg,FN,3,num_6,16,num_6,0.633526321966,,,2018_Mar_16_1215,60.0114911633,FEMA4ImagesEEG,001,203346,
AFNE01.JPG,AFNE01.JPG,AFNE01.JPG,AFNE01.JPG,AFNE01.JPG,AFNE01.JPG,2,8,28,2,,,,,,,,,,,,,,,,,,,,,,,AFNE11.jpg,AFSA14.jpg,AFSA10.jpg,AFNE04.jpg,AFSA14.jpg,FS,4,num_6,32,num_8,1.20009102533,,,2018_Mar_16_1215,60.0114911633,FEMA4ImagesEEG,001,203346,
AFNE01.JPG,AFNE01.JPG,AFNE01.JPG,AFNE01.JPG,AFNE01.JPG,AFNE01.JPG,2,9,29,4,,,,,,,,,,,,,,,,,,,,,,,AFNE10.jpg,AFSA10.jpg,AFNE02.jpg,AFSA01.jpg,AFNE10.jpg,FN,3,num_8,16,num_8,1.3334744582,,,2018_Mar_16_1215,60.0114911633,FEMA4ImagesEEG,001,203346,
AFNE01.JPG,AFNE01.JPG,AFNE01.JPG,AFNE01.JPG,AFNE01.JPG,AFNE01.JPG,3,0,30,5,,,,,,,,,,,,,,,,,,,,,,,AFSA01.jpg,AFNE01.jpg,AFSA19.jpg,AFNE19.jpg,AFNE19.jpg,FN,3,num_4,16,num_4,1.18336770032,,,2018_Mar_16_1215,60.0114911633,FEMA4ImagesEEG,001,203346,
AFNE01.JPG,AFNE01.JPG,AFNE01.JPG,AFNE01.JPG,AFNE01.JPG,AFNE01.JPG,3,1,31,7,,,,,,,,,,,,,,,,,,,,,,,AFSA08.jpg,AFNE11.jpg,AFNE07.jpg,AFSA10.jpg,AFSA10.jpg,FS,4,num_4,32,num_2,1.13347323984,,,2018_Mar_16_1215,60.0114911633,FEMA4ImagesEEG,001,203346,
AFNE01.JPG,AFNE01.JPG,AFNE01.JPG,AFNE01.JPG,AFNE01.JPG,AFNE01.JPG,3,2,32,6,,,,,,,,,,,,,,,,,,,,,,,AFSA09.jpg,AFNE03.jpg,AFNE07.jpg,AFSA13.jpg,AFNE07.jpg,FN,3,num_2,16,num_2,1.00013887975,,,2018_Mar_16_1215,60.0114911633,FEMA4ImagesEEG,001,203346,
AFNE01.JPG,AFNE01.JPG,AFNE01.JPG,AFNE01.JPG,AFNE01.JPG,AFNE01.JPG,3,3,33,3,,,,,,,,,,,,,,,,,,,,,,,AFSA07.jpg,AFNE13.jpg,AFNE04.jpg,AFSA09.jpg,AFSA09.jpg,FS,4,num_4,16,num_4,0.433471219148,,,2018_Mar_16_1215,60.0114911633,FEMA4ImagesEEG,001,203346,
AFNE01.JPG,AFNE01.JPG,AFNE01.JPG,AFNE01.JPG,AFNE01.JPG,AFNE01.JPG,3,4,34,4,,,,,,,,,,,,,,,,,,,,,,,AFNE16.jpg,AFSA06.jpg,AFSA03.jpg,AFNE20.jpg,AFSA03.jpg,FS,4,num_2,32,num_6,0.68337844545,,,2018_Mar_16_1215,60.0114911633,FEMA4ImagesEEG,001,203346,
AFNE01.JPG,AFNE01.JPG,AFNE01.JPG,AFNE01.JPG,AFNE01.JPG,AFNE01.JPG,3,5,35,2,,,,,,,,,,,,,,,,,,,,,,,AFSA17.jpg,AFNE05.jpg,AFSA13.jpg,AFNE08.jpg,AFNE05.jpg,FN,3,num_6,32,num_8,0.950121896807,,,2018_Mar_16_1215,60.0114911633,FEMA4ImagesEEG,001,203346,
AFNE01.JPG,AFNE01.JPG,AFNE01.JPG,AFNE01.JPG,AFNE01.JPG,AFNE01.JPG,3,6,36,0,,,,,,,,,,,,,,,,,,,,,,,AFSA09.jpg,AFNE09.jpg,AFSA20.jpg,AFNE16.jpg,AFSA09.jpg,FS,4,num_8,16,num_8,0.516843762714,,,2018_Mar_16_1215,60.0114911633,FEMA4ImagesEEG,001,203346,
AFNE01.JPG,AFNE01.JPG,AFNE01.JPG,AFNE01.JPG,AFNE01.JPG,AFNE01.JPG,3,7,37,9,,,,,,,,,,,,,,,,,,,,,,,AFSA03.jpg,AFNE16.jpg,AFNE02.jpg,AFSA10.jpg,AFSA10.jpg,FS,4,num_4,16,num_4,0.533539183903,,,2018_Mar_16_1215,60.0114911633,FEMA4ImagesEEG,001,203346,
AFNE01.JPG,AFNE01.JPG,AFNE01.JPG,AFNE01.JPG,AFNE01.JPG,AFNE01.JPG,3,8,38,1,,,,,,,,,,,,,,,,,,,,,,,AFNE11.jpg,AFSA06.jpg,AFNE14.jpg,AFSA01.jpg,AFSA01.jpg,FS,4,num_4,32,num_8,0.466785083525,,,2018_Mar_16_1215,60.0114911633,FEMA4ImagesEEG,001,203346,
AFNE01.JPG,AFNE01.JPG,AFNE01.JPG,AFNE01.JPG,AFNE01.JPG,AFNE01.JPG,3,9,39,8,,,,,,,,,,,,,,,,,,,,,,,AFSA13.jpg,AFNE17.jpg,AFNE09.jpg,AFSA11.jpg,AFSA13.jpg,FS,4,num_8,16,num_8,0.783478804398,,,2018_Mar_16_1215,60.0114911633,FEMA4ImagesEEG,001,203346,
AFNE01.JPG,AFNE01.JPG,AFNE01.JPG,AFNE01.JPG,AFNE01.JPG,AFNE01.JPG,4,0,40,7,,,,,,,,,,,,,,,,,,,,,,,AFSA04.jpg,AFSA17.jpg,AFNE20.jpg,AFNE03.jpg,AFNE20.jpg,FN,3,num_2,32,num_6,1.03351240186,,,2018_Mar_16_1215,60.0114911633,FEMA4ImagesEEG,001,203346,
AFNE01.JPG,AFNE01.JPG,AFNE01.JPG,AFNE01.JPG,AFNE01.JPG,AFNE01.JPG,4,1,41,1,,,,,,,,,,,,,,,,,,,,,,,AFNE15.jpg,AFSA03.jpg,AFNE17.jpg,AFSA11.jpg,AFNE15.jpg,FN,3,num_8,16,num_8,0.783514726907,,,2018_Mar_16_1215,60.0114911633,FEMA4ImagesEEG,001,203346,
AFNE01.JPG,AFNE01.JPG,AFNE01.JPG,AFNE01.JPG,AFNE01.JPG,AFNE01.JPG,4,2,42,0,,,,,,,,,,,,,,,,,,,,,,,AFSA20.jpg,AFNE07.jpg,AFNE14.jpg,AFSA05.jpg,AFNE07.jpg,FN,3,num_6,16,num_6,0.667032308877,,,2018_Mar_16_1215,60.0114911633,FEMA4ImagesEEG,001,203346,
AFNE01.JPG,AFNE01.JPG,AFNE01.JPG,AFNE01.JPG,AFNE01.JPG,AFNE01.JPG,4,3,43,8,,,,,,,,,,,,,,,,,,,,,,,AFNE20.jpg,AFNE03.jpg,AFSA01.jpg,AFSA02.jpg,AFSA02.jpg,FS,4,num_4,16,num_4,0.983500871342,,,2018_Mar_16_1215,60.0114911633,FEMA4ImagesEEG,001,203346,
AFNE01.JPG,AFNE01.JPG,AFNE01.JPG,AFNE01.JPG,AFNE01.JPG,AFNE01.JPG,4,4,44,9,,,,,,,,,,,,,,,,,,,,,,,AFSA11.jpg,AFNE20.jpg,AFNE04.jpg,AFSA15.jpg,AFSA15.jpg,FS,4,num_4,16,num_4,0.733494857326,,,2018_Mar_16_1215,60.0114911633,FEMA4ImagesEEG,001,203346,
AFNE01.JPG,AFNE01.JPG,AFNE01.JPG,AFNE01.JPG,AFNE01.JPG,AFNE01.JPG,4,5,45,4,,,,,,,,,,,,,,,,,,,,,,,AFNE08.jpg,AFSA04.jpg,AFSA19.jpg,AFNE18.jpg,AFNE08.jpg,FN,3,num_8,32,num_6,0.68352117436,,,2018_Mar_16_1215,60.0114911633,FEMA4ImagesEEG,001,203346,
AFNE01.JPG,AFNE01.JPG,AFNE01.JPG,AFNE01.JPG,AFNE01.JPG,AFNE01.JPG,4,6,46,6,,,,,,,,,,,,,,,,,,,,,,,AFSA05.jpg,AFSA10.jpg,AFNE16.jpg,AFNE10.jpg,AFSA05.jpg,FS,4,num_8,16,num_8,0.783560592681,,,2018_Mar_16_1215,60.0114911633,FEMA4ImagesEEG,001,203346,
AFNE01.JPG,AFNE01.JPG,AFNE01.JPG,AFNE01.JPG,AFNE01.JPG,AFNE01.JPG,4,7,47,2,,,,,,,,,,,,,,,,,,,,,,,AFNE15.jpg,AFSA05.jpg,AFSA12.jpg,AFNE16.jpg,AFNE15.jpg,FN,3,num_8,16,num_8,0.983457250521,,,2018_Mar_16_1215,60.0114911633,FEMA4ImagesEEG,001,203346,
AFNE01.JPG,AFNE01.JPG,AFNE01.JPG,AFNE01.JPG,AFNE01.JPG,AFNE01.JPG,4,8,48,5,,,,,,,,,,,,,,,,,,,,,,,AFSA15.jpg,AFNE09.jpg,AFSA14.jpg,AFNE14.jpg,AFSA14.jpg,FS,4,num_2,16,num_2,0.466832873411,,,2018_Mar_16_1215,60.0114911633,FEMA4ImagesEEG,001,203346,
AFNE01.JPG,AFNE01.JPG,AFNE01.JPG,AFNE01.JPG,AFNE01.JPG,AFNE01.JPG,4,9,49,3,,,,,,,,,,,,,,,,,,,,,,,AFNE10.jpg,AFSA11.jpg,AFNE04.jpg,AFSA17.jpg,AFNE10.jpg,FN,3,num_8,16,num_8,0.766773440875,,,2018_Mar_16_1215,60.0114911633,FEMA4ImagesEEG,001,203346,
AFNE01.JPG,AFNE01.JPG,AFNE01.JPG,AFNE01.JPG,AFNE01.JPG,AFNE01.JPG,5,0,50,2,,,,,,,,,,,,,,,,,,,,,,,AFSA09.jpg,AFNE06.jpg,AFSA08.jpg,AFNE08.jpg,AFNE08.jpg,FN,3,num_4,16,num_4,1.4667042573,,,2018_Mar_16_1215,60.0114911633,FEMA4ImagesEEG,001,203346,
AFNE01.JPG,AFNE01.JPG,AFNE01.JPG,AFNE01.JPG,AFNE01.JPG,AFNE01.JPG,5,1,51,6,,,,,,,,,,,,,,,,,,,,,,,AFNE06.jpg,AFSA05.jpg,AFSA16.jpg,AFNE03.jpg,AFNE06.jpg,FN,3,num_8,32,num_4,0.766802306753,,,2018_Mar_16_1215,60.0114911633,FEMA4ImagesEEG,001,203346,
AFNE01.JPG,AFNE01.JPG,AFNE01.JPG,AFNE01.JPG,AFNE01.JPG,AFNE01.JPG,5,2,52,9,,,,,,,,,,,,,,,,,,,,,,,AFSA01.jpg,AFSA12.jpg,AFNE04.jpg,AFNE13.jpg,AFNE04.jpg,FN,3,num_2,16,num_2,0.933575298637,,,2018_Mar_16_1215,60.0114911633,FEMA4ImagesEEG,001,203346,
AFNE01.JPG,AFNE01.JPG,AFNE01.JPG,AFNE01.JPG,AFNE01.JPG,AFNE01.JPG,5,3,53,7,,,,,,,,,,,,,,,,,,,,,,,AFNE08.jpg,AFNE10.jpg,AFSA08.jpg,AFSA06.jpg,AFNE08.jpg,FN,3,num_8,32,num_6,1.36672930699,,,2018_Mar_16_1215,60.0114911633,FEMA4ImagesEEG,001,203346,
AFNE01.JPG,AFNE01.JPG,AFNE01.JPG,AFNE01.JPG,AFNE01.JPG,AFNE01.JPG,5,4,54,8,,,,,,,,,,,,,,,,,,,,,,,AFSA06.jpg,AFNE08.jpg,AFNE13.jpg,AFSA12.jpg,AFNE13.jpg,FN,3,num_2,32,num_6,0.883475564886,,,2018_Mar_16_1215,60.0114911633,FEMA4ImagesEEG,001,203346,
AFNE01.JPG,AFNE01.JPG,AFNE01.JPG,AFNE01.JPG,AFNE01.JPG,AFNE01.JPG,5,5,55,5,,,,,,,,,,,,,,,,,,,,,,,AFSA03.jpg,AFNE01.jpg,AFNE04.jpg,AFSA18.jpg,AFSA03.jpg,FS,4,num_8,32,num_6,0.616829618346,,,2018_Mar_16_1215,60.0114911633,FEMA4ImagesEEG,001,203346,
AFNE01.JPG,AFNE01.JPG,AFNE01.JPG,AFNE01.JPG,AFNE01.JPG,AFNE01.JPG,5,6,56,3,,,,,,,,,,,,,,,,,,,,,,,AFNE12.jpg,AFSA20.jpg,AFNE01.jpg,AFSA05.jpg,AFNE12.jpg,FN,3,num_8,16,num_8,0.850104288198,,,2018_Mar_16_1215,60.0114911633,FEMA4ImagesEEG,001,203346,
AFNE01.JPG,AFNE01.JPG,AFNE01.JPG,AFNE01.JPG,AFNE01.JPG,AFNE01.JPG,5,7,57,4,,,,,,,,,,,,,,,,,,,,,,,AFSA07.jpg,AFNE02.jpg,AFSA03.jpg,AFNE01.jpg,AFSA07.jpg,FS,4,num_8,16,num_8,1.18343216926,,,2018_Mar_16_1215,60.0114911633,FEMA4ImagesEEG,001,203346,
AFNE01.JPG,AFNE01.JPG,AFNE01.JPG,AFNE01.JPG,AFNE01.JPG,AFNE01.JPG,5,8,58,0,,,,,,,,,,,,,,,,,,,,,,,AFNE01.jpg,AFSA14.jpg,AFNE08.jpg,AFSA13.jpg,AFSA13.jpg,FS,4,num_4,16,num_4,0.533460923471,,,2018_Mar_16_1215,60.0114911633,FEMA4ImagesEEG,001,203346,
AFNE01.JPG,AFNE01.JPG,AFNE01.JPG,AFNE01.JPG,AFNE01.JPG,AFNE01.JPG,5,9,59,1,,,,,,,,,,,,,,,,,,,,,,,AFSA19.jpg,AFSA14.jpg,AFNE19.jpg,AFNE11.jpg,AFSA14.jpg,FS,4,num_6,32,num_8,0.833489693236,,,2018_Mar_16_1215,60.0114911633,FEMA4ImagesEEG,001,203346,
,,,,,,,,,,,,,,,,,,,,,,,,,,,,,,,,,,,,,,,,,,,space,12.7322109398,2018_Mar_16_1215,60.0114911633,FEMA4ImagesEEG,001,203346,
AFNE01.JPG,AFNE01.JPG,AFNE01.JPG,AFNE01.JPG,AFNE01.JPG,AFNE01.JPG,,,,,0,0,0,7,,,,,,,,,,,,,,,,,,,AMSA09.jpg,AMNE10.jpg,AMSA14.jpg,AMNE11.jpg,AMSA14.jpg,MS,2,num_2,16,num_2,0.516840555239,,,2018_Mar_16_1215,60.0114911633,FEMA4ImagesEEG,001,203346,
AFNE01.JPG,AFNE01.JPG,AFNE01.JPG,AFNE01.JPG,AFNE01.JPG,AFNE01.JPG,,,,,0,1,1,2,,,,,,,,,,,,,,,,,,,AMSA17.jpg,AMSA20.jpg,AMNE06.jpg,AMNE13.jpg,AMNE13.jpg,MN,1,num_4,32,num_6,0.700088941026,,,2018_Mar_16_1215,60.0114911633,FEMA4ImagesEEG,001,203346,
AFNE01.JPG,AFNE01.JPG,AFNE01.JPG,AFNE01.JPG,AFNE01.JPG,AFNE01.JPG,,,,,0,2,2,9,,,,,,,,,,,,,,,,,,,AMSA19.jpg,AMNE04.jpg,AMNE16.jpg,AMSA01.jpg,AMSA19.jpg,MS,2,num_8,32,num_4,0.78370267991,,,2018_Mar_16_1215,60.0114911633,FEMA4ImagesEEG,001,203346,
AFNE01.JPG,AFNE01.JPG,AFNE01.JPG,AFNE01.JPG,AFNE01.JPG,AFNE01.JPG,,,,,0,3,3,8,,,,,,,,,,,,,,,,,,,AMSA11.jpg,AMNE14.jpg,AMNE08.jpg,AMSA15.jpg,AMNE08.jpg,MN,1,num_2,16,num_2,1.31671456899,,,2018_Mar_16_1215,60.0114911633,FEMA4ImagesEEG,001,203346,
AFNE01.JPG,AFNE01.JPG,AFNE01.JPG,AFNE01.JPG,AFNE01.JPG,AFNE01.JPG,,,,,0,4,4,5,,,,,,,,,,,,,,,,,,,AMNE10.jpg,AMSA15.jpg,AMNE05.jpg,AMSA01.jpg,AMNE05.jpg,MN,1,num_2,32,num_8,0.933468813542,,,2018_Mar_16_1215,60.0114911633,FEMA4ImagesEEG,001,203346,
AFNE01.JPG,AFNE01.JPG,AFNE01.JPG,AFNE01.JPG,AFNE01.JPG,AFNE01.JPG,,,,,0,5,5,6,,,,,,,,,,,,,,,,,,,AMNE19.jpg,AMNE06.jpg,AMSA09.jpg,AMSA04.jpg,AMSA04.jpg,MS,2,num_4,16,num_4,0.616747830063,,,2018_Mar_16_1215,60.0114911633,FEMA4ImagesEEG,001,203346,
AFNE01.JPG,AFNE01.JPG,AFNE01.JPG,AFNE01.JPG,AFNE01.JPG,AFNE01.JPG,,,,,0,6,6,0,,,,,,,,,,,,,,,,,,,AMSA10.jpg,AMSA09.jpg,AMNE06.jpg,AMNE19.jpg,AMNE06.jpg,MN,1,num_2,32,num_4,0.66683152644,,,2018_Mar_16_1215,60.0114911633,FEMA4ImagesEEG,001,203346,
AFNE01.JPG,AFNE01.JPG,AFNE01.JPG,AFNE01.JPG,AFNE01.JPG,AFNE01.JPG,,,,,0,7,7,4,,,,,,,,,,,,,,,,,,,AMSA07.jpg,AMNE09.jpg,AMNE15.jpg,AMSA03.jpg,AMNE09.jpg,MN,1,num_6,16,num_6,0.583459303714,,,2018_Mar_16_1215,60.0114911633,FEMA4ImagesEEG,001,203346,
AFNE01.JPG,AFNE01.JPG,AFNE01.JPG,AFNE01.JPG,AFNE01.JPG,AFNE01.JPG,,,,,0,8,8,1,,,,,,,,,,,,,,,,,,,AMSA12.jpg,AMSA09.jpg,AMNE10.jpg,AMNE08.jpg,AMSA12.jpg,MS,2,num_8,32,num_2,0.533484337386,,,2018_Mar_16_1215,60.0114911633,FEMA4ImagesEEG,001,203346,
AFNE01.JPG,AFNE01.JPG,AFNE01.JPG,AFNE01.JPG,AFNE01.JPG,AFNE01.JPG,,,,,0,9,9,3,,,,,,,,,,,,,,,,,,,AMNE20.jpg,AMSA09.jpg,AMNE08.jpg,AMSA08.jpg,AMSA08.jpg,MS,2,num_4,32,num_6,0.650147010572,,,2018_Mar_16_1215,60.0114911633,FEMA4ImagesEEG,001,203346,
AFNE01.JPG,AFNE01.JPG,AFNE01.JPG,AFNE01.JPG,AFNE01.JPG,AFNE01.JPG,,,,,1,0,10,8,,,,,,,,,,,,,,,,,,,AMSA12.jpg,AMSA17.jpg,AMNE19.jpg,AMNE05.jpg,AMNE05.jpg,MN,1,num_4,32,num_6,0.650160160847,,,2018_Mar_16_1215,60.0114911633,FEMA4ImagesEEG,001,203346,
AFNE01.JPG,AFNE01.JPG,AFNE01.JPG,AFNE01.JPG,AFNE01.JPG,AFNE01.JPG,,,,,1,1,11,0,,,,,,,,,,,,,,,,,,,AMNE12.jpg,AMSA19.jpg,AMNE04.jpg,AMSA17.jpg,AMSA19.jpg,MS,2,num_6,32,num_4,0.58352601761,,,2018_Mar_16_1215,60.0114911633,FEMA4ImagesEEG,001,203346,
AFNE01.JPG,AFNE01.JPG,AFNE01.JPG,AFNE01.JPG,AFNE01.JPG,AFNE01.JPG,,,,,1,2,12,4,,,,,,,,,,,,,,,,,,,AMSA14.jpg,AMSA16.jpg,AMNE01.jpg,AMNE17.jpg,AMNE17.jpg,MN,1,num_4,16,num_4,1.28340006294,,,2018_Mar_16_1215,60.0114911633,FEMA4ImagesEEG,001,203346,
AFNE01.JPG,AFNE01.JPG,AFNE01.JPG,AFNE01.JPG,AFNE01.JPG,AFNE01.JPG,,,,,1,3,13,9,,,,,,,,,,,,,,,,,,,AMSA09.jpg,AMSA03.jpg,AMNE01.jpg,AMNE15.jpg,AMSA03.jpg,MS,2,num_6,16,num_6,0.650466787163,,,2018_Mar_16_1215,60.0114911633,FEMA4ImagesEEG,001,203346,
AFNE01.JPG,AFNE01.JPG,AFNE01.JPG,AFNE01.JPG,AFNE01.JPG,AFNE01.JPG,,,,,1,4,14,6,,,,,,,,,,,,,,,,,,,AMSA16.jpg,AMSA09.jpg,AMNE12.jpg,AMNE02.jpg,AMNE12.jpg,MN,1,num_2,16,num_2,0.933439625893,,,2018_Mar_16_1215,60.0114911633,FEMA4ImagesEEG,001,203346,
AFNE01.JPG,AFNE01.JPG,AFNE01.JPG,AFNE01.JPG,AFNE01.JPG,AFNE01.JPG,,,,,1,5,15,2,,,,,,,,,,,,,,,,,,,AMNE05.jpg,AMNE20.jpg,AMSA03.jpg,AMSA01.jpg,AMSA01.jpg,MS,2,num_4,16,num_4,0.466833194252,,,2018_Mar_16_1215,60.0114911633,FEMA4ImagesEEG,001,203346,
AFNE01.JPG,AFNE01.JPG,AFNE01.JPG,AFNE01.JPG,AFNE01.JPG,AFNE01.JPG,,,,,1,6,16,3,,,,,,,,,,,,,,,,,,,AMSA16.jpg,AMNE17.jpg,AMNE02.jpg,AMSA15.jpg,AMSA16.jpg,MS,2,num_8,16,num_8,0.683503212873,,,2018_Mar_16_1215,60.0114911633,FEMA4ImagesEEG,001,203346,
AFNE01.JPG,AFNE01.JPG,AFNE01.JPG,AFNE01.JPG,AFNE01.JPG,AFNE01.JPG,,,,,1,7,17,7,,,,,,,,,,,,,,,,,,,AMSA05.jpg,AMSA09.jpg,AMNE08.jpg,AMNE18.jpg,AMSA05.jpg,MS,2,num_8,32,num_2,0.566675038077,,,2018_Mar_16_1215,60.0114911633,FEMA4ImagesEEG,001,203346,
AFNE01.JPG,AFNE01.JPG,AFNE01.JPG,AFNE01.JPG,AFNE01.JPG,AFNE01.JPG,,,,,1,8,18,5,,,,,,,,,,,,,,,,,,,AMNE11.jpg,AMSA08.jpg,AMSA02.jpg,AMNE02.jpg,AMSA08.jpg,MS,2,num_6,16,num_6,0.600147347432,,,2018_Mar_16_1215,60.0114911633,FEMA4ImagesEEG,001,203346,
AFNE01.JPG,AFNE01.JPG,AFNE01.JPG,AFNE01.JPG,AFNE01.JPG,AFNE01.JPG,,,,,1,9,19,1,,,,,,,,,,,,,,,,,,,AMNE20.jpg,AMNE09.jpg,AMSA11.jpg,AMSA13.jpg,AMNE09.jpg,MN,1,num_6,16,num_6,0.800165244844,,,2018_Mar_16_1215,60.0114911633,FEMA4ImagesEEG,001,203346,
AFNE01.JPG,AFNE01.JPG,AFNE01.JPG,AFNE01.JPG,AFNE01.JPG,AFNE01.JPG,,,,,2,0,20,6,,,,,,,,,,,,,,,,,,,AMNE18.jpg,AMSA14.jpg,AMSA09.jpg,AMNE11.jpg,AMNE11.jpg,MN,1,num_4,32,num_8,1.00017159525,,,2018_Mar_16_1215,60.0114911633,FEMA4ImagesEEG,001,203346,
AFNE01.JPG,AFNE01.JPG,AFNE01.JPG,AFNE01.JPG,AFNE01.JPG,AFNE01.JPG,,,,,2,1,21,5,,,,,,,,,,,,,,,,,,,AMNE16.jpg,AMSA07.jpg,AMSA01.jpg,AMNE17.jpg,AMNE16.jpg,MN,1,num_8,32,num_4,0.80010943627,,,2018_Mar_16_1215,60.0114911633,FEMA4ImagesEEG,001,203346,
AFNE01.JPG,AFNE01.JPG,AFNE01.JPG,AFNE01.JPG,AFNE01.JPG,AFNE01.JPG,,,,,2,2,22,7,,,,,,,,,,,,,,,,,,,AMSA20.jpg,AMSA15.jpg,AMNE04.jpg,AMNE15.jpg,AMSA15.jpg,MS,2,num_6,16,num_6,0.733161288779,,,2018_Mar_16_1215,60.0114911633,FEMA4ImagesEEG,001,203346,
AFNE01.JPG,AFNE01.JPG,AFNE01.JPG,AFNE01.JPG,AFNE01.JPG,AFNE01.JPG,,,,,2,3,23,4,,,,,,,,,,,,,,,,,,,AMSA12.jpg,AMNE01.jpg,AMNE08.jpg,AMSA13.jpg,AMNE08.jpg,MN,1,num_2,16,num_2,0.500187792815,,,2018_Mar_16_1215,60.0114911633,FEMA4ImagesEEG,001,203346,
AFNE01.JPG,AFNE01.JPG,AFNE01.JPG,AFNE01.JPG,AFNE01.JPG,AFNE01.JPG,,,,,2,4,24,3,,,,,,,,,,,,,,,,,,,AMNE06.jpg,AMSA09.jpg,AMNE14.jpg,AMSA17.jpg,AMNE14.jpg,MN,1,num_2,16,num_2,1.16677170852,,,2018_Mar_16_1215,60.0114911633,FEMA4ImagesEEG,001,203346,
AFNE01.JPG,AFNE01.JPG,AFNE01.JPG,AFNE01.JPG,AFNE01.JPG,AFNE01.JPG,,,,,2,5,25,0,,,,,,,,,,,,,,,,,,,AMSA08.jpg,AMNE15.jpg,AMSA18.jpg,AMNE10.jpg,AMSA18.jpg,MS,2,num_2,16,num_2,0.550172701944,,,2018_Mar_16_1215,60.0114911633,FEMA4ImagesEEG,001,203346,
AFNE01.JPG,AFNE01.JPG,AFNE01.JPG,AFNE01.JPG,AFNE01.JPG,AFNE01.JPG,,,,,2,6,26,8,,,,,,,,,,,,,,,,,,,AMNE05.jpg,AMNE12.jpg,AMSA04.jpg,AMSA05.jpg,AMNE12.jpg,MN,1,num_6,32,num_8,0.866809331346,,,2018_Mar_16_1215,60.0114911633,FEMA4ImagesEEG,001,203346,
AFNE01.JPG,AFNE01.JPG,AFNE01.JPG,AFNE01.JPG,AFNE01.JPG,AFNE01.JPG,,,,,2,7,27,2,,,,,,,,,,,,,,,,,,,AMNE04.jpg,AMNE18.jpg,AMSA11.jpg,AMSA17.jpg,AMSA17.jpg,MS,2,num_4,16,num_4,0.85008215718,,,2018_Mar_16_1215,60.0114911633,FEMA4ImagesEEG,001,203346,
AFNE01.JPG,AFNE01.JPG,AFNE01.JPG,AFNE01.JPG,AFNE01.JPG,AFNE01.JPG,,,,,2,8,28,9,,,,,,,,,,,,,,,,,,,AMNE12.jpg,AMSA16.jpg,AMSA13.jpg,AMNE11.jpg,AMSA16.jpg,MS,2,num_6,16,num_6,0.433497198857,,,2018_Mar_16_1215,60.0114911633,FEMA4ImagesEEG,001,203346,
AFNE01.JPG,AFNE01.JPG,AFNE01.JPG,AFNE01.JPG,AFNE01.JPG,AFNE01.JPG,,,,,2,9,29,1,,,,,,,,,,,,,,,,,,,AMSA03.jpg,AMNE18.jpg,AMSA17.jpg,AMNE20.jpg,AMNE20.jpg,MN,1,num_4,32,num_2,0.966750603635,,,2018_Mar_16_1215,60.0114911633,FEMA4ImagesEEG,001,203346,
AFNE01.JPG,AFNE01.JPG,AFNE01.JPG,AFNE01.JPG,AFNE01.JPG,AFNE01.JPG,,,,,3,0,30,0,,,,,,,,,,,,,,,,,,,AMSA19.jpg,AMNE19.jpg,AMSA16.jpg,AMNE08.jpg,AMSA19.jpg,MS,2,num_8,32,num_2,1.45009030402,,,2018_Mar_16_1215,60.0114911633,FEMA4ImagesEEG,001,203346,
AFNE01.JPG,AFNE01.JPG,AFNE01.JPG,AFNE01.JPG,AFNE01.JPG,AFNE01.JPG,,,,,3,1,31,6,,,,,,,,,,,,,,,,,,,AMNE04.jpg,AMSA09.jpg,AMNE01.jpg,AMSA07.jpg,AMSA09.jpg,MS,2,num_6,16,num_6,1.03353357036,,,2018_Mar_16_1215,60.0114911633,FEMA4ImagesEEG,001,203346,
AFNE01.JPG,AFNE01.JPG,AFNE01.JPG,AFNE01.JPG,AFNE01.JPG,AFNE01.JPG,,,,,3,2,32,2,,,,,,,,,,,,,,,,,,,AMSA20.jpg,AMNE18.jpg,AMSA08.jpg,AMNE14.jpg,AMSA20.jpg,MS,2,num_8,32,num_6,0.850244771689,,,2018_Mar_16_1215,60.0114911633,FEMA4ImagesEEG,001,203346,
AFNE01.JPG,AFNE01.JPG,AFNE01.JPG,AFNE01.JPG,AFNE01.JPG,AFNE01.JPG,,,,,3,3,33,8,,,,,,,,,,,,,,,,,,,AMSA08.jpg,AMNE18.jpg,AMNE13.jpg,AMSA01.jpg,AMSA08.jpg,MS,2,num_8,32,num_6,1.28341609985,,,2018_Mar_16_1215,60.0114911633,FEMA4ImagesEEG,001,203346,
AFNE01.JPG,AFNE01.JPG,AFNE01.JPG,AFNE01.JPG,AFNE01.JPG,AFNE01.JPG,,,,,3,4,34,7,,,,,,,,,,,,,,,,,,,AMSA01.jpg,AMSA05.jpg,AMNE03.jpg,AMNE18.jpg,AMSA05.jpg,MS,2,num_6,32,num_2,0.633464740124,,,2018_Mar_16_1215,60.0114911633,FEMA4ImagesEEG,001,203346,
AFNE01.JPG,AFNE01.JPG,AFNE01.JPG,AFNE01.JPG,AFNE01.JPG,AFNE01.JPG,,,,,3,5,35,3,,,,,,,,,,,,,,,,,,,AMSA08.jpg,AMSA02.jpg,AMNE09.jpg,AMNE16.jpg,AMSA08.jpg,MS,2,num_8,32,num_6,0.516832216177,,,2018_Mar_16_1215,60.0114911633,FEMA4ImagesEEG,001,203346,
AFNE01.JPG,AFNE01.JPG,AFNE01.JPG,AFNE01.JPG,AFNE01.JPG,AFNE01.JPG,,,,,3,6,36,1,,,,,,,,,,,,,,,,,,,AMSA13.jpg,AMNE09.jpg,AMNE05.jpg,AMSA06.jpg,AMSA13.jpg,MS,2,num_8,32,num_2,0.483534709085,,,2018_Mar_16_1215,60.0114911633,FEMA4ImagesEEG,001,203346,
AFNE01.JPG,AFNE01.JPG,AFNE01.JPG,AFNE01.JPG,AFNE01.JPG,AFNE01.JPG,,,,,3,7,37,9,,,,,,,,,,,,,,,,,,,AMSA08.jpg,AMNE16.jpg,AMSA16.jpg,AMNE10.jpg,AMSA16.jpg,MS,2,num_2,16,num_2,0.683464723639,,,2018_Mar_16_1215,60.0114911633,FEMA4ImagesEEG,001,203346,
AFNE01.JPG,AFNE01.JPG,AFNE01.JPG,AFNE01.JPG,AFNE01.JPG,AFNE01.JPG,,,,,3,8,38,5,,,,,,,,,,,,,,,,,,,AMSA08.jpg,AMSA02.jpg,AMNE15.jpg,AMNE03.jpg,AMSA08.jpg,MS,2,num_8,16,num_8,1.1001353194,,,2018_Mar_16_1215,60.0114911633,FEMA4ImagesEEG,001,203346,
AFNE01.JPG,AFNE01.JPG,AFNE01.JPG,AFNE01.JPG,AFNE01.JPG,AFNE01.JPG,,,,,3,9,39,4,,,,,,,,,,,,,,,,,,,AMSA08.jpg,AMNE14.jpg,AMSA12.jpg,AMNE12.jpg,AMNE12.jpg,MN,1,num_4,32,num_8,0.816876061261,,,2018_Mar_16_1215,60.0114911633,FEMA4ImagesEEG,001,203346,
AFNE01.JPG,AFNE01.JPG,AFNE01.JPG,AFNE01.JPG,AFNE01.JPG,AFNE01.JPG,,,,,4,0,40,4,,,,,,,,,,,,,,,,,,,AMNE13.jpg,AMSA11.jpg,AMNE09.jpg,AMSA20.jpg,AMNE13.jpg,MN,1,num_8,32,num_2,0.916792316362,,,2018_Mar_16_1215,60.0114911633,FEMA4ImagesEEG,001,203346,
AFNE01.JPG,AFNE01.JPG,AFNE01.JPG,AFNE01.JPG,AFNE01.JPG,AFNE01.JPG,,,,,4,1,41,7,,,,,,,,,,,,,,,,,,,AMSA19.jpg,AMNE01.jpg,AMSA15.jpg,AMNE11.jpg,AMSA19.jpg,MS,2,num_8,16,num_8,0.73353398731,,,2018_Mar_16_1215,60.0114911633,FEMA4ImagesEEG,001,203346,
AFNE01.JPG,AFNE01.JPG,AFNE01.JPG,AFNE01.JPG,AFNE01.JPG,AFNE01.JPG,,,,,4,2,42,1,,,,,,,,,,,,,,,,,,,AMSA20.jpg,AMNE10.jpg,AMSA08.jpg,AMNE20.jpg,AMSA20.jpg,MS,2,num_8,16,num_8,1.0667749485,,,2018_Mar_16_1215,60.0114911633,FEMA4ImagesEEG,001,203346,
AFNE01.JPG,AFNE01.JPG,AFNE01.JPG,AFNE01.JPG,AFNE01.JPG,AFNE01.JPG,,,,,4,3,43,6,,,,,,,,,,,,,,,,,,,AMSA10.jpg,AMNE14.jpg,AMNE02.jpg,AMSA05.jpg,AMNE02.jpg,MN,1,num_2,16,num_2,1.10011158511,,,2018_Mar_16_1215,60.0114911633,FEMA4ImagesEEG,001,203346,
AFNE01.JPG,AFNE01.JPG,AFNE01.JPG,AFNE01.JPG,AFNE01.JPG,AFNE01.JPG,,,,,4,4,44,9,,,,,,,,,,,,,,,,,,,AMSA14.jpg,AMNE12.jpg,AMNE15.jpg,AMSA16.jpg,AMSA16.jpg,MS,2,num_4,16,num_4,0.883489677683,,,2018_Mar_16_1215,60.0114911633,FEMA4ImagesEEG,001,203346,
AFNE01.JPG,AFNE01.JPG,AFNE01.JPG,AFNE01.JPG,AFNE01.JPG,AFNE01.JPG,,,,,4,5,45,3,,,,,,,,,,,,,,,,,,,AMSA12.jpg,AMNE03.jpg,AMNE02.jpg,AMSA07.jpg,AMNE03.jpg,MN,1,num_6,32,num_2,0.550166607369,,,2018_Mar_16_1215,60.0114911633,FEMA4ImagesEEG,001,203346,
AFNE01.JPG,AFNE01.JPG,AFNE01.JPG,AFNE01.JPG,AFNE01.JPG,AFNE01.JPG,,,,,4,6,46,0,,,,,,,,,,,,,,,,,,,AMNE17.jpg,AMNE07.jpg,AMSA04.jpg,AMSA03.jpg,AMSA03.jpg,MS,2,num_4,16,num_4,0.633475645445,,,2018_Mar_16_1215,60.0114911633,FEMA4ImagesEEG,001,203346,
AFNE01.JPG,AFNE01.JPG,AFNE01.JPG,AFNE01.JPG,AFNE01.JPG,AFNE01.JPG,,,,,4,7,47,2,,,,,,,,,,,,,,,,,,,AMSA05.jpg,AMNE04.jpg,AMNE11.jpg,AMSA07.jpg,AMNE04.jpg,MN,1,num_6,16,num_6,0.8501655492,,,2018_Mar_16_1215,60.0114911633,FEMA4ImagesEEG,001,203346,
AFNE01.JPG,AFNE01.JPG,AFNE01.JPG,AFNE01.JPG,AFNE01.JPG,AFNE01.JPG,,,,,4,8,48,5,,,,,,,,,,,,,,,,,,,AMNE06.jpg,AMNE05.jpg,AMSA05.jpg,AMSA20.jpg,AMSA20.jpg,MS,2,num_4,32,num_2,0.950099444948,,,2018_Mar_16_1215,60.0114911633,FEMA4ImagesEEG,001,203346,
AFNE01.JPG,AFNE01.JPG,AFNE01.JPG,AFNE01.JPG,AFNE01.JPG,AFNE01.JPG,,,,,4,9,49,8,,,,,,,,,,,,,,,,,,,AMSA18.jpg,AMSA11.jpg,AMNE14.jpg,AMNE10.jpg,AMNE14.jpg,MN,1,num_2,32,num_4,0.90013121441,,,2018_Mar_16_1215,60.0114911633,FEMA4ImagesEEG,001,203346,
AFNE01.JPG,AFNE01.JPG,AFNE01.JPG,AFNE01.JPG,AFNE01.JPG,AFNE01.JPG,,,,,5,0,50,0,,,,,,,,,,,,,,,,,,,AMNE15.jpg,AMNE12.jpg,AMSA20.jpg,AMSA12.jpg,AMSA20.jpg,MS,2,num_2,16,num_2,1.08344984148,,,2018_Mar_16_1215,60.0114911633,FEMA4ImagesEEG,001,203346,
AFNE01.JPG,AFNE01.JPG,AFNE01.JPG,AFNE01.JPG,AFNE01.JPG,AFNE01.JPG,,,,,5,1,51,2,,,,,,,,,,,,,,,,,,,AMNE10.jpg,AMSA15.jpg,AMSA03.jpg,AMNE12.jpg,AMSA15.jpg,MS,2,num_6,16,num_6,1.15011124825,,,2018_Mar_16_1215,60.0114911633,FEMA4ImagesEEG,001,203346,
AFNE01.JPG,AFNE01.JPG,AFNE01.JPG,AFNE01.JPG,AFNE01.JPG,AFNE01.JPG,,,,,5,2,52,3,,,,,,,,,,,,,,,,,,,AMNE06.jpg,AMNE09.jpg,AMSA05.jpg,AMSA04.jpg,AMNE06.jpg,MN,1,num_8,32,num_6,0.600218551699,,,2018_Mar_16_1215,60.0114911633,FEMA4ImagesEEG,001,203346,
AFNE01.JPG,AFNE01.JPG,AFNE01.JPG,AFNE01.JPG,AFNE01.JPG,AFNE01.JPG,,,,,5,3,53,4,,,,,,,,,,,,,,,,,,,AMNE10.jpg,AMSA18.jpg,AMNE17.jpg,AMSA01.jpg,AMNE10.jpg,MN,1,num_8,16,num_8,0.883499299642,,,2018_Mar_16_1215,60.0114911633,FEMA4ImagesEEG,001,203346,
AFNE01.JPG,AFNE01.JPG,AFNE01.JPG,AFNE01.JPG,AFNE01.JPG,AFNE01.JPG,,,,,5,4,54,8,,,,,,,,,,,,,,,,,,,AMNE01.jpg,AMNE17.jpg,AMSA02.jpg,AMSA15.jpg,AMSA15.jpg,MS,2,num_4,16,num_4,0.71680104034,,,2018_Mar_16_1215,60.0114911633,FEMA4ImagesEEG,001,203346,
AFNE01.JPG,AFNE01.JPG,AFNE01.JPG,AFNE01.JPG,AFNE01.JPG,AFNE01.JPG,,,,,5,5,55,7,,,,,,,,,,,,,,,,,,,AMSA19.jpg,AMSA17.jpg,AMNE08.jpg,AMNE09.jpg,AMNE08.jpg,MN,1,num_2,16,num_2,0.983528454788,,,2018_Mar_16_1215,60.0114911633,FEMA4ImagesEEG,001,203346,
AFNE01.JPG,AFNE01.JPG,AFNE01.JPG,AFNE01.JPG,AFNE01.JPG,AFNE01.JPG,,,,,5,6,56,6,,,,,,,,,,,,,,,,,,,AMSA20.jpg,AMSA16.jpg,AMNE15.jpg,AMNE02.jpg,AMSA20.jpg,MS,2,num_8,32,num_6,0.533492676448,,,2018_Mar_16_1215,60.0114911633,FEMA4ImagesEEG,001,203346,
AFNE01.JPG,AFNE01.JPG,AFNE01.JPG,AFNE01.JPG,AFNE01.JPG,AFNE01.JPG,,,,,5,7,57,5,,,,,,,,,,,,,,,,,,,AMNE04.jpg,AMNE10.jpg,AMSA18.jpg,AMSA02.jpg,AMSA02.jpg,MS,2,num_4,32,num_8,0.683518608101,,,2018_Mar_16_1215,60.0114911633,FEMA4ImagesEEG,001,203346,
AFNE01.JPG,AFNE01.JPG,AFNE01.JPG,AFNE01.JPG,AFNE01.JPG,AFNE01.JPG,,,,,5,8,58,1,,,,,,,,,,,,,,,,,,,AMNE04.jpg,AMNE05.jpg,AMSA09.jpg,AMSA02.jpg,AMSA02.jpg,MS,2,num_4,32,num_6,0.700161748566,,,2018_Mar_16_1215,60.0114911633,FEMA4ImagesEEG,001,203346,
AFNE01.JPG,AFNE01.JPG,AFNE01.JPG,AFNE01.JPG,AFNE01.JPG,AFNE01.JPG,,,,,5,9,59,9,,,,,,,,,,,,,,,,,,,AMSA09.jpg,AMNE07.jpg,AMNE20.jpg,AMSA08.jpg,AMSA08.jpg,MS,2,num_4,32,num_8,0.667080099229,,,2018_Mar_16_1215,60.0114911633,FEMA4ImagesEEG,001,203346,
,,,,,,,,,,,,,,,,,,,,,,,,,,,,,,,,,,,,,,,,,,,space,17.0655131615,2018_Mar_16_1215,60.0114911633,FEMA4ImagesEEG,001,203346,
AFNE01.JPG,AFNE01.JPG,AFNE01.JPG,AFNE01.JPG,AFNE01.JPG,AFNE01.JPG,,,,,,,,,0,0,0,7,,,,,,,,,,,,,,,AFSA03.jpg,AFSA17.jpg,AFNE10.jpg,AFNE18.jpg,AFSA17.jpg,FS,4,num_6,16,num_6,0.616828334983,,,2018_Mar_16_1215,60.0114911633,FEMA4ImagesEEG,001,203346,
AFNE01.JPG,AFNE01.JPG,AFNE01.JPG,AFNE01.JPG,AFNE01.JPG,AFNE01.JPG,,,,,,,,,0,1,1,1,,,,,,,,,,,,,,,AFNE20.jpg,AFSA18.jpg,AFSA12.jpg,AFNE11.jpg,AFNE11.jpg,FN,3,num_4,16,num_4,0.466788291,,,2018_Mar_16_1215,60.0114911633,FEMA4ImagesEEG,001,203346,
AFNE01.JPG,AFNE01.JPG,AFNE01.JPG,AFNE01.JPG,AFNE01.JPG,AFNE01.JPG,,,,,,,,,0,2,2,8,,,,,,,,,,,,,,,AFNE12.jpg,AFSA16.jpg,AFNE20.jpg,AFSA06.jpg,AFNE12.jpg,FN,3,num_8,16,num_8,0.633511567954,,,2018_Mar_16_1215,60.0114911633,FEMA4ImagesEEG,001,203346,
AFNE01.JPG,AFNE01.JPG,AFNE01.JPG,AFNE01.JPG,AFNE01.JPG,AFNE01.JPG,,,,,,,,,0,3,3,9,,,,,,,,,,,,,,,AFSA01.jpg,AFNE19.jpg,AFNE09.jpg,AFSA20.jpg,AFNE09.jpg,FN,3,num_2,16,num_2,0.933439626358,,,2018_Mar_16_1215,60.0114911633,FEMA4ImagesEEG,001,203346,
AFNE01.JPG,AFNE01.JPG,AFNE01.JPG,AFNE01.JPG,AFNE01.JPG,AFNE01.JPG,,,,,,,,,0,4,4,5,,,,,,,,,,,,,,,AFNE09.jpg,AFNE13.jpg,AFSA19.jpg,AFSA07.jpg,AFSA07.jpg,FS,4,num_4,32,num_8,0.699877253268,,,2018_Mar_16_1215,60.0114911633,FEMA4ImagesEEG,001,203346,
AFNE01.JPG,AFNE01.JPG,AFNE01.JPG,AFNE01.JPG,AFNE01.JPG,AFNE01.JPG,,,,,,,,,0,5,5,4,,,,,,,,,,,,,,,AFSA06.jpg,AFNE04.jpg,AFSA11.jpg,AFNE02.jpg,AFNE02.jpg,FN,3,num_4,16,num_4,0.516829649918,,,2018_Mar_16_1215,60.0114911633,FEMA4ImagesEEG,001,203346,
AFNE01.JPG,AFNE01.JPG,AFNE01.JPG,AFNE01.JPG,AFNE01.JPG,AFNE01.JPG,,,,,,,,,0,6,6,2,,,,,,,,,,,,,,,AFSA07.jpg,AFSA01.jpg,AFNE06.jpg,AFNE18.jpg,AFSA07.jpg,FS,4,num_8,32,num_6,0.51683414029,,,2018_Mar_16_1215,60.0114911633,FEMA4ImagesEEG,001,203346,
AFNE01.JPG,AFNE01.JPG,AFNE01.JPG,AFNE01.JPG,AFNE01.JPG,AFNE01.JPG,,,,,,,,,0,7,7,6,,,,,,,,,,,,,,,AFSA13.jpg,AFSA08.jpg,AFNE19.jpg,AFNE03.jpg,AFSA08.jpg,FS,4,num_6,16,num_6,0.48359757429,,,2018_Mar_16_1215,60.0114911633,FEMA4ImagesEEG,001,203346,
AFNE01.JPG,AFNE01.JPG,AFNE01.JPG,AFNE01.JPG,AFNE01.JPG,AFNE01.JPG,,,,,,,,,0,8,8,3,,,,,,,,,,,,,,,AFSA02.jpg,AFSA19.jpg,AFNE12.jpg,AFNE15.jpg,AFNE15.jpg,FN,3,num_4,16,num_4,0.566678886767,,,2018_Mar_16_1215,60.0114911633,FEMA4ImagesEEG,001,203346,
AFNE01.JPG,AFNE01.JPG,AFNE01.JPG,AFNE01.JPG,AFNE01.JPG,AFNE01.JPG,,,,,,,,,0,9,9,0,,,,,,,,,,,,,,,AFSA08.jpg,AFNE06.jpg,AFNE07.jpg,AFSA09.jpg,AFNE07.jpg,FN,3,num_2,16,num_2,0.450344329234,,,2018_Mar_16_1215,60.0114911633,FEMA4ImagesEEG,001,203346,
AFNE01.JPG,AFNE01.JPG,AFNE01.JPG,AFNE01.JPG,AFNE01.JPG,AFNE01.JPG,,,,,,,,,1,0,10,6,,,,,,,,,,,,,,,AFSA07.jpg,AFNE08.jpg,AFSA03.jpg,AFNE01.jpg,AFNE08.jpg,FN,3,num_6,32,num_8,0.53353373101,,,2018_Mar_16_1215,60.0114911633,FEMA4ImagesEEG,001,203346,
AFNE01.JPG,AFNE01.JPG,AFNE01.JPG,AFNE01.JPG,AFNE01.JPG,AFNE01.JPG,,,,,,,,,1,1,11,8,,,,,,,,,,,,,,,AFNE07.jpg,AFSA02.jpg,AFNE01.jpg,AFSA05.jpg,AFNE07.jpg,FN,3,num_8,16,num_8,0.833439979237,,,2018_Mar_16_1215,60.0114911633,FEMA4ImagesEEG,001,203346,
AFNE01.JPG,AFNE01.JPG,AFNE01.JPG,AFNE01.JPG,AFNE01.JPG,AFNE01.JPG,,,,,,,,,1,2,12,0,,,,,,,,,,,,,,,AFNE05.jpg,AFSA19.jpg,AFNE12.jpg,AFSA09.jpg,AFNE05.jpg,FN,3,num_8,32,num_2,0.683464724105,,,2018_Mar_16_1215,60.0114911633,FEMA4ImagesEEG,001,203346,
AFNE01.JPG,AFNE01.JPG,AFNE01.JPG,AFNE01.JPG,AFNE01.JPG,AFNE01.JPG,,,,,,,,,1,3,13,7,,,,,,,,,,,,,,,AFNE20.jpg,AFSA01.jpg,AFSA14.jpg,AFNE19.jpg,AFNE20.jpg,FN,3,num_8,16,num_8,0.866704449523,,,2018_Mar_16_1215,60.0114911633,FEMA4ImagesEEG,001,203346,
AFNE01.JPG,AFNE01.JPG,AFNE01.JPG,AFNE01.JPG,AFNE01.JPG,AFNE01.JPG,,,,,,,,,1,4,14,2,,,,,,,,,,,,,,,AFSA17.jpg,AFNE18.jpg,AFSA09.jpg,AFNE03.jpg,AFNE03.jpg,FN,3,num_4,16,num_4,0.516875515692,,,2018_Mar_16_1215,60.0114911633,FEMA4ImagesEEG,001,203346,
AFNE01.JPG,AFNE01.JPG,AFNE01.JPG,AFNE01.JPG,AFNE01.JPG,AFNE01.JPG,,,,,,,,,1,5,15,1,,,,,,,,,,,,,,,AFSA03.jpg,AFSA11.jpg,AFNE08.jpg,AFNE09.jpg,AFNE09.jpg,FN,3,num_4,32,num_8,0.916790391784,,,2018_Mar_16_1215,60.0114911633,FEMA4ImagesEEG,001,203346,
AFNE01.JPG,AFNE01.JPG,AFNE01.JPG,AFNE01.JPG,AFNE01.JPG,AFNE01.JPG,,,,,,,,,1,6,16,3,,,,,,,,,,,,,,,AFNE04.jpg,AFNE12.jpg,AFSA20.jpg,AFSA16.jpg,AFNE12.jpg,FN,3,num_6,16,num_6,0.733138837386,,,2018_Mar_16_1215,60.0114911633,FEMA4ImagesEEG,001,203346,
AFNE01.JPG,AFNE01.JPG,AFNE01.JPG,AFNE01.JPG,AFNE01.JPG,AFNE01.JPG,,,,,,,,,1,7,17,9,,,,,,,,,,,,,,,AFNE19.jpg,AFSA02.jpg,AFSA03.jpg,AFNE17.jpg,AFSA02.jpg,FS,4,num_6,16,num_6,0.783568932209,,,2018_Mar_16_1215,60.0114911633,FEMA4ImagesEEG,001,203346,
AFNE01.JPG,AFNE01.JPG,AFNE01.JPG,AFNE01.JPG,AFNE01.JPG,AFNE01.JPG,,,,,,,,,1,8,18,4,,,,,,,,,,,,,,,AFNE07.jpg,AFSA18.jpg,AFSA08.jpg,AFNE14.jpg,AFNE07.jpg,FN,3,num_8,16,num_8,0.533596596215,,,2018_Mar_16_1215,60.0114911633,FEMA4ImagesEEG,001,203346,
AFNE01.JPG,AFNE01.JPG,AFNE01.JPG,AFNE01.JPG,AFNE01.JPG,AFNE01.JPG,,,,,,,,,1,9,19,5,,,,,,,,,,,,,,,AFSA08.jpg,AFNE01.jpg,AFNE10.jpg,AFSA18.jpg,AFSA08.jpg,FS,4,num_8,32,num_4,0.416926545557,,,2018_Mar_16_1215,60.0114911633,FEMA4ImagesEEG,001,203346,
AFNE01.JPG,AFNE01.JPG,AFNE01.JPG,AFNE01.JPG,AFNE01.JPG,AFNE01.JPG,,,,,,,,,2,0,20,6,,,,,,,,,,,,,,,AFNE16.jpg,AFSA08.jpg,AFNE07.jpg,AFSA16.jpg,AFSA16.jpg,FS,4,num_4,16,num_4,0.650308342185,,,2018_Mar_16_1215,60.0114911633,FEMA4ImagesEEG,001,203346,
AFNE01.JPG,AFNE01.JPG,AFNE01.JPG,AFNE01.JPG,AFNE01.JPG,AFNE01.JPG,,,,,,,,,2,1,21,3,,,,,,,,,,,,,,,AFNE20.jpg,AFNE09.jpg,AFSA11.jpg,AFSA05.jpg,AFNE20.jpg,FN,3,num_8,32,num_6,0.833434205502,,,2018_Mar_16_1215,60.0114911633,FEMA4ImagesEEG,001,203346,
AFNE01.JPG,AFNE01.JPG,AFNE01.JPG,AFNE01.JPG,AFNE01.JPG,AFNE01.JPG,,,,,,,,,2,2,22,4,,,,,,,,,,,,,,,AFSA13.jpg,AFNE11.jpg,AFSA14.jpg,AFNE10.jpg,AFSA13.jpg,FS,4,num_8,16,num_8,1.29991330439,,,2018_Mar_16_1215,60.0114911633,FEMA4ImagesEEG,001,203346,
AFNE01.JPG,AFNE01.JPG,AFNE01.JPG,AFNE01.JPG,AFNE01.JPG,AFNE01.JPG,,,,,,,,,2,3,23,1,,,,,,,,,,,,,,,AFNE01.jpg,AFSA17.jpg,AFNE13.jpg,AFSA08.jpg,AFNE13.jpg,FN,3,num_2,16,num_2,1.05014688242,,,2018_Mar_16_1215,60.0114911633,FEMA4ImagesEEG,001,203346,
AFNE01.JPG,AFNE01.JPG,AFNE01.JPG,AFNE01.JPG,AFNE01.JPG,AFNE01.JPG,,,,,,,,,2,4,24,7,,,,,,,,,,,,,,,AFNE06.jpg,AFNE08.jpg,AFSA14.jpg,AFSA10.jpg,AFSA14.jpg,FS,4,num_2,32,num_6,0.666804584209,,,2018_Mar_16_1215,60.0114911633,FEMA4ImagesEEG,001,203346,
AFNE01.JPG,AFNE01.JPG,AFNE01.JPG,AFNE01.JPG,AFNE01.JPG,AFNE01.JPG,,,,,,,,,2,5,25,5,,,,,,,,,,,,,,,AFNE08.jpg,AFSA04.jpg,AFSA15.jpg,AFNE16.jpg,AFSA04.jpg,FS,4,num_6,16,num_6,0.650203139987,,,2018_Mar_16_1215,60.0114911633,FEMA4ImagesEEG,001,203346,
AFNE01.JPG,AFNE01.JPG,AFNE01.JPG,AFNE01.JPG,AFNE01.JPG,AFNE01.JPG,,,,,,,,,2,6,26,0,,,,,,,,,,,,,,,AFSA15.jpg,AFNE11.jpg,AFNE16.jpg,AFSA03.jpg,AFNE16.jpg,FN,3,num_2,32,num_6,1.00011386257,,,2018_Mar_16_1215,60.0114911633,FEMA4ImagesEEG,001,203346,
AFNE01.JPG,AFNE01.JPG,AFNE01.JPG,AFNE01.JPG,AFNE01.JPG,AFNE01.JPG,,,,,,,,,2,7,27,2,,,,,,,,,,,,,,,AFNE06.jpg,AFNE04.jpg,AFSA06.jpg,AFSA07.jpg,AFSA06.jpg,FS,4,num_2,32,num_4,0.516810726374,,,2018_Mar_16_1215,60.0114911633,FEMA4ImagesEEG,001,203346,
AFNE01.JPG,AFNE01.JPG,AFNE01.JPG,AFNE01.JPG,AFNE01.JPG,AFNE01.JPG,,,,,,,,,2,8,28,9,,,,,,,,,,,,,,,AFSA12.jpg,AFSA03.jpg,AFNE07.jpg,AFNE12.jpg,AFNE12.jpg,FN,3,num_4,16,num_4,0.533497808501,,,2018_Mar_16_1215,60.0114911633,FEMA4ImagesEEG,001,203346,
AFNE01.JPG,AFNE01.JPG,AFNE01.JPG,AFNE01.JPG,AFNE01.JPG,AFNE01.JPG,,,,,,,,,2,9,29,8,,,,,,,,,,,,,,,AFSA16.jpg,AFNE05.jpg,AFSA01.jpg,AFNE07.jpg,AFSA01.jpg,FS,4,num_2,32,num_6,0.566820653621,,,2018_Mar_16_1215,60.0114911633,FEMA4ImagesEEG,001,203346,
AFNE01.JPG,AFNE01.JPG,AFNE01.JPG,AFNE01.JPG,AFNE01.JPG,AFNE01.JPG,,,,,,,,,3,0,30,5,,,,,,,,,,,,,,,AFSA20.jpg,AFSA15.jpg,AFNE18.jpg,AFNE17.jpg,AFNE18.jpg,FN,3,num_2,16,num_2,0.766785629094,,,2018_Mar_16_1215,60.0114911633,FEMA4ImagesEEG,001,203346,
AFNE01.JPG,AFNE01.JPG,AFNE01.JPG,AFNE01.JPG,AFNE01.JPG,AFNE01.JPG,,,,,,,,,3,1,31,1,,,,,,,,,,,,,,,AFNE07.jpg,AFSA17.jpg,AFNE04.jpg,AFSA08.jpg,AFSA17.jpg,FS,4,num_6,16,num_6,0.450183318462,,,2018_Mar_16_1215,60.0114911633,FEMA4ImagesEEG,001,203346,
AFNE01.JPG,AFNE01.JPG,AFNE01.JPG,AFNE01.JPG,AFNE01.JPG,AFNE01.JPG,,,,,,,,,3,2,32,6,,,,,,,,,,,,,,,AFSA11.jpg,AFSA20.jpg,AFNE05.jpg,AFNE20.jpg,AFSA11.jpg,FS,4,num_8,16,num_8,1.40009641415,,,2018_Mar_16_1215,60.0114911633,FEMA4ImagesEEG,001,203346,
AFNE01.JPG,AFNE01.JPG,AFNE01.JPG,AFNE01.JPG,AFNE01.JPG,AFNE01.JPG,,,,,,,,,3,3,33,7,,,,,,,,,,,,,,,AFSA07.jpg,AFNE08.jpg,AFNE13.jpg,AFSA10.jpg,AFSA10.jpg,FS,4,num_4,32,num_8,0.583512867335,,,2018_Mar_16_1215,60.0114911633,FEMA4ImagesEEG,001,203346,
AFNE01.JPG,AFNE01.JPG,AFNE01.JPG,AFNE01.JPG,AFNE01.JPG,AFNE01.JPG,,,,,,,,,3,4,34,3,,,,,,,,,,,,,,,AFSA18.jpg,AFNE08.jpg,AFNE07.jpg,AFSA16.jpg,AFNE07.jpg,FN,3,num_2,32,num_6,0.766755800229,,,2018_Mar_16_1215,60.0114911633,FEMA4ImagesEEG,001,203346,
AFNE01.JPG,AFNE01.JPG,AFNE01.JPG,AFNE01.JPG,AFNE01.JPG,AFNE01.JPG,,,,,,,,,3,5,35,9,,,,,,,,,,,,,,,AFSA17.jpg,AFNE06.jpg,AFSA19.jpg,AFNE19.jpg,AFSA17.jpg,FS,4,num_8,32,num_2,0.633544283453,,,2018_Mar_16_1215,60.0114911633,FEMA4ImagesEEG,001,203346,
AFNE01.JPG,AFNE01.JPG,AFNE01.JPG,AFNE01.JPG,AFNE01.JPG,AFNE01.JPG,,,,,,,,,3,6,36,8,,,,,,,,,,,,,,,AFNE03.jpg,AFSA11.jpg,AFSA05.jpg,AFNE16.jpg,AFSA11.jpg,FS,4,num_6,16,num_6,0.56679339055,,,2018_Mar_16_1215,60.0114911633,FEMA4ImagesEEG,001,203346,
AFNE01.JPG,AFNE01.JPG,AFNE01.JPG,AFNE01.JPG,AFNE01.JPG,AFNE01.JPG,,,,,,,,,3,7,37,2,,,,,,,,,,,,,,,AFSA08.jpg,AFNE01.jpg,AFNE15.jpg,AFSA07.jpg,AFNE01.jpg,FN,3,num_6,32,num_2,0.583518640138,,,2018_Mar_16_1215,60.0114911633,FEMA4ImagesEEG,001,203346,
AFNE01.JPG,AFNE01.JPG,AFNE01.JPG,AFNE01.JPG,AFNE01.JPG,AFNE01.JPG,,,,,,,,,3,8,38,4,,,,,,,,,,,,,,,AFNE14.jpg,AFNE15.jpg,AFSA14.jpg,AFSA16.jpg,AFSA14.jpg,FS,4,num_2,32,num_4,0.550169173628,,,2018_Mar_16_1215,60.0114911633,FEMA4ImagesEEG,001,203346,
AFNE01.JPG,AFNE01.JPG,AFNE01.JPG,AFNE01.JPG,AFNE01.JPG,AFNE01.JPG,,,,,,,,,3,9,39,0,,,,,,,,,,,,,,,AFSA20.jpg,AFNE01.jpg,AFSA19.jpg,AFNE08.jpg,AFNE08.jpg,FN,3,num_4,16,num_4,0.75010367902,,,2018_Mar_16_1215,60.0114911633,FEMA4ImagesEEG,001,203346,
AFNE01.JPG,AFNE01.JPG,AFNE01.JPG,AFNE01.JPG,AFNE01.JPG,AFNE01.JPG,,,,,,,,,4,0,40,2,,,,,,,,,,,,,,,AFNE16.jpg,AFNE01.jpg,AFSA07.jpg,AFSA06.jpg,AFNE16.jpg,FN,3,num_8,32,num_6,0.50013775751,,,2018_Mar_16_1215,60.0114911633,FEMA4ImagesEEG,001,203346,
AFNE01.JPG,AFNE01.JPG,AFNE01.JPG,AFNE01.JPG,AFNE01.JPG,AFNE01.JPG,,,,,,,,,4,1,41,4,,,,,,,,,,,,,,,AFNE01.jpg,AFNE07.jpg,AFSA12.jpg,AFSA15.jpg,AFSA12.jpg,FS,4,num_2,16,num_2,0.55014992971,,,2018_Mar_16_1215,60.0114911633,FEMA4ImagesEEG,001,203346,
AFNE01.JPG,AFNE01.JPG,AFNE01.JPG,AFNE01.JPG,AFNE01.JPG,AFNE01.JPG,,,,,,,,,4,2,42,0,,,,,,,,,,,,,,,AFSA01.jpg,AFNE01.jpg,AFNE04.jpg,AFSA11.jpg,AFNE01.jpg,FN,3,num_6,16,num_6,0.80014600046,,,2018_Mar_16_1215,60.0114911633,FEMA4ImagesEEG,001,203346,
AFNE01.JPG,AFNE01.JPG,AFNE01.JPG,AFNE01.JPG,AFNE01.JPG,AFNE01.JPG,,,,,,,,,4,3,43,7,,,,,,,,,,,,,,,AFNE10.jpg,AFSA14.jpg,AFSA05.jpg,AFNE18.jpg,AFSA05.jpg,FS,4,num_2,16,num_2,0.600155045278,,,2018_Mar_16_1215,60.0114911633,FEMA4ImagesEEG,001,203346,
AFNE01.JPG,AFNE01.JPG,AFNE01.JPG,AFNE01.JPG,AFNE01.JPG,AFNE01.JPG,,,,,,,,,4,4,44,9,,,,,,,,,,,,,,,AFSA01.jpg,AFSA09.jpg,AFNE05.jpg,AFNE16.jpg,AFNE05.jpg,FN,3,num_2,16,num_2,0.483579933178,,,2018_Mar_16_1215,60.0114911633,FEMA4ImagesEEG,001,203346,
AFNE01.JPG,AFNE01.JPG,AFNE01.JPG,AFNE01.JPG,AFNE01.JPG,AFNE01.JPG,,,,,,,,,4,5,45,6,,,,,,,,,,,,,,,AFSA02.jpg,AFSA10.jpg,AFNE11.jpg,AFNE01.jpg,AFSA02.jpg,FS,4,num_8,32,num_4,0.566671189386,,,2018_Mar_16_1215,60.0114911633,FEMA4ImagesEEG,001,203346,
AFNE01.JPG,AFNE01.JPG,AFNE01.JPG,AFNE01.JPG,AFNE01.JPG,AFNE01.JPG,,,,,,,,,4,6,46,3,,,,,,,,,,,,,,,AFSA09.jpg,AFNE04.jpg,AFNE06.jpg,AFSA18.jpg,AFSA09.jpg,FS,4,num_8,16,num_8,0.450182676781,,,2018_Mar_16_1215,60.0114911633,FEMA4ImagesEEG,001,203346,
AFNE01.JPG,AFNE01.JPG,AFNE01.JPG,AFNE01.JPG,AFNE01.JPG,AFNE01.JPG,,,,,,,,,4,7,47,5,,,,,,,,,,,,,,,AFNE11.jpg,AFNE08.jpg,AFSA08.jpg,AFSA02.jpg,AFSA02.jpg,FS,4,num_4,32,num_2,0.750147299375,,,2018_Mar_16_1215,60.0114911633,FEMA4ImagesEEG,001,203346,
AFNE01.JPG,AFNE01.JPG,AFNE01.JPG,AFNE01.JPG,AFNE01.JPG,AFNE01.JPG,,,,,,,,,4,8,48,8,,,,,,,,,,,,,,,AFSA04.jpg,AFNE03.jpg,AFSA16.jpg,AFNE02.jpg,AFSA16.jpg,FS,4,num_2,16,num_2,0.533486582339,,,2018_Mar_16_1215,60.0114911633,FEMA4ImagesEEG,001,203346,
AFNE01.JPG,AFNE01.JPG,AFNE01.JPG,AFNE01.JPG,AFNE01.JPG,AFNE01.JPG,,,,,,,,,4,9,49,1,,,,,,,,,,,,,,,AFSA07.jpg,AFNE03.jpg,AFSA13.jpg,AFNE08.jpg,AFSA13.jpg,FS,4,num_2,16,num_2,0.483555557206,,,2018_Mar_16_1215,60.0114911633,FEMA4ImagesEEG,001,203346,
AFNE01.JPG,AFNE01.JPG,AFNE01.JPG,AFNE01.JPG,AFNE01.JPG,AFNE01.JPG,,,,,,,,,5,0,50,9,,,,,,,,,,,,,,,AFNE03.jpg,AFNE06.jpg,AFSA17.jpg,AFSA01.jpg,AFNE03.jpg,FN,3,num_8,32,num_6,0.833437733818,,,2018_Mar_16_1215,60.0114911633,FEMA4ImagesEEG,001,203346,
AFNE01.JPG,AFNE01.JPG,AFNE01.JPG,AFNE01.JPG,AFNE01.JPG,AFNE01.JPG,,,,,,,,,5,1,51,3,,,,,,,,,,,,,,,AFSA11.jpg,AFSA06.jpg,AFNE01.jpg,AFNE15.jpg,AFNE01.jpg,FN,3,num_2,32,num_4,0.866756088566,,,2018_Mar_16_1215,60.0114911633,FEMA4ImagesEEG,001,203346,
AFNE01.JPG,AFNE01.JPG,AFNE01.JPG,AFNE01.JPG,AFNE01.JPG,AFNE01.JPG,,,,,,,,,5,2,52,0,,,,,,,,,,,,,,,AFSA18.jpg,AFNE19.jpg,AFNE17.jpg,AFSA10.jpg,AFSA18.jpg,FS,4,num_8,32,num_2,0.600238116458,,,2018_Mar_16_1215,60.0114911633,FEMA4ImagesEEG,001,203346,
AFNE01.JPG,AFNE01.JPG,AFNE01.JPG,AFNE01.JPG,AFNE01.JPG,AFNE01.JPG,,,,,,,,,5,3,53,8,,,,,,,,,,,,,,,AFSA15.jpg,AFNE11.jpg,AFNE04.jpg,AFSA06.jpg,AFNE04.jpg,FN,3,num_2,32,num_8,0.883443170227,,,2018_Mar_16_1215,60.0114911633,FEMA4ImagesEEG,001,203346,
AFNE01.JPG,AFNE01.JPG,AFNE01.JPG,AFNE01.JPG,AFNE01.JPG,AFNE01.JPG,,,,,,,,,5,4,54,2,,,,,,,,,,,,,,,AFNE09.jpg,AFSA05.jpg,AFNE17.jpg,AFSA19.jpg,AFNE09.jpg,FN,3,num_8,32,num_4,0.666826073546,,,2018_Mar_16_1215,60.0114911633,FEMA4ImagesEEG,001,203346,
AFNE01.JPG,AFNE01.JPG,AFNE01.JPG,AFNE01.JPG,AFNE01.JPG,AFNE01.JPG,,,,,,,,,5,5,55,7,,,,,,,,,,,,,,,AFNE20.jpg,AFSA11.jpg,AFSA15.jpg,AFNE15.jpg,AFNE20.jpg,FN,3,num_8,32,num_6,0.61707851151,,,2018_Mar_16_1215,60.0114911633,FEMA4ImagesEEG,001,203346,
AFNE01.JPG,AFNE01.JPG,AFNE01.JPG,AFNE01.JPG,AFNE01.JPG,AFNE01.JPG,,,,,,,,,5,6,56,6,,,,,,,,,,,,,,,AFSA16.jpg,AFNE04.jpg,AFSA17.jpg,AFNE20.jpg,AFSA17.jpg,FS,4,num_2,16,num_2,0.666808112524,,,2018_Mar_16_1215,60.0114911633,FEMA4ImagesEEG,001,203346,
AFNE01.JPG,AFNE01.JPG,AFNE01.JPG,AFNE01.JPG,AFNE01.JPG,AFNE01.JPG,,,,,,,,,5,7,57,5,,,,,,,,,,,,,,,AFNE16.jpg,AFSA11.jpg,AFNE04.jpg,AFSA08.jpg,AFSA11.jpg,FS,4,num_6,16,num_6,0.416830323637,,,2018_Mar_16_1215,60.0114911633,FEMA4ImagesEEG,001,203346,
AFNE01.JPG,AFNE01.JPG,AFNE01.JPG,AFNE01.JPG,AFNE01.JPG,AFNE01.JPG,,,,,,,,,5,8,58,1,,,,,,,,,,,,,,,AFNE04.jpg,AFSA04.jpg,AFNE12.jpg,AFSA19.jpg,AFNE04.jpg,FN,3,num_8,32,num_2,0.600144460797,,,2018_Mar_16_1215,60.0114911633,FEMA4ImagesEEG,001,203346,
AFNE01.JPG,AFNE01.JPG,AFNE01.JPG,AFNE01.JPG,AFNE01.JPG,AFNE01.JPG,,,,,,,,,5,9,59,4,,,,,,,,,,,,,,,AFSA19.jpg,AFSA17.jpg,AFNE01.jpg,AFNE14.jpg,AFNE14.jpg,FN,3,num_4,32,num_6,0.600150875747,,,2018_Mar_16_1215,60.0114911633,FEMA4ImagesEEG,001,203346,
,,,,,,,,,,,,,,,,,,,,,,,,,,,,,,,,,,,,,,,,,,,space,19.4816538962,2018_Mar_16_1215,60.0114911633,FEMA4ImagesEEG,001,203346,
AFNE01.JPG,AFNE01.JPG,AFNE01.JPG,AFNE01.JPG,AFNE01.JPG,AFNE01.JPG,,,,,,,,,,,,,0,0,0,3,,,,,,,,,,,AMSA18.jpg,AMSA08.jpg,AMNE01.jpg,AMNE14.jpg,AMNE14.jpg,MN,1,num_4,32,num_6,0.866800029762,,,2018_Mar_16_1215,60.0114911633,FEMA4ImagesEEG,001,203346,
AFNE01.JPG,AFNE01.JPG,AFNE01.JPG,AFNE01.JPG,AFNE01.JPG,AFNE01.JPG,,,,,,,,,,,,,0,1,1,5,,,,,,,,,,,AMSA18.jpg,AMNE08.jpg,AMNE02.jpg,AMSA02.jpg,AMNE02.jpg,MN,1,num_2,16,num_2,0.61683250498,,,2018_Mar_16_1215,60.0114911633,FEMA4ImagesEEG,001,203346,
AFNE01.JPG,AFNE01.JPG,AFNE01.JPG,AFNE01.JPG,AFNE01.JPG,AFNE01.JPG,,,,,,,,,,,,,0,2,2,8,,,,,,,,,,,AMSA20.jpg,AMNE02.jpg,AMNE09.jpg,AMSA09.jpg,AMSA09.jpg,MS,2,num_4,32,num_8,0.566776070744,,,2018_Mar_16_1215,60.0114911633,FEMA4ImagesEEG,001,203346,
AFNE01.JPG,AFNE01.JPG,AFNE01.JPG,AFNE01.JPG,AFNE01.JPG,AFNE01.JPG,,,,,,,,,,,,,0,3,3,9,,,,,,,,,,,AMSA15.jpg,AMNE12.jpg,AMSA07.jpg,AMNE09.jpg,AMSA15.jpg,MS,2,num_8,32,num_2,0.600135480054,,,2018_Mar_16_1215,60.0114911633,FEMA4ImagesEEG,001,203346,
AFNE01.JPG,AFNE01.JPG,AFNE01.JPG,AFNE01.JPG,AFNE01.JPG,AFNE01.JPG,,,,,,,,,,,,,0,4,4,7,,,,,,,,,,,AMSA15.jpg,AMNE14.jpg,AMNE03.jpg,AMSA11.jpg,AMNE14.jpg,MN,1,num_6,16,num_6,0.583471491467,,,2018_Mar_16_1215,60.0114911633,FEMA4ImagesEEG,001,203346,
AFNE01.JPG,AFNE01.JPG,AFNE01.JPG,AFNE01.JPG,AFNE01.JPG,AFNE01.JPG,,,,,,,,,,,,,0,5,5,2,,,,,,,,,,,AMNE13.jpg,AMNE14.jpg,AMSA07.jpg,AMSA10.jpg,AMSA10.jpg,MS,2,num_4,16,num_4,0.750245766249,,,2018_Mar_16_1215,60.0114911633,FEMA4ImagesEEG,001,203346,
AFNE01.JPG,AFNE01.JPG,AFNE01.JPG,AFNE01.JPG,AFNE01.JPG,AFNE01.JPG,,,,,,,,,,,,,0,6,6,1,,,,,,,,,,,AMSA12.jpg,AMSA07.jpg,AMNE04.jpg,AMNE02.jpg,AMSA07.jpg,MS,2,num_6,16,num_6,0.600152158178,,,2018_Mar_16_1215,60.0114911633,FEMA4ImagesEEG,001,203346,
AFNE01.JPG,AFNE01.JPG,AFNE01.JPG,AFNE01.JPG,AFNE01.JPG,AFNE01.JPG,,,,,,,,,,,,,0,7,7,4,,,,,,,,,,,AMSA06.jpg,AMSA18.jpg,AMNE11.jpg,AMNE10.jpg,AMSA06.jpg,MS,2,num_8,16,num_8,0.933505377732,,,2018_Mar_16_1215,60.0114911633,FEMA4ImagesEEG,001,203346,
AFNE01.JPG,AFNE01.JPG,AFNE01.JPG,AFNE01.JPG,AFNE01.JPG,AFNE01.JPG,,,,,,,,,,,,,0,8,8,6,,,,,,,,,,,AMSA07.jpg,AMNE02.jpg,AMNE09.jpg,AMSA14.jpg,AMSA07.jpg,MS,2,num_8,32,num_4,0.633480776567,,,2018_Mar_16_1215,60.0114911633,FEMA4ImagesEEG,001,203346,
AFNE01.JPG,AFNE01.JPG,AFNE01.JPG,AFNE01.JPG,AFNE01.JPG,AFNE01.JPG,,,,,,,,,,,,,0,9,9,0,,,,,,,,,,,AMNE14.jpg,AMSA17.jpg,AMSA16.jpg,AMNE01.jpg,AMSA17.jpg,MS,2,num_6,16,num_6,0.633475324139,,,2018_Mar_16_1215,60.0114911633,FEMA4ImagesEEG,001,203346,
AFNE01.JPG,AFNE01.JPG,AFNE01.JPG,AFNE01.JPG,AFNE01.JPG,AFNE01.JPG,,,,,,,,,,,,,1,0,10,0,,,,,,,,,,,AMSA14.jpg,AMNE06.jpg,AMNE04.jpg,AMSA08.jpg,AMNE06.jpg,MN,1,num_6,16,num_6,1.63341823313,,,2018_Mar_16_1215,60.0114911633,FEMA4ImagesEEG,001,203346,
AFNE01.JPG,AFNE01.JPG,AFNE01.JPG,AFNE01.JPG,AFNE01.JPG,AFNE01.JPG,,,,,,,,,,,,,1,1,11,5,,,,,,,,,,,AMNE15.jpg,AMNE05.jpg,AMSA09.jpg,AMSA03.jpg,AMSA03.jpg,MS,2,num_4,16,num_4,0.616813901812,,,2018_Mar_16_1215,60.0114911633,FEMA4ImagesEEG,001,203346,
AFNE01.JPG,AFNE01.JPG,AFNE01.JPG,AFNE01.JPG,AFNE01.JPG,AFNE01.JPG,,,,,,,,,,,,,1,2,12,1,,,,,,,,,,,AMNE17.jpg,AMSA17.jpg,AMNE07.jpg,AMSA03.jpg,AMNE17.jpg,MN,1,num_8,32,num_6,0.583535318729,,,2018_Mar_16_1215,60.0114911633,FEMA4ImagesEEG,001,203346,
AFNE01.JPG,AFNE01.JPG,AFNE01.JPG,AFNE01.JPG,AFNE01.JPG,AFNE01.JPG,,,,,,,,,,,,,1,3,13,7,,,,,,,,,,,AMNE12.jpg,AMSA05.jpg,AMSA03.jpg,AMNE19.jpg,AMNE12.jpg,MN,1,num_8,32,num_6,0.683466969524,,,2018_Mar_16_1215,60.0114911633,FEMA4ImagesEEG,001,203346,
AFNE01.JPG,AFNE01.JPG,AFNE01.JPG,AFNE01.JPG,AFNE01.JPG,AFNE01.JPG,,,,,,,,,,,,,1,4,14,4,,,,,,,,,,,AMNE18.jpg,AMNE06.jpg,AMSA01.jpg,AMSA10.jpg,AMNE18.jpg,MN,1,num_8,16,num_8,0.733701734338,,,2018_Mar_16_1215,60.0114911633,FEMA4ImagesEEG,001,203346,
AFNE01.JPG,AFNE01.JPG,AFNE01.JPG,AFNE01.JPG,AFNE01.JPG,AFNE01.JPG,,,,,,,,,,,,,1,5,15,6,,,,,,,,,,,AMSA10.jpg,AMSA03.jpg,AMNE17.jpg,AMNE20.jpg,AMNE17.jpg,MN,1,num_2,32,num_4,0.966764396057,,,2018_Mar_16_1215,60.0114911633,FEMA4ImagesEEG,001,203346,
AFNE01.JPG,AFNE01.JPG,AFNE01.JPG,AFNE01.JPG,AFNE01.JPG,AFNE01.JPG,,,,,,,,,,,,,1,6,16,2,,,,,,,,,,,AMNE12.jpg,AMSA02.jpg,AMSA17.jpg,AMNE01.jpg,AMSA02.jpg,MS,2,num_6,16,num_6,0.650168821216,,,2018_Mar_16_1215,60.0114911633,FEMA4ImagesEEG,001,203346,
AFNE01.JPG,AFNE01.JPG,AFNE01.JPG,AFNE01.JPG,AFNE01.JPG,AFNE01.JPG,,,,,,,,,,,,,1,7,17,8,,,,,,,,,,,AMNE18.jpg,AMSA05.jpg,AMNE08.jpg,AMSA14.jpg,AMSA14.jpg,MS,2,num_4,16,num_4,0.600110462867,,,2018_Mar_16_1215,60.0114911633,FEMA4ImagesEEG,001,203346,
AFNE01.JPG,AFNE01.JPG,AFNE01.JPG,AFNE01.JPG,AFNE01.JPG,AFNE01.JPG,,,,,,,,,,,,,1,8,18,3,,,,,,,,,,,AMNE07.jpg,AMNE11.jpg,AMSA02.jpg,AMSA20.jpg,AMNE07.jpg,MN,1,num_8,32,num_6,0.600135800894,,,2018_Mar_16_1215,60.0114911633,FEMA4ImagesEEG,001,203346,
AFNE01.JPG,AFNE01.JPG,AFNE01.JPG,AFNE01.JPG,AFNE01.JPG,AFNE01.JPG,,,,,,,,,,,,,1,9,19,9,,,,,,,,,,,AMNE15.jpg,AMSA13.jpg,AMSA14.jpg,AMNE20.jpg,AMNE15.jpg,MN,1,num_8,32,num_6,0.566783768125,,,2018_Mar_16_1215,60.0114911633,FEMA4ImagesEEG,001,203346,
AFNE01.JPG,AFNE01.JPG,AFNE01.JPG,AFNE01.JPG,AFNE01.JPG,AFNE01.JPG,,,,,,,,,,,,,2,0,20,6,,,,,,,,,,,AMNE01.jpg,AMSA11.jpg,AMNE20.jpg,AMSA08.jpg,AMNE01.jpg,MN,1,num_8,32,num_6,0.483432714362,,,2018_Mar_16_1215,60.0114911633,FEMA4ImagesEEG,001,203346,
AFNE01.JPG,AFNE01.JPG,AFNE01.JPG,AFNE01.JPG,AFNE01.JPG,AFNE01.JPG,,,,,,,,,,,,,2,1,21,2,,,,,,,,,,,AMSA10.jpg,AMNE15.jpg,AMNE05.jpg,AMSA17.jpg,AMNE15.jpg,MN,1,num_6,32,num_2,0.650122634601,,,2018_Mar_16_1215,60.0114911633,FEMA4ImagesEEG,001,203346,
AFNE01.JPG,AFNE01.JPG,AFNE01.JPG,AFNE01.JPG,AFNE01.JPG,AFNE01.JPG,,,,,,,,,,,,,2,2,22,8,,,,,,,,,,,AMNE06.jpg,AMSA08.jpg,AMSA13.jpg,AMNE17.jpg,AMSA08.jpg,MS,2,num_6,16,num_6,0.51682419749,,,2018_Mar_16_1215,60.0114911633,FEMA4ImagesEEG,001,203346,
AFNE01.JPG,AFNE01.JPG,AFNE01.JPG,AFNE01.JPG,AFNE01.JPG,AFNE01.JPG,,,,,,,,,,,,,2,3,23,3,,,,,,,,,,,AMSA07.jpg,AMSA02.jpg,AMNE03.jpg,AMNE17.jpg,AMNE03.jpg,MN,1,num_2,32,num_6,0.583472453989,,,2018_Mar_16_1215,60.0114911633,FEMA4ImagesEEG,001,203346,
AFNE01.JPG,AFNE01.JPG,AFNE01.JPG,AFNE01.JPG,AFNE01.JPG,AFNE01.JPG,,,,,,,,,,,,,2,4,24,0,,,,,,,,,,,AMSA13.jpg,AMNE03.jpg,AMNE18.jpg,AMSA09.jpg,AMNE18.jpg,MN,1,num_2,32,num_8,0.733508328442,,,2018_Mar_16_1215,60.0114911633,FEMA4ImagesEEG,001,203346,
AFNE01.JPG,AFNE01.JPG,AFNE01.JPG,AFNE01.JPG,AFNE01.JPG,AFNE01.JPG,,,,,,,,,,,,,2,5,25,4,,,,,,,,,,,AMSA01.jpg,AMNE07.jpg,AMSA20.jpg,AMNE18.jpg,AMNE18.jpg,MN,1,num_4,32,num_2,0.583484000526,,,2018_Mar_16_1215,60.0114911633,FEMA4ImagesEEG,001,203346,
AFNE01.JPG,AFNE01.JPG,AFNE01.JPG,AFNE01.JPG,AFNE01.JPG,AFNE01.JPG,,,,,,,,,,,,,2,6,26,7,,,,,,,,,,,AMNE11.jpg,AMNE15.jpg,AMSA06.jpg,AMSA09.jpg,AMSA09.jpg,MS,2,num_4,32,num_6,0.500141927041,,,2018_Mar_16_1215,60.0114911633,FEMA4ImagesEEG,001,203346,
AFNE01.JPG,AFNE01.JPG,AFNE01.JPG,AFNE01.JPG,AFNE01.JPG,AFNE01.JPG,,,,,,,,,,,,,2,7,27,9,,,,,,,,,,,AMSA18.jpg,AMNE09.jpg,AMNE01.jpg,AMSA03.jpg,AMSA03.jpg,MS,2,num_4,16,num_4,0.666783094872,,,2018_Mar_16_1215,60.0114911633,FEMA4ImagesEEG,001,203346,
AFNE01.JPG,AFNE01.JPG,AFNE01.JPG,AFNE01.JPG,AFNE01.JPG,AFNE01.JPG,,,,,,,,,,,,,2,8,28,5,,,,,,,,,,,AMNE03.jpg,AMSA10.jpg,AMNE10.jpg,AMSA11.jpg,AMSA11.jpg,MS,2,num_4,32,num_8,0.633509322535,,,2018_Mar_16_1215,60.0114911633,FEMA4ImagesEEG,001,203346,
AFNE01.JPG,AFNE01.JPG,AFNE01.JPG,AFNE01.JPG,AFNE01.JPG,AFNE01.JPG,,,,,,,,,,,,,2,9,29,1,,,,,,,,,,,AMSA16.jpg,AMNE10.jpg,AMNE19.jpg,AMSA04.jpg,AMNE19.jpg,MN,1,num_2,32,num_8,1.08345144568,,,2018_Mar_16_1215,60.0114911633,FEMA4ImagesEEG,001,203346,
AFNE01.JPG,AFNE01.JPG,AFNE01.JPG,AFNE01.JPG,AFNE01.JPG,AFNE01.JPG,,,,,,,,,,,,,3,0,30,8,,,,,,,,,,,AMNE05.jpg,AMNE09.jpg,AMSA13.jpg,AMSA15.jpg,AMSA13.jpg,MS,2,num_2,32,num_4,1.46674082149,,,2018_Mar_16_1215,60.0114911633,FEMA4ImagesEEG,001,203346,
AFNE01.JPG,AFNE01.JPG,AFNE01.JPG,AFNE01.JPG,AFNE01.JPG,AFNE01.JPG,,,,,,,,,,,,,3,1,31,9,,,,,,,,,,,AMSA19.jpg,AMNE11.jpg,AMNE05.jpg,AMSA12.jpg,AMSA19.jpg,MS,2,num_8,16,num_8,0.600108858664,,,2018_Mar_16_1215,60.0114911633,FEMA4ImagesEEG,001,203346,
AFNE01.JPG,AFNE01.JPG,AFNE01.JPG,AFNE01.JPG,AFNE01.JPG,AFNE01.JPG,,,,,,,,,,,,,3,2,32,2,,,,,,,,,,,AMNE07.jpg,AMSA02.jpg,AMNE18.jpg,AMSA11.jpg,AMSA11.jpg,MS,2,num_4,32,num_6,0.750035361387,,,2018_Mar_16_1215,60.0114911633,FEMA4ImagesEEG,001,203346,
AFNE01.JPG,AFNE01.JPG,AFNE01.JPG,AFNE01.JPG,AFNE01.JPG,AFNE01.JPG,,,,,,,,,,,,,3,3,33,1,,,,,,,,,,,AMNE02.jpg,AMSA09.jpg,AMNE17.jpg,AMSA05.jpg,AMNE02.jpg,MN,1,num_8,32,num_6,0.533532127272,,,2018_Mar_16_1215,60.0114911633,FEMA4ImagesEEG,001,203346,
AFNE01.JPG,AFNE01.JPG,AFNE01.JPG,AFNE01.JPG,AFNE01.JPG,AFNE01.JPG,,,,,,,,,,,,,3,4,34,6,,,,,,,,,,,AMSA10.jpg,AMNE04.jpg,AMSA05.jpg,AMNE06.jpg,AMNE04.jpg,MN,1,num_6,16,num_6,0.633495210204,,,2018_Mar_16_1215,60.0114911633,FEMA4ImagesEEG,001,203346,
AFNE01.JPG,AFNE01.JPG,AFNE01.JPG,AFNE01.JPG,AFNE01.JPG,AFNE01.JPG,,,,,,,,,,,,,3,5,35,0,,,,,,,,,,,AMNE10.jpg,AMSA01.jpg,AMNE02.jpg,AMSA09.jpg,AMSA01.jpg,MS,2,num_6,16,num_6,0.450344649609,,,2018_Mar_16_1215,60.0114911633,FEMA4ImagesEEG,001,203346,
AFNE01.JPG,AFNE01.JPG,AFNE01.JPG,AFNE01.JPG,AFNE01.JPG,AFNE01.JPG,,,,,,,,,,,,,3,6,36,3,,,,,,,,,,,AMNE01.jpg,AMNE09.jpg,AMSA20.jpg,AMSA17.jpg,AMNE09.jpg,MN,1,num_6,16,num_6,0.700010359753,,,2018_Mar_16_1215,60.0114911633,FEMA4ImagesEEG,001,203346,
AFNE01.JPG,AFNE01.JPG,AFNE01.JPG,AFNE01.JPG,AFNE01.JPG,AFNE01.JPG,,,,,,,,,,,,,3,7,37,7,,,,,,,,,,,AMNE16.jpg,AMSA03.jpg,AMNE09.jpg,AMSA05.jpg,AMSA03.jpg,MS,2,num_6,16,num_6,0.616803317796,,,2018_Mar_16_1215,60.0114911633,FEMA4ImagesEEG,001,203346,
AFNE01.JPG,AFNE01.JPG,AFNE01.JPG,AFNE01.JPG,AFNE01.JPG,AFNE01.JPG,,,,,,,,,,,,,3,8,38,4,,,,,,,,,,,AMNE06.jpg,AMNE10.jpg,AMSA09.jpg,AMSA17.jpg,AMSA17.jpg,MS,2,num_4,32,num_6,0.833467241842,,,2018_Mar_16_1215,60.0114911633,FEMA4ImagesEEG,001,203346,
AFNE01.JPG,AFNE01.JPG,AFNE01.JPG,AFNE01.JPG,AFNE01.JPG,AFNE01.JPG,,,,,,,,,,,,,3,9,39,5,,,,,,,,,,,AMSA10.jpg,AMNE20.jpg,AMSA01.jpg,AMNE02.jpg,AMNE20.jpg,MN,1,num_6,32,num_8,1.38340420043,,,2018_Mar_16_1215,60.0114911633,FEMA4ImagesEEG,001,203346,
AFNE01.JPG,AFNE01.JPG,AFNE01.JPG,AFNE01.JPG,AFNE01.JPG,AFNE01.JPG,,,,,,,,,,,,,4,0,40,3,,,,,,,,,,,AMNE07.jpg,AMSA13.jpg,AMNE17.jpg,AMSA18.jpg,AMSA13.jpg,MS,2,num_6,32,num_8,1.35010156175,,,2018_Mar_16_1215,60.0114911633,FEMA4ImagesEEG,001,203346,
AFNE01.JPG,AFNE01.JPG,AFNE01.JPG,AFNE01.JPG,AFNE01.JPG,AFNE01.JPG,,,,,,,,,,,,,4,1,41,4,,,,,,,,,,,AMNE13.jpg,AMSA06.jpg,AMNE15.jpg,AMSA20.jpg,AMNE13.jpg,MN,1,num_8,32,num_2,0.86680195434,,,2018_Mar_16_1215,60.0114911633,FEMA4ImagesEEG,001,203346,
AFNE01.JPG,AFNE01.JPG,AFNE01.JPG,AFNE01.JPG,AFNE01.JPG,AFNE01.JPG,,,,,,,,,,,,,4,2,42,0,,,,,,,,,,,AMNE19.jpg,AMSA05.jpg,AMNE17.jpg,AMSA20.jpg,AMNE19.jpg,MN,1,num_8,32,num_2,0.950137933716,,,2018_Mar_16_1215,60.0114911633,FEMA4ImagesEEG,001,203346,
AFNE01.JPG,AFNE01.JPG,AFNE01.JPG,AFNE01.JPG,AFNE01.JPG,AFNE01.JPG,,,,,,,,,,,,,4,3,43,2,,,,,,,,,,,AMSA20.jpg,AMNE15.jpg,AMSA09.jpg,AMNE05.jpg,AMNE15.jpg,MN,1,num_6,32,num_4,1.03344953666,,,2018_Mar_16_1215,60.0114911633,FEMA4ImagesEEG,001,203346,
AFNE01.JPG,AFNE01.JPG,AFNE01.JPG,AFNE01.JPG,AFNE01.JPG,AFNE01.JPG,,,,,,,,,,,,,4,4,44,1,,,,,,,,,,,AMSA14.jpg,AMNE06.jpg,AMSA11.jpg,AMNE07.jpg,AMNE06.jpg,MN,1,num_6,32,num_4,0.816873495001,,,2018_Mar_16_1215,60.0114911633,FEMA4ImagesEEG,001,203346,
AFNE01.JPG,AFNE01.JPG,AFNE01.JPG,AFNE01.JPG,AFNE01.JPG,AFNE01.JPG,,,,,,,,,,,,,4,5,45,7,,,,,,,,,,,AMSA08.jpg,AMSA13.jpg,AMNE02.jpg,AMNE06.jpg,AMSA08.jpg,MS,2,num_8,32,num_2,0.450158942025,,,2018_Mar_16_1215,60.0114911633,FEMA4ImagesEEG,001,203346,
AFNE01.JPG,AFNE01.JPG,AFNE01.JPG,AFNE01.JPG,AFNE01.JPG,AFNE01.JPG,,,,,,,,,,,,,4,6,46,6,,,,,,,,,,,AMNE18.jpg,AMSA06.jpg,AMSA20.jpg,AMNE04.jpg,AMNE18.jpg,MN,1,num_8,32,num_6,0.550230755471,,,2018_Mar_16_1215,60.0114911633,FEMA4ImagesEEG,001,203346,
AFNE01.JPG,AFNE01.JPG,AFNE01.JPG,AFNE01.JPG,AFNE01.JPG,AFNE01.JPG,,,,,,,,,,,,,4,7,47,8,,,,,,,,,,,AMNE14.jpg,AMNE18.jpg,AMSA20.jpg,AMSA06.jpg,AMNE18.jpg,MN,1,num_6,32,num_4,0.750133187044,,,2018_Mar_16_1215,60.0114911633,FEMA4ImagesEEG,001,203346,
AFNE01.JPG,AFNE01.JPG,AFNE01.JPG,AFNE01.JPG,AFNE01.JPG,AFNE01.JPG,,,,,,,,,,,,,4,8,48,5,,,,,,,,,,,AMSA04.jpg,AMNE08.jpg,AMNE18.jpg,AMSA10.jpg,AMNE18.jpg,MN,1,num_2,32,num_8,0.633458004333,,,2018_Mar_16_1215,60.0114911633,FEMA4ImagesEEG,001,203346,
AFNE01.JPG,AFNE01.JPG,AFNE01.JPG,AFNE01.JPG,AFNE01.JPG,AFNE01.JPG,,,,,,,,,,,,,4,9,49,9,,,,,,,,,,,AMSA17.jpg,AMNE13.jpg,AMNE03.jpg,AMSA07.jpg,AMSA17.jpg,MS,2,num_8,32,num_4,0.666803301312,,,2018_Mar_16_1215,60.0114911633,FEMA4ImagesEEG,001,203346,
AFNE01.JPG,AFNE01.JPG,AFNE01.JPG,AFNE01.JPG,AFNE01.JPG,AFNE01.JPG,,,,,,,,,,,,,5,0,50,0,,,,,,,,,,,AMNE14.jpg,AMSA03.jpg,AMSA13.jpg,AMNE04.jpg,AMNE04.jpg,MN,1,num_4,32,num_8,1.01677592658,,,2018_Mar_16_1215,60.0114911633,FEMA4ImagesEEG,001,203346,
AFNE01.JPG,AFNE01.JPG,AFNE01.JPG,AFNE01.JPG,AFNE01.JPG,AFNE01.JPG,,,,,,,,,,,,,5,1,51,6,,,,,,,,,,,AMNE12.jpg,AMSA16.jpg,AMSA10.jpg,AMNE19.jpg,AMSA10.jpg,MS,2,num_2,16,num_2,0.916756072547,,,2018_Mar_16_1215,60.0114911633,FEMA4ImagesEEG,001,203346,
AFNE01.JPG,AFNE01.JPG,AFNE01.JPG,AFNE01.JPG,AFNE01.JPG,AFNE01.JPG,,,,,,,,,,,,,5,2,52,9,,,,,,,,,,,AMNE06.jpg,AMNE03.jpg,AMSA20.jpg,AMSA02.jpg,AMNE03.jpg,MN,1,num_6,16,num_6,0.7167779468,,,2018_Mar_16_1215,60.0114911633,FEMA4ImagesEEG,001,203346,
AFNE01.JPG,AFNE01.JPG,AFNE01.JPG,AFNE01.JPG,AFNE01.JPG,AFNE01.JPG,,,,,,,,,,,,,5,3,53,4,,,,,,,,,,,AMNE12.jpg,AMSA03.jpg,AMNE17.jpg,AMSA18.jpg,AMNE12.jpg,MN,1,num_8,32,num_2,0.800153377466,,,2018_Mar_16_1215,60.0114911633,FEMA4ImagesEEG,001,203346,
AFNE01.JPG,AFNE01.JPG,AFNE01.JPG,AFNE01.JPG,AFNE01.JPG,AFNE01.JPG,,,,,,,,,,,,,5,4,54,2,,,,,,,,,,,AMSA19.jpg,AMSA06.jpg,AMNE08.jpg,AMNE12.jpg,AMSA19.jpg,MS,2,num_8,16,num_8,0.600173647981,,,2018_Mar_16_1215,60.0114911633,FEMA4ImagesEEG,001,203346,
AFNE01.JPG,AFNE01.JPG,AFNE01.JPG,AFNE01.JPG,AFNE01.JPG,AFNE01.JPG,,,,,,,,,,,,,5,5,55,8,,,,,,,,,,,AMNE06.jpg,AMSA10.jpg,AMSA14.jpg,AMNE07.jpg,AMNE06.jpg,MN,1,num_8,32,num_2,0.600154082756,,,2018_Mar_16_1215,60.0114911633,FEMA4ImagesEEG,001,203346,
AFNE01.JPG,AFNE01.JPG,AFNE01.JPG,AFNE01.JPG,AFNE01.JPG,AFNE01.JPG,,,,,,,,,,,,,5,6,56,3,,,,,,,,,,,AMNE14.jpg,AMSA18.jpg,AMNE06.jpg,AMSA12.jpg,AMNE14.jpg,MN,1,num_8,16,num_8,0.533392926678,,,2018_Mar_16_1215,60.0114911633,FEMA4ImagesEEG,001,203346,
AFNE01.JPG,AFNE01.JPG,AFNE01.JPG,AFNE01.JPG,AFNE01.JPG,AFNE01.JPG,,,,,,,,,,,,,5,7,57,7,,,,,,,,,,,AMSA07.jpg,AMNE13.jpg,AMNE01.jpg,AMSA01.jpg,AMNE13.jpg,MN,1,num_6,32,num_2,1.11678166734,,,2018_Mar_16_1215,60.0114911633,FEMA4ImagesEEG,001,203346,
AFNE01.JPG,AFNE01.JPG,AFNE01.JPG,AFNE01.JPG,AFNE01.JPG,AFNE01.JPG,,,,,,,,,,,,,5,8,58,5,,,,,,,,,,,AMSA03.jpg,AMNE18.jpg,AMSA01.jpg,AMNE10.jpg,AMSA03.jpg,MS,2,num_8,32,num_2,0.950158781838,,,2018_Mar_16_1215,60.0114911633,FEMA4ImagesEEG,001,203346,
AFNE01.JPG,AFNE01.JPG,AFNE01.JPG,AFNE01.JPG,AFNE01.JPG,AFNE01.JPG,,,,,,,,,,,,,5,9,59,1,,,,,,,,,,,AMNE16.jpg,AMSA04.jpg,AMNE03.jpg,AMSA03.jpg,AMSA04.jpg,MS,2,num_6,16,num_6,0.700176182203,,,2018_Mar_16_1215,60.0114911633,FEMA4ImagesEEG,001,203346,
,,,,,,,,,,,,,,,,,,,,,,,,,,,,,,,,,,,,,,,,,,,space,14.832631717,2018_Mar_16_1215,60.0114911633,FEMA4ImagesEEG,001,203346,
AFNE01.JPG,AFNE01.JPG,AFNE01.JPG,AFNE01.JPG,AFNE01.JPG,AFNE01.JPG,,,,,,,,,,,,,,,,,0,0,0,0,,,,,,,AFNE08.jpg,AFNE04.jpg,AFSA15.jpg,AFSA05.jpg,AFSA05.jpg,FS,4,num_4,16,num_4,0.650251571555,,,2018_Mar_16_1215,60.0114911633,FEMA4ImagesEEG,001,203346,
AFNE01.JPG,AFNE01.JPG,AFNE01.JPG,AFNE01.JPG,AFNE01.JPG,AFNE01.JPG,,,,,,,,,,,,,,,,,0,1,1,4,,,,,,,AFSA20.jpg,AFNE04.jpg,AFNE02.jpg,AFSA19.jpg,AFNE02.jpg,FN,3,num_2,16,num_2,1.20010610018,,,2018_Mar_16_1215,60.0114911633,FEMA4ImagesEEG,001,203346,
AFNE01.JPG,AFNE01.JPG,AFNE01.JPG,AFNE01.JPG,AFNE01.JPG,AFNE01.JPG,,,,,,,,,,,,,,,,,0,2,2,9,,,,,,,AFNE19.jpg,AFSA16.jpg,AFNE15.jpg,AFSA14.jpg,AFNE19.jpg,FN,3,num_8,32,num_6,0.550177192315,,,2018_Mar_16_1215,60.0114911633,FEMA4ImagesEEG,001,203346,
AFNE01.JPG,AFNE01.JPG,AFNE01.JPG,AFNE01.JPG,AFNE01.JPG,AFNE01.JPG,,,,,,,,,,,,,,,,,0,3,3,1,,,,,,,AFSA08.jpg,AFNE05.jpg,AFNE13.jpg,AFSA12.jpg,AFSA08.jpg,FS,4,num_8,32,num_4,0.966738736723,,,2018_Mar_16_1215,60.0114911633,FEMA4ImagesEEG,001,203346,
AFNE01.JPG,AFNE01.JPG,AFNE01.JPG,AFNE01.JPG,AFNE01.JPG,AFNE01.JPG,,,,,,,,,,,,,,,,,0,4,4,5,,,,,,,AFNE13.jpg,AFSA17.jpg,AFNE01.jpg,AFSA01.jpg,AFNE01.jpg,FN,3,num_2,32,num_4,0.533454508521,,,2018_Mar_16_1215,60.0114911633,FEMA4ImagesEEG,001,203346,
AFNE01.JPG,AFNE01.JPG,AFNE01.JPG,AFNE01.JPG,AFNE01.JPG,AFNE01.JPG,,,,,,,,,,,,,,,,,0,5,5,6,,,,,,,AFNE03.jpg,AFSA13.jpg,AFNE14.jpg,AFSA12.jpg,AFNE14.jpg,FN,3,num_2,16,num_2,1.03344697086,,,2018_Mar_16_1215,60.0114911633,FEMA4ImagesEEG,001,203346,
AFNE01.JPG,AFNE01.JPG,AFNE01.JPG,AFNE01.JPG,AFNE01.JPG,AFNE01.JPG,,,,,,,,,,,,,,,,,0,6,6,3,,,,,,,AFSA01.jpg,AFNE08.jpg,AFSA03.jpg,AFNE02.jpg,AFNE02.jpg,FN,3,num_4,16,num_4,0.450277936179,,,2018_Mar_16_1215,60.0114911633,FEMA4ImagesEEG,001,203346,
AFNE01.JPG,AFNE01.JPG,AFNE01.JPG,AFNE01.JPG,AFNE01.JPG,AFNE01.JPG,,,,,,,,,,,,,,,,,0,7,7,8,,,,,,,AFSA13.jpg,AFNE16.jpg,AFNE01.jpg,AFSA04.jpg,AFSA13.jpg,FS,4,num_8,16,num_8,0.700090865605,,,2018_Mar_16_1215,60.0114911633,FEMA4ImagesEEG,001,203346,
AFNE01.JPG,AFNE01.JPG,AFNE01.JPG,AFNE01.JPG,AFNE01.JPG,AFNE01.JPG,,,,,,,,,,,,,,,,,0,8,8,7,,,,,,,AFSA03.jpg,AFSA12.jpg,AFNE01.jpg,AFNE07.jpg,AFNE01.jpg,FN,3,num_2,16,num_2,1.46672350168,,,2018_Mar_16_1215,60.0114911633,FEMA4ImagesEEG,001,203346,
AFNE01.JPG,AFNE01.JPG,AFNE01.JPG,AFNE01.JPG,AFNE01.JPG,AFNE01.JPG,,,,,,,,,,,,,,,,,0,9,9,2,,,,,,,AFNE15.jpg,AFNE14.jpg,AFSA16.jpg,AFSA01.jpg,AFNE14.jpg,FN,3,num_6,16,num_6,0.75019701384,,,2018_Mar_16_1215,60.0114911633,FEMA4ImagesEEG,001,203346,
AFNE01.JPG,AFNE01.JPG,AFNE01.JPG,AFNE01.JPG,AFNE01.JPG,AFNE01.JPG,,,,,,,,,,,,,,,,,1,0,10,3,,,,,,,AFSA03.jpg,AFNE05.jpg,AFSA02.jpg,AFNE01.jpg,AFSA03.jpg,FS,4,num_8,32,num_2,1.43341957964,,,2018_Mar_16_1215,60.0114911633,FEMA4ImagesEEG,001,203346,
AFNE01.JPG,AFNE01.JPG,AFNE01.JPG,AFNE01.JPG,AFNE01.JPG,AFNE01.JPG,,,,,,,,,,,,,,,,,1,1,11,0,,,,,,,AFSA06.jpg,AFNE09.jpg,AFSA10.jpg,AFNE06.jpg,AFSA10.jpg,FS,4,num_2,32,num_8,0.733459896874,,,2018_Mar_16_1215,60.0114911633,FEMA4ImagesEEG,001,203346,
AFNE01.JPG,AFNE01.JPG,AFNE01.JPG,AFNE01.JPG,AFNE01.JPG,AFNE01.JPG,,,,,,,,,,,,,,,,,1,2,12,6,,,,,,,AFNE09.jpg,AFSA01.jpg,AFSA14.jpg,AFNE01.jpg,AFSA01.jpg,FS,4,num_6,16,num_6,0.500160850585,,,2018_Mar_16_1215,60.0114911633,FEMA4ImagesEEG,001,203346,
AFNE01.JPG,AFNE01.JPG,AFNE01.JPG,AFNE01.JPG,AFNE01.JPG,AFNE01.JPG,,,,,,,,,,,,,,,,,1,3,13,1,,,,,,,AFSA02.jpg,AFNE09.jpg,AFNE04.jpg,AFSA19.jpg,AFNE04.jpg,FN,3,num_2,32,num_6,0.750155959278,,,2018_Mar_16_1215,60.0114911633,FEMA4ImagesEEG,001,203346,
AFNE01.JPG,AFNE01.JPG,AFNE01.JPG,AFNE01.JPG,AFNE01.JPG,AFNE01.JPG,,,,,,,,,,,,,,,,,1,4,14,7,,,,,,,AFSA13.jpg,AFNE19.jpg,AFSA18.jpg,AFNE13.jpg,AFNE19.jpg,FN,3,num_6,32,num_4,0.683447083458,,,2018_Mar_16_1215,60.0114911633,FEMA4ImagesEEG,001,203346,
AFNE01.JPG,AFNE01.JPG,AFNE01.JPG,AFNE01.JPG,AFNE01.JPG,AFNE01.JPG,,,,,,,,,,,,,,,,,1,5,15,4,,,,,,,AFSA03.jpg,AFNE13.jpg,AFNE17.jpg,AFSA02.jpg,AFNE17.jpg,FN,3,num_2,16,num_2,1.0167714362,,,2018_Mar_16_1215,60.0114911633,FEMA4ImagesEEG,001,203346,
AFNE01.JPG,AFNE01.JPG,AFNE01.JPG,AFNE01.JPG,AFNE01.JPG,AFNE01.JPG,,,,,,,,,,,,,,,,,1,6,16,8,,,,,,,AFNE01.jpg,AFSA01.jpg,AFSA11.jpg,AFNE12.jpg,AFNE12.jpg,FN,3,num_4,16,num_4,0.45015188586,,,2018_Mar_16_1215,60.0114911633,FEMA4ImagesEEG,001,203346,
AFNE01.JPG,AFNE01.JPG,AFNE01.JPG,AFNE01.JPG,AFNE01.JPG,AFNE01.JPG,,,,,,,,,,,,,,,,,1,7,17,9,,,,,,,AFNE07.jpg,AFNE09.jpg,AFSA14.jpg,AFSA19.jpg,AFSA19.jpg,FS,4,num_4,16,num_4,0.933175337035,,,2018_Mar_16_1215,60.0114911633,FEMA4ImagesEEG,001,203346,
AFNE01.JPG,AFNE01.JPG,AFNE01.JPG,AFNE01.JPG,AFNE01.JPG,AFNE01.JPG,,,,,,,,,,,,,,,,,1,8,18,5,,,,,,,AFSA08.jpg,AFNE02.jpg,AFSA10.jpg,AFNE17.jpg,AFNE17.jpg,FN,3,num_4,16,num_4,1.35010027885,,,2018_Mar_16_1215,60.0114911633,FEMA4ImagesEEG,001,203346,
AFNE01.JPG,AFNE01.JPG,AFNE01.JPG,AFNE01.JPG,AFNE01.JPG,AFNE01.JPG,,,,,,,,,,,,,,,,,1,9,19,2,,,,,,,AFNE12.jpg,AFSA06.jpg,AFNE09.jpg,AFSA05.jpg,AFSA06.jpg,FS,4,num_6,16,num_6,0.633551660459,,,2018_Mar_16_1215,60.0114911633,FEMA4ImagesEEG,001,203346,
AFNE01.JPG,AFNE01.JPG,AFNE01.JPG,AFNE01.JPG,AFNE01.JPG,AFNE01.JPG,,,,,,,,,,,,,,,,,2,0,20,2,,,,,,,AFSA19.jpg,AFNE07.jpg,AFSA09.jpg,AFNE17.jpg,AFNE17.jpg,FN,3,num_4,16,num_4,0.733465028927,,,2018_Mar_16_1215,60.0114911633,FEMA4ImagesEEG,001,203346,
AFNE01.JPG,AFNE01.JPG,AFNE01.JPG,AFNE01.JPG,AFNE01.JPG,AFNE01.JPG,,,,,,,,,,,,,,,,,2,1,21,3,,,,,,,AFNE15.jpg,AFSA11.jpg,AFNE18.jpg,AFSA05.jpg,AFSA05.jpg,FS,4,num_4,32,num_6,0.45015573455,,,2018_Mar_16_1215,60.0114911633,FEMA4ImagesEEG,001,203346,
AFNE01.JPG,AFNE01.JPG,AFNE01.JPG,AFNE01.JPG,AFNE01.JPG,AFNE01.JPG,,,,,,,,,,,,,,,,,2,2,22,0,,,,,,,AFNE02.jpg,AFNE09.jpg,AFSA01.jpg,AFSA15.jpg,AFNE09.jpg,FN,3,num_6,16,num_6,0.766767025925,,,2018_Mar_16_1215,60.0114911633,FEMA4ImagesEEG,001,203346,
AFNE01.JPG,AFNE01.JPG,AFNE01.JPG,AFNE01.JPG,AFNE01.JPG,AFNE01.JPG,,,,,,,,,,,,,,,,,2,3,23,1,,,,,,,AFSA10.jpg,AFNE07.jpg,AFSA14.jpg,AFNE15.jpg,AFNE15.jpg,FN,3,num_4,32,num_2,0.433522536885,,,2018_Mar_16_1215,60.0114911633,FEMA4ImagesEEG,001,203346,
AFNE01.JPG,AFNE01.JPG,AFNE01.JPG,AFNE01.JPG,AFNE01.JPG,AFNE01.JPG,,,,,,,,,,,,,,,,,2,4,24,6,,,,,,,AFNE13.jpg,AFNE02.jpg,AFSA09.jpg,AFSA06.jpg,AFSA09.jpg,FS,4,num_2,32,num_6,0.650198007934,,,2018_Mar_16_1215,60.0114911633,FEMA4ImagesEEG,001,203346,
AFNE01.JPG,AFNE01.JPG,AFNE01.JPG,AFNE01.JPG,AFNE01.JPG,AFNE01.JPG,,,,,,,,,,,,,,,,,2,5,25,9,,,,,,,AFNE16.jpg,AFSA12.jpg,AFSA08.jpg,AFNE01.jpg,AFNE01.jpg,FN,3,num_4,16,num_4,0.93345758738,,,2018_Mar_16_1215,60.0114911633,FEMA4ImagesEEG,001,203346,
AFNE01.JPG,AFNE01.JPG,AFNE01.JPG,AFNE01.JPG,AFNE01.JPG,AFNE01.JPG,,,,,,,,,,,,,,,,,2,6,26,7,,,,,,,AFNE20.jpg,AFSA16.jpg,AFNE16.jpg,AFSA20.jpg,AFNE16.jpg,FN,3,num_2,32,num_8,0.950123821385,,,2018_Mar_16_1215,60.0114911633,FEMA4ImagesEEG,001,203346,
AFNE01.JPG,AFNE01.JPG,AFNE01.JPG,AFNE01.JPG,AFNE01.JPG,AFNE01.JPG,,,,,,,,,,,,,,,,,2,7,27,4,,,,,,,AFNE05.jpg,AFSA02.jpg,AFSA16.jpg,AFNE11.jpg,AFNE11.jpg,FN,3,num_4,16,num_4,0.73350768676,,,2018_Mar_16_1215,60.0114911633,FEMA4ImagesEEG,001,203346,
AFNE01.JPG,AFNE01.JPG,AFNE01.JPG,AFNE01.JPG,AFNE01.JPG,AFNE01.JPG,,,,,,,,,,,,,,,,,2,8,28,5,,,,,,,AFSA04.jpg,AFNE06.jpg,AFNE02.jpg,AFSA19.jpg,AFNE02.jpg,FN,3,num_2,16,num_2,0.866811576299,,,2018_Mar_16_1215,60.0114911633,FEMA4ImagesEEG,001,203346,
AFNE01.JPG,AFNE01.JPG,AFNE01.JPG,AFNE01.JPG,AFNE01.JPG,AFNE01.JPG,,,,,,,,,,,,,,,,,2,9,29,8,,,,,,,AFNE10.jpg,AFNE09.jpg,AFSA16.jpg,AFSA09.jpg,AFSA16.jpg,FS,4,num_2,16,num_2,0.583494264167,,,2018_Mar_16_1215,60.0114911633,FEMA4ImagesEEG,001,203346,
AFNE01.JPG,AFNE01.JPG,AFNE01.JPG,AFNE01.JPG,AFNE01.JPG,AFNE01.JPG,,,,,,,,,,,,,,,,,3,0,30,0,,,,,,,AFSA10.jpg,AFSA12.jpg,AFNE10.jpg,AFNE04.jpg,AFSA10.jpg,FS,4,num_8,32,num_4,1.10013852734,,,2018_Mar_16_1215,60.0114911633,FEMA4ImagesEEG,001,203346,
AFNE01.JPG,AFNE01.JPG,AFNE01.JPG,AFNE01.JPG,AFNE01.JPG,AFNE01.JPG,,,,,,,,,,,,,,,,,3,1,31,9,,,,,,,AFNE17.jpg,AFNE07.jpg,AFSA17.jpg,AFSA06.jpg,AFSA06.jpg,FS,4,num_4,32,num_2,0.850025066175,,,2018_Mar_16_1215,60.0114911633,FEMA4ImagesEEG,001,203346,
AFNE01.JPG,AFNE01.JPG,AFNE01.JPG,AFNE01.JPG,AFNE01.JPG,AFNE01.JPG,,,,,,,,,,,,,,,,,3,2,32,5,,,,,,,AFSA07.jpg,AFNE11.jpg,AFSA20.jpg,AFNE02.jpg,AFNE02.jpg,FN,3,num_4,32,num_6,0.916774354875,,,2018_Mar_16_1215,60.0114911633,FEMA4ImagesEEG,001,203346,
AFNE01.JPG,AFNE01.JPG,AFNE01.JPG,AFNE01.JPG,AFNE01.JPG,AFNE01.JPG,,,,,,,,,,,,,,,,,3,3,33,8,,,,,,,AFSA01.jpg,AFNE07.jpg,AFSA19.jpg,AFNE03.jpg,AFNE07.jpg,FN,3,num_6,16,num_6,0.600165950134,,,2018_Mar_16_1215,60.0114911633,FEMA4ImagesEEG,001,203346,
AFNE01.JPG,AFNE01.JPG,AFNE01.JPG,AFNE01.JPG,AFNE01.JPG,AFNE01.JPG,,,,,,,,,,,,,,,,,3,4,34,6,,,,,,,AFNE10.jpg,AFSA02.jpg,AFSA06.jpg,AFNE01.jpg,AFSA02.jpg,FS,4,num_6,16,num_6,1.26677231817,,,2018_Mar_16_1215,60.0114911633,FEMA4ImagesEEG,001,203346,
AFNE01.JPG,AFNE01.JPG,AFNE01.JPG,AFNE01.JPG,AFNE01.JPG,AFNE01.JPG,,,,,,,,,,,,,,,,,3,5,35,4,,,,,,,AFSA16.jpg,AFNE20.jpg,AFNE16.jpg,AFSA01.jpg,AFNE20.jpg,FN,3,num_6,16,num_6,1.23341804044,,,2018_Mar_16_1215,60.0114911633,FEMA4ImagesEEG,001,203346,
AFNE01.JPG,AFNE01.JPG,AFNE01.JPG,AFNE01.JPG,AFNE01.JPG,AFNE01.JPG,,,,,,,,,,,,,,,,,3,6,36,1,,,,,,,AFNE03.jpg,AFNE16.jpg,AFSA09.jpg,AFSA07.jpg,AFNE03.jpg,FN,3,num_8,16,num_8,1.01674385276,,,2018_Mar_16_1215,60.0114911633,FEMA4ImagesEEG,001,203346,
AFNE01.JPG,AFNE01.JPG,AFNE01.JPG,AFNE01.JPG,AFNE01.JPG,AFNE01.JPG,,,,,,,,,,,,,,,,,3,7,37,2,,,,,,,AFSA14.jpg,AFSA06.jpg,AFNE12.jpg,AFNE01.jpg,AFSA14.jpg,FS,4,num_8,32,num_6,1.25010319753,,,2018_Mar_16_1215,60.0114911633,FEMA4ImagesEEG,001,203346,
AFNE01.JPG,AFNE01.JPG,AFNE01.JPG,AFNE01.JPG,AFNE01.JPG,AFNE01.JPG,,,,,,,,,,,,,,,,,3,8,38,3,,,,,,,AFSA01.jpg,AFNE13.jpg,AFNE17.jpg,AFSA17.jpg,AFSA17.jpg,FS,4,num_4,16,num_4,0.833461789414,,,2018_Mar_16_1215,60.0114911633,FEMA4ImagesEEG,001,203346,
AFNE01.JPG,AFNE01.JPG,AFNE01.JPG,AFNE01.JPG,AFNE01.JPG,AFNE01.JPG,,,,,,,,,,,,,,,,,3,9,39,7,,,,,,,AFSA18.jpg,AFSA14.jpg,AFNE10.jpg,AFNE11.jpg,AFSA18.jpg,FS,4,num_8,32,num_6,0.566822898574,,,2018_Mar_16_1215,60.0114911633,FEMA4ImagesEEG,001,203346,
AFNE01.JPG,AFNE01.JPG,AFNE01.JPG,AFNE01.JPG,AFNE01.JPG,AFNE01.JPG,,,,,,,,,,,,,,,,,4,0,40,9,,,,,,,AFSA09.jpg,AFSA19.jpg,AFNE08.jpg,AFNE18.jpg,AFNE08.jpg,FN,3,num_2,32,num_8,1.00010039145,,,2018_Mar_16_1215,60.0114911633,FEMA4ImagesEEG,001,203346,
AFNE01.JPG,AFNE01.JPG,AFNE01.JPG,AFNE01.JPG,AFNE01.JPG,AFNE01.JPG,,,,,,,,,,,,,,,,,4,1,41,4,,,,,,,AFSA15.jpg,AFNE10.jpg,AFSA11.jpg,AFNE03.jpg,AFNE10.jpg,FN,3,num_6,32,num_2,0.866814142559,,,2018_Mar_16_1215,60.0114911633,FEMA4ImagesEEG,001,203346,
AFNE01.JPG,AFNE01.JPG,AFNE01.JPG,AFNE01.JPG,AFNE01.JPG,AFNE01.JPG,,,,,,,,,,,,,,,,,4,2,42,3,,,,,,,AFSA13.jpg,AFSA12.jpg,AFNE17.jpg,AFNE20.jpg,AFNE20.jpg,FN,3,num_4,16,num_4,0.650147652254,,,2018_Mar_16_1215,60.0114911633,FEMA4ImagesEEG,001,203346,
AFNE01.JPG,AFNE01.JPG,AFNE01.JPG,AFNE01.JPG,AFNE01.JPG,AFNE01.JPG,,,,,,,,,,,,,,,,,4,3,43,7,,,,,,,AFSA10.jpg,AFSA16.jpg,AFNE08.jpg,AFNE20.jpg,AFNE20.jpg,FN,3,num_4,32,num_6,1.36673251446,,,2018_Mar_16_1215,60.0114911633,FEMA4ImagesEEG,001,203346,
AFNE01.JPG,AFNE01.JPG,AFNE01.JPG,AFNE01.JPG,AFNE01.JPG,AFNE01.JPG,,,,,,,,,,,,,,,,,4,4,44,1,,,,,,,AFNE08.jpg,AFSA16.jpg,AFNE17.jpg,AFSA02.jpg,AFNE08.jpg,FN,3,num_8,32,num_4,0.73346085893,,,2018_Mar_16_1215,60.0114911633,FEMA4ImagesEEG,001,203346,
AFNE01.JPG,AFNE01.JPG,AFNE01.JPG,AFNE01.JPG,AFNE01.JPG,AFNE01.JPG,,,,,,,,,,,,,,,,,4,5,45,6,,,,,,,AFSA20.jpg,AFSA01.jpg,AFNE08.jpg,AFNE01.jpg,AFNE01.jpg,FN,3,num_4,32,num_2,1.03357558744,,,2018_Mar_16_1215,60.0114911633,FEMA4ImagesEEG,001,203346,
AFNE01.JPG,AFNE01.JPG,AFNE01.JPG,AFNE01.JPG,AFNE01.JPG,AFNE01.JPG,,,,,,,,,,,,,,,,,4,6,46,8,,,,,,,AFNE11.jpg,AFSA10.jpg,AFNE14.jpg,AFSA03.jpg,AFNE11.jpg,FN,3,num_8,16,num_8,0.700133203063,,,2018_Mar_16_1215,60.0114911633,FEMA4ImagesEEG,001,203346,
AFNE01.JPG,AFNE01.JPG,AFNE01.JPG,AFNE01.JPG,AFNE01.JPG,AFNE01.JPG,,,,,,,,,,,,,,,,,4,7,47,0,,,,,,,AFSA16.jpg,AFSA04.jpg,AFNE01.jpg,AFNE16.jpg,AFNE16.jpg,FN,3,num_4,32,num_2,0.750175203662,,,2018_Mar_16_1215,60.0114911633,FEMA4ImagesEEG,001,203346,
AFNE01.JPG,AFNE01.JPG,AFNE01.JPG,AFNE01.JPG,AFNE01.JPG,AFNE01.JPG,,,,,,,,,,,,,,,,,4,8,48,2,,,,,,,AFNE16.jpg,AFNE02.jpg,AFSA19.jpg,AFSA20.jpg,AFNE02.jpg,FN,3,num_6,32,num_4,0.750152110588,,,2018_Mar_16_1215,60.0114911633,FEMA4ImagesEEG,001,203346,
AFNE01.JPG,AFNE01.JPG,AFNE01.JPG,AFNE01.JPG,AFNE01.JPG,AFNE01.JPG,,,,,,,,,,,,,,,,,4,9,49,5,,,,,,,AFSA05.jpg,AFNE15.jpg,AFSA11.jpg,AFNE12.jpg,AFSA05.jpg,FS,4,num_8,16,num_8,0.650131615344,,,2018_Mar_16_1215,60.0114911633,FEMA4ImagesEEG,001,203346,
AFNE01.JPG,AFNE01.JPG,AFNE01.JPG,AFNE01.JPG,AFNE01.JPG,AFNE01.JPG,,,,,,,,,,,,,,,,,5,0,50,1,,,,,,,AFNE20.jpg,AFNE12.jpg,AFSA15.jpg,AFSA20.jpg,AFNE20.jpg,FN,3,num_8,16,num_8,0.750113300979,,,2018_Mar_16_1215,60.0114911633,FEMA4ImagesEEG,001,203346,
AFNE01.JPG,AFNE01.JPG,AFNE01.JPG,AFNE01.JPG,AFNE01.JPG,AFNE01.JPG,,,,,,,,,,,,,,,,,5,1,51,6,,,,,,,AFNE09.jpg,AFSA14.jpg,AFNE11.jpg,AFSA13.jpg,AFNE11.jpg,FN,3,num_2,16,num_2,0.533572219778,,,2018_Mar_16_1215,60.0114911633,FEMA4ImagesEEG,001,203346,
AFNE01.JPG,AFNE01.JPG,AFNE01.JPG,AFNE01.JPG,AFNE01.JPG,AFNE01.JPG,,,,,,,,,,,,,,,,,5,2,52,3,,,,,,,AFSA08.jpg,AFSA10.jpg,AFNE14.jpg,AFNE09.jpg,AFNE09.jpg,FN,3,num_4,16,num_4,0.583489132114,,,2018_Mar_16_1215,60.0114911633,FEMA4ImagesEEG,001,203346,
AFNE01.JPG,AFNE01.JPG,AFNE01.JPG,AFNE01.JPG,AFNE01.JPG,AFNE01.JPG,,,,,,,,,,,,,,,,,5,3,53,8,,,,,,,AFNE14.jpg,AFNE18.jpg,AFSA06.jpg,AFSA16.jpg,AFSA06.jpg,FS,4,num_2,32,num_4,0.700178747531,,,2018_Mar_16_1215,60.0114911633,FEMA4ImagesEEG,001,203346,
AFNE01.JPG,AFNE01.JPG,AFNE01.JPG,AFNE01.JPG,AFNE01.JPG,AFNE01.JPG,,,,,,,,,,,,,,,,,5,4,54,7,,,,,,,AFNE19.jpg,AFNE05.jpg,AFSA08.jpg,AFSA06.jpg,AFNE19.jpg,FN,3,num_8,32,num_6,0.616930330172,,,2018_Mar_16_1215,60.0114911633,FEMA4ImagesEEG,001,203346,
AFNE01.JPG,AFNE01.JPG,AFNE01.JPG,AFNE01.JPG,AFNE01.JPG,AFNE01.JPG,,,,,,,,,,,,,,,,,5,5,55,0,,,,,,,AFSA16.jpg,AFSA06.jpg,AFNE09.jpg,AFNE06.jpg,AFNE09.jpg,FN,3,num_2,16,num_2,0.783484577667,,,2018_Mar_16_1215,60.0114911633,FEMA4ImagesEEG,001,203346,
AFNE01.JPG,AFNE01.JPG,AFNE01.JPG,AFNE01.JPG,AFNE01.JPG,AFNE01.JPG,,,,,,,,,,,,,,,,,5,6,56,4,,,,,,,AFSA01.jpg,AFNE03.jpg,AFNE18.jpg,AFSA02.jpg,AFNE03.jpg,FN,3,num_6,16,num_6,0.733451557346,,,2018_Mar_16_1215,60.0114911633,FEMA4ImagesEEG,001,203346,
AFNE01.JPG,AFNE01.JPG,AFNE01.JPG,AFNE01.JPG,AFNE01.JPG,AFNE01.JPG,,,,,,,,,,,,,,,,,5,7,57,2,,,,,,,AFSA13.jpg,AFNE07.jpg,AFNE03.jpg,AFSA15.jpg,AFSA13.jpg,FS,4,num_8,16,num_8,0.800160433631,,,2018_Mar_16_1215,60.0114911633,FEMA4ImagesEEG,001,203346,
AFNE01.JPG,AFNE01.JPG,AFNE01.JPG,AFNE01.JPG,AFNE01.JPG,AFNE01.JPG,,,,,,,,,,,,,,,,,5,8,58,9,,,,,,,AFSA10.jpg,AFSA18.jpg,AFNE04.jpg,AFNE02.jpg,AFNE02.jpg,FN,3,num_4,16,num_4,0.933486133348,,,2018_Mar_16_1215,60.0114911633,FEMA4ImagesEEG,001,203346,
AFNE01.JPG,AFNE01.JPG,AFNE01.JPG,AFNE01.JPG,AFNE01.JPG,AFNE01.JPG,,,,,,,,,,,,,,,,,5,9,59,5,,,,,,,AFNE14.jpg,AFSA01.jpg,AFNE01.jpg,AFSA03.jpg,AFSA03.jpg,FS,4,num_4,16,num_4,0.900172589347,,,2018_Mar_16_1215,60.0114911633,FEMA4ImagesEEG,001,203346,
,,,,,,,,,,,,,,,,,,,,,,,,,,,,,,,,,,,,,,,,,,,space,10.6826943089,2018_Mar_16_1215,60.0114911633,FEMA4ImagesEEG,001,203346,
AFNE01.JPG,AFNE01.JPG,AFNE01.JPG,AFNE01.JPG,AFNE01.JPG,AFNE01.JPG,,,,,,,,,,,,,,,,,,,,,0,0,0,0,,,AMSA17.jpg,AMNE04.jpg,AMSA16.jpg,AMNE14.jpg,AMNE04.jpg,MN,1,num_6,16,num_6,0.63353530271,,,2018_Mar_16_1215,60.0114911633,FEMA4ImagesEEG,001,203346,
AFNE01.JPG,AFNE01.JPG,AFNE01.JPG,AFNE01.JPG,AFNE01.JPG,AFNE01.JPG,,,,,,,,,,,,,,,,,,,,,0,1,1,6,,,AMSA18.jpg,AMNE13.jpg,AMNE12.jpg,AMSA11.jpg,AMNE13.jpg,MN,1,num_6,16,num_6,0.533492675982,,,2018_Mar_16_1215,60.0114911633,FEMA4ImagesEEG,001,203346,
AFNE01.JPG,AFNE01.JPG,AFNE01.JPG,AFNE01.JPG,AFNE01.JPG,AFNE01.JPG,,,,,,,,,,,,,,,,,,,,,0,2,2,1,,,AMSA13.jpg,AMNE16.jpg,AMNE18.jpg,AMSA17.jpg,AMSA17.jpg,MS,2,num_4,16,num_4,0.583523450885,,,2018_Mar_16_1215,60.0114911633,FEMA4ImagesEEG,001,203346,
AFNE01.JPG,AFNE01.JPG,AFNE01.JPG,AFNE01.JPG,AFNE01.JPG,AFNE01.JPG,,,,,,,,,,,,,,,,,,,,,0,3,3,8,,,AMSA09.jpg,AMNE18.jpg,AMSA16.jpg,AMNE19.jpg,AMSA09.jpg,MS,2,num_8,32,num_6,0.63357218774,,,2018_Mar_16_1215,60.0114911633,FEMA4ImagesEEG,001,203346,
AFNE01.JPG,AFNE01.JPG,AFNE01.JPG,AFNE01.JPG,AFNE01.JPG,AFNE01.JPG,,,,,,,,,,,,,,,,,,,,,0,4,4,7,,,AMNE09.jpg,AMNE16.jpg,AMSA08.jpg,AMSA06.jpg,AMNE16.jpg,MN,1,num_6,32,num_4,0.750138318632,,,2018_Mar_16_1215,60.0114911633,FEMA4ImagesEEG,001,203346,
AFNE01.JPG,AFNE01.JPG,AFNE01.JPG,AFNE01.JPG,AFNE01.JPG,AFNE01.JPG,,,,,,,,,,,,,,,,,,,,,0,5,5,3,,,AMNE18.jpg,AMNE10.jpg,AMSA09.jpg,AMSA18.jpg,AMNE18.jpg,MN,1,num_8,32,num_2,0.783428769559,,,2018_Mar_16_1215,60.0114911633,FEMA4ImagesEEG,001,203346,
AFNE01.JPG,AFNE01.JPG,AFNE01.JPG,AFNE01.JPG,AFNE01.JPG,AFNE01.JPG,,,,,,,,,,,,,,,,,,,,,0,6,6,5,,,AMNE01.jpg,AMSA13.jpg,AMNE04.jpg,AMSA08.jpg,AMNE01.jpg,MN,1,num_8,32,num_6,0.950152046513,,,2018_Mar_16_1215,60.0114911633,FEMA4ImagesEEG,001,203346,
AFNE01.JPG,AFNE01.JPG,AFNE01.JPG,AFNE01.JPG,AFNE01.JPG,AFNE01.JPG,,,,,,,,,,,,,,,,,,,,,0,7,7,9,,,AMNE19.jpg,AMSA07.jpg,AMSA12.jpg,AMNE06.jpg,AMSA07.jpg,MS,2,num_6,16,num_6,0.433473143727,,,2018_Mar_16_1215,60.0114911633,FEMA4ImagesEEG,001,203346,
AFNE01.JPG,AFNE01.JPG,AFNE01.JPG,AFNE01.JPG,AFNE01.JPG,AFNE01.JPG,,,,,,,,,,,,,,,,,,,,,0,8,8,2,,,AMSA12.jpg,AMNE18.jpg,AMNE20.jpg,AMSA18.jpg,AMSA12.jpg,MS,2,num_8,32,num_4,0.567237613723,,,2018_Mar_16_1215,60.0114911633,FEMA4ImagesEEG,001,203346,
AFNE01.JPG,AFNE01.JPG,AFNE01.JPG,AFNE01.JPG,AFNE01.JPG,AFNE01.JPG,,,,,,,,,,,,,,,,,,,,,0,9,9,4,,,AMSA12.jpg,AMNE03.jpg,AMSA02.jpg,AMNE02.jpg,AMSA12.jpg,MS,2,num_8,32,num_2,1.11676402669,,,2018_Mar_16_1215,60.0114911633,FEMA4ImagesEEG,001,203346,
AFNE01.JPG,AFNE01.JPG,AFNE01.JPG,AFNE01.JPG,AFNE01.JPG,AFNE01.JPG,,,,,,,,,,,,,,,,,,,,,1,0,10,9,,,AMNE18.jpg,AMSA01.jpg,AMNE15.jpg,AMSA13.jpg,AMNE15.jpg,MN,1,num_2,32,num_4,0.550222737249,,,2018_Mar_16_1215,60.0114911633,FEMA4ImagesEEG,001,203346,
AFNE01.JPG,AFNE01.JPG,AFNE01.JPG,AFNE01.JPG,AFNE01.JPG,AFNE01.JPG,,,,,,,,,,,,,,,,,,,,,1,1,11,6,,,AMSA20.jpg,AMNE18.jpg,AMNE17.jpg,AMSA02.jpg,AMNE17.jpg,MN,1,num_2,32,num_6,0.633483342826,,,2018_Mar_16_1215,60.0114911633,FEMA4ImagesEEG,001,203346,
AFNE01.JPG,AFNE01.JPG,AFNE01.JPG,AFNE01.JPG,AFNE01.JPG,AFNE01.JPG,,,,,,,,,,,,,,,,,,,,,1,2,12,7,,,AMNE09.jpg,AMSA14.jpg,AMNE07.jpg,AMSA05.jpg,AMSA14.jpg,MS,2,num_6,16,num_6,0.466817798559,,,2018_Mar_16_1215,60.0114911633,FEMA4ImagesEEG,001,203346,
AFNE01.JPG,AFNE01.JPG,AFNE01.JPG,AFNE01.JPG,AFNE01.JPG,AFNE01.JPG,,,,,,,,,,,,,,,,,,,,,1,3,13,1,,,AMNE16.jpg,AMNE17.jpg,AMSA02.jpg,AMSA20.jpg,AMNE16.jpg,MN,1,num_8,32,num_6,0.516850498039,,,2018_Mar_16_1215,60.0114911633,FEMA4ImagesEEG,001,203346,
AFNE01.JPG,AFNE01.JPG,AFNE01.JPG,AFNE01.JPG,AFNE01.JPG,AFNE01.JPG,,,,,,,,,,,,,,,,,,,,,1,4,14,3,,,AMSA06.jpg,AMNE08.jpg,AMNE04.jpg,AMSA10.jpg,AMSA10.jpg,MS,2,num_4,16,num_4,1.5334676588,,,2018_Mar_16_1215,60.0114911633,FEMA4ImagesEEG,001,203346,
AFNE01.JPG,AFNE01.JPG,AFNE01.JPG,AFNE01.JPG,AFNE01.JPG,AFNE01.JPG,,,,,,,,,,,,,,,,,,,,,1,5,15,5,,,AMNE17.jpg,AMNE15.jpg,AMSA09.jpg,AMSA06.jpg,AMSA09.jpg,MS,2,num_2,16,num_2,0.7169274115,,,2018_Mar_16_1215,60.0114911633,FEMA4ImagesEEG,001,203346,
AFNE01.JPG,AFNE01.JPG,AFNE01.JPG,AFNE01.JPG,AFNE01.JPG,AFNE01.JPG,,,,,,,,,,,,,,,,,,,,,1,6,16,0,,,AMNE17.jpg,AMSA01.jpg,AMNE06.jpg,AMSA16.jpg,AMSA01.jpg,MS,2,num_6,16,num_6,0.733466632199,,,2018_Mar_16_1215,60.0114911633,FEMA4ImagesEEG,001,203346,
AFNE01.JPG,AFNE01.JPG,AFNE01.JPG,AFNE01.JPG,AFNE01.JPG,AFNE01.JPG,,,,,,,,,,,,,,,,,,,,,1,7,17,2,,,AMSA07.jpg,AMSA15.jpg,AMNE06.jpg,AMNE12.jpg,AMSA15.jpg,MS,2,num_6,32,num_8,0.833498353604,,,2018_Mar_16_1215,60.0114911633,FEMA4ImagesEEG,001,203346,
AFNE01.JPG,AFNE01.JPG,AFNE01.JPG,AFNE01.JPG,AFNE01.JPG,AFNE01.JPG,,,,,,,,,,,,,,,,,,,,,1,8,18,4,,,AMSA06.jpg,AMNE12.jpg,AMSA14.jpg,AMNE09.jpg,AMSA06.jpg,MS,2,num_8,32,num_6,0.483646967914,,,2018_Mar_16_1215,60.0114911633,FEMA4ImagesEEG,001,203346,
AFNE01.JPG,AFNE01.JPG,AFNE01.JPG,AFNE01.JPG,AFNE01.JPG,AFNE01.JPG,,,,,,,,,,,,,,,,,,,,,1,9,19,8,,,AMNE10.jpg,AMSA15.jpg,AMNE19.jpg,AMSA13.jpg,AMNE19.jpg,MN,1,num_2,32,num_6,0.55025705602,,,2018_Mar_16_1215,60.0114911633,FEMA4ImagesEEG,001,203346,
AFNE01.JPG,AFNE01.JPG,AFNE01.JPG,AFNE01.JPG,AFNE01.JPG,AFNE01.JPG,,,,,,,,,,,,,,,,,,,,,2,0,20,5,,,AMNE15.jpg,AMSA12.jpg,AMNE02.jpg,AMSA15.jpg,AMNE15.jpg,MN,1,num_8,16,num_8,0.750110735185,,,2018_Mar_16_1215,60.0114911633,FEMA4ImagesEEG,001,203346,
AFNE01.JPG,AFNE01.JPG,AFNE01.JPG,AFNE01.JPG,AFNE01.JPG,AFNE01.JPG,,,,,,,,,,,,,,,,,,,,,2,1,21,0,,,AMSA01.jpg,AMNE16.jpg,AMNE10.jpg,AMSA10.jpg,AMSA10.jpg,MS,2,num_4,16,num_4,0.850129947532,,,2018_Mar_16_1215,60.0114911633,FEMA4ImagesEEG,001,203346,
AFNE01.JPG,AFNE01.JPG,AFNE01.JPG,AFNE01.JPG,AFNE01.JPG,AFNE01.JPG,,,,,,,,,,,,,,,,,,,,,2,2,22,2,,,AMSA01.jpg,AMNE11.jpg,AMNE10.jpg,AMSA06.jpg,AMNE10.jpg,MN,1,num_2,32,num_4,0.799963499885,,,2018_Mar_16_1215,60.0114911633,FEMA4ImagesEEG,001,203346,
AFNE01.JPG,AFNE01.JPG,AFNE01.JPG,AFNE01.JPG,AFNE01.JPG,AFNE01.JPG,,,,,,,,,,,,,,,,,,,,,2,3,23,6,,,AMNE09.jpg,AMSA03.jpg,AMSA09.jpg,AMNE05.jpg,AMNE05.jpg,MN,1,num_4,32,num_8,0.833455053624,,,2018_Mar_16_1215,60.0114911633,FEMA4ImagesEEG,001,203346,
AFNE01.JPG,AFNE01.JPG,AFNE01.JPG,AFNE01.JPG,AFNE01.JPG,AFNE01.JPG,,,,,,,,,,,,,,,,,,,,,2,4,24,8,,,AMSA04.jpg,AMNE10.jpg,AMNE05.jpg,AMSA02.jpg,AMNE10.jpg,MN,1,num_6,16,num_6,0.799817563966,,,2018_Mar_16_1215,60.0114911633,FEMA4ImagesEEG,001,203346,
AFNE01.JPG,AFNE01.JPG,AFNE01.JPG,AFNE01.JPG,AFNE01.JPG,AFNE01.JPG,,,,,,,,,,,,,,,,,,,,,2,5,25,3,,,AMNE14.jpg,AMSA07.jpg,AMSA02.jpg,AMNE20.jpg,AMNE14.jpg,MN,1,num_8,32,num_4,0.833448318299,,,2018_Mar_16_1215,60.0114911633,FEMA4ImagesEEG,001,203346,
AFNE01.JPG,AFNE01.JPG,AFNE01.JPG,AFNE01.JPG,AFNE01.JPG,AFNE01.JPG,,,,,,,,,,,,,,,,,,,,,2,6,26,4,,,AMNE09.jpg,AMNE02.jpg,AMSA18.jpg,AMSA19.jpg,AMSA19.jpg,MS,2,num_4,16,num_4,0.916784939356,,,2018_Mar_16_1215,60.0114911633,FEMA4ImagesEEG,001,203346,
AFNE01.JPG,AFNE01.JPG,AFNE01.JPG,AFNE01.JPG,AFNE01.JPG,AFNE01.JPG,,,,,,,,,,,,,,,,,,,,,2,7,27,9,,,AMSA05.jpg,AMNE15.jpg,AMSA19.jpg,AMNE02.jpg,AMSA05.jpg,MS,2,num_8,16,num_8,0.566842784174,,,2018_Mar_16_1215,60.0114911633,FEMA4ImagesEEG,001,203346,
AFNE01.JPG,AFNE01.JPG,AFNE01.JPG,AFNE01.JPG,AFNE01.JPG,AFNE01.JPG,,,,,,,,,,,,,,,,,,,,,2,8,28,7,,,AMSA05.jpg,AMNE16.jpg,AMSA14.jpg,AMNE05.jpg,AMSA05.jpg,MS,2,num_8,32,num_2,0.783488105517,,,2018_Mar_16_1215,60.0114911633,FEMA4ImagesEEG,001,203346,
AFNE01.JPG,AFNE01.JPG,AFNE01.JPG,AFNE01.JPG,AFNE01.JPG,AFNE01.JPG,,,,,,,,,,,,,,,,,,,,,2,9,29,1,,,AMSA09.jpg,AMNE10.jpg,AMSA12.jpg,AMNE15.jpg,AMSA12.jpg,MS,2,num_2,32,num_6,0.850157530978,,,2018_Mar_16_1215,60.0114911633,FEMA4ImagesEEG,001,203346,
AFNE01.JPG,AFNE01.JPG,AFNE01.JPG,AFNE01.JPG,AFNE01.JPG,AFNE01.JPG,,,,,,,,,,,,,,,,,,,,,3,0,30,4,,,AMSA08.jpg,AMNE20.jpg,AMNE19.jpg,AMSA12.jpg,AMNE20.jpg,MN,1,num_6,16,num_6,0.750191560946,,,2018_Mar_16_1215,60.0114911633,FEMA4ImagesEEG,001,203346,
AFNE01.JPG,AFNE01.JPG,AFNE01.JPG,AFNE01.JPG,AFNE01.JPG,AFNE01.JPG,,,,,,,,,,,,,,,,,,,,,3,1,31,9,,,AMNE17.jpg,AMNE14.jpg,AMSA17.jpg,AMSA18.jpg,AMSA18.jpg,MS,2,num_4,32,num_2,0.583477264736,,,2018_Mar_16_1215,60.0114911633,FEMA4ImagesEEG,001,203346,
AFNE01.JPG,AFNE01.JPG,AFNE01.JPG,AFNE01.JPG,AFNE01.JPG,AFNE01.JPG,,,,,,,,,,,,,,,,,,,,,3,2,32,8,,,AMNE07.jpg,AMSA02.jpg,AMNE17.jpg,AMSA11.jpg,AMSA11.jpg,MS,2,num_4,32,num_6,1.00013438985,,,2018_Mar_16_1215,60.0114911633,FEMA4ImagesEEG,001,203346,
AFNE01.JPG,AFNE01.JPG,AFNE01.JPG,AFNE01.JPG,AFNE01.JPG,AFNE01.JPG,,,,,,,,,,,,,,,,,,,,,3,3,33,2,,,AMSA19.jpg,AMNE04.jpg,AMSA05.jpg,AMNE16.jpg,AMNE04.jpg,MN,1,num_6,16,num_6,0.66675230395,,,2018_Mar_16_1215,60.0114911633,FEMA4ImagesEEG,001,203346,
AFNE01.JPG,AFNE01.JPG,AFNE01.JPG,AFNE01.JPG,AFNE01.JPG,AFNE01.JPG,,,,,,,,,,,,,,,,,,,,,3,4,34,6,,,AMNE02.jpg,AMSA03.jpg,AMNE10.jpg,AMSA13.jpg,AMNE02.jpg,MN,1,num_8,16,num_8,0.533477922436,,,2018_Mar_16_1215,60.0114911633,FEMA4ImagesEEG,001,203346,
AFNE01.JPG,AFNE01.JPG,AFNE01.JPG,AFNE01.JPG,AFNE01.JPG,AFNE01.JPG,,,,,,,,,,,,,,,,,,,,,3,5,35,0,,,AMSA14.jpg,AMNE14.jpg,AMNE20.jpg,AMSA03.jpg,AMSA03.jpg,MS,2,num_4,16,num_4,0.800151132047,,,2018_Mar_16_1215,60.0114911633,FEMA4ImagesEEG,001,203346,
AFNE01.JPG,AFNE01.JPG,AFNE01.JPG,AFNE01.JPG,AFNE01.JPG,AFNE01.JPG,,,,,,,,,,,,,,,,,,,,,3,6,36,3,,,AMNE16.jpg,AMSA19.jpg,AMNE19.jpg,AMSA09.jpg,AMNE16.jpg,MN,1,num_8,16,num_8,0.766870945226,,,2018_Mar_16_1215,60.0114911633,FEMA4ImagesEEG,001,203346,
AFNE01.JPG,AFNE01.JPG,AFNE01.JPG,AFNE01.JPG,AFNE01.JPG,AFNE01.JPG,,,,,,,,,,,,,,,,,,,,,3,7,37,1,,,AMNE01.jpg,AMNE06.jpg,AMSA07.jpg,AMSA02.jpg,AMNE06.jpg,MN,1,num_6,16,num_6,0.483483070042,,,2018_Mar_16_1215,60.0114911633,FEMA4ImagesEEG,001,203346,
AFNE01.JPG,AFNE01.JPG,AFNE01.JPG,AFNE01.JPG,AFNE01.JPG,AFNE01.JPG,,,,,,,,,,,,,,,,,,,,,3,8,38,7,,,AMSA07.jpg,AMNE15.jpg,AMNE13.jpg,AMSA06.jpg,AMNE13.jpg,MN,1,num_2,32,num_6,0.650195121299,,,2018_Mar_16_1215,60.0114911633,FEMA4ImagesEEG,001,203346,
