IPosition2,IPosition3,IPosition1,IPosition6,IPosition4,IPosition5,TrialsM1.thisRepN,TrialsM1.thisTrialN,TrialsM1.thisN,TrialsM1.thisIndex,TrialsF1.thisRepN,TrialsF1.thisTrialN,TrialsF1.thisN,TrialsF1.thisIndex,TrialsM2.thisRepN,TrialsM2.thisTrialN,TrialsM2.thisN,TrialsM2.thisIndex,TrialsF2.thisRepN,TrialsF2.thisTrialN,TrialsF2.thisN,TrialsF2.thisIndex,TrialsM3.thisRepN,TrialsM3.thisTrialN,TrialsM3.thisN,TrialsM3.thisIndex,TrialsF3.thisRepN,TrialsF3.thisTrialN,TrialsF3.thisN,TrialsF3.thisIndex,InstrKey_resp.keys,InstrKey_resp.rt,Image0 _Position,Image1 _Position,Image2 _Position,Image3 _Position,Center_image,condition,code,correct_answer,accuracy,Key_Resp.keys,Key_Resp.rt,BreakKey_resp.keys,BreakKey_resp.rt,date,frameRate,expName,session,participant,
,,,,,,,,,,,,,,,,,,,,,,,,,,,,,,space,7.51631326042,,,,,,,,,,,,,,2018_Mar_20_1746,60.0049077263,MAFE4ImagesEEG,001,203329,
AFNE23.JPG,AFNE24.JPG,AFNE22.JPG,AFSA24.JPG,AFSA22.JPG,AFSA23.JPG,0,0,0,8,,,,,,,,,,,,,,,,,,,,,,,AMNE10.jpg,AMSA18.jpg,AMSA16.jpg,AMNE08.jpg,AMNE08.jpg,MN,1,num_4,16,num_4,1.78363724984,,,2018_Mar_20_1746,60.0049077263,MAFE4ImagesEEG,001,203329,
AMSA21.JPG,AMNE22.JPG,AMNE21.JPG,AMSA23.JPG,AMSA22.JPG,AMNE23.JPG,0,1,1,1,,,,,,,,,,,,,,,,,,,,,,,AMSA19.jpg,AMSA02.jpg,AMNE10.jpg,AMNE16.jpg,AMSA19.jpg,MS,2,num_8,16,num_8,0.650184537284,,,2018_Mar_20_1746,60.0049077263,MAFE4ImagesEEG,001,203329,
AMNE23.JPG,AMNE24.JPG,AMNE22.JPG,AMSA24.JPG,AMSA22.JPG,AMSA23.JPG,0,2,2,9,,,,,,,,,,,,,,,,,,,,,,,AMNE14.jpg,AMSA07.jpg,AMSA16.jpg,AMNE06.jpg,AMSA16.jpg,MS,2,num_2,32,num_6,1.46675493382,,,2018_Mar_20_1746,60.0049077263,MAFE4ImagesEEG,001,203329,
AMSA21.JPG,AMNE23.JPG,AMNE21.JPG,AMSA25.JPG,AMNE25.JPG,AMSA23.JPG,0,3,3,5,,,,,,,,,,,,,,,,,,,,,,,AMSA07.jpg,AMNE09.jpg,AMSA09.jpg,AMNE12.jpg,AMNE12.jpg,MN,1,num_4,16,num_4,1.25007689698,,,2018_Mar_20_1746,60.0049077263,MAFE4ImagesEEG,001,203329,
AMSA25.JPG,AMNE24.JPG,AMSA24.JPG,AMNE26.JPG,AMSA21.JPG,AMNE25.JPG,0,4,4,3,,,,,,,,,,,,,,,,,,,,,,,AMNE19.jpg,AMSA06.jpg,AMNE06.jpg,AMSA05.jpg,AMSA05.jpg,MS,2,num_4,16,num_4,0.766729820054,,,2018_Mar_20_1746,60.0049077263,MAFE4ImagesEEG,001,203329,
AFSA25.JPG,AFNE24.JPG,AFSA24.JPG,AFNE21.JPG,AFSA21.JPG,AFNE25.JPG,0,5,5,2,,,,,,,,,,,,,,,,,,,,,,,AMSA17.jpg,AMSA12.jpg,AMNE07.jpg,AMNE13.jpg,AMSA17.jpg,MS,2,num_8,32,num_2,3.26658981759,,,2018_Mar_20_1746,60.0049077263,MAFE4ImagesEEG,001,203329,
AFNE22.JPG,AFSA24.JPG,AFSA22.JPG,AFNE25.JPG,AFNE24.JPG,AFSA25.JPG,0,6,6,6,,,,,,,,,,,,,,,,,,,,,,,AMSA18.jpg,AMNE12.jpg,AMNE09.jpg,AMSA02.jpg,AMNE12.jpg,MN,1,num_6,32,num_2,1.11677108333,,,2018_Mar_20_1746,60.0049077263,MAFE4ImagesEEG,001,203329,
AFSA21.JPG,AFNE23.JPG,AFNE21.JPG,AFSA25.JPG,AFNE25.JPG,AFSA23.JPG,0,7,7,4,,,,,,,,,,,,,,,,,,,,,,,AMNE13.jpg,AMSA09.jpg,AMNE16.jpg,AMSA07.jpg,AMSA09.jpg,MS,2,num_6,16,num_6,0.89987205714,,,2018_Mar_20_1746,60.0049077263,MAFE4ImagesEEG,001,203329,
AFSA21.JPG,AFNE22.JPG,AFNE21.JPG,AFSA23.JPG,AFSA22.JPG,AFNE23.JPG,0,8,8,0,,,,,,,,,,,,,,,,,,,,,,,AMSA17.jpg,AMNE14.jpg,AMSA08.jpg,AMNE03.jpg,AMSA17.jpg,MS,2,num_8,16,num_8,0.966850995552,,,2018_Mar_20_1746,60.0049077263,MAFE4ImagesEEG,001,203329,
AMNE22.JPG,AMSA24.JPG,AMSA22.JPG,AMNE25.JPG,AMNE24.JPG,AMSA25.JPG,0,9,9,7,,,,,,,,,,,,,,,,,,,,,,,AMSA08.jpg,AMNE14.jpg,AMNE02.jpg,AMSA18.jpg,AMSA08.jpg,MS,2,num_8,32,num_6,1.16680153739,,,2018_Mar_20_1746,60.0049077263,MAFE4ImagesEEG,001,203329,
AFSA21.JPG,AFNE23.JPG,AFNE21.JPG,AFSA25.JPG,AFNE25.JPG,AFSA23.JPG,,,,,0,0,0,4,,,,,,,,,,,,,,,,,,,AFNE13.jpg,AFSA15.jpg,AFNE07.jpg,AFSA13.jpg,AFNE13.jpg,FN,3,num_8,16,num_8,1.60011366988,,,2018_Mar_20_1746,60.0049077263,MAFE4ImagesEEG,001,203329,
AMNE23.JPG,AMNE24.JPG,AMNE22.JPG,AMSA24.JPG,AMSA22.JPG,AMSA23.JPG,,,,,0,1,1,9,,,,,,,,,,,,,,,,,,,AFSA20.jpg,AFSA19.jpg,AFNE07.jpg,AFNE04.jpg,AFNE04.jpg,FN,3,num_4,16,num_4,1.11674895231,,,2018_Mar_20_1746,60.0049077263,MAFE4ImagesEEG,001,203329,
AFNE23.JPG,AFNE24.JPG,AFNE22.JPG,AFSA24.JPG,AFSA22.JPG,AFSA23.JPG,,,,,0,2,2,8,,,,,,,,,,,,,,,,,,,AFNE05.jpg,AFSA06.jpg,AFNE20.jpg,AFSA18.jpg,AFNE05.jpg,FN,3,num_8,16,num_8,1.06660239026,,,2018_Mar_20_1746,60.0049077263,MAFE4ImagesEEG,001,203329,
AFNE22.JPG,AFSA24.JPG,AFSA22.JPG,AFNE25.JPG,AFNE24.JPG,AFSA25.JPG,,,,,0,3,3,6,,,,,,,,,,,,,,,,,,,AFNE09.jpg,AFSA01.jpg,AFNE05.jpg,AFSA16.jpg,AFNE05.jpg,FN,3,num_2,32,num_6,0.783489388879,,,2018_Mar_20_1746,60.0049077263,MAFE4ImagesEEG,001,203329,
AMNE22.JPG,AMSA24.JPG,AMSA22.JPG,AMNE25.JPG,AMNE24.JPG,AMSA25.JPG,,,,,0,4,4,7,,,,,,,,,,,,,,,,,,,AFSA02.jpg,AFSA07.jpg,AFNE05.jpg,AFNE12.jpg,AFNE05.jpg,FN,3,num_2,16,num_2,0.733496140223,,,2018_Mar_20_1746,60.0049077263,MAFE4ImagesEEG,001,203329,
AMSA21.JPG,AMNE23.JPG,AMNE21.JPG,AMSA25.JPG,AMNE25.JPG,AMSA23.JPG,,,,,0,5,5,5,,,,,,,,,,,,,,,,,,,AFNE18.jpg,AFSA02.jpg,AFNE09.jpg,AFSA18.jpg,AFSA18.jpg,FS,4,num_4,16,num_4,1.13344341097,,,2018_Mar_20_1746,60.0049077263,MAFE4ImagesEEG,001,203329,
AFSA21.JPG,AFNE22.JPG,AFNE21.JPG,AFSA23.JPG,AFSA22.JPG,AFNE23.JPG,,,,,0,6,6,0,,,,,,,,,,,,,,,,,,,AFNE10.jpg,AFNE02.jpg,AFSA10.jpg,AFSA09.jpg,AFNE10.jpg,FN,3,num_8,32,num_4,1.11672553839,,,2018_Mar_20_1746,60.0049077263,MAFE4ImagesEEG,001,203329,
AMSA21.JPG,AMNE22.JPG,AMNE21.JPG,AMSA23.JPG,AMSA22.JPG,AMNE23.JPG,,,,,0,7,7,1,,,,,,,,,,,,,,,,,,,AFNE07.jpg,AFSA16.jpg,AFSA20.jpg,AFNE10.jpg,AFSA20.jpg,FS,4,num_2,32,num_6,1.0834822366,,,2018_Mar_20_1746,60.0049077263,MAFE4ImagesEEG,001,203329,
AFSA25.JPG,AFNE24.JPG,AFSA24.JPG,AFNE21.JPG,AFSA21.JPG,AFNE25.JPG,,,,,0,8,8,2,,,,,,,,,,,,,,,,,,,AFSA08.jpg,AFSA07.jpg,AFNE09.jpg,AFNE04.jpg,AFNE09.jpg,FN,3,num_2,32,num_8,0.666513032746,,,2018_Mar_20_1746,60.0049077263,MAFE4ImagesEEG,001,203329,
AMSA25.JPG,AMNE24.JPG,AMSA24.JPG,AMNE26.JPG,AMSA21.JPG,AMNE25.JPG,,,,,0,9,9,3,,,,,,,,,,,,,,,,,,,AFNE14.jpg,AFSA10.jpg,AFNE04.jpg,AFSA11.jpg,AFSA11.jpg,FS,4,num_4,16,num_4,0.983489645179,,,2018_Mar_20_1746,60.0049077263,MAFE4ImagesEEG,001,203329,
AMSA21.JPG,AMNE22.JPG,AMNE21.JPG,AMSA23.JPG,AMSA22.JPG,AMNE23.JPG,,,,,,,,,0,0,0,1,,,,,,,,,,,,,,,AMNE06.jpg,AMNE17.jpg,AMSA20.jpg,AMSA14.jpg,AMSA14.jpg,MS,2,num_4,16,num_4,0.916802579537,,,2018_Mar_20_1746,60.0049077263,MAFE4ImagesEEG,001,203329,
AMSA25.JPG,AMNE24.JPG,AMSA24.JPG,AMNE26.JPG,AMSA21.JPG,AMNE25.JPG,,,,,,,,,0,1,1,3,,,,,,,,,,,,,,,AMSA19.jpg,AMSA11.jpg,AMNE16.jpg,AMNE04.jpg,AMSA11.jpg,MS,2,num_6,16,num_6,0.783525311854,,,2018_Mar_20_1746,60.0049077263,MAFE4ImagesEEG,001,203329,
AMNE23.JPG,AMNE24.JPG,AMNE22.JPG,AMSA24.JPG,AMSA22.JPG,AMSA23.JPG,,,,,,,,,0,2,2,9,,,,,,,,,,,,,,,AMSA04.jpg,AMSA19.jpg,AMNE02.jpg,AMNE14.jpg,AMSA19.jpg,MS,2,num_6,16,num_6,0.83384154411,,,2018_Mar_20_1746,60.0049077263,MAFE4ImagesEEG,001,203329,
AFNE22.JPG,AFSA24.JPG,AFSA22.JPG,AFNE25.JPG,AFNE24.JPG,AFSA25.JPG,,,,,,,,,0,3,3,6,,,,,,,,,,,,,,,AMNE15.jpg,AMSA03.jpg,AMSA16.jpg,AMNE13.jpg,AMSA16.jpg,MS,2,num_2,32,num_6,0.916790070944,,,2018_Mar_20_1746,60.0049077263,MAFE4ImagesEEG,001,203329,
AFSA25.JPG,AFNE24.JPG,AFSA24.JPG,AFNE21.JPG,AFSA21.JPG,AFNE25.JPG,,,,,,,,,0,4,4,2,,,,,,,,,,,,,,,AMNE13.jpg,AMNE15.jpg,AMSA04.jpg,AMSA10.jpg,AMNE15.jpg,MN,1,num_6,32,num_8,1.31671296572,,,2018_Mar_20_1746,60.0049077263,MAFE4ImagesEEG,001,203329,
AMNE22.JPG,AMSA24.JPG,AMSA22.JPG,AMNE25.JPG,AMNE24.JPG,AMSA25.JPG,,,,,,,,,0,5,5,7,,,,,,,,,,,,,,,AMNE02.jpg,AMSA14.jpg,AMNE01.jpg,AMSA02.jpg,AMNE01.jpg,MN,1,num_2,16,num_2,2.58332138602,,,2018_Mar_20_1746,60.0049077263,MAFE4ImagesEEG,001,203329,
AFSA21.JPG,AFNE23.JPG,AFNE21.JPG,AFSA25.JPG,AFNE25.JPG,AFSA23.JPG,,,,,,,,,0,6,6,4,,,,,,,,,,,,,,,AMSA10.jpg,AMNE11.jpg,AMNE12.jpg,AMSA02.jpg,AMSA02.jpg,MS,2,num_4,32,num_8,2.01665757364,,,2018_Mar_20_1746,60.0049077263,MAFE4ImagesEEG,001,203329,
AFSA21.JPG,AFNE22.JPG,AFNE21.JPG,AFSA23.JPG,AFSA22.JPG,AFNE23.JPG,,,,,,,,,0,7,7,0,,,,,,,,,,,,,,,AMSA20.jpg,AMNE11.jpg,AMSA08.jpg,AMNE14.jpg,AMNE11.jpg,MN,1,num_6,32,num_8,1.00015299208,,,2018_Mar_20_1746,60.0049077263,MAFE4ImagesEEG,001,203329,
AFNE23.JPG,AFNE24.JPG,AFNE22.JPG,AFSA24.JPG,AFSA22.JPG,AFSA23.JPG,,,,,,,,,0,8,8,8,,,,,,,,,,,,,,,AMNE08.jpg,AMSA07.jpg,AMSA12.jpg,AMNE18.jpg,AMNE08.jpg,MN,1,num_8,16,num_8,0.683518928941,,,2018_Mar_20_1746,60.0049077263,MAFE4ImagesEEG,001,203329,
AMSA21.JPG,AMNE23.JPG,AMNE21.JPG,AMSA25.JPG,AMNE25.JPG,AMSA23.JPG,,,,,,,,,0,9,9,5,,,,,,,,,,,,,,,AMNE07.jpg,AMNE08.jpg,AMSA14.jpg,AMSA12.jpg,AMSA14.jpg,MS,2,num_2,16,num_2,0.750049794558,,,2018_Mar_20_1746,60.0049077263,MAFE4ImagesEEG,001,203329,
AFNE22.JPG,AFSA24.JPG,AFSA22.JPG,AFNE25.JPG,AFNE24.JPG,AFSA25.JPG,,,,,,,,,,,,,0,0,0,6,,,,,,,,,,,AFNE18.jpg,AFSA11.jpg,AFNE13.jpg,AFSA15.jpg,AFSA15.jpg,FS,4,num_4,32,num_2,1.46677225409,,,2018_Mar_20_1746,60.0049077263,MAFE4ImagesEEG,001,203329,
AFNE23.JPG,AFNE24.JPG,AFNE22.JPG,AFSA24.JPG,AFSA22.JPG,AFSA23.JPG,,,,,,,,,,,,,0,1,1,8,,,,,,,,,,,AFSA19.jpg,AFNE19.jpg,AFSA05.jpg,AFNE15.jpg,AFNE15.jpg,FN,3,num_4,16,num_4,1.23379009776,,,2018_Mar_20_1746,60.0049077263,MAFE4ImagesEEG,001,203329,
AMSA21.JPG,AMNE23.JPG,AMNE21.JPG,AMSA25.JPG,AMNE25.JPG,AMSA23.JPG,,,,,,,,,,,,,0,2,2,5,,,,,,,,,,,AFNE09.jpg,AFNE08.jpg,AFSA13.jpg,AFSA08.jpg,AFNE09.jpg,FN,3,num_8,16,num_8,1.00009141071,,,2018_Mar_20_1746,60.0049077263,MAFE4ImagesEEG,001,203329,
AFSA21.JPG,AFNE22.JPG,AFNE21.JPG,AFSA23.JPG,AFSA22.JPG,AFNE23.JPG,,,,,,,,,,,,,0,3,3,0,,,,,,,,,,,AFSA02.jpg,AFNE05.jpg,AFNE15.jpg,AFSA05.jpg,AFSA02.jpg,FS,4,num_8,16,num_8,0.800207261462,,,2018_Mar_20_1746,60.0049077263,MAFE4ImagesEEG,001,203329,
AFSA21.JPG,AFNE23.JPG,AFNE21.JPG,AFSA25.JPG,AFNE25.JPG,AFSA23.JPG,,,,,,,,,,,,,0,4,4,4,,,,,,,,,,,AFNE18.jpg,AFNE02.jpg,AFSA01.jpg,AFSA13.jpg,AFNE18.jpg,FN,3,num_8,32,num_4,0.850174529944,,,2018_Mar_20_1746,60.0049077263,MAFE4ImagesEEG,001,203329,
AMSA21.JPG,AMNE22.JPG,AMNE21.JPG,AMSA23.JPG,AMSA22.JPG,AMNE23.JPG,,,,,,,,,,,,,0,5,5,1,,,,,,,,,,,AFNE14.jpg,AFSA15.jpg,AFNE18.jpg,AFSA14.jpg,AFSA15.jpg,FS,4,num_6,16,num_6,0.783442561049,,,2018_Mar_20_1746,60.0049077263,MAFE4ImagesEEG,001,203329,
AMNE22.JPG,AMSA24.JPG,AMSA22.JPG,AMNE25.JPG,AMNE24.JPG,AMSA25.JPG,,,,,,,,,,,,,0,6,6,7,,,,,,,,,,,AFSA19.jpg,AFSA11.jpg,AFNE18.jpg,AFNE17.jpg,AFNE17.jpg,FN,3,num_4,16,num_4,1.05010518664,,,2018_Mar_20_1746,60.0049077263,MAFE4ImagesEEG,001,203329,
AFSA25.JPG,AFNE24.JPG,AFSA24.JPG,AFNE21.JPG,AFSA21.JPG,AFNE25.JPG,,,,,,,,,,,,,0,7,7,2,,,,,,,,,,,AFNE07.jpg,AFSA06.jpg,AFNE15.jpg,AFSA05.jpg,AFNE07.jpg,FN,3,num_8,16,num_8,0.800098851323,,,2018_Mar_20_1746,60.0049077263,MAFE4ImagesEEG,001,203329,
AMNE23.JPG,AMNE24.JPG,AMNE22.JPG,AMSA24.JPG,AMSA22.JPG,AMSA23.JPG,,,,,,,,,,,,,0,8,8,9,,,,,,,,,,,AFSA18.jpg,AFNE02.jpg,AFNE04.jpg,AFSA03.jpg,AFNE04.jpg,FN,3,num_2,16,num_2,0.983431591652,,,2018_Mar_20_1746,60.0049077263,MAFE4ImagesEEG,001,203329,
AMSA25.JPG,AMNE24.JPG,AMSA24.JPG,AMNE26.JPG,AMSA21.JPG,AMNE25.JPG,,,,,,,,,,,,,0,9,9,3,,,,,,,,,,,AFSA19.jpg,AFSA17.jpg,AFNE15.jpg,AFNE01.jpg,AFNE01.jpg,FN,3,num_4,16,num_4,1.43343978655,,,2018_Mar_20_1746,60.0049077263,MAFE4ImagesEEG,001,203329,
AMNE23.JPG,AMNE24.JPG,AMNE22.JPG,AMSA24.JPG,AMSA22.JPG,AMSA23.JPG,,,,,,,,,,,,,,,,,0,0,0,9,,,,,,,AMNE13.jpg,AMSA10.jpg,AMSA17.jpg,AMNE12.jpg,AMSA10.jpg,MS,2,num_6,32,num_8,0.816817365587,,,2018_Mar_20_1746,60.0049077263,MAFE4ImagesEEG,001,203329,
AFSA25.JPG,AFNE24.JPG,AFSA24.JPG,AFNE21.JPG,AFSA21.JPG,AFNE25.JPG,,,,,,,,,,,,,,,,,0,1,1,2,,,,,,,AMNE16.jpg,AMSA09.jpg,AMNE01.jpg,AMSA14.jpg,AMNE01.jpg,MN,1,num_2,16,num_2,0.66681901738,,,2018_Mar_20_1746,60.0049077263,MAFE4ImagesEEG,001,203329,
AFNE23.JPG,AFNE24.JPG,AFNE22.JPG,AFSA24.JPG,AFSA22.JPG,AFSA23.JPG,,,,,,,,,,,,,,,,,0,2,2,8,,,,,,,AMNE20.jpg,AMNE16.jpg,AMSA16.jpg,AMSA20.jpg,AMSA20.jpg,MS,2,num_4,16,num_4,1.18345077196,,,2018_Mar_20_1746,60.0049077263,MAFE4ImagesEEG,001,203329,
AFNE22.JPG,AFSA24.JPG,AFSA22.JPG,AFNE25.JPG,AFNE24.JPG,AFSA25.JPG,,,,,,,,,,,,,,,,,0,3,3,6,,,,,,,AMNE03.jpg,AMNE07.jpg,AMSA14.jpg,AMSA07.jpg,AMNE03.jpg,MN,1,num_8,32,num_6,0.900176759344,,,2018_Mar_20_1746,60.0049077263,MAFE4ImagesEEG,001,203329,
AMNE22.JPG,AMSA24.JPG,AMSA22.JPG,AMNE25.JPG,AMNE24.JPG,AMSA25.JPG,,,,,,,,,,,,,,,,,0,4,4,7,,,,,,,AMNE04.jpg,AMSA06.jpg,AMNE11.jpg,AMSA19.jpg,AMNE11.jpg,MN,1,num_2,16,num_2,1.466734407,,,2018_Mar_20_1746,60.0049077263,MAFE4ImagesEEG,001,203329,
AFSA21.JPG,AFNE22.JPG,AFNE21.JPG,AFSA23.JPG,AFSA22.JPG,AFNE23.JPG,,,,,,,,,,,,,,,,,0,5,5,0,,,,,,,AMNE06.jpg,AMNE13.jpg,AMSA01.jpg,AMSA07.jpg,AMNE13.jpg,MN,1,num_6,16,num_6,1.13341005379,,,2018_Mar_20_1746,60.0049077263,MAFE4ImagesEEG,001,203329,
AFSA21.JPG,AFNE23.JPG,AFNE21.JPG,AFSA25.JPG,AFNE25.JPG,AFSA23.JPG,,,,,,,,,,,,,,,,,0,6,6,4,,,,,,,AMNE20.jpg,AMSA12.jpg,AMNE16.jpg,AMSA02.jpg,AMSA02.jpg,MS,2,num_4,16,num_4,0.816781122237,,,2018_Mar_20_1746,60.0049077263,MAFE4ImagesEEG,001,203329,
AMSA21.JPG,AMNE23.JPG,AMNE21.JPG,AMSA25.JPG,AMNE25.JPG,AMSA23.JPG,,,,,,,,,,,,,,,,,0,7,7,5,,,,,,,AMSA01.jpg,AMNE09.jpg,AMNE20.jpg,AMSA07.jpg,AMSA07.jpg,MS,2,num_4,16,num_4,0.583460906986,,,2018_Mar_20_1746,60.0049077263,MAFE4ImagesEEG,001,203329,
AMSA25.JPG,AMNE24.JPG,AMSA24.JPG,AMNE26.JPG,AMSA21.JPG,AMNE25.JPG,,,,,,,,,,,,,,,,,0,8,8,3,,,,,,,AMNE09.jpg,AMNE15.jpg,AMSA07.jpg,AMSA10.jpg,AMNE15.jpg,MN,1,num_6,16,num_6,0.850136041641,,,2018_Mar_20_1746,60.0049077263,MAFE4ImagesEEG,001,203329,
AMSA21.JPG,AMNE22.JPG,AMNE21.JPG,AMSA23.JPG,AMSA22.JPG,AMNE23.JPG,,,,,,,,,,,,,,,,,0,9,9,1,,,,,,,AMSA14.jpg,AMNE10.jpg,AMSA16.jpg,AMNE08.jpg,AMSA14.jpg,MS,2,num_8,16,num_8,0.73345091613,,,2018_Mar_20_1746,60.0049077263,MAFE4ImagesEEG,001,203329,
AMSA21.JPG,AMNE22.JPG,AMNE21.JPG,AMSA23.JPG,AMSA22.JPG,AMNE23.JPG,,,,,,,,,,,,,,,,,,,,,0,0,0,1,,,AFSA02.jpg,AFSA12.jpg,AFNE03.jpg,AFNE02.jpg,AFNE02.jpg,FN,3,num_4,16,num_4,1.05008530011,,,2018_Mar_20_1746,60.0049077263,MAFE4ImagesEEG,001,203329,
AFSA21.JPG,AFNE23.JPG,AFNE21.JPG,AFSA25.JPG,AFNE25.JPG,AFSA23.JPG,,,,,,,,,,,,,,,,,,,,,0,1,1,4,,,AFSA05.jpg,AFNE16.jpg,AFSA14.jpg,AFNE18.jpg,AFSA05.jpg,FS,4,num_8,16,num_8,1.00014176685,,,2018_Mar_20_1746,60.0049077263,MAFE4ImagesEEG,001,203329,
AMSA21.JPG,AMNE23.JPG,AMNE21.JPG,AMSA25.JPG,AMNE25.JPG,AMSA23.JPG,,,,,,,,,,,,,,,,,,,,,0,2,2,5,,,AFSA12.jpg,AFNE12.jpg,AFSA14.jpg,AFNE09.jpg,AFSA14.jpg,FS,4,num_2,32,num_6,0.850133475382,,,2018_Mar_20_1746,60.0049077263,MAFE4ImagesEEG,001,203329,
AMNE23.JPG,AMNE24.JPG,AMNE22.JPG,AMSA24.JPG,AMSA22.JPG,AMSA23.JPG,,,,,,,,,,,,,,,,,,,,,0,3,3,9,,,AFSA18.jpg,AFNE14.jpg,AFNE10.jpg,AFSA04.jpg,AFNE10.jpg,FN,3,num_2,32,num_8,1.65003314847,,,2018_Mar_20_1746,60.0049077263,MAFE4ImagesEEG,001,203329,
AFSA21.JPG,AFNE22.JPG,AFNE21.JPG,AFSA23.JPG,AFSA22.JPG,AFNE23.JPG,,,,,,,,,,,,,,,,,,,,,0,4,4,0,,,AFNE17.jpg,AFSA11.jpg,AFNE20.jpg,AFSA15.jpg,AFNE17.jpg,FN,3,num_8,16,num_8,0.85015175771,,,2018_Mar_20_1746,60.0049077263,MAFE4ImagesEEG,001,203329,
AFNE22.JPG,AFSA24.JPG,AFSA22.JPG,AFNE25.JPG,AFNE24.JPG,AFSA25.JPG,,,,,,,,,,,,,,,,,,,,,0,5,5,6,,,AFSA04.jpg,AFNE15.jpg,AFSA17.jpg,AFNE06.jpg,AFSA17.jpg,FS,4,num_2,32,num_4,1.16674476676,,,2018_Mar_20_1746,60.0049077263,MAFE4ImagesEEG,001,203329,
AFNE23.JPG,AFNE24.JPG,AFNE22.JPG,AFSA24.JPG,AFSA22.JPG,AFSA23.JPG,,,,,,,,,,,,,,,,,,,,,0,6,6,8,,,AFNE19.jpg,AFSA17.jpg,AFNE10.jpg,AFSA13.jpg,AFSA17.jpg,FS,4,num_6,16,num_6,2.4998256783,,,2018_Mar_20_1746,60.0049077263,MAFE4ImagesEEG,001,203329,
AMNE22.JPG,AMSA24.JPG,AMSA22.JPG,AMNE25.JPG,AMNE24.JPG,AMSA25.JPG,,,,,,,,,,,,,,,,,,,,,0,7,7,7,,,AFNE14.jpg,AFSA06.jpg,AFNE19.jpg,AFSA04.jpg,AFNE19.jpg,FN,3,num_2,32,num_8,0.483348039445,,,2018_Mar_20_1746,60.0049077263,MAFE4ImagesEEG,001,203329,
AMSA25.JPG,AMNE24.JPG,AMSA24.JPG,AMNE26.JPG,AMSA21.JPG,AMNE25.JPG,,,,,,,,,,,,,,,,,,,,,0,8,8,3,,,AFNE06.jpg,AFNE17.jpg,AFSA13.jpg,AFSA12.jpg,AFNE17.jpg,FN,3,num_6,32,num_8,0.933473303914,,,2018_Mar_20_1746,60.0049077263,MAFE4ImagesEEG,001,203329,
AFSA25.JPG,AFNE24.JPG,AFSA24.JPG,AFNE21.JPG,AFSA21.JPG,AFNE25.JPG,,,,,,,,,,,,,,,,,,,,,0,9,9,2,,,AFSA08.jpg,AFNE15.jpg,AFNE11.jpg,AFSA20.jpg,AFNE15.jpg,FN,3,num_6,16,num_6,0.700174578,,,2018_Mar_20_1746,60.0049077263,MAFE4ImagesEEG,001,203329,
,,,,,,,,,,,,,,,,,,,,,,,,,,,,,,,,,,,,,,,,,,,space,13.0321165463,2018_Mar_20_1746,60.0049077263,MAFE4ImagesEEG,001,203329,
AFNE01.JPG,AFNE01.JPG,AFNE01.JPG,AFNE01.JPG,AFNE01.JPG,AFNE01.JPG,0,0,0,6,,,,,,,,,,,,,,,,,,,,,,,AMNE06.jpg,AMSA15.jpg,AMNE03.jpg,AMSA12.jpg,AMSA15.jpg,MS,2,num_6,16,num_6,1.40009256499,,,2018_Mar_20_1746,60.0049077263,MAFE4ImagesEEG,001,203329,
AFNE01.JPG,AFNE01.JPG,AFNE01.JPG,AFNE01.JPG,AFNE01.JPG,AFNE01.JPG,0,1,1,7,,,,,,,,,,,,,,,,,,,,,,,AMNE18.jpg,AMSA01.jpg,AMNE03.jpg,AMSA07.jpg,AMNE18.jpg,MN,1,num_8,16,num_8,1.55035744747,,,2018_Mar_20_1746,60.0049077263,MAFE4ImagesEEG,001,203329,
AFNE01.JPG,AFNE01.JPG,AFNE01.JPG,AFNE01.JPG,AFNE01.JPG,AFNE01.JPG,0,2,2,1,,,,,,,,,,,,,,,,,,,,,,,AMSA01.jpg,AMSA18.jpg,AMNE10.jpg,AMNE05.jpg,AMNE10.jpg,MN,1,num_2,16,num_2,0.883469150402,,,2018_Mar_20_1746,60.0049077263,MAFE4ImagesEEG,001,203329,
AFNE01.JPG,AFNE01.JPG,AFNE01.JPG,AFNE01.JPG,AFNE01.JPG,AFNE01.JPG,0,3,3,3,,,,,,,,,,,,,,,,,,,,,,,AMSA10.jpg,AMNE01.jpg,AMSA19.jpg,AMNE14.jpg,AMNE14.jpg,MN,1,num_4,32,num_8,0.666802018415,,,2018_Mar_20_1746,60.0049077263,MAFE4ImagesEEG,001,203329,
AFNE01.JPG,AFNE01.JPG,AFNE01.JPG,AFNE01.JPG,AFNE01.JPG,AFNE01.JPG,0,4,4,8,,,,,,,,,,,,,,,,,,,,,,,AMNE02.jpg,AMNE18.jpg,AMSA07.jpg,AMSA06.jpg,AMNE18.jpg,MN,1,num_6,32,num_4,1.01675668219,,,2018_Mar_20_1746,60.0049077263,MAFE4ImagesEEG,001,203329,
AFNE01.JPG,AFNE01.JPG,AFNE01.JPG,AFNE01.JPG,AFNE01.JPG,AFNE01.JPG,0,5,5,9,,,,,,,,,,,,,,,,,,,,,,,AMSA18.jpg,AMNE04.jpg,AMSA14.jpg,AMNE10.jpg,AMSA14.jpg,MS,2,num_2,16,num_2,2.3166379123,,,2018_Mar_20_1746,60.0049077263,MAFE4ImagesEEG,001,203329,
AFNE01.JPG,AFNE01.JPG,AFNE01.JPG,AFNE01.JPG,AFNE01.JPG,AFNE01.JPG,0,6,6,4,,,,,,,,,,,,,,,,,,,,,,,AMSA01.jpg,AMSA02.jpg,AMNE05.jpg,AMNE08.jpg,AMNE05.jpg,MN,1,num_2,32,num_4,1.20009230869,,,2018_Mar_20_1746,60.0049077263,MAFE4ImagesEEG,001,203329,
AFNE01.JPG,AFNE01.JPG,AFNE01.JPG,AFNE01.JPG,AFNE01.JPG,AFNE01.JPG,0,7,7,5,,,,,,,,,,,,,,,,,,,,,,,AMNE14.jpg,AMNE12.jpg,AMSA18.jpg,AMSA02.jpg,AMNE12.jpg,MN,1,num_6,16,num_6,0.966753169894,,,2018_Mar_20_1746,60.0049077263,MAFE4ImagesEEG,001,203329,
AFNE01.JPG,AFNE01.JPG,AFNE01.JPG,AFNE01.JPG,AFNE01.JPG,AFNE01.JPG,0,8,8,2,,,,,,,,,,,,,,,,,,,,,,,AMSA05.jpg,AMNE12.jpg,AMSA09.jpg,AMNE11.jpg,AMSA05.jpg,MS,2,num_8,32,num_6,1.88341205847,,,2018_Mar_20_1746,60.0049077263,MAFE4ImagesEEG,001,203329,
AFNE01.JPG,AFNE01.JPG,AFNE01.JPG,AFNE01.JPG,AFNE01.JPG,AFNE01.JPG,0,9,9,0,,,,,,,,,,,,,,,,,,,,,,,AMNE02.jpg,AMSA17.jpg,AMSA20.jpg,AMNE16.jpg,AMNE02.jpg,MN,1,num_8,16,num_8,0.966346472967,,,2018_Mar_20_1746,60.0049077263,MAFE4ImagesEEG,001,203329,
AFNE01.JPG,AFNE01.JPG,AFNE01.JPG,AFNE01.JPG,AFNE01.JPG,AFNE01.JPG,1,0,10,9,,,,,,,,,,,,,,,,,,,,,,,AMNE04.jpg,AMNE14.jpg,AMSA12.jpg,AMSA18.jpg,AMNE14.jpg,MN,1,num_6,32,num_8,0.900120309088,,,2018_Mar_20_1746,60.0049077263,MAFE4ImagesEEG,001,203329,
AFNE01.JPG,AFNE01.JPG,AFNE01.JPG,AFNE01.JPG,AFNE01.JPG,AFNE01.JPG,1,1,11,0,,,,,,,,,,,,,,,,,,,,,,,AMSA08.jpg,AMNE16.jpg,AMNE03.jpg,AMSA01.jpg,AMSA01.jpg,MS,2,num_4,16,num_4,0.716787248384,,,2018_Mar_20_1746,60.0049077263,MAFE4ImagesEEG,001,203329,
AFNE01.JPG,AFNE01.JPG,AFNE01.JPG,AFNE01.JPG,AFNE01.JPG,AFNE01.JPG,1,2,12,1,,,,,,,,,,,,,,,,,,,,,,,AMNE16.jpg,AMSA05.jpg,AMSA09.jpg,AMNE04.jpg,AMNE16.jpg,MN,1,num_8,32,num_2,1.16675823787,,,2018_Mar_20_1746,60.0049077263,MAFE4ImagesEEG,001,203329,
AFNE01.JPG,AFNE01.JPG,AFNE01.JPG,AFNE01.JPG,AFNE01.JPG,AFNE01.JPG,1,3,13,3,,,,,,,,,,,,,,,,,,,,,,,AMSA07.jpg,AMNE05.jpg,AMSA18.jpg,AMNE04.jpg,AMSA18.jpg,MS,2,num_2,16,num_2,0.8167923484,,,2018_Mar_20_1746,60.0049077263,MAFE4ImagesEEG,001,203329,
AFNE01.JPG,AFNE01.JPG,AFNE01.JPG,AFNE01.JPG,AFNE01.JPG,AFNE01.JPG,1,4,14,2,,,,,,,,,,,,,,,,,,,,,,,AMSA18.jpg,AMSA07.jpg,AMNE17.jpg,AMNE16.jpg,AMSA18.jpg,MS,2,num_8,32,num_2,1.26672549034,,,2018_Mar_20_1746,60.0049077263,MAFE4ImagesEEG,001,203329,
AFNE01.JPG,AFNE01.JPG,AFNE01.JPG,AFNE01.JPG,AFNE01.JPG,AFNE01.JPG,1,5,15,8,,,,,,,,,,,,,,,,,,,,,,,AMNE14.jpg,AMSA05.jpg,AMNE06.jpg,AMSA13.jpg,AMNE06.jpg,MN,1,num_2,16,num_2,0.666834092699,,,2018_Mar_20_1746,60.0049077263,MAFE4ImagesEEG,001,203329,
AFNE01.JPG,AFNE01.JPG,AFNE01.JPG,AFNE01.JPG,AFNE01.JPG,AFNE01.JPG,1,6,16,4,,,,,,,,,,,,,,,,,,,,,,,AMSA08.jpg,AMNE08.jpg,AMSA17.jpg,AMNE19.jpg,AMSA17.jpg,MS,2,num_2,16,num_2,0.583471812308,,,2018_Mar_20_1746,60.0049077263,MAFE4ImagesEEG,001,203329,
AFNE01.JPG,AFNE01.JPG,AFNE01.JPG,AFNE01.JPG,AFNE01.JPG,AFNE01.JPG,1,7,17,7,,,,,,,,,,,,,,,,,,,,,,,AMSA07.jpg,AMSA09.jpg,AMNE07.jpg,AMNE09.jpg,AMNE09.jpg,MN,1,num_4,16,num_4,1.15008526854,,,2018_Mar_20_1746,60.0049077263,MAFE4ImagesEEG,001,203329,
AFNE01.JPG,AFNE01.JPG,AFNE01.JPG,AFNE01.JPG,AFNE01.JPG,AFNE01.JPG,1,8,18,5,,,,,,,,,,,,,,,,,,,,,,,AMNE12.jpg,AMSA07.jpg,AMNE06.jpg,AMSA12.jpg,AMSA07.jpg,MS,2,num_6,16,num_6,1.01668900624,,,2018_Mar_20_1746,60.0049077263,MAFE4ImagesEEG,001,203329,
AFNE01.JPG,AFNE01.JPG,AFNE01.JPG,AFNE01.JPG,AFNE01.JPG,AFNE01.JPG,1,9,19,6,,,,,,,,,,,,,,,,,,,,,,,AMSA09.jpg,AMSA11.jpg,AMNE19.jpg,AMNE14.jpg,AMNE19.jpg,MN,1,num_2,16,num_2,1.06659469288,,,2018_Mar_20_1746,60.0049077263,MAFE4ImagesEEG,001,203329,
AFNE01.JPG,AFNE01.JPG,AFNE01.JPG,AFNE01.JPG,AFNE01.JPG,AFNE01.JPG,2,0,20,2,,,,,,,,,,,,,,,,,,,,,,,AMNE13.jpg,AMNE02.jpg,AMSA12.jpg,AMSA09.jpg,AMNE13.jpg,MN,1,num_8,16,num_8,0.816746482626,,,2018_Mar_20_1746,60.0049077263,MAFE4ImagesEEG,001,203329,
AFNE01.JPG,AFNE01.JPG,AFNE01.JPG,AFNE01.JPG,AFNE01.JPG,AFNE01.JPG,2,1,21,4,,,,,,,,,,,,,,,,,,,,,,,AMNE18.jpg,AMNE19.jpg,AMSA04.jpg,AMSA20.jpg,AMNE19.jpg,MN,1,num_6,16,num_6,0.950014770031,,,2018_Mar_20_1746,60.0049077263,MAFE4ImagesEEG,001,203329,
AFNE01.JPG,AFNE01.JPG,AFNE01.JPG,AFNE01.JPG,AFNE01.JPG,AFNE01.JPG,2,2,22,0,,,,,,,,,,,,,,,,,,,,,,,AMSA07.jpg,AMSA15.jpg,AMNE20.jpg,AMNE04.jpg,AMNE20.jpg,MN,1,num_2,16,num_2,1.3334933822,,,2018_Mar_20_1746,60.0049077263,MAFE4ImagesEEG,001,203329,
AFNE01.JPG,AFNE01.JPG,AFNE01.JPG,AFNE01.JPG,AFNE01.JPG,AFNE01.JPG,2,3,23,8,,,,,,,,,,,,,,,,,,,,,,,AMSA04.jpg,AMSA12.jpg,AMNE02.jpg,AMNE20.jpg,AMSA12.jpg,MS,2,num_6,32,num_2,1.56671416806,,,2018_Mar_20_1746,60.0049077263,MAFE4ImagesEEG,001,203329,
AFNE01.JPG,AFNE01.JPG,AFNE01.JPG,AFNE01.JPG,AFNE01.JPG,AFNE01.JPG,2,4,24,7,,,,,,,,,,,,,,,,,,,,,,,AMSA17.jpg,AMSA01.jpg,AMNE05.jpg,AMNE04.jpg,AMSA01.jpg,MS,2,num_6,16,num_6,0.783519538585,,,2018_Mar_20_1746,60.0049077263,MAFE4ImagesEEG,001,203329,
AFNE01.JPG,AFNE01.JPG,AFNE01.JPG,AFNE01.JPG,AFNE01.JPG,AFNE01.JPG,2,5,25,9,,,,,,,,,,,,,,,,,,,,,,,AMSA11.jpg,AMNE18.jpg,AMSA05.jpg,AMNE16.jpg,AMNE18.jpg,MN,1,num_6,32,num_4,1.20017121034,,,2018_Mar_20_1746,60.0049077263,MAFE4ImagesEEG,001,203329,
AFNE01.JPG,AFNE01.JPG,AFNE01.JPG,AFNE01.JPG,AFNE01.JPG,AFNE01.JPG,2,6,26,6,,,,,,,,,,,,,,,,,,,,,,,AMNE07.jpg,AMNE06.jpg,AMSA06.jpg,AMSA10.jpg,AMNE07.jpg,MN,1,num_8,32,num_6,2.11663733516,,,2018_Mar_20_1746,60.0049077263,MAFE4ImagesEEG,001,203329,
AFNE01.JPG,AFNE01.JPG,AFNE01.JPG,AFNE01.JPG,AFNE01.JPG,AFNE01.JPG,2,7,27,3,,,,,,,,,,,,,,,,,,,,,,,AMNE12.jpg,AMSA16.jpg,AMSA20.jpg,AMNE03.jpg,AMNE12.jpg,MN,1,num_8,32,num_4,1.10010292474,,,2018_Mar_20_1746,60.0049077263,MAFE4ImagesEEG,001,203329,
AFNE01.JPG,AFNE01.JPG,AFNE01.JPG,AFNE01.JPG,AFNE01.JPG,AFNE01.JPG,2,8,28,1,,,,,,,,,,,,,,,,,,,,,,,AMNE19.jpg,AMNE02.jpg,AMSA04.jpg,AMSA09.jpg,AMSA09.jpg,MS,2,num_4,16,num_4,0.916773392353,,,2018_Mar_20_1746,60.0049077263,MAFE4ImagesEEG,001,203329,
AFNE01.JPG,AFNE01.JPG,AFNE01.JPG,AFNE01.JPG,AFNE01.JPG,AFNE01.JPG,2,9,29,5,,,,,,,,,,,,,,,,,,,,,,,AMSA07.jpg,AMSA15.jpg,AMNE05.jpg,AMNE20.jpg,AMNE20.jpg,MN,1,num_4,32,num_8,1.80004657106,,,2018_Mar_20_1746,60.0049077263,MAFE4ImagesEEG,001,203329,
AFNE01.JPG,AFNE01.JPG,AFNE01.JPG,AFNE01.JPG,AFNE01.JPG,AFNE01.JPG,3,0,30,3,,,,,,,,,,,,,,,,,,,,,,,AMNE16.jpg,AMSA07.jpg,AMSA03.jpg,AMNE18.jpg,AMSA07.jpg,MS,2,num_6,32,num_2,0.933487416245,,,2018_Mar_20_1746,60.0049077263,MAFE4ImagesEEG,001,203329,
AFNE01.JPG,AFNE01.JPG,AFNE01.JPG,AFNE01.JPG,AFNE01.JPG,AFNE01.JPG,3,1,31,1,,,,,,,,,,,,,,,,,,,,,,,AMSA02.jpg,AMNE07.jpg,AMNE19.jpg,AMSA18.jpg,AMNE19.jpg,MN,1,num_2,16,num_2,1.16683296999,,,2018_Mar_20_1746,60.0049077263,MAFE4ImagesEEG,001,203329,
AFNE01.JPG,AFNE01.JPG,AFNE01.JPG,AFNE01.JPG,AFNE01.JPG,AFNE01.JPG,3,2,32,0,,,,,,,,,,,,,,,,,,,,,,,AMNE06.jpg,AMSA19.jpg,AMSA13.jpg,AMNE15.jpg,AMSA19.jpg,MS,2,num_6,16,num_6,1.25028056605,,,2018_Mar_20_1746,60.0049077263,MAFE4ImagesEEG,001,203329,
AFNE01.JPG,AFNE01.JPG,AFNE01.JPG,AFNE01.JPG,AFNE01.JPG,AFNE01.JPG,3,3,33,2,,,,,,,,,,,,,,,,,,,,,,,AMSA10.jpg,AMNE20.jpg,AMSA06.jpg,AMNE15.jpg,AMSA10.jpg,MS,2,num_8,32,num_2,1.36678575724,,,2018_Mar_20_1746,60.0049077263,MAFE4ImagesEEG,001,203329,
AFNE01.JPG,AFNE01.JPG,AFNE01.JPG,AFNE01.JPG,AFNE01.JPG,AFNE01.JPG,3,4,34,9,,,,,,,,,,,,,,,,,,,,,,,AMNE17.jpg,AMSA10.jpg,AMSA11.jpg,AMNE16.jpg,AMNE17.jpg,MN,1,num_8,16,num_8,1.98335814243,,,2018_Mar_20_1746,60.0049077263,MAFE4ImagesEEG,001,203329,
AFNE01.JPG,AFNE01.JPG,AFNE01.JPG,AFNE01.JPG,AFNE01.JPG,AFNE01.JPG,3,5,35,7,,,,,,,,,,,,,,,,,,,,,,,AMSA04.jpg,AMNE07.jpg,AMNE06.jpg,AMSA14.jpg,AMNE07.jpg,MN,1,num_6,16,num_6,0.916768902447,,,2018_Mar_20_1746,60.0049077263,MAFE4ImagesEEG,001,203329,
AFNE01.JPG,AFNE01.JPG,AFNE01.JPG,AFNE01.JPG,AFNE01.JPG,AFNE01.JPG,3,6,36,5,,,,,,,,,,,,,,,,,,,,,,,AMSA03.jpg,AMNE01.jpg,AMSA11.jpg,AMNE15.jpg,AMSA03.jpg,MS,2,num_8,32,num_4,1.06681472016,,,2018_Mar_20_1746,60.0049077263,MAFE4ImagesEEG,001,203329,
AFNE01.JPG,AFNE01.JPG,AFNE01.JPG,AFNE01.JPG,AFNE01.JPG,AFNE01.JPG,3,7,37,6,,,,,,,,,,,,,,,,,,,,,,,AMSA07.jpg,AMNE09.jpg,AMNE16.jpg,AMSA13.jpg,AMNE16.jpg,MN,1,num_2,32,num_6,1.21680087969,,,2018_Mar_20_1746,60.0049077263,MAFE4ImagesEEG,001,203329,
AFNE01.JPG,AFNE01.JPG,AFNE01.JPG,AFNE01.JPG,AFNE01.JPG,AFNE01.JPG,3,8,38,8,,,,,,,,,,,,,,,,,,,,,,,AMSA01.jpg,AMNE14.jpg,AMSA03.jpg,AMNE07.jpg,AMSA03.jpg,MS,2,num_2,16,num_2,1.28350013355,,,2018_Mar_20_1746,60.0049077263,MAFE4ImagesEEG,001,203329,
AFNE01.JPG,AFNE01.JPG,AFNE01.JPG,AFNE01.JPG,AFNE01.JPG,AFNE01.JPG,3,9,39,4,,,,,,,,,,,,,,,,,,,,,,,AMNE07.jpg,AMSA14.jpg,AMNE19.jpg,AMSA02.jpg,AMSA14.jpg,MS,2,num_6,16,num_6,0.683524060994,,,2018_Mar_20_1746,60.0049077263,MAFE4ImagesEEG,001,203329,
AFNE01.JPG,AFNE01.JPG,AFNE01.JPG,AFNE01.JPG,AFNE01.JPG,AFNE01.JPG,4,0,40,5,,,,,,,,,,,,,,,,,,,,,,,AMNE09.jpg,AMSA20.jpg,AMSA10.jpg,AMNE17.jpg,AMSA20.jpg,MS,2,num_6,16,num_6,0.94998141285,,,2018_Mar_20_1746,60.0049077263,MAFE4ImagesEEG,001,203329,
AFNE01.JPG,AFNE01.JPG,AFNE01.JPG,AFNE01.JPG,AFNE01.JPG,AFNE01.JPG,4,1,41,7,,,,,,,,,,,,,,,,,,,,,,,AMSA13.jpg,AMNE18.jpg,AMSA05.jpg,AMNE20.jpg,AMNE18.jpg,MN,1,num_6,32,num_8,0.866807406768,,,2018_Mar_20_1746,60.0049077263,MAFE4ImagesEEG,001,203329,
AFNE01.JPG,AFNE01.JPG,AFNE01.JPG,AFNE01.JPG,AFNE01.JPG,AFNE01.JPG,4,2,42,1,,,,,,,,,,,,,,,,,,,,,,,AMSA13.jpg,AMNE02.jpg,AMNE14.jpg,AMSA11.jpg,AMSA11.jpg,MS,2,num_4,32,num_2,1.03341425583,,,2018_Mar_20_1746,60.0049077263,MAFE4ImagesEEG,001,203329,
AFNE01.JPG,AFNE01.JPG,AFNE01.JPG,AFNE01.JPG,AFNE01.JPG,AFNE01.JPG,4,3,43,3,,,,,,,,,,,,,,,,,,,,,,,AMNE06.jpg,AMSA14.jpg,AMSA18.jpg,AMNE20.jpg,AMNE20.jpg,MN,1,num_4,16,num_4,0.85010877857,,,2018_Mar_20_1746,60.0049077263,MAFE4ImagesEEG,001,203329,
AFNE01.JPG,AFNE01.JPG,AFNE01.JPG,AFNE01.JPG,AFNE01.JPG,AFNE01.JPG,4,4,44,6,,,,,,,,,,,,,,,,,,,,,,,AMNE14.jpg,AMSA06.jpg,AMNE17.jpg,AMSA18.jpg,AMSA18.jpg,MS,2,num_4,32,num_8,0.983742067125,,,2018_Mar_20_1746,60.0049077263,MAFE4ImagesEEG,001,203329,
AFNE01.JPG,AFNE01.JPG,AFNE01.JPG,AFNE01.JPG,AFNE01.JPG,AFNE01.JPG,4,5,45,0,,,,,,,,,,,,,,,,,,,,,,,AMNE03.jpg,AMNE02.jpg,AMSA19.jpg,AMSA15.jpg,AMSA15.jpg,MS,2,num_4,32,num_8,1.48341571493,,,2018_Mar_20_1746,60.0049077263,MAFE4ImagesEEG,001,203329,
AFNE01.JPG,AFNE01.JPG,AFNE01.JPG,AFNE01.JPG,AFNE01.JPG,AFNE01.JPG,4,6,46,2,,,,,,,,,,,,,,,,,,,,,,,AMNE10.jpg,AMNE01.jpg,AMSA15.jpg,AMSA04.jpg,AMNE01.jpg,MN,1,num_6,32,num_8,1.31673381338,,,2018_Mar_20_1746,60.0049077263,MAFE4ImagesEEG,001,203329,
AFNE01.JPG,AFNE01.JPG,AFNE01.JPG,AFNE01.JPG,AFNE01.JPG,AFNE01.JPG,4,7,47,8,,,,,,,,,,,,,,,,,,,,,,,AMSA16.jpg,AMNE08.jpg,AMSA19.jpg,AMNE13.jpg,AMNE08.jpg,MN,1,num_6,16,num_6,0.91679488169,,,2018_Mar_20_1746,60.0049077263,MAFE4ImagesEEG,001,203329,
AFNE01.JPG,AFNE01.JPG,AFNE01.JPG,AFNE01.JPG,AFNE01.JPG,AFNE01.JPG,4,8,48,4,,,,,,,,,,,,,,,,,,,,,,,AMSA05.jpg,AMNE10.jpg,AMSA16.jpg,AMNE05.jpg,AMSA16.jpg,MS,2,num_2,16,num_2,1.08345721848,,,2018_Mar_20_1746,60.0049077263,MAFE4ImagesEEG,001,203329,
AFNE01.JPG,AFNE01.JPG,AFNE01.JPG,AFNE01.JPG,AFNE01.JPG,AFNE01.JPG,4,9,49,9,,,,,,,,,,,,,,,,,,,,,,,AMSA08.jpg,AMNE15.jpg,AMNE19.jpg,AMSA17.jpg,AMSA17.jpg,MS,2,num_4,16,num_4,1.2334918105,,,2018_Mar_20_1746,60.0049077263,MAFE4ImagesEEG,001,203329,
AFNE01.JPG,AFNE01.JPG,AFNE01.JPG,AFNE01.JPG,AFNE01.JPG,AFNE01.JPG,5,0,50,5,,,,,,,,,,,,,,,,,,,,,,,AMNE03.jpg,AMSA14.jpg,AMNE14.jpg,AMSA12.jpg,AMNE03.jpg,MN,1,num_8,32,num_4,0.766772157513,,,2018_Mar_20_1746,60.0049077263,MAFE4ImagesEEG,001,203329,
AFNE01.JPG,AFNE01.JPG,AFNE01.JPG,AFNE01.JPG,AFNE01.JPG,AFNE01.JPG,5,1,51,6,,,,,,,,,,,,,,,,,,,,,,,AMSA10.jpg,AMNE07.jpg,AMNE08.jpg,AMSA14.jpg,AMNE08.jpg,MN,1,num_2,32,num_6,0.966817317531,,,2018_Mar_20_1746,60.0049077263,MAFE4ImagesEEG,001,203329,
AFNE01.JPG,AFNE01.JPG,AFNE01.JPG,AFNE01.JPG,AFNE01.JPG,AFNE01.JPG,5,2,52,0,,,,,,,,,,,,,,,,,,,,,,,AMSA06.jpg,AMSA04.jpg,AMNE04.jpg,AMNE16.jpg,AMNE04.jpg,MN,1,num_2,32,num_6,0.700162390247,,,2018_Mar_20_1746,60.0049077263,MAFE4ImagesEEG,001,203329,
AFNE01.JPG,AFNE01.JPG,AFNE01.JPG,AFNE01.JPG,AFNE01.JPG,AFNE01.JPG,5,3,53,2,,,,,,,,,,,,,,,,,,,,,,,AMNE16.jpg,AMNE01.jpg,AMSA09.jpg,AMSA10.jpg,AMNE01.jpg,MN,1,num_6,16,num_6,0.850124494638,,,2018_Mar_20_1746,60.0049077263,MAFE4ImagesEEG,001,203329,
AFNE01.JPG,AFNE01.JPG,AFNE01.JPG,AFNE01.JPG,AFNE01.JPG,AFNE01.JPG,5,4,54,4,,,,,,,,,,,,,,,,,,,,,,,AMSA11.jpg,AMSA12.jpg,AMNE11.jpg,AMNE17.jpg,AMSA11.jpg,MS,2,num_8,32,num_6,1.46671836963,,,2018_Mar_20_1746,60.0049077263,MAFE4ImagesEEG,001,203329,
AFNE01.JPG,AFNE01.JPG,AFNE01.JPG,AFNE01.JPG,AFNE01.JPG,AFNE01.JPG,5,5,55,1,,,,,,,,,,,,,,,,,,,,,,,AMSA09.jpg,AMNE06.jpg,AMSA07.jpg,AMNE02.jpg,AMNE06.jpg,MN,1,num_6,16,num_6,0.666866166051,,,2018_Mar_20_1746,60.0049077263,MAFE4ImagesEEG,001,203329,
AFNE01.JPG,AFNE01.JPG,AFNE01.JPG,AFNE01.JPG,AFNE01.JPG,AFNE01.JPG,5,6,56,3,,,,,,,,,,,,,,,,,,,,,,,AMNE04.jpg,AMNE17.jpg,AMSA02.jpg,AMSA03.jpg,AMSA03.jpg,MS,2,num_4,16,num_4,0.550162437838,,,2018_Mar_20_1746,60.0049077263,MAFE4ImagesEEG,001,203329,
AFNE01.JPG,AFNE01.JPG,AFNE01.JPG,AFNE01.JPG,AFNE01.JPG,AFNE01.JPG,5,7,57,9,,,,,,,,,,,,,,,,,,,,,,,AMSA12.jpg,AMNE01.jpg,AMSA01.jpg,AMNE18.jpg,AMNE18.jpg,MN,1,num_4,32,num_8,1.21672999673,,,2018_Mar_20_1746,60.0049077263,MAFE4ImagesEEG,001,203329,
AFNE01.JPG,AFNE01.JPG,AFNE01.JPG,AFNE01.JPG,AFNE01.JPG,AFNE01.JPG,5,8,58,8,,,,,,,,,,,,,,,,,,,,,,,AMSA03.jpg,AMNE17.jpg,AMSA04.jpg,AMNE15.jpg,AMNE15.jpg,MN,1,num_4,32,num_6,0.866775012109,,,2018_Mar_20_1746,60.0049077263,MAFE4ImagesEEG,001,203329,
AFNE01.JPG,AFNE01.JPG,AFNE01.JPG,AFNE01.JPG,AFNE01.JPG,AFNE01.JPG,5,9,59,7,,,,,,,,,,,,,,,,,,,,,,,AMNE09.jpg,AMNE11.jpg,AMSA14.jpg,AMSA12.jpg,AMNE11.jpg,MN,1,num_6,32,num_8,1.8167095976,,,2018_Mar_20_1746,60.0049077263,MAFE4ImagesEEG,001,203329,
,,,,,,,,,,,,,,,,,,,,,,,,,,,,,,,,,,,,,,,,,,,space,32.9642036166,2018_Mar_20_1746,60.0049077263,MAFE4ImagesEEG,001,203329,
AFNE01.JPG,AFNE01.JPG,AFNE01.JPG,AFNE01.JPG,AFNE01.JPG,AFNE01.JPG,,,,,0,0,0,7,,,,,,,,,,,,,,,,,,,AFSA20.jpg,AFNE14.jpg,AFNE08.jpg,AFSA05.jpg,AFNE14.jpg,FN,3,num_6,32,num_2,2.26659623254,,,2018_Mar_20_1746,60.0049077263,MAFE4ImagesEEG,001,203329,
AFNE01.JPG,AFNE01.JPG,AFNE01.JPG,AFNE01.JPG,AFNE01.JPG,AFNE01.JPG,,,,,0,1,1,4,,,,,,,,,,,,,,,,,,,AFSA14.jpg,AFNE12.jpg,AFSA08.jpg,AFNE17.jpg,AFSA08.jpg,FS,4,num_2,32,num_4,0.983546095435,,,2018_Mar_20_1746,60.0049077263,MAFE4ImagesEEG,001,203329,
AFNE01.JPG,AFNE01.JPG,AFNE01.JPG,AFNE01.JPG,AFNE01.JPG,AFNE01.JPG,,,,,0,2,2,1,,,,,,,,,,,,,,,,,,,AFSA02.jpg,AFNE15.jpg,AFSA12.jpg,AFNE11.jpg,AFSA02.jpg,FS,4,num_8,16,num_8,0.766810646281,,,2018_Mar_20_1746,60.0049077263,MAFE4ImagesEEG,001,203329,
AFNE01.JPG,AFNE01.JPG,AFNE01.JPG,AFNE01.JPG,AFNE01.JPG,AFNE01.JPG,,,,,0,3,3,0,,,,,,,,,,,,,,,,,,,AFSA08.jpg,AFSA10.jpg,AFNE16.jpg,AFNE05.jpg,AFSA08.jpg,FS,4,num_8,32,num_6,1.11676210258,,,2018_Mar_20_1746,60.0049077263,MAFE4ImagesEEG,001,203329,
AFNE01.JPG,AFNE01.JPG,AFNE01.JPG,AFNE01.JPG,AFNE01.JPG,AFNE01.JPG,,,,,0,4,4,8,,,,,,,,,,,,,,,,,,,AFSA08.jpg,AFNE19.jpg,AFNE14.jpg,AFSA17.jpg,AFNE14.jpg,FN,3,num_2,16,num_2,1.06679290952,,,2018_Mar_20_1746,60.0049077263,MAFE4ImagesEEG,001,203329,
AFNE01.JPG,AFNE01.JPG,AFNE01.JPG,AFNE01.JPG,AFNE01.JPG,AFNE01.JPG,,,,,0,5,5,9,,,,,,,,,,,,,,,,,,,AFSA13.jpg,AFNE10.jpg,AFNE08.jpg,AFSA16.jpg,AFNE10.jpg,FN,3,num_6,16,num_6,0.700149881188,,,2018_Mar_20_1746,60.0049077263,MAFE4ImagesEEG,001,203329,
AFNE01.JPG,AFNE01.JPG,AFNE01.JPG,AFNE01.JPG,AFNE01.JPG,AFNE01.JPG,,,,,0,6,6,6,,,,,,,,,,,,,,,,,,,AFSA14.jpg,AFNE07.jpg,AFNE01.jpg,AFSA08.jpg,AFSA08.jpg,FS,4,num_4,32,num_2,1.3834625748,,,2018_Mar_20_1746,60.0049077263,MAFE4ImagesEEG,001,203329,
AFNE01.JPG,AFNE01.JPG,AFNE01.JPG,AFNE01.JPG,AFNE01.JPG,AFNE01.JPG,,,,,0,7,7,3,,,,,,,,,,,,,,,,,,,AFSA17.jpg,AFNE07.jpg,AFNE12.jpg,AFSA16.jpg,AFNE12.jpg,FN,3,num_2,16,num_2,0.866772767156,,,2018_Mar_20_1746,60.0049077263,MAFE4ImagesEEG,001,203329,
AFNE01.JPG,AFNE01.JPG,AFNE01.JPG,AFNE01.JPG,AFNE01.JPG,AFNE01.JPG,,,,,0,8,8,5,,,,,,,,,,,,,,,,,,,AFSA17.jpg,AFSA14.jpg,AFNE16.jpg,AFNE04.jpg,AFNE04.jpg,FN,3,num_4,32,num_6,0.833452166989,,,2018_Mar_20_1746,60.0049077263,MAFE4ImagesEEG,001,203329,
AFNE01.JPG,AFNE01.JPG,AFNE01.JPG,AFNE01.JPG,AFNE01.JPG,AFNE01.JPG,,,,,0,9,9,2,,,,,,,,,,,,,,,,,,,AFSA18.jpg,AFNE08.jpg,AFNE18.jpg,AFSA03.jpg,AFSA03.jpg,FS,4,num_4,16,num_4,0.70017105015,,,2018_Mar_20_1746,60.0049077263,MAFE4ImagesEEG,001,203329,
AFNE01.JPG,AFNE01.JPG,AFNE01.JPG,AFNE01.JPG,AFNE01.JPG,AFNE01.JPG,,,,,1,0,10,4,,,,,,,,,,,,,,,,,,,AFSA07.jpg,AFNE06.jpg,AFNE08.jpg,AFSA08.jpg,AFSA07.jpg,FS,4,num_8,32,num_4,1.06705110427,,,2018_Mar_20_1746,60.0049077263,MAFE4ImagesEEG,001,203329,
AFNE01.JPG,AFNE01.JPG,AFNE01.JPG,AFNE01.JPG,AFNE01.JPG,AFNE01.JPG,,,,,1,1,11,0,,,,,,,,,,,,,,,,,,,AFSA02.jpg,AFSA16.jpg,AFNE19.jpg,AFNE08.jpg,AFNE19.jpg,FN,3,num_2,16,num_2,0.666786302347,,,2018_Mar_20_1746,60.0049077263,MAFE4ImagesEEG,001,203329,
AFNE01.JPG,AFNE01.JPG,AFNE01.JPG,AFNE01.JPG,AFNE01.JPG,AFNE01.JPG,,,,,1,2,12,8,,,,,,,,,,,,,,,,,,,AFSA13.jpg,AFNE01.jpg,AFNE19.jpg,AFSA19.jpg,AFSA19.jpg,FS,4,num_4,32,num_2,1.53343526414,,,2018_Mar_20_1746,60.0049077263,MAFE4ImagesEEG,001,203329,
AFNE01.JPG,AFNE01.JPG,AFNE01.JPG,AFNE01.JPG,AFNE01.JPG,AFNE01.JPG,,,,,1,3,13,3,,,,,,,,,,,,,,,,,,,AFNE18.jpg,AFSA07.jpg,AFNE03.jpg,AFSA10.jpg,AFSA07.jpg,FS,4,num_6,32,num_8,1.35009963764,,,2018_Mar_20_1746,60.0049077263,MAFE4ImagesEEG,001,203329,
AFNE01.JPG,AFNE01.JPG,AFNE01.JPG,AFNE01.JPG,AFNE01.JPG,AFNE01.JPG,,,,,1,4,14,1,,,,,,,,,,,,,,,,,,,AFNE01.jpg,AFSA15.jpg,AFSA18.jpg,AFNE19.jpg,AFSA18.jpg,FS,4,num_2,16,num_2,0.550191945862,,,2018_Mar_20_1746,60.0049077263,MAFE4ImagesEEG,001,203329,
AFNE01.JPG,AFNE01.JPG,AFNE01.JPG,AFNE01.JPG,AFNE01.JPG,AFNE01.JPG,,,,,1,5,15,9,,,,,,,,,,,,,,,,,,,AFSA05.jpg,AFNE11.jpg,AFNE03.jpg,AFSA03.jpg,AFNE11.jpg,FN,3,num_6,16,num_6,0.783510237001,,,2018_Mar_20_1746,60.0049077263,MAFE4ImagesEEG,001,203329,
AFNE01.JPG,AFNE01.JPG,AFNE01.JPG,AFNE01.JPG,AFNE01.JPG,AFNE01.JPG,,,,,1,6,16,6,,,,,,,,,,,,,,,,,,,AFSA05.jpg,AFNE08.jpg,AFNE01.jpg,AFSA03.jpg,AFSA03.jpg,FS,4,num_4,16,num_4,0.800295143854,,,2018_Mar_20_1746,60.0049077263,MAFE4ImagesEEG,001,203329,
AFNE01.JPG,AFNE01.JPG,AFNE01.JPG,AFNE01.JPG,AFNE01.JPG,AFNE01.JPG,,,,,1,7,17,5,,,,,,,,,,,,,,,,,,,AFNE08.jpg,AFNE18.jpg,AFSA19.jpg,AFSA04.jpg,AFNE18.jpg,FN,3,num_6,16,num_6,0.766753555275,,,2018_Mar_20_1746,60.0049077263,MAFE4ImagesEEG,001,203329,
AFNE01.JPG,AFNE01.JPG,AFNE01.JPG,AFNE01.JPG,AFNE01.JPG,AFNE01.JPG,,,,,1,8,18,7,,,,,,,,,,,,,,,,,,,AFSA02.jpg,AFNE03.jpg,AFSA06.jpg,AFNE12.jpg,AFNE12.jpg,FN,3,num_4,16,num_4,0.666483845562,,,2018_Mar_20_1746,60.0049077263,MAFE4ImagesEEG,001,203329,
AFNE01.JPG,AFNE01.JPG,AFNE01.JPG,AFNE01.JPG,AFNE01.JPG,AFNE01.JPG,,,,,1,9,19,2,,,,,,,,,,,,,,,,,,,AFNE18.jpg,AFSA11.jpg,AFNE14.jpg,AFSA19.jpg,AFSA11.jpg,FS,4,num_6,32,num_8,1.13347195648,,,2018_Mar_20_1746,60.0049077263,MAFE4ImagesEEG,001,203329,
AFNE01.JPG,AFNE01.JPG,AFNE01.JPG,AFNE01.JPG,AFNE01.JPG,AFNE01.JPG,,,,,2,0,20,6,,,,,,,,,,,,,,,,,,,AFNE04.jpg,AFSA05.jpg,AFSA01.jpg,AFNE16.jpg,AFSA05.jpg,FS,4,num_6,32,num_2,2.00004875194,,,2018_Mar_20_1746,60.0049077263,MAFE4ImagesEEG,001,203329,
AFNE01.JPG,AFNE01.JPG,AFNE01.JPG,AFNE01.JPG,AFNE01.JPG,AFNE01.JPG,,,,,2,1,21,3,,,,,,,,,,,,,,,,,,,AFSA14.jpg,AFSA01.jpg,AFNE18.jpg,AFNE04.jpg,AFSA01.jpg,FS,4,num_6,32,num_8,1.43340771273,,,2018_Mar_20_1746,60.0049077263,MAFE4ImagesEEG,001,203329,
AFNE01.JPG,AFNE01.JPG,AFNE01.JPG,AFNE01.JPG,AFNE01.JPG,AFNE01.JPG,,,,,2,2,22,5,,,,,,,,,,,,,,,,,,,AFNE18.jpg,AFSA14.jpg,AFNE12.jpg,AFSA06.jpg,AFNE18.jpg,FN,3,num_8,32,num_4,0.650130332448,,,2018_Mar_20_1746,60.0049077263,MAFE4ImagesEEG,001,203329,
AFNE01.JPG,AFNE01.JPG,AFNE01.JPG,AFNE01.JPG,AFNE01.JPG,AFNE01.JPG,,,,,2,3,23,4,,,,,,,,,,,,,,,,,,,AFSA15.jpg,AFNE19.jpg,AFSA14.jpg,AFNE08.jpg,AFSA14.jpg,FS,4,num_2,16,num_2,0.91675094096,,,2018_Mar_20_1746,60.0049077263,MAFE4ImagesEEG,001,203329,
AFNE01.JPG,AFNE01.JPG,AFNE01.JPG,AFNE01.JPG,AFNE01.JPG,AFNE01.JPG,,,,,2,4,24,1,,,,,,,,,,,,,,,,,,,AFSA20.jpg,AFNE10.jpg,AFSA08.jpg,AFNE20.jpg,AFSA20.jpg,FS,4,num_8,16,num_8,0.65018870635,,,2018_Mar_20_1746,60.0049077263,MAFE4ImagesEEG,001,203329,
AFNE01.JPG,AFNE01.JPG,AFNE01.JPG,AFNE01.JPG,AFNE01.JPG,AFNE01.JPG,,,,,2,5,25,9,,,,,,,,,,,,,,,,,,,AFNE17.jpg,AFNE07.jpg,AFSA11.jpg,AFSA13.jpg,AFSA11.jpg,FS,4,num_2,16,num_2,0.866800991818,,,2018_Mar_20_1746,60.0049077263,MAFE4ImagesEEG,001,203329,
AFNE01.JPG,AFNE01.JPG,AFNE01.JPG,AFNE01.JPG,AFNE01.JPG,AFNE01.JPG,,,,,2,6,26,7,,,,,,,,,,,,,,,,,,,AFSA14.jpg,AFNE07.jpg,AFSA17.jpg,AFNE10.jpg,AFNE07.jpg,FN,3,num_6,32,num_4,0.800116813276,,,2018_Mar_20_1746,60.0049077263,MAFE4ImagesEEG,001,203329,
AFNE01.JPG,AFNE01.JPG,AFNE01.JPG,AFNE01.JPG,AFNE01.JPG,AFNE01.JPG,,,,,2,7,27,8,,,,,,,,,,,,,,,,,,,AFNE18.jpg,AFNE03.jpg,AFSA10.jpg,AFSA07.jpg,AFNE18.jpg,FN,3,num_8,16,num_8,0.483547218144,,,2018_Mar_20_1746,60.0049077263,MAFE4ImagesEEG,001,203329,
AFNE01.JPG,AFNE01.JPG,AFNE01.JPG,AFNE01.JPG,AFNE01.JPG,AFNE01.JPG,,,,,2,8,28,0,,,,,,,,,,,,,,,,,,,AFSA18.jpg,AFSA05.jpg,AFNE09.jpg,AFNE06.jpg,AFSA18.jpg,FS,4,num_8,16,num_8,3.05005066097,,,2018_Mar_20_1746,60.0049077263,MAFE4ImagesEEG,001,203329,
AFNE01.JPG,AFNE01.JPG,AFNE01.JPG,AFNE01.JPG,AFNE01.JPG,AFNE01.JPG,,,,,2,9,29,2,,,,,,,,,,,,,,,,,,,AFSA04.jpg,AFNE17.jpg,AFSA03.jpg,AFNE19.jpg,AFNE17.jpg,FN,3,num_6,16,num_6,0.866795539856,,,2018_Mar_20_1746,60.0049077263,MAFE4ImagesEEG,001,203329,
AFNE01.JPG,AFNE01.JPG,AFNE01.JPG,AFNE01.JPG,AFNE01.JPG,AFNE01.JPG,,,,,3,0,30,6,,,,,,,,,,,,,,,,,,,AFSA12.jpg,AFNE07.jpg,AFNE01.jpg,AFSA14.jpg,AFSA12.jpg,FS,4,num_8,16,num_8,0.81674295431,,,2018_Mar_20_1746,60.0049077263,MAFE4ImagesEEG,001,203329,
AFNE01.JPG,AFNE01.JPG,AFNE01.JPG,AFNE01.JPG,AFNE01.JPG,AFNE01.JPG,,,,,3,1,31,8,,,,,,,,,,,,,,,,,,,AFNE05.jpg,AFNE17.jpg,AFSA07.jpg,AFSA18.jpg,AFSA07.jpg,FS,4,num_2,32,num_6,2.48339454643,,,2018_Mar_20_1746,60.0049077263,MAFE4ImagesEEG,001,203329,
AFNE01.JPG,AFNE01.JPG,AFNE01.JPG,AFNE01.JPG,AFNE01.JPG,AFNE01.JPG,,,,,3,2,32,5,,,,,,,,,,,,,,,,,,,AFNE02.jpg,AFNE06.jpg,AFSA04.jpg,AFSA15.jpg,AFSA15.jpg,FS,4,num_4,16,num_4,1.03352234466,,,2018_Mar_20_1746,60.0049077263,MAFE4ImagesEEG,001,203329,
AFNE01.JPG,AFNE01.JPG,AFNE01.JPG,AFNE01.JPG,AFNE01.JPG,AFNE01.JPG,,,,,3,3,33,4,,,,,,,,,,,,,,,,,,,AFSA17.jpg,AFNE18.jpg,AFNE01.jpg,AFSA09.jpg,AFSA09.jpg,FS,4,num_4,32,num_8,0.966765358113,,,2018_Mar_20_1746,60.0049077263,MAFE4ImagesEEG,001,203329,
AFNE01.JPG,AFNE01.JPG,AFNE01.JPG,AFNE01.JPG,AFNE01.JPG,AFNE01.JPG,,,,,3,4,34,0,,,,,,,,,,,,,,,,,,,AFSA19.jpg,AFNE17.jpg,AFSA15.jpg,AFNE03.jpg,AFNE03.jpg,FN,3,num_4,16,num_4,0.833474298473,,,2018_Mar_20_1746,60.0049077263,MAFE4ImagesEEG,001,203329,
AFNE01.JPG,AFNE01.JPG,AFNE01.JPG,AFNE01.JPG,AFNE01.JPG,AFNE01.JPG,,,,,3,5,35,1,,,,,,,,,,,,,,,,,,,AFNE15.jpg,AFNE11.jpg,AFSA06.jpg,AFSA20.jpg,AFSA20.jpg,FS,4,num_4,32,num_8,0.816780801862,,,2018_Mar_20_1746,60.0049077263,MAFE4ImagesEEG,001,203329,
AFNE01.JPG,AFNE01.JPG,AFNE01.JPG,AFNE01.JPG,AFNE01.JPG,AFNE01.JPG,,,,,3,6,36,2,,,,,,,,,,,,,,,,,,,AFSA01.jpg,AFSA09.jpg,AFNE12.jpg,AFNE17.jpg,AFSA01.jpg,FS,4,num_8,32,num_6,0.716802002396,,,2018_Mar_20_1746,60.0049077263,MAFE4ImagesEEG,001,203329,
AFNE01.JPG,AFNE01.JPG,AFNE01.JPG,AFNE01.JPG,AFNE01.JPG,AFNE01.JPG,,,,,3,7,37,9,,,,,,,,,,,,,,,,,,,AFNE14.jpg,AFSA13.jpg,AFSA11.jpg,AFNE02.jpg,AFSA11.jpg,FS,4,num_2,32,num_8,1.4667029744,,,2018_Mar_20_1746,60.0049077263,MAFE4ImagesEEG,001,203329,
AFNE01.JPG,AFNE01.JPG,AFNE01.JPG,AFNE01.JPG,AFNE01.JPG,AFNE01.JPG,,,,,3,8,38,3,,,,,,,,,,,,,,,,,,,AFSA19.jpg,AFSA20.jpg,AFNE03.jpg,AFNE19.jpg,AFNE03.jpg,FN,3,num_2,16,num_2,0.750136073679,,,2018_Mar_20_1746,60.0049077263,MAFE4ImagesEEG,001,203329,
AFNE01.JPG,AFNE01.JPG,AFNE01.JPG,AFNE01.JPG,AFNE01.JPG,AFNE01.JPG,,,,,3,9,39,7,,,,,,,,,,,,,,,,,,,AFSA15.jpg,AFSA11.jpg,AFNE01.jpg,AFNE09.jpg,AFSA11.jpg,FS,4,num_6,16,num_6,0.750118433032,,,2018_Mar_20_1746,60.0049077263,MAFE4ImagesEEG,001,203329,
AFNE01.JPG,AFNE01.JPG,AFNE01.JPG,AFNE01.JPG,AFNE01.JPG,AFNE01.JPG,,,,,4,0,40,5,,,,,,,,,,,,,,,,,,,AFSA10.jpg,AFNE20.jpg,AFNE01.jpg,AFSA14.jpg,AFNE20.jpg,FN,3,num_6,32,num_8,0.850107174832,,,2018_Mar_20_1746,60.0049077263,MAFE4ImagesEEG,001,203329,
AFNE01.JPG,AFNE01.JPG,AFNE01.JPG,AFNE01.JPG,AFNE01.JPG,AFNE01.JPG,,,,,4,1,41,4,,,,,,,,,,,,,,,,,,,AFNE07.jpg,AFSA03.jpg,AFSA08.jpg,AFNE02.jpg,AFSA08.jpg,FS,4,num_2,32,num_8,0.950097199995,,,2018_Mar_20_1746,60.0049077263,MAFE4ImagesEEG,001,203329,
AFNE01.JPG,AFNE01.JPG,AFNE01.JPG,AFNE01.JPG,AFNE01.JPG,AFNE01.JPG,,,,,4,2,42,1,,,,,,,,,,,,,,,,,,,AFSA18.jpg,AFSA01.jpg,AFNE12.jpg,AFNE09.jpg,AFNE09.jpg,FN,3,num_4,16,num_4,1.11680091219,,,2018_Mar_20_1746,60.0049077263,MAFE4ImagesEEG,001,203329,
AFNE01.JPG,AFNE01.JPG,AFNE01.JPG,AFNE01.JPG,AFNE01.JPG,AFNE01.JPG,,,,,4,3,43,6,,,,,,,,,,,,,,,,,,,AFSA15.jpg,AFSA14.jpg,AFNE15.jpg,AFNE01.jpg,AFNE15.jpg,FN,3,num_2,16,num_2,0.900118384976,,,2018_Mar_20_1746,60.0049077263,MAFE4ImagesEEG,001,203329,
AFNE01.JPG,AFNE01.JPG,AFNE01.JPG,AFNE01.JPG,AFNE01.JPG,AFNE01.JPG,,,,,4,4,44,0,,,,,,,,,,,,,,,,,,,AFNE18.jpg,AFSA17.jpg,AFSA06.jpg,AFNE16.jpg,AFNE16.jpg,FN,3,num_4,16,num_4,0.966741944198,,,2018_Mar_20_1746,60.0049077263,MAFE4ImagesEEG,001,203329,
AFNE01.JPG,AFNE01.JPG,AFNE01.JPG,AFNE01.JPG,AFNE01.JPG,AFNE01.JPG,,,,,4,5,45,3,,,,,,,,,,,,,,,,,,,AFSA17.jpg,AFSA05.jpg,AFNE04.jpg,AFNE19.jpg,AFSA05.jpg,FS,4,num_6,16,num_6,0.666794641409,,,2018_Mar_20_1746,60.0049077263,MAFE4ImagesEEG,001,203329,
AFNE01.JPG,AFNE01.JPG,AFNE01.JPG,AFNE01.JPG,AFNE01.JPG,AFNE01.JPG,,,,,4,6,46,7,,,,,,,,,,,,,,,,,,,AFNE12.jpg,AFNE15.jpg,AFSA08.jpg,AFSA14.jpg,AFNE15.jpg,FN,3,num_6,16,num_6,0.616732113529,,,2018_Mar_20_1746,60.0049077263,MAFE4ImagesEEG,001,203329,
AFNE01.JPG,AFNE01.JPG,AFNE01.JPG,AFNE01.JPG,AFNE01.JPG,AFNE01.JPG,,,,,4,7,47,8,,,,,,,,,,,,,,,,,,,AFNE13.jpg,AFNE01.jpg,AFSA06.jpg,AFSA19.jpg,AFNE13.jpg,FN,3,num_8,16,num_8,1.38346546143,,,2018_Mar_20_1746,60.0049077263,MAFE4ImagesEEG,001,203329,
AFNE01.JPG,AFNE01.JPG,AFNE01.JPG,AFNE01.JPG,AFNE01.JPG,AFNE01.JPG,,,,,4,8,48,2,,,,,,,,,,,,,,,,,,,AFSA08.jpg,AFSA10.jpg,AFNE10.jpg,AFNE14.jpg,AFNE14.jpg,FN,3,num_4,32,num_6,1.65005431743,,,2018_Mar_20_1746,60.0049077263,MAFE4ImagesEEG,001,203329,
AFNE01.JPG,AFNE01.JPG,AFNE01.JPG,AFNE01.JPG,AFNE01.JPG,AFNE01.JPG,,,,,4,9,49,9,,,,,,,,,,,,,,,,,,,AFNE14.jpg,AFSA04.jpg,AFSA13.jpg,AFNE04.jpg,AFSA13.jpg,FS,4,num_2,16,num_2,1.68341180217,,,2018_Mar_20_1746,60.0049077263,MAFE4ImagesEEG,001,203329,
AFNE01.JPG,AFNE01.JPG,AFNE01.JPG,AFNE01.JPG,AFNE01.JPG,AFNE01.JPG,,,,,5,0,50,0,,,,,,,,,,,,,,,,,,,AFNE18.jpg,AFSA20.jpg,AFNE06.jpg,AFSA11.jpg,AFNE18.jpg,FN,3,num_8,16,num_8,0.500171435066,,,2018_Mar_20_1746,60.0049077263,MAFE4ImagesEEG,001,203329,
AFNE01.JPG,AFNE01.JPG,AFNE01.JPG,AFNE01.JPG,AFNE01.JPG,AFNE01.JPG,,,,,5,1,51,2,,,,,,,,,,,,,,,,,,,AFNE13.jpg,AFSA09.jpg,AFSA19.jpg,AFNE05.jpg,AFSA09.jpg,FS,4,num_6,32,num_4,1.96671436075,,,2018_Mar_20_1746,60.0049077263,MAFE4ImagesEEG,001,203329,
AFNE01.JPG,AFNE01.JPG,AFNE01.JPG,AFNE01.JPG,AFNE01.JPG,AFNE01.JPG,,,,,5,2,52,5,,,,,,,,,,,,,,,,,,,AFNE05.jpg,AFSA05.jpg,AFNE04.jpg,AFSA11.jpg,AFSA05.jpg,FS,4,num_6,16,num_6,0.850128022954,,,2018_Mar_20_1746,60.0049077263,MAFE4ImagesEEG,001,203329,
AFNE01.JPG,AFNE01.JPG,AFNE01.JPG,AFNE01.JPG,AFNE01.JPG,AFNE01.JPG,,,,,5,3,53,9,,,,,,,,,,,,,,,,,,,AFSA06.jpg,AFSA15.jpg,AFNE02.jpg,AFNE13.jpg,AFSA15.jpg,FS,4,num_6,16,num_6,0.80019250745,,,2018_Mar_20_1746,60.0049077263,MAFE4ImagesEEG,001,203329,
AFNE01.JPG,AFNE01.JPG,AFNE01.JPG,AFNE01.JPG,AFNE01.JPG,AFNE01.JPG,,,,,5,4,54,4,,,,,,,,,,,,,,,,,,,AFSA19.jpg,AFSA05.jpg,AFNE02.jpg,AFNE04.jpg,AFNE02.jpg,FN,3,num_2,32,num_8,0.733482348733,,,2018_Mar_20_1746,60.0049077263,MAFE4ImagesEEG,001,203329,
AFNE01.JPG,AFNE01.JPG,AFNE01.JPG,AFNE01.JPG,AFNE01.JPG,AFNE01.JPG,,,,,5,5,55,7,,,,,,,,,,,,,,,,,,,AFNE11.jpg,AFSA06.jpg,AFNE01.jpg,AFSA13.jpg,AFNE11.jpg,FN,3,num_8,32,num_4,1.45006400347,,,2018_Mar_20_1746,60.0049077263,MAFE4ImagesEEG,001,203329,
AFNE01.JPG,AFNE01.JPG,AFNE01.JPG,AFNE01.JPG,AFNE01.JPG,AFNE01.JPG,,,,,5,6,56,6,,,,,,,,,,,,,,,,,,,AFSA13.jpg,AFSA07.jpg,AFNE11.jpg,AFNE09.jpg,AFSA07.jpg,FS,4,num_6,16,num_6,0.850170040037,,,2018_Mar_20_1746,60.0049077263,MAFE4ImagesEEG,001,203329,
AFNE01.JPG,AFNE01.JPG,AFNE01.JPG,AFNE01.JPG,AFNE01.JPG,AFNE01.JPG,,,,,5,7,57,3,,,,,,,,,,,,,,,,,,,AFSA09.jpg,AFNE18.jpg,AFNE06.jpg,AFSA07.jpg,AFNE06.jpg,FN,3,num_2,32,num_6,0.950112916064,,,2018_Mar_20_1746,60.0049077263,MAFE4ImagesEEG,001,203329,
AFNE01.JPG,AFNE01.JPG,AFNE01.JPG,AFNE01.JPG,AFNE01.JPG,AFNE01.JPG,,,,,5,8,58,1,,,,,,,,,,,,,,,,,,,AFSA06.jpg,AFNE14.jpg,AFSA03.jpg,AFNE13.jpg,AFNE13.jpg,FN,3,num_4,32,num_6,0.433450371027,,,2018_Mar_20_1746,60.0049077263,MAFE4ImagesEEG,001,203329,
AFNE01.JPG,AFNE01.JPG,AFNE01.JPG,AFNE01.JPG,AFNE01.JPG,AFNE01.JPG,,,,,5,9,59,8,,,,,,,,,,,,,,,,,,,AFSA09.jpg,AFNE11.jpg,AFNE07.jpg,AFSA05.jpg,AFNE11.jpg,FN,3,num_6,32,num_8,1.00011642836,,,2018_Mar_20_1746,60.0049077263,MAFE4ImagesEEG,001,203329,
,,,,,,,,,,,,,,,,,,,,,,,,,,,,,,,,,,,,,,,,,,,space,18.9650308019,2018_Mar_20_1746,60.0049077263,MAFE4ImagesEEG,001,203329,
AFNE01.JPG,AFNE01.JPG,AFNE01.JPG,AFNE01.JPG,AFNE01.JPG,AFNE01.JPG,,,,,,,,,0,0,0,1,,,,,,,,,,,,,,,AMSA18.jpg,AMNE03.jpg,AMNE01.jpg,AMSA17.jpg,AMNE01.jpg,MN,1,num_2,16,num_2,0.733516667504,,,2018_Mar_20_1746,60.0049077263,MAFE4ImagesEEG,001,203329,
AFNE01.JPG,AFNE01.JPG,AFNE01.JPG,AFNE01.JPG,AFNE01.JPG,AFNE01.JPG,,,,,,,,,0,1,1,2,,,,,,,,,,,,,,,AMSA07.jpg,AMNE01.jpg,AMNE07.jpg,AMSA08.jpg,AMNE07.jpg,MN,1,num_2,16,num_2,0.733481065836,,,2018_Mar_20_1746,60.0049077263,MAFE4ImagesEEG,001,203329,
AFNE01.JPG,AFNE01.JPG,AFNE01.JPG,AFNE01.JPG,AFNE01.JPG,AFNE01.JPG,,,,,,,,,0,2,2,9,,,,,,,,,,,,,,,AMNE15.jpg,AMSA06.jpg,AMSA05.jpg,AMNE11.jpg,AMNE15.jpg,MN,1,num_8,16,num_8,0.916768581606,,,2018_Mar_20_1746,60.0049077263,MAFE4ImagesEEG,001,203329,
AFNE01.JPG,AFNE01.JPG,AFNE01.JPG,AFNE01.JPG,AFNE01.JPG,AFNE01.JPG,,,,,,,,,0,3,3,3,,,,,,,,,,,,,,,AMNE15.jpg,AMNE10.jpg,AMSA20.jpg,AMSA10.jpg,AMNE10.jpg,MN,1,num_6,16,num_6,1.01677015284,,,2018_Mar_20_1746,60.0049077263,MAFE4ImagesEEG,001,203329,
AFNE01.JPG,AFNE01.JPG,AFNE01.JPG,AFNE01.JPG,AFNE01.JPG,AFNE01.JPG,,,,,,,,,0,4,4,7,,,,,,,,,,,,,,,AMSA17.jpg,AMSA19.jpg,AMNE03.jpg,AMNE09.jpg,AMNE09.jpg,MN,1,num_4,16,num_4,0.800182243809,,,2018_Mar_20_1746,60.0049077263,MAFE4ImagesEEG,001,203329,
AFNE01.JPG,AFNE01.JPG,AFNE01.JPG,AFNE01.JPG,AFNE01.JPG,AFNE01.JPG,,,,,,,,,0,5,5,4,,,,,,,,,,,,,,,AMNE03.jpg,AMSA18.jpg,AMSA02.jpg,AMNE07.jpg,AMSA02.jpg,MS,2,num_2,16,num_2,0.833453771193,,,2018_Mar_20_1746,60.0049077263,MAFE4ImagesEEG,001,203329,
AFNE01.JPG,AFNE01.JPG,AFNE01.JPG,AFNE01.JPG,AFNE01.JPG,AFNE01.JPG,,,,,,,,,0,6,6,8,,,,,,,,,,,,,,,AMSA19.jpg,AMNE20.jpg,AMNE05.jpg,AMSA09.jpg,AMNE05.jpg,MN,1,num_2,32,num_4,1.23340553138,,,2018_Mar_20_1746,60.0049077263,MAFE4ImagesEEG,001,203329,
AFNE01.JPG,AFNE01.JPG,AFNE01.JPG,AFNE01.JPG,AFNE01.JPG,AFNE01.JPG,,,,,,,,,0,7,7,5,,,,,,,,,,,,,,,AMSA08.jpg,AMNE07.jpg,AMNE08.jpg,AMSA05.jpg,AMNE07.jpg,MN,1,num_6,16,num_6,0.78343646694,,,2018_Mar_20_1746,60.0049077263,MAFE4ImagesEEG,001,203329,
AFNE01.JPG,AFNE01.JPG,AFNE01.JPG,AFNE01.JPG,AFNE01.JPG,AFNE01.JPG,,,,,,,,,0,8,8,0,,,,,,,,,,,,,,,AMSA14.jpg,AMNE12.jpg,AMNE17.jpg,AMSA01.jpg,AMSA14.jpg,MS,2,num_8,16,num_8,0.783542631194,,,2018_Mar_20_1746,60.0049077263,MAFE4ImagesEEG,001,203329,
AFNE01.JPG,AFNE01.JPG,AFNE01.JPG,AFNE01.JPG,AFNE01.JPG,AFNE01.JPG,,,,,,,,,0,9,9,6,,,,,,,,,,,,,,,AMNE15.jpg,AMSA15.jpg,AMSA03.jpg,AMNE02.jpg,AMSA03.jpg,MS,2,num_2,32,num_6,1.15010932367,,,2018_Mar_20_1746,60.0049077263,MAFE4ImagesEEG,001,203329,
AFNE01.JPG,AFNE01.JPG,AFNE01.JPG,AFNE01.JPG,AFNE01.JPG,AFNE01.JPG,,,,,,,,,1,0,10,7,,,,,,,,,,,,,,,AMSA09.jpg,AMNE06.jpg,AMSA20.jpg,AMNE13.jpg,AMNE13.jpg,MN,1,num_4,16,num_4,0.766791081056,,,2018_Mar_20_1746,60.0049077263,MAFE4ImagesEEG,001,203329,
AFNE01.JPG,AFNE01.JPG,AFNE01.JPG,AFNE01.JPG,AFNE01.JPG,AFNE01.JPG,,,,,,,,,1,1,11,2,,,,,,,,,,,,,,,AMSA06.jpg,AMNE15.jpg,AMSA05.jpg,AMNE05.jpg,AMSA06.jpg,MS,2,num_8,32,num_4,2.15005383641,,,2018_Mar_20_1746,60.0049077263,MAFE4ImagesEEG,001,203329,
AFNE01.JPG,AFNE01.JPG,AFNE01.JPG,AFNE01.JPG,AFNE01.JPG,AFNE01.JPG,,,,,,,,,1,2,12,1,,,,,,,,,,,,,,,AMSA14.jpg,AMSA11.jpg,AMNE20.jpg,AMNE11.jpg,AMNE20.jpg,MN,1,num_2,16,num_2,0.816645449493,,,2018_Mar_20_1746,60.0049077263,MAFE4ImagesEEG,001,203329,
AFNE01.JPG,AFNE01.JPG,AFNE01.JPG,AFNE01.JPG,AFNE01.JPG,AFNE01.JPG,,,,,,,,,1,3,13,3,,,,,,,,,,,,,,,AMNE19.jpg,AMNE01.jpg,AMSA09.jpg,AMSA05.jpg,AMNE19.jpg,MN,1,num_8,16,num_8,0.883400832769,,,2018_Mar_20_1746,60.0049077263,MAFE4ImagesEEG,001,203329,
AFNE01.JPG,AFNE01.JPG,AFNE01.JPG,AFNE01.JPG,AFNE01.JPG,AFNE01.JPG,,,,,,,,,1,4,14,0,,,,,,,,,,,,,,,AMNE11.jpg,AMSA02.jpg,AMNE15.jpg,AMSA15.jpg,AMNE11.jpg,MN,1,num_8,16,num_8,0.866784634534,,,2018_Mar_20_1746,60.0049077263,MAFE4ImagesEEG,001,203329,
AFNE01.JPG,AFNE01.JPG,AFNE01.JPG,AFNE01.JPG,AFNE01.JPG,AFNE01.JPG,,,,,,,,,1,5,15,9,,,,,,,,,,,,,,,AMNE03.jpg,AMSA03.jpg,AMSA14.jpg,AMNE08.jpg,AMSA03.jpg,MS,2,num_6,16,num_6,0.466842174996,,,2018_Mar_20_1746,60.0049077263,MAFE4ImagesEEG,001,203329,
AFNE01.JPG,AFNE01.JPG,AFNE01.JPG,AFNE01.JPG,AFNE01.JPG,AFNE01.JPG,,,,,,,,,1,6,16,4,,,,,,,,,,,,,,,AMNE15.jpg,AMSA09.jpg,AMNE14.jpg,AMSA19.jpg,AMSA19.jpg,MS,2,num_4,16,num_4,0.716750042513,,,2018_Mar_20_1746,60.0049077263,MAFE4ImagesEEG,001,203329,
AFNE01.JPG,AFNE01.JPG,AFNE01.JPG,AFNE01.JPG,AFNE01.JPG,AFNE01.JPG,,,,,,,,,1,7,17,8,,,,,,,,,,,,,,,AMSA07.jpg,AMNE05.jpg,AMNE15.jpg,AMSA12.jpg,AMNE15.jpg,MN,1,num_2,32,num_4,0.983444421086,,,2018_Mar_20_1746,60.0049077263,MAFE4ImagesEEG,001,203329,
AFNE01.JPG,AFNE01.JPG,AFNE01.JPG,AFNE01.JPG,AFNE01.JPG,AFNE01.JPG,,,,,,,,,1,8,18,5,,,,,,,,,,,,,,,AMSA18.jpg,AMNE05.jpg,AMSA15.jpg,AMNE13.jpg,AMNE13.jpg,MN,1,num_4,32,num_6,1.10018118564,,,2018_Mar_20_1746,60.0049077263,MAFE4ImagesEEG,001,203329,
AFNE01.JPG,AFNE01.JPG,AFNE01.JPG,AFNE01.JPG,AFNE01.JPG,AFNE01.JPG,,,,,,,,,1,9,19,6,,,,,,,,,,,,,,,AMNE19.jpg,AMSA12.jpg,AMNE11.jpg,AMSA08.jpg,AMSA12.jpg,MS,2,num_6,32,num_4,2.18342447141,,,2018_Mar_20_1746,60.0049077263,MAFE4ImagesEEG,001,203329,
AFNE01.JPG,AFNE01.JPG,AFNE01.JPG,AFNE01.JPG,AFNE01.JPG,AFNE01.JPG,,,,,,,,,2,0,20,1,,,,,,,,,,,,,,,AMNE09.jpg,AMNE20.jpg,AMSA12.jpg,AMSA11.jpg,AMNE09.jpg,MN,1,num_8,32,num_6,0.900101706386,,,2018_Mar_20_1746,60.0049077263,MAFE4ImagesEEG,001,203329,
AFNE01.JPG,AFNE01.JPG,AFNE01.JPG,AFNE01.JPG,AFNE01.JPG,AFNE01.JPG,,,,,,,,,2,1,21,9,,,,,,,,,,,,,,,AMNE13.jpg,AMSA17.jpg,AMNE11.jpg,AMSA20.jpg,AMNE11.jpg,MN,1,num_2,16,num_2,1.16664405446,,,2018_Mar_20_1746,60.0049077263,MAFE4ImagesEEG,001,203329,
AFNE01.JPG,AFNE01.JPG,AFNE01.JPG,AFNE01.JPG,AFNE01.JPG,AFNE01.JPG,,,,,,,,,2,2,22,2,,,,,,,,,,,,,,,AMSA15.jpg,AMSA08.jpg,AMNE05.jpg,AMNE17.jpg,AMSA15.jpg,MS,2,num_8,32,num_6,2.35005729971,,,2018_Mar_20_1746,60.0049077263,MAFE4ImagesEEG,001,203329,
AFNE01.JPG,AFNE01.JPG,AFNE01.JPG,AFNE01.JPG,AFNE01.JPG,AFNE01.JPG,,,,,,,,,2,3,23,0,,,,,,,,,,,,,,,AMSA18.jpg,AMNE15.jpg,AMSA10.jpg,AMNE13.jpg,AMNE15.jpg,MN,1,num_6,32,num_4,2.41667412361,,,2018_Mar_20_1746,60.0049077263,MAFE4ImagesEEG,001,203329,
AFNE01.JPG,AFNE01.JPG,AFNE01.JPG,AFNE01.JPG,AFNE01.JPG,AFNE01.JPG,,,,,,,,,2,4,24,6,,,,,,,,,,,,,,,AMSA13.jpg,AMNE13.jpg,AMNE10.jpg,AMSA11.jpg,AMSA11.jpg,MS,2,num_4,16,num_4,0.516815217212,,,2018_Mar_20_1746,60.0049077263,MAFE4ImagesEEG,001,203329,
AFNE01.JPG,AFNE01.JPG,AFNE01.JPG,AFNE01.JPG,AFNE01.JPG,AFNE01.JPG,,,,,,,,,2,5,25,3,,,,,,,,,,,,,,,AMSA12.jpg,AMNE05.jpg,AMSA08.jpg,AMNE03.jpg,AMNE03.jpg,MN,1,num_4,16,num_4,0.85011519352,,,2018_Mar_20_1746,60.0049077263,MAFE4ImagesEEG,001,203329,
AFNE01.JPG,AFNE01.JPG,AFNE01.JPG,AFNE01.JPG,AFNE01.JPG,AFNE01.JPG,,,,,,,,,2,6,26,7,,,,,,,,,,,,,,,AMSA05.jpg,AMNE17.jpg,AMNE05.jpg,AMSA13.jpg,AMNE05.jpg,MN,1,num_2,32,num_8,0.983494135551,,,2018_Mar_20_1746,60.0049077263,MAFE4ImagesEEG,001,203329,
AFNE01.JPG,AFNE01.JPG,AFNE01.JPG,AFNE01.JPG,AFNE01.JPG,AFNE01.JPG,,,,,,,,,2,7,27,8,,,,,,,,,,,,,,,AMNE03.jpg,AMSA08.jpg,AMNE15.jpg,AMSA09.jpg,AMNE03.jpg,MN,1,num_8,32,num_6,0.700181955006,,,2018_Mar_20_1746,60.0049077263,MAFE4ImagesEEG,001,203329,
AFNE01.JPG,AFNE01.JPG,AFNE01.JPG,AFNE01.JPG,AFNE01.JPG,AFNE01.JPG,,,,,,,,,2,8,28,5,,,,,,,,,,,,,,,AMNE20.jpg,AMSA19.jpg,AMSA07.jpg,AMNE05.jpg,AMNE05.jpg,MN,1,num_4,16,num_4,0.983438327443,,,2018_Mar_20_1746,60.0049077263,MAFE4ImagesEEG,001,203329,
AFNE01.JPG,AFNE01.JPG,AFNE01.JPG,AFNE01.JPG,AFNE01.JPG,AFNE01.JPG,,,,,,,,,2,9,29,4,,,,,,,,,,,,,,,AMNE06.jpg,AMSA10.jpg,AMNE14.jpg,AMSA02.jpg,AMNE14.jpg,MN,1,num_2,16,num_2,0.766798778903,,,2018_Mar_20_1746,60.0049077263,MAFE4ImagesEEG,001,203329,
AFNE01.JPG,AFNE01.JPG,AFNE01.JPG,AFNE01.JPG,AFNE01.JPG,AFNE01.JPG,,,,,,,,,3,0,30,0,,,,,,,,,,,,,,,AMSA13.jpg,AMNE07.jpg,AMNE20.jpg,AMSA11.jpg,AMSA11.jpg,MS,2,num_4,16,num_4,0.999770671595,,,2018_Mar_20_1746,60.0049077263,MAFE4ImagesEEG,001,203329,
AFNE01.JPG,AFNE01.JPG,AFNE01.JPG,AFNE01.JPG,AFNE01.JPG,AFNE01.JPG,,,,,,,,,3,1,31,9,,,,,,,,,,,,,,,AMSA15.jpg,AMSA17.jpg,AMNE15.jpg,AMNE12.jpg,AMNE15.jpg,MN,1,num_2,16,num_2,1.26677071443,,,2018_Mar_20_1746,60.0049077263,MAFE4ImagesEEG,001,203329,
AFNE01.JPG,AFNE01.JPG,AFNE01.JPG,AFNE01.JPG,AFNE01.JPG,AFNE01.JPG,,,,,,,,,3,2,32,3,,,,,,,,,,,,,,,AMSA11.jpg,AMSA14.jpg,AMNE05.jpg,AMNE08.jpg,AMSA11.jpg,MS,2,num_8,16,num_8,0.433493029326,,,2018_Mar_20_1746,60.0049077263,MAFE4ImagesEEG,001,203329,
AFNE01.JPG,AFNE01.JPG,AFNE01.JPG,AFNE01.JPG,AFNE01.JPG,AFNE01.JPG,,,,,,,,,3,3,33,7,,,,,,,,,,,,,,,AMNE08.jpg,AMSA02.jpg,AMSA01.jpg,AMNE13.jpg,AMNE08.jpg,MN,1,num_8,32,num_4,0.93344764458,,,2018_Mar_20_1746,60.0049077263,MAFE4ImagesEEG,001,203329,
AFNE01.JPG,AFNE01.JPG,AFNE01.JPG,AFNE01.JPG,AFNE01.JPG,AFNE01.JPG,,,,,,,,,3,4,34,1,,,,,,,,,,,,,,,AMSA10.jpg,AMNE06.jpg,AMSA02.jpg,AMNE09.jpg,AMNE09.jpg,MN,1,num_4,32,num_8,0.900149175432,,,2018_Mar_20_1746,60.0049077263,MAFE4ImagesEEG,001,203329,
AFNE01.JPG,AFNE01.JPG,AFNE01.JPG,AFNE01.JPG,AFNE01.JPG,AFNE01.JPG,,,,,,,,,3,5,35,6,,,,,,,,,,,,,,,AMNE07.jpg,AMNE03.jpg,AMSA05.jpg,AMSA15.jpg,AMNE07.jpg,MN,1,num_8,16,num_8,0.666793037672,,,2018_Mar_20_1746,60.0049077263,MAFE4ImagesEEG,001,203329,
AFNE01.JPG,AFNE01.JPG,AFNE01.JPG,AFNE01.JPG,AFNE01.JPG,AFNE01.JPG,,,,,,,,,3,6,36,8,,,,,,,,,,,,,,,AMSA09.jpg,AMNE09.jpg,AMSA15.jpg,AMNE16.jpg,AMSA15.jpg,MS,2,num_2,32,num_8,0.766647710931,,,2018_Mar_20_1746,60.0049077263,MAFE4ImagesEEG,001,203329,
AFNE01.JPG,AFNE01.JPG,AFNE01.JPG,AFNE01.JPG,AFNE01.JPG,AFNE01.JPG,,,,,,,,,3,7,37,5,,,,,,,,,,,,,,,AMSA03.jpg,AMNE02.jpg,AMSA06.jpg,AMNE05.jpg,AMNE05.jpg,MN,1,num_4,16,num_4,2.13336226437,,,2018_Mar_20_1746,60.0049077263,MAFE4ImagesEEG,001,203329,
AFNE01.JPG,AFNE01.JPG,AFNE01.JPG,AFNE01.JPG,AFNE01.JPG,AFNE01.JPG,,,,,,,,,3,8,38,2,,,,,,,,,,,,,,,AMSA09.jpg,AMSA17.jpg,AMNE11.jpg,AMNE16.jpg,AMNE16.jpg,MN,1,num_4,16,num_4,1.10009939689,,,2018_Mar_20_1746,60.0049077263,MAFE4ImagesEEG,001,203329,
AFNE01.JPG,AFNE01.JPG,AFNE01.JPG,AFNE01.JPG,AFNE01.JPG,AFNE01.JPG,,,,,,,,,3,9,39,4,,,,,,,,,,,,,,,AMSA04.jpg,AMNE08.jpg,AMSA16.jpg,AMNE19.jpg,AMSA04.jpg,MS,2,num_8,16,num_8,0.733452519868,,,2018_Mar_20_1746,60.0049077263,MAFE4ImagesEEG,001,203329,
AFNE01.JPG,AFNE01.JPG,AFNE01.JPG,AFNE01.JPG,AFNE01.JPG,AFNE01.JPG,,,,,,,,,4,0,40,7,,,,,,,,,,,,,,,AMSA07.jpg,AMNE18.jpg,AMSA11.jpg,AMNE17.jpg,AMSA07.jpg,MS,2,num_8,16,num_8,0.850182869472,,,2018_Mar_20_1746,60.0049077263,MAFE4ImagesEEG,001,203329,
AFNE01.JPG,AFNE01.JPG,AFNE01.JPG,AFNE01.JPG,AFNE01.JPG,AFNE01.JPG,,,,,,,,,4,1,41,6,,,,,,,,,,,,,,,AMNE14.jpg,AMSA16.jpg,AMSA19.jpg,AMNE16.jpg,AMSA19.jpg,MS,2,num_2,16,num_2,1.15014524665,,,2018_Mar_20_1746,60.0049077263,MAFE4ImagesEEG,001,203329,
AFNE01.JPG,AFNE01.JPG,AFNE01.JPG,AFNE01.JPG,AFNE01.JPG,AFNE01.JPG,,,,,,,,,4,2,42,3,,,,,,,,,,,,,,,AMNE16.jpg,AMSA20.jpg,AMNE06.jpg,AMSA08.jpg,AMNE16.jpg,MN,1,num_8,16,num_8,0.733481707051,,,2018_Mar_20_1746,60.0049077263,MAFE4ImagesEEG,001,203329,
AFNE01.JPG,AFNE01.JPG,AFNE01.JPG,AFNE01.JPG,AFNE01.JPG,AFNE01.JPG,,,,,,,,,4,3,43,8,,,,,,,,,,,,,,,AMNE17.jpg,AMSA10.jpg,AMSA15.jpg,AMNE02.jpg,AMNE17.jpg,MN,1,num_8,32,num_2,1.21679125773,,,2018_Mar_20_1746,60.0049077263,MAFE4ImagesEEG,001,203329,
AFNE01.JPG,AFNE01.JPG,AFNE01.JPG,AFNE01.JPG,AFNE01.JPG,AFNE01.JPG,,,,,,,,,4,4,44,1,,,,,,,,,,,,,,,AMNE08.jpg,AMNE05.jpg,AMSA01.jpg,AMSA20.jpg,AMSA20.jpg,MS,2,num_4,16,num_4,0.583453209139,,,2018_Mar_20_1746,60.0049077263,MAFE4ImagesEEG,001,203329,
AFNE01.JPG,AFNE01.JPG,AFNE01.JPG,AFNE01.JPG,AFNE01.JPG,AFNE01.JPG,,,,,,,,,4,5,45,0,,,,,,,,,,,,,,,AMSA20.jpg,AMNE06.jpg,AMNE12.jpg,AMSA01.jpg,AMSA20.jpg,MS,2,num_8,16,num_8,0.933494472411,,,2018_Mar_20_1746,60.0049077263,MAFE4ImagesEEG,001,203329,
AFNE01.JPG,AFNE01.JPG,AFNE01.JPG,AFNE01.JPG,AFNE01.JPG,AFNE01.JPG,,,,,,,,,4,6,46,2,,,,,,,,,,,,,,,AMSA06.jpg,AMSA11.jpg,AMNE07.jpg,AMNE16.jpg,AMNE07.jpg,MN,1,num_2,16,num_2,3.36656091874,,,2018_Mar_20_1746,60.0049077263,MAFE4ImagesEEG,001,203329,
AFNE01.JPG,AFNE01.JPG,AFNE01.JPG,AFNE01.JPG,AFNE01.JPG,AFNE01.JPG,,,,,,,,,4,7,47,4,,,,,,,,,,,,,,,AMNE16.jpg,AMSA16.jpg,AMSA15.jpg,AMNE10.jpg,AMSA15.jpg,MS,2,num_2,16,num_2,1.38342953892,,,2018_Mar_20_1746,60.0049077263,MAFE4ImagesEEG,001,203329,
AFNE01.JPG,AFNE01.JPG,AFNE01.JPG,AFNE01.JPG,AFNE01.JPG,AFNE01.JPG,,,,,,,,,4,8,48,9,,,,,,,,,,,,,,,AMNE07.jpg,AMSA20.jpg,AMNE19.jpg,AMSA04.jpg,AMSA20.jpg,MS,2,num_6,16,num_6,0.766776968725,,,2018_Mar_20_1746,60.0049077263,MAFE4ImagesEEG,001,203329,
AFNE01.JPG,AFNE01.JPG,AFNE01.JPG,AFNE01.JPG,AFNE01.JPG,AFNE01.JPG,,,,,,,,,4,9,49,5,,,,,,,,,,,,,,,AMSA04.jpg,AMNE18.jpg,AMNE14.jpg,AMSA18.jpg,AMSA04.jpg,MS,2,num_8,16,num_8,0.466821968555,,,2018_Mar_20_1746,60.0049077263,MAFE4ImagesEEG,001,203329,
AFNE01.JPG,AFNE01.JPG,AFNE01.JPG,AFNE01.JPG,AFNE01.JPG,AFNE01.JPG,,,,,,,,,5,0,50,0,,,,,,,,,,,,,,,AMNE12.jpg,AMSA11.jpg,AMNE08.jpg,AMSA07.jpg,AMSA07.jpg,MS,2,num_4,32,num_8,0.783473993186,,,2018_Mar_20_1746,60.0049077263,MAFE4ImagesEEG,001,203329,
AFNE01.JPG,AFNE01.JPG,AFNE01.JPG,AFNE01.JPG,AFNE01.JPG,AFNE01.JPG,,,,,,,,,5,1,51,7,,,,,,,,,,,,,,,AMNE16.jpg,AMSA06.jpg,AMSA04.jpg,AMNE09.jpg,AMNE16.jpg,MN,1,num_8,32,num_2,2.13338824362,,,2018_Mar_20_1746,60.0049077263,MAFE4ImagesEEG,001,203329,
AFNE01.JPG,AFNE01.JPG,AFNE01.JPG,AFNE01.JPG,AFNE01.JPG,AFNE01.JPG,,,,,,,,,5,2,52,9,,,,,,,,,,,,,,,AMNE18.jpg,AMSA01.jpg,AMSA11.jpg,AMNE03.jpg,AMNE18.jpg,MN,1,num_8,16,num_8,0.783541348763,,,2018_Mar_20_1746,60.0049077263,MAFE4ImagesEEG,001,203329,
AFNE01.JPG,AFNE01.JPG,AFNE01.JPG,AFNE01.JPG,AFNE01.JPG,AFNE01.JPG,,,,,,,,,5,3,53,1,,,,,,,,,,,,,,,AMSA12.jpg,AMNE20.jpg,AMSA13.jpg,AMNE04.jpg,AMNE04.jpg,MN,1,num_4,16,num_4,1.06678585289,,,2018_Mar_20_1746,60.0049077263,MAFE4ImagesEEG,001,203329,
AFNE01.JPG,AFNE01.JPG,AFNE01.JPG,AFNE01.JPG,AFNE01.JPG,AFNE01.JPG,,,,,,,,,5,4,54,5,,,,,,,,,,,,,,,AMSA04.jpg,AMNE01.jpg,AMNE16.jpg,AMSA14.jpg,AMNE01.jpg,MN,1,num_6,16,num_6,0.6001758934,,,2018_Mar_20_1746,60.0049077263,MAFE4ImagesEEG,001,203329,
AFNE01.JPG,AFNE01.JPG,AFNE01.JPG,AFNE01.JPG,AFNE01.JPG,AFNE01.JPG,,,,,,,,,5,5,55,4,,,,,,,,,,,,,,,AMSA02.jpg,AMSA17.jpg,AMNE17.jpg,AMNE20.jpg,AMSA02.jpg,MS,2,num_8,16,num_8,0.900117101613,,,2018_Mar_20_1746,60.0049077263,MAFE4ImagesEEG,001,203329,
AFNE01.JPG,AFNE01.JPG,AFNE01.JPG,AFNE01.JPG,AFNE01.JPG,AFNE01.JPG,,,,,,,,,5,6,56,3,,,,,,,,,,,,,,,AMNE12.jpg,AMSA06.jpg,AMNE18.jpg,AMSA17.jpg,AMNE12.jpg,MN,1,num_8,32,num_6,1.11682432564,,,2018_Mar_20_1746,60.0049077263,MAFE4ImagesEEG,001,203329,
AFNE01.JPG,AFNE01.JPG,AFNE01.JPG,AFNE01.JPG,AFNE01.JPG,AFNE01.JPG,,,,,,,,,5,7,57,8,,,,,,,,,,,,,,,AMNE16.jpg,AMSA09.jpg,AMNE02.jpg,AMSA03.jpg,AMSA03.jpg,MS,2,num_4,32,num_2,1.20007595094,,,2018_Mar_20_1746,60.0049077263,MAFE4ImagesEEG,001,203329,
AFNE01.JPG,AFNE01.JPG,AFNE01.JPG,AFNE01.JPG,AFNE01.JPG,AFNE01.JPG,,,,,,,,,5,8,58,6,,,,,,,,,,,,,,,AMNE20.jpg,AMSA20.jpg,AMNE04.jpg,AMSA15.jpg,AMSA20.jpg,MS,2,num_6,32,num_8,0.800127397291,,,2018_Mar_20_1746,60.0049077263,MAFE4ImagesEEG,001,203329,
AFNE01.JPG,AFNE01.JPG,AFNE01.JPG,AFNE01.JPG,AFNE01.JPG,AFNE01.JPG,,,,,,,,,5,9,59,2,,,,,,,,,,,,,,,AMSA01.jpg,AMNE14.jpg,AMNE09.jpg,AMSA14.jpg,AMSA01.jpg,MS,2,num_8,32,num_4,0.833453770727,,,2018_Mar_20_1746,60.0049077263,MAFE4ImagesEEG,001,203329,
,,,,,,,,,,,,,,,,,,,,,,,,,,,,,,,,,,,,,,,,,,,space,15.3488301532,2018_Mar_20_1746,60.0049077263,MAFE4ImagesEEG,001,203329,
AFNE01.JPG,AFNE01.JPG,AFNE01.JPG,AFNE01.JPG,AFNE01.JPG,AFNE01.JPG,,,,,,,,,,,,,0,0,0,0,,,,,,,,,,,AFSA07.jpg,AFNE12.jpg,AFSA16.jpg,AFNE17.jpg,AFNE12.jpg,FN,3,num_6,16,num_6,1.08343508793,,,2018_Mar_20_1746,60.0049077263,MAFE4ImagesEEG,001,203329,
AFNE01.JPG,AFNE01.JPG,AFNE01.JPG,AFNE01.JPG,AFNE01.JPG,AFNE01.JPG,,,,,,,,,,,,,0,1,1,7,,,,,,,,,,,AFNE03.jpg,AFSA13.jpg,AFNE05.jpg,AFSA07.jpg,AFNE03.jpg,FN,3,num_8,16,num_8,0.850119363051,,,2018_Mar_20_1746,60.0049077263,MAFE4ImagesEEG,001,203329,
AFNE01.JPG,AFNE01.JPG,AFNE01.JPG,AFNE01.JPG,AFNE01.JPG,AFNE01.JPG,,,,,,,,,,,,,0,2,2,5,,,,,,,,,,,AFNE07.jpg,AFSA17.jpg,AFNE03.jpg,AFSA11.jpg,AFSA11.jpg,FS,4,num_4,16,num_4,0.750158525072,,,2018_Mar_20_1746,60.0049077263,MAFE4ImagesEEG,001,203329,
AFNE01.JPG,AFNE01.JPG,AFNE01.JPG,AFNE01.JPG,AFNE01.JPG,AFNE01.JPG,,,,,,,,,,,,,0,3,3,9,,,,,,,,,,,AFNE12.jpg,AFSA12.jpg,AFSA01.jpg,AFNE10.jpg,AFNE10.jpg,FN,3,num_4,16,num_4,0.966806733049,,,2018_Mar_20_1746,60.0049077263,MAFE4ImagesEEG,001,203329,
AFNE01.JPG,AFNE01.JPG,AFNE01.JPG,AFNE01.JPG,AFNE01.JPG,AFNE01.JPG,,,,,,,,,,,,,0,4,4,6,,,,,,,,,,,AFNE12.jpg,AFSA04.jpg,AFNE16.jpg,AFSA13.jpg,AFNE16.jpg,FN,3,num_2,16,num_2,0.983494135551,,,2018_Mar_20_1746,60.0049077263,MAFE4ImagesEEG,001,203329,
AFNE01.JPG,AFNE01.JPG,AFNE01.JPG,AFNE01.JPG,AFNE01.JPG,AFNE01.JPG,,,,,,,,,,,,,0,5,5,4,,,,,,,,,,,AFNE07.jpg,AFSA09.jpg,AFNE05.jpg,AFSA13.jpg,AFSA09.jpg,FS,4,num_6,16,num_6,0.68350834446,,,2018_Mar_20_1746,60.0049077263,MAFE4ImagesEEG,001,203329,
AFNE01.JPG,AFNE01.JPG,AFNE01.JPG,AFNE01.JPG,AFNE01.JPG,AFNE01.JPG,,,,,,,,,,,,,0,6,6,8,,,,,,,,,,,AFNE07.jpg,AFNE15.jpg,AFSA09.jpg,AFSA04.jpg,AFNE15.jpg,FN,3,num_6,16,num_6,0.616844051518,,,2018_Mar_20_1746,60.0049077263,MAFE4ImagesEEG,001,203329,
AFNE01.JPG,AFNE01.JPG,AFNE01.JPG,AFNE01.JPG,AFNE01.JPG,AFNE01.JPG,,,,,,,,,,,,,0,7,7,3,,,,,,,,,,,AFNE06.jpg,AFNE08.jpg,AFSA06.jpg,AFSA20.jpg,AFSA06.jpg,FS,4,num_2,16,num_2,1.11677781865,,,2018_Mar_20_1746,60.0049077263,MAFE4ImagesEEG,001,203329,
AFNE01.JPG,AFNE01.JPG,AFNE01.JPG,AFNE01.JPG,AFNE01.JPG,AFNE01.JPG,,,,,,,,,,,,,0,8,8,1,,,,,,,,,,,AFSA06.jpg,AFSA08.jpg,AFNE15.jpg,AFNE18.jpg,AFNE15.jpg,FN,3,num_2,16,num_2,0.633593356702,,,2018_Mar_20_1746,60.0049077263,MAFE4ImagesEEG,001,203329,
AFNE01.JPG,AFNE01.JPG,AFNE01.JPG,AFNE01.JPG,AFNE01.JPG,AFNE01.JPG,,,,,,,,,,,,,0,9,9,2,,,,,,,,,,,AFSA06.jpg,AFNE18.jpg,AFSA07.jpg,AFNE05.jpg,AFNE05.jpg,FN,3,num_4,16,num_4,0.966787489131,,,2018_Mar_20_1746,60.0049077263,MAFE4ImagesEEG,001,203329,
AFNE01.JPG,AFNE01.JPG,AFNE01.JPG,AFNE01.JPG,AFNE01.JPG,AFNE01.JPG,,,,,,,,,,,,,1,0,10,4,,,,,,,,,,,AFSA02.jpg,AFNE05.jpg,AFSA13.jpg,AFNE12.jpg,AFSA02.jpg,FS,4,num_8,32,num_2,0.800089871045,,,2018_Mar_20_1746,60.0049077263,MAFE4ImagesEEG,001,203329,
AFNE01.JPG,AFNE01.JPG,AFNE01.JPG,AFNE01.JPG,AFNE01.JPG,AFNE01.JPG,,,,,,,,,,,,,1,1,11,5,,,,,,,,,,,AFSA01.jpg,AFNE09.jpg,AFSA17.jpg,AFNE08.jpg,AFSA01.jpg,FS,4,num_8,32,num_2,0.833504447713,,,2018_Mar_20_1746,60.0049077263,MAFE4ImagesEEG,001,203329,
AFNE01.JPG,AFNE01.JPG,AFNE01.JPG,AFNE01.JPG,AFNE01.JPG,AFNE01.JPG,,,,,,,,,,,,,1,2,12,0,,,,,,,,,,,AFNE02.jpg,AFNE04.jpg,AFSA15.jpg,AFSA11.jpg,AFNE04.jpg,FN,3,num_6,32,num_4,0.766764139291,,,2018_Mar_20_1746,60.0049077263,MAFE4ImagesEEG,001,203329,
AFNE01.JPG,AFNE01.JPG,AFNE01.JPG,AFNE01.JPG,AFNE01.JPG,AFNE01.JPG,,,,,,,,,,,,,1,3,13,1,,,,,,,,,,,AFNE10.jpg,AFNE15.jpg,AFSA10.jpg,AFSA05.jpg,AFNE15.jpg,FN,3,num_6,16,num_6,0.633506115526,,,2018_Mar_20_1746,60.0049077263,MAFE4ImagesEEG,001,203329,
AFNE01.JPG,AFNE01.JPG,AFNE01.JPG,AFNE01.JPG,AFNE01.JPG,AFNE01.JPG,,,,,,,,,,,,,1,4,14,2,,,,,,,,,,,AFSA16.jpg,AFSA14.jpg,AFNE02.jpg,AFNE13.jpg,AFNE02.jpg,FN,3,num_2,32,num_4,1.01671113726,,,2018_Mar_20_1746,60.0049077263,MAFE4ImagesEEG,001,203329,
AFNE01.JPG,AFNE01.JPG,AFNE01.JPG,AFNE01.JPG,AFNE01.JPG,AFNE01.JPG,,,,,,,,,,,,,1,5,15,9,,,,,,,,,,,AFNE14.jpg,AFSA16.jpg,AFNE17.jpg,AFSA03.jpg,AFNE14.jpg,FN,3,num_8,16,num_8,0.566806861665,,,2018_Mar_20_1746,60.0049077263,MAFE4ImagesEEG,001,203329,
AFNE01.JPG,AFNE01.JPG,AFNE01.JPG,AFNE01.JPG,AFNE01.JPG,AFNE01.JPG,,,,,,,,,,,,,1,6,16,6,,,,,,,,,,,AFSA02.jpg,AFNE10.jpg,AFNE14.jpg,AFSA10.jpg,AFSA02.jpg,FS,4,num_8,32,num_6,1.01679613255,,,2018_Mar_20_1746,60.0049077263,MAFE4ImagesEEG,001,203329,
AFNE01.JPG,AFNE01.JPG,AFNE01.JPG,AFNE01.JPG,AFNE01.JPG,AFNE01.JPG,,,,,,,,,,,,,1,7,17,3,,,,,,,,,,,AFNE05.jpg,AFSA06.jpg,AFNE12.jpg,AFSA14.jpg,AFSA14.jpg,FS,4,num_4,32,num_6,0.833424583543,,,2018_Mar_20_1746,60.0049077263,MAFE4ImagesEEG,001,203329,
AFNE01.JPG,AFNE01.JPG,AFNE01.JPG,AFNE01.JPG,AFNE01.JPG,AFNE01.JPG,,,,,,,,,,,,,1,8,18,8,,,,,,,,,,,AFNE12.jpg,AFSA20.jpg,AFNE06.jpg,AFSA07.jpg,AFSA07.jpg,FS,4,num_4,32,num_2,1.15012343647,,,2018_Mar_20_1746,60.0049077263,MAFE4ImagesEEG,001,203329,
AFNE01.JPG,AFNE01.JPG,AFNE01.JPG,AFNE01.JPG,AFNE01.JPG,AFNE01.JPG,,,,,,,,,,,,,1,9,19,7,,,,,,,,,,,AFNE19.jpg,AFNE17.jpg,AFSA06.jpg,AFSA04.jpg,AFNE17.jpg,FN,3,num_6,32,num_8,3.1166277132,,,2018_Mar_20_1746,60.0049077263,MAFE4ImagesEEG,001,203329,
AFNE01.JPG,AFNE01.JPG,AFNE01.JPG,AFNE01.JPG,AFNE01.JPG,AFNE01.JPG,,,,,,,,,,,,,2,0,20,8,,,,,,,,,,,AFNE11.jpg,AFSA11.jpg,AFSA03.jpg,AFNE15.jpg,AFNE15.jpg,FN,3,num_4,16,num_4,0.766840475146,,,2018_Mar_20_1746,60.0049077263,MAFE4ImagesEEG,001,203329,
AFNE01.JPG,AFNE01.JPG,AFNE01.JPG,AFNE01.JPG,AFNE01.JPG,AFNE01.JPG,,,,,,,,,,,,,2,1,21,7,,,,,,,,,,,AFNE09.jpg,AFSA20.jpg,AFNE13.jpg,AFSA01.jpg,AFNE13.jpg,FN,3,num_2,16,num_2,0.900108762551,,,2018_Mar_20_1746,60.0049077263,MAFE4ImagesEEG,001,203329,
AFNE01.JPG,AFNE01.JPG,AFNE01.JPG,AFNE01.JPG,AFNE01.JPG,AFNE01.JPG,,,,,,,,,,,,,2,2,22,6,,,,,,,,,,,AFSA05.jpg,AFSA20.jpg,AFNE17.jpg,AFNE07.jpg,AFNE17.jpg,FN,3,num_2,32,num_4,1.46673857654,,,2018_Mar_20_1746,60.0049077263,MAFE4ImagesEEG,001,203329,
AFNE01.JPG,AFNE01.JPG,AFNE01.JPG,AFNE01.JPG,AFNE01.JPG,AFNE01.JPG,,,,,,,,,,,,,2,3,23,5,,,,,,,,,,,AFNE13.jpg,AFSA14.jpg,AFSA13.jpg,AFNE14.jpg,AFNE14.jpg,FN,3,num_4,32,num_8,1.3167504915,,,2018_Mar_20_1746,60.0049077263,MAFE4ImagesEEG,001,203329,
AFNE01.JPG,AFNE01.JPG,AFNE01.JPG,AFNE01.JPG,AFNE01.JPG,AFNE01.JPG,,,,,,,,,,,,,2,4,24,2,,,,,,,,,,,AFNE01.jpg,AFNE20.jpg,AFSA10.jpg,AFSA13.jpg,AFNE01.jpg,FN,3,num_8,32,num_6,1.21688747965,,,2018_Mar_20_1746,60.0049077263,MAFE4ImagesEEG,001,203329,
AFNE01.JPG,AFNE01.JPG,AFNE01.JPG,AFNE01.JPG,AFNE01.JPG,AFNE01.JPG,,,,,,,,,,,,,2,5,25,9,,,,,,,,,,,AFNE17.jpg,AFSA03.jpg,AFNE14.jpg,AFSA17.jpg,AFSA17.jpg,FS,4,num_4,32,num_2,0.866638056934,,,2018_Mar_20_1746,60.0049077263,MAFE4ImagesEEG,001,203329,
AFNE01.JPG,AFNE01.JPG,AFNE01.JPG,AFNE01.JPG,AFNE01.JPG,AFNE01.JPG,,,,,,,,,,,,,2,6,26,0,,,,,,,,,,,AFNE14.jpg,AFSA16.jpg,AFSA20.jpg,AFNE01.jpg,AFNE14.jpg,FN,3,num_8,32,num_4,0.966810903046,,,2018_Mar_20_1746,60.0049077263,MAFE4ImagesEEG,001,203329,
AFNE01.JPG,AFNE01.JPG,AFNE01.JPG,AFNE01.JPG,AFNE01.JPG,AFNE01.JPG,,,,,,,,,,,,,2,7,27,3,,,,,,,,,,,AFSA13.jpg,AFSA09.jpg,AFNE04.jpg,AFNE17.jpg,AFNE04.jpg,FN,3,num_2,16,num_2,1.30015834887,,,2018_Mar_20_1746,60.0049077263,MAFE4ImagesEEG,001,203329,
AFNE01.JPG,AFNE01.JPG,AFNE01.JPG,AFNE01.JPG,AFNE01.JPG,AFNE01.JPG,,,,,,,,,,,,,2,8,28,4,,,,,,,,,,,AFSA16.jpg,AFNE05.jpg,AFSA08.jpg,AFNE14.jpg,AFNE14.jpg,FN,3,num_4,16,num_4,0.900117743295,,,2018_Mar_20_1746,60.0049077263,MAFE4ImagesEEG,001,203329,
AFNE01.JPG,AFNE01.JPG,AFNE01.JPG,AFNE01.JPG,AFNE01.JPG,AFNE01.JPG,,,,,,,,,,,,,2,9,29,1,,,,,,,,,,,AFSA09.jpg,AFNE15.jpg,AFNE07.jpg,AFSA02.jpg,AFNE07.jpg,FN,3,num_2,32,num_6,0.850160417613,,,2018_Mar_20_1746,60.0049077263,MAFE4ImagesEEG,001,203329,
AFNE01.JPG,AFNE01.JPG,AFNE01.JPG,AFNE01.JPG,AFNE01.JPG,AFNE01.JPG,,,,,,,,,,,,,3,0,30,3,,,,,,,,,,,AFNE12.jpg,AFNE05.jpg,AFSA02.jpg,AFSA15.jpg,AFNE05.jpg,FN,3,num_6,16,num_6,0.733433916699,,,2018_Mar_20_1746,60.0049077263,MAFE4ImagesEEG,001,203329,
AFNE01.JPG,AFNE01.JPG,AFNE01.JPG,AFNE01.JPG,AFNE01.JPG,AFNE01.JPG,,,,,,,,,,,,,3,1,31,1,,,,,,,,,,,AFNE05.jpg,AFSA10.jpg,AFSA01.jpg,AFNE02.jpg,AFNE05.jpg,FN,3,num_8,32,num_4,0.933464964852,,,2018_Mar_20_1746,60.0049077263,MAFE4ImagesEEG,001,203329,
AFNE01.JPG,AFNE01.JPG,AFNE01.JPG,AFNE01.JPG,AFNE01.JPG,AFNE01.JPG,,,,,,,,,,,,,3,2,32,4,,,,,,,,,,,AFNE06.jpg,AFSA17.jpg,AFNE01.jpg,AFSA10.jpg,AFSA17.jpg,FS,4,num_6,16,num_6,1.05009941291,,,2018_Mar_20_1746,60.0049077263,MAFE4ImagesEEG,001,203329,
AFNE01.JPG,AFNE01.JPG,AFNE01.JPG,AFNE01.JPG,AFNE01.JPG,AFNE01.JPG,,,,,,,,,,,,,3,3,33,7,,,,,,,,,,,AFSA17.jpg,AFNE13.jpg,AFSA09.jpg,AFNE15.jpg,AFNE15.jpg,FN,3,num_4,16,num_4,0.750195730943,,,2018_Mar_20_1746,60.0049077263,MAFE4ImagesEEG,001,203329,
AFNE01.JPG,AFNE01.JPG,AFNE01.JPG,AFNE01.JPG,AFNE01.JPG,AFNE01.JPG,,,,,,,,,,,,,3,4,34,2,,,,,,,,,,,AFSA01.jpg,AFNE19.jpg,AFNE08.jpg,AFSA03.jpg,AFSA03.jpg,FS,4,num_4,16,num_4,0.666792716831,,,2018_Mar_20_1746,60.0049077263,MAFE4ImagesEEG,001,203329,
AFNE01.JPG,AFNE01.JPG,AFNE01.JPG,AFNE01.JPG,AFNE01.JPG,AFNE01.JPG,,,,,,,,,,,,,3,5,35,5,,,,,,,,,,,AFSA09.jpg,AFNE11.jpg,AFSA14.jpg,AFNE15.jpg,AFSA14.jpg,FS,4,num_2,16,num_2,1.38341703033,,,2018_Mar_20_1746,60.0049077263,MAFE4ImagesEEG,001,203329,
AFNE01.JPG,AFNE01.JPG,AFNE01.JPG,AFNE01.JPG,AFNE01.JPG,AFNE01.JPG,,,,,,,,,,,,,3,6,36,6,,,,,,,,,,,AFNE11.jpg,AFSA09.jpg,AFSA11.jpg,AFNE07.jpg,AFNE11.jpg,FN,3,num_8,16,num_8,0.933436418884,,,2018_Mar_20_1746,60.0049077263,MAFE4ImagesEEG,001,203329,
AFNE01.JPG,AFNE01.JPG,AFNE01.JPG,AFNE01.JPG,AFNE01.JPG,AFNE01.JPG,,,,,,,,,,,,,3,7,37,9,,,,,,,,,,,AFNE06.jpg,AFNE15.jpg,AFSA03.jpg,AFSA09.jpg,AFSA09.jpg,FS,4,num_4,32,num_2,1.45014130184,,,2018_Mar_20_1746,60.0049077263,MAFE4ImagesEEG,001,203329,
AFNE01.JPG,AFNE01.JPG,AFNE01.JPG,AFNE01.JPG,AFNE01.JPG,AFNE01.JPG,,,,,,,,,,,,,3,8,38,0,,,,,,,,,,,AFSA04.jpg,AFSA05.jpg,AFNE04.jpg,AFNE20.jpg,AFNE20.jpg,FN,3,num_4,32,num_8,0.900185098406,,,2018_Mar_20_1746,60.0049077263,MAFE4ImagesEEG,001,203329,
AFNE01.JPG,AFNE01.JPG,AFNE01.JPG,AFNE01.JPG,AFNE01.JPG,AFNE01.JPG,,,,,,,,,,,,,3,9,39,8,,,,,,,,,,,AFNE04.jpg,AFSA20.jpg,AFNE13.jpg,AFSA06.jpg,AFSA06.jpg,FS,4,num_4,16,num_4,2.11671367101,,,2018_Mar_20_1746,60.0049077263,MAFE4ImagesEEG,001,203329,
AFNE01.JPG,AFNE01.JPG,AFNE01.JPG,AFNE01.JPG,AFNE01.JPG,AFNE01.JPG,,,,,,,,,,,,,4,0,40,9,,,,,,,,,,,AFNE02.jpg,AFSA18.jpg,AFNE09.jpg,AFSA06.jpg,AFNE02.jpg,FN,3,num_8,32,num_4,1.16674765339,,,2018_Mar_20_1746,60.0049077263,MAFE4ImagesEEG,001,203329,
AFNE01.JPG,AFNE01.JPG,AFNE01.JPG,AFNE01.JPG,AFNE01.JPG,AFNE01.JPG,,,,,,,,,,,,,4,1,41,0,,,,,,,,,,,AFNE03.jpg,AFNE16.jpg,AFSA06.jpg,AFSA08.jpg,AFNE03.jpg,FN,3,num_8,16,num_8,0.483501031529,,,2018_Mar_20_1746,60.0049077263,MAFE4ImagesEEG,001,203329,
AFNE01.JPG,AFNE01.JPG,AFNE01.JPG,AFNE01.JPG,AFNE01.JPG,AFNE01.JPG,,,,,,,,,,,,,4,2,42,1,,,,,,,,,,,AFNE02.jpg,AFSA16.jpg,AFSA05.jpg,AFNE18.jpg,AFNE02.jpg,FN,3,num_8,32,num_2,1.05010775197,,,2018_Mar_20_1746,60.0049077263,MAFE4ImagesEEG,001,203329,
AFNE01.JPG,AFNE01.JPG,AFNE01.JPG,AFNE01.JPG,AFNE01.JPG,AFNE01.JPG,,,,,,,,,,,,,4,3,43,2,,,,,,,,,,,AFSA15.jpg,AFNE18.jpg,AFSA11.jpg,AFNE10.jpg,AFSA15.jpg,FS,4,num_8,16,num_8,1.10012024501,,,2018_Mar_20_1746,60.0049077263,MAFE4ImagesEEG,001,203329,
AFNE01.JPG,AFNE01.JPG,AFNE01.JPG,AFNE01.JPG,AFNE01.JPG,AFNE01.JPG,,,,,,,,,,,,,4,4,44,4,,,,,,,,,,,AFNE04.jpg,AFSA07.jpg,AFNE02.jpg,AFSA15.jpg,AFSA07.jpg,FS,4,num_6,16,num_6,0.966770169325,,,2018_Mar_20_1746,60.0049077263,MAFE4ImagesEEG,001,203329,
AFNE01.JPG,AFNE01.JPG,AFNE01.JPG,AFNE01.JPG,AFNE01.JPG,AFNE01.JPG,,,,,,,,,,,,,4,5,45,5,,,,,,,,,,,AFSA10.jpg,AFSA01.jpg,AFNE04.jpg,AFNE15.jpg,AFNE04.jpg,FN,3,num_2,16,num_2,0.716787248384,,,2018_Mar_20_1746,60.0049077263,MAFE4ImagesEEG,001,203329,
AFNE01.JPG,AFNE01.JPG,AFNE01.JPG,AFNE01.JPG,AFNE01.JPG,AFNE01.JPG,,,,,,,,,,,,,4,6,46,6,,,,,,,,,,,AFNE17.jpg,AFSA18.jpg,AFSA11.jpg,AFNE01.jpg,AFNE17.jpg,FN,3,num_8,16,num_8,0.550219529774,,,2018_Mar_20_1746,60.0049077263,MAFE4ImagesEEG,001,203329,
AFNE01.JPG,AFNE01.JPG,AFNE01.JPG,AFNE01.JPG,AFNE01.JPG,AFNE01.JPG,,,,,,,,,,,,,4,7,47,7,,,,,,,,,,,AFNE15.jpg,AFSA17.jpg,AFNE19.jpg,AFSA09.jpg,AFSA17.jpg,FS,4,num_6,16,num_6,0.683474346064,,,2018_Mar_20_1746,60.0049077263,MAFE4ImagesEEG,001,203329,
AFNE01.JPG,AFNE01.JPG,AFNE01.JPG,AFNE01.JPG,AFNE01.JPG,AFNE01.JPG,,,,,,,,,,,,,4,8,48,3,,,,,,,,,,,AFNE17.jpg,AFSA20.jpg,AFSA17.jpg,AFNE16.jpg,AFSA17.jpg,FS,4,num_2,16,num_2,0.80010687001,,,2018_Mar_20_1746,60.0049077263,MAFE4ImagesEEG,001,203329,
AFNE01.JPG,AFNE01.JPG,AFNE01.JPG,AFNE01.JPG,AFNE01.JPG,AFNE01.JPG,,,,,,,,,,,,,4,9,49,8,,,,,,,,,,,AFNE01.jpg,AFSA05.jpg,AFSA06.jpg,AFNE19.jpg,AFSA05.jpg,FS,4,num_6,16,num_6,1.18346071476,,,2018_Mar_20_1746,60.0049077263,MAFE4ImagesEEG,001,203329,
AFNE01.JPG,AFNE01.JPG,AFNE01.JPG,AFNE01.JPG,AFNE01.JPG,AFNE01.JPG,,,,,,,,,,,,,5,0,50,2,,,,,,,,,,,AFNE11.jpg,AFSA12.jpg,AFSA16.jpg,AFNE19.jpg,AFNE19.jpg,FN,3,num_4,32,num_2,0.766829569824,,,2018_Mar_20_1746,60.0049077263,MAFE4ImagesEEG,001,203329,
AFNE01.JPG,AFNE01.JPG,AFNE01.JPG,AFNE01.JPG,AFNE01.JPG,AFNE01.JPG,,,,,,,,,,,,,5,1,51,9,,,,,,,,,,,AFNE05.jpg,AFNE11.jpg,AFSA14.jpg,AFSA11.jpg,AFNE05.jpg,FN,3,num_8,16,num_8,0.733487801161,,,2018_Mar_20_1746,60.0049077263,MAFE4ImagesEEG,001,203329,
AFNE01.JPG,AFNE01.JPG,AFNE01.JPG,AFNE01.JPG,AFNE01.JPG,AFNE01.JPG,,,,,,,,,,,,,5,2,52,5,,,,,,,,,,,AFSA09.jpg,AFNE12.jpg,AFSA14.jpg,AFNE06.jpg,AFSA14.jpg,FS,4,num_2,16,num_2,0.733482027892,,,2018_Mar_20_1746,60.0049077263,MAFE4ImagesEEG,001,203329,
AFNE01.JPG,AFNE01.JPG,AFNE01.JPG,AFNE01.JPG,AFNE01.JPG,AFNE01.JPG,,,,,,,,,,,,,5,3,53,6,,,,,,,,,,,AFSA11.jpg,AFNE04.jpg,AFSA13.jpg,AFNE10.jpg,AFNE04.jpg,FN,3,num_6,16,num_6,0.616768677719,,,2018_Mar_20_1746,60.0049077263,MAFE4ImagesEEG,001,203329,
AFNE01.JPG,AFNE01.JPG,AFNE01.JPG,AFNE01.JPG,AFNE01.JPG,AFNE01.JPG,,,,,,,,,,,,,5,4,54,3,,,,,,,,,,,AFNE04.jpg,AFSA01.jpg,AFSA12.jpg,AFNE10.jpg,AFNE04.jpg,FN,3,num_8,16,num_8,0.583465718199,,,2018_Mar_20_1746,60.0049077263,MAFE4ImagesEEG,001,203329,
AFNE01.JPG,AFNE01.JPG,AFNE01.JPG,AFNE01.JPG,AFNE01.JPG,AFNE01.JPG,,,,,,,,,,,,,5,5,55,4,,,,,,,,,,,AFNE17.jpg,AFNE18.jpg,AFSA02.jpg,AFSA01.jpg,AFSA02.jpg,FS,4,num_2,32,num_4,0.866477687377,,,2018_Mar_20_1746,60.0049077263,MAFE4ImagesEEG,001,203329,
AFNE01.JPG,AFNE01.JPG,AFNE01.JPG,AFNE01.JPG,AFNE01.JPG,AFNE01.JPG,,,,,,,,,,,,,5,6,56,7,,,,,,,,,,,AFNE19.jpg,AFSA03.jpg,AFSA01.jpg,AFNE13.jpg,AFNE19.jpg,FN,3,num_8,16,num_8,0.516830932815,,,2018_Mar_20_1746,60.0049077263,MAFE4ImagesEEG,001,203329,
AFNE01.JPG,AFNE01.JPG,AFNE01.JPG,AFNE01.JPG,AFNE01.JPG,AFNE01.JPG,,,,,,,,,,,,,5,7,57,1,,,,,,,,,,,AFSA04.jpg,AFSA03.jpg,AFNE04.jpg,AFNE01.jpg,AFNE04.jpg,FN,3,num_2,16,num_2,1.45004347619,,,2018_Mar_20_1746,60.0049077263,MAFE4ImagesEEG,001,203329,
AFNE01.JPG,AFNE01.JPG,AFNE01.JPG,AFNE01.JPG,AFNE01.JPG,AFNE01.JPG,,,,,,,,,,,,,5,8,58,0,,,,,,,,,,,AFSA05.jpg,AFNE10.jpg,AFNE06.jpg,AFSA17.jpg,AFSA17.jpg,FS,4,num_4,32,num_6,1.9167098864,,,2018_Mar_20_1746,60.0049077263,MAFE4ImagesEEG,001,203329,
AFNE01.JPG,AFNE01.JPG,AFNE01.JPG,AFNE01.JPG,AFNE01.JPG,AFNE01.JPG,,,,,,,,,,,,,5,9,59,8,,,,,,,,,,,AFNE16.jpg,AFSA05.jpg,AFNE02.jpg,AFSA14.jpg,AFNE02.jpg,FN,3,num_2,16,num_2,1.30014038738,,,2018_Mar_20_1746,60.0049077263,MAFE4ImagesEEG,001,203329,
,,,,,,,,,,,,,,,,,,,,,,,,,,,,,,,,,,,,,,,,,,,space,14.4657167024,2018_Mar_20_1746,60.0049077263,MAFE4ImagesEEG,001,203329,
AFNE01.JPG,AFNE01.JPG,AFNE01.JPG,AFNE01.JPG,AFNE01.JPG,AFNE01.JPG,,,,,,,,,,,,,,,,,0,0,0,6,,,,,,,AMNE07.jpg,AMSA03.jpg,AMNE05.jpg,AMSA20.jpg,AMNE07.jpg,MN,1,num_8,16,num_8,0.833485844545,,,2018_Mar_20_1746,60.0049077263,MAFE4ImagesEEG,001,203329,
AFNE01.JPG,AFNE01.JPG,AFNE01.JPG,AFNE01.JPG,AFNE01.JPG,AFNE01.JPG,,,,,,,,,,,,,,,,,0,1,1,7,,,,,,,AMNE04.jpg,AMNE14.jpg,AMSA17.jpg,AMSA01.jpg,AMNE14.jpg,MN,1,num_6,16,num_6,0.533502940089,,,2018_Mar_20_1746,60.0049077263,MAFE4ImagesEEG,001,203329,
AFNE01.JPG,AFNE01.JPG,AFNE01.JPG,AFNE01.JPG,AFNE01.JPG,AFNE01.JPG,,,,,,,,,,,,,,,,,0,2,2,2,,,,,,,AMNE20.jpg,AMSA07.jpg,AMSA20.jpg,AMNE19.jpg,AMNE20.jpg,MN,1,num_8,32,num_6,0.78354648035,,,2018_Mar_20_1746,60.0049077263,MAFE4ImagesEEG,001,203329,
AFNE01.JPG,AFNE01.JPG,AFNE01.JPG,AFNE01.JPG,AFNE01.JPG,AFNE01.JPG,,,,,,,,,,,,,,,,,0,3,3,0,,,,,,,AMNE03.jpg,AMSA14.jpg,AMNE14.jpg,AMSA07.jpg,AMNE14.jpg,MN,1,num_2,16,num_2,1.01678875601,,,2018_Mar_20_1746,60.0049077263,MAFE4ImagesEEG,001,203329,
AFNE01.JPG,AFNE01.JPG,AFNE01.JPG,AFNE01.JPG,AFNE01.JPG,AFNE01.JPG,,,,,,,,,,,,,,,,,0,4,4,3,,,,,,,AMNE05.jpg,AMSA08.jpg,AMSA17.jpg,AMNE12.jpg,AMSA17.jpg,MS,2,num_2,16,num_2,0.800224581268,,,2018_Mar_20_1746,60.0049077263,MAFE4ImagesEEG,001,203329,
AFNE01.JPG,AFNE01.JPG,AFNE01.JPG,AFNE01.JPG,AFNE01.JPG,AFNE01.JPG,,,,,,,,,,,,,,,,,0,5,5,8,,,,,,,AMSA19.jpg,AMNE10.jpg,AMNE04.jpg,AMSA05.jpg,AMNE10.jpg,MN,1,num_6,32,num_4,0.916738432366,,,2018_Mar_20_1746,60.0049077263,MAFE4ImagesEEG,001,203329,
AFNE01.JPG,AFNE01.JPG,AFNE01.JPG,AFNE01.JPG,AFNE01.JPG,AFNE01.JPG,,,,,,,,,,,,,,,,,0,6,6,1,,,,,,,AMNE19.jpg,AMNE09.jpg,AMSA05.jpg,AMSA15.jpg,AMNE19.jpg,MN,1,num_8,16,num_8,0.967045363039,,,2018_Mar_20_1746,60.0049077263,MAFE4ImagesEEG,001,203329,
AFNE01.JPG,AFNE01.JPG,AFNE01.JPG,AFNE01.JPG,AFNE01.JPG,AFNE01.JPG,,,,,,,,,,,,,,,,,0,7,7,5,,,,,,,AMSA07.jpg,AMNE15.jpg,AMSA10.jpg,AMNE11.jpg,AMSA07.jpg,MS,2,num_8,16,num_8,0.750098546967,,,2018_Mar_20_1746,60.0049077263,MAFE4ImagesEEG,001,203329,
AFNE01.JPG,AFNE01.JPG,AFNE01.JPG,AFNE01.JPG,AFNE01.JPG,AFNE01.JPG,,,,,,,,,,,,,,,,,0,8,8,9,,,,,,,AMSA19.jpg,AMNE12.jpg,AMNE13.jpg,AMSA05.jpg,AMNE13.jpg,MN,1,num_2,32,num_4,0.550173984375,,,2018_Mar_20_1746,60.0049077263,MAFE4ImagesEEG,001,203329,
AFNE01.JPG,AFNE01.JPG,AFNE01.JPG,AFNE01.JPG,AFNE01.JPG,AFNE01.JPG,,,,,,,,,,,,,,,,,0,9,9,4,,,,,,,AMSA17.jpg,AMNE02.jpg,AMSA11.jpg,AMNE17.jpg,AMSA11.jpg,MS,2,num_2,16,num_2,0.566827388946,,,2018_Mar_20_1746,60.0049077263,MAFE4ImagesEEG,001,203329,
AFNE01.JPG,AFNE01.JPG,AFNE01.JPG,AFNE01.JPG,AFNE01.JPG,AFNE01.JPG,,,,,,,,,,,,,,,,,1,0,10,3,,,,,,,AMSA09.jpg,AMNE07.jpg,AMNE10.jpg,AMSA11.jpg,AMNE07.jpg,MN,1,num_6,16,num_6,0.766843040939,,,2018_Mar_20_1746,60.0049077263,MAFE4ImagesEEG,001,203329,
AFNE01.JPG,AFNE01.JPG,AFNE01.JPG,AFNE01.JPG,AFNE01.JPG,AFNE01.JPG,,,,,,,,,,,,,,,,,1,1,11,8,,,,,,,AMSA02.jpg,AMNE16.jpg,AMSA12.jpg,AMNE08.jpg,AMNE16.jpg,MN,1,num_6,16,num_6,0.816789782606,,,2018_Mar_20_1746,60.0049077263,MAFE4ImagesEEG,001,203329,
AFNE01.JPG,AFNE01.JPG,AFNE01.JPG,AFNE01.JPG,AFNE01.JPG,AFNE01.JPG,,,,,,,,,,,,,,,,,1,2,12,7,,,,,,,AMSA09.jpg,AMSA08.jpg,AMNE13.jpg,AMNE05.jpg,AMNE05.jpg,MN,1,num_4,16,num_4,2.55000880407,,,2018_Mar_20_1746,60.0049077263,MAFE4ImagesEEG,001,203329,
AFNE01.JPG,AFNE01.JPG,AFNE01.JPG,AFNE01.JPG,AFNE01.JPG,AFNE01.JPG,,,,,,,,,,,,,,,,,1,3,13,6,,,,,,,AMNE06.jpg,AMSA18.jpg,AMNE19.jpg,AMSA05.jpg,AMNE06.jpg,MN,1,num_8,16,num_8,1.76672500884,,,2018_Mar_20_1746,60.0049077263,MAFE4ImagesEEG,001,203329,
AFNE01.JPG,AFNE01.JPG,AFNE01.JPG,AFNE01.JPG,AFNE01.JPG,AFNE01.JPG,,,,,,,,,,,,,,,,,1,4,14,1,,,,,,,AMSA17.jpg,AMSA19.jpg,AMNE11.jpg,AMNE17.jpg,AMSA17.jpg,MS,2,num_8,32,num_2,1.70009567635,,,2018_Mar_20_1746,60.0049077263,MAFE4ImagesEEG,001,203329,
AFNE01.JPG,AFNE01.JPG,AFNE01.JPG,AFNE01.JPG,AFNE01.JPG,AFNE01.JPG,,,,,,,,,,,,,,,,,1,5,15,2,,,,,,,AMSA02.jpg,AMNE09.jpg,AMNE16.jpg,AMSA06.jpg,AMNE09.jpg,MN,1,num_6,16,num_6,0.616836674511,,,2018_Mar_20_1746,60.0049077263,MAFE4ImagesEEG,001,203329,
AFNE01.JPG,AFNE01.JPG,AFNE01.JPG,AFNE01.JPG,AFNE01.JPG,AFNE01.JPG,,,,,,,,,,,,,,,,,1,6,16,5,,,,,,,AMSA06.jpg,AMSA18.jpg,AMNE15.jpg,AMNE06.jpg,AMNE15.jpg,MN,1,num_2,16,num_2,0.800156584941,,,2018_Mar_20_1746,60.0049077263,MAFE4ImagesEEG,001,203329,
AFNE01.JPG,AFNE01.JPG,AFNE01.JPG,AFNE01.JPG,AFNE01.JPG,AFNE01.JPG,,,,,,,,,,,,,,,,,1,7,17,4,,,,,,,AMNE11.jpg,AMSA19.jpg,AMNE10.jpg,AMSA17.jpg,AMNE11.jpg,MN,1,num_8,16,num_8,0.61683603283,,,2018_Mar_20_1746,60.0049077263,MAFE4ImagesEEG,001,203329,
AFNE01.JPG,AFNE01.JPG,AFNE01.JPG,AFNE01.JPG,AFNE01.JPG,AFNE01.JPG,,,,,,,,,,,,,,,,,1,8,18,9,,,,,,,AMNE20.jpg,AMSA01.jpg,AMNE12.jpg,AMSA18.jpg,AMNE20.jpg,MN,1,num_8,32,num_6,2.64990645647,,,2018_Mar_20_1746,60.0049077263,MAFE4ImagesEEG,001,203329,
AFNE01.JPG,AFNE01.JPG,AFNE01.JPG,AFNE01.JPG,AFNE01.JPG,AFNE01.JPG,,,,,,,,,,,,,,,,,1,9,19,0,,,,,,,AMNE13.jpg,AMNE12.jpg,AMSA02.jpg,AMSA11.jpg,AMNE12.jpg,MN,1,num_6,32,num_8,0.866784955375,,,2018_Mar_20_1746,60.0049077263,MAFE4ImagesEEG,001,203329,
AFNE01.JPG,AFNE01.JPG,AFNE01.JPG,AFNE01.JPG,AFNE01.JPG,AFNE01.JPG,,,,,,,,,,,,,,,,,2,0,20,6,,,,,,,AMSA01.jpg,AMSA13.jpg,AMNE15.jpg,AMNE20.jpg,AMSA01.jpg,MS,2,num_8,16,num_8,0.616829938721,,,2018_Mar_20_1746,60.0049077263,MAFE4ImagesEEG,001,203329,
AFNE01.JPG,AFNE01.JPG,AFNE01.JPG,AFNE01.JPG,AFNE01.JPG,AFNE01.JPG,,,,,,,,,,,,,,,,,2,1,21,9,,,,,,,AMSA17.jpg,AMNE04.jpg,AMNE16.jpg,AMSA04.jpg,AMNE04.jpg,MN,1,num_6,32,num_4,0.716778909322,,,2018_Mar_20_1746,60.0049077263,MAFE4ImagesEEG,001,203329,
AFNE01.JPG,AFNE01.JPG,AFNE01.JPG,AFNE01.JPG,AFNE01.JPG,AFNE01.JPG,,,,,,,,,,,,,,,,,2,2,22,1,,,,,,,AMSA17.jpg,AMNE17.jpg,AMNE07.jpg,AMSA13.jpg,AMNE07.jpg,MN,1,num_2,16,num_2,0.650236497167,,,2018_Mar_20_1746,60.0049077263,MAFE4ImagesEEG,001,203329,
AFNE01.JPG,AFNE01.JPG,AFNE01.JPG,AFNE01.JPG,AFNE01.JPG,AFNE01.JPG,,,,,,,,,,,,,,,,,2,3,23,5,,,,,,,AMSA06.jpg,AMNE01.jpg,AMNE13.jpg,AMSA08.jpg,AMSA06.jpg,MS,2,num_8,32,num_6,1.58342883363,,,2018_Mar_20_1746,60.0049077263,MAFE4ImagesEEG,001,203329,
AFNE01.JPG,AFNE01.JPG,AFNE01.JPG,AFNE01.JPG,AFNE01.JPG,AFNE01.JPG,,,,,,,,,,,,,,,,,2,4,24,3,,,,,,,AMSA18.jpg,AMNE11.jpg,AMNE14.jpg,AMSA12.jpg,AMNE14.jpg,MN,1,num_2,16,num_2,0.550141590182,,,2018_Mar_20_1746,60.0049077263,MAFE4ImagesEEG,001,203329,
AFNE01.JPG,AFNE01.JPG,AFNE01.JPG,AFNE01.JPG,AFNE01.JPG,AFNE01.JPG,,,,,,,,,,,,,,,,,2,5,25,7,,,,,,,AMNE01.jpg,AMSA15.jpg,AMNE16.jpg,AMSA16.jpg,AMNE01.jpg,MN,1,num_8,16,num_8,1.00016870862,,,2018_Mar_20_1746,60.0049077263,MAFE4ImagesEEG,001,203329,
AFNE01.JPG,AFNE01.JPG,AFNE01.JPG,AFNE01.JPG,AFNE01.JPG,AFNE01.JPG,,,,,,,,,,,,,,,,,2,6,26,0,,,,,,,AMNE16.jpg,AMSA16.jpg,AMSA18.jpg,AMNE01.jpg,AMNE16.jpg,MN,1,num_8,32,num_4,3.11660237471,,,2018_Mar_20_1746,60.0049077263,MAFE4ImagesEEG,001,203329,
AFNE01.JPG,AFNE01.JPG,AFNE01.JPG,AFNE01.JPG,AFNE01.JPG,AFNE01.JPG,,,,,,,,,,,,,,,,,2,7,27,8,,,,,,,AMNE10.jpg,AMSA19.jpg,AMNE04.jpg,AMSA01.jpg,AMNE04.jpg,MN,1,num_2,32,num_4,0.750162053388,,,2018_Mar_20_1746,60.0049077263,MAFE4ImagesEEG,001,203329,
AFNE01.JPG,AFNE01.JPG,AFNE01.JPG,AFNE01.JPG,AFNE01.JPG,AFNE01.JPG,,,,,,,,,,,,,,,,,2,8,28,2,,,,,,,AMNE16.jpg,AMSA10.jpg,AMNE12.jpg,AMSA08.jpg,AMSA10.jpg,MS,2,num_6,16,num_6,2.64991158806,,,2018_Mar_20_1746,60.0049077263,MAFE4ImagesEEG,001,203329,
AFNE01.JPG,AFNE01.JPG,AFNE01.JPG,AFNE01.JPG,AFNE01.JPG,AFNE01.JPG,,,,,,,,,,,,,,,,,2,9,29,4,,,,,,,AMSA04.jpg,AMNE11.jpg,AMNE15.jpg,AMSA19.jpg,AMSA19.jpg,MS,2,num_4,32,num_6,3.01667521428,,,2018_Mar_20_1746,60.0049077263,MAFE4ImagesEEG,001,203329,
AFNE01.JPG,AFNE01.JPG,AFNE01.JPG,AFNE01.JPG,AFNE01.JPG,AFNE01.JPG,,,,,,,,,,,,,,,,,3,0,30,0,,,,,,,AMNE05.jpg,AMSA02.jpg,AMSA14.jpg,AMNE09.jpg,AMNE05.jpg,MN,1,num_8,16,num_8,0.683513155673,,,2018_Mar_20_1746,60.0049077263,MAFE4ImagesEEG,001,203329,
AFNE01.JPG,AFNE01.JPG,AFNE01.JPG,AFNE01.JPG,AFNE01.JPG,AFNE01.JPG,,,,,,,,,,,,,,,,,3,1,31,8,,,,,,,AMSA04.jpg,AMNE07.jpg,AMSA09.jpg,AMNE08.jpg,AMSA09.jpg,MS,2,num_2,32,num_8,0.816842704546,,,2018_Mar_20_1746,60.0049077263,MAFE4ImagesEEG,001,203329,
AFNE01.JPG,AFNE01.JPG,AFNE01.JPG,AFNE01.JPG,AFNE01.JPG,AFNE01.JPG,,,,,,,,,,,,,,,,,3,2,32,9,,,,,,,AMSA10.jpg,AMNE11.jpg,AMNE05.jpg,AMSA04.jpg,AMNE11.jpg,MN,1,num_6,32,num_8,3.04993776092,,,2018_Mar_20_1746,60.0049077263,MAFE4ImagesEEG,001,203329,
AFNE01.JPG,AFNE01.JPG,AFNE01.JPG,AFNE01.JPG,AFNE01.JPG,AFNE01.JPG,,,,,,,,,,,,,,,,,3,3,33,3,,,,,,,AMSA01.jpg,AMSA11.jpg,AMNE05.jpg,AMNE15.jpg,AMSA11.jpg,MS,2,num_6,32,num_8,0.666776359547,,,2018_Mar_20_1746,60.0049077263,MAFE4ImagesEEG,001,203329,
AFNE01.JPG,AFNE01.JPG,AFNE01.JPG,AFNE01.JPG,AFNE01.JPG,AFNE01.JPG,,,,,,,,,,,,,,,,,3,4,34,2,,,,,,,AMSA05.jpg,AMSA02.jpg,AMNE17.jpg,AMNE06.jpg,AMSA02.jpg,MS,2,num_6,16,num_6,0.766785949469,,,2018_Mar_20_1746,60.0049077263,MAFE4ImagesEEG,001,203329,
AFNE01.JPG,AFNE01.JPG,AFNE01.JPG,AFNE01.JPG,AFNE01.JPG,AFNE01.JPG,,,,,,,,,,,,,,,,,3,5,35,6,,,,,,,AMSA18.jpg,AMSA16.jpg,AMNE20.jpg,AMNE17.jpg,AMNE20.jpg,MN,1,num_2,16,num_2,2.90004269034,,,2018_Mar_20_1746,60.0049077263,MAFE4ImagesEEG,001,203329,
AFNE01.JPG,AFNE01.JPG,AFNE01.JPG,AFNE01.JPG,AFNE01.JPG,AFNE01.JPG,,,,,,,,,,,,,,,,,3,6,36,1,,,,,,,AMSA01.jpg,AMNE14.jpg,AMSA12.jpg,AMNE03.jpg,AMSA12.jpg,MS,2,num_2,16,num_2,0.400220219046,,,2018_Mar_20_1746,60.0049077263,MAFE4ImagesEEG,001,203329,
AFNE01.JPG,AFNE01.JPG,AFNE01.JPG,AFNE01.JPG,AFNE01.JPG,AFNE01.JPG,,,,,,,,,,,,,,,,,3,7,37,5,,,,,,,AMNE19.jpg,AMNE10.jpg,AMSA09.jpg,AMSA16.jpg,AMNE19.jpg,MN,1,num_8,16,num_8,0.733491970692,,,2018_Mar_20_1746,60.0049077263,MAFE4ImagesEEG,001,203329,
AFNE01.JPG,AFNE01.JPG,AFNE01.JPG,AFNE01.JPG,AFNE01.JPG,AFNE01.JPG,,,,,,,,,,,,,,,,,3,8,38,7,,,,,,,AMSA13.jpg,AMSA14.jpg,AMNE15.jpg,AMNE13.jpg,AMSA14.jpg,MS,2,num_6,32,num_8,0.350177897606,,,2018_Mar_20_1746,60.0049077263,MAFE4ImagesEEG,001,203329,
AFNE01.JPG,AFNE01.JPG,AFNE01.JPG,AFNE01.JPG,AFNE01.JPG,AFNE01.JPG,,,,,,,,,,,,,,,,,3,9,39,4,,,,,,,AMSA19.jpg,AMNE01.jpg,AMSA07.jpg,AMNE15.jpg,AMSA19.jpg,MS,2,num_8,16,num_8,0.566865236033,,,2018_Mar_20_1746,60.0049077263,MAFE4ImagesEEG,001,203329,
AFNE01.JPG,AFNE01.JPG,AFNE01.JPG,AFNE01.JPG,AFNE01.JPG,AFNE01.JPG,,,,,,,,,,,,,,,,,4,0,40,6,,,,,,,AMSA12.jpg,AMNE07.jpg,AMNE06.jpg,AMSA03.jpg,AMNE07.jpg,MN,1,num_6,32,num_2,1.81671023928,,,2018_Mar_20_1746,60.0049077263,MAFE4ImagesEEG,001,203329,
AFNE01.JPG,AFNE01.JPG,AFNE01.JPG,AFNE01.JPG,AFNE01.JPG,AFNE01.JPG,,,,,,,,,,,,,,,,,4,1,41,5,,,,,,,AMNE04.jpg,AMSA15.jpg,AMNE08.jpg,AMSA16.jpg,AMNE04.jpg,MN,1,num_8,16,num_8,0.51688770391,,,2018_Mar_20_1746,60.0049077263,MAFE4ImagesEEG,001,203329,
AFNE01.JPG,AFNE01.JPG,AFNE01.JPG,AFNE01.JPG,AFNE01.JPG,AFNE01.JPG,,,,,,,,,,,,,,,,,4,2,42,4,,,,,,,AMNE01.jpg,AMSA16.jpg,AMNE14.jpg,AMSA08.jpg,AMNE01.jpg,MN,1,num_8,16,num_8,0.616753282025,,,2018_Mar_20_1746,60.0049077263,MAFE4ImagesEEG,001,203329,
AFNE01.JPG,AFNE01.JPG,AFNE01.JPG,AFNE01.JPG,AFNE01.JPG,AFNE01.JPG,,,,,,,,,,,,,,,,,4,3,43,8,,,,,,,AMSA09.jpg,AMNE06.jpg,AMNE19.jpg,AMSA12.jpg,AMSA12.jpg,MS,2,num_4,32,num_6,2.21668413049,,,2018_Mar_20_1746,60.0049077263,MAFE4ImagesEEG,001,203329,
AFNE01.JPG,AFNE01.JPG,AFNE01.JPG,AFNE01.JPG,AFNE01.JPG,AFNE01.JPG,,,,,,,,,,,,,,,,,4,4,44,1,,,,,,,AMSA04.jpg,AMSA18.jpg,AMNE16.jpg,AMNE13.jpg,AMSA18.jpg,MS,2,num_6,48,None,,,,2018_Mar_20_1746,60.0049077263,MAFE4ImagesEEG,001,203329,
AFNE01.JPG,AFNE01.JPG,AFNE01.JPG,AFNE01.JPG,AFNE01.JPG,AFNE01.JPG,,,,,,,,,,,,,,,,,4,5,45,2,,,,,,,AMSA11.jpg,AMNE18.jpg,AMNE09.jpg,AMSA18.jpg,AMNE09.jpg,MN,1,num_2,32,num_8,0.433609136846,,,2018_Mar_20_1746,60.0049077263,MAFE4ImagesEEG,001,203329,
AFNE01.JPG,AFNE01.JPG,AFNE01.JPG,AFNE01.JPG,AFNE01.JPG,AFNE01.JPG,,,,,,,,,,,,,,,,,4,6,46,7,,,,,,,AMSA08.jpg,AMNE09.jpg,AMSA02.jpg,AMNE08.jpg,AMNE08.jpg,MN,1,num_4,48,None,,,,2018_Mar_20_1746,60.0049077263,MAFE4ImagesEEG,001,203329,
AFNE01.JPG,AFNE01.JPG,AFNE01.JPG,AFNE01.JPG,AFNE01.JPG,AFNE01.JPG,,,,,,,,,,,,,,,,,4,7,47,3,,,,,,,AMSA04.jpg,AMSA12.jpg,AMNE18.jpg,AMNE06.jpg,AMNE06.jpg,MN,1,num_4,32,num_8,2.21667675395,,,2018_Mar_20_1746,60.0049077263,MAFE4ImagesEEG,001,203329,
AFNE01.JPG,AFNE01.JPG,AFNE01.JPG,AFNE01.JPG,AFNE01.JPG,AFNE01.JPG,,,,,,,,,,,,,,,,,4,8,48,0,,,,,,,AMSA08.jpg,AMNE06.jpg,AMSA04.jpg,AMNE09.jpg,AMSA04.jpg,MS,2,num_2,16,num_2,1.08347934997,,,2018_Mar_20_1746,60.0049077263,MAFE4ImagesEEG,001,203329,
AFNE01.JPG,AFNE01.JPG,AFNE01.JPG,AFNE01.JPG,AFNE01.JPG,AFNE01.JPG,,,,,,,,,,,,,,,,,4,9,49,9,,,,,,,AMSA08.jpg,AMNE20.jpg,AMNE15.jpg,AMSA18.jpg,AMNE15.jpg,MN,1,num_2,16,num_2,0.816781122237,,,2018_Mar_20_1746,60.0049077263,MAFE4ImagesEEG,001,203329,
AFNE01.JPG,AFNE01.JPG,AFNE01.JPG,AFNE01.JPG,AFNE01.JPG,AFNE01.JPG,,,,,,,,,,,,,,,,,5,0,50,2,,,,,,,AMSA05.jpg,AMNE13.jpg,AMNE18.jpg,AMSA17.jpg,AMNE18.jpg,MN,1,num_2,32,num_8,1.06679996569,,,2018_Mar_20_1746,60.0049077263,MAFE4ImagesEEG,001,203329,
AFNE01.JPG,AFNE01.JPG,AFNE01.JPG,AFNE01.JPG,AFNE01.JPG,AFNE01.JPG,,,,,,,,,,,,,,,,,5,1,51,7,,,,,,,AMSA09.jpg,AMNE02.jpg,AMNE17.jpg,AMSA15.jpg,AMNE02.jpg,MN,1,num_6,16,num_6,3.64990549441,,,2018_Mar_20_1746,60.0049077263,MAFE4ImagesEEG,001,203329,
AFNE01.JPG,AFNE01.JPG,AFNE01.JPG,AFNE01.JPG,AFNE01.JPG,AFNE01.JPG,,,,,,,,,,,,,,,,,5,2,52,0,,,,,,,AMNE07.jpg,AMSA05.jpg,AMNE20.jpg,AMSA07.jpg,AMSA05.jpg,MS,2,num_6,16,num_6,0.983511776663,,,2018_Mar_20_1746,60.0049077263,MAFE4ImagesEEG,001,203329,
AFNE01.JPG,AFNE01.JPG,AFNE01.JPG,AFNE01.JPG,AFNE01.JPG,AFNE01.JPG,,,,,,,,,,,,,,,,,5,3,53,9,,,,,,,AMSA07.jpg,AMSA06.jpg,AMNE05.jpg,AMNE08.jpg,AMNE05.jpg,MN,1,num_2,32,num_6,1.21675244812,,,2018_Mar_20_1746,60.0049077263,MAFE4ImagesEEG,001,203329,
AFNE01.JPG,AFNE01.JPG,AFNE01.JPG,AFNE01.JPG,AFNE01.JPG,AFNE01.JPG,,,,,,,,,,,,,,,,,5,4,54,6,,,,,,,AMNE06.jpg,AMNE09.jpg,AMSA12.jpg,AMSA10.jpg,AMNE09.jpg,MN,1,num_6,16,num_6,1.95007955935,,,2018_Mar_20_1746,60.0049077263,MAFE4ImagesEEG,001,203329,
AFNE01.JPG,AFNE01.JPG,AFNE01.JPG,AFNE01.JPG,AFNE01.JPG,AFNE01.JPG,,,,,,,,,,,,,,,,,5,5,55,3,,,,,,,AMSA08.jpg,AMNE05.jpg,AMSA07.jpg,AMNE20.jpg,AMSA08.jpg,MS,2,num_8,16,num_8,0.733497744426,,,2018_Mar_20_1746,60.0049077263,MAFE4ImagesEEG,001,203329,
AFNE01.JPG,AFNE01.JPG,AFNE01.JPG,AFNE01.JPG,AFNE01.JPG,AFNE01.JPG,,,,,,,,,,,,,,,,,5,6,56,4,,,,,,,AMNE17.jpg,AMSA04.jpg,AMNE13.jpg,AMSA16.jpg,AMNE13.jpg,MN,1,num_2,32,num_8,0.80040868558,,,2018_Mar_20_1746,60.0049077263,MAFE4ImagesEEG,001,203329,
AFNE01.JPG,AFNE01.JPG,AFNE01.JPG,AFNE01.JPG,AFNE01.JPG,AFNE01.JPG,,,,,,,,,,,,,,,,,5,7,57,5,,,,,,,AMSA05.jpg,AMNE09.jpg,AMNE19.jpg,AMSA14.jpg,AMNE09.jpg,MN,1,num_6,16,num_6,0.600190326106,,,2018_Mar_20_1746,60.0049077263,MAFE4ImagesEEG,001,203329,
AFNE01.JPG,AFNE01.JPG,AFNE01.JPG,AFNE01.JPG,AFNE01.JPG,AFNE01.JPG,,,,,,,,,,,,,,,,,5,8,58,8,,,,,,,AMNE03.jpg,AMSA20.jpg,AMNE18.jpg,AMSA18.jpg,AMNE18.jpg,MN,1,num_2,16,num_2,0.833454412408,,,2018_Mar_20_1746,60.0049077263,MAFE4ImagesEEG,001,203329,
AFNE01.JPG,AFNE01.JPG,AFNE01.JPG,AFNE01.JPG,AFNE01.JPG,AFNE01.JPG,,,,,,,,,,,,,,,,,5,9,59,1,,,,,,,AMNE16.jpg,AMNE04.jpg,AMSA07.jpg,AMSA02.jpg,AMNE04.jpg,MN,1,num_6,16,num_6,0.916762808338,,,2018_Mar_20_1746,60.0049077263,MAFE4ImagesEEG,001,203329,
,,,,,,,,,,,,,,,,,,,,,,,,,,,,,,,,,,,,,,,,,,,space,12.2825196348,2018_Mar_20_1746,60.0049077263,MAFE4ImagesEEG,001,203329,
AFNE01.JPG,AFNE01.JPG,AFNE01.JPG,AFNE01.JPG,AFNE01.JPG,AFNE01.JPG,,,,,,,,,,,,,,,,,,,,,0,0,0,0,,,AFNE03.jpg,AFNE08.jpg,AFSA10.jpg,AFSA04.jpg,AFSA10.jpg,FS,4,num_2,32,num_6,1.50010632491,,,2018_Mar_20_1746,60.0049077263,MAFE4ImagesEEG,001,203329,
AFNE01.JPG,AFNE01.JPG,AFNE01.JPG,AFNE01.JPG,AFNE01.JPG,AFNE01.JPG,,,,,,,,,,,,,,,,,,,,,0,1,1,9,,,AFSA14.jpg,AFSA04.jpg,AFNE16.jpg,AFNE11.jpg,AFSA04.jpg,FS,4,num_6,16,num_6,0.700129033066,,,2018_Mar_20_1746,60.0049077263,MAFE4ImagesEEG,001,203329,
AFNE01.JPG,AFNE01.JPG,AFNE01.JPG,AFNE01.JPG,AFNE01.JPG,AFNE01.JPG,,,,,,,,,,,,,,,,,,,,,0,2,2,3,,,AFSA11.jpg,AFNE10.jpg,AFSA13.jpg,AFNE08.jpg,AFSA13.jpg,FS,4,num_2,16,num_2,0.799679966643,,,2018_Mar_20_1746,60.0049077263,MAFE4ImagesEEG,001,203329,
AFNE01.JPG,AFNE01.JPG,AFNE01.JPG,AFNE01.JPG,AFNE01.JPG,AFNE01.JPG,,,,,,,,,,,,,,,,,,,,,0,3,3,6,,,AFNE04.jpg,AFSA07.jpg,AFSA18.jpg,AFNE12.jpg,AFNE04.jpg,FN,3,num_8,16,num_8,0.450163753238,,,2018_Mar_20_1746,60.0049077263,MAFE4ImagesEEG,001,203329,
AFNE01.JPG,AFNE01.JPG,AFNE01.JPG,AFNE01.JPG,AFNE01.JPG,AFNE01.JPG,,,,,,,,,,,,,,,,,,,,,0,4,4,5,,,AFNE09.jpg,AFSA13.jpg,AFNE07.jpg,AFSA11.jpg,AFSA11.jpg,FS,4,num_4,32,num_2,1.25010415958,,,2018_Mar_20_1746,60.0049077263,MAFE4ImagesEEG,001,203329,
AFNE01.JPG,AFNE01.JPG,AFNE01.JPG,AFNE01.JPG,AFNE01.JPG,AFNE01.JPG,,,,,,,,,,,,,,,,,,,,,0,5,5,8,,,AFNE03.jpg,AFSA15.jpg,AFNE18.jpg,AFSA05.jpg,AFSA15.jpg,FS,4,num_6,16,num_6,0.616811656859,,,2018_Mar_20_1746,60.0049077263,MAFE4ImagesEEG,001,203329,
AFNE01.JPG,AFNE01.JPG,AFNE01.JPG,AFNE01.JPG,AFNE01.JPG,AFNE01.JPG,,,,,,,,,,,,,,,,,,,,,0,6,6,2,,,AFSA09.jpg,AFNE05.jpg,AFSA18.jpg,AFNE18.jpg,AFSA18.jpg,FS,4,num_2,32,num_6,0.733517309185,,,2018_Mar_20_1746,60.0049077263,MAFE4ImagesEEG,001,203329,
AFNE01.JPG,AFNE01.JPG,AFNE01.JPG,AFNE01.JPG,AFNE01.JPG,AFNE01.JPG,,,,,,,,,,,,,,,,,,,,,0,7,7,7,,,AFSA19.jpg,AFSA16.jpg,AFNE15.jpg,AFNE17.jpg,AFSA16.jpg,FS,4,num_6,32,num_4,0.916715017986,,,2018_Mar_20_1746,60.0049077263,MAFE4ImagesEEG,001,203329,
AFNE01.JPG,AFNE01.JPG,AFNE01.JPG,AFNE01.JPG,AFNE01.JPG,AFNE01.JPG,,,,,,,,,,,,,,,,,,,,,0,8,8,1,,,AFSA19.jpg,AFSA03.jpg,AFNE07.jpg,AFNE15.jpg,AFNE15.jpg,FN,3,num_4,32,num_6,1.21672839299,,,2018_Mar_20_1746,60.0049077263,MAFE4ImagesEEG,001,203329,
AFNE01.JPG,AFNE01.JPG,AFNE01.JPG,AFNE01.JPG,AFNE01.JPG,AFNE01.JPG,,,,,,,,,,,,,,,,,,,,,0,9,9,4,,,AFNE16.jpg,AFSA02.jpg,AFNE02.jpg,AFSA15.jpg,AFSA15.jpg,FS,4,num_4,16,num_4,1.01672749501,,,2018_Mar_20_1746,60.0049077263,MAFE4ImagesEEG,001,203329,
AFNE01.JPG,AFNE01.JPG,AFNE01.JPG,AFNE01.JPG,AFNE01.JPG,AFNE01.JPG,,,,,,,,,,,,,,,,,,,,,1,0,10,9,,,AFNE17.jpg,AFNE12.jpg,AFSA10.jpg,AFSA17.jpg,AFSA17.jpg,FS,4,num_4,16,num_4,0.700131278485,,,2018_Mar_20_1746,60.0049077263,MAFE4ImagesEEG,001,203329,
AFNE01.JPG,AFNE01.JPG,AFNE01.JPG,AFNE01.JPG,AFNE01.JPG,AFNE01.JPG,,,,,,,,,,,,,,,,,,,,,1,1,11,3,,,AFNE02.jpg,AFSA03.jpg,AFNE12.jpg,AFSA07.jpg,AFSA07.jpg,FS,4,num_4,16,num_4,0.90013762936,,,2018_Mar_20_1746,60.0049077263,MAFE4ImagesEEG,001,203329,
AFNE01.JPG,AFNE01.JPG,AFNE01.JPG,AFNE01.JPG,AFNE01.JPG,AFNE01.JPG,,,,,,,,,,,,,,,,,,,,,1,2,12,8,,,AFNE05.jpg,AFSA01.jpg,AFNE12.jpg,AFSA03.jpg,AFNE05.jpg,FN,3,num_8,16,num_8,0.38353923196,,,2018_Mar_20_1746,60.0049077263,MAFE4ImagesEEG,001,203329,
AFNE01.JPG,AFNE01.JPG,AFNE01.JPG,AFNE01.JPG,AFNE01.JPG,AFNE01.JPG,,,,,,,,,,,,,,,,,,,,,1,3,13,5,,,AFSA03.jpg,AFSA13.jpg,AFNE09.jpg,AFNE20.jpg,AFSA13.jpg,FS,4,num_6,16,num_6,0.166791914962,,,2018_Mar_20_1746,60.0049077263,MAFE4ImagesEEG,001,203329,
AFNE01.JPG,AFNE01.JPG,AFNE01.JPG,AFNE01.JPG,AFNE01.JPG,AFNE01.JPG,,,,,,,,,,,,,,,,,,,,,1,4,14,1,,,AFNE07.jpg,AFNE09.jpg,AFSA06.jpg,AFSA15.jpg,AFNE07.jpg,FN,3,num_8,32,num_2,0.333493702579,,,2018_Mar_20_1746,60.0049077263,MAFE4ImagesEEG,001,203329,
AFNE01.JPG,AFNE01.JPG,AFNE01.JPG,AFNE01.JPG,AFNE01.JPG,AFNE01.JPG,,,,,,,,,,,,,,,,,,,,,1,5,15,0,,,AFNE04.jpg,AFNE16.jpg,AFSA04.jpg,AFSA01.jpg,AFSA04.jpg,FS,4,num_2,32,num_8,0.366829377599,,,2018_Mar_20_1746,60.0049077263,MAFE4ImagesEEG,001,203329,
AFNE01.JPG,AFNE01.JPG,AFNE01.JPG,AFNE01.JPG,AFNE01.JPG,AFNE01.JPG,,,,,,,,,,,,,,,,,,,,,1,6,16,7,,,AFNE19.jpg,AFSA11.jpg,AFNE16.jpg,AFSA18.jpg,AFSA18.jpg,FS,4,num_4,32,num_2,1.10015039472,,,2018_Mar_20_1746,60.0049077263,MAFE4ImagesEEG,001,203329,
AFNE01.JPG,AFNE01.JPG,AFNE01.JPG,AFNE01.JPG,AFNE01.JPG,AFNE01.JPG,,,,,,,,,,,,,,,,,,,,,1,7,17,4,,,AFSA05.jpg,AFNE15.jpg,AFNE12.jpg,AFSA20.jpg,AFNE15.jpg,FN,3,num_6,16,num_6,1.51671642903,,,2018_Mar_20_1746,60.0049077263,MAFE4ImagesEEG,001,203329,
AFNE01.JPG,AFNE01.JPG,AFNE01.JPG,AFNE01.JPG,AFNE01.JPG,AFNE01.JPG,,,,,,,,,,,,,,,,,,,,,1,8,18,6,,,AFSA09.jpg,AFSA12.jpg,AFNE04.jpg,AFNE11.jpg,AFSA12.jpg,FS,4,num_6,16,num_6,0.650164651219,,,2018_Mar_20_1746,60.0049077263,MAFE4ImagesEEG,001,203329,
AFNE01.JPG,AFNE01.JPG,AFNE01.JPG,AFNE01.JPG,AFNE01.JPG,AFNE01.JPG,,,,,,,,,,,,,,,,,,,,,1,9,19,2,,,AFNE13.jpg,AFNE02.jpg,AFSA11.jpg,AFSA06.jpg,AFNE13.jpg,FN,3,num_8,32,num_6,0.616794016212,,,2018_Mar_20_1746,60.0049077263,MAFE4ImagesEEG,001,203329,
AFNE01.JPG,AFNE01.JPG,AFNE01.JPG,AFNE01.JPG,AFNE01.JPG,AFNE01.JPG,,,,,,,,,,,,,,,,,,,,,2,0,20,1,,,AFSA05.jpg,AFNE03.jpg,AFSA04.jpg,AFNE14.jpg,AFSA05.jpg,FS,4,num_8,16,num_8,0.650187423918,,,2018_Mar_20_1746,60.0049077263,MAFE4ImagesEEG,001,203329,
AFNE01.JPG,AFNE01.JPG,AFNE01.JPG,AFNE01.JPG,AFNE01.JPG,AFNE01.JPG,,,,,,,,,,,,,,,,,,,,,2,1,21,5,,,AFNE20.jpg,AFNE18.jpg,AFSA16.jpg,AFSA20.jpg,AFSA20.jpg,FS,4,num_4,32,num_8,1.80009404058,,,2018_Mar_20_1746,60.0049077263,MAFE4ImagesEEG,001,203329,
AFNE01.JPG,AFNE01.JPG,AFNE01.JPG,AFNE01.JPG,AFNE01.JPG,AFNE01.JPG,,,,,,,,,,,,,,,,,,,,,2,2,22,9,,,AFNE17.jpg,AFSA06.jpg,AFNE15.jpg,AFSA05.jpg,AFNE15.jpg,FN,3,num_2,32,num_6,0.00026044016704,,,2018_Mar_20_1746,60.0049077263,MAFE4ImagesEEG,001,203329,
AFNE01.JPG,AFNE01.JPG,AFNE01.JPG,AFNE01.JPG,AFNE01.JPG,AFNE01.JPG,,,,,,,,,,,,,,,,,,,,,2,3,23,3,,,AFNE14.jpg,AFNE17.jpg,AFSA01.jpg,AFSA05.jpg,AFSA05.jpg,FS,4,num_4,32,num_6,0.350226650015,,,2018_Mar_20_1746,60.0049077263,MAFE4ImagesEEG,001,203329,
AFNE01.JPG,AFNE01.JPG,AFNE01.JPG,AFNE01.JPG,AFNE01.JPG,AFNE01.JPG,,,,,,,,,,,,,,,,,,,,,2,4,24,0,,,AFNE10.jpg,AFSA19.jpg,AFSA06.jpg,AFNE03.jpg,AFSA19.jpg,FS,4,num_6,16,num_6,0.566801729612,,,2018_Mar_20_1746,60.0049077263,MAFE4ImagesEEG,001,203329,
AFNE01.JPG,AFNE01.JPG,AFNE01.JPG,AFNE01.JPG,AFNE01.JPG,AFNE01.JPG,,,,,,,,,,,,,,,,,,,,,2,5,25,2,,,AFSA10.jpg,AFNE03.jpg,AFNE07.jpg,AFSA04.jpg,AFNE03.jpg,FN,3,num_6,32,num_2,1.86668937467,,,2018_Mar_20_1746,60.0049077263,MAFE4ImagesEEG,001,203329,
AFNE01.JPG,AFNE01.JPG,AFNE01.JPG,AFNE01.JPG,AFNE01.JPG,AFNE01.JPG,,,,,,,,,,,,,,,,,,,,,2,6,26,7,,,AFSA18.jpg,AFNE12.jpg,AFNE03.jpg,AFSA08.jpg,AFNE12.jpg,FN,3,num_6,16,num_6,0.616811015178,,,2018_Mar_20_1746,60.0049077263,MAFE4ImagesEEG,001,203329,
AFNE01.JPG,AFNE01.JPG,AFNE01.JPG,AFNE01.JPG,AFNE01.JPG,AFNE01.JPG,,,,,,,,,,,,,,,,,,,,,2,7,27,8,,,AFNE13.jpg,AFSA16.jpg,AFNE18.jpg,AFSA18.jpg,AFSA18.jpg,FS,4,num_4,16,num_4,0.933562790044,,,2018_Mar_20_1746,60.0049077263,MAFE4ImagesEEG,001,203329,
AFNE01.JPG,AFNE01.JPG,AFNE01.JPG,AFNE01.JPG,AFNE01.JPG,AFNE01.JPG,,,,,,,,,,,,,,,,,,,,,2,8,28,4,,,AFNE02.jpg,AFSA04.jpg,AFSA07.jpg,AFNE19.jpg,AFSA04.jpg,FS,4,num_6,32,num_8,1.83325138455,,,2018_Mar_20_1746,60.0049077263,MAFE4ImagesEEG,001,203329,
AFNE01.JPG,AFNE01.JPG,AFNE01.JPG,AFNE01.JPG,AFNE01.JPG,AFNE01.JPG,,,,,,,,,,,,,,,,,,,,,2,9,29,6,,,AFSA08.jpg,AFNE01.jpg,AFNE03.jpg,AFSA19.jpg,AFSA08.jpg,FS,4,num_8,16,num_8,1.41673987545,,,2018_Mar_20_1746,60.0049077263,MAFE4ImagesEEG,001,203329,
AFNE01.JPG,AFNE01.JPG,AFNE01.JPG,AFNE01.JPG,AFNE01.JPG,AFNE01.JPG,,,,,,,,,,,,,,,,,,,,,3,0,30,4,,,AFNE14.jpg,AFSA06.jpg,AFNE19.jpg,AFSA18.jpg,AFSA18.jpg,FS,4,num_4,32,num_2,0.683468572795,,,2018_Mar_20_1746,60.0049077263,MAFE4ImagesEEG,001,203329,
AFNE01.JPG,AFNE01.JPG,AFNE01.JPG,AFNE01.JPG,AFNE01.JPG,AFNE01.JPG,,,,,,,,,,,,,,,,,,,,,3,1,31,0,,,AFSA18.jpg,AFNE11.jpg,AFSA15.jpg,AFNE20.jpg,AFSA18.jpg,FS,4,num_8,32,num_2,0.833451204933,,,2018_Mar_20_1746,60.0049077263,MAFE4ImagesEEG,001,203329,
AFNE01.JPG,AFNE01.JPG,AFNE01.JPG,AFNE01.JPG,AFNE01.JPG,AFNE01.JPG,,,,,,,,,,,,,,,,,,,,,3,2,32,8,,,AFSA07.jpg,AFNE19.jpg,AFNE14.jpg,AFSA12.jpg,AFSA12.jpg,FS,4,num_4,16,num_4,0.833554483019,,,2018_Mar_20_1746,60.0049077263,MAFE4ImagesEEG,001,203329,
AFNE01.JPG,AFNE01.JPG,AFNE01.JPG,AFNE01.JPG,AFNE01.JPG,AFNE01.JPG,,,,,,,,,,,,,,,,,,,,,3,3,33,7,,,AFNE05.jpg,AFNE20.jpg,AFSA12.jpg,AFSA04.jpg,AFNE05.jpg,FN,3,num_8,32,num_2,1.64220006345,,,2018_Mar_20_1746,60.0049077263,MAFE4ImagesEEG,001,203329,
AFNE01.JPG,AFNE01.JPG,AFNE01.JPG,AFNE01.JPG,AFNE01.JPG,AFNE01.JPG,,,,,,,,,,,,,,,,,,,,,3,4,34,3,,,AFNE15.jpg,AFNE19.jpg,AFSA11.jpg,AFSA10.jpg,AFSA11.jpg,FS,4,num_2,16,num_2,0.849990746472,,,2018_Mar_20_1746,60.0049077263,MAFE4ImagesEEG,001,203329,
AFNE01.JPG,AFNE01.JPG,AFNE01.JPG,AFNE01.JPG,AFNE01.JPG,AFNE01.JPG,,,,,,,,,,,,,,,,,,,,,3,5,35,9,,,AFNE10.jpg,AFSA06.jpg,AFSA08.jpg,AFNE13.jpg,AFNE13.jpg,FN,3,num_4,48,None,,,,2018_Mar_20_1746,60.0049077263,MAFE4ImagesEEG,001,203329,
AFNE01.JPG,AFNE01.JPG,AFNE01.JPG,AFNE01.JPG,AFNE01.JPG,AFNE01.JPG,,,,,,,,,,,,,,,,,,,,,3,6,36,1,,,AFNE20.jpg,AFSA09.jpg,AFSA10.jpg,AFNE01.jpg,AFSA09.jpg,FS,4,num_6,16,num_6,0.900159439538,,,2018_Mar_20_1746,60.0049077263,MAFE4ImagesEEG,001,203329,
AFNE01.JPG,AFNE01.JPG,AFNE01.JPG,AFNE01.JPG,AFNE01.JPG,AFNE01.JPG,,,,,,,,,,,,,,,,,,,,,3,7,37,6,,,AFNE18.jpg,AFSA07.jpg,AFNE16.jpg,AFSA20.jpg,AFNE16.jpg,FN,3,num_2,16,num_2,0.816756425425,,,2018_Mar_20_1746,60.0049077263,MAFE4ImagesEEG,001,203329,
AFNE01.JPG,AFNE01.JPG,AFNE01.JPG,AFNE01.JPG,AFNE01.JPG,AFNE01.JPG,,,,,,,,,,,,,,,,,,,,,3,8,38,2,,,AFNE18.jpg,AFSA14.jpg,AFNE13.jpg,AFSA20.jpg,AFNE13.jpg,FN,3,num_2,32,num_8,1.43343144748,,,2018_Mar_20_1746,60.0049077263,MAFE4ImagesEEG,001,203329,
