IPosition2,IPosition3,IPosition1,IPosition6,IPosition4,IPosition5,TrialsM1.thisRepN,TrialsM1.thisTrialN,TrialsM1.thisN,TrialsM1.thisIndex,TrialsF1.thisRepN,TrialsF1.thisTrialN,TrialsF1.thisN,TrialsF1.thisIndex,TrialsM2.thisRepN,TrialsM2.thisTrialN,TrialsM2.thisN,TrialsM2.thisIndex,TrialsF2.thisRepN,TrialsF2.thisTrialN,TrialsF2.thisN,TrialsF2.thisIndex,TrialsM3.thisRepN,TrialsM3.thisTrialN,TrialsM3.thisN,TrialsM3.thisIndex,TrialsF3.thisRepN,TrialsF3.thisTrialN,TrialsF3.thisN,TrialsF3.thisIndex,InstrKey_resp.keys,InstrKey_resp.rt,Image0 _Position,Image1 _Position,Image2 _Position,Image3 _Position,Center_image,condition,code,correct_answer,accuracy,Key_Resp.keys,Key_Resp.rt,BreakKey_resp.keys,BreakKey_resp.rt,date,frameRate,expName,session,participant,
,,,,,,,,,,,,,,,,,,,,,,,,,,,,,,space,16.04926586,,,,,,,,,,,,,,2018_Apr_04_1539,59.9949199212,MAFE4ImagesEEG,001,203371,
AFSA21.JPG,AFNE22.JPG,AFNE21.JPG,AFSA23.JPG,AFSA22.JPG,AFNE23.JPG,0,0,0,0,,,,,,,,,,,,,,,,,,,,,,,AMNE17.jpg,AMSA20.jpg,AMNE14.jpg,AMSA13.jpg,AMSA20.jpg,MS,2,num_6,16,num_6,0.816750796512,,,2018_Apr_04_1539,59.9949199212,MAFE4ImagesEEG,001,203371,
AMSA21.JPG,AMNE23.JPG,AMNE21.JPG,AMSA25.JPG,AMNE25.JPG,AMSA23.JPG,0,1,1,5,,,,,,,,,,,,,,,,,,,,,,,AMNE10.jpg,AMSA08.jpg,AMNE20.jpg,AMSA09.jpg,AMNE10.jpg,MN,1,num_8,32,num_4,0.750125248684,,,2018_Apr_04_1539,59.9949199212,MAFE4ImagesEEG,001,203371,
AFSA25.JPG,AFNE24.JPG,AFSA24.JPG,AFNE21.JPG,AFSA21.JPG,AFNE25.JPG,0,2,2,2,,,,,,,,,,,,,,,,,,,,,,,AMSA03.jpg,AMSA11.jpg,AMNE06.jpg,AMNE17.jpg,AMNE17.jpg,MN,1,num_4,16,num_4,0.566816066974,,,2018_Apr_04_1539,59.9949199212,MAFE4ImagesEEG,001,203371,
AMNE22.JPG,AMSA24.JPG,AMSA22.JPG,AMNE25.JPG,AMNE24.JPG,AMSA25.JPG,0,3,3,7,,,,,,,,,,,,,,,,,,,,,,,AMNE19.jpg,AMSA12.jpg,AMNE15.jpg,AMSA06.jpg,AMNE19.jpg,MN,1,num_8,32,num_6,0.816786398529,,,2018_Apr_04_1539,59.9949199212,MAFE4ImagesEEG,001,203371,
AFSA21.JPG,AFNE23.JPG,AFNE21.JPG,AFSA25.JPG,AFNE25.JPG,AFSA23.JPG,0,4,4,4,,,,,,,,,,,,,,,,,,,,,,,AMSA10.jpg,AMNE03.jpg,AMNE20.jpg,AMSA08.jpg,AMSA10.jpg,MS,2,num_8,16,num_8,0.816832264303,,,2018_Apr_04_1539,59.9949199212,MAFE4ImagesEEG,001,203371,
AFNE22.JPG,AFSA24.JPG,AFSA22.JPG,AFNE25.JPG,AFNE24.JPG,AFSA25.JPG,0,5,5,6,,,,,,,,,,,,,,,,,,,,,,,AMSA14.jpg,AMSA04.jpg,AMNE04.jpg,AMNE14.jpg,AMNE04.jpg,MN,1,num_2,32,num_4,0.500324588036,,,2018_Apr_04_1539,59.9949199212,MAFE4ImagesEEG,001,203371,
AMNE23.JPG,AMNE24.JPG,AMNE22.JPG,AMSA24.JPG,AMSA22.JPG,AMSA23.JPG,0,6,6,9,,,,,,,,,,,,,,,,,,,,,,,AMNE16.jpg,AMSA06.jpg,AMSA14.jpg,AMNE19.jpg,AMSA14.jpg,MS,2,num_2,32,num_4,0.766761669656,,,2018_Apr_04_1539,59.9949199212,MAFE4ImagesEEG,001,203371,
AMSA25.JPG,AMNE24.JPG,AMSA24.JPG,AMNE26.JPG,AMSA21.JPG,AMNE25.JPG,0,7,7,3,,,,,,,,,,,,,,,,,,,,,,,AMNE20.jpg,AMNE13.jpg,AMSA17.jpg,AMSA04.jpg,AMNE20.jpg,MN,1,num_8,16,num_8,0.750110815396,,,2018_Apr_04_1539,59.9949199212,MAFE4ImagesEEG,001,203371,
AMSA21.JPG,AMNE22.JPG,AMNE21.JPG,AMSA23.JPG,AMSA22.JPG,AMNE23.JPG,0,8,8,1,,,,,,,,,,,,,,,,,,,,,,,AMSA04.jpg,AMNE09.jpg,AMSA02.jpg,AMNE15.jpg,AMNE15.jpg,MN,1,num_4,32,num_6,0.966775269015,,,2018_Apr_04_1539,59.9949199212,MAFE4ImagesEEG,001,203371,
AFNE23.JPG,AFNE24.JPG,AFNE22.JPG,AFSA24.JPG,AFSA22.JPG,AFSA23.JPG,0,9,9,8,,,,,,,,,,,,,,,,,,,,,,,AMSA01.jpg,AMSA06.jpg,AMNE17.jpg,AMNE18.jpg,AMNE17.jpg,MN,1,num_2,32,num_4,0.700079992297,,,2018_Apr_04_1539,59.9949199212,MAFE4ImagesEEG,001,203371,
AFSA21.JPG,AFNE22.JPG,AFNE21.JPG,AFSA23.JPG,AFSA22.JPG,AFNE23.JPG,,,,,0,0,0,0,,,,,,,,,,,,,,,,,,,AFSA19.jpg,AFSA10.jpg,AFNE19.jpg,AFNE20.jpg,AFNE20.jpg,FN,3,num_4,32,num_8,0.733487865538,,,2018_Apr_04_1539,59.9949199212,MAFE4ImagesEEG,001,203371,
AMSA25.JPG,AMNE24.JPG,AMSA24.JPG,AMNE26.JPG,AMSA21.JPG,AMNE25.JPG,,,,,0,1,1,3,,,,,,,,,,,,,,,,,,,AFNE10.jpg,AFSA07.jpg,AFSA12.jpg,AFNE08.jpg,AFNE10.jpg,FN,3,num_8,32,num_4,0.45021646691,,,2018_Apr_04_1539,59.9949199212,MAFE4ImagesEEG,001,203371,
AMNE23.JPG,AMNE24.JPG,AMNE22.JPG,AMSA24.JPG,AMSA22.JPG,AMSA23.JPG,,,,,0,2,2,9,,,,,,,,,,,,,,,,,,,AFSA03.jpg,AFSA19.jpg,AFNE16.jpg,AFNE04.jpg,AFNE04.jpg,FN,3,num_4,32,num_6,0.383494055714,,,2018_Apr_04_1539,59.9949199212,MAFE4ImagesEEG,001,203371,
AFSA25.JPG,AFNE24.JPG,AFSA24.JPG,AFNE21.JPG,AFSA21.JPG,AFNE25.JPG,,,,,0,3,3,2,,,,,,,,,,,,,,,,,,,AFSA05.jpg,AFSA12.jpg,AFNE07.jpg,AFNE06.jpg,AFSA12.jpg,FS,4,num_6,32,num_8,0.366661663167,,,2018_Apr_04_1539,59.9949199212,MAFE4ImagesEEG,001,203371,
AFNE23.JPG,AFNE24.JPG,AFNE22.JPG,AFSA24.JPG,AFSA22.JPG,AFSA23.JPG,,,,,0,4,4,8,,,,,,,,,,,,,,,,,,,AFSA05.jpg,AFNE08.jpg,AFSA01.jpg,AFNE17.jpg,AFNE08.jpg,FN,3,num_6,32,num_4,0.583550313371,,,2018_Apr_04_1539,59.9949199212,MAFE4ImagesEEG,001,203371,
AFSA21.JPG,AFNE23.JPG,AFNE21.JPG,AFSA25.JPG,AFNE25.JPG,AFSA23.JPG,,,,,0,5,5,4,,,,,,,,,,,,,,,,,,,AFNE12.jpg,AFNE14.jpg,AFSA12.jpg,AFSA01.jpg,AFNE14.jpg,FN,3,num_6,16,num_6,1.08343131922,,,2018_Apr_04_1539,59.9949199212,MAFE4ImagesEEG,001,203371,
AFNE22.JPG,AFSA24.JPG,AFSA22.JPG,AFNE25.JPG,AFNE24.JPG,AFSA25.JPG,,,,,0,6,6,6,,,,,,,,,,,,,,,,,,,AFSA05.jpg,AFNE05.jpg,AFSA15.jpg,AFNE18.jpg,AFSA05.jpg,FS,4,num_8,32,num_2,2.28332464129,,,2018_Apr_04_1539,59.9949199212,MAFE4ImagesEEG,001,203371,
AMNE22.JPG,AMSA24.JPG,AMSA22.JPG,AMNE25.JPG,AMNE24.JPG,AMSA25.JPG,,,,,0,7,7,7,,,,,,,,,,,,,,,,,,,AFNE15.jpg,AFSA03.jpg,AFNE12.jpg,AFSA15.jpg,AFSA15.jpg,FS,4,num_4,32,num_8,1.35000728082,,,2018_Apr_04_1539,59.9949199212,MAFE4ImagesEEG,001,203371,
AMSA21.JPG,AMNE22.JPG,AMNE21.JPG,AMSA23.JPG,AMSA22.JPG,AMNE23.JPG,,,,,0,8,8,1,,,,,,,,,,,,,,,,,,,AFNE03.jpg,AFSA18.jpg,AFNE11.jpg,AFSA16.jpg,AFSA18.jpg,FS,4,num_6,32,num_4,1.20011751889,,,2018_Apr_04_1539,59.9949199212,MAFE4ImagesEEG,001,203371,
AMSA21.JPG,AMNE23.JPG,AMNE21.JPG,AMSA25.JPG,AMNE25.JPG,AMSA23.JPG,,,,,0,9,9,5,,,,,,,,,,,,,,,,,,,AFSA09.jpg,AFNE09.jpg,AFSA10.jpg,AFNE01.jpg,AFNE01.jpg,FN,3,num_4,32,num_6,0.550192154828,,,2018_Apr_04_1539,59.9949199212,MAFE4ImagesEEG,001,203371,
AFNE22.JPG,AFSA24.JPG,AFSA22.JPG,AFNE25.JPG,AFNE24.JPG,AFSA25.JPG,,,,,,,,,0,0,0,6,,,,,,,,,,,,,,,AMSA17.jpg,AMNE14.jpg,AMSA05.jpg,AMNE12.jpg,AMSA05.jpg,MS,2,num_2,32,num_4,0.850110879517,,,2018_Apr_04_1539,59.9949199212,MAFE4ImagesEEG,001,203371,
AFSA21.JPG,AFNE22.JPG,AFNE21.JPG,AFSA23.JPG,AFSA22.JPG,AFNE23.JPG,,,,,,,,,0,1,1,0,,,,,,,,,,,,,,,AMNE05.jpg,AMSA15.jpg,AMNE18.jpg,AMSA05.jpg,AMNE18.jpg,MN,1,num_2,16,num_2,2.21666349133,,,2018_Apr_04_1539,59.9949199212,MAFE4ImagesEEG,001,203371,
AMSA21.JPG,AMNE23.JPG,AMNE21.JPG,AMSA25.JPG,AMNE25.JPG,AMSA23.JPG,,,,,,,,,0,2,2,5,,,,,,,,,,,,,,,AMSA12.jpg,AMNE17.jpg,AMNE12.jpg,AMSA02.jpg,AMNE17.jpg,MN,1,num_6,16,num_6,0.63350672496,,,2018_Apr_04_1539,59.9949199212,MAFE4ImagesEEG,001,203371,
AFNE23.JPG,AFNE24.JPG,AFNE22.JPG,AFSA24.JPG,AFSA22.JPG,AFSA23.JPG,,,,,,,,,0,3,3,8,,,,,,,,,,,,,,,AMNE07.jpg,AMSA03.jpg,AMSA02.jpg,AMNE10.jpg,AMSA03.jpg,MS,2,num_6,32,num_8,2.01656297175,,,2018_Apr_04_1539,59.9949199212,MAFE4ImagesEEG,001,203371,
AMSA25.JPG,AMNE24.JPG,AMSA24.JPG,AMNE26.JPG,AMSA21.JPG,AMNE25.JPG,,,,,,,,,0,4,4,3,,,,,,,,,,,,,,,AMSA06.jpg,AMSA20.jpg,AMNE15.jpg,AMNE18.jpg,AMNE15.jpg,MN,1,num_2,32,num_6,0.533448927687,,,2018_Apr_04_1539,59.9949199212,MAFE4ImagesEEG,001,203371,
AMNE23.JPG,AMNE24.JPG,AMNE22.JPG,AMSA24.JPG,AMSA22.JPG,AMSA23.JPG,,,,,,,,,0,5,5,9,,,,,,,,,,,,,,,AMSA11.jpg,AMNE09.jpg,AMSA08.jpg,AMNE13.jpg,AMNE09.jpg,MN,1,num_6,32,num_4,0.666790792719,,,2018_Apr_04_1539,59.9949199212,MAFE4ImagesEEG,001,203371,
AMSA21.JPG,AMNE22.JPG,AMNE21.JPG,AMSA23.JPG,AMSA22.JPG,AMNE23.JPG,,,,,,,,,0,6,6,1,,,,,,,,,,,,,,,AMSA13.jpg,AMSA14.jpg,AMNE20.jpg,AMNE15.jpg,AMSA14.jpg,MS,2,num_6,16,num_6,0.83345521416,,,2018_Apr_04_1539,59.9949199212,MAFE4ImagesEEG,001,203371,
AMNE22.JPG,AMSA24.JPG,AMSA22.JPG,AMNE25.JPG,AMNE24.JPG,AMSA25.JPG,,,,,,,,,0,7,7,7,,,,,,,,,,,,,,,AMSA02.jpg,AMNE07.jpg,AMNE05.jpg,AMSA19.jpg,AMNE05.jpg,MN,1,num_2,32,num_8,0.40014458925,,,2018_Apr_04_1539,59.9949199212,MAFE4ImagesEEG,001,203371,
AFSA21.JPG,AFNE23.JPG,AFNE21.JPG,AFSA25.JPG,AFNE25.JPG,AFSA23.JPG,,,,,,,,,0,8,8,4,,,,,,,,,,,,,,,AMNE20.jpg,AMNE16.jpg,AMSA05.jpg,AMSA01.jpg,AMNE20.jpg,MN,1,num_8,32,num_6,0.783466408029,,,2018_Apr_04_1539,59.9949199212,MAFE4ImagesEEG,001,203371,
AFSA25.JPG,AFNE24.JPG,AFSA24.JPG,AFNE21.JPG,AFSA21.JPG,AFNE25.JPG,,,,,,,,,0,9,9,2,,,,,,,,,,,,,,,AMSA11.jpg,AMNE18.jpg,AMSA18.jpg,AMNE15.jpg,AMNE18.jpg,MN,1,num_6,16,num_6,0.600098210387,,,2018_Apr_04_1539,59.9949199212,MAFE4ImagesEEG,001,203371,
AMSA21.JPG,AMNE23.JPG,AMNE21.JPG,AMSA25.JPG,AMNE25.JPG,AMSA23.JPG,,,,,,,,,,,,,0,0,0,5,,,,,,,,,,,AFSA15.jpg,AFNE13.jpg,AFNE01.jpg,AFSA19.jpg,AFSA15.jpg,FS,4,num_8,16,num_8,0.666797528276,,,2018_Apr_04_1539,59.9949199212,MAFE4ImagesEEG,001,203371,
AFSA21.JPG,AFNE23.JPG,AFNE21.JPG,AFSA25.JPG,AFNE25.JPG,AFSA23.JPG,,,,,,,,,,,,,0,1,1,4,,,,,,,,,,,AFNE20.jpg,AFSA03.jpg,AFNE02.jpg,AFSA12.jpg,AFSA03.jpg,FS,4,num_6,32,num_8,0.566851027543,,,2018_Apr_04_1539,59.9949199212,MAFE4ImagesEEG,001,203371,
AFNE22.JPG,AFSA24.JPG,AFSA22.JPG,AFNE25.JPG,AFNE24.JPG,AFSA25.JPG,,,,,,,,,,,,,0,2,2,6,,,,,,,,,,,AFNE01.jpg,AFNE17.jpg,AFSA10.jpg,AFSA15.jpg,AFSA15.jpg,FS,4,num_4,16,num_4,0.483533250052,,,2018_Apr_04_1539,59.9949199212,MAFE4ImagesEEG,001,203371,
AMSA21.JPG,AMNE22.JPG,AMNE21.JPG,AMSA23.JPG,AMSA22.JPG,AMNE23.JPG,,,,,,,,,,,,,0,3,3,1,,,,,,,,,,,AFSA04.jpg,AFNE05.jpg,AFSA05.jpg,AFNE08.jpg,AFSA05.jpg,FS,4,num_2,16,num_2,1.35013750091,,,2018_Apr_04_1539,59.9949199212,MAFE4ImagesEEG,001,203371,
AFNE23.JPG,AFNE24.JPG,AFNE22.JPG,AFSA24.JPG,AFSA22.JPG,AFSA23.JPG,,,,,,,,,,,,,0,4,4,8,,,,,,,,,,,AFSA01.jpg,AFNE01.jpg,AFNE05.jpg,AFSA19.jpg,AFSA01.jpg,FS,4,num_8,32,num_2,4.53302683495,,,2018_Apr_04_1539,59.9949199212,MAFE4ImagesEEG,001,203371,
AMSA25.JPG,AMNE24.JPG,AMSA24.JPG,AMNE26.JPG,AMSA21.JPG,AMNE25.JPG,,,,,,,,,,,,,0,5,5,3,,,,,,,,,,,AFNE20.jpg,AFSA19.jpg,AFSA03.jpg,AFNE01.jpg,AFSA03.jpg,FS,4,num_2,32,num_6,1.26673087862,,,2018_Apr_04_1539,59.9949199212,MAFE4ImagesEEG,001,203371,
AFSA25.JPG,AFNE24.JPG,AFSA24.JPG,AFNE21.JPG,AFSA21.JPG,AFNE25.JPG,,,,,,,,,,,,,0,6,6,2,,,,,,,,,,,AFNE16.jpg,AFNE09.jpg,AFSA09.jpg,AFSA19.jpg,AFSA09.jpg,FS,4,num_2,32,num_6,0.700109179597,,,2018_Apr_04_1539,59.9949199212,MAFE4ImagesEEG,001,203371,
AFSA21.JPG,AFNE22.JPG,AFNE21.JPG,AFSA23.JPG,AFSA22.JPG,AFNE23.JPG,,,,,,,,,,,,,0,7,7,0,,,,,,,,,,,AFNE14.jpg,AFSA19.jpg,AFSA17.jpg,AFNE09.jpg,AFNE14.jpg,FN,3,num_8,16,num_8,0.816754966159,,,2018_Apr_04_1539,59.9949199212,MAFE4ImagesEEG,001,203371,
AMNE23.JPG,AMNE24.JPG,AMNE22.JPG,AMSA24.JPG,AMSA22.JPG,AMSA23.JPG,,,,,,,,,,,,,0,8,8,9,,,,,,,,,,,AFNE05.jpg,AFSA02.jpg,AFSA03.jpg,AFNE17.jpg,AFSA02.jpg,FS,4,num_6,16,num_6,0.86680054327,,,2018_Apr_04_1539,59.9949199212,MAFE4ImagesEEG,001,203371,
AMNE22.JPG,AMSA24.JPG,AMSA22.JPG,AMNE25.JPG,AMNE24.JPG,AMSA25.JPG,,,,,,,,,,,,,0,9,9,7,,,,,,,,,,,AFSA01.jpg,AFSA07.jpg,AFNE09.jpg,AFNE08.jpg,AFNE09.jpg,FN,3,num_2,32,num_8,0.450200109161,,,2018_Apr_04_1539,59.9949199212,MAFE4ImagesEEG,001,203371,
AMSA25.JPG,AMNE24.JPG,AMSA24.JPG,AMNE26.JPG,AMSA21.JPG,AMNE25.JPG,,,,,,,,,,,,,,,,,0,0,0,3,,,,,,,AMSA13.jpg,AMNE08.jpg,AMNE06.jpg,AMSA20.jpg,AMSA20.jpg,MS,2,num_4,32,num_2,0.533477152698,,,2018_Apr_04_1539,59.9949199212,MAFE4ImagesEEG,001,203371,
AFNE22.JPG,AFSA24.JPG,AFSA22.JPG,AFNE25.JPG,AFNE24.JPG,AFSA25.JPG,,,,,,,,,,,,,,,,,0,1,1,6,,,,,,,AMSA11.jpg,AMNE18.jpg,AMSA16.jpg,AMNE08.jpg,AMNE08.jpg,MN,1,num_4,16,num_4,0.633481065743,,,2018_Apr_04_1539,59.9949199212,MAFE4ImagesEEG,001,203371,
AMSA21.JPG,AMNE22.JPG,AMNE21.JPG,AMSA23.JPG,AMSA22.JPG,AMNE23.JPG,,,,,,,,,,,,,,,,,0,2,2,1,,,,,,,AMNE13.jpg,AMNE09.jpg,AMSA10.jpg,AMSA08.jpg,AMSA08.jpg,MS,2,num_4,32,num_6,1.03346849279,,,2018_Apr_04_1539,59.9949199212,MAFE4ImagesEEG,001,203371,
AFSA21.JPG,AFNE22.JPG,AFNE21.JPG,AFSA23.JPG,AFSA22.JPG,AFNE23.JPG,,,,,,,,,,,,,,,,,0,3,3,0,,,,,,,AMNE02.jpg,AMSA17.jpg,AMNE10.jpg,AMSA18.jpg,AMSA17.jpg,MS,2,num_6,32,num_2,1.88339462667,,,2018_Apr_04_1539,59.9949199212,MAFE4ImagesEEG,001,203371,
AFNE23.JPG,AFNE24.JPG,AFNE22.JPG,AFSA24.JPG,AFSA22.JPG,AFSA23.JPG,,,,,,,,,,,,,,,,,0,4,4,8,,,,,,,AMSA11.jpg,AMNE16.jpg,AMSA08.jpg,AMNE20.jpg,AMSA11.jpg,MS,2,num_8,16,num_8,1.18331623799,,,2018_Apr_04_1539,59.9949199212,MAFE4ImagesEEG,001,203371,
AMNE23.JPG,AMNE24.JPG,AMNE22.JPG,AMSA24.JPG,AMSA22.JPG,AMSA23.JPG,,,,,,,,,,,,,,,,,0,5,5,9,,,,,,,AMNE11.jpg,AMSA07.jpg,AMNE13.jpg,AMSA08.jpg,AMSA08.jpg,MS,2,num_4,16,num_4,1.0334806809,,,2018_Apr_04_1539,59.9949199212,MAFE4ImagesEEG,001,203371,
AMSA21.JPG,AMNE23.JPG,AMNE21.JPG,AMSA25.JPG,AMNE25.JPG,AMSA23.JPG,,,,,,,,,,,,,,,,,0,6,6,5,,,,,,,AMSA08.jpg,AMNE07.jpg,AMSA13.jpg,AMNE11.jpg,AMNE11.jpg,MN,1,num_4,32,num_8,0.666806508903,,,2018_Apr_04_1539,59.9949199212,MAFE4ImagesEEG,001,203371,
AMNE22.JPG,AMSA24.JPG,AMSA22.JPG,AMNE25.JPG,AMNE24.JPG,AMSA25.JPG,,,,,,,,,,,,,,,,,0,7,7,7,,,,,,,AMNE16.jpg,AMSA07.jpg,AMSA16.jpg,AMNE06.jpg,AMSA07.jpg,MS,2,num_6,32,num_4,1.95008560526,,,2018_Apr_04_1539,59.9949199212,MAFE4ImagesEEG,001,203371,
AFSA21.JPG,AFNE23.JPG,AFNE21.JPG,AFSA25.JPG,AFNE25.JPG,AFSA23.JPG,,,,,,,,,,,,,,,,,0,8,8,4,,,,,,,AMSA19.jpg,AMNE14.jpg,AMNE15.jpg,AMSA13.jpg,AMNE14.jpg,MN,1,num_6,32,num_4,0.80013618595,,,2018_Apr_04_1539,59.9949199212,MAFE4ImagesEEG,001,203371,
AFSA25.JPG,AFNE24.JPG,AFSA24.JPG,AFNE21.JPG,AFSA21.JPG,AFNE25.JPG,,,,,,,,,,,,,,,,,0,9,9,2,,,,,,,AMSA03.jpg,AMNE03.jpg,AMNE01.jpg,AMSA15.jpg,AMSA15.jpg,MS,2,num_4,16,num_4,0.550141477957,,,2018_Apr_04_1539,59.9949199212,MAFE4ImagesEEG,001,203371,
AMNE23.JPG,AMNE24.JPG,AMNE22.JPG,AMSA24.JPG,AMSA22.JPG,AMSA23.JPG,,,,,,,,,,,,,,,,,,,,,0,0,0,9,,,AFSA06.jpg,AFSA03.jpg,AFNE02.jpg,AFNE14.jpg,AFNE14.jpg,FN,3,num_4,16,num_4,0.700185515452,,,2018_Apr_04_1539,59.9949199212,MAFE4ImagesEEG,001,203371,
AMSA25.JPG,AMNE24.JPG,AMSA24.JPG,AMNE26.JPG,AMSA21.JPG,AMNE25.JPG,,,,,,,,,,,,,,,,,,,,,0,1,1,3,,,AFSA10.jpg,AFSA07.jpg,AFNE12.jpg,AFNE15.jpg,AFSA10.jpg,FS,4,num_8,16,num_8,0.983461404452,,,2018_Apr_04_1539,59.9949199212,MAFE4ImagesEEG,001,203371,
AMNE22.JPG,AMSA24.JPG,AMSA22.JPG,AMNE25.JPG,AMNE24.JPG,AMSA25.JPG,,,,,,,,,,,,,,,,,,,,,0,2,2,7,,,AFSA05.jpg,AFSA01.jpg,AFNE17.jpg,AFNE03.jpg,AFNE17.jpg,FN,3,num_2,32,num_8,0.9334774093,,,2018_Apr_04_1539,59.9949199212,MAFE4ImagesEEG,001,203371,
AFSA21.JPG,AFNE23.JPG,AFNE21.JPG,AFSA25.JPG,AFNE25.JPG,AFSA23.JPG,,,,,,,,,,,,,,,,,,,,,0,3,3,4,,,AFSA13.jpg,AFNE02.jpg,AFSA16.jpg,AFNE20.jpg,AFSA16.jpg,FS,4,num_2,16,num_2,1.51675445295,,,2018_Apr_04_1539,59.9949199212,MAFE4ImagesEEG,001,203371,
AFSA21.JPG,AFNE22.JPG,AFNE21.JPG,AFSA23.JPG,AFSA22.JPG,AFNE23.JPG,,,,,,,,,,,,,,,,,,,,,0,4,4,0,,,AFSA17.jpg,AFNE14.jpg,AFSA01.jpg,AFNE03.jpg,AFNE03.jpg,FN,3,num_4,16,num_4,0.766787970322,,,2018_Apr_04_1539,59.9949199212,MAFE4ImagesEEG,001,203371,
AFNE23.JPG,AFNE24.JPG,AFNE22.JPG,AFSA24.JPG,AFSA22.JPG,AFSA23.JPG,,,,,,,,,,,,,,,,,,,,,0,5,5,8,,,AFNE15.jpg,AFSA12.jpg,AFNE19.jpg,AFSA06.jpg,AFNE15.jpg,FN,3,num_8,16,num_8,0.916669713682,,,2018_Apr_04_1539,59.9949199212,MAFE4ImagesEEG,001,203371,
AFSA25.JPG,AFNE24.JPG,AFSA24.JPG,AFNE21.JPG,AFSA21.JPG,AFNE25.JPG,,,,,,,,,,,,,,,,,,,,,0,6,6,2,,,AFNE03.jpg,AFSA20.jpg,AFSA18.jpg,AFNE07.jpg,AFNE03.jpg,FN,3,num_8,32,num_4,0.766840892145,,,2018_Apr_04_1539,59.9949199212,MAFE4ImagesEEG,001,203371,
AMSA21.JPG,AMNE22.JPG,AMNE21.JPG,AMSA23.JPG,AMSA22.JPG,AMNE23.JPG,,,,,,,,,,,,,,,,,,,,,0,7,7,1,,,AFNE03.jpg,AFSA15.jpg,AFSA11.jpg,AFNE01.jpg,AFNE03.jpg,FN,3,num_8,16,num_8,0.866780657321,,,2018_Apr_04_1539,59.9949199212,MAFE4ImagesEEG,001,203371,
AMSA21.JPG,AMNE23.JPG,AMNE21.JPG,AMSA25.JPG,AMNE25.JPG,AMSA23.JPG,,,,,,,,,,,,,,,,,,,,,0,8,8,5,,,AFSA13.jpg,AFNE03.jpg,AFSA16.jpg,AFNE10.jpg,AFNE10.jpg,FN,3,num_4,32,num_8,1.01676920697,,,2018_Apr_04_1539,59.9949199212,MAFE4ImagesEEG,001,203371,
AFNE22.JPG,AFSA24.JPG,AFSA22.JPG,AFNE25.JPG,AFNE24.JPG,AFSA25.JPG,,,,,,,,,,,,,,,,,,,,,0,9,9,6,,,AFNE08.jpg,AFNE03.jpg,AFSA03.jpg,AFSA16.jpg,AFNE03.jpg,FN,3,num_6,32,num_2,1.5000975047,,,2018_Apr_04_1539,59.9949199212,MAFE4ImagesEEG,001,203371,
,,,,,,,,,,,,,,,,,,,,,,,,,,,,,,,,,,,,,,,,,,,space,8.23284510407,2018_Apr_04_1539,59.9949199212,MAFE4ImagesEEG,001,203371,
AFNE01.JPG,AFNE01.JPG,AFNE01.JPG,AFNE01.JPG,AFNE01.JPG,AFNE01.JPG,0,0,0,0,,,,,,,,,,,,,,,,,,,,,,,AMNE10.jpg,AMSA11.jpg,AMNE02.jpg,AMSA07.jpg,AMNE02.jpg,MN,1,num_2,32,num_8,0.733477601781,,,2018_Apr_04_1539,59.9949199212,MAFE4ImagesEEG,001,203371,
AFNE01.JPG,AFNE01.JPG,AFNE01.JPG,AFNE01.JPG,AFNE01.JPG,AFNE01.JPG,0,1,1,4,,,,,,,,,,,,,,,,,,,,,,,AMSA06.jpg,AMNE01.jpg,AMSA19.jpg,AMNE18.jpg,AMSA06.jpg,MS,2,num_8,32,num_6,0.566858404549,,,2018_Apr_04_1539,59.9949199212,MAFE4ImagesEEG,001,203371,
AFNE01.JPG,AFNE01.JPG,AFNE01.JPG,AFNE01.JPG,AFNE01.JPG,AFNE01.JPG,0,2,2,2,,,,,,,,,,,,,,,,,,,,,,,AMNE03.jpg,AMSA01.jpg,AMNE08.jpg,AMSA07.jpg,AMSA01.jpg,MS,2,num_6,32,num_4,0.483465253375,,,2018_Apr_04_1539,59.9949199212,MAFE4ImagesEEG,001,203371,
AFNE01.JPG,AFNE01.JPG,AFNE01.JPG,AFNE01.JPG,AFNE01.JPG,AFNE01.JPG,0,3,3,3,,,,,,,,,,,,,,,,,,,,,,,AMNE10.jpg,AMNE13.jpg,AMSA01.jpg,AMSA18.jpg,AMSA01.jpg,MS,2,num_2,16,num_2,1.28344299411,,,2018_Apr_04_1539,59.9949199212,MAFE4ImagesEEG,001,203371,
AFNE01.JPG,AFNE01.JPG,AFNE01.JPG,AFNE01.JPG,AFNE01.JPG,AFNE01.JPG,0,4,4,9,,,,,,,,,,,,,,,,,,,,,,,AMSA17.jpg,AMNE09.jpg,AMNE01.jpg,AMSA19.jpg,AMSA19.jpg,MS,2,num_4,32,num_6,0.900119571597,,,2018_Apr_04_1539,59.9949199212,MAFE4ImagesEEG,001,203371,
AFNE01.JPG,AFNE01.JPG,AFNE01.JPG,AFNE01.JPG,AFNE01.JPG,AFNE01.JPG,0,5,5,5,,,,,,,,,,,,,,,,,,,,,,,AMSA10.jpg,AMNE04.jpg,AMNE07.jpg,AMSA06.jpg,AMNE07.jpg,MN,1,num_2,32,num_8,1.16675615287,,,2018_Apr_04_1539,59.9949199212,MAFE4ImagesEEG,001,203371,
AFNE01.JPG,AFNE01.JPG,AFNE01.JPG,AFNE01.JPG,AFNE01.JPG,AFNE01.JPG,0,6,6,1,,,,,,,,,,,,,,,,,,,,,,,AMSA01.jpg,AMNE17.jpg,AMNE08.jpg,AMSA16.jpg,AMSA01.jpg,MS,2,num_8,32,num_6,1.71670935699,,,2018_Apr_04_1539,59.9949199212,MAFE4ImagesEEG,001,203371,
AFNE01.JPG,AFNE01.JPG,AFNE01.JPG,AFNE01.JPG,AFNE01.JPG,AFNE01.JPG,0,7,7,8,,,,,,,,,,,,,,,,,,,,,,,AMSA04.jpg,AMSA08.jpg,AMNE03.jpg,AMNE06.jpg,AMNE03.jpg,MN,1,num_2,32,num_4,0.483510477585,,,2018_Apr_04_1539,59.9949199212,MAFE4ImagesEEG,001,203371,
AFNE01.JPG,AFNE01.JPG,AFNE01.JPG,AFNE01.JPG,AFNE01.JPG,AFNE01.JPG,0,8,8,7,,,,,,,,,,,,,,,,,,,,,,,AMNE12.jpg,AMNE02.jpg,AMSA20.jpg,AMSA10.jpg,AMSA20.jpg,MS,2,num_2,32,num_8,0.416837139637,,,2018_Apr_04_1539,59.9949199212,MAFE4ImagesEEG,001,203371,
AFNE01.JPG,AFNE01.JPG,AFNE01.JPG,AFNE01.JPG,AFNE01.JPG,AFNE01.JPG,0,9,9,6,,,,,,,,,,,,,,,,,,,,,,,AMSA14.jpg,AMNE15.jpg,AMSA05.jpg,AMNE08.jpg,AMNE08.jpg,MN,1,num_4,32,num_8,0.633518913062,,,2018_Apr_04_1539,59.9949199212,MAFE4ImagesEEG,001,203371,
AFNE01.JPG,AFNE01.JPG,AFNE01.JPG,AFNE01.JPG,AFNE01.JPG,AFNE01.JPG,1,0,10,8,,,,,,,,,,,,,,,,,,,,,,,AMSA09.jpg,AMNE14.jpg,AMSA10.jpg,AMNE20.jpg,AMSA10.jpg,MS,2,num_2,32,num_8,1.00011835282,,,2018_Apr_04_1539,59.9949199212,MAFE4ImagesEEG,001,203371,
AFNE01.JPG,AFNE01.JPG,AFNE01.JPG,AFNE01.JPG,AFNE01.JPG,AFNE01.JPG,1,1,11,0,,,,,,,,,,,,,,,,,,,,,,,AMSA15.jpg,AMNE06.jpg,AMSA03.jpg,AMNE11.jpg,AMSA03.jpg,MS,2,num_2,16,num_2,1.24963163107,,,2018_Apr_04_1539,59.9949199212,MAFE4ImagesEEG,001,203371,
AFNE01.JPG,AFNE01.JPG,AFNE01.JPG,AFNE01.JPG,AFNE01.JPG,AFNE01.JPG,1,2,12,9,,,,,,,,,,,,,,,,,,,,,,,AMSA12.jpg,AMNE16.jpg,AMNE09.jpg,AMSA01.jpg,AMSA01.jpg,MS,2,num_4,16,num_4,0.60019667726,,,2018_Apr_04_1539,59.9949199212,MAFE4ImagesEEG,001,203371,
AFNE01.JPG,AFNE01.JPG,AFNE01.JPG,AFNE01.JPG,AFNE01.JPG,AFNE01.JPG,1,3,13,2,,,,,,,,,,,,,,,,,,,,,,,AMSA03.jpg,AMSA19.jpg,AMNE09.jpg,AMNE03.jpg,AMNE09.jpg,MN,1,num_2,32,num_6,0.783475067932,,,2018_Apr_04_1539,59.9949199212,MAFE4ImagesEEG,001,203371,
AFNE01.JPG,AFNE01.JPG,AFNE01.JPG,AFNE01.JPG,AFNE01.JPG,AFNE01.JPG,1,4,14,7,,,,,,,,,,,,,,,,,,,,,,,AMSA13.jpg,AMNE13.jpg,AMNE15.jpg,AMSA05.jpg,AMSA13.jpg,MS,2,num_8,16,num_8,0.866802467732,,,2018_Apr_04_1539,59.9949199212,MAFE4ImagesEEG,001,203371,
AFNE01.JPG,AFNE01.JPG,AFNE01.JPG,AFNE01.JPG,AFNE01.JPG,AFNE01.JPG,1,5,15,6,,,,,,,,,,,,,,,,,,,,,,,AMSA14.jpg,AMSA16.jpg,AMNE01.jpg,AMNE10.jpg,AMNE10.jpg,MN,1,num_4,16,num_4,0.933472598321,,,2018_Apr_04_1539,59.9949199212,MAFE4ImagesEEG,001,203371,
AFNE01.JPG,AFNE01.JPG,AFNE01.JPG,AFNE01.JPG,AFNE01.JPG,AFNE01.JPG,1,6,16,5,,,,,,,,,,,,,,,,,,,,,,,AMSA10.jpg,AMNE16.jpg,AMSA01.jpg,AMNE06.jpg,AMSA01.jpg,MS,2,num_2,16,num_2,1.71673052583,,,2018_Apr_04_1539,59.9949199212,MAFE4ImagesEEG,001,203371,
AFNE01.JPG,AFNE01.JPG,AFNE01.JPG,AFNE01.JPG,AFNE01.JPG,AFNE01.JPG,1,7,17,4,,,,,,,,,,,,,,,,,,,,,,,AMNE11.jpg,AMSA06.jpg,AMSA01.jpg,AMNE20.jpg,AMNE20.jpg,MN,1,num_4,32,num_8,1.98338667233,,,2018_Apr_04_1539,59.9949199212,MAFE4ImagesEEG,001,203371,
AFNE01.JPG,AFNE01.JPG,AFNE01.JPG,AFNE01.JPG,AFNE01.JPG,AFNE01.JPG,1,8,18,3,,,,,,,,,,,,,,,,,,,,,,,AMNE16.jpg,AMNE14.jpg,AMSA10.jpg,AMSA08.jpg,AMNE14.jpg,MN,1,num_6,16,num_6,0.866752111586,,,2018_Apr_04_1539,59.9949199212,MAFE4ImagesEEG,001,203371,
AFNE01.JPG,AFNE01.JPG,AFNE01.JPG,AFNE01.JPG,AFNE01.JPG,AFNE01.JPG,1,9,19,1,,,,,,,,,,,,,,,,,,,,,,,AMNE05.jpg,AMSA18.jpg,AMNE15.jpg,AMSA14.jpg,AMSA14.jpg,MS,2,num_4,16,num_4,0.666782774264,,,2018_Apr_04_1539,59.9949199212,MAFE4ImagesEEG,001,203371,
AFNE01.JPG,AFNE01.JPG,AFNE01.JPG,AFNE01.JPG,AFNE01.JPG,AFNE01.JPG,2,0,20,5,,,,,,,,,,,,,,,,,,,,,,,AMNE05.jpg,AMSA16.jpg,AMSA07.jpg,AMNE02.jpg,AMSA07.jpg,MS,2,num_2,32,num_6,0.983568531345,,,2018_Apr_04_1539,59.9949199212,MAFE4ImagesEEG,001,203371,
AFNE01.JPG,AFNE01.JPG,AFNE01.JPG,AFNE01.JPG,AFNE01.JPG,AFNE01.JPG,2,1,21,0,,,,,,,,,,,,,,,,,,,,,,,AMNE18.jpg,AMSA13.jpg,AMNE11.jpg,AMSA11.jpg,AMNE11.jpg,MN,1,num_2,32,num_8,0.566766352393,,,2018_Apr_04_1539,59.9949199212,MAFE4ImagesEEG,001,203371,
AFNE01.JPG,AFNE01.JPG,AFNE01.JPG,AFNE01.JPG,AFNE01.JPG,AFNE01.JPG,2,2,22,7,,,,,,,,,,,,,,,,,,,,,,,AMNE12.jpg,AMSA07.jpg,AMNE16.jpg,AMSA13.jpg,AMSA13.jpg,MS,2,num_4,32,num_2,0.71677735378,,,2018_Apr_04_1539,59.9949199212,MAFE4ImagesEEG,001,203371,
AFNE01.JPG,AFNE01.JPG,AFNE01.JPG,AFNE01.JPG,AFNE01.JPG,AFNE01.JPG,2,3,23,4,,,,,,,,,,,,,,,,,,,,,,,AMSA03.jpg,AMNE16.jpg,AMNE17.jpg,AMSA04.jpg,AMNE16.jpg,MN,1,num_6,16,num_6,1.33339170786,,,2018_Apr_04_1539,59.9949199212,MAFE4ImagesEEG,001,203371,
AFNE01.JPG,AFNE01.JPG,AFNE01.JPG,AFNE01.JPG,AFNE01.JPG,AFNE01.JPG,2,4,24,6,,,,,,,,,,,,,,,,,,,,,,,AMSA09.jpg,AMNE08.jpg,AMNE06.jpg,AMSA11.jpg,AMNE06.jpg,MN,1,num_2,32,num_4,1.25011017383,,,2018_Apr_04_1539,59.9949199212,MAFE4ImagesEEG,001,203371,
AFNE01.JPG,AFNE01.JPG,AFNE01.JPG,AFNE01.JPG,AFNE01.JPG,AFNE01.JPG,2,5,25,3,,,,,,,,,,,,,,,,,,,,,,,AMNE13.jpg,AMNE15.jpg,AMSA06.jpg,AMSA12.jpg,AMSA12.jpg,MS,2,num_4,32,num_8,2.05001767271,,,2018_Apr_04_1539,59.9949199212,MAFE4ImagesEEG,001,203371,
AFNE01.JPG,AFNE01.JPG,AFNE01.JPG,AFNE01.JPG,AFNE01.JPG,AFNE01.JPG,2,6,26,1,,,,,,,,,,,,,,,,,,,,,,,AMSA02.jpg,AMNE17.jpg,AMSA14.jpg,AMNE12.jpg,AMSA02.jpg,MS,2,num_8,32,num_6,0.88347000035,,,2018_Apr_04_1539,59.9949199212,MAFE4ImagesEEG,001,203371,
AFNE01.JPG,AFNE01.JPG,AFNE01.JPG,AFNE01.JPG,AFNE01.JPG,AFNE01.JPG,2,7,27,8,,,,,,,,,,,,,,,,,,,,,,,AMNE12.jpg,AMNE15.jpg,AMSA03.jpg,AMSA07.jpg,AMNE15.jpg,MN,1,num_6,32,num_8,0.616809363593,,,2018_Apr_04_1539,59.9949199212,MAFE4ImagesEEG,001,203371,
AFNE01.JPG,AFNE01.JPG,AFNE01.JPG,AFNE01.JPG,AFNE01.JPG,AFNE01.JPG,2,8,28,2,,,,,,,,,,,,,,,,,,,,,,,AMNE03.jpg,AMSA14.jpg,AMSA07.jpg,AMNE04.jpg,AMNE04.jpg,MN,1,num_4,32,num_6,1.23348305444,,,2018_Apr_04_1539,59.9949199212,MAFE4ImagesEEG,001,203371,
AFNE01.JPG,AFNE01.JPG,AFNE01.JPG,AFNE01.JPG,AFNE01.JPG,AFNE01.JPG,2,9,29,9,,,,,,,,,,,,,,,,,,,,,,,AMSA07.jpg,AMNE05.jpg,AMSA01.jpg,AMNE20.jpg,AMSA07.jpg,MS,2,num_8,32,num_4,1.71670999855,,,2018_Apr_04_1539,59.9949199212,MAFE4ImagesEEG,001,203371,
AFNE01.JPG,AFNE01.JPG,AFNE01.JPG,AFNE01.JPG,AFNE01.JPG,AFNE01.JPG,3,0,30,9,,,,,,,,,,,,,,,,,,,,,,,AMSA11.jpg,AMNE13.jpg,AMNE10.jpg,AMSA15.jpg,AMSA11.jpg,MS,2,num_8,32,num_4,0.750172397355,,,2018_Apr_04_1539,59.9949199212,MAFE4ImagesEEG,001,203371,
AFNE01.JPG,AFNE01.JPG,AFNE01.JPG,AFNE01.JPG,AFNE01.JPG,AFNE01.JPG,3,1,31,3,,,,,,,,,,,,,,,,,,,,,,,AMSA11.jpg,AMNE19.jpg,AMNE12.jpg,AMSA16.jpg,AMSA11.jpg,MS,2,num_8,16,num_8,0.583539729007,,,2018_Apr_04_1539,59.9949199212,MAFE4ImagesEEG,001,203371,
AFNE01.JPG,AFNE01.JPG,AFNE01.JPG,AFNE01.JPG,AFNE01.JPG,AFNE01.JPG,3,2,32,6,,,,,,,,,,,,,,,,,,,,,,,AMSA16.jpg,AMNE07.jpg,AMNE11.jpg,AMSA02.jpg,AMSA16.jpg,MS,2,num_8,32,num_6,0.683462495101,,,2018_Apr_04_1539,59.9949199212,MAFE4ImagesEEG,001,203371,
AFNE01.JPG,AFNE01.JPG,AFNE01.JPG,AFNE01.JPG,AFNE01.JPG,AFNE01.JPG,3,3,33,7,,,,,,,,,,,,,,,,,,,,,,,AMNE14.jpg,AMSA17.jpg,AMSA10.jpg,AMNE18.jpg,AMSA10.jpg,MS,2,num_2,16,num_2,1.11646617262,,,2018_Apr_04_1539,59.9949199212,MAFE4ImagesEEG,001,203371,
AFNE01.JPG,AFNE01.JPG,AFNE01.JPG,AFNE01.JPG,AFNE01.JPG,AFNE01.JPG,3,4,34,8,,,,,,,,,,,,,,,,,,,,,,,AMSA11.jpg,AMSA02.jpg,AMNE01.jpg,AMNE12.jpg,AMNE12.jpg,MN,1,num_4,32,num_6,0.816677668015,,,2018_Apr_04_1539,59.9949199212,MAFE4ImagesEEG,001,203371,
AFNE01.JPG,AFNE01.JPG,AFNE01.JPG,AFNE01.JPG,AFNE01.JPG,AFNE01.JPG,3,5,35,4,,,,,,,,,,,,,,,,,,,,,,,AMNE16.jpg,AMSA19.jpg,AMNE12.jpg,AMSA12.jpg,AMNE16.jpg,MN,1,num_8,16,num_8,1.2001213677,,,2018_Apr_04_1539,59.9949199212,MAFE4ImagesEEG,001,203371,
AFNE01.JPG,AFNE01.JPG,AFNE01.JPG,AFNE01.JPG,AFNE01.JPG,AFNE01.JPG,3,6,36,5,,,,,,,,,,,,,,,,,,,,,,,AMNE11.jpg,AMNE04.jpg,AMSA09.jpg,AMSA08.jpg,AMSA09.jpg,MS,2,num_2,32,num_6,0.61706467194,,,2018_Apr_04_1539,59.9949199212,MAFE4ImagesEEG,001,203371,
AFNE01.JPG,AFNE01.JPG,AFNE01.JPG,AFNE01.JPG,AFNE01.JPG,AFNE01.JPG,3,7,37,1,,,,,,,,,,,,,,,,,,,,,,,AMNE17.jpg,AMNE18.jpg,AMSA19.jpg,AMSA16.jpg,AMNE18.jpg,MN,1,num_6,16,num_6,0.666799773346,,,2018_Apr_04_1539,59.9949199212,MAFE4ImagesEEG,001,203371,
AFNE01.JPG,AFNE01.JPG,AFNE01.JPG,AFNE01.JPG,AFNE01.JPG,AFNE01.JPG,3,8,38,0,,,,,,,,,,,,,,,,,,,,,,,AMNE20.jpg,AMSA06.jpg,AMSA20.jpg,AMNE09.jpg,AMSA06.jpg,MS,2,num_6,32,num_4,0.900170889799,,,2018_Apr_04_1539,59.9949199212,MAFE4ImagesEEG,001,203371,
AFNE01.JPG,AFNE01.JPG,AFNE01.JPG,AFNE01.JPG,AFNE01.JPG,AFNE01.JPG,3,9,39,2,,,,,,,,,,,,,,,,,,,,,,,AMNE03.jpg,AMSA20.jpg,AMSA04.jpg,AMNE10.jpg,AMNE10.jpg,MN,1,num_4,32,num_8,2.3998661876,,,2018_Apr_04_1539,59.9949199212,MAFE4ImagesEEG,001,203371,
AFNE01.JPG,AFNE01.JPG,AFNE01.JPG,AFNE01.JPG,AFNE01.JPG,AFNE01.JPG,4,0,40,4,,,,,,,,,,,,,,,,,,,,,,,AMNE06.jpg,AMNE04.jpg,AMSA09.jpg,AMSA14.jpg,AMNE06.jpg,MN,1,num_8,32,num_6,0.683451589895,,,2018_Apr_04_1539,59.9949199212,MAFE4ImagesEEG,001,203371,
AFNE01.JPG,AFNE01.JPG,AFNE01.JPG,AFNE01.JPG,AFNE01.JPG,AFNE01.JPG,4,1,41,8,,,,,,,,,,,,,,,,,,,,,,,AMSA04.jpg,AMNE02.jpg,AMSA01.jpg,AMNE13.jpg,AMNE02.jpg,MN,1,num_6,32,num_8,1.01674835896,,,2018_Apr_04_1539,59.9949199212,MAFE4ImagesEEG,001,203371,
AFNE01.JPG,AFNE01.JPG,AFNE01.JPG,AFNE01.JPG,AFNE01.JPG,AFNE01.JPG,4,2,42,3,,,,,,,,,,,,,,,,,,,,,,,AMSA11.jpg,AMNE11.jpg,AMNE10.jpg,AMSA09.jpg,AMSA11.jpg,MS,2,num_8,32,num_6,0.616864209878,,,2018_Apr_04_1539,59.9949199212,MAFE4ImagesEEG,001,203371,
AFNE01.JPG,AFNE01.JPG,AFNE01.JPG,AFNE01.JPG,AFNE01.JPG,AFNE01.JPG,4,3,43,0,,,,,,,,,,,,,,,,,,,,,,,AMSA11.jpg,AMNE20.jpg,AMSA02.jpg,AMNE10.jpg,AMNE10.jpg,MN,1,num_4,32,num_8,3.79991583806,,,2018_Apr_04_1539,59.9949199212,MAFE4ImagesEEG,001,203371,
AFNE01.JPG,AFNE01.JPG,AFNE01.JPG,AFNE01.JPG,AFNE01.JPG,AFNE01.JPG,4,4,44,5,,,,,,,,,,,,,,,,,,,,,,,AMNE03.jpg,AMSA10.jpg,AMNE09.jpg,AMSA17.jpg,AMSA10.jpg,MS,2,num_6,32,num_8,1.08348584489,,,2018_Apr_04_1539,59.9949199212,MAFE4ImagesEEG,001,203371,
AFNE01.JPG,AFNE01.JPG,AFNE01.JPG,AFNE01.JPG,AFNE01.JPG,AFNE01.JPG,4,5,45,2,,,,,,,,,,,,,,,,,,,,,,,AMSA18.jpg,AMNE16.jpg,AMSA16.jpg,AMNE18.jpg,AMNE18.jpg,MN,1,num_4,16,num_4,1.11679781694,,,2018_Apr_04_1539,59.9949199212,MAFE4ImagesEEG,001,203371,
AFNE01.JPG,AFNE01.JPG,AFNE01.JPG,AFNE01.JPG,AFNE01.JPG,AFNE01.JPG,4,6,46,7,,,,,,,,,,,,,,,,,,,,,,,AMSA10.jpg,AMNE08.jpg,AMNE05.jpg,AMSA02.jpg,AMNE08.jpg,MN,1,num_6,16,num_6,0.53382066451,,,2018_Apr_04_1539,59.9949199212,MAFE4ImagesEEG,001,203371,
AFNE01.JPG,AFNE01.JPG,AFNE01.JPG,AFNE01.JPG,AFNE01.JPG,AFNE01.JPG,4,7,47,9,,,,,,,,,,,,,,,,,,,,,,,AMNE12.jpg,AMSA13.jpg,AMNE11.jpg,AMSA10.jpg,AMSA13.jpg,MS,2,num_6,32,num_4,0.700137725449,,,2018_Apr_04_1539,59.9949199212,MAFE4ImagesEEG,001,203371,
AFNE01.JPG,AFNE01.JPG,AFNE01.JPG,AFNE01.JPG,AFNE01.JPG,AFNE01.JPG,4,8,48,6,,,,,,,,,,,,,,,,,,,,,,,AMNE05.jpg,AMNE08.jpg,AMSA10.jpg,AMSA19.jpg,AMNE08.jpg,MN,1,num_6,32,num_8,1.08346243086,,,2018_Apr_04_1539,59.9949199212,MAFE4ImagesEEG,001,203371,
AFNE01.JPG,AFNE01.JPG,AFNE01.JPG,AFNE01.JPG,AFNE01.JPG,AFNE01.JPG,4,9,49,1,,,,,,,,,,,,,,,,,,,,,,,AMSA15.jpg,AMNE17.jpg,AMNE13.jpg,AMSA11.jpg,AMSA15.jpg,MS,2,num_8,16,num_8,1.08340566012,,,2018_Apr_04_1539,59.9949199212,MAFE4ImagesEEG,001,203371,
AFNE01.JPG,AFNE01.JPG,AFNE01.JPG,AFNE01.JPG,AFNE01.JPG,AFNE01.JPG,5,0,50,8,,,,,,,,,,,,,,,,,,,,,,,AMSA08.jpg,AMNE06.jpg,AMSA11.jpg,AMNE01.jpg,AMSA11.jpg,MS,2,num_2,32,num_8,1.43342993991,,,2018_Apr_04_1539,59.9949199212,MAFE4ImagesEEG,001,203371,
AFNE01.JPG,AFNE01.JPG,AFNE01.JPG,AFNE01.JPG,AFNE01.JPG,AFNE01.JPG,5,1,51,4,,,,,,,,,,,,,,,,,,,,,,,AMNE09.jpg,AMSA13.jpg,AMSA12.jpg,AMNE03.jpg,AMNE09.jpg,MN,1,num_8,32,num_6,2.516665929,,,2018_Apr_04_1539,59.9949199212,MAFE4ImagesEEG,001,203371,
AFNE01.JPG,AFNE01.JPG,AFNE01.JPG,AFNE01.JPG,AFNE01.JPG,AFNE01.JPG,5,2,52,7,,,,,,,,,,,,,,,,,,,,,,,AMNE13.jpg,AMSA06.jpg,AMNE17.jpg,AMSA01.jpg,AMSA01.jpg,MS,2,num_4,16,num_4,0.916651110863,,,2018_Apr_04_1539,59.9949199212,MAFE4ImagesEEG,001,203371,
AFNE01.JPG,AFNE01.JPG,AFNE01.JPG,AFNE01.JPG,AFNE01.JPG,AFNE01.JPG,5,3,53,6,,,,,,,,,,,,,,,,,,,,,,,AMNE10.jpg,AMNE07.jpg,AMSA09.jpg,AMSA15.jpg,AMNE07.jpg,MN,1,num_6,16,num_6,0.666632347507,,,2018_Apr_04_1539,59.9949199212,MAFE4ImagesEEG,001,203371,
AFNE01.JPG,AFNE01.JPG,AFNE01.JPG,AFNE01.JPG,AFNE01.JPG,AFNE01.JPG,5,4,54,3,,,,,,,,,,,,,,,,,,,,,,,AMSA16.jpg,AMNE13.jpg,AMNE11.jpg,AMSA07.jpg,AMNE13.jpg,MN,1,num_6,32,num_8,0.516816034913,,,2018_Apr_04_1539,59.9949199212,MAFE4ImagesEEG,001,203371,
AFNE01.JPG,AFNE01.JPG,AFNE01.JPG,AFNE01.JPG,AFNE01.JPG,AFNE01.JPG,5,5,55,1,,,,,,,,,,,,,,,,,,,,,,,AMNE19.jpg,AMNE05.jpg,AMSA17.jpg,AMSA08.jpg,AMSA08.jpg,MS,2,num_4,32,num_6,1.21676933533,,,2018_Apr_04_1539,59.9949199212,MAFE4ImagesEEG,001,203371,
AFNE01.JPG,AFNE01.JPG,AFNE01.JPG,AFNE01.JPG,AFNE01.JPG,AFNE01.JPG,5,6,56,2,,,,,,,,,,,,,,,,,,,,,,,AMNE20.jpg,AMSA19.jpg,AMNE09.jpg,AMSA12.jpg,AMSA19.jpg,MS,2,num_6,16,num_6,1.26679598866,,,2018_Apr_04_1539,59.9949199212,MAFE4ImagesEEG,001,203371,
AFNE01.JPG,AFNE01.JPG,AFNE01.JPG,AFNE01.JPG,AFNE01.JPG,AFNE01.JPG,5,7,57,5,,,,,,,,,,,,,,,,,,,,,,,AMNE04.jpg,AMNE20.jpg,AMSA09.jpg,AMSA06.jpg,AMNE20.jpg,MN,1,num_6,32,num_4,1.36679861881,,,2018_Apr_04_1539,59.9949199212,MAFE4ImagesEEG,001,203371,
AFNE01.JPG,AFNE01.JPG,AFNE01.JPG,AFNE01.JPG,AFNE01.JPG,AFNE01.JPG,5,8,58,0,,,,,,,,,,,,,,,,,,,,,,,AMSA11.jpg,AMNE08.jpg,AMNE10.jpg,AMSA10.jpg,AMNE08.jpg,MN,1,num_6,32,num_8,0.916762728011,,,2018_Apr_04_1539,59.9949199212,MAFE4ImagesEEG,001,203371,
AFNE01.JPG,AFNE01.JPG,AFNE01.JPG,AFNE01.JPG,AFNE01.JPG,AFNE01.JPG,5,9,59,9,,,,,,,,,,,,,,,,,,,,,,,AMNE15.jpg,AMSA05.jpg,AMSA02.jpg,AMNE05.jpg,AMSA05.jpg,MS,2,num_6,16,num_6,0.916777802748,,,2018_Apr_04_1539,59.9949199212,MAFE4ImagesEEG,001,203371,
,,,,,,,,,,,,,,,,,,,,,,,,,,,,,,,,,,,,,,,,,,,space,10.732660679,2018_Apr_04_1539,59.9949199212,MAFE4ImagesEEG,001,203371,
AFNE01.JPG,AFNE01.JPG,AFNE01.JPG,AFNE01.JPG,AFNE01.JPG,AFNE01.JPG,,,,,0,0,0,9,,,,,,,,,,,,,,,,,,,AFSA01.jpg,AFNE18.jpg,AFSA02.jpg,AFNE17.jpg,AFSA01.jpg,FS,4,num_8,32,num_4,0.550168740796,,,2018_Apr_04_1539,59.9949199212,MAFE4ImagesEEG,001,203371,
AFNE01.JPG,AFNE01.JPG,AFNE01.JPG,AFNE01.JPG,AFNE01.JPG,AFNE01.JPG,,,,,0,1,1,3,,,,,,,,,,,,,,,,,,,AFSA12.jpg,AFNE03.jpg,AFNE08.jpg,AFSA08.jpg,AFNE03.jpg,FN,3,num_6,16,num_6,0.733494921704,,,2018_Apr_04_1539,59.9949199212,MAFE4ImagesEEG,001,203371,
AFNE01.JPG,AFNE01.JPG,AFNE01.JPG,AFNE01.JPG,AFNE01.JPG,AFNE01.JPG,,,,,0,2,2,6,,,,,,,,,,,,,,,,,,,AFSA10.jpg,AFNE07.jpg,AFSA01.jpg,AFNE10.jpg,AFNE10.jpg,FN,3,num_4,32,num_8,0.416805386427,,,2018_Apr_04_1539,59.9949199212,MAFE4ImagesEEG,001,203371,
AFNE01.JPG,AFNE01.JPG,AFNE01.JPG,AFNE01.JPG,AFNE01.JPG,AFNE01.JPG,,,,,0,3,3,7,,,,,,,,,,,,,,,,,,,AFSA12.jpg,AFNE08.jpg,AFSA01.jpg,AFNE10.jpg,AFSA12.jpg,FS,4,num_8,32,num_4,0.999864006648,,,2018_Apr_04_1539,59.9949199212,MAFE4ImagesEEG,001,203371,
AFNE01.JPG,AFNE01.JPG,AFNE01.JPG,AFNE01.JPG,AFNE01.JPG,AFNE01.JPG,,,,,0,4,4,8,,,,,,,,,,,,,,,,,,,AFSA15.jpg,AFNE19.jpg,AFSA11.jpg,AFNE17.jpg,AFSA15.jpg,FS,4,num_8,32,num_6,0.48357173882,,,2018_Apr_04_1539,59.9949199212,MAFE4ImagesEEG,001,203371,
AFNE01.JPG,AFNE01.JPG,AFNE01.JPG,AFNE01.JPG,AFNE01.JPG,AFNE01.JPG,,,,,0,5,5,5,,,,,,,,,,,,,,,,,,,AFNE15.jpg,AFSA16.jpg,AFNE09.jpg,AFSA05.jpg,AFSA16.jpg,FS,4,num_6,32,num_8,0.433505955152,,,2018_Apr_04_1539,59.9949199212,MAFE4ImagesEEG,001,203371,
AFNE01.JPG,AFNE01.JPG,AFNE01.JPG,AFNE01.JPG,AFNE01.JPG,AFNE01.JPG,,,,,0,6,6,4,,,,,,,,,,,,,,,,,,,AFNE19.jpg,AFSA08.jpg,AFSA09.jpg,AFNE04.jpg,AFSA08.jpg,FS,4,num_6,16,num_6,1.01676856552,,,2018_Apr_04_1539,59.9949199212,MAFE4ImagesEEG,001,203371,
AFNE01.JPG,AFNE01.JPG,AFNE01.JPG,AFNE01.JPG,AFNE01.JPG,AFNE01.JPG,,,,,0,7,7,2,,,,,,,,,,,,,,,,,,,AFNE17.jpg,AFNE08.jpg,AFSA16.jpg,AFSA10.jpg,AFSA16.jpg,FS,4,num_2,16,num_2,1.03354450804,,,2018_Apr_04_1539,59.9949199212,MAFE4ImagesEEG,001,203371,
AFNE01.JPG,AFNE01.JPG,AFNE01.JPG,AFNE01.JPG,AFNE01.JPG,AFNE01.JPG,,,,,0,8,8,0,,,,,,,,,,,,,,,,,,,AFNE07.jpg,AFSA08.jpg,AFSA15.jpg,AFNE12.jpg,AFNE12.jpg,FN,3,num_4,16,num_4,1.21678024041,,,2018_Apr_04_1539,59.9949199212,MAFE4ImagesEEG,001,203371,
AFNE01.JPG,AFNE01.JPG,AFNE01.JPG,AFNE01.JPG,AFNE01.JPG,AFNE01.JPG,,,,,0,9,9,1,,,,,,,,,,,,,,,,,,,AFSA14.jpg,AFNE07.jpg,AFNE18.jpg,AFSA15.jpg,AFSA15.jpg,FS,4,num_4,16,num_4,0.550168740796,,,2018_Apr_04_1539,59.9949199212,MAFE4ImagesEEG,001,203371,
AFNE01.JPG,AFNE01.JPG,AFNE01.JPG,AFNE01.JPG,AFNE01.JPG,AFNE01.JPG,,,,,1,0,10,2,,,,,,,,,,,,,,,,,,,AFNE13.jpg,AFSA01.jpg,AFSA02.jpg,AFNE09.jpg,AFSA01.jpg,FS,4,num_6,32,num_2,0.833520324202,,,2018_Apr_04_1539,59.9949199212,MAFE4ImagesEEG,001,203371,
AFNE01.JPG,AFNE01.JPG,AFNE01.JPG,AFNE01.JPG,AFNE01.JPG,AFNE01.JPG,,,,,1,1,11,1,,,,,,,,,,,,,,,,,,,AFSA07.jpg,AFNE13.jpg,AFNE08.jpg,AFSA04.jpg,AFSA04.jpg,FS,4,num_4,16,num_4,0.683541076025,,,2018_Apr_04_1539,59.9949199212,MAFE4ImagesEEG,001,203371,
AFNE01.JPG,AFNE01.JPG,AFNE01.JPG,AFNE01.JPG,AFNE01.JPG,AFNE01.JPG,,,,,1,2,12,6,,,,,,,,,,,,,,,,,,,AFSA13.jpg,AFNE01.jpg,AFNE05.jpg,AFSA08.jpg,AFSA13.jpg,FS,4,num_8,16,num_8,0.733488186146,,,2018_Apr_04_1539,59.9949199212,MAFE4ImagesEEG,001,203371,
AFNE01.JPG,AFNE01.JPG,AFNE01.JPG,AFNE01.JPG,AFNE01.JPG,AFNE01.JPG,,,,,1,3,13,4,,,,,,,,,,,,,,,,,,,AFNE10.jpg,AFSA13.jpg,AFNE01.jpg,AFSA01.jpg,AFNE10.jpg,FN,3,num_8,32,num_2,2.10002925142,,,2018_Apr_04_1539,59.9949199212,MAFE4ImagesEEG,001,203371,
AFNE01.JPG,AFNE01.JPG,AFNE01.JPG,AFNE01.JPG,AFNE01.JPG,AFNE01.JPG,,,,,1,4,14,3,,,,,,,,,,,,,,,,,,,AFSA13.jpg,AFNE07.jpg,AFNE05.jpg,AFSA06.jpg,AFNE07.jpg,FN,3,num_6,32,num_8,1.23344199976,,,2018_Apr_04_1539,59.9949199212,MAFE4ImagesEEG,001,203371,
AFNE01.JPG,AFNE01.JPG,AFNE01.JPG,AFNE01.JPG,AFNE01.JPG,AFNE01.JPG,,,,,1,5,15,5,,,,,,,,,,,,,,,,,,,AFSA01.jpg,AFNE04.jpg,AFNE10.jpg,AFSA14.jpg,AFNE04.jpg,FN,3,num_6,16,num_6,0.733481771429,,,2018_Apr_04_1539,59.9949199212,MAFE4ImagesEEG,001,203371,
AFNE01.JPG,AFNE01.JPG,AFNE01.JPG,AFNE01.JPG,AFNE01.JPG,AFNE01.JPG,,,,,1,6,16,8,,,,,,,,,,,,,,,,,,,AFSA06.jpg,AFNE05.jpg,AFSA12.jpg,AFNE06.jpg,AFNE06.jpg,FN,3,num_4,16,num_4,0.700166271185,,,2018_Apr_04_1539,59.9949199212,MAFE4ImagesEEG,001,203371,
AFNE01.JPG,AFNE01.JPG,AFNE01.JPG,AFNE01.JPG,AFNE01.JPG,AFNE01.JPG,,,,,1,7,17,7,,,,,,,,,,,,,,,,,,,AFSA03.jpg,AFNE08.jpg,AFNE02.jpg,AFSA20.jpg,AFNE02.jpg,FN,3,num_2,32,num_6,0.350186253316,,,2018_Apr_04_1539,59.9949199212,MAFE4ImagesEEG,001,203371,
AFNE01.JPG,AFNE01.JPG,AFNE01.JPG,AFNE01.JPG,AFNE01.JPG,AFNE01.JPG,,,,,1,8,18,0,,,,,,,,,,,,,,,,,,,AFSA14.jpg,AFSA08.jpg,AFNE16.jpg,AFNE20.jpg,AFSA08.jpg,FS,4,num_6,32,num_8,0.666797207552,,,2018_Apr_04_1539,59.9949199212,MAFE4ImagesEEG,001,203371,
AFNE01.JPG,AFNE01.JPG,AFNE01.JPG,AFNE01.JPG,AFNE01.JPG,AFNE01.JPG,,,,,1,9,19,9,,,,,,,,,,,,,,,,,,,AFNE07.jpg,AFNE18.jpg,AFSA01.jpg,AFSA18.jpg,AFSA18.jpg,FS,4,num_4,32,num_2,0.950143659022,,,2018_Apr_04_1539,59.9949199212,MAFE4ImagesEEG,001,203371,
AFNE01.JPG,AFNE01.JPG,AFNE01.JPG,AFNE01.JPG,AFNE01.JPG,AFNE01.JPG,,,,,2,0,20,9,,,,,,,,,,,,,,,,,,,AFSA06.jpg,AFNE14.jpg,AFSA18.jpg,AFNE19.jpg,AFNE19.jpg,FN,3,num_4,32,num_6,1.46676404309,,,2018_Apr_04_1539,59.9949199212,MAFE4ImagesEEG,001,203371,
AFNE01.JPG,AFNE01.JPG,AFNE01.JPG,AFNE01.JPG,AFNE01.JPG,AFNE01.JPG,,,,,2,1,21,5,,,,,,,,,,,,,,,,,,,AFSA10.jpg,AFSA19.jpg,AFNE16.jpg,AFNE19.jpg,AFSA10.jpg,FS,4,num_8,32,num_6,1.96673902543,,,2018_Apr_04_1539,59.9949199212,MAFE4ImagesEEG,001,203371,
AFNE01.JPG,AFNE01.JPG,AFNE01.JPG,AFNE01.JPG,AFNE01.JPG,AFNE01.JPG,,,,,2,2,22,4,,,,,,,,,,,,,,,,,,,AFNE17.jpg,AFSA01.jpg,AFSA12.jpg,AFNE20.jpg,AFNE17.jpg,FN,3,num_8,32,num_2,1.11679172283,,,2018_Apr_04_1539,59.9949199212,MAFE4ImagesEEG,001,203371,
AFNE01.JPG,AFNE01.JPG,AFNE01.JPG,AFNE01.JPG,AFNE01.JPG,AFNE01.JPG,,,,,2,3,23,2,,,,,,,,,,,,,,,,,,,AFNE13.jpg,AFSA06.jpg,AFNE16.jpg,AFSA18.jpg,AFSA18.jpg,FS,4,num_4,32,num_6,1.06675576803,,,2018_Apr_04_1539,59.9949199212,MAFE4ImagesEEG,001,203371,
AFNE01.JPG,AFNE01.JPG,AFNE01.JPG,AFNE01.JPG,AFNE01.JPG,AFNE01.JPG,,,,,2,4,24,3,,,,,,,,,,,,,,,,,,,AFNE14.jpg,AFSA20.jpg,AFNE17.jpg,AFSA17.jpg,AFSA20.jpg,FS,4,num_6,16,num_6,0.733448414598,,,2018_Apr_04_1539,59.9949199212,MAFE4ImagesEEG,001,203371,
AFNE01.JPG,AFNE01.JPG,AFNE01.JPG,AFNE01.JPG,AFNE01.JPG,AFNE01.JPG,,,,,2,5,25,1,,,,,,,,,,,,,,,,,,,AFNE16.jpg,AFSA02.jpg,AFSA10.jpg,AFNE18.jpg,AFSA02.jpg,FS,4,num_6,32,num_4,0.316872035968,,,2018_Apr_04_1539,59.9949199212,MAFE4ImagesEEG,001,203371,
AFNE01.JPG,AFNE01.JPG,AFNE01.JPG,AFNE01.JPG,AFNE01.JPG,AFNE01.JPG,,,,,2,6,26,8,,,,,,,,,,,,,,,,,,,AFNE07.jpg,AFSA18.jpg,AFSA09.jpg,AFNE13.jpg,AFNE13.jpg,FN,3,num_4,32,num_8,1.36676879006,,,2018_Apr_04_1539,59.9949199212,MAFE4ImagesEEG,001,203371,
AFNE01.JPG,AFNE01.JPG,AFNE01.JPG,AFNE01.JPG,AFNE01.JPG,AFNE01.JPG,,,,,2,7,27,0,,,,,,,,,,,,,,,,,,,AFNE08.jpg,AFSA17.jpg,AFNE09.jpg,AFSA15.jpg,AFNE08.jpg,FN,3,num_8,16,num_8,0.583336701035,,,2018_Apr_04_1539,59.9949199212,MAFE4ImagesEEG,001,203371,
AFNE01.JPG,AFNE01.JPG,AFNE01.JPG,AFNE01.JPG,AFNE01.JPG,AFNE01.JPG,,,,,2,8,28,6,,,,,,,,,,,,,,,,,,,AFSA10.jpg,AFNE13.jpg,AFSA03.jpg,AFNE01.jpg,AFNE01.jpg,FN,3,num_4,32,num_8,0.650116845267,,,2018_Apr_04_1539,59.9949199212,MAFE4ImagesEEG,001,203371,
AFNE01.JPG,AFNE01.JPG,AFNE01.JPG,AFNE01.JPG,AFNE01.JPG,AFNE01.JPG,,,,,2,9,29,7,,,,,,,,,,,,,,,,,,,AFSA09.jpg,AFSA12.jpg,AFNE11.jpg,AFNE01.jpg,AFSA12.jpg,FS,4,num_6,16,num_6,0.700063955388,,,2018_Apr_04_1539,59.9949199212,MAFE4ImagesEEG,001,203371,
AFNE01.JPG,AFNE01.JPG,AFNE01.JPG,AFNE01.JPG,AFNE01.JPG,AFNE01.JPG,,,,,3,0,30,5,,,,,,,,,,,,,,,,,,,AFNE05.jpg,AFSA07.jpg,AFNE08.jpg,AFSA12.jpg,AFSA07.jpg,FS,4,num_6,32,num_2,1.01678716845,,,2018_Apr_04_1539,59.9949199212,MAFE4ImagesEEG,001,203371,
AFNE01.JPG,AFNE01.JPG,AFNE01.JPG,AFNE01.JPG,AFNE01.JPG,AFNE01.JPG,,,,,3,1,31,9,,,,,,,,,,,,,,,,,,,AFNE08.jpg,AFSA13.jpg,AFSA19.jpg,AFNE18.jpg,AFNE08.jpg,FN,3,num_8,16,num_8,1.08345761977,,,2018_Apr_04_1539,59.9949199212,MAFE4ImagesEEG,001,203371,
AFNE01.JPG,AFNE01.JPG,AFNE01.JPG,AFNE01.JPG,AFNE01.JPG,AFNE01.JPG,,,,,3,2,32,8,,,,,,,,,,,,,,,,,,,AFSA01.jpg,AFSA19.jpg,AFNE11.jpg,AFNE13.jpg,AFNE13.jpg,FN,3,num_4,32,num_2,1.51659312123,,,2018_Apr_04_1539,59.9949199212,MAFE4ImagesEEG,001,203371,
AFNE01.JPG,AFNE01.JPG,AFNE01.JPG,AFNE01.JPG,AFNE01.JPG,AFNE01.JPG,,,,,3,3,33,3,,,,,,,,,,,,,,,,,,,AFNE13.jpg,AFSA09.jpg,AFSA20.jpg,AFNE02.jpg,AFSA09.jpg,FS,4,num_6,32,num_4,1.1167923644,,,2018_Apr_04_1539,59.9949199212,MAFE4ImagesEEG,001,203371,
AFNE01.JPG,AFNE01.JPG,AFNE01.JPG,AFNE01.JPG,AFNE01.JPG,AFNE01.JPG,,,,,3,4,34,7,,,,,,,,,,,,,,,,,,,AFSA10.jpg,AFNE13.jpg,AFSA17.jpg,AFNE07.jpg,AFSA17.jpg,FS,4,num_2,32,num_6,0.800120790373,,,2018_Apr_04_1539,59.9949199212,MAFE4ImagesEEG,001,203371,
AFNE01.JPG,AFNE01.JPG,AFNE01.JPG,AFNE01.JPG,AFNE01.JPG,AFNE01.JPG,,,,,3,5,35,2,,,,,,,,,,,,,,,,,,,AFNE19.jpg,AFSA05.jpg,AFNE09.jpg,AFSA10.jpg,AFNE19.jpg,FN,3,num_8,32,num_4,1.38341355021,,,2018_Apr_04_1539,59.9949199212,MAFE4ImagesEEG,001,203371,
AFNE01.JPG,AFNE01.JPG,AFNE01.JPG,AFNE01.JPG,AFNE01.JPG,AFNE01.JPG,,,,,3,6,36,4,,,,,,,,,,,,,,,,,,,AFNE18.jpg,AFSA18.jpg,AFSA08.jpg,AFNE20.jpg,AFNE20.jpg,FN,3,num_4,16,num_4,2.94972573593,,,2018_Apr_04_1539,59.9949199212,MAFE4ImagesEEG,001,203371,
AFNE01.JPG,AFNE01.JPG,AFNE01.JPG,AFNE01.JPG,AFNE01.JPG,AFNE01.JPG,,,,,3,7,37,0,,,,,,,,,,,,,,,,,,,AFNE16.jpg,AFSA03.jpg,AFSA02.jpg,AFNE13.jpg,AFNE16.jpg,FN,3,num_8,32,num_6,2.59996414138,,,2018_Apr_04_1539,59.9949199212,MAFE4ImagesEEG,001,203371,
AFNE01.JPG,AFNE01.JPG,AFNE01.JPG,AFNE01.JPG,AFNE01.JPG,AFNE01.JPG,,,,,3,8,38,6,,,,,,,,,,,,,,,,,,,AFSA13.jpg,AFNE19.jpg,AFNE17.jpg,AFSA19.jpg,AFNE17.jpg,FN,3,num_2,32,num_6,1.46675570391,,,2018_Apr_04_1539,59.9949199212,MAFE4ImagesEEG,001,203371,
AFNE01.JPG,AFNE01.JPG,AFNE01.JPG,AFNE01.JPG,AFNE01.JPG,AFNE01.JPG,,,,,3,9,39,1,,,,,,,,,,,,,,,,,,,AFNE16.jpg,AFSA14.jpg,AFSA19.jpg,AFNE12.jpg,AFSA19.jpg,FS,4,num_2,32,num_4,1.18340379978,,,2018_Apr_04_1539,59.9949199212,MAFE4ImagesEEG,001,203371,
AFNE01.JPG,AFNE01.JPG,AFNE01.JPG,AFNE01.JPG,AFNE01.JPG,AFNE01.JPG,,,,,4,0,40,8,,,,,,,,,,,,,,,,,,,AFSA20.jpg,AFSA08.jpg,AFNE02.jpg,AFNE14.jpg,AFSA08.jpg,FS,4,num_6,16,num_6,0.800136506557,,,2018_Apr_04_1539,59.9949199212,MAFE4ImagesEEG,001,203371,
AFNE01.JPG,AFNE01.JPG,AFNE01.JPG,AFNE01.JPG,AFNE01.JPG,AFNE01.JPG,,,,,4,1,41,5,,,,,,,,,,,,,,,,,,,AFNE09.jpg,AFSA15.jpg,AFNE10.jpg,AFSA09.jpg,AFNE10.jpg,FN,3,num_2,32,num_8,2.13338131597,,,2018_Apr_04_1539,59.9949199212,MAFE4ImagesEEG,001,203371,
AFNE01.JPG,AFNE01.JPG,AFNE01.JPG,AFNE01.JPG,AFNE01.JPG,AFNE01.JPG,,,,,4,2,42,3,,,,,,,,,,,,,,,,,,,AFNE14.jpg,AFSA15.jpg,AFSA18.jpg,AFNE18.jpg,AFNE18.jpg,FN,3,num_4,32,num_8,0.683500342187,,,2018_Apr_04_1539,59.9949199212,MAFE4ImagesEEG,001,203371,
AFNE01.JPG,AFNE01.JPG,AFNE01.JPG,AFNE01.JPG,AFNE01.JPG,AFNE01.JPG,,,,,4,3,43,0,,,,,,,,,,,,,,,,,,,AFSA09.jpg,AFSA06.jpg,AFNE10.jpg,AFNE07.jpg,AFNE10.jpg,FN,3,num_2,16,num_2,0.850150651182,,,2018_Apr_04_1539,59.9949199212,MAFE4ImagesEEG,001,203371,
AFNE01.JPG,AFNE01.JPG,AFNE01.JPG,AFNE01.JPG,AFNE01.JPG,AFNE01.JPG,,,,,4,4,44,1,,,,,,,,,,,,,,,,,,,AFSA16.jpg,AFSA13.jpg,AFNE06.jpg,AFNE07.jpg,AFNE06.jpg,FN,3,num_2,32,num_4,0.800157675287,,,2018_Apr_04_1539,59.9949199212,MAFE4ImagesEEG,001,203371,
AFNE01.JPG,AFNE01.JPG,AFNE01.JPG,AFNE01.JPG,AFNE01.JPG,AFNE01.JPG,,,,,4,5,45,9,,,,,,,,,,,,,,,,,,,AFNE15.jpg,AFNE13.jpg,AFSA16.jpg,AFSA19.jpg,AFNE15.jpg,FN,3,num_8,32,num_6,0.700122009264,,,2018_Apr_04_1539,59.9949199212,MAFE4ImagesEEG,001,203371,
AFNE01.JPG,AFNE01.JPG,AFNE01.JPG,AFNE01.JPG,AFNE01.JPG,AFNE01.JPG,,,,,4,6,46,2,,,,,,,,,,,,,,,,,,,AFNE10.jpg,AFSA09.jpg,AFSA11.jpg,AFNE20.jpg,AFSA09.jpg,FS,4,num_6,32,num_8,0.533646823722,,,2018_Apr_04_1539,59.9949199212,MAFE4ImagesEEG,001,203371,
AFNE01.JPG,AFNE01.JPG,AFNE01.JPG,AFNE01.JPG,AFNE01.JPG,AFNE01.JPG,,,,,4,7,47,7,,,,,,,,,,,,,,,,,,,AFNE20.jpg,AFSA01.jpg,AFSA15.jpg,AFNE15.jpg,AFNE20.jpg,FN,3,num_8,32,num_4,0.950110622915,,,2018_Apr_04_1539,59.9949199212,MAFE4ImagesEEG,001,203371,
AFNE01.JPG,AFNE01.JPG,AFNE01.JPG,AFNE01.JPG,AFNE01.JPG,AFNE01.JPG,,,,,4,8,48,6,,,,,,,,,,,,,,,,,,,AFNE07.jpg,AFNE16.jpg,AFSA04.jpg,AFSA15.jpg,AFSA15.jpg,FS,4,num_4,32,num_6,0.666784698609,,,2018_Apr_04_1539,59.9949199212,MAFE4ImagesEEG,001,203371,
AFNE01.JPG,AFNE01.JPG,AFNE01.JPG,AFNE01.JPG,AFNE01.JPG,AFNE01.JPG,,,,,4,9,49,4,,,,,,,,,,,,,,,,,,,AFSA09.jpg,AFNE06.jpg,AFNE01.jpg,AFSA05.jpg,AFSA09.jpg,FS,4,num_8,32,num_4,0.800136827398,,,2018_Apr_04_1539,59.9949199212,MAFE4ImagesEEG,001,203371,
AFNE01.JPG,AFNE01.JPG,AFNE01.JPG,AFNE01.JPG,AFNE01.JPG,AFNE01.JPG,,,,,5,0,50,0,,,,,,,,,,,,,,,,,,,AFSA19.jpg,AFNE05.jpg,AFNE11.jpg,AFSA16.jpg,AFNE11.jpg,FN,3,num_2,32,num_8,1.14994332544,,,2018_Apr_04_1539,59.9949199212,MAFE4ImagesEEG,001,203371,
AFNE01.JPG,AFNE01.JPG,AFNE01.JPG,AFNE01.JPG,AFNE01.JPG,AFNE01.JPG,,,,,5,1,51,6,,,,,,,,,,,,,,,,,,,AFSA19.jpg,AFSA14.jpg,AFNE17.jpg,AFNE12.jpg,AFSA19.jpg,FS,4,num_8,32,num_6,0.566816387698,,,2018_Apr_04_1539,59.9949199212,MAFE4ImagesEEG,001,203371,
AFNE01.JPG,AFNE01.JPG,AFNE01.JPG,AFNE01.JPG,AFNE01.JPG,AFNE01.JPG,,,,,5,2,52,2,,,,,,,,,,,,,,,,,,,AFNE07.jpg,AFSA06.jpg,AFNE08.jpg,AFSA11.jpg,AFNE08.jpg,FN,3,num_2,32,num_8,0.700152479461,,,2018_Apr_04_1539,59.9949199212,MAFE4ImagesEEG,001,203371,
AFNE01.JPG,AFNE01.JPG,AFNE01.JPG,AFNE01.JPG,AFNE01.JPG,AFNE01.JPG,,,,,5,3,53,8,,,,,,,,,,,,,,,,,,,AFSA12.jpg,AFNE09.jpg,AFSA02.jpg,AFNE16.jpg,AFNE09.jpg,FN,3,num_6,32,num_2,0.666753586964,,,2018_Apr_04_1539,59.9949199212,MAFE4ImagesEEG,001,203371,
AFNE01.JPG,AFNE01.JPG,AFNE01.JPG,AFNE01.JPG,AFNE01.JPG,AFNE01.JPG,,,,,5,4,54,1,,,,,,,,,,,,,,,,,,,AFNE12.jpg,AFSA20.jpg,AFNE19.jpg,AFSA06.jpg,AFNE12.jpg,FN,3,num_8,32,num_6,1.56658032362,,,2018_Apr_04_1539,59.9949199212,MAFE4ImagesEEG,001,203371,
AFNE01.JPG,AFNE01.JPG,AFNE01.JPG,AFNE01.JPG,AFNE01.JPG,AFNE01.JPG,,,,,5,5,55,5,,,,,,,,,,,,,,,,,,,AFSA20.jpg,AFNE07.jpg,AFSA03.jpg,AFNE03.jpg,AFSA03.jpg,FS,4,num_2,32,num_4,0.733413133188,,,2018_Apr_04_1539,59.9949199212,MAFE4ImagesEEG,001,203371,
AFNE01.JPG,AFNE01.JPG,AFNE01.JPG,AFNE01.JPG,AFNE01.JPG,AFNE01.JPG,,,,,5,6,56,4,,,,,,,,,,,,,,,,,,,AFSA06.jpg,AFNE02.jpg,AFNE17.jpg,AFSA02.jpg,AFNE17.jpg,FN,3,num_2,32,num_4,0.783492708579,,,2018_Apr_04_1539,59.9949199212,MAFE4ImagesEEG,001,203371,
AFNE01.JPG,AFNE01.JPG,AFNE01.JPG,AFNE01.JPG,AFNE01.JPG,AFNE01.JPG,,,,,5,7,57,9,,,,,,,,,,,,,,,,,,,AFNE08.jpg,AFNE10.jpg,AFSA17.jpg,AFSA09.jpg,AFNE10.jpg,FN,3,num_6,32,num_8,0.71676195832,,,2018_Apr_04_1539,59.9949199212,MAFE4ImagesEEG,001,203371,
AFNE01.JPG,AFNE01.JPG,AFNE01.JPG,AFNE01.JPG,AFNE01.JPG,AFNE01.JPG,,,,,5,8,58,7,,,,,,,,,,,,,,,,,,,AFNE05.jpg,AFSA04.jpg,AFSA02.jpg,AFNE08.jpg,AFNE05.jpg,FN,3,num_8,32,num_6,0.550137308426,,,2018_Apr_04_1539,59.9949199212,MAFE4ImagesEEG,001,203371,
AFNE01.JPG,AFNE01.JPG,AFNE01.JPG,AFNE01.JPG,AFNE01.JPG,AFNE01.JPG,,,,,5,9,59,3,,,,,,,,,,,,,,,,,,,AFNE09.jpg,AFSA09.jpg,AFSA04.jpg,AFNE01.jpg,AFNE09.jpg,FN,3,num_8,32,num_2,0.816805001465,,,2018_Apr_04_1539,59.9949199212,MAFE4ImagesEEG,001,203371,
,,,,,,,,,,,,,,,,,,,,,,,,,,,,,,,,,,,,,,,,,,,space,12.9828205677,2018_Apr_04_1539,59.9949199212,MAFE4ImagesEEG,001,203371,
AFNE01.JPG,AFNE01.JPG,AFNE01.JPG,AFNE01.JPG,AFNE01.JPG,AFNE01.JPG,,,,,,,,,0,0,0,1,,,,,,,,,,,,,,,AMNE01.jpg,AMSA17.jpg,AMSA01.jpg,AMNE18.jpg,AMSA01.jpg,MS,2,num_2,32,num_8,0.800178523408,,,2018_Apr_04_1539,59.9949199212,MAFE4ImagesEEG,001,203371,
AFNE01.JPG,AFNE01.JPG,AFNE01.JPG,AFNE01.JPG,AFNE01.JPG,AFNE01.JPG,,,,,,,,,0,1,1,3,,,,,,,,,,,,,,,AMNE06.jpg,AMSA14.jpg,AMSA08.jpg,AMNE10.jpg,AMSA08.jpg,MS,2,num_2,32,num_6,0.833474458545,,,2018_Apr_04_1539,59.9949199212,MAFE4ImagesEEG,001,203371,
AFNE01.JPG,AFNE01.JPG,AFNE01.JPG,AFNE01.JPG,AFNE01.JPG,AFNE01.JPG,,,,,,,,,0,2,2,7,,,,,,,,,,,,,,,AMNE17.jpg,AMSA14.jpg,AMSA16.jpg,AMNE11.jpg,AMNE17.jpg,MN,1,num_8,32,num_4,1.60017807432,,,2018_Apr_04_1539,59.9949199212,MAFE4ImagesEEG,001,203371,
AFNE01.JPG,AFNE01.JPG,AFNE01.JPG,AFNE01.JPG,AFNE01.JPG,AFNE01.JPG,,,,,,,,,0,3,3,9,,,,,,,,,,,,,,,AMSA03.jpg,AMSA11.jpg,AMNE08.jpg,AMNE17.jpg,AMNE17.jpg,MN,1,num_4,16,num_4,0.766825496685,,,2018_Apr_04_1539,59.9949199212,MAFE4ImagesEEG,001,203371,
AFNE01.JPG,AFNE01.JPG,AFNE01.JPG,AFNE01.JPG,AFNE01.JPG,AFNE01.JPG,,,,,,,,,0,4,4,4,,,,,,,,,,,,,,,AMSA16.jpg,AMSA01.jpg,AMNE06.jpg,AMNE16.jpg,AMSA01.jpg,MS,2,num_6,16,num_6,1.10011873767,,,2018_Apr_04_1539,59.9949199212,MAFE4ImagesEEG,001,203371,
AFNE01.JPG,AFNE01.JPG,AFNE01.JPG,AFNE01.JPG,AFNE01.JPG,AFNE01.JPG,,,,,,,,,0,5,5,2,,,,,,,,,,,,,,,AMSA18.jpg,AMSA19.jpg,AMNE11.jpg,AMNE05.jpg,AMSA18.jpg,MS,2,num_8,32,num_4,0.516783640254,,,2018_Apr_04_1539,59.9949199212,MAFE4ImagesEEG,001,203371,
AFNE01.JPG,AFNE01.JPG,AFNE01.JPG,AFNE01.JPG,AFNE01.JPG,AFNE01.JPG,,,,,,,,,0,6,6,5,,,,,,,,,,,,,,,AMNE14.jpg,AMSA13.jpg,AMNE02.jpg,AMSA15.jpg,AMSA13.jpg,MS,2,num_6,32,num_2,0.700022259261,,,2018_Apr_04_1539,59.9949199212,MAFE4ImagesEEG,001,203371,
AFNE01.JPG,AFNE01.JPG,AFNE01.JPG,AFNE01.JPG,AFNE01.JPG,AFNE01.JPG,,,,,,,,,0,7,7,0,,,,,,,,,,,,,,,AMNE05.jpg,AMSA01.jpg,AMSA04.jpg,AMNE02.jpg,AMSA04.jpg,MS,2,num_2,16,num_2,1.13347978285,,,2018_Apr_04_1539,59.9949199212,MAFE4ImagesEEG,001,203371,
AFNE01.JPG,AFNE01.JPG,AFNE01.JPG,AFNE01.JPG,AFNE01.JPG,AFNE01.JPG,,,,,,,,,0,8,8,6,,,,,,,,,,,,,,,AMNE16.jpg,AMNE03.jpg,AMSA07.jpg,AMSA13.jpg,AMSA13.jpg,MS,2,num_4,32,num_8,2.1667090042,,,2018_Apr_04_1539,59.9949199212,MAFE4ImagesEEG,001,203371,
AFNE01.JPG,AFNE01.JPG,AFNE01.JPG,AFNE01.JPG,AFNE01.JPG,AFNE01.JPG,,,,,,,,,0,9,9,8,,,,,,,,,,,,,,,AMNE12.jpg,AMNE13.jpg,AMSA14.jpg,AMSA08.jpg,AMNE13.jpg,MN,1,num_6,16,num_6,3.21686684003,,,2018_Apr_04_1539,59.9949199212,MAFE4ImagesEEG,001,203371,
AFNE01.JPG,AFNE01.JPG,AFNE01.JPG,AFNE01.JPG,AFNE01.JPG,AFNE01.JPG,,,,,,,,,1,0,10,1,,,,,,,,,,,,,,,AMSA17.jpg,AMSA05.jpg,AMNE06.jpg,AMNE17.jpg,AMNE17.jpg,MN,1,num_4,48,None,,,,2018_Apr_04_1539,59.9949199212,MAFE4ImagesEEG,001,203371,
AFNE01.JPG,AFNE01.JPG,AFNE01.JPG,AFNE01.JPG,AFNE01.JPG,AFNE01.JPG,,,,,,,,,1,1,11,2,,,,,,,,,,,,,,,AMNE07.jpg,AMSA06.jpg,AMNE11.jpg,AMSA19.jpg,AMSA06.jpg,MS,2,num_6,16,num_6,2.10003085516,,,2018_Apr_04_1539,59.9949199212,MAFE4ImagesEEG,001,203371,
AFNE01.JPG,AFNE01.JPG,AFNE01.JPG,AFNE01.JPG,AFNE01.JPG,AFNE01.JPG,,,,,,,,,1,2,12,4,,,,,,,,,,,,,,,AMSA19.jpg,AMNE17.jpg,AMSA13.jpg,AMNE04.jpg,AMSA19.jpg,MS,2,num_8,16,num_8,0.933429619181,,,2018_Apr_04_1539,59.9949199212,MAFE4ImagesEEG,001,203371,
AFNE01.JPG,AFNE01.JPG,AFNE01.JPG,AFNE01.JPG,AFNE01.JPG,AFNE01.JPG,,,,,,,,,1,3,13,7,,,,,,,,,,,,,,,AMNE02.jpg,AMSA14.jpg,AMSA12.jpg,AMNE15.jpg,AMNE02.jpg,MN,1,num_8,32,num_4,0.61683726788,,,2018_Apr_04_1539,59.9949199212,MAFE4ImagesEEG,001,203371,
AFNE01.JPG,AFNE01.JPG,AFNE01.JPG,AFNE01.JPG,AFNE01.JPG,AFNE01.JPG,,,,,,,,,1,4,14,6,,,,,,,,,,,,,,,AMSA11.jpg,AMSA18.jpg,AMNE15.jpg,AMNE07.jpg,AMNE15.jpg,MN,1,num_2,32,num_6,0.916796405683,,,2018_Apr_04_1539,59.9949199212,MAFE4ImagesEEG,001,203371,
AFNE01.JPG,AFNE01.JPG,AFNE01.JPG,AFNE01.JPG,AFNE01.JPG,AFNE01.JPG,,,,,,,,,1,5,15,9,,,,,,,,,,,,,,,AMSA12.jpg,AMNE05.jpg,AMNE07.jpg,AMSA11.jpg,AMNE07.jpg,MN,1,num_2,16,num_2,0.516771131428,,,2018_Apr_04_1539,59.9949199212,MAFE4ImagesEEG,001,203371,
AFNE01.JPG,AFNE01.JPG,AFNE01.JPG,AFNE01.JPG,AFNE01.JPG,AFNE01.JPG,,,,,,,,,1,6,16,5,,,,,,,,,,,,,,,AMNE09.jpg,AMSA18.jpg,AMNE08.jpg,AMSA19.jpg,AMSA19.jpg,MS,2,num_4,32,num_8,0.566788162687,,,2018_Apr_04_1539,59.9949199212,MAFE4ImagesEEG,001,203371,
AFNE01.JPG,AFNE01.JPG,AFNE01.JPG,AFNE01.JPG,AFNE01.JPG,AFNE01.JPG,,,,,,,,,1,7,17,0,,,,,,,,,,,,,,,AMSA12.jpg,AMNE19.jpg,AMNE10.jpg,AMSA18.jpg,AMSA12.jpg,MS,2,num_8,32,num_4,0.700177497114,,,2018_Apr_04_1539,59.9949199212,MAFE4ImagesEEG,001,203371,
AFNE01.JPG,AFNE01.JPG,AFNE01.JPG,AFNE01.JPG,AFNE01.JPG,AFNE01.JPG,,,,,,,,,1,8,18,8,,,,,,,,,,,,,,,AMSA13.jpg,AMSA16.jpg,AMNE10.jpg,AMNE19.jpg,AMNE10.jpg,MN,1,num_2,32,num_8,1.30006434023,,,2018_Apr_04_1539,59.9949199212,MAFE4ImagesEEG,001,203371,
AFNE01.JPG,AFNE01.JPG,AFNE01.JPG,AFNE01.JPG,AFNE01.JPG,AFNE01.JPG,,,,,,,,,1,9,19,3,,,,,,,,,,,,,,,AMSA19.jpg,AMNE06.jpg,AMSA05.jpg,AMNE20.jpg,AMNE06.jpg,MN,1,num_6,32,num_2,0.616833739798,,,2018_Apr_04_1539,59.9949199212,MAFE4ImagesEEG,001,203371,
AFNE01.JPG,AFNE01.JPG,AFNE01.JPG,AFNE01.JPG,AFNE01.JPG,AFNE01.JPG,,,,,,,,,2,0,20,7,,,,,,,,,,,,,,,AMSA01.jpg,AMNE12.jpg,AMNE17.jpg,AMSA06.jpg,AMNE12.jpg,MN,1,num_6,16,num_6,0.516812827555,,,2018_Apr_04_1539,59.9949199212,MAFE4ImagesEEG,001,203371,
AFNE01.JPG,AFNE01.JPG,AFNE01.JPG,AFNE01.JPG,AFNE01.JPG,AFNE01.JPG,,,,,,,,,2,1,21,0,,,,,,,,,,,,,,,AMNE03.jpg,AMSA17.jpg,AMSA06.jpg,AMNE09.jpg,AMNE03.jpg,MN,1,num_8,16,num_8,1.01675605669,,,2018_Apr_04_1539,59.9949199212,MAFE4ImagesEEG,001,203371,
AFNE01.JPG,AFNE01.JPG,AFNE01.JPG,AFNE01.JPG,AFNE01.JPG,AFNE01.JPG,,,,,,,,,2,2,22,8,,,,,,,,,,,,,,,AMSA17.jpg,AMNE09.jpg,AMNE08.jpg,AMSA14.jpg,AMSA14.jpg,MS,2,num_4,32,num_6,1.70003091928,,,2018_Apr_04_1539,59.9949199212,MAFE4ImagesEEG,001,203371,
AFNE01.JPG,AFNE01.JPG,AFNE01.JPG,AFNE01.JPG,AFNE01.JPG,AFNE01.JPG,,,,,,,,,2,3,23,9,,,,,,,,,,,,,,,AMSA20.jpg,AMSA02.jpg,AMNE14.jpg,AMNE04.jpg,AMNE14.jpg,MN,1,num_2,16,num_2,0.883487320156,,,2018_Apr_04_1539,59.9949199212,MAFE4ImagesEEG,001,203371,
AFNE01.JPG,AFNE01.JPG,AFNE01.JPG,AFNE01.JPG,AFNE01.JPG,AFNE01.JPG,,,,,,,,,2,4,24,4,,,,,,,,,,,,,,,AMNE19.jpg,AMNE13.jpg,AMSA16.jpg,AMSA03.jpg,AMSA03.jpg,MS,2,num_4,32,num_6,0.733500053524,,,2018_Apr_04_1539,59.9949199212,MAFE4ImagesEEG,001,203371,
AFNE01.JPG,AFNE01.JPG,AFNE01.JPG,AFNE01.JPG,AFNE01.JPG,AFNE01.JPG,,,,,,,,,2,5,25,3,,,,,,,,,,,,,,,AMNE10.jpg,AMSA08.jpg,AMSA01.jpg,AMNE09.jpg,AMNE10.jpg,MN,1,num_8,16,num_8,1.05011293222,,,2018_Apr_04_1539,59.9949199212,MAFE4ImagesEEG,001,203371,
AFNE01.JPG,AFNE01.JPG,AFNE01.JPG,AFNE01.JPG,AFNE01.JPG,AFNE01.JPG,,,,,,,,,2,6,26,1,,,,,,,,,,,,,,,AMSA07.jpg,AMNE17.jpg,AMNE19.jpg,AMSA10.jpg,AMNE19.jpg,MN,1,num_2,32,num_6,2.04992048873,,,2018_Apr_04_1539,59.9949199212,MAFE4ImagesEEG,001,203371,
AFNE01.JPG,AFNE01.JPG,AFNE01.JPG,AFNE01.JPG,AFNE01.JPG,AFNE01.JPG,,,,,,,,,2,7,27,6,,,,,,,,,,,,,,,AMSA09.jpg,AMNE01.jpg,AMNE18.jpg,AMSA05.jpg,AMNE01.jpg,MN,1,num_6,32,num_4,0.483482573298,,,2018_Apr_04_1539,59.9949199212,MAFE4ImagesEEG,001,203371,
AFNE01.JPG,AFNE01.JPG,AFNE01.JPG,AFNE01.JPG,AFNE01.JPG,AFNE01.JPG,,,,,,,,,2,8,28,5,,,,,,,,,,,,,,,AMSA05.jpg,AMNE08.jpg,AMNE02.jpg,AMSA18.jpg,AMNE02.jpg,MN,1,num_2,32,num_6,0.816805001465,,,2018_Apr_04_1539,59.9949199212,MAFE4ImagesEEG,001,203371,
AFNE01.JPG,AFNE01.JPG,AFNE01.JPG,AFNE01.JPG,AFNE01.JPG,AFNE01.JPG,,,,,,,,,2,9,29,2,,,,,,,,,,,,,,,AMNE11.jpg,AMNE18.jpg,AMSA09.jpg,AMSA19.jpg,AMNE18.jpg,MN,1,num_6,32,num_8,0.733479205519,,,2018_Apr_04_1539,59.9949199212,MAFE4ImagesEEG,001,203371,
AFNE01.JPG,AFNE01.JPG,AFNE01.JPG,AFNE01.JPG,AFNE01.JPG,AFNE01.JPG,,,,,,,,,3,0,30,3,,,,,,,,,,,,,,,AMNE20.jpg,AMSA09.jpg,AMNE15.jpg,AMSA15.jpg,AMSA15.jpg,MS,2,num_4,32,num_6,1.60006036307,,,2018_Apr_04_1539,59.9949199212,MAFE4ImagesEEG,001,203371,
AFNE01.JPG,AFNE01.JPG,AFNE01.JPG,AFNE01.JPG,AFNE01.JPG,AFNE01.JPG,,,,,,,,,3,1,31,0,,,,,,,,,,,,,,,AMSA09.jpg,AMNE01.jpg,AMSA08.jpg,AMNE18.jpg,AMNE01.jpg,MN,1,num_6,32,num_8,0.750007216586,,,2018_Apr_04_1539,59.9949199212,MAFE4ImagesEEG,001,203371,
AFNE01.JPG,AFNE01.JPG,AFNE01.JPG,AFNE01.JPG,AFNE01.JPG,AFNE01.JPG,,,,,,,,,3,2,32,2,,,,,,,,,,,,,,,AMSA07.jpg,AMNE05.jpg,AMSA01.jpg,AMNE15.jpg,AMSA01.jpg,MS,2,num_2,16,num_2,0.35015129263,,,2018_Apr_04_1539,59.9949199212,MAFE4ImagesEEG,001,203371,
AFNE01.JPG,AFNE01.JPG,AFNE01.JPG,AFNE01.JPG,AFNE01.JPG,AFNE01.JPG,,,,,,,,,3,3,33,4,,,,,,,,,,,,,,,AMSA14.jpg,AMNE09.jpg,AMNE11.jpg,AMSA09.jpg,AMNE09.jpg,MN,1,num_6,16,num_6,0.683494569035,,,2018_Apr_04_1539,59.9949199212,MAFE4ImagesEEG,001,203371,
AFNE01.JPG,AFNE01.JPG,AFNE01.JPG,AFNE01.JPG,AFNE01.JPG,AFNE01.JPG,,,,,,,,,3,4,34,8,,,,,,,,,,,,,,,AMSA12.jpg,AMSA14.jpg,AMNE16.jpg,AMNE17.jpg,AMNE17.jpg,MN,1,num_4,32,num_2,0.616799741401,,,2018_Apr_04_1539,59.9949199212,MAFE4ImagesEEG,001,203371,
AFNE01.JPG,AFNE01.JPG,AFNE01.JPG,AFNE01.JPG,AFNE01.JPG,AFNE01.JPG,,,,,,,,,3,5,35,1,,,,,,,,,,,,,,,AMNE11.jpg,AMSA06.jpg,AMNE04.jpg,AMSA17.jpg,AMSA06.jpg,MS,2,num_6,16,num_6,0.883441133774,,,2018_Apr_04_1539,59.9949199212,MAFE4ImagesEEG,001,203371,
AFNE01.JPG,AFNE01.JPG,AFNE01.JPG,AFNE01.JPG,AFNE01.JPG,AFNE01.JPG,,,,,,,,,3,6,36,9,,,,,,,,,,,,,,,AMSA04.jpg,AMNE17.jpg,AMSA10.jpg,AMNE08.jpg,AMNE08.jpg,MN,1,num_4,32,num_6,1.15010433644,,,2018_Apr_04_1539,59.9949199212,MAFE4ImagesEEG,001,203371,
AFNE01.JPG,AFNE01.JPG,AFNE01.JPG,AFNE01.JPG,AFNE01.JPG,AFNE01.JPG,,,,,,,,,3,7,37,7,,,,,,,,,,,,,,,AMSA14.jpg,AMSA01.jpg,AMNE04.jpg,AMNE02.jpg,AMNE02.jpg,MN,1,num_4,32,num_6,0.950137244305,,,2018_Apr_04_1539,59.9949199212,MAFE4ImagesEEG,001,203371,
AFNE01.JPG,AFNE01.JPG,AFNE01.JPG,AFNE01.JPG,AFNE01.JPG,AFNE01.JPG,,,,,,,,,3,8,38,6,,,,,,,,,,,,,,,AMSA08.jpg,AMSA10.jpg,AMNE18.jpg,AMNE15.jpg,AMSA10.jpg,MS,2,num_6,16,num_6,0.650167201296,,,2018_Apr_04_1539,59.9949199212,MAFE4ImagesEEG,001,203371,
AFNE01.JPG,AFNE01.JPG,AFNE01.JPG,AFNE01.JPG,AFNE01.JPG,AFNE01.JPG,,,,,,,,,3,9,39,5,,,,,,,,,,,,,,,AMNE07.jpg,AMNE01.jpg,AMSA05.jpg,AMSA14.jpg,AMSA14.jpg,MS,2,num_4,32,num_8,1.23341826501,,,2018_Apr_04_1539,59.9949199212,MAFE4ImagesEEG,001,203371,
AFNE01.JPG,AFNE01.JPG,AFNE01.JPG,AFNE01.JPG,AFNE01.JPG,AFNE01.JPG,,,,,,,,,4,0,40,2,,,,,,,,,,,,,,,AMNE06.jpg,AMSA15.jpg,AMSA07.jpg,AMNE02.jpg,AMSA07.jpg,MS,2,num_2,16,num_2,1.11678145919,,,2018_Apr_04_1539,59.9949199212,MAFE4ImagesEEG,001,203371,
AFNE01.JPG,AFNE01.JPG,AFNE01.JPG,AFNE01.JPG,AFNE01.JPG,AFNE01.JPG,,,,,,,,,4,1,41,1,,,,,,,,,,,,,,,AMSA08.jpg,AMSA19.jpg,AMNE07.jpg,AMNE13.jpg,AMNE07.jpg,MN,1,num_2,32,num_4,1.13346663245,,,2018_Apr_04_1539,59.9949199212,MAFE4ImagesEEG,001,203371,
AFNE01.JPG,AFNE01.JPG,AFNE01.JPG,AFNE01.JPG,AFNE01.JPG,AFNE01.JPG,,,,,,,,,4,2,42,6,,,,,,,,,,,,,,,AMNE10.jpg,AMSA04.jpg,AMNE12.jpg,AMSA17.jpg,AMSA17.jpg,MS,2,num_4,32,num_8,1.08341945172,,,2018_Apr_04_1539,59.9949199212,MAFE4ImagesEEG,001,203371,
AFNE01.JPG,AFNE01.JPG,AFNE01.JPG,AFNE01.JPG,AFNE01.JPG,AFNE01.JPG,,,,,,,,,4,3,43,3,,,,,,,,,,,,,,,AMNE08.jpg,AMSA20.jpg,AMSA13.jpg,AMNE07.jpg,AMSA13.jpg,MS,2,num_2,32,num_8,1.05002889852,,,2018_Apr_04_1539,59.9949199212,MAFE4ImagesEEG,001,203371,
AFNE01.JPG,AFNE01.JPG,AFNE01.JPG,AFNE01.JPG,AFNE01.JPG,AFNE01.JPG,,,,,,,,,4,4,44,5,,,,,,,,,,,,,,,AMNE11.jpg,AMNE04.jpg,AMSA15.jpg,AMSA02.jpg,AMNE11.jpg,MN,1,num_8,16,num_8,0.883496621624,,,2018_Apr_04_1539,59.9949199212,MAFE4ImagesEEG,001,203371,
AFNE01.JPG,AFNE01.JPG,AFNE01.JPG,AFNE01.JPG,AFNE01.JPG,AFNE01.JPG,,,,,,,,,4,5,45,0,,,,,,,,,,,,,,,AMNE10.jpg,AMSA06.jpg,AMSA04.jpg,AMNE18.jpg,AMNE18.jpg,MN,1,num_4,32,num_6,1.64995294763,,,2018_Apr_04_1539,59.9949199212,MAFE4ImagesEEG,001,203371,
AFNE01.JPG,AFNE01.JPG,AFNE01.JPG,AFNE01.JPG,AFNE01.JPG,AFNE01.JPG,,,,,,,,,4,6,46,4,,,,,,,,,,,,,,,AMNE09.jpg,AMSA08.jpg,AMSA02.jpg,AMNE06.jpg,AMNE06.jpg,MN,1,num_4,32,num_6,2.54997533513,,,2018_Apr_04_1539,59.9949199212,MAFE4ImagesEEG,001,203371,
AFNE01.JPG,AFNE01.JPG,AFNE01.JPG,AFNE01.JPG,AFNE01.JPG,AFNE01.JPG,,,,,,,,,4,7,47,8,,,,,,,,,,,,,,,AMNE17.jpg,AMSA03.jpg,AMNE08.jpg,AMSA18.jpg,AMSA18.jpg,MS,2,num_4,32,num_2,1.01674418943,,,2018_Apr_04_1539,59.9949199212,MAFE4ImagesEEG,001,203371,
AFNE01.JPG,AFNE01.JPG,AFNE01.JPG,AFNE01.JPG,AFNE01.JPG,AFNE01.JPG,,,,,,,,,4,8,48,9,,,,,,,,,,,,,,,AMSA19.jpg,AMNE18.jpg,AMNE07.jpg,AMSA06.jpg,AMSA19.jpg,MS,2,num_8,16,num_8,1.16671798495,,,2018_Apr_04_1539,59.9949199212,MAFE4ImagesEEG,001,203371,
AFNE01.JPG,AFNE01.JPG,AFNE01.JPG,AFNE01.JPG,AFNE01.JPG,AFNE01.JPG,,,,,,,,,4,9,49,7,,,,,,,,,,,,,,,AMNE03.jpg,AMNE01.jpg,AMSA07.jpg,AMSA16.jpg,AMSA16.jpg,MS,2,num_4,32,num_6,1.08345088421,,,2018_Apr_04_1539,59.9949199212,MAFE4ImagesEEG,001,203371,
AFNE01.JPG,AFNE01.JPG,AFNE01.JPG,AFNE01.JPG,AFNE01.JPG,AFNE01.JPG,,,,,,,,,5,0,50,5,,,,,,,,,,,,,,,AMSA11.jpg,AMNE17.jpg,AMSA07.jpg,AMNE20.jpg,AMNE17.jpg,MN,1,num_6,32,num_8,0.45013435767,,,2018_Apr_04_1539,59.9949199212,MAFE4ImagesEEG,001,203371,
AFNE01.JPG,AFNE01.JPG,AFNE01.JPG,AFNE01.JPG,AFNE01.JPG,AFNE01.JPG,,,,,,,,,5,1,51,8,,,,,,,,,,,,,,,AMSA11.jpg,AMNE11.jpg,AMNE09.jpg,AMSA12.jpg,AMSA11.jpg,MS,2,num_8,32,num_6,1.01676984853,,,2018_Apr_04_1539,59.9949199212,MAFE4ImagesEEG,001,203371,
AFNE01.JPG,AFNE01.JPG,AFNE01.JPG,AFNE01.JPG,AFNE01.JPG,AFNE01.JPG,,,,,,,,,5,2,52,4,,,,,,,,,,,,,,,AMNE01.jpg,AMSA13.jpg,AMNE02.jpg,AMSA07.jpg,AMSA07.jpg,MS,2,num_4,16,num_4,1.23345931969,,,2018_Apr_04_1539,59.9949199212,MAFE4ImagesEEG,001,203371,
AFNE01.JPG,AFNE01.JPG,AFNE01.JPG,AFNE01.JPG,AFNE01.JPG,AFNE01.JPG,,,,,,,,,5,3,53,3,,,,,,,,,,,,,,,AMSA14.jpg,AMNE14.jpg,AMSA17.jpg,AMNE18.jpg,AMSA17.jpg,MS,2,num_2,32,num_8,0.866870785132,,,2018_Apr_04_1539,59.9949199212,MAFE4ImagesEEG,001,203371,
AFNE01.JPG,AFNE01.JPG,AFNE01.JPG,AFNE01.JPG,AFNE01.JPG,AFNE01.JPG,,,,,,,,,5,4,54,7,,,,,,,,,,,,,,,AMNE01.jpg,AMSA18.jpg,AMNE16.jpg,AMSA01.jpg,AMSA18.jpg,MS,2,num_6,32,num_2,0.833452006918,,,2018_Apr_04_1539,59.9949199212,MAFE4ImagesEEG,001,203371,
AFNE01.JPG,AFNE01.JPG,AFNE01.JPG,AFNE01.JPG,AFNE01.JPG,AFNE01.JPG,,,,,,,,,5,5,55,1,,,,,,,,,,,,,,,AMSA14.jpg,AMSA01.jpg,AMNE14.jpg,AMNE02.jpg,AMNE02.jpg,MN,1,num_4,16,num_4,0.750042497879,,,2018_Apr_04_1539,59.9949199212,MAFE4ImagesEEG,001,203371,
AFNE01.JPG,AFNE01.JPG,AFNE01.JPG,AFNE01.JPG,AFNE01.JPG,AFNE01.JPG,,,,,,,,,5,6,56,0,,,,,,,,,,,,,,,AMNE17.jpg,AMNE15.jpg,AMSA13.jpg,AMSA08.jpg,AMNE15.jpg,MN,1,num_6,16,num_6,0.650140900747,,,2018_Apr_04_1539,59.9949199212,MAFE4ImagesEEG,001,203371,
AFNE01.JPG,AFNE01.JPG,AFNE01.JPG,AFNE01.JPG,AFNE01.JPG,AFNE01.JPG,,,,,,,,,5,7,57,9,,,,,,,,,,,,,,,AMSA13.jpg,AMNE16.jpg,AMSA10.jpg,AMNE08.jpg,AMNE08.jpg,MN,1,num_4,32,num_6,0.5501539869,,,2018_Apr_04_1539,59.9949199212,MAFE4ImagesEEG,001,203371,
AFNE01.JPG,AFNE01.JPG,AFNE01.JPG,AFNE01.JPG,AFNE01.JPG,AFNE01.JPG,,,,,,,,,5,8,58,6,,,,,,,,,,,,,,,AMSA15.jpg,AMNE02.jpg,AMSA10.jpg,AMNE05.jpg,AMSA15.jpg,MS,2,num_8,16,num_8,0.800153505756,,,2018_Apr_04_1539,59.9949199212,MAFE4ImagesEEG,001,203371,
AFNE01.JPG,AFNE01.JPG,AFNE01.JPG,AFNE01.JPG,AFNE01.JPG,AFNE01.JPG,,,,,,,,,5,9,59,2,,,,,,,,,,,,,,,AMSA15.jpg,AMSA08.jpg,AMNE03.jpg,AMNE08.jpg,AMNE03.jpg,MN,1,num_2,32,num_4,0.58345633687,,,2018_Apr_04_1539,59.9949199212,MAFE4ImagesEEG,001,203371,
,,,,,,,,,,,,,,,,,,,,,,,,,,,,,,,,,,,,,,,,,,,space,31.5476461272,2018_Apr_04_1539,59.9949199212,MAFE4ImagesEEG,001,203371,
AFNE01.JPG,AFNE01.JPG,AFNE01.JPG,AFNE01.JPG,AFNE01.JPG,AFNE01.JPG,,,,,,,,,,,,,0,0,0,2,,,,,,,,,,,AFSA11.jpg,AFNE19.jpg,AFNE01.jpg,AFSA06.jpg,AFSA11.jpg,FS,4,num_8,16,num_8,0.566833066172,,,2018_Apr_04_1539,59.9949199212,MAFE4ImagesEEG,001,203371,
AFNE01.JPG,AFNE01.JPG,AFNE01.JPG,AFNE01.JPG,AFNE01.JPG,AFNE01.JPG,,,,,,,,,,,,,0,1,1,3,,,,,,,,,,,AFNE10.jpg,AFNE06.jpg,AFSA20.jpg,AFSA08.jpg,AFSA20.jpg,FS,4,num_2,32,num_6,0.666869053151,,,2018_Apr_04_1539,59.9949199212,MAFE4ImagesEEG,001,203371,
AFNE01.JPG,AFNE01.JPG,AFNE01.JPG,AFNE01.JPG,AFNE01.JPG,AFNE01.JPG,,,,,,,,,,,,,0,2,2,5,,,,,,,,,,,AFNE02.jpg,AFNE03.jpg,AFSA14.jpg,AFSA11.jpg,AFNE03.jpg,FN,3,num_6,32,num_2,1.10011553019,,,2018_Apr_04_1539,59.9949199212,MAFE4ImagesEEG,001,203371,
AFNE01.JPG,AFNE01.JPG,AFNE01.JPG,AFNE01.JPG,AFNE01.JPG,AFNE01.JPG,,,,,,,,,,,,,0,3,3,7,,,,,,,,,,,AFNE14.jpg,AFSA17.jpg,AFNE10.jpg,AFSA13.jpg,AFSA17.jpg,FS,4,num_6,16,num_6,1.08346211014,,,2018_Apr_04_1539,59.9949199212,MAFE4ImagesEEG,001,203371,
AFNE01.JPG,AFNE01.JPG,AFNE01.JPG,AFNE01.JPG,AFNE01.JPG,AFNE01.JPG,,,,,,,,,,,,,0,4,4,6,,,,,,,,,,,AFSA01.jpg,AFNE08.jpg,AFNE01.jpg,AFSA07.jpg,AFSA01.jpg,FS,4,num_8,32,num_4,0.766663202783,,,2018_Apr_04_1539,59.9949199212,MAFE4ImagesEEG,001,203371,
AFNE01.JPG,AFNE01.JPG,AFNE01.JPG,AFNE01.JPG,AFNE01.JPG,AFNE01.JPG,,,,,,,,,,,,,0,5,5,4,,,,,,,,,,,AFNE16.jpg,AFNE07.jpg,AFSA07.jpg,AFSA17.jpg,AFSA07.jpg,FS,4,num_2,32,num_6,0.73349460098,,,2018_Apr_04_1539,59.9949199212,MAFE4ImagesEEG,001,203371,
AFNE01.JPG,AFNE01.JPG,AFNE01.JPG,AFNE01.JPG,AFNE01.JPG,AFNE01.JPG,,,,,,,,,,,,,0,6,6,1,,,,,,,,,,,AFNE15.jpg,AFSA17.jpg,AFNE01.jpg,AFSA06.jpg,AFNE01.jpg,FN,3,num_2,48,None,,,,2018_Apr_04_1539,59.9949199212,MAFE4ImagesEEG,001,203371,
AFNE01.JPG,AFNE01.JPG,AFNE01.JPG,AFNE01.JPG,AFNE01.JPG,AFNE01.JPG,,,,,,,,,,,,,0,7,7,8,,,,,,,,,,,AFNE12.jpg,AFNE14.jpg,AFSA08.jpg,AFSA05.jpg,AFSA08.jpg,FS,4,num_2,32,num_8,0.783724923735,,,2018_Apr_04_1539,59.9949199212,MAFE4ImagesEEG,001,203371,
AFNE01.JPG,AFNE01.JPG,AFNE01.JPG,AFNE01.JPG,AFNE01.JPG,AFNE01.JPG,,,,,,,,,,,,,0,8,8,0,,,,,,,,,,,AFNE02.jpg,AFNE16.jpg,AFSA16.jpg,AFSA15.jpg,AFSA15.jpg,FS,4,num_4,32,num_6,0.900143306237,,,2018_Apr_04_1539,59.9949199212,MAFE4ImagesEEG,001,203371,
AFNE01.JPG,AFNE01.JPG,AFNE01.JPG,AFNE01.JPG,AFNE01.JPG,AFNE01.JPG,,,,,,,,,,,,,0,9,9,9,,,,,,,,,,,AFNE13.jpg,AFSA05.jpg,AFNE18.jpg,AFSA02.jpg,AFSA02.jpg,FS,4,num_4,16,num_4,1.05011902633,,,2018_Apr_04_1539,59.9949199212,MAFE4ImagesEEG,001,203371,
AFNE01.JPG,AFNE01.JPG,AFNE01.JPG,AFNE01.JPG,AFNE01.JPG,AFNE01.JPG,,,,,,,,,,,,,1,0,10,8,,,,,,,,,,,AFNE03.jpg,AFSA02.jpg,AFNE08.jpg,AFSA01.jpg,AFSA01.jpg,FS,4,num_4,16,num_4,1.05013025214,,,2018_Apr_04_1539,59.9949199212,MAFE4ImagesEEG,001,203371,
AFNE01.JPG,AFNE01.JPG,AFNE01.JPG,AFNE01.JPG,AFNE01.JPG,AFNE01.JPG,,,,,,,,,,,,,1,1,11,1,,,,,,,,,,,AFNE04.jpg,AFSA04.jpg,AFSA03.jpg,AFNE14.jpg,AFSA04.jpg,FS,4,num_6,32,num_8,0.783528952161,,,2018_Apr_04_1539,59.9949199212,MAFE4ImagesEEG,001,203371,
AFNE01.JPG,AFNE01.JPG,AFNE01.JPG,AFNE01.JPG,AFNE01.JPG,AFNE01.JPG,,,,,,,,,,,,,1,2,12,0,,,,,,,,,,,AFSA06.jpg,AFNE17.jpg,AFNE05.jpg,AFSA16.jpg,AFSA06.jpg,FS,4,num_8,32,num_6,0.316856640507,,,2018_Apr_04_1539,59.9949199212,MAFE4ImagesEEG,001,203371,
AFNE01.JPG,AFNE01.JPG,AFNE01.JPG,AFNE01.JPG,AFNE01.JPG,AFNE01.JPG,,,,,,,,,,,,,1,3,13,4,,,,,,,,,,,AFSA08.jpg,AFNE09.jpg,AFSA12.jpg,AFNE01.jpg,AFNE01.jpg,FN,3,num_4,32,num_2,1.01676760335,,,2018_Apr_04_1539,59.9949199212,MAFE4ImagesEEG,001,203371,
AFNE01.JPG,AFNE01.JPG,AFNE01.JPG,AFNE01.JPG,AFNE01.JPG,AFNE01.JPG,,,,,,,,,,,,,1,4,14,7,,,,,,,,,,,AFNE10.jpg,AFSA08.jpg,AFNE03.jpg,AFSA19.jpg,AFSA19.jpg,FS,4,num_4,32,num_8,0.566872837837,,,2018_Apr_04_1539,59.9949199212,MAFE4ImagesEEG,001,203371,
AFNE01.JPG,AFNE01.JPG,AFNE01.JPG,AFNE01.JPG,AFNE01.JPG,AFNE01.JPG,,,,,,,,,,,,,1,5,15,6,,,,,,,,,,,AFNE19.jpg,AFSA17.jpg,AFSA01.jpg,AFNE05.jpg,AFNE05.jpg,FN,3,num_4,16,num_4,0.466846152325,,,2018_Apr_04_1539,59.9949199212,MAFE4ImagesEEG,001,203371,
AFNE01.JPG,AFNE01.JPG,AFNE01.JPG,AFNE01.JPG,AFNE01.JPG,AFNE01.JPG,,,,,,,,,,,,,1,6,16,3,,,,,,,,,,,AFSA06.jpg,AFNE11.jpg,AFSA09.jpg,AFNE17.jpg,AFSA06.jpg,FS,4,num_8,16,num_8,0.88347994315,,,2018_Apr_04_1539,59.9949199212,MAFE4ImagesEEG,001,203371,
AFNE01.JPG,AFNE01.JPG,AFNE01.JPG,AFNE01.JPG,AFNE01.JPG,AFNE01.JPG,,,,,,,,,,,,,1,7,17,5,,,,,,,,,,,AFNE16.jpg,AFSA07.jpg,AFNE06.jpg,AFSA10.jpg,AFNE16.jpg,FN,3,num_8,32,num_2,1.1835455664,,,2018_Apr_04_1539,59.9949199212,MAFE4ImagesEEG,001,203371,
AFNE01.JPG,AFNE01.JPG,AFNE01.JPG,AFNE01.JPG,AFNE01.JPG,AFNE01.JPG,,,,,,,,,,,,,1,8,18,9,,,,,,,,,,,AFNE07.jpg,AFNE19.jpg,AFSA12.jpg,AFSA02.jpg,AFSA02.jpg,FS,4,num_4,32,num_6,1.00013503118,,,2018_Apr_04_1539,59.9949199212,MAFE4ImagesEEG,001,203371,
AFNE01.JPG,AFNE01.JPG,AFNE01.JPG,AFNE01.JPG,AFNE01.JPG,AFNE01.JPG,,,,,,,,,,,,,1,9,19,2,,,,,,,,,,,AFNE10.jpg,AFSA07.jpg,AFNE13.jpg,AFSA16.jpg,AFSA07.jpg,FS,4,num_6,16,num_6,0.683576998883,,,2018_Apr_04_1539,59.9949199212,MAFE4ImagesEEG,001,203371,
AFNE01.JPG,AFNE01.JPG,AFNE01.JPG,AFNE01.JPG,AFNE01.JPG,AFNE01.JPG,,,,,,,,,,,,,2,0,20,3,,,,,,,,,,,AFSA06.jpg,AFNE14.jpg,AFNE15.jpg,AFSA01.jpg,AFNE15.jpg,FN,3,num_2,32,num_4,0.366868539946,,,2018_Apr_04_1539,59.9949199212,MAFE4ImagesEEG,001,203371,
AFNE01.JPG,AFNE01.JPG,AFNE01.JPG,AFNE01.JPG,AFNE01.JPG,AFNE01.JPG,,,,,,,,,,,,,2,1,21,4,,,,,,,,,,,AFNE18.jpg,AFSA11.jpg,AFNE10.jpg,AFSA05.jpg,AFSA05.jpg,FS,4,num_4,32,num_8,1.90005061263,,,2018_Apr_04_1539,59.9949199212,MAFE4ImagesEEG,001,203371,
AFNE01.JPG,AFNE01.JPG,AFNE01.JPG,AFNE01.JPG,AFNE01.JPG,AFNE01.JPG,,,,,,,,,,,,,2,2,22,1,,,,,,,,,,,AFNE05.jpg,AFSA13.jpg,AFSA14.jpg,AFNE01.jpg,AFNE01.jpg,FN,3,num_4,32,num_6,0.433538029087,,,2018_Apr_04_1539,59.9949199212,MAFE4ImagesEEG,001,203371,
AFNE01.JPG,AFNE01.JPG,AFNE01.JPG,AFNE01.JPG,AFNE01.JPG,AFNE01.JPG,,,,,,,,,,,,,2,3,23,9,,,,,,,,,,,AFSA01.jpg,AFNE11.jpg,AFNE16.jpg,AFSA10.jpg,AFSA01.jpg,FS,4,num_8,32,num_2,0.933466824936,,,2018_Apr_04_1539,59.9949199212,MAFE4ImagesEEG,001,203371,
AFNE01.JPG,AFNE01.JPG,AFNE01.JPG,AFNE01.JPG,AFNE01.JPG,AFNE01.JPG,,,,,,,,,,,,,2,4,24,8,,,,,,,,,,,AFNE06.jpg,AFSA17.jpg,AFNE14.jpg,AFSA15.jpg,AFSA15.jpg,FS,4,num_4,16,num_4,0.56680965214,,,2018_Apr_04_1539,59.9949199212,MAFE4ImagesEEG,001,203371,
AFNE01.JPG,AFNE01.JPG,AFNE01.JPG,AFNE01.JPG,AFNE01.JPG,AFNE01.JPG,,,,,,,,,,,,,2,5,25,2,,,,,,,,,,,AFNE17.jpg,AFSA08.jpg,AFSA03.jpg,AFNE13.jpg,AFSA08.jpg,FS,4,num_6,16,num_6,0.600160112954,,,2018_Apr_04_1539,59.9949199212,MAFE4ImagesEEG,001,203371,
AFNE01.JPG,AFNE01.JPG,AFNE01.JPG,AFNE01.JPG,AFNE01.JPG,AFNE01.JPG,,,,,,,,,,,,,2,6,26,7,,,,,,,,,,,AFSA05.jpg,AFNE07.jpg,AFSA16.jpg,AFNE09.jpg,AFNE07.jpg,FN,3,num_6,16,num_6,1.38343953015,,,2018_Apr_04_1539,59.9949199212,MAFE4ImagesEEG,001,203371,
AFNE01.JPG,AFNE01.JPG,AFNE01.JPG,AFNE01.JPG,AFNE01.JPG,AFNE01.JPG,,,,,,,,,,,,,2,7,27,0,,,,,,,,,,,AFSA05.jpg,AFSA19.jpg,AFNE12.jpg,AFNE05.jpg,AFNE05.jpg,FN,3,num_4,32,num_8,1.41677459539,,,2018_Apr_04_1539,59.9949199212,MAFE4ImagesEEG,001,203371,
AFNE01.JPG,AFNE01.JPG,AFNE01.JPG,AFNE01.JPG,AFNE01.JPG,AFNE01.JPG,,,,,,,,,,,,,2,8,28,5,,,,,,,,,,,AFSA10.jpg,AFSA15.jpg,AFNE12.jpg,AFNE07.jpg,AFNE07.jpg,FN,3,num_4,32,num_2,1.80006081215,,,2018_Apr_04_1539,59.9949199212,MAFE4ImagesEEG,001,203371,
AFNE01.JPG,AFNE01.JPG,AFNE01.JPG,AFNE01.JPG,AFNE01.JPG,AFNE01.JPG,,,,,,,,,,,,,2,9,29,6,,,,,,,,,,,AFNE20.jpg,AFSA17.jpg,AFNE10.jpg,AFSA16.jpg,AFNE20.jpg,FN,3,num_8,16,num_8,0.816810774733,,,2018_Apr_04_1539,59.9949199212,MAFE4ImagesEEG,001,203371,
AFNE01.JPG,AFNE01.JPG,AFNE01.JPG,AFNE01.JPG,AFNE01.JPG,AFNE01.JPG,,,,,,,,,,,,,3,0,30,2,,,,,,,,,,,AFSA12.jpg,AFNE03.jpg,AFSA07.jpg,AFNE11.jpg,AFSA07.jpg,FS,4,num_2,32,num_8,0.88350143272,,,2018_Apr_04_1539,59.9949199212,MAFE4ImagesEEG,001,203371,
AFNE01.JPG,AFNE01.JPG,AFNE01.JPG,AFNE01.JPG,AFNE01.JPG,AFNE01.JPG,,,,,,,,,,,,,3,1,31,9,,,,,,,,,,,AFSA19.jpg,AFNE09.jpg,AFSA12.jpg,AFNE11.jpg,AFNE11.jpg,FN,3,num_4,32,num_6,0.950232183211,,,2018_Apr_04_1539,59.9949199212,MAFE4ImagesEEG,001,203371,
AFNE01.JPG,AFNE01.JPG,AFNE01.JPG,AFNE01.JPG,AFNE01.JPG,AFNE01.JPG,,,,,,,,,,,,,3,2,32,0,,,,,,,,,,,AFSA20.jpg,AFNE09.jpg,AFSA09.jpg,AFNE07.jpg,AFSA20.jpg,FS,4,num_8,32,num_6,0.700269228546,,,2018_Apr_04_1539,59.9949199212,MAFE4ImagesEEG,001,203371,
AFNE01.JPG,AFNE01.JPG,AFNE01.JPG,AFNE01.JPG,AFNE01.JPG,AFNE01.JPG,,,,,,,,,,,,,3,3,33,5,,,,,,,,,,,AFSA19.jpg,AFNE12.jpg,AFNE11.jpg,AFSA06.jpg,AFNE12.jpg,FN,3,num_6,32,num_4,0.683478852734,,,2018_Apr_04_1539,59.9949199212,MAFE4ImagesEEG,001,203371,
AFNE01.JPG,AFNE01.JPG,AFNE01.JPG,AFNE01.JPG,AFNE01.JPG,AFNE01.JPG,,,,,,,,,,,,,3,4,34,1,,,,,,,,,,,AFSA11.jpg,AFNE17.jpg,AFSA17.jpg,AFNE02.jpg,AFSA17.jpg,FS,4,num_2,32,num_8,0.783499123412,,,2018_Apr_04_1539,59.9949199212,MAFE4ImagesEEG,001,203371,
AFNE01.JPG,AFNE01.JPG,AFNE01.JPG,AFNE01.JPG,AFNE01.JPG,AFNE01.JPG,,,,,,,,,,,,,3,5,35,7,,,,,,,,,,,AFSA19.jpg,AFNE07.jpg,AFSA03.jpg,AFNE20.jpg,AFSA03.jpg,FS,4,num_2,32,num_6,0.73348594096,,,2018_Apr_04_1539,59.9949199212,MAFE4ImagesEEG,001,203371,
AFNE01.JPG,AFNE01.JPG,AFNE01.JPG,AFNE01.JPG,AFNE01.JPG,AFNE01.JPG,,,,,,,,,,,,,3,6,36,4,,,,,,,,,,,AFSA18.jpg,AFSA09.jpg,AFNE05.jpg,AFNE18.jpg,AFNE05.jpg,FN,3,num_2,32,num_6,0.666788547533,,,2018_Apr_04_1539,59.9949199212,MAFE4ImagesEEG,001,203371,
AFNE01.JPG,AFNE01.JPG,AFNE01.JPG,AFNE01.JPG,AFNE01.JPG,AFNE01.JPG,,,,,,,,,,,,,3,7,37,3,,,,,,,,,,,AFNE19.jpg,AFSA11.jpg,AFNE01.jpg,AFSA04.jpg,AFSA11.jpg,FS,4,num_6,32,num_8,1.13343808672,,,2018_Apr_04_1539,59.9949199212,MAFE4ImagesEEG,001,203371,
AFNE01.JPG,AFNE01.JPG,AFNE01.JPG,AFNE01.JPG,AFNE01.JPG,AFNE01.JPG,,,,,,,,,,,,,3,8,38,8,,,,,,,,,,,AFSA09.jpg,AFNE18.jpg,AFSA20.jpg,AFNE06.jpg,AFSA20.jpg,FS,4,num_2,32,num_6,1.31664655637,,,2018_Apr_04_1539,59.9949199212,MAFE4ImagesEEG,001,203371,
AFNE01.JPG,AFNE01.JPG,AFNE01.JPG,AFNE01.JPG,AFNE01.JPG,AFNE01.JPG,,,,,,,,,,,,,3,9,39,6,,,,,,,,,,,AFNE10.jpg,AFNE13.jpg,AFSA03.jpg,AFSA05.jpg,AFSA05.jpg,FS,4,num_4,32,num_8,0.916755351005,,,2018_Apr_04_1539,59.9949199212,MAFE4ImagesEEG,001,203371,
AFNE01.JPG,AFNE01.JPG,AFNE01.JPG,AFNE01.JPG,AFNE01.JPG,AFNE01.JPG,,,,,,,,,,,,,4,0,40,1,,,,,,,,,,,AFSA05.jpg,AFNE05.jpg,AFNE18.jpg,AFSA03.jpg,AFSA03.jpg,FS,4,num_4,32,num_6,0.93332185084,,,2018_Apr_04_1539,59.9949199212,MAFE4ImagesEEG,001,203371,
AFNE01.JPG,AFNE01.JPG,AFNE01.JPG,AFNE01.JPG,AFNE01.JPG,AFNE01.JPG,,,,,,,,,,,,,4,1,41,2,,,,,,,,,,,AFSA07.jpg,AFSA01.jpg,AFNE05.jpg,AFNE15.jpg,AFSA01.jpg,FS,4,num_6,16,num_6,0.666664100718,,,2018_Apr_04_1539,59.9949199212,MAFE4ImagesEEG,001,203371,
AFNE01.JPG,AFNE01.JPG,AFNE01.JPG,AFNE01.JPG,AFNE01.JPG,AFNE01.JPG,,,,,,,,,,,,,4,2,42,4,,,,,,,,,,,AFNE04.jpg,AFSA20.jpg,AFSA07.jpg,AFNE06.jpg,AFSA20.jpg,FS,4,num_6,16,num_6,1.31672225078,,,2018_Apr_04_1539,59.9949199212,MAFE4ImagesEEG,001,203371,
AFNE01.JPG,AFNE01.JPG,AFNE01.JPG,AFNE01.JPG,AFNE01.JPG,AFNE01.JPG,,,,,,,,,,,,,4,3,43,8,,,,,,,,,,,AFSA07.jpg,AFSA04.jpg,AFNE13.jpg,AFNE18.jpg,AFSA07.jpg,FS,4,num_8,32,num_4,0.633381315973,,,2018_Apr_04_1539,59.9949199212,MAFE4ImagesEEG,001,203371,
AFNE01.JPG,AFNE01.JPG,AFNE01.JPG,AFNE01.JPG,AFNE01.JPG,AFNE01.JPG,,,,,,,,,,,,,4,4,44,6,,,,,,,,,,,AFSA12.jpg,AFNE14.jpg,AFNE05.jpg,AFSA09.jpg,AFNE14.jpg,FN,3,num_6,16,num_6,0.666682382929,,,2018_Apr_04_1539,59.9949199212,MAFE4ImagesEEG,001,203371,
AFNE01.JPG,AFNE01.JPG,AFNE01.JPG,AFNE01.JPG,AFNE01.JPG,AFNE01.JPG,,,,,,,,,,,,,4,5,45,7,,,,,,,,,,,AFNE19.jpg,AFNE09.jpg,AFSA19.jpg,AFSA04.jpg,AFNE19.jpg,FN,3,num_8,16,num_8,1.20008319977,,,2018_Apr_04_1539,59.9949199212,MAFE4ImagesEEG,001,203371,
AFNE01.JPG,AFNE01.JPG,AFNE01.JPG,AFNE01.JPG,AFNE01.JPG,AFNE01.JPG,,,,,,,,,,,,,4,6,46,3,,,,,,,,,,,AFSA10.jpg,AFNE09.jpg,AFNE04.jpg,AFSA19.jpg,AFSA10.jpg,FS,4,num_8,32,num_2,1.06674486294,,,2018_Apr_04_1539,59.9949199212,MAFE4ImagesEEG,001,203371,
AFNE01.JPG,AFNE01.JPG,AFNE01.JPG,AFNE01.JPG,AFNE01.JPG,AFNE01.JPG,,,,,,,,,,,,,4,7,47,0,,,,,,,,,,,AFSA05.jpg,AFNE01.jpg,AFSA07.jpg,AFNE15.jpg,AFSA07.jpg,FS,4,num_2,16,num_2,0.616828607861,,,2018_Apr_04_1539,59.9949199212,MAFE4ImagesEEG,001,203371,
AFNE01.JPG,AFNE01.JPG,AFNE01.JPG,AFNE01.JPG,AFNE01.JPG,AFNE01.JPG,,,,,,,,,,,,,4,8,48,9,,,,,,,,,,,AFSA10.jpg,AFNE04.jpg,AFSA03.jpg,AFNE01.jpg,AFSA10.jpg,FS,4,num_8,16,num_8,0.550181570463,,,2018_Apr_04_1539,59.9949199212,MAFE4ImagesEEG,001,203371,
AFNE01.JPG,AFNE01.JPG,AFNE01.JPG,AFNE01.JPG,AFNE01.JPG,AFNE01.JPG,,,,,,,,,,,,,4,9,49,5,,,,,,,,,,,AFNE17.jpg,AFSA10.jpg,AFNE20.jpg,AFSA01.jpg,AFNE17.jpg,FN,3,num_8,32,num_4,1.26652271894,,,2018_Apr_04_1539,59.9949199212,MAFE4ImagesEEG,001,203371,
AFNE01.JPG,AFNE01.JPG,AFNE01.JPG,AFNE01.JPG,AFNE01.JPG,AFNE01.JPG,,,,,,,,,,,,,5,0,50,2,,,,,,,,,,,AFSA10.jpg,AFNE18.jpg,AFNE19.jpg,AFSA13.jpg,AFNE18.jpg,FN,3,num_6,32,num_8,0.650095355697,,,2018_Apr_04_1539,59.9949199212,MAFE4ImagesEEG,001,203371,
AFNE01.JPG,AFNE01.JPG,AFNE01.JPG,AFNE01.JPG,AFNE01.JPG,AFNE01.JPG,,,,,,,,,,,,,5,1,51,7,,,,,,,,,,,AFSA18.jpg,AFNE04.jpg,AFNE07.jpg,AFSA07.jpg,AFSA18.jpg,FS,4,num_8,16,num_8,1.08341848967,,,2018_Apr_04_1539,59.9949199212,MAFE4ImagesEEG,001,203371,
AFNE01.JPG,AFNE01.JPG,AFNE01.JPG,AFNE01.JPG,AFNE01.JPG,AFNE01.JPG,,,,,,,,,,,,,5,2,52,8,,,,,,,,,,,AFSA10.jpg,AFNE13.jpg,AFNE07.jpg,AFSA20.jpg,AFNE07.jpg,FN,3,num_2,16,num_2,1.06701973639,,,2018_Apr_04_1539,59.9949199212,MAFE4ImagesEEG,001,203371,
AFNE01.JPG,AFNE01.JPG,AFNE01.JPG,AFNE01.JPG,AFNE01.JPG,AFNE01.JPG,,,,,,,,,,,,,5,3,53,1,,,,,,,,,,,AFSA18.jpg,AFNE19.jpg,AFSA11.jpg,AFNE07.jpg,AFSA11.jpg,FS,4,num_2,32,num_8,0.866816259339,,,2018_Apr_04_1539,59.9949199212,MAFE4ImagesEEG,001,203371,
AFNE01.JPG,AFNE01.JPG,AFNE01.JPG,AFNE01.JPG,AFNE01.JPG,AFNE01.JPG,,,,,,,,,,,,,5,4,54,9,,,,,,,,,,,AFSA06.jpg,AFNE02.jpg,AFSA17.jpg,AFNE16.jpg,AFNE02.jpg,FN,3,num_6,16,num_6,1.30012014892,,,2018_Apr_04_1539,59.9949199212,MAFE4ImagesEEG,001,203371,
AFNE01.JPG,AFNE01.JPG,AFNE01.JPG,AFNE01.JPG,AFNE01.JPG,AFNE01.JPG,,,,,,,,,,,,,5,5,55,4,,,,,,,,,,,AFNE09.jpg,AFSA03.jpg,AFSA06.jpg,AFNE15.jpg,AFSA03.jpg,FS,4,num_6,32,num_4,1.1167413668,,,2018_Apr_04_1539,59.9949199212,MAFE4ImagesEEG,001,203371,
AFNE01.JPG,AFNE01.JPG,AFNE01.JPG,AFNE01.JPG,AFNE01.JPG,AFNE01.JPG,,,,,,,,,,,,,5,6,56,0,,,,,,,,,,,AFSA18.jpg,AFSA10.jpg,AFNE19.jpg,AFNE04.jpg,AFSA18.jpg,FS,4,num_8,32,num_6,0.683465702459,,,2018_Apr_04_1539,59.9949199212,MAFE4ImagesEEG,001,203371,
AFNE01.JPG,AFNE01.JPG,AFNE01.JPG,AFNE01.JPG,AFNE01.JPG,AFNE01.JPG,,,,,,,,,,,,,5,7,57,5,,,,,,,,,,,AFNE02.jpg,AFSA13.jpg,AFSA04.jpg,AFNE01.jpg,AFNE02.jpg,FN,3,num_8,16,num_8,0.500196933863,,,2018_Apr_04_1539,59.9949199212,MAFE4ImagesEEG,001,203371,
AFNE01.JPG,AFNE01.JPG,AFNE01.JPG,AFNE01.JPG,AFNE01.JPG,AFNE01.JPG,,,,,,,,,,,,,5,8,58,6,,,,,,,,,,,AFSA09.jpg,AFSA01.jpg,AFNE02.jpg,AFNE10.jpg,AFSA01.jpg,FS,4,num_6,32,num_4,0.500031111646,,,2018_Apr_04_1539,59.9949199212,MAFE4ImagesEEG,001,203371,
AFNE01.JPG,AFNE01.JPG,AFNE01.JPG,AFNE01.JPG,AFNE01.JPG,AFNE01.JPG,,,,,,,,,,,,,5,9,59,3,,,,,,,,,,,AFSA10.jpg,AFNE02.jpg,AFNE15.jpg,AFSA09.jpg,AFSA10.jpg,FS,4,num_8,32,num_2,0.916779085761,,,2018_Apr_04_1539,59.9949199212,MAFE4ImagesEEG,001,203371,
,,,,,,,,,,,,,,,,,,,,,,,,,,,,,,,,,,,,,,,,,,,space,18.8651019085,2018_Apr_04_1539,59.9949199212,MAFE4ImagesEEG,001,203371,
AFNE01.JPG,AFNE01.JPG,AFNE01.JPG,AFNE01.JPG,AFNE01.JPG,AFNE01.JPG,,,,,,,,,,,,,,,,,0,0,0,8,,,,,,,AMNE17.jpg,AMSA07.jpg,AMNE18.jpg,AMSA09.jpg,AMNE17.jpg,MN,1,num_8,32,num_6,1.40007755475,,,2018_Apr_04_1539,59.9949199212,MAFE4ImagesEEG,001,203371,
AFNE01.JPG,AFNE01.JPG,AFNE01.JPG,AFNE01.JPG,AFNE01.JPG,AFNE01.JPG,,,,,,,,,,,,,,,,,0,1,1,0,,,,,,,AMNE15.jpg,AMSA01.jpg,AMSA08.jpg,AMNE07.jpg,AMNE15.jpg,MN,1,num_8,32,num_2,1.2001322729,,,2018_Apr_04_1539,59.9949199212,MAFE4ImagesEEG,001,203371,
AFNE01.JPG,AFNE01.JPG,AFNE01.JPG,AFNE01.JPG,AFNE01.JPG,AFNE01.JPG,,,,,,,,,,,,,,,,,0,2,2,9,,,,,,,AMSA14.jpg,AMNE04.jpg,AMSA09.jpg,AMNE07.jpg,AMNE04.jpg,MN,1,num_6,32,num_4,0.366808241,,,2018_Apr_04_1539,59.9949199212,MAFE4ImagesEEG,001,203371,
AFNE01.JPG,AFNE01.JPG,AFNE01.JPG,AFNE01.JPG,AFNE01.JPG,AFNE01.JPG,,,,,,,,,,,,,,,,,0,3,3,4,,,,,,,AMNE08.jpg,AMSA02.jpg,AMNE13.jpg,AMSA17.jpg,AMNE08.jpg,MN,1,num_8,16,num_8,0.666788226808,,,2018_Apr_04_1539,59.9949199212,MAFE4ImagesEEG,001,203371,
AFNE01.JPG,AFNE01.JPG,AFNE01.JPG,AFNE01.JPG,AFNE01.JPG,AFNE01.JPG,,,,,,,,,,,,,,,,,0,4,4,2,,,,,,,AMNE06.jpg,AMSA12.jpg,AMSA03.jpg,AMNE17.jpg,AMNE17.jpg,MN,1,num_4,32,num_6,0.616789157037,,,2018_Apr_04_1539,59.9949199212,MAFE4ImagesEEG,001,203371,
AFNE01.JPG,AFNE01.JPG,AFNE01.JPG,AFNE01.JPG,AFNE01.JPG,AFNE01.JPG,,,,,,,,,,,,,,,,,0,5,5,7,,,,,,,AMSA04.jpg,AMSA14.jpg,AMNE16.jpg,AMNE05.jpg,AMNE16.jpg,MN,1,num_2,32,num_6,1.06678142725,,,2018_Apr_04_1539,59.9949199212,MAFE4ImagesEEG,001,203371,
AFNE01.JPG,AFNE01.JPG,AFNE01.JPG,AFNE01.JPG,AFNE01.JPG,AFNE01.JPG,,,,,,,,,,,,,,,,,0,6,6,3,,,,,,,AMNE14.jpg,AMSA04.jpg,AMNE18.jpg,AMSA06.jpg,AMSA06.jpg,MS,2,num_4,32,num_6,0.716776712332,,,2018_Apr_04_1539,59.9949199212,MAFE4ImagesEEG,001,203371,
AFNE01.JPG,AFNE01.JPG,AFNE01.JPG,AFNE01.JPG,AFNE01.JPG,AFNE01.JPG,,,,,,,,,,,,,,,,,0,7,7,6,,,,,,,AMSA03.jpg,AMNE11.jpg,AMSA14.jpg,AMNE13.jpg,AMSA03.jpg,MS,2,num_8,32,num_4,0.650174578303,,,2018_Apr_04_1539,59.9949199212,MAFE4ImagesEEG,001,203371,
AFNE01.JPG,AFNE01.JPG,AFNE01.JPG,AFNE01.JPG,AFNE01.JPG,AFNE01.JPG,,,,,,,,,,,,,,,,,0,8,8,1,,,,,,,AMSA08.jpg,AMSA18.jpg,AMNE14.jpg,AMNE19.jpg,AMSA08.jpg,MS,2,num_8,32,num_6,0.716818729066,,,2018_Apr_04_1539,59.9949199212,MAFE4ImagesEEG,001,203371,
AFNE01.JPG,AFNE01.JPG,AFNE01.JPG,AFNE01.JPG,AFNE01.JPG,AFNE01.JPG,,,,,,,,,,,,,,,,,0,9,9,5,,,,,,,AMNE13.jpg,AMSA10.jpg,AMSA08.jpg,AMNE11.jpg,AMNE11.jpg,MN,1,num_4,32,num_8,1.10016813152,,,2018_Apr_04_1539,59.9949199212,MAFE4ImagesEEG,001,203371,
AFNE01.JPG,AFNE01.JPG,AFNE01.JPG,AFNE01.JPG,AFNE01.JPG,AFNE01.JPG,,,,,,,,,,,,,,,,,1,0,10,8,,,,,,,AMNE18.jpg,AMNE09.jpg,AMSA04.jpg,AMSA12.jpg,AMSA12.jpg,MS,2,num_4,32,num_2,1.23341826501,,,2018_Apr_04_1539,59.9949199212,MAFE4ImagesEEG,001,203371,
AFNE01.JPG,AFNE01.JPG,AFNE01.JPG,AFNE01.JPG,AFNE01.JPG,AFNE01.JPG,,,,,,,,,,,,,,,,,1,1,11,6,,,,,,,AMNE17.jpg,AMSA02.jpg,AMSA03.jpg,AMNE11.jpg,AMNE11.jpg,MN,1,num_4,32,num_6,0.600178395165,,,2018_Apr_04_1539,59.9949199212,MAFE4ImagesEEG,001,203371,
AFNE01.JPG,AFNE01.JPG,AFNE01.JPG,AFNE01.JPG,AFNE01.JPG,AFNE01.JPG,,,,,,,,,,,,,,,,,1,2,12,4,,,,,,,AMNE17.jpg,AMNE07.jpg,AMSA04.jpg,AMSA02.jpg,AMSA04.jpg,MS,2,num_2,16,num_2,0.500188594684,,,2018_Apr_04_1539,59.9949199212,MAFE4ImagesEEG,001,203371,
AFNE01.JPG,AFNE01.JPG,AFNE01.JPG,AFNE01.JPG,AFNE01.JPG,AFNE01.JPG,,,,,,,,,,,,,,,,,1,3,13,3,,,,,,,AMSA17.jpg,AMSA03.jpg,AMNE02.jpg,AMNE14.jpg,AMNE14.jpg,MN,1,num_4,16,num_4,0.450172846322,,,2018_Apr_04_1539,59.9949199212,MAFE4ImagesEEG,001,203371,
AFNE01.JPG,AFNE01.JPG,AFNE01.JPG,AFNE01.JPG,AFNE01.JPG,AFNE01.JPG,,,,,,,,,,,,,,,,,1,4,14,2,,,,,,,AMSA09.jpg,AMNE18.jpg,AMNE09.jpg,AMSA15.jpg,AMSA09.jpg,MS,2,num_8,16,num_8,0.900105779758,,,2018_Apr_04_1539,59.9949199212,MAFE4ImagesEEG,001,203371,
AFNE01.JPG,AFNE01.JPG,AFNE01.JPG,AFNE01.JPG,AFNE01.JPG,AFNE01.JPG,,,,,,,,,,,,,,,,,1,5,15,1,,,,,,,AMNE13.jpg,AMSA03.jpg,AMNE02.jpg,AMSA15.jpg,AMNE13.jpg,MN,1,num_8,16,num_8,0.800132337026,,,2018_Apr_04_1539,59.9949199212,MAFE4ImagesEEG,001,203371,
AFNE01.JPG,AFNE01.JPG,AFNE01.JPG,AFNE01.JPG,AFNE01.JPG,AFNE01.JPG,,,,,,,,,,,,,,,,,1,6,16,0,,,,,,,AMSA02.jpg,AMNE04.jpg,AMNE12.jpg,AMSA16.jpg,AMSA16.jpg,MS,2,num_4,16,num_4,1.23335411726,,,2018_Apr_04_1539,59.9949199212,MAFE4ImagesEEG,001,203371,
AFNE01.JPG,AFNE01.JPG,AFNE01.JPG,AFNE01.JPG,AFNE01.JPG,AFNE01.JPG,,,,,,,,,,,,,,,,,1,7,17,7,,,,,,,AMNE02.jpg,AMSA09.jpg,AMNE14.jpg,AMSA01.jpg,AMSA09.jpg,MS,2,num_6,16,num_6,0.483495082124,,,2018_Apr_04_1539,59.9949199212,MAFE4ImagesEEG,001,203371,
AFNE01.JPG,AFNE01.JPG,AFNE01.JPG,AFNE01.JPG,AFNE01.JPG,AFNE01.JPG,,,,,,,,,,,,,,,,,1,8,18,9,,,,,,,AMNE14.jpg,AMSA05.jpg,AMNE08.jpg,AMSA03.jpg,AMSA03.jpg,MS,2,num_4,16,num_4,1.28346576646,,,2018_Apr_04_1539,59.9949199212,MAFE4ImagesEEG,001,203371,
AFNE01.JPG,AFNE01.JPG,AFNE01.JPG,AFNE01.JPG,AFNE01.JPG,AFNE01.JPG,,,,,,,,,,,,,,,,,1,9,19,5,,,,,,,AMSA14.jpg,AMNE04.jpg,AMSA04.jpg,AMNE14.jpg,AMNE04.jpg,MN,1,num_6,16,num_6,0.833468043827,,,2018_Apr_04_1539,59.9949199212,MAFE4ImagesEEG,001,203371,
AFNE01.JPG,AFNE01.JPG,AFNE01.JPG,AFNE01.JPG,AFNE01.JPG,AFNE01.JPG,,,,,,,,,,,,,,,,,2,0,20,3,,,,,,,AMNE13.jpg,AMNE12.jpg,AMSA07.jpg,AMSA13.jpg,AMSA07.jpg,MS,2,num_2,32,num_8,0.566863215645,,,2018_Apr_04_1539,59.9949199212,MAFE4ImagesEEG,001,203371,
AFNE01.JPG,AFNE01.JPG,AFNE01.JPG,AFNE01.JPG,AFNE01.JPG,AFNE01.JPG,,,,,,,,,,,,,,,,,2,1,21,6,,,,,,,AMNE17.jpg,AMSA13.jpg,AMNE01.jpg,AMSA01.jpg,AMNE17.jpg,MN,1,num_8,16,num_8,0.783458710299,,,2018_Apr_04_1539,59.9949199212,MAFE4ImagesEEG,001,203371,
AFNE01.JPG,AFNE01.JPG,AFNE01.JPG,AFNE01.JPG,AFNE01.JPG,AFNE01.JPG,,,,,,,,,,,,,,,,,2,2,22,4,,,,,,,AMSA16.jpg,AMNE03.jpg,AMNE19.jpg,AMSA02.jpg,AMNE03.jpg,MN,1,num_6,16,num_6,0.766766160028,,,2018_Apr_04_1539,59.9949199212,MAFE4ImagesEEG,001,203371,
AFNE01.JPG,AFNE01.JPG,AFNE01.JPG,AFNE01.JPG,AFNE01.JPG,AFNE01.JPG,,,,,,,,,,,,,,,,,2,3,23,7,,,,,,,AMSA15.jpg,AMSA20.jpg,AMNE19.jpg,AMNE01.jpg,AMSA15.jpg,MS,2,num_8,32,num_6,0.700088973041,,,2018_Apr_04_1539,59.9949199212,MAFE4ImagesEEG,001,203371,
AFNE01.JPG,AFNE01.JPG,AFNE01.JPG,AFNE01.JPG,AFNE01.JPG,AFNE01.JPG,,,,,,,,,,,,,,,,,2,4,24,0,,,,,,,AMSA04.jpg,AMNE13.jpg,AMSA14.jpg,AMNE07.jpg,AMNE13.jpg,MN,1,num_6,32,num_2,0.633430068265,,,2018_Apr_04_1539,59.9949199212,MAFE4ImagesEEG,001,203371,
AFNE01.JPG,AFNE01.JPG,AFNE01.JPG,AFNE01.JPG,AFNE01.JPG,AFNE01.JPG,,,,,,,,,,,,,,,,,2,5,25,5,,,,,,,AMSA12.jpg,AMSA17.jpg,AMNE02.jpg,AMNE01.jpg,AMSA12.jpg,MS,2,num_8,32,num_4,0.466779438546,,,2018_Apr_04_1539,59.9949199212,MAFE4ImagesEEG,001,203371,
AFNE01.JPG,AFNE01.JPG,AFNE01.JPG,AFNE01.JPG,AFNE01.JPG,AFNE01.JPG,,,,,,,,,,,,,,,,,2,6,26,9,,,,,,,AMSA05.jpg,AMNE18.jpg,AMSA03.jpg,AMNE06.jpg,AMNE18.jpg,MN,1,num_6,32,num_8,0.43349120114,,,2018_Apr_04_1539,59.9949199212,MAFE4ImagesEEG,001,203371,
AFNE01.JPG,AFNE01.JPG,AFNE01.JPG,AFNE01.JPG,AFNE01.JPG,AFNE01.JPG,,,,,,,,,,,,,,,,,2,7,27,2,,,,,,,AMSA03.jpg,AMSA14.jpg,AMNE19.jpg,AMNE10.jpg,AMNE19.jpg,MN,1,num_2,32,num_6,0.350190422847,,,2018_Apr_04_1539,59.9949199212,MAFE4ImagesEEG,001,203371,
AFNE01.JPG,AFNE01.JPG,AFNE01.JPG,AFNE01.JPG,AFNE01.JPG,AFNE01.JPG,,,,,,,,,,,,,,,,,2,8,28,8,,,,,,,AMSA19.jpg,AMNE12.jpg,AMNE02.jpg,AMSA01.jpg,AMSA01.jpg,MS,2,num_4,16,num_4,0.583484561881,,,2018_Apr_04_1539,59.9949199212,MAFE4ImagesEEG,001,203371,
AFNE01.JPG,AFNE01.JPG,AFNE01.JPG,AFNE01.JPG,AFNE01.JPG,AFNE01.JPG,,,,,,,,,,,,,,,,,2,9,29,1,,,,,,,AMSA14.jpg,AMNE04.jpg,AMSA10.jpg,AMNE16.jpg,AMSA10.jpg,MS,2,num_2,16,num_2,1.25010055176,,,2018_Apr_04_1539,59.9949199212,MAFE4ImagesEEG,001,203371,
AFNE01.JPG,AFNE01.JPG,AFNE01.JPG,AFNE01.JPG,AFNE01.JPG,AFNE01.JPG,,,,,,,,,,,,,,,,,3,0,30,6,,,,,,,AMNE11.jpg,AMNE20.jpg,AMSA05.jpg,AMSA17.jpg,AMNE20.jpg,MN,1,num_6,32,num_8,1.03344251297,,,2018_Apr_04_1539,59.9949199212,MAFE4ImagesEEG,001,203371,
AFNE01.JPG,AFNE01.JPG,AFNE01.JPG,AFNE01.JPG,AFNE01.JPG,AFNE01.JPG,,,,,,,,,,,,,,,,,3,1,31,0,,,,,,,AMSA06.jpg,AMNE03.jpg,AMSA11.jpg,AMNE14.jpg,AMSA11.jpg,MS,2,num_2,32,num_6,0.600181923364,,,2018_Apr_04_1539,59.9949199212,MAFE4ImagesEEG,001,203371,
AFNE01.JPG,AFNE01.JPG,AFNE01.JPG,AFNE01.JPG,AFNE01.JPG,AFNE01.JPG,,,,,,,,,,,,,,,,,3,2,32,7,,,,,,,AMNE15.jpg,AMSA04.jpg,AMSA02.jpg,AMNE18.jpg,AMSA04.jpg,MS,2,num_6,16,num_6,0.783458068734,,,2018_Apr_04_1539,59.9949199212,MAFE4ImagesEEG,001,203371,
AFNE01.JPG,AFNE01.JPG,AFNE01.JPG,AFNE01.JPG,AFNE01.JPG,AFNE01.JPG,,,,,,,,,,,,,,,,,3,3,33,4,,,,,,,AMNE18.jpg,AMSA12.jpg,AMSA18.jpg,AMNE04.jpg,AMSA18.jpg,MS,2,num_2,32,num_4,1.6167169906,,,2018_Apr_04_1539,59.9949199212,MAFE4ImagesEEG,001,203371,
AFNE01.JPG,AFNE01.JPG,AFNE01.JPG,AFNE01.JPG,AFNE01.JPG,AFNE01.JPG,,,,,,,,,,,,,,,,,3,4,34,8,,,,,,,AMSA19.jpg,AMNE11.jpg,AMSA05.jpg,AMNE06.jpg,AMSA19.jpg,MS,2,num_8,16,num_8,1.26677546138,,,2018_Apr_04_1539,59.9949199212,MAFE4ImagesEEG,001,203371,
AFNE01.JPG,AFNE01.JPG,AFNE01.JPG,AFNE01.JPG,AFNE01.JPG,AFNE01.JPG,,,,,,,,,,,,,,,,,3,5,35,3,,,,,,,AMSA06.jpg,AMNE15.jpg,AMNE06.jpg,AMSA03.jpg,AMNE06.jpg,MN,1,num_2,32,num_8,0.966766608995,,,2018_Apr_04_1539,59.9949199212,MAFE4ImagesEEG,001,203371,
AFNE01.JPG,AFNE01.JPG,AFNE01.JPG,AFNE01.JPG,AFNE01.JPG,AFNE01.JPG,,,,,,,,,,,,,,,,,3,6,36,5,,,,,,,AMNE08.jpg,AMSA17.jpg,AMNE14.jpg,AMSA16.jpg,AMNE14.jpg,MN,1,num_2,16,num_2,0.616778572556,,,2018_Apr_04_1539,59.9949199212,MAFE4ImagesEEG,001,203371,
AFNE01.JPG,AFNE01.JPG,AFNE01.JPG,AFNE01.JPG,AFNE01.JPG,AFNE01.JPG,,,,,,,,,,,,,,,,,3,7,37,1,,,,,,,AMSA07.jpg,AMNE11.jpg,AMSA20.jpg,AMNE04.jpg,AMNE04.jpg,MN,1,num_4,16,num_4,1.10010173847,,,2018_Apr_04_1539,59.9949199212,MAFE4ImagesEEG,001,203371,
AFNE01.JPG,AFNE01.JPG,AFNE01.JPG,AFNE01.JPG,AFNE01.JPG,AFNE01.JPG,,,,,,,,,,,,,,,,,3,8,38,2,,,,,,,AMNE13.jpg,AMSA04.jpg,AMNE04.jpg,AMSA01.jpg,AMNE04.jpg,MN,1,num_2,32,num_8,0.800132978475,,,2018_Apr_04_1539,59.9949199212,MAFE4ImagesEEG,001,203371,
AFNE01.JPG,AFNE01.JPG,AFNE01.JPG,AFNE01.JPG,AFNE01.JPG,AFNE01.JPG,,,,,,,,,,,,,,,,,3,9,39,9,,,,,,,AMNE05.jpg,AMSA15.jpg,AMSA14.jpg,AMNE02.jpg,AMSA15.jpg,MS,2,num_6,16,num_6,0.466808625846,,,2018_Apr_04_1539,59.9949199212,MAFE4ImagesEEG,001,203371,
AFNE01.JPG,AFNE01.JPG,AFNE01.JPG,AFNE01.JPG,AFNE01.JPG,AFNE01.JPG,,,,,,,,,,,,,,,,,4,0,40,0,,,,,,,AMSA20.jpg,AMSA18.jpg,AMNE04.jpg,AMNE07.jpg,AMNE07.jpg,MN,1,num_4,32,num_8,1.18340796931,,,2018_Apr_04_1539,59.9949199212,MAFE4ImagesEEG,001,203371,
AFNE01.JPG,AFNE01.JPG,AFNE01.JPG,AFNE01.JPG,AFNE01.JPG,AFNE01.JPG,,,,,,,,,,,,,,,,,4,1,41,2,,,,,,,AMSA12.jpg,AMNE15.jpg,AMSA08.jpg,AMNE04.jpg,AMNE15.jpg,MN,1,num_6,16,num_6,0.566828255076,,,2018_Apr_04_1539,59.9949199212,MAFE4ImagesEEG,001,203371,
AFNE01.JPG,AFNE01.JPG,AFNE01.JPG,AFNE01.JPG,AFNE01.JPG,AFNE01.JPG,,,,,,,,,,,,,,,,,4,2,42,1,,,,,,,AMSA10.jpg,AMNE14.jpg,AMNE03.jpg,AMSA17.jpg,AMSA17.jpg,MS,2,num_4,16,num_4,0.516855806578,,,2018_Apr_04_1539,59.9949199212,MAFE4ImagesEEG,001,203371,
AFNE01.JPG,AFNE01.JPG,AFNE01.JPG,AFNE01.JPG,AFNE01.JPG,AFNE01.JPG,,,,,,,,,,,,,,,,,4,3,43,5,,,,,,,AMSA17.jpg,AMSA20.jpg,AMNE12.jpg,AMNE04.jpg,AMNE04.jpg,MN,1,num_4,16,num_4,0.783429522999,,,2018_Apr_04_1539,59.9949199212,MAFE4ImagesEEG,001,203371,
AFNE01.JPG,AFNE01.JPG,AFNE01.JPG,AFNE01.JPG,AFNE01.JPG,AFNE01.JPG,,,,,,,,,,,,,,,,,4,4,44,8,,,,,,,AMSA18.jpg,AMNE17.jpg,AMNE09.jpg,AMSA13.jpg,AMSA13.jpg,MS,2,num_4,32,num_8,1.00012829574,,,2018_Apr_04_1539,59.9949199212,MAFE4ImagesEEG,001,203371,
AFNE01.JPG,AFNE01.JPG,AFNE01.JPG,AFNE01.JPG,AFNE01.JPG,AFNE01.JPG,,,,,,,,,,,,,,,,,4,5,45,4,,,,,,,AMSA19.jpg,AMNE03.jpg,AMSA01.jpg,AMNE12.jpg,AMSA19.jpg,MS,2,num_8,32,num_6,0.483535495237,,,2018_Apr_04_1539,59.9949199212,MAFE4ImagesEEG,001,203371,
AFNE01.JPG,AFNE01.JPG,AFNE01.JPG,AFNE01.JPG,AFNE01.JPG,AFNE01.JPG,,,,,,,,,,,,,,,,,4,6,46,3,,,,,,,AMNE07.jpg,AMNE03.jpg,AMSA20.jpg,AMSA05.jpg,AMNE03.jpg,MN,1,num_6,32,num_4,1.41676176584,,,2018_Apr_04_1539,59.9949199212,MAFE4ImagesEEG,001,203371,
AFNE01.JPG,AFNE01.JPG,AFNE01.JPG,AFNE01.JPG,AFNE01.JPG,AFNE01.JPG,,,,,,,,,,,,,,,,,4,7,47,9,,,,,,,AMSA19.jpg,AMNE07.jpg,AMSA05.jpg,AMNE04.jpg,AMNE07.jpg,MN,1,num_6,16,num_6,0.933481258224,,,2018_Apr_04_1539,59.9949199212,MAFE4ImagesEEG,001,203371,
AFNE01.JPG,AFNE01.JPG,AFNE01.JPG,AFNE01.JPG,AFNE01.JPG,AFNE01.JPG,,,,,,,,,,,,,,,,,4,8,48,7,,,,,,,AMSA10.jpg,AMNE11.jpg,AMSA12.jpg,AMNE01.jpg,AMSA10.jpg,MS,2,num_8,16,num_8,1.33344559197,,,2018_Apr_04_1539,59.9949199212,MAFE4ImagesEEG,001,203371,
AFNE01.JPG,AFNE01.JPG,AFNE01.JPG,AFNE01.JPG,AFNE01.JPG,AFNE01.JPG,,,,,,,,,,,,,,,,,4,9,49,6,,,,,,,AMSA03.jpg,AMSA02.jpg,AMNE12.jpg,AMNE06.jpg,AMSA02.jpg,MS,2,num_6,16,num_6,3.14996353199,,,2018_Apr_04_1539,59.9949199212,MAFE4ImagesEEG,001,203371,
AFNE01.JPG,AFNE01.JPG,AFNE01.JPG,AFNE01.JPG,AFNE01.JPG,AFNE01.JPG,,,,,,,,,,,,,,,,,5,0,50,9,,,,,,,AMSA11.jpg,AMNE14.jpg,AMSA01.jpg,AMNE17.jpg,AMSA11.jpg,MS,2,num_8,32,num_4,0.566792332334,,,2018_Apr_04_1539,59.9949199212,MAFE4ImagesEEG,001,203371,
AFNE01.JPG,AFNE01.JPG,AFNE01.JPG,AFNE01.JPG,AFNE01.JPG,AFNE01.JPG,,,,,,,,,,,,,,,,,5,1,51,6,,,,,,,AMNE20.jpg,AMNE14.jpg,AMSA12.jpg,AMSA17.jpg,AMNE14.jpg,MN,1,num_6,32,num_2,1.30010443262,,,2018_Apr_04_1539,59.9949199212,MAFE4ImagesEEG,001,203371,
AFNE01.JPG,AFNE01.JPG,AFNE01.JPG,AFNE01.JPG,AFNE01.JPG,AFNE01.JPG,,,,,,,,,,,,,,,,,5,2,52,7,,,,,,,AMNE04.jpg,AMNE16.jpg,AMSA20.jpg,AMSA14.jpg,AMNE16.jpg,MN,1,num_6,16,num_6,1.08339924528,,,2018_Apr_04_1539,59.9949199212,MAFE4ImagesEEG,001,203371,
AFNE01.JPG,AFNE01.JPG,AFNE01.JPG,AFNE01.JPG,AFNE01.JPG,AFNE01.JPG,,,,,,,,,,,,,,,,,5,3,53,3,,,,,,,AMNE18.jpg,AMSA05.jpg,AMSA18.jpg,AMNE20.jpg,AMSA18.jpg,MS,2,num_2,32,num_8,0.80015126057,,,2018_Apr_04_1539,59.9949199212,MAFE4ImagesEEG,001,203371,
AFNE01.JPG,AFNE01.JPG,AFNE01.JPG,AFNE01.JPG,AFNE01.JPG,AFNE01.JPG,,,,,,,,,,,,,,,,,5,4,54,5,,,,,,,AMNE11.jpg,AMSA04.jpg,AMSA16.jpg,AMNE04.jpg,AMSA16.jpg,MS,2,num_2,32,num_6,1.11661050527,,,2018_Apr_04_1539,59.9949199212,MAFE4ImagesEEG,001,203371,
AFNE01.JPG,AFNE01.JPG,AFNE01.JPG,AFNE01.JPG,AFNE01.JPG,AFNE01.JPG,,,,,,,,,,,,,,,,,5,5,55,1,,,,,,,AMNE19.jpg,AMNE01.jpg,AMSA03.jpg,AMSA09.jpg,AMSA03.jpg,MS,2,num_2,32,num_4,1.21690340422,,,2018_Apr_04_1539,59.9949199212,MAFE4ImagesEEG,001,203371,
AFNE01.JPG,AFNE01.JPG,AFNE01.JPG,AFNE01.JPG,AFNE01.JPG,AFNE01.JPG,,,,,,,,,,,,,,,,,5,6,56,4,,,,,,,AMSA11.jpg,AMSA08.jpg,AMNE15.jpg,AMNE13.jpg,AMNE15.jpg,MN,1,num_2,32,num_6,0.73332268477,,,2018_Apr_04_1539,59.9949199212,MAFE4ImagesEEG,001,203371,
AFNE01.JPG,AFNE01.JPG,AFNE01.JPG,AFNE01.JPG,AFNE01.JPG,AFNE01.JPG,,,,,,,,,,,,,,,,,5,7,57,0,,,,,,,AMNE11.jpg,AMSA12.jpg,AMSA04.jpg,AMNE12.jpg,AMSA12.jpg,MS,2,num_6,32,num_2,1.50007826032,,,2018_Apr_04_1539,59.9949199212,MAFE4ImagesEEG,001,203371,
AFNE01.JPG,AFNE01.JPG,AFNE01.JPG,AFNE01.JPG,AFNE01.JPG,AFNE01.JPG,,,,,,,,,,,,,,,,,5,8,58,2,,,,,,,AMSA13.jpg,AMNE06.jpg,AMSA02.jpg,AMNE14.jpg,AMNE14.jpg,MN,1,num_4,16,num_4,1.1168010243,,,2018_Apr_04_1539,59.9949199212,MAFE4ImagesEEG,001,203371,
AFNE01.JPG,AFNE01.JPG,AFNE01.JPG,AFNE01.JPG,AFNE01.JPG,AFNE01.JPG,,,,,,,,,,,,,,,,,5,9,59,8,,,,,,,AMNE05.jpg,AMNE18.jpg,AMSA04.jpg,AMSA02.jpg,AMSA04.jpg,MS,2,num_2,32,num_8,0.683542359038,,,2018_Apr_04_1539,59.9949199212,MAFE4ImagesEEG,001,203371,
,,,,,,,,,,,,,,,,,,,,,,,,,,,,,,,,,,,,,,,,,,,space,12.515851893,2018_Apr_04_1539,59.9949199212,MAFE4ImagesEEG,001,203371,
AFNE01.JPG,AFNE01.JPG,AFNE01.JPG,AFNE01.JPG,AFNE01.JPG,AFNE01.JPG,,,,,,,,,,,,,,,,,,,,,0,0,0,5,,,AFNE06.jpg,AFSA05.jpg,AFSA12.jpg,AFNE19.jpg,AFNE06.jpg,FN,3,num_8,32,num_6,0.950152639765,,,2018_Apr_04_1539,59.9949199212,MAFE4ImagesEEG,001,203371,
AFNE01.JPG,AFNE01.JPG,AFNE01.JPG,AFNE01.JPG,AFNE01.JPG,AFNE01.JPG,,,,,,,,,,,,,,,,,,,,,0,1,1,3,,,AFSA19.jpg,AFNE17.jpg,AFNE16.jpg,AFSA12.jpg,AFNE17.jpg,FN,3,num_6,32,num_4,1.300102829,,,2018_Apr_04_1539,59.9949199212,MAFE4ImagesEEG,001,203371,
AFNE01.JPG,AFNE01.JPG,AFNE01.JPG,AFNE01.JPG,AFNE01.JPG,AFNE01.JPG,,,,,,,,,,,,,,,,,,,,,0,2,2,0,,,AFNE16.jpg,AFSA16.jpg,AFNE04.jpg,AFSA18.jpg,AFSA18.jpg,FS,4,num_4,32,num_8,0.916776199127,,,2018_Apr_04_1539,59.9949199212,MAFE4ImagesEEG,001,203371,
AFNE01.JPG,AFNE01.JPG,AFNE01.JPG,AFNE01.JPG,AFNE01.JPG,AFNE01.JPG,,,,,,,,,,,,,,,,,,,,,0,3,3,1,,,AFSA05.jpg,AFNE07.jpg,AFNE01.jpg,AFSA03.jpg,AFSA05.jpg,FS,4,num_8,16,num_8,0.749964558287,,,2018_Apr_04_1539,59.9949199212,MAFE4ImagesEEG,001,203371,
AFNE01.JPG,AFNE01.JPG,AFNE01.JPG,AFNE01.JPG,AFNE01.JPG,AFNE01.JPG,,,,,,,,,,,,,,,,,,,,,0,4,4,8,,,AFNE02.jpg,AFNE05.jpg,AFSA07.jpg,AFSA17.jpg,AFSA17.jpg,FS,4,num_4,32,num_2,1.96668129228,,,2018_Apr_04_1539,59.9949199212,MAFE4ImagesEEG,001,203371,
AFNE01.JPG,AFNE01.JPG,AFNE01.JPG,AFNE01.JPG,AFNE01.JPG,AFNE01.JPG,,,,,,,,,,,,,,,,,,,,,0,5,5,2,,,AFSA18.jpg,AFSA02.jpg,AFNE13.jpg,AFNE16.jpg,AFSA02.jpg,FS,4,num_6,32,num_4,1.73332011886,,,2018_Apr_04_1539,59.9949199212,MAFE4ImagesEEG,001,203371,
AFNE01.JPG,AFNE01.JPG,AFNE01.JPG,AFNE01.JPG,AFNE01.JPG,AFNE01.JPG,,,,,,,,,,,,,,,,,,,,,0,6,6,6,,,AFNE01.jpg,AFSA09.jpg,AFNE06.jpg,AFSA01.jpg,AFNE06.jpg,FN,3,num_2,32,num_6,1.18345800461,,,2018_Apr_04_1539,59.9949199212,MAFE4ImagesEEG,001,203371,
AFNE01.JPG,AFNE01.JPG,AFNE01.JPG,AFNE01.JPG,AFNE01.JPG,AFNE01.JPG,,,,,,,,,,,,,,,,,,,,,0,7,7,7,,,AFNE14.jpg,AFSA01.jpg,AFNE11.jpg,AFSA19.jpg,AFSA01.jpg,FS,4,num_6,32,num_2,3.09993976518,,,2018_Apr_04_1539,59.9949199212,MAFE4ImagesEEG,001,203371,
AFNE01.JPG,AFNE01.JPG,AFNE01.JPG,AFNE01.JPG,AFNE01.JPG,AFNE01.JPG,,,,,,,,,,,,,,,,,,,,,0,8,8,9,,,AFSA20.jpg,AFNE07.jpg,AFNE03.jpg,AFSA05.jpg,AFNE03.jpg,FN,3,num_2,32,num_4,1.51671500201,,,2018_Apr_04_1539,59.9949199212,MAFE4ImagesEEG,001,203371,
AFNE01.JPG,AFNE01.JPG,AFNE01.JPG,AFNE01.JPG,AFNE01.JPG,AFNE01.JPG,,,,,,,,,,,,,,,,,,,,,0,9,9,4,,,AFNE14.jpg,AFNE02.jpg,AFSA03.jpg,AFSA16.jpg,AFNE14.jpg,FN,3,num_8,16,num_8,1.3499790557,,,2018_Apr_04_1539,59.9949199212,MAFE4ImagesEEG,001,203371,
AFNE01.JPG,AFNE01.JPG,AFNE01.JPG,AFNE01.JPG,AFNE01.JPG,AFNE01.JPG,,,,,,,,,,,,,,,,,,,,,1,0,10,0,,,AFNE03.jpg,AFNE15.jpg,AFSA17.jpg,AFSA10.jpg,AFNE15.jpg,FN,3,num_6,32,num_4,0.983461083844,,,2018_Apr_04_1539,59.9949199212,MAFE4ImagesEEG,001,203371,
AFNE01.JPG,AFNE01.JPG,AFNE01.JPG,AFNE01.JPG,AFNE01.JPG,AFNE01.JPG,,,,,,,,,,,,,,,,,,,,,1,1,11,8,,,AFNE19.jpg,AFSA06.jpg,AFSA11.jpg,AFNE07.jpg,AFSA06.jpg,FS,4,num_6,32,num_8,1.40006761183,,,2018_Apr_04_1539,59.9949199212,MAFE4ImagesEEG,001,203371,
AFNE01.JPG,AFNE01.JPG,AFNE01.JPG,AFNE01.JPG,AFNE01.JPG,AFNE01.JPG,,,,,,,,,,,,,,,,,,,,,1,2,12,7,,,AFNE01.jpg,AFSA07.jpg,AFSA04.jpg,AFNE04.jpg,AFSA07.jpg,FS,4,num_6,16,num_6,1.13344321854,,,2018_Apr_04_1539,59.9949199212,MAFE4ImagesEEG,001,203371,
AFNE01.JPG,AFNE01.JPG,AFNE01.JPG,AFNE01.JPG,AFNE01.JPG,AFNE01.JPG,,,,,,,,,,,,,,,,,,,,,1,3,13,9,,,AFSA15.jpg,AFNE08.jpg,AFNE05.jpg,AFSA03.jpg,AFSA03.jpg,FS,4,num_4,16,num_4,1.10012226575,,,2018_Apr_04_1539,59.9949199212,MAFE4ImagesEEG,001,203371,
AFNE01.JPG,AFNE01.JPG,AFNE01.JPG,AFNE01.JPG,AFNE01.JPG,AFNE01.JPG,,,,,,,,,,,,,,,,,,,,,1,4,14,2,,,AFNE19.jpg,AFSA03.jpg,AFSA19.jpg,AFNE09.jpg,AFNE09.jpg,FN,3,num_4,32,num_8,0.633481065859,,,2018_Apr_04_1539,59.9949199212,MAFE4ImagesEEG,001,203371,
AFNE01.JPG,AFNE01.JPG,AFNE01.JPG,AFNE01.JPG,AFNE01.JPG,AFNE01.JPG,,,,,,,,,,,,,,,,,,,,,1,5,15,3,,,AFNE19.jpg,AFSA02.jpg,AFSA18.jpg,AFNE12.jpg,AFSA18.jpg,FS,4,num_2,32,num_6,0.400001218892,,,2018_Apr_04_1539,59.9949199212,MAFE4ImagesEEG,001,203371,
AFNE01.JPG,AFNE01.JPG,AFNE01.JPG,AFNE01.JPG,AFNE01.JPG,AFNE01.JPG,,,,,,,,,,,,,,,,,,,,,1,6,16,4,,,AFNE07.jpg,AFNE02.jpg,AFSA08.jpg,AFSA19.jpg,AFSA08.jpg,FS,4,num_2,32,num_4,0.550183815649,,,2018_Apr_04_1539,59.9949199212,MAFE4ImagesEEG,001,203371,
AFNE01.JPG,AFNE01.JPG,AFNE01.JPG,AFNE01.JPG,AFNE01.JPG,AFNE01.JPG,,,,,,,,,,,,,,,,,,,,,1,7,17,5,,,AFSA15.jpg,AFNE11.jpg,AFSA07.jpg,AFNE12.jpg,AFNE12.jpg,FN,3,num_4,16,num_4,1.23346862115,,,2018_Apr_04_1539,59.9949199212,MAFE4ImagesEEG,001,203371,
AFNE01.JPG,AFNE01.JPG,AFNE01.JPG,AFNE01.JPG,AFNE01.JPG,AFNE01.JPG,,,,,,,,,,,,,,,,,,,,,1,8,18,1,,,AFSA11.jpg,AFSA06.jpg,AFNE19.jpg,AFNE16.jpg,AFNE16.jpg,FN,3,num_4,32,num_8,3.0833081553,,,2018_Apr_04_1539,59.9949199212,MAFE4ImagesEEG,001,203371,
AFNE01.JPG,AFNE01.JPG,AFNE01.JPG,AFNE01.JPG,AFNE01.JPG,AFNE01.JPG,,,,,,,,,,,,,,,,,,,,,1,9,19,6,,,AFSA09.jpg,AFNE16.jpg,AFSA15.jpg,AFNE04.jpg,AFSA15.jpg,FS,4,num_2,16,num_2,1.23358793615,,,2018_Apr_04_1539,59.9949199212,MAFE4ImagesEEG,001,203371,
AFNE01.JPG,AFNE01.JPG,AFNE01.JPG,AFNE01.JPG,AFNE01.JPG,AFNE01.JPG,,,,,,,,,,,,,,,,,,,,,2,0,20,9,,,AFNE07.jpg,AFSA11.jpg,AFNE05.jpg,AFSA13.jpg,AFSA13.jpg,FS,4,num_4,16,num_4,0.516926689888,,,2018_Apr_04_1539,59.9949199212,MAFE4ImagesEEG,001,203371,
AFNE01.JPG,AFNE01.JPG,AFNE01.JPG,AFNE01.JPG,AFNE01.JPG,AFNE01.JPG,,,,,,,,,,,,,,,,,,,,,2,1,21,2,,,AFNE16.jpg,AFSA01.jpg,AFNE15.jpg,AFSA08.jpg,AFNE16.jpg,FN,3,num_8,32,num_4,0.483612793381,,,2018_Apr_04_1539,59.9949199212,MAFE4ImagesEEG,001,203371,
AFNE01.JPG,AFNE01.JPG,AFNE01.JPG,AFNE01.JPG,AFNE01.JPG,AFNE01.JPG,,,,,,,,,,,,,,,,,,,,,2,2,22,1,,,AFSA01.jpg,AFNE08.jpg,AFNE10.jpg,AFSA07.jpg,AFSA01.jpg,FS,4,num_8,16,num_8,0.450274199946,,,2018_Apr_04_1539,59.9949199212,MAFE4ImagesEEG,001,203371,
AFNE01.JPG,AFNE01.JPG,AFNE01.JPG,AFNE01.JPG,AFNE01.JPG,AFNE01.JPG,,,,,,,,,,,,,,,,,,,,,2,3,23,8,,,AFSA05.jpg,AFNE17.jpg,AFNE16.jpg,AFSA14.jpg,AFSA14.jpg,FS,4,num_4,32,num_2,0.983454027562,,,2018_Apr_04_1539,59.9949199212,MAFE4ImagesEEG,001,203371,
AFNE01.JPG,AFNE01.JPG,AFNE01.JPG,AFNE01.JPG,AFNE01.JPG,AFNE01.JPG,,,,,,,,,,,,,,,,,,,,,2,4,24,6,,,AFSA04.jpg,AFNE16.jpg,AFSA10.jpg,AFNE11.jpg,AFSA04.jpg,FS,4,num_8,32,num_6,2.93358389486,,,2018_Apr_04_1539,59.9949199212,MAFE4ImagesEEG,001,203371,
AFNE01.JPG,AFNE01.JPG,AFNE01.JPG,AFNE01.JPG,AFNE01.JPG,AFNE01.JPG,,,,,,,,,,,,,,,,,,,,,2,5,25,3,,,AFNE07.jpg,AFSA15.jpg,AFNE06.jpg,AFSA09.jpg,AFSA09.jpg,FS,4,num_4,32,num_8,0.700058182119,,,2018_Apr_04_1539,59.9949199212,MAFE4ImagesEEG,001,203371,
AFNE01.JPG,AFNE01.JPG,AFNE01.JPG,AFNE01.JPG,AFNE01.JPG,AFNE01.JPG,,,,,,,,,,,,,,,,,,,,,2,6,26,7,,,AFSA07.jpg,AFNE01.jpg,AFNE09.jpg,AFSA16.jpg,AFNE09.jpg,FN,3,num_2,32,num_4,0.483488346566,,,2018_Apr_04_1539,59.9949199212,MAFE4ImagesEEG,001,203371,
AFNE01.JPG,AFNE01.JPG,AFNE01.JPG,AFNE01.JPG,AFNE01.JPG,AFNE01.JPG,,,,,,,,,,,,,,,,,,,,,2,7,27,5,,,AFNE17.jpg,AFSA17.jpg,AFSA07.jpg,AFNE08.jpg,AFSA17.jpg,FS,4,num_6,16,num_6,0.950161941233,,,2018_Apr_04_1539,59.9949199212,MAFE4ImagesEEG,001,203371,
AFNE01.JPG,AFNE01.JPG,AFNE01.JPG,AFNE01.JPG,AFNE01.JPG,AFNE01.JPG,,,,,,,,,,,,,,,,,,,,,2,8,28,4,,,AFSA13.jpg,AFSA03.jpg,AFNE05.jpg,AFNE12.jpg,AFSA13.jpg,FS,4,num_8,16,num_8,0.850145198638,,,2018_Apr_04_1539,59.9949199212,MAFE4ImagesEEG,001,203371,
AFNE01.JPG,AFNE01.JPG,AFNE01.JPG,AFNE01.JPG,AFNE01.JPG,AFNE01.JPG,,,,,,,,,,,,,,,,,,,,,2,9,29,0,,,AFNE16.jpg,AFSA11.jpg,AFSA17.jpg,AFNE07.jpg,AFSA17.jpg,FS,4,num_2,32,num_8,0.833449761616,,,2018_Apr_04_1539,59.9949199212,MAFE4ImagesEEG,001,203371,
AFNE01.JPG,AFNE01.JPG,AFNE01.JPG,AFNE01.JPG,AFNE01.JPG,AFNE01.JPG,,,,,,,,,,,,,,,,,,,,,3,0,30,1,,,AFNE14.jpg,AFSA01.jpg,AFNE11.jpg,AFSA18.jpg,AFNE11.jpg,FN,3,num_2,32,num_6,0.916797688697,,,2018_Apr_04_1539,59.9949199212,MAFE4ImagesEEG,001,203371,
AFNE01.JPG,AFNE01.JPG,AFNE01.JPG,AFNE01.JPG,AFNE01.JPG,AFNE01.JPG,,,,,,,,,,,,,,,,,,,,,3,1,31,4,,,AFNE09.jpg,AFSA12.jpg,AFNE03.jpg,AFSA15.jpg,AFSA15.jpg,FS,4,num_4,16,num_4,0.666787264636,,,2018_Apr_04_1539,59.9949199212,MAFE4ImagesEEG,001,203371,
AFNE01.JPG,AFNE01.JPG,AFNE01.JPG,AFNE01.JPG,AFNE01.JPG,AFNE01.JPG,,,,,,,,,,,,,,,,,,,,,3,2,32,6,,,AFSA11.jpg,AFNE12.jpg,AFSA04.jpg,AFNE05.jpg,AFNE12.jpg,FN,3,num_6,32,num_8,0.933463938418,,,2018_Apr_04_1539,59.9949199212,MAFE4ImagesEEG,001,203371,
AFNE01.JPG,AFNE01.JPG,AFNE01.JPG,AFNE01.JPG,AFNE01.JPG,AFNE01.JPG,,,,,,,,,,,,,,,,,,,,,3,3,33,7,,,AFNE11.jpg,AFSA15.jpg,AFNE06.jpg,AFSA01.jpg,AFNE06.jpg,FN,3,num_2,32,num_6,2.06670605345,,,2018_Apr_04_1539,59.9949199212,MAFE4ImagesEEG,001,203371,
AFNE01.JPG,AFNE01.JPG,AFNE01.JPG,AFNE01.JPG,AFNE01.JPG,AFNE01.JPG,,,,,,,,,,,,,,,,,,,,,3,4,34,3,,,AFNE19.jpg,AFSA14.jpg,AFSA16.jpg,AFNE13.jpg,AFSA14.jpg,FS,4,num_6,32,num_8,1.75007425109,,,2018_Apr_04_1539,59.9949199212,MAFE4ImagesEEG,001,203371,
AFNE01.JPG,AFNE01.JPG,AFNE01.JPG,AFNE01.JPG,AFNE01.JPG,AFNE01.JPG,,,,,,,,,,,,,,,,,,,,,3,5,35,9,,,AFSA12.jpg,AFNE18.jpg,AFSA08.jpg,AFNE05.jpg,AFNE05.jpg,FN,3,num_4,16,num_4,1.03345534252,,,2018_Apr_04_1539,59.9949199212,MAFE4ImagesEEG,001,203371,
AFNE01.JPG,AFNE01.JPG,AFNE01.JPG,AFNE01.JPG,AFNE01.JPG,AFNE01.JPG,,,,,,,,,,,,,,,,,,,,,3,6,36,8,,,AFNE05.jpg,AFSA15.jpg,AFSA07.jpg,AFNE06.jpg,AFNE06.jpg,FN,3,num_4,32,num_6,0.58346660051,,,2018_Apr_04_1539,59.9949199212,MAFE4ImagesEEG,001,203371,
AFNE01.JPG,AFNE01.JPG,AFNE01.JPG,AFNE01.JPG,AFNE01.JPG,AFNE01.JPG,,,,,,,,,,,,,,,,,,,,,3,7,37,2,,,AFNE13.jpg,AFNE16.jpg,AFSA03.jpg,AFSA17.jpg,AFSA17.jpg,FS,4,num_4,32,num_2,1.58345312939,,,2018_Apr_04_1539,59.9949199212,MAFE4ImagesEEG,001,203371,
AFNE01.JPG,AFNE01.JPG,AFNE01.JPG,AFNE01.JPG,AFNE01.JPG,AFNE01.JPG,,,,,,,,,,,,,,,,,,,,,3,8,38,0,,,AFSA16.jpg,AFNE14.jpg,AFNE19.jpg,AFSA17.jpg,AFNE14.jpg,FN,3,num_6,16,num_6,3.66663106461,,,2018_Apr_04_1539,59.9949199212,MAFE4ImagesEEG,001,203371,
