IPosition2,IPosition3,IPosition1,IPosition6,IPosition4,IPosition5,TrialsM1.thisRepN,TrialsM1.thisTrialN,TrialsM1.thisN,TrialsM1.thisIndex,TrialsF1.thisRepN,TrialsF1.thisTrialN,TrialsF1.thisN,TrialsF1.thisIndex,TrialsM2.thisRepN,TrialsM2.thisTrialN,TrialsM2.thisN,TrialsM2.thisIndex,TrialsF2.thisRepN,TrialsF2.thisTrialN,TrialsF2.thisN,TrialsF2.thisIndex,TrialsM3.thisRepN,TrialsM3.thisTrialN,TrialsM3.thisN,TrialsM3.thisIndex,TrialsF3.thisRepN,TrialsF3.thisTrialN,TrialsF3.thisN,TrialsF3.thisIndex,InstrKey_resp.keys,InstrKey_resp.rt,Image0 _Position,Image1 _Position,Image2 _Position,Image3 _Position,Center_image,condition,code,correct_answer,accuracy,Key_Resp.keys,Key_Resp.rt,BreakKey_resp.keys,BreakKey_resp.rt,date,frameRate,expName,session,participant,
,,,,,,,,,,,,,,,,,,,,,,,,,,,,,,space,27.2818039176,,,,,,,,,,,,,,2017_Feb_06_1050,59.9976907628,MAFE4ImagesEEG,001,00002,
AFNE22.JPG,AFSA24.JPG,AFSA22.JPG,AFNE25.JPG,AFNE24.JPG,AFSA25.JPG,0,0,0,6,,,,,,,,,,,,,,,,,,,,,,,AMSA11.jpg,AMSA03.jpg,AMNE20.jpg,AMNE14.jpg,AMSA11.jpg,MS,2,num_8,48,None,,,,2017_Feb_06_1050,59.9976907628,MAFE4ImagesEEG,001,00002,
AFSA25.JPG,AFNE24.JPG,AFSA24.JPG,AFNE21.JPG,AFSA21.JPG,AFNE25.JPG,0,1,1,2,,,,,,,,,,,,,,,,,,,,,,,AMSA02.jpg,AMNE11.jpg,AMNE08.jpg,AMSA08.jpg,AMNE11.jpg,MN,1,num_6,32,num_2,2.36676436407,,,2017_Feb_06_1050,59.9976907628,MAFE4ImagesEEG,001,00002,
AMSA21.JPG,AMNE23.JPG,AMNE21.JPG,AMSA25.JPG,AMNE25.JPG,AMSA23.JPG,0,2,2,5,,,,,,,,,,,,,,,,,,,,,,,AMSA15.jpg,AMNE14.jpg,AMSA12.jpg,AMNE01.jpg,AMNE14.jpg,MN,1,num_6,32,num_2,1.78323120973,,,2017_Feb_06_1050,59.9976907628,MAFE4ImagesEEG,001,00002,
AMNE22.JPG,AMSA24.JPG,AMSA22.JPG,AMNE25.JPG,AMNE24.JPG,AMSA25.JPG,0,3,3,7,,,,,,,,,,,,,,,,,,,,,,,AMSA05.jpg,AMNE20.jpg,AMSA13.jpg,AMNE05.jpg,AMNE05.jpg,MN,1,num_4,16,num_4,2.50001731981,,,2017_Feb_06_1050,59.9976907628,MAFE4ImagesEEG,001,00002,
AFNE23.JPG,AFNE24.JPG,AFNE22.JPG,AFSA24.JPG,AFSA22.JPG,AFSA23.JPG,0,4,4,8,,,,,,,,,,,,,,,,,,,,,,,AMNE03.jpg,AMNE05.jpg,AMSA06.jpg,AMSA09.jpg,AMNE05.jpg,MN,1,num_6,48,None,,,,2017_Feb_06_1050,59.9976907628,MAFE4ImagesEEG,001,00002,
AMSA21.JPG,AMNE22.JPG,AMNE21.JPG,AMSA23.JPG,AMSA22.JPG,AMNE23.JPG,0,5,5,1,,,,,,,,,,,,,,,,,,,,,,,AMNE11.jpg,AMSA03.jpg,AMNE15.jpg,AMSA20.jpg,AMNE15.jpg,MN,1,num_2,48,None,,,,2017_Feb_06_1050,59.9976907628,MAFE4ImagesEEG,001,00002,
AFSA21.JPG,AFNE23.JPG,AFNE21.JPG,AFSA25.JPG,AFNE25.JPG,AFSA23.JPG,0,6,6,4,,,,,,,,,,,,,,,,,,,,,,,AMSA02.jpg,AMNE01.jpg,AMNE12.jpg,AMSA07.jpg,AMSA07.jpg,MS,2,num_4,16,num_4,1.75009942916,,,2017_Feb_06_1050,59.9976907628,MAFE4ImagesEEG,001,00002,
AFSA21.JPG,AFNE22.JPG,AFNE21.JPG,AFSA23.JPG,AFSA22.JPG,AFNE23.JPG,0,7,7,0,,,,,,,,,,,,,,,,,,,,,,,AMNE11.jpg,AMSA10.jpg,AMNE02.jpg,AMSA05.jpg,AMNE11.jpg,MN,1,num_8,32,num_2,2.43334834394,,,2017_Feb_06_1050,59.9976907628,MAFE4ImagesEEG,001,00002,
AMNE23.JPG,AMNE24.JPG,AMNE22.JPG,AMSA24.JPG,AMSA22.JPG,AMSA23.JPG,0,8,8,9,,,,,,,,,,,,,,,,,,,,,,,AMNE02.jpg,AMNE08.jpg,AMSA16.jpg,AMSA12.jpg,AMSA12.jpg,MS,2,num_4,16,num_4,2.88330042548,,,2017_Feb_06_1050,59.9976907628,MAFE4ImagesEEG,001,00002,
AMSA25.JPG,AMNE24.JPG,AMSA24.JPG,AMNE26.JPG,AMSA21.JPG,AMNE25.JPG,0,9,9,3,,,,,,,,,,,,,,,,,,,,,,,AMSA08.jpg,AMNE10.jpg,AMSA10.jpg,AMNE13.jpg,AMSA10.jpg,MS,2,num_2,48,None,,,,2017_Feb_06_1050,59.9976907628,MAFE4ImagesEEG,001,00002,
AFNE22.JPG,AFSA24.JPG,AFSA22.JPG,AFNE25.JPG,AFNE24.JPG,AFSA25.JPG,,,,,0,0,0,6,,,,,,,,,,,,,,,,,,,AFSA16.jpg,AFSA18.jpg,AFNE15.jpg,AFNE09.jpg,AFNE15.jpg,FN,3,num_2,48,None,,,,2017_Feb_06_1050,59.9976907628,MAFE4ImagesEEG,001,00002,
AFNE23.JPG,AFNE24.JPG,AFNE22.JPG,AFSA24.JPG,AFSA22.JPG,AFSA23.JPG,,,,,0,1,1,8,,,,,,,,,,,,,,,,,,,AFSA11.jpg,AFNE06.jpg,AFSA19.jpg,AFNE10.jpg,AFSA11.jpg,FS,4,num_8,48,None,,,,2017_Feb_06_1050,59.9976907628,MAFE4ImagesEEG,001,00002,
AFSA21.JPG,AFNE22.JPG,AFNE21.JPG,AFSA23.JPG,AFSA22.JPG,AFNE23.JPG,,,,,0,2,2,0,,,,,,,,,,,,,,,,,,,AFSA18.jpg,AFNE17.jpg,AFSA12.jpg,AFNE10.jpg,AFNE17.jpg,FN,3,num_6,32,num_4,1.76669194107,,,2017_Feb_06_1050,59.9976907628,MAFE4ImagesEEG,001,00002,
AMSA25.JPG,AMNE24.JPG,AMSA24.JPG,AMNE26.JPG,AMSA21.JPG,AMNE25.JPG,,,,,0,3,3,3,,,,,,,,,,,,,,,,,,,AFSA01.jpg,AFNE16.jpg,AFSA05.jpg,AFNE04.jpg,AFNE16.jpg,FN,3,num_6,48,None,,,,2017_Feb_06_1050,59.9976907628,MAFE4ImagesEEG,001,00002,
AMNE23.JPG,AMNE24.JPG,AMNE22.JPG,AMSA24.JPG,AMSA22.JPG,AMSA23.JPG,,,,,0,4,4,9,,,,,,,,,,,,,,,,,,,AFNE17.jpg,AFSA06.jpg,AFSA19.jpg,AFNE04.jpg,AFSA19.jpg,FS,4,num_2,48,None,,,,2017_Feb_06_1050,59.9976907628,MAFE4ImagesEEG,001,00002,
AMSA21.JPG,AMNE23.JPG,AMNE21.JPG,AMSA25.JPG,AMNE25.JPG,AMSA23.JPG,,,,,0,5,5,5,,,,,,,,,,,,,,,,,,,AFNE18.jpg,AFNE15.jpg,AFSA06.jpg,AFSA08.jpg,AFNE15.jpg,FN,3,num_6,32,num_2,3.31657788577,,,2017_Feb_06_1050,59.9976907628,MAFE4ImagesEEG,001,00002,
AMNE22.JPG,AMSA24.JPG,AMSA22.JPG,AMNE25.JPG,AMNE24.JPG,AMSA25.JPG,,,,,0,6,6,7,,,,,,,,,,,,,,,,,,,AFSA07.jpg,AFNE05.jpg,AFSA01.jpg,AFNE19.jpg,AFSA01.jpg,FS,4,num_2,48,None,,,,2017_Feb_06_1050,59.9976907628,MAFE4ImagesEEG,001,00002,
AMSA21.JPG,AMNE22.JPG,AMNE21.JPG,AMSA23.JPG,AMSA22.JPG,AMNE23.JPG,,,,,0,7,7,1,,,,,,,,,,,,,,,,,,,AFNE18.jpg,AFSA01.jpg,AFSA15.jpg,AFNE08.jpg,AFNE18.jpg,FN,3,num_8,48,None,,,,2017_Feb_06_1050,59.9976907628,MAFE4ImagesEEG,001,00002,
AFSA21.JPG,AFNE23.JPG,AFNE21.JPG,AFSA25.JPG,AFNE25.JPG,AFSA23.JPG,,,,,0,8,8,4,,,,,,,,,,,,,,,,,,,AFSA13.jpg,AFSA19.jpg,AFNE15.jpg,AFNE10.jpg,AFSA19.jpg,FS,4,num_6,32,num_2,1.65019443259,,,2017_Feb_06_1050,59.9976907628,MAFE4ImagesEEG,001,00002,
AFSA25.JPG,AFNE24.JPG,AFSA24.JPG,AFNE21.JPG,AFSA21.JPG,AFNE25.JPG,,,,,0,9,9,2,,,,,,,,,,,,,,,,,,,AFSA14.jpg,AFSA16.jpg,AFNE11.jpg,AFNE15.jpg,AFNE11.jpg,FN,3,num_2,48,None,,,,2017_Feb_06_1050,59.9976907628,MAFE4ImagesEEG,001,00002,
AMNE23.JPG,AMNE24.JPG,AMNE22.JPG,AMSA24.JPG,AMSA22.JPG,AMSA23.JPG,,,,,,,,,0,0,0,9,,,,,,,,,,,,,,,AMNE05.jpg,AMNE06.jpg,AMSA06.jpg,AMSA01.jpg,AMNE06.jpg,MN,1,num_6,32,num_2,1.65003598714,,,2017_Feb_06_1050,59.9976907628,MAFE4ImagesEEG,001,00002,
AFSA25.JPG,AFNE24.JPG,AFSA24.JPG,AFNE21.JPG,AFSA21.JPG,AFNE25.JPG,,,,,,,,,0,1,1,2,,,,,,,,,,,,,,,AMNE17.jpg,AMSA13.jpg,AMSA11.jpg,AMNE20.jpg,AMNE20.jpg,MN,1,num_4,16,num_4,1.95007300051,,,2017_Feb_06_1050,59.9976907628,MAFE4ImagesEEG,001,00002,
AMSA25.JPG,AMNE24.JPG,AMSA24.JPG,AMNE26.JPG,AMSA21.JPG,AMNE25.JPG,,,,,,,,,0,2,2,3,,,,,,,,,,,,,,,AMNE17.jpg,AMSA04.jpg,AMNE08.jpg,AMSA01.jpg,AMSA01.jpg,MS,2,num_4,16,num_4,1.76668777131,,,2017_Feb_06_1050,59.9976907628,MAFE4ImagesEEG,001,00002,
AFSA21.JPG,AFNE22.JPG,AFNE21.JPG,AFSA23.JPG,AFSA22.JPG,AFNE23.JPG,,,,,,,,,0,3,3,0,,,,,,,,,,,,,,,AMNE20.jpg,AMSA02.jpg,AMSA17.jpg,AMNE05.jpg,AMNE20.jpg,MN,1,num_8,48,None,,,,2017_Feb_06_1050,59.9976907628,MAFE4ImagesEEG,001,00002,
AFSA21.JPG,AFNE23.JPG,AFNE21.JPG,AFSA25.JPG,AFNE25.JPG,AFSA23.JPG,,,,,,,,,0,4,4,4,,,,,,,,,,,,,,,AMSA10.jpg,AMNE14.jpg,AMNE09.jpg,AMSA05.jpg,AMNE14.jpg,MN,1,num_6,32,num_2,1.20010379143,,,2017_Feb_06_1050,59.9976907628,MAFE4ImagesEEG,001,00002,
AMNE22.JPG,AMSA24.JPG,AMSA22.JPG,AMNE25.JPG,AMNE24.JPG,AMSA25.JPG,,,,,,,,,0,5,5,7,,,,,,,,,,,,,,,AMNE06.jpg,AMNE08.jpg,AMSA06.jpg,AMSA07.jpg,AMNE08.jpg,MN,1,num_6,32,num_2,2.1000227083,,,2017_Feb_06_1050,59.9976907628,MAFE4ImagesEEG,001,00002,
AFNE22.JPG,AFSA24.JPG,AFSA22.JPG,AFNE25.JPG,AFNE24.JPG,AFSA25.JPG,,,,,,,,,0,6,6,6,,,,,,,,,,,,,,,AMSA12.jpg,AMSA02.jpg,AMNE11.jpg,AMNE15.jpg,AMSA02.jpg,MS,2,num_6,32,num_2,1.96671009483,,,2017_Feb_06_1050,59.9976907628,MAFE4ImagesEEG,001,00002,
AMSA21.JPG,AMNE23.JPG,AMNE21.JPG,AMSA25.JPG,AMNE25.JPG,AMSA23.JPG,,,,,,,,,0,7,7,5,,,,,,,,,,,,,,,AMSA20.jpg,AMSA03.jpg,AMNE05.jpg,AMNE12.jpg,AMSA03.jpg,MS,2,num_6,32,num_2,1.90006036311,,,2017_Feb_06_1050,59.9976907628,MAFE4ImagesEEG,001,00002,
AMSA21.JPG,AMNE22.JPG,AMNE21.JPG,AMSA23.JPG,AMSA22.JPG,AMNE23.JPG,,,,,,,,,0,8,8,1,,,,,,,,,,,,,,,AMSA19.jpg,AMNE03.jpg,AMNE14.jpg,AMSA20.jpg,AMNE14.jpg,MN,1,num_2,48,None,,,,2017_Feb_06_1050,59.9976907628,MAFE4ImagesEEG,001,00002,
AFNE23.JPG,AFNE24.JPG,AFNE22.JPG,AFSA24.JPG,AFSA22.JPG,AFSA23.JPG,,,,,,,,,0,9,9,8,,,,,,,,,,,,,,,AMNE06.jpg,AMSA05.jpg,AMNE10.jpg,AMSA18.jpg,AMSA18.jpg,MS,2,num_4,16,num_4,1.23311689799,,,2017_Feb_06_1050,59.9976907628,MAFE4ImagesEEG,001,00002,
AFNE22.JPG,AFSA24.JPG,AFSA22.JPG,AFNE25.JPG,AFNE24.JPG,AFSA25.JPG,,,,,,,,,,,,,0,0,0,6,,,,,,,,,,,AFNE02.jpg,AFNE15.jpg,AFSA02.jpg,AFSA14.jpg,AFSA02.jpg,FS,4,num_2,48,None,,,,2017_Feb_06_1050,59.9976907628,MAFE4ImagesEEG,001,00002,
AMNE22.JPG,AMSA24.JPG,AMSA22.JPG,AMNE25.JPG,AMNE24.JPG,AMSA25.JPG,,,,,,,,,,,,,0,1,1,7,,,,,,,,,,,AFNE17.jpg,AFNE03.jpg,AFSA15.jpg,AFSA20.jpg,AFSA15.jpg,FS,4,num_2,48,None,,,,2017_Feb_06_1050,59.9976907628,MAFE4ImagesEEG,001,00002,
AMSA21.JPG,AMNE22.JPG,AMNE21.JPG,AMSA23.JPG,AMSA22.JPG,AMNE23.JPG,,,,,,,,,,,,,0,2,2,1,,,,,,,,,,,AFSA08.jpg,AFNE01.jpg,AFSA05.jpg,AFNE11.jpg,AFNE01.jpg,FN,3,num_6,32,num_2,1.58340100944,,,2017_Feb_06_1050,59.9976907628,MAFE4ImagesEEG,001,00002,
AFSA25.JPG,AFNE24.JPG,AFSA24.JPG,AFNE21.JPG,AFSA21.JPG,AFNE25.JPG,,,,,,,,,,,,,0,3,3,2,,,,,,,,,,,AFSA01.jpg,AFSA07.jpg,AFNE17.jpg,AFNE07.jpg,AFNE07.jpg,FN,3,num_4,32,num_2,1.03342750249,,,2017_Feb_06_1050,59.9976907628,MAFE4ImagesEEG,001,00002,
AFNE23.JPG,AFNE24.JPG,AFNE22.JPG,AFSA24.JPG,AFSA22.JPG,AFSA23.JPG,,,,,,,,,,,,,0,4,4,8,,,,,,,,,,,AFNE20.jpg,AFSA18.jpg,AFNE04.jpg,AFSA12.jpg,AFNE04.jpg,FN,3,num_2,48,None,,,,2017_Feb_06_1050,59.9976907628,MAFE4ImagesEEG,001,00002,
AFSA21.JPG,AFNE23.JPG,AFNE21.JPG,AFSA25.JPG,AFNE25.JPG,AFSA23.JPG,,,,,,,,,,,,,0,5,5,4,,,,,,,,,,,AFNE14.jpg,AFSA12.jpg,AFSA11.jpg,AFNE19.jpg,AFNE19.jpg,FN,3,num_4,16,num_4,1.51675512665,,,2017_Feb_06_1050,59.9976907628,MAFE4ImagesEEG,001,00002,
AFSA21.JPG,AFNE22.JPG,AFNE21.JPG,AFSA23.JPG,AFSA22.JPG,AFNE23.JPG,,,,,,,,,,,,,0,6,6,0,,,,,,,,,,,AFSA04.jpg,AFNE09.jpg,AFSA01.jpg,AFNE18.jpg,AFSA04.jpg,FS,4,num_8,48,None,,,,2017_Feb_06_1050,59.9976907628,MAFE4ImagesEEG,001,00002,
AMSA25.JPG,AMNE24.JPG,AMSA24.JPG,AMNE26.JPG,AMSA21.JPG,AMNE25.JPG,,,,,,,,,,,,,0,7,7,3,,,,,,,,,,,AFNE17.jpg,AFSA18.jpg,AFSA14.jpg,AFNE01.jpg,AFSA14.jpg,FS,4,num_2,48,None,,,,2017_Feb_06_1050,59.9976907628,MAFE4ImagesEEG,001,00002,
AMSA21.JPG,AMNE23.JPG,AMNE21.JPG,AMSA25.JPG,AMNE25.JPG,AMSA23.JPG,,,,,,,,,,,,,0,8,8,5,,,,,,,,,,,AFSA03.jpg,AFSA09.jpg,AFNE20.jpg,AFNE04.jpg,AFSA09.jpg,FS,4,num_6,48,None,,,,2017_Feb_06_1050,59.9976907628,MAFE4ImagesEEG,001,00002,
AMNE23.JPG,AMNE24.JPG,AMNE22.JPG,AMSA24.JPG,AMSA22.JPG,AMSA23.JPG,,,,,,,,,,,,,0,9,9,9,,,,,,,,,,,AFSA17.jpg,AFNE13.jpg,AFNE05.jpg,AFSA07.jpg,AFSA17.jpg,FS,4,num_8,48,None,,,,2017_Feb_06_1050,59.9976907628,MAFE4ImagesEEG,001,00002,
AFSA21.JPG,AFNE23.JPG,AFNE21.JPG,AFSA25.JPG,AFNE25.JPG,AFSA23.JPG,,,,,,,,,,,,,,,,,0,0,0,4,,,,,,,AMNE15.jpg,AMSA01.jpg,AMSA14.jpg,AMNE20.jpg,AMSA14.jpg,MS,2,num_2,48,None,,,,2017_Feb_06_1050,59.9976907628,MAFE4ImagesEEG,001,00002,
AFSA21.JPG,AFNE22.JPG,AFNE21.JPG,AFSA23.JPG,AFSA22.JPG,AFNE23.JPG,,,,,,,,,,,,,,,,,0,1,1,0,,,,,,,AMSA14.jpg,AMNE18.jpg,AMNE17.jpg,AMSA19.jpg,AMSA19.jpg,MS,2,num_4,16,num_4,1.70010026335,,,2017_Feb_06_1050,59.9976907628,MAFE4ImagesEEG,001,00002,
AFNE22.JPG,AFSA24.JPG,AFSA22.JPG,AFNE25.JPG,AFNE24.JPG,AFSA25.JPG,,,,,,,,,,,,,,,,,0,2,2,6,,,,,,,AMSA09.jpg,AMNE14.jpg,AMNE04.jpg,AMSA03.jpg,AMSA09.jpg,MS,2,num_8,32,num_2,1.38343770197,,,2017_Feb_06_1050,59.9976907628,MAFE4ImagesEEG,001,00002,
AMSA25.JPG,AMNE24.JPG,AMSA24.JPG,AMNE26.JPG,AMSA21.JPG,AMNE25.JPG,,,,,,,,,,,,,,,,,0,3,3,3,,,,,,,AMNE14.jpg,AMNE06.jpg,AMSA14.jpg,AMSA05.jpg,AMSA05.jpg,MS,2,num_4,16,num_4,2.06663786434,,,2017_Feb_06_1050,59.9976907628,MAFE4ImagesEEG,001,00002,
AMNE23.JPG,AMNE24.JPG,AMNE22.JPG,AMSA24.JPG,AMSA22.JPG,AMSA23.JPG,,,,,,,,,,,,,,,,,0,4,4,9,,,,,,,AMSA02.jpg,AMNE03.jpg,AMSA18.jpg,AMNE06.jpg,AMSA18.jpg,MS,2,num_2,48,None,,,,2017_Feb_06_1050,59.9976907628,MAFE4ImagesEEG,001,00002,
AFSA25.JPG,AFNE24.JPG,AFSA24.JPG,AFNE21.JPG,AFSA21.JPG,AFNE25.JPG,,,,,,,,,,,,,,,,,0,5,5,2,,,,,,,AMSA18.jpg,AMNE09.jpg,AMNE18.jpg,AMSA03.jpg,AMNE09.jpg,MN,1,num_6,32,num_2,1.56708978675,,,2017_Feb_06_1050,59.9976907628,MAFE4ImagesEEG,001,00002,
AMSA21.JPG,AMNE22.JPG,AMNE21.JPG,AMSA23.JPG,AMSA22.JPG,AMNE23.JPG,,,,,,,,,,,,,,,,,0,6,6,1,,,,,,,AMNE04.jpg,AMNE15.jpg,AMSA20.jpg,AMSA11.jpg,AMNE04.jpg,MN,1,num_8,48,None,,,,2017_Feb_06_1050,59.9976907628,MAFE4ImagesEEG,001,00002,
AMSA21.JPG,AMNE23.JPG,AMNE21.JPG,AMSA25.JPG,AMNE25.JPG,AMSA23.JPG,,,,,,,,,,,,,,,,,0,7,7,5,,,,,,,AMNE13.jpg,AMSA01.jpg,AMSA10.jpg,AMNE12.jpg,AMNE12.jpg,MN,1,num_4,48,None,,,,2017_Feb_06_1050,59.9976907628,MAFE4ImagesEEG,001,00002,
AMNE22.JPG,AMSA24.JPG,AMSA22.JPG,AMNE25.JPG,AMNE24.JPG,AMSA25.JPG,,,,,,,,,,,,,,,,,0,8,8,7,,,,,,,AMSA19.jpg,AMSA15.jpg,AMNE16.jpg,AMNE10.jpg,AMSA19.jpg,MS,2,num_8,32,num_4,4.38321991963,,,2017_Feb_06_1050,59.9976907628,MAFE4ImagesEEG,001,00002,
AFNE23.JPG,AFNE24.JPG,AFNE22.JPG,AFSA24.JPG,AFSA22.JPG,AFSA23.JPG,,,,,,,,,,,,,,,,,0,9,9,8,,,,,,,AMSA11.jpg,AMSA01.jpg,AMNE14.jpg,AMNE17.jpg,AMNE17.jpg,MN,1,num_4,16,num_4,1.86670727213,,,2017_Feb_06_1050,59.9976907628,MAFE4ImagesEEG,001,00002,
AMNE22.JPG,AMSA24.JPG,AMSA22.JPG,AMNE25.JPG,AMNE24.JPG,AMSA25.JPG,,,,,,,,,,,,,,,,,,,,,0,0,0,7,,,AFNE13.jpg,AFSA19.jpg,AFNE07.jpg,AFSA13.jpg,AFNE13.jpg,FN,3,num_8,32,num_2,1.61669027316,,,2017_Feb_06_1050,59.9976907628,MAFE4ImagesEEG,001,00002,
AMSA21.JPG,AMNE23.JPG,AMNE21.JPG,AMSA25.JPG,AMNE25.JPG,AMSA23.JPG,,,,,,,,,,,,,,,,,,,,,0,1,1,5,,,AFNE09.jpg,AFSA04.jpg,AFNE13.jpg,AFSA14.jpg,AFSA14.jpg,FS,4,num_4,32,num_2,1.28346182173,,,2017_Feb_06_1050,59.9976907628,MAFE4ImagesEEG,001,00002,
AFNE23.JPG,AFNE24.JPG,AFNE22.JPG,AFSA24.JPG,AFSA22.JPG,AFSA23.JPG,,,,,,,,,,,,,,,,,,,,,0,2,2,8,,,AFSA09.jpg,AFNE08.jpg,AFNE16.jpg,AFSA01.jpg,AFNE16.jpg,FN,3,num_2,48,None,,,,2017_Feb_06_1050,59.9976907628,MAFE4ImagesEEG,001,00002,
AFNE22.JPG,AFSA24.JPG,AFSA22.JPG,AFNE25.JPG,AFNE24.JPG,AFSA25.JPG,,,,,,,,,,,,,,,,,,,,,0,3,3,6,,,AFNE18.jpg,AFNE05.jpg,AFSA20.jpg,AFSA17.jpg,AFSA17.jpg,FS,4,num_4,32,num_2,1.41668943921,,,2017_Feb_06_1050,59.9976907628,MAFE4ImagesEEG,001,00002,
AMSA25.JPG,AMNE24.JPG,AMSA24.JPG,AMNE26.JPG,AMSA21.JPG,AMNE25.JPG,,,,,,,,,,,,,,,,,,,,,0,4,4,3,,,AFNE16.jpg,AFNE08.jpg,AFSA18.jpg,AFSA04.jpg,AFSA04.jpg,FS,4,num_4,48,None,,,,2017_Feb_06_1050,59.9976907628,MAFE4ImagesEEG,001,00002,
AFSA21.JPG,AFNE23.JPG,AFNE21.JPG,AFSA25.JPG,AFNE25.JPG,AFSA23.JPG,,,,,,,,,,,,,,,,,,,,,0,5,5,4,,,AFNE09.jpg,AFSA20.jpg,AFSA06.jpg,AFNE03.jpg,AFNE03.jpg,FN,3,num_4,16,num_4,1.80012168875,,,2017_Feb_06_1050,59.9976907628,MAFE4ImagesEEG,001,00002,
AMNE23.JPG,AMNE24.JPG,AMNE22.JPG,AMSA24.JPG,AMSA22.JPG,AMSA23.JPG,,,,,,,,,,,,,,,,,,,,,0,6,6,9,,,AFSA05.jpg,AFNE19.jpg,AFSA01.jpg,AFNE06.jpg,AFSA01.jpg,FS,4,num_2,48,None,,,,2017_Feb_06_1050,59.9976907628,MAFE4ImagesEEG,001,00002,
AFSA25.JPG,AFNE24.JPG,AFSA24.JPG,AFNE21.JPG,AFSA21.JPG,AFNE25.JPG,,,,,,,,,,,,,,,,,,,,,0,7,7,2,,,AFSA08.jpg,AFNE16.jpg,AFSA03.jpg,AFNE07.jpg,AFSA08.jpg,FS,4,num_8,32,num_2,1.71670143493,,,2017_Feb_06_1050,59.9976907628,MAFE4ImagesEEG,001,00002,
AMSA21.JPG,AMNE22.JPG,AMNE21.JPG,AMSA23.JPG,AMSA22.JPG,AMNE23.JPG,,,,,,,,,,,,,,,,,,,,,0,8,8,1,,,AFSA15.jpg,AFSA06.jpg,AFNE08.jpg,AFNE12.jpg,AFSA06.jpg,FS,4,num_6,48,None,,,,2017_Feb_06_1050,59.9976907628,MAFE4ImagesEEG,001,00002,
AFSA21.JPG,AFNE22.JPG,AFNE21.JPG,AFSA23.JPG,AFSA22.JPG,AFNE23.JPG,,,,,,,,,,,,,,,,,,,,,0,9,9,0,,,AFSA18.jpg,AFNE17.jpg,AFNE04.jpg,AFSA07.jpg,AFNE17.jpg,FN,3,num_6,48,None,,,,2017_Feb_06_1050,59.9976907628,MAFE4ImagesEEG,001,00002,
,,,,,,,,,,,,,,,,,,,,,,,,,,,,,,,,,,,,,,,,,,,space,6.91661342373,2017_Feb_06_1050,59.9976907628,MAFE4ImagesEEG,001,00002,
AFNE01.JPG,AFNE01.JPG,AFNE01.JPG,AFNE01.JPG,AFNE01.JPG,AFNE01.JPG,0,0,0,1,,,,,,,,,,,,,,,,,,,,,,,AMSA03.jpg,AMNE01.jpg,AMNE09.jpg,AMSA16.jpg,AMSA03.jpg,MS,2,num_8,48,None,,,,2017_Feb_06_1050,59.9976907628,MAFE4ImagesEEG,001,00002,
AFNE01.JPG,AFNE01.JPG,AFNE01.JPG,AFNE01.JPG,AFNE01.JPG,AFNE01.JPG,0,1,1,7,,,,,,,,,,,,,,,,,,,,,,,AMNE06.jpg,AMSA15.jpg,AMNE18.jpg,AMSA01.jpg,AMSA15.jpg,MS,2,num_6,32,num_2,1.28330016881,,,2017_Feb_06_1050,59.9976907628,MAFE4ImagesEEG,001,00002,
AFNE01.JPG,AFNE01.JPG,AFNE01.JPG,AFNE01.JPG,AFNE01.JPG,AFNE01.JPG,0,2,2,9,,,,,,,,,,,,,,,,,,,,,,,AMNE02.jpg,AMNE03.jpg,AMSA05.jpg,AMSA14.jpg,AMNE02.jpg,MN,1,num_8,32,num_4,1.85000635078,,,2017_Feb_06_1050,59.9976907628,MAFE4ImagesEEG,001,00002,
AFNE01.JPG,AFNE01.JPG,AFNE01.JPG,AFNE01.JPG,AFNE01.JPG,AFNE01.JPG,0,3,3,8,,,,,,,,,,,,,,,,,,,,,,,AMNE01.jpg,AMSA13.jpg,AMSA12.jpg,AMNE10.jpg,AMNE10.jpg,MN,1,num_4,32,num_2,1.36672298843,,,2017_Feb_06_1050,59.9976907628,MAFE4ImagesEEG,001,00002,
AFNE01.JPG,AFNE01.JPG,AFNE01.JPG,AFNE01.JPG,AFNE01.JPG,AFNE01.JPG,0,4,4,5,,,,,,,,,,,,,,,,,,,,,,,AMNE04.jpg,AMSA10.jpg,AMSA14.jpg,AMNE07.jpg,AMNE04.jpg,MN,1,num_8,48,None,,,,2017_Feb_06_1050,59.9976907628,MAFE4ImagesEEG,001,00002,
AFNE01.JPG,AFNE01.JPG,AFNE01.JPG,AFNE01.JPG,AFNE01.JPG,AFNE01.JPG,0,5,5,2,,,,,,,,,,,,,,,,,,,,,,,AMSA13.jpg,AMNE01.jpg,AMNE19.jpg,AMSA07.jpg,AMSA07.jpg,MS,2,num_4,48,None,,,,2017_Feb_06_1050,59.9976907628,MAFE4ImagesEEG,001,00002,
AFNE01.JPG,AFNE01.JPG,AFNE01.JPG,AFNE01.JPG,AFNE01.JPG,AFNE01.JPG,0,6,6,0,,,,,,,,,,,,,,,,,,,,,,,AMNE03.jpg,AMSA07.jpg,AMSA19.jpg,AMNE08.jpg,AMNE08.jpg,MN,1,num_4,16,num_4,1.71672613174,,,2017_Feb_06_1050,59.9976907628,MAFE4ImagesEEG,001,00002,
AFNE01.JPG,AFNE01.JPG,AFNE01.JPG,AFNE01.JPG,AFNE01.JPG,AFNE01.JPG,0,7,7,4,,,,,,,,,,,,,,,,,,,,,,,AMNE03.jpg,AMNE16.jpg,AMSA01.jpg,AMSA08.jpg,AMNE16.jpg,MN,1,num_6,32,num_2,2.46663375874,,,2017_Feb_06_1050,59.9976907628,MAFE4ImagesEEG,001,00002,
AFNE01.JPG,AFNE01.JPG,AFNE01.JPG,AFNE01.JPG,AFNE01.JPG,AFNE01.JPG,0,8,8,6,,,,,,,,,,,,,,,,,,,,,,,AMSA02.jpg,AMSA20.jpg,AMNE11.jpg,AMNE09.jpg,AMSA20.jpg,MS,2,num_6,32,num_2,1.51666018763,,,2017_Feb_06_1050,59.9976907628,MAFE4ImagesEEG,001,00002,
AFNE01.JPG,AFNE01.JPG,AFNE01.JPG,AFNE01.JPG,AFNE01.JPG,AFNE01.JPG,0,9,9,3,,,,,,,,,,,,,,,,,,,,,,,AMSA12.jpg,AMSA05.jpg,AMNE10.jpg,AMNE12.jpg,AMSA05.jpg,MS,2,num_6,32,num_2,1.33344398858,,,2017_Feb_06_1050,59.9976907628,MAFE4ImagesEEG,001,00002,
AFNE01.JPG,AFNE01.JPG,AFNE01.JPG,AFNE01.JPG,AFNE01.JPG,AFNE01.JPG,1,0,10,2,,,,,,,,,,,,,,,,,,,,,,,AMNE12.jpg,AMSA07.jpg,AMNE15.jpg,AMSA03.jpg,AMNE15.jpg,MN,1,num_2,48,None,,,,2017_Feb_06_1050,59.9976907628,MAFE4ImagesEEG,001,00002,
AFNE01.JPG,AFNE01.JPG,AFNE01.JPG,AFNE01.JPG,AFNE01.JPG,AFNE01.JPG,1,1,11,3,,,,,,,,,,,,,,,,,,,,,,,AMSA01.jpg,AMNE04.jpg,AMSA04.jpg,AMNE18.jpg,AMSA04.jpg,MS,2,num_2,48,None,,,,2017_Feb_06_1050,59.9976907628,MAFE4ImagesEEG,001,00002,
AFNE01.JPG,AFNE01.JPG,AFNE01.JPG,AFNE01.JPG,AFNE01.JPG,AFNE01.JPG,1,2,12,5,,,,,,,,,,,,,,,,,,,,,,,AMSA12.jpg,AMNE03.jpg,AMNE09.jpg,AMSA08.jpg,AMNE09.jpg,MN,1,num_2,48,None,,,,2017_Feb_06_1050,59.9976907628,MAFE4ImagesEEG,001,00002,
AFNE01.JPG,AFNE01.JPG,AFNE01.JPG,AFNE01.JPG,AFNE01.JPG,AFNE01.JPG,1,3,13,7,,,,,,,,,,,,,,,,,,,,,,,AMNE13.jpg,AMSA16.jpg,AMSA18.jpg,AMNE12.jpg,AMSA18.jpg,MS,2,num_2,48,None,,,,2017_Feb_06_1050,59.9976907628,MAFE4ImagesEEG,001,00002,
AFNE01.JPG,AFNE01.JPG,AFNE01.JPG,AFNE01.JPG,AFNE01.JPG,AFNE01.JPG,1,4,14,4,,,,,,,,,,,,,,,,,,,,,,,AMNE04.jpg,AMNE13.jpg,AMSA03.jpg,AMSA12.jpg,AMNE04.jpg,MN,1,num_8,48,None,,,,2017_Feb_06_1050,59.9976907628,MAFE4ImagesEEG,001,00002,
AFNE01.JPG,AFNE01.JPG,AFNE01.JPG,AFNE01.JPG,AFNE01.JPG,AFNE01.JPG,1,5,15,9,,,,,,,,,,,,,,,,,,,,,,,AMNE03.jpg,AMSA16.jpg,AMNE11.jpg,AMSA13.jpg,AMSA16.jpg,MS,2,num_6,32,num_4,2.30000076978,,,2017_Feb_06_1050,59.9976907628,MAFE4ImagesEEG,001,00002,
AFNE01.JPG,AFNE01.JPG,AFNE01.JPG,AFNE01.JPG,AFNE01.JPG,AFNE01.JPG,1,6,16,8,,,,,,,,,,,,,,,,,,,,,,,AMNE15.jpg,AMSA07.jpg,AMSA11.jpg,AMNE09.jpg,AMNE09.jpg,MN,1,num_4,16,num_4,1.90004689223,,,2017_Feb_06_1050,59.9976907628,MAFE4ImagesEEG,001,00002,
AFNE01.JPG,AFNE01.JPG,AFNE01.JPG,AFNE01.JPG,AFNE01.JPG,AFNE01.JPG,1,7,17,1,,,,,,,,,,,,,,,,,,,,,,,AMNE03.jpg,AMNE08.jpg,AMSA11.jpg,AMSA02.jpg,AMNE03.jpg,MN,1,num_8,48,None,,,,2017_Feb_06_1050,59.9976907628,MAFE4ImagesEEG,001,00002,
AFNE01.JPG,AFNE01.JPG,AFNE01.JPG,AFNE01.JPG,AFNE01.JPG,AFNE01.JPG,1,8,18,6,,,,,,,,,,,,,,,,,,,,,,,AMSA02.jpg,AMNE16.jpg,AMSA15.jpg,AMNE19.jpg,AMSA15.jpg,MS,2,num_2,48,None,,,,2017_Feb_06_1050,59.9976907628,MAFE4ImagesEEG,001,00002,
AFNE01.JPG,AFNE01.JPG,AFNE01.JPG,AFNE01.JPG,AFNE01.JPG,AFNE01.JPG,1,9,19,0,,,,,,,,,,,,,,,,,,,,,,,AMNE18.jpg,AMSA13.jpg,AMSA08.jpg,AMNE01.jpg,AMNE01.jpg,MN,1,num_4,48,None,,,,2017_Feb_06_1050,59.9976907628,MAFE4ImagesEEG,001,00002,
AFNE01.JPG,AFNE01.JPG,AFNE01.JPG,AFNE01.JPG,AFNE01.JPG,AFNE01.JPG,2,0,20,2,,,,,,,,,,,,,,,,,,,,,,,AMNE10.jpg,AMSA16.jpg,AMSA19.jpg,AMNE07.jpg,AMNE07.jpg,MN,1,num_4,48,None,,,,2017_Feb_06_1050,59.9976907628,MAFE4ImagesEEG,001,00002,
AFNE01.JPG,AFNE01.JPG,AFNE01.JPG,AFNE01.JPG,AFNE01.JPG,AFNE01.JPG,2,1,21,7,,,,,,,,,,,,,,,,,,,,,,,AMNE10.jpg,AMNE12.jpg,AMSA02.jpg,AMSA01.jpg,AMSA02.jpg,MS,2,num_2,48,None,,,,2017_Feb_06_1050,59.9976907628,MAFE4ImagesEEG,001,00002,
AFNE01.JPG,AFNE01.JPG,AFNE01.JPG,AFNE01.JPG,AFNE01.JPG,AFNE01.JPG,2,2,22,5,,,,,,,,,,,,,,,,,,,,,,,AMNE04.jpg,AMSA04.jpg,AMNE14.jpg,AMSA03.jpg,AMNE04.jpg,MN,1,num_8,48,None,,,,2017_Feb_06_1050,59.9976907628,MAFE4ImagesEEG,001,00002,
AFNE01.JPG,AFNE01.JPG,AFNE01.JPG,AFNE01.JPG,AFNE01.JPG,AFNE01.JPG,2,3,23,4,,,,,,,,,,,,,,,,,,,,,,,AMSA19.jpg,AMSA15.jpg,AMNE07.jpg,AMNE09.jpg,AMNE09.jpg,MN,1,num_4,48,None,,,,2017_Feb_06_1050,59.9976907628,MAFE4ImagesEEG,001,00002,
AFNE01.JPG,AFNE01.JPG,AFNE01.JPG,AFNE01.JPG,AFNE01.JPG,AFNE01.JPG,2,4,24,3,,,,,,,,,,,,,,,,,,,,,,,AMNE03.jpg,AMSA09.jpg,AMSA03.jpg,AMNE15.jpg,AMSA09.jpg,MS,2,num_6,32,num_2,1.60003104783,,,2017_Feb_06_1050,59.9976907628,MAFE4ImagesEEG,001,00002,
AFNE01.JPG,AFNE01.JPG,AFNE01.JPG,AFNE01.JPG,AFNE01.JPG,AFNE01.JPG,2,5,25,6,,,,,,,,,,,,,,,,,,,,,,,AMSA18.jpg,AMNE06.jpg,AMSA20.jpg,AMNE17.jpg,AMSA18.jpg,MS,2,num_8,48,None,,,,2017_Feb_06_1050,59.9976907628,MAFE4ImagesEEG,001,00002,
AFNE01.JPG,AFNE01.JPG,AFNE01.JPG,AFNE01.JPG,AFNE01.JPG,AFNE01.JPG,2,6,26,0,,,,,,,,,,,,,,,,,,,,,,,AMSA15.jpg,AMNE07.jpg,AMNE13.jpg,AMSA18.jpg,AMNE07.jpg,MN,1,num_6,32,num_2,1.93366202759,,,2017_Feb_06_1050,59.9976907628,MAFE4ImagesEEG,001,00002,
AFNE01.JPG,AFNE01.JPG,AFNE01.JPG,AFNE01.JPG,AFNE01.JPG,AFNE01.JPG,2,7,27,9,,,,,,,,,,,,,,,,,,,,,,,AMNE03.jpg,AMSA10.jpg,AMSA12.jpg,AMNE08.jpg,AMSA12.jpg,MS,2,num_2,16,num_2,1.40009275801,,,2017_Feb_06_1050,59.9976907628,MAFE4ImagesEEG,001,00002,
AFNE01.JPG,AFNE01.JPG,AFNE01.JPG,AFNE01.JPG,AFNE01.JPG,AFNE01.JPG,2,8,28,1,,,,,,,,,,,,,,,,,,,,,,,AMSA01.jpg,AMSA10.jpg,AMNE13.jpg,AMNE03.jpg,AMNE13.jpg,MN,1,num_2,48,None,,,,2017_Feb_06_1050,59.9976907628,MAFE4ImagesEEG,001,00002,
AFNE01.JPG,AFNE01.JPG,AFNE01.JPG,AFNE01.JPG,AFNE01.JPG,AFNE01.JPG,2,9,29,8,,,,,,,,,,,,,,,,,,,,,,,AMSA20.jpg,AMNE02.jpg,AMNE03.jpg,AMSA16.jpg,AMSA20.jpg,MS,2,num_8,48,None,,,,2017_Feb_06_1050,59.9976907628,MAFE4ImagesEEG,001,00002,
AFNE01.JPG,AFNE01.JPG,AFNE01.JPG,AFNE01.JPG,AFNE01.JPG,AFNE01.JPG,3,0,30,3,,,,,,,,,,,,,,,,,,,,,,,AMNE04.jpg,AMSA19.jpg,AMNE11.jpg,AMSA16.jpg,AMNE04.jpg,MN,1,num_8,48,None,,,,2017_Feb_06_1050,59.9976907628,MAFE4ImagesEEG,001,00002,
AFNE01.JPG,AFNE01.JPG,AFNE01.JPG,AFNE01.JPG,AFNE01.JPG,AFNE01.JPG,3,1,31,8,,,,,,,,,,,,,,,,,,,,,,,AMNE01.jpg,AMSA02.jpg,AMSA13.jpg,AMNE04.jpg,AMNE04.jpg,MN,1,num_4,16,num_4,1.7666220197,,,2017_Feb_06_1050,59.9976907628,MAFE4ImagesEEG,001,00002,
AFNE01.JPG,AFNE01.JPG,AFNE01.JPG,AFNE01.JPG,AFNE01.JPG,AFNE01.JPG,3,2,32,5,,,,,,,,,,,,,,,,,,,,,,,AMSA20.jpg,AMNE16.jpg,AMNE09.jpg,AMSA06.jpg,AMSA20.jpg,MS,2,num_8,48,None,,,,2017_Feb_06_1050,59.9976907628,MAFE4ImagesEEG,001,00002,
AFNE01.JPG,AFNE01.JPG,AFNE01.JPG,AFNE01.JPG,AFNE01.JPG,AFNE01.JPG,3,3,33,1,,,,,,,,,,,,,,,,,,,,,,,AMSA20.jpg,AMNE14.jpg,AMNE15.jpg,AMSA13.jpg,AMNE14.jpg,MN,1,num_6,32,num_2,1.20011084783,,,2017_Feb_06_1050,59.9976907628,MAFE4ImagesEEG,001,00002,
AFNE01.JPG,AFNE01.JPG,AFNE01.JPG,AFNE01.JPG,AFNE01.JPG,AFNE01.JPG,3,4,34,7,,,,,,,,,,,,,,,,,,,,,,,AMNE08.jpg,AMSA12.jpg,AMSA13.jpg,AMNE16.jpg,AMSA13.jpg,MS,2,num_2,48,None,,,,2017_Feb_06_1050,59.9976907628,MAFE4ImagesEEG,001,00002,
AFNE01.JPG,AFNE01.JPG,AFNE01.JPG,AFNE01.JPG,AFNE01.JPG,AFNE01.JPG,3,5,35,6,,,,,,,,,,,,,,,,,,,,,,,AMSA14.jpg,AMNE16.jpg,AMNE12.jpg,AMSA03.jpg,AMSA03.jpg,MS,2,num_4,16,num_4,1.63341396721,,,2017_Feb_06_1050,59.9976907628,MAFE4ImagesEEG,001,00002,
AFNE01.JPG,AFNE01.JPG,AFNE01.JPG,AFNE01.JPG,AFNE01.JPG,AFNE01.JPG,3,6,36,2,,,,,,,,,,,,,,,,,,,,,,,AMNE14.jpg,AMSA19.jpg,AMNE13.jpg,AMSA13.jpg,AMSA19.jpg,MS,2,num_6,32,num_2,1.35005895211,,,2017_Feb_06_1050,59.9976907628,MAFE4ImagesEEG,001,00002,
AFNE01.JPG,AFNE01.JPG,AFNE01.JPG,AFNE01.JPG,AFNE01.JPG,AFNE01.JPG,3,7,37,0,,,,,,,,,,,,,,,,,,,,,,,AMNE06.jpg,AMSA10.jpg,AMSA02.jpg,AMNE20.jpg,AMNE20.jpg,MN,1,num_4,16,num_4,4.41650790046,,,2017_Feb_06_1050,59.9976907628,MAFE4ImagesEEG,001,00002,
AFNE01.JPG,AFNE01.JPG,AFNE01.JPG,AFNE01.JPG,AFNE01.JPG,AFNE01.JPG,3,8,38,9,,,,,,,,,,,,,,,,,,,,,,,AMNE18.jpg,AMSA03.jpg,AMSA15.jpg,AMNE06.jpg,AMSA03.jpg,MS,2,num_6,32,num_2,1.15009211656,,,2017_Feb_06_1050,59.9976907628,MAFE4ImagesEEG,001,00002,
AFNE01.JPG,AFNE01.JPG,AFNE01.JPG,AFNE01.JPG,AFNE01.JPG,AFNE01.JPG,3,9,39,4,,,,,,,,,,,,,,,,,,,,,,,AMNE04.jpg,AMNE09.jpg,AMSA13.jpg,AMSA05.jpg,AMNE09.jpg,MN,1,num_6,48,None,,,,2017_Feb_06_1050,59.9976907628,MAFE4ImagesEEG,001,00002,
AFNE01.JPG,AFNE01.JPG,AFNE01.JPG,AFNE01.JPG,AFNE01.JPG,AFNE01.JPG,4,0,40,2,,,,,,,,,,,,,,,,,,,,,,,AMSA08.jpg,AMSA17.jpg,AMNE15.jpg,AMNE20.jpg,AMNE20.jpg,MN,1,num_4,16,num_4,1.56658814941,,,2017_Feb_06_1050,59.9976907628,MAFE4ImagesEEG,001,00002,
AFNE01.JPG,AFNE01.JPG,AFNE01.JPG,AFNE01.JPG,AFNE01.JPG,AFNE01.JPG,4,1,41,3,,,,,,,,,,,,,,,,,,,,,,,AMNE06.jpg,AMSA01.jpg,AMSA04.jpg,AMNE02.jpg,AMNE06.jpg,MN,1,num_8,48,None,,,,2017_Feb_06_1050,59.9976907628,MAFE4ImagesEEG,001,00002,
AFNE01.JPG,AFNE01.JPG,AFNE01.JPG,AFNE01.JPG,AFNE01.JPG,AFNE01.JPG,4,2,42,8,,,,,,,,,,,,,,,,,,,,,,,AMNE10.jpg,AMSA04.jpg,AMSA18.jpg,AMNE05.jpg,AMNE10.jpg,MN,1,num_8,48,None,,,,2017_Feb_06_1050,59.9976907628,MAFE4ImagesEEG,001,00002,
AFNE01.JPG,AFNE01.JPG,AFNE01.JPG,AFNE01.JPG,AFNE01.JPG,AFNE01.JPG,4,3,43,1,,,,,,,,,,,,,,,,,,,,,,,AMNE06.jpg,AMSA07.jpg,AMNE17.jpg,AMSA15.jpg,AMNE17.jpg,MN,1,num_2,16,num_2,1.10013336362,,,2017_Feb_06_1050,59.9976907628,MAFE4ImagesEEG,001,00002,
AFNE01.JPG,AFNE01.JPG,AFNE01.JPG,AFNE01.JPG,AFNE01.JPG,AFNE01.JPG,4,4,44,7,,,,,,,,,,,,,,,,,,,,,,,AMNE13.jpg,AMSA05.jpg,AMNE10.jpg,AMSA10.jpg,AMSA10.jpg,MS,2,num_4,32,num_2,1.10032837326,,,2017_Feb_06_1050,59.9976907628,MAFE4ImagesEEG,001,00002,
AFNE01.JPG,AFNE01.JPG,AFNE01.JPG,AFNE01.JPG,AFNE01.JPG,AFNE01.JPG,4,5,45,0,,,,,,,,,,,,,,,,,,,,,,,AMNE11.jpg,AMSA08.jpg,AMSA03.jpg,AMNE10.jpg,AMNE10.jpg,MN,1,num_4,16,num_4,2.0332770755,,,2017_Feb_06_1050,59.9976907628,MAFE4ImagesEEG,001,00002,
AFNE01.JPG,AFNE01.JPG,AFNE01.JPG,AFNE01.JPG,AFNE01.JPG,AFNE01.JPG,4,6,46,9,,,,,,,,,,,,,,,,,,,,,,,AMSA07.jpg,AMNE16.jpg,AMSA20.jpg,AMNE09.jpg,AMNE16.jpg,MN,1,num_6,32,num_2,1.00009558047,,,2017_Feb_06_1050,59.9976907628,MAFE4ImagesEEG,001,00002,
AFNE01.JPG,AFNE01.JPG,AFNE01.JPG,AFNE01.JPG,AFNE01.JPG,AFNE01.JPG,4,7,47,6,,,,,,,,,,,,,,,,,,,,,,,AMSA19.jpg,AMNE10.jpg,AMSA02.jpg,AMNE01.jpg,AMNE10.jpg,MN,1,num_6,32,num_2,1.16677411459,,,2017_Feb_06_1050,59.9976907628,MAFE4ImagesEEG,001,00002,
AFNE01.JPG,AFNE01.JPG,AFNE01.JPG,AFNE01.JPG,AFNE01.JPG,AFNE01.JPG,4,8,48,5,,,,,,,,,,,,,,,,,,,,,,,AMNE02.jpg,AMSA09.jpg,AMNE01.jpg,AMSA15.jpg,AMNE02.jpg,MN,1,num_8,48,None,,,,2017_Feb_06_1050,59.9976907628,MAFE4ImagesEEG,001,00002,
AFNE01.JPG,AFNE01.JPG,AFNE01.JPG,AFNE01.JPG,AFNE01.JPG,AFNE01.JPG,4,9,49,4,,,,,,,,,,,,,,,,,,,,,,,AMNE03.jpg,AMNE18.jpg,AMSA06.jpg,AMSA01.jpg,AMNE18.jpg,MN,1,num_6,48,None,,,,2017_Feb_06_1050,59.9976907628,MAFE4ImagesEEG,001,00002,
AFNE01.JPG,AFNE01.JPG,AFNE01.JPG,AFNE01.JPG,AFNE01.JPG,AFNE01.JPG,5,0,50,7,,,,,,,,,,,,,,,,,,,,,,,AMSA05.jpg,AMNE10.jpg,AMSA06.jpg,AMNE20.jpg,AMSA06.jpg,MS,2,num_2,16,num_2,2.49998717057,,,2017_Feb_06_1050,59.9976907628,MAFE4ImagesEEG,001,00002,
AFNE01.JPG,AFNE01.JPG,AFNE01.JPG,AFNE01.JPG,AFNE01.JPG,AFNE01.JPG,5,1,51,4,,,,,,,,,,,,,,,,,,,,,,,AMNE04.jpg,AMSA05.jpg,AMSA13.jpg,AMNE19.jpg,AMSA05.jpg,MS,2,num_6,48,None,,,,2017_Feb_06_1050,59.9976907628,MAFE4ImagesEEG,001,00002,
AFNE01.JPG,AFNE01.JPG,AFNE01.JPG,AFNE01.JPG,AFNE01.JPG,AFNE01.JPG,5,2,52,9,,,,,,,,,,,,,,,,,,,,,,,AMNE02.jpg,AMSA16.jpg,AMSA18.jpg,AMNE01.jpg,AMNE02.jpg,MN,1,num_8,48,None,,,,2017_Feb_06_1050,59.9976907628,MAFE4ImagesEEG,001,00002,
AFNE01.JPG,AFNE01.JPG,AFNE01.JPG,AFNE01.JPG,AFNE01.JPG,AFNE01.JPG,5,3,53,8,,,,,,,,,,,,,,,,,,,,,,,AMNE03.jpg,AMSA07.jpg,AMSA04.jpg,AMNE01.jpg,AMSA04.jpg,MS,2,num_2,48,None,,,,2017_Feb_06_1050,59.9976907628,MAFE4ImagesEEG,001,00002,
AFNE01.JPG,AFNE01.JPG,AFNE01.JPG,AFNE01.JPG,AFNE01.JPG,AFNE01.JPG,5,4,54,3,,,,,,,,,,,,,,,,,,,,,,,AMSA19.jpg,AMSA18.jpg,AMNE19.jpg,AMNE07.jpg,AMNE19.jpg,MN,1,num_2,32,num_4,2.06637646118,,,2017_Feb_06_1050,59.9976907628,MAFE4ImagesEEG,001,00002,
AFNE01.JPG,AFNE01.JPG,AFNE01.JPG,AFNE01.JPG,AFNE01.JPG,AFNE01.JPG,5,5,55,2,,,,,,,,,,,,,,,,,,,,,,,AMSA17.jpg,AMNE20.jpg,AMSA10.jpg,AMNE11.jpg,AMNE20.jpg,MN,1,num_6,32,num_2,1.13344956958,,,2017_Feb_06_1050,59.9976907628,MAFE4ImagesEEG,001,00002,
AFNE01.JPG,AFNE01.JPG,AFNE01.JPG,AFNE01.JPG,AFNE01.JPG,AFNE01.JPG,5,6,56,0,,,,,,,,,,,,,,,,,,,,,,,AMNE01.jpg,AMNE11.jpg,AMSA03.jpg,AMSA01.jpg,AMSA03.jpg,MS,2,num_2,32,num_4,1.40009949356,,,2017_Feb_06_1050,59.9976907628,MAFE4ImagesEEG,001,00002,
AFNE01.JPG,AFNE01.JPG,AFNE01.JPG,AFNE01.JPG,AFNE01.JPG,AFNE01.JPG,5,7,57,1,,,,,,,,,,,,,,,,,,,,,,,AMNE08.jpg,AMSA09.jpg,AMSA17.jpg,AMNE04.jpg,AMNE04.jpg,MN,1,num_4,48,None,,,,2017_Feb_06_1050,59.9976907628,MAFE4ImagesEEG,001,00002,
AFNE01.JPG,AFNE01.JPG,AFNE01.JPG,AFNE01.JPG,AFNE01.JPG,AFNE01.JPG,5,8,58,6,,,,,,,,,,,,,,,,,,,,,,,AMNE11.jpg,AMSA20.jpg,AMNE10.jpg,AMSA15.jpg,AMNE10.jpg,MN,1,num_2,48,None,,,,2017_Feb_06_1050,59.9976907628,MAFE4ImagesEEG,001,00002,
AFNE01.JPG,AFNE01.JPG,AFNE01.JPG,AFNE01.JPG,AFNE01.JPG,AFNE01.JPG,5,9,59,5,,,,,,,,,,,,,,,,,,,,,,,AMNE08.jpg,AMNE18.jpg,AMSA09.jpg,AMSA17.jpg,AMNE18.jpg,MN,1,num_6,48,None,,,,2017_Feb_06_1050,59.9976907628,MAFE4ImagesEEG,001,00002,
,,,,,,,,,,,,,,,,,,,,,,,,,,,,,,,,,,,,,,,,,,,space,4.18322325544,2017_Feb_06_1050,59.9976907628,MAFE4ImagesEEG,001,00002,
AFNE01.JPG,AFNE01.JPG,AFNE01.JPG,AFNE01.JPG,AFNE01.JPG,AFNE01.JPG,,,,,0,0,0,2,,,,,,,,,,,,,,,,,,,AFNE09.jpg,AFSA11.jpg,AFNE16.jpg,AFSA16.jpg,AFSA16.jpg,FS,4,num_4,16,num_4,1.43341826531,,,2017_Feb_06_1050,59.9976907628,MAFE4ImagesEEG,001,00002,
AFNE01.JPG,AFNE01.JPG,AFNE01.JPG,AFNE01.JPG,AFNE01.JPG,AFNE01.JPG,,,,,0,1,1,3,,,,,,,,,,,,,,,,,,,AFNE15.jpg,AFSA06.jpg,AFNE12.jpg,AFSA12.jpg,AFNE12.jpg,FN,3,num_2,48,None,,,,2017_Feb_06_1050,59.9976907628,MAFE4ImagesEEG,001,00002,
AFNE01.JPG,AFNE01.JPG,AFNE01.JPG,AFNE01.JPG,AFNE01.JPG,AFNE01.JPG,,,,,0,2,2,6,,,,,,,,,,,,,,,,,,,AFNE16.jpg,AFNE06.jpg,AFSA19.jpg,AFSA14.jpg,AFSA19.jpg,FS,4,num_2,16,num_2,1.71672132076,,,2017_Feb_06_1050,59.9976907628,MAFE4ImagesEEG,001,00002,
AFNE01.JPG,AFNE01.JPG,AFNE01.JPG,AFNE01.JPG,AFNE01.JPG,AFNE01.JPG,,,,,0,3,3,5,,,,,,,,,,,,,,,,,,,AFSA19.jpg,AFNE01.jpg,AFNE16.jpg,AFSA01.jpg,AFNE01.jpg,FN,3,num_6,32,num_2,1.16680330201,,,2017_Feb_06_1050,59.9976907628,MAFE4ImagesEEG,001,00002,
AFNE01.JPG,AFNE01.JPG,AFNE01.JPG,AFNE01.JPG,AFNE01.JPG,AFNE01.JPG,,,,,0,4,4,9,,,,,,,,,,,,,,,,,,,AFSA19.jpg,AFNE04.jpg,AFSA06.jpg,AFNE01.jpg,AFSA19.jpg,FS,4,num_8,48,None,,,,2017_Feb_06_1050,59.9976907628,MAFE4ImagesEEG,001,00002,
AFNE01.JPG,AFNE01.JPG,AFNE01.JPG,AFNE01.JPG,AFNE01.JPG,AFNE01.JPG,,,,,0,5,5,0,,,,,,,,,,,,,,,,,,,AFNE17.jpg,AFNE06.jpg,AFSA06.jpg,AFSA03.jpg,AFSA06.jpg,FS,4,num_2,48,None,,,,2017_Feb_06_1050,59.9976907628,MAFE4ImagesEEG,001,00002,
AFNE01.JPG,AFNE01.JPG,AFNE01.JPG,AFNE01.JPG,AFNE01.JPG,AFNE01.JPG,,,,,0,6,6,8,,,,,,,,,,,,,,,,,,,AFSA07.jpg,AFSA01.jpg,AFNE11.jpg,AFNE01.jpg,AFSA07.jpg,FS,4,num_8,48,None,,,,2017_Feb_06_1050,59.9976907628,MAFE4ImagesEEG,001,00002,
AFNE01.JPG,AFNE01.JPG,AFNE01.JPG,AFNE01.JPG,AFNE01.JPG,AFNE01.JPG,,,,,0,7,7,1,,,,,,,,,,,,,,,,,,,AFSA08.jpg,AFNE10.jpg,AFSA03.jpg,AFNE17.jpg,AFNE10.jpg,FN,3,num_6,48,None,,,,2017_Feb_06_1050,59.9976907628,MAFE4ImagesEEG,001,00002,
AFNE01.JPG,AFNE01.JPG,AFNE01.JPG,AFNE01.JPG,AFNE01.JPG,AFNE01.JPG,,,,,0,8,8,4,,,,,,,,,,,,,,,,,,,AFNE01.jpg,AFSA06.jpg,AFNE09.jpg,AFSA03.jpg,AFNE09.jpg,FN,3,num_2,48,None,,,,2017_Feb_06_1050,59.9976907628,MAFE4ImagesEEG,001,00002,
AFNE01.JPG,AFNE01.JPG,AFNE01.JPG,AFNE01.JPG,AFNE01.JPG,AFNE01.JPG,,,,,0,9,9,7,,,,,,,,,,,,,,,,,,,AFNE09.jpg,AFSA14.jpg,AFNE17.jpg,AFSA13.jpg,AFSA13.jpg,FS,4,num_4,16,num_4,1.43346445169,,,2017_Feb_06_1050,59.9976907628,MAFE4ImagesEEG,001,00002,
AFNE01.JPG,AFNE01.JPG,AFNE01.JPG,AFNE01.JPG,AFNE01.JPG,AFNE01.JPG,,,,,1,0,10,6,,,,,,,,,,,,,,,,,,,AFNE04.jpg,AFSA17.jpg,AFNE03.jpg,AFSA05.jpg,AFNE03.jpg,FN,3,num_2,48,None,,,,2017_Feb_06_1050,59.9976907628,MAFE4ImagesEEG,001,00002,
AFNE01.JPG,AFNE01.JPG,AFNE01.JPG,AFNE01.JPG,AFNE01.JPG,AFNE01.JPG,,,,,1,1,11,3,,,,,,,,,,,,,,,,,,,AFSA06.jpg,AFNE06.jpg,AFNE13.jpg,AFSA15.jpg,AFSA06.jpg,FS,4,num_8,48,None,,,,2017_Feb_06_1050,59.9976907628,MAFE4ImagesEEG,001,00002,
AFNE01.JPG,AFNE01.JPG,AFNE01.JPG,AFNE01.JPG,AFNE01.JPG,AFNE01.JPG,,,,,1,2,12,0,,,,,,,,,,,,,,,,,,,AFSA08.jpg,AFSA19.jpg,AFNE12.jpg,AFNE08.jpg,AFNE08.jpg,FN,3,num_4,32,num_2,1.36674095015,,,2017_Feb_06_1050,59.9976907628,MAFE4ImagesEEG,001,00002,
AFNE01.JPG,AFNE01.JPG,AFNE01.JPG,AFNE01.JPG,AFNE01.JPG,AFNE01.JPG,,,,,1,3,13,9,,,,,,,,,,,,,,,,,,,AFNE14.jpg,AFSA10.jpg,AFNE02.jpg,AFSA04.jpg,AFSA10.jpg,FS,4,num_6,32,num_2,0.866775589762,,,2017_Feb_06_1050,59.9976907628,MAFE4ImagesEEG,001,00002,
AFNE01.JPG,AFNE01.JPG,AFNE01.JPG,AFNE01.JPG,AFNE01.JPG,AFNE01.JPG,,,,,1,4,14,7,,,,,,,,,,,,,,,,,,,AFSA19.jpg,AFNE04.jpg,AFSA04.jpg,AFNE05.jpg,AFSA04.jpg,FS,4,num_2,32,num_4,2.40001770505,,,2017_Feb_06_1050,59.9976907628,MAFE4ImagesEEG,001,00002,
AFNE01.JPG,AFNE01.JPG,AFNE01.JPG,AFNE01.JPG,AFNE01.JPG,AFNE01.JPG,,,,,1,5,15,2,,,,,,,,,,,,,,,,,,,AFNE06.jpg,AFSA12.jpg,AFSA14.jpg,AFNE03.jpg,AFNE06.jpg,FN,3,num_8,48,None,,,,2017_Feb_06_1050,59.9976907628,MAFE4ImagesEEG,001,00002,
AFNE01.JPG,AFNE01.JPG,AFNE01.JPG,AFNE01.JPG,AFNE01.JPG,AFNE01.JPG,,,,,1,6,16,4,,,,,,,,,,,,,,,,,,,AFSA13.jpg,AFSA11.jpg,AFNE17.jpg,AFNE13.jpg,AFNE17.jpg,FN,3,num_2,48,None,,,,2017_Feb_06_1050,59.9976907628,MAFE4ImagesEEG,001,00002,
AFNE01.JPG,AFNE01.JPG,AFNE01.JPG,AFNE01.JPG,AFNE01.JPG,AFNE01.JPG,,,,,1,7,17,1,,,,,,,,,,,,,,,,,,,AFSA02.jpg,AFSA10.jpg,AFNE09.jpg,AFNE02.jpg,AFSA10.jpg,FS,4,num_6,32,num_2,0.983482541516,,,2017_Feb_06_1050,59.9976907628,MAFE4ImagesEEG,001,00002,
AFNE01.JPG,AFNE01.JPG,AFNE01.JPG,AFNE01.JPG,AFNE01.JPG,AFNE01.JPG,,,,,1,8,18,8,,,,,,,,,,,,,,,,,,,AFNE11.jpg,AFSA19.jpg,AFNE14.jpg,AFSA05.jpg,AFSA05.jpg,FS,4,num_4,16,num_4,1.40016652807,,,2017_Feb_06_1050,59.9976907628,MAFE4ImagesEEG,001,00002,
AFNE01.JPG,AFNE01.JPG,AFNE01.JPG,AFNE01.JPG,AFNE01.JPG,AFNE01.JPG,,,,,1,9,19,5,,,,,,,,,,,,,,,,,,,AFSA10.jpg,AFNE08.jpg,AFSA06.jpg,AFNE05.jpg,AFSA06.jpg,FS,4,num_2,48,None,,,,2017_Feb_06_1050,59.9976907628,MAFE4ImagesEEG,001,00002,
AFNE01.JPG,AFNE01.JPG,AFNE01.JPG,AFNE01.JPG,AFNE01.JPG,AFNE01.JPG,,,,,2,0,20,9,,,,,,,,,,,,,,,,,,,AFNE04.jpg,AFSA09.jpg,AFNE16.jpg,AFSA04.jpg,AFNE04.jpg,FN,3,num_8,48,None,,,,2017_Feb_06_1050,59.9976907628,MAFE4ImagesEEG,001,00002,
AFNE01.JPG,AFNE01.JPG,AFNE01.JPG,AFNE01.JPG,AFNE01.JPG,AFNE01.JPG,,,,,2,1,21,0,,,,,,,,,,,,,,,,,,,AFNE04.jpg,AFNE13.jpg,AFSA02.jpg,AFSA10.jpg,AFNE04.jpg,FN,3,num_8,48,None,,,,2017_Feb_06_1050,59.9976907628,MAFE4ImagesEEG,001,00002,
AFNE01.JPG,AFNE01.JPG,AFNE01.JPG,AFNE01.JPG,AFNE01.JPG,AFNE01.JPG,,,,,2,2,22,4,,,,,,,,,,,,,,,,,,,AFNE01.jpg,AFNE15.jpg,AFSA20.jpg,AFSA05.jpg,AFSA05.jpg,FS,4,num_4,16,num_4,1.34979819041,,,2017_Feb_06_1050,59.9976907628,MAFE4ImagesEEG,001,00002,
AFNE01.JPG,AFNE01.JPG,AFNE01.JPG,AFNE01.JPG,AFNE01.JPG,AFNE01.JPG,,,,,2,3,23,8,,,,,,,,,,,,,,,,,,,AFNE08.jpg,AFSA10.jpg,AFSA16.jpg,AFNE17.jpg,AFSA10.jpg,FS,4,num_6,32,num_2,0.883445720654,,,2017_Feb_06_1050,59.9976907628,MAFE4ImagesEEG,001,00002,
AFNE01.JPG,AFNE01.JPG,AFNE01.JPG,AFNE01.JPG,AFNE01.JPG,AFNE01.JPG,,,,,2,4,24,3,,,,,,,,,,,,,,,,,,,AFSA13.jpg,AFNE19.jpg,AFNE14.jpg,AFSA12.jpg,AFNE19.jpg,FN,3,num_6,32,num_2,1.10009776149,,,2017_Feb_06_1050,59.9976907628,MAFE4ImagesEEG,001,00002,
AFNE01.JPG,AFNE01.JPG,AFNE01.JPG,AFNE01.JPG,AFNE01.JPG,AFNE01.JPG,,,,,2,5,25,2,,,,,,,,,,,,,,,,,,,AFNE14.jpg,AFSA07.jpg,AFSA11.jpg,AFNE08.jpg,AFSA11.jpg,FS,4,num_2,16,num_2,2.05000846763,,,2017_Feb_06_1050,59.9976907628,MAFE4ImagesEEG,001,00002,
AFNE01.JPG,AFNE01.JPG,AFNE01.JPG,AFNE01.JPG,AFNE01.JPG,AFNE01.JPG,,,,,2,6,26,1,,,,,,,,,,,,,,,,,,,AFSA10.jpg,AFSA16.jpg,AFNE14.jpg,AFNE02.jpg,AFNE02.jpg,FN,3,num_4,16,num_4,1.50015491736,,,2017_Feb_06_1050,59.9976907628,MAFE4ImagesEEG,001,00002,
AFNE01.JPG,AFNE01.JPG,AFNE01.JPG,AFNE01.JPG,AFNE01.JPG,AFNE01.JPG,,,,,2,7,27,5,,,,,,,,,,,,,,,,,,,AFSA20.jpg,AFSA17.jpg,AFNE17.jpg,AFNE19.jpg,AFNE17.jpg,FN,3,num_2,48,None,,,,2017_Feb_06_1050,59.9976907628,MAFE4ImagesEEG,001,00002,
AFNE01.JPG,AFNE01.JPG,AFNE01.JPG,AFNE01.JPG,AFNE01.JPG,AFNE01.JPG,,,,,2,8,28,6,,,,,,,,,,,,,,,,,,,AFNE01.jpg,AFNE16.jpg,AFSA08.jpg,AFSA04.jpg,AFNE01.jpg,FN,3,num_8,32,num_2,1.06664844858,,,2017_Feb_06_1050,59.9976907628,MAFE4ImagesEEG,001,00002,
AFNE01.JPG,AFNE01.JPG,AFNE01.JPG,AFNE01.JPG,AFNE01.JPG,AFNE01.JPG,,,,,2,9,29,7,,,,,,,,,,,,,,,,,,,AFNE09.jpg,AFNE06.jpg,AFSA05.jpg,AFSA04.jpg,AFSA05.jpg,FS,4,num_2,32,num_4,1.35002463288,,,2017_Feb_06_1050,59.9976907628,MAFE4ImagesEEG,001,00002,
AFNE01.JPG,AFNE01.JPG,AFNE01.JPG,AFNE01.JPG,AFNE01.JPG,AFNE01.JPG,,,,,3,0,30,4,,,,,,,,,,,,,,,,,,,AFSA01.jpg,AFSA12.jpg,AFNE09.jpg,AFNE17.jpg,AFNE09.jpg,FN,3,num_2,48,None,,,,2017_Feb_06_1050,59.9976907628,MAFE4ImagesEEG,001,00002,
AFNE01.JPG,AFNE01.JPG,AFNE01.JPG,AFNE01.JPG,AFNE01.JPG,AFNE01.JPG,,,,,3,1,31,7,,,,,,,,,,,,,,,,,,,AFNE15.jpg,AFNE02.jpg,AFSA13.jpg,AFSA06.jpg,AFNE02.jpg,FN,3,num_6,32,num_2,1.06675493438,,,2017_Feb_06_1050,59.9976907628,MAFE4ImagesEEG,001,00002,
AFNE01.JPG,AFNE01.JPG,AFNE01.JPG,AFNE01.JPG,AFNE01.JPG,AFNE01.JPG,,,,,3,2,32,9,,,,,,,,,,,,,,,,,,,AFSA04.jpg,AFSA05.jpg,AFNE05.jpg,AFNE09.jpg,AFNE05.jpg,FN,3,num_2,48,None,,,,2017_Feb_06_1050,59.9976907628,MAFE4ImagesEEG,001,00002,
AFNE01.JPG,AFNE01.JPG,AFNE01.JPG,AFNE01.JPG,AFNE01.JPG,AFNE01.JPG,,,,,3,3,33,3,,,,,,,,,,,,,,,,,,,AFNE07.jpg,AFNE12.jpg,AFSA07.jpg,AFSA16.jpg,AFSA16.jpg,FS,4,num_4,16,num_4,1.33344366774,,,2017_Feb_06_1050,59.9976907628,MAFE4ImagesEEG,001,00002,
AFNE01.JPG,AFNE01.JPG,AFNE01.JPG,AFNE01.JPG,AFNE01.JPG,AFNE01.JPG,,,,,3,4,34,8,,,,,,,,,,,,,,,,,,,AFNE05.jpg,AFNE11.jpg,AFSA01.jpg,AFSA07.jpg,AFNE11.jpg,FN,3,num_6,32,num_2,0.983434109716,,,2017_Feb_06_1050,59.9976907628,MAFE4ImagesEEG,001,00002,
AFNE01.JPG,AFNE01.JPG,AFNE01.JPG,AFNE01.JPG,AFNE01.JPG,AFNE01.JPG,,,,,3,5,35,6,,,,,,,,,,,,,,,,,,,AFNE09.jpg,AFSA01.jpg,AFNE04.jpg,AFSA10.jpg,AFSA01.jpg,FS,4,num_6,32,num_2,0.849982295185,,,2017_Feb_06_1050,59.9976907628,MAFE4ImagesEEG,001,00002,
AFNE01.JPG,AFNE01.JPG,AFNE01.JPG,AFNE01.JPG,AFNE01.JPG,AFNE01.JPG,,,,,3,6,36,0,,,,,,,,,,,,,,,,,,,AFNE01.jpg,AFSA11.jpg,AFNE11.jpg,AFSA06.jpg,AFNE01.jpg,FN,3,num_8,32,num_4,1.51674999483,,,2017_Feb_06_1050,59.9976907628,MAFE4ImagesEEG,001,00002,
AFNE01.JPG,AFNE01.JPG,AFNE01.JPG,AFNE01.JPG,AFNE01.JPG,AFNE01.JPG,,,,,3,7,37,2,,,,,,,,,,,,,,,,,,,AFSA15.jpg,AFNE16.jpg,AFSA12.jpg,AFNE06.jpg,AFNE16.jpg,FN,3,num_6,32,num_2,1.21673318814,,,2017_Feb_06_1050,59.9976907628,MAFE4ImagesEEG,001,00002,
AFNE01.JPG,AFNE01.JPG,AFNE01.JPG,AFNE01.JPG,AFNE01.JPG,AFNE01.JPG,,,,,3,8,38,5,,,,,,,,,,,,,,,,,,,AFSA17.jpg,AFSA20.jpg,AFNE07.jpg,AFNE19.jpg,AFNE19.jpg,FN,3,num_4,16,num_4,1.35005606525,,,2017_Feb_06_1050,59.9976907628,MAFE4ImagesEEG,001,00002,
AFNE01.JPG,AFNE01.JPG,AFNE01.JPG,AFNE01.JPG,AFNE01.JPG,AFNE01.JPG,,,,,3,9,39,1,,,,,,,,,,,,,,,,,,,AFNE02.jpg,AFNE12.jpg,AFSA03.jpg,AFSA13.jpg,AFNE12.jpg,FN,3,num_6,32,num_2,0.866762760328,,,2017_Feb_06_1050,59.9976907628,MAFE4ImagesEEG,001,00002,
AFNE01.JPG,AFNE01.JPG,AFNE01.JPG,AFNE01.JPG,AFNE01.JPG,AFNE01.JPG,,,,,4,0,40,1,,,,,,,,,,,,,,,,,,,AFNE20.jpg,AFSA07.jpg,AFNE10.jpg,AFSA01.jpg,AFSA07.jpg,FS,4,num_6,32,num_2,0.783439690713,,,2017_Feb_06_1050,59.9976907628,MAFE4ImagesEEG,001,00002,
AFNE01.JPG,AFNE01.JPG,AFNE01.JPG,AFNE01.JPG,AFNE01.JPG,AFNE01.JPG,,,,,4,1,41,6,,,,,,,,,,,,,,,,,,,AFSA11.jpg,AFNE15.jpg,AFNE12.jpg,AFSA03.jpg,AFNE12.jpg,FN,3,num_2,48,None,,,,2017_Feb_06_1050,59.9976907628,MAFE4ImagesEEG,001,00002,
AFNE01.JPG,AFNE01.JPG,AFNE01.JPG,AFNE01.JPG,AFNE01.JPG,AFNE01.JPG,,,,,4,2,42,3,,,,,,,,,,,,,,,,,,,AFSA07.jpg,AFSA06.jpg,AFNE15.jpg,AFNE11.jpg,AFSA06.jpg,FS,4,num_6,32,num_2,0.86695456272,,,2017_Feb_06_1050,59.9976907628,MAFE4ImagesEEG,001,00002,
AFNE01.JPG,AFNE01.JPG,AFNE01.JPG,AFNE01.JPG,AFNE01.JPG,AFNE01.JPG,,,,,4,3,43,2,,,,,,,,,,,,,,,,,,,AFSA07.jpg,AFNE03.jpg,AFNE19.jpg,AFSA18.jpg,AFSA07.jpg,FS,4,num_8,48,None,,,,2017_Feb_06_1050,59.9976907628,MAFE4ImagesEEG,001,00002,
AFNE01.JPG,AFNE01.JPG,AFNE01.JPG,AFNE01.JPG,AFNE01.JPG,AFNE01.JPG,,,,,4,4,44,0,,,,,,,,,,,,,,,,,,,AFNE07.jpg,AFSA10.jpg,AFNE16.jpg,AFSA07.jpg,AFSA10.jpg,FS,4,num_6,48,None,,,,2017_Feb_06_1050,59.9976907628,MAFE4ImagesEEG,001,00002,
AFNE01.JPG,AFNE01.JPG,AFNE01.JPG,AFNE01.JPG,AFNE01.JPG,AFNE01.JPG,,,,,4,5,45,8,,,,,,,,,,,,,,,,,,,AFNE19.jpg,AFSA06.jpg,AFSA16.jpg,AFNE08.jpg,AFSA16.jpg,FS,4,num_2,48,None,,,,2017_Feb_06_1050,59.9976907628,MAFE4ImagesEEG,001,00002,
AFNE01.JPG,AFNE01.JPG,AFNE01.JPG,AFNE01.JPG,AFNE01.JPG,AFNE01.JPG,,,,,4,6,46,9,,,,,,,,,,,,,,,,,,,AFSA11.jpg,AFSA02.jpg,AFNE14.jpg,AFNE17.jpg,AFNE14.jpg,FN,3,num_2,48,None,,,,2017_Feb_06_1050,59.9976907628,MAFE4ImagesEEG,001,00002,
AFNE01.JPG,AFNE01.JPG,AFNE01.JPG,AFNE01.JPG,AFNE01.JPG,AFNE01.JPG,,,,,4,7,47,7,,,,,,,,,,,,,,,,,,,AFSA20.jpg,AFSA17.jpg,AFNE08.jpg,AFNE07.jpg,AFSA17.jpg,FS,4,num_6,32,num_2,1.01674999483,,,2017_Feb_06_1050,59.9976907628,MAFE4ImagesEEG,001,00002,
AFNE01.JPG,AFNE01.JPG,AFNE01.JPG,AFNE01.JPG,AFNE01.JPG,AFNE01.JPG,,,,,4,8,48,4,,,,,,,,,,,,,,,,,,,AFNE08.jpg,AFSA03.jpg,AFSA07.jpg,AFNE07.jpg,AFSA03.jpg,FS,4,num_6,32,num_2,0.650129643036,,,2017_Feb_06_1050,59.9976907628,MAFE4ImagesEEG,001,00002,
AFNE01.JPG,AFNE01.JPG,AFNE01.JPG,AFNE01.JPG,AFNE01.JPG,AFNE01.JPG,,,,,4,9,49,5,,,,,,,,,,,,,,,,,,,AFSA13.jpg,AFNE05.jpg,AFNE08.jpg,AFSA01.jpg,AFNE05.jpg,FN,3,num_6,32,num_2,1.26677308814,,,2017_Feb_06_1050,59.9976907628,MAFE4ImagesEEG,001,00002,
AFNE01.JPG,AFNE01.JPG,AFNE01.JPG,AFNE01.JPG,AFNE01.JPG,AFNE01.JPG,,,,,5,0,50,1,,,,,,,,,,,,,,,,,,,AFSA04.jpg,AFNE06.jpg,AFNE09.jpg,AFSA10.jpg,AFNE09.jpg,FN,3,num_2,48,None,,,,2017_Feb_06_1050,59.9976907628,MAFE4ImagesEEG,001,00002,
AFNE01.JPG,AFNE01.JPG,AFNE01.JPG,AFNE01.JPG,AFNE01.JPG,AFNE01.JPG,,,,,5,1,51,4,,,,,,,,,,,,,,,,,,,AFSA13.jpg,AFSA19.jpg,AFNE01.jpg,AFNE03.jpg,AFNE01.jpg,FN,3,num_2,48,None,,,,2017_Feb_06_1050,59.9976907628,MAFE4ImagesEEG,001,00002,
AFNE01.JPG,AFNE01.JPG,AFNE01.JPG,AFNE01.JPG,AFNE01.JPG,AFNE01.JPG,,,,,5,2,52,5,,,,,,,,,,,,,,,,,,,AFNE02.jpg,AFSA14.jpg,AFNE17.jpg,AFSA07.jpg,AFNE17.jpg,FN,3,num_2,48,None,,,,2017_Feb_06_1050,59.9976907628,MAFE4ImagesEEG,001,00002,
AFNE01.JPG,AFNE01.JPG,AFNE01.JPG,AFNE01.JPG,AFNE01.JPG,AFNE01.JPG,,,,,5,3,53,6,,,,,,,,,,,,,,,,,,,AFNE06.jpg,AFNE15.jpg,AFSA10.jpg,AFSA03.jpg,AFNE06.jpg,FN,3,num_8,48,None,,,,2017_Feb_06_1050,59.9976907628,MAFE4ImagesEEG,001,00002,
AFNE01.JPG,AFNE01.JPG,AFNE01.JPG,AFNE01.JPG,AFNE01.JPG,AFNE01.JPG,,,,,5,4,54,8,,,,,,,,,,,,,,,,,,,AFNE20.jpg,AFNE10.jpg,AFSA18.jpg,AFSA10.jpg,AFSA18.jpg,FS,4,num_2,48,None,,,,2017_Feb_06_1050,59.9976907628,MAFE4ImagesEEG,001,00002,
AFNE01.JPG,AFNE01.JPG,AFNE01.JPG,AFNE01.JPG,AFNE01.JPG,AFNE01.JPG,,,,,5,5,55,3,,,,,,,,,,,,,,,,,,,AFNE05.jpg,AFSA17.jpg,AFNE18.jpg,AFSA12.jpg,AFNE05.jpg,FN,3,num_8,48,None,,,,2017_Feb_06_1050,59.9976907628,MAFE4ImagesEEG,001,00002,
AFNE01.JPG,AFNE01.JPG,AFNE01.JPG,AFNE01.JPG,AFNE01.JPG,AFNE01.JPG,,,,,5,6,56,0,,,,,,,,,,,,,,,,,,,AFNE18.jpg,AFSA15.jpg,AFNE05.jpg,AFSA08.jpg,AFNE05.jpg,FN,3,num_2,48,None,,,,2017_Feb_06_1050,59.9976907628,MAFE4ImagesEEG,001,00002,
AFNE01.JPG,AFNE01.JPG,AFNE01.JPG,AFNE01.JPG,AFNE01.JPG,AFNE01.JPG,,,,,5,7,57,2,,,,,,,,,,,,,,,,,,,AFSA13.jpg,AFNE02.jpg,AFSA14.jpg,AFNE20.jpg,AFSA13.jpg,FS,4,num_8,48,None,,,,2017_Feb_06_1050,59.9976907628,MAFE4ImagesEEG,001,00002,
AFNE01.JPG,AFNE01.JPG,AFNE01.JPG,AFNE01.JPG,AFNE01.JPG,AFNE01.JPG,,,,,5,8,58,9,,,,,,,,,,,,,,,,,,,AFNE14.jpg,AFNE12.jpg,AFSA04.jpg,AFSA13.jpg,AFNE14.jpg,FN,3,num_8,32,num_2,1.45010475349,,,2017_Feb_06_1050,59.9976907628,MAFE4ImagesEEG,001,00002,
AFNE01.JPG,AFNE01.JPG,AFNE01.JPG,AFNE01.JPG,AFNE01.JPG,AFNE01.JPG,,,,,5,9,59,7,,,,,,,,,,,,,,,,,,,AFSA17.jpg,AFSA15.jpg,AFNE15.jpg,AFNE03.jpg,AFNE15.jpg,FN,3,num_2,48,None,,,,2017_Feb_06_1050,59.9976907628,MAFE4ImagesEEG,001,00002,
,,,,,,,,,,,,,,,,,,,,,,,,,,,,,,,,,,,,,,,,,,,space,3.61653920473,2017_Feb_06_1050,59.9976907628,MAFE4ImagesEEG,001,00002,
AFNE01.JPG,AFNE01.JPG,AFNE01.JPG,AFNE01.JPG,AFNE01.JPG,AFNE01.JPG,,,,,,,,,0,0,0,8,,,,,,,,,,,,,,,AMNE09.jpg,AMNE19.jpg,AMSA01.jpg,AMSA10.jpg,AMNE19.jpg,MN,1,num_6,32,num_2,0.983421921497,,,2017_Feb_06_1050,59.9976907628,MAFE4ImagesEEG,001,00002,
AFNE01.JPG,AFNE01.JPG,AFNE01.JPG,AFNE01.JPG,AFNE01.JPG,AFNE01.JPG,,,,,,,,,0,1,1,2,,,,,,,,,,,,,,,AMNE13.jpg,AMSA14.jpg,AMSA02.jpg,AMNE17.jpg,AMNE17.jpg,MN,1,num_4,32,num_2,1.0168269726,,,2017_Feb_06_1050,59.9976907628,MAFE4ImagesEEG,001,00002,
AFNE01.JPG,AFNE01.JPG,AFNE01.JPG,AFNE01.JPG,AFNE01.JPG,AFNE01.JPG,,,,,,,,,0,2,2,9,,,,,,,,,,,,,,,AMSA13.jpg,AMSA08.jpg,AMNE07.jpg,AMNE20.jpg,AMNE20.jpg,MN,1,num_4,32,num_2,0.983486069599,,,2017_Feb_06_1050,59.9976907628,MAFE4ImagesEEG,001,00002,
AFNE01.JPG,AFNE01.JPG,AFNE01.JPG,AFNE01.JPG,AFNE01.JPG,AFNE01.JPG,,,,,,,,,0,3,3,7,,,,,,,,,,,,,,,AMSA13.jpg,AMNE18.jpg,AMNE03.jpg,AMSA14.jpg,AMNE18.jpg,MN,1,num_6,32,num_2,1.03346374631,,,2017_Feb_06_1050,59.9976907628,MAFE4ImagesEEG,001,00002,
AFNE01.JPG,AFNE01.JPG,AFNE01.JPG,AFNE01.JPG,AFNE01.JPG,AFNE01.JPG,,,,,,,,,0,4,4,4,,,,,,,,,,,,,,,AMNE01.jpg,AMSA05.jpg,AMNE19.jpg,AMSA03.jpg,AMNE01.jpg,MN,1,num_8,32,num_4,1.91668815608,,,2017_Feb_06_1050,59.9976907628,MAFE4ImagesEEG,001,00002,
AFNE01.JPG,AFNE01.JPG,AFNE01.JPG,AFNE01.JPG,AFNE01.JPG,AFNE01.JPG,,,,,,,,,0,5,5,3,,,,,,,,,,,,,,,AMSA04.jpg,AMNE17.jpg,AMSA03.jpg,AMNE03.jpg,AMNE17.jpg,MN,1,num_6,32,num_2,0.850143627264,,,2017_Feb_06_1050,59.9976907628,MAFE4ImagesEEG,001,00002,
AFNE01.JPG,AFNE01.JPG,AFNE01.JPG,AFNE01.JPG,AFNE01.JPG,AFNE01.JPG,,,,,,,,,0,6,6,0,,,,,,,,,,,,,,,AMSA03.jpg,AMNE07.jpg,AMNE12.jpg,AMSA19.jpg,AMNE12.jpg,MN,1,num_2,48,None,,,,2017_Feb_06_1050,59.9976907628,MAFE4ImagesEEG,001,00002,
AFNE01.JPG,AFNE01.JPG,AFNE01.JPG,AFNE01.JPG,AFNE01.JPG,AFNE01.JPG,,,,,,,,,0,7,7,5,,,,,,,,,,,,,,,AMNE06.jpg,AMSA06.jpg,AMNE09.jpg,AMSA03.jpg,AMNE09.jpg,MN,1,num_2,48,None,,,,2017_Feb_06_1050,59.9976907628,MAFE4ImagesEEG,001,00002,
AFNE01.JPG,AFNE01.JPG,AFNE01.JPG,AFNE01.JPG,AFNE01.JPG,AFNE01.JPG,,,,,,,,,0,8,8,6,,,,,,,,,,,,,,,AMNE11.jpg,AMSA17.jpg,AMSA04.jpg,AMNE16.jpg,AMSA04.jpg,MS,2,num_2,48,None,,,,2017_Feb_06_1050,59.9976907628,MAFE4ImagesEEG,001,00002,
AFNE01.JPG,AFNE01.JPG,AFNE01.JPG,AFNE01.JPG,AFNE01.JPG,AFNE01.JPG,,,,,,,,,0,9,9,1,,,,,,,,,,,,,,,AMSA16.jpg,AMNE04.jpg,AMSA20.jpg,AMNE07.jpg,AMSA20.jpg,MS,2,num_2,48,None,,,,2017_Feb_06_1050,59.9976907628,MAFE4ImagesEEG,001,00002,
AFNE01.JPG,AFNE01.JPG,AFNE01.JPG,AFNE01.JPG,AFNE01.JPG,AFNE01.JPG,,,,,,,,,1,0,10,3,,,,,,,,,,,,,,,AMNE07.jpg,AMSA15.jpg,AMSA09.jpg,AMNE18.jpg,AMNE07.jpg,MN,1,num_8,48,None,,,,2017_Feb_06_1050,59.9976907628,MAFE4ImagesEEG,001,00002,
AFNE01.JPG,AFNE01.JPG,AFNE01.JPG,AFNE01.JPG,AFNE01.JPG,AFNE01.JPG,,,,,,,,,1,1,11,8,,,,,,,,,,,,,,,AMSA15.jpg,AMSA03.jpg,AMNE15.jpg,AMNE05.jpg,AMNE05.jpg,MN,1,num_4,16,num_4,1.65014311415,,,2017_Feb_06_1050,59.9976907628,MAFE4ImagesEEG,001,00002,
AFNE01.JPG,AFNE01.JPG,AFNE01.JPG,AFNE01.JPG,AFNE01.JPG,AFNE01.JPG,,,,,,,,,1,2,12,1,,,,,,,,,,,,,,,AMSA20.jpg,AMNE06.jpg,AMNE13.jpg,AMSA07.jpg,AMSA20.jpg,MS,2,num_8,32,num_4,2.35033542966,,,2017_Feb_06_1050,59.9976907628,MAFE4ImagesEEG,001,00002,
AFNE01.JPG,AFNE01.JPG,AFNE01.JPG,AFNE01.JPG,AFNE01.JPG,AFNE01.JPG,,,,,,,,,1,3,13,4,,,,,,,,,,,,,,,AMNE15.jpg,AMSA16.jpg,AMNE07.jpg,AMSA11.jpg,AMSA11.jpg,MS,2,num_4,16,num_4,1.8667031026,,,2017_Feb_06_1050,59.9976907628,MAFE4ImagesEEG,001,00002,
AFNE01.JPG,AFNE01.JPG,AFNE01.JPG,AFNE01.JPG,AFNE01.JPG,AFNE01.JPG,,,,,,,,,1,4,14,7,,,,,,,,,,,,,,,AMSA03.jpg,AMNE18.jpg,AMNE04.jpg,AMSA10.jpg,AMNE04.jpg,MN,1,num_2,48,None,,,,2017_Feb_06_1050,59.9976907628,MAFE4ImagesEEG,001,00002,
AFNE01.JPG,AFNE01.JPG,AFNE01.JPG,AFNE01.JPG,AFNE01.JPG,AFNE01.JPG,,,,,,,,,1,5,15,5,,,,,,,,,,,,,,,AMSA12.jpg,AMNE18.jpg,AMNE05.jpg,AMSA18.jpg,AMSA18.jpg,MS,2,num_4,32,num_2,0.883438343648,,,2017_Feb_06_1050,59.9976907628,MAFE4ImagesEEG,001,00002,
AFNE01.JPG,AFNE01.JPG,AFNE01.JPG,AFNE01.JPG,AFNE01.JPG,AFNE01.JPG,,,,,,,,,1,6,16,2,,,,,,,,,,,,,,,AMSA12.jpg,AMSA13.jpg,AMNE15.jpg,AMNE19.jpg,AMNE19.jpg,MN,1,num_4,32,num_2,1.08348023216,,,2017_Feb_06_1050,59.9976907628,MAFE4ImagesEEG,001,00002,
AFNE01.JPG,AFNE01.JPG,AFNE01.JPG,AFNE01.JPG,AFNE01.JPG,AFNE01.JPG,,,,,,,,,1,7,17,0,,,,,,,,,,,,,,,AMSA16.jpg,AMNE06.jpg,AMSA08.jpg,AMNE15.jpg,AMNE15.jpg,MN,1,num_4,32,num_2,1.10008140374,,,2017_Feb_06_1050,59.9976907628,MAFE4ImagesEEG,001,00002,
AFNE01.JPG,AFNE01.JPG,AFNE01.JPG,AFNE01.JPG,AFNE01.JPG,AFNE01.JPG,,,,,,,,,1,8,18,9,,,,,,,,,,,,,,,AMSA16.jpg,AMNE02.jpg,AMSA06.jpg,AMNE16.jpg,AMNE16.jpg,MN,1,num_4,32,num_2,0.983477088856,,,2017_Feb_06_1050,59.9976907628,MAFE4ImagesEEG,001,00002,
AFNE01.JPG,AFNE01.JPG,AFNE01.JPG,AFNE01.JPG,AFNE01.JPG,AFNE01.JPG,,,,,,,,,1,9,19,6,,,,,,,,,,,,,,,AMNE05.jpg,AMSA19.jpg,AMNE19.jpg,AMSA12.jpg,AMNE19.jpg,MN,1,num_2,48,None,,,,2017_Feb_06_1050,59.9976907628,MAFE4ImagesEEG,001,00002,
AFNE01.JPG,AFNE01.JPG,AFNE01.JPG,AFNE01.JPG,AFNE01.JPG,AFNE01.JPG,,,,,,,,,2,0,20,7,,,,,,,,,,,,,,,AMNE15.jpg,AMNE14.jpg,AMSA12.jpg,AMSA09.jpg,AMNE14.jpg,MN,1,num_6,32,num_2,0.916789510055,,,2017_Feb_06_1050,59.9976907628,MAFE4ImagesEEG,001,00002,
AFNE01.JPG,AFNE01.JPG,AFNE01.JPG,AFNE01.JPG,AFNE01.JPG,AFNE01.JPG,,,,,,,,,2,1,21,2,,,,,,,,,,,,,,,AMSA14.jpg,AMNE06.jpg,AMSA15.jpg,AMNE19.jpg,AMNE19.jpg,MN,1,num_4,32,num_2,0.900112643605,,,2017_Feb_06_1050,59.9976907628,MAFE4ImagesEEG,001,00002,
AFNE01.JPG,AFNE01.JPG,AFNE01.JPG,AFNE01.JPG,AFNE01.JPG,AFNE01.JPG,,,,,,,,,2,2,22,4,,,,,,,,,,,,,,,AMSA17.jpg,AMSA05.jpg,AMNE20.jpg,AMNE16.jpg,AMNE20.jpg,MN,1,num_2,48,None,,,,2017_Feb_06_1050,59.9976907628,MAFE4ImagesEEG,001,00002,
AFNE01.JPG,AFNE01.JPG,AFNE01.JPG,AFNE01.JPG,AFNE01.JPG,AFNE01.JPG,,,,,,,,,2,3,23,0,,,,,,,,,,,,,,,AMNE12.jpg,AMSA07.jpg,AMNE14.jpg,AMSA19.jpg,AMNE14.jpg,MN,1,num_2,48,None,,,,2017_Feb_06_1050,59.9976907628,MAFE4ImagesEEG,001,00002,
AFNE01.JPG,AFNE01.JPG,AFNE01.JPG,AFNE01.JPG,AFNE01.JPG,AFNE01.JPG,,,,,,,,,2,4,24,8,,,,,,,,,,,,,,,AMSA16.jpg,AMNE15.jpg,AMSA07.jpg,AMNE17.jpg,AMNE15.jpg,MN,1,num_6,32,num_2,1.36674351594,,,2017_Feb_06_1050,59.9976907628,MAFE4ImagesEEG,001,00002,
AFNE01.JPG,AFNE01.JPG,AFNE01.JPG,AFNE01.JPG,AFNE01.JPG,AFNE01.JPG,,,,,,,,,2,5,25,5,,,,,,,,,,,,,,,AMSA20.jpg,AMNE09.jpg,AMNE16.jpg,AMSA02.jpg,AMSA02.jpg,MS,2,num_4,16,num_4,1.20011084783,,,2017_Feb_06_1050,59.9976907628,MAFE4ImagesEEG,001,00002,
AFNE01.JPG,AFNE01.JPG,AFNE01.JPG,AFNE01.JPG,AFNE01.JPG,AFNE01.JPG,,,,,,,,,2,6,26,6,,,,,,,,,,,,,,,AMNE14.jpg,AMNE17.jpg,AMSA13.jpg,AMSA15.jpg,AMSA13.jpg,MS,2,num_2,48,None,,,,2017_Feb_06_1050,59.9976907628,MAFE4ImagesEEG,001,00002,
AFNE01.JPG,AFNE01.JPG,AFNE01.JPG,AFNE01.JPG,AFNE01.JPG,AFNE01.JPG,,,,,,,,,2,7,27,9,,,,,,,,,,,,,,,AMSA13.jpg,AMNE03.jpg,AMSA18.jpg,AMNE16.jpg,AMSA13.jpg,MS,2,num_8,32,num_2,0.983418714255,,,2017_Feb_06_1050,59.9976907628,MAFE4ImagesEEG,001,00002,
AFNE01.JPG,AFNE01.JPG,AFNE01.JPG,AFNE01.JPG,AFNE01.JPG,AFNE01.JPG,,,,,,,,,2,8,28,1,,,,,,,,,,,,,,,AMNE06.jpg,AMNE19.jpg,AMSA16.jpg,AMSA17.jpg,AMNE06.jpg,MN,1,num_8,32,num_4,1.56670618174,,,2017_Feb_06_1050,59.9976907628,MAFE4ImagesEEG,001,00002,
AFNE01.JPG,AFNE01.JPG,AFNE01.JPG,AFNE01.JPG,AFNE01.JPG,AFNE01.JPG,,,,,,,,,2,9,29,3,,,,,,,,,,,,,,,AMNE02.jpg,AMNE19.jpg,AMSA17.jpg,AMSA07.jpg,AMSA17.jpg,MS,2,num_2,48,None,,,,2017_Feb_06_1050,59.9976907628,MAFE4ImagesEEG,001,00002,
AFNE01.JPG,AFNE01.JPG,AFNE01.JPG,AFNE01.JPG,AFNE01.JPG,AFNE01.JPG,,,,,,,,,3,0,30,6,,,,,,,,,,,,,,,AMSA16.jpg,AMSA17.jpg,AMNE16.jpg,AMNE12.jpg,AMNE12.jpg,MN,1,num_4,16,num_4,1.49996792595,,,2017_Feb_06_1050,59.9976907628,MAFE4ImagesEEG,001,00002,
AFNE01.JPG,AFNE01.JPG,AFNE01.JPG,AFNE01.JPG,AFNE01.JPG,AFNE01.JPG,,,,,,,,,3,1,31,3,,,,,,,,,,,,,,,AMNE03.jpg,AMSA05.jpg,AMSA10.jpg,AMNE19.jpg,AMSA10.jpg,MS,2,num_2,16,num_2,1.45006626495,,,2017_Feb_06_1050,59.9976907628,MAFE4ImagesEEG,001,00002,
AFNE01.JPG,AFNE01.JPG,AFNE01.JPG,AFNE01.JPG,AFNE01.JPG,AFNE01.JPG,,,,,,,,,3,2,32,9,,,,,,,,,,,,,,,AMNE15.jpg,AMNE01.jpg,AMSA14.jpg,AMSA02.jpg,AMSA02.jpg,MS,2,num_4,32,num_2,1.31673953868,,,2017_Feb_06_1050,59.9976907628,MAFE4ImagesEEG,001,00002,
AFNE01.JPG,AFNE01.JPG,AFNE01.JPG,AFNE01.JPG,AFNE01.JPG,AFNE01.JPG,,,,,,,,,3,3,33,4,,,,,,,,,,,,,,,AMSA10.jpg,AMSA15.jpg,AMNE15.jpg,AMNE20.jpg,AMNE20.jpg,MN,1,num_4,48,None,,,,2017_Feb_06_1050,59.9976907628,MAFE4ImagesEEG,001,00002,
AFNE01.JPG,AFNE01.JPG,AFNE01.JPG,AFNE01.JPG,AFNE01.JPG,AFNE01.JPG,,,,,,,,,3,4,34,7,,,,,,,,,,,,,,,AMSA18.jpg,AMNE06.jpg,AMSA14.jpg,AMNE01.jpg,AMSA18.jpg,MS,2,num_8,48,None,,,,2017_Feb_06_1050,59.9976907628,MAFE4ImagesEEG,001,00002,
AFNE01.JPG,AFNE01.JPG,AFNE01.JPG,AFNE01.JPG,AFNE01.JPG,AFNE01.JPG,,,,,,,,,3,5,35,8,,,,,,,,,,,,,,,AMNE20.jpg,AMNE06.jpg,AMSA17.jpg,AMSA16.jpg,AMSA16.jpg,MS,2,num_4,48,None,,,,2017_Feb_06_1050,59.9976907628,MAFE4ImagesEEG,001,00002,
AFNE01.JPG,AFNE01.JPG,AFNE01.JPG,AFNE01.JPG,AFNE01.JPG,AFNE01.JPG,,,,,,,,,3,6,36,0,,,,,,,,,,,,,,,AMSA02.jpg,AMNE19.jpg,AMSA03.jpg,AMNE09.jpg,AMNE09.jpg,MN,1,num_4,16,num_4,1.66672311677,,,2017_Feb_06_1050,59.9976907628,MAFE4ImagesEEG,001,00002,
AFNE01.JPG,AFNE01.JPG,AFNE01.JPG,AFNE01.JPG,AFNE01.JPG,AFNE01.JPG,,,,,,,,,3,7,37,1,,,,,,,,,,,,,,,AMNE18.jpg,AMSA08.jpg,AMNE03.jpg,AMSA02.jpg,AMNE03.jpg,MN,1,num_2,16,num_2,0.916724399896,,,2017_Feb_06_1050,59.9976907628,MAFE4ImagesEEG,001,00002,
AFNE01.JPG,AFNE01.JPG,AFNE01.JPG,AFNE01.JPG,AFNE01.JPG,AFNE01.JPG,,,,,,,,,3,8,38,5,,,,,,,,,,,,,,,AMNE14.jpg,AMSA15.jpg,AMNE02.jpg,AMSA04.jpg,AMSA04.jpg,MS,2,num_4,16,num_4,1.25013920106,,,2017_Feb_06_1050,59.9976907628,MAFE4ImagesEEG,001,00002,
AFNE01.JPG,AFNE01.JPG,AFNE01.JPG,AFNE01.JPG,AFNE01.JPG,AFNE01.JPG,,,,,,,,,3,9,39,2,,,,,,,,,,,,,,,AMSA12.jpg,AMNE19.jpg,AMNE05.jpg,AMSA10.jpg,AMNE05.jpg,MN,1,num_2,48,None,,,,2017_Feb_06_1050,59.9976907628,MAFE4ImagesEEG,001,00002,
AFNE01.JPG,AFNE01.JPG,AFNE01.JPG,AFNE01.JPG,AFNE01.JPG,AFNE01.JPG,,,,,,,,,4,0,40,1,,,,,,,,,,,,,,,AMNE15.jpg,AMSA17.jpg,AMSA08.jpg,AMNE08.jpg,AMNE15.jpg,MN,1,num_8,48,None,,,,2017_Feb_06_1050,59.9976907628,MAFE4ImagesEEG,001,00002,
AFNE01.JPG,AFNE01.JPG,AFNE01.JPG,AFNE01.JPG,AFNE01.JPG,AFNE01.JPG,,,,,,,,,4,1,41,9,,,,,,,,,,,,,,,AMNE07.jpg,AMSA14.jpg,AMNE03.jpg,AMSA02.jpg,AMSA02.jpg,MS,2,num_4,48,None,,,,2017_Feb_06_1050,59.9976907628,MAFE4ImagesEEG,001,00002,
AFNE01.JPG,AFNE01.JPG,AFNE01.JPG,AFNE01.JPG,AFNE01.JPG,AFNE01.JPG,,,,,,,,,4,2,42,4,,,,,,,,,,,,,,,AMNE18.jpg,AMNE14.jpg,AMSA16.jpg,AMSA15.jpg,AMSA16.jpg,MS,2,num_2,48,None,,,,2017_Feb_06_1050,59.9976907628,MAFE4ImagesEEG,001,00002,
AFNE01.JPG,AFNE01.JPG,AFNE01.JPG,AFNE01.JPG,AFNE01.JPG,AFNE01.JPG,,,,,,,,,4,3,43,3,,,,,,,,,,,,,,,AMSA19.jpg,AMNE04.jpg,AMSA08.jpg,AMNE19.jpg,AMNE19.jpg,MN,1,num_4,48,None,,,,2017_Feb_06_1050,59.9976907628,MAFE4ImagesEEG,001,00002,
AFNE01.JPG,AFNE01.JPG,AFNE01.JPG,AFNE01.JPG,AFNE01.JPG,AFNE01.JPG,,,,,,,,,4,4,44,2,,,,,,,,,,,,,,,AMNE01.jpg,AMSA15.jpg,AMSA07.jpg,AMNE20.jpg,AMSA15.jpg,MS,2,num_6,32,num_2,1.05011302885,,,2017_Feb_06_1050,59.9976907628,MAFE4ImagesEEG,001,00002,
AFNE01.JPG,AFNE01.JPG,AFNE01.JPG,AFNE01.JPG,AFNE01.JPG,AFNE01.JPG,,,,,,,,,4,5,45,0,,,,,,,,,,,,,,,AMNE10.jpg,AMSA16.jpg,AMNE17.jpg,AMSA13.jpg,AMNE10.jpg,MN,1,num_8,48,None,,,,2017_Feb_06_1050,59.9976907628,MAFE4ImagesEEG,001,00002,
AFNE01.JPG,AFNE01.JPG,AFNE01.JPG,AFNE01.JPG,AFNE01.JPG,AFNE01.JPG,,,,,,,,,4,6,46,6,,,,,,,,,,,,,,,AMNE16.jpg,AMSA11.jpg,AMSA05.jpg,AMNE09.jpg,AMSA11.jpg,MS,2,num_6,48,None,,,,2017_Feb_06_1050,59.9976907628,MAFE4ImagesEEG,001,00002,
AFNE01.JPG,AFNE01.JPG,AFNE01.JPG,AFNE01.JPG,AFNE01.JPG,AFNE01.JPG,,,,,,,,,4,7,47,8,,,,,,,,,,,,,,,AMNE04.jpg,AMNE20.jpg,AMSA19.jpg,AMSA05.jpg,AMNE04.jpg,MN,1,num_8,48,None,,,,2017_Feb_06_1050,59.9976907628,MAFE4ImagesEEG,001,00002,
AFNE01.JPG,AFNE01.JPG,AFNE01.JPG,AFNE01.JPG,AFNE01.JPG,AFNE01.JPG,,,,,,,,,4,8,48,5,,,,,,,,,,,,,,,AMSA09.jpg,AMNE18.jpg,AMSA18.jpg,AMNE09.jpg,AMNE09.jpg,MN,1,num_4,32,num_2,1.23344533565,,,2017_Feb_06_1050,59.9976907628,MAFE4ImagesEEG,001,00002,
AFNE01.JPG,AFNE01.JPG,AFNE01.JPG,AFNE01.JPG,AFNE01.JPG,AFNE01.JPG,,,,,,,,,4,9,49,7,,,,,,,,,,,,,,,AMNE15.jpg,AMSA18.jpg,AMSA08.jpg,AMNE04.jpg,AMNE04.jpg,MN,1,num_4,16,num_4,2.84997908771,,,2017_Feb_06_1050,59.9976907628,MAFE4ImagesEEG,001,00002,
AFNE01.JPG,AFNE01.JPG,AFNE01.JPG,AFNE01.JPG,AFNE01.JPG,AFNE01.JPG,,,,,,,,,5,0,50,1,,,,,,,,,,,,,,,AMSA01.jpg,AMSA19.jpg,AMNE10.jpg,AMNE02.jpg,AMNE10.jpg,MN,1,num_2,16,num_2,1.60009423317,,,2017_Feb_06_1050,59.9976907628,MAFE4ImagesEEG,001,00002,
AFNE01.JPG,AFNE01.JPG,AFNE01.JPG,AFNE01.JPG,AFNE01.JPG,AFNE01.JPG,,,,,,,,,5,1,51,5,,,,,,,,,,,,,,,AMSA01.jpg,AMNE04.jpg,AMSA10.jpg,AMNE08.jpg,AMSA10.jpg,MS,2,num_2,16,num_2,1.15007992834,,,2017_Feb_06_1050,59.9976907628,MAFE4ImagesEEG,001,00002,
AFNE01.JPG,AFNE01.JPG,AFNE01.JPG,AFNE01.JPG,AFNE01.JPG,AFNE01.JPG,,,,,,,,,5,2,52,2,,,,,,,,,,,,,,,AMNE19.jpg,AMSA18.jpg,AMSA10.jpg,AMNE05.jpg,AMNE19.jpg,MN,1,num_8,48,None,,,,2017_Feb_06_1050,59.9976907628,MAFE4ImagesEEG,001,00002,
AFNE01.JPG,AFNE01.JPG,AFNE01.JPG,AFNE01.JPG,AFNE01.JPG,AFNE01.JPG,,,,,,,,,5,3,53,0,,,,,,,,,,,,,,,AMNE07.jpg,AMNE18.jpg,AMSA18.jpg,AMSA16.jpg,AMSA18.jpg,MS,2,num_2,16,num_2,2.28336335439,,,2017_Feb_06_1050,59.9976907628,MAFE4ImagesEEG,001,00002,
AFNE01.JPG,AFNE01.JPG,AFNE01.JPG,AFNE01.JPG,AFNE01.JPG,AFNE01.JPG,,,,,,,,,5,4,54,3,,,,,,,,,,,,,,,AMSA11.jpg,AMSA14.jpg,AMNE10.jpg,AMNE05.jpg,AMNE10.jpg,MN,1,num_2,48,None,,,,2017_Feb_06_1050,59.9976907628,MAFE4ImagesEEG,001,00002,
AFNE01.JPG,AFNE01.JPG,AFNE01.JPG,AFNE01.JPG,AFNE01.JPG,AFNE01.JPG,,,,,,,,,5,5,55,8,,,,,,,,,,,,,,,AMSA02.jpg,AMSA04.jpg,AMNE13.jpg,AMNE10.jpg,AMNE10.jpg,MN,1,num_4,16,num_4,1.78344514314,,,2017_Feb_06_1050,59.9976907628,MAFE4ImagesEEG,001,00002,
AFNE01.JPG,AFNE01.JPG,AFNE01.JPG,AFNE01.JPG,AFNE01.JPG,AFNE01.JPG,,,,,,,,,5,6,56,4,,,,,,,,,,,,,,,AMSA20.jpg,AMSA02.jpg,AMNE18.jpg,AMNE15.jpg,AMNE18.jpg,MN,1,num_2,16,num_2,2.79996228102,,,2017_Feb_06_1050,59.9976907628,MAFE4ImagesEEG,001,00002,
AFNE01.JPG,AFNE01.JPG,AFNE01.JPG,AFNE01.JPG,AFNE01.JPG,AFNE01.JPG,,,,,,,,,5,7,57,6,,,,,,,,,,,,,,,AMNE17.jpg,AMSA02.jpg,AMNE19.jpg,AMSA07.jpg,AMSA07.jpg,MS,2,num_4,16,num_4,2.11668033013,,,2017_Feb_06_1050,59.9976907628,MAFE4ImagesEEG,001,00002,
AFNE01.JPG,AFNE01.JPG,AFNE01.JPG,AFNE01.JPG,AFNE01.JPG,AFNE01.JPG,,,,,,,,,5,8,58,9,,,,,,,,,,,,,,,AMSA11.jpg,AMNE12.jpg,AMNE17.jpg,AMSA01.jpg,AMNE12.jpg,MN,1,num_6,32,num_2,0.883450211026,,,2017_Feb_06_1050,59.9976907628,MAFE4ImagesEEG,001,00002,
AFNE01.JPG,AFNE01.JPG,AFNE01.JPG,AFNE01.JPG,AFNE01.JPG,AFNE01.JPG,,,,,,,,,5,9,59,7,,,,,,,,,,,,,,,AMSA05.jpg,AMSA15.jpg,AMNE04.jpg,AMNE14.jpg,AMNE04.jpg,MN,1,num_2,32,num_4,1.66669072211,,,2017_Feb_06_1050,59.9976907628,MAFE4ImagesEEG,001,00002,
,,,,,,,,,,,,,,,,,,,,,,,,,,,,,,,,,,,,,,,,,,,space,10.2493944434,2017_Feb_06_1050,59.9976907628,MAFE4ImagesEEG,001,00002,
AFNE01.JPG,AFNE01.JPG,AFNE01.JPG,AFNE01.JPG,AFNE01.JPG,AFNE01.JPG,,,,,,,,,,,,,0,0,0,2,,,,,,,,,,,AFSA13.jpg,AFNE07.jpg,AFNE11.jpg,AFSA08.jpg,AFSA08.jpg,FS,4,num_4,32,num_2,1.10009744088,,,2017_Feb_06_1050,59.9976907628,MAFE4ImagesEEG,001,00002,
AFNE01.JPG,AFNE01.JPG,AFNE01.JPG,AFNE01.JPG,AFNE01.JPG,AFNE01.JPG,,,,,,,,,,,,,0,1,1,1,,,,,,,,,,,AFSA12.jpg,AFNE18.jpg,AFSA05.jpg,AFNE05.jpg,AFSA05.jpg,FS,4,num_2,16,num_2,0.766763145337,,,2017_Feb_06_1050,59.9976907628,MAFE4ImagesEEG,001,00002,
AFNE01.JPG,AFNE01.JPG,AFNE01.JPG,AFNE01.JPG,AFNE01.JPG,AFNE01.JPG,,,,,,,,,,,,,0,2,2,8,,,,,,,,,,,AFNE15.jpg,AFSA08.jpg,AFNE06.jpg,AFSA13.jpg,AFSA08.jpg,FS,4,num_6,32,num_2,0.583489212906,,,2017_Feb_06_1050,59.9976907628,MAFE4ImagesEEG,001,00002,
AFNE01.JPG,AFNE01.JPG,AFNE01.JPG,AFNE01.JPG,AFNE01.JPG,AFNE01.JPG,,,,,,,,,,,,,0,3,3,6,,,,,,,,,,,AFNE06.jpg,AFSA01.jpg,AFSA07.jpg,AFNE16.jpg,AFSA01.jpg,FS,4,num_6,32,num_2,0.750111938221,,,2017_Feb_06_1050,59.9976907628,MAFE4ImagesEEG,001,00002,
AFNE01.JPG,AFNE01.JPG,AFNE01.JPG,AFNE01.JPG,AFNE01.JPG,AFNE01.JPG,,,,,,,,,,,,,0,4,4,0,,,,,,,,,,,AFNE01.jpg,AFNE15.jpg,AFSA20.jpg,AFSA11.jpg,AFNE15.jpg,FN,3,num_6,32,num_2,0.650130925933,,,2017_Feb_06_1050,59.9976907628,MAFE4ImagesEEG,001,00002,
AFNE01.JPG,AFNE01.JPG,AFNE01.JPG,AFNE01.JPG,AFNE01.JPG,AFNE01.JPG,,,,,,,,,,,,,0,5,5,4,,,,,,,,,,,AFNE17.jpg,AFSA08.jpg,AFNE05.jpg,AFSA04.jpg,AFSA04.jpg,FS,4,num_4,32,num_2,1.01705726353,,,2017_Feb_06_1050,59.9976907628,MAFE4ImagesEEG,001,00002,
AFNE01.JPG,AFNE01.JPG,AFNE01.JPG,AFNE01.JPG,AFNE01.JPG,AFNE01.JPG,,,,,,,,,,,,,0,6,6,9,,,,,,,,,,,AFNE20.jpg,AFNE18.jpg,AFSA09.jpg,AFSA18.jpg,AFSA18.jpg,FS,4,num_4,48,None,,,,2017_Feb_06_1050,59.9976907628,MAFE4ImagesEEG,001,00002,
AFNE01.JPG,AFNE01.JPG,AFNE01.JPG,AFNE01.JPG,AFNE01.JPG,AFNE01.JPG,,,,,,,,,,,,,0,7,7,7,,,,,,,,,,,AFSA04.jpg,AFNE12.jpg,AFSA02.jpg,AFNE07.jpg,AFSA04.jpg,FS,4,num_8,48,None,,,,2017_Feb_06_1050,59.9976907628,MAFE4ImagesEEG,001,00002,
AFNE01.JPG,AFNE01.JPG,AFNE01.JPG,AFNE01.JPG,AFNE01.JPG,AFNE01.JPG,,,,,,,,,,,,,0,8,8,3,,,,,,,,,,,AFNE12.jpg,AFSA02.jpg,AFSA12.jpg,AFNE20.jpg,AFSA02.jpg,FS,4,num_6,32,num_2,1.86669091438,,,2017_Feb_06_1050,59.9976907628,MAFE4ImagesEEG,001,00002,
AFNE01.JPG,AFNE01.JPG,AFNE01.JPG,AFNE01.JPG,AFNE01.JPG,AFNE01.JPG,,,,,,,,,,,,,0,9,9,5,,,,,,,,,,,AFSA05.jpg,AFSA02.jpg,AFNE12.jpg,AFNE13.jpg,AFSA05.jpg,FS,4,num_8,48,None,,,,2017_Feb_06_1050,59.9976907628,MAFE4ImagesEEG,001,00002,
AFNE01.JPG,AFNE01.JPG,AFNE01.JPG,AFNE01.JPG,AFNE01.JPG,AFNE01.JPG,,,,,,,,,,,,,1,0,10,5,,,,,,,,,,,AFNE07.jpg,AFSA13.jpg,AFSA11.jpg,AFNE15.jpg,AFNE07.jpg,FN,3,num_8,48,None,,,,2017_Feb_06_1050,59.9976907628,MAFE4ImagesEEG,001,00002,
AFNE01.JPG,AFNE01.JPG,AFNE01.JPG,AFNE01.JPG,AFNE01.JPG,AFNE01.JPG,,,,,,,,,,,,,1,1,11,3,,,,,,,,,,,AFSA11.jpg,AFSA17.jpg,AFNE11.jpg,AFNE05.jpg,AFNE05.jpg,FN,3,num_4,48,None,,,,2017_Feb_06_1050,59.9976907628,MAFE4ImagesEEG,001,00002,
AFNE01.JPG,AFNE01.JPG,AFNE01.JPG,AFNE01.JPG,AFNE01.JPG,AFNE01.JPG,,,,,,,,,,,,,1,2,12,9,,,,,,,,,,,AFNE11.jpg,AFSA17.jpg,AFSA18.jpg,AFNE07.jpg,AFNE11.jpg,FN,3,num_8,48,None,,,,2017_Feb_06_1050,59.9976907628,MAFE4ImagesEEG,001,00002,
AFNE01.JPG,AFNE01.JPG,AFNE01.JPG,AFNE01.JPG,AFNE01.JPG,AFNE01.JPG,,,,,,,,,,,,,1,3,13,7,,,,,,,,,,,AFSA14.jpg,AFNE07.jpg,AFSA15.jpg,AFNE19.jpg,AFSA15.jpg,FS,4,num_2,48,None,,,,2017_Feb_06_1050,59.9976907628,MAFE4ImagesEEG,001,00002,
AFNE01.JPG,AFNE01.JPG,AFNE01.JPG,AFNE01.JPG,AFNE01.JPG,AFNE01.JPG,,,,,,,,,,,,,1,4,14,8,,,,,,,,,,,AFSA16.jpg,AFNE13.jpg,AFSA10.jpg,AFNE06.jpg,AFNE13.jpg,FN,3,num_6,32,num_2,0.883455342846,,,2017_Feb_06_1050,59.9976907628,MAFE4ImagesEEG,001,00002,
AFNE01.JPG,AFNE01.JPG,AFNE01.JPG,AFNE01.JPG,AFNE01.JPG,AFNE01.JPG,,,,,,,,,,,,,1,5,15,0,,,,,,,,,,,AFSA08.jpg,AFSA05.jpg,AFNE01.jpg,AFNE06.jpg,AFNE01.jpg,FN,3,num_2,48,None,,,,2017_Feb_06_1050,59.9976907628,MAFE4ImagesEEG,001,00002,
AFNE01.JPG,AFNE01.JPG,AFNE01.JPG,AFNE01.JPG,AFNE01.JPG,AFNE01.JPG,,,,,,,,,,,,,1,6,16,2,,,,,,,,,,,AFSA20.jpg,AFNE16.jpg,AFNE19.jpg,AFSA18.jpg,AFNE16.jpg,FN,3,num_6,48,None,,,,2017_Feb_06_1050,59.9976907628,MAFE4ImagesEEG,001,00002,
AFNE01.JPG,AFNE01.JPG,AFNE01.JPG,AFNE01.JPG,AFNE01.JPG,AFNE01.JPG,,,,,,,,,,,,,1,7,17,4,,,,,,,,,,,AFNE16.jpg,AFSA18.jpg,AFSA10.jpg,AFNE19.jpg,AFSA18.jpg,FS,4,num_6,32,num_2,0.816766480915,,,2017_Feb_06_1050,59.9976907628,MAFE4ImagesEEG,001,00002,
AFNE01.JPG,AFNE01.JPG,AFNE01.JPG,AFNE01.JPG,AFNE01.JPG,AFNE01.JPG,,,,,,,,,,,,,1,8,18,6,,,,,,,,,,,AFSA15.jpg,AFSA19.jpg,AFNE09.jpg,AFNE18.jpg,AFSA15.jpg,FS,4,num_8,48,None,,,,2017_Feb_06_1050,59.9976907628,MAFE4ImagesEEG,001,00002,
AFNE01.JPG,AFNE01.JPG,AFNE01.JPG,AFNE01.JPG,AFNE01.JPG,AFNE01.JPG,,,,,,,,,,,,,1,9,19,1,,,,,,,,,,,AFNE06.jpg,AFSA20.jpg,AFSA02.jpg,AFNE02.jpg,AFNE02.jpg,FN,3,num_4,48,None,,,,2017_Feb_06_1050,59.9976907628,MAFE4ImagesEEG,001,00002,
AFNE01.JPG,AFNE01.JPG,AFNE01.JPG,AFNE01.JPG,AFNE01.JPG,AFNE01.JPG,,,,,,,,,,,,,2,0,20,6,,,,,,,,,,,AFSA01.jpg,AFSA14.jpg,AFNE19.jpg,AFNE15.jpg,AFNE19.jpg,FN,3,num_2,48,None,,,,2017_Feb_06_1050,59.9976907628,MAFE4ImagesEEG,001,00002,
AFNE01.JPG,AFNE01.JPG,AFNE01.JPG,AFNE01.JPG,AFNE01.JPG,AFNE01.JPG,,,,,,,,,,,,,2,1,21,0,,,,,,,,,,,AFNE10.jpg,AFSA12.jpg,AFSA11.jpg,AFNE20.jpg,AFSA12.jpg,FS,4,num_6,48,None,,,,2017_Feb_06_1050,59.9976907628,MAFE4ImagesEEG,001,00002,
AFNE01.JPG,AFNE01.JPG,AFNE01.JPG,AFNE01.JPG,AFNE01.JPG,AFNE01.JPG,,,,,,,,,,,,,2,2,22,9,,,,,,,,,,,AFSA05.jpg,AFSA01.jpg,AFNE02.jpg,AFNE01.jpg,AFSA01.jpg,FS,4,num_6,32,num_2,0.800130669493,,,2017_Feb_06_1050,59.9976907628,MAFE4ImagesEEG,001,00002,
AFNE01.JPG,AFNE01.JPG,AFNE01.JPG,AFNE01.JPG,AFNE01.JPG,AFNE01.JPG,,,,,,,,,,,,,2,3,23,5,,,,,,,,,,,AFSA14.jpg,AFSA11.jpg,AFNE01.jpg,AFNE12.jpg,AFSA11.jpg,FS,4,num_6,32,num_2,0.750166143291,,,2017_Feb_06_1050,59.9976907628,MAFE4ImagesEEG,001,00002,
AFNE01.JPG,AFNE01.JPG,AFNE01.JPG,AFNE01.JPG,AFNE01.JPG,AFNE01.JPG,,,,,,,,,,,,,2,4,24,2,,,,,,,,,,,AFNE02.jpg,AFNE04.jpg,AFSA12.jpg,AFSA15.jpg,AFNE04.jpg,FN,3,num_6,32,num_2,1.23320029047,,,2017_Feb_06_1050,59.9976907628,MAFE4ImagesEEG,001,00002,
AFNE01.JPG,AFNE01.JPG,AFNE01.JPG,AFNE01.JPG,AFNE01.JPG,AFNE01.JPG,,,,,,,,,,,,,2,5,25,7,,,,,,,,,,,AFSA04.jpg,AFNE20.jpg,AFNE03.jpg,AFSA14.jpg,AFNE20.jpg,FN,3,num_6,32,num_2,0.750136956107,,,2017_Feb_06_1050,59.9976907628,MAFE4ImagesEEG,001,00002,
AFNE01.JPG,AFNE01.JPG,AFNE01.JPG,AFNE01.JPG,AFNE01.JPG,AFNE01.JPG,,,,,,,,,,,,,2,6,26,3,,,,,,,,,,,AFNE06.jpg,AFSA05.jpg,AFSA09.jpg,AFNE17.jpg,AFSA05.jpg,FS,4,num_6,48,None,,,,2017_Feb_06_1050,59.9976907628,MAFE4ImagesEEG,001,00002,
AFNE01.JPG,AFNE01.JPG,AFNE01.JPG,AFNE01.JPG,AFNE01.JPG,AFNE01.JPG,,,,,,,,,,,,,2,7,27,4,,,,,,,,,,,AFSA04.jpg,AFNE20.jpg,AFNE14.jpg,AFSA01.jpg,AFNE14.jpg,FN,3,num_2,48,None,,,,2017_Feb_06_1050,59.9976907628,MAFE4ImagesEEG,001,00002,
AFNE01.JPG,AFNE01.JPG,AFNE01.JPG,AFNE01.JPG,AFNE01.JPG,AFNE01.JPG,,,,,,,,,,,,,2,8,28,1,,,,,,,,,,,AFSA09.jpg,AFSA05.jpg,AFNE02.jpg,AFNE16.jpg,AFSA05.jpg,FS,4,num_6,32,num_2,1.38342775917,,,2017_Feb_06_1050,59.9976907628,MAFE4ImagesEEG,001,00002,
AFNE01.JPG,AFNE01.JPG,AFNE01.JPG,AFNE01.JPG,AFNE01.JPG,AFNE01.JPG,,,,,,,,,,,,,2,9,29,8,,,,,,,,,,,AFSA12.jpg,AFNE16.jpg,AFSA14.jpg,AFNE11.jpg,AFSA14.jpg,FS,4,num_2,16,num_2,0.733458806761,,,2017_Feb_06_1050,59.9976907628,MAFE4ImagesEEG,001,00002,
AFNE01.JPG,AFNE01.JPG,AFNE01.JPG,AFNE01.JPG,AFNE01.JPG,AFNE01.JPG,,,,,,,,,,,,,3,0,30,7,,,,,,,,,,,AFNE17.jpg,AFSA09.jpg,AFNE20.jpg,AFSA02.jpg,AFSA02.jpg,FS,4,num_4,32,num_2,0.883452776819,,,2017_Feb_06_1050,59.9976907628,MAFE4ImagesEEG,001,00002,
AFNE01.JPG,AFNE01.JPG,AFNE01.JPG,AFNE01.JPG,AFNE01.JPG,AFNE01.JPG,,,,,,,,,,,,,3,1,31,2,,,,,,,,,,,AFNE17.jpg,AFSA04.jpg,AFSA02.jpg,AFNE15.jpg,AFSA02.jpg,FS,4,num_2,16,num_2,0.766791370232,,,2017_Feb_06_1050,59.9976907628,MAFE4ImagesEEG,001,00002,
AFNE01.JPG,AFNE01.JPG,AFNE01.JPG,AFNE01.JPG,AFNE01.JPG,AFNE01.JPG,,,,,,,,,,,,,3,2,32,0,,,,,,,,,,,AFSA05.jpg,AFNE14.jpg,AFNE15.jpg,AFSA04.jpg,AFNE15.jpg,FN,3,num_2,48,None,,,,2017_Feb_06_1050,59.9976907628,MAFE4ImagesEEG,001,00002,
AFNE01.JPG,AFNE01.JPG,AFNE01.JPG,AFNE01.JPG,AFNE01.JPG,AFNE01.JPG,,,,,,,,,,,,,3,3,33,8,,,,,,,,,,,AFNE18.jpg,AFSA04.jpg,AFSA06.jpg,AFNE09.jpg,AFSA04.jpg,FS,4,num_6,48,None,,,,2017_Feb_06_1050,59.9976907628,MAFE4ImagesEEG,001,00002,
AFNE01.JPG,AFNE01.JPG,AFNE01.JPG,AFNE01.JPG,AFNE01.JPG,AFNE01.JPG,,,,,,,,,,,,,3,4,34,6,,,,,,,,,,,AFSA07.jpg,AFSA01.jpg,AFNE20.jpg,AFNE05.jpg,AFNE05.jpg,FN,3,num_4,48,None,,,,2017_Feb_06_1050,59.9976907628,MAFE4ImagesEEG,001,00002,
AFNE01.JPG,AFNE01.JPG,AFNE01.JPG,AFNE01.JPG,AFNE01.JPG,AFNE01.JPG,,,,,,,,,,,,,3,5,35,5,,,,,,,,,,,AFNE20.jpg,AFNE19.jpg,AFSA07.jpg,AFSA14.jpg,AFSA07.jpg,FS,4,num_2,16,num_2,0.716738640796,,,2017_Feb_06_1050,59.9976907628,MAFE4ImagesEEG,001,00002,
AFNE01.JPG,AFNE01.JPG,AFNE01.JPG,AFNE01.JPG,AFNE01.JPG,AFNE01.JPG,,,,,,,,,,,,,3,6,36,4,,,,,,,,,,,AFNE07.jpg,AFSA06.jpg,AFSA18.jpg,AFNE06.jpg,AFNE07.jpg,FN,3,num_8,48,None,,,,2017_Feb_06_1050,59.9976907628,MAFE4ImagesEEG,001,00002,
AFNE01.JPG,AFNE01.JPG,AFNE01.JPG,AFNE01.JPG,AFNE01.JPG,AFNE01.JPG,,,,,,,,,,,,,3,7,37,3,,,,,,,,,,,AFNE15.jpg,AFSA20.jpg,AFNE03.jpg,AFSA07.jpg,AFSA20.jpg,FS,4,num_6,32,num_2,1.00015106844,,,2017_Feb_06_1050,59.9976907628,MAFE4ImagesEEG,001,00002,
AFNE01.JPG,AFNE01.JPG,AFNE01.JPG,AFNE01.JPG,AFNE01.JPG,AFNE01.JPG,,,,,,,,,,,,,3,8,38,1,,,,,,,,,,,AFSA02.jpg,AFSA09.jpg,AFNE17.jpg,AFNE20.jpg,AFNE20.jpg,FN,3,num_4,48,None,,,,2017_Feb_06_1050,59.9976907628,MAFE4ImagesEEG,001,00002,
AFNE01.JPG,AFNE01.JPG,AFNE01.JPG,AFNE01.JPG,AFNE01.JPG,AFNE01.JPG,,,,,,,,,,,,,3,9,39,9,,,,,,,,,,,AFSA12.jpg,AFSA13.jpg,AFNE08.jpg,AFNE18.jpg,AFSA13.jpg,FS,4,num_6,32,num_2,0.783459255705,,,2017_Feb_06_1050,59.9976907628,MAFE4ImagesEEG,001,00002,
AFNE01.JPG,AFNE01.JPG,AFNE01.JPG,AFNE01.JPG,AFNE01.JPG,AFNE01.JPG,,,,,,,,,,,,,4,0,40,4,,,,,,,,,,,AFSA19.jpg,AFSA09.jpg,AFNE01.jpg,AFNE08.jpg,AFSA19.jpg,FS,4,num_8,48,None,,,,2017_Feb_06_1050,59.9976907628,MAFE4ImagesEEG,001,00002,
AFNE01.JPG,AFNE01.JPG,AFNE01.JPG,AFNE01.JPG,AFNE01.JPG,AFNE01.JPG,,,,,,,,,,,,,4,1,41,3,,,,,,,,,,,AFSA02.jpg,AFSA20.jpg,AFNE16.jpg,AFNE09.jpg,AFNE16.jpg,FN,3,num_2,16,num_2,0.716768790269,,,2017_Feb_06_1050,59.9976907628,MAFE4ImagesEEG,001,00002,
AFNE01.JPG,AFNE01.JPG,AFNE01.JPG,AFNE01.JPG,AFNE01.JPG,AFNE01.JPG,,,,,,,,,,,,,4,2,42,7,,,,,,,,,,,AFSA11.jpg,AFSA10.jpg,AFNE08.jpg,AFNE05.jpg,AFSA11.jpg,FS,4,num_8,32,num_2,1.00010167458,,,2017_Feb_06_1050,59.9976907628,MAFE4ImagesEEG,001,00002,
AFNE01.JPG,AFNE01.JPG,AFNE01.JPG,AFNE01.JPG,AFNE01.JPG,AFNE01.JPG,,,,,,,,,,,,,4,3,43,1,,,,,,,,,,,AFNE15.jpg,AFSA14.jpg,AFSA08.jpg,AFNE09.jpg,AFNE09.jpg,FN,3,num_4,48,None,,,,2017_Feb_06_1050,59.9976907628,MAFE4ImagesEEG,001,00002,
AFNE01.JPG,AFNE01.JPG,AFNE01.JPG,AFNE01.JPG,AFNE01.JPG,AFNE01.JPG,,,,,,,,,,,,,4,4,44,9,,,,,,,,,,,AFNE13.jpg,AFSA12.jpg,AFSA18.jpg,AFNE06.jpg,AFNE13.jpg,FN,3,num_8,48,None,,,,2017_Feb_06_1050,59.9976907628,MAFE4ImagesEEG,001,00002,
AFNE01.JPG,AFNE01.JPG,AFNE01.JPG,AFNE01.JPG,AFNE01.JPG,AFNE01.JPG,,,,,,,,,,,,,4,5,45,5,,,,,,,,,,,AFSA17.jpg,AFSA13.jpg,AFNE02.jpg,AFNE20.jpg,AFSA17.jpg,FS,4,num_8,32,num_2,0.95015158155,,,2017_Feb_06_1050,59.9976907628,MAFE4ImagesEEG,001,00002,
AFNE01.JPG,AFNE01.JPG,AFNE01.JPG,AFNE01.JPG,AFNE01.JPG,AFNE01.JPG,,,,,,,,,,,,,4,6,46,2,,,,,,,,,,,AFSA19.jpg,AFNE14.jpg,AFNE02.jpg,AFSA05.jpg,AFSA05.jpg,FS,4,num_4,48,None,,,,2017_Feb_06_1050,59.9976907628,MAFE4ImagesEEG,001,00002,
AFNE01.JPG,AFNE01.JPG,AFNE01.JPG,AFNE01.JPG,AFNE01.JPG,AFNE01.JPG,,,,,,,,,,,,,4,7,47,6,,,,,,,,,,,AFSA06.jpg,AFNE07.jpg,AFNE02.jpg,AFSA16.jpg,AFNE02.jpg,FN,3,num_2,16,num_2,0.983454957837,,,2017_Feb_06_1050,59.9976907628,MAFE4ImagesEEG,001,00002,
AFNE01.JPG,AFNE01.JPG,AFNE01.JPG,AFNE01.JPG,AFNE01.JPG,AFNE01.JPG,,,,,,,,,,,,,4,8,48,8,,,,,,,,,,,AFNE19.jpg,AFSA19.jpg,AFNE04.jpg,AFSA10.jpg,AFSA19.jpg,FS,4,num_6,32,num_2,0.716794770211,,,2017_Feb_06_1050,59.9976907628,MAFE4ImagesEEG,001,00002,
AFNE01.JPG,AFNE01.JPG,AFNE01.JPG,AFNE01.JPG,AFNE01.JPG,AFNE01.JPG,,,,,,,,,,,,,4,9,49,0,,,,,,,,,,,AFNE02.jpg,AFSA13.jpg,AFNE01.jpg,AFSA07.jpg,AFSA07.jpg,FS,4,num_4,16,num_4,1.45008711284,,,2017_Feb_06_1050,59.9976907628,MAFE4ImagesEEG,001,00002,
AFNE01.JPG,AFNE01.JPG,AFNE01.JPG,AFNE01.JPG,AFNE01.JPG,AFNE01.JPG,,,,,,,,,,,,,5,0,50,0,,,,,,,,,,,AFNE05.jpg,AFSA20.jpg,AFSA12.jpg,AFNE08.jpg,AFNE05.jpg,FN,3,num_8,32,num_4,1.86672010203,,,2017_Feb_06_1050,59.9976907628,MAFE4ImagesEEG,001,00002,
AFNE01.JPG,AFNE01.JPG,AFNE01.JPG,AFNE01.JPG,AFNE01.JPG,AFNE01.JPG,,,,,,,,,,,,,5,1,51,9,,,,,,,,,,,AFNE15.jpg,AFNE14.jpg,AFSA07.jpg,AFSA05.jpg,AFSA05.jpg,FS,4,num_4,16,num_4,1.01675544749,,,2017_Feb_06_1050,59.9976907628,MAFE4ImagesEEG,001,00002,
AFNE01.JPG,AFNE01.JPG,AFNE01.JPG,AFNE01.JPG,AFNE01.JPG,AFNE01.JPG,,,,,,,,,,,,,5,2,52,8,,,,,,,,,,,AFSA13.jpg,AFNE03.jpg,AFNE04.jpg,AFSA06.jpg,AFNE04.jpg,FN,3,num_2,48,None,,,,2017_Feb_06_1050,59.9976907628,MAFE4ImagesEEG,001,00002,
AFNE01.JPG,AFNE01.JPG,AFNE01.JPG,AFNE01.JPG,AFNE01.JPG,AFNE01.JPG,,,,,,,,,,,,,5,3,53,4,,,,,,,,,,,AFNE01.jpg,AFNE17.jpg,AFSA09.jpg,AFSA17.jpg,AFNE01.jpg,FN,3,num_8,32,num_4,2.06669110688,,,2017_Feb_06_1050,59.9976907628,MAFE4ImagesEEG,001,00002,
AFNE01.JPG,AFNE01.JPG,AFNE01.JPG,AFNE01.JPG,AFNE01.JPG,AFNE01.JPG,,,,,,,,,,,,,5,4,54,2,,,,,,,,,,,AFSA03.jpg,AFSA04.jpg,AFNE05.jpg,AFNE11.jpg,AFNE05.jpg,FN,3,num_2,48,None,,,,2017_Feb_06_1050,59.9976907628,MAFE4ImagesEEG,001,00002,
AFNE01.JPG,AFNE01.JPG,AFNE01.JPG,AFNE01.JPG,AFNE01.JPG,AFNE01.JPG,,,,,,,,,,,,,5,5,55,6,,,,,,,,,,,AFNE07.jpg,AFSA17.jpg,AFSA02.jpg,AFNE14.jpg,AFNE07.jpg,FN,3,num_8,48,None,,,,2017_Feb_06_1050,59.9976907628,MAFE4ImagesEEG,001,00002,
AFNE01.JPG,AFNE01.JPG,AFNE01.JPG,AFNE01.JPG,AFNE01.JPG,AFNE01.JPG,,,,,,,,,,,,,5,6,56,1,,,,,,,,,,,AFSA13.jpg,AFSA03.jpg,AFNE09.jpg,AFNE14.jpg,AFNE14.jpg,FN,3,num_4,48,None,,,,2017_Feb_06_1050,59.9976907628,MAFE4ImagesEEG,001,00002,
AFNE01.JPG,AFNE01.JPG,AFNE01.JPG,AFNE01.JPG,AFNE01.JPG,AFNE01.JPG,,,,,,,,,,,,,5,7,57,7,,,,,,,,,,,AFNE04.jpg,AFSA11.jpg,AFSA13.jpg,AFNE11.jpg,AFNE11.jpg,FN,3,num_4,32,num_2,0.800156970043,,,2017_Feb_06_1050,59.9976907628,MAFE4ImagesEEG,001,00002,
AFNE01.JPG,AFNE01.JPG,AFNE01.JPG,AFNE01.JPG,AFNE01.JPG,AFNE01.JPG,,,,,,,,,,,,,5,8,58,5,,,,,,,,,,,AFSA07.jpg,AFSA12.jpg,AFNE06.jpg,AFNE02.jpg,AFSA12.jpg,FS,4,num_6,32,num_2,0.533470481634,,,2017_Feb_06_1050,59.9976907628,MAFE4ImagesEEG,001,00002,
AFNE01.JPG,AFNE01.JPG,AFNE01.JPG,AFNE01.JPG,AFNE01.JPG,AFNE01.JPG,,,,,,,,,,,,,5,9,59,3,,,,,,,,,,,AFSA14.jpg,AFNE19.jpg,AFSA16.jpg,AFNE01.jpg,AFSA14.jpg,FS,4,num_8,48,None,,,,2017_Feb_06_1050,59.9976907628,MAFE4ImagesEEG,001,00002,
