IPosition2,IPosition3,IPosition1,IPosition6,IPosition4,IPosition5,TrialsF1.thisRepN,TrialsF1.thisTrialN,TrialsF1.thisN,TrialsF1.thisIndex,TrialsM1.thisRepN,TrialsM1.thisTrialN,TrialsM1.thisN,TrialsM1.thisIndex,TrialsF2.thisRepN,TrialsF2.thisTrialN,TrialsF2.thisN,TrialsF2.thisIndex,TrialsM2.thisRepN,TrialsM2.thisTrialN,TrialsM2.thisN,TrialsM2.thisIndex,TrialsF3.thisRepN,TrialsF3.thisTrialN,TrialsF3.thisN,TrialsF3.thisIndex,TrialsM3.thisRepN,TrialsM3.thisTrialN,TrialsM3.thisN,TrialsM3.thisIndex,InstrKey_resp.keys,InstrKey_resp.rt,Image0 _Position,Image1 _Position,Image2 _Position,Image3 _Position,Center_image,condition,code,correct_answer,accuracy,Key_Resp.keys,Key_Resp.rt,BreakKey_resp.keys,BreakKey_resp.rt,date,frameRate,expName,session,participant,
,,,,,,,,,,,,,,,,,,,,,,,,,,,,,,space,11.1327676768,,,,,,,,,,,,,,2017_Feb_22_1635,60.003695194,FEMA4ImagesEEG,001,000008,
AMSA25.JPG,AMNE24.JPG,AMSA24.JPG,AMNE26.JPG,AMSA21.JPG,AMNE25.JPG,0,0,0,3,,,,,,,,,,,,,,,,,,,,,,,AFNE15.jpg,AFSA16.jpg,AFNE16.jpg,AFSA18.jpg,AFSA16.jpg,FS,4,num_6,32,num_8,0.983492805157,,,2017_Feb_22_1635,60.003695194,FEMA4ImagesEEG,001,000008,
AMSA21.JPG,AMNE23.JPG,AMNE21.JPG,AMSA25.JPG,AMNE25.JPG,AMSA23.JPG,0,1,1,5,,,,,,,,,,,,,,,,,,,,,,,AFNE09.jpg,AFSA12.jpg,AFNE19.jpg,AFSA18.jpg,AFSA12.jpg,FS,4,num_6,16,num_6,0.750175124034,,,2017_Feb_22_1635,60.003695194,FEMA4ImagesEEG,001,000008,
AFNE22.JPG,AFSA24.JPG,AFSA22.JPG,AFNE25.JPG,AFNE24.JPG,AFSA25.JPG,0,2,2,6,,,,,,,,,,,,,,,,,,,,,,,AFNE01.jpg,AFSA10.jpg,AFSA11.jpg,AFNE02.jpg,AFSA10.jpg,FS,4,num_6,32,num_2,1.41675134189,,,2017_Feb_22_1635,60.003695194,FEMA4ImagesEEG,001,000008,
AFNE23.JPG,AFNE24.JPG,AFNE22.JPG,AFSA24.JPG,AFSA22.JPG,AFSA23.JPG,0,3,3,8,,,,,,,,,,,,,,,,,,,,,,,AFNE11.jpg,AFNE08.jpg,AFSA06.jpg,AFSA04.jpg,AFNE08.jpg,FN,3,num_6,32,num_8,1.1001311182,,,2017_Feb_22_1635,60.003695194,FEMA4ImagesEEG,001,000008,
AFSA21.JPG,AFNE23.JPG,AFNE21.JPG,AFSA25.JPG,AFNE25.JPG,AFSA23.JPG,0,4,4,4,,,,,,,,,,,,,,,,,,,,,,,AFNE13.jpg,AFSA07.jpg,AFSA04.jpg,AFNE15.jpg,AFNE15.jpg,FN,3,num_4,16,num_4,1.01679810602,,,2017_Feb_22_1635,60.003695194,FEMA4ImagesEEG,001,000008,
AMNE22.JPG,AMSA24.JPG,AMSA22.JPG,AMNE25.JPG,AMNE24.JPG,AMSA25.JPG,0,5,5,7,,,,,,,,,,,,,,,,,,,,,,,AFSA05.jpg,AFNE12.jpg,AFNE20.jpg,AFSA18.jpg,AFNE12.jpg,FN,3,num_6,32,num_8,0.95015960047,,,2017_Feb_22_1635,60.003695194,FEMA4ImagesEEG,001,000008,
AFSA25.JPG,AFNE24.JPG,AFSA24.JPG,AFNE21.JPG,AFSA21.JPG,AFNE25.JPG,0,6,6,2,,,,,,,,,,,,,,,,,,,,,,,AFSA10.jpg,AFNE04.jpg,AFNE19.jpg,AFSA05.jpg,AFSA05.jpg,FS,4,num_4,16,num_4,1.26676154183,,,2017_Feb_22_1635,60.003695194,FEMA4ImagesEEG,001,000008,
AMSA21.JPG,AMNE22.JPG,AMNE21.JPG,AMSA23.JPG,AMSA22.JPG,AMNE23.JPG,0,7,7,1,,,,,,,,,,,,,,,,,,,,,,,AFNE13.jpg,AFSA02.jpg,AFSA03.jpg,AFNE14.jpg,AFSA02.jpg,FS,4,num_6,32,num_2,1.26643855637,,,2017_Feb_22_1635,60.003695194,FEMA4ImagesEEG,001,000008,
AMNE23.JPG,AMNE24.JPG,AMNE22.JPG,AMSA24.JPG,AMSA22.JPG,AMSA23.JPG,0,8,8,9,,,,,,,,,,,,,,,,,,,,,,,AFNE15.jpg,AFSA02.jpg,AFNE04.jpg,AFSA17.jpg,AFSA17.jpg,FS,4,num_4,16,num_4,0.833465798758,,,2017_Feb_22_1635,60.003695194,FEMA4ImagesEEG,001,000008,
AFSA21.JPG,AFNE22.JPG,AFNE21.JPG,AFSA23.JPG,AFSA22.JPG,AFNE23.JPG,0,9,9,0,,,,,,,,,,,,,,,,,,,,,,,AFSA06.jpg,AFNE01.jpg,AFSA07.jpg,AFNE11.jpg,AFNE11.jpg,FN,3,num_4,16,num_4,0.933602049015,,,2017_Feb_22_1635,60.003695194,FEMA4ImagesEEG,001,000008,
AMSA25.JPG,AMNE24.JPG,AMSA24.JPG,AMNE26.JPG,AMSA21.JPG,AMNE25.JPG,,,,,0,0,0,3,,,,,,,,,,,,,,,,,,,AMNE08.jpg,AMSA09.jpg,AMNE14.jpg,AMSA16.jpg,AMSA16.jpg,MS,2,num_4,32,num_6,0.800171724055,,,2017_Feb_22_1635,60.003695194,FEMA4ImagesEEG,001,000008,
AMNE22.JPG,AMSA24.JPG,AMSA22.JPG,AMNE25.JPG,AMNE24.JPG,AMSA25.JPG,,,,,0,1,1,7,,,,,,,,,,,,,,,,,,,AMNE14.jpg,AMSA09.jpg,AMSA05.jpg,AMNE07.jpg,AMSA05.jpg,MS,2,num_2,16,num_2,0.766795860603,,,2017_Feb_22_1635,60.003695194,FEMA4ImagesEEG,001,000008,
AFNE23.JPG,AFNE24.JPG,AFNE22.JPG,AFSA24.JPG,AFSA22.JPG,AFSA23.JPG,,,,,0,2,2,8,,,,,,,,,,,,,,,,,,,AMSA14.jpg,AMNE20.jpg,AMNE17.jpg,AMSA19.jpg,AMSA19.jpg,MS,2,num_4,16,num_4,0.733477409929,,,2017_Feb_22_1635,60.003695194,FEMA4ImagesEEG,001,000008,
AMNE23.JPG,AMNE24.JPG,AMNE22.JPG,AMSA24.JPG,AMSA22.JPG,AMSA23.JPG,,,,,0,3,3,9,,,,,,,,,,,,,,,,,,,AMNE16.jpg,AMSA19.jpg,AMNE20.jpg,AMSA07.jpg,AMNE16.jpg,MN,1,num_8,16,num_8,1.38342358964,,,2017_Feb_22_1635,60.003695194,FEMA4ImagesEEG,001,000008,
AFNE22.JPG,AFSA24.JPG,AFSA22.JPG,AFNE25.JPG,AFNE24.JPG,AFSA25.JPG,,,,,0,4,4,6,,,,,,,,,,,,,,,,,,,AMSA08.jpg,AMNE16.jpg,AMNE07.jpg,AMSA14.jpg,AMNE07.jpg,MN,1,num_2,32,num_8,1.16670291033,,,2017_Feb_22_1635,60.003695194,FEMA4ImagesEEG,001,000008,
AFSA21.JPG,AFNE22.JPG,AFNE21.JPG,AFSA23.JPG,AFSA22.JPG,AFNE23.JPG,,,,,0,5,5,0,,,,,,,,,,,,,,,,,,,AMNE03.jpg,AMSA10.jpg,AMSA12.jpg,AMNE06.jpg,AMNE06.jpg,MN,1,num_4,16,num_4,0.916751021519,,,2017_Feb_22_1635,60.003695194,FEMA4ImagesEEG,001,000008,
AMSA21.JPG,AMNE23.JPG,AMNE21.JPG,AMSA25.JPG,AMNE25.JPG,AMSA23.JPG,,,,,0,6,6,5,,,,,,,,,,,,,,,,,,,AMSA20.jpg,AMNE05.jpg,AMNE16.jpg,AMSA04.jpg,AMSA20.jpg,MS,2,num_8,16,num_8,1.05021309946,,,2017_Feb_22_1635,60.003695194,FEMA4ImagesEEG,001,000008,
AMSA21.JPG,AMNE22.JPG,AMNE21.JPG,AMSA23.JPG,AMSA22.JPG,AMNE23.JPG,,,,,0,7,7,1,,,,,,,,,,,,,,,,,,,AMNE05.jpg,AMSA15.jpg,AMSA04.jpg,AMNE17.jpg,AMNE17.jpg,MN,1,num_4,32,num_8,0.83347413782,,,2017_Feb_22_1635,60.003695194,FEMA4ImagesEEG,001,000008,
AFSA21.JPG,AFNE23.JPG,AFNE21.JPG,AFSA25.JPG,AFNE25.JPG,AFSA23.JPG,,,,,0,8,8,4,,,,,,,,,,,,,,,,,,,AMNE03.jpg,AMSA07.jpg,AMNE14.jpg,AMSA12.jpg,AMSA07.jpg,MS,2,num_6,32,num_8,1.0667757825,,,2017_Feb_22_1635,60.003695194,FEMA4ImagesEEG,001,000008,
AFSA25.JPG,AFNE24.JPG,AFSA24.JPG,AFNE21.JPG,AFSA21.JPG,AFNE25.JPG,,,,,0,9,9,2,,,,,,,,,,,,,,,,,,,AMSA09.jpg,AMNE05.jpg,AMNE20.jpg,AMSA13.jpg,AMSA13.jpg,MS,2,num_4,16,num_4,0.766826651525,,,2017_Feb_22_1635,60.003695194,FEMA4ImagesEEG,001,000008,
AMSA25.JPG,AMNE24.JPG,AMSA24.JPG,AMNE26.JPG,AMSA21.JPG,AMNE25.JPG,,,,,,,,,0,0,0,3,,,,,,,,,,,,,,,AFNE11.jpg,AFSA15.jpg,AFNE01.jpg,AFSA14.jpg,AFSA15.jpg,FS,4,num_6,32,num_2,0.966841277201,,,2017_Feb_22_1635,60.003695194,FEMA4ImagesEEG,001,000008,
AMNE23.JPG,AMNE24.JPG,AMNE22.JPG,AMSA24.JPG,AMSA22.JPG,AMSA23.JPG,,,,,,,,,0,1,1,9,,,,,,,,,,,,,,,AFSA09.jpg,AFNE03.jpg,AFSA20.jpg,AFNE17.jpg,AFSA20.jpg,FS,4,num_2,32,num_4,1.10016415454,,,2017_Feb_22_1635,60.003695194,FEMA4ImagesEEG,001,000008,
AMNE22.JPG,AMSA24.JPG,AMSA22.JPG,AMNE25.JPG,AMNE24.JPG,AMSA25.JPG,,,,,,,,,0,2,2,7,,,,,,,,,,,,,,,AFSA05.jpg,AFNE04.jpg,AFSA02.jpg,AFNE06.jpg,AFSA05.jpg,FS,4,num_8,32,num_2,0.867102744523,,,2017_Feb_22_1635,60.003695194,FEMA4ImagesEEG,001,000008,
AFSA21.JPG,AFNE23.JPG,AFNE21.JPG,AFSA25.JPG,AFNE25.JPG,AFSA23.JPG,,,,,,,,,0,3,3,4,,,,,,,,,,,,,,,AFNE09.jpg,AFNE06.jpg,AFSA05.jpg,AFSA11.jpg,AFNE06.jpg,FN,3,num_6,32,num_8,1.03346438799,,,2017_Feb_22_1635,60.003695194,FEMA4ImagesEEG,001,000008,
AMSA21.JPG,AMNE22.JPG,AMNE21.JPG,AMSA23.JPG,AMSA22.JPG,AMNE23.JPG,,,,,,,,,0,4,4,1,,,,,,,,,,,,,,,AFSA15.jpg,AFNE11.jpg,AFSA17.jpg,AFNE13.jpg,AFSA15.jpg,FS,4,num_8,32,num_4,1.35009070532,,,2017_Feb_22_1635,60.003695194,FEMA4ImagesEEG,001,000008,
AFNE22.JPG,AFSA24.JPG,AFSA22.JPG,AFNE25.JPG,AFNE24.JPG,AFSA25.JPG,,,,,,,,,0,5,5,6,,,,,,,,,,,,,,,AFSA03.jpg,AFSA09.jpg,AFNE11.jpg,AFNE04.jpg,AFNE11.jpg,FN,3,num_2,16,num_2,0.600153890904,,,2017_Feb_22_1635,60.003695194,FEMA4ImagesEEG,001,000008,
AMSA21.JPG,AMNE23.JPG,AMNE21.JPG,AMSA25.JPG,AMNE25.JPG,AMSA23.JPG,,,,,,,,,0,6,6,5,,,,,,,,,,,,,,,AFNE10.jpg,AFSA01.jpg,AFNE16.jpg,AFSA05.jpg,AFSA05.jpg,FS,4,num_4,16,num_4,1.03350448003,,,2017_Feb_22_1635,60.003695194,FEMA4ImagesEEG,001,000008,
AFSA21.JPG,AFNE22.JPG,AFNE21.JPG,AFSA23.JPG,AFSA22.JPG,AFNE23.JPG,,,,,,,,,0,7,7,0,,,,,,,,,,,,,,,AFNE18.jpg,AFSA05.jpg,AFSA20.jpg,AFNE09.jpg,AFNE09.jpg,FN,3,num_4,16,num_4,0.933471508324,,,2017_Feb_22_1635,60.003695194,FEMA4ImagesEEG,001,000008,
AFSA25.JPG,AFNE24.JPG,AFSA24.JPG,AFNE21.JPG,AFSA21.JPG,AFNE25.JPG,,,,,,,,,0,8,8,2,,,,,,,,,,,,,,,AFNE03.jpg,AFNE20.jpg,AFSA09.jpg,AFSA06.jpg,AFNE20.jpg,FN,3,num_6,16,num_6,1.03333063889,,,2017_Feb_22_1635,60.003695194,FEMA4ImagesEEG,001,000008,
AFNE23.JPG,AFNE24.JPG,AFNE22.JPG,AFSA24.JPG,AFSA22.JPG,AFSA23.JPG,,,,,,,,,0,9,9,8,,,,,,,,,,,,,,,AFSA03.jpg,AFNE12.jpg,AFNE11.jpg,AFSA05.jpg,AFSA03.jpg,FS,4,num_8,32,num_6,1.81671259645,,,2017_Feb_22_1635,60.003695194,FEMA4ImagesEEG,001,000008,
AMNE23.JPG,AMNE24.JPG,AMNE22.JPG,AMSA24.JPG,AMSA22.JPG,AMSA23.JPG,,,,,,,,,,,,,0,0,0,9,,,,,,,,,,,AMSA07.jpg,AMSA13.jpg,AMNE17.jpg,AMNE03.jpg,AMNE03.jpg,MN,1,num_4,16,num_4,0.933447452262,,,2017_Feb_22_1635,60.003695194,FEMA4ImagesEEG,001,000008,
AMNE22.JPG,AMSA24.JPG,AMSA22.JPG,AMNE25.JPG,AMNE24.JPG,AMSA25.JPG,,,,,,,,,,,,,0,1,1,7,,,,,,,,,,,AMNE16.jpg,AMSA15.jpg,AMSA17.jpg,AMNE07.jpg,AMNE07.jpg,MN,1,num_4,16,num_4,0.850134004839,,,2017_Feb_22_1635,60.003695194,FEMA4ImagesEEG,001,000008,
AFSA21.JPG,AFNE22.JPG,AFNE21.JPG,AFSA23.JPG,AFSA22.JPG,AFNE23.JPG,,,,,,,,,,,,,0,2,2,0,,,,,,,,,,,AMSA16.jpg,AMSA20.jpg,AMNE15.jpg,AMNE10.jpg,AMSA20.jpg,MS,2,num_6,16,num_6,0.750142729376,,,2017_Feb_22_1635,60.003695194,FEMA4ImagesEEG,001,000008,
AMSA21.JPG,AMNE22.JPG,AMNE21.JPG,AMSA23.JPG,AMSA22.JPG,AMNE23.JPG,,,,,,,,,,,,,0,3,3,1,,,,,,,,,,,AMSA04.jpg,AMSA15.jpg,AMNE20.jpg,AMNE17.jpg,AMSA15.jpg,MS,2,num_6,16,num_6,0.950098338537,,,2017_Feb_22_1635,60.003695194,FEMA4ImagesEEG,001,000008,
AFNE23.JPG,AFNE24.JPG,AFNE22.JPG,AFSA24.JPG,AFSA22.JPG,AFSA23.JPG,,,,,,,,,,,,,0,4,4,8,,,,,,,,,,,AMNE10.jpg,AMSA14.jpg,AMNE03.jpg,AMSA08.jpg,AMNE03.jpg,MN,1,num_2,32,num_4,0.800145744346,,,2017_Feb_22_1635,60.003695194,FEMA4ImagesEEG,001,000008,
AFSA21.JPG,AFNE23.JPG,AFNE21.JPG,AFSA25.JPG,AFNE25.JPG,AFSA23.JPG,,,,,,,,,,,,,0,5,5,4,,,,,,,,,,,AMNE18.jpg,AMNE16.jpg,AMSA13.jpg,AMSA17.jpg,AMNE18.jpg,MN,1,num_8,32,num_2,0.883453739341,,,2017_Feb_22_1635,60.003695194,FEMA4ImagesEEG,001,000008,
AFNE22.JPG,AFSA24.JPG,AFSA22.JPG,AFNE25.JPG,AFNE24.JPG,AFSA25.JPG,,,,,,,,,,,,,0,6,6,6,,,,,,,,,,,AMSA19.jpg,AMNE10.jpg,AMSA16.jpg,AMNE08.jpg,AMNE08.jpg,MN,1,num_4,32,num_8,0.800198024604,,,2017_Feb_22_1635,60.003695194,FEMA4ImagesEEG,001,000008,
AMSA21.JPG,AMNE23.JPG,AMNE21.JPG,AMSA25.JPG,AMNE25.JPG,AMSA23.JPG,,,,,,,,,,,,,0,7,7,5,,,,,,,,,,,AMSA15.jpg,AMNE20.jpg,AMNE19.jpg,AMSA08.jpg,AMSA15.jpg,MS,2,num_8,32,num_2,0.716776808724,,,2017_Feb_22_1635,60.003695194,FEMA4ImagesEEG,001,000008,
AMSA25.JPG,AMNE24.JPG,AMSA24.JPG,AMNE26.JPG,AMSA21.JPG,AMNE25.JPG,,,,,,,,,,,,,0,8,8,3,,,,,,,,,,,AMSA12.jpg,AMNE02.jpg,AMSA18.jpg,AMNE04.jpg,AMNE02.jpg,MN,1,num_6,32,num_4,0.933452584315,,,2017_Feb_22_1635,60.003695194,FEMA4ImagesEEG,001,000008,
AFSA25.JPG,AFNE24.JPG,AFSA24.JPG,AFNE21.JPG,AFSA21.JPG,AFNE25.JPG,,,,,,,,,,,,,0,9,9,2,,,,,,,,,,,AMNE11.jpg,AMSA07.jpg,AMSA05.jpg,AMNE19.jpg,AMSA05.jpg,MS,2,num_2,32,num_8,0.950084226206,,,2017_Feb_22_1635,60.003695194,FEMA4ImagesEEG,001,000008,
AMNE22.JPG,AMSA24.JPG,AMSA22.JPG,AMNE25.JPG,AMNE24.JPG,AMSA25.JPG,,,,,,,,,,,,,,,,,0,0,0,7,,,,,,,AFNE18.jpg,AFNE09.jpg,AFSA05.jpg,AFSA20.jpg,AFSA20.jpg,FS,4,num_4,16,num_4,0.800125858281,,,2017_Feb_22_1635,60.003695194,FEMA4ImagesEEG,001,000008,
AMSA25.JPG,AMNE24.JPG,AMSA24.JPG,AMNE26.JPG,AMSA21.JPG,AMNE25.JPG,,,,,,,,,,,,,,,,,0,1,1,3,,,,,,,AFNE17.jpg,AFSA02.jpg,AFSA20.jpg,AFNE05.jpg,AFSA20.jpg,FS,4,num_2,16,num_2,0.799989543855,,,2017_Feb_22_1635,60.003695194,FEMA4ImagesEEG,001,000008,
AFSA21.JPG,AFNE23.JPG,AFNE21.JPG,AFSA25.JPG,AFNE25.JPG,AFSA23.JPG,,,,,,,,,,,,,,,,,0,2,2,4,,,,,,,AFNE17.jpg,AFSA11.jpg,AFSA19.jpg,AFNE20.jpg,AFNE20.jpg,FN,3,num_4,32,num_8,1.05017172405,,,2017_Feb_22_1635,60.003695194,FEMA4ImagesEEG,001,000008,
AFNE22.JPG,AFSA24.JPG,AFSA22.JPG,AFNE25.JPG,AFNE24.JPG,AFSA25.JPG,,,,,,,,,,,,,,,,,0,3,3,6,,,,,,,AFNE03.jpg,AFSA12.jpg,AFNE11.jpg,AFSA02.jpg,AFNE11.jpg,FN,3,num_2,16,num_2,0.900130284484,,,2017_Feb_22_1635,60.003695194,FEMA4ImagesEEG,001,000008,
AFNE23.JPG,AFNE24.JPG,AFNE22.JPG,AFSA24.JPG,AFSA22.JPG,AFSA23.JPG,,,,,,,,,,,,,,,,,0,4,4,8,,,,,,,AFNE20.jpg,AFSA19.jpg,AFNE04.jpg,AFSA07.jpg,AFSA07.jpg,FS,4,num_4,16,num_4,1.06675044401,,,2017_Feb_22_1635,60.003695194,FEMA4ImagesEEG,001,000008,
AMNE23.JPG,AMNE24.JPG,AMNE22.JPG,AMSA24.JPG,AMSA22.JPG,AMSA23.JPG,,,,,,,,,,,,,,,,,0,5,5,9,,,,,,,AFNE18.jpg,AFSA13.jpg,AFSA08.jpg,AFNE08.jpg,AFNE08.jpg,FN,3,num_4,32,num_8,1.10015068389,,,2017_Feb_22_1635,60.003695194,FEMA4ImagesEEG,001,000008,
AFSA21.JPG,AFNE22.JPG,AFNE21.JPG,AFSA23.JPG,AFSA22.JPG,AFNE23.JPG,,,,,,,,,,,,,,,,,0,6,6,0,,,,,,,AFNE11.jpg,AFSA01.jpg,AFSA11.jpg,AFNE07.jpg,AFSA01.jpg,FS,4,num_6,32,num_8,1.30009827483,,,2017_Feb_22_1635,60.003695194,FEMA4ImagesEEG,001,000008,
AFSA25.JPG,AFNE24.JPG,AFSA24.JPG,AFNE21.JPG,AFSA21.JPG,AFNE25.JPG,,,,,,,,,,,,,,,,,0,7,7,2,,,,,,,AFNE16.jpg,AFSA16.jpg,AFSA02.jpg,AFNE09.jpg,AFNE09.jpg,FN,3,num_4,32,num_8,1.01681670872,,,2017_Feb_22_1635,60.003695194,FEMA4ImagesEEG,001,000008,
AMSA21.JPG,AMNE22.JPG,AMNE21.JPG,AMSA23.JPG,AMSA22.JPG,AMNE23.JPG,,,,,,,,,,,,,,,,,0,8,8,1,,,,,,,AFNE08.jpg,AFSA10.jpg,AFSA02.jpg,AFNE04.jpg,AFNE08.jpg,FN,3,num_8,32,num_4,1.25010969304,,,2017_Feb_22_1635,60.003695194,FEMA4ImagesEEG,001,000008,
AMSA21.JPG,AMNE23.JPG,AMNE21.JPG,AMSA25.JPG,AMNE25.JPG,AMSA23.JPG,,,,,,,,,,,,,,,,,0,9,9,5,,,,,,,AFNE17.jpg,AFSA05.jpg,AFNE04.jpg,AFSA18.jpg,AFSA05.jpg,FS,4,num_6,16,num_6,1.00005516736,,,2017_Feb_22_1635,60.003695194,FEMA4ImagesEEG,001,000008,
AMSA25.JPG,AMNE24.JPG,AMSA24.JPG,AMNE26.JPG,AMSA21.JPG,AMNE25.JPG,,,,,,,,,,,,,,,,,,,,,0,0,0,3,,,AMNE17.jpg,AMSA09.jpg,AMSA13.jpg,AMNE03.jpg,AMNE17.jpg,MN,1,num_8,16,num_8,1.25009654276,,,2017_Feb_22_1635,60.003695194,FEMA4ImagesEEG,001,000008,
AFSA21.JPG,AFNE23.JPG,AFNE21.JPG,AFSA25.JPG,AFNE25.JPG,AFSA23.JPG,,,,,,,,,,,,,,,,,,,,,0,1,1,4,,,AMNE16.jpg,AMNE03.jpg,AMSA02.jpg,AMSA01.jpg,AMSA01.jpg,MS,2,num_4,16,num_4,0.81665069377,,,2017_Feb_22_1635,60.003695194,FEMA4ImagesEEG,001,000008,
AFSA21.JPG,AFNE22.JPG,AFNE21.JPG,AFSA23.JPG,AFSA22.JPG,AFNE23.JPG,,,,,,,,,,,,,,,,,,,,,0,2,2,0,,,AMNE06.jpg,AMSA16.jpg,AMNE19.jpg,AMSA19.jpg,AMNE19.jpg,MN,1,num_2,32,num_6,1.55009987811,,,2017_Feb_22_1635,60.003695194,FEMA4ImagesEEG,001,000008,
AMNE23.JPG,AMNE24.JPG,AMNE22.JPG,AMSA24.JPG,AMSA22.JPG,AMSA23.JPG,,,,,,,,,,,,,,,,,,,,,0,3,3,9,,,AMSA03.jpg,AMNE15.jpg,AMNE08.jpg,AMSA15.jpg,AMNE15.jpg,MN,1,num_6,16,num_6,1.08344783727,,,2017_Feb_22_1635,60.003695194,FEMA4ImagesEEG,001,000008,
AFNE23.JPG,AFNE24.JPG,AFNE22.JPG,AFSA24.JPG,AFSA22.JPG,AFSA23.JPG,,,,,,,,,,,,,,,,,,,,,0,4,4,8,,,AMNE20.jpg,AMSA15.jpg,AMNE08.jpg,AMSA20.jpg,AMSA15.jpg,MS,2,num_6,16,num_6,0.983442449011,,,2017_Feb_22_1635,60.003695194,FEMA4ImagesEEG,001,000008,
AFNE22.JPG,AFSA24.JPG,AFSA22.JPG,AFNE25.JPG,AFNE24.JPG,AFSA25.JPG,,,,,,,,,,,,,,,,,,,,,0,5,5,6,,,AMNE07.jpg,AMNE03.jpg,AMSA11.jpg,AMSA14.jpg,AMNE03.jpg,MN,1,num_6,32,num_4,0.850130476989,,,2017_Feb_22_1635,60.003695194,FEMA4ImagesEEG,001,000008,
AMSA21.JPG,AMNE22.JPG,AMNE21.JPG,AMSA23.JPG,AMSA22.JPG,AMNE23.JPG,,,,,,,,,,,,,,,,,,,,,0,6,6,1,,,AMSA01.jpg,AMSA19.jpg,AMNE06.jpg,AMNE15.jpg,AMSA19.jpg,MS,2,num_6,32,num_8,0.950153506361,,,2017_Feb_22_1635,60.003695194,FEMA4ImagesEEG,001,000008,
AMSA21.JPG,AMNE23.JPG,AMNE21.JPG,AMSA25.JPG,AMNE25.JPG,AMSA23.JPG,,,,,,,,,,,,,,,,,,,,,0,7,7,5,,,AMNE17.jpg,AMNE05.jpg,AMSA08.jpg,AMSA11.jpg,AMNE05.jpg,MN,1,num_6,16,num_6,0.833469968289,,,2017_Feb_22_1635,60.003695194,FEMA4ImagesEEG,001,000008,
AFSA25.JPG,AFNE24.JPG,AFSA24.JPG,AFNE21.JPG,AFSA21.JPG,AFNE25.JPG,,,,,,,,,,,,,,,,,,,,,0,8,8,2,,,AMSA19.jpg,AMSA11.jpg,AMNE16.jpg,AMNE12.jpg,AMSA11.jpg,MS,2,num_6,32,num_8,1.85006023524,,,2017_Feb_22_1635,60.003695194,FEMA4ImagesEEG,001,000008,
AMNE22.JPG,AMSA24.JPG,AMSA22.JPG,AMNE25.JPG,AMNE24.JPG,AMSA25.JPG,,,,,,,,,,,,,,,,,,,,,0,9,9,7,,,AMSA01.jpg,AMNE09.jpg,AMNE19.jpg,AMSA15.jpg,AMNE19.jpg,MN,1,num_2,16,num_2,1.28341274848,,,2017_Feb_22_1635,60.003695194,FEMA4ImagesEEG,001,000008,
,,,,,,,,,,,,,,,,,,,,,,,,,,,,,,,,,,,,,,,,,,,space,4.16668559052,2017_Feb_22_1635,60.003695194,FEMA4ImagesEEG,001,000008,
