IPosition2,IPosition3,IPosition1,IPosition6,IPosition4,IPosition5,TrialsF1.thisRepN,TrialsF1.thisTrialN,TrialsF1.thisN,TrialsF1.thisIndex,TrialsM1.thisRepN,TrialsM1.thisTrialN,TrialsM1.thisN,TrialsM1.thisIndex,TrialsF2.thisRepN,TrialsF2.thisTrialN,TrialsF2.thisN,TrialsF2.thisIndex,TrialsM2.thisRepN,TrialsM2.thisTrialN,TrialsM2.thisN,TrialsM2.thisIndex,TrialsF3.thisRepN,TrialsF3.thisTrialN,TrialsF3.thisN,TrialsF3.thisIndex,TrialsM3.thisRepN,TrialsM3.thisTrialN,TrialsM3.thisN,TrialsM3.thisIndex,InstrKey_resp.keys,InstrKey_resp.rt,Image0 _Position,Image1 _Position,Image2 _Position,Image3 _Position,Center_image,condition,code,correct_answer,accuracy,Key_Resp.keys,Key_Resp.rt,BreakKey_resp.keys,BreakKey_resp.rt,date,frameRate,expName,session,participant,
,,,,,,,,,,,,,,,,,,,,,,,,,,,,,,space,14.1327805062,,,,,,,,,,,,,,2017_Jan_30_1703,60.0057738568,FEMA4ImagesEEG,001,0001,
AFNE22.JPG,AFSA24.JPG,AFSA22.JPG,AFNE25.JPG,AFNE24.JPG,AFSA25.JPG,0,0,0,6,,,,,,,,,,,,,,,,,,,,,,,AFSA01.jpg,AFSA02.jpg,AFNE04.jpg,AFNE07.jpg,AFSA01.jpg,FS,4,num_8,16,num_8,0.800105651608,,,2017_Jan_30_1703,60.0057738568,FEMA4ImagesEEG,001,0001,
AFSA21.JPG,AFNE22.JPG,AFNE21.JPG,AFSA23.JPG,AFSA22.JPG,AFNE23.JPG,0,1,1,0,,,,,,,,,,,,,,,,,,,,,,,AFNE02.jpg,AFSA11.jpg,AFNE12.jpg,AFSA14.jpg,AFSA14.jpg,FS,4,num_4,32,num_6,1.73339465878,,,2017_Jan_30_1703,60.0057738568,FEMA4ImagesEEG,001,0001,
AMSA21.JPG,AMNE23.JPG,AMNE21.JPG,AMSA25.JPG,AMNE25.JPG,AMSA23.JPG,0,2,2,5,,,,,,,,,,,,,,,,,,,,,,,AFSA14.jpg,AFSA20.jpg,AFNE09.jpg,AFNE03.jpg,AFSA20.jpg,FS,4,num_6,32,num_4,0.83342730999,,,2017_Jan_30_1703,60.0057738568,FEMA4ImagesEEG,001,0001,
AMNE23.JPG,AMNE24.JPG,AMNE22.JPG,AMSA24.JPG,AMSA22.JPG,AMSA23.JPG,0,3,3,9,,,,,,,,,,,,,,,,,,,,,,,AFSA08.jpg,AFSA06.jpg,AFNE09.jpg,AFNE12.jpg,AFNE12.jpg,FN,3,num_4,16,num_4,1.45006915147,,,2017_Jan_30_1703,60.0057738568,FEMA4ImagesEEG,001,0001,
AMNE22.JPG,AMSA24.JPG,AMSA22.JPG,AMNE25.JPG,AMNE24.JPG,AMSA25.JPG,0,4,4,7,,,,,,,,,,,,,,,,,,,,,,,AFSA05.jpg,AFNE06.jpg,AFNE03.jpg,AFSA15.jpg,AFNE06.jpg,FN,3,num_6,32,num_8,1.08347510034,,,2017_Jan_30_1703,60.0057738568,FEMA4ImagesEEG,001,0001,
AFNE23.JPG,AFNE24.JPG,AFNE22.JPG,AFSA24.JPG,AFSA22.JPG,AFSA23.JPG,0,5,5,8,,,,,,,,,,,,,,,,,,,,,,,AFNE13.jpg,AFNE16.jpg,AFSA18.jpg,AFSA11.jpg,AFSA11.jpg,FS,4,num_4,32,num_2,0.833497552085,,,2017_Jan_30_1703,60.0057738568,FEMA4ImagesEEG,001,0001,
AFSA25.JPG,AFNE24.JPG,AFSA24.JPG,AFNE21.JPG,AFSA21.JPG,AFNE25.JPG,0,6,6,2,,,,,,,,,,,,,,,,,,,,,,,AFSA18.jpg,AFNE07.jpg,AFSA04.jpg,AFNE05.jpg,AFSA18.jpg,FS,4,num_8,32,num_6,0.683167767478,,,2017_Jan_30_1703,60.0057738568,FEMA4ImagesEEG,001,0001,
AMSA21.JPG,AMNE22.JPG,AMNE21.JPG,AMSA23.JPG,AMSA22.JPG,AMNE23.JPG,0,7,7,1,,,,,,,,,,,,,,,,,,,,,,,AFSA02.jpg,AFSA11.jpg,AFNE05.jpg,AFNE17.jpg,AFNE17.jpg,FN,3,num_4,32,num_8,0.766788162873,,,2017_Jan_30_1703,60.0057738568,FEMA4ImagesEEG,001,0001,
AMSA25.JPG,AMNE24.JPG,AMSA24.JPG,AMNE26.JPG,AMSA21.JPG,AMNE25.JPG,0,8,8,3,,,,,,,,,,,,,,,,,,,,,,,AFSA13.jpg,AFSA12.jpg,AFNE01.jpg,AFNE20.jpg,AFNE20.jpg,FN,3,num_4,16,num_4,2.16688797716,,,2017_Jan_30_1703,60.0057738568,FEMA4ImagesEEG,001,0001,
AFSA21.JPG,AFNE23.JPG,AFNE21.JPG,AFSA25.JPG,AFNE25.JPG,AFSA23.JPG,0,9,9,4,,,,,,,,,,,,,,,,,,,,,,,AFNE07.jpg,AFNE14.jpg,AFSA15.jpg,AFSA11.jpg,AFSA11.jpg,FS,4,num_4,32,num_6,1.58373971062,,,2017_Jan_30_1703,60.0057738568,FEMA4ImagesEEG,001,0001,
AMNE22.JPG,AMSA24.JPG,AMSA22.JPG,AMNE25.JPG,AMNE24.JPG,AMSA25.JPG,,,,,0,0,0,7,,,,,,,,,,,,,,,,,,,AMNE05.jpg,AMNE14.jpg,AMSA07.jpg,AMSA20.jpg,AMSA07.jpg,MS,2,num_2,16,num_2,1.06675525499,,,2017_Jan_30_1703,60.0057738568,FEMA4ImagesEEG,001,0001,
AMSA21.JPG,AMNE23.JPG,AMNE21.JPG,AMSA25.JPG,AMNE25.JPG,AMSA23.JPG,,,,,0,1,1,5,,,,,,,,,,,,,,,,,,,AMSA02.jpg,AMSA06.jpg,AMNE03.jpg,AMNE19.jpg,AMNE03.jpg,MN,1,num_2,32,num_4,1.10012021323,,,2017_Jan_30_1703,60.0057738568,FEMA4ImagesEEG,001,0001,
AMSA21.JPG,AMNE22.JPG,AMNE21.JPG,AMSA23.JPG,AMSA22.JPG,AMNE23.JPG,,,,,0,2,2,1,,,,,,,,,,,,,,,,,,,AMSA10.jpg,AMNE10.jpg,AMNE13.jpg,AMSA01.jpg,AMSA01.jpg,MS,2,num_4,16,num_4,0.516830821289,,,2017_Jan_30_1703,60.0057738568,FEMA4ImagesEEG,001,0001,
AFSA21.JPG,AFNE23.JPG,AFNE21.JPG,AFSA25.JPG,AFNE25.JPG,AFSA23.JPG,,,,,0,3,3,4,,,,,,,,,,,,,,,,,,,AMNE04.jpg,AMNE01.jpg,AMSA13.jpg,AMSA19.jpg,AMSA13.jpg,MS,2,num_2,16,num_2,0.750156200258,,,2017_Jan_30_1703,60.0057738568,FEMA4ImagesEEG,001,0001,
AFNE22.JPG,AFSA24.JPG,AFSA22.JPG,AFNE25.JPG,AFNE24.JPG,AFSA25.JPG,,,,,0,4,4,6,,,,,,,,,,,,,,,,,,,AMNE16.jpg,AMNE11.jpg,AMSA08.jpg,AMSA15.jpg,AMNE16.jpg,MN,1,num_8,16,num_8,0.683447452611,,,2017_Jan_30_1703,60.0057738568,FEMA4ImagesEEG,001,0001,
AFNE23.JPG,AFNE24.JPG,AFNE22.JPG,AFSA24.JPG,AFSA22.JPG,AFSA23.JPG,,,,,0,5,5,8,,,,,,,,,,,,,,,,,,,AMSA04.jpg,AMNE20.jpg,AMSA12.jpg,AMNE05.jpg,AMNE05.jpg,MN,1,num_4,32,num_2,1.31681812007,,,2017_Jan_30_1703,60.0057738568,FEMA4ImagesEEG,001,0001,
AMSA25.JPG,AMNE24.JPG,AMSA24.JPG,AMNE26.JPG,AMSA21.JPG,AMNE25.JPG,,,,,0,6,6,3,,,,,,,,,,,,,,,,,,,AMSA17.jpg,AMNE16.jpg,AMNE05.jpg,AMSA05.jpg,AMNE05.jpg,MN,1,num_2,32,num_6,0.783435841789,,,2017_Jan_30_1703,60.0057738568,FEMA4ImagesEEG,001,0001,
AFSA21.JPG,AFNE22.JPG,AFNE21.JPG,AFSA23.JPG,AFSA22.JPG,AFNE23.JPG,,,,,0,7,7,0,,,,,,,,,,,,,,,,,,,AMNE06.jpg,AMNE17.jpg,AMSA12.jpg,AMSA13.jpg,AMNE17.jpg,MN,1,num_6,16,num_6,0.583476062515,,,2017_Jan_30_1703,60.0057738568,FEMA4ImagesEEG,001,0001,
AFSA25.JPG,AFNE24.JPG,AFSA24.JPG,AFNE21.JPG,AFSA21.JPG,AFNE25.JPG,,,,,0,8,8,2,,,,,,,,,,,,,,,,,,,AMSA10.jpg,AMSA17.jpg,AMNE02.jpg,AMNE01.jpg,AMNE02.jpg,MN,1,num_2,16,num_2,1.10009006376,,,2017_Jan_30_1703,60.0057738568,FEMA4ImagesEEG,001,0001,
AMNE23.JPG,AMNE24.JPG,AMNE22.JPG,AMSA24.JPG,AMSA22.JPG,AMSA23.JPG,,,,,0,9,9,9,,,,,,,,,,,,,,,,,,,AMNE12.jpg,AMSA20.jpg,AMNE20.jpg,AMSA06.jpg,AMSA20.jpg,MS,2,num_6,32,num_8,4.46677969536,,,2017_Jan_30_1703,60.0057738568,FEMA4ImagesEEG,001,0001,
AMSA21.JPG,AMNE22.JPG,AMNE21.JPG,AMSA23.JPG,AMSA22.JPG,AMNE23.JPG,,,,,,,,,0,0,0,1,,,,,,,,,,,,,,,AFSA11.jpg,AFSA15.jpg,AFNE06.jpg,AFNE13.jpg,AFNE06.jpg,FN,3,num_2,32,num_6,2.33338144422,,,2017_Jan_30_1703,60.0057738568,FEMA4ImagesEEG,001,0001,
AFSA25.JPG,AFNE24.JPG,AFSA24.JPG,AFNE21.JPG,AFSA21.JPG,AFNE25.JPG,,,,,,,,,0,1,1,2,,,,,,,,,,,,,,,AFSA03.jpg,AFSA02.jpg,AFNE15.jpg,AFNE03.jpg,AFNE15.jpg,FN,3,num_2,32,num_4,0.750103598926,,,2017_Jan_30_1703,60.0057738568,FEMA4ImagesEEG,001,0001,
AFNE22.JPG,AFSA24.JPG,AFSA22.JPG,AFNE25.JPG,AFNE24.JPG,AFSA25.JPG,,,,,,,,,0,2,2,6,,,,,,,,,,,,,,,AFSA05.jpg,AFSA13.jpg,AFNE02.jpg,AFNE08.jpg,AFNE02.jpg,FN,3,num_2,32,num_6,0.566483588307,,,2017_Jan_30_1703,60.0057738568,FEMA4ImagesEEG,001,0001,
AFSA21.JPG,AFNE23.JPG,AFNE21.JPG,AFSA25.JPG,AFNE25.JPG,AFSA23.JPG,,,,,,,,,0,3,3,4,,,,,,,,,,,,,,,AFNE15.jpg,AFNE14.jpg,AFSA04.jpg,AFSA15.jpg,AFSA04.jpg,FS,4,num_2,32,num_6,0.883290482569,,,2017_Jan_30_1703,60.0057738568,FEMA4ImagesEEG,001,0001,
AMNE23.JPG,AMNE24.JPG,AMNE22.JPG,AMSA24.JPG,AMSA22.JPG,AMSA23.JPG,,,,,,,,,0,4,4,9,,,,,,,,,,,,,,,AFNE19.jpg,AFSA12.jpg,AFNE20.jpg,AFSA10.jpg,AFSA12.jpg,FS,4,num_6,32,num_2,0.983462014236,,,2017_Jan_30_1703,60.0057738568,FEMA4ImagesEEG,001,0001,
AMNE22.JPG,AMSA24.JPG,AMSA22.JPG,AMNE25.JPG,AMNE24.JPG,AMSA25.JPG,,,,,,,,,0,5,5,7,,,,,,,,,,,,,,,AFSA07.jpg,AFSA01.jpg,AFNE06.jpg,AFNE18.jpg,AFSA07.jpg,FS,4,num_8,16,num_8,1.18346413097,,,2017_Jan_30_1703,60.0057738568,FEMA4ImagesEEG,001,0001,
AMSA21.JPG,AMNE23.JPG,AMNE21.JPG,AMSA25.JPG,AMNE25.JPG,AMSA23.JPG,,,,,,,,,0,6,6,5,,,,,,,,,,,,,,,AFSA17.jpg,AFNE18.jpg,AFSA13.jpg,AFNE08.jpg,AFSA17.jpg,FS,4,num_8,16,num_8,1.56682742143,,,2017_Jan_30_1703,60.0057738568,FEMA4ImagesEEG,001,0001,
AFSA21.JPG,AFNE22.JPG,AFNE21.JPG,AFSA23.JPG,AFSA22.JPG,AFNE23.JPG,,,,,,,,,0,7,7,0,,,,,,,,,,,,,,,AFNE05.jpg,AFSA10.jpg,AFNE02.jpg,AFSA09.jpg,AFNE05.jpg,FN,3,num_8,32,num_2,1.01646517799,,,2017_Jan_30_1703,60.0057738568,FEMA4ImagesEEG,001,0001,
AFNE23.JPG,AFNE24.JPG,AFNE22.JPG,AFSA24.JPG,AFSA22.JPG,AFSA23.JPG,,,,,,,,,0,8,8,8,,,,,,,,,,,,,,,AFNE12.jpg,AFSA18.jpg,AFNE08.jpg,AFSA03.jpg,AFSA18.jpg,FS,4,num_6,32,num_8,1.05013034865,,,2017_Jan_30_1703,60.0057738568,FEMA4ImagesEEG,001,0001,
AMSA25.JPG,AMNE24.JPG,AMSA24.JPG,AMNE26.JPG,AMSA21.JPG,AMNE25.JPG,,,,,,,,,0,9,9,3,,,,,,,,,,,,,,,AFNE03.jpg,AFNE14.jpg,AFSA04.jpg,AFSA20.jpg,AFSA20.jpg,FS,4,num_4,16,num_4,1.21675211168,,,2017_Jan_30_1703,60.0057738568,FEMA4ImagesEEG,001,0001,
AFSA21.JPG,AFNE23.JPG,AFNE21.JPG,AFSA25.JPG,AFNE25.JPG,AFSA23.JPG,,,,,,,,,,,,,0,0,0,4,,,,,,,,,,,AMSA17.jpg,AMSA02.jpg,AMNE02.jpg,AMNE08.jpg,AMSA17.jpg,MS,2,num_8,16,num_8,0.850388030987,,,2017_Jan_30_1703,60.0057738568,FEMA4ImagesEEG,001,0001,
AMNE22.JPG,AMSA24.JPG,AMSA22.JPG,AMNE25.JPG,AMNE24.JPG,AMSA25.JPG,,,,,,,,,,,,,0,1,1,7,,,,,,,,,,,AMSA05.jpg,AMNE02.jpg,AMNE05.jpg,AMSA08.jpg,AMNE05.jpg,MN,1,num_2,32,num_4,1.11676885444,,,2017_Jan_30_1703,60.0057738568,FEMA4ImagesEEG,001,0001,
AMSA21.JPG,AMNE23.JPG,AMNE21.JPG,AMSA25.JPG,AMNE25.JPG,AMSA23.JPG,,,,,,,,,,,,,0,2,2,5,,,,,,,,,,,AMNE05.jpg,AMNE15.jpg,AMSA11.jpg,AMSA14.jpg,AMSA14.jpg,MS,2,num_4,16,num_4,0.86674576113,,,2017_Jan_30_1703,60.0057738568,FEMA4ImagesEEG,001,0001,
AMSA21.JPG,AMNE22.JPG,AMNE21.JPG,AMSA23.JPG,AMSA22.JPG,AMNE23.JPG,,,,,,,,,,,,,0,3,3,1,,,,,,,,,,,AMNE16.jpg,AMSA15.jpg,AMSA03.jpg,AMNE08.jpg,AMSA15.jpg,MS,2,num_6,16,num_6,0.700000192504,,,2017_Jan_30_1703,60.0057738568,FEMA4ImagesEEG,001,0001,
AFSA21.JPG,AFNE22.JPG,AFNE21.JPG,AFSA23.JPG,AFSA22.JPG,AFNE23.JPG,,,,,,,,,,,,,0,4,4,0,,,,,,,,,,,AMSA05.jpg,AMNE13.jpg,AMNE12.jpg,AMSA06.jpg,AMSA05.jpg,MS,2,num_8,16,num_8,1.00009846711,,,2017_Jan_30_1703,60.0057738568,FEMA4ImagesEEG,001,0001,
AMNE23.JPG,AMNE24.JPG,AMNE22.JPG,AMSA24.JPG,AMSA22.JPG,AMSA23.JPG,,,,,,,,,,,,,0,5,5,9,,,,,,,,,,,AMNE05.jpg,AMSA04.jpg,AMSA08.jpg,AMNE09.jpg,AMSA08.jpg,MS,2,num_2,16,num_2,0.866744798957,,,2017_Jan_30_1703,60.0057738568,FEMA4ImagesEEG,001,0001,
AFNE23.JPG,AFNE24.JPG,AFNE22.JPG,AFSA24.JPG,AFSA22.JPG,AFSA23.JPG,,,,,,,,,,,,,0,6,6,8,,,,,,,,,,,AMSA01.jpg,AMSA15.jpg,AMNE16.jpg,AMNE08.jpg,AMSA01.jpg,MS,2,num_8,16,num_8,0.550154724857,,,2017_Jan_30_1703,60.0057738568,FEMA4ImagesEEG,001,0001,
AFSA25.JPG,AFNE24.JPG,AFSA24.JPG,AFNE21.JPG,AFSA21.JPG,AFNE25.JPG,,,,,,,,,,,,,0,7,7,2,,,,,,,,,,,AMSA12.jpg,AMNE20.jpg,AMSA03.jpg,AMNE18.jpg,AMNE18.jpg,MN,1,num_4,32,num_6,1.03339542856,,,2017_Jan_30_1703,60.0057738568,FEMA4ImagesEEG,001,0001,
AFNE22.JPG,AFSA24.JPG,AFSA22.JPG,AFNE25.JPG,AFNE24.JPG,AFSA25.JPG,,,,,,,,,,,,,0,8,8,6,,,,,,,,,,,AMNE02.jpg,AMSA20.jpg,AMNE10.jpg,AMSA05.jpg,AMNE10.jpg,MN,1,num_2,32,num_4,0.916772190016,,,2017_Jan_30_1703,60.0057738568,FEMA4ImagesEEG,001,0001,
AMSA25.JPG,AMNE24.JPG,AMSA24.JPG,AMNE26.JPG,AMSA21.JPG,AMNE25.JPG,,,,,,,,,,,,,0,9,9,3,,,,,,,,,,,AMNE07.jpg,AMNE16.jpg,AMSA12.jpg,AMSA01.jpg,AMNE16.jpg,MN,1,num_6,32,num_8,0.833456497523,,,2017_Jan_30_1703,60.0057738568,FEMA4ImagesEEG,001,0001,
AMNE22.JPG,AMSA24.JPG,AMSA22.JPG,AMNE25.JPG,AMNE24.JPG,AMSA25.JPG,,,,,,,,,,,,,,,,,0,0,0,7,,,,,,,AFSA10.jpg,AFSA15.jpg,AFNE04.jpg,AFNE03.jpg,AFSA10.jpg,FS,4,num_8,32,num_6,0.800180704799,,,2017_Jan_30_1703,60.0057738568,FEMA4ImagesEEG,001,0001,
AFSA21.JPG,AFNE23.JPG,AFNE21.JPG,AFSA25.JPG,AFNE25.JPG,AFSA23.JPG,,,,,,,,,,,,,,,,,0,1,1,4,,,,,,,AFSA12.jpg,AFSA09.jpg,AFNE10.jpg,AFNE16.jpg,AFNE16.jpg,FN,3,num_4,32,num_2,1.28342333296,,,2017_Jan_30_1703,60.0057738568,FEMA4ImagesEEG,001,0001,
AFSA21.JPG,AFNE22.JPG,AFNE21.JPG,AFSA23.JPG,AFSA22.JPG,AFNE23.JPG,,,,,,,,,,,,,,,,,0,2,2,0,,,,,,,AFNE06.jpg,AFNE08.jpg,AFSA18.jpg,AFSA07.jpg,AFSA07.jpg,FS,4,num_4,32,num_8,0.733492484433,,,2017_Jan_30_1703,60.0057738568,FEMA4ImagesEEG,001,0001,
AMSA25.JPG,AMNE24.JPG,AMSA24.JPG,AMNE26.JPG,AMSA21.JPG,AMNE25.JPG,,,,,,,,,,,,,,,,,0,3,3,3,,,,,,,AFSA08.jpg,AFNE11.jpg,AFNE07.jpg,AFSA09.jpg,AFSA09.jpg,FS,4,num_4,16,num_4,0.666823829175,,,2017_Jan_30_1703,60.0057738568,FEMA4ImagesEEG,001,0001,
AMSA21.JPG,AMNE22.JPG,AMNE21.JPG,AMSA23.JPG,AMSA22.JPG,AMNE23.JPG,,,,,,,,,,,,,,,,,0,4,4,1,,,,,,,AFNE19.jpg,AFNE05.jpg,AFSA10.jpg,AFSA06.jpg,AFSA10.jpg,FS,4,num_2,32,num_8,0.766738769016,,,2017_Jan_30_1703,60.0057738568,FEMA4ImagesEEG,001,0001,
AFNE23.JPG,AFNE24.JPG,AFNE22.JPG,AFSA24.JPG,AFSA22.JPG,AFSA23.JPG,,,,,,,,,,,,,,,,,0,5,5,8,,,,,,,AFNE15.jpg,AFSA05.jpg,AFNE20.jpg,AFSA10.jpg,AFSA10.jpg,FS,4,num_4,32,num_2,1.26670701581,,,2017_Jan_30_1703,60.0057738568,FEMA4ImagesEEG,001,0001,
AFNE22.JPG,AFSA24.JPG,AFSA22.JPG,AFNE25.JPG,AFNE24.JPG,AFSA25.JPG,,,,,,,,,,,,,,,,,0,6,6,6,,,,,,,AFNE05.jpg,AFSA13.jpg,AFSA07.jpg,AFNE08.jpg,AFNE05.jpg,FN,3,num_8,32,num_4,1.11674191221,,,2017_Jan_30_1703,60.0057738568,FEMA4ImagesEEG,001,0001,
AFSA25.JPG,AFNE24.JPG,AFSA24.JPG,AFNE21.JPG,AFSA21.JPG,AFNE25.JPG,,,,,,,,,,,,,,,,,0,7,7,2,,,,,,,AFSA09.jpg,AFSA19.jpg,AFNE02.jpg,AFNE05.jpg,AFNE02.jpg,FN,3,num_2,16,num_2,1.45006690628,,,2017_Jan_30_1703,60.0057738568,FEMA4ImagesEEG,001,0001,
AMSA21.JPG,AMNE23.JPG,AMNE21.JPG,AMSA25.JPG,AMNE25.JPG,AMSA23.JPG,,,,,,,,,,,,,,,,,0,8,8,5,,,,,,,AFSA03.jpg,AFSA19.jpg,AFNE20.jpg,AFNE11.jpg,AFSA03.jpg,FS,4,num_8,32,num_6,0.966716509662,,,2017_Jan_30_1703,60.0057738568,FEMA4ImagesEEG,001,0001,
AMNE23.JPG,AMNE24.JPG,AMNE22.JPG,AMSA24.JPG,AMSA22.JPG,AMSA23.JPG,,,,,,,,,,,,,,,,,0,9,9,9,,,,,,,AFNE19.jpg,AFSA09.jpg,AFNE08.jpg,AFSA18.jpg,AFSA09.jpg,FS,4,num_6,16,num_6,0.800117518986,,,2017_Jan_30_1703,60.0057738568,FEMA4ImagesEEG,001,0001,
AMSA21.JPG,AMNE22.JPG,AMNE21.JPG,AMSA23.JPG,AMSA22.JPG,AMNE23.JPG,,,,,,,,,,,,,,,,,,,,,0,0,0,1,,,AMSA17.jpg,AMNE04.jpg,AMSA20.jpg,AMNE14.jpg,AMNE14.jpg,MN,1,num_4,32,num_2,1.4835396331,,,2017_Jan_30_1703,60.0057738568,FEMA4ImagesEEG,001,0001,
AFNE22.JPG,AFSA24.JPG,AFSA22.JPG,AFNE25.JPG,AFNE24.JPG,AFSA25.JPG,,,,,,,,,,,,,,,,,,,,,0,1,1,6,,,AMNE16.jpg,AMSA18.jpg,AMSA17.jpg,AMNE07.jpg,AMNE07.jpg,MN,1,num_4,32,num_8,1.51676122076,,,2017_Jan_30_1703,60.0057738568,FEMA4ImagesEEG,001,0001,
AFSA21.JPG,AFNE22.JPG,AFNE21.JPG,AFSA23.JPG,AFSA22.JPG,AFNE23.JPG,,,,,,,,,,,,,,,,,,,,,0,2,2,0,,,AMSA16.jpg,AMSA19.jpg,AMNE19.jpg,AMNE02.jpg,AMNE19.jpg,MN,1,num_2,32,num_6,1.86705655791,,,2017_Jan_30_1703,60.0057738568,FEMA4ImagesEEG,001,0001,
AMNE23.JPG,AMNE24.JPG,AMNE22.JPG,AMSA24.JPG,AMSA22.JPG,AMSA23.JPG,,,,,,,,,,,,,,,,,,,,,0,3,3,9,,,AMNE10.jpg,AMNE16.jpg,AMSA10.jpg,AMSA06.jpg,AMNE16.jpg,MN,1,num_6,16,num_6,0.783505442319,,,2017_Jan_30_1703,60.0057738568,FEMA4ImagesEEG,001,0001,
AFNE23.JPG,AFNE24.JPG,AFNE22.JPG,AFSA24.JPG,AFSA22.JPG,AFSA23.JPG,,,,,,,,,,,,,,,,,,,,,0,4,4,8,,,AMSA16.jpg,AMNE17.jpg,AMNE18.jpg,AMSA07.jpg,AMNE18.jpg,MN,1,num_2,16,num_2,1.15013285039,,,2017_Jan_30_1703,60.0057738568,FEMA4ImagesEEG,001,0001,
AMSA25.JPG,AMNE24.JPG,AMSA24.JPG,AMNE26.JPG,AMSA21.JPG,AMNE25.JPG,,,,,,,,,,,,,,,,,,,,,0,5,5,3,,,AMNE04.jpg,AMSA13.jpg,AMNE13.jpg,AMSA14.jpg,AMSA14.jpg,MS,2,num_4,16,num_4,0.550148951588,,,2017_Jan_30_1703,60.0057738568,FEMA4ImagesEEG,001,0001,
AMNE22.JPG,AMSA24.JPG,AMSA22.JPG,AMNE25.JPG,AMNE24.JPG,AMSA25.JPG,,,,,,,,,,,,,,,,,,,,,0,6,6,7,,,AMNE02.jpg,AMNE15.jpg,AMSA01.jpg,AMSA19.jpg,AMSA19.jpg,MS,2,num_4,32,num_8,0.88344155089,,,2017_Jan_30_1703,60.0057738568,FEMA4ImagesEEG,001,0001,
AFSA25.JPG,AFNE24.JPG,AFSA24.JPG,AFNE21.JPG,AFSA21.JPG,AFNE25.JPG,,,,,,,,,,,,,,,,,,,,,0,7,7,2,,,AMSA19.jpg,AMNE16.jpg,AMNE08.jpg,AMSA16.jpg,AMNE08.jpg,MN,1,num_2,32,num_8,0.800113990903,,,2017_Jan_30_1703,60.0057738568,FEMA4ImagesEEG,001,0001,
AMSA21.JPG,AMNE23.JPG,AMNE21.JPG,AMSA25.JPG,AMNE25.JPG,AMSA23.JPG,,,,,,,,,,,,,,,,,,,,,0,8,8,5,,,AMNE16.jpg,AMNE12.jpg,AMSA09.jpg,AMSA05.jpg,AMNE16.jpg,MN,1,num_8,32,num_2,0.816810743068,,,2017_Jan_30_1703,60.0057738568,FEMA4ImagesEEG,001,0001,
AFSA21.JPG,AFNE23.JPG,AFNE21.JPG,AFSA25.JPG,AFNE25.JPG,AFSA23.JPG,,,,,,,,,,,,,,,,,,,,,0,9,9,4,,,AMNE12.jpg,AMNE15.jpg,AMSA12.jpg,AMSA01.jpg,AMSA12.jpg,MS,2,num_2,32,num_4,0.833444630029,,,2017_Jan_30_1703,60.0057738568,FEMA4ImagesEEG,001,0001,
,,,,,,,,,,,,,,,,,,,,,,,,,,,,,,,,,,,,,,,,,,,space,132.406595116,2017_Jan_30_1703,60.0057738568,FEMA4ImagesEEG,001,0001,
AFNE01.JPG,AFNE01.JPG,AFNE01.JPG,AFNE01.JPG,AFNE01.JPG,AFNE01.JPG,0,0,0,2,,,,,,,,,,,,,,,,,,,,,,,AFSA12.jpg,AFNE07.jpg,AFSA02.jpg,AFNE05.jpg,AFNE05.jpg,FN,3,num_4,32,num_6,0.950138751999,,,2017_Jan_30_1703,60.0057738568,FEMA4ImagesEEG,001,0001,
AFNE01.JPG,AFNE01.JPG,AFNE01.JPG,AFNE01.JPG,AFNE01.JPG,AFNE01.JPG,0,1,1,0,,,,,,,,,,,,,,,,,,,,,,,AFSA13.jpg,AFSA20.jpg,AFNE06.jpg,AFNE14.jpg,AFNE06.jpg,FN,3,num_2,16,num_2,0.583509419579,,,2017_Jan_30_1703,60.0057738568,FEMA4ImagesEEG,001,0001,
AFNE01.JPG,AFNE01.JPG,AFNE01.JPG,AFNE01.JPG,AFNE01.JPG,AFNE01.JPG,0,2,2,6,,,,,,,,,,,,,,,,,,,,,,,AFNE16.jpg,AFSA07.jpg,AFSA10.jpg,AFNE08.jpg,AFSA10.jpg,FS,4,num_2,32,num_4,0.71678675164,,,2017_Jan_30_1703,60.0057738568,FEMA4ImagesEEG,001,0001,
AFNE01.JPG,AFNE01.JPG,AFNE01.JPG,AFNE01.JPG,AFNE01.JPG,AFNE01.JPG,0,3,3,9,,,,,,,,,,,,,,,,,,,,,,,AFNE02.jpg,AFSA01.jpg,AFNE01.jpg,AFSA14.jpg,AFNE01.jpg,FN,3,num_2,32,num_6,0.616776552051,,,2017_Jan_30_1703,60.0057738568,FEMA4ImagesEEG,001,0001,
AFNE01.JPG,AFNE01.JPG,AFNE01.JPG,AFNE01.JPG,AFNE01.JPG,AFNE01.JPG,0,4,4,8,,,,,,,,,,,,,,,,,,,,,,,AFSA05.jpg,AFNE03.jpg,AFNE17.jpg,AFSA11.jpg,AFSA05.jpg,FS,4,num_8,32,num_2,1.36676596769,,,2017_Jan_30_1703,60.0057738568,FEMA4ImagesEEG,001,0001,
AFNE01.JPG,AFNE01.JPG,AFNE01.JPG,AFNE01.JPG,AFNE01.JPG,AFNE01.JPG,0,5,5,7,,,,,,,,,,,,,,,,,,,,,,,AFSA07.jpg,AFNE17.jpg,AFNE09.jpg,AFSA05.jpg,AFNE17.jpg,FN,3,num_6,32,num_8,0.833451044862,,,2017_Jan_30_1703,60.0057738568,FEMA4ImagesEEG,001,0001,
AFNE01.JPG,AFNE01.JPG,AFNE01.JPG,AFNE01.JPG,AFNE01.JPG,AFNE01.JPG,0,6,6,1,,,,,,,,,,,,,,,,,,,,,,,AFNE13.jpg,AFSA13.jpg,AFNE14.jpg,AFSA18.jpg,AFNE14.jpg,FN,3,num_2,16,num_2,0.916762888548,,,2017_Jan_30_1703,60.0057738568,FEMA4ImagesEEG,001,0001,
AFNE01.JPG,AFNE01.JPG,AFNE01.JPG,AFNE01.JPG,AFNE01.JPG,AFNE01.JPG,0,7,7,3,,,,,,,,,,,,,,,,,,,,,,,AFSA07.jpg,AFNE07.jpg,AFSA16.jpg,AFNE12.jpg,AFSA16.jpg,FS,4,num_2,16,num_2,0.7167729598,,,2017_Jan_30_1703,60.0057738568,FEMA4ImagesEEG,001,0001,
AFNE01.JPG,AFNE01.JPG,AFNE01.JPG,AFNE01.JPG,AFNE01.JPG,AFNE01.JPG,0,8,8,4,,,,,,,,,,,,,,,,,,,,,,,AFNE19.jpg,AFSA19.jpg,AFNE10.jpg,AFSA16.jpg,AFSA16.jpg,FS,4,num_4,16,num_4,0.533506725333,,,2017_Jan_30_1703,60.0057738568,FEMA4ImagesEEG,001,0001,
AFNE01.JPG,AFNE01.JPG,AFNE01.JPG,AFNE01.JPG,AFNE01.JPG,AFNE01.JPG,0,9,9,5,,,,,,,,,,,,,,,,,,,,,,,AFSA04.jpg,AFNE10.jpg,AFSA11.jpg,AFNE11.jpg,AFSA11.jpg,FS,4,num_2,16,num_2,0.533527573338,,,2017_Jan_30_1703,60.0057738568,FEMA4ImagesEEG,001,0001,
AFNE01.JPG,AFNE01.JPG,AFNE01.JPG,AFNE01.JPG,AFNE01.JPG,AFNE01.JPG,1,0,10,7,,,,,,,,,,,,,,,,,,,,,,,AFSA06.jpg,AFNE19.jpg,AFNE02.jpg,AFSA20.jpg,AFNE02.jpg,FN,3,num_2,32,num_8,0.716780978371,,,2017_Jan_30_1703,60.0057738568,FEMA4ImagesEEG,001,0001,
AFNE01.JPG,AFNE01.JPG,AFNE01.JPG,AFNE01.JPG,AFNE01.JPG,AFNE01.JPG,1,1,11,5,,,,,,,,,,,,,,,,,,,,,,,AFSA08.jpg,AFSA11.jpg,AFNE06.jpg,AFNE14.jpg,AFNE14.jpg,FN,3,num_4,32,num_8,1.05012361309,,,2017_Jan_30_1703,60.0057738568,FEMA4ImagesEEG,001,0001,
AFNE01.JPG,AFNE01.JPG,AFNE01.JPG,AFNE01.JPG,AFNE01.JPG,AFNE01.JPG,1,2,12,9,,,,,,,,,,,,,,,,,,,,,,,AFSA11.jpg,AFSA13.jpg,AFNE14.jpg,AFNE04.jpg,AFNE04.jpg,FN,3,num_4,32,num_6,1.18341762375,,,2017_Jan_30_1703,60.0057738568,FEMA4ImagesEEG,001,0001,
AFNE01.JPG,AFNE01.JPG,AFNE01.JPG,AFNE01.JPG,AFNE01.JPG,AFNE01.JPG,1,3,13,2,,,,,,,,,,,,,,,,,,,,,,,AFSA09.jpg,AFNE02.jpg,AFSA13.jpg,AFNE19.jpg,AFSA13.jpg,FS,4,num_2,32,num_8,1.316770009,,,2017_Jan_30_1703,60.0057738568,FEMA4ImagesEEG,001,0001,
AFNE01.JPG,AFNE01.JPG,AFNE01.JPG,AFNE01.JPG,AFNE01.JPG,AFNE01.JPG,1,4,14,4,,,,,,,,,,,,,,,,,,,,,,,AFNE01.jpg,AFSA06.jpg,AFNE10.jpg,AFSA13.jpg,AFNE01.jpg,FN,3,num_8,16,num_8,0.816869759117,,,2017_Jan_30_1703,60.0057738568,FEMA4ImagesEEG,001,0001,
AFNE01.JPG,AFNE01.JPG,AFNE01.JPG,AFNE01.JPG,AFNE01.JPG,AFNE01.JPG,1,5,15,1,,,,,,,,,,,,,,,,,,,,,,,AFSA04.jpg,AFSA08.jpg,AFNE18.jpg,AFNE11.jpg,AFNE11.jpg,FN,3,num_4,32,num_6,0.350193662685,,,2017_Jan_30_1703,60.0057738568,FEMA4ImagesEEG,001,0001,
AFNE01.JPG,AFNE01.JPG,AFNE01.JPG,AFNE01.JPG,AFNE01.JPG,AFNE01.JPG,1,6,16,0,,,,,,,,,,,,,,,,,,,,,,,AFSA03.jpg,AFNE12.jpg,AFNE03.jpg,AFSA11.jpg,AFNE03.jpg,FN,3,num_2,32,num_8,1.73338182911,,,2017_Jan_30_1703,60.0057738568,FEMA4ImagesEEG,001,0001,
AFNE01.JPG,AFNE01.JPG,AFNE01.JPG,AFNE01.JPG,AFNE01.JPG,AFNE01.JPG,1,7,17,3,,,,,,,,,,,,,,,,,,,,,,,AFNE09.jpg,AFSA09.jpg,AFSA19.jpg,AFNE03.jpg,AFSA09.jpg,FS,4,num_6,32,num_8,3.33333493699,,,2017_Jan_30_1703,60.0057738568,FEMA4ImagesEEG,001,0001,
AFNE01.JPG,AFNE01.JPG,AFNE01.JPG,AFNE01.JPG,AFNE01.JPG,AFNE01.JPG,1,8,18,8,,,,,,,,,,,,,,,,,,,,,,,AFNE13.jpg,AFNE17.jpg,AFSA14.jpg,AFSA13.jpg,AFNE13.jpg,FN,3,num_8,32,num_4,0.750104561099,,,2017_Jan_30_1703,60.0057738568,FEMA4ImagesEEG,001,0001,
AFNE01.JPG,AFNE01.JPG,AFNE01.JPG,AFNE01.JPG,AFNE01.JPG,AFNE01.JPG,1,9,19,6,,,,,,,,,,,,,,,,,,,,,,,AFNE10.jpg,AFSA10.jpg,AFSA11.jpg,AFNE17.jpg,AFSA10.jpg,FS,4,num_6,32,num_8,0.833565869718,,,2017_Jan_30_1703,60.0057738568,FEMA4ImagesEEG,001,0001,
AFNE01.JPG,AFNE01.JPG,AFNE01.JPG,AFNE01.JPG,AFNE01.JPG,AFNE01.JPG,2,0,20,5,,,,,,,,,,,,,,,,,,,,,,,AFNE18.jpg,AFSA19.jpg,AFNE17.jpg,AFSA01.jpg,AFNE17.jpg,FN,3,num_2,32,num_8,0.750166143291,,,2017_Jan_30_1703,60.0057738568,FEMA4ImagesEEG,001,0001,
AFNE01.JPG,AFNE01.JPG,AFNE01.JPG,AFNE01.JPG,AFNE01.JPG,AFNE01.JPG,2,1,21,6,,,,,,,,,,,,,,,,,,,,,,,AFNE12.jpg,AFSA17.jpg,AFSA19.jpg,AFNE07.jpg,AFNE12.jpg,FN,3,num_8,32,num_6,0.850011161761,,,2017_Jan_30_1703,60.0057738568,FEMA4ImagesEEG,001,0001,
AFNE01.JPG,AFNE01.JPG,AFNE01.JPG,AFNE01.JPG,AFNE01.JPG,AFNE01.JPG,2,2,22,7,,,,,,,,,,,,,,,,,,,,,,,AFSA12.jpg,AFNE05.jpg,AFSA16.jpg,AFNE08.jpg,AFNE05.jpg,FN,3,num_6,32,num_4,1.3167238225,,,2017_Jan_30_1703,60.0057738568,FEMA4ImagesEEG,001,0001,
AFNE01.JPG,AFNE01.JPG,AFNE01.JPG,AFNE01.JPG,AFNE01.JPG,AFNE01.JPG,2,3,23,2,,,,,,,,,,,,,,,,,,,,,,,AFNE19.jpg,AFNE04.jpg,AFSA13.jpg,AFSA07.jpg,AFNE04.jpg,FN,3,num_6,32,num_2,0.716802147101,,,2017_Jan_30_1703,60.0057738568,FEMA4ImagesEEG,001,0001,
AFNE01.JPG,AFNE01.JPG,AFNE01.JPG,AFNE01.JPG,AFNE01.JPG,AFNE01.JPG,2,4,24,0,,,,,,,,,,,,,,,,,,,,,,,AFSA20.jpg,AFNE18.jpg,AFSA08.jpg,AFNE19.jpg,AFSA08.jpg,FS,4,num_2,32,num_8,0.250151389162,,,2017_Jan_30_1703,60.0057738568,FEMA4ImagesEEG,001,0001,
AFNE01.JPG,AFNE01.JPG,AFNE01.JPG,AFNE01.JPG,AFNE01.JPG,AFNE01.JPG,2,5,25,8,,,,,,,,,,,,,,,,,,,,,,,AFSA03.jpg,AFNE05.jpg,AFSA02.jpg,AFNE02.jpg,AFSA03.jpg,FS,4,num_8,32,num_6,0.600131439161,,,2017_Jan_30_1703,60.0057738568,FEMA4ImagesEEG,001,0001,
AFNE01.JPG,AFNE01.JPG,AFNE01.JPG,AFNE01.JPG,AFNE01.JPG,AFNE01.JPG,2,6,26,3,,,,,,,,,,,,,,,,,,,,,,,AFSA10.jpg,AFSA13.jpg,AFNE09.jpg,AFNE15.jpg,AFNE09.jpg,FN,3,num_2,32,num_8,1.63340691105,,,2017_Jan_30_1703,60.0057738568,FEMA4ImagesEEG,001,0001,
AFNE01.JPG,AFNE01.JPG,AFNE01.JPG,AFNE01.JPG,AFNE01.JPG,AFNE01.JPG,2,7,27,9,,,,,,,,,,,,,,,,,,,,,,,AFSA10.jpg,AFSA03.jpg,AFNE10.jpg,AFNE11.jpg,AFSA03.jpg,FS,4,num_6,16,num_6,1.48337413149,,,2017_Jan_30_1703,60.0057738568,FEMA4ImagesEEG,001,0001,
AFNE01.JPG,AFNE01.JPG,AFNE01.JPG,AFNE01.JPG,AFNE01.JPG,AFNE01.JPG,2,8,28,4,,,,,,,,,,,,,,,,,,,,,,,AFNE10.jpg,AFSA08.jpg,AFSA06.jpg,AFNE18.jpg,AFSA08.jpg,FS,4,num_6,32,num_2,0.500129258144,,,2017_Jan_30_1703,60.0057738568,FEMA4ImagesEEG,001,0001,
AFNE01.JPG,AFNE01.JPG,AFNE01.JPG,AFNE01.JPG,AFNE01.JPG,AFNE01.JPG,2,9,29,1,,,,,,,,,,,,,,,,,,,,,,,AFNE15.jpg,AFSA16.jpg,AFNE09.jpg,AFSA06.jpg,AFNE15.jpg,FN,3,num_8,16,num_8,0.816794705926,,,2017_Jan_30_1703,60.0057738568,FEMA4ImagesEEG,001,0001,
AFNE01.JPG,AFNE01.JPG,AFNE01.JPG,AFNE01.JPG,AFNE01.JPG,AFNE01.JPG,3,0,30,8,,,,,,,,,,,,,,,,,,,,,,,AFNE06.jpg,AFSA16.jpg,AFNE02.jpg,AFSA12.jpg,AFNE02.jpg,FN,3,num_2,16,num_2,1.26672433561,,,2017_Jan_30_1703,60.0057738568,FEMA4ImagesEEG,001,0001,
AFNE01.JPG,AFNE01.JPG,AFNE01.JPG,AFNE01.JPG,AFNE01.JPG,AFNE01.JPG,3,1,31,7,,,,,,,,,,,,,,,,,,,,,,,AFNE01.jpg,AFSA07.jpg,AFSA11.jpg,AFNE19.jpg,AFNE19.jpg,FN,3,num_4,32,num_8,1.23346425942,,,2017_Jan_30_1703,60.0057738568,FEMA4ImagesEEG,001,0001,
AFNE01.JPG,AFNE01.JPG,AFNE01.JPG,AFNE01.JPG,AFNE01.JPG,AFNE01.JPG,3,2,32,1,,,,,,,,,,,,,,,,,,,,,,,AFSA07.jpg,AFSA16.jpg,AFNE07.jpg,AFNE11.jpg,AFSA16.jpg,FS,4,num_6,16,num_6,0.716759809526,,,2017_Jan_30_1703,60.0057738568,FEMA4ImagesEEG,001,0001,
AFNE01.JPG,AFNE01.JPG,AFNE01.JPG,AFNE01.JPG,AFNE01.JPG,AFNE01.JPG,3,3,33,2,,,,,,,,,,,,,,,,,,,,,,,AFSA13.jpg,AFSA14.jpg,AFNE04.jpg,AFNE16.jpg,AFNE16.jpg,FN,3,num_4,16,num_4,0.866747364751,,,2017_Jan_30_1703,60.0057738568,FEMA4ImagesEEG,001,0001,
AFNE01.JPG,AFNE01.JPG,AFNE01.JPG,AFNE01.JPG,AFNE01.JPG,AFNE01.JPG,3,4,34,6,,,,,,,,,,,,,,,,,,,,,,,AFNE04.jpg,AFSA06.jpg,AFNE06.jpg,AFSA18.jpg,AFNE06.jpg,FN,3,num_2,16,num_2,1.53344482253,,,2017_Jan_30_1703,60.0057738568,FEMA4ImagesEEG,001,0001,
AFNE01.JPG,AFNE01.JPG,AFNE01.JPG,AFNE01.JPG,AFNE01.JPG,AFNE01.JPG,3,5,35,9,,,,,,,,,,,,,,,,,,,,,,,AFSA05.jpg,AFSA08.jpg,AFNE09.jpg,AFNE03.jpg,AFSA05.jpg,FS,4,num_8,16,num_8,0.550157611491,,,2017_Jan_30_1703,60.0057738568,FEMA4ImagesEEG,001,0001,
AFNE01.JPG,AFNE01.JPG,AFNE01.JPG,AFNE01.JPG,AFNE01.JPG,AFNE01.JPG,3,6,36,0,,,,,,,,,,,,,,,,,,,,,,,AFSA07.jpg,AFNE02.jpg,AFSA02.jpg,AFNE11.jpg,AFNE02.jpg,FN,3,num_6,32,num_2,1.01675095712,,,2017_Jan_30_1703,60.0057738568,FEMA4ImagesEEG,001,0001,
AFNE01.JPG,AFNE01.JPG,AFNE01.JPG,AFNE01.JPG,AFNE01.JPG,AFNE01.JPG,3,7,37,5,,,,,,,,,,,,,,,,,,,,,,,AFSA19.jpg,AFNE01.jpg,AFSA17.jpg,AFNE13.jpg,AFNE01.jpg,FN,3,num_6,16,num_6,0.983464580029,,,2017_Jan_30_1703,60.0057738568,FEMA4ImagesEEG,001,0001,
AFNE01.JPG,AFNE01.JPG,AFNE01.JPG,AFNE01.JPG,AFNE01.JPG,AFNE01.JPG,3,8,38,3,,,,,,,,,,,,,,,,,,,,,,,AFNE05.jpg,AFSA07.jpg,AFSA15.jpg,AFNE02.jpg,AFNE05.jpg,FN,3,num_8,16,num_8,0.683457716252,,,2017_Jan_30_1703,60.0057738568,FEMA4ImagesEEG,001,0001,
AFNE01.JPG,AFNE01.JPG,AFNE01.JPG,AFNE01.JPG,AFNE01.JPG,AFNE01.JPG,3,9,39,4,,,,,,,,,,,,,,,,,,,,,,,AFSA01.jpg,AFSA08.jpg,AFNE17.jpg,AFNE10.jpg,AFNE17.jpg,FN,3,num_2,32,num_4,0.633509547799,,,2017_Jan_30_1703,60.0057738568,FEMA4ImagesEEG,001,0001,
AFNE01.JPG,AFNE01.JPG,AFNE01.JPG,AFNE01.JPG,AFNE01.JPG,AFNE01.JPG,4,0,40,4,,,,,,,,,,,,,,,,,,,,,,,AFSA06.jpg,AFNE19.jpg,AFSA08.jpg,AFNE09.jpg,AFSA06.jpg,FS,4,num_8,32,num_2,0.700154789025,,,2017_Jan_30_1703,60.0057738568,FEMA4ImagesEEG,001,0001,
AFNE01.JPG,AFNE01.JPG,AFNE01.JPG,AFNE01.JPG,AFNE01.JPG,AFNE01.JPG,4,1,41,9,,,,,,,,,,,,,,,,,,,,,,,AFNE03.jpg,AFSA02.jpg,AFSA09.jpg,AFNE08.jpg,AFSA09.jpg,FS,4,num_2,32,num_4,0.933435585117,,,2017_Jan_30_1703,60.0057738568,FEMA4ImagesEEG,001,0001,
AFNE01.JPG,AFNE01.JPG,AFNE01.JPG,AFNE01.JPG,AFNE01.JPG,AFNE01.JPG,4,2,42,7,,,,,,,,,,,,,,,,,,,,,,,AFSA06.jpg,AFSA09.jpg,AFNE19.jpg,AFNE07.jpg,AFSA06.jpg,FS,4,num_8,16,num_8,0.916806509136,,,2017_Jan_30_1703,60.0057738568,FEMA4ImagesEEG,001,0001,
AFNE01.JPG,AFNE01.JPG,AFNE01.JPG,AFNE01.JPG,AFNE01.JPG,AFNE01.JPG,4,3,43,1,,,,,,,,,,,,,,,,,,,,,,,AFNE08.jpg,AFNE20.jpg,AFSA01.jpg,AFSA03.jpg,AFSA01.jpg,FS,4,num_2,32,num_8,1.90002989292,,,2017_Jan_30_1703,60.0057738568,FEMA4ImagesEEG,001,0001,
AFNE01.JPG,AFNE01.JPG,AFNE01.JPG,AFNE01.JPG,AFNE01.JPG,AFNE01.JPG,4,4,44,3,,,,,,,,,,,,,,,,,,,,,,,AFSA17.jpg,AFNE06.jpg,AFSA12.jpg,AFNE11.jpg,AFNE06.jpg,FN,3,num_6,16,num_6,1.33340133016,,,2017_Jan_30_1703,60.0057738568,FEMA4ImagesEEG,001,0001,
AFNE01.JPG,AFNE01.JPG,AFNE01.JPG,AFNE01.JPG,AFNE01.JPG,AFNE01.JPG,4,5,45,8,,,,,,,,,,,,,,,,,,,,,,,AFSA10.jpg,AFSA07.jpg,AFNE13.jpg,AFNE08.jpg,AFSA10.jpg,FS,4,num_8,32,num_4,0.750133427791,,,2017_Jan_30_1703,60.0057738568,FEMA4ImagesEEG,001,0001,
AFNE01.JPG,AFNE01.JPG,AFNE01.JPG,AFNE01.JPG,AFNE01.JPG,AFNE01.JPG,4,6,46,6,,,,,,,,,,,,,,,,,,,,,,,AFSA08.jpg,AFNE14.jpg,AFSA11.jpg,AFNE12.jpg,AFSA11.jpg,FS,4,num_2,16,num_2,0.416777963401,,,2017_Jan_30_1703,60.0057738568,FEMA4ImagesEEG,001,0001,
AFNE01.JPG,AFNE01.JPG,AFNE01.JPG,AFNE01.JPG,AFNE01.JPG,AFNE01.JPG,4,7,47,0,,,,,,,,,,,,,,,,,,,,,,,AFNE08.jpg,AFNE09.jpg,AFSA16.jpg,AFSA08.jpg,AFSA08.jpg,FS,4,num_4,32,num_6,0.95011982834,,,2017_Jan_30_1703,60.0057738568,FEMA4ImagesEEG,001,0001,
AFNE01.JPG,AFNE01.JPG,AFNE01.JPG,AFNE01.JPG,AFNE01.JPG,AFNE01.JPG,4,8,48,5,,,,,,,,,,,,,,,,,,,,,,,AFNE08.jpg,AFSA20.jpg,AFNE04.jpg,AFSA13.jpg,AFSA13.jpg,FS,4,num_4,32,num_8,0.916761926375,,,2017_Jan_30_1703,60.0057738568,FEMA4ImagesEEG,001,0001,
AFNE01.JPG,AFNE01.JPG,AFNE01.JPG,AFNE01.JPG,AFNE01.JPG,AFNE01.JPG,4,9,49,2,,,,,,,,,,,,,,,,,,,,,,,AFSA02.jpg,AFSA14.jpg,AFNE11.jpg,AFNE07.jpg,AFNE11.jpg,FN,3,num_2,16,num_2,0.566811063676,,,2017_Jan_30_1703,60.0057738568,FEMA4ImagesEEG,001,0001,
AFNE01.JPG,AFNE01.JPG,AFNE01.JPG,AFNE01.JPG,AFNE01.JPG,AFNE01.JPG,5,0,50,2,,,,,,,,,,,,,,,,,,,,,,,AFNE06.jpg,AFSA15.jpg,AFSA05.jpg,AFNE16.jpg,AFNE16.jpg,FN,3,num_4,32,num_8,0.966763016884,,,2017_Jan_30_1703,60.0057738568,FEMA4ImagesEEG,001,0001,
AFNE01.JPG,AFNE01.JPG,AFNE01.JPG,AFNE01.JPG,AFNE01.JPG,AFNE01.JPG,5,1,51,9,,,,,,,,,,,,,,,,,,,,,,,AFNE05.jpg,AFNE20.jpg,AFSA12.jpg,AFSA15.jpg,AFNE05.jpg,FN,3,num_8,32,num_4,0.816770650563,,,2017_Jan_30_1703,60.0057738568,FEMA4ImagesEEG,001,0001,
AFNE01.JPG,AFNE01.JPG,AFNE01.JPG,AFNE01.JPG,AFNE01.JPG,AFNE01.JPG,5,2,52,7,,,,,,,,,,,,,,,,,,,,,,,AFSA08.jpg,AFSA04.jpg,AFNE13.jpg,AFNE06.jpg,AFSA04.jpg,FS,4,num_6,32,num_8,0.716762054712,,,2017_Jan_30_1703,60.0057738568,FEMA4ImagesEEG,001,0001,
AFNE01.JPG,AFNE01.JPG,AFNE01.JPG,AFNE01.JPG,AFNE01.JPG,AFNE01.JPG,5,3,53,6,,,,,,,,,,,,,,,,,,,,,,,AFNE17.jpg,AFNE10.jpg,AFSA03.jpg,AFSA10.jpg,AFNE17.jpg,FN,3,num_8,32,num_6,0.616759873694,,,2017_Jan_30_1703,60.0057738568,FEMA4ImagesEEG,001,0001,
AFNE01.JPG,AFNE01.JPG,AFNE01.JPG,AFNE01.JPG,AFNE01.JPG,AFNE01.JPG,5,4,54,0,,,,,,,,,,,,,,,,,,,,,,,AFNE20.jpg,AFSA06.jpg,AFNE17.jpg,AFSA08.jpg,AFSA06.jpg,FS,4,num_6,32,num_2,0.866834926768,,,2017_Jan_30_1703,60.0057738568,FEMA4ImagesEEG,001,0001,
AFNE01.JPG,AFNE01.JPG,AFNE01.JPG,AFNE01.JPG,AFNE01.JPG,AFNE01.JPG,5,5,55,4,,,,,,,,,,,,,,,,,,,,,,,AFNE08.jpg,AFSA12.jpg,AFSA07.jpg,AFNE02.jpg,AFSA12.jpg,FS,4,num_6,32,num_8,0.750162935816,,,2017_Jan_30_1703,60.0057738568,FEMA4ImagesEEG,001,0001,
AFNE01.JPG,AFNE01.JPG,AFNE01.JPG,AFNE01.JPG,AFNE01.JPG,AFNE01.JPG,5,6,56,1,,,,,,,,,,,,,,,,,,,,,,,AFNE02.jpg,AFSA09.jpg,AFSA15.jpg,AFNE11.jpg,AFSA09.jpg,FS,4,num_6,32,num_4,1.75004297914,,,2017_Jan_30_1703,60.0057738568,FEMA4ImagesEEG,001,0001,
AFNE01.JPG,AFNE01.JPG,AFNE01.JPG,AFNE01.JPG,AFNE01.JPG,AFNE01.JPG,5,7,57,5,,,,,,,,,,,,,,,,,,,,,,,AFNE04.jpg,AFSA20.jpg,AFSA14.jpg,AFNE15.jpg,AFSA20.jpg,FS,4,num_6,16,num_6,1.10011347779,,,2017_Jan_30_1703,60.0057738568,FEMA4ImagesEEG,001,0001,
AFNE01.JPG,AFNE01.JPG,AFNE01.JPG,AFNE01.JPG,AFNE01.JPG,AFNE01.JPG,5,8,58,3,,,,,,,,,,,,,,,,,,,,,,,AFSA08.jpg,AFNE18.jpg,AFSA10.jpg,AFNE05.jpg,AFSA08.jpg,FS,4,num_8,16,num_8,0.950110526988,,,2017_Jan_30_1703,60.0057738568,FEMA4ImagesEEG,001,0001,
AFNE01.JPG,AFNE01.JPG,AFNE01.JPG,AFNE01.JPG,AFNE01.JPG,AFNE01.JPG,5,9,59,8,,,,,,,,,,,,,,,,,,,,,,,AFNE17.jpg,AFNE16.jpg,AFSA08.jpg,AFSA19.jpg,AFSA08.jpg,FS,4,num_2,16,num_2,0.633449248737,,,2017_Jan_30_1703,60.0057738568,FEMA4ImagesEEG,001,0001,
,,,,,,,,,,,,,,,,,,,,,,,,,,,,,,,,,,,,,,,,,,,space,5.03285466123,2017_Jan_30_1703,60.0057738568,FEMA4ImagesEEG,001,0001,
AFNE01.JPG,AFNE01.JPG,AFNE01.JPG,AFNE01.JPG,AFNE01.JPG,AFNE01.JPG,,,,,0,0,0,3,,,,,,,,,,,,,,,,,,,AMSA04.jpg,AMNE02.jpg,AMSA11.jpg,AMNE09.jpg,AMNE09.jpg,MN,1,num_4,16,num_4,0.783477858757,,,2017_Jan_30_1703,60.0057738568,FEMA4ImagesEEG,001,0001,
AFNE01.JPG,AFNE01.JPG,AFNE01.JPG,AFNE01.JPG,AFNE01.JPG,AFNE01.JPG,,,,,0,1,1,7,,,,,,,,,,,,,,,,,,,AMSA20.jpg,AMNE18.jpg,AMNE04.jpg,AMSA05.jpg,AMNE04.jpg,MN,1,num_2,16,num_2,0.600101289689,,,2017_Jan_30_1703,60.0057738568,FEMA4ImagesEEG,001,0001,
AFNE01.JPG,AFNE01.JPG,AFNE01.JPG,AFNE01.JPG,AFNE01.JPG,AFNE01.JPG,,,,,0,2,2,6,,,,,,,,,,,,,,,,,,,AMNE15.jpg,AMSA10.jpg,AMNE04.jpg,AMSA04.jpg,AMNE04.jpg,MN,1,num_2,16,num_2,0.49999230227,,,2017_Jan_30_1703,60.0057738568,FEMA4ImagesEEG,001,0001,
AFNE01.JPG,AFNE01.JPG,AFNE01.JPG,AFNE01.JPG,AFNE01.JPG,AFNE01.JPG,,,,,0,3,3,8,,,,,,,,,,,,,,,,,,,AMSA11.jpg,AMNE14.jpg,AMNE18.jpg,AMSA13.jpg,AMSA11.jpg,MS,2,num_8,16,num_8,0.733481579227,,,2017_Jan_30_1703,60.0057738568,FEMA4ImagesEEG,001,0001,
AFNE01.JPG,AFNE01.JPG,AFNE01.JPG,AFNE01.JPG,AFNE01.JPG,AFNE01.JPG,,,,,0,4,4,1,,,,,,,,,,,,,,,,,,,AMNE06.jpg,AMSA15.jpg,AMNE13.jpg,AMSA08.jpg,AMNE13.jpg,MN,1,num_2,32,num_6,0.666776680504,,,2017_Jan_30_1703,60.0057738568,FEMA4ImagesEEG,001,0001,
AFNE01.JPG,AFNE01.JPG,AFNE01.JPG,AFNE01.JPG,AFNE01.JPG,AFNE01.JPG,,,,,0,5,5,4,,,,,,,,,,,,,,,,,,,AMNE18.jpg,AMNE12.jpg,AMSA13.jpg,AMSA02.jpg,AMNE12.jpg,MN,1,num_6,32,num_4,0.250178972725,,,2017_Jan_30_1703,60.0057738568,FEMA4ImagesEEG,001,0001,
AFNE01.JPG,AFNE01.JPG,AFNE01.JPG,AFNE01.JPG,AFNE01.JPG,AFNE01.JPG,,,,,0,6,6,2,,,,,,,,,,,,,,,,,,,AMSA05.jpg,AMNE18.jpg,AMNE13.jpg,AMSA13.jpg,AMSA13.jpg,MS,2,num_4,32,num_8,0.58346547815,,,2017_Jan_30_1703,60.0057738568,FEMA4ImagesEEG,001,0001,
AFNE01.JPG,AFNE01.JPG,AFNE01.JPG,AFNE01.JPG,AFNE01.JPG,AFNE01.JPG,,,,,0,7,7,5,,,,,,,,,,,,,,,,,,,AMNE17.jpg,AMNE20.jpg,AMSA16.jpg,AMSA09.jpg,AMNE20.jpg,MN,1,num_6,32,num_2,0.483471957035,,,2017_Jan_30_1703,60.0057738568,FEMA4ImagesEEG,001,0001,
AFNE01.JPG,AFNE01.JPG,AFNE01.JPG,AFNE01.JPG,AFNE01.JPG,AFNE01.JPG,,,,,0,8,8,0,,,,,,,,,,,,,,,,,,,AMSA11.jpg,AMSA16.jpg,AMNE19.jpg,AMNE17.jpg,AMNE17.jpg,MN,1,num_4,32,num_6,0.733479334041,,,2017_Jan_30_1703,60.0057738568,FEMA4ImagesEEG,001,0001,
AFNE01.JPG,AFNE01.JPG,AFNE01.JPG,AFNE01.JPG,AFNE01.JPG,AFNE01.JPG,,,,,0,9,9,9,,,,,,,,,,,,,,,,,,,AMSA20.jpg,AMSA12.jpg,AMNE15.jpg,AMNE16.jpg,AMNE15.jpg,MN,1,num_2,32,num_8,0.716793166357,,,2017_Jan_30_1703,60.0057738568,FEMA4ImagesEEG,001,0001,
AFNE01.JPG,AFNE01.JPG,AFNE01.JPG,AFNE01.JPG,AFNE01.JPG,AFNE01.JPG,,,,,1,0,10,0,,,,,,,,,,,,,,,,,,,AMNE09.jpg,AMNE04.jpg,AMSA17.jpg,AMSA18.jpg,AMSA18.jpg,MS,2,num_4,32,num_6,1.43340222829,,,2017_Jan_30_1703,60.0057738568,FEMA4ImagesEEG,001,0001,
AFNE01.JPG,AFNE01.JPG,AFNE01.JPG,AFNE01.JPG,AFNE01.JPG,AFNE01.JPG,,,,,1,1,11,5,,,,,,,,,,,,,,,,,,,AMNE07.jpg,AMNE08.jpg,AMSA01.jpg,AMSA12.jpg,AMSA12.jpg,MS,2,num_4,16,num_4,0.633454059716,,,2017_Jan_30_1703,60.0057738568,FEMA4ImagesEEG,001,0001,
AFNE01.JPG,AFNE01.JPG,AFNE01.JPG,AFNE01.JPG,AFNE01.JPG,AFNE01.JPG,,,,,1,2,12,3,,,,,,,,,,,,,,,,,,,AMSA01.jpg,AMNE09.jpg,AMSA14.jpg,AMNE03.jpg,AMNE09.jpg,MN,1,num_6,16,num_6,0.716777450172,,,2017_Jan_30_1703,60.0057738568,FEMA4ImagesEEG,001,0001,
AFNE01.JPG,AFNE01.JPG,AFNE01.JPG,AFNE01.JPG,AFNE01.JPG,AFNE01.JPG,,,,,1,3,13,1,,,,,,,,,,,,,,,,,,,AMNE02.jpg,AMSA11.jpg,AMSA01.jpg,AMNE01.jpg,AMSA01.jpg,MS,2,num_2,16,num_2,0.516761862207,,,2017_Jan_30_1703,60.0057738568,FEMA4ImagesEEG,001,0001,
AFNE01.JPG,AFNE01.JPG,AFNE01.JPG,AFNE01.JPG,AFNE01.JPG,AFNE01.JPG,,,,,1,4,14,8,,,,,,,,,,,,,,,,,,,AMNE19.jpg,AMSA03.jpg,AMNE10.jpg,AMSA05.jpg,AMSA05.jpg,MS,2,num_4,32,num_8,1.05038694048,,,2017_Jan_30_1703,60.0057738568,FEMA4ImagesEEG,001,0001,
AFNE01.JPG,AFNE01.JPG,AFNE01.JPG,AFNE01.JPG,AFNE01.JPG,AFNE01.JPG,,,,,1,5,15,9,,,,,,,,,,,,,,,,,,,AMNE02.jpg,AMSA04.jpg,AMSA17.jpg,AMNE03.jpg,AMNE02.jpg,MN,1,num_8,32,num_6,1.00012989959,,,2017_Jan_30_1703,60.0057738568,FEMA4ImagesEEG,001,0001,
AFNE01.JPG,AFNE01.JPG,AFNE01.JPG,AFNE01.JPG,AFNE01.JPG,AFNE01.JPG,,,,,1,6,16,6,,,,,,,,,,,,,,,,,,,AMNE19.jpg,AMSA14.jpg,AMSA12.jpg,AMNE05.jpg,AMNE19.jpg,MN,1,num_8,32,num_4,0.733569141245,,,2017_Jan_30_1703,60.0057738568,FEMA4ImagesEEG,001,0001,
AFNE01.JPG,AFNE01.JPG,AFNE01.JPG,AFNE01.JPG,AFNE01.JPG,AFNE01.JPG,,,,,1,7,17,7,,,,,,,,,,,,,,,,,,,AMNE12.jpg,AMSA09.jpg,AMNE15.jpg,AMSA14.jpg,AMSA09.jpg,MS,2,num_6,32,num_8,0.683492035372,,,2017_Jan_30_1703,60.0057738568,FEMA4ImagesEEG,001,0001,
AFNE01.JPG,AFNE01.JPG,AFNE01.JPG,AFNE01.JPG,AFNE01.JPG,AFNE01.JPG,,,,,1,8,18,4,,,,,,,,,,,,,,,,,,,AMNE08.jpg,AMSA07.jpg,AMNE14.jpg,AMSA15.jpg,AMSA15.jpg,MS,2,num_4,32,num_6,0.68346701772,,,2017_Jan_30_1703,60.0057738568,FEMA4ImagesEEG,001,0001,
AFNE01.JPG,AFNE01.JPG,AFNE01.JPG,AFNE01.JPG,AFNE01.JPG,AFNE01.JPG,,,,,1,9,19,2,,,,,,,,,,,,,,,,,,,AMSA20.jpg,AMNE15.jpg,AMNE18.jpg,AMSA07.jpg,AMSA07.jpg,MS,2,num_4,32,num_8,0.833438536036,,,2017_Jan_30_1703,60.0057738568,FEMA4ImagesEEG,001,0001,
AFNE01.JPG,AFNE01.JPG,AFNE01.JPG,AFNE01.JPG,AFNE01.JPG,AFNE01.JPG,,,,,2,0,20,7,,,,,,,,,,,,,,,,,,,AMSA01.jpg,AMNE13.jpg,AMNE14.jpg,AMSA03.jpg,AMNE13.jpg,MN,1,num_6,16,num_6,1.08346323296,,,2017_Jan_30_1703,60.0057738568,FEMA4ImagesEEG,001,0001,
AFNE01.JPG,AFNE01.JPG,AFNE01.JPG,AFNE01.JPG,AFNE01.JPG,AFNE01.JPG,,,,,2,1,21,4,,,,,,,,,,,,,,,,,,,AMSA09.jpg,AMNE02.jpg,AMSA05.jpg,AMNE20.jpg,AMNE02.jpg,MN,1,num_6,16,num_6,0.866822417942,,,2017_Jan_30_1703,60.0057738568,FEMA4ImagesEEG,001,0001,
AFNE01.JPG,AFNE01.JPG,AFNE01.JPG,AFNE01.JPG,AFNE01.JPG,AFNE01.JPG,,,,,2,2,22,1,,,,,,,,,,,,,,,,,,,AMSA13.jpg,AMSA03.jpg,AMNE08.jpg,AMNE11.jpg,AMSA13.jpg,MS,2,num_8,16,num_8,0.650141510414,,,2017_Jan_30_1703,60.0057738568,FEMA4ImagesEEG,001,0001,
AFNE01.JPG,AFNE01.JPG,AFNE01.JPG,AFNE01.JPG,AFNE01.JPG,AFNE01.JPG,,,,,2,3,23,3,,,,,,,,,,,,,,,,,,,AMNE05.jpg,AMSA01.jpg,AMNE06.jpg,AMSA08.jpg,AMSA01.jpg,MS,2,num_6,16,num_6,0.650142472703,,,2017_Jan_30_1703,60.0057738568,FEMA4ImagesEEG,001,0001,
AFNE01.JPG,AFNE01.JPG,AFNE01.JPG,AFNE01.JPG,AFNE01.JPG,AFNE01.JPG,,,,,2,4,24,8,,,,,,,,,,,,,,,,,,,AMNE20.jpg,AMNE11.jpg,AMSA01.jpg,AMSA13.jpg,AMNE20.jpg,MN,1,num_8,32,num_4,0.683444245253,,,2017_Jan_30_1703,60.0057738568,FEMA4ImagesEEG,001,0001,
AFNE01.JPG,AFNE01.JPG,AFNE01.JPG,AFNE01.JPG,AFNE01.JPG,AFNE01.JPG,,,,,2,5,25,2,,,,,,,,,,,,,,,,,,,AMSA10.jpg,AMSA01.jpg,AMNE08.jpg,AMNE15.jpg,AMNE08.jpg,MN,1,num_2,32,num_8,0.733455920126,,,2017_Jan_30_1703,60.0057738568,FEMA4ImagesEEG,001,0001,
AFNE01.JPG,AFNE01.JPG,AFNE01.JPG,AFNE01.JPG,AFNE01.JPG,AFNE01.JPG,,,,,2,6,26,9,,,,,,,,,,,,,,,,,,,AMNE08.jpg,AMSA14.jpg,AMSA07.jpg,AMNE16.jpg,AMSA14.jpg,MS,2,num_6,16,num_6,0.683353796485,,,2017_Jan_30_1703,60.0057738568,FEMA4ImagesEEG,001,0001,
AFNE01.JPG,AFNE01.JPG,AFNE01.JPG,AFNE01.JPG,AFNE01.JPG,AFNE01.JPG,,,,,2,7,27,5,,,,,,,,,,,,,,,,,,,AMSA07.jpg,AMNE01.jpg,AMSA05.jpg,AMNE13.jpg,AMSA05.jpg,MS,2,num_2,16,num_2,0.616808305262,,,2017_Jan_30_1703,60.0057738568,FEMA4ImagesEEG,001,0001,
AFNE01.JPG,AFNE01.JPG,AFNE01.JPG,AFNE01.JPG,AFNE01.JPG,AFNE01.JPG,,,,,2,8,28,0,,,,,,,,,,,,,,,,,,,AMNE11.jpg,AMNE20.jpg,AMSA19.jpg,AMSA17.jpg,AMSA17.jpg,MS,2,num_4,16,num_4,0.716763658333,,,2017_Jan_30_1703,60.0057738568,FEMA4ImagesEEG,001,0001,
AFNE01.JPG,AFNE01.JPG,AFNE01.JPG,AFNE01.JPG,AFNE01.JPG,AFNE01.JPG,,,,,2,9,29,6,,,,,,,,,,,,,,,,,,,AMNE09.jpg,AMSA11.jpg,AMSA09.jpg,AMNE15.jpg,AMSA11.jpg,MS,2,num_6,32,num_2,0.933405756368,,,2017_Jan_30_1703,60.0057738568,FEMA4ImagesEEG,001,0001,
AFNE01.JPG,AFNE01.JPG,AFNE01.JPG,AFNE01.JPG,AFNE01.JPG,AFNE01.JPG,,,,,3,0,30,5,,,,,,,,,,,,,,,,,,,AMNE03.jpg,AMNE15.jpg,AMSA02.jpg,AMSA08.jpg,AMSA02.jpg,MS,2,num_2,16,num_2,0.600135288085,,,2017_Jan_30_1703,60.0057738568,FEMA4ImagesEEG,001,0001,
AFNE01.JPG,AFNE01.JPG,AFNE01.JPG,AFNE01.JPG,AFNE01.JPG,AFNE01.JPG,,,,,3,1,31,8,,,,,,,,,,,,,,,,,,,AMNE18.jpg,AMSA15.jpg,AMNE09.jpg,AMSA12.jpg,AMNE09.jpg,MN,1,num_2,16,num_2,0.600135929533,,,2017_Jan_30_1703,60.0057738568,FEMA4ImagesEEG,001,0001,
AFNE01.JPG,AFNE01.JPG,AFNE01.JPG,AFNE01.JPG,AFNE01.JPG,AFNE01.JPG,,,,,3,2,32,1,,,,,,,,,,,,,,,,,,,AMNE12.jpg,AMNE20.jpg,AMSA19.jpg,AMSA07.jpg,AMSA19.jpg,MS,2,num_2,16,num_2,0.950125922449,,,2017_Jan_30_1703,60.0057738568,FEMA4ImagesEEG,001,0001,
AFNE01.JPG,AFNE01.JPG,AFNE01.JPG,AFNE01.JPG,AFNE01.JPG,AFNE01.JPG,,,,,3,3,33,7,,,,,,,,,,,,,,,,,,,AMSA16.jpg,AMSA19.jpg,AMNE18.jpg,AMNE10.jpg,AMSA16.jpg,MS,2,num_8,16,num_8,0.616757307784,,,2017_Jan_30_1703,60.0057738568,FEMA4ImagesEEG,001,0001,
AFNE01.JPG,AFNE01.JPG,AFNE01.JPG,AFNE01.JPG,AFNE01.JPG,AFNE01.JPG,,,,,3,4,34,6,,,,,,,,,,,,,,,,,,,AMSA18.jpg,AMNE02.jpg,AMNE18.jpg,AMSA16.jpg,AMSA18.jpg,MS,2,num_8,32,num_4,1.1664646006,,,2017_Jan_30_1703,60.0057738568,FEMA4ImagesEEG,001,0001,
AFNE01.JPG,AFNE01.JPG,AFNE01.JPG,AFNE01.JPG,AFNE01.JPG,AFNE01.JPG,,,,,3,5,35,3,,,,,,,,,,,,,,,,,,,AMNE17.jpg,AMNE19.jpg,AMSA15.jpg,AMSA16.jpg,AMSA15.jpg,MS,2,num_2,16,num_2,0.683497488033,,,2017_Jan_30_1703,60.0057738568,FEMA4ImagesEEG,001,0001,
AFNE01.JPG,AFNE01.JPG,AFNE01.JPG,AFNE01.JPG,AFNE01.JPG,AFNE01.JPG,,,,,3,6,36,2,,,,,,,,,,,,,,,,,,,AMSA18.jpg,AMSA16.jpg,AMNE08.jpg,AMNE19.jpg,AMNE19.jpg,MN,1,num_4,32,num_6,0.683419227484,,,2017_Jan_30_1703,60.0057738568,FEMA4ImagesEEG,001,0001,
AFNE01.JPG,AFNE01.JPG,AFNE01.JPG,AFNE01.JPG,AFNE01.JPG,AFNE01.JPG,,,,,3,7,37,4,,,,,,,,,,,,,,,,,,,AMSA10.jpg,AMNE18.jpg,AMNE06.jpg,AMSA09.jpg,AMNE06.jpg,MN,1,num_2,32,num_8,0.633535207016,,,2017_Jan_30_1703,60.0057738568,FEMA4ImagesEEG,001,0001,
AFNE01.JPG,AFNE01.JPG,AFNE01.JPG,AFNE01.JPG,AFNE01.JPG,AFNE01.JPG,,,,,3,8,38,9,,,,,,,,,,,,,,,,,,,AMSA07.jpg,AMSA02.jpg,AMNE07.jpg,AMNE13.jpg,AMSA02.jpg,MS,2,num_6,32,num_2,0.966877200291,,,2017_Jan_30_1703,60.0057738568,FEMA4ImagesEEG,001,0001,
AFNE01.JPG,AFNE01.JPG,AFNE01.JPG,AFNE01.JPG,AFNE01.JPG,AFNE01.JPG,,,,,3,9,39,0,,,,,,,,,,,,,,,,,,,AMNE09.jpg,AMNE15.jpg,AMSA08.jpg,AMSA11.jpg,AMNE15.jpg,MN,1,num_6,16,num_6,1.01674646675,,,2017_Jan_30_1703,60.0057738568,FEMA4ImagesEEG,001,0001,
AFNE01.JPG,AFNE01.JPG,AFNE01.JPG,AFNE01.JPG,AFNE01.JPG,AFNE01.JPG,,,,,4,0,40,3,,,,,,,,,,,,,,,,,,,AMSA05.jpg,AMNE14.jpg,AMSA14.jpg,AMNE11.jpg,AMNE14.jpg,MN,1,num_6,32,num_4,0.866791626904,,,2017_Jan_30_1703,60.0057738568,FEMA4ImagesEEG,001,0001,
AFNE01.JPG,AFNE01.JPG,AFNE01.JPG,AFNE01.JPG,AFNE01.JPG,AFNE01.JPG,,,,,4,1,41,2,,,,,,,,,,,,,,,,,,,AMSA06.jpg,AMSA02.jpg,AMNE01.jpg,AMNE19.jpg,AMNE19.jpg,MN,1,num_4,32,num_8,0.666766096023,,,2017_Jan_30_1703,60.0057738568,FEMA4ImagesEEG,001,0001,
AFNE01.JPG,AFNE01.JPG,AFNE01.JPG,AFNE01.JPG,AFNE01.JPG,AFNE01.JPG,,,,,4,2,42,5,,,,,,,,,,,,,,,,,,,AMSA10.jpg,AMNE16.jpg,AMNE18.jpg,AMSA05.jpg,AMNE18.jpg,MN,1,num_2,32,num_6,0.716752111795,,,2017_Jan_30_1703,60.0057738568,FEMA4ImagesEEG,001,0001,
AFNE01.JPG,AFNE01.JPG,AFNE01.JPG,AFNE01.JPG,AFNE01.JPG,AFNE01.JPG,,,,,4,3,43,0,,,,,,,,,,,,,,,,,,,AMSA09.jpg,AMNE14.jpg,AMNE16.jpg,AMSA14.jpg,AMSA09.jpg,MS,2,num_8,16,num_8,0.65013862378,,,2017_Jan_30_1703,60.0057738568,FEMA4ImagesEEG,001,0001,
AFNE01.JPG,AFNE01.JPG,AFNE01.JPG,AFNE01.JPG,AFNE01.JPG,AFNE01.JPG,,,,,4,4,44,1,,,,,,,,,,,,,,,,,,,AMSA13.jpg,AMSA07.jpg,AMNE18.jpg,AMNE15.jpg,AMSA07.jpg,MS,2,num_6,16,num_6,0.700143242371,,,2017_Jan_30_1703,60.0057738568,FEMA4ImagesEEG,001,0001,
AFNE01.JPG,AFNE01.JPG,AFNE01.JPG,AFNE01.JPG,AFNE01.JPG,AFNE01.JPG,,,,,4,5,45,4,,,,,,,,,,,,,,,,,,,AMSA13.jpg,AMNE17.jpg,AMSA04.jpg,AMNE08.jpg,AMSA13.jpg,MS,2,num_8,16,num_8,0.83335546439,,,2017_Jan_30_1703,60.0057738568,FEMA4ImagesEEG,001,0001,
AFNE01.JPG,AFNE01.JPG,AFNE01.JPG,AFNE01.JPG,AFNE01.JPG,AFNE01.JPG,,,,,4,6,46,8,,,,,,,,,,,,,,,,,,,AMNE11.jpg,AMNE20.jpg,AMSA01.jpg,AMSA03.jpg,AMSA01.jpg,MS,2,num_2,16,num_2,0.516809010995,,,2017_Jan_30_1703,60.0057738568,FEMA4ImagesEEG,001,0001,
AFNE01.JPG,AFNE01.JPG,AFNE01.JPG,AFNE01.JPG,AFNE01.JPG,AFNE01.JPG,,,,,4,7,47,7,,,,,,,,,,,,,,,,,,,AMNE14.jpg,AMSA13.jpg,AMSA08.jpg,AMNE20.jpg,AMNE14.jpg,MN,1,num_8,16,num_8,0.533502234844,,,2017_Jan_30_1703,60.0057738568,FEMA4ImagesEEG,001,0001,
AFNE01.JPG,AFNE01.JPG,AFNE01.JPG,AFNE01.JPG,AFNE01.JPG,AFNE01.JPG,,,,,4,8,48,9,,,,,,,,,,,,,,,,,,,AMNE13.jpg,AMNE19.jpg,AMSA15.jpg,AMSA05.jpg,AMNE19.jpg,MN,1,num_6,16,num_6,0.766780465143,,,2017_Jan_30_1703,60.0057738568,FEMA4ImagesEEG,001,0001,
AFNE01.JPG,AFNE01.JPG,AFNE01.JPG,AFNE01.JPG,AFNE01.JPG,AFNE01.JPG,,,,,4,9,49,6,,,,,,,,,,,,,,,,,,,AMSA03.jpg,AMNE11.jpg,AMSA07.jpg,AMNE12.jpg,AMNE12.jpg,MN,1,num_4,16,num_4,1.10016287165,,,2017_Jan_30_1703,60.0057738568,FEMA4ImagesEEG,001,0001,
AFNE01.JPG,AFNE01.JPG,AFNE01.JPG,AFNE01.JPG,AFNE01.JPG,AFNE01.JPG,,,,,5,0,50,9,,,,,,,,,,,,,,,,,,,AMNE03.jpg,AMNE11.jpg,AMSA10.jpg,AMSA06.jpg,AMSA06.jpg,MS,2,num_4,32,num_8,0.700126563897,,,2017_Jan_30_1703,60.0057738568,FEMA4ImagesEEG,001,0001,
AFNE01.JPG,AFNE01.JPG,AFNE01.JPG,AFNE01.JPG,AFNE01.JPG,AFNE01.JPG,,,,,5,1,51,1,,,,,,,,,,,,,,,,,,,AMSA18.jpg,AMNE12.jpg,AMNE01.jpg,AMSA12.jpg,AMSA18.jpg,MS,2,num_8,16,num_8,0.916695533204,,,2017_Jan_30_1703,60.0057738568,FEMA4ImagesEEG,001,0001,
AFNE01.JPG,AFNE01.JPG,AFNE01.JPG,AFNE01.JPG,AFNE01.JPG,AFNE01.JPG,,,,,5,2,52,3,,,,,,,,,,,,,,,,,,,AMNE04.jpg,AMNE11.jpg,AMSA15.jpg,AMSA14.jpg,AMNE04.jpg,MN,1,num_8,32,num_6,0.833521286957,,,2017_Jan_30_1703,60.0057738568,FEMA4ImagesEEG,001,0001,
AFNE01.JPG,AFNE01.JPG,AFNE01.JPG,AFNE01.JPG,AFNE01.JPG,AFNE01.JPG,,,,,5,3,53,5,,,,,,,,,,,,,,,,,,,AMNE07.jpg,AMNE11.jpg,AMSA07.jpg,AMSA01.jpg,AMNE11.jpg,MN,1,num_6,32,num_2,1.26677725767,,,2017_Jan_30_1703,60.0057738568,FEMA4ImagesEEG,001,0001,
AFNE01.JPG,AFNE01.JPG,AFNE01.JPG,AFNE01.JPG,AFNE01.JPG,AFNE01.JPG,,,,,5,4,54,0,,,,,,,,,,,,,,,,,,,AMNE02.jpg,AMNE06.jpg,AMSA10.jpg,AMSA20.jpg,AMNE02.jpg,MN,1,num_8,32,num_4,0.783457972808,,,2017_Jan_30_1703,60.0057738568,FEMA4ImagesEEG,001,0001,
AFNE01.JPG,AFNE01.JPG,AFNE01.JPG,AFNE01.JPG,AFNE01.JPG,AFNE01.JPG,,,,,5,5,55,6,,,,,,,,,,,,,,,,,,,AMSA18.jpg,AMNE13.jpg,AMSA11.jpg,AMNE04.jpg,AMSA11.jpg,MS,2,num_2,16,num_2,1.80003091926,,,2017_Jan_30_1703,60.0057738568,FEMA4ImagesEEG,001,0001,
AFNE01.JPG,AFNE01.JPG,AFNE01.JPG,AFNE01.JPG,AFNE01.JPG,AFNE01.JPG,,,,,5,6,56,8,,,,,,,,,,,,,,,,,,,AMNE02.jpg,AMNE13.jpg,AMSA18.jpg,AMSA09.jpg,AMSA18.jpg,MS,2,num_2,16,num_2,0.700115017244,,,2017_Jan_30_1703,60.0057738568,FEMA4ImagesEEG,001,0001,
AFNE01.JPG,AFNE01.JPG,AFNE01.JPG,AFNE01.JPG,AFNE01.JPG,AFNE01.JPG,,,,,5,7,57,2,,,,,,,,,,,,,,,,,,,AMNE18.jpg,AMSA13.jpg,AMNE05.jpg,AMSA11.jpg,AMSA11.jpg,MS,2,num_4,32,num_6,0.600094554131,,,2017_Jan_30_1703,60.0057738568,FEMA4ImagesEEG,001,0001,
AFNE01.JPG,AFNE01.JPG,AFNE01.JPG,AFNE01.JPG,AFNE01.JPG,AFNE01.JPG,,,,,5,8,58,7,,,,,,,,,,,,,,,,,,,AMSA16.jpg,AMNE10.jpg,AMSA02.jpg,AMNE20.jpg,AMSA16.jpg,MS,2,num_8,16,num_8,0.633280218812,,,2017_Jan_30_1703,60.0057738568,FEMA4ImagesEEG,001,0001,
AFNE01.JPG,AFNE01.JPG,AFNE01.JPG,AFNE01.JPG,AFNE01.JPG,AFNE01.JPG,,,,,5,9,59,4,,,,,,,,,,,,,,,,,,,AMNE02.jpg,AMSA07.jpg,AMSA02.jpg,AMNE20.jpg,AMNE20.jpg,MN,1,num_4,32,num_6,0.68347214954,,,2017_Jan_30_1703,60.0057738568,FEMA4ImagesEEG,001,0001,
,,,,,,,,,,,,,,,,,,,,,,,,,,,,,,,,,,,,,,,,,,,space,3.18356837146,2017_Jan_30_1703,60.0057738568,FEMA4ImagesEEG,001,0001,
AFNE01.JPG,AFNE01.JPG,AFNE01.JPG,AFNE01.JPG,AFNE01.JPG,AFNE01.JPG,,,,,,,,,0,0,0,0,,,,,,,,,,,,,,,AFNE12.jpg,AFNE07.jpg,AFSA19.jpg,AFSA07.jpg,AFNE12.jpg,FN,3,num_8,32,num_6,0.566790536395,,,2017_Jan_30_1703,60.0057738568,FEMA4ImagesEEG,001,0001,
AFNE01.JPG,AFNE01.JPG,AFNE01.JPG,AFNE01.JPG,AFNE01.JPG,AFNE01.JPG,,,,,,,,,0,1,1,1,,,,,,,,,,,,,,,AFNE03.jpg,AFSA16.jpg,AFSA11.jpg,AFNE01.jpg,AFSA11.jpg,FS,4,num_2,16,num_2,0.750118032214,,,2017_Jan_30_1703,60.0057738568,FEMA4ImagesEEG,001,0001,
AFNE01.JPG,AFNE01.JPG,AFNE01.JPG,AFNE01.JPG,AFNE01.JPG,AFNE01.JPG,,,,,,,,,0,2,2,6,,,,,,,,,,,,,,,AFSA02.jpg,AFSA19.jpg,AFNE05.jpg,AFNE17.jpg,AFNE17.jpg,FN,3,num_4,32,num_8,0.616775269154,,,2017_Jan_30_1703,60.0057738568,FEMA4ImagesEEG,001,0001,
AFNE01.JPG,AFNE01.JPG,AFNE01.JPG,AFNE01.JPG,AFNE01.JPG,AFNE01.JPG,,,,,,,,,0,3,3,7,,,,,,,,,,,,,,,AFSA12.jpg,AFNE20.jpg,AFSA07.jpg,AFNE19.jpg,AFSA12.jpg,FS,4,num_8,32,num_4,0.716795090935,,,2017_Jan_30_1703,60.0057738568,FEMA4ImagesEEG,001,0001,
AFNE01.JPG,AFNE01.JPG,AFNE01.JPG,AFNE01.JPG,AFNE01.JPG,AFNE01.JPG,,,,,,,,,0,4,4,8,,,,,,,,,,,,,,,AFNE07.jpg,AFSA03.jpg,AFNE04.jpg,AFSA16.jpg,AFSA03.jpg,FS,4,num_6,16,num_6,0.533469198737,,,2017_Jan_30_1703,60.0057738568,FEMA4ImagesEEG,001,0001,
AFNE01.JPG,AFNE01.JPG,AFNE01.JPG,AFNE01.JPG,AFNE01.JPG,AFNE01.JPG,,,,,,,,,0,5,5,2,,,,,,,,,,,,,,,AFNE14.jpg,AFSA10.jpg,AFNE18.jpg,AFSA08.jpg,AFSA10.jpg,FS,4,num_6,16,num_6,0.633468813845,,,2017_Jan_30_1703,60.0057738568,FEMA4ImagesEEG,001,0001,
AFNE01.JPG,AFNE01.JPG,AFNE01.JPG,AFNE01.JPG,AFNE01.JPG,AFNE01.JPG,,,,,,,,,0,6,6,3,,,,,,,,,,,,,,,AFSA11.jpg,AFSA10.jpg,AFNE05.jpg,AFNE06.jpg,AFSA10.jpg,FS,4,num_6,16,num_6,0.550127462018,,,2017_Jan_30_1703,60.0057738568,FEMA4ImagesEEG,001,0001,
AFNE01.JPG,AFNE01.JPG,AFNE01.JPG,AFNE01.JPG,AFNE01.JPG,AFNE01.JPG,,,,,,,,,0,7,7,5,,,,,,,,,,,,,,,AFSA15.jpg,AFSA05.jpg,AFNE11.jpg,AFNE09.jpg,AFNE11.jpg,FN,3,num_2,16,num_2,1.58339876425,,,2017_Jan_30_1703,60.0057738568,FEMA4ImagesEEG,001,0001,
AFNE01.JPG,AFNE01.JPG,AFNE01.JPG,AFNE01.JPG,AFNE01.JPG,AFNE01.JPG,,,,,,,,,0,8,8,4,,,,,,,,,,,,,,,AFNE07.jpg,AFSA06.jpg,AFNE17.jpg,AFSA16.jpg,AFNE17.jpg,FN,3,num_2,16,num_2,1.55016915826,,,2017_Jan_30_1703,60.0057738568,FEMA4ImagesEEG,001,0001,
AFNE01.JPG,AFNE01.JPG,AFNE01.JPG,AFNE01.JPG,AFNE01.JPG,AFNE01.JPG,,,,,,,,,0,9,9,9,,,,,,,,,,,,,,,AFSA19.jpg,AFSA15.jpg,AFNE03.jpg,AFNE20.jpg,AFSA19.jpg,FS,4,num_8,32,num_6,1.03341563523,,,2017_Jan_30_1703,60.0057738568,FEMA4ImagesEEG,001,0001,
AFNE01.JPG,AFNE01.JPG,AFNE01.JPG,AFNE01.JPG,AFNE01.JPG,AFNE01.JPG,,,,,,,,,1,0,10,4,,,,,,,,,,,,,,,AFNE03.jpg,AFNE12.jpg,AFSA10.jpg,AFSA05.jpg,AFNE12.jpg,FN,3,num_6,16,num_6,1.01683370792,,,2017_Jan_30_1703,60.0057738568,FEMA4ImagesEEG,001,0001,
AFNE01.JPG,AFNE01.JPG,AFNE01.JPG,AFNE01.JPG,AFNE01.JPG,AFNE01.JPG,,,,,,,,,1,1,11,9,,,,,,,,,,,,,,,AFSA09.jpg,AFSA07.jpg,AFNE15.jpg,AFNE06.jpg,AFSA09.jpg,FS,4,num_8,32,num_6,1.28341306932,,,2017_Jan_30_1703,60.0057738568,FEMA4ImagesEEG,001,0001,
AFNE01.JPG,AFNE01.JPG,AFNE01.JPG,AFNE01.JPG,AFNE01.JPG,AFNE01.JPG,,,,,,,,,1,2,12,3,,,,,,,,,,,,,,,AFSA12.jpg,AFNE13.jpg,AFSA15.jpg,AFNE09.jpg,AFNE13.jpg,FN,3,num_6,16,num_6,0.633476190851,,,2017_Jan_30_1703,60.0057738568,FEMA4ImagesEEG,001,0001,
AFNE01.JPG,AFNE01.JPG,AFNE01.JPG,AFNE01.JPG,AFNE01.JPG,AFNE01.JPG,,,,,,,,,1,3,13,1,,,,,,,,,,,,,,,AFNE17.jpg,AFSA13.jpg,AFNE02.jpg,AFSA16.jpg,AFNE02.jpg,FN,3,num_2,32,num_8,1.35013560881,,,2017_Jan_30_1703,60.0057738568,FEMA4ImagesEEG,001,0001,
AFNE01.JPG,AFNE01.JPG,AFNE01.JPG,AFNE01.JPG,AFNE01.JPG,AFNE01.JPG,,,,,,,,,1,4,14,2,,,,,,,,,,,,,,,AFNE08.jpg,AFNE18.jpg,AFSA07.jpg,AFSA12.jpg,AFSA12.jpg,FS,4,num_4,16,num_4,0.700165052665,,,2017_Jan_30_1703,60.0057738568,FEMA4ImagesEEG,001,0001,
AFNE01.JPG,AFNE01.JPG,AFNE01.JPG,AFNE01.JPG,AFNE01.JPG,AFNE01.JPG,,,,,,,,,1,5,15,5,,,,,,,,,,,,,,,AFSA11.jpg,AFSA08.jpg,AFNE04.jpg,AFNE12.jpg,AFSA08.jpg,FS,4,num_6,32,num_8,0.700249086483,,,2017_Jan_30_1703,60.0057738568,FEMA4ImagesEEG,001,0001,
AFNE01.JPG,AFNE01.JPG,AFNE01.JPG,AFNE01.JPG,AFNE01.JPG,AFNE01.JPG,,,,,,,,,1,6,16,7,,,,,,,,,,,,,,,AFSA03.jpg,AFNE09.jpg,AFSA13.jpg,AFNE13.jpg,AFNE13.jpg,FN,3,num_4,16,num_4,0.866769495886,,,2017_Jan_30_1703,60.0057738568,FEMA4ImagesEEG,001,0001,
AFNE01.JPG,AFNE01.JPG,AFNE01.JPG,AFNE01.JPG,AFNE01.JPG,AFNE01.JPG,,,,,,,,,1,7,17,0,,,,,,,,,,,,,,,AFSA17.jpg,AFNE01.jpg,AFNE03.jpg,AFSA13.jpg,AFNE03.jpg,FN,3,num_2,32,num_8,0.866782646161,,,2017_Jan_30_1703,60.0057738568,FEMA4ImagesEEG,001,0001,
AFNE01.JPG,AFNE01.JPG,AFNE01.JPG,AFNE01.JPG,AFNE01.JPG,AFNE01.JPG,,,,,,,,,1,8,18,8,,,,,,,,,,,,,,,AFSA18.jpg,AFSA08.jpg,AFNE18.jpg,AFNE10.jpg,AFNE18.jpg,FN,3,num_2,16,num_2,0.500145615893,,,2017_Jan_30_1703,60.0057738568,FEMA4ImagesEEG,001,0001,
AFNE01.JPG,AFNE01.JPG,AFNE01.JPG,AFNE01.JPG,AFNE01.JPG,AFNE01.JPG,,,,,,,,,1,9,19,6,,,,,,,,,,,,,,,AFSA04.jpg,AFSA02.jpg,AFNE11.jpg,AFNE13.jpg,AFNE11.jpg,FN,3,num_2,32,num_6,0.0999819744611,,,2017_Jan_30_1703,60.0057738568,FEMA4ImagesEEG,001,0001,
AFNE01.JPG,AFNE01.JPG,AFNE01.JPG,AFNE01.JPG,AFNE01.JPG,AFNE01.JPG,,,,,,,,,2,0,20,9,,,,,,,,,,,,,,,AFSA03.jpg,AFNE08.jpg,AFSA04.jpg,AFNE12.jpg,AFNE08.jpg,FN,3,num_6,32,num_8,0.383535527624,,,2017_Jan_30_1703,60.0057738568,FEMA4ImagesEEG,001,0001,
AFNE01.JPG,AFNE01.JPG,AFNE01.JPG,AFNE01.JPG,AFNE01.JPG,AFNE01.JPG,,,,,,,,,2,1,21,4,,,,,,,,,,,,,,,AFNE17.jpg,AFSA04.jpg,AFNE01.jpg,AFSA15.jpg,AFSA15.jpg,FS,4,num_4,32,num_6,1.08349979727,,,2017_Jan_30_1703,60.0057738568,FEMA4ImagesEEG,001,0001,
AFNE01.JPG,AFNE01.JPG,AFNE01.JPG,AFNE01.JPG,AFNE01.JPG,AFNE01.JPG,,,,,,,,,2,2,22,5,,,,,,,,,,,,,,,AFSA13.jpg,AFNE07.jpg,AFNE16.jpg,AFSA20.jpg,AFNE16.jpg,FN,3,num_2,32,num_6,0.733470674139,,,2017_Jan_30_1703,60.0057738568,FEMA4ImagesEEG,001,0001,
AFNE01.JPG,AFNE01.JPG,AFNE01.JPG,AFNE01.JPG,AFNE01.JPG,AFNE01.JPG,,,,,,,,,2,3,23,6,,,,,,,,,,,,,,,AFSA12.jpg,AFNE16.jpg,AFNE11.jpg,AFSA19.jpg,AFSA12.jpg,FS,4,num_8,16,num_8,0.700323177385,,,2017_Jan_30_1703,60.0057738568,FEMA4ImagesEEG,001,0001,
AFNE01.JPG,AFNE01.JPG,AFNE01.JPG,AFNE01.JPG,AFNE01.JPG,AFNE01.JPG,,,,,,,,,2,4,24,2,,,,,,,,,,,,,,,AFSA01.jpg,AFSA14.jpg,AFNE03.jpg,AFNE05.jpg,AFSA01.jpg,FS,4,num_8,32,num_4,0.483467145939,,,2017_Jan_30_1703,60.0057738568,FEMA4ImagesEEG,001,0001,
AFNE01.JPG,AFNE01.JPG,AFNE01.JPG,AFNE01.JPG,AFNE01.JPG,AFNE01.JPG,,,,,,,,,2,5,25,1,,,,,,,,,,,,,,,AFSA01.jpg,AFSA04.jpg,AFNE11.jpg,AFNE16.jpg,AFNE11.jpg,FN,3,num_2,16,num_2,0.866756345495,,,2017_Jan_30_1703,60.0057738568,FEMA4ImagesEEG,001,0001,
AFNE01.JPG,AFNE01.JPG,AFNE01.JPG,AFNE01.JPG,AFNE01.JPG,AFNE01.JPG,,,,,,,,,2,6,26,3,,,,,,,,,,,,,,,AFSA02.jpg,AFNE06.jpg,AFSA07.jpg,AFNE17.jpg,AFNE17.jpg,FN,3,num_4,32,num_8,1.46673767851,,,2017_Jan_30_1703,60.0057738568,FEMA4ImagesEEG,001,0001,
AFNE01.JPG,AFNE01.JPG,AFNE01.JPG,AFNE01.JPG,AFNE01.JPG,AFNE01.JPG,,,,,,,,,2,7,27,0,,,,,,,,,,,,,,,AFNE09.jpg,AFNE01.jpg,AFSA15.jpg,AFSA07.jpg,AFSA15.jpg,FS,4,num_2,16,num_2,0.983445014921,,,2017_Jan_30_1703,60.0057738568,FEMA4ImagesEEG,001,0001,
AFNE01.JPG,AFNE01.JPG,AFNE01.JPG,AFNE01.JPG,AFNE01.JPG,AFNE01.JPG,,,,,,,,,2,8,28,8,,,,,,,,,,,,,,,AFNE07.jpg,AFSA03.jpg,AFSA20.jpg,AFNE01.jpg,AFNE07.jpg,FN,3,num_8,16,num_8,0.516808048706,,,2017_Jan_30_1703,60.0057738568,FEMA4ImagesEEG,001,0001,
AFNE01.JPG,AFNE01.JPG,AFNE01.JPG,AFNE01.JPG,AFNE01.JPG,AFNE01.JPG,,,,,,,,,2,9,29,7,,,,,,,,,,,,,,,AFNE05.jpg,AFNE12.jpg,AFSA09.jpg,AFSA14.jpg,AFSA14.jpg,FS,4,num_4,32,num_6,0.600121175521,,,2017_Jan_30_1703,60.0057738568,FEMA4ImagesEEG,001,0001,
AFNE01.JPG,AFNE01.JPG,AFNE01.JPG,AFNE01.JPG,AFNE01.JPG,AFNE01.JPG,,,,,,,,,3,0,30,3,,,,,,,,,,,,,,,AFNE19.jpg,AFNE17.jpg,AFSA02.jpg,AFSA03.jpg,AFNE17.jpg,FN,3,num_6,32,num_8,0.733471957035,,,2017_Jan_30_1703,60.0057738568,FEMA4ImagesEEG,001,0001,
AFNE01.JPG,AFNE01.JPG,AFNE01.JPG,AFNE01.JPG,AFNE01.JPG,AFNE01.JPG,,,,,,,,,3,1,31,1,,,,,,,,,,,,,,,AFNE11.jpg,AFNE05.jpg,AFSA13.jpg,AFSA07.jpg,AFNE05.jpg,FN,3,num_6,32,num_8,0.766808690154,,,2017_Jan_30_1703,60.0057738568,FEMA4ImagesEEG,001,0001,
AFNE01.JPG,AFNE01.JPG,AFNE01.JPG,AFNE01.JPG,AFNE01.JPG,AFNE01.JPG,,,,,,,,,3,2,32,5,,,,,,,,,,,,,,,AFNE05.jpg,AFNE17.jpg,AFSA07.jpg,AFSA10.jpg,AFSA07.jpg,FS,4,num_2,32,num_4,0.716796373832,,,2017_Jan_30_1703,60.0057738568,FEMA4ImagesEEG,001,0001,
AFNE01.JPG,AFNE01.JPG,AFNE01.JPG,AFNE01.JPG,AFNE01.JPG,AFNE01.JPG,,,,,,,,,3,3,33,7,,,,,,,,,,,,,,,AFSA14.jpg,AFNE07.jpg,AFSA20.jpg,AFNE09.jpg,AFNE09.jpg,FN,3,num_4,32,num_8,0.650264033,,,2017_Jan_30_1703,60.0057738568,FEMA4ImagesEEG,001,0001,
AFNE01.JPG,AFNE01.JPG,AFNE01.JPG,AFNE01.JPG,AFNE01.JPG,AFNE01.JPG,,,,,,,,,3,4,34,9,,,,,,,,,,,,,,,AFNE06.jpg,AFSA09.jpg,AFNE01.jpg,AFSA01.jpg,AFSA09.jpg,FS,4,num_6,32,num_2,0.767014605226,,,2017_Jan_30_1703,60.0057738568,FEMA4ImagesEEG,001,0001,
AFNE01.JPG,AFNE01.JPG,AFNE01.JPG,AFNE01.JPG,AFNE01.JPG,AFNE01.JPG,,,,,,,,,3,5,35,2,,,,,,,,,,,,,,,AFSA02.jpg,AFNE20.jpg,AFNE14.jpg,AFSA18.jpg,AFSA02.jpg,FS,4,num_8,16,num_8,0.133528150734,,,2017_Jan_30_1703,60.0057738568,FEMA4ImagesEEG,001,0001,
AFNE01.JPG,AFNE01.JPG,AFNE01.JPG,AFNE01.JPG,AFNE01.JPG,AFNE01.JPG,,,,,,,,,3,6,36,6,,,,,,,,,,,,,,,AFSA06.jpg,AFNE19.jpg,AFNE08.jpg,AFSA20.jpg,AFNE19.jpg,FN,3,num_6,16,num_6,0.666777963401,,,2017_Jan_30_1703,60.0057738568,FEMA4ImagesEEG,001,0001,
AFNE01.JPG,AFNE01.JPG,AFNE01.JPG,AFNE01.JPG,AFNE01.JPG,AFNE01.JPG,,,,,,,,,3,7,37,8,,,,,,,,,,,,,,,AFSA05.jpg,AFSA08.jpg,AFNE07.jpg,AFNE06.jpg,AFNE07.jpg,FN,3,num_2,32,num_4,0.783509932691,,,2017_Jan_30_1703,60.0057738568,FEMA4ImagesEEG,001,0001,
AFNE01.JPG,AFNE01.JPG,AFNE01.JPG,AFNE01.JPG,AFNE01.JPG,AFNE01.JPG,,,,,,,,,3,8,38,0,,,,,,,,,,,,,,,AFNE13.jpg,AFSA03.jpg,AFNE04.jpg,AFSA02.jpg,AFSA02.jpg,FS,4,num_4,32,num_6,0.0668437791755,,,2017_Jan_30_1703,60.0057738568,FEMA4ImagesEEG,001,0001,
AFNE01.JPG,AFNE01.JPG,AFNE01.JPG,AFNE01.JPG,AFNE01.JPG,AFNE01.JPG,,,,,,,,,3,9,39,4,,,,,,,,,,,,,,,AFNE18.jpg,AFSA18.jpg,AFSA13.jpg,AFNE20.jpg,AFNE20.jpg,FN,3,num_4,32,num_8,0.70010988554,,,2017_Jan_30_1703,60.0057738568,FEMA4ImagesEEG,001,0001,
AFNE01.JPG,AFNE01.JPG,AFNE01.JPG,AFNE01.JPG,AFNE01.JPG,AFNE01.JPG,,,,,,,,,4,0,40,8,,,,,,,,,,,,,,,AFNE11.jpg,AFNE02.jpg,AFSA02.jpg,AFSA05.jpg,AFSA02.jpg,FS,4,num_2,32,num_4,0.583419291535,,,2017_Jan_30_1703,60.0057738568,FEMA4ImagesEEG,001,0001,
AFNE01.JPG,AFNE01.JPG,AFNE01.JPG,AFNE01.JPG,AFNE01.JPG,AFNE01.JPG,,,,,,,,,4,1,41,7,,,,,,,,,,,,,,,AFSA08.jpg,AFNE20.jpg,AFSA10.jpg,AFNE08.jpg,AFNE08.jpg,FN,3,num_4,32,num_6,0.616677443497,,,2017_Jan_30_1703,60.0057738568,FEMA4ImagesEEG,001,0001,
AFNE01.JPG,AFNE01.JPG,AFNE01.JPG,AFNE01.JPG,AFNE01.JPG,AFNE01.JPG,,,,,,,,,4,2,42,3,,,,,,,,,,,,,,,AFSA12.jpg,AFNE12.jpg,AFSA09.jpg,AFNE19.jpg,AFNE19.jpg,FN,3,num_4,32,num_2,1.63339087402,,,2017_Jan_30_1703,60.0057738568,FEMA4ImagesEEG,001,0001,
AFNE01.JPG,AFNE01.JPG,AFNE01.JPG,AFNE01.JPG,AFNE01.JPG,AFNE01.JPG,,,,,,,,,4,3,43,6,,,,,,,,,,,,,,,AFNE13.jpg,AFSA05.jpg,AFSA07.jpg,AFNE19.jpg,AFSA07.jpg,FS,4,num_2,32,num_8,0.600156777655,,,2017_Jan_30_1703,60.0057738568,FEMA4ImagesEEG,001,0001,
AFNE01.JPG,AFNE01.JPG,AFNE01.JPG,AFNE01.JPG,AFNE01.JPG,AFNE01.JPG,,,,,,,,,4,4,44,1,,,,,,,,,,,,,,,AFNE04.jpg,AFSA04.jpg,AFSA16.jpg,AFNE12.jpg,AFNE12.jpg,FN,3,num_4,32,num_6,0.916795283323,,,2017_Jan_30_1703,60.0057738568,FEMA4ImagesEEG,001,0001,
AFNE01.JPG,AFNE01.JPG,AFNE01.JPG,AFNE01.JPG,AFNE01.JPG,AFNE01.JPG,,,,,,,,,4,5,45,4,,,,,,,,,,,,,,,AFSA15.jpg,AFNE05.jpg,AFNE01.jpg,AFSA07.jpg,AFNE05.jpg,FN,3,num_6,32,num_8,0.566828704439,,,2017_Jan_30_1703,60.0057738568,FEMA4ImagesEEG,001,0001,
AFNE01.JPG,AFNE01.JPG,AFNE01.JPG,AFNE01.JPG,AFNE01.JPG,AFNE01.JPG,,,,,,,,,4,6,46,9,,,,,,,,,,,,,,,AFSA11.jpg,AFSA03.jpg,AFNE20.jpg,AFNE16.jpg,AFSA03.jpg,FS,4,num_6,32,num_8,0.883452776819,,,2017_Jan_30_1703,60.0057738568,FEMA4ImagesEEG,001,0001,
AFNE01.JPG,AFNE01.JPG,AFNE01.JPG,AFNE01.JPG,AFNE01.JPG,AFNE01.JPG,,,,,,,,,4,7,47,2,,,,,,,,,,,,,,,AFNE07.jpg,AFSA02.jpg,AFSA19.jpg,AFNE19.jpg,AFSA02.jpg,FS,4,num_6,16,num_6,1.00008595828,,,2017_Jan_30_1703,60.0057738568,FEMA4ImagesEEG,001,0001,
AFNE01.JPG,AFNE01.JPG,AFNE01.JPG,AFNE01.JPG,AFNE01.JPG,AFNE01.JPG,,,,,,,,,4,8,48,5,,,,,,,,,,,,,,,AFSA07.jpg,AFNE17.jpg,AFNE08.jpg,AFSA18.jpg,AFNE17.jpg,FN,3,num_6,32,num_4,0.88351884915,,,2017_Jan_30_1703,60.0057738568,FEMA4ImagesEEG,001,0001,
AFNE01.JPG,AFNE01.JPG,AFNE01.JPG,AFNE01.JPG,AFNE01.JPG,AFNE01.JPG,,,,,,,,,4,9,49,0,,,,,,,,,,,,,,,AFNE18.jpg,AFNE16.jpg,AFSA17.jpg,AFSA14.jpg,AFSA17.jpg,FS,4,num_2,16,num_2,0.950101546128,,,2017_Jan_30_1703,60.0057738568,FEMA4ImagesEEG,001,0001,
AFNE01.JPG,AFNE01.JPG,AFNE01.JPG,AFNE01.JPG,AFNE01.JPG,AFNE01.JPG,,,,,,,,,5,0,50,8,,,,,,,,,,,,,,,AFNE05.jpg,AFSA03.jpg,AFSA14.jpg,AFNE12.jpg,AFSA14.jpg,FS,4,num_2,32,num_6,0.450309064821,,,2017_Jan_30_1703,60.0057738568,FEMA4ImagesEEG,001,0001,
AFNE01.JPG,AFNE01.JPG,AFNE01.JPG,AFNE01.JPG,AFNE01.JPG,AFNE01.JPG,,,,,,,,,5,1,51,4,,,,,,,,,,,,,,,AFNE17.jpg,AFSA08.jpg,AFNE15.jpg,AFSA12.jpg,AFSA12.jpg,FS,4,num_4,32,num_2,0.650172301452,,,2017_Jan_30_1703,60.0057738568,FEMA4ImagesEEG,001,0001,
AFNE01.JPG,AFNE01.JPG,AFNE01.JPG,AFNE01.JPG,AFNE01.JPG,AFNE01.JPG,,,,,,,,,5,2,52,6,,,,,,,,,,,,,,,AFSA19.jpg,AFSA17.jpg,AFNE07.jpg,AFNE12.jpg,AFSA19.jpg,FS,4,num_8,32,num_6,0.633515321184,,,2017_Jan_30_1703,60.0057738568,FEMA4ImagesEEG,001,0001,
AFNE01.JPG,AFNE01.JPG,AFNE01.JPG,AFNE01.JPG,AFNE01.JPG,AFNE01.JPG,,,,,,,,,5,3,53,7,,,,,,,,,,,,,,,AFSA14.jpg,AFNE17.jpg,AFSA07.jpg,AFNE20.jpg,AFNE17.jpg,FN,3,num_6,32,num_8,0.700132016442,,,2017_Jan_30_1703,60.0057738568,FEMA4ImagesEEG,001,0001,
AFNE01.JPG,AFNE01.JPG,AFNE01.JPG,AFNE01.JPG,AFNE01.JPG,AFNE01.JPG,,,,,,,,,5,4,54,0,,,,,,,,,,,,,,,AFSA02.jpg,AFNE12.jpg,AFNE02.jpg,AFSA04.jpg,AFSA02.jpg,FS,4,num_8,16,num_8,0.716875596554,,,2017_Jan_30_1703,60.0057738568,FEMA4ImagesEEG,001,0001,
AFNE01.JPG,AFNE01.JPG,AFNE01.JPG,AFNE01.JPG,AFNE01.JPG,AFNE01.JPG,,,,,,,,,5,5,55,5,,,,,,,,,,,,,,,AFNE18.jpg,AFSA02.jpg,AFSA09.jpg,AFNE04.jpg,AFNE18.jpg,FN,3,num_8,32,num_4,0.483509483631,,,2017_Jan_30_1703,60.0057738568,FEMA4ImagesEEG,001,0001,
AFNE01.JPG,AFNE01.JPG,AFNE01.JPG,AFNE01.JPG,AFNE01.JPG,AFNE01.JPG,,,,,,,,,5,6,56,2,,,,,,,,,,,,,,,AFNE20.jpg,AFNE18.jpg,AFSA18.jpg,AFSA03.jpg,AFSA18.jpg,FS,4,num_2,32,num_6,0.570093194139,,,2017_Jan_30_1703,60.0057738568,FEMA4ImagesEEG,001,0001,
AFNE01.JPG,AFNE01.JPG,AFNE01.JPG,AFNE01.JPG,AFNE01.JPG,AFNE01.JPG,,,,,,,,,5,7,57,3,,,,,,,,,,,,,,,AFNE02.jpg,AFSA08.jpg,AFSA10.jpg,AFNE03.jpg,AFNE02.jpg,FN,3,num_8,32,num_2,0.350188530865,,,2017_Jan_30_1703,60.0057738568,FEMA4ImagesEEG,001,0001,
AFNE01.JPG,AFNE01.JPG,AFNE01.JPG,AFNE01.JPG,AFNE01.JPG,AFNE01.JPG,,,,,,,,,5,8,58,1,,,,,,,,,,,,,,,AFNE15.jpg,AFNE07.jpg,AFSA15.jpg,AFSA03.jpg,AFSA15.jpg,FS,4,num_2,32,num_6,0.700176278595,,,2017_Jan_30_1703,60.0057738568,FEMA4ImagesEEG,001,0001,
AFNE01.JPG,AFNE01.JPG,AFNE01.JPG,AFNE01.JPG,AFNE01.JPG,AFNE01.JPG,,,,,,,,,5,9,59,9,,,,,,,,,,,,,,,AFNE17.jpg,AFNE07.jpg,AFSA05.jpg,AFSA14.jpg,AFNE07.jpg,FN,3,num_6,32,num_8,0.416830885457,,,2017_Jan_30_1703,60.0057738568,FEMA4ImagesEEG,001,0001,
,,,,,,,,,,,,,,,,,,,,,,,,,,,,,,,,,,,,,,,,,,,space,1.85001244477,2017_Jan_30_1703,60.0057738568,FEMA4ImagesEEG,001,0001,
AFNE01.JPG,AFNE01.JPG,AFNE01.JPG,AFNE01.JPG,AFNE01.JPG,AFNE01.JPG,,,,,,,,,,,,,0,0,0,9,,,,,,,,,,,AMNE07.jpg,AMNE09.jpg,AMSA03.jpg,AMSA20.jpg,AMNE07.jpg,MN,1,num_8,32,num_6,0.583454572945,,,2017_Jan_30_1703,60.0057738568,FEMA4ImagesEEG,001,0001,
AFNE01.JPG,AFNE01.JPG,AFNE01.JPG,AFNE01.JPG,AFNE01.JPG,AFNE01.JPG,,,,,,,,,,,,,0,1,1,3,,,,,,,,,,,AMNE08.jpg,AMNE05.jpg,AMSA09.jpg,AMSA18.jpg,AMSA18.jpg,MS,2,num_4,16,num_4,0.683403832023,,,2017_Jan_30_1703,60.0057738568,FEMA4ImagesEEG,001,0001,
AFNE01.JPG,AFNE01.JPG,AFNE01.JPG,AFNE01.JPG,AFNE01.JPG,AFNE01.JPG,,,,,,,,,,,,,0,2,2,0,,,,,,,,,,,AMSA15.jpg,AMNE07.jpg,AMSA14.jpg,AMNE12.jpg,AMSA15.jpg,MS,2,num_8,32,num_6,0.683494601399,,,2017_Jan_30_1703,60.0057738568,FEMA4ImagesEEG,001,0001,
AFNE01.JPG,AFNE01.JPG,AFNE01.JPG,AFNE01.JPG,AFNE01.JPG,AFNE01.JPG,,,,,,,,,,,,,0,3,3,1,,,,,,,,,,,AMNE13.jpg,AMSA19.jpg,AMSA03.jpg,AMNE14.jpg,AMNE14.jpg,MN,1,num_4,32,num_8,0.733577801147,,,2017_Jan_30_1703,60.0057738568,FEMA4ImagesEEG,001,0001,
AFNE01.JPG,AFNE01.JPG,AFNE01.JPG,AFNE01.JPG,AFNE01.JPG,AFNE01.JPG,,,,,,,,,,,,,0,4,4,2,,,,,,,,,,,AMSA09.jpg,AMNE16.jpg,AMSA18.jpg,AMNE04.jpg,AMNE16.jpg,MN,1,num_6,16,num_6,0.533466632827,,,2017_Jan_30_1703,60.0057738568,FEMA4ImagesEEG,001,0001,
AFNE01.JPG,AFNE01.JPG,AFNE01.JPG,AFNE01.JPG,AFNE01.JPG,AFNE01.JPG,,,,,,,,,,,,,0,5,5,6,,,,,,,,,,,AMNE10.jpg,AMNE07.jpg,AMSA16.jpg,AMSA07.jpg,AMSA07.jpg,MS,2,num_4,32,num_8,0.56676936755,,,2017_Jan_30_1703,60.0057738568,FEMA4ImagesEEG,001,0001,
AFNE01.JPG,AFNE01.JPG,AFNE01.JPG,AFNE01.JPG,AFNE01.JPG,AFNE01.JPG,,,,,,,,,,,,,0,6,6,5,,,,,,,,,,,AMSA02.jpg,AMSA18.jpg,AMNE03.jpg,AMNE07.jpg,AMNE07.jpg,MN,1,num_4,32,num_8,0.64985637262,,,2017_Jan_30_1703,60.0057738568,FEMA4ImagesEEG,001,0001,
AFNE01.JPG,AFNE01.JPG,AFNE01.JPG,AFNE01.JPG,AFNE01.JPG,AFNE01.JPG,,,,,,,,,,,,,0,7,7,8,,,,,,,,,,,AMSA20.jpg,AMNE17.jpg,AMSA14.jpg,AMNE06.jpg,AMSA20.jpg,MS,2,num_8,32,num_4,0.63342519314,,,2017_Jan_30_1703,60.0057738568,FEMA4ImagesEEG,001,0001,
AFNE01.JPG,AFNE01.JPG,AFNE01.JPG,AFNE01.JPG,AFNE01.JPG,AFNE01.JPG,,,,,,,,,,,,,0,8,8,4,,,,,,,,,,,AMSA02.jpg,AMNE11.jpg,AMSA16.jpg,AMNE19.jpg,AMNE19.jpg,MN,1,num_4,32,num_8,0.866791626904,,,2017_Jan_30_1703,60.0057738568,FEMA4ImagesEEG,001,0001,
AFNE01.JPG,AFNE01.JPG,AFNE01.JPG,AFNE01.JPG,AFNE01.JPG,AFNE01.JPG,,,,,,,,,,,,,0,9,9,7,,,,,,,,,,,AMSA02.jpg,AMSA08.jpg,AMNE01.jpg,AMNE18.jpg,AMSA08.jpg,MS,2,num_6,16,num_6,0.0501720447792,,,2017_Jan_30_1703,60.0057738568,FEMA4ImagesEEG,001,0001,
AFNE01.JPG,AFNE01.JPG,AFNE01.JPG,AFNE01.JPG,AFNE01.JPG,AFNE01.JPG,,,,,,,,,,,,,1,0,10,2,,,,,,,,,,,AMNE08.jpg,AMSA20.jpg,AMNE01.jpg,AMSA02.jpg,AMNE08.jpg,MN,1,num_8,32,num_2,0.66678662342,,,2017_Jan_30_1703,60.0057738568,FEMA4ImagesEEG,001,0001,
AFNE01.JPG,AFNE01.JPG,AFNE01.JPG,AFNE01.JPG,AFNE01.JPG,AFNE01.JPG,,,,,,,,,,,,,1,1,11,5,,,,,,,,,,,AMSA20.jpg,AMNE17.jpg,AMNE02.jpg,AMSA14.jpg,AMSA14.jpg,MS,2,num_4,16,num_4,0.766909723287,,,2017_Jan_30_1703,60.0057738568,FEMA4ImagesEEG,001,0001,
AFNE01.JPG,AFNE01.JPG,AFNE01.JPG,AFNE01.JPG,AFNE01.JPG,AFNE01.JPG,,,,,,,,,,,,,1,2,12,9,,,,,,,,,,,AMNE17.jpg,AMNE15.jpg,AMSA16.jpg,AMSA06.jpg,AMSA06.jpg,MS,2,num_4,32,num_8,0.40026659891,,,2017_Jan_30_1703,60.0057738568,FEMA4ImagesEEG,001,0001,
AFNE01.JPG,AFNE01.JPG,AFNE01.JPG,AFNE01.JPG,AFNE01.JPG,AFNE01.JPG,,,,,,,,,,,,,1,3,13,4,,,,,,,,,,,AMSA11.jpg,AMSA14.jpg,AMNE11.jpg,AMNE05.jpg,AMNE05.jpg,MN,1,num_4,32,num_8,0.583490816527,,,2017_Jan_30_1703,60.0057738568,FEMA4ImagesEEG,001,0001,
AFNE01.JPG,AFNE01.JPG,AFNE01.JPG,AFNE01.JPG,AFNE01.JPG,AFNE01.JPG,,,,,,,,,,,,,1,4,14,6,,,,,,,,,,,AMNE09.jpg,AMNE13.jpg,AMSA16.jpg,AMSA01.jpg,AMNE13.jpg,MN,1,num_6,32,num_2,0.666886694147,,,2017_Jan_30_1703,60.0057738568,FEMA4ImagesEEG,001,0001,
AFNE01.JPG,AFNE01.JPG,AFNE01.JPG,AFNE01.JPG,AFNE01.JPG,AFNE01.JPG,,,,,,,,,,,,,1,5,15,1,,,,,,,,,,,AMNE20.jpg,AMSA20.jpg,AMNE17.jpg,AMSA08.jpg,AMSA08.jpg,MS,2,num_4,32,num_2,0.200222785934,,,2017_Jan_30_1703,60.0057738568,FEMA4ImagesEEG,001,0001,
AFNE01.JPG,AFNE01.JPG,AFNE01.JPG,AFNE01.JPG,AFNE01.JPG,AFNE01.JPG,,,,,,,,,,,,,1,6,16,7,,,,,,,,,,,AMSA08.jpg,AMSA04.jpg,AMNE14.jpg,AMNE09.jpg,AMNE14.jpg,MN,1,num_2,32,num_4,0.316845382913,,,2017_Jan_30_1703,60.0057738568,FEMA4ImagesEEG,001,0001,
AFNE01.JPG,AFNE01.JPG,AFNE01.JPG,AFNE01.JPG,AFNE01.JPG,AFNE01.JPG,,,,,,,,,,,,,1,7,17,3,,,,,,,,,,,AMNE15.jpg,AMSA09.jpg,AMNE12.jpg,AMSA04.jpg,AMSA09.jpg,MS,2,num_6,16,num_6,0.433482092456,,,2017_Jan_30_1703,60.0057738568,FEMA4ImagesEEG,001,0001,
AFNE01.JPG,AFNE01.JPG,AFNE01.JPG,AFNE01.JPG,AFNE01.JPG,AFNE01.JPG,,,,,,,,,,,,,1,8,18,0,,,,,,,,,,,AMSA01.jpg,AMSA04.jpg,AMNE13.jpg,AMNE04.jpg,AMSA01.jpg,MS,2,num_8,32,num_6,0.7334533541,,,2017_Jan_30_1703,60.0057738568,FEMA4ImagesEEG,001,0001,
AFNE01.JPG,AFNE01.JPG,AFNE01.JPG,AFNE01.JPG,AFNE01.JPG,AFNE01.JPG,,,,,,,,,,,,,1,9,19,8,,,,,,,,,,,AMSA20.jpg,AMSA05.jpg,AMNE05.jpg,AMNE20.jpg,AMSA20.jpg,MS,2,num_8,32,num_2,0.699958496261,,,2017_Jan_30_1703,60.0057738568,FEMA4ImagesEEG,001,0001,
AFNE01.JPG,AFNE01.JPG,AFNE01.JPG,AFNE01.JPG,AFNE01.JPG,AFNE01.JPG,,,,,,,,,,,,,2,0,20,6,,,,,,,,,,,AMSA05.jpg,AMNE07.jpg,AMSA04.jpg,AMNE16.jpg,AMSA05.jpg,MS,2,num_8,32,num_6,1.41675968119,,,2017_Jan_30_1703,60.0057738568,FEMA4ImagesEEG,001,0001,
AFNE01.JPG,AFNE01.JPG,AFNE01.JPG,AFNE01.JPG,AFNE01.JPG,AFNE01.JPG,,,,,,,,,,,,,2,1,21,5,,,,,,,,,,,AMSA07.jpg,AMNE15.jpg,AMNE04.jpg,AMSA10.jpg,AMNE04.jpg,MN,1,num_2,32,num_8,0.949988966575,,,2017_Jan_30_1703,60.0057738568,FEMA4ImagesEEG,001,0001,
AFNE01.JPG,AFNE01.JPG,AFNE01.JPG,AFNE01.JPG,AFNE01.JPG,AFNE01.JPG,,,,,,,,,,,,,2,2,22,7,,,,,,,,,,,AMNE12.jpg,AMSA10.jpg,AMSA11.jpg,AMNE17.jpg,AMNE17.jpg,MN,1,num_4,32,num_2,0.58348696772,,,2017_Jan_30_1703,60.0057738568,FEMA4ImagesEEG,001,0001,
AFNE01.JPG,AFNE01.JPG,AFNE01.JPG,AFNE01.JPG,AFNE01.JPG,AFNE01.JPG,,,,,,,,,,,,,2,3,23,4,,,,,,,,,,,AMNE15.jpg,AMSA14.jpg,AMNE11.jpg,AMSA20.jpg,AMNE11.jpg,MN,1,num_2,32,num_6,0.416836658726,,,2017_Jan_30_1703,60.0057738568,FEMA4ImagesEEG,001,0001,
AFNE01.JPG,AFNE01.JPG,AFNE01.JPG,AFNE01.JPG,AFNE01.JPG,AFNE01.JPG,,,,,,,,,,,,,2,4,24,8,,,,,,,,,,,AMSA20.jpg,AMNE09.jpg,AMNE04.jpg,AMSA13.jpg,AMSA13.jpg,MS,2,num_4,16,num_4,0.666819338803,,,2017_Jan_30_1703,60.0057738568,FEMA4ImagesEEG,001,0001,
AFNE01.JPG,AFNE01.JPG,AFNE01.JPG,AFNE01.JPG,AFNE01.JPG,AFNE01.JPG,,,,,,,,,,,,,2,5,25,2,,,,,,,,,,,AMSA12.jpg,AMNE12.jpg,AMNE09.jpg,AMSA05.jpg,AMSA05.jpg,MS,2,num_4,32,num_6,0.466766865691,,,2017_Jan_30_1703,60.0057738568,FEMA4ImagesEEG,001,0001,
AFNE01.JPG,AFNE01.JPG,AFNE01.JPG,AFNE01.JPG,AFNE01.JPG,AFNE01.JPG,,,,,,,,,,,,,2,6,26,0,,,,,,,,,,,AMNE04.jpg,AMSA20.jpg,AMNE02.jpg,AMSA03.jpg,AMSA20.jpg,MS,2,num_6,32,num_8,0.550122009357,,,2017_Jan_30_1703,60.0057738568,FEMA4ImagesEEG,001,0001,
AFNE01.JPG,AFNE01.JPG,AFNE01.JPG,AFNE01.JPG,AFNE01.JPG,AFNE01.JPG,,,,,,,,,,,,,2,7,27,1,,,,,,,,,,,AMNE16.jpg,AMSA10.jpg,AMSA05.jpg,AMNE11.jpg,AMSA05.jpg,MS,2,num_2,16,num_2,0.383353347541,,,2017_Jan_30_1703,60.0057738568,FEMA4ImagesEEG,001,0001,
AFNE01.JPG,AFNE01.JPG,AFNE01.JPG,AFNE01.JPG,AFNE01.JPG,AFNE01.JPG,,,,,,,,,,,,,2,8,28,3,,,,,,,,,,,AMNE05.jpg,AMNE18.jpg,AMSA18.jpg,AMSA10.jpg,AMSA18.jpg,MS,2,num_2,32,num_8,0.533465670538,,,2017_Jan_30_1703,60.0057738568,FEMA4ImagesEEG,001,0001,
AFNE01.JPG,AFNE01.JPG,AFNE01.JPG,AFNE01.JPG,AFNE01.JPG,AFNE01.JPG,,,,,,,,,,,,,2,9,29,9,,,,,,,,,,,AMNE12.jpg,AMSA19.jpg,AMNE07.jpg,AMSA03.jpg,AMSA19.jpg,MS,2,num_6,32,num_4,0.583463874413,,,2017_Jan_30_1703,60.0057738568,FEMA4ImagesEEG,001,0001,
AFNE01.JPG,AFNE01.JPG,AFNE01.JPG,AFNE01.JPG,AFNE01.JPG,AFNE01.JPG,,,,,,,,,,,,,3,0,30,9,,,,,,,,,,,AMNE02.jpg,AMNE06.jpg,AMSA03.jpg,AMSA13.jpg,AMSA03.jpg,MS,2,num_2,32,num_4,1.58310496656,,,2017_Jan_30_1703,60.0057738568,FEMA4ImagesEEG,001,0001,
AFNE01.JPG,AFNE01.JPG,AFNE01.JPG,AFNE01.JPG,AFNE01.JPG,AFNE01.JPG,,,,,,,,,,,,,3,1,31,5,,,,,,,,,,,AMNE18.jpg,AMSA07.jpg,AMNE14.jpg,AMSA16.jpg,AMNE14.jpg,MN,1,num_2,32,num_6,3.26659507758,,,2017_Jan_30_1703,60.0057738568,FEMA4ImagesEEG,001,0001,
AFNE01.JPG,AFNE01.JPG,AFNE01.JPG,AFNE01.JPG,AFNE01.JPG,AFNE01.JPG,,,,,,,,,,,,,3,2,32,4,,,,,,,,,,,AMSA14.jpg,AMSA20.jpg,AMNE15.jpg,AMNE06.jpg,AMSA14.jpg,MS,2,num_8,32,num_4,0.500176406931,,,2017_Jan_30_1703,60.0057738568,FEMA4ImagesEEG,001,0001,
AFNE01.JPG,AFNE01.JPG,AFNE01.JPG,AFNE01.JPG,AFNE01.JPG,AFNE01.JPG,,,,,,,,,,,,,3,3,33,1,,,,,,,,,,,AMSA12.jpg,AMNE08.jpg,AMNE18.jpg,AMSA17.jpg,AMSA17.jpg,MS,2,num_4,32,num_8,0.633577223984,,,2017_Jan_30_1703,60.0057738568,FEMA4ImagesEEG,001,0001,
AFNE01.JPG,AFNE01.JPG,AFNE01.JPG,AFNE01.JPG,AFNE01.JPG,AFNE01.JPG,,,,,,,,,,,,,3,4,34,6,,,,,,,,,,,AMSA17.jpg,AMNE13.jpg,AMNE05.jpg,AMSA14.jpg,AMNE13.jpg,MN,1,num_6,16,num_6,0.616779438686,,,2017_Jan_30_1703,60.0057738568,FEMA4ImagesEEG,001,0001,
AFNE01.JPG,AFNE01.JPG,AFNE01.JPG,AFNE01.JPG,AFNE01.JPG,AFNE01.JPG,,,,,,,,,,,,,3,5,35,2,,,,,,,,,,,AMSA01.jpg,AMNE03.jpg,AMNE18.jpg,AMSA02.jpg,AMNE03.jpg,MN,1,num_6,32,num_4,1.38343609835,,,2017_Jan_30_1703,60.0057738568,FEMA4ImagesEEG,001,0001,
AFNE01.JPG,AFNE01.JPG,AFNE01.JPG,AFNE01.JPG,AFNE01.JPG,AFNE01.JPG,,,,,,,,,,,,,3,6,36,8,,,,,,,,,,,AMSA09.jpg,AMNE08.jpg,AMSA20.jpg,AMNE01.jpg,AMNE01.jpg,MN,1,num_4,32,num_6,0.950094489963,,,2017_Jan_30_1703,60.0057738568,FEMA4ImagesEEG,001,0001,
AFNE01.JPG,AFNE01.JPG,AFNE01.JPG,AFNE01.JPG,AFNE01.JPG,AFNE01.JPG,,,,,,,,,,,,,3,7,37,3,,,,,,,,,,,AMSA09.jpg,AMNE01.jpg,AMNE13.jpg,AMSA18.jpg,AMSA18.jpg,MS,2,num_4,16,num_4,0.800134518184,,,2017_Jan_30_1703,60.0057738568,FEMA4ImagesEEG,001,0001,
AFNE01.JPG,AFNE01.JPG,AFNE01.JPG,AFNE01.JPG,AFNE01.JPG,AFNE01.JPG,,,,,,,,,,,,,3,8,38,7,,,,,,,,,,,AMSA17.jpg,AMNE02.jpg,AMSA04.jpg,AMNE12.jpg,AMSA04.jpg,MS,2,num_2,16,num_2,0.566687258193,,,2017_Jan_30_1703,60.0057738568,FEMA4ImagesEEG,001,0001,
AFNE01.JPG,AFNE01.JPG,AFNE01.JPG,AFNE01.JPG,AFNE01.JPG,AFNE01.JPG,,,,,,,,,,,,,3,9,39,0,,,,,,,,,,,AMSA12.jpg,AMSA11.jpg,AMNE11.jpg,AMNE09.jpg,AMSA11.jpg,MS,2,num_6,32,num_2,0.850096157752,,,2017_Jan_30_1703,60.0057738568,FEMA4ImagesEEG,001,0001,
AFNE01.JPG,AFNE01.JPG,AFNE01.JPG,AFNE01.JPG,AFNE01.JPG,AFNE01.JPG,,,,,,,,,,,,,4,0,40,5,,,,,,,,,,,AMNE20.jpg,AMNE03.jpg,AMSA13.jpg,AMSA01.jpg,AMNE03.jpg,MN,1,num_6,32,num_2,0.800108859083,,,2017_Jan_30_1703,60.0057738568,FEMA4ImagesEEG,001,0001,
AFNE01.JPG,AFNE01.JPG,AFNE01.JPG,AFNE01.JPG,AFNE01.JPG,AFNE01.JPG,,,,,,,,,,,,,4,1,41,3,,,,,,,,,,,AMNE12.jpg,AMNE13.jpg,AMSA06.jpg,AMSA08.jpg,AMNE12.jpg,MN,1,num_8,32,num_6,0.782800777,,,2017_Jan_30_1703,60.0057738568,FEMA4ImagesEEG,001,0001,
AFNE01.JPG,AFNE01.JPG,AFNE01.JPG,AFNE01.JPG,AFNE01.JPG,AFNE01.JPG,,,,,,,,,,,,,4,2,42,9,,,,,,,,,,,AMSA15.jpg,AMNE03.jpg,AMSA11.jpg,AMNE20.jpg,AMNE20.jpg,MN,1,num_4,32,num_8,0.800267625367,,,2017_Jan_30_1703,60.0057738568,FEMA4ImagesEEG,001,0001,
AFNE01.JPG,AFNE01.JPG,AFNE01.JPG,AFNE01.JPG,AFNE01.JPG,AFNE01.JPG,,,,,,,,,,,,,4,3,43,6,,,,,,,,,,,AMNE09.jpg,AMNE18.jpg,AMSA08.jpg,AMSA10.jpg,AMSA10.jpg,MS,2,num_4,16,num_4,0.816774820094,,,2017_Jan_30_1703,60.0057738568,FEMA4ImagesEEG,001,0001,
AFNE01.JPG,AFNE01.JPG,AFNE01.JPG,AFNE01.JPG,AFNE01.JPG,AFNE01.JPG,,,,,,,,,,,,,4,4,44,1,,,,,,,,,,,AMSA07.jpg,AMNE03.jpg,AMSA14.jpg,AMNE06.jpg,AMSA14.jpg,MS,2,num_2,16,num_2,0.766778540681,,,2017_Jan_30_1703,60.0057738568,FEMA4ImagesEEG,001,0001,
AFNE01.JPG,AFNE01.JPG,AFNE01.JPG,AFNE01.JPG,AFNE01.JPG,AFNE01.JPG,,,,,,,,,,,,,4,5,45,4,,,,,,,,,,,AMNE01.jpg,AMNE03.jpg,AMSA07.jpg,AMSA05.jpg,AMNE03.jpg,MN,1,num_6,16,num_6,0.950097697321,,,2017_Jan_30_1703,60.0057738568,FEMA4ImagesEEG,001,0001,
AFNE01.JPG,AFNE01.JPG,AFNE01.JPG,AFNE01.JPG,AFNE01.JPG,AFNE01.JPG,,,,,,,,,,,,,4,6,46,0,,,,,,,,,,,AMNE07.jpg,AMSA09.jpg,AMNE19.jpg,AMSA07.jpg,AMSA09.jpg,MS,2,num_6,32,num_8,1.01707330055,,,2017_Jan_30_1703,60.0057738568,FEMA4ImagesEEG,001,0001,
AFNE01.JPG,AFNE01.JPG,AFNE01.JPG,AFNE01.JPG,AFNE01.JPG,AFNE01.JPG,,,,,,,,,,,,,4,7,47,2,,,,,,,,,,,AMNE04.jpg,AMNE12.jpg,AMSA06.jpg,AMSA13.jpg,AMSA13.jpg,MS,2,num_4,32,num_6,0.616775589879,,,2017_Jan_30_1703,60.0057738568,FEMA4ImagesEEG,001,0001,
AFNE01.JPG,AFNE01.JPG,AFNE01.JPG,AFNE01.JPG,AFNE01.JPG,AFNE01.JPG,,,,,,,,,,,,,4,8,48,7,,,,,,,,,,,AMSA06.jpg,AMNE13.jpg,AMSA03.jpg,AMNE16.jpg,AMSA06.jpg,MS,2,num_8,32,num_4,0.600234396639,,,2017_Jan_30_1703,60.0057738568,FEMA4ImagesEEG,001,0001,
AFNE01.JPG,AFNE01.JPG,AFNE01.JPG,AFNE01.JPG,AFNE01.JPG,AFNE01.JPG,,,,,,,,,,,,,4,9,49,8,,,,,,,,,,,AMSA12.jpg,AMSA07.jpg,AMNE01.jpg,AMNE15.jpg,AMNE01.jpg,MN,1,num_2,16,num_2,0.416646460071,,,2017_Jan_30_1703,60.0057738568,FEMA4ImagesEEG,001,0001,
AFNE01.JPG,AFNE01.JPG,AFNE01.JPG,AFNE01.JPG,AFNE01.JPG,AFNE01.JPG,,,,,,,,,,,,,5,0,50,3,,,,,,,,,,,AMNE08.jpg,AMSA02.jpg,AMNE17.jpg,AMSA12.jpg,AMNE17.jpg,MN,1,num_2,16,num_2,0.600129193976,,,2017_Jan_30_1703,60.0057738568,FEMA4ImagesEEG,001,0001,
AFNE01.JPG,AFNE01.JPG,AFNE01.JPG,AFNE01.JPG,AFNE01.JPG,AFNE01.JPG,,,,,,,,,,,,,5,1,51,9,,,,,,,,,,,AMNE09.jpg,AMSA19.jpg,AMNE18.jpg,AMSA09.jpg,AMSA09.jpg,MS,2,num_4,32,num_8,0.900124190492,,,2017_Jan_30_1703,60.0057738568,FEMA4ImagesEEG,001,0001,
AFNE01.JPG,AFNE01.JPG,AFNE01.JPG,AFNE01.JPG,AFNE01.JPG,AFNE01.JPG,,,,,,,,,,,,,5,2,52,5,,,,,,,,,,,AMNE07.jpg,AMSA09.jpg,AMNE10.jpg,AMSA15.jpg,AMSA09.jpg,MS,2,num_6,32,num_4,0.850131760002,,,2017_Jan_30_1703,60.0057738568,FEMA4ImagesEEG,001,0001,
AFNE01.JPG,AFNE01.JPG,AFNE01.JPG,AFNE01.JPG,AFNE01.JPG,AFNE01.JPG,,,,,,,,,,,,,5,3,53,2,,,,,,,,,,,AMNE09.jpg,AMSA16.jpg,AMNE10.jpg,AMSA12.jpg,AMNE09.jpg,MN,1,num_8,32,num_2,0.550016165245,,,2017_Jan_30_1703,60.0057738568,FEMA4ImagesEEG,001,0001,
AFNE01.JPG,AFNE01.JPG,AFNE01.JPG,AFNE01.JPG,AFNE01.JPG,AFNE01.JPG,,,,,,,,,,,,,5,4,54,4,,,,,,,,,,,AMNE04.jpg,AMNE02.jpg,AMSA12.jpg,AMSA05.jpg,AMNE04.jpg,MN,1,num_8,16,num_8,0.783477537916,,,2017_Jan_30_1703,60.0057738568,FEMA4ImagesEEG,001,0001,
AFNE01.JPG,AFNE01.JPG,AFNE01.JPG,AFNE01.JPG,AFNE01.JPG,AFNE01.JPG,,,,,,,,,,,,,5,5,55,1,,,,,,,,,,,AMSA15.jpg,AMSA10.jpg,AMNE12.jpg,AMNE19.jpg,AMNE19.jpg,MN,1,num_4,16,num_4,0.733589347918,,,2017_Jan_30_1703,60.0057738568,FEMA4ImagesEEG,001,0001,
AFNE01.JPG,AFNE01.JPG,AFNE01.JPG,AFNE01.JPG,AFNE01.JPG,AFNE01.JPG,,,,,,,,,,,,,5,6,56,8,,,,,,,,,,,AMNE13.jpg,AMSA12.jpg,AMSA19.jpg,AMNE08.jpg,AMSA12.jpg,MS,2,num_6,16,num_6,0.716672247509,,,2017_Jan_30_1703,60.0057738568,FEMA4ImagesEEG,001,0001,
AFNE01.JPG,AFNE01.JPG,AFNE01.JPG,AFNE01.JPG,AFNE01.JPG,AFNE01.JPG,,,,,,,,,,,,,5,7,57,7,,,,,,,,,,,AMSA14.jpg,AMNE05.jpg,AMNE03.jpg,AMSA10.jpg,AMNE05.jpg,MN,1,num_6,32,num_4,0.633580431226,,,2017_Jan_30_1703,60.0057738568,FEMA4ImagesEEG,001,0001,
AFNE01.JPG,AFNE01.JPG,AFNE01.JPG,AFNE01.JPG,AFNE01.JPG,AFNE01.JPG,,,,,,,,,,,,,5,8,58,6,,,,,,,,,,,AMSA10.jpg,AMSA04.jpg,AMNE06.jpg,AMNE14.jpg,AMSA10.jpg,MS,2,num_8,32,num_6,0.950128809083,,,2017_Jan_30_1703,60.0057738568,FEMA4ImagesEEG,001,0001,
AFNE01.JPG,AFNE01.JPG,AFNE01.JPG,AFNE01.JPG,AFNE01.JPG,AFNE01.JPG,,,,,,,,,,,,,5,9,59,0,,,,,,,,,,,AMSA04.jpg,AMSA15.jpg,AMNE18.jpg,AMNE17.jpg,AMSA15.jpg,MS,2,num_6,32,num_4,0.98347740958,,,2017_Jan_30_1703,60.0057738568,FEMA4ImagesEEG,001,0001,
,,,,,,,,,,,,,,,,,,,,,,,,,,,,,,,,,,,,,,,,,,,space,4.66644599766,2017_Jan_30_1703,60.0057738568,FEMA4ImagesEEG,001,0001,
AFNE01.JPG,AFNE01.JPG,AFNE01.JPG,AFNE01.JPG,AFNE01.JPG,AFNE01.JPG,,,,,,,,,,,,,,,,,0,0,0,4,,,,,,,AFNE14.jpg,AFSA10.jpg,AFNE17.jpg,AFSA12.jpg,AFSA12.jpg,FS,4,num_4,32,num_6,0.850123420707,,,2017_Jan_30_1703,60.0057738568,FEMA4ImagesEEG,001,0001,
AFNE01.JPG,AFNE01.JPG,AFNE01.JPG,AFNE01.JPG,AFNE01.JPG,AFNE01.JPG,,,,,,,,,,,,,,,,,0,1,1,3,,,,,,,AFSA12.jpg,AFSA18.jpg,AFNE01.jpg,AFNE10.jpg,AFNE01.jpg,FN,3,num_2,16,num_2,0.566794064478,,,2017_Jan_30_1703,60.0057738568,FEMA4ImagesEEG,001,0001,
AFNE01.JPG,AFNE01.JPG,AFNE01.JPG,AFNE01.JPG,AFNE01.JPG,AFNE01.JPG,,,,,,,,,,,,,,,,,0,2,2,5,,,,,,,AFNE07.jpg,AFSA01.jpg,AFSA12.jpg,AFNE15.jpg,AFSA01.jpg,FS,4,num_6,16,num_6,0.800091218436,,,2017_Jan_30_1703,60.0057738568,FEMA4ImagesEEG,001,0001,
AFNE01.JPG,AFNE01.JPG,AFNE01.JPG,AFNE01.JPG,AFNE01.JPG,AFNE01.JPG,,,,,,,,,,,,,,,,,0,3,3,2,,,,,,,AFNE01.jpg,AFSA01.jpg,AFSA11.jpg,AFNE13.jpg,AFSA11.jpg,FS,4,num_2,16,num_2,0.716754356981,,,2017_Jan_30_1703,60.0057738568,FEMA4ImagesEEG,001,0001,
AFNE01.JPG,AFNE01.JPG,AFNE01.JPG,AFNE01.JPG,AFNE01.JPG,AFNE01.JPG,,,,,,,,,,,,,,,,,0,4,4,8,,,,,,,AFNE18.jpg,AFNE16.jpg,AFSA02.jpg,AFSA18.jpg,AFSA18.jpg,FS,4,num_4,16,num_4,0.550151196658,,,2017_Jan_30_1703,60.0057738568,FEMA4ImagesEEG,001,0001,
AFNE01.JPG,AFNE01.JPG,AFNE01.JPG,AFNE01.JPG,AFNE01.JPG,AFNE01.JPG,,,,,,,,,,,,,,,,,0,5,5,9,,,,,,,AFNE10.jpg,AFSA06.jpg,AFSA09.jpg,AFNE18.jpg,AFNE18.jpg,FN,3,num_4,32,num_8,1.13342679688,,,2017_Jan_30_1703,60.0057738568,FEMA4ImagesEEG,001,0001,
AFNE01.JPG,AFNE01.JPG,AFNE01.JPG,AFNE01.JPG,AFNE01.JPG,AFNE01.JPG,,,,,,,,,,,,,,,,,0,6,6,7,,,,,,,AFSA05.jpg,AFSA16.jpg,AFNE07.jpg,AFNE20.jpg,AFSA05.jpg,FS,4,num_8,32,num_6,0.500158766168,,,2017_Jan_30_1703,60.0057738568,FEMA4ImagesEEG,001,0001,
AFNE01.JPG,AFNE01.JPG,AFNE01.JPG,AFNE01.JPG,AFNE01.JPG,AFNE01.JPG,,,,,,,,,,,,,,,,,0,7,7,0,,,,,,,AFSA18.jpg,AFNE19.jpg,AFNE09.jpg,AFSA04.jpg,AFSA04.jpg,FS,4,num_4,16,num_4,0.616820814204,,,2017_Jan_30_1703,60.0057738568,FEMA4ImagesEEG,001,0001,
AFNE01.JPG,AFNE01.JPG,AFNE01.JPG,AFNE01.JPG,AFNE01.JPG,AFNE01.JPG,,,,,,,,,,,,,,,,,0,8,8,6,,,,,,,AFSA17.jpg,AFSA18.jpg,AFNE12.jpg,AFNE06.jpg,AFNE06.jpg,FN,3,num_4,32,num_8,0.816749160876,,,2017_Jan_30_1703,60.0057738568,FEMA4ImagesEEG,001,0001,
AFNE01.JPG,AFNE01.JPG,AFNE01.JPG,AFNE01.JPG,AFNE01.JPG,AFNE01.JPG,,,,,,,,,,,,,,,,,0,9,9,1,,,,,,,AFSA20.jpg,AFNE10.jpg,AFNE14.jpg,AFSA16.jpg,AFSA16.jpg,FS,4,num_4,32,num_6,0.650102700922,,,2017_Jan_30_1703,60.0057738568,FEMA4ImagesEEG,001,0001,
AFNE01.JPG,AFNE01.JPG,AFNE01.JPG,AFNE01.JPG,AFNE01.JPG,AFNE01.JPG,,,,,,,,,,,,,,,,,1,0,10,5,,,,,,,AFNE18.jpg,AFSA08.jpg,AFNE06.jpg,AFSA18.jpg,AFNE06.jpg,FN,3,num_2,16,num_2,0.750107127125,,,2017_Jan_30_1703,60.0057738568,FEMA4ImagesEEG,001,0001,
AFNE01.JPG,AFNE01.JPG,AFNE01.JPG,AFNE01.JPG,AFNE01.JPG,AFNE01.JPG,,,,,,,,,,,,,,,,,1,1,11,8,,,,,,,AFNE01.jpg,AFNE07.jpg,AFSA11.jpg,AFSA16.jpg,AFSA11.jpg,FS,4,num_2,16,num_2,0.516652490012,,,2017_Jan_30_1703,60.0057738568,FEMA4ImagesEEG,001,0001,
AFNE01.JPG,AFNE01.JPG,AFNE01.JPG,AFNE01.JPG,AFNE01.JPG,AFNE01.JPG,,,,,,,,,,,,,,,,,1,2,12,0,,,,,,,AFSA01.jpg,AFSA05.jpg,AFNE07.jpg,AFNE16.jpg,AFSA05.jpg,FS,4,num_6,32,num_4,0.616772703244,,,2017_Jan_30_1703,60.0057738568,FEMA4ImagesEEG,001,0001,
AFNE01.JPG,AFNE01.JPG,AFNE01.JPG,AFNE01.JPG,AFNE01.JPG,AFNE01.JPG,,,,,,,,,,,,,,,,,1,3,13,4,,,,,,,AFNE10.jpg,AFNE19.jpg,AFSA20.jpg,AFSA08.jpg,AFNE10.jpg,FN,3,num_8,32,num_6,0.516758334008,,,2017_Jan_30_1703,60.0057738568,FEMA4ImagesEEG,001,0001,
AFNE01.JPG,AFNE01.JPG,AFNE01.JPG,AFNE01.JPG,AFNE01.JPG,AFNE01.JPG,,,,,,,,,,,,,,,,,1,4,14,2,,,,,,,AFNE18.jpg,AFSA01.jpg,AFNE13.jpg,AFSA12.jpg,AFSA12.jpg,FS,4,num_4,32,num_6,0.816827100702,,,2017_Jan_30_1703,60.0057738568,FEMA4ImagesEEG,001,0001,
AFNE01.JPG,AFNE01.JPG,AFNE01.JPG,AFNE01.JPG,AFNE01.JPG,AFNE01.JPG,,,,,,,,,,,,,,,,,1,5,15,3,,,,,,,AFSA13.jpg,AFNE17.jpg,AFSA11.jpg,AFNE18.jpg,AFSA13.jpg,FS,4,num_8,32,num_6,0.600157739827,,,2017_Jan_30_1703,60.0057738568,FEMA4ImagesEEG,001,0001,
AFNE01.JPG,AFNE01.JPG,AFNE01.JPG,AFNE01.JPG,AFNE01.JPG,AFNE01.JPG,,,,,,,,,,,,,,,,,1,6,16,7,,,,,,,AFSA04.jpg,AFNE19.jpg,AFNE15.jpg,AFSA07.jpg,AFSA04.jpg,FS,4,num_8,16,num_8,0.916872902424,,,2017_Jan_30_1703,60.0057738568,FEMA4ImagesEEG,001,0001,
AFNE01.JPG,AFNE01.JPG,AFNE01.JPG,AFNE01.JPG,AFNE01.JPG,AFNE01.JPG,,,,,,,,,,,,,,,,,1,7,17,1,,,,,,,AFSA02.jpg,AFNE15.jpg,AFNE06.jpg,AFSA13.jpg,AFSA02.jpg,FS,4,num_8,32,num_4,0.950110526872,,,2017_Jan_30_1703,60.0057738568,FEMA4ImagesEEG,001,0001,
AFNE01.JPG,AFNE01.JPG,AFNE01.JPG,AFNE01.JPG,AFNE01.JPG,AFNE01.JPG,,,,,,,,,,,,,,,,,1,8,18,6,,,,,,,AFNE07.jpg,AFSA17.jpg,AFSA10.jpg,AFNE05.jpg,AFNE07.jpg,FN,3,num_8,32,num_6,0.666803301778,,,2017_Jan_30_1703,60.0057738568,FEMA4ImagesEEG,001,0001,
AFNE01.JPG,AFNE01.JPG,AFNE01.JPG,AFNE01.JPG,AFNE01.JPG,AFNE01.JPG,,,,,,,,,,,,,,,,,1,9,19,9,,,,,,,AFNE09.jpg,AFSA01.jpg,AFSA12.jpg,AFNE12.jpg,AFSA12.jpg,FS,4,num_2,16,num_2,0.500150106265,,,2017_Jan_30_1703,60.0057738568,FEMA4ImagesEEG,001,0001,
AFNE01.JPG,AFNE01.JPG,AFNE01.JPG,AFNE01.JPG,AFNE01.JPG,AFNE01.JPG,,,,,,,,,,,,,,,,,2,0,20,0,,,,,,,AFSA16.jpg,AFNE18.jpg,AFSA06.jpg,AFNE19.jpg,AFSA16.jpg,FS,4,num_8,16,num_8,0.866779438686,,,2017_Jan_30_1703,60.0057738568,FEMA4ImagesEEG,001,0001,
AFNE01.JPG,AFNE01.JPG,AFNE01.JPG,AFNE01.JPG,AFNE01.JPG,AFNE01.JPG,,,,,,,,,,,,,,,,,2,1,21,9,,,,,,,AFNE15.jpg,AFSA14.jpg,AFSA09.jpg,AFNE14.jpg,AFNE14.jpg,FN,3,num_4,32,num_6,0.750094297458,,,2017_Jan_30_1703,60.0057738568,FEMA4ImagesEEG,001,0001,
AFNE01.JPG,AFNE01.JPG,AFNE01.JPG,AFNE01.JPG,AFNE01.JPG,AFNE01.JPG,,,,,,,,,,,,,,,,,2,2,22,7,,,,,,,AFSA15.jpg,AFSA13.jpg,AFNE03.jpg,AFNE15.jpg,AFSA13.jpg,FS,4,num_6,32,num_4,0.683428208111,,,2017_Jan_30_1703,60.0057738568,FEMA4ImagesEEG,001,0001,
AFNE01.JPG,AFNE01.JPG,AFNE01.JPG,AFNE01.JPG,AFNE01.JPG,AFNE01.JPG,,,,,,,,,,,,,,,,,2,3,23,6,,,,,,,AFNE10.jpg,AFNE04.jpg,AFSA19.jpg,AFSA18.jpg,AFSA19.jpg,FS,4,num_2,16,num_2,0.516770522227,,,2017_Jan_30_1703,60.0057738568,FEMA4ImagesEEG,001,0001,
AFNE01.JPG,AFNE01.JPG,AFNE01.JPG,AFNE01.JPG,AFNE01.JPG,AFNE01.JPG,,,,,,,,,,,,,,,,,2,4,24,8,,,,,,,AFNE20.jpg,AFSA07.jpg,AFNE15.jpg,AFSA01.jpg,AFSA01.jpg,FS,4,num_4,32,num_6,0.616798041621,,,2017_Jan_30_1703,60.0057738568,FEMA4ImagesEEG,001,0001,
AFNE01.JPG,AFNE01.JPG,AFNE01.JPG,AFNE01.JPG,AFNE01.JPG,AFNE01.JPG,,,,,,,,,,,,,,,,,2,5,25,2,,,,,,,AFSA17.jpg,AFNE03.jpg,AFSA03.jpg,AFNE20.jpg,AFSA17.jpg,FS,4,num_8,32,num_4,0.583440460381,,,2017_Jan_30_1703,60.0057738568,FEMA4ImagesEEG,001,0001,
AFNE01.JPG,AFNE01.JPG,AFNE01.JPG,AFNE01.JPG,AFNE01.JPG,AFNE01.JPG,,,,,,,,,,,,,,,,,2,6,26,5,,,,,,,AFSA07.jpg,AFSA01.jpg,AFNE19.jpg,AFNE03.jpg,AFSA01.jpg,FS,4,num_6,16,num_6,0.916805867688,,,2017_Jan_30_1703,60.0057738568,FEMA4ImagesEEG,001,0001,
AFNE01.JPG,AFNE01.JPG,AFNE01.JPG,AFNE01.JPG,AFNE01.JPG,AFNE01.JPG,,,,,,,,,,,,,,,,,2,7,27,1,,,,,,,AFNE20.jpg,AFNE07.jpg,AFSA06.jpg,AFSA15.jpg,AFSA15.jpg,FS,4,num_4,32,num_2,0.60013208061,,,2017_Jan_30_1703,60.0057738568,FEMA4ImagesEEG,001,0001,
AFNE01.JPG,AFNE01.JPG,AFNE01.JPG,AFNE01.JPG,AFNE01.JPG,AFNE01.JPG,,,,,,,,,,,,,,,,,2,8,28,4,,,,,,,AFSA19.jpg,AFSA18.jpg,AFNE07.jpg,AFNE15.jpg,AFSA19.jpg,FS,4,num_8,32,num_4,0.766807407257,,,2017_Jan_30_1703,60.0057738568,FEMA4ImagesEEG,001,0001,
AFNE01.JPG,AFNE01.JPG,AFNE01.JPG,AFNE01.JPG,AFNE01.JPG,AFNE01.JPG,,,,,,,,,,,,,,,,,2,9,29,3,,,,,,,AFNE01.jpg,AFSA10.jpg,AFNE15.jpg,AFSA05.jpg,AFNE01.jpg,FN,3,num_8,16,num_8,0.483480937779,,,2017_Jan_30_1703,60.0057738568,FEMA4ImagesEEG,001,0001,
AFNE01.JPG,AFNE01.JPG,AFNE01.JPG,AFNE01.JPG,AFNE01.JPG,AFNE01.JPG,,,,,,,,,,,,,,,,,3,0,30,9,,,,,,,AFSA07.jpg,AFNE17.jpg,AFSA04.jpg,AFNE09.jpg,AFNE17.jpg,FN,3,num_6,32,num_8,1.00009622192,,,2017_Jan_30_1703,60.0057738568,FEMA4ImagesEEG,001,0001,
AFNE01.JPG,AFNE01.JPG,AFNE01.JPG,AFNE01.JPG,AFNE01.JPG,AFNE01.JPG,,,,,,,,,,,,,,,,,3,1,31,4,,,,,,,AFNE03.jpg,AFSA15.jpg,AFNE05.jpg,AFSA01.jpg,AFNE03.jpg,FN,3,num_8,16,num_8,1.00010007084,,,2017_Jan_30_1703,60.0057738568,FEMA4ImagesEEG,001,0001,
AFNE01.JPG,AFNE01.JPG,AFNE01.JPG,AFNE01.JPG,AFNE01.JPG,AFNE01.JPG,,,,,,,,,,,,,,,,,3,2,32,5,,,,,,,AFNE20.jpg,AFNE07.jpg,AFSA15.jpg,AFSA04.jpg,AFSA15.jpg,FS,4,num_2,16,num_2,0.850143627264,,,2017_Jan_30_1703,60.0057738568,FEMA4ImagesEEG,001,0001,
AFNE01.JPG,AFNE01.JPG,AFNE01.JPG,AFNE01.JPG,AFNE01.JPG,AFNE01.JPG,,,,,,,,,,,,,,,,,3,3,33,1,,,,,,,AFSA02.jpg,AFSA12.jpg,AFNE02.jpg,AFNE01.jpg,AFNE01.jpg,FN,3,num_4,16,num_4,0.733450788306,,,2017_Jan_30_1703,60.0057738568,FEMA4ImagesEEG,001,0001,
AFNE01.JPG,AFNE01.JPG,AFNE01.JPG,AFNE01.JPG,AFNE01.JPG,AFNE01.JPG,,,,,,,,,,,,,,,,,3,4,34,2,,,,,,,AFNE10.jpg,AFSA17.jpg,AFNE20.jpg,AFSA19.jpg,AFSA17.jpg,FS,4,num_6,32,num_8,0.850122779142,,,2017_Jan_30_1703,60.0057738568,FEMA4ImagesEEG,001,0001,
AFNE01.JPG,AFNE01.JPG,AFNE01.JPG,AFNE01.JPG,AFNE01.JPG,AFNE01.JPG,,,,,,,,,,,,,,,,,3,5,35,7,,,,,,,AFSA03.jpg,AFNE14.jpg,AFSA17.jpg,AFNE04.jpg,AFNE04.jpg,FN,3,num_4,32,num_6,0.483519105823,,,2017_Jan_30_1703,60.0057738568,FEMA4ImagesEEG,001,0001,
AFNE01.JPG,AFNE01.JPG,AFNE01.JPG,AFNE01.JPG,AFNE01.JPG,AFNE01.JPG,,,,,,,,,,,,,,,,,3,6,36,0,,,,,,,AFSA04.jpg,AFNE15.jpg,AFSA08.jpg,AFNE14.jpg,AFSA04.jpg,FS,4,num_8,32,num_4,0.583129984327,,,2017_Jan_30_1703,60.0057738568,FEMA4ImagesEEG,001,0001,
AFNE01.JPG,AFNE01.JPG,AFNE01.JPG,AFNE01.JPG,AFNE01.JPG,AFNE01.JPG,,,,,,,,,,,,,,,,,3,7,37,6,,,,,,,AFNE05.jpg,AFSA02.jpg,AFSA04.jpg,AFNE16.jpg,AFNE05.jpg,FN,3,num_8,32,num_6,0.91679913213,,,2017_Jan_30_1703,60.0057738568,FEMA4ImagesEEG,001,0001,
AFNE01.JPG,AFNE01.JPG,AFNE01.JPG,AFNE01.JPG,AFNE01.JPG,AFNE01.JPG,,,,,,,,,,,,,,,,,3,8,38,3,,,,,,,AFSA09.jpg,AFNE18.jpg,AFNE17.jpg,AFSA17.jpg,AFSA09.jpg,FS,4,num_8,16,num_8,0.866761156591,,,2017_Jan_30_1703,60.0057738568,FEMA4ImagesEEG,001,0001,
AFNE01.JPG,AFNE01.JPG,AFNE01.JPG,AFNE01.JPG,AFNE01.JPG,AFNE01.JPG,,,,,,,,,,,,,,,,,3,9,39,8,,,,,,,AFSA03.jpg,AFSA19.jpg,AFNE20.jpg,AFNE12.jpg,AFSA19.jpg,FS,4,num_6,32,num_4,0.650231638225,,,2017_Jan_30_1703,60.0057738568,FEMA4ImagesEEG,001,0001,
AFNE01.JPG,AFNE01.JPG,AFNE01.JPG,AFNE01.JPG,AFNE01.JPG,AFNE01.JPG,,,,,,,,,,,,,,,,,4,0,40,0,,,,,,,AFSA06.jpg,AFNE05.jpg,AFSA14.jpg,AFNE01.jpg,AFNE05.jpg,FN,3,num_6,16,num_6,0.616774627706,,,2017_Jan_30_1703,60.0057738568,FEMA4ImagesEEG,001,0001,
AFNE01.JPG,AFNE01.JPG,AFNE01.JPG,AFNE01.JPG,AFNE01.JPG,AFNE01.JPG,,,,,,,,,,,,,,,,,4,1,41,6,,,,,,,AFNE15.jpg,AFSA18.jpg,AFNE06.jpg,AFSA16.jpg,AFSA18.jpg,FS,4,num_6,32,num_4,0.750174161745,,,2017_Jan_30_1703,60.0057738568,FEMA4ImagesEEG,001,0001,
AFNE01.JPG,AFNE01.JPG,AFNE01.JPG,AFNE01.JPG,AFNE01.JPG,AFNE01.JPG,,,,,,,,,,,,,,,,,4,2,42,7,,,,,,,AFSA13.jpg,AFNE09.jpg,AFSA09.jpg,AFNE07.jpg,AFNE07.jpg,FN,3,num_4,32,num_8,1.18345547095,,,2017_Jan_30_1703,60.0057738568,FEMA4ImagesEEG,001,0001,
AFNE01.JPG,AFNE01.JPG,AFNE01.JPG,AFNE01.JPG,AFNE01.JPG,AFNE01.JPG,,,,,,,,,,,,,,,,,4,3,43,3,,,,,,,AFNE20.jpg,AFNE04.jpg,AFSA06.jpg,AFSA09.jpg,AFSA09.jpg,FS,4,num_4,16,num_4,0.483445014921,,,2017_Jan_30_1703,60.0057738568,FEMA4ImagesEEG,001,0001,
AFNE01.JPG,AFNE01.JPG,AFNE01.JPG,AFNE01.JPG,AFNE01.JPG,AFNE01.JPG,,,,,,,,,,,,,,,,,4,4,44,1,,,,,,,AFSA03.jpg,AFSA18.jpg,AFNE11.jpg,AFNE20.jpg,AFNE11.jpg,FN,3,num_2,16,num_2,0.616816965281,,,2017_Jan_30_1703,60.0057738568,FEMA4ImagesEEG,001,0001,
AFNE01.JPG,AFNE01.JPG,AFNE01.JPG,AFNE01.JPG,AFNE01.JPG,AFNE01.JPG,,,,,,,,,,,,,,,,,4,5,45,5,,,,,,,AFSA04.jpg,AFSA03.jpg,AFNE09.jpg,AFNE04.jpg,AFNE09.jpg,FN,3,num_2,16,num_2,0.650086663896,,,2017_Jan_30_1703,60.0057738568,FEMA4ImagesEEG,001,0001,
AFNE01.JPG,AFNE01.JPG,AFNE01.JPG,AFNE01.JPG,AFNE01.JPG,AFNE01.JPG,,,,,,,,,,,,,,,,,4,6,46,2,,,,,,,AFSA11.jpg,AFNE09.jpg,AFNE17.jpg,AFSA13.jpg,AFSA11.jpg,FS,4,num_8,32,num_4,0.68346348952,,,2017_Jan_30_1703,60.0057738568,FEMA4ImagesEEG,001,0001,
AFNE01.JPG,AFNE01.JPG,AFNE01.JPG,AFNE01.JPG,AFNE01.JPG,AFNE01.JPG,,,,,,,,,,,,,,,,,4,7,47,9,,,,,,,AFNE14.jpg,AFNE20.jpg,AFSA14.jpg,AFSA16.jpg,AFSA14.jpg,FS,4,num_2,16,num_2,0.550180704915,,,2017_Jan_30_1703,60.0057738568,FEMA4ImagesEEG,001,0001,
AFNE01.JPG,AFNE01.JPG,AFNE01.JPG,AFNE01.JPG,AFNE01.JPG,AFNE01.JPG,,,,,,,,,,,,,,,,,4,8,48,8,,,,,,,AFSA10.jpg,AFNE19.jpg,AFNE09.jpg,AFSA14.jpg,AFSA14.jpg,FS,4,num_4,32,num_2,0.450168901589,,,2017_Jan_30_1703,60.0057738568,FEMA4ImagesEEG,001,0001,
AFNE01.JPG,AFNE01.JPG,AFNE01.JPG,AFNE01.JPG,AFNE01.JPG,AFNE01.JPG,,,,,,,,,,,,,,,,,4,9,49,4,,,,,,,AFSA05.jpg,AFNE04.jpg,AFNE03.jpg,AFSA18.jpg,AFSA18.jpg,FS,4,num_4,32,num_6,0.666742361267,,,2017_Jan_30_1703,60.0057738568,FEMA4ImagesEEG,001,0001,
AFNE01.JPG,AFNE01.JPG,AFNE01.JPG,AFNE01.JPG,AFNE01.JPG,AFNE01.JPG,,,,,,,,,,,,,,,,,5,0,50,4,,,,,,,AFSA03.jpg,AFNE14.jpg,AFNE02.jpg,AFSA14.jpg,AFSA03.jpg,FS,4,num_8,32,num_4,0.533477537916,,,2017_Jan_30_1703,60.0057738568,FEMA4ImagesEEG,001,0001,
AFNE01.JPG,AFNE01.JPG,AFNE01.JPG,AFNE01.JPG,AFNE01.JPG,AFNE01.JPG,,,,,,,,,,,,,,,,,5,1,51,2,,,,,,,AFNE05.jpg,AFNE09.jpg,AFSA11.jpg,AFSA18.jpg,AFNE09.jpg,FN,3,num_6,32,num_8,0.400135416305,,,2017_Jan_30_1703,60.0057738568,FEMA4ImagesEEG,001,0001,
AFNE01.JPG,AFNE01.JPG,AFNE01.JPG,AFNE01.JPG,AFNE01.JPG,AFNE01.JPG,,,,,,,,,,,,,,,,,5,2,52,0,,,,,,,AFNE07.jpg,AFSA12.jpg,AFSA10.jpg,AFNE04.jpg,AFSA12.jpg,FS,4,num_6,32,num_8,1.66678951005,,,2017_Jan_30_1703,60.0057738568,FEMA4ImagesEEG,001,0001,
AFNE01.JPG,AFNE01.JPG,AFNE01.JPG,AFNE01.JPG,AFNE01.JPG,AFNE01.JPG,,,,,,,,,,,,,,,,,5,3,53,1,,,,,,,AFSA18.jpg,AFNE18.jpg,AFNE12.jpg,AFSA04.jpg,AFSA18.jpg,FS,4,num_8,32,num_4,0.617115574074,,,2017_Jan_30_1703,60.0057738568,FEMA4ImagesEEG,001,0001,
AFNE01.JPG,AFNE01.JPG,AFNE01.JPG,AFNE01.JPG,AFNE01.JPG,AFNE01.JPG,,,,,,,,,,,,,,,,,5,4,54,3,,,,,,,AFSA16.jpg,AFNE17.jpg,AFNE07.jpg,AFSA01.jpg,AFNE07.jpg,FN,3,num_2,16,num_2,1.13346079527,,,2017_Jan_30_1703,60.0057738568,FEMA4ImagesEEG,001,0001,
AFNE01.JPG,AFNE01.JPG,AFNE01.JPG,AFNE01.JPG,AFNE01.JPG,AFNE01.JPG,,,,,,,,,,,,,,,,,5,5,55,6,,,,,,,AFSA18.jpg,AFNE17.jpg,AFNE01.jpg,AFSA01.jpg,AFSA18.jpg,FS,4,num_8,32,num_6,0.566926850704,,,2017_Jan_30_1703,60.0057738568,FEMA4ImagesEEG,001,0001,
AFNE01.JPG,AFNE01.JPG,AFNE01.JPG,AFNE01.JPG,AFNE01.JPG,AFNE01.JPG,,,,,,,,,,,,,,,,,5,6,56,8,,,,,,,AFNE09.jpg,AFNE08.jpg,AFSA12.jpg,AFSA15.jpg,AFSA15.jpg,FS,4,num_4,16,num_4,0.966825881973,,,2017_Jan_30_1703,60.0057738568,FEMA4ImagesEEG,001,0001,
AFNE01.JPG,AFNE01.JPG,AFNE01.JPG,AFNE01.JPG,AFNE01.JPG,AFNE01.JPG,,,,,,,,,,,,,,,,,5,7,57,5,,,,,,,AFNE19.jpg,AFSA13.jpg,AFSA18.jpg,AFNE08.jpg,AFNE08.jpg,FN,3,num_4,32,num_6,0.650159471785,,,2017_Jan_30_1703,60.0057738568,FEMA4ImagesEEG,001,0001,
AFNE01.JPG,AFNE01.JPG,AFNE01.JPG,AFNE01.JPG,AFNE01.JPG,AFNE01.JPG,,,,,,,,,,,,,,,,,5,8,58,7,,,,,,,AFNE08.jpg,AFNE10.jpg,AFSA02.jpg,AFSA09.jpg,AFNE08.jpg,FN,3,num_8,16,num_8,1.30009570881,,,2017_Jan_30_1703,60.0057738568,FEMA4ImagesEEG,001,0001,
AFNE01.JPG,AFNE01.JPG,AFNE01.JPG,AFNE01.JPG,AFNE01.JPG,AFNE01.JPG,,,,,,,,,,,,,,,,,5,9,59,9,,,,,,,AFSA11.jpg,AFNE10.jpg,AFNE14.jpg,AFSA03.jpg,AFSA03.jpg,FS,4,num_4,16,num_4,0.600127590355,,,2017_Jan_30_1703,60.0057738568,FEMA4ImagesEEG,001,0001,
,,,,,,,,,,,,,,,,,,,,,,,,,,,,,,,,,,,,,,,,,,,space,14.3321270309,2017_Jan_30_1703,60.0057738568,FEMA4ImagesEEG,001,0001,
AFNE01.JPG,AFNE01.JPG,AFNE01.JPG,AFNE01.JPG,AFNE01.JPG,AFNE01.JPG,,,,,,,,,,,,,,,,,,,,,0,0,0,8,,,AMNE11.jpg,AMNE16.jpg,AMSA19.jpg,AMSA02.jpg,AMNE11.jpg,MN,1,num_8,32,num_6,0.683467659168,,,2017_Jan_30_1703,60.0057738568,FEMA4ImagesEEG,001,0001,
AFNE01.JPG,AFNE01.JPG,AFNE01.JPG,AFNE01.JPG,AFNE01.JPG,AFNE01.JPG,,,,,,,,,,,,,,,,,,,,,0,1,1,3,,,AMSA12.jpg,AMNE20.jpg,AMNE18.jpg,AMSA04.jpg,AMNE20.jpg,MN,1,num_6,32,num_4,0.783608720521,,,2017_Jan_30_1703,60.0057738568,FEMA4ImagesEEG,001,0001,
AFNE01.JPG,AFNE01.JPG,AFNE01.JPG,AFNE01.JPG,AFNE01.JPG,AFNE01.JPG,,,,,,,,,,,,,,,,,,,,,0,2,2,1,,,AMNE14.jpg,AMNE04.jpg,AMSA16.jpg,AMSA18.jpg,AMSA16.jpg,MS,2,num_2,16,num_2,0.550161460415,,,2017_Jan_30_1703,60.0057738568,FEMA4ImagesEEG,001,0001,
AFNE01.JPG,AFNE01.JPG,AFNE01.JPG,AFNE01.JPG,AFNE01.JPG,AFNE01.JPG,,,,,,,,,,,,,,,,,,,,,0,3,3,7,,,AMNE10.jpg,AMNE01.jpg,AMSA13.jpg,AMSA08.jpg,AMNE01.jpg,MN,1,num_6,16,num_6,0.866785212071,,,2017_Jan_30_1703,60.0057738568,FEMA4ImagesEEG,001,0001,
AFNE01.JPG,AFNE01.JPG,AFNE01.JPG,AFNE01.JPG,AFNE01.JPG,AFNE01.JPG,,,,,,,,,,,,,,,,,,,,,0,4,4,6,,,AMNE15.jpg,AMSA20.jpg,AMNE08.jpg,AMSA14.jpg,AMNE15.jpg,MN,1,num_8,32,num_6,0.466758847237,,,2017_Jan_30_1703,60.0057738568,FEMA4ImagesEEG,001,0001,
AFNE01.JPG,AFNE01.JPG,AFNE01.JPG,AFNE01.JPG,AFNE01.JPG,AFNE01.JPG,,,,,,,,,,,,,,,,,,,,,0,5,5,9,,,AMSA13.jpg,AMNE09.jpg,AMNE04.jpg,AMSA08.jpg,AMNE04.jpg,MN,1,num_2,16,num_2,1.36669732945,,,2017_Jan_30_1703,60.0057738568,FEMA4ImagesEEG,001,0001,
AFNE01.JPG,AFNE01.JPG,AFNE01.JPG,AFNE01.JPG,AFNE01.JPG,AFNE01.JPG,,,,,,,,,,,,,,,,,,,,,0,6,6,4,,,AMSA05.jpg,AMSA17.jpg,AMNE10.jpg,AMNE19.jpg,AMSA17.jpg,MS,2,num_6,16,num_6,0.866808626102,,,2017_Jan_30_1703,60.0057738568,FEMA4ImagesEEG,001,0001,
